workerId,hitId,assignmentId,subject,studyid,exp_date,exp_start,exp_end,time_start,time_end,practice,encoding,memory,block,trial,stim,answer,left_image,right_image,condition,response,response_time,response_acc,order_response,order_response_time,order_acc,distance_response,distance_response_time
3gCjylI7,NA,NA,3gCjylI7,2020-0188,2021-11-11,17:18:37,19:00:44,NA,incomplete,true,true,NA,0,0,E5_Q10_ansR.png,right,NA,NA,NA,right,1367.70000004768,true,NA,NA,NA,NA,NA
3gCjylI7,NA,NA,3gCjylI7,2020-0188,2021-11-11,17:18:37,19:00:44,NA,incomplete,true,true,NA,0,1,E5_Q6_ansR.png,right,NA,NA,NA,right,1021.89999997616,true,NA,NA,NA,NA,NA
3gCjylI7,NA,NA,3gCjylI7,2020-0188,2021-11-11,17:18:37,19:00:44,NA,incomplete,true,true,NA,0,2,E5_Q5_ansR.png,right,NA,NA,NA,right,1097.60000002384,true,NA,NA,NA,NA,NA
3gCjylI7,NA,NA,3gCjylI7,2020-0188,2021-11-11,17:18:37,19:00:44,NA,incomplete,true,true,NA,0,3,E5_Q7_ansL.png,left,NA,NA,NA,left,1108.29999995232,true,NA,NA,NA,NA,NA
3gCjylI7,NA,NA,3gCjylI7,2020-0188,2021-11-11,17:18:37,19:00:44,NA,incomplete,true,true,NA,0,4,E5_Q2_ansL.png,left,NA,NA,NA,left,954.600000023842,true,NA,NA,NA,NA,NA
3gCjylI7,NA,NA,3gCjylI7,2020-0188,2021-11-11,17:18:37,19:00:44,NA,incomplete,true,true,NA,0,5,E5_Q3_ansR.png,right,NA,NA,NA,right,906.299999952316,true,NA,NA,NA,NA,NA
3gCjylI7,NA,NA,3gCjylI7,2020-0188,2021-11-11,17:18:37,19:00:44,NA,incomplete,true,true,NA,0,6,E5_Q8_ansL.png,left,NA,NA,NA,left,769.299999952316,true,NA,NA,NA,NA,NA
3gCjylI7,NA,NA,3gCjylI7,2020-0188,2021-11-11,17:18:37,19:00:44,NA,incomplete,true,true,NA,0,7,E5_Q4_ansR.png,right,NA,NA,NA,right,1066.5,true,NA,NA,NA,NA,NA
3gCjylI7,NA,NA,3gCjylI7,2020-0188,2021-11-11,17:18:37,19:00:44,NA,incomplete,true,true,NA,0,8,E5_Q9_ansR.png,right,NA,NA,NA,right,683.200000047684,true,NA,NA,NA,NA,NA
3gCjylI7,NA,NA,3gCjylI7,2020-0188,2021-11-11,17:18:37,19:00:44,NA,incomplete,true,true,NA,0,9,E5_Q1_ansL.png,left,NA,NA,NA,left,1422.39999997616,true,NA,NA,NA,NA,NA
3gCjylI7,NA,NA,3gCjylI7,2020-0188,2021-11-11,17:18:37,19:00:44,NA,incomplete,true,true,NA,0,10,E14_Q6_ansR.png,right,NA,NA,NA,left,2257.79999995232,false,NA,NA,NA,NA,NA
3gCjylI7,NA,NA,3gCjylI7,2020-0188,2021-11-11,17:18:37,19:00:44,NA,incomplete,true,true,NA,0,11,E14_Q2_ansL.png,left,NA,NA,NA,left,1012,true,NA,NA,NA,NA,NA
3gCjylI7,NA,NA,3gCjylI7,2020-0188,2021-11-11,17:18:37,19:00:44,NA,incomplete,true,true,NA,0,12,E14_Q8_ansL.png,left,NA,NA,NA,left,1735.5,true,NA,NA,NA,NA,NA
3gCjylI7,NA,NA,3gCjylI7,2020-0188,2021-11-11,17:18:37,19:00:44,NA,incomplete,true,true,NA,0,13,E14_Q9_ansR.png,right,NA,NA,NA,right,1364.39999997616,true,NA,NA,NA,NA,NA
3gCjylI7,NA,NA,3gCjylI7,2020-0188,2021-11-11,17:18:37,19:00:44,NA,incomplete,true,true,NA,0,14,E14_Q3_ansR.png,right,NA,NA,NA,right,783.899999976158,true,NA,NA,NA,NA,NA
3gCjylI7,NA,NA,3gCjylI7,2020-0188,2021-11-11,17:18:37,19:00:44,NA,incomplete,true,true,NA,0,15,E14_Q1_ansL.png,left,NA,NA,NA,left,1069.20000004768,true,NA,NA,NA,NA,NA
3gCjylI7,NA,NA,3gCjylI7,2020-0188,2021-11-11,17:18:37,19:00:44,NA,incomplete,true,true,NA,0,16,E14_Q10_ansL.png,left,NA,NA,NA,left,1667,true,NA,NA,NA,NA,NA
3gCjylI7,NA,NA,3gCjylI7,2020-0188,2021-11-11,17:18:37,19:00:44,NA,incomplete,true,true,NA,0,17,E14_Q5_ansR.png,right,NA,NA,NA,right,2405.70000004768,true,NA,NA,NA,NA,NA
3gCjylI7,NA,NA,3gCjylI7,2020-0188,2021-11-11,17:18:37,19:00:44,NA,incomplete,true,true,NA,0,18,E14_Q4_ansR.png,right,NA,NA,NA,right,1152.89999997616,true,NA,NA,NA,NA,NA
3gCjylI7,NA,NA,3gCjylI7,2020-0188,2021-11-11,17:18:37,19:00:44,NA,incomplete,true,true,NA,0,19,E14_Q7_ansL.png,left,NA,NA,NA,left,1300.5,true,NA,NA,NA,NA,NA
3gCjylI7,NA,NA,3gCjylI7,2020-0188,2021-11-11,17:18:37,19:00:44,NA,incomplete,true,true,NA,0,20,E25_Q7_ansR.png,right,NA,NA,NA,right,3418.20000004768,true,NA,NA,NA,NA,NA
3gCjylI7,NA,NA,3gCjylI7,2020-0188,2021-11-11,17:18:37,19:00:44,NA,incomplete,true,true,NA,0,21,E25_Q5_ansL.png,left,NA,NA,NA,none,0,false,NA,NA,NA,NA,NA
3gCjylI7,NA,NA,3gCjylI7,2020-0188,2021-11-11,17:18:37,19:00:44,NA,incomplete,true,true,NA,0,22,E25_Q4_ansL.png,left,NA,NA,NA,none,0,false,NA,NA,NA,NA,NA
3gCjylI7,NA,NA,3gCjylI7,2020-0188,2021-11-11,17:18:37,19:00:44,NA,incomplete,true,true,NA,0,23,E25_Q3_ansL.png,left,NA,NA,NA,left,3290.60000002384,true,NA,NA,NA,NA,NA
3gCjylI7,NA,NA,3gCjylI7,2020-0188,2021-11-11,17:18:37,19:00:44,NA,incomplete,true,true,NA,0,24,E25_Q2_ansR.png,right,NA,NA,NA,right,2619.30000007153,true,NA,NA,NA,NA,NA
3gCjylI7,NA,NA,3gCjylI7,2020-0188,2021-11-11,17:18:37,19:00:44,NA,incomplete,true,true,NA,0,25,E25_Q9_ansL.png,left,NA,NA,NA,left,2521.80000007153,true,NA,NA,NA,NA,NA
3gCjylI7,NA,NA,3gCjylI7,2020-0188,2021-11-11,17:18:37,19:00:44,NA,incomplete,true,true,NA,0,26,E25_Q8_ansR.png,right,NA,NA,NA,right,1528.79999995232,true,NA,NA,NA,NA,NA
3gCjylI7,NA,NA,3gCjylI7,2020-0188,2021-11-11,17:18:37,19:00:44,NA,incomplete,true,true,NA,0,27,E25_Q6_ansL.png,left,NA,NA,NA,left,1557.10000002384,true,NA,NA,NA,NA,NA
3gCjylI7,NA,NA,3gCjylI7,2020-0188,2021-11-11,17:18:37,19:00:44,NA,incomplete,true,true,NA,0,28,E25_Q10_ansR.png,right,NA,NA,NA,none,0,false,NA,NA,NA,NA,NA
3gCjylI7,NA,NA,3gCjylI7,2020-0188,2021-11-11,17:18:37,19:00:44,NA,incomplete,true,true,NA,0,29,E25_Q1_ansR.png,right,NA,NA,NA,left,3483.89999997616,false,NA,NA,NA,NA,NA
3gCjylI7,NA,NA,3gCjylI7,2020-0188,2021-11-11,17:18:37,19:00:44,NA,incomplete,true,NA,true,0,0,NA,right,E25_Q9_ansL.png,E25_Q4_ansL.png,within,NA,NaN,NA,right,3905.399999976158,1,1,1654.7999999523163
3gCjylI7,NA,NA,3gCjylI7,2020-0188,2021-11-11,17:18:37,19:00:44,NA,incomplete,true,NA,true,0,1,NA,right,E5_Q7_ansL.png,E5_Q10_ansR.png,within,NA,NaN,NA,right,1946.7000000476837,1,1,2100.600000023842
3gCjylI7,NA,NA,3gCjylI7,2020-0188,2021-11-11,17:18:37,19:00:44,NA,incomplete,true,NA,true,0,2,NA,right,E25_Q4_ansL.png,E14_Q7_ansL.png,between,NA,NaN,NA,right,2359.3000000715256,1,2,3022.6999999284744
3gCjylI7,NA,NA,3gCjylI7,2020-0188,2021-11-11,17:18:37,19:00:44,NA,incomplete,true,NA,true,0,3,NA,left,E14_Q2_ansL.png,E14_Q3_ansR.png,within,NA,NaN,NA,left,2845.399999976158,1,1,2059.100000023842
3gCjylI7,NA,NA,3gCjylI7,2020-0188,2021-11-11,17:18:37,19:00:44,NA,incomplete,true,NA,true,0,4,NA,right,E25_Q6_ansL.png,E25_Q2_ansR.png,within,NA,NaN,NA,right,1938.3999999761581,1,0,2156.100000023842
3gCjylI7,NA,NA,3gCjylI7,2020-0188,2021-11-11,17:18:37,19:00:44,NA,incomplete,true,NA,true,0,5,NA,right,E5_Q1_ansL.png,E5_Q8_ansL.png,within,NA,NaN,NA,left,3047.7999999523163,0,1,2822.7000000476837
3gCjylI7,NA,NA,3gCjylI7,2020-0188,2021-11-11,17:18:37,19:00:44,NA,incomplete,true,NA,true,0,6,NA,left,E14_Q8_ansL.png,E14_Q1_ansL.png,within,NA,NaN,NA,left,5651.899999976158,1,1,1979.7000000476837
3gCjylI7,NA,NA,3gCjylI7,2020-0188,2021-11-11,17:18:37,19:00:44,NA,incomplete,true,NA,true,0,7,NA,left,E5_Q6_ansR.png,E5_Q2_ansL.png,within,NA,NaN,NA,left,3338.8000000715256,1,1,791
3gCjylI7,NA,NA,3gCjylI7,2020-0188,2021-11-11,17:18:37,19:00:44,NA,incomplete,true,NA,true,0,8,NA,left,E5_Q5_ansR.png,E5_Q3_ansR.png,within,NA,NaN,NA,left,2035.4000000953674,1,1,903.5
3gCjylI7,NA,NA,3gCjylI7,2020-0188,2021-11-11,17:18:37,19:00:44,NA,incomplete,true,NA,true,0,9,NA,right,E25_Q2_ansR.png,E25_Q5_ansL.png,within,NA,NaN,NA,right,3565.3000000715256,1,1,880.0999999046326
3gCjylI7,NA,NA,3gCjylI7,2020-0188,2021-11-11,17:18:37,19:00:44,NA,incomplete,true,NA,true,0,10,NA,right,E5_Q8_ansL.png,E5_Q7_ansL.png,within,NA,NaN,NA,right,2763.8000000715256,1,1,1095.8999999761581
3gCjylI7,NA,NA,3gCjylI7,2020-0188,2021-11-11,17:18:37,19:00:44,NA,incomplete,true,NA,true,0,11,NA,right,E25_Q7_ansR.png,E14_Q5_ansR.png,between,NA,NaN,NA,left,1865.3999999761581,0,1,854.1000000238419
3gCjylI7,NA,NA,3gCjylI7,2020-0188,2021-11-11,17:18:37,19:00:44,NA,incomplete,true,NA,true,0,12,NA,left,E25_Q7_ansR.png,E25_Q3_ansL.png,within,NA,NaN,NA,left,2303.5999999046326,1,1,1001.3999999761581
3gCjylI7,NA,NA,3gCjylI7,2020-0188,2021-11-11,17:18:37,19:00:44,NA,incomplete,true,NA,true,0,13,NA,left,E14_Q6_ansR.png,E14_Q9_ansR.png,within,NA,NaN,NA,left,1566.3000000715256,1,1,1389.1999999284744
3gCjylI7,NA,NA,3gCjylI7,2020-0188,2021-11-11,17:18:37,19:00:44,NA,incomplete,true,NA,true,0,14,NA,right,E5_Q9_ansR.png,E5_Q3_ansR.png,within,NA,NaN,NA,right,68654.20000004768,1,1,1235.6999999284744
3gCjylI7,NA,NA,3gCjylI7,2020-0188,2021-11-11,17:18:37,19:00:44,NA,incomplete,true,NA,true,0,15,NA,left,E14_Q3_ansR.png,E14_Q5_ansR.png,within,NA,NaN,NA,left,2465.600000023842,1,1,1107.8999999761581
3gCjylI7,NA,NA,3gCjylI7,2020-0188,2021-11-11,17:18:37,19:00:44,NA,incomplete,true,NA,true,0,16,NA,left,E5_Q9_ansR.png,E14_Q2_ansL.png,between,NA,NaN,NA,left,1882.2000000476837,1,3,1162.3999999761581
3gCjylI7,NA,NA,3gCjylI7,2020-0188,2021-11-11,17:18:37,19:00:44,NA,incomplete,true,NA,true,0,17,NA,left,E14_Q4_ansR.png,E25_Q5_ansL.png,between,NA,NaN,NA,left,4611,1,2,985.6000000238419
3gCjylI7,NA,NA,3gCjylI7,2020-0188,2021-11-11,17:18:37,19:00:44,NA,incomplete,true,NA,true,0,18,NA,left,E14_Q1_ansL.png,E14_Q4_ansR.png,within,NA,NaN,NA,left,4131.299999952316,1,1,952.6000000238419
3gCjylI7,NA,NA,3gCjylI7,2020-0188,2021-11-11,17:18:37,19:00:44,NA,incomplete,true,NA,true,0,19,NA,left,E25_Q3_ansL.png,E25_Q8_ansR.png,within,NA,NaN,NA,left,2537.7000000476837,1,1,961.5999999046326
3gCjylI7,NA,NA,3gCjylI7,2020-0188,2021-11-11,17:18:37,19:00:44,NA,incomplete,true,NA,true,0,20,NA,right,E14_Q7_ansL.png,E14_Q10_ansL.png,within,NA,NaN,NA,left,4738.899999976158,0,1,1114.5
3gCjylI7,NA,NA,3gCjylI7,2020-0188,2021-11-11,17:18:37,19:00:44,NA,incomplete,true,NA,true,0,21,NA,left,E5_Q4_ansR.png,E14_Q6_ansR.png,between,NA,NaN,NA,left,1842.8000000715256,1,3,1745.7000000476837
3gCjylI7,NA,NA,3gCjylI7,2020-0188,2021-11-11,17:18:37,19:00:44,NA,incomplete,true,NA,true,0,22,NA,right,E25_Q10_ansR.png,E25_Q9_ansL.png,within,NA,NaN,NA,right,1891,1,1,1081.7999999523163
3gCjylI7,NA,NA,3gCjylI7,2020-0188,2021-11-11,17:18:37,19:00:44,NA,incomplete,true,NA,true,0,23,NA,right,E14_Q10_ansL.png,E14_Q9_ansR.png,within,NA,NaN,NA,right,2302.2999999523163,1,1,928
3gCjylI7,NA,NA,3gCjylI7,2020-0188,2021-11-11,17:18:37,19:00:44,NA,incomplete,true,NA,true,0,24,NA,right,E5_Q4_ansR.png,E5_Q2_ansL.png,within,NA,NaN,NA,right,1986.5,1,0,2457.600000023842
3gCjylI7,NA,NA,3gCjylI7,2020-0188,2021-11-11,17:18:37,19:00:44,NA,incomplete,true,NA,true,0,25,NA,left,E5_Q1_ansL.png,E14_Q8_ansL.png,between,NA,NaN,NA,left,1785.3999999761581,1,2,1939.5
3gCjylI7,NA,NA,3gCjylI7,2020-0188,2021-11-11,17:18:37,19:00:44,NA,incomplete,true,NA,true,0,26,NA,right,E25_Q1_ansR.png,E25_Q8_ansR.png,within,NA,NaN,NA,right,1875.5999999046326,1,1,1349.2999999523163
3gCjylI7,NA,NA,3gCjylI7,2020-0188,2021-11-11,17:18:37,19:00:44,NA,incomplete,false,true,NA,1,0,E7_Q6_ansR.png,right,NA,NA,NA,right,1367.5,true,NA,NA,NA,NA,NA
3gCjylI7,NA,NA,3gCjylI7,2020-0188,2021-11-11,17:18:37,19:00:44,NA,incomplete,false,true,NA,1,1,E7_Q8_ansL.png,left,NA,NA,NA,left,1023.60000002384,true,NA,NA,NA,NA,NA
3gCjylI7,NA,NA,3gCjylI7,2020-0188,2021-11-11,17:18:37,19:00:44,NA,incomplete,false,true,NA,1,2,E7_Q7_ansL.png,left,NA,NA,NA,left,658.699999928474,true,NA,NA,NA,NA,NA
3gCjylI7,NA,NA,3gCjylI7,2020-0188,2021-11-11,17:18:37,19:00:44,NA,incomplete,false,true,NA,1,3,E7_Q1_ansL.png,left,NA,NA,NA,left,1153.59999990463,true,NA,NA,NA,NA,NA
3gCjylI7,NA,NA,3gCjylI7,2020-0188,2021-11-11,17:18:37,19:00:44,NA,incomplete,false,true,NA,1,4,E7_Q4_ansR.png,right,NA,NA,NA,right,1138.09999990463,true,NA,NA,NA,NA,NA
3gCjylI7,NA,NA,3gCjylI7,2020-0188,2021-11-11,17:18:37,19:00:44,NA,incomplete,false,true,NA,1,5,E7_Q2_ansL.png,left,NA,NA,NA,left,937.200000047684,true,NA,NA,NA,NA,NA
3gCjylI7,NA,NA,3gCjylI7,2020-0188,2021-11-11,17:18:37,19:00:44,NA,incomplete,false,true,NA,1,6,E7_Q9_ansR.png,right,NA,NA,NA,right,1441.39999997616,true,NA,NA,NA,NA,NA
3gCjylI7,NA,NA,3gCjylI7,2020-0188,2021-11-11,17:18:37,19:00:44,NA,incomplete,false,true,NA,1,7,E7_Q10_ansR.png,right,NA,NA,NA,right,1721.70000004768,true,NA,NA,NA,NA,NA
3gCjylI7,NA,NA,3gCjylI7,2020-0188,2021-11-11,17:18:37,19:00:44,NA,incomplete,false,true,NA,1,8,E7_Q3_ansR.png,right,NA,NA,NA,right,920,true,NA,NA,NA,NA,NA
3gCjylI7,NA,NA,3gCjylI7,2020-0188,2021-11-11,17:18:37,19:00:44,NA,incomplete,false,true,NA,1,9,E7_Q5_ansR.png,right,NA,NA,NA,right,1230.59999990463,true,NA,NA,NA,NA,NA
3gCjylI7,NA,NA,3gCjylI7,2020-0188,2021-11-11,17:18:37,19:00:44,NA,incomplete,false,true,NA,1,10,E18_Q4_ansR.png,right,NA,NA,NA,right,1168.09999990463,true,NA,NA,NA,NA,NA
3gCjylI7,NA,NA,3gCjylI7,2020-0188,2021-11-11,17:18:37,19:00:44,NA,incomplete,false,true,NA,1,11,E18_Q10_ansL.png,left,NA,NA,NA,left,1559,true,NA,NA,NA,NA,NA
3gCjylI7,NA,NA,3gCjylI7,2020-0188,2021-11-11,17:18:37,19:00:44,NA,incomplete,false,true,NA,1,12,E18_Q9_ansR.png,right,NA,NA,NA,right,1327.89999997616,true,NA,NA,NA,NA,NA
3gCjylI7,NA,NA,3gCjylI7,2020-0188,2021-11-11,17:18:37,19:00:44,NA,incomplete,false,true,NA,1,13,E18_Q1_ansL.png,left,NA,NA,NA,left,1047.40000009537,true,NA,NA,NA,NA,NA
3gCjylI7,NA,NA,3gCjylI7,2020-0188,2021-11-11,17:18:37,19:00:44,NA,incomplete,false,true,NA,1,14,E18_Q3_ansR.png,right,NA,NA,NA,right,1261.29999995232,true,NA,NA,NA,NA,NA
3gCjylI7,NA,NA,3gCjylI7,2020-0188,2021-11-11,17:18:37,19:00:44,NA,incomplete,false,true,NA,1,15,E18_Q8_ansL.png,left,NA,NA,NA,left,983.800000071526,true,NA,NA,NA,NA,NA
3gCjylI7,NA,NA,3gCjylI7,2020-0188,2021-11-11,17:18:37,19:00:44,NA,incomplete,false,true,NA,1,16,E18_Q5_ansR.png,right,NA,NA,NA,right,1004.90000009537,true,NA,NA,NA,NA,NA
3gCjylI7,NA,NA,3gCjylI7,2020-0188,2021-11-11,17:18:37,19:00:44,NA,incomplete,false,true,NA,1,17,E18_Q6_ansR.png,right,NA,NA,NA,right,772.799999952316,true,NA,NA,NA,NA,NA
3gCjylI7,NA,NA,3gCjylI7,2020-0188,2021-11-11,17:18:37,19:00:44,NA,incomplete,false,true,NA,1,18,E18_Q7_ansL.png,left,NA,NA,NA,left,1061.5,true,NA,NA,NA,NA,NA
3gCjylI7,NA,NA,3gCjylI7,2020-0188,2021-11-11,17:18:37,19:00:44,NA,incomplete,false,true,NA,1,19,E18_Q2_ansL.png,left,NA,NA,NA,left,905.100000023842,true,NA,NA,NA,NA,NA
3gCjylI7,NA,NA,3gCjylI7,2020-0188,2021-11-11,17:18:37,19:00:44,NA,incomplete,false,true,NA,1,20,E22_Q1_ansR.png,right,NA,NA,NA,right,1117.79999995232,true,NA,NA,NA,NA,NA
3gCjylI7,NA,NA,3gCjylI7,2020-0188,2021-11-11,17:18:37,19:00:44,NA,incomplete,false,true,NA,1,21,E22_Q9_ansL.png,left,NA,NA,NA,left,1248.60000002384,true,NA,NA,NA,NA,NA
3gCjylI7,NA,NA,3gCjylI7,2020-0188,2021-11-11,17:18:37,19:00:44,NA,incomplete,false,true,NA,1,22,E22_Q3_ansL.png,left,NA,NA,NA,left,663.299999952316,true,NA,NA,NA,NA,NA
3gCjylI7,NA,NA,3gCjylI7,2020-0188,2021-11-11,17:18:37,19:00:44,NA,incomplete,false,true,NA,1,23,E22_Q4_ansL.png,left,NA,NA,NA,left,771.899999976158,true,NA,NA,NA,NA,NA
3gCjylI7,NA,NA,3gCjylI7,2020-0188,2021-11-11,17:18:37,19:00:44,NA,incomplete,false,true,NA,1,24,E22_Q8_ansR.png,right,NA,NA,NA,right,1128.10000002384,true,NA,NA,NA,NA,NA
3gCjylI7,NA,NA,3gCjylI7,2020-0188,2021-11-11,17:18:37,19:00:44,NA,incomplete,false,true,NA,1,25,E22_Q10_ansR.png,right,NA,NA,NA,right,919.100000023842,true,NA,NA,NA,NA,NA
3gCjylI7,NA,NA,3gCjylI7,2020-0188,2021-11-11,17:18:37,19:00:44,NA,incomplete,false,true,NA,1,26,E22_Q7_ansR.png,right,NA,NA,NA,right,1715.69999992847,true,NA,NA,NA,NA,NA
3gCjylI7,NA,NA,3gCjylI7,2020-0188,2021-11-11,17:18:37,19:00:44,NA,incomplete,false,true,NA,1,27,E22_Q5_ansL.png,left,NA,NA,NA,right,9.60000002384186,false,NA,NA,NA,NA,NA
3gCjylI7,NA,NA,3gCjylI7,2020-0188,2021-11-11,17:18:37,19:00:44,NA,incomplete,false,true,NA,1,28,E22_Q6_ansL.png,left,NA,NA,NA,left,910.700000047684,true,NA,NA,NA,NA,NA
3gCjylI7,NA,NA,3gCjylI7,2020-0188,2021-11-11,17:18:37,19:00:44,NA,incomplete,false,true,NA,1,29,E22_Q2_ansR.png,right,NA,NA,NA,right,933.899999976158,true,NA,NA,NA,NA,NA
3gCjylI7,NA,NA,3gCjylI7,2020-0188,2021-11-11,17:18:37,19:00:44,NA,incomplete,false,NA,true,1,0,NA,right,E22_Q8_ansR.png,E22_Q9_ansL.png,within,NA,NaN,NA,right,1723.5,1,1,1704
3gCjylI7,NA,NA,3gCjylI7,2020-0188,2021-11-11,17:18:37,19:00:44,NA,incomplete,false,NA,true,1,1,NA,left,E18_Q1_ansL.png,E18_Q5_ansR.png,within,NA,NaN,NA,right,1350.5,0,1,1801.7000000476837
3gCjylI7,NA,NA,3gCjylI7,2020-0188,2021-11-11,17:18:37,19:00:44,NA,incomplete,false,NA,true,1,2,NA,left,E18_Q5_ansR.png,E18_Q2_ansL.png,within,NA,NaN,NA,left,2513.2000000476837,1,1,1057.8999999761581
3gCjylI7,NA,NA,3gCjylI7,2020-0188,2021-11-11,17:18:37,19:00:44,NA,incomplete,false,NA,true,1,3,NA,left,E7_Q10_ansR.png,E18_Q4_ansR.png,between,NA,NaN,NA,left,2892,1,2,1582.7000000476837
3gCjylI7,NA,NA,3gCjylI7,2020-0188,2021-11-11,17:18:37,19:00:44,NA,incomplete,false,NA,true,1,4,NA,right,E7_Q2_ansL.png,E7_Q7_ansL.png,within,NA,NaN,NA,right,1558.5,1,0,1487.5
3gCjylI7,NA,NA,3gCjylI7,2020-0188,2021-11-11,17:18:37,19:00:44,NA,incomplete,false,NA,true,1,5,NA,left,E22_Q1_ansR.png,E22_Q4_ansL.png,within,NA,NaN,NA,left,3564.399999976158,1,0,2546.2000000476837
3gCjylI7,NA,NA,3gCjylI7,2020-0188,2021-11-11,17:18:37,19:00:44,NA,incomplete,false,NA,true,1,6,NA,left,E18_Q4_ansR.png,E18_Q1_ansL.png,within,NA,NaN,NA,left,3313.5999999046326,1,1,1088.8999999761581
3gCjylI7,NA,NA,3gCjylI7,2020-0188,2021-11-11,17:18:37,19:00:44,NA,incomplete,false,NA,true,1,7,NA,right,E22_Q1_ansR.png,E18_Q6_ansR.png,between,NA,NaN,NA,left,7422.200000047684,0,2,1461.7000000476837
3gCjylI7,NA,NA,3gCjylI7,2020-0188,2021-11-11,17:18:37,19:00:44,NA,incomplete,false,NA,true,1,8,NA,left,E22_Q4_ansL.png,E22_Q7_ansR.png,within,NA,NaN,NA,left,2757.600000023842,1,1,944
3gCjylI7,NA,NA,3gCjylI7,2020-0188,2021-11-11,17:18:37,19:00:44,NA,incomplete,false,NA,true,1,9,NA,right,E18_Q6_ansR.png,E18_Q3_ansR.png,within,NA,NaN,NA,right,3103.7999999523163,1,1,1017.3999999761581
3gCjylI7,NA,NA,3gCjylI7,2020-0188,2021-11-11,17:18:37,19:00:44,NA,incomplete,false,NA,true,1,10,NA,right,E22_Q6_ansL.png,E22_Q10_ansR.png,within,NA,NaN,NA,right,3346.399999976158,1,0,1488.3000000715256
3gCjylI7,NA,NA,3gCjylI7,2020-0188,2021-11-11,17:18:37,19:00:44,NA,incomplete,false,NA,true,1,11,NA,right,E7_Q1_ansL.png,E7_Q6_ansR.png,within,NA,NaN,NA,right,2595.2000000476837,1,0,1380.5999999046326
3gCjylI7,NA,NA,3gCjylI7,2020-0188,2021-11-11,17:18:37,19:00:44,NA,incomplete,false,NA,true,1,12,NA,right,E22_Q5_ansL.png,E22_Q8_ansR.png,within,NA,NaN,NA,right,1754.5,1,0,946
3gCjylI7,NA,NA,3gCjylI7,2020-0188,2021-11-11,17:18:37,19:00:44,NA,incomplete,false,NA,true,1,13,NA,right,E22_Q3_ansL.png,E18_Q2_ansL.png,between,NA,NaN,NA,left,2739.899999976158,0,2,1630.5999999046326
3gCjylI7,NA,NA,3gCjylI7,2020-0188,2021-11-11,17:18:37,19:00:44,NA,incomplete,false,NA,true,1,14,NA,left,E18_Q9_ansR.png,E18_Q8_ansL.png,within,NA,NaN,NA,right,3820.399999976158,0,1,1234.3000000715256
3gCjylI7,NA,NA,3gCjylI7,2020-0188,2021-11-11,17:18:37,19:00:44,NA,incomplete,false,NA,true,1,15,NA,right,E18_Q3_ansR.png,E18_Q10_ansL.png,within,NA,NaN,NA,right,1954.8999999761581,1,0,1293.3999999761581
3gCjylI7,NA,NA,3gCjylI7,2020-0188,2021-11-11,17:18:37,19:00:44,NA,incomplete,false,NA,true,1,16,NA,left,E7_Q4_ansR.png,E7_Q10_ansR.png,within,NA,NaN,NA,left,4130.400000095367,1,0,1276.9000000953674
3gCjylI7,NA,NA,3gCjylI7,2020-0188,2021-11-11,17:18:37,19:00:44,NA,incomplete,false,NA,true,1,17,NA,right,E22_Q9_ansL.png,E18_Q7_ansL.png,between,NA,NaN,NA,left,2052.5,0,1,1963.1000000238419
3gCjylI7,NA,NA,3gCjylI7,2020-0188,2021-11-11,17:18:37,19:00:44,NA,incomplete,false,NA,true,1,18,NA,left,E22_Q3_ansL.png,E22_Q10_ansR.png,within,NA,NaN,NA,left,2318.899999976158,1,0,831.7000000476837
3gCjylI7,NA,NA,3gCjylI7,2020-0188,2021-11-11,17:18:37,19:00:44,NA,incomplete,false,NA,true,1,19,NA,left,E22_Q7_ansR.png,E22_Q2_ansR.png,within,NA,NaN,NA,right,3275,0,0,1196
3gCjylI7,NA,NA,3gCjylI7,2020-0188,2021-11-11,17:18:37,19:00:44,NA,incomplete,false,NA,true,1,20,NA,right,E18_Q10_ansL.png,E7_Q3_ansR.png,between,NA,NaN,NA,right,1679.8000000715256,1,0,1234.5
3gCjylI7,NA,NA,3gCjylI7,2020-0188,2021-11-11,17:18:37,19:00:44,NA,incomplete,false,NA,true,1,21,NA,left,E7_Q1_ansL.png,E7_Q9_ansR.png,within,NA,NaN,NA,left,2110.2999999523163,1,0,1495.2000000476837
3gCjylI7,NA,NA,3gCjylI7,2020-0188,2021-11-11,17:18:37,19:00:44,NA,incomplete,false,NA,true,1,22,NA,left,E7_Q5_ansR.png,E18_Q9_ansR.png,between,NA,NaN,NA,left,1924,1,3,1566.8999999761581
3gCjylI7,NA,NA,3gCjylI7,2020-0188,2021-11-11,17:18:37,19:00:44,NA,incomplete,false,NA,true,1,23,NA,left,E7_Q2_ansL.png,E7_Q3_ansR.png,within,NA,NaN,NA,left,2173,1,0,782.1000000238419
3gCjylI7,NA,NA,3gCjylI7,2020-0188,2021-11-11,17:18:37,19:00:44,NA,incomplete,false,NA,true,1,24,NA,right,E7_Q4_ansR.png,E7_Q8_ansL.png,within,NA,NaN,NA,right,1729.5,1,0,1446.6000000238419
3gCjylI7,NA,NA,3gCjylI7,2020-0188,2021-11-11,17:18:37,19:00:44,NA,incomplete,false,NA,true,1,25,NA,left,E7_Q9_ansR.png,E7_Q5_ansR.png,within,NA,NaN,NA,right,3508.2999999523163,0,0,871.7000000476837
3gCjylI7,NA,NA,3gCjylI7,2020-0188,2021-11-11,17:18:37,19:00:44,NA,incomplete,false,NA,true,1,26,NA,right,E18_Q7_ansL.png,E18_Q8_ansL.png,within,NA,NaN,NA,left,4074.899999976158,0,0,2327.5
3gCjylI7,NA,NA,3gCjylI7,2020-0188,2021-11-11,17:18:37,19:00:44,NA,incomplete,false,true,NA,2,0,E28_Q7_ansR.png,right,NA,NA,NA,right,1355.60000002384,true,NA,NA,NA,NA,NA
3gCjylI7,NA,NA,3gCjylI7,2020-0188,2021-11-11,17:18:37,19:00:44,NA,incomplete,false,true,NA,2,1,E28_Q6_ansL.png,left,NA,NA,NA,left,944.600000023842,true,NA,NA,NA,NA,NA
3gCjylI7,NA,NA,3gCjylI7,2020-0188,2021-11-11,17:18:37,19:00:44,NA,incomplete,false,true,NA,2,2,E28_Q8_ansR.png,right,NA,NA,NA,right,1114.70000004768,true,NA,NA,NA,NA,NA
3gCjylI7,NA,NA,3gCjylI7,2020-0188,2021-11-11,17:18:37,19:00:44,NA,incomplete,false,true,NA,2,3,E28_Q10_ansR.png,right,NA,NA,NA,right,534.600000023842,true,NA,NA,NA,NA,NA
3gCjylI7,NA,NA,3gCjylI7,2020-0188,2021-11-11,17:18:37,19:00:44,NA,incomplete,false,true,NA,2,4,E28_Q9_ansL.png,left,NA,NA,NA,left,1122.10000002384,true,NA,NA,NA,NA,NA
3gCjylI7,NA,NA,3gCjylI7,2020-0188,2021-11-11,17:18:37,19:00:44,NA,incomplete,false,true,NA,2,5,E28_Q3_ansL.png,left,NA,NA,NA,left,891.800000071526,true,NA,NA,NA,NA,NA
3gCjylI7,NA,NA,3gCjylI7,2020-0188,2021-11-11,17:18:37,19:00:44,NA,incomplete,false,true,NA,2,6,E28_Q2_ansR.png,right,NA,NA,NA,right,1091.70000004768,true,NA,NA,NA,NA,NA
3gCjylI7,NA,NA,3gCjylI7,2020-0188,2021-11-11,17:18:37,19:00:44,NA,incomplete,false,true,NA,2,7,E28_Q5_ansL.png,left,NA,NA,NA,left,1627.89999997616,true,NA,NA,NA,NA,NA
3gCjylI7,NA,NA,3gCjylI7,2020-0188,2021-11-11,17:18:37,19:00:44,NA,incomplete,false,true,NA,2,8,E28_Q1_ansR.png,right,NA,NA,NA,right,903.899999976158,true,NA,NA,NA,NA,NA
3gCjylI7,NA,NA,3gCjylI7,2020-0188,2021-11-11,17:18:37,19:00:44,NA,incomplete,false,true,NA,2,9,E28_Q4_ansL.png,left,NA,NA,NA,left,1038.39999997616,true,NA,NA,NA,NA,NA
3gCjylI7,NA,NA,3gCjylI7,2020-0188,2021-11-11,17:18:37,19:00:44,NA,incomplete,false,true,NA,2,10,E27_Q4_ansR.png,right,NA,NA,NA,right,906.600000023842,true,NA,NA,NA,NA,NA
3gCjylI7,NA,NA,3gCjylI7,2020-0188,2021-11-11,17:18:37,19:00:44,NA,incomplete,false,true,NA,2,11,E27_Q5_ansR.png,right,NA,NA,NA,right,1064.40000009537,true,NA,NA,NA,NA,NA
3gCjylI7,NA,NA,3gCjylI7,2020-0188,2021-11-11,17:18:37,19:00:44,NA,incomplete,false,true,NA,2,12,E27_Q1_ansL.png,left,NA,NA,NA,left,1056.19999992847,true,NA,NA,NA,NA,NA
3gCjylI7,NA,NA,3gCjylI7,2020-0188,2021-11-11,17:18:37,19:00:44,NA,incomplete,false,true,NA,2,13,E27_Q7_ansL.png,left,NA,NA,NA,left,1531.5,true,NA,NA,NA,NA,NA
3gCjylI7,NA,NA,3gCjylI7,2020-0188,2021-11-11,17:18:37,19:00:44,NA,incomplete,false,true,NA,2,14,E27_Q8_ansL.png,left,NA,NA,NA,left,652.199999928474,true,NA,NA,NA,NA,NA
3gCjylI7,NA,NA,3gCjylI7,2020-0188,2021-11-11,17:18:37,19:00:44,NA,incomplete,false,true,NA,2,15,E27_Q3_ansR.png,right,NA,NA,NA,right,982.899999976158,true,NA,NA,NA,NA,NA
3gCjylI7,NA,NA,3gCjylI7,2020-0188,2021-11-11,17:18:37,19:00:44,NA,incomplete,false,true,NA,2,16,E27_Q6_ansR.png,right,NA,NA,NA,right,1057.20000004768,true,NA,NA,NA,NA,NA
3gCjylI7,NA,NA,3gCjylI7,2020-0188,2021-11-11,17:18:37,19:00:44,NA,incomplete,false,true,NA,2,17,E27_Q9_ansR.png,right,NA,NA,NA,right,943.399999976158,true,NA,NA,NA,NA,NA
3gCjylI7,NA,NA,3gCjylI7,2020-0188,2021-11-11,17:18:37,19:00:44,NA,incomplete,false,true,NA,2,18,E27_Q10_ansL.png,left,NA,NA,NA,left,1033.09999990463,true,NA,NA,NA,NA,NA
3gCjylI7,NA,NA,3gCjylI7,2020-0188,2021-11-11,17:18:37,19:00:44,NA,incomplete,false,true,NA,2,19,E27_Q2_ansL.png,left,NA,NA,NA,left,981.5,true,NA,NA,NA,NA,NA
3gCjylI7,NA,NA,3gCjylI7,2020-0188,2021-11-11,17:18:37,19:00:44,NA,incomplete,false,true,NA,2,20,E32_Q9_ansR.png,right,NA,NA,NA,right,1074.90000009537,true,NA,NA,NA,NA,NA
3gCjylI7,NA,NA,3gCjylI7,2020-0188,2021-11-11,17:18:37,19:00:44,NA,incomplete,false,true,NA,2,21,E32_Q4_ansR.png,right,NA,NA,NA,right,1089.10000002384,true,NA,NA,NA,NA,NA
3gCjylI7,NA,NA,3gCjylI7,2020-0188,2021-11-11,17:18:37,19:00:44,NA,incomplete,false,true,NA,2,22,E32_Q8_ansL.png,left,NA,NA,NA,left,1009.29999995232,true,NA,NA,NA,NA,NA
3gCjylI7,NA,NA,3gCjylI7,2020-0188,2021-11-11,17:18:37,19:00:44,NA,incomplete,false,true,NA,2,23,E32_Q2_ansL.png,left,NA,NA,NA,right,840.600000023842,false,NA,NA,NA,NA,NA
3gCjylI7,NA,NA,3gCjylI7,2020-0188,2021-11-11,17:18:37,19:00:44,NA,incomplete,false,true,NA,2,24,E32_Q5_ansR.png,right,NA,NA,NA,right,1814.5,true,NA,NA,NA,NA,NA
3gCjylI7,NA,NA,3gCjylI7,2020-0188,2021-11-11,17:18:37,19:00:44,NA,incomplete,false,true,NA,2,25,E32_Q7_ansL.png,left,NA,NA,NA,left,1224.5,true,NA,NA,NA,NA,NA
3gCjylI7,NA,NA,3gCjylI7,2020-0188,2021-11-11,17:18:37,19:00:44,NA,incomplete,false,true,NA,2,26,E32_Q6_ansR.png,right,NA,NA,NA,right,1201.79999995232,true,NA,NA,NA,NA,NA
3gCjylI7,NA,NA,3gCjylI7,2020-0188,2021-11-11,17:18:37,19:00:44,NA,incomplete,false,true,NA,2,27,E32_Q10_ansL.png,left,NA,NA,NA,left,1193.5,true,NA,NA,NA,NA,NA
3gCjylI7,NA,NA,3gCjylI7,2020-0188,2021-11-11,17:18:37,19:00:44,NA,incomplete,false,true,NA,2,28,E32_Q3_ansR.png,right,NA,NA,NA,right,1553,true,NA,NA,NA,NA,NA
3gCjylI7,NA,NA,3gCjylI7,2020-0188,2021-11-11,17:18:37,19:00:44,NA,incomplete,false,true,NA,2,29,E32_Q1_ansL.png,left,NA,NA,NA,left,943.399999976158,true,NA,NA,NA,NA,NA
3gCjylI7,NA,NA,3gCjylI7,2020-0188,2021-11-11,17:18:37,19:00:44,NA,incomplete,false,NA,true,2,0,NA,right,E27_Q1_ansL.png,E28_Q4_ansL.png,between,NA,NaN,NA,right,1784.7000000476837,1,2,1859.1999999284744
3gCjylI7,NA,NA,3gCjylI7,2020-0188,2021-11-11,17:18:37,19:00:44,NA,incomplete,false,NA,true,2,1,NA,right,E28_Q1_ansR.png,E28_Q3_ansL.png,within,NA,NaN,NA,right,3088.7999999523163,1,1,1139.7999999523163
3gCjylI7,NA,NA,3gCjylI7,2020-0188,2021-11-11,17:18:37,19:00:44,NA,incomplete,false,NA,true,2,2,NA,left,E32_Q2_ansL.png,E32_Q6_ansR.png,within,NA,NaN,NA,right,2668.5,0,1,1244.3999999761581
3gCjylI7,NA,NA,3gCjylI7,2020-0188,2021-11-11,17:18:37,19:00:44,NA,incomplete,false,NA,true,2,3,NA,left,E28_Q8_ansR.png,E28_Q3_ansL.png,within,NA,NaN,NA,left,1429.1000000238419,1,1,838.3000000715256
3gCjylI7,NA,NA,3gCjylI7,2020-0188,2021-11-11,17:18:37,19:00:44,NA,incomplete,false,NA,true,2,4,NA,left,E32_Q6_ansR.png,E32_Q1_ansL.png,within,NA,NaN,NA,right,1940,0,1,1551.1000000238419
3gCjylI7,NA,NA,3gCjylI7,2020-0188,2021-11-11,17:18:37,19:00:44,NA,incomplete,false,NA,true,2,5,NA,left,E27_Q4_ansR.png,E27_Q7_ansL.png,within,NA,NaN,NA,left,2407.3000000715256,1,1,911.6000000238419
3gCjylI7,NA,NA,3gCjylI7,2020-0188,2021-11-11,17:18:37,19:00:44,NA,incomplete,false,NA,true,2,6,NA,left,E28_Q5_ansL.png,E27_Q4_ansR.png,between,NA,NaN,NA,left,1429.1000000238419,1,3,1161.7999999523163
3gCjylI7,NA,NA,3gCjylI7,2020-0188,2021-11-11,17:18:37,19:00:44,NA,incomplete,false,NA,true,2,7,NA,left,E28_Q6_ansL.png,E28_Q9_ansL.png,within,NA,NaN,NA,left,2491.5,1,1,1235.7999999523163
3gCjylI7,NA,NA,3gCjylI7,2020-0188,2021-11-11,17:18:37,19:00:44,NA,incomplete,false,NA,true,2,8,NA,right,E32_Q8_ansL.png,E27_Q2_ansL.png,between,NA,NaN,NA,right,4696.600000023842,1,1,1017
3gCjylI7,NA,NA,3gCjylI7,2020-0188,2021-11-11,17:18:37,19:00:44,NA,incomplete,false,NA,true,2,9,NA,right,E32_Q7_ansL.png,E32_Q8_ansL.png,within,NA,NaN,NA,right,1422.0999999046326,1,1,951.8999999761581
3gCjylI7,NA,NA,3gCjylI7,2020-0188,2021-11-11,17:18:37,19:00:44,NA,incomplete,false,NA,true,2,10,NA,left,E32_Q4_ansR.png,E32_Q5_ansR.png,within,NA,NaN,NA,left,3184.2999999523163,1,1,1792.3000000715256
3gCjylI7,NA,NA,3gCjylI7,2020-0188,2021-11-11,17:18:37,19:00:44,NA,incomplete,false,NA,true,2,11,NA,right,E32_Q3_ansR.png,E32_Q7_ansL.png,within,NA,NaN,NA,left,1583.6999999284744,0,1,1614.7000000476837
3gCjylI7,NA,NA,3gCjylI7,2020-0188,2021-11-11,17:18:37,19:00:44,NA,incomplete,false,NA,true,2,12,NA,left,E27_Q8_ansL.png,E27_Q9_ansR.png,within,NA,NaN,NA,left,2019.2999999523163,1,1,1286.3999999761581
3gCjylI7,NA,NA,3gCjylI7,2020-0188,2021-11-11,17:18:37,19:00:44,NA,incomplete,false,NA,true,2,13,NA,right,E27_Q5_ansR.png,E28_Q1_ansR.png,between,NA,NaN,NA,right,6831,1,2,1259
3gCjylI7,NA,NA,3gCjylI7,2020-0188,2021-11-11,17:18:37,19:00:44,NA,incomplete,false,NA,true,2,14,NA,right,E28_Q2_ansR.png,E28_Q10_ansR.png,within,NA,NaN,NA,right,3048.2999999523163,1,1,2771.7999999523163
3gCjylI7,NA,NA,3gCjylI7,2020-0188,2021-11-11,17:18:37,19:00:44,NA,incomplete,false,NA,true,2,15,NA,left,E28_Q7_ansR.png,E28_Q10_ansR.png,within,NA,NaN,NA,left,2983.2000000476837,1,0,985.5
3gCjylI7,NA,NA,3gCjylI7,2020-0188,2021-11-11,17:18:37,19:00:44,NA,incomplete,false,NA,true,2,16,NA,left,E32_Q5_ansR.png,E32_Q10_ansL.png,within,NA,NaN,NA,right,2375.899999976158,0,1,903.7000000476837
3gCjylI7,NA,NA,3gCjylI7,2020-0188,2021-11-11,17:18:37,19:00:44,NA,incomplete,false,NA,true,2,17,NA,right,E32_Q9_ansR.png,E27_Q9_ansR.png,between,NA,NaN,NA,right,4853.100000023842,1,1,1341.6000000238419
3gCjylI7,NA,NA,3gCjylI7,2020-0188,2021-11-11,17:18:37,19:00:44,NA,incomplete,false,NA,true,2,18,NA,left,E27_Q6_ansR.png,E27_Q2_ansL.png,within,NA,NaN,NA,right,3038.2999999523163,0,1,807.1999999284744
3gCjylI7,NA,NA,3gCjylI7,2020-0188,2021-11-11,17:18:37,19:00:44,NA,incomplete,false,NA,true,2,19,NA,left,E27_Q5_ansR.png,E27_Q8_ansL.png,within,NA,NaN,NA,right,2908.5,0,0,1340
3gCjylI7,NA,NA,3gCjylI7,2020-0188,2021-11-11,17:18:37,19:00:44,NA,incomplete,false,NA,true,2,20,NA,left,E27_Q3_ansR.png,E27_Q10_ansL.png,within,NA,NaN,NA,left,2133.2000000476837,1,1,2021
3gCjylI7,NA,NA,3gCjylI7,2020-0188,2021-11-11,17:18:37,19:00:44,NA,incomplete,false,NA,true,2,21,NA,left,E27_Q7_ansL.png,E27_Q6_ansR.png,within,NA,NaN,NA,left,2384.5,1,1,838.6999999284744
3gCjylI7,NA,NA,3gCjylI7,2020-0188,2021-11-11,17:18:37,19:00:44,NA,incomplete,false,NA,true,2,22,NA,left,E28_Q2_ansR.png,E28_Q4_ansL.png,within,NA,NaN,NA,right,1761,0,1,862.5
3gCjylI7,NA,NA,3gCjylI7,2020-0188,2021-11-11,17:18:37,19:00:44,NA,incomplete,false,NA,true,2,23,NA,right,E32_Q4_ansR.png,E27_Q10_ansL.png,between,NA,NaN,NA,left,3726.399999976158,0,3,4002.2000000476837
3gCjylI7,NA,NA,3gCjylI7,2020-0188,2021-11-11,17:18:37,19:00:44,NA,incomplete,false,NA,true,2,24,NA,left,E32_Q9_ansR.png,E32_Q2_ansL.png,within,NA,NaN,NA,left,3040.3000000715256,1,1,1195.5
3gCjylI7,NA,NA,3gCjylI7,2020-0188,2021-11-11,17:18:37,19:00:44,NA,incomplete,false,NA,true,2,25,NA,left,E27_Q1_ansL.png,E27_Q3_ansR.png,within,NA,NaN,NA,right,1170.7999999523163,0,1,790
3gCjylI7,NA,NA,3gCjylI7,2020-0188,2021-11-11,17:18:37,19:00:44,NA,incomplete,false,NA,true,2,26,NA,left,E28_Q9_ansL.png,E28_Q5_ansL.png,within,NA,NaN,NA,right,2085,0,1,807.3999999761581
3gCjylI7,NA,NA,3gCjylI7,2020-0188,2021-11-11,17:18:37,19:00:44,NA,incomplete,false,true,NA,3,0,E19_Q1_ansL.png,left,NA,NA,NA,left,1404.19999992847,true,NA,NA,NA,NA,NA
3gCjylI7,NA,NA,3gCjylI7,2020-0188,2021-11-11,17:18:37,19:00:44,NA,incomplete,false,true,NA,3,1,E19_Q9_ansR.png,right,NA,NA,NA,right,1041.10000002384,true,NA,NA,NA,NA,NA
3gCjylI7,NA,NA,3gCjylI7,2020-0188,2021-11-11,17:18:37,19:00:44,NA,incomplete,false,true,NA,3,2,E19_Q4_ansR.png,right,NA,NA,NA,right,755.299999952316,true,NA,NA,NA,NA,NA
3gCjylI7,NA,NA,3gCjylI7,2020-0188,2021-11-11,17:18:37,19:00:44,NA,incomplete,false,true,NA,3,3,E19_Q5_ansR.png,right,NA,NA,NA,left,725.899999976158,false,NA,NA,NA,NA,NA
3gCjylI7,NA,NA,3gCjylI7,2020-0188,2021-11-11,17:18:37,19:00:44,NA,incomplete,false,true,NA,3,4,E19_Q7_ansL.png,left,NA,NA,NA,right,619.700000047684,false,NA,NA,NA,NA,NA
3gCjylI7,NA,NA,3gCjylI7,2020-0188,2021-11-11,17:18:37,19:00:44,NA,incomplete,false,true,NA,3,5,E19_Q3_ansR.png,right,NA,NA,NA,right,1058.19999992847,true,NA,NA,NA,NA,NA
3gCjylI7,NA,NA,3gCjylI7,2020-0188,2021-11-11,17:18:37,19:00:44,NA,incomplete,false,true,NA,3,6,E19_Q6_ansR.png,right,NA,NA,NA,right,1067.70000004768,true,NA,NA,NA,NA,NA
3gCjylI7,NA,NA,3gCjylI7,2020-0188,2021-11-11,17:18:37,19:00:44,NA,incomplete,false,true,NA,3,7,E19_Q8_ansL.png,left,NA,NA,NA,left,1139.80000007153,true,NA,NA,NA,NA,NA
3gCjylI7,NA,NA,3gCjylI7,2020-0188,2021-11-11,17:18:37,19:00:44,NA,incomplete,false,true,NA,3,8,E19_Q10_ansL.png,left,NA,NA,NA,left,869.199999928474,true,NA,NA,NA,NA,NA
3gCjylI7,NA,NA,3gCjylI7,2020-0188,2021-11-11,17:18:37,19:00:44,NA,incomplete,false,true,NA,3,9,E19_Q2_ansL.png,left,NA,NA,NA,left,1243.69999992847,true,NA,NA,NA,NA,NA
3gCjylI7,NA,NA,3gCjylI7,2020-0188,2021-11-11,17:18:37,19:00:44,NA,incomplete,false,true,NA,3,10,E4_Q6_ansR.png,right,NA,NA,NA,left,2473,false,NA,NA,NA,NA,NA
3gCjylI7,NA,NA,3gCjylI7,2020-0188,2021-11-11,17:18:37,19:00:44,NA,incomplete,false,true,NA,3,11,E4_Q9_ansL.png,left,NA,NA,NA,none,0,false,NA,NA,NA,NA,NA
3gCjylI7,NA,NA,3gCjylI7,2020-0188,2021-11-11,17:18:37,19:00:44,NA,incomplete,false,true,NA,3,12,E4_Q3_ansL.png,left,NA,NA,NA,left,1378.10000002384,true,NA,NA,NA,NA,NA
3gCjylI7,NA,NA,3gCjylI7,2020-0188,2021-11-11,17:18:37,19:00:44,NA,incomplete,false,true,NA,3,13,E4_Q7_ansR.png,right,NA,NA,NA,right,1584,true,NA,NA,NA,NA,NA
3gCjylI7,NA,NA,3gCjylI7,2020-0188,2021-11-11,17:18:37,19:00:44,NA,incomplete,false,true,NA,3,14,E4_Q10_ansR.png,right,NA,NA,NA,right,1098.5,true,NA,NA,NA,NA,NA
3gCjylI7,NA,NA,3gCjylI7,2020-0188,2021-11-11,17:18:37,19:00:44,NA,incomplete,false,true,NA,3,15,E4_Q5_ansR.png,right,NA,NA,NA,right,1243.39999997616,true,NA,NA,NA,NA,NA
3gCjylI7,NA,NA,3gCjylI7,2020-0188,2021-11-11,17:18:37,19:00:44,NA,incomplete,false,true,NA,3,16,E4_Q1_ansL.png,left,NA,NA,NA,left,1109.39999997616,true,NA,NA,NA,NA,NA
3gCjylI7,NA,NA,3gCjylI7,2020-0188,2021-11-11,17:18:37,19:00:44,NA,incomplete,false,true,NA,3,17,E4_Q8_ansR.png,right,NA,NA,NA,right,1070.10000002384,true,NA,NA,NA,NA,NA
3gCjylI7,NA,NA,3gCjylI7,2020-0188,2021-11-11,17:18:37,19:00:44,NA,incomplete,false,true,NA,3,18,E4_Q4_ansL.png,left,NA,NA,NA,left,1186.79999995232,true,NA,NA,NA,NA,NA
3gCjylI7,NA,NA,3gCjylI7,2020-0188,2021-11-11,17:18:37,19:00:44,NA,incomplete,false,true,NA,3,19,E4_Q2_ansL.png,left,NA,NA,NA,left,1487,true,NA,NA,NA,NA,NA
3gCjylI7,NA,NA,3gCjylI7,2020-0188,2021-11-11,17:18:37,19:00:44,NA,incomplete,false,true,NA,3,20,E20_Q10_ansL.png,left,NA,NA,NA,left,2849.29999995232,true,NA,NA,NA,NA,NA
3gCjylI7,NA,NA,3gCjylI7,2020-0188,2021-11-11,17:18:37,19:00:44,NA,incomplete,false,true,NA,3,21,E20_Q7_ansL.png,left,NA,NA,NA,left,1372.20000004768,true,NA,NA,NA,NA,NA
3gCjylI7,NA,NA,3gCjylI7,2020-0188,2021-11-11,17:18:37,19:00:44,NA,incomplete,false,true,NA,3,22,E20_Q6_ansR.png,right,NA,NA,NA,right,1823.19999992847,true,NA,NA,NA,NA,NA
3gCjylI7,NA,NA,3gCjylI7,2020-0188,2021-11-11,17:18:37,19:00:44,NA,incomplete,false,true,NA,3,23,E20_Q5_ansR.png,right,NA,NA,NA,right,2201.10000002384,true,NA,NA,NA,NA,NA
3gCjylI7,NA,NA,3gCjylI7,2020-0188,2021-11-11,17:18:37,19:00:44,NA,incomplete,false,true,NA,3,24,E20_Q9_ansR.png,right,NA,NA,NA,right,1327.5,true,NA,NA,NA,NA,NA
3gCjylI7,NA,NA,3gCjylI7,2020-0188,2021-11-11,17:18:37,19:00:44,NA,incomplete,false,true,NA,3,25,E20_Q4_ansR.png,right,NA,NA,NA,right,1099.20000004768,true,NA,NA,NA,NA,NA
3gCjylI7,NA,NA,3gCjylI7,2020-0188,2021-11-11,17:18:37,19:00:44,NA,incomplete,false,true,NA,3,26,E20_Q3_ansR.png,right,NA,NA,NA,right,1161,true,NA,NA,NA,NA,NA
3gCjylI7,NA,NA,3gCjylI7,2020-0188,2021-11-11,17:18:37,19:00:44,NA,incomplete,false,true,NA,3,27,E20_Q8_ansL.png,left,NA,NA,NA,left,1580.10000002384,true,NA,NA,NA,NA,NA
3gCjylI7,NA,NA,3gCjylI7,2020-0188,2021-11-11,17:18:37,19:00:44,NA,incomplete,false,true,NA,3,28,E20_Q1_ansL.png,left,NA,NA,NA,left,1610.30000007153,true,NA,NA,NA,NA,NA
3gCjylI7,NA,NA,3gCjylI7,2020-0188,2021-11-11,17:18:37,19:00:44,NA,incomplete,false,true,NA,3,29,E20_Q2_ansL.png,left,NA,NA,NA,left,1626.10000002384,true,NA,NA,NA,NA,NA
3gCjylI7,NA,NA,3gCjylI7,2020-0188,2021-11-11,17:18:37,19:00:44,NA,incomplete,false,NA,true,3,0,NA,left,E20_Q3_ansR.png,E20_Q2_ansL.png,within,NA,NaN,NA,left,2530.399999976158,1,0,1305.6000000238419
3gCjylI7,NA,NA,3gCjylI7,2020-0188,2021-11-11,17:18:37,19:00:44,NA,incomplete,false,NA,true,3,1,NA,left,E20_Q7_ansL.png,E20_Q9_ansR.png,within,NA,NaN,NA,left,2059.7000000476837,1,0,773.3999999761581
3gCjylI7,NA,NA,3gCjylI7,2020-0188,2021-11-11,17:18:37,19:00:44,NA,incomplete,false,NA,true,3,2,NA,right,E20_Q3_ansR.png,E20_Q5_ansR.png,within,NA,NaN,NA,right,1998,1,0,1177.6000000238419
3gCjylI7,NA,NA,3gCjylI7,2020-0188,2021-11-11,17:18:37,19:00:44,NA,incomplete,false,NA,true,3,3,NA,right,E19_Q5_ansR.png,E19_Q1_ansL.png,within,NA,NaN,NA,right,1750.6000000238419,1,1,925.7000000476837
3gCjylI7,NA,NA,3gCjylI7,2020-0188,2021-11-11,17:18:37,19:00:44,NA,incomplete,false,NA,true,3,4,NA,left,E20_Q9_ansR.png,E20_Q8_ansL.png,within,NA,NaN,NA,left,1892,1,0,952.6999999284744
3gCjylI7,NA,NA,3gCjylI7,2020-0188,2021-11-11,17:18:37,19:00:44,NA,incomplete,false,NA,true,3,5,NA,right,E4_Q1_ansL.png,E4_Q7_ansR.png,within,NA,NaN,NA,left,2699.899999976158,0,0,1319.5
3gCjylI7,NA,NA,3gCjylI7,2020-0188,2021-11-11,17:18:37,19:00:44,NA,incomplete,false,NA,true,3,6,NA,right,E4_Q6_ansR.png,E19_Q8_ansL.png,between,NA,NaN,NA,right,4511.200000047684,1,2,1017.2999999523163
3gCjylI7,NA,NA,3gCjylI7,2020-0188,2021-11-11,17:18:37,19:00:44,NA,incomplete,false,NA,true,3,7,NA,right,E19_Q10_ansL.png,E19_Q3_ansR.png,within,NA,NaN,NA,right,1591.2999999523163,1,0,2489.899999976158
3gCjylI7,NA,NA,3gCjylI7,2020-0188,2021-11-11,17:18:37,19:00:44,NA,incomplete,false,NA,true,3,8,NA,left,E19_Q6_ansR.png,E19_Q2_ansL.png,within,NA,NaN,NA,left,7181.199999928474,1,1,871.8999999761581
3gCjylI7,NA,NA,3gCjylI7,2020-0188,2021-11-11,17:18:37,19:00:44,NA,incomplete,false,NA,true,3,9,NA,right,E4_Q8_ansR.png,E4_Q10_ansR.png,within,NA,NaN,NA,right,2043.7000000476837,1,1,1187.7999999523163
3gCjylI7,NA,NA,3gCjylI7,2020-0188,2021-11-11,17:18:37,19:00:44,NA,incomplete,false,NA,true,3,10,NA,right,E20_Q5_ansR.png,E20_Q10_ansL.png,within,NA,NaN,NA,right,3929.600000023842,1,1,1333.6000000238419
3gCjylI7,NA,NA,3gCjylI7,2020-0188,2021-11-11,17:18:37,19:00:44,NA,incomplete,false,NA,true,3,11,NA,right,E4_Q2_ansL.png,E4_Q1_ansL.png,within,NA,NaN,NA,right,1236.3000000715256,1,0,1235.2000000476837
3gCjylI7,NA,NA,3gCjylI7,2020-0188,2021-11-11,17:18:37,19:00:44,NA,incomplete,false,NA,true,3,12,NA,left,E4_Q5_ansR.png,E4_Q4_ansL.png,within,NA,NaN,NA,left,1268.6000000238419,1,1,1065.8999999761581
3gCjylI7,NA,NA,3gCjylI7,2020-0188,2021-11-11,17:18:37,19:00:44,NA,incomplete,false,NA,true,3,13,NA,left,E19_Q10_ansL.png,E4_Q9_ansL.png,between,NA,NaN,NA,left,1510.6999999284744,1,2,1106.7999999523163
3gCjylI7,NA,NA,3gCjylI7,2020-0188,2021-11-11,17:18:37,19:00:44,NA,incomplete,false,NA,true,3,14,NA,right,E19_Q3_ansR.png,E19_Q4_ansR.png,within,NA,NaN,NA,left,1786.2000000476837,0,1,1308.5
3gCjylI7,NA,NA,3gCjylI7,2020-0188,2021-11-11,17:18:37,19:00:44,NA,incomplete,false,NA,true,3,15,NA,left,E4_Q9_ansL.png,E4_Q10_ansR.png,within,NA,NaN,NA,left,1971.0999999046326,1,1,1154.7999999523163
3gCjylI7,NA,NA,3gCjylI7,2020-0188,2021-11-11,17:18:37,19:00:44,NA,incomplete,false,NA,true,3,16,NA,left,E4_Q3_ansL.png,E4_Q5_ansR.png,within,NA,NaN,NA,right,1559.7000000476837,0,1,1866.1000000238419
3gCjylI7,NA,NA,3gCjylI7,2020-0188,2021-11-11,17:18:37,19:00:44,NA,incomplete,false,NA,true,3,17,NA,right,E20_Q7_ansL.png,E4_Q4_ansL.png,between,NA,NaN,NA,left,2005.5,0,1,2528.600000023842
3gCjylI7,NA,NA,3gCjylI7,2020-0188,2021-11-11,17:18:37,19:00:44,NA,incomplete,false,NA,true,3,18,NA,right,E20_Q4_ansR.png,E20_Q6_ansR.png,within,NA,NaN,NA,right,2571.600000023842,1,1,929.2000000476837
3gCjylI7,NA,NA,3gCjylI7,2020-0188,2021-11-11,17:18:37,19:00:44,NA,incomplete,false,NA,true,3,19,NA,right,E19_Q8_ansL.png,E19_Q7_ansL.png,within,NA,NaN,NA,left,1253,0,1,1348.8999999761581
3gCjylI7,NA,NA,3gCjylI7,2020-0188,2021-11-11,17:18:37,19:00:44,NA,incomplete,false,NA,true,3,20,NA,right,E19_Q6_ansR.png,E19_Q5_ansR.png,within,NA,NaN,NA,right,3144.9000000953674,1,1,2620.7000000476837
3gCjylI7,NA,NA,3gCjylI7,2020-0188,2021-11-11,17:18:37,19:00:44,NA,incomplete,false,NA,true,3,21,NA,right,E20_Q6_ansR.png,E4_Q2_ansL.png,between,NA,NaN,NA,right,872.3999999761581,1,1,1202.5999999046326
3gCjylI7,NA,NA,3gCjylI7,2020-0188,2021-11-11,17:18:37,19:00:44,NA,incomplete,false,NA,true,3,22,NA,left,E20_Q4_ansR.png,E20_Q1_ansL.png,within,NA,NaN,NA,right,1342.7999999523163,0,0,1122.2999999523163
3gCjylI7,NA,NA,3gCjylI7,2020-0188,2021-11-11,17:18:37,19:00:44,NA,incomplete,false,NA,true,3,23,NA,right,E4_Q7_ansR.png,E4_Q6_ansR.png,within,NA,NaN,NA,left,621.6999999284744,0,1,839.0999999046326
3gCjylI7,NA,NA,3gCjylI7,2020-0188,2021-11-11,17:18:37,19:00:44,NA,incomplete,false,NA,true,3,24,NA,left,E4_Q8_ansR.png,E20_Q10_ansL.png,between,NA,NaN,NA,right,881,0,0,1518
3gCjylI7,NA,NA,3gCjylI7,2020-0188,2021-11-11,17:18:37,19:00:44,NA,incomplete,false,NA,true,3,25,NA,left,E19_Q9_ansR.png,E19_Q7_ansL.png,within,NA,NaN,NA,left,938.4000000953674,1,0,1026.7000000476837
3gCjylI7,NA,NA,3gCjylI7,2020-0188,2021-11-11,17:18:37,19:00:44,NA,incomplete,false,NA,true,3,26,NA,left,E19_Q2_ansL.png,E4_Q3_ansL.png,between,NA,NaN,NA,left,2102.7999999523163,1,3,1405.8999999761581
3gCjylI7,NA,NA,3gCjylI7,2020-0188,2021-11-11,17:18:37,19:00:44,NA,incomplete,false,true,NA,4,0,E13_Q5_ansR.png,right,NA,NA,NA,right,1279.39999997616,true,NA,NA,NA,NA,NA
3gCjylI7,NA,NA,3gCjylI7,2020-0188,2021-11-11,17:18:37,19:00:44,NA,incomplete,false,true,NA,4,1,E13_Q1_ansL.png,left,NA,NA,NA,left,799.399999976158,true,NA,NA,NA,NA,NA
3gCjylI7,NA,NA,3gCjylI7,2020-0188,2021-11-11,17:18:37,19:00:44,NA,incomplete,false,true,NA,4,2,E13_Q3_ansR.png,right,NA,NA,NA,right,1995.69999992847,true,NA,NA,NA,NA,NA
3gCjylI7,NA,NA,3gCjylI7,2020-0188,2021-11-11,17:18:37,19:00:44,NA,incomplete,false,true,NA,4,3,E13_Q6_ansR.png,right,NA,NA,NA,right,1918.89999997616,true,NA,NA,NA,NA,NA
3gCjylI7,NA,NA,3gCjylI7,2020-0188,2021-11-11,17:18:37,19:00:44,NA,incomplete,false,true,NA,4,4,E13_Q8_ansL.png,left,NA,NA,NA,left,1006.39999997616,true,NA,NA,NA,NA,NA
3gCjylI7,NA,NA,3gCjylI7,2020-0188,2021-11-11,17:18:37,19:00:44,NA,incomplete,false,true,NA,4,5,E13_Q9_ansR.png,right,NA,NA,NA,right,924.600000023842,true,NA,NA,NA,NA,NA
3gCjylI7,NA,NA,3gCjylI7,2020-0188,2021-11-11,17:18:37,19:00:44,NA,incomplete,false,true,NA,4,6,E13_Q4_ansR.png,right,NA,NA,NA,right,1241.79999995232,true,NA,NA,NA,NA,NA
3gCjylI7,NA,NA,3gCjylI7,2020-0188,2021-11-11,17:18:37,19:00:44,NA,incomplete,false,true,NA,4,7,E13_Q2_ansL.png,left,NA,NA,NA,left,1195.90000009537,true,NA,NA,NA,NA,NA
3gCjylI7,NA,NA,3gCjylI7,2020-0188,2021-11-11,17:18:37,19:00:44,NA,incomplete,false,true,NA,4,8,E13_Q7_ansL.png,left,NA,NA,NA,left,1469.39999997616,true,NA,NA,NA,NA,NA
3gCjylI7,NA,NA,3gCjylI7,2020-0188,2021-11-11,17:18:37,19:00:44,NA,incomplete,false,true,NA,4,9,E13_Q10_ansL.png,left,NA,NA,NA,left,1271,true,NA,NA,NA,NA,NA
3gCjylI7,NA,NA,3gCjylI7,2020-0188,2021-11-11,17:18:37,19:00:44,NA,incomplete,false,true,NA,4,10,E10_Q7_ansR.png,right,NA,NA,NA,none,0,false,NA,NA,NA,NA,NA
3gCjylI7,NA,NA,3gCjylI7,2020-0188,2021-11-11,17:18:37,19:00:44,NA,incomplete,false,true,NA,4,11,E10_Q2_ansL.png,left,NA,NA,NA,left,3363.30000007153,true,NA,NA,NA,NA,NA
3gCjylI7,NA,NA,3gCjylI7,2020-0188,2021-11-11,17:18:37,19:00:44,NA,incomplete,false,true,NA,4,12,E10_Q3_ansL.png,left,NA,NA,NA,none,0,false,NA,NA,NA,NA,NA
3gCjylI7,NA,NA,3gCjylI7,2020-0188,2021-11-11,17:18:37,19:00:44,NA,incomplete,false,true,NA,4,13,E10_Q5_ansR.png,right,NA,NA,NA,right,2523.5,true,NA,NA,NA,NA,NA
3gCjylI7,NA,NA,3gCjylI7,2020-0188,2021-11-11,17:18:37,19:00:44,NA,incomplete,false,true,NA,4,14,E10_Q1_ansL.png,left,NA,NA,NA,left,1996.29999995232,true,NA,NA,NA,NA,NA
3gCjylI7,NA,NA,3gCjylI7,2020-0188,2021-11-11,17:18:37,19:00:44,NA,incomplete,false,true,NA,4,15,E10_Q10_ansR.png,right,NA,NA,NA,right,2495.09999990463,true,NA,NA,NA,NA,NA
3gCjylI7,NA,NA,3gCjylI7,2020-0188,2021-11-11,17:18:37,19:00:44,NA,incomplete,false,true,NA,4,16,E10_Q9_ansL.png,left,NA,NA,NA,left,1942.10000002384,true,NA,NA,NA,NA,NA
3gCjylI7,NA,NA,3gCjylI7,2020-0188,2021-11-11,17:18:37,19:00:44,NA,incomplete,false,true,NA,4,17,E10_Q4_ansL.png,left,NA,NA,NA,left,2313.40000009537,true,NA,NA,NA,NA,NA
3gCjylI7,NA,NA,3gCjylI7,2020-0188,2021-11-11,17:18:37,19:00:44,NA,incomplete,false,true,NA,4,18,E10_Q8_ansR.png,right,NA,NA,NA,left,2220.5,false,NA,NA,NA,NA,NA
3gCjylI7,NA,NA,3gCjylI7,2020-0188,2021-11-11,17:18:37,19:00:44,NA,incomplete,false,true,NA,4,19,E10_Q6_ansR.png,right,NA,NA,NA,left,2374.30000007153,false,NA,NA,NA,NA,NA
3gCjylI7,NA,NA,3gCjylI7,2020-0188,2021-11-11,17:18:37,19:00:44,NA,incomplete,false,true,NA,4,20,E1_Q9_ansL.png,left,NA,NA,NA,left,1070.90000009537,true,NA,NA,NA,NA,NA
3gCjylI7,NA,NA,3gCjylI7,2020-0188,2021-11-11,17:18:37,19:00:44,NA,incomplete,false,true,NA,4,21,E1_Q8_ansR.png,right,NA,NA,NA,right,1897.70000004768,true,NA,NA,NA,NA,NA
3gCjylI7,NA,NA,3gCjylI7,2020-0188,2021-11-11,17:18:37,19:00:44,NA,incomplete,false,true,NA,4,22,E1_Q2_ansL.png,left,NA,NA,NA,left,1374.5,true,NA,NA,NA,NA,NA
3gCjylI7,NA,NA,3gCjylI7,2020-0188,2021-11-11,17:18:37,19:00:44,NA,incomplete,false,true,NA,4,23,E1_Q6_ansR.png,right,NA,NA,NA,right,889.299999952316,true,NA,NA,NA,NA,NA
3gCjylI7,NA,NA,3gCjylI7,2020-0188,2021-11-11,17:18:37,19:00:44,NA,incomplete,false,true,NA,4,24,E1_Q5_ansR.png,right,NA,NA,NA,right,1012.60000002384,true,NA,NA,NA,NA,NA
3gCjylI7,NA,NA,3gCjylI7,2020-0188,2021-11-11,17:18:37,19:00:44,NA,incomplete,false,true,NA,4,25,E1_Q10_ansR.png,right,NA,NA,NA,right,917.300000071526,true,NA,NA,NA,NA,NA
3gCjylI7,NA,NA,3gCjylI7,2020-0188,2021-11-11,17:18:37,19:00:44,NA,incomplete,false,true,NA,4,26,E1_Q1_ansL.png,left,NA,NA,NA,left,857.200000047684,true,NA,NA,NA,NA,NA
3gCjylI7,NA,NA,3gCjylI7,2020-0188,2021-11-11,17:18:37,19:00:44,NA,incomplete,false,true,NA,4,27,E1_Q3_ansR.png,right,NA,NA,NA,left,1668.39999997616,false,NA,NA,NA,NA,NA
3gCjylI7,NA,NA,3gCjylI7,2020-0188,2021-11-11,17:18:37,19:00:44,NA,incomplete,false,true,NA,4,28,E1_Q4_ansL.png,left,NA,NA,NA,left,1231.89999997616,true,NA,NA,NA,NA,NA
3gCjylI7,NA,NA,3gCjylI7,2020-0188,2021-11-11,17:18:37,19:00:44,NA,incomplete,false,true,NA,4,29,E1_Q7_ansL.png,left,NA,NA,NA,left,1052.10000002384,true,NA,NA,NA,NA,NA
3gCjylI7,NA,NA,3gCjylI7,2020-0188,2021-11-11,17:18:37,19:00:44,NA,incomplete,false,NA,true,4,0,NA,left,E13_Q1_ansL.png,E13_Q8_ansL.png,within,NA,NaN,NA,left,1867.8000000715256,1,1,1509.3999999761581
3gCjylI7,NA,NA,3gCjylI7,2020-0188,2021-11-11,17:18:37,19:00:44,NA,incomplete,false,NA,true,4,1,NA,right,E13_Q9_ansR.png,E13_Q3_ansR.png,within,NA,NaN,NA,left,2351.9000000953674,0,1,1137.7000000476837
3gCjylI7,NA,NA,3gCjylI7,2020-0188,2021-11-11,17:18:37,19:00:44,NA,incomplete,false,NA,true,4,2,NA,right,E10_Q1_ansL.png,E10_Q2_ansL.png,within,NA,NaN,NA,right,1237.1000000238419,1,1,855.2999999523163
3gCjylI7,NA,NA,3gCjylI7,2020-0188,2021-11-11,17:18:37,19:00:44,NA,incomplete,false,NA,true,4,3,NA,right,E1_Q1_ansL.png,E1_Q6_ansR.png,within,NA,NaN,NA,right,2319,1,1,1122.6000000238419
3gCjylI7,NA,NA,3gCjylI7,2020-0188,2021-11-11,17:18:37,19:00:44,NA,incomplete,false,NA,true,4,4,NA,left,E1_Q2_ansL.png,E1_Q10_ansR.png,within,NA,NaN,NA,left,1398,1,1,1073.1999999284744
3gCjylI7,NA,NA,3gCjylI7,2020-0188,2021-11-11,17:18:37,19:00:44,NA,incomplete,false,NA,true,4,5,NA,right,E10_Q9_ansL.png,E10_Q5_ansR.png,within,NA,NaN,NA,right,3395.399999976158,1,1,1098.1000000238419
3gCjylI7,NA,NA,3gCjylI7,2020-0188,2021-11-11,17:18:37,19:00:44,NA,incomplete,false,NA,true,4,6,NA,right,E10_Q5_ansR.png,E10_Q7_ansR.png,within,NA,NaN,NA,right,5852.300000071526,1,1,1225.6000000238419
3gCjylI7,NA,NA,3gCjylI7,2020-0188,2021-11-11,17:18:37,19:00:44,NA,incomplete,false,NA,true,4,7,NA,right,E10_Q6_ansR.png,E10_Q9_ansL.png,within,NA,NaN,NA,right,1697.5,1,1,1275.6000000238419
3gCjylI7,NA,NA,3gCjylI7,2020-0188,2021-11-11,17:18:37,19:00:44,NA,incomplete,false,NA,true,4,8,NA,right,E1_Q7_ansL.png,E1_Q1_ansL.png,within,NA,NaN,NA,left,4251.600000023842,0,1,1098.2999999523163
3gCjylI7,NA,NA,3gCjylI7,2020-0188,2021-11-11,17:18:37,19:00:44,NA,incomplete,false,NA,true,4,9,NA,right,E13_Q2_ansL.png,E13_Q8_ansL.png,within,NA,NaN,NA,right,2319.5,1,1,806.8999999761581
3gCjylI7,NA,NA,3gCjylI7,2020-0188,2021-11-11,17:18:37,19:00:44,NA,incomplete,false,NA,true,4,10,NA,left,E10_Q8_ansR.png,E1_Q8_ansR.png,between,NA,NaN,NA,right,2666.8000000715256,0,2,1817.6999999284744
3gCjylI7,NA,NA,3gCjylI7,2020-0188,2021-11-11,17:18:37,19:00:44,NA,incomplete,false,NA,true,4,11,NA,left,E13_Q5_ansR.png,E13_Q6_ansR.png,within,NA,NaN,NA,left,782.1999999284744,1,0,1065.1000000238419
3gCjylI7,NA,NA,3gCjylI7,2020-0188,2021-11-11,17:18:37,19:00:44,NA,incomplete,false,NA,true,4,12,NA,right,E1_Q9_ansL.png,E10_Q4_ansL.png,between,NA,NaN,NA,left,1009.5,0,1,822.5
3gCjylI7,NA,NA,3gCjylI7,2020-0188,2021-11-11,17:18:37,19:00:44,NA,incomplete,false,NA,true,4,13,NA,right,E1_Q6_ansR.png,E1_Q9_ansL.png,within,NA,NaN,NA,left,1476.8000000715256,0,1,901.2000000476837
3gCjylI7,NA,NA,3gCjylI7,2020-0188,2021-11-11,17:18:37,19:00:44,NA,incomplete,false,NA,true,4,14,NA,right,E13_Q7_ansL.png,E13_Q9_ansR.png,within,NA,NaN,NA,left,1228.3999999761581,0,1,919.3999999761581
3gCjylI7,NA,NA,3gCjylI7,2020-0188,2021-11-11,17:18:37,19:00:44,NA,incomplete,false,NA,true,4,15,NA,left,E10_Q6_ansR.png,E1_Q2_ansL.png,between,NA,NaN,NA,right,3459.2999999523163,0,1,870.6000000238419
3gCjylI7,NA,NA,3gCjylI7,2020-0188,2021-11-11,17:18:37,19:00:44,NA,incomplete,false,NA,true,4,16,NA,left,E13_Q4_ansR.png,E13_Q10_ansL.png,within,NA,NaN,NA,left,2030.1000000238419,1,1,823.8999999761581
3gCjylI7,NA,NA,3gCjylI7,2020-0188,2021-11-11,17:18:37,19:00:44,NA,incomplete,false,NA,true,4,17,NA,right,E10_Q2_ansL.png,E13_Q7_ansL.png,between,NA,NaN,NA,right,2061.1999999284744,1,3,1292.2000000476837
3gCjylI7,NA,NA,3gCjylI7,2020-0188,2021-11-11,17:18:37,19:00:44,NA,incomplete,false,NA,true,4,18,NA,left,E13_Q6_ansR.png,E13_Q4_ansR.png,within,NA,NaN,NA,left,1010.2000000476837,1,1,814.5
3gCjylI7,NA,NA,3gCjylI7,2020-0188,2021-11-11,17:18:37,19:00:44,NA,incomplete,false,NA,true,4,19,NA,left,E13_Q2_ansL.png,E10_Q7_ansR.png,between,NA,NaN,NA,left,808.1000000238419,1,2,1179.7999999523163
3gCjylI7,NA,NA,3gCjylI7,2020-0188,2021-11-11,17:18:37,19:00:44,NA,incomplete,false,NA,true,4,20,NA,right,E1_Q5_ansR.png,E1_Q8_ansR.png,within,NA,NaN,NA,left,768.5,0,1,1048.6000000238419
3gCjylI7,NA,NA,3gCjylI7,2020-0188,2021-11-11,17:18:37,19:00:44,NA,incomplete,false,NA,true,4,21,NA,left,E10_Q10_ansR.png,E10_Q8_ansR.png,within,NA,NaN,NA,right,1778.5999999046326,0,1,718.1999999284744
3gCjylI7,NA,NA,3gCjylI7,2020-0188,2021-11-11,17:18:37,19:00:44,NA,incomplete,false,NA,true,4,22,NA,right,E1_Q4_ansL.png,E1_Q10_ansR.png,within,NA,NaN,NA,left,857,0,1,945
3gCjylI7,NA,NA,3gCjylI7,2020-0188,2021-11-11,17:18:37,19:00:44,NA,incomplete,false,NA,true,4,23,NA,right,E1_Q3_ansR.png,E1_Q5_ansR.png,within,NA,NaN,NA,right,678.6999999284744,1,1,783.6000000238419
3gCjylI7,NA,NA,3gCjylI7,2020-0188,2021-11-11,17:18:37,19:00:44,NA,incomplete,false,NA,true,4,24,NA,right,E10_Q3_ansL.png,E13_Q10_ansL.png,between,NA,NaN,NA,right,1034.2999999523163,1,1,838.6999999284744
3gCjylI7,NA,NA,3gCjylI7,2020-0188,2021-11-11,17:18:37,19:00:44,NA,incomplete,false,NA,true,4,25,NA,left,E10_Q1_ansL.png,E10_Q4_ansL.png,within,NA,NaN,NA,left,1099.2000000476837,1,1,1590.2999999523163
3gCjylI7,NA,NA,3gCjylI7,2020-0188,2021-11-11,17:18:37,19:00:44,NA,incomplete,false,NA,true,4,26,NA,left,E10_Q3_ansL.png,E10_Q10_ansR.png,within,NA,NaN,NA,left,671,1,1,1876.3999999761581
3gCjylI7,NA,NA,3gCjylI7,2020-0188,2021-11-11,17:18:37,19:00:44,NA,incomplete,false,true,NA,5,0,E21_Q10_ansL.png,left,NA,NA,NA,none,0,false,NA,NA,NA,NA,NA
3gCjylI7,NA,NA,3gCjylI7,2020-0188,2021-11-11,17:18:37,19:00:44,NA,incomplete,false,true,NA,5,1,E21_Q3_ansR.png,right,NA,NA,NA,none,0,false,NA,NA,NA,NA,NA
3gCjylI7,NA,NA,3gCjylI7,2020-0188,2021-11-11,17:18:37,19:00:44,NA,incomplete,false,true,NA,5,2,E21_Q5_ansR.png,right,NA,NA,NA,right,871.5,true,NA,NA,NA,NA,NA
3gCjylI7,NA,NA,3gCjylI7,2020-0188,2021-11-11,17:18:37,19:00:44,NA,incomplete,false,true,NA,5,3,E21_Q2_ansL.png,left,NA,NA,NA,left,717.100000023842,true,NA,NA,NA,NA,NA
3gCjylI7,NA,NA,3gCjylI7,2020-0188,2021-11-11,17:18:37,19:00:44,NA,incomplete,false,true,NA,5,4,E21_Q9_ansR.png,right,NA,NA,NA,right,1101.69999992847,true,NA,NA,NA,NA,NA
3gCjylI7,NA,NA,3gCjylI7,2020-0188,2021-11-11,17:18:37,19:00:44,NA,incomplete,false,true,NA,5,5,E21_Q6_ansR.png,right,NA,NA,NA,right,1303.89999997616,true,NA,NA,NA,NA,NA
3gCjylI7,NA,NA,3gCjylI7,2020-0188,2021-11-11,17:18:37,19:00:44,NA,incomplete,false,true,NA,5,6,E21_Q7_ansL.png,left,NA,NA,NA,left,1164.59999990463,true,NA,NA,NA,NA,NA
3gCjylI7,NA,NA,3gCjylI7,2020-0188,2021-11-11,17:18:37,19:00:44,NA,incomplete,false,true,NA,5,7,E21_Q4_ansR.png,right,NA,NA,NA,right,1048.79999995232,true,NA,NA,NA,NA,NA
3gCjylI7,NA,NA,3gCjylI7,2020-0188,2021-11-11,17:18:37,19:00:44,NA,incomplete,false,true,NA,5,8,E21_Q1_ansL.png,left,NA,NA,NA,left,840.699999928474,true,NA,NA,NA,NA,NA
3gCjylI7,NA,NA,3gCjylI7,2020-0188,2021-11-11,17:18:37,19:00:44,NA,incomplete,false,true,NA,5,9,E21_Q8_ansL.png,left,NA,NA,NA,left,956.199999928474,true,NA,NA,NA,NA,NA
3gCjylI7,NA,NA,3gCjylI7,2020-0188,2021-11-11,17:18:37,19:00:44,NA,incomplete,false,true,NA,5,10,E15_Q6_ansR.png,right,NA,NA,NA,right,2268,true,NA,NA,NA,NA,NA
3gCjylI7,NA,NA,3gCjylI7,2020-0188,2021-11-11,17:18:37,19:00:44,NA,incomplete,false,true,NA,5,11,E15_Q5_ansR.png,right,NA,NA,NA,right,981.199999928474,true,NA,NA,NA,NA,NA
3gCjylI7,NA,NA,3gCjylI7,2020-0188,2021-11-11,17:18:37,19:00:44,NA,incomplete,false,true,NA,5,12,E15_Q8_ansL.png,left,NA,NA,NA,left,1208.39999997616,true,NA,NA,NA,NA,NA
3gCjylI7,NA,NA,3gCjylI7,2020-0188,2021-11-11,17:18:37,19:00:44,NA,incomplete,false,true,NA,5,13,E15_Q3_ansR.png,right,NA,NA,NA,right,2027.10000002384,true,NA,NA,NA,NA,NA
3gCjylI7,NA,NA,3gCjylI7,2020-0188,2021-11-11,17:18:37,19:00:44,NA,incomplete,false,true,NA,5,14,E15_Q1_ansL.png,left,NA,NA,NA,left,1143,true,NA,NA,NA,NA,NA
3gCjylI7,NA,NA,3gCjylI7,2020-0188,2021-11-11,17:18:37,19:00:44,NA,incomplete,false,true,NA,5,15,E15_Q9_ansR.png,right,NA,NA,NA,right,1541.89999997616,true,NA,NA,NA,NA,NA
3gCjylI7,NA,NA,3gCjylI7,2020-0188,2021-11-11,17:18:37,19:00:44,NA,incomplete,false,true,NA,5,16,E15_Q7_ansL.png,left,NA,NA,NA,right,1769.29999995232,false,NA,NA,NA,NA,NA
3gCjylI7,NA,NA,3gCjylI7,2020-0188,2021-11-11,17:18:37,19:00:44,NA,incomplete,false,true,NA,5,17,E15_Q10_ansL.png,left,NA,NA,NA,left,1198,true,NA,NA,NA,NA,NA
3gCjylI7,NA,NA,3gCjylI7,2020-0188,2021-11-11,17:18:37,19:00:44,NA,incomplete,false,true,NA,5,18,E15_Q2_ansL.png,left,NA,NA,NA,left,1273,true,NA,NA,NA,NA,NA
3gCjylI7,NA,NA,3gCjylI7,2020-0188,2021-11-11,17:18:37,19:00:44,NA,incomplete,false,true,NA,5,19,E15_Q4_ansR.png,right,NA,NA,NA,right,1626.20000004768,true,NA,NA,NA,NA,NA
3gCjylI7,NA,NA,3gCjylI7,2020-0188,2021-11-11,17:18:37,19:00:44,NA,incomplete,false,true,NA,5,20,E30_Q9_ansL.png,left,NA,NA,NA,left,2326.69999992847,true,NA,NA,NA,NA,NA
3gCjylI7,NA,NA,3gCjylI7,2020-0188,2021-11-11,17:18:37,19:00:44,NA,incomplete,false,true,NA,5,21,E30_Q2_ansL.png,left,NA,NA,NA,left,2438.19999992847,true,NA,NA,NA,NA,NA
3gCjylI7,NA,NA,3gCjylI7,2020-0188,2021-11-11,17:18:37,19:00:44,NA,incomplete,false,true,NA,5,22,E30_Q6_ansR.png,right,NA,NA,NA,right,1662.69999992847,true,NA,NA,NA,NA,NA
3gCjylI7,NA,NA,3gCjylI7,2020-0188,2021-11-11,17:18:37,19:00:44,NA,incomplete,false,true,NA,5,23,E30_Q7_ansL.png,left,NA,NA,NA,right,1820.89999997616,false,NA,NA,NA,NA,NA
3gCjylI7,NA,NA,3gCjylI7,2020-0188,2021-11-11,17:18:37,19:00:44,NA,incomplete,false,true,NA,5,24,E30_Q4_ansL.png,left,NA,NA,NA,left,2540.39999997616,true,NA,NA,NA,NA,NA
3gCjylI7,NA,NA,3gCjylI7,2020-0188,2021-11-11,17:18:37,19:00:44,NA,incomplete,false,true,NA,5,25,E30_Q1_ansL.png,left,NA,NA,NA,left,2879.79999995232,true,NA,NA,NA,NA,NA
3gCjylI7,NA,NA,3gCjylI7,2020-0188,2021-11-11,17:18:37,19:00:44,NA,incomplete,false,true,NA,5,26,E30_Q5_ansR.png,right,NA,NA,NA,right,1696.89999997616,true,NA,NA,NA,NA,NA
3gCjylI7,NA,NA,3gCjylI7,2020-0188,2021-11-11,17:18:37,19:00:44,NA,incomplete,false,true,NA,5,27,E30_Q8_ansL.png,left,NA,NA,NA,none,0,false,NA,NA,NA,NA,NA
3gCjylI7,NA,NA,3gCjylI7,2020-0188,2021-11-11,17:18:37,19:00:44,NA,incomplete,false,true,NA,5,28,E30_Q3_ansL.png,left,NA,NA,NA,left,1991.69999992847,true,NA,NA,NA,NA,NA
3gCjylI7,NA,NA,3gCjylI7,2020-0188,2021-11-11,17:18:37,19:00:44,NA,incomplete,false,true,NA,5,29,E30_Q10_ansR.png,right,NA,NA,NA,right,1790.89999997616,true,NA,NA,NA,NA,NA
3gCjylI7,NA,NA,3gCjylI7,2020-0188,2021-11-11,17:18:37,19:00:44,NA,incomplete,false,NA,true,5,0,NA,left,E30_Q4_ansL.png,E30_Q8_ansL.png,within,NA,NaN,NA,left,2485.2000000476837,1,1,1208.8999999761581
3gCjylI7,NA,NA,3gCjylI7,2020-0188,2021-11-11,17:18:37,19:00:44,NA,incomplete,false,NA,true,5,1,NA,right,E15_Q1_ansL.png,E15_Q5_ansR.png,within,NA,NaN,NA,right,2059.100000023842,1,1,879.3999999761581
3gCjylI7,NA,NA,3gCjylI7,2020-0188,2021-11-11,17:18:37,19:00:44,NA,incomplete,false,NA,true,5,2,NA,left,E30_Q2_ansL.png,E30_Q4_ansL.png,within,NA,NaN,NA,left,1829.3999999761581,1,1,983.7000000476837
3gCjylI7,NA,NA,3gCjylI7,2020-0188,2021-11-11,17:18:37,19:00:44,NA,incomplete,false,NA,true,5,3,NA,right,E15_Q4_ansR.png,E15_Q7_ansL.png,within,NA,NaN,NA,right,2230.399999976158,1,1,993.1000000238419
3gCjylI7,NA,NA,3gCjylI7,2020-0188,2021-11-11,17:18:37,19:00:44,NA,incomplete,false,NA,true,5,4,NA,right,E30_Q10_ansR.png,E30_Q5_ansR.png,within,NA,NaN,NA,right,4762.800000071526,1,1,967.9000000953674
3gCjylI7,NA,NA,3gCjylI7,2020-0188,2021-11-11,17:18:37,19:00:44,NA,incomplete,false,NA,true,5,5,NA,right,E15_Q7_ansL.png,E15_Q3_ansR.png,within,NA,NaN,NA,left,44919.10000002384,0,1,1947.6000000238419
3gCjylI7,NA,NA,3gCjylI7,2020-0188,2021-11-11,17:18:37,19:00:44,NA,incomplete,false,NA,true,5,6,NA,left,E21_Q10_ansL.png,E21_Q2_ansL.png,within,NA,NaN,NA,left,3257.8000000715256,1,1,10991.600000023842
3gCjylI7,NA,NA,3gCjylI7,2020-0188,2021-11-11,17:18:37,19:00:44,NA,incomplete,false,NA,true,5,7,NA,right,E21_Q4_ansR.png,E21_Q9_ansR.png,within,NA,NaN,NA,right,860.5,1,1,1380.7999999523163
3gCjylI7,NA,NA,3gCjylI7,2020-0188,2021-11-11,17:18:37,19:00:44,NA,incomplete,false,NA,true,5,8,NA,left,E30_Q7_ansL.png,E30_Q5_ansR.png,within,NA,NaN,NA,right,1715,0,1,911.5
3gCjylI7,NA,NA,3gCjylI7,2020-0188,2021-11-11,17:18:37,19:00:44,NA,incomplete,false,NA,true,5,9,NA,right,E30_Q6_ansR.png,E15_Q4_ansR.png,between,NA,NaN,NA,right,2985.899999976158,1,1,1225.6000000238419
3gCjylI7,NA,NA,3gCjylI7,2020-0188,2021-11-11,17:18:37,19:00:44,NA,incomplete,false,NA,true,5,10,NA,left,E15_Q2_ansL.png,E30_Q2_ansL.png,between,NA,NaN,NA,right,3370.399999976158,0,0,1932.1000000238419
3gCjylI7,NA,NA,3gCjylI7,2020-0188,2021-11-11,17:18:37,19:00:44,NA,incomplete,false,NA,true,5,11,NA,right,E30_Q1_ansL.png,E30_Q6_ansR.png,within,NA,NaN,NA,left,817.1000000238419,0,1,1502.6000000238419
3gCjylI7,NA,NA,3gCjylI7,2020-0188,2021-11-11,17:18:37,19:00:44,NA,incomplete,false,NA,true,5,12,NA,left,E21_Q1_ansL.png,E15_Q5_ansR.png,between,NA,NaN,NA,left,1447.8000000715256,1,3,1396.3000000715256
3gCjylI7,NA,NA,3gCjylI7,2020-0188,2021-11-11,17:18:37,19:00:44,NA,incomplete,false,NA,true,5,13,NA,right,E30_Q7_ansL.png,E30_Q9_ansL.png,within,NA,NaN,NA,right,27673.299999952316,1,1,982.8999999761581
3gCjylI7,NA,NA,3gCjylI7,2020-0188,2021-11-11,17:18:37,19:00:44,NA,incomplete,false,NA,true,5,14,NA,left,E21_Q8_ansL.png,E15_Q8_ansL.png,between,NA,NaN,NA,left,1332.6000000238419,1,2,995
3gCjylI7,NA,NA,3gCjylI7,2020-0188,2021-11-11,17:18:37,19:00:44,NA,incomplete,false,NA,true,5,15,NA,left,E15_Q10_ansL.png,E30_Q9_ansL.png,between,NA,NaN,NA,left,2563.7000000476837,1,1,4921.5
3gCjylI7,NA,NA,3gCjylI7,2020-0188,2021-11-11,17:18:37,19:00:44,NA,incomplete,false,NA,true,5,16,NA,right,E15_Q3_ansR.png,E15_Q6_ansR.png,within,NA,NaN,NA,right,45585.89999997616,1,1,863.6999999284744
3gCjylI7,NA,NA,3gCjylI7,2020-0188,2021-11-11,17:18:37,19:00:44,NA,incomplete,false,NA,true,5,17,NA,right,E21_Q7_ansL.png,E21_Q2_ansL.png,within,NA,NaN,NA,right,12942.300000071526,1,1,2804.2999999523163
3gCjylI7,NA,NA,3gCjylI7,2020-0188,2021-11-11,17:18:37,19:00:44,NA,incomplete,false,NA,true,5,18,NA,right,E21_Q1_ansL.png,E21_Q6_ansR.png,within,NA,NaN,NA,left,2203.3000000715256,0,1,2611.2999999523163
3gCjylI7,NA,NA,3gCjylI7,2020-0188,2021-11-11,17:18:37,19:00:44,NA,incomplete,false,NA,true,5,19,NA,right,E21_Q9_ansR.png,E21_Q3_ansR.png,within,NA,NaN,NA,right,1940.5,1,1,993.7999999523163
3gCjylI7,NA,NA,3gCjylI7,2020-0188,2021-11-11,17:18:37,19:00:44,NA,incomplete,false,NA,true,5,20,NA,right,E15_Q9_ansR.png,E15_Q8_ansL.png,within,NA,NaN,NA,left,2635.2999999523163,0,1,823.6999999284744
3gCjylI7,NA,NA,3gCjylI7,2020-0188,2021-11-11,17:18:37,19:00:44,NA,incomplete,false,NA,true,5,21,NA,right,E21_Q8_ansL.png,E21_Q7_ansL.png,within,NA,NaN,NA,left,1887.1000000238419,0,1,3800
3gCjylI7,NA,NA,3gCjylI7,2020-0188,2021-11-11,17:18:37,19:00:44,NA,incomplete,false,NA,true,5,22,NA,left,E15_Q1_ansL.png,E15_Q10_ansL.png,within,NA,NaN,NA,right,1371,0,1,959.0999999046326
3gCjylI7,NA,NA,3gCjylI7,2020-0188,2021-11-11,17:18:37,19:00:44,NA,incomplete,false,NA,true,5,23,NA,left,E21_Q4_ansR.png,E15_Q6_ansR.png,between,NA,NaN,NA,left,1864.8000000715256,1,1,1808.8999999761581
3gCjylI7,NA,NA,3gCjylI7,2020-0188,2021-11-11,17:18:37,19:00:44,NA,incomplete,false,NA,true,5,24,NA,right,E21_Q6_ansR.png,E21_Q5_ansR.png,within,NA,NaN,NA,right,1504.2999999523163,1,1,994.2999999523163
3gCjylI7,NA,NA,3gCjylI7,2020-0188,2021-11-11,17:18:37,19:00:44,NA,incomplete,false,NA,true,5,25,NA,right,E30_Q3_ansL.png,E30_Q1_ansL.png,within,NA,NaN,NA,left,1059.3999999761581,0,1,798.1000000238419
3gCjylI7,NA,NA,3gCjylI7,2020-0188,2021-11-11,17:18:37,19:00:44,NA,incomplete,false,NA,true,5,26,NA,left,E15_Q9_ansR.png,E15_Q2_ansL.png,within,NA,NaN,NA,right,28244.5,0,1,1245.1999999284744
3gCjylI7,NA,NA,3gCjylI7,2020-0188,2021-11-11,17:18:37,19:00:44,NA,incomplete,false,true,NA,6,0,E16_Q6_ansL.png,left,NA,NA,NA,left,1446.79999995232,true,NA,NA,NA,NA,NA
3gCjylI7,NA,NA,3gCjylI7,2020-0188,2021-11-11,17:18:37,19:00:44,NA,incomplete,false,true,NA,6,1,E16_Q9_ansL.png,left,NA,NA,NA,left,955.099999904633,true,NA,NA,NA,NA,NA
3gCjylI7,NA,NA,3gCjylI7,2020-0188,2021-11-11,17:18:37,19:00:44,NA,incomplete,false,true,NA,6,2,E16_Q1_ansR.png,right,NA,NA,NA,right,1372.30000007153,true,NA,NA,NA,NA,NA
3gCjylI7,NA,NA,3gCjylI7,2020-0188,2021-11-11,17:18:37,19:00:44,NA,incomplete,false,true,NA,6,3,E16_Q3_ansL.png,left,NA,NA,NA,left,1111.5,true,NA,NA,NA,NA,NA
3gCjylI7,NA,NA,3gCjylI7,2020-0188,2021-11-11,17:18:37,19:00:44,NA,incomplete,false,true,NA,6,4,E16_Q10_ansR.png,right,NA,NA,NA,right,1186.29999995232,true,NA,NA,NA,NA,NA
3gCjylI7,NA,NA,3gCjylI7,2020-0188,2021-11-11,17:18:37,19:00:44,NA,incomplete,false,true,NA,6,5,E16_Q4_ansL.png,left,NA,NA,NA,left,1696.90000009537,true,NA,NA,NA,NA,NA
3gCjylI7,NA,NA,3gCjylI7,2020-0188,2021-11-11,17:18:37,19:00:44,NA,incomplete,false,true,NA,6,6,E16_Q2_ansR.png,right,NA,NA,NA,right,1283,true,NA,NA,NA,NA,NA
3gCjylI7,NA,NA,3gCjylI7,2020-0188,2021-11-11,17:18:37,19:00:44,NA,incomplete,false,true,NA,6,7,E16_Q7_ansR.png,right,NA,NA,NA,right,1237,true,NA,NA,NA,NA,NA
3gCjylI7,NA,NA,3gCjylI7,2020-0188,2021-11-11,17:18:37,19:00:44,NA,incomplete,false,true,NA,6,8,E16_Q5_ansL.png,left,NA,NA,NA,left,1130.60000002384,true,NA,NA,NA,NA,NA
3gCjylI7,NA,NA,3gCjylI7,2020-0188,2021-11-11,17:18:37,19:00:44,NA,incomplete,false,true,NA,6,9,E16_Q8_ansR.png,right,NA,NA,NA,right,1398.5,true,NA,NA,NA,NA,NA
3gCjylI7,NA,NA,3gCjylI7,2020-0188,2021-11-11,17:18:37,19:00:44,NA,incomplete,false,true,NA,6,10,E31_Q6_ansL.png,left,NA,NA,NA,left,1870.29999995232,true,NA,NA,NA,NA,NA
3gCjylI7,NA,NA,3gCjylI7,2020-0188,2021-11-11,17:18:37,19:00:44,NA,incomplete,false,true,NA,6,11,E31_Q9_ansL.png,left,NA,NA,NA,left,1596.69999992847,true,NA,NA,NA,NA,NA
3gCjylI7,NA,NA,3gCjylI7,2020-0188,2021-11-11,17:18:37,19:00:44,NA,incomplete,false,true,NA,6,12,E31_Q5_ansL.png,left,NA,NA,NA,left,966.899999976158,true,NA,NA,NA,NA,NA
3gCjylI7,NA,NA,3gCjylI7,2020-0188,2021-11-11,17:18:37,19:00:44,NA,incomplete,false,true,NA,6,13,E31_Q4_ansL.png,left,NA,NA,NA,left,1113.60000002384,true,NA,NA,NA,NA,NA
3gCjylI7,NA,NA,3gCjylI7,2020-0188,2021-11-11,17:18:37,19:00:44,NA,incomplete,false,true,NA,6,14,E31_Q8_ansR.png,right,NA,NA,NA,right,2261.5,true,NA,NA,NA,NA,NA
3gCjylI7,NA,NA,3gCjylI7,2020-0188,2021-11-11,17:18:37,19:00:44,NA,incomplete,false,true,NA,6,15,E31_Q7_ansR.png,right,NA,NA,NA,right,1008.20000004768,true,NA,NA,NA,NA,NA
3gCjylI7,NA,NA,3gCjylI7,2020-0188,2021-11-11,17:18:37,19:00:44,NA,incomplete,false,true,NA,6,16,E31_Q3_ansL.png,left,NA,NA,NA,left,1069.79999995232,true,NA,NA,NA,NA,NA
3gCjylI7,NA,NA,3gCjylI7,2020-0188,2021-11-11,17:18:37,19:00:44,NA,incomplete,false,true,NA,6,17,E31_Q2_ansR.png,right,NA,NA,NA,none,0,false,NA,NA,NA,NA,NA
3gCjylI7,NA,NA,3gCjylI7,2020-0188,2021-11-11,17:18:37,19:00:44,NA,incomplete,false,true,NA,6,18,E31_Q10_ansR.png,right,NA,NA,NA,right,1287.79999995232,true,NA,NA,NA,NA,NA
3gCjylI7,NA,NA,3gCjylI7,2020-0188,2021-11-11,17:18:37,19:00:44,NA,incomplete,false,true,NA,6,19,E31_Q1_ansR.png,right,NA,NA,NA,right,1119.79999995232,true,NA,NA,NA,NA,NA
3gCjylI7,NA,NA,3gCjylI7,2020-0188,2021-11-11,17:18:37,19:00:44,NA,incomplete,false,true,NA,6,20,E24_Q10_ansR.png,right,NA,NA,NA,right,1537.39999997616,true,NA,NA,NA,NA,NA
3gCjylI7,NA,NA,3gCjylI7,2020-0188,2021-11-11,17:18:37,19:00:44,NA,incomplete,false,true,NA,6,21,E24_Q7_ansR.png,right,NA,NA,NA,right,998.299999952316,true,NA,NA,NA,NA,NA
3gCjylI7,NA,NA,3gCjylI7,2020-0188,2021-11-11,17:18:37,19:00:44,NA,incomplete,false,true,NA,6,22,E24_Q9_ansL.png,left,NA,NA,NA,left,1282.10000002384,true,NA,NA,NA,NA,NA
3gCjylI7,NA,NA,3gCjylI7,2020-0188,2021-11-11,17:18:37,19:00:44,NA,incomplete,false,true,NA,6,23,E24_Q5_ansL.png,left,NA,NA,NA,right,895,false,NA,NA,NA,NA,NA
3gCjylI7,NA,NA,3gCjylI7,2020-0188,2021-11-11,17:18:37,19:00:44,NA,incomplete,false,true,NA,6,24,E24_Q6_ansL.png,left,NA,NA,NA,left,1084.09999990463,true,NA,NA,NA,NA,NA
3gCjylI7,NA,NA,3gCjylI7,2020-0188,2021-11-11,17:18:37,19:00:44,NA,incomplete,false,true,NA,6,25,E24_Q1_ansR.png,right,NA,NA,NA,right,1395.5,true,NA,NA,NA,NA,NA
3gCjylI7,NA,NA,3gCjylI7,2020-0188,2021-11-11,17:18:37,19:00:44,NA,incomplete,false,true,NA,6,26,E24_Q2_ansR.png,right,NA,NA,NA,right,1916.29999995232,true,NA,NA,NA,NA,NA
3gCjylI7,NA,NA,3gCjylI7,2020-0188,2021-11-11,17:18:37,19:00:44,NA,incomplete,false,true,NA,6,27,E24_Q4_ansL.png,left,NA,NA,NA,right,2175.60000002384,false,NA,NA,NA,NA,NA
3gCjylI7,NA,NA,3gCjylI7,2020-0188,2021-11-11,17:18:37,19:00:44,NA,incomplete,false,true,NA,6,28,E24_Q3_ansL.png,left,NA,NA,NA,left,1689,true,NA,NA,NA,NA,NA
3gCjylI7,NA,NA,3gCjylI7,2020-0188,2021-11-11,17:18:37,19:00:44,NA,incomplete,false,true,NA,6,29,E24_Q8_ansR.png,right,NA,NA,NA,left,1453.80000007153,false,NA,NA,NA,NA,NA
3gCjylI7,NA,NA,3gCjylI7,2020-0188,2021-11-11,17:18:37,19:00:44,NA,incomplete,false,NA,true,6,0,NA,left,E16_Q3_ansL.png,E16_Q2_ansR.png,within,NA,NaN,NA,left,1755.1999999284744,1,1,1241.7000000476837
3gCjylI7,NA,NA,3gCjylI7,2020-0188,2021-11-11,17:18:37,19:00:44,NA,incomplete,false,NA,true,6,1,NA,left,E31_Q1_ansR.png,E24_Q9_ansL.png,between,NA,NaN,NA,left,4490.100000023842,1,3,1575.6999999284744
3gCjylI7,NA,NA,3gCjylI7,2020-0188,2021-11-11,17:18:37,19:00:44,NA,incomplete,false,NA,true,6,2,NA,right,E16_Q4_ansL.png,E16_Q1_ansR.png,within,NA,NaN,NA,left,880.2999999523163,0,1,1265.8000000715256
3gCjylI7,NA,NA,3gCjylI7,2020-0188,2021-11-11,17:18:37,19:00:44,NA,incomplete,false,NA,true,6,3,NA,left,E31_Q3_ansL.png,E31_Q1_ansR.png,within,NA,NaN,NA,left,2085.100000023842,1,1,824.9000000953674
3gCjylI7,NA,NA,3gCjylI7,2020-0188,2021-11-11,17:18:37,19:00:44,NA,incomplete,false,NA,true,6,4,NA,left,E24_Q1_ansR.png,E24_Q3_ansL.png,within,NA,NaN,NA,left,2668.5,1,1,1008.2999999523163
3gCjylI7,NA,NA,3gCjylI7,2020-0188,2021-11-11,17:18:37,19:00:44,NA,incomplete,false,NA,true,6,5,NA,right,E16_Q5_ansL.png,E16_Q4_ansL.png,within,NA,NaN,NA,left,1545.1999999284744,0,1,1058.8000000715256
3gCjylI7,NA,NA,3gCjylI7,2020-0188,2021-11-11,17:18:37,19:00:44,NA,incomplete,false,NA,true,6,6,NA,left,E24_Q6_ansL.png,E24_Q4_ansL.png,within,NA,NaN,NA,right,931.5,0,1,1552.0999999046326
3gCjylI7,NA,NA,3gCjylI7,2020-0188,2021-11-11,17:18:37,19:00:44,NA,incomplete,false,NA,true,6,7,NA,left,E24_Q2_ansR.png,E24_Q8_ansR.png,within,NA,NaN,NA,left,516.8999999761581,1,1,2893.2000000476837
3gCjylI7,NA,NA,3gCjylI7,2020-0188,2021-11-11,17:18:37,19:00:44,NA,incomplete,false,NA,true,6,8,NA,left,E31_Q4_ansL.png,E31_Q3_ansL.png,within,NA,NaN,NA,right,2022.7000000476837,0,1,1818.7000000476837
3gCjylI7,NA,NA,3gCjylI7,2020-0188,2021-11-11,17:18:37,19:00:44,NA,incomplete,false,NA,true,6,9,NA,right,E24_Q7_ansR.png,E31_Q10_ansR.png,between,NA,NaN,NA,right,1235.2999999523163,1,1,1142.2000000476837
3gCjylI7,NA,NA,3gCjylI7,2020-0188,2021-11-11,17:18:37,19:00:44,NA,incomplete,false,NA,true,6,10,NA,right,E24_Q2_ansR.png,E24_Q5_ansL.png,within,NA,NaN,NA,right,4868.899999976158,1,1,1121.8999999761581
3gCjylI7,NA,NA,3gCjylI7,2020-0188,2021-11-11,17:18:37,19:00:44,NA,incomplete,false,NA,true,6,11,NA,left,E31_Q5_ansL.png,E31_Q7_ansR.png,within,NA,NaN,NA,left,588.7000000476837,1,1,1188.1999999284744
3gCjylI7,NA,NA,3gCjylI7,2020-0188,2021-11-11,17:18:37,19:00:44,NA,incomplete,false,NA,true,6,12,NA,left,E31_Q9_ansL.png,E31_Q8_ansR.png,within,NA,NaN,NA,left,864.2999999523163,1,1,896.3999999761581
3gCjylI7,NA,NA,3gCjylI7,2020-0188,2021-11-11,17:18:37,19:00:44,NA,incomplete,false,NA,true,6,13,NA,left,E16_Q10_ansR.png,E16_Q7_ansR.png,within,NA,NaN,NA,right,1221.1999999284744,0,1,832.8999999761581
3gCjylI7,NA,NA,3gCjylI7,2020-0188,2021-11-11,17:18:37,19:00:44,NA,incomplete,false,NA,true,6,14,NA,left,E24_Q7_ansR.png,E24_Q6_ansL.png,within,NA,NaN,NA,left,653.8000000715256,1,1,904.6000000238419
3gCjylI7,NA,NA,3gCjylI7,2020-0188,2021-11-11,17:18:37,19:00:44,NA,incomplete,false,NA,true,6,15,NA,left,E31_Q2_ansR.png,E24_Q10_ansR.png,between,NA,NaN,NA,right,1777.9000000953674,0,1,1049.5999999046326
3gCjylI7,NA,NA,3gCjylI7,2020-0188,2021-11-11,17:18:37,19:00:44,NA,incomplete,false,NA,true,6,16,NA,right,E31_Q10_ansR.png,E31_Q7_ansR.png,within,NA,NaN,NA,left,565.0999999046326,0,2,1494.5
3gCjylI7,NA,NA,3gCjylI7,2020-0188,2021-11-11,17:18:37,19:00:44,NA,incomplete,false,NA,true,6,17,NA,right,E31_Q6_ansL.png,E16_Q7_ansR.png,between,NA,NaN,NA,right,428.8000000715256,1,3,2342.8000000715256
3gCjylI7,NA,NA,3gCjylI7,2020-0188,2021-11-11,17:18:37,19:00:44,NA,incomplete,false,NA,true,6,18,NA,left,E24_Q10_ansR.png,E24_Q5_ansL.png,within,NA,NaN,NA,left,687.2000000476837,1,1,621
3gCjylI7,NA,NA,3gCjylI7,2020-0188,2021-11-11,17:18:37,19:00:44,NA,incomplete,false,NA,true,6,19,NA,right,E31_Q9_ansL.png,E16_Q5_ansL.png,between,NA,NaN,NA,right,759.1999999284744,1,1,975
3gCjylI7,NA,NA,3gCjylI7,2020-0188,2021-11-11,17:18:37,19:00:44,NA,incomplete,false,NA,true,6,20,NA,left,E24_Q9_ansL.png,E24_Q1_ansR.png,within,NA,NaN,NA,left,744.7000000476837,1,1,1081.7000000476837
3gCjylI7,NA,NA,3gCjylI7,2020-0188,2021-11-11,17:18:37,19:00:44,NA,incomplete,false,NA,true,6,21,NA,left,E31_Q8_ansR.png,E31_Q2_ansR.png,within,NA,NaN,NA,right,670.6000000238419,0,1,1511.3999999761581
3gCjylI7,NA,NA,3gCjylI7,2020-0188,2021-11-11,17:18:37,19:00:44,NA,incomplete,false,NA,true,6,22,NA,left,E16_Q6_ansL.png,E16_Q3_ansL.png,within,NA,NaN,NA,left,833.0999999046326,1,1,904.7999999523163
3gCjylI7,NA,NA,3gCjylI7,2020-0188,2021-11-11,17:18:37,19:00:44,NA,incomplete,false,NA,true,6,23,NA,right,E16_Q8_ansR.png,E16_Q2_ansR.png,within,NA,NaN,NA,left,1398.7999999523163,0,2,1688.8000000715256
3gCjylI7,NA,NA,3gCjylI7,2020-0188,2021-11-11,17:18:37,19:00:44,NA,incomplete,false,NA,true,6,24,NA,right,E16_Q10_ansR.png,E16_Q9_ansL.png,within,NA,NaN,NA,right,549.2999999523163,1,1,782.1000000238419
3gCjylI7,NA,NA,3gCjylI7,2020-0188,2021-11-11,17:18:37,19:00:44,NA,incomplete,false,NA,true,6,25,NA,left,E16_Q8_ansR.png,E31_Q5_ansL.png,between,NA,NaN,NA,left,1019.2999999523163,1,1,1056.9000000953674
3gCjylI7,NA,NA,3gCjylI7,2020-0188,2021-11-11,17:18:37,19:00:44,NA,incomplete,false,NA,true,6,26,NA,left,E31_Q6_ansL.png,E31_Q4_ansL.png,within,NA,NaN,NA,right,662.5,0,1,937.8999999761581
3gCjylI7,NA,NA,3gCjylI7,2020-0188,2021-11-11,17:18:37,19:00:44,NA,incomplete,false,true,NA,7,0,E26_Q6_ansR.png,right,NA,NA,NA,right,1922.40000009537,true,NA,NA,NA,NA,NA
3gCjylI7,NA,NA,3gCjylI7,2020-0188,2021-11-11,17:18:37,19:00:44,NA,incomplete,false,true,NA,7,1,E26_Q7_ansL.png,left,NA,NA,NA,left,1375.79999995232,true,NA,NA,NA,NA,NA
3gCjylI7,NA,NA,3gCjylI7,2020-0188,2021-11-11,17:18:37,19:00:44,NA,incomplete,false,true,NA,7,2,E26_Q8_ansL.png,left,NA,NA,NA,left,776.100000023842,true,NA,NA,NA,NA,NA
3gCjylI7,NA,NA,3gCjylI7,2020-0188,2021-11-11,17:18:37,19:00:44,NA,incomplete,false,true,NA,7,3,E26_Q5_ansR.png,right,NA,NA,NA,left,708.400000095367,false,NA,NA,NA,NA,NA
3gCjylI7,NA,NA,3gCjylI7,2020-0188,2021-11-11,17:18:37,19:00:44,NA,incomplete,false,true,NA,7,4,E26_Q3_ansR.png,right,NA,NA,NA,right,1184.89999997616,true,NA,NA,NA,NA,NA
3gCjylI7,NA,NA,3gCjylI7,2020-0188,2021-11-11,17:18:37,19:00:44,NA,incomplete,false,true,NA,7,5,E26_Q9_ansR.png,right,NA,NA,NA,right,1176.79999995232,true,NA,NA,NA,NA,NA
3gCjylI7,NA,NA,3gCjylI7,2020-0188,2021-11-11,17:18:37,19:00:44,NA,incomplete,false,true,NA,7,6,E26_Q1_ansL.png,left,NA,NA,NA,left,1307.60000002384,true,NA,NA,NA,NA,NA
3gCjylI7,NA,NA,3gCjylI7,2020-0188,2021-11-11,17:18:37,19:00:44,NA,incomplete,false,true,NA,7,7,E26_Q2_ansL.png,left,NA,NA,NA,left,1288.60000002384,true,NA,NA,NA,NA,NA
3gCjylI7,NA,NA,3gCjylI7,2020-0188,2021-11-11,17:18:37,19:00:44,NA,incomplete,false,true,NA,7,8,E26_Q4_ansR.png,right,NA,NA,NA,right,1245.79999995232,true,NA,NA,NA,NA,NA
3gCjylI7,NA,NA,3gCjylI7,2020-0188,2021-11-11,17:18:37,19:00:44,NA,incomplete,false,true,NA,7,9,E26_Q10_ansL.png,left,NA,NA,NA,left,971.299999952316,true,NA,NA,NA,NA,NA
3gCjylI7,NA,NA,3gCjylI7,2020-0188,2021-11-11,17:18:37,19:00:44,NA,incomplete,false,true,NA,7,10,E33_Q5_ansR.png,right,NA,NA,NA,left,2519.80000007153,false,NA,NA,NA,NA,NA
3gCjylI7,NA,NA,3gCjylI7,2020-0188,2021-11-11,17:18:37,19:00:44,NA,incomplete,false,true,NA,7,11,E33_Q1_ansL.png,left,NA,NA,NA,left,1299.89999997616,true,NA,NA,NA,NA,NA
3gCjylI7,NA,NA,3gCjylI7,2020-0188,2021-11-11,17:18:37,19:00:44,NA,incomplete,false,true,NA,7,12,E33_Q6_ansR.png,right,NA,NA,NA,right,1532.60000002384,true,NA,NA,NA,NA,NA
3gCjylI7,NA,NA,3gCjylI7,2020-0188,2021-11-11,17:18:37,19:00:44,NA,incomplete,false,true,NA,7,13,E33_Q9_ansR.png,right,NA,NA,NA,right,2096.89999997616,true,NA,NA,NA,NA,NA
3gCjylI7,NA,NA,3gCjylI7,2020-0188,2021-11-11,17:18:37,19:00:44,NA,incomplete,false,true,NA,7,14,E33_Q7_ansL.png,left,NA,NA,NA,left,2756.10000002384,true,NA,NA,NA,NA,NA
3gCjylI7,NA,NA,3gCjylI7,2020-0188,2021-11-11,17:18:37,19:00:44,NA,incomplete,false,true,NA,7,15,E33_Q8_ansL.png,left,NA,NA,NA,left,1348.69999992847,true,NA,NA,NA,NA,NA
3gCjylI7,NA,NA,3gCjylI7,2020-0188,2021-11-11,17:18:37,19:00:44,NA,incomplete,false,true,NA,7,16,E33_Q2_ansL.png,left,NA,NA,NA,left,1618.30000007153,true,NA,NA,NA,NA,NA
3gCjylI7,NA,NA,3gCjylI7,2020-0188,2021-11-11,17:18:37,19:00:44,NA,incomplete,false,true,NA,7,17,E33_Q3_ansR.png,right,NA,NA,NA,right,2159.19999992847,true,NA,NA,NA,NA,NA
3gCjylI7,NA,NA,3gCjylI7,2020-0188,2021-11-11,17:18:37,19:00:44,NA,incomplete,false,true,NA,7,18,E33_Q4_ansR.png,right,NA,NA,NA,right,2418.5,true,NA,NA,NA,NA,NA
3gCjylI7,NA,NA,3gCjylI7,2020-0188,2021-11-11,17:18:37,19:00:44,NA,incomplete,false,true,NA,7,19,E33_Q10_ansL.png,left,NA,NA,NA,right,1577.5,false,NA,NA,NA,NA,NA
3gCjylI7,NA,NA,3gCjylI7,2020-0188,2021-11-11,17:18:37,19:00:44,NA,incomplete,false,true,NA,7,20,E17_Q7_ansL.png,left,NA,NA,NA,left,1887.40000009537,true,NA,NA,NA,NA,NA
3gCjylI7,NA,NA,3gCjylI7,2020-0188,2021-11-11,17:18:37,19:00:44,NA,incomplete,false,true,NA,7,21,E17_Q6_ansR.png,right,NA,NA,NA,right,1156.79999995232,true,NA,NA,NA,NA,NA
3gCjylI7,NA,NA,3gCjylI7,2020-0188,2021-11-11,17:18:37,19:00:44,NA,incomplete,false,true,NA,7,22,E17_Q10_ansL.png,left,NA,NA,NA,left,991.900000095367,true,NA,NA,NA,NA,NA
3gCjylI7,NA,NA,3gCjylI7,2020-0188,2021-11-11,17:18:37,19:00:44,NA,incomplete,false,true,NA,7,23,E17_Q1_ansL.png,left,NA,NA,NA,left,948.899999976158,true,NA,NA,NA,NA,NA
3gCjylI7,NA,NA,3gCjylI7,2020-0188,2021-11-11,17:18:37,19:00:44,NA,incomplete,false,true,NA,7,24,E17_Q4_ansR.png,right,NA,NA,NA,right,1143.19999992847,true,NA,NA,NA,NA,NA
3gCjylI7,NA,NA,3gCjylI7,2020-0188,2021-11-11,17:18:37,19:00:44,NA,incomplete,false,true,NA,7,25,E17_Q3_ansR.png,right,NA,NA,NA,right,1391.10000002384,true,NA,NA,NA,NA,NA
3gCjylI7,NA,NA,3gCjylI7,2020-0188,2021-11-11,17:18:37,19:00:44,NA,incomplete,false,true,NA,7,26,E17_Q9_ansR.png,right,NA,NA,NA,right,775.900000095367,true,NA,NA,NA,NA,NA
3gCjylI7,NA,NA,3gCjylI7,2020-0188,2021-11-11,17:18:37,19:00:44,NA,incomplete,false,true,NA,7,27,E17_Q8_ansL.png,left,NA,NA,NA,left,1118.89999997616,true,NA,NA,NA,NA,NA
3gCjylI7,NA,NA,3gCjylI7,2020-0188,2021-11-11,17:18:37,19:00:44,NA,incomplete,false,true,NA,7,28,E17_Q5_ansR.png,right,NA,NA,NA,right,980.300000071526,true,NA,NA,NA,NA,NA
3gCjylI7,NA,NA,3gCjylI7,2020-0188,2021-11-11,17:18:37,19:00:44,NA,incomplete,false,true,NA,7,29,E17_Q2_ansL.png,left,NA,NA,NA,left,700.700000047684,true,NA,NA,NA,NA,NA
3gCjylI7,NA,NA,3gCjylI7,2020-0188,2021-11-11,17:18:37,19:00:44,NA,incomplete,false,NA,true,7,0,NA,left,E33_Q9_ansR.png,E33_Q2_ansL.png,within,NA,NaN,NA,left,1707.7000000476837,1,1,1913.5
3gCjylI7,NA,NA,3gCjylI7,2020-0188,2021-11-11,17:18:37,19:00:44,NA,incomplete,false,NA,true,7,1,NA,right,E33_Q4_ansR.png,E33_Q8_ansL.png,within,NA,NaN,NA,right,830.8999999761581,1,1,1100.6000000238419
3gCjylI7,NA,NA,3gCjylI7,2020-0188,2021-11-11,17:18:37,19:00:44,NA,incomplete,false,NA,true,7,2,NA,left,E26_Q5_ansR.png,E26_Q1_ansL.png,within,NA,NaN,NA,left,1389,1,1,1050.6000000238419
3gCjylI7,NA,NA,3gCjylI7,2020-0188,2021-11-11,17:18:37,19:00:44,NA,incomplete,false,NA,true,7,3,NA,right,E33_Q1_ansL.png,E26_Q4_ansR.png,between,NA,NaN,NA,right,2198.5999999046326,1,2,2974
3gCjylI7,NA,NA,3gCjylI7,2020-0188,2021-11-11,17:18:37,19:00:44,NA,incomplete,false,NA,true,7,4,NA,right,E17_Q5_ansR.png,E17_Q3_ansR.png,within,NA,NaN,NA,left,1705.7999999523163,0,1,889.7000000476837
3gCjylI7,NA,NA,3gCjylI7,2020-0188,2021-11-11,17:18:37,19:00:44,NA,incomplete,false,NA,true,7,5,NA,right,E33_Q8_ansL.png,E33_Q6_ansR.png,within,NA,NaN,NA,right,1203.7999999523163,1,1,993.6999999284744
3gCjylI7,NA,NA,3gCjylI7,2020-0188,2021-11-11,17:18:37,19:00:44,NA,incomplete,false,NA,true,7,6,NA,left,E33_Q3_ansR.png,E17_Q7_ansL.png,between,NA,NaN,NA,left,11667.699999928474,1,1,3071
3gCjylI7,NA,NA,3gCjylI7,2020-0188,2021-11-11,17:18:37,19:00:44,NA,incomplete,false,NA,true,7,7,NA,right,E17_Q9_ansR.png,E17_Q1_ansL.png,within,NA,NaN,NA,right,711.1000000238419,1,1,1460.2000000476837
3gCjylI7,NA,NA,3gCjylI7,2020-0188,2021-11-11,17:18:37,19:00:44,NA,incomplete,false,NA,true,7,8,NA,left,E26_Q1_ansL.png,E26_Q10_ansL.png,within,NA,NaN,NA,right,1220,0,1,1710.1000000238419
3gCjylI7,NA,NA,3gCjylI7,2020-0188,2021-11-11,17:18:37,19:00:44,NA,incomplete,false,NA,true,7,9,NA,left,E17_Q4_ansR.png,E17_Q8_ansL.png,within,NA,NaN,NA,right,1429.7000000476837,0,1,1575.2000000476837
3gCjylI7,NA,NA,3gCjylI7,2020-0188,2021-11-11,17:18:37,19:00:44,NA,incomplete,false,NA,true,7,10,NA,right,E17_Q10_ansL.png,E33_Q10_ansL.png,between,NA,NaN,NA,left,7504.200000047684,0,2,1865.7999999523163
3gCjylI7,NA,NA,3gCjylI7,2020-0188,2021-11-11,17:18:37,19:00:44,NA,incomplete,false,NA,true,7,11,NA,left,E17_Q6_ansR.png,E17_Q4_ansR.png,within,NA,NaN,NA,right,710,0,1,872.5
3gCjylI7,NA,NA,3gCjylI7,2020-0188,2021-11-11,17:18:37,19:00:44,NA,incomplete,false,NA,true,7,12,NA,right,E33_Q10_ansL.png,E33_Q2_ansL.png,within,NA,NaN,NA,left,523.8999999761581,0,1,895.2000000476837
3gCjylI7,NA,NA,3gCjylI7,2020-0188,2021-11-11,17:18:37,19:00:44,NA,incomplete,false,NA,true,7,13,NA,left,E33_Q7_ansL.png,E33_Q3_ansR.png,within,NA,NaN,NA,right,484.2999999523163,0,1,765.2999999523163
3gCjylI7,NA,NA,3gCjylI7,2020-0188,2021-11-11,17:18:37,19:00:44,NA,incomplete,false,NA,true,7,14,NA,left,E26_Q10_ansL.png,E33_Q6_ansR.png,between,NA,NaN,NA,left,539.6000000238419,1,1,935.6000000238419
3gCjylI7,NA,NA,3gCjylI7,2020-0188,2021-11-11,17:18:37,19:00:44,NA,incomplete,false,NA,true,7,15,NA,right,E17_Q2_ansL.png,E17_Q9_ansR.png,within,NA,NaN,NA,right,1607.2000000476837,1,1,1082
3gCjylI7,NA,NA,3gCjylI7,2020-0188,2021-11-11,17:18:37,19:00:44,NA,incomplete,false,NA,true,7,16,NA,right,E33_Q5_ansR.png,E26_Q2_ansL.png,between,NA,NaN,NA,right,3225.899999976158,1,1,920.1000000238419
3gCjylI7,NA,NA,3gCjylI7,2020-0188,2021-11-11,17:18:37,19:00:44,NA,incomplete,false,NA,true,7,17,NA,left,E33_Q4_ansR.png,E17_Q6_ansR.png,between,NA,NaN,NA,right,735.1000000238419,0,1,959.2999999523163
3gCjylI7,NA,NA,3gCjylI7,2020-0188,2021-11-11,17:18:37,19:00:44,NA,incomplete,false,NA,true,7,18,NA,right,E17_Q1_ansL.png,E17_Q7_ansL.png,within,NA,NaN,NA,right,687.2999999523163,1,1,2051.7000000476837
3gCjylI7,NA,NA,3gCjylI7,2020-0188,2021-11-11,17:18:37,19:00:44,NA,incomplete,false,NA,true,7,19,NA,left,E26_Q8_ansL.png,E26_Q9_ansR.png,within,NA,NaN,NA,right,4391.299999952316,0,1,1188.2000000476837
3gCjylI7,NA,NA,3gCjylI7,2020-0188,2021-11-11,17:18:37,19:00:44,NA,incomplete,false,NA,true,7,20,NA,right,E26_Q5_ansR.png,E26_Q6_ansR.png,within,NA,NaN,NA,right,1065.7000000476837,1,2,944.7000000476837
3gCjylI7,NA,NA,3gCjylI7,2020-0188,2021-11-11,17:18:37,19:00:44,NA,incomplete,false,NA,true,7,21,NA,right,E26_Q4_ansR.png,E26_Q9_ansR.png,within,NA,NaN,NA,left,509.7000000476837,0,1,815.7999999523163
3gCjylI7,NA,NA,3gCjylI7,2020-0188,2021-11-11,17:18:37,19:00:44,NA,incomplete,false,NA,true,7,22,NA,right,E33_Q7_ansL.png,E33_Q1_ansL.png,within,NA,NaN,NA,right,1171.7000000476837,1,1,846.8999999761581
3gCjylI7,NA,NA,3gCjylI7,2020-0188,2021-11-11,17:18:37,19:00:44,NA,incomplete,false,NA,true,7,23,NA,left,E33_Q5_ansR.png,E33_Q9_ansR.png,within,NA,NaN,NA,left,525.7999999523163,1,1,856.1000000238419
3gCjylI7,NA,NA,3gCjylI7,2020-0188,2021-11-11,17:18:37,19:00:44,NA,incomplete,false,NA,true,7,24,NA,left,E26_Q7_ansL.png,E26_Q3_ansR.png,within,NA,NaN,NA,right,484.7999999523163,0,1,1017.3999999761581
3gCjylI7,NA,NA,3gCjylI7,2020-0188,2021-11-11,17:18:37,19:00:44,NA,incomplete,false,NA,true,7,25,NA,right,E26_Q2_ansL.png,E26_Q3_ansR.png,within,NA,NaN,NA,left,451.5,0,1,815.7999999523163
3gCjylI7,NA,NA,3gCjylI7,2020-0188,2021-11-11,17:18:37,19:00:44,NA,incomplete,false,NA,true,7,26,NA,left,E17_Q10_ansL.png,E17_Q3_ansR.png,within,NA,NaN,NA,right,444.2999999523163,0,2,855.3999999761581
3gCjylI7,NA,NA,3gCjylI7,2020-0188,2021-11-11,17:18:37,19:00:44,NA,incomplete,false,true,NA,8,0,E12_Q2_ansL.png,left,NA,NA,NA,right,2728.39999997616,false,NA,NA,NA,NA,NA
3gCjylI7,NA,NA,3gCjylI7,2020-0188,2021-11-11,17:18:37,19:00:44,NA,incomplete,false,true,NA,8,1,E12_Q10_ansL.png,left,NA,NA,NA,left,1111.89999997616,true,NA,NA,NA,NA,NA
3gCjylI7,NA,NA,3gCjylI7,2020-0188,2021-11-11,17:18:37,19:00:44,NA,incomplete,false,true,NA,8,2,E12_Q5_ansR.png,right,NA,NA,NA,right,1030.60000002384,true,NA,NA,NA,NA,NA
3gCjylI7,NA,NA,3gCjylI7,2020-0188,2021-11-11,17:18:37,19:00:44,NA,incomplete,false,true,NA,8,3,E12_Q7_ansL.png,left,NA,NA,NA,left,1456.39999997616,true,NA,NA,NA,NA,NA
3gCjylI7,NA,NA,3gCjylI7,2020-0188,2021-11-11,17:18:37,19:00:44,NA,incomplete,false,true,NA,8,4,E12_Q9_ansR.png,right,NA,NA,NA,right,866.700000047684,true,NA,NA,NA,NA,NA
3gCjylI7,NA,NA,3gCjylI7,2020-0188,2021-11-11,17:18:37,19:00:44,NA,incomplete,false,true,NA,8,5,E12_Q4_ansR.png,right,NA,NA,NA,right,1414,true,NA,NA,NA,NA,NA
3gCjylI7,NA,NA,3gCjylI7,2020-0188,2021-11-11,17:18:37,19:00:44,NA,incomplete,false,true,NA,8,6,E12_Q6_ansR.png,right,NA,NA,NA,right,1120.19999992847,true,NA,NA,NA,NA,NA
3gCjylI7,NA,NA,3gCjylI7,2020-0188,2021-11-11,17:18:37,19:00:44,NA,incomplete,false,true,NA,8,7,E12_Q1_ansL.png,left,NA,NA,NA,right,1801.59999990463,false,NA,NA,NA,NA,NA
3gCjylI7,NA,NA,3gCjylI7,2020-0188,2021-11-11,17:18:37,19:00:44,NA,incomplete,false,true,NA,8,8,E12_Q8_ansL.png,left,NA,NA,NA,left,2863.10000002384,true,NA,NA,NA,NA,NA
3gCjylI7,NA,NA,3gCjylI7,2020-0188,2021-11-11,17:18:37,19:00:44,NA,incomplete,false,true,NA,8,9,E12_Q3_ansR.png,right,NA,NA,NA,right,949.299999952316,true,NA,NA,NA,NA,NA
3gCjylI7,NA,NA,3gCjylI7,2020-0188,2021-11-11,17:18:37,19:00:44,NA,incomplete,false,true,NA,8,10,E11_Q5_ansL.png,left,NA,NA,NA,left,993.299999952316,true,NA,NA,NA,NA,NA
3gCjylI7,NA,NA,3gCjylI7,2020-0188,2021-11-11,17:18:37,19:00:44,NA,incomplete,false,true,NA,8,11,E11_Q9_ansL.png,left,NA,NA,NA,left,689.199999928474,true,NA,NA,NA,NA,NA
3gCjylI7,NA,NA,3gCjylI7,2020-0188,2021-11-11,17:18:37,19:00:44,NA,incomplete,false,true,NA,8,12,E11_Q8_ansR.png,right,NA,NA,NA,right,2058.5,true,NA,NA,NA,NA,NA
3gCjylI7,NA,NA,3gCjylI7,2020-0188,2021-11-11,17:18:37,19:00:44,NA,incomplete,false,true,NA,8,13,E11_Q10_ansR.png,right,NA,NA,NA,left,2697.79999995232,false,NA,NA,NA,NA,NA
3gCjylI7,NA,NA,3gCjylI7,2020-0188,2021-11-11,17:18:37,19:00:44,NA,incomplete,false,true,NA,8,14,E11_Q6_ansL.png,left,NA,NA,NA,left,1307.40000009537,true,NA,NA,NA,NA,NA
3gCjylI7,NA,NA,3gCjylI7,2020-0188,2021-11-11,17:18:37,19:00:44,NA,incomplete,false,true,NA,8,15,E11_Q1_ansR.png,right,NA,NA,NA,right,984,true,NA,NA,NA,NA,NA
3gCjylI7,NA,NA,3gCjylI7,2020-0188,2021-11-11,17:18:37,19:00:44,NA,incomplete,false,true,NA,8,16,E11_Q4_ansL.png,left,NA,NA,NA,left,1041.10000002384,true,NA,NA,NA,NA,NA
3gCjylI7,NA,NA,3gCjylI7,2020-0188,2021-11-11,17:18:37,19:00:44,NA,incomplete,false,true,NA,8,17,E11_Q7_ansR.png,right,NA,NA,NA,right,1263.70000004768,true,NA,NA,NA,NA,NA
3gCjylI7,NA,NA,3gCjylI7,2020-0188,2021-11-11,17:18:37,19:00:44,NA,incomplete,false,true,NA,8,18,E11_Q2_ansR.png,right,NA,NA,NA,right,1037.19999992847,true,NA,NA,NA,NA,NA
3gCjylI7,NA,NA,3gCjylI7,2020-0188,2021-11-11,17:18:37,19:00:44,NA,incomplete,false,true,NA,8,19,E11_Q3_ansL.png,left,NA,NA,NA,left,1067,true,NA,NA,NA,NA,NA
3gCjylI7,NA,NA,3gCjylI7,2020-0188,2021-11-11,17:18:37,19:00:44,NA,incomplete,false,true,NA,8,20,E8_Q10_ansR.png,right,NA,NA,NA,right,1494.70000004768,true,NA,NA,NA,NA,NA
3gCjylI7,NA,NA,3gCjylI7,2020-0188,2021-11-11,17:18:37,19:00:44,NA,incomplete,false,true,NA,8,21,E8_Q2_ansR.png,right,NA,NA,NA,right,1075,true,NA,NA,NA,NA,NA
3gCjylI7,NA,NA,3gCjylI7,2020-0188,2021-11-11,17:18:37,19:00:44,NA,incomplete,false,true,NA,8,22,E8_Q9_ansL.png,left,NA,NA,NA,right,1358.60000002384,false,NA,NA,NA,NA,NA
3gCjylI7,NA,NA,3gCjylI7,2020-0188,2021-11-11,17:18:37,19:00:44,NA,incomplete,false,true,NA,8,23,E8_Q4_ansL.png,left,NA,NA,NA,left,934.400000095367,true,NA,NA,NA,NA,NA
3gCjylI7,NA,NA,3gCjylI7,2020-0188,2021-11-11,17:18:37,19:00:44,NA,incomplete,false,true,NA,8,24,E8_Q3_ansL.png,left,NA,NA,NA,left,1416.5,true,NA,NA,NA,NA,NA
3gCjylI7,NA,NA,3gCjylI7,2020-0188,2021-11-11,17:18:37,19:00:44,NA,incomplete,false,true,NA,8,25,E8_Q6_ansL.png,left,NA,NA,NA,left,1598,true,NA,NA,NA,NA,NA
3gCjylI7,NA,NA,3gCjylI7,2020-0188,2021-11-11,17:18:37,19:00:44,NA,incomplete,false,true,NA,8,26,E8_Q7_ansR.png,right,NA,NA,NA,right,1139,true,NA,NA,NA,NA,NA
3gCjylI7,NA,NA,3gCjylI7,2020-0188,2021-11-11,17:18:37,19:00:44,NA,incomplete,false,true,NA,8,27,E8_Q1_ansR.png,right,NA,NA,NA,right,1559.30000007153,true,NA,NA,NA,NA,NA
3gCjylI7,NA,NA,3gCjylI7,2020-0188,2021-11-11,17:18:37,19:00:44,NA,incomplete,false,true,NA,8,28,E8_Q5_ansL.png,left,NA,NA,NA,left,1944.19999992847,true,NA,NA,NA,NA,NA
3gCjylI7,NA,NA,3gCjylI7,2020-0188,2021-11-11,17:18:37,19:00:44,NA,incomplete,false,true,NA,8,29,E8_Q8_ansR.png,right,NA,NA,NA,right,1187.39999997616,true,NA,NA,NA,NA,NA
3gCjylI7,NA,NA,3gCjylI7,2020-0188,2021-11-11,17:18:37,19:00:44,NA,incomplete,false,NA,true,8,0,NA,right,E11_Q6_ansL.png,E11_Q9_ansL.png,within,NA,NaN,NA,right,2504.5,1,1,1022.3999999761581
3gCjylI7,NA,NA,3gCjylI7,2020-0188,2021-11-11,17:18:37,19:00:44,NA,incomplete,false,NA,true,8,1,NA,left,E12_Q9_ansR.png,E12_Q1_ansL.png,within,NA,NaN,NA,right,2618.5999999046326,0,1,1227.5
3gCjylI7,NA,NA,3gCjylI7,2020-0188,2021-11-11,17:18:37,19:00:44,NA,incomplete,false,NA,true,8,2,NA,right,E8_Q9_ansL.png,E11_Q3_ansL.png,between,NA,NaN,NA,right,2126.2000000476837,1,1,807.0999999046326
3gCjylI7,NA,NA,3gCjylI7,2020-0188,2021-11-11,17:18:37,19:00:44,NA,incomplete,false,NA,true,8,3,NA,right,E12_Q9_ansR.png,E12_Q10_ansL.png,within,NA,NaN,NA,right,1357.5,1,1,2625.7999999523163
3gCjylI7,NA,NA,3gCjylI7,2020-0188,2021-11-11,17:18:37,19:00:44,NA,incomplete,false,NA,true,8,4,NA,right,E11_Q9_ansL.png,E12_Q8_ansL.png,between,NA,NaN,NA,left,1520.3999999761581,0,3,1283.1000000238419
3gCjylI7,NA,NA,3gCjylI7,2020-0188,2021-11-11,17:18:37,19:00:44,NA,incomplete,false,NA,true,8,5,NA,left,E8_Q2_ansR.png,E8_Q3_ansL.png,within,NA,NaN,NA,left,1754.8999999761581,1,1,945.6000000238419
3gCjylI7,NA,NA,3gCjylI7,2020-0188,2021-11-11,17:18:37,19:00:44,NA,incomplete,false,NA,true,8,6,NA,left,E11_Q7_ansR.png,E8_Q10_ansR.png,between,NA,NaN,NA,left,1350.2999999523163,1,1,1058.1999999284744
3gCjylI7,NA,NA,3gCjylI7,2020-0188,2021-11-11,17:18:37,19:00:44,NA,incomplete,false,NA,true,8,7,NA,left,E12_Q7_ansL.png,E12_Q6_ansR.png,within,NA,NaN,NA,left,1366.1999999284744,1,1,694
3gCjylI7,NA,NA,3gCjylI7,2020-0188,2021-11-11,17:18:37,19:00:44,NA,incomplete,false,NA,true,8,8,NA,right,E8_Q2_ansR.png,E11_Q2_ansR.png,between,NA,NaN,NA,right,1316.2000000476837,1,2,764.2999999523163
3gCjylI7,NA,NA,3gCjylI7,2020-0188,2021-11-11,17:18:37,19:00:44,NA,incomplete,false,NA,true,8,9,NA,right,E12_Q4_ansR.png,E12_Q5_ansR.png,within,NA,NaN,NA,right,9505.700000047684,1,1,822.7999999523163
3gCjylI7,NA,NA,3gCjylI7,2020-0188,2021-11-11,17:18:37,19:00:44,NA,incomplete,false,NA,true,8,10,NA,right,E12_Q7_ansL.png,E12_Q2_ansL.png,within,NA,NaN,NA,right,1083.6000000238419,1,1,1010.3999999761581
3gCjylI7,NA,NA,3gCjylI7,2020-0188,2021-11-11,17:18:37,19:00:44,NA,incomplete,false,NA,true,8,11,NA,right,E11_Q3_ansL.png,E11_Q4_ansL.png,within,NA,NaN,NA,left,847.2000000476837,0,1,1196.8999999761581
3gCjylI7,NA,NA,3gCjylI7,2020-0188,2021-11-11,17:18:37,19:00:44,NA,incomplete,false,NA,true,8,12,NA,right,E8_Q7_ansR.png,E8_Q4_ansL.png,within,NA,NaN,NA,right,2192,1,1,976.1000000238419
3gCjylI7,NA,NA,3gCjylI7,2020-0188,2021-11-11,17:18:37,19:00:44,NA,incomplete,false,NA,true,8,13,NA,left,E12_Q1_ansL.png,E11_Q5_ansL.png,between,NA,NaN,NA,right,791.7999999523163,0,1,1332.6000000238419
3gCjylI7,NA,NA,3gCjylI7,2020-0188,2021-11-11,17:18:37,19:00:44,NA,incomplete,false,NA,true,8,14,NA,left,E8_Q7_ansR.png,E8_Q8_ansR.png,within,NA,NaN,NA,right,541,0,1,1388.8000000715256
3gCjylI7,NA,NA,3gCjylI7,2020-0188,2021-11-11,17:18:37,19:00:44,NA,incomplete,false,NA,true,8,15,NA,left,E11_Q10_ansR.png,E11_Q4_ansL.png,within,NA,NaN,NA,left,759.2000000476837,1,1,1590.2000000476837
3gCjylI7,NA,NA,3gCjylI7,2020-0188,2021-11-11,17:18:37,19:00:44,NA,incomplete,false,NA,true,8,16,NA,left,E11_Q8_ansR.png,E11_Q1_ansR.png,within,NA,NaN,NA,left,2812.2999999523163,1,1,709.5999999046326
3gCjylI7,NA,NA,3gCjylI7,2020-0188,2021-11-11,17:18:37,19:00:44,NA,incomplete,false,NA,true,8,17,NA,right,E11_Q10_ansR.png,E11_Q5_ansL.png,within,NA,NaN,NA,right,678.1000000238419,1,1,1127.8999999761581
3gCjylI7,NA,NA,3gCjylI7,2020-0188,2021-11-11,17:18:37,19:00:44,NA,incomplete,false,NA,true,8,18,NA,left,E8_Q10_ansR.png,E8_Q4_ansL.png,within,NA,NaN,NA,left,2902.5,1,1,2917.3000000715256
3gCjylI7,NA,NA,3gCjylI7,2020-0188,2021-11-11,17:18:37,19:00:44,NA,incomplete,false,NA,true,8,19,NA,right,E8_Q5_ansL.png,E8_Q6_ansL.png,within,NA,NaN,NA,left,2927,0,1,1082.5999999046326
3gCjylI7,NA,NA,3gCjylI7,2020-0188,2021-11-11,17:18:37,19:00:44,NA,incomplete,false,NA,true,8,20,NA,right,E11_Q2_ansR.png,E11_Q1_ansR.png,within,NA,NaN,NA,right,727,1,1,1114
3gCjylI7,NA,NA,3gCjylI7,2020-0188,2021-11-11,17:18:37,19:00:44,NA,incomplete,false,NA,true,8,21,NA,right,E11_Q7_ansR.png,E11_Q6_ansL.png,within,NA,NaN,NA,left,816.2999999523163,0,1,1476.2999999523163
3gCjylI7,NA,NA,3gCjylI7,2020-0188,2021-11-11,17:18:37,19:00:44,NA,incomplete,false,NA,true,8,22,NA,left,E8_Q3_ansL.png,E8_Q1_ansR.png,within,NA,NaN,NA,right,671.8999999761581,0,1,1000.5
3gCjylI7,NA,NA,3gCjylI7,2020-0188,2021-11-11,17:18:37,19:00:44,NA,incomplete,false,NA,true,8,23,NA,right,E11_Q8_ansR.png,E12_Q3_ansR.png,between,NA,NaN,NA,left,694.2000000476837,0,1,2544.600000023842
3gCjylI7,NA,NA,3gCjylI7,2020-0188,2021-11-11,17:18:37,19:00:44,NA,incomplete,false,NA,true,8,24,NA,right,E12_Q3_ansR.png,E12_Q6_ansR.png,within,NA,NaN,NA,right,865,1,1,1024.3999999761581
3gCjylI7,NA,NA,3gCjylI7,2020-0188,2021-11-11,17:18:37,19:00:44,NA,incomplete,false,NA,true,8,25,NA,right,E8_Q6_ansL.png,E8_Q9_ansL.png,within,NA,NaN,NA,right,621.5,1,1,944.1999999284744
3gCjylI7,NA,NA,3gCjylI7,2020-0188,2021-11-11,17:18:37,19:00:44,NA,incomplete,false,NA,true,8,26,NA,right,E12_Q8_ansL.png,E12_Q4_ansR.png,within,NA,NaN,NA,right,743.2999999523163,1,1,1000.1000000238419
3gCjylI7,NA,NA,3gCjylI7,2020-0188,2021-11-11,17:18:37,19:00:44,NA,incomplete,false,true,NA,9,0,E23_Q1_ansL.png,left,NA,NA,NA,left,884.300000071526,true,NA,NA,NA,NA,NA
3gCjylI7,NA,NA,3gCjylI7,2020-0188,2021-11-11,17:18:37,19:00:44,NA,incomplete,false,true,NA,9,1,E23_Q9_ansR.png,right,NA,NA,NA,left,698,false,NA,NA,NA,NA,NA
3gCjylI7,NA,NA,3gCjylI7,2020-0188,2021-11-11,17:18:37,19:00:44,NA,incomplete,false,true,NA,9,2,E23_Q2_ansL.png,left,NA,NA,NA,left,1054.80000007153,true,NA,NA,NA,NA,NA
3gCjylI7,NA,NA,3gCjylI7,2020-0188,2021-11-11,17:18:37,19:00:44,NA,incomplete,false,true,NA,9,3,E23_Q3_ansR.png,right,NA,NA,NA,right,1844.30000007153,true,NA,NA,NA,NA,NA
3gCjylI7,NA,NA,3gCjylI7,2020-0188,2021-11-11,17:18:37,19:00:44,NA,incomplete,false,true,NA,9,4,E23_Q4_ansR.png,right,NA,NA,NA,right,1401.79999995232,true,NA,NA,NA,NA,NA
3gCjylI7,NA,NA,3gCjylI7,2020-0188,2021-11-11,17:18:37,19:00:44,NA,incomplete,false,true,NA,9,5,E23_Q10_ansL.png,left,NA,NA,NA,left,852.5,true,NA,NA,NA,NA,NA
3gCjylI7,NA,NA,3gCjylI7,2020-0188,2021-11-11,17:18:37,19:00:44,NA,incomplete,false,true,NA,9,6,E23_Q8_ansL.png,left,NA,NA,NA,left,1018.89999997616,true,NA,NA,NA,NA,NA
3gCjylI7,NA,NA,3gCjylI7,2020-0188,2021-11-11,17:18:37,19:00:44,NA,incomplete,false,true,NA,9,7,E23_Q6_ansR.png,right,NA,NA,NA,right,1263.19999992847,true,NA,NA,NA,NA,NA
3gCjylI7,NA,NA,3gCjylI7,2020-0188,2021-11-11,17:18:37,19:00:44,NA,incomplete,false,true,NA,9,8,E23_Q7_ansL.png,left,NA,NA,NA,left,930.100000023842,true,NA,NA,NA,NA,NA
3gCjylI7,NA,NA,3gCjylI7,2020-0188,2021-11-11,17:18:37,19:00:44,NA,incomplete,false,true,NA,9,9,E23_Q5_ansR.png,right,NA,NA,NA,right,1588,true,NA,NA,NA,NA,NA
3gCjylI7,NA,NA,3gCjylI7,2020-0188,2021-11-11,17:18:37,19:00:44,NA,incomplete,false,true,NA,9,10,E3_Q9_ansL.png,left,NA,NA,NA,left,2145.89999997616,true,NA,NA,NA,NA,NA
3gCjylI7,NA,NA,3gCjylI7,2020-0188,2021-11-11,17:18:37,19:00:44,NA,incomplete,false,true,NA,9,11,E3_Q2_ansL.png,left,NA,NA,NA,left,1181.09999990463,true,NA,NA,NA,NA,NA
3gCjylI7,NA,NA,3gCjylI7,2020-0188,2021-11-11,17:18:37,19:00:44,NA,incomplete,false,true,NA,9,12,E3_Q4_ansL.png,left,NA,NA,NA,left,808.100000023842,true,NA,NA,NA,NA,NA
3gCjylI7,NA,NA,3gCjylI7,2020-0188,2021-11-11,17:18:37,19:00:44,NA,incomplete,false,true,NA,9,13,E3_Q10_ansR.png,right,NA,NA,NA,right,1050.5,true,NA,NA,NA,NA,NA
3gCjylI7,NA,NA,3gCjylI7,2020-0188,2021-11-11,17:18:37,19:00:44,NA,incomplete,false,true,NA,9,14,E3_Q1_ansR.png,right,NA,NA,NA,right,1117.30000007153,true,NA,NA,NA,NA,NA
3gCjylI7,NA,NA,3gCjylI7,2020-0188,2021-11-11,17:18:37,19:00:44,NA,incomplete,false,true,NA,9,15,E3_Q8_ansL.png,left,NA,NA,NA,left,853.600000023842,true,NA,NA,NA,NA,NA
3gCjylI7,NA,NA,3gCjylI7,2020-0188,2021-11-11,17:18:37,19:00:44,NA,incomplete,false,true,NA,9,16,E3_Q3_ansR.png,right,NA,NA,NA,right,1161.39999997616,true,NA,NA,NA,NA,NA
3gCjylI7,NA,NA,3gCjylI7,2020-0188,2021-11-11,17:18:37,19:00:44,NA,incomplete,false,true,NA,9,17,E3_Q6_ansR.png,right,NA,NA,NA,right,1088.39999997616,true,NA,NA,NA,NA,NA
3gCjylI7,NA,NA,3gCjylI7,2020-0188,2021-11-11,17:18:37,19:00:44,NA,incomplete,false,true,NA,9,18,E3_Q7_ansL.png,left,NA,NA,NA,left,1154.5,true,NA,NA,NA,NA,NA
3gCjylI7,NA,NA,3gCjylI7,2020-0188,2021-11-11,17:18:37,19:00:44,NA,incomplete,false,true,NA,9,19,E3_Q5_ansR.png,right,NA,NA,NA,right,997.700000047684,true,NA,NA,NA,NA,NA
3gCjylI7,NA,NA,3gCjylI7,2020-0188,2021-11-11,17:18:37,19:00:44,NA,incomplete,false,true,NA,9,20,E9_Q4_ansL.png,left,NA,NA,NA,left,1946.39999997616,true,NA,NA,NA,NA,NA
3gCjylI7,NA,NA,3gCjylI7,2020-0188,2021-11-11,17:18:37,19:00:44,NA,incomplete,false,true,NA,9,21,E9_Q1_ansR.png,right,NA,NA,NA,right,1481.60000002384,true,NA,NA,NA,NA,NA
3gCjylI7,NA,NA,3gCjylI7,2020-0188,2021-11-11,17:18:37,19:00:44,NA,incomplete,false,true,NA,9,22,E9_Q3_ansL.png,left,NA,NA,NA,left,1466.59999990463,true,NA,NA,NA,NA,NA
3gCjylI7,NA,NA,3gCjylI7,2020-0188,2021-11-11,17:18:37,19:00:44,NA,incomplete,false,true,NA,9,23,E9_Q9_ansL.png,left,NA,NA,NA,left,1730.29999995232,true,NA,NA,NA,NA,NA
3gCjylI7,NA,NA,3gCjylI7,2020-0188,2021-11-11,17:18:37,19:00:44,NA,incomplete,false,true,NA,9,24,E9_Q6_ansL.png,left,NA,NA,NA,left,1128,true,NA,NA,NA,NA,NA
3gCjylI7,NA,NA,3gCjylI7,2020-0188,2021-11-11,17:18:37,19:00:44,NA,incomplete,false,true,NA,9,25,E9_Q8_ansR.png,right,NA,NA,NA,right,1422.59999990463,true,NA,NA,NA,NA,NA
3gCjylI7,NA,NA,3gCjylI7,2020-0188,2021-11-11,17:18:37,19:00:44,NA,incomplete,false,true,NA,9,26,E9_Q7_ansR.png,right,NA,NA,NA,right,1302.5,true,NA,NA,NA,NA,NA
3gCjylI7,NA,NA,3gCjylI7,2020-0188,2021-11-11,17:18:37,19:00:44,NA,incomplete,false,true,NA,9,27,E9_Q10_ansR.png,right,NA,NA,NA,right,1413.60000002384,true,NA,NA,NA,NA,NA
3gCjylI7,NA,NA,3gCjylI7,2020-0188,2021-11-11,17:18:37,19:00:44,NA,incomplete,false,true,NA,9,28,E9_Q2_ansR.png,right,NA,NA,NA,right,1775.90000009537,true,NA,NA,NA,NA,NA
3gCjylI7,NA,NA,3gCjylI7,2020-0188,2021-11-11,17:18:37,19:00:44,NA,incomplete,false,true,NA,9,29,E9_Q5_ansL.png,left,NA,NA,NA,left,1239.60000002384,true,NA,NA,NA,NA,NA
3gCjylI7,NA,NA,3gCjylI7,2020-0188,2021-11-11,17:18:37,19:00:44,NA,incomplete,false,NA,true,9,0,NA,right,E23_Q3_ansR.png,E23_Q1_ansL.png,within,NA,NaN,NA,right,1482,1,0,15706.700000047684
3gCjylI7,NA,NA,3gCjylI7,2020-0188,2021-11-11,17:18:37,19:00:44,NA,incomplete,false,NA,true,9,1,NA,left,E3_Q3_ansR.png,E3_Q5_ansR.png,within,NA,NaN,NA,right,1379.2000000476837,0,1,4816.600000023842
3gCjylI7,NA,NA,3gCjylI7,2020-0188,2021-11-11,17:18:37,19:00:44,NA,incomplete,false,NA,true,9,2,NA,left,E3_Q10_ansR.png,E3_Q3_ansR.png,within,NA,NaN,NA,right,719.6999999284744,0,1,685
3gCjylI7,NA,NA,3gCjylI7,2020-0188,2021-11-11,17:18:37,19:00:44,NA,incomplete,false,NA,true,9,3,NA,right,E3_Q8_ansL.png,E3_Q4_ansL.png,within,NA,NaN,NA,left,468.59999990463257,0,1,1155
3gCjylI7,NA,NA,3gCjylI7,2020-0188,2021-11-11,17:18:37,19:00:44,NA,incomplete,false,NA,true,9,4,NA,right,E9_Q3_ansL.png,E3_Q5_ansR.png,between,NA,NaN,NA,right,1332.8999999761581,1,1,896.7999999523163
3gCjylI7,NA,NA,3gCjylI7,2020-0188,2021-11-11,17:18:37,19:00:44,NA,incomplete,false,NA,true,9,5,NA,right,E9_Q5_ansL.png,E9_Q7_ansR.png,within,NA,NaN,NA,right,1559.2000000476837,1,1,839.1000000238419
3gCjylI7,NA,NA,3gCjylI7,2020-0188,2021-11-11,17:18:37,19:00:44,NA,incomplete,false,NA,true,9,6,NA,left,E3_Q7_ansL.png,E9_Q1_ansR.png,between,NA,NaN,NA,left,8305.100000023842,1,2,1307.2999999523163
3gCjylI7,NA,NA,3gCjylI7,2020-0188,2021-11-11,17:18:37,19:00:44,NA,incomplete,false,NA,true,9,7,NA,right,E9_Q7_ansR.png,E9_Q9_ansL.png,within,NA,NaN,NA,right,1042.0999999046326,1,1,888.1000000238419
3gCjylI7,NA,NA,3gCjylI7,2020-0188,2021-11-11,17:18:37,19:00:44,NA,incomplete,false,NA,true,9,8,NA,left,E3_Q9_ansL.png,E3_Q10_ansR.png,within,NA,NaN,NA,left,604.8000000715256,1,1,904.0999999046326
3gCjylI7,NA,NA,3gCjylI7,2020-0188,2021-11-11,17:18:37,19:00:44,NA,incomplete,false,NA,true,9,9,NA,right,E23_Q5_ansR.png,E23_Q8_ansL.png,within,NA,NaN,NA,right,606.7999999523163,1,1,749.2999999523163
3gCjylI7,NA,NA,3gCjylI7,2020-0188,2021-11-11,17:18:37,19:00:44,NA,incomplete,false,NA,true,9,10,NA,left,E23_Q9_ansR.png,E23_Q4_ansR.png,within,NA,NaN,NA,right,961.1000000238419,0,1,944.2000000476837
3gCjylI7,NA,NA,3gCjylI7,2020-0188,2021-11-11,17:18:37,19:00:44,NA,incomplete,false,NA,true,9,11,NA,left,E9_Q4_ansL.png,E9_Q9_ansL.png,within,NA,NaN,NA,left,840.0999999046326,1,1,1066.7999999523163
3gCjylI7,NA,NA,3gCjylI7,2020-0188,2021-11-11,17:18:37,19:00:44,NA,incomplete,false,NA,true,9,12,NA,right,E9_Q2_ansR.png,E9_Q8_ansR.png,within,NA,NaN,NA,left,904.2999999523163,0,1,2342.2000000476837
