workerId,hitId,assignmentId,subject,studyid,exp_date,exp_start,exp_end,time_start,time_end,practice,encoding,memory,block,trial,stim,answer,left_image,right_image,condition,response,response_time,response_acc,order_response,order_response_time,order_acc,distance_response,distance_response_time
4gPgqbeo,NA,NA,4gPgqbeo,2020-0188,2021-09-23,00:58:05,01:55:35,NA,incomplete,true,true,NA,0,0,E19_Q6_ansR.png,right,NA,NA,NA,right,2033.10000000149,true,NA,NA,NA,NA,NA
4gPgqbeo,NA,NA,4gPgqbeo,2020-0188,2021-09-23,00:58:05,01:55:35,NA,incomplete,true,true,NA,0,1,E19_Q1_ansL.png,left,NA,NA,NA,left,2451.10000000149,true,NA,NA,NA,NA,NA
4gPgqbeo,NA,NA,4gPgqbeo,2020-0188,2021-09-23,00:58:05,01:55:35,NA,incomplete,true,true,NA,0,2,E19_Q2_ansL.png,left,NA,NA,NA,left,764.10000000149,true,NA,NA,NA,NA,NA
4gPgqbeo,NA,NA,4gPgqbeo,2020-0188,2021-09-23,00:58:05,01:55:35,NA,incomplete,true,true,NA,0,3,E19_Q5_ansR.png,right,NA,NA,NA,right,951.10000000149,true,NA,NA,NA,NA,NA
4gPgqbeo,NA,NA,4gPgqbeo,2020-0188,2021-09-23,00:58:05,01:55:35,NA,incomplete,true,true,NA,0,4,E19_Q4_ansR.png,right,NA,NA,NA,right,1485.5,true,NA,NA,NA,NA,NA
4gPgqbeo,NA,NA,4gPgqbeo,2020-0188,2021-09-23,00:58:05,01:55:35,NA,incomplete,true,true,NA,0,5,E19_Q7_ansL.png,left,NA,NA,NA,left,1327.89999999851,true,NA,NA,NA,NA,NA
4gPgqbeo,NA,NA,4gPgqbeo,2020-0188,2021-09-23,00:58:05,01:55:35,NA,incomplete,true,true,NA,0,6,E19_Q10_ansL.png,left,NA,NA,NA,left,1498.60000000149,true,NA,NA,NA,NA,NA
4gPgqbeo,NA,NA,4gPgqbeo,2020-0188,2021-09-23,00:58:05,01:55:35,NA,incomplete,true,true,NA,0,7,E19_Q9_ansR.png,right,NA,NA,NA,right,1102.80000000447,true,NA,NA,NA,NA,NA
4gPgqbeo,NA,NA,4gPgqbeo,2020-0188,2021-09-23,00:58:05,01:55:35,NA,incomplete,true,true,NA,0,8,E19_Q3_ansR.png,right,NA,NA,NA,right,1288.60000000149,true,NA,NA,NA,NA,NA
4gPgqbeo,NA,NA,4gPgqbeo,2020-0188,2021-09-23,00:58:05,01:55:35,NA,incomplete,true,true,NA,0,9,E19_Q8_ansL.png,left,NA,NA,NA,left,976.40000000596,true,NA,NA,NA,NA,NA
4gPgqbeo,NA,NA,4gPgqbeo,2020-0188,2021-09-23,00:58:05,01:55:35,NA,incomplete,true,true,NA,0,10,E13_Q6_ansR.png,right,NA,NA,NA,right,1449,true,NA,NA,NA,NA,NA
4gPgqbeo,NA,NA,4gPgqbeo,2020-0188,2021-09-23,00:58:05,01:55:35,NA,incomplete,true,true,NA,0,11,E13_Q3_ansR.png,right,NA,NA,NA,right,1149.79999999702,true,NA,NA,NA,NA,NA
4gPgqbeo,NA,NA,4gPgqbeo,2020-0188,2021-09-23,00:58:05,01:55:35,NA,incomplete,true,true,NA,0,12,E13_Q4_ansR.png,right,NA,NA,NA,right,1468.89999999851,true,NA,NA,NA,NA,NA
4gPgqbeo,NA,NA,4gPgqbeo,2020-0188,2021-09-23,00:58:05,01:55:35,NA,incomplete,true,true,NA,0,13,E13_Q5_ansR.png,right,NA,NA,NA,right,1451.10000000149,true,NA,NA,NA,NA,NA
4gPgqbeo,NA,NA,4gPgqbeo,2020-0188,2021-09-23,00:58:05,01:55:35,NA,incomplete,true,true,NA,0,14,E13_Q9_ansR.png,right,NA,NA,NA,right,1141.89999999851,true,NA,NA,NA,NA,NA
4gPgqbeo,NA,NA,4gPgqbeo,2020-0188,2021-09-23,00:58:05,01:55:35,NA,incomplete,true,true,NA,0,15,E13_Q2_ansL.png,left,NA,NA,NA,left,1058.10000000149,true,NA,NA,NA,NA,NA
4gPgqbeo,NA,NA,4gPgqbeo,2020-0188,2021-09-23,00:58:05,01:55:35,NA,incomplete,true,true,NA,0,16,E13_Q7_ansL.png,left,NA,NA,NA,left,980,true,NA,NA,NA,NA,NA
4gPgqbeo,NA,NA,4gPgqbeo,2020-0188,2021-09-23,00:58:05,01:55:35,NA,incomplete,true,true,NA,0,17,E13_Q10_ansL.png,left,NA,NA,NA,left,1291.5,true,NA,NA,NA,NA,NA
4gPgqbeo,NA,NA,4gPgqbeo,2020-0188,2021-09-23,00:58:05,01:55:35,NA,incomplete,true,true,NA,0,18,E13_Q1_ansL.png,left,NA,NA,NA,left,1138.10000000149,true,NA,NA,NA,NA,NA
4gPgqbeo,NA,NA,4gPgqbeo,2020-0188,2021-09-23,00:58:05,01:55:35,NA,incomplete,true,true,NA,0,19,E13_Q8_ansL.png,left,NA,NA,NA,left,1328.89999999851,true,NA,NA,NA,NA,NA
4gPgqbeo,NA,NA,4gPgqbeo,2020-0188,2021-09-23,00:58:05,01:55:35,NA,incomplete,true,true,NA,0,20,E14_Q7_ansL.png,left,NA,NA,NA,left,2371,true,NA,NA,NA,NA,NA
4gPgqbeo,NA,NA,4gPgqbeo,2020-0188,2021-09-23,00:58:05,01:55:35,NA,incomplete,true,true,NA,0,21,E14_Q5_ansR.png,right,NA,NA,NA,right,2199.39999999851,true,NA,NA,NA,NA,NA
4gPgqbeo,NA,NA,4gPgqbeo,2020-0188,2021-09-23,00:58:05,01:55:35,NA,incomplete,true,true,NA,0,22,E14_Q3_ansR.png,right,NA,NA,NA,right,1336.89999999851,true,NA,NA,NA,NA,NA
4gPgqbeo,NA,NA,4gPgqbeo,2020-0188,2021-09-23,00:58:05,01:55:35,NA,incomplete,true,true,NA,0,23,E14_Q2_ansL.png,left,NA,NA,NA,left,1908.90000000596,true,NA,NA,NA,NA,NA
4gPgqbeo,NA,NA,4gPgqbeo,2020-0188,2021-09-23,00:58:05,01:55:35,NA,incomplete,true,true,NA,0,24,E14_Q10_ansL.png,left,NA,NA,NA,left,1100.5,true,NA,NA,NA,NA,NA
4gPgqbeo,NA,NA,4gPgqbeo,2020-0188,2021-09-23,00:58:05,01:55:35,NA,incomplete,true,true,NA,0,25,E14_Q4_ansR.png,right,NA,NA,NA,right,1127.09999999404,true,NA,NA,NA,NA,NA
4gPgqbeo,NA,NA,4gPgqbeo,2020-0188,2021-09-23,00:58:05,01:55:35,NA,incomplete,true,true,NA,0,26,E14_Q1_ansL.png,left,NA,NA,NA,left,1190.10000000149,true,NA,NA,NA,NA,NA
4gPgqbeo,NA,NA,4gPgqbeo,2020-0188,2021-09-23,00:58:05,01:55:35,NA,incomplete,true,true,NA,0,27,E14_Q6_ansR.png,right,NA,NA,NA,right,1131.19999999553,true,NA,NA,NA,NA,NA
4gPgqbeo,NA,NA,4gPgqbeo,2020-0188,2021-09-23,00:58:05,01:55:35,NA,incomplete,true,true,NA,0,28,E14_Q8_ansL.png,left,NA,NA,NA,left,942.70000000298,true,NA,NA,NA,NA,NA
4gPgqbeo,NA,NA,4gPgqbeo,2020-0188,2021-09-23,00:58:05,01:55:35,NA,incomplete,true,true,NA,0,29,E14_Q9_ansR.png,right,NA,NA,NA,right,1032.70000000298,true,NA,NA,NA,NA,NA
4gPgqbeo,NA,NA,4gPgqbeo,2020-0188,2021-09-23,00:58:05,01:55:35,NA,incomplete,true,NA,true,0,0,NA,left,E19_Q7_ansL.png,E19_Q3_ansR.png,within,NA,NaN,NA,left,2447.89999999851,1,1,1909
4gPgqbeo,NA,NA,4gPgqbeo,2020-0188,2021-09-23,00:58:05,01:55:35,NA,incomplete,true,NA,true,0,1,NA,left,E13_Q9_ansR.png,E13_Q10_ansL.png,within,NA,NaN,NA,left,4641.69999999553,1,1,1859.1000000014901
4gPgqbeo,NA,NA,4gPgqbeo,2020-0188,2021-09-23,00:58:05,01:55:35,NA,incomplete,true,NA,true,0,2,NA,left,E19_Q9_ansR.png,E13_Q6_ansR.png,between,NA,NaN,NA,left,2663.9000000059605,1,2,2174.8000000044703
4gPgqbeo,NA,NA,4gPgqbeo,2020-0188,2021-09-23,00:58:05,01:55:35,NA,incomplete,true,NA,true,0,3,NA,right,E14_Q7_ansL.png,E13_Q10_ansL.png,between,NA,NaN,NA,right,1429.5999999940395,1,2,1768.1999999955297
4gPgqbeo,NA,NA,4gPgqbeo,2020-0188,2021-09-23,00:58:05,01:55:35,NA,incomplete,true,NA,true,0,4,NA,right,E14_Q9_ansR.png,E14_Q1_ansL.png,within,NA,NaN,NA,right,3359.5,1,1,2261.2000000029802
4gPgqbeo,NA,NA,4gPgqbeo,2020-0188,2021-09-23,00:58:05,01:55:35,NA,incomplete,true,NA,true,0,5,NA,right,E19_Q8_ansL.png,E19_Q10_ansL.png,within,NA,NaN,NA,left,1653.5,0,1,1301.3000000044703
4gPgqbeo,NA,NA,4gPgqbeo,2020-0188,2021-09-23,00:58:05,01:55:35,NA,incomplete,true,NA,true,0,6,NA,right,E19_Q9_ansR.png,E19_Q4_ansR.png,within,NA,NaN,NA,right,1545.0999999940395,1,1,1008.2999999970198
4gPgqbeo,NA,NA,4gPgqbeo,2020-0188,2021-09-23,00:58:05,01:55:35,NA,incomplete,true,NA,true,0,7,NA,left,E14_Q10_ansL.png,E14_Q6_ansR.png,within,NA,NaN,NA,left,2946.5,1,1,2967
4gPgqbeo,NA,NA,4gPgqbeo,2020-0188,2021-09-23,00:58:05,01:55:35,NA,incomplete,true,NA,true,0,8,NA,right,E13_Q4_ansR.png,E19_Q8_ansL.png,between,NA,NaN,NA,right,1664.4000000059605,1,2,1930.6000000014901
4gPgqbeo,NA,NA,4gPgqbeo,2020-0188,2021-09-23,00:58:05,01:55:35,NA,incomplete,true,NA,true,0,9,NA,left,E13_Q8_ansL.png,E14_Q3_ansR.png,between,NA,NaN,NA,left,3800,1,3,3017.5
4gPgqbeo,NA,NA,4gPgqbeo,2020-0188,2021-09-23,00:58:05,01:55:35,NA,incomplete,true,NA,true,0,10,NA,left,E19_Q1_ansL.png,E19_Q4_ansR.png,within,NA,NaN,NA,left,7172,1,1,1379.9000000059605
4gPgqbeo,NA,NA,4gPgqbeo,2020-0188,2021-09-23,00:58:05,01:55:35,NA,incomplete,true,NA,true,0,11,NA,right,E14_Q8_ansL.png,E14_Q4_ansR.png,within,NA,NaN,NA,right,3713.2000000029802,1,1,1586.3999999985099
4gPgqbeo,NA,NA,4gPgqbeo,2020-0188,2021-09-23,00:58:05,01:55:35,NA,incomplete,true,NA,true,0,12,NA,left,E13_Q2_ansL.png,E13_Q1_ansL.png,within,NA,NaN,NA,left,1174.8999999985099,1,1,1793.1000000014901
4gPgqbeo,NA,NA,4gPgqbeo,2020-0188,2021-09-23,00:58:05,01:55:35,NA,incomplete,true,NA,true,0,13,NA,left,E13_Q5_ansR.png,E13_Q7_ansL.png,within,NA,NaN,NA,left,2096,1,1,960.2999999970198
4gPgqbeo,NA,NA,4gPgqbeo,2020-0188,2021-09-23,00:58:05,01:55:35,NA,incomplete,true,NA,true,0,14,NA,left,E13_Q4_ansR.png,E13_Q2_ansL.png,within,NA,NaN,NA,right,1498,0,1,929.5999999940395
4gPgqbeo,NA,NA,4gPgqbeo,2020-0188,2021-09-23,00:58:05,01:55:35,NA,incomplete,true,NA,true,0,15,NA,right,E14_Q4_ansR.png,E14_Q3_ansR.png,within,NA,NaN,NA,right,1479.1000000014901,1,1,900.2999999970198
4gPgqbeo,NA,NA,4gPgqbeo,2020-0188,2021-09-23,00:58:05,01:55:35,NA,incomplete,true,NA,true,0,16,NA,right,E14_Q2_ansL.png,E14_Q7_ansL.png,within,NA,NaN,NA,right,3213.8000000044703,1,1,1489.5
4gPgqbeo,NA,NA,4gPgqbeo,2020-0188,2021-09-23,00:58:05,01:55:35,NA,incomplete,true,NA,true,0,17,NA,left,E19_Q3_ansR.png,E13_Q3_ansR.png,between,NA,NaN,NA,left,2078.3000000044703,1,2,979.6000000014901
4gPgqbeo,NA,NA,4gPgqbeo,2020-0188,2021-09-23,00:58:05,01:55:35,NA,incomplete,true,NA,true,0,18,NA,right,E14_Q10_ansL.png,E14_Q5_ansR.png,within,NA,NaN,NA,right,3184.3000000044703,1,1,1018
4gPgqbeo,NA,NA,4gPgqbeo,2020-0188,2021-09-23,00:58:05,01:55:35,NA,incomplete,true,NA,true,0,19,NA,left,E19_Q2_ansL.png,E19_Q7_ansL.png,within,NA,NaN,NA,right,2066.9000000059605,0,1,2381
4gPgqbeo,NA,NA,4gPgqbeo,2020-0188,2021-09-23,00:58:05,01:55:35,NA,incomplete,true,NA,true,0,20,NA,right,E13_Q5_ansR.png,E13_Q6_ansR.png,within,NA,NaN,NA,left,1410.7999999970198,0,1,1048.2000000029802
4gPgqbeo,NA,NA,4gPgqbeo,2020-0188,2021-09-23,00:58:05,01:55:35,NA,incomplete,true,NA,true,0,21,NA,left,E19_Q5_ansR.png,E19_Q10_ansL.png,within,NA,NaN,NA,left,2586.89999999851,1,1,2175.5999999940395
4gPgqbeo,NA,NA,4gPgqbeo,2020-0188,2021-09-23,00:58:05,01:55:35,NA,incomplete,true,NA,true,0,22,NA,right,E14_Q5_ansR.png,E13_Q1_ansL.png,between,NA,NaN,NA,right,1541.5,1,2,1312.8000000044703
4gPgqbeo,NA,NA,4gPgqbeo,2020-0188,2021-09-23,00:58:05,01:55:35,NA,incomplete,true,NA,true,0,23,NA,right,E13_Q9_ansR.png,E13_Q3_ansR.png,within,NA,NaN,NA,left,2136.8000000044703,0,1,891.5
4gPgqbeo,NA,NA,4gPgqbeo,2020-0188,2021-09-23,00:58:05,01:55:35,NA,incomplete,true,NA,true,0,24,NA,left,E19_Q6_ansR.png,E19_Q5_ansR.png,within,NA,NaN,NA,left,1175.3999999985099,1,1,1380.6000000014901
4gPgqbeo,NA,NA,4gPgqbeo,2020-0188,2021-09-23,00:58:05,01:55:35,NA,incomplete,true,NA,true,0,25,NA,left,E14_Q2_ansL.png,E14_Q1_ansL.png,within,NA,NaN,NA,right,3772.5,0,1,1235.3999999985099
4gPgqbeo,NA,NA,4gPgqbeo,2020-0188,2021-09-23,00:58:05,01:55:35,NA,incomplete,true,NA,true,0,26,NA,left,E13_Q7_ansL.png,E13_Q8_ansL.png,within,NA,NaN,NA,left,1498.6999999955297,1,1,1479.3999999985099
4gPgqbeo,NA,NA,4gPgqbeo,2020-0188,2021-09-23,00:58:05,01:55:35,NA,incomplete,false,true,NA,1,0,E1_Q2_ansL.png,left,NA,NA,NA,none,0,false,NA,NA,NA,NA,NA
4gPgqbeo,NA,NA,4gPgqbeo,2020-0188,2021-09-23,00:58:05,01:55:35,NA,incomplete,false,true,NA,1,1,E1_Q7_ansL.png,left,NA,NA,NA,left,1060.10000000149,true,NA,NA,NA,NA,NA
4gPgqbeo,NA,NA,4gPgqbeo,2020-0188,2021-09-23,00:58:05,01:55:35,NA,incomplete,false,true,NA,1,2,E1_Q3_ansR.png,right,NA,NA,NA,right,1571.09999999404,true,NA,NA,NA,NA,NA
4gPgqbeo,NA,NA,4gPgqbeo,2020-0188,2021-09-23,00:58:05,01:55:35,NA,incomplete,false,true,NA,1,3,E1_Q8_ansR.png,right,NA,NA,NA,left,1441.29999999702,false,NA,NA,NA,NA,NA
4gPgqbeo,NA,NA,4gPgqbeo,2020-0188,2021-09-23,00:58:05,01:55:35,NA,incomplete,false,true,NA,1,4,E1_Q1_ansL.png,left,NA,NA,NA,left,1101,true,NA,NA,NA,NA,NA
4gPgqbeo,NA,NA,4gPgqbeo,2020-0188,2021-09-23,00:58:05,01:55:35,NA,incomplete,false,true,NA,1,5,E1_Q10_ansR.png,right,NA,NA,NA,right,914.70000000298,true,NA,NA,NA,NA,NA
4gPgqbeo,NA,NA,4gPgqbeo,2020-0188,2021-09-23,00:58:05,01:55:35,NA,incomplete,false,true,NA,1,6,E1_Q6_ansR.png,right,NA,NA,NA,right,1074.90000000596,true,NA,NA,NA,NA,NA
4gPgqbeo,NA,NA,4gPgqbeo,2020-0188,2021-09-23,00:58:05,01:55:35,NA,incomplete,false,true,NA,1,7,E1_Q4_ansL.png,left,NA,NA,NA,left,1005.29999999702,true,NA,NA,NA,NA,NA
4gPgqbeo,NA,NA,4gPgqbeo,2020-0188,2021-09-23,00:58:05,01:55:35,NA,incomplete,false,true,NA,1,8,E1_Q5_ansR.png,right,NA,NA,NA,right,886.20000000298,true,NA,NA,NA,NA,NA
4gPgqbeo,NA,NA,4gPgqbeo,2020-0188,2021-09-23,00:58:05,01:55:35,NA,incomplete,false,true,NA,1,9,E1_Q9_ansL.png,left,NA,NA,NA,left,1028.10000000149,true,NA,NA,NA,NA,NA
4gPgqbeo,NA,NA,4gPgqbeo,2020-0188,2021-09-23,00:58:05,01:55:35,NA,incomplete,false,true,NA,1,10,E4_Q4_ansL.png,left,NA,NA,NA,left,1623.5,true,NA,NA,NA,NA,NA
4gPgqbeo,NA,NA,4gPgqbeo,2020-0188,2021-09-23,00:58:05,01:55:35,NA,incomplete,false,true,NA,1,11,E4_Q3_ansL.png,left,NA,NA,NA,left,2185.89999999851,true,NA,NA,NA,NA,NA
4gPgqbeo,NA,NA,4gPgqbeo,2020-0188,2021-09-23,00:58:05,01:55:35,NA,incomplete,false,true,NA,1,12,E4_Q7_ansR.png,right,NA,NA,NA,right,1199.60000000149,true,NA,NA,NA,NA,NA
4gPgqbeo,NA,NA,4gPgqbeo,2020-0188,2021-09-23,00:58:05,01:55:35,NA,incomplete,false,true,NA,1,13,E4_Q2_ansL.png,left,NA,NA,NA,left,1117.79999999702,true,NA,NA,NA,NA,NA
4gPgqbeo,NA,NA,4gPgqbeo,2020-0188,2021-09-23,00:58:05,01:55:35,NA,incomplete,false,true,NA,1,14,E4_Q1_ansL.png,left,NA,NA,NA,left,834.19999999553,true,NA,NA,NA,NA,NA
4gPgqbeo,NA,NA,4gPgqbeo,2020-0188,2021-09-23,00:58:05,01:55:35,NA,incomplete,false,true,NA,1,15,E4_Q6_ansR.png,right,NA,NA,NA,right,1241.20000000298,true,NA,NA,NA,NA,NA
4gPgqbeo,NA,NA,4gPgqbeo,2020-0188,2021-09-23,00:58:05,01:55:35,NA,incomplete,false,true,NA,1,16,E4_Q8_ansR.png,right,NA,NA,NA,right,1121.10000000149,true,NA,NA,NA,NA,NA
4gPgqbeo,NA,NA,4gPgqbeo,2020-0188,2021-09-23,00:58:05,01:55:35,NA,incomplete,false,true,NA,1,17,E4_Q10_ansR.png,right,NA,NA,NA,right,1130.5,true,NA,NA,NA,NA,NA
4gPgqbeo,NA,NA,4gPgqbeo,2020-0188,2021-09-23,00:58:05,01:55:35,NA,incomplete,false,true,NA,1,18,E4_Q5_ansR.png,right,NA,NA,NA,right,1143.60000000149,true,NA,NA,NA,NA,NA
4gPgqbeo,NA,NA,4gPgqbeo,2020-0188,2021-09-23,00:58:05,01:55:35,NA,incomplete,false,true,NA,1,19,E4_Q9_ansL.png,left,NA,NA,NA,left,1108,true,NA,NA,NA,NA,NA
4gPgqbeo,NA,NA,4gPgqbeo,2020-0188,2021-09-23,00:58:05,01:55:35,NA,incomplete,false,true,NA,1,20,E10_Q1_ansL.png,left,NA,NA,NA,none,0,false,NA,NA,NA,NA,NA
4gPgqbeo,NA,NA,4gPgqbeo,2020-0188,2021-09-23,00:58:05,01:55:35,NA,incomplete,false,true,NA,1,21,E10_Q9_ansL.png,left,NA,NA,NA,left,2676.5,true,NA,NA,NA,NA,NA
4gPgqbeo,NA,NA,4gPgqbeo,2020-0188,2021-09-23,00:58:05,01:55:35,NA,incomplete,false,true,NA,1,22,E10_Q4_ansL.png,left,NA,NA,NA,right,2997,false,NA,NA,NA,NA,NA
4gPgqbeo,NA,NA,4gPgqbeo,2020-0188,2021-09-23,00:58:05,01:55:35,NA,incomplete,false,true,NA,1,23,E10_Q6_ansR.png,right,NA,NA,NA,right,1944.60000000149,true,NA,NA,NA,NA,NA
4gPgqbeo,NA,NA,4gPgqbeo,2020-0188,2021-09-23,00:58:05,01:55:35,NA,incomplete,false,true,NA,1,24,E10_Q3_ansL.png,left,NA,NA,NA,left,3119,true,NA,NA,NA,NA,NA
4gPgqbeo,NA,NA,4gPgqbeo,2020-0188,2021-09-23,00:58:05,01:55:35,NA,incomplete,false,true,NA,1,25,E10_Q2_ansL.png,left,NA,NA,NA,left,2832.29999999702,true,NA,NA,NA,NA,NA
4gPgqbeo,NA,NA,4gPgqbeo,2020-0188,2021-09-23,00:58:05,01:55:35,NA,incomplete,false,true,NA,1,26,E10_Q7_ansR.png,right,NA,NA,NA,right,2100.79999999702,true,NA,NA,NA,NA,NA
4gPgqbeo,NA,NA,4gPgqbeo,2020-0188,2021-09-23,00:58:05,01:55:35,NA,incomplete,false,true,NA,1,27,E10_Q5_ansR.png,right,NA,NA,NA,right,2589.70000000298,true,NA,NA,NA,NA,NA
4gPgqbeo,NA,NA,4gPgqbeo,2020-0188,2021-09-23,00:58:05,01:55:35,NA,incomplete,false,true,NA,1,28,E10_Q8_ansR.png,right,NA,NA,NA,right,3142.40000000596,true,NA,NA,NA,NA,NA
4gPgqbeo,NA,NA,4gPgqbeo,2020-0188,2021-09-23,00:58:05,01:55:35,NA,incomplete,false,true,NA,1,29,E10_Q10_ansR.png,right,NA,NA,NA,right,2213.70000000298,true,NA,NA,NA,NA,NA
4gPgqbeo,NA,NA,4gPgqbeo,2020-0188,2021-09-23,00:58:05,01:55:35,NA,incomplete,false,NA,true,1,0,NA,left,E4_Q3_ansL.png,E4_Q1_ansL.png,within,NA,NaN,NA,left,3095.89999999851,1,1,2037.1000000014901
4gPgqbeo,NA,NA,4gPgqbeo,2020-0188,2021-09-23,00:58:05,01:55:35,NA,incomplete,false,NA,true,1,1,NA,right,E4_Q2_ansL.png,E4_Q4_ansL.png,within,NA,NaN,NA,right,3164.5,1,1,1499.2000000029802
4gPgqbeo,NA,NA,4gPgqbeo,2020-0188,2021-09-23,00:58:05,01:55:35,NA,incomplete,false,NA,true,1,2,NA,right,E10_Q10_ansR.png,E10_Q7_ansR.png,within,NA,NaN,NA,left,2939.89999999851,0,1,2840.2999999970198
4gPgqbeo,NA,NA,4gPgqbeo,2020-0188,2021-09-23,00:58:05,01:55:35,NA,incomplete,false,NA,true,1,3,NA,right,E10_Q7_ansR.png,E10_Q6_ansR.png,within,NA,NaN,NA,right,1234,1,1,1468.2000000029802
4gPgqbeo,NA,NA,4gPgqbeo,2020-0188,2021-09-23,00:58:05,01:55:35,NA,incomplete,false,NA,true,1,4,NA,right,E1_Q6_ansR.png,E1_Q8_ansR.png,within,NA,NaN,NA,right,2656,1,1,1803.8999999985099
4gPgqbeo,NA,NA,4gPgqbeo,2020-0188,2021-09-23,00:58:05,01:55:35,NA,incomplete,false,NA,true,1,5,NA,right,E1_Q4_ansL.png,E1_Q1_ansL.png,within,NA,NaN,NA,right,2931.10000000149,1,1,1156.6999999955297
4gPgqbeo,NA,NA,4gPgqbeo,2020-0188,2021-09-23,00:58:05,01:55:35,NA,incomplete,false,NA,true,1,6,NA,right,E4_Q9_ansL.png,E4_Q8_ansR.png,within,NA,NaN,NA,left,3707.10000000149,0,1,3146.7999999970198
4gPgqbeo,NA,NA,4gPgqbeo,2020-0188,2021-09-23,00:58:05,01:55:35,NA,incomplete,false,NA,true,1,7,NA,right,E4_Q4_ansL.png,E1_Q4_ansL.png,between,NA,NaN,NA,left,1882.2000000029802,0,2,814.2000000029802
4gPgqbeo,NA,NA,4gPgqbeo,2020-0188,2021-09-23,00:58:05,01:55:35,NA,incomplete,false,NA,true,1,8,NA,left,E4_Q9_ansL.png,E10_Q4_ansL.png,between,NA,NaN,NA,left,1802.6000000014901,1,2,2393.10000000149
4gPgqbeo,NA,NA,4gPgqbeo,2020-0188,2021-09-23,00:58:05,01:55:35,NA,incomplete,false,NA,true,1,9,NA,left,E1_Q9_ansL.png,E4_Q7_ansR.png,between,NA,NaN,NA,left,3874.10000000149,1,2,1008.4000000059605
4gPgqbeo,NA,NA,4gPgqbeo,2020-0188,2021-09-23,00:58:05,01:55:35,NA,incomplete,false,NA,true,1,10,NA,right,E1_Q5_ansR.png,E1_Q10_ansR.png,within,NA,NaN,NA,right,2855.0999999940395,1,1,2099.2000000029802
4gPgqbeo,NA,NA,4gPgqbeo,2020-0188,2021-09-23,00:58:05,01:55:35,NA,incomplete,false,NA,true,1,11,NA,right,E4_Q10_ansR.png,E4_Q1_ansL.png,within,NA,NaN,NA,left,3060.3000000044703,0,1,1255.2000000029802
4gPgqbeo,NA,NA,4gPgqbeo,2020-0188,2021-09-23,00:58:05,01:55:35,NA,incomplete,false,NA,true,1,12,NA,left,E4_Q5_ansR.png,E10_Q9_ansL.png,between,NA,NaN,NA,left,1059.3999999985099,1,2,2403.7000000029802
4gPgqbeo,NA,NA,4gPgqbeo,2020-0188,2021-09-23,00:58:05,01:55:35,NA,incomplete,false,NA,true,1,13,NA,right,E10_Q2_ansL.png,E10_Q4_ansL.png,within,NA,NaN,NA,right,2372.7999999970198,1,1,1304.3999999985099
4gPgqbeo,NA,NA,4gPgqbeo,2020-0188,2021-09-23,00:58:05,01:55:35,NA,incomplete,false,NA,true,1,14,NA,left,E10_Q3_ansL.png,E10_Q5_ansR.png,within,NA,NaN,NA,right,2854.5,0,1,989
4gPgqbeo,NA,NA,4gPgqbeo,2020-0188,2021-09-23,00:58:05,01:55:35,NA,incomplete,false,NA,true,1,15,NA,right,E10_Q3_ansL.png,E10_Q9_ansL.png,within,NA,NaN,NA,right,1794.6000000014901,1,1,1040
4gPgqbeo,NA,NA,4gPgqbeo,2020-0188,2021-09-23,00:58:05,01:55:35,NA,incomplete,false,NA,true,1,16,NA,right,E10_Q1_ansL.png,E4_Q10_ansR.png,between,NA,NaN,NA,right,1333.3999999985099,1,2,1077.7999999970198
4gPgqbeo,NA,NA,4gPgqbeo,2020-0188,2021-09-23,00:58:05,01:55:35,NA,incomplete,false,NA,true,1,17,NA,left,E1_Q6_ansR.png,E1_Q9_ansL.png,within,NA,NaN,NA,left,2108.7999999970198,1,1,1469.5
4gPgqbeo,NA,NA,4gPgqbeo,2020-0188,2021-09-23,00:58:05,01:55:35,NA,incomplete,false,NA,true,1,18,NA,right,E4_Q8_ansR.png,E4_Q2_ansL.png,within,NA,NaN,NA,right,3501.39999999851,1,1,1235.8999999985099
4gPgqbeo,NA,NA,4gPgqbeo,2020-0188,2021-09-23,00:58:05,01:55:35,NA,incomplete,false,NA,true,1,19,NA,right,E10_Q6_ansR.png,E10_Q1_ansL.png,within,NA,NaN,NA,right,1745.3999999985099,1,1,1068.5
4gPgqbeo,NA,NA,4gPgqbeo,2020-0188,2021-09-23,00:58:05,01:55:35,NA,incomplete,false,NA,true,1,20,NA,left,E1_Q2_ansL.png,E1_Q8_ansR.png,within,NA,NaN,NA,left,1657.9000000059605,1,1,901.8999999985099
4gPgqbeo,NA,NA,4gPgqbeo,2020-0188,2021-09-23,00:58:05,01:55:35,NA,incomplete,false,NA,true,1,21,NA,right,E4_Q5_ansR.png,E4_Q6_ansR.png,within,NA,NaN,NA,left,2696.60000000149,0,1,1334.1999999955297
4gPgqbeo,NA,NA,4gPgqbeo,2020-0188,2021-09-23,00:58:05,01:55:35,NA,incomplete,false,NA,true,1,22,NA,left,E1_Q7_ansL.png,E1_Q1_ansL.png,within,NA,NaN,NA,left,1452,1,1,1215.6000000014901
4gPgqbeo,NA,NA,4gPgqbeo,2020-0188,2021-09-23,00:58:05,01:55:35,NA,incomplete,false,NA,true,1,23,NA,left,E1_Q3_ansR.png,E1_Q10_ansR.png,within,NA,NaN,NA,left,2424.7999999970198,1,1,1383.1000000014901
4gPgqbeo,NA,NA,4gPgqbeo,2020-0188,2021-09-23,00:58:05,01:55:35,NA,incomplete,false,NA,true,1,24,NA,right,E10_Q8_ansR.png,E10_Q2_ansL.png,within,NA,NaN,NA,right,1245.1000000014901,1,1,940.5
4gPgqbeo,NA,NA,4gPgqbeo,2020-0188,2021-09-23,00:58:05,01:55:35,NA,incomplete,false,NA,true,1,25,NA,right,E4_Q6_ansR.png,E4_Q7_ansR.png,within,NA,NaN,NA,left,1186.4000000059605,0,1,862.6999999955297
4gPgqbeo,NA,NA,4gPgqbeo,2020-0188,2021-09-23,00:58:05,01:55:35,NA,incomplete,false,NA,true,1,26,NA,right,E4_Q3_ansL.png,E1_Q5_ansR.png,between,NA,NaN,NA,right,3305.5,1,2,1205.6000000014901
4gPgqbeo,NA,NA,4gPgqbeo,2020-0188,2021-09-23,00:58:05,01:55:35,NA,incomplete,false,true,NA,2,0,E7_Q9_ansR.png,right,NA,NA,NA,right,2213.89999999851,true,NA,NA,NA,NA,NA
4gPgqbeo,NA,NA,4gPgqbeo,2020-0188,2021-09-23,00:58:05,01:55:35,NA,incomplete,false,true,NA,2,1,E7_Q10_ansR.png,right,NA,NA,NA,right,1478,true,NA,NA,NA,NA,NA
4gPgqbeo,NA,NA,4gPgqbeo,2020-0188,2021-09-23,00:58:05,01:55:35,NA,incomplete,false,true,NA,2,2,E7_Q4_ansR.png,right,NA,NA,NA,right,1154.60000000149,true,NA,NA,NA,NA,NA
4gPgqbeo,NA,NA,4gPgqbeo,2020-0188,2021-09-23,00:58:05,01:55:35,NA,incomplete,false,true,NA,2,3,E7_Q2_ansL.png,left,NA,NA,NA,left,994.90000000596,true,NA,NA,NA,NA,NA
4gPgqbeo,NA,NA,4gPgqbeo,2020-0188,2021-09-23,00:58:05,01:55:35,NA,incomplete,false,true,NA,2,4,E7_Q8_ansL.png,left,NA,NA,NA,left,924.30000000447,true,NA,NA,NA,NA,NA
4gPgqbeo,NA,NA,4gPgqbeo,2020-0188,2021-09-23,00:58:05,01:55:35,NA,incomplete,false,true,NA,2,5,E7_Q7_ansL.png,left,NA,NA,NA,left,858.70000000298,true,NA,NA,NA,NA,NA
4gPgqbeo,NA,NA,4gPgqbeo,2020-0188,2021-09-23,00:58:05,01:55:35,NA,incomplete,false,true,NA,2,6,E7_Q6_ansR.png,right,NA,NA,NA,right,1041.70000000298,true,NA,NA,NA,NA,NA
4gPgqbeo,NA,NA,4gPgqbeo,2020-0188,2021-09-23,00:58:05,01:55:35,NA,incomplete,false,true,NA,2,7,E7_Q3_ansR.png,right,NA,NA,NA,right,917.80000000447,true,NA,NA,NA,NA,NA
4gPgqbeo,NA,NA,4gPgqbeo,2020-0188,2021-09-23,00:58:05,01:55:35,NA,incomplete,false,true,NA,2,8,E7_Q5_ansR.png,right,NA,NA,NA,right,1208.5,true,NA,NA,NA,NA,NA
4gPgqbeo,NA,NA,4gPgqbeo,2020-0188,2021-09-23,00:58:05,01:55:35,NA,incomplete,false,true,NA,2,9,E7_Q1_ansL.png,left,NA,NA,NA,left,1147.5,true,NA,NA,NA,NA,NA
4gPgqbeo,NA,NA,4gPgqbeo,2020-0188,2021-09-23,00:58:05,01:55:35,NA,incomplete,false,true,NA,2,10,E6_Q10_ansL.png,left,NA,NA,NA,left,3072.59999999404,true,NA,NA,NA,NA,NA
4gPgqbeo,NA,NA,4gPgqbeo,2020-0188,2021-09-23,00:58:05,01:55:35,NA,incomplete,false,true,NA,2,11,E6_Q9_ansL.png,left,NA,NA,NA,left,1076,true,NA,NA,NA,NA,NA
4gPgqbeo,NA,NA,4gPgqbeo,2020-0188,2021-09-23,00:58:05,01:55:35,NA,incomplete,false,true,NA,2,12,E6_Q1_ansL.png,left,NA,NA,NA,left,888.80000000447,true,NA,NA,NA,NA,NA
4gPgqbeo,NA,NA,4gPgqbeo,2020-0188,2021-09-23,00:58:05,01:55:35,NA,incomplete,false,true,NA,2,13,E6_Q8_ansL.png,left,NA,NA,NA,left,1168.39999999851,true,NA,NA,NA,NA,NA
4gPgqbeo,NA,NA,4gPgqbeo,2020-0188,2021-09-23,00:58:05,01:55:35,NA,incomplete,false,true,NA,2,14,E6_Q4_ansR.png,right,NA,NA,NA,right,961.60000000149,true,NA,NA,NA,NA,NA
4gPgqbeo,NA,NA,4gPgqbeo,2020-0188,2021-09-23,00:58:05,01:55:35,NA,incomplete,false,true,NA,2,15,E6_Q7_ansL.png,left,NA,NA,NA,left,876.79999999702,true,NA,NA,NA,NA,NA
4gPgqbeo,NA,NA,4gPgqbeo,2020-0188,2021-09-23,00:58:05,01:55:35,NA,incomplete,false,true,NA,2,16,E6_Q2_ansL.png,left,NA,NA,NA,left,1110.19999999553,true,NA,NA,NA,NA,NA
4gPgqbeo,NA,NA,4gPgqbeo,2020-0188,2021-09-23,00:58:05,01:55:35,NA,incomplete,false,true,NA,2,17,E6_Q5_ansR.png,right,NA,NA,NA,right,1250.20000000298,true,NA,NA,NA,NA,NA
4gPgqbeo,NA,NA,4gPgqbeo,2020-0188,2021-09-23,00:58:05,01:55:35,NA,incomplete,false,true,NA,2,18,E6_Q3_ansR.png,right,NA,NA,NA,right,1432.29999999702,true,NA,NA,NA,NA,NA
4gPgqbeo,NA,NA,4gPgqbeo,2020-0188,2021-09-23,00:58:05,01:55:35,NA,incomplete,false,true,NA,2,19,E6_Q6_ansR.png,right,NA,NA,NA,right,1065.39999999851,true,NA,NA,NA,NA,NA
4gPgqbeo,NA,NA,4gPgqbeo,2020-0188,2021-09-23,00:58:05,01:55:35,NA,incomplete,false,true,NA,2,20,E33_Q2_ansL.png,left,NA,NA,NA,left,2582.79999999702,true,NA,NA,NA,NA,NA
4gPgqbeo,NA,NA,4gPgqbeo,2020-0188,2021-09-23,00:58:05,01:55:35,NA,incomplete,false,true,NA,2,21,E33_Q6_ansR.png,right,NA,NA,NA,right,1534.40000000596,true,NA,NA,NA,NA,NA
4gPgqbeo,NA,NA,4gPgqbeo,2020-0188,2021-09-23,00:58:05,01:55:35,NA,incomplete,false,true,NA,2,22,E33_Q3_ansR.png,right,NA,NA,NA,right,2637.39999999851,true,NA,NA,NA,NA,NA
4gPgqbeo,NA,NA,4gPgqbeo,2020-0188,2021-09-23,00:58:05,01:55:35,NA,incomplete,false,true,NA,2,23,E33_Q1_ansL.png,left,NA,NA,NA,left,2139.89999999851,true,NA,NA,NA,NA,NA
4gPgqbeo,NA,NA,4gPgqbeo,2020-0188,2021-09-23,00:58:05,01:55:35,NA,incomplete,false,true,NA,2,24,E33_Q7_ansL.png,left,NA,NA,NA,left,2697.70000000298,true,NA,NA,NA,NA,NA
4gPgqbeo,NA,NA,4gPgqbeo,2020-0188,2021-09-23,00:58:05,01:55:35,NA,incomplete,false,true,NA,2,25,E33_Q8_ansL.png,left,NA,NA,NA,left,1955.5,true,NA,NA,NA,NA,NA
4gPgqbeo,NA,NA,4gPgqbeo,2020-0188,2021-09-23,00:58:05,01:55:35,NA,incomplete,false,true,NA,2,26,E33_Q5_ansR.png,right,NA,NA,NA,right,2529.40000000596,true,NA,NA,NA,NA,NA
4gPgqbeo,NA,NA,4gPgqbeo,2020-0188,2021-09-23,00:58:05,01:55:35,NA,incomplete,false,true,NA,2,27,E33_Q9_ansR.png,right,NA,NA,NA,right,3114.69999999553,true,NA,NA,NA,NA,NA
4gPgqbeo,NA,NA,4gPgqbeo,2020-0188,2021-09-23,00:58:05,01:55:35,NA,incomplete,false,true,NA,2,28,E33_Q4_ansR.png,right,NA,NA,NA,right,1767.29999999702,true,NA,NA,NA,NA,NA
4gPgqbeo,NA,NA,4gPgqbeo,2020-0188,2021-09-23,00:58:05,01:55:35,NA,incomplete,false,true,NA,2,29,E33_Q10_ansL.png,left,NA,NA,NA,right,2112.20000000298,false,NA,NA,NA,NA,NA
4gPgqbeo,NA,NA,4gPgqbeo,2020-0188,2021-09-23,00:58:05,01:55:35,NA,incomplete,false,NA,true,2,0,NA,right,E33_Q10_ansL.png,E33_Q5_ansR.png,within,NA,NaN,NA,right,3160.10000000149,1,1,1348.3999999985099
4gPgqbeo,NA,NA,4gPgqbeo,2020-0188,2021-09-23,00:58:05,01:55:35,NA,incomplete,false,NA,true,2,1,NA,right,E7_Q8_ansL.png,E7_Q10_ansR.png,within,NA,NaN,NA,left,1897.6000000014901,0,1,1095
4gPgqbeo,NA,NA,4gPgqbeo,2020-0188,2021-09-23,00:58:05,01:55:35,NA,incomplete,false,NA,true,2,2,NA,left,E6_Q7_ansL.png,E6_Q3_ansR.png,within,NA,NaN,NA,left,2172.8000000044703,1,1,1263
4gPgqbeo,NA,NA,4gPgqbeo,2020-0188,2021-09-23,00:58:05,01:55:35,NA,incomplete,false,NA,true,2,3,NA,left,E6_Q1_ansL.png,E6_Q7_ansL.png,within,NA,NaN,NA,left,1791.3999999985099,1,1,1419.8000000044703
4gPgqbeo,NA,NA,4gPgqbeo,2020-0188,2021-09-23,00:58:05,01:55:35,NA,incomplete,false,NA,true,2,4,NA,right,E33_Q1_ansL.png,E33_Q2_ansL.png,within,NA,NaN,NA,right,1713.6000000014901,1,1,959.1000000014901
4gPgqbeo,NA,NA,4gPgqbeo,2020-0188,2021-09-23,00:58:05,01:55:35,NA,incomplete,false,NA,true,2,5,NA,right,E6_Q6_ansR.png,E6_Q2_ansL.png,within,NA,NaN,NA,left,1606.8999999985099,0,1,948.6000000014901
4gPgqbeo,NA,NA,4gPgqbeo,2020-0188,2021-09-23,00:58:05,01:55:35,NA,incomplete,false,NA,true,2,6,NA,left,E7_Q3_ansR.png,E6_Q10_ansL.png,between,NA,NaN,NA,left,1214.8999999985099,1,2,1909.3000000044703
4gPgqbeo,NA,NA,4gPgqbeo,2020-0188,2021-09-23,00:58:05,01:55:35,NA,incomplete,false,NA,true,2,7,NA,left,E7_Q9_ansR.png,E7_Q2_ansL.png,within,NA,NaN,NA,left,2176.2999999970198,1,0,989.1000000014901
4gPgqbeo,NA,NA,4gPgqbeo,2020-0188,2021-09-23,00:58:05,01:55:35,NA,incomplete,false,NA,true,2,8,NA,left,E6_Q5_ansR.png,E33_Q2_ansL.png,between,NA,NaN,NA,left,1959,1,2,1048
4gPgqbeo,NA,NA,4gPgqbeo,2020-0188,2021-09-23,00:58:05,01:55:35,NA,incomplete,false,NA,true,2,9,NA,right,E33_Q5_ansR.png,E33_Q1_ansL.png,within,NA,NaN,NA,right,1508.8000000044703,1,1,1166.1000000014901
4gPgqbeo,NA,NA,4gPgqbeo,2020-0188,2021-09-23,00:58:05,01:55:35,NA,incomplete,false,NA,true,2,10,NA,left,E6_Q9_ansL.png,E6_Q4_ansR.png,within,NA,NaN,NA,left,1312.7999999970198,1,1,1146.6000000014901
4gPgqbeo,NA,NA,4gPgqbeo,2020-0188,2021-09-23,00:58:05,01:55:35,NA,incomplete,false,NA,true,2,11,NA,right,E7_Q6_ansR.png,E7_Q2_ansL.png,within,NA,NaN,NA,right,3028.5,1,1,1215.6000000014901
4gPgqbeo,NA,NA,4gPgqbeo,2020-0188,2021-09-23,00:58:05,01:55:35,NA,incomplete,false,NA,true,2,12,NA,right,E6_Q5_ansR.png,E6_Q4_ansR.png,within,NA,NaN,NA,left,3744.10000000149,0,1,1117.3999999985099
4gPgqbeo,NA,NA,4gPgqbeo,2020-0188,2021-09-23,00:58:05,01:55:35,NA,incomplete,false,NA,true,2,13,NA,right,E6_Q1_ansL.png,E7_Q1_ansL.png,between,NA,NaN,NA,right,2068.4000000059605,1,2,1459.7000000029802
4gPgqbeo,NA,NA,4gPgqbeo,2020-0188,2021-09-23,00:58:05,01:55:35,NA,incomplete,false,NA,true,2,14,NA,left,E7_Q8_ansL.png,E7_Q3_ansR.png,within,NA,NaN,NA,right,1558.8999999985099,0,1,910.6000000014901
4gPgqbeo,NA,NA,4gPgqbeo,2020-0188,2021-09-23,00:58:05,01:55:35,NA,incomplete,false,NA,true,2,15,NA,right,E33_Q8_ansL.png,E33_Q3_ansR.png,within,NA,NaN,NA,right,2587.3000000044703,1,1,979
4gPgqbeo,NA,NA,4gPgqbeo,2020-0188,2021-09-23,00:58:05,01:55:35,NA,incomplete,false,NA,true,2,16,NA,left,E6_Q8_ansL.png,E6_Q2_ansL.png,within,NA,NaN,NA,left,1892.2999999970198,1,1,1059
4gPgqbeo,NA,NA,4gPgqbeo,2020-0188,2021-09-23,00:58:05,01:55:35,NA,incomplete,false,NA,true,2,17,NA,right,E7_Q5_ansR.png,E7_Q7_ansL.png,within,NA,NaN,NA,right,1942,1,1,1235.3999999985099
4gPgqbeo,NA,NA,4gPgqbeo,2020-0188,2021-09-23,00:58:05,01:55:35,NA,incomplete,false,NA,true,2,18,NA,left,E7_Q6_ansR.png,E7_Q1_ansL.png,within,NA,NaN,NA,left,1734.1999999955297,1,1,1664.8999999985099
4gPgqbeo,NA,NA,4gPgqbeo,2020-0188,2021-09-23,00:58:05,01:55:35,NA,incomplete,false,NA,true,2,19,NA,left,E6_Q3_ansR.png,E33_Q6_ansR.png,between,NA,NaN,NA,left,1656.7999999970198,1,2,1156.8999999985099
4gPgqbeo,NA,NA,4gPgqbeo,2020-0188,2021-09-23,00:58:05,01:55:35,NA,incomplete,false,NA,true,2,20,NA,left,E6_Q6_ansR.png,E33_Q3_ansR.png,between,NA,NaN,NA,left,1479.6999999955297,1,2,1383.5
4gPgqbeo,NA,NA,4gPgqbeo,2020-0188,2021-09-23,00:58:05,01:55:35,NA,incomplete,false,NA,true,2,21,NA,left,E7_Q5_ansR.png,E6_Q9_ansL.png,between,NA,NaN,NA,left,3657.2000000029802,1,2,1803.8000000044703
4gPgqbeo,NA,NA,4gPgqbeo,2020-0188,2021-09-23,00:58:05,01:55:35,NA,incomplete,false,NA,true,2,22,NA,right,E33_Q9_ansR.png,E33_Q7_ansL.png,within,NA,NaN,NA,right,1931.8000000044703,1,1,1145.3999999985099
4gPgqbeo,NA,NA,4gPgqbeo,2020-0188,2021-09-23,00:58:05,01:55:35,NA,incomplete,false,NA,true,2,23,NA,left,E6_Q10_ansL.png,E6_Q8_ansL.png,within,NA,NaN,NA,left,1637.3000000044703,1,1,1391.5
4gPgqbeo,NA,NA,4gPgqbeo,2020-0188,2021-09-23,00:58:05,01:55:35,NA,incomplete,false,NA,true,2,24,NA,right,E33_Q7_ansL.png,E33_Q6_ansR.png,within,NA,NaN,NA,right,2794.7999999970198,1,1,1303.1000000014901
4gPgqbeo,NA,NA,4gPgqbeo,2020-0188,2021-09-23,00:58:05,01:55:35,NA,incomplete,false,NA,true,2,25,NA,right,E7_Q7_ansL.png,E7_Q4_ansR.png,within,NA,NaN,NA,right,1440.8000000044703,1,1,1254.5
4gPgqbeo,NA,NA,4gPgqbeo,2020-0188,2021-09-23,00:58:05,01:55:35,NA,incomplete,false,NA,true,2,26,NA,left,E33_Q8_ansL.png,E33_Q4_ansR.png,within,NA,NaN,NA,left,1410.8000000044703,1,1,1166
4gPgqbeo,NA,NA,4gPgqbeo,2020-0188,2021-09-23,00:58:05,01:55:35,NA,incomplete,false,true,NA,3,0,E32_Q3_ansR.png,right,NA,NA,NA,right,2455.89999999851,true,NA,NA,NA,NA,NA
4gPgqbeo,NA,NA,4gPgqbeo,2020-0188,2021-09-23,00:58:05,01:55:35,NA,incomplete,false,true,NA,3,1,E32_Q6_ansR.png,right,NA,NA,NA,right,1740.39999999851,true,NA,NA,NA,NA,NA
4gPgqbeo,NA,NA,4gPgqbeo,2020-0188,2021-09-23,00:58:05,01:55:35,NA,incomplete,false,true,NA,3,2,E32_Q9_ansR.png,right,NA,NA,NA,right,1055.30000000447,true,NA,NA,NA,NA,NA
4gPgqbeo,NA,NA,4gPgqbeo,2020-0188,2021-09-23,00:58:05,01:55:35,NA,incomplete,false,true,NA,3,3,E32_Q8_ansL.png,left,NA,NA,NA,left,999.30000000447,true,NA,NA,NA,NA,NA
4gPgqbeo,NA,NA,4gPgqbeo,2020-0188,2021-09-23,00:58:05,01:55:35,NA,incomplete,false,true,NA,3,4,E32_Q5_ansR.png,right,NA,NA,NA,right,1565,true,NA,NA,NA,NA,NA
4gPgqbeo,NA,NA,4gPgqbeo,2020-0188,2021-09-23,00:58:05,01:55:35,NA,incomplete,false,true,NA,3,5,E32_Q10_ansL.png,left,NA,NA,NA,left,1204.20000000298,true,NA,NA,NA,NA,NA
4gPgqbeo,NA,NA,4gPgqbeo,2020-0188,2021-09-23,00:58:05,01:55:35,NA,incomplete,false,true,NA,3,6,E32_Q7_ansL.png,left,NA,NA,NA,left,967.5,true,NA,NA,NA,NA,NA
4gPgqbeo,NA,NA,4gPgqbeo,2020-0188,2021-09-23,00:58:05,01:55:35,NA,incomplete,false,true,NA,3,7,E32_Q2_ansL.png,left,NA,NA,NA,left,989.89999999851,true,NA,NA,NA,NA,NA
4gPgqbeo,NA,NA,4gPgqbeo,2020-0188,2021-09-23,00:58:05,01:55:35,NA,incomplete,false,true,NA,3,8,E32_Q1_ansL.png,left,NA,NA,NA,left,1023.70000000298,true,NA,NA,NA,NA,NA
4gPgqbeo,NA,NA,4gPgqbeo,2020-0188,2021-09-23,00:58:05,01:55:35,NA,incomplete,false,true,NA,3,9,E32_Q4_ansR.png,right,NA,NA,NA,right,1668.29999999702,true,NA,NA,NA,NA,NA
4gPgqbeo,NA,NA,4gPgqbeo,2020-0188,2021-09-23,00:58:05,01:55:35,NA,incomplete,false,true,NA,3,10,E30_Q5_ansR.png,right,NA,NA,NA,right,2763.30000000447,true,NA,NA,NA,NA,NA
4gPgqbeo,NA,NA,4gPgqbeo,2020-0188,2021-09-23,00:58:05,01:55:35,NA,incomplete,false,true,NA,3,11,E30_Q7_ansL.png,left,NA,NA,NA,right,2424.19999999553,false,NA,NA,NA,NA,NA
4gPgqbeo,NA,NA,4gPgqbeo,2020-0188,2021-09-23,00:58:05,01:55:35,NA,incomplete,false,true,NA,3,12,E30_Q1_ansL.png,left,NA,NA,NA,left,1733.29999999702,true,NA,NA,NA,NA,NA
4gPgqbeo,NA,NA,4gPgqbeo,2020-0188,2021-09-23,00:58:05,01:55:35,NA,incomplete,false,true,NA,3,13,E30_Q4_ansL.png,left,NA,NA,NA,left,1779,true,NA,NA,NA,NA,NA
4gPgqbeo,NA,NA,4gPgqbeo,2020-0188,2021-09-23,00:58:05,01:55:35,NA,incomplete,false,true,NA,3,14,E30_Q2_ansL.png,left,NA,NA,NA,left,2229.89999999851,true,NA,NA,NA,NA,NA
4gPgqbeo,NA,NA,4gPgqbeo,2020-0188,2021-09-23,00:58:05,01:55:35,NA,incomplete,false,true,NA,3,15,E30_Q8_ansL.png,left,NA,NA,NA,right,2415.60000000149,false,NA,NA,NA,NA,NA
4gPgqbeo,NA,NA,4gPgqbeo,2020-0188,2021-09-23,00:58:05,01:55:35,NA,incomplete,false,true,NA,3,16,E30_Q10_ansR.png,right,NA,NA,NA,right,2420.19999999553,true,NA,NA,NA,NA,NA
4gPgqbeo,NA,NA,4gPgqbeo,2020-0188,2021-09-23,00:58:05,01:55:35,NA,incomplete,false,true,NA,3,17,E30_Q6_ansR.png,right,NA,NA,NA,right,2178.39999999851,true,NA,NA,NA,NA,NA
4gPgqbeo,NA,NA,4gPgqbeo,2020-0188,2021-09-23,00:58:05,01:55:35,NA,incomplete,false,true,NA,3,18,E30_Q3_ansL.png,left,NA,NA,NA,left,1968.5,true,NA,NA,NA,NA,NA
4gPgqbeo,NA,NA,4gPgqbeo,2020-0188,2021-09-23,00:58:05,01:55:35,NA,incomplete,false,true,NA,3,19,E30_Q9_ansL.png,left,NA,NA,NA,left,2609.80000000447,true,NA,NA,NA,NA,NA
4gPgqbeo,NA,NA,4gPgqbeo,2020-0188,2021-09-23,00:58:05,01:55:35,NA,incomplete,false,true,NA,3,20,E3_Q1_ansR.png,right,NA,NA,NA,right,1945,true,NA,NA,NA,NA,NA
4gPgqbeo,NA,NA,4gPgqbeo,2020-0188,2021-09-23,00:58:05,01:55:35,NA,incomplete,false,true,NA,3,21,E3_Q9_ansL.png,left,NA,NA,NA,left,1393,true,NA,NA,NA,NA,NA
4gPgqbeo,NA,NA,4gPgqbeo,2020-0188,2021-09-23,00:58:05,01:55:35,NA,incomplete,false,true,NA,3,22,E3_Q3_ansR.png,right,NA,NA,NA,right,1722,true,NA,NA,NA,NA,NA
4gPgqbeo,NA,NA,4gPgqbeo,2020-0188,2021-09-23,00:58:05,01:55:35,NA,incomplete,false,true,NA,3,23,E3_Q5_ansR.png,right,NA,NA,NA,right,988.39999999851,true,NA,NA,NA,NA,NA
4gPgqbeo,NA,NA,4gPgqbeo,2020-0188,2021-09-23,00:58:05,01:55:35,NA,incomplete,false,true,NA,3,24,E3_Q10_ansR.png,right,NA,NA,NA,right,1166.89999999851,true,NA,NA,NA,NA,NA
4gPgqbeo,NA,NA,4gPgqbeo,2020-0188,2021-09-23,00:58:05,01:55:35,NA,incomplete,false,true,NA,3,25,E3_Q8_ansL.png,left,NA,NA,NA,left,1647.29999999702,true,NA,NA,NA,NA,NA
4gPgqbeo,NA,NA,4gPgqbeo,2020-0188,2021-09-23,00:58:05,01:55:35,NA,incomplete,false,true,NA,3,26,E3_Q7_ansL.png,left,NA,NA,NA,left,1763.5,true,NA,NA,NA,NA,NA
4gPgqbeo,NA,NA,4gPgqbeo,2020-0188,2021-09-23,00:58:05,01:55:35,NA,incomplete,false,true,NA,3,27,E3_Q2_ansL.png,left,NA,NA,NA,left,1244.20000000298,true,NA,NA,NA,NA,NA
4gPgqbeo,NA,NA,4gPgqbeo,2020-0188,2021-09-23,00:58:05,01:55:35,NA,incomplete,false,true,NA,3,28,E3_Q4_ansL.png,left,NA,NA,NA,left,1345.10000000149,true,NA,NA,NA,NA,NA
4gPgqbeo,NA,NA,4gPgqbeo,2020-0188,2021-09-23,00:58:05,01:55:35,NA,incomplete,false,true,NA,3,29,E3_Q6_ansR.png,right,NA,NA,NA,right,1724.19999999553,true,NA,NA,NA,NA,NA
4gPgqbeo,NA,NA,4gPgqbeo,2020-0188,2021-09-23,00:58:05,01:55:35,NA,incomplete,false,NA,true,3,0,NA,left,E30_Q7_ansL.png,E30_Q2_ansL.png,within,NA,NaN,NA,left,2293.2999999970198,1,1,950.8999999985099
4gPgqbeo,NA,NA,4gPgqbeo,2020-0188,2021-09-23,00:58:05,01:55:35,NA,incomplete,false,NA,true,3,1,NA,right,E3_Q9_ansL.png,E30_Q3_ansL.png,between,NA,NaN,NA,right,3517.7000000029802,1,2,1586.5
4gPgqbeo,NA,NA,4gPgqbeo,2020-0188,2021-09-23,00:58:05,01:55:35,NA,incomplete,false,NA,true,3,2,NA,right,E3_Q5_ansR.png,E3_Q1_ansR.png,within,NA,NaN,NA,right,3517.2999999970198,1,1,890.8999999985099
4gPgqbeo,NA,NA,4gPgqbeo,2020-0188,2021-09-23,00:58:05,01:55:35,NA,incomplete,false,NA,true,3,3,NA,left,E30_Q4_ansL.png,E30_Q10_ansR.png,within,NA,NaN,NA,left,2538.2999999970198,1,1,1234.6999999955297
4gPgqbeo,NA,NA,4gPgqbeo,2020-0188,2021-09-23,00:58:05,01:55:35,NA,incomplete,false,NA,true,3,4,NA,right,E3_Q4_ansL.png,E3_Q8_ansL.png,within,NA,NaN,NA,right,1666,1,1,3802.10000000149
4gPgqbeo,NA,NA,4gPgqbeo,2020-0188,2021-09-23,00:58:05,01:55:35,NA,incomplete,false,NA,true,3,5,NA,right,E32_Q4_ansR.png,E32_Q7_ansL.png,within,NA,NaN,NA,right,1399.8999999985099,1,1,1146.2000000029802
4gPgqbeo,NA,NA,4gPgqbeo,2020-0188,2021-09-23,00:58:05,01:55:35,NA,incomplete,false,NA,true,3,6,NA,right,E30_Q3_ansL.png,E30_Q8_ansL.png,within,NA,NaN,NA,left,2294.5,0,1,957.8999999985099
4gPgqbeo,NA,NA,4gPgqbeo,2020-0188,2021-09-23,00:58:05,01:55:35,NA,incomplete,false,NA,true,3,7,NA,left,E30_Q9_ansL.png,E3_Q3_ansR.png,between,NA,NaN,NA,left,5165.30000000447,1,2,2744.10000000149
4gPgqbeo,NA,NA,4gPgqbeo,2020-0188,2021-09-23,00:58:05,01:55:35,NA,incomplete,false,NA,true,3,8,NA,right,E3_Q2_ansL.png,E3_Q10_ansR.png,within,NA,NaN,NA,left,3088,0,1,1117
4gPgqbeo,NA,NA,4gPgqbeo,2020-0188,2021-09-23,00:58:05,01:55:35,NA,incomplete,false,NA,true,3,9,NA,right,E3_Q8_ansL.png,E3_Q3_ansR.png,within,NA,NaN,NA,left,1047.1999999955297,0,1,1057.1000000014901
4gPgqbeo,NA,NA,4gPgqbeo,2020-0188,2021-09-23,00:58:05,01:55:35,NA,incomplete,false,NA,true,3,10,NA,right,E32_Q1_ansL.png,E32_Q10_ansL.png,within,NA,NaN,NA,right,3697.2999999970198,1,1,809.7999999970198
4gPgqbeo,NA,NA,4gPgqbeo,2020-0188,2021-09-23,00:58:05,01:55:35,NA,incomplete,false,NA,true,3,11,NA,left,E3_Q5_ansR.png,E3_Q7_ansL.png,within,NA,NaN,NA,right,2166.7000000029802,0,1,1834.3999999985099
4gPgqbeo,NA,NA,4gPgqbeo,2020-0188,2021-09-23,00:58:05,01:55:35,NA,incomplete,false,NA,true,3,12,NA,left,E30_Q5_ansR.png,E30_Q4_ansL.png,within,NA,NaN,NA,left,1029.0999999940395,1,1,2038.8999999985099
4gPgqbeo,NA,NA,4gPgqbeo,2020-0188,2021-09-23,00:58:05,01:55:35,NA,incomplete,false,NA,true,3,13,NA,right,E3_Q1_ansR.png,E30_Q6_ansR.png,between,NA,NaN,NA,right,3393.39999999851,1,1,1155.0999999940395
4gPgqbeo,NA,NA,4gPgqbeo,2020-0188,2021-09-23,00:58:05,01:55:35,NA,incomplete,false,NA,true,3,14,NA,left,E32_Q9_ansR.png,E32_Q10_ansL.png,within,NA,NaN,NA,left,2705.7999999970198,1,1,1352.9000000059605
4gPgqbeo,NA,NA,4gPgqbeo,2020-0188,2021-09-23,00:58:05,01:55:35,NA,incomplete,false,NA,true,3,15,NA,left,E3_Q7_ansL.png,E3_Q6_ansR.png,within,NA,NaN,NA,right,1284.8999999985099,0,1,951
4gPgqbeo,NA,NA,4gPgqbeo,2020-0188,2021-09-23,00:58:05,01:55:35,NA,incomplete,false,NA,true,3,16,NA,right,E32_Q8_ansL.png,E32_Q3_ansR.png,within,NA,NaN,NA,right,1530,1,1,1000.3999999985099
4gPgqbeo,NA,NA,4gPgqbeo,2020-0188,2021-09-23,00:58:05,01:55:35,NA,incomplete,false,NA,true,3,17,NA,left,E30_Q10_ansR.png,E30_Q9_ansL.png,within,NA,NaN,NA,left,2040.8000000044703,1,1,1451.3999999985099
4gPgqbeo,NA,NA,4gPgqbeo,2020-0188,2021-09-23,00:58:05,01:55:35,NA,incomplete,false,NA,true,3,18,NA,left,E30_Q1_ansL.png,E30_Q8_ansL.png,within,NA,NaN,NA,left,2246,1,1,1816.1999999955297
4gPgqbeo,NA,NA,4gPgqbeo,2020-0188,2021-09-23,00:58:05,01:55:35,NA,incomplete,false,NA,true,3,19,NA,left,E32_Q2_ansL.png,E30_Q5_ansR.png,between,NA,NaN,NA,left,1235.1999999955297,1,1,2127.10000000149
4gPgqbeo,NA,NA,4gPgqbeo,2020-0188,2021-09-23,00:58:05,01:55:35,NA,incomplete,false,NA,true,3,20,NA,right,E32_Q2_ansL.png,E32_Q5_ansR.png,within,NA,NaN,NA,left,959.2999999970198,0,1,1087.8999999985099
4gPgqbeo,NA,NA,4gPgqbeo,2020-0188,2021-09-23,00:58:05,01:55:35,NA,incomplete,false,NA,true,3,21,NA,left,E32_Q6_ansR.png,E32_Q5_ansR.png,within,NA,NaN,NA,left,2196.39999999851,1,1,1303.5999999940395
4gPgqbeo,NA,NA,4gPgqbeo,2020-0188,2021-09-23,00:58:05,01:55:35,NA,incomplete,false,NA,true,3,22,NA,right,E30_Q6_ansR.png,E30_Q2_ansL.png,within,NA,NaN,NA,right,2979.89999999851,1,1,1245.1000000014901
4gPgqbeo,NA,NA,4gPgqbeo,2020-0188,2021-09-23,00:58:05,01:55:35,NA,incomplete,false,NA,true,3,23,NA,left,E32_Q4_ansR.png,E30_Q1_ansL.png,between,NA,NaN,NA,left,979.3000000044703,1,2,1146.5
4gPgqbeo,NA,NA,4gPgqbeo,2020-0188,2021-09-23,00:58:05,01:55:35,NA,incomplete,false,NA,true,3,24,NA,left,E3_Q9_ansL.png,E3_Q10_ansR.png,within,NA,NaN,NA,left,1226.1000000014901,1,1,1245.9000000059605
4gPgqbeo,NA,NA,4gPgqbeo,2020-0188,2021-09-23,00:58:05,01:55:35,NA,incomplete,false,NA,true,3,25,NA,right,E32_Q7_ansL.png,E32_Q8_ansL.png,within,NA,NaN,NA,left,1088.8000000044703,0,1,1274.6999999955297
4gPgqbeo,NA,NA,4gPgqbeo,2020-0188,2021-09-23,00:58:05,01:55:35,NA,incomplete,false,NA,true,3,26,NA,left,E32_Q1_ansL.png,E30_Q7_ansL.png,between,NA,NaN,NA,left,922.1000000014901,1,2,1411.2000000029802
4gPgqbeo,NA,NA,4gPgqbeo,2020-0188,2021-09-23,00:58:05,01:55:35,NA,incomplete,false,true,NA,4,0,E20_Q10_ansL.png,left,NA,NA,NA,none,0,false,NA,NA,NA,NA,NA
4gPgqbeo,NA,NA,4gPgqbeo,2020-0188,2021-09-23,00:58:05,01:55:35,NA,incomplete,false,true,NA,4,1,E20_Q8_ansL.png,left,NA,NA,NA,right,1061.70000000298,false,NA,NA,NA,NA,NA
4gPgqbeo,NA,NA,4gPgqbeo,2020-0188,2021-09-23,00:58:05,01:55:35,NA,incomplete,false,true,NA,4,2,E20_Q3_ansR.png,right,NA,NA,NA,right,1264.79999999702,true,NA,NA,NA,NA,NA
4gPgqbeo,NA,NA,4gPgqbeo,2020-0188,2021-09-23,00:58:05,01:55:35,NA,incomplete,false,true,NA,4,3,E20_Q9_ansR.png,right,NA,NA,NA,right,1367,true,NA,NA,NA,NA,NA
4gPgqbeo,NA,NA,4gPgqbeo,2020-0188,2021-09-23,00:58:05,01:55:35,NA,incomplete,false,true,NA,4,4,E20_Q5_ansR.png,right,NA,NA,NA,right,1569.19999999553,true,NA,NA,NA,NA,NA
4gPgqbeo,NA,NA,4gPgqbeo,2020-0188,2021-09-23,00:58:05,01:55:35,NA,incomplete,false,true,NA,4,5,E20_Q4_ansR.png,right,NA,NA,NA,right,1424.29999999702,true,NA,NA,NA,NA,NA
4gPgqbeo,NA,NA,4gPgqbeo,2020-0188,2021-09-23,00:58:05,01:55:35,NA,incomplete,false,true,NA,4,6,E20_Q2_ansL.png,left,NA,NA,NA,left,1731.89999999851,true,NA,NA,NA,NA,NA
4gPgqbeo,NA,NA,4gPgqbeo,2020-0188,2021-09-23,00:58:05,01:55:35,NA,incomplete,false,true,NA,4,7,E20_Q1_ansL.png,left,NA,NA,NA,left,1292.39999999851,true,NA,NA,NA,NA,NA
4gPgqbeo,NA,NA,4gPgqbeo,2020-0188,2021-09-23,00:58:05,01:55:35,NA,incomplete,false,true,NA,4,8,E20_Q7_ansL.png,left,NA,NA,NA,left,1355.10000000149,true,NA,NA,NA,NA,NA
4gPgqbeo,NA,NA,4gPgqbeo,2020-0188,2021-09-23,00:58:05,01:55:35,NA,incomplete,false,true,NA,4,9,E20_Q6_ansR.png,right,NA,NA,NA,right,1330.19999999553,true,NA,NA,NA,NA,NA
4gPgqbeo,NA,NA,4gPgqbeo,2020-0188,2021-09-23,00:58:05,01:55:35,NA,incomplete,false,true,NA,4,10,E28_Q4_ansL.png,left,NA,NA,NA,left,1702.5,true,NA,NA,NA,NA,NA
4gPgqbeo,NA,NA,4gPgqbeo,2020-0188,2021-09-23,00:58:05,01:55:35,NA,incomplete,false,true,NA,4,11,E28_Q1_ansR.png,right,NA,NA,NA,right,1648.60000000149,true,NA,NA,NA,NA,NA
4gPgqbeo,NA,NA,4gPgqbeo,2020-0188,2021-09-23,00:58:05,01:55:35,NA,incomplete,false,true,NA,4,12,E28_Q2_ansR.png,right,NA,NA,NA,right,1473.29999999702,true,NA,NA,NA,NA,NA
4gPgqbeo,NA,NA,4gPgqbeo,2020-0188,2021-09-23,00:58:05,01:55:35,NA,incomplete,false,true,NA,4,13,E28_Q7_ansR.png,right,NA,NA,NA,right,1072.5,true,NA,NA,NA,NA,NA
4gPgqbeo,NA,NA,4gPgqbeo,2020-0188,2021-09-23,00:58:05,01:55:35,NA,incomplete,false,true,NA,4,14,E28_Q3_ansL.png,left,NA,NA,NA,left,1417.5,true,NA,NA,NA,NA,NA
4gPgqbeo,NA,NA,4gPgqbeo,2020-0188,2021-09-23,00:58:05,01:55:35,NA,incomplete,false,true,NA,4,15,E28_Q5_ansL.png,left,NA,NA,NA,left,1498.19999999553,true,NA,NA,NA,NA,NA
4gPgqbeo,NA,NA,4gPgqbeo,2020-0188,2021-09-23,00:58:05,01:55:35,NA,incomplete,false,true,NA,4,16,E28_Q9_ansL.png,left,NA,NA,NA,left,1103.5,true,NA,NA,NA,NA,NA
4gPgqbeo,NA,NA,4gPgqbeo,2020-0188,2021-09-23,00:58:05,01:55:35,NA,incomplete,false,true,NA,4,17,E28_Q6_ansL.png,left,NA,NA,NA,left,2329.70000000298,true,NA,NA,NA,NA,NA
4gPgqbeo,NA,NA,4gPgqbeo,2020-0188,2021-09-23,00:58:05,01:55:35,NA,incomplete,false,true,NA,4,18,E28_Q10_ansR.png,right,NA,NA,NA,right,1585.39999999851,true,NA,NA,NA,NA,NA
4gPgqbeo,NA,NA,4gPgqbeo,2020-0188,2021-09-23,00:58:05,01:55:35,NA,incomplete,false,true,NA,4,19,E28_Q8_ansR.png,right,NA,NA,NA,right,1162.70000000298,true,NA,NA,NA,NA,NA
4gPgqbeo,NA,NA,4gPgqbeo,2020-0188,2021-09-23,00:58:05,01:55:35,NA,incomplete,false,true,NA,4,20,E16_Q10_ansR.png,right,NA,NA,NA,right,1241.19999999553,true,NA,NA,NA,NA,NA
4gPgqbeo,NA,NA,4gPgqbeo,2020-0188,2021-09-23,00:58:05,01:55:35,NA,incomplete,false,true,NA,4,21,E16_Q3_ansL.png,left,NA,NA,NA,left,785.60000000149,true,NA,NA,NA,NA,NA
4gPgqbeo,NA,NA,4gPgqbeo,2020-0188,2021-09-23,00:58:05,01:55:35,NA,incomplete,false,true,NA,4,22,E16_Q4_ansL.png,left,NA,NA,NA,left,1248.5,true,NA,NA,NA,NA,NA
4gPgqbeo,NA,NA,4gPgqbeo,2020-0188,2021-09-23,00:58:05,01:55:35,NA,incomplete,false,true,NA,4,23,E16_Q9_ansL.png,left,NA,NA,NA,left,679.30000000447,true,NA,NA,NA,NA,NA
4gPgqbeo,NA,NA,4gPgqbeo,2020-0188,2021-09-23,00:58:05,01:55:35,NA,incomplete,false,true,NA,4,24,E16_Q6_ansL.png,left,NA,NA,NA,left,959.79999999702,true,NA,NA,NA,NA,NA
4gPgqbeo,NA,NA,4gPgqbeo,2020-0188,2021-09-23,00:58:05,01:55:35,NA,incomplete,false,true,NA,4,25,E16_Q5_ansL.png,left,NA,NA,NA,left,693.60000000149,true,NA,NA,NA,NA,NA
4gPgqbeo,NA,NA,4gPgqbeo,2020-0188,2021-09-23,00:58:05,01:55:35,NA,incomplete,false,true,NA,4,26,E16_Q2_ansR.png,right,NA,NA,NA,right,1138.10000000149,true,NA,NA,NA,NA,NA
4gPgqbeo,NA,NA,4gPgqbeo,2020-0188,2021-09-23,00:58:05,01:55:35,NA,incomplete,false,true,NA,4,27,E16_Q7_ansR.png,right,NA,NA,NA,right,1255.5,true,NA,NA,NA,NA,NA
4gPgqbeo,NA,NA,4gPgqbeo,2020-0188,2021-09-23,00:58:05,01:55:35,NA,incomplete,false,true,NA,4,28,E16_Q8_ansR.png,right,NA,NA,NA,right,1375.29999999702,true,NA,NA,NA,NA,NA
4gPgqbeo,NA,NA,4gPgqbeo,2020-0188,2021-09-23,00:58:05,01:55:35,NA,incomplete,false,true,NA,4,29,E16_Q1_ansR.png,right,NA,NA,NA,right,1050.60000000149,true,NA,NA,NA,NA,NA
4gPgqbeo,NA,NA,4gPgqbeo,2020-0188,2021-09-23,00:58:05,01:55:35,NA,incomplete,false,NA,true,4,0,NA,right,E28_Q10_ansR.png,E28_Q5_ansL.png,within,NA,NaN,NA,right,2417,1,1,968.6000000014901
4gPgqbeo,NA,NA,4gPgqbeo,2020-0188,2021-09-23,00:58:05,01:55:35,NA,incomplete,false,NA,true,4,1,NA,left,E16_Q2_ansR.png,E16_Q1_ansR.png,within,NA,NaN,NA,right,2223,0,1,890.1000000014901
4gPgqbeo,NA,NA,4gPgqbeo,2020-0188,2021-09-23,00:58:05,01:55:35,NA,incomplete,false,NA,true,4,2,NA,left,E16_Q3_ansL.png,E16_Q6_ansL.png,within,NA,NaN,NA,left,2352.0999999940395,1,1,1115.1999999955297
4gPgqbeo,NA,NA,4gPgqbeo,2020-0188,2021-09-23,00:58:05,01:55:35,NA,incomplete,false,NA,true,4,3,NA,left,E16_Q4_ansL.png,E16_Q5_ansL.png,within,NA,NaN,NA,left,1526.1000000014901,1,1,985.9000000059605
4gPgqbeo,NA,NA,4gPgqbeo,2020-0188,2021-09-23,00:58:05,01:55:35,NA,incomplete,false,NA,true,4,4,NA,right,E20_Q9_ansR.png,E20_Q10_ansL.png,within,NA,NaN,NA,right,1369.3000000044703,1,1,1458.2999999970198
4gPgqbeo,NA,NA,4gPgqbeo,2020-0188,2021-09-23,00:58:05,01:55:35,NA,incomplete,false,NA,true,4,5,NA,right,E20_Q4_ansR.png,E20_Q3_ansR.png,within,NA,NaN,NA,right,2067.60000000149,1,0,1381.6000000014901
4gPgqbeo,NA,NA,4gPgqbeo,2020-0188,2021-09-23,00:58:05,01:55:35,NA,incomplete,false,NA,true,4,6,NA,right,E16_Q2_ansR.png,E16_Q9_ansL.png,within,NA,NaN,NA,right,1460,1,1,941.1000000014901
4gPgqbeo,NA,NA,4gPgqbeo,2020-0188,2021-09-23,00:58:05,01:55:35,NA,incomplete,false,NA,true,4,7,NA,right,E20_Q5_ansR.png,E20_Q8_ansL.png,within,NA,NaN,NA,right,1538.1000000014901,1,1,940.5
4gPgqbeo,NA,NA,4gPgqbeo,2020-0188,2021-09-23,00:58:05,01:55:35,NA,incomplete,false,NA,true,4,8,NA,right,E28_Q7_ansR.png,E28_Q4_ansL.png,within,NA,NaN,NA,right,1343.4000000059605,1,1,1048.8999999985099
4gPgqbeo,NA,NA,4gPgqbeo,2020-0188,2021-09-23,00:58:05,01:55:35,NA,incomplete,false,NA,true,4,9,NA,left,E28_Q9_ansL.png,E28_Q8_ansR.png,within,NA,NaN,NA,left,1500.6000000014901,1,1,1185.2999999970198
4gPgqbeo,NA,NA,4gPgqbeo,2020-0188,2021-09-23,00:58:05,01:55:35,NA,incomplete,false,NA,true,4,10,NA,left,E16_Q5_ansL.png,E16_Q8_ansR.png,within,NA,NaN,NA,right,1392,0,1,1058.2999999970198
4gPgqbeo,NA,NA,4gPgqbeo,2020-0188,2021-09-23,00:58:05,01:55:35,NA,incomplete,false,NA,true,4,11,NA,right,E20_Q6_ansR.png,E20_Q2_ansL.png,within,NA,NaN,NA,right,2098.10000000149,1,1,773.8999999985099
4gPgqbeo,NA,NA,4gPgqbeo,2020-0188,2021-09-23,00:58:05,01:55:35,NA,incomplete,false,NA,true,4,12,NA,left,E28_Q8_ansR.png,E16_Q4_ansL.png,between,NA,NaN,NA,right,2049.60000000149,0,2,4403.70000000298
4gPgqbeo,NA,NA,4gPgqbeo,2020-0188,2021-09-23,00:58:05,01:55:35,NA,incomplete,false,NA,true,4,13,NA,left,E16_Q10_ansR.png,E16_Q9_ansL.png,within,NA,NaN,NA,left,1254.6999999955297,1,1,1048.5
4gPgqbeo,NA,NA,4gPgqbeo,2020-0188,2021-09-23,00:58:05,01:55:35,NA,incomplete,false,NA,true,4,14,NA,right,E28_Q1_ansR.png,E20_Q7_ansL.png,between,NA,NaN,NA,right,2060.10000000149,1,2,5502.5
4gPgqbeo,NA,NA,4gPgqbeo,2020-0188,2021-09-23,00:58:05,01:55:35,NA,incomplete,false,NA,true,4,15,NA,left,E16_Q6_ansL.png,E16_Q7_ansR.png,within,NA,NaN,NA,left,1754.0999999940395,1,1,851.2999999970198
4gPgqbeo,NA,NA,4gPgqbeo,2020-0188,2021-09-23,00:58:05,01:55:35,NA,incomplete,false,NA,true,4,16,NA,right,E28_Q4_ansL.png,E20_Q1_ansL.png,between,NA,NaN,NA,right,2039.8999999985099,1,2,2117.4000000059605
4gPgqbeo,NA,NA,4gPgqbeo,2020-0188,2021-09-23,00:58:05,01:55:35,NA,incomplete,false,NA,true,4,17,NA,right,E20_Q7_ansL.png,E20_Q4_ansR.png,within,NA,NaN,NA,right,1372.5,1,1,1107.2000000029802
4gPgqbeo,NA,NA,4gPgqbeo,2020-0188,2021-09-23,00:58:05,01:55:35,NA,incomplete,false,NA,true,4,18,NA,left,E20_Q6_ansR.png,E28_Q2_ansR.png,between,NA,NaN,NA,left,1204.3999999985099,1,2,1128.3000000044703
4gPgqbeo,NA,NA,4gPgqbeo,2020-0188,2021-09-23,00:58:05,01:55:35,NA,incomplete,false,NA,true,4,19,NA,left,E28_Q1_ansR.png,E28_Q3_ansL.png,within,NA,NaN,NA,right,1450.3999999985099,0,1,1145.5
4gPgqbeo,NA,NA,4gPgqbeo,2020-0188,2021-09-23,00:58:05,01:55:35,NA,incomplete,false,NA,true,4,20,NA,left,E28_Q10_ansR.png,E16_Q3_ansL.png,between,NA,NaN,NA,left,1658,1,1,2085.39999999851
4gPgqbeo,NA,NA,4gPgqbeo,2020-0188,2021-09-23,00:58:05,01:55:35,NA,incomplete,false,NA,true,4,21,NA,right,E16_Q10_ansR.png,E28_Q6_ansL.png,between,NA,NaN,NA,right,2629.10000000149,1,2,2913.2000000029802
4gPgqbeo,NA,NA,4gPgqbeo,2020-0188,2021-09-23,00:58:05,01:55:35,NA,incomplete,false,NA,true,4,22,NA,left,E28_Q7_ansR.png,E28_Q9_ansL.png,within,NA,NaN,NA,right,1225.8999999985099,0,1,970.2999999970198
4gPgqbeo,NA,NA,4gPgqbeo,2020-0188,2021-09-23,00:58:05,01:55:35,NA,incomplete,false,NA,true,4,23,NA,left,E28_Q3_ansL.png,E28_Q6_ansL.png,within,NA,NaN,NA,right,2167,0,2,1422.3000000044703
4gPgqbeo,NA,NA,4gPgqbeo,2020-0188,2021-09-23,00:58:05,01:55:35,NA,incomplete,false,NA,true,4,24,NA,right,E20_Q2_ansL.png,E20_Q9_ansR.png,within,NA,NaN,NA,right,999.7999999970198,1,1,1166
4gPgqbeo,NA,NA,4gPgqbeo,2020-0188,2021-09-23,00:58:05,01:55:35,NA,incomplete,false,NA,true,4,25,NA,left,E20_Q5_ansR.png,E20_Q1_ansL.png,within,NA,NaN,NA,right,1912.2999999970198,0,1,1233.6000000014901
4gPgqbeo,NA,NA,4gPgqbeo,2020-0188,2021-09-23,00:58:05,01:55:35,NA,incomplete,false,NA,true,4,26,NA,left,E28_Q2_ansR.png,E28_Q5_ansL.png,within,NA,NaN,NA,right,1097.3000000044703,0,1,1156
4gPgqbeo,NA,NA,4gPgqbeo,2020-0188,2021-09-23,00:58:05,01:55:35,NA,incomplete,false,true,NA,5,0,E25_Q9_ansL.png,left,NA,NA,NA,left,1897,true,NA,NA,NA,NA,NA
4gPgqbeo,NA,NA,4gPgqbeo,2020-0188,2021-09-23,00:58:05,01:55:35,NA,incomplete,false,true,NA,5,1,E25_Q3_ansL.png,left,NA,NA,NA,left,1969.60000000149,true,NA,NA,NA,NA,NA
4gPgqbeo,NA,NA,4gPgqbeo,2020-0188,2021-09-23,00:58:05,01:55:35,NA,incomplete,false,true,NA,5,2,E25_Q8_ansR.png,right,NA,NA,NA,right,1104.10000000149,true,NA,NA,NA,NA,NA
4gPgqbeo,NA,NA,4gPgqbeo,2020-0188,2021-09-23,00:58:05,01:55:35,NA,incomplete,false,true,NA,5,3,E25_Q5_ansL.png,left,NA,NA,NA,left,2271.69999999553,true,NA,NA,NA,NA,NA
4gPgqbeo,NA,NA,4gPgqbeo,2020-0188,2021-09-23,00:58:05,01:55:35,NA,incomplete,false,true,NA,5,4,E25_Q1_ansR.png,right,NA,NA,NA,right,1261.39999999851,true,NA,NA,NA,NA,NA
4gPgqbeo,NA,NA,4gPgqbeo,2020-0188,2021-09-23,00:58:05,01:55:35,NA,incomplete,false,true,NA,5,5,E25_Q7_ansR.png,right,NA,NA,NA,right,2148.20000000298,true,NA,NA,NA,NA,NA
4gPgqbeo,NA,NA,4gPgqbeo,2020-0188,2021-09-23,00:58:05,01:55:35,NA,incomplete,false,true,NA,5,6,E25_Q10_ansR.png,right,NA,NA,NA,right,2221.80000000447,true,NA,NA,NA,NA,NA
4gPgqbeo,NA,NA,4gPgqbeo,2020-0188,2021-09-23,00:58:05,01:55:35,NA,incomplete,false,true,NA,5,7,E25_Q6_ansL.png,left,NA,NA,NA,left,2408.90000000596,true,NA,NA,NA,NA,NA
4gPgqbeo,NA,NA,4gPgqbeo,2020-0188,2021-09-23,00:58:05,01:55:35,NA,incomplete,false,true,NA,5,8,E25_Q2_ansR.png,right,NA,NA,NA,right,1292.10000000149,true,NA,NA,NA,NA,NA
4gPgqbeo,NA,NA,4gPgqbeo,2020-0188,2021-09-23,00:58:05,01:55:35,NA,incomplete,false,true,NA,5,9,E25_Q4_ansL.png,left,NA,NA,NA,none,0,false,NA,NA,NA,NA,NA
4gPgqbeo,NA,NA,4gPgqbeo,2020-0188,2021-09-23,00:58:05,01:55:35,NA,incomplete,false,true,NA,5,10,E17_Q6_ansR.png,right,NA,NA,NA,right,1723.29999999702,true,NA,NA,NA,NA,NA
4gPgqbeo,NA,NA,4gPgqbeo,2020-0188,2021-09-23,00:58:05,01:55:35,NA,incomplete,false,true,NA,5,11,E17_Q3_ansR.png,right,NA,NA,NA,right,1254.10000000149,true,NA,NA,NA,NA,NA
4gPgqbeo,NA,NA,4gPgqbeo,2020-0188,2021-09-23,00:58:05,01:55:35,NA,incomplete,false,true,NA,5,12,E17_Q7_ansL.png,left,NA,NA,NA,left,1334.30000000447,true,NA,NA,NA,NA,NA
4gPgqbeo,NA,NA,4gPgqbeo,2020-0188,2021-09-23,00:58:05,01:55:35,NA,incomplete,false,true,NA,5,13,E17_Q5_ansR.png,right,NA,NA,NA,right,1301.69999999553,true,NA,NA,NA,NA,NA
4gPgqbeo,NA,NA,4gPgqbeo,2020-0188,2021-09-23,00:58:05,01:55:35,NA,incomplete,false,true,NA,5,14,E17_Q10_ansL.png,left,NA,NA,NA,left,1020.5,true,NA,NA,NA,NA,NA
4gPgqbeo,NA,NA,4gPgqbeo,2020-0188,2021-09-23,00:58:05,01:55:35,NA,incomplete,false,true,NA,5,15,E17_Q8_ansL.png,left,NA,NA,NA,left,1269.39999999851,true,NA,NA,NA,NA,NA
4gPgqbeo,NA,NA,4gPgqbeo,2020-0188,2021-09-23,00:58:05,01:55:35,NA,incomplete,false,true,NA,5,16,E17_Q9_ansR.png,right,NA,NA,NA,right,935.19999999553,true,NA,NA,NA,NA,NA
4gPgqbeo,NA,NA,4gPgqbeo,2020-0188,2021-09-23,00:58:05,01:55:35,NA,incomplete,false,true,NA,5,17,E17_Q2_ansL.png,left,NA,NA,NA,left,1005.60000000149,true,NA,NA,NA,NA,NA
4gPgqbeo,NA,NA,4gPgqbeo,2020-0188,2021-09-23,00:58:05,01:55:35,NA,incomplete,false,true,NA,5,18,E17_Q1_ansL.png,left,NA,NA,NA,left,1232.5,true,NA,NA,NA,NA,NA
4gPgqbeo,NA,NA,4gPgqbeo,2020-0188,2021-09-23,00:58:05,01:55:35,NA,incomplete,false,true,NA,5,19,E17_Q4_ansR.png,right,NA,NA,NA,right,1277.70000000298,true,NA,NA,NA,NA,NA
4gPgqbeo,NA,NA,4gPgqbeo,2020-0188,2021-09-23,00:58:05,01:55:35,NA,incomplete,false,true,NA,5,20,E24_Q3_ansL.png,left,NA,NA,NA,left,1995.90000000596,true,NA,NA,NA,NA,NA
4gPgqbeo,NA,NA,4gPgqbeo,2020-0188,2021-09-23,00:58:05,01:55:35,NA,incomplete,false,true,NA,5,21,E24_Q9_ansL.png,left,NA,NA,NA,left,1412.39999999851,true,NA,NA,NA,NA,NA
4gPgqbeo,NA,NA,4gPgqbeo,2020-0188,2021-09-23,00:58:05,01:55:35,NA,incomplete,false,true,NA,5,22,E24_Q7_ansR.png,right,NA,NA,NA,right,1413.89999999851,true,NA,NA,NA,NA,NA
4gPgqbeo,NA,NA,4gPgqbeo,2020-0188,2021-09-23,00:58:05,01:55:35,NA,incomplete,false,true,NA,5,23,E24_Q5_ansL.png,left,NA,NA,NA,left,1808.10000000149,true,NA,NA,NA,NA,NA
4gPgqbeo,NA,NA,4gPgqbeo,2020-0188,2021-09-23,00:58:05,01:55:35,NA,incomplete,false,true,NA,5,24,E24_Q6_ansL.png,left,NA,NA,NA,left,906.29999999702,true,NA,NA,NA,NA,NA
4gPgqbeo,NA,NA,4gPgqbeo,2020-0188,2021-09-23,00:58:05,01:55:35,NA,incomplete,false,true,NA,5,25,E24_Q1_ansR.png,right,NA,NA,NA,right,1325.29999999702,true,NA,NA,NA,NA,NA
4gPgqbeo,NA,NA,4gPgqbeo,2020-0188,2021-09-23,00:58:05,01:55:35,NA,incomplete,false,true,NA,5,26,E24_Q4_ansL.png,left,NA,NA,NA,left,1262.39999999851,true,NA,NA,NA,NA,NA
4gPgqbeo,NA,NA,4gPgqbeo,2020-0188,2021-09-23,00:58:05,01:55:35,NA,incomplete,false,true,NA,5,27,E24_Q10_ansR.png,right,NA,NA,NA,right,1675.89999999851,true,NA,NA,NA,NA,NA
4gPgqbeo,NA,NA,4gPgqbeo,2020-0188,2021-09-23,00:58:05,01:55:35,NA,incomplete,false,true,NA,5,28,E24_Q2_ansR.png,right,NA,NA,NA,right,1934,true,NA,NA,NA,NA,NA
4gPgqbeo,NA,NA,4gPgqbeo,2020-0188,2021-09-23,00:58:05,01:55:35,NA,incomplete,false,true,NA,5,29,E24_Q8_ansR.png,right,NA,NA,NA,right,1942.70000000298,true,NA,NA,NA,NA,NA
4gPgqbeo,NA,NA,4gPgqbeo,2020-0188,2021-09-23,00:58:05,01:55:35,NA,incomplete,false,NA,true,5,0,NA,left,E25_Q8_ansR.png,E25_Q7_ansR.png,within,NA,NaN,NA,left,1779.8999999985099,1,1,1289.9000000059605
4gPgqbeo,NA,NA,4gPgqbeo,2020-0188,2021-09-23,00:58:05,01:55:35,NA,incomplete,false,NA,true,5,1,NA,right,E17_Q1_ansL.png,E17_Q8_ansL.png,within,NA,NaN,NA,right,2488.7999999970198,1,1,1322.1000000014901
4gPgqbeo,NA,NA,4gPgqbeo,2020-0188,2021-09-23,00:58:05,01:55:35,NA,incomplete,false,NA,true,5,2,NA,right,E17_Q9_ansR.png,E17_Q5_ansR.png,within,NA,NaN,NA,right,2039.8999999985099,1,1,1059.1000000014901
4gPgqbeo,NA,NA,4gPgqbeo,2020-0188,2021-09-23,00:58:05,01:55:35,NA,incomplete,false,NA,true,5,3,NA,right,E17_Q3_ansR.png,E25_Q2_ansR.png,between,NA,NaN,NA,right,1037.5999999940395,1,3,2903.10000000149
4gPgqbeo,NA,NA,4gPgqbeo,2020-0188,2021-09-23,00:58:05,01:55:35,NA,incomplete,false,NA,true,5,4,NA,right,E24_Q8_ansR.png,E24_Q4_ansL.png,within,NA,NaN,NA,right,3677.0999999940395,1,1,1048.1000000014901
4gPgqbeo,NA,NA,4gPgqbeo,2020-0188,2021-09-23,00:58:05,01:55:35,NA,incomplete,false,NA,true,5,5,NA,left,E25_Q9_ansL.png,E25_Q5_ansL.png,within,NA,NaN,NA,left,2078.39999999851,1,1,1236
4gPgqbeo,NA,NA,4gPgqbeo,2020-0188,2021-09-23,00:58:05,01:55:35,NA,incomplete,false,NA,true,5,6,NA,right,E17_Q10_ansL.png,E17_Q3_ansR.png,within,NA,NaN,NA,right,1783.4000000059605,1,1,1088.1999999955297
4gPgqbeo,NA,NA,4gPgqbeo,2020-0188,2021-09-23,00:58:05,01:55:35,NA,incomplete,false,NA,true,5,7,NA,right,E24_Q9_ansL.png,E17_Q1_ansL.png,between,NA,NaN,NA,right,1608.3999999985099,1,2,1076.6000000014901
4gPgqbeo,NA,NA,4gPgqbeo,2020-0188,2021-09-23,00:58:05,01:55:35,NA,incomplete,false,NA,true,5,8,NA,left,E25_Q1_ansR.png,E25_Q6_ansL.png,within,NA,NaN,NA,right,1195.6000000014901,0,1,1284.1999999955297
4gPgqbeo,NA,NA,4gPgqbeo,2020-0188,2021-09-23,00:58:05,01:55:35,NA,incomplete,false,NA,true,5,9,NA,right,E17_Q6_ansR.png,E25_Q6_ansL.png,between,NA,NaN,NA,right,990.7000000029802,1,2,774.3999999985099
4gPgqbeo,NA,NA,4gPgqbeo,2020-0188,2021-09-23,00:58:05,01:55:35,NA,incomplete,false,NA,true,5,10,NA,right,E24_Q2_ansR.png,E24_Q1_ansR.png,within,NA,NaN,NA,right,1156.2999999970198,1,1,872.8999999985099
4gPgqbeo,NA,NA,4gPgqbeo,2020-0188,2021-09-23,00:58:05,01:55:35,NA,incomplete,false,NA,true,5,11,NA,right,E24_Q6_ansL.png,E24_Q9_ansL.png,within,NA,NaN,NA,right,1401,1,1,1304.7000000029802
4gPgqbeo,NA,NA,4gPgqbeo,2020-0188,2021-09-23,00:58:05,01:55:35,NA,incomplete,false,NA,true,5,12,NA,right,E25_Q4_ansL.png,E25_Q10_ansR.png,within,NA,NaN,NA,right,2019.6999999955297,1,1,1422.1000000014901
4gPgqbeo,NA,NA,4gPgqbeo,2020-0188,2021-09-23,00:58:05,01:55:35,NA,incomplete,false,NA,true,5,13,NA,right,E24_Q4_ansL.png,E24_Q5_ansL.png,within,NA,NaN,NA,right,1706.3999999985099,1,1,1097.7000000029802
4gPgqbeo,NA,NA,4gPgqbeo,2020-0188,2021-09-23,00:58:05,01:55:35,NA,incomplete,false,NA,true,5,14,NA,left,E25_Q4_ansL.png,E17_Q7_ansL.png,between,NA,NaN,NA,left,1097.8999999985099,1,2,1979
4gPgqbeo,NA,NA,4gPgqbeo,2020-0188,2021-09-23,00:58:05,01:55:35,NA,incomplete,false,NA,true,5,15,NA,right,E24_Q5_ansL.png,E24_Q3_ansL.png,within,NA,NaN,NA,right,1410.7999999970198,1,1,773.6999999955297
4gPgqbeo,NA,NA,4gPgqbeo,2020-0188,2021-09-23,00:58:05,01:55:35,NA,incomplete,false,NA,true,5,16,NA,right,E24_Q7_ansR.png,E17_Q4_ansR.png,between,NA,NaN,NA,right,3746.2999999970198,1,2,2842.0999999940395
4gPgqbeo,NA,NA,4gPgqbeo,2020-0188,2021-09-23,00:58:05,01:55:35,NA,incomplete,false,NA,true,5,17,NA,left,E25_Q7_ansR.png,E25_Q2_ansR.png,within,NA,NaN,NA,right,1883.5,0,1,1077.8999999985099
4gPgqbeo,NA,NA,4gPgqbeo,2020-0188,2021-09-23,00:58:05,01:55:35,NA,incomplete,false,NA,true,5,18,NA,right,E25_Q1_ansR.png,E25_Q3_ansL.png,within,NA,NaN,NA,right,1050.7000000029802,1,1,1028.9000000059605
4gPgqbeo,NA,NA,4gPgqbeo,2020-0188,2021-09-23,00:58:05,01:55:35,NA,incomplete,false,NA,true,5,19,NA,left,E17_Q2_ansL.png,E24_Q3_ansL.png,between,NA,NaN,NA,left,1558.6999999955297,1,2,1048.5
4gPgqbeo,NA,NA,4gPgqbeo,2020-0188,2021-09-23,00:58:05,01:55:35,NA,incomplete,false,NA,true,5,20,NA,left,E17_Q7_ansL.png,E17_Q8_ansL.png,within,NA,NaN,NA,right,912.0999999940395,0,1,1225.4000000059605
4gPgqbeo,NA,NA,4gPgqbeo,2020-0188,2021-09-23,00:58:05,01:55:35,NA,incomplete,false,NA,true,5,21,NA,right,E24_Q10_ansR.png,E24_Q6_ansL.png,within,NA,NaN,NA,right,1401.2000000029802,1,1,1263.5
4gPgqbeo,NA,NA,4gPgqbeo,2020-0188,2021-09-23,00:58:05,01:55:35,NA,incomplete,false,NA,true,5,22,NA,left,E24_Q7_ansR.png,E24_Q1_ansR.png,within,NA,NaN,NA,right,1372.6000000014901,0,1,980.4000000059605
4gPgqbeo,NA,NA,4gPgqbeo,2020-0188,2021-09-23,00:58:05,01:55:35,NA,incomplete,false,NA,true,5,23,NA,right,E17_Q2_ansL.png,E17_Q10_ansL.png,within,NA,NaN,NA,left,1783.8000000044703,0,1,1674.7999999970198
4gPgqbeo,NA,NA,4gPgqbeo,2020-0188,2021-09-23,00:58:05,01:55:35,NA,incomplete,false,NA,true,5,24,NA,right,E25_Q10_ansR.png,E25_Q5_ansL.png,within,NA,NaN,NA,right,1745,1,1,1568
4gPgqbeo,NA,NA,4gPgqbeo,2020-0188,2021-09-23,00:58:05,01:55:35,NA,incomplete,false,NA,true,5,25,NA,left,E17_Q9_ansR.png,E17_Q4_ansR.png,within,NA,NaN,NA,right,1333.3999999985099,0,1,1293.7999999970198
4gPgqbeo,NA,NA,4gPgqbeo,2020-0188,2021-09-23,00:58:05,01:55:35,NA,incomplete,false,NA,true,5,26,NA,left,E17_Q6_ansR.png,E17_Q5_ansR.png,within,NA,NaN,NA,right,892.1000000014901,0,1,862.5
4gPgqbeo,NA,NA,4gPgqbeo,2020-0188,2021-09-23,00:58:05,01:55:35,NA,incomplete,false,true,NA,6,0,E23_Q10_ansL.png,left,NA,NA,NA,left,1860.30000000447,true,NA,NA,NA,NA,NA
4gPgqbeo,NA,NA,4gPgqbeo,2020-0188,2021-09-23,00:58:05,01:55:35,NA,incomplete,false,true,NA,6,1,E23_Q8_ansL.png,left,NA,NA,NA,left,2320.30000000447,true,NA,NA,NA,NA,NA
4gPgqbeo,NA,NA,4gPgqbeo,2020-0188,2021-09-23,00:58:05,01:55:35,NA,incomplete,false,true,NA,6,2,E23_Q5_ansR.png,right,NA,NA,NA,right,1375.39999999851,true,NA,NA,NA,NA,NA
4gPgqbeo,NA,NA,4gPgqbeo,2020-0188,2021-09-23,00:58:05,01:55:35,NA,incomplete,false,true,NA,6,3,E23_Q3_ansR.png,right,NA,NA,NA,right,1030.29999999702,true,NA,NA,NA,NA,NA
4gPgqbeo,NA,NA,4gPgqbeo,2020-0188,2021-09-23,00:58:05,01:55:35,NA,incomplete,false,true,NA,6,4,E23_Q7_ansL.png,left,NA,NA,NA,left,806.89999999851,true,NA,NA,NA,NA,NA
4gPgqbeo,NA,NA,4gPgqbeo,2020-0188,2021-09-23,00:58:05,01:55:35,NA,incomplete,false,true,NA,6,5,E23_Q6_ansR.png,right,NA,NA,NA,right,1400.60000000149,true,NA,NA,NA,NA,NA
4gPgqbeo,NA,NA,4gPgqbeo,2020-0188,2021-09-23,00:58:05,01:55:35,NA,incomplete,false,true,NA,6,6,E23_Q9_ansR.png,right,NA,NA,NA,right,1487.79999999702,true,NA,NA,NA,NA,NA
4gPgqbeo,NA,NA,4gPgqbeo,2020-0188,2021-09-23,00:58:05,01:55:35,NA,incomplete,false,true,NA,6,7,E23_Q1_ansL.png,left,NA,NA,NA,left,1831.70000000298,true,NA,NA,NA,NA,NA
4gPgqbeo,NA,NA,4gPgqbeo,2020-0188,2021-09-23,00:58:05,01:55:35,NA,incomplete,false,true,NA,6,8,E23_Q2_ansL.png,left,NA,NA,NA,left,1297,true,NA,NA,NA,NA,NA
4gPgqbeo,NA,NA,4gPgqbeo,2020-0188,2021-09-23,00:58:05,01:55:35,NA,incomplete,false,true,NA,6,9,E23_Q4_ansR.png,right,NA,NA,NA,right,1683.10000000149,true,NA,NA,NA,NA,NA
4gPgqbeo,NA,NA,4gPgqbeo,2020-0188,2021-09-23,00:58:05,01:55:35,NA,incomplete,false,true,NA,6,10,E15_Q6_ansR.png,right,NA,NA,NA,right,2034,true,NA,NA,NA,NA,NA
4gPgqbeo,NA,NA,4gPgqbeo,2020-0188,2021-09-23,00:58:05,01:55:35,NA,incomplete,false,true,NA,6,11,E15_Q9_ansR.png,right,NA,NA,NA,right,900.39999999851,true,NA,NA,NA,NA,NA
4gPgqbeo,NA,NA,4gPgqbeo,2020-0188,2021-09-23,00:58:05,01:55:35,NA,incomplete,false,true,NA,6,12,E15_Q8_ansL.png,left,NA,NA,NA,left,1556.60000000149,true,NA,NA,NA,NA,NA
4gPgqbeo,NA,NA,4gPgqbeo,2020-0188,2021-09-23,00:58:05,01:55:35,NA,incomplete,false,true,NA,6,13,E15_Q4_ansR.png,right,NA,NA,NA,right,983.60000000149,true,NA,NA,NA,NA,NA
4gPgqbeo,NA,NA,4gPgqbeo,2020-0188,2021-09-23,00:58:05,01:55:35,NA,incomplete,false,true,NA,6,14,E15_Q2_ansL.png,left,NA,NA,NA,left,806.5,true,NA,NA,NA,NA,NA
4gPgqbeo,NA,NA,4gPgqbeo,2020-0188,2021-09-23,00:58:05,01:55:35,NA,incomplete,false,true,NA,6,15,E15_Q5_ansR.png,right,NA,NA,NA,right,956.70000000298,true,NA,NA,NA,NA,NA
4gPgqbeo,NA,NA,4gPgqbeo,2020-0188,2021-09-23,00:58:05,01:55:35,NA,incomplete,false,true,NA,6,16,E15_Q1_ansL.png,left,NA,NA,NA,left,669.09999999404,true,NA,NA,NA,NA,NA
4gPgqbeo,NA,NA,4gPgqbeo,2020-0188,2021-09-23,00:58:05,01:55:35,NA,incomplete,false,true,NA,6,17,E15_Q3_ansR.png,right,NA,NA,NA,right,776.10000000149,true,NA,NA,NA,NA,NA
4gPgqbeo,NA,NA,4gPgqbeo,2020-0188,2021-09-23,00:58:05,01:55:35,NA,incomplete,false,true,NA,6,18,E15_Q10_ansL.png,left,NA,NA,NA,left,693.10000000149,true,NA,NA,NA,NA,NA
4gPgqbeo,NA,NA,4gPgqbeo,2020-0188,2021-09-23,00:58:05,01:55:35,NA,incomplete,false,true,NA,6,19,E15_Q7_ansL.png,left,NA,NA,NA,left,1698.19999999553,true,NA,NA,NA,NA,NA
4gPgqbeo,NA,NA,4gPgqbeo,2020-0188,2021-09-23,00:58:05,01:55:35,NA,incomplete,false,true,NA,6,20,E18_Q6_ansR.png,right,NA,NA,NA,right,2158.79999999702,true,NA,NA,NA,NA,NA
4gPgqbeo,NA,NA,4gPgqbeo,2020-0188,2021-09-23,00:58:05,01:55:35,NA,incomplete,false,true,NA,6,21,E18_Q4_ansR.png,right,NA,NA,NA,right,901.39999999851,true,NA,NA,NA,NA,NA
4gPgqbeo,NA,NA,4gPgqbeo,2020-0188,2021-09-23,00:58:05,01:55:35,NA,incomplete,false,true,NA,6,22,E18_Q10_ansL.png,left,NA,NA,NA,left,1105.5,true,NA,NA,NA,NA,NA
4gPgqbeo,NA,NA,4gPgqbeo,2020-0188,2021-09-23,00:58:05,01:55:35,NA,incomplete,false,true,NA,6,23,E18_Q1_ansL.png,left,NA,NA,NA,left,1128.89999999851,true,NA,NA,NA,NA,NA
4gPgqbeo,NA,NA,4gPgqbeo,2020-0188,2021-09-23,00:58:05,01:55:35,NA,incomplete,false,true,NA,6,24,E18_Q2_ansL.png,left,NA,NA,NA,left,1038.69999999553,true,NA,NA,NA,NA,NA
4gPgqbeo,NA,NA,4gPgqbeo,2020-0188,2021-09-23,00:58:05,01:55:35,NA,incomplete,false,true,NA,6,25,E18_Q7_ansL.png,left,NA,NA,NA,left,1419.60000000149,true,NA,NA,NA,NA,NA
4gPgqbeo,NA,NA,4gPgqbeo,2020-0188,2021-09-23,00:58:05,01:55:35,NA,incomplete,false,true,NA,6,26,E18_Q5_ansR.png,right,NA,NA,NA,right,1406.89999999851,true,NA,NA,NA,NA,NA
4gPgqbeo,NA,NA,4gPgqbeo,2020-0188,2021-09-23,00:58:05,01:55:35,NA,incomplete,false,true,NA,6,27,E18_Q3_ansR.png,right,NA,NA,NA,right,1268.5,true,NA,NA,NA,NA,NA
4gPgqbeo,NA,NA,4gPgqbeo,2020-0188,2021-09-23,00:58:05,01:55:35,NA,incomplete,false,true,NA,6,28,E18_Q9_ansR.png,right,NA,NA,NA,right,996.39999999851,true,NA,NA,NA,NA,NA
4gPgqbeo,NA,NA,4gPgqbeo,2020-0188,2021-09-23,00:58:05,01:55:35,NA,incomplete,false,true,NA,6,29,E18_Q8_ansL.png,left,NA,NA,NA,left,1695.10000000149,true,NA,NA,NA,NA,NA
4gPgqbeo,NA,NA,4gPgqbeo,2020-0188,2021-09-23,00:58:05,01:55:35,NA,incomplete,false,NA,true,6,0,NA,left,E23_Q6_ansR.png,E23_Q2_ansL.png,within,NA,NaN,NA,left,2020.4000000059605,1,1,1175
4gPgqbeo,NA,NA,4gPgqbeo,2020-0188,2021-09-23,00:58:05,01:55:35,NA,incomplete,false,NA,true,6,1,NA,left,E18_Q1_ansL.png,E18_Q5_ansR.png,within,NA,NaN,NA,left,3853.60000000149,1,1,1499.7000000029802
4gPgqbeo,NA,NA,4gPgqbeo,2020-0188,2021-09-23,00:58:05,01:55:35,NA,incomplete,false,NA,true,6,2,NA,right,E15_Q2_ansL.png,E15_Q9_ansR.png,within,NA,NaN,NA,right,1636.7000000029802,1,1,960.7999999970198
4gPgqbeo,NA,NA,4gPgqbeo,2020-0188,2021-09-23,00:58:05,01:55:35,NA,incomplete,false,NA,true,6,3,NA,right,E18_Q3_ansR.png,E18_Q2_ansL.png,within,NA,NaN,NA,right,1449.3000000044703,1,1,980.1000000014901
4gPgqbeo,NA,NA,4gPgqbeo,2020-0188,2021-09-23,00:58:05,01:55:35,NA,incomplete,false,NA,true,6,4,NA,right,E23_Q3_ansR.png,E23_Q10_ansL.png,within,NA,NaN,NA,right,1314.8000000044703,1,1,969.9000000059605
4gPgqbeo,NA,NA,4gPgqbeo,2020-0188,2021-09-23,00:58:05,01:55:35,NA,incomplete,false,NA,true,6,5,NA,right,E18_Q8_ansL.png,E18_Q5_ansR.png,within,NA,NaN,NA,right,1655.6999999955297,1,1,882.3000000044703
4gPgqbeo,NA,NA,4gPgqbeo,2020-0188,2021-09-23,00:58:05,01:55:35,NA,incomplete,false,NA,true,6,6,NA,left,E18_Q6_ansR.png,E18_Q1_ansL.png,within,NA,NaN,NA,left,1432,1,1,2156.10000000149
4gPgqbeo,NA,NA,4gPgqbeo,2020-0188,2021-09-23,00:58:05,01:55:35,NA,incomplete,false,NA,true,6,7,NA,left,E23_Q4_ansR.png,E15_Q8_ansL.png,between,NA,NaN,NA,right,2550.60000000149,0,1,1637.6999999955297
4gPgqbeo,NA,NA,4gPgqbeo,2020-0188,2021-09-23,00:58:05,01:55:35,NA,incomplete,false,NA,true,6,8,NA,right,E15_Q7_ansL.png,E15_Q1_ansL.png,within,NA,NaN,NA,left,1579,0,1,1783.8999999985099
4gPgqbeo,NA,NA,4gPgqbeo,2020-0188,2021-09-23,00:58:05,01:55:35,NA,incomplete,false,NA,true,6,9,NA,left,E15_Q10_ansL.png,E18_Q4_ansR.png,between,NA,NaN,NA,left,2962.7999999970198,1,1,931.7000000029802
4gPgqbeo,NA,NA,4gPgqbeo,2020-0188,2021-09-23,00:58:05,01:55:35,NA,incomplete,false,NA,true,6,10,NA,right,E18_Q2_ansL.png,E18_Q4_ansR.png,within,NA,NaN,NA,left,1569.2999999970198,0,1,1000.7999999970198
4gPgqbeo,NA,NA,4gPgqbeo,2020-0188,2021-09-23,00:58:05,01:55:35,NA,incomplete,false,NA,true,6,11,NA,right,E18_Q9_ansR.png,E18_Q7_ansL.png,within,NA,NaN,NA,right,1471.5,1,1,1706.7999999970198
4gPgqbeo,NA,NA,4gPgqbeo,2020-0188,2021-09-23,00:58:05,01:55:35,NA,incomplete,false,NA,true,6,12,NA,right,E18_Q6_ansR.png,E15_Q3_ansR.png,between,NA,NaN,NA,right,1962,1,1,1313.6000000014901
4gPgqbeo,NA,NA,4gPgqbeo,2020-0188,2021-09-23,00:58:05,01:55:35,NA,incomplete,false,NA,true,6,13,NA,right,E23_Q9_ansR.png,E23_Q3_ansR.png,within,NA,NaN,NA,left,1962.1000000014901,0,1,1040.5
4gPgqbeo,NA,NA,4gPgqbeo,2020-0188,2021-09-23,00:58:05,01:55:35,NA,incomplete,false,NA,true,6,14,NA,right,E18_Q7_ansL.png,E18_Q10_ansL.png,within,NA,NaN,NA,right,1766.8999999985099,1,1,1207.6000000014901
4gPgqbeo,NA,NA,4gPgqbeo,2020-0188,2021-09-23,00:58:05,01:55:35,NA,incomplete,false,NA,true,6,15,NA,left,E15_Q6_ansR.png,E15_Q4_ansR.png,within,NA,NaN,NA,left,1158.2000000029802,1,1,1040.2999999970198
4gPgqbeo,NA,NA,4gPgqbeo,2020-0188,2021-09-23,00:58:05,01:55:35,NA,incomplete,false,NA,true,6,16,NA,right,E18_Q10_ansL.png,E15_Q7_ansL.png,between,NA,NaN,NA,right,5878.4000000059605,1,1,960.7000000029802
4gPgqbeo,NA,NA,4gPgqbeo,2020-0188,2021-09-23,00:58:05,01:55:35,NA,incomplete,false,NA,true,6,17,NA,right,E15_Q3_ansR.png,E15_Q2_ansL.png,within,NA,NaN,NA,left,1197.6000000014901,0,1,1432.6999999955297
4gPgqbeo,NA,NA,4gPgqbeo,2020-0188,2021-09-23,00:58:05,01:55:35,NA,incomplete,false,NA,true,6,18,NA,right,E23_Q1_ansL.png,E23_Q7_ansL.png,within,NA,NaN,NA,right,1971.7000000029802,1,1,991.8000000044703
4gPgqbeo,NA,NA,4gPgqbeo,2020-0188,2021-09-23,00:58:05,01:55:35,NA,incomplete,false,NA,true,6,19,NA,right,E15_Q9_ansR.png,E23_Q2_ansL.png,between,NA,NaN,NA,left,2070.7000000029802,0,1,990.8000000044703
4gPgqbeo,NA,NA,4gPgqbeo,2020-0188,2021-09-23,00:58:05,01:55:35,NA,incomplete,false,NA,true,6,20,NA,left,E15_Q4_ansR.png,E15_Q1_ansL.png,within,NA,NaN,NA,right,970.1000000014901,0,1,1727
4gPgqbeo,NA,NA,4gPgqbeo,2020-0188,2021-09-23,00:58:05,01:55:35,NA,incomplete,false,NA,true,6,21,NA,left,E23_Q1_ansL.png,E15_Q6_ansR.png,between,NA,NaN,NA,right,1521.8000000044703,0,2,2491.7000000029802
4gPgqbeo,NA,NA,4gPgqbeo,2020-0188,2021-09-23,00:58:05,01:55:35,NA,incomplete,false,NA,true,6,22,NA,right,E15_Q5_ansR.png,E15_Q8_ansL.png,within,NA,NaN,NA,left,1088.2000000029802,0,1,1255
4gPgqbeo,NA,NA,4gPgqbeo,2020-0188,2021-09-23,00:58:05,01:55:35,NA,incomplete,false,NA,true,6,23,NA,right,E15_Q10_ansL.png,E15_Q5_ansR.png,within,NA,NaN,NA,right,1000.5,1,1,793.7000000029802
4gPgqbeo,NA,NA,4gPgqbeo,2020-0188,2021-09-23,00:58:05,01:55:35,NA,incomplete,false,NA,true,6,24,NA,right,E23_Q6_ansR.png,E23_Q5_ansR.png,within,NA,NaN,NA,right,1991.6000000014901,1,1,1048.7000000029802
4gPgqbeo,NA,NA,4gPgqbeo,2020-0188,2021-09-23,00:58:05,01:55:35,NA,incomplete,false,NA,true,6,25,NA,right,E23_Q4_ansR.png,E23_Q9_ansR.png,within,NA,NaN,NA,left,1560.1000000014901,0,1,1401.8999999985099
4gPgqbeo,NA,NA,4gPgqbeo,2020-0188,2021-09-23,00:58:05,01:55:35,NA,incomplete,false,NA,true,6,26,NA,left,E23_Q8_ansL.png,E23_Q7_ansL.png,within,NA,NaN,NA,left,2078.8000000044703,1,1,1922
4gPgqbeo,NA,NA,4gPgqbeo,2020-0188,2021-09-23,00:58:05,01:55:35,NA,incomplete,false,true,NA,7,0,E29_Q10_ansL.png,left,NA,NA,NA,left,2715.80000000447,true,NA,NA,NA,NA,NA
4gPgqbeo,NA,NA,4gPgqbeo,2020-0188,2021-09-23,00:58:05,01:55:35,NA,incomplete,false,true,NA,7,1,E29_Q5_ansR.png,right,NA,NA,NA,right,1294.29999999702,true,NA,NA,NA,NA,NA
4gPgqbeo,NA,NA,4gPgqbeo,2020-0188,2021-09-23,00:58:05,01:55:35,NA,incomplete,false,true,NA,7,2,E29_Q7_ansL.png,left,NA,NA,NA,left,1105.39999999851,true,NA,NA,NA,NA,NA
4gPgqbeo,NA,NA,4gPgqbeo,2020-0188,2021-09-23,00:58:05,01:55:35,NA,incomplete,false,true,NA,7,3,E29_Q8_ansL.png,left,NA,NA,NA,left,958.10000000149,true,NA,NA,NA,NA,NA
4gPgqbeo,NA,NA,4gPgqbeo,2020-0188,2021-09-23,00:58:05,01:55:35,NA,incomplete,false,true,NA,7,4,E29_Q2_ansL.png,left,NA,NA,NA,left,1716.10000000149,true,NA,NA,NA,NA,NA
4gPgqbeo,NA,NA,4gPgqbeo,2020-0188,2021-09-23,00:58:05,01:55:35,NA,incomplete,false,true,NA,7,5,E29_Q9_ansR.png,right,NA,NA,NA,right,1809.29999999702,true,NA,NA,NA,NA,NA
4gPgqbeo,NA,NA,4gPgqbeo,2020-0188,2021-09-23,00:58:05,01:55:35,NA,incomplete,false,true,NA,7,6,E29_Q3_ansR.png,right,NA,NA,NA,right,1161.5,true,NA,NA,NA,NA,NA
4gPgqbeo,NA,NA,4gPgqbeo,2020-0188,2021-09-23,00:58:05,01:55:35,NA,incomplete,false,true,NA,7,7,E29_Q6_ansR.png,right,NA,NA,NA,right,1125.79999999702,true,NA,NA,NA,NA,NA
4gPgqbeo,NA,NA,4gPgqbeo,2020-0188,2021-09-23,00:58:05,01:55:35,NA,incomplete,false,true,NA,7,8,E29_Q4_ansR.png,right,NA,NA,NA,right,1362.89999999851,true,NA,NA,NA,NA,NA
4gPgqbeo,NA,NA,4gPgqbeo,2020-0188,2021-09-23,00:58:05,01:55:35,NA,incomplete,false,true,NA,7,9,E29_Q1_ansL.png,left,NA,NA,NA,left,1295.80000000447,true,NA,NA,NA,NA,NA
4gPgqbeo,NA,NA,4gPgqbeo,2020-0188,2021-09-23,00:58:05,01:55:35,NA,incomplete,false,true,NA,7,10,E21_Q2_ansL.png,left,NA,NA,NA,left,1629.19999999553,true,NA,NA,NA,NA,NA
4gPgqbeo,NA,NA,4gPgqbeo,2020-0188,2021-09-23,00:58:05,01:55:35,NA,incomplete,false,true,NA,7,11,E21_Q6_ansR.png,right,NA,NA,NA,right,1018.89999999851,true,NA,NA,NA,NA,NA
4gPgqbeo,NA,NA,4gPgqbeo,2020-0188,2021-09-23,00:58:05,01:55:35,NA,incomplete,false,true,NA,7,12,E21_Q3_ansR.png,right,NA,NA,NA,right,1188.89999999851,true,NA,NA,NA,NA,NA
4gPgqbeo,NA,NA,4gPgqbeo,2020-0188,2021-09-23,00:58:05,01:55:35,NA,incomplete,false,true,NA,7,13,E21_Q7_ansL.png,left,NA,NA,NA,left,1652.40000000596,true,NA,NA,NA,NA,NA
4gPgqbeo,NA,NA,4gPgqbeo,2020-0188,2021-09-23,00:58:05,01:55:35,NA,incomplete,false,true,NA,7,14,E21_Q5_ansR.png,right,NA,NA,NA,right,1463.30000000447,true,NA,NA,NA,NA,NA
4gPgqbeo,NA,NA,4gPgqbeo,2020-0188,2021-09-23,00:58:05,01:55:35,NA,incomplete,false,true,NA,7,15,E21_Q4_ansR.png,right,NA,NA,NA,right,1241.19999999553,true,NA,NA,NA,NA,NA
4gPgqbeo,NA,NA,4gPgqbeo,2020-0188,2021-09-23,00:58:05,01:55:35,NA,incomplete,false,true,NA,7,16,E21_Q8_ansL.png,left,NA,NA,NA,left,990.10000000149,true,NA,NA,NA,NA,NA
4gPgqbeo,NA,NA,4gPgqbeo,2020-0188,2021-09-23,00:58:05,01:55:35,NA,incomplete,false,true,NA,7,17,E21_Q10_ansL.png,left,NA,NA,NA,left,986.89999999851,true,NA,NA,NA,NA,NA
4gPgqbeo,NA,NA,4gPgqbeo,2020-0188,2021-09-23,00:58:05,01:55:35,NA,incomplete,false,true,NA,7,18,E21_Q1_ansL.png,left,NA,NA,NA,left,907,true,NA,NA,NA,NA,NA
4gPgqbeo,NA,NA,4gPgqbeo,2020-0188,2021-09-23,00:58:05,01:55:35,NA,incomplete,false,true,NA,7,19,E21_Q9_ansR.png,right,NA,NA,NA,right,1450.39999999851,true,NA,NA,NA,NA,NA
4gPgqbeo,NA,NA,4gPgqbeo,2020-0188,2021-09-23,00:58:05,01:55:35,NA,incomplete,false,true,NA,7,20,E22_Q9_ansL.png,left,NA,NA,NA,left,966.10000000149,true,NA,NA,NA,NA,NA
4gPgqbeo,NA,NA,4gPgqbeo,2020-0188,2021-09-23,00:58:05,01:55:35,NA,incomplete,false,true,NA,7,21,E22_Q1_ansR.png,right,NA,NA,NA,right,901.29999999702,true,NA,NA,NA,NA,NA
4gPgqbeo,NA,NA,4gPgqbeo,2020-0188,2021-09-23,00:58:05,01:55:35,NA,incomplete,false,true,NA,7,22,E22_Q2_ansR.png,right,NA,NA,NA,right,1062.09999999404,true,NA,NA,NA,NA,NA
4gPgqbeo,NA,NA,4gPgqbeo,2020-0188,2021-09-23,00:58:05,01:55:35,NA,incomplete,false,true,NA,7,23,E22_Q5_ansL.png,left,NA,NA,NA,left,939.39999999851,true,NA,NA,NA,NA,NA
4gPgqbeo,NA,NA,4gPgqbeo,2020-0188,2021-09-23,00:58:05,01:55:35,NA,incomplete,false,true,NA,7,24,E22_Q3_ansL.png,left,NA,NA,NA,left,846.39999999851,true,NA,NA,NA,NA,NA
4gPgqbeo,NA,NA,4gPgqbeo,2020-0188,2021-09-23,00:58:05,01:55:35,NA,incomplete,false,true,NA,7,25,E22_Q7_ansR.png,right,NA,NA,NA,right,1643.60000000149,true,NA,NA,NA,NA,NA
4gPgqbeo,NA,NA,4gPgqbeo,2020-0188,2021-09-23,00:58:05,01:55:35,NA,incomplete,false,true,NA,7,26,E22_Q6_ansL.png,left,NA,NA,NA,left,1151.5,true,NA,NA,NA,NA,NA
4gPgqbeo,NA,NA,4gPgqbeo,2020-0188,2021-09-23,00:58:05,01:55:35,NA,incomplete,false,true,NA,7,27,E22_Q8_ansR.png,right,NA,NA,NA,right,1573,true,NA,NA,NA,NA,NA
4gPgqbeo,NA,NA,4gPgqbeo,2020-0188,2021-09-23,00:58:05,01:55:35,NA,incomplete,false,true,NA,7,28,E22_Q4_ansL.png,left,NA,NA,NA,left,1197.69999999553,true,NA,NA,NA,NA,NA
4gPgqbeo,NA,NA,4gPgqbeo,2020-0188,2021-09-23,00:58:05,01:55:35,NA,incomplete,false,true,NA,7,29,E22_Q10_ansR.png,right,NA,NA,NA,right,1066.90000000596,true,NA,NA,NA,NA,NA
4gPgqbeo,NA,NA,4gPgqbeo,2020-0188,2021-09-23,00:58:05,01:55:35,NA,incomplete,false,NA,true,7,0,NA,left,E29_Q10_ansL.png,E29_Q8_ansL.png,within,NA,NaN,NA,left,1399.2000000029802,1,1,1164.8999999985099
4gPgqbeo,NA,NA,4gPgqbeo,2020-0188,2021-09-23,00:58:05,01:55:35,NA,incomplete,false,NA,true,7,1,NA,right,E21_Q9_ansR.png,E21_Q8_ansL.png,within,NA,NaN,NA,left,1352.1000000014901,0,1,861.2000000029802
4gPgqbeo,NA,NA,4gPgqbeo,2020-0188,2021-09-23,00:58:05,01:55:35,NA,incomplete,false,NA,true,7,2,NA,left,E29_Q8_ansL.png,E29_Q3_ansR.png,within,NA,NaN,NA,left,3929.60000000149,1,1,1067.2999999970198
4gPgqbeo,NA,NA,4gPgqbeo,2020-0188,2021-09-23,00:58:05,01:55:35,NA,incomplete,false,NA,true,7,3,NA,left,E22_Q7_ansR.png,E22_Q4_ansL.png,within,NA,NaN,NA,right,5010.19999999553,0,1,1019.2000000029802
4gPgqbeo,NA,NA,4gPgqbeo,2020-0188,2021-09-23,00:58:05,01:55:35,NA,incomplete,false,NA,true,7,4,NA,left,E21_Q5_ansR.png,E21_Q10_ansL.png,within,NA,NaN,NA,right,1637.5999999940395,0,1,1390.8999999985099
4gPgqbeo,NA,NA,4gPgqbeo,2020-0188,2021-09-23,00:58:05,01:55:35,NA,incomplete,false,NA,true,7,5,NA,right,E21_Q1_ansL.png,E21_Q4_ansR.png,within,NA,NaN,NA,right,1381.2000000029802,1,1,2577.5999999940395
4gPgqbeo,NA,NA,4gPgqbeo,2020-0188,2021-09-23,00:58:05,01:55:35,NA,incomplete,false,NA,true,7,6,NA,left,E29_Q1_ansL.png,E21_Q3_ansR.png,between,NA,NaN,NA,left,3432.39999999851,1,2,1831.1000000014901
4gPgqbeo,NA,NA,4gPgqbeo,2020-0188,2021-09-23,00:58:05,01:55:35,NA,incomplete,false,NA,true,7,7,NA,right,E22_Q5_ansL.png,E22_Q9_ansL.png,within,NA,NaN,NA,right,2530.0999999940395,1,1,1577.3000000044703
4gPgqbeo,NA,NA,4gPgqbeo,2020-0188,2021-09-23,00:58:05,01:55:35,NA,incomplete,false,NA,true,7,8,NA,right,E22_Q6_ansL.png,E22_Q5_ansL.png,within,NA,NaN,NA,left,2244.7000000029802,0,1,910.3000000044703
4gPgqbeo,NA,NA,4gPgqbeo,2020-0188,2021-09-23,00:58:05,01:55:35,NA,incomplete,false,NA,true,7,9,NA,left,E22_Q3_ansL.png,E22_Q8_ansR.png,within,NA,NaN,NA,right,1195.5,0,1,1282.7999999970198
4gPgqbeo,NA,NA,4gPgqbeo,2020-0188,2021-09-23,00:58:05,01:55:35,NA,incomplete,false,NA,true,7,10,NA,left,E22_Q2_ansR.png,E22_Q7_ansR.png,within,NA,NaN,NA,left,1755.8999999985099,1,1,912.5
4gPgqbeo,NA,NA,4gPgqbeo,2020-0188,2021-09-23,00:58:05,01:55:35,NA,incomplete,false,NA,true,7,11,NA,left,E21_Q6_ansR.png,E21_Q5_ansR.png,within,NA,NaN,NA,right,1412,0,1,1411.7999999970198
4gPgqbeo,NA,NA,4gPgqbeo,2020-0188,2021-09-23,00:58:05,01:55:35,NA,incomplete,false,NA,true,7,12,NA,right,E29_Q1_ansL.png,E29_Q3_ansR.png,within,NA,NaN,NA,right,1824.5999999940395,1,1,2040.3000000044703
4gPgqbeo,NA,NA,4gPgqbeo,2020-0188,2021-09-23,00:58:05,01:55:35,NA,incomplete,false,NA,true,7,13,NA,left,E21_Q3_ansR.png,E21_Q4_ansR.png,within,NA,NaN,NA,left,991.2999999970198,1,1,1216.5
4gPgqbeo,NA,NA,4gPgqbeo,2020-0188,2021-09-23,00:58:05,01:55:35,NA,incomplete,false,NA,true,7,14,NA,right,E22_Q2_ansR.png,E21_Q9_ansR.png,between,NA,NaN,NA,right,1724.5,1,2,1254.8999999985099
4gPgqbeo,NA,NA,4gPgqbeo,2020-0188,2021-09-23,00:58:05,01:55:35,NA,incomplete,false,NA,true,7,15,NA,right,E22_Q1_ansR.png,E21_Q1_ansL.png,between,NA,NaN,NA,right,1559.6000000014901,1,2,1048.8999999985099
4gPgqbeo,NA,NA,4gPgqbeo,2020-0188,2021-09-23,00:58:05,01:55:35,NA,incomplete,false,NA,true,7,16,NA,right,E22_Q10_ansR.png,E22_Q6_ansL.png,within,NA,NaN,NA,right,1422.8000000044703,1,1,1087.7999999970198
4gPgqbeo,NA,NA,4gPgqbeo,2020-0188,2021-09-23,00:58:05,01:55:35,NA,incomplete,false,NA,true,7,17,NA,right,E21_Q2_ansL.png,E29_Q6_ansR.png,between,NA,NaN,NA,right,2356.10000000149,1,2,1745.6999999955297
4gPgqbeo,NA,NA,4gPgqbeo,2020-0188,2021-09-23,00:58:05,01:55:35,NA,incomplete,false,NA,true,7,18,NA,left,E22_Q1_ansR.png,E22_Q3_ansL.png,within,NA,NaN,NA,left,1834.8000000044703,1,1,1118.0999999940395
4gPgqbeo,NA,NA,4gPgqbeo,2020-0188,2021-09-23,00:58:05,01:55:35,NA,incomplete,false,NA,true,7,19,NA,left,E29_Q9_ansR.png,E29_Q4_ansR.png,within,NA,NaN,NA,right,2658.7000000029802,0,1,1687.3999999985099
4gPgqbeo,NA,NA,4gPgqbeo,2020-0188,2021-09-23,00:58:05,01:55:35,NA,incomplete,false,NA,true,7,20,NA,left,E29_Q5_ansR.png,E29_Q2_ansL.png,within,NA,NaN,NA,left,1176.5,1,1,1039.2000000029802
4gPgqbeo,NA,NA,4gPgqbeo,2020-0188,2021-09-23,00:58:05,01:55:35,NA,incomplete,false,NA,true,7,21,NA,left,E29_Q7_ansL.png,E29_Q9_ansR.png,within,NA,NaN,NA,left,1334,1,1,951
4gPgqbeo,NA,NA,4gPgqbeo,2020-0188,2021-09-23,00:58:05,01:55:35,NA,incomplete,false,NA,true,7,22,NA,left,E21_Q7_ansL.png,E21_Q8_ansL.png,within,NA,NaN,NA,right,1283.6000000014901,0,1,1018.6000000014901
4gPgqbeo,NA,NA,4gPgqbeo,2020-0188,2021-09-23,00:58:05,01:55:35,NA,incomplete,false,NA,true,7,23,NA,right,E21_Q6_ansR.png,E29_Q4_ansR.png,between,NA,NaN,NA,right,1048.2000000029802,1,2,873.3999999985099
4gPgqbeo,NA,NA,4gPgqbeo,2020-0188,2021-09-23,00:58:05,01:55:35,NA,incomplete,false,NA,true,7,24,NA,left,E21_Q2_ansL.png,E21_Q7_ansL.png,within,NA,NaN,NA,left,1560,1,1,872.1000000014901
4gPgqbeo,NA,NA,4gPgqbeo,2020-0188,2021-09-23,00:58:05,01:55:35,NA,incomplete,false,NA,true,7,25,NA,left,E21_Q10_ansL.png,E22_Q9_ansL.png,between,NA,NaN,NA,left,1186.7000000029802,1,2,1244.8999999985099
4gPgqbeo,NA,NA,4gPgqbeo,2020-0188,2021-09-23,00:58:05,01:55:35,NA,incomplete,false,NA,true,7,26,NA,right,E29_Q6_ansR.png,E29_Q2_ansL.png,within,NA,NaN,NA,right,1609,1,1,981.2999999970198
4gPgqbeo,NA,NA,4gPgqbeo,2020-0188,2021-09-23,00:58:05,01:55:35,NA,incomplete,false,true,NA,8,0,E2_Q2_ansR.png,right,NA,NA,NA,right,1970.10000000149,true,NA,NA,NA,NA,NA
4gPgqbeo,NA,NA,4gPgqbeo,2020-0188,2021-09-23,00:58:05,01:55:35,NA,incomplete,false,true,NA,8,1,E2_Q1_ansL.png,left,NA,NA,NA,left,1527.10000000149,true,NA,NA,NA,NA,NA
4gPgqbeo,NA,NA,4gPgqbeo,2020-0188,2021-09-23,00:58:05,01:55:35,NA,incomplete,false,true,NA,8,2,E2_Q5_ansL.png,left,NA,NA,NA,left,1646.20000000298,true,NA,NA,NA,NA,NA
4gPgqbeo,NA,NA,4gPgqbeo,2020-0188,2021-09-23,00:58:05,01:55:35,NA,incomplete,false,true,NA,8,3,E2_Q8_ansR.png,right,NA,NA,NA,right,1637.20000000298,true,NA,NA,NA,NA,NA
4gPgqbeo,NA,NA,4gPgqbeo,2020-0188,2021-09-23,00:58:05,01:55:35,NA,incomplete,false,true,NA,8,4,E2_Q10_ansL.png,left,NA,NA,NA,left,1274,true,NA,NA,NA,NA,NA
4gPgqbeo,NA,NA,4gPgqbeo,2020-0188,2021-09-23,00:58:05,01:55:35,NA,incomplete,false,true,NA,8,5,E2_Q4_ansL.png,left,NA,NA,NA,left,1370.10000000149,true,NA,NA,NA,NA,NA
4gPgqbeo,NA,NA,4gPgqbeo,2020-0188,2021-09-23,00:58:05,01:55:35,NA,incomplete,false,true,NA,8,6,E2_Q3_ansR.png,right,NA,NA,NA,right,1651.79999999702,true,NA,NA,NA,NA,NA
4gPgqbeo,NA,NA,4gPgqbeo,2020-0188,2021-09-23,00:58:05,01:55:35,NA,incomplete,false,true,NA,8,7,E2_Q7_ansR.png,right,NA,NA,NA,right,1311.59999999404,true,NA,NA,NA,NA,NA
4gPgqbeo,NA,NA,4gPgqbeo,2020-0188,2021-09-23,00:58:05,01:55:35,NA,incomplete,false,true,NA,8,8,E2_Q9_ansL.png,left,NA,NA,NA,left,1557.89999999851,true,NA,NA,NA,NA,NA
4gPgqbeo,NA,NA,4gPgqbeo,2020-0188,2021-09-23,00:58:05,01:55:35,NA,incomplete,false,true,NA,8,9,E2_Q6_ansL.png,left,NA,NA,NA,left,1009.29999999702,true,NA,NA,NA,NA,NA
4gPgqbeo,NA,NA,4gPgqbeo,2020-0188,2021-09-23,00:58:05,01:55:35,NA,incomplete,false,true,NA,8,10,E5_Q8_ansL.png,left,NA,NA,NA,left,1896.5,true,NA,NA,NA,NA,NA
4gPgqbeo,NA,NA,4gPgqbeo,2020-0188,2021-09-23,00:58:05,01:55:35,NA,incomplete,false,true,NA,8,11,E5_Q4_ansR.png,right,NA,NA,NA,right,950.89999999851,true,NA,NA,NA,NA,NA
4gPgqbeo,NA,NA,4gPgqbeo,2020-0188,2021-09-23,00:58:05,01:55:35,NA,incomplete,false,true,NA,8,12,E5_Q10_ansR.png,right,NA,NA,NA,right,1175.79999999702,true,NA,NA,NA,NA,NA
4gPgqbeo,NA,NA,4gPgqbeo,2020-0188,2021-09-23,00:58:05,01:55:35,NA,incomplete,false,true,NA,8,13,E5_Q5_ansR.png,right,NA,NA,NA,right,1312.5,true,NA,NA,NA,NA,NA
4gPgqbeo,NA,NA,4gPgqbeo,2020-0188,2021-09-23,00:58:05,01:55:35,NA,incomplete,false,true,NA,8,14,E5_Q3_ansR.png,right,NA,NA,NA,right,1192.39999999851,true,NA,NA,NA,NA,NA
4gPgqbeo,NA,NA,4gPgqbeo,2020-0188,2021-09-23,00:58:05,01:55:35,NA,incomplete,false,true,NA,8,15,E5_Q2_ansL.png,left,NA,NA,NA,left,1099.29999999702,true,NA,NA,NA,NA,NA
4gPgqbeo,NA,NA,4gPgqbeo,2020-0188,2021-09-23,00:58:05,01:55:35,NA,incomplete,false,true,NA,8,16,E5_Q7_ansL.png,left,NA,NA,NA,left,1339.39999999851,true,NA,NA,NA,NA,NA
4gPgqbeo,NA,NA,4gPgqbeo,2020-0188,2021-09-23,00:58:05,01:55:35,NA,incomplete,false,true,NA,8,17,E5_Q1_ansL.png,left,NA,NA,NA,left,999.30000000447,true,NA,NA,NA,NA,NA
4gPgqbeo,NA,NA,4gPgqbeo,2020-0188,2021-09-23,00:58:05,01:55:35,NA,incomplete,false,true,NA,8,18,E5_Q6_ansR.png,right,NA,NA,NA,right,2218.29999999702,true,NA,NA,NA,NA,NA
4gPgqbeo,NA,NA,4gPgqbeo,2020-0188,2021-09-23,00:58:05,01:55:35,NA,incomplete,false,true,NA,8,19,E5_Q9_ansR.png,right,NA,NA,NA,right,1402.20000000298,true,NA,NA,NA,NA,NA
4gPgqbeo,NA,NA,4gPgqbeo,2020-0188,2021-09-23,00:58:05,01:55:35,NA,incomplete,false,true,NA,8,20,E8_Q9_ansL.png,left,NA,NA,NA,left,1527.70000000298,true,NA,NA,NA,NA,NA
4gPgqbeo,NA,NA,4gPgqbeo,2020-0188,2021-09-23,00:58:05,01:55:35,NA,incomplete,false,true,NA,8,21,E8_Q3_ansL.png,left,NA,NA,NA,left,1382.5,true,NA,NA,NA,NA,NA
4gPgqbeo,NA,NA,4gPgqbeo,2020-0188,2021-09-23,00:58:05,01:55:35,NA,incomplete,false,true,NA,8,22,E8_Q8_ansR.png,right,NA,NA,NA,right,962.79999999702,true,NA,NA,NA,NA,NA
4gPgqbeo,NA,NA,4gPgqbeo,2020-0188,2021-09-23,00:58:05,01:55:35,NA,incomplete,false,true,NA,8,23,E8_Q7_ansR.png,right,NA,NA,NA,right,1490.19999999553,true,NA,NA,NA,NA,NA
4gPgqbeo,NA,NA,4gPgqbeo,2020-0188,2021-09-23,00:58:05,01:55:35,NA,incomplete,false,true,NA,8,24,E8_Q6_ansL.png,left,NA,NA,NA,left,1426.69999999553,true,NA,NA,NA,NA,NA
4gPgqbeo,NA,NA,4gPgqbeo,2020-0188,2021-09-23,00:58:05,01:55:35,NA,incomplete,false,true,NA,8,25,E8_Q1_ansR.png,right,NA,NA,NA,right,1477.30000000447,true,NA,NA,NA,NA,NA
4gPgqbeo,NA,NA,4gPgqbeo,2020-0188,2021-09-23,00:58:05,01:55:35,NA,incomplete,false,true,NA,8,26,E8_Q2_ansR.png,right,NA,NA,NA,right,1787.69999999553,true,NA,NA,NA,NA,NA
4gPgqbeo,NA,NA,4gPgqbeo,2020-0188,2021-09-23,00:58:05,01:55:35,NA,incomplete,false,true,NA,8,27,E8_Q5_ansL.png,left,NA,NA,NA,left,1053.30000000447,true,NA,NA,NA,NA,NA
4gPgqbeo,NA,NA,4gPgqbeo,2020-0188,2021-09-23,00:58:05,01:55:35,NA,incomplete,false,true,NA,8,28,E8_Q10_ansR.png,right,NA,NA,NA,right,1529.30000000447,true,NA,NA,NA,NA,NA
4gPgqbeo,NA,NA,4gPgqbeo,2020-0188,2021-09-23,00:58:05,01:55:35,NA,incomplete,false,true,NA,8,29,E8_Q4_ansL.png,left,NA,NA,NA,left,1133.80000000447,true,NA,NA,NA,NA,NA
4gPgqbeo,NA,NA,4gPgqbeo,2020-0188,2021-09-23,00:58:05,01:55:35,NA,incomplete,false,NA,true,8,0,NA,right,E5_Q1_ansL.png,E5_Q3_ansR.png,within,NA,NaN,NA,right,2095.10000000149,1,1,1331.2000000029802
4gPgqbeo,NA,NA,4gPgqbeo,2020-0188,2021-09-23,00:58:05,01:55:35,NA,incomplete,false,NA,true,8,1,NA,right,E8_Q3_ansL.png,E5_Q6_ansR.png,between,NA,NaN,NA,right,1734.3999999985099,1,2,1311.2000000029802
4gPgqbeo,NA,NA,4gPgqbeo,2020-0188,2021-09-23,00:58:05,01:55:35,NA,incomplete,false,NA,true,8,2,NA,left,E2_Q1_ansL.png,E2_Q10_ansL.png,within,NA,NaN,NA,left,2224.60000000149,1,1,1067.6999999955297
4gPgqbeo,NA,NA,4gPgqbeo,2020-0188,2021-09-23,00:58:05,01:55:35,NA,incomplete,false,NA,true,8,3,NA,left,E8_Q6_ansL.png,E8_Q5_ansL.png,within,NA,NaN,NA,left,1342.0999999940395,1,1,1125.6999999955297
4gPgqbeo,NA,NA,4gPgqbeo,2020-0188,2021-09-23,00:58:05,01:55:35,NA,incomplete,false,NA,true,8,4,NA,left,E8_Q1_ansR.png,E8_Q10_ansR.png,within,NA,NaN,NA,right,3304.7999999970198,0,1,1017.3999999985099
4gPgqbeo,NA,NA,4gPgqbeo,2020-0188,2021-09-23,00:58:05,01:55:35,NA,incomplete,false,NA,true,8,5,NA,left,E8_Q9_ansL.png,E8_Q7_ansR.png,within,NA,NaN,NA,left,1292.5,1,1,948.8999999985099
4gPgqbeo,NA,NA,4gPgqbeo,2020-0188,2021-09-23,00:58:05,01:55:35,NA,incomplete,false,NA,true,8,6,NA,left,E2_Q10_ansL.png,E2_Q7_ansR.png,within,NA,NaN,NA,left,2009.7000000029802,1,1,881
4gPgqbeo,NA,NA,4gPgqbeo,2020-0188,2021-09-23,00:58:05,01:55:35,NA,incomplete,false,NA,true,8,7,NA,left,E8_Q7_ansR.png,E8_Q2_ansR.png,within,NA,NaN,NA,left,1323.1000000014901,1,1,1058.8000000044703
4gPgqbeo,NA,NA,4gPgqbeo,2020-0188,2021-09-23,00:58:05,01:55:35,NA,incomplete,false,NA,true,8,8,NA,left,E8_Q8_ansR.png,E8_Q1_ansR.png,within,NA,NaN,NA,left,1196.2999999970198,1,1,1088.7999999970198
4gPgqbeo,NA,NA,4gPgqbeo,2020-0188,2021-09-23,00:58:05,01:55:35,NA,incomplete,false,NA,true,8,9,NA,right,E8_Q8_ansR.png,E5_Q9_ansR.png,between,NA,NaN,NA,right,1510.5,1,2,1273.3000000044703
4gPgqbeo,NA,NA,4gPgqbeo,2020-0188,2021-09-23,00:58:05,01:55:35,NA,incomplete,false,NA,true,8,10,NA,right,E2_Q6_ansL.png,E2_Q3_ansR.png,within,NA,NaN,NA,right,3619,1,1,1000.3999999985099
4gPgqbeo,NA,NA,4gPgqbeo,2020-0188,2021-09-23,00:58:05,01:55:35,NA,incomplete,false,NA,true,8,11,NA,right,E5_Q8_ansL.png,E2_Q7_ansR.png,between,NA,NaN,NA,right,1510,1,2,1755.0999999940395
4gPgqbeo,NA,NA,4gPgqbeo,2020-0188,2021-09-23,00:58:05,01:55:35,NA,incomplete,false,NA,true,8,12,NA,right,E5_Q9_ansR.png,E5_Q7_ansL.png,within,NA,NaN,NA,right,1758,1,1,1186.7999999970198
4gPgqbeo,NA,NA,4gPgqbeo,2020-0188,2021-09-23,00:58:05,01:55:35,NA,incomplete,false,NA,true,8,13,NA,left,E5_Q10_ansR.png,E5_Q2_ansL.png,within,NA,NaN,NA,right,1254.3999999985099,0,1,1059
4gPgqbeo,NA,NA,4gPgqbeo,2020-0188,2021-09-23,00:58:05,01:55:35,NA,incomplete,false,NA,true,8,14,NA,right,E2_Q8_ansR.png,E2_Q2_ansR.png,within,NA,NaN,NA,right,1864.3999999985099,1,1,1636.8999999985099
4gPgqbeo,NA,NA,4gPgqbeo,2020-0188,2021-09-23,00:58:05,01:55:35,NA,incomplete,false,NA,true,8,15,NA,right,E5_Q5_ansR.png,E5_Q8_ansL.png,within,NA,NaN,NA,left,1226.1000000014901,0,1,969
4gPgqbeo,NA,NA,4gPgqbeo,2020-0188,2021-09-23,00:58:05,01:55:35,NA,incomplete,false,NA,true,8,16,NA,left,E2_Q4_ansL.png,E2_Q9_ansL.png,within,NA,NaN,NA,left,1205.2999999970198,1,1,1392
4gPgqbeo,NA,NA,4gPgqbeo,2020-0188,2021-09-23,00:58:05,01:55:35,NA,incomplete,false,NA,true,8,17,NA,right,E8_Q4_ansL.png,E8_Q2_ansR.png,within,NA,NaN,NA,right,1609.1000000014901,1,0,1087.7999999970198
4gPgqbeo,NA,NA,4gPgqbeo,2020-0188,2021-09-23,00:58:05,01:55:35,NA,incomplete,false,NA,true,8,18,NA,left,E2_Q6_ansL.png,E5_Q10_ansR.png,between,NA,NaN,NA,left,1472.5,1,2,970.2999999970198
4gPgqbeo,NA,NA,4gPgqbeo,2020-0188,2021-09-23,00:58:05,01:55:35,NA,incomplete,false,NA,true,8,19,NA,left,E2_Q8_ansR.png,E2_Q3_ansR.png,within,NA,NaN,NA,left,1910.2999999970198,1,1,1117.3999999985099
4gPgqbeo,NA,NA,4gPgqbeo,2020-0188,2021-09-23,00:58:05,01:55:35,NA,incomplete,false,NA,true,8,20,NA,right,E2_Q4_ansL.png,E2_Q5_ansL.png,within,NA,NaN,NA,right,1627.7000000029802,1,1,921.6999999955297
4gPgqbeo,NA,NA,4gPgqbeo,2020-0188,2021-09-23,00:58:05,01:55:35,NA,incomplete,false,NA,true,8,21,NA,right,E5_Q7_ansL.png,E5_Q5_ansR.png,within,NA,NaN,NA,right,1224.6000000014901,1,1,2814.60000000149
4gPgqbeo,NA,NA,4gPgqbeo,2020-0188,2021-09-23,00:58:05,01:55:35,NA,incomplete,false,NA,true,8,22,NA,left,E5_Q2_ansL.png,E5_Q6_ansR.png,within,NA,NaN,NA,right,1294,0,1,1086.3000000044703
4gPgqbeo,NA,NA,4gPgqbeo,2020-0188,2021-09-23,00:58:05,01:55:35,NA,incomplete,false,NA,true,8,23,NA,left,E5_Q1_ansL.png,E8_Q9_ansL.png,between,NA,NaN,NA,left,1355.1000000014901,1,2,1530
4gPgqbeo,NA,NA,4gPgqbeo,2020-0188,2021-09-23,00:58:05,01:55:35,NA,incomplete,false,NA,true,8,24,NA,left,E5_Q4_ansR.png,E5_Q3_ansR.png,within,NA,NaN,NA,left,2513.5,1,1,1020.3000000044703
4gPgqbeo,NA,NA,4gPgqbeo,2020-0188,2021-09-23,00:58:05,01:55:35,NA,incomplete,false,NA,true,8,25,NA,right,E8_Q6_ansL.png,E8_Q3_ansL.png,within,NA,NaN,NA,right,1236.7000000029802,1,1,2100.60000000149
4gPgqbeo,NA,NA,4gPgqbeo,2020-0188,2021-09-23,00:58:05,01:55:35,NA,incomplete,false,NA,true,8,26,NA,left,E2_Q9_ansL.png,E5_Q4_ansR.png,between,NA,NaN,NA,left,3249.7000000029802,1,2,1688.5
4gPgqbeo,NA,NA,4gPgqbeo,2020-0188,2021-09-23,00:58:05,01:55:35,NA,incomplete,false,true,NA,9,0,E11_Q2_ansR.png,right,NA,NA,NA,right,1250.70000000298,true,NA,NA,NA,NA,NA
4gPgqbeo,NA,NA,4gPgqbeo,2020-0188,2021-09-23,00:58:05,01:55:35,NA,incomplete,false,true,NA,9,1,E11_Q10_ansR.png,right,NA,NA,NA,right,1246.79999999702,true,NA,NA,NA,NA,NA
4gPgqbeo,NA,NA,4gPgqbeo,2020-0188,2021-09-23,00:58:05,01:55:35,NA,incomplete,false,true,NA,9,2,E11_Q6_ansL.png,left,NA,NA,NA,left,1395.89999999851,true,NA,NA,NA,NA,NA
4gPgqbeo,NA,NA,4gPgqbeo,2020-0188,2021-09-23,00:58:05,01:55:35,NA,incomplete,false,true,NA,9,3,E11_Q4_ansL.png,left,NA,NA,NA,left,1245.89999999851,true,NA,NA,NA,NA,NA
4gPgqbeo,NA,NA,4gPgqbeo,2020-0188,2021-09-23,00:58:05,01:55:35,NA,incomplete,false,true,NA,9,4,E11_Q1_ansR.png,right,NA,NA,NA,right,1149,true,NA,NA,NA,NA,NA
4gPgqbeo,NA,NA,4gPgqbeo,2020-0188,2021-09-23,00:58:05,01:55:35,NA,incomplete,false,true,NA,9,5,E11_Q5_ansL.png,left,NA,NA,NA,left,1298.69999999553,true,NA,NA,NA,NA,NA
4gPgqbeo,NA,NA,4gPgqbeo,2020-0188,2021-09-23,00:58:05,01:55:35,NA,incomplete,false,true,NA,9,6,E11_Q9_ansL.png,left,NA,NA,NA,left,909.80000000447,true,NA,NA,NA,NA,NA
4gPgqbeo,NA,NA,4gPgqbeo,2020-0188,2021-09-23,00:58:05,01:55:35,NA,incomplete,false,true,NA,9,7,E11_Q7_ansR.png,right,NA,NA,NA,right,1258.79999999702,true,NA,NA,NA,NA,NA
4gPgqbeo,NA,NA,4gPgqbeo,2020-0188,2021-09-23,00:58:05,01:55:35,NA,incomplete,false,true,NA,9,8,E11_Q8_ansR.png,right,NA,NA,NA,right,1321.10000000149,true,NA,NA,NA,NA,NA
4gPgqbeo,NA,NA,4gPgqbeo,2020-0188,2021-09-23,00:58:05,01:55:35,NA,incomplete,false,true,NA,9,9,E11_Q3_ansL.png,left,NA,NA,NA,left,754.5,true,NA,NA,NA,NA,NA
4gPgqbeo,NA,NA,4gPgqbeo,2020-0188,2021-09-23,00:58:05,01:55:35,NA,incomplete,false,true,NA,9,10,E27_Q2_ansL.png,left,NA,NA,NA,left,1521.39999999851,true,NA,NA,NA,NA,NA
4gPgqbeo,NA,NA,4gPgqbeo,2020-0188,2021-09-23,00:58:05,01:55:35,NA,incomplete,false,true,NA,9,11,E27_Q3_ansR.png,right,NA,NA,NA,right,1264.29999999702,true,NA,NA,NA,NA,NA
4gPgqbeo,NA,NA,4gPgqbeo,2020-0188,2021-09-23,00:58:05,01:55:35,NA,incomplete,false,true,NA,9,12,E27_Q6_ansR.png,right,NA,NA,NA,right,1604.30000000447,true,NA,NA,NA,NA,NA
4gPgqbeo,NA,NA,4gPgqbeo,2020-0188,2021-09-23,00:58:05,01:55:35,NA,incomplete,false,true,NA,9,13,E27_Q9_ansR.png,right,NA,NA,NA,right,1332.5,true,NA,NA,NA,NA,NA
4gPgqbeo,NA,NA,4gPgqbeo,2020-0188,2021-09-23,00:58:05,01:55:35,NA,incomplete,false,true,NA,9,14,E27_Q1_ansL.png,left,NA,NA,NA,left,971.89999999851,true,NA,NA,NA,NA,NA
4gPgqbeo,NA,NA,4gPgqbeo,2020-0188,2021-09-23,00:58:05,01:55:35,NA,incomplete,false,true,NA,9,15,E27_Q8_ansL.png,left,NA,NA,NA,left,910.20000000298,true,NA,NA,NA,NA,NA
4gPgqbeo,NA,NA,4gPgqbeo,2020-0188,2021-09-23,00:58:05,01:55:35,NA,incomplete,false,true,NA,9,16,E27_Q4_ansR.png,right,NA,NA,NA,right,750.60000000149,true,NA,NA,NA,NA,NA
4gPgqbeo,NA,NA,4gPgqbeo,2020-0188,2021-09-23,00:58:05,01:55:35,NA,incomplete,false,true,NA,9,17,E27_Q5_ansR.png,right,NA,NA,NA,right,930.5,true,NA,NA,NA,NA,NA
4gPgqbeo,NA,NA,4gPgqbeo,2020-0188,2021-09-23,00:58:05,01:55:35,NA,incomplete,false,true,NA,9,18,E27_Q7_ansL.png,left,NA,NA,NA,left,942.5,true,NA,NA,NA,NA,NA
4gPgqbeo,NA,NA,4gPgqbeo,2020-0188,2021-09-23,00:58:05,01:55:35,NA,incomplete,false,true,NA,9,19,E27_Q10_ansL.png,left,NA,NA,NA,left,923.40000000596,true,NA,NA,NA,NA,NA
4gPgqbeo,NA,NA,4gPgqbeo,2020-0188,2021-09-23,00:58:05,01:55:35,NA,incomplete,false,true,NA,9,20,E31_Q10_ansR.png,right,NA,NA,NA,right,2030.60000000149,true,NA,NA,NA,NA,NA
4gPgqbeo,NA,NA,4gPgqbeo,2020-0188,2021-09-23,00:58:05,01:55:35,NA,incomplete,false,true,NA,9,21,E31_Q5_ansL.png,left,NA,NA,NA,left,1583.70000000298,true,NA,NA,NA,NA,NA
4gPgqbeo,NA,NA,4gPgqbeo,2020-0188,2021-09-23,00:58:05,01:55:35,NA,incomplete,false,true,NA,9,22,E31_Q2_ansR.png,right,NA,NA,NA,right,1556.60000000149,true,NA,NA,NA,NA,NA
4gPgqbeo,NA,NA,4gPgqbeo,2020-0188,2021-09-23,00:58:05,01:55:35,NA,incomplete,false,true,NA,9,23,E31_Q6_ansL.png,left,NA,NA,NA,left,1038.10000000149,true,NA,NA,NA,NA,NA
4gPgqbeo,NA,NA,4gPgqbeo,2020-0188,2021-09-23,00:58:05,01:55:35,NA,incomplete,false,true,NA,9,24,E31_Q1_ansR.png,right,NA,NA,NA,right,1960.69999999553,true,NA,NA,NA,NA,NA
4gPgqbeo,NA,NA,4gPgqbeo,2020-0188,2021-09-23,00:58:05,01:55:35,NA,incomplete,false,true,NA,9,25,E31_Q8_ansR.png,right,NA,NA,NA,right,1372.40000000596,true,NA,NA,NA,NA,NA
4gPgqbeo,NA,NA,4gPgqbeo,2020-0188,2021-09-23,00:58:05,01:55:35,NA,incomplete,false,true,NA,9,26,E31_Q4_ansL.png,left,NA,NA,NA,left,879.29999999702,true,NA,NA,NA,NA,NA
4gPgqbeo,NA,NA,4gPgqbeo,2020-0188,2021-09-23,00:58:05,01:55:35,NA,incomplete,false,true,NA,9,27,E31_Q3_ansL.png,left,NA,NA,NA,left,1063.19999999553,true,NA,NA,NA,NA,NA
4gPgqbeo,NA,NA,4gPgqbeo,2020-0188,2021-09-23,00:58:05,01:55:35,NA,incomplete,false,true,NA,9,28,E31_Q7_ansR.png,right,NA,NA,NA,right,1016.89999999851,true,NA,NA,NA,NA,NA
4gPgqbeo,NA,NA,4gPgqbeo,2020-0188,2021-09-23,00:58:05,01:55:35,NA,incomplete,false,true,NA,9,29,E31_Q9_ansL.png,left,NA,NA,NA,left,1876.39999999851,true,NA,NA,NA,NA,NA
4gPgqbeo,NA,NA,4gPgqbeo,2020-0188,2021-09-23,00:58:05,01:55:35,NA,incomplete,false,NA,true,9,0,NA,left,E31_Q6_ansL.png,E31_Q4_ansL.png,within,NA,NaN,NA,left,3370.5,1,1,959.5
4gPgqbeo,NA,NA,4gPgqbeo,2020-0188,2021-09-23,00:58:05,01:55:35,NA,incomplete,false,NA,true,9,1,NA,left,E27_Q4_ansR.png,E27_Q10_ansL.png,within,NA,NaN,NA,right,1390.6000000014901,0,1,1517.2000000029802
4gPgqbeo,NA,NA,4gPgqbeo,2020-0188,2021-09-23,00:58:05,01:55:35,NA,incomplete,false,NA,true,9,2,NA,left,E27_Q10_ansL.png,E31_Q2_ansR.png,between,NA,NaN,NA,left,2088.2000000029802,1,2,1145.8999999985099
4gPgqbeo,NA,NA,4gPgqbeo,2020-0188,2021-09-23,00:58:05,01:55:35,NA,incomplete,false,NA,true,9,3,NA,right,E31_Q10_ansR.png,E27_Q5_ansR.png,between,NA,NaN,NA,right,3401.7999999970198,1,2,1901.3999999985099
4gPgqbeo,NA,NA,4gPgqbeo,2020-0188,2021-09-23,00:58:05,01:55:35,NA,incomplete,false,NA,true,9,4,NA,left,E27_Q1_ansL.png,E27_Q5_ansR.png,within,NA,NaN,NA,left,1440.3999999985099,1,1,2196.2999999970198
4gPgqbeo,NA,NA,4gPgqbeo,2020-0188,2021-09-23,00:58:05,01:55:35,NA,incomplete,false,NA,true,9,5,NA,left,E27_Q3_ansR.png,E27_Q1_ansL.png,within,NA,NaN,NA,left,1136.8999999985099,1,1,1205.7000000029802
4gPgqbeo,NA,NA,4gPgqbeo,2020-0188,2021-09-23,00:58:05,01:55:35,NA,incomplete,false,NA,true,9,6,NA,right,E27_Q4_ansR.png,E27_Q9_ansR.png,within,NA,NaN,NA,left,1390.8000000044703,0,1,1001.1000000014901
4gPgqbeo,NA,NA,4gPgqbeo,2020-0188,2021-09-23,00:58:05,01:55:35,NA,incomplete,false,NA,true,9,7,NA,right,E11_Q1_ansR.png,E11_Q10_ansR.png,within,NA,NaN,NA,right,1481.1000000014901,1,1,1206.3999999985099
4gPgqbeo,NA,NA,4gPgqbeo,2020-0188,2021-09-23,00:58:05,01:55:35,NA,incomplete,false,NA,true,9,8,NA,right,E11_Q9_ansL.png,E11_Q4_ansL.png,within,NA,NaN,NA,right,1440.9000000059605,1,1,1354.3000000044703
4gPgqbeo,NA,NA,4gPgqbeo,2020-0188,2021-09-23,00:58:05,01:55:35,NA,incomplete,false,NA,true,9,9,NA,left,E11_Q8_ansR.png,E27_Q3_ansR.png,between,NA,NaN,NA,left,1128.1000000014901,1,2,1147
4gPgqbeo,NA,NA,4gPgqbeo,2020-0188,2021-09-23,00:58:05,01:55:35,NA,incomplete,false,NA,true,9,10,NA,left,E11_Q6_ansL.png,E11_Q5_ansL.png,within,NA,NaN,NA,left,1962.5999999940395,1,1,1647.6999999955297
4gPgqbeo,NA,NA,4gPgqbeo,2020-0188,2021-09-23,00:58:05,01:55:35,NA,incomplete,false,NA,true,9,11,NA,right,E11_Q7_ansR.png,E11_Q1_ansR.png,within,NA,NaN,NA,right,2030.2999999970198,1,1,1029.8000000044703
4gPgqbeo,NA,NA,4gPgqbeo,2020-0188,2021-09-23,00:58:05,01:55:35,NA,incomplete,false,NA,true,9,12,NA,left,E11_Q3_ansL.png,E27_Q6_ansR.png,between,NA,NaN,NA,left,2070,1,2,2453.10000000149
