workerId,hitId,assignmentId,subject,studyid,exp_date,exp_start,exp_end,time_start,time_end,practice,encoding,memory,block,trial,stim,answer,left_image,right_image,condition,response,response_time,response_acc,order_response,order_response_time,order_acc,distance_response,distance_response_time
7AyKpd06,NA,NA,7AyKpd06,2020-0188,2021-09-22,07:22:14,08:54:36,NA,incomplete,true,true,NA,0,0,E17_Q2_ansL.png,left,NA,NA,NA,left,2053.30000001192,true,NA,NA,NA,NA,NA
7AyKpd06,NA,NA,7AyKpd06,2020-0188,2021-09-22,07:22:14,08:54:36,NA,incomplete,true,true,NA,0,1,E17_Q3_ansR.png,right,NA,NA,NA,right,1484.79999998212,true,NA,NA,NA,NA,NA
7AyKpd06,NA,NA,7AyKpd06,2020-0188,2021-09-22,07:22:14,08:54:36,NA,incomplete,true,true,NA,0,2,E17_Q9_ansR.png,right,NA,NA,NA,right,962.800000011921,true,NA,NA,NA,NA,NA
7AyKpd06,NA,NA,7AyKpd06,2020-0188,2021-09-22,07:22:14,08:54:36,NA,incomplete,true,true,NA,0,3,E17_Q5_ansR.png,right,NA,NA,NA,right,1511.80000001192,true,NA,NA,NA,NA,NA
7AyKpd06,NA,NA,7AyKpd06,2020-0188,2021-09-22,07:22:14,08:54:36,NA,incomplete,true,true,NA,0,4,E17_Q10_ansL.png,left,NA,NA,NA,left,1356.59999999404,true,NA,NA,NA,NA,NA
7AyKpd06,NA,NA,7AyKpd06,2020-0188,2021-09-22,07:22:14,08:54:36,NA,incomplete,true,true,NA,0,5,E17_Q4_ansR.png,right,NA,NA,NA,right,1216.40000000596,true,NA,NA,NA,NA,NA
7AyKpd06,NA,NA,7AyKpd06,2020-0188,2021-09-22,07:22:14,08:54:36,NA,incomplete,true,true,NA,0,6,E17_Q8_ansL.png,left,NA,NA,NA,left,896,true,NA,NA,NA,NA,NA
7AyKpd06,NA,NA,7AyKpd06,2020-0188,2021-09-22,07:22:14,08:54:36,NA,incomplete,true,true,NA,0,7,E17_Q7_ansL.png,left,NA,NA,NA,left,1236.79999998212,true,NA,NA,NA,NA,NA
7AyKpd06,NA,NA,7AyKpd06,2020-0188,2021-09-22,07:22:14,08:54:36,NA,incomplete,true,true,NA,0,8,E17_Q6_ansR.png,right,NA,NA,NA,right,1275.09999999404,true,NA,NA,NA,NA,NA
7AyKpd06,NA,NA,7AyKpd06,2020-0188,2021-09-22,07:22:14,08:54:36,NA,incomplete,true,true,NA,0,9,E17_Q1_ansL.png,left,NA,NA,NA,left,1226.90000000596,true,NA,NA,NA,NA,NA
7AyKpd06,NA,NA,7AyKpd06,2020-0188,2021-09-22,07:22:14,08:54:36,NA,incomplete,true,true,NA,0,10,E31_Q4_ansL.png,left,NA,NA,NA,left,2066.90000000596,true,NA,NA,NA,NA,NA
7AyKpd06,NA,NA,7AyKpd06,2020-0188,2021-09-22,07:22:14,08:54:36,NA,incomplete,true,true,NA,0,11,E31_Q6_ansL.png,left,NA,NA,NA,left,1626.09999999404,true,NA,NA,NA,NA,NA
7AyKpd06,NA,NA,7AyKpd06,2020-0188,2021-09-22,07:22:14,08:54:36,NA,incomplete,true,true,NA,0,12,E31_Q3_ansL.png,left,NA,NA,NA,left,1228.59999999404,true,NA,NA,NA,NA,NA
7AyKpd06,NA,NA,7AyKpd06,2020-0188,2021-09-22,07:22:14,08:54:36,NA,incomplete,true,true,NA,0,13,E31_Q8_ansR.png,right,NA,NA,NA,right,1172.59999999404,true,NA,NA,NA,NA,NA
7AyKpd06,NA,NA,7AyKpd06,2020-0188,2021-09-22,07:22:14,08:54:36,NA,incomplete,true,true,NA,0,14,E31_Q5_ansL.png,left,NA,NA,NA,left,1448.90000000596,true,NA,NA,NA,NA,NA
7AyKpd06,NA,NA,7AyKpd06,2020-0188,2021-09-22,07:22:14,08:54:36,NA,incomplete,true,true,NA,0,15,E31_Q7_ansR.png,right,NA,NA,NA,right,1320.09999999404,true,NA,NA,NA,NA,NA
7AyKpd06,NA,NA,7AyKpd06,2020-0188,2021-09-22,07:22:14,08:54:36,NA,incomplete,true,true,NA,0,16,E31_Q1_ansR.png,right,NA,NA,NA,right,1010.19999998808,true,NA,NA,NA,NA,NA
7AyKpd06,NA,NA,7AyKpd06,2020-0188,2021-09-22,07:22:14,08:54:36,NA,incomplete,true,true,NA,0,17,E31_Q9_ansL.png,left,NA,NA,NA,left,1252.39999997616,true,NA,NA,NA,NA,NA
7AyKpd06,NA,NA,7AyKpd06,2020-0188,2021-09-22,07:22:14,08:54:36,NA,incomplete,true,true,NA,0,18,E31_Q10_ansR.png,right,NA,NA,NA,right,2864.39999997616,true,NA,NA,NA,NA,NA
7AyKpd06,NA,NA,7AyKpd06,2020-0188,2021-09-22,07:22:14,08:54:36,NA,incomplete,true,true,NA,0,19,E31_Q2_ansR.png,right,NA,NA,NA,right,1280.10000002384,true,NA,NA,NA,NA,NA
7AyKpd06,NA,NA,7AyKpd06,2020-0188,2021-09-22,07:22:14,08:54:36,NA,incomplete,true,true,NA,0,20,E21_Q1_ansL.png,left,NA,NA,NA,left,1513.40000000596,true,NA,NA,NA,NA,NA
7AyKpd06,NA,NA,7AyKpd06,2020-0188,2021-09-22,07:22:14,08:54:36,NA,incomplete,true,true,NA,0,21,E21_Q3_ansR.png,right,NA,NA,NA,right,1235.59999999404,true,NA,NA,NA,NA,NA
7AyKpd06,NA,NA,7AyKpd06,2020-0188,2021-09-22,07:22:14,08:54:36,NA,incomplete,true,true,NA,0,22,E21_Q7_ansL.png,left,NA,NA,NA,left,1047.5,true,NA,NA,NA,NA,NA
7AyKpd06,NA,NA,7AyKpd06,2020-0188,2021-09-22,07:22:14,08:54:36,NA,incomplete,true,true,NA,0,23,E21_Q4_ansR.png,right,NA,NA,NA,right,1013.30000001192,true,NA,NA,NA,NA,NA
7AyKpd06,NA,NA,7AyKpd06,2020-0188,2021-09-22,07:22:14,08:54:36,NA,incomplete,true,true,NA,0,24,E21_Q8_ansL.png,left,NA,NA,NA,left,875.5,true,NA,NA,NA,NA,NA
7AyKpd06,NA,NA,7AyKpd06,2020-0188,2021-09-22,07:22:14,08:54:36,NA,incomplete,true,true,NA,0,25,E21_Q6_ansR.png,right,NA,NA,NA,right,1158.19999998808,true,NA,NA,NA,NA,NA
7AyKpd06,NA,NA,7AyKpd06,2020-0188,2021-09-22,07:22:14,08:54:36,NA,incomplete,true,true,NA,0,26,E21_Q9_ansR.png,right,NA,NA,NA,right,1125.5,true,NA,NA,NA,NA,NA
7AyKpd06,NA,NA,7AyKpd06,2020-0188,2021-09-22,07:22:14,08:54:36,NA,incomplete,true,true,NA,0,27,E21_Q5_ansR.png,right,NA,NA,NA,right,985.899999976158,true,NA,NA,NA,NA,NA
7AyKpd06,NA,NA,7AyKpd06,2020-0188,2021-09-22,07:22:14,08:54:36,NA,incomplete,true,true,NA,0,28,E21_Q10_ansL.png,left,NA,NA,NA,left,1004.40000000596,true,NA,NA,NA,NA,NA
7AyKpd06,NA,NA,7AyKpd06,2020-0188,2021-09-22,07:22:14,08:54:36,NA,incomplete,true,true,NA,0,29,E21_Q2_ansL.png,left,NA,NA,NA,left,884,true,NA,NA,NA,NA,NA
7AyKpd06,NA,NA,7AyKpd06,2020-0188,2021-09-22,07:22:14,08:54:36,NA,incomplete,true,NA,true,0,0,NA,left,E21_Q3_ansR.png,E21_Q8_ansL.png,within,NA,NaN,NA,left,7037,1,1,6050.4000000059605
7AyKpd06,NA,NA,7AyKpd06,2020-0188,2021-09-22,07:22:14,08:54:36,NA,incomplete,true,NA,true,0,1,NA,left,E21_Q6_ansR.png,E21_Q10_ansL.png,within,NA,NaN,NA,left,2747,1,2,5289.0999999940395
7AyKpd06,NA,NA,7AyKpd06,2020-0188,2021-09-22,07:22:14,08:54:36,NA,incomplete,true,NA,true,0,2,NA,right,E17_Q5_ansR.png,E17_Q2_ansL.png,within,NA,NaN,NA,right,3665.5,1,2,2526.4000000059605
7AyKpd06,NA,NA,7AyKpd06,2020-0188,2021-09-22,07:22:14,08:54:36,NA,incomplete,true,NA,true,0,3,NA,right,E21_Q9_ansR.png,E21_Q4_ansR.png,within,NA,NaN,NA,right,2472.5999999940395,1,2,1566.699999988079
7AyKpd06,NA,NA,7AyKpd06,2020-0188,2021-09-22,07:22:14,08:54:36,NA,incomplete,true,NA,true,0,4,NA,right,E31_Q3_ansL.png,E17_Q1_ansL.png,between,NA,NaN,NA,right,3291.5999999940395,1,3,1866.5
7AyKpd06,NA,NA,7AyKpd06,2020-0188,2021-09-22,07:22:14,08:54:36,NA,incomplete,true,NA,true,0,5,NA,right,E31_Q4_ansL.png,E17_Q7_ansL.png,between,NA,NaN,NA,right,2500.5999999940395,1,3,2706
7AyKpd06,NA,NA,7AyKpd06,2020-0188,2021-09-22,07:22:14,08:54:36,NA,incomplete,true,NA,true,0,6,NA,left,E31_Q10_ansR.png,E21_Q3_ansR.png,between,NA,NaN,NA,left,2145.5999999940395,1,2,2369.7000000178814
7AyKpd06,NA,NA,7AyKpd06,2020-0188,2021-09-22,07:22:14,08:54:36,NA,incomplete,true,NA,true,0,7,NA,left,E31_Q5_ansL.png,E31_Q9_ansL.png,within,NA,NaN,NA,left,4854.200000017881,1,1,1667
7AyKpd06,NA,NA,7AyKpd06,2020-0188,2021-09-22,07:22:14,08:54:36,NA,incomplete,true,NA,true,0,8,NA,right,E21_Q2_ansL.png,E21_Q9_ansR.png,within,NA,NaN,NA,left,4979.5,0,1,1663.9000000059605
7AyKpd06,NA,NA,7AyKpd06,2020-0188,2021-09-22,07:22:14,08:54:36,NA,incomplete,true,NA,true,0,9,NA,left,E17_Q5_ansR.png,E17_Q8_ansL.png,within,NA,NaN,NA,left,2646.5999999940395,1,1,1605.2999999821186
7AyKpd06,NA,NA,7AyKpd06,2020-0188,2021-09-22,07:22:14,08:54:36,NA,incomplete,true,NA,true,0,10,NA,left,E31_Q9_ansL.png,E21_Q1_ansL.png,between,NA,NaN,NA,left,4684.4000000059605,1,2,1567.0999999940395
7AyKpd06,NA,NA,7AyKpd06,2020-0188,2021-09-22,07:22:14,08:54:36,NA,incomplete,true,NA,true,0,11,NA,left,E17_Q6_ansR.png,E31_Q6_ansL.png,between,NA,NaN,NA,left,2031.5999999940395,1,3,1478.9000000059605
7AyKpd06,NA,NA,7AyKpd06,2020-0188,2021-09-22,07:22:14,08:54:36,NA,incomplete,true,NA,true,0,12,NA,left,E31_Q1_ansR.png,E31_Q2_ansR.png,within,NA,NaN,NA,right,12284.59999999404,0,1,1359.5
7AyKpd06,NA,NA,7AyKpd06,2020-0188,2021-09-22,07:22:14,08:54:36,NA,incomplete,true,NA,true,0,13,NA,left,E17_Q10_ansL.png,E17_Q7_ansL.png,within,NA,NaN,NA,left,5375.5999999940395,1,1,1489
7AyKpd06,NA,NA,7AyKpd06,2020-0188,2021-09-22,07:22:14,08:54:36,NA,incomplete,true,NA,true,0,14,NA,right,E17_Q10_ansL.png,E17_Q3_ansR.png,within,NA,NaN,NA,right,3451.5,1,1,1739.199999988079
7AyKpd06,NA,NA,7AyKpd06,2020-0188,2021-09-22,07:22:14,08:54:36,NA,incomplete,true,NA,true,0,15,NA,right,E17_Q4_ansR.png,E17_Q9_ansR.png,within,NA,NaN,NA,right,2584.5,1,2,2097.7000000178814
7AyKpd06,NA,NA,7AyKpd06,2020-0188,2021-09-22,07:22:14,08:54:36,NA,incomplete,true,NA,true,0,16,NA,left,E31_Q6_ansL.png,E31_Q5_ansL.png,within,NA,NaN,NA,left,10676.59999999404,1,1,1721.300000011921
7AyKpd06,NA,NA,7AyKpd06,2020-0188,2021-09-22,07:22:14,08:54:36,NA,incomplete,true,NA,true,0,17,NA,left,E31_Q7_ansR.png,E31_Q10_ansR.png,within,NA,NaN,NA,left,6160.0999999940395,1,2,2817.0999999940395
7AyKpd06,NA,NA,7AyKpd06,2020-0188,2021-09-22,07:22:14,08:54:36,NA,incomplete,true,NA,true,0,18,NA,left,E17_Q4_ansR.png,E17_Q6_ansR.png,within,NA,NaN,NA,left,3211.7000000178814,1,0,1186.0999999940395
7AyKpd06,NA,NA,7AyKpd06,2020-0188,2021-09-22,07:22:14,08:54:36,NA,incomplete,true,NA,true,0,19,NA,right,E31_Q7_ansR.png,E31_Q3_ansL.png,within,NA,NaN,NA,left,12726.5,0,1,2008.6000000238419
7AyKpd06,NA,NA,7AyKpd06,2020-0188,2021-09-22,07:22:14,08:54:36,NA,incomplete,true,NA,true,0,20,NA,right,E31_Q8_ansR.png,E31_Q4_ansL.png,within,NA,NaN,NA,right,2797.199999988079,1,2,1999.1000000238419
7AyKpd06,NA,NA,7AyKpd06,2020-0188,2021-09-22,07:22:14,08:54:36,NA,incomplete,true,NA,true,0,21,NA,left,E17_Q8_ansL.png,E17_Q1_ansL.png,within,NA,NaN,NA,right,7761.4000000059605,0,1,6837.399999976158
7AyKpd06,NA,NA,7AyKpd06,2020-0188,2021-09-22,07:22:14,08:54:36,NA,incomplete,true,NA,true,0,22,NA,right,E31_Q1_ansR.png,E31_Q8_ansR.png,within,NA,NaN,NA,right,5293.199999988079,1,2,1048
7AyKpd06,NA,NA,7AyKpd06,2020-0188,2021-09-22,07:22:14,08:54:36,NA,incomplete,true,NA,true,0,23,NA,left,E21_Q7_ansL.png,E21_Q6_ansR.png,within,NA,NaN,NA,right,3557.9000000059605,0,1,1548.199999988079
7AyKpd06,NA,NA,7AyKpd06,2020-0188,2021-09-22,07:22:14,08:54:36,NA,incomplete,true,NA,true,0,24,NA,left,E21_Q8_ansL.png,E21_Q5_ansR.png,within,NA,NaN,NA,left,1823.4000000059605,1,2,2550.5999999940395
7AyKpd06,NA,NA,7AyKpd06,2020-0188,2021-09-22,07:22:14,08:54:36,NA,incomplete,true,NA,true,0,25,NA,left,E21_Q1_ansL.png,E21_Q4_ansR.png,within,NA,NaN,NA,left,2097.5,1,2,1140.800000011921
7AyKpd06,NA,NA,7AyKpd06,2020-0188,2021-09-22,07:22:14,08:54:36,NA,incomplete,true,NA,true,0,26,NA,left,E31_Q2_ansR.png,E21_Q7_ansL.png,between,NA,NaN,NA,left,1912.5,1,2,4612.9000000059605
7AyKpd06,NA,NA,7AyKpd06,2020-0188,2021-09-22,07:22:14,08:54:36,NA,incomplete,false,true,NA,1,0,E32_Q3_ansR.png,right,NA,NA,NA,none,0,false,NA,NA,NA,NA,NA
7AyKpd06,NA,NA,7AyKpd06,2020-0188,2021-09-22,07:22:14,08:54:36,NA,incomplete,false,true,NA,1,1,E32_Q5_ansR.png,right,NA,NA,NA,right,2171.59999999404,true,NA,NA,NA,NA,NA
7AyKpd06,NA,NA,7AyKpd06,2020-0188,2021-09-22,07:22:14,08:54:36,NA,incomplete,false,true,NA,1,2,E32_Q10_ansL.png,left,NA,NA,NA,left,1241.40000000596,true,NA,NA,NA,NA,NA
7AyKpd06,NA,NA,7AyKpd06,2020-0188,2021-09-22,07:22:14,08:54:36,NA,incomplete,false,true,NA,1,3,E32_Q7_ansL.png,left,NA,NA,NA,left,888.90000000596,true,NA,NA,NA,NA,NA
7AyKpd06,NA,NA,7AyKpd06,2020-0188,2021-09-22,07:22:14,08:54:36,NA,incomplete,false,true,NA,1,4,E32_Q2_ansL.png,left,NA,NA,NA,left,1361.80000001192,true,NA,NA,NA,NA,NA
7AyKpd06,NA,NA,7AyKpd06,2020-0188,2021-09-22,07:22:14,08:54:36,NA,incomplete,false,true,NA,1,5,E32_Q8_ansL.png,left,NA,NA,NA,left,954.59999999404,true,NA,NA,NA,NA,NA
7AyKpd06,NA,NA,7AyKpd06,2020-0188,2021-09-22,07:22:14,08:54:36,NA,incomplete,false,true,NA,1,6,E32_Q6_ansR.png,right,NA,NA,NA,right,1517.5,true,NA,NA,NA,NA,NA
7AyKpd06,NA,NA,7AyKpd06,2020-0188,2021-09-22,07:22:14,08:54:36,NA,incomplete,false,true,NA,1,7,E32_Q1_ansL.png,left,NA,NA,NA,left,857.600000023842,true,NA,NA,NA,NA,NA
7AyKpd06,NA,NA,7AyKpd06,2020-0188,2021-09-22,07:22:14,08:54:36,NA,incomplete,false,true,NA,1,8,E32_Q4_ansR.png,right,NA,NA,NA,right,1469.80000001192,true,NA,NA,NA,NA,NA
7AyKpd06,NA,NA,7AyKpd06,2020-0188,2021-09-22,07:22:14,08:54:36,NA,incomplete,false,true,NA,1,9,E32_Q9_ansR.png,right,NA,NA,NA,right,933.600000023842,true,NA,NA,NA,NA,NA
7AyKpd06,NA,NA,7AyKpd06,2020-0188,2021-09-22,07:22:14,08:54:36,NA,incomplete,false,true,NA,1,10,E25_Q1_ansR.png,right,NA,NA,NA,right,1958.5,true,NA,NA,NA,NA,NA
7AyKpd06,NA,NA,7AyKpd06,2020-0188,2021-09-22,07:22:14,08:54:36,NA,incomplete,false,true,NA,1,11,E25_Q9_ansL.png,left,NA,NA,NA,left,2785.90000000596,true,NA,NA,NA,NA,NA
7AyKpd06,NA,NA,7AyKpd06,2020-0188,2021-09-22,07:22:14,08:54:36,NA,incomplete,false,true,NA,1,12,E25_Q3_ansL.png,left,NA,NA,NA,none,0,false,NA,NA,NA,NA,NA
7AyKpd06,NA,NA,7AyKpd06,2020-0188,2021-09-22,07:22:14,08:54:36,NA,incomplete,false,true,NA,1,13,E25_Q10_ansR.png,right,NA,NA,NA,left,1640.20000001788,false,NA,NA,NA,NA,NA
7AyKpd06,NA,NA,7AyKpd06,2020-0188,2021-09-22,07:22:14,08:54:36,NA,incomplete,false,true,NA,1,14,E25_Q7_ansR.png,right,NA,NA,NA,right,2560.80000001192,true,NA,NA,NA,NA,NA
7AyKpd06,NA,NA,7AyKpd06,2020-0188,2021-09-22,07:22:14,08:54:36,NA,incomplete,false,true,NA,1,15,E25_Q4_ansL.png,left,NA,NA,NA,left,2531.39999997616,true,NA,NA,NA,NA,NA
7AyKpd06,NA,NA,7AyKpd06,2020-0188,2021-09-22,07:22:14,08:54:36,NA,incomplete,false,true,NA,1,16,E25_Q6_ansL.png,left,NA,NA,NA,left,1703.29999998212,true,NA,NA,NA,NA,NA
7AyKpd06,NA,NA,7AyKpd06,2020-0188,2021-09-22,07:22:14,08:54:36,NA,incomplete,false,true,NA,1,17,E25_Q5_ansL.png,left,NA,NA,NA,left,2463.60000002384,true,NA,NA,NA,NA,NA
7AyKpd06,NA,NA,7AyKpd06,2020-0188,2021-09-22,07:22:14,08:54:36,NA,incomplete,false,true,NA,1,18,E25_Q2_ansR.png,right,NA,NA,NA,right,1171.79999998212,true,NA,NA,NA,NA,NA
7AyKpd06,NA,NA,7AyKpd06,2020-0188,2021-09-22,07:22:14,08:54:36,NA,incomplete,false,true,NA,1,19,E25_Q8_ansR.png,right,NA,NA,NA,right,1230.19999998808,true,NA,NA,NA,NA,NA
7AyKpd06,NA,NA,7AyKpd06,2020-0188,2021-09-22,07:22:14,08:54:36,NA,incomplete,false,true,NA,1,20,E12_Q5_ansR.png,right,NA,NA,NA,right,1486.89999997616,true,NA,NA,NA,NA,NA
7AyKpd06,NA,NA,7AyKpd06,2020-0188,2021-09-22,07:22:14,08:54:36,NA,incomplete,false,true,NA,1,21,E12_Q9_ansR.png,right,NA,NA,NA,right,1184.5,true,NA,NA,NA,NA,NA
7AyKpd06,NA,NA,7AyKpd06,2020-0188,2021-09-22,07:22:14,08:54:36,NA,incomplete,false,true,NA,1,22,E12_Q3_ansR.png,right,NA,NA,NA,right,1432.40000000596,true,NA,NA,NA,NA,NA
7AyKpd06,NA,NA,7AyKpd06,2020-0188,2021-09-22,07:22:14,08:54:36,NA,incomplete,false,true,NA,1,23,E12_Q4_ansR.png,right,NA,NA,NA,right,927.90000000596,true,NA,NA,NA,NA,NA
7AyKpd06,NA,NA,7AyKpd06,2020-0188,2021-09-22,07:22:14,08:54:36,NA,incomplete,false,true,NA,1,24,E12_Q8_ansL.png,left,NA,NA,NA,left,2721.89999997616,true,NA,NA,NA,NA,NA
7AyKpd06,NA,NA,7AyKpd06,2020-0188,2021-09-22,07:22:14,08:54:36,NA,incomplete,false,true,NA,1,25,E12_Q7_ansL.png,left,NA,NA,NA,left,1312,true,NA,NA,NA,NA,NA
7AyKpd06,NA,NA,7AyKpd06,2020-0188,2021-09-22,07:22:14,08:54:36,NA,incomplete,false,true,NA,1,26,E12_Q6_ansR.png,right,NA,NA,NA,right,1348.20000001788,true,NA,NA,NA,NA,NA
7AyKpd06,NA,NA,7AyKpd06,2020-0188,2021-09-22,07:22:14,08:54:36,NA,incomplete,false,true,NA,1,27,E12_Q2_ansL.png,left,NA,NA,NA,left,1602.30000001192,true,NA,NA,NA,NA,NA
7AyKpd06,NA,NA,7AyKpd06,2020-0188,2021-09-22,07:22:14,08:54:36,NA,incomplete,false,true,NA,1,28,E12_Q10_ansL.png,left,NA,NA,NA,left,1623.79999998212,true,NA,NA,NA,NA,NA
7AyKpd06,NA,NA,7AyKpd06,2020-0188,2021-09-22,07:22:14,08:54:36,NA,incomplete,false,true,NA,1,29,E12_Q1_ansL.png,left,NA,NA,NA,left,2010.69999998808,true,NA,NA,NA,NA,NA
7AyKpd06,NA,NA,7AyKpd06,2020-0188,2021-09-22,07:22:14,08:54:36,NA,incomplete,false,NA,true,1,0,NA,right,E25_Q8_ansR.png,E25_Q6_ansL.png,within,NA,NaN,NA,right,2096.5,1,1,1617.2999999821186
7AyKpd06,NA,NA,7AyKpd06,2020-0188,2021-09-22,07:22:14,08:54:36,NA,incomplete,false,NA,true,1,1,NA,left,E12_Q8_ansL.png,E12_Q2_ansL.png,within,NA,NaN,NA,left,3209.4000000059605,1,0,1729.9000000059605
7AyKpd06,NA,NA,7AyKpd06,2020-0188,2021-09-22,07:22:14,08:54:36,NA,incomplete,false,NA,true,1,2,NA,left,E25_Q2_ansR.png,E12_Q9_ansR.png,between,NA,NaN,NA,left,7910.300000011921,1,2,2136.199999988079
7AyKpd06,NA,NA,7AyKpd06,2020-0188,2021-09-22,07:22:14,08:54:36,NA,incomplete,false,NA,true,1,3,NA,left,E32_Q3_ansR.png,E32_Q7_ansL.png,within,NA,NaN,NA,left,1393.800000011921,1,1,2097.899999976158
7AyKpd06,NA,NA,7AyKpd06,2020-0188,2021-09-22,07:22:14,08:54:36,NA,incomplete,false,NA,true,1,4,NA,right,E25_Q6_ansL.png,E25_Q10_ansR.png,within,NA,NaN,NA,right,2985.800000011921,1,1,1366.9000000059605
7AyKpd06,NA,NA,7AyKpd06,2020-0188,2021-09-22,07:22:14,08:54:36,NA,incomplete,false,NA,true,1,5,NA,left,E25_Q5_ansL.png,E12_Q5_ansR.png,between,NA,NaN,NA,left,1664.199999988079,1,2,3860.600000023842
7AyKpd06,NA,NA,7AyKpd06,2020-0188,2021-09-22,07:22:14,08:54:36,NA,incomplete,false,NA,true,1,6,NA,right,E12_Q8_ansL.png,E12_Q9_ansR.png,within,NA,NaN,NA,right,2221.0999999940395,1,1,1466.0999999940395
7AyKpd06,NA,NA,7AyKpd06,2020-0188,2021-09-22,07:22:14,08:54:36,NA,incomplete,false,NA,true,1,7,NA,left,E32_Q9_ansR.png,E25_Q3_ansL.png,between,NA,NaN,NA,left,1394.3999999761581,1,3,1793.2000000178814
7AyKpd06,NA,NA,7AyKpd06,2020-0188,2021-09-22,07:22:14,08:54:36,NA,incomplete,false,NA,true,1,8,NA,left,E12_Q5_ansR.png,E12_Q4_ansR.png,within,NA,NaN,NA,left,2774.7000000178814,1,1,21930.90000000596
7AyKpd06,NA,NA,7AyKpd06,2020-0188,2021-09-22,07:22:14,08:54:36,NA,incomplete,false,NA,true,1,9,NA,right,E32_Q1_ansL.png,E32_Q2_ansL.png,within,NA,NaN,NA,right,3491.800000011921,1,1,2299.300000011921
7AyKpd06,NA,NA,7AyKpd06,2020-0188,2021-09-22,07:22:14,08:54:36,NA,incomplete,false,NA,true,1,10,NA,right,E25_Q1_ansR.png,E32_Q1_ansL.png,between,NA,NaN,NA,right,4429.9000000059605,1,2,6956.200000017881
7AyKpd06,NA,NA,7AyKpd06,2020-0188,2021-09-22,07:22:14,08:54:36,NA,incomplete,false,NA,true,1,11,NA,right,E32_Q9_ansR.png,E32_Q6_ansR.png,within,NA,NaN,NA,left,13731.700000017881,0,1,2723.5
7AyKpd06,NA,NA,7AyKpd06,2020-0188,2021-09-22,07:22:14,08:54:36,NA,incomplete,false,NA,true,1,12,NA,right,E25_Q9_ansL.png,E32_Q4_ansR.png,between,NA,NaN,NA,right,1496.0999999940395,1,2,2903.199999988079
7AyKpd06,NA,NA,7AyKpd06,2020-0188,2021-09-22,07:22:14,08:54:36,NA,incomplete,false,NA,true,1,13,NA,left,E25_Q3_ansL.png,E25_Q4_ansL.png,within,NA,NaN,NA,left,4080.800000011921,1,1,2684.800000011921
7AyKpd06,NA,NA,7AyKpd06,2020-0188,2021-09-22,07:22:14,08:54:36,NA,incomplete,false,NA,true,1,14,NA,left,E12_Q4_ansR.png,E12_Q6_ansR.png,within,NA,NaN,NA,left,1941.699999988079,1,2,7620.5
7AyKpd06,NA,NA,7AyKpd06,2020-0188,2021-09-22,07:22:14,08:54:36,NA,incomplete,false,NA,true,1,15,NA,left,E25_Q7_ansR.png,E25_Q5_ansL.png,within,NA,NaN,NA,left,10193.5,1,1,1360.9000000059605
7AyKpd06,NA,NA,7AyKpd06,2020-0188,2021-09-22,07:22:14,08:54:36,NA,incomplete,false,NA,true,1,16,NA,left,E25_Q9_ansL.png,E25_Q7_ansR.png,within,NA,NaN,NA,left,7625.5999999940395,1,2,2884.0999999940395
7AyKpd06,NA,NA,7AyKpd06,2020-0188,2021-09-22,07:22:14,08:54:36,NA,incomplete,false,NA,true,1,17,NA,right,E12_Q1_ansL.png,E12_Q6_ansR.png,within,NA,NaN,NA,left,9915.800000011921,0,0,1346.199999988079
7AyKpd06,NA,NA,7AyKpd06,2020-0188,2021-09-22,07:22:14,08:54:36,NA,incomplete,false,NA,true,1,18,NA,left,E12_Q3_ansR.png,E12_Q7_ansL.png,within,NA,NaN,NA,right,3391.2000000178814,0,1,5776.4000000059605
7AyKpd06,NA,NA,7AyKpd06,2020-0188,2021-09-22,07:22:14,08:54:36,NA,incomplete,false,NA,true,1,19,NA,right,E12_Q3_ansR.png,E25_Q8_ansR.png,between,NA,NaN,NA,right,2612.800000011921,1,2,2677.7000000178814
7AyKpd06,NA,NA,7AyKpd06,2020-0188,2021-09-22,07:22:14,08:54:36,NA,incomplete,false,NA,true,1,20,NA,right,E25_Q2_ansR.png,E25_Q4_ansL.png,within,NA,NaN,NA,right,7535.799999982119,1,1,1850.5
7AyKpd06,NA,NA,7AyKpd06,2020-0188,2021-09-22,07:22:14,08:54:36,NA,incomplete,false,NA,true,1,21,NA,left,E12_Q7_ansL.png,E12_Q10_ansL.png,within,NA,NaN,NA,left,3691.100000023842,1,0,2225
7AyKpd06,NA,NA,7AyKpd06,2020-0188,2021-09-22,07:22:14,08:54:36,NA,incomplete,false,NA,true,1,22,NA,right,E32_Q4_ansR.png,E32_Q8_ansL.png,within,NA,NaN,NA,right,2658,1,1,1336.4000000059605
7AyKpd06,NA,NA,7AyKpd06,2020-0188,2021-09-22,07:22:14,08:54:36,NA,incomplete,false,NA,true,1,23,NA,left,E25_Q1_ansR.png,E25_Q10_ansR.png,within,NA,NaN,NA,right,1611.199999988079,0,0,3713.699999988079
7AyKpd06,NA,NA,7AyKpd06,2020-0188,2021-09-22,07:22:14,08:54:36,NA,incomplete,false,NA,true,1,24,NA,left,E32_Q10_ansL.png,E32_Q8_ansL.png,within,NA,NaN,NA,left,2028.5,1,1,1587.2999999821186
7AyKpd06,NA,NA,7AyKpd06,2020-0188,2021-09-22,07:22:14,08:54:36,NA,incomplete,false,NA,true,1,25,NA,right,E32_Q2_ansL.png,E32_Q5_ansR.png,within,NA,NaN,NA,right,1989.2999999821186,1,1,1402.7999999821186
7AyKpd06,NA,NA,7AyKpd06,2020-0188,2021-09-22,07:22:14,08:54:36,NA,incomplete,false,NA,true,1,26,NA,left,E32_Q7_ansL.png,E32_Q6_ansR.png,within,NA,NaN,NA,left,1321.800000011921,1,1,1325.300000011921
7AyKpd06,NA,NA,7AyKpd06,2020-0188,2021-09-22,07:22:14,08:54:36,NA,incomplete,false,true,NA,2,0,E33_Q5_ansR.png,right,NA,NA,NA,right,2437.90000000596,true,NA,NA,NA,NA,NA
7AyKpd06,NA,NA,7AyKpd06,2020-0188,2021-09-22,07:22:14,08:54:36,NA,incomplete,false,true,NA,2,1,E33_Q9_ansR.png,right,NA,NA,NA,right,2076.40000000596,true,NA,NA,NA,NA,NA
7AyKpd06,NA,NA,7AyKpd06,2020-0188,2021-09-22,07:22:14,08:54:36,NA,incomplete,false,true,NA,2,2,E33_Q8_ansL.png,left,NA,NA,NA,left,2501.5,true,NA,NA,NA,NA,NA
7AyKpd06,NA,NA,7AyKpd06,2020-0188,2021-09-22,07:22:14,08:54:36,NA,incomplete,false,true,NA,2,3,E33_Q4_ansR.png,right,NA,NA,NA,right,1182,true,NA,NA,NA,NA,NA
7AyKpd06,NA,NA,7AyKpd06,2020-0188,2021-09-22,07:22:14,08:54:36,NA,incomplete,false,true,NA,2,4,E33_Q1_ansL.png,left,NA,NA,NA,left,2925.79999998212,true,NA,NA,NA,NA,NA
7AyKpd06,NA,NA,7AyKpd06,2020-0188,2021-09-22,07:22:14,08:54:36,NA,incomplete,false,true,NA,2,5,E33_Q7_ansL.png,left,NA,NA,NA,right,3007.5,false,NA,NA,NA,NA,NA
7AyKpd06,NA,NA,7AyKpd06,2020-0188,2021-09-22,07:22:14,08:54:36,NA,incomplete,false,true,NA,2,6,E33_Q2_ansL.png,left,NA,NA,NA,right,2766.19999998808,false,NA,NA,NA,NA,NA
7AyKpd06,NA,NA,7AyKpd06,2020-0188,2021-09-22,07:22:14,08:54:36,NA,incomplete,false,true,NA,2,7,E33_Q10_ansL.png,left,NA,NA,NA,left,2836.79999998212,true,NA,NA,NA,NA,NA
7AyKpd06,NA,NA,7AyKpd06,2020-0188,2021-09-22,07:22:14,08:54:36,NA,incomplete,false,true,NA,2,8,E33_Q3_ansR.png,right,NA,NA,NA,left,2203.89999997616,false,NA,NA,NA,NA,NA
7AyKpd06,NA,NA,7AyKpd06,2020-0188,2021-09-22,07:22:14,08:54:36,NA,incomplete,false,true,NA,2,9,E33_Q6_ansR.png,right,NA,NA,NA,right,2012.69999998808,true,NA,NA,NA,NA,NA
7AyKpd06,NA,NA,7AyKpd06,2020-0188,2021-09-22,07:22:14,08:54:36,NA,incomplete,false,true,NA,2,10,E11_Q7_ansR.png,right,NA,NA,NA,right,1534.90000000596,true,NA,NA,NA,NA,NA
7AyKpd06,NA,NA,7AyKpd06,2020-0188,2021-09-22,07:22:14,08:54:36,NA,incomplete,false,true,NA,2,11,E11_Q3_ansL.png,left,NA,NA,NA,left,1154,true,NA,NA,NA,NA,NA
7AyKpd06,NA,NA,7AyKpd06,2020-0188,2021-09-22,07:22:14,08:54:36,NA,incomplete,false,true,NA,2,12,E11_Q6_ansL.png,left,NA,NA,NA,left,1567.69999998808,true,NA,NA,NA,NA,NA
7AyKpd06,NA,NA,7AyKpd06,2020-0188,2021-09-22,07:22:14,08:54:36,NA,incomplete,false,true,NA,2,13,E11_Q8_ansR.png,right,NA,NA,NA,right,1409.5,true,NA,NA,NA,NA,NA
7AyKpd06,NA,NA,7AyKpd06,2020-0188,2021-09-22,07:22:14,08:54:36,NA,incomplete,false,true,NA,2,14,E11_Q10_ansR.png,right,NA,NA,NA,right,1818.59999999404,true,NA,NA,NA,NA,NA
7AyKpd06,NA,NA,7AyKpd06,2020-0188,2021-09-22,07:22:14,08:54:36,NA,incomplete,false,true,NA,2,15,E11_Q4_ansL.png,left,NA,NA,NA,left,1639.09999999404,true,NA,NA,NA,NA,NA
7AyKpd06,NA,NA,7AyKpd06,2020-0188,2021-09-22,07:22:14,08:54:36,NA,incomplete,false,true,NA,2,16,E11_Q2_ansR.png,right,NA,NA,NA,right,1499.59999999404,true,NA,NA,NA,NA,NA
7AyKpd06,NA,NA,7AyKpd06,2020-0188,2021-09-22,07:22:14,08:54:36,NA,incomplete,false,true,NA,2,17,E11_Q5_ansL.png,left,NA,NA,NA,left,2570.30000001192,true,NA,NA,NA,NA,NA
7AyKpd06,NA,NA,7AyKpd06,2020-0188,2021-09-22,07:22:14,08:54:36,NA,incomplete,false,true,NA,2,18,E11_Q1_ansR.png,right,NA,NA,NA,right,1650.20000001788,true,NA,NA,NA,NA,NA
7AyKpd06,NA,NA,7AyKpd06,2020-0188,2021-09-22,07:22:14,08:54:36,NA,incomplete,false,true,NA,2,19,E11_Q9_ansL.png,left,NA,NA,NA,left,1417.19999998808,true,NA,NA,NA,NA,NA
7AyKpd06,NA,NA,7AyKpd06,2020-0188,2021-09-22,07:22:14,08:54:36,NA,incomplete,false,true,NA,2,20,E26_Q9_ansR.png,right,NA,NA,NA,right,2401.30000001192,true,NA,NA,NA,NA,NA
7AyKpd06,NA,NA,7AyKpd06,2020-0188,2021-09-22,07:22:14,08:54:36,NA,incomplete,false,true,NA,2,21,E26_Q1_ansL.png,left,NA,NA,NA,left,1117.40000000596,true,NA,NA,NA,NA,NA
7AyKpd06,NA,NA,7AyKpd06,2020-0188,2021-09-22,07:22:14,08:54:36,NA,incomplete,false,true,NA,2,22,E26_Q3_ansR.png,right,NA,NA,NA,right,899.5,true,NA,NA,NA,NA,NA
7AyKpd06,NA,NA,7AyKpd06,2020-0188,2021-09-22,07:22:14,08:54:36,NA,incomplete,false,true,NA,2,23,E26_Q8_ansL.png,left,NA,NA,NA,left,1421.40000000596,true,NA,NA,NA,NA,NA
7AyKpd06,NA,NA,7AyKpd06,2020-0188,2021-09-22,07:22:14,08:54:36,NA,incomplete,false,true,NA,2,24,E26_Q10_ansL.png,left,NA,NA,NA,left,1360.09999999404,true,NA,NA,NA,NA,NA
7AyKpd06,NA,NA,7AyKpd06,2020-0188,2021-09-22,07:22:14,08:54:36,NA,incomplete,false,true,NA,2,25,E26_Q7_ansL.png,left,NA,NA,NA,left,1351,true,NA,NA,NA,NA,NA
7AyKpd06,NA,NA,7AyKpd06,2020-0188,2021-09-22,07:22:14,08:54:36,NA,incomplete,false,true,NA,2,26,E26_Q2_ansL.png,left,NA,NA,NA,left,1072.19999998808,true,NA,NA,NA,NA,NA
7AyKpd06,NA,NA,7AyKpd06,2020-0188,2021-09-22,07:22:14,08:54:36,NA,incomplete,false,true,NA,2,27,E26_Q6_ansR.png,right,NA,NA,NA,right,1095.20000001788,true,NA,NA,NA,NA,NA
7AyKpd06,NA,NA,7AyKpd06,2020-0188,2021-09-22,07:22:14,08:54:36,NA,incomplete,false,true,NA,2,28,E26_Q5_ansR.png,right,NA,NA,NA,right,1144,true,NA,NA,NA,NA,NA
7AyKpd06,NA,NA,7AyKpd06,2020-0188,2021-09-22,07:22:14,08:54:36,NA,incomplete,false,true,NA,2,29,E26_Q4_ansR.png,right,NA,NA,NA,right,1005.19999998808,true,NA,NA,NA,NA,NA
7AyKpd06,NA,NA,7AyKpd06,2020-0188,2021-09-22,07:22:14,08:54:36,NA,incomplete,false,NA,true,2,0,NA,left,E26_Q3_ansR.png,E26_Q7_ansL.png,within,NA,NaN,NA,right,3503.199999988079,0,1,3034.2999999821186
7AyKpd06,NA,NA,7AyKpd06,2020-0188,2021-09-22,07:22:14,08:54:36,NA,incomplete,false,NA,true,2,1,NA,left,E26_Q10_ansL.png,E26_Q6_ansR.png,within,NA,NaN,NA,left,2770.300000011921,1,0,3224.2000000178814
7AyKpd06,NA,NA,7AyKpd06,2020-0188,2021-09-22,07:22:14,08:54:36,NA,incomplete,false,NA,true,2,2,NA,left,E26_Q9_ansR.png,E26_Q8_ansL.png,within,NA,NaN,NA,left,1268.800000011921,1,1,5344.5999999940395
7AyKpd06,NA,NA,7AyKpd06,2020-0188,2021-09-22,07:22:14,08:54:36,NA,incomplete,false,NA,true,2,3,NA,right,E11_Q8_ansR.png,E11_Q7_ansR.png,within,NA,NaN,NA,right,3862.2999999821186,1,1,2488.4000000059605
7AyKpd06,NA,NA,7AyKpd06,2020-0188,2021-09-22,07:22:14,08:54:36,NA,incomplete,false,NA,true,2,4,NA,right,E11_Q9_ansL.png,E11_Q2_ansR.png,within,NA,NaN,NA,left,3011.699999988079,0,1,1914.2000000178814
7AyKpd06,NA,NA,7AyKpd06,2020-0188,2021-09-22,07:22:14,08:54:36,NA,incomplete,false,NA,true,2,5,NA,left,E26_Q1_ansL.png,E26_Q10_ansL.png,within,NA,NaN,NA,left,1999.199999988079,1,2,1104
7AyKpd06,NA,NA,7AyKpd06,2020-0188,2021-09-22,07:22:14,08:54:36,NA,incomplete,false,NA,true,2,6,NA,right,E33_Q7_ansL.png,E33_Q8_ansL.png,within,NA,NaN,NA,left,8128.700000017881,0,0,2039.9000000059605
7AyKpd06,NA,NA,7AyKpd06,2020-0188,2021-09-22,07:22:14,08:54:36,NA,incomplete,false,NA,true,2,7,NA,left,E33_Q4_ansR.png,E33_Q2_ansL.png,within,NA,NaN,NA,right,4562.9000000059605,0,0,1441.5999999940395
7AyKpd06,NA,NA,7AyKpd06,2020-0188,2021-09-22,07:22:14,08:54:36,NA,incomplete,false,NA,true,2,8,NA,right,E26_Q2_ansL.png,E26_Q8_ansL.png,within,NA,NaN,NA,left,1260.2999999821186,0,1,1174.9000000059605
7AyKpd06,NA,NA,7AyKpd06,2020-0188,2021-09-22,07:22:14,08:54:36,NA,incomplete,false,NA,true,2,9,NA,right,E33_Q3_ansR.png,E33_Q7_ansL.png,within,NA,NaN,NA,left,2459.199999988079,0,1,1442.800000011921
7AyKpd06,NA,NA,7AyKpd06,2020-0188,2021-09-22,07:22:14,08:54:36,NA,incomplete,false,NA,true,2,10,NA,left,E11_Q6_ansL.png,E11_Q4_ansL.png,within,NA,NaN,NA,left,2735,1,0,1575.2999999821186
7AyKpd06,NA,NA,7AyKpd06,2020-0188,2021-09-22,07:22:14,08:54:36,NA,incomplete,false,NA,true,2,11,NA,left,E33_Q10_ansL.png,E11_Q7_ansR.png,between,NA,NaN,NA,left,3466.7000000178814,1,2,3471.7999999821186
7AyKpd06,NA,NA,7AyKpd06,2020-0188,2021-09-22,07:22:14,08:54:36,NA,incomplete,false,NA,true,2,12,NA,left,E11_Q8_ansR.png,E11_Q2_ansR.png,within,NA,NaN,NA,left,5817.9000000059605,1,1,2225
7AyKpd06,NA,NA,7AyKpd06,2020-0188,2021-09-22,07:22:14,08:54:36,NA,incomplete,false,NA,true,2,13,NA,right,E11_Q10_ansR.png,E11_Q3_ansL.png,within,NA,NaN,NA,right,4850.0999999940395,1,1,1480.0999999940395
7AyKpd06,NA,NA,7AyKpd06,2020-0188,2021-09-22,07:22:14,08:54:36,NA,incomplete,false,NA,true,2,14,NA,left,E33_Q3_ansR.png,E11_Q3_ansL.png,between,NA,NaN,NA,left,3857.300000011921,1,3,1749.4000000059605
7AyKpd06,NA,NA,7AyKpd06,2020-0188,2021-09-22,07:22:14,08:54:36,NA,incomplete,false,NA,true,2,15,NA,right,E33_Q6_ansR.png,E33_Q2_ansL.png,within,NA,NaN,NA,left,3315.300000011921,0,1,1389.7999999821186
7AyKpd06,NA,NA,7AyKpd06,2020-0188,2021-09-22,07:22:14,08:54:36,NA,incomplete,false,NA,true,2,16,NA,right,E33_Q10_ansL.png,E33_Q1_ansL.png,within,NA,NaN,NA,right,2906.699999988079,1,1,1216
7AyKpd06,NA,NA,7AyKpd06,2020-0188,2021-09-22,07:22:14,08:54:36,NA,incomplete,false,NA,true,2,17,NA,right,E26_Q1_ansL.png,E11_Q1_ansR.png,between,NA,NaN,NA,left,1674.5,0,3,2352.199999988079
7AyKpd06,NA,NA,7AyKpd06,2020-0188,2021-09-22,07:22:14,08:54:36,NA,incomplete,false,NA,true,2,18,NA,left,E33_Q9_ansR.png,E33_Q1_ansL.png,within,NA,NaN,NA,left,1681.300000011921,1,0,2076.800000011921
7AyKpd06,NA,NA,7AyKpd06,2020-0188,2021-09-22,07:22:14,08:54:36,NA,incomplete,false,NA,true,2,19,NA,left,E11_Q9_ansL.png,E26_Q3_ansR.png,between,NA,NaN,NA,right,1671.5,0,2,1513.7999999821186
7AyKpd06,NA,NA,7AyKpd06,2020-0188,2021-09-22,07:22:14,08:54:36,NA,incomplete,false,NA,true,2,20,NA,left,E11_Q4_ansL.png,E11_Q1_ansR.png,within,NA,NaN,NA,left,2888.5,1,1,1261.4000000059605
7AyKpd06,NA,NA,7AyKpd06,2020-0188,2021-09-22,07:22:14,08:54:36,NA,incomplete,false,NA,true,2,21,NA,left,E33_Q6_ansR.png,E11_Q6_ansL.png,between,NA,NaN,NA,left,1277.699999988079,1,3,4077.9000000059605
7AyKpd06,NA,NA,7AyKpd06,2020-0188,2021-09-22,07:22:14,08:54:36,NA,incomplete,false,NA,true,2,22,NA,left,E11_Q5_ansL.png,E26_Q9_ansR.png,between,NA,NaN,NA,right,3080.199999988079,0,2,1345.4000000059605
7AyKpd06,NA,NA,7AyKpd06,2020-0188,2021-09-22,07:22:14,08:54:36,NA,incomplete,false,NA,true,2,23,NA,right,E33_Q4_ansR.png,E33_Q5_ansR.png,within,NA,NaN,NA,right,2380.600000023842,1,1,1899.5
7AyKpd06,NA,NA,7AyKpd06,2020-0188,2021-09-22,07:22:14,08:54:36,NA,incomplete,false,NA,true,2,24,NA,left,E11_Q10_ansR.png,E11_Q5_ansL.png,within,NA,NaN,NA,left,2269,1,1,1584.8999999761581
7AyKpd06,NA,NA,7AyKpd06,2020-0188,2021-09-22,07:22:14,08:54:36,NA,incomplete,false,NA,true,2,25,NA,right,E26_Q4_ansR.png,E26_Q2_ansL.png,within,NA,NaN,NA,right,2790.9000000059605,1,1,3217.5999999940395
7AyKpd06,NA,NA,7AyKpd06,2020-0188,2021-09-22,07:22:14,08:54:36,NA,incomplete,false,NA,true,2,26,NA,right,E26_Q5_ansR.png,E26_Q7_ansL.png,within,NA,NaN,NA,right,2869.9000000059605,1,0,2170.300000011921
7AyKpd06,NA,NA,7AyKpd06,2020-0188,2021-09-22,07:22:14,08:54:36,NA,incomplete,false,true,NA,3,0,E1_Q9_ansL.png,left,NA,NA,NA,left,1754,true,NA,NA,NA,NA,NA
7AyKpd06,NA,NA,7AyKpd06,2020-0188,2021-09-22,07:22:14,08:54:36,NA,incomplete,false,true,NA,3,1,E1_Q4_ansL.png,left,NA,NA,NA,left,1459.29999998212,true,NA,NA,NA,NA,NA
7AyKpd06,NA,NA,7AyKpd06,2020-0188,2021-09-22,07:22:14,08:54:36,NA,incomplete,false,true,NA,3,2,E1_Q5_ansR.png,right,NA,NA,NA,right,1255,true,NA,NA,NA,NA,NA
7AyKpd06,NA,NA,7AyKpd06,2020-0188,2021-09-22,07:22:14,08:54:36,NA,incomplete,false,true,NA,3,3,E1_Q10_ansR.png,right,NA,NA,NA,right,969.800000011921,true,NA,NA,NA,NA,NA
7AyKpd06,NA,NA,7AyKpd06,2020-0188,2021-09-22,07:22:14,08:54:36,NA,incomplete,false,true,NA,3,4,E1_Q7_ansL.png,left,NA,NA,NA,left,2001.09999999404,true,NA,NA,NA,NA,NA
7AyKpd06,NA,NA,7AyKpd06,2020-0188,2021-09-22,07:22:14,08:54:36,NA,incomplete,false,true,NA,3,5,E1_Q2_ansL.png,left,NA,NA,NA,left,2844.19999998808,true,NA,NA,NA,NA,NA
7AyKpd06,NA,NA,7AyKpd06,2020-0188,2021-09-22,07:22:14,08:54:36,NA,incomplete,false,true,NA,3,6,E1_Q8_ansR.png,right,NA,NA,NA,right,1009.69999998808,true,NA,NA,NA,NA,NA
7AyKpd06,NA,NA,7AyKpd06,2020-0188,2021-09-22,07:22:14,08:54:36,NA,incomplete,false,true,NA,3,7,E1_Q1_ansL.png,left,NA,NA,NA,left,1430.59999999404,true,NA,NA,NA,NA,NA
7AyKpd06,NA,NA,7AyKpd06,2020-0188,2021-09-22,07:22:14,08:54:36,NA,incomplete,false,true,NA,3,8,E1_Q6_ansR.png,right,NA,NA,NA,right,1323.30000001192,true,NA,NA,NA,NA,NA
7AyKpd06,NA,NA,7AyKpd06,2020-0188,2021-09-22,07:22:14,08:54:36,NA,incomplete,false,true,NA,3,9,E1_Q3_ansR.png,right,NA,NA,NA,right,3184.20000001788,true,NA,NA,NA,NA,NA
7AyKpd06,NA,NA,7AyKpd06,2020-0188,2021-09-22,07:22:14,08:54:36,NA,incomplete,false,true,NA,3,10,E20_Q1_ansL.png,left,NA,NA,NA,left,1504.19999998808,true,NA,NA,NA,NA,NA
7AyKpd06,NA,NA,7AyKpd06,2020-0188,2021-09-22,07:22:14,08:54:36,NA,incomplete,false,true,NA,3,11,E20_Q4_ansR.png,right,NA,NA,NA,right,2054.29999998212,true,NA,NA,NA,NA,NA
7AyKpd06,NA,NA,7AyKpd06,2020-0188,2021-09-22,07:22:14,08:54:36,NA,incomplete,false,true,NA,3,12,E20_Q8_ansL.png,left,NA,NA,NA,left,1417.19999998808,true,NA,NA,NA,NA,NA
7AyKpd06,NA,NA,7AyKpd06,2020-0188,2021-09-22,07:22:14,08:54:36,NA,incomplete,false,true,NA,3,13,E20_Q5_ansR.png,right,NA,NA,NA,right,1681.69999998808,true,NA,NA,NA,NA,NA
7AyKpd06,NA,NA,7AyKpd06,2020-0188,2021-09-22,07:22:14,08:54:36,NA,incomplete,false,true,NA,3,14,E20_Q3_ansR.png,right,NA,NA,NA,right,2080.40000000596,true,NA,NA,NA,NA,NA
7AyKpd06,NA,NA,7AyKpd06,2020-0188,2021-09-22,07:22:14,08:54:36,NA,incomplete,false,true,NA,3,15,E20_Q10_ansL.png,left,NA,NA,NA,left,1786.40000000596,true,NA,NA,NA,NA,NA
7AyKpd06,NA,NA,7AyKpd06,2020-0188,2021-09-22,07:22:14,08:54:36,NA,incomplete,false,true,NA,3,16,E20_Q6_ansR.png,right,NA,NA,NA,right,1943,true,NA,NA,NA,NA,NA
7AyKpd06,NA,NA,7AyKpd06,2020-0188,2021-09-22,07:22:14,08:54:36,NA,incomplete,false,true,NA,3,17,E20_Q9_ansR.png,right,NA,NA,NA,right,2019.40000000596,true,NA,NA,NA,NA,NA
7AyKpd06,NA,NA,7AyKpd06,2020-0188,2021-09-22,07:22:14,08:54:36,NA,incomplete,false,true,NA,3,18,E20_Q7_ansL.png,left,NA,NA,NA,left,2379.89999997616,true,NA,NA,NA,NA,NA
7AyKpd06,NA,NA,7AyKpd06,2020-0188,2021-09-22,07:22:14,08:54:36,NA,incomplete,false,true,NA,3,19,E20_Q2_ansL.png,left,NA,NA,NA,left,1530,true,NA,NA,NA,NA,NA
7AyKpd06,NA,NA,7AyKpd06,2020-0188,2021-09-22,07:22:14,08:54:36,NA,incomplete,false,true,NA,3,20,E24_Q5_ansL.png,left,NA,NA,NA,left,1821,true,NA,NA,NA,NA,NA
7AyKpd06,NA,NA,7AyKpd06,2020-0188,2021-09-22,07:22:14,08:54:36,NA,incomplete,false,true,NA,3,21,E24_Q9_ansL.png,left,NA,NA,NA,left,2112.89999997616,true,NA,NA,NA,NA,NA
7AyKpd06,NA,NA,7AyKpd06,2020-0188,2021-09-22,07:22:14,08:54:36,NA,incomplete,false,true,NA,3,22,E24_Q1_ansR.png,right,NA,NA,NA,right,1769.80000001192,true,NA,NA,NA,NA,NA
7AyKpd06,NA,NA,7AyKpd06,2020-0188,2021-09-22,07:22:14,08:54:36,NA,incomplete,false,true,NA,3,23,E24_Q8_ansR.png,right,NA,NA,NA,right,1891.59999999404,true,NA,NA,NA,NA,NA
7AyKpd06,NA,NA,7AyKpd06,2020-0188,2021-09-22,07:22:14,08:54:36,NA,incomplete,false,true,NA,3,24,E24_Q10_ansR.png,right,NA,NA,NA,right,2059.69999998808,true,NA,NA,NA,NA,NA
7AyKpd06,NA,NA,7AyKpd06,2020-0188,2021-09-22,07:22:14,08:54:36,NA,incomplete,false,true,NA,3,25,E24_Q7_ansR.png,right,NA,NA,NA,right,2034.70000001788,true,NA,NA,NA,NA,NA
7AyKpd06,NA,NA,7AyKpd06,2020-0188,2021-09-22,07:22:14,08:54:36,NA,incomplete,false,true,NA,3,26,E24_Q3_ansL.png,left,NA,NA,NA,left,1808,true,NA,NA,NA,NA,NA
7AyKpd06,NA,NA,7AyKpd06,2020-0188,2021-09-22,07:22:14,08:54:36,NA,incomplete,false,true,NA,3,27,E24_Q4_ansL.png,left,NA,NA,NA,left,2217.5,true,NA,NA,NA,NA,NA
7AyKpd06,NA,NA,7AyKpd06,2020-0188,2021-09-22,07:22:14,08:54:36,NA,incomplete,false,true,NA,3,28,E24_Q2_ansR.png,right,NA,NA,NA,right,1916.5,true,NA,NA,NA,NA,NA
7AyKpd06,NA,NA,7AyKpd06,2020-0188,2021-09-22,07:22:14,08:54:36,NA,incomplete,false,true,NA,3,29,E24_Q6_ansL.png,left,NA,NA,NA,left,1765.29999998212,true,NA,NA,NA,NA,NA
7AyKpd06,NA,NA,7AyKpd06,2020-0188,2021-09-22,07:22:14,08:54:36,NA,incomplete,false,NA,true,3,0,NA,right,E1_Q6_ansR.png,E1_Q2_ansL.png,within,NA,NaN,NA,left,2779.0999999940395,0,0,1138.0999999940395
7AyKpd06,NA,NA,7AyKpd06,2020-0188,2021-09-22,07:22:14,08:54:36,NA,incomplete,false,NA,true,3,1,NA,left,E20_Q9_ansR.png,E24_Q5_ansL.png,between,NA,NaN,NA,left,2450.2000000178814,1,3,3559.0999999940395
7AyKpd06,NA,NA,7AyKpd06,2020-0188,2021-09-22,07:22:14,08:54:36,NA,incomplete,false,NA,true,3,2,NA,left,E20_Q4_ansR.png,E20_Q3_ansR.png,within,NA,NaN,NA,left,2277.800000011921,1,1,1339.5999999940395
7AyKpd06,NA,NA,7AyKpd06,2020-0188,2021-09-22,07:22:14,08:54:36,NA,incomplete,false,NA,true,3,3,NA,left,E24_Q5_ansL.png,E24_Q8_ansR.png,within,NA,NaN,NA,left,3620.4000000059605,1,2,1324.5
7AyKpd06,NA,NA,7AyKpd06,2020-0188,2021-09-22,07:22:14,08:54:36,NA,incomplete,false,NA,true,3,4,NA,left,E1_Q10_ansR.png,E1_Q8_ansR.png,within,NA,NaN,NA,left,3264,1,1,1521.2000000178814
7AyKpd06,NA,NA,7AyKpd06,2020-0188,2021-09-22,07:22:14,08:54:36,NA,incomplete,false,NA,true,3,5,NA,right,E1_Q7_ansL.png,E1_Q4_ansL.png,within,NA,NaN,NA,right,2571.4000000059605,1,1,2850.5999999940395
7AyKpd06,NA,NA,7AyKpd06,2020-0188,2021-09-22,07:22:14,08:54:36,NA,incomplete,false,NA,true,3,6,NA,right,E1_Q3_ansR.png,E1_Q8_ansR.png,within,NA,NaN,NA,right,3885.100000023842,1,1,1166.6000000238419
7AyKpd06,NA,NA,7AyKpd06,2020-0188,2021-09-22,07:22:14,08:54:36,NA,incomplete,false,NA,true,3,7,NA,right,E20_Q5_ansR.png,E20_Q1_ansL.png,within,NA,NaN,NA,right,2540.5,1,2,1408.699999988079
7AyKpd06,NA,NA,7AyKpd06,2020-0188,2021-09-22,07:22:14,08:54:36,NA,incomplete,false,NA,true,3,8,NA,right,E1_Q10_ansR.png,E1_Q9_ansL.png,within,NA,NaN,NA,right,1728.0999999940395,1,1,1344.9000000059605
7AyKpd06,NA,NA,7AyKpd06,2020-0188,2021-09-22,07:22:14,08:54:36,NA,incomplete,false,NA,true,3,9,NA,left,E20_Q6_ansR.png,E20_Q2_ansL.png,within,NA,NaN,NA,right,1418.2000000178814,0,1,1137.2000000178814
7AyKpd06,NA,NA,7AyKpd06,2020-0188,2021-09-22,07:22:14,08:54:36,NA,incomplete,false,NA,true,3,10,NA,right,E24_Q3_ansL.png,E24_Q8_ansR.png,within,NA,NaN,NA,left,5791.5999999940395,0,1,1394.300000011921
7AyKpd06,NA,NA,7AyKpd06,2020-0188,2021-09-22,07:22:14,08:54:36,NA,incomplete,false,NA,true,3,11,NA,right,E20_Q4_ansR.png,E1_Q6_ansR.png,between,NA,NaN,NA,right,2056.5,1,1,1394.800000011921
7AyKpd06,NA,NA,7AyKpd06,2020-0188,2021-09-22,07:22:14,08:54:36,NA,incomplete,false,NA,true,3,12,NA,left,E24_Q10_ansR.png,E24_Q4_ansL.png,within,NA,NaN,NA,right,5900.9000000059605,0,0,1882.699999988079
7AyKpd06,NA,NA,7AyKpd06,2020-0188,2021-09-22,07:22:14,08:54:36,NA,incomplete,false,NA,true,3,13,NA,right,E24_Q2_ansR.png,E24_Q7_ansR.png,within,NA,NaN,NA,left,3740.899999976158,0,0,1639.800000011921
7AyKpd06,NA,NA,7AyKpd06,2020-0188,2021-09-22,07:22:14,08:54:36,NA,incomplete,false,NA,true,3,14,NA,right,E20_Q8_ansL.png,E1_Q3_ansR.png,between,NA,NaN,NA,right,1460.5,1,2,2178.0999999940395
7AyKpd06,NA,NA,7AyKpd06,2020-0188,2021-09-22,07:22:14,08:54:36,NA,incomplete,false,NA,true,3,15,NA,right,E20_Q10_ansL.png,E20_Q8_ansL.png,within,NA,NaN,NA,left,2340.199999988079,0,1,1385.1000000238419
7AyKpd06,NA,NA,7AyKpd06,2020-0188,2021-09-22,07:22:14,08:54:36,NA,incomplete,false,NA,true,3,16,NA,right,E20_Q7_ansL.png,E20_Q10_ansL.png,within,NA,NaN,NA,right,1719.300000011921,1,0,3126.5
7AyKpd06,NA,NA,7AyKpd06,2020-0188,2021-09-22,07:22:14,08:54:36,NA,incomplete,false,NA,true,3,17,NA,right,E1_Q1_ansL.png,E1_Q7_ansL.png,within,NA,NaN,NA,right,2646.800000011921,1,1,1059.800000011921
7AyKpd06,NA,NA,7AyKpd06,2020-0188,2021-09-22,07:22:14,08:54:36,NA,incomplete,false,NA,true,3,18,NA,right,E20_Q1_ansL.png,E1_Q1_ansL.png,between,NA,NaN,NA,right,1415.699999988079,1,2,1938
7AyKpd06,NA,NA,7AyKpd06,2020-0188,2021-09-22,07:22:14,08:54:36,NA,incomplete,false,NA,true,3,19,NA,right,E24_Q1_ansR.png,E20_Q2_ansL.png,between,NA,NaN,NA,right,1401.9000000059605,1,3,2741
7AyKpd06,NA,NA,7AyKpd06,2020-0188,2021-09-22,07:22:14,08:54:36,NA,incomplete,false,NA,true,3,20,NA,right,E20_Q6_ansR.png,E20_Q5_ansR.png,within,NA,NaN,NA,right,3809.7999999821186,1,1,1637.5999999940395
7AyKpd06,NA,NA,7AyKpd06,2020-0188,2021-09-22,07:22:14,08:54:36,NA,incomplete,false,NA,true,3,21,NA,left,E24_Q9_ansL.png,E24_Q10_ansR.png,within,NA,NaN,NA,left,1896.2000000178814,1,2,3344.399999976158
7AyKpd06,NA,NA,7AyKpd06,2020-0188,2021-09-22,07:22:14,08:54:36,NA,incomplete,false,NA,true,3,22,NA,left,E24_Q3_ansL.png,E24_Q6_ansL.png,within,NA,NaN,NA,right,2385.7000000178814,0,1,1451.7999999821186
7AyKpd06,NA,NA,7AyKpd06,2020-0188,2021-09-22,07:22:14,08:54:36,NA,incomplete,false,NA,true,3,23,NA,left,E20_Q7_ansL.png,E24_Q9_ansL.png,between,NA,NaN,NA,left,2081.9000000059605,1,3,1352.5
7AyKpd06,NA,NA,7AyKpd06,2020-0188,2021-09-22,07:22:14,08:54:36,NA,incomplete,false,NA,true,3,24,NA,left,E20_Q3_ansR.png,E20_Q9_ansR.png,within,NA,NaN,NA,right,3708.300000011921,0,1,1279.5999999940395
7AyKpd06,NA,NA,7AyKpd06,2020-0188,2021-09-22,07:22:14,08:54:36,NA,incomplete,false,NA,true,3,25,NA,left,E1_Q5_ansR.png,E1_Q2_ansL.png,within,NA,NaN,NA,left,3255.9000000059605,1,1,1213.300000011921
7AyKpd06,NA,NA,7AyKpd06,2020-0188,2021-09-22,07:22:14,08:54:36,NA,incomplete,false,NA,true,3,26,NA,right,E24_Q7_ansR.png,E24_Q1_ansR.png,within,NA,NaN,NA,left,2909.5999999940395,0,1,1009.7000000178814
7AyKpd06,NA,NA,7AyKpd06,2020-0188,2021-09-22,07:22:14,08:54:36,NA,incomplete,false,true,NA,4,0,E27_Q9_ansR.png,right,NA,NA,NA,right,2071,true,NA,NA,NA,NA,NA
7AyKpd06,NA,NA,7AyKpd06,2020-0188,2021-09-22,07:22:14,08:54:36,NA,incomplete,false,true,NA,4,1,E27_Q1_ansL.png,left,NA,NA,NA,left,1189.59999999404,true,NA,NA,NA,NA,NA
7AyKpd06,NA,NA,7AyKpd06,2020-0188,2021-09-22,07:22:14,08:54:36,NA,incomplete,false,true,NA,4,2,E27_Q6_ansR.png,right,NA,NA,NA,right,895.59999999404,true,NA,NA,NA,NA,NA
7AyKpd06,NA,NA,7AyKpd06,2020-0188,2021-09-22,07:22:14,08:54:36,NA,incomplete,false,true,NA,4,3,E27_Q7_ansL.png,left,NA,NA,NA,left,1378.29999998212,true,NA,NA,NA,NA,NA
7AyKpd06,NA,NA,7AyKpd06,2020-0188,2021-09-22,07:22:14,08:54:36,NA,incomplete,false,true,NA,4,4,E27_Q10_ansL.png,left,NA,NA,NA,left,1076.09999999404,true,NA,NA,NA,NA,NA
7AyKpd06,NA,NA,7AyKpd06,2020-0188,2021-09-22,07:22:14,08:54:36,NA,incomplete,false,true,NA,4,5,E27_Q5_ansR.png,right,NA,NA,NA,right,1128.5,true,NA,NA,NA,NA,NA
7AyKpd06,NA,NA,7AyKpd06,2020-0188,2021-09-22,07:22:14,08:54:36,NA,incomplete,false,true,NA,4,6,E27_Q8_ansL.png,left,NA,NA,NA,left,923.5,true,NA,NA,NA,NA,NA
7AyKpd06,NA,NA,7AyKpd06,2020-0188,2021-09-22,07:22:14,08:54:36,NA,incomplete,false,true,NA,4,7,E27_Q2_ansL.png,left,NA,NA,NA,left,895.5,true,NA,NA,NA,NA,NA
7AyKpd06,NA,NA,7AyKpd06,2020-0188,2021-09-22,07:22:14,08:54:36,NA,incomplete,false,true,NA,4,8,E27_Q4_ansR.png,right,NA,NA,NA,right,724.200000017881,true,NA,NA,NA,NA,NA
7AyKpd06,NA,NA,7AyKpd06,2020-0188,2021-09-22,07:22:14,08:54:36,NA,incomplete,false,true,NA,4,9,E27_Q3_ansR.png,right,NA,NA,NA,right,3047.40000000596,true,NA,NA,NA,NA,NA
7AyKpd06,NA,NA,7AyKpd06,2020-0188,2021-09-22,07:22:14,08:54:36,NA,incomplete,false,true,NA,4,10,E16_Q7_ansR.png,right,NA,NA,NA,right,1085.59999999404,true,NA,NA,NA,NA,NA
7AyKpd06,NA,NA,7AyKpd06,2020-0188,2021-09-22,07:22:14,08:54:36,NA,incomplete,false,true,NA,4,11,E16_Q5_ansL.png,left,NA,NA,NA,left,911.800000011921,true,NA,NA,NA,NA,NA
7AyKpd06,NA,NA,7AyKpd06,2020-0188,2021-09-22,07:22:14,08:54:36,NA,incomplete,false,true,NA,4,12,E16_Q1_ansR.png,right,NA,NA,NA,right,862.5,true,NA,NA,NA,NA,NA
7AyKpd06,NA,NA,7AyKpd06,2020-0188,2021-09-22,07:22:14,08:54:36,NA,incomplete,false,true,NA,4,13,E16_Q9_ansL.png,left,NA,NA,NA,left,1168.59999999404,true,NA,NA,NA,NA,NA
7AyKpd06,NA,NA,7AyKpd06,2020-0188,2021-09-22,07:22:14,08:54:36,NA,incomplete,false,true,NA,4,14,E16_Q3_ansL.png,left,NA,NA,NA,left,1252,true,NA,NA,NA,NA,NA
7AyKpd06,NA,NA,7AyKpd06,2020-0188,2021-09-22,07:22:14,08:54:36,NA,incomplete,false,true,NA,4,15,E16_Q2_ansR.png,right,NA,NA,NA,right,1381.59999999404,true,NA,NA,NA,NA,NA
7AyKpd06,NA,NA,7AyKpd06,2020-0188,2021-09-22,07:22:14,08:54:36,NA,incomplete,false,true,NA,4,16,E16_Q8_ansR.png,right,NA,NA,NA,right,1262.90000000596,true,NA,NA,NA,NA,NA
7AyKpd06,NA,NA,7AyKpd06,2020-0188,2021-09-22,07:22:14,08:54:36,NA,incomplete,false,true,NA,4,17,E16_Q6_ansL.png,left,NA,NA,NA,left,1033.09999999404,true,NA,NA,NA,NA,NA
7AyKpd06,NA,NA,7AyKpd06,2020-0188,2021-09-22,07:22:14,08:54:36,NA,incomplete,false,true,NA,4,18,E16_Q10_ansR.png,right,NA,NA,NA,right,1515.5,true,NA,NA,NA,NA,NA
7AyKpd06,NA,NA,7AyKpd06,2020-0188,2021-09-22,07:22:14,08:54:36,NA,incomplete,false,true,NA,4,19,E16_Q4_ansL.png,left,NA,NA,NA,left,1212.40000000596,true,NA,NA,NA,NA,NA
7AyKpd06,NA,NA,7AyKpd06,2020-0188,2021-09-22,07:22:14,08:54:36,NA,incomplete,false,true,NA,4,20,E29_Q6_ansR.png,right,NA,NA,NA,right,1460.20000001788,true,NA,NA,NA,NA,NA
7AyKpd06,NA,NA,7AyKpd06,2020-0188,2021-09-22,07:22:14,08:54:36,NA,incomplete,false,true,NA,4,21,E29_Q1_ansL.png,left,NA,NA,NA,left,986.799999982119,true,NA,NA,NA,NA,NA
7AyKpd06,NA,NA,7AyKpd06,2020-0188,2021-09-22,07:22:14,08:54:36,NA,incomplete,false,true,NA,4,22,E29_Q7_ansL.png,left,NA,NA,NA,left,1143.30000001192,true,NA,NA,NA,NA,NA
7AyKpd06,NA,NA,7AyKpd06,2020-0188,2021-09-22,07:22:14,08:54:36,NA,incomplete,false,true,NA,4,23,E29_Q9_ansR.png,right,NA,NA,NA,right,909.09999999404,true,NA,NA,NA,NA,NA
7AyKpd06,NA,NA,7AyKpd06,2020-0188,2021-09-22,07:22:14,08:54:36,NA,incomplete,false,true,NA,4,24,E29_Q2_ansL.png,left,NA,NA,NA,left,1115.89999997616,true,NA,NA,NA,NA,NA
7AyKpd06,NA,NA,7AyKpd06,2020-0188,2021-09-22,07:22:14,08:54:36,NA,incomplete,false,true,NA,4,25,E29_Q10_ansL.png,left,NA,NA,NA,left,1428.40000000596,true,NA,NA,NA,NA,NA
7AyKpd06,NA,NA,7AyKpd06,2020-0188,2021-09-22,07:22:14,08:54:36,NA,incomplete,false,true,NA,4,26,E29_Q4_ansR.png,right,NA,NA,NA,right,807,true,NA,NA,NA,NA,NA
7AyKpd06,NA,NA,7AyKpd06,2020-0188,2021-09-22,07:22:14,08:54:36,NA,incomplete,false,true,NA,4,27,E29_Q3_ansR.png,right,NA,NA,NA,right,1135.19999998808,true,NA,NA,NA,NA,NA
7AyKpd06,NA,NA,7AyKpd06,2020-0188,2021-09-22,07:22:14,08:54:36,NA,incomplete,false,true,NA,4,28,E29_Q5_ansR.png,right,NA,NA,NA,right,1118.30000001192,true,NA,NA,NA,NA,NA
7AyKpd06,NA,NA,7AyKpd06,2020-0188,2021-09-22,07:22:14,08:54:36,NA,incomplete,false,true,NA,4,29,E29_Q8_ansL.png,left,NA,NA,NA,left,1881.59999999404,true,NA,NA,NA,NA,NA
7AyKpd06,NA,NA,7AyKpd06,2020-0188,2021-09-22,07:22:14,08:54:36,NA,incomplete,false,NA,true,4,0,NA,left,E27_Q10_ansL.png,E27_Q2_ansL.png,within,NA,NaN,NA,left,2412.5,1,1,1141.5
7AyKpd06,NA,NA,7AyKpd06,2020-0188,2021-09-22,07:22:14,08:54:36,NA,incomplete,false,NA,true,4,1,NA,left,E29_Q9_ansR.png,E29_Q4_ansR.png,within,NA,NaN,NA,left,1828.2999999821186,1,1,1444.5999999940395
7AyKpd06,NA,NA,7AyKpd06,2020-0188,2021-09-22,07:22:14,08:54:36,NA,incomplete,false,NA,true,4,2,NA,right,E27_Q4_ansR.png,E27_Q5_ansR.png,within,NA,NaN,NA,right,4466.199999988079,1,1,2165.5999999940395
7AyKpd06,NA,NA,7AyKpd06,2020-0188,2021-09-22,07:22:14,08:54:36,NA,incomplete,false,NA,true,4,3,NA,right,E27_Q3_ansR.png,E27_Q8_ansL.png,within,NA,NaN,NA,left,2076,0,1,1237.199999988079
7AyKpd06,NA,NA,7AyKpd06,2020-0188,2021-09-22,07:22:14,08:54:36,NA,incomplete,false,NA,true,4,4,NA,right,E29_Q7_ansL.png,E16_Q4_ansL.png,between,NA,NaN,NA,right,2176,1,2,1076.699999988079
7AyKpd06,NA,NA,7AyKpd06,2020-0188,2021-09-22,07:22:14,08:54:36,NA,incomplete,false,NA,true,4,5,NA,right,E29_Q3_ansR.png,E29_Q2_ansL.png,within,NA,NaN,NA,left,2236.699999988079,0,1,1652.5
7AyKpd06,NA,NA,7AyKpd06,2020-0188,2021-09-22,07:22:14,08:54:36,NA,incomplete,false,NA,true,4,6,NA,left,E27_Q6_ansR.png,E27_Q5_ansR.png,within,NA,NaN,NA,left,1759.199999988079,1,1,1440.2000000178814
7AyKpd06,NA,NA,7AyKpd06,2020-0188,2021-09-22,07:22:14,08:54:36,NA,incomplete,false,NA,true,4,7,NA,right,E16_Q2_ansR.png,E16_Q1_ansR.png,within,NA,NaN,NA,right,3284.0999999940395,1,1,1122.199999988079
7AyKpd06,NA,NA,7AyKpd06,2020-0188,2021-09-22,07:22:14,08:54:36,NA,incomplete,false,NA,true,4,8,NA,right,E27_Q7_ansL.png,E27_Q9_ansR.png,within,NA,NaN,NA,left,2096.0999999940395,0,0,1247.9000000059605
7AyKpd06,NA,NA,7AyKpd06,2020-0188,2021-09-22,07:22:14,08:54:36,NA,incomplete,false,NA,true,4,9,NA,left,E27_Q4_ansR.png,E16_Q5_ansL.png,between,NA,NaN,NA,left,1148.4000000059605,1,2,1906.4000000059605
7AyKpd06,NA,NA,7AyKpd06,2020-0188,2021-09-22,07:22:14,08:54:36,NA,incomplete,false,NA,true,4,10,NA,right,E29_Q5_ansR.png,E29_Q10_ansL.png,within,NA,NaN,NA,left,1667.7000000178814,0,1,1370.4000000059605
7AyKpd06,NA,NA,7AyKpd06,2020-0188,2021-09-22,07:22:14,08:54:36,NA,incomplete,false,NA,true,4,11,NA,right,E16_Q10_ansR.png,E16_Q2_ansR.png,within,NA,NaN,NA,right,2308,1,1,1531.9000000059605
7AyKpd06,NA,NA,7AyKpd06,2020-0188,2021-09-22,07:22:14,08:54:36,NA,incomplete,false,NA,true,4,12,NA,right,E16_Q3_ansL.png,E16_Q5_ansL.png,within,NA,NaN,NA,left,2046.5999999940395,0,0,1719.5999999940395
7AyKpd06,NA,NA,7AyKpd06,2020-0188,2021-09-22,07:22:14,08:54:36,NA,incomplete,false,NA,true,4,13,NA,right,E27_Q8_ansL.png,E27_Q7_ansL.png,within,NA,NaN,NA,right,2564.9000000059605,1,0,1273.5999999940395
7AyKpd06,NA,NA,7AyKpd06,2020-0188,2021-09-22,07:22:14,08:54:36,NA,incomplete,false,NA,true,4,14,NA,left,E16_Q3_ansL.png,E16_Q6_ansL.png,within,NA,NaN,NA,left,2469.9000000059605,1,1,956.6999999880791
7AyKpd06,NA,NA,7AyKpd06,2020-0188,2021-09-22,07:22:14,08:54:36,NA,incomplete,false,NA,true,4,15,NA,right,E16_Q1_ansR.png,E27_Q3_ansR.png,between,NA,NaN,NA,right,2228.2000000178814,1,2,1523.2999999821186
7AyKpd06,NA,NA,7AyKpd06,2020-0188,2021-09-22,07:22:14,08:54:36,NA,incomplete,false,NA,true,4,16,NA,right,E16_Q4_ansL.png,E16_Q8_ansR.png,within,NA,NaN,NA,right,3235.199999988079,1,1,2496.9000000059605
7AyKpd06,NA,NA,7AyKpd06,2020-0188,2021-09-22,07:22:14,08:54:36,NA,incomplete,false,NA,true,4,17,NA,left,E16_Q9_ansL.png,E16_Q8_ansR.png,within,NA,NaN,NA,left,2718.600000023842,1,1,1830.699999988079
7AyKpd06,NA,NA,7AyKpd06,2020-0188,2021-09-22,07:22:14,08:54:36,NA,incomplete,false,NA,true,4,18,NA,right,E29_Q10_ansL.png,E29_Q7_ansL.png,within,NA,NaN,NA,right,3010.5,1,1,854.4000000059605
7AyKpd06,NA,NA,7AyKpd06,2020-0188,2021-09-22,07:22:14,08:54:36,NA,incomplete,false,NA,true,4,19,NA,right,E29_Q9_ansR.png,E29_Q6_ansR.png,within,NA,NaN,NA,right,1395.0999999940395,1,2,1270.6000000238419
7AyKpd06,NA,NA,7AyKpd06,2020-0188,2021-09-22,07:22:14,08:54:36,NA,incomplete,false,NA,true,4,20,NA,left,E16_Q7_ansR.png,E16_Q9_ansL.png,within,NA,NaN,NA,right,2954.5999999940395,0,2,2625.7000000178814
7AyKpd06,NA,NA,7AyKpd06,2020-0188,2021-09-22,07:22:14,08:54:36,NA,incomplete,false,NA,true,4,21,NA,left,E16_Q6_ansL.png,E29_Q6_ansR.png,between,NA,NaN,NA,left,1465.800000011921,1,2,1486.800000011921
7AyKpd06,NA,NA,7AyKpd06,2020-0188,2021-09-22,07:22:14,08:54:36,NA,incomplete,false,NA,true,4,22,NA,right,E29_Q8_ansL.png,E29_Q4_ansR.png,within,NA,NaN,NA,right,1867.7000000178814,1,1,1274.4000000059605
7AyKpd06,NA,NA,7AyKpd06,2020-0188,2021-09-22,07:22:14,08:54:36,NA,incomplete,false,NA,true,4,23,NA,left,E16_Q10_ansR.png,E29_Q1_ansL.png,between,NA,NaN,NA,left,1117.4000000059605,1,2,1653.3999999761581
7AyKpd06,NA,NA,7AyKpd06,2020-0188,2021-09-22,07:22:14,08:54:36,NA,incomplete,false,NA,true,4,24,NA,right,E27_Q10_ansL.png,E27_Q1_ansL.png,within,NA,NaN,NA,right,2351.5999999940395,1,1,1230.7000000178814
7AyKpd06,NA,NA,7AyKpd06,2020-0188,2021-09-22,07:22:14,08:54:36,NA,incomplete,false,NA,true,4,25,NA,left,E29_Q1_ansL.png,E29_Q2_ansL.png,within,NA,NaN,NA,left,1566,1,1,1145
7AyKpd06,NA,NA,7AyKpd06,2020-0188,2021-09-22,07:22:14,08:54:36,NA,incomplete,false,NA,true,4,26,NA,right,E16_Q7_ansR.png,E27_Q2_ansL.png,between,NA,NaN,NA,right,1375.9000000059605,1,3,1618.199999988079
7AyKpd06,NA,NA,7AyKpd06,2020-0188,2021-09-22,07:22:14,08:54:36,NA,incomplete,false,true,NA,5,0,E2_Q6_ansL.png,left,NA,NA,NA,left,2335.29999998212,true,NA,NA,NA,NA,NA
7AyKpd06,NA,NA,7AyKpd06,2020-0188,2021-09-22,07:22:14,08:54:36,NA,incomplete,false,true,NA,5,1,E2_Q1_ansL.png,left,NA,NA,NA,left,1721,true,NA,NA,NA,NA,NA
7AyKpd06,NA,NA,7AyKpd06,2020-0188,2021-09-22,07:22:14,08:54:36,NA,incomplete,false,true,NA,5,2,E2_Q9_ansL.png,left,NA,NA,NA,left,2093.40000000596,true,NA,NA,NA,NA,NA
7AyKpd06,NA,NA,7AyKpd06,2020-0188,2021-09-22,07:22:14,08:54:36,NA,incomplete,false,true,NA,5,3,E2_Q3_ansR.png,right,NA,NA,NA,right,1099.5,true,NA,NA,NA,NA,NA
7AyKpd06,NA,NA,7AyKpd06,2020-0188,2021-09-22,07:22:14,08:54:36,NA,incomplete,false,true,NA,5,4,E2_Q10_ansL.png,left,NA,NA,NA,left,1000.90000000596,true,NA,NA,NA,NA,NA
7AyKpd06,NA,NA,7AyKpd06,2020-0188,2021-09-22,07:22:14,08:54:36,NA,incomplete,false,true,NA,5,5,E2_Q5_ansL.png,left,NA,NA,NA,left,838.899999976158,true,NA,NA,NA,NA,NA
7AyKpd06,NA,NA,7AyKpd06,2020-0188,2021-09-22,07:22:14,08:54:36,NA,incomplete,false,true,NA,5,6,E2_Q4_ansL.png,left,NA,NA,NA,left,2637,true,NA,NA,NA,NA,NA
7AyKpd06,NA,NA,7AyKpd06,2020-0188,2021-09-22,07:22:14,08:54:36,NA,incomplete,false,true,NA,5,7,E2_Q2_ansR.png,right,NA,NA,NA,right,1184.90000000596,true,NA,NA,NA,NA,NA
7AyKpd06,NA,NA,7AyKpd06,2020-0188,2021-09-22,07:22:14,08:54:36,NA,incomplete,false,true,NA,5,8,E2_Q8_ansR.png,right,NA,NA,NA,right,1703.40000000596,true,NA,NA,NA,NA,NA
7AyKpd06,NA,NA,7AyKpd06,2020-0188,2021-09-22,07:22:14,08:54:36,NA,incomplete,false,true,NA,5,9,E2_Q7_ansR.png,right,NA,NA,NA,right,2515.5,true,NA,NA,NA,NA,NA
7AyKpd06,NA,NA,7AyKpd06,2020-0188,2021-09-22,07:22:14,08:54:36,NA,incomplete,false,true,NA,5,10,E5_Q7_ansL.png,left,NA,NA,NA,left,1750.30000001192,true,NA,NA,NA,NA,NA
7AyKpd06,NA,NA,7AyKpd06,2020-0188,2021-09-22,07:22:14,08:54:36,NA,incomplete,false,true,NA,5,11,E5_Q6_ansR.png,right,NA,NA,NA,right,1013.59999999404,true,NA,NA,NA,NA,NA
7AyKpd06,NA,NA,7AyKpd06,2020-0188,2021-09-22,07:22:14,08:54:36,NA,incomplete,false,true,NA,5,12,E5_Q4_ansR.png,right,NA,NA,NA,right,1050.09999999404,true,NA,NA,NA,NA,NA
7AyKpd06,NA,NA,7AyKpd06,2020-0188,2021-09-22,07:22:14,08:54:36,NA,incomplete,false,true,NA,5,13,E5_Q9_ansR.png,right,NA,NA,NA,right,883.5,true,NA,NA,NA,NA,NA
7AyKpd06,NA,NA,7AyKpd06,2020-0188,2021-09-22,07:22:14,08:54:36,NA,incomplete,false,true,NA,5,14,E5_Q5_ansR.png,right,NA,NA,NA,right,914.700000017881,true,NA,NA,NA,NA,NA
7AyKpd06,NA,NA,7AyKpd06,2020-0188,2021-09-22,07:22:14,08:54:36,NA,incomplete,false,true,NA,5,15,E5_Q1_ansL.png,left,NA,NA,NA,left,1197.20000001788,true,NA,NA,NA,NA,NA
7AyKpd06,NA,NA,7AyKpd06,2020-0188,2021-09-22,07:22:14,08:54:36,NA,incomplete,false,true,NA,5,16,E5_Q2_ansL.png,left,NA,NA,NA,left,1053,true,NA,NA,NA,NA,NA
7AyKpd06,NA,NA,7AyKpd06,2020-0188,2021-09-22,07:22:14,08:54:36,NA,incomplete,false,true,NA,5,17,E5_Q3_ansR.png,right,NA,NA,NA,right,863.800000011921,true,NA,NA,NA,NA,NA
7AyKpd06,NA,NA,7AyKpd06,2020-0188,2021-09-22,07:22:14,08:54:36,NA,incomplete,false,true,NA,5,18,E5_Q10_ansR.png,right,NA,NA,NA,right,1789.09999999404,true,NA,NA,NA,NA,NA
7AyKpd06,NA,NA,7AyKpd06,2020-0188,2021-09-22,07:22:14,08:54:36,NA,incomplete,false,true,NA,5,19,E5_Q8_ansL.png,left,NA,NA,NA,left,1509.40000000596,true,NA,NA,NA,NA,NA
7AyKpd06,NA,NA,7AyKpd06,2020-0188,2021-09-22,07:22:14,08:54:36,NA,incomplete,false,true,NA,5,20,E3_Q3_ansR.png,right,NA,NA,NA,right,2254.30000001192,true,NA,NA,NA,NA,NA
7AyKpd06,NA,NA,7AyKpd06,2020-0188,2021-09-22,07:22:14,08:54:36,NA,incomplete,false,true,NA,5,21,E3_Q4_ansL.png,left,NA,NA,NA,left,1686.5,true,NA,NA,NA,NA,NA
7AyKpd06,NA,NA,7AyKpd06,2020-0188,2021-09-22,07:22:14,08:54:36,NA,incomplete,false,true,NA,5,22,E3_Q10_ansR.png,right,NA,NA,NA,right,2135.09999999404,true,NA,NA,NA,NA,NA
7AyKpd06,NA,NA,7AyKpd06,2020-0188,2021-09-22,07:22:14,08:54:36,NA,incomplete,false,true,NA,5,23,E3_Q1_ansR.png,right,NA,NA,NA,right,1217.80000001192,true,NA,NA,NA,NA,NA
7AyKpd06,NA,NA,7AyKpd06,2020-0188,2021-09-22,07:22:14,08:54:36,NA,incomplete,false,true,NA,5,24,E3_Q6_ansR.png,right,NA,NA,NA,right,1327.59999999404,true,NA,NA,NA,NA,NA
7AyKpd06,NA,NA,7AyKpd06,2020-0188,2021-09-22,07:22:14,08:54:36,NA,incomplete,false,true,NA,5,25,E3_Q2_ansL.png,left,NA,NA,NA,left,1417.80000001192,true,NA,NA,NA,NA,NA
7AyKpd06,NA,NA,7AyKpd06,2020-0188,2021-09-22,07:22:14,08:54:36,NA,incomplete,false,true,NA,5,26,E3_Q8_ansL.png,left,NA,NA,NA,left,1854.60000002384,true,NA,NA,NA,NA,NA
7AyKpd06,NA,NA,7AyKpd06,2020-0188,2021-09-22,07:22:14,08:54:36,NA,incomplete,false,true,NA,5,27,E3_Q7_ansL.png,left,NA,NA,NA,left,1747.90000000596,true,NA,NA,NA,NA,NA
7AyKpd06,NA,NA,7AyKpd06,2020-0188,2021-09-22,07:22:14,08:54:36,NA,incomplete,false,true,NA,5,28,E3_Q9_ansL.png,left,NA,NA,NA,left,1458.60000002384,true,NA,NA,NA,NA,NA
7AyKpd06,NA,NA,7AyKpd06,2020-0188,2021-09-22,07:22:14,08:54:36,NA,incomplete,false,true,NA,5,29,E3_Q5_ansR.png,right,NA,NA,NA,right,1584.5,true,NA,NA,NA,NA,NA
7AyKpd06,NA,NA,7AyKpd06,2020-0188,2021-09-22,07:22:14,08:54:36,NA,incomplete,false,NA,true,5,0,NA,left,E5_Q6_ansR.png,E5_Q5_ansR.png,within,NA,NaN,NA,left,5960.699999988079,1,1,1215.9000000059605
7AyKpd06,NA,NA,7AyKpd06,2020-0188,2021-09-22,07:22:14,08:54:36,NA,incomplete,false,NA,true,5,1,NA,left,E2_Q6_ansL.png,E2_Q3_ansR.png,within,NA,NaN,NA,left,1041.4000000059605,1,1,3456
7AyKpd06,NA,NA,7AyKpd06,2020-0188,2021-09-22,07:22:14,08:54:36,NA,incomplete,false,NA,true,5,2,NA,right,E2_Q10_ansL.png,E2_Q1_ansL.png,within,NA,NaN,NA,right,1589,1,1,1882.2999999821186
7AyKpd06,NA,NA,7AyKpd06,2020-0188,2021-09-22,07:22:14,08:54:36,NA,incomplete,false,NA,true,5,3,NA,left,E3_Q6_ansR.png,E3_Q7_ansL.png,within,NA,NaN,NA,left,2425.800000011921,1,0,1475
7AyKpd06,NA,NA,7AyKpd06,2020-0188,2021-09-22,07:22:14,08:54:36,NA,incomplete,false,NA,true,5,4,NA,right,E5_Q10_ansR.png,E5_Q1_ansL.png,within,NA,NaN,NA,right,3454.9000000059605,1,0,1541.4000000059605
7AyKpd06,NA,NA,7AyKpd06,2020-0188,2021-09-22,07:22:14,08:54:36,NA,incomplete,false,NA,true,5,5,NA,right,E3_Q4_ansL.png,E5_Q10_ansR.png,between,NA,NaN,NA,right,7067.199999988079,1,2,3009.5999999940395
7AyKpd06,NA,NA,7AyKpd06,2020-0188,2021-09-22,07:22:14,08:54:36,NA,incomplete,false,NA,true,5,6,NA,left,E2_Q5_ansL.png,E2_Q8_ansR.png,within,NA,NaN,NA,left,3098.300000011921,1,1,1505.300000011921
7AyKpd06,NA,NA,7AyKpd06,2020-0188,2021-09-22,07:22:14,08:54:36,NA,incomplete,false,NA,true,5,7,NA,left,E2_Q9_ansL.png,E2_Q5_ansL.png,within,NA,NaN,NA,left,1667.5999999940395,1,1,1118.0999999940395
7AyKpd06,NA,NA,7AyKpd06,2020-0188,2021-09-22,07:22:14,08:54:36,NA,incomplete,false,NA,true,5,8,NA,right,E5_Q1_ansL.png,E5_Q4_ansR.png,within,NA,NaN,NA,right,2950.9000000059605,1,1,1559.800000011921
7AyKpd06,NA,NA,7AyKpd06,2020-0188,2021-09-22,07:22:14,08:54:36,NA,incomplete,false,NA,true,5,9,NA,right,E5_Q4_ansR.png,E2_Q7_ansR.png,between,NA,NaN,NA,right,1203.5999999940395,1,3,1421.5999999940395
7AyKpd06,NA,NA,7AyKpd06,2020-0188,2021-09-22,07:22:14,08:54:36,NA,incomplete,false,NA,true,5,10,NA,right,E5_Q3_ansR.png,E5_Q5_ansR.png,within,NA,NaN,NA,right,1928.2000000178814,1,1,1197.5999999940395
7AyKpd06,NA,NA,7AyKpd06,2020-0188,2021-09-22,07:22:14,08:54:36,NA,incomplete,false,NA,true,5,11,NA,left,E3_Q3_ansR.png,E3_Q1_ansR.png,within,NA,NaN,NA,left,1706.4000000059605,1,1,2500.9000000059605
7AyKpd06,NA,NA,7AyKpd06,2020-0188,2021-09-22,07:22:14,08:54:36,NA,incomplete,false,NA,true,5,12,NA,left,E3_Q10_ansR.png,E3_Q2_ansL.png,within,NA,NaN,NA,right,3615,0,0,1362.800000011921
7AyKpd06,NA,NA,7AyKpd06,2020-0188,2021-09-22,07:22:14,08:54:36,NA,incomplete,false,NA,true,5,13,NA,right,E2_Q7_ansR.png,E2_Q4_ansL.png,within,NA,NaN,NA,left,2686,0,1,1272.0999999940395
7AyKpd06,NA,NA,7AyKpd06,2020-0188,2021-09-22,07:22:14,08:54:36,NA,incomplete,false,NA,true,5,14,NA,right,E3_Q9_ansL.png,E3_Q2_ansL.png,within,NA,NaN,NA,right,3085.800000011921,1,1,1491.8999999761581
7AyKpd06,NA,NA,7AyKpd06,2020-0188,2021-09-22,07:22:14,08:54:36,NA,incomplete,false,NA,true,5,15,NA,left,E5_Q9_ansR.png,E5_Q2_ansL.png,within,NA,NaN,NA,left,2036.5999999940395,1,1,1528.0999999940395
7AyKpd06,NA,NA,7AyKpd06,2020-0188,2021-09-22,07:22:14,08:54:36,NA,incomplete,false,NA,true,5,16,NA,right,E3_Q10_ansR.png,E5_Q8_ansL.png,between,NA,NaN,NA,right,8846.399999976158,1,2,1039.3999999761581
7AyKpd06,NA,NA,7AyKpd06,2020-0188,2021-09-22,07:22:14,08:54:36,NA,incomplete,false,NA,true,5,17,NA,left,E5_Q3_ansR.png,E3_Q3_ansR.png,between,NA,NaN,NA,left,3160.699999988079,1,1,1575.5
7AyKpd06,NA,NA,7AyKpd06,2020-0188,2021-09-22,07:22:14,08:54:36,NA,incomplete,false,NA,true,5,18,NA,right,E2_Q2_ansR.png,E2_Q10_ansL.png,within,NA,NaN,NA,right,2443,1,1,3052.0999999940395
7AyKpd06,NA,NA,7AyKpd06,2020-0188,2021-09-22,07:22:14,08:54:36,NA,incomplete,false,NA,true,5,19,NA,left,E3_Q8_ansL.png,E3_Q5_ansR.png,within,NA,NaN,NA,right,4693.4000000059605,0,1,1407.9000000059605
7AyKpd06,NA,NA,7AyKpd06,2020-0188,2021-09-22,07:22:14,08:54:36,NA,incomplete,false,NA,true,5,20,NA,right,E5_Q6_ansR.png,E2_Q8_ansR.png,between,NA,NaN,NA,right,2301.199999988079,1,1,2370.9000000059605
7AyKpd06,NA,NA,7AyKpd06,2020-0188,2021-09-22,07:22:14,08:54:36,NA,incomplete,false,NA,true,5,21,NA,left,E3_Q1_ansR.png,E3_Q8_ansL.png,within,NA,NaN,NA,left,1379.7000000178814,1,0,1123.0999999940395
7AyKpd06,NA,NA,7AyKpd06,2020-0188,2021-09-22,07:22:14,08:54:36,NA,incomplete,false,NA,true,5,22,NA,right,E5_Q8_ansL.png,E5_Q2_ansL.png,within,NA,NaN,NA,left,3233.7999999821186,0,1,1859.5
7AyKpd06,NA,NA,7AyKpd06,2020-0188,2021-09-22,07:22:14,08:54:36,NA,incomplete,false,NA,true,5,23,NA,left,E2_Q3_ansR.png,E2_Q4_ansL.png,within,NA,NaN,NA,left,3038.699999988079,1,1,1303.800000011921
7AyKpd06,NA,NA,7AyKpd06,2020-0188,2021-09-22,07:22:14,08:54:36,NA,incomplete,false,NA,true,5,24,NA,left,E2_Q2_ansR.png,E5_Q7_ansL.png,between,NA,NaN,NA,left,4074.5999999940395,1,1,1387.199999988079
7AyKpd06,NA,NA,7AyKpd06,2020-0188,2021-09-22,07:22:14,08:54:36,NA,incomplete,false,NA,true,5,25,NA,left,E3_Q4_ansL.png,E3_Q6_ansR.png,within,NA,NaN,NA,left,1456.4000000059605,1,0,1065.800000011921
7AyKpd06,NA,NA,7AyKpd06,2020-0188,2021-09-22,07:22:14,08:54:36,NA,incomplete,false,NA,true,5,26,NA,left,E5_Q7_ansL.png,E5_Q9_ansR.png,within,NA,NaN,NA,left,1168.7999999821186,1,0,2025.8999999761581
7AyKpd06,NA,NA,7AyKpd06,2020-0188,2021-09-22,07:22:14,08:54:36,NA,incomplete,false,true,NA,6,0,E15_Q9_ansR.png,right,NA,NA,NA,right,2070.30000001192,true,NA,NA,NA,NA,NA
7AyKpd06,NA,NA,7AyKpd06,2020-0188,2021-09-22,07:22:14,08:54:36,NA,incomplete,false,true,NA,6,1,E15_Q3_ansR.png,right,NA,NA,NA,right,1021.70000001788,true,NA,NA,NA,NA,NA
7AyKpd06,NA,NA,7AyKpd06,2020-0188,2021-09-22,07:22:14,08:54:36,NA,incomplete,false,true,NA,6,2,E15_Q8_ansL.png,left,NA,NA,NA,left,1121.70000001788,true,NA,NA,NA,NA,NA
7AyKpd06,NA,NA,7AyKpd06,2020-0188,2021-09-22,07:22:14,08:54:36,NA,incomplete,false,true,NA,6,3,E15_Q10_ansL.png,left,NA,NA,NA,left,767.100000023842,true,NA,NA,NA,NA,NA
7AyKpd06,NA,NA,7AyKpd06,2020-0188,2021-09-22,07:22:14,08:54:36,NA,incomplete,false,true,NA,6,4,E15_Q4_ansR.png,right,NA,NA,NA,right,752.09999999404,true,NA,NA,NA,NA,NA
7AyKpd06,NA,NA,7AyKpd06,2020-0188,2021-09-22,07:22:14,08:54:36,NA,incomplete,false,true,NA,6,5,E15_Q2_ansL.png,left,NA,NA,NA,left,1123.70000001788,true,NA,NA,NA,NA,NA
7AyKpd06,NA,NA,7AyKpd06,2020-0188,2021-09-22,07:22:14,08:54:36,NA,incomplete,false,true,NA,6,6,E15_Q1_ansL.png,left,NA,NA,NA,left,1962.59999999404,true,NA,NA,NA,NA,NA
7AyKpd06,NA,NA,7AyKpd06,2020-0188,2021-09-22,07:22:14,08:54:36,NA,incomplete,false,true,NA,6,7,E15_Q5_ansR.png,right,NA,NA,NA,right,1440.90000000596,true,NA,NA,NA,NA,NA
7AyKpd06,NA,NA,7AyKpd06,2020-0188,2021-09-22,07:22:14,08:54:36,NA,incomplete,false,true,NA,6,8,E15_Q6_ansR.png,right,NA,NA,NA,right,1491.5,true,NA,NA,NA,NA,NA
7AyKpd06,NA,NA,7AyKpd06,2020-0188,2021-09-22,07:22:14,08:54:36,NA,incomplete,false,true,NA,6,9,E15_Q7_ansL.png,left,NA,NA,NA,left,1829,true,NA,NA,NA,NA,NA
7AyKpd06,NA,NA,7AyKpd06,2020-0188,2021-09-22,07:22:14,08:54:36,NA,incomplete,false,true,NA,6,10,E9_Q2_ansR.png,right,NA,NA,NA,right,1675.90000000596,true,NA,NA,NA,NA,NA
7AyKpd06,NA,NA,7AyKpd06,2020-0188,2021-09-22,07:22:14,08:54:36,NA,incomplete,false,true,NA,6,11,E9_Q7_ansR.png,right,NA,NA,NA,right,1128.70000001788,true,NA,NA,NA,NA,NA
7AyKpd06,NA,NA,7AyKpd06,2020-0188,2021-09-22,07:22:14,08:54:36,NA,incomplete,false,true,NA,6,12,E9_Q1_ansR.png,right,NA,NA,NA,right,1279.29999998212,true,NA,NA,NA,NA,NA
7AyKpd06,NA,NA,7AyKpd06,2020-0188,2021-09-22,07:22:14,08:54:36,NA,incomplete,false,true,NA,6,13,E9_Q3_ansL.png,left,NA,NA,NA,left,2036.5,true,NA,NA,NA,NA,NA
7AyKpd06,NA,NA,7AyKpd06,2020-0188,2021-09-22,07:22:14,08:54:36,NA,incomplete,false,true,NA,6,14,E9_Q10_ansR.png,right,NA,NA,NA,right,1856.69999998808,true,NA,NA,NA,NA,NA
7AyKpd06,NA,NA,7AyKpd06,2020-0188,2021-09-22,07:22:14,08:54:36,NA,incomplete,false,true,NA,6,15,E9_Q8_ansR.png,right,NA,NA,NA,right,1061.40000000596,true,NA,NA,NA,NA,NA
7AyKpd06,NA,NA,7AyKpd06,2020-0188,2021-09-22,07:22:14,08:54:36,NA,incomplete,false,true,NA,6,16,E9_Q6_ansL.png,left,NA,NA,NA,left,1508.69999998808,true,NA,NA,NA,NA,NA
7AyKpd06,NA,NA,7AyKpd06,2020-0188,2021-09-22,07:22:14,08:54:36,NA,incomplete,false,true,NA,6,17,E9_Q9_ansL.png,left,NA,NA,NA,left,1525.79999998212,true,NA,NA,NA,NA,NA
7AyKpd06,NA,NA,7AyKpd06,2020-0188,2021-09-22,07:22:14,08:54:36,NA,incomplete,false,true,NA,6,18,E9_Q4_ansL.png,left,NA,NA,NA,left,994.90000000596,true,NA,NA,NA,NA,NA
7AyKpd06,NA,NA,7AyKpd06,2020-0188,2021-09-22,07:22:14,08:54:36,NA,incomplete,false,true,NA,6,19,E9_Q5_ansL.png,left,NA,NA,NA,left,1418.30000001192,true,NA,NA,NA,NA,NA
7AyKpd06,NA,NA,7AyKpd06,2020-0188,2021-09-22,07:22:14,08:54:36,NA,incomplete,false,true,NA,6,20,E4_Q1_ansL.png,left,NA,NA,NA,left,2281.40000000596,true,NA,NA,NA,NA,NA
7AyKpd06,NA,NA,7AyKpd06,2020-0188,2021-09-22,07:22:14,08:54:36,NA,incomplete,false,true,NA,6,21,E4_Q10_ansR.png,right,NA,NA,NA,right,1413.59999999404,true,NA,NA,NA,NA,NA
7AyKpd06,NA,NA,7AyKpd06,2020-0188,2021-09-22,07:22:14,08:54:36,NA,incomplete,false,true,NA,6,22,E4_Q5_ansR.png,right,NA,NA,NA,right,1981.80000001192,true,NA,NA,NA,NA,NA
7AyKpd06,NA,NA,7AyKpd06,2020-0188,2021-09-22,07:22:14,08:54:36,NA,incomplete,false,true,NA,6,23,E4_Q8_ansR.png,right,NA,NA,NA,right,1780.19999998808,true,NA,NA,NA,NA,NA
7AyKpd06,NA,NA,7AyKpd06,2020-0188,2021-09-22,07:22:14,08:54:36,NA,incomplete,false,true,NA,6,24,E4_Q7_ansR.png,right,NA,NA,NA,right,1944.90000000596,true,NA,NA,NA,NA,NA
7AyKpd06,NA,NA,7AyKpd06,2020-0188,2021-09-22,07:22:14,08:54:36,NA,incomplete,false,true,NA,6,25,E4_Q2_ansL.png,left,NA,NA,NA,left,1535,true,NA,NA,NA,NA,NA
7AyKpd06,NA,NA,7AyKpd06,2020-0188,2021-09-22,07:22:14,08:54:36,NA,incomplete,false,true,NA,6,26,E4_Q9_ansL.png,left,NA,NA,NA,left,1410.80000001192,true,NA,NA,NA,NA,NA
7AyKpd06,NA,NA,7AyKpd06,2020-0188,2021-09-22,07:22:14,08:54:36,NA,incomplete,false,true,NA,6,27,E4_Q6_ansR.png,right,NA,NA,NA,right,1539.39999997616,true,NA,NA,NA,NA,NA
7AyKpd06,NA,NA,7AyKpd06,2020-0188,2021-09-22,07:22:14,08:54:36,NA,incomplete,false,true,NA,6,28,E4_Q4_ansL.png,left,NA,NA,NA,left,2618,true,NA,NA,NA,NA,NA
7AyKpd06,NA,NA,7AyKpd06,2020-0188,2021-09-22,07:22:14,08:54:36,NA,incomplete,false,true,NA,6,29,E4_Q3_ansL.png,left,NA,NA,NA,left,3327.80000001192,true,NA,NA,NA,NA,NA
7AyKpd06,NA,NA,7AyKpd06,2020-0188,2021-09-22,07:22:14,08:54:36,NA,incomplete,false,NA,true,6,0,NA,left,E4_Q5_ansR.png,E4_Q2_ansL.png,within,NA,NaN,NA,left,3812.9000000059605,1,1,1325.699999988079
7AyKpd06,NA,NA,7AyKpd06,2020-0188,2021-09-22,07:22:14,08:54:36,NA,incomplete,false,NA,true,6,1,NA,left,E15_Q4_ansR.png,E15_Q5_ansR.png,within,NA,NaN,NA,left,1563.5999999940395,1,1,1057.8999999761581
7AyKpd06,NA,NA,7AyKpd06,2020-0188,2021-09-22,07:22:14,08:54:36,NA,incomplete,false,NA,true,6,2,NA,left,E4_Q8_ansR.png,E4_Q9_ansL.png,within,NA,NaN,NA,right,4019.0999999940395,0,1,2079.0999999940395
7AyKpd06,NA,NA,7AyKpd06,2020-0188,2021-09-22,07:22:14,08:54:36,NA,incomplete,false,NA,true,6,3,NA,left,E15_Q10_ansL.png,E15_Q1_ansL.png,within,NA,NaN,NA,left,3248,1,1,1703.699999988079
7AyKpd06,NA,NA,7AyKpd06,2020-0188,2021-09-22,07:22:14,08:54:36,NA,incomplete,false,NA,true,6,4,NA,right,E9_Q9_ansL.png,E9_Q10_ansR.png,within,NA,NaN,NA,left,3190.4000000059605,0,1,1278.0999999940395
7AyKpd06,NA,NA,7AyKpd06,2020-0188,2021-09-22,07:22:14,08:54:36,NA,incomplete,false,NA,true,6,5,NA,left,E9_Q6_ansL.png,E9_Q5_ansL.png,within,NA,NaN,NA,right,1556.699999988079,0,0,1359.9000000059605
7AyKpd06,NA,NA,7AyKpd06,2020-0188,2021-09-22,07:22:14,08:54:36,NA,incomplete,false,NA,true,6,6,NA,left,E4_Q1_ansL.png,E4_Q8_ansR.png,within,NA,NaN,NA,left,2217.9000000059605,1,1,1899.5999999940395
7AyKpd06,NA,NA,7AyKpd06,2020-0188,2021-09-22,07:22:14,08:54:36,NA,incomplete,false,NA,true,6,7,NA,left,E15_Q7_ansL.png,E9_Q1_ansR.png,between,NA,NaN,NA,right,1736.300000011921,0,2,1665.5
7AyKpd06,NA,NA,7AyKpd06,2020-0188,2021-09-22,07:22:14,08:54:36,NA,incomplete,false,NA,true,6,8,NA,left,E9_Q4_ansL.png,E4_Q10_ansR.png,between,NA,NaN,NA,left,1560.0999999940395,1,2,1488.0999999940395
7AyKpd06,NA,NA,7AyKpd06,2020-0188,2021-09-22,07:22:14,08:54:36,NA,incomplete,false,NA,true,6,9,NA,left,E4_Q2_ansL.png,E4_Q4_ansL.png,within,NA,NaN,NA,left,2245.7000000178814,1,1,1448.300000011921
7AyKpd06,NA,NA,7AyKpd06,2020-0188,2021-09-22,07:22:14,08:54:36,NA,incomplete,false,NA,true,6,10,NA,left,E9_Q5_ansL.png,E4_Q5_ansR.png,between,NA,NaN,NA,left,1966.0999999940395,1,1,1083
7AyKpd06,NA,NA,7AyKpd06,2020-0188,2021-09-22,07:22:14,08:54:36,NA,incomplete,false,NA,true,6,11,NA,right,E9_Q7_ansR.png,E15_Q6_ansR.png,between,NA,NaN,NA,left,1270.0999999940395,0,3,1845.7000000178814
7AyKpd06,NA,NA,7AyKpd06,2020-0188,2021-09-22,07:22:14,08:54:36,NA,incomplete,false,NA,true,6,12,NA,left,E4_Q7_ansR.png,E4_Q6_ansR.png,within,NA,NaN,NA,left,2726.4000000059605,1,0,3133.5
7AyKpd06,NA,NA,7AyKpd06,2020-0188,2021-09-22,07:22:14,08:54:36,NA,incomplete,false,NA,true,6,13,NA,left,E15_Q1_ansL.png,E15_Q7_ansL.png,within,NA,NaN,NA,left,1860.800000011921,1,1,1384.199999988079
7AyKpd06,NA,NA,7AyKpd06,2020-0188,2021-09-22,07:22:14,08:54:36,NA,incomplete,false,NA,true,6,14,NA,right,E9_Q10_ansR.png,E9_Q7_ansR.png,within,NA,NaN,NA,left,2116.699999988079,0,1,893.6999999880791
7AyKpd06,NA,NA,7AyKpd06,2020-0188,2021-09-22,07:22:14,08:54:36,NA,incomplete,false,NA,true,6,15,NA,right,E4_Q1_ansL.png,E9_Q9_ansL.png,between,NA,NaN,NA,right,1466.3999999761581,1,2,2334.0999999940395
7AyKpd06,NA,NA,7AyKpd06,2020-0188,2021-09-22,07:22:14,08:54:36,NA,incomplete,false,NA,true,6,16,NA,right,E15_Q10_ansL.png,E15_Q9_ansR.png,within,NA,NaN,NA,right,1579.6000000238419,1,1,1051.199999988079
7AyKpd06,NA,NA,7AyKpd06,2020-0188,2021-09-22,07:22:14,08:54:36,NA,incomplete,false,NA,true,6,17,NA,left,E9_Q1_ansR.png,E9_Q8_ansR.png,within,NA,NaN,NA,right,6814.699999988079,0,0,1149.800000011921
7AyKpd06,NA,NA,7AyKpd06,2020-0188,2021-09-22,07:22:14,08:54:36,NA,incomplete,false,NA,true,6,18,NA,left,E15_Q5_ansR.png,E9_Q2_ansR.png,between,NA,NaN,NA,right,1075.800000011921,0,3,1835.0999999940395
7AyKpd06,NA,NA,7AyKpd06,2020-0188,2021-09-22,07:22:14,08:54:36,NA,incomplete,false,NA,true,6,19,NA,left,E15_Q2_ansL.png,E15_Q6_ansR.png,within,NA,NaN,NA,left,1912.2000000178814,1,1,955.7999999821186
7AyKpd06,NA,NA,7AyKpd06,2020-0188,2021-09-22,07:22:14,08:54:36,NA,incomplete,false,NA,true,6,20,NA,left,E4_Q9_ansL.png,E4_Q3_ansL.png,within,NA,NaN,NA,left,2323.100000023842,1,1,1656.5
7AyKpd06,NA,NA,7AyKpd06,2020-0188,2021-09-22,07:22:14,08:54:36,NA,incomplete,false,NA,true,6,21,NA,right,E9_Q4_ansL.png,E9_Q8_ansR.png,within,NA,NaN,NA,left,2776.5999999940395,0,1,1239
7AyKpd06,NA,NA,7AyKpd06,2020-0188,2021-09-22,07:22:14,08:54:36,NA,incomplete,false,NA,true,6,22,NA,right,E15_Q2_ansL.png,E15_Q8_ansL.png,within,NA,NaN,NA,left,2206.5,0,0,1387.0999999940395
7AyKpd06,NA,NA,7AyKpd06,2020-0188,2021-09-22,07:22:14,08:54:36,NA,incomplete,false,NA,true,6,23,NA,right,E4_Q7_ansR.png,E4_Q10_ansR.png,within,NA,NaN,NA,right,2321.5999999940395,1,0,1429.4000000059605
7AyKpd06,NA,NA,7AyKpd06,2020-0188,2021-09-22,07:22:14,08:54:36,NA,incomplete,false,NA,true,6,24,NA,right,E9_Q3_ansL.png,E9_Q2_ansR.png,within,NA,NaN,NA,right,2370,1,1,828.9000000059605
7AyKpd06,NA,NA,7AyKpd06,2020-0188,2021-09-22,07:22:14,08:54:36,NA,incomplete,false,NA,true,6,25,NA,right,E9_Q6_ansL.png,E9_Q3_ansL.png,within,NA,NaN,NA,right,1698.2999999821186,1,1,1387.300000011921
7AyKpd06,NA,NA,7AyKpd06,2020-0188,2021-09-22,07:22:14,08:54:36,NA,incomplete,false,NA,true,6,26,NA,right,E15_Q4_ansR.png,E15_Q3_ansR.png,within,NA,NaN,NA,right,1511.9000000059605,1,1,1283.2000000178814
7AyKpd06,NA,NA,7AyKpd06,2020-0188,2021-09-22,07:22:14,08:54:36,NA,incomplete,false,true,NA,7,0,E19_Q4_ansR.png,right,NA,NA,NA,right,1520.5,true,NA,NA,NA,NA,NA
7AyKpd06,NA,NA,7AyKpd06,2020-0188,2021-09-22,07:22:14,08:54:36,NA,incomplete,false,true,NA,7,1,E19_Q10_ansL.png,left,NA,NA,NA,left,1383.89999997616,true,NA,NA,NA,NA,NA
7AyKpd06,NA,NA,7AyKpd06,2020-0188,2021-09-22,07:22:14,08:54:36,NA,incomplete,false,true,NA,7,2,E19_Q9_ansR.png,right,NA,NA,NA,right,889.200000017881,true,NA,NA,NA,NA,NA
7AyKpd06,NA,NA,7AyKpd06,2020-0188,2021-09-22,07:22:14,08:54:36,NA,incomplete,false,true,NA,7,3,E19_Q6_ansR.png,right,NA,NA,NA,right,1163.80000001192,true,NA,NA,NA,NA,NA
7AyKpd06,NA,NA,7AyKpd06,2020-0188,2021-09-22,07:22:14,08:54:36,NA,incomplete,false,true,NA,7,4,E19_Q7_ansL.png,left,NA,NA,NA,left,1193.79999998212,true,NA,NA,NA,NA,NA
7AyKpd06,NA,NA,7AyKpd06,2020-0188,2021-09-22,07:22:14,08:54:36,NA,incomplete,false,true,NA,7,5,E19_Q5_ansR.png,right,NA,NA,NA,right,1535.59999999404,true,NA,NA,NA,NA,NA
7AyKpd06,NA,NA,7AyKpd06,2020-0188,2021-09-22,07:22:14,08:54:36,NA,incomplete,false,true,NA,7,6,E19_Q2_ansL.png,left,NA,NA,NA,left,1059.39999997616,true,NA,NA,NA,NA,NA
7AyKpd06,NA,NA,7AyKpd06,2020-0188,2021-09-22,07:22:14,08:54:36,NA,incomplete,false,true,NA,7,7,E19_Q3_ansR.png,right,NA,NA,NA,right,1173.30000001192,true,NA,NA,NA,NA,NA
7AyKpd06,NA,NA,7AyKpd06,2020-0188,2021-09-22,07:22:14,08:54:36,NA,incomplete,false,true,NA,7,8,E19_Q8_ansL.png,left,NA,NA,NA,left,1065.90000000596,true,NA,NA,NA,NA,NA
7AyKpd06,NA,NA,7AyKpd06,2020-0188,2021-09-22,07:22:14,08:54:36,NA,incomplete,false,true,NA,7,9,E19_Q1_ansL.png,left,NA,NA,NA,left,1087.90000000596,true,NA,NA,NA,NA,NA
7AyKpd06,NA,NA,7AyKpd06,2020-0188,2021-09-22,07:22:14,08:54:36,NA,incomplete,false,true,NA,7,10,E23_Q6_ansR.png,right,NA,NA,NA,right,1192.19999998808,true,NA,NA,NA,NA,NA
7AyKpd06,NA,NA,7AyKpd06,2020-0188,2021-09-22,07:22:14,08:54:36,NA,incomplete,false,true,NA,7,11,E23_Q5_ansR.png,right,NA,NA,NA,right,1031.30000001192,true,NA,NA,NA,NA,NA
7AyKpd06,NA,NA,7AyKpd06,2020-0188,2021-09-22,07:22:14,08:54:36,NA,incomplete,false,true,NA,7,12,E23_Q10_ansL.png,left,NA,NA,NA,left,1202.5,true,NA,NA,NA,NA,NA
7AyKpd06,NA,NA,7AyKpd06,2020-0188,2021-09-22,07:22:14,08:54:36,NA,incomplete,false,true,NA,7,13,E23_Q3_ansR.png,right,NA,NA,NA,right,1547.59999999404,true,NA,NA,NA,NA,NA
7AyKpd06,NA,NA,7AyKpd06,2020-0188,2021-09-22,07:22:14,08:54:36,NA,incomplete,false,true,NA,7,14,E23_Q8_ansL.png,left,NA,NA,NA,left,1430.80000001192,true,NA,NA,NA,NA,NA
7AyKpd06,NA,NA,7AyKpd06,2020-0188,2021-09-22,07:22:14,08:54:36,NA,incomplete,false,true,NA,7,15,E23_Q7_ansL.png,left,NA,NA,NA,left,1511.30000001192,true,NA,NA,NA,NA,NA
7AyKpd06,NA,NA,7AyKpd06,2020-0188,2021-09-22,07:22:14,08:54:36,NA,incomplete,false,true,NA,7,16,E23_Q2_ansL.png,left,NA,NA,NA,left,1936.5,true,NA,NA,NA,NA,NA
7AyKpd06,NA,NA,7AyKpd06,2020-0188,2021-09-22,07:22:14,08:54:36,NA,incomplete,false,true,NA,7,17,E23_Q9_ansR.png,right,NA,NA,NA,right,1646.40000000596,true,NA,NA,NA,NA,NA
7AyKpd06,NA,NA,7AyKpd06,2020-0188,2021-09-22,07:22:14,08:54:36,NA,incomplete,false,true,NA,7,18,E23_Q1_ansL.png,left,NA,NA,NA,left,1118.59999999404,true,NA,NA,NA,NA,NA
7AyKpd06,NA,NA,7AyKpd06,2020-0188,2021-09-22,07:22:14,08:54:36,NA,incomplete,false,true,NA,7,19,E23_Q4_ansR.png,right,NA,NA,NA,right,971.40000000596,true,NA,NA,NA,NA,NA
7AyKpd06,NA,NA,7AyKpd06,2020-0188,2021-09-22,07:22:14,08:54:36,NA,incomplete,false,true,NA,7,20,E6_Q1_ansL.png,left,NA,NA,NA,left,2081.69999998808,true,NA,NA,NA,NA,NA
7AyKpd06,NA,NA,7AyKpd06,2020-0188,2021-09-22,07:22:14,08:54:36,NA,incomplete,false,true,NA,7,21,E6_Q8_ansL.png,left,NA,NA,NA,left,1647.69999998808,true,NA,NA,NA,NA,NA
7AyKpd06,NA,NA,7AyKpd06,2020-0188,2021-09-22,07:22:14,08:54:36,NA,incomplete,false,true,NA,7,22,E6_Q9_ansL.png,left,NA,NA,NA,left,1485.29999998212,true,NA,NA,NA,NA,NA
7AyKpd06,NA,NA,7AyKpd06,2020-0188,2021-09-22,07:22:14,08:54:36,NA,incomplete,false,true,NA,7,23,E6_Q3_ansR.png,right,NA,NA,NA,right,1986.40000000596,true,NA,NA,NA,NA,NA
7AyKpd06,NA,NA,7AyKpd06,2020-0188,2021-09-22,07:22:14,08:54:36,NA,incomplete,false,true,NA,7,24,E6_Q6_ansR.png,right,NA,NA,NA,right,1534,true,NA,NA,NA,NA,NA
7AyKpd06,NA,NA,7AyKpd06,2020-0188,2021-09-22,07:22:14,08:54:36,NA,incomplete,false,true,NA,7,25,E6_Q5_ansR.png,right,NA,NA,NA,right,1714.59999999404,true,NA,NA,NA,NA,NA
7AyKpd06,NA,NA,7AyKpd06,2020-0188,2021-09-22,07:22:14,08:54:36,NA,incomplete,false,true,NA,7,26,E6_Q7_ansL.png,left,NA,NA,NA,left,1286.09999999404,true,NA,NA,NA,NA,NA
7AyKpd06,NA,NA,7AyKpd06,2020-0188,2021-09-22,07:22:14,08:54:36,NA,incomplete,false,true,NA,7,27,E6_Q10_ansL.png,left,NA,NA,NA,left,1660.90000000596,true,NA,NA,NA,NA,NA
7AyKpd06,NA,NA,7AyKpd06,2020-0188,2021-09-22,07:22:14,08:54:36,NA,incomplete,false,true,NA,7,28,E6_Q4_ansR.png,right,NA,NA,NA,right,1092.90000000596,true,NA,NA,NA,NA,NA
7AyKpd06,NA,NA,7AyKpd06,2020-0188,2021-09-22,07:22:14,08:54:36,NA,incomplete,false,true,NA,7,29,E6_Q2_ansL.png,left,NA,NA,NA,left,1802.29999998212,true,NA,NA,NA,NA,NA
7AyKpd06,NA,NA,7AyKpd06,2020-0188,2021-09-22,07:22:14,08:54:36,NA,incomplete,false,NA,true,7,0,NA,right,E19_Q5_ansR.png,E19_Q9_ansR.png,within,NA,NaN,NA,right,3458.4000000059605,1,1,1293.699999988079
7AyKpd06,NA,NA,7AyKpd06,2020-0188,2021-09-22,07:22:14,08:54:36,NA,incomplete,false,NA,true,7,1,NA,right,E6_Q8_ansL.png,E23_Q1_ansL.png,between,NA,NaN,NA,right,4127.699999988079,1,2,1820.0999999940395
7AyKpd06,NA,NA,7AyKpd06,2020-0188,2021-09-22,07:22:14,08:54:36,NA,incomplete,false,NA,true,7,2,NA,right,E19_Q6_ansR.png,E19_Q4_ansR.png,within,NA,NaN,NA,right,1738.699999988079,1,1,1822.5
7AyKpd06,NA,NA,7AyKpd06,2020-0188,2021-09-22,07:22:14,08:54:36,NA,incomplete,false,NA,true,7,3,NA,right,E23_Q6_ansR.png,E19_Q3_ansR.png,between,NA,NaN,NA,right,2461.800000011921,1,3,1148.2000000178814
7AyKpd06,NA,NA,7AyKpd06,2020-0188,2021-09-22,07:22:14,08:54:36,NA,incomplete,false,NA,true,7,4,NA,left,E23_Q6_ansR.png,E23_Q3_ansR.png,within,NA,NaN,NA,left,1907.5,1,0,1443.199999988079
7AyKpd06,NA,NA,7AyKpd06,2020-0188,2021-09-22,07:22:14,08:54:36,NA,incomplete,false,NA,true,7,5,NA,left,E23_Q2_ansL.png,E23_Q4_ansR.png,within,NA,NaN,NA,left,2359.2000000178814,1,1,2180.100000023842
7AyKpd06,NA,NA,7AyKpd06,2020-0188,2021-09-22,07:22:14,08:54:36,NA,incomplete,false,NA,true,7,6,NA,left,E19_Q6_ansR.png,E19_Q2_ansL.png,within,NA,NaN,NA,left,2108.0999999940395,1,0,1412.5
7AyKpd06,NA,NA,7AyKpd06,2020-0188,2021-09-22,07:22:14,08:54:36,NA,incomplete,false,NA,true,7,7,NA,left,E6_Q8_ansL.png,E6_Q6_ansR.png,within,NA,NaN,NA,right,4420.5,0,1,1463.9000000059605
7AyKpd06,NA,NA,7AyKpd06,2020-0188,2021-09-22,07:22:14,08:54:36,NA,incomplete,false,NA,true,7,8,NA,right,E23_Q2_ansL.png,E23_Q3_ansR.png,within,NA,NaN,NA,right,1456.300000011921,1,1,1206
7AyKpd06,NA,NA,7AyKpd06,2020-0188,2021-09-22,07:22:14,08:54:36,NA,incomplete,false,NA,true,7,9,NA,right,E23_Q7_ansL.png,E23_Q10_ansL.png,within,NA,NaN,NA,right,3198.2999999821186,1,1,1497.0999999940395
7AyKpd06,NA,NA,7AyKpd06,2020-0188,2021-09-22,07:22:14,08:54:36,NA,incomplete,false,NA,true,7,10,NA,right,E6_Q7_ansL.png,E6_Q3_ansR.png,within,NA,NaN,NA,right,2631,1,1,1336.199999988079
7AyKpd06,NA,NA,7AyKpd06,2020-0188,2021-09-22,07:22:14,08:54:36,NA,incomplete,false,NA,true,7,11,NA,left,E19_Q1_ansL.png,E23_Q10_ansL.png,between,NA,NaN,NA,left,1501.9000000059605,1,3,1365.1000000238419
7AyKpd06,NA,NA,7AyKpd06,2020-0188,2021-09-22,07:22:14,08:54:36,NA,incomplete,false,NA,true,7,12,NA,right,E19_Q7_ansL.png,E19_Q10_ansL.png,within,NA,NaN,NA,right,1628.1000000238419,1,0,1442.7000000178814
7AyKpd06,NA,NA,7AyKpd06,2020-0188,2021-09-22,07:22:14,08:54:36,NA,incomplete,false,NA,true,7,13,NA,right,E6_Q10_ansL.png,E6_Q6_ansR.png,within,NA,NaN,NA,right,2182.0999999940395,1,1,1152.9000000059605
7AyKpd06,NA,NA,7AyKpd06,2020-0188,2021-09-22,07:22:14,08:54:36,NA,incomplete,false,NA,true,7,14,NA,left,E6_Q9_ansL.png,E6_Q5_ansR.png,within,NA,NaN,NA,left,2186.9000000059605,1,1,2221.5
7AyKpd06,NA,NA,7AyKpd06,2020-0188,2021-09-22,07:22:14,08:54:36,NA,incomplete,false,NA,true,7,15,NA,left,E6_Q5_ansR.png,E6_Q4_ansR.png,within,NA,NaN,NA,left,1910.699999988079,1,1,1668.5
7AyKpd06,NA,NA,7AyKpd06,2020-0188,2021-09-22,07:22:14,08:54:36,NA,incomplete,false,NA,true,7,16,NA,left,E23_Q4_ansR.png,E6_Q9_ansL.png,between,NA,NaN,NA,left,2831,1,2,1687.199999988079
7AyKpd06,NA,NA,7AyKpd06,2020-0188,2021-09-22,07:22:14,08:54:36,NA,incomplete,false,NA,true,7,17,NA,right,E19_Q1_ansL.png,E19_Q2_ansL.png,within,NA,NaN,NA,left,3641,0,1,1158.3999999761581
7AyKpd06,NA,NA,7AyKpd06,2020-0188,2021-09-22,07:22:14,08:54:36,NA,incomplete,false,NA,true,7,18,NA,right,E23_Q9_ansR.png,E23_Q8_ansL.png,within,NA,NaN,NA,right,3104.0999999940395,1,1,1498.2000000178814
7AyKpd06,NA,NA,7AyKpd06,2020-0188,2021-09-22,07:22:14,08:54:36,NA,incomplete,false,NA,true,7,19,NA,right,E6_Q3_ansR.png,E6_Q1_ansL.png,within,NA,NaN,NA,right,3653.2999999821186,1,1,1536.300000011921
7AyKpd06,NA,NA,7AyKpd06,2020-0188,2021-09-22,07:22:14,08:54:36,NA,incomplete,false,NA,true,7,20,NA,left,E23_Q7_ansL.png,E23_Q1_ansL.png,within,NA,NaN,NA,left,1755.300000011921,1,0,2078.5999999940395
7AyKpd06,NA,NA,7AyKpd06,2020-0188,2021-09-22,07:22:14,08:54:36,NA,incomplete,false,NA,true,7,21,NA,right,E6_Q2_ansL.png,E6_Q7_ansL.png,within,NA,NaN,NA,right,1744.1000000238419,1,1,1692.7999999821186
7AyKpd06,NA,NA,7AyKpd06,2020-0188,2021-09-22,07:22:14,08:54:36,NA,incomplete,false,NA,true,7,22,NA,right,E19_Q3_ansR.png,E19_Q7_ansL.png,within,NA,NaN,NA,right,2263.800000011921,1,1,2171.7000000178814
7AyKpd06,NA,NA,7AyKpd06,2020-0188,2021-09-22,07:22:14,08:54:36,NA,incomplete,false,NA,true,7,23,NA,right,E19_Q8_ansL.png,E19_Q5_ansR.png,within,NA,NaN,NA,right,3902.5,1,1,1790.5
7AyKpd06,NA,NA,7AyKpd06,2020-0188,2021-09-22,07:22:14,08:54:36,NA,incomplete,false,NA,true,7,24,NA,left,E23_Q5_ansR.png,E23_Q8_ansL.png,within,NA,NaN,NA,left,2027.2999999821186,1,1,1448.199999988079
7AyKpd06,NA,NA,7AyKpd06,2020-0188,2021-09-22,07:22:14,08:54:36,NA,incomplete,false,NA,true,7,25,NA,left,E23_Q9_ansR.png,E6_Q1_ansL.png,between,NA,NaN,NA,left,1568.3999999761581,1,3,1174.199999988079
7AyKpd06,NA,NA,7AyKpd06,2020-0188,2021-09-22,07:22:14,08:54:36,NA,incomplete,false,NA,true,7,26,NA,right,E23_Q5_ansR.png,E19_Q8_ansL.png,between,NA,NaN,NA,right,1423.199999988079,1,3,1172
7AyKpd06,NA,NA,7AyKpd06,2020-0188,2021-09-22,07:22:14,08:54:36,NA,incomplete,false,true,NA,8,0,E28_Q6_ansL.png,left,NA,NA,NA,left,2478.20000001788,true,NA,NA,NA,NA,NA
7AyKpd06,NA,NA,7AyKpd06,2020-0188,2021-09-22,07:22:14,08:54:36,NA,incomplete,false,true,NA,8,1,E28_Q5_ansL.png,left,NA,NA,NA,left,1234.5,true,NA,NA,NA,NA,NA
7AyKpd06,NA,NA,7AyKpd06,2020-0188,2021-09-22,07:22:14,08:54:36,NA,incomplete,false,true,NA,8,2,E28_Q10_ansR.png,right,NA,NA,NA,right,1016.19999998808,true,NA,NA,NA,NA,NA
7AyKpd06,NA,NA,7AyKpd06,2020-0188,2021-09-22,07:22:14,08:54:36,NA,incomplete,false,true,NA,8,3,E28_Q9_ansL.png,left,NA,NA,NA,left,875.199999988079,true,NA,NA,NA,NA,NA
7AyKpd06,NA,NA,7AyKpd06,2020-0188,2021-09-22,07:22:14,08:54:36,NA,incomplete,false,true,NA,8,4,E28_Q4_ansL.png,left,NA,NA,NA,left,1738.40000000596,true,NA,NA,NA,NA,NA
7AyKpd06,NA,NA,7AyKpd06,2020-0188,2021-09-22,07:22:14,08:54:36,NA,incomplete,false,true,NA,8,5,E28_Q8_ansR.png,right,NA,NA,NA,right,1020.5,true,NA,NA,NA,NA,NA
7AyKpd06,NA,NA,7AyKpd06,2020-0188,2021-09-22,07:22:14,08:54:36,NA,incomplete,false,true,NA,8,6,E28_Q1_ansR.png,right,NA,NA,NA,right,985.09999999404,true,NA,NA,NA,NA,NA
7AyKpd06,NA,NA,7AyKpd06,2020-0188,2021-09-22,07:22:14,08:54:36,NA,incomplete,false,true,NA,8,7,E28_Q2_ansR.png,right,NA,NA,NA,right,957.90000000596,true,NA,NA,NA,NA,NA
7AyKpd06,NA,NA,7AyKpd06,2020-0188,2021-09-22,07:22:14,08:54:36,NA,incomplete,false,true,NA,8,8,E28_Q3_ansL.png,left,NA,NA,NA,left,1295,true,NA,NA,NA,NA,NA
7AyKpd06,NA,NA,7AyKpd06,2020-0188,2021-09-22,07:22:14,08:54:36,NA,incomplete,false,true,NA,8,9,E28_Q7_ansR.png,right,NA,NA,NA,right,1400.90000000596,true,NA,NA,NA,NA,NA
7AyKpd06,NA,NA,7AyKpd06,2020-0188,2021-09-22,07:22:14,08:54:36,NA,incomplete,false,true,NA,8,10,E14_Q1_ansL.png,left,NA,NA,NA,left,1459.90000000596,true,NA,NA,NA,NA,NA
7AyKpd06,NA,NA,7AyKpd06,2020-0188,2021-09-22,07:22:14,08:54:36,NA,incomplete,false,true,NA,8,11,E14_Q10_ansL.png,left,NA,NA,NA,left,2497.09999999404,true,NA,NA,NA,NA,NA
7AyKpd06,NA,NA,7AyKpd06,2020-0188,2021-09-22,07:22:14,08:54:36,NA,incomplete,false,true,NA,8,12,E14_Q2_ansL.png,left,NA,NA,NA,left,1441.69999998808,true,NA,NA,NA,NA,NA
7AyKpd06,NA,NA,7AyKpd06,2020-0188,2021-09-22,07:22:14,08:54:36,NA,incomplete,false,true,NA,8,13,E14_Q5_ansR.png,right,NA,NA,NA,right,1128.89999997616,true,NA,NA,NA,NA,NA
7AyKpd06,NA,NA,7AyKpd06,2020-0188,2021-09-22,07:22:14,08:54:36,NA,incomplete,false,true,NA,8,14,E14_Q9_ansR.png,right,NA,NA,NA,right,899.299999982119,true,NA,NA,NA,NA,NA
7AyKpd06,NA,NA,7AyKpd06,2020-0188,2021-09-22,07:22:14,08:54:36,NA,incomplete,false,true,NA,8,15,E14_Q6_ansR.png,right,NA,NA,NA,right,1116.5,true,NA,NA,NA,NA,NA
7AyKpd06,NA,NA,7AyKpd06,2020-0188,2021-09-22,07:22:14,08:54:36,NA,incomplete,false,true,NA,8,16,E14_Q8_ansL.png,left,NA,NA,NA,left,1097.10000002384,true,NA,NA,NA,NA,NA
7AyKpd06,NA,NA,7AyKpd06,2020-0188,2021-09-22,07:22:14,08:54:36,NA,incomplete,false,true,NA,8,17,E14_Q3_ansR.png,right,NA,NA,NA,right,870.699999988079,true,NA,NA,NA,NA,NA
7AyKpd06,NA,NA,7AyKpd06,2020-0188,2021-09-22,07:22:14,08:54:36,NA,incomplete,false,true,NA,8,18,E14_Q4_ansR.png,right,NA,NA,NA,right,903,true,NA,NA,NA,NA,NA
7AyKpd06,NA,NA,7AyKpd06,2020-0188,2021-09-22,07:22:14,08:54:36,NA,incomplete,false,true,NA,8,19,E14_Q7_ansL.png,left,NA,NA,NA,left,1197.5,true,NA,NA,NA,NA,NA
7AyKpd06,NA,NA,7AyKpd06,2020-0188,2021-09-22,07:22:14,08:54:36,NA,incomplete,false,true,NA,8,20,E8_Q4_ansL.png,left,NA,NA,NA,left,1181.79999998212,true,NA,NA,NA,NA,NA
7AyKpd06,NA,NA,7AyKpd06,2020-0188,2021-09-22,07:22:14,08:54:36,NA,incomplete,false,true,NA,8,21,E8_Q2_ansR.png,right,NA,NA,NA,right,1591.59999999404,true,NA,NA,NA,NA,NA
7AyKpd06,NA,NA,7AyKpd06,2020-0188,2021-09-22,07:22:14,08:54:36,NA,incomplete,false,true,NA,8,22,E8_Q10_ansR.png,right,NA,NA,NA,right,1320.69999998808,true,NA,NA,NA,NA,NA
7AyKpd06,NA,NA,7AyKpd06,2020-0188,2021-09-22,07:22:14,08:54:36,NA,incomplete,false,true,NA,8,23,E8_Q7_ansR.png,right,NA,NA,NA,right,1784.89999997616,true,NA,NA,NA,NA,NA
7AyKpd06,NA,NA,7AyKpd06,2020-0188,2021-09-22,07:22:14,08:54:36,NA,incomplete,false,true,NA,8,24,E8_Q9_ansL.png,left,NA,NA,NA,left,1091.09999999404,true,NA,NA,NA,NA,NA
7AyKpd06,NA,NA,7AyKpd06,2020-0188,2021-09-22,07:22:14,08:54:36,NA,incomplete,false,true,NA,8,25,E8_Q8_ansR.png,right,NA,NA,NA,right,1147.30000001192,true,NA,NA,NA,NA,NA
7AyKpd06,NA,NA,7AyKpd06,2020-0188,2021-09-22,07:22:14,08:54:36,NA,incomplete,false,true,NA,8,26,E8_Q1_ansR.png,right,NA,NA,NA,right,1111.70000001788,true,NA,NA,NA,NA,NA
7AyKpd06,NA,NA,7AyKpd06,2020-0188,2021-09-22,07:22:14,08:54:36,NA,incomplete,false,true,NA,8,27,E8_Q6_ansL.png,left,NA,NA,NA,left,1554,true,NA,NA,NA,NA,NA
7AyKpd06,NA,NA,7AyKpd06,2020-0188,2021-09-22,07:22:14,08:54:36,NA,incomplete,false,true,NA,8,28,E8_Q5_ansL.png,left,NA,NA,NA,left,1099,true,NA,NA,NA,NA,NA
7AyKpd06,NA,NA,7AyKpd06,2020-0188,2021-09-22,07:22:14,08:54:36,NA,incomplete,false,true,NA,8,29,E8_Q3_ansL.png,left,NA,NA,NA,left,1727.30000001192,true,NA,NA,NA,NA,NA
7AyKpd06,NA,NA,7AyKpd06,2020-0188,2021-09-22,07:22:14,08:54:36,NA,incomplete,false,NA,true,8,0,NA,left,E28_Q6_ansL.png,E28_Q9_ansL.png,within,NA,NaN,NA,left,1880.699999988079,1,1,1602.9000000059605
7AyKpd06,NA,NA,7AyKpd06,2020-0188,2021-09-22,07:22:14,08:54:36,NA,incomplete,false,NA,true,8,1,NA,right,E14_Q4_ansR.png,E14_Q6_ansR.png,within,NA,NaN,NA,right,1306.300000011921,1,1,887.8000000119209
7AyKpd06,NA,NA,7AyKpd06,2020-0188,2021-09-22,07:22:14,08:54:36,NA,incomplete,false,NA,true,8,2,NA,left,E14_Q2_ansL.png,E14_Q6_ansR.png,within,NA,NaN,NA,right,1187.4000000059605,0,1,1237.4000000059605
7AyKpd06,NA,NA,7AyKpd06,2020-0188,2021-09-22,07:22:14,08:54:36,NA,incomplete,false,NA,true,8,3,NA,left,E8_Q9_ansL.png,E8_Q6_ansL.png,within,NA,NaN,NA,left,1926.5999999940395,1,0,871.2999999821186
7AyKpd06,NA,NA,7AyKpd06,2020-0188,2021-09-22,07:22:14,08:54:36,NA,incomplete,false,NA,true,8,4,NA,right,E28_Q8_ansR.png,E28_Q10_ansR.png,within,NA,NaN,NA,right,3600.699999988079,1,1,1473.800000011921
7AyKpd06,NA,NA,7AyKpd06,2020-0188,2021-09-22,07:22:14,08:54:36,NA,incomplete,false,NA,true,8,5,NA,left,E28_Q9_ansL.png,E28_Q1_ansR.png,within,NA,NaN,NA,left,5143.299999982119,1,1,1037.4000000059605
7AyKpd06,NA,NA,7AyKpd06,2020-0188,2021-09-22,07:22:14,08:54:36,NA,incomplete,false,NA,true,8,6,NA,right,E14_Q5_ansR.png,E14_Q1_ansL.png,within,NA,NaN,NA,right,1351.4000000059605,1,1,1102.5
7AyKpd06,NA,NA,7AyKpd06,2020-0188,2021-09-22,07:22:14,08:54:36,NA,incomplete,false,NA,true,8,7,NA,right,E14_Q8_ansL.png,E14_Q5_ansR.png,within,NA,NaN,NA,right,1109.4000000059605,1,1,1909.5
7AyKpd06,NA,NA,7AyKpd06,2020-0188,2021-09-22,07:22:14,08:54:36,NA,incomplete,false,NA,true,8,8,NA,right,E8_Q7_ansR.png,E8_Q4_ansL.png,within,NA,NaN,NA,right,1311.9000000059605,1,2,2061.5999999940395
7AyKpd06,NA,NA,7AyKpd06,2020-0188,2021-09-22,07:22:14,08:54:36,NA,incomplete,false,NA,true,8,9,NA,right,E14_Q2_ansL.png,E28_Q7_ansR.png,between,NA,NaN,NA,right,1330.300000011921,1,2,1635.0999999940395
7AyKpd06,NA,NA,7AyKpd06,2020-0188,2021-09-22,07:22:14,08:54:36,NA,incomplete,false,NA,true,8,10,NA,left,E14_Q8_ansL.png,E14_Q7_ansL.png,within,NA,NaN,NA,right,1812.199999988079,0,1,2574.0999999940395
7AyKpd06,NA,NA,7AyKpd06,2020-0188,2021-09-22,07:22:14,08:54:36,NA,incomplete,false,NA,true,8,11,NA,right,E28_Q4_ansL.png,E28_Q5_ansL.png,within,NA,NaN,NA,right,1107.9000000059605,1,1,1164
7AyKpd06,NA,NA,7AyKpd06,2020-0188,2021-09-22,07:22:14,08:54:36,NA,incomplete,false,NA,true,8,12,NA,left,E8_Q1_ansR.png,E8_Q3_ansL.png,within,NA,NaN,NA,left,1276.800000011921,1,1,949.6999999880791
7AyKpd06,NA,NA,7AyKpd06,2020-0188,2021-09-22,07:22:14,08:54:36,NA,incomplete,false,NA,true,8,13,NA,right,E8_Q5_ansL.png,E8_Q8_ansR.png,within,NA,NaN,NA,left,1344.5,0,1,1053.5999999940395
7AyKpd06,NA,NA,7AyKpd06,2020-0188,2021-09-22,07:22:14,08:54:36,NA,incomplete,false,NA,true,8,14,NA,right,E28_Q3_ansL.png,E28_Q8_ansR.png,within,NA,NaN,NA,right,1274.7000000178814,1,1,2397.5
7AyKpd06,NA,NA,7AyKpd06,2020-0188,2021-09-22,07:22:14,08:54:36,NA,incomplete,false,NA,true,8,15,NA,right,E14_Q10_ansL.png,E28_Q3_ansL.png,between,NA,NaN,NA,right,1376.2999999821186,1,3,1502.699999988079
7AyKpd06,NA,NA,7AyKpd06,2020-0188,2021-09-22,07:22:14,08:54:36,NA,incomplete,false,NA,true,8,16,NA,left,E28_Q1_ansR.png,E28_Q7_ansR.png,within,NA,NaN,NA,left,2075.0999999940395,1,1,1467.5999999940395
7AyKpd06,NA,NA,7AyKpd06,2020-0188,2021-09-22,07:22:14,08:54:36,NA,incomplete,false,NA,true,8,17,NA,left,E14_Q9_ansR.png,E14_Q3_ansR.png,within,NA,NaN,NA,left,3364.4000000059605,1,1,1283
7AyKpd06,NA,NA,7AyKpd06,2020-0188,2021-09-22,07:22:14,08:54:36,NA,incomplete,false,NA,true,8,18,NA,left,E8_Q2_ansR.png,E8_Q9_ansL.png,within,NA,NaN,NA,left,1641.4000000059605,1,1,921.1000000238419
7AyKpd06,NA,NA,7AyKpd06,2020-0188,2021-09-22,07:22:14,08:54:36,NA,incomplete,false,NA,true,8,19,NA,right,E8_Q10_ansR.png,E14_Q7_ansL.png,between,NA,NaN,NA,left,1357.2999999821186,0,2,2157.699999988079
7AyKpd06,NA,NA,7AyKpd06,2020-0188,2021-09-22,07:22:14,08:54:36,NA,incomplete,false,NA,true,8,20,NA,right,E8_Q2_ansR.png,E14_Q4_ansR.png,between,NA,NaN,NA,left,1040.2000000178814,0,3,2660.399999976158
7AyKpd06,NA,NA,7AyKpd06,2020-0188,2021-09-22,07:22:14,08:54:36,NA,incomplete,false,NA,true,8,21,NA,right,E8_Q4_ansL.png,E14_Q3_ansR.png,between,NA,NaN,NA,left,986.4000000059605,0,3,937.9000000059605
7AyKpd06,NA,NA,7AyKpd06,2020-0188,2021-09-22,07:22:14,08:54:36,NA,incomplete,false,NA,true,8,22,NA,right,E28_Q2_ansR.png,E28_Q4_ansL.png,within,NA,NaN,NA,left,3339,0,1,991.6000000238419
7AyKpd06,NA,NA,7AyKpd06,2020-0188,2021-09-22,07:22:14,08:54:36,NA,incomplete,false,NA,true,8,23,NA,left,E28_Q2_ansR.png,E14_Q1_ansL.png,between,NA,NaN,NA,left,1169.0999999940395,1,2,1181.4000000059605
7AyKpd06,NA,NA,7AyKpd06,2020-0188,2021-09-22,07:22:14,08:54:36,NA,incomplete,false,NA,true,8,24,NA,left,E8_Q7_ansR.png,E8_Q1_ansR.png,within,NA,NaN,NA,left,1443,1,1,1427.3999999761581
7AyKpd06,NA,NA,7AyKpd06,2020-0188,2021-09-22,07:22:14,08:54:36,NA,incomplete,false,NA,true,8,25,NA,right,E8_Q8_ansR.png,E8_Q10_ansR.png,within,NA,NaN,NA,right,1410.5,1,2,2229.5
7AyKpd06,NA,NA,7AyKpd06,2020-0188,2021-09-22,07:22:14,08:54:36,NA,incomplete,false,NA,true,8,26,NA,right,E14_Q9_ansR.png,E14_Q10_ansL.png,within,NA,NaN,NA,right,1177.300000011921,1,0,1753.5999999940395
7AyKpd06,NA,NA,7AyKpd06,2020-0188,2021-09-22,07:22:14,08:54:36,NA,incomplete,false,true,NA,9,0,E30_Q8_ansL.png,left,NA,NA,NA,right,2503.5,false,NA,NA,NA,NA,NA
7AyKpd06,NA,NA,7AyKpd06,2020-0188,2021-09-22,07:22:14,08:54:36,NA,incomplete,false,true,NA,9,1,E30_Q1_ansL.png,left,NA,NA,NA,left,1310,true,NA,NA,NA,NA,NA
7AyKpd06,NA,NA,7AyKpd06,2020-0188,2021-09-22,07:22:14,08:54:36,NA,incomplete,false,true,NA,9,2,E30_Q7_ansL.png,left,NA,NA,NA,right,1616.70000001788,false,NA,NA,NA,NA,NA
7AyKpd06,NA,NA,7AyKpd06,2020-0188,2021-09-22,07:22:14,08:54:36,NA,incomplete,false,true,NA,9,3,E30_Q5_ansR.png,right,NA,NA,NA,right,1985.60000002384,true,NA,NA,NA,NA,NA
7AyKpd06,NA,NA,7AyKpd06,2020-0188,2021-09-22,07:22:14,08:54:36,NA,incomplete,false,true,NA,9,4,E30_Q10_ansR.png,right,NA,NA,NA,right,1503.60000002384,true,NA,NA,NA,NA,NA
7AyKpd06,NA,NA,7AyKpd06,2020-0188,2021-09-22,07:22:14,08:54:36,NA,incomplete,false,true,NA,9,5,E30_Q9_ansL.png,left,NA,NA,NA,left,2599.39999997616,true,NA,NA,NA,NA,NA
7AyKpd06,NA,NA,7AyKpd06,2020-0188,2021-09-22,07:22:14,08:54:36,NA,incomplete,false,true,NA,9,6,E30_Q3_ansL.png,left,NA,NA,NA,left,2032.09999999404,true,NA,NA,NA,NA,NA
7AyKpd06,NA,NA,7AyKpd06,2020-0188,2021-09-22,07:22:14,08:54:36,NA,incomplete,false,true,NA,9,7,E30_Q2_ansL.png,left,NA,NA,NA,left,3014.20000001788,true,NA,NA,NA,NA,NA
7AyKpd06,NA,NA,7AyKpd06,2020-0188,2021-09-22,07:22:14,08:54:36,NA,incomplete,false,true,NA,9,8,E30_Q6_ansR.png,right,NA,NA,NA,right,1145.89999997616,true,NA,NA,NA,NA,NA
7AyKpd06,NA,NA,7AyKpd06,2020-0188,2021-09-22,07:22:14,08:54:36,NA,incomplete,false,true,NA,9,9,E30_Q4_ansL.png,left,NA,NA,NA,left,1214.90000000596,true,NA,NA,NA,NA,NA
7AyKpd06,NA,NA,7AyKpd06,2020-0188,2021-09-22,07:22:14,08:54:36,NA,incomplete,false,true,NA,9,10,E10_Q10_ansR.png,right,NA,NA,NA,right,2805,true,NA,NA,NA,NA,NA
7AyKpd06,NA,NA,7AyKpd06,2020-0188,2021-09-22,07:22:14,08:54:36,NA,incomplete,false,true,NA,9,11,E10_Q3_ansL.png,left,NA,NA,NA,none,0,false,NA,NA,NA,NA,NA
7AyKpd06,NA,NA,7AyKpd06,2020-0188,2021-09-22,07:22:14,08:54:36,NA,incomplete,false,true,NA,9,12,E10_Q9_ansL.png,left,NA,NA,NA,left,2228.89999997616,true,NA,NA,NA,NA,NA
7AyKpd06,NA,NA,7AyKpd06,2020-0188,2021-09-22,07:22:14,08:54:36,NA,incomplete,false,true,NA,9,13,E10_Q2_ansL.png,left,NA,NA,NA,left,1731.69999998808,true,NA,NA,NA,NA,NA
7AyKpd06,NA,NA,7AyKpd06,2020-0188,2021-09-22,07:22:14,08:54:36,NA,incomplete,false,true,NA,9,14,E10_Q6_ansR.png,right,NA,NA,NA,right,1730.79999998212,true,NA,NA,NA,NA,NA
7AyKpd06,NA,NA,7AyKpd06,2020-0188,2021-09-22,07:22:14,08:54:36,NA,incomplete,false,true,NA,9,15,E10_Q8_ansR.png,right,NA,NA,NA,right,2720.70000001788,true,NA,NA,NA,NA,NA
7AyKpd06,NA,NA,7AyKpd06,2020-0188,2021-09-22,07:22:14,08:54:36,NA,incomplete,false,true,NA,9,16,E10_Q4_ansL.png,left,NA,NA,NA,left,2361.60000002384,true,NA,NA,NA,NA,NA
7AyKpd06,NA,NA,7AyKpd06,2020-0188,2021-09-22,07:22:14,08:54:36,NA,incomplete,false,true,NA,9,17,E10_Q5_ansR.png,right,NA,NA,NA,left,1991.90000000596,false,NA,NA,NA,NA,NA
7AyKpd06,NA,NA,7AyKpd06,2020-0188,2021-09-22,07:22:14,08:54:36,NA,incomplete,false,true,NA,9,18,E10_Q7_ansR.png,right,NA,NA,NA,right,2990.59999999404,true,NA,NA,NA,NA,NA
7AyKpd06,NA,NA,7AyKpd06,2020-0188,2021-09-22,07:22:14,08:54:36,NA,incomplete,false,true,NA,9,19,E10_Q1_ansL.png,left,NA,NA,NA,left,3082.5,true,NA,NA,NA,NA,NA
7AyKpd06,NA,NA,7AyKpd06,2020-0188,2021-09-22,07:22:14,08:54:36,NA,incomplete,false,true,NA,9,20,E13_Q3_ansR.png,right,NA,NA,NA,right,1455,true,NA,NA,NA,NA,NA
7AyKpd06,NA,NA,7AyKpd06,2020-0188,2021-09-22,07:22:14,08:54:36,NA,incomplete,false,true,NA,9,21,E13_Q4_ansR.png,right,NA,NA,NA,right,1458.59999999404,true,NA,NA,NA,NA,NA
7AyKpd06,NA,NA,7AyKpd06,2020-0188,2021-09-22,07:22:14,08:54:36,NA,incomplete,false,true,NA,9,22,E13_Q5_ansR.png,right,NA,NA,NA,right,1881.69999998808,true,NA,NA,NA,NA,NA
7AyKpd06,NA,NA,7AyKpd06,2020-0188,2021-09-22,07:22:14,08:54:36,NA,incomplete,false,true,NA,9,23,E13_Q6_ansR.png,right,NA,NA,NA,right,1921.39999997616,true,NA,NA,NA,NA,NA
7AyKpd06,NA,NA,7AyKpd06,2020-0188,2021-09-22,07:22:14,08:54:36,NA,incomplete,false,true,NA,9,24,E13_Q7_ansL.png,left,NA,NA,NA,left,1528,true,NA,NA,NA,NA,NA
7AyKpd06,NA,NA,7AyKpd06,2020-0188,2021-09-22,07:22:14,08:54:36,NA,incomplete,false,true,NA,9,25,E13_Q10_ansL.png,left,NA,NA,NA,left,1595.70000001788,true,NA,NA,NA,NA,NA
7AyKpd06,NA,NA,7AyKpd06,2020-0188,2021-09-22,07:22:14,08:54:36,NA,incomplete,false,true,NA,9,26,E13_Q8_ansL.png,left,NA,NA,NA,left,2078.10000002384,true,NA,NA,NA,NA,NA
7AyKpd06,NA,NA,7AyKpd06,2020-0188,2021-09-22,07:22:14,08:54:36,NA,incomplete,false,true,NA,9,27,E13_Q1_ansL.png,left,NA,NA,NA,left,1663.59999999404,true,NA,NA,NA,NA,NA
7AyKpd06,NA,NA,7AyKpd06,2020-0188,2021-09-22,07:22:14,08:54:36,NA,incomplete,false,true,NA,9,28,E13_Q2_ansL.png,left,NA,NA,NA,left,1742.90000000596,true,NA,NA,NA,NA,NA
7AyKpd06,NA,NA,7AyKpd06,2020-0188,2021-09-22,07:22:14,08:54:36,NA,incomplete,false,true,NA,9,29,E13_Q9_ansR.png,right,NA,NA,NA,right,1228.19999998808,true,NA,NA,NA,NA,NA
7AyKpd06,NA,NA,7AyKpd06,2020-0188,2021-09-22,07:22:14,08:54:36,NA,incomplete,false,NA,true,9,0,NA,right,E30_Q9_ansL.png,E30_Q7_ansL.png,within,NA,NaN,NA,right,3988.699999988079,1,1,1106.2000000178814
7AyKpd06,NA,NA,7AyKpd06,2020-0188,2021-09-22,07:22:14,08:54:36,NA,incomplete,false,NA,true,9,1,NA,left,E13_Q3_ansR.png,E13_Q6_ansR.png,within,NA,NaN,NA,left,1475.800000011921,1,1,1169.8999999761581
7AyKpd06,NA,NA,7AyKpd06,2020-0188,2021-09-22,07:22:14,08:54:36,NA,incomplete,false,NA,true,9,2,NA,left,E10_Q8_ansR.png,E10_Q7_ansR.png,within,NA,NaN,NA,left,4290.299999982119,1,0,1230.5999999940395
7AyKpd06,NA,NA,7AyKpd06,2020-0188,2021-09-22,07:22:14,08:54:36,NA,incomplete,false,NA,true,9,3,NA,left,E10_Q1_ansL.png,E13_Q5_ansR.png,between,NA,NaN,NA,left,8716.40000000596,1,3,3337.300000011921
7AyKpd06,NA,NA,7AyKpd06,2020-0188,2021-09-22,07:22:14,08:54:36,NA,incomplete,false,NA,true,9,4,NA,left,E13_Q4_ansR.png,E13_Q7_ansL.png,within,NA,NaN,NA,left,1909.2999999821186,1,1,1231.199999988079
7AyKpd06,NA,NA,7AyKpd06,2020-0188,2021-09-22,07:22:14,08:54:36,NA,incomplete,false,NA,true,9,5,NA,left,E30_Q6_ansR.png,E10_Q3_ansL.png,between,NA,NaN,NA,left,1639.7999999821186,1,2,1761.0999999940395
7AyKpd06,NA,NA,7AyKpd06,2020-0188,2021-09-22,07:22:14,08:54:36,NA,incomplete,false,NA,true,9,6,NA,right,E10_Q2_ansL.png,E10_Q10_ansR.png,within,NA,NaN,NA,right,2599.9000000059605,1,1,1019.2000000178814
7AyKpd06,NA,NA,7AyKpd06,2020-0188,2021-09-22,07:22:14,08:54:36,NA,incomplete,false,NA,true,9,7,NA,left,E13_Q10_ansL.png,E13_Q2_ansL.png,within,NA,NaN,NA,left,1984.6000000238419,1,0,1926.9000000059605
7AyKpd06,NA,NA,7AyKpd06,2020-0188,2021-09-22,07:22:14,08:54:36,NA,incomplete,false,NA,true,9,8,NA,left,E13_Q6_ansR.png,E13_Q8_ansL.png,within,NA,NaN,NA,left,1287.4000000059605,1,1,1050.8999999761581
7AyKpd06,NA,NA,7AyKpd06,2020-0188,2021-09-22,07:22:14,08:54:36,NA,incomplete,false,NA,true,9,9,NA,right,E13_Q3_ansR.png,E10_Q5_ansR.png,between,NA,NaN,NA,right,2495.7000000178814,1,2,2011.699999988079
7AyKpd06,NA,NA,7AyKpd06,2020-0188,2021-09-22,07:22:14,08:54:36,NA,incomplete,false,NA,true,9,10,NA,left,E30_Q10_ansR.png,E30_Q2_ansL.png,within,NA,NaN,NA,left,2211.7999999821186,1,1,1099.9000000059605
7AyKpd06,NA,NA,7AyKpd06,2020-0188,2021-09-22,07:22:14,08:54:36,NA,incomplete,false,NA,true,9,11,NA,left,E30_Q9_ansL.png,E30_Q6_ansR.png,within,NA,NaN,NA,left,3029.699999988079,1,1,1441.800000011921
