workerId,hitId,assignmentId,subject,studyid,exp_date,exp_start,exp_end,time_start,time_end,practice,encoding,memory,block,trial,stim,answer,left_image,right_image,condition,response,response_time,response_acc,order_response,order_response_time,order_acc,distance_response,distance_response_time
7e1pGXNG,NA,NA,7e1pGXNG,2020-0188,2021-11-15,20:11:00,21:05:06,NA,incomplete,true,true,NA,0,0,E32_Q9_ansR.png,right,NA,NA,NA,right,1179,true,NA,NA,NA,NA,NA
7e1pGXNG,NA,NA,7e1pGXNG,2020-0188,2021-11-15,20:11:00,21:05:06,NA,incomplete,true,true,NA,0,1,E32_Q1_ansL.png,left,NA,NA,NA,right,864,false,NA,NA,NA,NA,NA
7e1pGXNG,NA,NA,7e1pGXNG,2020-0188,2021-11-15,20:11:00,21:05:06,NA,incomplete,true,true,NA,0,2,E32_Q3_ansR.png,right,NA,NA,NA,right,1019,true,NA,NA,NA,NA,NA
7e1pGXNG,NA,NA,7e1pGXNG,2020-0188,2021-11-15,20:11:00,21:05:06,NA,incomplete,true,true,NA,0,3,E32_Q10_ansL.png,left,NA,NA,NA,left,1139,true,NA,NA,NA,NA,NA
7e1pGXNG,NA,NA,7e1pGXNG,2020-0188,2021-11-15,20:11:00,21:05:06,NA,incomplete,true,true,NA,0,4,E32_Q2_ansL.png,left,NA,NA,NA,left,1457,true,NA,NA,NA,NA,NA
7e1pGXNG,NA,NA,7e1pGXNG,2020-0188,2021-11-15,20:11:00,21:05:06,NA,incomplete,true,true,NA,0,5,E32_Q6_ansR.png,right,NA,NA,NA,right,1231,true,NA,NA,NA,NA,NA
7e1pGXNG,NA,NA,7e1pGXNG,2020-0188,2021-11-15,20:11:00,21:05:06,NA,incomplete,true,true,NA,0,6,E32_Q5_ansR.png,right,NA,NA,NA,right,1647,true,NA,NA,NA,NA,NA
7e1pGXNG,NA,NA,7e1pGXNG,2020-0188,2021-11-15,20:11:00,21:05:06,NA,incomplete,true,true,NA,0,7,E32_Q4_ansR.png,right,NA,NA,NA,right,1121,true,NA,NA,NA,NA,NA
7e1pGXNG,NA,NA,7e1pGXNG,2020-0188,2021-11-15,20:11:00,21:05:06,NA,incomplete,true,true,NA,0,8,E32_Q7_ansL.png,left,NA,NA,NA,left,1139,true,NA,NA,NA,NA,NA
7e1pGXNG,NA,NA,7e1pGXNG,2020-0188,2021-11-15,20:11:00,21:05:06,NA,incomplete,true,true,NA,0,9,E32_Q8_ansL.png,left,NA,NA,NA,left,1479,true,NA,NA,NA,NA,NA
7e1pGXNG,NA,NA,7e1pGXNG,2020-0188,2021-11-15,20:11:00,21:05:06,NA,incomplete,true,true,NA,0,10,E18_Q4_ansR.png,right,NA,NA,NA,right,1003,true,NA,NA,NA,NA,NA
7e1pGXNG,NA,NA,7e1pGXNG,2020-0188,2021-11-15,20:11:00,21:05:06,NA,incomplete,true,true,NA,0,11,E18_Q8_ansL.png,left,NA,NA,NA,left,1097,true,NA,NA,NA,NA,NA
7e1pGXNG,NA,NA,7e1pGXNG,2020-0188,2021-11-15,20:11:00,21:05:06,NA,incomplete,true,true,NA,0,12,E18_Q1_ansL.png,left,NA,NA,NA,left,830,true,NA,NA,NA,NA,NA
7e1pGXNG,NA,NA,7e1pGXNG,2020-0188,2021-11-15,20:11:00,21:05:06,NA,incomplete,true,true,NA,0,13,E18_Q5_ansR.png,right,NA,NA,NA,right,1090,true,NA,NA,NA,NA,NA
7e1pGXNG,NA,NA,7e1pGXNG,2020-0188,2021-11-15,20:11:00,21:05:06,NA,incomplete,true,true,NA,0,14,E18_Q3_ansR.png,right,NA,NA,NA,right,978,true,NA,NA,NA,NA,NA
7e1pGXNG,NA,NA,7e1pGXNG,2020-0188,2021-11-15,20:11:00,21:05:06,NA,incomplete,true,true,NA,0,15,E18_Q2_ansL.png,left,NA,NA,NA,left,889,true,NA,NA,NA,NA,NA
7e1pGXNG,NA,NA,7e1pGXNG,2020-0188,2021-11-15,20:11:00,21:05:06,NA,incomplete,true,true,NA,0,16,E18_Q6_ansR.png,right,NA,NA,NA,right,879,true,NA,NA,NA,NA,NA
7e1pGXNG,NA,NA,7e1pGXNG,2020-0188,2021-11-15,20:11:00,21:05:06,NA,incomplete,true,true,NA,0,17,E18_Q10_ansL.png,left,NA,NA,NA,left,1366,true,NA,NA,NA,NA,NA
7e1pGXNG,NA,NA,7e1pGXNG,2020-0188,2021-11-15,20:11:00,21:05:06,NA,incomplete,true,true,NA,0,18,E18_Q7_ansL.png,left,NA,NA,NA,left,802,true,NA,NA,NA,NA,NA
7e1pGXNG,NA,NA,7e1pGXNG,2020-0188,2021-11-15,20:11:00,21:05:06,NA,incomplete,true,true,NA,0,19,E18_Q9_ansR.png,right,NA,NA,NA,right,809,true,NA,NA,NA,NA,NA
7e1pGXNG,NA,NA,7e1pGXNG,2020-0188,2021-11-15,20:11:00,21:05:06,NA,incomplete,true,true,NA,0,20,E16_Q7_ansR.png,right,NA,NA,NA,right,1431,true,NA,NA,NA,NA,NA
7e1pGXNG,NA,NA,7e1pGXNG,2020-0188,2021-11-15,20:11:00,21:05:06,NA,incomplete,true,true,NA,0,21,E16_Q4_ansL.png,left,NA,NA,NA,left,632,true,NA,NA,NA,NA,NA
7e1pGXNG,NA,NA,7e1pGXNG,2020-0188,2021-11-15,20:11:00,21:05:06,NA,incomplete,true,true,NA,0,22,E16_Q3_ansL.png,left,NA,NA,NA,left,720,true,NA,NA,NA,NA,NA
7e1pGXNG,NA,NA,7e1pGXNG,2020-0188,2021-11-15,20:11:00,21:05:06,NA,incomplete,true,true,NA,0,23,E16_Q1_ansR.png,right,NA,NA,NA,right,900,true,NA,NA,NA,NA,NA
7e1pGXNG,NA,NA,7e1pGXNG,2020-0188,2021-11-15,20:11:00,21:05:06,NA,incomplete,true,true,NA,0,24,E16_Q9_ansL.png,left,NA,NA,NA,left,825,true,NA,NA,NA,NA,NA
7e1pGXNG,NA,NA,7e1pGXNG,2020-0188,2021-11-15,20:11:00,21:05:06,NA,incomplete,true,true,NA,0,25,E16_Q2_ansR.png,right,NA,NA,NA,right,1066,true,NA,NA,NA,NA,NA
7e1pGXNG,NA,NA,7e1pGXNG,2020-0188,2021-11-15,20:11:00,21:05:06,NA,incomplete,true,true,NA,0,26,E16_Q8_ansR.png,right,NA,NA,NA,right,1071,true,NA,NA,NA,NA,NA
7e1pGXNG,NA,NA,7e1pGXNG,2020-0188,2021-11-15,20:11:00,21:05:06,NA,incomplete,true,true,NA,0,27,E16_Q10_ansR.png,right,NA,NA,NA,right,959,true,NA,NA,NA,NA,NA
7e1pGXNG,NA,NA,7e1pGXNG,2020-0188,2021-11-15,20:11:00,21:05:06,NA,incomplete,true,true,NA,0,28,E16_Q6_ansL.png,left,NA,NA,NA,left,878,true,NA,NA,NA,NA,NA
7e1pGXNG,NA,NA,7e1pGXNG,2020-0188,2021-11-15,20:11:00,21:05:06,NA,incomplete,true,true,NA,0,29,E16_Q5_ansL.png,left,NA,NA,NA,left,956,true,NA,NA,NA,NA,NA
7e1pGXNG,NA,NA,7e1pGXNG,2020-0188,2021-11-15,20:11:00,21:05:06,NA,incomplete,true,NA,true,0,0,NA,left,E32_Q4_ansR.png,E18_Q4_ansR.png,between,NA,NaN,NA,left,1730,1,2,4204
7e1pGXNG,NA,NA,7e1pGXNG,2020-0188,2021-11-15,20:11:00,21:05:06,NA,incomplete,true,NA,true,0,1,NA,right,E18_Q8_ansL.png,E32_Q7_ansL.png,between,NA,NaN,NA,right,1461,1,2,2272
7e1pGXNG,NA,NA,7e1pGXNG,2020-0188,2021-11-15,20:11:00,21:05:06,NA,incomplete,true,NA,true,0,2,NA,right,E16_Q10_ansR.png,E16_Q9_ansL.png,within,NA,NaN,NA,right,2439,1,1,2454
7e1pGXNG,NA,NA,7e1pGXNG,2020-0188,2021-11-15,20:11:00,21:05:06,NA,incomplete,true,NA,true,0,3,NA,left,E32_Q8_ansL.png,E18_Q1_ansL.png,between,NA,NaN,NA,left,1759,1,2,1660
7e1pGXNG,NA,NA,7e1pGXNG,2020-0188,2021-11-15,20:11:00,21:05:06,NA,incomplete,true,NA,true,0,4,NA,left,E18_Q5_ansR.png,E18_Q6_ansR.png,within,NA,NaN,NA,left,2143,1,0,3182
7e1pGXNG,NA,NA,7e1pGXNG,2020-0188,2021-11-15,20:11:00,21:05:06,NA,incomplete,true,NA,true,0,5,NA,right,E32_Q6_ansR.png,E32_Q3_ansR.png,within,NA,NaN,NA,left,3672,0,1,1609
7e1pGXNG,NA,NA,7e1pGXNG,2020-0188,2021-11-15,20:11:00,21:05:06,NA,incomplete,true,NA,true,0,6,NA,right,E16_Q4_ansL.png,E18_Q7_ansL.png,between,NA,NaN,NA,right,1922,1,2,1343
7e1pGXNG,NA,NA,7e1pGXNG,2020-0188,2021-11-15,20:11:00,21:05:06,NA,incomplete,true,NA,true,0,7,NA,left,E32_Q9_ansR.png,E32_Q10_ansL.png,within,NA,NaN,NA,left,1467,1,0,1192
7e1pGXNG,NA,NA,7e1pGXNG,2020-0188,2021-11-15,20:11:00,21:05:06,NA,incomplete,true,NA,true,0,8,NA,right,E16_Q8_ansR.png,E16_Q1_ansR.png,within,NA,NaN,NA,left,1907,0,0,2681
7e1pGXNG,NA,NA,7e1pGXNG,2020-0188,2021-11-15,20:11:00,21:05:06,NA,incomplete,true,NA,true,0,9,NA,left,E18_Q1_ansL.png,E18_Q2_ansL.png,within,NA,NaN,NA,left,2893,1,1,1291
7e1pGXNG,NA,NA,7e1pGXNG,2020-0188,2021-11-15,20:11:00,21:05:06,NA,incomplete,true,NA,true,0,10,NA,right,E18_Q3_ansR.png,E18_Q8_ansL.png,within,NA,NaN,NA,right,1537,1,1,1087
7e1pGXNG,NA,NA,7e1pGXNG,2020-0188,2021-11-15,20:11:00,21:05:06,NA,incomplete,true,NA,true,0,11,NA,right,E16_Q1_ansR.png,E16_Q7_ansR.png,within,NA,NaN,NA,right,1727,1,1,2633
7e1pGXNG,NA,NA,7e1pGXNG,2020-0188,2021-11-15,20:11:00,21:05:06,NA,incomplete,true,NA,true,0,12,NA,right,E32_Q8_ansL.png,E32_Q5_ansR.png,within,NA,NaN,NA,left,1795,0,1,1249
7e1pGXNG,NA,NA,7e1pGXNG,2020-0188,2021-11-15,20:11:00,21:05:06,NA,incomplete,true,NA,true,0,13,NA,left,E32_Q1_ansL.png,E32_Q2_ansL.png,within,NA,NaN,NA,left,1475,1,1,1280
7e1pGXNG,NA,NA,7e1pGXNG,2020-0188,2021-11-15,20:11:00,21:05:06,NA,incomplete,true,NA,true,0,14,NA,right,E16_Q9_ansL.png,E16_Q4_ansL.png,within,NA,NaN,NA,left,1838,0,1,1074
7e1pGXNG,NA,NA,7e1pGXNG,2020-0188,2021-11-15,20:11:00,21:05:06,NA,incomplete,true,NA,true,0,15,NA,left,E18_Q3_ansR.png,E18_Q10_ansL.png,within,NA,NaN,NA,right,1937,0,1,1546
7e1pGXNG,NA,NA,7e1pGXNG,2020-0188,2021-11-15,20:11:00,21:05:06,NA,incomplete,true,NA,true,0,16,NA,left,E18_Q6_ansR.png,E18_Q9_ansR.png,within,NA,NaN,NA,left,1337,1,1,1264
7e1pGXNG,NA,NA,7e1pGXNG,2020-0188,2021-11-15,20:11:00,21:05:06,NA,incomplete,true,NA,true,0,17,NA,left,E32_Q10_ansL.png,E32_Q5_ansR.png,within,NA,NaN,NA,right,1196,0,1,1757
7e1pGXNG,NA,NA,7e1pGXNG,2020-0188,2021-11-15,20:11:00,21:05:06,NA,incomplete,true,NA,true,0,18,NA,left,E16_Q3_ansL.png,E16_Q2_ansR.png,within,NA,NaN,NA,left,2410,1,0,2239
7e1pGXNG,NA,NA,7e1pGXNG,2020-0188,2021-11-15,20:11:00,21:05:06,NA,incomplete,true,NA,true,0,19,NA,left,E32_Q2_ansL.png,E32_Q4_ansR.png,within,NA,NaN,NA,left,1631,1,1,2158
7e1pGXNG,NA,NA,7e1pGXNG,2020-0188,2021-11-15,20:11:00,21:05:06,NA,incomplete,true,NA,true,0,20,NA,left,E18_Q4_ansR.png,E18_Q5_ansR.png,within,NA,NaN,NA,right,1555,0,1,815
7e1pGXNG,NA,NA,7e1pGXNG,2020-0188,2021-11-15,20:11:00,21:05:06,NA,incomplete,true,NA,true,0,21,NA,right,E16_Q3_ansL.png,E18_Q9_ansR.png,between,NA,NaN,NA,right,1830,1,2,1883
7e1pGXNG,NA,NA,7e1pGXNG,2020-0188,2021-11-15,20:11:00,21:05:06,NA,incomplete,true,NA,true,0,22,NA,right,E18_Q7_ansL.png,E18_Q2_ansL.png,within,NA,NaN,NA,left,1329,0,0,1150
7e1pGXNG,NA,NA,7e1pGXNG,2020-0188,2021-11-15,20:11:00,21:05:06,NA,incomplete,true,NA,true,0,23,NA,left,E16_Q2_ansR.png,E16_Q6_ansL.png,within,NA,NaN,NA,left,1719,1,0,2416
7e1pGXNG,NA,NA,7e1pGXNG,2020-0188,2021-11-15,20:11:00,21:05:06,NA,incomplete,true,NA,true,0,24,NA,left,E16_Q8_ansR.png,E16_Q5_ansL.png,within,NA,NaN,NA,left,1489,1,0,1935
7e1pGXNG,NA,NA,7e1pGXNG,2020-0188,2021-11-15,20:11:00,21:05:06,NA,incomplete,true,NA,true,0,25,NA,right,E16_Q7_ansR.png,E18_Q10_ansL.png,between,NA,NaN,NA,right,2831,1,2,1893
7e1pGXNG,NA,NA,7e1pGXNG,2020-0188,2021-11-15,20:11:00,21:05:06,NA,incomplete,true,NA,true,0,26,NA,right,E32_Q7_ansL.png,E32_Q6_ansR.png,within,NA,NaN,NA,right,1138,1,1,2244
7e1pGXNG,NA,NA,7e1pGXNG,2020-0188,2021-11-15,20:11:00,21:05:06,NA,incomplete,false,true,NA,1,0,E4_Q1_ansL.png,left,NA,NA,NA,left,1521,true,NA,NA,NA,NA,NA
7e1pGXNG,NA,NA,7e1pGXNG,2020-0188,2021-11-15,20:11:00,21:05:06,NA,incomplete,false,true,NA,1,1,E4_Q3_ansL.png,left,NA,NA,NA,left,1154,true,NA,NA,NA,NA,NA
7e1pGXNG,NA,NA,7e1pGXNG,2020-0188,2021-11-15,20:11:00,21:05:06,NA,incomplete,false,true,NA,1,2,E4_Q10_ansR.png,right,NA,NA,NA,right,1497,true,NA,NA,NA,NA,NA
7e1pGXNG,NA,NA,7e1pGXNG,2020-0188,2021-11-15,20:11:00,21:05:06,NA,incomplete,false,true,NA,1,3,E4_Q8_ansR.png,right,NA,NA,NA,right,1560,true,NA,NA,NA,NA,NA
7e1pGXNG,NA,NA,7e1pGXNG,2020-0188,2021-11-15,20:11:00,21:05:06,NA,incomplete,false,true,NA,1,4,E4_Q6_ansR.png,right,NA,NA,NA,right,1225,true,NA,NA,NA,NA,NA
7e1pGXNG,NA,NA,7e1pGXNG,2020-0188,2021-11-15,20:11:00,21:05:06,NA,incomplete,false,true,NA,1,5,E4_Q9_ansL.png,left,NA,NA,NA,left,864,true,NA,NA,NA,NA,NA
7e1pGXNG,NA,NA,7e1pGXNG,2020-0188,2021-11-15,20:11:00,21:05:06,NA,incomplete,false,true,NA,1,6,E4_Q7_ansR.png,right,NA,NA,NA,right,1244,true,NA,NA,NA,NA,NA
7e1pGXNG,NA,NA,7e1pGXNG,2020-0188,2021-11-15,20:11:00,21:05:06,NA,incomplete,false,true,NA,1,7,E4_Q4_ansL.png,left,NA,NA,NA,right,1028,false,NA,NA,NA,NA,NA
7e1pGXNG,NA,NA,7e1pGXNG,2020-0188,2021-11-15,20:11:00,21:05:06,NA,incomplete,false,true,NA,1,8,E4_Q5_ansR.png,right,NA,NA,NA,right,1232,true,NA,NA,NA,NA,NA
7e1pGXNG,NA,NA,7e1pGXNG,2020-0188,2021-11-15,20:11:00,21:05:06,NA,incomplete,false,true,NA,1,9,E4_Q2_ansL.png,left,NA,NA,NA,left,1075,true,NA,NA,NA,NA,NA
7e1pGXNG,NA,NA,7e1pGXNG,2020-0188,2021-11-15,20:11:00,21:05:06,NA,incomplete,false,true,NA,1,10,E8_Q9_ansL.png,left,NA,NA,NA,right,1478,false,NA,NA,NA,NA,NA
7e1pGXNG,NA,NA,7e1pGXNG,2020-0188,2021-11-15,20:11:00,21:05:06,NA,incomplete,false,true,NA,1,11,E8_Q3_ansL.png,left,NA,NA,NA,right,2875,false,NA,NA,NA,NA,NA
7e1pGXNG,NA,NA,7e1pGXNG,2020-0188,2021-11-15,20:11:00,21:05:06,NA,incomplete,false,true,NA,1,12,E8_Q8_ansR.png,right,NA,NA,NA,right,1148,true,NA,NA,NA,NA,NA
7e1pGXNG,NA,NA,7e1pGXNG,2020-0188,2021-11-15,20:11:00,21:05:06,NA,incomplete,false,true,NA,1,13,E8_Q5_ansL.png,left,NA,NA,NA,left,2417,true,NA,NA,NA,NA,NA
7e1pGXNG,NA,NA,7e1pGXNG,2020-0188,2021-11-15,20:11:00,21:05:06,NA,incomplete,false,true,NA,1,14,E8_Q6_ansL.png,left,NA,NA,NA,left,1557,true,NA,NA,NA,NA,NA
7e1pGXNG,NA,NA,7e1pGXNG,2020-0188,2021-11-15,20:11:00,21:05:06,NA,incomplete,false,true,NA,1,15,E8_Q2_ansR.png,right,NA,NA,NA,right,1549,true,NA,NA,NA,NA,NA
7e1pGXNG,NA,NA,7e1pGXNG,2020-0188,2021-11-15,20:11:00,21:05:06,NA,incomplete,false,true,NA,1,16,E8_Q4_ansL.png,left,NA,NA,NA,left,1117,true,NA,NA,NA,NA,NA
7e1pGXNG,NA,NA,7e1pGXNG,2020-0188,2021-11-15,20:11:00,21:05:06,NA,incomplete,false,true,NA,1,17,E8_Q1_ansR.png,right,NA,NA,NA,right,1415,true,NA,NA,NA,NA,NA
7e1pGXNG,NA,NA,7e1pGXNG,2020-0188,2021-11-15,20:11:00,21:05:06,NA,incomplete,false,true,NA,1,18,E8_Q7_ansR.png,right,NA,NA,NA,right,1131,true,NA,NA,NA,NA,NA
7e1pGXNG,NA,NA,7e1pGXNG,2020-0188,2021-11-15,20:11:00,21:05:06,NA,incomplete,false,true,NA,1,19,E8_Q10_ansR.png,right,NA,NA,NA,right,1300,true,NA,NA,NA,NA,NA
7e1pGXNG,NA,NA,7e1pGXNG,2020-0188,2021-11-15,20:11:00,21:05:06,NA,incomplete,false,true,NA,1,20,E19_Q2_ansL.png,left,NA,NA,NA,left,1334,true,NA,NA,NA,NA,NA
7e1pGXNG,NA,NA,7e1pGXNG,2020-0188,2021-11-15,20:11:00,21:05:06,NA,incomplete,false,true,NA,1,21,E19_Q7_ansL.png,left,NA,NA,NA,left,1754,true,NA,NA,NA,NA,NA
7e1pGXNG,NA,NA,7e1pGXNG,2020-0188,2021-11-15,20:11:00,21:05:06,NA,incomplete,false,true,NA,1,22,E19_Q4_ansR.png,right,NA,NA,NA,right,928,true,NA,NA,NA,NA,NA
7e1pGXNG,NA,NA,7e1pGXNG,2020-0188,2021-11-15,20:11:00,21:05:06,NA,incomplete,false,true,NA,1,23,E19_Q9_ansR.png,right,NA,NA,NA,right,1147,true,NA,NA,NA,NA,NA
7e1pGXNG,NA,NA,7e1pGXNG,2020-0188,2021-11-15,20:11:00,21:05:06,NA,incomplete,false,true,NA,1,24,E19_Q10_ansL.png,left,NA,NA,NA,left,1412,true,NA,NA,NA,NA,NA
7e1pGXNG,NA,NA,7e1pGXNG,2020-0188,2021-11-15,20:11:00,21:05:06,NA,incomplete,false,true,NA,1,25,E19_Q3_ansR.png,right,NA,NA,NA,right,1779,true,NA,NA,NA,NA,NA
7e1pGXNG,NA,NA,7e1pGXNG,2020-0188,2021-11-15,20:11:00,21:05:06,NA,incomplete,false,true,NA,1,26,E19_Q8_ansL.png,left,NA,NA,NA,left,3050,true,NA,NA,NA,NA,NA
7e1pGXNG,NA,NA,7e1pGXNG,2020-0188,2021-11-15,20:11:00,21:05:06,NA,incomplete,false,true,NA,1,27,E19_Q5_ansR.png,right,NA,NA,NA,right,2939,true,NA,NA,NA,NA,NA
7e1pGXNG,NA,NA,7e1pGXNG,2020-0188,2021-11-15,20:11:00,21:05:06,NA,incomplete,false,true,NA,1,28,E19_Q6_ansR.png,right,NA,NA,NA,right,2383,true,NA,NA,NA,NA,NA
7e1pGXNG,NA,NA,7e1pGXNG,2020-0188,2021-11-15,20:11:00,21:05:06,NA,incomplete,false,true,NA,1,29,E19_Q1_ansL.png,left,NA,NA,NA,left,1061,true,NA,NA,NA,NA,NA
7e1pGXNG,NA,NA,7e1pGXNG,2020-0188,2021-11-15,20:11:00,21:05:06,NA,incomplete,false,NA,true,1,0,NA,right,E4_Q2_ansL.png,E4_Q7_ansR.png,within,NA,NaN,NA,left,2124,0,0,1330
7e1pGXNG,NA,NA,7e1pGXNG,2020-0188,2021-11-15,20:11:00,21:05:06,NA,incomplete,false,NA,true,1,1,NA,right,E4_Q4_ansL.png,E4_Q6_ansR.png,within,NA,NaN,NA,right,2500,1,0,1604
7e1pGXNG,NA,NA,7e1pGXNG,2020-0188,2021-11-15,20:11:00,21:05:06,NA,incomplete,false,NA,true,1,2,NA,right,E19_Q2_ansL.png,E8_Q1_ansR.png,between,NA,NaN,NA,right,1550,1,1,2353
7e1pGXNG,NA,NA,7e1pGXNG,2020-0188,2021-11-15,20:11:00,21:05:06,NA,incomplete,false,NA,true,1,3,NA,left,E8_Q7_ansR.png,E19_Q7_ansL.png,between,NA,NaN,NA,right,3024,0,0,1763
7e1pGXNG,NA,NA,7e1pGXNG,2020-0188,2021-11-15,20:11:00,21:05:06,NA,incomplete,false,NA,true,1,4,NA,left,E8_Q2_ansR.png,E8_Q7_ansR.png,within,NA,NaN,NA,left,2306,1,1,1118
7e1pGXNG,NA,NA,7e1pGXNG,2020-0188,2021-11-15,20:11:00,21:05:06,NA,incomplete,false,NA,true,1,5,NA,left,E8_Q9_ansL.png,E8_Q5_ansL.png,within,NA,NaN,NA,left,1995,1,0,2756
7e1pGXNG,NA,NA,7e1pGXNG,2020-0188,2021-11-15,20:11:00,21:05:06,NA,incomplete,false,NA,true,1,6,NA,right,E8_Q1_ansR.png,E8_Q6_ansL.png,within,NA,NaN,NA,right,2424,1,1,1360
7e1pGXNG,NA,NA,7e1pGXNG,2020-0188,2021-11-15,20:11:00,21:05:06,NA,incomplete,false,NA,true,1,7,NA,right,E4_Q5_ansR.png,E4_Q9_ansL.png,within,NA,NaN,NA,right,2524,1,1,1409
7e1pGXNG,NA,NA,7e1pGXNG,2020-0188,2021-11-15,20:11:00,21:05:06,NA,incomplete,false,NA,true,1,8,NA,left,E8_Q10_ansR.png,E19_Q4_ansR.png,between,NA,NaN,NA,left,3426,1,1,1279
7e1pGXNG,NA,NA,7e1pGXNG,2020-0188,2021-11-15,20:11:00,21:05:06,NA,incomplete,false,NA,true,1,9,NA,right,E19_Q1_ansL.png,E19_Q8_ansL.png,within,NA,NaN,NA,right,3621,1,0,1717
7e1pGXNG,NA,NA,7e1pGXNG,2020-0188,2021-11-15,20:11:00,21:05:06,NA,incomplete,false,NA,true,1,10,NA,left,E19_Q7_ansL.png,E19_Q10_ansL.png,within,NA,NaN,NA,left,1614,1,0,1389
7e1pGXNG,NA,NA,7e1pGXNG,2020-0188,2021-11-15,20:11:00,21:05:06,NA,incomplete,false,NA,true,1,11,NA,right,E8_Q4_ansL.png,E8_Q5_ansL.png,within,NA,NaN,NA,left,1858,0,1,2150
7e1pGXNG,NA,NA,7e1pGXNG,2020-0188,2021-11-15,20:11:00,21:05:06,NA,incomplete,false,NA,true,1,12,NA,right,E19_Q6_ansR.png,E19_Q3_ansR.png,within,NA,NaN,NA,left,1250,0,1,1558
7e1pGXNG,NA,NA,7e1pGXNG,2020-0188,2021-11-15,20:11:00,21:05:06,NA,incomplete,false,NA,true,1,13,NA,left,E4_Q1_ansL.png,E4_Q8_ansR.png,within,NA,NaN,NA,left,1587,1,1,1107
7e1pGXNG,NA,NA,7e1pGXNG,2020-0188,2021-11-15,20:11:00,21:05:06,NA,incomplete,false,NA,true,1,14,NA,left,E4_Q3_ansL.png,E4_Q6_ansR.png,within,NA,NaN,NA,left,1256,1,1,2056
7e1pGXNG,NA,NA,7e1pGXNG,2020-0188,2021-11-15,20:11:00,21:05:06,NA,incomplete,false,NA,true,1,15,NA,left,E19_Q4_ansR.png,E19_Q3_ansR.png,within,NA,NaN,NA,left,2024,1,0,1100
7e1pGXNG,NA,NA,7e1pGXNG,2020-0188,2021-11-15,20:11:00,21:05:06,NA,incomplete,false,NA,true,1,16,NA,left,E8_Q8_ansR.png,E8_Q2_ansR.png,within,NA,NaN,NA,right,1631,0,1,1110
7e1pGXNG,NA,NA,7e1pGXNG,2020-0188,2021-11-15,20:11:00,21:05:06,NA,incomplete,false,NA,true,1,17,NA,right,E4_Q7_ansR.png,E4_Q8_ansR.png,within,NA,NaN,NA,left,2701,0,0,1004
7e1pGXNG,NA,NA,7e1pGXNG,2020-0188,2021-11-15,20:11:00,21:05:06,NA,incomplete,false,NA,true,1,18,NA,left,E4_Q4_ansL.png,E8_Q9_ansL.png,between,NA,NaN,NA,left,1680,1,1,1413
7e1pGXNG,NA,NA,7e1pGXNG,2020-0188,2021-11-15,20:11:00,21:05:06,NA,incomplete,false,NA,true,1,19,NA,left,E4_Q2_ansL.png,E8_Q8_ansR.png,between,NA,NaN,NA,left,2106,1,1,1037
7e1pGXNG,NA,NA,7e1pGXNG,2020-0188,2021-11-15,20:11:00,21:05:06,NA,incomplete,false,NA,true,1,20,NA,right,E19_Q5_ansR.png,E19_Q10_ansL.png,within,NA,NaN,NA,right,1754,1,1,1655
7e1pGXNG,NA,NA,7e1pGXNG,2020-0188,2021-11-15,20:11:00,21:05:06,NA,incomplete,false,NA,true,1,21,NA,left,E19_Q9_ansR.png,E19_Q8_ansL.png,within,NA,NaN,NA,right,1749,0,1,941
7e1pGXNG,NA,NA,7e1pGXNG,2020-0188,2021-11-15,20:11:00,21:05:06,NA,incomplete,false,NA,true,1,22,NA,left,E4_Q10_ansR.png,E4_Q9_ansL.png,within,NA,NaN,NA,right,1482,0,0,1709
7e1pGXNG,NA,NA,7e1pGXNG,2020-0188,2021-11-15,20:11:00,21:05:06,NA,incomplete,false,NA,true,1,23,NA,left,E8_Q4_ansL.png,E8_Q10_ansR.png,within,NA,NaN,NA,left,996,1,1,1086
7e1pGXNG,NA,NA,7e1pGXNG,2020-0188,2021-11-15,20:11:00,21:05:06,NA,incomplete,false,NA,true,1,24,NA,right,E8_Q3_ansL.png,E4_Q5_ansR.png,between,NA,NaN,NA,right,1787,1,2,941
7e1pGXNG,NA,NA,7e1pGXNG,2020-0188,2021-11-15,20:11:00,21:05:06,NA,incomplete,false,NA,true,1,25,NA,right,E8_Q6_ansL.png,E8_Q3_ansL.png,within,NA,NaN,NA,right,1490,1,1,894
7e1pGXNG,NA,NA,7e1pGXNG,2020-0188,2021-11-15,20:11:00,21:05:06,NA,incomplete,false,NA,true,1,26,NA,right,E19_Q9_ansR.png,E19_Q2_ansL.png,within,NA,NaN,NA,right,1108,1,1,1869
7e1pGXNG,NA,NA,7e1pGXNG,2020-0188,2021-11-15,20:11:00,21:05:06,NA,incomplete,false,true,NA,2,0,E21_Q1_ansL.png,left,NA,NA,NA,left,1687,true,NA,NA,NA,NA,NA
7e1pGXNG,NA,NA,7e1pGXNG,2020-0188,2021-11-15,20:11:00,21:05:06,NA,incomplete,false,true,NA,2,1,E21_Q10_ansL.png,left,NA,NA,NA,left,1049,true,NA,NA,NA,NA,NA
7e1pGXNG,NA,NA,7e1pGXNG,2020-0188,2021-11-15,20:11:00,21:05:06,NA,incomplete,false,true,NA,2,2,E21_Q2_ansL.png,left,NA,NA,NA,left,885,true,NA,NA,NA,NA,NA
7e1pGXNG,NA,NA,7e1pGXNG,2020-0188,2021-11-15,20:11:00,21:05:06,NA,incomplete,false,true,NA,2,3,E21_Q3_ansR.png,right,NA,NA,NA,right,1084,true,NA,NA,NA,NA,NA
7e1pGXNG,NA,NA,7e1pGXNG,2020-0188,2021-11-15,20:11:00,21:05:06,NA,incomplete,false,true,NA,2,4,E21_Q4_ansR.png,right,NA,NA,NA,right,1069,true,NA,NA,NA,NA,NA
7e1pGXNG,NA,NA,7e1pGXNG,2020-0188,2021-11-15,20:11:00,21:05:06,NA,incomplete,false,true,NA,2,5,E21_Q5_ansR.png,right,NA,NA,NA,right,876,true,NA,NA,NA,NA,NA
7e1pGXNG,NA,NA,7e1pGXNG,2020-0188,2021-11-15,20:11:00,21:05:06,NA,incomplete,false,true,NA,2,6,E21_Q6_ansR.png,right,NA,NA,NA,right,892,true,NA,NA,NA,NA,NA
7e1pGXNG,NA,NA,7e1pGXNG,2020-0188,2021-11-15,20:11:00,21:05:06,NA,incomplete,false,true,NA,2,7,E21_Q9_ansR.png,right,NA,NA,NA,right,844,true,NA,NA,NA,NA,NA
7e1pGXNG,NA,NA,7e1pGXNG,2020-0188,2021-11-15,20:11:00,21:05:06,NA,incomplete,false,true,NA,2,8,E21_Q7_ansL.png,left,NA,NA,NA,left,1139,true,NA,NA,NA,NA,NA
7e1pGXNG,NA,NA,7e1pGXNG,2020-0188,2021-11-15,20:11:00,21:05:06,NA,incomplete,false,true,NA,2,9,E21_Q8_ansL.png,left,NA,NA,NA,left,998,true,NA,NA,NA,NA,NA
7e1pGXNG,NA,NA,7e1pGXNG,2020-0188,2021-11-15,20:11:00,21:05:06,NA,incomplete,false,true,NA,2,10,E10_Q4_ansL.png,left,NA,NA,NA,left,1900,true,NA,NA,NA,NA,NA
7e1pGXNG,NA,NA,7e1pGXNG,2020-0188,2021-11-15,20:11:00,21:05:06,NA,incomplete,false,true,NA,2,11,E10_Q8_ansR.png,right,NA,NA,NA,none,0,false,NA,NA,NA,NA,NA
7e1pGXNG,NA,NA,7e1pGXNG,2020-0188,2021-11-15,20:11:00,21:05:06,NA,incomplete,false,true,NA,2,12,E10_Q3_ansL.png,left,NA,NA,NA,left,3302,true,NA,NA,NA,NA,NA
7e1pGXNG,NA,NA,7e1pGXNG,2020-0188,2021-11-15,20:11:00,21:05:06,NA,incomplete,false,true,NA,2,13,E10_Q5_ansR.png,right,NA,NA,NA,right,1824,true,NA,NA,NA,NA,NA
7e1pGXNG,NA,NA,7e1pGXNG,2020-0188,2021-11-15,20:11:00,21:05:06,NA,incomplete,false,true,NA,2,14,E10_Q6_ansR.png,right,NA,NA,NA,right,1902,true,NA,NA,NA,NA,NA
7e1pGXNG,NA,NA,7e1pGXNG,2020-0188,2021-11-15,20:11:00,21:05:06,NA,incomplete,false,true,NA,2,15,E10_Q1_ansL.png,left,NA,NA,NA,left,1495,true,NA,NA,NA,NA,NA
7e1pGXNG,NA,NA,7e1pGXNG,2020-0188,2021-11-15,20:11:00,21:05:06,NA,incomplete,false,true,NA,2,16,E10_Q10_ansR.png,right,NA,NA,NA,right,2412,true,NA,NA,NA,NA,NA
7e1pGXNG,NA,NA,7e1pGXNG,2020-0188,2021-11-15,20:11:00,21:05:06,NA,incomplete,false,true,NA,2,17,E10_Q9_ansL.png,left,NA,NA,NA,left,1970,true,NA,NA,NA,NA,NA
7e1pGXNG,NA,NA,7e1pGXNG,2020-0188,2021-11-15,20:11:00,21:05:06,NA,incomplete,false,true,NA,2,18,E10_Q2_ansL.png,left,NA,NA,NA,left,1148,true,NA,NA,NA,NA,NA
7e1pGXNG,NA,NA,7e1pGXNG,2020-0188,2021-11-15,20:11:00,21:05:06,NA,incomplete,false,true,NA,2,19,E10_Q7_ansR.png,right,NA,NA,NA,right,1073,true,NA,NA,NA,NA,NA
7e1pGXNG,NA,NA,7e1pGXNG,2020-0188,2021-11-15,20:11:00,21:05:06,NA,incomplete,false,true,NA,2,20,E20_Q3_ansR.png,right,NA,NA,NA,right,1304,true,NA,NA,NA,NA,NA
7e1pGXNG,NA,NA,7e1pGXNG,2020-0188,2021-11-15,20:11:00,21:05:06,NA,incomplete,false,true,NA,2,21,E20_Q4_ansR.png,right,NA,NA,NA,right,845,true,NA,NA,NA,NA,NA
7e1pGXNG,NA,NA,7e1pGXNG,2020-0188,2021-11-15,20:11:00,21:05:06,NA,incomplete,false,true,NA,2,22,E20_Q8_ansL.png,left,NA,NA,NA,left,1162,true,NA,NA,NA,NA,NA
7e1pGXNG,NA,NA,7e1pGXNG,2020-0188,2021-11-15,20:11:00,21:05:06,NA,incomplete,false,true,NA,2,23,E20_Q6_ansR.png,right,NA,NA,NA,right,1215,true,NA,NA,NA,NA,NA
7e1pGXNG,NA,NA,7e1pGXNG,2020-0188,2021-11-15,20:11:00,21:05:06,NA,incomplete,false,true,NA,2,24,E20_Q10_ansL.png,left,NA,NA,NA,right,1232,false,NA,NA,NA,NA,NA
7e1pGXNG,NA,NA,7e1pGXNG,2020-0188,2021-11-15,20:11:00,21:05:06,NA,incomplete,false,true,NA,2,25,E20_Q1_ansL.png,left,NA,NA,NA,left,946,true,NA,NA,NA,NA,NA
7e1pGXNG,NA,NA,7e1pGXNG,2020-0188,2021-11-15,20:11:00,21:05:06,NA,incomplete,false,true,NA,2,26,E20_Q7_ansL.png,left,NA,NA,NA,left,945,true,NA,NA,NA,NA,NA
7e1pGXNG,NA,NA,7e1pGXNG,2020-0188,2021-11-15,20:11:00,21:05:06,NA,incomplete,false,true,NA,2,27,E20_Q5_ansR.png,right,NA,NA,NA,right,1256,true,NA,NA,NA,NA,NA
7e1pGXNG,NA,NA,7e1pGXNG,2020-0188,2021-11-15,20:11:00,21:05:06,NA,incomplete,false,true,NA,2,28,E20_Q9_ansR.png,right,NA,NA,NA,right,1308,true,NA,NA,NA,NA,NA
7e1pGXNG,NA,NA,7e1pGXNG,2020-0188,2021-11-15,20:11:00,21:05:06,NA,incomplete,false,true,NA,2,29,E20_Q2_ansL.png,left,NA,NA,NA,left,1057,true,NA,NA,NA,NA,NA
7e1pGXNG,NA,NA,7e1pGXNG,2020-0188,2021-11-15,20:11:00,21:05:06,NA,incomplete,false,NA,true,2,0,NA,right,E20_Q4_ansR.png,E10_Q2_ansL.png,between,NA,NaN,NA,right,3010,1,2,2006
7e1pGXNG,NA,NA,7e1pGXNG,2020-0188,2021-11-15,20:11:00,21:05:06,NA,incomplete,false,NA,true,2,1,NA,right,E21_Q3_ansR.png,E21_Q1_ansL.png,within,NA,NaN,NA,right,2388,1,0,1924
7e1pGXNG,NA,NA,7e1pGXNG,2020-0188,2021-11-15,20:11:00,21:05:06,NA,incomplete,false,NA,true,2,2,NA,left,E10_Q3_ansL.png,E10_Q1_ansL.png,within,NA,NaN,NA,left,2368,1,0,5388
7e1pGXNG,NA,NA,7e1pGXNG,2020-0188,2021-11-15,20:11:00,21:05:06,NA,incomplete,false,NA,true,2,3,NA,right,E21_Q9_ansR.png,E21_Q4_ansR.png,within,NA,NaN,NA,right,2733,1,0,1092
7e1pGXNG,NA,NA,7e1pGXNG,2020-0188,2021-11-15,20:11:00,21:05:06,NA,incomplete,false,NA,true,2,4,NA,right,E10_Q2_ansL.png,E10_Q1_ansL.png,within,NA,NaN,NA,right,2971,1,0,1088
7e1pGXNG,NA,NA,7e1pGXNG,2020-0188,2021-11-15,20:11:00,21:05:06,NA,incomplete,false,NA,true,2,5,NA,left,E20_Q3_ansR.png,E20_Q6_ansR.png,within,NA,NaN,NA,left,1997,1,0,1181
7e1pGXNG,NA,NA,7e1pGXNG,2020-0188,2021-11-15,20:11:00,21:05:06,NA,incomplete,false,NA,true,2,6,NA,right,E10_Q6_ansR.png,E10_Q8_ansR.png,within,NA,NaN,NA,right,1626,1,0,3636
7e1pGXNG,NA,NA,7e1pGXNG,2020-0188,2021-11-15,20:11:00,21:05:06,NA,incomplete,false,NA,true,2,7,NA,right,E20_Q5_ansR.png,E20_Q10_ansL.png,within,NA,NaN,NA,right,1343,1,1,1486
7e1pGXNG,NA,NA,7e1pGXNG,2020-0188,2021-11-15,20:11:00,21:05:06,NA,incomplete,false,NA,true,2,8,NA,right,E20_Q8_ansL.png,E10_Q7_ansR.png,between,NA,NaN,NA,right,3162,1,2,1537
7e1pGXNG,NA,NA,7e1pGXNG,2020-0188,2021-11-15,20:11:00,21:05:06,NA,incomplete,false,NA,true,2,9,NA,left,E10_Q10_ansR.png,E10_Q7_ansR.png,within,NA,NaN,NA,left,1740,1,0,1124
7e1pGXNG,NA,NA,7e1pGXNG,2020-0188,2021-11-15,20:11:00,21:05:06,NA,incomplete,false,NA,true,2,10,NA,right,E20_Q1_ansL.png,E20_Q8_ansL.png,within,NA,NaN,NA,right,1207,1,1,1452
7e1pGXNG,NA,NA,7e1pGXNG,2020-0188,2021-11-15,20:11:00,21:05:06,NA,incomplete,false,NA,true,2,11,NA,right,E20_Q3_ansR.png,E10_Q9_ansL.png,between,NA,NaN,NA,right,1319,1,2,2491
7e1pGXNG,NA,NA,7e1pGXNG,2020-0188,2021-11-15,20:11:00,21:05:06,NA,incomplete,false,NA,true,2,12,NA,left,E21_Q6_ansR.png,E21_Q8_ansL.png,within,NA,NaN,NA,left,2030,1,1,1151
7e1pGXNG,NA,NA,7e1pGXNG,2020-0188,2021-11-15,20:11:00,21:05:06,NA,incomplete,false,NA,true,2,13,NA,right,E10_Q5_ansR.png,E10_Q4_ansL.png,within,NA,NaN,NA,right,2057,1,1,1613
7e1pGXNG,NA,NA,7e1pGXNG,2020-0188,2021-11-15,20:11:00,21:05:06,NA,incomplete,false,NA,true,2,14,NA,right,E10_Q8_ansR.png,E21_Q7_ansL.png,between,NA,NaN,NA,right,2314,1,3,1050
7e1pGXNG,NA,NA,7e1pGXNG,2020-0188,2021-11-15,20:11:00,21:05:06,NA,incomplete,false,NA,true,2,15,NA,right,E20_Q9_ansR.png,E20_Q1_ansL.png,within,NA,NaN,NA,left,1489,0,1,921
7e1pGXNG,NA,NA,7e1pGXNG,2020-0188,2021-11-15,20:11:00,21:05:06,NA,incomplete,false,NA,true,2,16,NA,right,E20_Q10_ansL.png,E20_Q4_ansR.png,within,NA,NaN,NA,right,1057,1,1,1001
7e1pGXNG,NA,NA,7e1pGXNG,2020-0188,2021-11-15,20:11:00,21:05:06,NA,incomplete,false,NA,true,2,17,NA,left,E20_Q6_ansR.png,E20_Q7_ansL.png,within,NA,NaN,NA,left,1182,1,1,1047
7e1pGXNG,NA,NA,7e1pGXNG,2020-0188,2021-11-15,20:11:00,21:05:06,NA,incomplete,false,NA,true,2,18,NA,left,E21_Q3_ansR.png,E21_Q6_ansR.png,within,NA,NaN,NA,left,989,1,1,1001
7e1pGXNG,NA,NA,7e1pGXNG,2020-0188,2021-11-15,20:11:00,21:05:06,NA,incomplete,false,NA,true,2,19,NA,left,E10_Q5_ansR.png,E10_Q10_ansR.png,within,NA,NaN,NA,left,2652,1,1,1180
7e1pGXNG,NA,NA,7e1pGXNG,2020-0188,2021-11-15,20:11:00,21:05:06,NA,incomplete,false,NA,true,2,20,NA,right,E21_Q5_ansR.png,E21_Q2_ansL.png,within,NA,NaN,NA,left,769,0,1,1112
7e1pGXNG,NA,NA,7e1pGXNG,2020-0188,2021-11-15,20:11:00,21:05:06,NA,incomplete,false,NA,true,2,21,NA,right,E10_Q3_ansL.png,E21_Q8_ansL.png,between,NA,NaN,NA,right,1565,1,3,1767
7e1pGXNG,NA,NA,7e1pGXNG,2020-0188,2021-11-15,20:11:00,21:05:06,NA,incomplete,false,NA,true,2,22,NA,left,E21_Q5_ansR.png,E21_Q7_ansL.png,within,NA,NaN,NA,left,740,1,1,1132
7e1pGXNG,NA,NA,7e1pGXNG,2020-0188,2021-11-15,20:11:00,21:05:06,NA,incomplete,false,NA,true,2,23,NA,right,E20_Q2_ansL.png,E20_Q7_ansL.png,within,NA,NaN,NA,left,992,0,1,820
7e1pGXNG,NA,NA,7e1pGXNG,2020-0188,2021-11-15,20:11:00,21:05:06,NA,incomplete,false,NA,true,2,24,NA,left,E10_Q6_ansR.png,E10_Q9_ansL.png,within,NA,NaN,NA,left,1470,1,0,1484
7e1pGXNG,NA,NA,7e1pGXNG,2020-0188,2021-11-15,20:11:00,21:05:06,NA,incomplete,false,NA,true,2,25,NA,right,E21_Q4_ansR.png,E21_Q10_ansL.png,within,NA,NaN,NA,left,1378,0,1,882
7e1pGXNG,NA,NA,7e1pGXNG,2020-0188,2021-11-15,20:11:00,21:05:06,NA,incomplete,false,NA,true,2,26,NA,left,E21_Q9_ansR.png,E10_Q4_ansL.png,between,NA,NaN,NA,left,1173,1,3,1006
7e1pGXNG,NA,NA,7e1pGXNG,2020-0188,2021-11-15,20:11:00,21:05:06,NA,incomplete,false,true,NA,3,0,E23_Q9_ansR.png,right,NA,NA,NA,left,1989,false,NA,NA,NA,NA,NA
7e1pGXNG,NA,NA,7e1pGXNG,2020-0188,2021-11-15,20:11:00,21:05:06,NA,incomplete,false,true,NA,3,1,E23_Q6_ansR.png,right,NA,NA,NA,right,1064,true,NA,NA,NA,NA,NA
7e1pGXNG,NA,NA,7e1pGXNG,2020-0188,2021-11-15,20:11:00,21:05:06,NA,incomplete,false,true,NA,3,2,E23_Q7_ansL.png,left,NA,NA,NA,left,836,true,NA,NA,NA,NA,NA
7e1pGXNG,NA,NA,7e1pGXNG,2020-0188,2021-11-15,20:11:00,21:05:06,NA,incomplete,false,true,NA,3,3,E23_Q2_ansL.png,left,NA,NA,NA,left,960,true,NA,NA,NA,NA,NA
7e1pGXNG,NA,NA,7e1pGXNG,2020-0188,2021-11-15,20:11:00,21:05:06,NA,incomplete,false,true,NA,3,4,E23_Q5_ansR.png,right,NA,NA,NA,right,793,true,NA,NA,NA,NA,NA
7e1pGXNG,NA,NA,7e1pGXNG,2020-0188,2021-11-15,20:11:00,21:05:06,NA,incomplete,false,true,NA,3,5,E23_Q4_ansR.png,right,NA,NA,NA,right,913,true,NA,NA,NA,NA,NA
7e1pGXNG,NA,NA,7e1pGXNG,2020-0188,2021-11-15,20:11:00,21:05:06,NA,incomplete,false,true,NA,3,6,E23_Q1_ansL.png,left,NA,NA,NA,left,1257,true,NA,NA,NA,NA,NA
7e1pGXNG,NA,NA,7e1pGXNG,2020-0188,2021-11-15,20:11:00,21:05:06,NA,incomplete,false,true,NA,3,7,E23_Q8_ansL.png,left,NA,NA,NA,right,1203,false,NA,NA,NA,NA,NA
7e1pGXNG,NA,NA,7e1pGXNG,2020-0188,2021-11-15,20:11:00,21:05:06,NA,incomplete,false,true,NA,3,8,E23_Q3_ansR.png,right,NA,NA,NA,right,834,true,NA,NA,NA,NA,NA
7e1pGXNG,NA,NA,7e1pGXNG,2020-0188,2021-11-15,20:11:00,21:05:06,NA,incomplete,false,true,NA,3,9,E23_Q10_ansL.png,left,NA,NA,NA,left,867,true,NA,NA,NA,NA,NA
7e1pGXNG,NA,NA,7e1pGXNG,2020-0188,2021-11-15,20:11:00,21:05:06,NA,incomplete,false,true,NA,3,10,E26_Q2_ansL.png,left,NA,NA,NA,left,1513,true,NA,NA,NA,NA,NA
7e1pGXNG,NA,NA,7e1pGXNG,2020-0188,2021-11-15,20:11:00,21:05:06,NA,incomplete,false,true,NA,3,11,E26_Q6_ansR.png,right,NA,NA,NA,right,1048,true,NA,NA,NA,NA,NA
7e1pGXNG,NA,NA,7e1pGXNG,2020-0188,2021-11-15,20:11:00,21:05:06,NA,incomplete,false,true,NA,3,12,E26_Q5_ansR.png,right,NA,NA,NA,right,1078,true,NA,NA,NA,NA,NA
7e1pGXNG,NA,NA,7e1pGXNG,2020-0188,2021-11-15,20:11:00,21:05:06,NA,incomplete,false,true,NA,3,13,E26_Q10_ansL.png,left,NA,NA,NA,left,1693,true,NA,NA,NA,NA,NA
7e1pGXNG,NA,NA,7e1pGXNG,2020-0188,2021-11-15,20:11:00,21:05:06,NA,incomplete,false,true,NA,3,14,E26_Q8_ansL.png,left,NA,NA,NA,left,1119,true,NA,NA,NA,NA,NA
7e1pGXNG,NA,NA,7e1pGXNG,2020-0188,2021-11-15,20:11:00,21:05:06,NA,incomplete,false,true,NA,3,15,E26_Q9_ansR.png,right,NA,NA,NA,right,816,true,NA,NA,NA,NA,NA
7e1pGXNG,NA,NA,7e1pGXNG,2020-0188,2021-11-15,20:11:00,21:05:06,NA,incomplete,false,true,NA,3,16,E26_Q4_ansR.png,right,NA,NA,NA,right,1088,true,NA,NA,NA,NA,NA
7e1pGXNG,NA,NA,7e1pGXNG,2020-0188,2021-11-15,20:11:00,21:05:06,NA,incomplete,false,true,NA,3,17,E26_Q1_ansL.png,left,NA,NA,NA,left,1087,true,NA,NA,NA,NA,NA
7e1pGXNG,NA,NA,7e1pGXNG,2020-0188,2021-11-15,20:11:00,21:05:06,NA,incomplete,false,true,NA,3,18,E26_Q3_ansR.png,right,NA,NA,NA,right,789,true,NA,NA,NA,NA,NA
7e1pGXNG,NA,NA,7e1pGXNG,2020-0188,2021-11-15,20:11:00,21:05:06,NA,incomplete,false,true,NA,3,19,E26_Q7_ansL.png,left,NA,NA,NA,left,2476,true,NA,NA,NA,NA,NA
7e1pGXNG,NA,NA,7e1pGXNG,2020-0188,2021-11-15,20:11:00,21:05:06,NA,incomplete,false,true,NA,3,20,E29_Q6_ansR.png,right,NA,NA,NA,right,1319,true,NA,NA,NA,NA,NA
7e1pGXNG,NA,NA,7e1pGXNG,2020-0188,2021-11-15,20:11:00,21:05:06,NA,incomplete,false,true,NA,3,21,E29_Q9_ansR.png,right,NA,NA,NA,right,942,true,NA,NA,NA,NA,NA
7e1pGXNG,NA,NA,7e1pGXNG,2020-0188,2021-11-15,20:11:00,21:05:06,NA,incomplete,false,true,NA,3,22,E29_Q8_ansL.png,left,NA,NA,NA,left,1163,true,NA,NA,NA,NA,NA
7e1pGXNG,NA,NA,7e1pGXNG,2020-0188,2021-11-15,20:11:00,21:05:06,NA,incomplete,false,true,NA,3,23,E29_Q5_ansR.png,right,NA,NA,NA,right,1034,true,NA,NA,NA,NA,NA
7e1pGXNG,NA,NA,7e1pGXNG,2020-0188,2021-11-15,20:11:00,21:05:06,NA,incomplete,false,true,NA,3,24,E29_Q10_ansL.png,left,NA,NA,NA,left,849,true,NA,NA,NA,NA,NA
7e1pGXNG,NA,NA,7e1pGXNG,2020-0188,2021-11-15,20:11:00,21:05:06,NA,incomplete,false,true,NA,3,25,E29_Q4_ansR.png,right,NA,NA,NA,right,667,true,NA,NA,NA,NA,NA
7e1pGXNG,NA,NA,7e1pGXNG,2020-0188,2021-11-15,20:11:00,21:05:06,NA,incomplete,false,true,NA,3,26,E29_Q2_ansL.png,left,NA,NA,NA,left,876,true,NA,NA,NA,NA,NA
7e1pGXNG,NA,NA,7e1pGXNG,2020-0188,2021-11-15,20:11:00,21:05:06,NA,incomplete,false,true,NA,3,27,E29_Q7_ansL.png,left,NA,NA,NA,left,933,true,NA,NA,NA,NA,NA
7e1pGXNG,NA,NA,7e1pGXNG,2020-0188,2021-11-15,20:11:00,21:05:06,NA,incomplete,false,true,NA,3,28,E29_Q3_ansR.png,right,NA,NA,NA,right,1405,true,NA,NA,NA,NA,NA
7e1pGXNG,NA,NA,7e1pGXNG,2020-0188,2021-11-15,20:11:00,21:05:06,NA,incomplete,false,true,NA,3,29,E29_Q1_ansL.png,left,NA,NA,NA,left,753,true,NA,NA,NA,NA,NA
7e1pGXNG,NA,NA,7e1pGXNG,2020-0188,2021-11-15,20:11:00,21:05:06,NA,incomplete,false,NA,true,3,0,NA,right,E29_Q7_ansL.png,E29_Q10_ansL.png,within,NA,NaN,NA,right,2688,1,0,1130
7e1pGXNG,NA,NA,7e1pGXNG,2020-0188,2021-11-15,20:11:00,21:05:06,NA,incomplete,false,NA,true,3,1,NA,right,E29_Q8_ansL.png,E26_Q7_ansL.png,between,NA,NaN,NA,right,1491,1,2,1340
7e1pGXNG,NA,NA,7e1pGXNG,2020-0188,2021-11-15,20:11:00,21:05:06,NA,incomplete,false,NA,true,3,2,NA,left,E23_Q3_ansR.png,E26_Q6_ansR.png,between,NA,NaN,NA,left,1296,1,2,1024
7e1pGXNG,NA,NA,7e1pGXNG,2020-0188,2021-11-15,20:11:00,21:05:06,NA,incomplete,false,NA,true,3,3,NA,left,E26_Q10_ansL.png,E26_Q4_ansR.png,within,NA,NaN,NA,left,1995,1,0,1604
7e1pGXNG,NA,NA,7e1pGXNG,2020-0188,2021-11-15,20:11:00,21:05:06,NA,incomplete,false,NA,true,3,4,NA,right,E29_Q2_ansL.png,E29_Q5_ansR.png,within,NA,NaN,NA,right,1124,1,0,1184
7e1pGXNG,NA,NA,7e1pGXNG,2020-0188,2021-11-15,20:11:00,21:05:06,NA,incomplete,false,NA,true,3,5,NA,left,E23_Q7_ansL.png,E23_Q4_ansR.png,within,NA,NaN,NA,right,1290,0,0,1176
7e1pGXNG,NA,NA,7e1pGXNG,2020-0188,2021-11-15,20:11:00,21:05:06,NA,incomplete,false,NA,true,3,6,NA,left,E23_Q9_ansR.png,E23_Q2_ansL.png,within,NA,NaN,NA,left,1477,1,1,2115
7e1pGXNG,NA,NA,7e1pGXNG,2020-0188,2021-11-15,20:11:00,21:05:06,NA,incomplete,false,NA,true,3,7,NA,left,E29_Q8_ansL.png,E29_Q4_ansR.png,within,NA,NaN,NA,left,1576,1,0,1142
7e1pGXNG,NA,NA,7e1pGXNG,2020-0188,2021-11-15,20:11:00,21:05:06,NA,incomplete,false,NA,true,3,8,NA,right,E29_Q9_ansR.png,E26_Q3_ansR.png,between,NA,NaN,NA,right,1326,1,2,1263
7e1pGXNG,NA,NA,7e1pGXNG,2020-0188,2021-11-15,20:11:00,21:05:06,NA,incomplete,false,NA,true,3,9,NA,left,E26_Q1_ansL.png,E29_Q6_ansR.png,between,NA,NaN,NA,left,2212,1,2,1758
7e1pGXNG,NA,NA,7e1pGXNG,2020-0188,2021-11-15,20:11:00,21:05:06,NA,incomplete,false,NA,true,3,10,NA,left,E23_Q2_ansL.png,E23_Q1_ansL.png,within,NA,NaN,NA,right,3957,0,0,1212
7e1pGXNG,NA,NA,7e1pGXNG,2020-0188,2021-11-15,20:11:00,21:05:06,NA,incomplete,false,NA,true,3,11,NA,left,E23_Q5_ansR.png,E23_Q8_ansL.png,within,NA,NaN,NA,left,1182,1,1,1031
7e1pGXNG,NA,NA,7e1pGXNG,2020-0188,2021-11-15,20:11:00,21:05:06,NA,incomplete,false,NA,true,3,12,NA,left,E29_Q6_ansR.png,E29_Q5_ansR.png,within,NA,NaN,NA,left,907,1,0,2176
7e1pGXNG,NA,NA,7e1pGXNG,2020-0188,2021-11-15,20:11:00,21:05:06,NA,incomplete,false,NA,true,3,13,NA,right,E26_Q10_ansL.png,E26_Q2_ansL.png,within,NA,NaN,NA,right,2245,1,0,1420
7e1pGXNG,NA,NA,7e1pGXNG,2020-0188,2021-11-15,20:11:00,21:05:06,NA,incomplete,false,NA,true,3,14,NA,left,E29_Q9_ansR.png,E29_Q10_ansL.png,within,NA,NaN,NA,right,1419,0,1,1017
7e1pGXNG,NA,NA,7e1pGXNG,2020-0188,2021-11-15,20:11:00,21:05:06,NA,incomplete,false,NA,true,3,15,NA,right,E23_Q5_ansR.png,E23_Q6_ansR.png,within,NA,NaN,NA,right,1140,1,1,2108
7e1pGXNG,NA,NA,7e1pGXNG,2020-0188,2021-11-15,20:11:00,21:05:06,NA,incomplete,false,NA,true,3,16,NA,right,E23_Q10_ansL.png,E23_Q1_ansL.png,within,NA,NaN,NA,left,1545,0,1,983
7e1pGXNG,NA,NA,7e1pGXNG,2020-0188,2021-11-15,20:11:00,21:05:06,NA,incomplete,false,NA,true,3,17,NA,left,E23_Q4_ansR.png,E23_Q3_ansR.png,within,NA,NaN,NA,left,2069,1,0,1414
7e1pGXNG,NA,NA,7e1pGXNG,2020-0188,2021-11-15,20:11:00,21:05:06,NA,incomplete,false,NA,true,3,18,NA,right,E29_Q1_ansL.png,E29_Q2_ansL.png,within,NA,NaN,NA,left,924,0,0,2926
7e1pGXNG,NA,NA,7e1pGXNG,2020-0188,2021-11-15,20:11:00,21:05:06,NA,incomplete,false,NA,true,3,19,NA,left,E26_Q6_ansR.png,E26_Q8_ansL.png,within,NA,NaN,NA,right,1365,0,0,1484
7e1pGXNG,NA,NA,7e1pGXNG,2020-0188,2021-11-15,20:11:00,21:05:06,NA,incomplete,false,NA,true,3,20,NA,left,E29_Q4_ansR.png,E29_Q3_ansR.png,within,NA,NaN,NA,left,2048,1,0,775
7e1pGXNG,NA,NA,7e1pGXNG,2020-0188,2021-11-15,20:11:00,21:05:06,NA,incomplete,false,NA,true,3,21,NA,right,E26_Q5_ansR.png,E23_Q10_ansL.png,between,NA,NaN,NA,right,1981,1,2,1049
7e1pGXNG,NA,NA,7e1pGXNG,2020-0188,2021-11-15,20:11:00,21:05:06,NA,incomplete,false,NA,true,3,22,NA,right,E26_Q9_ansR.png,E26_Q5_ansR.png,within,NA,NaN,NA,right,1639,1,0,1032
7e1pGXNG,NA,NA,7e1pGXNG,2020-0188,2021-11-15,20:11:00,21:05:06,NA,incomplete,false,NA,true,3,23,NA,left,E26_Q8_ansL.png,E26_Q1_ansL.png,within,NA,NaN,NA,left,1488,1,0,1758
7e1pGXNG,NA,NA,7e1pGXNG,2020-0188,2021-11-15,20:11:00,21:05:06,NA,incomplete,false,NA,true,3,24,NA,left,E26_Q9_ansR.png,E26_Q3_ansR.png,within,NA,NaN,NA,right,1519,0,1,1011
7e1pGXNG,NA,NA,7e1pGXNG,2020-0188,2021-11-15,20:11:00,21:05:06,NA,incomplete,false,NA,true,3,25,NA,left,E26_Q4_ansR.png,E26_Q7_ansL.png,within,NA,NaN,NA,right,1842,0,0,855
7e1pGXNG,NA,NA,7e1pGXNG,2020-0188,2021-11-15,20:11:00,21:05:06,NA,incomplete,false,NA,true,3,26,NA,right,E26_Q2_ansL.png,E23_Q8_ansL.png,between,NA,NaN,NA,right,1847,1,2,3275
7e1pGXNG,NA,NA,7e1pGXNG,2020-0188,2021-11-15,20:11:00,21:05:06,NA,incomplete,false,true,NA,4,0,E15_Q2_ansL.png,left,NA,NA,NA,left,3390,true,NA,NA,NA,NA,NA
7e1pGXNG,NA,NA,7e1pGXNG,2020-0188,2021-11-15,20:11:00,21:05:06,NA,incomplete,false,true,NA,4,1,E15_Q4_ansR.png,right,NA,NA,NA,none,0,false,NA,NA,NA,NA,NA
7e1pGXNG,NA,NA,7e1pGXNG,2020-0188,2021-11-15,20:11:00,21:05:06,NA,incomplete,false,true,NA,4,2,E15_Q1_ansL.png,left,NA,NA,NA,right,1972,false,NA,NA,NA,NA,NA
7e1pGXNG,NA,NA,7e1pGXNG,2020-0188,2021-11-15,20:11:00,21:05:06,NA,incomplete,false,true,NA,4,3,E15_Q3_ansR.png,right,NA,NA,NA,left,1292,false,NA,NA,NA,NA,NA
7e1pGXNG,NA,NA,7e1pGXNG,2020-0188,2021-11-15,20:11:00,21:05:06,NA,incomplete,false,true,NA,4,4,E15_Q9_ansR.png,right,NA,NA,NA,none,0,false,NA,NA,NA,NA,NA
7e1pGXNG,NA,NA,7e1pGXNG,2020-0188,2021-11-15,20:11:00,21:05:06,NA,incomplete,false,true,NA,4,5,E15_Q7_ansL.png,left,NA,NA,NA,none,0,false,NA,NA,NA,NA,NA
7e1pGXNG,NA,NA,7e1pGXNG,2020-0188,2021-11-15,20:11:00,21:05:06,NA,incomplete,false,true,NA,4,6,E15_Q6_ansR.png,right,NA,NA,NA,right,1156,true,NA,NA,NA,NA,NA
7e1pGXNG,NA,NA,7e1pGXNG,2020-0188,2021-11-15,20:11:00,21:05:06,NA,incomplete,false,true,NA,4,7,E15_Q8_ansL.png,left,NA,NA,NA,left,1572,true,NA,NA,NA,NA,NA
7e1pGXNG,NA,NA,7e1pGXNG,2020-0188,2021-11-15,20:11:00,21:05:06,NA,incomplete,false,true,NA,4,8,E15_Q10_ansL.png,left,NA,NA,NA,left,948,true,NA,NA,NA,NA,NA
7e1pGXNG,NA,NA,7e1pGXNG,2020-0188,2021-11-15,20:11:00,21:05:06,NA,incomplete,false,true,NA,4,9,E15_Q5_ansR.png,right,NA,NA,NA,right,1904,true,NA,NA,NA,NA,NA
7e1pGXNG,NA,NA,7e1pGXNG,2020-0188,2021-11-15,20:11:00,21:05:06,NA,incomplete,false,true,NA,4,10,E7_Q8_ansL.png,left,NA,NA,NA,left,956,true,NA,NA,NA,NA,NA
7e1pGXNG,NA,NA,7e1pGXNG,2020-0188,2021-11-15,20:11:00,21:05:06,NA,incomplete,false,true,NA,4,11,E7_Q4_ansR.png,right,NA,NA,NA,right,1112,true,NA,NA,NA,NA,NA
7e1pGXNG,NA,NA,7e1pGXNG,2020-0188,2021-11-15,20:11:00,21:05:06,NA,incomplete,false,true,NA,4,12,E7_Q9_ansR.png,right,NA,NA,NA,right,1558,true,NA,NA,NA,NA,NA
7e1pGXNG,NA,NA,7e1pGXNG,2020-0188,2021-11-15,20:11:00,21:05:06,NA,incomplete,false,true,NA,4,13,E7_Q2_ansL.png,left,NA,NA,NA,left,1450,true,NA,NA,NA,NA,NA
7e1pGXNG,NA,NA,7e1pGXNG,2020-0188,2021-11-15,20:11:00,21:05:06,NA,incomplete,false,true,NA,4,14,E7_Q5_ansR.png,right,NA,NA,NA,left,1933,false,NA,NA,NA,NA,NA
7e1pGXNG,NA,NA,7e1pGXNG,2020-0188,2021-11-15,20:11:00,21:05:06,NA,incomplete,false,true,NA,4,15,E7_Q7_ansL.png,left,NA,NA,NA,left,901,true,NA,NA,NA,NA,NA
7e1pGXNG,NA,NA,7e1pGXNG,2020-0188,2021-11-15,20:11:00,21:05:06,NA,incomplete,false,true,NA,4,16,E7_Q6_ansR.png,right,NA,NA,NA,right,1042,true,NA,NA,NA,NA,NA
7e1pGXNG,NA,NA,7e1pGXNG,2020-0188,2021-11-15,20:11:00,21:05:06,NA,incomplete,false,true,NA,4,17,E7_Q10_ansR.png,right,NA,NA,NA,right,1932,true,NA,NA,NA,NA,NA
7e1pGXNG,NA,NA,7e1pGXNG,2020-0188,2021-11-15,20:11:00,21:05:06,NA,incomplete,false,true,NA,4,18,E7_Q3_ansR.png,right,NA,NA,NA,right,1037,true,NA,NA,NA,NA,NA
7e1pGXNG,NA,NA,7e1pGXNG,2020-0188,2021-11-15,20:11:00,21:05:06,NA,incomplete,false,true,NA,4,19,E7_Q1_ansL.png,left,NA,NA,NA,left,765,true,NA,NA,NA,NA,NA
7e1pGXNG,NA,NA,7e1pGXNG,2020-0188,2021-11-15,20:11:00,21:05:06,NA,incomplete,false,true,NA,4,20,E2_Q6_ansL.png,left,NA,NA,NA,left,1784,true,NA,NA,NA,NA,NA
7e1pGXNG,NA,NA,7e1pGXNG,2020-0188,2021-11-15,20:11:00,21:05:06,NA,incomplete,false,true,NA,4,21,E2_Q5_ansL.png,left,NA,NA,NA,left,899,true,NA,NA,NA,NA,NA
7e1pGXNG,NA,NA,7e1pGXNG,2020-0188,2021-11-15,20:11:00,21:05:06,NA,incomplete,false,true,NA,4,22,E2_Q1_ansL.png,left,NA,NA,NA,left,819,true,NA,NA,NA,NA,NA
7e1pGXNG,NA,NA,7e1pGXNG,2020-0188,2021-11-15,20:11:00,21:05:06,NA,incomplete,false,true,NA,4,23,E2_Q7_ansR.png,right,NA,NA,NA,right,1140,true,NA,NA,NA,NA,NA
7e1pGXNG,NA,NA,7e1pGXNG,2020-0188,2021-11-15,20:11:00,21:05:06,NA,incomplete,false,true,NA,4,24,E2_Q2_ansR.png,right,NA,NA,NA,right,1309,true,NA,NA,NA,NA,NA
7e1pGXNG,NA,NA,7e1pGXNG,2020-0188,2021-11-15,20:11:00,21:05:06,NA,incomplete,false,true,NA,4,25,E2_Q3_ansR.png,right,NA,NA,NA,right,1282,true,NA,NA,NA,NA,NA
7e1pGXNG,NA,NA,7e1pGXNG,2020-0188,2021-11-15,20:11:00,21:05:06,NA,incomplete,false,true,NA,4,26,E2_Q9_ansL.png,left,NA,NA,NA,left,1024,true,NA,NA,NA,NA,NA
7e1pGXNG,NA,NA,7e1pGXNG,2020-0188,2021-11-15,20:11:00,21:05:06,NA,incomplete,false,true,NA,4,27,E2_Q4_ansL.png,left,NA,NA,NA,left,853,true,NA,NA,NA,NA,NA
7e1pGXNG,NA,NA,7e1pGXNG,2020-0188,2021-11-15,20:11:00,21:05:06,NA,incomplete,false,true,NA,4,28,E2_Q10_ansL.png,left,NA,NA,NA,left,1110,true,NA,NA,NA,NA,NA
7e1pGXNG,NA,NA,7e1pGXNG,2020-0188,2021-11-15,20:11:00,21:05:06,NA,incomplete,false,true,NA,4,29,E2_Q8_ansR.png,right,NA,NA,NA,right,1858,true,NA,NA,NA,NA,NA
7e1pGXNG,NA,NA,7e1pGXNG,2020-0188,2021-11-15,20:11:00,21:05:06,NA,incomplete,false,NA,true,4,0,NA,right,E2_Q4_ansL.png,E2_Q2_ansR.png,within,NA,NaN,NA,right,3650,1,0,1240
7e1pGXNG,NA,NA,7e1pGXNG,2020-0188,2021-11-15,20:11:00,21:05:06,NA,incomplete,false,NA,true,4,1,NA,left,E15_Q6_ansR.png,E15_Q5_ansR.png,within,NA,NaN,NA,left,901,1,0,767
7e1pGXNG,NA,NA,7e1pGXNG,2020-0188,2021-11-15,20:11:00,21:05:06,NA,incomplete,false,NA,true,4,2,NA,left,E7_Q2_ansL.png,E7_Q6_ansR.png,within,NA,NaN,NA,right,1672,0,0,1231
7e1pGXNG,NA,NA,7e1pGXNG,2020-0188,2021-11-15,20:11:00,21:05:06,NA,incomplete,false,NA,true,4,3,NA,left,E7_Q5_ansR.png,E7_Q10_ansR.png,within,NA,NaN,NA,left,2090,1,0,1762
7e1pGXNG,NA,NA,7e1pGXNG,2020-0188,2021-11-15,20:11:00,21:05:06,NA,incomplete,false,NA,true,4,4,NA,left,E7_Q8_ansL.png,E7_Q2_ansL.png,within,NA,NaN,NA,left,1262,1,1,1016
7e1pGXNG,NA,NA,7e1pGXNG,2020-0188,2021-11-15,20:11:00,21:05:06,NA,incomplete,false,NA,true,4,5,NA,left,E15_Q3_ansR.png,E15_Q6_ansR.png,within,NA,NaN,NA,right,1085,0,1,974
7e1pGXNG,NA,NA,7e1pGXNG,2020-0188,2021-11-15,20:11:00,21:05:06,NA,incomplete,false,NA,true,4,6,NA,right,E2_Q5_ansL.png,E7_Q3_ansR.png,between,NA,NaN,NA,right,2587,1,0,1002
7e1pGXNG,NA,NA,7e1pGXNG,2020-0188,2021-11-15,20:11:00,21:05:06,NA,incomplete,false,NA,true,4,7,NA,right,E15_Q9_ansR.png,E15_Q4_ansR.png,within,NA,NaN,NA,left,1299,0,0,1775
7e1pGXNG,NA,NA,7e1pGXNG,2020-0188,2021-11-15,20:11:00,21:05:06,NA,incomplete,false,NA,true,4,8,NA,right,E2_Q7_ansR.png,E2_Q6_ansL.png,within,NA,NaN,NA,right,1077,1,1,1206
7e1pGXNG,NA,NA,7e1pGXNG,2020-0188,2021-11-15,20:11:00,21:05:06,NA,incomplete,false,NA,true,4,9,NA,left,E2_Q9_ansL.png,E2_Q8_ansR.png,within,NA,NaN,NA,right,1296,0,1,1162
7e1pGXNG,NA,NA,7e1pGXNG,2020-0188,2021-11-15,20:11:00,21:05:06,NA,incomplete,false,NA,true,4,10,NA,left,E7_Q9_ansR.png,E7_Q7_ansL.png,within,NA,NaN,NA,left,1309,1,0,1885
7e1pGXNG,NA,NA,7e1pGXNG,2020-0188,2021-11-15,20:11:00,21:05:06,NA,incomplete,false,NA,true,4,11,NA,left,E15_Q5_ansR.png,E7_Q9_ansR.png,between,NA,NaN,NA,left,1007,1,3,1050
7e1pGXNG,NA,NA,7e1pGXNG,2020-0188,2021-11-15,20:11:00,21:05:06,NA,incomplete,false,NA,true,4,12,NA,left,E15_Q1_ansL.png,E15_Q7_ansL.png,within,NA,NaN,NA,right,1254,0,1,1082
7e1pGXNG,NA,NA,7e1pGXNG,2020-0188,2021-11-15,20:11:00,21:05:06,NA,incomplete,false,NA,true,4,13,NA,right,E7_Q3_ansR.png,E7_Q7_ansL.png,within,NA,NaN,NA,left,2581,0,1,1353
7e1pGXNG,NA,NA,7e1pGXNG,2020-0188,2021-11-15,20:11:00,21:05:06,NA,incomplete,false,NA,true,4,14,NA,left,E15_Q9_ansR.png,E15_Q8_ansL.png,within,NA,NaN,NA,right,1635,0,0,1463
7e1pGXNG,NA,NA,7e1pGXNG,2020-0188,2021-11-15,20:11:00,21:05:06,NA,incomplete,false,NA,true,4,15,NA,right,E7_Q1_ansL.png,E7_Q6_ansR.png,within,NA,NaN,NA,right,1907,1,1,1589
7e1pGXNG,NA,NA,7e1pGXNG,2020-0188,2021-11-15,20:11:00,21:05:06,NA,incomplete,false,NA,true,4,16,NA,right,E2_Q6_ansL.png,E7_Q10_ansR.png,between,NA,NaN,NA,right,3536,1,1,1306
7e1pGXNG,NA,NA,7e1pGXNG,2020-0188,2021-11-15,20:11:00,21:05:06,NA,incomplete,false,NA,true,4,17,NA,right,E2_Q3_ansR.png,E2_Q1_ansL.png,within,NA,NaN,NA,right,1841,1,0,1200
7e1pGXNG,NA,NA,7e1pGXNG,2020-0188,2021-11-15,20:11:00,21:05:06,NA,incomplete,false,NA,true,4,18,NA,left,E7_Q4_ansR.png,E7_Q5_ansR.png,within,NA,NaN,NA,left,2572,1,1,1261
7e1pGXNG,NA,NA,7e1pGXNG,2020-0188,2021-11-15,20:11:00,21:05:06,NA,incomplete,false,NA,true,4,19,NA,right,E15_Q10_ansL.png,E15_Q7_ansL.png,within,NA,NaN,NA,right,1968,1,0,1951
7e1pGXNG,NA,NA,7e1pGXNG,2020-0188,2021-11-15,20:11:00,21:05:06,NA,incomplete,false,NA,true,4,20,NA,right,E2_Q2_ansR.png,E2_Q5_ansL.png,within,NA,NaN,NA,right,1318,1,0,1261
7e1pGXNG,NA,NA,7e1pGXNG,2020-0188,2021-11-15,20:11:00,21:05:06,NA,incomplete,false,NA,true,4,21,NA,right,E2_Q10_ansL.png,E2_Q3_ansR.png,within,NA,NaN,NA,right,1376,1,1,988
7e1pGXNG,NA,NA,7e1pGXNG,2020-0188,2021-11-15,20:11:00,21:05:06,NA,incomplete,false,NA,true,4,22,NA,left,E7_Q1_ansL.png,E2_Q1_ansL.png,between,NA,NaN,NA,right,806,0,1,1149
7e1pGXNG,NA,NA,7e1pGXNG,2020-0188,2021-11-15,20:11:00,21:05:06,NA,incomplete,false,NA,true,4,23,NA,right,E15_Q3_ansR.png,E15_Q2_ansL.png,within,NA,NaN,NA,right,1133,1,1,778
7e1pGXNG,NA,NA,7e1pGXNG,2020-0188,2021-11-15,20:11:00,21:05:06,NA,incomplete,false,NA,true,4,24,NA,right,E7_Q4_ansR.png,E15_Q10_ansL.png,between,NA,NaN,NA,right,2561,1,2,1389
7e1pGXNG,NA,NA,7e1pGXNG,2020-0188,2021-11-15,20:11:00,21:05:06,NA,incomplete,false,NA,true,4,25,NA,right,E2_Q9_ansL.png,E2_Q7_ansR.png,within,NA,NaN,NA,right,2192,1,0,811
7e1pGXNG,NA,NA,7e1pGXNG,2020-0188,2021-11-15,20:11:00,21:05:06,NA,incomplete,false,NA,true,4,26,NA,right,E7_Q8_ansL.png,E15_Q8_ansL.png,between,NA,NaN,NA,right,1259,1,3,882
7e1pGXNG,NA,NA,7e1pGXNG,2020-0188,2021-11-15,20:11:00,21:05:06,NA,incomplete,false,true,NA,5,0,E9_Q9_ansL.png,left,NA,NA,NA,left,1444,true,NA,NA,NA,NA,NA
7e1pGXNG,NA,NA,7e1pGXNG,2020-0188,2021-11-15,20:11:00,21:05:06,NA,incomplete,false,true,NA,5,1,E9_Q10_ansR.png,right,NA,NA,NA,right,1294,true,NA,NA,NA,NA,NA
7e1pGXNG,NA,NA,7e1pGXNG,2020-0188,2021-11-15,20:11:00,21:05:06,NA,incomplete,false,true,NA,5,2,E9_Q6_ansL.png,left,NA,NA,NA,left,1901,true,NA,NA,NA,NA,NA
7e1pGXNG,NA,NA,7e1pGXNG,2020-0188,2021-11-15,20:11:00,21:05:06,NA,incomplete,false,true,NA,5,3,E9_Q5_ansL.png,left,NA,NA,NA,left,1062,true,NA,NA,NA,NA,NA
7e1pGXNG,NA,NA,7e1pGXNG,2020-0188,2021-11-15,20:11:00,21:05:06,NA,incomplete,false,true,NA,5,4,E9_Q1_ansR.png,right,NA,NA,NA,right,1376,true,NA,NA,NA,NA,NA
7e1pGXNG,NA,NA,7e1pGXNG,2020-0188,2021-11-15,20:11:00,21:05:06,NA,incomplete,false,true,NA,5,5,E9_Q4_ansL.png,left,NA,NA,NA,left,1008,true,NA,NA,NA,NA,NA
7e1pGXNG,NA,NA,7e1pGXNG,2020-0188,2021-11-15,20:11:00,21:05:06,NA,incomplete,false,true,NA,5,6,E9_Q2_ansR.png,right,NA,NA,NA,right,1196,true,NA,NA,NA,NA,NA
7e1pGXNG,NA,NA,7e1pGXNG,2020-0188,2021-11-15,20:11:00,21:05:06,NA,incomplete,false,true,NA,5,7,E9_Q7_ansR.png,right,NA,NA,NA,right,1090,true,NA,NA,NA,NA,NA
7e1pGXNG,NA,NA,7e1pGXNG,2020-0188,2021-11-15,20:11:00,21:05:06,NA,incomplete,false,true,NA,5,8,E9_Q3_ansL.png,left,NA,NA,NA,left,905,true,NA,NA,NA,NA,NA
7e1pGXNG,NA,NA,7e1pGXNG,2020-0188,2021-11-15,20:11:00,21:05:06,NA,incomplete,false,true,NA,5,9,E9_Q8_ansR.png,right,NA,NA,NA,left,1202,false,NA,NA,NA,NA,NA
7e1pGXNG,NA,NA,7e1pGXNG,2020-0188,2021-11-15,20:11:00,21:05:06,NA,incomplete,false,true,NA,5,10,E12_Q2_ansL.png,left,NA,NA,NA,left,1911,true,NA,NA,NA,NA,NA
7e1pGXNG,NA,NA,7e1pGXNG,2020-0188,2021-11-15,20:11:00,21:05:06,NA,incomplete,false,true,NA,5,11,E12_Q9_ansR.png,right,NA,NA,NA,right,1202,true,NA,NA,NA,NA,NA
7e1pGXNG,NA,NA,7e1pGXNG,2020-0188,2021-11-15,20:11:00,21:05:06,NA,incomplete,false,true,NA,5,12,E12_Q8_ansL.png,left,NA,NA,NA,left,1319,true,NA,NA,NA,NA,NA
7e1pGXNG,NA,NA,7e1pGXNG,2020-0188,2021-11-15,20:11:00,21:05:06,NA,incomplete,false,true,NA,5,13,E12_Q1_ansL.png,left,NA,NA,NA,left,1802,true,NA,NA,NA,NA,NA
7e1pGXNG,NA,NA,7e1pGXNG,2020-0188,2021-11-15,20:11:00,21:05:06,NA,incomplete,false,true,NA,5,14,E12_Q5_ansR.png,right,NA,NA,NA,right,1229,true,NA,NA,NA,NA,NA
7e1pGXNG,NA,NA,7e1pGXNG,2020-0188,2021-11-15,20:11:00,21:05:06,NA,incomplete,false,true,NA,5,15,E12_Q4_ansR.png,right,NA,NA,NA,right,1824,true,NA,NA,NA,NA,NA
7e1pGXNG,NA,NA,7e1pGXNG,2020-0188,2021-11-15,20:11:00,21:05:06,NA,incomplete,false,true,NA,5,16,E12_Q6_ansR.png,right,NA,NA,NA,right,1594,true,NA,NA,NA,NA,NA
7e1pGXNG,NA,NA,7e1pGXNG,2020-0188,2021-11-15,20:11:00,21:05:06,NA,incomplete,false,true,NA,5,17,E12_Q7_ansL.png,left,NA,NA,NA,left,1411,true,NA,NA,NA,NA,NA
7e1pGXNG,NA,NA,7e1pGXNG,2020-0188,2021-11-15,20:11:00,21:05:06,NA,incomplete,false,true,NA,5,18,E12_Q10_ansL.png,left,NA,NA,NA,left,1022,true,NA,NA,NA,NA,NA
7e1pGXNG,NA,NA,7e1pGXNG,2020-0188,2021-11-15,20:11:00,21:05:06,NA,incomplete,false,true,NA,5,19,E12_Q3_ansR.png,right,NA,NA,NA,right,1039,true,NA,NA,NA,NA,NA
7e1pGXNG,NA,NA,7e1pGXNG,2020-0188,2021-11-15,20:11:00,21:05:06,NA,incomplete,false,true,NA,5,20,E28_Q5_ansL.png,left,NA,NA,NA,left,1843,true,NA,NA,NA,NA,NA
7e1pGXNG,NA,NA,7e1pGXNG,2020-0188,2021-11-15,20:11:00,21:05:06,NA,incomplete,false,true,NA,5,21,E28_Q9_ansL.png,left,NA,NA,NA,right,1740,false,NA,NA,NA,NA,NA
7e1pGXNG,NA,NA,7e1pGXNG,2020-0188,2021-11-15,20:11:00,21:05:06,NA,incomplete,false,true,NA,5,22,E28_Q4_ansL.png,left,NA,NA,NA,left,2673,true,NA,NA,NA,NA,NA
7e1pGXNG,NA,NA,7e1pGXNG,2020-0188,2021-11-15,20:11:00,21:05:06,NA,incomplete,false,true,NA,5,23,E28_Q3_ansL.png,left,NA,NA,NA,left,1705,true,NA,NA,NA,NA,NA
7e1pGXNG,NA,NA,7e1pGXNG,2020-0188,2021-11-15,20:11:00,21:05:06,NA,incomplete,false,true,NA,5,24,E28_Q8_ansR.png,right,NA,NA,NA,right,2527,true,NA,NA,NA,NA,NA
7e1pGXNG,NA,NA,7e1pGXNG,2020-0188,2021-11-15,20:11:00,21:05:06,NA,incomplete,false,true,NA,5,25,E28_Q6_ansL.png,left,NA,NA,NA,left,1199,true,NA,NA,NA,NA,NA
7e1pGXNG,NA,NA,7e1pGXNG,2020-0188,2021-11-15,20:11:00,21:05:06,NA,incomplete,false,true,NA,5,26,E28_Q1_ansR.png,right,NA,NA,NA,right,1440,true,NA,NA,NA,NA,NA
7e1pGXNG,NA,NA,7e1pGXNG,2020-0188,2021-11-15,20:11:00,21:05:06,NA,incomplete,false,true,NA,5,27,E28_Q7_ansR.png,right,NA,NA,NA,right,2150,true,NA,NA,NA,NA,NA
7e1pGXNG,NA,NA,7e1pGXNG,2020-0188,2021-11-15,20:11:00,21:05:06,NA,incomplete,false,true,NA,5,28,E28_Q2_ansR.png,right,NA,NA,NA,right,1287,true,NA,NA,NA,NA,NA
7e1pGXNG,NA,NA,7e1pGXNG,2020-0188,2021-11-15,20:11:00,21:05:06,NA,incomplete,false,true,NA,5,29,E28_Q10_ansR.png,right,NA,NA,NA,right,1472,true,NA,NA,NA,NA,NA
7e1pGXNG,NA,NA,7e1pGXNG,2020-0188,2021-11-15,20:11:00,21:05:06,NA,incomplete,false,NA,true,5,0,NA,left,E12_Q1_ansL.png,E12_Q6_ansR.png,within,NA,NaN,NA,left,4128,1,0,1282
7e1pGXNG,NA,NA,7e1pGXNG,2020-0188,2021-11-15,20:11:00,21:05:06,NA,incomplete,false,NA,true,5,1,NA,left,E12_Q2_ansL.png,E12_Q1_ansL.png,within,NA,NaN,NA,left,1319,1,1,3203
7e1pGXNG,NA,NA,7e1pGXNG,2020-0188,2021-11-15,20:11:00,21:05:06,NA,incomplete,false,NA,true,5,2,NA,right,E9_Q4_ansL.png,E9_Q6_ansL.png,within,NA,NaN,NA,right,1628,1,1,1654
7e1pGXNG,NA,NA,7e1pGXNG,2020-0188,2021-11-15,20:11:00,21:05:06,NA,incomplete,false,NA,true,5,3,NA,left,E9_Q4_ansL.png,E9_Q3_ansL.png,within,NA,NaN,NA,right,1278,0,1,1217
7e1pGXNG,NA,NA,7e1pGXNG,2020-0188,2021-11-15,20:11:00,21:05:06,NA,incomplete,false,NA,true,5,4,NA,left,E9_Q10_ansR.png,E9_Q1_ansR.png,within,NA,NaN,NA,left,2843,1,1,1638
7e1pGXNG,NA,NA,7e1pGXNG,2020-0188,2021-11-15,20:11:00,21:05:06,NA,incomplete,false,NA,true,5,5,NA,left,E9_Q5_ansL.png,E9_Q2_ansR.png,within,NA,NaN,NA,left,2583,1,1,1998
7e1pGXNG,NA,NA,7e1pGXNG,2020-0188,2021-11-15,20:11:00,21:05:06,NA,incomplete,false,NA,true,5,6,NA,left,E9_Q3_ansL.png,E12_Q9_ansR.png,between,NA,NaN,NA,left,4769,1,2,1315
7e1pGXNG,NA,NA,7e1pGXNG,2020-0188,2021-11-15,20:11:00,21:05:06,NA,incomplete,false,NA,true,5,7,NA,left,E9_Q1_ansR.png,E9_Q7_ansR.png,within,NA,NaN,NA,right,2250,0,1,1398
7e1pGXNG,NA,NA,7e1pGXNG,2020-0188,2021-11-15,20:11:00,21:05:06,NA,incomplete,false,NA,true,5,8,NA,right,E12_Q3_ansR.png,E12_Q6_ansR.png,within,NA,NaN,NA,left,1882,0,1,1161
7e1pGXNG,NA,NA,7e1pGXNG,2020-0188,2021-11-15,20:11:00,21:05:06,NA,incomplete,false,NA,true,5,9,NA,left,E12_Q3_ansR.png,E28_Q4_ansL.png,between,NA,NaN,NA,left,2255,1,2,2815
7e1pGXNG,NA,NA,7e1pGXNG,2020-0188,2021-11-15,20:11:00,21:05:06,NA,incomplete,false,NA,true,5,10,NA,left,E9_Q7_ansR.png,E12_Q2_ansL.png,between,NA,NaN,NA,left,3436,1,2,1050
7e1pGXNG,NA,NA,7e1pGXNG,2020-0188,2021-11-15,20:11:00,21:05:06,NA,incomplete,false,NA,true,5,11,NA,right,E28_Q5_ansL.png,E12_Q7_ansL.png,between,NA,NaN,NA,right,2174,1,2,8073
7e1pGXNG,NA,NA,7e1pGXNG,2020-0188,2021-11-15,20:11:00,21:05:06,NA,incomplete,false,NA,true,5,12,NA,right,E12_Q8_ansL.png,E9_Q8_ansR.png,between,NA,NaN,NA,right,1937,1,2,3387
7e1pGXNG,NA,NA,7e1pGXNG,2020-0188,2021-11-15,20:11:00,21:05:06,NA,incomplete,false,NA,true,5,13,NA,right,E28_Q7_ansR.png,E28_Q8_ansR.png,within,NA,NaN,NA,right,1845,1,0,2129
7e1pGXNG,NA,NA,7e1pGXNG,2020-0188,2021-11-15,20:11:00,21:05:06,NA,incomplete,false,NA,true,5,14,NA,right,E9_Q5_ansL.png,E9_Q9_ansL.png,within,NA,NaN,NA,right,3419,1,1,4190
7e1pGXNG,NA,NA,7e1pGXNG,2020-0188,2021-11-15,20:11:00,21:05:06,NA,incomplete,false,NA,true,5,15,NA,right,E12_Q7_ansL.png,E12_Q5_ansR.png,within,NA,NaN,NA,right,4087,1,0,1348
7e1pGXNG,NA,NA,7e1pGXNG,2020-0188,2021-11-15,20:11:00,21:05:06,NA,incomplete,false,NA,true,5,16,NA,left,E12_Q10_ansL.png,E28_Q9_ansL.png,between,NA,NaN,NA,left,2858,1,0,5291
7e1pGXNG,NA,NA,7e1pGXNG,2020-0188,2021-11-15,20:11:00,21:05:06,NA,incomplete,false,NA,true,5,17,NA,right,E28_Q8_ansR.png,E28_Q9_ansL.png,within,NA,NaN,NA,right,2852,1,0,2026
7e1pGXNG,NA,NA,7e1pGXNG,2020-0188,2021-11-15,20:11:00,21:05:06,NA,incomplete,false,NA,true,5,18,NA,left,E28_Q3_ansL.png,E28_Q1_ansR.png,within,NA,NaN,NA,right,1391,0,0,1355
7e1pGXNG,NA,NA,7e1pGXNG,2020-0188,2021-11-15,20:11:00,21:05:06,NA,incomplete,false,NA,true,5,19,NA,left,E28_Q4_ansL.png,E28_Q6_ansL.png,within,NA,NaN,NA,right,1382,0,1,1804
7e1pGXNG,NA,NA,7e1pGXNG,2020-0188,2021-11-15,20:11:00,21:05:06,NA,incomplete,false,NA,true,5,20,NA,left,E28_Q1_ansR.png,E28_Q10_ansR.png,within,NA,NaN,NA,right,1804,0,1,1217
7e1pGXNG,NA,NA,7e1pGXNG,2020-0188,2021-11-15,20:11:00,21:05:06,NA,incomplete,false,NA,true,5,21,NA,left,E9_Q2_ansR.png,E9_Q8_ansR.png,within,NA,NaN,NA,right,3209,0,0,1592
7e1pGXNG,NA,NA,7e1pGXNG,2020-0188,2021-11-15,20:11:00,21:05:06,NA,incomplete,false,NA,true,5,22,NA,left,E28_Q5_ansL.png,E28_Q3_ansL.png,within,NA,NaN,NA,left,1914,1,1,1652
7e1pGXNG,NA,NA,7e1pGXNG,2020-0188,2021-11-15,20:11:00,21:05:06,NA,incomplete,false,NA,true,5,23,NA,left,E28_Q6_ansL.png,E28_Q2_ansR.png,within,NA,NaN,NA,right,1255,0,1,1095
7e1pGXNG,NA,NA,7e1pGXNG,2020-0188,2021-11-15,20:11:00,21:05:06,NA,incomplete,false,NA,true,5,24,NA,right,E12_Q5_ansR.png,E12_Q9_ansR.png,within,NA,NaN,NA,right,1849,1,1,2312
7e1pGXNG,NA,NA,7e1pGXNG,2020-0188,2021-11-15,20:11:00,21:05:06,NA,incomplete,false,NA,true,5,25,NA,left,E12_Q8_ansL.png,E12_Q4_ansR.png,within,NA,NaN,NA,right,2052,0,1,3194
7e1pGXNG,NA,NA,7e1pGXNG,2020-0188,2021-11-15,20:11:00,21:05:06,NA,incomplete,false,NA,true,5,26,NA,left,E12_Q4_ansR.png,E12_Q10_ansL.png,within,NA,NaN,NA,right,1916,0,1,1542
7e1pGXNG,NA,NA,7e1pGXNG,2020-0188,2021-11-15,20:11:00,21:05:06,NA,incomplete,false,true,NA,6,0,E5_Q2_ansL.png,left,NA,NA,NA,none,0,false,NA,NA,NA,NA,NA
7e1pGXNG,NA,NA,7e1pGXNG,2020-0188,2021-11-15,20:11:00,21:05:06,NA,incomplete,false,true,NA,6,1,E5_Q6_ansR.png,right,NA,NA,NA,right,1155,true,NA,NA,NA,NA,NA
7e1pGXNG,NA,NA,7e1pGXNG,2020-0188,2021-11-15,20:11:00,21:05:06,NA,incomplete,false,true,NA,6,2,E5_Q1_ansL.png,left,NA,NA,NA,left,930,true,NA,NA,NA,NA,NA
7e1pGXNG,NA,NA,7e1pGXNG,2020-0188,2021-11-15,20:11:00,21:05:06,NA,incomplete,false,true,NA,6,3,E5_Q7_ansL.png,left,NA,NA,NA,left,1130,true,NA,NA,NA,NA,NA
7e1pGXNG,NA,NA,7e1pGXNG,2020-0188,2021-11-15,20:11:00,21:05:06,NA,incomplete,false,true,NA,6,4,E5_Q4_ansR.png,right,NA,NA,NA,right,906,true,NA,NA,NA,NA,NA
7e1pGXNG,NA,NA,7e1pGXNG,2020-0188,2021-11-15,20:11:00,21:05:06,NA,incomplete,false,true,NA,6,5,E5_Q10_ansR.png,right,NA,NA,NA,right,1293,true,NA,NA,NA,NA,NA
7e1pGXNG,NA,NA,7e1pGXNG,2020-0188,2021-11-15,20:11:00,21:05:06,NA,incomplete,false,true,NA,6,6,E5_Q3_ansR.png,right,NA,NA,NA,right,1242,true,NA,NA,NA,NA,NA
7e1pGXNG,NA,NA,7e1pGXNG,2020-0188,2021-11-15,20:11:00,21:05:06,NA,incomplete,false,true,NA,6,7,E5_Q8_ansL.png,left,NA,NA,NA,left,909,true,NA,NA,NA,NA,NA
7e1pGXNG,NA,NA,7e1pGXNG,2020-0188,2021-11-15,20:11:00,21:05:06,NA,incomplete,false,true,NA,6,8,E5_Q9_ansR.png,right,NA,NA,NA,right,1330,true,NA,NA,NA,NA,NA
7e1pGXNG,NA,NA,7e1pGXNG,2020-0188,2021-11-15,20:11:00,21:05:06,NA,incomplete,false,true,NA,6,9,E5_Q5_ansR.png,right,NA,NA,NA,right,1071,true,NA,NA,NA,NA,NA
7e1pGXNG,NA,NA,7e1pGXNG,2020-0188,2021-11-15,20:11:00,21:05:06,NA,incomplete,false,true,NA,6,10,E6_Q1_ansL.png,left,NA,NA,NA,left,1754,true,NA,NA,NA,NA,NA
7e1pGXNG,NA,NA,7e1pGXNG,2020-0188,2021-11-15,20:11:00,21:05:06,NA,incomplete,false,true,NA,6,11,E6_Q9_ansL.png,left,NA,NA,NA,left,1344,true,NA,NA,NA,NA,NA
7e1pGXNG,NA,NA,7e1pGXNG,2020-0188,2021-11-15,20:11:00,21:05:06,NA,incomplete,false,true,NA,6,12,E6_Q3_ansR.png,right,NA,NA,NA,right,1308,true,NA,NA,NA,NA,NA
7e1pGXNG,NA,NA,7e1pGXNG,2020-0188,2021-11-15,20:11:00,21:05:06,NA,incomplete,false,true,NA,6,13,E6_Q8_ansL.png,left,NA,NA,NA,left,2581,true,NA,NA,NA,NA,NA
7e1pGXNG,NA,NA,7e1pGXNG,2020-0188,2021-11-15,20:11:00,21:05:06,NA,incomplete,false,true,NA,6,14,E6_Q4_ansR.png,right,NA,NA,NA,right,1228,true,NA,NA,NA,NA,NA
7e1pGXNG,NA,NA,7e1pGXNG,2020-0188,2021-11-15,20:11:00,21:05:06,NA,incomplete,false,true,NA,6,15,E6_Q6_ansR.png,right,NA,NA,NA,right,1174,true,NA,NA,NA,NA,NA
7e1pGXNG,NA,NA,7e1pGXNG,2020-0188,2021-11-15,20:11:00,21:05:06,NA,incomplete,false,true,NA,6,16,E6_Q2_ansL.png,left,NA,NA,NA,left,850,true,NA,NA,NA,NA,NA
7e1pGXNG,NA,NA,7e1pGXNG,2020-0188,2021-11-15,20:11:00,21:05:06,NA,incomplete,false,true,NA,6,17,E6_Q7_ansL.png,left,NA,NA,NA,left,918,true,NA,NA,NA,NA,NA
7e1pGXNG,NA,NA,7e1pGXNG,2020-0188,2021-11-15,20:11:00,21:05:06,NA,incomplete,false,true,NA,6,18,E6_Q5_ansR.png,right,NA,NA,NA,right,1275,true,NA,NA,NA,NA,NA
7e1pGXNG,NA,NA,7e1pGXNG,2020-0188,2021-11-15,20:11:00,21:05:06,NA,incomplete,false,true,NA,6,19,E6_Q10_ansL.png,left,NA,NA,NA,left,1547,true,NA,NA,NA,NA,NA
7e1pGXNG,NA,NA,7e1pGXNG,2020-0188,2021-11-15,20:11:00,21:05:06,NA,incomplete,false,true,NA,6,20,E31_Q1_ansR.png,right,NA,NA,NA,right,1443,true,NA,NA,NA,NA,NA
7e1pGXNG,NA,NA,7e1pGXNG,2020-0188,2021-11-15,20:11:00,21:05:06,NA,incomplete,false,true,NA,6,21,E31_Q10_ansR.png,right,NA,NA,NA,right,1440,true,NA,NA,NA,NA,NA
7e1pGXNG,NA,NA,7e1pGXNG,2020-0188,2021-11-15,20:11:00,21:05:06,NA,incomplete,false,true,NA,6,22,E31_Q4_ansL.png,left,NA,NA,NA,left,925,true,NA,NA,NA,NA,NA
7e1pGXNG,NA,NA,7e1pGXNG,2020-0188,2021-11-15,20:11:00,21:05:06,NA,incomplete,false,true,NA,6,23,E31_Q5_ansL.png,left,NA,NA,NA,left,999,true,NA,NA,NA,NA,NA
7e1pGXNG,NA,NA,7e1pGXNG,2020-0188,2021-11-15,20:11:00,21:05:06,NA,incomplete,false,true,NA,6,24,E31_Q2_ansR.png,right,NA,NA,NA,right,1312,true,NA,NA,NA,NA,NA
7e1pGXNG,NA,NA,7e1pGXNG,2020-0188,2021-11-15,20:11:00,21:05:06,NA,incomplete,false,true,NA,6,25,E31_Q7_ansR.png,right,NA,NA,NA,right,2066,true,NA,NA,NA,NA,NA
7e1pGXNG,NA,NA,7e1pGXNG,2020-0188,2021-11-15,20:11:00,21:05:06,NA,incomplete,false,true,NA,6,26,E31_Q8_ansR.png,right,NA,NA,NA,right,1197,true,NA,NA,NA,NA,NA
7e1pGXNG,NA,NA,7e1pGXNG,2020-0188,2021-11-15,20:11:00,21:05:06,NA,incomplete,false,true,NA,6,27,E31_Q9_ansL.png,left,NA,NA,NA,left,963,true,NA,NA,NA,NA,NA
7e1pGXNG,NA,NA,7e1pGXNG,2020-0188,2021-11-15,20:11:00,21:05:06,NA,incomplete,false,true,NA,6,28,E31_Q3_ansL.png,left,NA,NA,NA,left,946,true,NA,NA,NA,NA,NA
7e1pGXNG,NA,NA,7e1pGXNG,2020-0188,2021-11-15,20:11:00,21:05:06,NA,incomplete,false,true,NA,6,29,E31_Q6_ansL.png,left,NA,NA,NA,left,901,true,NA,NA,NA,NA,NA
7e1pGXNG,NA,NA,7e1pGXNG,2020-0188,2021-11-15,20:11:00,21:05:06,NA,incomplete,false,NA,true,6,0,NA,right,E31_Q9_ansL.png,E31_Q2_ansR.png,within,NA,NaN,NA,right,2953,1,1,1973
7e1pGXNG,NA,NA,7e1pGXNG,2020-0188,2021-11-15,20:11:00,21:05:06,NA,incomplete,false,NA,true,6,1,NA,right,E5_Q3_ansR.png,E5_Q7_ansL.png,within,NA,NaN,NA,right,2702,1,1,1734
7e1pGXNG,NA,NA,7e1pGXNG,2020-0188,2021-11-15,20:11:00,21:05:06,NA,incomplete,false,NA,true,6,2,NA,right,E6_Q2_ansL.png,E6_Q8_ansL.png,within,NA,NaN,NA,right,2550,1,1,1628
7e1pGXNG,NA,NA,7e1pGXNG,2020-0188,2021-11-15,20:11:00,21:05:06,NA,incomplete,false,NA,true,6,3,NA,left,E5_Q2_ansL.png,E5_Q7_ansL.png,within,NA,NaN,NA,right,2893,0,1,1244
7e1pGXNG,NA,NA,7e1pGXNG,2020-0188,2021-11-15,20:11:00,21:05:06,NA,incomplete,false,NA,true,6,4,NA,left,E6_Q1_ansL.png,E6_Q8_ansL.png,within,NA,NaN,NA,left,1781,1,1,2403
7e1pGXNG,NA,NA,7e1pGXNG,2020-0188,2021-11-15,20:11:00,21:05:06,NA,incomplete,false,NA,true,6,5,NA,right,E6_Q3_ansR.png,E5_Q5_ansR.png,between,NA,NaN,NA,right,3088,1,2,2406
7e1pGXNG,NA,NA,7e1pGXNG,2020-0188,2021-11-15,20:11:00,21:05:06,NA,incomplete,false,NA,true,6,6,NA,left,E5_Q6_ansR.png,E5_Q4_ansR.png,within,NA,NaN,NA,left,2427,1,0,1798
7e1pGXNG,NA,NA,7e1pGXNG,2020-0188,2021-11-15,20:11:00,21:05:06,NA,incomplete,false,NA,true,6,7,NA,left,E6_Q6_ansR.png,E6_Q5_ansR.png,within,NA,NaN,NA,left,2313,1,1,2715
7e1pGXNG,NA,NA,7e1pGXNG,2020-0188,2021-11-15,20:11:00,21:05:06,NA,incomplete,false,NA,true,6,8,NA,right,E5_Q10_ansR.png,E5_Q1_ansL.png,within,NA,NaN,NA,right,1561,1,1,831
7e1pGXNG,NA,NA,7e1pGXNG,2020-0188,2021-11-15,20:11:00,21:05:06,NA,incomplete,false,NA,true,6,9,NA,right,E6_Q9_ansL.png,E5_Q9_ansR.png,between,NA,NaN,NA,right,1604,1,3,846
7e1pGXNG,NA,NA,7e1pGXNG,2020-0188,2021-11-15,20:11:00,21:05:06,NA,incomplete,false,NA,true,6,10,NA,right,E5_Q8_ansL.png,E5_Q4_ansR.png,within,NA,NaN,NA,right,1710,1,1,794
7e1pGXNG,NA,NA,7e1pGXNG,2020-0188,2021-11-15,20:11:00,21:05:06,NA,incomplete,false,NA,true,6,11,NA,right,E6_Q7_ansL.png,E6_Q4_ansR.png,within,NA,NaN,NA,right,3632,1,1,1068
7e1pGXNG,NA,NA,7e1pGXNG,2020-0188,2021-11-15,20:11:00,21:05:06,NA,incomplete,false,NA,true,6,12,NA,right,E31_Q4_ansL.png,E6_Q10_ansL.png,between,NA,NaN,NA,right,1886,1,2,1797
7e1pGXNG,NA,NA,7e1pGXNG,2020-0188,2021-11-15,20:11:00,21:05:06,NA,incomplete,false,NA,true,6,13,NA,left,E31_Q1_ansR.png,E31_Q5_ansL.png,within,NA,NaN,NA,right,1869,0,1,1232
7e1pGXNG,NA,NA,7e1pGXNG,2020-0188,2021-11-15,20:11:00,21:05:06,NA,incomplete,false,NA,true,6,14,NA,right,E31_Q6_ansL.png,E31_Q8_ansR.png,within,NA,NaN,NA,right,1421,1,1,1212
7e1pGXNG,NA,NA,7e1pGXNG,2020-0188,2021-11-15,20:11:00,21:05:06,NA,incomplete,false,NA,true,6,15,NA,right,E31_Q10_ansR.png,E6_Q5_ansR.png,between,NA,NaN,NA,right,1507,1,2,1607
7e1pGXNG,NA,NA,7e1pGXNG,2020-0188,2021-11-15,20:11:00,21:05:06,NA,incomplete,false,NA,true,6,16,NA,left,E6_Q7_ansL.png,E31_Q1_ansR.png,between,NA,NaN,NA,left,3088,1,2,3223
7e1pGXNG,NA,NA,7e1pGXNG,2020-0188,2021-11-15,20:11:00,21:05:06,NA,incomplete,false,NA,true,6,17,NA,left,E31_Q7_ansR.png,E31_Q3_ansL.png,within,NA,NaN,NA,left,2672,1,1,1297
7e1pGXNG,NA,NA,7e1pGXNG,2020-0188,2021-11-15,20:11:00,21:05:06,NA,incomplete,false,NA,true,6,18,NA,left,E5_Q3_ansR.png,E5_Q5_ansR.png,within,NA,NaN,NA,right,1538,0,0,1053
7e1pGXNG,NA,NA,7e1pGXNG,2020-0188,2021-11-15,20:11:00,21:05:06,NA,incomplete,false,NA,true,6,19,NA,left,E6_Q3_ansR.png,E6_Q6_ansR.png,within,NA,NaN,NA,right,1288,0,1,1564
7e1pGXNG,NA,NA,7e1pGXNG,2020-0188,2021-11-15,20:11:00,21:05:06,NA,incomplete,false,NA,true,6,20,NA,right,E6_Q10_ansL.png,E6_Q2_ansL.png,within,NA,NaN,NA,right,1834,1,1,1461
7e1pGXNG,NA,NA,7e1pGXNG,2020-0188,2021-11-15,20:11:00,21:05:06,NA,incomplete,false,NA,true,6,21,NA,right,E31_Q7_ansR.png,E31_Q4_ansL.png,within,NA,NaN,NA,right,1602,1,0,1271
7e1pGXNG,NA,NA,7e1pGXNG,2020-0188,2021-11-15,20:11:00,21:05:06,NA,incomplete,false,NA,true,6,22,NA,right,E6_Q1_ansL.png,E5_Q8_ansL.png,between,NA,NaN,NA,right,2002,1,2,1600
7e1pGXNG,NA,NA,7e1pGXNG,2020-0188,2021-11-15,20:11:00,21:05:06,NA,incomplete,false,NA,true,6,23,NA,left,E6_Q9_ansL.png,E6_Q4_ansR.png,within,NA,NaN,NA,right,1395,0,1,1893
7e1pGXNG,NA,NA,7e1pGXNG,2020-0188,2021-11-15,20:11:00,21:05:06,NA,incomplete,false,NA,true,6,24,NA,right,E31_Q2_ansR.png,E31_Q10_ansR.png,within,NA,NaN,NA,left,1756,0,0,753
7e1pGXNG,NA,NA,7e1pGXNG,2020-0188,2021-11-15,20:11:00,21:05:06,NA,incomplete,false,NA,true,6,25,NA,right,E5_Q9_ansR.png,E5_Q10_ansR.png,within,NA,NaN,NA,right,1442,1,0,1011
7e1pGXNG,NA,NA,7e1pGXNG,2020-0188,2021-11-15,20:11:00,21:05:06,NA,incomplete,false,NA,true,6,26,NA,right,E31_Q8_ansR.png,E31_Q5_ansL.png,within,NA,NaN,NA,left,1559,0,1,1091
7e1pGXNG,NA,NA,7e1pGXNG,2020-0188,2021-11-15,20:11:00,21:05:06,NA,incomplete,false,true,NA,7,0,E14_Q3_ansR.png,right,NA,NA,NA,right,2453,true,NA,NA,NA,NA,NA
7e1pGXNG,NA,NA,7e1pGXNG,2020-0188,2021-11-15,20:11:00,21:05:06,NA,incomplete,false,true,NA,7,1,E14_Q6_ansR.png,right,NA,NA,NA,right,1312,true,NA,NA,NA,NA,NA
7e1pGXNG,NA,NA,7e1pGXNG,2020-0188,2021-11-15,20:11:00,21:05:06,NA,incomplete,false,true,NA,7,2,E14_Q9_ansR.png,right,NA,NA,NA,right,1011,true,NA,NA,NA,NA,NA
7e1pGXNG,NA,NA,7e1pGXNG,2020-0188,2021-11-15,20:11:00,21:05:06,NA,incomplete,false,true,NA,7,3,E14_Q5_ansR.png,right,NA,NA,NA,left,1008,false,NA,NA,NA,NA,NA
7e1pGXNG,NA,NA,7e1pGXNG,2020-0188,2021-11-15,20:11:00,21:05:06,NA,incomplete,false,true,NA,7,4,E14_Q8_ansL.png,left,NA,NA,NA,left,1484,true,NA,NA,NA,NA,NA
7e1pGXNG,NA,NA,7e1pGXNG,2020-0188,2021-11-15,20:11:00,21:05:06,NA,incomplete,false,true,NA,7,5,E14_Q10_ansL.png,left,NA,NA,NA,left,1559,true,NA,NA,NA,NA,NA
7e1pGXNG,NA,NA,7e1pGXNG,2020-0188,2021-11-15,20:11:00,21:05:06,NA,incomplete,false,true,NA,7,6,E14_Q4_ansR.png,right,NA,NA,NA,right,1240,true,NA,NA,NA,NA,NA
7e1pGXNG,NA,NA,7e1pGXNG,2020-0188,2021-11-15,20:11:00,21:05:06,NA,incomplete,false,true,NA,7,7,E14_Q1_ansL.png,left,NA,NA,NA,left,986,true,NA,NA,NA,NA,NA
7e1pGXNG,NA,NA,7e1pGXNG,2020-0188,2021-11-15,20:11:00,21:05:06,NA,incomplete,false,true,NA,7,8,E14_Q7_ansL.png,left,NA,NA,NA,left,1129,true,NA,NA,NA,NA,NA
7e1pGXNG,NA,NA,7e1pGXNG,2020-0188,2021-11-15,20:11:00,21:05:06,NA,incomplete,false,true,NA,7,9,E14_Q2_ansL.png,left,NA,NA,NA,left,1019,true,NA,NA,NA,NA,NA
7e1pGXNG,NA,NA,7e1pGXNG,2020-0188,2021-11-15,20:11:00,21:05:06,NA,incomplete,false,true,NA,7,10,E13_Q4_ansR.png,right,NA,NA,NA,left,1544,false,NA,NA,NA,NA,NA
7e1pGXNG,NA,NA,7e1pGXNG,2020-0188,2021-11-15,20:11:00,21:05:06,NA,incomplete,false,true,NA,7,11,E13_Q6_ansR.png,right,NA,NA,NA,right,1022,true,NA,NA,NA,NA,NA
7e1pGXNG,NA,NA,7e1pGXNG,2020-0188,2021-11-15,20:11:00,21:05:06,NA,incomplete,false,true,NA,7,12,E13_Q9_ansR.png,right,NA,NA,NA,right,952,true,NA,NA,NA,NA,NA
7e1pGXNG,NA,NA,7e1pGXNG,2020-0188,2021-11-15,20:11:00,21:05:06,NA,incomplete,false,true,NA,7,13,E13_Q7_ansL.png,left,NA,NA,NA,left,2020,true,NA,NA,NA,NA,NA
7e1pGXNG,NA,NA,7e1pGXNG,2020-0188,2021-11-15,20:11:00,21:05:06,NA,incomplete,false,true,NA,7,14,E13_Q8_ansL.png,left,NA,NA,NA,left,1208,true,NA,NA,NA,NA,NA
7e1pGXNG,NA,NA,7e1pGXNG,2020-0188,2021-11-15,20:11:00,21:05:06,NA,incomplete,false,true,NA,7,15,E13_Q5_ansR.png,right,NA,NA,NA,right,1053,true,NA,NA,NA,NA,NA
7e1pGXNG,NA,NA,7e1pGXNG,2020-0188,2021-11-15,20:11:00,21:05:06,NA,incomplete,false,true,NA,7,16,E13_Q2_ansL.png,left,NA,NA,NA,left,1084,true,NA,NA,NA,NA,NA
7e1pGXNG,NA,NA,7e1pGXNG,2020-0188,2021-11-15,20:11:00,21:05:06,NA,incomplete,false,true,NA,7,17,E13_Q1_ansL.png,left,NA,NA,NA,left,1560,true,NA,NA,NA,NA,NA
7e1pGXNG,NA,NA,7e1pGXNG,2020-0188,2021-11-15,20:11:00,21:05:06,NA,incomplete,false,true,NA,7,18,E13_Q10_ansL.png,left,NA,NA,NA,left,1064,true,NA,NA,NA,NA,NA
7e1pGXNG,NA,NA,7e1pGXNG,2020-0188,2021-11-15,20:11:00,21:05:06,NA,incomplete,false,true,NA,7,19,E13_Q3_ansR.png,right,NA,NA,NA,right,753,true,NA,NA,NA,NA,NA
7e1pGXNG,NA,NA,7e1pGXNG,2020-0188,2021-11-15,20:11:00,21:05:06,NA,incomplete,false,true,NA,7,20,E33_Q5_ansR.png,right,NA,NA,NA,right,2431,true,NA,NA,NA,NA,NA
7e1pGXNG,NA,NA,7e1pGXNG,2020-0188,2021-11-15,20:11:00,21:05:06,NA,incomplete,false,true,NA,7,21,E33_Q2_ansL.png,left,NA,NA,NA,left,1261,true,NA,NA,NA,NA,NA
7e1pGXNG,NA,NA,7e1pGXNG,2020-0188,2021-11-15,20:11:00,21:05:06,NA,incomplete,false,true,NA,7,22,E33_Q1_ansL.png,left,NA,NA,NA,left,1785,true,NA,NA,NA,NA,NA
7e1pGXNG,NA,NA,7e1pGXNG,2020-0188,2021-11-15,20:11:00,21:05:06,NA,incomplete,false,true,NA,7,23,E33_Q8_ansL.png,left,NA,NA,NA,right,1414,false,NA,NA,NA,NA,NA
7e1pGXNG,NA,NA,7e1pGXNG,2020-0188,2021-11-15,20:11:00,21:05:06,NA,incomplete,false,true,NA,7,24,E33_Q6_ansR.png,right,NA,NA,NA,right,1773,true,NA,NA,NA,NA,NA
7e1pGXNG,NA,NA,7e1pGXNG,2020-0188,2021-11-15,20:11:00,21:05:06,NA,incomplete,false,true,NA,7,25,E33_Q9_ansR.png,right,NA,NA,NA,right,1401,true,NA,NA,NA,NA,NA
7e1pGXNG,NA,NA,7e1pGXNG,2020-0188,2021-11-15,20:11:00,21:05:06,NA,incomplete,false,true,NA,7,26,E33_Q7_ansL.png,left,NA,NA,NA,right,1722,false,NA,NA,NA,NA,NA
7e1pGXNG,NA,NA,7e1pGXNG,2020-0188,2021-11-15,20:11:00,21:05:06,NA,incomplete,false,true,NA,7,27,E33_Q3_ansR.png,right,NA,NA,NA,right,1569,true,NA,NA,NA,NA,NA
7e1pGXNG,NA,NA,7e1pGXNG,2020-0188,2021-11-15,20:11:00,21:05:06,NA,incomplete,false,true,NA,7,28,E33_Q4_ansR.png,right,NA,NA,NA,right,1360,true,NA,NA,NA,NA,NA
7e1pGXNG,NA,NA,7e1pGXNG,2020-0188,2021-11-15,20:11:00,21:05:06,NA,incomplete,false,true,NA,7,29,E33_Q10_ansL.png,left,NA,NA,NA,left,1329,true,NA,NA,NA,NA,NA
7e1pGXNG,NA,NA,7e1pGXNG,2020-0188,2021-11-15,20:11:00,21:05:06,NA,incomplete,false,NA,true,7,0,NA,left,E33_Q1_ansL.png,E33_Q9_ansR.png,within,NA,NaN,NA,left,2035,1,1,1603
7e1pGXNG,NA,NA,7e1pGXNG,2020-0188,2021-11-15,20:11:00,21:05:06,NA,incomplete,false,NA,true,7,1,NA,left,E33_Q9_ansR.png,E33_Q4_ansR.png,within,NA,NaN,NA,left,2963,1,0,1766
7e1pGXNG,NA,NA,7e1pGXNG,2020-0188,2021-11-15,20:11:00,21:05:06,NA,incomplete,false,NA,true,7,2,NA,left,E13_Q9_ansR.png,E13_Q5_ansR.png,within,NA,NaN,NA,left,4115,1,0,1267
7e1pGXNG,NA,NA,7e1pGXNG,2020-0188,2021-11-15,20:11:00,21:05:06,NA,incomplete,false,NA,true,7,3,NA,left,E13_Q5_ansR.png,E13_Q10_ansL.png,within,NA,NaN,NA,left,1313,1,1,2194
7e1pGXNG,NA,NA,7e1pGXNG,2020-0188,2021-11-15,20:11:00,21:05:06,NA,incomplete,false,NA,true,7,4,NA,left,E13_Q2_ansL.png,E13_Q3_ansR.png,within,NA,NaN,NA,left,1257,1,1,1154
7e1pGXNG,NA,NA,7e1pGXNG,2020-0188,2021-11-15,20:11:00,21:05:06,NA,incomplete,false,NA,true,7,5,NA,right,E13_Q1_ansL.png,E13_Q8_ansL.png,within,NA,NaN,NA,right,1333,1,1,757
7e1pGXNG,NA,NA,7e1pGXNG,2020-0188,2021-11-15,20:11:00,21:05:06,NA,incomplete,false,NA,true,7,6,NA,left,E33_Q2_ansL.png,E33_Q6_ansR.png,within,NA,NaN,NA,left,1259,1,0,1172
7e1pGXNG,NA,NA,7e1pGXNG,2020-0188,2021-11-15,20:11:00,21:05:06,NA,incomplete,false,NA,true,7,7,NA,left,E14_Q7_ansL.png,E13_Q6_ansR.png,between,NA,NaN,NA,left,1231,1,2,1415
7e1pGXNG,NA,NA,7e1pGXNG,2020-0188,2021-11-15,20:11:00,21:05:06,NA,incomplete,false,NA,true,7,8,NA,right,E14_Q2_ansL.png,E14_Q4_ansR.png,within,NA,NaN,NA,right,2043,1,1,1235
7e1pGXNG,NA,NA,7e1pGXNG,2020-0188,2021-11-15,20:11:00,21:05:06,NA,incomplete,false,NA,true,7,9,NA,right,E14_Q1_ansL.png,E14_Q8_ansL.png,within,NA,NaN,NA,right,1992,1,0,1241
7e1pGXNG,NA,NA,7e1pGXNG,2020-0188,2021-11-15,20:11:00,21:05:06,NA,incomplete,false,NA,true,7,10,NA,left,E33_Q8_ansL.png,E33_Q7_ansL.png,within,NA,NaN,NA,left,1460,1,1,888
7e1pGXNG,NA,NA,7e1pGXNG,2020-0188,2021-11-15,20:11:00,21:05:06,NA,incomplete,false,NA,true,7,11,NA,left,E13_Q7_ansL.png,E13_Q2_ansL.png,within,NA,NaN,NA,left,1242,1,1,698
7e1pGXNG,NA,NA,7e1pGXNG,2020-0188,2021-11-15,20:11:00,21:05:06,NA,incomplete,false,NA,true,7,12,NA,right,E33_Q10_ansL.png,E33_Q7_ansL.png,within,NA,NaN,NA,right,1818,1,1,1163
7e1pGXNG,NA,NA,7e1pGXNG,2020-0188,2021-11-15,20:11:00,21:05:06,NA,incomplete,false,NA,true,7,13,NA,left,E13_Q3_ansR.png,E33_Q1_ansL.png,between,NA,NaN,NA,left,1176,1,2,2016
7e1pGXNG,NA,NA,7e1pGXNG,2020-0188,2021-11-15,20:11:00,21:05:06,NA,incomplete,false,NA,true,7,14,NA,right,E33_Q5_ansR.png,E13_Q1_ansL.png,between,NA,NaN,NA,right,1120,1,2,1717
7e1pGXNG,NA,NA,7e1pGXNG,2020-0188,2021-11-15,20:11:00,21:05:06,NA,incomplete,false,NA,true,7,15,NA,left,E14_Q5_ansR.png,E14_Q4_ansR.png,within,NA,NaN,NA,left,1084,1,1,827
7e1pGXNG,NA,NA,7e1pGXNG,2020-0188,2021-11-15,20:11:00,21:05:06,NA,incomplete,false,NA,true,7,16,NA,left,E33_Q6_ansR.png,E33_Q3_ansR.png,within,NA,NaN,NA,left,2519,1,1,1003
7e1pGXNG,NA,NA,7e1pGXNG,2020-0188,2021-11-15,20:11:00,21:05:06,NA,incomplete,false,NA,true,7,17,NA,right,E33_Q8_ansL.png,E33_Q5_ansR.png,within,NA,NaN,NA,right,988,1,1,3173
7e1pGXNG,NA,NA,7e1pGXNG,2020-0188,2021-11-15,20:11:00,21:05:06,NA,incomplete,false,NA,true,7,18,NA,left,E13_Q10_ansL.png,E33_Q2_ansL.png,between,NA,NaN,NA,left,3308,1,2,1333
7e1pGXNG,NA,NA,7e1pGXNG,2020-0188,2021-11-15,20:11:00,21:05:06,NA,incomplete,false,NA,true,7,19,NA,right,E14_Q10_ansL.png,E14_Q9_ansR.png,within,NA,NaN,NA,right,1911,1,1,1043
7e1pGXNG,NA,NA,7e1pGXNG,2020-0188,2021-11-15,20:11:00,21:05:06,NA,incomplete,false,NA,true,7,20,NA,left,E14_Q1_ansL.png,E13_Q4_ansR.png,between,NA,NaN,NA,left,2852,1,2,1469
7e1pGXNG,NA,NA,7e1pGXNG,2020-0188,2021-11-15,20:11:00,21:05:06,NA,incomplete,false,NA,true,7,21,NA,right,E13_Q9_ansR.png,E14_Q2_ansL.png,between,NA,NaN,NA,right,1812,1,2,2205
7e1pGXNG,NA,NA,7e1pGXNG,2020-0188,2021-11-15,20:11:00,21:05:06,NA,incomplete,false,NA,true,7,22,NA,right,E13_Q8_ansL.png,E13_Q6_ansR.png,within,NA,NaN,NA,right,1243,1,1,1082
7e1pGXNG,NA,NA,7e1pGXNG,2020-0188,2021-11-15,20:11:00,21:05:06,NA,incomplete,false,NA,true,7,23,NA,left,E14_Q10_ansL.png,E14_Q7_ansL.png,within,NA,NaN,NA,right,1185,0,1,900
7e1pGXNG,NA,NA,7e1pGXNG,2020-0188,2021-11-15,20:11:00,21:05:06,NA,incomplete,false,NA,true,7,24,NA,right,E13_Q7_ansL.png,E13_Q4_ansR.png,within,NA,NaN,NA,right,1419,1,0,1750
7e1pGXNG,NA,NA,7e1pGXNG,2020-0188,2021-11-15,20:11:00,21:05:06,NA,incomplete,false,NA,true,7,25,NA,right,E14_Q5_ansR.png,E14_Q3_ansR.png,within,NA,NaN,NA,right,830,1,1,985
7e1pGXNG,NA,NA,7e1pGXNG,2020-0188,2021-11-15,20:11:00,21:05:06,NA,incomplete,false,NA,true,7,26,NA,left,E14_Q6_ansR.png,E14_Q8_ansL.png,within,NA,NaN,NA,left,4367,1,1,1359
7e1pGXNG,NA,NA,7e1pGXNG,2020-0188,2021-11-15,20:11:00,21:05:06,NA,incomplete,false,true,NA,8,0,E25_Q4_ansL.png,left,NA,NA,NA,left,3022,true,NA,NA,NA,NA,NA
7e1pGXNG,NA,NA,7e1pGXNG,2020-0188,2021-11-15,20:11:00,21:05:06,NA,incomplete,false,true,NA,8,1,E25_Q1_ansR.png,right,NA,NA,NA,right,1077,true,NA,NA,NA,NA,NA
7e1pGXNG,NA,NA,7e1pGXNG,2020-0188,2021-11-15,20:11:00,21:05:06,NA,incomplete,false,true,NA,8,2,E25_Q6_ansL.png,left,NA,NA,NA,left,2575,true,NA,NA,NA,NA,NA
7e1pGXNG,NA,NA,7e1pGXNG,2020-0188,2021-11-15,20:11:00,21:05:06,NA,incomplete,false,true,NA,8,3,E25_Q2_ansR.png,right,NA,NA,NA,right,2510,true,NA,NA,NA,NA,NA
7e1pGXNG,NA,NA,7e1pGXNG,2020-0188,2021-11-15,20:11:00,21:05:06,NA,incomplete,false,true,NA,8,4,E25_Q9_ansL.png,left,NA,NA,NA,left,2497,true,NA,NA,NA,NA,NA
7e1pGXNG,NA,NA,7e1pGXNG,2020-0188,2021-11-15,20:11:00,21:05:06,NA,incomplete,false,true,NA,8,5,E25_Q7_ansR.png,right,NA,NA,NA,right,1911,true,NA,NA,NA,NA,NA
7e1pGXNG,NA,NA,7e1pGXNG,2020-0188,2021-11-15,20:11:00,21:05:06,NA,incomplete,false,true,NA,8,6,E25_Q8_ansR.png,right,NA,NA,NA,right,1460,true,NA,NA,NA,NA,NA
7e1pGXNG,NA,NA,7e1pGXNG,2020-0188,2021-11-15,20:11:00,21:05:06,NA,incomplete,false,true,NA,8,7,E25_Q5_ansL.png,left,NA,NA,NA,none,0,false,NA,NA,NA,NA,NA
7e1pGXNG,NA,NA,7e1pGXNG,2020-0188,2021-11-15,20:11:00,21:05:06,NA,incomplete,false,true,NA,8,8,E25_Q3_ansL.png,left,NA,NA,NA,left,1559,true,NA,NA,NA,NA,NA
7e1pGXNG,NA,NA,7e1pGXNG,2020-0188,2021-11-15,20:11:00,21:05:06,NA,incomplete,false,true,NA,8,9,E25_Q10_ansR.png,right,NA,NA,NA,right,1928,true,NA,NA,NA,NA,NA
7e1pGXNG,NA,NA,7e1pGXNG,2020-0188,2021-11-15,20:11:00,21:05:06,NA,incomplete,false,true,NA,8,10,E24_Q5_ansL.png,left,NA,NA,NA,left,1353,true,NA,NA,NA,NA,NA
7e1pGXNG,NA,NA,7e1pGXNG,2020-0188,2021-11-15,20:11:00,21:05:06,NA,incomplete,false,true,NA,8,11,E24_Q8_ansR.png,right,NA,NA,NA,right,1229,true,NA,NA,NA,NA,NA
7e1pGXNG,NA,NA,7e1pGXNG,2020-0188,2021-11-15,20:11:00,21:05:06,NA,incomplete,false,true,NA,8,12,E24_Q6_ansL.png,left,NA,NA,NA,left,885,true,NA,NA,NA,NA,NA
7e1pGXNG,NA,NA,7e1pGXNG,2020-0188,2021-11-15,20:11:00,21:05:06,NA,incomplete,false,true,NA,8,13,E24_Q9_ansL.png,left,NA,NA,NA,left,1580,true,NA,NA,NA,NA,NA
7e1pGXNG,NA,NA,7e1pGXNG,2020-0188,2021-11-15,20:11:00,21:05:06,NA,incomplete,false,true,NA,8,14,E24_Q4_ansL.png,left,NA,NA,NA,left,976,true,NA,NA,NA,NA,NA
7e1pGXNG,NA,NA,7e1pGXNG,2020-0188,2021-11-15,20:11:00,21:05:06,NA,incomplete,false,true,NA,8,15,E24_Q10_ansR.png,right,NA,NA,NA,right,1496,true,NA,NA,NA,NA,NA
7e1pGXNG,NA,NA,7e1pGXNG,2020-0188,2021-11-15,20:11:00,21:05:06,NA,incomplete,false,true,NA,8,16,E24_Q7_ansR.png,right,NA,NA,NA,right,1614,true,NA,NA,NA,NA,NA
7e1pGXNG,NA,NA,7e1pGXNG,2020-0188,2021-11-15,20:11:00,21:05:06,NA,incomplete,false,true,NA,8,17,E24_Q1_ansR.png,right,NA,NA,NA,right,2187,true,NA,NA,NA,NA,NA
7e1pGXNG,NA,NA,7e1pGXNG,2020-0188,2021-11-15,20:11:00,21:05:06,NA,incomplete,false,true,NA,8,18,E24_Q2_ansR.png,right,NA,NA,NA,right,1034,true,NA,NA,NA,NA,NA
7e1pGXNG,NA,NA,7e1pGXNG,2020-0188,2021-11-15,20:11:00,21:05:06,NA,incomplete,false,true,NA,8,19,E24_Q3_ansL.png,left,NA,NA,NA,left,1224,true,NA,NA,NA,NA,NA
7e1pGXNG,NA,NA,7e1pGXNG,2020-0188,2021-11-15,20:11:00,21:05:06,NA,incomplete,false,true,NA,8,20,E27_Q3_ansR.png,right,NA,NA,NA,right,1524,true,NA,NA,NA,NA,NA
7e1pGXNG,NA,NA,7e1pGXNG,2020-0188,2021-11-15,20:11:00,21:05:06,NA,incomplete,false,true,NA,8,21,E27_Q4_ansR.png,right,NA,NA,NA,right,1275,true,NA,NA,NA,NA,NA
7e1pGXNG,NA,NA,7e1pGXNG,2020-0188,2021-11-15,20:11:00,21:05:06,NA,incomplete,false,true,NA,8,22,E27_Q1_ansL.png,left,NA,NA,NA,left,1362,true,NA,NA,NA,NA,NA
7e1pGXNG,NA,NA,7e1pGXNG,2020-0188,2021-11-15,20:11:00,21:05:06,NA,incomplete,false,true,NA,8,23,E27_Q7_ansL.png,left,NA,NA,NA,left,1278,true,NA,NA,NA,NA,NA
7e1pGXNG,NA,NA,7e1pGXNG,2020-0188,2021-11-15,20:11:00,21:05:06,NA,incomplete,false,true,NA,8,24,E27_Q5_ansR.png,right,NA,NA,NA,right,2396,true,NA,NA,NA,NA,NA
7e1pGXNG,NA,NA,7e1pGXNG,2020-0188,2021-11-15,20:11:00,21:05:06,NA,incomplete,false,true,NA,8,25,E27_Q8_ansL.png,left,NA,NA,NA,left,2070,true,NA,NA,NA,NA,NA
7e1pGXNG,NA,NA,7e1pGXNG,2020-0188,2021-11-15,20:11:00,21:05:06,NA,incomplete,false,true,NA,8,26,E27_Q10_ansL.png,left,NA,NA,NA,left,1144,true,NA,NA,NA,NA,NA
7e1pGXNG,NA,NA,7e1pGXNG,2020-0188,2021-11-15,20:11:00,21:05:06,NA,incomplete,false,true,NA,8,27,E27_Q9_ansR.png,right,NA,NA,NA,right,908,true,NA,NA,NA,NA,NA
7e1pGXNG,NA,NA,7e1pGXNG,2020-0188,2021-11-15,20:11:00,21:05:06,NA,incomplete,false,true,NA,8,28,E27_Q2_ansL.png,left,NA,NA,NA,left,1050,true,NA,NA,NA,NA,NA
7e1pGXNG,NA,NA,7e1pGXNG,2020-0188,2021-11-15,20:11:00,21:05:06,NA,incomplete,false,true,NA,8,29,E27_Q6_ansR.png,right,NA,NA,NA,right,842,true,NA,NA,NA,NA,NA
7e1pGXNG,NA,NA,7e1pGXNG,2020-0188,2021-11-15,20:11:00,21:05:06,NA,incomplete,false,NA,true,8,0,NA,left,E27_Q1_ansL.png,E27_Q8_ansL.png,within,NA,NaN,NA,right,924,0,1,1041
7e1pGXNG,NA,NA,7e1pGXNG,2020-0188,2021-11-15,20:11:00,21:05:06,NA,incomplete,false,NA,true,8,1,NA,left,E24_Q9_ansL.png,E24_Q7_ansR.png,within,NA,NaN,NA,right,1007,0,0,1437
7e1pGXNG,NA,NA,7e1pGXNG,2020-0188,2021-11-15,20:11:00,21:05:06,NA,incomplete,false,NA,true,8,2,NA,right,E25_Q3_ansL.png,E25_Q7_ansR.png,within,NA,NaN,NA,right,1464,1,1,834
7e1pGXNG,NA,NA,7e1pGXNG,2020-0188,2021-11-15,20:11:00,21:05:06,NA,incomplete,false,NA,true,8,3,NA,right,E25_Q10_ansR.png,E25_Q8_ansR.png,within,NA,NaN,NA,right,1363,1,1,605
7e1pGXNG,NA,NA,7e1pGXNG,2020-0188,2021-11-15,20:11:00,21:05:06,NA,incomplete,false,NA,true,8,4,NA,left,E27_Q8_ansL.png,E27_Q2_ansL.png,within,NA,NaN,NA,right,1255,0,1,956
7e1pGXNG,NA,NA,7e1pGXNG,2020-0188,2021-11-15,20:11:00,21:05:06,NA,incomplete,false,NA,true,8,5,NA,right,E24_Q5_ansL.png,E25_Q5_ansL.png,between,NA,NaN,NA,right,1164,1,3,1645
7e1pGXNG,NA,NA,7e1pGXNG,2020-0188,2021-11-15,20:11:00,21:05:06,NA,incomplete,false,NA,true,8,6,NA,left,E27_Q4_ansR.png,E27_Q5_ansR.png,within,NA,NaN,NA,left,3375,1,1,937
7e1pGXNG,NA,NA,7e1pGXNG,2020-0188,2021-11-15,20:11:00,21:05:06,NA,incomplete,false,NA,true,8,7,NA,right,E27_Q3_ansR.png,E24_Q1_ansR.png,between,NA,NaN,NA,right,1838,1,2,1234
7e1pGXNG,NA,NA,7e1pGXNG,2020-0188,2021-11-15,20:11:00,21:05:06,NA,incomplete,false,NA,true,8,8,NA,right,E24_Q2_ansR.png,E24_Q10_ansR.png,within,NA,NaN,NA,right,1118,1,1,931
7e1pGXNG,NA,NA,7e1pGXNG,2020-0188,2021-11-15,20:11:00,21:05:06,NA,incomplete,false,NA,true,8,9,NA,right,E24_Q3_ansL.png,E24_Q7_ansR.png,within,NA,NaN,NA,right,2583,1,1,880
7e1pGXNG,NA,NA,7e1pGXNG,2020-0188,2021-11-15,20:11:00,21:05:06,NA,incomplete,false,NA,true,8,10,NA,right,E25_Q8_ansR.png,E25_Q2_ansR.png,within,NA,NaN,NA,right,2202,1,1,1006
7e1pGXNG,NA,NA,7e1pGXNG,2020-0188,2021-11-15,20:11:00,21:05:06,NA,incomplete,false,NA,true,8,11,NA,right,E27_Q4_ansR.png,E24_Q2_ansR.png,between,NA,NaN,NA,right,1197,1,3,1824
7e1pGXNG,NA,NA,7e1pGXNG,2020-0188,2021-11-15,20:11:00,21:05:06,NA,incomplete,false,NA,true,8,12,NA,left,E27_Q7_ansL.png,E27_Q10_ansL.png,within,NA,NaN,NA,left,1330,1,1,730
7e1pGXNG,NA,NA,7e1pGXNG,2020-0188,2021-11-15,20:11:00,21:05:06,NA,incomplete,false,NA,true,8,13,NA,right,E24_Q8_ansR.png,E25_Q3_ansL.png,between,NA,NaN,NA,right,1642,1,2,888
7e1pGXNG,NA,NA,7e1pGXNG,2020-0188,2021-11-15,20:11:00,21:05:06,NA,incomplete,false,NA,true,8,14,NA,left,E25_Q10_ansR.png,E24_Q6_ansL.png,between,NA,NaN,NA,left,1089,1,2,1003
7e1pGXNG,NA,NA,7e1pGXNG,2020-0188,2021-11-15,20:11:00,21:05:06,NA,incomplete,false,NA,true,8,15,NA,right,E24_Q9_ansL.png,E24_Q5_ansL.png,within,NA,NaN,NA,right,1628,1,1,1431
7e1pGXNG,NA,NA,7e1pGXNG,2020-0188,2021-11-15,20:11:00,21:05:06,NA,incomplete,false,NA,true,8,16,NA,right,E27_Q6_ansR.png,E27_Q10_ansL.png,within,NA,NaN,NA,right,861,1,1,718
7e1pGXNG,NA,NA,7e1pGXNG,2020-0188,2021-11-15,20:11:00,21:05:06,NA,incomplete,false,NA,true,8,17,NA,left,E25_Q1_ansR.png,E25_Q9_ansL.png,within,NA,NaN,NA,left,857,1,0,927
7e1pGXNG,NA,NA,7e1pGXNG,2020-0188,2021-11-15,20:11:00,21:05:06,NA,incomplete,false,NA,true,8,18,NA,right,E25_Q5_ansL.png,E25_Q9_ansL.png,within,NA,NaN,NA,left,622,0,0,1988
7e1pGXNG,NA,NA,7e1pGXNG,2020-0188,2021-11-15,20:11:00,21:05:06,NA,incomplete,false,NA,true,8,19,NA,left,E24_Q6_ansL.png,E24_Q10_ansR.png,within,NA,NaN,NA,left,1803,1,1,864
7e1pGXNG,NA,NA,7e1pGXNG,2020-0188,2021-11-15,20:11:00,21:05:06,NA,incomplete,false,NA,true,8,20,NA,left,E27_Q3_ansR.png,E27_Q7_ansL.png,within,NA,NaN,NA,right,1696,0,1,620
7e1pGXNG,NA,NA,7e1pGXNG,2020-0188,2021-11-15,20:11:00,21:05:06,NA,incomplete,false,NA,true,8,21,NA,left,E27_Q5_ansR.png,E27_Q9_ansR.png,within,NA,NaN,NA,left,2222,1,1,633
7e1pGXNG,NA,NA,7e1pGXNG,2020-0188,2021-11-15,20:11:00,21:05:06,NA,incomplete,false,NA,true,8,22,NA,left,E25_Q4_ansL.png,E25_Q2_ansR.png,within,NA,NaN,NA,left,1357,1,1,1601
7e1pGXNG,NA,NA,7e1pGXNG,2020-0188,2021-11-15,20:11:00,21:05:06,NA,incomplete,false,NA,true,8,23,NA,right,E24_Q1_ansR.png,E24_Q4_ansL.png,within,NA,NaN,NA,right,1094,1,1,668
7e1pGXNG,NA,NA,7e1pGXNG,2020-0188,2021-11-15,20:11:00,21:05:06,NA,incomplete,false,NA,true,8,24,NA,left,E24_Q3_ansL.png,E27_Q1_ansL.png,between,NA,NaN,NA,left,1732,1,2,1162
7e1pGXNG,NA,NA,7e1pGXNG,2020-0188,2021-11-15,20:11:00,21:05:06,NA,incomplete,false,NA,true,8,25,NA,left,E25_Q6_ansL.png,E25_Q7_ansR.png,within,NA,NaN,NA,left,589,1,1,769
7e1pGXNG,NA,NA,7e1pGXNG,2020-0188,2021-11-15,20:11:00,21:05:06,NA,incomplete,false,NA,true,8,26,NA,right,E24_Q4_ansL.png,E24_Q8_ansR.png,within,NA,NaN,NA,right,859,1,1,1370
7e1pGXNG,NA,NA,7e1pGXNG,2020-0188,2021-11-15,20:11:00,21:05:06,NA,incomplete,false,true,NA,9,0,E17_Q9_ansR.png,right,NA,NA,NA,right,1823,true,NA,NA,NA,NA,NA
7e1pGXNG,NA,NA,7e1pGXNG,2020-0188,2021-11-15,20:11:00,21:05:06,NA,incomplete,false,true,NA,9,1,E17_Q6_ansR.png,right,NA,NA,NA,left,1466,false,NA,NA,NA,NA,NA
7e1pGXNG,NA,NA,7e1pGXNG,2020-0188,2021-11-15,20:11:00,21:05:06,NA,incomplete,false,true,NA,9,2,E17_Q5_ansR.png,right,NA,NA,NA,right,933,true,NA,NA,NA,NA,NA
7e1pGXNG,NA,NA,7e1pGXNG,2020-0188,2021-11-15,20:11:00,21:05:06,NA,incomplete,false,true,NA,9,3,E17_Q4_ansR.png,right,NA,NA,NA,right,990,true,NA,NA,NA,NA,NA
7e1pGXNG,NA,NA,7e1pGXNG,2020-0188,2021-11-15,20:11:00,21:05:06,NA,incomplete,false,true,NA,9,4,E17_Q1_ansL.png,left,NA,NA,NA,left,1348,true,NA,NA,NA,NA,NA
7e1pGXNG,NA,NA,7e1pGXNG,2020-0188,2021-11-15,20:11:00,21:05:06,NA,incomplete,false,true,NA,9,5,E17_Q2_ansL.png,left,NA,NA,NA,left,1343,true,NA,NA,NA,NA,NA
7e1pGXNG,NA,NA,7e1pGXNG,2020-0188,2021-11-15,20:11:00,21:05:06,NA,incomplete,false,true,NA,9,6,E17_Q3_ansR.png,right,NA,NA,NA,right,978,true,NA,NA,NA,NA,NA
7e1pGXNG,NA,NA,7e1pGXNG,2020-0188,2021-11-15,20:11:00,21:05:06,NA,incomplete,false,true,NA,9,7,E17_Q8_ansL.png,left,NA,NA,NA,left,1286,true,NA,NA,NA,NA,NA
7e1pGXNG,NA,NA,7e1pGXNG,2020-0188,2021-11-15,20:11:00,21:05:06,NA,incomplete,false,true,NA,9,8,E17_Q7_ansL.png,left,NA,NA,NA,right,1200,false,NA,NA,NA,NA,NA
7e1pGXNG,NA,NA,7e1pGXNG,2020-0188,2021-11-15,20:11:00,21:05:06,NA,incomplete,false,true,NA,9,9,E17_Q10_ansL.png,left,NA,NA,NA,left,860,true,NA,NA,NA,NA,NA
7e1pGXNG,NA,NA,7e1pGXNG,2020-0188,2021-11-15,20:11:00,21:05:06,NA,incomplete,false,true,NA,9,10,E3_Q5_ansR.png,right,NA,NA,NA,right,1325,true,NA,NA,NA,NA,NA
7e1pGXNG,NA,NA,7e1pGXNG,2020-0188,2021-11-15,20:11:00,21:05:06,NA,incomplete,false,true,NA,9,11,E3_Q10_ansR.png,right,NA,NA,NA,right,1682,true,NA,NA,NA,NA,NA
7e1pGXNG,NA,NA,7e1pGXNG,2020-0188,2021-11-15,20:11:00,21:05:06,NA,incomplete,false,true,NA,9,12,E3_Q9_ansL.png,left,NA,NA,NA,left,1392,true,NA,NA,NA,NA,NA
7e1pGXNG,NA,NA,7e1pGXNG,2020-0188,2021-11-15,20:11:00,21:05:06,NA,incomplete,false,true,NA,9,13,E3_Q2_ansL.png,left,NA,NA,NA,left,1281,true,NA,NA,NA,NA,NA
7e1pGXNG,NA,NA,7e1pGXNG,2020-0188,2021-11-15,20:11:00,21:05:06,NA,incomplete,false,true,NA,9,14,E3_Q8_ansL.png,left,NA,NA,NA,left,978,true,NA,NA,NA,NA,NA
7e1pGXNG,NA,NA,7e1pGXNG,2020-0188,2021-11-15,20:11:00,21:05:06,NA,incomplete,false,true,NA,9,15,E3_Q7_ansL.png,left,NA,NA,NA,left,1623,true,NA,NA,NA,NA,NA
7e1pGXNG,NA,NA,7e1pGXNG,2020-0188,2021-11-15,20:11:00,21:05:06,NA,incomplete,false,true,NA,9,16,E3_Q1_ansR.png,right,NA,NA,NA,right,1202,true,NA,NA,NA,NA,NA
7e1pGXNG,NA,NA,7e1pGXNG,2020-0188,2021-11-15,20:11:00,21:05:06,NA,incomplete,false,true,NA,9,17,E3_Q6_ansR.png,right,NA,NA,NA,right,1119,true,NA,NA,NA,NA,NA
7e1pGXNG,NA,NA,7e1pGXNG,2020-0188,2021-11-15,20:11:00,21:05:06,NA,incomplete,false,true,NA,9,18,E3_Q3_ansR.png,right,NA,NA,NA,right,1162,true,NA,NA,NA,NA,NA
7e1pGXNG,NA,NA,7e1pGXNG,2020-0188,2021-11-15,20:11:00,21:05:06,NA,incomplete,false,true,NA,9,19,E3_Q4_ansL.png,left,NA,NA,NA,left,868,true,NA,NA,NA,NA,NA
7e1pGXNG,NA,NA,7e1pGXNG,2020-0188,2021-11-15,20:11:00,21:05:06,NA,incomplete,false,true,NA,9,20,E1_Q4_ansL.png,left,NA,NA,NA,left,1967,true,NA,NA,NA,NA,NA
7e1pGXNG,NA,NA,7e1pGXNG,2020-0188,2021-11-15,20:11:00,21:05:06,NA,incomplete,false,true,NA,9,21,E1_Q6_ansR.png,right,NA,NA,NA,right,1507,true,NA,NA,NA,NA,NA
7e1pGXNG,NA,NA,7e1pGXNG,2020-0188,2021-11-15,20:11:00,21:05:06,NA,incomplete,false,true,NA,9,22,E1_Q1_ansL.png,left,NA,NA,NA,left,2215,true,NA,NA,NA,NA,NA
7e1pGXNG,NA,NA,7e1pGXNG,2020-0188,2021-11-15,20:11:00,21:05:06,NA,incomplete,false,true,NA,9,23,E1_Q10_ansR.png,right,NA,NA,NA,right,1331,true,NA,NA,NA,NA,NA
7e1pGXNG,NA,NA,7e1pGXNG,2020-0188,2021-11-15,20:11:00,21:05:06,NA,incomplete,false,true,NA,9,24,E1_Q7_ansL.png,left,NA,NA,NA,left,1200,true,NA,NA,NA,NA,NA
7e1pGXNG,NA,NA,7e1pGXNG,2020-0188,2021-11-15,20:11:00,21:05:06,NA,incomplete,false,true,NA,9,25,E1_Q2_ansL.png,left,NA,NA,NA,left,1475,true,NA,NA,NA,NA,NA
7e1pGXNG,NA,NA,7e1pGXNG,2020-0188,2021-11-15,20:11:00,21:05:06,NA,incomplete,false,true,NA,9,26,E1_Q8_ansR.png,right,NA,NA,NA,right,2136,true,NA,NA,NA,NA,NA
7e1pGXNG,NA,NA,7e1pGXNG,2020-0188,2021-11-15,20:11:00,21:05:06,NA,incomplete,false,true,NA,9,27,E1_Q5_ansR.png,right,NA,NA,NA,right,1208,true,NA,NA,NA,NA,NA
7e1pGXNG,NA,NA,7e1pGXNG,2020-0188,2021-11-15,20:11:00,21:05:06,NA,incomplete,false,true,NA,9,28,E1_Q9_ansL.png,left,NA,NA,NA,left,2317,true,NA,NA,NA,NA,NA
7e1pGXNG,NA,NA,7e1pGXNG,2020-0188,2021-11-15,20:11:00,21:05:06,NA,incomplete,false,true,NA,9,29,E1_Q3_ansR.png,right,NA,NA,NA,right,2264,true,NA,NA,NA,NA,NA
7e1pGXNG,NA,NA,7e1pGXNG,2020-0188,2021-11-15,20:11:00,21:05:06,NA,incomplete,false,NA,true,9,0,NA,left,E17_Q5_ansR.png,E17_Q2_ansL.png,within,NA,NaN,NA,right,2559,0,1,787
7e1pGXNG,NA,NA,7e1pGXNG,2020-0188,2021-11-15,20:11:00,21:05:06,NA,incomplete,false,NA,true,9,1,NA,left,E17_Q8_ansL.png,E3_Q5_ansR.png,between,NA,NaN,NA,left,1342,1,2,1841
7e1pGXNG,NA,NA,7e1pGXNG,2020-0188,2021-11-15,20:11:00,21:05:06,NA,incomplete,false,NA,true,9,2,NA,left,E3_Q1_ansR.png,E3_Q4_ansL.png,within,NA,NaN,NA,right,1190,0,1,1161
7e1pGXNG,NA,NA,7e1pGXNG,2020-0188,2021-11-15,20:11:00,21:05:06,NA,incomplete,false,NA,true,9,3,NA,left,E1_Q2_ansL.png,E1_Q9_ansL.png,within,NA,NaN,NA,left,943,1,1,816
7e1pGXNG,NA,NA,7e1pGXNG,2020-0188,2021-11-15,20:11:00,21:05:06,NA,incomplete,false,NA,true,9,4,NA,right,E3_Q9_ansL.png,E17_Q10_ansL.png,between,NA,NaN,NA,right,995,1,3,2013
7e1pGXNG,NA,NA,7e1pGXNG,2020-0188,2021-11-15,20:11:00,21:05:06,NA,incomplete,false,NA,true,9,5,NA,left,E3_Q8_ansL.png,E3_Q6_ansR.png,within,NA,NaN,NA,left,1778,1,1,1483
7e1pGXNG,NA,NA,7e1pGXNG,2020-0188,2021-11-15,20:11:00,21:05:06,NA,incomplete,false,NA,true,9,6,NA,left,E1_Q1_ansL.png,E1_Q2_ansL.png,within,NA,NaN,NA,right,633,0,1,1041
7e1pGXNG,NA,NA,7e1pGXNG,2020-0188,2021-11-15,20:11:00,21:05:06,NA,incomplete,false,NA,true,9,7,NA,right,E1_Q3_ansR.png,E1_Q8_ansR.png,within,NA,NaN,NA,right,618,1,1,701
7e1pGXNG,NA,NA,7e1pGXNG,2020-0188,2021-11-15,20:11:00,21:05:06,NA,incomplete,false,NA,true,9,8,NA,right,E3_Q2_ansL.png,E3_Q5_ansR.png,within,NA,NaN,NA,right,1305,1,1,964
7e1pGXNG,NA,NA,7e1pGXNG,2020-0188,2021-11-15,20:11:00,21:05:06,NA,incomplete,false,NA,true,9,9,NA,right,E1_Q8_ansR.png,E1_Q10_ansR.png,within,NA,NaN,NA,left,977,0,1,738
7e1pGXNG,NA,NA,7e1pGXNG,2020-0188,2021-11-15,20:11:00,21:05:06,NA,incomplete,false,NA,true,9,10,NA,left,E3_Q6_ansR.png,E1_Q4_ansL.png,between,NA,NaN,NA,left,692,1,1,1222
7e1pGXNG,NA,NA,7e1pGXNG,2020-0188,2021-11-15,20:11:00,21:05:06,NA,incomplete,false,NA,true,9,11,NA,left,E17_Q9_ansR.png,E17_Q4_ansR.png,within,NA,NaN,NA,left,890,1,1,1575
7e1pGXNG,NA,NA,7e1pGXNG,2020-0188,2021-11-15,20:11:00,21:05:06,NA,incomplete,false,NA,true,9,12,NA,right,E17_Q1_ansL.png,E17_Q6_ansR.png,within,NA,NaN,NA,left,979,0,1,1631
7e1pGXNG,NA,NA,7e1pGXNG,2020-0188,2021-11-15,20:11:00,21:05:06,NA,incomplete,false,NA,true,9,13,NA,left,E17_Q7_ansL.png,E3_Q10_ansR.png,between,NA,NaN,NA,left,1792,1,2,1244
7e1pGXNG,NA,NA,7e1pGXNG,2020-0188,2021-11-15,20:11:00,21:05:06,NA,incomplete,false,NA,true,9,14,NA,right,E17_Q3_ansR.png,E17_Q4_ansR.png,within,NA,NaN,NA,left,957,0,1,931
7e1pGXNG,NA,NA,7e1pGXNG,2020-0188,2021-11-15,20:11:00,21:05:06,NA,incomplete,false,NA,true,9,15,NA,right,E3_Q1_ansR.png,E3_Q2_ansL.png,within,NA,NaN,NA,right,1039,1,1,696
7e1pGXNG,NA,NA,7e1pGXNG,2020-0188,2021-11-15,20:11:00,21:05:06,NA,incomplete,false,NA,true,9,16,NA,left,E1_Q4_ansL.png,E1_Q10_ansR.png,within,NA,NaN,NA,left,634,1,1,784
7e1pGXNG,NA,NA,7e1pGXNG,2020-0188,2021-11-15,20:11:00,21:05:06,NA,incomplete,false,NA,true,9,17,NA,right,E3_Q3_ansR.png,E3_Q7_ansL.png,within,NA,NaN,NA,left,818,0,1,2263
7e1pGXNG,NA,NA,7e1pGXNG,2020-0188,2021-11-15,20:11:00,21:05:06,NA,incomplete,false,NA,true,9,18,NA,left,E1_Q6_ansR.png,E1_Q7_ansL.png,within,NA,NaN,NA,left,631,1,1,984
7e1pGXNG,NA,NA,7e1pGXNG,2020-0188,2021-11-15,20:11:00,21:05:06,NA,incomplete,false,NA,true,9,19,NA,right,E3_Q7_ansL.png,E3_Q9_ansL.png,within,NA,NaN,NA,right,647,1,1,658
7e1pGXNG,NA,NA,7e1pGXNG,2020-0188,2021-11-15,20:11:00,21:05:06,NA,incomplete,false,NA,true,9,20,NA,right,E17_Q10_ansL.png,E17_Q3_ansR.png,within,NA,NaN,NA,left,2350,0,1,643
7e1pGXNG,NA,NA,7e1pGXNG,2020-0188,2021-11-15,20:11:00,21:05:06,NA,incomplete,false,NA,true,9,21,NA,right,E17_Q7_ansL.png,E17_Q2_ansL.png,within,NA,NaN,NA,right,1384,1,1,908
7e1pGXNG,NA,NA,7e1pGXNG,2020-0188,2021-11-15,20:11:00,21:05:06,NA,incomplete,false,NA,true,9,22,NA,right,E3_Q8_ansL.png,E3_Q10_ansR.png,within,NA,NaN,NA,left,1179,0,1,666
7e1pGXNG,NA,NA,7e1pGXNG,2020-0188,2021-11-15,20:11:00,21:05:06,NA,incomplete,false,NA,true,9,23,NA,left,E1_Q7_ansL.png,E1_Q5_ansR.png,within,NA,NaN,NA,left,2661,1,1,915
7e1pGXNG,NA,NA,7e1pGXNG,2020-0188,2021-11-15,20:11:00,21:05:06,NA,incomplete,false,NA,true,9,24,NA,left,E3_Q4_ansL.png,E1_Q1_ansL.png,between,NA,NaN,NA,left,842,1,2,1160
7e1pGXNG,NA,NA,7e1pGXNG,2020-0188,2021-11-15,20:11:00,21:05:06,NA,incomplete,false,NA,true,9,25,NA,right,E17_Q8_ansL.png,E17_Q1_ansL.png,within,NA,NaN,NA,right,1209,1,1,1135
7e1pGXNG,NA,NA,7e1pGXNG,2020-0188,2021-11-15,20:11:00,21:05:06,NA,incomplete,false,NA,true,9,26,NA,right,E1_Q6_ansR.png,E3_Q3_ansR.png,between,NA,NaN,NA,right,1233,1,2,1457
7e1pGXNG,NA,NA,7e1pGXNG,2020-0188,2021-11-15,20:11:00,21:05:06,NA,incomplete,false,true,NA,10,0,E22_Q1_ansR.png,right,NA,NA,NA,right,3124,true,NA,NA,NA,NA,NA
7e1pGXNG,NA,NA,7e1pGXNG,2020-0188,2021-11-15,20:11:00,21:05:06,NA,incomplete,false,true,NA,10,1,E22_Q3_ansL.png,left,NA,NA,NA,left,1536,true,NA,NA,NA,NA,NA
7e1pGXNG,NA,NA,7e1pGXNG,2020-0188,2021-11-15,20:11:00,21:05:06,NA,incomplete,false,true,NA,10,2,E22_Q4_ansL.png,left,NA,NA,NA,left,2260,true,NA,NA,NA,NA,NA
7e1pGXNG,NA,NA,7e1pGXNG,2020-0188,2021-11-15,20:11:00,21:05:06,NA,incomplete,false,true,NA,10,3,E22_Q2_ansR.png,right,NA,NA,NA,right,994,true,NA,NA,NA,NA,NA
7e1pGXNG,NA,NA,7e1pGXNG,2020-0188,2021-11-15,20:11:00,21:05:06,NA,incomplete,false,true,NA,10,4,E22_Q6_ansL.png,left,NA,NA,NA,left,1111,true,NA,NA,NA,NA,NA
7e1pGXNG,NA,NA,7e1pGXNG,2020-0188,2021-11-15,20:11:00,21:05:06,NA,incomplete,false,true,NA,10,5,E22_Q7_ansR.png,right,NA,NA,NA,right,1055,true,NA,NA,NA,NA,NA
7e1pGXNG,NA,NA,7e1pGXNG,2020-0188,2021-11-15,20:11:00,21:05:06,NA,incomplete,false,true,NA,10,6,E22_Q9_ansL.png,left,NA,NA,NA,left,888,true,NA,NA,NA,NA,NA
7e1pGXNG,NA,NA,7e1pGXNG,2020-0188,2021-11-15,20:11:00,21:05:06,NA,incomplete,false,true,NA,10,7,E22_Q5_ansL.png,left,NA,NA,NA,left,868,true,NA,NA,NA,NA,NA
7e1pGXNG,NA,NA,7e1pGXNG,2020-0188,2021-11-15,20:11:00,21:05:06,NA,incomplete,false,true,NA,10,8,E22_Q8_ansR.png,right,NA,NA,NA,right,997,true,NA,NA,NA,NA,NA
7e1pGXNG,NA,NA,7e1pGXNG,2020-0188,2021-11-15,20:11:00,21:05:06,NA,incomplete,false,true,NA,10,9,E22_Q10_ansR.png,right,NA,NA,NA,right,2063,true,NA,NA,NA,NA,NA
7e1pGXNG,NA,NA,7e1pGXNG,2020-0188,2021-11-15,20:11:00,21:05:06,NA,incomplete,false,true,NA,10,10,E11_Q1_ansR.png,right,NA,NA,NA,right,1240,true,NA,NA,NA,NA,NA
7e1pGXNG,NA,NA,7e1pGXNG,2020-0188,2021-11-15,20:11:00,21:05:06,NA,incomplete,false,true,NA,10,11,E11_Q9_ansL.png,left,NA,NA,NA,left,1033,true,NA,NA,NA,NA,NA
7e1pGXNG,NA,NA,7e1pGXNG,2020-0188,2021-11-15,20:11:00,21:05:06,NA,incomplete,false,true,NA,10,12,E11_Q10_ansR.png,right,NA,NA,NA,right,1222,true,NA,NA,NA,NA,NA
7e1pGXNG,NA,NA,7e1pGXNG,2020-0188,2021-11-15,20:11:00,21:05:06,NA,incomplete,false,true,NA,10,13,E11_Q7_ansR.png,right,NA,NA,NA,right,1142,true,NA,NA,NA,NA,NA
7e1pGXNG,NA,NA,7e1pGXNG,2020-0188,2021-11-15,20:11:00,21:05:06,NA,incomplete,false,true,NA,10,14,E11_Q4_ansL.png,left,NA,NA,NA,left,800,true,NA,NA,NA,NA,NA
7e1pGXNG,NA,NA,7e1pGXNG,2020-0188,2021-11-15,20:11:00,21:05:06,NA,incomplete,false,true,NA,10,15,E11_Q6_ansL.png,left,NA,NA,NA,left,1139,true,NA,NA,NA,NA,NA
7e1pGXNG,NA,NA,7e1pGXNG,2020-0188,2021-11-15,20:11:00,21:05:06,NA,incomplete,false,true,NA,10,16,E11_Q3_ansL.png,left,NA,NA,NA,left,1106,true,NA,NA,NA,NA,NA
7e1pGXNG,NA,NA,7e1pGXNG,2020-0188,2021-11-15,20:11:00,21:05:06,NA,incomplete,false,true,NA,10,17,E11_Q8_ansR.png,right,NA,NA,NA,right,965,true,NA,NA,NA,NA,NA
7e1pGXNG,NA,NA,7e1pGXNG,2020-0188,2021-11-15,20:11:00,21:05:06,NA,incomplete,false,true,NA,10,18,E11_Q5_ansL.png,left,NA,NA,NA,left,968,true,NA,NA,NA,NA,NA
7e1pGXNG,NA,NA,7e1pGXNG,2020-0188,2021-11-15,20:11:00,21:05:06,NA,incomplete,false,true,NA,10,19,E11_Q2_ansR.png,right,NA,NA,NA,right,1348,true,NA,NA,NA,NA,NA
7e1pGXNG,NA,NA,7e1pGXNG,2020-0188,2021-11-15,20:11:00,21:05:06,NA,incomplete,false,true,NA,10,20,E30_Q9_ansL.png,left,NA,NA,NA,right,2732,false,NA,NA,NA,NA,NA
7e1pGXNG,NA,NA,7e1pGXNG,2020-0188,2021-11-15,20:11:00,21:05:06,NA,incomplete,false,true,NA,10,21,E30_Q10_ansR.png,right,NA,NA,NA,right,1429,true,NA,NA,NA,NA,NA
7e1pGXNG,NA,NA,7e1pGXNG,2020-0188,2021-11-15,20:11:00,21:05:06,NA,incomplete,false,true,NA,10,22,E30_Q3_ansL.png,left,NA,NA,NA,right,1413,false,NA,NA,NA,NA,NA
7e1pGXNG,NA,NA,7e1pGXNG,2020-0188,2021-11-15,20:11:00,21:05:06,NA,incomplete,false,true,NA,10,23,E30_Q7_ansL.png,left,NA,NA,NA,right,1336,false,NA,NA,NA,NA,NA
7e1pGXNG,NA,NA,7e1pGXNG,2020-0188,2021-11-15,20:11:00,21:05:06,NA,incomplete,false,true,NA,10,24,E30_Q6_ansR.png,right,NA,NA,NA,right,1412,true,NA,NA,NA,NA,NA
7e1pGXNG,NA,NA,7e1pGXNG,2020-0188,2021-11-15,20:11:00,21:05:06,NA,incomplete,false,true,NA,10,25,E30_Q4_ansL.png,left,NA,NA,NA,left,1529,true,NA,NA,NA,NA,NA
7e1pGXNG,NA,NA,7e1pGXNG,2020-0188,2021-11-15,20:11:00,21:05:06,NA,incomplete,false,true,NA,10,26,E30_Q5_ansR.png,right,NA,NA,NA,right,1158,true,NA,NA,NA,NA,NA
7e1pGXNG,NA,NA,7e1pGXNG,2020-0188,2021-11-15,20:11:00,21:05:06,NA,incomplete,false,true,NA,10,27,E30_Q8_ansL.png,left,NA,NA,NA,right,1696,false,NA,NA,NA,NA,NA
7e1pGXNG,NA,NA,7e1pGXNG,2020-0188,2021-11-15,20:11:00,21:05:06,NA,incomplete,false,true,NA,10,28,E30_Q1_ansL.png,left,NA,NA,NA,left,1076,true,NA,NA,NA,NA,NA
7e1pGXNG,NA,NA,7e1pGXNG,2020-0188,2021-11-15,20:11:00,21:05:06,NA,incomplete,false,true,NA,10,29,E30_Q2_ansL.png,left,NA,NA,NA,left,1900,true,NA,NA,NA,NA,NA
7e1pGXNG,NA,NA,7e1pGXNG,2020-0188,2021-11-15,20:11:00,21:05:06,NA,incomplete,false,NA,true,10,0,NA,left,E30_Q9_ansL.png,E30_Q7_ansL.png,within,NA,NaN,NA,left,1651,1,1,1636
7e1pGXNG,NA,NA,7e1pGXNG,2020-0188,2021-11-15,20:11:00,21:05:06,NA,incomplete,false,NA,true,10,1,NA,left,E30_Q5_ansR.png,E30_Q2_ansL.png,within,NA,NaN,NA,left,1486,1,1,1062
7e1pGXNG,NA,NA,7e1pGXNG,2020-0188,2021-11-15,20:11:00,21:05:06,NA,incomplete,false,NA,true,10,2,NA,left,E22_Q6_ansL.png,E22_Q5_ansL.png,within,NA,NaN,NA,right,1409,0,0,760
7e1pGXNG,NA,NA,7e1pGXNG,2020-0188,2021-11-15,20:11:00,21:05:06,NA,incomplete,false,NA,true,10,3,NA,right,E11_Q5_ansL.png,E11_Q6_ansL.png,within,NA,NaN,NA,left,1432,0,1,788
7e1pGXNG,NA,NA,7e1pGXNG,2020-0188,2021-11-15,20:11:00,21:05:06,NA,incomplete,false,NA,true,10,4,NA,left,E30_Q7_ansL.png,E30_Q5_ansR.png,within,NA,NaN,NA,left,1369,1,1,872
7e1pGXNG,NA,NA,7e1pGXNG,2020-0188,2021-11-15,20:11:00,21:05:06,NA,incomplete,false,NA,true,10,5,NA,left,E11_Q10_ansR.png,E11_Q6_ansL.png,within,NA,NaN,NA,left,1102,1,1,921
7e1pGXNG,NA,NA,7e1pGXNG,2020-0188,2021-11-15,20:11:00,21:05:06,NA,incomplete,false,NA,true,10,6,NA,left,E11_Q5_ansL.png,E30_Q10_ansR.png,between,NA,NaN,NA,left,3028,1,1,747
7e1pGXNG,NA,NA,7e1pGXNG,2020-0188,2021-11-15,20:11:00,21:05:06,NA,incomplete,false,NA,true,10,7,NA,right,E22_Q2_ansR.png,E22_Q1_ansR.png,within,NA,NaN,NA,right,2713,1,1,1204
7e1pGXNG,NA,NA,7e1pGXNG,2020-0188,2021-11-15,20:11:00,21:05:06,NA,incomplete,false,NA,true,10,8,NA,right,E22_Q9_ansL.png,E22_Q2_ansR.png,within,NA,NaN,NA,right,1259,1,1,909
