workerId,hitId,assignmentId,subject,studyid,exp_date,exp_start,exp_end,time_start,time_end,practice,encoding,memory,block,trial,stim,answer,left_image,right_image,condition,response,response_time,response_acc,order_response,order_response_time,order_acc,distance_response,distance_response_time
bGBzba48,NA,NA,bGBzba48,2020-0188,2021-09-23,12:01:46,13:11:18,NA,incomplete,true,true,NA,0,0,E29_Q6_ansR.png,right,NA,NA,NA,right,2770.79999999702,true,NA,NA,NA,NA,NA
bGBzba48,NA,NA,bGBzba48,2020-0188,2021-09-23,12:01:46,13:11:18,NA,incomplete,true,true,NA,0,1,E29_Q4_ansR.png,right,NA,NA,NA,right,1745.09999999404,true,NA,NA,NA,NA,NA
bGBzba48,NA,NA,bGBzba48,2020-0188,2021-09-23,12:01:46,13:11:18,NA,incomplete,true,true,NA,0,2,E29_Q8_ansL.png,left,NA,NA,NA,left,2041,true,NA,NA,NA,NA,NA
bGBzba48,NA,NA,bGBzba48,2020-0188,2021-09-23,12:01:46,13:11:18,NA,incomplete,true,true,NA,0,3,E29_Q7_ansL.png,left,NA,NA,NA,left,1368.5,true,NA,NA,NA,NA,NA
bGBzba48,NA,NA,bGBzba48,2020-0188,2021-09-23,12:01:46,13:11:18,NA,incomplete,true,true,NA,0,4,E29_Q1_ansL.png,left,NA,NA,NA,left,1411.70000000298,true,NA,NA,NA,NA,NA
bGBzba48,NA,NA,bGBzba48,2020-0188,2021-09-23,12:01:46,13:11:18,NA,incomplete,true,true,NA,0,5,E29_Q5_ansR.png,right,NA,NA,NA,right,1165.5,true,NA,NA,NA,NA,NA
bGBzba48,NA,NA,bGBzba48,2020-0188,2021-09-23,12:01:46,13:11:18,NA,incomplete,true,true,NA,0,6,E29_Q2_ansL.png,left,NA,NA,NA,left,1507.09999999404,true,NA,NA,NA,NA,NA
bGBzba48,NA,NA,bGBzba48,2020-0188,2021-09-23,12:01:46,13:11:18,NA,incomplete,true,true,NA,0,7,E29_Q9_ansR.png,right,NA,NA,NA,right,1096,true,NA,NA,NA,NA,NA
bGBzba48,NA,NA,bGBzba48,2020-0188,2021-09-23,12:01:46,13:11:18,NA,incomplete,true,true,NA,0,8,E29_Q3_ansR.png,right,NA,NA,NA,right,1022,true,NA,NA,NA,NA,NA
bGBzba48,NA,NA,bGBzba48,2020-0188,2021-09-23,12:01:46,13:11:18,NA,incomplete,true,true,NA,0,9,E29_Q10_ansL.png,left,NA,NA,NA,left,1009.90000000596,true,NA,NA,NA,NA,NA
bGBzba48,NA,NA,bGBzba48,2020-0188,2021-09-23,12:01:46,13:11:18,NA,incomplete,true,true,NA,0,10,E32_Q4_ansR.png,right,NA,NA,NA,none,0,false,NA,NA,NA,NA,NA
bGBzba48,NA,NA,bGBzba48,2020-0188,2021-09-23,12:01:46,13:11:18,NA,incomplete,true,true,NA,0,11,E32_Q2_ansL.png,left,NA,NA,NA,left,1257.20000000298,true,NA,NA,NA,NA,NA
bGBzba48,NA,NA,bGBzba48,2020-0188,2021-09-23,12:01:46,13:11:18,NA,incomplete,true,true,NA,0,12,E32_Q3_ansR.png,right,NA,NA,NA,right,1302.5,true,NA,NA,NA,NA,NA
bGBzba48,NA,NA,bGBzba48,2020-0188,2021-09-23,12:01:46,13:11:18,NA,incomplete,true,true,NA,0,13,E32_Q5_ansR.png,right,NA,NA,NA,right,1939.40000000596,true,NA,NA,NA,NA,NA
bGBzba48,NA,NA,bGBzba48,2020-0188,2021-09-23,12:01:46,13:11:18,NA,incomplete,true,true,NA,0,14,E32_Q1_ansL.png,left,NA,NA,NA,left,919.20000000298,true,NA,NA,NA,NA,NA
bGBzba48,NA,NA,bGBzba48,2020-0188,2021-09-23,12:01:46,13:11:18,NA,incomplete,true,true,NA,0,15,E32_Q8_ansL.png,left,NA,NA,NA,left,1237.10000000894,true,NA,NA,NA,NA,NA
bGBzba48,NA,NA,bGBzba48,2020-0188,2021-09-23,12:01:46,13:11:18,NA,incomplete,true,true,NA,0,16,E32_Q9_ansR.png,right,NA,NA,NA,right,834.899999991059,true,NA,NA,NA,NA,NA
bGBzba48,NA,NA,bGBzba48,2020-0188,2021-09-23,12:01:46,13:11:18,NA,incomplete,true,true,NA,0,17,E32_Q10_ansL.png,left,NA,NA,NA,left,1093,true,NA,NA,NA,NA,NA
bGBzba48,NA,NA,bGBzba48,2020-0188,2021-09-23,12:01:46,13:11:18,NA,incomplete,true,true,NA,0,18,E32_Q7_ansL.png,left,NA,NA,NA,left,1163.70000000298,true,NA,NA,NA,NA,NA
bGBzba48,NA,NA,bGBzba48,2020-0188,2021-09-23,12:01:46,13:11:18,NA,incomplete,true,true,NA,0,19,E32_Q6_ansR.png,right,NA,NA,NA,right,1314,true,NA,NA,NA,NA,NA
bGBzba48,NA,NA,bGBzba48,2020-0188,2021-09-23,12:01:46,13:11:18,NA,incomplete,true,true,NA,0,20,E13_Q3_ansR.png,right,NA,NA,NA,right,1597.40000000596,true,NA,NA,NA,NA,NA
bGBzba48,NA,NA,bGBzba48,2020-0188,2021-09-23,12:01:46,13:11:18,NA,incomplete,true,true,NA,0,21,E13_Q10_ansL.png,left,NA,NA,NA,left,771.29999999702,true,NA,NA,NA,NA,NA
bGBzba48,NA,NA,bGBzba48,2020-0188,2021-09-23,12:01:46,13:11:18,NA,incomplete,true,true,NA,0,22,E13_Q4_ansR.png,right,NA,NA,NA,right,1150.5,true,NA,NA,NA,NA,NA
bGBzba48,NA,NA,bGBzba48,2020-0188,2021-09-23,12:01:46,13:11:18,NA,incomplete,true,true,NA,0,23,E13_Q2_ansL.png,left,NA,NA,NA,left,1288.40000000596,true,NA,NA,NA,NA,NA
bGBzba48,NA,NA,bGBzba48,2020-0188,2021-09-23,12:01:46,13:11:18,NA,incomplete,true,true,NA,0,24,E13_Q9_ansR.png,right,NA,NA,NA,right,1218.70000000298,true,NA,NA,NA,NA,NA
bGBzba48,NA,NA,bGBzba48,2020-0188,2021-09-23,12:01:46,13:11:18,NA,incomplete,true,true,NA,0,25,E13_Q5_ansR.png,right,NA,NA,NA,right,1280.60000000894,true,NA,NA,NA,NA,NA
bGBzba48,NA,NA,bGBzba48,2020-0188,2021-09-23,12:01:46,13:11:18,NA,incomplete,true,true,NA,0,26,E13_Q7_ansL.png,left,NA,NA,NA,left,1009.29999999702,true,NA,NA,NA,NA,NA
bGBzba48,NA,NA,bGBzba48,2020-0188,2021-09-23,12:01:46,13:11:18,NA,incomplete,true,true,NA,0,27,E13_Q6_ansR.png,right,NA,NA,NA,right,1219.29999999702,true,NA,NA,NA,NA,NA
bGBzba48,NA,NA,bGBzba48,2020-0188,2021-09-23,12:01:46,13:11:18,NA,incomplete,true,true,NA,0,28,E13_Q8_ansL.png,left,NA,NA,NA,left,1706.19999998808,true,NA,NA,NA,NA,NA
bGBzba48,NA,NA,bGBzba48,2020-0188,2021-09-23,12:01:46,13:11:18,NA,incomplete,true,true,NA,0,29,E13_Q1_ansL.png,left,NA,NA,NA,left,1239.09999999404,true,NA,NA,NA,NA,NA
bGBzba48,NA,NA,bGBzba48,2020-0188,2021-09-23,12:01:46,13:11:18,NA,incomplete,true,NA,true,0,0,NA,left,E13_Q9_ansR.png,E13_Q6_ansR.png,within,NA,NaN,NA,right,2907,0,1,4186.79999999702
bGBzba48,NA,NA,bGBzba48,2020-0188,2021-09-23,12:01:46,13:11:18,NA,incomplete,true,NA,true,0,1,NA,left,E29_Q3_ansR.png,E32_Q2_ansL.png,between,NA,NaN,NA,left,2406.5,1,3,1277.7999999970198
bGBzba48,NA,NA,bGBzba48,2020-0188,2021-09-23,12:01:46,13:11:18,NA,incomplete,true,NA,true,0,2,NA,left,E13_Q3_ansR.png,E13_Q2_ansL.png,within,NA,NaN,NA,left,2755.7000000029802,1,2,4588.4000000059605
bGBzba48,NA,NA,bGBzba48,2020-0188,2021-09-23,12:01:46,13:11:18,NA,incomplete,true,NA,true,0,3,NA,right,E13_Q7_ansL.png,E13_Q2_ansL.png,within,NA,NaN,NA,left,4510.399999991059,0,0,2631.0999999940395
bGBzba48,NA,NA,bGBzba48,2020-0188,2021-09-23,12:01:46,13:11:18,NA,incomplete,true,NA,true,0,4,NA,left,E32_Q3_ansR.png,E32_Q8_ansL.png,within,NA,NaN,NA,left,6377.29999999702,1,0,2032.0999999940395
bGBzba48,NA,NA,bGBzba48,2020-0188,2021-09-23,12:01:46,13:11:18,NA,incomplete,true,NA,true,0,5,NA,right,E13_Q5_ansR.png,E13_Q4_ansR.png,within,NA,NaN,NA,right,4963.5999999940395,1,1,1746.1000000089407
bGBzba48,NA,NA,bGBzba48,2020-0188,2021-09-23,12:01:46,13:11:18,NA,incomplete,true,NA,true,0,6,NA,right,E13_Q9_ansR.png,E13_Q10_ansL.png,within,NA,NaN,NA,right,1776.4000000059605,1,1,2079.2999999970198
bGBzba48,NA,NA,bGBzba48,2020-0188,2021-09-23,12:01:46,13:11:18,NA,incomplete,true,NA,true,0,7,NA,left,E13_Q5_ansR.png,E13_Q8_ansL.png,within,NA,NaN,NA,right,5807.20000000298,0,0,2998.5
bGBzba48,NA,NA,bGBzba48,2020-0188,2021-09-23,12:01:46,13:11:18,NA,incomplete,true,NA,true,0,8,NA,left,E29_Q5_ansR.png,E29_Q3_ansR.png,within,NA,NaN,NA,right,4918.4000000059605,0,0,1377.699999988079
bGBzba48,NA,NA,bGBzba48,2020-0188,2021-09-23,12:01:46,13:11:18,NA,incomplete,true,NA,true,0,9,NA,left,E29_Q1_ansL.png,E29_Q9_ansR.png,within,NA,NaN,NA,right,3940.5,0,0,2155.7000000029802
bGBzba48,NA,NA,bGBzba48,2020-0188,2021-09-23,12:01:46,13:11:18,NA,incomplete,true,NA,true,0,10,NA,right,E13_Q4_ansR.png,E32_Q6_ansR.png,between,NA,NaN,NA,right,1846.5999999940395,1,2,976.7999999970198
bGBzba48,NA,NA,bGBzba48,2020-0188,2021-09-23,12:01:46,13:11:18,NA,incomplete,true,NA,true,0,11,NA,left,E29_Q9_ansR.png,E32_Q4_ansR.png,between,NA,NaN,NA,left,8615.90000000596,1,2,2697.3999999910593
bGBzba48,NA,NA,bGBzba48,2020-0188,2021-09-23,12:01:46,13:11:18,NA,incomplete,true,NA,true,0,12,NA,right,E32_Q7_ansL.png,E32_Q8_ansL.png,within,NA,NaN,NA,left,2903.7999999970198,0,0,1315.4000000059605
bGBzba48,NA,NA,bGBzba48,2020-0188,2021-09-23,12:01:46,13:11:18,NA,incomplete,true,NA,true,0,13,NA,right,E29_Q2_ansL.png,E29_Q7_ansL.png,within,NA,NaN,NA,right,3022.4000000059605,1,0,936
bGBzba48,NA,NA,bGBzba48,2020-0188,2021-09-23,12:01:46,13:11:18,NA,incomplete,true,NA,true,0,14,NA,left,E29_Q2_ansL.png,E29_Q10_ansL.png,within,NA,NaN,NA,right,5178.199999988079,0,0,1787.5
bGBzba48,NA,NA,bGBzba48,2020-0188,2021-09-23,12:01:46,13:11:18,NA,incomplete,true,NA,true,0,15,NA,right,E13_Q3_ansR.png,E32_Q10_ansL.png,between,NA,NaN,NA,right,2006.199999988079,1,2,1039.2000000029802
bGBzba48,NA,NA,bGBzba48,2020-0188,2021-09-23,12:01:46,13:11:18,NA,incomplete,true,NA,true,0,16,NA,left,E32_Q1_ansL.png,E32_Q10_ansL.png,within,NA,NaN,NA,left,5121.5999999940395,1,1,5034.29999999702
bGBzba48,NA,NA,bGBzba48,2020-0188,2021-09-23,12:01:46,13:11:18,NA,incomplete,true,NA,true,0,17,NA,left,E13_Q7_ansL.png,E13_Q1_ansL.png,within,NA,NaN,NA,right,3971.4000000059605,0,1,1421
bGBzba48,NA,NA,bGBzba48,2020-0188,2021-09-23,12:01:46,13:11:18,NA,incomplete,true,NA,true,0,18,NA,left,E29_Q4_ansR.png,E29_Q1_ansL.png,within,NA,NaN,NA,left,3580.5999999940395,1,0,1141.7000000029802
bGBzba48,NA,NA,bGBzba48,2020-0188,2021-09-23,12:01:46,13:11:18,NA,incomplete,true,NA,true,0,19,NA,left,E32_Q4_ansR.png,E32_Q5_ansR.png,within,NA,NaN,NA,left,1761.7000000029802,1,1,1698.3999999910593
bGBzba48,NA,NA,bGBzba48,2020-0188,2021-09-23,12:01:46,13:11:18,NA,incomplete,true,NA,true,0,20,NA,right,E32_Q6_ansR.png,E32_Q9_ansR.png,within,NA,NaN,NA,right,3265,1,0,1691.3999999910593
bGBzba48,NA,NA,bGBzba48,2020-0188,2021-09-23,12:01:46,13:11:18,NA,incomplete,true,NA,true,0,21,NA,left,E32_Q2_ansL.png,E32_Q1_ansL.png,within,NA,NaN,NA,left,1879.7000000029802,1,1,1521.300000011921
bGBzba48,NA,NA,bGBzba48,2020-0188,2021-09-23,12:01:46,13:11:18,NA,incomplete,true,NA,true,0,22,NA,right,E13_Q10_ansL.png,E32_Q7_ansL.png,between,NA,NaN,NA,right,1935.2999999970198,1,2,1191
bGBzba48,NA,NA,bGBzba48,2020-0188,2021-09-23,12:01:46,13:11:18,NA,incomplete,true,NA,true,0,23,NA,left,E29_Q6_ansR.png,E29_Q7_ansL.png,within,NA,NaN,NA,left,1166.8999999910593,1,1,1656.5
bGBzba48,NA,NA,bGBzba48,2020-0188,2021-09-23,12:01:46,13:11:18,NA,incomplete,true,NA,true,0,24,NA,right,E32_Q3_ansR.png,E29_Q10_ansL.png,between,NA,NaN,NA,right,5645.70000000298,1,2,809.3000000119209
bGBzba48,NA,NA,bGBzba48,2020-0188,2021-09-23,12:01:46,13:11:18,NA,incomplete,true,NA,true,0,25,NA,right,E32_Q9_ansR.png,E32_Q5_ansR.png,within,NA,NaN,NA,left,3891.699999988079,0,0,2344.7999999970198
bGBzba48,NA,NA,bGBzba48,2020-0188,2021-09-23,12:01:46,13:11:18,NA,incomplete,true,NA,true,0,26,NA,right,E29_Q5_ansR.png,E29_Q8_ansL.png,within,NA,NaN,NA,left,2803.7999999970198,0,0,1143.9000000059605
bGBzba48,NA,NA,bGBzba48,2020-0188,2021-09-23,12:01:46,13:11:18,NA,incomplete,false,true,NA,1,0,E9_Q1_ansR.png,right,NA,NA,NA,right,2014.59999999404,true,NA,NA,NA,NA,NA
bGBzba48,NA,NA,bGBzba48,2020-0188,2021-09-23,12:01:46,13:11:18,NA,incomplete,false,true,NA,1,1,E9_Q4_ansL.png,left,NA,NA,NA,right,973.70000000298,false,NA,NA,NA,NA,NA
bGBzba48,NA,NA,bGBzba48,2020-0188,2021-09-23,12:01:46,13:11:18,NA,incomplete,false,true,NA,1,2,E9_Q5_ansL.png,left,NA,NA,NA,left,2376.09999999404,true,NA,NA,NA,NA,NA
bGBzba48,NA,NA,bGBzba48,2020-0188,2021-09-23,12:01:46,13:11:18,NA,incomplete,false,true,NA,1,3,E9_Q2_ansR.png,right,NA,NA,NA,right,1905,true,NA,NA,NA,NA,NA
bGBzba48,NA,NA,bGBzba48,2020-0188,2021-09-23,12:01:46,13:11:18,NA,incomplete,false,true,NA,1,4,E9_Q8_ansR.png,right,NA,NA,NA,right,1383.5,true,NA,NA,NA,NA,NA
bGBzba48,NA,NA,bGBzba48,2020-0188,2021-09-23,12:01:46,13:11:18,NA,incomplete,false,true,NA,1,5,E9_Q9_ansL.png,left,NA,NA,NA,left,1255.59999999404,true,NA,NA,NA,NA,NA
bGBzba48,NA,NA,bGBzba48,2020-0188,2021-09-23,12:01:46,13:11:18,NA,incomplete,false,true,NA,1,6,E9_Q3_ansL.png,left,NA,NA,NA,left,1220.69999998808,true,NA,NA,NA,NA,NA
bGBzba48,NA,NA,bGBzba48,2020-0188,2021-09-23,12:01:46,13:11:18,NA,incomplete,false,true,NA,1,7,E9_Q10_ansR.png,right,NA,NA,NA,right,1079,true,NA,NA,NA,NA,NA
bGBzba48,NA,NA,bGBzba48,2020-0188,2021-09-23,12:01:46,13:11:18,NA,incomplete,false,true,NA,1,8,E9_Q7_ansR.png,right,NA,NA,NA,right,1416.20000000298,true,NA,NA,NA,NA,NA
bGBzba48,NA,NA,bGBzba48,2020-0188,2021-09-23,12:01:46,13:11:18,NA,incomplete,false,true,NA,1,9,E9_Q6_ansL.png,left,NA,NA,NA,left,1433.20000000298,true,NA,NA,NA,NA,NA
bGBzba48,NA,NA,bGBzba48,2020-0188,2021-09-23,12:01:46,13:11:18,NA,incomplete,false,true,NA,1,10,E5_Q5_ansR.png,right,NA,NA,NA,right,2041.39999999106,true,NA,NA,NA,NA,NA
bGBzba48,NA,NA,bGBzba48,2020-0188,2021-09-23,12:01:46,13:11:18,NA,incomplete,false,true,NA,1,11,E5_Q8_ansL.png,left,NA,NA,NA,left,1066.59999999404,true,NA,NA,NA,NA,NA
bGBzba48,NA,NA,bGBzba48,2020-0188,2021-09-23,12:01:46,13:11:18,NA,incomplete,false,true,NA,1,12,E5_Q4_ansR.png,right,NA,NA,NA,right,1127.79999999702,true,NA,NA,NA,NA,NA
bGBzba48,NA,NA,bGBzba48,2020-0188,2021-09-23,12:01:46,13:11:18,NA,incomplete,false,true,NA,1,13,E5_Q9_ansR.png,right,NA,NA,NA,right,864.59999999404,true,NA,NA,NA,NA,NA
bGBzba48,NA,NA,bGBzba48,2020-0188,2021-09-23,12:01:46,13:11:18,NA,incomplete,false,true,NA,1,14,E5_Q2_ansL.png,left,NA,NA,NA,left,1214.59999999404,true,NA,NA,NA,NA,NA
bGBzba48,NA,NA,bGBzba48,2020-0188,2021-09-23,12:01:46,13:11:18,NA,incomplete,false,true,NA,1,15,E5_Q1_ansL.png,left,NA,NA,NA,left,1806.30000001192,true,NA,NA,NA,NA,NA
bGBzba48,NA,NA,bGBzba48,2020-0188,2021-09-23,12:01:46,13:11:18,NA,incomplete,false,true,NA,1,16,E5_Q6_ansR.png,right,NA,NA,NA,right,1521.20000000298,true,NA,NA,NA,NA,NA
bGBzba48,NA,NA,bGBzba48,2020-0188,2021-09-23,12:01:46,13:11:18,NA,incomplete,false,true,NA,1,17,E5_Q7_ansL.png,left,NA,NA,NA,left,1643.89999999106,true,NA,NA,NA,NA,NA
bGBzba48,NA,NA,bGBzba48,2020-0188,2021-09-23,12:01:46,13:11:18,NA,incomplete,false,true,NA,1,18,E5_Q3_ansR.png,right,NA,NA,NA,right,1002.09999999404,true,NA,NA,NA,NA,NA
bGBzba48,NA,NA,bGBzba48,2020-0188,2021-09-23,12:01:46,13:11:18,NA,incomplete,false,true,NA,1,19,E5_Q10_ansR.png,right,NA,NA,NA,left,1179.40000000596,false,NA,NA,NA,NA,NA
bGBzba48,NA,NA,bGBzba48,2020-0188,2021-09-23,12:01:46,13:11:18,NA,incomplete,false,true,NA,1,20,E1_Q9_ansL.png,left,NA,NA,NA,left,2082.70000000298,true,NA,NA,NA,NA,NA
bGBzba48,NA,NA,bGBzba48,2020-0188,2021-09-23,12:01:46,13:11:18,NA,incomplete,false,true,NA,1,21,E1_Q8_ansR.png,right,NA,NA,NA,right,2169.09999999404,true,NA,NA,NA,NA,NA
bGBzba48,NA,NA,bGBzba48,2020-0188,2021-09-23,12:01:46,13:11:18,NA,incomplete,false,true,NA,1,22,E1_Q3_ansR.png,right,NA,NA,NA,right,2446.60000000894,true,NA,NA,NA,NA,NA
bGBzba48,NA,NA,bGBzba48,2020-0188,2021-09-23,12:01:46,13:11:18,NA,incomplete,false,true,NA,1,23,E1_Q5_ansR.png,right,NA,NA,NA,right,1505.59999999404,true,NA,NA,NA,NA,NA
bGBzba48,NA,NA,bGBzba48,2020-0188,2021-09-23,12:01:46,13:11:18,NA,incomplete,false,true,NA,1,24,E1_Q6_ansR.png,right,NA,NA,NA,right,1542.70000000298,true,NA,NA,NA,NA,NA
bGBzba48,NA,NA,bGBzba48,2020-0188,2021-09-23,12:01:46,13:11:18,NA,incomplete,false,true,NA,1,25,E1_Q7_ansL.png,left,NA,NA,NA,left,1623.59999999404,true,NA,NA,NA,NA,NA
bGBzba48,NA,NA,bGBzba48,2020-0188,2021-09-23,12:01:46,13:11:18,NA,incomplete,false,true,NA,1,26,E1_Q2_ansL.png,left,NA,NA,NA,left,2442.70000000298,true,NA,NA,NA,NA,NA
bGBzba48,NA,NA,bGBzba48,2020-0188,2021-09-23,12:01:46,13:11:18,NA,incomplete,false,true,NA,1,27,E1_Q10_ansR.png,right,NA,NA,NA,right,2363.70000000298,true,NA,NA,NA,NA,NA
bGBzba48,NA,NA,bGBzba48,2020-0188,2021-09-23,12:01:46,13:11:18,NA,incomplete,false,true,NA,1,28,E1_Q4_ansL.png,left,NA,NA,NA,left,1567.29999999702,true,NA,NA,NA,NA,NA
bGBzba48,NA,NA,bGBzba48,2020-0188,2021-09-23,12:01:46,13:11:18,NA,incomplete,false,true,NA,1,29,E1_Q1_ansL.png,left,NA,NA,NA,left,1784.60000000894,true,NA,NA,NA,NA,NA
bGBzba48,NA,NA,bGBzba48,2020-0188,2021-09-23,12:01:46,13:11:18,NA,incomplete,false,NA,true,1,0,NA,left,E1_Q6_ansR.png,E1_Q10_ansR.png,within,NA,NaN,NA,left,8883.89999999106,1,0,1450.5
bGBzba48,NA,NA,bGBzba48,2020-0188,2021-09-23,12:01:46,13:11:18,NA,incomplete,false,NA,true,1,1,NA,right,E5_Q2_ansL.png,E5_Q8_ansL.png,within,NA,NaN,NA,right,2300.7000000029802,1,1,975.2000000029802
bGBzba48,NA,NA,bGBzba48,2020-0188,2021-09-23,12:01:46,13:11:18,NA,incomplete,false,NA,true,1,2,NA,left,E9_Q6_ansL.png,E5_Q4_ansR.png,between,NA,NaN,NA,left,3829.800000011921,1,2,2399.7000000029802
bGBzba48,NA,NA,bGBzba48,2020-0188,2021-09-23,12:01:46,13:11:18,NA,incomplete,false,NA,true,1,3,NA,right,E1_Q8_ansR.png,E5_Q3_ansR.png,between,NA,NaN,NA,right,1534,1,3,1717
bGBzba48,NA,NA,bGBzba48,2020-0188,2021-09-23,12:01:46,13:11:18,NA,incomplete,false,NA,true,1,4,NA,left,E5_Q1_ansL.png,E5_Q3_ansR.png,within,NA,NaN,NA,left,3381.5999999940395,1,1,1144.5
bGBzba48,NA,NA,bGBzba48,2020-0188,2021-09-23,12:01:46,13:11:18,NA,incomplete,false,NA,true,1,5,NA,right,E1_Q3_ansR.png,E5_Q10_ansR.png,between,NA,NaN,NA,right,982.7000000029802,1,3,2423.7000000029802
bGBzba48,NA,NA,bGBzba48,2020-0188,2021-09-23,12:01:46,13:11:18,NA,incomplete,false,NA,true,1,6,NA,right,E5_Q8_ansL.png,E9_Q7_ansR.png,between,NA,NaN,NA,right,1418.5,1,2,967.4000000059605
bGBzba48,NA,NA,bGBzba48,2020-0188,2021-09-23,12:01:46,13:11:18,NA,incomplete,false,NA,true,1,7,NA,right,E5_Q9_ansR.png,E5_Q5_ansR.png,within,NA,NaN,NA,right,2468.9000000059605,1,0,1489.5999999940395
bGBzba48,NA,NA,bGBzba48,2020-0188,2021-09-23,12:01:46,13:11:18,NA,incomplete,false,NA,true,1,8,NA,right,E1_Q9_ansL.png,E5_Q7_ansL.png,between,NA,NaN,NA,right,919.7999999970198,1,3,1182.7999999970198
bGBzba48,NA,NA,bGBzba48,2020-0188,2021-09-23,12:01:46,13:11:18,NA,incomplete,false,NA,true,1,9,NA,left,E5_Q2_ansL.png,E5_Q7_ansL.png,within,NA,NaN,NA,left,1708.2999999970198,1,1,1851.7999999970198
bGBzba48,NA,NA,bGBzba48,2020-0188,2021-09-23,12:01:46,13:11:18,NA,incomplete,false,NA,true,1,10,NA,left,E9_Q4_ansL.png,E9_Q8_ansR.png,within,NA,NaN,NA,left,2721.300000011921,1,0,2244.0999999940395
bGBzba48,NA,NA,bGBzba48,2020-0188,2021-09-23,12:01:46,13:11:18,NA,incomplete,false,NA,true,1,11,NA,left,E1_Q3_ansR.png,E1_Q7_ansL.png,within,NA,NaN,NA,left,5351.70000000298,1,0,1017.7000000029802
bGBzba48,NA,NA,bGBzba48,2020-0188,2021-09-23,12:01:46,13:11:18,NA,incomplete,false,NA,true,1,12,NA,right,E5_Q1_ansL.png,E5_Q4_ansR.png,within,NA,NaN,NA,right,2954.7999999970198,1,0,1442.8999999910593
bGBzba48,NA,NA,bGBzba48,2020-0188,2021-09-23,12:01:46,13:11:18,NA,incomplete,false,NA,true,1,13,NA,left,E9_Q10_ansR.png,E5_Q5_ansR.png,between,NA,NaN,NA,left,1472.300000011921,1,2,2158.2999999970198
bGBzba48,NA,NA,bGBzba48,2020-0188,2021-09-23,12:01:46,13:11:18,NA,incomplete,false,NA,true,1,14,NA,right,E9_Q7_ansR.png,E9_Q9_ansL.png,within,NA,NaN,NA,left,2608,0,0,919.2000000029802
bGBzba48,NA,NA,bGBzba48,2020-0188,2021-09-23,12:01:46,13:11:18,NA,incomplete,false,NA,true,1,15,NA,right,E1_Q2_ansL.png,E1_Q5_ansR.png,within,NA,NaN,NA,left,15921.70000000298,0,0,1183.3999999910593
bGBzba48,NA,NA,bGBzba48,2020-0188,2021-09-23,12:01:46,13:11:18,NA,incomplete,false,NA,true,1,16,NA,left,E9_Q8_ansR.png,E9_Q10_ansR.png,within,NA,NaN,NA,right,1745.5999999940395,0,0,857.2000000029802
bGBzba48,NA,NA,bGBzba48,2020-0188,2021-09-23,12:01:46,13:11:18,NA,incomplete,false,NA,true,1,17,NA,left,E9_Q1_ansR.png,E9_Q2_ansR.png,within,NA,NaN,NA,left,1207.5999999940395,1,1,1109.5999999940395
bGBzba48,NA,NA,bGBzba48,2020-0188,2021-09-23,12:01:46,13:11:18,NA,incomplete,false,NA,true,1,18,NA,right,E9_Q6_ansL.png,E9_Q3_ansL.png,within,NA,NaN,NA,right,1717.0999999940395,1,1,879.2999999970198
bGBzba48,NA,NA,bGBzba48,2020-0188,2021-09-23,12:01:46,13:11:18,NA,incomplete,false,NA,true,1,19,NA,left,E1_Q8_ansR.png,E1_Q6_ansR.png,within,NA,NaN,NA,left,4944,1,0,1959.9000000059605
bGBzba48,NA,NA,bGBzba48,2020-0188,2021-09-23,12:01:46,13:11:18,NA,incomplete,false,NA,true,1,20,NA,left,E9_Q5_ansL.png,E9_Q9_ansL.png,within,NA,NaN,NA,left,1744.7000000029802,1,0,2198.7999999970198
bGBzba48,NA,NA,bGBzba48,2020-0188,2021-09-23,12:01:46,13:11:18,NA,incomplete,false,NA,true,1,21,NA,left,E5_Q6_ansR.png,E5_Q10_ansR.png,within,NA,NaN,NA,left,2980.5,1,0,2120.4000000059605
bGBzba48,NA,NA,bGBzba48,2020-0188,2021-09-23,12:01:46,13:11:18,NA,incomplete,false,NA,true,1,22,NA,left,E1_Q2_ansL.png,E1_Q1_ansL.png,within,NA,NaN,NA,right,9404.40000000596,0,0,809.5
bGBzba48,NA,NA,bGBzba48,2020-0188,2021-09-23,12:01:46,13:11:18,NA,incomplete,false,NA,true,1,23,NA,left,E5_Q9_ansR.png,E5_Q6_ansR.png,within,NA,NaN,NA,right,4431.899999991059,0,0,910.5
bGBzba48,NA,NA,bGBzba48,2020-0188,2021-09-23,12:01:46,13:11:18,NA,incomplete,false,NA,true,1,24,NA,right,E1_Q5_ansR.png,E1_Q9_ansL.png,within,NA,NaN,NA,right,3783.7999999970198,1,1,1468.7999999970198
bGBzba48,NA,NA,bGBzba48,2020-0188,2021-09-23,12:01:46,13:11:18,NA,incomplete,false,NA,true,1,25,NA,left,E1_Q7_ansL.png,E1_Q4_ansL.png,within,NA,NaN,NA,right,2906.0999999940395,0,0,1570.2999999970198
bGBzba48,NA,NA,bGBzba48,2020-0188,2021-09-23,12:01:46,13:11:18,NA,incomplete,false,NA,true,1,26,NA,right,E9_Q3_ansL.png,E9_Q2_ansR.png,within,NA,NaN,NA,right,4092.2000000029802,1,0,1658.5
bGBzba48,NA,NA,bGBzba48,2020-0188,2021-09-23,12:01:46,13:11:18,NA,incomplete,false,true,NA,2,0,E10_Q1_ansL.png,left,NA,NA,NA,left,2930.90000000596,true,NA,NA,NA,NA,NA
bGBzba48,NA,NA,bGBzba48,2020-0188,2021-09-23,12:01:46,13:11:18,NA,incomplete,false,true,NA,2,1,E10_Q8_ansR.png,right,NA,NA,NA,none,0,false,NA,NA,NA,NA,NA
bGBzba48,NA,NA,bGBzba48,2020-0188,2021-09-23,12:01:46,13:11:18,NA,incomplete,false,true,NA,2,2,E10_Q7_ansR.png,right,NA,NA,NA,right,2127.5,true,NA,NA,NA,NA,NA
bGBzba48,NA,NA,bGBzba48,2020-0188,2021-09-23,12:01:46,13:11:18,NA,incomplete,false,true,NA,2,3,E10_Q3_ansL.png,left,NA,NA,NA,left,3066.70000000298,true,NA,NA,NA,NA,NA
bGBzba48,NA,NA,bGBzba48,2020-0188,2021-09-23,12:01:46,13:11:18,NA,incomplete,false,true,NA,2,4,E10_Q9_ansL.png,left,NA,NA,NA,left,2136.90000000596,true,NA,NA,NA,NA,NA
bGBzba48,NA,NA,bGBzba48,2020-0188,2021-09-23,12:01:46,13:11:18,NA,incomplete,false,true,NA,2,5,E10_Q4_ansL.png,left,NA,NA,NA,right,2498.59999999404,false,NA,NA,NA,NA,NA
bGBzba48,NA,NA,bGBzba48,2020-0188,2021-09-23,12:01:46,13:11:18,NA,incomplete,false,true,NA,2,6,E10_Q10_ansR.png,right,NA,NA,NA,right,2724.39999999106,true,NA,NA,NA,NA,NA
bGBzba48,NA,NA,bGBzba48,2020-0188,2021-09-23,12:01:46,13:11:18,NA,incomplete,false,true,NA,2,7,E10_Q2_ansL.png,left,NA,NA,NA,left,1545.70000000298,true,NA,NA,NA,NA,NA
bGBzba48,NA,NA,bGBzba48,2020-0188,2021-09-23,12:01:46,13:11:18,NA,incomplete,false,true,NA,2,8,E10_Q6_ansR.png,right,NA,NA,NA,right,1259,true,NA,NA,NA,NA,NA
bGBzba48,NA,NA,bGBzba48,2020-0188,2021-09-23,12:01:46,13:11:18,NA,incomplete,false,true,NA,2,9,E10_Q5_ansR.png,right,NA,NA,NA,right,1933.20000000298,true,NA,NA,NA,NA,NA
bGBzba48,NA,NA,bGBzba48,2020-0188,2021-09-23,12:01:46,13:11:18,NA,incomplete,false,true,NA,2,10,E31_Q3_ansL.png,left,NA,NA,NA,left,2796.5,true,NA,NA,NA,NA,NA
bGBzba48,NA,NA,bGBzba48,2020-0188,2021-09-23,12:01:46,13:11:18,NA,incomplete,false,true,NA,2,11,E31_Q1_ansR.png,right,NA,NA,NA,right,2496.70000000298,true,NA,NA,NA,NA,NA
bGBzba48,NA,NA,bGBzba48,2020-0188,2021-09-23,12:01:46,13:11:18,NA,incomplete,false,true,NA,2,12,E31_Q7_ansR.png,right,NA,NA,NA,right,1560.40000000596,true,NA,NA,NA,NA,NA
bGBzba48,NA,NA,bGBzba48,2020-0188,2021-09-23,12:01:46,13:11:18,NA,incomplete,false,true,NA,2,13,E31_Q8_ansR.png,right,NA,NA,NA,right,1021.5,true,NA,NA,NA,NA,NA
bGBzba48,NA,NA,bGBzba48,2020-0188,2021-09-23,12:01:46,13:11:18,NA,incomplete,false,true,NA,2,14,E31_Q4_ansL.png,left,NA,NA,NA,left,1230.5,true,NA,NA,NA,NA,NA
bGBzba48,NA,NA,bGBzba48,2020-0188,2021-09-23,12:01:46,13:11:18,NA,incomplete,false,true,NA,2,15,E31_Q9_ansL.png,left,NA,NA,NA,left,1295.79999999702,true,NA,NA,NA,NA,NA
bGBzba48,NA,NA,bGBzba48,2020-0188,2021-09-23,12:01:46,13:11:18,NA,incomplete,false,true,NA,2,16,E31_Q10_ansR.png,right,NA,NA,NA,right,1214.5,true,NA,NA,NA,NA,NA
bGBzba48,NA,NA,bGBzba48,2020-0188,2021-09-23,12:01:46,13:11:18,NA,incomplete,false,true,NA,2,17,E31_Q5_ansL.png,left,NA,NA,NA,left,1275.29999999702,true,NA,NA,NA,NA,NA
bGBzba48,NA,NA,bGBzba48,2020-0188,2021-09-23,12:01:46,13:11:18,NA,incomplete,false,true,NA,2,18,E31_Q2_ansR.png,right,NA,NA,NA,right,1083.20000000298,true,NA,NA,NA,NA,NA
bGBzba48,NA,NA,bGBzba48,2020-0188,2021-09-23,12:01:46,13:11:18,NA,incomplete,false,true,NA,2,19,E31_Q6_ansL.png,left,NA,NA,NA,left,925.5,true,NA,NA,NA,NA,NA
bGBzba48,NA,NA,bGBzba48,2020-0188,2021-09-23,12:01:46,13:11:18,NA,incomplete,false,true,NA,2,20,E14_Q2_ansL.png,left,NA,NA,NA,left,1380.70000000298,true,NA,NA,NA,NA,NA
bGBzba48,NA,NA,bGBzba48,2020-0188,2021-09-23,12:01:46,13:11:18,NA,incomplete,false,true,NA,2,21,E14_Q3_ansR.png,right,NA,NA,NA,right,921.600000008941,true,NA,NA,NA,NA,NA
bGBzba48,NA,NA,bGBzba48,2020-0188,2021-09-23,12:01:46,13:11:18,NA,incomplete,false,true,NA,2,22,E14_Q1_ansL.png,left,NA,NA,NA,left,886.70000000298,true,NA,NA,NA,NA,NA
bGBzba48,NA,NA,bGBzba48,2020-0188,2021-09-23,12:01:46,13:11:18,NA,incomplete,false,true,NA,2,23,E14_Q8_ansL.png,left,NA,NA,NA,left,2037.20000000298,true,NA,NA,NA,NA,NA
bGBzba48,NA,NA,bGBzba48,2020-0188,2021-09-23,12:01:46,13:11:18,NA,incomplete,false,true,NA,2,24,E14_Q9_ansR.png,right,NA,NA,NA,right,1157.40000000596,true,NA,NA,NA,NA,NA
bGBzba48,NA,NA,bGBzba48,2020-0188,2021-09-23,12:01:46,13:11:18,NA,incomplete,false,true,NA,2,25,E14_Q6_ansR.png,right,NA,NA,NA,right,1224.79999999702,true,NA,NA,NA,NA,NA
bGBzba48,NA,NA,bGBzba48,2020-0188,2021-09-23,12:01:46,13:11:18,NA,incomplete,false,true,NA,2,26,E14_Q10_ansL.png,left,NA,NA,NA,left,1000.20000000298,true,NA,NA,NA,NA,NA
bGBzba48,NA,NA,bGBzba48,2020-0188,2021-09-23,12:01:46,13:11:18,NA,incomplete,false,true,NA,2,27,E14_Q4_ansR.png,right,NA,NA,NA,right,785.199999988079,true,NA,NA,NA,NA,NA
bGBzba48,NA,NA,bGBzba48,2020-0188,2021-09-23,12:01:46,13:11:18,NA,incomplete,false,true,NA,2,28,E14_Q5_ansR.png,right,NA,NA,NA,right,1341.89999999106,true,NA,NA,NA,NA,NA
bGBzba48,NA,NA,bGBzba48,2020-0188,2021-09-23,12:01:46,13:11:18,NA,incomplete,false,true,NA,2,29,E14_Q7_ansL.png,left,NA,NA,NA,left,1458.40000000596,true,NA,NA,NA,NA,NA
bGBzba48,NA,NA,bGBzba48,2020-0188,2021-09-23,12:01:46,13:11:18,NA,incomplete,false,NA,true,2,0,NA,right,E14_Q10_ansL.png,E14_Q8_ansL.png,within,NA,NaN,NA,right,1508.6000000089407,1,1,1317
bGBzba48,NA,NA,bGBzba48,2020-0188,2021-09-23,12:01:46,13:11:18,NA,incomplete,false,NA,true,2,1,NA,right,E10_Q5_ansR.png,E10_Q10_ansR.png,within,NA,NaN,NA,right,1909.6000000089407,1,1,903.5
bGBzba48,NA,NA,bGBzba48,2020-0188,2021-09-23,12:01:46,13:11:18,NA,incomplete,false,NA,true,2,2,NA,right,E10_Q10_ansR.png,E10_Q3_ansL.png,within,NA,NaN,NA,right,1555.5,1,0,1179.4000000059605
bGBzba48,NA,NA,bGBzba48,2020-0188,2021-09-23,12:01:46,13:11:18,NA,incomplete,false,NA,true,2,3,NA,right,E14_Q4_ansR.png,E14_Q9_ansR.png,within,NA,NaN,NA,right,1867.9000000059605,1,1,1286.5999999940395
bGBzba48,NA,NA,bGBzba48,2020-0188,2021-09-23,12:01:46,13:11:18,NA,incomplete,false,NA,true,2,4,NA,right,E14_Q6_ansR.png,E14_Q1_ansL.png,within,NA,NaN,NA,right,2169.7000000029802,1,0,1592
bGBzba48,NA,NA,bGBzba48,2020-0188,2021-09-23,12:01:46,13:11:18,NA,incomplete,false,NA,true,2,5,NA,right,E31_Q2_ansR.png,E31_Q9_ansL.png,within,NA,NaN,NA,left,4496.70000000298,0,0,3343.300000011921
bGBzba48,NA,NA,bGBzba48,2020-0188,2021-09-23,12:01:46,13:11:18,NA,incomplete,false,NA,true,2,6,NA,right,E31_Q8_ansR.png,E31_Q3_ansL.png,within,NA,NaN,NA,right,4085.7000000029802,1,0,1877.7999999970198
bGBzba48,NA,NA,bGBzba48,2020-0188,2021-09-23,12:01:46,13:11:18,NA,incomplete,false,NA,true,2,7,NA,right,E14_Q8_ansL.png,E14_Q2_ansL.png,within,NA,NaN,NA,right,2388.800000011921,1,1,1052
bGBzba48,NA,NA,bGBzba48,2020-0188,2021-09-23,12:01:46,13:11:18,NA,incomplete,false,NA,true,2,8,NA,right,E31_Q3_ansL.png,E10_Q2_ansL.png,between,NA,NaN,NA,right,2529.2000000029802,1,2,1570.1000000089407
bGBzba48,NA,NA,bGBzba48,2020-0188,2021-09-23,12:01:46,13:11:18,NA,incomplete,false,NA,true,2,9,NA,left,E14_Q3_ansR.png,E14_Q9_ansR.png,within,NA,NaN,NA,right,3493.1000000089407,0,0,991.6000000089407
bGBzba48,NA,NA,bGBzba48,2020-0188,2021-09-23,12:01:46,13:11:18,NA,incomplete,false,NA,true,2,10,NA,right,E31_Q6_ansL.png,E31_Q10_ansR.png,within,NA,NaN,NA,right,2327.3999999910593,1,0,2080.300000011921
bGBzba48,NA,NA,bGBzba48,2020-0188,2021-09-23,12:01:46,13:11:18,NA,incomplete,false,NA,true,2,11,NA,left,E31_Q2_ansR.png,E14_Q3_ansR.png,between,NA,NaN,NA,left,4314.70000000298,1,2,1098
bGBzba48,NA,NA,bGBzba48,2020-0188,2021-09-23,12:01:46,13:11:18,NA,incomplete,false,NA,true,2,12,NA,left,E14_Q10_ansL.png,E14_Q7_ansL.png,within,NA,NaN,NA,left,1357.0999999940395,1,1,1032.2000000029802
bGBzba48,NA,NA,bGBzba48,2020-0188,2021-09-23,12:01:46,13:11:18,NA,incomplete,false,NA,true,2,13,NA,left,E31_Q8_ansR.png,E31_Q10_ansR.png,within,NA,NaN,NA,left,1316.4000000059605,1,0,995.3000000119209
bGBzba48,NA,NA,bGBzba48,2020-0188,2021-09-23,12:01:46,13:11:18,NA,incomplete,false,NA,true,2,14,NA,left,E31_Q5_ansL.png,E14_Q2_ansL.png,between,NA,NaN,NA,left,1851.7999999970198,1,2,828
bGBzba48,NA,NA,bGBzba48,2020-0188,2021-09-23,12:01:46,13:11:18,NA,incomplete,false,NA,true,2,15,NA,left,E10_Q8_ansR.png,E10_Q9_ansL.png,within,NA,NaN,NA,left,2540.6000000089407,1,0,926.3999999910593
bGBzba48,NA,NA,bGBzba48,2020-0188,2021-09-23,12:01:46,13:11:18,NA,incomplete,false,NA,true,2,16,NA,left,E31_Q6_ansL.png,E14_Q1_ansL.png,between,NA,NaN,NA,left,2008.7999999970198,1,2,2137.1000000089407
bGBzba48,NA,NA,bGBzba48,2020-0188,2021-09-23,12:01:46,13:11:18,NA,incomplete,false,NA,true,2,17,NA,left,E31_Q4_ansL.png,E31_Q5_ansL.png,within,NA,NaN,NA,left,2282.699999988079,1,0,2740.8999999910593
bGBzba48,NA,NA,bGBzba48,2020-0188,2021-09-23,12:01:46,13:11:18,NA,incomplete,false,NA,true,2,18,NA,left,E10_Q9_ansL.png,E10_Q2_ansL.png,within,NA,NaN,NA,right,2415.9000000059605,0,1,2696.2000000029802
bGBzba48,NA,NA,bGBzba48,2020-0188,2021-09-23,12:01:46,13:11:18,NA,incomplete,false,NA,true,2,19,NA,right,E10_Q6_ansR.png,E10_Q4_ansL.png,within,NA,NaN,NA,right,2026.7999999970198,1,1,2611.9000000059605
bGBzba48,NA,NA,bGBzba48,2020-0188,2021-09-23,12:01:46,13:11:18,NA,incomplete,false,NA,true,2,20,NA,right,E31_Q9_ansL.png,E31_Q7_ansR.png,within,NA,NaN,NA,left,5975,0,0,1209.5
bGBzba48,NA,NA,bGBzba48,2020-0188,2021-09-23,12:01:46,13:11:18,NA,incomplete,false,NA,true,2,21,NA,left,E10_Q6_ansR.png,E31_Q1_ansR.png,between,NA,NaN,NA,left,1935.3999999910593,1,2,912.5
bGBzba48,NA,NA,bGBzba48,2020-0188,2021-09-23,12:01:46,13:11:18,NA,incomplete,false,NA,true,2,22,NA,left,E10_Q7_ansR.png,E10_Q4_ansL.png,within,NA,NaN,NA,right,2380.0999999940395,0,0,1198.8999999910593
bGBzba48,NA,NA,bGBzba48,2020-0188,2021-09-23,12:01:46,13:11:18,NA,incomplete,false,NA,true,2,23,NA,right,E10_Q3_ansL.png,E10_Q1_ansL.png,within,NA,NaN,NA,right,2210,1,1,1466.8999999910593
bGBzba48,NA,NA,bGBzba48,2020-0188,2021-09-23,12:01:46,13:11:18,NA,incomplete,false,NA,true,2,24,NA,left,E10_Q5_ansR.png,E31_Q7_ansR.png,between,NA,NaN,NA,left,1162.800000011921,1,2,880.5
bGBzba48,NA,NA,bGBzba48,2020-0188,2021-09-23,12:01:46,13:11:18,NA,incomplete,false,NA,true,2,25,NA,right,E14_Q5_ansR.png,E14_Q6_ansR.png,within,NA,NaN,NA,right,1669.2000000029802,1,1,910.2999999970198
bGBzba48,NA,NA,bGBzba48,2020-0188,2021-09-23,12:01:46,13:11:18,NA,incomplete,false,NA,true,2,26,NA,right,E31_Q4_ansL.png,E31_Q1_ansR.png,within,NA,NaN,NA,right,1492.3999999910593,1,0,1101.7000000029802
bGBzba48,NA,NA,bGBzba48,2020-0188,2021-09-23,12:01:46,13:11:18,NA,incomplete,false,true,NA,3,0,E6_Q6_ansR.png,right,NA,NA,NA,right,1440.89999999106,true,NA,NA,NA,NA,NA
bGBzba48,NA,NA,bGBzba48,2020-0188,2021-09-23,12:01:46,13:11:18,NA,incomplete,false,true,NA,3,1,E6_Q8_ansL.png,left,NA,NA,NA,left,1599.60000000894,true,NA,NA,NA,NA,NA
bGBzba48,NA,NA,bGBzba48,2020-0188,2021-09-23,12:01:46,13:11:18,NA,incomplete,false,true,NA,3,2,E6_Q2_ansL.png,left,NA,NA,NA,left,1473.70000000298,true,NA,NA,NA,NA,NA
bGBzba48,NA,NA,bGBzba48,2020-0188,2021-09-23,12:01:46,13:11:18,NA,incomplete,false,true,NA,3,3,E6_Q9_ansL.png,left,NA,NA,NA,left,1112.90000000596,true,NA,NA,NA,NA,NA
bGBzba48,NA,NA,bGBzba48,2020-0188,2021-09-23,12:01:46,13:11:18,NA,incomplete,false,true,NA,3,4,E6_Q7_ansL.png,left,NA,NA,NA,left,1106.70000000298,true,NA,NA,NA,NA,NA
bGBzba48,NA,NA,bGBzba48,2020-0188,2021-09-23,12:01:46,13:11:18,NA,incomplete,false,true,NA,3,5,E6_Q4_ansR.png,right,NA,NA,NA,right,1260.59999999404,true,NA,NA,NA,NA,NA
bGBzba48,NA,NA,bGBzba48,2020-0188,2021-09-23,12:01:46,13:11:18,NA,incomplete,false,true,NA,3,6,E6_Q10_ansL.png,left,NA,NA,NA,left,1389.59999999404,true,NA,NA,NA,NA,NA
bGBzba48,NA,NA,bGBzba48,2020-0188,2021-09-23,12:01:46,13:11:18,NA,incomplete,false,true,NA,3,7,E6_Q1_ansL.png,left,NA,NA,NA,left,1850.09999999404,true,NA,NA,NA,NA,NA
bGBzba48,NA,NA,bGBzba48,2020-0188,2021-09-23,12:01:46,13:11:18,NA,incomplete,false,true,NA,3,8,E6_Q3_ansR.png,right,NA,NA,NA,right,1150.79999999702,true,NA,NA,NA,NA,NA
bGBzba48,NA,NA,bGBzba48,2020-0188,2021-09-23,12:01:46,13:11:18,NA,incomplete,false,true,NA,3,9,E6_Q5_ansR.png,right,NA,NA,NA,right,1326.40000000596,true,NA,NA,NA,NA,NA
bGBzba48,NA,NA,bGBzba48,2020-0188,2021-09-23,12:01:46,13:11:18,NA,incomplete,false,true,NA,3,10,E17_Q10_ansL.png,left,NA,NA,NA,left,1711.5,true,NA,NA,NA,NA,NA
bGBzba48,NA,NA,bGBzba48,2020-0188,2021-09-23,12:01:46,13:11:18,NA,incomplete,false,true,NA,3,11,E17_Q2_ansL.png,left,NA,NA,NA,left,1617.09999999404,true,NA,NA,NA,NA,NA
bGBzba48,NA,NA,bGBzba48,2020-0188,2021-09-23,12:01:46,13:11:18,NA,incomplete,false,true,NA,3,12,E17_Q5_ansR.png,right,NA,NA,NA,right,1541.69999998808,true,NA,NA,NA,NA,NA
bGBzba48,NA,NA,bGBzba48,2020-0188,2021-09-23,12:01:46,13:11:18,NA,incomplete,false,true,NA,3,13,E17_Q9_ansR.png,right,NA,NA,NA,right,1491,true,NA,NA,NA,NA,NA
bGBzba48,NA,NA,bGBzba48,2020-0188,2021-09-23,12:01:46,13:11:18,NA,incomplete,false,true,NA,3,14,E17_Q4_ansR.png,right,NA,NA,NA,right,936.90000000596,true,NA,NA,NA,NA,NA
bGBzba48,NA,NA,bGBzba48,2020-0188,2021-09-23,12:01:46,13:11:18,NA,incomplete,false,true,NA,3,15,E17_Q8_ansL.png,left,NA,NA,NA,left,708.29999999702,true,NA,NA,NA,NA,NA
bGBzba48,NA,NA,bGBzba48,2020-0188,2021-09-23,12:01:46,13:11:18,NA,incomplete,false,true,NA,3,16,E17_Q3_ansR.png,right,NA,NA,NA,right,941.5,true,NA,NA,NA,NA,NA
bGBzba48,NA,NA,bGBzba48,2020-0188,2021-09-23,12:01:46,13:11:18,NA,incomplete,false,true,NA,3,17,E17_Q1_ansL.png,left,NA,NA,NA,left,1136.19999998808,true,NA,NA,NA,NA,NA
bGBzba48,NA,NA,bGBzba48,2020-0188,2021-09-23,12:01:46,13:11:18,NA,incomplete,false,true,NA,3,18,E17_Q7_ansL.png,left,NA,NA,NA,left,1078.5,true,NA,NA,NA,NA,NA
bGBzba48,NA,NA,bGBzba48,2020-0188,2021-09-23,12:01:46,13:11:18,NA,incomplete,false,true,NA,3,19,E17_Q6_ansR.png,right,NA,NA,NA,right,1169.70000000298,true,NA,NA,NA,NA,NA
bGBzba48,NA,NA,bGBzba48,2020-0188,2021-09-23,12:01:46,13:11:18,NA,incomplete,false,true,NA,3,20,E20_Q3_ansR.png,right,NA,NA,NA,right,1809.10000000894,true,NA,NA,NA,NA,NA
bGBzba48,NA,NA,bGBzba48,2020-0188,2021-09-23,12:01:46,13:11:18,NA,incomplete,false,true,NA,3,21,E20_Q10_ansL.png,left,NA,NA,NA,left,1610.39999999106,true,NA,NA,NA,NA,NA
bGBzba48,NA,NA,bGBzba48,2020-0188,2021-09-23,12:01:46,13:11:18,NA,incomplete,false,true,NA,3,22,E20_Q7_ansL.png,left,NA,NA,NA,left,1173.10000000894,true,NA,NA,NA,NA,NA
bGBzba48,NA,NA,bGBzba48,2020-0188,2021-09-23,12:01:46,13:11:18,NA,incomplete,false,true,NA,3,23,E20_Q8_ansL.png,left,NA,NA,NA,left,1726.70000000298,true,NA,NA,NA,NA,NA
bGBzba48,NA,NA,bGBzba48,2020-0188,2021-09-23,12:01:46,13:11:18,NA,incomplete,false,true,NA,3,24,E20_Q5_ansR.png,right,NA,NA,NA,right,1283.90000000596,true,NA,NA,NA,NA,NA
bGBzba48,NA,NA,bGBzba48,2020-0188,2021-09-23,12:01:46,13:11:18,NA,incomplete,false,true,NA,3,25,E20_Q4_ansR.png,right,NA,NA,NA,right,1369.90000000596,true,NA,NA,NA,NA,NA
bGBzba48,NA,NA,bGBzba48,2020-0188,2021-09-23,12:01:46,13:11:18,NA,incomplete,false,true,NA,3,26,E20_Q9_ansR.png,right,NA,NA,NA,right,1343.90000000596,true,NA,NA,NA,NA,NA
bGBzba48,NA,NA,bGBzba48,2020-0188,2021-09-23,12:01:46,13:11:18,NA,incomplete,false,true,NA,3,27,E20_Q6_ansR.png,right,NA,NA,NA,right,1321.30000001192,true,NA,NA,NA,NA,NA
bGBzba48,NA,NA,bGBzba48,2020-0188,2021-09-23,12:01:46,13:11:18,NA,incomplete,false,true,NA,3,28,E20_Q2_ansL.png,left,NA,NA,NA,left,1321.19999998808,true,NA,NA,NA,NA,NA
bGBzba48,NA,NA,bGBzba48,2020-0188,2021-09-23,12:01:46,13:11:18,NA,incomplete,false,true,NA,3,29,E20_Q1_ansL.png,left,NA,NA,NA,left,1370.80000001192,true,NA,NA,NA,NA,NA
bGBzba48,NA,NA,bGBzba48,2020-0188,2021-09-23,12:01:46,13:11:18,NA,incomplete,false,NA,true,3,0,NA,left,E6_Q4_ansR.png,E6_Q3_ansR.png,within,NA,NaN,NA,left,1817.6000000089407,1,1,2023.2999999970198
bGBzba48,NA,NA,bGBzba48,2020-0188,2021-09-23,12:01:46,13:11:18,NA,incomplete,false,NA,true,3,1,NA,right,E20_Q10_ansL.png,E17_Q7_ansL.png,between,NA,NaN,NA,right,3009.5999999940395,1,2,2065.4000000059605
bGBzba48,NA,NA,bGBzba48,2020-0188,2021-09-23,12:01:46,13:11:18,NA,incomplete,false,NA,true,3,2,NA,left,E6_Q5_ansR.png,E17_Q5_ansR.png,between,NA,NaN,NA,right,3639.2000000029802,0,0,1487.5
bGBzba48,NA,NA,bGBzba48,2020-0188,2021-09-23,12:01:46,13:11:18,NA,incomplete,false,NA,true,3,3,NA,left,E6_Q9_ansL.png,E6_Q10_ansL.png,within,NA,NaN,NA,left,3644.7000000029802,1,1,825
bGBzba48,NA,NA,bGBzba48,2020-0188,2021-09-23,12:01:46,13:11:18,NA,incomplete,false,NA,true,3,4,NA,left,E20_Q10_ansL.png,E20_Q5_ansR.png,within,NA,NaN,NA,left,2119.9000000059605,1,1,1126.0999999940395
bGBzba48,NA,NA,bGBzba48,2020-0188,2021-09-23,12:01:46,13:11:18,NA,incomplete,false,NA,true,3,5,NA,right,E17_Q2_ansL.png,E6_Q3_ansR.png,between,NA,NaN,NA,right,5809.5,1,2,1115.5
bGBzba48,NA,NA,bGBzba48,2020-0188,2021-09-23,12:01:46,13:11:18,NA,incomplete,false,NA,true,3,6,NA,left,E17_Q2_ansL.png,E17_Q4_ansR.png,within,NA,NaN,NA,left,1899.199999988079,1,0,1106
bGBzba48,NA,NA,bGBzba48,2020-0188,2021-09-23,12:01:46,13:11:18,NA,incomplete,false,NA,true,3,7,NA,left,E17_Q9_ansR.png,E17_Q3_ansR.png,within,NA,NaN,NA,left,1328.4000000059605,1,0,1827.2000000029802
bGBzba48,NA,NA,bGBzba48,2020-0188,2021-09-23,12:01:46,13:11:18,NA,incomplete,false,NA,true,3,8,NA,left,E17_Q6_ansR.png,E20_Q7_ansL.png,between,NA,NaN,NA,left,1221.5,1,2,873.4000000059605
bGBzba48,NA,NA,bGBzba48,2020-0188,2021-09-23,12:01:46,13:11:18,NA,incomplete,false,NA,true,3,9,NA,right,E20_Q6_ansR.png,E20_Q5_ansR.png,within,NA,NaN,NA,right,1968.2000000029802,1,1,1199.7000000029802
bGBzba48,NA,NA,bGBzba48,2020-0188,2021-09-23,12:01:46,13:11:18,NA,incomplete,false,NA,true,3,10,NA,right,E6_Q5_ansR.png,E6_Q10_ansL.png,within,NA,NaN,NA,right,1908.2999999970198,1,1,8565.60000000894
bGBzba48,NA,NA,bGBzba48,2020-0188,2021-09-23,12:01:46,13:11:18,NA,incomplete,false,NA,true,3,11,NA,left,E6_Q8_ansL.png,E6_Q7_ansL.png,within,NA,NaN,NA,left,2810.800000011921,1,1,1784.699999988079
bGBzba48,NA,NA,bGBzba48,2020-0188,2021-09-23,12:01:46,13:11:18,NA,incomplete,false,NA,true,3,12,NA,right,E20_Q1_ansL.png,E20_Q9_ansR.png,within,NA,NaN,NA,left,2160.1000000089407,0,0,1291.3999999910593
bGBzba48,NA,NA,bGBzba48,2020-0188,2021-09-23,12:01:46,13:11:18,NA,incomplete,false,NA,true,3,13,NA,right,E17_Q1_ansL.png,E17_Q4_ansR.png,within,NA,NaN,NA,right,1585,1,0,1285.2999999970198
bGBzba48,NA,NA,bGBzba48,2020-0188,2021-09-23,12:01:46,13:11:18,NA,incomplete,false,NA,true,3,14,NA,left,E6_Q6_ansR.png,E6_Q9_ansL.png,within,NA,NaN,NA,left,1039.9000000059605,1,1,1031
bGBzba48,NA,NA,bGBzba48,2020-0188,2021-09-23,12:01:46,13:11:18,NA,incomplete,false,NA,true,3,15,NA,right,E20_Q2_ansL.png,E20_Q4_ansR.png,within,NA,NaN,NA,right,1776.6000000089407,1,1,855.5
bGBzba48,NA,NA,bGBzba48,2020-0188,2021-09-23,12:01:46,13:11:18,NA,incomplete,false,NA,true,3,16,NA,right,E20_Q4_ansR.png,E20_Q7_ansL.png,within,NA,NaN,NA,right,882.2999999970198,1,0,1120.4000000059605
bGBzba48,NA,NA,bGBzba48,2020-0188,2021-09-23,12:01:46,13:11:18,NA,incomplete,false,NA,true,3,17,NA,right,E20_Q3_ansR.png,E17_Q1_ansL.png,between,NA,NaN,NA,right,2162.5999999940395,1,2,1165.4000000059605
bGBzba48,NA,NA,bGBzba48,2020-0188,2021-09-23,12:01:46,13:11:18,NA,incomplete,false,NA,true,3,18,NA,right,E17_Q9_ansR.png,E17_Q10_ansL.png,within,NA,NaN,NA,right,2422.9000000059605,1,0,2049.2000000029802
bGBzba48,NA,NA,bGBzba48,2020-0188,2021-09-23,12:01:46,13:11:18,NA,incomplete,false,NA,true,3,19,NA,right,E17_Q7_ansL.png,E17_Q8_ansL.png,within,NA,NaN,NA,right,1668.8999999910593,1,1,1697.699999988079
bGBzba48,NA,NA,bGBzba48,2020-0188,2021-09-23,12:01:46,13:11:18,NA,incomplete,false,NA,true,3,20,NA,right,E6_Q1_ansL.png,E6_Q7_ansL.png,within,NA,NaN,NA,left,2366.2000000029802,0,0,2415.7000000029802
bGBzba48,NA,NA,bGBzba48,2020-0188,2021-09-23,12:01:46,13:11:18,NA,incomplete,false,NA,true,3,21,NA,right,E17_Q8_ansL.png,E17_Q5_ansR.png,within,NA,NaN,NA,left,4457.4000000059605,0,0,1342.8999999910593
bGBzba48,NA,NA,bGBzba48,2020-0188,2021-09-23,12:01:46,13:11:18,NA,incomplete,false,NA,true,3,22,NA,right,E17_Q6_ansR.png,E17_Q3_ansR.png,within,NA,NaN,NA,left,2376.7999999970198,0,0,894
bGBzba48,NA,NA,bGBzba48,2020-0188,2021-09-23,12:01:46,13:11:18,NA,incomplete,false,NA,true,3,23,NA,right,E20_Q9_ansR.png,E20_Q8_ansL.png,within,NA,NaN,NA,right,4466.20000000298,1,1,3588.300000011921
bGBzba48,NA,NA,bGBzba48,2020-0188,2021-09-23,12:01:46,13:11:18,NA,incomplete,false,NA,true,3,24,NA,left,E6_Q1_ansL.png,E17_Q10_ansL.png,between,NA,NaN,NA,left,1112.8999999910593,1,2,994.1000000089407
bGBzba48,NA,NA,bGBzba48,2020-0188,2021-09-23,12:01:46,13:11:18,NA,incomplete,false,NA,true,3,25,NA,left,E20_Q3_ansR.png,E20_Q8_ansL.png,within,NA,NaN,NA,right,2680.9000000059605,0,1,2866.5
bGBzba48,NA,NA,bGBzba48,2020-0188,2021-09-23,12:01:46,13:11:18,NA,incomplete,false,NA,true,3,26,NA,right,E6_Q4_ansR.png,E6_Q2_ansL.png,within,NA,NaN,NA,left,1896,0,1,1015.5
bGBzba48,NA,NA,bGBzba48,2020-0188,2021-09-23,12:01:46,13:11:18,NA,incomplete,false,true,NA,4,0,E21_Q10_ansL.png,left,NA,NA,NA,left,1539.90000000596,true,NA,NA,NA,NA,NA
bGBzba48,NA,NA,bGBzba48,2020-0188,2021-09-23,12:01:46,13:11:18,NA,incomplete,false,true,NA,4,1,E21_Q9_ansR.png,right,NA,NA,NA,right,1340.5,true,NA,NA,NA,NA,NA
bGBzba48,NA,NA,bGBzba48,2020-0188,2021-09-23,12:01:46,13:11:18,NA,incomplete,false,true,NA,4,2,E21_Q4_ansR.png,right,NA,NA,NA,right,980,true,NA,NA,NA,NA,NA
bGBzba48,NA,NA,bGBzba48,2020-0188,2021-09-23,12:01:46,13:11:18,NA,incomplete,false,true,NA,4,3,E21_Q8_ansL.png,left,NA,NA,NA,left,1035.90000000596,true,NA,NA,NA,NA,NA
bGBzba48,NA,NA,bGBzba48,2020-0188,2021-09-23,12:01:46,13:11:18,NA,incomplete,false,true,NA,4,4,E21_Q7_ansL.png,left,NA,NA,NA,left,1159,true,NA,NA,NA,NA,NA
bGBzba48,NA,NA,bGBzba48,2020-0188,2021-09-23,12:01:46,13:11:18,NA,incomplete,false,true,NA,4,5,E21_Q1_ansL.png,left,NA,NA,NA,left,1417.20000000298,true,NA,NA,NA,NA,NA
bGBzba48,NA,NA,bGBzba48,2020-0188,2021-09-23,12:01:46,13:11:18,NA,incomplete,false,true,NA,4,6,E21_Q5_ansR.png,right,NA,NA,NA,right,978.5,true,NA,NA,NA,NA,NA
bGBzba48,NA,NA,bGBzba48,2020-0188,2021-09-23,12:01:46,13:11:18,NA,incomplete,false,true,NA,4,7,E21_Q2_ansL.png,left,NA,NA,NA,left,1029.60000000894,true,NA,NA,NA,NA,NA
bGBzba48,NA,NA,bGBzba48,2020-0188,2021-09-23,12:01:46,13:11:18,NA,incomplete,false,true,NA,4,8,E21_Q6_ansR.png,right,NA,NA,NA,right,953.899999991059,true,NA,NA,NA,NA,NA
bGBzba48,NA,NA,bGBzba48,2020-0188,2021-09-23,12:01:46,13:11:18,NA,incomplete,false,true,NA,4,9,E21_Q3_ansR.png,right,NA,NA,NA,right,1579.59999999404,true,NA,NA,NA,NA,NA
bGBzba48,NA,NA,bGBzba48,2020-0188,2021-09-23,12:01:46,13:11:18,NA,incomplete,false,true,NA,4,10,E30_Q7_ansL.png,left,NA,NA,NA,right,2854,false,NA,NA,NA,NA,NA
bGBzba48,NA,NA,bGBzba48,2020-0188,2021-09-23,12:01:46,13:11:18,NA,incomplete,false,true,NA,4,11,E30_Q6_ansR.png,right,NA,NA,NA,right,2579.79999999702,true,NA,NA,NA,NA,NA
bGBzba48,NA,NA,bGBzba48,2020-0188,2021-09-23,12:01:46,13:11:18,NA,incomplete,false,true,NA,4,12,E30_Q2_ansL.png,left,NA,NA,NA,left,1868.70000000298,true,NA,NA,NA,NA,NA
bGBzba48,NA,NA,bGBzba48,2020-0188,2021-09-23,12:01:46,13:11:18,NA,incomplete,false,true,NA,4,13,E30_Q8_ansL.png,left,NA,NA,NA,right,3042.89999999106,false,NA,NA,NA,NA,NA
bGBzba48,NA,NA,bGBzba48,2020-0188,2021-09-23,12:01:46,13:11:18,NA,incomplete,false,true,NA,4,14,E30_Q3_ansL.png,left,NA,NA,NA,left,2848.90000000596,true,NA,NA,NA,NA,NA
bGBzba48,NA,NA,bGBzba48,2020-0188,2021-09-23,12:01:46,13:11:18,NA,incomplete,false,true,NA,4,15,E30_Q5_ansR.png,right,NA,NA,NA,right,2006.5,true,NA,NA,NA,NA,NA
bGBzba48,NA,NA,bGBzba48,2020-0188,2021-09-23,12:01:46,13:11:18,NA,incomplete,false,true,NA,4,16,E30_Q10_ansR.png,right,NA,NA,NA,right,1968.5,true,NA,NA,NA,NA,NA
bGBzba48,NA,NA,bGBzba48,2020-0188,2021-09-23,12:01:46,13:11:18,NA,incomplete,false,true,NA,4,17,E30_Q4_ansL.png,left,NA,NA,NA,left,1995.70000000298,true,NA,NA,NA,NA,NA
bGBzba48,NA,NA,bGBzba48,2020-0188,2021-09-23,12:01:46,13:11:18,NA,incomplete,false,true,NA,4,18,E30_Q9_ansL.png,left,NA,NA,NA,left,2174.5,true,NA,NA,NA,NA,NA
bGBzba48,NA,NA,bGBzba48,2020-0188,2021-09-23,12:01:46,13:11:18,NA,incomplete,false,true,NA,4,19,E30_Q1_ansL.png,left,NA,NA,NA,left,1748.29999999702,true,NA,NA,NA,NA,NA
bGBzba48,NA,NA,bGBzba48,2020-0188,2021-09-23,12:01:46,13:11:18,NA,incomplete,false,true,NA,4,20,E12_Q8_ansL.png,left,NA,NA,NA,left,2267.90000000596,true,NA,NA,NA,NA,NA
bGBzba48,NA,NA,bGBzba48,2020-0188,2021-09-23,12:01:46,13:11:18,NA,incomplete,false,true,NA,4,21,E12_Q10_ansL.png,left,NA,NA,NA,left,1187.90000000596,true,NA,NA,NA,NA,NA
bGBzba48,NA,NA,bGBzba48,2020-0188,2021-09-23,12:01:46,13:11:18,NA,incomplete,false,true,NA,4,22,E12_Q1_ansL.png,left,NA,NA,NA,left,1615,true,NA,NA,NA,NA,NA
bGBzba48,NA,NA,bGBzba48,2020-0188,2021-09-23,12:01:46,13:11:18,NA,incomplete,false,true,NA,4,23,E12_Q9_ansR.png,right,NA,NA,NA,right,1264,true,NA,NA,NA,NA,NA
bGBzba48,NA,NA,bGBzba48,2020-0188,2021-09-23,12:01:46,13:11:18,NA,incomplete,false,true,NA,4,24,E12_Q7_ansL.png,left,NA,NA,NA,left,1287.40000000596,true,NA,NA,NA,NA,NA
bGBzba48,NA,NA,bGBzba48,2020-0188,2021-09-23,12:01:46,13:11:18,NA,incomplete,false,true,NA,4,25,E12_Q2_ansL.png,left,NA,NA,NA,left,1614.79999999702,true,NA,NA,NA,NA,NA
bGBzba48,NA,NA,bGBzba48,2020-0188,2021-09-23,12:01:46,13:11:18,NA,incomplete,false,true,NA,4,26,E12_Q3_ansR.png,right,NA,NA,NA,right,1152.39999999106,true,NA,NA,NA,NA,NA
bGBzba48,NA,NA,bGBzba48,2020-0188,2021-09-23,12:01:46,13:11:18,NA,incomplete,false,true,NA,4,27,E12_Q5_ansR.png,right,NA,NA,NA,right,1411.60000000894,true,NA,NA,NA,NA,NA
bGBzba48,NA,NA,bGBzba48,2020-0188,2021-09-23,12:01:46,13:11:18,NA,incomplete,false,true,NA,4,28,E12_Q6_ansR.png,right,NA,NA,NA,right,1225.09999999404,true,NA,NA,NA,NA,NA
bGBzba48,NA,NA,bGBzba48,2020-0188,2021-09-23,12:01:46,13:11:18,NA,incomplete,false,true,NA,4,29,E12_Q4_ansR.png,right,NA,NA,NA,right,2083.90000000596,true,NA,NA,NA,NA,NA
bGBzba48,NA,NA,bGBzba48,2020-0188,2021-09-23,12:01:46,13:11:18,NA,incomplete,false,NA,true,4,0,NA,left,E12_Q1_ansL.png,E12_Q2_ansL.png,within,NA,NaN,NA,right,3377.1000000089407,0,0,1841.7000000029802
bGBzba48,NA,NA,bGBzba48,2020-0188,2021-09-23,12:01:46,13:11:18,NA,incomplete,false,NA,true,4,1,NA,left,E21_Q6_ansR.png,E30_Q6_ansR.png,between,NA,NaN,NA,left,1692.5,1,2,2560.2000000029802
bGBzba48,NA,NA,bGBzba48,2020-0188,2021-09-23,12:01:46,13:11:18,NA,incomplete,false,NA,true,4,2,NA,left,E21_Q3_ansR.png,E30_Q2_ansL.png,between,NA,NaN,NA,left,1964.2999999970198,1,2,1175.4000000059605
bGBzba48,NA,NA,bGBzba48,2020-0188,2021-09-23,12:01:46,13:11:18,NA,incomplete,false,NA,true,4,3,NA,left,E12_Q3_ansR.png,E12_Q4_ansR.png,within,NA,NaN,NA,left,1367,1,1,1134.2999999970198
bGBzba48,NA,NA,bGBzba48,2020-0188,2021-09-23,12:01:46,13:11:18,NA,incomplete,false,NA,true,4,4,NA,left,E21_Q2_ansL.png,E30_Q7_ansL.png,between,NA,NaN,NA,left,2032.9000000059605,1,2,953.7000000029802
bGBzba48,NA,NA,bGBzba48,2020-0188,2021-09-23,12:01:46,13:11:18,NA,incomplete,false,NA,true,4,5,NA,right,E12_Q9_ansR.png,E12_Q8_ansL.png,within,NA,NaN,NA,right,2039.2999999970198,1,1,1957.5
bGBzba48,NA,NA,bGBzba48,2020-0188,2021-09-23,12:01:46,13:11:18,NA,incomplete,false,NA,true,4,6,NA,right,E12_Q6_ansR.png,E12_Q2_ansL.png,within,NA,NaN,NA,right,3932,1,1,1022.6000000089407
bGBzba48,NA,NA,bGBzba48,2020-0188,2021-09-23,12:01:46,13:11:18,NA,incomplete,false,NA,true,4,7,NA,right,E12_Q3_ansR.png,E12_Q9_ansR.png,within,NA,NaN,NA,right,1125.2999999970198,1,1,936.3999999910593
bGBzba48,NA,NA,bGBzba48,2020-0188,2021-09-23,12:01:46,13:11:18,NA,incomplete,false,NA,true,4,8,NA,left,E30_Q7_ansL.png,E30_Q8_ansL.png,within,NA,NaN,NA,left,1995.4000000059605,1,1,1165.7999999970198
bGBzba48,NA,NA,bGBzba48,2020-0188,2021-09-23,12:01:46,13:11:18,NA,incomplete,false,NA,true,4,9,NA,left,E30_Q2_ansL.png,E30_Q5_ansR.png,within,NA,NaN,NA,right,3804.9000000059605,0,0,912.5999999940395
bGBzba48,NA,NA,bGBzba48,2020-0188,2021-09-23,12:01:46,13:11:18,NA,incomplete,false,NA,true,4,10,NA,right,E30_Q10_ansR.png,E30_Q8_ansL.png,within,NA,NaN,NA,right,1602.7000000029802,1,1,1191.2999999970198
bGBzba48,NA,NA,bGBzba48,2020-0188,2021-09-23,12:01:46,13:11:18,NA,incomplete,false,NA,true,4,11,NA,right,E12_Q5_ansR.png,E12_Q7_ansL.png,within,NA,NaN,NA,right,3073.800000011921,1,0,873.5
bGBzba48,NA,NA,bGBzba48,2020-0188,2021-09-23,12:01:46,13:11:18,NA,incomplete,false,NA,true,4,12,NA,left,E30_Q3_ansL.png,E30_Q4_ansL.png,within,NA,NaN,NA,right,7480.5999999940395,0,0,854.5999999940395
bGBzba48,NA,NA,bGBzba48,2020-0188,2021-09-23,12:01:46,13:11:18,NA,incomplete,false,NA,true,4,13,NA,right,E21_Q3_ansR.png,E21_Q5_ansR.png,within,NA,NaN,NA,left,5082.399999991059,0,0,999.0999999940395
bGBzba48,NA,NA,bGBzba48,2020-0188,2021-09-23,12:01:46,13:11:18,NA,incomplete,false,NA,true,4,14,NA,left,E21_Q4_ansR.png,E21_Q1_ansL.png,within,NA,NaN,NA,left,1159.1000000089407,1,1,1009.5
bGBzba48,NA,NA,bGBzba48,2020-0188,2021-09-23,12:01:46,13:11:18,NA,incomplete,false,NA,true,4,15,NA,right,E30_Q9_ansL.png,E30_Q5_ansR.png,within,NA,NaN,NA,right,1796.9000000059605,1,1,1277
bGBzba48,NA,NA,bGBzba48,2020-0188,2021-09-23,12:01:46,13:11:18,NA,incomplete,false,NA,true,4,16,NA,left,E21_Q1_ansL.png,E21_Q6_ansR.png,within,NA,NaN,NA,right,1873.7999999970198,0,1,1078.7000000029802
bGBzba48,NA,NA,bGBzba48,2020-0188,2021-09-23,12:01:46,13:11:18,NA,incomplete,false,NA,true,4,17,NA,right,E21_Q5_ansR.png,E21_Q8_ansL.png,within,NA,NaN,NA,right,1000.9000000059605,1,1,1088.5
bGBzba48,NA,NA,bGBzba48,2020-0188,2021-09-23,12:01:46,13:11:18,NA,incomplete,false,NA,true,4,18,NA,right,E12_Q10_ansL.png,E30_Q9_ansL.png,between,NA,NaN,NA,right,2582.4000000059605,1,2,2243.0999999940395
bGBzba48,NA,NA,bGBzba48,2020-0188,2021-09-23,12:01:46,13:11:18,NA,incomplete,false,NA,true,4,19,NA,left,E30_Q6_ansR.png,E30_Q3_ansL.png,within,NA,NaN,NA,left,1803.800000011921,1,1,2654.2999999970198
bGBzba48,NA,NA,bGBzba48,2020-0188,2021-09-23,12:01:46,13:11:18,NA,incomplete,false,NA,true,4,20,NA,left,E30_Q1_ansL.png,E12_Q1_ansL.png,between,NA,NaN,NA,left,1828.2000000029802,1,2,1188.5
bGBzba48,NA,NA,bGBzba48,2020-0188,2021-09-23,12:01:46,13:11:18,NA,incomplete,false,NA,true,4,21,NA,left,E30_Q4_ansL.png,E12_Q8_ansL.png,between,NA,NaN,NA,left,2193.2000000029802,1,2,951.4000000059605
bGBzba48,NA,NA,bGBzba48,2020-0188,2021-09-23,12:01:46,13:11:18,NA,incomplete,false,NA,true,4,22,NA,right,E12_Q7_ansL.png,E12_Q10_ansL.png,within,NA,NaN,NA,right,6739,1,1,932.5
bGBzba48,NA,NA,bGBzba48,2020-0188,2021-09-23,12:01:46,13:11:18,NA,incomplete,false,NA,true,4,23,NA,left,E21_Q10_ansL.png,E21_Q8_ansL.png,within,NA,NaN,NA,left,1258.800000011921,1,1,1716.5
bGBzba48,NA,NA,bGBzba48,2020-0188,2021-09-23,12:01:46,13:11:18,NA,incomplete,false,NA,true,4,24,NA,left,E21_Q7_ansL.png,E21_Q2_ansL.png,within,NA,NaN,NA,right,1539.4000000059605,0,0,2238.7000000029802
bGBzba48,NA,NA,bGBzba48,2020-0188,2021-09-23,12:01:46,13:11:18,NA,incomplete,false,NA,true,4,25,NA,right,E30_Q1_ansL.png,E30_Q10_ansR.png,within,NA,NaN,NA,left,2106.3999999910593,0,0,1030.2999999970198
bGBzba48,NA,NA,bGBzba48,2020-0188,2021-09-23,12:01:46,13:11:18,NA,incomplete,false,NA,true,4,26,NA,left,E21_Q9_ansR.png,E21_Q7_ansL.png,within,NA,NaN,NA,left,1026.3999999910593,1,1,1143.2999999970198
bGBzba48,NA,NA,bGBzba48,2020-0188,2021-09-23,12:01:46,13:11:18,NA,incomplete,false,true,NA,5,0,E18_Q9_ansR.png,right,NA,NA,NA,right,1446.89999999106,true,NA,NA,NA,NA,NA
bGBzba48,NA,NA,bGBzba48,2020-0188,2021-09-23,12:01:46,13:11:18,NA,incomplete,false,true,NA,5,1,E18_Q7_ansL.png,left,NA,NA,NA,left,1329.60000000894,true,NA,NA,NA,NA,NA
bGBzba48,NA,NA,bGBzba48,2020-0188,2021-09-23,12:01:46,13:11:18,NA,incomplete,false,true,NA,5,2,E18_Q1_ansL.png,left,NA,NA,NA,left,1275.40000000596,true,NA,NA,NA,NA,NA
bGBzba48,NA,NA,bGBzba48,2020-0188,2021-09-23,12:01:46,13:11:18,NA,incomplete,false,true,NA,5,3,E18_Q2_ansL.png,left,NA,NA,NA,left,1286.29999999702,true,NA,NA,NA,NA,NA
bGBzba48,NA,NA,bGBzba48,2020-0188,2021-09-23,12:01:46,13:11:18,NA,incomplete,false,true,NA,5,4,E18_Q3_ansR.png,right,NA,NA,NA,right,842.29999999702,true,NA,NA,NA,NA,NA
bGBzba48,NA,NA,bGBzba48,2020-0188,2021-09-23,12:01:46,13:11:18,NA,incomplete,false,true,NA,5,5,E18_Q8_ansL.png,left,NA,NA,NA,left,993.29999999702,true,NA,NA,NA,NA,NA
bGBzba48,NA,NA,bGBzba48,2020-0188,2021-09-23,12:01:46,13:11:18,NA,incomplete,false,true,NA,5,6,E18_Q5_ansR.png,right,NA,NA,NA,right,761.20000000298,true,NA,NA,NA,NA,NA
bGBzba48,NA,NA,bGBzba48,2020-0188,2021-09-23,12:01:46,13:11:18,NA,incomplete,false,true,NA,5,7,E18_Q10_ansL.png,left,NA,NA,NA,left,1793.69999998808,true,NA,NA,NA,NA,NA
bGBzba48,NA,NA,bGBzba48,2020-0188,2021-09-23,12:01:46,13:11:18,NA,incomplete,false,true,NA,5,8,E18_Q4_ansR.png,right,NA,NA,NA,right,810.5,true,NA,NA,NA,NA,NA
bGBzba48,NA,NA,bGBzba48,2020-0188,2021-09-23,12:01:46,13:11:18,NA,incomplete,false,true,NA,5,9,E18_Q6_ansR.png,right,NA,NA,NA,right,960.79999999702,true,NA,NA,NA,NA,NA
bGBzba48,NA,NA,bGBzba48,2020-0188,2021-09-23,12:01:46,13:11:18,NA,incomplete,false,true,NA,5,10,E26_Q7_ansL.png,left,NA,NA,NA,left,1576.40000000596,true,NA,NA,NA,NA,NA
bGBzba48,NA,NA,bGBzba48,2020-0188,2021-09-23,12:01:46,13:11:18,NA,incomplete,false,true,NA,5,11,E26_Q9_ansR.png,right,NA,NA,NA,right,856.59999999404,true,NA,NA,NA,NA,NA
bGBzba48,NA,NA,bGBzba48,2020-0188,2021-09-23,12:01:46,13:11:18,NA,incomplete,false,true,NA,5,12,E26_Q5_ansR.png,right,NA,NA,NA,left,935.29999999702,false,NA,NA,NA,NA,NA
bGBzba48,NA,NA,bGBzba48,2020-0188,2021-09-23,12:01:46,13:11:18,NA,incomplete,false,true,NA,5,13,E26_Q1_ansL.png,left,NA,NA,NA,left,1103.19999998808,true,NA,NA,NA,NA,NA
bGBzba48,NA,NA,bGBzba48,2020-0188,2021-09-23,12:01:46,13:11:18,NA,incomplete,false,true,NA,5,14,E26_Q2_ansL.png,left,NA,NA,NA,left,1008.09999999404,true,NA,NA,NA,NA,NA
bGBzba48,NA,NA,bGBzba48,2020-0188,2021-09-23,12:01:46,13:11:18,NA,incomplete,false,true,NA,5,15,E26_Q3_ansR.png,right,NA,NA,NA,right,1325.90000000596,true,NA,NA,NA,NA,NA
bGBzba48,NA,NA,bGBzba48,2020-0188,2021-09-23,12:01:46,13:11:18,NA,incomplete,false,true,NA,5,16,E26_Q10_ansL.png,left,NA,NA,NA,left,1266.29999999702,true,NA,NA,NA,NA,NA
bGBzba48,NA,NA,bGBzba48,2020-0188,2021-09-23,12:01:46,13:11:18,NA,incomplete,false,true,NA,5,17,E26_Q4_ansR.png,right,NA,NA,NA,right,1332.39999999106,true,NA,NA,NA,NA,NA
bGBzba48,NA,NA,bGBzba48,2020-0188,2021-09-23,12:01:46,13:11:18,NA,incomplete,false,true,NA,5,18,E26_Q8_ansL.png,left,NA,NA,NA,left,1698.59999999404,true,NA,NA,NA,NA,NA
bGBzba48,NA,NA,bGBzba48,2020-0188,2021-09-23,12:01:46,13:11:18,NA,incomplete,false,true,NA,5,19,E26_Q6_ansR.png,right,NA,NA,NA,right,1457.89999999106,true,NA,NA,NA,NA,NA
bGBzba48,NA,NA,bGBzba48,2020-0188,2021-09-23,12:01:46,13:11:18,NA,incomplete,false,true,NA,5,20,E23_Q4_ansR.png,right,NA,NA,NA,right,2283.29999999702,true,NA,NA,NA,NA,NA
bGBzba48,NA,NA,bGBzba48,2020-0188,2021-09-23,12:01:46,13:11:18,NA,incomplete,false,true,NA,5,21,E23_Q5_ansR.png,right,NA,NA,NA,right,1406.30000001192,true,NA,NA,NA,NA,NA
bGBzba48,NA,NA,bGBzba48,2020-0188,2021-09-23,12:01:46,13:11:18,NA,incomplete,false,true,NA,5,22,E23_Q9_ansR.png,right,NA,NA,NA,right,1273.5,true,NA,NA,NA,NA,NA
bGBzba48,NA,NA,bGBzba48,2020-0188,2021-09-23,12:01:46,13:11:18,NA,incomplete,false,true,NA,5,23,E23_Q3_ansR.png,right,NA,NA,NA,right,1582.30000001192,true,NA,NA,NA,NA,NA
bGBzba48,NA,NA,bGBzba48,2020-0188,2021-09-23,12:01:46,13:11:18,NA,incomplete,false,true,NA,5,24,E23_Q7_ansL.png,left,NA,NA,NA,left,1429,true,NA,NA,NA,NA,NA
bGBzba48,NA,NA,bGBzba48,2020-0188,2021-09-23,12:01:46,13:11:18,NA,incomplete,false,true,NA,5,25,E23_Q8_ansL.png,left,NA,NA,NA,left,1318.80000001192,true,NA,NA,NA,NA,NA
bGBzba48,NA,NA,bGBzba48,2020-0188,2021-09-23,12:01:46,13:11:18,NA,incomplete,false,true,NA,5,26,E23_Q10_ansL.png,left,NA,NA,NA,left,1925.60000000894,true,NA,NA,NA,NA,NA
bGBzba48,NA,NA,bGBzba48,2020-0188,2021-09-23,12:01:46,13:11:18,NA,incomplete,false,true,NA,5,27,E23_Q2_ansL.png,left,NA,NA,NA,left,1265.29999999702,true,NA,NA,NA,NA,NA
bGBzba48,NA,NA,bGBzba48,2020-0188,2021-09-23,12:01:46,13:11:18,NA,incomplete,false,true,NA,5,28,E23_Q1_ansL.png,left,NA,NA,NA,left,1668.20000000298,true,NA,NA,NA,NA,NA
bGBzba48,NA,NA,bGBzba48,2020-0188,2021-09-23,12:01:46,13:11:18,NA,incomplete,false,true,NA,5,29,E23_Q6_ansR.png,right,NA,NA,NA,right,1424.30000001192,true,NA,NA,NA,NA,NA
bGBzba48,NA,NA,bGBzba48,2020-0188,2021-09-23,12:01:46,13:11:18,NA,incomplete,false,NA,true,5,0,NA,left,E18_Q10_ansL.png,E26_Q7_ansL.png,between,NA,NaN,NA,left,2411.1000000089407,1,2,1080.5999999940395
bGBzba48,NA,NA,bGBzba48,2020-0188,2021-09-23,12:01:46,13:11:18,NA,incomplete,false,NA,true,5,1,NA,right,E23_Q10_ansL.png,E23_Q3_ansR.png,within,NA,NaN,NA,left,1994,0,0,2362.7000000029802
bGBzba48,NA,NA,bGBzba48,2020-0188,2021-09-23,12:01:46,13:11:18,NA,incomplete,false,NA,true,5,2,NA,left,E23_Q7_ansL.png,E23_Q2_ansL.png,within,NA,NaN,NA,right,1553.2000000029802,0,0,1707.5
bGBzba48,NA,NA,bGBzba48,2020-0188,2021-09-23,12:01:46,13:11:18,NA,incomplete,false,NA,true,5,3,NA,left,E26_Q9_ansR.png,E26_Q2_ansL.png,within,NA,NaN,NA,left,1225.4000000059605,1,1,1031.1000000089407
bGBzba48,NA,NA,bGBzba48,2020-0188,2021-09-23,12:01:46,13:11:18,NA,incomplete,false,NA,true,5,4,NA,left,E26_Q10_ansL.png,E26_Q6_ansR.png,within,NA,NaN,NA,left,2146.7999999970198,1,0,2231.9000000059605
bGBzba48,NA,NA,bGBzba48,2020-0188,2021-09-23,12:01:46,13:11:18,NA,incomplete,false,NA,true,5,5,NA,left,E18_Q7_ansL.png,E18_Q3_ansR.png,within,NA,NaN,NA,left,2418.6000000089407,1,1,936.4000000059605
bGBzba48,NA,NA,bGBzba48,2020-0188,2021-09-23,12:01:46,13:11:18,NA,incomplete,false,NA,true,5,6,NA,right,E26_Q9_ansR.png,E18_Q4_ansR.png,between,NA,NaN,NA,right,2709.2000000029802,1,2,2145.0999999940395
bGBzba48,NA,NA,bGBzba48,2020-0188,2021-09-23,12:01:46,13:11:18,NA,incomplete,false,NA,true,5,7,NA,left,E18_Q1_ansL.png,E18_Q8_ansL.png,within,NA,NaN,NA,left,4243.5,1,1,947.7000000029802
bGBzba48,NA,NA,bGBzba48,2020-0188,2021-09-23,12:01:46,13:11:18,NA,incomplete,false,NA,true,5,8,NA,right,E18_Q5_ansR.png,E18_Q2_ansL.png,within,NA,NaN,NA,right,2279.9000000059605,1,0,1222.2999999970198
bGBzba48,NA,NA,bGBzba48,2020-0188,2021-09-23,12:01:46,13:11:18,NA,incomplete,false,NA,true,5,9,NA,right,E23_Q5_ansR.png,E26_Q8_ansL.png,between,NA,NaN,NA,right,1600.3999999910593,1,2,1476.5
bGBzba48,NA,NA,bGBzba48,2020-0188,2021-09-23,12:01:46,13:11:18,NA,incomplete,false,NA,true,5,10,NA,right,E23_Q9_ansR.png,E26_Q6_ansR.png,between,NA,NaN,NA,right,1434.5999999940395,1,2,1460.6000000089407
bGBzba48,NA,NA,bGBzba48,2020-0188,2021-09-23,12:01:46,13:11:18,NA,incomplete,false,NA,true,5,11,NA,right,E26_Q4_ansR.png,E26_Q2_ansL.png,within,NA,NaN,NA,right,1501.2999999970198,1,0,1332.5
bGBzba48,NA,NA,bGBzba48,2020-0188,2021-09-23,12:01:46,13:11:18,NA,incomplete,false,NA,true,5,12,NA,right,E23_Q1_ansL.png,E23_Q8_ansL.png,within,NA,NaN,NA,right,1475.1000000089407,1,1,1563.5
bGBzba48,NA,NA,bGBzba48,2020-0188,2021-09-23,12:01:46,13:11:18,NA,incomplete,false,NA,true,5,13,NA,right,E23_Q3_ansR.png,E23_Q4_ansR.png,within,NA,NaN,NA,right,1150.4000000059605,1,1,2145.0999999940395
bGBzba48,NA,NA,bGBzba48,2020-0188,2021-09-23,12:01:46,13:11:18,NA,incomplete,false,NA,true,5,14,NA,left,E18_Q9_ansR.png,E18_Q2_ansL.png,within,NA,NaN,NA,left,1491.1000000089407,1,1,1023.8999999910593
bGBzba48,NA,NA,bGBzba48,2020-0188,2021-09-23,12:01:46,13:11:18,NA,incomplete,false,NA,true,5,15,NA,left,E23_Q5_ansR.png,E23_Q7_ansL.png,within,NA,NaN,NA,left,1937.9000000059605,1,0,847.7000000029802
bGBzba48,NA,NA,bGBzba48,2020-0188,2021-09-23,12:01:46,13:11:18,NA,incomplete,false,NA,true,5,16,NA,left,E18_Q3_ansR.png,E18_Q10_ansL.png,within,NA,NaN,NA,left,2696.6000000089407,1,0,885.8000000119209
bGBzba48,NA,NA,bGBzba48,2020-0188,2021-09-23,12:01:46,13:11:18,NA,incomplete,false,NA,true,5,17,NA,right,E26_Q1_ansL.png,E26_Q7_ansL.png,within,NA,NaN,NA,right,1039.1000000089407,1,1,1221
bGBzba48,NA,NA,bGBzba48,2020-0188,2021-09-23,12:01:46,13:11:18,NA,incomplete,false,NA,true,5,18,NA,right,E23_Q8_ansL.png,E23_Q9_ansR.png,within,NA,NaN,NA,left,1686.2999999970198,0,0,1731.9000000059605
bGBzba48,NA,NA,bGBzba48,2020-0188,2021-09-23,12:01:46,13:11:18,NA,incomplete,false,NA,true,5,19,NA,right,E26_Q5_ansR.png,E18_Q6_ansR.png,between,NA,NaN,NA,right,5464.0999999940395,1,2,1476.7000000029802
bGBzba48,NA,NA,bGBzba48,2020-0188,2021-09-23,12:01:46,13:11:18,NA,incomplete,false,NA,true,5,20,NA,left,E26_Q1_ansL.png,E26_Q10_ansL.png,within,NA,NaN,NA,right,973.9000000059605,0,1,1316.8999999910593
bGBzba48,NA,NA,bGBzba48,2020-0188,2021-09-23,12:01:46,13:11:18,NA,incomplete,false,NA,true,5,21,NA,right,E18_Q6_ansR.png,E18_Q5_ansR.png,within,NA,NaN,NA,right,1237.6000000089407,1,0,952.0999999940395
bGBzba48,NA,NA,bGBzba48,2020-0188,2021-09-23,12:01:46,13:11:18,NA,incomplete,false,NA,true,5,22,NA,left,E23_Q10_ansL.png,E23_Q6_ansR.png,within,NA,NaN,NA,right,3471.800000011921,0,1,1316.7000000029802
bGBzba48,NA,NA,bGBzba48,2020-0188,2021-09-23,12:01:46,13:11:18,NA,incomplete,false,NA,true,5,23,NA,right,E26_Q3_ansR.png,E26_Q5_ansR.png,within,NA,NaN,NA,right,1150.2999999970198,1,1,1950.1000000089407
bGBzba48,NA,NA,bGBzba48,2020-0188,2021-09-23,12:01:46,13:11:18,NA,incomplete,false,NA,true,5,24,NA,left,E18_Q8_ansL.png,E18_Q4_ansR.png,within,NA,NaN,NA,left,2256.7000000029802,1,0,1141.6000000089407
bGBzba48,NA,NA,bGBzba48,2020-0188,2021-09-23,12:01:46,13:11:18,NA,incomplete,false,NA,true,5,25,NA,right,E23_Q4_ansR.png,E26_Q4_ansR.png,between,NA,NaN,NA,right,1453.4000000059605,1,2,929.5999999940395
bGBzba48,NA,NA,bGBzba48,2020-0188,2021-09-23,12:01:46,13:11:18,NA,incomplete,false,NA,true,5,26,NA,left,E26_Q3_ansR.png,E26_Q8_ansL.png,within,NA,NaN,NA,right,2041.5,0,1,1008.0999999940395
bGBzba48,NA,NA,bGBzba48,2020-0188,2021-09-23,12:01:46,13:11:18,NA,incomplete,false,true,NA,6,0,E8_Q6_ansL.png,left,NA,NA,NA,left,1842.20000000298,true,NA,NA,NA,NA,NA
bGBzba48,NA,NA,bGBzba48,2020-0188,2021-09-23,12:01:46,13:11:18,NA,incomplete,false,true,NA,6,1,E8_Q4_ansL.png,left,NA,NA,NA,left,1007.5,true,NA,NA,NA,NA,NA
bGBzba48,NA,NA,bGBzba48,2020-0188,2021-09-23,12:01:46,13:11:18,NA,incomplete,false,true,NA,6,2,E8_Q1_ansR.png,right,NA,NA,NA,right,911.70000000298,true,NA,NA,NA,NA,NA
bGBzba48,NA,NA,bGBzba48,2020-0188,2021-09-23,12:01:46,13:11:18,NA,incomplete,false,true,NA,6,3,E8_Q3_ansL.png,left,NA,NA,NA,right,647.79999999702,false,NA,NA,NA,NA,NA
bGBzba48,NA,NA,bGBzba48,2020-0188,2021-09-23,12:01:46,13:11:18,NA,incomplete,false,true,NA,6,4,E8_Q8_ansR.png,right,NA,NA,NA,right,1023,true,NA,NA,NA,NA,NA
bGBzba48,NA,NA,bGBzba48,2020-0188,2021-09-23,12:01:46,13:11:18,NA,incomplete,false,true,NA,6,5,E8_Q9_ansL.png,left,NA,NA,NA,left,959.79999999702,true,NA,NA,NA,NA,NA
bGBzba48,NA,NA,bGBzba48,2020-0188,2021-09-23,12:01:46,13:11:18,NA,incomplete,false,true,NA,6,6,E8_Q7_ansR.png,right,NA,NA,NA,right,1839.70000000298,true,NA,NA,NA,NA,NA
bGBzba48,NA,NA,bGBzba48,2020-0188,2021-09-23,12:01:46,13:11:18,NA,incomplete,false,true,NA,6,7,E8_Q2_ansR.png,right,NA,NA,NA,right,1842.90000000596,true,NA,NA,NA,NA,NA
bGBzba48,NA,NA,bGBzba48,2020-0188,2021-09-23,12:01:46,13:11:18,NA,incomplete,false,true,NA,6,8,E8_Q10_ansR.png,right,NA,NA,NA,right,1694.70000000298,true,NA,NA,NA,NA,NA
bGBzba48,NA,NA,bGBzba48,2020-0188,2021-09-23,12:01:46,13:11:18,NA,incomplete,false,true,NA,6,9,E8_Q5_ansL.png,left,NA,NA,NA,left,2123.5,true,NA,NA,NA,NA,NA
bGBzba48,NA,NA,bGBzba48,2020-0188,2021-09-23,12:01:46,13:11:18,NA,incomplete,false,true,NA,6,10,E27_Q5_ansR.png,right,NA,NA,NA,right,1264,true,NA,NA,NA,NA,NA
bGBzba48,NA,NA,bGBzba48,2020-0188,2021-09-23,12:01:46,13:11:18,NA,incomplete,false,true,NA,6,11,E27_Q1_ansL.png,left,NA,NA,NA,left,1180.39999999106,true,NA,NA,NA,NA,NA
bGBzba48,NA,NA,bGBzba48,2020-0188,2021-09-23,12:01:46,13:11:18,NA,incomplete,false,true,NA,6,12,E27_Q6_ansR.png,right,NA,NA,NA,right,1326.79999999702,true,NA,NA,NA,NA,NA
bGBzba48,NA,NA,bGBzba48,2020-0188,2021-09-23,12:01:46,13:11:18,NA,incomplete,false,true,NA,6,13,E27_Q7_ansL.png,left,NA,NA,NA,left,1456.20000000298,true,NA,NA,NA,NA,NA
bGBzba48,NA,NA,bGBzba48,2020-0188,2021-09-23,12:01:46,13:11:18,NA,incomplete,false,true,NA,6,14,E27_Q4_ansR.png,right,NA,NA,NA,right,720.899999991059,true,NA,NA,NA,NA,NA
bGBzba48,NA,NA,bGBzba48,2020-0188,2021-09-23,12:01:46,13:11:18,NA,incomplete,false,true,NA,6,15,E27_Q10_ansL.png,left,NA,NA,NA,left,1022.39999999106,true,NA,NA,NA,NA,NA
bGBzba48,NA,NA,bGBzba48,2020-0188,2021-09-23,12:01:46,13:11:18,NA,incomplete,false,true,NA,6,16,E27_Q2_ansL.png,left,NA,NA,NA,left,921.79999999702,true,NA,NA,NA,NA,NA
bGBzba48,NA,NA,bGBzba48,2020-0188,2021-09-23,12:01:46,13:11:18,NA,incomplete,false,true,NA,6,17,E27_Q3_ansR.png,right,NA,NA,NA,right,1355.39999999106,true,NA,NA,NA,NA,NA
bGBzba48,NA,NA,bGBzba48,2020-0188,2021-09-23,12:01:46,13:11:18,NA,incomplete,false,true,NA,6,18,E27_Q9_ansR.png,right,NA,NA,NA,right,1030.5,true,NA,NA,NA,NA,NA
bGBzba48,NA,NA,bGBzba48,2020-0188,2021-09-23,12:01:46,13:11:18,NA,incomplete,false,true,NA,6,19,E27_Q8_ansL.png,left,NA,NA,NA,left,1484,true,NA,NA,NA,NA,NA
bGBzba48,NA,NA,bGBzba48,2020-0188,2021-09-23,12:01:46,13:11:18,NA,incomplete,false,true,NA,6,20,E2_Q8_ansR.png,right,NA,NA,NA,right,3147,true,NA,NA,NA,NA,NA
bGBzba48,NA,NA,bGBzba48,2020-0188,2021-09-23,12:01:46,13:11:18,NA,incomplete,false,true,NA,6,21,E2_Q7_ansR.png,right,NA,NA,NA,right,2652.09999999404,true,NA,NA,NA,NA,NA
bGBzba48,NA,NA,bGBzba48,2020-0188,2021-09-23,12:01:46,13:11:18,NA,incomplete,false,true,NA,6,22,E2_Q6_ansL.png,left,NA,NA,NA,left,1073.09999999404,true,NA,NA,NA,NA,NA
bGBzba48,NA,NA,bGBzba48,2020-0188,2021-09-23,12:01:46,13:11:18,NA,incomplete,false,true,NA,6,23,E2_Q5_ansL.png,left,NA,NA,NA,left,1287.29999999702,true,NA,NA,NA,NA,NA
bGBzba48,NA,NA,bGBzba48,2020-0188,2021-09-23,12:01:46,13:11:18,NA,incomplete,false,true,NA,6,24,E2_Q9_ansL.png,left,NA,NA,NA,right,1320.09999999404,false,NA,NA,NA,NA,NA
bGBzba48,NA,NA,bGBzba48,2020-0188,2021-09-23,12:01:46,13:11:18,NA,incomplete,false,true,NA,6,25,E2_Q3_ansR.png,right,NA,NA,NA,right,1951.5,true,NA,NA,NA,NA,NA
bGBzba48,NA,NA,bGBzba48,2020-0188,2021-09-23,12:01:46,13:11:18,NA,incomplete,false,true,NA,6,26,E2_Q2_ansR.png,right,NA,NA,NA,right,1234.79999999702,true,NA,NA,NA,NA,NA
bGBzba48,NA,NA,bGBzba48,2020-0188,2021-09-23,12:01:46,13:11:18,NA,incomplete,false,true,NA,6,27,E2_Q10_ansL.png,left,NA,NA,NA,left,1788.79999999702,true,NA,NA,NA,NA,NA
bGBzba48,NA,NA,bGBzba48,2020-0188,2021-09-23,12:01:46,13:11:18,NA,incomplete,false,true,NA,6,28,E2_Q1_ansL.png,left,NA,NA,NA,left,1487.90000000596,true,NA,NA,NA,NA,NA
bGBzba48,NA,NA,bGBzba48,2020-0188,2021-09-23,12:01:46,13:11:18,NA,incomplete,false,true,NA,6,29,E2_Q4_ansL.png,left,NA,NA,NA,none,0,false,NA,NA,NA,NA,NA
bGBzba48,NA,NA,bGBzba48,2020-0188,2021-09-23,12:01:46,13:11:18,NA,incomplete,false,NA,true,6,0,NA,right,E27_Q10_ansL.png,E27_Q6_ansR.png,within,NA,NaN,NA,right,2314.7000000029802,1,1,1652.0999999940395
bGBzba48,NA,NA,bGBzba48,2020-0188,2021-09-23,12:01:46,13:11:18,NA,incomplete,false,NA,true,6,1,NA,right,E8_Q8_ansR.png,E8_Q4_ansL.png,within,NA,NaN,NA,right,2667.4000000059605,1,1,1643.7999999970198
bGBzba48,NA,NA,bGBzba48,2020-0188,2021-09-23,12:01:46,13:11:18,NA,incomplete,false,NA,true,6,2,NA,right,E27_Q5_ansR.png,E8_Q2_ansR.png,between,NA,NaN,NA,right,1421.2999999970198,1,2,1269
bGBzba48,NA,NA,bGBzba48,2020-0188,2021-09-23,12:01:46,13:11:18,NA,incomplete,false,NA,true,6,3,NA,left,E27_Q4_ansR.png,E27_Q3_ansR.png,within,NA,NaN,NA,left,1976.5999999940395,1,1,1357.5999999940395
bGBzba48,NA,NA,bGBzba48,2020-0188,2021-09-23,12:01:46,13:11:18,NA,incomplete,false,NA,true,6,4,NA,left,E27_Q10_ansL.png,E27_Q9_ansR.png,within,NA,NaN,NA,left,2345.3999999910593,1,0,1000.7999999970198
bGBzba48,NA,NA,bGBzba48,2020-0188,2021-09-23,12:01:46,13:11:18,NA,incomplete,false,NA,true,6,5,NA,right,E27_Q7_ansL.png,E27_Q5_ansR.png,within,NA,NaN,NA,right,745.6000000089407,1,1,904.1000000089407
bGBzba48,NA,NA,bGBzba48,2020-0188,2021-09-23,12:01:46,13:11:18,NA,incomplete,false,NA,true,6,6,NA,left,E2_Q5_ansL.png,E2_Q2_ansR.png,within,NA,NaN,NA,left,4053.2999999970198,1,1,1792.7999999970198
bGBzba48,NA,NA,bGBzba48,2020-0188,2021-09-23,12:01:46,13:11:18,NA,incomplete,false,NA,true,6,7,NA,right,E27_Q1_ansL.png,E8_Q10_ansR.png,between,NA,NaN,NA,right,1811.2999999970198,1,2,1553.2000000029802
bGBzba48,NA,NA,bGBzba48,2020-0188,2021-09-23,12:01:46,13:11:18,NA,incomplete,false,NA,true,6,8,NA,left,E8_Q8_ansR.png,E8_Q2_ansR.png,within,NA,NaN,NA,left,1658.0999999940395,1,1,864.5
bGBzba48,NA,NA,bGBzba48,2020-0188,2021-09-23,12:01:46,13:11:18,NA,incomplete,false,NA,true,6,9,NA,left,E8_Q7_ansR.png,E8_Q5_ansL.png,within,NA,NaN,NA,left,1290.5,1,1,1245.7000000029802
bGBzba48,NA,NA,bGBzba48,2020-0188,2021-09-23,12:01:46,13:11:18,NA,incomplete,false,NA,true,6,10,NA,left,E8_Q1_ansR.png,E8_Q9_ansL.png,within,NA,NaN,NA,left,2111.5999999940395,1,1,881
bGBzba48,NA,NA,bGBzba48,2020-0188,2021-09-23,12:01:46,13:11:18,NA,incomplete,false,NA,true,6,11,NA,left,E8_Q5_ansL.png,E27_Q6_ansR.png,between,NA,NaN,NA,left,1143.5,1,2,943.8999999910593
bGBzba48,NA,NA,bGBzba48,2020-0188,2021-09-23,12:01:46,13:11:18,NA,incomplete,false,NA,true,6,12,NA,right,E2_Q5_ansL.png,E2_Q8_ansR.png,within,NA,NaN,NA,right,1341.7999999970198,1,1,960.5
bGBzba48,NA,NA,bGBzba48,2020-0188,2021-09-23,12:01:46,13:11:18,NA,incomplete,false,NA,true,6,13,NA,right,E2_Q6_ansL.png,E27_Q8_ansL.png,between,NA,NaN,NA,right,4106.5,1,2,1923.6000000089407
bGBzba48,NA,NA,bGBzba48,2020-0188,2021-09-23,12:01:46,13:11:18,NA,incomplete,false,NA,true,6,14,NA,right,E2_Q7_ansR.png,E27_Q9_ansR.png,between,NA,NaN,NA,right,2547.7999999970198,1,2,1295.2999999970198
bGBzba48,NA,NA,bGBzba48,2020-0188,2021-09-23,12:01:46,13:11:18,NA,incomplete,false,NA,true,6,15,NA,right,E2_Q10_ansL.png,E2_Q9_ansL.png,within,NA,NaN,NA,right,1987.6000000089407,1,1,1403.5999999940395
bGBzba48,NA,NA,bGBzba48,2020-0188,2021-09-23,12:01:46,13:11:18,NA,incomplete,false,NA,true,6,16,NA,left,E27_Q2_ansL.png,E27_Q8_ansL.png,within,NA,NaN,NA,right,3446.5,0,0,936.2000000029802
bGBzba48,NA,NA,bGBzba48,2020-0188,2021-09-23,12:01:46,13:11:18,NA,incomplete,false,NA,true,6,17,NA,left,E2_Q3_ansR.png,E2_Q1_ansL.png,within,NA,NaN,NA,right,1542.7000000029802,0,0,1103.7999999970198
bGBzba48,NA,NA,bGBzba48,2020-0188,2021-09-23,12:01:46,13:11:18,NA,incomplete,false,NA,true,6,18,NA,left,E2_Q6_ansL.png,E2_Q3_ansR.png,within,NA,NaN,NA,left,1207.6000000089407,1,0,1174.5
bGBzba48,NA,NA,bGBzba48,2020-0188,2021-09-23,12:01:46,13:11:18,NA,incomplete,false,NA,true,6,19,NA,right,E8_Q3_ansL.png,E8_Q6_ansL.png,within,NA,NaN,NA,right,2368,1,1,913.5
bGBzba48,NA,NA,bGBzba48,2020-0188,2021-09-23,12:01:46,13:11:18,NA,incomplete,false,NA,true,6,20,NA,left,E2_Q7_ansR.png,E2_Q9_ansL.png,within,NA,NaN,NA,left,3638.5,1,1,1729.5999999940395
bGBzba48,NA,NA,bGBzba48,2020-0188,2021-09-23,12:01:46,13:11:18,NA,incomplete,false,NA,true,6,21,NA,right,E2_Q4_ansL.png,E2_Q2_ansR.png,within,NA,NaN,NA,right,1379.5,1,1,1252.2999999970198
bGBzba48,NA,NA,bGBzba48,2020-0188,2021-09-23,12:01:46,13:11:18,NA,incomplete,false,NA,true,6,22,NA,left,E27_Q7_ansL.png,E27_Q2_ansL.png,within,NA,NaN,NA,left,1041.9000000059605,1,1,874.0999999940395
bGBzba48,NA,NA,bGBzba48,2020-0188,2021-09-23,12:01:46,13:11:18,NA,incomplete,false,NA,true,6,23,NA,left,E8_Q9_ansL.png,E8_Q10_ansR.png,within,NA,NaN,NA,left,1117.1000000089407,1,1,908.9000000059605
bGBzba48,NA,NA,bGBzba48,2020-0188,2021-09-23,12:01:46,13:11:18,NA,incomplete,false,NA,true,6,24,NA,right,E2_Q8_ansR.png,E27_Q3_ansR.png,between,NA,NaN,NA,left,946.9000000059605,0,2,1984.5
bGBzba48,NA,NA,bGBzba48,2020-0188,2021-09-23,12:01:46,13:11:18,NA,incomplete,false,NA,true,6,25,NA,right,E8_Q7_ansR.png,E8_Q3_ansL.png,within,NA,NaN,NA,right,2240.6000000089407,1,0,1840.9000000059605
bGBzba48,NA,NA,bGBzba48,2020-0188,2021-09-23,12:01:46,13:11:18,NA,incomplete,false,NA,true,6,26,NA,right,E27_Q4_ansR.png,E27_Q1_ansL.png,within,NA,NaN,NA,right,2524.4000000059605,1,1,1485.5999999940395
bGBzba48,NA,NA,bGBzba48,2020-0188,2021-09-23,12:01:46,13:11:18,NA,incomplete,false,true,NA,7,0,E33_Q3_ansR.png,right,NA,NA,NA,right,2132.69999998808,true,NA,NA,NA,NA,NA
bGBzba48,NA,NA,bGBzba48,2020-0188,2021-09-23,12:01:46,13:11:18,NA,incomplete,false,true,NA,7,1,E33_Q4_ansR.png,right,NA,NA,NA,right,1335.09999999404,true,NA,NA,NA,NA,NA
bGBzba48,NA,NA,bGBzba48,2020-0188,2021-09-23,12:01:46,13:11:18,NA,incomplete,false,true,NA,7,2,E33_Q2_ansL.png,left,NA,NA,NA,left,2056.09999999404,true,NA,NA,NA,NA,NA
bGBzba48,NA,NA,bGBzba48,2020-0188,2021-09-23,12:01:46,13:11:18,NA,incomplete,false,true,NA,7,3,E33_Q5_ansR.png,right,NA,NA,NA,right,2710.20000000298,true,NA,NA,NA,NA,NA
bGBzba48,NA,NA,bGBzba48,2020-0188,2021-09-23,12:01:46,13:11:18,NA,incomplete,false,true,NA,7,4,E33_Q1_ansL.png,left,NA,NA,NA,left,1546.70000000298,true,NA,NA,NA,NA,NA
bGBzba48,NA,NA,bGBzba48,2020-0188,2021-09-23,12:01:46,13:11:18,NA,incomplete,false,true,NA,7,5,E33_Q9_ansR.png,right,NA,NA,NA,right,2311.70000000298,true,NA,NA,NA,NA,NA
bGBzba48,NA,NA,bGBzba48,2020-0188,2021-09-23,12:01:46,13:11:18,NA,incomplete,false,true,NA,7,6,E33_Q6_ansR.png,right,NA,NA,NA,right,1719.69999998808,true,NA,NA,NA,NA,NA
bGBzba48,NA,NA,bGBzba48,2020-0188,2021-09-23,12:01:46,13:11:18,NA,incomplete,false,true,NA,7,7,E33_Q7_ansL.png,left,NA,NA,NA,left,2149.29999999702,true,NA,NA,NA,NA,NA
bGBzba48,NA,NA,bGBzba48,2020-0188,2021-09-23,12:01:46,13:11:18,NA,incomplete,false,true,NA,7,8,E33_Q8_ansL.png,left,NA,NA,NA,left,1656.39999999106,true,NA,NA,NA,NA,NA
bGBzba48,NA,NA,bGBzba48,2020-0188,2021-09-23,12:01:46,13:11:18,NA,incomplete,false,true,NA,7,9,E33_Q10_ansL.png,left,NA,NA,NA,none,0,false,NA,NA,NA,NA,NA
bGBzba48,NA,NA,bGBzba48,2020-0188,2021-09-23,12:01:46,13:11:18,NA,incomplete,false,true,NA,7,10,E11_Q1_ansR.png,right,NA,NA,NA,right,1501.09999999404,true,NA,NA,NA,NA,NA
bGBzba48,NA,NA,bGBzba48,2020-0188,2021-09-23,12:01:46,13:11:18,NA,incomplete,false,true,NA,7,11,E11_Q8_ansR.png,right,NA,NA,NA,right,2293.80000001192,true,NA,NA,NA,NA,NA
bGBzba48,NA,NA,bGBzba48,2020-0188,2021-09-23,12:01:46,13:11:18,NA,incomplete,false,true,NA,7,12,E11_Q5_ansL.png,left,NA,NA,NA,left,2014.80000001192,true,NA,NA,NA,NA,NA
bGBzba48,NA,NA,bGBzba48,2020-0188,2021-09-23,12:01:46,13:11:18,NA,incomplete,false,true,NA,7,13,E11_Q6_ansL.png,left,NA,NA,NA,left,1637.29999999702,true,NA,NA,NA,NA,NA
bGBzba48,NA,NA,bGBzba48,2020-0188,2021-09-23,12:01:46,13:11:18,NA,incomplete,false,true,NA,7,14,E11_Q4_ansL.png,left,NA,NA,NA,left,1542.40000000596,true,NA,NA,NA,NA,NA
bGBzba48,NA,NA,bGBzba48,2020-0188,2021-09-23,12:01:46,13:11:18,NA,incomplete,false,true,NA,7,15,E11_Q2_ansR.png,right,NA,NA,NA,right,1300.10000000894,true,NA,NA,NA,NA,NA
bGBzba48,NA,NA,bGBzba48,2020-0188,2021-09-23,12:01:46,13:11:18,NA,incomplete,false,true,NA,7,16,E11_Q10_ansR.png,right,NA,NA,NA,right,1980.69999998808,true,NA,NA,NA,NA,NA
bGBzba48,NA,NA,bGBzba48,2020-0188,2021-09-23,12:01:46,13:11:18,NA,incomplete,false,true,NA,7,17,E11_Q9_ansL.png,left,NA,NA,NA,left,1229.40000000596,true,NA,NA,NA,NA,NA
bGBzba48,NA,NA,bGBzba48,2020-0188,2021-09-23,12:01:46,13:11:18,NA,incomplete,false,true,NA,7,18,E11_Q3_ansL.png,left,NA,NA,NA,left,1559.09999999404,true,NA,NA,NA,NA,NA
bGBzba48,NA,NA,bGBzba48,2020-0188,2021-09-23,12:01:46,13:11:18,NA,incomplete,false,true,NA,7,19,E11_Q7_ansR.png,right,NA,NA,NA,right,1661.29999999702,true,NA,NA,NA,NA,NA
bGBzba48,NA,NA,bGBzba48,2020-0188,2021-09-23,12:01:46,13:11:18,NA,incomplete,false,true,NA,7,20,E19_Q5_ansR.png,right,NA,NA,NA,right,2120.70000000298,true,NA,NA,NA,NA,NA
bGBzba48,NA,NA,bGBzba48,2020-0188,2021-09-23,12:01:46,13:11:18,NA,incomplete,false,true,NA,7,21,E19_Q2_ansL.png,left,NA,NA,NA,left,1190,true,NA,NA,NA,NA,NA
bGBzba48,NA,NA,bGBzba48,2020-0188,2021-09-23,12:01:46,13:11:18,NA,incomplete,false,true,NA,7,22,E19_Q7_ansL.png,left,NA,NA,NA,left,1487.39999999106,true,NA,NA,NA,NA,NA
bGBzba48,NA,NA,bGBzba48,2020-0188,2021-09-23,12:01:46,13:11:18,NA,incomplete,false,true,NA,7,23,E19_Q6_ansR.png,right,NA,NA,NA,right,1880.59999999404,true,NA,NA,NA,NA,NA
bGBzba48,NA,NA,bGBzba48,2020-0188,2021-09-23,12:01:46,13:11:18,NA,incomplete,false,true,NA,7,24,E19_Q9_ansR.png,right,NA,NA,NA,right,1638.5,true,NA,NA,NA,NA,NA
bGBzba48,NA,NA,bGBzba48,2020-0188,2021-09-23,12:01:46,13:11:18,NA,incomplete,false,true,NA,7,25,E19_Q1_ansL.png,left,NA,NA,NA,left,1333.59999999404,true,NA,NA,NA,NA,NA
bGBzba48,NA,NA,bGBzba48,2020-0188,2021-09-23,12:01:46,13:11:18,NA,incomplete,false,true,NA,7,26,E19_Q4_ansR.png,right,NA,NA,NA,right,1255.59999999404,true,NA,NA,NA,NA,NA
bGBzba48,NA,NA,bGBzba48,2020-0188,2021-09-23,12:01:46,13:11:18,NA,incomplete,false,true,NA,7,27,E19_Q3_ansR.png,right,NA,NA,NA,right,1287.5,true,NA,NA,NA,NA,NA
bGBzba48,NA,NA,bGBzba48,2020-0188,2021-09-23,12:01:46,13:11:18,NA,incomplete,false,true,NA,7,28,E19_Q8_ansL.png,left,NA,NA,NA,left,2846.40000000596,true,NA,NA,NA,NA,NA
bGBzba48,NA,NA,bGBzba48,2020-0188,2021-09-23,12:01:46,13:11:18,NA,incomplete,false,true,NA,7,29,E19_Q10_ansL.png,left,NA,NA,NA,left,2189.60000000894,true,NA,NA,NA,NA,NA
bGBzba48,NA,NA,bGBzba48,2020-0188,2021-09-23,12:01:46,13:11:18,NA,incomplete,false,NA,true,7,0,NA,left,E33_Q1_ansL.png,E33_Q7_ansL.png,within,NA,NaN,NA,left,3035.7000000029802,1,1,1006.8999999910593
bGBzba48,NA,NA,bGBzba48,2020-0188,2021-09-23,12:01:46,13:11:18,NA,incomplete,false,NA,true,7,1,NA,right,E33_Q10_ansL.png,E33_Q6_ansR.png,within,NA,NaN,NA,left,2195.7999999970198,0,1,1077.7000000029802
bGBzba48,NA,NA,bGBzba48,2020-0188,2021-09-23,12:01:46,13:11:18,NA,incomplete,false,NA,true,7,2,NA,left,E19_Q6_ansR.png,E19_Q4_ansR.png,within,NA,NaN,NA,right,1612.7999999970198,0,0,1928.699999988079
bGBzba48,NA,NA,bGBzba48,2020-0188,2021-09-23,12:01:46,13:11:18,NA,incomplete,false,NA,true,7,3,NA,right,E11_Q4_ansL.png,E11_Q8_ansR.png,within,NA,NaN,NA,right,1039.0999999940395,1,1,1070.199999988079
bGBzba48,NA,NA,bGBzba48,2020-0188,2021-09-23,12:01:46,13:11:18,NA,incomplete,false,NA,true,7,4,NA,right,E11_Q3_ansL.png,E11_Q2_ansR.png,within,NA,NaN,NA,right,1337.4000000059605,1,1,1068.9000000059605
bGBzba48,NA,NA,bGBzba48,2020-0188,2021-09-23,12:01:46,13:11:18,NA,incomplete,false,NA,true,7,5,NA,left,E19_Q5_ansR.png,E19_Q6_ansR.png,within,NA,NaN,NA,left,1222.2000000029802,1,1,1116.800000011921
bGBzba48,NA,NA,bGBzba48,2020-0188,2021-09-23,12:01:46,13:11:18,NA,incomplete,false,NA,true,7,6,NA,right,E11_Q1_ansR.png,E33_Q7_ansL.png,between,NA,NaN,NA,right,1539.7000000029802,1,2,1231.5
bGBzba48,NA,NA,bGBzba48,2020-0188,2021-09-23,12:01:46,13:11:18,NA,incomplete,false,NA,true,7,7,NA,right,E19_Q1_ansL.png,E19_Q7_ansL.png,within,NA,NaN,NA,right,1532.2000000029802,1,1,1578.9000000059605
bGBzba48,NA,NA,bGBzba48,2020-0188,2021-09-23,12:01:46,13:11:18,NA,incomplete,false,NA,true,7,8,NA,right,E19_Q10_ansL.png,E19_Q4_ansR.png,within,NA,NaN,NA,right,2582.5999999940395,1,0,2120.199999988079
bGBzba48,NA,NA,bGBzba48,2020-0188,2021-09-23,12:01:46,13:11:18,NA,incomplete,false,NA,true,7,9,NA,right,E19_Q2_ansL.png,E11_Q3_ansL.png,between,NA,NaN,NA,right,1024.1000000089407,1,2,1167.5999999940395
bGBzba48,NA,NA,bGBzba48,2020-0188,2021-09-23,12:01:46,13:11:18,NA,incomplete,false,NA,true,7,10,NA,right,E11_Q2_ansR.png,E11_Q5_ansL.png,within,NA,NaN,NA,right,1357.7999999970198,1,1,799.5999999940395
bGBzba48,NA,NA,bGBzba48,2020-0188,2021-09-23,12:01:46,13:11:18,NA,incomplete,false,NA,true,7,11,NA,right,E33_Q9_ansR.png,E33_Q2_ansL.png,within,NA,NaN,NA,right,2221.5,1,0,976
bGBzba48,NA,NA,bGBzba48,2020-0188,2021-09-23,12:01:46,13:11:18,NA,incomplete,false,NA,true,7,12,NA,right,E33_Q1_ansL.png,E33_Q4_ansR.png,within,NA,NaN,NA,right,1779.7999999970198,1,1,2078.6000000089407
bGBzba48,NA,NA,bGBzba48,2020-0188,2021-09-23,12:01:46,13:11:18,NA,incomplete,false,NA,true,7,13,NA,right,E33_Q5_ansR.png,E33_Q3_ansR.png,within,NA,NaN,NA,right,2452.1000000089407,1,1,2080.5999999940395
bGBzba48,NA,NA,bGBzba48,2020-0188,2021-09-23,12:01:46,13:11:18,NA,incomplete,false,NA,true,7,14,NA,left,E33_Q10_ansL.png,E11_Q5_ansL.png,between,NA,NaN,NA,left,1314.5,1,1,895.1000000089407
bGBzba48,NA,NA,bGBzba48,2020-0188,2021-09-23,12:01:46,13:11:18,NA,incomplete,false,NA,true,7,15,NA,left,E11_Q7_ansR.png,E19_Q7_ansL.png,between,NA,NaN,NA,left,2071.3999999910593,1,2,1049.8999999910593
bGBzba48,NA,NA,bGBzba48,2020-0188,2021-09-23,12:01:46,13:11:18,NA,incomplete,false,NA,true,7,16,NA,left,E33_Q8_ansL.png,E11_Q8_ansR.png,between,NA,NaN,NA,left,2646.7000000029802,1,3,3829.0999999940395
bGBzba48,NA,NA,bGBzba48,2020-0188,2021-09-23,12:01:46,13:11:18,NA,incomplete,false,NA,true,7,17,NA,left,E11_Q1_ansR.png,E11_Q6_ansL.png,within,NA,NaN,NA,left,2775.0999999940395,1,0,1024.800000011921
bGBzba48,NA,NA,bGBzba48,2020-0188,2021-09-23,12:01:46,13:11:18,NA,incomplete,false,NA,true,7,18,NA,right,E33_Q8_ansL.png,E33_Q9_ansR.png,within,NA,NaN,NA,right,1366.0999999940395,1,0,1286.7000000029802
bGBzba48,NA,NA,bGBzba48,2020-0188,2021-09-23,12:01:46,13:11:18,NA,incomplete,false,NA,true,7,19,NA,right,E33_Q6_ansR.png,E33_Q5_ansR.png,within,NA,NaN,NA,left,1501.2000000029802,0,1,1182.5999999940395
bGBzba48,NA,NA,bGBzba48,2020-0188,2021-09-23,12:01:46,13:11:18,NA,incomplete,false,NA,true,7,20,NA,right,E11_Q10_ansR.png,E11_Q6_ansL.png,within,NA,NaN,NA,right,1668.7999999970198,1,1,1071.4000000059605
bGBzba48,NA,NA,bGBzba48,2020-0188,2021-09-23,12:01:46,13:11:18,NA,incomplete,false,NA,true,7,21,NA,left,E11_Q10_ansR.png,E11_Q7_ansR.png,within,NA,NaN,NA,left,1903.5999999940395,1,1,999.5
bGBzba48,NA,NA,bGBzba48,2020-0188,2021-09-23,12:01:46,13:11:18,NA,incomplete,false,NA,true,7,22,NA,right,E19_Q3_ansR.png,E19_Q9_ansR.png,within,NA,NaN,NA,left,1263.2000000029802,0,0,1689.7999999970198
bGBzba48,NA,NA,bGBzba48,2020-0188,2021-09-23,12:01:46,13:11:18,NA,incomplete,false,NA,true,7,23,NA,right,E19_Q9_ansR.png,E19_Q2_ansL.png,within,NA,NaN,NA,right,792.5999999940395,1,1,1269.8999999910593
bGBzba48,NA,NA,bGBzba48,2020-0188,2021-09-23,12:01:46,13:11:18,NA,incomplete,false,NA,true,7,24,NA,left,E11_Q9_ansL.png,E19_Q5_ansR.png,between,NA,NaN,NA,left,1730.5999999940395,1,2,920
bGBzba48,NA,NA,bGBzba48,2020-0188,2021-09-23,12:01:46,13:11:18,NA,incomplete,false,NA,true,7,25,NA,right,E19_Q8_ansL.png,E19_Q1_ansL.png,within,NA,NaN,NA,right,1481.2999999970198,1,1,898.0999999940395
bGBzba48,NA,NA,bGBzba48,2020-0188,2021-09-23,12:01:46,13:11:18,NA,incomplete,false,NA,true,7,26,NA,right,E11_Q9_ansL.png,E11_Q4_ansL.png,within,NA,NaN,NA,right,1299.9000000059605,1,1,1007.7000000029802
bGBzba48,NA,NA,bGBzba48,2020-0188,2021-09-23,12:01:46,13:11:18,NA,incomplete,false,true,NA,8,0,E24_Q6_ansL.png,left,NA,NA,NA,left,1780.89999999106,true,NA,NA,NA,NA,NA
bGBzba48,NA,NA,bGBzba48,2020-0188,2021-09-23,12:01:46,13:11:18,NA,incomplete,false,true,NA,8,1,E24_Q5_ansL.png,left,NA,NA,NA,left,1148.79999999702,true,NA,NA,NA,NA,NA
bGBzba48,NA,NA,bGBzba48,2020-0188,2021-09-23,12:01:46,13:11:18,NA,incomplete,false,true,NA,8,2,E24_Q1_ansR.png,right,NA,NA,NA,right,1202.5,true,NA,NA,NA,NA,NA
bGBzba48,NA,NA,bGBzba48,2020-0188,2021-09-23,12:01:46,13:11:18,NA,incomplete,false,true,NA,8,3,E24_Q8_ansR.png,right,NA,NA,NA,right,1262.60000000894,true,NA,NA,NA,NA,NA
bGBzba48,NA,NA,bGBzba48,2020-0188,2021-09-23,12:01:46,13:11:18,NA,incomplete,false,true,NA,8,4,E24_Q7_ansR.png,right,NA,NA,NA,right,1241.90000000596,true,NA,NA,NA,NA,NA
bGBzba48,NA,NA,bGBzba48,2020-0188,2021-09-23,12:01:46,13:11:18,NA,incomplete,false,true,NA,8,5,E24_Q9_ansL.png,left,NA,NA,NA,left,1493.59999999404,true,NA,NA,NA,NA,NA
bGBzba48,NA,NA,bGBzba48,2020-0188,2021-09-23,12:01:46,13:11:18,NA,incomplete,false,true,NA,8,6,E24_Q3_ansL.png,left,NA,NA,NA,left,1544.79999999702,true,NA,NA,NA,NA,NA
bGBzba48,NA,NA,bGBzba48,2020-0188,2021-09-23,12:01:46,13:11:18,NA,incomplete,false,true,NA,8,7,E24_Q2_ansR.png,right,NA,NA,NA,right,1272.29999999702,true,NA,NA,NA,NA,NA
bGBzba48,NA,NA,bGBzba48,2020-0188,2021-09-23,12:01:46,13:11:18,NA,incomplete,false,true,NA,8,8,E24_Q10_ansR.png,right,NA,NA,NA,right,1437.5,true,NA,NA,NA,NA,NA
bGBzba48,NA,NA,bGBzba48,2020-0188,2021-09-23,12:01:46,13:11:18,NA,incomplete,false,true,NA,8,9,E24_Q4_ansL.png,left,NA,NA,NA,left,1537.90000000596,true,NA,NA,NA,NA,NA
bGBzba48,NA,NA,bGBzba48,2020-0188,2021-09-23,12:01:46,13:11:18,NA,incomplete,false,true,NA,8,10,E22_Q7_ansR.png,right,NA,NA,NA,right,1584.39999999106,true,NA,NA,NA,NA,NA
bGBzba48,NA,NA,bGBzba48,2020-0188,2021-09-23,12:01:46,13:11:18,NA,incomplete,false,true,NA,8,11,E22_Q6_ansL.png,left,NA,NA,NA,left,1282.90000000596,true,NA,NA,NA,NA,NA
bGBzba48,NA,NA,bGBzba48,2020-0188,2021-09-23,12:01:46,13:11:18,NA,incomplete,false,true,NA,8,12,E22_Q4_ansL.png,left,NA,NA,NA,left,1226.60000000894,true,NA,NA,NA,NA,NA
bGBzba48,NA,NA,bGBzba48,2020-0188,2021-09-23,12:01:46,13:11:18,NA,incomplete,false,true,NA,8,13,E22_Q10_ansR.png,right,NA,NA,NA,right,1562.29999999702,true,NA,NA,NA,NA,NA
bGBzba48,NA,NA,bGBzba48,2020-0188,2021-09-23,12:01:46,13:11:18,NA,incomplete,false,true,NA,8,14,E22_Q5_ansL.png,left,NA,NA,NA,left,1520.39999999106,true,NA,NA,NA,NA,NA
bGBzba48,NA,NA,bGBzba48,2020-0188,2021-09-23,12:01:46,13:11:18,NA,incomplete,false,true,NA,8,15,E22_Q9_ansL.png,left,NA,NA,NA,left,1228.40000000596,true,NA,NA,NA,NA,NA
bGBzba48,NA,NA,bGBzba48,2020-0188,2021-09-23,12:01:46,13:11:18,NA,incomplete,false,true,NA,8,16,E22_Q8_ansR.png,right,NA,NA,NA,right,1224.29999999702,true,NA,NA,NA,NA,NA
bGBzba48,NA,NA,bGBzba48,2020-0188,2021-09-23,12:01:46,13:11:18,NA,incomplete,false,true,NA,8,17,E22_Q2_ansR.png,right,NA,NA,NA,right,1454.20000000298,true,NA,NA,NA,NA,NA
bGBzba48,NA,NA,bGBzba48,2020-0188,2021-09-23,12:01:46,13:11:18,NA,incomplete,false,true,NA,8,18,E22_Q3_ansL.png,left,NA,NA,NA,left,1688,true,NA,NA,NA,NA,NA
bGBzba48,NA,NA,bGBzba48,2020-0188,2021-09-23,12:01:46,13:11:18,NA,incomplete,false,true,NA,8,19,E22_Q1_ansR.png,right,NA,NA,NA,right,1145.5,true,NA,NA,NA,NA,NA
bGBzba48,NA,NA,bGBzba48,2020-0188,2021-09-23,12:01:46,13:11:18,NA,incomplete,false,true,NA,8,20,E28_Q6_ansL.png,left,NA,NA,NA,left,1769.29999999702,true,NA,NA,NA,NA,NA
bGBzba48,NA,NA,bGBzba48,2020-0188,2021-09-23,12:01:46,13:11:18,NA,incomplete,false,true,NA,8,21,E28_Q2_ansR.png,right,NA,NA,NA,right,1323.09999999404,true,NA,NA,NA,NA,NA
bGBzba48,NA,NA,bGBzba48,2020-0188,2021-09-23,12:01:46,13:11:18,NA,incomplete,false,true,NA,8,22,E28_Q9_ansL.png,left,NA,NA,NA,left,1142.60000000894,true,NA,NA,NA,NA,NA
bGBzba48,NA,NA,bGBzba48,2020-0188,2021-09-23,12:01:46,13:11:18,NA,incomplete,false,true,NA,8,23,E28_Q1_ansR.png,right,NA,NA,NA,right,1147,true,NA,NA,NA,NA,NA
bGBzba48,NA,NA,bGBzba48,2020-0188,2021-09-23,12:01:46,13:11:18,NA,incomplete,false,true,NA,8,24,E28_Q8_ansR.png,right,NA,NA,NA,right,1230.90000000596,true,NA,NA,NA,NA,NA
bGBzba48,NA,NA,bGBzba48,2020-0188,2021-09-23,12:01:46,13:11:18,NA,incomplete,false,true,NA,8,25,E28_Q7_ansR.png,right,NA,NA,NA,right,983.29999999702,true,NA,NA,NA,NA,NA
bGBzba48,NA,NA,bGBzba48,2020-0188,2021-09-23,12:01:46,13:11:18,NA,incomplete,false,true,NA,8,26,E28_Q4_ansL.png,left,NA,NA,NA,left,1283.5,true,NA,NA,NA,NA,NA
bGBzba48,NA,NA,bGBzba48,2020-0188,2021-09-23,12:01:46,13:11:18,NA,incomplete,false,true,NA,8,27,E28_Q10_ansR.png,right,NA,NA,NA,right,1293.69999998808,true,NA,NA,NA,NA,NA
bGBzba48,NA,NA,bGBzba48,2020-0188,2021-09-23,12:01:46,13:11:18,NA,incomplete,false,true,NA,8,28,E28_Q5_ansL.png,left,NA,NA,NA,left,988,true,NA,NA,NA,NA,NA
bGBzba48,NA,NA,bGBzba48,2020-0188,2021-09-23,12:01:46,13:11:18,NA,incomplete,false,true,NA,8,29,E28_Q3_ansL.png,left,NA,NA,NA,left,1270.5,true,NA,NA,NA,NA,NA
bGBzba48,NA,NA,bGBzba48,2020-0188,2021-09-23,12:01:46,13:11:18,NA,incomplete,false,NA,true,8,0,NA,right,E28_Q3_ansL.png,E28_Q4_ansL.png,within,NA,NaN,NA,right,2213.9000000059605,1,0,1707.9000000059605
bGBzba48,NA,NA,bGBzba48,2020-0188,2021-09-23,12:01:46,13:11:18,NA,incomplete,false,NA,true,8,1,NA,left,E22_Q3_ansL.png,E28_Q2_ansR.png,between,NA,NaN,NA,left,1103.2000000029802,1,2,1366.2000000029802
bGBzba48,NA,NA,bGBzba48,2020-0188,2021-09-23,12:01:46,13:11:18,NA,incomplete,false,NA,true,8,2,NA,left,E28_Q7_ansR.png,E28_Q5_ansL.png,within,NA,NaN,NA,right,1476.199999988079,0,1,1206.1000000089407
bGBzba48,NA,NA,bGBzba48,2020-0188,2021-09-23,12:01:46,13:11:18,NA,incomplete,false,NA,true,8,3,NA,left,E24_Q8_ansR.png,E24_Q3_ansL.png,within,NA,NaN,NA,left,10474.40000000596,1,1,2788.8999999910593
bGBzba48,NA,NA,bGBzba48,2020-0188,2021-09-23,12:01:46,13:11:18,NA,incomplete,false,NA,true,8,4,NA,left,E24_Q3_ansL.png,E24_Q4_ansL.png,within,NA,NaN,NA,right,5373.4000000059605,0,1,929.2999999970198
bGBzba48,NA,NA,bGBzba48,2020-0188,2021-09-23,12:01:46,13:11:18,NA,incomplete,false,NA,true,8,5,NA,left,E22_Q1_ansR.png,E28_Q9_ansL.png,between,NA,NaN,NA,left,4052.0999999940395,1,1,1266.2999999970198
bGBzba48,NA,NA,bGBzba48,2020-0188,2021-09-23,12:01:46,13:11:18,NA,incomplete,false,NA,true,8,6,NA,left,E22_Q2_ansR.png,E28_Q6_ansL.png,between,NA,NaN,NA,left,1882,1,1,949.3999999910593
bGBzba48,NA,NA,bGBzba48,2020-0188,2021-09-23,12:01:46,13:11:18,NA,incomplete,false,NA,true,8,7,NA,right,E22_Q8_ansR.png,E22_Q10_ansR.png,within,NA,NaN,NA,right,4398.899999991059,1,1,1249.6000000089407
bGBzba48,NA,NA,bGBzba48,2020-0188,2021-09-23,12:01:46,13:11:18,NA,incomplete,false,NA,true,8,8,NA,right,E28_Q7_ansR.png,E28_Q9_ansL.png,within,NA,NaN,NA,right,1906.800000011921,1,1,889.5
bGBzba48,NA,NA,bGBzba48,2020-0188,2021-09-23,12:01:46,13:11:18,NA,incomplete,false,NA,true,8,9,NA,right,E28_Q4_ansL.png,E28_Q1_ansR.png,within,NA,NaN,NA,left,3628.2000000029802,0,1,807
bGBzba48,NA,NA,bGBzba48,2020-0188,2021-09-23,12:01:46,13:11:18,NA,incomplete,false,NA,true,8,10,NA,right,E22_Q9_ansL.png,E22_Q4_ansL.png,within,NA,NaN,NA,right,1223.7000000029802,1,0,3836.800000011921
bGBzba48,NA,NA,bGBzba48,2020-0188,2021-09-23,12:01:46,13:11:18,NA,incomplete,false,NA,true,8,11,NA,right,E22_Q5_ansL.png,E22_Q6_ansL.png,within,NA,NaN,NA,right,934.7999999970198,1,1,1263.2999999970198
bGBzba48,NA,NA,bGBzba48,2020-0188,2021-09-23,12:01:46,13:11:18,NA,incomplete,false,NA,true,8,12,NA,left,E24_Q9_ansL.png,E24_Q10_ansR.png,within,NA,NaN,NA,left,1517.2000000029802,1,0,1261.4000000059605
bGBzba48,NA,NA,bGBzba48,2020-0188,2021-09-23,12:01:46,13:11:18,NA,incomplete,false,NA,true,8,13,NA,left,E24_Q2_ansR.png,E22_Q7_ansR.png,between,NA,NaN,NA,left,4048.199999988079,1,1,6384.79999999702
bGBzba48,NA,NA,bGBzba48,2020-0188,2021-09-23,12:01:46,13:11:18,NA,incomplete,false,NA,true,8,14,NA,right,E24_Q9_ansL.png,E24_Q1_ansR.png,within,NA,NaN,NA,right,1896.3999999910593,1,1,2040.2999999970198
bGBzba48,NA,NA,bGBzba48,2020-0188,2021-09-23,12:01:46,13:11:18,NA,incomplete,false,NA,true,8,15,NA,right,E24_Q7_ansR.png,E24_Q5_ansL.png,within,NA,NaN,NA,right,2638.5999999940395,1,0,1037.7000000029802
bGBzba48,NA,NA,bGBzba48,2020-0188,2021-09-23,12:01:46,13:11:18,NA,incomplete,false,NA,true,8,16,NA,left,E28_Q8_ansR.png,E28_Q10_ansR.png,within,NA,NaN,NA,right,2636.5,0,0,1354.0999999940395
bGBzba48,NA,NA,bGBzba48,2020-0188,2021-09-23,12:01:46,13:11:18,NA,incomplete,false,NA,true,8,17,NA,right,E22_Q10_ansR.png,E22_Q7_ansR.png,within,NA,NaN,NA,right,1717.5,1,1,815.2000000029802
bGBzba48,NA,NA,bGBzba48,2020-0188,2021-09-23,12:01:46,13:11:18,NA,incomplete,false,NA,true,8,18,NA,right,E28_Q1_ansR.png,E28_Q6_ansL.png,within,NA,NaN,NA,right,933.9000000059605,1,1,952.6999999880791
bGBzba48,NA,NA,bGBzba48,2020-0188,2021-09-23,12:01:46,13:11:18,NA,incomplete,false,NA,true,8,19,NA,right,E28_Q8_ansR.png,E28_Q2_ansR.png,within,NA,NaN,NA,right,1159.300000011921,1,1,832.7000000029802
bGBzba48,NA,NA,bGBzba48,2020-0188,2021-09-23,12:01:46,13:11:18,NA,incomplete,false,NA,true,8,20,NA,left,E22_Q5_ansL.png,E22_Q2_ansR.png,within,NA,NaN,NA,left,1635.7999999970198,1,1,1237.0999999940395
bGBzba48,NA,NA,bGBzba48,2020-0188,2021-09-23,12:01:46,13:11:18,NA,incomplete,false,NA,true,8,21,NA,right,E22_Q4_ansL.png,E24_Q4_ansL.png,between,NA,NaN,NA,left,4957.100000008941,0,2,3150.9000000059605
bGBzba48,NA,NA,bGBzba48,2020-0188,2021-09-23,12:01:46,13:11:18,NA,incomplete,false,NA,true,8,22,NA,left,E24_Q6_ansL.png,E24_Q8_ansR.png,within,NA,NaN,NA,left,2307.3999999910593,1,0,929.0999999940395
bGBzba48,NA,NA,bGBzba48,2020-0188,2021-09-23,12:01:46,13:11:18,NA,incomplete,false,NA,true,8,23,NA,right,E22_Q1_ansR.png,E22_Q8_ansR.png,within,NA,NaN,NA,right,3104.8999999910593,1,0,934.4000000059605
bGBzba48,NA,NA,bGBzba48,2020-0188,2021-09-23,12:01:46,13:11:18,NA,incomplete,false,NA,true,8,24,NA,left,E22_Q9_ansL.png,E22_Q3_ansL.png,within,NA,NaN,NA,left,2332.2000000029802,1,1,1253.5
bGBzba48,NA,NA,bGBzba48,2020-0188,2021-09-23,12:01:46,13:11:18,NA,incomplete,false,NA,true,8,25,NA,left,E24_Q10_ansR.png,E22_Q6_ansL.png,between,NA,NaN,NA,left,1135.5,1,2,931.5
bGBzba48,NA,NA,bGBzba48,2020-0188,2021-09-23,12:01:46,13:11:18,NA,incomplete,false,NA,true,8,26,NA,left,E24_Q7_ansR.png,E24_Q2_ansR.png,within,NA,NaN,NA,left,2095.7999999970198,1,0,961.8999999910593
bGBzba48,NA,NA,bGBzba48,2020-0188,2021-09-23,12:01:46,13:11:18,NA,incomplete,false,true,NA,9,0,E16_Q1_ansR.png,right,NA,NA,NA,right,1459.79999999702,true,NA,NA,NA,NA,NA
bGBzba48,NA,NA,bGBzba48,2020-0188,2021-09-23,12:01:46,13:11:18,NA,incomplete,false,true,NA,9,1,E16_Q3_ansL.png,left,NA,NA,NA,left,1015.29999999702,true,NA,NA,NA,NA,NA
bGBzba48,NA,NA,bGBzba48,2020-0188,2021-09-23,12:01:46,13:11:18,NA,incomplete,false,true,NA,9,2,E16_Q4_ansL.png,left,NA,NA,NA,left,884.79999999702,true,NA,NA,NA,NA,NA
bGBzba48,NA,NA,bGBzba48,2020-0188,2021-09-23,12:01:46,13:11:18,NA,incomplete,false,true,NA,9,3,E16_Q5_ansL.png,left,NA,NA,NA,left,2876.59999999404,true,NA,NA,NA,NA,NA
bGBzba48,NA,NA,bGBzba48,2020-0188,2021-09-23,12:01:46,13:11:18,NA,incomplete,false,true,NA,9,4,E16_Q2_ansR.png,right,NA,NA,NA,right,1743.40000000596,true,NA,NA,NA,NA,NA
bGBzba48,NA,NA,bGBzba48,2020-0188,2021-09-23,12:01:46,13:11:18,NA,incomplete,false,true,NA,9,5,E16_Q6_ansL.png,left,NA,NA,NA,none,0,false,NA,NA,NA,NA,NA
bGBzba48,NA,NA,bGBzba48,2020-0188,2021-09-23,12:01:46,13:11:18,NA,incomplete,false,true,NA,9,6,E16_Q8_ansR.png,right,NA,NA,NA,right,1579.19999998808,true,NA,NA,NA,NA,NA
bGBzba48,NA,NA,bGBzba48,2020-0188,2021-09-23,12:01:46,13:11:18,NA,incomplete,false,true,NA,9,7,E16_Q10_ansR.png,right,NA,NA,NA,right,1418.29999999702,true,NA,NA,NA,NA,NA
bGBzba48,NA,NA,bGBzba48,2020-0188,2021-09-23,12:01:46,13:11:18,NA,incomplete,false,true,NA,9,8,E16_Q7_ansR.png,right,NA,NA,NA,right,1004.30000001192,true,NA,NA,NA,NA,NA
bGBzba48,NA,NA,bGBzba48,2020-0188,2021-09-23,12:01:46,13:11:18,NA,incomplete,false,true,NA,9,9,E16_Q9_ansL.png,left,NA,NA,NA,left,996.20000000298,true,NA,NA,NA,NA,NA
bGBzba48,NA,NA,bGBzba48,2020-0188,2021-09-23,12:01:46,13:11:18,NA,incomplete,false,true,NA,9,10,E15_Q9_ansR.png,right,NA,NA,NA,right,2263.70000000298,true,NA,NA,NA,NA,NA
bGBzba48,NA,NA,bGBzba48,2020-0188,2021-09-23,12:01:46,13:11:18,NA,incomplete,false,true,NA,9,11,E15_Q1_ansL.png,left,NA,NA,NA,left,1443.89999999106,true,NA,NA,NA,NA,NA
bGBzba48,NA,NA,bGBzba48,2020-0188,2021-09-23,12:01:46,13:11:18,NA,incomplete,false,true,NA,9,12,E15_Q10_ansL.png,left,NA,NA,NA,left,1267.79999999702,true,NA,NA,NA,NA,NA
bGBzba48,NA,NA,bGBzba48,2020-0188,2021-09-23,12:01:46,13:11:18,NA,incomplete,false,true,NA,9,13,E15_Q7_ansL.png,left,NA,NA,NA,left,1209.39999999106,true,NA,NA,NA,NA,NA
bGBzba48,NA,NA,bGBzba48,2020-0188,2021-09-23,12:01:46,13:11:18,NA,incomplete,false,true,NA,9,14,E15_Q8_ansL.png,left,NA,NA,NA,left,1623.40000000596,true,NA,NA,NA,NA,NA
bGBzba48,NA,NA,bGBzba48,2020-0188,2021-09-23,12:01:46,13:11:18,NA,incomplete,false,true,NA,9,15,E15_Q5_ansR.png,right,NA,NA,NA,right,1651.09999999404,true,NA,NA,NA,NA,NA
bGBzba48,NA,NA,bGBzba48,2020-0188,2021-09-23,12:01:46,13:11:18,NA,incomplete,false,true,NA,9,16,E15_Q6_ansR.png,right,NA,NA,NA,right,1944.40000000596,true,NA,NA,NA,NA,NA
bGBzba48,NA,NA,bGBzba48,2020-0188,2021-09-23,12:01:46,13:11:18,NA,incomplete,false,true,NA,9,17,E15_Q3_ansR.png,right,NA,NA,NA,right,1742.39999999106,true,NA,NA,NA,NA,NA
bGBzba48,NA,NA,bGBzba48,2020-0188,2021-09-23,12:01:46,13:11:18,NA,incomplete,false,true,NA,9,18,E15_Q4_ansR.png,right,NA,NA,NA,right,2292.79999999702,true,NA,NA,NA,NA,NA
bGBzba48,NA,NA,bGBzba48,2020-0188,2021-09-23,12:01:46,13:11:18,NA,incomplete,false,true,NA,9,19,E15_Q2_ansL.png,left,NA,NA,NA,left,2885.39999999106,true,NA,NA,NA,NA,NA
bGBzba48,NA,NA,bGBzba48,2020-0188,2021-09-23,12:01:46,13:11:18,NA,incomplete,false,true,NA,9,20,E4_Q8_ansR.png,right,NA,NA,NA,right,2865.40000000596,true,NA,NA,NA,NA,NA
bGBzba48,NA,NA,bGBzba48,2020-0188,2021-09-23,12:01:46,13:11:18,NA,incomplete,false,true,NA,9,21,E4_Q1_ansL.png,left,NA,NA,NA,left,1814,true,NA,NA,NA,NA,NA
bGBzba48,NA,NA,bGBzba48,2020-0188,2021-09-23,12:01:46,13:11:18,NA,incomplete,false,true,NA,9,22,E4_Q6_ansR.png,right,NA,NA,NA,right,1643.90000000596,true,NA,NA,NA,NA,NA
bGBzba48,NA,NA,bGBzba48,2020-0188,2021-09-23,12:01:46,13:11:18,NA,incomplete,false,true,NA,9,23,E4_Q9_ansL.png,left,NA,NA,NA,left,1324.29999999702,true,NA,NA,NA,NA,NA
bGBzba48,NA,NA,bGBzba48,2020-0188,2021-09-23,12:01:46,13:11:18,NA,incomplete,false,true,NA,9,24,E4_Q7_ansR.png,right,NA,NA,NA,right,1927.10000000894,true,NA,NA,NA,NA,NA
bGBzba48,NA,NA,bGBzba48,2020-0188,2021-09-23,12:01:46,13:11:18,NA,incomplete,false,true,NA,9,25,E4_Q3_ansL.png,left,NA,NA,NA,left,1779.90000000596,true,NA,NA,NA,NA,NA
bGBzba48,NA,NA,bGBzba48,2020-0188,2021-09-23,12:01:46,13:11:18,NA,incomplete,false,true,NA,9,26,E4_Q4_ansL.png,left,NA,NA,NA,left,1855.40000000596,true,NA,NA,NA,NA,NA
bGBzba48,NA,NA,bGBzba48,2020-0188,2021-09-23,12:01:46,13:11:18,NA,incomplete,false,true,NA,9,27,E4_Q5_ansR.png,right,NA,NA,NA,right,2091.29999999702,true,NA,NA,NA,NA,NA
bGBzba48,NA,NA,bGBzba48,2020-0188,2021-09-23,12:01:46,13:11:18,NA,incomplete,false,true,NA,9,28,E4_Q10_ansR.png,right,NA,NA,NA,right,1538.60000000894,true,NA,NA,NA,NA,NA
bGBzba48,NA,NA,bGBzba48,2020-0188,2021-09-23,12:01:46,13:11:18,NA,incomplete,false,true,NA,9,29,E4_Q2_ansL.png,left,NA,NA,NA,left,1992.10000000894,true,NA,NA,NA,NA,NA
bGBzba48,NA,NA,bGBzba48,2020-0188,2021-09-23,12:01:46,13:11:18,NA,incomplete,false,NA,true,9,0,NA,left,E4_Q9_ansL.png,E4_Q4_ansL.png,within,NA,NaN,NA,left,3244.9000000059605,1,0,2595.7999999970198
bGBzba48,NA,NA,bGBzba48,2020-0188,2021-09-23,12:01:46,13:11:18,NA,incomplete,false,NA,true,9,1,NA,right,E16_Q8_ansR.png,E16_Q5_ansL.png,within,NA,NaN,NA,left,1644.9000000059605,0,1,1102.2999999970198
bGBzba48,NA,NA,bGBzba48,2020-0188,2021-09-23,12:01:46,13:11:18,NA,incomplete,false,NA,true,9,2,NA,right,E4_Q3_ansL.png,E4_Q6_ansR.png,within,NA,NaN,NA,right,3773.2999999970198,1,0,1236.2999999970198
bGBzba48,NA,NA,bGBzba48,2020-0188,2021-09-23,12:01:46,13:11:18,NA,incomplete,false,NA,true,9,3,NA,right,E15_Q9_ansR.png,E16_Q10_ansR.png,between,NA,NaN,NA,right,7822.29999999702,1,2,1651.699999988079
bGBzba48,NA,NA,bGBzba48,2020-0188,2021-09-23,12:01:46,13:11:18,NA,incomplete,false,NA,true,9,4,NA,left,E15_Q9_ansR.png,E15_Q7_ansL.png,within,NA,NaN,NA,left,2255,1,1,1063.9000000059605
bGBzba48,NA,NA,bGBzba48,2020-0188,2021-09-23,12:01:46,13:11:18,NA,incomplete,false,NA,true,9,5,NA,left,E15_Q5_ansR.png,E15_Q4_ansR.png,within,NA,NaN,NA,right,1142.9000000059605,0,1,977.2999999970198
bGBzba48,NA,NA,bGBzba48,2020-0188,2021-09-23,12:01:46,13:11:18,NA,incomplete,false,NA,true,9,6,NA,right,E16_Q9_ansL.png,E16_Q8_ansR.png,within,NA,NaN,NA,left,1851.5,0,1,1110.3999999910593
bGBzba48,NA,NA,bGBzba48,2020-0188,2021-09-23,12:01:46,13:11:18,NA,incomplete,false,NA,true,9,7,NA,right,E15_Q10_ansL.png,E16_Q9_ansL.png,between,NA,NaN,NA,right,1619.9000000059605,1,2,1674.5999999940395
bGBzba48,NA,NA,bGBzba48,2020-0188,2021-09-23,12:01:46,13:11:18,NA,incomplete,false,NA,true,9,8,NA,right,E16_Q6_ansL.png,E16_Q4_ansL.png,within,NA,NaN,NA,right,1377.0999999940395,1,1,1753
bGBzba48,NA,NA,bGBzba48,2020-0188,2021-09-23,12:01:46,13:11:18,NA,incomplete,false,NA,true,9,9,NA,left,E4_Q1_ansL.png,E4_Q7_ansR.png,within,NA,NaN,NA,right,2533.2000000029802,0,1,1134.2999999970198
bGBzba48,NA,NA,bGBzba48,2020-0188,2021-09-23,12:01:46,13:11:18,NA,incomplete,false,NA,true,9,10,NA,left,E15_Q4_ansR.png,E4_Q1_ansL.png,between,NA,NaN,NA,right,15325.5,0,2,848.5
bGBzba48,NA,NA,bGBzba48,2020-0188,2021-09-23,12:01:46,13:11:18,NA,incomplete,false,NA,true,9,11,NA,left,E16_Q2_ansR.png,E16_Q10_ansR.png,within,NA,NaN,NA,left,1756.7000000029802,1,1,961.2000000029802
