workerId,hitId,assignmentId,subject,studyid,exp_date,exp_start,exp_end,time_start,time_end,practice,encoding,memory,block,trial,stim,answer,left_image,right_image,condition,response,response_time,response_acc,order_response,order_response_time,order_acc,distance_response,distance_response_time
bxcPIwvU,NA,NA,bxcPIwvU,2020-0188,2021-11-15,15:33:43,16:43:48,NA,incomplete,true,true,NA,0,0,E11_Q4_ansL.png,left,NA,NA,NA,left,1217,true,NA,NA,NA,NA,NA
bxcPIwvU,NA,NA,bxcPIwvU,2020-0188,2021-11-15,15:33:43,16:43:48,NA,incomplete,true,true,NA,0,1,E11_Q3_ansL.png,left,NA,NA,NA,left,964,true,NA,NA,NA,NA,NA
bxcPIwvU,NA,NA,bxcPIwvU,2020-0188,2021-11-15,15:33:43,16:43:48,NA,incomplete,true,true,NA,0,2,E11_Q6_ansL.png,left,NA,NA,NA,left,1159,true,NA,NA,NA,NA,NA
bxcPIwvU,NA,NA,bxcPIwvU,2020-0188,2021-11-15,15:33:43,16:43:48,NA,incomplete,true,true,NA,0,3,E11_Q1_ansR.png,right,NA,NA,NA,right,1521,true,NA,NA,NA,NA,NA
bxcPIwvU,NA,NA,bxcPIwvU,2020-0188,2021-11-15,15:33:43,16:43:48,NA,incomplete,true,true,NA,0,4,E11_Q9_ansL.png,left,NA,NA,NA,left,931,true,NA,NA,NA,NA,NA
bxcPIwvU,NA,NA,bxcPIwvU,2020-0188,2021-11-15,15:33:43,16:43:48,NA,incomplete,true,true,NA,0,5,E11_Q10_ansR.png,right,NA,NA,NA,right,1656,true,NA,NA,NA,NA,NA
bxcPIwvU,NA,NA,bxcPIwvU,2020-0188,2021-11-15,15:33:43,16:43:48,NA,incomplete,true,true,NA,0,6,E11_Q7_ansR.png,right,NA,NA,NA,right,1277,true,NA,NA,NA,NA,NA
bxcPIwvU,NA,NA,bxcPIwvU,2020-0188,2021-11-15,15:33:43,16:43:48,NA,incomplete,true,true,NA,0,7,E11_Q5_ansL.png,left,NA,NA,NA,left,1216.99999999999,true,NA,NA,NA,NA,NA
bxcPIwvU,NA,NA,bxcPIwvU,2020-0188,2021-11-15,15:33:43,16:43:48,NA,incomplete,true,true,NA,0,8,E11_Q2_ansR.png,right,NA,NA,NA,right,1360,true,NA,NA,NA,NA,NA
bxcPIwvU,NA,NA,bxcPIwvU,2020-0188,2021-11-15,15:33:43,16:43:48,NA,incomplete,true,true,NA,0,9,E11_Q8_ansR.png,right,NA,NA,NA,right,1625,true,NA,NA,NA,NA,NA
bxcPIwvU,NA,NA,bxcPIwvU,2020-0188,2021-11-15,15:33:43,16:43:48,NA,incomplete,true,true,NA,0,10,E15_Q10_ansL.png,left,NA,NA,NA,left,2296,true,NA,NA,NA,NA,NA
bxcPIwvU,NA,NA,bxcPIwvU,2020-0188,2021-11-15,15:33:43,16:43:48,NA,incomplete,true,true,NA,0,11,E15_Q9_ansR.png,right,NA,NA,NA,right,1418,true,NA,NA,NA,NA,NA
bxcPIwvU,NA,NA,bxcPIwvU,2020-0188,2021-11-15,15:33:43,16:43:48,NA,incomplete,true,true,NA,0,12,E15_Q1_ansL.png,left,NA,NA,NA,left,2525,true,NA,NA,NA,NA,NA
bxcPIwvU,NA,NA,bxcPIwvU,2020-0188,2021-11-15,15:33:43,16:43:48,NA,incomplete,true,true,NA,0,13,E15_Q7_ansL.png,left,NA,NA,NA,left,2499,true,NA,NA,NA,NA,NA
bxcPIwvU,NA,NA,bxcPIwvU,2020-0188,2021-11-15,15:33:43,16:43:48,NA,incomplete,true,true,NA,0,14,E15_Q3_ansR.png,right,NA,NA,NA,right,2398,true,NA,NA,NA,NA,NA
bxcPIwvU,NA,NA,bxcPIwvU,2020-0188,2021-11-15,15:33:43,16:43:48,NA,incomplete,true,true,NA,0,15,E15_Q4_ansR.png,right,NA,NA,NA,right,2943,true,NA,NA,NA,NA,NA
bxcPIwvU,NA,NA,bxcPIwvU,2020-0188,2021-11-15,15:33:43,16:43:48,NA,incomplete,true,true,NA,0,16,E15_Q2_ansL.png,left,NA,NA,NA,left,2055,true,NA,NA,NA,NA,NA
bxcPIwvU,NA,NA,bxcPIwvU,2020-0188,2021-11-15,15:33:43,16:43:48,NA,incomplete,true,true,NA,0,17,E15_Q8_ansL.png,left,NA,NA,NA,left,3349,true,NA,NA,NA,NA,NA
bxcPIwvU,NA,NA,bxcPIwvU,2020-0188,2021-11-15,15:33:43,16:43:48,NA,incomplete,true,true,NA,0,18,E15_Q6_ansR.png,right,NA,NA,NA,right,1697,true,NA,NA,NA,NA,NA
bxcPIwvU,NA,NA,bxcPIwvU,2020-0188,2021-11-15,15:33:43,16:43:48,NA,incomplete,true,true,NA,0,19,E15_Q5_ansR.png,right,NA,NA,NA,right,2191,true,NA,NA,NA,NA,NA
bxcPIwvU,NA,NA,bxcPIwvU,2020-0188,2021-11-15,15:33:43,16:43:48,NA,incomplete,true,true,NA,0,20,E31_Q1_ansR.png,right,NA,NA,NA,right,1696,true,NA,NA,NA,NA,NA
bxcPIwvU,NA,NA,bxcPIwvU,2020-0188,2021-11-15,15:33:43,16:43:48,NA,incomplete,true,true,NA,0,21,E31_Q5_ansL.png,left,NA,NA,NA,left,1436.99999999997,true,NA,NA,NA,NA,NA
bxcPIwvU,NA,NA,bxcPIwvU,2020-0188,2021-11-15,15:33:43,16:43:48,NA,incomplete,true,true,NA,0,22,E31_Q6_ansL.png,left,NA,NA,NA,left,2417,true,NA,NA,NA,NA,NA
bxcPIwvU,NA,NA,bxcPIwvU,2020-0188,2021-11-15,15:33:43,16:43:48,NA,incomplete,true,true,NA,0,23,E31_Q4_ansL.png,left,NA,NA,NA,left,1719.99999999997,true,NA,NA,NA,NA,NA
bxcPIwvU,NA,NA,bxcPIwvU,2020-0188,2021-11-15,15:33:43,16:43:48,NA,incomplete,true,true,NA,0,24,E31_Q10_ansR.png,right,NA,NA,NA,right,1582.99999999997,true,NA,NA,NA,NA,NA
bxcPIwvU,NA,NA,bxcPIwvU,2020-0188,2021-11-15,15:33:43,16:43:48,NA,incomplete,true,true,NA,0,25,E31_Q9_ansL.png,left,NA,NA,NA,left,1566.99999999997,true,NA,NA,NA,NA,NA
bxcPIwvU,NA,NA,bxcPIwvU,2020-0188,2021-11-15,15:33:43,16:43:48,NA,incomplete,true,true,NA,0,26,E31_Q3_ansL.png,left,NA,NA,NA,left,1219.00000000003,true,NA,NA,NA,NA,NA
bxcPIwvU,NA,NA,bxcPIwvU,2020-0188,2021-11-15,15:33:43,16:43:48,NA,incomplete,true,true,NA,0,27,E31_Q2_ansR.png,right,NA,NA,NA,right,1284,true,NA,NA,NA,NA,NA
bxcPIwvU,NA,NA,bxcPIwvU,2020-0188,2021-11-15,15:33:43,16:43:48,NA,incomplete,true,true,NA,0,28,E31_Q8_ansR.png,right,NA,NA,NA,right,2030,true,NA,NA,NA,NA,NA
bxcPIwvU,NA,NA,bxcPIwvU,2020-0188,2021-11-15,15:33:43,16:43:48,NA,incomplete,true,true,NA,0,29,E31_Q7_ansR.png,right,NA,NA,NA,right,2005,true,NA,NA,NA,NA,NA
bxcPIwvU,NA,NA,bxcPIwvU,2020-0188,2021-11-15,15:33:43,16:43:48,NA,incomplete,true,NA,true,0,0,NA,right,E11_Q7_ansR.png,E11_Q1_ansR.png,within,NA,NaN,NA,right,3399,1,1,1148
bxcPIwvU,NA,NA,bxcPIwvU,2020-0188,2021-11-15,15:33:43,16:43:48,NA,incomplete,true,NA,true,0,1,NA,left,E15_Q2_ansL.png,E15_Q5_ansR.png,within,NA,NaN,NA,right,2661,0,1,1192
bxcPIwvU,NA,NA,bxcPIwvU,2020-0188,2021-11-15,15:33:43,16:43:48,NA,incomplete,true,NA,true,0,2,NA,left,E31_Q5_ansL.png,E31_Q10_ansR.png,within,NA,NaN,NA,left,3346,1,1,896
bxcPIwvU,NA,NA,bxcPIwvU,2020-0188,2021-11-15,15:33:43,16:43:48,NA,incomplete,true,NA,true,0,3,NA,left,E11_Q8_ansR.png,E15_Q1_ansL.png,between,NA,NaN,NA,left,1728,1,2,902
bxcPIwvU,NA,NA,bxcPIwvU,2020-0188,2021-11-15,15:33:43,16:43:48,NA,incomplete,true,NA,true,0,4,NA,right,E15_Q4_ansR.png,E15_Q1_ansL.png,within,NA,NaN,NA,left,2412,0,1,1596
bxcPIwvU,NA,NA,bxcPIwvU,2020-0188,2021-11-15,15:33:43,16:43:48,NA,incomplete,true,NA,true,0,5,NA,left,E15_Q5_ansR.png,E31_Q6_ansL.png,between,NA,NaN,NA,left,1499,1,2,955
bxcPIwvU,NA,NA,bxcPIwvU,2020-0188,2021-11-15,15:33:43,16:43:48,NA,incomplete,true,NA,true,0,6,NA,left,E11_Q9_ansL.png,E11_Q5_ansL.png,within,NA,NaN,NA,left,18316.99999999994,1,1,1760
bxcPIwvU,NA,NA,bxcPIwvU,2020-0188,2021-11-15,15:33:43,16:43:48,NA,incomplete,true,NA,true,0,7,NA,left,E15_Q8_ansL.png,E31_Q1_ansR.png,between,NA,NaN,NA,left,1416,1,2,1288
bxcPIwvU,NA,NA,bxcPIwvU,2020-0188,2021-11-15,15:33:43,16:43:48,NA,incomplete,true,NA,true,0,8,NA,right,E11_Q2_ansR.png,E11_Q10_ansR.png,within,NA,NaN,NA,right,3729,1,1,1020
bxcPIwvU,NA,NA,bxcPIwvU,2020-0188,2021-11-15,15:33:43,16:43:48,NA,incomplete,true,NA,true,0,9,NA,left,E11_Q6_ansL.png,E11_Q10_ansR.png,within,NA,NaN,NA,right,1571,0,1,1133
bxcPIwvU,NA,NA,bxcPIwvU,2020-0188,2021-11-15,15:33:43,16:43:48,NA,incomplete,true,NA,true,0,10,NA,left,E15_Q4_ansR.png,E15_Q6_ansR.png,within,NA,NaN,NA,right,2417,0,1,1244
bxcPIwvU,NA,NA,bxcPIwvU,2020-0188,2021-11-15,15:33:43,16:43:48,NA,incomplete,true,NA,true,0,11,NA,right,E15_Q3_ansR.png,E15_Q9_ansR.png,within,NA,NaN,NA,right,2494,1,1,1223
bxcPIwvU,NA,NA,bxcPIwvU,2020-0188,2021-11-15,15:33:43,16:43:48,NA,incomplete,true,NA,true,0,12,NA,left,E15_Q3_ansR.png,E15_Q8_ansL.png,within,NA,NaN,NA,right,2773,0,1,1135
bxcPIwvU,NA,NA,bxcPIwvU,2020-0188,2021-11-15,15:33:43,16:43:48,NA,incomplete,true,NA,true,0,13,NA,left,E11_Q3_ansL.png,E11_Q9_ansL.png,within,NA,NaN,NA,left,1456,1,0,2536
bxcPIwvU,NA,NA,bxcPIwvU,2020-0188,2021-11-15,15:33:43,16:43:48,NA,incomplete,true,NA,true,0,14,NA,right,E31_Q7_ansR.png,E31_Q3_ansL.png,within,NA,NaN,NA,right,5102,1,0,2555
bxcPIwvU,NA,NA,bxcPIwvU,2020-0188,2021-11-15,15:33:43,16:43:48,NA,incomplete,true,NA,true,0,15,NA,right,E31_Q4_ansL.png,E31_Q1_ansR.png,within,NA,NaN,NA,right,1356,1,1,992
bxcPIwvU,NA,NA,bxcPIwvU,2020-0188,2021-11-15,15:33:43,16:43:48,NA,incomplete,true,NA,true,0,16,NA,left,E15_Q10_ansL.png,E15_Q7_ansL.png,within,NA,NaN,NA,right,1785,0,1,1903
bxcPIwvU,NA,NA,bxcPIwvU,2020-0188,2021-11-15,15:33:43,16:43:48,NA,incomplete,true,NA,true,0,17,NA,right,E11_Q8_ansR.png,E11_Q7_ansR.png,within,NA,NaN,NA,left,1586.9999999999418,0,1,893
bxcPIwvU,NA,NA,bxcPIwvU,2020-0188,2021-11-15,15:33:43,16:43:48,NA,incomplete,true,NA,true,0,18,NA,right,E15_Q9_ansR.png,E11_Q2_ansR.png,between,NA,NaN,NA,left,1269,0,2,3755
bxcPIwvU,NA,NA,bxcPIwvU,2020-0188,2021-11-15,15:33:43,16:43:48,NA,incomplete,true,NA,true,0,19,NA,left,E31_Q6_ansL.png,E31_Q9_ansL.png,within,NA,NaN,NA,left,3124,1,1,814.0000000000582
bxcPIwvU,NA,NA,bxcPIwvU,2020-0188,2021-11-15,15:33:43,16:43:48,NA,incomplete,true,NA,true,0,20,NA,right,E11_Q1_ansR.png,E11_Q4_ansL.png,within,NA,NaN,NA,right,5473.999999999942,1,1,939
bxcPIwvU,NA,NA,bxcPIwvU,2020-0188,2021-11-15,15:33:43,16:43:48,NA,incomplete,true,NA,true,0,21,NA,right,E31_Q2_ansR.png,E31_Q10_ansR.png,within,NA,NaN,NA,right,2567,1,1,1524
bxcPIwvU,NA,NA,bxcPIwvU,2020-0188,2021-11-15,15:33:43,16:43:48,NA,incomplete,true,NA,true,0,22,NA,right,E31_Q3_ansL.png,E31_Q4_ansL.png,within,NA,NaN,NA,left,11546,0,1,1599
bxcPIwvU,NA,NA,bxcPIwvU,2020-0188,2021-11-15,15:33:43,16:43:48,NA,incomplete,true,NA,true,0,23,NA,right,E15_Q2_ansL.png,E15_Q7_ansL.png,within,NA,NaN,NA,right,1998,1,1,866
bxcPIwvU,NA,NA,bxcPIwvU,2020-0188,2021-11-15,15:33:43,16:43:48,NA,incomplete,true,NA,true,0,24,NA,left,E11_Q5_ansL.png,E15_Q10_ansL.png,between,NA,NaN,NA,left,5330,1,2,1632
bxcPIwvU,NA,NA,bxcPIwvU,2020-0188,2021-11-15,15:33:43,16:43:48,NA,incomplete,true,NA,true,0,25,NA,right,E31_Q5_ansL.png,E15_Q6_ansR.png,between,NA,NaN,NA,right,1483,1,2,2696
bxcPIwvU,NA,NA,bxcPIwvU,2020-0188,2021-11-15,15:33:43,16:43:48,NA,incomplete,true,NA,true,0,26,NA,left,E31_Q9_ansL.png,E31_Q8_ansR.png,within,NA,NaN,NA,left,4281,1,1,1800
bxcPIwvU,NA,NA,bxcPIwvU,2020-0188,2021-11-15,15:33:43,16:43:48,NA,incomplete,false,true,NA,1,0,E10_Q1_ansL.png,left,NA,NA,NA,left,2158,true,NA,NA,NA,NA,NA
bxcPIwvU,NA,NA,bxcPIwvU,2020-0188,2021-11-15,15:33:43,16:43:48,NA,incomplete,false,true,NA,1,1,E10_Q8_ansR.png,right,NA,NA,NA,left,2264,false,NA,NA,NA,NA,NA
bxcPIwvU,NA,NA,bxcPIwvU,2020-0188,2021-11-15,15:33:43,16:43:48,NA,incomplete,false,true,NA,1,2,E10_Q7_ansR.png,right,NA,NA,NA,right,2014,true,NA,NA,NA,NA,NA
bxcPIwvU,NA,NA,bxcPIwvU,2020-0188,2021-11-15,15:33:43,16:43:48,NA,incomplete,false,true,NA,1,3,E10_Q6_ansR.png,right,NA,NA,NA,right,2002,true,NA,NA,NA,NA,NA
bxcPIwvU,NA,NA,bxcPIwvU,2020-0188,2021-11-15,15:33:43,16:43:48,NA,incomplete,false,true,NA,1,4,E10_Q4_ansL.png,left,NA,NA,NA,left,1743,true,NA,NA,NA,NA,NA
bxcPIwvU,NA,NA,bxcPIwvU,2020-0188,2021-11-15,15:33:43,16:43:48,NA,incomplete,false,true,NA,1,5,E10_Q5_ansR.png,right,NA,NA,NA,right,2055,true,NA,NA,NA,NA,NA
bxcPIwvU,NA,NA,bxcPIwvU,2020-0188,2021-11-15,15:33:43,16:43:48,NA,incomplete,false,true,NA,1,6,E10_Q3_ansL.png,left,NA,NA,NA,left,3454,true,NA,NA,NA,NA,NA
bxcPIwvU,NA,NA,bxcPIwvU,2020-0188,2021-11-15,15:33:43,16:43:48,NA,incomplete,false,true,NA,1,7,E10_Q10_ansR.png,right,NA,NA,NA,right,2681.00000000012,true,NA,NA,NA,NA,NA
bxcPIwvU,NA,NA,bxcPIwvU,2020-0188,2021-11-15,15:33:43,16:43:48,NA,incomplete,false,true,NA,1,8,E10_Q9_ansL.png,left,NA,NA,NA,left,1989,true,NA,NA,NA,NA,NA
bxcPIwvU,NA,NA,bxcPIwvU,2020-0188,2021-11-15,15:33:43,16:43:48,NA,incomplete,false,true,NA,1,9,E10_Q2_ansL.png,left,NA,NA,NA,left,1518,true,NA,NA,NA,NA,NA
bxcPIwvU,NA,NA,bxcPIwvU,2020-0188,2021-11-15,15:33:43,16:43:48,NA,incomplete,false,true,NA,1,10,E16_Q7_ansR.png,right,NA,NA,NA,right,1644.99999999988,true,NA,NA,NA,NA,NA
bxcPIwvU,NA,NA,bxcPIwvU,2020-0188,2021-11-15,15:33:43,16:43:48,NA,incomplete,false,true,NA,1,11,E16_Q6_ansL.png,left,NA,NA,NA,left,1018,true,NA,NA,NA,NA,NA
bxcPIwvU,NA,NA,bxcPIwvU,2020-0188,2021-11-15,15:33:43,16:43:48,NA,incomplete,false,true,NA,1,12,E16_Q3_ansL.png,left,NA,NA,NA,left,1069,true,NA,NA,NA,NA,NA
bxcPIwvU,NA,NA,bxcPIwvU,2020-0188,2021-11-15,15:33:43,16:43:48,NA,incomplete,false,true,NA,1,13,E16_Q1_ansR.png,right,NA,NA,NA,right,1694,true,NA,NA,NA,NA,NA
bxcPIwvU,NA,NA,bxcPIwvU,2020-0188,2021-11-15,15:33:43,16:43:48,NA,incomplete,false,true,NA,1,14,E16_Q9_ansL.png,left,NA,NA,NA,left,1543.99999999988,true,NA,NA,NA,NA,NA
bxcPIwvU,NA,NA,bxcPIwvU,2020-0188,2021-11-15,15:33:43,16:43:48,NA,incomplete,false,true,NA,1,15,E16_Q2_ansR.png,right,NA,NA,NA,right,1823,true,NA,NA,NA,NA,NA
bxcPIwvU,NA,NA,bxcPIwvU,2020-0188,2021-11-15,15:33:43,16:43:48,NA,incomplete,false,true,NA,1,16,E16_Q4_ansL.png,left,NA,NA,NA,left,1714,true,NA,NA,NA,NA,NA
bxcPIwvU,NA,NA,bxcPIwvU,2020-0188,2021-11-15,15:33:43,16:43:48,NA,incomplete,false,true,NA,1,17,E16_Q8_ansR.png,right,NA,NA,NA,right,1598,true,NA,NA,NA,NA,NA
bxcPIwvU,NA,NA,bxcPIwvU,2020-0188,2021-11-15,15:33:43,16:43:48,NA,incomplete,false,true,NA,1,18,E16_Q10_ansR.png,right,NA,NA,NA,right,2264,true,NA,NA,NA,NA,NA
bxcPIwvU,NA,NA,bxcPIwvU,2020-0188,2021-11-15,15:33:43,16:43:48,NA,incomplete,false,true,NA,1,19,E16_Q5_ansL.png,left,NA,NA,NA,left,2003.99999999988,true,NA,NA,NA,NA,NA
bxcPIwvU,NA,NA,bxcPIwvU,2020-0188,2021-11-15,15:33:43,16:43:48,NA,incomplete,false,true,NA,1,20,E18_Q6_ansR.png,right,NA,NA,NA,right,1711,true,NA,NA,NA,NA,NA
bxcPIwvU,NA,NA,bxcPIwvU,2020-0188,2021-11-15,15:33:43,16:43:48,NA,incomplete,false,true,NA,1,21,E18_Q5_ansR.png,right,NA,NA,NA,right,1875,true,NA,NA,NA,NA,NA
bxcPIwvU,NA,NA,bxcPIwvU,2020-0188,2021-11-15,15:33:43,16:43:48,NA,incomplete,false,true,NA,1,22,E18_Q4_ansR.png,right,NA,NA,NA,right,1553,true,NA,NA,NA,NA,NA
bxcPIwvU,NA,NA,bxcPIwvU,2020-0188,2021-11-15,15:33:43,16:43:48,NA,incomplete,false,true,NA,1,23,E18_Q7_ansL.png,left,NA,NA,NA,left,2333,true,NA,NA,NA,NA,NA
bxcPIwvU,NA,NA,bxcPIwvU,2020-0188,2021-11-15,15:33:43,16:43:48,NA,incomplete,false,true,NA,1,24,E18_Q3_ansR.png,right,NA,NA,NA,none,0,false,NA,NA,NA,NA,NA
bxcPIwvU,NA,NA,bxcPIwvU,2020-0188,2021-11-15,15:33:43,16:43:48,NA,incomplete,false,true,NA,1,25,E18_Q8_ansL.png,left,NA,NA,NA,left,1332.99999999988,true,NA,NA,NA,NA,NA
bxcPIwvU,NA,NA,bxcPIwvU,2020-0188,2021-11-15,15:33:43,16:43:48,NA,incomplete,false,true,NA,1,26,E18_Q2_ansL.png,left,NA,NA,NA,left,2469,true,NA,NA,NA,NA,NA
bxcPIwvU,NA,NA,bxcPIwvU,2020-0188,2021-11-15,15:33:43,16:43:48,NA,incomplete,false,true,NA,1,27,E18_Q10_ansL.png,left,NA,NA,NA,left,2027.00000000012,true,NA,NA,NA,NA,NA
bxcPIwvU,NA,NA,bxcPIwvU,2020-0188,2021-11-15,15:33:43,16:43:48,NA,incomplete,false,true,NA,1,28,E18_Q1_ansL.png,left,NA,NA,NA,left,3359,true,NA,NA,NA,NA,NA
bxcPIwvU,NA,NA,bxcPIwvU,2020-0188,2021-11-15,15:33:43,16:43:48,NA,incomplete,false,true,NA,1,29,E18_Q9_ansR.png,right,NA,NA,NA,right,1372,true,NA,NA,NA,NA,NA
bxcPIwvU,NA,NA,bxcPIwvU,2020-0188,2021-11-15,15:33:43,16:43:48,NA,incomplete,false,NA,true,1,0,NA,left,E10_Q8_ansR.png,E10_Q4_ansL.png,within,NA,NaN,NA,left,2516.9999999998836,1,0,867
bxcPIwvU,NA,NA,bxcPIwvU,2020-0188,2021-11-15,15:33:43,16:43:48,NA,incomplete,false,NA,true,1,1,NA,left,E16_Q3_ansL.png,E16_Q2_ansR.png,within,NA,NaN,NA,left,1632.0000000001164,1,1,866
bxcPIwvU,NA,NA,bxcPIwvU,2020-0188,2021-11-15,15:33:43,16:43:48,NA,incomplete,false,NA,true,1,2,NA,left,E18_Q5_ansR.png,E18_Q3_ansR.png,within,NA,NaN,NA,left,1689,1,0,1044
bxcPIwvU,NA,NA,bxcPIwvU,2020-0188,2021-11-15,15:33:43,16:43:48,NA,incomplete,false,NA,true,1,3,NA,right,E16_Q5_ansL.png,E16_Q4_ansL.png,within,NA,NaN,NA,left,2129,0,0,803
bxcPIwvU,NA,NA,bxcPIwvU,2020-0188,2021-11-15,15:33:43,16:43:48,NA,incomplete,false,NA,true,1,4,NA,right,E10_Q5_ansR.png,E10_Q7_ansR.png,within,NA,NaN,NA,right,1718.0000000001164,1,0,1885
bxcPIwvU,NA,NA,bxcPIwvU,2020-0188,2021-11-15,15:33:43,16:43:48,NA,incomplete,false,NA,true,1,5,NA,left,E10_Q6_ansR.png,E10_Q3_ansL.png,within,NA,NaN,NA,left,1902.9999999998836,1,1,1365
bxcPIwvU,NA,NA,bxcPIwvU,2020-0188,2021-11-15,15:33:43,16:43:48,NA,incomplete,false,NA,true,1,6,NA,left,E16_Q7_ansR.png,E16_Q1_ansR.png,within,NA,NaN,NA,left,2121,1,1,1533
bxcPIwvU,NA,NA,bxcPIwvU,2020-0188,2021-11-15,15:33:43,16:43:48,NA,incomplete,false,NA,true,1,7,NA,left,E16_Q9_ansL.png,E16_Q8_ansR.png,within,NA,NaN,NA,right,1604,0,1,1247
bxcPIwvU,NA,NA,bxcPIwvU,2020-0188,2021-11-15,15:33:43,16:43:48,NA,incomplete,false,NA,true,1,8,NA,right,E16_Q3_ansL.png,E10_Q2_ansL.png,between,NA,NaN,NA,right,1767.0000000001164,1,2,1108
bxcPIwvU,NA,NA,bxcPIwvU,2020-0188,2021-11-15,15:33:43,16:43:48,NA,incomplete,false,NA,true,1,9,NA,right,E10_Q9_ansL.png,E10_Q5_ansR.png,within,NA,NaN,NA,right,2489,1,1,1966.0000000001164
bxcPIwvU,NA,NA,bxcPIwvU,2020-0188,2021-11-15,15:33:43,16:43:48,NA,incomplete,false,NA,true,1,10,NA,right,E16_Q4_ansL.png,E16_Q1_ansR.png,within,NA,NaN,NA,left,3542.9999999998836,0,1,1050.9999999998836
bxcPIwvU,NA,NA,bxcPIwvU,2020-0188,2021-11-15,15:33:43,16:43:48,NA,incomplete,false,NA,true,1,11,NA,left,E16_Q8_ansR.png,E18_Q6_ansR.png,between,NA,NaN,NA,right,6112,0,2,1745
bxcPIwvU,NA,NA,bxcPIwvU,2020-0188,2021-11-15,15:33:43,16:43:48,NA,incomplete,false,NA,true,1,12,NA,right,E16_Q7_ansR.png,E10_Q10_ansR.png,between,NA,NaN,NA,right,1572,1,3,1526
bxcPIwvU,NA,NA,bxcPIwvU,2020-0188,2021-11-15,15:33:43,16:43:48,NA,incomplete,false,NA,true,1,13,NA,right,E18_Q2_ansL.png,E18_Q7_ansL.png,within,NA,NaN,NA,right,1877,1,1,1799
bxcPIwvU,NA,NA,bxcPIwvU,2020-0188,2021-11-15,15:33:43,16:43:48,NA,incomplete,false,NA,true,1,14,NA,right,E16_Q9_ansL.png,E16_Q6_ansL.png,within,NA,NaN,NA,left,2033,0,1,1385
bxcPIwvU,NA,NA,bxcPIwvU,2020-0188,2021-11-15,15:33:43,16:43:48,NA,incomplete,false,NA,true,1,15,NA,left,E18_Q6_ansR.png,E18_Q7_ansL.png,within,NA,NaN,NA,left,10029,1,1,1198
bxcPIwvU,NA,NA,bxcPIwvU,2020-0188,2021-11-15,15:33:43,16:43:48,NA,incomplete,false,NA,true,1,16,NA,left,E18_Q8_ansL.png,E18_Q1_ansL.png,within,NA,NaN,NA,left,22468.000000000116,1,1,956
bxcPIwvU,NA,NA,bxcPIwvU,2020-0188,2021-11-15,15:33:43,16:43:48,NA,incomplete,false,NA,true,1,17,NA,left,E10_Q3_ansL.png,E10_Q2_ansL.png,within,NA,NaN,NA,right,1644.9999999998836,0,1,1689.0000000001164
bxcPIwvU,NA,NA,bxcPIwvU,2020-0188,2021-11-15,15:33:43,16:43:48,NA,incomplete,false,NA,true,1,18,NA,left,E16_Q10_ansR.png,E18_Q5_ansR.png,between,NA,NaN,NA,right,2014.9999999998836,0,1,1614.0000000001164
bxcPIwvU,NA,NA,bxcPIwvU,2020-0188,2021-11-15,15:33:43,16:43:48,NA,incomplete,false,NA,true,1,19,NA,right,E10_Q10_ansR.png,E10_Q4_ansL.png,within,NA,NaN,NA,right,1708,1,1,851
bxcPIwvU,NA,NA,bxcPIwvU,2020-0188,2021-11-15,15:33:43,16:43:48,NA,incomplete,false,NA,true,1,20,NA,right,E16_Q6_ansL.png,E10_Q9_ansL.png,between,NA,NaN,NA,right,1216,1,2,1295
bxcPIwvU,NA,NA,bxcPIwvU,2020-0188,2021-11-15,15:33:43,16:43:48,NA,incomplete,false,NA,true,1,21,NA,right,E18_Q9_ansR.png,E18_Q2_ansL.png,within,NA,NaN,NA,right,2432,1,1,1112
bxcPIwvU,NA,NA,bxcPIwvU,2020-0188,2021-11-15,15:33:43,16:43:48,NA,incomplete,false,NA,true,1,22,NA,left,E16_Q2_ansR.png,E16_Q10_ansR.png,within,NA,NaN,NA,right,5813,0,1,903
bxcPIwvU,NA,NA,bxcPIwvU,2020-0188,2021-11-15,15:33:43,16:43:48,NA,incomplete,false,NA,true,1,23,NA,left,E18_Q3_ansR.png,E18_Q10_ansL.png,within,NA,NaN,NA,right,15022.999999999884,0,1,1494
bxcPIwvU,NA,NA,bxcPIwvU,2020-0188,2021-11-15,15:33:43,16:43:48,NA,incomplete,false,NA,true,1,24,NA,right,E18_Q4_ansR.png,E16_Q5_ansL.png,between,NA,NaN,NA,right,11270.999999999884,1,1,1328.9999999998836
bxcPIwvU,NA,NA,bxcPIwvU,2020-0188,2021-11-15,15:33:43,16:43:48,NA,incomplete,false,NA,true,1,25,NA,left,E10_Q1_ansL.png,E10_Q6_ansR.png,within,NA,NaN,NA,left,1116.9999999998836,1,0,1068
bxcPIwvU,NA,NA,bxcPIwvU,2020-0188,2021-11-15,15:33:43,16:43:48,NA,incomplete,false,NA,true,1,26,NA,left,E18_Q4_ansR.png,E18_Q8_ansL.png,within,NA,NaN,NA,right,2241,0,1,891
bxcPIwvU,NA,NA,bxcPIwvU,2020-0188,2021-11-15,15:33:43,16:43:48,NA,incomplete,false,true,NA,2,0,E27_Q1_ansL.png,left,NA,NA,NA,left,2146.00000000012,true,NA,NA,NA,NA,NA
bxcPIwvU,NA,NA,bxcPIwvU,2020-0188,2021-11-15,15:33:43,16:43:48,NA,incomplete,false,true,NA,2,1,E27_Q6_ansR.png,right,NA,NA,NA,right,1544,true,NA,NA,NA,NA,NA
bxcPIwvU,NA,NA,bxcPIwvU,2020-0188,2021-11-15,15:33:43,16:43:48,NA,incomplete,false,true,NA,2,2,E27_Q4_ansR.png,right,NA,NA,NA,right,1371,true,NA,NA,NA,NA,NA
bxcPIwvU,NA,NA,bxcPIwvU,2020-0188,2021-11-15,15:33:43,16:43:48,NA,incomplete,false,true,NA,2,3,E27_Q5_ansR.png,right,NA,NA,NA,right,1275.00000000012,true,NA,NA,NA,NA,NA
bxcPIwvU,NA,NA,bxcPIwvU,2020-0188,2021-11-15,15:33:43,16:43:48,NA,incomplete,false,true,NA,2,4,E27_Q10_ansL.png,left,NA,NA,NA,left,1581.99999999988,true,NA,NA,NA,NA,NA
bxcPIwvU,NA,NA,bxcPIwvU,2020-0188,2021-11-15,15:33:43,16:43:48,NA,incomplete,false,true,NA,2,5,E27_Q7_ansL.png,left,NA,NA,NA,left,1838.00000000012,true,NA,NA,NA,NA,NA
bxcPIwvU,NA,NA,bxcPIwvU,2020-0188,2021-11-15,15:33:43,16:43:48,NA,incomplete,false,true,NA,2,6,E27_Q2_ansL.png,left,NA,NA,NA,left,1598.00000000012,true,NA,NA,NA,NA,NA
bxcPIwvU,NA,NA,bxcPIwvU,2020-0188,2021-11-15,15:33:43,16:43:48,NA,incomplete,false,true,NA,2,7,E27_Q8_ansL.png,left,NA,NA,NA,left,1180,true,NA,NA,NA,NA,NA
bxcPIwvU,NA,NA,bxcPIwvU,2020-0188,2021-11-15,15:33:43,16:43:48,NA,incomplete,false,true,NA,2,8,E27_Q9_ansR.png,right,NA,NA,NA,right,1280,true,NA,NA,NA,NA,NA
bxcPIwvU,NA,NA,bxcPIwvU,2020-0188,2021-11-15,15:33:43,16:43:48,NA,incomplete,false,true,NA,2,9,E27_Q3_ansR.png,right,NA,NA,NA,right,1231,true,NA,NA,NA,NA,NA
bxcPIwvU,NA,NA,bxcPIwvU,2020-0188,2021-11-15,15:33:43,16:43:48,NA,incomplete,false,true,NA,2,10,E4_Q2_ansL.png,left,NA,NA,NA,left,1598,true,NA,NA,NA,NA,NA
bxcPIwvU,NA,NA,bxcPIwvU,2020-0188,2021-11-15,15:33:43,16:43:48,NA,incomplete,false,true,NA,2,11,E4_Q8_ansR.png,right,NA,NA,NA,right,1340,true,NA,NA,NA,NA,NA
bxcPIwvU,NA,NA,bxcPIwvU,2020-0188,2021-11-15,15:33:43,16:43:48,NA,incomplete,false,true,NA,2,12,E4_Q9_ansL.png,left,NA,NA,NA,left,1391.00000000012,true,NA,NA,NA,NA,NA
bxcPIwvU,NA,NA,bxcPIwvU,2020-0188,2021-11-15,15:33:43,16:43:48,NA,incomplete,false,true,NA,2,13,E4_Q3_ansL.png,left,NA,NA,NA,left,1794.00000000012,true,NA,NA,NA,NA,NA
bxcPIwvU,NA,NA,bxcPIwvU,2020-0188,2021-11-15,15:33:43,16:43:48,NA,incomplete,false,true,NA,2,14,E4_Q4_ansL.png,left,NA,NA,NA,left,1987.99999999988,true,NA,NA,NA,NA,NA
bxcPIwvU,NA,NA,bxcPIwvU,2020-0188,2021-11-15,15:33:43,16:43:48,NA,incomplete,false,true,NA,2,15,E4_Q6_ansR.png,right,NA,NA,NA,right,1678.00000000012,true,NA,NA,NA,NA,NA
bxcPIwvU,NA,NA,bxcPIwvU,2020-0188,2021-11-15,15:33:43,16:43:48,NA,incomplete,false,true,NA,2,16,E4_Q7_ansR.png,right,NA,NA,NA,right,1496.99999999977,true,NA,NA,NA,NA,NA
bxcPIwvU,NA,NA,bxcPIwvU,2020-0188,2021-11-15,15:33:43,16:43:48,NA,incomplete,false,true,NA,2,17,E4_Q10_ansR.png,right,NA,NA,NA,right,2033,true,NA,NA,NA,NA,NA
bxcPIwvU,NA,NA,bxcPIwvU,2020-0188,2021-11-15,15:33:43,16:43:48,NA,incomplete,false,true,NA,2,18,E4_Q5_ansR.png,right,NA,NA,NA,right,1820,true,NA,NA,NA,NA,NA
bxcPIwvU,NA,NA,bxcPIwvU,2020-0188,2021-11-15,15:33:43,16:43:48,NA,incomplete,false,true,NA,2,19,E4_Q1_ansL.png,left,NA,NA,NA,left,1720,true,NA,NA,NA,NA,NA
bxcPIwvU,NA,NA,bxcPIwvU,2020-0188,2021-11-15,15:33:43,16:43:48,NA,incomplete,false,true,NA,2,20,E9_Q1_ansR.png,right,NA,NA,NA,right,2770,true,NA,NA,NA,NA,NA
bxcPIwvU,NA,NA,bxcPIwvU,2020-0188,2021-11-15,15:33:43,16:43:48,NA,incomplete,false,true,NA,2,21,E9_Q6_ansL.png,left,NA,NA,NA,left,1118,true,NA,NA,NA,NA,NA
bxcPIwvU,NA,NA,bxcPIwvU,2020-0188,2021-11-15,15:33:43,16:43:48,NA,incomplete,false,true,NA,2,22,E9_Q4_ansL.png,left,NA,NA,NA,left,1456,true,NA,NA,NA,NA,NA
bxcPIwvU,NA,NA,bxcPIwvU,2020-0188,2021-11-15,15:33:43,16:43:48,NA,incomplete,false,true,NA,2,23,E9_Q2_ansR.png,right,NA,NA,NA,right,1976,true,NA,NA,NA,NA,NA
bxcPIwvU,NA,NA,bxcPIwvU,2020-0188,2021-11-15,15:33:43,16:43:48,NA,incomplete,false,true,NA,2,24,E9_Q5_ansL.png,left,NA,NA,NA,left,2333,true,NA,NA,NA,NA,NA
bxcPIwvU,NA,NA,bxcPIwvU,2020-0188,2021-11-15,15:33:43,16:43:48,NA,incomplete,false,true,NA,2,25,E9_Q7_ansR.png,right,NA,NA,NA,right,1780,true,NA,NA,NA,NA,NA
bxcPIwvU,NA,NA,bxcPIwvU,2020-0188,2021-11-15,15:33:43,16:43:48,NA,incomplete,false,true,NA,2,26,E9_Q3_ansL.png,left,NA,NA,NA,left,2331,true,NA,NA,NA,NA,NA
bxcPIwvU,NA,NA,bxcPIwvU,2020-0188,2021-11-15,15:33:43,16:43:48,NA,incomplete,false,true,NA,2,27,E9_Q8_ansR.png,right,NA,NA,NA,right,2726,true,NA,NA,NA,NA,NA
bxcPIwvU,NA,NA,bxcPIwvU,2020-0188,2021-11-15,15:33:43,16:43:48,NA,incomplete,false,true,NA,2,28,E9_Q10_ansR.png,right,NA,NA,NA,right,2289.99999999977,true,NA,NA,NA,NA,NA
bxcPIwvU,NA,NA,bxcPIwvU,2020-0188,2021-11-15,15:33:43,16:43:48,NA,incomplete,false,true,NA,2,29,E9_Q9_ansL.png,left,NA,NA,NA,left,2458,true,NA,NA,NA,NA,NA
bxcPIwvU,NA,NA,bxcPIwvU,2020-0188,2021-11-15,15:33:43,16:43:48,NA,incomplete,false,NA,true,2,0,NA,left,E4_Q4_ansL.png,E4_Q10_ansR.png,within,NA,NaN,NA,right,6221,0,1,1977.9999999997672
bxcPIwvU,NA,NA,bxcPIwvU,2020-0188,2021-11-15,15:33:43,16:43:48,NA,incomplete,false,NA,true,2,1,NA,right,E4_Q1_ansL.png,E4_Q7_ansR.png,within,NA,NaN,NA,left,3349,0,1,885
bxcPIwvU,NA,NA,bxcPIwvU,2020-0188,2021-11-15,15:33:43,16:43:48,NA,incomplete,false,NA,true,2,2,NA,left,E27_Q7_ansL.png,E27_Q9_ansR.png,within,NA,NaN,NA,right,4142,0,1,1835
bxcPIwvU,NA,NA,bxcPIwvU,2020-0188,2021-11-15,15:33:43,16:43:48,NA,incomplete,false,NA,true,2,3,NA,right,E27_Q3_ansR.png,E27_Q2_ansL.png,within,NA,NaN,NA,left,43964,0,1,1528
bxcPIwvU,NA,NA,bxcPIwvU,2020-0188,2021-11-15,15:33:43,16:43:48,NA,incomplete,false,NA,true,2,4,NA,left,E9_Q3_ansL.png,E9_Q9_ansL.png,within,NA,NaN,NA,left,1833,1,1,961
bxcPIwvU,NA,NA,bxcPIwvU,2020-0188,2021-11-15,15:33:43,16:43:48,NA,incomplete,false,NA,true,2,5,NA,left,E27_Q3_ansR.png,E4_Q9_ansL.png,between,NA,NaN,NA,left,2318.999999999767,1,2,791
bxcPIwvU,NA,NA,bxcPIwvU,2020-0188,2021-11-15,15:33:43,16:43:48,NA,incomplete,false,NA,true,2,6,NA,right,E4_Q6_ansR.png,E4_Q9_ansL.png,within,NA,NaN,NA,right,6291,1,1,1276
bxcPIwvU,NA,NA,bxcPIwvU,2020-0188,2021-11-15,15:33:43,16:43:48,NA,incomplete,false,NA,true,2,7,NA,right,E27_Q8_ansL.png,E27_Q10_ansL.png,within,NA,NaN,NA,left,1903,0,1,1489
bxcPIwvU,NA,NA,bxcPIwvU,2020-0188,2021-11-15,15:33:43,16:43:48,NA,incomplete,false,NA,true,2,8,NA,left,E27_Q5_ansR.png,E27_Q2_ansL.png,within,NA,NaN,NA,right,4839,0,1,849
bxcPIwvU,NA,NA,bxcPIwvU,2020-0188,2021-11-15,15:33:43,16:43:48,NA,incomplete,false,NA,true,2,9,NA,left,E9_Q6_ansL.png,E9_Q5_ansL.png,within,NA,NaN,NA,left,2460,1,1,797
bxcPIwvU,NA,NA,bxcPIwvU,2020-0188,2021-11-15,15:33:43,16:43:48,NA,incomplete,false,NA,true,2,10,NA,left,E4_Q3_ansL.png,E4_Q7_ansR.png,within,NA,NaN,NA,left,3338,1,1,848
bxcPIwvU,NA,NA,bxcPIwvU,2020-0188,2021-11-15,15:33:43,16:43:48,NA,incomplete,false,NA,true,2,11,NA,right,E9_Q7_ansR.png,E9_Q4_ansL.png,within,NA,NaN,NA,left,2728,0,1,1024
bxcPIwvU,NA,NA,bxcPIwvU,2020-0188,2021-11-15,15:33:43,16:43:48,NA,incomplete,false,NA,true,2,12,NA,left,E27_Q1_ansL.png,E27_Q5_ansR.png,within,NA,NaN,NA,left,12851,1,1,1201
bxcPIwvU,NA,NA,bxcPIwvU,2020-0188,2021-11-15,15:33:43,16:43:48,NA,incomplete,false,NA,true,2,13,NA,left,E4_Q10_ansR.png,E9_Q1_ansR.png,between,NA,NaN,NA,left,4863,1,1,4423.999999999767
bxcPIwvU,NA,NA,bxcPIwvU,2020-0188,2021-11-15,15:33:43,16:43:48,NA,incomplete,false,NA,true,2,14,NA,left,E4_Q8_ansR.png,E4_Q4_ansL.png,within,NA,NaN,NA,left,1960,1,1,1102
bxcPIwvU,NA,NA,bxcPIwvU,2020-0188,2021-11-15,15:33:43,16:43:48,NA,incomplete,false,NA,true,2,15,NA,left,E27_Q6_ansR.png,E27_Q10_ansL.png,within,NA,NaN,NA,left,1546,1,1,964
bxcPIwvU,NA,NA,bxcPIwvU,2020-0188,2021-11-15,15:33:43,16:43:48,NA,incomplete,false,NA,true,2,16,NA,left,E9_Q1_ansR.png,E9_Q2_ansR.png,within,NA,NaN,NA,left,1562,1,1,1336
bxcPIwvU,NA,NA,bxcPIwvU,2020-0188,2021-11-15,15:33:43,16:43:48,NA,incomplete,false,NA,true,2,17,NA,left,E4_Q2_ansL.png,E4_Q3_ansL.png,within,NA,NaN,NA,right,54864,0,1,979.0000000002328
bxcPIwvU,NA,NA,bxcPIwvU,2020-0188,2021-11-15,15:33:43,16:43:48,NA,incomplete,false,NA,true,2,18,NA,right,E27_Q7_ansL.png,E27_Q4_ansR.png,within,NA,NaN,NA,left,1948,0,1,882.9999999997672
bxcPIwvU,NA,NA,bxcPIwvU,2020-0188,2021-11-15,15:33:43,16:43:48,NA,incomplete,false,NA,true,2,19,NA,left,E9_Q2_ansR.png,E9_Q3_ansL.png,within,NA,NaN,NA,left,1836,1,1,1645.9999999997672
bxcPIwvU,NA,NA,bxcPIwvU,2020-0188,2021-11-15,15:33:43,16:43:48,NA,incomplete,false,NA,true,2,20,NA,left,E4_Q6_ansR.png,E4_Q5_ansR.png,within,NA,NaN,NA,left,5024.999999999767,1,1,770
bxcPIwvU,NA,NA,bxcPIwvU,2020-0188,2021-11-15,15:33:43,16:43:48,NA,incomplete,false,NA,true,2,21,NA,right,E4_Q8_ansR.png,E27_Q9_ansR.png,between,NA,NaN,NA,right,3252,1,2,1996.9999999997672
bxcPIwvU,NA,NA,bxcPIwvU,2020-0188,2021-11-15,15:33:43,16:43:48,NA,incomplete,false,NA,true,2,22,NA,right,E9_Q10_ansR.png,E9_Q7_ansR.png,within,NA,NaN,NA,left,1748,0,1,831
bxcPIwvU,NA,NA,bxcPIwvU,2020-0188,2021-11-15,15:33:43,16:43:48,NA,incomplete,false,NA,true,2,23,NA,right,E9_Q8_ansR.png,E9_Q5_ansL.png,within,NA,NaN,NA,right,1818.0000000002328,1,1,892
bxcPIwvU,NA,NA,bxcPIwvU,2020-0188,2021-11-15,15:33:43,16:43:48,NA,incomplete,false,NA,true,2,24,NA,right,E4_Q2_ansL.png,E27_Q8_ansL.png,between,NA,NaN,NA,right,1751.9999999997672,1,1,1928
bxcPIwvU,NA,NA,bxcPIwvU,2020-0188,2021-11-15,15:33:43,16:43:48,NA,incomplete,false,NA,true,2,25,NA,left,E4_Q5_ansR.png,E9_Q6_ansL.png,between,NA,NaN,NA,left,4120,1,2,2039
bxcPIwvU,NA,NA,bxcPIwvU,2020-0188,2021-11-15,15:33:43,16:43:48,NA,incomplete,false,NA,true,2,26,NA,right,E9_Q4_ansL.png,E4_Q1_ansL.png,between,NA,NaN,NA,right,1440.9999999997672,1,2,1768
bxcPIwvU,NA,NA,bxcPIwvU,2020-0188,2021-11-15,15:33:43,16:43:48,NA,incomplete,false,true,NA,3,0,E21_Q1_ansL.png,left,NA,NA,NA,left,3067,true,NA,NA,NA,NA,NA
bxcPIwvU,NA,NA,bxcPIwvU,2020-0188,2021-11-15,15:33:43,16:43:48,NA,incomplete,false,true,NA,3,1,E21_Q3_ansR.png,right,NA,NA,NA,right,1243,true,NA,NA,NA,NA,NA
bxcPIwvU,NA,NA,bxcPIwvU,2020-0188,2021-11-15,15:33:43,16:43:48,NA,incomplete,false,true,NA,3,2,E21_Q4_ansR.png,right,NA,NA,NA,right,2040,true,NA,NA,NA,NA,NA
bxcPIwvU,NA,NA,bxcPIwvU,2020-0188,2021-11-15,15:33:43,16:43:48,NA,incomplete,false,true,NA,3,3,E21_Q9_ansR.png,right,NA,NA,NA,right,2247,true,NA,NA,NA,NA,NA
bxcPIwvU,NA,NA,bxcPIwvU,2020-0188,2021-11-15,15:33:43,16:43:48,NA,incomplete,false,true,NA,3,4,E21_Q10_ansL.png,left,NA,NA,NA,left,1630,true,NA,NA,NA,NA,NA
bxcPIwvU,NA,NA,bxcPIwvU,2020-0188,2021-11-15,15:33:43,16:43:48,NA,incomplete,false,true,NA,3,5,E21_Q2_ansL.png,left,NA,NA,NA,left,1626,true,NA,NA,NA,NA,NA
bxcPIwvU,NA,NA,bxcPIwvU,2020-0188,2021-11-15,15:33:43,16:43:48,NA,incomplete,false,true,NA,3,6,E21_Q8_ansL.png,left,NA,NA,NA,left,967.000000000233,true,NA,NA,NA,NA,NA
bxcPIwvU,NA,NA,bxcPIwvU,2020-0188,2021-11-15,15:33:43,16:43:48,NA,incomplete,false,true,NA,3,7,E21_Q5_ansR.png,right,NA,NA,NA,right,1933,true,NA,NA,NA,NA,NA
bxcPIwvU,NA,NA,bxcPIwvU,2020-0188,2021-11-15,15:33:43,16:43:48,NA,incomplete,false,true,NA,3,8,E21_Q7_ansL.png,left,NA,NA,NA,left,1724,true,NA,NA,NA,NA,NA
bxcPIwvU,NA,NA,bxcPIwvU,2020-0188,2021-11-15,15:33:43,16:43:48,NA,incomplete,false,true,NA,3,9,E21_Q6_ansR.png,right,NA,NA,NA,right,1767.99999999977,true,NA,NA,NA,NA,NA
bxcPIwvU,NA,NA,bxcPIwvU,2020-0188,2021-11-15,15:33:43,16:43:48,NA,incomplete,false,true,NA,3,10,E12_Q2_ansL.png,left,NA,NA,NA,left,2448,true,NA,NA,NA,NA,NA
bxcPIwvU,NA,NA,bxcPIwvU,2020-0188,2021-11-15,15:33:43,16:43:48,NA,incomplete,false,true,NA,3,11,E12_Q8_ansL.png,left,NA,NA,NA,left,1700.00000000023,true,NA,NA,NA,NA,NA
bxcPIwvU,NA,NA,bxcPIwvU,2020-0188,2021-11-15,15:33:43,16:43:48,NA,incomplete,false,true,NA,3,12,E12_Q7_ansL.png,left,NA,NA,NA,left,1531,true,NA,NA,NA,NA,NA
bxcPIwvU,NA,NA,bxcPIwvU,2020-0188,2021-11-15,15:33:43,16:43:48,NA,incomplete,false,true,NA,3,13,E12_Q1_ansL.png,left,NA,NA,NA,left,2274,true,NA,NA,NA,NA,NA
bxcPIwvU,NA,NA,bxcPIwvU,2020-0188,2021-11-15,15:33:43,16:43:48,NA,incomplete,false,true,NA,3,14,E12_Q3_ansR.png,right,NA,NA,NA,right,2029,true,NA,NA,NA,NA,NA
bxcPIwvU,NA,NA,bxcPIwvU,2020-0188,2021-11-15,15:33:43,16:43:48,NA,incomplete,false,true,NA,3,15,E12_Q10_ansL.png,left,NA,NA,NA,left,1485.99999999977,true,NA,NA,NA,NA,NA
bxcPIwvU,NA,NA,bxcPIwvU,2020-0188,2021-11-15,15:33:43,16:43:48,NA,incomplete,false,true,NA,3,16,E12_Q6_ansR.png,right,NA,NA,NA,right,2363.99999999977,true,NA,NA,NA,NA,NA
bxcPIwvU,NA,NA,bxcPIwvU,2020-0188,2021-11-15,15:33:43,16:43:48,NA,incomplete,false,true,NA,3,17,E12_Q9_ansR.png,right,NA,NA,NA,right,2991,true,NA,NA,NA,NA,NA
bxcPIwvU,NA,NA,bxcPIwvU,2020-0188,2021-11-15,15:33:43,16:43:48,NA,incomplete,false,true,NA,3,18,E12_Q4_ansR.png,right,NA,NA,NA,right,1784,true,NA,NA,NA,NA,NA
bxcPIwvU,NA,NA,bxcPIwvU,2020-0188,2021-11-15,15:33:43,16:43:48,NA,incomplete,false,true,NA,3,19,E12_Q5_ansR.png,right,NA,NA,NA,right,1930.00000000023,true,NA,NA,NA,NA,NA
bxcPIwvU,NA,NA,bxcPIwvU,2020-0188,2021-11-15,15:33:43,16:43:48,NA,incomplete,false,true,NA,3,20,E32_Q4_ansR.png,right,NA,NA,NA,right,1628,true,NA,NA,NA,NA,NA
bxcPIwvU,NA,NA,bxcPIwvU,2020-0188,2021-11-15,15:33:43,16:43:48,NA,incomplete,false,true,NA,3,21,E32_Q7_ansL.png,left,NA,NA,NA,left,2177,true,NA,NA,NA,NA,NA
bxcPIwvU,NA,NA,bxcPIwvU,2020-0188,2021-11-15,15:33:43,16:43:48,NA,incomplete,false,true,NA,3,22,E32_Q1_ansL.png,left,NA,NA,NA,left,1968.99999999977,true,NA,NA,NA,NA,NA
bxcPIwvU,NA,NA,bxcPIwvU,2020-0188,2021-11-15,15:33:43,16:43:48,NA,incomplete,false,true,NA,3,23,E32_Q2_ansL.png,left,NA,NA,NA,left,1810.99999999977,true,NA,NA,NA,NA,NA
bxcPIwvU,NA,NA,bxcPIwvU,2020-0188,2021-11-15,15:33:43,16:43:48,NA,incomplete,false,true,NA,3,24,E32_Q10_ansL.png,left,NA,NA,NA,left,1399,true,NA,NA,NA,NA,NA
bxcPIwvU,NA,NA,bxcPIwvU,2020-0188,2021-11-15,15:33:43,16:43:48,NA,incomplete,false,true,NA,3,25,E32_Q5_ansR.png,right,NA,NA,NA,right,2572,true,NA,NA,NA,NA,NA
bxcPIwvU,NA,NA,bxcPIwvU,2020-0188,2021-11-15,15:33:43,16:43:48,NA,incomplete,false,true,NA,3,26,E32_Q6_ansR.png,right,NA,NA,NA,right,1436,true,NA,NA,NA,NA,NA
bxcPIwvU,NA,NA,bxcPIwvU,2020-0188,2021-11-15,15:33:43,16:43:48,NA,incomplete,false,true,NA,3,27,E32_Q3_ansR.png,right,NA,NA,NA,right,1731,true,NA,NA,NA,NA,NA
bxcPIwvU,NA,NA,bxcPIwvU,2020-0188,2021-11-15,15:33:43,16:43:48,NA,incomplete,false,true,NA,3,28,E32_Q8_ansL.png,left,NA,NA,NA,left,2185,true,NA,NA,NA,NA,NA
bxcPIwvU,NA,NA,bxcPIwvU,2020-0188,2021-11-15,15:33:43,16:43:48,NA,incomplete,false,true,NA,3,29,E32_Q9_ansR.png,right,NA,NA,NA,right,1774,true,NA,NA,NA,NA,NA
bxcPIwvU,NA,NA,bxcPIwvU,2020-0188,2021-11-15,15:33:43,16:43:48,NA,incomplete,false,NA,true,3,0,NA,right,E12_Q2_ansL.png,E21_Q5_ansR.png,between,NA,NaN,NA,right,2975,1,2,1521
bxcPIwvU,NA,NA,bxcPIwvU,2020-0188,2021-11-15,15:33:43,16:43:48,NA,incomplete,false,NA,true,3,1,NA,left,E32_Q1_ansL.png,E32_Q5_ansR.png,within,NA,NaN,NA,left,2698,1,1,1011
bxcPIwvU,NA,NA,bxcPIwvU,2020-0188,2021-11-15,15:33:43,16:43:48,NA,incomplete,false,NA,true,3,2,NA,right,E32_Q9_ansR.png,E32_Q6_ansR.png,within,NA,NaN,NA,right,1720,1,1,1365
bxcPIwvU,NA,NA,bxcPIwvU,2020-0188,2021-11-15,15:33:43,16:43:48,NA,incomplete,false,NA,true,3,3,NA,left,E32_Q7_ansL.png,E32_Q10_ansL.png,within,NA,NaN,NA,left,1319,1,0,882.0000000002328
bxcPIwvU,NA,NA,bxcPIwvU,2020-0188,2021-11-15,15:33:43,16:43:48,NA,incomplete,false,NA,true,3,4,NA,left,E12_Q1_ansL.png,E12_Q6_ansR.png,within,NA,NaN,NA,left,3062,1,1,1069
bxcPIwvU,NA,NA,bxcPIwvU,2020-0188,2021-11-15,15:33:43,16:43:48,NA,incomplete,false,NA,true,3,5,NA,left,E21_Q3_ansR.png,E21_Q10_ansL.png,within,NA,NaN,NA,left,3401,1,1,898.9999999997672
bxcPIwvU,NA,NA,bxcPIwvU,2020-0188,2021-11-15,15:33:43,16:43:48,NA,incomplete,false,NA,true,3,6,NA,left,E32_Q10_ansL.png,E32_Q3_ansR.png,within,NA,NaN,NA,right,3478,0,1,995
bxcPIwvU,NA,NA,bxcPIwvU,2020-0188,2021-11-15,15:33:43,16:43:48,NA,incomplete,false,NA,true,3,7,NA,left,E32_Q4_ansR.png,E32_Q2_ansL.png,within,NA,NaN,NA,left,1288,1,1,2096
bxcPIwvU,NA,NA,bxcPIwvU,2020-0188,2021-11-15,15:33:43,16:43:48,NA,incomplete,false,NA,true,3,8,NA,left,E21_Q6_ansR.png,E12_Q7_ansL.png,between,NA,NaN,NA,left,9638,1,1,1027
bxcPIwvU,NA,NA,bxcPIwvU,2020-0188,2021-11-15,15:33:43,16:43:48,NA,incomplete,false,NA,true,3,9,NA,left,E12_Q9_ansR.png,E32_Q4_ansR.png,between,NA,NaN,NA,left,1985,1,2,2138
bxcPIwvU,NA,NA,bxcPIwvU,2020-0188,2021-11-15,15:33:43,16:43:48,NA,incomplete,false,NA,true,3,10,NA,left,E21_Q9_ansR.png,E21_Q8_ansL.png,within,NA,NaN,NA,left,1341,1,0,1381
bxcPIwvU,NA,NA,bxcPIwvU,2020-0188,2021-11-15,15:33:43,16:43:48,NA,incomplete,false,NA,true,3,11,NA,right,E21_Q5_ansR.png,E21_Q10_ansL.png,within,NA,NaN,NA,left,3003,0,0,1301
bxcPIwvU,NA,NA,bxcPIwvU,2020-0188,2021-11-15,15:33:43,16:43:48,NA,incomplete,false,NA,true,3,12,NA,left,E12_Q10_ansL.png,E12_Q4_ansR.png,within,NA,NaN,NA,right,1567,0,1,1200.0000000002328
bxcPIwvU,NA,NA,bxcPIwvU,2020-0188,2021-11-15,15:33:43,16:43:48,NA,incomplete,false,NA,true,3,13,NA,left,E12_Q2_ansL.png,E12_Q1_ansL.png,within,NA,NaN,NA,right,4094,0,1,844.9999999997672
bxcPIwvU,NA,NA,bxcPIwvU,2020-0188,2021-11-15,15:33:43,16:43:48,NA,incomplete,false,NA,true,3,14,NA,right,E12_Q5_ansR.png,E12_Q6_ansR.png,within,NA,NaN,NA,left,1580,0,1,992.0000000002328
bxcPIwvU,NA,NA,bxcPIwvU,2020-0188,2021-11-15,15:33:43,16:43:48,NA,incomplete,false,NA,true,3,15,NA,right,E21_Q2_ansL.png,E21_Q4_ansR.png,within,NA,NaN,NA,right,1963,1,0,1039
bxcPIwvU,NA,NA,bxcPIwvU,2020-0188,2021-11-15,15:33:43,16:43:48,NA,incomplete,false,NA,true,3,16,NA,right,E21_Q9_ansR.png,E21_Q1_ansL.png,within,NA,NaN,NA,right,2637,1,1,1148
bxcPIwvU,NA,NA,bxcPIwvU,2020-0188,2021-11-15,15:33:43,16:43:48,NA,incomplete,false,NA,true,3,17,NA,left,E12_Q8_ansL.png,E12_Q3_ansR.png,within,NA,NaN,NA,left,1361,1,0,1729.9999999997672
bxcPIwvU,NA,NA,bxcPIwvU,2020-0188,2021-11-15,15:33:43,16:43:48,NA,incomplete,false,NA,true,3,18,NA,left,E12_Q4_ansR.png,E32_Q7_ansL.png,between,NA,NaN,NA,left,1304,1,2,1808
bxcPIwvU,NA,NA,bxcPIwvU,2020-0188,2021-11-15,15:33:43,16:43:48,NA,incomplete,false,NA,true,3,19,NA,left,E32_Q2_ansL.png,E32_Q6_ansR.png,within,NA,NaN,NA,right,1476,0,1,1039.9999999997672
bxcPIwvU,NA,NA,bxcPIwvU,2020-0188,2021-11-15,15:33:43,16:43:48,NA,incomplete,false,NA,true,3,20,NA,left,E12_Q3_ansR.png,E12_Q9_ansR.png,within,NA,NaN,NA,left,1533.9999999997672,1,1,831
bxcPIwvU,NA,NA,bxcPIwvU,2020-0188,2021-11-15,15:33:43,16:43:48,NA,incomplete,false,NA,true,3,21,NA,left,E21_Q7_ansL.png,E12_Q8_ansL.png,between,NA,NaN,NA,left,1051,1,2,1871
bxcPIwvU,NA,NA,bxcPIwvU,2020-0188,2021-11-15,15:33:43,16:43:48,NA,incomplete,false,NA,true,3,22,NA,left,E21_Q8_ansL.png,E21_Q6_ansR.png,within,NA,NaN,NA,left,2631,1,1,2611.999999999767
bxcPIwvU,NA,NA,bxcPIwvU,2020-0188,2021-11-15,15:33:43,16:43:48,NA,incomplete,false,NA,true,3,23,NA,left,E12_Q7_ansL.png,E12_Q10_ansL.png,within,NA,NaN,NA,left,2561.999999999767,1,1,1138
bxcPIwvU,NA,NA,bxcPIwvU,2020-0188,2021-11-15,15:33:43,16:43:48,NA,incomplete,false,NA,true,3,24,NA,left,E12_Q5_ansR.png,E32_Q1_ansL.png,between,NA,NaN,NA,left,1196.0000000002328,1,2,1587
bxcPIwvU,NA,NA,bxcPIwvU,2020-0188,2021-11-15,15:33:43,16:43:48,NA,incomplete,false,NA,true,3,25,NA,left,E32_Q5_ansR.png,E32_Q8_ansL.png,within,NA,NaN,NA,right,2324,0,1,866.9999999997672
bxcPIwvU,NA,NA,bxcPIwvU,2020-0188,2021-11-15,15:33:43,16:43:48,NA,incomplete,false,NA,true,3,26,NA,left,E21_Q2_ansL.png,E21_Q7_ansL.png,within,NA,NaN,NA,left,1321,1,1,832
bxcPIwvU,NA,NA,bxcPIwvU,2020-0188,2021-11-15,15:33:43,16:43:48,NA,incomplete,false,true,NA,4,0,E6_Q7_ansL.png,left,NA,NA,NA,left,1806,true,NA,NA,NA,NA,NA
bxcPIwvU,NA,NA,bxcPIwvU,2020-0188,2021-11-15,15:33:43,16:43:48,NA,incomplete,false,true,NA,4,1,E6_Q5_ansR.png,right,NA,NA,NA,right,1889.00000000023,true,NA,NA,NA,NA,NA
bxcPIwvU,NA,NA,bxcPIwvU,2020-0188,2021-11-15,15:33:43,16:43:48,NA,incomplete,false,true,NA,4,2,E6_Q4_ansR.png,right,NA,NA,NA,right,1823,true,NA,NA,NA,NA,NA
bxcPIwvU,NA,NA,bxcPIwvU,2020-0188,2021-11-15,15:33:43,16:43:48,NA,incomplete,false,true,NA,4,3,E6_Q1_ansL.png,left,NA,NA,NA,left,1684,true,NA,NA,NA,NA,NA
bxcPIwvU,NA,NA,bxcPIwvU,2020-0188,2021-11-15,15:33:43,16:43:48,NA,incomplete,false,true,NA,4,4,E6_Q2_ansL.png,left,NA,NA,NA,left,1654,true,NA,NA,NA,NA,NA
bxcPIwvU,NA,NA,bxcPIwvU,2020-0188,2021-11-15,15:33:43,16:43:48,NA,incomplete,false,true,NA,4,5,E6_Q10_ansL.png,left,NA,NA,NA,left,1731,true,NA,NA,NA,NA,NA
bxcPIwvU,NA,NA,bxcPIwvU,2020-0188,2021-11-15,15:33:43,16:43:48,NA,incomplete,false,true,NA,4,6,E6_Q8_ansL.png,left,NA,NA,NA,left,1747,true,NA,NA,NA,NA,NA
bxcPIwvU,NA,NA,bxcPIwvU,2020-0188,2021-11-15,15:33:43,16:43:48,NA,incomplete,false,true,NA,4,7,E6_Q6_ansR.png,right,NA,NA,NA,right,2161.99999999977,true,NA,NA,NA,NA,NA
bxcPIwvU,NA,NA,bxcPIwvU,2020-0188,2021-11-15,15:33:43,16:43:48,NA,incomplete,false,true,NA,4,8,E6_Q9_ansL.png,left,NA,NA,NA,left,916,true,NA,NA,NA,NA,NA
bxcPIwvU,NA,NA,bxcPIwvU,2020-0188,2021-11-15,15:33:43,16:43:48,NA,incomplete,false,true,NA,4,9,E6_Q3_ansR.png,right,NA,NA,NA,right,1634,true,NA,NA,NA,NA,NA
bxcPIwvU,NA,NA,bxcPIwvU,2020-0188,2021-11-15,15:33:43,16:43:48,NA,incomplete,false,true,NA,4,10,E7_Q4_ansR.png,right,NA,NA,NA,left,1813,false,NA,NA,NA,NA,NA
bxcPIwvU,NA,NA,bxcPIwvU,2020-0188,2021-11-15,15:33:43,16:43:48,NA,incomplete,false,true,NA,4,11,E7_Q8_ansL.png,left,NA,NA,NA,left,1368.99999999977,true,NA,NA,NA,NA,NA
bxcPIwvU,NA,NA,bxcPIwvU,2020-0188,2021-11-15,15:33:43,16:43:48,NA,incomplete,false,true,NA,4,12,E7_Q9_ansR.png,right,NA,NA,NA,right,1875,true,NA,NA,NA,NA,NA
bxcPIwvU,NA,NA,bxcPIwvU,2020-0188,2021-11-15,15:33:43,16:43:48,NA,incomplete,false,true,NA,4,13,E7_Q6_ansR.png,right,NA,NA,NA,right,1895,true,NA,NA,NA,NA,NA
bxcPIwvU,NA,NA,bxcPIwvU,2020-0188,2021-11-15,15:33:43,16:43:48,NA,incomplete,false,true,NA,4,14,E7_Q5_ansR.png,right,NA,NA,NA,right,1933,true,NA,NA,NA,NA,NA
bxcPIwvU,NA,NA,bxcPIwvU,2020-0188,2021-11-15,15:33:43,16:43:48,NA,incomplete,false,true,NA,4,15,E7_Q2_ansL.png,left,NA,NA,NA,left,2023.00000000023,true,NA,NA,NA,NA,NA
bxcPIwvU,NA,NA,bxcPIwvU,2020-0188,2021-11-15,15:33:43,16:43:48,NA,incomplete,false,true,NA,4,16,E7_Q3_ansR.png,right,NA,NA,NA,right,1997,true,NA,NA,NA,NA,NA
bxcPIwvU,NA,NA,bxcPIwvU,2020-0188,2021-11-15,15:33:43,16:43:48,NA,incomplete,false,true,NA,4,17,E7_Q1_ansL.png,left,NA,NA,NA,left,1736,true,NA,NA,NA,NA,NA
bxcPIwvU,NA,NA,bxcPIwvU,2020-0188,2021-11-15,15:33:43,16:43:48,NA,incomplete,false,true,NA,4,18,E7_Q10_ansR.png,right,NA,NA,NA,right,2507,true,NA,NA,NA,NA,NA
bxcPIwvU,NA,NA,bxcPIwvU,2020-0188,2021-11-15,15:33:43,16:43:48,NA,incomplete,false,true,NA,4,19,E7_Q7_ansL.png,left,NA,NA,NA,left,1193,true,NA,NA,NA,NA,NA
bxcPIwvU,NA,NA,bxcPIwvU,2020-0188,2021-11-15,15:33:43,16:43:48,NA,incomplete,false,true,NA,4,20,E1_Q7_ansL.png,left,NA,NA,NA,left,1461.00000000023,true,NA,NA,NA,NA,NA
bxcPIwvU,NA,NA,bxcPIwvU,2020-0188,2021-11-15,15:33:43,16:43:48,NA,incomplete,false,true,NA,4,21,E1_Q10_ansR.png,right,NA,NA,NA,right,2778,true,NA,NA,NA,NA,NA
bxcPIwvU,NA,NA,bxcPIwvU,2020-0188,2021-11-15,15:33:43,16:43:48,NA,incomplete,false,true,NA,4,22,E1_Q3_ansR.png,right,NA,NA,NA,right,2814,true,NA,NA,NA,NA,NA
bxcPIwvU,NA,NA,bxcPIwvU,2020-0188,2021-11-15,15:33:43,16:43:48,NA,incomplete,false,true,NA,4,23,E1_Q1_ansL.png,left,NA,NA,NA,left,1302,true,NA,NA,NA,NA,NA
bxcPIwvU,NA,NA,bxcPIwvU,2020-0188,2021-11-15,15:33:43,16:43:48,NA,incomplete,false,true,NA,4,24,E1_Q5_ansR.png,right,NA,NA,NA,right,2102,true,NA,NA,NA,NA,NA
bxcPIwvU,NA,NA,bxcPIwvU,2020-0188,2021-11-15,15:33:43,16:43:48,NA,incomplete,false,true,NA,4,25,E1_Q8_ansR.png,right,NA,NA,NA,right,1751.00000000023,true,NA,NA,NA,NA,NA
bxcPIwvU,NA,NA,bxcPIwvU,2020-0188,2021-11-15,15:33:43,16:43:48,NA,incomplete,false,true,NA,4,26,E1_Q6_ansR.png,right,NA,NA,NA,right,1238,true,NA,NA,NA,NA,NA
bxcPIwvU,NA,NA,bxcPIwvU,2020-0188,2021-11-15,15:33:43,16:43:48,NA,incomplete,false,true,NA,4,27,E1_Q4_ansL.png,left,NA,NA,NA,left,1120,true,NA,NA,NA,NA,NA
bxcPIwvU,NA,NA,bxcPIwvU,2020-0188,2021-11-15,15:33:43,16:43:48,NA,incomplete,false,true,NA,4,28,E1_Q9_ansL.png,left,NA,NA,NA,left,1114,true,NA,NA,NA,NA,NA
bxcPIwvU,NA,NA,bxcPIwvU,2020-0188,2021-11-15,15:33:43,16:43:48,NA,incomplete,false,true,NA,4,29,E1_Q2_ansL.png,left,NA,NA,NA,left,933.999999999767,true,NA,NA,NA,NA,NA
bxcPIwvU,NA,NA,bxcPIwvU,2020-0188,2021-11-15,15:33:43,16:43:48,NA,incomplete,false,NA,true,4,0,NA,left,E1_Q3_ansR.png,E1_Q8_ansR.png,within,NA,NaN,NA,left,3363,1,1,1935
bxcPIwvU,NA,NA,bxcPIwvU,2020-0188,2021-11-15,15:33:43,16:43:48,NA,incomplete,false,NA,true,4,1,NA,right,E7_Q5_ansR.png,E7_Q8_ansL.png,within,NA,NaN,NA,left,26641,0,1,1208.9999999997672
bxcPIwvU,NA,NA,bxcPIwvU,2020-0188,2021-11-15,15:33:43,16:43:48,NA,incomplete,false,NA,true,4,2,NA,right,E6_Q10_ansL.png,E6_Q4_ansR.png,within,NA,NaN,NA,left,2733,0,1,956
bxcPIwvU,NA,NA,bxcPIwvU,2020-0188,2021-11-15,15:33:43,16:43:48,NA,incomplete,false,NA,true,4,3,NA,left,E7_Q5_ansR.png,E7_Q1_ansL.png,within,NA,NaN,NA,right,4767,0,1,1027.0000000002328
bxcPIwvU,NA,NA,bxcPIwvU,2020-0188,2021-11-15,15:33:43,16:43:48,NA,incomplete,false,NA,true,4,4,NA,left,E6_Q7_ansL.png,E6_Q1_ansL.png,within,NA,NaN,NA,left,7118,1,0,2033
bxcPIwvU,NA,NA,bxcPIwvU,2020-0188,2021-11-15,15:33:43,16:43:48,NA,incomplete,false,NA,true,4,5,NA,right,E7_Q10_ansR.png,E7_Q2_ansL.png,within,NA,NaN,NA,right,4273,1,1,1424
bxcPIwvU,NA,NA,bxcPIwvU,2020-0188,2021-11-15,15:33:43,16:43:48,NA,incomplete,false,NA,true,4,6,NA,left,E7_Q9_ansR.png,E7_Q2_ansL.png,within,NA,NaN,NA,left,2016.0000000002328,1,1,996
bxcPIwvU,NA,NA,bxcPIwvU,2020-0188,2021-11-15,15:33:43,16:43:48,NA,incomplete,false,NA,true,4,7,NA,left,E1_Q1_ansL.png,E1_Q6_ansR.png,within,NA,NaN,NA,left,4102.999999999767,1,1,892.0000000002328
bxcPIwvU,NA,NA,bxcPIwvU,2020-0188,2021-11-15,15:33:43,16:43:48,NA,incomplete,false,NA,true,4,8,NA,right,E6_Q3_ansR.png,E6_Q8_ansL.png,within,NA,NaN,NA,left,5744.000000000233,0,1,874.0000000002328
bxcPIwvU,NA,NA,bxcPIwvU,2020-0188,2021-11-15,15:33:43,16:43:48,NA,incomplete,false,NA,true,4,9,NA,right,E1_Q4_ansL.png,E1_Q5_ansR.png,within,NA,NaN,NA,left,1536,0,1,1014
bxcPIwvU,NA,NA,bxcPIwvU,2020-0188,2021-11-15,15:33:43,16:43:48,NA,incomplete,false,NA,true,4,10,NA,right,E6_Q8_ansL.png,E6_Q1_ansL.png,within,NA,NaN,NA,right,7160,1,1,1470.0000000002328
bxcPIwvU,NA,NA,bxcPIwvU,2020-0188,2021-11-15,15:33:43,16:43:48,NA,incomplete,false,NA,true,4,11,NA,right,E7_Q6_ansR.png,E7_Q4_ansR.png,within,NA,NaN,NA,right,3582.999999999767,1,0,2339
bxcPIwvU,NA,NA,bxcPIwvU,2020-0188,2021-11-15,15:33:43,16:43:48,NA,incomplete,false,NA,true,4,12,NA,right,E7_Q7_ansL.png,E7_Q3_ansR.png,within,NA,NaN,NA,left,3315,0,1,978.9999999997672
bxcPIwvU,NA,NA,bxcPIwvU,2020-0188,2021-11-15,15:33:43,16:43:48,NA,incomplete,false,NA,true,4,13,NA,left,E6_Q10_ansL.png,E6_Q9_ansL.png,within,NA,NaN,NA,right,1686.0000000002328,0,1,1082
bxcPIwvU,NA,NA,bxcPIwvU,2020-0188,2021-11-15,15:33:43,16:43:48,NA,incomplete,false,NA,true,4,14,NA,right,E1_Q9_ansL.png,E1_Q8_ansR.png,within,NA,NaN,NA,left,1544.9999999997672,0,1,736.9999999997672
bxcPIwvU,NA,NA,bxcPIwvU,2020-0188,2021-11-15,15:33:43,16:43:48,NA,incomplete,false,NA,true,4,15,NA,left,E1_Q6_ansR.png,E1_Q2_ansL.png,within,NA,NaN,NA,right,1798,0,1,675.9999999997672
bxcPIwvU,NA,NA,bxcPIwvU,2020-0188,2021-11-15,15:33:43,16:43:48,NA,incomplete,false,NA,true,4,16,NA,left,E1_Q7_ansL.png,E1_Q1_ansL.png,within,NA,NaN,NA,right,2773,0,1,1254.9999999997672
bxcPIwvU,NA,NA,bxcPIwvU,2020-0188,2021-11-15,15:33:43,16:43:48,NA,incomplete,false,NA,true,4,17,NA,right,E1_Q10_ansR.png,E7_Q10_ansR.png,between,NA,NaN,NA,right,4464,1,1,1623.9999999997672
bxcPIwvU,NA,NA,bxcPIwvU,2020-0188,2021-11-15,15:33:43,16:43:48,NA,incomplete,false,NA,true,4,18,NA,left,E6_Q3_ansR.png,E7_Q9_ansR.png,between,NA,NaN,NA,left,1935.0000000002328,1,1,1156
bxcPIwvU,NA,NA,bxcPIwvU,2020-0188,2021-11-15,15:33:43,16:43:48,NA,incomplete,false,NA,true,4,19,NA,right,E1_Q7_ansL.png,E7_Q1_ansL.png,between,NA,NaN,NA,right,1488,1,1,870.9999999997672
bxcPIwvU,NA,NA,bxcPIwvU,2020-0188,2021-11-15,15:33:43,16:43:48,NA,incomplete,false,NA,true,4,20,NA,left,E7_Q7_ansL.png,E1_Q3_ansR.png,between,NA,NaN,NA,left,5684,1,1,1242
bxcPIwvU,NA,NA,bxcPIwvU,2020-0188,2021-11-15,15:33:43,16:43:48,NA,incomplete,false,NA,true,4,21,NA,right,E7_Q3_ansR.png,E7_Q6_ansR.png,within,NA,NaN,NA,right,1963,1,1,1093.9999999997672
bxcPIwvU,NA,NA,bxcPIwvU,2020-0188,2021-11-15,15:33:43,16:43:48,NA,incomplete,false,NA,true,4,22,NA,right,E7_Q8_ansL.png,E6_Q9_ansL.png,between,NA,NaN,NA,right,3218,1,2,1825
bxcPIwvU,NA,NA,bxcPIwvU,2020-0188,2021-11-15,15:33:43,16:43:48,NA,incomplete,false,NA,true,4,23,NA,right,E7_Q4_ansR.png,E6_Q6_ansR.png,between,NA,NaN,NA,right,1368,1,2,1467
bxcPIwvU,NA,NA,bxcPIwvU,2020-0188,2021-11-15,15:33:43,16:43:48,NA,incomplete,false,NA,true,4,24,NA,right,E6_Q2_ansL.png,E6_Q5_ansR.png,within,NA,NaN,NA,right,1944.9999999997672,1,1,693
bxcPIwvU,NA,NA,bxcPIwvU,2020-0188,2021-11-15,15:33:43,16:43:48,NA,incomplete,false,NA,true,4,25,NA,right,E1_Q5_ansR.png,E1_Q10_ansR.png,within,NA,NaN,NA,right,6735.000000000233,1,1,1626
bxcPIwvU,NA,NA,bxcPIwvU,2020-0188,2021-11-15,15:33:43,16:43:48,NA,incomplete,false,NA,true,4,26,NA,left,E6_Q2_ansL.png,E6_Q6_ansR.png,within,NA,NaN,NA,right,2824.000000000233,0,1,1781.9999999997672
bxcPIwvU,NA,NA,bxcPIwvU,2020-0188,2021-11-15,15:33:43,16:43:48,NA,incomplete,false,true,NA,5,0,E23_Q8_ansL.png,left,NA,NA,NA,left,1932.00000000023,true,NA,NA,NA,NA,NA
bxcPIwvU,NA,NA,bxcPIwvU,2020-0188,2021-11-15,15:33:43,16:43:48,NA,incomplete,false,true,NA,5,1,E23_Q3_ansR.png,right,NA,NA,NA,right,1503.99999999977,true,NA,NA,NA,NA,NA
bxcPIwvU,NA,NA,bxcPIwvU,2020-0188,2021-11-15,15:33:43,16:43:48,NA,incomplete,false,true,NA,5,2,E23_Q9_ansR.png,right,NA,NA,NA,right,1463.99999999977,true,NA,NA,NA,NA,NA
bxcPIwvU,NA,NA,bxcPIwvU,2020-0188,2021-11-15,15:33:43,16:43:48,NA,incomplete,false,true,NA,5,3,E23_Q2_ansL.png,left,NA,NA,NA,left,1653.00000000023,true,NA,NA,NA,NA,NA
bxcPIwvU,NA,NA,bxcPIwvU,2020-0188,2021-11-15,15:33:43,16:43:48,NA,incomplete,false,true,NA,5,4,E23_Q10_ansL.png,left,NA,NA,NA,left,1989.00000000023,true,NA,NA,NA,NA,NA
bxcPIwvU,NA,NA,bxcPIwvU,2020-0188,2021-11-15,15:33:43,16:43:48,NA,incomplete,false,true,NA,5,5,E23_Q1_ansL.png,left,NA,NA,NA,left,1439,true,NA,NA,NA,NA,NA
bxcPIwvU,NA,NA,bxcPIwvU,2020-0188,2021-11-15,15:33:43,16:43:48,NA,incomplete,false,true,NA,5,6,E23_Q4_ansR.png,right,NA,NA,NA,right,1953,true,NA,NA,NA,NA,NA
bxcPIwvU,NA,NA,bxcPIwvU,2020-0188,2021-11-15,15:33:43,16:43:48,NA,incomplete,false,true,NA,5,7,E23_Q6_ansR.png,right,NA,NA,NA,right,1656,true,NA,NA,NA,NA,NA
bxcPIwvU,NA,NA,bxcPIwvU,2020-0188,2021-11-15,15:33:43,16:43:48,NA,incomplete,false,true,NA,5,8,E23_Q5_ansR.png,right,NA,NA,NA,right,1381.00000000023,true,NA,NA,NA,NA,NA
bxcPIwvU,NA,NA,bxcPIwvU,2020-0188,2021-11-15,15:33:43,16:43:48,NA,incomplete,false,true,NA,5,9,E23_Q7_ansL.png,left,NA,NA,NA,left,1851.00000000023,true,NA,NA,NA,NA,NA
bxcPIwvU,NA,NA,bxcPIwvU,2020-0188,2021-11-15,15:33:43,16:43:48,NA,incomplete,false,true,NA,5,10,E26_Q3_ansR.png,right,NA,NA,NA,right,2403,true,NA,NA,NA,NA,NA
bxcPIwvU,NA,NA,bxcPIwvU,2020-0188,2021-11-15,15:33:43,16:43:48,NA,incomplete,false,true,NA,5,11,E26_Q5_ansR.png,right,NA,NA,NA,right,1832,true,NA,NA,NA,NA,NA
bxcPIwvU,NA,NA,bxcPIwvU,2020-0188,2021-11-15,15:33:43,16:43:48,NA,incomplete,false,true,NA,5,12,E26_Q10_ansL.png,left,NA,NA,NA,left,1568.99999999953,true,NA,NA,NA,NA,NA
bxcPIwvU,NA,NA,bxcPIwvU,2020-0188,2021-11-15,15:33:43,16:43:48,NA,incomplete,false,true,NA,5,13,E26_Q1_ansL.png,left,NA,NA,NA,left,1478,true,NA,NA,NA,NA,NA
bxcPIwvU,NA,NA,bxcPIwvU,2020-0188,2021-11-15,15:33:43,16:43:48,NA,incomplete,false,true,NA,5,14,E26_Q7_ansL.png,left,NA,NA,NA,left,1515,true,NA,NA,NA,NA,NA
bxcPIwvU,NA,NA,bxcPIwvU,2020-0188,2021-11-15,15:33:43,16:43:48,NA,incomplete,false,true,NA,5,15,E26_Q6_ansR.png,right,NA,NA,NA,right,1819,true,NA,NA,NA,NA,NA
bxcPIwvU,NA,NA,bxcPIwvU,2020-0188,2021-11-15,15:33:43,16:43:48,NA,incomplete,false,true,NA,5,16,E26_Q2_ansL.png,left,NA,NA,NA,left,1509,true,NA,NA,NA,NA,NA
bxcPIwvU,NA,NA,bxcPIwvU,2020-0188,2021-11-15,15:33:43,16:43:48,NA,incomplete,false,true,NA,5,17,E26_Q9_ansR.png,right,NA,NA,NA,right,2352,true,NA,NA,NA,NA,NA
bxcPIwvU,NA,NA,bxcPIwvU,2020-0188,2021-11-15,15:33:43,16:43:48,NA,incomplete,false,true,NA,5,18,E26_Q8_ansL.png,left,NA,NA,NA,left,2318,true,NA,NA,NA,NA,NA
bxcPIwvU,NA,NA,bxcPIwvU,2020-0188,2021-11-15,15:33:43,16:43:48,NA,incomplete,false,true,NA,5,19,E26_Q4_ansR.png,right,NA,NA,NA,right,1447,true,NA,NA,NA,NA,NA
bxcPIwvU,NA,NA,bxcPIwvU,2020-0188,2021-11-15,15:33:43,16:43:48,NA,incomplete,false,true,NA,5,20,E33_Q9_ansR.png,right,NA,NA,NA,right,2236,true,NA,NA,NA,NA,NA
bxcPIwvU,NA,NA,bxcPIwvU,2020-0188,2021-11-15,15:33:43,16:43:48,NA,incomplete,false,true,NA,5,21,E33_Q7_ansL.png,left,NA,NA,NA,left,2152.99999999953,true,NA,NA,NA,NA,NA
bxcPIwvU,NA,NA,bxcPIwvU,2020-0188,2021-11-15,15:33:43,16:43:48,NA,incomplete,false,true,NA,5,22,E33_Q6_ansR.png,right,NA,NA,NA,right,1666.99999999953,true,NA,NA,NA,NA,NA
bxcPIwvU,NA,NA,bxcPIwvU,2020-0188,2021-11-15,15:33:43,16:43:48,NA,incomplete,false,true,NA,5,23,E33_Q10_ansL.png,left,NA,NA,NA,left,3078.99999999953,true,NA,NA,NA,NA,NA
bxcPIwvU,NA,NA,bxcPIwvU,2020-0188,2021-11-15,15:33:43,16:43:48,NA,incomplete,false,true,NA,5,24,E33_Q3_ansR.png,right,NA,NA,NA,left,2970,false,NA,NA,NA,NA,NA
bxcPIwvU,NA,NA,bxcPIwvU,2020-0188,2021-11-15,15:33:43,16:43:48,NA,incomplete,false,true,NA,5,25,E33_Q1_ansL.png,left,NA,NA,NA,left,2161,true,NA,NA,NA,NA,NA
bxcPIwvU,NA,NA,bxcPIwvU,2020-0188,2021-11-15,15:33:43,16:43:48,NA,incomplete,false,true,NA,5,26,E33_Q5_ansR.png,right,NA,NA,NA,none,0,false,NA,NA,NA,NA,NA
bxcPIwvU,NA,NA,bxcPIwvU,2020-0188,2021-11-15,15:33:43,16:43:48,NA,incomplete,false,true,NA,5,27,E33_Q4_ansR.png,right,NA,NA,NA,right,1861,true,NA,NA,NA,NA,NA
bxcPIwvU,NA,NA,bxcPIwvU,2020-0188,2021-11-15,15:33:43,16:43:48,NA,incomplete,false,true,NA,5,28,E33_Q8_ansL.png,left,NA,NA,NA,left,1560,true,NA,NA,NA,NA,NA
bxcPIwvU,NA,NA,bxcPIwvU,2020-0188,2021-11-15,15:33:43,16:43:48,NA,incomplete,false,true,NA,5,29,E33_Q2_ansL.png,left,NA,NA,NA,left,2045.99999999953,true,NA,NA,NA,NA,NA
bxcPIwvU,NA,NA,bxcPIwvU,2020-0188,2021-11-15,15:33:43,16:43:48,NA,incomplete,false,NA,true,5,0,NA,right,E26_Q6_ansR.png,E26_Q10_ansL.png,within,NA,NaN,NA,right,14999,1,1,20349
bxcPIwvU,NA,NA,bxcPIwvU,2020-0188,2021-11-15,15:33:43,16:43:48,NA,incomplete,false,NA,true,5,1,NA,right,E23_Q6_ansR.png,E23_Q10_ansL.png,within,NA,NaN,NA,right,3372,1,0,1601
bxcPIwvU,NA,NA,bxcPIwvU,2020-0188,2021-11-15,15:33:43,16:43:48,NA,incomplete,false,NA,true,5,2,NA,right,E33_Q8_ansL.png,E33_Q1_ansL.png,within,NA,NaN,NA,right,7944,1,1,1009
bxcPIwvU,NA,NA,bxcPIwvU,2020-0188,2021-11-15,15:33:43,16:43:48,NA,incomplete,false,NA,true,5,3,NA,right,E26_Q3_ansR.png,E23_Q6_ansR.png,between,NA,NaN,NA,right,2163,1,2,1248.9999999995343
bxcPIwvU,NA,NA,bxcPIwvU,2020-0188,2021-11-15,15:33:43,16:43:48,NA,incomplete,false,NA,true,5,4,NA,right,E23_Q2_ansL.png,E23_Q8_ansL.png,within,NA,NaN,NA,right,1480,1,1,1701
bxcPIwvU,NA,NA,bxcPIwvU,2020-0188,2021-11-15,15:33:43,16:43:48,NA,incomplete,false,NA,true,5,5,NA,right,E26_Q7_ansL.png,E26_Q5_ansR.png,within,NA,NaN,NA,left,1486,0,1,2073
bxcPIwvU,NA,NA,bxcPIwvU,2020-0188,2021-11-15,15:33:43,16:43:48,NA,incomplete,false,NA,true,5,6,NA,right,E23_Q7_ansL.png,E23_Q4_ansR.png,within,NA,NaN,NA,left,7640,0,1,5432
bxcPIwvU,NA,NA,bxcPIwvU,2020-0188,2021-11-15,15:33:43,16:43:48,NA,incomplete,false,NA,true,5,7,NA,right,E23_Q4_ansR.png,E23_Q2_ansL.png,within,NA,NaN,NA,right,3525.0000000004657,1,1,1010
bxcPIwvU,NA,NA,bxcPIwvU,2020-0188,2021-11-15,15:33:43,16:43:48,NA,incomplete,false,NA,true,5,8,NA,left,E33_Q10_ansL.png,E33_Q5_ansR.png,within,NA,NaN,NA,left,4998,1,1,1067
bxcPIwvU,NA,NA,bxcPIwvU,2020-0188,2021-11-15,15:33:43,16:43:48,NA,incomplete,false,NA,true,5,9,NA,right,E33_Q3_ansR.png,E33_Q7_ansL.png,within,NA,NaN,NA,right,13652,1,1,2343
bxcPIwvU,NA,NA,bxcPIwvU,2020-0188,2021-11-15,15:33:43,16:43:48,NA,incomplete,false,NA,true,5,10,NA,left,E33_Q5_ansR.png,E33_Q2_ansL.png,within,NA,NaN,NA,right,21810.999999999534,0,1,10149
bxcPIwvU,NA,NA,bxcPIwvU,2020-0188,2021-11-15,15:33:43,16:43:48,NA,incomplete,false,NA,true,5,11,NA,right,E26_Q1_ansL.png,E26_Q3_ansR.png,within,NA,NaN,NA,left,1901.0000000004657,0,1,1221
bxcPIwvU,NA,NA,bxcPIwvU,2020-0188,2021-11-15,15:33:43,16:43:48,NA,incomplete,false,NA,true,5,12,NA,left,E23_Q5_ansR.png,E26_Q5_ansR.png,between,NA,NaN,NA,left,5159,1,2,13149
bxcPIwvU,NA,NA,bxcPIwvU,2020-0188,2021-11-15,15:33:43,16:43:48,NA,incomplete,false,NA,true,5,13,NA,right,E33_Q4_ansR.png,E33_Q3_ansR.png,within,NA,NaN,NA,right,5736,1,1,1498
bxcPIwvU,NA,NA,bxcPIwvU,2020-0188,2021-11-15,15:33:43,16:43:48,NA,incomplete,false,NA,true,5,14,NA,left,E26_Q2_ansL.png,E26_Q4_ansR.png,within,NA,NaN,NA,right,1918,0,1,2476
bxcPIwvU,NA,NA,bxcPIwvU,2020-0188,2021-11-15,15:33:43,16:43:48,NA,incomplete,false,NA,true,5,15,NA,left,E26_Q6_ansR.png,E26_Q8_ansL.png,within,NA,NaN,NA,right,8766,0,1,1487
bxcPIwvU,NA,NA,bxcPIwvU,2020-0188,2021-11-15,15:33:43,16:43:48,NA,incomplete,false,NA,true,5,16,NA,right,E23_Q5_ansR.png,E23_Q1_ansL.png,within,NA,NaN,NA,left,2115,0,1,1020
bxcPIwvU,NA,NA,bxcPIwvU,2020-0188,2021-11-15,15:33:43,16:43:48,NA,incomplete,false,NA,true,5,17,NA,left,E26_Q4_ansR.png,E33_Q6_ansR.png,between,NA,NaN,NA,left,5701,1,2,2418
bxcPIwvU,NA,NA,bxcPIwvU,2020-0188,2021-11-15,15:33:43,16:43:48,NA,incomplete,false,NA,true,5,18,NA,left,E26_Q7_ansL.png,E26_Q9_ansR.png,within,NA,NaN,NA,right,2270,0,1,1336.9999999995343
bxcPIwvU,NA,NA,bxcPIwvU,2020-0188,2021-11-15,15:33:43,16:43:48,NA,incomplete,false,NA,true,5,19,NA,right,E23_Q10_ansL.png,E23_Q3_ansR.png,within,NA,NaN,NA,left,7297,0,1,1204
bxcPIwvU,NA,NA,bxcPIwvU,2020-0188,2021-11-15,15:33:43,16:43:48,NA,incomplete,false,NA,true,5,20,NA,right,E33_Q1_ansL.png,E33_Q6_ansR.png,within,NA,NaN,NA,right,31177,1,1,1272
bxcPIwvU,NA,NA,bxcPIwvU,2020-0188,2021-11-15,15:33:43,16:43:48,NA,incomplete,false,NA,true,5,21,NA,left,E26_Q9_ansR.png,E33_Q9_ansR.png,between,NA,NaN,NA,right,8643,0,1,1600
bxcPIwvU,NA,NA,bxcPIwvU,2020-0188,2021-11-15,15:33:43,16:43:48,NA,incomplete,false,NA,true,5,22,NA,left,E23_Q7_ansL.png,E26_Q10_ansL.png,between,NA,NaN,NA,left,3078,1,2,1962
bxcPIwvU,NA,NA,bxcPIwvU,2020-0188,2021-11-15,15:33:43,16:43:48,NA,incomplete,false,NA,true,5,23,NA,left,E26_Q1_ansL.png,E26_Q2_ansL.png,within,NA,NaN,NA,left,1496,1,1,924
bxcPIwvU,NA,NA,bxcPIwvU,2020-0188,2021-11-15,15:33:43,16:43:48,NA,incomplete,false,NA,true,5,24,NA,right,E33_Q7_ansL.png,E26_Q8_ansL.png,between,NA,NaN,NA,left,1307,0,1,894
bxcPIwvU,NA,NA,bxcPIwvU,2020-0188,2021-11-15,15:33:43,16:43:48,NA,incomplete,false,NA,true,5,25,NA,right,E23_Q1_ansL.png,E23_Q9_ansR.png,within,NA,NaN,NA,right,1307,1,1,854
bxcPIwvU,NA,NA,bxcPIwvU,2020-0188,2021-11-15,15:33:43,16:43:48,NA,incomplete,false,NA,true,5,26,NA,right,E33_Q10_ansL.png,E33_Q9_ansR.png,within,NA,NaN,NA,right,2492,1,1,930
bxcPIwvU,NA,NA,bxcPIwvU,2020-0188,2021-11-15,15:33:43,16:43:48,NA,incomplete,false,true,NA,6,0,E29_Q7_ansL.png,left,NA,NA,NA,left,2389.99999999953,true,NA,NA,NA,NA,NA
bxcPIwvU,NA,NA,bxcPIwvU,2020-0188,2021-11-15,15:33:43,16:43:48,NA,incomplete,false,true,NA,6,1,E29_Q2_ansL.png,left,NA,NA,NA,left,1843.99999999953,true,NA,NA,NA,NA,NA
bxcPIwvU,NA,NA,bxcPIwvU,2020-0188,2021-11-15,15:33:43,16:43:48,NA,incomplete,false,true,NA,6,2,E29_Q6_ansR.png,right,NA,NA,NA,right,1821,true,NA,NA,NA,NA,NA
bxcPIwvU,NA,NA,bxcPIwvU,2020-0188,2021-11-15,15:33:43,16:43:48,NA,incomplete,false,true,NA,6,3,E29_Q10_ansL.png,left,NA,NA,NA,left,1791,true,NA,NA,NA,NA,NA
bxcPIwvU,NA,NA,bxcPIwvU,2020-0188,2021-11-15,15:33:43,16:43:48,NA,incomplete,false,true,NA,6,4,E29_Q9_ansR.png,right,NA,NA,NA,right,2240,true,NA,NA,NA,NA,NA
bxcPIwvU,NA,NA,bxcPIwvU,2020-0188,2021-11-15,15:33:43,16:43:48,NA,incomplete,false,true,NA,6,5,E29_Q8_ansL.png,left,NA,NA,NA,left,2026.00000000047,true,NA,NA,NA,NA,NA
bxcPIwvU,NA,NA,bxcPIwvU,2020-0188,2021-11-15,15:33:43,16:43:48,NA,incomplete,false,true,NA,6,6,E29_Q3_ansR.png,right,NA,NA,NA,right,1631,true,NA,NA,NA,NA,NA
bxcPIwvU,NA,NA,bxcPIwvU,2020-0188,2021-11-15,15:33:43,16:43:48,NA,incomplete,false,true,NA,6,7,E29_Q1_ansL.png,left,NA,NA,NA,left,2003,true,NA,NA,NA,NA,NA
bxcPIwvU,NA,NA,bxcPIwvU,2020-0188,2021-11-15,15:33:43,16:43:48,NA,incomplete,false,true,NA,6,8,E29_Q4_ansR.png,right,NA,NA,NA,right,1795,true,NA,NA,NA,NA,NA
bxcPIwvU,NA,NA,bxcPIwvU,2020-0188,2021-11-15,15:33:43,16:43:48,NA,incomplete,false,true,NA,6,9,E29_Q5_ansR.png,right,NA,NA,NA,right,1949,true,NA,NA,NA,NA,NA
bxcPIwvU,NA,NA,bxcPIwvU,2020-0188,2021-11-15,15:33:43,16:43:48,NA,incomplete,false,true,NA,6,10,E8_Q3_ansL.png,left,NA,NA,NA,left,3244,true,NA,NA,NA,NA,NA
bxcPIwvU,NA,NA,bxcPIwvU,2020-0188,2021-11-15,15:33:43,16:43:48,NA,incomplete,false,true,NA,6,11,E8_Q1_ansR.png,right,NA,NA,NA,right,2586,true,NA,NA,NA,NA,NA
bxcPIwvU,NA,NA,bxcPIwvU,2020-0188,2021-11-15,15:33:43,16:43:48,NA,incomplete,false,true,NA,6,12,E8_Q7_ansR.png,right,NA,NA,NA,right,3204,true,NA,NA,NA,NA,NA
bxcPIwvU,NA,NA,bxcPIwvU,2020-0188,2021-11-15,15:33:43,16:43:48,NA,incomplete,false,true,NA,6,13,E8_Q9_ansL.png,left,NA,NA,NA,left,2493,true,NA,NA,NA,NA,NA
bxcPIwvU,NA,NA,bxcPIwvU,2020-0188,2021-11-15,15:33:43,16:43:48,NA,incomplete,false,true,NA,6,14,E8_Q2_ansR.png,right,NA,NA,NA,right,3145.00000000047,true,NA,NA,NA,NA,NA
bxcPIwvU,NA,NA,bxcPIwvU,2020-0188,2021-11-15,15:33:43,16:43:48,NA,incomplete,false,true,NA,6,15,E8_Q10_ansR.png,right,NA,NA,NA,right,2803,true,NA,NA,NA,NA,NA
bxcPIwvU,NA,NA,bxcPIwvU,2020-0188,2021-11-15,15:33:43,16:43:48,NA,incomplete,false,true,NA,6,16,E8_Q5_ansL.png,left,NA,NA,NA,left,2065,true,NA,NA,NA,NA,NA
bxcPIwvU,NA,NA,bxcPIwvU,2020-0188,2021-11-15,15:33:43,16:43:48,NA,incomplete,false,true,NA,6,17,E8_Q4_ansL.png,left,NA,NA,NA,left,1601,true,NA,NA,NA,NA,NA
bxcPIwvU,NA,NA,bxcPIwvU,2020-0188,2021-11-15,15:33:43,16:43:48,NA,incomplete,false,true,NA,6,18,E8_Q6_ansL.png,left,NA,NA,NA,left,1518,true,NA,NA,NA,NA,NA
bxcPIwvU,NA,NA,bxcPIwvU,2020-0188,2021-11-15,15:33:43,16:43:48,NA,incomplete,false,true,NA,6,19,E8_Q8_ansR.png,right,NA,NA,NA,right,1627,true,NA,NA,NA,NA,NA
bxcPIwvU,NA,NA,bxcPIwvU,2020-0188,2021-11-15,15:33:43,16:43:48,NA,incomplete,false,true,NA,6,20,E13_Q1_ansL.png,left,NA,NA,NA,left,1511,true,NA,NA,NA,NA,NA
bxcPIwvU,NA,NA,bxcPIwvU,2020-0188,2021-11-15,15:33:43,16:43:48,NA,incomplete,false,true,NA,6,21,E13_Q5_ansR.png,right,NA,NA,NA,right,1880,true,NA,NA,NA,NA,NA
bxcPIwvU,NA,NA,bxcPIwvU,2020-0188,2021-11-15,15:33:43,16:43:48,NA,incomplete,false,true,NA,6,22,E13_Q2_ansL.png,left,NA,NA,NA,left,1795,true,NA,NA,NA,NA,NA
bxcPIwvU,NA,NA,bxcPIwvU,2020-0188,2021-11-15,15:33:43,16:43:48,NA,incomplete,false,true,NA,6,23,E13_Q7_ansL.png,left,NA,NA,NA,left,1452,true,NA,NA,NA,NA,NA
bxcPIwvU,NA,NA,bxcPIwvU,2020-0188,2021-11-15,15:33:43,16:43:48,NA,incomplete,false,true,NA,6,24,E13_Q3_ansR.png,right,NA,NA,NA,right,2088,true,NA,NA,NA,NA,NA
bxcPIwvU,NA,NA,bxcPIwvU,2020-0188,2021-11-15,15:33:43,16:43:48,NA,incomplete,false,true,NA,6,25,E13_Q10_ansL.png,left,NA,NA,NA,left,2657,true,NA,NA,NA,NA,NA
bxcPIwvU,NA,NA,bxcPIwvU,2020-0188,2021-11-15,15:33:43,16:43:48,NA,incomplete,false,true,NA,6,26,E13_Q8_ansL.png,left,NA,NA,NA,left,2485,true,NA,NA,NA,NA,NA
bxcPIwvU,NA,NA,bxcPIwvU,2020-0188,2021-11-15,15:33:43,16:43:48,NA,incomplete,false,true,NA,6,27,E13_Q4_ansR.png,right,NA,NA,NA,right,2862,true,NA,NA,NA,NA,NA
bxcPIwvU,NA,NA,bxcPIwvU,2020-0188,2021-11-15,15:33:43,16:43:48,NA,incomplete,false,true,NA,6,28,E13_Q6_ansR.png,right,NA,NA,NA,right,1458,true,NA,NA,NA,NA,NA
bxcPIwvU,NA,NA,bxcPIwvU,2020-0188,2021-11-15,15:33:43,16:43:48,NA,incomplete,false,true,NA,6,29,E13_Q9_ansR.png,right,NA,NA,NA,right,1560,true,NA,NA,NA,NA,NA
bxcPIwvU,NA,NA,bxcPIwvU,2020-0188,2021-11-15,15:33:43,16:43:48,NA,incomplete,false,NA,true,6,0,NA,right,E8_Q7_ansR.png,E29_Q5_ansR.png,between,NA,NaN,NA,right,2698,1,2,1326
bxcPIwvU,NA,NA,bxcPIwvU,2020-0188,2021-11-15,15:33:43,16:43:48,NA,incomplete,false,NA,true,6,1,NA,right,E13_Q6_ansR.png,E13_Q10_ansL.png,within,NA,NaN,NA,right,11570,1,1,695.9999999995343
bxcPIwvU,NA,NA,bxcPIwvU,2020-0188,2021-11-15,15:33:43,16:43:48,NA,incomplete,false,NA,true,6,2,NA,right,E13_Q2_ansL.png,E8_Q8_ansR.png,between,NA,NaN,NA,left,4416,0,2,2218
bxcPIwvU,NA,NA,bxcPIwvU,2020-0188,2021-11-15,15:33:43,16:43:48,NA,incomplete,false,NA,true,6,3,NA,right,E29_Q1_ansL.png,E29_Q9_ansR.png,within,NA,NaN,NA,left,1307,0,1,1413
bxcPIwvU,NA,NA,bxcPIwvU,2020-0188,2021-11-15,15:33:43,16:43:48,NA,incomplete,false,NA,true,6,4,NA,right,E13_Q5_ansR.png,E8_Q6_ansL.png,between,NA,NaN,NA,right,3560,1,2,1876
bxcPIwvU,NA,NA,bxcPIwvU,2020-0188,2021-11-15,15:33:43,16:43:48,NA,incomplete,false,NA,true,6,5,NA,right,E13_Q4_ansR.png,E13_Q3_ansR.png,within,NA,NaN,NA,left,3001,0,1,909
bxcPIwvU,NA,NA,bxcPIwvU,2020-0188,2021-11-15,15:33:43,16:43:48,NA,incomplete,false,NA,true,6,6,NA,left,E13_Q2_ansL.png,E13_Q10_ansL.png,within,NA,NaN,NA,left,1919,1,1,802
bxcPIwvU,NA,NA,bxcPIwvU,2020-0188,2021-11-15,15:33:43,16:43:48,NA,incomplete,false,NA,true,6,7,NA,left,E8_Q3_ansL.png,E8_Q9_ansL.png,within,NA,NaN,NA,left,1200,1,1,2895
bxcPIwvU,NA,NA,bxcPIwvU,2020-0188,2021-11-15,15:33:43,16:43:48,NA,incomplete,false,NA,true,6,8,NA,left,E29_Q2_ansL.png,E29_Q9_ansR.png,within,NA,NaN,NA,left,1935,1,1,936.0000000004657
bxcPIwvU,NA,NA,bxcPIwvU,2020-0188,2021-11-15,15:33:43,16:43:48,NA,incomplete,false,NA,true,6,9,NA,left,E29_Q7_ansL.png,E29_Q10_ansL.png,within,NA,NaN,NA,left,984.0000000004657,1,1,888
bxcPIwvU,NA,NA,bxcPIwvU,2020-0188,2021-11-15,15:33:43,16:43:48,NA,incomplete,false,NA,true,6,10,NA,left,E29_Q6_ansR.png,E29_Q8_ansL.png,within,NA,NaN,NA,left,1122,1,1,1105
bxcPIwvU,NA,NA,bxcPIwvU,2020-0188,2021-11-15,15:33:43,16:43:48,NA,incomplete,false,NA,true,6,11,NA,right,E8_Q6_ansL.png,E8_Q10_ansR.png,within,NA,NaN,NA,left,2020,0,1,1486
bxcPIwvU,NA,NA,bxcPIwvU,2020-0188,2021-11-15,15:33:43,16:43:48,NA,incomplete,false,NA,true,6,12,NA,left,E8_Q2_ansR.png,E8_Q4_ansL.png,within,NA,NaN,NA,left,2157.0000000004657,1,1,1149
bxcPIwvU,NA,NA,bxcPIwvU,2020-0188,2021-11-15,15:33:43,16:43:48,NA,incomplete,false,NA,true,6,13,NA,left,E29_Q10_ansL.png,E29_Q3_ansR.png,within,NA,NaN,NA,left,1901.9999999995343,1,1,796
bxcPIwvU,NA,NA,bxcPIwvU,2020-0188,2021-11-15,15:33:43,16:43:48,NA,incomplete,false,NA,true,6,14,NA,right,E8_Q10_ansR.png,E8_Q7_ansR.png,within,NA,NaN,NA,right,1512,1,1,1326
bxcPIwvU,NA,NA,bxcPIwvU,2020-0188,2021-11-15,15:33:43,16:43:48,NA,incomplete,false,NA,true,6,15,NA,right,E8_Q5_ansL.png,E8_Q9_ansL.png,within,NA,NaN,NA,right,2507,1,0,1879
bxcPIwvU,NA,NA,bxcPIwvU,2020-0188,2021-11-15,15:33:43,16:43:48,NA,incomplete,false,NA,true,6,16,NA,right,E8_Q2_ansR.png,E8_Q1_ansR.png,within,NA,NaN,NA,left,4839,0,1,1351
bxcPIwvU,NA,NA,bxcPIwvU,2020-0188,2021-11-15,15:33:43,16:43:48,NA,incomplete,false,NA,true,6,17,NA,right,E13_Q3_ansR.png,E13_Q5_ansR.png,within,NA,NaN,NA,right,1465.0000000004657,1,1,1200.0000000004657
bxcPIwvU,NA,NA,bxcPIwvU,2020-0188,2021-11-15,15:33:43,16:43:48,NA,incomplete,false,NA,true,6,18,NA,right,E29_Q5_ansR.png,E29_Q3_ansR.png,within,NA,NaN,NA,left,2474,0,1,851
bxcPIwvU,NA,NA,bxcPIwvU,2020-0188,2021-11-15,15:33:43,16:43:48,NA,incomplete,false,NA,true,6,19,NA,left,E13_Q1_ansL.png,E13_Q7_ansL.png,within,NA,NaN,NA,right,1840.9999999995343,0,1,1037
bxcPIwvU,NA,NA,bxcPIwvU,2020-0188,2021-11-15,15:33:43,16:43:48,NA,incomplete,false,NA,true,6,20,NA,left,E29_Q4_ansR.png,E8_Q1_ansR.png,between,NA,NaN,NA,left,1295,1,2,1797
bxcPIwvU,NA,NA,bxcPIwvU,2020-0188,2021-11-15,15:33:43,16:43:48,NA,incomplete,false,NA,true,6,21,NA,left,E13_Q7_ansL.png,E13_Q8_ansL.png,within,NA,NaN,NA,left,2417,1,1,947
bxcPIwvU,NA,NA,bxcPIwvU,2020-0188,2021-11-15,15:33:43,16:43:48,NA,incomplete,false,NA,true,6,22,NA,right,E13_Q9_ansR.png,E13_Q8_ansL.png,within,NA,NaN,NA,right,2225,1,1,1602.9999999995343
bxcPIwvU,NA,NA,bxcPIwvU,2020-0188,2021-11-15,15:33:43,16:43:48,NA,incomplete,false,NA,true,6,23,NA,left,E8_Q5_ansL.png,E8_Q8_ansR.png,within,NA,NaN,NA,right,4409,0,1,808
bxcPIwvU,NA,NA,bxcPIwvU,2020-0188,2021-11-15,15:33:43,16:43:48,NA,incomplete,false,NA,true,6,24,NA,right,E29_Q4_ansR.png,E29_Q8_ansL.png,within,NA,NaN,NA,left,1105.9999999995343,0,1,1127
bxcPIwvU,NA,NA,bxcPIwvU,2020-0188,2021-11-15,15:33:43,16:43:48,NA,incomplete,false,NA,true,6,25,NA,right,E8_Q3_ansL.png,E29_Q1_ansL.png,between,NA,NaN,NA,right,1798.9999999995343,1,2,1520
bxcPIwvU,NA,NA,bxcPIwvU,2020-0188,2021-11-15,15:33:43,16:43:48,NA,incomplete,false,NA,true,6,26,NA,right,E13_Q1_ansL.png,E8_Q4_ansL.png,between,NA,NaN,NA,right,3332,1,2,3639
bxcPIwvU,NA,NA,bxcPIwvU,2020-0188,2021-11-15,15:33:43,16:43:48,NA,incomplete,false,true,NA,7,0,E30_Q2_ansL.png,left,NA,NA,NA,left,2696,true,NA,NA,NA,NA,NA
bxcPIwvU,NA,NA,bxcPIwvU,2020-0188,2021-11-15,15:33:43,16:43:48,NA,incomplete,false,true,NA,7,1,E30_Q9_ansL.png,left,NA,NA,NA,left,3315,true,NA,NA,NA,NA,NA
bxcPIwvU,NA,NA,bxcPIwvU,2020-0188,2021-11-15,15:33:43,16:43:48,NA,incomplete,false,true,NA,7,2,E30_Q1_ansL.png,left,NA,NA,NA,left,1810.00000000047,true,NA,NA,NA,NA,NA
bxcPIwvU,NA,NA,bxcPIwvU,2020-0188,2021-11-15,15:33:43,16:43:48,NA,incomplete,false,true,NA,7,3,E30_Q8_ansL.png,left,NA,NA,NA,right,2799,false,NA,NA,NA,NA,NA
bxcPIwvU,NA,NA,bxcPIwvU,2020-0188,2021-11-15,15:33:43,16:43:48,NA,incomplete,false,true,NA,7,4,E30_Q3_ansL.png,left,NA,NA,NA,left,1852,true,NA,NA,NA,NA,NA
bxcPIwvU,NA,NA,bxcPIwvU,2020-0188,2021-11-15,15:33:43,16:43:48,NA,incomplete,false,true,NA,7,5,E30_Q6_ansR.png,right,NA,NA,NA,right,1908,true,NA,NA,NA,NA,NA
bxcPIwvU,NA,NA,bxcPIwvU,2020-0188,2021-11-15,15:33:43,16:43:48,NA,incomplete,false,true,NA,7,6,E30_Q7_ansL.png,left,NA,NA,NA,right,2354,false,NA,NA,NA,NA,NA
bxcPIwvU,NA,NA,bxcPIwvU,2020-0188,2021-11-15,15:33:43,16:43:48,NA,incomplete,false,true,NA,7,7,E30_Q10_ansR.png,right,NA,NA,NA,right,2871,true,NA,NA,NA,NA,NA
bxcPIwvU,NA,NA,bxcPIwvU,2020-0188,2021-11-15,15:33:43,16:43:48,NA,incomplete,false,true,NA,7,8,E30_Q5_ansR.png,right,NA,NA,NA,right,2587,true,NA,NA,NA,NA,NA
bxcPIwvU,NA,NA,bxcPIwvU,2020-0188,2021-11-15,15:33:43,16:43:48,NA,incomplete,false,true,NA,7,9,E30_Q4_ansL.png,left,NA,NA,NA,left,2585,true,NA,NA,NA,NA,NA
bxcPIwvU,NA,NA,bxcPIwvU,2020-0188,2021-11-15,15:33:43,16:43:48,NA,incomplete,false,true,NA,7,10,E24_Q10_ansR.png,right,NA,NA,NA,right,1950,true,NA,NA,NA,NA,NA
bxcPIwvU,NA,NA,bxcPIwvU,2020-0188,2021-11-15,15:33:43,16:43:48,NA,incomplete,false,true,NA,7,11,E24_Q6_ansL.png,left,NA,NA,NA,left,1290,true,NA,NA,NA,NA,NA
bxcPIwvU,NA,NA,bxcPIwvU,2020-0188,2021-11-15,15:33:43,16:43:48,NA,incomplete,false,true,NA,7,12,E24_Q3_ansL.png,left,NA,NA,NA,left,2323,true,NA,NA,NA,NA,NA
bxcPIwvU,NA,NA,bxcPIwvU,2020-0188,2021-11-15,15:33:43,16:43:48,NA,incomplete,false,true,NA,7,13,E24_Q8_ansR.png,right,NA,NA,NA,right,1365,true,NA,NA,NA,NA,NA
bxcPIwvU,NA,NA,bxcPIwvU,2020-0188,2021-11-15,15:33:43,16:43:48,NA,incomplete,false,true,NA,7,14,E24_Q9_ansL.png,left,NA,NA,NA,left,1700,true,NA,NA,NA,NA,NA
bxcPIwvU,NA,NA,bxcPIwvU,2020-0188,2021-11-15,15:33:43,16:43:48,NA,incomplete,false,true,NA,7,15,E24_Q1_ansR.png,right,NA,NA,NA,right,2046,true,NA,NA,NA,NA,NA
bxcPIwvU,NA,NA,bxcPIwvU,2020-0188,2021-11-15,15:33:43,16:43:48,NA,incomplete,false,true,NA,7,16,E24_Q5_ansL.png,left,NA,NA,NA,left,2097,true,NA,NA,NA,NA,NA
bxcPIwvU,NA,NA,bxcPIwvU,2020-0188,2021-11-15,15:33:43,16:43:48,NA,incomplete,false,true,NA,7,17,E24_Q7_ansR.png,right,NA,NA,NA,right,1588,true,NA,NA,NA,NA,NA
bxcPIwvU,NA,NA,bxcPIwvU,2020-0188,2021-11-15,15:33:43,16:43:48,NA,incomplete,false,true,NA,7,18,E24_Q4_ansL.png,left,NA,NA,NA,left,2431,true,NA,NA,NA,NA,NA
bxcPIwvU,NA,NA,bxcPIwvU,2020-0188,2021-11-15,15:33:43,16:43:48,NA,incomplete,false,true,NA,7,19,E24_Q2_ansR.png,right,NA,NA,NA,none,0,false,NA,NA,NA,NA,NA
bxcPIwvU,NA,NA,bxcPIwvU,2020-0188,2021-11-15,15:33:43,16:43:48,NA,incomplete,false,true,NA,7,20,E17_Q8_ansL.png,left,NA,NA,NA,left,1103,true,NA,NA,NA,NA,NA
bxcPIwvU,NA,NA,bxcPIwvU,2020-0188,2021-11-15,15:33:43,16:43:48,NA,incomplete,false,true,NA,7,21,E17_Q3_ansR.png,right,NA,NA,NA,right,1496,true,NA,NA,NA,NA,NA
bxcPIwvU,NA,NA,bxcPIwvU,2020-0188,2021-11-15,15:33:43,16:43:48,NA,incomplete,false,true,NA,7,22,E17_Q1_ansL.png,left,NA,NA,NA,left,1527.99999999953,true,NA,NA,NA,NA,NA
bxcPIwvU,NA,NA,bxcPIwvU,2020-0188,2021-11-15,15:33:43,16:43:48,NA,incomplete,false,true,NA,7,23,E17_Q5_ansR.png,right,NA,NA,NA,right,2741,true,NA,NA,NA,NA,NA
bxcPIwvU,NA,NA,bxcPIwvU,2020-0188,2021-11-15,15:33:43,16:43:48,NA,incomplete,false,true,NA,7,24,E17_Q2_ansL.png,left,NA,NA,NA,left,2212,true,NA,NA,NA,NA,NA
bxcPIwvU,NA,NA,bxcPIwvU,2020-0188,2021-11-15,15:33:43,16:43:48,NA,incomplete,false,true,NA,7,25,E17_Q10_ansL.png,left,NA,NA,NA,left,2068,true,NA,NA,NA,NA,NA
bxcPIwvU,NA,NA,bxcPIwvU,2020-0188,2021-11-15,15:33:43,16:43:48,NA,incomplete,false,true,NA,7,26,E17_Q6_ansR.png,right,NA,NA,NA,right,1372,true,NA,NA,NA,NA,NA
bxcPIwvU,NA,NA,bxcPIwvU,2020-0188,2021-11-15,15:33:43,16:43:48,NA,incomplete,false,true,NA,7,27,E17_Q9_ansR.png,right,NA,NA,NA,right,1613,true,NA,NA,NA,NA,NA
bxcPIwvU,NA,NA,bxcPIwvU,2020-0188,2021-11-15,15:33:43,16:43:48,NA,incomplete,false,true,NA,7,28,E17_Q7_ansL.png,left,NA,NA,NA,left,3125,true,NA,NA,NA,NA,NA
bxcPIwvU,NA,NA,bxcPIwvU,2020-0188,2021-11-15,15:33:43,16:43:48,NA,incomplete,false,true,NA,7,29,E17_Q4_ansR.png,right,NA,NA,NA,right,1558,true,NA,NA,NA,NA,NA
bxcPIwvU,NA,NA,bxcPIwvU,2020-0188,2021-11-15,15:33:43,16:43:48,NA,incomplete,false,NA,true,7,0,NA,left,E24_Q3_ansL.png,E24_Q1_ansR.png,within,NA,NaN,NA,right,3255,0,1,3185
bxcPIwvU,NA,NA,bxcPIwvU,2020-0188,2021-11-15,15:33:43,16:43:48,NA,incomplete,false,NA,true,7,1,NA,left,E17_Q2_ansL.png,E17_Q9_ansR.png,within,NA,NaN,NA,left,2767,1,0,783
bxcPIwvU,NA,NA,bxcPIwvU,2020-0188,2021-11-15,15:33:43,16:43:48,NA,incomplete,false,NA,true,7,2,NA,right,E30_Q4_ansL.png,E30_Q7_ansL.png,within,NA,NaN,NA,right,2874,1,1,1284
bxcPIwvU,NA,NA,bxcPIwvU,2020-0188,2021-11-15,15:33:43,16:43:48,NA,incomplete,false,NA,true,7,3,NA,right,E24_Q7_ansR.png,E24_Q9_ansL.png,within,NA,NaN,NA,left,1893,0,1,813
bxcPIwvU,NA,NA,bxcPIwvU,2020-0188,2021-11-15,15:33:43,16:43:48,NA,incomplete,false,NA,true,7,4,NA,left,E24_Q6_ansL.png,E24_Q9_ansL.png,within,NA,NaN,NA,left,1557,1,1,919.9999999995343
bxcPIwvU,NA,NA,bxcPIwvU,2020-0188,2021-11-15,15:33:43,16:43:48,NA,incomplete,false,NA,true,7,5,NA,left,E17_Q10_ansL.png,E17_Q7_ansL.png,within,NA,NaN,NA,left,2831,1,1,1234
bxcPIwvU,NA,NA,bxcPIwvU,2020-0188,2021-11-15,15:33:43,16:43:48,NA,incomplete,false,NA,true,7,6,NA,left,E24_Q5_ansL.png,E24_Q2_ansR.png,within,NA,NaN,NA,left,1976.9999999995343,1,1,875
bxcPIwvU,NA,NA,bxcPIwvU,2020-0188,2021-11-15,15:33:43,16:43:48,NA,incomplete,false,NA,true,7,7,NA,right,E30_Q3_ansL.png,E30_Q9_ansL.png,within,NA,NaN,NA,right,3325,1,1,730
bxcPIwvU,NA,NA,bxcPIwvU,2020-0188,2021-11-15,15:33:43,16:43:48,NA,incomplete,false,NA,true,7,8,NA,right,E30_Q6_ansR.png,E30_Q1_ansL.png,within,NA,NaN,NA,right,5159.999999999534,1,1,699
bxcPIwvU,NA,NA,bxcPIwvU,2020-0188,2021-11-15,15:33:43,16:43:48,NA,incomplete,false,NA,true,7,9,NA,right,E17_Q4_ansR.png,E17_Q6_ansR.png,within,NA,NaN,NA,right,2669,1,1,836
bxcPIwvU,NA,NA,bxcPIwvU,2020-0188,2021-11-15,15:33:43,16:43:48,NA,incomplete,false,NA,true,7,10,NA,right,E24_Q10_ansR.png,E30_Q10_ansR.png,between,NA,NaN,NA,left,1784,0,2,1267
bxcPIwvU,NA,NA,bxcPIwvU,2020-0188,2021-11-15,15:33:43,16:43:48,NA,incomplete,false,NA,true,7,11,NA,right,E24_Q4_ansL.png,E24_Q1_ansR.png,within,NA,NaN,NA,right,2434,1,1,1777.0000000004657
bxcPIwvU,NA,NA,bxcPIwvU,2020-0188,2021-11-15,15:33:43,16:43:48,NA,incomplete,false,NA,true,7,12,NA,left,E17_Q1_ansL.png,E17_Q10_ansL.png,within,NA,NaN,NA,right,3093,0,1,1550
bxcPIwvU,NA,NA,bxcPIwvU,2020-0188,2021-11-15,15:33:43,16:43:48,NA,incomplete,false,NA,true,7,13,NA,left,E24_Q10_ansR.png,E24_Q8_ansR.png,within,NA,NaN,NA,left,2858,1,1,908
bxcPIwvU,NA,NA,bxcPIwvU,2020-0188,2021-11-15,15:33:43,16:43:48,NA,incomplete,false,NA,true,7,14,NA,right,E17_Q8_ansL.png,E24_Q7_ansR.png,between,NA,NaN,NA,right,1581.9999999995343,1,2,1937
bxcPIwvU,NA,NA,bxcPIwvU,2020-0188,2021-11-15,15:33:43,16:43:48,NA,incomplete,false,NA,true,7,15,NA,left,E24_Q4_ansL.png,E17_Q3_ansR.png,between,NA,NaN,NA,left,1881,1,2,1395
bxcPIwvU,NA,NA,bxcPIwvU,2020-0188,2021-11-15,15:33:43,16:43:48,NA,incomplete,false,NA,true,7,16,NA,right,E30_Q10_ansR.png,E30_Q3_ansL.png,within,NA,NaN,NA,right,4534.000000000466,1,1,1103
bxcPIwvU,NA,NA,bxcPIwvU,2020-0188,2021-11-15,15:33:43,16:43:48,NA,incomplete,false,NA,true,7,17,NA,left,E30_Q2_ansL.png,E30_Q8_ansL.png,within,NA,NaN,NA,left,1943,1,0,970
bxcPIwvU,NA,NA,bxcPIwvU,2020-0188,2021-11-15,15:33:43,16:43:48,NA,incomplete,false,NA,true,7,18,NA,right,E17_Q5_ansR.png,E17_Q8_ansL.png,within,NA,NaN,NA,right,2383,1,1,810
bxcPIwvU,NA,NA,bxcPIwvU,2020-0188,2021-11-15,15:33:43,16:43:48,NA,incomplete,false,NA,true,7,19,NA,right,E30_Q7_ansL.png,E30_Q8_ansL.png,within,NA,NaN,NA,right,1760,1,0,1006
bxcPIwvU,NA,NA,bxcPIwvU,2020-0188,2021-11-15,15:33:43,16:43:48,NA,incomplete,false,NA,true,7,20,NA,right,E24_Q5_ansL.png,E24_Q8_ansR.png,within,NA,NaN,NA,left,1537,0,0,1782
bxcPIwvU,NA,NA,bxcPIwvU,2020-0188,2021-11-15,15:33:43,16:43:48,NA,incomplete,false,NA,true,7,21,NA,left,E17_Q3_ansR.png,E17_Q2_ansL.png,within,NA,NaN,NA,left,2382,1,1,976
bxcPIwvU,NA,NA,bxcPIwvU,2020-0188,2021-11-15,15:33:43,16:43:48,NA,incomplete,false,NA,true,7,22,NA,left,E30_Q4_ansL.png,E24_Q3_ansL.png,between,NA,NaN,NA,right,2332,0,1,1072.0000000004657
bxcPIwvU,NA,NA,bxcPIwvU,2020-0188,2021-11-15,15:33:43,16:43:48,NA,incomplete,false,NA,true,7,23,NA,left,E17_Q5_ansR.png,E17_Q6_ansR.png,within,NA,NaN,NA,right,4152,0,1,2399
bxcPIwvU,NA,NA,bxcPIwvU,2020-0188,2021-11-15,15:33:43,16:43:48,NA,incomplete,false,NA,true,7,24,NA,left,E30_Q5_ansR.png,E24_Q6_ansL.png,between,NA,NaN,NA,right,1170,0,2,1203
bxcPIwvU,NA,NA,bxcPIwvU,2020-0188,2021-11-15,15:33:43,16:43:48,NA,incomplete,false,NA,true,7,25,NA,left,E30_Q6_ansR.png,E30_Q5_ansR.png,within,NA,NaN,NA,right,1580,0,1,1221
bxcPIwvU,NA,NA,bxcPIwvU,2020-0188,2021-11-15,15:33:43,16:43:48,NA,incomplete,false,NA,true,7,26,NA,right,E17_Q1_ansL.png,E24_Q2_ansR.png,between,NA,NaN,NA,right,2282,1,1,908
bxcPIwvU,NA,NA,bxcPIwvU,2020-0188,2021-11-15,15:33:43,16:43:48,NA,incomplete,false,true,NA,8,0,E20_Q10_ansL.png,left,NA,NA,NA,left,2412,true,NA,NA,NA,NA,NA
bxcPIwvU,NA,NA,bxcPIwvU,2020-0188,2021-11-15,15:33:43,16:43:48,NA,incomplete,false,true,NA,8,1,E20_Q8_ansL.png,left,NA,NA,NA,left,1737,true,NA,NA,NA,NA,NA
bxcPIwvU,NA,NA,bxcPIwvU,2020-0188,2021-11-15,15:33:43,16:43:48,NA,incomplete,false,true,NA,8,2,E20_Q7_ansL.png,left,NA,NA,NA,left,1683,true,NA,NA,NA,NA,NA
bxcPIwvU,NA,NA,bxcPIwvU,2020-0188,2021-11-15,15:33:43,16:43:48,NA,incomplete,false,true,NA,8,3,E20_Q4_ansR.png,right,NA,NA,NA,right,1763,true,NA,NA,NA,NA,NA
bxcPIwvU,NA,NA,bxcPIwvU,2020-0188,2021-11-15,15:33:43,16:43:48,NA,incomplete,false,true,NA,8,4,E20_Q1_ansL.png,left,NA,NA,NA,left,3193,true,NA,NA,NA,NA,NA
bxcPIwvU,NA,NA,bxcPIwvU,2020-0188,2021-11-15,15:33:43,16:43:48,NA,incomplete,false,true,NA,8,5,E20_Q9_ansR.png,right,NA,NA,NA,right,2024,true,NA,NA,NA,NA,NA
bxcPIwvU,NA,NA,bxcPIwvU,2020-0188,2021-11-15,15:33:43,16:43:48,NA,incomplete,false,true,NA,8,6,E20_Q5_ansR.png,right,NA,NA,NA,right,2571,true,NA,NA,NA,NA,NA
bxcPIwvU,NA,NA,bxcPIwvU,2020-0188,2021-11-15,15:33:43,16:43:48,NA,incomplete,false,true,NA,8,7,E20_Q2_ansL.png,left,NA,NA,NA,left,2756.00000000047,true,NA,NA,NA,NA,NA
bxcPIwvU,NA,NA,bxcPIwvU,2020-0188,2021-11-15,15:33:43,16:43:48,NA,incomplete,false,true,NA,8,8,E20_Q6_ansR.png,right,NA,NA,NA,right,2522,true,NA,NA,NA,NA,NA
bxcPIwvU,NA,NA,bxcPIwvU,2020-0188,2021-11-15,15:33:43,16:43:48,NA,incomplete,false,true,NA,8,9,E20_Q3_ansR.png,right,NA,NA,NA,right,2513,true,NA,NA,NA,NA,NA
bxcPIwvU,NA,NA,bxcPIwvU,2020-0188,2021-11-15,15:33:43,16:43:48,NA,incomplete,false,true,NA,8,10,E28_Q4_ansL.png,left,NA,NA,NA,left,2194,true,NA,NA,NA,NA,NA
bxcPIwvU,NA,NA,bxcPIwvU,2020-0188,2021-11-15,15:33:43,16:43:48,NA,incomplete,false,true,NA,8,11,E28_Q10_ansR.png,right,NA,NA,NA,right,2065,true,NA,NA,NA,NA,NA
bxcPIwvU,NA,NA,bxcPIwvU,2020-0188,2021-11-15,15:33:43,16:43:48,NA,incomplete,false,true,NA,8,12,E28_Q9_ansL.png,left,NA,NA,NA,left,2877,true,NA,NA,NA,NA,NA
bxcPIwvU,NA,NA,bxcPIwvU,2020-0188,2021-11-15,15:33:43,16:43:48,NA,incomplete,false,true,NA,8,13,E28_Q5_ansL.png,left,NA,NA,NA,left,1991,true,NA,NA,NA,NA,NA
bxcPIwvU,NA,NA,bxcPIwvU,2020-0188,2021-11-15,15:33:43,16:43:48,NA,incomplete,false,true,NA,8,14,E28_Q2_ansR.png,right,NA,NA,NA,right,1806,true,NA,NA,NA,NA,NA
bxcPIwvU,NA,NA,bxcPIwvU,2020-0188,2021-11-15,15:33:43,16:43:48,NA,incomplete,false,true,NA,8,15,E28_Q8_ansR.png,right,NA,NA,NA,right,1694,true,NA,NA,NA,NA,NA
bxcPIwvU,NA,NA,bxcPIwvU,2020-0188,2021-11-15,15:33:43,16:43:48,NA,incomplete,false,true,NA,8,16,E28_Q6_ansL.png,left,NA,NA,NA,left,1787,true,NA,NA,NA,NA,NA
bxcPIwvU,NA,NA,bxcPIwvU,2020-0188,2021-11-15,15:33:43,16:43:48,NA,incomplete,false,true,NA,8,17,E28_Q1_ansR.png,right,NA,NA,NA,right,1869.00000000047,true,NA,NA,NA,NA,NA
bxcPIwvU,NA,NA,bxcPIwvU,2020-0188,2021-11-15,15:33:43,16:43:48,NA,incomplete,false,true,NA,8,18,E28_Q3_ansL.png,left,NA,NA,NA,left,1941,true,NA,NA,NA,NA,NA
bxcPIwvU,NA,NA,bxcPIwvU,2020-0188,2021-11-15,15:33:43,16:43:48,NA,incomplete,false,true,NA,8,19,E28_Q7_ansR.png,right,NA,NA,NA,right,2196,true,NA,NA,NA,NA,NA
bxcPIwvU,NA,NA,bxcPIwvU,2020-0188,2021-11-15,15:33:43,16:43:48,NA,incomplete,false,true,NA,8,20,E25_Q9_ansL.png,left,NA,NA,NA,left,2779.99999999953,true,NA,NA,NA,NA,NA
bxcPIwvU,NA,NA,bxcPIwvU,2020-0188,2021-11-15,15:33:43,16:43:48,NA,incomplete,false,true,NA,8,21,E25_Q2_ansR.png,right,NA,NA,NA,right,1401.00000000047,true,NA,NA,NA,NA,NA
bxcPIwvU,NA,NA,bxcPIwvU,2020-0188,2021-11-15,15:33:43,16:43:48,NA,incomplete,false,true,NA,8,22,E25_Q5_ansL.png,left,NA,NA,NA,left,2223,true,NA,NA,NA,NA,NA
bxcPIwvU,NA,NA,bxcPIwvU,2020-0188,2021-11-15,15:33:43,16:43:48,NA,incomplete,false,true,NA,8,23,E25_Q8_ansR.png,right,NA,NA,NA,right,2136,true,NA,NA,NA,NA,NA
bxcPIwvU,NA,NA,bxcPIwvU,2020-0188,2021-11-15,15:33:43,16:43:48,NA,incomplete,false,true,NA,8,24,E25_Q1_ansR.png,right,NA,NA,NA,right,1808,true,NA,NA,NA,NA,NA
bxcPIwvU,NA,NA,bxcPIwvU,2020-0188,2021-11-15,15:33:43,16:43:48,NA,incomplete,false,true,NA,8,25,E25_Q4_ansL.png,left,NA,NA,NA,left,1929,true,NA,NA,NA,NA,NA
bxcPIwvU,NA,NA,bxcPIwvU,2020-0188,2021-11-15,15:33:43,16:43:48,NA,incomplete,false,true,NA,8,26,E25_Q10_ansR.png,right,NA,NA,NA,right,1887,true,NA,NA,NA,NA,NA
bxcPIwvU,NA,NA,bxcPIwvU,2020-0188,2021-11-15,15:33:43,16:43:48,NA,incomplete,false,true,NA,8,27,E25_Q3_ansL.png,left,NA,NA,NA,left,2140.00000000047,true,NA,NA,NA,NA,NA
bxcPIwvU,NA,NA,bxcPIwvU,2020-0188,2021-11-15,15:33:43,16:43:48,NA,incomplete,false,true,NA,8,28,E25_Q6_ansL.png,left,NA,NA,NA,left,1506,true,NA,NA,NA,NA,NA
bxcPIwvU,NA,NA,bxcPIwvU,2020-0188,2021-11-15,15:33:43,16:43:48,NA,incomplete,false,true,NA,8,29,E25_Q7_ansR.png,right,NA,NA,NA,right,2642,true,NA,NA,NA,NA,NA
bxcPIwvU,NA,NA,bxcPIwvU,2020-0188,2021-11-15,15:33:43,16:43:48,NA,incomplete,false,NA,true,8,0,NA,left,E28_Q4_ansL.png,E28_Q5_ansL.png,within,NA,NaN,NA,left,2908,1,1,1158.0000000004657
bxcPIwvU,NA,NA,bxcPIwvU,2020-0188,2021-11-15,15:33:43,16:43:48,NA,incomplete,false,NA,true,8,1,NA,right,E25_Q5_ansL.png,E28_Q7_ansR.png,between,NA,NaN,NA,right,12523,1,2,1732
bxcPIwvU,NA,NA,bxcPIwvU,2020-0188,2021-11-15,15:33:43,16:43:48,NA,incomplete,false,NA,true,8,2,NA,right,E28_Q6_ansL.png,E28_Q5_ansL.png,within,NA,NaN,NA,left,2594.9999999995343,0,1,1256
bxcPIwvU,NA,NA,bxcPIwvU,2020-0188,2021-11-15,15:33:43,16:43:48,NA,incomplete,false,NA,true,8,3,NA,left,E25_Q1_ansR.png,E25_Q3_ansL.png,within,NA,NaN,NA,left,4395.999999999534,1,1,1313.9999999995343
bxcPIwvU,NA,NA,bxcPIwvU,2020-0188,2021-11-15,15:33:43,16:43:48,NA,incomplete,false,NA,true,8,4,NA,right,E20_Q1_ansL.png,E20_Q8_ansL.png,within,NA,NaN,NA,right,6156.000000000466,1,1,830.9999999995343
bxcPIwvU,NA,NA,bxcPIwvU,2020-0188,2021-11-15,15:33:43,16:43:48,NA,incomplete,false,NA,true,8,5,NA,left,E20_Q5_ansR.png,E20_Q3_ansR.png,within,NA,NaN,NA,left,3384.9999999995343,1,1,1552.9999999995343
bxcPIwvU,NA,NA,bxcPIwvU,2020-0188,2021-11-15,15:33:43,16:43:48,NA,incomplete,false,NA,true,8,6,NA,left,E28_Q10_ansR.png,E28_Q2_ansR.png,within,NA,NaN,NA,right,1929,0,1,878
bxcPIwvU,NA,NA,bxcPIwvU,2020-0188,2021-11-15,15:33:43,16:43:48,NA,incomplete,false,NA,true,8,7,NA,left,E20_Q2_ansL.png,E28_Q4_ansL.png,between,NA,NaN,NA,left,1183,1,1,893.9999999995343
bxcPIwvU,NA,NA,bxcPIwvU,2020-0188,2021-11-15,15:33:43,16:43:48,NA,incomplete,false,NA,true,8,8,NA,left,E28_Q1_ansR.png,E25_Q9_ansL.png,between,NA,NaN,NA,left,3887.0000000004657,1,2,3156
bxcPIwvU,NA,NA,bxcPIwvU,2020-0188,2021-11-15,15:33:43,16:43:48,NA,incomplete,false,NA,true,8,9,NA,right,E25_Q10_ansR.png,E25_Q8_ansR.png,within,NA,NaN,NA,right,4349.999999999534,1,1,1018
bxcPIwvU,NA,NA,bxcPIwvU,2020-0188,2021-11-15,15:33:43,16:43:48,NA,incomplete,false,NA,true,8,10,NA,left,E25_Q5_ansL.png,E25_Q4_ansL.png,within,NA,NaN,NA,right,2459,0,1,833
bxcPIwvU,NA,NA,bxcPIwvU,2020-0188,2021-11-15,15:33:43,16:43:48,NA,incomplete,false,NA,true,8,11,NA,left,E20_Q7_ansL.png,E20_Q9_ansR.png,within,NA,NaN,NA,right,3934,0,1,830.9999999995343
bxcPIwvU,NA,NA,bxcPIwvU,2020-0188,2021-11-15,15:33:43,16:43:48,NA,incomplete,false,NA,true,8,12,NA,left,E28_Q6_ansL.png,E28_Q7_ansR.png,within,NA,NaN,NA,right,2640,0,1,1560
bxcPIwvU,NA,NA,bxcPIwvU,2020-0188,2021-11-15,15:33:43,16:43:48,NA,incomplete,false,NA,true,8,13,NA,left,E20_Q10_ansL.png,E20_Q4_ansR.png,within,NA,NaN,NA,left,938.9999999995343,1,1,1067
bxcPIwvU,NA,NA,bxcPIwvU,2020-0188,2021-11-15,15:33:43,16:43:48,NA,incomplete,false,NA,true,8,14,NA,right,E28_Q10_ansR.png,E20_Q6_ansR.png,between,NA,NaN,NA,right,1469,1,2,1748
bxcPIwvU,NA,NA,bxcPIwvU,2020-0188,2021-11-15,15:33:43,16:43:48,NA,incomplete,false,NA,true,8,15,NA,left,E20_Q4_ansR.png,E20_Q5_ansR.png,within,NA,NaN,NA,right,1172,0,1,835
bxcPIwvU,NA,NA,bxcPIwvU,2020-0188,2021-11-15,15:33:43,16:43:48,NA,incomplete,false,NA,true,8,16,NA,right,E20_Q6_ansR.png,E20_Q9_ansR.png,within,NA,NaN,NA,left,1783,0,1,1619
bxcPIwvU,NA,NA,bxcPIwvU,2020-0188,2021-11-15,15:33:43,16:43:48,NA,incomplete,false,NA,true,8,17,NA,right,E28_Q9_ansL.png,E20_Q3_ansR.png,between,NA,NaN,NA,right,3471,1,1,785
bxcPIwvU,NA,NA,bxcPIwvU,2020-0188,2021-11-15,15:33:43,16:43:48,NA,incomplete,false,NA,true,8,18,NA,left,E20_Q1_ansL.png,E20_Q2_ansL.png,within,NA,NaN,NA,right,2217,0,1,816
bxcPIwvU,NA,NA,bxcPIwvU,2020-0188,2021-11-15,15:33:43,16:43:48,NA,incomplete,false,NA,true,8,19,NA,right,E25_Q7_ansR.png,E25_Q10_ansR.png,within,NA,NaN,NA,left,1649,0,1,1199
bxcPIwvU,NA,NA,bxcPIwvU,2020-0188,2021-11-15,15:33:43,16:43:48,NA,incomplete,false,NA,true,8,20,NA,left,E28_Q9_ansL.png,E28_Q8_ansR.png,within,NA,NaN,NA,left,1837,1,1,1899
bxcPIwvU,NA,NA,bxcPIwvU,2020-0188,2021-11-15,15:33:43,16:43:48,NA,incomplete,false,NA,true,8,21,NA,right,E25_Q8_ansR.png,E25_Q9_ansL.png,within,NA,NaN,NA,right,1362,1,1,725
bxcPIwvU,NA,NA,bxcPIwvU,2020-0188,2021-11-15,15:33:43,16:43:48,NA,incomplete,false,NA,true,8,22,NA,right,E28_Q3_ansL.png,E28_Q8_ansR.png,within,NA,NaN,NA,right,1752.9999999995343,1,1,846
bxcPIwvU,NA,NA,bxcPIwvU,2020-0188,2021-11-15,15:33:43,16:43:48,NA,incomplete,false,NA,true,8,23,NA,left,E28_Q2_ansR.png,E28_Q1_ansR.png,within,NA,NaN,NA,left,4727.999999999534,1,1,1197.9999999995343
bxcPIwvU,NA,NA,bxcPIwvU,2020-0188,2021-11-15,15:33:43,16:43:48,NA,incomplete,false,NA,true,8,24,NA,left,E28_Q3_ansL.png,E25_Q2_ansR.png,between,NA,NaN,NA,left,1818,1,1,755
bxcPIwvU,NA,NA,bxcPIwvU,2020-0188,2021-11-15,15:33:43,16:43:48,NA,incomplete,false,NA,true,8,25,NA,right,E25_Q6_ansL.png,E25_Q4_ansL.png,within,NA,NaN,NA,right,1622,1,1,882
bxcPIwvU,NA,NA,bxcPIwvU,2020-0188,2021-11-15,15:33:43,16:43:48,NA,incomplete,false,NA,true,8,26,NA,left,E25_Q2_ansR.png,E25_Q1_ansR.png,within,NA,NaN,NA,left,1387,1,1,1069
bxcPIwvU,NA,NA,bxcPIwvU,2020-0188,2021-11-15,15:33:43,16:43:48,NA,incomplete,false,true,NA,9,0,E2_Q3_ansR.png,right,NA,NA,NA,right,3259,true,NA,NA,NA,NA,NA
bxcPIwvU,NA,NA,bxcPIwvU,2020-0188,2021-11-15,15:33:43,16:43:48,NA,incomplete,false,true,NA,9,1,E2_Q5_ansL.png,left,NA,NA,NA,left,1741,true,NA,NA,NA,NA,NA
bxcPIwvU,NA,NA,bxcPIwvU,2020-0188,2021-11-15,15:33:43,16:43:48,NA,incomplete,false,true,NA,9,2,E2_Q7_ansR.png,right,NA,NA,NA,right,1632,true,NA,NA,NA,NA,NA
bxcPIwvU,NA,NA,bxcPIwvU,2020-0188,2021-11-15,15:33:43,16:43:48,NA,incomplete,false,true,NA,9,3,E2_Q8_ansR.png,right,NA,NA,NA,right,2066,true,NA,NA,NA,NA,NA
bxcPIwvU,NA,NA,bxcPIwvU,2020-0188,2021-11-15,15:33:43,16:43:48,NA,incomplete,false,true,NA,9,4,E2_Q10_ansL.png,left,NA,NA,NA,left,2058,true,NA,NA,NA,NA,NA
bxcPIwvU,NA,NA,bxcPIwvU,2020-0188,2021-11-15,15:33:43,16:43:48,NA,incomplete,false,true,NA,9,5,E2_Q9_ansL.png,left,NA,NA,NA,left,3270,true,NA,NA,NA,NA,NA
bxcPIwvU,NA,NA,bxcPIwvU,2020-0188,2021-11-15,15:33:43,16:43:48,NA,incomplete,false,true,NA,9,6,E2_Q4_ansL.png,left,NA,NA,NA,left,1448,true,NA,NA,NA,NA,NA
bxcPIwvU,NA,NA,bxcPIwvU,2020-0188,2021-11-15,15:33:43,16:43:48,NA,incomplete,false,true,NA,9,7,E2_Q1_ansL.png,left,NA,NA,NA,left,2317,true,NA,NA,NA,NA,NA
bxcPIwvU,NA,NA,bxcPIwvU,2020-0188,2021-11-15,15:33:43,16:43:48,NA,incomplete,false,true,NA,9,8,E2_Q6_ansL.png,left,NA,NA,NA,left,2633,true,NA,NA,NA,NA,NA
bxcPIwvU,NA,NA,bxcPIwvU,2020-0188,2021-11-15,15:33:43,16:43:48,NA,incomplete,false,true,NA,9,9,E2_Q2_ansR.png,right,NA,NA,NA,right,2451,true,NA,NA,NA,NA,NA
bxcPIwvU,NA,NA,bxcPIwvU,2020-0188,2021-11-15,15:33:43,16:43:48,NA,incomplete,false,true,NA,9,10,E19_Q2_ansL.png,left,NA,NA,NA,left,1147,true,NA,NA,NA,NA,NA
bxcPIwvU,NA,NA,bxcPIwvU,2020-0188,2021-11-15,15:33:43,16:43:48,NA,incomplete,false,true,NA,9,11,E19_Q3_ansR.png,right,NA,NA,NA,right,1742.99999999953,true,NA,NA,NA,NA,NA
bxcPIwvU,NA,NA,bxcPIwvU,2020-0188,2021-11-15,15:33:43,16:43:48,NA,incomplete,false,true,NA,9,12,E19_Q6_ansR.png,right,NA,NA,NA,right,1461,true,NA,NA,NA,NA,NA
bxcPIwvU,NA,NA,bxcPIwvU,2020-0188,2021-11-15,15:33:43,16:43:48,NA,incomplete,false,true,NA,9,13,E19_Q1_ansL.png,left,NA,NA,NA,left,1245.00000000047,true,NA,NA,NA,NA,NA
bxcPIwvU,NA,NA,bxcPIwvU,2020-0188,2021-11-15,15:33:43,16:43:48,NA,incomplete,false,true,NA,9,14,E19_Q4_ansR.png,right,NA,NA,NA,right,1829.99999999953,true,NA,NA,NA,NA,NA
bxcPIwvU,NA,NA,bxcPIwvU,2020-0188,2021-11-15,15:33:43,16:43:48,NA,incomplete,false,true,NA,9,15,E19_Q8_ansL.png,left,NA,NA,NA,left,1597,true,NA,NA,NA,NA,NA
bxcPIwvU,NA,NA,bxcPIwvU,2020-0188,2021-11-15,15:33:43,16:43:48,NA,incomplete,false,true,NA,9,16,E19_Q7_ansL.png,left,NA,NA,NA,left,2188.00000000047,true,NA,NA,NA,NA,NA
bxcPIwvU,NA,NA,bxcPIwvU,2020-0188,2021-11-15,15:33:43,16:43:48,NA,incomplete,false,true,NA,9,17,E19_Q9_ansR.png,right,NA,NA,NA,right,2720.00000000047,true,NA,NA,NA,NA,NA
bxcPIwvU,NA,NA,bxcPIwvU,2020-0188,2021-11-15,15:33:43,16:43:48,NA,incomplete,false,true,NA,9,18,E19_Q5_ansR.png,right,NA,NA,NA,right,1420.00000000047,true,NA,NA,NA,NA,NA
bxcPIwvU,NA,NA,bxcPIwvU,2020-0188,2021-11-15,15:33:43,16:43:48,NA,incomplete,false,true,NA,9,19,E19_Q10_ansL.png,left,NA,NA,NA,left,1991,true,NA,NA,NA,NA,NA
bxcPIwvU,NA,NA,bxcPIwvU,2020-0188,2021-11-15,15:33:43,16:43:48,NA,incomplete,false,true,NA,9,20,E3_Q8_ansL.png,left,NA,NA,NA,left,1530,true,NA,NA,NA,NA,NA
bxcPIwvU,NA,NA,bxcPIwvU,2020-0188,2021-11-15,15:33:43,16:43:48,NA,incomplete,false,true,NA,9,21,E3_Q5_ansR.png,right,NA,NA,NA,right,1255,true,NA,NA,NA,NA,NA
bxcPIwvU,NA,NA,bxcPIwvU,2020-0188,2021-11-15,15:33:43,16:43:48,NA,incomplete,false,true,NA,9,22,E3_Q10_ansR.png,right,NA,NA,NA,right,1735,true,NA,NA,NA,NA,NA
bxcPIwvU,NA,NA,bxcPIwvU,2020-0188,2021-11-15,15:33:43,16:43:48,NA,incomplete,false,true,NA,9,23,E3_Q6_ansR.png,right,NA,NA,NA,right,1871,true,NA,NA,NA,NA,NA
bxcPIwvU,NA,NA,bxcPIwvU,2020-0188,2021-11-15,15:33:43,16:43:48,NA,incomplete,false,true,NA,9,24,E3_Q3_ansR.png,right,NA,NA,NA,right,1703,true,NA,NA,NA,NA,NA
bxcPIwvU,NA,NA,bxcPIwvU,2020-0188,2021-11-15,15:33:43,16:43:48,NA,incomplete,false,true,NA,9,25,E3_Q9_ansL.png,left,NA,NA,NA,left,1656.99999999953,true,NA,NA,NA,NA,NA
bxcPIwvU,NA,NA,bxcPIwvU,2020-0188,2021-11-15,15:33:43,16:43:48,NA,incomplete,false,true,NA,9,26,E3_Q1_ansR.png,right,NA,NA,NA,right,2191,true,NA,NA,NA,NA,NA
bxcPIwvU,NA,NA,bxcPIwvU,2020-0188,2021-11-15,15:33:43,16:43:48,NA,incomplete,false,true,NA,9,27,E3_Q4_ansL.png,left,NA,NA,NA,left,2207.99999999953,true,NA,NA,NA,NA,NA
bxcPIwvU,NA,NA,bxcPIwvU,2020-0188,2021-11-15,15:33:43,16:43:48,NA,incomplete,false,true,NA,9,28,E3_Q7_ansL.png,left,NA,NA,NA,left,2421,true,NA,NA,NA,NA,NA
bxcPIwvU,NA,NA,bxcPIwvU,2020-0188,2021-11-15,15:33:43,16:43:48,NA,incomplete,false,true,NA,9,29,E3_Q2_ansL.png,left,NA,NA,NA,left,1761,true,NA,NA,NA,NA,NA
bxcPIwvU,NA,NA,bxcPIwvU,2020-0188,2021-11-15,15:33:43,16:43:48,NA,incomplete,false,NA,true,9,0,NA,left,E2_Q1_ansL.png,E19_Q2_ansL.png,between,NA,NaN,NA,right,5582,0,3,2838.9999999995343
bxcPIwvU,NA,NA,bxcPIwvU,2020-0188,2021-11-15,15:33:43,16:43:48,NA,incomplete,false,NA,true,9,1,NA,left,E3_Q1_ansR.png,E3_Q2_ansL.png,within,NA,NaN,NA,right,2727,0,1,4599.000000000466
bxcPIwvU,NA,NA,bxcPIwvU,2020-0188,2021-11-15,15:33:43,16:43:48,NA,incomplete,false,NA,true,9,2,NA,left,E2_Q4_ansL.png,E2_Q2_ansR.png,within,NA,NaN,NA,left,2503.9999999995343,1,1,1373.0000000004657
bxcPIwvU,NA,NA,bxcPIwvU,2020-0188,2021-11-15,15:33:43,16:43:48,NA,incomplete,false,NA,true,9,3,NA,left,E2_Q8_ansR.png,E2_Q4_ansL.png,within,NA,NaN,NA,left,1504.0000000004657,1,1,1165
bxcPIwvU,NA,NA,bxcPIwvU,2020-0188,2021-11-15,15:33:43,16:43:48,NA,incomplete,false,NA,true,9,4,NA,right,E3_Q9_ansL.png,E3_Q10_ansR.png,within,NA,NaN,NA,left,2488,0,1,1236.0000000004657
bxcPIwvU,NA,NA,bxcPIwvU,2020-0188,2021-11-15,15:33:43,16:43:48,NA,incomplete,false,NA,true,9,5,NA,left,E2_Q9_ansL.png,E2_Q6_ansL.png,within,NA,NaN,NA,left,6478,1,1,1290
bxcPIwvU,NA,NA,bxcPIwvU,2020-0188,2021-11-15,15:33:43,16:43:48,NA,incomplete,false,NA,true,9,6,NA,right,E3_Q10_ansR.png,E19_Q10_ansL.png,between,NA,NaN,NA,right,4587,1,1,1600
bxcPIwvU,NA,NA,bxcPIwvU,2020-0188,2021-11-15,15:33:43,16:43:48,NA,incomplete,false,NA,true,9,7,NA,left,E19_Q5_ansR.png,E3_Q5_ansR.png,between,NA,NaN,NA,left,2239,1,2,2431
bxcPIwvU,NA,NA,bxcPIwvU,2020-0188,2021-11-15,15:33:43,16:43:48,NA,incomplete,false,NA,true,9,8,NA,left,E19_Q1_ansL.png,E19_Q7_ansL.png,within,NA,NaN,NA,left,2857,1,1,1270.0000000004657
bxcPIwvU,NA,NA,bxcPIwvU,2020-0188,2021-11-15,15:33:43,16:43:48,NA,incomplete,false,NA,true,9,9,NA,right,E19_Q3_ansR.png,E2_Q6_ansL.png,between,NA,NaN,NA,right,1668,1,2,1659.0000000004657
bxcPIwvU,NA,NA,bxcPIwvU,2020-0188,2021-11-15,15:33:43,16:43:48,NA,incomplete,false,NA,true,9,10,NA,left,E3_Q6_ansR.png,E3_Q1_ansR.png,within,NA,NaN,NA,left,1502,1,1,817
bxcPIwvU,NA,NA,bxcPIwvU,2020-0188,2021-11-15,15:33:43,16:43:48,NA,incomplete,false,NA,true,9,11,NA,right,E2_Q8_ansR.png,E2_Q3_ansR.png,within,NA,NaN,NA,right,4095,1,1,987
bxcPIwvU,NA,NA,bxcPIwvU,2020-0188,2021-11-15,15:33:43,16:43:48,NA,incomplete,false,NA,true,9,12,NA,left,E2_Q10_ansL.png,E2_Q1_ansL.png,within,NA,NaN,NA,left,12425.000000000466,1,1,1000
bxcPIwvU,NA,NA,bxcPIwvU,2020-0188,2021-11-15,15:33:43,16:43:48,NA,incomplete,false,NA,true,9,13,NA,left,E3_Q5_ansR.png,E3_Q3_ansR.png,within,NA,NaN,NA,left,4178,1,1,980
bxcPIwvU,NA,NA,bxcPIwvU,2020-0188,2021-11-15,15:33:43,16:43:48,NA,incomplete,false,NA,true,9,14,NA,left,E2_Q7_ansR.png,E2_Q9_ansL.png,within,NA,NaN,NA,left,7688.000000000466,1,1,1590.9999999995343
bxcPIwvU,NA,NA,bxcPIwvU,2020-0188,2021-11-15,15:33:43,16:43:48,NA,incomplete,false,NA,true,9,15,NA,left,E3_Q3_ansR.png,E3_Q4_ansL.png,within,NA,NaN,NA,left,6137,1,1,853
bxcPIwvU,NA,NA,bxcPIwvU,2020-0188,2021-11-15,15:33:43,16:43:48,NA,incomplete,false,NA,true,9,16,NA,right,E2_Q10_ansL.png,E2_Q5_ansL.png,within,NA,NaN,NA,right,1238,1,1,1002
bxcPIwvU,NA,NA,bxcPIwvU,2020-0188,2021-11-15,15:33:43,16:43:48,NA,incomplete,false,NA,true,9,17,NA,left,E19_Q4_ansR.png,E19_Q9_ansR.png,within,NA,NaN,NA,left,2443,1,1,887
bxcPIwvU,NA,NA,bxcPIwvU,2020-0188,2021-11-15,15:33:43,16:43:48,NA,incomplete,false,NA,true,9,18,NA,right,E3_Q8_ansL.png,E19_Q9_ansR.png,between,NA,NaN,NA,left,2148.9999999995343,0,1,1682
bxcPIwvU,NA,NA,bxcPIwvU,2020-0188,2021-11-15,15:33:43,16:43:48,NA,incomplete,false,NA,true,9,19,NA,left,E19_Q6_ansR.png,E19_Q8_ansL.png,within,NA,NaN,NA,left,3743,1,1,1010
bxcPIwvU,NA,NA,bxcPIwvU,2020-0188,2021-11-15,15:33:43,16:43:48,NA,incomplete,false,NA,true,9,20,NA,right,E19_Q6_ansR.png,E2_Q2_ansR.png,between,NA,NaN,NA,right,1267.0000000004657,1,2,1480
bxcPIwvU,NA,NA,bxcPIwvU,2020-0188,2021-11-15,15:33:43,16:43:48,NA,incomplete,false,NA,true,9,21,NA,right,E19_Q1_ansL.png,E19_Q2_ansL.png,within,NA,NaN,NA,right,1309,1,1,804.0000000004657
bxcPIwvU,NA,NA,bxcPIwvU,2020-0188,2021-11-15,15:33:43,16:43:48,NA,incomplete,false,NA,true,9,22,NA,left,E19_Q3_ansR.png,E19_Q4_ansR.png,within,NA,NaN,NA,left,1106,1,1,2503.0000000004657
bxcPIwvU,NA,NA,bxcPIwvU,2020-0188,2021-11-15,15:33:43,16:43:48,NA,incomplete,false,NA,true,9,23,NA,right,E19_Q5_ansR.png,E19_Q8_ansL.png,within,NA,NaN,NA,left,2039,0,1,1261
bxcPIwvU,NA,NA,bxcPIwvU,2020-0188,2021-11-15,15:33:43,16:43:48,NA,incomplete,false,NA,true,9,24,NA,right,E19_Q10_ansL.png,E19_Q7_ansL.png,within,NA,NaN,NA,left,1233,0,1,824
bxcPIwvU,NA,NA,bxcPIwvU,2020-0188,2021-11-15,15:33:43,16:43:48,NA,incomplete,false,NA,true,9,25,NA,right,E3_Q7_ansL.png,E3_Q9_ansL.png,within,NA,NaN,NA,left,3468.0000000004657,0,1,1896
bxcPIwvU,NA,NA,bxcPIwvU,2020-0188,2021-11-15,15:33:43,16:43:48,NA,incomplete,false,NA,true,9,26,NA,left,E3_Q8_ansL.png,E3_Q6_ansR.png,within,NA,NaN,NA,left,3347,1,1,937.0000000004657
bxcPIwvU,NA,NA,bxcPIwvU,2020-0188,2021-11-15,15:33:43,16:43:48,NA,incomplete,false,true,NA,10,0,E5_Q1_ansL.png,left,NA,NA,NA,left,1707.00000000047,true,NA,NA,NA,NA,NA
bxcPIwvU,NA,NA,bxcPIwvU,2020-0188,2021-11-15,15:33:43,16:43:48,NA,incomplete,false,true,NA,10,1,E5_Q6_ansR.png,right,NA,NA,NA,right,1925,true,NA,NA,NA,NA,NA
bxcPIwvU,NA,NA,bxcPIwvU,2020-0188,2021-11-15,15:33:43,16:43:48,NA,incomplete,false,true,NA,10,2,E5_Q9_ansR.png,right,NA,NA,NA,right,1344,true,NA,NA,NA,NA,NA
bxcPIwvU,NA,NA,bxcPIwvU,2020-0188,2021-11-15,15:33:43,16:43:48,NA,incomplete,false,true,NA,10,3,E5_Q7_ansL.png,left,NA,NA,NA,left,2995,true,NA,NA,NA,NA,NA
bxcPIwvU,NA,NA,bxcPIwvU,2020-0188,2021-11-15,15:33:43,16:43:48,NA,incomplete,false,true,NA,10,4,E5_Q4_ansR.png,right,NA,NA,NA,right,1910.99999999953,true,NA,NA,NA,NA,NA
bxcPIwvU,NA,NA,bxcPIwvU,2020-0188,2021-11-15,15:33:43,16:43:48,NA,incomplete,false,true,NA,10,5,E5_Q3_ansR.png,right,NA,NA,NA,right,2339,true,NA,NA,NA,NA,NA
bxcPIwvU,NA,NA,bxcPIwvU,2020-0188,2021-11-15,15:33:43,16:43:48,NA,incomplete,false,true,NA,10,6,E5_Q2_ansL.png,left,NA,NA,NA,left,2038,true,NA,NA,NA,NA,NA
bxcPIwvU,NA,NA,bxcPIwvU,2020-0188,2021-11-15,15:33:43,16:43:48,NA,incomplete,false,true,NA,10,7,E5_Q5_ansR.png,right,NA,NA,NA,right,2869,true,NA,NA,NA,NA,NA
bxcPIwvU,NA,NA,bxcPIwvU,2020-0188,2021-11-15,15:33:43,16:43:48,NA,incomplete,false,true,NA,10,8,E5_Q8_ansL.png,left,NA,NA,NA,left,1981,true,NA,NA,NA,NA,NA
bxcPIwvU,NA,NA,bxcPIwvU,2020-0188,2021-11-15,15:33:43,16:43:48,NA,incomplete,false,true,NA,10,9,E5_Q10_ansR.png,right,NA,NA,NA,right,2190,true,NA,NA,NA,NA,NA
bxcPIwvU,NA,NA,bxcPIwvU,2020-0188,2021-11-15,15:33:43,16:43:48,NA,incomplete,false,true,NA,10,10,E14_Q4_ansR.png,right,NA,NA,NA,right,1674,true,NA,NA,NA,NA,NA
bxcPIwvU,NA,NA,bxcPIwvU,2020-0188,2021-11-15,15:33:43,16:43:48,NA,incomplete,false,true,NA,10,11,E14_Q2_ansL.png,left,NA,NA,NA,left,1482,true,NA,NA,NA,NA,NA
bxcPIwvU,NA,NA,bxcPIwvU,2020-0188,2021-11-15,15:33:43,16:43:48,NA,incomplete,false,true,NA,10,12,E14_Q9_ansR.png,right,NA,NA,NA,right,1764,true,NA,NA,NA,NA,NA
bxcPIwvU,NA,NA,bxcPIwvU,2020-0188,2021-11-15,15:33:43,16:43:48,NA,incomplete,false,true,NA,10,13,E14_Q8_ansL.png,left,NA,NA,NA,left,3385.99999999953,true,NA,NA,NA,NA,NA
bxcPIwvU,NA,NA,bxcPIwvU,2020-0188,2021-11-15,15:33:43,16:43:48,NA,incomplete,false,true,NA,10,14,E14_Q5_ansR.png,right,NA,NA,NA,left,1914.99999999953,false,NA,NA,NA,NA,NA
bxcPIwvU,NA,NA,bxcPIwvU,2020-0188,2021-11-15,15:33:43,16:43:48,NA,incomplete,false,true,NA,10,15,E14_Q1_ansL.png,left,NA,NA,NA,left,1517,true,NA,NA,NA,NA,NA
bxcPIwvU,NA,NA,bxcPIwvU,2020-0188,2021-11-15,15:33:43,16:43:48,NA,incomplete,false,true,NA,10,16,E14_Q3_ansR.png,right,NA,NA,NA,right,1723,true,NA,NA,NA,NA,NA
bxcPIwvU,NA,NA,bxcPIwvU,2020-0188,2021-11-15,15:33:43,16:43:48,NA,incomplete,false,true,NA,10,17,E14_Q10_ansL.png,left,NA,NA,NA,left,1598,true,NA,NA,NA,NA,NA
bxcPIwvU,NA,NA,bxcPIwvU,2020-0188,2021-11-15,15:33:43,16:43:48,NA,incomplete,false,true,NA,10,18,E14_Q6_ansR.png,right,NA,NA,NA,right,1865,true,NA,NA,NA,NA,NA
bxcPIwvU,NA,NA,bxcPIwvU,2020-0188,2021-11-15,15:33:43,16:43:48,NA,incomplete,false,true,NA,10,19,E14_Q7_ansL.png,left,NA,NA,NA,left,1974,true,NA,NA,NA,NA,NA
bxcPIwvU,NA,NA,bxcPIwvU,2020-0188,2021-11-15,15:33:43,16:43:48,NA,incomplete,false,true,NA,10,20,E22_Q1_ansR.png,right,NA,NA,NA,right,2587,true,NA,NA,NA,NA,NA
bxcPIwvU,NA,NA,bxcPIwvU,2020-0188,2021-11-15,15:33:43,16:43:48,NA,incomplete,false,true,NA,10,21,E22_Q3_ansL.png,left,NA,NA,NA,left,1535,true,NA,NA,NA,NA,NA
bxcPIwvU,NA,NA,bxcPIwvU,2020-0188,2021-11-15,15:33:43,16:43:48,NA,incomplete,false,true,NA,10,22,E22_Q9_ansL.png,left,NA,NA,NA,left,2422,true,NA,NA,NA,NA,NA
