workerId,hitId,assignmentId,subject,studyid,exp_date,exp_start,exp_end,time_start,time_end,practice,encoding,memory,block,trial,stim,answer,left_image,right_image,condition,response,response_time,response_acc,order_response,order_response_time,order_acc,distance_response,distance_response_time
C4FgLaFk,NA,NA,C4FgLaFk,2020-0188,2021-09-21,13:52:41,18:59:47,NA,incomplete,true,true,NA,0,0,E30_Q1_ansL.png,left,NA,NA,NA,left,2855.99999999907,true,NA,NA,NA,NA,NA
C4FgLaFk,NA,NA,C4FgLaFk,2020-0188,2021-09-21,13:52:41,18:59:47,NA,incomplete,true,true,NA,0,1,E30_Q4_ansL.png,left,NA,NA,NA,none,0,false,NA,NA,NA,NA,NA
C4FgLaFk,NA,NA,C4FgLaFk,2020-0188,2021-09-21,13:52:41,18:59:47,NA,incomplete,true,true,NA,0,2,E30_Q9_ansL.png,left,NA,NA,NA,left,2050.99999999907,true,NA,NA,NA,NA,NA
C4FgLaFk,NA,NA,C4FgLaFk,2020-0188,2021-09-21,13:52:41,18:59:47,NA,incomplete,true,true,NA,0,3,E30_Q10_ansR.png,right,NA,NA,NA,right,2084.99999999907,true,NA,NA,NA,NA,NA
C4FgLaFk,NA,NA,C4FgLaFk,2020-0188,2021-09-21,13:52:41,18:59:47,NA,incomplete,true,true,NA,0,4,E30_Q6_ansR.png,right,NA,NA,NA,right,1794.99999999907,true,NA,NA,NA,NA,NA
C4FgLaFk,NA,NA,C4FgLaFk,2020-0188,2021-09-21,13:52:41,18:59:47,NA,incomplete,true,true,NA,0,5,E30_Q7_ansL.png,left,NA,NA,NA,right,2661,false,NA,NA,NA,NA,NA
C4FgLaFk,NA,NA,C4FgLaFk,2020-0188,2021-09-21,13:52:41,18:59:47,NA,incomplete,true,true,NA,0,6,E30_Q2_ansL.png,left,NA,NA,NA,right,1621,false,NA,NA,NA,NA,NA
C4FgLaFk,NA,NA,C4FgLaFk,2020-0188,2021-09-21,13:52:41,18:59:47,NA,incomplete,true,true,NA,0,7,E30_Q8_ansL.png,left,NA,NA,NA,right,2384,false,NA,NA,NA,NA,NA
C4FgLaFk,NA,NA,C4FgLaFk,2020-0188,2021-09-21,13:52:41,18:59:47,NA,incomplete,true,true,NA,0,8,E30_Q5_ansR.png,right,NA,NA,NA,right,1903,true,NA,NA,NA,NA,NA
C4FgLaFk,NA,NA,C4FgLaFk,2020-0188,2021-09-21,13:52:41,18:59:47,NA,incomplete,true,true,NA,0,9,E30_Q3_ansL.png,left,NA,NA,NA,left,2644,true,NA,NA,NA,NA,NA
C4FgLaFk,NA,NA,C4FgLaFk,2020-0188,2021-09-21,13:52:41,18:59:47,NA,incomplete,true,true,NA,0,10,E27_Q8_ansL.png,left,NA,NA,NA,left,1341,true,NA,NA,NA,NA,NA
C4FgLaFk,NA,NA,C4FgLaFk,2020-0188,2021-09-21,13:52:41,18:59:47,NA,incomplete,true,true,NA,0,11,E27_Q3_ansR.png,right,NA,NA,NA,right,665,true,NA,NA,NA,NA,NA
C4FgLaFk,NA,NA,C4FgLaFk,2020-0188,2021-09-21,13:52:41,18:59:47,NA,incomplete,true,true,NA,0,12,E27_Q5_ansR.png,right,NA,NA,NA,right,975,true,NA,NA,NA,NA,NA
C4FgLaFk,NA,NA,C4FgLaFk,2020-0188,2021-09-21,13:52:41,18:59:47,NA,incomplete,true,true,NA,0,13,E27_Q2_ansL.png,left,NA,NA,NA,left,761,true,NA,NA,NA,NA,NA
C4FgLaFk,NA,NA,C4FgLaFk,2020-0188,2021-09-21,13:52:41,18:59:47,NA,incomplete,true,true,NA,0,14,E27_Q10_ansL.png,left,NA,NA,NA,left,861,true,NA,NA,NA,NA,NA
C4FgLaFk,NA,NA,C4FgLaFk,2020-0188,2021-09-21,13:52:41,18:59:47,NA,incomplete,true,true,NA,0,15,E27_Q7_ansL.png,left,NA,NA,NA,left,772,true,NA,NA,NA,NA,NA
C4FgLaFk,NA,NA,C4FgLaFk,2020-0188,2021-09-21,13:52:41,18:59:47,NA,incomplete,true,true,NA,0,16,E27_Q6_ansR.png,right,NA,NA,NA,right,1211,true,NA,NA,NA,NA,NA
C4FgLaFk,NA,NA,C4FgLaFk,2020-0188,2021-09-21,13:52:41,18:59:47,NA,incomplete,true,true,NA,0,17,E27_Q4_ansR.png,right,NA,NA,NA,right,864,true,NA,NA,NA,NA,NA
C4FgLaFk,NA,NA,C4FgLaFk,2020-0188,2021-09-21,13:52:41,18:59:47,NA,incomplete,true,true,NA,0,18,E27_Q1_ansL.png,left,NA,NA,NA,left,1106,true,NA,NA,NA,NA,NA
C4FgLaFk,NA,NA,C4FgLaFk,2020-0188,2021-09-21,13:52:41,18:59:47,NA,incomplete,true,true,NA,0,19,E27_Q9_ansR.png,right,NA,NA,NA,right,951,true,NA,NA,NA,NA,NA
C4FgLaFk,NA,NA,C4FgLaFk,2020-0188,2021-09-21,13:52:41,18:59:47,NA,incomplete,true,true,NA,0,20,E5_Q5_ansR.png,right,NA,NA,NA,right,1889,true,NA,NA,NA,NA,NA
C4FgLaFk,NA,NA,C4FgLaFk,2020-0188,2021-09-21,13:52:41,18:59:47,NA,incomplete,true,true,NA,0,21,E5_Q6_ansR.png,right,NA,NA,NA,right,1652,true,NA,NA,NA,NA,NA
C4FgLaFk,NA,NA,C4FgLaFk,2020-0188,2021-09-21,13:52:41,18:59:47,NA,incomplete,true,true,NA,0,22,E5_Q4_ansR.png,right,NA,NA,NA,right,1014,true,NA,NA,NA,NA,NA
C4FgLaFk,NA,NA,C4FgLaFk,2020-0188,2021-09-21,13:52:41,18:59:47,NA,incomplete,true,true,NA,0,23,E5_Q3_ansR.png,right,NA,NA,NA,right,956.000000000931,true,NA,NA,NA,NA,NA
C4FgLaFk,NA,NA,C4FgLaFk,2020-0188,2021-09-21,13:52:41,18:59:47,NA,incomplete,true,true,NA,0,24,E5_Q10_ansR.png,right,NA,NA,NA,right,1254.00000000093,true,NA,NA,NA,NA,NA
C4FgLaFk,NA,NA,C4FgLaFk,2020-0188,2021-09-21,13:52:41,18:59:47,NA,incomplete,true,true,NA,0,25,E5_Q2_ansL.png,left,NA,NA,NA,left,1024,true,NA,NA,NA,NA,NA
C4FgLaFk,NA,NA,C4FgLaFk,2020-0188,2021-09-21,13:52:41,18:59:47,NA,incomplete,true,true,NA,0,26,E5_Q8_ansL.png,left,NA,NA,NA,left,1186,true,NA,NA,NA,NA,NA
C4FgLaFk,NA,NA,C4FgLaFk,2020-0188,2021-09-21,13:52:41,18:59:47,NA,incomplete,true,true,NA,0,27,E5_Q9_ansR.png,right,NA,NA,NA,right,1152,true,NA,NA,NA,NA,NA
C4FgLaFk,NA,NA,C4FgLaFk,2020-0188,2021-09-21,13:52:41,18:59:47,NA,incomplete,true,true,NA,0,28,E5_Q1_ansL.png,left,NA,NA,NA,left,1095,true,NA,NA,NA,NA,NA
C4FgLaFk,NA,NA,C4FgLaFk,2020-0188,2021-09-21,13:52:41,18:59:47,NA,incomplete,true,true,NA,0,29,E5_Q7_ansL.png,left,NA,NA,NA,left,2126,true,NA,NA,NA,NA,NA
C4FgLaFk,NA,NA,C4FgLaFk,2020-0188,2021-09-21,13:52:41,18:59:47,NA,incomplete,true,NA,true,0,0,NA,left,E30_Q9_ansL.png,E30_Q7_ansL.png,within,NA,NaN,NA,left,4057,1,2,12032.000000000931
C4FgLaFk,NA,NA,C4FgLaFk,2020-0188,2021-09-21,13:52:41,18:59:47,NA,incomplete,true,NA,true,0,1,NA,left,E30_Q10_ansR.png,E30_Q2_ansL.png,within,NA,NaN,NA,left,3609,1,2,4604.000000000931
C4FgLaFk,NA,NA,C4FgLaFk,2020-0188,2021-09-21,13:52:41,18:59:47,NA,incomplete,true,NA,true,0,2,NA,right,E27_Q3_ansR.png,E30_Q5_ansR.png,between,NA,NaN,NA,right,3586.9999999990687,1,2,1546.9999999990687
C4FgLaFk,NA,NA,C4FgLaFk,2020-0188,2021-09-21,13:52:41,18:59:47,NA,incomplete,true,NA,true,0,3,NA,left,E27_Q3_ansR.png,E27_Q10_ansL.png,within,NA,NaN,NA,left,3155,1,2,1797
C4FgLaFk,NA,NA,C4FgLaFk,2020-0188,2021-09-21,13:52:41,18:59:47,NA,incomplete,true,NA,true,0,4,NA,left,E27_Q5_ansR.png,E27_Q7_ansL.png,within,NA,NaN,NA,right,4284,0,1,2322
C4FgLaFk,NA,NA,C4FgLaFk,2020-0188,2021-09-21,13:52:41,18:59:47,NA,incomplete,true,NA,true,0,5,NA,right,E5_Q1_ansL.png,E5_Q2_ansL.png,within,NA,NaN,NA,left,5215.999999999069,0,1,3411
C4FgLaFk,NA,NA,C4FgLaFk,2020-0188,2021-09-21,13:52:41,18:59:47,NA,incomplete,true,NA,true,0,6,NA,right,E30_Q3_ansL.png,E30_Q2_ansL.png,within,NA,NaN,NA,left,6242.000000000931,0,1,1032
C4FgLaFk,NA,NA,C4FgLaFk,2020-0188,2021-09-21,13:52:41,18:59:47,NA,incomplete,true,NA,true,0,7,NA,left,E5_Q4_ansR.png,E5_Q2_ansL.png,within,NA,NaN,NA,right,2074.9999999990687,0,2,2934.0000000009313
C4FgLaFk,NA,NA,C4FgLaFk,2020-0188,2021-09-21,13:52:41,18:59:47,NA,incomplete,true,NA,true,0,8,NA,left,E5_Q8_ansL.png,E5_Q7_ansL.png,within,NA,NaN,NA,left,2456,1,1,1628
C4FgLaFk,NA,NA,C4FgLaFk,2020-0188,2021-09-21,13:52:41,18:59:47,NA,incomplete,true,NA,true,0,9,NA,left,E27_Q7_ansL.png,E27_Q1_ansL.png,within,NA,NaN,NA,left,2989.0000000009313,1,1,2957
C4FgLaFk,NA,NA,C4FgLaFk,2020-0188,2021-09-21,13:52:41,18:59:47,NA,incomplete,true,NA,true,0,10,NA,right,E30_Q8_ansL.png,E30_Q6_ansR.png,within,NA,NaN,NA,left,7083.000000000931,0,1,1096.0000000009313
C4FgLaFk,NA,NA,C4FgLaFk,2020-0188,2021-09-21,13:52:41,18:59:47,NA,incomplete,true,NA,true,0,11,NA,right,E5_Q8_ansL.png,E5_Q3_ansR.png,within,NA,NaN,NA,right,1875,1,1,1017
C4FgLaFk,NA,NA,C4FgLaFk,2020-0188,2021-09-21,13:52:41,18:59:47,NA,incomplete,true,NA,true,0,12,NA,right,E27_Q6_ansR.png,E27_Q2_ansL.png,within,NA,NaN,NA,left,5376,0,0,1042
C4FgLaFk,NA,NA,C4FgLaFk,2020-0188,2021-09-21,13:52:41,18:59:47,NA,incomplete,true,NA,true,0,13,NA,right,E5_Q3_ansR.png,E5_Q5_ansR.png,within,NA,NaN,NA,right,1979,1,0,2432
C4FgLaFk,NA,NA,C4FgLaFk,2020-0188,2021-09-21,13:52:41,18:59:47,NA,incomplete,true,NA,true,0,14,NA,left,E5_Q6_ansR.png,E5_Q10_ansR.png,within,NA,NaN,NA,left,4364,1,1,914
C4FgLaFk,NA,NA,C4FgLaFk,2020-0188,2021-09-21,13:52:41,18:59:47,NA,incomplete,true,NA,true,0,15,NA,left,E30_Q3_ansL.png,E27_Q5_ansR.png,between,NA,NaN,NA,left,4744,1,2,1215
C4FgLaFk,NA,NA,C4FgLaFk,2020-0188,2021-09-21,13:52:41,18:59:47,NA,incomplete,true,NA,true,0,16,NA,right,E30_Q10_ansR.png,E30_Q1_ansL.png,within,NA,NaN,NA,right,4339,1,0,1439
C4FgLaFk,NA,NA,C4FgLaFk,2020-0188,2021-09-21,13:52:41,18:59:47,NA,incomplete,true,NA,true,0,17,NA,right,E27_Q4_ansR.png,E27_Q10_ansL.png,within,NA,NaN,NA,right,2551,1,1,2322
C4FgLaFk,NA,NA,C4FgLaFk,2020-0188,2021-09-21,13:52:41,18:59:47,NA,incomplete,true,NA,true,0,18,NA,left,E30_Q7_ansL.png,E30_Q5_ansR.png,within,NA,NaN,NA,left,9288,1,1,970
C4FgLaFk,NA,NA,C4FgLaFk,2020-0188,2021-09-21,13:52:41,18:59:47,NA,incomplete,true,NA,true,0,19,NA,right,E27_Q2_ansL.png,E27_Q8_ansL.png,within,NA,NaN,NA,right,4883.000000000931,1,1,1192
C4FgLaFk,NA,NA,C4FgLaFk,2020-0188,2021-09-21,13:52:41,18:59:47,NA,incomplete,true,NA,true,0,20,NA,left,E27_Q9_ansR.png,E5_Q4_ansR.png,between,NA,NaN,NA,left,3043,1,1,5743
C4FgLaFk,NA,NA,C4FgLaFk,2020-0188,2021-09-21,13:52:41,18:59:47,NA,incomplete,true,NA,true,0,21,NA,left,E27_Q1_ansL.png,E5_Q6_ansR.png,between,NA,NaN,NA,left,4634,1,2,1056
C4FgLaFk,NA,NA,C4FgLaFk,2020-0188,2021-09-21,13:52:41,18:59:47,NA,incomplete,true,NA,true,0,22,NA,right,E5_Q5_ansR.png,E27_Q4_ansR.png,between,NA,NaN,NA,right,3631.9999999990687,1,2,1169.9999999990687
C4FgLaFk,NA,NA,C4FgLaFk,2020-0188,2021-09-21,13:52:41,18:59:47,NA,incomplete,true,NA,true,0,23,NA,left,E27_Q6_ansR.png,E27_Q9_ansR.png,within,NA,NaN,NA,left,3386,1,1,1574
C4FgLaFk,NA,NA,C4FgLaFk,2020-0188,2021-09-21,13:52:41,18:59:47,NA,incomplete,true,NA,true,0,24,NA,left,E30_Q8_ansL.png,E27_Q8_ansL.png,between,NA,NaN,NA,left,4206,1,3,3378
C4FgLaFk,NA,NA,C4FgLaFk,2020-0188,2021-09-21,13:52:41,18:59:47,NA,incomplete,true,NA,true,0,25,NA,left,E30_Q4_ansL.png,E30_Q6_ansR.png,within,NA,NaN,NA,left,8405.000000000931,1,1,15358
C4FgLaFk,NA,NA,C4FgLaFk,2020-0188,2021-09-21,13:52:41,18:59:47,NA,incomplete,true,NA,true,0,26,NA,left,E5_Q10_ansR.png,E5_Q9_ansR.png,within,NA,NaN,NA,right,3337.9999999990687,0,1,1232
C4FgLaFk,NA,NA,C4FgLaFk,2020-0188,2021-09-21,13:52:41,18:59:47,NA,incomplete,false,true,NA,1,0,E3_Q8_ansL.png,left,NA,NA,NA,none,0,false,NA,NA,NA,NA,NA
C4FgLaFk,NA,NA,C4FgLaFk,2020-0188,2021-09-21,13:52:41,18:59:47,NA,incomplete,false,true,NA,1,1,E3_Q6_ansR.png,right,NA,NA,NA,right,1722,true,NA,NA,NA,NA,NA
C4FgLaFk,NA,NA,C4FgLaFk,2020-0188,2021-09-21,13:52:41,18:59:47,NA,incomplete,false,true,NA,1,2,E3_Q2_ansL.png,left,NA,NA,NA,left,1686,true,NA,NA,NA,NA,NA
C4FgLaFk,NA,NA,C4FgLaFk,2020-0188,2021-09-21,13:52:41,18:59:47,NA,incomplete,false,true,NA,1,3,E3_Q1_ansR.png,right,NA,NA,NA,right,1241,true,NA,NA,NA,NA,NA
C4FgLaFk,NA,NA,C4FgLaFk,2020-0188,2021-09-21,13:52:41,18:59:47,NA,incomplete,false,true,NA,1,4,E3_Q3_ansR.png,right,NA,NA,NA,right,1240,true,NA,NA,NA,NA,NA
C4FgLaFk,NA,NA,C4FgLaFk,2020-0188,2021-09-21,13:52:41,18:59:47,NA,incomplete,false,true,NA,1,5,E3_Q5_ansR.png,right,NA,NA,NA,right,1800.00000000093,true,NA,NA,NA,NA,NA
C4FgLaFk,NA,NA,C4FgLaFk,2020-0188,2021-09-21,13:52:41,18:59:47,NA,incomplete,false,true,NA,1,6,E3_Q9_ansL.png,left,NA,NA,NA,left,1758,true,NA,NA,NA,NA,NA
C4FgLaFk,NA,NA,C4FgLaFk,2020-0188,2021-09-21,13:52:41,18:59:47,NA,incomplete,false,true,NA,1,7,E3_Q10_ansR.png,right,NA,NA,NA,right,994,true,NA,NA,NA,NA,NA
C4FgLaFk,NA,NA,C4FgLaFk,2020-0188,2021-09-21,13:52:41,18:59:47,NA,incomplete,false,true,NA,1,8,E3_Q7_ansL.png,left,NA,NA,NA,left,1014,true,NA,NA,NA,NA,NA
C4FgLaFk,NA,NA,C4FgLaFk,2020-0188,2021-09-21,13:52:41,18:59:47,NA,incomplete,false,true,NA,1,9,E3_Q4_ansL.png,left,NA,NA,NA,left,1107,true,NA,NA,NA,NA,NA
C4FgLaFk,NA,NA,C4FgLaFk,2020-0188,2021-09-21,13:52:41,18:59:47,NA,incomplete,false,true,NA,1,10,E16_Q4_ansL.png,left,NA,NA,NA,left,1560,true,NA,NA,NA,NA,NA
C4FgLaFk,NA,NA,C4FgLaFk,2020-0188,2021-09-21,13:52:41,18:59:47,NA,incomplete,false,true,NA,1,11,E16_Q2_ansR.png,right,NA,NA,NA,right,924,true,NA,NA,NA,NA,NA
C4FgLaFk,NA,NA,C4FgLaFk,2020-0188,2021-09-21,13:52:41,18:59:47,NA,incomplete,false,true,NA,1,12,E16_Q6_ansL.png,left,NA,NA,NA,left,1132,true,NA,NA,NA,NA,NA
C4FgLaFk,NA,NA,C4FgLaFk,2020-0188,2021-09-21,13:52:41,18:59:47,NA,incomplete,false,true,NA,1,13,E16_Q1_ansR.png,right,NA,NA,NA,right,1050.99999999907,true,NA,NA,NA,NA,NA
C4FgLaFk,NA,NA,C4FgLaFk,2020-0188,2021-09-21,13:52:41,18:59:47,NA,incomplete,false,true,NA,1,14,E16_Q5_ansL.png,left,NA,NA,NA,left,1050.99999999907,true,NA,NA,NA,NA,NA
C4FgLaFk,NA,NA,C4FgLaFk,2020-0188,2021-09-21,13:52:41,18:59:47,NA,incomplete,false,true,NA,1,15,E16_Q8_ansR.png,right,NA,NA,NA,right,1681.99999999907,true,NA,NA,NA,NA,NA
C4FgLaFk,NA,NA,C4FgLaFk,2020-0188,2021-09-21,13:52:41,18:59:47,NA,incomplete,false,true,NA,1,16,E16_Q10_ansR.png,right,NA,NA,NA,right,1129,true,NA,NA,NA,NA,NA
C4FgLaFk,NA,NA,C4FgLaFk,2020-0188,2021-09-21,13:52:41,18:59:47,NA,incomplete,false,true,NA,1,17,E16_Q9_ansL.png,left,NA,NA,NA,left,1080,true,NA,NA,NA,NA,NA
C4FgLaFk,NA,NA,C4FgLaFk,2020-0188,2021-09-21,13:52:41,18:59:47,NA,incomplete,false,true,NA,1,18,E16_Q7_ansR.png,right,NA,NA,NA,right,997.999999999069,true,NA,NA,NA,NA,NA
C4FgLaFk,NA,NA,C4FgLaFk,2020-0188,2021-09-21,13:52:41,18:59:47,NA,incomplete,false,true,NA,1,19,E16_Q3_ansL.png,left,NA,NA,NA,left,952,true,NA,NA,NA,NA,NA
C4FgLaFk,NA,NA,C4FgLaFk,2020-0188,2021-09-21,13:52:41,18:59:47,NA,incomplete,false,true,NA,1,20,E19_Q8_ansL.png,left,NA,NA,NA,left,1471,true,NA,NA,NA,NA,NA
C4FgLaFk,NA,NA,C4FgLaFk,2020-0188,2021-09-21,13:52:41,18:59:47,NA,incomplete,false,true,NA,1,21,E19_Q10_ansL.png,left,NA,NA,NA,left,1118,true,NA,NA,NA,NA,NA
C4FgLaFk,NA,NA,C4FgLaFk,2020-0188,2021-09-21,13:52:41,18:59:47,NA,incomplete,false,true,NA,1,22,E19_Q6_ansR.png,right,NA,NA,NA,left,794,false,NA,NA,NA,NA,NA
C4FgLaFk,NA,NA,C4FgLaFk,2020-0188,2021-09-21,13:52:41,18:59:47,NA,incomplete,false,true,NA,1,23,E19_Q2_ansL.png,left,NA,NA,NA,left,1002.99999999907,true,NA,NA,NA,NA,NA
C4FgLaFk,NA,NA,C4FgLaFk,2020-0188,2021-09-21,13:52:41,18:59:47,NA,incomplete,false,true,NA,1,24,E19_Q3_ansR.png,right,NA,NA,NA,right,1167.99999999907,true,NA,NA,NA,NA,NA
C4FgLaFk,NA,NA,C4FgLaFk,2020-0188,2021-09-21,13:52:41,18:59:47,NA,incomplete,false,true,NA,1,25,E19_Q9_ansR.png,right,NA,NA,NA,right,1087.99999999907,true,NA,NA,NA,NA,NA
C4FgLaFk,NA,NA,C4FgLaFk,2020-0188,2021-09-21,13:52:41,18:59:47,NA,incomplete,false,true,NA,1,26,E19_Q1_ansL.png,left,NA,NA,NA,left,904.999999999069,true,NA,NA,NA,NA,NA
C4FgLaFk,NA,NA,C4FgLaFk,2020-0188,2021-09-21,13:52:41,18:59:47,NA,incomplete,false,true,NA,1,27,E19_Q4_ansR.png,right,NA,NA,NA,right,1347.00000000093,true,NA,NA,NA,NA,NA
C4FgLaFk,NA,NA,C4FgLaFk,2020-0188,2021-09-21,13:52:41,18:59:47,NA,incomplete,false,true,NA,1,28,E19_Q7_ansL.png,left,NA,NA,NA,left,1231,true,NA,NA,NA,NA,NA
C4FgLaFk,NA,NA,C4FgLaFk,2020-0188,2021-09-21,13:52:41,18:59:47,NA,incomplete,false,true,NA,1,29,E19_Q5_ansR.png,right,NA,NA,NA,right,1209,true,NA,NA,NA,NA,NA
C4FgLaFk,NA,NA,C4FgLaFk,2020-0188,2021-09-21,13:52:41,18:59:47,NA,incomplete,false,NA,true,1,0,NA,left,E19_Q8_ansL.png,E19_Q2_ansL.png,within,NA,NaN,NA,left,3394,1,0,3644
C4FgLaFk,NA,NA,C4FgLaFk,2020-0188,2021-09-21,13:52:41,18:59:47,NA,incomplete,false,NA,true,1,1,NA,left,E16_Q10_ansR.png,E16_Q3_ansL.png,within,NA,NaN,NA,right,2736,0,1,1630
C4FgLaFk,NA,NA,C4FgLaFk,2020-0188,2021-09-21,13:52:41,18:59:47,NA,incomplete,false,NA,true,1,2,NA,left,E19_Q6_ansR.png,E19_Q9_ansR.png,within,NA,NaN,NA,left,4523,1,1,1374
C4FgLaFk,NA,NA,C4FgLaFk,2020-0188,2021-09-21,13:52:41,18:59:47,NA,incomplete,false,NA,true,1,3,NA,right,E3_Q3_ansR.png,E3_Q6_ansR.png,within,NA,NaN,NA,right,3690,1,0,4049
C4FgLaFk,NA,NA,C4FgLaFk,2020-0188,2021-09-21,13:52:41,18:59:47,NA,incomplete,false,NA,true,1,4,NA,right,E3_Q5_ansR.png,E3_Q2_ansL.png,within,NA,NaN,NA,right,4056.0000000009313,1,2,3433
C4FgLaFk,NA,NA,C4FgLaFk,2020-0188,2021-09-21,13:52:41,18:59:47,NA,incomplete,false,NA,true,1,5,NA,right,E19_Q10_ansL.png,E16_Q7_ansR.png,between,NA,NaN,NA,right,2479.0000000009313,1,2,9105
C4FgLaFk,NA,NA,C4FgLaFk,2020-0188,2021-09-21,13:52:41,18:59:47,NA,incomplete,false,NA,true,1,6,NA,left,E16_Q5_ansL.png,E16_Q9_ansL.png,within,NA,NaN,NA,left,8348,1,0,986
C4FgLaFk,NA,NA,C4FgLaFk,2020-0188,2021-09-21,13:52:41,18:59:47,NA,incomplete,false,NA,true,1,7,NA,left,E19_Q3_ansR.png,E19_Q4_ansR.png,within,NA,NaN,NA,left,2685,1,1,922
C4FgLaFk,NA,NA,C4FgLaFk,2020-0188,2021-09-21,13:52:41,18:59:47,NA,incomplete,false,NA,true,1,8,NA,left,E16_Q3_ansL.png,E19_Q6_ansR.png,between,NA,NaN,NA,left,2066,1,2,2615
C4FgLaFk,NA,NA,C4FgLaFk,2020-0188,2021-09-21,13:52:41,18:59:47,NA,incomplete,false,NA,true,1,9,NA,right,E19_Q1_ansL.png,E19_Q2_ansL.png,within,NA,NaN,NA,right,2384,1,1,2185
C4FgLaFk,NA,NA,C4FgLaFk,2020-0188,2021-09-21,13:52:41,18:59:47,NA,incomplete,false,NA,true,1,10,NA,left,E3_Q9_ansL.png,E3_Q4_ansL.png,within,NA,NaN,NA,left,6431.999999999069,1,1,1073.0000000009313
C4FgLaFk,NA,NA,C4FgLaFk,2020-0188,2021-09-21,13:52:41,18:59:47,NA,incomplete,false,NA,true,1,11,NA,left,E3_Q1_ansR.png,E3_Q9_ansL.png,within,NA,NaN,NA,left,4389,1,1,1987
C4FgLaFk,NA,NA,C4FgLaFk,2020-0188,2021-09-21,13:52:41,18:59:47,NA,incomplete,false,NA,true,1,12,NA,left,E3_Q8_ansL.png,E3_Q1_ansR.png,within,NA,NaN,NA,left,3791.0000000009313,1,2,2359.9999999990687
C4FgLaFk,NA,NA,C4FgLaFk,2020-0188,2021-09-21,13:52:41,18:59:47,NA,incomplete,false,NA,true,1,13,NA,left,E16_Q4_ansL.png,E16_Q1_ansR.png,within,NA,NaN,NA,left,2806,1,0,3936
C4FgLaFk,NA,NA,C4FgLaFk,2020-0188,2021-09-21,13:52:41,18:59:47,NA,incomplete,false,NA,true,1,14,NA,left,E16_Q6_ansL.png,E16_Q8_ansR.png,within,NA,NaN,NA,left,3382,1,1,1136
C4FgLaFk,NA,NA,C4FgLaFk,2020-0188,2021-09-21,13:52:41,18:59:47,NA,incomplete,false,NA,true,1,15,NA,left,E16_Q9_ansL.png,E19_Q8_ansL.png,between,NA,NaN,NA,left,2264,1,2,3325
C4FgLaFk,NA,NA,C4FgLaFk,2020-0188,2021-09-21,13:52:41,18:59:47,NA,incomplete,false,NA,true,1,16,NA,left,E16_Q1_ansR.png,E16_Q10_ansR.png,within,NA,NaN,NA,left,4158,1,1,1503
C4FgLaFk,NA,NA,C4FgLaFk,2020-0188,2021-09-21,13:52:41,18:59:47,NA,incomplete,false,NA,true,1,17,NA,right,E16_Q7_ansR.png,E16_Q8_ansR.png,within,NA,NaN,NA,left,2792,0,0,4071
C4FgLaFk,NA,NA,C4FgLaFk,2020-0188,2021-09-21,13:52:41,18:59:47,NA,incomplete,false,NA,true,1,18,NA,left,E3_Q10_ansR.png,E16_Q4_ansL.png,between,NA,NaN,NA,left,3626,1,2,1637.0000000009313
C4FgLaFk,NA,NA,C4FgLaFk,2020-0188,2021-09-21,13:52:41,18:59:47,NA,incomplete,false,NA,true,1,19,NA,right,E19_Q5_ansR.png,E19_Q1_ansL.png,within,NA,NaN,NA,left,4586,0,1,1168
C4FgLaFk,NA,NA,C4FgLaFk,2020-0188,2021-09-21,13:52:41,18:59:47,NA,incomplete,false,NA,true,1,20,NA,left,E16_Q2_ansR.png,E16_Q5_ansL.png,within,NA,NaN,NA,right,5479,0,1,1112
C4FgLaFk,NA,NA,C4FgLaFk,2020-0188,2021-09-21,13:52:41,18:59:47,NA,incomplete,false,NA,true,1,21,NA,left,E19_Q10_ansL.png,E19_Q3_ansR.png,within,NA,NaN,NA,left,3713,1,1,1303.0000000009313
C4FgLaFk,NA,NA,C4FgLaFk,2020-0188,2021-09-21,13:52:41,18:59:47,NA,incomplete,false,NA,true,1,22,NA,right,E3_Q7_ansL.png,E3_Q5_ansR.png,within,NA,NaN,NA,left,3872.0000000009313,0,1,1135
C4FgLaFk,NA,NA,C4FgLaFk,2020-0188,2021-09-21,13:52:41,18:59:47,NA,incomplete,false,NA,true,1,23,NA,left,E19_Q9_ansR.png,E19_Q7_ansL.png,within,NA,NaN,NA,left,4395,1,0,2902
C4FgLaFk,NA,NA,C4FgLaFk,2020-0188,2021-09-21,13:52:41,18:59:47,NA,incomplete,false,NA,true,1,24,NA,left,E3_Q4_ansL.png,E16_Q6_ansL.png,between,NA,NaN,NA,left,2727,1,2,3568
C4FgLaFk,NA,NA,C4FgLaFk,2020-0188,2021-09-21,13:52:41,18:59:47,NA,incomplete,false,NA,true,1,25,NA,right,E16_Q2_ansR.png,E3_Q7_ansL.png,between,NA,NaN,NA,right,3362,1,2,1748.9999999990687
C4FgLaFk,NA,NA,C4FgLaFk,2020-0188,2021-09-21,13:52:41,18:59:47,NA,incomplete,false,NA,true,1,26,NA,left,E3_Q3_ansR.png,E3_Q10_ansR.png,within,NA,NaN,NA,left,6750,1,1,2860
C4FgLaFk,NA,NA,C4FgLaFk,2020-0188,2021-09-21,13:52:41,18:59:47,NA,incomplete,false,true,NA,2,0,E20_Q7_ansL.png,left,NA,NA,NA,left,2418.99999999907,true,NA,NA,NA,NA,NA
C4FgLaFk,NA,NA,C4FgLaFk,2020-0188,2021-09-21,13:52:41,18:59:47,NA,incomplete,false,true,NA,2,1,E20_Q3_ansR.png,right,NA,NA,NA,right,1063.99999999907,true,NA,NA,NA,NA,NA
C4FgLaFk,NA,NA,C4FgLaFk,2020-0188,2021-09-21,13:52:41,18:59:47,NA,incomplete,false,true,NA,2,2,E20_Q1_ansL.png,left,NA,NA,NA,left,1193,true,NA,NA,NA,NA,NA
C4FgLaFk,NA,NA,C4FgLaFk,2020-0188,2021-09-21,13:52:41,18:59:47,NA,incomplete,false,true,NA,2,3,E20_Q8_ansL.png,left,NA,NA,NA,right,1661,false,NA,NA,NA,NA,NA
C4FgLaFk,NA,NA,C4FgLaFk,2020-0188,2021-09-21,13:52:41,18:59:47,NA,incomplete,false,true,NA,2,4,E20_Q9_ansR.png,right,NA,NA,NA,right,1009.99999999907,true,NA,NA,NA,NA,NA
C4FgLaFk,NA,NA,C4FgLaFk,2020-0188,2021-09-21,13:52:41,18:59:47,NA,incomplete,false,true,NA,2,5,E20_Q4_ansR.png,right,NA,NA,NA,right,1105,true,NA,NA,NA,NA,NA
C4FgLaFk,NA,NA,C4FgLaFk,2020-0188,2021-09-21,13:52:41,18:59:47,NA,incomplete,false,true,NA,2,6,E20_Q6_ansR.png,right,NA,NA,NA,left,1297,false,NA,NA,NA,NA,NA
C4FgLaFk,NA,NA,C4FgLaFk,2020-0188,2021-09-21,13:52:41,18:59:47,NA,incomplete,false,true,NA,2,7,E20_Q10_ansL.png,left,NA,NA,NA,right,1392,false,NA,NA,NA,NA,NA
C4FgLaFk,NA,NA,C4FgLaFk,2020-0188,2021-09-21,13:52:41,18:59:47,NA,incomplete,false,true,NA,2,8,E20_Q2_ansL.png,left,NA,NA,NA,left,2275,true,NA,NA,NA,NA,NA
C4FgLaFk,NA,NA,C4FgLaFk,2020-0188,2021-09-21,13:52:41,18:59:47,NA,incomplete,false,true,NA,2,9,E20_Q5_ansR.png,right,NA,NA,NA,right,1310,true,NA,NA,NA,NA,NA
C4FgLaFk,NA,NA,C4FgLaFk,2020-0188,2021-09-21,13:52:41,18:59:47,NA,incomplete,false,true,NA,2,10,E17_Q8_ansL.png,left,NA,NA,NA,left,1547.00000000093,true,NA,NA,NA,NA,NA
C4FgLaFk,NA,NA,C4FgLaFk,2020-0188,2021-09-21,13:52:41,18:59:47,NA,incomplete,false,true,NA,2,11,E17_Q5_ansR.png,right,NA,NA,NA,right,1776,true,NA,NA,NA,NA,NA
C4FgLaFk,NA,NA,C4FgLaFk,2020-0188,2021-09-21,13:52:41,18:59:47,NA,incomplete,false,true,NA,2,12,E17_Q10_ansL.png,left,NA,NA,NA,left,1221.99999999907,true,NA,NA,NA,NA,NA
C4FgLaFk,NA,NA,C4FgLaFk,2020-0188,2021-09-21,13:52:41,18:59:47,NA,incomplete,false,true,NA,2,13,E17_Q4_ansR.png,right,NA,NA,NA,right,1067.99999999907,true,NA,NA,NA,NA,NA
C4FgLaFk,NA,NA,C4FgLaFk,2020-0188,2021-09-21,13:52:41,18:59:47,NA,incomplete,false,true,NA,2,14,E17_Q6_ansR.png,right,NA,NA,NA,right,1287.99999999907,true,NA,NA,NA,NA,NA
C4FgLaFk,NA,NA,C4FgLaFk,2020-0188,2021-09-21,13:52:41,18:59:47,NA,incomplete,false,true,NA,2,15,E17_Q3_ansR.png,right,NA,NA,NA,right,1501,true,NA,NA,NA,NA,NA
C4FgLaFk,NA,NA,C4FgLaFk,2020-0188,2021-09-21,13:52:41,18:59:47,NA,incomplete,false,true,NA,2,16,E17_Q2_ansL.png,left,NA,NA,NA,left,1828,true,NA,NA,NA,NA,NA
C4FgLaFk,NA,NA,C4FgLaFk,2020-0188,2021-09-21,13:52:41,18:59:47,NA,incomplete,false,true,NA,2,17,E17_Q1_ansL.png,left,NA,NA,NA,left,1466,true,NA,NA,NA,NA,NA
C4FgLaFk,NA,NA,C4FgLaFk,2020-0188,2021-09-21,13:52:41,18:59:47,NA,incomplete,false,true,NA,2,18,E17_Q7_ansL.png,left,NA,NA,NA,left,1826.00000000093,true,NA,NA,NA,NA,NA
C4FgLaFk,NA,NA,C4FgLaFk,2020-0188,2021-09-21,13:52:41,18:59:47,NA,incomplete,false,true,NA,2,19,E17_Q9_ansR.png,right,NA,NA,NA,right,1452,true,NA,NA,NA,NA,NA
C4FgLaFk,NA,NA,C4FgLaFk,2020-0188,2021-09-21,13:52:41,18:59:47,NA,incomplete,false,true,NA,2,20,E1_Q4_ansL.png,left,NA,NA,NA,left,1523,true,NA,NA,NA,NA,NA
C4FgLaFk,NA,NA,C4FgLaFk,2020-0188,2021-09-21,13:52:41,18:59:47,NA,incomplete,false,true,NA,2,21,E1_Q3_ansR.png,right,NA,NA,NA,right,1989,true,NA,NA,NA,NA,NA
C4FgLaFk,NA,NA,C4FgLaFk,2020-0188,2021-09-21,13:52:41,18:59:47,NA,incomplete,false,true,NA,2,22,E1_Q5_ansR.png,right,NA,NA,NA,left,2340,false,NA,NA,NA,NA,NA
C4FgLaFk,NA,NA,C4FgLaFk,2020-0188,2021-09-21,13:52:41,18:59:47,NA,incomplete,false,true,NA,2,23,E1_Q9_ansL.png,left,NA,NA,NA,left,1279,true,NA,NA,NA,NA,NA
C4FgLaFk,NA,NA,C4FgLaFk,2020-0188,2021-09-21,13:52:41,18:59:47,NA,incomplete,false,true,NA,2,24,E1_Q10_ansR.png,right,NA,NA,NA,right,1509,true,NA,NA,NA,NA,NA
C4FgLaFk,NA,NA,C4FgLaFk,2020-0188,2021-09-21,13:52:41,18:59:47,NA,incomplete,false,true,NA,2,25,E1_Q7_ansL.png,left,NA,NA,NA,left,1095.99999999907,true,NA,NA,NA,NA,NA
C4FgLaFk,NA,NA,C4FgLaFk,2020-0188,2021-09-21,13:52:41,18:59:47,NA,incomplete,false,true,NA,2,26,E1_Q8_ansR.png,right,NA,NA,NA,right,1592,true,NA,NA,NA,NA,NA
C4FgLaFk,NA,NA,C4FgLaFk,2020-0188,2021-09-21,13:52:41,18:59:47,NA,incomplete,false,true,NA,2,27,E1_Q2_ansL.png,left,NA,NA,NA,left,1619,true,NA,NA,NA,NA,NA
C4FgLaFk,NA,NA,C4FgLaFk,2020-0188,2021-09-21,13:52:41,18:59:47,NA,incomplete,false,true,NA,2,28,E1_Q1_ansL.png,left,NA,NA,NA,left,1185.00000000093,true,NA,NA,NA,NA,NA
C4FgLaFk,NA,NA,C4FgLaFk,2020-0188,2021-09-21,13:52:41,18:59:47,NA,incomplete,false,true,NA,2,29,E1_Q6_ansR.png,right,NA,NA,NA,right,1422.00000000093,true,NA,NA,NA,NA,NA
C4FgLaFk,NA,NA,C4FgLaFk,2020-0188,2021-09-21,13:52:41,18:59:47,NA,incomplete,false,NA,true,2,0,NA,left,E20_Q1_ansL.png,E20_Q4_ansR.png,within,NA,NaN,NA,right,7818,0,1,1485
C4FgLaFk,NA,NA,C4FgLaFk,2020-0188,2021-09-21,13:52:41,18:59:47,NA,incomplete,false,NA,true,2,1,NA,left,E1_Q9_ansL.png,E1_Q8_ansR.png,within,NA,NaN,NA,right,4261,0,0,2370
C4FgLaFk,NA,NA,C4FgLaFk,2020-0188,2021-09-21,13:52:41,18:59:47,NA,incomplete,false,NA,true,2,2,NA,left,E20_Q7_ansL.png,E20_Q8_ansL.png,within,NA,NaN,NA,left,6997.999999999069,1,1,1677
C4FgLaFk,NA,NA,C4FgLaFk,2020-0188,2021-09-21,13:52:41,18:59:47,NA,incomplete,false,NA,true,2,3,NA,left,E20_Q6_ansR.png,E20_Q5_ansR.png,within,NA,NaN,NA,right,4594.000000000931,0,1,1286
C4FgLaFk,NA,NA,C4FgLaFk,2020-0188,2021-09-21,13:52:41,18:59:47,NA,incomplete,false,NA,true,2,4,NA,left,E17_Q5_ansR.png,E17_Q6_ansR.png,within,NA,NaN,NA,left,2941.9999999990687,1,1,2280.9999999990687
C4FgLaFk,NA,NA,C4FgLaFk,2020-0188,2021-09-21,13:52:41,18:59:47,NA,incomplete,false,NA,true,2,5,NA,left,E1_Q8_ansR.png,E1_Q6_ansR.png,within,NA,NaN,NA,left,3965,1,1,2320.9999999990687
C4FgLaFk,NA,NA,C4FgLaFk,2020-0188,2021-09-21,13:52:41,18:59:47,NA,incomplete,false,NA,true,2,6,NA,right,E20_Q10_ansL.png,E20_Q9_ansR.png,within,NA,NaN,NA,right,13741,1,1,1540.0000000009313
C4FgLaFk,NA,NA,C4FgLaFk,2020-0188,2021-09-21,13:52:41,18:59:47,NA,incomplete,false,NA,true,2,7,NA,left,E17_Q6_ansR.png,E17_Q1_ansL.png,within,NA,NaN,NA,left,11956.999999998137,1,1,3181.0000000009313
C4FgLaFk,NA,NA,C4FgLaFk,2020-0188,2021-09-21,13:52:41,18:59:47,NA,incomplete,false,NA,true,2,8,NA,right,E17_Q10_ansL.png,E20_Q5_ansR.png,between,NA,NaN,NA,left,19806,0,2,3147.0000000009313
C4FgLaFk,NA,NA,C4FgLaFk,2020-0188,2021-09-21,13:52:41,18:59:47,NA,incomplete,false,NA,true,2,9,NA,left,E1_Q4_ansL.png,E1_Q9_ansL.png,within,NA,NaN,NA,left,3473,1,1,2465.9999999981374
C4FgLaFk,NA,NA,C4FgLaFk,2020-0188,2021-09-21,13:52:41,18:59:47,NA,incomplete,false,NA,true,2,10,NA,left,E1_Q7_ansL.png,E1_Q1_ansL.png,within,NA,NaN,NA,right,4600.000000000931,0,1,984.0000000009313
C4FgLaFk,NA,NA,C4FgLaFk,2020-0188,2021-09-21,13:52:41,18:59:47,NA,incomplete,false,NA,true,2,11,NA,left,E17_Q10_ansL.png,E17_Q3_ansR.png,within,NA,NaN,NA,left,7003.999999999069,1,2,5152
C4FgLaFk,NA,NA,C4FgLaFk,2020-0188,2021-09-21,13:52:41,18:59:47,NA,incomplete,false,NA,true,2,12,NA,right,E20_Q2_ansL.png,E20_Q4_ansR.png,within,NA,NaN,NA,left,2557.9999999990687,0,1,2305.0000000009313
C4FgLaFk,NA,NA,C4FgLaFk,2020-0188,2021-09-21,13:52:41,18:59:47,NA,incomplete,false,NA,true,2,13,NA,left,E20_Q8_ansL.png,E20_Q6_ansR.png,within,NA,NaN,NA,left,1621.0000000009313,1,1,3346.9999999990687
C4FgLaFk,NA,NA,C4FgLaFk,2020-0188,2021-09-21,13:52:41,18:59:47,NA,incomplete,false,NA,true,2,14,NA,left,E17_Q3_ansR.png,E17_Q7_ansL.png,within,NA,NaN,NA,left,10039.999999999069,1,1,1892.0000000018626
C4FgLaFk,NA,NA,C4FgLaFk,2020-0188,2021-09-21,13:52:41,18:59:47,NA,incomplete,false,NA,true,2,15,NA,left,E17_Q4_ansR.png,E17_Q2_ansL.png,within,NA,NaN,NA,left,2124.0000000018626,1,1,1328
C4FgLaFk,NA,NA,C4FgLaFk,2020-0188,2021-09-21,13:52:41,18:59:47,NA,incomplete,false,NA,true,2,16,NA,left,E17_Q8_ansL.png,E17_Q4_ansR.png,within,NA,NaN,NA,left,1515.9999999990687,1,1,3489
C4FgLaFk,NA,NA,C4FgLaFk,2020-0188,2021-09-21,13:52:41,18:59:47,NA,incomplete,false,NA,true,2,17,NA,left,E1_Q10_ansR.png,E1_Q2_ansL.png,within,NA,NaN,NA,left,10406.000000000931,1,1,1376
C4FgLaFk,NA,NA,C4FgLaFk,2020-0188,2021-09-21,13:52:41,18:59:47,NA,incomplete,false,NA,true,2,18,NA,right,E20_Q9_ansR.png,E20_Q3_ansR.png,within,NA,NaN,NA,left,3576,0,1,1931
C4FgLaFk,NA,NA,C4FgLaFk,2020-0188,2021-09-21,13:52:41,18:59:47,NA,incomplete,false,NA,true,2,19,NA,left,E1_Q3_ansR.png,E1_Q10_ansR.png,within,NA,NaN,NA,left,14434,1,1,1860
C4FgLaFk,NA,NA,C4FgLaFk,2020-0188,2021-09-21,13:52:41,18:59:47,NA,incomplete,false,NA,true,2,20,NA,right,E17_Q5_ansR.png,E20_Q2_ansL.png,between,NA,NaN,NA,left,3038,0,2,1256
C4FgLaFk,NA,NA,C4FgLaFk,2020-0188,2021-09-21,13:52:41,18:59:47,NA,incomplete,false,NA,true,2,21,NA,left,E20_Q10_ansL.png,E17_Q8_ansL.png,between,NA,NaN,NA,right,11309,0,2,1129.9999999981374
C4FgLaFk,NA,NA,C4FgLaFk,2020-0188,2021-09-21,13:52:41,18:59:47,NA,incomplete,false,NA,true,2,22,NA,left,E17_Q7_ansL.png,E1_Q3_ansR.png,between,NA,NaN,NA,left,2241,1,2,2614
C4FgLaFk,NA,NA,C4FgLaFk,2020-0188,2021-09-21,13:52:41,18:59:47,NA,incomplete,false,NA,true,2,23,NA,left,E1_Q5_ansR.png,E1_Q7_ansL.png,within,NA,NaN,NA,left,11764,1,0,3323
C4FgLaFk,NA,NA,C4FgLaFk,2020-0188,2021-09-21,13:52:41,18:59:47,NA,incomplete,false,NA,true,2,24,NA,left,E17_Q9_ansR.png,E1_Q5_ansR.png,between,NA,NaN,NA,left,3863,1,2,2499
C4FgLaFk,NA,NA,C4FgLaFk,2020-0188,2021-09-21,13:52:41,18:59:47,NA,incomplete,false,NA,true,2,25,NA,left,E17_Q1_ansL.png,E1_Q4_ansL.png,between,NA,NaN,NA,left,6727,1,2,1082
C4FgLaFk,NA,NA,C4FgLaFk,2020-0188,2021-09-21,13:52:41,18:59:47,NA,incomplete,false,NA,true,2,26,NA,left,E17_Q2_ansL.png,E17_Q9_ansR.png,within,NA,NaN,NA,left,6677,1,0,1677.0000000018626
C4FgLaFk,NA,NA,C4FgLaFk,2020-0188,2021-09-21,13:52:41,18:59:47,NA,incomplete,false,true,NA,3,0,E4_Q10_ansR.png,right,NA,NA,NA,right,1909.00000000186,true,NA,NA,NA,NA,NA
C4FgLaFk,NA,NA,C4FgLaFk,2020-0188,2021-09-21,13:52:41,18:59:47,NA,incomplete,false,true,NA,3,1,E4_Q2_ansL.png,left,NA,NA,NA,left,1223,true,NA,NA,NA,NA,NA
C4FgLaFk,NA,NA,C4FgLaFk,2020-0188,2021-09-21,13:52:41,18:59:47,NA,incomplete,false,true,NA,3,2,E4_Q9_ansL.png,left,NA,NA,NA,left,1009,true,NA,NA,NA,NA,NA
C4FgLaFk,NA,NA,C4FgLaFk,2020-0188,2021-09-21,13:52:41,18:59:47,NA,incomplete,false,true,NA,3,3,E4_Q6_ansR.png,right,NA,NA,NA,right,951.000000001863,true,NA,NA,NA,NA,NA
C4FgLaFk,NA,NA,C4FgLaFk,2020-0188,2021-09-21,13:52:41,18:59:47,NA,incomplete,false,true,NA,3,4,E4_Q5_ansR.png,right,NA,NA,NA,left,1094,false,NA,NA,NA,NA,NA
C4FgLaFk,NA,NA,C4FgLaFk,2020-0188,2021-09-21,13:52:41,18:59:47,NA,incomplete,false,true,NA,3,5,E4_Q4_ansL.png,left,NA,NA,NA,right,1299,false,NA,NA,NA,NA,NA
C4FgLaFk,NA,NA,C4FgLaFk,2020-0188,2021-09-21,13:52:41,18:59:47,NA,incomplete,false,true,NA,3,6,E4_Q3_ansL.png,left,NA,NA,NA,left,1935,true,NA,NA,NA,NA,NA
C4FgLaFk,NA,NA,C4FgLaFk,2020-0188,2021-09-21,13:52:41,18:59:47,NA,incomplete,false,true,NA,3,7,E4_Q1_ansL.png,left,NA,NA,NA,left,989,true,NA,NA,NA,NA,NA
C4FgLaFk,NA,NA,C4FgLaFk,2020-0188,2021-09-21,13:52:41,18:59:47,NA,incomplete,false,true,NA,3,8,E4_Q8_ansR.png,right,NA,NA,NA,right,1121,true,NA,NA,NA,NA,NA
C4FgLaFk,NA,NA,C4FgLaFk,2020-0188,2021-09-21,13:52:41,18:59:47,NA,incomplete,false,true,NA,3,9,E4_Q7_ansR.png,right,NA,NA,NA,right,1970,true,NA,NA,NA,NA,NA
C4FgLaFk,NA,NA,C4FgLaFk,2020-0188,2021-09-21,13:52:41,18:59:47,NA,incomplete,false,true,NA,3,10,E23_Q6_ansR.png,right,NA,NA,NA,right,1870,true,NA,NA,NA,NA,NA
C4FgLaFk,NA,NA,C4FgLaFk,2020-0188,2021-09-21,13:52:41,18:59:47,NA,incomplete,false,true,NA,3,11,E23_Q7_ansL.png,left,NA,NA,NA,left,2148,true,NA,NA,NA,NA,NA
C4FgLaFk,NA,NA,C4FgLaFk,2020-0188,2021-09-21,13:52:41,18:59:47,NA,incomplete,false,true,NA,3,12,E23_Q4_ansR.png,right,NA,NA,NA,right,913.999999998137,true,NA,NA,NA,NA,NA
C4FgLaFk,NA,NA,C4FgLaFk,2020-0188,2021-09-21,13:52:41,18:59:47,NA,incomplete,false,true,NA,3,13,E23_Q1_ansL.png,left,NA,NA,NA,left,1531,true,NA,NA,NA,NA,NA
C4FgLaFk,NA,NA,C4FgLaFk,2020-0188,2021-09-21,13:52:41,18:59:47,NA,incomplete,false,true,NA,3,14,E23_Q3_ansR.png,right,NA,NA,NA,right,1050,true,NA,NA,NA,NA,NA
C4FgLaFk,NA,NA,C4FgLaFk,2020-0188,2021-09-21,13:52:41,18:59:47,NA,incomplete,false,true,NA,3,15,E23_Q2_ansL.png,left,NA,NA,NA,left,2055,true,NA,NA,NA,NA,NA
C4FgLaFk,NA,NA,C4FgLaFk,2020-0188,2021-09-21,13:52:41,18:59:47,NA,incomplete,false,true,NA,3,16,E23_Q5_ansR.png,right,NA,NA,NA,right,973,true,NA,NA,NA,NA,NA
C4FgLaFk,NA,NA,C4FgLaFk,2020-0188,2021-09-21,13:52:41,18:59:47,NA,incomplete,false,true,NA,3,17,E23_Q8_ansL.png,left,NA,NA,NA,left,1334,true,NA,NA,NA,NA,NA
C4FgLaFk,NA,NA,C4FgLaFk,2020-0188,2021-09-21,13:52:41,18:59:47,NA,incomplete,false,true,NA,3,18,E23_Q9_ansR.png,right,NA,NA,NA,right,1846,true,NA,NA,NA,NA,NA
C4FgLaFk,NA,NA,C4FgLaFk,2020-0188,2021-09-21,13:52:41,18:59:47,NA,incomplete,false,true,NA,3,19,E23_Q10_ansL.png,left,NA,NA,NA,left,1380,true,NA,NA,NA,NA,NA
C4FgLaFk,NA,NA,C4FgLaFk,2020-0188,2021-09-21,13:52:41,18:59:47,NA,incomplete,false,true,NA,3,20,E12_Q4_ansR.png,right,NA,NA,NA,right,2272,true,NA,NA,NA,NA,NA
C4FgLaFk,NA,NA,C4FgLaFk,2020-0188,2021-09-21,13:52:41,18:59:47,NA,incomplete,false,true,NA,3,21,E12_Q1_ansL.png,left,NA,NA,NA,left,1488,true,NA,NA,NA,NA,NA
C4FgLaFk,NA,NA,C4FgLaFk,2020-0188,2021-09-21,13:52:41,18:59:47,NA,incomplete,false,true,NA,3,22,E12_Q8_ansL.png,left,NA,NA,NA,right,2629,false,NA,NA,NA,NA,NA
C4FgLaFk,NA,NA,C4FgLaFk,2020-0188,2021-09-21,13:52:41,18:59:47,NA,incomplete,false,true,NA,3,23,E12_Q5_ansR.png,right,NA,NA,NA,right,1182,true,NA,NA,NA,NA,NA
C4FgLaFk,NA,NA,C4FgLaFk,2020-0188,2021-09-21,13:52:41,18:59:47,NA,incomplete,false,true,NA,3,24,E12_Q2_ansL.png,left,NA,NA,NA,left,1800,true,NA,NA,NA,NA,NA
C4FgLaFk,NA,NA,C4FgLaFk,2020-0188,2021-09-21,13:52:41,18:59:47,NA,incomplete,false,true,NA,3,25,E12_Q9_ansR.png,right,NA,NA,NA,right,1208,true,NA,NA,NA,NA,NA
C4FgLaFk,NA,NA,C4FgLaFk,2020-0188,2021-09-21,13:52:41,18:59:47,NA,incomplete,false,true,NA,3,26,E12_Q3_ansR.png,right,NA,NA,NA,right,1611,true,NA,NA,NA,NA,NA
C4FgLaFk,NA,NA,C4FgLaFk,2020-0188,2021-09-21,13:52:41,18:59:47,NA,incomplete,false,true,NA,3,27,E12_Q7_ansL.png,left,NA,NA,NA,left,999,true,NA,NA,NA,NA,NA
C4FgLaFk,NA,NA,C4FgLaFk,2020-0188,2021-09-21,13:52:41,18:59:47,NA,incomplete,false,true,NA,3,28,E12_Q6_ansR.png,right,NA,NA,NA,right,1072,true,NA,NA,NA,NA,NA
C4FgLaFk,NA,NA,C4FgLaFk,2020-0188,2021-09-21,13:52:41,18:59:47,NA,incomplete,false,true,NA,3,29,E12_Q10_ansL.png,left,NA,NA,NA,left,1434.00000000186,true,NA,NA,NA,NA,NA
C4FgLaFk,NA,NA,C4FgLaFk,2020-0188,2021-09-21,13:52:41,18:59:47,NA,incomplete,false,NA,true,3,0,NA,left,E4_Q1_ansL.png,E23_Q6_ansR.png,between,NA,NaN,NA,left,3226.9999999981374,1,2,1692
C4FgLaFk,NA,NA,C4FgLaFk,2020-0188,2021-09-21,13:52:41,18:59:47,NA,incomplete,false,NA,true,3,1,NA,right,E23_Q1_ansL.png,E23_Q6_ansR.png,within,NA,NaN,NA,right,13829.000000001863,1,1,2639
C4FgLaFk,NA,NA,C4FgLaFk,2020-0188,2021-09-21,13:52:41,18:59:47,NA,incomplete,false,NA,true,3,2,NA,left,E12_Q9_ansR.png,E12_Q6_ansR.png,within,NA,NaN,NA,left,2080,1,1,1503
C4FgLaFk,NA,NA,C4FgLaFk,2020-0188,2021-09-21,13:52:41,18:59:47,NA,incomplete,false,NA,true,3,3,NA,right,E4_Q8_ansR.png,E4_Q4_ansL.png,within,NA,NaN,NA,right,3020,1,0,1843
C4FgLaFk,NA,NA,C4FgLaFk,2020-0188,2021-09-21,13:52:41,18:59:47,NA,incomplete,false,NA,true,3,4,NA,left,E4_Q5_ansR.png,E4_Q1_ansL.png,within,NA,NaN,NA,left,2805,1,1,3657
C4FgLaFk,NA,NA,C4FgLaFk,2020-0188,2021-09-21,13:52:41,18:59:47,NA,incomplete,false,NA,true,3,5,NA,left,E4_Q3_ansL.png,E4_Q7_ansR.png,within,NA,NaN,NA,right,7480.999999998137,0,1,1288
C4FgLaFk,NA,NA,C4FgLaFk,2020-0188,2021-09-21,13:52:41,18:59:47,NA,incomplete,false,NA,true,3,6,NA,left,E4_Q10_ansR.png,E4_Q6_ansR.png,within,NA,NaN,NA,left,7322,1,0,1177.0000000018626
C4FgLaFk,NA,NA,C4FgLaFk,2020-0188,2021-09-21,13:52:41,18:59:47,NA,incomplete,false,NA,true,3,7,NA,left,E23_Q4_ansR.png,E23_Q2_ansL.png,within,NA,NaN,NA,left,2266.0000000018626,1,1,1152
C4FgLaFk,NA,NA,C4FgLaFk,2020-0188,2021-09-21,13:52:41,18:59:47,NA,incomplete,false,NA,true,3,8,NA,right,E12_Q4_ansR.png,E23_Q8_ansL.png,between,NA,NaN,NA,right,4013,1,2,978
C4FgLaFk,NA,NA,C4FgLaFk,2020-0188,2021-09-21,13:52:41,18:59:47,NA,incomplete,false,NA,true,3,9,NA,right,E4_Q4_ansL.png,E4_Q9_ansL.png,within,NA,NaN,NA,right,3146,1,1,1184
C4FgLaFk,NA,NA,C4FgLaFk,2020-0188,2021-09-21,13:52:41,18:59:47,NA,incomplete,false,NA,true,3,10,NA,right,E12_Q3_ansR.png,E12_Q5_ansR.png,within,NA,NaN,NA,right,2131,1,1,1455.0000000018626
C4FgLaFk,NA,NA,C4FgLaFk,2020-0188,2021-09-21,13:52:41,18:59:47,NA,incomplete,false,NA,true,3,11,NA,right,E12_Q1_ansL.png,E23_Q9_ansR.png,between,NA,NaN,NA,right,1792,1,2,2018
C4FgLaFk,NA,NA,C4FgLaFk,2020-0188,2021-09-21,13:52:41,18:59:47,NA,incomplete,false,NA,true,3,12,NA,right,E12_Q2_ansL.png,E12_Q1_ansL.png,within,NA,NaN,NA,right,2708,1,1,1363.9999999981374
C4FgLaFk,NA,NA,C4FgLaFk,2020-0188,2021-09-21,13:52:41,18:59:47,NA,incomplete,false,NA,true,3,13,NA,right,E12_Q8_ansL.png,E23_Q10_ansL.png,between,NA,NaN,NA,right,1770,1,2,1509
C4FgLaFk,NA,NA,C4FgLaFk,2020-0188,2021-09-21,13:52:41,18:59:47,NA,incomplete,false,NA,true,3,14,NA,right,E4_Q5_ansR.png,E4_Q2_ansL.png,within,NA,NaN,NA,right,4316,1,1,1344
C4FgLaFk,NA,NA,C4FgLaFk,2020-0188,2021-09-21,13:52:41,18:59:47,NA,incomplete,false,NA,true,3,15,NA,left,E12_Q2_ansL.png,E12_Q7_ansL.png,within,NA,NaN,NA,left,5843,1,1,1073
C4FgLaFk,NA,NA,C4FgLaFk,2020-0188,2021-09-21,13:52:41,18:59:47,NA,incomplete,false,NA,true,3,16,NA,right,E23_Q7_ansL.png,E4_Q8_ansR.png,between,NA,NaN,NA,right,1851,1,2,5608
C4FgLaFk,NA,NA,C4FgLaFk,2020-0188,2021-09-21,13:52:41,18:59:47,NA,incomplete,false,NA,true,3,17,NA,right,E12_Q5_ansR.png,E12_Q4_ansR.png,within,NA,NaN,NA,right,2645.9999999981374,1,1,1359.9999999981374
C4FgLaFk,NA,NA,C4FgLaFk,2020-0188,2021-09-21,13:52:41,18:59:47,NA,incomplete,false,NA,true,3,18,NA,right,E23_Q3_ansR.png,E23_Q7_ansL.png,within,NA,NaN,NA,right,10015,1,1,1288
C4FgLaFk,NA,NA,C4FgLaFk,2020-0188,2021-09-21,13:52:41,18:59:47,NA,incomplete,false,NA,true,3,19,NA,right,E23_Q9_ansR.png,E23_Q2_ansL.png,within,NA,NaN,NA,right,3849,1,1,1144
C4FgLaFk,NA,NA,C4FgLaFk,2020-0188,2021-09-21,13:52:41,18:59:47,NA,incomplete,false,NA,true,3,20,NA,left,E23_Q5_ansR.png,E23_Q10_ansL.png,within,NA,NaN,NA,left,2892.9999999981374,1,1,1366
C4FgLaFk,NA,NA,C4FgLaFk,2020-0188,2021-09-21,13:52:41,18:59:47,NA,incomplete,false,NA,true,3,21,NA,left,E12_Q3_ansR.png,E12_Q10_ansL.png,within,NA,NaN,NA,left,5391.000000001863,1,1,1159
C4FgLaFk,NA,NA,C4FgLaFk,2020-0188,2021-09-21,13:52:41,18:59:47,NA,incomplete,false,NA,true,3,22,NA,left,E12_Q8_ansL.png,E12_Q9_ansR.png,within,NA,NaN,NA,left,5802,1,1,1295
C4FgLaFk,NA,NA,C4FgLaFk,2020-0188,2021-09-21,13:52:41,18:59:47,NA,incomplete,false,NA,true,3,23,NA,left,E23_Q1_ansL.png,E23_Q5_ansR.png,within,NA,NaN,NA,left,2832,1,1,1072
C4FgLaFk,NA,NA,C4FgLaFk,2020-0188,2021-09-21,13:52:41,18:59:47,NA,incomplete,false,NA,true,3,24,NA,right,E23_Q4_ansR.png,E4_Q7_ansR.png,between,NA,NaN,NA,right,1785.9999999981374,1,2,1478
C4FgLaFk,NA,NA,C4FgLaFk,2020-0188,2021-09-21,13:52:41,18:59:47,NA,incomplete,false,NA,true,3,25,NA,right,E23_Q8_ansL.png,E23_Q3_ansR.png,within,NA,NaN,NA,right,5117,1,1,1622
C4FgLaFk,NA,NA,C4FgLaFk,2020-0188,2021-09-21,13:52:41,18:59:47,NA,incomplete,false,NA,true,3,26,NA,left,E4_Q6_ansR.png,E4_Q3_ansL.png,within,NA,NaN,NA,left,3567.0000000018626,1,1,1255
C4FgLaFk,NA,NA,C4FgLaFk,2020-0188,2021-09-21,13:52:41,18:59:47,NA,incomplete,false,true,NA,4,0,E7_Q7_ansL.png,left,NA,NA,NA,left,1452,true,NA,NA,NA,NA,NA
C4FgLaFk,NA,NA,C4FgLaFk,2020-0188,2021-09-21,13:52:41,18:59:47,NA,incomplete,false,true,NA,4,1,E7_Q6_ansR.png,right,NA,NA,NA,right,924,true,NA,NA,NA,NA,NA
C4FgLaFk,NA,NA,C4FgLaFk,2020-0188,2021-09-21,13:52:41,18:59:47,NA,incomplete,false,true,NA,4,2,E7_Q1_ansL.png,left,NA,NA,NA,left,792,true,NA,NA,NA,NA,NA
C4FgLaFk,NA,NA,C4FgLaFk,2020-0188,2021-09-21,13:52:41,18:59:47,NA,incomplete,false,true,NA,4,3,E7_Q3_ansR.png,right,NA,NA,NA,right,891.999999998137,true,NA,NA,NA,NA,NA
C4FgLaFk,NA,NA,C4FgLaFk,2020-0188,2021-09-21,13:52:41,18:59:47,NA,incomplete,false,true,NA,4,4,E7_Q2_ansL.png,left,NA,NA,NA,left,973,true,NA,NA,NA,NA,NA
C4FgLaFk,NA,NA,C4FgLaFk,2020-0188,2021-09-21,13:52:41,18:59:47,NA,incomplete,false,true,NA,4,5,E7_Q8_ansL.png,left,NA,NA,NA,left,1311,true,NA,NA,NA,NA,NA
C4FgLaFk,NA,NA,C4FgLaFk,2020-0188,2021-09-21,13:52:41,18:59:47,NA,incomplete,false,true,NA,4,6,E7_Q5_ansR.png,right,NA,NA,NA,right,964,true,NA,NA,NA,NA,NA
C4FgLaFk,NA,NA,C4FgLaFk,2020-0188,2021-09-21,13:52:41,18:59:47,NA,incomplete,false,true,NA,4,7,E7_Q9_ansR.png,right,NA,NA,NA,right,1206,true,NA,NA,NA,NA,NA
C4FgLaFk,NA,NA,C4FgLaFk,2020-0188,2021-09-21,13:52:41,18:59:47,NA,incomplete,false,true,NA,4,8,E7_Q4_ansR.png,right,NA,NA,NA,right,1539,true,NA,NA,NA,NA,NA
C4FgLaFk,NA,NA,C4FgLaFk,2020-0188,2021-09-21,13:52:41,18:59:47,NA,incomplete,false,true,NA,4,9,E7_Q10_ansR.png,right,NA,NA,NA,right,1198,true,NA,NA,NA,NA,NA
C4FgLaFk,NA,NA,C4FgLaFk,2020-0188,2021-09-21,13:52:41,18:59:47,NA,incomplete,false,true,NA,4,10,E26_Q4_ansR.png,right,NA,NA,NA,right,2225,true,NA,NA,NA,NA,NA
C4FgLaFk,NA,NA,C4FgLaFk,2020-0188,2021-09-21,13:52:41,18:59:47,NA,incomplete,false,true,NA,4,11,E26_Q3_ansR.png,right,NA,NA,NA,right,1382,true,NA,NA,NA,NA,NA
C4FgLaFk,NA,NA,C4FgLaFk,2020-0188,2021-09-21,13:52:41,18:59:47,NA,incomplete,false,true,NA,4,12,E26_Q5_ansR.png,right,NA,NA,NA,right,1574,true,NA,NA,NA,NA,NA
C4FgLaFk,NA,NA,C4FgLaFk,2020-0188,2021-09-21,13:52:41,18:59:47,NA,incomplete,false,true,NA,4,13,E26_Q9_ansR.png,right,NA,NA,NA,right,1388,true,NA,NA,NA,NA,NA
C4FgLaFk,NA,NA,C4FgLaFk,2020-0188,2021-09-21,13:52:41,18:59:47,NA,incomplete,false,true,NA,4,14,E26_Q10_ansL.png,left,NA,NA,NA,left,1616,true,NA,NA,NA,NA,NA
C4FgLaFk,NA,NA,C4FgLaFk,2020-0188,2021-09-21,13:52:41,18:59:47,NA,incomplete,false,true,NA,4,15,E26_Q7_ansL.png,left,NA,NA,NA,left,1317,true,NA,NA,NA,NA,NA
C4FgLaFk,NA,NA,C4FgLaFk,2020-0188,2021-09-21,13:52:41,18:59:47,NA,incomplete,false,true,NA,4,16,E26_Q1_ansL.png,left,NA,NA,NA,left,1364,true,NA,NA,NA,NA,NA
C4FgLaFk,NA,NA,C4FgLaFk,2020-0188,2021-09-21,13:52:41,18:59:47,NA,incomplete,false,true,NA,4,17,E26_Q6_ansR.png,right,NA,NA,NA,right,1882,true,NA,NA,NA,NA,NA
C4FgLaFk,NA,NA,C4FgLaFk,2020-0188,2021-09-21,13:52:41,18:59:47,NA,incomplete,false,true,NA,4,18,E26_Q8_ansL.png,left,NA,NA,NA,left,1953,true,NA,NA,NA,NA,NA
C4FgLaFk,NA,NA,C4FgLaFk,2020-0188,2021-09-21,13:52:41,18:59:47,NA,incomplete,false,true,NA,4,19,E26_Q2_ansL.png,left,NA,NA,NA,left,2806,true,NA,NA,NA,NA,NA
C4FgLaFk,NA,NA,C4FgLaFk,2020-0188,2021-09-21,13:52:41,18:59:47,NA,incomplete,false,true,NA,4,20,E18_Q6_ansR.png,right,NA,NA,NA,right,1688,true,NA,NA,NA,NA,NA
C4FgLaFk,NA,NA,C4FgLaFk,2020-0188,2021-09-21,13:52:41,18:59:47,NA,incomplete,false,true,NA,4,21,E18_Q9_ansR.png,right,NA,NA,NA,right,1291,true,NA,NA,NA,NA,NA
C4FgLaFk,NA,NA,C4FgLaFk,2020-0188,2021-09-21,13:52:41,18:59:47,NA,incomplete,false,true,NA,4,22,E18_Q4_ansR.png,right,NA,NA,NA,right,1352,true,NA,NA,NA,NA,NA
C4FgLaFk,NA,NA,C4FgLaFk,2020-0188,2021-09-21,13:52:41,18:59:47,NA,incomplete,false,true,NA,4,23,E18_Q7_ansL.png,left,NA,NA,NA,left,1457,true,NA,NA,NA,NA,NA
C4FgLaFk,NA,NA,C4FgLaFk,2020-0188,2021-09-21,13:52:41,18:59:47,NA,incomplete,false,true,NA,4,24,E18_Q10_ansL.png,left,NA,NA,NA,left,1419,true,NA,NA,NA,NA,NA
C4FgLaFk,NA,NA,C4FgLaFk,2020-0188,2021-09-21,13:52:41,18:59:47,NA,incomplete,false,true,NA,4,25,E18_Q2_ansL.png,left,NA,NA,NA,left,1352,true,NA,NA,NA,NA,NA
C4FgLaFk,NA,NA,C4FgLaFk,2020-0188,2021-09-21,13:52:41,18:59:47,NA,incomplete,false,true,NA,4,26,E18_Q5_ansR.png,right,NA,NA,NA,right,1576,true,NA,NA,NA,NA,NA
C4FgLaFk,NA,NA,C4FgLaFk,2020-0188,2021-09-21,13:52:41,18:59:47,NA,incomplete,false,true,NA,4,27,E18_Q1_ansL.png,left,NA,NA,NA,left,1148,true,NA,NA,NA,NA,NA
C4FgLaFk,NA,NA,C4FgLaFk,2020-0188,2021-09-21,13:52:41,18:59:47,NA,incomplete,false,true,NA,4,28,E18_Q3_ansR.png,right,NA,NA,NA,right,993,true,NA,NA,NA,NA,NA
C4FgLaFk,NA,NA,C4FgLaFk,2020-0188,2021-09-21,13:52:41,18:59:47,NA,incomplete,false,true,NA,4,29,E18_Q8_ansL.png,left,NA,NA,NA,left,1486,true,NA,NA,NA,NA,NA
C4FgLaFk,NA,NA,C4FgLaFk,2020-0188,2021-09-21,13:52:41,18:59:47,NA,incomplete,false,NA,true,4,0,NA,left,E7_Q3_ansR.png,E7_Q5_ansR.png,within,NA,NaN,NA,left,3900,1,1,1140
C4FgLaFk,NA,NA,C4FgLaFk,2020-0188,2021-09-21,13:52:41,18:59:47,NA,incomplete,false,NA,true,4,1,NA,right,E26_Q10_ansL.png,E26_Q3_ansR.png,within,NA,NaN,NA,right,2240,1,1,1495.0000000018626
C4FgLaFk,NA,NA,C4FgLaFk,2020-0188,2021-09-21,13:52:41,18:59:47,NA,incomplete,false,NA,true,4,2,NA,left,E7_Q2_ansL.png,E7_Q9_ansR.png,within,NA,NaN,NA,right,3862.9999999981374,0,1,931
C4FgLaFk,NA,NA,C4FgLaFk,2020-0188,2021-09-21,13:52:41,18:59:47,NA,incomplete,false,NA,true,4,3,NA,right,E26_Q5_ansR.png,E7_Q10_ansR.png,between,NA,NaN,NA,right,4102,1,2,2381.0000000018626
C4FgLaFk,NA,NA,C4FgLaFk,2020-0188,2021-09-21,13:52:41,18:59:47,NA,incomplete,false,NA,true,4,4,NA,left,E18_Q10_ansL.png,E18_Q1_ansL.png,within,NA,NaN,NA,left,1779,1,1,1009
C4FgLaFk,NA,NA,C4FgLaFk,2020-0188,2021-09-21,13:52:41,18:59:47,NA,incomplete,false,NA,true,4,5,NA,left,E7_Q8_ansL.png,E7_Q4_ansR.png,within,NA,NaN,NA,left,2067.0000000018626,1,1,2361
C4FgLaFk,NA,NA,C4FgLaFk,2020-0188,2021-09-21,13:52:41,18:59:47,NA,incomplete,false,NA,true,4,6,NA,left,E26_Q8_ansL.png,E18_Q9_ansR.png,between,NA,NaN,NA,left,1755,1,2,2159
C4FgLaFk,NA,NA,C4FgLaFk,2020-0188,2021-09-21,13:52:41,18:59:47,NA,incomplete,false,NA,true,4,7,NA,right,E26_Q2_ansL.png,E26_Q1_ansL.png,within,NA,NaN,NA,right,3617,1,1,1407
C4FgLaFk,NA,NA,C4FgLaFk,2020-0188,2021-09-21,13:52:41,18:59:47,NA,incomplete,false,NA,true,4,8,NA,left,E7_Q6_ansR.png,E7_Q2_ansL.png,within,NA,NaN,NA,left,1708,1,1,2710
C4FgLaFk,NA,NA,C4FgLaFk,2020-0188,2021-09-21,13:52:41,18:59:47,NA,incomplete,false,NA,true,4,9,NA,right,E26_Q3_ansR.png,E7_Q4_ansR.png,between,NA,NaN,NA,right,4466,1,2,1405
C4FgLaFk,NA,NA,C4FgLaFk,2020-0188,2021-09-21,13:52:41,18:59:47,NA,incomplete,false,NA,true,4,10,NA,left,E18_Q6_ansR.png,E18_Q7_ansL.png,within,NA,NaN,NA,left,1740,1,1,1676
C4FgLaFk,NA,NA,C4FgLaFk,2020-0188,2021-09-21,13:52:41,18:59:47,NA,incomplete,false,NA,true,4,11,NA,right,E18_Q3_ansR.png,E18_Q2_ansL.png,within,NA,NaN,NA,left,2608,0,1,1443
C4FgLaFk,NA,NA,C4FgLaFk,2020-0188,2021-09-21,13:52:41,18:59:47,NA,incomplete,false,NA,true,4,12,NA,left,E26_Q10_ansL.png,E26_Q6_ansR.png,within,NA,NaN,NA,left,6696.000000001863,1,1,1422
C4FgLaFk,NA,NA,C4FgLaFk,2020-0188,2021-09-21,13:52:41,18:59:47,NA,incomplete,false,NA,true,4,13,NA,left,E7_Q9_ansR.png,E26_Q4_ansR.png,between,NA,NaN,NA,left,1531,1,1,7846
C4FgLaFk,NA,NA,C4FgLaFk,2020-0188,2021-09-21,13:52:41,18:59:47,NA,incomplete,false,NA,true,4,14,NA,left,E26_Q7_ansL.png,E26_Q8_ansL.png,within,NA,NaN,NA,left,4015.0000000018626,1,0,2098
C4FgLaFk,NA,NA,C4FgLaFk,2020-0188,2021-09-21,13:52:41,18:59:47,NA,incomplete,false,NA,true,4,15,NA,left,E18_Q4_ansR.png,E18_Q2_ansL.png,within,NA,NaN,NA,left,2313,1,1,1105
C4FgLaFk,NA,NA,C4FgLaFk,2020-0188,2021-09-21,13:52:41,18:59:47,NA,incomplete,false,NA,true,4,16,NA,left,E18_Q7_ansL.png,E18_Q5_ansR.png,within,NA,NaN,NA,left,1661,1,1,3036.9999999981374
C4FgLaFk,NA,NA,C4FgLaFk,2020-0188,2021-09-21,13:52:41,18:59:47,NA,incomplete,false,NA,true,4,17,NA,right,E18_Q8_ansL.png,E18_Q5_ansR.png,within,NA,NaN,NA,right,7623,1,0,5872
C4FgLaFk,NA,NA,C4FgLaFk,2020-0188,2021-09-21,13:52:41,18:59:47,NA,incomplete,false,NA,true,4,18,NA,left,E7_Q7_ansL.png,E7_Q3_ansR.png,within,NA,NaN,NA,left,2415,1,0,1661.0000000018626
C4FgLaFk,NA,NA,C4FgLaFk,2020-0188,2021-09-21,13:52:41,18:59:47,NA,incomplete,false,NA,true,4,19,NA,left,E18_Q9_ansR.png,E18_Q10_ansL.png,within,NA,NaN,NA,left,1906,1,1,1256
C4FgLaFk,NA,NA,C4FgLaFk,2020-0188,2021-09-21,13:52:41,18:59:47,NA,incomplete,false,NA,true,4,20,NA,left,E26_Q4_ansR.png,E26_Q9_ansR.png,within,NA,NaN,NA,left,1478,1,1,1525.9999999981374
C4FgLaFk,NA,NA,C4FgLaFk,2020-0188,2021-09-21,13:52:41,18:59:47,NA,incomplete,false,NA,true,4,21,NA,right,E26_Q1_ansL.png,E26_Q9_ansR.png,within,NA,NaN,NA,right,6724,1,1,1263
C4FgLaFk,NA,NA,C4FgLaFk,2020-0188,2021-09-21,13:52:41,18:59:47,NA,incomplete,false,NA,true,4,22,NA,right,E18_Q6_ansR.png,E26_Q6_ansR.png,between,NA,NaN,NA,right,1891,1,1,3267.0000000018626
C4FgLaFk,NA,NA,C4FgLaFk,2020-0188,2021-09-21,13:52:41,18:59:47,NA,incomplete,false,NA,true,4,23,NA,left,E7_Q5_ansR.png,E7_Q10_ansR.png,within,NA,NaN,NA,left,3578,1,0,4555
C4FgLaFk,NA,NA,C4FgLaFk,2020-0188,2021-09-21,13:52:41,18:59:47,NA,incomplete,false,NA,true,4,24,NA,right,E7_Q8_ansL.png,E7_Q1_ansL.png,within,NA,NaN,NA,left,4019,0,0,1893
C4FgLaFk,NA,NA,C4FgLaFk,2020-0188,2021-09-21,13:52:41,18:59:47,NA,incomplete,false,NA,true,4,25,NA,right,E26_Q7_ansL.png,E26_Q5_ansR.png,within,NA,NaN,NA,right,3178.0000000018626,1,1,904
C4FgLaFk,NA,NA,C4FgLaFk,2020-0188,2021-09-21,13:52:41,18:59:47,NA,incomplete,false,NA,true,4,26,NA,right,E18_Q4_ansR.png,E26_Q2_ansL.png,between,NA,NaN,NA,right,1754.0000000018626,1,2,2146
C4FgLaFk,NA,NA,C4FgLaFk,2020-0188,2021-09-21,13:52:41,18:59:47,NA,incomplete,false,true,NA,5,0,E9_Q2_ansR.png,right,NA,NA,NA,right,1578,true,NA,NA,NA,NA,NA
C4FgLaFk,NA,NA,C4FgLaFk,2020-0188,2021-09-21,13:52:41,18:59:47,NA,incomplete,false,true,NA,5,1,E9_Q9_ansL.png,left,NA,NA,NA,left,1677,true,NA,NA,NA,NA,NA
C4FgLaFk,NA,NA,C4FgLaFk,2020-0188,2021-09-21,13:52:41,18:59:47,NA,incomplete,false,true,NA,5,2,E9_Q10_ansR.png,right,NA,NA,NA,right,1214,true,NA,NA,NA,NA,NA
C4FgLaFk,NA,NA,C4FgLaFk,2020-0188,2021-09-21,13:52:41,18:59:47,NA,incomplete,false,true,NA,5,3,E9_Q4_ansL.png,left,NA,NA,NA,left,2101,true,NA,NA,NA,NA,NA
C4FgLaFk,NA,NA,C4FgLaFk,2020-0188,2021-09-21,13:52:41,18:59:47,NA,incomplete,false,true,NA,5,4,E9_Q6_ansL.png,left,NA,NA,NA,left,1771,true,NA,NA,NA,NA,NA
C4FgLaFk,NA,NA,C4FgLaFk,2020-0188,2021-09-21,13:52:41,18:59:47,NA,incomplete,false,true,NA,5,5,E9_Q3_ansL.png,left,NA,NA,NA,left,1668,true,NA,NA,NA,NA,NA
C4FgLaFk,NA,NA,C4FgLaFk,2020-0188,2021-09-21,13:52:41,18:59:47,NA,incomplete,false,true,NA,5,6,E9_Q1_ansR.png,right,NA,NA,NA,right,1990,true,NA,NA,NA,NA,NA
C4FgLaFk,NA,NA,C4FgLaFk,2020-0188,2021-09-21,13:52:41,18:59:47,NA,incomplete,false,true,NA,5,7,E9_Q8_ansR.png,right,NA,NA,NA,right,1367,true,NA,NA,NA,NA,NA
C4FgLaFk,NA,NA,C4FgLaFk,2020-0188,2021-09-21,13:52:41,18:59:47,NA,incomplete,false,true,NA,5,8,E9_Q7_ansR.png,right,NA,NA,NA,right,2292,true,NA,NA,NA,NA,NA
C4FgLaFk,NA,NA,C4FgLaFk,2020-0188,2021-09-21,13:52:41,18:59:47,NA,incomplete,false,true,NA,5,9,E9_Q5_ansL.png,left,NA,NA,NA,right,1825,false,NA,NA,NA,NA,NA
C4FgLaFk,NA,NA,C4FgLaFk,2020-0188,2021-09-21,13:52:41,18:59:47,NA,incomplete,false,true,NA,5,10,E25_Q8_ansR.png,right,NA,NA,NA,right,1888,true,NA,NA,NA,NA,NA
C4FgLaFk,NA,NA,C4FgLaFk,2020-0188,2021-09-21,13:52:41,18:59:47,NA,incomplete,false,true,NA,5,11,E25_Q3_ansL.png,left,NA,NA,NA,none,0,false,NA,NA,NA,NA,NA
C4FgLaFk,NA,NA,C4FgLaFk,2020-0188,2021-09-21,13:52:41,18:59:47,NA,incomplete,false,true,NA,5,12,E25_Q5_ansL.png,left,NA,NA,NA,none,0,false,NA,NA,NA,NA,NA
C4FgLaFk,NA,NA,C4FgLaFk,2020-0188,2021-09-21,13:52:41,18:59:47,NA,incomplete,false,true,NA,5,13,E25_Q9_ansL.png,left,NA,NA,NA,left,2180.00000000186,true,NA,NA,NA,NA,NA
C4FgLaFk,NA,NA,C4FgLaFk,2020-0188,2021-09-21,13:52:41,18:59:47,NA,incomplete,false,true,NA,5,14,E25_Q7_ansR.png,right,NA,NA,NA,left,3123,false,NA,NA,NA,NA,NA
C4FgLaFk,NA,NA,C4FgLaFk,2020-0188,2021-09-21,13:52:41,18:59:47,NA,incomplete,false,true,NA,5,15,E25_Q6_ansL.png,left,NA,NA,NA,left,1466,true,NA,NA,NA,NA,NA
C4FgLaFk,NA,NA,C4FgLaFk,2020-0188,2021-09-21,13:52:41,18:59:47,NA,incomplete,false,true,NA,5,16,E25_Q4_ansL.png,left,NA,NA,NA,left,2016.00000000186,true,NA,NA,NA,NA,NA
C4FgLaFk,NA,NA,C4FgLaFk,2020-0188,2021-09-21,13:52:41,18:59:47,NA,incomplete,false,true,NA,5,17,E25_Q10_ansR.png,right,NA,NA,NA,right,2082,true,NA,NA,NA,NA,NA
C4FgLaFk,NA,NA,C4FgLaFk,2020-0188,2021-09-21,13:52:41,18:59:47,NA,incomplete,false,true,NA,5,18,E25_Q2_ansR.png,right,NA,NA,NA,right,1821,true,NA,NA,NA,NA,NA
C4FgLaFk,NA,NA,C4FgLaFk,2020-0188,2021-09-21,13:52:41,18:59:47,NA,incomplete,false,true,NA,5,19,E25_Q1_ansR.png,right,NA,NA,NA,right,1506,true,NA,NA,NA,NA,NA
C4FgLaFk,NA,NA,C4FgLaFk,2020-0188,2021-09-21,13:52:41,18:59:47,NA,incomplete,false,true,NA,5,20,E21_Q5_ansR.png,right,NA,NA,NA,right,1512,true,NA,NA,NA,NA,NA
C4FgLaFk,NA,NA,C4FgLaFk,2020-0188,2021-09-21,13:52:41,18:59:47,NA,incomplete,false,true,NA,5,21,E21_Q3_ansR.png,right,NA,NA,NA,right,1442,true,NA,NA,NA,NA,NA
C4FgLaFk,NA,NA,C4FgLaFk,2020-0188,2021-09-21,13:52:41,18:59:47,NA,incomplete,false,true,NA,5,22,E21_Q2_ansL.png,left,NA,NA,NA,left,1045,true,NA,NA,NA,NA,NA
C4FgLaFk,NA,NA,C4FgLaFk,2020-0188,2021-09-21,13:52:41,18:59:47,NA,incomplete,false,true,NA,5,23,E21_Q6_ansR.png,right,NA,NA,NA,right,1063.99999999814,true,NA,NA,NA,NA,NA
C4FgLaFk,NA,NA,C4FgLaFk,2020-0188,2021-09-21,13:52:41,18:59:47,NA,incomplete,false,true,NA,5,24,E21_Q10_ansL.png,left,NA,NA,NA,left,1198,true,NA,NA,NA,NA,NA
C4FgLaFk,NA,NA,C4FgLaFk,2020-0188,2021-09-21,13:52:41,18:59:47,NA,incomplete,false,true,NA,5,25,E21_Q8_ansL.png,left,NA,NA,NA,left,1397,true,NA,NA,NA,NA,NA
C4FgLaFk,NA,NA,C4FgLaFk,2020-0188,2021-09-21,13:52:41,18:59:47,NA,incomplete,false,true,NA,5,26,E21_Q9_ansR.png,right,NA,NA,NA,right,2177,true,NA,NA,NA,NA,NA
C4FgLaFk,NA,NA,C4FgLaFk,2020-0188,2021-09-21,13:52:41,18:59:47,NA,incomplete,false,true,NA,5,27,E21_Q7_ansL.png,left,NA,NA,NA,left,988,true,NA,NA,NA,NA,NA
C4FgLaFk,NA,NA,C4FgLaFk,2020-0188,2021-09-21,13:52:41,18:59:47,NA,incomplete,false,true,NA,5,28,E21_Q4_ansR.png,right,NA,NA,NA,right,1090,true,NA,NA,NA,NA,NA
C4FgLaFk,NA,NA,C4FgLaFk,2020-0188,2021-09-21,13:52:41,18:59:47,NA,incomplete,false,true,NA,5,29,E21_Q1_ansL.png,left,NA,NA,NA,left,2423.00000000186,true,NA,NA,NA,NA,NA
C4FgLaFk,NA,NA,C4FgLaFk,2020-0188,2021-09-21,13:52:41,18:59:47,NA,incomplete,false,NA,true,5,0,NA,left,E25_Q4_ansL.png,E25_Q1_ansR.png,within,NA,NaN,NA,left,8314.000000001863,1,0,2171
C4FgLaFk,NA,NA,C4FgLaFk,2020-0188,2021-09-21,13:52:41,18:59:47,NA,incomplete,false,NA,true,5,1,NA,left,E9_Q6_ansL.png,E9_Q8_ansR.png,within,NA,NaN,NA,left,1899,1,1,1233
C4FgLaFk,NA,NA,C4FgLaFk,2020-0188,2021-09-21,13:52:41,18:59:47,NA,incomplete,false,NA,true,5,2,NA,left,E25_Q7_ansR.png,E25_Q10_ansR.png,within,NA,NaN,NA,left,1892,1,1,1216
C4FgLaFk,NA,NA,C4FgLaFk,2020-0188,2021-09-21,13:52:41,18:59:47,NA,incomplete,false,NA,true,5,3,NA,left,E21_Q6_ansR.png,E21_Q9_ansR.png,within,NA,NaN,NA,left,1780,1,1,1815
C4FgLaFk,NA,NA,C4FgLaFk,2020-0188,2021-09-21,13:52:41,18:59:47,NA,incomplete,false,NA,true,5,4,NA,left,E9_Q9_ansL.png,E9_Q6_ansL.png,within,NA,NaN,NA,left,2708,1,1,1098
C4FgLaFk,NA,NA,C4FgLaFk,2020-0188,2021-09-21,13:52:41,18:59:47,NA,incomplete,false,NA,true,5,5,NA,right,E9_Q1_ansR.png,E9_Q4_ansL.png,within,NA,NaN,NA,right,2296,1,1,1136.0000000018626
C4FgLaFk,NA,NA,C4FgLaFk,2020-0188,2021-09-21,13:52:41,18:59:47,NA,incomplete,false,NA,true,5,6,NA,left,E25_Q2_ansR.png,E21_Q3_ansR.png,between,NA,NaN,NA,left,2375,1,2,1263.9999999981374
C4FgLaFk,NA,NA,C4FgLaFk,2020-0188,2021-09-21,13:52:41,18:59:47,NA,incomplete,false,NA,true,5,7,NA,left,E21_Q10_ansL.png,E21_Q7_ansL.png,within,NA,NaN,NA,left,3536,1,1,1152
C4FgLaFk,NA,NA,C4FgLaFk,2020-0188,2021-09-21,13:52:41,18:59:47,NA,incomplete,false,NA,true,5,8,NA,left,E21_Q8_ansL.png,E21_Q4_ansR.png,within,NA,NaN,NA,left,5030.000000001863,1,1,1222
C4FgLaFk,NA,NA,C4FgLaFk,2020-0188,2021-09-21,13:52:41,18:59:47,NA,incomplete,false,NA,true,5,9,NA,right,E25_Q5_ansL.png,E9_Q5_ansL.png,between,NA,NaN,NA,right,2321.0000000018626,1,2,1089
C4FgLaFk,NA,NA,C4FgLaFk,2020-0188,2021-09-21,13:52:41,18:59:47,NA,incomplete,false,NA,true,5,10,NA,left,E9_Q3_ansL.png,E9_Q7_ansR.png,within,NA,NaN,NA,right,4619,0,1,1146
C4FgLaFk,NA,NA,C4FgLaFk,2020-0188,2021-09-21,13:52:41,18:59:47,NA,incomplete,false,NA,true,5,11,NA,right,E9_Q4_ansL.png,E9_Q2_ansR.png,within,NA,NaN,NA,left,1675.9999999981374,0,1,2288
C4FgLaFk,NA,NA,C4FgLaFk,2020-0188,2021-09-21,13:52:41,18:59:47,NA,incomplete,false,NA,true,5,12,NA,left,E9_Q10_ansR.png,E9_Q3_ansL.png,within,NA,NaN,NA,left,3966,1,2,1693
C4FgLaFk,NA,NA,C4FgLaFk,2020-0188,2021-09-21,13:52:41,18:59:47,NA,incomplete,false,NA,true,5,13,NA,left,E25_Q3_ansL.png,E25_Q7_ansR.png,within,NA,NaN,NA,left,1733,1,0,1232
C4FgLaFk,NA,NA,C4FgLaFk,2020-0188,2021-09-21,13:52:41,18:59:47,NA,incomplete,false,NA,true,5,14,NA,right,E25_Q4_ansL.png,E25_Q9_ansL.png,within,NA,NaN,NA,right,1914,1,1,1383
C4FgLaFk,NA,NA,C4FgLaFk,2020-0188,2021-09-21,13:52:41,18:59:47,NA,incomplete,false,NA,true,5,15,NA,right,E25_Q3_ansL.png,E9_Q7_ansR.png,between,NA,NaN,NA,right,1811,1,1,4221
C4FgLaFk,NA,NA,C4FgLaFk,2020-0188,2021-09-21,13:52:41,18:59:47,NA,incomplete,false,NA,true,5,16,NA,right,E21_Q8_ansL.png,E21_Q2_ansL.png,within,NA,NaN,NA,right,3275,1,1,1351.9999999981374
C4FgLaFk,NA,NA,C4FgLaFk,2020-0188,2021-09-21,13:52:41,18:59:47,NA,incomplete,false,NA,true,5,17,NA,left,E9_Q8_ansR.png,E25_Q8_ansR.png,between,NA,NaN,NA,left,2059.9999999981374,1,2,1230
C4FgLaFk,NA,NA,C4FgLaFk,2020-0188,2021-09-21,13:52:41,18:59:47,NA,incomplete,false,NA,true,5,18,NA,left,E25_Q10_ansR.png,E21_Q5_ansR.png,between,NA,NaN,NA,left,1931,1,2,1095
C4FgLaFk,NA,NA,C4FgLaFk,2020-0188,2021-09-21,13:52:41,18:59:47,NA,incomplete,false,NA,true,5,19,NA,right,E25_Q2_ansR.png,E25_Q6_ansL.png,within,NA,NaN,NA,right,3488.9999999981374,1,1,2336
C4FgLaFk,NA,NA,C4FgLaFk,2020-0188,2021-09-21,13:52:41,18:59:47,NA,incomplete,false,NA,true,5,20,NA,right,E9_Q5_ansL.png,E9_Q1_ansR.png,within,NA,NaN,NA,right,5898,1,1,976.0000000018626
C4FgLaFk,NA,NA,C4FgLaFk,2020-0188,2021-09-21,13:52:41,18:59:47,NA,incomplete,false,NA,true,5,21,NA,right,E21_Q2_ansL.png,E25_Q1_ansR.png,between,NA,NaN,NA,right,2947,1,1,1097
C4FgLaFk,NA,NA,C4FgLaFk,2020-0188,2021-09-21,13:52:41,18:59:47,NA,incomplete,false,NA,true,5,22,NA,right,E25_Q9_ansL.png,E25_Q8_ansR.png,within,NA,NaN,NA,right,1327,1,0,1034
C4FgLaFk,NA,NA,C4FgLaFk,2020-0188,2021-09-21,13:52:41,18:59:47,NA,incomplete,false,NA,true,5,23,NA,left,E21_Q5_ansR.png,E21_Q6_ansR.png,within,NA,NaN,NA,left,7338,1,1,1581
C4FgLaFk,NA,NA,C4FgLaFk,2020-0188,2021-09-21,13:52:41,18:59:47,NA,incomplete,false,NA,true,5,24,NA,left,E25_Q5_ansL.png,E25_Q6_ansL.png,within,NA,NaN,NA,left,1742,1,1,2815
C4FgLaFk,NA,NA,C4FgLaFk,2020-0188,2021-09-21,13:52:41,18:59:47,NA,incomplete,false,NA,true,5,25,NA,left,E21_Q9_ansR.png,E21_Q1_ansL.png,within,NA,NaN,NA,left,6457.000000001863,1,1,1233
C4FgLaFk,NA,NA,C4FgLaFk,2020-0188,2021-09-21,13:52:41,18:59:47,NA,incomplete,false,NA,true,5,26,NA,right,E21_Q10_ansL.png,E21_Q3_ansR.png,within,NA,NaN,NA,right,1947,1,1,1104
C4FgLaFk,NA,NA,C4FgLaFk,2020-0188,2021-09-21,13:52:41,18:59:47,NA,incomplete,false,true,NA,6,0,E15_Q1_ansL.png,left,NA,NA,NA,left,2696,true,NA,NA,NA,NA,NA
C4FgLaFk,NA,NA,C4FgLaFk,2020-0188,2021-09-21,13:52:41,18:59:47,NA,incomplete,false,true,NA,6,1,E15_Q6_ansR.png,right,NA,NA,NA,right,1182,true,NA,NA,NA,NA,NA
C4FgLaFk,NA,NA,C4FgLaFk,2020-0188,2021-09-21,13:52:41,18:59:47,NA,incomplete,false,true,NA,6,2,E15_Q2_ansL.png,left,NA,NA,NA,left,899,true,NA,NA,NA,NA,NA
C4FgLaFk,NA,NA,C4FgLaFk,2020-0188,2021-09-21,13:52:41,18:59:47,NA,incomplete,false,true,NA,6,3,E15_Q4_ansR.png,right,NA,NA,NA,right,1077,true,NA,NA,NA,NA,NA
C4FgLaFk,NA,NA,C4FgLaFk,2020-0188,2021-09-21,13:52:41,18:59:47,NA,incomplete,false,true,NA,6,4,E15_Q9_ansR.png,right,NA,NA,NA,right,1889,true,NA,NA,NA,NA,NA
C4FgLaFk,NA,NA,C4FgLaFk,2020-0188,2021-09-21,13:52:41,18:59:47,NA,incomplete,false,true,NA,6,5,E15_Q3_ansR.png,right,NA,NA,NA,right,1910,true,NA,NA,NA,NA,NA
C4FgLaFk,NA,NA,C4FgLaFk,2020-0188,2021-09-21,13:52:41,18:59:47,NA,incomplete,false,true,NA,6,6,E15_Q8_ansL.png,left,NA,NA,NA,left,1298,true,NA,NA,NA,NA,NA
C4FgLaFk,NA,NA,C4FgLaFk,2020-0188,2021-09-21,13:52:41,18:59:47,NA,incomplete,false,true,NA,6,7,E15_Q5_ansR.png,right,NA,NA,NA,right,1255.00000000186,true,NA,NA,NA,NA,NA
C4FgLaFk,NA,NA,C4FgLaFk,2020-0188,2021-09-21,13:52:41,18:59:47,NA,incomplete,false,true,NA,6,8,E15_Q10_ansL.png,left,NA,NA,NA,left,1166,true,NA,NA,NA,NA,NA
C4FgLaFk,NA,NA,C4FgLaFk,2020-0188,2021-09-21,13:52:41,18:59:47,NA,incomplete,false,true,NA,6,9,E15_Q7_ansL.png,left,NA,NA,NA,left,285,true,NA,NA,NA,NA,NA
C4FgLaFk,NA,NA,C4FgLaFk,2020-0188,2021-09-21,13:52:41,18:59:47,NA,incomplete,false,true,NA,6,10,E33_Q7_ansL.png,left,NA,NA,NA,left,3169,true,NA,NA,NA,NA,NA
C4FgLaFk,NA,NA,C4FgLaFk,2020-0188,2021-09-21,13:52:41,18:59:47,NA,incomplete,false,true,NA,6,11,E33_Q9_ansR.png,right,NA,NA,NA,left,2036,false,NA,NA,NA,NA,NA
C4FgLaFk,NA,NA,C4FgLaFk,2020-0188,2021-09-21,13:52:41,18:59:47,NA,incomplete,false,true,NA,6,12,E33_Q2_ansL.png,left,NA,NA,NA,left,1720,true,NA,NA,NA,NA,NA
C4FgLaFk,NA,NA,C4FgLaFk,2020-0188,2021-09-21,13:52:41,18:59:47,NA,incomplete,false,true,NA,6,13,E33_Q8_ansL.png,left,NA,NA,NA,left,2202,true,NA,NA,NA,NA,NA
C4FgLaFk,NA,NA,C4FgLaFk,2020-0188,2021-09-21,13:52:41,18:59:47,NA,incomplete,false,true,NA,6,14,E33_Q10_ansL.png,left,NA,NA,NA,left,2346,true,NA,NA,NA,NA,NA
C4FgLaFk,NA,NA,C4FgLaFk,2020-0188,2021-09-21,13:52:41,18:59:47,NA,incomplete,false,true,NA,6,15,E33_Q3_ansR.png,right,NA,NA,NA,none,0,false,NA,NA,NA,NA,NA
C4FgLaFk,NA,NA,C4FgLaFk,2020-0188,2021-09-21,13:52:41,18:59:47,NA,incomplete,false,true,NA,6,16,E33_Q6_ansR.png,right,NA,NA,NA,right,1625,true,NA,NA,NA,NA,NA
C4FgLaFk,NA,NA,C4FgLaFk,2020-0188,2021-09-21,13:52:41,18:59:47,NA,incomplete,false,true,NA,6,17,E33_Q4_ansR.png,right,NA,NA,NA,right,2057,true,NA,NA,NA,NA,NA
C4FgLaFk,NA,NA,C4FgLaFk,2020-0188,2021-09-21,13:52:41,18:59:47,NA,incomplete,false,true,NA,6,18,E33_Q5_ansR.png,right,NA,NA,NA,right,1812,true,NA,NA,NA,NA,NA
C4FgLaFk,NA,NA,C4FgLaFk,2020-0188,2021-09-21,13:52:41,18:59:47,NA,incomplete,false,true,NA,6,19,E33_Q1_ansL.png,left,NA,NA,NA,right,2679,false,NA,NA,NA,NA,NA
C4FgLaFk,NA,NA,C4FgLaFk,2020-0188,2021-09-21,13:52:41,18:59:47,NA,incomplete,false,true,NA,6,20,E28_Q4_ansL.png,left,NA,NA,NA,left,2207,true,NA,NA,NA,NA,NA
C4FgLaFk,NA,NA,C4FgLaFk,2020-0188,2021-09-21,13:52:41,18:59:47,NA,incomplete,false,true,NA,6,21,E28_Q7_ansR.png,right,NA,NA,NA,right,1134,true,NA,NA,NA,NA,NA
C4FgLaFk,NA,NA,C4FgLaFk,2020-0188,2021-09-21,13:52:41,18:59:47,NA,incomplete,false,true,NA,6,22,E28_Q6_ansL.png,left,NA,NA,NA,left,1254,true,NA,NA,NA,NA,NA
C4FgLaFk,NA,NA,C4FgLaFk,2020-0188,2021-09-21,13:52:41,18:59:47,NA,incomplete,false,true,NA,6,23,E28_Q9_ansL.png,left,NA,NA,NA,left,1225,true,NA,NA,NA,NA,NA
C4FgLaFk,NA,NA,C4FgLaFk,2020-0188,2021-09-21,13:52:41,18:59:47,NA,incomplete,false,true,NA,6,24,E28_Q3_ansL.png,left,NA,NA,NA,left,1652,true,NA,NA,NA,NA,NA
C4FgLaFk,NA,NA,C4FgLaFk,2020-0188,2021-09-21,13:52:41,18:59:47,NA,incomplete,false,true,NA,6,25,E28_Q10_ansR.png,right,NA,NA,NA,right,1272,true,NA,NA,NA,NA,NA
C4FgLaFk,NA,NA,C4FgLaFk,2020-0188,2021-09-21,13:52:41,18:59:47,NA,incomplete,false,true,NA,6,26,E28_Q5_ansL.png,left,NA,NA,NA,left,1173,true,NA,NA,NA,NA,NA
C4FgLaFk,NA,NA,C4FgLaFk,2020-0188,2021-09-21,13:52:41,18:59:47,NA,incomplete,false,true,NA,6,27,E28_Q2_ansR.png,right,NA,NA,NA,right,1604,true,NA,NA,NA,NA,NA
C4FgLaFk,NA,NA,C4FgLaFk,2020-0188,2021-09-21,13:52:41,18:59:47,NA,incomplete,false,true,NA,6,28,E28_Q1_ansR.png,right,NA,NA,NA,right,1866,true,NA,NA,NA,NA,NA
C4FgLaFk,NA,NA,C4FgLaFk,2020-0188,2021-09-21,13:52:41,18:59:47,NA,incomplete,false,true,NA,6,29,E28_Q8_ansR.png,right,NA,NA,NA,right,1199,true,NA,NA,NA,NA,NA
C4FgLaFk,NA,NA,C4FgLaFk,2020-0188,2021-09-21,13:52:41,18:59:47,NA,incomplete,false,NA,true,6,0,NA,left,E28_Q7_ansR.png,E28_Q3_ansL.png,within,NA,NaN,NA,left,2826,1,1,1175
C4FgLaFk,NA,NA,C4FgLaFk,2020-0188,2021-09-21,13:52:41,18:59:47,NA,incomplete,false,NA,true,6,1,NA,left,E28_Q3_ansL.png,E28_Q2_ansR.png,within,NA,NaN,NA,left,1471,1,1,1573
C4FgLaFk,NA,NA,C4FgLaFk,2020-0188,2021-09-21,13:52:41,18:59:47,NA,incomplete,false,NA,true,6,2,NA,left,E15_Q2_ansL.png,E15_Q3_ansR.png,within,NA,NaN,NA,left,2788.0000000018626,1,1,1415
C4FgLaFk,NA,NA,C4FgLaFk,2020-0188,2021-09-21,13:52:41,18:59:47,NA,incomplete,false,NA,true,6,3,NA,right,E33_Q3_ansR.png,E33_Q2_ansL.png,within,NA,NaN,NA,right,2382.9999999981374,1,1,1025
C4FgLaFk,NA,NA,C4FgLaFk,2020-0188,2021-09-21,13:52:41,18:59:47,NA,incomplete,false,NA,true,6,4,NA,left,E33_Q9_ansR.png,E33_Q10_ansL.png,within,NA,NaN,NA,left,2225,1,1,2655
C4FgLaFk,NA,NA,C4FgLaFk,2020-0188,2021-09-21,13:52:41,18:59:47,NA,incomplete,false,NA,true,6,5,NA,left,E15_Q6_ansR.png,E15_Q9_ansR.png,within,NA,NaN,NA,left,8558.000000001863,1,0,1137
C4FgLaFk,NA,NA,C4FgLaFk,2020-0188,2021-09-21,13:52:41,18:59:47,NA,incomplete,false,NA,true,6,6,NA,left,E15_Q10_ansL.png,E33_Q9_ansR.png,between,NA,NaN,NA,right,16212.000000001863,0,2,1915
C4FgLaFk,NA,NA,C4FgLaFk,2020-0188,2021-09-21,13:52:41,18:59:47,NA,incomplete,false,NA,true,6,7,NA,right,E15_Q8_ansL.png,E15_Q4_ansR.png,within,NA,NaN,NA,right,3489,1,0,3164
C4FgLaFk,NA,NA,C4FgLaFk,2020-0188,2021-09-21,13:52:41,18:59:47,NA,incomplete,false,NA,true,6,8,NA,right,E33_Q7_ansL.png,E15_Q5_ansR.png,between,NA,NaN,NA,left,2694,0,2,2098
C4FgLaFk,NA,NA,C4FgLaFk,2020-0188,2021-09-21,13:52:41,18:59:47,NA,incomplete,false,NA,true,6,9,NA,left,E33_Q10_ansL.png,E33_Q4_ansR.png,within,NA,NaN,NA,left,9110,1,0,1700
C4FgLaFk,NA,NA,C4FgLaFk,2020-0188,2021-09-21,13:52:41,18:59:47,NA,incomplete,false,NA,true,6,10,NA,right,E28_Q6_ansL.png,E33_Q1_ansL.png,between,NA,NaN,NA,right,2041,1,3,3146.9999999981374
C4FgLaFk,NA,NA,C4FgLaFk,2020-0188,2021-09-21,13:52:41,18:59:47,NA,incomplete,false,NA,true,6,11,NA,left,E28_Q10_ansR.png,E28_Q1_ansR.png,within,NA,NaN,NA,left,3068,1,1,1447
C4FgLaFk,NA,NA,C4FgLaFk,2020-0188,2021-09-21,13:52:41,18:59:47,NA,incomplete,false,NA,true,6,12,NA,right,E15_Q7_ansL.png,E15_Q8_ansL.png,within,NA,NaN,NA,left,7172,0,1,1422.9999999981374
C4FgLaFk,NA,NA,C4FgLaFk,2020-0188,2021-09-21,13:52:41,18:59:47,NA,incomplete,false,NA,true,6,13,NA,right,E28_Q10_ansR.png,E28_Q6_ansL.png,within,NA,NaN,NA,right,1357,1,1,1303
C4FgLaFk,NA,NA,C4FgLaFk,2020-0188,2021-09-21,13:52:41,18:59:47,NA,incomplete,false,NA,true,6,14,NA,right,E33_Q5_ansR.png,E33_Q3_ansR.png,within,NA,NaN,NA,right,3012,1,1,1215
C4FgLaFk,NA,NA,C4FgLaFk,2020-0188,2021-09-21,13:52:41,18:59:47,NA,incomplete,false,NA,true,6,15,NA,left,E15_Q1_ansL.png,E15_Q4_ansR.png,within,NA,NaN,NA,left,4268,1,1,1176
C4FgLaFk,NA,NA,C4FgLaFk,2020-0188,2021-09-21,13:52:41,18:59:47,NA,incomplete,false,NA,true,6,16,NA,right,E28_Q9_ansL.png,E28_Q4_ansL.png,within,NA,NaN,NA,right,1786,1,2,1788
C4FgLaFk,NA,NA,C4FgLaFk,2020-0188,2021-09-21,13:52:41,18:59:47,NA,incomplete,false,NA,true,6,17,NA,right,E33_Q8_ansL.png,E33_Q7_ansL.png,within,NA,NaN,NA,right,9785,1,1,1089
C4FgLaFk,NA,NA,C4FgLaFk,2020-0188,2021-09-21,13:52:41,18:59:47,NA,incomplete,false,NA,true,6,18,NA,left,E15_Q9_ansR.png,E15_Q5_ansR.png,within,NA,NaN,NA,left,5174,1,1,1183.0000000018626
C4FgLaFk,NA,NA,C4FgLaFk,2020-0188,2021-09-21,13:52:41,18:59:47,NA,incomplete,false,NA,true,6,19,NA,right,E33_Q1_ansL.png,E33_Q6_ansR.png,within,NA,NaN,NA,right,2797,1,1,1152.9999999981374
C4FgLaFk,NA,NA,C4FgLaFk,2020-0188,2021-09-21,13:52:41,18:59:47,NA,incomplete,false,NA,true,6,20,NA,right,E15_Q10_ansL.png,E15_Q3_ansR.png,within,NA,NaN,NA,right,3799,1,1,1811
C4FgLaFk,NA,NA,C4FgLaFk,2020-0188,2021-09-21,13:52:41,18:59:47,NA,incomplete,false,NA,true,6,21,NA,left,E33_Q5_ansR.png,E28_Q7_ansR.png,between,NA,NaN,NA,left,1468.9999999981374,1,3,1096
C4FgLaFk,NA,NA,C4FgLaFk,2020-0188,2021-09-21,13:52:41,18:59:47,NA,incomplete,false,NA,true,6,22,NA,left,E28_Q5_ansL.png,E28_Q8_ansR.png,within,NA,NaN,NA,left,2858.0000000018626,1,1,938
C4FgLaFk,NA,NA,C4FgLaFk,2020-0188,2021-09-21,13:52:41,18:59:47,NA,incomplete,false,NA,true,6,23,NA,right,E33_Q2_ansL.png,E15_Q7_ansL.png,between,NA,NaN,NA,left,2860.9999999981374,0,2,11708
C4FgLaFk,NA,NA,C4FgLaFk,2020-0188,2021-09-21,13:52:41,18:59:47,NA,incomplete,false,NA,true,6,24,NA,right,E33_Q6_ansR.png,E33_Q8_ansL.png,within,NA,NaN,NA,right,4069,1,1,2288
C4FgLaFk,NA,NA,C4FgLaFk,2020-0188,2021-09-21,13:52:41,18:59:47,NA,incomplete,false,NA,true,6,25,NA,left,E33_Q4_ansR.png,E28_Q4_ansL.png,between,NA,NaN,NA,left,2241,1,3,2743
C4FgLaFk,NA,NA,C4FgLaFk,2020-0188,2021-09-21,13:52:41,18:59:47,NA,incomplete,false,NA,true,6,26,NA,left,E28_Q9_ansL.png,E28_Q5_ansL.png,within,NA,NaN,NA,right,3029,0,1,1432
C4FgLaFk,NA,NA,C4FgLaFk,2020-0188,2021-09-21,13:52:41,18:59:47,NA,incomplete,false,true,NA,7,0,E6_Q2_ansL.png,left,NA,NA,NA,left,1813.99999999814,true,NA,NA,NA,NA,NA
C4FgLaFk,NA,NA,C4FgLaFk,2020-0188,2021-09-21,13:52:41,18:59:47,NA,incomplete,false,true,NA,7,1,E6_Q1_ansL.png,left,NA,NA,NA,left,1282,true,NA,NA,NA,NA,NA
C4FgLaFk,NA,NA,C4FgLaFk,2020-0188,2021-09-21,13:52:41,18:59:47,NA,incomplete,false,true,NA,7,2,E6_Q9_ansL.png,left,NA,NA,NA,left,1634,true,NA,NA,NA,NA,NA
C4FgLaFk,NA,NA,C4FgLaFk,2020-0188,2021-09-21,13:52:41,18:59:47,NA,incomplete,false,true,NA,7,3,E6_Q5_ansR.png,right,NA,NA,NA,right,1186,true,NA,NA,NA,NA,NA
C4FgLaFk,NA,NA,C4FgLaFk,2020-0188,2021-09-21,13:52:41,18:59:47,NA,incomplete,false,true,NA,7,4,E6_Q8_ansL.png,left,NA,NA,NA,left,1161,true,NA,NA,NA,NA,NA
C4FgLaFk,NA,NA,C4FgLaFk,2020-0188,2021-09-21,13:52:41,18:59:47,NA,incomplete,false,true,NA,7,5,E6_Q10_ansL.png,left,NA,NA,NA,left,2066,true,NA,NA,NA,NA,NA
C4FgLaFk,NA,NA,C4FgLaFk,2020-0188,2021-09-21,13:52:41,18:59:47,NA,incomplete,false,true,NA,7,6,E6_Q6_ansR.png,right,NA,NA,NA,right,1782,true,NA,NA,NA,NA,NA
C4FgLaFk,NA,NA,C4FgLaFk,2020-0188,2021-09-21,13:52:41,18:59:47,NA,incomplete,false,true,NA,7,7,E6_Q7_ansL.png,left,NA,NA,NA,left,2153,true,NA,NA,NA,NA,NA
C4FgLaFk,NA,NA,C4FgLaFk,2020-0188,2021-09-21,13:52:41,18:59:47,NA,incomplete,false,true,NA,7,8,E6_Q4_ansR.png,right,NA,NA,NA,right,1596,true,NA,NA,NA,NA,NA
C4FgLaFk,NA,NA,C4FgLaFk,2020-0188,2021-09-21,13:52:41,18:59:47,NA,incomplete,false,true,NA,7,9,E6_Q3_ansR.png,right,NA,NA,NA,right,1336,true,NA,NA,NA,NA,NA
C4FgLaFk,NA,NA,C4FgLaFk,2020-0188,2021-09-21,13:52:41,18:59:47,NA,incomplete,false,true,NA,7,10,E24_Q5_ansL.png,left,NA,NA,NA,left,2031,true,NA,NA,NA,NA,NA
C4FgLaFk,NA,NA,C4FgLaFk,2020-0188,2021-09-21,13:52:41,18:59:47,NA,incomplete,false,true,NA,7,11,E24_Q3_ansL.png,left,NA,NA,NA,left,1298,true,NA,NA,NA,NA,NA
C4FgLaFk,NA,NA,C4FgLaFk,2020-0188,2021-09-21,13:52:41,18:59:47,NA,incomplete,false,true,NA,7,12,E24_Q1_ansR.png,right,NA,NA,NA,right,1456,true,NA,NA,NA,NA,NA
C4FgLaFk,NA,NA,C4FgLaFk,2020-0188,2021-09-21,13:52:41,18:59:47,NA,incomplete,false,true,NA,7,13,E24_Q6_ansL.png,left,NA,NA,NA,left,1534,true,NA,NA,NA,NA,NA
C4FgLaFk,NA,NA,C4FgLaFk,2020-0188,2021-09-21,13:52:41,18:59:47,NA,incomplete,false,true,NA,7,14,E24_Q8_ansR.png,right,NA,NA,NA,right,1928,true,NA,NA,NA,NA,NA
C4FgLaFk,NA,NA,C4FgLaFk,2020-0188,2021-09-21,13:52:41,18:59:47,NA,incomplete,false,true,NA,7,15,E24_Q4_ansL.png,left,NA,NA,NA,left,1215,true,NA,NA,NA,NA,NA
C4FgLaFk,NA,NA,C4FgLaFk,2020-0188,2021-09-21,13:52:41,18:59:47,NA,incomplete,false,true,NA,7,16,E24_Q9_ansL.png,left,NA,NA,NA,left,1061,true,NA,NA,NA,NA,NA
C4FgLaFk,NA,NA,C4FgLaFk,2020-0188,2021-09-21,13:52:41,18:59:47,NA,incomplete,false,true,NA,7,17,E24_Q7_ansR.png,right,NA,NA,NA,right,1329,true,NA,NA,NA,NA,NA
C4FgLaFk,NA,NA,C4FgLaFk,2020-0188,2021-09-21,13:52:41,18:59:47,NA,incomplete,false,true,NA,7,18,E24_Q10_ansR.png,right,NA,NA,NA,right,1634,true,NA,NA,NA,NA,NA
C4FgLaFk,NA,NA,C4FgLaFk,2020-0188,2021-09-21,13:52:41,18:59:47,NA,incomplete,false,true,NA,7,19,E24_Q2_ansR.png,right,NA,NA,NA,right,1681,true,NA,NA,NA,NA,NA
C4FgLaFk,NA,NA,C4FgLaFk,2020-0188,2021-09-21,13:52:41,18:59:47,NA,incomplete,false,true,NA,7,20,E10_Q6_ansR.png,right,NA,NA,NA,right,2669.00000000186,true,NA,NA,NA,NA,NA
C4FgLaFk,NA,NA,C4FgLaFk,2020-0188,2021-09-21,13:52:41,18:59:47,NA,incomplete,false,true,NA,7,21,E10_Q10_ansR.png,right,NA,NA,NA,right,2619,true,NA,NA,NA,NA,NA
C4FgLaFk,NA,NA,C4FgLaFk,2020-0188,2021-09-21,13:52:41,18:59:47,NA,incomplete,false,true,NA,7,22,E10_Q3_ansL.png,left,NA,NA,NA,none,0,false,NA,NA,NA,NA,NA
C4FgLaFk,NA,NA,C4FgLaFk,2020-0188,2021-09-21,13:52:41,18:59:47,NA,incomplete,false,true,NA,7,23,E10_Q9_ansL.png,left,NA,NA,NA,left,2433,true,NA,NA,NA,NA,NA
C4FgLaFk,NA,NA,C4FgLaFk,2020-0188,2021-09-21,13:52:41,18:59:47,NA,incomplete,false,true,NA,7,24,E10_Q1_ansL.png,left,NA,NA,NA,left,1503,true,NA,NA,NA,NA,NA
C4FgLaFk,NA,NA,C4FgLaFk,2020-0188,2021-09-21,13:52:41,18:59:47,NA,incomplete,false,true,NA,7,25,E10_Q4_ansL.png,left,NA,NA,NA,left,2123.00000000186,true,NA,NA,NA,NA,NA
C4FgLaFk,NA,NA,C4FgLaFk,2020-0188,2021-09-21,13:52:41,18:59:47,NA,incomplete,false,true,NA,7,26,E10_Q7_ansR.png,right,NA,NA,NA,right,1596.00000000186,true,NA,NA,NA,NA,NA
C4FgLaFk,NA,NA,C4FgLaFk,2020-0188,2021-09-21,13:52:41,18:59:47,NA,incomplete,false,true,NA,7,27,E10_Q8_ansR.png,right,NA,NA,NA,left,2859,false,NA,NA,NA,NA,NA
C4FgLaFk,NA,NA,C4FgLaFk,2020-0188,2021-09-21,13:52:41,18:59:47,NA,incomplete,false,true,NA,7,28,E10_Q2_ansL.png,left,NA,NA,NA,left,2614,true,NA,NA,NA,NA,NA
C4FgLaFk,NA,NA,C4FgLaFk,2020-0188,2021-09-21,13:52:41,18:59:47,NA,incomplete,false,true,NA,7,29,E10_Q5_ansR.png,right,NA,NA,NA,right,2564,true,NA,NA,NA,NA,NA
C4FgLaFk,NA,NA,C4FgLaFk,2020-0188,2021-09-21,13:52:41,18:59:47,NA,incomplete,false,NA,true,7,0,NA,left,E10_Q10_ansR.png,E10_Q1_ansL.png,within,NA,NaN,NA,left,2254.9999999981374,1,1,1360
C4FgLaFk,NA,NA,C4FgLaFk,2020-0188,2021-09-21,13:52:41,18:59:47,NA,incomplete,false,NA,true,7,1,NA,left,E24_Q6_ansL.png,E24_Q9_ansL.png,within,NA,NaN,NA,left,1481,1,1,1041.9999999981374
C4FgLaFk,NA,NA,C4FgLaFk,2020-0188,2021-09-21,13:52:41,18:59:47,NA,incomplete,false,NA,true,7,2,NA,left,E6_Q4_ansR.png,E24_Q3_ansL.png,between,NA,NaN,NA,left,1788.9999999981374,1,1,2666
C4FgLaFk,NA,NA,C4FgLaFk,2020-0188,2021-09-21,13:52:41,18:59:47,NA,incomplete,false,NA,true,7,3,NA,right,E10_Q4_ansL.png,E10_Q3_ansL.png,within,NA,NaN,NA,right,2066,1,1,921
C4FgLaFk,NA,NA,C4FgLaFk,2020-0188,2021-09-21,13:52:41,18:59:47,NA,incomplete,false,NA,true,7,4,NA,left,E24_Q3_ansL.png,E24_Q8_ansR.png,within,NA,NaN,NA,left,2289.0000000018626,1,1,2536
C4FgLaFk,NA,NA,C4FgLaFk,2020-0188,2021-09-21,13:52:41,18:59:47,NA,incomplete,false,NA,true,7,5,NA,left,E24_Q9_ansL.png,E24_Q2_ansR.png,within,NA,NaN,NA,left,1651,1,1,1246.9999999981374
C4FgLaFk,NA,NA,C4FgLaFk,2020-0188,2021-09-21,13:52:41,18:59:47,NA,incomplete,false,NA,true,7,6,NA,right,E24_Q4_ansL.png,E24_Q1_ansR.png,within,NA,NaN,NA,right,3306,1,1,1248
C4FgLaFk,NA,NA,C4FgLaFk,2020-0188,2021-09-21,13:52:41,18:59:47,NA,incomplete,false,NA,true,7,7,NA,left,E24_Q8_ansR.png,E24_Q7_ansR.png,within,NA,NaN,NA,right,2980,0,1,827
C4FgLaFk,NA,NA,C4FgLaFk,2020-0188,2021-09-21,13:52:41,18:59:47,NA,incomplete,false,NA,true,7,8,NA,right,E10_Q8_ansR.png,E10_Q1_ansL.png,within,NA,NaN,NA,right,5373,1,1,1066
C4FgLaFk,NA,NA,C4FgLaFk,2020-0188,2021-09-21,13:52:41,18:59:47,NA,incomplete,false,NA,true,7,9,NA,right,E10_Q2_ansL.png,E10_Q4_ansL.png,within,NA,NaN,NA,right,1399,1,1,3522
C4FgLaFk,NA,NA,C4FgLaFk,2020-0188,2021-09-21,13:52:41,18:59:47,NA,incomplete,false,NA,true,7,10,NA,right,E6_Q4_ansR.png,E6_Q10_ansL.png,within,NA,NaN,NA,right,2105,1,1,953
C4FgLaFk,NA,NA,C4FgLaFk,2020-0188,2021-09-21,13:52:41,18:59:47,NA,incomplete,false,NA,true,7,11,NA,right,E24_Q10_ansR.png,E24_Q4_ansL.png,within,NA,NaN,NA,right,6375,1,1,1413.0000000018626
C4FgLaFk,NA,NA,C4FgLaFk,2020-0188,2021-09-21,13:52:41,18:59:47,NA,incomplete,false,NA,true,7,12,NA,right,E10_Q9_ansL.png,E10_Q6_ansR.png,within,NA,NaN,NA,right,1406,1,1,1964.9999999981374
C4FgLaFk,NA,NA,C4FgLaFk,2020-0188,2021-09-21,13:52:41,18:59:47,NA,incomplete,false,NA,true,7,13,NA,left,E6_Q8_ansL.png,E6_Q7_ansL.png,within,NA,NaN,NA,left,1675,1,1,1375
C4FgLaFk,NA,NA,C4FgLaFk,2020-0188,2021-09-21,13:52:41,18:59:47,NA,incomplete,false,NA,true,7,14,NA,left,E6_Q9_ansL.png,E6_Q10_ansL.png,within,NA,NaN,NA,left,2673.0000000018626,1,1,1539.9999999981374
C4FgLaFk,NA,NA,C4FgLaFk,2020-0188,2021-09-21,13:52:41,18:59:47,NA,incomplete,false,NA,true,7,15,NA,right,E24_Q5_ansL.png,E6_Q7_ansL.png,between,NA,NaN,NA,right,2377,1,1,3022
C4FgLaFk,NA,NA,C4FgLaFk,2020-0188,2021-09-21,13:52:41,18:59:47,NA,incomplete,false,NA,true,7,16,NA,left,E24_Q5_ansL.png,E24_Q6_ansL.png,within,NA,NaN,NA,left,3298.0000000018626,1,1,1057.0000000018626
C4FgLaFk,NA,NA,C4FgLaFk,2020-0188,2021-09-21,13:52:41,18:59:47,NA,incomplete,false,NA,true,7,17,NA,right,E10_Q5_ansR.png,E10_Q7_ansR.png,within,NA,NaN,NA,right,1287,1,1,1359
C4FgLaFk,NA,NA,C4FgLaFk,2020-0188,2021-09-21,13:52:41,18:59:47,NA,incomplete,false,NA,true,7,18,NA,left,E6_Q6_ansR.png,E6_Q3_ansR.png,within,NA,NaN,NA,left,1731,1,0,2281.0000000018626
C4FgLaFk,NA,NA,C4FgLaFk,2020-0188,2021-09-21,13:52:41,18:59:47,NA,incomplete,false,NA,true,7,19,NA,right,E10_Q7_ansR.png,E10_Q9_ansL.png,within,NA,NaN,NA,right,8084,1,1,2433
C4FgLaFk,NA,NA,C4FgLaFk,2020-0188,2021-09-21,13:52:41,18:59:47,NA,incomplete,false,NA,true,7,20,NA,left,E6_Q2_ansL.png,E6_Q5_ansR.png,within,NA,NaN,NA,left,6264,1,1,1560.0000000018626
C4FgLaFk,NA,NA,C4FgLaFk,2020-0188,2021-09-21,13:52:41,18:59:47,NA,incomplete,false,NA,true,7,21,NA,right,E10_Q3_ansL.png,E24_Q2_ansR.png,between,NA,NaN,NA,right,2010,1,2,4433
C4FgLaFk,NA,NA,C4FgLaFk,2020-0188,2021-09-21,13:52:41,18:59:47,NA,incomplete,false,NA,true,7,22,NA,right,E6_Q6_ansR.png,E6_Q5_ansR.png,within,NA,NaN,NA,right,1755.9999999981374,1,1,1097
C4FgLaFk,NA,NA,C4FgLaFk,2020-0188,2021-09-21,13:52:41,18:59:47,NA,incomplete,false,NA,true,7,23,NA,right,E10_Q6_ansR.png,E24_Q7_ansR.png,between,NA,NaN,NA,right,1858.9999999981374,1,2,1676.0000000018626
C4FgLaFk,NA,NA,C4FgLaFk,2020-0188,2021-09-21,13:52:41,18:59:47,NA,incomplete,false,NA,true,7,24,NA,right,E10_Q10_ansR.png,E24_Q10_ansR.png,between,NA,NaN,NA,right,3306,1,2,1023.0000000018626
C4FgLaFk,NA,NA,C4FgLaFk,2020-0188,2021-09-21,13:52:41,18:59:47,NA,incomplete,false,NA,true,7,25,NA,right,E6_Q8_ansL.png,E6_Q1_ansL.png,within,NA,NaN,NA,right,2513,1,0,2170
C4FgLaFk,NA,NA,C4FgLaFk,2020-0188,2021-09-21,13:52:41,18:59:47,NA,incomplete,false,NA,true,7,26,NA,right,E24_Q1_ansR.png,E6_Q3_ansR.png,between,NA,NaN,NA,right,3886,1,2,990
C4FgLaFk,NA,NA,C4FgLaFk,2020-0188,2021-09-21,13:52:41,18:59:47,NA,incomplete,false,true,NA,8,0,E2_Q6_ansL.png,left,NA,NA,NA,left,2962.00000000186,true,NA,NA,NA,NA,NA
C4FgLaFk,NA,NA,C4FgLaFk,2020-0188,2021-09-21,13:52:41,18:59:47,NA,incomplete,false,true,NA,8,1,E2_Q9_ansL.png,left,NA,NA,NA,left,1269,true,NA,NA,NA,NA,NA
C4FgLaFk,NA,NA,C4FgLaFk,2020-0188,2021-09-21,13:52:41,18:59:47,NA,incomplete,false,true,NA,8,2,E2_Q10_ansL.png,left,NA,NA,NA,left,1453,true,NA,NA,NA,NA,NA
C4FgLaFk,NA,NA,C4FgLaFk,2020-0188,2021-09-21,13:52:41,18:59:47,NA,incomplete,false,true,NA,8,3,E2_Q7_ansR.png,right,NA,NA,NA,right,2085,true,NA,NA,NA,NA,NA
C4FgLaFk,NA,NA,C4FgLaFk,2020-0188,2021-09-21,13:52:41,18:59:47,NA,incomplete,false,true,NA,8,4,E2_Q5_ansL.png,left,NA,NA,NA,left,2042,true,NA,NA,NA,NA,NA
C4FgLaFk,NA,NA,C4FgLaFk,2020-0188,2021-09-21,13:52:41,18:59:47,NA,incomplete,false,true,NA,8,5,E2_Q8_ansR.png,right,NA,NA,NA,right,2410,true,NA,NA,NA,NA,NA
C4FgLaFk,NA,NA,C4FgLaFk,2020-0188,2021-09-21,13:52:41,18:59:47,NA,incomplete,false,true,NA,8,6,E2_Q4_ansL.png,left,NA,NA,NA,left,2379,true,NA,NA,NA,NA,NA
C4FgLaFk,NA,NA,C4FgLaFk,2020-0188,2021-09-21,13:52:41,18:59:47,NA,incomplete,false,true,NA,8,7,E2_Q2_ansR.png,right,NA,NA,NA,right,2209,true,NA,NA,NA,NA,NA
C4FgLaFk,NA,NA,C4FgLaFk,2020-0188,2021-09-21,13:52:41,18:59:47,NA,incomplete,false,true,NA,8,8,E2_Q3_ansR.png,right,NA,NA,NA,right,2348.99999999814,true,NA,NA,NA,NA,NA
C4FgLaFk,NA,NA,C4FgLaFk,2020-0188,2021-09-21,13:52:41,18:59:47,NA,incomplete,false,true,NA,8,9,E2_Q1_ansL.png,left,NA,NA,NA,left,2719,true,NA,NA,NA,NA,NA
C4FgLaFk,NA,NA,C4FgLaFk,2020-0188,2021-09-21,13:52:41,18:59:47,NA,incomplete,false,true,NA,8,10,E29_Q7_ansL.png,left,NA,NA,NA,left,1675,true,NA,NA,NA,NA,NA
C4FgLaFk,NA,NA,C4FgLaFk,2020-0188,2021-09-21,13:52:41,18:59:47,NA,incomplete,false,true,NA,8,11,E29_Q3_ansR.png,right,NA,NA,NA,right,1485,true,NA,NA,NA,NA,NA
C4FgLaFk,NA,NA,C4FgLaFk,2020-0188,2021-09-21,13:52:41,18:59:47,NA,incomplete,false,true,NA,8,12,E29_Q10_ansL.png,left,NA,NA,NA,left,977,true,NA,NA,NA,NA,NA
C4FgLaFk,NA,NA,C4FgLaFk,2020-0188,2021-09-21,13:52:41,18:59:47,NA,incomplete,false,true,NA,8,13,E29_Q1_ansL.png,left,NA,NA,NA,left,1505,true,NA,NA,NA,NA,NA
C4FgLaFk,NA,NA,C4FgLaFk,2020-0188,2021-09-21,13:52:41,18:59:47,NA,incomplete,false,true,NA,8,14,E29_Q4_ansR.png,right,NA,NA,NA,right,1947,true,NA,NA,NA,NA,NA
C4FgLaFk,NA,NA,C4FgLaFk,2020-0188,2021-09-21,13:52:41,18:59:47,NA,incomplete,false,true,NA,8,15,E29_Q6_ansR.png,right,NA,NA,NA,right,1206,true,NA,NA,NA,NA,NA
C4FgLaFk,NA,NA,C4FgLaFk,2020-0188,2021-09-21,13:52:41,18:59:47,NA,incomplete,false,true,NA,8,16,E29_Q2_ansL.png,left,NA,NA,NA,left,1621.00000000186,true,NA,NA,NA,NA,NA
C4FgLaFk,NA,NA,C4FgLaFk,2020-0188,2021-09-21,13:52:41,18:59:47,NA,incomplete,false,true,NA,8,17,E29_Q8_ansL.png,left,NA,NA,NA,left,2267,true,NA,NA,NA,NA,NA
C4FgLaFk,NA,NA,C4FgLaFk,2020-0188,2021-09-21,13:52:41,18:59:47,NA,incomplete,false,true,NA,8,18,E29_Q9_ansR.png,right,NA,NA,NA,right,1261,true,NA,NA,NA,NA,NA
C4FgLaFk,NA,NA,C4FgLaFk,2020-0188,2021-09-21,13:52:41,18:59:47,NA,incomplete,false,true,NA,8,19,E29_Q5_ansR.png,right,NA,NA,NA,right,1250,true,NA,NA,NA,NA,NA
C4FgLaFk,NA,NA,C4FgLaFk,2020-0188,2021-09-21,13:52:41,18:59:47,NA,incomplete,false,true,NA,8,20,E32_Q6_ansR.png,right,NA,NA,NA,right,1876.00000000186,true,NA,NA,NA,NA,NA
C4FgLaFk,NA,NA,C4FgLaFk,2020-0188,2021-09-21,13:52:41,18:59:47,NA,incomplete,false,true,NA,8,21,E32_Q8_ansL.png,left,NA,NA,NA,right,1440.99999999814,false,NA,NA,NA,NA,NA
C4FgLaFk,NA,NA,C4FgLaFk,2020-0188,2021-09-21,13:52:41,18:59:47,NA,incomplete,false,true,NA,8,22,E32_Q9_ansR.png,right,NA,NA,NA,right,1439.99999999814,true,NA,NA,NA,NA,NA
C4FgLaFk,NA,NA,C4FgLaFk,2020-0188,2021-09-21,13:52:41,18:59:47,NA,incomplete,false,true,NA,8,23,E32_Q10_ansL.png,left,NA,NA,NA,left,2989.99999999814,true,NA,NA,NA,NA,NA
C4FgLaFk,NA,NA,C4FgLaFk,2020-0188,2021-09-21,13:52:41,18:59:47,NA,incomplete,false,true,NA,8,24,E32_Q3_ansR.png,right,NA,NA,NA,right,1455,true,NA,NA,NA,NA,NA
C4FgLaFk,NA,NA,C4FgLaFk,2020-0188,2021-09-21,13:52:41,18:59:47,NA,incomplete,false,true,NA,8,25,E32_Q5_ansR.png,right,NA,NA,NA,right,1533,true,NA,NA,NA,NA,NA
C4FgLaFk,NA,NA,C4FgLaFk,2020-0188,2021-09-21,13:52:41,18:59:47,NA,incomplete,false,true,NA,8,26,E32_Q1_ansL.png,left,NA,NA,NA,left,1199,true,NA,NA,NA,NA,NA
C4FgLaFk,NA,NA,C4FgLaFk,2020-0188,2021-09-21,13:52:41,18:59:47,NA,incomplete,false,true,NA,8,27,E32_Q7_ansL.png,left,NA,NA,NA,left,1528,true,NA,NA,NA,NA,NA
C4FgLaFk,NA,NA,C4FgLaFk,2020-0188,2021-09-21,13:52:41,18:59:47,NA,incomplete,false,true,NA,8,28,E32_Q2_ansL.png,left,NA,NA,NA,left,1301,true,NA,NA,NA,NA,NA
C4FgLaFk,NA,NA,C4FgLaFk,2020-0188,2021-09-21,13:52:41,18:59:47,NA,incomplete,false,true,NA,8,29,E32_Q4_ansR.png,right,NA,NA,NA,right,1392,true,NA,NA,NA,NA,NA
C4FgLaFk,NA,NA,C4FgLaFk,2020-0188,2021-09-21,13:52:41,18:59:47,NA,incomplete,false,NA,true,8,0,NA,left,E29_Q5_ansR.png,E32_Q9_ansR.png,between,NA,NaN,NA,left,2657,1,2,972
C4FgLaFk,NA,NA,C4FgLaFk,2020-0188,2021-09-21,13:52:41,18:59:47,NA,incomplete,false,NA,true,8,1,NA,right,E29_Q4_ansR.png,E29_Q3_ansR.png,within,NA,NaN,NA,right,2073,1,1,1505
C4FgLaFk,NA,NA,C4FgLaFk,2020-0188,2021-09-21,13:52:41,18:59:47,NA,incomplete,false,NA,true,8,2,NA,left,E29_Q7_ansL.png,E29_Q1_ansL.png,within,NA,NaN,NA,right,4127,0,1,1652
C4FgLaFk,NA,NA,C4FgLaFk,2020-0188,2021-09-21,13:52:41,18:59:47,NA,incomplete,false,NA,true,8,3,NA,left,E32_Q6_ansR.png,E32_Q10_ansL.png,within,NA,NaN,NA,left,2855,1,0,6845
C4FgLaFk,NA,NA,C4FgLaFk,2020-0188,2021-09-21,13:52:41,18:59:47,NA,incomplete,false,NA,true,8,4,NA,right,E32_Q6_ansR.png,E29_Q8_ansL.png,between,NA,NaN,NA,right,2695,1,1,3853
C4FgLaFk,NA,NA,C4FgLaFk,2020-0188,2021-09-21,13:52:41,18:59:47,NA,incomplete,false,NA,true,8,5,NA,right,E29_Q2_ansL.png,E29_Q1_ansL.png,within,NA,NaN,NA,left,6065,0,1,827.0000000018626
C4FgLaFk,NA,NA,C4FgLaFk,2020-0188,2021-09-21,13:52:41,18:59:47,NA,incomplete,false,NA,true,8,6,NA,right,E32_Q5_ansR.png,E32_Q9_ansR.png,within,NA,NaN,NA,left,4395.000000001863,0,1,1596
C4FgLaFk,NA,NA,C4FgLaFk,2020-0188,2021-09-21,13:52:41,18:59:47,NA,incomplete,false,NA,true,8,7,NA,left,E29_Q4_ansR.png,E29_Q8_ansL.png,within,NA,NaN,NA,left,2447,1,1,761.9999999981374
C4FgLaFk,NA,NA,C4FgLaFk,2020-0188,2021-09-21,13:52:41,18:59:47,NA,incomplete,false,NA,true,8,8,NA,right,E32_Q7_ansL.png,E32_Q3_ansR.png,within,NA,NaN,NA,left,2979,0,0,3170
C4FgLaFk,NA,NA,C4FgLaFk,2020-0188,2021-09-21,13:52:41,18:59:47,NA,incomplete,false,NA,true,8,9,NA,left,E2_Q1_ansL.png,E29_Q10_ansL.png,between,NA,NaN,NA,left,3973.0000000018626,1,2,2567
C4FgLaFk,NA,NA,C4FgLaFk,2020-0188,2021-09-21,13:52:41,18:59:47,NA,incomplete,false,NA,true,8,10,NA,left,E29_Q2_ansL.png,E29_Q5_ansR.png,within,NA,NaN,NA,left,2558,1,1,977
C4FgLaFk,NA,NA,C4FgLaFk,2020-0188,2021-09-21,13:52:41,18:59:47,NA,incomplete,false,NA,true,8,11,NA,right,E29_Q7_ansL.png,E2_Q2_ansR.png,between,NA,NaN,NA,right,1270.9999999981374,1,2,1040
C4FgLaFk,NA,NA,C4FgLaFk,2020-0188,2021-09-21,13:52:41,18:59:47,NA,incomplete,false,NA,true,8,12,NA,left,E32_Q8_ansL.png,E32_Q3_ansR.png,within,NA,NaN,NA,left,1723.0000000018626,1,1,1914.9999999981374
C4FgLaFk,NA,NA,C4FgLaFk,2020-0188,2021-09-21,13:52:41,18:59:47,NA,incomplete,false,NA,true,8,13,NA,left,E29_Q10_ansL.png,E29_Q6_ansR.png,within,NA,NaN,NA,left,5923,1,1,1055
C4FgLaFk,NA,NA,C4FgLaFk,2020-0188,2021-09-21,13:52:41,18:59:47,NA,incomplete,false,NA,true,8,14,NA,right,E32_Q1_ansL.png,E32_Q10_ansL.png,within,NA,NaN,NA,right,1437,1,1,1302
C4FgLaFk,NA,NA,C4FgLaFk,2020-0188,2021-09-21,13:52:41,18:59:47,NA,incomplete,false,NA,true,8,15,NA,right,E2_Q7_ansR.png,E2_Q6_ansL.png,within,NA,NaN,NA,right,1724,1,1,1090
C4FgLaFk,NA,NA,C4FgLaFk,2020-0188,2021-09-21,13:52:41,18:59:47,NA,incomplete,false,NA,true,8,16,NA,left,E29_Q6_ansR.png,E29_Q9_ansR.png,within,NA,NaN,NA,right,4570,0,1,780
C4FgLaFk,NA,NA,C4FgLaFk,2020-0188,2021-09-21,13:52:41,18:59:47,NA,incomplete,false,NA,true,8,17,NA,left,E32_Q1_ansL.png,E32_Q4_ansR.png,within,NA,NaN,NA,left,1263.0000000018626,1,1,818
C4FgLaFk,NA,NA,C4FgLaFk,2020-0188,2021-09-21,13:52:41,18:59:47,NA,incomplete,false,NA,true,8,18,NA,left,E2_Q5_ansL.png,E2_Q2_ansR.png,within,NA,NaN,NA,left,3059.0000000018626,1,1,1167
C4FgLaFk,NA,NA,C4FgLaFk,2020-0188,2021-09-21,13:52:41,18:59:47,NA,incomplete,false,NA,true,8,19,NA,right,E32_Q8_ansL.png,E29_Q9_ansR.png,between,NA,NaN,NA,right,2185,1,2,943
C4FgLaFk,NA,NA,C4FgLaFk,2020-0188,2021-09-21,13:52:41,18:59:47,NA,incomplete,false,NA,true,8,20,NA,left,E2_Q7_ansR.png,E2_Q4_ansL.png,within,NA,NaN,NA,left,5683.999999998137,1,1,1207
C4FgLaFk,NA,NA,C4FgLaFk,2020-0188,2021-09-21,13:52:41,18:59:47,NA,incomplete,false,NA,true,8,21,NA,right,E2_Q5_ansL.png,E2_Q9_ansL.png,within,NA,NaN,NA,right,1389.9999999981374,1,1,1733
C4FgLaFk,NA,NA,C4FgLaFk,2020-0188,2021-09-21,13:52:41,18:59:47,NA,incomplete,false,NA,true,8,22,NA,left,E2_Q4_ansL.png,E2_Q1_ansL.png,within,NA,NaN,NA,right,2012,0,1,1000
C4FgLaFk,NA,NA,C4FgLaFk,2020-0188,2021-09-21,13:52:41,18:59:47,NA,incomplete,false,NA,true,8,23,NA,left,E2_Q10_ansL.png,E2_Q8_ansR.png,within,NA,NaN,NA,left,3177,1,1,1072
C4FgLaFk,NA,NA,C4FgLaFk,2020-0188,2021-09-21,13:52:41,18:59:47,NA,incomplete,false,NA,true,8,24,NA,right,E32_Q2_ansL.png,E32_Q5_ansR.png,within,NA,NaN,NA,right,4202,1,1,1104.0000000018626
C4FgLaFk,NA,NA,C4FgLaFk,2020-0188,2021-09-21,13:52:41,18:59:47,NA,incomplete,false,NA,true,8,25,NA,left,E2_Q3_ansR.png,E29_Q3_ansR.png,between,NA,NaN,NA,left,3663,1,1,5588
C4FgLaFk,NA,NA,C4FgLaFk,2020-0188,2021-09-21,13:52:41,18:59:47,NA,incomplete,false,NA,true,8,26,NA,left,E2_Q8_ansR.png,E2_Q3_ansR.png,within,NA,NaN,NA,left,10468,1,1,5196
C4FgLaFk,NA,NA,C4FgLaFk,2020-0188,2021-09-21,13:52:41,18:59:47,NA,incomplete,false,true,NA,9,0,E14_Q2_ansL.png,left,NA,NA,NA,left,1974.99999999814,true,NA,NA,NA,NA,NA
C4FgLaFk,NA,NA,C4FgLaFk,2020-0188,2021-09-21,13:52:41,18:59:47,NA,incomplete,false,true,NA,9,1,E14_Q4_ansR.png,right,NA,NA,NA,right,897,true,NA,NA,NA,NA,NA
C4FgLaFk,NA,NA,C4FgLaFk,2020-0188,2021-09-21,13:52:41,18:59:47,NA,incomplete,false,true,NA,9,2,E14_Q1_ansL.png,left,NA,NA,NA,left,1053,true,NA,NA,NA,NA,NA
C4FgLaFk,NA,NA,C4FgLaFk,2020-0188,2021-09-21,13:52:41,18:59:47,NA,incomplete,false,true,NA,9,3,E14_Q7_ansL.png,left,NA,NA,NA,right,2669,false,NA,NA,NA,NA,NA
C4FgLaFk,NA,NA,C4FgLaFk,2020-0188,2021-09-21,13:52:41,18:59:47,NA,incomplete,false,true,NA,9,4,E14_Q10_ansL.png,left,NA,NA,NA,left,989,true,NA,NA,NA,NA,NA
C4FgLaFk,NA,NA,C4FgLaFk,2020-0188,2021-09-21,13:52:41,18:59:47,NA,incomplete,false,true,NA,9,5,E14_Q3_ansR.png,right,NA,NA,NA,right,2173,true,NA,NA,NA,NA,NA
C4FgLaFk,NA,NA,C4FgLaFk,2020-0188,2021-09-21,13:52:41,18:59:47,NA,incomplete,false,true,NA,9,6,E14_Q9_ansR.png,right,NA,NA,NA,right,1787,true,NA,NA,NA,NA,NA
C4FgLaFk,NA,NA,C4FgLaFk,2020-0188,2021-09-21,13:52:41,18:59:47,NA,incomplete,false,true,NA,9,7,E14_Q8_ansL.png,left,NA,NA,NA,left,1334,true,NA,NA,NA,NA,NA
C4FgLaFk,NA,NA,C4FgLaFk,2020-0188,2021-09-21,13:52:41,18:59:47,NA,incomplete,false,true,NA,9,8,E14_Q5_ansR.png,right,NA,NA,NA,right,1100,true,NA,NA,NA,NA,NA
C4FgLaFk,NA,NA,C4FgLaFk,2020-0188,2021-09-21,13:52:41,18:59:47,NA,incomplete,false,true,NA,9,9,E14_Q6_ansR.png,right,NA,NA,NA,right,2058.00000000186,true,NA,NA,NA,NA,NA
C4FgLaFk,NA,NA,C4FgLaFk,2020-0188,2021-09-21,13:52:41,18:59:47,NA,incomplete,false,true,NA,9,10,E22_Q7_ansR.png,right,NA,NA,NA,right,1902,true,NA,NA,NA,NA,NA
C4FgLaFk,NA,NA,C4FgLaFk,2020-0188,2021-09-21,13:52:41,18:59:47,NA,incomplete,false,true,NA,9,11,E22_Q8_ansR.png,right,NA,NA,NA,right,963,true,NA,NA,NA,NA,NA
C4FgLaFk,NA,NA,C4FgLaFk,2020-0188,2021-09-21,13:52:41,18:59:47,NA,incomplete,false,true,NA,9,12,E22_Q1_ansR.png,right,NA,NA,NA,right,1262,true,NA,NA,NA,NA,NA
C4FgLaFk,NA,NA,C4FgLaFk,2020-0188,2021-09-21,13:52:41,18:59:47,NA,incomplete,false,true,NA,9,13,E22_Q4_ansL.png,left,NA,NA,NA,left,1266,true,NA,NA,NA,NA,NA
C4FgLaFk,NA,NA,C4FgLaFk,2020-0188,2021-09-21,13:52:41,18:59:47,NA,incomplete,false,true,NA,9,14,E22_Q10_ansR.png,right,NA,NA,NA,right,748.999999998137,true,NA,NA,NA,NA,NA
C4FgLaFk,NA,NA,C4FgLaFk,2020-0188,2021-09-21,13:52:41,18:59:47,NA,incomplete,false,true,NA,9,15,E22_Q5_ansL.png,left,NA,NA,NA,left,1153,true,NA,NA,NA,NA,NA
C4FgLaFk,NA,NA,C4FgLaFk,2020-0188,2021-09-21,13:52:41,18:59:47,NA,incomplete,false,true,NA,9,16,E22_Q3_ansL.png,left,NA,NA,NA,left,1041,true,NA,NA,NA,NA,NA
C4FgLaFk,NA,NA,C4FgLaFk,2020-0188,2021-09-21,13:52:41,18:59:47,NA,incomplete,false,true,NA,9,17,E22_Q6_ansL.png,left,NA,NA,NA,left,1484,true,NA,NA,NA,NA,NA
C4FgLaFk,NA,NA,C4FgLaFk,2020-0188,2021-09-21,13:52:41,18:59:47,NA,incomplete,false,true,NA,9,18,E22_Q2_ansR.png,right,NA,NA,NA,right,1183,true,NA,NA,NA,NA,NA
C4FgLaFk,NA,NA,C4FgLaFk,2020-0188,2021-09-21,13:52:41,18:59:47,NA,incomplete,false,true,NA,9,19,E22_Q9_ansL.png,left,NA,NA,NA,left,1275.00000000186,true,NA,NA,NA,NA,NA
C4FgLaFk,NA,NA,C4FgLaFk,2020-0188,2021-09-21,13:52:41,18:59:47,NA,incomplete,false,true,NA,9,20,E13_Q4_ansR.png,right,NA,NA,NA,right,1997.00000000186,true,NA,NA,NA,NA,NA
C4FgLaFk,NA,NA,C4FgLaFk,2020-0188,2021-09-21,13:52:41,18:59:47,NA,incomplete,false,true,NA,9,21,E13_Q9_ansR.png,right,NA,NA,NA,right,1041,true,NA,NA,NA,NA,NA
C4FgLaFk,NA,NA,C4FgLaFk,2020-0188,2021-09-21,13:52:41,18:59:47,NA,incomplete,false,true,NA,9,22,E13_Q1_ansL.png,left,NA,NA,NA,left,1200,true,NA,NA,NA,NA,NA
C4FgLaFk,NA,NA,C4FgLaFk,2020-0188,2021-09-21,13:52:41,18:59:47,NA,incomplete,false,true,NA,9,23,E13_Q8_ansL.png,left,NA,NA,NA,left,1250,true,NA,NA,NA,NA,NA
C4FgLaFk,NA,NA,C4FgLaFk,2020-0188,2021-09-21,13:52:41,18:59:47,NA,incomplete,false,true,NA,9,24,E13_Q6_ansR.png,right,NA,NA,NA,right,1351,true,NA,NA,NA,NA,NA
C4FgLaFk,NA,NA,C4FgLaFk,2020-0188,2021-09-21,13:52:41,18:59:47,NA,incomplete,false,true,NA,9,25,E13_Q5_ansR.png,right,NA,NA,NA,right,1042,true,NA,NA,NA,NA,NA
C4FgLaFk,NA,NA,C4FgLaFk,2020-0188,2021-09-21,13:52:41,18:59:47,NA,incomplete,false,true,NA,9,26,E13_Q7_ansL.png,left,NA,NA,NA,left,1549,true,NA,NA,NA,NA,NA
C4FgLaFk,NA,NA,C4FgLaFk,2020-0188,2021-09-21,13:52:41,18:59:47,NA,incomplete,false,true,NA,9,27,E13_Q2_ansL.png,left,NA,NA,NA,left,513,true,NA,NA,NA,NA,NA
C4FgLaFk,NA,NA,C4FgLaFk,2020-0188,2021-09-21,13:52:41,18:59:47,NA,incomplete,false,true,NA,9,28,E13_Q10_ansL.png,left,NA,NA,NA,left,1193,true,NA,NA,NA,NA,NA
C4FgLaFk,NA,NA,C4FgLaFk,2020-0188,2021-09-21,13:52:41,18:59:47,NA,incomplete,false,true,NA,9,29,E13_Q3_ansR.png,right,NA,NA,NA,right,1290,true,NA,NA,NA,NA,NA
C4FgLaFk,NA,NA,C4FgLaFk,2020-0188,2021-09-21,13:52:41,18:59:47,NA,incomplete,false,NA,true,9,0,NA,right,E13_Q10_ansL.png,E13_Q5_ansR.png,within,NA,NaN,NA,right,1905,1,1,1907
C4FgLaFk,NA,NA,C4FgLaFk,2020-0188,2021-09-21,13:52:41,18:59:47,NA,incomplete,false,NA,true,9,1,NA,right,E13_Q4_ansR.png,E22_Q6_ansL.png,between,NA,NaN,NA,right,2331,1,1,1993.9999999981374
C4FgLaFk,NA,NA,C4FgLaFk,2020-0188,2021-09-21,13:52:41,18:59:47,NA,incomplete,false,NA,true,9,2,NA,left,E22_Q8_ansR.png,E22_Q10_ansR.png,within,NA,NaN,NA,left,1859,1,0,1711
C4FgLaFk,NA,NA,C4FgLaFk,2020-0188,2021-09-21,13:52:41,18:59:47,NA,incomplete,false,NA,true,9,3,NA,right,E13_Q1_ansL.png,E22_Q9_ansL.png,between,NA,NaN,NA,right,2051,1,2,3599
C4FgLaFk,NA,NA,C4FgLaFk,2020-0188,2021-09-21,13:52:41,18:59:47,NA,incomplete,false,NA,true,9,4,NA,right,E14_Q9_ansR.png,E14_Q7_ansL.png,within,NA,NaN,NA,right,2789,1,1,5622
C4FgLaFk,NA,NA,C4FgLaFk,2020-0188,2021-09-21,13:52:41,18:59:47,NA,incomplete,false,NA,true,9,5,NA,left,E22_Q1_ansR.png,E22_Q5_ansL.png,within,NA,NaN,NA,right,3392.0000000018626,0,1,857
C4FgLaFk,NA,NA,C4FgLaFk,2020-0188,2021-09-21,13:52:41,18:59:47,NA,incomplete,false,NA,true,9,6,NA,right,E22_Q7_ansR.png,E14_Q8_ansL.png,between,NA,NaN,NA,right,3718,1,1,2989
C4FgLaFk,NA,NA,C4FgLaFk,2020-0188,2021-09-21,13:52:41,18:59:47,NA,incomplete,false,NA,true,9,7,NA,right,E22_Q3_ansL.png,E22_Q4_ansL.png,within,NA,NaN,NA,right,5982,1,1,1121
C4FgLaFk,NA,NA,C4FgLaFk,2020-0188,2021-09-21,13:52:41,18:59:47,NA,incomplete,false,NA,true,9,8,NA,right,E13_Q8_ansL.png,E13_Q4_ansR.png,within,NA,NaN,NA,right,1850,1,1,954
C4FgLaFk,NA,NA,C4FgLaFk,2020-0188,2021-09-21,13:52:41,18:59:47,NA,incomplete,false,NA,true,9,9,NA,right,E22_Q2_ansR.png,E22_Q5_ansL.png,within,NA,NaN,NA,right,1978.0000000018626,1,1,776
C4FgLaFk,NA,NA,C4FgLaFk,2020-0188,2021-09-21,13:52:41,18:59:47,NA,incomplete,false,NA,true,9,10,NA,left,E14_Q4_ansR.png,E14_Q10_ansL.png,within,NA,NaN,NA,left,1383,1,0,2846
C4FgLaFk,NA,NA,C4FgLaFk,2020-0188,2021-09-21,13:52:41,18:59:47,NA,incomplete,false,NA,true,9,11,NA,right,E22_Q6_ansL.png,E22_Q10_ansR.png,within,NA,NaN,NA,right,1755,1,1,960.0000000018626
C4FgLaFk,NA,NA,C4FgLaFk,2020-0188,2021-09-21,13:52:41,18:59:47,NA,incomplete,false,NA,true,9,12,NA,left,E14_Q1_ansL.png,E14_Q3_ansR.png,within,NA,NaN,NA,right,2384,0,0,946.9999999981374
C4FgLaFk,NA,NA,C4FgLaFk,2020-0188,2021-09-21,13:52:41,18:59:47,NA,incomplete,false,NA,true,9,13,NA,right,E22_Q1_ansR.png,E14_Q6_ansR.png,between,NA,NaN,NA,right,1539.0000000018626,1,2,1619.9999999981374
C4FgLaFk,NA,NA,C4FgLaFk,2020-0188,2021-09-21,13:52:41,18:59:47,NA,incomplete,false,NA,true,9,14,NA,left,E14_Q2_ansL.png,E14_Q7_ansL.png,within,NA,NaN,NA,left,1699,1,1,1375
C4FgLaFk,NA,NA,C4FgLaFk,2020-0188,2021-09-21,13:52:41,18:59:47,NA,incomplete,false,NA,true,9,15,NA,left,E13_Q7_ansL.png,E13_Q3_ansR.png,within,NA,NaN,NA,left,1796,1,1,906
C4FgLaFk,NA,NA,C4FgLaFk,2020-0188,2021-09-21,13:52:41,18:59:47,NA,incomplete,false,NA,true,9,16,NA,left,E13_Q1_ansL.png,E13_Q5_ansR.png,within,NA,NaN,NA,left,1277,1,1,1023
C4FgLaFk,NA,NA,C4FgLaFk,2020-0188,2021-09-21,13:52:41,18:59:47,NA,incomplete,false,NA,true,9,17,NA,right,E22_Q8_ansR.png,E14_Q5_ansR.png,between,NA,NaN,NA,right,1263,1,1,1670.0000000018626
C4FgLaFk,NA,NA,C4FgLaFk,2020-0188,2021-09-21,13:52:41,18:59:47,NA,incomplete,false,NA,true,9,18,NA,left,E13_Q9_ansR.png,E13_Q6_ansR.png,within,NA,NaN,NA,left,1111,1,1,779
C4FgLaFk,NA,NA,C4FgLaFk,2020-0188,2021-09-21,13:52:41,18:59:47,NA,incomplete,false,NA,true,9,19,NA,right,E14_Q8_ansL.png,E14_Q10_ansL.png,within,NA,NaN,NA,right,3409,1,0,1661
C4FgLaFk,NA,NA,C4FgLaFk,2020-0188,2021-09-21,13:52:41,18:59:47,NA,incomplete,false,NA,true,9,20,NA,left,E14_Q9_ansR.png,E14_Q6_ansR.png,within,NA,NaN,NA,left,2462,1,1,954
C4FgLaFk,NA,NA,C4FgLaFk,2020-0188,2021-09-21,13:52:41,18:59:47,NA,incomplete,false,NA,true,9,21,NA,left,E22_Q7_ansR.png,E22_Q4_ansL.png,within,NA,NaN,NA,left,1452.9999999981374,1,1,937
C4FgLaFk,NA,NA,C4FgLaFk,2020-0188,2021-09-21,13:52:41,18:59:47,NA,incomplete,false,NA,true,9,22,NA,right,E14_Q5_ansR.png,E14_Q3_ansR.png,within,NA,NaN,NA,right,3187,1,1,866
C4FgLaFk,NA,NA,C4FgLaFk,2020-0188,2021-09-21,13:52:41,18:59:47,NA,incomplete,false,NA,true,9,23,NA,right,E13_Q7_ansL.png,E13_Q8_ansL.png,within,NA,NaN,NA,right,1454,1,1,923
C4FgLaFk,NA,NA,C4FgLaFk,2020-0188,2021-09-21,13:52:41,18:59:47,NA,incomplete,false,NA,true,9,24,NA,left,E22_Q3_ansL.png,E22_Q9_ansL.png,within,NA,NaN,NA,left,4388,1,1,1159
C4FgLaFk,NA,NA,C4FgLaFk,2020-0188,2021-09-21,13:52:41,18:59:47,NA,incomplete,false,NA,true,9,25,NA,right,E13_Q2_ansL.png,E13_Q6_ansR.png,within,NA,NaN,NA,right,3362,1,0,788
C4FgLaFk,NA,NA,C4FgLaFk,2020-0188,2021-09-21,13:52:41,18:59:47,NA,incomplete,false,NA,true,9,26,NA,right,E13_Q9_ansR.png,E22_Q2_ansR.png,between,NA,NaN,NA,right,1637,1,1,3021
C4FgLaFk,NA,NA,C4FgLaFk,2020-0188,2021-09-21,13:52:41,18:59:47,NA,incomplete,false,true,NA,10,0,E11_Q1_ansR.png,right,NA,NA,NA,right,1782,true,NA,NA,NA,NA,NA
C4FgLaFk,NA,NA,C4FgLaFk,2020-0188,2021-09-21,13:52:41,18:59:47,NA,incomplete,false,true,NA,10,1,E11_Q7_ansR.png,right,NA,NA,NA,right,1394.00000000186,true,NA,NA,NA,NA,NA
C4FgLaFk,NA,NA,C4FgLaFk,2020-0188,2021-09-21,13:52:41,18:59:47,NA,incomplete,false,true,NA,10,2,E11_Q3_ansL.png,left,NA,NA,NA,left,960.999999998137,true,NA,NA,NA,NA,NA
C4FgLaFk,NA,NA,C4FgLaFk,2020-0188,2021-09-21,13:52:41,18:59:47,NA,incomplete,false,true,NA,10,3,E11_Q5_ansL.png,left,NA,NA,NA,left,1440,true,NA,NA,NA,NA,NA
C4FgLaFk,NA,NA,C4FgLaFk,2020-0188,2021-09-21,13:52:41,18:59:47,NA,incomplete,false,true,NA,10,4,E11_Q8_ansR.png,right,NA,NA,NA,right,1528,true,NA,NA,NA,NA,NA
C4FgLaFk,NA,NA,C4FgLaFk,2020-0188,2021-09-21,13:52:41,18:59:47,NA,incomplete,false,true,NA,10,5,E11_Q4_ansL.png,left,NA,NA,NA,left,1089,true,NA,NA,NA,NA,NA
C4FgLaFk,NA,NA,C4FgLaFk,2020-0188,2021-09-21,13:52:41,18:59:47,NA,incomplete,false,true,NA,10,6,E11_Q9_ansL.png,left,NA,NA,NA,left,1001,true,NA,NA,NA,NA,NA
C4FgLaFk,NA,NA,C4FgLaFk,2020-0188,2021-09-21,13:52:41,18:59:47,NA,incomplete,false,true,NA,10,7,E11_Q10_ansR.png,right,NA,NA,NA,right,1012,true,NA,NA,NA,NA,NA
C4FgLaFk,NA,NA,C4FgLaFk,2020-0188,2021-09-21,13:52:41,18:59:47,NA,incomplete,false,true,NA,10,8,E11_Q2_ansR.png,right,NA,NA,NA,right,974,true,NA,NA,NA,NA,NA
C4FgLaFk,NA,NA,C4FgLaFk,2020-0188,2021-09-21,13:52:41,18:59:47,NA,incomplete,false,true,NA,10,9,E11_Q6_ansL.png,left,NA,NA,NA,left,1310,true,NA,NA,NA,NA,NA
C4FgLaFk,NA,NA,C4FgLaFk,2020-0188,2021-09-21,13:52:41,18:59:47,NA,incomplete,false,true,NA,10,10,E8_Q5_ansL.png,left,NA,NA,NA,left,1551,true,NA,NA,NA,NA,NA
C4FgLaFk,NA,NA,C4FgLaFk,2020-0188,2021-09-21,13:52:41,18:59:47,NA,incomplete,false,true,NA,10,11,E8_Q4_ansL.png,left,NA,NA,NA,left,1174,true,NA,NA,NA,NA,NA
C4FgLaFk,NA,NA,C4FgLaFk,2020-0188,2021-09-21,13:52:41,18:59:47,NA,incomplete,false,true,NA,10,12,E8_Q2_ansR.png,right,NA,NA,NA,right,976.000000001863,true,NA,NA,NA,NA,NA
C4FgLaFk,NA,NA,C4FgLaFk,2020-0188,2021-09-21,13:52:41,18:59:47,NA,incomplete,false,true,NA,10,13,E8_Q8_ansR.png,right,NA,NA,NA,right,1520,true,NA,NA,NA,NA,NA
C4FgLaFk,NA,NA,C4FgLaFk,2020-0188,2021-09-21,13:52:41,18:59:47,NA,incomplete,false,true,NA,10,14,E8_Q10_ansR.png,right,NA,NA,NA,right,1148,true,NA,NA,NA,NA,NA
C4FgLaFk,NA,NA,C4FgLaFk,2020-0188,2021-09-21,13:52:41,18:59:47,NA,incomplete,false,true,NA,10,15,E8_Q9_ansL.png,left,NA,NA,NA,left,1162.99999999814,true,NA,NA,NA,NA,NA
C4FgLaFk,NA,NA,C4FgLaFk,2020-0188,2021-09-21,13:52:41,18:59:47,NA,incomplete,false,true,NA,10,16,E8_Q3_ansL.png,left,NA,NA,NA,left,1422,true,NA,NA,NA,NA,NA
C4FgLaFk,NA,NA,C4FgLaFk,2020-0188,2021-09-21,13:52:41,18:59:47,NA,incomplete,false,true,NA,10,17,E8_Q6_ansL.png,left,NA,NA,NA,left,1730,true,NA,NA,NA,NA,NA
C4FgLaFk,NA,NA,C4FgLaFk,2020-0188,2021-09-21,13:52:41,18:59:47,NA,incomplete,false,true,NA,10,18,E8_Q7_ansR.png,right,NA,NA,NA,right,1398,true,NA,NA,NA,NA,NA
C4FgLaFk,NA,NA,C4FgLaFk,2020-0188,2021-09-21,13:52:41,18:59:47,NA,incomplete,false,true,NA,10,19,E8_Q1_ansR.png,right,NA,NA,NA,right,1316,true,NA,NA,NA,NA,NA
C4FgLaFk,NA,NA,C4FgLaFk,2020-0188,2021-09-21,13:52:41,18:59:47,NA,incomplete,false,true,NA,10,20,E31_Q5_ansL.png,left,NA,NA,NA,left,1422,true,NA,NA,NA,NA,NA
C4FgLaFk,NA,NA,C4FgLaFk,2020-0188,2021-09-21,13:52:41,18:59:47,NA,incomplete,false,true,NA,10,21,E31_Q6_ansL.png,left,NA,NA,NA,left,1182.00000000186,true,NA,NA,NA,NA,NA
C4FgLaFk,NA,NA,C4FgLaFk,2020-0188,2021-09-21,13:52:41,18:59:47,NA,incomplete,false,true,NA,10,22,E31_Q7_ansR.png,right,NA,NA,NA,right,1067,true,NA,NA,NA,NA,NA
