workerId,hitId,assignmentId,subject,studyid,exp_date,exp_start,exp_end,time_start,time_end,practice,encoding,memory,block,trial,stim,answer,left_image,right_image,condition,response,response_time,response_acc,order_response,order_response_time,order_acc,distance_response,distance_response_time
Cai9acV7,NA,NA,Cai9acV7,2020-0188,2021-09-19,14:26:07,15:31:11,NA,incomplete,true,true,NA,0,0,E1_Q9_ansL.png,left,NA,NA,NA,left,2548.69999998808,true,NA,NA,NA,NA,NA
Cai9acV7,NA,NA,Cai9acV7,2020-0188,2021-09-19,14:26:07,15:31:11,NA,incomplete,true,true,NA,0,1,E1_Q8_ansR.png,right,NA,NA,NA,right,1682.90000003576,true,NA,NA,NA,NA,NA
Cai9acV7,NA,NA,Cai9acV7,2020-0188,2021-09-19,14:26:07,15:31:11,NA,incomplete,true,true,NA,0,2,E1_Q7_ansL.png,left,NA,NA,NA,left,1043.89999997616,true,NA,NA,NA,NA,NA
Cai9acV7,NA,NA,Cai9acV7,2020-0188,2021-09-19,14:26:07,15:31:11,NA,incomplete,true,true,NA,0,3,E1_Q10_ansR.png,right,NA,NA,NA,right,1078.10000002384,true,NA,NA,NA,NA,NA
Cai9acV7,NA,NA,Cai9acV7,2020-0188,2021-09-19,14:26:07,15:31:11,NA,incomplete,true,true,NA,0,4,E1_Q3_ansR.png,right,NA,NA,NA,right,3170.5,true,NA,NA,NA,NA,NA
Cai9acV7,NA,NA,Cai9acV7,2020-0188,2021-09-19,14:26:07,15:31:11,NA,incomplete,true,true,NA,0,5,E1_Q2_ansL.png,left,NA,NA,NA,left,1720.80000001192,true,NA,NA,NA,NA,NA
Cai9acV7,NA,NA,Cai9acV7,2020-0188,2021-09-19,14:26:07,15:31:11,NA,incomplete,true,true,NA,0,6,E1_Q5_ansR.png,right,NA,NA,NA,right,1314.60000002384,true,NA,NA,NA,NA,NA
Cai9acV7,NA,NA,Cai9acV7,2020-0188,2021-09-19,14:26:07,15:31:11,NA,incomplete,true,true,NA,0,7,E1_Q1_ansL.png,left,NA,NA,NA,left,1000.60000002384,true,NA,NA,NA,NA,NA
Cai9acV7,NA,NA,Cai9acV7,2020-0188,2021-09-19,14:26:07,15:31:11,NA,incomplete,true,true,NA,0,8,E1_Q4_ansL.png,left,NA,NA,NA,left,2383.69999998808,true,NA,NA,NA,NA,NA
Cai9acV7,NA,NA,Cai9acV7,2020-0188,2021-09-19,14:26:07,15:31:11,NA,incomplete,true,true,NA,0,9,E1_Q6_ansR.png,right,NA,NA,NA,right,2026.59999996424,true,NA,NA,NA,NA,NA
Cai9acV7,NA,NA,Cai9acV7,2020-0188,2021-09-19,14:26:07,15:31:11,NA,incomplete,true,true,NA,0,10,E28_Q7_ansR.png,right,NA,NA,NA,right,1240.30000001192,true,NA,NA,NA,NA,NA
Cai9acV7,NA,NA,Cai9acV7,2020-0188,2021-09-19,14:26:07,15:31:11,NA,incomplete,true,true,NA,0,11,E28_Q8_ansR.png,right,NA,NA,NA,right,1016,true,NA,NA,NA,NA,NA
Cai9acV7,NA,NA,Cai9acV7,2020-0188,2021-09-19,14:26:07,15:31:11,NA,incomplete,true,true,NA,0,12,E28_Q10_ansR.png,right,NA,NA,NA,right,912.699999988079,true,NA,NA,NA,NA,NA
Cai9acV7,NA,NA,Cai9acV7,2020-0188,2021-09-19,14:26:07,15:31:11,NA,incomplete,true,true,NA,0,13,E28_Q2_ansR.png,right,NA,NA,NA,left,791,false,NA,NA,NA,NA,NA
Cai9acV7,NA,NA,Cai9acV7,2020-0188,2021-09-19,14:26:07,15:31:11,NA,incomplete,true,true,NA,0,14,E28_Q1_ansR.png,right,NA,NA,NA,right,1167.10000002384,true,NA,NA,NA,NA,NA
Cai9acV7,NA,NA,Cai9acV7,2020-0188,2021-09-19,14:26:07,15:31:11,NA,incomplete,true,true,NA,0,15,E28_Q3_ansL.png,left,NA,NA,NA,left,1125.5,true,NA,NA,NA,NA,NA
Cai9acV7,NA,NA,Cai9acV7,2020-0188,2021-09-19,14:26:07,15:31:11,NA,incomplete,true,true,NA,0,16,E28_Q4_ansL.png,left,NA,NA,NA,left,1099.89999997616,true,NA,NA,NA,NA,NA
Cai9acV7,NA,NA,Cai9acV7,2020-0188,2021-09-19,14:26:07,15:31:11,NA,incomplete,true,true,NA,0,17,E28_Q5_ansL.png,left,NA,NA,NA,left,1131.30000001192,true,NA,NA,NA,NA,NA
Cai9acV7,NA,NA,Cai9acV7,2020-0188,2021-09-19,14:26:07,15:31:11,NA,incomplete,true,true,NA,0,18,E28_Q6_ansL.png,left,NA,NA,NA,left,913.400000035763,true,NA,NA,NA,NA,NA
Cai9acV7,NA,NA,Cai9acV7,2020-0188,2021-09-19,14:26:07,15:31:11,NA,incomplete,true,true,NA,0,19,E28_Q9_ansL.png,left,NA,NA,NA,left,946.300000011921,true,NA,NA,NA,NA,NA
Cai9acV7,NA,NA,Cai9acV7,2020-0188,2021-09-19,14:26:07,15:31:11,NA,incomplete,true,true,NA,0,20,E6_Q6_ansR.png,right,NA,NA,NA,right,1168,true,NA,NA,NA,NA,NA
Cai9acV7,NA,NA,Cai9acV7,2020-0188,2021-09-19,14:26:07,15:31:11,NA,incomplete,true,true,NA,0,21,E6_Q10_ansL.png,left,NA,NA,NA,left,1030.10000002384,true,NA,NA,NA,NA,NA
Cai9acV7,NA,NA,Cai9acV7,2020-0188,2021-09-19,14:26:07,15:31:11,NA,incomplete,true,true,NA,0,22,E6_Q9_ansL.png,left,NA,NA,NA,left,1280.39999997616,true,NA,NA,NA,NA,NA
Cai9acV7,NA,NA,Cai9acV7,2020-0188,2021-09-19,14:26:07,15:31:11,NA,incomplete,true,true,NA,0,23,E6_Q2_ansL.png,left,NA,NA,NA,left,1015.10000002384,true,NA,NA,NA,NA,NA
Cai9acV7,NA,NA,Cai9acV7,2020-0188,2021-09-19,14:26:07,15:31:11,NA,incomplete,true,true,NA,0,24,E6_Q7_ansL.png,left,NA,NA,NA,left,909.700000047684,true,NA,NA,NA,NA,NA
Cai9acV7,NA,NA,Cai9acV7,2020-0188,2021-09-19,14:26:07,15:31:11,NA,incomplete,true,true,NA,0,25,E6_Q8_ansL.png,left,NA,NA,NA,left,935.599999964237,true,NA,NA,NA,NA,NA
Cai9acV7,NA,NA,Cai9acV7,2020-0188,2021-09-19,14:26:07,15:31:11,NA,incomplete,true,true,NA,0,26,E6_Q4_ansR.png,right,NA,NA,NA,right,1280.60000002384,true,NA,NA,NA,NA,NA
Cai9acV7,NA,NA,Cai9acV7,2020-0188,2021-09-19,14:26:07,15:31:11,NA,incomplete,true,true,NA,0,27,E6_Q1_ansL.png,left,NA,NA,NA,left,851.099999964237,true,NA,NA,NA,NA,NA
Cai9acV7,NA,NA,Cai9acV7,2020-0188,2021-09-19,14:26:07,15:31:11,NA,incomplete,true,true,NA,0,28,E6_Q5_ansR.png,right,NA,NA,NA,right,989,true,NA,NA,NA,NA,NA
Cai9acV7,NA,NA,Cai9acV7,2020-0188,2021-09-19,14:26:07,15:31:11,NA,incomplete,true,true,NA,0,29,E6_Q3_ansR.png,right,NA,NA,NA,right,946.200000047684,true,NA,NA,NA,NA,NA
Cai9acV7,NA,NA,Cai9acV7,2020-0188,2021-09-19,14:26:07,15:31:11,NA,incomplete,true,NA,true,0,0,NA,right,E1_Q5_ansR.png,E1_Q10_ansR.png,within,NA,NaN,NA,right,6934,1,2,4637.100000023842
Cai9acV7,NA,NA,Cai9acV7,2020-0188,2021-09-19,14:26:07,15:31:11,NA,incomplete,true,NA,true,0,1,NA,right,E1_Q3_ansR.png,E1_Q8_ansR.png,within,NA,NaN,NA,right,5165,1,1,2328.099999964237
Cai9acV7,NA,NA,Cai9acV7,2020-0188,2021-09-19,14:26:07,15:31:11,NA,incomplete,true,NA,true,0,2,NA,left,E28_Q6_ansL.png,E6_Q10_ansL.png,between,NA,NaN,NA,left,1878.4000000357628,1,1,1093.199999988079
Cai9acV7,NA,NA,Cai9acV7,2020-0188,2021-09-19,14:26:07,15:31:11,NA,incomplete,true,NA,true,0,3,NA,left,E6_Q10_ansL.png,E6_Q7_ansL.png,within,NA,NaN,NA,left,3636.699999988079,1,1,1329
Cai9acV7,NA,NA,Cai9acV7,2020-0188,2021-09-19,14:26:07,15:31:11,NA,incomplete,true,NA,true,0,4,NA,left,E1_Q5_ansR.png,E1_Q6_ansR.png,within,NA,NaN,NA,left,4852.899999976158,1,2,2068.800000011921
Cai9acV7,NA,NA,Cai9acV7,2020-0188,2021-09-19,14:26:07,15:31:11,NA,incomplete,true,NA,true,0,5,NA,right,E28_Q10_ansR.png,E1_Q6_ansR.png,between,NA,NaN,NA,right,3204.5,1,2,3563.800000011921
Cai9acV7,NA,NA,Cai9acV7,2020-0188,2021-09-19,14:26:07,15:31:11,NA,incomplete,true,NA,true,0,6,NA,right,E28_Q9_ansL.png,E28_Q4_ansL.png,within,NA,NaN,NA,right,3337.100000023842,1,1,1051.3999999761581
Cai9acV7,NA,NA,Cai9acV7,2020-0188,2021-09-19,14:26:07,15:31:11,NA,incomplete,true,NA,true,0,7,NA,right,E6_Q8_ansL.png,E6_Q9_ansL.png,within,NA,NaN,NA,right,2428.899999976158,1,1,994.5
Cai9acV7,NA,NA,Cai9acV7,2020-0188,2021-09-19,14:26:07,15:31:11,NA,incomplete,true,NA,true,0,8,NA,right,E28_Q8_ansR.png,E1_Q4_ansL.png,between,NA,NaN,NA,right,2689.300000011921,1,1,2008.0999999642372
Cai9acV7,NA,NA,Cai9acV7,2020-0188,2021-09-19,14:26:07,15:31:11,NA,incomplete,true,NA,true,0,9,NA,left,E28_Q8_ansR.png,E28_Q1_ansR.png,within,NA,NaN,NA,left,4555.699999988079,1,1,4831.799999952316
Cai9acV7,NA,NA,Cai9acV7,2020-0188,2021-09-19,14:26:07,15:31:11,NA,incomplete,true,NA,true,0,10,NA,left,E6_Q8_ansL.png,E6_Q5_ansR.png,within,NA,NaN,NA,left,3015,1,1,1078.5999999642372
Cai9acV7,NA,NA,Cai9acV7,2020-0188,2021-09-19,14:26:07,15:31:11,NA,incomplete,true,NA,true,0,11,NA,right,E1_Q10_ansR.png,E1_Q9_ansL.png,within,NA,NaN,NA,left,3888,0,2,1680.699999988079
Cai9acV7,NA,NA,Cai9acV7,2020-0188,2021-09-19,14:26:07,15:31:11,NA,incomplete,true,NA,true,0,12,NA,left,E28_Q10_ansR.png,E28_Q3_ansL.png,within,NA,NaN,NA,left,4062.600000023842,1,1,889.6000000238419
Cai9acV7,NA,NA,Cai9acV7,2020-0188,2021-09-19,14:26:07,15:31:11,NA,incomplete,true,NA,true,0,13,NA,right,E1_Q4_ansL.png,E1_Q2_ansL.png,within,NA,NaN,NA,right,3930.300000011921,1,1,929.8999999761581
Cai9acV7,NA,NA,Cai9acV7,2020-0188,2021-09-19,14:26:07,15:31:11,NA,incomplete,true,NA,true,0,14,NA,left,E28_Q9_ansL.png,E6_Q9_ansL.png,between,NA,NaN,NA,left,4870.699999988079,1,1,2050
Cai9acV7,NA,NA,Cai9acV7,2020-0188,2021-09-19,14:26:07,15:31:11,NA,incomplete,true,NA,true,0,15,NA,right,E6_Q1_ansL.png,E6_Q7_ansL.png,within,NA,NaN,NA,left,2270.900000035763,0,1,1494
Cai9acV7,NA,NA,Cai9acV7,2020-0188,2021-09-19,14:26:07,15:31:11,NA,incomplete,true,NA,true,0,16,NA,left,E1_Q3_ansR.png,E1_Q1_ansL.png,within,NA,NaN,NA,left,4553.900000035763,1,1,978.4000000357628
Cai9acV7,NA,NA,Cai9acV7,2020-0188,2021-09-19,14:26:07,15:31:11,NA,incomplete,true,NA,true,0,17,NA,left,E1_Q7_ansL.png,E1_Q2_ansL.png,within,NA,NaN,NA,left,3409.800000011921,1,2,839.8000000119209
Cai9acV7,NA,NA,Cai9acV7,2020-0188,2021-09-19,14:26:07,15:31:11,NA,incomplete,true,NA,true,0,18,NA,right,E28_Q5_ansL.png,E28_Q1_ansR.png,within,NA,NaN,NA,right,1903.4000000357628,1,1,1060.8999999761581
Cai9acV7,NA,NA,Cai9acV7,2020-0188,2021-09-19,14:26:07,15:31:11,NA,incomplete,true,NA,true,0,19,NA,left,E6_Q4_ansR.png,E6_Q3_ansR.png,within,NA,NaN,NA,left,3719.2999999523163,1,0,1256.699999988079
Cai9acV7,NA,NA,Cai9acV7,2020-0188,2021-09-19,14:26:07,15:31:11,NA,incomplete,true,NA,true,0,20,NA,right,E28_Q6_ansL.png,E28_Q3_ansL.png,within,NA,NaN,NA,right,3417.099999964237,1,1,1110.5
Cai9acV7,NA,NA,Cai9acV7,2020-0188,2021-09-19,14:26:07,15:31:11,NA,incomplete,true,NA,true,0,21,NA,left,E28_Q2_ansR.png,E28_Q4_ansL.png,within,NA,NaN,NA,left,4251.899999976158,1,1,921.6000000238419
Cai9acV7,NA,NA,Cai9acV7,2020-0188,2021-09-19,14:26:07,15:31:11,NA,incomplete,true,NA,true,0,22,NA,right,E6_Q2_ansL.png,E6_Q6_ansR.png,within,NA,NaN,NA,right,3884.899999976158,1,1,1584.800000011921
Cai9acV7,NA,NA,Cai9acV7,2020-0188,2021-09-19,14:26:07,15:31:11,NA,incomplete,true,NA,true,0,23,NA,left,E1_Q1_ansL.png,E28_Q7_ansR.png,between,NA,NaN,NA,left,2174.600000023842,1,1,2378.699999988079
Cai9acV7,NA,NA,Cai9acV7,2020-0188,2021-09-19,14:26:07,15:31:11,NA,incomplete,true,NA,true,0,24,NA,left,E6_Q2_ansL.png,E6_Q4_ansR.png,within,NA,NaN,NA,left,5596.600000023842,1,1,782.5
Cai9acV7,NA,NA,Cai9acV7,2020-0188,2021-09-19,14:26:07,15:31:11,NA,incomplete,true,NA,true,0,25,NA,left,E28_Q7_ansR.png,E28_Q2_ansR.png,within,NA,NaN,NA,left,1650.300000011921,1,1,896.1999999880791
Cai9acV7,NA,NA,Cai9acV7,2020-0188,2021-09-19,14:26:07,15:31:11,NA,incomplete,true,NA,true,0,26,NA,left,E28_Q5_ansL.png,E6_Q6_ansR.png,between,NA,NaN,NA,left,2272,1,1,3981.699999988079
Cai9acV7,NA,NA,Cai9acV7,2020-0188,2021-09-19,14:26:07,15:31:11,NA,incomplete,false,true,NA,1,0,E13_Q5_ansR.png,right,NA,NA,NA,right,1275.80000001192,true,NA,NA,NA,NA,NA
Cai9acV7,NA,NA,Cai9acV7,2020-0188,2021-09-19,14:26:07,15:31:11,NA,incomplete,false,true,NA,1,1,E13_Q4_ansR.png,right,NA,NA,NA,right,1396.40000003576,true,NA,NA,NA,NA,NA
Cai9acV7,NA,NA,Cai9acV7,2020-0188,2021-09-19,14:26:07,15:31:11,NA,incomplete,false,true,NA,1,2,E13_Q7_ansL.png,left,NA,NA,NA,left,1078.90000003576,true,NA,NA,NA,NA,NA
Cai9acV7,NA,NA,Cai9acV7,2020-0188,2021-09-19,14:26:07,15:31:11,NA,incomplete,false,true,NA,1,3,E13_Q6_ansR.png,right,NA,NA,NA,right,933.800000011921,true,NA,NA,NA,NA,NA
Cai9acV7,NA,NA,Cai9acV7,2020-0188,2021-09-19,14:26:07,15:31:11,NA,incomplete,false,true,NA,1,4,E13_Q10_ansL.png,left,NA,NA,NA,left,1435.19999998808,true,NA,NA,NA,NA,NA
Cai9acV7,NA,NA,Cai9acV7,2020-0188,2021-09-19,14:26:07,15:31:11,NA,incomplete,false,true,NA,1,5,E13_Q8_ansL.png,left,NA,NA,NA,left,912.399999976158,true,NA,NA,NA,NA,NA
Cai9acV7,NA,NA,Cai9acV7,2020-0188,2021-09-19,14:26:07,15:31:11,NA,incomplete,false,true,NA,1,6,E13_Q9_ansR.png,right,NA,NA,NA,right,945.599999964237,true,NA,NA,NA,NA,NA
Cai9acV7,NA,NA,Cai9acV7,2020-0188,2021-09-19,14:26:07,15:31:11,NA,incomplete,false,true,NA,1,7,E13_Q3_ansR.png,right,NA,NA,NA,right,858.100000023842,true,NA,NA,NA,NA,NA
Cai9acV7,NA,NA,Cai9acV7,2020-0188,2021-09-19,14:26:07,15:31:11,NA,incomplete,false,true,NA,1,8,E13_Q1_ansL.png,left,NA,NA,NA,left,1063.39999997616,true,NA,NA,NA,NA,NA
Cai9acV7,NA,NA,Cai9acV7,2020-0188,2021-09-19,14:26:07,15:31:11,NA,incomplete,false,true,NA,1,9,E13_Q2_ansL.png,left,NA,NA,NA,left,758.799999952316,true,NA,NA,NA,NA,NA
Cai9acV7,NA,NA,Cai9acV7,2020-0188,2021-09-19,14:26:07,15:31:11,NA,incomplete,false,true,NA,1,10,E23_Q6_ansR.png,right,NA,NA,NA,right,1857.19999998808,true,NA,NA,NA,NA,NA
Cai9acV7,NA,NA,Cai9acV7,2020-0188,2021-09-19,14:26:07,15:31:11,NA,incomplete,false,true,NA,1,11,E23_Q4_ansR.png,right,NA,NA,NA,right,981.200000047684,true,NA,NA,NA,NA,NA
Cai9acV7,NA,NA,Cai9acV7,2020-0188,2021-09-19,14:26:07,15:31:11,NA,incomplete,false,true,NA,1,12,E23_Q2_ansL.png,left,NA,NA,NA,left,1034.5,true,NA,NA,NA,NA,NA
Cai9acV7,NA,NA,Cai9acV7,2020-0188,2021-09-19,14:26:07,15:31:11,NA,incomplete,false,true,NA,1,13,E23_Q9_ansR.png,right,NA,NA,NA,right,1506.90000003576,true,NA,NA,NA,NA,NA
Cai9acV7,NA,NA,Cai9acV7,2020-0188,2021-09-19,14:26:07,15:31:11,NA,incomplete,false,true,NA,1,14,E23_Q8_ansL.png,left,NA,NA,NA,left,1208,true,NA,NA,NA,NA,NA
Cai9acV7,NA,NA,Cai9acV7,2020-0188,2021-09-19,14:26:07,15:31:11,NA,incomplete,false,true,NA,1,15,E23_Q10_ansL.png,left,NA,NA,NA,left,1563.5,true,NA,NA,NA,NA,NA
Cai9acV7,NA,NA,Cai9acV7,2020-0188,2021-09-19,14:26:07,15:31:11,NA,incomplete,false,true,NA,1,16,E23_Q3_ansR.png,right,NA,NA,NA,right,1487.19999998808,true,NA,NA,NA,NA,NA
Cai9acV7,NA,NA,Cai9acV7,2020-0188,2021-09-19,14:26:07,15:31:11,NA,incomplete,false,true,NA,1,17,E23_Q5_ansR.png,right,NA,NA,NA,right,950.5,true,NA,NA,NA,NA,NA
Cai9acV7,NA,NA,Cai9acV7,2020-0188,2021-09-19,14:26:07,15:31:11,NA,incomplete,false,true,NA,1,18,E23_Q7_ansL.png,left,NA,NA,NA,left,1100.30000001192,true,NA,NA,NA,NA,NA
Cai9acV7,NA,NA,Cai9acV7,2020-0188,2021-09-19,14:26:07,15:31:11,NA,incomplete,false,true,NA,1,19,E23_Q1_ansL.png,left,NA,NA,NA,left,1460.90000003576,true,NA,NA,NA,NA,NA
Cai9acV7,NA,NA,Cai9acV7,2020-0188,2021-09-19,14:26:07,15:31:11,NA,incomplete,false,true,NA,1,20,E14_Q2_ansL.png,left,NA,NA,NA,left,1207.19999998808,true,NA,NA,NA,NA,NA
Cai9acV7,NA,NA,Cai9acV7,2020-0188,2021-09-19,14:26:07,15:31:11,NA,incomplete,false,true,NA,1,21,E14_Q1_ansL.png,left,NA,NA,NA,left,791.600000023842,true,NA,NA,NA,NA,NA
Cai9acV7,NA,NA,Cai9acV7,2020-0188,2021-09-19,14:26:07,15:31:11,NA,incomplete,false,true,NA,1,22,E14_Q5_ansR.png,right,NA,NA,NA,left,900.399999976158,false,NA,NA,NA,NA,NA
Cai9acV7,NA,NA,Cai9acV7,2020-0188,2021-09-19,14:26:07,15:31:11,NA,incomplete,false,true,NA,1,23,E14_Q7_ansL.png,left,NA,NA,NA,left,1592.59999996424,true,NA,NA,NA,NA,NA
Cai9acV7,NA,NA,Cai9acV7,2020-0188,2021-09-19,14:26:07,15:31:11,NA,incomplete,false,true,NA,1,24,E14_Q3_ansR.png,right,NA,NA,NA,right,1082,true,NA,NA,NA,NA,NA
Cai9acV7,NA,NA,Cai9acV7,2020-0188,2021-09-19,14:26:07,15:31:11,NA,incomplete,false,true,NA,1,25,E14_Q10_ansL.png,left,NA,NA,NA,left,956.300000011921,true,NA,NA,NA,NA,NA
Cai9acV7,NA,NA,Cai9acV7,2020-0188,2021-09-19,14:26:07,15:31:11,NA,incomplete,false,true,NA,1,26,E14_Q9_ansR.png,right,NA,NA,NA,right,900.300000011921,true,NA,NA,NA,NA,NA
Cai9acV7,NA,NA,Cai9acV7,2020-0188,2021-09-19,14:26:07,15:31:11,NA,incomplete,false,true,NA,1,27,E14_Q6_ansR.png,right,NA,NA,NA,right,1307.80000001192,true,NA,NA,NA,NA,NA
Cai9acV7,NA,NA,Cai9acV7,2020-0188,2021-09-19,14:26:07,15:31:11,NA,incomplete,false,true,NA,1,28,E14_Q4_ansR.png,right,NA,NA,NA,right,928,true,NA,NA,NA,NA,NA
Cai9acV7,NA,NA,Cai9acV7,2020-0188,2021-09-19,14:26:07,15:31:11,NA,incomplete,false,true,NA,1,29,E14_Q8_ansL.png,left,NA,NA,NA,left,1067.30000001192,true,NA,NA,NA,NA,NA
Cai9acV7,NA,NA,Cai9acV7,2020-0188,2021-09-19,14:26:07,15:31:11,NA,incomplete,false,NA,true,1,0,NA,left,E23_Q8_ansL.png,E23_Q5_ansR.png,within,NA,NaN,NA,left,6965.300000011921,1,1,1011.3000000119209
Cai9acV7,NA,NA,Cai9acV7,2020-0188,2021-09-19,14:26:07,15:31:11,NA,incomplete,false,NA,true,1,1,NA,left,E14_Q7_ansL.png,E14_Q9_ansR.png,within,NA,NaN,NA,left,3956.699999988079,1,0,1624.800000011921
Cai9acV7,NA,NA,Cai9acV7,2020-0188,2021-09-19,14:26:07,15:31:11,NA,incomplete,false,NA,true,1,2,NA,right,E13_Q2_ansL.png,E13_Q9_ansR.png,within,NA,NaN,NA,right,1976.0999999642372,1,0,1223.5
Cai9acV7,NA,NA,Cai9acV7,2020-0188,2021-09-19,14:26:07,15:31:11,NA,incomplete,false,NA,true,1,3,NA,right,E23_Q7_ansL.png,E23_Q10_ansL.png,within,NA,NaN,NA,right,3431.5,1,1,1028.5
Cai9acV7,NA,NA,Cai9acV7,2020-0188,2021-09-19,14:26:07,15:31:11,NA,incomplete,false,NA,true,1,4,NA,right,E13_Q3_ansR.png,E13_Q10_ansL.png,within,NA,NaN,NA,right,2082,1,0,1493.6000000238419
Cai9acV7,NA,NA,Cai9acV7,2020-0188,2021-09-19,14:26:07,15:31:11,NA,incomplete,false,NA,true,1,5,NA,left,E14_Q2_ansL.png,E14_Q7_ansL.png,within,NA,NaN,NA,left,1460.800000011921,1,1,1386.3999999761581
Cai9acV7,NA,NA,Cai9acV7,2020-0188,2021-09-19,14:26:07,15:31:11,NA,incomplete,false,NA,true,1,6,NA,right,E23_Q6_ansR.png,E13_Q3_ansR.png,between,NA,NaN,NA,right,4085.599999964237,1,0,2360.600000023842
Cai9acV7,NA,NA,Cai9acV7,2020-0188,2021-09-19,14:26:07,15:31:11,NA,incomplete,false,NA,true,1,7,NA,right,E14_Q6_ansR.png,E14_Q3_ansR.png,within,NA,NaN,NA,right,3620.7999999523163,1,1,1028.199999988079
Cai9acV7,NA,NA,Cai9acV7,2020-0188,2021-09-19,14:26:07,15:31:11,NA,incomplete,false,NA,true,1,8,NA,left,E14_Q1_ansL.png,E14_Q3_ansR.png,within,NA,NaN,NA,left,1559.1000000238419,1,1,971.0999999642372
Cai9acV7,NA,NA,Cai9acV7,2020-0188,2021-09-19,14:26:07,15:31:11,NA,incomplete,false,NA,true,1,9,NA,left,E23_Q5_ansR.png,E14_Q2_ansL.png,between,NA,NaN,NA,left,1805.2999999523163,1,1,979.4000000357628
Cai9acV7,NA,NA,Cai9acV7,2020-0188,2021-09-19,14:26:07,15:31:11,NA,incomplete,false,NA,true,1,10,NA,right,E23_Q9_ansR.png,E23_Q6_ansR.png,within,NA,NaN,NA,right,2166,1,1,1414.7000000476837
Cai9acV7,NA,NA,Cai9acV7,2020-0188,2021-09-19,14:26:07,15:31:11,NA,incomplete,false,NA,true,1,11,NA,right,E14_Q8_ansL.png,E14_Q9_ansR.png,within,NA,NaN,NA,left,1414.0999999642372,0,0,2721.7999999523163
Cai9acV7,NA,NA,Cai9acV7,2020-0188,2021-09-19,14:26:07,15:31:11,NA,incomplete,false,NA,true,1,12,NA,left,E23_Q4_ansR.png,E23_Q8_ansL.png,within,NA,NaN,NA,left,1920.800000011921,1,1,890
Cai9acV7,NA,NA,Cai9acV7,2020-0188,2021-09-19,14:26:07,15:31:11,NA,incomplete,false,NA,true,1,13,NA,left,E13_Q7_ansL.png,E13_Q8_ansL.png,within,NA,NaN,NA,left,2665.199999988079,1,0,2042.6000000238419
Cai9acV7,NA,NA,Cai9acV7,2020-0188,2021-09-19,14:26:07,15:31:11,NA,incomplete,false,NA,true,1,14,NA,left,E23_Q9_ansR.png,E23_Q3_ansR.png,within,NA,NaN,NA,left,1641.300000011921,1,1,879.9000000357628
Cai9acV7,NA,NA,Cai9acV7,2020-0188,2021-09-19,14:26:07,15:31:11,NA,incomplete,false,NA,true,1,15,NA,left,E13_Q6_ansR.png,E13_Q9_ansR.png,within,NA,NaN,NA,left,1755.6000000238419,1,1,808
Cai9acV7,NA,NA,Cai9acV7,2020-0188,2021-09-19,14:26:07,15:31:11,NA,incomplete,false,NA,true,1,16,NA,left,E13_Q2_ansL.png,E23_Q2_ansL.png,between,NA,NaN,NA,left,1495.9000000357628,1,2,2500.100000023842
Cai9acV7,NA,NA,Cai9acV7,2020-0188,2021-09-19,14:26:07,15:31:11,NA,incomplete,false,NA,true,1,17,NA,right,E13_Q6_ansR.png,E13_Q5_ansR.png,within,NA,NaN,NA,right,1224.699999988079,1,1,896.5999999642372
Cai9acV7,NA,NA,Cai9acV7,2020-0188,2021-09-19,14:26:07,15:31:11,NA,incomplete,false,NA,true,1,18,NA,left,E14_Q10_ansL.png,E14_Q4_ansR.png,within,NA,NaN,NA,right,3106.699999988079,0,1,1641.3999999761581
Cai9acV7,NA,NA,Cai9acV7,2020-0188,2021-09-19,14:26:07,15:31:11,NA,incomplete,false,NA,true,1,19,NA,left,E13_Q4_ansR.png,E13_Q10_ansL.png,within,NA,NaN,NA,left,1619.1000000238419,1,0,977.6000000238419
Cai9acV7,NA,NA,Cai9acV7,2020-0188,2021-09-19,14:26:07,15:31:11,NA,incomplete,false,NA,true,1,20,NA,right,E14_Q1_ansL.png,E23_Q7_ansL.png,between,NA,NaN,NA,right,3776.199999988079,1,0,5070
Cai9acV7,NA,NA,Cai9acV7,2020-0188,2021-09-19,14:26:07,15:31:11,NA,incomplete,false,NA,true,1,21,NA,right,E23_Q10_ansL.png,E23_Q2_ansL.png,within,NA,NaN,NA,left,1649.300000011921,0,1,1012.8999999761581
Cai9acV7,NA,NA,Cai9acV7,2020-0188,2021-09-19,14:26:07,15:31:11,NA,incomplete,false,NA,true,1,22,NA,left,E13_Q8_ansL.png,E13_Q1_ansL.png,within,NA,NaN,NA,left,2436.199999988079,1,0,1314.3999999761581
Cai9acV7,NA,NA,Cai9acV7,2020-0188,2021-09-19,14:26:07,15:31:11,NA,incomplete,false,NA,true,1,23,NA,left,E14_Q5_ansR.png,E14_Q10_ansL.png,within,NA,NaN,NA,left,2224.699999988079,1,1,1085.5999999642372
Cai9acV7,NA,NA,Cai9acV7,2020-0188,2021-09-19,14:26:07,15:31:11,NA,incomplete,false,NA,true,1,24,NA,right,E23_Q4_ansR.png,E13_Q1_ansL.png,between,NA,NaN,NA,right,1479.5999999642372,1,2,2304.899999976158
Cai9acV7,NA,NA,Cai9acV7,2020-0188,2021-09-19,14:26:07,15:31:11,NA,incomplete,false,NA,true,1,25,NA,left,E23_Q3_ansR.png,E23_Q1_ansL.png,within,NA,NaN,NA,right,4710.5,0,1,1405
Cai9acV7,NA,NA,Cai9acV7,2020-0188,2021-09-19,14:26:07,15:31:11,NA,incomplete,false,NA,true,1,26,NA,right,E14_Q5_ansR.png,E23_Q1_ansL.png,between,NA,NaN,NA,right,1265.9000000357628,1,2,922.3999999761581
Cai9acV7,NA,NA,Cai9acV7,2020-0188,2021-09-19,14:26:07,15:31:11,NA,incomplete,false,true,NA,2,0,E20_Q7_ansL.png,left,NA,NA,NA,left,2244.20000004768,true,NA,NA,NA,NA,NA
Cai9acV7,NA,NA,Cai9acV7,2020-0188,2021-09-19,14:26:07,15:31:11,NA,incomplete,false,true,NA,2,1,E20_Q1_ansL.png,left,NA,NA,NA,left,1440.10000002384,true,NA,NA,NA,NA,NA
Cai9acV7,NA,NA,Cai9acV7,2020-0188,2021-09-19,14:26:07,15:31:11,NA,incomplete,false,true,NA,2,2,E20_Q2_ansL.png,left,NA,NA,NA,left,1062.60000002384,true,NA,NA,NA,NA,NA
Cai9acV7,NA,NA,Cai9acV7,2020-0188,2021-09-19,14:26:07,15:31:11,NA,incomplete,false,true,NA,2,3,E20_Q9_ansR.png,right,NA,NA,NA,right,1247.80000001192,true,NA,NA,NA,NA,NA
Cai9acV7,NA,NA,Cai9acV7,2020-0188,2021-09-19,14:26:07,15:31:11,NA,incomplete,false,true,NA,2,4,E20_Q3_ansR.png,right,NA,NA,NA,right,1245.39999997616,true,NA,NA,NA,NA,NA
Cai9acV7,NA,NA,Cai9acV7,2020-0188,2021-09-19,14:26:07,15:31:11,NA,incomplete,false,true,NA,2,5,E20_Q6_ansR.png,right,NA,NA,NA,right,2065.39999997616,true,NA,NA,NA,NA,NA
Cai9acV7,NA,NA,Cai9acV7,2020-0188,2021-09-19,14:26:07,15:31:11,NA,incomplete,false,true,NA,2,6,E20_Q4_ansR.png,right,NA,NA,NA,right,1321,true,NA,NA,NA,NA,NA
Cai9acV7,NA,NA,Cai9acV7,2020-0188,2021-09-19,14:26:07,15:31:11,NA,incomplete,false,true,NA,2,7,E20_Q8_ansL.png,left,NA,NA,NA,right,1362.19999998808,false,NA,NA,NA,NA,NA
Cai9acV7,NA,NA,Cai9acV7,2020-0188,2021-09-19,14:26:07,15:31:11,NA,incomplete,false,true,NA,2,8,E20_Q10_ansL.png,left,NA,NA,NA,left,1606.69999998808,true,NA,NA,NA,NA,NA
Cai9acV7,NA,NA,Cai9acV7,2020-0188,2021-09-19,14:26:07,15:31:11,NA,incomplete,false,true,NA,2,9,E20_Q5_ansR.png,right,NA,NA,NA,right,1564.89999997616,true,NA,NA,NA,NA,NA
Cai9acV7,NA,NA,Cai9acV7,2020-0188,2021-09-19,14:26:07,15:31:11,NA,incomplete,false,true,NA,2,10,E27_Q3_ansR.png,right,NA,NA,NA,right,1690.40000003576,true,NA,NA,NA,NA,NA
Cai9acV7,NA,NA,Cai9acV7,2020-0188,2021-09-19,14:26:07,15:31:11,NA,incomplete,false,true,NA,2,11,E27_Q5_ansR.png,right,NA,NA,NA,right,1000.90000003576,true,NA,NA,NA,NA,NA
Cai9acV7,NA,NA,Cai9acV7,2020-0188,2021-09-19,14:26:07,15:31:11,NA,incomplete,false,true,NA,2,12,E27_Q7_ansL.png,left,NA,NA,NA,left,1166.89999997616,true,NA,NA,NA,NA,NA
Cai9acV7,NA,NA,Cai9acV7,2020-0188,2021-09-19,14:26:07,15:31:11,NA,incomplete,false,true,NA,2,13,E27_Q4_ansR.png,right,NA,NA,NA,right,1045.89999997616,true,NA,NA,NA,NA,NA
Cai9acV7,NA,NA,Cai9acV7,2020-0188,2021-09-19,14:26:07,15:31:11,NA,incomplete,false,true,NA,2,14,E27_Q9_ansR.png,right,NA,NA,NA,right,863.100000023842,true,NA,NA,NA,NA,NA
Cai9acV7,NA,NA,Cai9acV7,2020-0188,2021-09-19,14:26:07,15:31:11,NA,incomplete,false,true,NA,2,15,E27_Q2_ansL.png,left,NA,NA,NA,left,924,true,NA,NA,NA,NA,NA
Cai9acV7,NA,NA,Cai9acV7,2020-0188,2021-09-19,14:26:07,15:31:11,NA,incomplete,false,true,NA,2,16,E27_Q6_ansR.png,right,NA,NA,NA,right,757.699999988079,true,NA,NA,NA,NA,NA
Cai9acV7,NA,NA,Cai9acV7,2020-0188,2021-09-19,14:26:07,15:31:11,NA,incomplete,false,true,NA,2,17,E27_Q8_ansL.png,left,NA,NA,NA,left,925.300000011921,true,NA,NA,NA,NA,NA
Cai9acV7,NA,NA,Cai9acV7,2020-0188,2021-09-19,14:26:07,15:31:11,NA,incomplete,false,true,NA,2,18,E27_Q10_ansL.png,left,NA,NA,NA,left,1254,true,NA,NA,NA,NA,NA
Cai9acV7,NA,NA,Cai9acV7,2020-0188,2021-09-19,14:26:07,15:31:11,NA,incomplete,false,true,NA,2,19,E27_Q1_ansL.png,left,NA,NA,NA,left,1007.39999997616,true,NA,NA,NA,NA,NA
Cai9acV7,NA,NA,Cai9acV7,2020-0188,2021-09-19,14:26:07,15:31:11,NA,incomplete,false,true,NA,2,20,E26_Q1_ansL.png,left,NA,NA,NA,left,2301.80000001192,true,NA,NA,NA,NA,NA
Cai9acV7,NA,NA,Cai9acV7,2020-0188,2021-09-19,14:26:07,15:31:11,NA,incomplete,false,true,NA,2,21,E26_Q6_ansR.png,right,NA,NA,NA,right,998.299999952316,true,NA,NA,NA,NA,NA
Cai9acV7,NA,NA,Cai9acV7,2020-0188,2021-09-19,14:26:07,15:31:11,NA,incomplete,false,true,NA,2,22,E26_Q8_ansL.png,left,NA,NA,NA,left,1091.30000001192,true,NA,NA,NA,NA,NA
Cai9acV7,NA,NA,Cai9acV7,2020-0188,2021-09-19,14:26:07,15:31:11,NA,incomplete,false,true,NA,2,23,E26_Q5_ansR.png,right,NA,NA,NA,right,1018.59999996424,true,NA,NA,NA,NA,NA
Cai9acV7,NA,NA,Cai9acV7,2020-0188,2021-09-19,14:26:07,15:31:11,NA,incomplete,false,true,NA,2,24,E26_Q10_ansL.png,left,NA,NA,NA,left,1207.69999998808,true,NA,NA,NA,NA,NA
Cai9acV7,NA,NA,Cai9acV7,2020-0188,2021-09-19,14:26:07,15:31:11,NA,incomplete,false,true,NA,2,25,E26_Q4_ansR.png,right,NA,NA,NA,right,953.100000023842,true,NA,NA,NA,NA,NA
Cai9acV7,NA,NA,Cai9acV7,2020-0188,2021-09-19,14:26:07,15:31:11,NA,incomplete,false,true,NA,2,26,E26_Q7_ansL.png,left,NA,NA,NA,left,753.100000023842,true,NA,NA,NA,NA,NA
Cai9acV7,NA,NA,Cai9acV7,2020-0188,2021-09-19,14:26:07,15:31:11,NA,incomplete,false,true,NA,2,27,E26_Q2_ansL.png,left,NA,NA,NA,left,874.300000011921,true,NA,NA,NA,NA,NA
Cai9acV7,NA,NA,Cai9acV7,2020-0188,2021-09-19,14:26:07,15:31:11,NA,incomplete,false,true,NA,2,28,E26_Q3_ansR.png,right,NA,NA,NA,right,889.599999964237,true,NA,NA,NA,NA,NA
Cai9acV7,NA,NA,Cai9acV7,2020-0188,2021-09-19,14:26:07,15:31:11,NA,incomplete,false,true,NA,2,29,E26_Q9_ansR.png,right,NA,NA,NA,right,1051.40000003576,true,NA,NA,NA,NA,NA
Cai9acV7,NA,NA,Cai9acV7,2020-0188,2021-09-19,14:26:07,15:31:11,NA,incomplete,false,NA,true,2,0,NA,right,E20_Q4_ansR.png,E20_Q9_ansR.png,within,NA,NaN,NA,left,3151.2999999523163,0,1,796
Cai9acV7,NA,NA,Cai9acV7,2020-0188,2021-09-19,14:26:07,15:31:11,NA,incomplete,false,NA,true,2,1,NA,right,E20_Q10_ansL.png,E20_Q6_ansR.png,within,NA,NaN,NA,right,1462.3999999761581,1,0,1043.2999999523163
Cai9acV7,NA,NA,Cai9acV7,2020-0188,2021-09-19,14:26:07,15:31:11,NA,incomplete,false,NA,true,2,2,NA,right,E26_Q6_ansR.png,E27_Q10_ansL.png,between,NA,NaN,NA,right,2163.5,1,2,815.3999999761581
Cai9acV7,NA,NA,Cai9acV7,2020-0188,2021-09-19,14:26:07,15:31:11,NA,incomplete,false,NA,true,2,3,NA,left,E27_Q6_ansR.png,E27_Q1_ansL.png,within,NA,NaN,NA,left,3463.800000011921,1,1,693.7000000476837
Cai9acV7,NA,NA,Cai9acV7,2020-0188,2021-09-19,14:26:07,15:31:11,NA,incomplete,false,NA,true,2,4,NA,left,E27_Q3_ansR.png,E27_Q4_ansR.png,within,NA,NaN,NA,left,1863.7999999523163,1,1,1118.699999988079
Cai9acV7,NA,NA,Cai9acV7,2020-0188,2021-09-19,14:26:07,15:31:11,NA,incomplete,false,NA,true,2,5,NA,right,E26_Q5_ansR.png,E26_Q1_ansL.png,within,NA,NaN,NA,right,3220.899999976158,1,1,717.5
Cai9acV7,NA,NA,Cai9acV7,2020-0188,2021-09-19,14:26:07,15:31:11,NA,incomplete,false,NA,true,2,6,NA,left,E20_Q5_ansR.png,E27_Q7_ansL.png,between,NA,NaN,NA,left,2509.599999964237,1,2,2049.5
Cai9acV7,NA,NA,Cai9acV7,2020-0188,2021-09-19,14:26:07,15:31:11,NA,incomplete,false,NA,true,2,7,NA,left,E26_Q5_ansR.png,E26_Q7_ansL.png,within,NA,NaN,NA,left,1814.199999988079,1,1,864.1000000238419
Cai9acV7,NA,NA,Cai9acV7,2020-0188,2021-09-19,14:26:07,15:31:11,NA,incomplete,false,NA,true,2,8,NA,left,E26_Q4_ansR.png,E26_Q3_ansR.png,within,NA,NaN,NA,right,2494.800000011921,0,1,842.1999999880791
Cai9acV7,NA,NA,Cai9acV7,2020-0188,2021-09-19,14:26:07,15:31:11,NA,incomplete,false,NA,true,2,9,NA,left,E20_Q1_ansL.png,E20_Q3_ansR.png,within,NA,NaN,NA,left,3515.800000011921,1,1,1022.0999999642372
Cai9acV7,NA,NA,Cai9acV7,2020-0188,2021-09-19,14:26:07,15:31:11,NA,incomplete,false,NA,true,2,10,NA,right,E26_Q4_ansR.png,E26_Q8_ansL.png,within,NA,NaN,NA,right,4152.100000023842,1,1,848.9000000357628
Cai9acV7,NA,NA,Cai9acV7,2020-0188,2021-09-19,14:26:07,15:31:11,NA,incomplete,false,NA,true,2,11,NA,left,E27_Q5_ansR.png,E27_Q9_ansR.png,within,NA,NaN,NA,left,1846.3999999761581,1,1,725.6000000238419
Cai9acV7,NA,NA,Cai9acV7,2020-0188,2021-09-19,14:26:07,15:31:11,NA,incomplete,false,NA,true,2,12,NA,left,E27_Q2_ansL.png,E27_Q10_ansL.png,within,NA,NaN,NA,right,2722.899999976158,0,1,1060.0999999642372
Cai9acV7,NA,NA,Cai9acV7,2020-0188,2021-09-19,14:26:07,15:31:11,NA,incomplete,false,NA,true,2,13,NA,right,E27_Q2_ansL.png,E27_Q7_ansL.png,within,NA,NaN,NA,left,1537.5,0,1,1225.5
Cai9acV7,NA,NA,Cai9acV7,2020-0188,2021-09-19,14:26:07,15:31:11,NA,incomplete,false,NA,true,2,14,NA,left,E27_Q1_ansL.png,E26_Q8_ansL.png,between,NA,NaN,NA,left,3104.899999976158,1,2,1798.5
Cai9acV7,NA,NA,Cai9acV7,2020-0188,2021-09-19,14:26:07,15:31:11,NA,incomplete,false,NA,true,2,15,NA,left,E26_Q10_ansL.png,E26_Q2_ansL.png,within,NA,NaN,NA,left,1774,1,1,750.9000000357628
Cai9acV7,NA,NA,Cai9acV7,2020-0188,2021-09-19,14:26:07,15:31:11,NA,incomplete,false,NA,true,2,16,NA,left,E27_Q9_ansR.png,E27_Q8_ansL.png,within,NA,NaN,NA,right,2337.899999976158,0,1,921.9000000357628
Cai9acV7,NA,NA,Cai9acV7,2020-0188,2021-09-19,14:26:07,15:31:11,NA,incomplete,false,NA,true,2,17,NA,left,E20_Q3_ansR.png,E20_Q8_ansL.png,within,NA,NaN,NA,right,1487.5,0,1,1519.7000000476837
Cai9acV7,NA,NA,Cai9acV7,2020-0188,2021-09-19,14:26:07,15:31:11,NA,incomplete,false,NA,true,2,18,NA,left,E20_Q7_ansL.png,E20_Q9_ansR.png,within,NA,NaN,NA,right,3071.899999976158,0,1,921.6999999880791
Cai9acV7,NA,NA,Cai9acV7,2020-0188,2021-09-19,14:26:07,15:31:11,NA,incomplete,false,NA,true,2,19,NA,right,E27_Q6_ansR.png,E27_Q4_ansR.png,within,NA,NaN,NA,right,2124.599999964237,1,0,4415.900000035763
Cai9acV7,NA,NA,Cai9acV7,2020-0188,2021-09-19,14:26:07,15:31:11,NA,incomplete,false,NA,true,2,20,NA,right,E20_Q6_ansR.png,E20_Q2_ansL.png,within,NA,NaN,NA,right,5132.5,1,1,692.8999999761581
Cai9acV7,NA,NA,Cai9acV7,2020-0188,2021-09-19,14:26:07,15:31:11,NA,incomplete,false,NA,true,2,21,NA,left,E26_Q6_ansR.png,E26_Q10_ansL.png,within,NA,NaN,NA,left,3621.7999999523163,1,0,1493.6000000238419
Cai9acV7,NA,NA,Cai9acV7,2020-0188,2021-09-19,14:26:07,15:31:11,NA,incomplete,false,NA,true,2,22,NA,right,E27_Q5_ansR.png,E20_Q10_ansL.png,between,NA,NaN,NA,right,1511.800000011921,1,1,841.4000000357628
Cai9acV7,NA,NA,Cai9acV7,2020-0188,2021-09-19,14:26:07,15:31:11,NA,incomplete,false,NA,true,2,23,NA,right,E20_Q5_ansR.png,E20_Q4_ansR.png,within,NA,NaN,NA,left,1839.5,0,1,1027.300000011921
Cai9acV7,NA,NA,Cai9acV7,2020-0188,2021-09-19,14:26:07,15:31:11,NA,incomplete,false,NA,true,2,24,NA,left,E26_Q7_ansL.png,E26_Q9_ansR.png,within,NA,NaN,NA,left,1863.5999999642372,1,0,1159
Cai9acV7,NA,NA,Cai9acV7,2020-0188,2021-09-19,14:26:07,15:31:11,NA,incomplete,false,NA,true,2,25,NA,left,E20_Q8_ansL.png,E27_Q3_ansR.png,between,NA,NaN,NA,left,4741.199999988079,1,2,1829.1000000238419
Cai9acV7,NA,NA,Cai9acV7,2020-0188,2021-09-19,14:26:07,15:31:11,NA,incomplete,false,NA,true,2,26,NA,right,E26_Q1_ansL.png,E27_Q8_ansL.png,between,NA,NaN,NA,right,1821.5,1,3,3130.900000035763
Cai9acV7,NA,NA,Cai9acV7,2020-0188,2021-09-19,14:26:07,15:31:11,NA,incomplete,false,true,NA,3,0,E12_Q5_ansR.png,right,NA,NA,NA,right,1240.10000002384,true,NA,NA,NA,NA,NA
Cai9acV7,NA,NA,Cai9acV7,2020-0188,2021-09-19,14:26:07,15:31:11,NA,incomplete,false,true,NA,3,1,E12_Q4_ansR.png,right,NA,NA,NA,right,1056,true,NA,NA,NA,NA,NA
Cai9acV7,NA,NA,Cai9acV7,2020-0188,2021-09-19,14:26:07,15:31:11,NA,incomplete,false,true,NA,3,2,E12_Q9_ansR.png,right,NA,NA,NA,right,1199.20000004768,true,NA,NA,NA,NA,NA
Cai9acV7,NA,NA,Cai9acV7,2020-0188,2021-09-19,14:26:07,15:31:11,NA,incomplete,false,true,NA,3,3,E12_Q8_ansL.png,left,NA,NA,NA,left,1023.69999998808,true,NA,NA,NA,NA,NA
Cai9acV7,NA,NA,Cai9acV7,2020-0188,2021-09-19,14:26:07,15:31:11,NA,incomplete,false,true,NA,3,4,E12_Q3_ansR.png,right,NA,NA,NA,right,1237.40000003576,true,NA,NA,NA,NA,NA
Cai9acV7,NA,NA,Cai9acV7,2020-0188,2021-09-19,14:26:07,15:31:11,NA,incomplete,false,true,NA,3,5,E12_Q10_ansL.png,left,NA,NA,NA,left,1129.5,true,NA,NA,NA,NA,NA
Cai9acV7,NA,NA,Cai9acV7,2020-0188,2021-09-19,14:26:07,15:31:11,NA,incomplete,false,true,NA,3,6,E12_Q2_ansL.png,left,NA,NA,NA,left,1045.89999997616,true,NA,NA,NA,NA,NA
Cai9acV7,NA,NA,Cai9acV7,2020-0188,2021-09-19,14:26:07,15:31:11,NA,incomplete,false,true,NA,3,7,E12_Q7_ansL.png,left,NA,NA,NA,left,1738.39999997616,true,NA,NA,NA,NA,NA
Cai9acV7,NA,NA,Cai9acV7,2020-0188,2021-09-19,14:26:07,15:31:11,NA,incomplete,false,true,NA,3,8,E12_Q6_ansR.png,right,NA,NA,NA,left,905,false,NA,NA,NA,NA,NA
Cai9acV7,NA,NA,Cai9acV7,2020-0188,2021-09-19,14:26:07,15:31:11,NA,incomplete,false,true,NA,3,9,E12_Q1_ansL.png,left,NA,NA,NA,left,1246.69999998808,true,NA,NA,NA,NA,NA
Cai9acV7,NA,NA,Cai9acV7,2020-0188,2021-09-19,14:26:07,15:31:11,NA,incomplete,false,true,NA,3,10,E21_Q7_ansL.png,left,NA,NA,NA,left,1278.69999998808,true,NA,NA,NA,NA,NA
Cai9acV7,NA,NA,Cai9acV7,2020-0188,2021-09-19,14:26:07,15:31:11,NA,incomplete,false,true,NA,3,11,E21_Q3_ansR.png,right,NA,NA,NA,right,1280.60000002384,true,NA,NA,NA,NA,NA
Cai9acV7,NA,NA,Cai9acV7,2020-0188,2021-09-19,14:26:07,15:31:11,NA,incomplete,false,true,NA,3,12,E21_Q8_ansL.png,left,NA,NA,NA,left,1123.39999997616,true,NA,NA,NA,NA,NA
Cai9acV7,NA,NA,Cai9acV7,2020-0188,2021-09-19,14:26:07,15:31:11,NA,incomplete,false,true,NA,3,13,E21_Q2_ansL.png,left,NA,NA,NA,left,944,true,NA,NA,NA,NA,NA
Cai9acV7,NA,NA,Cai9acV7,2020-0188,2021-09-19,14:26:07,15:31:11,NA,incomplete,false,true,NA,3,14,E21_Q1_ansL.png,left,NA,NA,NA,left,1082.40000003576,true,NA,NA,NA,NA,NA
Cai9acV7,NA,NA,Cai9acV7,2020-0188,2021-09-19,14:26:07,15:31:11,NA,incomplete,false,true,NA,3,15,E21_Q10_ansL.png,left,NA,NA,NA,left,961.699999988079,true,NA,NA,NA,NA,NA
Cai9acV7,NA,NA,Cai9acV7,2020-0188,2021-09-19,14:26:07,15:31:11,NA,incomplete,false,true,NA,3,16,E21_Q6_ansR.png,right,NA,NA,NA,right,982.600000023842,true,NA,NA,NA,NA,NA
Cai9acV7,NA,NA,Cai9acV7,2020-0188,2021-09-19,14:26:07,15:31:11,NA,incomplete,false,true,NA,3,17,E21_Q5_ansR.png,right,NA,NA,NA,right,807,true,NA,NA,NA,NA,NA
Cai9acV7,NA,NA,Cai9acV7,2020-0188,2021-09-19,14:26:07,15:31:11,NA,incomplete,false,true,NA,3,18,E21_Q4_ansR.png,right,NA,NA,NA,right,828.5,true,NA,NA,NA,NA,NA
Cai9acV7,NA,NA,Cai9acV7,2020-0188,2021-09-19,14:26:07,15:31:11,NA,incomplete,false,true,NA,3,19,E21_Q9_ansR.png,right,NA,NA,NA,right,961.5,true,NA,NA,NA,NA,NA
Cai9acV7,NA,NA,Cai9acV7,2020-0188,2021-09-19,14:26:07,15:31:11,NA,incomplete,false,true,NA,3,20,E32_Q3_ansR.png,right,NA,NA,NA,right,1556.69999998808,true,NA,NA,NA,NA,NA
Cai9acV7,NA,NA,Cai9acV7,2020-0188,2021-09-19,14:26:07,15:31:11,NA,incomplete,false,true,NA,3,21,E32_Q1_ansL.png,left,NA,NA,NA,left,1261.40000003576,true,NA,NA,NA,NA,NA
Cai9acV7,NA,NA,Cai9acV7,2020-0188,2021-09-19,14:26:07,15:31:11,NA,incomplete,false,true,NA,3,22,E32_Q4_ansR.png,right,NA,NA,NA,right,2073.20000004768,true,NA,NA,NA,NA,NA
Cai9acV7,NA,NA,Cai9acV7,2020-0188,2021-09-19,14:26:07,15:31:11,NA,incomplete,false,true,NA,3,23,E32_Q8_ansL.png,left,NA,NA,NA,left,1118.09999996424,true,NA,NA,NA,NA,NA
Cai9acV7,NA,NA,Cai9acV7,2020-0188,2021-09-19,14:26:07,15:31:11,NA,incomplete,false,true,NA,3,24,E32_Q5_ansR.png,right,NA,NA,NA,right,1109.70000004768,true,NA,NA,NA,NA,NA
Cai9acV7,NA,NA,Cai9acV7,2020-0188,2021-09-19,14:26:07,15:31:11,NA,incomplete,false,true,NA,3,25,E32_Q9_ansR.png,right,NA,NA,NA,right,1099.5,true,NA,NA,NA,NA,NA
Cai9acV7,NA,NA,Cai9acV7,2020-0188,2021-09-19,14:26:07,15:31:11,NA,incomplete,false,true,NA,3,26,E32_Q6_ansR.png,right,NA,NA,NA,right,1192.39999997616,true,NA,NA,NA,NA,NA
Cai9acV7,NA,NA,Cai9acV7,2020-0188,2021-09-19,14:26:07,15:31:11,NA,incomplete,false,true,NA,3,27,E32_Q2_ansL.png,left,NA,NA,NA,left,943.800000011921,true,NA,NA,NA,NA,NA
Cai9acV7,NA,NA,Cai9acV7,2020-0188,2021-09-19,14:26:07,15:31:11,NA,incomplete,false,true,NA,3,28,E32_Q10_ansL.png,left,NA,NA,NA,left,1081.69999998808,true,NA,NA,NA,NA,NA
Cai9acV7,NA,NA,Cai9acV7,2020-0188,2021-09-19,14:26:07,15:31:11,NA,incomplete,false,true,NA,3,29,E32_Q7_ansL.png,left,NA,NA,NA,left,917.300000011921,true,NA,NA,NA,NA,NA
Cai9acV7,NA,NA,Cai9acV7,2020-0188,2021-09-19,14:26:07,15:31:11,NA,incomplete,false,NA,true,3,0,NA,left,E21_Q6_ansR.png,E21_Q9_ansR.png,within,NA,NaN,NA,right,2029,0,0,930.0999999642372
Cai9acV7,NA,NA,Cai9acV7,2020-0188,2021-09-19,14:26:07,15:31:11,NA,incomplete,false,NA,true,3,1,NA,left,E32_Q8_ansL.png,E32_Q6_ansR.png,within,NA,NaN,NA,left,2755.100000023842,1,1,937.9000000357628
Cai9acV7,NA,NA,Cai9acV7,2020-0188,2021-09-19,14:26:07,15:31:11,NA,incomplete,false,NA,true,3,2,NA,right,E32_Q1_ansL.png,E21_Q4_ansR.png,between,NA,NaN,NA,right,1708.9000000357628,1,2,1583.6000000238419
Cai9acV7,NA,NA,Cai9acV7,2020-0188,2021-09-19,14:26:07,15:31:11,NA,incomplete,false,NA,true,3,3,NA,left,E12_Q6_ansR.png,E21_Q3_ansR.png,between,NA,NaN,NA,left,1340.199999988079,1,2,1224.199999988079
Cai9acV7,NA,NA,Cai9acV7,2020-0188,2021-09-19,14:26:07,15:31:11,NA,incomplete,false,NA,true,3,4,NA,left,E12_Q8_ansL.png,E12_Q2_ansL.png,within,NA,NaN,NA,right,2444.099999964237,0,0,767.1999999880791
Cai9acV7,NA,NA,Cai9acV7,2020-0188,2021-09-19,14:26:07,15:31:11,NA,incomplete,false,NA,true,3,5,NA,right,E32_Q7_ansL.png,E32_Q6_ansR.png,within,NA,NaN,NA,right,1633.8999999761581,1,1,849.7000000476837
Cai9acV7,NA,NA,Cai9acV7,2020-0188,2021-09-19,14:26:07,15:31:11,NA,incomplete,false,NA,true,3,6,NA,left,E21_Q8_ansL.png,E21_Q10_ansL.png,within,NA,NaN,NA,left,2436.600000023842,1,1,979.7000000476837
Cai9acV7,NA,NA,Cai9acV7,2020-0188,2021-09-19,14:26:07,15:31:11,NA,incomplete,false,NA,true,3,7,NA,left,E32_Q5_ansR.png,E32_Q2_ansL.png,within,NA,NaN,NA,left,2526.5,1,1,997.5
Cai9acV7,NA,NA,Cai9acV7,2020-0188,2021-09-19,14:26:07,15:31:11,NA,incomplete,false,NA,true,3,8,NA,left,E21_Q10_ansL.png,E21_Q4_ansR.png,within,NA,NaN,NA,right,3221.399999976158,0,1,1002.6000000238419
Cai9acV7,NA,NA,Cai9acV7,2020-0188,2021-09-19,14:26:07,15:31:11,NA,incomplete,false,NA,true,3,9,NA,left,E32_Q1_ansL.png,E32_Q5_ansR.png,within,NA,NaN,NA,right,3997.399999976158,0,1,888.6999999880791
Cai9acV7,NA,NA,Cai9acV7,2020-0188,2021-09-19,14:26:07,15:31:11,NA,incomplete,false,NA,true,3,10,NA,left,E21_Q1_ansL.png,E21_Q5_ansR.png,within,NA,NaN,NA,right,3670.800000011921,0,1,2164
Cai9acV7,NA,NA,Cai9acV7,2020-0188,2021-09-19,14:26:07,15:31:11,NA,incomplete,false,NA,true,3,11,NA,right,E32_Q3_ansR.png,E21_Q5_ansR.png,between,NA,NaN,NA,right,2263.399999976158,1,2,1070.5
Cai9acV7,NA,NA,Cai9acV7,2020-0188,2021-09-19,14:26:07,15:31:11,NA,incomplete,false,NA,true,3,12,NA,right,E12_Q7_ansL.png,E12_Q3_ansR.png,within,NA,NaN,NA,left,3629.300000011921,0,1,889.5999999642372
Cai9acV7,NA,NA,Cai9acV7,2020-0188,2021-09-19,14:26:07,15:31:11,NA,incomplete,false,NA,true,3,13,NA,left,E12_Q5_ansR.png,E12_Q8_ansL.png,within,NA,NaN,NA,left,2813,1,1,799.6999999880791
Cai9acV7,NA,NA,Cai9acV7,2020-0188,2021-09-19,14:26:07,15:31:11,NA,incomplete,false,NA,true,3,14,NA,right,E32_Q4_ansR.png,E21_Q9_ansR.png,between,NA,NaN,NA,right,2330.699999988079,1,2,1692.300000011921
Cai9acV7,NA,NA,Cai9acV7,2020-0188,2021-09-19,14:26:07,15:31:11,NA,incomplete,false,NA,true,3,15,NA,left,E12_Q4_ansR.png,E12_Q3_ansR.png,within,NA,NaN,NA,left,1472,1,1,1029.0999999642372
Cai9acV7,NA,NA,Cai9acV7,2020-0188,2021-09-19,14:26:07,15:31:11,NA,incomplete,false,NA,true,3,16,NA,left,E21_Q3_ansR.png,E21_Q1_ansL.png,within,NA,NaN,NA,left,1586.7999999523163,1,1,825.5999999642372
Cai9acV7,NA,NA,Cai9acV7,2020-0188,2021-09-19,14:26:07,15:31:11,NA,incomplete,false,NA,true,3,17,NA,left,E12_Q1_ansL.png,E21_Q8_ansL.png,between,NA,NaN,NA,left,3694.600000023842,1,2,2148.5
Cai9acV7,NA,NA,Cai9acV7,2020-0188,2021-09-19,14:26:07,15:31:11,NA,incomplete,false,NA,true,3,18,NA,left,E12_Q10_ansL.png,E12_Q6_ansR.png,within,NA,NaN,NA,right,5678.699999988079,0,1,1117.199999988079
Cai9acV7,NA,NA,Cai9acV7,2020-0188,2021-09-19,14:26:07,15:31:11,NA,incomplete,false,NA,true,3,19,NA,right,E32_Q9_ansR.png,E32_Q4_ansR.png,within,NA,NaN,NA,right,1676.800000011921,1,1,653.6000000238419
Cai9acV7,NA,NA,Cai9acV7,2020-0188,2021-09-19,14:26:07,15:31:11,NA,incomplete,false,NA,true,3,20,NA,left,E21_Q2_ansL.png,E21_Q6_ansR.png,within,NA,NaN,NA,left,1192.2000000476837,1,1,1062.699999988079
Cai9acV7,NA,NA,Cai9acV7,2020-0188,2021-09-19,14:26:07,15:31:11,NA,incomplete,false,NA,true,3,21,NA,right,E32_Q10_ansL.png,E32_Q9_ansR.png,within,NA,NaN,NA,right,1945.699999988079,1,1,989
Cai9acV7,NA,NA,Cai9acV7,2020-0188,2021-09-19,14:26:07,15:31:11,NA,incomplete,false,NA,true,3,22,NA,right,E32_Q8_ansL.png,E32_Q3_ansR.png,within,NA,NaN,NA,right,1626.199999988079,1,1,2403
Cai9acV7,NA,NA,Cai9acV7,2020-0188,2021-09-19,14:26:07,15:31:11,NA,incomplete,false,NA,true,3,23,NA,left,E12_Q7_ansL.png,E21_Q7_ansL.png,between,NA,NaN,NA,left,1298,1,2,1063.0999999642372
Cai9acV7,NA,NA,Cai9acV7,2020-0188,2021-09-19,14:26:07,15:31:11,NA,incomplete,false,NA,true,3,24,NA,left,E12_Q9_ansR.png,E12_Q10_ansL.png,within,NA,NaN,NA,left,1446.9000000357628,1,1,1118
Cai9acV7,NA,NA,Cai9acV7,2020-0188,2021-09-19,14:26:07,15:31:11,NA,incomplete,false,NA,true,3,25,NA,right,E12_Q1_ansL.png,E12_Q2_ansL.png,within,NA,NaN,NA,right,2108.399999976158,1,1,1118.1000000238419
Cai9acV7,NA,NA,Cai9acV7,2020-0188,2021-09-19,14:26:07,15:31:11,NA,incomplete,false,NA,true,3,26,NA,right,E21_Q2_ansL.png,E21_Q7_ansL.png,within,NA,NaN,NA,right,1716.2999999523163,1,1,1119.300000011921
Cai9acV7,NA,NA,Cai9acV7,2020-0188,2021-09-19,14:26:07,15:31:11,NA,incomplete,false,true,NA,4,0,E11_Q6_ansL.png,left,NA,NA,NA,left,2233,true,NA,NA,NA,NA,NA
Cai9acV7,NA,NA,Cai9acV7,2020-0188,2021-09-19,14:26:07,15:31:11,NA,incomplete,false,true,NA,4,1,E11_Q7_ansR.png,right,NA,NA,NA,right,2933.10000002384,true,NA,NA,NA,NA,NA
Cai9acV7,NA,NA,Cai9acV7,2020-0188,2021-09-19,14:26:07,15:31:11,NA,incomplete,false,true,NA,4,2,E11_Q5_ansL.png,left,NA,NA,NA,left,1209.29999995232,true,NA,NA,NA,NA,NA
Cai9acV7,NA,NA,Cai9acV7,2020-0188,2021-09-19,14:26:07,15:31:11,NA,incomplete,false,true,NA,4,3,E11_Q10_ansR.png,right,NA,NA,NA,right,1370.60000002384,true,NA,NA,NA,NA,NA
Cai9acV7,NA,NA,Cai9acV7,2020-0188,2021-09-19,14:26:07,15:31:11,NA,incomplete,false,true,NA,4,4,E11_Q2_ansR.png,right,NA,NA,NA,right,1284.29999995232,true,NA,NA,NA,NA,NA
Cai9acV7,NA,NA,Cai9acV7,2020-0188,2021-09-19,14:26:07,15:31:11,NA,incomplete,false,true,NA,4,5,E11_Q1_ansR.png,right,NA,NA,NA,right,1337.39999997616,true,NA,NA,NA,NA,NA
Cai9acV7,NA,NA,Cai9acV7,2020-0188,2021-09-19,14:26:07,15:31:11,NA,incomplete,false,true,NA,4,6,E11_Q4_ansL.png,left,NA,NA,NA,left,1415.80000001192,true,NA,NA,NA,NA,NA
Cai9acV7,NA,NA,Cai9acV7,2020-0188,2021-09-19,14:26:07,15:31:11,NA,incomplete,false,true,NA,4,7,E11_Q3_ansL.png,left,NA,NA,NA,left,1061.30000001192,true,NA,NA,NA,NA,NA
Cai9acV7,NA,NA,Cai9acV7,2020-0188,2021-09-19,14:26:07,15:31:11,NA,incomplete,false,true,NA,4,8,E11_Q8_ansR.png,right,NA,NA,NA,right,1122.30000001192,true,NA,NA,NA,NA,NA
Cai9acV7,NA,NA,Cai9acV7,2020-0188,2021-09-19,14:26:07,15:31:11,NA,incomplete,false,true,NA,4,9,E11_Q9_ansL.png,left,NA,NA,NA,left,742.899999976158,true,NA,NA,NA,NA,NA
Cai9acV7,NA,NA,Cai9acV7,2020-0188,2021-09-19,14:26:07,15:31:11,NA,incomplete,false,true,NA,4,10,E29_Q10_ansL.png,left,NA,NA,NA,left,1084.30000001192,true,NA,NA,NA,NA,NA
Cai9acV7,NA,NA,Cai9acV7,2020-0188,2021-09-19,14:26:07,15:31:11,NA,incomplete,false,true,NA,4,11,E29_Q9_ansR.png,right,NA,NA,NA,right,1527.10000002384,true,NA,NA,NA,NA,NA
Cai9acV7,NA,NA,Cai9acV7,2020-0188,2021-09-19,14:26:07,15:31:11,NA,incomplete,false,true,NA,4,12,E29_Q4_ansR.png,right,NA,NA,NA,right,1011.5,true,NA,NA,NA,NA,NA
Cai9acV7,NA,NA,Cai9acV7,2020-0188,2021-09-19,14:26:07,15:31:11,NA,incomplete,false,true,NA,4,13,E29_Q3_ansR.png,right,NA,NA,NA,right,1153.19999998808,true,NA,NA,NA,NA,NA
Cai9acV7,NA,NA,Cai9acV7,2020-0188,2021-09-19,14:26:07,15:31:11,NA,incomplete,false,true,NA,4,14,E29_Q5_ansR.png,right,NA,NA,NA,right,1286.89999997616,true,NA,NA,NA,NA,NA
Cai9acV7,NA,NA,Cai9acV7,2020-0188,2021-09-19,14:26:07,15:31:11,NA,incomplete,false,true,NA,4,15,E29_Q1_ansL.png,left,NA,NA,NA,left,1082.39999997616,true,NA,NA,NA,NA,NA
Cai9acV7,NA,NA,Cai9acV7,2020-0188,2021-09-19,14:26:07,15:31:11,NA,incomplete,false,true,NA,4,16,E29_Q8_ansL.png,left,NA,NA,NA,left,2121.19999998808,true,NA,NA,NA,NA,NA
Cai9acV7,NA,NA,Cai9acV7,2020-0188,2021-09-19,14:26:07,15:31:11,NA,incomplete,false,true,NA,4,17,E29_Q7_ansL.png,left,NA,NA,NA,left,1024.60000002384,true,NA,NA,NA,NA,NA
Cai9acV7,NA,NA,Cai9acV7,2020-0188,2021-09-19,14:26:07,15:31:11,NA,incomplete,false,true,NA,4,18,E29_Q2_ansL.png,left,NA,NA,NA,left,1682.39999997616,true,NA,NA,NA,NA,NA
Cai9acV7,NA,NA,Cai9acV7,2020-0188,2021-09-19,14:26:07,15:31:11,NA,incomplete,false,true,NA,4,19,E29_Q6_ansR.png,right,NA,NA,NA,right,1041.60000002384,true,NA,NA,NA,NA,NA
Cai9acV7,NA,NA,Cai9acV7,2020-0188,2021-09-19,14:26:07,15:31:11,NA,incomplete,false,true,NA,4,20,E7_Q2_ansL.png,left,NA,NA,NA,left,980.300000011921,true,NA,NA,NA,NA,NA
Cai9acV7,NA,NA,Cai9acV7,2020-0188,2021-09-19,14:26:07,15:31:11,NA,incomplete,false,true,NA,4,21,E7_Q3_ansR.png,right,NA,NA,NA,right,869.899999976158,true,NA,NA,NA,NA,NA
Cai9acV7,NA,NA,Cai9acV7,2020-0188,2021-09-19,14:26:07,15:31:11,NA,incomplete,false,true,NA,4,22,E7_Q10_ansR.png,right,NA,NA,NA,right,1122.30000001192,true,NA,NA,NA,NA,NA
Cai9acV7,NA,NA,Cai9acV7,2020-0188,2021-09-19,14:26:07,15:31:11,NA,incomplete,false,true,NA,4,23,E7_Q8_ansL.png,left,NA,NA,NA,left,1248.59999996424,true,NA,NA,NA,NA,NA
Cai9acV7,NA,NA,Cai9acV7,2020-0188,2021-09-19,14:26:07,15:31:11,NA,incomplete,false,true,NA,4,24,E7_Q4_ansR.png,right,NA,NA,NA,right,1456.5,true,NA,NA,NA,NA,NA
Cai9acV7,NA,NA,Cai9acV7,2020-0188,2021-09-19,14:26:07,15:31:11,NA,incomplete,false,true,NA,4,25,E7_Q7_ansL.png,left,NA,NA,NA,left,1029.5,true,NA,NA,NA,NA,NA
Cai9acV7,NA,NA,Cai9acV7,2020-0188,2021-09-19,14:26:07,15:31:11,NA,incomplete,false,true,NA,4,26,E7_Q9_ansR.png,right,NA,NA,NA,right,1006.60000002384,true,NA,NA,NA,NA,NA
Cai9acV7,NA,NA,Cai9acV7,2020-0188,2021-09-19,14:26:07,15:31:11,NA,incomplete,false,true,NA,4,27,E7_Q6_ansR.png,right,NA,NA,NA,right,1005.70000004768,true,NA,NA,NA,NA,NA
Cai9acV7,NA,NA,Cai9acV7,2020-0188,2021-09-19,14:26:07,15:31:11,NA,incomplete,false,true,NA,4,28,E7_Q5_ansR.png,right,NA,NA,NA,right,1088,true,NA,NA,NA,NA,NA
Cai9acV7,NA,NA,Cai9acV7,2020-0188,2021-09-19,14:26:07,15:31:11,NA,incomplete,false,true,NA,4,29,E7_Q1_ansL.png,left,NA,NA,NA,left,1018.89999997616,true,NA,NA,NA,NA,NA
Cai9acV7,NA,NA,Cai9acV7,2020-0188,2021-09-19,14:26:07,15:31:11,NA,incomplete,false,NA,true,4,0,NA,left,E11_Q4_ansL.png,E11_Q9_ansL.png,within,NA,NaN,NA,left,3284.300000011921,1,1,1116.5999999642372
Cai9acV7,NA,NA,Cai9acV7,2020-0188,2021-09-19,14:26:07,15:31:11,NA,incomplete,false,NA,true,4,1,NA,left,E7_Q7_ansL.png,E7_Q5_ansR.png,within,NA,NaN,NA,left,1391.0999999642372,1,0,970.5999999642372
Cai9acV7,NA,NA,Cai9acV7,2020-0188,2021-09-19,14:26:07,15:31:11,NA,incomplete,false,NA,true,4,2,NA,left,E29_Q7_ansL.png,E7_Q2_ansL.png,between,NA,NaN,NA,left,1158.699999988079,1,2,2423.899999976158
Cai9acV7,NA,NA,Cai9acV7,2020-0188,2021-09-19,14:26:07,15:31:11,NA,incomplete,false,NA,true,4,3,NA,right,E29_Q4_ansR.png,E11_Q9_ansL.png,between,NA,NaN,NA,right,1509.5999999642372,1,1,1020.3000000119209
Cai9acV7,NA,NA,Cai9acV7,2020-0188,2021-09-19,14:26:07,15:31:11,NA,incomplete,false,NA,true,4,4,NA,left,E11_Q10_ansR.png,E11_Q4_ansL.png,within,NA,NaN,NA,left,1054.1000000238419,1,1,1994.699999988079
Cai9acV7,NA,NA,Cai9acV7,2020-0188,2021-09-19,14:26:07,15:31:11,NA,incomplete,false,NA,true,4,5,NA,left,E11_Q5_ansL.png,E11_Q1_ansR.png,within,NA,NaN,NA,left,2981.399999976158,1,1,936.8999999761581
Cai9acV7,NA,NA,Cai9acV7,2020-0188,2021-09-19,14:26:07,15:31:11,NA,incomplete,false,NA,true,4,6,NA,right,E29_Q3_ansR.png,E29_Q10_ansL.png,within,NA,NaN,NA,left,4700.299999952316,0,0,2892
Cai9acV7,NA,NA,Cai9acV7,2020-0188,2021-09-19,14:26:07,15:31:11,NA,incomplete,false,NA,true,4,7,NA,right,E7_Q8_ansL.png,E7_Q2_ansL.png,within,NA,NaN,NA,right,1337.0999999642372,1,1,1018
Cai9acV7,NA,NA,Cai9acV7,2020-0188,2021-09-19,14:26:07,15:31:11,NA,incomplete,false,NA,true,4,8,NA,left,E7_Q8_ansL.png,E7_Q9_ansR.png,within,NA,NaN,NA,left,1485.3999999761581,1,1,936.6999999880791
Cai9acV7,NA,NA,Cai9acV7,2020-0188,2021-09-19,14:26:07,15:31:11,NA,incomplete,false,NA,true,4,9,NA,left,E29_Q2_ansL.png,E7_Q3_ansR.png,between,NA,NaN,NA,left,1691.800000011921,1,1,1077.800000011921
Cai9acV7,NA,NA,Cai9acV7,2020-0188,2021-09-19,14:26:07,15:31:11,NA,incomplete,false,NA,true,4,10,NA,left,E11_Q6_ansL.png,E11_Q10_ansR.png,within,NA,NaN,NA,left,1004.6000000238419,1,0,1502.8999999761581
Cai9acV7,NA,NA,Cai9acV7,2020-0188,2021-09-19,14:26:07,15:31:11,NA,incomplete,false,NA,true,4,11,NA,left,E7_Q10_ansR.png,E7_Q7_ansL.png,within,NA,NaN,NA,left,2706.800000011921,1,0,888.8999999761581
Cai9acV7,NA,NA,Cai9acV7,2020-0188,2021-09-19,14:26:07,15:31:11,NA,incomplete,false,NA,true,4,12,NA,left,E29_Q6_ansR.png,E7_Q10_ansR.png,between,NA,NaN,NA,left,1600.0999999642372,1,2,1633.3999999761581
Cai9acV7,NA,NA,Cai9acV7,2020-0188,2021-09-19,14:26:07,15:31:11,NA,incomplete,false,NA,true,4,13,NA,right,E29_Q7_ansL.png,E29_Q5_ansR.png,within,NA,NaN,NA,right,1275.1000000238419,1,1,823.1000000238419
Cai9acV7,NA,NA,Cai9acV7,2020-0188,2021-09-19,14:26:07,15:31:11,NA,incomplete,false,NA,true,4,14,NA,left,E29_Q9_ansR.png,E29_Q5_ansR.png,within,NA,NaN,NA,left,1617.5999999642372,1,1,1076.199999988079
Cai9acV7,NA,NA,Cai9acV7,2020-0188,2021-09-19,14:26:07,15:31:11,NA,incomplete,false,NA,true,4,15,NA,left,E11_Q8_ansR.png,E29_Q9_ansR.png,between,NA,NaN,NA,left,1994.9000000357628,1,2,2451.800000011921
Cai9acV7,NA,NA,Cai9acV7,2020-0188,2021-09-19,14:26:07,15:31:11,NA,incomplete,false,NA,true,4,16,NA,left,E11_Q2_ansR.png,E11_Q3_ansL.png,within,NA,NaN,NA,right,2410.899999976158,0,1,2541.100000023842
Cai9acV7,NA,NA,Cai9acV7,2020-0188,2021-09-19,14:26:07,15:31:11,NA,incomplete,false,NA,true,4,17,NA,left,E29_Q8_ansL.png,E29_Q6_ansR.png,within,NA,NaN,NA,left,3319.399999976158,1,1,831.6999999880791
Cai9acV7,NA,NA,Cai9acV7,2020-0188,2021-09-19,14:26:07,15:31:11,NA,incomplete,false,NA,true,4,18,NA,left,E7_Q9_ansR.png,E7_Q1_ansL.png,within,NA,NaN,NA,left,1624.1000000238419,1,0,1363.300000011921
Cai9acV7,NA,NA,Cai9acV7,2020-0188,2021-09-19,14:26:07,15:31:11,NA,incomplete,false,NA,true,4,19,NA,right,E11_Q8_ansR.png,E11_Q1_ansR.png,within,NA,NaN,NA,right,1659.4000000357628,1,1,757.6999999880791
Cai9acV7,NA,NA,Cai9acV7,2020-0188,2021-09-19,14:26:07,15:31:11,NA,incomplete,false,NA,true,4,20,NA,left,E11_Q3_ansL.png,E29_Q10_ansL.png,between,NA,NaN,NA,left,1396.9000000357628,1,2,1697.7999999523163
Cai9acV7,NA,NA,Cai9acV7,2020-0188,2021-09-19,14:26:07,15:31:11,NA,incomplete,false,NA,true,4,21,NA,left,E29_Q3_ansR.png,E29_Q8_ansL.png,within,NA,NaN,NA,left,3511.899999976158,1,1,1379.8999999761581
Cai9acV7,NA,NA,Cai9acV7,2020-0188,2021-09-19,14:26:07,15:31:11,NA,incomplete,false,NA,true,4,22,NA,left,E29_Q4_ansR.png,E29_Q1_ansL.png,within,NA,NaN,NA,left,1642.2000000476837,1,1,1078.300000011921
Cai9acV7,NA,NA,Cai9acV7,2020-0188,2021-09-19,14:26:07,15:31:11,NA,incomplete,false,NA,true,4,23,NA,right,E7_Q6_ansR.png,E7_Q4_ansR.png,within,NA,NaN,NA,right,1804.5999999642372,1,1,848.1999999880791
Cai9acV7,NA,NA,Cai9acV7,2020-0188,2021-09-19,14:26:07,15:31:11,NA,incomplete,false,NA,true,4,24,NA,right,E29_Q2_ansL.png,E29_Q1_ansL.png,within,NA,NaN,NA,left,1414.3999999761581,0,1,1545.5
Cai9acV7,NA,NA,Cai9acV7,2020-0188,2021-09-19,14:26:07,15:31:11,NA,incomplete,false,NA,true,4,25,NA,left,E7_Q3_ansR.png,E7_Q4_ansR.png,within,NA,NaN,NA,left,1259.800000011921,1,1,1273
Cai9acV7,NA,NA,Cai9acV7,2020-0188,2021-09-19,14:26:07,15:31:11,NA,incomplete,false,NA,true,4,26,NA,right,E11_Q2_ansR.png,E11_Q7_ansR.png,within,NA,NaN,NA,right,2410.5,1,1,1126.5
Cai9acV7,NA,NA,Cai9acV7,2020-0188,2021-09-19,14:26:07,15:31:11,NA,incomplete,false,true,NA,5,0,E2_Q6_ansL.png,left,NA,NA,NA,left,1431.29999995232,true,NA,NA,NA,NA,NA
Cai9acV7,NA,NA,Cai9acV7,2020-0188,2021-09-19,14:26:07,15:31:11,NA,incomplete,false,true,NA,5,1,E2_Q10_ansL.png,left,NA,NA,NA,left,1013,true,NA,NA,NA,NA,NA
Cai9acV7,NA,NA,Cai9acV7,2020-0188,2021-09-19,14:26:07,15:31:11,NA,incomplete,false,true,NA,5,2,E2_Q4_ansL.png,left,NA,NA,NA,left,1079.5,true,NA,NA,NA,NA,NA
Cai9acV7,NA,NA,Cai9acV7,2020-0188,2021-09-19,14:26:07,15:31:11,NA,incomplete,false,true,NA,5,3,E2_Q7_ansR.png,right,NA,NA,NA,right,1249.80000001192,true,NA,NA,NA,NA,NA
Cai9acV7,NA,NA,Cai9acV7,2020-0188,2021-09-19,14:26:07,15:31:11,NA,incomplete,false,true,NA,5,4,E2_Q1_ansL.png,left,NA,NA,NA,left,1406.69999998808,true,NA,NA,NA,NA,NA
Cai9acV7,NA,NA,Cai9acV7,2020-0188,2021-09-19,14:26:07,15:31:11,NA,incomplete,false,true,NA,5,5,E2_Q9_ansL.png,left,NA,NA,NA,left,1660.40000003576,true,NA,NA,NA,NA,NA
Cai9acV7,NA,NA,Cai9acV7,2020-0188,2021-09-19,14:26:07,15:31:11,NA,incomplete,false,true,NA,5,6,E2_Q5_ansL.png,left,NA,NA,NA,left,1722.10000002384,true,NA,NA,NA,NA,NA
Cai9acV7,NA,NA,Cai9acV7,2020-0188,2021-09-19,14:26:07,15:31:11,NA,incomplete,false,true,NA,5,7,E2_Q3_ansR.png,right,NA,NA,NA,right,1828.69999998808,true,NA,NA,NA,NA,NA
Cai9acV7,NA,NA,Cai9acV7,2020-0188,2021-09-19,14:26:07,15:31:11,NA,incomplete,false,true,NA,5,8,E2_Q2_ansR.png,right,NA,NA,NA,right,1308,true,NA,NA,NA,NA,NA
Cai9acV7,NA,NA,Cai9acV7,2020-0188,2021-09-19,14:26:07,15:31:11,NA,incomplete,false,true,NA,5,9,E2_Q8_ansR.png,right,NA,NA,NA,right,1401.59999996424,true,NA,NA,NA,NA,NA
Cai9acV7,NA,NA,Cai9acV7,2020-0188,2021-09-19,14:26:07,15:31:11,NA,incomplete,false,true,NA,5,10,E24_Q3_ansL.png,left,NA,NA,NA,none,0,false,NA,NA,NA,NA,NA
Cai9acV7,NA,NA,Cai9acV7,2020-0188,2021-09-19,14:26:07,15:31:11,NA,incomplete,false,true,NA,5,11,E24_Q2_ansR.png,right,NA,NA,NA,right,2629.39999997616,true,NA,NA,NA,NA,NA
Cai9acV7,NA,NA,Cai9acV7,2020-0188,2021-09-19,14:26:07,15:31:11,NA,incomplete,false,true,NA,5,12,E24_Q7_ansR.png,right,NA,NA,NA,right,1186,true,NA,NA,NA,NA,NA
Cai9acV7,NA,NA,Cai9acV7,2020-0188,2021-09-19,14:26:07,15:31:11,NA,incomplete,false,true,NA,5,13,E24_Q9_ansL.png,left,NA,NA,NA,left,2638.19999998808,true,NA,NA,NA,NA,NA
Cai9acV7,NA,NA,Cai9acV7,2020-0188,2021-09-19,14:26:07,15:31:11,NA,incomplete,false,true,NA,5,14,E24_Q5_ansL.png,left,NA,NA,NA,left,2035.5,true,NA,NA,NA,NA,NA
Cai9acV7,NA,NA,Cai9acV7,2020-0188,2021-09-19,14:26:07,15:31:11,NA,incomplete,false,true,NA,5,15,E24_Q8_ansR.png,right,NA,NA,NA,right,1567.5,true,NA,NA,NA,NA,NA
Cai9acV7,NA,NA,Cai9acV7,2020-0188,2021-09-19,14:26:07,15:31:11,NA,incomplete,false,true,NA,5,16,E24_Q6_ansL.png,left,NA,NA,NA,left,1018.19999998808,true,NA,NA,NA,NA,NA
Cai9acV7,NA,NA,Cai9acV7,2020-0188,2021-09-19,14:26:07,15:31:11,NA,incomplete,false,true,NA,5,17,E24_Q1_ansR.png,right,NA,NA,NA,right,1449.40000003576,true,NA,NA,NA,NA,NA
Cai9acV7,NA,NA,Cai9acV7,2020-0188,2021-09-19,14:26:07,15:31:11,NA,incomplete,false,true,NA,5,18,E24_Q4_ansL.png,left,NA,NA,NA,left,1481.5,true,NA,NA,NA,NA,NA
Cai9acV7,NA,NA,Cai9acV7,2020-0188,2021-09-19,14:26:07,15:31:11,NA,incomplete,false,true,NA,5,19,E24_Q10_ansR.png,right,NA,NA,NA,right,1055.10000002384,true,NA,NA,NA,NA,NA
Cai9acV7,NA,NA,Cai9acV7,2020-0188,2021-09-19,14:26:07,15:31:11,NA,incomplete,false,true,NA,5,20,E4_Q2_ansL.png,left,NA,NA,NA,left,2462.10000002384,true,NA,NA,NA,NA,NA
Cai9acV7,NA,NA,Cai9acV7,2020-0188,2021-09-19,14:26:07,15:31:11,NA,incomplete,false,true,NA,5,21,E4_Q8_ansR.png,right,NA,NA,NA,right,1203.30000001192,true,NA,NA,NA,NA,NA
Cai9acV7,NA,NA,Cai9acV7,2020-0188,2021-09-19,14:26:07,15:31:11,NA,incomplete,false,true,NA,5,22,E4_Q4_ansL.png,left,NA,NA,NA,left,1256.30000001192,true,NA,NA,NA,NA,NA
Cai9acV7,NA,NA,Cai9acV7,2020-0188,2021-09-19,14:26:07,15:31:11,NA,incomplete,false,true,NA,5,23,E4_Q3_ansL.png,left,NA,NA,NA,left,1238,true,NA,NA,NA,NA,NA
Cai9acV7,NA,NA,Cai9acV7,2020-0188,2021-09-19,14:26:07,15:31:11,NA,incomplete,false,true,NA,5,24,E4_Q1_ansL.png,left,NA,NA,NA,left,1116.60000002384,true,NA,NA,NA,NA,NA
Cai9acV7,NA,NA,Cai9acV7,2020-0188,2021-09-19,14:26:07,15:31:11,NA,incomplete,false,true,NA,5,25,E4_Q6_ansR.png,right,NA,NA,NA,right,1403.60000002384,true,NA,NA,NA,NA,NA
Cai9acV7,NA,NA,Cai9acV7,2020-0188,2021-09-19,14:26:07,15:31:11,NA,incomplete,false,true,NA,5,26,E4_Q7_ansR.png,right,NA,NA,NA,right,1208.69999998808,true,NA,NA,NA,NA,NA
Cai9acV7,NA,NA,Cai9acV7,2020-0188,2021-09-19,14:26:07,15:31:11,NA,incomplete,false,true,NA,5,27,E4_Q10_ansR.png,right,NA,NA,NA,right,1064.30000001192,true,NA,NA,NA,NA,NA
Cai9acV7,NA,NA,Cai9acV7,2020-0188,2021-09-19,14:26:07,15:31:11,NA,incomplete,false,true,NA,5,28,E4_Q5_ansR.png,right,NA,NA,NA,right,1215.19999998808,true,NA,NA,NA,NA,NA
Cai9acV7,NA,NA,Cai9acV7,2020-0188,2021-09-19,14:26:07,15:31:11,NA,incomplete,false,true,NA,5,29,E4_Q9_ansL.png,left,NA,NA,NA,left,1550.69999998808,true,NA,NA,NA,NA,NA
Cai9acV7,NA,NA,Cai9acV7,2020-0188,2021-09-19,14:26:07,15:31:11,NA,incomplete,false,NA,true,5,0,NA,right,E2_Q8_ansR.png,E2_Q5_ansL.png,within,NA,NaN,NA,right,2799.300000011921,1,0,1983.3999999761581
Cai9acV7,NA,NA,Cai9acV7,2020-0188,2021-09-19,14:26:07,15:31:11,NA,incomplete,false,NA,true,5,1,NA,left,E24_Q3_ansL.png,E24_Q9_ansL.png,within,NA,NaN,NA,left,1975.5,1,0,1157
Cai9acV7,NA,NA,Cai9acV7,2020-0188,2021-09-19,14:26:07,15:31:11,NA,incomplete,false,NA,true,5,2,NA,right,E24_Q4_ansL.png,E24_Q8_ansR.png,within,NA,NaN,NA,right,1803.4000000357628,1,1,920.6000000238419
Cai9acV7,NA,NA,Cai9acV7,2020-0188,2021-09-19,14:26:07,15:31:11,NA,incomplete,false,NA,true,5,3,NA,left,E4_Q3_ansL.png,E4_Q7_ansR.png,within,NA,NaN,NA,left,3259.199999988079,1,1,749.6000000238419
Cai9acV7,NA,NA,Cai9acV7,2020-0188,2021-09-19,14:26:07,15:31:11,NA,incomplete,false,NA,true,5,4,NA,left,E4_Q8_ansR.png,E4_Q1_ansL.png,within,NA,NaN,NA,left,2132.100000023842,1,1,1428
Cai9acV7,NA,NA,Cai9acV7,2020-0188,2021-09-19,14:26:07,15:31:11,NA,incomplete,false,NA,true,5,5,NA,right,E24_Q3_ansL.png,E2_Q3_ansR.png,between,NA,NaN,NA,right,1249.6000000238419,1,2,1577.199999988079
Cai9acV7,NA,NA,Cai9acV7,2020-0188,2021-09-19,14:26:07,15:31:11,NA,incomplete,false,NA,true,5,6,NA,right,E2_Q7_ansR.png,E2_Q6_ansL.png,within,NA,NaN,NA,right,1167.800000011921,1,1,776.0999999642372
Cai9acV7,NA,NA,Cai9acV7,2020-0188,2021-09-19,14:26:07,15:31:11,NA,incomplete,false,NA,true,5,7,NA,left,E4_Q7_ansR.png,E4_Q9_ansL.png,within,NA,NaN,NA,right,2492.800000011921,0,1,791.1999999880791
Cai9acV7,NA,NA,Cai9acV7,2020-0188,2021-09-19,14:26:07,15:31:11,NA,incomplete,false,NA,true,5,8,NA,left,E24_Q6_ansL.png,E24_Q10_ansR.png,within,NA,NaN,NA,left,2355.100000023842,1,0,2336.7999999523163
Cai9acV7,NA,NA,Cai9acV7,2020-0188,2021-09-19,14:26:07,15:31:11,NA,incomplete,false,NA,true,5,9,NA,left,E24_Q1_ansR.png,E4_Q2_ansL.png,between,NA,NaN,NA,left,1666.7000000476837,1,0,2025.5
Cai9acV7,NA,NA,Cai9acV7,2020-0188,2021-09-19,14:26:07,15:31:11,NA,incomplete,false,NA,true,5,10,NA,left,E24_Q4_ansL.png,E4_Q8_ansR.png,between,NA,NaN,NA,left,1569.199999988079,1,1,3072.399999976158
Cai9acV7,NA,NA,Cai9acV7,2020-0188,2021-09-19,14:26:07,15:31:11,NA,incomplete,false,NA,true,5,11,NA,right,E24_Q6_ansL.png,E24_Q9_ansL.png,within,NA,NaN,NA,right,4299.5,1,1,1248.0999999642372
Cai9acV7,NA,NA,Cai9acV7,2020-0188,2021-09-19,14:26:07,15:31:11,NA,incomplete,false,NA,true,5,12,NA,left,E2_Q2_ansR.png,E24_Q2_ansR.png,between,NA,NaN,NA,left,2262.5,1,2,1128.4000000357628
Cai9acV7,NA,NA,Cai9acV7,2020-0188,2021-09-19,14:26:07,15:31:11,NA,incomplete,false,NA,true,5,13,NA,left,E2_Q10_ansL.png,E2_Q1_ansL.png,within,NA,NaN,NA,left,3609,1,1,807.6000000238419
Cai9acV7,NA,NA,Cai9acV7,2020-0188,2021-09-19,14:26:07,15:31:11,NA,incomplete,false,NA,true,5,14,NA,right,E4_Q3_ansL.png,E4_Q2_ansL.png,within,NA,NaN,NA,right,1707.1000000238419,1,1,1068.1000000238419
Cai9acV7,NA,NA,Cai9acV7,2020-0188,2021-09-19,14:26:07,15:31:11,NA,incomplete,false,NA,true,5,15,NA,left,E2_Q4_ansL.png,E2_Q9_ansL.png,within,NA,NaN,NA,left,1749,1,1,1077.5
Cai9acV7,NA,NA,Cai9acV7,2020-0188,2021-09-19,14:26:07,15:31:11,NA,incomplete,false,NA,true,5,16,NA,left,E24_Q2_ansR.png,E24_Q5_ansL.png,within,NA,NaN,NA,left,3864.5,1,1,1584.4000000357628
Cai9acV7,NA,NA,Cai9acV7,2020-0188,2021-09-19,14:26:07,15:31:11,NA,incomplete,false,NA,true,5,17,NA,left,E2_Q7_ansR.png,E2_Q5_ansL.png,within,NA,NaN,NA,left,1397.199999988079,1,0,1143
Cai9acV7,NA,NA,Cai9acV7,2020-0188,2021-09-19,14:26:07,15:31:11,NA,incomplete,false,NA,true,5,18,NA,left,E4_Q1_ansL.png,E4_Q10_ansR.png,within,NA,NaN,NA,left,3350.300000011921,1,1,725.6000000238419
Cai9acV7,NA,NA,Cai9acV7,2020-0188,2021-09-19,14:26:07,15:31:11,NA,incomplete,false,NA,true,5,19,NA,right,E24_Q1_ansR.png,E24_Q5_ansL.png,within,NA,NaN,NA,right,1260.0999999642372,1,1,1053.800000011921
Cai9acV7,NA,NA,Cai9acV7,2020-0188,2021-09-19,14:26:07,15:31:11,NA,incomplete,false,NA,true,5,20,NA,left,E2_Q8_ansR.png,E24_Q7_ansR.png,between,NA,NaN,NA,left,3930.5,1,2,962.8999999761581
Cai9acV7,NA,NA,Cai9acV7,2020-0188,2021-09-19,14:26:07,15:31:11,NA,incomplete,false,NA,true,5,21,NA,left,E24_Q7_ansR.png,E24_Q8_ansR.png,within,NA,NaN,NA,left,1815,1,1,1127.5999999642372
Cai9acV7,NA,NA,Cai9acV7,2020-0188,2021-09-19,14:26:07,15:31:11,NA,incomplete,false,NA,true,5,22,NA,left,E4_Q4_ansL.png,E4_Q6_ansR.png,within,NA,NaN,NA,left,2108,1,0,857.1999999880791
Cai9acV7,NA,NA,Cai9acV7,2020-0188,2021-09-19,14:26:07,15:31:11,NA,incomplete,false,NA,true,5,23,NA,left,E4_Q6_ansR.png,E4_Q5_ansR.png,within,NA,NaN,NA,left,3227.899999976158,1,1,1192.800000011921
Cai9acV7,NA,NA,Cai9acV7,2020-0188,2021-09-19,14:26:07,15:31:11,NA,incomplete,false,NA,true,5,24,NA,left,E2_Q9_ansL.png,E2_Q2_ansR.png,within,NA,NaN,NA,left,2188.699999988079,1,1,1011.8000000119209
Cai9acV7,NA,NA,Cai9acV7,2020-0188,2021-09-19,14:26:07,15:31:11,NA,incomplete,false,NA,true,5,25,NA,right,E4_Q4_ansL.png,E24_Q10_ansR.png,between,NA,NaN,NA,right,2591.300000011921,1,2,1888.2999999523163
Cai9acV7,NA,NA,Cai9acV7,2020-0188,2021-09-19,14:26:07,15:31:11,NA,incomplete,false,NA,true,5,26,NA,left,E2_Q1_ansL.png,E2_Q3_ansR.png,within,NA,NaN,NA,left,1364.199999988079,1,1,1165.9000000357628
Cai9acV7,NA,NA,Cai9acV7,2020-0188,2021-09-19,14:26:07,15:31:11,NA,incomplete,false,true,NA,6,0,E16_Q10_ansR.png,right,NA,NA,NA,right,1177.30000001192,true,NA,NA,NA,NA,NA
Cai9acV7,NA,NA,Cai9acV7,2020-0188,2021-09-19,14:26:07,15:31:11,NA,incomplete,false,true,NA,6,1,E16_Q4_ansL.png,left,NA,NA,NA,left,1179.89999997616,true,NA,NA,NA,NA,NA
Cai9acV7,NA,NA,Cai9acV7,2020-0188,2021-09-19,14:26:07,15:31:11,NA,incomplete,false,true,NA,6,2,E16_Q7_ansR.png,right,NA,NA,NA,right,907.200000047684,true,NA,NA,NA,NA,NA
Cai9acV7,NA,NA,Cai9acV7,2020-0188,2021-09-19,14:26:07,15:31:11,NA,incomplete,false,true,NA,6,3,E16_Q1_ansR.png,right,NA,NA,NA,right,1094.39999997616,true,NA,NA,NA,NA,NA
Cai9acV7,NA,NA,Cai9acV7,2020-0188,2021-09-19,14:26:07,15:31:11,NA,incomplete,false,true,NA,6,4,E16_Q5_ansL.png,left,NA,NA,NA,left,977.900000035763,true,NA,NA,NA,NA,NA
Cai9acV7,NA,NA,Cai9acV7,2020-0188,2021-09-19,14:26:07,15:31:11,NA,incomplete,false,true,NA,6,5,E16_Q8_ansR.png,right,NA,NA,NA,right,1234.5,true,NA,NA,NA,NA,NA
Cai9acV7,NA,NA,Cai9acV7,2020-0188,2021-09-19,14:26:07,15:31:11,NA,incomplete,false,true,NA,6,6,E16_Q6_ansL.png,left,NA,NA,NA,left,1494.30000001192,true,NA,NA,NA,NA,NA
Cai9acV7,NA,NA,Cai9acV7,2020-0188,2021-09-19,14:26:07,15:31:11,NA,incomplete,false,true,NA,6,7,E16_Q9_ansL.png,left,NA,NA,NA,left,1108.5,true,NA,NA,NA,NA,NA
Cai9acV7,NA,NA,Cai9acV7,2020-0188,2021-09-19,14:26:07,15:31:11,NA,incomplete,false,true,NA,6,8,E16_Q3_ansL.png,left,NA,NA,NA,left,933.699999988079,true,NA,NA,NA,NA,NA
Cai9acV7,NA,NA,Cai9acV7,2020-0188,2021-09-19,14:26:07,15:31:11,NA,incomplete,false,true,NA,6,9,E16_Q2_ansR.png,right,NA,NA,NA,right,1741.89999997616,true,NA,NA,NA,NA,NA
Cai9acV7,NA,NA,Cai9acV7,2020-0188,2021-09-19,14:26:07,15:31:11,NA,incomplete,false,true,NA,6,10,E30_Q3_ansL.png,left,NA,NA,NA,none,0,false,NA,NA,NA,NA,NA
Cai9acV7,NA,NA,Cai9acV7,2020-0188,2021-09-19,14:26:07,15:31:11,NA,incomplete,false,true,NA,6,11,E30_Q7_ansL.png,left,NA,NA,NA,right,3244.80000001192,false,NA,NA,NA,NA,NA
Cai9acV7,NA,NA,Cai9acV7,2020-0188,2021-09-19,14:26:07,15:31:11,NA,incomplete,false,true,NA,6,12,E30_Q8_ansL.png,left,NA,NA,NA,right,2079.10000002384,false,NA,NA,NA,NA,NA
Cai9acV7,NA,NA,Cai9acV7,2020-0188,2021-09-19,14:26:07,15:31:11,NA,incomplete,false,true,NA,6,13,E30_Q5_ansR.png,right,NA,NA,NA,right,1507.60000002384,true,NA,NA,NA,NA,NA
Cai9acV7,NA,NA,Cai9acV7,2020-0188,2021-09-19,14:26:07,15:31:11,NA,incomplete,false,true,NA,6,14,E30_Q10_ansR.png,right,NA,NA,NA,right,1830,true,NA,NA,NA,NA,NA
Cai9acV7,NA,NA,Cai9acV7,2020-0188,2021-09-19,14:26:07,15:31:11,NA,incomplete,false,true,NA,6,15,E30_Q2_ansL.png,left,NA,NA,NA,left,1831.5,true,NA,NA,NA,NA,NA
Cai9acV7,NA,NA,Cai9acV7,2020-0188,2021-09-19,14:26:07,15:31:11,NA,incomplete,false,true,NA,6,16,E30_Q9_ansL.png,left,NA,NA,NA,left,1784.60000002384,true,NA,NA,NA,NA,NA
Cai9acV7,NA,NA,Cai9acV7,2020-0188,2021-09-19,14:26:07,15:31:11,NA,incomplete,false,true,NA,6,17,E30_Q4_ansL.png,left,NA,NA,NA,left,1485.60000002384,true,NA,NA,NA,NA,NA
Cai9acV7,NA,NA,Cai9acV7,2020-0188,2021-09-19,14:26:07,15:31:11,NA,incomplete,false,true,NA,6,18,E30_Q1_ansL.png,left,NA,NA,NA,left,1255,true,NA,NA,NA,NA,NA
Cai9acV7,NA,NA,Cai9acV7,2020-0188,2021-09-19,14:26:07,15:31:11,NA,incomplete,false,true,NA,6,19,E30_Q6_ansR.png,right,NA,NA,NA,right,1922.19999998808,true,NA,NA,NA,NA,NA
Cai9acV7,NA,NA,Cai9acV7,2020-0188,2021-09-19,14:26:07,15:31:11,NA,incomplete,false,true,NA,6,20,E33_Q6_ansR.png,right,NA,NA,NA,right,2884.39999997616,true,NA,NA,NA,NA,NA
Cai9acV7,NA,NA,Cai9acV7,2020-0188,2021-09-19,14:26:07,15:31:11,NA,incomplete,false,true,NA,6,21,E33_Q3_ansR.png,right,NA,NA,NA,right,1720.09999996424,true,NA,NA,NA,NA,NA
Cai9acV7,NA,NA,Cai9acV7,2020-0188,2021-09-19,14:26:07,15:31:11,NA,incomplete,false,true,NA,6,22,E33_Q8_ansL.png,left,NA,NA,NA,left,1742.5,true,NA,NA,NA,NA,NA
Cai9acV7,NA,NA,Cai9acV7,2020-0188,2021-09-19,14:26:07,15:31:11,NA,incomplete,false,true,NA,6,23,E33_Q10_ansL.png,left,NA,NA,NA,left,1621,true,NA,NA,NA,NA,NA
Cai9acV7,NA,NA,Cai9acV7,2020-0188,2021-09-19,14:26:07,15:31:11,NA,incomplete,false,true,NA,6,24,E33_Q5_ansR.png,right,NA,NA,NA,right,2620.5,true,NA,NA,NA,NA,NA
Cai9acV7,NA,NA,Cai9acV7,2020-0188,2021-09-19,14:26:07,15:31:11,NA,incomplete,false,true,NA,6,25,E33_Q2_ansL.png,left,NA,NA,NA,left,1732.80000001192,true,NA,NA,NA,NA,NA
Cai9acV7,NA,NA,Cai9acV7,2020-0188,2021-09-19,14:26:07,15:31:11,NA,incomplete,false,true,NA,6,26,E33_Q1_ansL.png,left,NA,NA,NA,left,1372.30000001192,true,NA,NA,NA,NA,NA
Cai9acV7,NA,NA,Cai9acV7,2020-0188,2021-09-19,14:26:07,15:31:11,NA,incomplete,false,true,NA,6,27,E33_Q4_ansR.png,right,NA,NA,NA,right,1344.89999997616,true,NA,NA,NA,NA,NA
Cai9acV7,NA,NA,Cai9acV7,2020-0188,2021-09-19,14:26:07,15:31:11,NA,incomplete,false,true,NA,6,28,E33_Q7_ansL.png,left,NA,NA,NA,left,1927.5,true,NA,NA,NA,NA,NA
Cai9acV7,NA,NA,Cai9acV7,2020-0188,2021-09-19,14:26:07,15:31:11,NA,incomplete,false,true,NA,6,29,E33_Q9_ansR.png,right,NA,NA,NA,left,2213.20000004768,false,NA,NA,NA,NA,NA
Cai9acV7,NA,NA,Cai9acV7,2020-0188,2021-09-19,14:26:07,15:31:11,NA,incomplete,false,NA,true,6,0,NA,left,E16_Q1_ansR.png,E16_Q6_ansL.png,within,NA,NaN,NA,right,2515.5,0,0,1761.6000000238419
Cai9acV7,NA,NA,Cai9acV7,2020-0188,2021-09-19,14:26:07,15:31:11,NA,incomplete,false,NA,true,6,1,NA,left,E16_Q4_ansL.png,E16_Q5_ansL.png,within,NA,NaN,NA,left,3389.199999988079,1,0,1478.8999999761581
Cai9acV7,NA,NA,Cai9acV7,2020-0188,2021-09-19,14:26:07,15:31:11,NA,incomplete,false,NA,true,6,2,NA,right,E30_Q4_ansL.png,E30_Q10_ansR.png,within,NA,NaN,NA,right,2354.199999988079,1,0,1617.2999999523163
Cai9acV7,NA,NA,Cai9acV7,2020-0188,2021-09-19,14:26:07,15:31:11,NA,incomplete,false,NA,true,6,3,NA,left,E33_Q5_ansR.png,E33_Q4_ansR.png,within,NA,NaN,NA,right,5339.699999988079,0,0,1101.5
Cai9acV7,NA,NA,Cai9acV7,2020-0188,2021-09-19,14:26:07,15:31:11,NA,incomplete,false,NA,true,6,4,NA,right,E16_Q3_ansL.png,E16_Q8_ansR.png,within,NA,NaN,NA,right,1895.5,1,1,1241
Cai9acV7,NA,NA,Cai9acV7,2020-0188,2021-09-19,14:26:07,15:31:11,NA,incomplete,false,NA,true,6,5,NA,right,E30_Q9_ansL.png,E30_Q5_ansR.png,within,NA,NaN,NA,right,2263.800000011921,1,1,906.4000000357628
Cai9acV7,NA,NA,Cai9acV7,2020-0188,2021-09-19,14:26:07,15:31:11,NA,incomplete,false,NA,true,6,6,NA,right,E33_Q7_ansL.png,E33_Q2_ansL.png,within,NA,NaN,NA,right,1430.199999988079,1,0,2419.399999976158
Cai9acV7,NA,NA,Cai9acV7,2020-0188,2021-09-19,14:26:07,15:31:11,NA,incomplete,false,NA,true,6,7,NA,left,E30_Q3_ansL.png,E30_Q5_ansR.png,within,NA,NaN,NA,left,2272.5,1,1,1282.4000000357628
Cai9acV7,NA,NA,Cai9acV7,2020-0188,2021-09-19,14:26:07,15:31:11,NA,incomplete,false,NA,true,6,8,NA,left,E30_Q7_ansL.png,E30_Q10_ansR.png,within,NA,NaN,NA,left,3138.399999976158,1,0,1617.300000011921
Cai9acV7,NA,NA,Cai9acV7,2020-0188,2021-09-19,14:26:07,15:31:11,NA,incomplete,false,NA,true,6,9,NA,left,E16_Q6_ansL.png,E16_Q2_ansR.png,within,NA,NaN,NA,left,1371.699999988079,1,1,807.1000000238419
Cai9acV7,NA,NA,Cai9acV7,2020-0188,2021-09-19,14:26:07,15:31:11,NA,incomplete,false,NA,true,6,10,NA,right,E33_Q1_ansL.png,E33_Q10_ansL.png,within,NA,NaN,NA,left,3161.800000011921,0,1,1256.5999999642372
Cai9acV7,NA,NA,Cai9acV7,2020-0188,2021-09-19,14:26:07,15:31:11,NA,incomplete,false,NA,true,6,11,NA,left,E30_Q4_ansL.png,E33_Q6_ansR.png,between,NA,NaN,NA,right,2360.7999999523163,0,1,1756.1000000238419
Cai9acV7,NA,NA,Cai9acV7,2020-0188,2021-09-19,14:26:07,15:31:11,NA,incomplete,false,NA,true,6,12,NA,right,E33_Q5_ansR.png,E33_Q3_ansR.png,within,NA,NaN,NA,right,4370.800000011921,1,1,911.3999999761581
Cai9acV7,NA,NA,Cai9acV7,2020-0188,2021-09-19,14:26:07,15:31:11,NA,incomplete,false,NA,true,6,13,NA,right,E33_Q2_ansL.png,E33_Q8_ansL.png,within,NA,NaN,NA,right,2769.899999976158,1,1,1437.2000000476837
Cai9acV7,NA,NA,Cai9acV7,2020-0188,2021-09-19,14:26:07,15:31:11,NA,incomplete,false,NA,true,6,14,NA,left,E30_Q9_ansL.png,E30_Q6_ansR.png,within,NA,NaN,NA,right,3022.800000011921,0,1,1158.5
Cai9acV7,NA,NA,Cai9acV7,2020-0188,2021-09-19,14:26:07,15:31:11,NA,incomplete,false,NA,true,6,15,NA,left,E16_Q9_ansL.png,E30_Q3_ansL.png,between,NA,NaN,NA,left,2303.900000035763,1,3,1347.1000000238419
Cai9acV7,NA,NA,Cai9acV7,2020-0188,2021-09-19,14:26:07,15:31:11,NA,incomplete,false,NA,true,6,16,NA,left,E30_Q6_ansR.png,E33_Q8_ansL.png,between,NA,NaN,NA,left,4016.399999976158,1,2,1257.8999999761581
Cai9acV7,NA,NA,Cai9acV7,2020-0188,2021-09-19,14:26:07,15:31:11,NA,incomplete,false,NA,true,6,17,NA,right,E16_Q9_ansL.png,E16_Q5_ansL.png,within,NA,NaN,NA,left,1380.3999999761581,0,1,1847.699999988079
Cai9acV7,NA,NA,Cai9acV7,2020-0188,2021-09-19,14:26:07,15:31:11,NA,incomplete,false,NA,true,6,18,NA,left,E33_Q1_ansL.png,E33_Q9_ansR.png,within,NA,NaN,NA,left,2183.699999988079,1,1,938.3000000119209
Cai9acV7,NA,NA,Cai9acV7,2020-0188,2021-09-19,14:26:07,15:31:11,NA,incomplete,false,NA,true,6,19,NA,left,E16_Q10_ansR.png,E16_Q1_ansR.png,within,NA,NaN,NA,left,2762.300000011921,1,1,1330.800000011921
Cai9acV7,NA,NA,Cai9acV7,2020-0188,2021-09-19,14:26:07,15:31:11,NA,incomplete,false,NA,true,6,20,NA,left,E16_Q2_ansR.png,E30_Q8_ansL.png,between,NA,NaN,NA,left,1438.4000000357628,1,2,2205.5
Cai9acV7,NA,NA,Cai9acV7,2020-0188,2021-09-19,14:26:07,15:31:11,NA,incomplete,false,NA,true,6,21,NA,left,E30_Q8_ansL.png,E30_Q2_ansL.png,within,NA,NaN,NA,left,3808.5,1,0,963.3000000119209
Cai9acV7,NA,NA,Cai9acV7,2020-0188,2021-09-19,14:26:07,15:31:11,NA,incomplete,false,NA,true,6,22,NA,right,E33_Q3_ansR.png,E30_Q1_ansL.png,between,NA,NaN,NA,right,1446.6000000238419,1,2,1543.3999999761581
Cai9acV7,NA,NA,Cai9acV7,2020-0188,2021-09-19,14:26:07,15:31:11,NA,incomplete,false,NA,true,6,23,NA,left,E30_Q2_ansL.png,E30_Q1_ansL.png,within,NA,NaN,NA,left,2664.399999976158,1,1,831.3000000119209
Cai9acV7,NA,NA,Cai9acV7,2020-0188,2021-09-19,14:26:07,15:31:11,NA,incomplete,false,NA,true,6,24,NA,left,E16_Q3_ansL.png,E30_Q7_ansL.png,between,NA,NaN,NA,left,1266.300000011921,1,1,1273.2000000476837
Cai9acV7,NA,NA,Cai9acV7,2020-0188,2021-09-19,14:26:07,15:31:11,NA,incomplete,false,NA,true,6,25,NA,right,E33_Q10_ansL.png,E33_Q6_ansR.png,within,NA,NaN,NA,right,1879.6000000238419,1,1,800.8000000119209
Cai9acV7,NA,NA,Cai9acV7,2020-0188,2021-09-19,14:26:07,15:31:11,NA,incomplete,false,NA,true,6,26,NA,left,E16_Q7_ansR.png,E16_Q8_ansR.png,within,NA,NaN,NA,right,3431.600000023842,0,1,1372.5
Cai9acV7,NA,NA,Cai9acV7,2020-0188,2021-09-19,14:26:07,15:31:11,NA,incomplete,false,true,NA,7,0,E25_Q7_ansR.png,right,NA,NA,NA,right,3177.39999997616,true,NA,NA,NA,NA,NA
Cai9acV7,NA,NA,Cai9acV7,2020-0188,2021-09-19,14:26:07,15:31:11,NA,incomplete,false,true,NA,7,1,E25_Q3_ansL.png,left,NA,NA,NA,left,2268.69999998808,true,NA,NA,NA,NA,NA
Cai9acV7,NA,NA,Cai9acV7,2020-0188,2021-09-19,14:26:07,15:31:11,NA,incomplete,false,true,NA,7,2,E25_Q4_ansL.png,left,NA,NA,NA,left,2618.5,true,NA,NA,NA,NA,NA
Cai9acV7,NA,NA,Cai9acV7,2020-0188,2021-09-19,14:26:07,15:31:11,NA,incomplete,false,true,NA,7,3,E25_Q8_ansR.png,right,NA,NA,NA,right,1277.40000003576,true,NA,NA,NA,NA,NA
Cai9acV7,NA,NA,Cai9acV7,2020-0188,2021-09-19,14:26:07,15:31:11,NA,incomplete,false,true,NA,7,4,E25_Q5_ansL.png,left,NA,NA,NA,left,2380.5,true,NA,NA,NA,NA,NA
Cai9acV7,NA,NA,Cai9acV7,2020-0188,2021-09-19,14:26:07,15:31:11,NA,incomplete,false,true,NA,7,5,E25_Q1_ansR.png,right,NA,NA,NA,right,1768.5,true,NA,NA,NA,NA,NA
Cai9acV7,NA,NA,Cai9acV7,2020-0188,2021-09-19,14:26:07,15:31:11,NA,incomplete,false,true,NA,7,6,E25_Q2_ansR.png,right,NA,NA,NA,right,1291.10000002384,true,NA,NA,NA,NA,NA
Cai9acV7,NA,NA,Cai9acV7,2020-0188,2021-09-19,14:26:07,15:31:11,NA,incomplete,false,true,NA,7,7,E25_Q9_ansL.png,left,NA,NA,NA,left,2168.39999997616,true,NA,NA,NA,NA,NA
Cai9acV7,NA,NA,Cai9acV7,2020-0188,2021-09-19,14:26:07,15:31:11,NA,incomplete,false,true,NA,7,8,E25_Q10_ansR.png,right,NA,NA,NA,left,2117.19999998808,false,NA,NA,NA,NA,NA
Cai9acV7,NA,NA,Cai9acV7,2020-0188,2021-09-19,14:26:07,15:31:11,NA,incomplete,false,true,NA,7,9,E25_Q6_ansL.png,left,NA,NA,NA,left,1825.80000001192,true,NA,NA,NA,NA,NA
Cai9acV7,NA,NA,Cai9acV7,2020-0188,2021-09-19,14:26:07,15:31:11,NA,incomplete,false,true,NA,7,10,E10_Q3_ansL.png,left,NA,NA,NA,right,2307.19999998808,false,NA,NA,NA,NA,NA
Cai9acV7,NA,NA,Cai9acV7,2020-0188,2021-09-19,14:26:07,15:31:11,NA,incomplete,false,true,NA,7,11,E10_Q10_ansR.png,right,NA,NA,NA,left,2977.30000001192,false,NA,NA,NA,NA,NA
Cai9acV7,NA,NA,Cai9acV7,2020-0188,2021-09-19,14:26:07,15:31:11,NA,incomplete,false,true,NA,7,12,E10_Q4_ansL.png,left,NA,NA,NA,left,3332.30000001192,true,NA,NA,NA,NA,NA
Cai9acV7,NA,NA,Cai9acV7,2020-0188,2021-09-19,14:26:07,15:31:11,NA,incomplete,false,true,NA,7,13,E10_Q6_ansR.png,right,NA,NA,NA,right,2341.90000003576,true,NA,NA,NA,NA,NA
Cai9acV7,NA,NA,Cai9acV7,2020-0188,2021-09-19,14:26:07,15:31:11,NA,incomplete,false,true,NA,7,14,E10_Q8_ansR.png,right,NA,NA,NA,right,3183.30000001192,true,NA,NA,NA,NA,NA
Cai9acV7,NA,NA,Cai9acV7,2020-0188,2021-09-19,14:26:07,15:31:11,NA,incomplete,false,true,NA,7,15,E10_Q9_ansL.png,left,NA,NA,NA,left,2922.30000001192,true,NA,NA,NA,NA,NA
Cai9acV7,NA,NA,Cai9acV7,2020-0188,2021-09-19,14:26:07,15:31:11,NA,incomplete,false,true,NA,7,16,E10_Q2_ansL.png,left,NA,NA,NA,left,2069.80000001192,true,NA,NA,NA,NA,NA
Cai9acV7,NA,NA,Cai9acV7,2020-0188,2021-09-19,14:26:07,15:31:11,NA,incomplete,false,true,NA,7,17,E10_Q1_ansL.png,left,NA,NA,NA,left,1707.30000001192,true,NA,NA,NA,NA,NA
Cai9acV7,NA,NA,Cai9acV7,2020-0188,2021-09-19,14:26:07,15:31:11,NA,incomplete,false,true,NA,7,18,E10_Q7_ansR.png,right,NA,NA,NA,left,2610.09999996424,false,NA,NA,NA,NA,NA
Cai9acV7,NA,NA,Cai9acV7,2020-0188,2021-09-19,14:26:07,15:31:11,NA,incomplete,false,true,NA,7,19,E10_Q5_ansR.png,right,NA,NA,NA,right,2717.10000002384,true,NA,NA,NA,NA,NA
Cai9acV7,NA,NA,Cai9acV7,2020-0188,2021-09-19,14:26:07,15:31:11,NA,incomplete,false,true,NA,7,20,E3_Q5_ansR.png,right,NA,NA,NA,right,1989.30000001192,true,NA,NA,NA,NA,NA
Cai9acV7,NA,NA,Cai9acV7,2020-0188,2021-09-19,14:26:07,15:31:11,NA,incomplete,false,true,NA,7,21,E3_Q6_ansR.png,right,NA,NA,NA,right,1164.59999996424,true,NA,NA,NA,NA,NA
Cai9acV7,NA,NA,Cai9acV7,2020-0188,2021-09-19,14:26:07,15:31:11,NA,incomplete,false,true,NA,7,22,E3_Q4_ansL.png,left,NA,NA,NA,left,1183.79999995232,true,NA,NA,NA,NA,NA
Cai9acV7,NA,NA,Cai9acV7,2020-0188,2021-09-19,14:26:07,15:31:11,NA,incomplete,false,true,NA,7,23,E3_Q3_ansR.png,right,NA,NA,NA,right,1498.19999998808,true,NA,NA,NA,NA,NA
Cai9acV7,NA,NA,Cai9acV7,2020-0188,2021-09-19,14:26:07,15:31:11,NA,incomplete,false,true,NA,7,24,E3_Q2_ansL.png,left,NA,NA,NA,left,1270.39999997616,true,NA,NA,NA,NA,NA
Cai9acV7,NA,NA,Cai9acV7,2020-0188,2021-09-19,14:26:07,15:31:11,NA,incomplete,false,true,NA,7,25,E3_Q9_ansL.png,left,NA,NA,NA,left,1345.89999997616,true,NA,NA,NA,NA,NA
Cai9acV7,NA,NA,Cai9acV7,2020-0188,2021-09-19,14:26:07,15:31:11,NA,incomplete,false,true,NA,7,26,E3_Q1_ansR.png,right,NA,NA,NA,right,1284.59999996424,true,NA,NA,NA,NA,NA
Cai9acV7,NA,NA,Cai9acV7,2020-0188,2021-09-19,14:26:07,15:31:11,NA,incomplete,false,true,NA,7,27,E3_Q10_ansR.png,right,NA,NA,NA,right,1480.69999998808,true,NA,NA,NA,NA,NA
Cai9acV7,NA,NA,Cai9acV7,2020-0188,2021-09-19,14:26:07,15:31:11,NA,incomplete,false,true,NA,7,28,E3_Q7_ansL.png,left,NA,NA,NA,left,1034.39999997616,true,NA,NA,NA,NA,NA
Cai9acV7,NA,NA,Cai9acV7,2020-0188,2021-09-19,14:26:07,15:31:11,NA,incomplete,false,true,NA,7,29,E3_Q8_ansL.png,left,NA,NA,NA,left,1318.69999998808,true,NA,NA,NA,NA,NA
Cai9acV7,NA,NA,Cai9acV7,2020-0188,2021-09-19,14:26:07,15:31:11,NA,incomplete,false,NA,true,7,0,NA,right,E25_Q9_ansL.png,E25_Q5_ansL.png,within,NA,NaN,NA,right,3106.699999988079,1,1,1011.1000000238419
Cai9acV7,NA,NA,Cai9acV7,2020-0188,2021-09-19,14:26:07,15:31:11,NA,incomplete,false,NA,true,7,1,NA,right,E10_Q3_ansL.png,E25_Q9_ansL.png,between,NA,NaN,NA,right,996.8999999761581,1,2,2746
Cai9acV7,NA,NA,Cai9acV7,2020-0188,2021-09-19,14:26:07,15:31:11,NA,incomplete,false,NA,true,7,2,NA,right,E3_Q7_ansL.png,E3_Q9_ansL.png,within,NA,NaN,NA,left,4324.699999988079,0,1,1871.1000000238419
Cai9acV7,NA,NA,Cai9acV7,2020-0188,2021-09-19,14:26:07,15:31:11,NA,incomplete,false,NA,true,7,3,NA,left,E25_Q10_ansR.png,E10_Q10_ansR.png,between,NA,NaN,NA,left,1111.5,1,1,2082.300000011921
Cai9acV7,NA,NA,Cai9acV7,2020-0188,2021-09-19,14:26:07,15:31:11,NA,incomplete,false,NA,true,7,4,NA,left,E25_Q8_ansR.png,E25_Q2_ansR.png,within,NA,NaN,NA,right,2011,0,0,1862.1000000238419
Cai9acV7,NA,NA,Cai9acV7,2020-0188,2021-09-19,14:26:07,15:31:11,NA,incomplete,false,NA,true,7,5,NA,right,E25_Q10_ansR.png,E25_Q1_ansR.png,within,NA,NaN,NA,left,5950.200000047684,0,1,1232.699999988079
Cai9acV7,NA,NA,Cai9acV7,2020-0188,2021-09-19,14:26:07,15:31:11,NA,incomplete,false,NA,true,7,6,NA,left,E10_Q1_ansL.png,E3_Q5_ansR.png,between,NA,NaN,NA,left,1993.199999988079,1,1,1553.2000000476837
Cai9acV7,NA,NA,Cai9acV7,2020-0188,2021-09-19,14:26:07,15:31:11,NA,incomplete,false,NA,true,7,7,NA,right,E10_Q6_ansR.png,E10_Q3_ansL.png,within,NA,NaN,NA,right,2026,1,1,1765.699999988079
Cai9acV7,NA,NA,Cai9acV7,2020-0188,2021-09-19,14:26:07,15:31:11,NA,incomplete,false,NA,true,7,8,NA,left,E10_Q9_ansL.png,E10_Q7_ansR.png,within,NA,NaN,NA,left,5992.5,1,1,946.6999999880791
Cai9acV7,NA,NA,Cai9acV7,2020-0188,2021-09-19,14:26:07,15:31:11,NA,incomplete,false,NA,true,7,9,NA,right,E3_Q2_ansL.png,E3_Q6_ansR.png,within,NA,NaN,NA,right,4512,1,1,961.5999999642372
Cai9acV7,NA,NA,Cai9acV7,2020-0188,2021-09-19,14:26:07,15:31:11,NA,incomplete,false,NA,true,7,10,NA,left,E10_Q8_ansR.png,E10_Q1_ansL.png,within,NA,NaN,NA,left,3606.699999988079,1,1,1100.800000011921
Cai9acV7,NA,NA,Cai9acV7,2020-0188,2021-09-19,14:26:07,15:31:11,NA,incomplete,false,NA,true,7,11,NA,right,E3_Q6_ansR.png,E10_Q7_ansR.png,between,NA,NaN,NA,right,1407.199999988079,1,2,2371.199999988079
Cai9acV7,NA,NA,Cai9acV7,2020-0188,2021-09-19,14:26:07,15:31:11,NA,incomplete,false,NA,true,7,12,NA,left,E10_Q10_ansR.png,E10_Q8_ansR.png,within,NA,NaN,NA,left,4628.5,1,1,831.8999999761581
Cai9acV7,NA,NA,Cai9acV7,2020-0188,2021-09-19,14:26:07,15:31:11,NA,incomplete,false,NA,true,7,13,NA,left,E3_Q1_ansR.png,E3_Q8_ansL.png,within,NA,NaN,NA,left,3269.800000011921,1,1,1186.6000000238419
Cai9acV7,NA,NA,Cai9acV7,2020-0188,2021-09-19,14:26:07,15:31:11,NA,incomplete,false,NA,true,7,14,NA,left,E3_Q2_ansL.png,E3_Q10_ansR.png,within,NA,NaN,NA,left,2362,1,1,775.5
Cai9acV7,NA,NA,Cai9acV7,2020-0188,2021-09-19,14:26:07,15:31:11,NA,incomplete,false,NA,true,7,15,NA,left,E25_Q6_ansL.png,E10_Q4_ansL.png,between,NA,NaN,NA,left,3367.600000023842,1,2,3260.300000011921
Cai9acV7,NA,NA,Cai9acV7,2020-0188,2021-09-19,14:26:07,15:31:11,NA,incomplete,false,NA,true,7,16,NA,left,E25_Q4_ansL.png,E25_Q1_ansR.png,within,NA,NaN,NA,left,2557.5,1,1,1372.699999988079
Cai9acV7,NA,NA,Cai9acV7,2020-0188,2021-09-19,14:26:07,15:31:11,NA,incomplete,false,NA,true,7,17,NA,right,E25_Q5_ansL.png,E25_Q3_ansL.png,within,NA,NaN,NA,right,2551.199999988079,1,1,1282.5999999642372
Cai9acV7,NA,NA,Cai9acV7,2020-0188,2021-09-19,14:26:07,15:31:11,NA,incomplete,false,NA,true,7,18,NA,left,E3_Q5_ansR.png,E3_Q3_ansR.png,within,NA,NaN,NA,left,2109.199999988079,1,1,913.5
Cai9acV7,NA,NA,Cai9acV7,2020-0188,2021-09-19,14:26:07,15:31:11,NA,incomplete,false,NA,true,7,19,NA,left,E10_Q2_ansL.png,E10_Q5_ansR.png,within,NA,NaN,NA,left,3832.400000035763,1,1,1068
Cai9acV7,NA,NA,Cai9acV7,2020-0188,2021-09-19,14:26:07,15:31:11,NA,incomplete,false,NA,true,7,20,NA,right,E25_Q8_ansR.png,E25_Q7_ansR.png,within,NA,NaN,NA,left,2402,0,1,830.1000000238419
Cai9acV7,NA,NA,Cai9acV7,2020-0188,2021-09-19,14:26:07,15:31:11,NA,incomplete,false,NA,true,7,21,NA,right,E10_Q2_ansL.png,E10_Q6_ansR.png,within,NA,NaN,NA,right,5239.5,1,1,759.1999999880791
Cai9acV7,NA,NA,Cai9acV7,2020-0188,2021-09-19,14:26:07,15:31:11,NA,incomplete,false,NA,true,7,22,NA,left,E25_Q2_ansR.png,E25_Q6_ansL.png,within,NA,NaN,NA,left,1355.699999988079,1,1,823.0999999642372
Cai9acV7,NA,NA,Cai9acV7,2020-0188,2021-09-19,14:26:07,15:31:11,NA,incomplete,false,NA,true,7,23,NA,right,E3_Q9_ansL.png,E3_Q4_ansL.png,within,NA,NaN,NA,left,2033.8999999761581,0,1,1207.5
Cai9acV7,NA,NA,Cai9acV7,2020-0188,2021-09-19,14:26:07,15:31:11,NA,incomplete,false,NA,true,7,24,NA,left,E10_Q5_ansR.png,E3_Q4_ansL.png,between,NA,NaN,NA,left,1323.3999999761581,1,2,1992
Cai9acV7,NA,NA,Cai9acV7,2020-0188,2021-09-19,14:26:07,15:31:11,NA,incomplete,false,NA,true,7,25,NA,right,E10_Q9_ansL.png,E10_Q4_ansL.png,within,NA,NaN,NA,right,1019.6000000238419,1,1,930.6000000238419
Cai9acV7,NA,NA,Cai9acV7,2020-0188,2021-09-19,14:26:07,15:31:11,NA,incomplete,false,NA,true,7,26,NA,right,E3_Q1_ansR.png,E3_Q3_ansR.png,within,NA,NaN,NA,right,2312.899999976158,1,1,838.3000000119209
Cai9acV7,NA,NA,Cai9acV7,2020-0188,2021-09-19,14:26:07,15:31:11,NA,incomplete,false,true,NA,8,0,E17_Q5_ansR.png,right,NA,NA,NA,right,1178.80000001192,true,NA,NA,NA,NA,NA
Cai9acV7,NA,NA,Cai9acV7,2020-0188,2021-09-19,14:26:07,15:31:11,NA,incomplete,false,true,NA,8,1,E17_Q4_ansR.png,right,NA,NA,NA,right,1076.19999998808,true,NA,NA,NA,NA,NA
Cai9acV7,NA,NA,Cai9acV7,2020-0188,2021-09-19,14:26:07,15:31:11,NA,incomplete,false,true,NA,8,2,E17_Q1_ansL.png,left,NA,NA,NA,left,1064.40000003576,true,NA,NA,NA,NA,NA
Cai9acV7,NA,NA,Cai9acV7,2020-0188,2021-09-19,14:26:07,15:31:11,NA,incomplete,false,true,NA,8,3,E17_Q2_ansL.png,left,NA,NA,NA,left,1092.59999996424,true,NA,NA,NA,NA,NA
Cai9acV7,NA,NA,Cai9acV7,2020-0188,2021-09-19,14:26:07,15:31:11,NA,incomplete,false,true,NA,8,4,E17_Q3_ansR.png,right,NA,NA,NA,right,712.200000047684,true,NA,NA,NA,NA,NA
Cai9acV7,NA,NA,Cai9acV7,2020-0188,2021-09-19,14:26:07,15:31:11,NA,incomplete,false,true,NA,8,5,E17_Q8_ansL.png,left,NA,NA,NA,left,833.099999964237,true,NA,NA,NA,NA,NA
Cai9acV7,NA,NA,Cai9acV7,2020-0188,2021-09-19,14:26:07,15:31:11,NA,incomplete,false,true,NA,8,6,E17_Q6_ansR.png,right,NA,NA,NA,right,873.399999976158,true,NA,NA,NA,NA,NA
Cai9acV7,NA,NA,Cai9acV7,2020-0188,2021-09-19,14:26:07,15:31:11,NA,incomplete,false,true,NA,8,7,E17_Q10_ansL.png,left,NA,NA,NA,left,890.899999976158,true,NA,NA,NA,NA,NA
Cai9acV7,NA,NA,Cai9acV7,2020-0188,2021-09-19,14:26:07,15:31:11,NA,incomplete,false,true,NA,8,8,E17_Q7_ansL.png,left,NA,NA,NA,left,1012.39999997616,true,NA,NA,NA,NA,NA
Cai9acV7,NA,NA,Cai9acV7,2020-0188,2021-09-19,14:26:07,15:31:11,NA,incomplete,false,true,NA,8,9,E17_Q9_ansR.png,right,NA,NA,NA,right,851.800000011921,true,NA,NA,NA,NA,NA
Cai9acV7,NA,NA,Cai9acV7,2020-0188,2021-09-19,14:26:07,15:31:11,NA,incomplete,false,true,NA,8,10,E22_Q10_ansR.png,right,NA,NA,NA,right,1047,true,NA,NA,NA,NA,NA
Cai9acV7,NA,NA,Cai9acV7,2020-0188,2021-09-19,14:26:07,15:31:11,NA,incomplete,false,true,NA,8,11,E22_Q6_ansL.png,left,NA,NA,NA,left,936.199999988079,true,NA,NA,NA,NA,NA
Cai9acV7,NA,NA,Cai9acV7,2020-0188,2021-09-19,14:26:07,15:31:11,NA,incomplete,false,true,NA,8,12,E22_Q5_ansL.png,left,NA,NA,NA,left,1030.19999998808,true,NA,NA,NA,NA,NA
Cai9acV7,NA,NA,Cai9acV7,2020-0188,2021-09-19,14:26:07,15:31:11,NA,incomplete,false,true,NA,8,13,E22_Q4_ansL.png,left,NA,NA,NA,left,1043.40000003576,true,NA,NA,NA,NA,NA
Cai9acV7,NA,NA,Cai9acV7,2020-0188,2021-09-19,14:26:07,15:31:11,NA,incomplete,false,true,NA,8,14,E22_Q3_ansL.png,left,NA,NA,NA,left,1350.09999996424,true,NA,NA,NA,NA,NA
Cai9acV7,NA,NA,Cai9acV7,2020-0188,2021-09-19,14:26:07,15:31:11,NA,incomplete,false,true,NA,8,15,E22_Q8_ansR.png,right,NA,NA,NA,right,1103,true,NA,NA,NA,NA,NA
Cai9acV7,NA,NA,Cai9acV7,2020-0188,2021-09-19,14:26:07,15:31:11,NA,incomplete,false,true,NA,8,16,E22_Q2_ansR.png,right,NA,NA,NA,right,1342.10000002384,true,NA,NA,NA,NA,NA
Cai9acV7,NA,NA,Cai9acV7,2020-0188,2021-09-19,14:26:07,15:31:11,NA,incomplete,false,true,NA,8,17,E22_Q1_ansR.png,right,NA,NA,NA,right,1032,true,NA,NA,NA,NA,NA
Cai9acV7,NA,NA,Cai9acV7,2020-0188,2021-09-19,14:26:07,15:31:11,NA,incomplete,false,true,NA,8,18,E22_Q7_ansR.png,right,NA,NA,NA,right,1123.30000001192,true,NA,NA,NA,NA,NA
Cai9acV7,NA,NA,Cai9acV7,2020-0188,2021-09-19,14:26:07,15:31:11,NA,incomplete,false,true,NA,8,19,E22_Q9_ansL.png,left,NA,NA,NA,left,952.5,true,NA,NA,NA,NA,NA
Cai9acV7,NA,NA,Cai9acV7,2020-0188,2021-09-19,14:26:07,15:31:11,NA,incomplete,false,true,NA,8,20,E5_Q5_ansR.png,right,NA,NA,NA,right,1479,true,NA,NA,NA,NA,NA
Cai9acV7,NA,NA,Cai9acV7,2020-0188,2021-09-19,14:26:07,15:31:11,NA,incomplete,false,true,NA,8,21,E5_Q6_ansR.png,right,NA,NA,NA,right,918.800000011921,true,NA,NA,NA,NA,NA
Cai9acV7,NA,NA,Cai9acV7,2020-0188,2021-09-19,14:26:07,15:31:11,NA,incomplete,false,true,NA,8,22,E5_Q1_ansL.png,left,NA,NA,NA,left,874.599999964237,true,NA,NA,NA,NA,NA
Cai9acV7,NA,NA,Cai9acV7,2020-0188,2021-09-19,14:26:07,15:31:11,NA,incomplete,false,true,NA,8,23,E5_Q10_ansR.png,right,NA,NA,NA,right,1021.09999996424,true,NA,NA,NA,NA,NA
Cai9acV7,NA,NA,Cai9acV7,2020-0188,2021-09-19,14:26:07,15:31:11,NA,incomplete,false,true,NA,8,24,E5_Q7_ansL.png,left,NA,NA,NA,left,1517.10000002384,true,NA,NA,NA,NA,NA
Cai9acV7,NA,NA,Cai9acV7,2020-0188,2021-09-19,14:26:07,15:31:11,NA,incomplete,false,true,NA,8,25,E5_Q8_ansL.png,left,NA,NA,NA,left,1129.30000001192,true,NA,NA,NA,NA,NA
Cai9acV7,NA,NA,Cai9acV7,2020-0188,2021-09-19,14:26:07,15:31:11,NA,incomplete,false,true,NA,8,26,E5_Q9_ansR.png,right,NA,NA,NA,right,1180.30000001192,true,NA,NA,NA,NA,NA
Cai9acV7,NA,NA,Cai9acV7,2020-0188,2021-09-19,14:26:07,15:31:11,NA,incomplete,false,true,NA,8,27,E5_Q4_ansR.png,right,NA,NA,NA,right,1371,true,NA,NA,NA,NA,NA
Cai9acV7,NA,NA,Cai9acV7,2020-0188,2021-09-19,14:26:07,15:31:11,NA,incomplete,false,true,NA,8,28,E5_Q3_ansR.png,right,NA,NA,NA,right,1088.19999998808,true,NA,NA,NA,NA,NA
Cai9acV7,NA,NA,Cai9acV7,2020-0188,2021-09-19,14:26:07,15:31:11,NA,incomplete,false,true,NA,8,29,E5_Q2_ansL.png,left,NA,NA,NA,left,1338.59999996424,true,NA,NA,NA,NA,NA
Cai9acV7,NA,NA,Cai9acV7,2020-0188,2021-09-19,14:26:07,15:31:11,NA,incomplete,false,NA,true,8,0,NA,right,E22_Q10_ansR.png,E17_Q10_ansL.png,between,NA,NaN,NA,right,1101.300000011921,1,1,1069.800000011921
Cai9acV7,NA,NA,Cai9acV7,2020-0188,2021-09-19,14:26:07,15:31:11,NA,incomplete,false,NA,true,8,1,NA,right,E17_Q3_ansR.png,E17_Q4_ansR.png,within,NA,NaN,NA,right,1763.300000011921,1,1,1322.5
Cai9acV7,NA,NA,Cai9acV7,2020-0188,2021-09-19,14:26:07,15:31:11,NA,incomplete,false,NA,true,8,2,NA,right,E5_Q3_ansR.png,E5_Q8_ansL.png,within,NA,NaN,NA,left,2899.800000011921,0,1,921.3999999761581
Cai9acV7,NA,NA,Cai9acV7,2020-0188,2021-09-19,14:26:07,15:31:11,NA,incomplete,false,NA,true,8,3,NA,right,E17_Q6_ansR.png,E17_Q2_ansL.png,within,NA,NaN,NA,right,1950,1,1,1409.199999988079
Cai9acV7,NA,NA,Cai9acV7,2020-0188,2021-09-19,14:26:07,15:31:11,NA,incomplete,false,NA,true,8,4,NA,right,E22_Q3_ansL.png,E22_Q6_ansL.png,within,NA,NaN,NA,right,1835.5,1,1,1222.4000000357628
Cai9acV7,NA,NA,Cai9acV7,2020-0188,2021-09-19,14:26:07,15:31:11,NA,incomplete,false,NA,true,8,5,NA,right,E5_Q9_ansR.png,E5_Q10_ansR.png,within,NA,NaN,NA,right,1157.699999988079,1,1,1091.2000000476837
Cai9acV7,NA,NA,Cai9acV7,2020-0188,2021-09-19,14:26:07,15:31:11,NA,incomplete,false,NA,true,8,6,NA,right,E17_Q8_ansL.png,E17_Q1_ansL.png,within,NA,NaN,NA,left,1517.199999988079,0,1,809.8000000119209
Cai9acV7,NA,NA,Cai9acV7,2020-0188,2021-09-19,14:26:07,15:31:11,NA,incomplete,false,NA,true,8,7,NA,left,E17_Q5_ansR.png,E17_Q2_ansL.png,within,NA,NaN,NA,left,1238.6000000238419,1,1,882
Cai9acV7,NA,NA,Cai9acV7,2020-0188,2021-09-19,14:26:07,15:31:11,NA,incomplete,false,NA,true,8,8,NA,left,E22_Q2_ansR.png,E22_Q9_ansL.png,within,NA,NaN,NA,right,2648.399999976158,0,1,1151.8999999761581
Cai9acV7,NA,NA,Cai9acV7,2020-0188,2021-09-19,14:26:07,15:31:11,NA,incomplete,false,NA,true,8,9,NA,right,E5_Q5_ansR.png,E22_Q1_ansR.png,between,NA,NaN,NA,right,4675.5,1,1,1069.800000011921
Cai9acV7,NA,NA,Cai9acV7,2020-0188,2021-09-19,14:26:07,15:31:11,NA,incomplete,false,NA,true,8,10,NA,right,E22_Q5_ansL.png,E17_Q9_ansR.png,between,NA,NaN,NA,right,1372.699999988079,1,2,1233.300000011921
Cai9acV7,NA,NA,Cai9acV7,2020-0188,2021-09-19,14:26:07,15:31:11,NA,incomplete,false,NA,true,8,11,NA,right,E5_Q8_ansL.png,E5_Q1_ansL.png,within,NA,NaN,NA,left,1372.1000000238419,0,1,922.1000000238419
Cai9acV7,NA,NA,Cai9acV7,2020-0188,2021-09-19,14:26:07,15:31:11,NA,incomplete,false,NA,true,8,12,NA,left,E22_Q7_ansR.png,E5_Q6_ansR.png,between,NA,NaN,NA,left,1029.699999988079,1,2,2484.800000011921
Cai9acV7,NA,NA,Cai9acV7,2020-0188,2021-09-19,14:26:07,15:31:11,NA,incomplete,false,NA,true,8,13,NA,right,E5_Q2_ansL.png,E5_Q9_ansR.png,within,NA,NaN,NA,left,1462.6000000238419,0,1,889.1999999880791
Cai9acV7,NA,NA,Cai9acV7,2020-0188,2021-09-19,14:26:07,15:31:11,NA,incomplete,false,NA,true,8,14,NA,right,E22_Q1_ansR.png,E22_Q3_ansL.png,within,NA,NaN,NA,left,3628.099999964237,0,1,922.6000000238419
Cai9acV7,NA,NA,Cai9acV7,2020-0188,2021-09-19,14:26:07,15:31:11,NA,incomplete,false,NA,true,8,15,NA,left,E22_Q8_ansR.png,E22_Q7_ansR.png,within,NA,NaN,NA,left,2370.599999964237,1,1,808
Cai9acV7,NA,NA,Cai9acV7,2020-0188,2021-09-19,14:26:07,15:31:11,NA,incomplete,false,NA,true,8,16,NA,left,E17_Q8_ansL.png,E17_Q7_ansL.png,within,NA,NaN,NA,left,1644.1000000238419,1,1,807.3999999761581
Cai9acV7,NA,NA,Cai9acV7,2020-0188,2021-09-19,14:26:07,15:31:11,NA,incomplete,false,NA,true,8,17,NA,right,E17_Q9_ansR.png,E17_Q6_ansR.png,within,NA,NaN,NA,right,1658.199999988079,1,0,1593
Cai9acV7,NA,NA,Cai9acV7,2020-0188,2021-09-19,14:26:07,15:31:11,NA,incomplete,false,NA,true,8,18,NA,left,E17_Q3_ansR.png,E17_Q10_ansL.png,within,NA,NaN,NA,left,3441,1,0,962.8999999761581
Cai9acV7,NA,NA,Cai9acV7,2020-0188,2021-09-19,14:26:07,15:31:11,NA,incomplete,false,NA,true,8,19,NA,right,E22_Q4_ansL.png,E22_Q10_ansR.png,within,NA,NaN,NA,right,1600,1,1,1044
Cai9acV7,NA,NA,Cai9acV7,2020-0188,2021-09-19,14:26:07,15:31:11,NA,incomplete,false,NA,true,8,20,NA,left,E5_Q7_ansL.png,E5_Q4_ansR.png,within,NA,NaN,NA,left,5313.100000023842,1,1,1012.1000000238419
Cai9acV7,NA,NA,Cai9acV7,2020-0188,2021-09-19,14:26:07,15:31:11,NA,incomplete,false,NA,true,8,21,NA,left,E5_Q6_ansR.png,E5_Q7_ansL.png,within,NA,NaN,NA,left,871.9000000357628,1,1,1077.1000000238419
Cai9acV7,NA,NA,Cai9acV7,2020-0188,2021-09-19,14:26:07,15:31:11,NA,incomplete,false,NA,true,8,22,NA,right,E5_Q10_ansR.png,E5_Q5_ansR.png,within,NA,NaN,NA,right,2043.3999999761581,1,1,1061.7000000476837
Cai9acV7,NA,NA,Cai9acV7,2020-0188,2021-09-19,14:26:07,15:31:11,NA,incomplete,false,NA,true,8,23,NA,left,E22_Q4_ansL.png,E22_Q2_ansR.png,within,NA,NaN,NA,right,2263.600000023842,0,1,848.6999999880791
Cai9acV7,NA,NA,Cai9acV7,2020-0188,2021-09-19,14:26:07,15:31:11,NA,incomplete,false,NA,true,8,24,NA,right,E22_Q6_ansL.png,E17_Q7_ansL.png,between,NA,NaN,NA,right,3007.699999988079,1,1,833.8999999761581
Cai9acV7,NA,NA,Cai9acV7,2020-0188,2021-09-19,14:26:07,15:31:11,NA,incomplete,false,NA,true,8,25,NA,right,E22_Q8_ansR.png,E22_Q5_ansL.png,within,NA,NaN,NA,left,7521,0,1,970.5
Cai9acV7,NA,NA,Cai9acV7,2020-0188,2021-09-19,14:26:07,15:31:11,NA,incomplete,false,NA,true,8,26,NA,right,E5_Q1_ansL.png,E22_Q9_ansL.png,between,NA,NaN,NA,right,1053.6000000238419,1,2,1364.199999988079
Cai9acV7,NA,NA,Cai9acV7,2020-0188,2021-09-19,14:26:07,15:31:11,NA,incomplete,false,true,NA,9,0,E31_Q7_ansR.png,right,NA,NA,NA,right,1501.79999995232,true,NA,NA,NA,NA,NA
Cai9acV7,NA,NA,Cai9acV7,2020-0188,2021-09-19,14:26:07,15:31:11,NA,incomplete,false,true,NA,9,1,E31_Q4_ansL.png,left,NA,NA,NA,left,1034,true,NA,NA,NA,NA,NA
Cai9acV7,NA,NA,Cai9acV7,2020-0188,2021-09-19,14:26:07,15:31:11,NA,incomplete,false,true,NA,9,2,E31_Q2_ansR.png,right,NA,NA,NA,right,1119.10000002384,true,NA,NA,NA,NA,NA
Cai9acV7,NA,NA,Cai9acV7,2020-0188,2021-09-19,14:26:07,15:31:11,NA,incomplete,false,true,NA,9,3,E31_Q6_ansL.png,left,NA,NA,NA,left,1522.80000001192,true,NA,NA,NA,NA,NA
Cai9acV7,NA,NA,Cai9acV7,2020-0188,2021-09-19,14:26:07,15:31:11,NA,incomplete,false,true,NA,9,4,E31_Q1_ansR.png,right,NA,NA,NA,right,957.099999964237,true,NA,NA,NA,NA,NA
Cai9acV7,NA,NA,Cai9acV7,2020-0188,2021-09-19,14:26:07,15:31:11,NA,incomplete,false,true,NA,9,5,E31_Q9_ansL.png,left,NA,NA,NA,left,1178.30000001192,true,NA,NA,NA,NA,NA
Cai9acV7,NA,NA,Cai9acV7,2020-0188,2021-09-19,14:26:07,15:31:11,NA,incomplete,false,true,NA,9,6,E31_Q3_ansL.png,left,NA,NA,NA,left,962.800000011921,true,NA,NA,NA,NA,NA
Cai9acV7,NA,NA,Cai9acV7,2020-0188,2021-09-19,14:26:07,15:31:11,NA,incomplete,false,true,NA,9,7,E31_Q5_ansL.png,left,NA,NA,NA,left,980.899999976158,true,NA,NA,NA,NA,NA
Cai9acV7,NA,NA,Cai9acV7,2020-0188,2021-09-19,14:26:07,15:31:11,NA,incomplete,false,true,NA,9,8,E31_Q8_ansR.png,right,NA,NA,NA,right,1250.20000004768,true,NA,NA,NA,NA,NA
Cai9acV7,NA,NA,Cai9acV7,2020-0188,2021-09-19,14:26:07,15:31:11,NA,incomplete,false,true,NA,9,9,E31_Q10_ansR.png,right,NA,NA,NA,right,830.600000023842,true,NA,NA,NA,NA,NA
Cai9acV7,NA,NA,Cai9acV7,2020-0188,2021-09-19,14:26:07,15:31:11,NA,incomplete,false,true,NA,9,10,E18_Q4_ansR.png,right,NA,NA,NA,right,1067.30000001192,true,NA,NA,NA,NA,NA
Cai9acV7,NA,NA,Cai9acV7,2020-0188,2021-09-19,14:26:07,15:31:11,NA,incomplete,false,true,NA,9,11,E18_Q7_ansL.png,left,NA,NA,NA,left,1008.60000002384,true,NA,NA,NA,NA,NA
Cai9acV7,NA,NA,Cai9acV7,2020-0188,2021-09-19,14:26:07,15:31:11,NA,incomplete,false,true,NA,9,12,E18_Q8_ansL.png,left,NA,NA,NA,left,1820.89999997616,true,NA,NA,NA,NA,NA
Cai9acV7,NA,NA,Cai9acV7,2020-0188,2021-09-19,14:26:07,15:31:11,NA,incomplete,false,true,NA,9,13,E18_Q3_ansR.png,right,NA,NA,NA,right,1091.29999995232,true,NA,NA,NA,NA,NA
Cai9acV7,NA,NA,Cai9acV7,2020-0188,2021-09-19,14:26:07,15:31:11,NA,incomplete,false,true,NA,9,14,E18_Q9_ansR.png,right,NA,NA,NA,right,1086.30000001192,true,NA,NA,NA,NA,NA
Cai9acV7,NA,NA,Cai9acV7,2020-0188,2021-09-19,14:26:07,15:31:11,NA,incomplete,false,true,NA,9,15,E18_Q10_ansL.png,left,NA,NA,NA,left,2983.39999997616,true,NA,NA,NA,NA,NA
Cai9acV7,NA,NA,Cai9acV7,2020-0188,2021-09-19,14:26:07,15:31:11,NA,incomplete,false,true,NA,9,16,E18_Q2_ansL.png,left,NA,NA,NA,left,1660,true,NA,NA,NA,NA,NA
Cai9acV7,NA,NA,Cai9acV7,2020-0188,2021-09-19,14:26:07,15:31:11,NA,incomplete,false,true,NA,9,17,E18_Q6_ansR.png,right,NA,NA,NA,right,1129.69999998808,true,NA,NA,NA,NA,NA
Cai9acV7,NA,NA,Cai9acV7,2020-0188,2021-09-19,14:26:07,15:31:11,NA,incomplete,false,true,NA,9,18,E18_Q5_ansR.png,right,NA,NA,NA,right,1581.60000002384,true,NA,NA,NA,NA,NA
Cai9acV7,NA,NA,Cai9acV7,2020-0188,2021-09-19,14:26:07,15:31:11,NA,incomplete,false,true,NA,9,19,E18_Q1_ansL.png,left,NA,NA,NA,left,1165.90000003576,true,NA,NA,NA,NA,NA
Cai9acV7,NA,NA,Cai9acV7,2020-0188,2021-09-19,14:26:07,15:31:11,NA,incomplete,false,true,NA,9,20,E8_Q7_ansR.png,right,NA,NA,NA,right,1483.30000001192,true,NA,NA,NA,NA,NA
Cai9acV7,NA,NA,Cai9acV7,2020-0188,2021-09-19,14:26:07,15:31:11,NA,incomplete,false,true,NA,9,21,E8_Q9_ansL.png,left,NA,NA,NA,left,1195.19999998808,true,NA,NA,NA,NA,NA
Cai9acV7,NA,NA,Cai9acV7,2020-0188,2021-09-19,14:26:07,15:31:11,NA,incomplete,false,true,NA,9,22,E8_Q5_ansL.png,left,NA,NA,NA,left,921.899999976158,true,NA,NA,NA,NA,NA
Cai9acV7,NA,NA,Cai9acV7,2020-0188,2021-09-19,14:26:07,15:31:11,NA,incomplete,false,true,NA,9,23,E8_Q1_ansR.png,right,NA,NA,NA,right,803.199999988079,true,NA,NA,NA,NA,NA
Cai9acV7,NA,NA,Cai9acV7,2020-0188,2021-09-19,14:26:07,15:31:11,NA,incomplete,false,true,NA,9,24,E8_Q3_ansL.png,left,NA,NA,NA,left,1557.59999996424,true,NA,NA,NA,NA,NA
Cai9acV7,NA,NA,Cai9acV7,2020-0188,2021-09-19,14:26:07,15:31:11,NA,incomplete,false,true,NA,9,25,E8_Q8_ansR.png,right,NA,NA,NA,right,1175,true,NA,NA,NA,NA,NA
Cai9acV7,NA,NA,Cai9acV7,2020-0188,2021-09-19,14:26:07,15:31:11,NA,incomplete,false,true,NA,9,26,E8_Q4_ansL.png,left,NA,NA,NA,left,871.900000035763,true,NA,NA,NA,NA,NA
Cai9acV7,NA,NA,Cai9acV7,2020-0188,2021-09-19,14:26:07,15:31:11,NA,incomplete,false,true,NA,9,27,E8_Q6_ansL.png,left,NA,NA,NA,left,876.400000035763,true,NA,NA,NA,NA,NA
Cai9acV7,NA,NA,Cai9acV7,2020-0188,2021-09-19,14:26:07,15:31:11,NA,incomplete,false,true,NA,9,28,E8_Q2_ansR.png,right,NA,NA,NA,right,1177.10000002384,true,NA,NA,NA,NA,NA
Cai9acV7,NA,NA,Cai9acV7,2020-0188,2021-09-19,14:26:07,15:31:11,NA,incomplete,false,true,NA,9,29,E8_Q10_ansR.png,right,NA,NA,NA,right,971.599999964237,true,NA,NA,NA,NA,NA
Cai9acV7,NA,NA,Cai9acV7,2020-0188,2021-09-19,14:26:07,15:31:11,NA,incomplete,false,NA,true,9,0,NA,left,E31_Q3_ansL.png,E31_Q10_ansR.png,within,NA,NaN,NA,left,2270.300000011921,1,1,1279.800000011921
Cai9acV7,NA,NA,Cai9acV7,2020-0188,2021-09-19,14:26:07,15:31:11,NA,incomplete,false,NA,true,9,1,NA,right,E8_Q10_ansR.png,E8_Q4_ansL.png,within,NA,NaN,NA,right,1960.5,1,1,1026.300000011921
Cai9acV7,NA,NA,Cai9acV7,2020-0188,2021-09-19,14:26:07,15:31:11,NA,incomplete,false,NA,true,9,2,NA,right,E18_Q9_ansR.png,E18_Q7_ansL.png,within,NA,NaN,NA,right,1630.9000000357628,1,0,1452.2999999523163
Cai9acV7,NA,NA,Cai9acV7,2020-0188,2021-09-19,14:26:07,15:31:11,NA,incomplete,false,NA,true,9,3,NA,right,E18_Q7_ansL.png,E31_Q8_ansR.png,between,NA,NaN,NA,right,847.8000000119209,1,1,847.5
Cai9acV7,NA,NA,Cai9acV7,2020-0188,2021-09-19,14:26:07,15:31:11,NA,incomplete,false,NA,true,9,4,NA,right,E8_Q3_ansL.png,E8_Q9_ansL.png,within,NA,NaN,NA,right,1509.699999988079,1,1,946.1999999880791
Cai9acV7,NA,NA,Cai9acV7,2020-0188,2021-09-19,14:26:07,15:31:11,NA,incomplete,false,NA,true,9,5,NA,right,E8_Q9_ansL.png,E18_Q5_ansR.png,between,NA,NaN,NA,right,2271.399999976158,1,2,1266.699999988079
Cai9acV7,NA,NA,Cai9acV7,2020-0188,2021-09-19,14:26:07,15:31:11,NA,incomplete,false,NA,true,9,6,NA,right,E8_Q4_ansL.png,E8_Q1_ansR.png,within,NA,NaN,NA,right,2475.600000023842,1,1,750.3999999761581
Cai9acV7,NA,NA,Cai9acV7,2020-0188,2021-09-19,14:26:07,15:31:11,NA,incomplete,false,NA,true,9,7,NA,right,E18_Q10_ansL.png,E18_Q8_ansL.png,within,NA,NaN,NA,right,2682.5,1,1,1192.199999988079
Cai9acV7,NA,NA,Cai9acV7,2020-0188,2021-09-19,14:26:07,15:31:11,NA,incomplete,false,NA,true,9,8,NA,right,E31_Q8_ansR.png,E31_Q9_ansL.png,within,NA,NaN,NA,left,4499.600000023842,0,1,1804.8999999761581
Cai9acV7,NA,NA,Cai9acV7,2020-0188,2021-09-19,14:26:07,15:31:11,NA,incomplete,false,NA,true,9,9,NA,right,E8_Q2_ansR.png,E8_Q8_ansR.png,within,NA,NaN,NA,right,1486.699999988079,1,1,2304.099999964237
Cai9acV7,NA,NA,Cai9acV7,2020-0188,2021-09-19,14:26:07,15:31:11,NA,incomplete,false,NA,true,9,10,NA,right,E18_Q1_ansL.png,E18_Q2_ansL.png,within,NA,NaN,NA,left,3449.399999976158,0,1,1167.6000000238419
Cai9acV7,NA,NA,Cai9acV7,2020-0188,2021-09-19,14:26:07,15:31:11,NA,incomplete,false,NA,true,9,11,NA,right,E8_Q6_ansL.png,E8_Q3_ansL.png,within,NA,NaN,NA,right,2492,1,1,1593.5
Cai9acV7,NA,NA,Cai9acV7,2020-0188,2021-09-19,14:26:07,15:31:11,NA,incomplete,false,NA,true,9,12,NA,left,E31_Q6_ansL.png,E31_Q3_ansL.png,within,NA,NaN,NA,right,3027,0,1,954.0999999642372
Cai9acV7,NA,NA,Cai9acV7,2020-0188,2021-09-19,14:26:07,15:31:11,NA,incomplete,false,NA,true,9,13,NA,left,E8_Q5_ansL.png,E8_Q8_ansR.png,within,NA,NaN,NA,right,5461.699999988079,0,1,5075.699999988079
