workerId,hitId,assignmentId,subject,studyid,exp_date,exp_start,exp_end,time_start,time_end,practice,encoding,memory,block,trial,stim,answer,left_image,right_image,condition,response,response_time,response_acc,order_response,order_response_time,order_acc,distance_response,distance_response_time
Cb4TgGOr,NA,NA,Cb4TgGOr,2020-0188,2021-11-11,20:07:07,22:02:16,NA,incomplete,true,true,NA,0,0,E22_Q1_ansR.png,right,NA,NA,NA,right,1131,true,NA,NA,NA,NA,NA
Cb4TgGOr,NA,NA,Cb4TgGOr,2020-0188,2021-11-11,20:07:07,22:02:16,NA,incomplete,true,true,NA,0,1,E22_Q7_ansR.png,right,NA,NA,NA,right,1755,true,NA,NA,NA,NA,NA
Cb4TgGOr,NA,NA,Cb4TgGOr,2020-0188,2021-11-11,20:07:07,22:02:16,NA,incomplete,true,true,NA,0,2,E22_Q2_ansR.png,right,NA,NA,NA,right,1337,true,NA,NA,NA,NA,NA
Cb4TgGOr,NA,NA,Cb4TgGOr,2020-0188,2021-11-11,20:07:07,22:02:16,NA,incomplete,true,true,NA,0,3,E22_Q5_ansL.png,left,NA,NA,NA,left,924,true,NA,NA,NA,NA,NA
Cb4TgGOr,NA,NA,Cb4TgGOr,2020-0188,2021-11-11,20:07:07,22:02:16,NA,incomplete,true,true,NA,0,4,E22_Q6_ansL.png,left,NA,NA,NA,left,968,true,NA,NA,NA,NA,NA
Cb4TgGOr,NA,NA,Cb4TgGOr,2020-0188,2021-11-11,20:07:07,22:02:16,NA,incomplete,true,true,NA,0,5,E22_Q9_ansL.png,left,NA,NA,NA,left,1559,true,NA,NA,NA,NA,NA
Cb4TgGOr,NA,NA,Cb4TgGOr,2020-0188,2021-11-11,20:07:07,22:02:16,NA,incomplete,true,true,NA,0,6,E22_Q10_ansR.png,right,NA,NA,NA,right,1079,true,NA,NA,NA,NA,NA
Cb4TgGOr,NA,NA,Cb4TgGOr,2020-0188,2021-11-11,20:07:07,22:02:16,NA,incomplete,true,true,NA,0,7,E22_Q4_ansL.png,left,NA,NA,NA,left,1036,true,NA,NA,NA,NA,NA
Cb4TgGOr,NA,NA,Cb4TgGOr,2020-0188,2021-11-11,20:07:07,22:02:16,NA,incomplete,true,true,NA,0,8,E22_Q3_ansL.png,left,NA,NA,NA,left,1303,true,NA,NA,NA,NA,NA
Cb4TgGOr,NA,NA,Cb4TgGOr,2020-0188,2021-11-11,20:07:07,22:02:16,NA,incomplete,true,true,NA,0,9,E22_Q8_ansR.png,right,NA,NA,NA,right,827,true,NA,NA,NA,NA,NA
Cb4TgGOr,NA,NA,Cb4TgGOr,2020-0188,2021-11-11,20:07:07,22:02:16,NA,incomplete,true,true,NA,0,10,E20_Q9_ansR.png,right,NA,NA,NA,right,1497,true,NA,NA,NA,NA,NA
Cb4TgGOr,NA,NA,Cb4TgGOr,2020-0188,2021-11-11,20:07:07,22:02:16,NA,incomplete,true,true,NA,0,11,E20_Q3_ansR.png,right,NA,NA,NA,right,1187,true,NA,NA,NA,NA,NA
Cb4TgGOr,NA,NA,Cb4TgGOr,2020-0188,2021-11-11,20:07:07,22:02:16,NA,incomplete,true,true,NA,0,12,E20_Q6_ansR.png,right,NA,NA,NA,left,876.000000000233,false,NA,NA,NA,NA,NA
Cb4TgGOr,NA,NA,Cb4TgGOr,2020-0188,2021-11-11,20:07:07,22:02:16,NA,incomplete,true,true,NA,0,13,E20_Q1_ansL.png,left,NA,NA,NA,left,2698,true,NA,NA,NA,NA,NA
Cb4TgGOr,NA,NA,Cb4TgGOr,2020-0188,2021-11-11,20:07:07,22:02:16,NA,incomplete,true,true,NA,0,14,E20_Q7_ansL.png,left,NA,NA,NA,left,1594,true,NA,NA,NA,NA,NA
Cb4TgGOr,NA,NA,Cb4TgGOr,2020-0188,2021-11-11,20:07:07,22:02:16,NA,incomplete,true,true,NA,0,15,E20_Q2_ansL.png,left,NA,NA,NA,left,1362,true,NA,NA,NA,NA,NA
Cb4TgGOr,NA,NA,Cb4TgGOr,2020-0188,2021-11-11,20:07:07,22:02:16,NA,incomplete,true,true,NA,0,16,E20_Q5_ansR.png,right,NA,NA,NA,right,1506,true,NA,NA,NA,NA,NA
Cb4TgGOr,NA,NA,Cb4TgGOr,2020-0188,2021-11-11,20:07:07,22:02:16,NA,incomplete,true,true,NA,0,17,E20_Q10_ansL.png,left,NA,NA,NA,left,1842,true,NA,NA,NA,NA,NA
Cb4TgGOr,NA,NA,Cb4TgGOr,2020-0188,2021-11-11,20:07:07,22:02:16,NA,incomplete,true,true,NA,0,18,E20_Q4_ansR.png,right,NA,NA,NA,right,2242,true,NA,NA,NA,NA,NA
Cb4TgGOr,NA,NA,Cb4TgGOr,2020-0188,2021-11-11,20:07:07,22:02:16,NA,incomplete,true,true,NA,0,19,E20_Q8_ansL.png,left,NA,NA,NA,left,1229,true,NA,NA,NA,NA,NA
Cb4TgGOr,NA,NA,Cb4TgGOr,2020-0188,2021-11-11,20:07:07,22:02:16,NA,incomplete,true,true,NA,0,20,E23_Q3_ansR.png,right,NA,NA,NA,right,1336,true,NA,NA,NA,NA,NA
Cb4TgGOr,NA,NA,Cb4TgGOr,2020-0188,2021-11-11,20:07:07,22:02:16,NA,incomplete,true,true,NA,0,21,E23_Q5_ansR.png,right,NA,NA,NA,right,1021,true,NA,NA,NA,NA,NA
Cb4TgGOr,NA,NA,Cb4TgGOr,2020-0188,2021-11-11,20:07:07,22:02:16,NA,incomplete,true,true,NA,0,22,E23_Q9_ansR.png,right,NA,NA,NA,right,1173,true,NA,NA,NA,NA,NA
Cb4TgGOr,NA,NA,Cb4TgGOr,2020-0188,2021-11-11,20:07:07,22:02:16,NA,incomplete,true,true,NA,0,23,E23_Q6_ansR.png,right,NA,NA,NA,right,1449,true,NA,NA,NA,NA,NA
Cb4TgGOr,NA,NA,Cb4TgGOr,2020-0188,2021-11-11,20:07:07,22:02:16,NA,incomplete,true,true,NA,0,24,E23_Q1_ansL.png,left,NA,NA,NA,left,962.000000000233,true,NA,NA,NA,NA,NA
Cb4TgGOr,NA,NA,Cb4TgGOr,2020-0188,2021-11-11,20:07:07,22:02:16,NA,incomplete,true,true,NA,0,25,E23_Q2_ansL.png,left,NA,NA,NA,left,812,true,NA,NA,NA,NA,NA
Cb4TgGOr,NA,NA,Cb4TgGOr,2020-0188,2021-11-11,20:07:07,22:02:16,NA,incomplete,true,true,NA,0,26,E23_Q7_ansL.png,left,NA,NA,NA,left,1058,true,NA,NA,NA,NA,NA
Cb4TgGOr,NA,NA,Cb4TgGOr,2020-0188,2021-11-11,20:07:07,22:02:16,NA,incomplete,true,true,NA,0,27,E23_Q10_ansL.png,left,NA,NA,NA,left,1043.00000000023,true,NA,NA,NA,NA,NA
Cb4TgGOr,NA,NA,Cb4TgGOr,2020-0188,2021-11-11,20:07:07,22:02:16,NA,incomplete,true,true,NA,0,28,E23_Q4_ansR.png,right,NA,NA,NA,right,1263,true,NA,NA,NA,NA,NA
Cb4TgGOr,NA,NA,Cb4TgGOr,2020-0188,2021-11-11,20:07:07,22:02:16,NA,incomplete,true,true,NA,0,29,E23_Q8_ansL.png,left,NA,NA,NA,left,855.000000000233,true,NA,NA,NA,NA,NA
Cb4TgGOr,NA,NA,Cb4TgGOr,2020-0188,2021-11-11,20:07:07,22:02:16,NA,incomplete,true,NA,true,0,0,NA,left,E22_Q8_ansR.png,E20_Q6_ansR.png,between,NA,NaN,NA,left,2331,1,3,5205.000000000233
Cb4TgGOr,NA,NA,Cb4TgGOr,2020-0188,2021-11-11,20:07:07,22:02:16,NA,incomplete,true,NA,true,0,1,NA,left,E23_Q6_ansR.png,E23_Q7_ansL.png,within,NA,NaN,NA,left,7550,1,0,4298
Cb4TgGOr,NA,NA,Cb4TgGOr,2020-0188,2021-11-11,20:07:07,22:02:16,NA,incomplete,true,NA,true,0,2,NA,right,E23_Q4_ansR.png,E23_Q2_ansL.png,within,NA,NaN,NA,right,3732.999999999767,1,1,3332
Cb4TgGOr,NA,NA,Cb4TgGOr,2020-0188,2021-11-11,20:07:07,22:02:16,NA,incomplete,true,NA,true,0,3,NA,right,E20_Q10_ansL.png,E20_Q7_ansL.png,within,NA,NaN,NA,left,9544.000000000233,0,1,876
Cb4TgGOr,NA,NA,Cb4TgGOr,2020-0188,2021-11-11,20:07:07,22:02:16,NA,incomplete,true,NA,true,0,4,NA,right,E20_Q3_ansR.png,E22_Q3_ansL.png,between,NA,NaN,NA,right,2243,1,2,1212
Cb4TgGOr,NA,NA,Cb4TgGOr,2020-0188,2021-11-11,20:07:07,22:02:16,NA,incomplete,true,NA,true,0,5,NA,right,E20_Q9_ansR.png,E22_Q4_ansL.png,between,NA,NaN,NA,right,2871,1,2,4257
Cb4TgGOr,NA,NA,Cb4TgGOr,2020-0188,2021-11-11,20:07:07,22:02:16,NA,incomplete,true,NA,true,0,6,NA,right,E22_Q9_ansL.png,E22_Q2_ansR.png,within,NA,NaN,NA,right,3074,1,0,2816
Cb4TgGOr,NA,NA,Cb4TgGOr,2020-0188,2021-11-11,20:07:07,22:02:16,NA,incomplete,true,NA,true,0,7,NA,left,E22_Q10_ansR.png,E22_Q8_ansR.png,within,NA,NaN,NA,right,1544,0,1,1520
Cb4TgGOr,NA,NA,Cb4TgGOr,2020-0188,2021-11-11,20:07:07,22:02:16,NA,incomplete,true,NA,true,0,8,NA,right,E20_Q7_ansL.png,E20_Q3_ansR.png,within,NA,NaN,NA,right,1801,1,1,1616
Cb4TgGOr,NA,NA,Cb4TgGOr,2020-0188,2021-11-11,20:07:07,22:02:16,NA,incomplete,true,NA,true,0,9,NA,left,E20_Q1_ansL.png,E20_Q5_ansR.png,within,NA,NaN,NA,left,1617,1,1,2284.000000000233
Cb4TgGOr,NA,NA,Cb4TgGOr,2020-0188,2021-11-11,20:07:07,22:02:16,NA,incomplete,true,NA,true,0,10,NA,left,E23_Q9_ansR.png,E23_Q2_ansL.png,within,NA,NaN,NA,left,1914,1,1,2035.0000000002328
Cb4TgGOr,NA,NA,Cb4TgGOr,2020-0188,2021-11-11,20:07:07,22:02:16,NA,incomplete,true,NA,true,0,11,NA,left,E20_Q4_ansR.png,E23_Q5_ansR.png,between,NA,NaN,NA,left,1914,1,2,4024
Cb4TgGOr,NA,NA,Cb4TgGOr,2020-0188,2021-11-11,20:07:07,22:02:16,NA,incomplete,true,NA,true,0,12,NA,left,E22_Q7_ansR.png,E22_Q6_ansL.png,within,NA,NaN,NA,right,1867,0,1,4274
Cb4TgGOr,NA,NA,Cb4TgGOr,2020-0188,2021-11-11,20:07:07,22:02:16,NA,incomplete,true,NA,true,0,13,NA,right,E23_Q8_ansL.png,E23_Q7_ansL.png,within,NA,NaN,NA,left,2886,0,1,2116.999999999767
Cb4TgGOr,NA,NA,Cb4TgGOr,2020-0188,2021-11-11,20:07:07,22:02:16,NA,incomplete,true,NA,true,0,14,NA,right,E22_Q10_ansR.png,E22_Q5_ansL.png,within,NA,NaN,NA,right,2373,1,1,1632.0000000002328
Cb4TgGOr,NA,NA,Cb4TgGOr,2020-0188,2021-11-11,20:07:07,22:02:16,NA,incomplete,true,NA,true,0,15,NA,right,E20_Q1_ansL.png,E20_Q9_ansR.png,within,NA,NaN,NA,right,1383,1,1,1777
Cb4TgGOr,NA,NA,Cb4TgGOr,2020-0188,2021-11-11,20:07:07,22:02:16,NA,incomplete,true,NA,true,0,16,NA,right,E22_Q3_ansL.png,E22_Q9_ansL.png,within,NA,NaN,NA,right,1549.0000000002328,1,1,1150
Cb4TgGOr,NA,NA,Cb4TgGOr,2020-0188,2021-11-11,20:07:07,22:02:16,NA,incomplete,true,NA,true,0,17,NA,left,E20_Q10_ansL.png,E23_Q3_ansR.png,between,NA,NaN,NA,left,1576,1,2,1037
Cb4TgGOr,NA,NA,Cb4TgGOr,2020-0188,2021-11-11,20:07:07,22:02:16,NA,incomplete,true,NA,true,0,18,NA,right,E20_Q4_ansR.png,E20_Q2_ansL.png,within,NA,NaN,NA,right,2743.999999999767,1,1,2645
Cb4TgGOr,NA,NA,Cb4TgGOr,2020-0188,2021-11-11,20:07:07,22:02:16,NA,incomplete,true,NA,true,0,19,NA,right,E20_Q8_ansL.png,E20_Q5_ansR.png,within,NA,NaN,NA,left,4988,0,1,1157
Cb4TgGOr,NA,NA,Cb4TgGOr,2020-0188,2021-11-11,20:07:07,22:02:16,NA,incomplete,true,NA,true,0,20,NA,right,E23_Q10_ansL.png,E23_Q1_ansL.png,within,NA,NaN,NA,right,1536,1,1,1463
Cb4TgGOr,NA,NA,Cb4TgGOr,2020-0188,2021-11-11,20:07:07,22:02:16,NA,incomplete,true,NA,true,0,21,NA,right,E22_Q4_ansL.png,E22_Q6_ansL.png,within,NA,NaN,NA,right,1422,1,1,1867
Cb4TgGOr,NA,NA,Cb4TgGOr,2020-0188,2021-11-11,20:07:07,22:02:16,NA,incomplete,true,NA,true,0,22,NA,left,E20_Q6_ansR.png,E20_Q2_ansL.png,within,NA,NaN,NA,right,1536,0,1,3779
Cb4TgGOr,NA,NA,Cb4TgGOr,2020-0188,2021-11-11,20:07:07,22:02:16,NA,incomplete,true,NA,true,0,23,NA,right,E22_Q5_ansL.png,E22_Q1_ansR.png,within,NA,NaN,NA,right,2532.999999999767,1,1,13160.000000000233
Cb4TgGOr,NA,NA,Cb4TgGOr,2020-0188,2021-11-11,20:07:07,22:02:16,NA,incomplete,true,NA,true,0,24,NA,left,E20_Q8_ansL.png,E23_Q9_ansR.png,between,NA,NaN,NA,left,1422,1,2,3203.000000000233
Cb4TgGOr,NA,NA,Cb4TgGOr,2020-0188,2021-11-11,20:07:07,22:02:16,NA,incomplete,true,NA,true,0,25,NA,left,E23_Q5_ansR.png,E23_Q1_ansL.png,within,NA,NaN,NA,left,5384,1,1,1993
Cb4TgGOr,NA,NA,Cb4TgGOr,2020-0188,2021-11-11,20:07:07,22:02:16,NA,incomplete,true,NA,true,0,26,NA,left,E23_Q3_ansR.png,E23_Q6_ansR.png,within,NA,NaN,NA,left,17848,1,1,1035
Cb4TgGOr,NA,NA,Cb4TgGOr,2020-0188,2021-11-11,20:07:07,22:02:16,NA,incomplete,false,true,NA,1,0,E9_Q10_ansR.png,right,NA,NA,NA,right,2284,true,NA,NA,NA,NA,NA
Cb4TgGOr,NA,NA,Cb4TgGOr,2020-0188,2021-11-11,20:07:07,22:02:16,NA,incomplete,false,true,NA,1,1,E9_Q5_ansL.png,left,NA,NA,NA,left,1502,true,NA,NA,NA,NA,NA
Cb4TgGOr,NA,NA,Cb4TgGOr,2020-0188,2021-11-11,20:07:07,22:02:16,NA,incomplete,false,true,NA,1,2,E9_Q2_ansR.png,right,NA,NA,NA,right,1025,true,NA,NA,NA,NA,NA
Cb4TgGOr,NA,NA,Cb4TgGOr,2020-0188,2021-11-11,20:07:07,22:02:16,NA,incomplete,false,true,NA,1,3,E9_Q3_ansL.png,left,NA,NA,NA,left,1881,true,NA,NA,NA,NA,NA
Cb4TgGOr,NA,NA,Cb4TgGOr,2020-0188,2021-11-11,20:07:07,22:02:16,NA,incomplete,false,true,NA,1,4,E9_Q4_ansL.png,left,NA,NA,NA,left,1191,true,NA,NA,NA,NA,NA
Cb4TgGOr,NA,NA,Cb4TgGOr,2020-0188,2021-11-11,20:07:07,22:02:16,NA,incomplete,false,true,NA,1,5,E9_Q9_ansL.png,left,NA,NA,NA,left,1510,true,NA,NA,NA,NA,NA
Cb4TgGOr,NA,NA,Cb4TgGOr,2020-0188,2021-11-11,20:07:07,22:02:16,NA,incomplete,false,true,NA,1,6,E9_Q6_ansL.png,left,NA,NA,NA,left,1501,true,NA,NA,NA,NA,NA
Cb4TgGOr,NA,NA,Cb4TgGOr,2020-0188,2021-11-11,20:07:07,22:02:16,NA,incomplete,false,true,NA,1,7,E9_Q7_ansR.png,right,NA,NA,NA,right,1823,true,NA,NA,NA,NA,NA
Cb4TgGOr,NA,NA,Cb4TgGOr,2020-0188,2021-11-11,20:07:07,22:02:16,NA,incomplete,false,true,NA,1,8,E9_Q1_ansR.png,right,NA,NA,NA,right,3079,true,NA,NA,NA,NA,NA
Cb4TgGOr,NA,NA,Cb4TgGOr,2020-0188,2021-11-11,20:07:07,22:02:16,NA,incomplete,false,true,NA,1,9,E9_Q8_ansR.png,right,NA,NA,NA,right,1093,true,NA,NA,NA,NA,NA
Cb4TgGOr,NA,NA,Cb4TgGOr,2020-0188,2021-11-11,20:07:07,22:02:16,NA,incomplete,false,true,NA,1,10,E31_Q7_ansR.png,right,NA,NA,NA,right,1937,true,NA,NA,NA,NA,NA
Cb4TgGOr,NA,NA,Cb4TgGOr,2020-0188,2021-11-11,20:07:07,22:02:16,NA,incomplete,false,true,NA,1,11,E31_Q9_ansL.png,left,NA,NA,NA,left,2571,true,NA,NA,NA,NA,NA
Cb4TgGOr,NA,NA,Cb4TgGOr,2020-0188,2021-11-11,20:07:07,22:02:16,NA,incomplete,false,true,NA,1,12,E31_Q8_ansR.png,right,NA,NA,NA,right,644.999999999767,true,NA,NA,NA,NA,NA
Cb4TgGOr,NA,NA,Cb4TgGOr,2020-0188,2021-11-11,20:07:07,22:02:16,NA,incomplete,false,true,NA,1,13,E31_Q1_ansR.png,right,NA,NA,NA,right,1182,true,NA,NA,NA,NA,NA
Cb4TgGOr,NA,NA,Cb4TgGOr,2020-0188,2021-11-11,20:07:07,22:02:16,NA,incomplete,false,true,NA,1,14,E31_Q10_ansR.png,right,NA,NA,NA,right,1198,true,NA,NA,NA,NA,NA
Cb4TgGOr,NA,NA,Cb4TgGOr,2020-0188,2021-11-11,20:07:07,22:02:16,NA,incomplete,false,true,NA,1,15,E31_Q5_ansL.png,left,NA,NA,NA,left,1200.99999999977,true,NA,NA,NA,NA,NA
Cb4TgGOr,NA,NA,Cb4TgGOr,2020-0188,2021-11-11,20:07:07,22:02:16,NA,incomplete,false,true,NA,1,16,E31_Q3_ansL.png,left,NA,NA,NA,left,2093.99999999977,true,NA,NA,NA,NA,NA
Cb4TgGOr,NA,NA,Cb4TgGOr,2020-0188,2021-11-11,20:07:07,22:02:16,NA,incomplete,false,true,NA,1,17,E31_Q6_ansL.png,left,NA,NA,NA,right,948,false,NA,NA,NA,NA,NA
Cb4TgGOr,NA,NA,Cb4TgGOr,2020-0188,2021-11-11,20:07:07,22:02:16,NA,incomplete,false,true,NA,1,18,E31_Q4_ansL.png,left,NA,NA,NA,left,1210,true,NA,NA,NA,NA,NA
Cb4TgGOr,NA,NA,Cb4TgGOr,2020-0188,2021-11-11,20:07:07,22:02:16,NA,incomplete,false,true,NA,1,19,E31_Q2_ansR.png,right,NA,NA,NA,right,1039,true,NA,NA,NA,NA,NA
Cb4TgGOr,NA,NA,Cb4TgGOr,2020-0188,2021-11-11,20:07:07,22:02:16,NA,incomplete,false,true,NA,1,20,E24_Q2_ansR.png,right,NA,NA,NA,right,2370,true,NA,NA,NA,NA,NA
Cb4TgGOr,NA,NA,Cb4TgGOr,2020-0188,2021-11-11,20:07:07,22:02:16,NA,incomplete,false,true,NA,1,21,E24_Q8_ansR.png,right,NA,NA,NA,right,1218,true,NA,NA,NA,NA,NA
Cb4TgGOr,NA,NA,Cb4TgGOr,2020-0188,2021-11-11,20:07:07,22:02:16,NA,incomplete,false,true,NA,1,22,E24_Q6_ansL.png,left,NA,NA,NA,left,1235,true,NA,NA,NA,NA,NA
Cb4TgGOr,NA,NA,Cb4TgGOr,2020-0188,2021-11-11,20:07:07,22:02:16,NA,incomplete,false,true,NA,1,23,E24_Q1_ansR.png,right,NA,NA,NA,right,1466,true,NA,NA,NA,NA,NA
Cb4TgGOr,NA,NA,Cb4TgGOr,2020-0188,2021-11-11,20:07:07,22:02:16,NA,incomplete,false,true,NA,1,24,E24_Q9_ansL.png,left,NA,NA,NA,left,1589,true,NA,NA,NA,NA,NA
Cb4TgGOr,NA,NA,Cb4TgGOr,2020-0188,2021-11-11,20:07:07,22:02:16,NA,incomplete,false,true,NA,1,25,E24_Q7_ansR.png,right,NA,NA,NA,right,869,true,NA,NA,NA,NA,NA
Cb4TgGOr,NA,NA,Cb4TgGOr,2020-0188,2021-11-11,20:07:07,22:02:16,NA,incomplete,false,true,NA,1,26,E24_Q4_ansL.png,left,NA,NA,NA,left,1349,true,NA,NA,NA,NA,NA
Cb4TgGOr,NA,NA,Cb4TgGOr,2020-0188,2021-11-11,20:07:07,22:02:16,NA,incomplete,false,true,NA,1,27,E24_Q3_ansL.png,left,NA,NA,NA,left,1105,true,NA,NA,NA,NA,NA
Cb4TgGOr,NA,NA,Cb4TgGOr,2020-0188,2021-11-11,20:07:07,22:02:16,NA,incomplete,false,true,NA,1,28,E24_Q5_ansL.png,left,NA,NA,NA,left,1459.00000000023,true,NA,NA,NA,NA,NA
Cb4TgGOr,NA,NA,Cb4TgGOr,2020-0188,2021-11-11,20:07:07,22:02:16,NA,incomplete,false,true,NA,1,29,E24_Q10_ansR.png,right,NA,NA,NA,right,1198,true,NA,NA,NA,NA,NA
Cb4TgGOr,NA,NA,Cb4TgGOr,2020-0188,2021-11-11,20:07:07,22:02:16,NA,incomplete,false,NA,true,1,0,NA,left,E24_Q7_ansR.png,E24_Q5_ansL.png,within,NA,NaN,NA,right,2639,0,0,1763
Cb4TgGOr,NA,NA,Cb4TgGOr,2020-0188,2021-11-11,20:07:07,22:02:16,NA,incomplete,false,NA,true,1,1,NA,right,E24_Q10_ansR.png,E24_Q4_ansL.png,within,NA,NaN,NA,right,1582.9999999997672,1,1,813
Cb4TgGOr,NA,NA,Cb4TgGOr,2020-0188,2021-11-11,20:07:07,22:02:16,NA,incomplete,false,NA,true,1,2,NA,left,E31_Q9_ansL.png,E31_Q10_ansR.png,within,NA,NaN,NA,right,2164.999999999767,0,0,4460.999999999767
Cb4TgGOr,NA,NA,Cb4TgGOr,2020-0188,2021-11-11,20:07:07,22:02:16,NA,incomplete,false,NA,true,1,3,NA,right,E31_Q2_ansR.png,E31_Q3_ansL.png,within,NA,NaN,NA,right,1885,1,0,5087
Cb4TgGOr,NA,NA,Cb4TgGOr,2020-0188,2021-11-11,20:07:07,22:02:16,NA,incomplete,false,NA,true,1,4,NA,left,E31_Q7_ansR.png,E31_Q1_ansR.png,within,NA,NaN,NA,left,1640,1,0,3195.000000000233
Cb4TgGOr,NA,NA,Cb4TgGOr,2020-0188,2021-11-11,20:07:07,22:02:16,NA,incomplete,false,NA,true,1,5,NA,right,E9_Q6_ansL.png,E9_Q3_ansL.png,within,NA,NaN,NA,left,2476.000000000233,0,1,1085
Cb4TgGOr,NA,NA,Cb4TgGOr,2020-0188,2021-11-11,20:07:07,22:02:16,NA,incomplete,false,NA,true,1,6,NA,right,E24_Q4_ansL.png,E24_Q1_ansR.png,within,NA,NaN,NA,left,1915,0,0,1611
Cb4TgGOr,NA,NA,Cb4TgGOr,2020-0188,2021-11-11,20:07:07,22:02:16,NA,incomplete,false,NA,true,1,7,NA,right,E24_Q3_ansL.png,E24_Q9_ansL.png,within,NA,NaN,NA,right,2397,1,0,1754
Cb4TgGOr,NA,NA,Cb4TgGOr,2020-0188,2021-11-11,20:07:07,22:02:16,NA,incomplete,false,NA,true,1,8,NA,right,E9_Q8_ansR.png,E9_Q6_ansL.png,within,NA,NaN,NA,left,2582,0,0,2049.999999999767
Cb4TgGOr,NA,NA,Cb4TgGOr,2020-0188,2021-11-11,20:07:07,22:02:16,NA,incomplete,false,NA,true,1,9,NA,left,E9_Q4_ansL.png,E9_Q7_ansR.png,within,NA,NaN,NA,left,5883,1,1,3573.000000000233
Cb4TgGOr,NA,NA,Cb4TgGOr,2020-0188,2021-11-11,20:07:07,22:02:16,NA,incomplete,false,NA,true,1,10,NA,right,E9_Q3_ansL.png,E9_Q10_ansR.png,within,NA,NaN,NA,right,7314,1,0,4956.999999999767
Cb4TgGOr,NA,NA,Cb4TgGOr,2020-0188,2021-11-11,20:07:07,22:02:16,NA,incomplete,false,NA,true,1,11,NA,left,E9_Q9_ansL.png,E9_Q1_ansR.png,within,NA,NaN,NA,left,2823.000000000233,1,1,851
Cb4TgGOr,NA,NA,Cb4TgGOr,2020-0188,2021-11-11,20:07:07,22:02:16,NA,incomplete,false,NA,true,1,12,NA,left,E31_Q4_ansL.png,E24_Q8_ansR.png,between,NA,NaN,NA,left,1867,1,2,1697
Cb4TgGOr,NA,NA,Cb4TgGOr,2020-0188,2021-11-11,20:07:07,22:02:16,NA,incomplete,false,NA,true,1,13,NA,right,E24_Q6_ansL.png,E31_Q2_ansR.png,between,NA,NaN,NA,right,1443.9999999997672,1,2,1085.9999999997672
Cb4TgGOr,NA,NA,Cb4TgGOr,2020-0188,2021-11-11,20:07:07,22:02:16,NA,incomplete,false,NA,true,1,14,NA,right,E24_Q2_ansR.png,E31_Q6_ansL.png,between,NA,NaN,NA,right,1705.0000000004657,1,2,1978
Cb4TgGOr,NA,NA,Cb4TgGOr,2020-0188,2021-11-11,20:07:07,22:02:16,NA,incomplete,false,NA,true,1,15,NA,left,E31_Q5_ansL.png,E31_Q4_ansL.png,within,NA,NaN,NA,right,1639.9999999997672,0,1,1463
Cb4TgGOr,NA,NA,Cb4TgGOr,2020-0188,2021-11-11,20:07:07,22:02:16,NA,incomplete,false,NA,true,1,16,NA,left,E9_Q8_ansR.png,E31_Q8_ansR.png,between,NA,NaN,NA,left,1823.0000000002328,1,2,5819
Cb4TgGOr,NA,NA,Cb4TgGOr,2020-0188,2021-11-11,20:07:07,22:02:16,NA,incomplete,false,NA,true,1,17,NA,left,E9_Q1_ansR.png,E31_Q9_ansL.png,between,NA,NaN,NA,left,5495,1,2,1686.9999999997672
Cb4TgGOr,NA,NA,Cb4TgGOr,2020-0188,2021-11-11,20:07:07,22:02:16,NA,incomplete,false,NA,true,1,18,NA,left,E24_Q6_ansL.png,E24_Q7_ansR.png,within,NA,NaN,NA,left,1607,1,0,3514.999999999767
Cb4TgGOr,NA,NA,Cb4TgGOr,2020-0188,2021-11-11,20:07:07,22:02:16,NA,incomplete,false,NA,true,1,19,NA,left,E31_Q8_ansR.png,E31_Q5_ansL.png,within,NA,NaN,NA,left,1656.9999999997672,1,1,3306
Cb4TgGOr,NA,NA,Cb4TgGOr,2020-0188,2021-11-11,20:07:07,22:02:16,NA,incomplete,false,NA,true,1,20,NA,left,E24_Q8_ansR.png,E24_Q9_ansL.png,within,NA,NaN,NA,left,10469,1,0,1825
Cb4TgGOr,NA,NA,Cb4TgGOr,2020-0188,2021-11-11,20:07:07,22:02:16,NA,incomplete,false,NA,true,1,21,NA,left,E9_Q2_ansR.png,E9_Q9_ansL.png,within,NA,NaN,NA,left,3643,1,0,1625
Cb4TgGOr,NA,NA,Cb4TgGOr,2020-0188,2021-11-11,20:07:07,22:02:16,NA,incomplete,false,NA,true,1,22,NA,right,E31_Q7_ansR.png,E9_Q7_ansR.png,between,NA,NaN,NA,right,1993,1,2,2567
Cb4TgGOr,NA,NA,Cb4TgGOr,2020-0188,2021-11-11,20:07:07,22:02:16,NA,incomplete,false,NA,true,1,23,NA,left,E9_Q5_ansL.png,E9_Q4_ansL.png,within,NA,NaN,NA,left,2027,1,1,1311
Cb4TgGOr,NA,NA,Cb4TgGOr,2020-0188,2021-11-11,20:07:07,22:02:16,NA,incomplete,false,NA,true,1,24,NA,left,E31_Q1_ansR.png,E31_Q3_ansL.png,within,NA,NaN,NA,left,1140,1,0,2584
Cb4TgGOr,NA,NA,Cb4TgGOr,2020-0188,2021-11-11,20:07:07,22:02:16,NA,incomplete,false,NA,true,1,25,NA,left,E24_Q2_ansR.png,E24_Q1_ansR.png,within,NA,NaN,NA,left,4956,1,0,2468
Cb4TgGOr,NA,NA,Cb4TgGOr,2020-0188,2021-11-11,20:07:07,22:02:16,NA,incomplete,false,NA,true,1,26,NA,right,E31_Q6_ansL.png,E31_Q10_ansR.png,within,NA,NaN,NA,left,5157,0,0,11462
Cb4TgGOr,NA,NA,Cb4TgGOr,2020-0188,2021-11-11,20:07:07,22:02:16,NA,incomplete,false,true,NA,2,0,E2_Q1_ansL.png,left,NA,NA,NA,left,2481,true,NA,NA,NA,NA,NA
Cb4TgGOr,NA,NA,Cb4TgGOr,2020-0188,2021-11-11,20:07:07,22:02:16,NA,incomplete,false,true,NA,2,1,E2_Q3_ansR.png,right,NA,NA,NA,right,1902,true,NA,NA,NA,NA,NA
Cb4TgGOr,NA,NA,Cb4TgGOr,2020-0188,2021-11-11,20:07:07,22:02:16,NA,incomplete,false,true,NA,2,2,E2_Q8_ansR.png,right,NA,NA,NA,right,1293,true,NA,NA,NA,NA,NA
Cb4TgGOr,NA,NA,Cb4TgGOr,2020-0188,2021-11-11,20:07:07,22:02:16,NA,incomplete,false,true,NA,2,3,E2_Q7_ansR.png,right,NA,NA,NA,right,2477,true,NA,NA,NA,NA,NA
Cb4TgGOr,NA,NA,Cb4TgGOr,2020-0188,2021-11-11,20:07:07,22:02:16,NA,incomplete,false,true,NA,2,4,E2_Q5_ansL.png,left,NA,NA,NA,left,1227.00000000047,true,NA,NA,NA,NA,NA
Cb4TgGOr,NA,NA,Cb4TgGOr,2020-0188,2021-11-11,20:07:07,22:02:16,NA,incomplete,false,true,NA,2,5,E2_Q9_ansL.png,left,NA,NA,NA,left,2276,true,NA,NA,NA,NA,NA
Cb4TgGOr,NA,NA,Cb4TgGOr,2020-0188,2021-11-11,20:07:07,22:02:16,NA,incomplete,false,true,NA,2,6,E2_Q4_ansL.png,left,NA,NA,NA,left,1595.00000000047,true,NA,NA,NA,NA,NA
Cb4TgGOr,NA,NA,Cb4TgGOr,2020-0188,2021-11-11,20:07:07,22:02:16,NA,incomplete,false,true,NA,2,7,E2_Q6_ansL.png,left,NA,NA,NA,left,1811,true,NA,NA,NA,NA,NA
Cb4TgGOr,NA,NA,Cb4TgGOr,2020-0188,2021-11-11,20:07:07,22:02:16,NA,incomplete,false,true,NA,2,8,E2_Q2_ansR.png,right,NA,NA,NA,left,1874,false,NA,NA,NA,NA,NA
Cb4TgGOr,NA,NA,Cb4TgGOr,2020-0188,2021-11-11,20:07:07,22:02:16,NA,incomplete,false,true,NA,2,9,E2_Q10_ansL.png,left,NA,NA,NA,left,1153,true,NA,NA,NA,NA,NA
Cb4TgGOr,NA,NA,Cb4TgGOr,2020-0188,2021-11-11,20:07:07,22:02:16,NA,incomplete,false,true,NA,2,10,E4_Q4_ansL.png,left,NA,NA,NA,left,3302.00000000047,true,NA,NA,NA,NA,NA
Cb4TgGOr,NA,NA,Cb4TgGOr,2020-0188,2021-11-11,20:07:07,22:02:16,NA,incomplete,false,true,NA,2,11,E4_Q9_ansL.png,left,NA,NA,NA,left,1528,true,NA,NA,NA,NA,NA
Cb4TgGOr,NA,NA,Cb4TgGOr,2020-0188,2021-11-11,20:07:07,22:02:16,NA,incomplete,false,true,NA,2,12,E4_Q5_ansR.png,right,NA,NA,NA,right,1878,true,NA,NA,NA,NA,NA
Cb4TgGOr,NA,NA,Cb4TgGOr,2020-0188,2021-11-11,20:07:07,22:02:16,NA,incomplete,false,true,NA,2,13,E4_Q6_ansR.png,right,NA,NA,NA,right,1748,true,NA,NA,NA,NA,NA
Cb4TgGOr,NA,NA,Cb4TgGOr,2020-0188,2021-11-11,20:07:07,22:02:16,NA,incomplete,false,true,NA,2,14,E4_Q1_ansL.png,left,NA,NA,NA,left,1377,true,NA,NA,NA,NA,NA
Cb4TgGOr,NA,NA,Cb4TgGOr,2020-0188,2021-11-11,20:07:07,22:02:16,NA,incomplete,false,true,NA,2,15,E4_Q10_ansR.png,right,NA,NA,NA,right,1828,true,NA,NA,NA,NA,NA
Cb4TgGOr,NA,NA,Cb4TgGOr,2020-0188,2021-11-11,20:07:07,22:02:16,NA,incomplete,false,true,NA,2,16,E4_Q8_ansR.png,right,NA,NA,NA,right,1774,true,NA,NA,NA,NA,NA
Cb4TgGOr,NA,NA,Cb4TgGOr,2020-0188,2021-11-11,20:07:07,22:02:16,NA,incomplete,false,true,NA,2,17,E4_Q2_ansL.png,left,NA,NA,NA,left,1881,true,NA,NA,NA,NA,NA
Cb4TgGOr,NA,NA,Cb4TgGOr,2020-0188,2021-11-11,20:07:07,22:02:16,NA,incomplete,false,true,NA,2,18,E4_Q3_ansL.png,left,NA,NA,NA,left,2587,true,NA,NA,NA,NA,NA
Cb4TgGOr,NA,NA,Cb4TgGOr,2020-0188,2021-11-11,20:07:07,22:02:16,NA,incomplete,false,true,NA,2,19,E4_Q7_ansR.png,right,NA,NA,NA,right,1501,true,NA,NA,NA,NA,NA
Cb4TgGOr,NA,NA,Cb4TgGOr,2020-0188,2021-11-11,20:07:07,22:02:16,NA,incomplete,false,true,NA,2,20,E27_Q10_ansL.png,left,NA,NA,NA,left,1610,true,NA,NA,NA,NA,NA
Cb4TgGOr,NA,NA,Cb4TgGOr,2020-0188,2021-11-11,20:07:07,22:02:16,NA,incomplete,false,true,NA,2,21,E27_Q6_ansR.png,right,NA,NA,NA,right,1051,true,NA,NA,NA,NA,NA
Cb4TgGOr,NA,NA,Cb4TgGOr,2020-0188,2021-11-11,20:07:07,22:02:16,NA,incomplete,false,true,NA,2,22,E27_Q3_ansR.png,right,NA,NA,NA,right,1130,true,NA,NA,NA,NA,NA
Cb4TgGOr,NA,NA,Cb4TgGOr,2020-0188,2021-11-11,20:07:07,22:02:16,NA,incomplete,false,true,NA,2,23,E27_Q2_ansL.png,left,NA,NA,NA,left,1000,true,NA,NA,NA,NA,NA
Cb4TgGOr,NA,NA,Cb4TgGOr,2020-0188,2021-11-11,20:07:07,22:02:16,NA,incomplete,false,true,NA,2,24,E27_Q9_ansR.png,right,NA,NA,NA,right,899,true,NA,NA,NA,NA,NA
Cb4TgGOr,NA,NA,Cb4TgGOr,2020-0188,2021-11-11,20:07:07,22:02:16,NA,incomplete,false,true,NA,2,25,E27_Q4_ansR.png,right,NA,NA,NA,right,963,true,NA,NA,NA,NA,NA
Cb4TgGOr,NA,NA,Cb4TgGOr,2020-0188,2021-11-11,20:07:07,22:02:16,NA,incomplete,false,true,NA,2,26,E27_Q5_ansR.png,right,NA,NA,NA,right,828,true,NA,NA,NA,NA,NA
Cb4TgGOr,NA,NA,Cb4TgGOr,2020-0188,2021-11-11,20:07:07,22:02:16,NA,incomplete,false,true,NA,2,27,E27_Q7_ansL.png,left,NA,NA,NA,left,1496,true,NA,NA,NA,NA,NA
Cb4TgGOr,NA,NA,Cb4TgGOr,2020-0188,2021-11-11,20:07:07,22:02:16,NA,incomplete,false,true,NA,2,28,E27_Q1_ansL.png,left,NA,NA,NA,left,1498,true,NA,NA,NA,NA,NA
Cb4TgGOr,NA,NA,Cb4TgGOr,2020-0188,2021-11-11,20:07:07,22:02:16,NA,incomplete,false,true,NA,2,29,E27_Q8_ansL.png,left,NA,NA,NA,left,891.000000000466,true,NA,NA,NA,NA,NA
Cb4TgGOr,NA,NA,Cb4TgGOr,2020-0188,2021-11-11,20:07:07,22:02:16,NA,incomplete,false,NA,true,2,0,NA,left,E2_Q6_ansL.png,E4_Q4_ansL.png,between,NA,NaN,NA,left,1477,1,2,3107
Cb4TgGOr,NA,NA,Cb4TgGOr,2020-0188,2021-11-11,20:07:07,22:02:16,NA,incomplete,false,NA,true,2,1,NA,right,E4_Q8_ansR.png,E4_Q6_ansR.png,within,NA,NaN,NA,right,2365,1,0,3389
Cb4TgGOr,NA,NA,Cb4TgGOr,2020-0188,2021-11-11,20:07:07,22:02:16,NA,incomplete,false,NA,true,2,2,NA,left,E4_Q1_ansL.png,E4_Q2_ansL.png,within,NA,NaN,NA,left,1534,1,0,1585
Cb4TgGOr,NA,NA,Cb4TgGOr,2020-0188,2021-11-11,20:07:07,22:02:16,NA,incomplete,false,NA,true,2,3,NA,right,E27_Q4_ansR.png,E27_Q3_ansR.png,within,NA,NaN,NA,left,1998,0,0,2285.9999999995343
Cb4TgGOr,NA,NA,Cb4TgGOr,2020-0188,2021-11-11,20:07:07,22:02:16,NA,incomplete,false,NA,true,2,4,NA,left,E4_Q3_ansL.png,E27_Q6_ansR.png,between,NA,NaN,NA,left,2428,1,2,1578
Cb4TgGOr,NA,NA,Cb4TgGOr,2020-0188,2021-11-11,20:07:07,22:02:16,NA,incomplete,false,NA,true,2,5,NA,left,E4_Q2_ansL.png,E27_Q10_ansL.png,between,NA,NaN,NA,left,2089.9999999995343,1,2,1005.9999999995343
Cb4TgGOr,NA,NA,Cb4TgGOr,2020-0188,2021-11-11,20:07:07,22:02:16,NA,incomplete,false,NA,true,2,6,NA,left,E2_Q4_ansL.png,E2_Q10_ansL.png,within,NA,NaN,NA,left,1479,1,0,2149
Cb4TgGOr,NA,NA,Cb4TgGOr,2020-0188,2021-11-11,20:07:07,22:02:16,NA,incomplete,false,NA,true,2,7,NA,right,E4_Q1_ansL.png,E4_Q9_ansL.png,within,NA,NaN,NA,right,2050,1,0,2040.9999999995343
Cb4TgGOr,NA,NA,Cb4TgGOr,2020-0188,2021-11-11,20:07:07,22:02:16,NA,incomplete,false,NA,true,2,8,NA,right,E4_Q3_ansL.png,E4_Q10_ansR.png,within,NA,NaN,NA,left,5447.999999999534,0,0,1536
Cb4TgGOr,NA,NA,Cb4TgGOr,2020-0188,2021-11-11,20:07:07,22:02:16,NA,incomplete,false,NA,true,2,9,NA,left,E27_Q9_ansR.png,E27_Q7_ansL.png,within,NA,NaN,NA,right,16496,0,0,8337
Cb4TgGOr,NA,NA,Cb4TgGOr,2020-0188,2021-11-11,20:07:07,22:02:16,NA,incomplete,false,NA,true,2,10,NA,right,E4_Q5_ansR.png,E2_Q10_ansL.png,between,NA,NaN,NA,right,3606,1,2,8119
Cb4TgGOr,NA,NA,Cb4TgGOr,2020-0188,2021-11-11,20:07:07,22:02:16,NA,incomplete,false,NA,true,2,11,NA,left,E4_Q4_ansL.png,E4_Q6_ansR.png,within,NA,NaN,NA,left,1856,1,1,3566
Cb4TgGOr,NA,NA,Cb4TgGOr,2020-0188,2021-11-11,20:07:07,22:02:16,NA,incomplete,false,NA,true,2,12,NA,left,E27_Q2_ansL.png,E27_Q5_ansR.png,within,NA,NaN,NA,right,2782,0,1,980
Cb4TgGOr,NA,NA,Cb4TgGOr,2020-0188,2021-11-11,20:07:07,22:02:16,NA,incomplete,false,NA,true,2,13,NA,right,E2_Q7_ansR.png,E2_Q1_ansL.png,within,NA,NaN,NA,right,2156,1,1,8575
Cb4TgGOr,NA,NA,Cb4TgGOr,2020-0188,2021-11-11,20:07:07,22:02:16,NA,incomplete,false,NA,true,2,14,NA,left,E2_Q2_ansR.png,E4_Q9_ansL.png,between,NA,NaN,NA,left,4384,1,2,4731
Cb4TgGOr,NA,NA,Cb4TgGOr,2020-0188,2021-11-11,20:07:07,22:02:16,NA,incomplete,false,NA,true,2,15,NA,left,E4_Q8_ansR.png,E4_Q7_ansR.png,within,NA,NaN,NA,left,3032.0000000004657,1,1,3259
Cb4TgGOr,NA,NA,Cb4TgGOr,2020-0188,2021-11-11,20:07:07,22:02:16,NA,incomplete,false,NA,true,2,16,NA,left,E2_Q7_ansR.png,E2_Q4_ansL.png,within,NA,NaN,NA,left,2066,1,0,1969
Cb4TgGOr,NA,NA,Cb4TgGOr,2020-0188,2021-11-11,20:07:07,22:02:16,NA,incomplete,false,NA,true,2,17,NA,right,E2_Q5_ansL.png,E2_Q3_ansR.png,within,NA,NaN,NA,right,1712,1,0,1778
Cb4TgGOr,NA,NA,Cb4TgGOr,2020-0188,2021-11-11,20:07:07,22:02:16,NA,incomplete,false,NA,true,2,18,NA,left,E2_Q8_ansR.png,E2_Q9_ansL.png,within,NA,NaN,NA,left,1825,1,0,3355.9999999995343
Cb4TgGOr,NA,NA,Cb4TgGOr,2020-0188,2021-11-11,20:07:07,22:02:16,NA,incomplete,false,NA,true,2,19,NA,right,E4_Q10_ansR.png,E4_Q5_ansR.png,within,NA,NaN,NA,right,3049,1,1,1199
Cb4TgGOr,NA,NA,Cb4TgGOr,2020-0188,2021-11-11,20:07:07,22:02:16,NA,incomplete,false,NA,true,2,20,NA,left,E27_Q5_ansR.png,E27_Q8_ansL.png,within,NA,NaN,NA,right,1713,0,1,1335
Cb4TgGOr,NA,NA,Cb4TgGOr,2020-0188,2021-11-11,20:07:07,22:02:16,NA,incomplete,false,NA,true,2,21,NA,right,E27_Q1_ansL.png,E27_Q4_ansR.png,within,NA,NaN,NA,right,1131.9999999995343,1,1,989
Cb4TgGOr,NA,NA,Cb4TgGOr,2020-0188,2021-11-11,20:07:07,22:02:16,NA,incomplete,false,NA,true,2,22,NA,right,E27_Q2_ansL.png,E27_Q10_ansL.png,within,NA,NaN,NA,right,3772,1,0,1414
Cb4TgGOr,NA,NA,Cb4TgGOr,2020-0188,2021-11-11,20:07:07,22:02:16,NA,incomplete,false,NA,true,2,23,NA,right,E27_Q9_ansR.png,E27_Q6_ansR.png,within,NA,NaN,NA,right,1197,1,0,2320
Cb4TgGOr,NA,NA,Cb4TgGOr,2020-0188,2021-11-11,20:07:07,22:02:16,NA,incomplete,false,NA,true,2,24,NA,left,E4_Q7_ansR.png,E27_Q3_ansR.png,between,NA,NaN,NA,left,1445,1,2,3476
Cb4TgGOr,NA,NA,Cb4TgGOr,2020-0188,2021-11-11,20:07:07,22:02:16,NA,incomplete,false,NA,true,2,25,NA,right,E2_Q2_ansR.png,E2_Q9_ansL.png,within,NA,NaN,NA,left,2945,0,1,1124
Cb4TgGOr,NA,NA,Cb4TgGOr,2020-0188,2021-11-11,20:07:07,22:02:16,NA,incomplete,false,NA,true,2,26,NA,right,E2_Q6_ansL.png,E2_Q5_ansL.png,within,NA,NaN,NA,left,1092,0,0,813
Cb4TgGOr,NA,NA,Cb4TgGOr,2020-0188,2021-11-11,20:07:07,22:02:16,NA,incomplete,false,true,NA,3,0,E1_Q6_ansR.png,right,NA,NA,NA,right,2126,true,NA,NA,NA,NA,NA
Cb4TgGOr,NA,NA,Cb4TgGOr,2020-0188,2021-11-11,20:07:07,22:02:16,NA,incomplete,false,true,NA,3,1,E1_Q9_ansL.png,left,NA,NA,NA,left,2231,true,NA,NA,NA,NA,NA
Cb4TgGOr,NA,NA,Cb4TgGOr,2020-0188,2021-11-11,20:07:07,22:02:16,NA,incomplete,false,true,NA,3,2,E1_Q5_ansR.png,right,NA,NA,NA,right,1779,true,NA,NA,NA,NA,NA
Cb4TgGOr,NA,NA,Cb4TgGOr,2020-0188,2021-11-11,20:07:07,22:02:16,NA,incomplete,false,true,NA,3,3,E1_Q3_ansR.png,right,NA,NA,NA,none,0,false,NA,NA,NA,NA,NA
Cb4TgGOr,NA,NA,Cb4TgGOr,2020-0188,2021-11-11,20:07:07,22:02:16,NA,incomplete,false,true,NA,3,4,E1_Q10_ansR.png,right,NA,NA,NA,right,1056,true,NA,NA,NA,NA,NA
Cb4TgGOr,NA,NA,Cb4TgGOr,2020-0188,2021-11-11,20:07:07,22:02:16,NA,incomplete,false,true,NA,3,5,E1_Q8_ansR.png,right,NA,NA,NA,right,1589,true,NA,NA,NA,NA,NA
Cb4TgGOr,NA,NA,Cb4TgGOr,2020-0188,2021-11-11,20:07:07,22:02:16,NA,incomplete,false,true,NA,3,6,E1_Q1_ansL.png,left,NA,NA,NA,left,1033,true,NA,NA,NA,NA,NA
Cb4TgGOr,NA,NA,Cb4TgGOr,2020-0188,2021-11-11,20:07:07,22:02:16,NA,incomplete,false,true,NA,3,7,E1_Q7_ansL.png,left,NA,NA,NA,left,1748,true,NA,NA,NA,NA,NA
Cb4TgGOr,NA,NA,Cb4TgGOr,2020-0188,2021-11-11,20:07:07,22:02:16,NA,incomplete,false,true,NA,3,8,E1_Q4_ansL.png,left,NA,NA,NA,left,958,true,NA,NA,NA,NA,NA
Cb4TgGOr,NA,NA,Cb4TgGOr,2020-0188,2021-11-11,20:07:07,22:02:16,NA,incomplete,false,true,NA,3,9,E1_Q2_ansL.png,left,NA,NA,NA,left,1457,true,NA,NA,NA,NA,NA
Cb4TgGOr,NA,NA,Cb4TgGOr,2020-0188,2021-11-11,20:07:07,22:02:16,NA,incomplete,false,true,NA,3,10,E10_Q9_ansL.png,left,NA,NA,NA,none,0,false,NA,NA,NA,NA,NA
Cb4TgGOr,NA,NA,Cb4TgGOr,2020-0188,2021-11-11,20:07:07,22:02:16,NA,incomplete,false,true,NA,3,11,E10_Q4_ansL.png,left,NA,NA,NA,right,1848,false,NA,NA,NA,NA,NA
Cb4TgGOr,NA,NA,Cb4TgGOr,2020-0188,2021-11-11,20:07:07,22:02:16,NA,incomplete,false,true,NA,3,12,E10_Q8_ansR.png,right,NA,NA,NA,none,0,false,NA,NA,NA,NA,NA
Cb4TgGOr,NA,NA,Cb4TgGOr,2020-0188,2021-11-11,20:07:07,22:02:16,NA,incomplete,false,true,NA,3,13,E10_Q1_ansL.png,left,NA,NA,NA,left,1547,true,NA,NA,NA,NA,NA
Cb4TgGOr,NA,NA,Cb4TgGOr,2020-0188,2021-11-11,20:07:07,22:02:16,NA,incomplete,false,true,NA,3,14,E10_Q5_ansR.png,right,NA,NA,NA,right,1937,true,NA,NA,NA,NA,NA
Cb4TgGOr,NA,NA,Cb4TgGOr,2020-0188,2021-11-11,20:07:07,22:02:16,NA,incomplete,false,true,NA,3,15,E10_Q6_ansR.png,right,NA,NA,NA,right,2268.00000000047,true,NA,NA,NA,NA,NA
Cb4TgGOr,NA,NA,Cb4TgGOr,2020-0188,2021-11-11,20:07:07,22:02:16,NA,incomplete,false,true,NA,3,16,E10_Q3_ansL.png,left,NA,NA,NA,left,3137,true,NA,NA,NA,NA,NA
Cb4TgGOr,NA,NA,Cb4TgGOr,2020-0188,2021-11-11,20:07:07,22:02:16,NA,incomplete,false,true,NA,3,17,E10_Q10_ansR.png,right,NA,NA,NA,right,3005,true,NA,NA,NA,NA,NA
Cb4TgGOr,NA,NA,Cb4TgGOr,2020-0188,2021-11-11,20:07:07,22:02:16,NA,incomplete,false,true,NA,3,18,E10_Q7_ansR.png,right,NA,NA,NA,right,2439,true,NA,NA,NA,NA,NA
Cb4TgGOr,NA,NA,Cb4TgGOr,2020-0188,2021-11-11,20:07:07,22:02:16,NA,incomplete,false,true,NA,3,19,E10_Q2_ansL.png,left,NA,NA,NA,left,2637,true,NA,NA,NA,NA,NA
Cb4TgGOr,NA,NA,Cb4TgGOr,2020-0188,2021-11-11,20:07:07,22:02:16,NA,incomplete,false,true,NA,3,20,E3_Q2_ansL.png,left,NA,NA,NA,left,2062,true,NA,NA,NA,NA,NA
Cb4TgGOr,NA,NA,Cb4TgGOr,2020-0188,2021-11-11,20:07:07,22:02:16,NA,incomplete,false,true,NA,3,21,E3_Q6_ansR.png,right,NA,NA,NA,right,1427,true,NA,NA,NA,NA,NA
Cb4TgGOr,NA,NA,Cb4TgGOr,2020-0188,2021-11-11,20:07:07,22:02:16,NA,incomplete,false,true,NA,3,22,E3_Q3_ansR.png,right,NA,NA,NA,right,1505,true,NA,NA,NA,NA,NA
Cb4TgGOr,NA,NA,Cb4TgGOr,2020-0188,2021-11-11,20:07:07,22:02:16,NA,incomplete,false,true,NA,3,23,E3_Q5_ansR.png,right,NA,NA,NA,right,1732,true,NA,NA,NA,NA,NA
Cb4TgGOr,NA,NA,Cb4TgGOr,2020-0188,2021-11-11,20:07:07,22:02:16,NA,incomplete,false,true,NA,3,24,E3_Q1_ansR.png,right,NA,NA,NA,right,1314,true,NA,NA,NA,NA,NA
Cb4TgGOr,NA,NA,Cb4TgGOr,2020-0188,2021-11-11,20:07:07,22:02:16,NA,incomplete,false,true,NA,3,25,E3_Q4_ansL.png,left,NA,NA,NA,left,1340,true,NA,NA,NA,NA,NA
Cb4TgGOr,NA,NA,Cb4TgGOr,2020-0188,2021-11-11,20:07:07,22:02:16,NA,incomplete,false,true,NA,3,26,E3_Q7_ansL.png,left,NA,NA,NA,left,1553,true,NA,NA,NA,NA,NA
Cb4TgGOr,NA,NA,Cb4TgGOr,2020-0188,2021-11-11,20:07:07,22:02:16,NA,incomplete,false,true,NA,3,27,E3_Q8_ansL.png,left,NA,NA,NA,left,1697,true,NA,NA,NA,NA,NA
Cb4TgGOr,NA,NA,Cb4TgGOr,2020-0188,2021-11-11,20:07:07,22:02:16,NA,incomplete,false,true,NA,3,28,E3_Q10_ansR.png,right,NA,NA,NA,right,1510,true,NA,NA,NA,NA,NA
Cb4TgGOr,NA,NA,Cb4TgGOr,2020-0188,2021-11-11,20:07:07,22:02:16,NA,incomplete,false,true,NA,3,29,E3_Q9_ansL.png,left,NA,NA,NA,left,1445,true,NA,NA,NA,NA,NA
Cb4TgGOr,NA,NA,Cb4TgGOr,2020-0188,2021-11-11,20:07:07,22:02:16,NA,incomplete,false,NA,true,3,0,NA,left,E1_Q8_ansR.png,E1_Q4_ansL.png,within,NA,NaN,NA,left,1247,1,0,1748.0000000004657
Cb4TgGOr,NA,NA,Cb4TgGOr,2020-0188,2021-11-11,20:07:07,22:02:16,NA,incomplete,false,NA,true,3,1,NA,left,E3_Q6_ansR.png,E3_Q1_ansR.png,within,NA,NaN,NA,left,1978,1,0,1746
Cb4TgGOr,NA,NA,Cb4TgGOr,2020-0188,2021-11-11,20:07:07,22:02:16,NA,incomplete,false,NA,true,3,2,NA,left,E1_Q2_ansL.png,E10_Q8_ansR.png,between,NA,NaN,NA,left,1794,1,2,2678
Cb4TgGOr,NA,NA,Cb4TgGOr,2020-0188,2021-11-11,20:07:07,22:02:16,NA,incomplete,false,NA,true,3,3,NA,left,E1_Q10_ansR.png,E1_Q7_ansL.png,within,NA,NaN,NA,left,1800,1,1,1047
Cb4TgGOr,NA,NA,Cb4TgGOr,2020-0188,2021-11-11,20:07:07,22:02:16,NA,incomplete,false,NA,true,3,4,NA,left,E1_Q4_ansL.png,E10_Q4_ansL.png,between,NA,NaN,NA,left,2332,1,2,4226.000000000466
Cb4TgGOr,NA,NA,Cb4TgGOr,2020-0188,2021-11-11,20:07:07,22:02:16,NA,incomplete,false,NA,true,3,5,NA,left,E3_Q3_ansR.png,E3_Q4_ansL.png,within,NA,NaN,NA,left,4655.999999999534,1,1,1391
Cb4TgGOr,NA,NA,Cb4TgGOr,2020-0188,2021-11-11,20:07:07,22:02:16,NA,incomplete,false,NA,true,3,6,NA,right,E3_Q7_ansL.png,E3_Q5_ansR.png,within,NA,NaN,NA,left,8214,0,1,5288
Cb4TgGOr,NA,NA,Cb4TgGOr,2020-0188,2021-11-11,20:07:07,22:02:16,NA,incomplete,false,NA,true,3,7,NA,right,E3_Q6_ansR.png,E10_Q7_ansR.png,between,NA,NaN,NA,right,1436.9999999995343,1,2,1720
Cb4TgGOr,NA,NA,Cb4TgGOr,2020-0188,2021-11-11,20:07:07,22:02:16,NA,incomplete,false,NA,true,3,8,NA,right,E1_Q1_ansL.png,E1_Q3_ansR.png,within,NA,NaN,NA,left,1592.0000000004657,0,1,2583
Cb4TgGOr,NA,NA,Cb4TgGOr,2020-0188,2021-11-11,20:07:07,22:02:16,NA,incomplete,false,NA,true,3,9,NA,left,E10_Q5_ansR.png,E10_Q10_ansR.png,within,NA,NaN,NA,left,2695,1,1,5206
Cb4TgGOr,NA,NA,Cb4TgGOr,2020-0188,2021-11-11,20:07:07,22:02:16,NA,incomplete,false,NA,true,3,10,NA,right,E3_Q9_ansL.png,E3_Q7_ansL.png,within,NA,NaN,NA,right,6662,1,1,4587
Cb4TgGOr,NA,NA,Cb4TgGOr,2020-0188,2021-11-11,20:07:07,22:02:16,NA,incomplete,false,NA,true,3,11,NA,right,E10_Q5_ansR.png,E10_Q4_ansL.png,within,NA,NaN,NA,right,3379,1,1,5252
Cb4TgGOr,NA,NA,Cb4TgGOr,2020-0188,2021-11-11,20:07:07,22:02:16,NA,incomplete,false,NA,true,3,12,NA,left,E10_Q10_ansR.png,E3_Q2_ansL.png,between,NA,NaN,NA,left,9930,1,1,1711.0000000004657
Cb4TgGOr,NA,NA,Cb4TgGOr,2020-0188,2021-11-11,20:07:07,22:02:16,NA,incomplete,false,NA,true,3,13,NA,right,E10_Q6_ansR.png,E10_Q8_ansR.png,within,NA,NaN,NA,right,3476,1,0,1641
Cb4TgGOr,NA,NA,Cb4TgGOr,2020-0188,2021-11-11,20:07:07,22:02:16,NA,incomplete,false,NA,true,3,14,NA,right,E10_Q1_ansL.png,E10_Q9_ansL.png,within,NA,NaN,NA,right,6718.999999999534,1,0,18217
Cb4TgGOr,NA,NA,Cb4TgGOr,2020-0188,2021-11-11,20:07:07,22:02:16,NA,incomplete,false,NA,true,3,15,NA,left,E1_Q9_ansL.png,E1_Q10_ansR.png,within,NA,NaN,NA,left,20735,1,0,5698
Cb4TgGOr,NA,NA,Cb4TgGOr,2020-0188,2021-11-11,20:07:07,22:02:16,NA,incomplete,false,NA,true,3,16,NA,right,E3_Q8_ansL.png,E3_Q1_ansR.png,within,NA,NaN,NA,left,6874.000000000466,0,1,3386.9999999995343
Cb4TgGOr,NA,NA,Cb4TgGOr,2020-0188,2021-11-11,20:07:07,22:02:16,NA,incomplete,false,NA,true,3,17,NA,left,E1_Q7_ansL.png,E10_Q9_ansL.png,between,NA,NaN,NA,left,1327.0000000004657,1,2,1399.0000000004657
Cb4TgGOr,NA,NA,Cb4TgGOr,2020-0188,2021-11-11,20:07:07,22:02:16,NA,incomplete,false,NA,true,3,18,NA,left,E10_Q6_ansR.png,E10_Q7_ansR.png,within,NA,NaN,NA,left,10185,1,1,9004
Cb4TgGOr,NA,NA,Cb4TgGOr,2020-0188,2021-11-11,20:07:07,22:02:16,NA,incomplete,false,NA,true,3,19,NA,right,E3_Q3_ansR.png,E10_Q2_ansL.png,between,NA,NaN,NA,right,21625,1,2,26969
Cb4TgGOr,NA,NA,Cb4TgGOr,2020-0188,2021-11-11,20:07:07,22:02:16,NA,incomplete,false,NA,true,3,20,NA,right,E1_Q2_ansL.png,E1_Q1_ansL.png,within,NA,NaN,NA,left,1360,0,1,19035
Cb4TgGOr,NA,NA,Cb4TgGOr,2020-0188,2021-11-11,20:07:07,22:02:16,NA,incomplete,false,NA,true,3,21,NA,left,E1_Q6_ansR.png,E1_Q3_ansR.png,within,NA,NaN,NA,right,1913,0,1,2397.0000000004657
Cb4TgGOr,NA,NA,Cb4TgGOr,2020-0188,2021-11-11,20:07:07,22:02:16,NA,incomplete,false,NA,true,3,22,NA,right,E10_Q3_ansL.png,E10_Q1_ansL.png,within,NA,NaN,NA,right,2459.9999999995343,1,1,16443
Cb4TgGOr,NA,NA,Cb4TgGOr,2020-0188,2021-11-11,20:07:07,22:02:16,NA,incomplete,false,NA,true,3,23,NA,right,E1_Q8_ansR.png,E1_Q5_ansR.png,within,NA,NaN,NA,right,3154,1,0,2565
Cb4TgGOr,NA,NA,Cb4TgGOr,2020-0188,2021-11-11,20:07:07,22:02:16,NA,incomplete,false,NA,true,3,24,NA,left,E3_Q2_ansL.png,E3_Q5_ansR.png,within,NA,NaN,NA,right,1149,0,1,1232
Cb4TgGOr,NA,NA,Cb4TgGOr,2020-0188,2021-11-11,20:07:07,22:02:16,NA,incomplete,false,NA,true,3,25,NA,right,E10_Q2_ansL.png,E10_Q3_ansL.png,within,NA,NaN,NA,right,2300,1,1,1574.9999999995343
Cb4TgGOr,NA,NA,Cb4TgGOr,2020-0188,2021-11-11,20:07:07,22:02:16,NA,incomplete,false,NA,true,3,26,NA,right,E3_Q10_ansR.png,E3_Q4_ansL.png,within,NA,NaN,NA,right,938,1,0,2873
Cb4TgGOr,NA,NA,Cb4TgGOr,2020-0188,2021-11-11,20:07:07,22:02:16,NA,incomplete,false,true,NA,4,0,E33_Q3_ansR.png,right,NA,NA,NA,right,2457.00000000047,true,NA,NA,NA,NA,NA
Cb4TgGOr,NA,NA,Cb4TgGOr,2020-0188,2021-11-11,20:07:07,22:02:16,NA,incomplete,false,true,NA,4,1,E33_Q7_ansL.png,left,NA,NA,NA,none,0,false,NA,NA,NA,NA,NA
Cb4TgGOr,NA,NA,Cb4TgGOr,2020-0188,2021-11-11,20:07:07,22:02:16,NA,incomplete,false,true,NA,4,2,E33_Q1_ansL.png,left,NA,NA,NA,right,1518,false,NA,NA,NA,NA,NA
Cb4TgGOr,NA,NA,Cb4TgGOr,2020-0188,2021-11-11,20:07:07,22:02:16,NA,incomplete,false,true,NA,4,3,E33_Q10_ansL.png,left,NA,NA,NA,left,3051,true,NA,NA,NA,NA,NA
Cb4TgGOr,NA,NA,Cb4TgGOr,2020-0188,2021-11-11,20:07:07,22:02:16,NA,incomplete,false,true,NA,4,4,E33_Q9_ansR.png,right,NA,NA,NA,right,1386,true,NA,NA,NA,NA,NA
Cb4TgGOr,NA,NA,Cb4TgGOr,2020-0188,2021-11-11,20:07:07,22:02:16,NA,incomplete,false,true,NA,4,5,E33_Q8_ansL.png,left,NA,NA,NA,left,1829,true,NA,NA,NA,NA,NA
Cb4TgGOr,NA,NA,Cb4TgGOr,2020-0188,2021-11-11,20:07:07,22:02:16,NA,incomplete,false,true,NA,4,6,E33_Q2_ansL.png,left,NA,NA,NA,left,1819,true,NA,NA,NA,NA,NA
Cb4TgGOr,NA,NA,Cb4TgGOr,2020-0188,2021-11-11,20:07:07,22:02:16,NA,incomplete,false,true,NA,4,7,E33_Q6_ansR.png,right,NA,NA,NA,right,1724.99999999953,true,NA,NA,NA,NA,NA
Cb4TgGOr,NA,NA,Cb4TgGOr,2020-0188,2021-11-11,20:07:07,22:02:16,NA,incomplete,false,true,NA,4,8,E33_Q5_ansR.png,right,NA,NA,NA,right,2166,true,NA,NA,NA,NA,NA
Cb4TgGOr,NA,NA,Cb4TgGOr,2020-0188,2021-11-11,20:07:07,22:02:16,NA,incomplete,false,true,NA,4,9,E33_Q4_ansR.png,right,NA,NA,NA,right,1313.00000000047,true,NA,NA,NA,NA,NA
Cb4TgGOr,NA,NA,Cb4TgGOr,2020-0188,2021-11-11,20:07:07,22:02:16,NA,incomplete,false,true,NA,4,10,E8_Q7_ansR.png,right,NA,NA,NA,right,1638,true,NA,NA,NA,NA,NA
Cb4TgGOr,NA,NA,Cb4TgGOr,2020-0188,2021-11-11,20:07:07,22:02:16,NA,incomplete,false,true,NA,4,11,E8_Q10_ansR.png,right,NA,NA,NA,right,1266,true,NA,NA,NA,NA,NA
Cb4TgGOr,NA,NA,Cb4TgGOr,2020-0188,2021-11-11,20:07:07,22:02:16,NA,incomplete,false,true,NA,4,12,E8_Q2_ansR.png,right,NA,NA,NA,right,2104.99999999953,true,NA,NA,NA,NA,NA
Cb4TgGOr,NA,NA,Cb4TgGOr,2020-0188,2021-11-11,20:07:07,22:02:16,NA,incomplete,false,true,NA,4,13,E8_Q4_ansL.png,left,NA,NA,NA,left,1002,true,NA,NA,NA,NA,NA
Cb4TgGOr,NA,NA,Cb4TgGOr,2020-0188,2021-11-11,20:07:07,22:02:16,NA,incomplete,false,true,NA,4,14,E8_Q5_ansL.png,left,NA,NA,NA,left,1447.99999999953,true,NA,NA,NA,NA,NA
Cb4TgGOr,NA,NA,Cb4TgGOr,2020-0188,2021-11-11,20:07:07,22:02:16,NA,incomplete,false,true,NA,4,15,E8_Q9_ansL.png,left,NA,NA,NA,left,1200.00000000047,true,NA,NA,NA,NA,NA
Cb4TgGOr,NA,NA,Cb4TgGOr,2020-0188,2021-11-11,20:07:07,22:02:16,NA,incomplete,false,true,NA,4,16,E8_Q1_ansR.png,right,NA,NA,NA,right,1181,true,NA,NA,NA,NA,NA
Cb4TgGOr,NA,NA,Cb4TgGOr,2020-0188,2021-11-11,20:07:07,22:02:16,NA,incomplete,false,true,NA,4,17,E8_Q6_ansL.png,left,NA,NA,NA,left,1068,true,NA,NA,NA,NA,NA
Cb4TgGOr,NA,NA,Cb4TgGOr,2020-0188,2021-11-11,20:07:07,22:02:16,NA,incomplete,false,true,NA,4,18,E8_Q8_ansR.png,right,NA,NA,NA,right,1132,true,NA,NA,NA,NA,NA
Cb4TgGOr,NA,NA,Cb4TgGOr,2020-0188,2021-11-11,20:07:07,22:02:16,NA,incomplete,false,true,NA,4,19,E8_Q3_ansL.png,left,NA,NA,NA,left,2108.99999999953,true,NA,NA,NA,NA,NA
Cb4TgGOr,NA,NA,Cb4TgGOr,2020-0188,2021-11-11,20:07:07,22:02:16,NA,incomplete,false,true,NA,4,20,E28_Q2_ansR.png,right,NA,NA,NA,right,2318,true,NA,NA,NA,NA,NA
Cb4TgGOr,NA,NA,Cb4TgGOr,2020-0188,2021-11-11,20:07:07,22:02:16,NA,incomplete,false,true,NA,4,21,E28_Q5_ansL.png,left,NA,NA,NA,left,1131,true,NA,NA,NA,NA,NA
Cb4TgGOr,NA,NA,Cb4TgGOr,2020-0188,2021-11-11,20:07:07,22:02:16,NA,incomplete,false,true,NA,4,22,E28_Q9_ansL.png,left,NA,NA,NA,left,1967,true,NA,NA,NA,NA,NA
Cb4TgGOr,NA,NA,Cb4TgGOr,2020-0188,2021-11-11,20:07:07,22:02:16,NA,incomplete,false,true,NA,4,23,E28_Q8_ansR.png,right,NA,NA,NA,right,2389,true,NA,NA,NA,NA,NA
Cb4TgGOr,NA,NA,Cb4TgGOr,2020-0188,2021-11-11,20:07:07,22:02:16,NA,incomplete,false,true,NA,4,24,E28_Q4_ansL.png,left,NA,NA,NA,left,2456,true,NA,NA,NA,NA,NA
Cb4TgGOr,NA,NA,Cb4TgGOr,2020-0188,2021-11-11,20:07:07,22:02:16,NA,incomplete,false,true,NA,4,25,E28_Q7_ansR.png,right,NA,NA,NA,right,1029,true,NA,NA,NA,NA,NA
Cb4TgGOr,NA,NA,Cb4TgGOr,2020-0188,2021-11-11,20:07:07,22:02:16,NA,incomplete,false,true,NA,4,26,E28_Q3_ansL.png,left,NA,NA,NA,left,2549,true,NA,NA,NA,NA,NA
Cb4TgGOr,NA,NA,Cb4TgGOr,2020-0188,2021-11-11,20:07:07,22:02:16,NA,incomplete,false,true,NA,4,27,E28_Q6_ansL.png,left,NA,NA,NA,left,1952,true,NA,NA,NA,NA,NA
Cb4TgGOr,NA,NA,Cb4TgGOr,2020-0188,2021-11-11,20:07:07,22:02:16,NA,incomplete,false,true,NA,4,28,E28_Q1_ansR.png,right,NA,NA,NA,right,2706,true,NA,NA,NA,NA,NA
Cb4TgGOr,NA,NA,Cb4TgGOr,2020-0188,2021-11-11,20:07:07,22:02:16,NA,incomplete,false,true,NA,4,29,E28_Q10_ansR.png,right,NA,NA,NA,right,1240,true,NA,NA,NA,NA,NA
Cb4TgGOr,NA,NA,Cb4TgGOr,2020-0188,2021-11-11,20:07:07,22:02:16,NA,incomplete,false,NA,true,4,0,NA,right,E28_Q4_ansL.png,E28_Q5_ansL.png,within,NA,NaN,NA,left,1737,0,0,2929
Cb4TgGOr,NA,NA,Cb4TgGOr,2020-0188,2021-11-11,20:07:07,22:02:16,NA,incomplete,false,NA,true,4,1,NA,right,E28_Q2_ansR.png,E8_Q6_ansL.png,between,NA,NaN,NA,right,4230,1,2,5094
Cb4TgGOr,NA,NA,Cb4TgGOr,2020-0188,2021-11-11,20:07:07,22:02:16,NA,incomplete,false,NA,true,4,2,NA,left,E33_Q8_ansL.png,E33_Q5_ansR.png,within,NA,NaN,NA,left,2612,1,0,1558.9999999995343
Cb4TgGOr,NA,NA,Cb4TgGOr,2020-0188,2021-11-11,20:07:07,22:02:16,NA,incomplete,false,NA,true,4,3,NA,left,E8_Q4_ansL.png,E8_Q1_ansR.png,within,NA,NaN,NA,left,2049,1,0,2037
Cb4TgGOr,NA,NA,Cb4TgGOr,2020-0188,2021-11-11,20:07:07,22:02:16,NA,incomplete,false,NA,true,4,4,NA,left,E33_Q1_ansL.png,E33_Q8_ansL.png,within,NA,NaN,NA,left,4049.9999999995343,1,0,1776.9999999995343
Cb4TgGOr,NA,NA,Cb4TgGOr,2020-0188,2021-11-11,20:07:07,22:02:16,NA,incomplete,false,NA,true,4,5,NA,right,E8_Q5_ansL.png,E8_Q10_ansR.png,within,NA,NaN,NA,right,5082.000000000466,1,0,1167
Cb4TgGOr,NA,NA,Cb4TgGOr,2020-0188,2021-11-11,20:07:07,22:02:16,NA,incomplete,false,NA,true,4,6,NA,right,E28_Q8_ansR.png,E28_Q2_ansR.png,within,NA,NaN,NA,right,2358,1,1,24099
Cb4TgGOr,NA,NA,Cb4TgGOr,2020-0188,2021-11-11,20:07:07,22:02:16,NA,incomplete,false,NA,true,4,7,NA,left,E33_Q5_ansR.png,E8_Q10_ansR.png,between,NA,NaN,NA,left,3804,1,2,4158.000000000466
Cb4TgGOr,NA,NA,Cb4TgGOr,2020-0188,2021-11-11,20:07:07,22:02:16,NA,incomplete,false,NA,true,4,8,NA,left,E28_Q3_ansL.png,E28_Q10_ansR.png,within,NA,NaN,NA,left,1440,1,1,1752.9999999995343
Cb4TgGOr,NA,NA,Cb4TgGOr,2020-0188,2021-11-11,20:07:07,22:02:16,NA,incomplete,false,NA,true,4,9,NA,left,E33_Q4_ansR.png,E8_Q2_ansR.png,between,NA,NaN,NA,left,3433.9999999995343,1,2,2930
Cb4TgGOr,NA,NA,Cb4TgGOr,2020-0188,2021-11-11,20:07:07,22:02:16,NA,incomplete,false,NA,true,4,10,NA,left,E33_Q9_ansR.png,E33_Q6_ansR.png,within,NA,NaN,NA,left,2300,1,0,2711
Cb4TgGOr,NA,NA,Cb4TgGOr,2020-0188,2021-11-11,20:07:07,22:02:16,NA,incomplete,false,NA,true,4,11,NA,right,E8_Q4_ansL.png,E8_Q7_ansR.png,within,NA,NaN,NA,left,3653.0000000004657,0,0,1238.0000000004657
Cb4TgGOr,NA,NA,Cb4TgGOr,2020-0188,2021-11-11,20:07:07,22:02:16,NA,incomplete,false,NA,true,4,12,NA,right,E8_Q7_ansR.png,E33_Q6_ansR.png,between,NA,NaN,NA,right,2203,1,3,2801
Cb4TgGOr,NA,NA,Cb4TgGOr,2020-0188,2021-11-11,20:07:07,22:02:16,NA,incomplete,false,NA,true,4,13,NA,left,E33_Q2_ansL.png,E33_Q4_ansR.png,within,NA,NaN,NA,right,1882,0,1,1456
Cb4TgGOr,NA,NA,Cb4TgGOr,2020-0188,2021-11-11,20:07:07,22:02:16,NA,incomplete,false,NA,true,4,14,NA,right,E28_Q1_ansR.png,E28_Q7_ansR.png,within,NA,NaN,NA,left,1929,0,1,1334
Cb4TgGOr,NA,NA,Cb4TgGOr,2020-0188,2021-11-11,20:07:07,22:02:16,NA,incomplete,false,NA,true,4,15,NA,right,E28_Q6_ansL.png,E28_Q4_ansL.png,within,NA,NaN,NA,right,3786,1,1,4104
Cb4TgGOr,NA,NA,Cb4TgGOr,2020-0188,2021-11-11,20:07:07,22:02:16,NA,incomplete,false,NA,true,4,16,NA,right,E28_Q7_ansR.png,E28_Q9_ansL.png,within,NA,NaN,NA,left,6588,0,1,10571
Cb4TgGOr,NA,NA,Cb4TgGOr,2020-0188,2021-11-11,20:07:07,22:02:16,NA,incomplete,false,NA,true,4,17,NA,right,E33_Q2_ansL.png,E33_Q10_ansL.png,within,NA,NaN,NA,right,6748,1,1,2968
Cb4TgGOr,NA,NA,Cb4TgGOr,2020-0188,2021-11-11,20:07:07,22:02:16,NA,incomplete,false,NA,true,4,18,NA,left,E8_Q9_ansL.png,E8_Q8_ansR.png,within,NA,NaN,NA,left,1143,1,1,980.9999999995343
Cb4TgGOr,NA,NA,Cb4TgGOr,2020-0188,2021-11-11,20:07:07,22:02:16,NA,incomplete,false,NA,true,4,19,NA,left,E8_Q3_ansL.png,E28_Q9_ansL.png,between,NA,NaN,NA,left,4111.000000000466,1,2,2153.0000000004657
Cb4TgGOr,NA,NA,Cb4TgGOr,2020-0188,2021-11-11,20:07:07,22:02:16,NA,incomplete,false,NA,true,4,20,NA,left,E8_Q1_ansR.png,E8_Q3_ansL.png,within,NA,NaN,NA,left,1188,1,0,2171
Cb4TgGOr,NA,NA,Cb4TgGOr,2020-0188,2021-11-11,20:07:07,22:02:16,NA,incomplete,false,NA,true,4,21,NA,left,E33_Q3_ansR.png,E33_Q10_ansL.png,within,NA,NaN,NA,left,19182,1,0,4450
Cb4TgGOr,NA,NA,Cb4TgGOr,2020-0188,2021-11-11,20:07:07,22:02:16,NA,incomplete,false,NA,true,4,22,NA,left,E8_Q5_ansL.png,E8_Q6_ansL.png,within,NA,NaN,NA,left,1035.0000000004657,1,0,1739.0000000004657
Cb4TgGOr,NA,NA,Cb4TgGOr,2020-0188,2021-11-11,20:07:07,22:02:16,NA,incomplete,false,NA,true,4,23,NA,left,E8_Q8_ansR.png,E28_Q5_ansL.png,between,NA,NaN,NA,left,2132,1,2,4868
Cb4TgGOr,NA,NA,Cb4TgGOr,2020-0188,2021-11-11,20:07:07,22:02:16,NA,incomplete,false,NA,true,4,24,NA,right,E8_Q9_ansL.png,E8_Q2_ansR.png,within,NA,NaN,NA,right,1391.0000000004657,1,1,1047
Cb4TgGOr,NA,NA,Cb4TgGOr,2020-0188,2021-11-11,20:07:07,22:02:16,NA,incomplete,false,NA,true,4,25,NA,left,E28_Q8_ansR.png,E28_Q3_ansL.png,within,NA,NaN,NA,left,1002.0000000004657,1,1,1576
Cb4TgGOr,NA,NA,Cb4TgGOr,2020-0188,2021-11-11,20:07:07,22:02:16,NA,incomplete,false,NA,true,4,26,NA,left,E33_Q7_ansL.png,E33_Q9_ansR.png,within,NA,NaN,NA,left,1165,1,0,907.0000000004657
Cb4TgGOr,NA,NA,Cb4TgGOr,2020-0188,2021-11-11,20:07:07,22:02:16,NA,incomplete,false,true,NA,5,0,E15_Q3_ansR.png,right,NA,NA,NA,right,2320,true,NA,NA,NA,NA,NA
Cb4TgGOr,NA,NA,Cb4TgGOr,2020-0188,2021-11-11,20:07:07,22:02:16,NA,incomplete,false,true,NA,5,1,E15_Q5_ansR.png,right,NA,NA,NA,right,1196.99999999953,true,NA,NA,NA,NA,NA
Cb4TgGOr,NA,NA,Cb4TgGOr,2020-0188,2021-11-11,20:07:07,22:02:16,NA,incomplete,false,true,NA,5,2,E15_Q7_ansL.png,left,NA,NA,NA,left,1728.00000000047,true,NA,NA,NA,NA,NA
Cb4TgGOr,NA,NA,Cb4TgGOr,2020-0188,2021-11-11,20:07:07,22:02:16,NA,incomplete,false,true,NA,5,3,E15_Q8_ansL.png,left,NA,NA,NA,left,924,true,NA,NA,NA,NA,NA
Cb4TgGOr,NA,NA,Cb4TgGOr,2020-0188,2021-11-11,20:07:07,22:02:16,NA,incomplete,false,true,NA,5,4,E15_Q6_ansR.png,right,NA,NA,NA,right,1378,true,NA,NA,NA,NA,NA
Cb4TgGOr,NA,NA,Cb4TgGOr,2020-0188,2021-11-11,20:07:07,22:02:16,NA,incomplete,false,true,NA,5,5,E15_Q9_ansR.png,right,NA,NA,NA,right,3085,true,NA,NA,NA,NA,NA
Cb4TgGOr,NA,NA,Cb4TgGOr,2020-0188,2021-11-11,20:07:07,22:02:16,NA,incomplete,false,true,NA,5,6,E15_Q10_ansL.png,left,NA,NA,NA,left,994.000000000466,true,NA,NA,NA,NA,NA
Cb4TgGOr,NA,NA,Cb4TgGOr,2020-0188,2021-11-11,20:07:07,22:02:16,NA,incomplete,false,true,NA,5,7,E15_Q4_ansR.png,right,NA,NA,NA,none,0,false,NA,NA,NA,NA,NA
Cb4TgGOr,NA,NA,Cb4TgGOr,2020-0188,2021-11-11,20:07:07,22:02:16,NA,incomplete,false,true,NA,5,8,E15_Q2_ansL.png,left,NA,NA,NA,left,1973,true,NA,NA,NA,NA,NA
Cb4TgGOr,NA,NA,Cb4TgGOr,2020-0188,2021-11-11,20:07:07,22:02:16,NA,incomplete,false,true,NA,5,9,E15_Q1_ansL.png,left,NA,NA,NA,none,0,false,NA,NA,NA,NA,NA
Cb4TgGOr,NA,NA,Cb4TgGOr,2020-0188,2021-11-11,20:07:07,22:02:16,NA,incomplete,false,true,NA,5,10,E12_Q3_ansR.png,right,NA,NA,NA,right,2540,true,NA,NA,NA,NA,NA
Cb4TgGOr,NA,NA,Cb4TgGOr,2020-0188,2021-11-11,20:07:07,22:02:16,NA,incomplete,false,true,NA,5,11,E12_Q6_ansR.png,right,NA,NA,NA,right,1279,true,NA,NA,NA,NA,NA
Cb4TgGOr,NA,NA,Cb4TgGOr,2020-0188,2021-11-11,20:07:07,22:02:16,NA,incomplete,false,true,NA,5,12,E12_Q9_ansR.png,right,NA,NA,NA,right,2329,true,NA,NA,NA,NA,NA
Cb4TgGOr,NA,NA,Cb4TgGOr,2020-0188,2021-11-11,20:07:07,22:02:16,NA,incomplete,false,true,NA,5,13,E12_Q2_ansL.png,left,NA,NA,NA,left,2032,true,NA,NA,NA,NA,NA
Cb4TgGOr,NA,NA,Cb4TgGOr,2020-0188,2021-11-11,20:07:07,22:02:16,NA,incomplete,false,true,NA,5,14,E12_Q10_ansL.png,left,NA,NA,NA,right,2460.99999999953,false,NA,NA,NA,NA,NA
Cb4TgGOr,NA,NA,Cb4TgGOr,2020-0188,2021-11-11,20:07:07,22:02:16,NA,incomplete,false,true,NA,5,15,E12_Q1_ansL.png,left,NA,NA,NA,none,0,false,NA,NA,NA,NA,NA
Cb4TgGOr,NA,NA,Cb4TgGOr,2020-0188,2021-11-11,20:07:07,22:02:16,NA,incomplete,false,true,NA,5,16,E12_Q4_ansR.png,right,NA,NA,NA,right,1885.00000000047,true,NA,NA,NA,NA,NA
Cb4TgGOr,NA,NA,Cb4TgGOr,2020-0188,2021-11-11,20:07:07,22:02:16,NA,incomplete,false,true,NA,5,17,E12_Q8_ansL.png,left,NA,NA,NA,right,1243,false,NA,NA,NA,NA,NA
Cb4TgGOr,NA,NA,Cb4TgGOr,2020-0188,2021-11-11,20:07:07,22:02:16,NA,incomplete,false,true,NA,5,18,E12_Q7_ansL.png,left,NA,NA,NA,right,3044,false,NA,NA,NA,NA,NA
Cb4TgGOr,NA,NA,Cb4TgGOr,2020-0188,2021-11-11,20:07:07,22:02:16,NA,incomplete,false,true,NA,5,19,E12_Q5_ansR.png,right,NA,NA,NA,right,1173,true,NA,NA,NA,NA,NA
Cb4TgGOr,NA,NA,Cb4TgGOr,2020-0188,2021-11-11,20:07:07,22:02:16,NA,incomplete,false,true,NA,5,20,E18_Q9_ansR.png,right,NA,NA,NA,right,1369.00000000047,true,NA,NA,NA,NA,NA
Cb4TgGOr,NA,NA,Cb4TgGOr,2020-0188,2021-11-11,20:07:07,22:02:16,NA,incomplete,false,true,NA,5,21,E18_Q5_ansR.png,right,NA,NA,NA,right,878.000000000466,true,NA,NA,NA,NA,NA
Cb4TgGOr,NA,NA,Cb4TgGOr,2020-0188,2021-11-11,20:07:07,22:02:16,NA,incomplete,false,true,NA,5,22,E18_Q3_ansR.png,right,NA,NA,NA,right,962.999999999534,true,NA,NA,NA,NA,NA
Cb4TgGOr,NA,NA,Cb4TgGOr,2020-0188,2021-11-11,20:07:07,22:02:16,NA,incomplete,false,true,NA,5,23,E18_Q1_ansL.png,left,NA,NA,NA,left,1334.00000000047,true,NA,NA,NA,NA,NA
Cb4TgGOr,NA,NA,Cb4TgGOr,2020-0188,2021-11-11,20:07:07,22:02:16,NA,incomplete,false,true,NA,5,24,E18_Q10_ansL.png,left,NA,NA,NA,left,1344,true,NA,NA,NA,NA,NA
Cb4TgGOr,NA,NA,Cb4TgGOr,2020-0188,2021-11-11,20:07:07,22:02:16,NA,incomplete,false,true,NA,5,25,E18_Q6_ansR.png,right,NA,NA,NA,right,919.000000000466,true,NA,NA,NA,NA,NA
Cb4TgGOr,NA,NA,Cb4TgGOr,2020-0188,2021-11-11,20:07:07,22:02:16,NA,incomplete,false,true,NA,5,26,E18_Q8_ansL.png,left,NA,NA,NA,left,1721,true,NA,NA,NA,NA,NA
Cb4TgGOr,NA,NA,Cb4TgGOr,2020-0188,2021-11-11,20:07:07,22:02:16,NA,incomplete,false,true,NA,5,27,E18_Q2_ansL.png,left,NA,NA,NA,left,1347,true,NA,NA,NA,NA,NA
Cb4TgGOr,NA,NA,Cb4TgGOr,2020-0188,2021-11-11,20:07:07,22:02:16,NA,incomplete,false,true,NA,5,28,E18_Q7_ansL.png,left,NA,NA,NA,left,927.000000000466,true,NA,NA,NA,NA,NA
Cb4TgGOr,NA,NA,Cb4TgGOr,2020-0188,2021-11-11,20:07:07,22:02:16,NA,incomplete,false,true,NA,5,29,E18_Q4_ansR.png,right,NA,NA,NA,right,1306.99999999953,true,NA,NA,NA,NA,NA
Cb4TgGOr,NA,NA,Cb4TgGOr,2020-0188,2021-11-11,20:07:07,22:02:16,NA,incomplete,false,NA,true,5,0,NA,left,E12_Q10_ansL.png,E12_Q8_ansL.png,within,NA,NaN,NA,left,1674,1,0,1560.9999999995343
Cb4TgGOr,NA,NA,Cb4TgGOr,2020-0188,2021-11-11,20:07:07,22:02:16,NA,incomplete,false,NA,true,5,1,NA,left,E18_Q6_ansR.png,E18_Q7_ansL.png,within,NA,NaN,NA,left,9599.000000000466,1,0,2211.9999999995343
Cb4TgGOr,NA,NA,Cb4TgGOr,2020-0188,2021-11-11,20:07:07,22:02:16,NA,incomplete,false,NA,true,5,2,NA,right,E12_Q3_ansR.png,E15_Q4_ansR.png,between,NA,NaN,NA,right,33503,1,1,4690
Cb4TgGOr,NA,NA,Cb4TgGOr,2020-0188,2021-11-11,20:07:07,22:02:16,NA,incomplete,false,NA,true,5,3,NA,right,E18_Q5_ansR.png,E12_Q7_ansL.png,between,NA,NaN,NA,left,1004,0,2,3645
Cb4TgGOr,NA,NA,Cb4TgGOr,2020-0188,2021-11-11,20:07:07,22:02:16,NA,incomplete,false,NA,true,5,4,NA,left,E18_Q10_ansL.png,E18_Q2_ansL.png,within,NA,NaN,NA,left,1553,1,1,1166
Cb4TgGOr,NA,NA,Cb4TgGOr,2020-0188,2021-11-11,20:07:07,22:02:16,NA,incomplete,false,NA,true,5,5,NA,left,E18_Q9_ansR.png,E18_Q1_ansL.png,within,NA,NaN,NA,right,11761,0,1,3644
Cb4TgGOr,NA,NA,Cb4TgGOr,2020-0188,2021-11-11,20:07:07,22:02:16,NA,incomplete,false,NA,true,5,6,NA,left,E15_Q7_ansL.png,E15_Q9_ansR.png,within,NA,NaN,NA,left,2556,1,1,1291.9999999990687
Cb4TgGOr,NA,NA,Cb4TgGOr,2020-0188,2021-11-11,20:07:07,22:02:16,NA,incomplete,false,NA,true,5,7,NA,right,E12_Q7_ansL.png,E12_Q1_ansL.png,within,NA,NaN,NA,left,42919.00000000093,0,1,4430
Cb4TgGOr,NA,NA,Cb4TgGOr,2020-0188,2021-11-11,20:07:07,22:02:16,NA,incomplete,false,NA,true,5,8,NA,left,E15_Q6_ansR.png,E15_Q4_ansR.png,within,NA,NaN,NA,left,5582,1,1,6590
Cb4TgGOr,NA,NA,Cb4TgGOr,2020-0188,2021-11-11,20:07:07,22:02:16,NA,incomplete,false,NA,true,5,9,NA,left,E15_Q9_ansR.png,E15_Q2_ansL.png,within,NA,NaN,NA,left,4963,1,0,17182
Cb4TgGOr,NA,NA,Cb4TgGOr,2020-0188,2021-11-11,20:07:07,22:02:16,NA,incomplete,false,NA,true,5,10,NA,left,E12_Q2_ansL.png,E12_Q4_ansR.png,within,NA,NaN,NA,left,2339,1,1,1255
Cb4TgGOr,NA,NA,Cb4TgGOr,2020-0188,2021-11-11,20:07:07,22:02:16,NA,incomplete,false,NA,true,5,11,NA,right,E12_Q10_ansL.png,E12_Q6_ansR.png,within,NA,NaN,NA,right,513,1,1,981
Cb4TgGOr,NA,NA,Cb4TgGOr,2020-0188,2021-11-11,20:07:07,22:02:16,NA,incomplete,false,NA,true,5,12,NA,left,E18_Q1_ansL.png,E18_Q8_ansL.png,within,NA,NaN,NA,right,2831,0,1,1703
Cb4TgGOr,NA,NA,Cb4TgGOr,2020-0188,2021-11-11,20:07:07,22:02:16,NA,incomplete,false,NA,true,5,13,NA,right,E12_Q6_ansR.png,E15_Q2_ansL.png,between,NA,NaN,NA,left,1665,0,1,1647.9999999990687
Cb4TgGOr,NA,NA,Cb4TgGOr,2020-0188,2021-11-11,20:07:07,22:02:16,NA,incomplete,false,NA,true,5,14,NA,right,E18_Q6_ansR.png,E18_Q3_ansR.png,within,NA,NaN,NA,right,819,1,0,2259.9999999990687
Cb4TgGOr,NA,NA,Cb4TgGOr,2020-0188,2021-11-11,20:07:07,22:02:16,NA,incomplete,false,NA,true,5,15,NA,left,E12_Q9_ansR.png,E12_Q1_ansL.png,within,NA,NaN,NA,left,787,1,0,1465
Cb4TgGOr,NA,NA,Cb4TgGOr,2020-0188,2021-11-11,20:07:07,22:02:16,NA,incomplete,false,NA,true,5,16,NA,left,E18_Q8_ansL.png,E18_Q4_ansR.png,within,NA,NaN,NA,right,7504,0,0,2397
Cb4TgGOr,NA,NA,Cb4TgGOr,2020-0188,2021-11-11,20:07:07,22:02:16,NA,incomplete,false,NA,true,5,17,NA,left,E18_Q5_ansR.png,E18_Q10_ansL.png,within,NA,NaN,NA,left,5801,1,1,3512
Cb4TgGOr,NA,NA,Cb4TgGOr,2020-0188,2021-11-11,20:07:07,22:02:16,NA,incomplete,false,NA,true,5,18,NA,left,E15_Q10_ansL.png,E15_Q1_ansL.png,within,NA,NaN,NA,left,4898,1,0,2871
Cb4TgGOr,NA,NA,Cb4TgGOr,2020-0188,2021-11-11,20:07:07,22:02:16,NA,incomplete,false,NA,true,5,19,NA,left,E15_Q3_ansR.png,E15_Q8_ansL.png,within,NA,NaN,NA,left,706,1,0,8366
Cb4TgGOr,NA,NA,Cb4TgGOr,2020-0188,2021-11-11,20:07:07,22:02:16,NA,incomplete,false,NA,true,5,20,NA,left,E15_Q8_ansL.png,E15_Q10_ansL.png,within,NA,NaN,NA,left,699,1,1,1143
Cb4TgGOr,NA,NA,Cb4TgGOr,2020-0188,2021-11-11,20:07:07,22:02:16,NA,incomplete,false,NA,true,5,21,NA,left,E15_Q5_ansR.png,E15_Q6_ansR.png,within,NA,NaN,NA,right,425,0,1,1011
Cb4TgGOr,NA,NA,Cb4TgGOr,2020-0188,2021-11-11,20:07:07,22:02:16,NA,incomplete,false,NA,true,5,22,NA,left,E12_Q5_ansR.png,E18_Q3_ansR.png,between,NA,NaN,NA,left,390,1,3,2419
Cb4TgGOr,NA,NA,Cb4TgGOr,2020-0188,2021-11-11,20:07:07,22:02:16,NA,incomplete,false,NA,true,5,23,NA,left,E12_Q3_ansR.png,E12_Q2_ansL.png,within,NA,NaN,NA,left,1332,1,0,2477
Cb4TgGOr,NA,NA,Cb4TgGOr,2020-0188,2021-11-11,20:07:07,22:02:16,NA,incomplete,false,NA,true,5,24,NA,right,E12_Q5_ansR.png,E12_Q4_ansR.png,within,NA,NaN,NA,left,762,0,1,980
Cb4TgGOr,NA,NA,Cb4TgGOr,2020-0188,2021-11-11,20:07:07,22:02:16,NA,incomplete,false,NA,true,5,25,NA,right,E12_Q9_ansR.png,E15_Q1_ansL.png,between,NA,NaN,NA,right,1593,1,0,1166
Cb4TgGOr,NA,NA,Cb4TgGOr,2020-0188,2021-11-11,20:07:07,22:02:16,NA,incomplete,false,NA,true,5,26,NA,right,E18_Q9_ansR.png,E12_Q8_ansL.png,between,NA,NaN,NA,right,3667,1,2,1374
Cb4TgGOr,NA,NA,Cb4TgGOr,2020-0188,2021-11-11,20:07:07,22:02:16,NA,incomplete,false,true,NA,6,0,E11_Q2_ansR.png,right,NA,NA,NA,right,1631.99999999907,true,NA,NA,NA,NA,NA
Cb4TgGOr,NA,NA,Cb4TgGOr,2020-0188,2021-11-11,20:07:07,22:02:16,NA,incomplete,false,true,NA,6,1,E11_Q5_ansL.png,left,NA,NA,NA,left,1811,true,NA,NA,NA,NA,NA
Cb4TgGOr,NA,NA,Cb4TgGOr,2020-0188,2021-11-11,20:07:07,22:02:16,NA,incomplete,false,true,NA,6,2,E11_Q8_ansR.png,right,NA,NA,NA,right,1012,true,NA,NA,NA,NA,NA
Cb4TgGOr,NA,NA,Cb4TgGOr,2020-0188,2021-11-11,20:07:07,22:02:16,NA,incomplete,false,true,NA,6,3,E11_Q10_ansR.png,right,NA,NA,NA,right,998,true,NA,NA,NA,NA,NA
Cb4TgGOr,NA,NA,Cb4TgGOr,2020-0188,2021-11-11,20:07:07,22:02:16,NA,incomplete,false,true,NA,6,4,E11_Q7_ansR.png,right,NA,NA,NA,right,1303,true,NA,NA,NA,NA,NA
Cb4TgGOr,NA,NA,Cb4TgGOr,2020-0188,2021-11-11,20:07:07,22:02:16,NA,incomplete,false,true,NA,6,5,E11_Q3_ansL.png,left,NA,NA,NA,left,2473,true,NA,NA,NA,NA,NA
Cb4TgGOr,NA,NA,Cb4TgGOr,2020-0188,2021-11-11,20:07:07,22:02:16,NA,incomplete,false,true,NA,6,6,E11_Q1_ansR.png,right,NA,NA,NA,right,1221,true,NA,NA,NA,NA,NA
Cb4TgGOr,NA,NA,Cb4TgGOr,2020-0188,2021-11-11,20:07:07,22:02:16,NA,incomplete,false,true,NA,6,7,E11_Q6_ansL.png,left,NA,NA,NA,left,1448,true,NA,NA,NA,NA,NA
Cb4TgGOr,NA,NA,Cb4TgGOr,2020-0188,2021-11-11,20:07:07,22:02:16,NA,incomplete,false,true,NA,6,8,E11_Q4_ansL.png,left,NA,NA,NA,left,1410,true,NA,NA,NA,NA,NA
Cb4TgGOr,NA,NA,Cb4TgGOr,2020-0188,2021-11-11,20:07:07,22:02:16,NA,incomplete,false,true,NA,6,9,E11_Q9_ansL.png,left,NA,NA,NA,left,1677,true,NA,NA,NA,NA,NA
Cb4TgGOr,NA,NA,Cb4TgGOr,2020-0188,2021-11-11,20:07:07,22:02:16,NA,incomplete,false,true,NA,6,10,E26_Q10_ansL.png,left,NA,NA,NA,left,2237,true,NA,NA,NA,NA,NA
Cb4TgGOr,NA,NA,Cb4TgGOr,2020-0188,2021-11-11,20:07:07,22:02:16,NA,incomplete,false,true,NA,6,11,E26_Q8_ansL.png,left,NA,NA,NA,left,1264,true,NA,NA,NA,NA,NA
Cb4TgGOr,NA,NA,Cb4TgGOr,2020-0188,2021-11-11,20:07:07,22:02:16,NA,incomplete,false,true,NA,6,12,E26_Q9_ansR.png,right,NA,NA,NA,right,2168,true,NA,NA,NA,NA,NA
Cb4TgGOr,NA,NA,Cb4TgGOr,2020-0188,2021-11-11,20:07:07,22:02:16,NA,incomplete,false,true,NA,6,13,E26_Q4_ansR.png,right,NA,NA,NA,right,1310,true,NA,NA,NA,NA,NA
Cb4TgGOr,NA,NA,Cb4TgGOr,2020-0188,2021-11-11,20:07:07,22:02:16,NA,incomplete,false,true,NA,6,14,E26_Q6_ansR.png,right,NA,NA,NA,right,1449,true,NA,NA,NA,NA,NA
Cb4TgGOr,NA,NA,Cb4TgGOr,2020-0188,2021-11-11,20:07:07,22:02:16,NA,incomplete,false,true,NA,6,15,E26_Q1_ansL.png,left,NA,NA,NA,left,1301.00000000093,true,NA,NA,NA,NA,NA
Cb4TgGOr,NA,NA,Cb4TgGOr,2020-0188,2021-11-11,20:07:07,22:02:16,NA,incomplete,false,true,NA,6,16,E26_Q3_ansR.png,right,NA,NA,NA,right,2148,true,NA,NA,NA,NA,NA
Cb4TgGOr,NA,NA,Cb4TgGOr,2020-0188,2021-11-11,20:07:07,22:02:16,NA,incomplete,false,true,NA,6,17,E26_Q5_ansR.png,right,NA,NA,NA,right,839.999999999069,true,NA,NA,NA,NA,NA
Cb4TgGOr,NA,NA,Cb4TgGOr,2020-0188,2021-11-11,20:07:07,22:02:16,NA,incomplete,false,true,NA,6,18,E26_Q2_ansL.png,left,NA,NA,NA,left,2277,true,NA,NA,NA,NA,NA
Cb4TgGOr,NA,NA,Cb4TgGOr,2020-0188,2021-11-11,20:07:07,22:02:16,NA,incomplete,false,true,NA,6,19,E26_Q7_ansL.png,left,NA,NA,NA,left,1250,true,NA,NA,NA,NA,NA
Cb4TgGOr,NA,NA,Cb4TgGOr,2020-0188,2021-11-11,20:07:07,22:02:16,NA,incomplete,false,true,NA,6,20,E14_Q7_ansL.png,left,NA,NA,NA,left,2043.00000000093,true,NA,NA,NA,NA,NA
Cb4TgGOr,NA,NA,Cb4TgGOr,2020-0188,2021-11-11,20:07:07,22:02:16,NA,incomplete,false,true,NA,6,21,E14_Q5_ansR.png,right,NA,NA,NA,left,1709,false,NA,NA,NA,NA,NA
Cb4TgGOr,NA,NA,Cb4TgGOr,2020-0188,2021-11-11,20:07:07,22:02:16,NA,incomplete,false,true,NA,6,22,E14_Q8_ansL.png,left,NA,NA,NA,right,1371.99999999907,false,NA,NA,NA,NA,NA
Cb4TgGOr,NA,NA,Cb4TgGOr,2020-0188,2021-11-11,20:07:07,22:02:16,NA,incomplete,false,true,NA,6,23,E14_Q6_ansR.png,right,NA,NA,NA,left,2059.99999999907,false,NA,NA,NA,NA,NA
Cb4TgGOr,NA,NA,Cb4TgGOr,2020-0188,2021-11-11,20:07:07,22:02:16,NA,incomplete,false,true,NA,6,24,E14_Q9_ansR.png,right,NA,NA,NA,right,1047,true,NA,NA,NA,NA,NA
Cb4TgGOr,NA,NA,Cb4TgGOr,2020-0188,2021-11-11,20:07:07,22:02:16,NA,incomplete,false,true,NA,6,25,E14_Q3_ansR.png,right,NA,NA,NA,none,0,false,NA,NA,NA,NA,NA
Cb4TgGOr,NA,NA,Cb4TgGOr,2020-0188,2021-11-11,20:07:07,22:02:16,NA,incomplete,false,true,NA,6,26,E14_Q4_ansR.png,right,NA,NA,NA,right,919,true,NA,NA,NA,NA,NA
Cb4TgGOr,NA,NA,Cb4TgGOr,2020-0188,2021-11-11,20:07:07,22:02:16,NA,incomplete,false,true,NA,6,27,E14_Q1_ansL.png,left,NA,NA,NA,left,1470,true,NA,NA,NA,NA,NA
Cb4TgGOr,NA,NA,Cb4TgGOr,2020-0188,2021-11-11,20:07:07,22:02:16,NA,incomplete,false,true,NA,6,28,E14_Q2_ansL.png,left,NA,NA,NA,left,1820,true,NA,NA,NA,NA,NA
Cb4TgGOr,NA,NA,Cb4TgGOr,2020-0188,2021-11-11,20:07:07,22:02:16,NA,incomplete,false,true,NA,6,29,E14_Q10_ansL.png,left,NA,NA,NA,right,1513,false,NA,NA,NA,NA,NA
Cb4TgGOr,NA,NA,Cb4TgGOr,2020-0188,2021-11-11,20:07:07,22:02:16,NA,incomplete,false,NA,true,6,0,NA,left,E11_Q9_ansL.png,E26_Q9_ansR.png,between,NA,NaN,NA,left,2677,1,2,1423
Cb4TgGOr,NA,NA,Cb4TgGOr,2020-0188,2021-11-11,20:07:07,22:02:16,NA,incomplete,false,NA,true,6,1,NA,left,E11_Q10_ansR.png,E11_Q1_ansR.png,within,NA,NaN,NA,left,3870.0000000009313,1,0,1432
Cb4TgGOr,NA,NA,Cb4TgGOr,2020-0188,2021-11-11,20:07:07,22:02:16,NA,incomplete,false,NA,true,6,2,NA,left,E14_Q6_ansR.png,E14_Q4_ansR.png,within,NA,NaN,NA,left,3563,1,1,1689
Cb4TgGOr,NA,NA,Cb4TgGOr,2020-0188,2021-11-11,20:07:07,22:02:16,NA,incomplete,false,NA,true,6,3,NA,left,E26_Q7_ansL.png,E14_Q8_ansL.png,between,NA,NaN,NA,right,1616,0,1,1214
Cb4TgGOr,NA,NA,Cb4TgGOr,2020-0188,2021-11-11,20:07:07,22:02:16,NA,incomplete,false,NA,true,6,4,NA,right,E14_Q10_ansL.png,E14_Q4_ansR.png,within,NA,NaN,NA,right,13376,1,1,956
Cb4TgGOr,NA,NA,Cb4TgGOr,2020-0188,2021-11-11,20:07:07,22:02:16,NA,incomplete,false,NA,true,6,5,NA,left,E26_Q8_ansL.png,E26_Q6_ansR.png,within,NA,NaN,NA,left,859,1,1,1018
Cb4TgGOr,NA,NA,Cb4TgGOr,2020-0188,2021-11-11,20:07:07,22:02:16,NA,incomplete,false,NA,true,6,6,NA,left,E14_Q5_ansR.png,E14_Q9_ansR.png,within,NA,NaN,NA,right,754,0,1,1248
Cb4TgGOr,NA,NA,Cb4TgGOr,2020-0188,2021-11-11,20:07:07,22:02:16,NA,incomplete,false,NA,true,6,7,NA,left,E14_Q7_ansL.png,E14_Q6_ansR.png,within,NA,NaN,NA,left,10051,1,1,6860
Cb4TgGOr,NA,NA,Cb4TgGOr,2020-0188,2021-11-11,20:07:07,22:02:16,NA,incomplete,false,NA,true,6,8,NA,right,E26_Q10_ansL.png,E11_Q6_ansL.png,between,NA,NaN,NA,right,2717,1,1,8764
Cb4TgGOr,NA,NA,Cb4TgGOr,2020-0188,2021-11-11,20:07:07,22:02:16,NA,incomplete,false,NA,true,6,9,NA,left,E11_Q5_ansL.png,E11_Q7_ansR.png,within,NA,NaN,NA,left,3105,1,1,1395.9999999990687
Cb4TgGOr,NA,NA,Cb4TgGOr,2020-0188,2021-11-11,20:07:07,22:02:16,NA,incomplete,false,NA,true,6,10,NA,left,E26_Q2_ansL.png,E14_Q5_ansR.png,between,NA,NaN,NA,left,7915,1,0,3916
Cb4TgGOr,NA,NA,Cb4TgGOr,2020-0188,2021-11-11,20:07:07,22:02:16,NA,incomplete,false,NA,true,6,11,NA,left,E26_Q6_ansR.png,E26_Q5_ansR.png,within,NA,NaN,NA,left,1062,1,0,6140.000000000931
Cb4TgGOr,NA,NA,Cb4TgGOr,2020-0188,2021-11-11,20:07:07,22:02:16,NA,incomplete,false,NA,true,6,12,NA,right,E26_Q4_ansR.png,E26_Q10_ansL.png,within,NA,NaN,NA,left,970.0000000009313,0,1,2416
Cb4TgGOr,NA,NA,Cb4TgGOr,2020-0188,2021-11-11,20:07:07,22:02:16,NA,incomplete,false,NA,true,6,13,NA,left,E14_Q8_ansL.png,E14_Q3_ansR.png,within,NA,NaN,NA,left,1817,1,1,8658
Cb4TgGOr,NA,NA,Cb4TgGOr,2020-0188,2021-11-11,20:07:07,22:02:16,NA,incomplete,false,NA,true,6,14,NA,left,E14_Q9_ansR.png,E14_Q1_ansL.png,within,NA,NaN,NA,right,802,0,0,2214
Cb4TgGOr,NA,NA,Cb4TgGOr,2020-0188,2021-11-11,20:07:07,22:02:16,NA,incomplete,false,NA,true,6,15,NA,right,E11_Q9_ansL.png,E11_Q1_ansR.png,within,NA,NaN,NA,left,786,0,0,1592
Cb4TgGOr,NA,NA,Cb4TgGOr,2020-0188,2021-11-11,20:07:07,22:02:16,NA,incomplete,false,NA,true,6,16,NA,left,E14_Q3_ansR.png,E14_Q2_ansL.png,within,NA,NaN,NA,right,827.0000000009313,0,0,1086.0000000009313
Cb4TgGOr,NA,NA,Cb4TgGOr,2020-0188,2021-11-11,20:07:07,22:02:16,NA,incomplete,false,NA,true,6,17,NA,right,E26_Q2_ansL.png,E26_Q1_ansL.png,within,NA,NaN,NA,left,834,0,0,1260
Cb4TgGOr,NA,NA,Cb4TgGOr,2020-0188,2021-11-11,20:07:07,22:02:16,NA,incomplete,false,NA,true,6,18,NA,right,E26_Q3_ansR.png,E26_Q4_ansR.png,within,NA,NaN,NA,left,739,0,0,1801
Cb4TgGOr,NA,NA,Cb4TgGOr,2020-0188,2021-11-11,20:07:07,22:02:16,NA,incomplete,false,NA,true,6,19,NA,left,E11_Q8_ansR.png,E11_Q3_ansL.png,within,NA,NaN,NA,left,891.0000000009313,1,0,1373
Cb4TgGOr,NA,NA,Cb4TgGOr,2020-0188,2021-11-11,20:07:07,22:02:16,NA,incomplete,false,NA,true,6,20,NA,left,E11_Q4_ansL.png,E26_Q8_ansL.png,between,NA,NaN,NA,left,2020,1,3,1817
Cb4TgGOr,NA,NA,Cb4TgGOr,2020-0188,2021-11-11,20:07:07,22:02:16,NA,incomplete,false,NA,true,6,21,NA,right,E11_Q6_ansL.png,E11_Q7_ansR.png,within,NA,NaN,NA,right,1166,1,1,1262
Cb4TgGOr,NA,NA,Cb4TgGOr,2020-0188,2021-11-11,20:07:07,22:02:16,NA,incomplete,false,NA,true,6,22,NA,left,E11_Q3_ansL.png,E11_Q4_ansL.png,within,NA,NaN,NA,left,963,1,1,1350
Cb4TgGOr,NA,NA,Cb4TgGOr,2020-0188,2021-11-11,20:07:07,22:02:16,NA,incomplete,false,NA,true,6,23,NA,left,E26_Q5_ansR.png,E14_Q7_ansL.png,between,NA,NaN,NA,right,1293,0,2,2188
Cb4TgGOr,NA,NA,Cb4TgGOr,2020-0188,2021-11-11,20:07:07,22:02:16,NA,incomplete,false,NA,true,6,24,NA,right,E26_Q7_ansL.png,E26_Q3_ansR.png,within,NA,NaN,NA,left,2395,0,1,2085
Cb4TgGOr,NA,NA,Cb4TgGOr,2020-0188,2021-11-11,20:07:07,22:02:16,NA,incomplete,false,NA,true,6,25,NA,right,E11_Q10_ansR.png,E11_Q2_ansR.png,within,NA,NaN,NA,right,868,1,1,1576
Cb4TgGOr,NA,NA,Cb4TgGOr,2020-0188,2021-11-11,20:07:07,22:02:16,NA,incomplete,false,NA,true,6,26,NA,left,E26_Q9_ansR.png,E26_Q1_ansL.png,within,NA,NaN,NA,right,1455,0,1,1013
Cb4TgGOr,NA,NA,Cb4TgGOr,2020-0188,2021-11-11,20:07:07,22:02:16,NA,incomplete,false,true,NA,7,0,E7_Q8_ansL.png,left,NA,NA,NA,left,2157,true,NA,NA,NA,NA,NA
Cb4TgGOr,NA,NA,Cb4TgGOr,2020-0188,2021-11-11,20:07:07,22:02:16,NA,incomplete,false,true,NA,7,1,E7_Q3_ansR.png,right,NA,NA,NA,right,957,true,NA,NA,NA,NA,NA
Cb4TgGOr,NA,NA,Cb4TgGOr,2020-0188,2021-11-11,20:07:07,22:02:16,NA,incomplete,false,true,NA,7,2,E7_Q2_ansL.png,left,NA,NA,NA,left,1125,true,NA,NA,NA,NA,NA
Cb4TgGOr,NA,NA,Cb4TgGOr,2020-0188,2021-11-11,20:07:07,22:02:16,NA,incomplete,false,true,NA,7,3,E7_Q5_ansR.png,right,NA,NA,NA,right,1383,true,NA,NA,NA,NA,NA
Cb4TgGOr,NA,NA,Cb4TgGOr,2020-0188,2021-11-11,20:07:07,22:02:16,NA,incomplete,false,true,NA,7,4,E7_Q9_ansR.png,right,NA,NA,NA,right,1047,true,NA,NA,NA,NA,NA
Cb4TgGOr,NA,NA,Cb4TgGOr,2020-0188,2021-11-11,20:07:07,22:02:16,NA,incomplete,false,true,NA,7,5,E7_Q4_ansR.png,right,NA,NA,NA,right,1047,true,NA,NA,NA,NA,NA
Cb4TgGOr,NA,NA,Cb4TgGOr,2020-0188,2021-11-11,20:07:07,22:02:16,NA,incomplete,false,true,NA,7,6,E7_Q1_ansL.png,left,NA,NA,NA,left,1190,true,NA,NA,NA,NA,NA
Cb4TgGOr,NA,NA,Cb4TgGOr,2020-0188,2021-11-11,20:07:07,22:02:16,NA,incomplete,false,true,NA,7,7,E7_Q10_ansR.png,right,NA,NA,NA,right,1765,true,NA,NA,NA,NA,NA
Cb4TgGOr,NA,NA,Cb4TgGOr,2020-0188,2021-11-11,20:07:07,22:02:16,NA,incomplete,false,true,NA,7,8,E7_Q7_ansL.png,left,NA,NA,NA,none,0,false,NA,NA,NA,NA,NA
Cb4TgGOr,NA,NA,Cb4TgGOr,2020-0188,2021-11-11,20:07:07,22:02:16,NA,incomplete,false,true,NA,7,9,E7_Q6_ansR.png,right,NA,NA,NA,right,1036,true,NA,NA,NA,NA,NA
Cb4TgGOr,NA,NA,Cb4TgGOr,2020-0188,2021-11-11,20:07:07,22:02:16,NA,incomplete,false,true,NA,7,10,E5_Q2_ansL.png,left,NA,NA,NA,left,2235,true,NA,NA,NA,NA,NA
Cb4TgGOr,NA,NA,Cb4TgGOr,2020-0188,2021-11-11,20:07:07,22:02:16,NA,incomplete,false,true,NA,7,11,E5_Q9_ansR.png,right,NA,NA,NA,right,896,true,NA,NA,NA,NA,NA
Cb4TgGOr,NA,NA,Cb4TgGOr,2020-0188,2021-11-11,20:07:07,22:02:16,NA,incomplete,false,true,NA,7,12,E5_Q4_ansR.png,right,NA,NA,NA,right,2338,true,NA,NA,NA,NA,NA
Cb4TgGOr,NA,NA,Cb4TgGOr,2020-0188,2021-11-11,20:07:07,22:02:16,NA,incomplete,false,true,NA,7,13,E5_Q3_ansR.png,right,NA,NA,NA,right,913,true,NA,NA,NA,NA,NA
Cb4TgGOr,NA,NA,Cb4TgGOr,2020-0188,2021-11-11,20:07:07,22:02:16,NA,incomplete,false,true,NA,7,14,E5_Q1_ansL.png,left,NA,NA,NA,right,655,false,NA,NA,NA,NA,NA
Cb4TgGOr,NA,NA,Cb4TgGOr,2020-0188,2021-11-11,20:07:07,22:02:16,NA,incomplete,false,true,NA,7,15,E5_Q5_ansR.png,right,NA,NA,NA,right,725,true,NA,NA,NA,NA,NA
Cb4TgGOr,NA,NA,Cb4TgGOr,2020-0188,2021-11-11,20:07:07,22:02:16,NA,incomplete,false,true,NA,7,16,E5_Q10_ansR.png,right,NA,NA,NA,right,832,true,NA,NA,NA,NA,NA
Cb4TgGOr,NA,NA,Cb4TgGOr,2020-0188,2021-11-11,20:07:07,22:02:16,NA,incomplete,false,true,NA,7,17,E5_Q8_ansL.png,left,NA,NA,NA,left,1187,true,NA,NA,NA,NA,NA
Cb4TgGOr,NA,NA,Cb4TgGOr,2020-0188,2021-11-11,20:07:07,22:02:16,NA,incomplete,false,true,NA,7,18,E5_Q7_ansL.png,left,NA,NA,NA,left,947,true,NA,NA,NA,NA,NA
Cb4TgGOr,NA,NA,Cb4TgGOr,2020-0188,2021-11-11,20:07:07,22:02:16,NA,incomplete,false,true,NA,7,19,E5_Q6_ansR.png,right,NA,NA,NA,right,1240.99999999907,true,NA,NA,NA,NA,NA
Cb4TgGOr,NA,NA,Cb4TgGOr,2020-0188,2021-11-11,20:07:07,22:02:16,NA,incomplete,false,true,NA,7,20,E21_Q5_ansR.png,right,NA,NA,NA,right,1595.99999999907,true,NA,NA,NA,NA,NA
Cb4TgGOr,NA,NA,Cb4TgGOr,2020-0188,2021-11-11,20:07:07,22:02:16,NA,incomplete,false,true,NA,7,21,E21_Q4_ansR.png,right,NA,NA,NA,right,794.000000000931,true,NA,NA,NA,NA,NA
Cb4TgGOr,NA,NA,Cb4TgGOr,2020-0188,2021-11-11,20:07:07,22:02:16,NA,incomplete,false,true,NA,7,22,E21_Q7_ansL.png,left,NA,NA,NA,left,1154,true,NA,NA,NA,NA,NA
Cb4TgGOr,NA,NA,Cb4TgGOr,2020-0188,2021-11-11,20:07:07,22:02:16,NA,incomplete,false,true,NA,7,23,E21_Q8_ansL.png,left,NA,NA,NA,left,1106,true,NA,NA,NA,NA,NA
Cb4TgGOr,NA,NA,Cb4TgGOr,2020-0188,2021-11-11,20:07:07,22:02:16,NA,incomplete,false,true,NA,7,24,E21_Q2_ansL.png,left,NA,NA,NA,left,1192,true,NA,NA,NA,NA,NA
Cb4TgGOr,NA,NA,Cb4TgGOr,2020-0188,2021-11-11,20:07:07,22:02:16,NA,incomplete,false,true,NA,7,25,E21_Q9_ansR.png,right,NA,NA,NA,right,1460,true,NA,NA,NA,NA,NA
Cb4TgGOr,NA,NA,Cb4TgGOr,2020-0188,2021-11-11,20:07:07,22:02:16,NA,incomplete,false,true,NA,7,26,E21_Q6_ansR.png,right,NA,NA,NA,right,1619.99999999907,true,NA,NA,NA,NA,NA
Cb4TgGOr,NA,NA,Cb4TgGOr,2020-0188,2021-11-11,20:07:07,22:02:16,NA,incomplete,false,true,NA,7,27,E21_Q3_ansR.png,right,NA,NA,NA,right,2069.99999999907,true,NA,NA,NA,NA,NA
Cb4TgGOr,NA,NA,Cb4TgGOr,2020-0188,2021-11-11,20:07:07,22:02:16,NA,incomplete,false,true,NA,7,28,E21_Q1_ansL.png,left,NA,NA,NA,left,1453.99999999907,true,NA,NA,NA,NA,NA
Cb4TgGOr,NA,NA,Cb4TgGOr,2020-0188,2021-11-11,20:07:07,22:02:16,NA,incomplete,false,true,NA,7,29,E21_Q10_ansL.png,left,NA,NA,NA,left,1373.99999999907,true,NA,NA,NA,NA,NA
Cb4TgGOr,NA,NA,Cb4TgGOr,2020-0188,2021-11-11,20:07:07,22:02:16,NA,incomplete,false,NA,true,7,0,NA,left,E21_Q9_ansR.png,E21_Q1_ansL.png,within,NA,NaN,NA,right,2781,0,0,1679
Cb4TgGOr,NA,NA,Cb4TgGOr,2020-0188,2021-11-11,20:07:07,22:02:16,NA,incomplete,false,NA,true,7,1,NA,right,E21_Q9_ansR.png,E21_Q7_ansL.png,within,NA,NaN,NA,right,1513,1,1,1045
Cb4TgGOr,NA,NA,Cb4TgGOr,2020-0188,2021-11-11,20:07:07,22:02:16,NA,incomplete,false,NA,true,7,2,NA,left,E7_Q1_ansL.png,E7_Q6_ansR.png,within,NA,NaN,NA,left,835,1,1,837
Cb4TgGOr,NA,NA,Cb4TgGOr,2020-0188,2021-11-11,20:07:07,22:02:16,NA,incomplete,false,NA,true,7,3,NA,right,E5_Q1_ansL.png,E5_Q9_ansR.png,within,NA,NaN,NA,left,1084,0,0,955.9999999990687
Cb4TgGOr,NA,NA,Cb4TgGOr,2020-0188,2021-11-11,20:07:07,22:02:16,NA,incomplete,false,NA,true,7,4,NA,right,E5_Q8_ansL.png,E5_Q1_ansL.png,within,NA,NaN,NA,right,1142,1,1,1179.0000000009313
Cb4TgGOr,NA,NA,Cb4TgGOr,2020-0188,2021-11-11,20:07:07,22:02:16,NA,incomplete,false,NA,true,7,5,NA,left,E21_Q8_ansL.png,E21_Q6_ansR.png,within,NA,NaN,NA,left,1777,1,1,1041
Cb4TgGOr,NA,NA,Cb4TgGOr,2020-0188,2021-11-11,20:07:07,22:02:16,NA,incomplete,false,NA,true,7,6,NA,right,E5_Q4_ansR.png,E7_Q6_ansR.png,between,NA,NaN,NA,right,1414,1,2,2663
Cb4TgGOr,NA,NA,Cb4TgGOr,2020-0188,2021-11-11,20:07:07,22:02:16,NA,incomplete,false,NA,true,7,7,NA,left,E5_Q5_ansR.png,E5_Q7_ansL.png,within,NA,NaN,NA,left,882.9999999990687,1,1,796
Cb4TgGOr,NA,NA,Cb4TgGOr,2020-0188,2021-11-11,20:07:07,22:02:16,NA,incomplete,false,NA,true,7,8,NA,right,E7_Q7_ansL.png,E7_Q4_ansR.png,within,NA,NaN,NA,right,1535,1,1,1181
Cb4TgGOr,NA,NA,Cb4TgGOr,2020-0188,2021-11-11,20:07:07,22:02:16,NA,incomplete,false,NA,true,7,9,NA,left,E5_Q2_ansL.png,E5_Q3_ansR.png,within,NA,NaN,NA,left,1687.9999999990687,1,0,1053
Cb4TgGOr,NA,NA,Cb4TgGOr,2020-0188,2021-11-11,20:07:07,22:02:16,NA,incomplete,false,NA,true,7,10,NA,left,E21_Q5_ansR.png,E21_Q8_ansL.png,within,NA,NaN,NA,left,739,1,1,1496
Cb4TgGOr,NA,NA,Cb4TgGOr,2020-0188,2021-11-11,20:07:07,22:02:16,NA,incomplete,false,NA,true,7,11,NA,right,E21_Q5_ansR.png,E5_Q8_ansL.png,between,NA,NaN,NA,left,2052,0,2,2589
Cb4TgGOr,NA,NA,Cb4TgGOr,2020-0188,2021-11-11,20:07:07,22:02:16,NA,incomplete,false,NA,true,7,12,NA,left,E21_Q6_ansR.png,E21_Q10_ansL.png,within,NA,NaN,NA,left,739,1,1,1568
Cb4TgGOr,NA,NA,Cb4TgGOr,2020-0188,2021-11-11,20:07:07,22:02:16,NA,incomplete,false,NA,true,7,13,NA,right,E21_Q4_ansR.png,E5_Q7_ansL.png,between,NA,NaN,NA,right,924,1,2,3033
Cb4TgGOr,NA,NA,Cb4TgGOr,2020-0188,2021-11-11,20:07:07,22:02:16,NA,incomplete,false,NA,true,7,14,NA,left,E21_Q2_ansL.png,E21_Q3_ansR.png,within,NA,NaN,NA,left,948,1,1,1497
Cb4TgGOr,NA,NA,Cb4TgGOr,2020-0188,2021-11-11,20:07:07,22:02:16,NA,incomplete,false,NA,true,7,15,NA,left,E7_Q3_ansR.png,E7_Q9_ansR.png,within,NA,NaN,NA,left,1053,1,1,1288
Cb4TgGOr,NA,NA,Cb4TgGOr,2020-0188,2021-11-11,20:07:07,22:02:16,NA,incomplete,false,NA,true,7,16,NA,right,E21_Q2_ansL.png,E21_Q4_ansR.png,within,NA,NaN,NA,right,843,1,1,907
Cb4TgGOr,NA,NA,Cb4TgGOr,2020-0188,2021-11-11,20:07:07,22:02:16,NA,incomplete,false,NA,true,7,17,NA,right,E7_Q4_ansR.png,E7_Q2_ansL.png,within,NA,NaN,NA,left,1004.0000000009313,0,1,1414
Cb4TgGOr,NA,NA,Cb4TgGOr,2020-0188,2021-11-11,20:07:07,22:02:16,NA,incomplete,false,NA,true,7,18,NA,left,E5_Q3_ansR.png,E5_Q10_ansR.png,within,NA,NaN,NA,left,836,1,0,1826
Cb4TgGOr,NA,NA,Cb4TgGOr,2020-0188,2021-11-11,20:07:07,22:02:16,NA,incomplete,false,NA,true,7,19,NA,left,E7_Q8_ansL.png,E7_Q5_ansR.png,within,NA,NaN,NA,right,2150,0,0,1657
Cb4TgGOr,NA,NA,Cb4TgGOr,2020-0188,2021-11-11,20:07:07,22:02:16,NA,incomplete,false,NA,true,7,20,NA,right,E5_Q5_ansR.png,E5_Q4_ansR.png,within,NA,NaN,NA,right,1004,1,0,1979.9999999990687
Cb4TgGOr,NA,NA,Cb4TgGOr,2020-0188,2021-11-11,20:07:07,22:02:16,NA,incomplete,false,NA,true,7,21,NA,right,E7_Q1_ansL.png,E7_Q5_ansR.png,within,NA,NaN,NA,right,980,1,1,1190
Cb4TgGOr,NA,NA,Cb4TgGOr,2020-0188,2021-11-11,20:07:07,22:02:16,NA,incomplete,false,NA,true,7,22,NA,right,E7_Q10_ansR.png,E7_Q9_ansR.png,within,NA,NaN,NA,left,923,0,1,1832.9999999990687
Cb4TgGOr,NA,NA,Cb4TgGOr,2020-0188,2021-11-11,20:07:07,22:02:16,NA,incomplete,false,NA,true,7,23,NA,left,E5_Q6_ansR.png,E21_Q7_ansL.png,between,NA,NaN,NA,right,1423,0,1,869
Cb4TgGOr,NA,NA,Cb4TgGOr,2020-0188,2021-11-11,20:07:07,22:02:16,NA,incomplete,false,NA,true,7,24,NA,left,E7_Q7_ansL.png,E5_Q9_ansR.png,between,NA,NaN,NA,left,866,1,3,3185.0000000009313
Cb4TgGOr,NA,NA,Cb4TgGOr,2020-0188,2021-11-11,20:07:07,22:02:16,NA,incomplete,false,NA,true,7,25,NA,right,E5_Q2_ansL.png,E7_Q10_ansR.png,between,NA,NaN,NA,right,1252,1,2,1439
Cb4TgGOr,NA,NA,Cb4TgGOr,2020-0188,2021-11-11,20:07:07,22:02:16,NA,incomplete,false,NA,true,7,26,NA,left,E5_Q10_ansR.png,E5_Q6_ansR.png,within,NA,NaN,NA,right,1067,0,1,2414
Cb4TgGOr,NA,NA,Cb4TgGOr,2020-0188,2021-11-11,20:07:07,22:02:16,NA,incomplete,false,true,NA,8,0,E19_Q10_ansL.png,left,NA,NA,NA,left,1584,true,NA,NA,NA,NA,NA
Cb4TgGOr,NA,NA,Cb4TgGOr,2020-0188,2021-11-11,20:07:07,22:02:16,NA,incomplete,false,true,NA,8,1,E19_Q5_ansR.png,right,NA,NA,NA,right,1027,true,NA,NA,NA,NA,NA
Cb4TgGOr,NA,NA,Cb4TgGOr,2020-0188,2021-11-11,20:07:07,22:02:16,NA,incomplete,false,true,NA,8,2,E19_Q4_ansR.png,right,NA,NA,NA,right,865,true,NA,NA,NA,NA,NA
Cb4TgGOr,NA,NA,Cb4TgGOr,2020-0188,2021-11-11,20:07:07,22:02:16,NA,incomplete,false,true,NA,8,3,E19_Q7_ansL.png,left,NA,NA,NA,left,1389,true,NA,NA,NA,NA,NA
Cb4TgGOr,NA,NA,Cb4TgGOr,2020-0188,2021-11-11,20:07:07,22:02:16,NA,incomplete,false,true,NA,8,4,E19_Q2_ansL.png,left,NA,NA,NA,left,1508,true,NA,NA,NA,NA,NA
Cb4TgGOr,NA,NA,Cb4TgGOr,2020-0188,2021-11-11,20:07:07,22:02:16,NA,incomplete,false,true,NA,8,5,E19_Q9_ansR.png,right,NA,NA,NA,right,1057,true,NA,NA,NA,NA,NA
Cb4TgGOr,NA,NA,Cb4TgGOr,2020-0188,2021-11-11,20:07:07,22:02:16,NA,incomplete,false,true,NA,8,6,E19_Q8_ansL.png,left,NA,NA,NA,left,1229,true,NA,NA,NA,NA,NA
Cb4TgGOr,NA,NA,Cb4TgGOr,2020-0188,2021-11-11,20:07:07,22:02:16,NA,incomplete,false,true,NA,8,7,E19_Q6_ansR.png,right,NA,NA,NA,right,1030,true,NA,NA,NA,NA,NA
Cb4TgGOr,NA,NA,Cb4TgGOr,2020-0188,2021-11-11,20:07:07,22:02:16,NA,incomplete,false,true,NA,8,8,E19_Q3_ansR.png,right,NA,NA,NA,right,2219.99999999907,true,NA,NA,NA,NA,NA
Cb4TgGOr,NA,NA,Cb4TgGOr,2020-0188,2021-11-11,20:07:07,22:02:16,NA,incomplete,false,true,NA,8,9,E19_Q1_ansL.png,left,NA,NA,NA,left,1034.99999999907,true,NA,NA,NA,NA,NA
Cb4TgGOr,NA,NA,Cb4TgGOr,2020-0188,2021-11-11,20:07:07,22:02:16,NA,incomplete,false,true,NA,8,10,E29_Q3_ansR.png,right,NA,NA,NA,right,1856.99999999907,true,NA,NA,NA,NA,NA
Cb4TgGOr,NA,NA,Cb4TgGOr,2020-0188,2021-11-11,20:07:07,22:02:16,NA,incomplete,false,true,NA,8,11,E29_Q6_ansR.png,right,NA,NA,NA,right,1824.99999999907,true,NA,NA,NA,NA,NA
Cb4TgGOr,NA,NA,Cb4TgGOr,2020-0188,2021-11-11,20:07:07,22:02:16,NA,incomplete,false,true,NA,8,12,E29_Q10_ansL.png,left,NA,NA,NA,left,1458,true,NA,NA,NA,NA,NA
Cb4TgGOr,NA,NA,Cb4TgGOr,2020-0188,2021-11-11,20:07:07,22:02:16,NA,incomplete,false,true,NA,8,13,E29_Q1_ansL.png,left,NA,NA,NA,left,1770,true,NA,NA,NA,NA,NA
Cb4TgGOr,NA,NA,Cb4TgGOr,2020-0188,2021-11-11,20:07:07,22:02:16,NA,incomplete,false,true,NA,8,14,E29_Q7_ansL.png,left,NA,NA,NA,left,1536,true,NA,NA,NA,NA,NA
Cb4TgGOr,NA,NA,Cb4TgGOr,2020-0188,2021-11-11,20:07:07,22:02:16,NA,incomplete,false,true,NA,8,15,E29_Q5_ansR.png,right,NA,NA,NA,right,1050,true,NA,NA,NA,NA,NA
Cb4TgGOr,NA,NA,Cb4TgGOr,2020-0188,2021-11-11,20:07:07,22:02:16,NA,incomplete,false,true,NA,8,16,E29_Q4_ansR.png,right,NA,NA,NA,right,1012.00000000093,true,NA,NA,NA,NA,NA
Cb4TgGOr,NA,NA,Cb4TgGOr,2020-0188,2021-11-11,20:07:07,22:02:16,NA,incomplete,false,true,NA,8,17,E29_Q2_ansL.png,left,NA,NA,NA,right,2224,false,NA,NA,NA,NA,NA
Cb4TgGOr,NA,NA,Cb4TgGOr,2020-0188,2021-11-11,20:07:07,22:02:16,NA,incomplete,false,true,NA,8,18,E29_Q8_ansL.png,left,NA,NA,NA,left,1856,true,NA,NA,NA,NA,NA
Cb4TgGOr,NA,NA,Cb4TgGOr,2020-0188,2021-11-11,20:07:07,22:02:16,NA,incomplete,false,true,NA,8,19,E29_Q9_ansR.png,right,NA,NA,NA,left,2988,false,NA,NA,NA,NA,NA
Cb4TgGOr,NA,NA,Cb4TgGOr,2020-0188,2021-11-11,20:07:07,22:02:16,NA,incomplete,false,true,NA,8,20,E32_Q4_ansR.png,right,NA,NA,NA,right,2884,true,NA,NA,NA,NA,NA
Cb4TgGOr,NA,NA,Cb4TgGOr,2020-0188,2021-11-11,20:07:07,22:02:16,NA,incomplete,false,true,NA,8,21,E32_Q9_ansR.png,right,NA,NA,NA,right,961.000000000931,true,NA,NA,NA,NA,NA
Cb4TgGOr,NA,NA,Cb4TgGOr,2020-0188,2021-11-11,20:07:07,22:02:16,NA,incomplete,false,true,NA,8,22,E32_Q5_ansR.png,right,NA,NA,NA,right,1554.99999999907,true,NA,NA,NA,NA,NA
Cb4TgGOr,NA,NA,Cb4TgGOr,2020-0188,2021-11-11,20:07:07,22:02:16,NA,incomplete,false,true,NA,8,23,E32_Q8_ansL.png,left,NA,NA,NA,left,2068.99999999907,true,NA,NA,NA,NA,NA
Cb4TgGOr,NA,NA,Cb4TgGOr,2020-0188,2021-11-11,20:07:07,22:02:16,NA,incomplete,false,true,NA,8,24,E32_Q7_ansL.png,left,NA,NA,NA,left,1701.99999999907,true,NA,NA,NA,NA,NA
Cb4TgGOr,NA,NA,Cb4TgGOr,2020-0188,2021-11-11,20:07:07,22:02:16,NA,incomplete,false,true,NA,8,25,E32_Q10_ansL.png,left,NA,NA,NA,left,1275.99999999907,true,NA,NA,NA,NA,NA
Cb4TgGOr,NA,NA,Cb4TgGOr,2020-0188,2021-11-11,20:07:07,22:02:16,NA,incomplete,false,true,NA,8,26,E32_Q6_ansR.png,right,NA,NA,NA,right,1529,true,NA,NA,NA,NA,NA
Cb4TgGOr,NA,NA,Cb4TgGOr,2020-0188,2021-11-11,20:07:07,22:02:16,NA,incomplete,false,true,NA,8,27,E32_Q3_ansR.png,right,NA,NA,NA,right,1176.00000000093,true,NA,NA,NA,NA,NA
Cb4TgGOr,NA,NA,Cb4TgGOr,2020-0188,2021-11-11,20:07:07,22:02:16,NA,incomplete,false,true,NA,8,28,E32_Q2_ansL.png,left,NA,NA,NA,left,1394.00000000093,true,NA,NA,NA,NA,NA
Cb4TgGOr,NA,NA,Cb4TgGOr,2020-0188,2021-11-11,20:07:07,22:02:16,NA,incomplete,false,true,NA,8,29,E32_Q1_ansL.png,left,NA,NA,NA,left,1509.00000000093,true,NA,NA,NA,NA,NA
Cb4TgGOr,NA,NA,Cb4TgGOr,2020-0188,2021-11-11,20:07:07,22:02:16,NA,incomplete,false,NA,true,8,0,NA,right,E29_Q4_ansR.png,E29_Q1_ansL.png,within,NA,NaN,NA,right,1995,1,0,1433
Cb4TgGOr,NA,NA,Cb4TgGOr,2020-0188,2021-11-11,20:07:07,22:02:16,NA,incomplete,false,NA,true,8,1,NA,right,E19_Q3_ansR.png,E19_Q9_ansR.png,within,NA,NaN,NA,left,995.9999999990687,0,0,2197
Cb4TgGOr,NA,NA,Cb4TgGOr,2020-0188,2021-11-11,20:07:07,22:02:16,NA,incomplete,false,NA,true,8,2,NA,left,E19_Q1_ansL.png,E29_Q10_ansL.png,between,NA,NaN,NA,left,940,1,2,1742.9999999990687
Cb4TgGOr,NA,NA,Cb4TgGOr,2020-0188,2021-11-11,20:07:07,22:02:16,NA,incomplete,false,NA,true,8,3,NA,left,E29_Q7_ansL.png,E29_Q2_ansL.png,within,NA,NaN,NA,left,996,1,1,893
Cb4TgGOr,NA,NA,Cb4TgGOr,2020-0188,2021-11-11,20:07:07,22:02:16,NA,incomplete,false,NA,true,8,4,NA,right,E19_Q6_ansR.png,E19_Q2_ansL.png,within,NA,NaN,NA,left,1478.0000000009313,0,1,1480
Cb4TgGOr,NA,NA,Cb4TgGOr,2020-0188,2021-11-11,20:07:07,22:02:16,NA,incomplete,false,NA,true,8,5,NA,right,E19_Q1_ansL.png,E19_Q8_ansL.png,within,NA,NaN,NA,right,1729,1,1,916
Cb4TgGOr,NA,NA,Cb4TgGOr,2020-0188,2021-11-11,20:07:07,22:02:16,NA,incomplete,false,NA,true,8,6,NA,right,E32_Q5_ansR.png,E29_Q9_ansR.png,between,NA,NaN,NA,right,1343,1,2,2228
Cb4TgGOr,NA,NA,Cb4TgGOr,2020-0188,2021-11-11,20:07:07,22:02:16,NA,incomplete,false,NA,true,8,7,NA,left,E29_Q8_ansL.png,E32_Q9_ansR.png,between,NA,NaN,NA,left,1092,1,3,4755
Cb4TgGOr,NA,NA,Cb4TgGOr,2020-0188,2021-11-11,20:07:07,22:02:16,NA,incomplete,false,NA,true,8,8,NA,left,E32_Q8_ansL.png,E32_Q6_ansR.png,within,NA,NaN,NA,left,1020,1,1,997
Cb4TgGOr,NA,NA,Cb4TgGOr,2020-0188,2021-11-11,20:07:07,22:02:16,NA,incomplete,false,NA,true,8,9,NA,right,E32_Q7_ansL.png,E32_Q9_ansR.png,within,NA,NaN,NA,right,1945,1,1,989
Cb4TgGOr,NA,NA,Cb4TgGOr,2020-0188,2021-11-11,20:07:07,22:02:16,NA,incomplete,false,NA,true,8,10,NA,right,E19_Q9_ansR.png,E19_Q4_ansR.png,within,NA,NaN,NA,right,1454,1,1,980.9999999990687
Cb4TgGOr,NA,NA,Cb4TgGOr,2020-0188,2021-11-11,20:07:07,22:02:16,NA,incomplete,false,NA,true,8,11,NA,right,E29_Q9_ansR.png,E29_Q4_ansR.png,within,NA,NaN,NA,left,908,0,1,1206
Cb4TgGOr,NA,NA,Cb4TgGOr,2020-0188,2021-11-11,20:07:07,22:02:16,NA,incomplete,false,NA,true,8,12,NA,right,E19_Q8_ansL.png,E19_Q7_ansL.png,within,NA,NaN,NA,right,1494.9999999990687,1,1,1103.0000000009313
Cb4TgGOr,NA,NA,Cb4TgGOr,2020-0188,2021-11-11,20:07:07,22:02:16,NA,incomplete,false,NA,true,8,13,NA,left,E29_Q2_ansL.png,E32_Q4_ansR.png,between,NA,NaN,NA,left,948.0000000009313,1,2,1656
Cb4TgGOr,NA,NA,Cb4TgGOr,2020-0188,2021-11-11,20:07:07,22:02:16,NA,incomplete,false,NA,true,8,14,NA,right,E19_Q7_ansL.png,E19_Q10_ansL.png,within,NA,NaN,NA,right,1284,1,1,1183
Cb4TgGOr,NA,NA,Cb4TgGOr,2020-0188,2021-11-11,20:07:07,22:02:16,NA,incomplete,false,NA,true,8,15,NA,left,E29_Q5_ansR.png,E29_Q8_ansL.png,within,NA,NaN,NA,left,1134,1,1,1649
Cb4TgGOr,NA,NA,Cb4TgGOr,2020-0188,2021-11-11,20:07:07,22:02:16,NA,incomplete,false,NA,true,8,16,NA,left,E29_Q10_ansL.png,E29_Q5_ansR.png,within,NA,NaN,NA,left,827,1,1,1986.0000000009313
Cb4TgGOr,NA,NA,Cb4TgGOr,2020-0188,2021-11-11,20:07:07,22:02:16,NA,incomplete,false,NA,true,8,17,NA,right,E29_Q1_ansL.png,E29_Q3_ansR.png,within,NA,NaN,NA,right,1141.9999999990687,1,1,1141
Cb4TgGOr,NA,NA,Cb4TgGOr,2020-0188,2021-11-11,20:07:07,22:02:16,NA,incomplete,false,NA,true,8,18,NA,right,E32_Q10_ansL.png,E32_Q5_ansR.png,within,NA,NaN,NA,right,1197,1,1,1487
Cb4TgGOr,NA,NA,Cb4TgGOr,2020-0188,2021-11-11,20:07:07,22:02:16,NA,incomplete,false,NA,true,8,19,NA,right,E32_Q1_ansL.png,E32_Q6_ansR.png,within,NA,NaN,NA,right,1116,1,1,1176.0000000009313
Cb4TgGOr,NA,NA,Cb4TgGOr,2020-0188,2021-11-11,20:07:07,22:02:16,NA,incomplete,false,NA,true,8,20,NA,right,E32_Q3_ansR.png,E32_Q7_ansL.png,within,NA,NaN,NA,right,1897,1,1,1110
Cb4TgGOr,NA,NA,Cb4TgGOr,2020-0188,2021-11-11,20:07:07,22:02:16,NA,incomplete,false,NA,true,8,21,NA,right,E32_Q2_ansL.png,E32_Q10_ansL.png,within,NA,NaN,NA,left,790.0000000009313,0,1,1030
Cb4TgGOr,NA,NA,Cb4TgGOr,2020-0188,2021-11-11,20:07:07,22:02:16,NA,incomplete,false,NA,true,8,22,NA,left,E32_Q4_ansR.png,E32_Q8_ansL.png,within,NA,NaN,NA,left,1357,1,1,950.0000000009313
Cb4TgGOr,NA,NA,Cb4TgGOr,2020-0188,2021-11-11,20:07:07,22:02:16,NA,incomplete,false,NA,true,8,23,NA,right,E19_Q2_ansL.png,E19_Q5_ansR.png,within,NA,NaN,NA,right,2066,1,0,2391
Cb4TgGOr,NA,NA,Cb4TgGOr,2020-0188,2021-11-11,20:07:07,22:02:16,NA,incomplete,false,NA,true,8,24,NA,left,E19_Q3_ansR.png,E29_Q6_ansR.png,between,NA,NaN,NA,left,1535.9999999990687,1,3,708
Cb4TgGOr,NA,NA,Cb4TgGOr,2020-0188,2021-11-11,20:07:07,22:02:16,NA,incomplete,false,NA,true,8,25,NA,right,E29_Q3_ansR.png,E19_Q6_ansR.png,between,NA,NaN,NA,right,2219,1,2,1198
Cb4TgGOr,NA,NA,Cb4TgGOr,2020-0188,2021-11-11,20:07:07,22:02:16,NA,incomplete,false,NA,true,8,26,NA,right,E29_Q7_ansL.png,E29_Q6_ansR.png,within,NA,NaN,NA,right,1293,1,1,1119
Cb4TgGOr,NA,NA,Cb4TgGOr,2020-0188,2021-11-11,20:07:07,22:02:16,NA,incomplete,false,true,NA,9,0,E25_Q9_ansL.png,left,NA,NA,NA,left,2599,true,NA,NA,NA,NA,NA
Cb4TgGOr,NA,NA,Cb4TgGOr,2020-0188,2021-11-11,20:07:07,22:02:16,NA,incomplete,false,true,NA,9,1,E25_Q4_ansL.png,left,NA,NA,NA,left,2218,true,NA,NA,NA,NA,NA
Cb4TgGOr,NA,NA,Cb4TgGOr,2020-0188,2021-11-11,20:07:07,22:02:16,NA,incomplete,false,true,NA,9,2,E25_Q3_ansL.png,left,NA,NA,NA,left,2860.00000000093,true,NA,NA,NA,NA,NA
Cb4TgGOr,NA,NA,Cb4TgGOr,2020-0188,2021-11-11,20:07:07,22:02:16,NA,incomplete,false,true,NA,9,3,E25_Q10_ansR.png,right,NA,NA,NA,left,1982,false,NA,NA,NA,NA,NA
Cb4TgGOr,NA,NA,Cb4TgGOr,2020-0188,2021-11-11,20:07:07,22:02:16,NA,incomplete,false,true,NA,9,4,E25_Q1_ansR.png,right,NA,NA,NA,right,2018,true,NA,NA,NA,NA,NA
Cb4TgGOr,NA,NA,Cb4TgGOr,2020-0188,2021-11-11,20:07:07,22:02:16,NA,incomplete,false,true,NA,9,5,E25_Q8_ansR.png,right,NA,NA,NA,right,2194.99999999907,true,NA,NA,NA,NA,NA
Cb4TgGOr,NA,NA,Cb4TgGOr,2020-0188,2021-11-11,20:07:07,22:02:16,NA,incomplete,false,true,NA,9,6,E25_Q6_ansL.png,left,NA,NA,NA,left,1561,true,NA,NA,NA,NA,NA
Cb4TgGOr,NA,NA,Cb4TgGOr,2020-0188,2021-11-11,20:07:07,22:02:16,NA,incomplete,false,true,NA,9,7,E25_Q2_ansR.png,right,NA,NA,NA,right,2248,true,NA,NA,NA,NA,NA
Cb4TgGOr,NA,NA,Cb4TgGOr,2020-0188,2021-11-11,20:07:07,22:02:16,NA,incomplete,false,true,NA,9,8,E25_Q7_ansR.png,right,NA,NA,NA,right,2313,true,NA,NA,NA,NA,NA
Cb4TgGOr,NA,NA,Cb4TgGOr,2020-0188,2021-11-11,20:07:07,22:02:16,NA,incomplete,false,true,NA,9,9,E25_Q5_ansL.png,left,NA,NA,NA,none,0,false,NA,NA,NA,NA,NA
Cb4TgGOr,NA,NA,Cb4TgGOr,2020-0188,2021-11-11,20:07:07,22:02:16,NA,incomplete,false,true,NA,9,10,E13_Q6_ansR.png,right,NA,NA,NA,none,0,false,NA,NA,NA,NA,NA
Cb4TgGOr,NA,NA,Cb4TgGOr,2020-0188,2021-11-11,20:07:07,22:02:16,NA,incomplete,false,true,NA,9,11,E13_Q8_ansL.png,left,NA,NA,NA,left,1215,true,NA,NA,NA,NA,NA
Cb4TgGOr,NA,NA,Cb4TgGOr,2020-0188,2021-11-11,20:07:07,22:02:16,NA,incomplete,false,true,NA,9,12,E13_Q7_ansL.png,left,NA,NA,NA,left,1341,true,NA,NA,NA,NA,NA
Cb4TgGOr,NA,NA,Cb4TgGOr,2020-0188,2021-11-11,20:07:07,22:02:16,NA,incomplete,false,true,NA,9,13,E13_Q1_ansL.png,left,NA,NA,NA,left,2267,true,NA,NA,NA,NA,NA
Cb4TgGOr,NA,NA,Cb4TgGOr,2020-0188,2021-11-11,20:07:07,22:02:16,NA,incomplete,false,true,NA,9,14,E13_Q5_ansR.png,right,NA,NA,NA,right,1378.00000000093,true,NA,NA,NA,NA,NA
Cb4TgGOr,NA,NA,Cb4TgGOr,2020-0188,2021-11-11,20:07:07,22:02:16,NA,incomplete,false,true,NA,9,15,E13_Q2_ansL.png,left,NA,NA,NA,left,2694.00000000093,true,NA,NA,NA,NA,NA
Cb4TgGOr,NA,NA,Cb4TgGOr,2020-0188,2021-11-11,20:07:07,22:02:16,NA,incomplete,false,true,NA,9,16,E13_Q4_ansR.png,right,NA,NA,NA,right,1333,true,NA,NA,NA,NA,NA
Cb4TgGOr,NA,NA,Cb4TgGOr,2020-0188,2021-11-11,20:07:07,22:02:16,NA,incomplete,false,true,NA,9,17,E13_Q3_ansR.png,right,NA,NA,NA,right,2441,true,NA,NA,NA,NA,NA
Cb4TgGOr,NA,NA,Cb4TgGOr,2020-0188,2021-11-11,20:07:07,22:02:16,NA,incomplete,false,true,NA,9,18,E13_Q10_ansL.png,left,NA,NA,NA,left,3163,true,NA,NA,NA,NA,NA
Cb4TgGOr,NA,NA,Cb4TgGOr,2020-0188,2021-11-11,20:07:07,22:02:16,NA,incomplete,false,true,NA,9,19,E13_Q9_ansR.png,right,NA,NA,NA,right,1529.00000000093,true,NA,NA,NA,NA,NA
Cb4TgGOr,NA,NA,Cb4TgGOr,2020-0188,2021-11-11,20:07:07,22:02:16,NA,incomplete,false,true,NA,9,20,E6_Q4_ansR.png,right,NA,NA,NA,right,1838.99999999907,true,NA,NA,NA,NA,NA
Cb4TgGOr,NA,NA,Cb4TgGOr,2020-0188,2021-11-11,20:07:07,22:02:16,NA,incomplete,false,true,NA,9,21,E6_Q9_ansL.png,left,NA,NA,NA,left,958.999999999069,true,NA,NA,NA,NA,NA
Cb4TgGOr,NA,NA,Cb4TgGOr,2020-0188,2021-11-11,20:07:07,22:02:16,NA,incomplete,false,true,NA,9,22,E6_Q1_ansL.png,left,NA,NA,NA,left,2092,true,NA,NA,NA,NA,NA
Cb4TgGOr,NA,NA,Cb4TgGOr,2020-0188,2021-11-11,20:07:07,22:02:16,NA,incomplete,false,true,NA,9,23,E6_Q5_ansR.png,right,NA,NA,NA,right,1981,true,NA,NA,NA,NA,NA
Cb4TgGOr,NA,NA,Cb4TgGOr,2020-0188,2021-11-11,20:07:07,22:02:16,NA,incomplete,false,true,NA,9,24,E6_Q8_ansL.png,left,NA,NA,NA,right,1291,false,NA,NA,NA,NA,NA
Cb4TgGOr,NA,NA,Cb4TgGOr,2020-0188,2021-11-11,20:07:07,22:02:16,NA,incomplete,false,true,NA,9,25,E6_Q2_ansL.png,left,NA,NA,NA,left,1215,true,NA,NA,NA,NA,NA
Cb4TgGOr,NA,NA,Cb4TgGOr,2020-0188,2021-11-11,20:07:07,22:02:16,NA,incomplete,false,true,NA,9,26,E6_Q3_ansR.png,right,NA,NA,NA,right,2594.99999999907,true,NA,NA,NA,NA,NA
Cb4TgGOr,NA,NA,Cb4TgGOr,2020-0188,2021-11-11,20:07:07,22:02:16,NA,incomplete,false,true,NA,9,27,E6_Q6_ansR.png,right,NA,NA,NA,right,1102.00000000093,true,NA,NA,NA,NA,NA
Cb4TgGOr,NA,NA,Cb4TgGOr,2020-0188,2021-11-11,20:07:07,22:02:16,NA,incomplete,false,true,NA,9,28,E6_Q7_ansL.png,left,NA,NA,NA,left,1624,true,NA,NA,NA,NA,NA
Cb4TgGOr,NA,NA,Cb4TgGOr,2020-0188,2021-11-11,20:07:07,22:02:16,NA,incomplete,false,true,NA,9,29,E6_Q10_ansL.png,left,NA,NA,NA,left,1238,true,NA,NA,NA,NA,NA
Cb4TgGOr,NA,NA,Cb4TgGOr,2020-0188,2021-11-11,20:07:07,22:02:16,NA,incomplete,false,NA,true,9,0,NA,right,E13_Q3_ansR.png,E13_Q5_ansR.png,within,NA,NaN,NA,right,1439,1,0,1691
Cb4TgGOr,NA,NA,Cb4TgGOr,2020-0188,2021-11-11,20:07:07,22:02:16,NA,incomplete,false,NA,true,9,1,NA,right,E6_Q3_ansR.png,E6_Q5_ansR.png,within,NA,NaN,NA,left,1608,0,1,970.9999999990687
Cb4TgGOr,NA,NA,Cb4TgGOr,2020-0188,2021-11-11,20:07:07,22:02:16,NA,incomplete,false,NA,true,9,2,NA,left,E25_Q5_ansL.png,E13_Q7_ansL.png,between,NA,NaN,NA,left,1368,1,1,2874
Cb4TgGOr,NA,NA,Cb4TgGOr,2020-0188,2021-11-11,20:07:07,22:02:16,NA,incomplete,false,NA,true,9,3,NA,right,E6_Q9_ansL.png,E13_Q10_ansL.png,between,NA,NaN,NA,right,4409,1,2,2446
Cb4TgGOr,NA,NA,Cb4TgGOr,2020-0188,2021-11-11,20:07:07,22:02:16,NA,incomplete,false,NA,true,9,4,NA,left,E6_Q1_ansL.png,E6_Q2_ansL.png,within,NA,NaN,NA,right,3347,0,0,1190.0000000009313
Cb4TgGOr,NA,NA,Cb4TgGOr,2020-0188,2021-11-11,20:07:07,22:02:16,NA,incomplete,false,NA,true,9,5,NA,right,E25_Q8_ansR.png,E25_Q3_ansL.png,within,NA,NaN,NA,right,1728,1,1,2148
Cb4TgGOr,NA,NA,Cb4TgGOr,2020-0188,2021-11-11,20:07:07,22:02:16,NA,incomplete,false,NA,true,9,6,NA,left,E6_Q2_ansL.png,E6_Q7_ansL.png,within,NA,NaN,NA,left,2132,1,1,1011.9999999990687
Cb4TgGOr,NA,NA,Cb4TgGOr,2020-0188,2021-11-11,20:07:07,22:02:16,NA,incomplete,false,NA,true,9,7,NA,left,E13_Q2_ansL.png,E13_Q10_ansL.png,within,NA,NaN,NA,left,2904,1,0,1704.9999999990687
Cb4TgGOr,NA,NA,Cb4TgGOr,2020-0188,2021-11-11,20:07:07,22:02:16,NA,incomplete,false,NA,true,9,8,NA,left,E25_Q6_ansL.png,E25_Q5_ansL.png,within,NA,NaN,NA,left,995,1,0,1753.0000000009313
Cb4TgGOr,NA,NA,Cb4TgGOr,2020-0188,2021-11-11,20:07:07,22:02:16,NA,incomplete,false,NA,true,9,9,NA,left,E13_Q3_ansR.png,E6_Q4_ansR.png,between,NA,NaN,NA,left,2566,1,2,3307
Cb4TgGOr,NA,NA,Cb4TgGOr,2020-0188,2021-11-11,20:07:07,22:02:16,NA,incomplete,false,NA,true,9,10,NA,right,E6_Q10_ansL.png,E6_Q3_ansR.png,within,NA,NaN,NA,right,1181,1,1,4907.999999999069
Cb4TgGOr,NA,NA,Cb4TgGOr,2020-0188,2021-11-11,20:07:07,22:02:16,NA,incomplete,false,NA,true,9,11,NA,left,E25_Q2_ansR.png,E13_Q6_ansR.png,between,NA,NaN,NA,left,1495,1,3,1939.0000000009313
Cb4TgGOr,NA,NA,Cb4TgGOr,2020-0188,2021-11-11,20:07:07,22:02:16,NA,incomplete,false,NA,true,9,12,NA,right,E25_Q2_ansR.png,E25_Q1_ansR.png,within,NA,NaN,NA,left,1083,0,1,1220
Cb4TgGOr,NA,NA,Cb4TgGOr,2020-0188,2021-11-11,20:07:07,22:02:16,NA,incomplete,false,NA,true,9,13,NA,left,E13_Q8_ansL.png,E13_Q5_ansR.png,within,NA,NaN,NA,left,1960.0000000009313,1,0,1930
Cb4TgGOr,NA,NA,Cb4TgGOr,2020-0188,2021-11-11,20:07:07,22:02:16,NA,incomplete,false,NA,true,9,14,NA,left,E13_Q4_ansR.png,E13_Q9_ansR.png,within,NA,NaN,NA,left,4917,1,1,1011.9999999990687
Cb4TgGOr,NA,NA,Cb4TgGOr,2020-0188,2021-11-11,20:07:07,22:02:16,NA,incomplete,false,NA,true,9,15,NA,right,E25_Q1_ansR.png,E25_Q4_ansL.png,within,NA,NaN,NA,right,1891.0000000009313,1,1,1954
Cb4TgGOr,NA,NA,Cb4TgGOr,2020-0188,2021-11-11,20:07:07,22:02:16,NA,incomplete,false,NA,true,9,16,NA,left,E25_Q8_ansR.png,E25_Q7_ansR.png,within,NA,NaN,NA,right,1470,0,1,1029
Cb4TgGOr,NA,NA,Cb4TgGOr,2020-0188,2021-11-11,20:07:07,22:02:16,NA,incomplete,false,NA,true,9,17,NA,right,E6_Q8_ansL.png,E6_Q9_ansL.png,within,NA,NaN,NA,right,1406,1,1,989
Cb4TgGOr,NA,NA,Cb4TgGOr,2020-0188,2021-11-11,20:07:07,22:02:16,NA,incomplete,false,NA,true,9,18,NA,left,E13_Q9_ansR.png,E6_Q1_ansL.png,between,NA,NaN,NA,left,922,1,2,1907
Cb4TgGOr,NA,NA,Cb4TgGOr,2020-0188,2021-11-11,20:07:07,22:02:16,NA,incomplete,false,NA,true,9,19,NA,left,E25_Q9_ansL.png,E25_Q10_ansR.png,within,NA,NaN,NA,left,1092,1,1,1110
Cb4TgGOr,NA,NA,Cb4TgGOr,2020-0188,2021-11-11,20:07:07,22:02:16,NA,incomplete,false,NA,true,9,20,NA,right,E13_Q8_ansL.png,E25_Q7_ansR.png,between,NA,NaN,NA,right,1221,1,2,3642
Cb4TgGOr,NA,NA,Cb4TgGOr,2020-0188,2021-11-11,20:07:07,22:02:16,NA,incomplete,false,NA,true,9,21,NA,left,E13_Q7_ansL.png,E13_Q2_ansL.png,within,NA,NaN,NA,left,7674,1,1,1632
Cb4TgGOr,NA,NA,Cb4TgGOr,2020-0188,2021-11-11,20:07:07,22:02:16,NA,incomplete,false,NA,true,9,22,NA,right,E13_Q4_ansR.png,E13_Q1_ansL.png,within,NA,NaN,NA,right,5841,1,0,1246
Cb4TgGOr,NA,NA,Cb4TgGOr,2020-0188,2021-11-11,20:07:07,22:02:16,NA,incomplete,false,NA,true,9,23,NA,left,E25_Q10_ansR.png,E25_Q6_ansL.png,within,NA,NaN,NA,right,1680.0000000009313,0,1,2659
Cb4TgGOr,NA,NA,Cb4TgGOr,2020-0188,2021-11-11,20:07:07,22:02:16,NA,incomplete,false,NA,true,9,24,NA,right,E6_Q5_ansR.png,E6_Q4_ansR.png,within,NA,NaN,NA,left,1053,0,1,1157.0000000009313
Cb4TgGOr,NA,NA,Cb4TgGOr,2020-0188,2021-11-11,20:07:07,22:02:16,NA,incomplete,false,NA,true,9,25,NA,right,E13_Q1_ansL.png,E13_Q6_ansR.png,within,NA,NaN,NA,left,1093,0,1,1238.0000000009313
Cb4TgGOr,NA,NA,Cb4TgGOr,2020-0188,2021-11-11,20:07:07,22:02:16,NA,incomplete,false,NA,true,9,26,NA,right,E6_Q6_ansR.png,E6_Q8_ansL.png,within,NA,NaN,NA,left,1189,0,1,1526
Cb4TgGOr,NA,NA,Cb4TgGOr,2020-0188,2021-11-11,20:07:07,22:02:16,NA,incomplete,false,true,NA,10,0,E30_Q2_ansL.png,left,NA,NA,NA,left,3324,true,NA,NA,NA,NA,NA
Cb4TgGOr,NA,NA,Cb4TgGOr,2020-0188,2021-11-11,20:07:07,22:02:16,NA,incomplete,false,true,NA,10,1,E30_Q8_ansL.png,left,NA,NA,NA,right,1977.00000000093,false,NA,NA,NA,NA,NA
Cb4TgGOr,NA,NA,Cb4TgGOr,2020-0188,2021-11-11,20:07:07,22:02:16,NA,incomplete,false,true,NA,10,2,E30_Q6_ansR.png,right,NA,NA,NA,right,1373,true,NA,NA,NA,NA,NA
Cb4TgGOr,NA,NA,Cb4TgGOr,2020-0188,2021-11-11,20:07:07,22:02:16,NA,incomplete,false,true,NA,10,3,E30_Q9_ansL.png,left,NA,NA,NA,left,2547,true,NA,NA,NA,NA,NA
Cb4TgGOr,NA,NA,Cb4TgGOr,2020-0188,2021-11-11,20:07:07,22:02:16,NA,incomplete,false,true,NA,10,4,E30_Q7_ansL.png,left,NA,NA,NA,right,3119,false,NA,NA,NA,NA,NA
Cb4TgGOr,NA,NA,Cb4TgGOr,2020-0188,2021-11-11,20:07:07,22:02:16,NA,incomplete,false,true,NA,10,5,E30_Q10_ansR.png,right,NA,NA,NA,right,1600,true,NA,NA,NA,NA,NA
Cb4TgGOr,NA,NA,Cb4TgGOr,2020-0188,2021-11-11,20:07:07,22:02:16,NA,incomplete,false,true,NA,10,6,E30_Q4_ansL.png,left,NA,NA,NA,left,1800.00000000093,true,NA,NA,NA,NA,NA
Cb4TgGOr,NA,NA,Cb4TgGOr,2020-0188,2021-11-11,20:07:07,22:02:16,NA,incomplete,false,true,NA,10,7,E30_Q1_ansL.png,left,NA,NA,NA,left,2198,true,NA,NA,NA,NA,NA
Cb4TgGOr,NA,NA,Cb4TgGOr,2020-0188,2021-11-11,20:07:07,22:02:16,NA,incomplete,false,true,NA,10,8,E30_Q5_ansR.png,right,NA,NA,NA,right,1465,true,NA,NA,NA,NA,NA
Cb4TgGOr,NA,NA,Cb4TgGOr,2020-0188,2021-11-11,20:07:07,22:02:16,NA,incomplete,false,true,NA,10,9,E30_Q3_ansL.png,left,NA,NA,NA,left,1892,true,NA,NA,NA,NA,NA
Cb4TgGOr,NA,NA,Cb4TgGOr,2020-0188,2021-11-11,20:07:07,22:02:16,NA,incomplete,false,true,NA,10,10,E17_Q3_ansR.png,right,NA,NA,NA,right,1580,true,NA,NA,NA,NA,NA
Cb4TgGOr,NA,NA,Cb4TgGOr,2020-0188,2021-11-11,20:07:07,22:02:16,NA,incomplete,false,true,NA,10,11,E17_Q4_ansR.png,right,NA,NA,NA,right,1834,true,NA,NA,NA,NA,NA
Cb4TgGOr,NA,NA,Cb4TgGOr,2020-0188,2021-11-11,20:07:07,22:02:16,NA,incomplete,false,true,NA,10,12,E17_Q10_ansL.png,left,NA,NA,NA,left,788,true,NA,NA,NA,NA,NA
Cb4TgGOr,NA,NA,Cb4TgGOr,2020-0188,2021-11-11,20:07:07,22:02:16,NA,incomplete,false,true,NA,10,13,E17_Q6_ansR.png,right,NA,NA,NA,right,1521,true,NA,NA,NA,NA,NA
Cb4TgGOr,NA,NA,Cb4TgGOr,2020-0188,2021-11-11,20:07:07,22:02:16,NA,incomplete,false,true,NA,10,14,E17_Q2_ansL.png,left,NA,NA,NA,left,1662.00000000093,true,NA,NA,NA,NA,NA
Cb4TgGOr,NA,NA,Cb4TgGOr,2020-0188,2021-11-11,20:07:07,22:02:16,NA,incomplete,false,true,NA,10,15,E17_Q9_ansR.png,right,NA,NA,NA,right,966,true,NA,NA,NA,NA,NA
Cb4TgGOr,NA,NA,Cb4TgGOr,2020-0188,2021-11-11,20:07:07,22:02:16,NA,incomplete,false,true,NA,10,16,E17_Q1_ansL.png,left,NA,NA,NA,left,1410,true,NA,NA,NA,NA,NA
Cb4TgGOr,NA,NA,Cb4TgGOr,2020-0188,2021-11-11,20:07:07,22:02:16,NA,incomplete,false,true,NA,10,17,E17_Q8_ansL.png,left,NA,NA,NA,left,1105.00000000093,true,NA,NA,NA,NA,NA
Cb4TgGOr,NA,NA,Cb4TgGOr,2020-0188,2021-11-11,20:07:07,22:02:16,NA,incomplete,false,true,NA,10,18,E17_Q5_ansR.png,right,NA,NA,NA,right,2244,true,NA,NA,NA,NA,NA
Cb4TgGOr,NA,NA,Cb4TgGOr,2020-0188,2021-11-11,20:07:07,22:02:16,NA,incomplete,false,true,NA,10,19,E17_Q7_ansL.png,left,NA,NA,NA,left,2223.99999999907,true,NA,NA,NA,NA,NA
Cb4TgGOr,NA,NA,Cb4TgGOr,2020-0188,2021-11-11,20:07:07,22:02:16,NA,incomplete,false,true,NA,10,20,E16_Q4_ansL.png,left,NA,NA,NA,left,1686.99999999907,true,NA,NA,NA,NA,NA
Cb4TgGOr,NA,NA,Cb4TgGOr,2020-0188,2021-11-11,20:07:07,22:02:16,NA,incomplete,false,true,NA,10,21,E16_Q1_ansR.png,right,NA,NA,NA,right,1286.99999999907,true,NA,NA,NA,NA,NA
Cb4TgGOr,NA,NA,Cb4TgGOr,2020-0188,2021-11-11,20:07:07,22:02:16,NA,incomplete,false,true,NA,10,22,E16_Q9_ansL.png,left,NA,NA,NA,none,0,false,NA,NA,NA,NA,NA
Cb4TgGOr,NA,NA,Cb4TgGOr,2020-0188,2021-11-11,20:07:07,22:02:16,NA,incomplete,false,true,NA,10,23,E16_Q7_ansR.png,right,NA,NA,NA,right,1494.99999999907,true,NA,NA,NA,NA,NA
