workerId,hitId,assignmentId,subject,studyid,exp_date,exp_start,exp_end,time_start,time_end,practice,encoding,memory,block,trial,stim,answer,left_image,right_image,condition,response,response_time,response_acc,order_response,order_response_time,order_acc,distance_response,distance_response_time
cBhrhL4k,NA,NA,cBhrhL4k,2020-0188,2021-11-15,18:32:22,19:34:34,NA,incomplete,true,true,NA,0,0,E10_Q2_ansL.png,left,NA,NA,NA,none,0,false,NA,NA,NA,NA,NA
cBhrhL4k,NA,NA,cBhrhL4k,2020-0188,2021-11-15,18:32:22,19:34:34,NA,incomplete,true,true,NA,0,1,E10_Q6_ansR.png,right,NA,NA,NA,right,2891,true,NA,NA,NA,NA,NA
cBhrhL4k,NA,NA,cBhrhL4k,2020-0188,2021-11-15,18:32:22,19:34:34,NA,incomplete,true,true,NA,0,2,E10_Q10_ansR.png,right,NA,NA,NA,right,2906,true,NA,NA,NA,NA,NA
cBhrhL4k,NA,NA,cBhrhL4k,2020-0188,2021-11-15,18:32:22,19:34:34,NA,incomplete,true,true,NA,0,3,E10_Q8_ansR.png,right,NA,NA,NA,right,2658,true,NA,NA,NA,NA,NA
cBhrhL4k,NA,NA,cBhrhL4k,2020-0188,2021-11-15,18:32:22,19:34:34,NA,incomplete,true,true,NA,0,4,E10_Q5_ansR.png,right,NA,NA,NA,right,3401,true,NA,NA,NA,NA,NA
cBhrhL4k,NA,NA,cBhrhL4k,2020-0188,2021-11-15,18:32:22,19:34:34,NA,incomplete,true,true,NA,0,5,E10_Q3_ansL.png,left,NA,NA,NA,left,3089,true,NA,NA,NA,NA,NA
cBhrhL4k,NA,NA,cBhrhL4k,2020-0188,2021-11-15,18:32:22,19:34:34,NA,incomplete,true,true,NA,0,6,E10_Q9_ansL.png,left,NA,NA,NA,left,3086,true,NA,NA,NA,NA,NA
cBhrhL4k,NA,NA,cBhrhL4k,2020-0188,2021-11-15,18:32:22,19:34:34,NA,incomplete,true,true,NA,0,7,E10_Q4_ansL.png,left,NA,NA,NA,none,0,false,NA,NA,NA,NA,NA
cBhrhL4k,NA,NA,cBhrhL4k,2020-0188,2021-11-15,18:32:22,19:34:34,NA,incomplete,true,true,NA,0,8,E10_Q7_ansR.png,right,NA,NA,NA,right,2326,true,NA,NA,NA,NA,NA
cBhrhL4k,NA,NA,cBhrhL4k,2020-0188,2021-11-15,18:32:22,19:34:34,NA,incomplete,true,true,NA,0,9,E10_Q1_ansL.png,left,NA,NA,NA,left,1941,true,NA,NA,NA,NA,NA
cBhrhL4k,NA,NA,cBhrhL4k,2020-0188,2021-11-15,18:32:22,19:34:34,NA,incomplete,true,true,NA,0,10,E9_Q6_ansL.png,left,NA,NA,NA,left,2409,true,NA,NA,NA,NA,NA
cBhrhL4k,NA,NA,cBhrhL4k,2020-0188,2021-11-15,18:32:22,19:34:34,NA,incomplete,true,true,NA,0,11,E9_Q5_ansL.png,left,NA,NA,NA,left,1871,true,NA,NA,NA,NA,NA
cBhrhL4k,NA,NA,cBhrhL4k,2020-0188,2021-11-15,18:32:22,19:34:34,NA,incomplete,true,true,NA,0,12,E9_Q8_ansR.png,right,NA,NA,NA,left,2712,false,NA,NA,NA,NA,NA
cBhrhL4k,NA,NA,cBhrhL4k,2020-0188,2021-11-15,18:32:22,19:34:34,NA,incomplete,true,true,NA,0,13,E9_Q1_ansR.png,right,NA,NA,NA,right,2226,true,NA,NA,NA,NA,NA
cBhrhL4k,NA,NA,cBhrhL4k,2020-0188,2021-11-15,18:32:22,19:34:34,NA,incomplete,true,true,NA,0,14,E9_Q7_ansR.png,right,NA,NA,NA,left,1544.99999999994,false,NA,NA,NA,NA,NA
cBhrhL4k,NA,NA,cBhrhL4k,2020-0188,2021-11-15,18:32:22,19:34:34,NA,incomplete,true,true,NA,0,15,E9_Q9_ansL.png,left,NA,NA,NA,left,1758.99999999994,true,NA,NA,NA,NA,NA
cBhrhL4k,NA,NA,cBhrhL4k,2020-0188,2021-11-15,18:32:22,19:34:34,NA,incomplete,true,true,NA,0,16,E9_Q2_ansR.png,right,NA,NA,NA,right,1835,true,NA,NA,NA,NA,NA
cBhrhL4k,NA,NA,cBhrhL4k,2020-0188,2021-11-15,18:32:22,19:34:34,NA,incomplete,true,true,NA,0,17,E9_Q3_ansL.png,left,NA,NA,NA,left,1751,true,NA,NA,NA,NA,NA
cBhrhL4k,NA,NA,cBhrhL4k,2020-0188,2021-11-15,18:32:22,19:34:34,NA,incomplete,true,true,NA,0,18,E9_Q10_ansR.png,right,NA,NA,NA,right,1555,true,NA,NA,NA,NA,NA
cBhrhL4k,NA,NA,cBhrhL4k,2020-0188,2021-11-15,18:32:22,19:34:34,NA,incomplete,true,true,NA,0,19,E9_Q4_ansL.png,left,NA,NA,NA,left,1556,true,NA,NA,NA,NA,NA
cBhrhL4k,NA,NA,cBhrhL4k,2020-0188,2021-11-15,18:32:22,19:34:34,NA,incomplete,true,true,NA,0,20,E16_Q9_ansL.png,left,NA,NA,NA,left,1934,true,NA,NA,NA,NA,NA
cBhrhL4k,NA,NA,cBhrhL4k,2020-0188,2021-11-15,18:32:22,19:34:34,NA,incomplete,true,true,NA,0,21,E16_Q2_ansR.png,right,NA,NA,NA,right,1817,true,NA,NA,NA,NA,NA
cBhrhL4k,NA,NA,cBhrhL4k,2020-0188,2021-11-15,18:32:22,19:34:34,NA,incomplete,true,true,NA,0,22,E16_Q7_ansR.png,right,NA,NA,NA,right,1556,true,NA,NA,NA,NA,NA
cBhrhL4k,NA,NA,cBhrhL4k,2020-0188,2021-11-15,18:32:22,19:34:34,NA,incomplete,true,true,NA,0,23,E16_Q8_ansR.png,right,NA,NA,NA,right,1305,true,NA,NA,NA,NA,NA
cBhrhL4k,NA,NA,cBhrhL4k,2020-0188,2021-11-15,18:32:22,19:34:34,NA,incomplete,true,true,NA,0,24,E16_Q3_ansL.png,left,NA,NA,NA,left,1099,true,NA,NA,NA,NA,NA
cBhrhL4k,NA,NA,cBhrhL4k,2020-0188,2021-11-15,18:32:22,19:34:34,NA,incomplete,true,true,NA,0,25,E16_Q10_ansR.png,right,NA,NA,NA,right,937.000000000058,true,NA,NA,NA,NA,NA
cBhrhL4k,NA,NA,cBhrhL4k,2020-0188,2021-11-15,18:32:22,19:34:34,NA,incomplete,true,true,NA,0,26,E16_Q1_ansR.png,right,NA,NA,NA,right,2411,true,NA,NA,NA,NA,NA
cBhrhL4k,NA,NA,cBhrhL4k,2020-0188,2021-11-15,18:32:22,19:34:34,NA,incomplete,true,true,NA,0,27,E16_Q6_ansL.png,left,NA,NA,NA,left,2393,true,NA,NA,NA,NA,NA
cBhrhL4k,NA,NA,cBhrhL4k,2020-0188,2021-11-15,18:32:22,19:34:34,NA,incomplete,true,true,NA,0,28,E16_Q4_ansL.png,left,NA,NA,NA,left,1548,true,NA,NA,NA,NA,NA
cBhrhL4k,NA,NA,cBhrhL4k,2020-0188,2021-11-15,18:32:22,19:34:34,NA,incomplete,true,true,NA,0,29,E16_Q5_ansL.png,left,NA,NA,NA,left,1081,true,NA,NA,NA,NA,NA
cBhrhL4k,NA,NA,cBhrhL4k,2020-0188,2021-11-15,18:32:22,19:34:34,NA,incomplete,true,NA,true,0,0,NA,left,E10_Q5_ansR.png,E10_Q4_ansL.png,within,NA,NaN,NA,left,2121,1,1,3319
cBhrhL4k,NA,NA,cBhrhL4k,2020-0188,2021-11-15,18:32:22,19:34:34,NA,incomplete,true,NA,true,0,1,NA,left,E9_Q9_ansL.png,E9_Q10_ansR.png,within,NA,NaN,NA,left,3213,1,1,1212
cBhrhL4k,NA,NA,cBhrhL4k,2020-0188,2021-11-15,18:32:22,19:34:34,NA,incomplete,true,NA,true,0,2,NA,left,E10_Q10_ansR.png,E10_Q3_ansL.png,within,NA,NaN,NA,left,4451.000000000058,1,1,1579.0000000000582
cBhrhL4k,NA,NA,cBhrhL4k,2020-0188,2021-11-15,18:32:22,19:34:34,NA,incomplete,true,NA,true,0,3,NA,right,E9_Q7_ansR.png,E9_Q5_ansL.png,within,NA,NaN,NA,right,3173,1,2,5363
cBhrhL4k,NA,NA,cBhrhL4k,2020-0188,2021-11-15,18:32:22,19:34:34,NA,incomplete,true,NA,true,0,4,NA,right,E10_Q8_ansR.png,E10_Q2_ansL.png,within,NA,NaN,NA,left,2651,0,2,1682.9999999999418
cBhrhL4k,NA,NA,cBhrhL4k,2020-0188,2021-11-15,18:32:22,19:34:34,NA,incomplete,true,NA,true,0,5,NA,left,E9_Q4_ansL.png,E16_Q7_ansR.png,between,NA,NaN,NA,left,2129,1,2,1615
cBhrhL4k,NA,NA,cBhrhL4k,2020-0188,2021-11-15,18:32:22,19:34:34,NA,incomplete,true,NA,true,0,6,NA,left,E16_Q8_ansR.png,E16_Q1_ansR.png,within,NA,NaN,NA,right,2741,0,1,1675
cBhrhL4k,NA,NA,cBhrhL4k,2020-0188,2021-11-15,18:32:22,19:34:34,NA,incomplete,true,NA,true,0,7,NA,right,E9_Q2_ansR.png,E9_Q1_ansR.png,within,NA,NaN,NA,right,2085,1,1,1138
cBhrhL4k,NA,NA,cBhrhL4k,2020-0188,2021-11-15,18:32:22,19:34:34,NA,incomplete,true,NA,true,0,8,NA,right,E16_Q8_ansR.png,E16_Q9_ansL.png,within,NA,NaN,NA,left,2490.999999999942,0,1,2262
cBhrhL4k,NA,NA,cBhrhL4k,2020-0188,2021-11-15,18:32:22,19:34:34,NA,incomplete,true,NA,true,0,9,NA,left,E9_Q10_ansR.png,E16_Q2_ansR.png,between,NA,NaN,NA,left,1747.9999999999418,1,1,4288
cBhrhL4k,NA,NA,cBhrhL4k,2020-0188,2021-11-15,18:32:22,19:34:34,NA,incomplete,true,NA,true,0,10,NA,left,E9_Q3_ansL.png,E16_Q9_ansL.png,between,NA,NaN,NA,left,1585,1,2,1130
cBhrhL4k,NA,NA,cBhrhL4k,2020-0188,2021-11-15,18:32:22,19:34:34,NA,incomplete,true,NA,true,0,11,NA,left,E9_Q7_ansR.png,E9_Q3_ansL.png,within,NA,NaN,NA,left,2717,1,2,1894.9999999999418
cBhrhL4k,NA,NA,cBhrhL4k,2020-0188,2021-11-15,18:32:22,19:34:34,NA,incomplete,true,NA,true,0,12,NA,left,E16_Q2_ansR.png,E16_Q3_ansL.png,within,NA,NaN,NA,left,3484.000000000058,1,0,1203.0000000001164
cBhrhL4k,NA,NA,cBhrhL4k,2020-0188,2021-11-15,18:32:22,19:34:34,NA,incomplete,true,NA,true,0,13,NA,left,E10_Q4_ansL.png,E9_Q6_ansL.png,between,NA,NaN,NA,left,2829.9999999998836,1,2,1413.9999999999418
cBhrhL4k,NA,NA,cBhrhL4k,2020-0188,2021-11-15,18:32:22,19:34:34,NA,incomplete,true,NA,true,0,14,NA,right,E16_Q6_ansL.png,E16_Q3_ansL.png,within,NA,NaN,NA,right,4695,1,1,950
cBhrhL4k,NA,NA,cBhrhL4k,2020-0188,2021-11-15,18:32:22,19:34:34,NA,incomplete,true,NA,true,0,15,NA,left,E16_Q1_ansR.png,E16_Q5_ansL.png,within,NA,NaN,NA,left,2375,1,1,1012.9999999998836
cBhrhL4k,NA,NA,cBhrhL4k,2020-0188,2021-11-15,18:32:22,19:34:34,NA,incomplete,true,NA,true,0,16,NA,right,E10_Q5_ansR.png,E10_Q6_ansR.png,within,NA,NaN,NA,right,1820,1,1,1161.0000000001164
cBhrhL4k,NA,NA,cBhrhL4k,2020-0188,2021-11-15,18:32:22,19:34:34,NA,incomplete,true,NA,true,0,17,NA,left,E10_Q7_ansR.png,E9_Q5_ansL.png,between,NA,NaN,NA,left,1572,1,2,2203
cBhrhL4k,NA,NA,cBhrhL4k,2020-0188,2021-11-15,18:32:22,19:34:34,NA,incomplete,true,NA,true,0,18,NA,right,E9_Q1_ansR.png,E9_Q6_ansL.png,within,NA,NaN,NA,right,2372,1,2,1455
cBhrhL4k,NA,NA,cBhrhL4k,2020-0188,2021-11-15,18:32:22,19:34:34,NA,incomplete,true,NA,true,0,19,NA,right,E10_Q7_ansR.png,E10_Q3_ansL.png,within,NA,NaN,NA,right,2505,1,1,943
cBhrhL4k,NA,NA,cBhrhL4k,2020-0188,2021-11-15,18:32:22,19:34:34,NA,incomplete,true,NA,true,0,20,NA,right,E10_Q1_ansL.png,E10_Q9_ansL.png,within,NA,NaN,NA,right,1617,1,1,2247
cBhrhL4k,NA,NA,cBhrhL4k,2020-0188,2021-11-15,18:32:22,19:34:34,NA,incomplete,true,NA,true,0,21,NA,left,E10_Q1_ansL.png,E9_Q8_ansR.png,between,NA,NaN,NA,left,2977,1,2,1798
cBhrhL4k,NA,NA,cBhrhL4k,2020-0188,2021-11-15,18:32:22,19:34:34,NA,incomplete,true,NA,true,0,22,NA,right,E10_Q9_ansL.png,E10_Q8_ansR.png,within,NA,NaN,NA,right,1853,1,0,2635.9999999998836
cBhrhL4k,NA,NA,cBhrhL4k,2020-0188,2021-11-15,18:32:22,19:34:34,NA,incomplete,true,NA,true,0,23,NA,right,E16_Q10_ansR.png,E16_Q7_ansR.png,within,NA,NaN,NA,right,2530,1,1,1358.0000000001164
cBhrhL4k,NA,NA,cBhrhL4k,2020-0188,2021-11-15,18:32:22,19:34:34,NA,incomplete,true,NA,true,0,24,NA,left,E16_Q10_ansR.png,E16_Q4_ansL.png,within,NA,NaN,NA,right,3708,0,1,1259.0000000001164
cBhrhL4k,NA,NA,cBhrhL4k,2020-0188,2021-11-15,18:32:22,19:34:34,NA,incomplete,true,NA,true,0,25,NA,left,E9_Q2_ansR.png,E9_Q4_ansL.png,within,NA,NaN,NA,right,4915,0,0,1733
cBhrhL4k,NA,NA,cBhrhL4k,2020-0188,2021-11-15,18:32:22,19:34:34,NA,incomplete,true,NA,true,0,26,NA,right,E9_Q9_ansL.png,E9_Q8_ansR.png,within,NA,NaN,NA,left,3588.9999999998836,0,1,1018
cBhrhL4k,NA,NA,cBhrhL4k,2020-0188,2021-11-15,18:32:22,19:34:34,NA,incomplete,false,true,NA,1,0,E18_Q1_ansL.png,left,NA,NA,NA,left,2027,true,NA,NA,NA,NA,NA
cBhrhL4k,NA,NA,cBhrhL4k,2020-0188,2021-11-15,18:32:22,19:34:34,NA,incomplete,false,true,NA,1,1,E18_Q3_ansR.png,right,NA,NA,NA,right,1657,true,NA,NA,NA,NA,NA
cBhrhL4k,NA,NA,cBhrhL4k,2020-0188,2021-11-15,18:32:22,19:34:34,NA,incomplete,false,true,NA,1,2,E18_Q5_ansR.png,right,NA,NA,NA,right,1495,true,NA,NA,NA,NA,NA
cBhrhL4k,NA,NA,cBhrhL4k,2020-0188,2021-11-15,18:32:22,19:34:34,NA,incomplete,false,true,NA,1,3,E18_Q7_ansL.png,left,NA,NA,NA,left,1414,true,NA,NA,NA,NA,NA
cBhrhL4k,NA,NA,cBhrhL4k,2020-0188,2021-11-15,18:32:22,19:34:34,NA,incomplete,false,true,NA,1,4,E18_Q8_ansL.png,left,NA,NA,NA,left,1312.00000000012,true,NA,NA,NA,NA,NA
cBhrhL4k,NA,NA,cBhrhL4k,2020-0188,2021-11-15,18:32:22,19:34:34,NA,incomplete,false,true,NA,1,5,E18_Q6_ansR.png,right,NA,NA,NA,right,1363,true,NA,NA,NA,NA,NA
cBhrhL4k,NA,NA,cBhrhL4k,2020-0188,2021-11-15,18:32:22,19:34:34,NA,incomplete,false,true,NA,1,6,E18_Q10_ansL.png,left,NA,NA,NA,right,1932,false,NA,NA,NA,NA,NA
cBhrhL4k,NA,NA,cBhrhL4k,2020-0188,2021-11-15,18:32:22,19:34:34,NA,incomplete,false,true,NA,1,7,E18_Q9_ansR.png,right,NA,NA,NA,right,1292,true,NA,NA,NA,NA,NA
cBhrhL4k,NA,NA,cBhrhL4k,2020-0188,2021-11-15,18:32:22,19:34:34,NA,incomplete,false,true,NA,1,8,E18_Q2_ansL.png,left,NA,NA,NA,right,712,false,NA,NA,NA,NA,NA
cBhrhL4k,NA,NA,cBhrhL4k,2020-0188,2021-11-15,18:32:22,19:34:34,NA,incomplete,false,true,NA,1,9,E18_Q4_ansR.png,right,NA,NA,NA,right,1475,true,NA,NA,NA,NA,NA
cBhrhL4k,NA,NA,cBhrhL4k,2020-0188,2021-11-15,18:32:22,19:34:34,NA,incomplete,false,true,NA,1,10,E12_Q3_ansR.png,right,NA,NA,NA,right,2264,true,NA,NA,NA,NA,NA
cBhrhL4k,NA,NA,cBhrhL4k,2020-0188,2021-11-15,18:32:22,19:34:34,NA,incomplete,false,true,NA,1,11,E12_Q5_ansR.png,right,NA,NA,NA,right,1669,true,NA,NA,NA,NA,NA
cBhrhL4k,NA,NA,cBhrhL4k,2020-0188,2021-11-15,18:32:22,19:34:34,NA,incomplete,false,true,NA,1,12,E12_Q9_ansR.png,right,NA,NA,NA,right,1416,true,NA,NA,NA,NA,NA
cBhrhL4k,NA,NA,cBhrhL4k,2020-0188,2021-11-15,18:32:22,19:34:34,NA,incomplete,false,true,NA,1,13,E12_Q4_ansR.png,right,NA,NA,NA,right,1052,true,NA,NA,NA,NA,NA
cBhrhL4k,NA,NA,cBhrhL4k,2020-0188,2021-11-15,18:32:22,19:34:34,NA,incomplete,false,true,NA,1,14,E12_Q1_ansL.png,left,NA,NA,NA,left,1770,true,NA,NA,NA,NA,NA
cBhrhL4k,NA,NA,cBhrhL4k,2020-0188,2021-11-15,18:32:22,19:34:34,NA,incomplete,false,true,NA,1,15,E12_Q2_ansL.png,left,NA,NA,NA,left,1984,true,NA,NA,NA,NA,NA
cBhrhL4k,NA,NA,cBhrhL4k,2020-0188,2021-11-15,18:32:22,19:34:34,NA,incomplete,false,true,NA,1,16,E12_Q6_ansR.png,right,NA,NA,NA,right,1162,true,NA,NA,NA,NA,NA
cBhrhL4k,NA,NA,cBhrhL4k,2020-0188,2021-11-15,18:32:22,19:34:34,NA,incomplete,false,true,NA,1,17,E12_Q7_ansL.png,left,NA,NA,NA,left,1152,true,NA,NA,NA,NA,NA
cBhrhL4k,NA,NA,cBhrhL4k,2020-0188,2021-11-15,18:32:22,19:34:34,NA,incomplete,false,true,NA,1,18,E12_Q10_ansL.png,left,NA,NA,NA,left,1236,true,NA,NA,NA,NA,NA
cBhrhL4k,NA,NA,cBhrhL4k,2020-0188,2021-11-15,18:32:22,19:34:34,NA,incomplete,false,true,NA,1,19,E12_Q8_ansL.png,left,NA,NA,NA,left,1716.00000000012,true,NA,NA,NA,NA,NA
cBhrhL4k,NA,NA,cBhrhL4k,2020-0188,2021-11-15,18:32:22,19:34:34,NA,incomplete,false,true,NA,1,20,E17_Q6_ansR.png,right,NA,NA,NA,right,1702,true,NA,NA,NA,NA,NA
cBhrhL4k,NA,NA,cBhrhL4k,2020-0188,2021-11-15,18:32:22,19:34:34,NA,incomplete,false,true,NA,1,21,E17_Q1_ansL.png,left,NA,NA,NA,left,1006.00000000012,true,NA,NA,NA,NA,NA
cBhrhL4k,NA,NA,cBhrhL4k,2020-0188,2021-11-15,18:32:22,19:34:34,NA,incomplete,false,true,NA,1,22,E17_Q2_ansL.png,left,NA,NA,NA,left,1002,true,NA,NA,NA,NA,NA
cBhrhL4k,NA,NA,cBhrhL4k,2020-0188,2021-11-15,18:32:22,19:34:34,NA,incomplete,false,true,NA,1,23,E17_Q8_ansL.png,left,NA,NA,NA,left,1063,true,NA,NA,NA,NA,NA
cBhrhL4k,NA,NA,cBhrhL4k,2020-0188,2021-11-15,18:32:22,19:34:34,NA,incomplete,false,true,NA,1,24,E17_Q9_ansR.png,right,NA,NA,NA,right,1559,true,NA,NA,NA,NA,NA
cBhrhL4k,NA,NA,cBhrhL4k,2020-0188,2021-11-15,18:32:22,19:34:34,NA,incomplete,false,true,NA,1,25,E17_Q5_ansR.png,right,NA,NA,NA,right,1818.00000000012,true,NA,NA,NA,NA,NA
cBhrhL4k,NA,NA,cBhrhL4k,2020-0188,2021-11-15,18:32:22,19:34:34,NA,incomplete,false,true,NA,1,26,E17_Q7_ansL.png,left,NA,NA,NA,left,1292,true,NA,NA,NA,NA,NA
cBhrhL4k,NA,NA,cBhrhL4k,2020-0188,2021-11-15,18:32:22,19:34:34,NA,incomplete,false,true,NA,1,27,E17_Q10_ansL.png,left,NA,NA,NA,left,1081,true,NA,NA,NA,NA,NA
cBhrhL4k,NA,NA,cBhrhL4k,2020-0188,2021-11-15,18:32:22,19:34:34,NA,incomplete,false,true,NA,1,28,E17_Q4_ansR.png,right,NA,NA,NA,right,1338.99999999988,true,NA,NA,NA,NA,NA
cBhrhL4k,NA,NA,cBhrhL4k,2020-0188,2021-11-15,18:32:22,19:34:34,NA,incomplete,false,true,NA,1,29,E17_Q3_ansR.png,right,NA,NA,NA,right,1259.99999999988,true,NA,NA,NA,NA,NA
cBhrhL4k,NA,NA,cBhrhL4k,2020-0188,2021-11-15,18:32:22,19:34:34,NA,incomplete,false,NA,true,1,0,NA,left,E18_Q9_ansR.png,E12_Q3_ansR.png,between,NA,NaN,NA,left,3704.0000000001164,1,0,2015
cBhrhL4k,NA,NA,cBhrhL4k,2020-0188,2021-11-15,18:32:22,19:34:34,NA,incomplete,false,NA,true,1,1,NA,right,E12_Q2_ansL.png,E12_Q9_ansR.png,within,NA,NaN,NA,right,2033,1,1,977.0000000001164
cBhrhL4k,NA,NA,cBhrhL4k,2020-0188,2021-11-15,18:32:22,19:34:34,NA,incomplete,false,NA,true,1,2,NA,right,E18_Q9_ansR.png,E18_Q8_ansL.png,within,NA,NaN,NA,right,2547,1,1,967
cBhrhL4k,NA,NA,cBhrhL4k,2020-0188,2021-11-15,18:32:22,19:34:34,NA,incomplete,false,NA,true,1,3,NA,left,E18_Q5_ansR.png,E18_Q6_ansR.png,within,NA,NaN,NA,left,1439,1,1,958
cBhrhL4k,NA,NA,cBhrhL4k,2020-0188,2021-11-15,18:32:22,19:34:34,NA,incomplete,false,NA,true,1,4,NA,left,E18_Q10_ansL.png,E18_Q4_ansR.png,within,NA,NaN,NA,right,1732,0,1,1042
cBhrhL4k,NA,NA,cBhrhL4k,2020-0188,2021-11-15,18:32:22,19:34:34,NA,incomplete,false,NA,true,1,5,NA,right,E17_Q1_ansL.png,E12_Q10_ansL.png,between,NA,NaN,NA,right,2813,1,1,1112.0000000001164
cBhrhL4k,NA,NA,cBhrhL4k,2020-0188,2021-11-15,18:32:22,19:34:34,NA,incomplete,false,NA,true,1,6,NA,right,E12_Q8_ansL.png,E12_Q6_ansR.png,within,NA,NaN,NA,right,2766,1,1,852.9999999998836
cBhrhL4k,NA,NA,cBhrhL4k,2020-0188,2021-11-15,18:32:22,19:34:34,NA,incomplete,false,NA,true,1,7,NA,right,E12_Q6_ansR.png,E12_Q4_ansR.png,within,NA,NaN,NA,right,2000,1,1,1513
cBhrhL4k,NA,NA,cBhrhL4k,2020-0188,2021-11-15,18:32:22,19:34:34,NA,incomplete,false,NA,true,1,8,NA,left,E12_Q3_ansR.png,E12_Q4_ansR.png,within,NA,NaN,NA,left,1325,1,1,1121
cBhrhL4k,NA,NA,cBhrhL4k,2020-0188,2021-11-15,18:32:22,19:34:34,NA,incomplete,false,NA,true,1,9,NA,right,E18_Q8_ansL.png,E18_Q3_ansR.png,within,NA,NaN,NA,right,3196.0000000001164,1,1,943.9999999998836
cBhrhL4k,NA,NA,cBhrhL4k,2020-0188,2021-11-15,18:32:22,19:34:34,NA,incomplete,false,NA,true,1,10,NA,left,E12_Q2_ansL.png,E12_Q10_ansL.png,within,NA,NaN,NA,left,2529.9999999998836,1,1,863.0000000001164
cBhrhL4k,NA,NA,cBhrhL4k,2020-0188,2021-11-15,18:32:22,19:34:34,NA,incomplete,false,NA,true,1,11,NA,left,E17_Q2_ansL.png,E17_Q5_ansR.png,within,NA,NaN,NA,left,3100,1,1,1252
cBhrhL4k,NA,NA,cBhrhL4k,2020-0188,2021-11-15,18:32:22,19:34:34,NA,incomplete,false,NA,true,1,12,NA,left,E12_Q5_ansR.png,E12_Q1_ansL.png,within,NA,NaN,NA,left,2555,1,1,2383.9999999998836
cBhrhL4k,NA,NA,cBhrhL4k,2020-0188,2021-11-15,18:32:22,19:34:34,NA,incomplete,false,NA,true,1,13,NA,right,E12_Q9_ansR.png,E18_Q4_ansR.png,between,NA,NaN,NA,right,1596,1,2,2758
cBhrhL4k,NA,NA,cBhrhL4k,2020-0188,2021-11-15,18:32:22,19:34:34,NA,incomplete,false,NA,true,1,14,NA,left,E17_Q1_ansL.png,E17_Q9_ansR.png,within,NA,NaN,NA,left,2247.0000000001164,1,1,2718
cBhrhL4k,NA,NA,cBhrhL4k,2020-0188,2021-11-15,18:32:22,19:34:34,NA,incomplete,false,NA,true,1,15,NA,right,E12_Q7_ansL.png,E12_Q1_ansL.png,within,NA,NaN,NA,right,1595,1,1,1822
cBhrhL4k,NA,NA,cBhrhL4k,2020-0188,2021-11-15,18:32:22,19:34:34,NA,incomplete,false,NA,true,1,16,NA,right,E17_Q8_ansL.png,E17_Q6_ansR.png,within,NA,NaN,NA,right,1927.0000000001164,1,1,2490
cBhrhL4k,NA,NA,cBhrhL4k,2020-0188,2021-11-15,18:32:22,19:34:34,NA,incomplete,false,NA,true,1,17,NA,left,E17_Q9_ansR.png,E17_Q10_ansL.png,within,NA,NaN,NA,left,1968,1,1,1015
cBhrhL4k,NA,NA,cBhrhL4k,2020-0188,2021-11-15,18:32:22,19:34:34,NA,incomplete,false,NA,true,1,18,NA,right,E12_Q5_ansR.png,E18_Q2_ansL.png,between,NA,NaN,NA,right,1505,1,2,1953.0000000001164
cBhrhL4k,NA,NA,cBhrhL4k,2020-0188,2021-11-15,18:32:22,19:34:34,NA,incomplete,false,NA,true,1,19,NA,left,E17_Q5_ansR.png,E17_Q4_ansR.png,within,NA,NaN,NA,left,2774,1,1,2172
cBhrhL4k,NA,NA,cBhrhL4k,2020-0188,2021-11-15,18:32:22,19:34:34,NA,incomplete,false,NA,true,1,20,NA,right,E17_Q2_ansL.png,E12_Q8_ansL.png,between,NA,NaN,NA,right,2358,1,2,1929
cBhrhL4k,NA,NA,cBhrhL4k,2020-0188,2021-11-15,18:32:22,19:34:34,NA,incomplete,false,NA,true,1,21,NA,left,E18_Q7_ansL.png,E18_Q10_ansL.png,within,NA,NaN,NA,left,1894,1,1,1000
cBhrhL4k,NA,NA,cBhrhL4k,2020-0188,2021-11-15,18:32:22,19:34:34,NA,incomplete,false,NA,true,1,22,NA,left,E18_Q1_ansL.png,E18_Q7_ansL.png,within,NA,NaN,NA,left,1300,1,1,3043
cBhrhL4k,NA,NA,cBhrhL4k,2020-0188,2021-11-15,18:32:22,19:34:34,NA,incomplete,false,NA,true,1,23,NA,left,E17_Q8_ansL.png,E17_Q7_ansL.png,within,NA,NaN,NA,left,2782.0000000001164,1,1,2049
cBhrhL4k,NA,NA,cBhrhL4k,2020-0188,2021-11-15,18:32:22,19:34:34,NA,incomplete,false,NA,true,1,24,NA,right,E18_Q2_ansL.png,E18_Q6_ansR.png,within,NA,NaN,NA,left,1545,0,1,666.9999999998836
cBhrhL4k,NA,NA,cBhrhL4k,2020-0188,2021-11-15,18:32:22,19:34:34,NA,incomplete,false,NA,true,1,25,NA,left,E17_Q7_ansL.png,E17_Q3_ansR.png,within,NA,NaN,NA,left,1643.0000000001164,1,1,2148
cBhrhL4k,NA,NA,cBhrhL4k,2020-0188,2021-11-15,18:32:22,19:34:34,NA,incomplete,false,NA,true,1,26,NA,left,E12_Q7_ansL.png,E17_Q6_ansR.png,between,NA,NaN,NA,left,1604.0000000001164,1,2,2269
cBhrhL4k,NA,NA,cBhrhL4k,2020-0188,2021-11-15,18:32:22,19:34:34,NA,incomplete,false,true,NA,2,0,E15_Q5_ansR.png,right,NA,NA,NA,right,2364.00000000012,true,NA,NA,NA,NA,NA
cBhrhL4k,NA,NA,cBhrhL4k,2020-0188,2021-11-15,18:32:22,19:34:34,NA,incomplete,false,true,NA,2,1,E15_Q4_ansR.png,right,NA,NA,NA,right,1771,true,NA,NA,NA,NA,NA
cBhrhL4k,NA,NA,cBhrhL4k,2020-0188,2021-11-15,18:32:22,19:34:34,NA,incomplete,false,true,NA,2,2,E15_Q1_ansL.png,left,NA,NA,NA,right,1602,false,NA,NA,NA,NA,NA
cBhrhL4k,NA,NA,cBhrhL4k,2020-0188,2021-11-15,18:32:22,19:34:34,NA,incomplete,false,true,NA,2,3,E15_Q9_ansR.png,right,NA,NA,NA,right,1444,true,NA,NA,NA,NA,NA
cBhrhL4k,NA,NA,cBhrhL4k,2020-0188,2021-11-15,18:32:22,19:34:34,NA,incomplete,false,true,NA,2,4,E15_Q2_ansL.png,left,NA,NA,NA,left,1171,true,NA,NA,NA,NA,NA
cBhrhL4k,NA,NA,cBhrhL4k,2020-0188,2021-11-15,18:32:22,19:34:34,NA,incomplete,false,true,NA,2,5,E15_Q6_ansR.png,right,NA,NA,NA,right,933,true,NA,NA,NA,NA,NA
cBhrhL4k,NA,NA,cBhrhL4k,2020-0188,2021-11-15,18:32:22,19:34:34,NA,incomplete,false,true,NA,2,6,E15_Q7_ansL.png,left,NA,NA,NA,left,1226,true,NA,NA,NA,NA,NA
cBhrhL4k,NA,NA,cBhrhL4k,2020-0188,2021-11-15,18:32:22,19:34:34,NA,incomplete,false,true,NA,2,7,E15_Q8_ansL.png,left,NA,NA,NA,left,894,true,NA,NA,NA,NA,NA
cBhrhL4k,NA,NA,cBhrhL4k,2020-0188,2021-11-15,18:32:22,19:34:34,NA,incomplete,false,true,NA,2,8,E15_Q10_ansL.png,left,NA,NA,NA,left,955.000000000116,true,NA,NA,NA,NA,NA
cBhrhL4k,NA,NA,cBhrhL4k,2020-0188,2021-11-15,18:32:22,19:34:34,NA,incomplete,false,true,NA,2,9,E15_Q3_ansR.png,right,NA,NA,NA,right,971,true,NA,NA,NA,NA,NA
cBhrhL4k,NA,NA,cBhrhL4k,2020-0188,2021-11-15,18:32:22,19:34:34,NA,incomplete,false,true,NA,2,10,E31_Q3_ansL.png,left,NA,NA,NA,left,2178,true,NA,NA,NA,NA,NA
cBhrhL4k,NA,NA,cBhrhL4k,2020-0188,2021-11-15,18:32:22,19:34:34,NA,incomplete,false,true,NA,2,11,E31_Q6_ansL.png,left,NA,NA,NA,left,1569,true,NA,NA,NA,NA,NA
cBhrhL4k,NA,NA,cBhrhL4k,2020-0188,2021-11-15,18:32:22,19:34:34,NA,incomplete,false,true,NA,2,12,E31_Q1_ansR.png,right,NA,NA,NA,right,1060.00000000012,true,NA,NA,NA,NA,NA
cBhrhL4k,NA,NA,cBhrhL4k,2020-0188,2021-11-15,18:32:22,19:34:34,NA,incomplete,false,true,NA,2,13,E31_Q7_ansR.png,right,NA,NA,NA,right,1717,true,NA,NA,NA,NA,NA
cBhrhL4k,NA,NA,cBhrhL4k,2020-0188,2021-11-15,18:32:22,19:34:34,NA,incomplete,false,true,NA,2,14,E31_Q10_ansR.png,right,NA,NA,NA,right,1255,true,NA,NA,NA,NA,NA
cBhrhL4k,NA,NA,cBhrhL4k,2020-0188,2021-11-15,18:32:22,19:34:34,NA,incomplete,false,true,NA,2,15,E31_Q4_ansL.png,left,NA,NA,NA,left,1373.00000000012,true,NA,NA,NA,NA,NA
cBhrhL4k,NA,NA,cBhrhL4k,2020-0188,2021-11-15,18:32:22,19:34:34,NA,incomplete,false,true,NA,2,16,E31_Q5_ansL.png,left,NA,NA,NA,left,1219.00000000012,true,NA,NA,NA,NA,NA
cBhrhL4k,NA,NA,cBhrhL4k,2020-0188,2021-11-15,18:32:22,19:34:34,NA,incomplete,false,true,NA,2,17,E31_Q9_ansL.png,left,NA,NA,NA,left,1246,true,NA,NA,NA,NA,NA
cBhrhL4k,NA,NA,cBhrhL4k,2020-0188,2021-11-15,18:32:22,19:34:34,NA,incomplete,false,true,NA,2,18,E31_Q8_ansR.png,right,NA,NA,NA,right,2235,true,NA,NA,NA,NA,NA
cBhrhL4k,NA,NA,cBhrhL4k,2020-0188,2021-11-15,18:32:22,19:34:34,NA,incomplete,false,true,NA,2,19,E31_Q2_ansR.png,right,NA,NA,NA,right,1298,true,NA,NA,NA,NA,NA
cBhrhL4k,NA,NA,cBhrhL4k,2020-0188,2021-11-15,18:32:22,19:34:34,NA,incomplete,false,true,NA,2,20,E28_Q4_ansL.png,left,NA,NA,NA,left,1727,true,NA,NA,NA,NA,NA
cBhrhL4k,NA,NA,cBhrhL4k,2020-0188,2021-11-15,18:32:22,19:34:34,NA,incomplete,false,true,NA,2,21,E28_Q8_ansR.png,right,NA,NA,NA,right,1035.99999999988,true,NA,NA,NA,NA,NA
cBhrhL4k,NA,NA,cBhrhL4k,2020-0188,2021-11-15,18:32:22,19:34:34,NA,incomplete,false,true,NA,2,22,E28_Q5_ansL.png,left,NA,NA,NA,left,1394,true,NA,NA,NA,NA,NA
cBhrhL4k,NA,NA,cBhrhL4k,2020-0188,2021-11-15,18:32:22,19:34:34,NA,incomplete,false,true,NA,2,23,E28_Q3_ansL.png,left,NA,NA,NA,right,1261,false,NA,NA,NA,NA,NA
cBhrhL4k,NA,NA,cBhrhL4k,2020-0188,2021-11-15,18:32:22,19:34:34,NA,incomplete,false,true,NA,2,24,E28_Q1_ansR.png,right,NA,NA,NA,right,1684,true,NA,NA,NA,NA,NA
cBhrhL4k,NA,NA,cBhrhL4k,2020-0188,2021-11-15,18:32:22,19:34:34,NA,incomplete,false,true,NA,2,25,E28_Q2_ansR.png,right,NA,NA,NA,right,1433,true,NA,NA,NA,NA,NA
cBhrhL4k,NA,NA,cBhrhL4k,2020-0188,2021-11-15,18:32:22,19:34:34,NA,incomplete,false,true,NA,2,26,E28_Q6_ansL.png,left,NA,NA,NA,left,1157.00000000012,true,NA,NA,NA,NA,NA
cBhrhL4k,NA,NA,cBhrhL4k,2020-0188,2021-11-15,18:32:22,19:34:34,NA,incomplete,false,true,NA,2,27,E28_Q10_ansR.png,right,NA,NA,NA,right,1228,true,NA,NA,NA,NA,NA
cBhrhL4k,NA,NA,cBhrhL4k,2020-0188,2021-11-15,18:32:22,19:34:34,NA,incomplete,false,true,NA,2,28,E28_Q7_ansR.png,right,NA,NA,NA,right,1287,true,NA,NA,NA,NA,NA
cBhrhL4k,NA,NA,cBhrhL4k,2020-0188,2021-11-15,18:32:22,19:34:34,NA,incomplete,false,true,NA,2,29,E28_Q9_ansL.png,left,NA,NA,NA,left,1555.99999999977,true,NA,NA,NA,NA,NA
cBhrhL4k,NA,NA,cBhrhL4k,2020-0188,2021-11-15,18:32:22,19:34:34,NA,incomplete,false,NA,true,2,0,NA,right,E31_Q3_ansL.png,E15_Q8_ansL.png,between,NA,NaN,NA,right,1812,1,2,1268
cBhrhL4k,NA,NA,cBhrhL4k,2020-0188,2021-11-15,18:32:22,19:34:34,NA,incomplete,false,NA,true,2,1,NA,left,E15_Q7_ansL.png,E15_Q3_ansR.png,within,NA,NaN,NA,left,3312,1,0,2024.0000000002328
cBhrhL4k,NA,NA,cBhrhL4k,2020-0188,2021-11-15,18:32:22,19:34:34,NA,incomplete,false,NA,true,2,2,NA,right,E28_Q1_ansR.png,E28_Q8_ansR.png,within,NA,NaN,NA,right,1421,1,1,839
cBhrhL4k,NA,NA,cBhrhL4k,2020-0188,2021-11-15,18:32:22,19:34:34,NA,incomplete,false,NA,true,2,3,NA,left,E15_Q2_ansL.png,E15_Q8_ansL.png,within,NA,NaN,NA,left,1733,1,1,1962
cBhrhL4k,NA,NA,cBhrhL4k,2020-0188,2021-11-15,18:32:22,19:34:34,NA,incomplete,false,NA,true,2,4,NA,right,E31_Q7_ansR.png,E31_Q3_ansL.png,within,NA,NaN,NA,right,1970,1,1,985.9999999997672
cBhrhL4k,NA,NA,cBhrhL4k,2020-0188,2021-11-15,18:32:22,19:34:34,NA,incomplete,false,NA,true,2,5,NA,right,E15_Q2_ansL.png,E15_Q4_ansR.png,within,NA,NaN,NA,right,1512,1,1,1700.0000000002328
cBhrhL4k,NA,NA,cBhrhL4k,2020-0188,2021-11-15,18:32:22,19:34:34,NA,incomplete,false,NA,true,2,6,NA,right,E28_Q10_ansR.png,E28_Q1_ansR.png,within,NA,NaN,NA,left,1504,0,1,912
cBhrhL4k,NA,NA,cBhrhL4k,2020-0188,2021-11-15,18:32:22,19:34:34,NA,incomplete,false,NA,true,2,7,NA,right,E15_Q6_ansR.png,E15_Q1_ansL.png,within,NA,NaN,NA,right,1618,1,2,2442
cBhrhL4k,NA,NA,cBhrhL4k,2020-0188,2021-11-15,18:32:22,19:34:34,NA,incomplete,false,NA,true,2,8,NA,left,E31_Q5_ansL.png,E31_Q2_ansR.png,within,NA,NaN,NA,right,2562,0,1,943
cBhrhL4k,NA,NA,cBhrhL4k,2020-0188,2021-11-15,18:32:22,19:34:34,NA,incomplete,false,NA,true,2,9,NA,left,E15_Q3_ansR.png,E31_Q1_ansR.png,between,NA,NaN,NA,left,1367,1,2,934
cBhrhL4k,NA,NA,cBhrhL4k,2020-0188,2021-11-15,18:32:22,19:34:34,NA,incomplete,false,NA,true,2,10,NA,left,E31_Q2_ansR.png,E28_Q5_ansL.png,between,NA,NaN,NA,right,2049,0,2,1496
cBhrhL4k,NA,NA,cBhrhL4k,2020-0188,2021-11-15,18:32:22,19:34:34,NA,incomplete,false,NA,true,2,11,NA,right,E28_Q8_ansR.png,E31_Q8_ansR.png,between,NA,NaN,NA,left,1023,0,2,1032.0000000002328
cBhrhL4k,NA,NA,cBhrhL4k,2020-0188,2021-11-15,18:32:22,19:34:34,NA,incomplete,false,NA,true,2,12,NA,left,E28_Q2_ansR.png,E28_Q7_ansR.png,within,NA,NaN,NA,left,3115.999999999767,1,1,846
cBhrhL4k,NA,NA,cBhrhL4k,2020-0188,2021-11-15,18:32:22,19:34:34,NA,incomplete,false,NA,true,2,13,NA,left,E31_Q4_ansL.png,E31_Q8_ansR.png,within,NA,NaN,NA,right,2351.000000000233,0,1,1799
cBhrhL4k,NA,NA,cBhrhL4k,2020-0188,2021-11-15,18:32:22,19:34:34,NA,incomplete,false,NA,true,2,14,NA,left,E31_Q10_ansR.png,E31_Q9_ansL.png,within,NA,NaN,NA,right,2903,0,1,1431
cBhrhL4k,NA,NA,cBhrhL4k,2020-0188,2021-11-15,18:32:22,19:34:34,NA,incomplete,false,NA,true,2,15,NA,right,E28_Q2_ansR.png,E28_Q5_ansL.png,within,NA,NaN,NA,right,1764,1,1,715
cBhrhL4k,NA,NA,cBhrhL4k,2020-0188,2021-11-15,18:32:22,19:34:34,NA,incomplete,false,NA,true,2,16,NA,left,E31_Q6_ansL.png,E31_Q10_ansR.png,within,NA,NaN,NA,left,1896,1,1,1651
cBhrhL4k,NA,NA,cBhrhL4k,2020-0188,2021-11-15,18:32:22,19:34:34,NA,incomplete,false,NA,true,2,17,NA,left,E15_Q9_ansR.png,E15_Q7_ansL.png,within,NA,NaN,NA,left,1847,1,1,1033
cBhrhL4k,NA,NA,cBhrhL4k,2020-0188,2021-11-15,18:32:22,19:34:34,NA,incomplete,false,NA,true,2,18,NA,left,E31_Q9_ansL.png,E28_Q4_ansL.png,between,NA,NaN,NA,right,1236,0,2,1585
cBhrhL4k,NA,NA,cBhrhL4k,2020-0188,2021-11-15,18:32:22,19:34:34,NA,incomplete,false,NA,true,2,19,NA,left,E31_Q7_ansR.png,E31_Q5_ansL.png,within,NA,NaN,NA,right,2829,0,1,714
cBhrhL4k,NA,NA,cBhrhL4k,2020-0188,2021-11-15,18:32:22,19:34:34,NA,incomplete,false,NA,true,2,20,NA,right,E28_Q6_ansL.png,E28_Q3_ansL.png,within,NA,NaN,NA,left,3484,0,0,830
cBhrhL4k,NA,NA,cBhrhL4k,2020-0188,2021-11-15,18:32:22,19:34:34,NA,incomplete,false,NA,true,2,21,NA,right,E31_Q6_ansL.png,E15_Q10_ansL.png,between,NA,NaN,NA,right,1229,1,3,2381.999999999767
cBhrhL4k,NA,NA,cBhrhL4k,2020-0188,2021-11-15,18:32:22,19:34:34,NA,incomplete,false,NA,true,2,22,NA,left,E15_Q5_ansR.png,E15_Q9_ansR.png,within,NA,NaN,NA,left,1790,1,1,1359.0000000002328
cBhrhL4k,NA,NA,cBhrhL4k,2020-0188,2021-11-15,18:32:22,19:34:34,NA,incomplete,false,NA,true,2,23,NA,right,E28_Q3_ansL.png,E28_Q4_ansL.png,within,NA,NaN,NA,right,1292.9999999997672,1,1,1197
cBhrhL4k,NA,NA,cBhrhL4k,2020-0188,2021-11-15,18:32:22,19:34:34,NA,incomplete,false,NA,true,2,24,NA,right,E28_Q9_ansL.png,E28_Q6_ansL.png,within,NA,NaN,NA,left,2319,0,1,863
cBhrhL4k,NA,NA,cBhrhL4k,2020-0188,2021-11-15,18:32:22,19:34:34,NA,incomplete,false,NA,true,2,25,NA,left,E31_Q1_ansR.png,E31_Q4_ansL.png,within,NA,NaN,NA,left,3222.999999999767,1,1,1334.9999999997672
cBhrhL4k,NA,NA,cBhrhL4k,2020-0188,2021-11-15,18:32:22,19:34:34,NA,incomplete,false,NA,true,2,26,NA,right,E15_Q10_ansL.png,E15_Q6_ansR.png,within,NA,NaN,NA,left,2212,0,1,774
cBhrhL4k,NA,NA,cBhrhL4k,2020-0188,2021-11-15,18:32:22,19:34:34,NA,incomplete,false,true,NA,3,0,E13_Q5_ansR.png,right,NA,NA,NA,right,1818,true,NA,NA,NA,NA,NA
cBhrhL4k,NA,NA,cBhrhL4k,2020-0188,2021-11-15,18:32:22,19:34:34,NA,incomplete,false,true,NA,3,1,E13_Q1_ansL.png,left,NA,NA,NA,left,1031,true,NA,NA,NA,NA,NA
cBhrhL4k,NA,NA,cBhrhL4k,2020-0188,2021-11-15,18:32:22,19:34:34,NA,incomplete,false,true,NA,3,2,E13_Q10_ansL.png,left,NA,NA,NA,left,1456,true,NA,NA,NA,NA,NA
cBhrhL4k,NA,NA,cBhrhL4k,2020-0188,2021-11-15,18:32:22,19:34:34,NA,incomplete,false,true,NA,3,3,E13_Q8_ansL.png,left,NA,NA,NA,left,1632,true,NA,NA,NA,NA,NA
cBhrhL4k,NA,NA,cBhrhL4k,2020-0188,2021-11-15,18:32:22,19:34:34,NA,incomplete,false,true,NA,3,4,E13_Q7_ansL.png,left,NA,NA,NA,left,1291,true,NA,NA,NA,NA,NA
cBhrhL4k,NA,NA,cBhrhL4k,2020-0188,2021-11-15,18:32:22,19:34:34,NA,incomplete,false,true,NA,3,5,E13_Q3_ansR.png,right,NA,NA,NA,right,1363,true,NA,NA,NA,NA,NA
cBhrhL4k,NA,NA,cBhrhL4k,2020-0188,2021-11-15,18:32:22,19:34:34,NA,incomplete,false,true,NA,3,6,E13_Q9_ansR.png,right,NA,NA,NA,right,1387,true,NA,NA,NA,NA,NA
cBhrhL4k,NA,NA,cBhrhL4k,2020-0188,2021-11-15,18:32:22,19:34:34,NA,incomplete,false,true,NA,3,7,E13_Q6_ansR.png,right,NA,NA,NA,right,1123,true,NA,NA,NA,NA,NA
cBhrhL4k,NA,NA,cBhrhL4k,2020-0188,2021-11-15,18:32:22,19:34:34,NA,incomplete,false,true,NA,3,8,E13_Q4_ansR.png,right,NA,NA,NA,right,1706,true,NA,NA,NA,NA,NA
cBhrhL4k,NA,NA,cBhrhL4k,2020-0188,2021-11-15,18:32:22,19:34:34,NA,incomplete,false,true,NA,3,9,E13_Q2_ansL.png,left,NA,NA,NA,left,1456,true,NA,NA,NA,NA,NA
cBhrhL4k,NA,NA,cBhrhL4k,2020-0188,2021-11-15,18:32:22,19:34:34,NA,incomplete,false,true,NA,3,10,E6_Q4_ansR.png,right,NA,NA,NA,right,1643,true,NA,NA,NA,NA,NA
cBhrhL4k,NA,NA,cBhrhL4k,2020-0188,2021-11-15,18:32:22,19:34:34,NA,incomplete,false,true,NA,3,11,E6_Q8_ansL.png,left,NA,NA,NA,left,1004.99999999977,true,NA,NA,NA,NA,NA
cBhrhL4k,NA,NA,cBhrhL4k,2020-0188,2021-11-15,18:32:22,19:34:34,NA,incomplete,false,true,NA,3,12,E6_Q6_ansR.png,right,NA,NA,NA,right,1362.99999999977,true,NA,NA,NA,NA,NA
cBhrhL4k,NA,NA,cBhrhL4k,2020-0188,2021-11-15,18:32:22,19:34:34,NA,incomplete,false,true,NA,3,13,E6_Q2_ansL.png,left,NA,NA,NA,left,1176,true,NA,NA,NA,NA,NA
cBhrhL4k,NA,NA,cBhrhL4k,2020-0188,2021-11-15,18:32:22,19:34:34,NA,incomplete,false,true,NA,3,14,E6_Q3_ansR.png,right,NA,NA,NA,right,1118,true,NA,NA,NA,NA,NA
cBhrhL4k,NA,NA,cBhrhL4k,2020-0188,2021-11-15,18:32:22,19:34:34,NA,incomplete,false,true,NA,3,15,E6_Q10_ansL.png,left,NA,NA,NA,left,997,true,NA,NA,NA,NA,NA
cBhrhL4k,NA,NA,cBhrhL4k,2020-0188,2021-11-15,18:32:22,19:34:34,NA,incomplete,false,true,NA,3,16,E6_Q7_ansL.png,left,NA,NA,NA,left,1502.00000000023,true,NA,NA,NA,NA,NA
cBhrhL4k,NA,NA,cBhrhL4k,2020-0188,2021-11-15,18:32:22,19:34:34,NA,incomplete,false,true,NA,3,17,E6_Q9_ansL.png,left,NA,NA,NA,left,1101,true,NA,NA,NA,NA,NA
cBhrhL4k,NA,NA,cBhrhL4k,2020-0188,2021-11-15,18:32:22,19:34:34,NA,incomplete,false,true,NA,3,18,E6_Q5_ansR.png,right,NA,NA,NA,right,952,true,NA,NA,NA,NA,NA
cBhrhL4k,NA,NA,cBhrhL4k,2020-0188,2021-11-15,18:32:22,19:34:34,NA,incomplete,false,true,NA,3,19,E6_Q1_ansL.png,left,NA,NA,NA,left,684.000000000233,true,NA,NA,NA,NA,NA
cBhrhL4k,NA,NA,cBhrhL4k,2020-0188,2021-11-15,18:32:22,19:34:34,NA,incomplete,false,true,NA,3,20,E32_Q9_ansR.png,right,NA,NA,NA,right,1356.00000000023,true,NA,NA,NA,NA,NA
cBhrhL4k,NA,NA,cBhrhL4k,2020-0188,2021-11-15,18:32:22,19:34:34,NA,incomplete,false,true,NA,3,21,E32_Q10_ansL.png,left,NA,NA,NA,left,873,true,NA,NA,NA,NA,NA
cBhrhL4k,NA,NA,cBhrhL4k,2020-0188,2021-11-15,18:32:22,19:34:34,NA,incomplete,false,true,NA,3,22,E32_Q4_ansR.png,right,NA,NA,NA,right,1088,true,NA,NA,NA,NA,NA
cBhrhL4k,NA,NA,cBhrhL4k,2020-0188,2021-11-15,18:32:22,19:34:34,NA,incomplete,false,true,NA,3,23,E32_Q6_ansR.png,right,NA,NA,NA,left,759,false,NA,NA,NA,NA,NA
cBhrhL4k,NA,NA,cBhrhL4k,2020-0188,2021-11-15,18:32:22,19:34:34,NA,incomplete,false,true,NA,3,24,E32_Q1_ansL.png,left,NA,NA,NA,left,957,true,NA,NA,NA,NA,NA
cBhrhL4k,NA,NA,cBhrhL4k,2020-0188,2021-11-15,18:32:22,19:34:34,NA,incomplete,false,true,NA,3,25,E32_Q2_ansL.png,left,NA,NA,NA,left,872,true,NA,NA,NA,NA,NA
cBhrhL4k,NA,NA,cBhrhL4k,2020-0188,2021-11-15,18:32:22,19:34:34,NA,incomplete,false,true,NA,3,26,E32_Q8_ansL.png,left,NA,NA,NA,left,1000,true,NA,NA,NA,NA,NA
cBhrhL4k,NA,NA,cBhrhL4k,2020-0188,2021-11-15,18:32:22,19:34:34,NA,incomplete,false,true,NA,3,27,E32_Q7_ansL.png,left,NA,NA,NA,left,1584,true,NA,NA,NA,NA,NA
cBhrhL4k,NA,NA,cBhrhL4k,2020-0188,2021-11-15,18:32:22,19:34:34,NA,incomplete,false,true,NA,3,28,E32_Q3_ansR.png,right,NA,NA,NA,right,2642,true,NA,NA,NA,NA,NA
cBhrhL4k,NA,NA,cBhrhL4k,2020-0188,2021-11-15,18:32:22,19:34:34,NA,incomplete,false,true,NA,3,29,E32_Q5_ansR.png,right,NA,NA,NA,right,2481,true,NA,NA,NA,NA,NA
cBhrhL4k,NA,NA,cBhrhL4k,2020-0188,2021-11-15,18:32:22,19:34:34,NA,incomplete,false,NA,true,3,0,NA,left,E13_Q6_ansR.png,E6_Q4_ansR.png,between,NA,NaN,NA,left,1537,1,2,3052.000000000233
cBhrhL4k,NA,NA,cBhrhL4k,2020-0188,2021-11-15,18:32:22,19:34:34,NA,incomplete,false,NA,true,3,1,NA,right,E13_Q6_ansR.png,E13_Q7_ansL.png,within,NA,NaN,NA,right,1656,1,1,1774
cBhrhL4k,NA,NA,cBhrhL4k,2020-0188,2021-11-15,18:32:22,19:34:34,NA,incomplete,false,NA,true,3,2,NA,left,E13_Q5_ansR.png,E13_Q8_ansL.png,within,NA,NaN,NA,left,1514,1,1,976
cBhrhL4k,NA,NA,cBhrhL4k,2020-0188,2021-11-15,18:32:22,19:34:34,NA,incomplete,false,NA,true,3,3,NA,left,E6_Q6_ansR.png,E6_Q10_ansL.png,within,NA,NaN,NA,left,1775,1,1,2139.999999999767
cBhrhL4k,NA,NA,cBhrhL4k,2020-0188,2021-11-15,18:32:22,19:34:34,NA,incomplete,false,NA,true,3,4,NA,right,E32_Q2_ansL.png,E32_Q4_ansR.png,within,NA,NaN,NA,right,1943,1,1,2075
cBhrhL4k,NA,NA,cBhrhL4k,2020-0188,2021-11-15,18:32:22,19:34:34,NA,incomplete,false,NA,true,3,5,NA,right,E6_Q1_ansL.png,E6_Q7_ansL.png,within,NA,NaN,NA,right,2399,1,1,836
cBhrhL4k,NA,NA,cBhrhL4k,2020-0188,2021-11-15,18:32:22,19:34:34,NA,incomplete,false,NA,true,3,6,NA,left,E13_Q10_ansL.png,E13_Q3_ansR.png,within,NA,NaN,NA,left,1171,1,1,943
cBhrhL4k,NA,NA,cBhrhL4k,2020-0188,2021-11-15,18:32:22,19:34:34,NA,incomplete,false,NA,true,3,7,NA,right,E32_Q1_ansL.png,E32_Q10_ansL.png,within,NA,NaN,NA,right,1229,1,1,853.0000000002328
cBhrhL4k,NA,NA,cBhrhL4k,2020-0188,2021-11-15,18:32:22,19:34:34,NA,incomplete,false,NA,true,3,8,NA,right,E13_Q9_ansR.png,E13_Q8_ansL.png,within,NA,NaN,NA,right,1480,1,1,919
cBhrhL4k,NA,NA,cBhrhL4k,2020-0188,2021-11-15,18:32:22,19:34:34,NA,incomplete,false,NA,true,3,9,NA,left,E13_Q1_ansL.png,E13_Q7_ansL.png,within,NA,NaN,NA,left,1406,1,1,1250.9999999997672
cBhrhL4k,NA,NA,cBhrhL4k,2020-0188,2021-11-15,18:32:22,19:34:34,NA,incomplete,false,NA,true,3,10,NA,left,E6_Q4_ansR.png,E6_Q2_ansL.png,within,NA,NaN,NA,left,1299.0000000002328,1,1,1146
cBhrhL4k,NA,NA,cBhrhL4k,2020-0188,2021-11-15,18:32:22,19:34:34,NA,incomplete,false,NA,true,3,11,NA,left,E6_Q8_ansL.png,E6_Q3_ansR.png,within,NA,NaN,NA,left,1039,1,1,1196
cBhrhL4k,NA,NA,cBhrhL4k,2020-0188,2021-11-15,18:32:22,19:34:34,NA,incomplete,false,NA,true,3,12,NA,left,E6_Q3_ansR.png,E6_Q9_ansL.png,within,NA,NaN,NA,left,1625,1,1,885
cBhrhL4k,NA,NA,cBhrhL4k,2020-0188,2021-11-15,18:32:22,19:34:34,NA,incomplete,false,NA,true,3,13,NA,right,E6_Q5_ansR.png,E6_Q10_ansL.png,within,NA,NaN,NA,right,1691,1,1,877
cBhrhL4k,NA,NA,cBhrhL4k,2020-0188,2021-11-15,18:32:22,19:34:34,NA,incomplete,false,NA,true,3,14,NA,left,E13_Q3_ansR.png,E13_Q4_ansR.png,within,NA,NaN,NA,right,1781,0,1,934
cBhrhL4k,NA,NA,cBhrhL4k,2020-0188,2021-11-15,18:32:22,19:34:34,NA,incomplete,false,NA,true,3,15,NA,left,E13_Q9_ansR.png,E13_Q2_ansL.png,within,NA,NaN,NA,right,1489,0,1,904
cBhrhL4k,NA,NA,cBhrhL4k,2020-0188,2021-11-15,18:32:22,19:34:34,NA,incomplete,false,NA,true,3,16,NA,right,E32_Q4_ansR.png,E6_Q1_ansL.png,between,NA,NaN,NA,right,1668,1,1,1839
cBhrhL4k,NA,NA,cBhrhL4k,2020-0188,2021-11-15,18:32:22,19:34:34,NA,incomplete,false,NA,true,3,17,NA,left,E6_Q5_ansR.png,E32_Q10_ansL.png,between,NA,NaN,NA,left,2116,1,2,1408
cBhrhL4k,NA,NA,cBhrhL4k,2020-0188,2021-11-15,18:32:22,19:34:34,NA,incomplete,false,NA,true,3,18,NA,left,E32_Q9_ansR.png,E32_Q6_ansR.png,within,NA,NaN,NA,left,1458,1,1,2822.999999999767
cBhrhL4k,NA,NA,cBhrhL4k,2020-0188,2021-11-15,18:32:22,19:34:34,NA,incomplete,false,NA,true,3,19,NA,left,E32_Q2_ansL.png,E32_Q3_ansR.png,within,NA,NaN,NA,left,1071,1,1,862
cBhrhL4k,NA,NA,cBhrhL4k,2020-0188,2021-11-15,18:32:22,19:34:34,NA,incomplete,false,NA,true,3,20,NA,right,E32_Q7_ansL.png,E32_Q1_ansL.png,within,NA,NaN,NA,right,2035.0000000002328,1,1,1057
cBhrhL4k,NA,NA,cBhrhL4k,2020-0188,2021-11-15,18:32:22,19:34:34,NA,incomplete,false,NA,true,3,21,NA,right,E6_Q8_ansL.png,E13_Q4_ansR.png,between,NA,NaN,NA,right,1416,1,2,806
cBhrhL4k,NA,NA,cBhrhL4k,2020-0188,2021-11-15,18:32:22,19:34:34,NA,incomplete,false,NA,true,3,22,NA,right,E32_Q5_ansR.png,E32_Q8_ansL.png,within,NA,NaN,NA,right,1846,1,1,912
cBhrhL4k,NA,NA,cBhrhL4k,2020-0188,2021-11-15,18:32:22,19:34:34,NA,incomplete,false,NA,true,3,23,NA,right,E32_Q9_ansR.png,E6_Q9_ansL.png,between,NA,NaN,NA,right,2675,1,2,1066
cBhrhL4k,NA,NA,cBhrhL4k,2020-0188,2021-11-15,18:32:22,19:34:34,NA,incomplete,false,NA,true,3,24,NA,left,E6_Q2_ansL.png,E6_Q7_ansL.png,within,NA,NaN,NA,right,2465.000000000233,0,0,2049
cBhrhL4k,NA,NA,cBhrhL4k,2020-0188,2021-11-15,18:32:22,19:34:34,NA,incomplete,false,NA,true,3,25,NA,left,E13_Q2_ansL.png,E6_Q6_ansR.png,between,NA,NaN,NA,left,1423,1,2,919
cBhrhL4k,NA,NA,cBhrhL4k,2020-0188,2021-11-15,18:32:22,19:34:34,NA,incomplete,false,NA,true,3,26,NA,left,E32_Q6_ansR.png,E32_Q8_ansL.png,within,NA,NaN,NA,left,1815,1,1,2424.000000000233
cBhrhL4k,NA,NA,cBhrhL4k,2020-0188,2021-11-15,18:32:22,19:34:34,NA,incomplete,false,true,NA,4,0,E30_Q9_ansL.png,left,NA,NA,NA,none,0,false,NA,NA,NA,NA,NA
cBhrhL4k,NA,NA,cBhrhL4k,2020-0188,2021-11-15,18:32:22,19:34:34,NA,incomplete,false,true,NA,4,1,E30_Q10_ansR.png,right,NA,NA,NA,right,2273,true,NA,NA,NA,NA,NA
cBhrhL4k,NA,NA,cBhrhL4k,2020-0188,2021-11-15,18:32:22,19:34:34,NA,incomplete,false,true,NA,4,2,E30_Q2_ansL.png,left,NA,NA,NA,left,2177,true,NA,NA,NA,NA,NA
cBhrhL4k,NA,NA,cBhrhL4k,2020-0188,2021-11-15,18:32:22,19:34:34,NA,incomplete,false,true,NA,4,3,E30_Q8_ansL.png,left,NA,NA,NA,right,2999,false,NA,NA,NA,NA,NA
cBhrhL4k,NA,NA,cBhrhL4k,2020-0188,2021-11-15,18:32:22,19:34:34,NA,incomplete,false,true,NA,4,4,E30_Q5_ansR.png,right,NA,NA,NA,right,1918.99999999977,true,NA,NA,NA,NA,NA
cBhrhL4k,NA,NA,cBhrhL4k,2020-0188,2021-11-15,18:32:22,19:34:34,NA,incomplete,false,true,NA,4,5,E30_Q4_ansL.png,left,NA,NA,NA,left,1616,true,NA,NA,NA,NA,NA
cBhrhL4k,NA,NA,cBhrhL4k,2020-0188,2021-11-15,18:32:22,19:34:34,NA,incomplete,false,true,NA,4,6,E30_Q7_ansL.png,left,NA,NA,NA,right,2470,false,NA,NA,NA,NA,NA
cBhrhL4k,NA,NA,cBhrhL4k,2020-0188,2021-11-15,18:32:22,19:34:34,NA,incomplete,false,true,NA,4,7,E30_Q6_ansR.png,right,NA,NA,NA,right,1549,true,NA,NA,NA,NA,NA
cBhrhL4k,NA,NA,cBhrhL4k,2020-0188,2021-11-15,18:32:22,19:34:34,NA,incomplete,false,true,NA,4,8,E30_Q1_ansL.png,left,NA,NA,NA,left,1404,true,NA,NA,NA,NA,NA
cBhrhL4k,NA,NA,cBhrhL4k,2020-0188,2021-11-15,18:32:22,19:34:34,NA,incomplete,false,true,NA,4,9,E30_Q3_ansL.png,left,NA,NA,NA,left,2708,true,NA,NA,NA,NA,NA
cBhrhL4k,NA,NA,cBhrhL4k,2020-0188,2021-11-15,18:32:22,19:34:34,NA,incomplete,false,true,NA,4,10,E27_Q10_ansL.png,left,NA,NA,NA,left,1329,true,NA,NA,NA,NA,NA
cBhrhL4k,NA,NA,cBhrhL4k,2020-0188,2021-11-15,18:32:22,19:34:34,NA,incomplete,false,true,NA,4,11,E27_Q6_ansR.png,right,NA,NA,NA,right,1234,true,NA,NA,NA,NA,NA
cBhrhL4k,NA,NA,cBhrhL4k,2020-0188,2021-11-15,18:32:22,19:34:34,NA,incomplete,false,true,NA,4,12,E27_Q7_ansL.png,left,NA,NA,NA,left,1108.99999999977,true,NA,NA,NA,NA,NA
cBhrhL4k,NA,NA,cBhrhL4k,2020-0188,2021-11-15,18:32:22,19:34:34,NA,incomplete,false,true,NA,4,13,E27_Q3_ansR.png,right,NA,NA,NA,right,881,true,NA,NA,NA,NA,NA
cBhrhL4k,NA,NA,cBhrhL4k,2020-0188,2021-11-15,18:32:22,19:34:34,NA,incomplete,false,true,NA,4,14,E27_Q2_ansL.png,left,NA,NA,NA,left,1006,true,NA,NA,NA,NA,NA
cBhrhL4k,NA,NA,cBhrhL4k,2020-0188,2021-11-15,18:32:22,19:34:34,NA,incomplete,false,true,NA,4,15,E27_Q1_ansL.png,left,NA,NA,NA,left,898,true,NA,NA,NA,NA,NA
cBhrhL4k,NA,NA,cBhrhL4k,2020-0188,2021-11-15,18:32:22,19:34:34,NA,incomplete,false,true,NA,4,16,E27_Q4_ansR.png,right,NA,NA,NA,right,1137.99999999977,true,NA,NA,NA,NA,NA
cBhrhL4k,NA,NA,cBhrhL4k,2020-0188,2021-11-15,18:32:22,19:34:34,NA,incomplete,false,true,NA,4,17,E27_Q8_ansL.png,left,NA,NA,NA,left,940.999999999767,true,NA,NA,NA,NA,NA
cBhrhL4k,NA,NA,cBhrhL4k,2020-0188,2021-11-15,18:32:22,19:34:34,NA,incomplete,false,true,NA,4,18,E27_Q5_ansR.png,right,NA,NA,NA,right,1167,true,NA,NA,NA,NA,NA
cBhrhL4k,NA,NA,cBhrhL4k,2020-0188,2021-11-15,18:32:22,19:34:34,NA,incomplete,false,true,NA,4,19,E27_Q9_ansR.png,right,NA,NA,NA,right,1288,true,NA,NA,NA,NA,NA
cBhrhL4k,NA,NA,cBhrhL4k,2020-0188,2021-11-15,18:32:22,19:34:34,NA,incomplete,false,true,NA,4,20,E2_Q8_ansR.png,right,NA,NA,NA,right,1804,true,NA,NA,NA,NA,NA
cBhrhL4k,NA,NA,cBhrhL4k,2020-0188,2021-11-15,18:32:22,19:34:34,NA,incomplete,false,true,NA,4,21,E2_Q10_ansL.png,left,NA,NA,NA,left,1030,true,NA,NA,NA,NA,NA
cBhrhL4k,NA,NA,cBhrhL4k,2020-0188,2021-11-15,18:32:22,19:34:34,NA,incomplete,false,true,NA,4,22,E2_Q6_ansL.png,left,NA,NA,NA,left,822,true,NA,NA,NA,NA,NA
cBhrhL4k,NA,NA,cBhrhL4k,2020-0188,2021-11-15,18:32:22,19:34:34,NA,incomplete,false,true,NA,4,23,E2_Q9_ansL.png,left,NA,NA,NA,left,1165.00000000023,true,NA,NA,NA,NA,NA
cBhrhL4k,NA,NA,cBhrhL4k,2020-0188,2021-11-15,18:32:22,19:34:34,NA,incomplete,false,true,NA,4,24,E2_Q7_ansR.png,right,NA,NA,NA,right,1115,true,NA,NA,NA,NA,NA
cBhrhL4k,NA,NA,cBhrhL4k,2020-0188,2021-11-15,18:32:22,19:34:34,NA,incomplete,false,true,NA,4,25,E2_Q2_ansR.png,right,NA,NA,NA,right,1095,true,NA,NA,NA,NA,NA
cBhrhL4k,NA,NA,cBhrhL4k,2020-0188,2021-11-15,18:32:22,19:34:34,NA,incomplete,false,true,NA,4,26,E2_Q1_ansL.png,left,NA,NA,NA,left,874,true,NA,NA,NA,NA,NA
cBhrhL4k,NA,NA,cBhrhL4k,2020-0188,2021-11-15,18:32:22,19:34:34,NA,incomplete,false,true,NA,4,27,E2_Q5_ansL.png,left,NA,NA,NA,left,992,true,NA,NA,NA,NA,NA
cBhrhL4k,NA,NA,cBhrhL4k,2020-0188,2021-11-15,18:32:22,19:34:34,NA,incomplete,false,true,NA,4,28,E2_Q3_ansR.png,right,NA,NA,NA,right,1072,true,NA,NA,NA,NA,NA
cBhrhL4k,NA,NA,cBhrhL4k,2020-0188,2021-11-15,18:32:22,19:34:34,NA,incomplete,false,true,NA,4,29,E2_Q4_ansL.png,left,NA,NA,NA,left,1964.99999999977,true,NA,NA,NA,NA,NA
cBhrhL4k,NA,NA,cBhrhL4k,2020-0188,2021-11-15,18:32:22,19:34:34,NA,incomplete,false,NA,true,4,0,NA,right,E27_Q8_ansL.png,E27_Q2_ansL.png,within,NA,NaN,NA,right,3888,1,0,1813.0000000002328
cBhrhL4k,NA,NA,cBhrhL4k,2020-0188,2021-11-15,18:32:22,19:34:34,NA,incomplete,false,NA,true,4,1,NA,left,E30_Q9_ansL.png,E30_Q8_ansL.png,within,NA,NaN,NA,left,1659.0000000002328,1,1,960
cBhrhL4k,NA,NA,cBhrhL4k,2020-0188,2021-11-15,18:32:22,19:34:34,NA,incomplete,false,NA,true,4,2,NA,right,E2_Q10_ansL.png,E27_Q5_ansR.png,between,NA,NaN,NA,right,2165.999999999767,1,1,1048
cBhrhL4k,NA,NA,cBhrhL4k,2020-0188,2021-11-15,18:32:22,19:34:34,NA,incomplete,false,NA,true,4,3,NA,left,E2_Q6_ansL.png,E2_Q2_ansR.png,within,NA,NaN,NA,left,2777.000000000233,1,1,1042
cBhrhL4k,NA,NA,cBhrhL4k,2020-0188,2021-11-15,18:32:22,19:34:34,NA,incomplete,false,NA,true,4,4,NA,left,E30_Q8_ansL.png,E30_Q7_ansL.png,within,NA,NaN,NA,left,2481,1,1,1658
cBhrhL4k,NA,NA,cBhrhL4k,2020-0188,2021-11-15,18:32:22,19:34:34,NA,incomplete,false,NA,true,4,5,NA,left,E30_Q1_ansL.png,E27_Q6_ansR.png,between,NA,NaN,NA,left,1441,1,2,2377
cBhrhL4k,NA,NA,cBhrhL4k,2020-0188,2021-11-15,18:32:22,19:34:34,NA,incomplete,false,NA,true,4,6,NA,left,E27_Q1_ansL.png,E27_Q5_ansR.png,within,NA,NaN,NA,left,1789,1,1,830
cBhrhL4k,NA,NA,cBhrhL4k,2020-0188,2021-11-15,18:32:22,19:34:34,NA,incomplete,false,NA,true,4,7,NA,right,E2_Q5_ansL.png,E2_Q7_ansR.png,within,NA,NaN,NA,right,1480,1,1,756
cBhrhL4k,NA,NA,cBhrhL4k,2020-0188,2021-11-15,18:32:22,19:34:34,NA,incomplete,false,NA,true,4,8,NA,right,E30_Q6_ansR.png,E30_Q5_ansR.png,within,NA,NaN,NA,right,2750,1,0,1569
cBhrhL4k,NA,NA,cBhrhL4k,2020-0188,2021-11-15,18:32:22,19:34:34,NA,incomplete,false,NA,true,4,9,NA,right,E2_Q8_ansR.png,E27_Q8_ansL.png,between,NA,NaN,NA,right,1732,1,2,871
cBhrhL4k,NA,NA,cBhrhL4k,2020-0188,2021-11-15,18:32:22,19:34:34,NA,incomplete,false,NA,true,4,10,NA,right,E30_Q5_ansR.png,E30_Q10_ansR.png,within,NA,NaN,NA,right,1497,1,1,950
cBhrhL4k,NA,NA,cBhrhL4k,2020-0188,2021-11-15,18:32:22,19:34:34,NA,incomplete,false,NA,true,4,11,NA,right,E2_Q7_ansR.png,E2_Q10_ansL.png,within,NA,NaN,NA,right,1448.0000000002328,1,1,815
cBhrhL4k,NA,NA,cBhrhL4k,2020-0188,2021-11-15,18:32:22,19:34:34,NA,incomplete,false,NA,true,4,12,NA,right,E30_Q1_ansL.png,E30_Q4_ansL.png,within,NA,NaN,NA,right,1276,1,1,1424
cBhrhL4k,NA,NA,cBhrhL4k,2020-0188,2021-11-15,18:32:22,19:34:34,NA,incomplete,false,NA,true,4,13,NA,left,E30_Q6_ansR.png,E27_Q10_ansL.png,between,NA,NaN,NA,left,2108.000000000233,1,1,1017.9999999997672
cBhrhL4k,NA,NA,cBhrhL4k,2020-0188,2021-11-15,18:32:22,19:34:34,NA,incomplete,false,NA,true,4,14,NA,left,E27_Q7_ansL.png,E27_Q1_ansL.png,within,NA,NaN,NA,left,1095,1,1,4776
cBhrhL4k,NA,NA,cBhrhL4k,2020-0188,2021-11-15,18:32:22,19:34:34,NA,incomplete,false,NA,true,4,15,NA,left,E2_Q1_ansL.png,E2_Q4_ansL.png,within,NA,NaN,NA,left,1855,1,1,837
cBhrhL4k,NA,NA,cBhrhL4k,2020-0188,2021-11-15,18:32:22,19:34:34,NA,incomplete,false,NA,true,4,16,NA,left,E30_Q7_ansL.png,E30_Q3_ansL.png,within,NA,NaN,NA,left,2066,1,1,1586
cBhrhL4k,NA,NA,cBhrhL4k,2020-0188,2021-11-15,18:32:22,19:34:34,NA,incomplete,false,NA,true,4,17,NA,left,E30_Q3_ansL.png,E27_Q7_ansL.png,between,NA,NaN,NA,left,2384,1,1,1000
cBhrhL4k,NA,NA,cBhrhL4k,2020-0188,2021-11-15,18:32:22,19:34:34,NA,incomplete,false,NA,true,4,18,NA,left,E27_Q3_ansR.png,E27_Q4_ansR.png,within,NA,NaN,NA,left,1170,1,1,985
cBhrhL4k,NA,NA,cBhrhL4k,2020-0188,2021-11-15,18:32:22,19:34:34,NA,incomplete,false,NA,true,4,19,NA,left,E2_Q8_ansR.png,E2_Q9_ansL.png,within,NA,NaN,NA,left,912,1,1,1022.0000000002328
cBhrhL4k,NA,NA,cBhrhL4k,2020-0188,2021-11-15,18:32:22,19:34:34,NA,incomplete,false,NA,true,4,20,NA,right,E2_Q3_ansR.png,E2_Q2_ansR.png,within,NA,NaN,NA,right,1507,1,1,1496
cBhrhL4k,NA,NA,cBhrhL4k,2020-0188,2021-11-15,18:32:22,19:34:34,NA,incomplete,false,NA,true,4,21,NA,right,E30_Q4_ansL.png,E30_Q2_ansL.png,within,NA,NaN,NA,right,1852.9999999997672,1,1,1041
cBhrhL4k,NA,NA,cBhrhL4k,2020-0188,2021-11-15,18:32:22,19:34:34,NA,incomplete,false,NA,true,4,22,NA,left,E27_Q6_ansR.png,E27_Q2_ansL.png,within,NA,NaN,NA,left,1130,1,1,1244
cBhrhL4k,NA,NA,cBhrhL4k,2020-0188,2021-11-15,18:32:22,19:34:34,NA,incomplete,false,NA,true,4,23,NA,left,E27_Q4_ansR.png,E27_Q9_ansR.png,within,NA,NaN,NA,left,1871.0000000002328,1,1,1448
cBhrhL4k,NA,NA,cBhrhL4k,2020-0188,2021-11-15,18:32:22,19:34:34,NA,incomplete,false,NA,true,4,24,NA,left,E2_Q9_ansL.png,E2_Q1_ansL.png,within,NA,NaN,NA,right,1536.9999999997672,0,1,693
cBhrhL4k,NA,NA,cBhrhL4k,2020-0188,2021-11-15,18:32:22,19:34:34,NA,incomplete,false,NA,true,4,25,NA,right,E2_Q6_ansL.png,E27_Q9_ansR.png,between,NA,NaN,NA,right,2563.999999999767,1,2,1376.0000000002328
cBhrhL4k,NA,NA,cBhrhL4k,2020-0188,2021-11-15,18:32:22,19:34:34,NA,incomplete,false,NA,true,4,26,NA,right,E27_Q3_ansR.png,E27_Q10_ansL.png,within,NA,NaN,NA,right,1855,1,1,827
cBhrhL4k,NA,NA,cBhrhL4k,2020-0188,2021-11-15,18:32:22,19:34:34,NA,incomplete,false,true,NA,5,0,E19_Q1_ansL.png,left,NA,NA,NA,left,1540,true,NA,NA,NA,NA,NA
cBhrhL4k,NA,NA,cBhrhL4k,2020-0188,2021-11-15,18:32:22,19:34:34,NA,incomplete,false,true,NA,5,1,E19_Q2_ansL.png,left,NA,NA,NA,left,1019,true,NA,NA,NA,NA,NA
cBhrhL4k,NA,NA,cBhrhL4k,2020-0188,2021-11-15,18:32:22,19:34:34,NA,incomplete,false,true,NA,5,2,E19_Q8_ansL.png,left,NA,NA,NA,right,1457.00000000023,false,NA,NA,NA,NA,NA
cBhrhL4k,NA,NA,cBhrhL4k,2020-0188,2021-11-15,18:32:22,19:34:34,NA,incomplete,false,true,NA,5,3,E19_Q7_ansL.png,left,NA,NA,NA,left,1092.00000000023,true,NA,NA,NA,NA,NA
cBhrhL4k,NA,NA,cBhrhL4k,2020-0188,2021-11-15,18:32:22,19:34:34,NA,incomplete,false,true,NA,5,4,E19_Q6_ansR.png,right,NA,NA,NA,right,1437,true,NA,NA,NA,NA,NA
cBhrhL4k,NA,NA,cBhrhL4k,2020-0188,2021-11-15,18:32:22,19:34:34,NA,incomplete,false,true,NA,5,5,E19_Q5_ansR.png,right,NA,NA,NA,right,1130,true,NA,NA,NA,NA,NA
cBhrhL4k,NA,NA,cBhrhL4k,2020-0188,2021-11-15,18:32:22,19:34:34,NA,incomplete,false,true,NA,5,6,E19_Q3_ansR.png,right,NA,NA,NA,right,1582.99999999977,true,NA,NA,NA,NA,NA
cBhrhL4k,NA,NA,cBhrhL4k,2020-0188,2021-11-15,18:32:22,19:34:34,NA,incomplete,false,true,NA,5,7,E19_Q10_ansL.png,left,NA,NA,NA,left,1352,true,NA,NA,NA,NA,NA
cBhrhL4k,NA,NA,cBhrhL4k,2020-0188,2021-11-15,18:32:22,19:34:34,NA,incomplete,false,true,NA,5,8,E19_Q9_ansR.png,right,NA,NA,NA,right,1032,true,NA,NA,NA,NA,NA
cBhrhL4k,NA,NA,cBhrhL4k,2020-0188,2021-11-15,18:32:22,19:34:34,NA,incomplete,false,true,NA,5,9,E19_Q4_ansR.png,right,NA,NA,NA,right,1266,true,NA,NA,NA,NA,NA
cBhrhL4k,NA,NA,cBhrhL4k,2020-0188,2021-11-15,18:32:22,19:34:34,NA,incomplete,false,true,NA,5,10,E21_Q3_ansR.png,right,NA,NA,NA,right,1483.00000000023,true,NA,NA,NA,NA,NA
cBhrhL4k,NA,NA,cBhrhL4k,2020-0188,2021-11-15,18:32:22,19:34:34,NA,incomplete,false,true,NA,5,11,E21_Q8_ansL.png,left,NA,NA,NA,left,1202,true,NA,NA,NA,NA,NA
cBhrhL4k,NA,NA,cBhrhL4k,2020-0188,2021-11-15,18:32:22,19:34:34,NA,incomplete,false,true,NA,5,12,E21_Q2_ansL.png,left,NA,NA,NA,left,1159,true,NA,NA,NA,NA,NA
cBhrhL4k,NA,NA,cBhrhL4k,2020-0188,2021-11-15,18:32:22,19:34:34,NA,incomplete,false,true,NA,5,13,E21_Q9_ansR.png,right,NA,NA,NA,right,1298,true,NA,NA,NA,NA,NA
cBhrhL4k,NA,NA,cBhrhL4k,2020-0188,2021-11-15,18:32:22,19:34:34,NA,incomplete,false,true,NA,5,14,E21_Q5_ansR.png,right,NA,NA,NA,right,1073,true,NA,NA,NA,NA,NA
cBhrhL4k,NA,NA,cBhrhL4k,2020-0188,2021-11-15,18:32:22,19:34:34,NA,incomplete,false,true,NA,5,15,E21_Q10_ansL.png,left,NA,NA,NA,left,1198,true,NA,NA,NA,NA,NA
cBhrhL4k,NA,NA,cBhrhL4k,2020-0188,2021-11-15,18:32:22,19:34:34,NA,incomplete,false,true,NA,5,16,E21_Q1_ansL.png,left,NA,NA,NA,left,1110,true,NA,NA,NA,NA,NA
cBhrhL4k,NA,NA,cBhrhL4k,2020-0188,2021-11-15,18:32:22,19:34:34,NA,incomplete,false,true,NA,5,17,E21_Q6_ansR.png,right,NA,NA,NA,right,1047.00000000023,true,NA,NA,NA,NA,NA
cBhrhL4k,NA,NA,cBhrhL4k,2020-0188,2021-11-15,18:32:22,19:34:34,NA,incomplete,false,true,NA,5,18,E21_Q4_ansR.png,right,NA,NA,NA,none,0,false,NA,NA,NA,NA,NA
cBhrhL4k,NA,NA,cBhrhL4k,2020-0188,2021-11-15,18:32:22,19:34:34,NA,incomplete,false,true,NA,5,19,E21_Q7_ansL.png,left,NA,NA,NA,left,1521,true,NA,NA,NA,NA,NA
cBhrhL4k,NA,NA,cBhrhL4k,2020-0188,2021-11-15,18:32:22,19:34:34,NA,incomplete,false,true,NA,5,20,E8_Q4_ansL.png,left,NA,NA,NA,left,1794.00000000023,true,NA,NA,NA,NA,NA
cBhrhL4k,NA,NA,cBhrhL4k,2020-0188,2021-11-15,18:32:22,19:34:34,NA,incomplete,false,true,NA,5,21,E8_Q1_ansR.png,right,NA,NA,NA,right,2519,true,NA,NA,NA,NA,NA
cBhrhL4k,NA,NA,cBhrhL4k,2020-0188,2021-11-15,18:32:22,19:34:34,NA,incomplete,false,true,NA,5,22,E8_Q2_ansR.png,right,NA,NA,NA,right,2734,true,NA,NA,NA,NA,NA
cBhrhL4k,NA,NA,cBhrhL4k,2020-0188,2021-11-15,18:32:22,19:34:34,NA,incomplete,false,true,NA,5,23,E8_Q10_ansR.png,right,NA,NA,NA,right,3313,true,NA,NA,NA,NA,NA
cBhrhL4k,NA,NA,cBhrhL4k,2020-0188,2021-11-15,18:32:22,19:34:34,NA,incomplete,false,true,NA,5,24,E8_Q8_ansR.png,right,NA,NA,NA,right,1885.99999999977,true,NA,NA,NA,NA,NA
cBhrhL4k,NA,NA,cBhrhL4k,2020-0188,2021-11-15,18:32:22,19:34:34,NA,incomplete,false,true,NA,5,25,E8_Q7_ansR.png,right,NA,NA,NA,right,1144,true,NA,NA,NA,NA,NA
cBhrhL4k,NA,NA,cBhrhL4k,2020-0188,2021-11-15,18:32:22,19:34:34,NA,incomplete,false,true,NA,5,26,E8_Q6_ansL.png,left,NA,NA,NA,left,1184,true,NA,NA,NA,NA,NA
cBhrhL4k,NA,NA,cBhrhL4k,2020-0188,2021-11-15,18:32:22,19:34:34,NA,incomplete,false,true,NA,5,27,E8_Q9_ansL.png,left,NA,NA,NA,left,1551,true,NA,NA,NA,NA,NA
cBhrhL4k,NA,NA,cBhrhL4k,2020-0188,2021-11-15,18:32:22,19:34:34,NA,incomplete,false,true,NA,5,28,E8_Q3_ansL.png,left,NA,NA,NA,left,1196,true,NA,NA,NA,NA,NA
cBhrhL4k,NA,NA,cBhrhL4k,2020-0188,2021-11-15,18:32:22,19:34:34,NA,incomplete,false,true,NA,5,29,E8_Q5_ansL.png,left,NA,NA,NA,left,1218,true,NA,NA,NA,NA,NA
cBhrhL4k,NA,NA,cBhrhL4k,2020-0188,2021-11-15,18:32:22,19:34:34,NA,incomplete,false,NA,true,5,0,NA,right,E8_Q4_ansL.png,E21_Q6_ansR.png,between,NA,NaN,NA,right,1579,1,1,1571
cBhrhL4k,NA,NA,cBhrhL4k,2020-0188,2021-11-15,18:32:22,19:34:34,NA,incomplete,false,NA,true,5,1,NA,left,E21_Q5_ansR.png,E21_Q6_ansR.png,within,NA,NaN,NA,left,1644,1,0,886
cBhrhL4k,NA,NA,cBhrhL4k,2020-0188,2021-11-15,18:32:22,19:34:34,NA,incomplete,false,NA,true,5,2,NA,left,E8_Q1_ansR.png,E8_Q8_ansR.png,within,NA,NaN,NA,left,1464.0000000002328,1,1,969
cBhrhL4k,NA,NA,cBhrhL4k,2020-0188,2021-11-15,18:32:22,19:34:34,NA,incomplete,false,NA,true,5,3,NA,right,E21_Q8_ansL.png,E19_Q9_ansR.png,between,NA,NaN,NA,right,1707,1,2,994
cBhrhL4k,NA,NA,cBhrhL4k,2020-0188,2021-11-15,18:32:22,19:34:34,NA,incomplete,false,NA,true,5,4,NA,right,E8_Q3_ansL.png,E8_Q7_ansR.png,within,NA,NaN,NA,right,1757,1,1,692
cBhrhL4k,NA,NA,cBhrhL4k,2020-0188,2021-11-15,18:32:22,19:34:34,NA,incomplete,false,NA,true,5,5,NA,left,E19_Q8_ansL.png,E19_Q5_ansR.png,within,NA,NaN,NA,left,1514,1,1,1732.9999999997672
cBhrhL4k,NA,NA,cBhrhL4k,2020-0188,2021-11-15,18:32:22,19:34:34,NA,incomplete,false,NA,true,5,6,NA,right,E19_Q4_ansR.png,E19_Q3_ansR.png,within,NA,NaN,NA,left,2937,0,1,1310
cBhrhL4k,NA,NA,cBhrhL4k,2020-0188,2021-11-15,18:32:22,19:34:34,NA,incomplete,false,NA,true,5,7,NA,left,E21_Q1_ansL.png,E21_Q7_ansL.png,within,NA,NaN,NA,left,2230,1,1,2069
cBhrhL4k,NA,NA,cBhrhL4k,2020-0188,2021-11-15,18:32:22,19:34:34,NA,incomplete,false,NA,true,5,8,NA,left,E19_Q4_ansR.png,E21_Q2_ansL.png,between,NA,NaN,NA,left,1374,1,2,1171
cBhrhL4k,NA,NA,cBhrhL4k,2020-0188,2021-11-15,18:32:22,19:34:34,NA,incomplete,false,NA,true,5,9,NA,right,E19_Q6_ansR.png,E19_Q2_ansL.png,within,NA,NaN,NA,right,1968.0000000002328,1,1,1550.9999999997672
cBhrhL4k,NA,NA,cBhrhL4k,2020-0188,2021-11-15,18:32:22,19:34:34,NA,incomplete,false,NA,true,5,10,NA,right,E8_Q10_ansR.png,E8_Q4_ansL.png,within,NA,NaN,NA,right,3066,1,2,3584.000000000233
cBhrhL4k,NA,NA,cBhrhL4k,2020-0188,2021-11-15,18:32:22,19:34:34,NA,incomplete,false,NA,true,5,11,NA,left,E21_Q3_ansR.png,E21_Q9_ansR.png,within,NA,NaN,NA,left,1711,1,1,1462
cBhrhL4k,NA,NA,cBhrhL4k,2020-0188,2021-11-15,18:32:22,19:34:34,NA,incomplete,false,NA,true,5,12,NA,right,E21_Q10_ansL.png,E21_Q2_ansL.png,within,NA,NaN,NA,right,3435.999999999767,1,1,1245
cBhrhL4k,NA,NA,cBhrhL4k,2020-0188,2021-11-15,18:32:22,19:34:34,NA,incomplete,false,NA,true,5,13,NA,right,E19_Q3_ansR.png,E19_Q7_ansL.png,within,NA,NaN,NA,right,1725,1,1,985
cBhrhL4k,NA,NA,cBhrhL4k,2020-0188,2021-11-15,18:32:22,19:34:34,NA,incomplete,false,NA,true,5,14,NA,left,E8_Q6_ansL.png,E8_Q5_ansL.png,within,NA,NaN,NA,left,2523.000000000233,1,1,1987.0000000002328
cBhrhL4k,NA,NA,cBhrhL4k,2020-0188,2021-11-15,18:32:22,19:34:34,NA,incomplete,false,NA,true,5,15,NA,right,E8_Q7_ansR.png,E8_Q2_ansR.png,within,NA,NaN,NA,left,2874,0,1,1128
cBhrhL4k,NA,NA,cBhrhL4k,2020-0188,2021-11-15,18:32:22,19:34:34,NA,incomplete,false,NA,true,5,16,NA,left,E19_Q6_ansR.png,E19_Q10_ansL.png,within,NA,NaN,NA,left,1309,1,1,952.0000000002328
cBhrhL4k,NA,NA,cBhrhL4k,2020-0188,2021-11-15,18:32:22,19:34:34,NA,incomplete,false,NA,true,5,17,NA,left,E21_Q9_ansR.png,E21_Q1_ansL.png,within,NA,NaN,NA,left,967,1,1,1275.9999999997672
cBhrhL4k,NA,NA,cBhrhL4k,2020-0188,2021-11-15,18:32:22,19:34:34,NA,incomplete,false,NA,true,5,18,NA,right,E8_Q2_ansR.png,E21_Q7_ansL.png,between,NA,NaN,NA,right,2962,1,2,868.9999999995343
cBhrhL4k,NA,NA,cBhrhL4k,2020-0188,2021-11-15,18:32:22,19:34:34,NA,incomplete,false,NA,true,5,19,NA,left,E19_Q5_ansR.png,E19_Q9_ansR.png,within,NA,NaN,NA,left,2564.000000000233,1,1,707
cBhrhL4k,NA,NA,cBhrhL4k,2020-0188,2021-11-15,18:32:22,19:34:34,NA,incomplete,false,NA,true,5,20,NA,left,E8_Q10_ansR.png,E8_Q6_ansL.png,within,NA,NaN,NA,right,1651.0000000002328,0,1,788
cBhrhL4k,NA,NA,cBhrhL4k,2020-0188,2021-11-15,18:32:22,19:34:34,NA,incomplete,false,NA,true,5,21,NA,left,E21_Q4_ansR.png,E8_Q1_ansR.png,between,NA,NaN,NA,left,2285,1,2,1220.0000000002328
cBhrhL4k,NA,NA,cBhrhL4k,2020-0188,2021-11-15,18:32:22,19:34:34,NA,incomplete,false,NA,true,5,22,NA,left,E8_Q8_ansR.png,E8_Q9_ansL.png,within,NA,NaN,NA,left,2918,1,1,707.9999999995343
cBhrhL4k,NA,NA,cBhrhL4k,2020-0188,2021-11-15,18:32:22,19:34:34,NA,incomplete,false,NA,true,5,23,NA,left,E21_Q8_ansL.png,E21_Q5_ansR.png,within,NA,NaN,NA,left,1107,1,1,952.0000000002328
cBhrhL4k,NA,NA,cBhrhL4k,2020-0188,2021-11-15,18:32:22,19:34:34,NA,incomplete,false,NA,true,5,24,NA,left,E19_Q1_ansL.png,E19_Q7_ansL.png,within,NA,NaN,NA,left,998.9999999997672,1,1,869.9999999997672
cBhrhL4k,NA,NA,cBhrhL4k,2020-0188,2021-11-15,18:32:22,19:34:34,NA,incomplete,false,NA,true,5,25,NA,left,E19_Q10_ansL.png,E21_Q3_ansR.png,between,NA,NaN,NA,left,2775,1,2,782
cBhrhL4k,NA,NA,cBhrhL4k,2020-0188,2021-11-15,18:32:22,19:34:34,NA,incomplete,false,NA,true,5,26,NA,left,E21_Q10_ansL.png,E21_Q4_ansR.png,within,NA,NaN,NA,left,984,1,1,821
cBhrhL4k,NA,NA,cBhrhL4k,2020-0188,2021-11-15,18:32:22,19:34:34,NA,incomplete,false,true,NA,6,0,E22_Q6_ansL.png,left,NA,NA,NA,left,1608,true,NA,NA,NA,NA,NA
cBhrhL4k,NA,NA,cBhrhL4k,2020-0188,2021-11-15,18:32:22,19:34:34,NA,incomplete,false,true,NA,6,1,E22_Q2_ansR.png,right,NA,NA,NA,right,956,true,NA,NA,NA,NA,NA
cBhrhL4k,NA,NA,cBhrhL4k,2020-0188,2021-11-15,18:32:22,19:34:34,NA,incomplete,false,true,NA,6,2,E22_Q4_ansL.png,left,NA,NA,NA,left,1115.00000000047,true,NA,NA,NA,NA,NA
cBhrhL4k,NA,NA,cBhrhL4k,2020-0188,2021-11-15,18:32:22,19:34:34,NA,incomplete,false,true,NA,6,3,E22_Q1_ansR.png,right,NA,NA,NA,right,1066,true,NA,NA,NA,NA,NA
cBhrhL4k,NA,NA,cBhrhL4k,2020-0188,2021-11-15,18:32:22,19:34:34,NA,incomplete,false,true,NA,6,4,E22_Q5_ansL.png,left,NA,NA,NA,left,1192,true,NA,NA,NA,NA,NA
cBhrhL4k,NA,NA,cBhrhL4k,2020-0188,2021-11-15,18:32:22,19:34:34,NA,incomplete,false,true,NA,6,5,E22_Q3_ansL.png,left,NA,NA,NA,left,1074,true,NA,NA,NA,NA,NA
cBhrhL4k,NA,NA,cBhrhL4k,2020-0188,2021-11-15,18:32:22,19:34:34,NA,incomplete,false,true,NA,6,6,E22_Q10_ansR.png,right,NA,NA,NA,right,1107,true,NA,NA,NA,NA,NA
cBhrhL4k,NA,NA,cBhrhL4k,2020-0188,2021-11-15,18:32:22,19:34:34,NA,incomplete,false,true,NA,6,7,E22_Q9_ansL.png,left,NA,NA,NA,left,1009,true,NA,NA,NA,NA,NA
cBhrhL4k,NA,NA,cBhrhL4k,2020-0188,2021-11-15,18:32:22,19:34:34,NA,incomplete,false,true,NA,6,8,E22_Q8_ansR.png,right,NA,NA,NA,right,1004,true,NA,NA,NA,NA,NA
cBhrhL4k,NA,NA,cBhrhL4k,2020-0188,2021-11-15,18:32:22,19:34:34,NA,incomplete,false,true,NA,6,9,E22_Q7_ansR.png,right,NA,NA,NA,right,1293,true,NA,NA,NA,NA,NA
cBhrhL4k,NA,NA,cBhrhL4k,2020-0188,2021-11-15,18:32:22,19:34:34,NA,incomplete,false,true,NA,6,10,E29_Q2_ansL.png,left,NA,NA,NA,left,1778,true,NA,NA,NA,NA,NA
cBhrhL4k,NA,NA,cBhrhL4k,2020-0188,2021-11-15,18:32:22,19:34:34,NA,incomplete,false,true,NA,6,11,E29_Q6_ansR.png,right,NA,NA,NA,right,895,true,NA,NA,NA,NA,NA
cBhrhL4k,NA,NA,cBhrhL4k,2020-0188,2021-11-15,18:32:22,19:34:34,NA,incomplete,false,true,NA,6,12,E29_Q10_ansL.png,left,NA,NA,NA,left,1177,true,NA,NA,NA,NA,NA
cBhrhL4k,NA,NA,cBhrhL4k,2020-0188,2021-11-15,18:32:22,19:34:34,NA,incomplete,false,true,NA,6,13,E29_Q4_ansR.png,right,NA,NA,NA,right,1034,true,NA,NA,NA,NA,NA
cBhrhL4k,NA,NA,cBhrhL4k,2020-0188,2021-11-15,18:32:22,19:34:34,NA,incomplete,false,true,NA,6,14,E29_Q9_ansR.png,right,NA,NA,NA,right,1648,true,NA,NA,NA,NA,NA
cBhrhL4k,NA,NA,cBhrhL4k,2020-0188,2021-11-15,18:32:22,19:34:34,NA,incomplete,false,true,NA,6,15,E29_Q7_ansL.png,left,NA,NA,NA,left,1115,true,NA,NA,NA,NA,NA
cBhrhL4k,NA,NA,cBhrhL4k,2020-0188,2021-11-15,18:32:22,19:34:34,NA,incomplete,false,true,NA,6,16,E29_Q3_ansR.png,right,NA,NA,NA,right,1293,true,NA,NA,NA,NA,NA
cBhrhL4k,NA,NA,cBhrhL4k,2020-0188,2021-11-15,18:32:22,19:34:34,NA,incomplete,false,true,NA,6,17,E29_Q1_ansL.png,left,NA,NA,NA,left,2297.00000000047,true,NA,NA,NA,NA,NA
cBhrhL4k,NA,NA,cBhrhL4k,2020-0188,2021-11-15,18:32:22,19:34:34,NA,incomplete,false,true,NA,6,18,E29_Q5_ansR.png,right,NA,NA,NA,right,1508,true,NA,NA,NA,NA,NA
cBhrhL4k,NA,NA,cBhrhL4k,2020-0188,2021-11-15,18:32:22,19:34:34,NA,incomplete,false,true,NA,6,19,E29_Q8_ansL.png,left,NA,NA,NA,left,2094,true,NA,NA,NA,NA,NA
cBhrhL4k,NA,NA,cBhrhL4k,2020-0188,2021-11-15,18:32:22,19:34:34,NA,incomplete,false,true,NA,6,20,E5_Q8_ansL.png,left,NA,NA,NA,left,1980,true,NA,NA,NA,NA,NA
cBhrhL4k,NA,NA,cBhrhL4k,2020-0188,2021-11-15,18:32:22,19:34:34,NA,incomplete,false,true,NA,6,21,E5_Q4_ansR.png,right,NA,NA,NA,right,786.999999999534,true,NA,NA,NA,NA,NA
cBhrhL4k,NA,NA,cBhrhL4k,2020-0188,2021-11-15,18:32:22,19:34:34,NA,incomplete,false,true,NA,6,22,E5_Q1_ansL.png,left,NA,NA,NA,left,1059.99999999953,true,NA,NA,NA,NA,NA
cBhrhL4k,NA,NA,cBhrhL4k,2020-0188,2021-11-15,18:32:22,19:34:34,NA,incomplete,false,true,NA,6,23,E5_Q10_ansR.png,right,NA,NA,NA,right,963,true,NA,NA,NA,NA,NA
cBhrhL4k,NA,NA,cBhrhL4k,2020-0188,2021-11-15,18:32:22,19:34:34,NA,incomplete,false,true,NA,6,24,E5_Q2_ansL.png,left,NA,NA,NA,left,944,true,NA,NA,NA,NA,NA
cBhrhL4k,NA,NA,cBhrhL4k,2020-0188,2021-11-15,18:32:22,19:34:34,NA,incomplete,false,true,NA,6,25,E5_Q7_ansL.png,left,NA,NA,NA,left,1785,true,NA,NA,NA,NA,NA
cBhrhL4k,NA,NA,cBhrhL4k,2020-0188,2021-11-15,18:32:22,19:34:34,NA,incomplete,false,true,NA,6,26,E5_Q9_ansR.png,right,NA,NA,NA,right,1013,true,NA,NA,NA,NA,NA
cBhrhL4k,NA,NA,cBhrhL4k,2020-0188,2021-11-15,18:32:22,19:34:34,NA,incomplete,false,true,NA,6,27,E5_Q6_ansR.png,right,NA,NA,NA,right,1050,true,NA,NA,NA,NA,NA
cBhrhL4k,NA,NA,cBhrhL4k,2020-0188,2021-11-15,18:32:22,19:34:34,NA,incomplete,false,true,NA,6,28,E5_Q3_ansR.png,right,NA,NA,NA,right,1124.00000000047,true,NA,NA,NA,NA,NA
cBhrhL4k,NA,NA,cBhrhL4k,2020-0188,2021-11-15,18:32:22,19:34:34,NA,incomplete,false,true,NA,6,29,E5_Q5_ansR.png,right,NA,NA,NA,right,1975.99999999953,true,NA,NA,NA,NA,NA
cBhrhL4k,NA,NA,cBhrhL4k,2020-0188,2021-11-15,18:32:22,19:34:34,NA,incomplete,false,NA,true,6,0,NA,right,E5_Q5_ansR.png,E5_Q9_ansR.png,within,NA,NaN,NA,right,1877,1,1,923
cBhrhL4k,NA,NA,cBhrhL4k,2020-0188,2021-11-15,18:32:22,19:34:34,NA,incomplete,false,NA,true,6,1,NA,right,E29_Q10_ansL.png,E22_Q7_ansR.png,between,NA,NaN,NA,right,4330,1,2,951.9999999995343
cBhrhL4k,NA,NA,cBhrhL4k,2020-0188,2021-11-15,18:32:22,19:34:34,NA,incomplete,false,NA,true,6,2,NA,left,E22_Q3_ansL.png,E22_Q8_ansR.png,within,NA,NaN,NA,left,1806,1,1,969
cBhrhL4k,NA,NA,cBhrhL4k,2020-0188,2021-11-15,18:32:22,19:34:34,NA,incomplete,false,NA,true,6,3,NA,right,E22_Q7_ansR.png,E22_Q10_ansR.png,within,NA,NaN,NA,right,3345,1,1,944
cBhrhL4k,NA,NA,cBhrhL4k,2020-0188,2021-11-15,18:32:22,19:34:34,NA,incomplete,false,NA,true,6,4,NA,right,E29_Q8_ansL.png,E29_Q3_ansR.png,within,NA,NaN,NA,left,2383.0000000004657,0,0,3719
cBhrhL4k,NA,NA,cBhrhL4k,2020-0188,2021-11-15,18:32:22,19:34:34,NA,incomplete,false,NA,true,6,5,NA,left,E29_Q10_ansL.png,E29_Q7_ansL.png,within,NA,NaN,NA,left,1260,1,1,772
cBhrhL4k,NA,NA,cBhrhL4k,2020-0188,2021-11-15,18:32:22,19:34:34,NA,incomplete,false,NA,true,6,6,NA,left,E29_Q8_ansL.png,E5_Q1_ansL.png,between,NA,NaN,NA,left,1683,1,2,1627.0000000004657
cBhrhL4k,NA,NA,cBhrhL4k,2020-0188,2021-11-15,18:32:22,19:34:34,NA,incomplete,false,NA,true,6,7,NA,right,E29_Q2_ansL.png,E22_Q9_ansL.png,between,NA,NaN,NA,right,2534,1,1,6267
cBhrhL4k,NA,NA,cBhrhL4k,2020-0188,2021-11-15,18:32:22,19:34:34,NA,incomplete,false,NA,true,6,8,NA,left,E22_Q1_ansR.png,E22_Q10_ansR.png,within,NA,NaN,NA,left,2585,1,1,2645
cBhrhL4k,NA,NA,cBhrhL4k,2020-0188,2021-11-15,18:32:22,19:34:34,NA,incomplete,false,NA,true,6,9,NA,left,E29_Q5_ansR.png,E5_Q4_ansR.png,between,NA,NaN,NA,left,2081,1,1,1040
cBhrhL4k,NA,NA,cBhrhL4k,2020-0188,2021-11-15,18:32:22,19:34:34,NA,incomplete,false,NA,true,6,10,NA,left,E29_Q9_ansR.png,E29_Q1_ansL.png,within,NA,NaN,NA,left,1701,1,1,1449
cBhrhL4k,NA,NA,cBhrhL4k,2020-0188,2021-11-15,18:32:22,19:34:34,NA,incomplete,false,NA,true,6,11,NA,left,E5_Q7_ansL.png,E5_Q3_ansR.png,within,NA,NaN,NA,left,3123,1,1,861
cBhrhL4k,NA,NA,cBhrhL4k,2020-0188,2021-11-15,18:32:22,19:34:34,NA,incomplete,false,NA,true,6,12,NA,left,E22_Q4_ansL.png,E22_Q3_ansL.png,within,NA,NaN,NA,left,1659,1,0,3761
cBhrhL4k,NA,NA,cBhrhL4k,2020-0188,2021-11-15,18:32:22,19:34:34,NA,incomplete,false,NA,true,6,13,NA,right,E29_Q4_ansR.png,E29_Q2_ansL.png,within,NA,NaN,NA,right,2408,1,1,1132
cBhrhL4k,NA,NA,cBhrhL4k,2020-0188,2021-11-15,18:32:22,19:34:34,NA,incomplete,false,NA,true,6,14,NA,left,E5_Q1_ansL.png,E5_Q7_ansL.png,within,NA,NaN,NA,left,3115.9999999995343,1,1,852.0000000004657
cBhrhL4k,NA,NA,cBhrhL4k,2020-0188,2021-11-15,18:32:22,19:34:34,NA,incomplete,false,NA,true,6,15,NA,right,E5_Q6_ansR.png,E5_Q2_ansL.png,within,NA,NaN,NA,right,1181,1,1,1855
cBhrhL4k,NA,NA,cBhrhL4k,2020-0188,2021-11-15,18:32:22,19:34:34,NA,incomplete,false,NA,true,6,16,NA,right,E29_Q6_ansR.png,E22_Q8_ansR.png,between,NA,NaN,NA,right,1602,1,2,1294
cBhrhL4k,NA,NA,cBhrhL4k,2020-0188,2021-11-15,18:32:22,19:34:34,NA,incomplete,false,NA,true,6,17,NA,right,E22_Q1_ansR.png,E22_Q6_ansL.png,within,NA,NaN,NA,right,1394,1,0,2196
cBhrhL4k,NA,NA,cBhrhL4k,2020-0188,2021-11-15,18:32:22,19:34:34,NA,incomplete,false,NA,true,6,18,NA,left,E29_Q7_ansL.png,E29_Q5_ansR.png,within,NA,NaN,NA,left,1455,1,1,1130
cBhrhL4k,NA,NA,cBhrhL4k,2020-0188,2021-11-15,18:32:22,19:34:34,NA,incomplete,false,NA,true,6,19,NA,right,E5_Q8_ansL.png,E29_Q1_ansL.png,between,NA,NaN,NA,right,1390,1,1,937
cBhrhL4k,NA,NA,cBhrhL4k,2020-0188,2021-11-15,18:32:22,19:34:34,NA,incomplete,false,NA,true,6,20,NA,right,E22_Q9_ansL.png,E22_Q5_ansL.png,within,NA,NaN,NA,right,2678,1,1,853
cBhrhL4k,NA,NA,cBhrhL4k,2020-0188,2021-11-15,18:32:22,19:34:34,NA,incomplete,false,NA,true,6,21,NA,left,E22_Q2_ansR.png,E22_Q5_ansL.png,within,NA,NaN,NA,left,1863,1,1,2966
cBhrhL4k,NA,NA,cBhrhL4k,2020-0188,2021-11-15,18:32:22,19:34:34,NA,incomplete,false,NA,true,6,22,NA,right,E5_Q10_ansR.png,E5_Q8_ansL.png,within,NA,NaN,NA,right,1098,1,1,861.9999999995343
cBhrhL4k,NA,NA,cBhrhL4k,2020-0188,2021-11-15,18:32:22,19:34:34,NA,incomplete,false,NA,true,6,23,NA,left,E5_Q10_ansR.png,E5_Q9_ansR.png,within,NA,NaN,NA,left,1450,1,1,855
cBhrhL4k,NA,NA,cBhrhL4k,2020-0188,2021-11-15,18:32:22,19:34:34,NA,incomplete,false,NA,true,6,24,NA,right,E29_Q9_ansR.png,E29_Q6_ansR.png,within,NA,NaN,NA,right,1291,1,1,2003
cBhrhL4k,NA,NA,cBhrhL4k,2020-0188,2021-11-15,18:32:22,19:34:34,NA,incomplete,false,NA,true,6,25,NA,right,E5_Q2_ansL.png,E5_Q4_ansR.png,within,NA,NaN,NA,right,1253,1,1,1002
cBhrhL4k,NA,NA,cBhrhL4k,2020-0188,2021-11-15,18:32:22,19:34:34,NA,incomplete,false,NA,true,6,26,NA,right,E29_Q3_ansR.png,E29_Q4_ansR.png,within,NA,NaN,NA,left,2360,0,1,1123
cBhrhL4k,NA,NA,cBhrhL4k,2020-0188,2021-11-15,18:32:22,19:34:34,NA,incomplete,false,true,NA,7,0,E24_Q3_ansL.png,left,NA,NA,NA,left,1788,true,NA,NA,NA,NA,NA
cBhrhL4k,NA,NA,cBhrhL4k,2020-0188,2021-11-15,18:32:22,19:34:34,NA,incomplete,false,true,NA,7,1,E24_Q9_ansL.png,left,NA,NA,NA,left,1179,true,NA,NA,NA,NA,NA
cBhrhL4k,NA,NA,cBhrhL4k,2020-0188,2021-11-15,18:32:22,19:34:34,NA,incomplete,false,true,NA,7,2,E24_Q4_ansL.png,left,NA,NA,NA,left,1471.99999999953,true,NA,NA,NA,NA,NA
cBhrhL4k,NA,NA,cBhrhL4k,2020-0188,2021-11-15,18:32:22,19:34:34,NA,incomplete,false,true,NA,7,3,E24_Q10_ansR.png,right,NA,NA,NA,right,979.000000000466,true,NA,NA,NA,NA,NA
cBhrhL4k,NA,NA,cBhrhL4k,2020-0188,2021-11-15,18:32:22,19:34:34,NA,incomplete,false,true,NA,7,4,E24_Q2_ansR.png,right,NA,NA,NA,right,2098,true,NA,NA,NA,NA,NA
cBhrhL4k,NA,NA,cBhrhL4k,2020-0188,2021-11-15,18:32:22,19:34:34,NA,incomplete,false,true,NA,7,5,E24_Q8_ansR.png,right,NA,NA,NA,right,2340,true,NA,NA,NA,NA,NA
cBhrhL4k,NA,NA,cBhrhL4k,2020-0188,2021-11-15,18:32:22,19:34:34,NA,incomplete,false,true,NA,7,6,E24_Q7_ansR.png,right,NA,NA,NA,right,2194,true,NA,NA,NA,NA,NA
cBhrhL4k,NA,NA,cBhrhL4k,2020-0188,2021-11-15,18:32:22,19:34:34,NA,incomplete,false,true,NA,7,7,E24_Q5_ansL.png,left,NA,NA,NA,left,2475.99999999953,true,NA,NA,NA,NA,NA
cBhrhL4k,NA,NA,cBhrhL4k,2020-0188,2021-11-15,18:32:22,19:34:34,NA,incomplete,false,true,NA,7,8,E24_Q1_ansR.png,right,NA,NA,NA,right,1077,true,NA,NA,NA,NA,NA
cBhrhL4k,NA,NA,cBhrhL4k,2020-0188,2021-11-15,18:32:22,19:34:34,NA,incomplete,false,true,NA,7,9,E24_Q6_ansL.png,left,NA,NA,NA,left,1487,true,NA,NA,NA,NA,NA
cBhrhL4k,NA,NA,cBhrhL4k,2020-0188,2021-11-15,18:32:22,19:34:34,NA,incomplete,false,true,NA,7,10,E14_Q1_ansL.png,left,NA,NA,NA,left,1391,true,NA,NA,NA,NA,NA
cBhrhL4k,NA,NA,cBhrhL4k,2020-0188,2021-11-15,18:32:22,19:34:34,NA,incomplete,false,true,NA,7,11,E14_Q10_ansL.png,left,NA,NA,NA,left,1554,true,NA,NA,NA,NA,NA
cBhrhL4k,NA,NA,cBhrhL4k,2020-0188,2021-11-15,18:32:22,19:34:34,NA,incomplete,false,true,NA,7,12,E14_Q5_ansR.png,right,NA,NA,NA,right,1196.00000000047,true,NA,NA,NA,NA,NA
cBhrhL4k,NA,NA,cBhrhL4k,2020-0188,2021-11-15,18:32:22,19:34:34,NA,incomplete,false,true,NA,7,13,E14_Q8_ansL.png,left,NA,NA,NA,left,1023,true,NA,NA,NA,NA,NA
cBhrhL4k,NA,NA,cBhrhL4k,2020-0188,2021-11-15,18:32:22,19:34:34,NA,incomplete,false,true,NA,7,14,E14_Q6_ansR.png,right,NA,NA,NA,right,1251,true,NA,NA,NA,NA,NA
cBhrhL4k,NA,NA,cBhrhL4k,2020-0188,2021-11-15,18:32:22,19:34:34,NA,incomplete,false,true,NA,7,15,E14_Q2_ansL.png,left,NA,NA,NA,left,988,true,NA,NA,NA,NA,NA
cBhrhL4k,NA,NA,cBhrhL4k,2020-0188,2021-11-15,18:32:22,19:34:34,NA,incomplete,false,true,NA,7,16,E14_Q7_ansL.png,left,NA,NA,NA,left,1117,true,NA,NA,NA,NA,NA
cBhrhL4k,NA,NA,cBhrhL4k,2020-0188,2021-11-15,18:32:22,19:34:34,NA,incomplete,false,true,NA,7,17,E14_Q9_ansR.png,right,NA,NA,NA,right,829,true,NA,NA,NA,NA,NA
cBhrhL4k,NA,NA,cBhrhL4k,2020-0188,2021-11-15,18:32:22,19:34:34,NA,incomplete,false,true,NA,7,18,E14_Q3_ansR.png,right,NA,NA,NA,right,1091,true,NA,NA,NA,NA,NA
cBhrhL4k,NA,NA,cBhrhL4k,2020-0188,2021-11-15,18:32:22,19:34:34,NA,incomplete,false,true,NA,7,19,E14_Q4_ansR.png,right,NA,NA,NA,right,965,true,NA,NA,NA,NA,NA
cBhrhL4k,NA,NA,cBhrhL4k,2020-0188,2021-11-15,18:32:22,19:34:34,NA,incomplete,false,true,NA,7,20,E7_Q2_ansL.png,left,NA,NA,NA,left,1506.00000000047,true,NA,NA,NA,NA,NA
cBhrhL4k,NA,NA,cBhrhL4k,2020-0188,2021-11-15,18:32:22,19:34:34,NA,incomplete,false,true,NA,7,21,E7_Q3_ansR.png,right,NA,NA,NA,right,1192,true,NA,NA,NA,NA,NA
cBhrhL4k,NA,NA,cBhrhL4k,2020-0188,2021-11-15,18:32:22,19:34:34,NA,incomplete,false,true,NA,7,22,E7_Q8_ansL.png,left,NA,NA,NA,left,1115,true,NA,NA,NA,NA,NA
cBhrhL4k,NA,NA,cBhrhL4k,2020-0188,2021-11-15,18:32:22,19:34:34,NA,incomplete,false,true,NA,7,23,E7_Q1_ansL.png,left,NA,NA,NA,left,1083,true,NA,NA,NA,NA,NA
cBhrhL4k,NA,NA,cBhrhL4k,2020-0188,2021-11-15,18:32:22,19:34:34,NA,incomplete,false,true,NA,7,24,E7_Q10_ansR.png,right,NA,NA,NA,right,1499,true,NA,NA,NA,NA,NA
cBhrhL4k,NA,NA,cBhrhL4k,2020-0188,2021-11-15,18:32:22,19:34:34,NA,incomplete,false,true,NA,7,25,E7_Q9_ansR.png,right,NA,NA,NA,right,1547,true,NA,NA,NA,NA,NA
cBhrhL4k,NA,NA,cBhrhL4k,2020-0188,2021-11-15,18:32:22,19:34:34,NA,incomplete,false,true,NA,7,26,E7_Q4_ansR.png,right,NA,NA,NA,right,1363,true,NA,NA,NA,NA,NA
cBhrhL4k,NA,NA,cBhrhL4k,2020-0188,2021-11-15,18:32:22,19:34:34,NA,incomplete,false,true,NA,7,27,E7_Q6_ansR.png,right,NA,NA,NA,right,1174,true,NA,NA,NA,NA,NA
cBhrhL4k,NA,NA,cBhrhL4k,2020-0188,2021-11-15,18:32:22,19:34:34,NA,incomplete,false,true,NA,7,28,E7_Q7_ansL.png,left,NA,NA,NA,left,1294,true,NA,NA,NA,NA,NA
cBhrhL4k,NA,NA,cBhrhL4k,2020-0188,2021-11-15,18:32:22,19:34:34,NA,incomplete,false,true,NA,7,29,E7_Q5_ansR.png,right,NA,NA,NA,right,1030,true,NA,NA,NA,NA,NA
cBhrhL4k,NA,NA,cBhrhL4k,2020-0188,2021-11-15,18:32:22,19:34:34,NA,incomplete,false,NA,true,7,0,NA,left,E7_Q9_ansR.png,E7_Q7_ansL.png,within,NA,NaN,NA,left,3794.0000000004657,1,1,848
cBhrhL4k,NA,NA,cBhrhL4k,2020-0188,2021-11-15,18:32:22,19:34:34,NA,incomplete,false,NA,true,7,1,NA,left,E24_Q5_ansL.png,E14_Q1_ansL.png,between,NA,NaN,NA,left,1439,1,1,878.0000000004657
cBhrhL4k,NA,NA,cBhrhL4k,2020-0188,2021-11-15,18:32:22,19:34:34,NA,incomplete,false,NA,true,7,2,NA,left,E24_Q4_ansL.png,E24_Q8_ansR.png,within,NA,NaN,NA,left,1424,1,1,895.0000000004657
cBhrhL4k,NA,NA,cBhrhL4k,2020-0188,2021-11-15,18:32:22,19:34:34,NA,incomplete,false,NA,true,7,3,NA,right,E14_Q2_ansL.png,E14_Q5_ansR.png,within,NA,NaN,NA,right,2683,1,1,982.0000000004657
cBhrhL4k,NA,NA,cBhrhL4k,2020-0188,2021-11-15,18:32:22,19:34:34,NA,incomplete,false,NA,true,7,4,NA,right,E24_Q6_ansL.png,E24_Q7_ansR.png,within,NA,NaN,NA,left,2774.9999999995343,0,1,1980
cBhrhL4k,NA,NA,cBhrhL4k,2020-0188,2021-11-15,18:32:22,19:34:34,NA,incomplete,false,NA,true,7,5,NA,left,E14_Q1_ansL.png,E14_Q8_ansL.png,within,NA,NaN,NA,left,3059,1,1,1643
cBhrhL4k,NA,NA,cBhrhL4k,2020-0188,2021-11-15,18:32:22,19:34:34,NA,incomplete,false,NA,true,7,6,NA,left,E7_Q1_ansL.png,E7_Q4_ansR.png,within,NA,NaN,NA,left,2896,1,0,1187
cBhrhL4k,NA,NA,cBhrhL4k,2020-0188,2021-11-15,18:32:22,19:34:34,NA,incomplete,false,NA,true,7,7,NA,left,E24_Q9_ansL.png,E24_Q2_ansR.png,within,NA,NaN,NA,left,1612,1,1,1066.0000000004657
cBhrhL4k,NA,NA,cBhrhL4k,2020-0188,2021-11-15,18:32:22,19:34:34,NA,incomplete,false,NA,true,7,8,NA,left,E14_Q4_ansR.png,E7_Q8_ansL.png,between,NA,NaN,NA,left,3900,1,2,1129
cBhrhL4k,NA,NA,cBhrhL4k,2020-0188,2021-11-15,18:32:22,19:34:34,NA,incomplete,false,NA,true,7,9,NA,right,E14_Q10_ansL.png,E24_Q1_ansR.png,between,NA,NaN,NA,right,2558,1,2,1149
cBhrhL4k,NA,NA,cBhrhL4k,2020-0188,2021-11-15,18:32:22,19:34:34,NA,incomplete,false,NA,true,7,10,NA,left,E24_Q6_ansL.png,E14_Q5_ansR.png,between,NA,NaN,NA,left,1326,1,3,798
cBhrhL4k,NA,NA,cBhrhL4k,2020-0188,2021-11-15,18:32:22,19:34:34,NA,incomplete,false,NA,true,7,11,NA,left,E7_Q8_ansL.png,E7_Q9_ansR.png,within,NA,NaN,NA,left,2427,1,1,2115
cBhrhL4k,NA,NA,cBhrhL4k,2020-0188,2021-11-15,18:32:22,19:34:34,NA,incomplete,false,NA,true,7,12,NA,right,E24_Q7_ansR.png,E24_Q10_ansR.png,within,NA,NaN,NA,right,1959,1,1,3066
cBhrhL4k,NA,NA,cBhrhL4k,2020-0188,2021-11-15,18:32:22,19:34:34,NA,incomplete,false,NA,true,7,13,NA,right,E7_Q5_ansR.png,E7_Q4_ansR.png,within,NA,NaN,NA,right,2035,1,1,977.0000000004657
cBhrhL4k,NA,NA,cBhrhL4k,2020-0188,2021-11-15,18:32:22,19:34:34,NA,incomplete,false,NA,true,7,14,NA,right,E24_Q5_ansL.png,E24_Q2_ansR.png,within,NA,NaN,NA,right,1976,1,1,1619
cBhrhL4k,NA,NA,cBhrhL4k,2020-0188,2021-11-15,18:32:22,19:34:34,NA,incomplete,false,NA,true,7,15,NA,right,E14_Q4_ansR.png,E14_Q7_ansL.png,within,NA,NaN,NA,right,1724,1,1,1885.9999999995343
cBhrhL4k,NA,NA,cBhrhL4k,2020-0188,2021-11-15,18:32:22,19:34:34,NA,incomplete,false,NA,true,7,16,NA,right,E14_Q9_ansR.png,E14_Q6_ansR.png,within,NA,NaN,NA,right,1561,1,1,829
cBhrhL4k,NA,NA,cBhrhL4k,2020-0188,2021-11-15,18:32:22,19:34:34,NA,incomplete,false,NA,true,7,17,NA,right,E24_Q10_ansR.png,E24_Q3_ansL.png,within,NA,NaN,NA,right,1675,1,1,1465
cBhrhL4k,NA,NA,cBhrhL4k,2020-0188,2021-11-15,18:32:22,19:34:34,NA,incomplete,false,NA,true,7,18,NA,left,E14_Q9_ansR.png,E7_Q2_ansL.png,between,NA,NaN,NA,left,3010,1,2,755.0000000004657
cBhrhL4k,NA,NA,cBhrhL4k,2020-0188,2021-11-15,18:32:22,19:34:34,NA,incomplete,false,NA,true,7,19,NA,left,E7_Q3_ansR.png,E7_Q10_ansR.png,within,NA,NaN,NA,left,1275,1,1,3027
cBhrhL4k,NA,NA,cBhrhL4k,2020-0188,2021-11-15,18:32:22,19:34:34,NA,incomplete,false,NA,true,7,20,NA,right,E7_Q1_ansL.png,E7_Q2_ansL.png,within,NA,NaN,NA,right,1773,1,1,1025
cBhrhL4k,NA,NA,cBhrhL4k,2020-0188,2021-11-15,18:32:22,19:34:34,NA,incomplete,false,NA,true,7,21,NA,left,E7_Q10_ansR.png,E7_Q6_ansR.png,within,NA,NaN,NA,left,2243,1,1,1056
cBhrhL4k,NA,NA,cBhrhL4k,2020-0188,2021-11-15,18:32:22,19:34:34,NA,incomplete,false,NA,true,7,22,NA,right,E14_Q3_ansR.png,E14_Q2_ansL.png,within,NA,NaN,NA,left,1211,0,1,2407.0000000004657
cBhrhL4k,NA,NA,cBhrhL4k,2020-0188,2021-11-15,18:32:22,19:34:34,NA,incomplete,false,NA,true,7,23,NA,right,E24_Q1_ansR.png,E24_Q8_ansR.png,within,NA,NaN,NA,right,2589,1,1,1261.0000000004657
cBhrhL4k,NA,NA,cBhrhL4k,2020-0188,2021-11-15,18:32:22,19:34:34,NA,incomplete,false,NA,true,7,24,NA,right,E7_Q3_ansR.png,E14_Q3_ansR.png,between,NA,NaN,NA,right,1912,1,2,3932.0000000004657
cBhrhL4k,NA,NA,cBhrhL4k,2020-0188,2021-11-15,18:32:22,19:34:34,NA,incomplete,false,NA,true,7,25,NA,right,E14_Q7_ansL.png,E14_Q8_ansL.png,within,NA,NaN,NA,left,1316,0,0,773
cBhrhL4k,NA,NA,cBhrhL4k,2020-0188,2021-11-15,18:32:22,19:34:34,NA,incomplete,false,NA,true,7,26,NA,right,E14_Q6_ansR.png,E14_Q10_ansL.png,within,NA,NaN,NA,right,1489,1,1,1236
cBhrhL4k,NA,NA,cBhrhL4k,2020-0188,2021-11-15,18:32:22,19:34:34,NA,incomplete,false,true,NA,8,0,E26_Q10_ansL.png,left,NA,NA,NA,left,2073,true,NA,NA,NA,NA,NA
cBhrhL4k,NA,NA,cBhrhL4k,2020-0188,2021-11-15,18:32:22,19:34:34,NA,incomplete,false,true,NA,8,1,E26_Q4_ansR.png,right,NA,NA,NA,right,888,true,NA,NA,NA,NA,NA
cBhrhL4k,NA,NA,cBhrhL4k,2020-0188,2021-11-15,18:32:22,19:34:34,NA,incomplete,false,true,NA,8,2,E26_Q7_ansL.png,left,NA,NA,NA,left,854,true,NA,NA,NA,NA,NA
cBhrhL4k,NA,NA,cBhrhL4k,2020-0188,2021-11-15,18:32:22,19:34:34,NA,incomplete,false,true,NA,8,3,E26_Q8_ansL.png,left,NA,NA,NA,left,1858,true,NA,NA,NA,NA,NA
cBhrhL4k,NA,NA,cBhrhL4k,2020-0188,2021-11-15,18:32:22,19:34:34,NA,incomplete,false,true,NA,8,4,E26_Q9_ansR.png,right,NA,NA,NA,right,1064,true,NA,NA,NA,NA,NA
cBhrhL4k,NA,NA,cBhrhL4k,2020-0188,2021-11-15,18:32:22,19:34:34,NA,incomplete,false,true,NA,8,5,E26_Q2_ansL.png,left,NA,NA,NA,left,1847,true,NA,NA,NA,NA,NA
cBhrhL4k,NA,NA,cBhrhL4k,2020-0188,2021-11-15,18:32:22,19:34:34,NA,incomplete,false,true,NA,8,6,E26_Q5_ansR.png,right,NA,NA,NA,right,1575,true,NA,NA,NA,NA,NA
cBhrhL4k,NA,NA,cBhrhL4k,2020-0188,2021-11-15,18:32:22,19:34:34,NA,incomplete,false,true,NA,8,7,E26_Q6_ansR.png,right,NA,NA,NA,right,1053,true,NA,NA,NA,NA,NA
cBhrhL4k,NA,NA,cBhrhL4k,2020-0188,2021-11-15,18:32:22,19:34:34,NA,incomplete,false,true,NA,8,8,E26_Q3_ansR.png,right,NA,NA,NA,right,1151,true,NA,NA,NA,NA,NA
cBhrhL4k,NA,NA,cBhrhL4k,2020-0188,2021-11-15,18:32:22,19:34:34,NA,incomplete,false,true,NA,8,9,E26_Q1_ansL.png,left,NA,NA,NA,left,1652,true,NA,NA,NA,NA,NA
cBhrhL4k,NA,NA,cBhrhL4k,2020-0188,2021-11-15,18:32:22,19:34:34,NA,incomplete,false,true,NA,8,10,E33_Q5_ansR.png,right,NA,NA,NA,left,2096,false,NA,NA,NA,NA,NA
cBhrhL4k,NA,NA,cBhrhL4k,2020-0188,2021-11-15,18:32:22,19:34:34,NA,incomplete,false,true,NA,8,11,E33_Q1_ansL.png,left,NA,NA,NA,left,1452.00000000047,true,NA,NA,NA,NA,NA
cBhrhL4k,NA,NA,cBhrhL4k,2020-0188,2021-11-15,18:32:22,19:34:34,NA,incomplete,false,true,NA,8,12,E33_Q7_ansL.png,left,NA,NA,NA,left,3206,true,NA,NA,NA,NA,NA
cBhrhL4k,NA,NA,cBhrhL4k,2020-0188,2021-11-15,18:32:22,19:34:34,NA,incomplete,false,true,NA,8,13,E33_Q10_ansL.png,left,NA,NA,NA,right,1749.00000000047,false,NA,NA,NA,NA,NA
cBhrhL4k,NA,NA,cBhrhL4k,2020-0188,2021-11-15,18:32:22,19:34:34,NA,incomplete,false,true,NA,8,14,E33_Q3_ansR.png,right,NA,NA,NA,right,3115,true,NA,NA,NA,NA,NA
cBhrhL4k,NA,NA,cBhrhL4k,2020-0188,2021-11-15,18:32:22,19:34:34,NA,incomplete,false,true,NA,8,15,E33_Q2_ansL.png,left,NA,NA,NA,left,1968,true,NA,NA,NA,NA,NA
cBhrhL4k,NA,NA,cBhrhL4k,2020-0188,2021-11-15,18:32:22,19:34:34,NA,incomplete,false,true,NA,8,16,E33_Q9_ansR.png,right,NA,NA,NA,right,1328,true,NA,NA,NA,NA,NA
cBhrhL4k,NA,NA,cBhrhL4k,2020-0188,2021-11-15,18:32:22,19:34:34,NA,incomplete,false,true,NA,8,17,E33_Q6_ansR.png,right,NA,NA,NA,right,1617,true,NA,NA,NA,NA,NA
cBhrhL4k,NA,NA,cBhrhL4k,2020-0188,2021-11-15,18:32:22,19:34:34,NA,incomplete,false,true,NA,8,18,E33_Q4_ansR.png,right,NA,NA,NA,left,2451,false,NA,NA,NA,NA,NA
cBhrhL4k,NA,NA,cBhrhL4k,2020-0188,2021-11-15,18:32:22,19:34:34,NA,incomplete,false,true,NA,8,19,E33_Q8_ansL.png,left,NA,NA,NA,left,1720,true,NA,NA,NA,NA,NA
cBhrhL4k,NA,NA,cBhrhL4k,2020-0188,2021-11-15,18:32:22,19:34:34,NA,incomplete,false,true,NA,8,20,E1_Q4_ansL.png,left,NA,NA,NA,left,2425.00000000047,true,NA,NA,NA,NA,NA
cBhrhL4k,NA,NA,cBhrhL4k,2020-0188,2021-11-15,18:32:22,19:34:34,NA,incomplete,false,true,NA,8,21,E1_Q3_ansR.png,right,NA,NA,NA,right,2197,true,NA,NA,NA,NA,NA
cBhrhL4k,NA,NA,cBhrhL4k,2020-0188,2021-11-15,18:32:22,19:34:34,NA,incomplete,false,true,NA,8,22,E1_Q6_ansR.png,right,NA,NA,NA,right,1509,true,NA,NA,NA,NA,NA
cBhrhL4k,NA,NA,cBhrhL4k,2020-0188,2021-11-15,18:32:22,19:34:34,NA,incomplete,false,true,NA,8,23,E1_Q10_ansR.png,right,NA,NA,NA,right,1226,true,NA,NA,NA,NA,NA
cBhrhL4k,NA,NA,cBhrhL4k,2020-0188,2021-11-15,18:32:22,19:34:34,NA,incomplete,false,true,NA,8,24,E1_Q1_ansL.png,left,NA,NA,NA,left,1187.99999999953,true,NA,NA,NA,NA,NA
cBhrhL4k,NA,NA,cBhrhL4k,2020-0188,2021-11-15,18:32:22,19:34:34,NA,incomplete,false,true,NA,8,25,E1_Q2_ansL.png,left,NA,NA,NA,left,2242.00000000047,true,NA,NA,NA,NA,NA
cBhrhL4k,NA,NA,cBhrhL4k,2020-0188,2021-11-15,18:32:22,19:34:34,NA,incomplete,false,true,NA,8,26,E1_Q8_ansR.png,right,NA,NA,NA,right,2365,true,NA,NA,NA,NA,NA
cBhrhL4k,NA,NA,cBhrhL4k,2020-0188,2021-11-15,18:32:22,19:34:34,NA,incomplete,false,true,NA,8,27,E1_Q9_ansL.png,left,NA,NA,NA,left,995.000000000466,true,NA,NA,NA,NA,NA
cBhrhL4k,NA,NA,cBhrhL4k,2020-0188,2021-11-15,18:32:22,19:34:34,NA,incomplete,false,true,NA,8,28,E1_Q5_ansR.png,right,NA,NA,NA,right,1209,true,NA,NA,NA,NA,NA
cBhrhL4k,NA,NA,cBhrhL4k,2020-0188,2021-11-15,18:32:22,19:34:34,NA,incomplete,false,true,NA,8,29,E1_Q7_ansL.png,left,NA,NA,NA,left,1069.99999999953,true,NA,NA,NA,NA,NA
cBhrhL4k,NA,NA,cBhrhL4k,2020-0188,2021-11-15,18:32:22,19:34:34,NA,incomplete,false,NA,true,8,0,NA,right,E33_Q4_ansR.png,E33_Q2_ansL.png,within,NA,NaN,NA,left,1776.0000000004657,0,1,1517.9999999995343
cBhrhL4k,NA,NA,cBhrhL4k,2020-0188,2021-11-15,18:32:22,19:34:34,NA,incomplete,false,NA,true,8,1,NA,left,E26_Q10_ansL.png,E26_Q8_ansL.png,within,NA,NaN,NA,left,1796,1,2,1947
cBhrhL4k,NA,NA,cBhrhL4k,2020-0188,2021-11-15,18:32:22,19:34:34,NA,incomplete,false,NA,true,8,2,NA,left,E33_Q9_ansR.png,E33_Q8_ansL.png,within,NA,NaN,NA,left,1737,1,1,1252
cBhrhL4k,NA,NA,cBhrhL4k,2020-0188,2021-11-15,18:32:22,19:34:34,NA,incomplete,false,NA,true,8,3,NA,right,E33_Q2_ansL.png,E33_Q7_ansL.png,within,NA,NaN,NA,right,2604.9999999995343,1,1,1059
cBhrhL4k,NA,NA,cBhrhL4k,2020-0188,2021-11-15,18:32:22,19:34:34,NA,incomplete,false,NA,true,8,4,NA,right,E33_Q5_ansR.png,E26_Q6_ansR.png,between,NA,NaN,NA,right,2025,1,2,2351
cBhrhL4k,NA,NA,cBhrhL4k,2020-0188,2021-11-15,18:32:22,19:34:34,NA,incomplete,false,NA,true,8,5,NA,right,E33_Q1_ansL.png,E26_Q3_ansR.png,between,NA,NaN,NA,right,2179.9999999995343,1,2,1368.0000000004657
cBhrhL4k,NA,NA,cBhrhL4k,2020-0188,2021-11-15,18:32:22,19:34:34,NA,incomplete,false,NA,true,8,6,NA,right,E1_Q9_ansL.png,E1_Q1_ansL.png,within,NA,NaN,NA,left,3899,0,1,1034
cBhrhL4k,NA,NA,cBhrhL4k,2020-0188,2021-11-15,18:32:22,19:34:34,NA,incomplete,false,NA,true,8,7,NA,left,E1_Q8_ansR.png,E1_Q7_ansL.png,within,NA,NaN,NA,left,2800,1,1,896.0000000004657
cBhrhL4k,NA,NA,cBhrhL4k,2020-0188,2021-11-15,18:32:22,19:34:34,NA,incomplete,false,NA,true,8,8,NA,left,E26_Q4_ansR.png,E26_Q9_ansR.png,within,NA,NaN,NA,left,1684,1,1,1002
cBhrhL4k,NA,NA,cBhrhL4k,2020-0188,2021-11-15,18:32:22,19:34:34,NA,incomplete,false,NA,true,8,9,NA,right,E1_Q3_ansR.png,E33_Q4_ansR.png,between,NA,NaN,NA,right,1234,1,2,927
cBhrhL4k,NA,NA,cBhrhL4k,2020-0188,2021-11-15,18:32:22,19:34:34,NA,incomplete,false,NA,true,8,10,NA,left,E33_Q8_ansL.png,E1_Q6_ansR.png,between,NA,NaN,NA,left,2571,1,2,927
cBhrhL4k,NA,NA,cBhrhL4k,2020-0188,2021-11-15,18:32:22,19:34:34,NA,incomplete,false,NA,true,8,11,NA,left,E26_Q2_ansL.png,E26_Q3_ansR.png,within,NA,NaN,NA,left,1739.9999999995343,1,1,846.9999999995343
cBhrhL4k,NA,NA,cBhrhL4k,2020-0188,2021-11-15,18:32:22,19:34:34,NA,incomplete,false,NA,true,8,12,NA,left,E33_Q3_ansR.png,E33_Q6_ansR.png,within,NA,NaN,NA,left,1641,1,1,1105
cBhrhL4k,NA,NA,cBhrhL4k,2020-0188,2021-11-15,18:32:22,19:34:34,NA,incomplete,false,NA,true,8,13,NA,right,E33_Q9_ansR.png,E33_Q10_ansL.png,within,NA,NaN,NA,right,3190,1,1,1538.9999999995343
cBhrhL4k,NA,NA,cBhrhL4k,2020-0188,2021-11-15,18:32:22,19:34:34,NA,incomplete,false,NA,true,8,14,NA,right,E1_Q5_ansR.png,E1_Q2_ansL.png,within,NA,NaN,NA,left,5217,0,1,1613
cBhrhL4k,NA,NA,cBhrhL4k,2020-0188,2021-11-15,18:32:22,19:34:34,NA,incomplete,false,NA,true,8,15,NA,right,E33_Q10_ansL.png,E33_Q5_ansR.png,within,NA,NaN,NA,right,3457,1,1,943
cBhrhL4k,NA,NA,cBhrhL4k,2020-0188,2021-11-15,18:32:22,19:34:34,NA,incomplete,false,NA,true,8,16,NA,left,E1_Q10_ansR.png,E1_Q8_ansR.png,within,NA,NaN,NA,right,5429,0,1,2197
cBhrhL4k,NA,NA,cBhrhL4k,2020-0188,2021-11-15,18:32:22,19:34:34,NA,incomplete,false,NA,true,8,17,NA,left,E33_Q6_ansR.png,E1_Q4_ansL.png,between,NA,NaN,NA,left,1496.9999999995343,1,1,912
cBhrhL4k,NA,NA,cBhrhL4k,2020-0188,2021-11-15,18:32:22,19:34:34,NA,incomplete,false,NA,true,8,18,NA,right,E33_Q3_ansR.png,E33_Q1_ansL.png,within,NA,NaN,NA,right,3346.0000000004657,1,1,796
cBhrhL4k,NA,NA,cBhrhL4k,2020-0188,2021-11-15,18:32:22,19:34:34,NA,incomplete,false,NA,true,8,19,NA,left,E1_Q3_ansR.png,E1_Q1_ansL.png,within,NA,NaN,NA,left,3279,1,1,1001.0000000004657
cBhrhL4k,NA,NA,cBhrhL4k,2020-0188,2021-11-15,18:32:22,19:34:34,NA,incomplete,false,NA,true,8,20,NA,right,E26_Q1_ansL.png,E26_Q5_ansR.png,within,NA,NaN,NA,right,4638,1,0,959
cBhrhL4k,NA,NA,cBhrhL4k,2020-0188,2021-11-15,18:32:22,19:34:34,NA,incomplete,false,NA,true,8,21,NA,right,E26_Q2_ansL.png,E26_Q7_ansL.png,within,NA,NaN,NA,left,1954,0,0,935
cBhrhL4k,NA,NA,cBhrhL4k,2020-0188,2021-11-15,18:32:22,19:34:34,NA,incomplete,false,NA,true,8,22,NA,right,E33_Q7_ansL.png,E26_Q1_ansL.png,between,NA,NaN,NA,right,1625,1,2,908.9999999995343
cBhrhL4k,NA,NA,cBhrhL4k,2020-0188,2021-11-15,18:32:22,19:34:34,NA,incomplete,false,NA,true,8,23,NA,right,E1_Q10_ansR.png,E1_Q4_ansL.png,within,NA,NaN,NA,right,2831,1,1,1579
cBhrhL4k,NA,NA,cBhrhL4k,2020-0188,2021-11-15,18:32:22,19:34:34,NA,incomplete,false,NA,true,8,24,NA,right,E1_Q2_ansL.png,E1_Q6_ansR.png,within,NA,NaN,NA,right,1486,1,1,1161
cBhrhL4k,NA,NA,cBhrhL4k,2020-0188,2021-11-15,18:32:22,19:34:34,NA,incomplete,false,NA,true,8,25,NA,left,E26_Q9_ansR.png,E26_Q6_ansR.png,within,NA,NaN,NA,left,1489,1,1,2873.0000000004657
cBhrhL4k,NA,NA,cBhrhL4k,2020-0188,2021-11-15,18:32:22,19:34:34,NA,incomplete,false,NA,true,8,26,NA,left,E26_Q8_ansL.png,E26_Q5_ansR.png,within,NA,NaN,NA,left,2399,1,1,1669
cBhrhL4k,NA,NA,cBhrhL4k,2020-0188,2021-11-15,18:32:22,19:34:34,NA,incomplete,false,true,NA,9,0,E25_Q9_ansL.png,left,NA,NA,NA,right,3333,false,NA,NA,NA,NA,NA
cBhrhL4k,NA,NA,cBhrhL4k,2020-0188,2021-11-15,18:32:22,19:34:34,NA,incomplete,false,true,NA,9,1,E25_Q7_ansR.png,right,NA,NA,NA,right,2317,true,NA,NA,NA,NA,NA
cBhrhL4k,NA,NA,cBhrhL4k,2020-0188,2021-11-15,18:32:22,19:34:34,NA,incomplete,false,true,NA,9,2,E25_Q5_ansL.png,left,NA,NA,NA,left,3401,true,NA,NA,NA,NA,NA
cBhrhL4k,NA,NA,cBhrhL4k,2020-0188,2021-11-15,18:32:22,19:34:34,NA,incomplete,false,true,NA,9,3,E25_Q4_ansL.png,left,NA,NA,NA,left,2143.00000000047,true,NA,NA,NA,NA,NA
cBhrhL4k,NA,NA,cBhrhL4k,2020-0188,2021-11-15,18:32:22,19:34:34,NA,incomplete,false,true,NA,9,4,E25_Q6_ansL.png,left,NA,NA,NA,left,1823,true,NA,NA,NA,NA,NA
cBhrhL4k,NA,NA,cBhrhL4k,2020-0188,2021-11-15,18:32:22,19:34:34,NA,incomplete,false,true,NA,9,5,E25_Q2_ansR.png,right,NA,NA,NA,right,1177,true,NA,NA,NA,NA,NA
cBhrhL4k,NA,NA,cBhrhL4k,2020-0188,2021-11-15,18:32:22,19:34:34,NA,incomplete,false,true,NA,9,6,E25_Q1_ansR.png,right,NA,NA,NA,right,1608.00000000047,true,NA,NA,NA,NA,NA
cBhrhL4k,NA,NA,cBhrhL4k,2020-0188,2021-11-15,18:32:22,19:34:34,NA,incomplete,false,true,NA,9,7,E25_Q10_ansR.png,right,NA,NA,NA,right,2406,true,NA,NA,NA,NA,NA
cBhrhL4k,NA,NA,cBhrhL4k,2020-0188,2021-11-15,18:32:22,19:34:34,NA,incomplete,false,true,NA,9,8,E25_Q8_ansR.png,right,NA,NA,NA,right,2018,true,NA,NA,NA,NA,NA
cBhrhL4k,NA,NA,cBhrhL4k,2020-0188,2021-11-15,18:32:22,19:34:34,NA,incomplete,false,true,NA,9,9,E25_Q3_ansL.png,left,NA,NA,NA,left,1344,true,NA,NA,NA,NA,NA
cBhrhL4k,NA,NA,cBhrhL4k,2020-0188,2021-11-15,18:32:22,19:34:34,NA,incomplete,false,true,NA,9,10,E3_Q6_ansR.png,right,NA,NA,NA,right,1986,true,NA,NA,NA,NA,NA
cBhrhL4k,NA,NA,cBhrhL4k,2020-0188,2021-11-15,18:32:22,19:34:34,NA,incomplete,false,true,NA,9,11,E3_Q7_ansL.png,left,NA,NA,NA,left,1285,true,NA,NA,NA,NA,NA
cBhrhL4k,NA,NA,cBhrhL4k,2020-0188,2021-11-15,18:32:22,19:34:34,NA,incomplete,false,true,NA,9,12,E3_Q10_ansR.png,right,NA,NA,NA,right,1455,true,NA,NA,NA,NA,NA
cBhrhL4k,NA,NA,cBhrhL4k,2020-0188,2021-11-15,18:32:22,19:34:34,NA,incomplete,false,true,NA,9,13,E3_Q8_ansL.png,left,NA,NA,NA,left,1500,true,NA,NA,NA,NA,NA
cBhrhL4k,NA,NA,cBhrhL4k,2020-0188,2021-11-15,18:32:22,19:34:34,NA,incomplete,false,true,NA,9,14,E3_Q2_ansL.png,left,NA,NA,NA,left,1812,true,NA,NA,NA,NA,NA
cBhrhL4k,NA,NA,cBhrhL4k,2020-0188,2021-11-15,18:32:22,19:34:34,NA,incomplete,false,true,NA,9,15,E3_Q3_ansR.png,right,NA,NA,NA,right,1300,true,NA,NA,NA,NA,NA
cBhrhL4k,NA,NA,cBhrhL4k,2020-0188,2021-11-15,18:32:22,19:34:34,NA,incomplete,false,true,NA,9,16,E3_Q4_ansL.png,left,NA,NA,NA,left,1494.00000000047,true,NA,NA,NA,NA,NA
cBhrhL4k,NA,NA,cBhrhL4k,2020-0188,2021-11-15,18:32:22,19:34:34,NA,incomplete,false,true,NA,9,17,E3_Q5_ansR.png,right,NA,NA,NA,right,1215.99999999953,true,NA,NA,NA,NA,NA
cBhrhL4k,NA,NA,cBhrhL4k,2020-0188,2021-11-15,18:32:22,19:34:34,NA,incomplete,false,true,NA,9,18,E3_Q9_ansL.png,left,NA,NA,NA,left,1229.00000000047,true,NA,NA,NA,NA,NA
cBhrhL4k,NA,NA,cBhrhL4k,2020-0188,2021-11-15,18:32:22,19:34:34,NA,incomplete,false,true,NA,9,19,E3_Q1_ansR.png,right,NA,NA,NA,right,1596,true,NA,NA,NA,NA,NA
cBhrhL4k,NA,NA,cBhrhL4k,2020-0188,2021-11-15,18:32:22,19:34:34,NA,incomplete,false,true,NA,9,20,E20_Q4_ansR.png,right,NA,NA,NA,right,2066,true,NA,NA,NA,NA,NA
cBhrhL4k,NA,NA,cBhrhL4k,2020-0188,2021-11-15,18:32:22,19:34:34,NA,incomplete,false,true,NA,9,21,E20_Q8_ansL.png,left,NA,NA,NA,right,3112,false,NA,NA,NA,NA,NA
cBhrhL4k,NA,NA,cBhrhL4k,2020-0188,2021-11-15,18:32:22,19:34:34,NA,incomplete,false,true,NA,9,22,E20_Q3_ansR.png,right,NA,NA,NA,right,1157,true,NA,NA,NA,NA,NA
cBhrhL4k,NA,NA,cBhrhL4k,2020-0188,2021-11-15,18:32:22,19:34:34,NA,incomplete,false,true,NA,9,23,E20_Q1_ansL.png,left,NA,NA,NA,left,1889,true,NA,NA,NA,NA,NA
cBhrhL4k,NA,NA,cBhrhL4k,2020-0188,2021-11-15,18:32:22,19:34:34,NA,incomplete,false,true,NA,9,24,E20_Q7_ansL.png,left,NA,NA,NA,left,74,true,NA,NA,NA,NA,NA
cBhrhL4k,NA,NA,cBhrhL4k,2020-0188,2021-11-15,18:32:22,19:34:34,NA,incomplete,false,true,NA,9,25,E20_Q2_ansL.png,left,NA,NA,NA,left,47,true,NA,NA,NA,NA,NA
cBhrhL4k,NA,NA,cBhrhL4k,2020-0188,2021-11-15,18:32:22,19:34:34,NA,incomplete,false,true,NA,9,26,E20_Q5_ansR.png,right,NA,NA,NA,left,35.0000000004657,false,NA,NA,NA,NA,NA
cBhrhL4k,NA,NA,cBhrhL4k,2020-0188,2021-11-15,18:32:22,19:34:34,NA,incomplete,false,true,NA,9,27,E20_Q6_ansR.png,right,NA,NA,NA,right,1808,true,NA,NA,NA,NA,NA
cBhrhL4k,NA,NA,cBhrhL4k,2020-0188,2021-11-15,18:32:22,19:34:34,NA,incomplete,false,true,NA,9,28,E20_Q10_ansL.png,left,NA,NA,NA,right,75,false,NA,NA,NA,NA,NA
cBhrhL4k,NA,NA,cBhrhL4k,2020-0188,2021-11-15,18:32:22,19:34:34,NA,incomplete,false,true,NA,9,29,E20_Q9_ansR.png,right,NA,NA,NA,right,2409,true,NA,NA,NA,NA,NA
cBhrhL4k,NA,NA,cBhrhL4k,2020-0188,2021-11-15,18:32:22,19:34:34,NA,incomplete,false,NA,true,9,0,NA,right,E3_Q5_ansR.png,E3_Q2_ansL.png,within,NA,NaN,NA,right,3376,1,1,1287
cBhrhL4k,NA,NA,cBhrhL4k,2020-0188,2021-11-15,18:32:22,19:34:34,NA,incomplete,false,NA,true,9,1,NA,left,E3_Q9_ansL.png,E20_Q8_ansL.png,between,NA,NaN,NA,left,1514,1,2,1326
cBhrhL4k,NA,NA,cBhrhL4k,2020-0188,2021-11-15,18:32:22,19:34:34,NA,incomplete,false,NA,true,9,2,NA,left,E25_Q10_ansR.png,E3_Q6_ansR.png,between,NA,NaN,NA,left,2368,1,2,2074.0000000004657
cBhrhL4k,NA,NA,cBhrhL4k,2020-0188,2021-11-15,18:32:22,19:34:34,NA,incomplete,false,NA,true,9,3,NA,right,E25_Q1_ansR.png,E25_Q4_ansL.png,within,NA,NaN,NA,right,2344,1,1,3286
cBhrhL4k,NA,NA,cBhrhL4k,2020-0188,2021-11-15,18:32:22,19:34:34,NA,incomplete,false,NA,true,9,4,NA,right,E25_Q4_ansL.png,E25_Q9_ansL.png,within,NA,NaN,NA,right,1960,1,1,993
cBhrhL4k,NA,NA,cBhrhL4k,2020-0188,2021-11-15,18:32:22,19:34:34,NA,incomplete,false,NA,true,9,5,NA,right,E3_Q3_ansR.png,E3_Q10_ansR.png,within,NA,NaN,NA,left,3841,0,1,1392
cBhrhL4k,NA,NA,cBhrhL4k,2020-0188,2021-11-15,18:32:22,19:34:34,NA,incomplete,false,NA,true,9,6,NA,left,E25_Q2_ansR.png,E25_Q8_ansR.png,within,NA,NaN,NA,left,1495.9999999995343,1,1,1272
cBhrhL4k,NA,NA,cBhrhL4k,2020-0188,2021-11-15,18:32:22,19:34:34,NA,incomplete,false,NA,true,9,7,NA,left,E20_Q5_ansR.png,E20_Q9_ansR.png,within,NA,NaN,NA,left,2458.0000000004657,1,1,1449.0000000004657
cBhrhL4k,NA,NA,cBhrhL4k,2020-0188,2021-11-15,18:32:22,19:34:34,NA,incomplete,false,NA,true,9,8,NA,left,E25_Q5_ansL.png,E25_Q2_ansR.png,within,NA,NaN,NA,left,2466.9999999995343,1,1,1532
cBhrhL4k,NA,NA,cBhrhL4k,2020-0188,2021-11-15,18:32:22,19:34:34,NA,incomplete,false,NA,true,9,9,NA,right,E25_Q10_ansR.png,E25_Q6_ansL.png,within,NA,NaN,NA,right,2040,1,1,1181
cBhrhL4k,NA,NA,cBhrhL4k,2020-0188,2021-11-15,18:32:22,19:34:34,NA,incomplete,false,NA,true,9,10,NA,left,E25_Q1_ansR.png,E25_Q3_ansL.png,within,NA,NaN,NA,left,2605,1,0,3769
cBhrhL4k,NA,NA,cBhrhL4k,2020-0188,2021-11-15,18:32:22,19:34:34,NA,incomplete,false,NA,true,9,11,NA,right,E20_Q4_ansR.png,E3_Q5_ansR.png,between,NA,NaN,NA,right,2849,1,2,1609.9999999995343
cBhrhL4k,NA,NA,cBhrhL4k,2020-0188,2021-11-15,18:32:22,19:34:34,NA,incomplete,false,NA,true,9,12,NA,right,E20_Q10_ansL.png,E20_Q2_ansL.png,within,NA,NaN,NA,right,3574.0000000004657,1,1,855
cBhrhL4k,NA,NA,cBhrhL4k,2020-0188,2021-11-15,18:32:22,19:34:34,NA,incomplete,false,NA,true,9,13,NA,right,E3_Q1_ansR.png,E3_Q4_ansL.png,within,NA,NaN,NA,left,3377,0,1,880
cBhrhL4k,NA,NA,cBhrhL4k,2020-0188,2021-11-15,18:32:22,19:34:34,NA,incomplete,false,NA,true,9,14,NA,left,E20_Q8_ansL.png,E20_Q7_ansL.png,within,NA,NaN,NA,left,3866,1,1,790
cBhrhL4k,NA,NA,cBhrhL4k,2020-0188,2021-11-15,18:32:22,19:34:34,NA,incomplete,false,NA,true,9,15,NA,left,E20_Q3_ansR.png,E20_Q2_ansL.png,within,NA,NaN,NA,left,5920,1,1,902
cBhrhL4k,NA,NA,cBhrhL4k,2020-0188,2021-11-15,18:32:22,19:34:34,NA,incomplete,false,NA,true,9,16,NA,right,E3_Q4_ansL.png,E3_Q8_ansL.png,within,NA,NaN,NA,left,4222,0,1,2377.0000000004657
cBhrhL4k,NA,NA,cBhrhL4k,2020-0188,2021-11-15,18:32:22,19:34:34,NA,incomplete,false,NA,true,9,17,NA,right,E3_Q10_ansR.png,E25_Q3_ansL.png,between,NA,NaN,NA,right,1439,1,2,1302
cBhrhL4k,NA,NA,cBhrhL4k,2020-0188,2021-11-15,18:32:22,19:34:34,NA,incomplete,false,NA,true,9,18,NA,right,E20_Q3_ansR.png,E3_Q1_ansR.png,between,NA,NaN,NA,right,1773,1,3,944.0000000004657
cBhrhL4k,NA,NA,cBhrhL4k,2020-0188,2021-11-15,18:32:22,19:34:34,NA,incomplete,false,NA,true,9,19,NA,right,E3_Q2_ansL.png,E3_Q7_ansL.png,within,NA,NaN,NA,left,1390.0000000004657,0,1,2612
cBhrhL4k,NA,NA,cBhrhL4k,2020-0188,2021-11-15,18:32:22,19:34:34,NA,incomplete,false,NA,true,9,20,NA,left,E20_Q4_ansR.png,E20_Q1_ansL.png,within,NA,NaN,NA,left,1707.0000000004657,1,1,878.0000000004657
cBhrhL4k,NA,NA,cBhrhL4k,2020-0188,2021-11-15,18:32:22,19:34:34,NA,incomplete,false,NA,true,9,21,NA,left,E20_Q1_ansL.png,E20_Q5_ansR.png,within,NA,NaN,NA,left,1886.9999999995343,1,1,749
cBhrhL4k,NA,NA,cBhrhL4k,2020-0188,2021-11-15,18:32:22,19:34:34,NA,incomplete,false,NA,true,9,22,NA,right,E3_Q7_ansL.png,E25_Q8_ansR.png,between,NA,NaN,NA,right,3368,1,3,1324.9999999995343
cBhrhL4k,NA,NA,cBhrhL4k,2020-0188,2021-11-15,18:32:22,19:34:34,NA,incomplete,false,NA,true,9,23,NA,right,E25_Q6_ansL.png,E25_Q7_ansR.png,within,NA,NaN,NA,right,2792,1,1,1132
cBhrhL4k,NA,NA,cBhrhL4k,2020-0188,2021-11-15,18:32:22,19:34:34,NA,incomplete,false,NA,true,9,24,NA,left,E3_Q6_ansR.png,E3_Q8_ansL.png,within,NA,NaN,NA,left,1740.0000000004657,1,1,1921
cBhrhL4k,NA,NA,cBhrhL4k,2020-0188,2021-11-15,18:32:22,19:34:34,NA,incomplete,false,NA,true,9,25,NA,left,E20_Q7_ansL.png,E20_Q6_ansR.png,within,NA,NaN,NA,left,5121,1,1,1221
cBhrhL4k,NA,NA,cBhrhL4k,2020-0188,2021-11-15,18:32:22,19:34:34,NA,incomplete,false,NA,true,9,26,NA,right,E3_Q9_ansL.png,E3_Q3_ansR.png,within,NA,NaN,NA,right,1416,1,1,1130.0000000004657
cBhrhL4k,NA,NA,cBhrhL4k,2020-0188,2021-11-15,18:32:22,19:34:34,NA,incomplete,false,true,NA,10,0,E11_Q7_ansR.png,right,NA,NA,NA,right,1720,true,NA,NA,NA,NA,NA
cBhrhL4k,NA,NA,cBhrhL4k,2020-0188,2021-11-15,18:32:22,19:34:34,NA,incomplete,false,true,NA,10,1,E11_Q2_ansR.png,right,NA,NA,NA,right,1717,true,NA,NA,NA,NA,NA
cBhrhL4k,NA,NA,cBhrhL4k,2020-0188,2021-11-15,18:32:22,19:34:34,NA,incomplete,false,true,NA,10,2,E11_Q4_ansL.png,left,NA,NA,NA,left,1211.00000000047,true,NA,NA,NA,NA,NA
cBhrhL4k,NA,NA,cBhrhL4k,2020-0188,2021-11-15,18:32:22,19:34:34,NA,incomplete,false,true,NA,10,3,E11_Q10_ansR.png,right,NA,NA,NA,right,1197,true,NA,NA,NA,NA,NA
cBhrhL4k,NA,NA,cBhrhL4k,2020-0188,2021-11-15,18:32:22,19:34:34,NA,incomplete,false,true,NA,10,4,E11_Q3_ansL.png,left,NA,NA,NA,left,892,true,NA,NA,NA,NA,NA
cBhrhL4k,NA,NA,cBhrhL4k,2020-0188,2021-11-15,18:32:22,19:34:34,NA,incomplete,false,true,NA,10,5,E11_Q5_ansL.png,left,NA,NA,NA,left,1133.99999999953,true,NA,NA,NA,NA,NA
cBhrhL4k,NA,NA,cBhrhL4k,2020-0188,2021-11-15,18:32:22,19:34:34,NA,incomplete,false,true,NA,10,6,E11_Q8_ansR.png,right,NA,NA,NA,right,1574.99999999953,true,NA,NA,NA,NA,NA
cBhrhL4k,NA,NA,cBhrhL4k,2020-0188,2021-11-15,18:32:22,19:34:34,NA,incomplete,false,true,NA,10,7,E11_Q9_ansL.png,left,NA,NA,NA,left,756,true,NA,NA,NA,NA,NA
cBhrhL4k,NA,NA,cBhrhL4k,2020-0188,2021-11-15,18:32:22,19:34:34,NA,incomplete,false,true,NA,10,8,E11_Q1_ansR.png,right,NA,NA,NA,right,1278,true,NA,NA,NA,NA,NA
cBhrhL4k,NA,NA,cBhrhL4k,2020-0188,2021-11-15,18:32:22,19:34:34,NA,incomplete,false,true,NA,10,9,E11_Q6_ansL.png,left,NA,NA,NA,left,843.000000000466,true,NA,NA,NA,NA,NA
cBhrhL4k,NA,NA,cBhrhL4k,2020-0188,2021-11-15,18:32:22,19:34:34,NA,incomplete,false,true,NA,10,10,E4_Q6_ansR.png,right,NA,NA,NA,right,2653,true,NA,NA,NA,NA,NA
cBhrhL4k,NA,NA,cBhrhL4k,2020-0188,2021-11-15,18:32:22,19:34:34,NA,incomplete,false,true,NA,10,11,E4_Q9_ansL.png,left,NA,NA,NA,left,1031,true,NA,NA,NA,NA,NA
cBhrhL4k,NA,NA,cBhrhL4k,2020-0188,2021-11-15,18:32:22,19:34:34,NA,incomplete,false,true,NA,10,12,E4_Q7_ansR.png,right,NA,NA,NA,right,1141,true,NA,NA,NA,NA,NA
cBhrhL4k,NA,NA,cBhrhL4k,2020-0188,2021-11-15,18:32:22,19:34:34,NA,incomplete,false,true,NA,10,13,E4_Q3_ansL.png,left,NA,NA,NA,left,966,true,NA,NA,NA,NA,NA
cBhrhL4k,NA,NA,cBhrhL4k,2020-0188,2021-11-15,18:32:22,19:34:34,NA,incomplete,false,true,NA,10,14,E4_Q2_ansL.png,left,NA,NA,NA,left,1076,true,NA,NA,NA,NA,NA
cBhrhL4k,NA,NA,cBhrhL4k,2020-0188,2021-11-15,18:32:22,19:34:34,NA,incomplete,false,true,NA,10,15,E4_Q1_ansL.png,left,NA,NA,NA,left,1068,true,NA,NA,NA,NA,NA
cBhrhL4k,NA,NA,cBhrhL4k,2020-0188,2021-11-15,18:32:22,19:34:34,NA,incomplete,false,true,NA,10,16,E4_Q10_ansR.png,right,NA,NA,NA,right,1084,true,NA,NA,NA,NA,NA
cBhrhL4k,NA,NA,cBhrhL4k,2020-0188,2021-11-15,18:32:22,19:34:34,NA,incomplete,false,true,NA,10,17,E4_Q5_ansR.png,right,NA,NA,NA,right,1064,true,NA,NA,NA,NA,NA
cBhrhL4k,NA,NA,cBhrhL4k,2020-0188,2021-11-15,18:32:22,19:34:34,NA,incomplete,false,true,NA,10,18,E4_Q4_ansL.png,left,NA,NA,NA,left,1036,true,NA,NA,NA,NA,NA
cBhrhL4k,NA,NA,cBhrhL4k,2020-0188,2021-11-15,18:32:22,19:34:34,NA,incomplete,false,true,NA,10,19,E4_Q8_ansR.png,right,NA,NA,NA,right,2409,true,NA,NA,NA,NA,NA
cBhrhL4k,NA,NA,cBhrhL4k,2020-0188,2021-11-15,18:32:22,19:34:34,NA,incomplete,false,true,NA,10,20,E23_Q2_ansL.png,left,NA,NA,NA,left,1386,true,NA,NA,NA,NA,NA
cBhrhL4k,NA,NA,cBhrhL4k,2020-0188,2021-11-15,18:32:22,19:34:34,NA,incomplete,false,true,NA,10,21,E23_Q7_ansL.png,left,NA,NA,NA,left,1357,true,NA,NA,NA,NA,NA
cBhrhL4k,NA,NA,cBhrhL4k,2020-0188,2021-11-15,18:32:22,19:34:34,NA,incomplete,false,true,NA,10,22,E23_Q9_ansR.png,right,NA,NA,NA,right,1139,true,NA,NA,NA,NA,NA
cBhrhL4k,NA,NA,cBhrhL4k,2020-0188,2021-11-15,18:32:22,19:34:34,NA,incomplete,false,true,NA,10,23,E23_Q10_ansL.png,left,NA,NA,NA,left,782,true,NA,NA,NA,NA,NA
