workerId,hitId,assignmentId,subject,studyid,exp_date,exp_start,exp_end,time_start,time_end,practice,encoding,memory,block,trial,stim,answer,left_image,right_image,condition,response,response_time,response_acc,order_response,order_response_time,order_acc,distance_response,distance_response_time
dGjA5Pfo,NA,NA,dGjA5Pfo,2020-0188,2021-09-22,10:35:38,11:49:10,NA,incomplete,true,true,NA,0,0,E22_Q4_ansL.png,left,NA,NA,NA,left,1568.39999997616,true,NA,NA,NA,NA,NA
dGjA5Pfo,NA,NA,dGjA5Pfo,2020-0188,2021-09-22,10:35:38,11:49:10,NA,incomplete,true,true,NA,0,1,E22_Q6_ansL.png,left,NA,NA,NA,left,1371.5,true,NA,NA,NA,NA,NA
dGjA5Pfo,NA,NA,dGjA5Pfo,2020-0188,2021-09-22,10:35:38,11:49:10,NA,incomplete,true,true,NA,0,2,E22_Q3_ansL.png,left,NA,NA,NA,left,1324,true,NA,NA,NA,NA,NA
dGjA5Pfo,NA,NA,dGjA5Pfo,2020-0188,2021-09-22,10:35:38,11:49:10,NA,incomplete,true,true,NA,0,3,E22_Q5_ansL.png,left,NA,NA,NA,left,1463.79999995232,true,NA,NA,NA,NA,NA
dGjA5Pfo,NA,NA,dGjA5Pfo,2020-0188,2021-09-22,10:35:38,11:49:10,NA,incomplete,true,true,NA,0,4,E22_Q8_ansR.png,right,NA,NA,NA,right,1401.10000002384,true,NA,NA,NA,NA,NA
dGjA5Pfo,NA,NA,dGjA5Pfo,2020-0188,2021-09-22,10:35:38,11:49:10,NA,incomplete,true,true,NA,0,5,E22_Q9_ansL.png,left,NA,NA,NA,left,1575.20000004768,true,NA,NA,NA,NA,NA
dGjA5Pfo,NA,NA,dGjA5Pfo,2020-0188,2021-09-22,10:35:38,11:49:10,NA,incomplete,true,true,NA,0,6,E22_Q2_ansR.png,right,NA,NA,NA,right,2012.60000002384,true,NA,NA,NA,NA,NA
dGjA5Pfo,NA,NA,dGjA5Pfo,2020-0188,2021-09-22,10:35:38,11:49:10,NA,incomplete,true,true,NA,0,7,E22_Q1_ansR.png,right,NA,NA,NA,right,1000.70000004768,true,NA,NA,NA,NA,NA
dGjA5Pfo,NA,NA,dGjA5Pfo,2020-0188,2021-09-22,10:35:38,11:49:10,NA,incomplete,true,true,NA,0,8,E22_Q10_ansR.png,right,NA,NA,NA,right,1457.20000004768,true,NA,NA,NA,NA,NA
dGjA5Pfo,NA,NA,dGjA5Pfo,2020-0188,2021-09-22,10:35:38,11:49:10,NA,incomplete,true,true,NA,0,9,E22_Q7_ansR.png,right,NA,NA,NA,right,1728.79999995232,true,NA,NA,NA,NA,NA
dGjA5Pfo,NA,NA,dGjA5Pfo,2020-0188,2021-09-22,10:35:38,11:49:10,NA,incomplete,true,true,NA,0,10,E2_Q10_ansL.png,left,NA,NA,NA,left,2041.10000002384,true,NA,NA,NA,NA,NA
dGjA5Pfo,NA,NA,dGjA5Pfo,2020-0188,2021-09-22,10:35:38,11:49:10,NA,incomplete,true,true,NA,0,11,E2_Q6_ansL.png,left,NA,NA,NA,left,1044.60000002384,true,NA,NA,NA,NA,NA
dGjA5Pfo,NA,NA,dGjA5Pfo,2020-0188,2021-09-22,10:35:38,11:49:10,NA,incomplete,true,true,NA,0,12,E2_Q8_ansR.png,right,NA,NA,NA,right,1398.60000002384,true,NA,NA,NA,NA,NA
dGjA5Pfo,NA,NA,dGjA5Pfo,2020-0188,2021-09-22,10:35:38,11:49:10,NA,incomplete,true,true,NA,0,13,E2_Q1_ansL.png,left,NA,NA,NA,left,1933.59999990463,true,NA,NA,NA,NA,NA
dGjA5Pfo,NA,NA,dGjA5Pfo,2020-0188,2021-09-22,10:35:38,11:49:10,NA,incomplete,true,true,NA,0,14,E2_Q5_ansL.png,left,NA,NA,NA,left,1517.79999995232,true,NA,NA,NA,NA,NA
dGjA5Pfo,NA,NA,dGjA5Pfo,2020-0188,2021-09-22,10:35:38,11:49:10,NA,incomplete,true,true,NA,0,15,E2_Q4_ansL.png,left,NA,NA,NA,left,1362.10000002384,true,NA,NA,NA,NA,NA
dGjA5Pfo,NA,NA,dGjA5Pfo,2020-0188,2021-09-22,10:35:38,11:49:10,NA,incomplete,true,true,NA,0,16,E2_Q2_ansR.png,right,NA,NA,NA,right,1841,true,NA,NA,NA,NA,NA
dGjA5Pfo,NA,NA,dGjA5Pfo,2020-0188,2021-09-22,10:35:38,11:49:10,NA,incomplete,true,true,NA,0,17,E2_Q9_ansL.png,left,NA,NA,NA,none,0,false,NA,NA,NA,NA,NA
dGjA5Pfo,NA,NA,dGjA5Pfo,2020-0188,2021-09-22,10:35:38,11:49:10,NA,incomplete,true,true,NA,0,18,E2_Q7_ansR.png,right,NA,NA,NA,right,1170.20000004768,true,NA,NA,NA,NA,NA
dGjA5Pfo,NA,NA,dGjA5Pfo,2020-0188,2021-09-22,10:35:38,11:49:10,NA,incomplete,true,true,NA,0,19,E2_Q3_ansR.png,right,NA,NA,NA,right,1227,true,NA,NA,NA,NA,NA
dGjA5Pfo,NA,NA,dGjA5Pfo,2020-0188,2021-09-22,10:35:38,11:49:10,NA,incomplete,true,true,NA,0,20,E5_Q3_ansR.png,right,NA,NA,NA,right,1629.30000007153,true,NA,NA,NA,NA,NA
dGjA5Pfo,NA,NA,dGjA5Pfo,2020-0188,2021-09-22,10:35:38,11:49:10,NA,incomplete,true,true,NA,0,21,E5_Q1_ansL.png,left,NA,NA,NA,left,1929.10000002384,true,NA,NA,NA,NA,NA
dGjA5Pfo,NA,NA,dGjA5Pfo,2020-0188,2021-09-22,10:35:38,11:49:10,NA,incomplete,true,true,NA,0,22,E5_Q7_ansL.png,left,NA,NA,NA,left,1599.10000002384,true,NA,NA,NA,NA,NA
dGjA5Pfo,NA,NA,dGjA5Pfo,2020-0188,2021-09-22,10:35:38,11:49:10,NA,incomplete,true,true,NA,0,23,E5_Q4_ansR.png,right,NA,NA,NA,right,1907.19999992847,true,NA,NA,NA,NA,NA
dGjA5Pfo,NA,NA,dGjA5Pfo,2020-0188,2021-09-22,10:35:38,11:49:10,NA,incomplete,true,true,NA,0,24,E5_Q5_ansR.png,right,NA,NA,NA,right,2178.89999997616,true,NA,NA,NA,NA,NA
dGjA5Pfo,NA,NA,dGjA5Pfo,2020-0188,2021-09-22,10:35:38,11:49:10,NA,incomplete,true,true,NA,0,25,E5_Q10_ansR.png,right,NA,NA,NA,right,1221.89999997616,true,NA,NA,NA,NA,NA
dGjA5Pfo,NA,NA,dGjA5Pfo,2020-0188,2021-09-22,10:35:38,11:49:10,NA,incomplete,true,true,NA,0,26,E5_Q9_ansR.png,right,NA,NA,NA,right,1440.5,true,NA,NA,NA,NA,NA
dGjA5Pfo,NA,NA,dGjA5Pfo,2020-0188,2021-09-22,10:35:38,11:49:10,NA,incomplete,true,true,NA,0,27,E5_Q2_ansL.png,left,NA,NA,NA,left,1668.10000002384,true,NA,NA,NA,NA,NA
dGjA5Pfo,NA,NA,dGjA5Pfo,2020-0188,2021-09-22,10:35:38,11:49:10,NA,incomplete,true,true,NA,0,28,E5_Q8_ansL.png,left,NA,NA,NA,left,1600.5,true,NA,NA,NA,NA,NA
dGjA5Pfo,NA,NA,dGjA5Pfo,2020-0188,2021-09-22,10:35:38,11:49:10,NA,incomplete,true,true,NA,0,29,E5_Q6_ansR.png,right,NA,NA,NA,right,1248.89999997616,true,NA,NA,NA,NA,NA
dGjA5Pfo,NA,NA,dGjA5Pfo,2020-0188,2021-09-22,10:35:38,11:49:10,NA,incomplete,true,NA,true,0,0,NA,left,E22_Q2_ansR.png,E22_Q7_ansR.png,within,NA,NaN,NA,left,2561,1,2,5494.600000023842
dGjA5Pfo,NA,NA,dGjA5Pfo,2020-0188,2021-09-22,10:35:38,11:49:10,NA,incomplete,true,NA,true,0,1,NA,left,E5_Q9_ansR.png,E5_Q6_ansR.png,within,NA,NaN,NA,left,2940.399999976158,1,1,2406.0999999046326
dGjA5Pfo,NA,NA,dGjA5Pfo,2020-0188,2021-09-22,10:35:38,11:49:10,NA,incomplete,true,NA,true,0,2,NA,left,E2_Q4_ansL.png,E2_Q7_ansR.png,within,NA,NaN,NA,left,4831,1,0,6993.100000023842
dGjA5Pfo,NA,NA,dGjA5Pfo,2020-0188,2021-09-22,10:35:38,11:49:10,NA,incomplete,true,NA,true,0,3,NA,right,E5_Q3_ansR.png,E2_Q9_ansL.png,between,NA,NaN,NA,right,6957.899999976158,1,3,1699.3000000715256
dGjA5Pfo,NA,NA,dGjA5Pfo,2020-0188,2021-09-22,10:35:38,11:49:10,NA,incomplete,true,NA,true,0,4,NA,left,E22_Q6_ansL.png,E22_Q8_ansR.png,within,NA,NaN,NA,left,3573.5,1,2,1831.1000000238419
dGjA5Pfo,NA,NA,dGjA5Pfo,2020-0188,2021-09-22,10:35:38,11:49:10,NA,incomplete,true,NA,true,0,5,NA,left,E2_Q5_ansL.png,E2_Q9_ansL.png,within,NA,NaN,NA,left,2742.5,1,1,3371.600000023842
dGjA5Pfo,NA,NA,dGjA5Pfo,2020-0188,2021-09-22,10:35:38,11:49:10,NA,incomplete,true,NA,true,0,6,NA,left,E2_Q8_ansR.png,E2_Q4_ansL.png,within,NA,NaN,NA,right,4891.5,0,0,2415.7000000476837
dGjA5Pfo,NA,NA,dGjA5Pfo,2020-0188,2021-09-22,10:35:38,11:49:10,NA,incomplete,true,NA,true,0,7,NA,left,E22_Q1_ansR.png,E2_Q10_ansL.png,between,NA,NaN,NA,left,4490.100000023842,1,3,1148.5
dGjA5Pfo,NA,NA,dGjA5Pfo,2020-0188,2021-09-22,10:35:38,11:49:10,NA,incomplete,true,NA,true,0,8,NA,left,E5_Q4_ansR.png,E5_Q9_ansR.png,within,NA,NaN,NA,left,2561.899999976158,1,1,1650.5
dGjA5Pfo,NA,NA,dGjA5Pfo,2020-0188,2021-09-22,10:35:38,11:49:10,NA,incomplete,true,NA,true,0,9,NA,left,E22_Q4_ansL.png,E22_Q5_ansL.png,within,NA,NaN,NA,left,3367.899999976158,1,0,67832.40000009537
dGjA5Pfo,NA,NA,dGjA5Pfo,2020-0188,2021-09-22,10:35:38,11:49:10,NA,incomplete,true,NA,true,0,10,NA,left,E22_Q10_ansR.png,E2_Q6_ansL.png,between,NA,NaN,NA,left,8241.100000023842,1,3,4452
dGjA5Pfo,NA,NA,dGjA5Pfo,2020-0188,2021-09-22,10:35:38,11:49:10,NA,incomplete,true,NA,true,0,11,NA,right,E2_Q5_ansL.png,E2_Q6_ansL.png,within,NA,NaN,NA,right,3022.1999999284744,1,0,6783.899999976158
dGjA5Pfo,NA,NA,dGjA5Pfo,2020-0188,2021-09-22,10:35:38,11:49:10,NA,incomplete,true,NA,true,0,12,NA,left,E22_Q3_ansL.png,E22_Q9_ansL.png,within,NA,NaN,NA,right,8144.799999952316,0,0,3515.3000000715256
dGjA5Pfo,NA,NA,dGjA5Pfo,2020-0188,2021-09-22,10:35:38,11:49:10,NA,incomplete,true,NA,true,0,13,NA,right,E5_Q1_ansL.png,E2_Q7_ansR.png,between,NA,NaN,NA,right,27972.5,1,2,1666.5
dGjA5Pfo,NA,NA,dGjA5Pfo,2020-0188,2021-09-22,10:35:38,11:49:10,NA,incomplete,true,NA,true,0,14,NA,left,E5_Q7_ansL.png,E5_Q10_ansR.png,within,NA,NaN,NA,left,45558.699999928474,1,1,1707.5
dGjA5Pfo,NA,NA,dGjA5Pfo,2020-0188,2021-09-22,10:35:38,11:49:10,NA,incomplete,true,NA,true,0,15,NA,left,E2_Q3_ansR.png,E5_Q7_ansL.png,between,NA,NaN,NA,left,19096.900000095367,1,2,1419.7000000476837
dGjA5Pfo,NA,NA,dGjA5Pfo,2020-0188,2021-09-22,10:35:38,11:49:10,NA,incomplete,true,NA,true,0,16,NA,left,E5_Q10_ansR.png,E5_Q8_ansL.png,within,NA,NaN,NA,left,4162.5,1,0,16802.799999952316
dGjA5Pfo,NA,NA,dGjA5Pfo,2020-0188,2021-09-22,10:35:38,11:49:10,NA,incomplete,true,NA,true,0,17,NA,right,E2_Q2_ansR.png,E2_Q1_ansL.png,within,NA,NaN,NA,right,17604.5,1,0,1627.8000000715256
dGjA5Pfo,NA,NA,dGjA5Pfo,2020-0188,2021-09-22,10:35:38,11:49:10,NA,incomplete,true,NA,true,0,18,NA,left,E5_Q3_ansR.png,E5_Q4_ansR.png,within,NA,NaN,NA,left,2069.1999999284744,1,0,3039.7999999523163
dGjA5Pfo,NA,NA,dGjA5Pfo,2020-0188,2021-09-22,10:35:38,11:49:10,NA,incomplete,true,NA,true,0,19,NA,left,E5_Q1_ansL.png,E5_Q5_ansR.png,within,NA,NaN,NA,right,5781.600000023842,0,0,16575.199999928474
dGjA5Pfo,NA,NA,dGjA5Pfo,2020-0188,2021-09-22,10:35:38,11:49:10,NA,incomplete,true,NA,true,0,20,NA,left,E5_Q5_ansR.png,E5_Q2_ansL.png,within,NA,NaN,NA,right,2421.7999999523163,0,0,2296.399999976158
dGjA5Pfo,NA,NA,dGjA5Pfo,2020-0188,2021-09-22,10:35:38,11:49:10,NA,incomplete,true,NA,true,0,21,NA,left,E2_Q10_ansL.png,E2_Q1_ansL.png,within,NA,NaN,NA,right,11318.5,0,0,18007.600000023842
dGjA5Pfo,NA,NA,dGjA5Pfo,2020-0188,2021-09-22,10:35:38,11:49:10,NA,incomplete,true,NA,true,0,22,NA,right,E2_Q3_ansR.png,E2_Q2_ansR.png,within,NA,NaN,NA,left,3223.600000023842,0,0,10263
dGjA5Pfo,NA,NA,dGjA5Pfo,2020-0188,2021-09-22,10:35:38,11:49:10,NA,incomplete,true,NA,true,0,23,NA,right,E2_Q8_ansR.png,E22_Q7_ansR.png,between,NA,NaN,NA,right,1459.3999999761581,1,3,2497.399999976158
dGjA5Pfo,NA,NA,dGjA5Pfo,2020-0188,2021-09-22,10:35:38,11:49:10,NA,incomplete,true,NA,true,0,24,NA,right,E22_Q1_ansR.png,E22_Q8_ansR.png,within,NA,NaN,NA,left,2143.5,0,0,1846.6000000238419
dGjA5Pfo,NA,NA,dGjA5Pfo,2020-0188,2021-09-22,10:35:38,11:49:10,NA,incomplete,true,NA,true,0,25,NA,left,E22_Q5_ansL.png,E22_Q2_ansR.png,within,NA,NaN,NA,right,2409,0,0,1239.5
dGjA5Pfo,NA,NA,dGjA5Pfo,2020-0188,2021-09-22,10:35:38,11:49:10,NA,incomplete,true,NA,true,0,26,NA,left,E22_Q9_ansL.png,E22_Q10_ansR.png,within,NA,NaN,NA,left,1921.8999999761581,1,0,1074.1000000238419
dGjA5Pfo,NA,NA,dGjA5Pfo,2020-0188,2021-09-22,10:35:38,11:49:10,NA,incomplete,false,true,NA,1,0,E19_Q5_ansR.png,right,NA,NA,NA,right,1063.80000007153,true,NA,NA,NA,NA,NA
dGjA5Pfo,NA,NA,dGjA5Pfo,2020-0188,2021-09-22,10:35:38,11:49:10,NA,incomplete,false,true,NA,1,1,E19_Q9_ansR.png,right,NA,NA,NA,right,1596.40000009537,true,NA,NA,NA,NA,NA
dGjA5Pfo,NA,NA,dGjA5Pfo,2020-0188,2021-09-22,10:35:38,11:49:10,NA,incomplete,false,true,NA,1,2,E19_Q4_ansR.png,right,NA,NA,NA,right,1028.79999995232,true,NA,NA,NA,NA,NA
dGjA5Pfo,NA,NA,dGjA5Pfo,2020-0188,2021-09-22,10:35:38,11:49:10,NA,incomplete,false,true,NA,1,3,E19_Q1_ansL.png,left,NA,NA,NA,left,1014.29999995232,true,NA,NA,NA,NA,NA
dGjA5Pfo,NA,NA,dGjA5Pfo,2020-0188,2021-09-22,10:35:38,11:49:10,NA,incomplete,false,true,NA,1,4,E19_Q6_ansR.png,right,NA,NA,NA,right,961.799999952316,true,NA,NA,NA,NA,NA
dGjA5Pfo,NA,NA,dGjA5Pfo,2020-0188,2021-09-22,10:35:38,11:49:10,NA,incomplete,false,true,NA,1,5,E19_Q7_ansL.png,left,NA,NA,NA,left,1952.89999997616,true,NA,NA,NA,NA,NA
dGjA5Pfo,NA,NA,dGjA5Pfo,2020-0188,2021-09-22,10:35:38,11:49:10,NA,incomplete,false,true,NA,1,6,E19_Q8_ansL.png,left,NA,NA,NA,left,2089,true,NA,NA,NA,NA,NA
dGjA5Pfo,NA,NA,dGjA5Pfo,2020-0188,2021-09-22,10:35:38,11:49:10,NA,incomplete,false,true,NA,1,7,E19_Q10_ansL.png,left,NA,NA,NA,left,1252.10000002384,true,NA,NA,NA,NA,NA
dGjA5Pfo,NA,NA,dGjA5Pfo,2020-0188,2021-09-22,10:35:38,11:49:10,NA,incomplete,false,true,NA,1,8,E19_Q3_ansR.png,right,NA,NA,NA,right,1105.10000002384,true,NA,NA,NA,NA,NA
dGjA5Pfo,NA,NA,dGjA5Pfo,2020-0188,2021-09-22,10:35:38,11:49:10,NA,incomplete,false,true,NA,1,9,E19_Q2_ansL.png,left,NA,NA,NA,left,990.600000023842,true,NA,NA,NA,NA,NA
dGjA5Pfo,NA,NA,dGjA5Pfo,2020-0188,2021-09-22,10:35:38,11:49:10,NA,incomplete,false,true,NA,1,10,E11_Q5_ansL.png,left,NA,NA,NA,left,1482.39999997616,true,NA,NA,NA,NA,NA
dGjA5Pfo,NA,NA,dGjA5Pfo,2020-0188,2021-09-22,10:35:38,11:49:10,NA,incomplete,false,true,NA,1,11,E11_Q3_ansL.png,left,NA,NA,NA,left,1896,true,NA,NA,NA,NA,NA
dGjA5Pfo,NA,NA,dGjA5Pfo,2020-0188,2021-09-22,10:35:38,11:49:10,NA,incomplete,false,true,NA,1,12,E11_Q7_ansR.png,right,NA,NA,NA,right,1581.60000002384,true,NA,NA,NA,NA,NA
dGjA5Pfo,NA,NA,dGjA5Pfo,2020-0188,2021-09-22,10:35:38,11:49:10,NA,incomplete,false,true,NA,1,13,E11_Q9_ansL.png,left,NA,NA,NA,left,888.700000047684,true,NA,NA,NA,NA,NA
dGjA5Pfo,NA,NA,dGjA5Pfo,2020-0188,2021-09-22,10:35:38,11:49:10,NA,incomplete,false,true,NA,1,14,E11_Q10_ansR.png,right,NA,NA,NA,right,1236.20000004768,true,NA,NA,NA,NA,NA
dGjA5Pfo,NA,NA,dGjA5Pfo,2020-0188,2021-09-22,10:35:38,11:49:10,NA,incomplete,false,true,NA,1,15,E11_Q6_ansL.png,left,NA,NA,NA,left,1496.20000004768,true,NA,NA,NA,NA,NA
dGjA5Pfo,NA,NA,dGjA5Pfo,2020-0188,2021-09-22,10:35:38,11:49:10,NA,incomplete,false,true,NA,1,16,E11_Q8_ansR.png,right,NA,NA,NA,right,1959,true,NA,NA,NA,NA,NA
dGjA5Pfo,NA,NA,dGjA5Pfo,2020-0188,2021-09-22,10:35:38,11:49:10,NA,incomplete,false,true,NA,1,17,E11_Q1_ansR.png,right,NA,NA,NA,right,1433.59999990463,true,NA,NA,NA,NA,NA
dGjA5Pfo,NA,NA,dGjA5Pfo,2020-0188,2021-09-22,10:35:38,11:49:10,NA,incomplete,false,true,NA,1,18,E11_Q4_ansL.png,left,NA,NA,NA,left,2171.70000004768,true,NA,NA,NA,NA,NA
dGjA5Pfo,NA,NA,dGjA5Pfo,2020-0188,2021-09-22,10:35:38,11:49:10,NA,incomplete,false,true,NA,1,19,E11_Q2_ansR.png,right,NA,NA,NA,right,1744,true,NA,NA,NA,NA,NA
dGjA5Pfo,NA,NA,dGjA5Pfo,2020-0188,2021-09-22,10:35:38,11:49:10,NA,incomplete,false,true,NA,1,20,E12_Q7_ansL.png,left,NA,NA,NA,left,2090.80000007153,true,NA,NA,NA,NA,NA
dGjA5Pfo,NA,NA,dGjA5Pfo,2020-0188,2021-09-22,10:35:38,11:49:10,NA,incomplete,false,true,NA,1,21,E12_Q4_ansR.png,right,NA,NA,NA,right,1086.39999997616,true,NA,NA,NA,NA,NA
dGjA5Pfo,NA,NA,dGjA5Pfo,2020-0188,2021-09-22,10:35:38,11:49:10,NA,incomplete,false,true,NA,1,22,E12_Q9_ansR.png,right,NA,NA,NA,right,1121.89999997616,true,NA,NA,NA,NA,NA
dGjA5Pfo,NA,NA,dGjA5Pfo,2020-0188,2021-09-22,10:35:38,11:49:10,NA,incomplete,false,true,NA,1,23,E12_Q2_ansL.png,left,NA,NA,NA,left,1997.19999992847,true,NA,NA,NA,NA,NA
dGjA5Pfo,NA,NA,dGjA5Pfo,2020-0188,2021-09-22,10:35:38,11:49:10,NA,incomplete,false,true,NA,1,24,E12_Q5_ansR.png,right,NA,NA,NA,none,0,false,NA,NA,NA,NA,NA
dGjA5Pfo,NA,NA,dGjA5Pfo,2020-0188,2021-09-22,10:35:38,11:49:10,NA,incomplete,false,true,NA,1,25,E12_Q10_ansL.png,left,NA,NA,NA,left,1205.30000007153,true,NA,NA,NA,NA,NA
dGjA5Pfo,NA,NA,dGjA5Pfo,2020-0188,2021-09-22,10:35:38,11:49:10,NA,incomplete,false,true,NA,1,26,E12_Q3_ansR.png,right,NA,NA,NA,right,915.799999952316,true,NA,NA,NA,NA,NA
dGjA5Pfo,NA,NA,dGjA5Pfo,2020-0188,2021-09-22,10:35:38,11:49:10,NA,incomplete,false,true,NA,1,27,E12_Q6_ansR.png,right,NA,NA,NA,right,1654.60000002384,true,NA,NA,NA,NA,NA
dGjA5Pfo,NA,NA,dGjA5Pfo,2020-0188,2021-09-22,10:35:38,11:49:10,NA,incomplete,false,true,NA,1,28,E12_Q8_ansL.png,left,NA,NA,NA,left,2157.10000002384,true,NA,NA,NA,NA,NA
dGjA5Pfo,NA,NA,dGjA5Pfo,2020-0188,2021-09-22,10:35:38,11:49:10,NA,incomplete,false,true,NA,1,29,E12_Q1_ansL.png,left,NA,NA,NA,left,1480.40000009537,true,NA,NA,NA,NA,NA
dGjA5Pfo,NA,NA,dGjA5Pfo,2020-0188,2021-09-22,10:35:38,11:49:10,NA,incomplete,false,NA,true,1,0,NA,right,E12_Q1_ansL.png,E12_Q3_ansR.png,within,NA,NaN,NA,right,2971.1999999284744,1,0,1648
dGjA5Pfo,NA,NA,dGjA5Pfo,2020-0188,2021-09-22,10:35:38,11:49:10,NA,incomplete,false,NA,true,1,1,NA,left,E12_Q4_ansR.png,E12_Q5_ansR.png,within,NA,NaN,NA,left,3101.600000023842,1,1,2880.7000000476837
dGjA5Pfo,NA,NA,dGjA5Pfo,2020-0188,2021-09-22,10:35:38,11:49:10,NA,incomplete,false,NA,true,1,2,NA,right,E19_Q1_ansL.png,E19_Q5_ansR.png,within,NA,NaN,NA,right,3882.399999976158,1,1,2690.7999999523163
dGjA5Pfo,NA,NA,dGjA5Pfo,2020-0188,2021-09-22,10:35:38,11:49:10,NA,incomplete,false,NA,true,1,3,NA,right,E12_Q2_ansL.png,E12_Q7_ansL.png,within,NA,NaN,NA,right,3844.399999976158,1,1,1732.0999999046326
dGjA5Pfo,NA,NA,dGjA5Pfo,2020-0188,2021-09-22,10:35:38,11:49:10,NA,incomplete,false,NA,true,1,4,NA,right,E11_Q4_ansL.png,E11_Q6_ansL.png,within,NA,NaN,NA,left,7531.700000047684,0,0,918.8999999761581
dGjA5Pfo,NA,NA,dGjA5Pfo,2020-0188,2021-09-22,10:35:38,11:49:10,NA,incomplete,false,NA,true,1,5,NA,left,E19_Q4_ansR.png,E19_Q7_ansL.png,within,NA,NaN,NA,left,2841.1999999284744,1,0,2094
dGjA5Pfo,NA,NA,dGjA5Pfo,2020-0188,2021-09-22,10:35:38,11:49:10,NA,incomplete,false,NA,true,1,6,NA,right,E19_Q10_ansL.png,E19_Q6_ansR.png,within,NA,NaN,NA,left,4069.3000000715256,0,0,7032.299999952316
dGjA5Pfo,NA,NA,dGjA5Pfo,2020-0188,2021-09-22,10:35:38,11:49:10,NA,incomplete,false,NA,true,1,7,NA,right,E11_Q1_ansR.png,E11_Q10_ansR.png,within,NA,NaN,NA,right,2823.899999976158,1,0,1460.8000000715256
dGjA5Pfo,NA,NA,dGjA5Pfo,2020-0188,2021-09-22,10:35:38,11:49:10,NA,incomplete,false,NA,true,1,8,NA,right,E19_Q3_ansR.png,E19_Q7_ansL.png,within,NA,NaN,NA,right,2241.6999999284744,1,0,3610.7999999523163
dGjA5Pfo,NA,NA,dGjA5Pfo,2020-0188,2021-09-22,10:35:38,11:49:10,NA,incomplete,false,NA,true,1,9,NA,left,E19_Q3_ansR.png,E11_Q3_ansL.png,between,NA,NaN,NA,left,2175.100000023842,1,2,36292.200000047684
dGjA5Pfo,NA,NA,dGjA5Pfo,2020-0188,2021-09-22,10:35:38,11:49:10,NA,incomplete,false,NA,true,1,10,NA,left,E11_Q2_ansR.png,E12_Q9_ansR.png,between,NA,NaN,NA,left,6283.800000071526,1,2,2317.600000023842
dGjA5Pfo,NA,NA,dGjA5Pfo,2020-0188,2021-09-22,10:35:38,11:49:10,NA,incomplete,false,NA,true,1,11,NA,right,E11_Q9_ansL.png,E11_Q5_ansL.png,within,NA,NaN,NA,right,2964.3000000715256,1,0,1724.1000000238419
dGjA5Pfo,NA,NA,dGjA5Pfo,2020-0188,2021-09-22,10:35:38,11:49:10,NA,incomplete,false,NA,true,1,12,NA,right,E12_Q10_ansL.png,E12_Q9_ansR.png,within,NA,NaN,NA,right,3723.5,1,0,4015.5999999046326
dGjA5Pfo,NA,NA,dGjA5Pfo,2020-0188,2021-09-22,10:35:38,11:49:10,NA,incomplete,false,NA,true,1,13,NA,left,E19_Q2_ansL.png,E11_Q7_ansR.png,between,NA,NaN,NA,left,1773.7999999523163,1,2,2464.1999999284744
dGjA5Pfo,NA,NA,dGjA5Pfo,2020-0188,2021-09-22,10:35:38,11:49:10,NA,incomplete,false,NA,true,1,14,NA,left,E19_Q8_ansL.png,E19_Q2_ansL.png,within,NA,NaN,NA,right,2643.7999999523163,0,0,1347.5
dGjA5Pfo,NA,NA,dGjA5Pfo,2020-0188,2021-09-22,10:35:38,11:49:10,NA,incomplete,false,NA,true,1,15,NA,right,E12_Q6_ansR.png,E12_Q5_ansR.png,within,NA,NaN,NA,left,4841.600000023842,0,0,2053
dGjA5Pfo,NA,NA,dGjA5Pfo,2020-0188,2021-09-22,10:35:38,11:49:10,NA,incomplete,false,NA,true,1,16,NA,right,E11_Q6_ansL.png,E11_Q7_ansR.png,within,NA,NaN,NA,left,3082.1999999284744,0,0,1420.2999999523163
dGjA5Pfo,NA,NA,dGjA5Pfo,2020-0188,2021-09-22,10:35:38,11:49:10,NA,incomplete,false,NA,true,1,17,NA,left,E12_Q2_ansL.png,E12_Q3_ansR.png,within,NA,NaN,NA,left,3304.899999976158,1,0,1437.6999999284744
dGjA5Pfo,NA,NA,dGjA5Pfo,2020-0188,2021-09-22,10:35:38,11:49:10,NA,incomplete,false,NA,true,1,18,NA,left,E19_Q1_ansL.png,E19_Q8_ansL.png,within,NA,NaN,NA,left,13362.100000023842,1,0,18565
dGjA5Pfo,NA,NA,dGjA5Pfo,2020-0188,2021-09-22,10:35:38,11:49:10,NA,incomplete,false,NA,true,1,19,NA,left,E11_Q3_ansL.png,E11_Q10_ansR.png,within,NA,NaN,NA,left,3407.0999999046326,1,0,1806.5
dGjA5Pfo,NA,NA,dGjA5Pfo,2020-0188,2021-09-22,10:35:38,11:49:10,NA,incomplete,false,NA,true,1,20,NA,left,E11_Q9_ansL.png,E11_Q8_ansR.png,within,NA,NaN,NA,right,4695,0,1,1347.1000000238419
dGjA5Pfo,NA,NA,dGjA5Pfo,2020-0188,2021-09-22,10:35:38,11:49:10,NA,incomplete,false,NA,true,1,21,NA,left,E11_Q1_ansR.png,E12_Q7_ansL.png,between,NA,NaN,NA,left,3184.2999999523163,1,2,1180.7000000476837
dGjA5Pfo,NA,NA,dGjA5Pfo,2020-0188,2021-09-22,10:35:38,11:49:10,NA,incomplete,false,NA,true,1,22,NA,left,E19_Q10_ansL.png,E11_Q5_ansL.png,between,NA,NaN,NA,left,2480.2999999523163,1,2,8997.399999976158
dGjA5Pfo,NA,NA,dGjA5Pfo,2020-0188,2021-09-22,10:35:38,11:49:10,NA,incomplete,false,NA,true,1,23,NA,left,E11_Q4_ansL.png,E12_Q4_ansR.png,between,NA,NaN,NA,left,9757.100000023842,1,2,2701.5
dGjA5Pfo,NA,NA,dGjA5Pfo,2020-0188,2021-09-22,10:35:38,11:49:10,NA,incomplete,false,NA,true,1,24,NA,left,E11_Q8_ansR.png,E11_Q2_ansR.png,within,NA,NaN,NA,right,3113.899999976158,0,0,1839.6000000238419
dGjA5Pfo,NA,NA,dGjA5Pfo,2020-0188,2021-09-22,10:35:38,11:49:10,NA,incomplete,false,NA,true,1,25,NA,left,E19_Q9_ansR.png,E19_Q6_ansR.png,within,NA,NaN,NA,left,4842,1,0,1528.2999999523163
dGjA5Pfo,NA,NA,dGjA5Pfo,2020-0188,2021-09-22,10:35:38,11:49:10,NA,incomplete,false,NA,true,1,26,NA,right,E12_Q8_ansL.png,E12_Q10_ansL.png,within,NA,NaN,NA,right,3024.100000023842,1,0,34788.59999990463
dGjA5Pfo,NA,NA,dGjA5Pfo,2020-0188,2021-09-22,10:35:38,11:49:10,NA,incomplete,false,true,NA,2,0,E7_Q9_ansR.png,right,NA,NA,NA,right,1594.10000002384,true,NA,NA,NA,NA,NA
dGjA5Pfo,NA,NA,dGjA5Pfo,2020-0188,2021-09-22,10:35:38,11:49:10,NA,incomplete,false,true,NA,2,1,E7_Q4_ansR.png,right,NA,NA,NA,right,1399.39999997616,true,NA,NA,NA,NA,NA
dGjA5Pfo,NA,NA,dGjA5Pfo,2020-0188,2021-09-22,10:35:38,11:49:10,NA,incomplete,false,true,NA,2,2,E7_Q7_ansL.png,left,NA,NA,NA,left,928.399999976158,true,NA,NA,NA,NA,NA
dGjA5Pfo,NA,NA,dGjA5Pfo,2020-0188,2021-09-22,10:35:38,11:49:10,NA,incomplete,false,true,NA,2,3,E7_Q10_ansR.png,right,NA,NA,NA,right,1800.30000007153,true,NA,NA,NA,NA,NA
dGjA5Pfo,NA,NA,dGjA5Pfo,2020-0188,2021-09-22,10:35:38,11:49:10,NA,incomplete,false,true,NA,2,4,E7_Q1_ansL.png,left,NA,NA,NA,left,1080.39999997616,true,NA,NA,NA,NA,NA
dGjA5Pfo,NA,NA,dGjA5Pfo,2020-0188,2021-09-22,10:35:38,11:49:10,NA,incomplete,false,true,NA,2,5,E7_Q5_ansR.png,right,NA,NA,NA,right,1155.59999990463,true,NA,NA,NA,NA,NA
dGjA5Pfo,NA,NA,dGjA5Pfo,2020-0188,2021-09-22,10:35:38,11:49:10,NA,incomplete,false,true,NA,2,6,E7_Q6_ansR.png,right,NA,NA,NA,right,942.5,true,NA,NA,NA,NA,NA
dGjA5Pfo,NA,NA,dGjA5Pfo,2020-0188,2021-09-22,10:35:38,11:49:10,NA,incomplete,false,true,NA,2,7,E7_Q3_ansR.png,right,NA,NA,NA,right,1128.39999997616,true,NA,NA,NA,NA,NA
dGjA5Pfo,NA,NA,dGjA5Pfo,2020-0188,2021-09-22,10:35:38,11:49:10,NA,incomplete,false,true,NA,2,8,E7_Q2_ansL.png,left,NA,NA,NA,left,1507.60000002384,true,NA,NA,NA,NA,NA
dGjA5Pfo,NA,NA,dGjA5Pfo,2020-0188,2021-09-22,10:35:38,11:49:10,NA,incomplete,false,true,NA,2,9,E7_Q8_ansL.png,left,NA,NA,NA,left,2562.10000002384,true,NA,NA,NA,NA,NA
dGjA5Pfo,NA,NA,dGjA5Pfo,2020-0188,2021-09-22,10:35:38,11:49:10,NA,incomplete,false,true,NA,2,10,E13_Q4_ansR.png,right,NA,NA,NA,right,3481.60000002384,true,NA,NA,NA,NA,NA
dGjA5Pfo,NA,NA,dGjA5Pfo,2020-0188,2021-09-22,10:35:38,11:49:10,NA,incomplete,false,true,NA,2,11,E13_Q9_ansR.png,right,NA,NA,NA,right,1055.60000002384,true,NA,NA,NA,NA,NA
dGjA5Pfo,NA,NA,dGjA5Pfo,2020-0188,2021-09-22,10:35:38,11:49:10,NA,incomplete,false,true,NA,2,12,E13_Q7_ansL.png,left,NA,NA,NA,left,2473.5,true,NA,NA,NA,NA,NA
dGjA5Pfo,NA,NA,dGjA5Pfo,2020-0188,2021-09-22,10:35:38,11:49:10,NA,incomplete,false,true,NA,2,13,E13_Q8_ansL.png,left,NA,NA,NA,left,1202,true,NA,NA,NA,NA,NA
dGjA5Pfo,NA,NA,dGjA5Pfo,2020-0188,2021-09-22,10:35:38,11:49:10,NA,incomplete,false,true,NA,2,14,E13_Q5_ansR.png,right,NA,NA,NA,right,1360.39999997616,true,NA,NA,NA,NA,NA
dGjA5Pfo,NA,NA,dGjA5Pfo,2020-0188,2021-09-22,10:35:38,11:49:10,NA,incomplete,false,true,NA,2,15,E13_Q1_ansL.png,left,NA,NA,NA,left,1391.89999997616,true,NA,NA,NA,NA,NA
dGjA5Pfo,NA,NA,dGjA5Pfo,2020-0188,2021-09-22,10:35:38,11:49:10,NA,incomplete,false,true,NA,2,16,E13_Q3_ansR.png,right,NA,NA,NA,right,1374.10000002384,true,NA,NA,NA,NA,NA
dGjA5Pfo,NA,NA,dGjA5Pfo,2020-0188,2021-09-22,10:35:38,11:49:10,NA,incomplete,false,true,NA,2,17,E13_Q10_ansL.png,left,NA,NA,NA,left,2079.70000004768,true,NA,NA,NA,NA,NA
dGjA5Pfo,NA,NA,dGjA5Pfo,2020-0188,2021-09-22,10:35:38,11:49:10,NA,incomplete,false,true,NA,2,18,E13_Q2_ansL.png,left,NA,NA,NA,none,0,false,NA,NA,NA,NA,NA
dGjA5Pfo,NA,NA,dGjA5Pfo,2020-0188,2021-09-22,10:35:38,11:49:10,NA,incomplete,false,true,NA,2,19,E13_Q6_ansR.png,right,NA,NA,NA,right,1286.30000007153,true,NA,NA,NA,NA,NA
dGjA5Pfo,NA,NA,dGjA5Pfo,2020-0188,2021-09-22,10:35:38,11:49:10,NA,incomplete,false,true,NA,2,20,E31_Q8_ansR.png,right,NA,NA,NA,right,1327.30000007153,true,NA,NA,NA,NA,NA
dGjA5Pfo,NA,NA,dGjA5Pfo,2020-0188,2021-09-22,10:35:38,11:49:10,NA,incomplete,false,true,NA,2,21,E31_Q10_ansR.png,right,NA,NA,NA,right,1045.10000002384,true,NA,NA,NA,NA,NA
dGjA5Pfo,NA,NA,dGjA5Pfo,2020-0188,2021-09-22,10:35:38,11:49:10,NA,incomplete,false,true,NA,2,22,E31_Q7_ansR.png,right,NA,NA,NA,right,1134.60000002384,true,NA,NA,NA,NA,NA
dGjA5Pfo,NA,NA,dGjA5Pfo,2020-0188,2021-09-22,10:35:38,11:49:10,NA,incomplete,false,true,NA,2,23,E31_Q1_ansR.png,right,NA,NA,NA,right,987.700000047684,true,NA,NA,NA,NA,NA
dGjA5Pfo,NA,NA,dGjA5Pfo,2020-0188,2021-09-22,10:35:38,11:49:10,NA,incomplete,false,true,NA,2,24,E31_Q6_ansL.png,left,NA,NA,NA,left,1391.69999992847,true,NA,NA,NA,NA,NA
dGjA5Pfo,NA,NA,dGjA5Pfo,2020-0188,2021-09-22,10:35:38,11:49:10,NA,incomplete,false,true,NA,2,25,E31_Q3_ansL.png,left,NA,NA,NA,left,1561.5,true,NA,NA,NA,NA,NA
dGjA5Pfo,NA,NA,dGjA5Pfo,2020-0188,2021-09-22,10:35:38,11:49:10,NA,incomplete,false,true,NA,2,26,E31_Q5_ansL.png,left,NA,NA,NA,left,1178.70000004768,true,NA,NA,NA,NA,NA
dGjA5Pfo,NA,NA,dGjA5Pfo,2020-0188,2021-09-22,10:35:38,11:49:10,NA,incomplete,false,true,NA,2,27,E31_Q4_ansL.png,left,NA,NA,NA,left,1261.29999995232,true,NA,NA,NA,NA,NA
dGjA5Pfo,NA,NA,dGjA5Pfo,2020-0188,2021-09-22,10:35:38,11:49:10,NA,incomplete,false,true,NA,2,28,E31_Q9_ansL.png,left,NA,NA,NA,left,1275,true,NA,NA,NA,NA,NA
dGjA5Pfo,NA,NA,dGjA5Pfo,2020-0188,2021-09-22,10:35:38,11:49:10,NA,incomplete,false,true,NA,2,29,E31_Q2_ansR.png,right,NA,NA,NA,right,1194.29999995232,true,NA,NA,NA,NA,NA
dGjA5Pfo,NA,NA,dGjA5Pfo,2020-0188,2021-09-22,10:35:38,11:49:10,NA,incomplete,false,NA,true,2,0,NA,left,E13_Q10_ansL.png,E31_Q8_ansR.png,between,NA,NaN,NA,left,2429.6999999284744,1,2,836.5
dGjA5Pfo,NA,NA,dGjA5Pfo,2020-0188,2021-09-22,10:35:38,11:49:10,NA,incomplete,false,NA,true,2,1,NA,right,E13_Q7_ansL.png,E7_Q8_ansL.png,between,NA,NaN,NA,right,1608.8000000715256,1,2,2865.899999976158
dGjA5Pfo,NA,NA,dGjA5Pfo,2020-0188,2021-09-22,10:35:38,11:49:10,NA,incomplete,false,NA,true,2,2,NA,left,E31_Q8_ansR.png,E31_Q1_ansR.png,within,NA,NaN,NA,left,2808,1,0,1174.3000000715256
dGjA5Pfo,NA,NA,dGjA5Pfo,2020-0188,2021-09-22,10:35:38,11:49:10,NA,incomplete,false,NA,true,2,3,NA,left,E13_Q2_ansL.png,E31_Q10_ansR.png,between,NA,NaN,NA,left,4840.5,1,2,4828.100000023842
dGjA5Pfo,NA,NA,dGjA5Pfo,2020-0188,2021-09-22,10:35:38,11:49:10,NA,incomplete,false,NA,true,2,4,NA,left,E7_Q3_ansR.png,E13_Q4_ansR.png,between,NA,NaN,NA,left,2531,1,2,1987.2999999523163
dGjA5Pfo,NA,NA,dGjA5Pfo,2020-0188,2021-09-22,10:35:38,11:49:10,NA,incomplete,false,NA,true,2,5,NA,right,E31_Q4_ansL.png,E31_Q6_ansL.png,within,NA,NaN,NA,right,3811.399999976158,1,0,5082.100000023842
dGjA5Pfo,NA,NA,dGjA5Pfo,2020-0188,2021-09-22,10:35:38,11:49:10,NA,incomplete,false,NA,true,2,6,NA,left,E7_Q1_ansL.png,E7_Q3_ansR.png,within,NA,NaN,NA,left,3013.100000023842,1,0,1436.7999999523163
dGjA5Pfo,NA,NA,dGjA5Pfo,2020-0188,2021-09-22,10:35:38,11:49:10,NA,incomplete,false,NA,true,2,7,NA,right,E13_Q2_ansL.png,E13_Q1_ansL.png,within,NA,NaN,NA,left,4053.600000023842,0,0,14738.5
dGjA5Pfo,NA,NA,dGjA5Pfo,2020-0188,2021-09-22,10:35:38,11:49:10,NA,incomplete,false,NA,true,2,8,NA,left,E13_Q6_ansR.png,E31_Q7_ansR.png,between,NA,NaN,NA,left,2792.2999999523163,1,2,14904.799999952316
dGjA5Pfo,NA,NA,dGjA5Pfo,2020-0188,2021-09-22,10:35:38,11:49:10,NA,incomplete,false,NA,true,2,9,NA,left,E31_Q10_ansR.png,E31_Q6_ansL.png,within,NA,NaN,NA,left,2151.5,1,0,1001
dGjA5Pfo,NA,NA,dGjA5Pfo,2020-0188,2021-09-22,10:35:38,11:49:10,NA,incomplete,false,NA,true,2,10,NA,right,E7_Q10_ansR.png,E7_Q9_ansR.png,within,NA,NaN,NA,right,2800,1,0,1354.2000000476837
dGjA5Pfo,NA,NA,dGjA5Pfo,2020-0188,2021-09-22,10:35:38,11:49:10,NA,incomplete,false,NA,true,2,11,NA,right,E7_Q6_ansR.png,E7_Q10_ansR.png,within,NA,NaN,NA,left,4739.299999952316,0,0,1050.2999999523163
dGjA5Pfo,NA,NA,dGjA5Pfo,2020-0188,2021-09-22,10:35:38,11:49:10,NA,incomplete,false,NA,true,2,12,NA,left,E7_Q6_ansR.png,E7_Q8_ansL.png,within,NA,NaN,NA,right,1814.6999999284744,0,0,975.2000000476837
dGjA5Pfo,NA,NA,dGjA5Pfo,2020-0188,2021-09-22,10:35:38,11:49:10,NA,incomplete,false,NA,true,2,13,NA,left,E7_Q2_ansL.png,E13_Q9_ansR.png,between,NA,NaN,NA,left,1840.5,1,2,1553.2999999523163
dGjA5Pfo,NA,NA,dGjA5Pfo,2020-0188,2021-09-22,10:35:38,11:49:10,NA,incomplete,false,NA,true,2,14,NA,left,E13_Q5_ansR.png,E13_Q10_ansL.png,within,NA,NaN,NA,right,3852,0,0,1756.2000000476837
dGjA5Pfo,NA,NA,dGjA5Pfo,2020-0188,2021-09-22,10:35:38,11:49:10,NA,incomplete,false,NA,true,2,15,NA,left,E31_Q1_ansR.png,E31_Q5_ansL.png,within,NA,NaN,NA,right,2734.6999999284744,0,0,2044.7000000476837
dGjA5Pfo,NA,NA,dGjA5Pfo,2020-0188,2021-09-22,10:35:38,11:49:10,NA,incomplete,false,NA,true,2,16,NA,right,E31_Q9_ansL.png,E31_Q3_ansL.png,within,NA,NaN,NA,right,2963.100000023842,1,0,11127.900000095367
dGjA5Pfo,NA,NA,dGjA5Pfo,2020-0188,2021-09-22,10:35:38,11:49:10,NA,incomplete,false,NA,true,2,17,NA,left,E13_Q3_ansR.png,E13_Q6_ansR.png,within,NA,NaN,NA,left,7660.600000023842,1,0,1460.6000000238419
dGjA5Pfo,NA,NA,dGjA5Pfo,2020-0188,2021-09-22,10:35:38,11:49:10,NA,incomplete,false,NA,true,2,18,NA,left,E31_Q5_ansL.png,E31_Q2_ansR.png,within,NA,NaN,NA,left,2469.9000000953674,1,1,11030.899999976158
dGjA5Pfo,NA,NA,dGjA5Pfo,2020-0188,2021-09-22,10:35:38,11:49:10,NA,incomplete,false,NA,true,2,19,NA,left,E7_Q5_ansR.png,E7_Q2_ansL.png,within,NA,NaN,NA,left,1978.8999999761581,1,0,3226.100000023842
dGjA5Pfo,NA,NA,dGjA5Pfo,2020-0188,2021-09-22,10:35:38,11:49:10,NA,incomplete,false,NA,true,2,20,NA,left,E13_Q7_ansL.png,E13_Q1_ansL.png,within,NA,NaN,NA,left,2183.5999999046326,1,0,1050.5
dGjA5Pfo,NA,NA,dGjA5Pfo,2020-0188,2021-09-22,10:35:38,11:49:10,NA,incomplete,false,NA,true,2,21,NA,left,E7_Q4_ansR.png,E7_Q1_ansL.png,within,NA,NaN,NA,left,10998.199999928474,1,0,1189.5999999046326
dGjA5Pfo,NA,NA,dGjA5Pfo,2020-0188,2021-09-22,10:35:38,11:49:10,NA,incomplete,false,NA,true,2,22,NA,right,E13_Q8_ansL.png,E13_Q4_ansR.png,within,NA,NaN,NA,right,2192.2000000476837,1,1,2916.5
dGjA5Pfo,NA,NA,dGjA5Pfo,2020-0188,2021-09-22,10:35:38,11:49:10,NA,incomplete,false,NA,true,2,23,NA,left,E13_Q9_ansR.png,E13_Q5_ansR.png,within,NA,NaN,NA,left,1797.6000000238419,1,0,2841.100000023842
dGjA5Pfo,NA,NA,dGjA5Pfo,2020-0188,2021-09-22,10:35:38,11:49:10,NA,incomplete,false,NA,true,2,24,NA,right,E7_Q5_ansR.png,E7_Q7_ansL.png,within,NA,NaN,NA,right,1912.8999999761581,1,0,1178.9000000953674
dGjA5Pfo,NA,NA,dGjA5Pfo,2020-0188,2021-09-22,10:35:38,11:49:10,NA,incomplete,false,NA,true,2,25,NA,left,E13_Q8_ansL.png,E13_Q3_ansR.png,within,NA,NaN,NA,left,1641.6000000238419,1,1,1904.6999999284744
dGjA5Pfo,NA,NA,dGjA5Pfo,2020-0188,2021-09-22,10:35:38,11:49:10,NA,incomplete,false,NA,true,2,26,NA,left,E31_Q7_ansR.png,E31_Q3_ansL.png,within,NA,NaN,NA,left,1524,1,0,992.6999999284744
dGjA5Pfo,NA,NA,dGjA5Pfo,2020-0188,2021-09-22,10:35:38,11:49:10,NA,incomplete,false,true,NA,3,0,E24_Q3_ansL.png,left,NA,NA,NA,left,1396.10000002384,true,NA,NA,NA,NA,NA
dGjA5Pfo,NA,NA,dGjA5Pfo,2020-0188,2021-09-22,10:35:38,11:49:10,NA,incomplete,false,true,NA,3,1,E24_Q6_ansL.png,left,NA,NA,NA,left,1166,true,NA,NA,NA,NA,NA
dGjA5Pfo,NA,NA,dGjA5Pfo,2020-0188,2021-09-22,10:35:38,11:49:10,NA,incomplete,false,true,NA,3,2,E24_Q10_ansR.png,right,NA,NA,NA,right,1625.60000002384,true,NA,NA,NA,NA,NA
dGjA5Pfo,NA,NA,dGjA5Pfo,2020-0188,2021-09-22,10:35:38,11:49:10,NA,incomplete,false,true,NA,3,3,E24_Q9_ansL.png,left,NA,NA,NA,left,2141.79999995232,true,NA,NA,NA,NA,NA
dGjA5Pfo,NA,NA,dGjA5Pfo,2020-0188,2021-09-22,10:35:38,11:49:10,NA,incomplete,false,true,NA,3,4,E24_Q2_ansR.png,right,NA,NA,NA,right,1623.10000002384,true,NA,NA,NA,NA,NA
dGjA5Pfo,NA,NA,dGjA5Pfo,2020-0188,2021-09-22,10:35:38,11:49:10,NA,incomplete,false,true,NA,3,5,E24_Q4_ansL.png,left,NA,NA,NA,left,1120.10000002384,true,NA,NA,NA,NA,NA
dGjA5Pfo,NA,NA,dGjA5Pfo,2020-0188,2021-09-22,10:35:38,11:49:10,NA,incomplete,false,true,NA,3,6,E24_Q5_ansL.png,left,NA,NA,NA,left,1585.39999997616,true,NA,NA,NA,NA,NA
dGjA5Pfo,NA,NA,dGjA5Pfo,2020-0188,2021-09-22,10:35:38,11:49:10,NA,incomplete,false,true,NA,3,7,E24_Q1_ansR.png,right,NA,NA,NA,right,1236.29999995232,true,NA,NA,NA,NA,NA
dGjA5Pfo,NA,NA,dGjA5Pfo,2020-0188,2021-09-22,10:35:38,11:49:10,NA,incomplete,false,true,NA,3,8,E24_Q8_ansR.png,right,NA,NA,NA,right,1479.5,true,NA,NA,NA,NA,NA
dGjA5Pfo,NA,NA,dGjA5Pfo,2020-0188,2021-09-22,10:35:38,11:49:10,NA,incomplete,false,true,NA,3,9,E24_Q7_ansR.png,right,NA,NA,NA,right,1070.29999995232,true,NA,NA,NA,NA,NA
dGjA5Pfo,NA,NA,dGjA5Pfo,2020-0188,2021-09-22,10:35:38,11:49:10,NA,incomplete,false,true,NA,3,10,E6_Q5_ansR.png,right,NA,NA,NA,right,2034.5,true,NA,NA,NA,NA,NA
dGjA5Pfo,NA,NA,dGjA5Pfo,2020-0188,2021-09-22,10:35:38,11:49:10,NA,incomplete,false,true,NA,3,11,E6_Q9_ansL.png,left,NA,NA,NA,left,1578.20000004768,true,NA,NA,NA,NA,NA
dGjA5Pfo,NA,NA,dGjA5Pfo,2020-0188,2021-09-22,10:35:38,11:49:10,NA,incomplete,false,true,NA,3,12,E6_Q4_ansR.png,right,NA,NA,NA,right,2976.5,true,NA,NA,NA,NA,NA
dGjA5Pfo,NA,NA,dGjA5Pfo,2020-0188,2021-09-22,10:35:38,11:49:10,NA,incomplete,false,true,NA,3,13,E6_Q8_ansL.png,left,NA,NA,NA,left,1126.79999995232,true,NA,NA,NA,NA,NA
dGjA5Pfo,NA,NA,dGjA5Pfo,2020-0188,2021-09-22,10:35:38,11:49:10,NA,incomplete,false,true,NA,3,14,E6_Q10_ansL.png,left,NA,NA,NA,left,1542.80000007153,true,NA,NA,NA,NA,NA
dGjA5Pfo,NA,NA,dGjA5Pfo,2020-0188,2021-09-22,10:35:38,11:49:10,NA,incomplete,false,true,NA,3,15,E6_Q3_ansR.png,right,NA,NA,NA,right,2060.70000004768,true,NA,NA,NA,NA,NA
dGjA5Pfo,NA,NA,dGjA5Pfo,2020-0188,2021-09-22,10:35:38,11:49:10,NA,incomplete,false,true,NA,3,16,E6_Q2_ansL.png,left,NA,NA,NA,left,2075.70000004768,true,NA,NA,NA,NA,NA
dGjA5Pfo,NA,NA,dGjA5Pfo,2020-0188,2021-09-22,10:35:38,11:49:10,NA,incomplete,false,true,NA,3,17,E6_Q1_ansL.png,left,NA,NA,NA,left,1345.30000007153,true,NA,NA,NA,NA,NA
dGjA5Pfo,NA,NA,dGjA5Pfo,2020-0188,2021-09-22,10:35:38,11:49:10,NA,incomplete,false,true,NA,3,18,E6_Q7_ansL.png,left,NA,NA,NA,right,950.399999976158,false,NA,NA,NA,NA,NA
dGjA5Pfo,NA,NA,dGjA5Pfo,2020-0188,2021-09-22,10:35:38,11:49:10,NA,incomplete,false,true,NA,3,19,E6_Q6_ansR.png,right,NA,NA,NA,right,987.299999952316,true,NA,NA,NA,NA,NA
dGjA5Pfo,NA,NA,dGjA5Pfo,2020-0188,2021-09-22,10:35:38,11:49:10,NA,incomplete,false,true,NA,3,20,E14_Q7_ansL.png,left,NA,NA,NA,left,1807.79999995232,true,NA,NA,NA,NA,NA
dGjA5Pfo,NA,NA,dGjA5Pfo,2020-0188,2021-09-22,10:35:38,11:49:10,NA,incomplete,false,true,NA,3,21,E14_Q8_ansL.png,left,NA,NA,NA,left,1222.20000004768,true,NA,NA,NA,NA,NA
dGjA5Pfo,NA,NA,dGjA5Pfo,2020-0188,2021-09-22,10:35:38,11:49:10,NA,incomplete,false,true,NA,3,22,E14_Q9_ansR.png,right,NA,NA,NA,right,820.5,true,NA,NA,NA,NA,NA
dGjA5Pfo,NA,NA,dGjA5Pfo,2020-0188,2021-09-22,10:35:38,11:49:10,NA,incomplete,false,true,NA,3,23,E14_Q10_ansL.png,left,NA,NA,NA,left,992.200000047684,true,NA,NA,NA,NA,NA
dGjA5Pfo,NA,NA,dGjA5Pfo,2020-0188,2021-09-22,10:35:38,11:49:10,NA,incomplete,false,true,NA,3,24,E14_Q1_ansL.png,left,NA,NA,NA,left,1017.19999992847,true,NA,NA,NA,NA,NA
dGjA5Pfo,NA,NA,dGjA5Pfo,2020-0188,2021-09-22,10:35:38,11:49:10,NA,incomplete,false,true,NA,3,25,E14_Q6_ansR.png,right,NA,NA,NA,right,1623.20000004768,true,NA,NA,NA,NA,NA
dGjA5Pfo,NA,NA,dGjA5Pfo,2020-0188,2021-09-22,10:35:38,11:49:10,NA,incomplete,false,true,NA,3,26,E14_Q3_ansR.png,right,NA,NA,NA,right,1092.5,true,NA,NA,NA,NA,NA
dGjA5Pfo,NA,NA,dGjA5Pfo,2020-0188,2021-09-22,10:35:38,11:49:10,NA,incomplete,false,true,NA,3,27,E14_Q5_ansR.png,right,NA,NA,NA,right,1271.69999992847,true,NA,NA,NA,NA,NA
dGjA5Pfo,NA,NA,dGjA5Pfo,2020-0188,2021-09-22,10:35:38,11:49:10,NA,incomplete,false,true,NA,3,28,E14_Q4_ansR.png,right,NA,NA,NA,right,836.800000071526,true,NA,NA,NA,NA,NA
dGjA5Pfo,NA,NA,dGjA5Pfo,2020-0188,2021-09-22,10:35:38,11:49:10,NA,incomplete,false,true,NA,3,29,E14_Q2_ansL.png,left,NA,NA,NA,left,1273.39999997616,true,NA,NA,NA,NA,NA
dGjA5Pfo,NA,NA,dGjA5Pfo,2020-0188,2021-09-22,10:35:38,11:49:10,NA,incomplete,false,NA,true,3,0,NA,left,E6_Q6_ansR.png,E14_Q9_ansR.png,between,NA,NaN,NA,left,1853.8999999761581,1,2,1426.5
dGjA5Pfo,NA,NA,dGjA5Pfo,2020-0188,2021-09-22,10:35:38,11:49:10,NA,incomplete,false,NA,true,3,1,NA,right,E6_Q6_ansR.png,E6_Q2_ansL.png,within,NA,NaN,NA,left,2809.100000023842,0,1,1812.3999999761581
dGjA5Pfo,NA,NA,dGjA5Pfo,2020-0188,2021-09-22,10:35:38,11:49:10,NA,incomplete,false,NA,true,3,2,NA,left,E24_Q2_ansR.png,E24_Q1_ansR.png,within,NA,NaN,NA,left,2577.3000000715256,1,0,1060.1999999284744
dGjA5Pfo,NA,NA,dGjA5Pfo,2020-0188,2021-09-22,10:35:38,11:49:10,NA,incomplete,false,NA,true,3,3,NA,right,E6_Q9_ansL.png,E24_Q8_ansR.png,between,NA,NaN,NA,right,1549.1000000238419,1,2,5060.100000023842
dGjA5Pfo,NA,NA,dGjA5Pfo,2020-0188,2021-09-22,10:35:38,11:49:10,NA,incomplete,false,NA,true,3,4,NA,right,E14_Q10_ansL.png,E14_Q7_ansL.png,within,NA,NaN,NA,right,3276.8000000715256,1,0,2275.5
dGjA5Pfo,NA,NA,dGjA5Pfo,2020-0188,2021-09-22,10:35:38,11:49:10,NA,incomplete,false,NA,true,3,5,NA,right,E6_Q4_ansR.png,E24_Q7_ansR.png,between,NA,NaN,NA,right,3447.2000000476837,1,2,2649.4000000953674
dGjA5Pfo,NA,NA,dGjA5Pfo,2020-0188,2021-09-22,10:35:38,11:49:10,NA,incomplete,false,NA,true,3,6,NA,left,E6_Q7_ansL.png,E14_Q8_ansL.png,between,NA,NaN,NA,left,3047.7000000476837,1,2,5142.200000047684
dGjA5Pfo,NA,NA,dGjA5Pfo,2020-0188,2021-09-22,10:35:38,11:49:10,NA,incomplete,false,NA,true,3,7,NA,right,E24_Q4_ansL.png,E24_Q10_ansR.png,within,NA,NaN,NA,right,5430.100000023842,1,0,6609.5
dGjA5Pfo,NA,NA,dGjA5Pfo,2020-0188,2021-09-22,10:35:38,11:49:10,NA,incomplete,false,NA,true,3,8,NA,right,E6_Q7_ansL.png,E6_Q3_ansR.png,within,NA,NaN,NA,right,5930,1,0,1929.8000000715256
dGjA5Pfo,NA,NA,dGjA5Pfo,2020-0188,2021-09-22,10:35:38,11:49:10,NA,incomplete,false,NA,true,3,9,NA,right,E6_Q2_ansL.png,E6_Q8_ansL.png,within,NA,NaN,NA,left,1887.6999999284744,0,0,1321.6000000238419
dGjA5Pfo,NA,NA,dGjA5Pfo,2020-0188,2021-09-22,10:35:38,11:49:10,NA,incomplete,false,NA,true,3,10,NA,left,E24_Q3_ansL.png,E24_Q9_ansL.png,within,NA,NaN,NA,left,1889.0999999046326,1,0,1044.2000000476837
dGjA5Pfo,NA,NA,dGjA5Pfo,2020-0188,2021-09-22,10:35:38,11:49:10,NA,incomplete,false,NA,true,3,11,NA,right,E24_Q8_ansR.png,E24_Q4_ansL.png,within,NA,NaN,NA,right,4129.600000023842,1,0,1383.8999999761581
dGjA5Pfo,NA,NA,dGjA5Pfo,2020-0188,2021-09-22,10:35:38,11:49:10,NA,incomplete,false,NA,true,3,12,NA,right,E14_Q7_ansL.png,E6_Q1_ansL.png,between,NA,NaN,NA,right,8031.299999952316,1,2,11027
dGjA5Pfo,NA,NA,dGjA5Pfo,2020-0188,2021-09-22,10:35:38,11:49:10,NA,incomplete,false,NA,true,3,13,NA,right,E6_Q5_ansR.png,E24_Q1_ansR.png,between,NA,NaN,NA,right,1518.5,1,2,1148.7999999523163
dGjA5Pfo,NA,NA,dGjA5Pfo,2020-0188,2021-09-22,10:35:38,11:49:10,NA,incomplete,false,NA,true,3,14,NA,left,E24_Q9_ansL.png,E24_Q5_ansL.png,within,NA,NaN,NA,right,1276.7999999523163,0,0,1690.5
dGjA5Pfo,NA,NA,dGjA5Pfo,2020-0188,2021-09-22,10:35:38,11:49:10,NA,incomplete,false,NA,true,3,15,NA,right,E14_Q1_ansL.png,E14_Q8_ansL.png,within,NA,NaN,NA,right,2153.3000000715256,1,0,1305.6000000238419
dGjA5Pfo,NA,NA,dGjA5Pfo,2020-0188,2021-09-22,10:35:38,11:49:10,NA,incomplete,false,NA,true,3,16,NA,left,E14_Q6_ansR.png,E14_Q4_ansR.png,within,NA,NaN,NA,left,2175.7000000476837,1,0,1396.5
dGjA5Pfo,NA,NA,dGjA5Pfo,2020-0188,2021-09-22,10:35:38,11:49:10,NA,incomplete,false,NA,true,3,17,NA,left,E6_Q4_ansR.png,E6_Q3_ansR.png,within,NA,NaN,NA,left,1641.7999999523163,1,1,2003.5999999046326
dGjA5Pfo,NA,NA,dGjA5Pfo,2020-0188,2021-09-22,10:35:38,11:49:10,NA,incomplete,false,NA,true,3,18,NA,left,E14_Q9_ansR.png,E14_Q6_ansR.png,within,NA,NaN,NA,left,2102.600000023842,1,0,1386.7000000476837
dGjA5Pfo,NA,NA,dGjA5Pfo,2020-0188,2021-09-22,10:35:38,11:49:10,NA,incomplete,false,NA,true,3,19,NA,right,E14_Q5_ansR.png,E14_Q1_ansL.png,within,NA,NaN,NA,left,3425,0,0,3624.1999999284744
dGjA5Pfo,NA,NA,dGjA5Pfo,2020-0188,2021-09-22,10:35:38,11:49:10,NA,incomplete,false,NA,true,3,20,NA,right,E6_Q1_ansL.png,E6_Q10_ansL.png,within,NA,NaN,NA,left,2817.5,0,0,2028.2999999523163
dGjA5Pfo,NA,NA,dGjA5Pfo,2020-0188,2021-09-22,10:35:38,11:49:10,NA,incomplete,false,NA,true,3,21,NA,left,E14_Q10_ansL.png,E14_Q3_ansR.png,within,NA,NaN,NA,right,3893.899999976158,0,0,1496.5
dGjA5Pfo,NA,NA,dGjA5Pfo,2020-0188,2021-09-22,10:35:38,11:49:10,NA,incomplete,false,NA,true,3,22,NA,right,E6_Q8_ansL.png,E6_Q5_ansR.png,within,NA,NaN,NA,left,1518.4000000953674,0,0,1896.6999999284744
dGjA5Pfo,NA,NA,dGjA5Pfo,2020-0188,2021-09-22,10:35:38,11:49:10,NA,incomplete,false,NA,true,3,23,NA,right,E24_Q2_ansR.png,E24_Q6_ansL.png,within,NA,NaN,NA,right,3471.7999999523163,1,0,2751.1999999284744
dGjA5Pfo,NA,NA,dGjA5Pfo,2020-0188,2021-09-22,10:35:38,11:49:10,NA,incomplete,false,NA,true,3,24,NA,right,E6_Q10_ansL.png,E6_Q9_ansL.png,within,NA,NaN,NA,right,1461.5,1,0,983
dGjA5Pfo,NA,NA,dGjA5Pfo,2020-0188,2021-09-22,10:35:38,11:49:10,NA,incomplete,false,NA,true,3,25,NA,left,E14_Q3_ansR.png,E14_Q2_ansL.png,within,NA,NaN,NA,right,1460.3000000715256,0,0,2824.4000000953674
dGjA5Pfo,NA,NA,dGjA5Pfo,2020-0188,2021-09-22,10:35:38,11:49:10,NA,incomplete,false,NA,true,3,26,NA,right,E24_Q7_ansR.png,E24_Q5_ansL.png,within,NA,NaN,NA,right,1650.5,1,0,1771.7999999523163
dGjA5Pfo,NA,NA,dGjA5Pfo,2020-0188,2021-09-22,10:35:38,11:49:10,NA,incomplete,false,true,NA,4,0,E1_Q5_ansR.png,right,NA,NA,NA,right,1726.39999997616,true,NA,NA,NA,NA,NA
dGjA5Pfo,NA,NA,dGjA5Pfo,2020-0188,2021-09-22,10:35:38,11:49:10,NA,incomplete,false,true,NA,4,1,E1_Q10_ansR.png,right,NA,NA,NA,right,861.200000047684,true,NA,NA,NA,NA,NA
dGjA5Pfo,NA,NA,dGjA5Pfo,2020-0188,2021-09-22,10:35:38,11:49:10,NA,incomplete,false,true,NA,4,2,E1_Q2_ansL.png,left,NA,NA,NA,left,1341,true,NA,NA,NA,NA,NA
dGjA5Pfo,NA,NA,dGjA5Pfo,2020-0188,2021-09-22,10:35:38,11:49:10,NA,incomplete,false,true,NA,4,3,E1_Q6_ansR.png,right,NA,NA,NA,right,793.5,true,NA,NA,NA,NA,NA
dGjA5Pfo,NA,NA,dGjA5Pfo,2020-0188,2021-09-22,10:35:38,11:49:10,NA,incomplete,false,true,NA,4,4,E1_Q9_ansL.png,left,NA,NA,NA,left,743.799999952316,true,NA,NA,NA,NA,NA
dGjA5Pfo,NA,NA,dGjA5Pfo,2020-0188,2021-09-22,10:35:38,11:49:10,NA,incomplete,false,true,NA,4,5,E1_Q7_ansL.png,left,NA,NA,NA,left,688.699999928474,true,NA,NA,NA,NA,NA
dGjA5Pfo,NA,NA,dGjA5Pfo,2020-0188,2021-09-22,10:35:38,11:49:10,NA,incomplete,false,true,NA,4,6,E1_Q8_ansR.png,right,NA,NA,NA,right,741.299999952316,true,NA,NA,NA,NA,NA
dGjA5Pfo,NA,NA,dGjA5Pfo,2020-0188,2021-09-22,10:35:38,11:49:10,NA,incomplete,false,true,NA,4,7,E1_Q1_ansL.png,left,NA,NA,NA,left,866.200000047684,true,NA,NA,NA,NA,NA
dGjA5Pfo,NA,NA,dGjA5Pfo,2020-0188,2021-09-22,10:35:38,11:49:10,NA,incomplete,false,true,NA,4,8,E1_Q3_ansR.png,right,NA,NA,NA,right,1163.80000007153,true,NA,NA,NA,NA,NA
dGjA5Pfo,NA,NA,dGjA5Pfo,2020-0188,2021-09-22,10:35:38,11:49:10,NA,incomplete,false,true,NA,4,9,E1_Q4_ansL.png,left,NA,NA,NA,left,1631.60000002384,true,NA,NA,NA,NA,NA
dGjA5Pfo,NA,NA,dGjA5Pfo,2020-0188,2021-09-22,10:35:38,11:49:10,NA,incomplete,false,true,NA,4,10,E16_Q6_ansL.png,left,NA,NA,NA,left,1547.30000007153,true,NA,NA,NA,NA,NA
dGjA5Pfo,NA,NA,dGjA5Pfo,2020-0188,2021-09-22,10:35:38,11:49:10,NA,incomplete,false,true,NA,4,11,E16_Q5_ansL.png,left,NA,NA,NA,left,1372.29999995232,true,NA,NA,NA,NA,NA
dGjA5Pfo,NA,NA,dGjA5Pfo,2020-0188,2021-09-22,10:35:38,11:49:10,NA,incomplete,false,true,NA,4,12,E16_Q8_ansR.png,right,NA,NA,NA,right,1183.60000002384,true,NA,NA,NA,NA,NA
dGjA5Pfo,NA,NA,dGjA5Pfo,2020-0188,2021-09-22,10:35:38,11:49:10,NA,incomplete,false,true,NA,4,13,E16_Q1_ansR.png,right,NA,NA,NA,right,1691.29999995232,true,NA,NA,NA,NA,NA
dGjA5Pfo,NA,NA,dGjA5Pfo,2020-0188,2021-09-22,10:35:38,11:49:10,NA,incomplete,false,true,NA,4,14,E16_Q2_ansR.png,right,NA,NA,NA,right,812.100000023842,true,NA,NA,NA,NA,NA
dGjA5Pfo,NA,NA,dGjA5Pfo,2020-0188,2021-09-22,10:35:38,11:49:10,NA,incomplete,false,true,NA,4,15,E16_Q10_ansR.png,right,NA,NA,NA,right,926.5,true,NA,NA,NA,NA,NA
dGjA5Pfo,NA,NA,dGjA5Pfo,2020-0188,2021-09-22,10:35:38,11:49:10,NA,incomplete,false,true,NA,4,16,E16_Q9_ansL.png,left,NA,NA,NA,left,802.200000047684,true,NA,NA,NA,NA,NA
dGjA5Pfo,NA,NA,dGjA5Pfo,2020-0188,2021-09-22,10:35:38,11:49:10,NA,incomplete,false,true,NA,4,17,E16_Q7_ansR.png,right,NA,NA,NA,right,1392,true,NA,NA,NA,NA,NA
dGjA5Pfo,NA,NA,dGjA5Pfo,2020-0188,2021-09-22,10:35:38,11:49:10,NA,incomplete,false,true,NA,4,18,E16_Q3_ansL.png,left,NA,NA,NA,left,1514.70000004768,true,NA,NA,NA,NA,NA
dGjA5Pfo,NA,NA,dGjA5Pfo,2020-0188,2021-09-22,10:35:38,11:49:10,NA,incomplete,false,true,NA,4,19,E16_Q4_ansL.png,left,NA,NA,NA,left,829.100000023842,true,NA,NA,NA,NA,NA
dGjA5Pfo,NA,NA,dGjA5Pfo,2020-0188,2021-09-22,10:35:38,11:49:10,NA,incomplete,false,true,NA,4,20,E8_Q6_ansL.png,left,NA,NA,NA,left,1569.89999997616,true,NA,NA,NA,NA,NA
dGjA5Pfo,NA,NA,dGjA5Pfo,2020-0188,2021-09-22,10:35:38,11:49:10,NA,incomplete,false,true,NA,4,21,E8_Q10_ansR.png,right,NA,NA,NA,right,2169.09999990463,true,NA,NA,NA,NA,NA
dGjA5Pfo,NA,NA,dGjA5Pfo,2020-0188,2021-09-22,10:35:38,11:49:10,NA,incomplete,false,true,NA,4,22,E8_Q3_ansL.png,left,NA,NA,NA,left,1255.69999992847,true,NA,NA,NA,NA,NA
dGjA5Pfo,NA,NA,dGjA5Pfo,2020-0188,2021-09-22,10:35:38,11:49:10,NA,incomplete,false,true,NA,4,23,E8_Q1_ansR.png,right,NA,NA,NA,right,1118.30000007153,true,NA,NA,NA,NA,NA
dGjA5Pfo,NA,NA,dGjA5Pfo,2020-0188,2021-09-22,10:35:38,11:49:10,NA,incomplete,false,true,NA,4,24,E8_Q7_ansR.png,right,NA,NA,NA,right,1561.5,true,NA,NA,NA,NA,NA
dGjA5Pfo,NA,NA,dGjA5Pfo,2020-0188,2021-09-22,10:35:38,11:49:10,NA,incomplete,false,true,NA,4,25,E8_Q9_ansL.png,left,NA,NA,NA,left,1134.30000007153,true,NA,NA,NA,NA,NA
dGjA5Pfo,NA,NA,dGjA5Pfo,2020-0188,2021-09-22,10:35:38,11:49:10,NA,incomplete,false,true,NA,4,26,E8_Q5_ansL.png,left,NA,NA,NA,left,1307.19999992847,true,NA,NA,NA,NA,NA
dGjA5Pfo,NA,NA,dGjA5Pfo,2020-0188,2021-09-22,10:35:38,11:49:10,NA,incomplete,false,true,NA,4,27,E8_Q2_ansR.png,right,NA,NA,NA,right,1968.20000004768,true,NA,NA,NA,NA,NA
dGjA5Pfo,NA,NA,dGjA5Pfo,2020-0188,2021-09-22,10:35:38,11:49:10,NA,incomplete,false,true,NA,4,28,E8_Q8_ansR.png,right,NA,NA,NA,right,2281.20000004768,true,NA,NA,NA,NA,NA
dGjA5Pfo,NA,NA,dGjA5Pfo,2020-0188,2021-09-22,10:35:38,11:49:10,NA,incomplete,false,true,NA,4,29,E8_Q4_ansL.png,left,NA,NA,NA,left,1424.69999992847,true,NA,NA,NA,NA,NA
dGjA5Pfo,NA,NA,dGjA5Pfo,2020-0188,2021-09-22,10:35:38,11:49:10,NA,incomplete,false,NA,true,4,0,NA,right,E1_Q3_ansR.png,E1_Q7_ansL.png,within,NA,NaN,NA,left,2181.3000000715256,0,0,1332.2000000476837
dGjA5Pfo,NA,NA,dGjA5Pfo,2020-0188,2021-09-22,10:35:38,11:49:10,NA,incomplete,false,NA,true,4,1,NA,right,E16_Q2_ansR.png,E16_Q5_ansL.png,within,NA,NaN,NA,right,2272.100000023842,1,0,1113.8999999761581
dGjA5Pfo,NA,NA,dGjA5Pfo,2020-0188,2021-09-22,10:35:38,11:49:10,NA,incomplete,false,NA,true,4,2,NA,left,E8_Q3_ansL.png,E8_Q9_ansL.png,within,NA,NaN,NA,left,1888.8999999761581,1,0,1239.2000000476837
dGjA5Pfo,NA,NA,dGjA5Pfo,2020-0188,2021-09-22,10:35:38,11:49:10,NA,incomplete,false,NA,true,4,3,NA,right,E8_Q10_ansR.png,E16_Q3_ansL.png,between,NA,NaN,NA,right,1312.7999999523163,1,2,1920.7999999523163
dGjA5Pfo,NA,NA,dGjA5Pfo,2020-0188,2021-09-22,10:35:38,11:49:10,NA,incomplete,false,NA,true,4,4,NA,right,E8_Q6_ansL.png,E16_Q7_ansR.png,between,NA,NaN,NA,right,1328.1000000238419,1,2,1634.3999999761581
dGjA5Pfo,NA,NA,dGjA5Pfo,2020-0188,2021-09-22,10:35:38,11:49:10,NA,incomplete,false,NA,true,4,5,NA,left,E1_Q3_ansR.png,E16_Q5_ansL.png,between,NA,NaN,NA,left,1445.1000000238419,1,2,1411.5
dGjA5Pfo,NA,NA,dGjA5Pfo,2020-0188,2021-09-22,10:35:38,11:49:10,NA,incomplete,false,NA,true,4,6,NA,right,E1_Q7_ansL.png,E1_Q2_ansL.png,within,NA,NaN,NA,right,3463.7000000476837,1,0,1106.6000000238419
dGjA5Pfo,NA,NA,dGjA5Pfo,2020-0188,2021-09-22,10:35:38,11:49:10,NA,incomplete,false,NA,true,4,7,NA,right,E16_Q9_ansL.png,E16_Q1_ansR.png,within,NA,NaN,NA,right,2249.100000023842,1,0,989.7000000476837
dGjA5Pfo,NA,NA,dGjA5Pfo,2020-0188,2021-09-22,10:35:38,11:49:10,NA,incomplete,false,NA,true,4,8,NA,left,E16_Q10_ansR.png,E16_Q3_ansL.png,within,NA,NaN,NA,left,1502,1,1,1139.5999999046326
dGjA5Pfo,NA,NA,dGjA5Pfo,2020-0188,2021-09-22,10:35:38,11:49:10,NA,incomplete,false,NA,true,4,9,NA,right,E1_Q8_ansR.png,E1_Q6_ansR.png,within,NA,NaN,NA,left,3130.5999999046326,0,0,811.8999999761581
dGjA5Pfo,NA,NA,dGjA5Pfo,2020-0188,2021-09-22,10:35:38,11:49:10,NA,incomplete,false,NA,true,4,10,NA,left,E1_Q10_ansR.png,E1_Q9_ansL.png,within,NA,NaN,NA,right,1373.2999999523163,0,0,1070.1999999284744
dGjA5Pfo,NA,NA,dGjA5Pfo,2020-0188,2021-09-22,10:35:38,11:49:10,NA,incomplete,false,NA,true,4,11,NA,left,E16_Q8_ansR.png,E16_Q10_ansR.png,within,NA,NaN,NA,left,1667.5999999046326,1,0,1058.8000000715256
dGjA5Pfo,NA,NA,dGjA5Pfo,2020-0188,2021-09-22,10:35:38,11:49:10,NA,incomplete,false,NA,true,4,12,NA,right,E16_Q4_ansL.png,E16_Q9_ansL.png,within,NA,NaN,NA,right,2817.1999999284744,1,0,1260.1999999284744
dGjA5Pfo,NA,NA,dGjA5Pfo,2020-0188,2021-09-22,10:35:38,11:49:10,NA,incomplete,false,NA,true,4,13,NA,left,E8_Q9_ansL.png,E8_Q8_ansR.png,within,NA,NaN,NA,right,3621.100000023842,0,0,1189.7000000476837
dGjA5Pfo,NA,NA,dGjA5Pfo,2020-0188,2021-09-22,10:35:38,11:49:10,NA,incomplete,false,NA,true,4,14,NA,left,E8_Q1_ansR.png,E8_Q5_ansL.png,within,NA,NaN,NA,left,2734.4000000953674,1,1,1009.2000000476837
dGjA5Pfo,NA,NA,dGjA5Pfo,2020-0188,2021-09-22,10:35:38,11:49:10,NA,incomplete,false,NA,true,4,15,NA,right,E8_Q4_ansL.png,E8_Q5_ansL.png,within,NA,NaN,NA,right,1633.3999999761581,1,1,871
dGjA5Pfo,NA,NA,dGjA5Pfo,2020-0188,2021-09-22,10:35:38,11:49:10,NA,incomplete,false,NA,true,4,16,NA,left,E8_Q6_ansL.png,E8_Q1_ansR.png,within,NA,NaN,NA,left,4485.299999952316,1,1,1939.3999999761581
dGjA5Pfo,NA,NA,dGjA5Pfo,2020-0188,2021-09-22,10:35:38,11:49:10,NA,incomplete,false,NA,true,4,17,NA,left,E16_Q6_ansL.png,E16_Q1_ansR.png,within,NA,NaN,NA,left,1700,1,0,1707.6999999284744
dGjA5Pfo,NA,NA,dGjA5Pfo,2020-0188,2021-09-22,10:35:38,11:49:10,NA,incomplete,false,NA,true,4,18,NA,right,E1_Q1_ansL.png,E1_Q9_ansL.png,within,NA,NaN,NA,left,5101.5,0,0,2087.5
dGjA5Pfo,NA,NA,dGjA5Pfo,2020-0188,2021-09-22,10:35:38,11:49:10,NA,incomplete,false,NA,true,4,19,NA,right,E8_Q7_ansR.png,E8_Q10_ansR.png,within,NA,NaN,NA,right,4238.399999976158,1,0,1026
dGjA5Pfo,NA,NA,dGjA5Pfo,2020-0188,2021-09-22,10:35:38,11:49:10,NA,incomplete,false,NA,true,4,20,NA,left,E1_Q4_ansL.png,E16_Q8_ansR.png,between,NA,NaN,NA,left,1700.1000000238419,1,2,4638.299999952316
dGjA5Pfo,NA,NA,dGjA5Pfo,2020-0188,2021-09-22,10:35:38,11:49:10,NA,incomplete,false,NA,true,4,21,NA,right,E16_Q6_ansL.png,E1_Q1_ansL.png,between,NA,NaN,NA,right,1756.8999999761581,1,2,1463.2999999523163
dGjA5Pfo,NA,NA,dGjA5Pfo,2020-0188,2021-09-22,10:35:38,11:49:10,NA,incomplete,false,NA,true,4,22,NA,right,E1_Q6_ansR.png,E1_Q5_ansR.png,within,NA,NaN,NA,right,2249.8000000715256,1,2,2184
dGjA5Pfo,NA,NA,dGjA5Pfo,2020-0188,2021-09-22,10:35:38,11:49:10,NA,incomplete,false,NA,true,4,23,NA,left,E1_Q8_ansR.png,E1_Q4_ansL.png,within,NA,NaN,NA,left,2217.6999999284744,1,0,2372.7999999523163
dGjA5Pfo,NA,NA,dGjA5Pfo,2020-0188,2021-09-22,10:35:38,11:49:10,NA,incomplete,false,NA,true,4,24,NA,left,E8_Q7_ansR.png,E8_Q2_ansR.png,within,NA,NaN,NA,right,2373.399999976158,0,0,1683.8999999761581
dGjA5Pfo,NA,NA,dGjA5Pfo,2020-0188,2021-09-22,10:35:38,11:49:10,NA,incomplete,false,NA,true,4,25,NA,right,E16_Q7_ansR.png,E16_Q2_ansR.png,within,NA,NaN,NA,left,1840.5,0,0,3695.899999976158
dGjA5Pfo,NA,NA,dGjA5Pfo,2020-0188,2021-09-22,10:35:38,11:49:10,NA,incomplete,false,NA,true,4,26,NA,left,E16_Q4_ansL.png,E8_Q3_ansL.png,between,NA,NaN,NA,right,1739.2999999523163,0,2,1683.2999999523163
dGjA5Pfo,NA,NA,dGjA5Pfo,2020-0188,2021-09-22,10:35:38,11:49:10,NA,incomplete,false,true,NA,5,0,E20_Q2_ansL.png,left,NA,NA,NA,left,3193.19999992847,true,NA,NA,NA,NA,NA
dGjA5Pfo,NA,NA,dGjA5Pfo,2020-0188,2021-09-22,10:35:38,11:49:10,NA,incomplete,false,true,NA,5,1,E20_Q8_ansL.png,left,NA,NA,NA,left,1869.89999997616,true,NA,NA,NA,NA,NA
dGjA5Pfo,NA,NA,dGjA5Pfo,2020-0188,2021-09-22,10:35:38,11:49:10,NA,incomplete,false,true,NA,5,2,E20_Q7_ansL.png,left,NA,NA,NA,left,1156.70000004768,true,NA,NA,NA,NA,NA
dGjA5Pfo,NA,NA,dGjA5Pfo,2020-0188,2021-09-22,10:35:38,11:49:10,NA,incomplete,false,true,NA,5,3,E20_Q10_ansL.png,left,NA,NA,NA,left,1329.20000004768,true,NA,NA,NA,NA,NA
dGjA5Pfo,NA,NA,dGjA5Pfo,2020-0188,2021-09-22,10:35:38,11:49:10,NA,incomplete,false,true,NA,5,4,E20_Q3_ansR.png,right,NA,NA,NA,left,3456.39999997616,false,NA,NA,NA,NA,NA
dGjA5Pfo,NA,NA,dGjA5Pfo,2020-0188,2021-09-22,10:35:38,11:49:10,NA,incomplete,false,true,NA,5,5,E20_Q9_ansR.png,right,NA,NA,NA,right,1037.70000004768,true,NA,NA,NA,NA,NA
dGjA5Pfo,NA,NA,dGjA5Pfo,2020-0188,2021-09-22,10:35:38,11:49:10,NA,incomplete,false,true,NA,5,6,E20_Q6_ansR.png,right,NA,NA,NA,right,1459.5,true,NA,NA,NA,NA,NA
dGjA5Pfo,NA,NA,dGjA5Pfo,2020-0188,2021-09-22,10:35:38,11:49:10,NA,incomplete,false,true,NA,5,7,E20_Q4_ansR.png,right,NA,NA,NA,right,1671.80000007153,true,NA,NA,NA,NA,NA
dGjA5Pfo,NA,NA,dGjA5Pfo,2020-0188,2021-09-22,10:35:38,11:49:10,NA,incomplete,false,true,NA,5,8,E20_Q5_ansR.png,right,NA,NA,NA,right,2111.5,true,NA,NA,NA,NA,NA
dGjA5Pfo,NA,NA,dGjA5Pfo,2020-0188,2021-09-22,10:35:38,11:49:10,NA,incomplete,false,true,NA,5,9,E20_Q1_ansL.png,left,NA,NA,NA,right,1943,false,NA,NA,NA,NA,NA
dGjA5Pfo,NA,NA,dGjA5Pfo,2020-0188,2021-09-22,10:35:38,11:49:10,NA,incomplete,false,true,NA,5,10,E23_Q5_ansR.png,right,NA,NA,NA,right,2235.70000004768,true,NA,NA,NA,NA,NA
dGjA5Pfo,NA,NA,dGjA5Pfo,2020-0188,2021-09-22,10:35:38,11:49:10,NA,incomplete,false,true,NA,5,11,E23_Q2_ansL.png,left,NA,NA,NA,left,1109.19999992847,true,NA,NA,NA,NA,NA
dGjA5Pfo,NA,NA,dGjA5Pfo,2020-0188,2021-09-22,10:35:38,11:49:10,NA,incomplete,false,true,NA,5,12,E23_Q7_ansL.png,left,NA,NA,NA,left,1981.79999995232,true,NA,NA,NA,NA,NA
dGjA5Pfo,NA,NA,dGjA5Pfo,2020-0188,2021-09-22,10:35:38,11:49:10,NA,incomplete,false,true,NA,5,13,E23_Q6_ansR.png,right,NA,NA,NA,right,1470.89999997616,true,NA,NA,NA,NA,NA
dGjA5Pfo,NA,NA,dGjA5Pfo,2020-0188,2021-09-22,10:35:38,11:49:10,NA,incomplete,false,true,NA,5,14,E23_Q10_ansL.png,left,NA,NA,NA,left,1254.70000004768,true,NA,NA,NA,NA,NA
dGjA5Pfo,NA,NA,dGjA5Pfo,2020-0188,2021-09-22,10:35:38,11:49:10,NA,incomplete,false,true,NA,5,15,E23_Q1_ansL.png,left,NA,NA,NA,left,1687,true,NA,NA,NA,NA,NA
dGjA5Pfo,NA,NA,dGjA5Pfo,2020-0188,2021-09-22,10:35:38,11:49:10,NA,incomplete,false,true,NA,5,16,E23_Q4_ansR.png,right,NA,NA,NA,right,1551.90000009537,true,NA,NA,NA,NA,NA
dGjA5Pfo,NA,NA,dGjA5Pfo,2020-0188,2021-09-22,10:35:38,11:49:10,NA,incomplete,false,true,NA,5,17,E23_Q9_ansR.png,right,NA,NA,NA,right,1642.5,true,NA,NA,NA,NA,NA
dGjA5Pfo,NA,NA,dGjA5Pfo,2020-0188,2021-09-22,10:35:38,11:49:10,NA,incomplete,false,true,NA,5,18,E23_Q3_ansR.png,right,NA,NA,NA,right,1162.30000007153,true,NA,NA,NA,NA,NA
dGjA5Pfo,NA,NA,dGjA5Pfo,2020-0188,2021-09-22,10:35:38,11:49:10,NA,incomplete,false,true,NA,5,19,E23_Q8_ansL.png,left,NA,NA,NA,left,1514.5,true,NA,NA,NA,NA,NA
dGjA5Pfo,NA,NA,dGjA5Pfo,2020-0188,2021-09-22,10:35:38,11:49:10,NA,incomplete,false,true,NA,5,20,E30_Q8_ansL.png,left,NA,NA,NA,none,0,false,NA,NA,NA,NA,NA
dGjA5Pfo,NA,NA,dGjA5Pfo,2020-0188,2021-09-22,10:35:38,11:49:10,NA,incomplete,false,true,NA,5,21,E30_Q9_ansL.png,left,NA,NA,NA,left,2354.20000004768,true,NA,NA,NA,NA,NA
dGjA5Pfo,NA,NA,dGjA5Pfo,2020-0188,2021-09-22,10:35:38,11:49:10,NA,incomplete,false,true,NA,5,22,E30_Q2_ansL.png,left,NA,NA,NA,left,2442.79999995232,true,NA,NA,NA,NA,NA
dGjA5Pfo,NA,NA,dGjA5Pfo,2020-0188,2021-09-22,10:35:38,11:49:10,NA,incomplete,false,true,NA,5,23,E30_Q10_ansR.png,right,NA,NA,NA,right,2151.30000007153,true,NA,NA,NA,NA,NA
dGjA5Pfo,NA,NA,dGjA5Pfo,2020-0188,2021-09-22,10:35:38,11:49:10,NA,incomplete,false,true,NA,5,24,E30_Q7_ansL.png,left,NA,NA,NA,right,1834.5,false,NA,NA,NA,NA,NA
dGjA5Pfo,NA,NA,dGjA5Pfo,2020-0188,2021-09-22,10:35:38,11:49:10,NA,incomplete,false,true,NA,5,25,E30_Q4_ansL.png,left,NA,NA,NA,left,1664.5,true,NA,NA,NA,NA,NA
dGjA5Pfo,NA,NA,dGjA5Pfo,2020-0188,2021-09-22,10:35:38,11:49:10,NA,incomplete,false,true,NA,5,26,E30_Q5_ansR.png,right,NA,NA,NA,right,1248.10000002384,true,NA,NA,NA,NA,NA
dGjA5Pfo,NA,NA,dGjA5Pfo,2020-0188,2021-09-22,10:35:38,11:49:10,NA,incomplete,false,true,NA,5,27,E30_Q6_ansR.png,right,NA,NA,NA,right,1503.89999997616,true,NA,NA,NA,NA,NA
dGjA5Pfo,NA,NA,dGjA5Pfo,2020-0188,2021-09-22,10:35:38,11:49:10,NA,incomplete,false,true,NA,5,28,E30_Q3_ansL.png,left,NA,NA,NA,left,1718.80000007153,true,NA,NA,NA,NA,NA
dGjA5Pfo,NA,NA,dGjA5Pfo,2020-0188,2021-09-22,10:35:38,11:49:10,NA,incomplete,false,true,NA,5,29,E30_Q1_ansL.png,left,NA,NA,NA,left,2063.90000009537,true,NA,NA,NA,NA,NA
dGjA5Pfo,NA,NA,dGjA5Pfo,2020-0188,2021-09-22,10:35:38,11:49:10,NA,incomplete,false,NA,true,5,0,NA,right,E30_Q7_ansL.png,E30_Q9_ansL.png,within,NA,NaN,NA,right,3402.7000000476837,1,0,1641
dGjA5Pfo,NA,NA,dGjA5Pfo,2020-0188,2021-09-22,10:35:38,11:49:10,NA,incomplete,false,NA,true,5,1,NA,right,E23_Q1_ansL.png,E23_Q7_ansL.png,within,NA,NaN,NA,left,1453.7999999523163,0,0,1053
dGjA5Pfo,NA,NA,dGjA5Pfo,2020-0188,2021-09-22,10:35:38,11:49:10,NA,incomplete,false,NA,true,5,2,NA,left,E20_Q9_ansR.png,E20_Q5_ansR.png,within,NA,NaN,NA,left,2003.7000000476837,1,0,2118.7000000476837
dGjA5Pfo,NA,NA,dGjA5Pfo,2020-0188,2021-09-22,10:35:38,11:49:10,NA,incomplete,false,NA,true,5,3,NA,left,E23_Q5_ansR.png,E23_Q6_ansR.png,within,NA,NaN,NA,left,1494.3000000715256,1,1,3260.399999976158
dGjA5Pfo,NA,NA,dGjA5Pfo,2020-0188,2021-09-22,10:35:38,11:49:10,NA,incomplete,false,NA,true,5,4,NA,left,E30_Q8_ansL.png,E30_Q10_ansR.png,within,NA,NaN,NA,left,2937.899999976158,1,0,2853.600000023842
dGjA5Pfo,NA,NA,dGjA5Pfo,2020-0188,2021-09-22,10:35:38,11:49:10,NA,incomplete,false,NA,true,5,5,NA,right,E23_Q8_ansL.png,E23_Q4_ansR.png,within,NA,NaN,NA,right,2874,1,0,1663.7999999523163
dGjA5Pfo,NA,NA,dGjA5Pfo,2020-0188,2021-09-22,10:35:38,11:49:10,NA,incomplete,false,NA,true,5,6,NA,left,E20_Q1_ansL.png,E23_Q7_ansL.png,between,NA,NaN,NA,left,1987.7000000476837,1,2,1301.7999999523163
dGjA5Pfo,NA,NA,dGjA5Pfo,2020-0188,2021-09-22,10:35:38,11:49:10,NA,incomplete,false,NA,true,5,7,NA,right,E23_Q3_ansR.png,E23_Q1_ansL.png,within,NA,NaN,NA,right,2874.399999976158,1,0,1635.3999999761581
dGjA5Pfo,NA,NA,dGjA5Pfo,2020-0188,2021-09-22,10:35:38,11:49:10,NA,incomplete,false,NA,true,5,8,NA,right,E30_Q1_ansL.png,E30_Q5_ansR.png,within,NA,NaN,NA,right,5314.399999976158,1,0,5373.399999976158
dGjA5Pfo,NA,NA,dGjA5Pfo,2020-0188,2021-09-22,10:35:38,11:49:10,NA,incomplete,false,NA,true,5,9,NA,right,E23_Q5_ansR.png,E20_Q4_ansR.png,between,NA,NaN,NA,right,1296.6999999284744,1,2,1124.2000000476837
dGjA5Pfo,NA,NA,dGjA5Pfo,2020-0188,2021-09-22,10:35:38,11:49:10,NA,incomplete,false,NA,true,5,10,NA,left,E30_Q4_ansL.png,E30_Q3_ansL.png,within,NA,NaN,NA,left,2373.600000023842,1,0,1260.8999999761581
dGjA5Pfo,NA,NA,dGjA5Pfo,2020-0188,2021-09-22,10:35:38,11:49:10,NA,incomplete,false,NA,true,5,11,NA,right,E30_Q2_ansL.png,E23_Q8_ansL.png,between,NA,NaN,NA,right,3555.9000000953674,1,2,1746.4000000953674
dGjA5Pfo,NA,NA,dGjA5Pfo,2020-0188,2021-09-22,10:35:38,11:49:10,NA,incomplete,false,NA,true,5,12,NA,right,E20_Q6_ansR.png,E20_Q10_ansL.png,within,NA,NaN,NA,right,2332.5,1,0,3541.8000000715256
dGjA5Pfo,NA,NA,dGjA5Pfo,2020-0188,2021-09-22,10:35:38,11:49:10,NA,incomplete,false,NA,true,5,13,NA,right,E20_Q4_ansR.png,E20_Q3_ansR.png,within,NA,NaN,NA,right,2584.5,1,0,1913.2000000476837
dGjA5Pfo,NA,NA,dGjA5Pfo,2020-0188,2021-09-22,10:35:38,11:49:10,NA,incomplete,false,NA,true,5,14,NA,right,E30_Q4_ansL.png,E30_Q2_ansL.png,within,NA,NaN,NA,right,2324.0999999046326,1,0,1305.2000000476837
dGjA5Pfo,NA,NA,dGjA5Pfo,2020-0188,2021-09-22,10:35:38,11:49:10,NA,incomplete,false,NA,true,5,15,NA,right,E23_Q4_ansR.png,E23_Q6_ansR.png,within,NA,NaN,NA,left,1617.5,0,0,7385.200000047684
dGjA5Pfo,NA,NA,dGjA5Pfo,2020-0188,2021-09-22,10:35:38,11:49:10,NA,incomplete,false,NA,true,5,16,NA,right,E23_Q2_ansL.png,E20_Q5_ansR.png,between,NA,NaN,NA,right,1880.7000000476837,1,2,1362.8000000715256
dGjA5Pfo,NA,NA,dGjA5Pfo,2020-0188,2021-09-22,10:35:38,11:49:10,NA,incomplete,false,NA,true,5,17,NA,left,E23_Q3_ansR.png,E30_Q9_ansL.png,between,NA,NaN,NA,left,2744,1,2,1790.3000000715256
dGjA5Pfo,NA,NA,dGjA5Pfo,2020-0188,2021-09-22,10:35:38,11:49:10,NA,incomplete,false,NA,true,5,18,NA,right,E20_Q1_ansL.png,E20_Q6_ansR.png,within,NA,NaN,NA,left,2446.399999976158,0,0,3401
dGjA5Pfo,NA,NA,dGjA5Pfo,2020-0188,2021-09-22,10:35:38,11:49:10,NA,incomplete,false,NA,true,5,19,NA,right,E20_Q3_ansR.png,E20_Q8_ansL.png,within,NA,NaN,NA,left,1331,0,0,1227.1999999284744
dGjA5Pfo,NA,NA,dGjA5Pfo,2020-0188,2021-09-22,10:35:38,11:49:10,NA,incomplete,false,NA,true,5,20,NA,right,E30_Q6_ansR.png,E30_Q7_ansL.png,within,NA,NaN,NA,left,1993.3999999761581,0,0,1264.5
dGjA5Pfo,NA,NA,dGjA5Pfo,2020-0188,2021-09-22,10:35:38,11:49:10,NA,incomplete,false,NA,true,5,21,NA,left,E23_Q2_ansL.png,E23_Q10_ansL.png,within,NA,NaN,NA,left,1050.9000000953674,1,0,869.3000000715256
dGjA5Pfo,NA,NA,dGjA5Pfo,2020-0188,2021-09-22,10:35:38,11:49:10,NA,incomplete,false,NA,true,5,22,NA,left,E30_Q10_ansR.png,E30_Q5_ansR.png,within,NA,NaN,NA,right,1155.2999999523163,0,0,1018.2999999523163
dGjA5Pfo,NA,NA,dGjA5Pfo,2020-0188,2021-09-22,10:35:38,11:49:10,NA,incomplete,false,NA,true,5,23,NA,left,E23_Q10_ansL.png,E23_Q9_ansR.png,within,NA,NaN,NA,left,1356.6000000238419,1,1,1514.9000000953674
dGjA5Pfo,NA,NA,dGjA5Pfo,2020-0188,2021-09-22,10:35:38,11:49:10,NA,incomplete,false,NA,true,5,24,NA,right,E20_Q9_ansR.png,E20_Q7_ansL.png,within,NA,NaN,NA,right,3113.600000023842,1,0,945.3999999761581
dGjA5Pfo,NA,NA,dGjA5Pfo,2020-0188,2021-09-22,10:35:38,11:49:10,NA,incomplete,false,NA,true,5,25,NA,left,E20_Q2_ansL.png,E20_Q10_ansL.png,within,NA,NaN,NA,left,2135.2000000476837,1,0,1898.7000000476837
dGjA5Pfo,NA,NA,dGjA5Pfo,2020-0188,2021-09-22,10:35:38,11:49:10,NA,incomplete,false,NA,true,5,26,NA,right,E30_Q8_ansL.png,E23_Q9_ansR.png,between,NA,NaN,NA,right,3498.7999999523163,1,2,1404
dGjA5Pfo,NA,NA,dGjA5Pfo,2020-0188,2021-09-22,10:35:38,11:49:10,NA,incomplete,false,true,NA,6,0,E33_Q10_ansL.png,left,NA,NA,NA,left,2757,true,NA,NA,NA,NA,NA
dGjA5Pfo,NA,NA,dGjA5Pfo,2020-0188,2021-09-22,10:35:38,11:49:10,NA,incomplete,false,true,NA,6,1,E33_Q2_ansL.png,left,NA,NA,NA,left,1549.89999997616,true,NA,NA,NA,NA,NA
dGjA5Pfo,NA,NA,dGjA5Pfo,2020-0188,2021-09-22,10:35:38,11:49:10,NA,incomplete,false,true,NA,6,2,E33_Q5_ansR.png,right,NA,NA,NA,right,2953.5,true,NA,NA,NA,NA,NA
dGjA5Pfo,NA,NA,dGjA5Pfo,2020-0188,2021-09-22,10:35:38,11:49:10,NA,incomplete,false,true,NA,6,3,E33_Q3_ansR.png,right,NA,NA,NA,right,1888.89999997616,true,NA,NA,NA,NA,NA
dGjA5Pfo,NA,NA,dGjA5Pfo,2020-0188,2021-09-22,10:35:38,11:49:10,NA,incomplete,false,true,NA,6,4,E33_Q6_ansR.png,right,NA,NA,NA,right,1971,true,NA,NA,NA,NA,NA
dGjA5Pfo,NA,NA,dGjA5Pfo,2020-0188,2021-09-22,10:35:38,11:49:10,NA,incomplete,false,true,NA,6,5,E33_Q8_ansL.png,left,NA,NA,NA,left,1660.10000002384,true,NA,NA,NA,NA,NA
dGjA5Pfo,NA,NA,dGjA5Pfo,2020-0188,2021-09-22,10:35:38,11:49:10,NA,incomplete,false,true,NA,6,6,E33_Q4_ansR.png,right,NA,NA,NA,right,1745.59999990463,true,NA,NA,NA,NA,NA
dGjA5Pfo,NA,NA,dGjA5Pfo,2020-0188,2021-09-22,10:35:38,11:49:10,NA,incomplete,false,true,NA,6,7,E33_Q7_ansL.png,left,NA,NA,NA,left,1969.30000007153,true,NA,NA,NA,NA,NA
dGjA5Pfo,NA,NA,dGjA5Pfo,2020-0188,2021-09-22,10:35:38,11:49:10,NA,incomplete,false,true,NA,6,8,E33_Q9_ansR.png,right,NA,NA,NA,right,2094.39999997616,true,NA,NA,NA,NA,NA
dGjA5Pfo,NA,NA,dGjA5Pfo,2020-0188,2021-09-22,10:35:38,11:49:10,NA,incomplete,false,true,NA,6,9,E33_Q1_ansL.png,left,NA,NA,NA,left,1818.29999995232,true,NA,NA,NA,NA,NA
dGjA5Pfo,NA,NA,dGjA5Pfo,2020-0188,2021-09-22,10:35:38,11:49:10,NA,incomplete,false,true,NA,6,10,E32_Q5_ansR.png,right,NA,NA,NA,right,2654,true,NA,NA,NA,NA,NA
dGjA5Pfo,NA,NA,dGjA5Pfo,2020-0188,2021-09-22,10:35:38,11:49:10,NA,incomplete,false,true,NA,6,11,E32_Q3_ansR.png,right,NA,NA,NA,right,1328.79999995232,true,NA,NA,NA,NA,NA
dGjA5Pfo,NA,NA,dGjA5Pfo,2020-0188,2021-09-22,10:35:38,11:49:10,NA,incomplete,false,true,NA,6,12,E32_Q7_ansL.png,left,NA,NA,NA,left,1150.60000002384,true,NA,NA,NA,NA,NA
dGjA5Pfo,NA,NA,dGjA5Pfo,2020-0188,2021-09-22,10:35:38,11:49:10,NA,incomplete,false,true,NA,6,13,E32_Q4_ansR.png,right,NA,NA,NA,right,1050.20000004768,true,NA,NA,NA,NA,NA
dGjA5Pfo,NA,NA,dGjA5Pfo,2020-0188,2021-09-22,10:35:38,11:49:10,NA,incomplete,false,true,NA,6,14,E32_Q10_ansL.png,left,NA,NA,NA,left,1054.89999997616,true,NA,NA,NA,NA,NA
dGjA5Pfo,NA,NA,dGjA5Pfo,2020-0188,2021-09-22,10:35:38,11:49:10,NA,incomplete,false,true,NA,6,15,E32_Q9_ansR.png,right,NA,NA,NA,right,1453.29999995232,true,NA,NA,NA,NA,NA
dGjA5Pfo,NA,NA,dGjA5Pfo,2020-0188,2021-09-22,10:35:38,11:49:10,NA,incomplete,false,true,NA,6,16,E32_Q2_ansL.png,left,NA,NA,NA,left,889.599999904633,true,NA,NA,NA,NA,NA
dGjA5Pfo,NA,NA,dGjA5Pfo,2020-0188,2021-09-22,10:35:38,11:49:10,NA,incomplete,false,true,NA,6,17,E32_Q6_ansR.png,right,NA,NA,NA,right,1527.30000007153,true,NA,NA,NA,NA,NA
dGjA5Pfo,NA,NA,dGjA5Pfo,2020-0188,2021-09-22,10:35:38,11:49:10,NA,incomplete,false,true,NA,6,18,E32_Q8_ansL.png,left,NA,NA,NA,left,2539,true,NA,NA,NA,NA,NA
dGjA5Pfo,NA,NA,dGjA5Pfo,2020-0188,2021-09-22,10:35:38,11:49:10,NA,incomplete,false,true,NA,6,19,E32_Q1_ansL.png,left,NA,NA,NA,left,2423.5,true,NA,NA,NA,NA,NA
dGjA5Pfo,NA,NA,dGjA5Pfo,2020-0188,2021-09-22,10:35:38,11:49:10,NA,incomplete,false,true,NA,6,20,E3_Q9_ansL.png,left,NA,NA,NA,left,1615.80000007153,true,NA,NA,NA,NA,NA
dGjA5Pfo,NA,NA,dGjA5Pfo,2020-0188,2021-09-22,10:35:38,11:49:10,NA,incomplete,false,true,NA,6,21,E3_Q8_ansL.png,left,NA,NA,NA,left,1348.29999995232,true,NA,NA,NA,NA,NA
dGjA5Pfo,NA,NA,dGjA5Pfo,2020-0188,2021-09-22,10:35:38,11:49:10,NA,incomplete,false,true,NA,6,22,E3_Q10_ansR.png,right,NA,NA,NA,right,1366.29999995232,true,NA,NA,NA,NA,NA
dGjA5Pfo,NA,NA,dGjA5Pfo,2020-0188,2021-09-22,10:35:38,11:49:10,NA,incomplete,false,true,NA,6,23,E3_Q4_ansL.png,left,NA,NA,NA,left,1384.89999997616,true,NA,NA,NA,NA,NA
dGjA5Pfo,NA,NA,dGjA5Pfo,2020-0188,2021-09-22,10:35:38,11:49:10,NA,incomplete,false,true,NA,6,24,E3_Q3_ansR.png,right,NA,NA,NA,right,1425,true,NA,NA,NA,NA,NA
dGjA5Pfo,NA,NA,dGjA5Pfo,2020-0188,2021-09-22,10:35:38,11:49:10,NA,incomplete,false,true,NA,6,25,E3_Q7_ansL.png,left,NA,NA,NA,left,1989.60000002384,true,NA,NA,NA,NA,NA
dGjA5Pfo,NA,NA,dGjA5Pfo,2020-0188,2021-09-22,10:35:38,11:49:10,NA,incomplete,false,true,NA,6,26,E3_Q6_ansR.png,right,NA,NA,NA,right,2277.70000004768,true,NA,NA,NA,NA,NA
dGjA5Pfo,NA,NA,dGjA5Pfo,2020-0188,2021-09-22,10:35:38,11:49:10,NA,incomplete,false,true,NA,6,27,E3_Q5_ansR.png,right,NA,NA,NA,right,2948.79999995232,true,NA,NA,NA,NA,NA
dGjA5Pfo,NA,NA,dGjA5Pfo,2020-0188,2021-09-22,10:35:38,11:49:10,NA,incomplete,false,true,NA,6,28,E3_Q1_ansR.png,right,NA,NA,NA,right,1802.70000004768,true,NA,NA,NA,NA,NA
dGjA5Pfo,NA,NA,dGjA5Pfo,2020-0188,2021-09-22,10:35:38,11:49:10,NA,incomplete,false,true,NA,6,29,E3_Q2_ansL.png,left,NA,NA,NA,left,1369.10000002384,true,NA,NA,NA,NA,NA
dGjA5Pfo,NA,NA,dGjA5Pfo,2020-0188,2021-09-22,10:35:38,11:49:10,NA,incomplete,false,NA,true,6,0,NA,right,E3_Q6_ansR.png,E3_Q4_ansL.png,within,NA,NaN,NA,left,2093.100000023842,0,0,1674.5999999046326
dGjA5Pfo,NA,NA,dGjA5Pfo,2020-0188,2021-09-22,10:35:38,11:49:10,NA,incomplete,false,NA,true,6,1,NA,left,E33_Q7_ansL.png,E32_Q5_ansR.png,between,NA,NaN,NA,right,4946.699999928474,0,2,1583.5
dGjA5Pfo,NA,NA,dGjA5Pfo,2020-0188,2021-09-22,10:35:38,11:49:10,NA,incomplete,false,NA,true,6,2,NA,left,E32_Q6_ansR.png,E3_Q9_ansL.png,between,NA,NaN,NA,left,2611,1,2,1788
dGjA5Pfo,NA,NA,dGjA5Pfo,2020-0188,2021-09-22,10:35:38,11:49:10,NA,incomplete,false,NA,true,6,3,NA,left,E33_Q6_ansR.png,E33_Q7_ansL.png,within,NA,NaN,NA,left,2957.7000000476837,1,0,1732.3999999761581
dGjA5Pfo,NA,NA,dGjA5Pfo,2020-0188,2021-09-22,10:35:38,11:49:10,NA,incomplete,false,NA,true,6,4,NA,right,E32_Q6_ansR.png,E32_Q10_ansL.png,within,NA,NaN,NA,right,2743.2999999523163,1,0,1304.9000000953674
dGjA5Pfo,NA,NA,dGjA5Pfo,2020-0188,2021-09-22,10:35:38,11:49:10,NA,incomplete,false,NA,true,6,5,NA,left,E32_Q8_ansL.png,E3_Q8_ansL.png,between,NA,NaN,NA,left,3355.7999999523163,1,2,1658.6000000238419
dGjA5Pfo,NA,NA,dGjA5Pfo,2020-0188,2021-09-22,10:35:38,11:49:10,NA,incomplete,false,NA,true,6,6,NA,left,E32_Q3_ansR.png,E32_Q10_ansL.png,within,NA,NaN,NA,left,2019.8999999761581,1,0,2410.8000000715256
dGjA5Pfo,NA,NA,dGjA5Pfo,2020-0188,2021-09-22,10:35:38,11:49:10,NA,incomplete,false,NA,true,6,7,NA,left,E3_Q9_ansL.png,E3_Q4_ansL.png,within,NA,NaN,NA,left,3384.399999976158,1,0,1823.1999999284744
dGjA5Pfo,NA,NA,dGjA5Pfo,2020-0188,2021-09-22,10:35:38,11:49:10,NA,incomplete,false,NA,true,6,8,NA,left,E33_Q3_ansR.png,E33_Q4_ansR.png,within,NA,NaN,NA,left,2273.7000000476837,1,0,953.2000000476837
dGjA5Pfo,NA,NA,dGjA5Pfo,2020-0188,2021-09-22,10:35:38,11:49:10,NA,incomplete,false,NA,true,6,9,NA,left,E32_Q2_ansL.png,E32_Q1_ansL.png,within,NA,NaN,NA,left,1589,1,0,952.2000000476837
dGjA5Pfo,NA,NA,dGjA5Pfo,2020-0188,2021-09-22,10:35:38,11:49:10,NA,incomplete,false,NA,true,6,10,NA,left,E32_Q5_ansR.png,E32_Q4_ansR.png,within,NA,NaN,NA,left,1684.8000000715256,1,0,1116.1000000238419
dGjA5Pfo,NA,NA,dGjA5Pfo,2020-0188,2021-09-22,10:35:38,11:49:10,NA,incomplete,false,NA,true,6,11,NA,left,E33_Q4_ansR.png,E33_Q1_ansL.png,within,NA,NaN,NA,left,2587.399999976158,1,0,1222.6999999284744
dGjA5Pfo,NA,NA,dGjA5Pfo,2020-0188,2021-09-22,10:35:38,11:49:10,NA,incomplete,false,NA,true,6,12,NA,left,E33_Q5_ansR.png,E33_Q8_ansL.png,within,NA,NaN,NA,right,2002.7999999523163,0,0,1469.5
dGjA5Pfo,NA,NA,dGjA5Pfo,2020-0188,2021-09-22,10:35:38,11:49:10,NA,incomplete,false,NA,true,6,13,NA,left,E33_Q10_ansL.png,E33_Q3_ansR.png,within,NA,NaN,NA,left,1588.5,1,0,2471.9000000953674
dGjA5Pfo,NA,NA,dGjA5Pfo,2020-0188,2021-09-22,10:35:38,11:49:10,NA,incomplete,false,NA,true,6,14,NA,left,E33_Q9_ansR.png,E32_Q3_ansR.png,between,NA,NaN,NA,left,2742.5,1,2,2590.7999999523163
dGjA5Pfo,NA,NA,dGjA5Pfo,2020-0188,2021-09-22,10:35:38,11:49:10,NA,incomplete,false,NA,true,6,15,NA,right,E32_Q7_ansL.png,E33_Q1_ansL.png,between,NA,NaN,NA,right,2553.7999999523163,1,2,2009.1999999284744
dGjA5Pfo,NA,NA,dGjA5Pfo,2020-0188,2021-09-22,10:35:38,11:49:10,NA,incomplete,false,NA,true,6,16,NA,right,E3_Q7_ansL.png,E3_Q10_ansR.png,within,NA,NaN,NA,left,2069,0,1,1545.6000000238419
dGjA5Pfo,NA,NA,dGjA5Pfo,2020-0188,2021-09-22,10:35:38,11:49:10,NA,incomplete,false,NA,true,6,17,NA,left,E3_Q8_ansL.png,E3_Q3_ansR.png,within,NA,NaN,NA,left,2497.5,1,0,1017.6000000238419
dGjA5Pfo,NA,NA,dGjA5Pfo,2020-0188,2021-09-22,10:35:38,11:49:10,NA,incomplete,false,NA,true,6,18,NA,left,E33_Q2_ansL.png,E33_Q6_ansR.png,within,NA,NaN,NA,left,1576.3999999761581,1,0,2866.600000023842
dGjA5Pfo,NA,NA,dGjA5Pfo,2020-0188,2021-09-22,10:35:38,11:49:10,NA,incomplete,false,NA,true,6,19,NA,right,E32_Q9_ansR.png,E32_Q7_ansL.png,within,NA,NaN,NA,left,1822.7999999523163,0,0,1519.2999999523163
dGjA5Pfo,NA,NA,dGjA5Pfo,2020-0188,2021-09-22,10:35:38,11:49:10,NA,incomplete,false,NA,true,6,20,NA,left,E33_Q8_ansL.png,E33_Q9_ansR.png,within,NA,NaN,NA,right,1477.2000000476837,0,0,1444
dGjA5Pfo,NA,NA,dGjA5Pfo,2020-0188,2021-09-22,10:35:38,11:49:10,NA,incomplete,false,NA,true,6,21,NA,left,E3_Q7_ansL.png,E3_Q1_ansR.png,within,NA,NaN,NA,right,1091.1000000238419,0,0,1034.8999999761581
dGjA5Pfo,NA,NA,dGjA5Pfo,2020-0188,2021-09-22,10:35:38,11:49:10,NA,incomplete,false,NA,true,6,22,NA,right,E3_Q10_ansR.png,E32_Q1_ansL.png,between,NA,NaN,NA,right,1584.6999999284744,1,2,1820.5
dGjA5Pfo,NA,NA,dGjA5Pfo,2020-0188,2021-09-22,10:35:38,11:49:10,NA,incomplete,false,NA,true,6,23,NA,left,E32_Q4_ansR.png,E32_Q2_ansL.png,within,NA,NaN,NA,right,3762.7999999523163,0,0,2631.899999976158
dGjA5Pfo,NA,NA,dGjA5Pfo,2020-0188,2021-09-22,10:35:38,11:49:10,NA,incomplete,false,NA,true,6,24,NA,left,E3_Q3_ansR.png,E3_Q5_ansR.png,within,NA,NaN,NA,left,2081.0999999046326,1,0,1231.5
dGjA5Pfo,NA,NA,dGjA5Pfo,2020-0188,2021-09-22,10:35:38,11:49:10,NA,incomplete,false,NA,true,6,25,NA,right,E32_Q8_ansL.png,E32_Q9_ansR.png,within,NA,NaN,NA,left,1675,0,0,1453.3999999761581
dGjA5Pfo,NA,NA,dGjA5Pfo,2020-0188,2021-09-22,10:35:38,11:49:10,NA,incomplete,false,NA,true,6,26,NA,right,E3_Q2_ansL.png,E3_Q6_ansR.png,within,NA,NaN,NA,right,1743.1000000238419,1,0,1559.8999999761581
dGjA5Pfo,NA,NA,dGjA5Pfo,2020-0188,2021-09-22,10:35:38,11:49:10,NA,incomplete,false,true,NA,7,0,E26_Q5_ansR.png,right,NA,NA,NA,right,1758.20000004768,true,NA,NA,NA,NA,NA
dGjA5Pfo,NA,NA,dGjA5Pfo,2020-0188,2021-09-22,10:35:38,11:49:10,NA,incomplete,false,true,NA,7,1,E26_Q7_ansL.png,left,NA,NA,NA,left,1184.29999995232,true,NA,NA,NA,NA,NA
dGjA5Pfo,NA,NA,dGjA5Pfo,2020-0188,2021-09-22,10:35:38,11:49:10,NA,incomplete,false,true,NA,7,2,E26_Q8_ansL.png,left,NA,NA,NA,left,1204,true,NA,NA,NA,NA,NA
dGjA5Pfo,NA,NA,dGjA5Pfo,2020-0188,2021-09-22,10:35:38,11:49:10,NA,incomplete,false,true,NA,7,3,E26_Q1_ansL.png,left,NA,NA,NA,left,1004.60000002384,true,NA,NA,NA,NA,NA
dGjA5Pfo,NA,NA,dGjA5Pfo,2020-0188,2021-09-22,10:35:38,11:49:10,NA,incomplete,false,true,NA,7,4,E26_Q10_ansL.png,left,NA,NA,NA,left,3327.30000007153,true,NA,NA,NA,NA,NA
dGjA5Pfo,NA,NA,dGjA5Pfo,2020-0188,2021-09-22,10:35:38,11:49:10,NA,incomplete,false,true,NA,7,5,E26_Q4_ansR.png,right,NA,NA,NA,right,1860.5,true,NA,NA,NA,NA,NA
dGjA5Pfo,NA,NA,dGjA5Pfo,2020-0188,2021-09-22,10:35:38,11:49:10,NA,incomplete,false,true,NA,7,6,E26_Q6_ansR.png,right,NA,NA,NA,right,1261.5,true,NA,NA,NA,NA,NA
dGjA5Pfo,NA,NA,dGjA5Pfo,2020-0188,2021-09-22,10:35:38,11:49:10,NA,incomplete,false,true,NA,7,7,E26_Q9_ansR.png,right,NA,NA,NA,right,1484.79999995232,true,NA,NA,NA,NA,NA
dGjA5Pfo,NA,NA,dGjA5Pfo,2020-0188,2021-09-22,10:35:38,11:49:10,NA,incomplete,false,true,NA,7,8,E26_Q3_ansR.png,right,NA,NA,NA,right,1830.80000007153,true,NA,NA,NA,NA,NA
dGjA5Pfo,NA,NA,dGjA5Pfo,2020-0188,2021-09-22,10:35:38,11:49:10,NA,incomplete,false,true,NA,7,9,E26_Q2_ansL.png,left,NA,NA,NA,left,1379.10000002384,true,NA,NA,NA,NA,NA
dGjA5Pfo,NA,NA,dGjA5Pfo,2020-0188,2021-09-22,10:35:38,11:49:10,NA,incomplete,false,true,NA,7,10,E15_Q8_ansL.png,left,NA,NA,NA,left,1999.10000002384,true,NA,NA,NA,NA,NA
dGjA5Pfo,NA,NA,dGjA5Pfo,2020-0188,2021-09-22,10:35:38,11:49:10,NA,incomplete,false,true,NA,7,11,E15_Q5_ansR.png,right,NA,NA,NA,right,2073.29999995232,true,NA,NA,NA,NA,NA
dGjA5Pfo,NA,NA,dGjA5Pfo,2020-0188,2021-09-22,10:35:38,11:49:10,NA,incomplete,false,true,NA,7,12,E15_Q10_ansL.png,left,NA,NA,NA,left,1943.60000002384,true,NA,NA,NA,NA,NA
dGjA5Pfo,NA,NA,dGjA5Pfo,2020-0188,2021-09-22,10:35:38,11:49:10,NA,incomplete,false,true,NA,7,13,E15_Q6_ansR.png,right,NA,NA,NA,right,1603.60000002384,true,NA,NA,NA,NA,NA
dGjA5Pfo,NA,NA,dGjA5Pfo,2020-0188,2021-09-22,10:35:38,11:49:10,NA,incomplete,false,true,NA,7,14,E15_Q3_ansR.png,right,NA,NA,NA,left,1067.20000004768,false,NA,NA,NA,NA,NA
dGjA5Pfo,NA,NA,dGjA5Pfo,2020-0188,2021-09-22,10:35:38,11:49:10,NA,incomplete,false,true,NA,7,15,E15_Q9_ansR.png,right,NA,NA,NA,right,1047.89999997616,true,NA,NA,NA,NA,NA
dGjA5Pfo,NA,NA,dGjA5Pfo,2020-0188,2021-09-22,10:35:38,11:49:10,NA,incomplete,false,true,NA,7,16,E15_Q1_ansL.png,left,NA,NA,NA,left,1641.19999992847,true,NA,NA,NA,NA,NA
dGjA5Pfo,NA,NA,dGjA5Pfo,2020-0188,2021-09-22,10:35:38,11:49:10,NA,incomplete,false,true,NA,7,17,E15_Q2_ansL.png,left,NA,NA,NA,left,2052.89999997616,true,NA,NA,NA,NA,NA
dGjA5Pfo,NA,NA,dGjA5Pfo,2020-0188,2021-09-22,10:35:38,11:49:10,NA,incomplete,false,true,NA,7,18,E15_Q4_ansR.png,right,NA,NA,NA,right,2320.20000004768,true,NA,NA,NA,NA,NA
dGjA5Pfo,NA,NA,dGjA5Pfo,2020-0188,2021-09-22,10:35:38,11:49:10,NA,incomplete,false,true,NA,7,19,E15_Q7_ansL.png,left,NA,NA,NA,left,1201.39999997616,true,NA,NA,NA,NA,NA
dGjA5Pfo,NA,NA,dGjA5Pfo,2020-0188,2021-09-22,10:35:38,11:49:10,NA,incomplete,false,true,NA,7,20,E28_Q7_ansR.png,right,NA,NA,NA,right,1593,true,NA,NA,NA,NA,NA
dGjA5Pfo,NA,NA,dGjA5Pfo,2020-0188,2021-09-22,10:35:38,11:49:10,NA,incomplete,false,true,NA,7,21,E28_Q9_ansL.png,left,NA,NA,NA,left,1373.70000004768,true,NA,NA,NA,NA,NA
dGjA5Pfo,NA,NA,dGjA5Pfo,2020-0188,2021-09-22,10:35:38,11:49:10,NA,incomplete,false,true,NA,7,22,E28_Q6_ansL.png,left,NA,NA,NA,left,1632.89999997616,true,NA,NA,NA,NA,NA
dGjA5Pfo,NA,NA,dGjA5Pfo,2020-0188,2021-09-22,10:35:38,11:49:10,NA,incomplete,false,true,NA,7,23,E28_Q10_ansR.png,right,NA,NA,NA,right,2415.70000004768,true,NA,NA,NA,NA,NA
dGjA5Pfo,NA,NA,dGjA5Pfo,2020-0188,2021-09-22,10:35:38,11:49:10,NA,incomplete,false,true,NA,7,24,E28_Q3_ansL.png,left,NA,NA,NA,left,1731.39999997616,true,NA,NA,NA,NA,NA
dGjA5Pfo,NA,NA,dGjA5Pfo,2020-0188,2021-09-22,10:35:38,11:49:10,NA,incomplete,false,true,NA,7,25,E28_Q4_ansL.png,left,NA,NA,NA,left,2386.5,true,NA,NA,NA,NA,NA
dGjA5Pfo,NA,NA,dGjA5Pfo,2020-0188,2021-09-22,10:35:38,11:49:10,NA,incomplete,false,true,NA,7,26,E28_Q1_ansR.png,right,NA,NA,NA,left,1146.80000007153,false,NA,NA,NA,NA,NA
dGjA5Pfo,NA,NA,dGjA5Pfo,2020-0188,2021-09-22,10:35:38,11:49:10,NA,incomplete,false,true,NA,7,27,E28_Q8_ansR.png,right,NA,NA,NA,right,2502.5,true,NA,NA,NA,NA,NA
dGjA5Pfo,NA,NA,dGjA5Pfo,2020-0188,2021-09-22,10:35:38,11:49:10,NA,incomplete,false,true,NA,7,28,E28_Q2_ansR.png,right,NA,NA,NA,right,1538.39999997616,true,NA,NA,NA,NA,NA
dGjA5Pfo,NA,NA,dGjA5Pfo,2020-0188,2021-09-22,10:35:38,11:49:10,NA,incomplete,false,true,NA,7,29,E28_Q5_ansL.png,left,NA,NA,NA,left,2037.90000009537,true,NA,NA,NA,NA,NA
dGjA5Pfo,NA,NA,dGjA5Pfo,2020-0188,2021-09-22,10:35:38,11:49:10,NA,incomplete,false,NA,true,7,0,NA,left,E15_Q7_ansL.png,E28_Q6_ansL.png,between,NA,NaN,NA,left,2049.6999999284744,1,2,1428
dGjA5Pfo,NA,NA,dGjA5Pfo,2020-0188,2021-09-22,10:35:38,11:49:10,NA,incomplete,false,NA,true,7,1,NA,right,E28_Q10_ansR.png,E28_Q7_ansR.png,within,NA,NaN,NA,right,1142,1,0,943.6000000238419
dGjA5Pfo,NA,NA,dGjA5Pfo,2020-0188,2021-09-22,10:35:38,11:49:10,NA,incomplete,false,NA,true,7,2,NA,left,E15_Q4_ansR.png,E28_Q9_ansL.png,between,NA,NaN,NA,left,1885.3000000715256,1,2,1008.9000000953674
dGjA5Pfo,NA,NA,dGjA5Pfo,2020-0188,2021-09-22,10:35:38,11:49:10,NA,incomplete,false,NA,true,7,3,NA,right,E26_Q9_ansR.png,E26_Q10_ansL.png,within,NA,NaN,NA,right,3325.5,1,0,893.7999999523163
dGjA5Pfo,NA,NA,dGjA5Pfo,2020-0188,2021-09-22,10:35:38,11:49:10,NA,incomplete,false,NA,true,7,4,NA,right,E15_Q7_ansL.png,E15_Q1_ansL.png,within,NA,NaN,NA,left,1551.2000000476837,0,0,959.8999999761581
dGjA5Pfo,NA,NA,dGjA5Pfo,2020-0188,2021-09-22,10:35:38,11:49:10,NA,incomplete,false,NA,true,7,5,NA,right,E15_Q6_ansR.png,E15_Q8_ansL.png,within,NA,NaN,NA,right,1758.3000000715256,1,0,1304.5
dGjA5Pfo,NA,NA,dGjA5Pfo,2020-0188,2021-09-22,10:35:38,11:49:10,NA,incomplete,false,NA,true,7,6,NA,right,E26_Q2_ansL.png,E26_Q6_ansR.png,within,NA,NaN,NA,left,2914.899999976158,0,0,2168.1999999284744
dGjA5Pfo,NA,NA,dGjA5Pfo,2020-0188,2021-09-22,10:35:38,11:49:10,NA,incomplete,false,NA,true,7,7,NA,left,E28_Q3_ansL.png,E28_Q8_ansR.png,within,NA,NaN,NA,left,3760.7999999523163,1,0,1058.6999999284744
dGjA5Pfo,NA,NA,dGjA5Pfo,2020-0188,2021-09-22,10:35:38,11:49:10,NA,incomplete,false,NA,true,7,8,NA,left,E26_Q4_ansR.png,E26_Q3_ansR.png,within,NA,NaN,NA,left,3244.2000000476837,1,0,1124.6000000238419
dGjA5Pfo,NA,NA,dGjA5Pfo,2020-0188,2021-09-22,10:35:38,11:49:10,NA,incomplete,false,NA,true,7,9,NA,right,E28_Q7_ansR.png,E15_Q2_ansL.png,between,NA,NaN,NA,right,2110.0999999046326,1,2,3100.2000000476837
dGjA5Pfo,NA,NA,dGjA5Pfo,2020-0188,2021-09-22,10:35:38,11:49:10,NA,incomplete,false,NA,true,7,10,NA,left,E26_Q8_ansL.png,E26_Q4_ansR.png,within,NA,NaN,NA,left,2693.7000000476837,1,0,2341.600000023842
dGjA5Pfo,NA,NA,dGjA5Pfo,2020-0188,2021-09-22,10:35:38,11:49:10,NA,incomplete,false,NA,true,7,11,NA,right,E15_Q10_ansL.png,E26_Q2_ansL.png,between,NA,NaN,NA,right,3918,1,2,6561.700000047684
dGjA5Pfo,NA,NA,dGjA5Pfo,2020-0188,2021-09-22,10:35:38,11:49:10,NA,incomplete,false,NA,true,7,12,NA,right,E26_Q1_ansL.png,E26_Q5_ansR.png,within,NA,NaN,NA,right,2119.2999999523163,1,0,1157.4000000953674
dGjA5Pfo,NA,NA,dGjA5Pfo,2020-0188,2021-09-22,10:35:38,11:49:10,NA,incomplete,false,NA,true,7,13,NA,left,E28_Q1_ansR.png,E28_Q5_ansL.png,within,NA,NaN,NA,right,1518.5,0,0,1330.1000000238419
dGjA5Pfo,NA,NA,dGjA5Pfo,2020-0188,2021-09-22,10:35:38,11:49:10,NA,incomplete,false,NA,true,7,14,NA,right,E28_Q1_ansR.png,E28_Q10_ansR.png,within,NA,NaN,NA,right,1740.6999999284744,1,0,1946.6999999284744
dGjA5Pfo,NA,NA,dGjA5Pfo,2020-0188,2021-09-22,10:35:38,11:49:10,NA,incomplete,false,NA,true,7,15,NA,left,E28_Q6_ansL.png,E28_Q4_ansL.png,within,NA,NaN,NA,right,1453.2000000476837,0,1,8667.399999976158
dGjA5Pfo,NA,NA,dGjA5Pfo,2020-0188,2021-09-22,10:35:38,11:49:10,NA,incomplete,false,NA,true,7,16,NA,left,E28_Q9_ansL.png,E28_Q3_ansL.png,within,NA,NaN,NA,left,2414.2999999523163,1,0,1379.5
dGjA5Pfo,NA,NA,dGjA5Pfo,2020-0188,2021-09-22,10:35:38,11:49:10,NA,incomplete,false,NA,true,7,17,NA,left,E15_Q9_ansR.png,E15_Q4_ansR.png,within,NA,NaN,NA,right,1812.5,0,0,1297.1000000238419
dGjA5Pfo,NA,NA,dGjA5Pfo,2020-0188,2021-09-22,10:35:38,11:49:10,NA,incomplete,false,NA,true,7,18,NA,right,E28_Q2_ansR.png,E28_Q4_ansL.png,within,NA,NaN,NA,left,2597,0,0,1091.9000000953674
dGjA5Pfo,NA,NA,dGjA5Pfo,2020-0188,2021-09-22,10:35:38,11:49:10,NA,incomplete,false,NA,true,7,19,NA,right,E26_Q6_ansR.png,E26_Q1_ansL.png,within,NA,NaN,NA,right,2479.5999999046326,1,0,1074.7999999523163
dGjA5Pfo,NA,NA,dGjA5Pfo,2020-0188,2021-09-22,10:35:38,11:49:10,NA,incomplete,false,NA,true,7,20,NA,left,E26_Q3_ansR.png,E15_Q5_ansR.png,between,NA,NaN,NA,left,3992.399999976158,1,2,5249.599999904633
dGjA5Pfo,NA,NA,dGjA5Pfo,2020-0188,2021-09-22,10:35:38,11:49:10,NA,incomplete,false,NA,true,7,21,NA,right,E15_Q1_ansL.png,E15_Q6_ansR.png,within,NA,NaN,NA,right,2650.399999976158,1,0,1930.8999999761581
dGjA5Pfo,NA,NA,dGjA5Pfo,2020-0188,2021-09-22,10:35:38,11:49:10,NA,incomplete,false,NA,true,7,22,NA,right,E15_Q9_ansR.png,E15_Q10_ansL.png,within,NA,NaN,NA,right,1658.2999999523163,1,0,1617.7000000476837
dGjA5Pfo,NA,NA,dGjA5Pfo,2020-0188,2021-09-22,10:35:38,11:49:10,NA,incomplete,false,NA,true,7,23,NA,right,E15_Q3_ansR.png,E15_Q5_ansR.png,within,NA,NaN,NA,right,6307,1,0,1320.1000000238419
dGjA5Pfo,NA,NA,dGjA5Pfo,2020-0188,2021-09-22,10:35:38,11:49:10,NA,incomplete,false,NA,true,7,24,NA,right,E15_Q2_ansL.png,E15_Q3_ansR.png,within,NA,NaN,NA,left,1531.5,0,3,4091.399999976158
dGjA5Pfo,NA,NA,dGjA5Pfo,2020-0188,2021-09-22,10:35:38,11:49:10,NA,incomplete,false,NA,true,7,25,NA,left,E26_Q9_ansR.png,E15_Q8_ansL.png,between,NA,NaN,NA,left,2384.100000023842,1,2,2457
dGjA5Pfo,NA,NA,dGjA5Pfo,2020-0188,2021-09-22,10:35:38,11:49:10,NA,incomplete,false,NA,true,7,26,NA,right,E26_Q10_ansL.png,E26_Q7_ansL.png,within,NA,NaN,NA,right,20915.400000095367,1,0,50342.89999997616
dGjA5Pfo,NA,NA,dGjA5Pfo,2020-0188,2021-09-22,10:35:38,11:49:10,NA,incomplete,false,true,NA,8,0,E9_Q6_ansL.png,left,NA,NA,NA,left,2292.09999990463,true,NA,NA,NA,NA,NA
dGjA5Pfo,NA,NA,dGjA5Pfo,2020-0188,2021-09-22,10:35:38,11:49:10,NA,incomplete,false,true,NA,8,1,E9_Q10_ansR.png,right,NA,NA,NA,right,2610.89999997616,true,NA,NA,NA,NA,NA
dGjA5Pfo,NA,NA,dGjA5Pfo,2020-0188,2021-09-22,10:35:38,11:49:10,NA,incomplete,false,true,NA,8,2,E9_Q7_ansR.png,right,NA,NA,NA,right,1747.10000002384,true,NA,NA,NA,NA,NA
dGjA5Pfo,NA,NA,dGjA5Pfo,2020-0188,2021-09-22,10:35:38,11:49:10,NA,incomplete,false,true,NA,8,3,E9_Q3_ansL.png,left,NA,NA,NA,left,1378.5,true,NA,NA,NA,NA,NA
dGjA5Pfo,NA,NA,dGjA5Pfo,2020-0188,2021-09-22,10:35:38,11:49:10,NA,incomplete,false,true,NA,8,4,E9_Q2_ansR.png,right,NA,NA,NA,right,1312,true,NA,NA,NA,NA,NA
dGjA5Pfo,NA,NA,dGjA5Pfo,2020-0188,2021-09-22,10:35:38,11:49:10,NA,incomplete,false,true,NA,8,5,E9_Q1_ansR.png,right,NA,NA,NA,right,1366.80000007153,true,NA,NA,NA,NA,NA
dGjA5Pfo,NA,NA,dGjA5Pfo,2020-0188,2021-09-22,10:35:38,11:49:10,NA,incomplete,false,true,NA,8,6,E9_Q4_ansL.png,left,NA,NA,NA,left,1095.80000007153,true,NA,NA,NA,NA,NA
dGjA5Pfo,NA,NA,dGjA5Pfo,2020-0188,2021-09-22,10:35:38,11:49:10,NA,incomplete,false,true,NA,8,7,E9_Q5_ansL.png,left,NA,NA,NA,left,1946.39999997616,true,NA,NA,NA,NA,NA
dGjA5Pfo,NA,NA,dGjA5Pfo,2020-0188,2021-09-22,10:35:38,11:49:10,NA,incomplete,false,true,NA,8,8,E9_Q9_ansL.png,left,NA,NA,NA,left,3283.29999995232,true,NA,NA,NA,NA,NA
dGjA5Pfo,NA,NA,dGjA5Pfo,2020-0188,2021-09-22,10:35:38,11:49:10,NA,incomplete,false,true,NA,8,9,E9_Q8_ansR.png,right,NA,NA,NA,right,1762.5,true,NA,NA,NA,NA,NA
dGjA5Pfo,NA,NA,dGjA5Pfo,2020-0188,2021-09-22,10:35:38,11:49:10,NA,incomplete,false,true,NA,8,10,E21_Q5_ansR.png,right,NA,NA,NA,right,1376.89999997616,true,NA,NA,NA,NA,NA
dGjA5Pfo,NA,NA,dGjA5Pfo,2020-0188,2021-09-22,10:35:38,11:49:10,NA,incomplete,false,true,NA,8,11,E21_Q10_ansL.png,left,NA,NA,NA,left,2296.30000007153,true,NA,NA,NA,NA,NA
dGjA5Pfo,NA,NA,dGjA5Pfo,2020-0188,2021-09-22,10:35:38,11:49:10,NA,incomplete,false,true,NA,8,12,E21_Q9_ansR.png,right,NA,NA,NA,right,2274.79999995232,true,NA,NA,NA,NA,NA
dGjA5Pfo,NA,NA,dGjA5Pfo,2020-0188,2021-09-22,10:35:38,11:49:10,NA,incomplete,false,true,NA,8,13,E21_Q4_ansR.png,right,NA,NA,NA,right,1298.10000002384,true,NA,NA,NA,NA,NA
dGjA5Pfo,NA,NA,dGjA5Pfo,2020-0188,2021-09-22,10:35:38,11:49:10,NA,incomplete,false,true,NA,8,14,E21_Q2_ansL.png,left,NA,NA,NA,left,2225,true,NA,NA,NA,NA,NA
dGjA5Pfo,NA,NA,dGjA5Pfo,2020-0188,2021-09-22,10:35:38,11:49:10,NA,incomplete,false,true,NA,8,15,E21_Q7_ansL.png,left,NA,NA,NA,left,1518.5,true,NA,NA,NA,NA,NA
dGjA5Pfo,NA,NA,dGjA5Pfo,2020-0188,2021-09-22,10:35:38,11:49:10,NA,incomplete,false,true,NA,8,16,E21_Q3_ansR.png,right,NA,NA,NA,right,745.600000023842,true,NA,NA,NA,NA,NA
dGjA5Pfo,NA,NA,dGjA5Pfo,2020-0188,2021-09-22,10:35:38,11:49:10,NA,incomplete,false,true,NA,8,17,E21_Q8_ansL.png,left,NA,NA,NA,left,1664.89999997616,true,NA,NA,NA,NA,NA
dGjA5Pfo,NA,NA,dGjA5Pfo,2020-0188,2021-09-22,10:35:38,11:49:10,NA,incomplete,false,true,NA,8,18,E21_Q1_ansL.png,left,NA,NA,NA,left,902.899999976158,true,NA,NA,NA,NA,NA
dGjA5Pfo,NA,NA,dGjA5Pfo,2020-0188,2021-09-22,10:35:38,11:49:10,NA,incomplete,false,true,NA,8,19,E21_Q6_ansR.png,right,NA,NA,NA,right,1220.69999992847,true,NA,NA,NA,NA,NA
dGjA5Pfo,NA,NA,dGjA5Pfo,2020-0188,2021-09-22,10:35:38,11:49:10,NA,incomplete,false,true,NA,8,20,E4_Q5_ansR.png,right,NA,NA,NA,right,1674.5,true,NA,NA,NA,NA,NA
dGjA5Pfo,NA,NA,dGjA5Pfo,2020-0188,2021-09-22,10:35:38,11:49:10,NA,incomplete,false,true,NA,8,21,E4_Q7_ansR.png,right,NA,NA,NA,right,1399.60000002384,true,NA,NA,NA,NA,NA
dGjA5Pfo,NA,NA,dGjA5Pfo,2020-0188,2021-09-22,10:35:38,11:49:10,NA,incomplete,false,true,NA,8,22,E4_Q8_ansR.png,right,NA,NA,NA,right,1649.70000004768,true,NA,NA,NA,NA,NA
dGjA5Pfo,NA,NA,dGjA5Pfo,2020-0188,2021-09-22,10:35:38,11:49:10,NA,incomplete,false,true,NA,8,23,E4_Q3_ansL.png,left,NA,NA,NA,left,1982.90000009537,true,NA,NA,NA,NA,NA
dGjA5Pfo,NA,NA,dGjA5Pfo,2020-0188,2021-09-22,10:35:38,11:49:10,NA,incomplete,false,true,NA,8,24,E4_Q4_ansL.png,left,NA,NA,NA,left,1318.29999995232,true,NA,NA,NA,NA,NA
dGjA5Pfo,NA,NA,dGjA5Pfo,2020-0188,2021-09-22,10:35:38,11:49:10,NA,incomplete,false,true,NA,8,25,E4_Q1_ansL.png,left,NA,NA,NA,left,1732.5,true,NA,NA,NA,NA,NA
dGjA5Pfo,NA,NA,dGjA5Pfo,2020-0188,2021-09-22,10:35:38,11:49:10,NA,incomplete,false,true,NA,8,26,E4_Q2_ansL.png,left,NA,NA,NA,left,1569.60000002384,true,NA,NA,NA,NA,NA
dGjA5Pfo,NA,NA,dGjA5Pfo,2020-0188,2021-09-22,10:35:38,11:49:10,NA,incomplete,false,true,NA,8,27,E4_Q9_ansL.png,left,NA,NA,NA,left,1902.60000002384,true,NA,NA,NA,NA,NA
dGjA5Pfo,NA,NA,dGjA5Pfo,2020-0188,2021-09-22,10:35:38,11:49:10,NA,incomplete,false,true,NA,8,28,E4_Q10_ansR.png,right,NA,NA,NA,right,1821.89999997616,true,NA,NA,NA,NA,NA
dGjA5Pfo,NA,NA,dGjA5Pfo,2020-0188,2021-09-22,10:35:38,11:49:10,NA,incomplete,false,true,NA,8,29,E4_Q6_ansR.png,right,NA,NA,NA,right,1586.30000007153,true,NA,NA,NA,NA,NA
dGjA5Pfo,NA,NA,dGjA5Pfo,2020-0188,2021-09-22,10:35:38,11:49:10,NA,incomplete,false,NA,true,8,0,NA,right,E4_Q10_ansR.png,E4_Q1_ansL.png,within,NA,NaN,NA,left,1688.7000000476837,0,0,1111.7999999523163
dGjA5Pfo,NA,NA,dGjA5Pfo,2020-0188,2021-09-22,10:35:38,11:49:10,NA,incomplete,false,NA,true,8,1,NA,right,E4_Q6_ansR.png,E4_Q2_ansL.png,within,NA,NaN,NA,left,1810.8999999761581,0,0,2091.9000000953674
dGjA5Pfo,NA,NA,dGjA5Pfo,2020-0188,2021-09-22,10:35:38,11:49:10,NA,incomplete,false,NA,true,8,2,NA,left,E9_Q4_ansL.png,E9_Q8_ansR.png,within,NA,NaN,NA,right,1352.2999999523163,0,0,1623.1000000238419
dGjA5Pfo,NA,NA,dGjA5Pfo,2020-0188,2021-09-22,10:35:38,11:49:10,NA,incomplete,false,NA,true,8,3,NA,right,E21_Q9_ansR.png,E9_Q8_ansR.png,between,NA,NaN,NA,right,2302.9000000953674,1,2,2277.5
dGjA5Pfo,NA,NA,dGjA5Pfo,2020-0188,2021-09-22,10:35:38,11:49:10,NA,incomplete,false,NA,true,8,4,NA,right,E4_Q3_ansL.png,E4_Q5_ansR.png,within,NA,NaN,NA,right,2677.8000000715256,1,0,1074.3999999761581
dGjA5Pfo,NA,NA,dGjA5Pfo,2020-0188,2021-09-22,10:35:38,11:49:10,NA,incomplete,false,NA,true,8,5,NA,right,E4_Q5_ansR.png,E21_Q8_ansL.png,between,NA,NaN,NA,left,1658,0,2,1042
dGjA5Pfo,NA,NA,dGjA5Pfo,2020-0188,2021-09-22,10:35:38,11:49:10,NA,incomplete,false,NA,true,8,6,NA,left,E9_Q9_ansL.png,E21_Q10_ansL.png,between,NA,NaN,NA,left,1817.3000000715256,1,2,2176
dGjA5Pfo,NA,NA,dGjA5Pfo,2020-0188,2021-09-22,10:35:38,11:49:10,NA,incomplete,false,NA,true,8,7,NA,left,E21_Q10_ansL.png,E21_Q2_ansL.png,within,NA,NaN,NA,right,1450.9000000953674,0,1,2426.7000000476837
dGjA5Pfo,NA,NA,dGjA5Pfo,2020-0188,2021-09-22,10:35:38,11:49:10,NA,incomplete,false,NA,true,8,8,NA,left,E21_Q9_ansR.png,E21_Q7_ansL.png,within,NA,NaN,NA,left,2060.6999999284744,1,0,1693.7000000476837
dGjA5Pfo,NA,NA,dGjA5Pfo,2020-0188,2021-09-22,10:35:38,11:49:10,NA,incomplete,false,NA,true,8,9,NA,left,E21_Q4_ansR.png,E21_Q3_ansR.png,within,NA,NaN,NA,left,2176.5,1,0,1649.2000000476837
dGjA5Pfo,NA,NA,dGjA5Pfo,2020-0188,2021-09-22,10:35:38,11:49:10,NA,incomplete,false,NA,true,8,10,NA,left,E4_Q4_ansL.png,E4_Q9_ansL.png,within,NA,NaN,NA,left,1861.2999999523163,1,0,3327.399999976158
dGjA5Pfo,NA,NA,dGjA5Pfo,2020-0188,2021-09-22,10:35:38,11:49:10,NA,incomplete,false,NA,true,8,11,NA,left,E9_Q5_ansL.png,E21_Q5_ansR.png,between,NA,NaN,NA,left,1708.1000000238419,1,2,1657.2999999523163
dGjA5Pfo,NA,NA,dGjA5Pfo,2020-0188,2021-09-22,10:35:38,11:49:10,NA,incomplete,false,NA,true,8,12,NA,right,E21_Q4_ansR.png,E21_Q5_ansR.png,within,NA,NaN,NA,left,1478.1999999284744,0,1,1304.9000000953674
dGjA5Pfo,NA,NA,dGjA5Pfo,2020-0188,2021-09-22,10:35:38,11:49:10,NA,incomplete,false,NA,true,8,13,NA,left,E9_Q6_ansL.png,E9_Q3_ansL.png,within,NA,NaN,NA,left,2586.4000000953674,1,0,1011.2000000476837
dGjA5Pfo,NA,NA,dGjA5Pfo,2020-0188,2021-09-22,10:35:38,11:49:10,NA,incomplete,false,NA,true,8,14,NA,left,E21_Q7_ansL.png,E21_Q1_ansL.png,within,NA,NaN,NA,left,2167.5,1,1,1721.6999999284744
dGjA5Pfo,NA,NA,dGjA5Pfo,2020-0188,2021-09-22,10:35:38,11:49:10,NA,incomplete,false,NA,true,8,15,NA,left,E21_Q1_ansL.png,E4_Q7_ansR.png,between,NA,NaN,NA,right,1278.3999999761581,0,2,1666
dGjA5Pfo,NA,NA,dGjA5Pfo,2020-0188,2021-09-22,10:35:38,11:49:10,NA,incomplete,false,NA,true,8,16,NA,right,E4_Q1_ansL.png,E4_Q8_ansR.png,within,NA,NaN,NA,left,1568.3000000715256,0,0,992.9000000953674
dGjA5Pfo,NA,NA,dGjA5Pfo,2020-0188,2021-09-22,10:35:38,11:49:10,NA,incomplete,false,NA,true,8,17,NA,right,E9_Q2_ansR.png,E9_Q10_ansR.png,within,NA,NaN,NA,right,1396.3999999761581,1,0,2636
dGjA5Pfo,NA,NA,dGjA5Pfo,2020-0188,2021-09-22,10:35:38,11:49:10,NA,incomplete,false,NA,true,8,18,NA,right,E4_Q4_ansL.png,E4_Q7_ansR.png,within,NA,NaN,NA,right,3776.600000023842,1,0,1099.2999999523163
dGjA5Pfo,NA,NA,dGjA5Pfo,2020-0188,2021-09-22,10:35:38,11:49:10,NA,incomplete,false,NA,true,8,19,NA,right,E9_Q1_ansR.png,E9_Q7_ansR.png,within,NA,NaN,NA,right,1648.0999999046326,1,0,1395.5
dGjA5Pfo,NA,NA,dGjA5Pfo,2020-0188,2021-09-22,10:35:38,11:49:10,NA,incomplete,false,NA,true,8,20,NA,right,E4_Q8_ansR.png,E21_Q6_ansR.png,between,NA,NaN,NA,left,1864.5,0,2,1591.8999999761581
dGjA5Pfo,NA,NA,dGjA5Pfo,2020-0188,2021-09-22,10:35:38,11:49:10,NA,incomplete,false,NA,true,8,21,NA,right,E4_Q2_ansL.png,E4_Q3_ansL.png,within,NA,NaN,NA,right,3366.899999976158,1,0,1249.1000000238419
dGjA5Pfo,NA,NA,dGjA5Pfo,2020-0188,2021-09-22,10:35:38,11:49:10,NA,incomplete,false,NA,true,8,22,NA,left,E21_Q2_ansL.png,E21_Q8_ansL.png,within,NA,NaN,NA,right,1994.6999999284744,0,0,1197.9000000953674
dGjA5Pfo,NA,NA,dGjA5Pfo,2020-0188,2021-09-22,10:35:38,11:49:10,NA,incomplete,false,NA,true,8,23,NA,right,E9_Q5_ansL.png,E9_Q2_ansR.png,within,NA,NaN,NA,left,2349.1999999284744,0,0,1487.8000000715256
dGjA5Pfo,NA,NA,dGjA5Pfo,2020-0188,2021-09-22,10:35:38,11:49:10,NA,incomplete,false,NA,true,8,24,NA,left,E9_Q3_ansL.png,E9_Q4_ansL.png,within,NA,NaN,NA,right,1191.1999999284744,0,0,1297.2000000476837
dGjA5Pfo,NA,NA,dGjA5Pfo,2020-0188,2021-09-22,10:35:38,11:49:10,NA,incomplete,false,NA,true,8,25,NA,right,E9_Q9_ansL.png,E9_Q1_ansR.png,within,NA,NaN,NA,right,1526,1,0,1287.2999999523163
dGjA5Pfo,NA,NA,dGjA5Pfo,2020-0188,2021-09-22,10:35:38,11:49:10,NA,incomplete,false,NA,true,8,26,NA,left,E21_Q3_ansR.png,E21_Q6_ansR.png,within,NA,NaN,NA,left,2224,1,0,1140.5
dGjA5Pfo,NA,NA,dGjA5Pfo,2020-0188,2021-09-22,10:35:38,11:49:10,NA,incomplete,false,true,NA,9,0,E29_Q7_ansL.png,left,NA,NA,NA,left,1221.59999990463,true,NA,NA,NA,NA,NA
dGjA5Pfo,NA,NA,dGjA5Pfo,2020-0188,2021-09-22,10:35:38,11:49:10,NA,incomplete,false,true,NA,9,1,E29_Q5_ansR.png,right,NA,NA,NA,right,1330.30000007153,true,NA,NA,NA,NA,NA
dGjA5Pfo,NA,NA,dGjA5Pfo,2020-0188,2021-09-22,10:35:38,11:49:10,NA,incomplete,false,true,NA,9,2,E29_Q2_ansL.png,left,NA,NA,NA,none,0,false,NA,NA,NA,NA,NA
dGjA5Pfo,NA,NA,dGjA5Pfo,2020-0188,2021-09-22,10:35:38,11:49:10,NA,incomplete,false,true,NA,9,3,E29_Q8_ansL.png,left,NA,NA,NA,left,2947.30000007153,true,NA,NA,NA,NA,NA
dGjA5Pfo,NA,NA,dGjA5Pfo,2020-0188,2021-09-22,10:35:38,11:49:10,NA,incomplete,false,true,NA,9,4,E29_Q6_ansR.png,right,NA,NA,NA,left,2118.39999997616,false,NA,NA,NA,NA,NA
dGjA5Pfo,NA,NA,dGjA5Pfo,2020-0188,2021-09-22,10:35:38,11:49:10,NA,incomplete,false,true,NA,9,5,E29_Q9_ansR.png,right,NA,NA,NA,right,1069,true,NA,NA,NA,NA,NA
dGjA5Pfo,NA,NA,dGjA5Pfo,2020-0188,2021-09-22,10:35:38,11:49:10,NA,incomplete,false,true,NA,9,6,E29_Q4_ansR.png,right,NA,NA,NA,right,1030.5,true,NA,NA,NA,NA,NA
dGjA5Pfo,NA,NA,dGjA5Pfo,2020-0188,2021-09-22,10:35:38,11:49:10,NA,incomplete,false,true,NA,9,7,E29_Q1_ansL.png,left,NA,NA,NA,left,1129.80000007153,true,NA,NA,NA,NA,NA
dGjA5Pfo,NA,NA,dGjA5Pfo,2020-0188,2021-09-22,10:35:38,11:49:10,NA,incomplete,false,true,NA,9,8,E29_Q3_ansR.png,right,NA,NA,NA,right,1274.69999992847,true,NA,NA,NA,NA,NA
dGjA5Pfo,NA,NA,dGjA5Pfo,2020-0188,2021-09-22,10:35:38,11:49:10,NA,incomplete,false,true,NA,9,9,E29_Q10_ansL.png,left,NA,NA,NA,left,1228.5,true,NA,NA,NA,NA,NA
dGjA5Pfo,NA,NA,dGjA5Pfo,2020-0188,2021-09-22,10:35:38,11:49:10,NA,incomplete,false,true,NA,9,10,E18_Q8_ansL.png,left,NA,NA,NA,left,1964.69999992847,true,NA,NA,NA,NA,NA
dGjA5Pfo,NA,NA,dGjA5Pfo,2020-0188,2021-09-22,10:35:38,11:49:10,NA,incomplete,false,true,NA,9,11,E18_Q7_ansL.png,left,NA,NA,NA,left,1274.29999995232,true,NA,NA,NA,NA,NA
dGjA5Pfo,NA,NA,dGjA5Pfo,2020-0188,2021-09-22,10:35:38,11:49:10,NA,incomplete,false,true,NA,9,12,E18_Q9_ansR.png,right,NA,NA,NA,right,2068.5,true,NA,NA,NA,NA,NA
dGjA5Pfo,NA,NA,dGjA5Pfo,2020-0188,2021-09-22,10:35:38,11:49:10,NA,incomplete,false,true,NA,9,13,E18_Q2_ansL.png,left,NA,NA,NA,left,1899.5,true,NA,NA,NA,NA,NA
dGjA5Pfo,NA,NA,dGjA5Pfo,2020-0188,2021-09-22,10:35:38,11:49:10,NA,incomplete,false,true,NA,9,14,E18_Q6_ansR.png,right,NA,NA,NA,right,1847.80000007153,true,NA,NA,NA,NA,NA
dGjA5Pfo,NA,NA,dGjA5Pfo,2020-0188,2021-09-22,10:35:38,11:49:10,NA,incomplete,false,true,NA,9,15,E18_Q4_ansR.png,right,NA,NA,NA,right,1684.39999997616,true,NA,NA,NA,NA,NA
dGjA5Pfo,NA,NA,dGjA5Pfo,2020-0188,2021-09-22,10:35:38,11:49:10,NA,incomplete,false,true,NA,9,16,E18_Q5_ansR.png,right,NA,NA,NA,right,1341.19999992847,true,NA,NA,NA,NA,NA
dGjA5Pfo,NA,NA,dGjA5Pfo,2020-0188,2021-09-22,10:35:38,11:49:10,NA,incomplete,false,true,NA,9,17,E18_Q1_ansL.png,left,NA,NA,NA,left,2987.80000007153,true,NA,NA,NA,NA,NA
dGjA5Pfo,NA,NA,dGjA5Pfo,2020-0188,2021-09-22,10:35:38,11:49:10,NA,incomplete,false,true,NA,9,18,E18_Q10_ansL.png,left,NA,NA,NA,left,2282.5,true,NA,NA,NA,NA,NA
dGjA5Pfo,NA,NA,dGjA5Pfo,2020-0188,2021-09-22,10:35:38,11:49:10,NA,incomplete,false,true,NA,9,19,E18_Q3_ansR.png,right,NA,NA,NA,right,1761,true,NA,NA,NA,NA,NA
dGjA5Pfo,NA,NA,dGjA5Pfo,2020-0188,2021-09-22,10:35:38,11:49:10,NA,incomplete,false,true,NA,9,20,E10_Q3_ansL.png,left,NA,NA,NA,none,0,false,NA,NA,NA,NA,NA
dGjA5Pfo,NA,NA,dGjA5Pfo,2020-0188,2021-09-22,10:35:38,11:49:10,NA,incomplete,false,true,NA,9,21,E10_Q1_ansL.png,left,NA,NA,NA,left,2126.5,true,NA,NA,NA,NA,NA
dGjA5Pfo,NA,NA,dGjA5Pfo,2020-0188,2021-09-22,10:35:38,11:49:10,NA,incomplete,false,true,NA,9,22,E10_Q6_ansR.png,right,NA,NA,NA,right,2452,true,NA,NA,NA,NA,NA
dGjA5Pfo,NA,NA,dGjA5Pfo,2020-0188,2021-09-22,10:35:38,11:49:10,NA,incomplete,false,true,NA,9,23,E10_Q2_ansL.png,left,NA,NA,NA,left,2992.60000002384,true,NA,NA,NA,NA,NA
dGjA5Pfo,NA,NA,dGjA5Pfo,2020-0188,2021-09-22,10:35:38,11:49:10,NA,incomplete,false,true,NA,9,24,E10_Q10_ansR.png,right,NA,NA,NA,right,2242.39999997616,true,NA,NA,NA,NA,NA
dGjA5Pfo,NA,NA,dGjA5Pfo,2020-0188,2021-09-22,10:35:38,11:49:10,NA,incomplete,false,true,NA,9,25,E10_Q4_ansL.png,left,NA,NA,NA,left,3008.5,true,NA,NA,NA,NA,NA
dGjA5Pfo,NA,NA,dGjA5Pfo,2020-0188,2021-09-22,10:35:38,11:49:10,NA,incomplete,false,true,NA,9,26,E10_Q7_ansR.png,right,NA,NA,NA,right,1759.5,true,NA,NA,NA,NA,NA
dGjA5Pfo,NA,NA,dGjA5Pfo,2020-0188,2021-09-22,10:35:38,11:49:10,NA,incomplete,false,true,NA,9,27,E10_Q8_ansR.png,right,NA,NA,NA,right,2286.79999995232,true,NA,NA,NA,NA,NA
dGjA5Pfo,NA,NA,dGjA5Pfo,2020-0188,2021-09-22,10:35:38,11:49:10,NA,incomplete,false,true,NA,9,28,E10_Q9_ansL.png,left,NA,NA,NA,left,2880.20000004768,true,NA,NA,NA,NA,NA
dGjA5Pfo,NA,NA,dGjA5Pfo,2020-0188,2021-09-22,10:35:38,11:49:10,NA,incomplete,false,true,NA,9,29,E10_Q5_ansR.png,right,NA,NA,NA,right,2245.5,true,NA,NA,NA,NA,NA
dGjA5Pfo,NA,NA,dGjA5Pfo,2020-0188,2021-09-22,10:35:38,11:49:10,NA,incomplete,false,NA,true,9,0,NA,left,E18_Q8_ansL.png,E18_Q2_ansL.png,within,NA,NaN,NA,left,2446.6999999284744,1,0,1261.8999999761581
dGjA5Pfo,NA,NA,dGjA5Pfo,2020-0188,2021-09-22,10:35:38,11:49:10,NA,incomplete,false,NA,true,9,1,NA,left,E18_Q3_ansR.png,E10_Q6_ansR.png,between,NA,NaN,NA,left,1836.3999999761581,1,2,2514.399999976158
dGjA5Pfo,NA,NA,dGjA5Pfo,2020-0188,2021-09-22,10:35:38,11:49:10,NA,incomplete,false,NA,true,9,2,NA,right,E18_Q1_ansL.png,E18_Q6_ansR.png,within,NA,NaN,NA,right,3482.7999999523163,1,0,2872.5
dGjA5Pfo,NA,NA,dGjA5Pfo,2020-0188,2021-09-22,10:35:38,11:49:10,NA,incomplete,false,NA,true,9,3,NA,right,E10_Q8_ansR.png,E10_Q10_ansR.png,within,NA,NaN,NA,right,2035.1999999284744,1,0,1221
dGjA5Pfo,NA,NA,dGjA5Pfo,2020-0188,2021-09-22,10:35:38,11:49:10,NA,incomplete,false,NA,true,9,4,NA,right,E29_Q4_ansR.png,E29_Q8_ansL.png,within,NA,NaN,NA,right,2486,1,0,999.6000000238419
dGjA5Pfo,NA,NA,dGjA5Pfo,2020-0188,2021-09-22,10:35:38,11:49:10,NA,incomplete,false,NA,true,9,5,NA,right,E18_Q10_ansL.png,E18_Q4_ansR.png,within,NA,NaN,NA,left,1775.3999999761581,0,0,1090.5999999046326
dGjA5Pfo,NA,NA,dGjA5Pfo,2020-0188,2021-09-22,10:35:38,11:49:10,NA,incomplete,false,NA,true,9,6,NA,left,E29_Q2_ansL.png,E29_Q9_ansR.png,within,NA,NaN,NA,left,1420.2999999523163,1,0,2973.5
dGjA5Pfo,NA,NA,dGjA5Pfo,2020-0188,2021-09-22,10:35:38,11:49:10,NA,incomplete,false,NA,true,9,7,NA,left,E29_Q10_ansL.png,E18_Q9_ansR.png,between,NA,NaN,NA,left,2800.2000000476837,1,2,2600.6999999284744
dGjA5Pfo,NA,NA,dGjA5Pfo,2020-0188,2021-09-22,10:35:38,11:49:10,NA,incomplete,false,NA,true,9,8,NA,left,E10_Q4_ansL.png,E10_Q9_ansL.png,within,NA,NaN,NA,left,2438.2999999523163,1,0,2110.2000000476837
dGjA5Pfo,NA,NA,dGjA5Pfo,2020-0188,2021-09-22,10:35:38,11:49:10,NA,incomplete,false,NA,true,9,9,NA,left,E29_Q7_ansL.png,E29_Q8_ansL.png,within,NA,NaN,NA,left,2216.3000000715256,1,0,1230.8000000715256
dGjA5Pfo,NA,NA,dGjA5Pfo,2020-0188,2021-09-22,10:35:38,11:49:10,NA,incomplete,false,NA,true,9,10,NA,right,E10_Q2_ansL.png,E10_Q3_ansL.png,within,NA,NaN,NA,left,1828.6000000238419,0,0,2067.5
dGjA5Pfo,NA,NA,dGjA5Pfo,2020-0188,2021-09-22,10:35:38,11:49:10,NA,incomplete,false,NA,true,9,11,NA,right,E18_Q5_ansR.png,E18_Q2_ansL.png,within,NA,NaN,NA,left,1502.5,0,0,1124.1999999284744
dGjA5Pfo,NA,NA,dGjA5Pfo,2020-0188,2021-09-22,10:35:38,11:49:10,NA,incomplete,false,NA,true,9,12,NA,right,E29_Q3_ansR.png,E29_Q9_ansR.png,within,NA,NaN,NA,right,1216.2000000476837,1,0,1156.8999999761581
dGjA5Pfo,NA,NA,dGjA5Pfo,2020-0188,2021-09-22,10:35:38,11:49:10,NA,incomplete,false,NA,true,9,13,NA,right,E18_Q8_ansL.png,E29_Q1_ansL.png,between,NA,NaN,NA,right,4172,1,2,2276.600000023842
