workerId,hitId,assignmentId,subject,studyid,exp_date,exp_start,exp_end,time_start,time_end,practice,encoding,memory,block,trial,stim,answer,left_image,right_image,condition,response,response_time,response_acc,order_response,order_response_time,order_acc,distance_response,distance_response_time
DreDQE9V,NA,NA,DreDQE9V,2020-0188,2021-09-19,14:49:05,15:40:39,NA,incomplete,true,true,NA,0,0,E12_Q9_ansR.png,right,NA,NA,NA,right,1153.29999999702,true,NA,NA,NA,NA,NA
DreDQE9V,NA,NA,DreDQE9V,2020-0188,2021-09-19,14:49:05,15:40:39,NA,incomplete,true,true,NA,0,1,E12_Q2_ansL.png,left,NA,NA,NA,left,1223.79999999702,true,NA,NA,NA,NA,NA
DreDQE9V,NA,NA,DreDQE9V,2020-0188,2021-09-19,14:49:05,15:40:39,NA,incomplete,true,true,NA,0,2,E12_Q1_ansL.png,left,NA,NA,NA,left,1115.40000000596,true,NA,NA,NA,NA,NA
DreDQE9V,NA,NA,DreDQE9V,2020-0188,2021-09-19,14:49:05,15:40:39,NA,incomplete,true,true,NA,0,3,E12_Q8_ansL.png,left,NA,NA,NA,left,988.899999991059,true,NA,NA,NA,NA,NA
DreDQE9V,NA,NA,DreDQE9V,2020-0188,2021-09-19,14:49:05,15:40:39,NA,incomplete,true,true,NA,0,4,E12_Q3_ansR.png,right,NA,NA,NA,right,911.90000000596,true,NA,NA,NA,NA,NA
DreDQE9V,NA,NA,DreDQE9V,2020-0188,2021-09-19,14:49:05,15:40:39,NA,incomplete,true,true,NA,0,5,E12_Q4_ansR.png,right,NA,NA,NA,right,1420.5,true,NA,NA,NA,NA,NA
DreDQE9V,NA,NA,DreDQE9V,2020-0188,2021-09-19,14:49:05,15:40:39,NA,incomplete,true,true,NA,0,6,E12_Q7_ansL.png,left,NA,NA,NA,left,872.59999999404,true,NA,NA,NA,NA,NA
DreDQE9V,NA,NA,DreDQE9V,2020-0188,2021-09-19,14:49:05,15:40:39,NA,incomplete,true,true,NA,0,7,E12_Q10_ansL.png,left,NA,NA,NA,left,1047.5,true,NA,NA,NA,NA,NA
DreDQE9V,NA,NA,DreDQE9V,2020-0188,2021-09-19,14:49:05,15:40:39,NA,incomplete,true,true,NA,0,8,E12_Q6_ansR.png,right,NA,NA,NA,right,1292.59999999404,true,NA,NA,NA,NA,NA
DreDQE9V,NA,NA,DreDQE9V,2020-0188,2021-09-19,14:49:05,15:40:39,NA,incomplete,true,true,NA,0,9,E12_Q5_ansR.png,right,NA,NA,NA,right,1353.79999999702,true,NA,NA,NA,NA,NA
DreDQE9V,NA,NA,DreDQE9V,2020-0188,2021-09-19,14:49:05,15:40:39,NA,incomplete,true,true,NA,0,10,E1_Q1_ansL.png,left,NA,NA,NA,left,1895.59999999404,true,NA,NA,NA,NA,NA
DreDQE9V,NA,NA,DreDQE9V,2020-0188,2021-09-19,14:49:05,15:40:39,NA,incomplete,true,true,NA,0,11,E1_Q5_ansR.png,right,NA,NA,NA,right,1313.29999999702,true,NA,NA,NA,NA,NA
DreDQE9V,NA,NA,DreDQE9V,2020-0188,2021-09-19,14:49:05,15:40:39,NA,incomplete,true,true,NA,0,12,E1_Q6_ansR.png,right,NA,NA,NA,left,1579.29999999702,false,NA,NA,NA,NA,NA
DreDQE9V,NA,NA,DreDQE9V,2020-0188,2021-09-19,14:49:05,15:40:39,NA,incomplete,true,true,NA,0,13,E1_Q10_ansR.png,right,NA,NA,NA,right,893.79999999702,true,NA,NA,NA,NA,NA
DreDQE9V,NA,NA,DreDQE9V,2020-0188,2021-09-19,14:49:05,15:40:39,NA,incomplete,true,true,NA,0,14,E1_Q9_ansL.png,left,NA,NA,NA,left,1075,true,NA,NA,NA,NA,NA
DreDQE9V,NA,NA,DreDQE9V,2020-0188,2021-09-19,14:49:05,15:40:39,NA,incomplete,true,true,NA,0,15,E1_Q3_ansR.png,right,NA,NA,NA,right,1061.20000000298,true,NA,NA,NA,NA,NA
DreDQE9V,NA,NA,DreDQE9V,2020-0188,2021-09-19,14:49:05,15:40:39,NA,incomplete,true,true,NA,0,16,E1_Q4_ansL.png,left,NA,NA,NA,left,936.40000000596,true,NA,NA,NA,NA,NA
DreDQE9V,NA,NA,DreDQE9V,2020-0188,2021-09-19,14:49:05,15:40:39,NA,incomplete,true,true,NA,0,17,E1_Q2_ansL.png,left,NA,NA,NA,left,1936.10000000894,true,NA,NA,NA,NA,NA
DreDQE9V,NA,NA,DreDQE9V,2020-0188,2021-09-19,14:49:05,15:40:39,NA,incomplete,true,true,NA,0,18,E1_Q8_ansR.png,right,NA,NA,NA,right,1007.19999998808,true,NA,NA,NA,NA,NA
DreDQE9V,NA,NA,DreDQE9V,2020-0188,2021-09-19,14:49:05,15:40:39,NA,incomplete,true,true,NA,0,19,E1_Q7_ansL.png,left,NA,NA,NA,left,801.90000000596,true,NA,NA,NA,NA,NA
DreDQE9V,NA,NA,DreDQE9V,2020-0188,2021-09-19,14:49:05,15:40:39,NA,incomplete,true,true,NA,0,20,E13_Q6_ansR.png,right,NA,NA,NA,right,1197.39999999106,true,NA,NA,NA,NA,NA
DreDQE9V,NA,NA,DreDQE9V,2020-0188,2021-09-19,14:49:05,15:40:39,NA,incomplete,true,true,NA,0,21,E13_Q2_ansL.png,left,NA,NA,NA,left,888.40000000596,true,NA,NA,NA,NA,NA
DreDQE9V,NA,NA,DreDQE9V,2020-0188,2021-09-19,14:49:05,15:40:39,NA,incomplete,true,true,NA,0,22,E13_Q9_ansR.png,right,NA,NA,NA,right,993,true,NA,NA,NA,NA,NA
DreDQE9V,NA,NA,DreDQE9V,2020-0188,2021-09-19,14:49:05,15:40:39,NA,incomplete,true,true,NA,0,23,E13_Q1_ansL.png,left,NA,NA,NA,left,1002.90000000596,true,NA,NA,NA,NA,NA
DreDQE9V,NA,NA,DreDQE9V,2020-0188,2021-09-19,14:49:05,15:40:39,NA,incomplete,true,true,NA,0,24,E13_Q8_ansL.png,left,NA,NA,NA,left,999.5,true,NA,NA,NA,NA,NA
DreDQE9V,NA,NA,DreDQE9V,2020-0188,2021-09-19,14:49:05,15:40:39,NA,incomplete,true,true,NA,0,25,E13_Q7_ansL.png,left,NA,NA,NA,left,1017.09999999404,true,NA,NA,NA,NA,NA
DreDQE9V,NA,NA,DreDQE9V,2020-0188,2021-09-19,14:49:05,15:40:39,NA,incomplete,true,true,NA,0,26,E13_Q4_ansR.png,right,NA,NA,NA,right,913.09999999404,true,NA,NA,NA,NA,NA
DreDQE9V,NA,NA,DreDQE9V,2020-0188,2021-09-19,14:49:05,15:40:39,NA,incomplete,true,true,NA,0,27,E13_Q5_ansR.png,right,NA,NA,NA,right,954.300000011921,true,NA,NA,NA,NA,NA
DreDQE9V,NA,NA,DreDQE9V,2020-0188,2021-09-19,14:49:05,15:40:39,NA,incomplete,true,true,NA,0,28,E13_Q3_ansR.png,right,NA,NA,NA,right,933.90000000596,true,NA,NA,NA,NA,NA
DreDQE9V,NA,NA,DreDQE9V,2020-0188,2021-09-19,14:49:05,15:40:39,NA,incomplete,true,true,NA,0,29,E13_Q10_ansL.png,left,NA,NA,NA,left,871.70000000298,true,NA,NA,NA,NA,NA
DreDQE9V,NA,NA,DreDQE9V,2020-0188,2021-09-19,14:49:05,15:40:39,NA,incomplete,true,NA,true,0,0,NA,left,E1_Q4_ansL.png,E1_Q7_ansL.png,within,NA,NaN,NA,left,3567.5999999940395,1,1,2181.5999999940395
DreDQE9V,NA,NA,DreDQE9V,2020-0188,2021-09-19,14:49:05,15:40:39,NA,incomplete,true,NA,true,0,1,NA,left,E12_Q9_ansR.png,E12_Q8_ansL.png,within,NA,NaN,NA,left,1505.2999999970198,1,1,880.6999999880791
DreDQE9V,NA,NA,DreDQE9V,2020-0188,2021-09-19,14:49:05,15:40:39,NA,incomplete,true,NA,true,0,2,NA,right,E12_Q6_ansR.png,E12_Q4_ansR.png,within,NA,NaN,NA,right,1879.2000000029802,1,0,1701
DreDQE9V,NA,NA,DreDQE9V,2020-0188,2021-09-19,14:49:05,15:40:39,NA,incomplete,true,NA,true,0,3,NA,right,E12_Q5_ansR.png,E12_Q7_ansL.png,within,NA,NaN,NA,right,1723.4000000059605,1,1,1853.6000000089407
DreDQE9V,NA,NA,DreDQE9V,2020-0188,2021-09-19,14:49:05,15:40:39,NA,incomplete,true,NA,true,0,4,NA,right,E13_Q9_ansR.png,E1_Q7_ansL.png,between,NA,NaN,NA,right,1634.0999999940395,1,2,1519.699999988079
DreDQE9V,NA,NA,DreDQE9V,2020-0188,2021-09-19,14:49:05,15:40:39,NA,incomplete,true,NA,true,0,5,NA,left,E13_Q6_ansR.png,E13_Q1_ansL.png,within,NA,NaN,NA,left,1128.5999999940395,1,1,955.7000000029802
DreDQE9V,NA,NA,DreDQE9V,2020-0188,2021-09-19,14:49:05,15:40:39,NA,incomplete,true,NA,true,0,6,NA,right,E13_Q5_ansR.png,E13_Q8_ansL.png,within,NA,NaN,NA,right,1334.2000000029802,1,1,1062.199999988079
DreDQE9V,NA,NA,DreDQE9V,2020-0188,2021-09-19,14:49:05,15:40:39,NA,incomplete,true,NA,true,0,7,NA,left,E13_Q1_ansL.png,E13_Q4_ansR.png,within,NA,NaN,NA,left,1430.800000011921,1,1,1471
DreDQE9V,NA,NA,DreDQE9V,2020-0188,2021-09-19,14:49:05,15:40:39,NA,incomplete,true,NA,true,0,8,NA,right,E13_Q6_ansR.png,E1_Q2_ansL.png,between,NA,NaN,NA,right,1201.8999999910593,1,2,898
DreDQE9V,NA,NA,DreDQE9V,2020-0188,2021-09-19,14:49:05,15:40:39,NA,incomplete,true,NA,true,0,9,NA,right,E1_Q5_ansR.png,E12_Q6_ansR.png,between,NA,NaN,NA,right,2208.699999988079,1,2,1021.1999999880791
DreDQE9V,NA,NA,DreDQE9V,2020-0188,2021-09-19,14:49:05,15:40:39,NA,incomplete,true,NA,true,0,10,NA,right,E1_Q2_ansL.png,E1_Q9_ansL.png,within,NA,NaN,NA,right,2749.5999999940395,1,1,816.2999999970198
DreDQE9V,NA,NA,DreDQE9V,2020-0188,2021-09-19,14:49:05,15:40:39,NA,incomplete,true,NA,true,0,11,NA,left,E12_Q3_ansR.png,E12_Q10_ansL.png,within,NA,NaN,NA,left,2242.9000000059605,1,1,2085.7999999970198
DreDQE9V,NA,NA,DreDQE9V,2020-0188,2021-09-19,14:49:05,15:40:39,NA,incomplete,true,NA,true,0,12,NA,right,E12_Q7_ansL.png,E12_Q8_ansL.png,within,NA,NaN,NA,right,2438.2000000029802,1,1,996
DreDQE9V,NA,NA,DreDQE9V,2020-0188,2021-09-19,14:49:05,15:40:39,NA,incomplete,true,NA,true,0,13,NA,left,E1_Q8_ansR.png,E13_Q2_ansL.png,between,NA,NaN,NA,left,1594.5,1,2,1347.9000000059605
DreDQE9V,NA,NA,DreDQE9V,2020-0188,2021-09-19,14:49:05,15:40:39,NA,incomplete,true,NA,true,0,14,NA,left,E12_Q10_ansL.png,E1_Q1_ansL.png,between,NA,NaN,NA,right,1176.9000000059605,0,2,857.2999999970198
DreDQE9V,NA,NA,DreDQE9V,2020-0188,2021-09-19,14:49:05,15:40:39,NA,incomplete,true,NA,true,0,15,NA,left,E1_Q5_ansR.png,E1_Q9_ansL.png,within,NA,NaN,NA,left,2184.0999999940395,1,1,1536.6000000089407
DreDQE9V,NA,NA,DreDQE9V,2020-0188,2021-09-19,14:49:05,15:40:39,NA,incomplete,true,NA,true,0,16,NA,right,E1_Q10_ansR.png,E1_Q1_ansL.png,within,NA,NaN,NA,right,2060.9000000059605,1,1,1520.0999999940395
DreDQE9V,NA,NA,DreDQE9V,2020-0188,2021-09-19,14:49:05,15:40:39,NA,incomplete,true,NA,true,0,17,NA,left,E12_Q5_ansR.png,E1_Q6_ansR.png,between,NA,NaN,NA,left,1038.7000000029802,1,2,1324
DreDQE9V,NA,NA,DreDQE9V,2020-0188,2021-09-19,14:49:05,15:40:39,NA,incomplete,true,NA,true,0,18,NA,left,E13_Q4_ansR.png,E13_Q10_ansL.png,within,NA,NaN,NA,right,1341,0,1,1021.2000000029802
DreDQE9V,NA,NA,DreDQE9V,2020-0188,2021-09-19,14:49:05,15:40:39,NA,incomplete,true,NA,true,0,19,NA,left,E12_Q1_ansL.png,E12_Q4_ansR.png,within,NA,NaN,NA,left,1399.3999999910593,1,1,963.8999999910593
DreDQE9V,NA,NA,DreDQE9V,2020-0188,2021-09-19,14:49:05,15:40:39,NA,incomplete,true,NA,true,0,20,NA,right,E13_Q8_ansL.png,E13_Q2_ansL.png,within,NA,NaN,NA,right,1308,1,1,1692.199999988079
DreDQE9V,NA,NA,DreDQE9V,2020-0188,2021-09-19,14:49:05,15:40:39,NA,incomplete,true,NA,true,0,21,NA,left,E12_Q2_ansL.png,E12_Q3_ansR.png,within,NA,NaN,NA,left,1488.2999999970198,1,1,1495.9000000059605
DreDQE9V,NA,NA,DreDQE9V,2020-0188,2021-09-19,14:49:05,15:40:39,NA,incomplete,true,NA,true,0,22,NA,left,E13_Q7_ansL.png,E13_Q3_ansR.png,within,NA,NaN,NA,left,1358.2000000029802,1,1,1806.7999999970198
DreDQE9V,NA,NA,DreDQE9V,2020-0188,2021-09-19,14:49:05,15:40:39,NA,incomplete,true,NA,true,0,23,NA,left,E1_Q6_ansR.png,E1_Q3_ansR.png,within,NA,NaN,NA,left,4079.4000000059605,1,0,2961.6000000089407
DreDQE9V,NA,NA,DreDQE9V,2020-0188,2021-09-19,14:49:05,15:40:39,NA,incomplete,true,NA,true,0,24,NA,right,E1_Q8_ansR.png,E1_Q3_ansR.png,within,NA,NaN,NA,right,9049.29999999702,1,0,1643.5
DreDQE9V,NA,NA,DreDQE9V,2020-0188,2021-09-19,14:49:05,15:40:39,NA,incomplete,true,NA,true,0,25,NA,left,E13_Q9_ansR.png,E13_Q7_ansL.png,within,NA,NaN,NA,left,2741,1,0,1749.7000000029802
DreDQE9V,NA,NA,DreDQE9V,2020-0188,2021-09-19,14:49:05,15:40:39,NA,incomplete,true,NA,true,0,26,NA,right,E1_Q4_ansL.png,E1_Q10_ansR.png,within,NA,NaN,NA,left,3387,0,1,979.2999999970198
DreDQE9V,NA,NA,DreDQE9V,2020-0188,2021-09-19,14:49:05,15:40:39,NA,incomplete,false,true,NA,1,0,E24_Q3_ansL.png,left,NA,NA,NA,left,1427.79999999702,true,NA,NA,NA,NA,NA
DreDQE9V,NA,NA,DreDQE9V,2020-0188,2021-09-19,14:49:05,15:40:39,NA,incomplete,false,true,NA,1,1,E24_Q2_ansR.png,right,NA,NA,NA,right,1453.79999999702,true,NA,NA,NA,NA,NA
DreDQE9V,NA,NA,DreDQE9V,2020-0188,2021-09-19,14:49:05,15:40:39,NA,incomplete,false,true,NA,1,2,E24_Q5_ansL.png,left,NA,NA,NA,left,893.29999999702,true,NA,NA,NA,NA,NA
DreDQE9V,NA,NA,DreDQE9V,2020-0188,2021-09-19,14:49:05,15:40:39,NA,incomplete,false,true,NA,1,3,E24_Q6_ansL.png,left,NA,NA,NA,left,870.5,true,NA,NA,NA,NA,NA
DreDQE9V,NA,NA,DreDQE9V,2020-0188,2021-09-19,14:49:05,15:40:39,NA,incomplete,false,true,NA,1,4,E24_Q4_ansL.png,left,NA,NA,NA,left,1651,true,NA,NA,NA,NA,NA
DreDQE9V,NA,NA,DreDQE9V,2020-0188,2021-09-19,14:49:05,15:40:39,NA,incomplete,false,true,NA,1,5,E24_Q10_ansR.png,right,NA,NA,NA,right,1278.19999998808,true,NA,NA,NA,NA,NA
DreDQE9V,NA,NA,DreDQE9V,2020-0188,2021-09-19,14:49:05,15:40:39,NA,incomplete,false,true,NA,1,6,E24_Q9_ansL.png,left,NA,NA,NA,left,1108.30000001192,true,NA,NA,NA,NA,NA
DreDQE9V,NA,NA,DreDQE9V,2020-0188,2021-09-19,14:49:05,15:40:39,NA,incomplete,false,true,NA,1,7,E24_Q8_ansR.png,right,NA,NA,NA,right,1156.29999999702,true,NA,NA,NA,NA,NA
DreDQE9V,NA,NA,DreDQE9V,2020-0188,2021-09-19,14:49:05,15:40:39,NA,incomplete,false,true,NA,1,8,E24_Q7_ansR.png,right,NA,NA,NA,right,982.399999991059,true,NA,NA,NA,NA,NA
DreDQE9V,NA,NA,DreDQE9V,2020-0188,2021-09-19,14:49:05,15:40:39,NA,incomplete,false,true,NA,1,9,E24_Q1_ansR.png,right,NA,NA,NA,right,1498.5,true,NA,NA,NA,NA,NA
DreDQE9V,NA,NA,DreDQE9V,2020-0188,2021-09-19,14:49:05,15:40:39,NA,incomplete,false,true,NA,1,10,E21_Q3_ansR.png,right,NA,NA,NA,right,1412.5,true,NA,NA,NA,NA,NA
DreDQE9V,NA,NA,DreDQE9V,2020-0188,2021-09-19,14:49:05,15:40:39,NA,incomplete,false,true,NA,1,11,E21_Q8_ansL.png,left,NA,NA,NA,left,1059,true,NA,NA,NA,NA,NA
DreDQE9V,NA,NA,DreDQE9V,2020-0188,2021-09-19,14:49:05,15:40:39,NA,incomplete,false,true,NA,1,12,E21_Q9_ansR.png,right,NA,NA,NA,right,969.5,true,NA,NA,NA,NA,NA
DreDQE9V,NA,NA,DreDQE9V,2020-0188,2021-09-19,14:49:05,15:40:39,NA,incomplete,false,true,NA,1,13,E21_Q1_ansL.png,left,NA,NA,NA,left,1064.09999999404,true,NA,NA,NA,NA,NA
DreDQE9V,NA,NA,DreDQE9V,2020-0188,2021-09-19,14:49:05,15:40:39,NA,incomplete,false,true,NA,1,14,E21_Q10_ansL.png,left,NA,NA,NA,left,982.59999999404,true,NA,NA,NA,NA,NA
DreDQE9V,NA,NA,DreDQE9V,2020-0188,2021-09-19,14:49:05,15:40:39,NA,incomplete,false,true,NA,1,15,E21_Q4_ansR.png,right,NA,NA,NA,right,1043.5,true,NA,NA,NA,NA,NA
DreDQE9V,NA,NA,DreDQE9V,2020-0188,2021-09-19,14:49:05,15:40:39,NA,incomplete,false,true,NA,1,16,E21_Q6_ansR.png,right,NA,NA,NA,right,1084.60000000894,true,NA,NA,NA,NA,NA
DreDQE9V,NA,NA,DreDQE9V,2020-0188,2021-09-19,14:49:05,15:40:39,NA,incomplete,false,true,NA,1,17,E21_Q7_ansL.png,left,NA,NA,NA,left,872.40000000596,true,NA,NA,NA,NA,NA
DreDQE9V,NA,NA,DreDQE9V,2020-0188,2021-09-19,14:49:05,15:40:39,NA,incomplete,false,true,NA,1,18,E21_Q2_ansL.png,left,NA,NA,NA,left,874.5,true,NA,NA,NA,NA,NA
DreDQE9V,NA,NA,DreDQE9V,2020-0188,2021-09-19,14:49:05,15:40:39,NA,incomplete,false,true,NA,1,19,E21_Q5_ansR.png,right,NA,NA,NA,right,958.5,true,NA,NA,NA,NA,NA
DreDQE9V,NA,NA,DreDQE9V,2020-0188,2021-09-19,14:49:05,15:40:39,NA,incomplete,false,true,NA,1,20,E29_Q7_ansL.png,left,NA,NA,NA,left,1131.5,true,NA,NA,NA,NA,NA
DreDQE9V,NA,NA,DreDQE9V,2020-0188,2021-09-19,14:49:05,15:40:39,NA,incomplete,false,true,NA,1,21,E29_Q5_ansR.png,right,NA,NA,NA,right,1540.59999999404,true,NA,NA,NA,NA,NA
DreDQE9V,NA,NA,DreDQE9V,2020-0188,2021-09-19,14:49:05,15:40:39,NA,incomplete,false,true,NA,1,22,E29_Q3_ansR.png,right,NA,NA,NA,right,1218.20000000298,true,NA,NA,NA,NA,NA
DreDQE9V,NA,NA,DreDQE9V,2020-0188,2021-09-19,14:49:05,15:40:39,NA,incomplete,false,true,NA,1,23,E29_Q1_ansL.png,left,NA,NA,NA,left,1033,true,NA,NA,NA,NA,NA
DreDQE9V,NA,NA,DreDQE9V,2020-0188,2021-09-19,14:49:05,15:40:39,NA,incomplete,false,true,NA,1,24,E29_Q4_ansR.png,right,NA,NA,NA,right,1131.29999999702,true,NA,NA,NA,NA,NA
DreDQE9V,NA,NA,DreDQE9V,2020-0188,2021-09-19,14:49:05,15:40:39,NA,incomplete,false,true,NA,1,25,E29_Q6_ansR.png,right,NA,NA,NA,right,1257.90000000596,true,NA,NA,NA,NA,NA
DreDQE9V,NA,NA,DreDQE9V,2020-0188,2021-09-19,14:49:05,15:40:39,NA,incomplete,false,true,NA,1,26,E29_Q2_ansL.png,left,NA,NA,NA,left,883.20000000298,true,NA,NA,NA,NA,NA
DreDQE9V,NA,NA,DreDQE9V,2020-0188,2021-09-19,14:49:05,15:40:39,NA,incomplete,false,true,NA,1,27,E29_Q10_ansL.png,left,NA,NA,NA,left,1094.79999999702,true,NA,NA,NA,NA,NA
DreDQE9V,NA,NA,DreDQE9V,2020-0188,2021-09-19,14:49:05,15:40:39,NA,incomplete,false,true,NA,1,28,E29_Q9_ansR.png,right,NA,NA,NA,right,1339.89999999106,true,NA,NA,NA,NA,NA
DreDQE9V,NA,NA,DreDQE9V,2020-0188,2021-09-19,14:49:05,15:40:39,NA,incomplete,false,true,NA,1,29,E29_Q8_ansL.png,left,NA,NA,NA,left,1088.90000000596,true,NA,NA,NA,NA,NA
DreDQE9V,NA,NA,DreDQE9V,2020-0188,2021-09-19,14:49:05,15:40:39,NA,incomplete,false,NA,true,1,0,NA,right,E29_Q4_ansR.png,E29_Q5_ansR.png,within,NA,NaN,NA,right,2066.8999999910593,1,1,1036.4000000059605
DreDQE9V,NA,NA,DreDQE9V,2020-0188,2021-09-19,14:49:05,15:40:39,NA,incomplete,false,NA,true,1,1,NA,left,E29_Q7_ansL.png,E29_Q1_ansL.png,within,NA,NaN,NA,right,1159.4000000059605,0,1,951.5
DreDQE9V,NA,NA,DreDQE9V,2020-0188,2021-09-19,14:49:05,15:40:39,NA,incomplete,false,NA,true,1,2,NA,left,E29_Q2_ansL.png,E29_Q8_ansL.png,within,NA,NaN,NA,left,1151.7999999970198,1,1,864.0999999940395
DreDQE9V,NA,NA,DreDQE9V,2020-0188,2021-09-19,14:49:05,15:40:39,NA,incomplete,false,NA,true,1,3,NA,right,E21_Q6_ansR.png,E21_Q1_ansL.png,within,NA,NaN,NA,right,1838.5999999940395,1,0,1534.9000000059605
DreDQE9V,NA,NA,DreDQE9V,2020-0188,2021-09-19,14:49:05,15:40:39,NA,incomplete,false,NA,true,1,4,NA,left,E24_Q6_ansL.png,E24_Q9_ansL.png,within,NA,NaN,NA,left,4948.9000000059605,1,1,1421
DreDQE9V,NA,NA,DreDQE9V,2020-0188,2021-09-19,14:49:05,15:40:39,NA,incomplete,false,NA,true,1,5,NA,right,E29_Q9_ansR.png,E29_Q6_ansR.png,within,NA,NaN,NA,left,1362.9000000059605,0,1,890
DreDQE9V,NA,NA,DreDQE9V,2020-0188,2021-09-19,14:49:05,15:40:39,NA,incomplete,false,NA,true,1,6,NA,right,E29_Q6_ansR.png,E29_Q3_ansR.png,within,NA,NaN,NA,left,1168.1000000089407,0,1,904.0999999940395
DreDQE9V,NA,NA,DreDQE9V,2020-0188,2021-09-19,14:49:05,15:40:39,NA,incomplete,false,NA,true,1,7,NA,right,E29_Q7_ansL.png,E21_Q7_ansL.png,between,NA,NaN,NA,right,2198.4000000059605,1,2,1194.1000000089407
DreDQE9V,NA,NA,DreDQE9V,2020-0188,2021-09-19,14:49:05,15:40:39,NA,incomplete,false,NA,true,1,8,NA,left,E21_Q8_ansL.png,E21_Q10_ansL.png,within,NA,NaN,NA,left,1858.1000000089407,1,1,743.2000000029802
DreDQE9V,NA,NA,DreDQE9V,2020-0188,2021-09-19,14:49:05,15:40:39,NA,incomplete,false,NA,true,1,9,NA,left,E24_Q10_ansR.png,E24_Q7_ansR.png,within,NA,NaN,NA,right,3069,0,1,1127.5999999940395
DreDQE9V,NA,NA,DreDQE9V,2020-0188,2021-09-19,14:49:05,15:40:39,NA,incomplete,false,NA,true,1,10,NA,right,E29_Q10_ansL.png,E29_Q4_ansR.png,within,NA,NaN,NA,right,4902.29999999702,1,1,1667.8999999910593
DreDQE9V,NA,NA,DreDQE9V,2020-0188,2021-09-19,14:49:05,15:40:39,NA,incomplete,false,NA,true,1,11,NA,right,E24_Q8_ansR.png,E24_Q4_ansL.png,within,NA,NaN,NA,right,3584.3999999910593,1,1,882
DreDQE9V,NA,NA,DreDQE9V,2020-0188,2021-09-19,14:49:05,15:40:39,NA,incomplete,false,NA,true,1,12,NA,left,E24_Q8_ansR.png,E21_Q3_ansR.png,between,NA,NaN,NA,left,1790.2999999970198,1,2,1888.199999988079
DreDQE9V,NA,NA,DreDQE9V,2020-0188,2021-09-19,14:49:05,15:40:39,NA,incomplete,false,NA,true,1,13,NA,right,E24_Q1_ansR.png,E24_Q9_ansL.png,within,NA,NaN,NA,right,1316.2999999970198,1,1,907.0999999940395
DreDQE9V,NA,NA,DreDQE9V,2020-0188,2021-09-19,14:49:05,15:40:39,NA,incomplete,false,NA,true,1,14,NA,right,E21_Q5_ansR.png,E21_Q6_ansR.png,within,NA,NaN,NA,left,1349.3999999910593,0,1,1987.5
DreDQE9V,NA,NA,DreDQE9V,2020-0188,2021-09-19,14:49:05,15:40:39,NA,incomplete,false,NA,true,1,15,NA,right,E21_Q2_ansL.png,E21_Q4_ansR.png,within,NA,NaN,NA,left,1652.2999999970198,0,1,701.4000000059605
DreDQE9V,NA,NA,DreDQE9V,2020-0188,2021-09-19,14:49:05,15:40:39,NA,incomplete,false,NA,true,1,16,NA,right,E21_Q4_ansR.png,E21_Q9_ansR.png,within,NA,NaN,NA,right,816.5,1,1,873.2999999970198
DreDQE9V,NA,NA,DreDQE9V,2020-0188,2021-09-19,14:49:05,15:40:39,NA,incomplete,false,NA,true,1,17,NA,right,E21_Q8_ansL.png,E24_Q7_ansR.png,between,NA,NaN,NA,right,1210.2000000029802,1,2,783.2999999970198
DreDQE9V,NA,NA,DreDQE9V,2020-0188,2021-09-19,14:49:05,15:40:39,NA,incomplete,false,NA,true,1,18,NA,right,E29_Q3_ansR.png,E21_Q5_ansR.png,between,NA,NaN,NA,right,1610.9000000059605,1,2,971.2000000029802
DreDQE9V,NA,NA,DreDQE9V,2020-0188,2021-09-19,14:49:05,15:40:39,NA,incomplete,false,NA,true,1,19,NA,right,E24_Q10_ansR.png,E24_Q5_ansL.png,within,NA,NaN,NA,right,1348.699999988079,1,1,792.2000000029802
DreDQE9V,NA,NA,DreDQE9V,2020-0188,2021-09-19,14:49:05,15:40:39,NA,incomplete,false,NA,true,1,20,NA,right,E29_Q2_ansL.png,E29_Q1_ansL.png,within,NA,NaN,NA,right,2020.1000000089407,1,1,816.4000000059605
DreDQE9V,NA,NA,DreDQE9V,2020-0188,2021-09-19,14:49:05,15:40:39,NA,incomplete,false,NA,true,1,21,NA,right,E24_Q4_ansL.png,E24_Q2_ansR.png,within,NA,NaN,NA,right,1201.7000000029802,1,1,931.0999999940395
DreDQE9V,NA,NA,DreDQE9V,2020-0188,2021-09-19,14:49:05,15:40:39,NA,incomplete,false,NA,true,1,22,NA,left,E24_Q1_ansR.png,E21_Q9_ansR.png,between,NA,NaN,NA,left,2790.7999999970198,1,2,923.0999999940395
DreDQE9V,NA,NA,DreDQE9V,2020-0188,2021-09-19,14:49:05,15:40:39,NA,incomplete,false,NA,true,1,23,NA,left,E24_Q3_ansL.png,E24_Q6_ansL.png,within,NA,NaN,NA,left,1103.8999999910593,1,1,1225.5
DreDQE9V,NA,NA,DreDQE9V,2020-0188,2021-09-19,14:49:05,15:40:39,NA,incomplete,false,NA,true,1,24,NA,right,E21_Q1_ansL.png,E21_Q3_ansR.png,within,NA,NaN,NA,right,1062.7999999970198,1,1,1044.9000000059605
DreDQE9V,NA,NA,DreDQE9V,2020-0188,2021-09-19,14:49:05,15:40:39,NA,incomplete,false,NA,true,1,25,NA,right,E21_Q7_ansL.png,E21_Q10_ansL.png,within,NA,NaN,NA,right,1078.5,1,1,1119.3999999910593
DreDQE9V,NA,NA,DreDQE9V,2020-0188,2021-09-19,14:49:05,15:40:39,NA,incomplete,false,NA,true,1,26,NA,left,E21_Q2_ansL.png,E29_Q5_ansR.png,between,NA,NaN,NA,left,4926.70000000298,1,2,824.7999999970198
DreDQE9V,NA,NA,DreDQE9V,2020-0188,2021-09-19,14:49:05,15:40:39,NA,incomplete,false,true,NA,2,0,E32_Q5_ansR.png,right,NA,NA,NA,right,1440.40000000596,true,NA,NA,NA,NA,NA
DreDQE9V,NA,NA,DreDQE9V,2020-0188,2021-09-19,14:49:05,15:40:39,NA,incomplete,false,true,NA,2,1,E32_Q9_ansR.png,right,NA,NA,NA,right,1239.29999999702,true,NA,NA,NA,NA,NA
DreDQE9V,NA,NA,DreDQE9V,2020-0188,2021-09-19,14:49:05,15:40:39,NA,incomplete,false,true,NA,2,2,E32_Q7_ansL.png,left,NA,NA,NA,left,876.29999999702,true,NA,NA,NA,NA,NA
DreDQE9V,NA,NA,DreDQE9V,2020-0188,2021-09-19,14:49:05,15:40:39,NA,incomplete,false,true,NA,2,3,E32_Q3_ansR.png,right,NA,NA,NA,right,1313.5,true,NA,NA,NA,NA,NA
DreDQE9V,NA,NA,DreDQE9V,2020-0188,2021-09-19,14:49:05,15:40:39,NA,incomplete,false,true,NA,2,4,E32_Q4_ansR.png,right,NA,NA,NA,right,1138.29999999702,true,NA,NA,NA,NA,NA
DreDQE9V,NA,NA,DreDQE9V,2020-0188,2021-09-19,14:49:05,15:40:39,NA,incomplete,false,true,NA,2,5,E32_Q2_ansL.png,left,NA,NA,NA,left,1483.10000000894,true,NA,NA,NA,NA,NA
DreDQE9V,NA,NA,DreDQE9V,2020-0188,2021-09-19,14:49:05,15:40:39,NA,incomplete,false,true,NA,2,6,E32_Q1_ansL.png,left,NA,NA,NA,left,1094.29999999702,true,NA,NA,NA,NA,NA
DreDQE9V,NA,NA,DreDQE9V,2020-0188,2021-09-19,14:49:05,15:40:39,NA,incomplete,false,true,NA,2,7,E32_Q8_ansL.png,left,NA,NA,NA,left,1224.59999999404,true,NA,NA,NA,NA,NA
DreDQE9V,NA,NA,DreDQE9V,2020-0188,2021-09-19,14:49:05,15:40:39,NA,incomplete,false,true,NA,2,8,E32_Q10_ansL.png,left,NA,NA,NA,left,1102.30000001192,true,NA,NA,NA,NA,NA
DreDQE9V,NA,NA,DreDQE9V,2020-0188,2021-09-19,14:49:05,15:40:39,NA,incomplete,false,true,NA,2,9,E32_Q6_ansR.png,right,NA,NA,NA,right,1220.70000000298,true,NA,NA,NA,NA,NA
DreDQE9V,NA,NA,DreDQE9V,2020-0188,2021-09-19,14:49:05,15:40:39,NA,incomplete,false,true,NA,2,10,E5_Q3_ansR.png,right,NA,NA,NA,right,1203.20000000298,true,NA,NA,NA,NA,NA
DreDQE9V,NA,NA,DreDQE9V,2020-0188,2021-09-19,14:49:05,15:40:39,NA,incomplete,false,true,NA,2,11,E5_Q8_ansL.png,left,NA,NA,NA,left,805,true,NA,NA,NA,NA,NA
DreDQE9V,NA,NA,DreDQE9V,2020-0188,2021-09-19,14:49:05,15:40:39,NA,incomplete,false,true,NA,2,12,E5_Q2_ansL.png,left,NA,NA,NA,left,1205.59999999404,true,NA,NA,NA,NA,NA
DreDQE9V,NA,NA,DreDQE9V,2020-0188,2021-09-19,14:49:05,15:40:39,NA,incomplete,false,true,NA,2,13,E5_Q1_ansL.png,left,NA,NA,NA,left,1002.29999999702,true,NA,NA,NA,NA,NA
DreDQE9V,NA,NA,DreDQE9V,2020-0188,2021-09-19,14:49:05,15:40:39,NA,incomplete,false,true,NA,2,14,E5_Q4_ansR.png,right,NA,NA,NA,right,1120.10000000894,true,NA,NA,NA,NA,NA
DreDQE9V,NA,NA,DreDQE9V,2020-0188,2021-09-19,14:49:05,15:40:39,NA,incomplete,false,true,NA,2,15,E5_Q6_ansR.png,right,NA,NA,NA,right,1113.89999999106,true,NA,NA,NA,NA,NA
DreDQE9V,NA,NA,DreDQE9V,2020-0188,2021-09-19,14:49:05,15:40:39,NA,incomplete,false,true,NA,2,16,E5_Q9_ansR.png,right,NA,NA,NA,left,762.09999999404,false,NA,NA,NA,NA,NA
DreDQE9V,NA,NA,DreDQE9V,2020-0188,2021-09-19,14:49:05,15:40:39,NA,incomplete,false,true,NA,2,17,E5_Q10_ansR.png,right,NA,NA,NA,right,1083.89999999106,true,NA,NA,NA,NA,NA
DreDQE9V,NA,NA,DreDQE9V,2020-0188,2021-09-19,14:49:05,15:40:39,NA,incomplete,false,true,NA,2,18,E5_Q7_ansL.png,left,NA,NA,NA,left,992.79999999702,true,NA,NA,NA,NA,NA
DreDQE9V,NA,NA,DreDQE9V,2020-0188,2021-09-19,14:49:05,15:40:39,NA,incomplete,false,true,NA,2,19,E5_Q5_ansR.png,right,NA,NA,NA,right,1132.89999999106,true,NA,NA,NA,NA,NA
DreDQE9V,NA,NA,DreDQE9V,2020-0188,2021-09-19,14:49:05,15:40:39,NA,incomplete,false,true,NA,2,20,E14_Q10_ansL.png,left,NA,NA,NA,left,1745.59999999404,true,NA,NA,NA,NA,NA
DreDQE9V,NA,NA,DreDQE9V,2020-0188,2021-09-19,14:49:05,15:40:39,NA,incomplete,false,true,NA,2,21,E14_Q2_ansL.png,left,NA,NA,NA,left,981.79999999702,true,NA,NA,NA,NA,NA
DreDQE9V,NA,NA,DreDQE9V,2020-0188,2021-09-19,14:49:05,15:40:39,NA,incomplete,false,true,NA,2,22,E14_Q1_ansL.png,left,NA,NA,NA,left,1290.59999999404,true,NA,NA,NA,NA,NA
DreDQE9V,NA,NA,DreDQE9V,2020-0188,2021-09-19,14:49:05,15:40:39,NA,incomplete,false,true,NA,2,23,E14_Q3_ansR.png,right,NA,NA,NA,right,1012.5,true,NA,NA,NA,NA,NA
DreDQE9V,NA,NA,DreDQE9V,2020-0188,2021-09-19,14:49:05,15:40:39,NA,incomplete,false,true,NA,2,24,E14_Q6_ansR.png,right,NA,NA,NA,right,1231,true,NA,NA,NA,NA,NA
DreDQE9V,NA,NA,DreDQE9V,2020-0188,2021-09-19,14:49:05,15:40:39,NA,incomplete,false,true,NA,2,25,E14_Q5_ansR.png,right,NA,NA,NA,right,1114.29999999702,true,NA,NA,NA,NA,NA
DreDQE9V,NA,NA,DreDQE9V,2020-0188,2021-09-19,14:49:05,15:40:39,NA,incomplete,false,true,NA,2,26,E14_Q7_ansL.png,left,NA,NA,NA,left,1301.09999999404,true,NA,NA,NA,NA,NA
DreDQE9V,NA,NA,DreDQE9V,2020-0188,2021-09-19,14:49:05,15:40:39,NA,incomplete,false,true,NA,2,27,E14_Q9_ansR.png,right,NA,NA,NA,right,965.29999999702,true,NA,NA,NA,NA,NA
DreDQE9V,NA,NA,DreDQE9V,2020-0188,2021-09-19,14:49:05,15:40:39,NA,incomplete,false,true,NA,2,28,E14_Q4_ansR.png,right,NA,NA,NA,right,1119.60000000894,true,NA,NA,NA,NA,NA
DreDQE9V,NA,NA,DreDQE9V,2020-0188,2021-09-19,14:49:05,15:40:39,NA,incomplete,false,true,NA,2,29,E14_Q8_ansL.png,left,NA,NA,NA,left,984.100000008941,true,NA,NA,NA,NA,NA
DreDQE9V,NA,NA,DreDQE9V,2020-0188,2021-09-19,14:49:05,15:40:39,NA,incomplete,false,NA,true,2,0,NA,left,E32_Q8_ansL.png,E5_Q3_ansR.png,between,NA,NaN,NA,left,986.4000000059605,1,2,1911.1000000089407
DreDQE9V,NA,NA,DreDQE9V,2020-0188,2021-09-19,14:49:05,15:40:39,NA,incomplete,false,NA,true,2,1,NA,left,E5_Q4_ansR.png,E5_Q10_ansR.png,within,NA,NaN,NA,left,1306.5,1,1,1116.7000000029802
DreDQE9V,NA,NA,DreDQE9V,2020-0188,2021-09-19,14:49:05,15:40:39,NA,incomplete,false,NA,true,2,2,NA,right,E5_Q2_ansL.png,E32_Q6_ansR.png,between,NA,NaN,NA,right,961.7000000029802,1,2,936.2999999970198
DreDQE9V,NA,NA,DreDQE9V,2020-0188,2021-09-19,14:49:05,15:40:39,NA,incomplete,false,NA,true,2,3,NA,left,E14_Q1_ansL.png,E14_Q5_ansR.png,within,NA,NaN,NA,left,1788.9000000059605,1,1,905.2000000029802
DreDQE9V,NA,NA,DreDQE9V,2020-0188,2021-09-19,14:49:05,15:40:39,NA,incomplete,false,NA,true,2,4,NA,right,E14_Q2_ansL.png,E5_Q7_ansL.png,between,NA,NaN,NA,right,1347.3999999910593,1,2,2229.7999999970198
DreDQE9V,NA,NA,DreDQE9V,2020-0188,2021-09-19,14:49:05,15:40:39,NA,incomplete,false,NA,true,2,5,NA,right,E14_Q4_ansR.png,E14_Q5_ansR.png,within,NA,NaN,NA,right,1182.2000000029802,1,1,1386.2999999970198
DreDQE9V,NA,NA,DreDQE9V,2020-0188,2021-09-19,14:49:05,15:40:39,NA,incomplete,false,NA,true,2,6,NA,left,E5_Q5_ansR.png,E14_Q1_ansL.png,between,NA,NaN,NA,left,1150.2999999970198,1,2,1485.0999999940395
DreDQE9V,NA,NA,DreDQE9V,2020-0188,2021-09-19,14:49:05,15:40:39,NA,incomplete,false,NA,true,2,7,NA,right,E14_Q7_ansL.png,E14_Q3_ansR.png,within,NA,NaN,NA,right,2337.1000000089407,1,1,1649.2000000029802
DreDQE9V,NA,NA,DreDQE9V,2020-0188,2021-09-19,14:49:05,15:40:39,NA,incomplete,false,NA,true,2,8,NA,left,E32_Q10_ansL.png,E5_Q8_ansL.png,between,NA,NaN,NA,left,1683.2000000029802,1,2,1419
DreDQE9V,NA,NA,DreDQE9V,2020-0188,2021-09-19,14:49:05,15:40:39,NA,incomplete,false,NA,true,2,9,NA,left,E32_Q1_ansL.png,E32_Q6_ansR.png,within,NA,NaN,NA,left,1448.7000000029802,1,1,1176.7999999970198
DreDQE9V,NA,NA,DreDQE9V,2020-0188,2021-09-19,14:49:05,15:40:39,NA,incomplete,false,NA,true,2,10,NA,right,E5_Q9_ansR.png,E5_Q1_ansL.png,within,NA,NaN,NA,right,2037.3999999910593,1,1,858
DreDQE9V,NA,NA,DreDQE9V,2020-0188,2021-09-19,14:49:05,15:40:39,NA,incomplete,false,NA,true,2,11,NA,right,E32_Q8_ansL.png,E32_Q4_ansR.png,within,NA,NaN,NA,right,2216.7999999970198,1,1,1692.2999999970198
DreDQE9V,NA,NA,DreDQE9V,2020-0188,2021-09-19,14:49:05,15:40:39,NA,incomplete,false,NA,true,2,12,NA,left,E32_Q5_ansR.png,E32_Q3_ansR.png,within,NA,NaN,NA,left,2339.9000000059605,1,1,1160.2999999970198
DreDQE9V,NA,NA,DreDQE9V,2020-0188,2021-09-19,14:49:05,15:40:39,NA,incomplete,false,NA,true,2,13,NA,right,E32_Q4_ansR.png,E32_Q9_ansR.png,within,NA,NaN,NA,right,1210.0999999940395,1,1,743
DreDQE9V,NA,NA,DreDQE9V,2020-0188,2021-09-19,14:49:05,15:40:39,NA,incomplete,false,NA,true,2,14,NA,right,E32_Q2_ansL.png,E32_Q7_ansL.png,within,NA,NaN,NA,right,1987.7999999970198,1,1,1782.699999988079
DreDQE9V,NA,NA,DreDQE9V,2020-0188,2021-09-19,14:49:05,15:40:39,NA,incomplete,false,NA,true,2,15,NA,right,E32_Q1_ansL.png,E32_Q3_ansR.png,within,NA,NaN,NA,left,2175.7999999970198,0,0,1045.3999999910593
DreDQE9V,NA,NA,DreDQE9V,2020-0188,2021-09-19,14:49:05,15:40:39,NA,incomplete,false,NA,true,2,16,NA,right,E5_Q5_ansR.png,E5_Q9_ansR.png,within,NA,NaN,NA,left,931.5999999940395,0,1,758.4000000059605
DreDQE9V,NA,NA,DreDQE9V,2020-0188,2021-09-19,14:49:05,15:40:39,NA,incomplete,false,NA,true,2,17,NA,left,E32_Q2_ansL.png,E32_Q10_ansL.png,within,NA,NaN,NA,right,1251.199999988079,0,1,1995
DreDQE9V,NA,NA,DreDQE9V,2020-0188,2021-09-19,14:49:05,15:40:39,NA,incomplete,false,NA,true,2,18,NA,left,E14_Q7_ansL.png,E14_Q8_ansL.png,within,NA,NaN,NA,left,1513,1,1,938.5
DreDQE9V,NA,NA,DreDQE9V,2020-0188,2021-09-19,14:49:05,15:40:39,NA,incomplete,false,NA,true,2,19,NA,left,E14_Q6_ansR.png,E14_Q9_ansR.png,within,NA,NaN,NA,left,1455.2999999970198,1,1,1355.5999999940395
DreDQE9V,NA,NA,DreDQE9V,2020-0188,2021-09-19,14:49:05,15:40:39,NA,incomplete,false,NA,true,2,20,NA,left,E5_Q8_ansL.png,E5_Q4_ansR.png,within,NA,NaN,NA,left,1112.5,1,1,2444.7999999970198
DreDQE9V,NA,NA,DreDQE9V,2020-0188,2021-09-19,14:49:05,15:40:39,NA,incomplete,false,NA,true,2,21,NA,right,E5_Q1_ansL.png,E5_Q3_ansR.png,within,NA,NaN,NA,left,1267,0,1,1168.9000000059605
DreDQE9V,NA,NA,DreDQE9V,2020-0188,2021-09-19,14:49:05,15:40:39,NA,incomplete,false,NA,true,2,22,NA,left,E5_Q2_ansL.png,E5_Q6_ansR.png,within,NA,NaN,NA,left,1243.4000000059605,1,1,1340.5
DreDQE9V,NA,NA,DreDQE9V,2020-0188,2021-09-19,14:49:05,15:40:39,NA,incomplete,false,NA,true,2,23,NA,left,E5_Q10_ansR.png,E14_Q10_ansL.png,between,NA,NaN,NA,left,1431.3999999910593,1,2,1152.0999999940395
DreDQE9V,NA,NA,DreDQE9V,2020-0188,2021-09-19,14:49:05,15:40:39,NA,incomplete,false,NA,true,2,24,NA,right,E14_Q3_ansR.png,E14_Q10_ansL.png,within,NA,NaN,NA,right,1291.5999999940395,1,1,865.5999999940395
DreDQE9V,NA,NA,DreDQE9V,2020-0188,2021-09-19,14:49:05,15:40:39,NA,incomplete,false,NA,true,2,25,NA,left,E5_Q6_ansR.png,E5_Q7_ansL.png,within,NA,NaN,NA,left,1381.7000000029802,1,1,939.7000000029802
DreDQE9V,NA,NA,DreDQE9V,2020-0188,2021-09-19,14:49:05,15:40:39,NA,incomplete,false,NA,true,2,26,NA,left,E14_Q2_ansL.png,E14_Q6_ansR.png,within,NA,NaN,NA,left,1578.3999999910593,1,1,2240.4000000059605
DreDQE9V,NA,NA,DreDQE9V,2020-0188,2021-09-19,14:49:05,15:40:39,NA,incomplete,false,true,NA,3,0,E15_Q10_ansL.png,left,NA,NA,NA,left,991.399999991059,true,NA,NA,NA,NA,NA
DreDQE9V,NA,NA,DreDQE9V,2020-0188,2021-09-19,14:49:05,15:40:39,NA,incomplete,false,true,NA,3,1,E15_Q1_ansL.png,left,NA,NA,NA,left,1109.20000000298,true,NA,NA,NA,NA,NA
DreDQE9V,NA,NA,DreDQE9V,2020-0188,2021-09-19,14:49:05,15:40:39,NA,incomplete,false,true,NA,3,2,E15_Q3_ansR.png,right,NA,NA,NA,right,977.70000000298,true,NA,NA,NA,NA,NA
DreDQE9V,NA,NA,DreDQE9V,2020-0188,2021-09-19,14:49:05,15:40:39,NA,incomplete,false,true,NA,3,3,E15_Q2_ansL.png,left,NA,NA,NA,left,1119.79999999702,true,NA,NA,NA,NA,NA
DreDQE9V,NA,NA,DreDQE9V,2020-0188,2021-09-19,14:49:05,15:40:39,NA,incomplete,false,true,NA,3,4,E15_Q8_ansL.png,left,NA,NA,NA,left,902.40000000596,true,NA,NA,NA,NA,NA
DreDQE9V,NA,NA,DreDQE9V,2020-0188,2021-09-19,14:49:05,15:40:39,NA,incomplete,false,true,NA,3,5,E15_Q4_ansR.png,right,NA,NA,NA,right,754.20000000298,true,NA,NA,NA,NA,NA
DreDQE9V,NA,NA,DreDQE9V,2020-0188,2021-09-19,14:49:05,15:40:39,NA,incomplete,false,true,NA,3,6,E15_Q6_ansR.png,right,NA,NA,NA,right,1185.20000000298,true,NA,NA,NA,NA,NA
DreDQE9V,NA,NA,DreDQE9V,2020-0188,2021-09-19,14:49:05,15:40:39,NA,incomplete,false,true,NA,3,7,E15_Q9_ansR.png,right,NA,NA,NA,right,1076.5,true,NA,NA,NA,NA,NA
DreDQE9V,NA,NA,DreDQE9V,2020-0188,2021-09-19,14:49:05,15:40:39,NA,incomplete,false,true,NA,3,8,E15_Q5_ansR.png,right,NA,NA,NA,right,1341.40000000596,true,NA,NA,NA,NA,NA
DreDQE9V,NA,NA,DreDQE9V,2020-0188,2021-09-19,14:49:05,15:40:39,NA,incomplete,false,true,NA,3,9,E15_Q7_ansL.png,left,NA,NA,NA,left,1251.69999998808,true,NA,NA,NA,NA,NA
DreDQE9V,NA,NA,DreDQE9V,2020-0188,2021-09-19,14:49:05,15:40:39,NA,incomplete,false,true,NA,3,10,E11_Q3_ansL.png,left,NA,NA,NA,left,1166.20000000298,true,NA,NA,NA,NA,NA
DreDQE9V,NA,NA,DreDQE9V,2020-0188,2021-09-19,14:49:05,15:40:39,NA,incomplete,false,true,NA,3,11,E11_Q10_ansR.png,right,NA,NA,NA,right,939.40000000596,true,NA,NA,NA,NA,NA
DreDQE9V,NA,NA,DreDQE9V,2020-0188,2021-09-19,14:49:05,15:40:39,NA,incomplete,false,true,NA,3,12,E11_Q5_ansL.png,left,NA,NA,NA,left,1090.60000000894,true,NA,NA,NA,NA,NA
DreDQE9V,NA,NA,DreDQE9V,2020-0188,2021-09-19,14:49:05,15:40:39,NA,incomplete,false,true,NA,3,13,E11_Q9_ansL.png,left,NA,NA,NA,left,932.40000000596,true,NA,NA,NA,NA,NA
DreDQE9V,NA,NA,DreDQE9V,2020-0188,2021-09-19,14:49:05,15:40:39,NA,incomplete,false,true,NA,3,14,E11_Q1_ansR.png,right,NA,NA,NA,right,770.70000000298,true,NA,NA,NA,NA,NA
DreDQE9V,NA,NA,DreDQE9V,2020-0188,2021-09-19,14:49:05,15:40:39,NA,incomplete,false,true,NA,3,15,E11_Q4_ansL.png,left,NA,NA,NA,left,1016.79999999702,true,NA,NA,NA,NA,NA
DreDQE9V,NA,NA,DreDQE9V,2020-0188,2021-09-19,14:49:05,15:40:39,NA,incomplete,false,true,NA,3,16,E11_Q8_ansR.png,right,NA,NA,NA,right,1321.59999999404,true,NA,NA,NA,NA,NA
DreDQE9V,NA,NA,DreDQE9V,2020-0188,2021-09-19,14:49:05,15:40:39,NA,incomplete,false,true,NA,3,17,E11_Q7_ansR.png,right,NA,NA,NA,right,871.70000000298,true,NA,NA,NA,NA,NA
DreDQE9V,NA,NA,DreDQE9V,2020-0188,2021-09-19,14:49:05,15:40:39,NA,incomplete,false,true,NA,3,18,E11_Q6_ansL.png,left,NA,NA,NA,left,1148.29999999702,true,NA,NA,NA,NA,NA
DreDQE9V,NA,NA,DreDQE9V,2020-0188,2021-09-19,14:49:05,15:40:39,NA,incomplete,false,true,NA,3,19,E11_Q2_ansR.png,right,NA,NA,NA,right,812.90000000596,true,NA,NA,NA,NA,NA
DreDQE9V,NA,NA,DreDQE9V,2020-0188,2021-09-19,14:49:05,15:40:39,NA,incomplete,false,true,NA,3,20,E30_Q3_ansL.png,left,NA,NA,NA,left,1691.70000000298,true,NA,NA,NA,NA,NA
DreDQE9V,NA,NA,DreDQE9V,2020-0188,2021-09-19,14:49:05,15:40:39,NA,incomplete,false,true,NA,3,21,E30_Q5_ansR.png,right,NA,NA,NA,right,1163.40000000596,true,NA,NA,NA,NA,NA
DreDQE9V,NA,NA,DreDQE9V,2020-0188,2021-09-19,14:49:05,15:40:39,NA,incomplete,false,true,NA,3,22,E30_Q10_ansR.png,right,NA,NA,NA,right,1379.5,true,NA,NA,NA,NA,NA
DreDQE9V,NA,NA,DreDQE9V,2020-0188,2021-09-19,14:49:05,15:40:39,NA,incomplete,false,true,NA,3,23,E30_Q7_ansL.png,left,NA,NA,NA,right,2244,false,NA,NA,NA,NA,NA
DreDQE9V,NA,NA,DreDQE9V,2020-0188,2021-09-19,14:49:05,15:40:39,NA,incomplete,false,true,NA,3,24,E30_Q9_ansL.png,left,NA,NA,NA,left,1623.10000000894,true,NA,NA,NA,NA,NA
DreDQE9V,NA,NA,DreDQE9V,2020-0188,2021-09-19,14:49:05,15:40:39,NA,incomplete,false,true,NA,3,25,E30_Q6_ansR.png,right,NA,NA,NA,right,1559,true,NA,NA,NA,NA,NA
DreDQE9V,NA,NA,DreDQE9V,2020-0188,2021-09-19,14:49:05,15:40:39,NA,incomplete,false,true,NA,3,26,E30_Q8_ansL.png,left,NA,NA,NA,right,3495.59999999404,false,NA,NA,NA,NA,NA
DreDQE9V,NA,NA,DreDQE9V,2020-0188,2021-09-19,14:49:05,15:40:39,NA,incomplete,false,true,NA,3,27,E30_Q1_ansL.png,left,NA,NA,NA,left,1845.70000000298,true,NA,NA,NA,NA,NA
DreDQE9V,NA,NA,DreDQE9V,2020-0188,2021-09-19,14:49:05,15:40:39,NA,incomplete,false,true,NA,3,28,E30_Q2_ansL.png,left,NA,NA,NA,left,1791.39999999106,true,NA,NA,NA,NA,NA
DreDQE9V,NA,NA,DreDQE9V,2020-0188,2021-09-19,14:49:05,15:40:39,NA,incomplete,false,true,NA,3,29,E30_Q4_ansL.png,left,NA,NA,NA,left,1355.5,true,NA,NA,NA,NA,NA
DreDQE9V,NA,NA,DreDQE9V,2020-0188,2021-09-19,14:49:05,15:40:39,NA,incomplete,false,NA,true,3,0,NA,left,E30_Q6_ansR.png,E30_Q2_ansL.png,within,NA,NaN,NA,left,1477.7000000029802,1,1,970.8999999910593
DreDQE9V,NA,NA,DreDQE9V,2020-0188,2021-09-19,14:49:05,15:40:39,NA,incomplete,false,NA,true,3,1,NA,left,E15_Q6_ansR.png,E15_Q7_ansL.png,within,NA,NaN,NA,right,2461.1000000089407,0,1,1317.4000000059605
DreDQE9V,NA,NA,DreDQE9V,2020-0188,2021-09-19,14:49:05,15:40:39,NA,incomplete,false,NA,true,3,2,NA,right,E11_Q5_ansL.png,E15_Q7_ansL.png,between,NA,NaN,NA,right,1726.5,1,2,2267.9000000059605
DreDQE9V,NA,NA,DreDQE9V,2020-0188,2021-09-19,14:49:05,15:40:39,NA,incomplete,false,NA,true,3,3,NA,left,E15_Q9_ansR.png,E11_Q3_ansL.png,between,NA,NaN,NA,left,1767,1,2,915.6999999880791
DreDQE9V,NA,NA,DreDQE9V,2020-0188,2021-09-19,14:49:05,15:40:39,NA,incomplete,false,NA,true,3,4,NA,left,E15_Q5_ansR.png,E11_Q10_ansR.png,between,NA,NaN,NA,left,2061.2000000029802,1,2,1053.9000000059605
DreDQE9V,NA,NA,DreDQE9V,2020-0188,2021-09-19,14:49:05,15:40:39,NA,incomplete,false,NA,true,3,5,NA,right,E15_Q9_ansR.png,E15_Q8_ansL.png,within,NA,NaN,NA,right,1333.2000000029802,1,1,1963.5
DreDQE9V,NA,NA,DreDQE9V,2020-0188,2021-09-19,14:49:05,15:40:39,NA,incomplete,false,NA,true,3,6,NA,right,E30_Q5_ansR.png,E11_Q6_ansL.png,between,NA,NaN,NA,right,1734,1,2,1684.2000000029802
DreDQE9V,NA,NA,DreDQE9V,2020-0188,2021-09-19,14:49:05,15:40:39,NA,incomplete,false,NA,true,3,7,NA,left,E30_Q3_ansL.png,E30_Q7_ansL.png,within,NA,NaN,NA,left,1765,1,1,839.7000000029802
DreDQE9V,NA,NA,DreDQE9V,2020-0188,2021-09-19,14:49:05,15:40:39,NA,incomplete,false,NA,true,3,8,NA,left,E15_Q1_ansL.png,E15_Q8_ansL.png,within,NA,NaN,NA,right,1030,0,1,913.5999999940395
DreDQE9V,NA,NA,DreDQE9V,2020-0188,2021-09-19,14:49:05,15:40:39,NA,incomplete,false,NA,true,3,9,NA,left,E11_Q3_ansL.png,E11_Q9_ansL.png,within,NA,NaN,NA,left,1342,1,1,2149.6000000089407
DreDQE9V,NA,NA,DreDQE9V,2020-0188,2021-09-19,14:49:05,15:40:39,NA,incomplete,false,NA,true,3,10,NA,right,E11_Q7_ansR.png,E11_Q1_ansR.png,within,NA,NaN,NA,right,1350.4000000059605,1,1,2379.199999988079
DreDQE9V,NA,NA,DreDQE9V,2020-0188,2021-09-19,14:49:05,15:40:39,NA,incomplete,false,NA,true,3,11,NA,right,E15_Q6_ansR.png,E15_Q2_ansL.png,within,NA,NaN,NA,left,2694.0999999940395,0,1,1774.4000000059605
DreDQE9V,NA,NA,DreDQE9V,2020-0188,2021-09-19,14:49:05,15:40:39,NA,incomplete,false,NA,true,3,12,NA,right,E30_Q8_ansL.png,E30_Q7_ansL.png,within,NA,NaN,NA,right,1978.7000000029802,1,1,1281.9000000059605
DreDQE9V,NA,NA,DreDQE9V,2020-0188,2021-09-19,14:49:05,15:40:39,NA,incomplete,false,NA,true,3,13,NA,right,E30_Q10_ansR.png,E11_Q2_ansR.png,between,NA,NaN,NA,right,1096.5,1,2,1201.5
DreDQE9V,NA,NA,DreDQE9V,2020-0188,2021-09-19,14:49:05,15:40:39,NA,incomplete,false,NA,true,3,14,NA,left,E15_Q10_ansL.png,E15_Q2_ansL.png,within,NA,NaN,NA,left,1061.1000000089407,1,1,1028.7999999970198
DreDQE9V,NA,NA,DreDQE9V,2020-0188,2021-09-19,14:49:05,15:40:39,NA,incomplete,false,NA,true,3,15,NA,left,E11_Q9_ansL.png,E11_Q8_ansR.png,within,NA,NaN,NA,left,1472.8999999910593,1,1,1610.9000000059605
DreDQE9V,NA,NA,DreDQE9V,2020-0188,2021-09-19,14:49:05,15:40:39,NA,incomplete,false,NA,true,3,16,NA,left,E15_Q3_ansR.png,E15_Q4_ansR.png,within,NA,NaN,NA,right,1601.2000000029802,0,1,882.6000000089407
DreDQE9V,NA,NA,DreDQE9V,2020-0188,2021-09-19,14:49:05,15:40:39,NA,incomplete,false,NA,true,3,17,NA,left,E30_Q10_ansR.png,E30_Q6_ansR.png,within,NA,NaN,NA,left,3782.9000000059605,1,0,916.1000000089407
DreDQE9V,NA,NA,DreDQE9V,2020-0188,2021-09-19,14:49:05,15:40:39,NA,incomplete,false,NA,true,3,18,NA,right,E11_Q6_ansL.png,E11_Q4_ansL.png,within,NA,NaN,NA,right,2125.6000000089407,1,1,1414
DreDQE9V,NA,NA,DreDQE9V,2020-0188,2021-09-19,14:49:05,15:40:39,NA,incomplete,false,NA,true,3,19,NA,right,E15_Q5_ansR.png,E15_Q4_ansR.png,within,NA,NaN,NA,right,1643.5,1,1,1054.7000000029802
DreDQE9V,NA,NA,DreDQE9V,2020-0188,2021-09-19,14:49:05,15:40:39,NA,incomplete,false,NA,true,3,20,NA,left,E30_Q5_ansR.png,E30_Q9_ansL.png,within,NA,NaN,NA,left,1292.2000000029802,1,1,799
DreDQE9V,NA,NA,DreDQE9V,2020-0188,2021-09-19,14:49:05,15:40:39,NA,incomplete,false,NA,true,3,21,NA,right,E11_Q4_ansL.png,E11_Q5_ansL.png,within,NA,NaN,NA,right,1872.5999999940395,1,1,2305.3999999910593
DreDQE9V,NA,NA,DreDQE9V,2020-0188,2021-09-19,14:49:05,15:40:39,NA,incomplete,false,NA,true,3,22,NA,right,E30_Q3_ansL.png,E11_Q7_ansR.png,between,NA,NaN,NA,right,2422.3999999910593,1,2,1103.7000000029802
DreDQE9V,NA,NA,DreDQE9V,2020-0188,2021-09-19,14:49:05,15:40:39,NA,incomplete,false,NA,true,3,23,NA,right,E30_Q1_ansL.png,E30_Q9_ansL.png,within,NA,NaN,NA,right,2599.7999999970198,1,1,1300.2999999970198
DreDQE9V,NA,NA,DreDQE9V,2020-0188,2021-09-19,14:49:05,15:40:39,NA,incomplete,false,NA,true,3,24,NA,right,E11_Q2_ansR.png,E11_Q8_ansR.png,within,NA,NaN,NA,left,1350,0,1,1062.6000000089407
DreDQE9V,NA,NA,DreDQE9V,2020-0188,2021-09-19,14:49:05,15:40:39,NA,incomplete,false,NA,true,3,25,NA,left,E11_Q10_ansR.png,E11_Q1_ansR.png,within,NA,NaN,NA,left,1094.7000000029802,1,1,956.6000000089407
DreDQE9V,NA,NA,DreDQE9V,2020-0188,2021-09-19,14:49:05,15:40:39,NA,incomplete,false,NA,true,3,26,NA,left,E30_Q8_ansL.png,E30_Q4_ansL.png,within,NA,NaN,NA,left,3435.2999999970198,1,1,2504.699999988079
DreDQE9V,NA,NA,DreDQE9V,2020-0188,2021-09-19,14:49:05,15:40:39,NA,incomplete,false,true,NA,4,0,E16_Q2_ansR.png,right,NA,NA,NA,right,898.399999991059,true,NA,NA,NA,NA,NA
DreDQE9V,NA,NA,DreDQE9V,2020-0188,2021-09-19,14:49:05,15:40:39,NA,incomplete,false,true,NA,4,1,E16_Q1_ansR.png,right,NA,NA,NA,right,703.40000000596,true,NA,NA,NA,NA,NA
DreDQE9V,NA,NA,DreDQE9V,2020-0188,2021-09-19,14:49:05,15:40:39,NA,incomplete,false,true,NA,4,2,E16_Q10_ansR.png,right,NA,NA,NA,right,985.399999991059,true,NA,NA,NA,NA,NA
DreDQE9V,NA,NA,DreDQE9V,2020-0188,2021-09-19,14:49:05,15:40:39,NA,incomplete,false,true,NA,4,3,E16_Q5_ansL.png,left,NA,NA,NA,left,1223.79999999702,true,NA,NA,NA,NA,NA
DreDQE9V,NA,NA,DreDQE9V,2020-0188,2021-09-19,14:49:05,15:40:39,NA,incomplete,false,true,NA,4,4,E16_Q9_ansL.png,left,NA,NA,NA,left,1152.20000000298,true,NA,NA,NA,NA,NA
DreDQE9V,NA,NA,DreDQE9V,2020-0188,2021-09-19,14:49:05,15:40:39,NA,incomplete,false,true,NA,4,5,E16_Q8_ansR.png,right,NA,NA,NA,right,826.899999991059,true,NA,NA,NA,NA,NA
DreDQE9V,NA,NA,DreDQE9V,2020-0188,2021-09-19,14:49:05,15:40:39,NA,incomplete,false,true,NA,4,6,E16_Q3_ansL.png,left,NA,NA,NA,left,812.199999988079,true,NA,NA,NA,NA,NA
DreDQE9V,NA,NA,DreDQE9V,2020-0188,2021-09-19,14:49:05,15:40:39,NA,incomplete,false,true,NA,4,7,E16_Q7_ansR.png,right,NA,NA,NA,right,885.79999999702,true,NA,NA,NA,NA,NA
DreDQE9V,NA,NA,DreDQE9V,2020-0188,2021-09-19,14:49:05,15:40:39,NA,incomplete,false,true,NA,4,8,E16_Q6_ansL.png,left,NA,NA,NA,left,885.699999988079,true,NA,NA,NA,NA,NA
DreDQE9V,NA,NA,DreDQE9V,2020-0188,2021-09-19,14:49:05,15:40:39,NA,incomplete,false,true,NA,4,9,E16_Q4_ansL.png,left,NA,NA,NA,left,1290.20000000298,true,NA,NA,NA,NA,NA
DreDQE9V,NA,NA,DreDQE9V,2020-0188,2021-09-19,14:49:05,15:40:39,NA,incomplete,false,true,NA,4,10,E25_Q9_ansL.png,left,NA,NA,NA,none,0,false,NA,NA,NA,NA,NA
DreDQE9V,NA,NA,DreDQE9V,2020-0188,2021-09-19,14:49:05,15:40:39,NA,incomplete,false,true,NA,4,11,E25_Q2_ansR.png,right,NA,NA,NA,right,1175.5,true,NA,NA,NA,NA,NA
DreDQE9V,NA,NA,DreDQE9V,2020-0188,2021-09-19,14:49:05,15:40:39,NA,incomplete,false,true,NA,4,12,E25_Q10_ansR.png,right,NA,NA,NA,left,1117.69999998808,false,NA,NA,NA,NA,NA
DreDQE9V,NA,NA,DreDQE9V,2020-0188,2021-09-19,14:49:05,15:40:39,NA,incomplete,false,true,NA,4,13,E25_Q4_ansL.png,left,NA,NA,NA,left,2003.59999999404,true,NA,NA,NA,NA,NA
DreDQE9V,NA,NA,DreDQE9V,2020-0188,2021-09-19,14:49:05,15:40:39,NA,incomplete,false,true,NA,4,14,E25_Q3_ansL.png,left,NA,NA,NA,left,1870.10000000894,true,NA,NA,NA,NA,NA
DreDQE9V,NA,NA,DreDQE9V,2020-0188,2021-09-19,14:49:05,15:40:39,NA,incomplete,false,true,NA,4,15,E25_Q6_ansL.png,left,NA,NA,NA,left,1615.5,true,NA,NA,NA,NA,NA
DreDQE9V,NA,NA,DreDQE9V,2020-0188,2021-09-19,14:49:05,15:40:39,NA,incomplete,false,true,NA,4,16,E25_Q7_ansR.png,right,NA,NA,NA,right,2521.5,true,NA,NA,NA,NA,NA
DreDQE9V,NA,NA,DreDQE9V,2020-0188,2021-09-19,14:49:05,15:40:39,NA,incomplete,false,true,NA,4,17,E25_Q8_ansR.png,right,NA,NA,NA,right,1204.20000000298,true,NA,NA,NA,NA,NA
DreDQE9V,NA,NA,DreDQE9V,2020-0188,2021-09-19,14:49:05,15:40:39,NA,incomplete,false,true,NA,4,18,E25_Q5_ansL.png,left,NA,NA,NA,left,2580.29999999702,true,NA,NA,NA,NA,NA
DreDQE9V,NA,NA,DreDQE9V,2020-0188,2021-09-19,14:49:05,15:40:39,NA,incomplete,false,true,NA,4,19,E25_Q1_ansR.png,right,NA,NA,NA,right,1382.90000000596,true,NA,NA,NA,NA,NA
DreDQE9V,NA,NA,DreDQE9V,2020-0188,2021-09-19,14:49:05,15:40:39,NA,incomplete,false,true,NA,4,20,E19_Q2_ansL.png,left,NA,NA,NA,left,1016.20000000298,true,NA,NA,NA,NA,NA
DreDQE9V,NA,NA,DreDQE9V,2020-0188,2021-09-19,14:49:05,15:40:39,NA,incomplete,false,true,NA,4,21,E19_Q4_ansR.png,right,NA,NA,NA,right,1126.20000000298,true,NA,NA,NA,NA,NA
DreDQE9V,NA,NA,DreDQE9V,2020-0188,2021-09-19,14:49:05,15:40:39,NA,incomplete,false,true,NA,4,22,E19_Q6_ansR.png,right,NA,NA,NA,right,1265.10000000894,true,NA,NA,NA,NA,NA
DreDQE9V,NA,NA,DreDQE9V,2020-0188,2021-09-19,14:49:05,15:40:39,NA,incomplete,false,true,NA,4,23,E19_Q5_ansR.png,right,NA,NA,NA,right,1155,true,NA,NA,NA,NA,NA
DreDQE9V,NA,NA,DreDQE9V,2020-0188,2021-09-19,14:49:05,15:40:39,NA,incomplete,false,true,NA,4,24,E19_Q8_ansL.png,left,NA,NA,NA,right,1167.20000000298,false,NA,NA,NA,NA,NA
DreDQE9V,NA,NA,DreDQE9V,2020-0188,2021-09-19,14:49:05,15:40:39,NA,incomplete,false,true,NA,4,25,E19_Q7_ansL.png,left,NA,NA,NA,left,1098.20000000298,true,NA,NA,NA,NA,NA
DreDQE9V,NA,NA,DreDQE9V,2020-0188,2021-09-19,14:49:05,15:40:39,NA,incomplete,false,true,NA,4,26,E19_Q10_ansL.png,left,NA,NA,NA,left,1316.40000000596,true,NA,NA,NA,NA,NA
DreDQE9V,NA,NA,DreDQE9V,2020-0188,2021-09-19,14:49:05,15:40:39,NA,incomplete,false,true,NA,4,27,E19_Q3_ansR.png,right,NA,NA,NA,right,1285.40000000596,true,NA,NA,NA,NA,NA
DreDQE9V,NA,NA,DreDQE9V,2020-0188,2021-09-19,14:49:05,15:40:39,NA,incomplete,false,true,NA,4,28,E19_Q9_ansR.png,right,NA,NA,NA,right,1539.70000000298,true,NA,NA,NA,NA,NA
DreDQE9V,NA,NA,DreDQE9V,2020-0188,2021-09-19,14:49:05,15:40:39,NA,incomplete,false,true,NA,4,29,E19_Q1_ansL.png,left,NA,NA,NA,left,979.600000008941,true,NA,NA,NA,NA,NA
DreDQE9V,NA,NA,DreDQE9V,2020-0188,2021-09-19,14:49:05,15:40:39,NA,incomplete,false,NA,true,4,0,NA,right,E16_Q7_ansR.png,E16_Q9_ansL.png,within,NA,NaN,NA,left,1976.4000000059605,0,0,1109.2999999970198
DreDQE9V,NA,NA,DreDQE9V,2020-0188,2021-09-19,14:49:05,15:40:39,NA,incomplete,false,NA,true,4,1,NA,left,E19_Q7_ansL.png,E19_Q9_ansR.png,within,NA,NaN,NA,right,1527,0,1,1174.7000000029802
DreDQE9V,NA,NA,DreDQE9V,2020-0188,2021-09-19,14:49:05,15:40:39,NA,incomplete,false,NA,true,4,2,NA,left,E19_Q5_ansR.png,E19_Q10_ansL.png,within,NA,NaN,NA,left,2635.1000000089407,1,1,978.2999999970198
DreDQE9V,NA,NA,DreDQE9V,2020-0188,2021-09-19,14:49:05,15:40:39,NA,incomplete,false,NA,true,4,3,NA,left,E25_Q3_ansL.png,E25_Q8_ansR.png,within,NA,NaN,NA,left,2619.7000000029802,1,1,1395
DreDQE9V,NA,NA,DreDQE9V,2020-0188,2021-09-19,14:49:05,15:40:39,NA,incomplete,false,NA,true,4,4,NA,left,E19_Q6_ansR.png,E19_Q7_ansL.png,within,NA,NaN,NA,left,1305.2000000029802,1,1,1338
DreDQE9V,NA,NA,DreDQE9V,2020-0188,2021-09-19,14:49:05,15:40:39,NA,incomplete,false,NA,true,4,5,NA,left,E16_Q6_ansL.png,E25_Q2_ansR.png,between,NA,NaN,NA,left,3172.2999999970198,1,2,1063.2000000029802
DreDQE9V,NA,NA,DreDQE9V,2020-0188,2021-09-19,14:49:05,15:40:39,NA,incomplete,false,NA,true,4,6,NA,right,E19_Q5_ansR.png,E19_Q2_ansL.png,within,NA,NaN,NA,right,1169.2000000029802,1,1,1210.7000000029802
DreDQE9V,NA,NA,DreDQE9V,2020-0188,2021-09-19,14:49:05,15:40:39,NA,incomplete,false,NA,true,4,7,NA,right,E16_Q6_ansL.png,E16_Q8_ansR.png,within,NA,NaN,NA,left,1268.7000000029802,0,1,865.7000000029802
DreDQE9V,NA,NA,DreDQE9V,2020-0188,2021-09-19,14:49:05,15:40:39,NA,incomplete,false,NA,true,4,8,NA,right,E16_Q8_ansR.png,E16_Q10_ansR.png,within,NA,NaN,NA,right,4074.6000000089407,1,1,1880.9000000059605
DreDQE9V,NA,NA,DreDQE9V,2020-0188,2021-09-19,14:49:05,15:40:39,NA,incomplete,false,NA,true,4,9,NA,right,E25_Q7_ansR.png,E25_Q4_ansL.png,within,NA,NaN,NA,left,4549.20000000298,0,0,1724.3999999910593
DreDQE9V,NA,NA,DreDQE9V,2020-0188,2021-09-19,14:49:05,15:40:39,NA,incomplete,false,NA,true,4,10,NA,right,E19_Q1_ansL.png,E19_Q10_ansL.png,within,NA,NaN,NA,right,1586.4000000059605,1,1,1037.7999999970198
DreDQE9V,NA,NA,DreDQE9V,2020-0188,2021-09-19,14:49:05,15:40:39,NA,incomplete,false,NA,true,4,11,NA,left,E16_Q1_ansR.png,E16_Q9_ansL.png,within,NA,NaN,NA,left,1341.2000000029802,1,0,2912.3999999910593
DreDQE9V,NA,NA,DreDQE9V,2020-0188,2021-09-19,14:49:05,15:40:39,NA,incomplete,false,NA,true,4,12,NA,right,E25_Q1_ansR.png,E25_Q7_ansR.png,within,NA,NaN,NA,right,1634.9000000059605,1,1,751.9000000059605
DreDQE9V,NA,NA,DreDQE9V,2020-0188,2021-09-19,14:49:05,15:40:39,NA,incomplete,false,NA,true,4,13,NA,right,E19_Q2_ansL.png,E25_Q8_ansR.png,between,NA,NaN,NA,right,1569.5,1,2,1661.0999999940395
DreDQE9V,NA,NA,DreDQE9V,2020-0188,2021-09-19,14:49:05,15:40:39,NA,incomplete,false,NA,true,4,14,NA,left,E16_Q3_ansL.png,E16_Q4_ansL.png,within,NA,NaN,NA,left,1865.2999999970198,1,0,1577.199999988079
DreDQE9V,NA,NA,DreDQE9V,2020-0188,2021-09-19,14:49:05,15:40:39,NA,incomplete,false,NA,true,4,15,NA,right,E19_Q3_ansR.png,E19_Q8_ansL.png,within,NA,NaN,NA,left,1603,0,1,774.7000000029802
DreDQE9V,NA,NA,DreDQE9V,2020-0188,2021-09-19,14:49:05,15:40:39,NA,incomplete,false,NA,true,4,16,NA,right,E19_Q8_ansL.png,E19_Q4_ansR.png,within,NA,NaN,NA,right,981.7999999970198,1,1,1265.7999999970198
DreDQE9V,NA,NA,DreDQE9V,2020-0188,2021-09-19,14:49:05,15:40:39,NA,incomplete,false,NA,true,4,17,NA,right,E25_Q6_ansL.png,E25_Q10_ansR.png,within,NA,NaN,NA,left,1848.8999999910593,0,1,1019
DreDQE9V,NA,NA,DreDQE9V,2020-0188,2021-09-19,14:49:05,15:40:39,NA,incomplete,false,NA,true,4,18,NA,left,E25_Q6_ansL.png,E25_Q5_ansL.png,within,NA,NaN,NA,right,2152,0,1,1529.3999999910593
DreDQE9V,NA,NA,DreDQE9V,2020-0188,2021-09-19,14:49:05,15:40:39,NA,incomplete,false,NA,true,4,19,NA,right,E25_Q9_ansL.png,E16_Q7_ansR.png,between,NA,NaN,NA,right,1799.7999999970198,1,1,989
DreDQE9V,NA,NA,DreDQE9V,2020-0188,2021-09-19,14:49:05,15:40:39,NA,incomplete,false,NA,true,4,20,NA,right,E25_Q3_ansL.png,E25_Q2_ansR.png,within,NA,NaN,NA,right,2275.0999999940395,1,1,1119.4000000059605
DreDQE9V,NA,NA,DreDQE9V,2020-0188,2021-09-19,14:49:05,15:40:39,NA,incomplete,false,NA,true,4,21,NA,right,E16_Q5_ansL.png,E16_Q2_ansR.png,within,NA,NaN,NA,left,1791.2000000029802,0,1,1054.8999999910593
DreDQE9V,NA,NA,DreDQE9V,2020-0188,2021-09-19,14:49:05,15:40:39,NA,incomplete,false,NA,true,4,22,NA,left,E25_Q1_ansR.png,E19_Q6_ansR.png,between,NA,NaN,NA,left,1554,1,2,1592.3999999910593
DreDQE9V,NA,NA,DreDQE9V,2020-0188,2021-09-19,14:49:05,15:40:39,NA,incomplete,false,NA,true,4,23,NA,left,E25_Q9_ansL.png,E25_Q4_ansL.png,within,NA,NaN,NA,left,3436.3999999910593,1,1,947.7999999970198
DreDQE9V,NA,NA,DreDQE9V,2020-0188,2021-09-19,14:49:05,15:40:39,NA,incomplete,false,NA,true,4,24,NA,left,E16_Q4_ansL.png,E25_Q10_ansR.png,between,NA,NaN,NA,left,867.5,1,2,1160
DreDQE9V,NA,NA,DreDQE9V,2020-0188,2021-09-19,14:49:05,15:40:39,NA,incomplete,false,NA,true,4,25,NA,left,E25_Q5_ansL.png,E19_Q4_ansR.png,between,NA,NaN,NA,left,2135.2999999970198,1,2,1159.7999999970198
DreDQE9V,NA,NA,DreDQE9V,2020-0188,2021-09-19,14:49:05,15:40:39,NA,incomplete,false,NA,true,4,26,NA,right,E16_Q3_ansL.png,E16_Q5_ansL.png,within,NA,NaN,NA,left,1242.4000000059605,0,0,1634.8999999910593
DreDQE9V,NA,NA,DreDQE9V,2020-0188,2021-09-19,14:49:05,15:40:39,NA,incomplete,false,true,NA,5,0,E33_Q9_ansR.png,right,NA,NA,NA,right,1606.40000000596,true,NA,NA,NA,NA,NA
DreDQE9V,NA,NA,DreDQE9V,2020-0188,2021-09-19,14:49:05,15:40:39,NA,incomplete,false,true,NA,5,1,E33_Q5_ansR.png,right,NA,NA,NA,right,1541.20000000298,true,NA,NA,NA,NA,NA
DreDQE9V,NA,NA,DreDQE9V,2020-0188,2021-09-19,14:49:05,15:40:39,NA,incomplete,false,true,NA,5,2,E33_Q1_ansL.png,left,NA,NA,NA,left,1648,true,NA,NA,NA,NA,NA
DreDQE9V,NA,NA,DreDQE9V,2020-0188,2021-09-19,14:49:05,15:40:39,NA,incomplete,false,true,NA,5,3,E33_Q3_ansR.png,right,NA,NA,NA,right,1033.29999999702,true,NA,NA,NA,NA,NA
DreDQE9V,NA,NA,DreDQE9V,2020-0188,2021-09-19,14:49:05,15:40:39,NA,incomplete,false,true,NA,5,4,E33_Q2_ansL.png,left,NA,NA,NA,left,1788.69999998808,true,NA,NA,NA,NA,NA
DreDQE9V,NA,NA,DreDQE9V,2020-0188,2021-09-19,14:49:05,15:40:39,NA,incomplete,false,true,NA,5,5,E33_Q6_ansR.png,right,NA,NA,NA,right,1276.89999999106,true,NA,NA,NA,NA,NA
DreDQE9V,NA,NA,DreDQE9V,2020-0188,2021-09-19,14:49:05,15:40:39,NA,incomplete,false,true,NA,5,6,E33_Q4_ansR.png,right,NA,NA,NA,right,1502.70000000298,true,NA,NA,NA,NA,NA
DreDQE9V,NA,NA,DreDQE9V,2020-0188,2021-09-19,14:49:05,15:40:39,NA,incomplete,false,true,NA,5,7,E33_Q8_ansL.png,left,NA,NA,NA,left,1676.19999998808,true,NA,NA,NA,NA,NA
DreDQE9V,NA,NA,DreDQE9V,2020-0188,2021-09-19,14:49:05,15:40:39,NA,incomplete,false,true,NA,5,8,E33_Q10_ansL.png,left,NA,NA,NA,left,1951.70000000298,true,NA,NA,NA,NA,NA
DreDQE9V,NA,NA,DreDQE9V,2020-0188,2021-09-19,14:49:05,15:40:39,NA,incomplete,false,true,NA,5,9,E33_Q7_ansL.png,left,NA,NA,NA,left,2444,true,NA,NA,NA,NA,NA
DreDQE9V,NA,NA,DreDQE9V,2020-0188,2021-09-19,14:49:05,15:40:39,NA,incomplete,false,true,NA,5,10,E22_Q7_ansR.png,right,NA,NA,NA,right,1690.59999999404,true,NA,NA,NA,NA,NA
DreDQE9V,NA,NA,DreDQE9V,2020-0188,2021-09-19,14:49:05,15:40:39,NA,incomplete,false,true,NA,5,11,E22_Q3_ansL.png,left,NA,NA,NA,left,916.100000008941,true,NA,NA,NA,NA,NA
DreDQE9V,NA,NA,DreDQE9V,2020-0188,2021-09-19,14:49:05,15:40:39,NA,incomplete,false,true,NA,5,12,E22_Q2_ansR.png,right,NA,NA,NA,right,1375.09999999404,true,NA,NA,NA,NA,NA
DreDQE9V,NA,NA,DreDQE9V,2020-0188,2021-09-19,14:49:05,15:40:39,NA,incomplete,false,true,NA,5,13,E22_Q1_ansR.png,right,NA,NA,NA,right,1030.29999999702,true,NA,NA,NA,NA,NA
DreDQE9V,NA,NA,DreDQE9V,2020-0188,2021-09-19,14:49:05,15:40:39,NA,incomplete,false,true,NA,5,14,E22_Q9_ansL.png,left,NA,NA,NA,left,1060.89999999106,true,NA,NA,NA,NA,NA
DreDQE9V,NA,NA,DreDQE9V,2020-0188,2021-09-19,14:49:05,15:40:39,NA,incomplete,false,true,NA,5,15,E22_Q6_ansL.png,left,NA,NA,NA,left,1167.59999999404,true,NA,NA,NA,NA,NA
DreDQE9V,NA,NA,DreDQE9V,2020-0188,2021-09-19,14:49:05,15:40:39,NA,incomplete,false,true,NA,5,16,E22_Q5_ansL.png,left,NA,NA,NA,left,1145,true,NA,NA,NA,NA,NA
DreDQE9V,NA,NA,DreDQE9V,2020-0188,2021-09-19,14:49:05,15:40:39,NA,incomplete,false,true,NA,5,17,E22_Q8_ansR.png,right,NA,NA,NA,right,1307.80000001192,true,NA,NA,NA,NA,NA
DreDQE9V,NA,NA,DreDQE9V,2020-0188,2021-09-19,14:49:05,15:40:39,NA,incomplete,false,true,NA,5,18,E22_Q10_ansR.png,right,NA,NA,NA,right,1338.39999999106,true,NA,NA,NA,NA,NA
DreDQE9V,NA,NA,DreDQE9V,2020-0188,2021-09-19,14:49:05,15:40:39,NA,incomplete,false,true,NA,5,19,E22_Q4_ansL.png,left,NA,NA,NA,left,1101.29999999702,true,NA,NA,NA,NA,NA
DreDQE9V,NA,NA,DreDQE9V,2020-0188,2021-09-19,14:49:05,15:40:39,NA,incomplete,false,true,NA,5,20,E28_Q3_ansL.png,left,NA,NA,NA,left,1611.29999999702,true,NA,NA,NA,NA,NA
DreDQE9V,NA,NA,DreDQE9V,2020-0188,2021-09-19,14:49:05,15:40:39,NA,incomplete,false,true,NA,5,21,E28_Q5_ansL.png,left,NA,NA,NA,left,1137.79999999702,true,NA,NA,NA,NA,NA
DreDQE9V,NA,NA,DreDQE9V,2020-0188,2021-09-19,14:49:05,15:40:39,NA,incomplete,false,true,NA,5,22,E28_Q1_ansR.png,right,NA,NA,NA,right,1137.29999999702,true,NA,NA,NA,NA,NA
DreDQE9V,NA,NA,DreDQE9V,2020-0188,2021-09-19,14:49:05,15:40:39,NA,incomplete,false,true,NA,5,23,E28_Q9_ansL.png,left,NA,NA,NA,left,1234.09999999404,true,NA,NA,NA,NA,NA
DreDQE9V,NA,NA,DreDQE9V,2020-0188,2021-09-19,14:49:05,15:40:39,NA,incomplete,false,true,NA,5,24,E28_Q8_ansR.png,right,NA,NA,NA,right,1215.69999998808,true,NA,NA,NA,NA,NA
DreDQE9V,NA,NA,DreDQE9V,2020-0188,2021-09-19,14:49:05,15:40:39,NA,incomplete,false,true,NA,5,25,E28_Q10_ansR.png,right,NA,NA,NA,right,1275.5,true,NA,NA,NA,NA,NA
DreDQE9V,NA,NA,DreDQE9V,2020-0188,2021-09-19,14:49:05,15:40:39,NA,incomplete,false,true,NA,5,26,E28_Q6_ansL.png,left,NA,NA,NA,left,1424.79999999702,true,NA,NA,NA,NA,NA
DreDQE9V,NA,NA,DreDQE9V,2020-0188,2021-09-19,14:49:05,15:40:39,NA,incomplete,false,true,NA,5,27,E28_Q4_ansL.png,left,NA,NA,NA,left,1215.40000000596,true,NA,NA,NA,NA,NA
DreDQE9V,NA,NA,DreDQE9V,2020-0188,2021-09-19,14:49:05,15:40:39,NA,incomplete,false,true,NA,5,28,E28_Q2_ansR.png,right,NA,NA,NA,right,1064.30000001192,true,NA,NA,NA,NA,NA
DreDQE9V,NA,NA,DreDQE9V,2020-0188,2021-09-19,14:49:05,15:40:39,NA,incomplete,false,true,NA,5,29,E28_Q7_ansR.png,right,NA,NA,NA,right,1392.10000000894,true,NA,NA,NA,NA,NA
DreDQE9V,NA,NA,DreDQE9V,2020-0188,2021-09-19,14:49:05,15:40:39,NA,incomplete,false,NA,true,5,0,NA,left,E22_Q4_ansL.png,E28_Q1_ansR.png,between,NA,NaN,NA,left,972.2999999970198,1,2,931.5999999940395
DreDQE9V,NA,NA,DreDQE9V,2020-0188,2021-09-19,14:49:05,15:40:39,NA,incomplete,false,NA,true,5,1,NA,left,E22_Q1_ansR.png,E22_Q5_ansL.png,within,NA,NaN,NA,left,2954.6000000089407,1,1,1642.7000000029802
DreDQE9V,NA,NA,DreDQE9V,2020-0188,2021-09-19,14:49:05,15:40:39,NA,incomplete,false,NA,true,5,2,NA,left,E22_Q8_ansR.png,E28_Q3_ansL.png,between,NA,NaN,NA,left,1013.2999999970198,1,1,1176.800000011921
DreDQE9V,NA,NA,DreDQE9V,2020-0188,2021-09-19,14:49:05,15:40:39,NA,incomplete,false,NA,true,5,3,NA,right,E33_Q7_ansL.png,E33_Q4_ansR.png,within,NA,NaN,NA,right,1882.7999999970198,1,1,790.7000000029802
DreDQE9V,NA,NA,DreDQE9V,2020-0188,2021-09-19,14:49:05,15:40:39,NA,incomplete,false,NA,true,5,4,NA,right,E28_Q8_ansR.png,E28_Q5_ansL.png,within,NA,NaN,NA,right,1382.0999999940395,1,1,856.8999999910593
DreDQE9V,NA,NA,DreDQE9V,2020-0188,2021-09-19,14:49:05,15:40:39,NA,incomplete,false,NA,true,5,5,NA,left,E22_Q9_ansL.png,E22_Q8_ansR.png,within,NA,NaN,NA,left,1291.4000000059605,1,1,1062.3999999910593
DreDQE9V,NA,NA,DreDQE9V,2020-0188,2021-09-19,14:49:05,15:40:39,NA,incomplete,false,NA,true,5,6,NA,left,E33_Q1_ansL.png,E33_Q6_ansR.png,within,NA,NaN,NA,left,1465.8999999910593,1,1,930.5999999940395
DreDQE9V,NA,NA,DreDQE9V,2020-0188,2021-09-19,14:49:05,15:40:39,NA,incomplete,false,NA,true,5,7,NA,right,E22_Q4_ansL.png,E22_Q5_ansL.png,within,NA,NaN,NA,left,1874,0,1,1203.2000000029802
DreDQE9V,NA,NA,DreDQE9V,2020-0188,2021-09-19,14:49:05,15:40:39,NA,incomplete,false,NA,true,5,8,NA,left,E22_Q2_ansR.png,E22_Q6_ansL.png,within,NA,NaN,NA,left,1317.2000000029802,1,1,1004.5
DreDQE9V,NA,NA,DreDQE9V,2020-0188,2021-09-19,14:49:05,15:40:39,NA,incomplete,false,NA,true,5,9,NA,right,E28_Q9_ansL.png,E28_Q3_ansL.png,within,NA,NaN,NA,right,1601.6000000089407,1,1,913.0999999940395
DreDQE9V,NA,NA,DreDQE9V,2020-0188,2021-09-19,14:49:05,15:40:39,NA,incomplete,false,NA,true,5,10,NA,left,E22_Q6_ansL.png,E22_Q10_ansR.png,within,NA,NaN,NA,left,1840.5999999940395,1,1,938.1999999880791
DreDQE9V,NA,NA,DreDQE9V,2020-0188,2021-09-19,14:49:05,15:40:39,NA,incomplete,false,NA,true,5,11,NA,right,E28_Q2_ansR.png,E28_Q10_ansR.png,within,NA,NaN,NA,right,1220.800000011921,1,1,2068.1000000089407
DreDQE9V,NA,NA,DreDQE9V,2020-0188,2021-09-19,14:49:05,15:40:39,NA,incomplete,false,NA,true,5,12,NA,right,E28_Q5_ansL.png,E22_Q10_ansR.png,between,NA,NaN,NA,right,3158.8999999910593,1,2,1057.800000011921
DreDQE9V,NA,NA,DreDQE9V,2020-0188,2021-09-19,14:49:05,15:40:39,NA,incomplete,false,NA,true,5,13,NA,right,E33_Q4_ansR.png,E33_Q3_ansR.png,within,NA,NaN,NA,right,1178.5999999940395,1,1,1431.0999999940395
DreDQE9V,NA,NA,DreDQE9V,2020-0188,2021-09-19,14:49:05,15:40:39,NA,incomplete,false,NA,true,5,14,NA,left,E33_Q8_ansL.png,E22_Q7_ansR.png,between,NA,NaN,NA,left,3575.7000000029802,1,2,1848.0999999940395
DreDQE9V,NA,NA,DreDQE9V,2020-0188,2021-09-19,14:49:05,15:40:39,NA,incomplete,false,NA,true,5,15,NA,left,E33_Q5_ansR.png,E33_Q2_ansL.png,within,NA,NaN,NA,left,1258.5999999940395,1,1,882.5999999940395
DreDQE9V,NA,NA,DreDQE9V,2020-0188,2021-09-19,14:49:05,15:40:39,NA,incomplete,false,NA,true,5,16,NA,left,E28_Q8_ansR.png,E28_Q4_ansL.png,within,NA,NaN,NA,left,2536.1000000089407,1,1,981.2000000029802
DreDQE9V,NA,NA,DreDQE9V,2020-0188,2021-09-19,14:49:05,15:40:39,NA,incomplete,false,NA,true,5,17,NA,right,E33_Q3_ansR.png,E33_Q9_ansR.png,within,NA,NaN,NA,right,1504.2999999970198,1,1,840.7000000029802
DreDQE9V,NA,NA,DreDQE9V,2020-0188,2021-09-19,14:49:05,15:40:39,NA,incomplete,false,NA,true,5,18,NA,right,E28_Q10_ansR.png,E28_Q1_ansR.png,within,NA,NaN,NA,right,889.2000000029802,1,1,966.0999999940395
DreDQE9V,NA,NA,DreDQE9V,2020-0188,2021-09-19,14:49:05,15:40:39,NA,incomplete,false,NA,true,5,19,NA,right,E22_Q1_ansR.png,E22_Q7_ansR.png,within,NA,NaN,NA,left,1079.5999999940395,0,1,2207.7000000029802
DreDQE9V,NA,NA,DreDQE9V,2020-0188,2021-09-19,14:49:05,15:40:39,NA,incomplete,false,NA,true,5,20,NA,right,E22_Q3_ansL.png,E33_Q10_ansL.png,between,NA,NaN,NA,right,1346.5999999940395,1,2,1012.2999999970198
DreDQE9V,NA,NA,DreDQE9V,2020-0188,2021-09-19,14:49:05,15:40:39,NA,incomplete,false,NA,true,5,21,NA,left,E22_Q3_ansL.png,E22_Q9_ansL.png,within,NA,NaN,NA,left,1054,1,1,1423.4000000059605
DreDQE9V,NA,NA,DreDQE9V,2020-0188,2021-09-19,14:49:05,15:40:39,NA,incomplete,false,NA,true,5,22,NA,left,E28_Q9_ansL.png,E28_Q6_ansL.png,within,NA,NaN,NA,left,1333.6000000089407,1,1,1167
DreDQE9V,NA,NA,DreDQE9V,2020-0188,2021-09-19,14:49:05,15:40:39,NA,incomplete,false,NA,true,5,23,NA,right,E33_Q8_ansL.png,E33_Q2_ansL.png,within,NA,NaN,NA,left,2552.2999999970198,0,1,1045.4000000059605
DreDQE9V,NA,NA,DreDQE9V,2020-0188,2021-09-19,14:49:05,15:40:39,NA,incomplete,false,NA,true,5,24,NA,right,E33_Q10_ansL.png,E33_Q6_ansR.png,within,NA,NaN,NA,right,2002.5,1,1,801.2999999970198
DreDQE9V,NA,NA,DreDQE9V,2020-0188,2021-09-19,14:49:05,15:40:39,NA,incomplete,false,NA,true,5,25,NA,left,E28_Q6_ansL.png,E28_Q7_ansR.png,within,NA,NaN,NA,right,1103.5,0,1,1971
DreDQE9V,NA,NA,DreDQE9V,2020-0188,2021-09-19,14:49:05,15:40:39,NA,incomplete,false,NA,true,5,26,NA,left,E33_Q7_ansL.png,E22_Q2_ansR.png,between,NA,NaN,NA,right,1873.5,0,2,1127
DreDQE9V,NA,NA,DreDQE9V,2020-0188,2021-09-19,14:49:05,15:40:39,NA,incomplete,false,true,NA,6,0,E8_Q8_ansR.png,right,NA,NA,NA,right,1137.79999999702,true,NA,NA,NA,NA,NA
DreDQE9V,NA,NA,DreDQE9V,2020-0188,2021-09-19,14:49:05,15:40:39,NA,incomplete,false,true,NA,6,1,E8_Q3_ansL.png,left,NA,NA,NA,left,935.20000000298,true,NA,NA,NA,NA,NA
DreDQE9V,NA,NA,DreDQE9V,2020-0188,2021-09-19,14:49:05,15:40:39,NA,incomplete,false,true,NA,6,2,E8_Q6_ansL.png,left,NA,NA,NA,left,1239.70000000298,true,NA,NA,NA,NA,NA
DreDQE9V,NA,NA,DreDQE9V,2020-0188,2021-09-19,14:49:05,15:40:39,NA,incomplete,false,true,NA,6,3,E8_Q10_ansR.png,right,NA,NA,NA,right,1161.89999999106,true,NA,NA,NA,NA,NA
DreDQE9V,NA,NA,DreDQE9V,2020-0188,2021-09-19,14:49:05,15:40:39,NA,incomplete,false,true,NA,6,4,E8_Q7_ansR.png,right,NA,NA,NA,right,1172.59999999404,true,NA,NA,NA,NA,NA
DreDQE9V,NA,NA,DreDQE9V,2020-0188,2021-09-19,14:49:05,15:40:39,NA,incomplete,false,true,NA,6,5,E8_Q4_ansL.png,left,NA,NA,NA,left,968.59999999404,true,NA,NA,NA,NA,NA
DreDQE9V,NA,NA,DreDQE9V,2020-0188,2021-09-19,14:49:05,15:40:39,NA,incomplete,false,true,NA,6,6,E8_Q5_ansL.png,left,NA,NA,NA,left,913.79999999702,true,NA,NA,NA,NA,NA
DreDQE9V,NA,NA,DreDQE9V,2020-0188,2021-09-19,14:49:05,15:40:39,NA,incomplete,false,true,NA,6,7,E8_Q9_ansL.png,left,NA,NA,NA,left,851.5,true,NA,NA,NA,NA,NA
DreDQE9V,NA,NA,DreDQE9V,2020-0188,2021-09-19,14:49:05,15:40:39,NA,incomplete,false,true,NA,6,8,E8_Q1_ansR.png,right,NA,NA,NA,right,1203.29999999702,true,NA,NA,NA,NA,NA
DreDQE9V,NA,NA,DreDQE9V,2020-0188,2021-09-19,14:49:05,15:40:39,NA,incomplete,false,true,NA,6,9,E8_Q2_ansR.png,right,NA,NA,NA,right,973.70000000298,true,NA,NA,NA,NA,NA
DreDQE9V,NA,NA,DreDQE9V,2020-0188,2021-09-19,14:49:05,15:40:39,NA,incomplete,false,true,NA,6,10,E3_Q3_ansR.png,right,NA,NA,NA,right,1370.39999999106,true,NA,NA,NA,NA,NA
DreDQE9V,NA,NA,DreDQE9V,2020-0188,2021-09-19,14:49:05,15:40:39,NA,incomplete,false,true,NA,6,11,E3_Q10_ansR.png,right,NA,NA,NA,right,981,true,NA,NA,NA,NA,NA
DreDQE9V,NA,NA,DreDQE9V,2020-0188,2021-09-19,14:49:05,15:40:39,NA,incomplete,false,true,NA,6,12,E3_Q9_ansL.png,left,NA,NA,NA,left,975.40000000596,true,NA,NA,NA,NA,NA
DreDQE9V,NA,NA,DreDQE9V,2020-0188,2021-09-19,14:49:05,15:40:39,NA,incomplete,false,true,NA,6,13,E3_Q5_ansR.png,right,NA,NA,NA,right,910,true,NA,NA,NA,NA,NA
DreDQE9V,NA,NA,DreDQE9V,2020-0188,2021-09-19,14:49:05,15:40:39,NA,incomplete,false,true,NA,6,14,E3_Q2_ansL.png,left,NA,NA,NA,left,1070.59999999404,true,NA,NA,NA,NA,NA
DreDQE9V,NA,NA,DreDQE9V,2020-0188,2021-09-19,14:49:05,15:40:39,NA,incomplete,false,true,NA,6,15,E3_Q4_ansL.png,left,NA,NA,NA,left,895.5,true,NA,NA,NA,NA,NA
DreDQE9V,NA,NA,DreDQE9V,2020-0188,2021-09-19,14:49:05,15:40:39,NA,incomplete,false,true,NA,6,16,E3_Q6_ansR.png,right,NA,NA,NA,right,830,true,NA,NA,NA,NA,NA
DreDQE9V,NA,NA,DreDQE9V,2020-0188,2021-09-19,14:49:05,15:40:39,NA,incomplete,false,true,NA,6,17,E3_Q7_ansL.png,left,NA,NA,NA,left,1037,true,NA,NA,NA,NA,NA
DreDQE9V,NA,NA,DreDQE9V,2020-0188,2021-09-19,14:49:05,15:40:39,NA,incomplete,false,true,NA,6,18,E3_Q8_ansL.png,left,NA,NA,NA,left,987.40000000596,true,NA,NA,NA,NA,NA
DreDQE9V,NA,NA,DreDQE9V,2020-0188,2021-09-19,14:49:05,15:40:39,NA,incomplete,false,true,NA,6,19,E3_Q1_ansR.png,right,NA,NA,NA,right,914.5,true,NA,NA,NA,NA,NA
DreDQE9V,NA,NA,DreDQE9V,2020-0188,2021-09-19,14:49:05,15:40:39,NA,incomplete,false,true,NA,6,20,E10_Q10_ansR.png,right,NA,NA,NA,right,2233.29999999702,true,NA,NA,NA,NA,NA
DreDQE9V,NA,NA,DreDQE9V,2020-0188,2021-09-19,14:49:05,15:40:39,NA,incomplete,false,true,NA,6,21,E10_Q7_ansR.png,right,NA,NA,NA,right,1084.90000000596,true,NA,NA,NA,NA,NA
DreDQE9V,NA,NA,DreDQE9V,2020-0188,2021-09-19,14:49:05,15:40:39,NA,incomplete,false,true,NA,6,22,E10_Q4_ansL.png,left,NA,NA,NA,right,1686.5,false,NA,NA,NA,NA,NA
DreDQE9V,NA,NA,DreDQE9V,2020-0188,2021-09-19,14:49:05,15:40:39,NA,incomplete,false,true,NA,6,23,E10_Q1_ansL.png,left,NA,NA,NA,right,1403.20000000298,false,NA,NA,NA,NA,NA
DreDQE9V,NA,NA,DreDQE9V,2020-0188,2021-09-19,14:49:05,15:40:39,NA,incomplete,false,true,NA,6,24,E10_Q5_ansR.png,right,NA,NA,NA,right,1335.29999999702,true,NA,NA,NA,NA,NA
DreDQE9V,NA,NA,DreDQE9V,2020-0188,2021-09-19,14:49:05,15:40:39,NA,incomplete,false,true,NA,6,25,E10_Q2_ansL.png,left,NA,NA,NA,right,1407.20000000298,false,NA,NA,NA,NA,NA
DreDQE9V,NA,NA,DreDQE9V,2020-0188,2021-09-19,14:49:05,15:40:39,NA,incomplete,false,true,NA,6,26,E10_Q6_ansR.png,right,NA,NA,NA,right,1308.40000000596,true,NA,NA,NA,NA,NA
DreDQE9V,NA,NA,DreDQE9V,2020-0188,2021-09-19,14:49:05,15:40:39,NA,incomplete,false,true,NA,6,27,E10_Q9_ansL.png,left,NA,NA,NA,left,2031.39999999106,true,NA,NA,NA,NA,NA
DreDQE9V,NA,NA,DreDQE9V,2020-0188,2021-09-19,14:49:05,15:40:39,NA,incomplete,false,true,NA,6,28,E10_Q8_ansR.png,right,NA,NA,NA,right,1743.40000000596,true,NA,NA,NA,NA,NA
DreDQE9V,NA,NA,DreDQE9V,2020-0188,2021-09-19,14:49:05,15:40:39,NA,incomplete,false,true,NA,6,29,E10_Q3_ansL.png,left,NA,NA,NA,left,2306.89999999106,true,NA,NA,NA,NA,NA
DreDQE9V,NA,NA,DreDQE9V,2020-0188,2021-09-19,14:49:05,15:40:39,NA,incomplete,false,NA,true,6,0,NA,right,E3_Q10_ansR.png,E8_Q1_ansR.png,between,NA,NaN,NA,right,1534.4000000059605,1,2,2024.9000000059605
DreDQE9V,NA,NA,DreDQE9V,2020-0188,2021-09-19,14:49:05,15:40:39,NA,incomplete,false,NA,true,6,1,NA,right,E3_Q7_ansL.png,E3_Q2_ansL.png,within,NA,NaN,NA,left,1389.3999999910593,0,1,1738.9000000059605
DreDQE9V,NA,NA,DreDQE9V,2020-0188,2021-09-19,14:49:05,15:40:39,NA,incomplete,false,NA,true,6,2,NA,right,E10_Q2_ansL.png,E10_Q4_ansL.png,within,NA,NaN,NA,right,2019.7999999970198,1,1,912.3999999910593
DreDQE9V,NA,NA,DreDQE9V,2020-0188,2021-09-19,14:49:05,15:40:39,NA,incomplete,false,NA,true,6,3,NA,right,E10_Q5_ansR.png,E10_Q7_ansR.png,within,NA,NaN,NA,right,2034,1,1,2656.0999999940395
DreDQE9V,NA,NA,DreDQE9V,2020-0188,2021-09-19,14:49:05,15:40:39,NA,incomplete,false,NA,true,6,4,NA,left,E10_Q2_ansL.png,E10_Q8_ansR.png,within,NA,NaN,NA,left,3659.7000000029802,1,1,924
DreDQE9V,NA,NA,DreDQE9V,2020-0188,2021-09-19,14:49:05,15:40:39,NA,incomplete,false,NA,true,6,5,NA,right,E3_Q3_ansR.png,E8_Q9_ansL.png,between,NA,NaN,NA,right,1045.4000000059605,1,2,808
DreDQE9V,NA,NA,DreDQE9V,2020-0188,2021-09-19,14:49:05,15:40:39,NA,incomplete,false,NA,true,6,6,NA,right,E3_Q2_ansL.png,E3_Q10_ansR.png,within,NA,NaN,NA,right,1087.4000000059605,1,1,1275.1000000089407
DreDQE9V,NA,NA,DreDQE9V,2020-0188,2021-09-19,14:49:05,15:40:39,NA,incomplete,false,NA,true,6,7,NA,left,E8_Q4_ansL.png,E8_Q1_ansR.png,within,NA,NaN,NA,right,1081.5,0,1,956.5
DreDQE9V,NA,NA,DreDQE9V,2020-0188,2021-09-19,14:49:05,15:40:39,NA,incomplete,false,NA,true,6,8,NA,left,E8_Q10_ansR.png,E8_Q5_ansL.png,within,NA,NaN,NA,left,1381.5999999940395,1,1,1283.1000000089407
DreDQE9V,NA,NA,DreDQE9V,2020-0188,2021-09-19,14:49:05,15:40:39,NA,incomplete,false,NA,true,6,9,NA,right,E10_Q3_ansL.png,E10_Q6_ansR.png,within,NA,NaN,NA,left,1511.7999999970198,0,1,2011.199999988079
DreDQE9V,NA,NA,DreDQE9V,2020-0188,2021-09-19,14:49:05,15:40:39,NA,incomplete,false,NA,true,6,10,NA,left,E3_Q9_ansL.png,E3_Q4_ansL.png,within,NA,NaN,NA,left,1824,1,1,1202.5
DreDQE9V,NA,NA,DreDQE9V,2020-0188,2021-09-19,14:49:05,15:40:39,NA,incomplete,false,NA,true,6,11,NA,right,E10_Q6_ansR.png,E10_Q1_ansL.png,within,NA,NaN,NA,right,6837.5,1,1,2151.1000000089407
DreDQE9V,NA,NA,DreDQE9V,2020-0188,2021-09-19,14:49:05,15:40:39,NA,incomplete,false,NA,true,6,12,NA,right,E10_Q9_ansL.png,E10_Q5_ansR.png,within,NA,NaN,NA,right,1818.300000011921,1,1,995.7999999970198
DreDQE9V,NA,NA,DreDQE9V,2020-0188,2021-09-19,14:49:05,15:40:39,NA,incomplete,false,NA,true,6,13,NA,right,E3_Q6_ansR.png,E3_Q5_ansR.png,within,NA,NaN,NA,right,1404.7000000029802,1,1,1987.800000011921
DreDQE9V,NA,NA,DreDQE9V,2020-0188,2021-09-19,14:49:05,15:40:39,NA,incomplete,false,NA,true,6,14,NA,left,E3_Q7_ansL.png,E10_Q10_ansR.png,between,NA,NaN,NA,left,1310.1000000089407,1,2,2893.7999999970198
DreDQE9V,NA,NA,DreDQE9V,2020-0188,2021-09-19,14:49:05,15:40:39,NA,incomplete,false,NA,true,6,15,NA,right,E8_Q4_ansL.png,E8_Q6_ansL.png,within,NA,NaN,NA,right,1422.0999999940395,1,1,1716.7000000029802
DreDQE9V,NA,NA,DreDQE9V,2020-0188,2021-09-19,14:49:05,15:40:39,NA,incomplete,false,NA,true,6,16,NA,left,E8_Q2_ansR.png,E3_Q9_ansL.png,between,NA,NaN,NA,left,2781,1,2,949.5
DreDQE9V,NA,NA,DreDQE9V,2020-0188,2021-09-19,14:49:05,15:40:39,NA,incomplete,false,NA,true,6,17,NA,right,E3_Q8_ansL.png,E3_Q4_ansL.png,within,NA,NaN,NA,right,3207.9000000059605,1,1,1030.6000000089407
DreDQE9V,NA,NA,DreDQE9V,2020-0188,2021-09-19,14:49:05,15:40:39,NA,incomplete,false,NA,true,6,18,NA,left,E3_Q8_ansL.png,E10_Q7_ansR.png,between,NA,NaN,NA,left,2536.5,1,2,1020.5999999940395
DreDQE9V,NA,NA,DreDQE9V,2020-0188,2021-09-19,14:49:05,15:40:39,NA,incomplete,false,NA,true,6,19,NA,left,E10_Q10_ansR.png,E10_Q1_ansL.png,within,NA,NaN,NA,left,3322.7000000029802,1,1,1111.1000000089407
DreDQE9V,NA,NA,DreDQE9V,2020-0188,2021-09-19,14:49:05,15:40:39,NA,incomplete,false,NA,true,6,20,NA,left,E3_Q6_ansR.png,E3_Q1_ansR.png,within,NA,NaN,NA,right,2036.5999999940395,0,1,996.0999999940395
DreDQE9V,NA,NA,DreDQE9V,2020-0188,2021-09-19,14:49:05,15:40:39,NA,incomplete,false,NA,true,6,21,NA,left,E8_Q5_ansL.png,E8_Q2_ansR.png,within,NA,NaN,NA,left,841.5,1,1,806.8999999910593
DreDQE9V,NA,NA,DreDQE9V,2020-0188,2021-09-19,14:49:05,15:40:39,NA,incomplete,false,NA,true,6,22,NA,left,E8_Q7_ansR.png,E8_Q9_ansL.png,within,NA,NaN,NA,left,1065,1,1,816.2999999970198
DreDQE9V,NA,NA,DreDQE9V,2020-0188,2021-09-19,14:49:05,15:40:39,NA,incomplete,false,NA,true,6,23,NA,right,E3_Q5_ansR.png,E3_Q3_ansR.png,within,NA,NaN,NA,right,2715.7000000029802,1,1,2977.5999999940395
DreDQE9V,NA,NA,DreDQE9V,2020-0188,2021-09-19,14:49:05,15:40:39,NA,incomplete,false,NA,true,6,24,NA,left,E3_Q1_ansR.png,E10_Q4_ansL.png,between,NA,NaN,NA,left,1733.5,1,2,1422.2000000029802
DreDQE9V,NA,NA,DreDQE9V,2020-0188,2021-09-19,14:49:05,15:40:39,NA,incomplete,false,NA,true,6,25,NA,left,E8_Q8_ansR.png,E8_Q10_ansR.png,within,NA,NaN,NA,left,1095.8999999910593,1,1,1078
DreDQE9V,NA,NA,DreDQE9V,2020-0188,2021-09-19,14:49:05,15:40:39,NA,incomplete,false,NA,true,6,26,NA,right,E8_Q7_ansR.png,E8_Q3_ansL.png,within,NA,NaN,NA,right,1128.2000000029802,1,1,1847.4000000059605
DreDQE9V,NA,NA,DreDQE9V,2020-0188,2021-09-19,14:49:05,15:40:39,NA,incomplete,false,true,NA,7,0,E31_Q9_ansL.png,left,NA,NA,NA,left,1123.29999999702,true,NA,NA,NA,NA,NA
DreDQE9V,NA,NA,DreDQE9V,2020-0188,2021-09-19,14:49:05,15:40:39,NA,incomplete,false,true,NA,7,1,E31_Q10_ansR.png,right,NA,NA,NA,right,1065.40000000596,true,NA,NA,NA,NA,NA
DreDQE9V,NA,NA,DreDQE9V,2020-0188,2021-09-19,14:49:05,15:40:39,NA,incomplete,false,true,NA,7,2,E31_Q7_ansR.png,right,NA,NA,NA,right,1075.39999999106,true,NA,NA,NA,NA,NA
DreDQE9V,NA,NA,DreDQE9V,2020-0188,2021-09-19,14:49:05,15:40:39,NA,incomplete,false,true,NA,7,3,E31_Q3_ansL.png,left,NA,NA,NA,left,2019.90000000596,true,NA,NA,NA,NA,NA
DreDQE9V,NA,NA,DreDQE9V,2020-0188,2021-09-19,14:49:05,15:40:39,NA,incomplete,false,true,NA,7,4,E31_Q6_ansL.png,left,NA,NA,NA,left,1051.70000000298,true,NA,NA,NA,NA,NA
DreDQE9V,NA,NA,DreDQE9V,2020-0188,2021-09-19,14:49:05,15:40:39,NA,incomplete,false,true,NA,7,5,E31_Q2_ansR.png,right,NA,NA,NA,right,968.5,true,NA,NA,NA,NA,NA
DreDQE9V,NA,NA,DreDQE9V,2020-0188,2021-09-19,14:49:05,15:40:39,NA,incomplete,false,true,NA,7,6,E31_Q1_ansR.png,right,NA,NA,NA,right,1535.30000001192,true,NA,NA,NA,NA,NA
DreDQE9V,NA,NA,DreDQE9V,2020-0188,2021-09-19,14:49:05,15:40:39,NA,incomplete,false,true,NA,7,7,E31_Q4_ansL.png,left,NA,NA,NA,left,1186.5,true,NA,NA,NA,NA,NA
DreDQE9V,NA,NA,DreDQE9V,2020-0188,2021-09-19,14:49:05,15:40:39,NA,incomplete,false,true,NA,7,8,E31_Q8_ansR.png,right,NA,NA,NA,right,839.90000000596,true,NA,NA,NA,NA,NA
DreDQE9V,NA,NA,DreDQE9V,2020-0188,2021-09-19,14:49:05,15:40:39,NA,incomplete,false,true,NA,7,9,E31_Q5_ansL.png,left,NA,NA,NA,left,1453.79999999702,true,NA,NA,NA,NA,NA
DreDQE9V,NA,NA,DreDQE9V,2020-0188,2021-09-19,14:49:05,15:40:39,NA,incomplete,false,true,NA,7,10,E20_Q5_ansR.png,right,NA,NA,NA,right,1665.59999999404,true,NA,NA,NA,NA,NA
DreDQE9V,NA,NA,DreDQE9V,2020-0188,2021-09-19,14:49:05,15:40:39,NA,incomplete,false,true,NA,7,11,E20_Q8_ansL.png,left,NA,NA,NA,left,1241.10000000894,true,NA,NA,NA,NA,NA
DreDQE9V,NA,NA,DreDQE9V,2020-0188,2021-09-19,14:49:05,15:40:39,NA,incomplete,false,true,NA,7,12,E20_Q1_ansL.png,left,NA,NA,NA,left,1603.90000000596,true,NA,NA,NA,NA,NA
DreDQE9V,NA,NA,DreDQE9V,2020-0188,2021-09-19,14:49:05,15:40:39,NA,incomplete,false,true,NA,7,13,E20_Q2_ansL.png,left,NA,NA,NA,left,1067.90000000596,true,NA,NA,NA,NA,NA
DreDQE9V,NA,NA,DreDQE9V,2020-0188,2021-09-19,14:49:05,15:40:39,NA,incomplete,false,true,NA,7,14,E20_Q7_ansL.png,left,NA,NA,NA,left,1346.40000000596,true,NA,NA,NA,NA,NA
DreDQE9V,NA,NA,DreDQE9V,2020-0188,2021-09-19,14:49:05,15:40:39,NA,incomplete,false,true,NA,7,15,E20_Q10_ansL.png,left,NA,NA,NA,left,1916.29999999702,true,NA,NA,NA,NA,NA
DreDQE9V,NA,NA,DreDQE9V,2020-0188,2021-09-19,14:49:05,15:40:39,NA,incomplete,false,true,NA,7,16,E20_Q4_ansR.png,right,NA,NA,NA,left,1726.5,false,NA,NA,NA,NA,NA
DreDQE9V,NA,NA,DreDQE9V,2020-0188,2021-09-19,14:49:05,15:40:39,NA,incomplete,false,true,NA,7,17,E20_Q6_ansR.png,right,NA,NA,NA,right,1482.79999999702,true,NA,NA,NA,NA,NA
DreDQE9V,NA,NA,DreDQE9V,2020-0188,2021-09-19,14:49:05,15:40:39,NA,incomplete,false,true,NA,7,18,E20_Q9_ansR.png,right,NA,NA,NA,right,992.300000011921,true,NA,NA,NA,NA,NA
DreDQE9V,NA,NA,DreDQE9V,2020-0188,2021-09-19,14:49:05,15:40:39,NA,incomplete,false,true,NA,7,19,E20_Q3_ansR.png,right,NA,NA,NA,right,1016,true,NA,NA,NA,NA,NA
DreDQE9V,NA,NA,DreDQE9V,2020-0188,2021-09-19,14:49:05,15:40:39,NA,incomplete,false,true,NA,7,20,E18_Q6_ansR.png,right,NA,NA,NA,right,1176.39999999106,true,NA,NA,NA,NA,NA
DreDQE9V,NA,NA,DreDQE9V,2020-0188,2021-09-19,14:49:05,15:40:39,NA,incomplete,false,true,NA,7,21,E18_Q3_ansR.png,right,NA,NA,NA,right,939.40000000596,true,NA,NA,NA,NA,NA
DreDQE9V,NA,NA,DreDQE9V,2020-0188,2021-09-19,14:49:05,15:40:39,NA,incomplete,false,true,NA,7,22,E18_Q5_ansR.png,right,NA,NA,NA,right,1100.70000000298,true,NA,NA,NA,NA,NA
DreDQE9V,NA,NA,DreDQE9V,2020-0188,2021-09-19,14:49:05,15:40:39,NA,incomplete,false,true,NA,7,23,E18_Q8_ansL.png,left,NA,NA,NA,left,1148.40000000596,true,NA,NA,NA,NA,NA
DreDQE9V,NA,NA,DreDQE9V,2020-0188,2021-09-19,14:49:05,15:40:39,NA,incomplete,false,true,NA,7,24,E18_Q4_ansR.png,right,NA,NA,NA,right,969.100000008941,true,NA,NA,NA,NA,NA
DreDQE9V,NA,NA,DreDQE9V,2020-0188,2021-09-19,14:49:05,15:40:39,NA,incomplete,false,true,NA,7,25,E18_Q7_ansL.png,left,NA,NA,NA,left,883.29999999702,true,NA,NA,NA,NA,NA
DreDQE9V,NA,NA,DreDQE9V,2020-0188,2021-09-19,14:49:05,15:40:39,NA,incomplete,false,true,NA,7,26,E18_Q2_ansL.png,left,NA,NA,NA,left,789.5,true,NA,NA,NA,NA,NA
DreDQE9V,NA,NA,DreDQE9V,2020-0188,2021-09-19,14:49:05,15:40:39,NA,incomplete,false,true,NA,7,27,E18_Q9_ansR.png,right,NA,NA,NA,right,872.79999999702,true,NA,NA,NA,NA,NA
DreDQE9V,NA,NA,DreDQE9V,2020-0188,2021-09-19,14:49:05,15:40:39,NA,incomplete,false,true,NA,7,28,E18_Q10_ansL.png,left,NA,NA,NA,left,872.90000000596,true,NA,NA,NA,NA,NA
DreDQE9V,NA,NA,DreDQE9V,2020-0188,2021-09-19,14:49:05,15:40:39,NA,incomplete,false,true,NA,7,29,E18_Q1_ansL.png,left,NA,NA,NA,left,900,true,NA,NA,NA,NA,NA
DreDQE9V,NA,NA,DreDQE9V,2020-0188,2021-09-19,14:49:05,15:40:39,NA,incomplete,false,NA,true,7,0,NA,right,E31_Q4_ansL.png,E31_Q6_ansL.png,within,NA,NaN,NA,left,1184.8999999910593,0,1,1037
DreDQE9V,NA,NA,DreDQE9V,2020-0188,2021-09-19,14:49:05,15:40:39,NA,incomplete,false,NA,true,7,1,NA,left,E31_Q1_ansR.png,E31_Q5_ansL.png,within,NA,NaN,NA,left,1908.0999999940395,1,1,1199.7999999970198
DreDQE9V,NA,NA,DreDQE9V,2020-0188,2021-09-19,14:49:05,15:40:39,NA,incomplete,false,NA,true,7,2,NA,right,E31_Q6_ansL.png,E31_Q10_ansR.png,within,NA,NaN,NA,right,1051.7999999970198,1,1,979.4000000059605
DreDQE9V,NA,NA,DreDQE9V,2020-0188,2021-09-19,14:49:05,15:40:39,NA,incomplete,false,NA,true,7,3,NA,right,E18_Q9_ansR.png,E18_Q4_ansR.png,within,NA,NaN,NA,right,2552,1,1,1123.1000000089407
DreDQE9V,NA,NA,DreDQE9V,2020-0188,2021-09-19,14:49:05,15:40:39,NA,incomplete,false,NA,true,7,4,NA,left,E31_Q2_ansR.png,E31_Q8_ansR.png,within,NA,NaN,NA,left,1104.2999999970198,1,1,1028
DreDQE9V,NA,NA,DreDQE9V,2020-0188,2021-09-19,14:49:05,15:40:39,NA,incomplete,false,NA,true,7,5,NA,left,E18_Q8_ansL.png,E18_Q2_ansL.png,within,NA,NaN,NA,left,1085.0999999940395,1,1,1207.2999999970198
DreDQE9V,NA,NA,DreDQE9V,2020-0188,2021-09-19,14:49:05,15:40:39,NA,incomplete,false,NA,true,7,6,NA,left,E20_Q7_ansL.png,E20_Q6_ansR.png,within,NA,NaN,NA,left,1208.300000011921,1,1,1136.8999999910593
DreDQE9V,NA,NA,DreDQE9V,2020-0188,2021-09-19,14:49:05,15:40:39,NA,incomplete,false,NA,true,7,7,NA,right,E20_Q5_ansR.png,E31_Q4_ansL.png,between,NA,NaN,NA,right,2151.2999999970198,1,2,1052.1000000089407
DreDQE9V,NA,NA,DreDQE9V,2020-0188,2021-09-19,14:49:05,15:40:39,NA,incomplete,false,NA,true,7,8,NA,left,E31_Q8_ansR.png,E20_Q8_ansL.png,between,NA,NaN,NA,left,1601.2000000029802,1,2,921.9000000059605
DreDQE9V,NA,NA,DreDQE9V,2020-0188,2021-09-19,14:49:05,15:40:39,NA,incomplete,false,NA,true,7,9,NA,right,E20_Q2_ansL.png,E20_Q5_ansR.png,within,NA,NaN,NA,right,1691.0999999940395,1,1,1316.5
DreDQE9V,NA,NA,DreDQE9V,2020-0188,2021-09-19,14:49:05,15:40:39,NA,incomplete,false,NA,true,7,10,NA,right,E20_Q7_ansL.png,E20_Q8_ansL.png,within,NA,NaN,NA,right,893.1000000089407,1,1,1160.2999999970198
DreDQE9V,NA,NA,DreDQE9V,2020-0188,2021-09-19,14:49:05,15:40:39,NA,incomplete,false,NA,true,7,11,NA,right,E18_Q1_ansL.png,E18_Q2_ansL.png,within,NA,NaN,NA,right,972.4000000059605,1,1,1186.1000000089407
DreDQE9V,NA,NA,DreDQE9V,2020-0188,2021-09-19,14:49:05,15:40:39,NA,incomplete,false,NA,true,7,12,NA,left,E18_Q7_ansL.png,E18_Q10_ansL.png,within,NA,NaN,NA,left,1571.7000000029802,1,1,1095.5999999940395
DreDQE9V,NA,NA,DreDQE9V,2020-0188,2021-09-19,14:49:05,15:40:39,NA,incomplete,false,NA,true,7,13,NA,left,E20_Q10_ansL.png,E20_Q9_ansR.png,within,NA,NaN,NA,right,1242.9000000059605,0,1,1128
DreDQE9V,NA,NA,DreDQE9V,2020-0188,2021-09-19,14:49:05,15:40:39,NA,incomplete,false,NA,true,7,14,NA,left,E20_Q2_ansL.png,E20_Q4_ansR.png,within,NA,NaN,NA,left,1054.8999999910593,1,1,932.5999999940395
DreDQE9V,NA,NA,DreDQE9V,2020-0188,2021-09-19,14:49:05,15:40:39,NA,incomplete,false,NA,true,7,15,NA,left,E31_Q3_ansL.png,E31_Q1_ansR.png,within,NA,NaN,NA,left,1331.7999999970198,1,1,791.2000000029802
DreDQE9V,NA,NA,DreDQE9V,2020-0188,2021-09-19,14:49:05,15:40:39,NA,incomplete,false,NA,true,7,16,NA,left,E18_Q5_ansR.png,E18_Q7_ansL.png,within,NA,NaN,NA,left,1120.199999988079,1,1,1028.699999988079
DreDQE9V,NA,NA,DreDQE9V,2020-0188,2021-09-19,14:49:05,15:40:39,NA,incomplete,false,NA,true,7,17,NA,left,E18_Q3_ansR.png,E18_Q4_ansR.png,within,NA,NaN,NA,left,1061.2999999970198,1,1,930.8999999910593
DreDQE9V,NA,NA,DreDQE9V,2020-0188,2021-09-19,14:49:05,15:40:39,NA,incomplete,false,NA,true,7,18,NA,left,E20_Q4_ansR.png,E20_Q3_ansR.png,within,NA,NaN,NA,left,1692.5,1,1,2044.0999999940395
DreDQE9V,NA,NA,DreDQE9V,2020-0188,2021-09-19,14:49:05,15:40:39,NA,incomplete,false,NA,true,7,19,NA,left,E20_Q6_ansR.png,E18_Q6_ansR.png,between,NA,NaN,NA,left,1405.7999999970198,1,2,980
DreDQE9V,NA,NA,DreDQE9V,2020-0188,2021-09-19,14:49:05,15:40:39,NA,incomplete,false,NA,true,7,20,NA,right,E18_Q5_ansR.png,E20_Q3_ansR.png,between,NA,NaN,NA,left,734.2999999970198,0,1,1765.6000000089407
DreDQE9V,NA,NA,DreDQE9V,2020-0188,2021-09-19,14:49:05,15:40:39,NA,incomplete,false,NA,true,7,21,NA,right,E31_Q3_ansL.png,E31_Q9_ansL.png,within,NA,NaN,NA,right,833.0999999940395,1,1,1510.8999999910593
DreDQE9V,NA,NA,DreDQE9V,2020-0188,2021-09-19,14:49:05,15:40:39,NA,incomplete,false,NA,true,7,22,NA,left,E20_Q9_ansR.png,E18_Q3_ansR.png,between,NA,NaN,NA,left,1864.9000000059605,1,2,1094
DreDQE9V,NA,NA,DreDQE9V,2020-0188,2021-09-19,14:49:05,15:40:39,NA,incomplete,false,NA,true,7,23,NA,left,E18_Q6_ansR.png,E18_Q8_ansL.png,within,NA,NaN,NA,left,1021.3999999910593,1,1,931.2000000029802
DreDQE9V,NA,NA,DreDQE9V,2020-0188,2021-09-19,14:49:05,15:40:39,NA,incomplete,false,NA,true,7,24,NA,left,E31_Q5_ansL.png,E20_Q1_ansL.png,between,NA,NaN,NA,left,1120.7999999970198,1,2,1341.2999999970198
DreDQE9V,NA,NA,DreDQE9V,2020-0188,2021-09-19,14:49:05,15:40:39,NA,incomplete,false,NA,true,7,25,NA,left,E20_Q1_ansL.png,E20_Q10_ansL.png,within,NA,NaN,NA,right,2297.9000000059605,0,1,1356.7999999970198
DreDQE9V,NA,NA,DreDQE9V,2020-0188,2021-09-19,14:49:05,15:40:39,NA,incomplete,false,NA,true,7,26,NA,left,E31_Q7_ansR.png,E31_Q2_ansR.png,within,NA,NaN,NA,right,931.7999999970198,0,1,1070.8999999910593
DreDQE9V,NA,NA,DreDQE9V,2020-0188,2021-09-19,14:49:05,15:40:39,NA,incomplete,false,true,NA,8,0,E4_Q6_ansR.png,right,NA,NA,NA,right,1255.80000001192,true,NA,NA,NA,NA,NA
DreDQE9V,NA,NA,DreDQE9V,2020-0188,2021-09-19,14:49:05,15:40:39,NA,incomplete,false,true,NA,8,1,E4_Q1_ansL.png,left,NA,NA,NA,left,814,true,NA,NA,NA,NA,NA
DreDQE9V,NA,NA,DreDQE9V,2020-0188,2021-09-19,14:49:05,15:40:39,NA,incomplete,false,true,NA,8,2,E4_Q10_ansR.png,right,NA,NA,NA,right,899.90000000596,true,NA,NA,NA,NA,NA
DreDQE9V,NA,NA,DreDQE9V,2020-0188,2021-09-19,14:49:05,15:40:39,NA,incomplete,false,true,NA,8,3,E4_Q9_ansL.png,left,NA,NA,NA,left,913.40000000596,true,NA,NA,NA,NA,NA
DreDQE9V,NA,NA,DreDQE9V,2020-0188,2021-09-19,14:49:05,15:40:39,NA,incomplete,false,true,NA,8,4,E4_Q5_ansR.png,right,NA,NA,NA,left,1077.70000000298,false,NA,NA,NA,NA,NA
DreDQE9V,NA,NA,DreDQE9V,2020-0188,2021-09-19,14:49:05,15:40:39,NA,incomplete,false,true,NA,8,5,E4_Q4_ansL.png,left,NA,NA,NA,left,1282.5,true,NA,NA,NA,NA,NA
DreDQE9V,NA,NA,DreDQE9V,2020-0188,2021-09-19,14:49:05,15:40:39,NA,incomplete,false,true,NA,8,6,E4_Q8_ansR.png,right,NA,NA,NA,right,983.29999999702,true,NA,NA,NA,NA,NA
DreDQE9V,NA,NA,DreDQE9V,2020-0188,2021-09-19,14:49:05,15:40:39,NA,incomplete,false,true,NA,8,7,E4_Q7_ansR.png,right,NA,NA,NA,right,1012,true,NA,NA,NA,NA,NA
DreDQE9V,NA,NA,DreDQE9V,2020-0188,2021-09-19,14:49:05,15:40:39,NA,incomplete,false,true,NA,8,8,E4_Q2_ansL.png,left,NA,NA,NA,left,938.70000000298,true,NA,NA,NA,NA,NA
DreDQE9V,NA,NA,DreDQE9V,2020-0188,2021-09-19,14:49:05,15:40:39,NA,incomplete,false,true,NA,8,9,E4_Q3_ansL.png,left,NA,NA,NA,left,1100.89999999106,true,NA,NA,NA,NA,NA
DreDQE9V,NA,NA,DreDQE9V,2020-0188,2021-09-19,14:49:05,15:40:39,NA,incomplete,false,true,NA,8,10,E6_Q6_ansR.png,right,NA,NA,NA,right,1046.29999999702,true,NA,NA,NA,NA,NA
DreDQE9V,NA,NA,DreDQE9V,2020-0188,2021-09-19,14:49:05,15:40:39,NA,incomplete,false,true,NA,8,11,E6_Q1_ansL.png,left,NA,NA,NA,left,1112.40000000596,true,NA,NA,NA,NA,NA
DreDQE9V,NA,NA,DreDQE9V,2020-0188,2021-09-19,14:49:05,15:40:39,NA,incomplete,false,true,NA,8,12,E6_Q5_ansR.png,right,NA,NA,NA,right,954.20000000298,true,NA,NA,NA,NA,NA
DreDQE9V,NA,NA,DreDQE9V,2020-0188,2021-09-19,14:49:05,15:40:39,NA,incomplete,false,true,NA,8,13,E6_Q3_ansR.png,right,NA,NA,NA,right,894,true,NA,NA,NA,NA,NA
DreDQE9V,NA,NA,DreDQE9V,2020-0188,2021-09-19,14:49:05,15:40:39,NA,incomplete,false,true,NA,8,14,E6_Q8_ansL.png,left,NA,NA,NA,left,996.29999999702,true,NA,NA,NA,NA,NA
DreDQE9V,NA,NA,DreDQE9V,2020-0188,2021-09-19,14:49:05,15:40:39,NA,incomplete,false,true,NA,8,15,E6_Q10_ansL.png,left,NA,NA,NA,left,1042.59999999404,true,NA,NA,NA,NA,NA
DreDQE9V,NA,NA,DreDQE9V,2020-0188,2021-09-19,14:49:05,15:40:39,NA,incomplete,false,true,NA,8,16,E6_Q2_ansL.png,left,NA,NA,NA,left,881,true,NA,NA,NA,NA,NA
DreDQE9V,NA,NA,DreDQE9V,2020-0188,2021-09-19,14:49:05,15:40:39,NA,incomplete,false,true,NA,8,17,E6_Q7_ansL.png,left,NA,NA,NA,left,1156.79999999702,true,NA,NA,NA,NA,NA
DreDQE9V,NA,NA,DreDQE9V,2020-0188,2021-09-19,14:49:05,15:40:39,NA,incomplete,false,true,NA,8,18,E6_Q4_ansR.png,right,NA,NA,NA,right,916,true,NA,NA,NA,NA,NA
DreDQE9V,NA,NA,DreDQE9V,2020-0188,2021-09-19,14:49:05,15:40:39,NA,incomplete,false,true,NA,8,19,E6_Q9_ansL.png,left,NA,NA,NA,left,1421.70000000298,true,NA,NA,NA,NA,NA
DreDQE9V,NA,NA,DreDQE9V,2020-0188,2021-09-19,14:49:05,15:40:39,NA,incomplete,false,true,NA,8,20,E26_Q10_ansL.png,left,NA,NA,NA,left,1322.20000000298,true,NA,NA,NA,NA,NA
DreDQE9V,NA,NA,DreDQE9V,2020-0188,2021-09-19,14:49:05,15:40:39,NA,incomplete,false,true,NA,8,21,E26_Q8_ansL.png,left,NA,NA,NA,left,1454.29999999702,true,NA,NA,NA,NA,NA
DreDQE9V,NA,NA,DreDQE9V,2020-0188,2021-09-19,14:49:05,15:40:39,NA,incomplete,false,true,NA,8,22,E26_Q6_ansR.png,right,NA,NA,NA,right,1216.79999999702,true,NA,NA,NA,NA,NA
DreDQE9V,NA,NA,DreDQE9V,2020-0188,2021-09-19,14:49:05,15:40:39,NA,incomplete,false,true,NA,8,23,E26_Q5_ansR.png,right,NA,NA,NA,right,952.40000000596,true,NA,NA,NA,NA,NA
DreDQE9V,NA,NA,DreDQE9V,2020-0188,2021-09-19,14:49:05,15:40:39,NA,incomplete,false,true,NA,8,24,E26_Q1_ansL.png,left,NA,NA,NA,left,808.399999991059,true,NA,NA,NA,NA,NA
DreDQE9V,NA,NA,DreDQE9V,2020-0188,2021-09-19,14:49:05,15:40:39,NA,incomplete,false,true,NA,8,25,E26_Q2_ansL.png,left,NA,NA,NA,left,988.09999999404,true,NA,NA,NA,NA,NA
DreDQE9V,NA,NA,DreDQE9V,2020-0188,2021-09-19,14:49:05,15:40:39,NA,incomplete,false,true,NA,8,26,E26_Q3_ansR.png,right,NA,NA,NA,right,939.899999991059,true,NA,NA,NA,NA,NA
DreDQE9V,NA,NA,DreDQE9V,2020-0188,2021-09-19,14:49:05,15:40:39,NA,incomplete,false,true,NA,8,27,E26_Q9_ansR.png,right,NA,NA,NA,right,930.5,true,NA,NA,NA,NA,NA
DreDQE9V,NA,NA,DreDQE9V,2020-0188,2021-09-19,14:49:05,15:40:39,NA,incomplete,false,true,NA,8,28,E26_Q7_ansL.png,left,NA,NA,NA,left,1544.29999999702,true,NA,NA,NA,NA,NA
DreDQE9V,NA,NA,DreDQE9V,2020-0188,2021-09-19,14:49:05,15:40:39,NA,incomplete,false,true,NA,8,29,E26_Q4_ansR.png,right,NA,NA,NA,right,913.40000000596,true,NA,NA,NA,NA,NA
DreDQE9V,NA,NA,DreDQE9V,2020-0188,2021-09-19,14:49:05,15:40:39,NA,incomplete,false,NA,true,8,0,NA,right,E26_Q2_ansL.png,E26_Q6_ansR.png,within,NA,NaN,NA,right,1411.5999999940395,1,1,913.0999999940395
DreDQE9V,NA,NA,DreDQE9V,2020-0188,2021-09-19,14:49:05,15:40:39,NA,incomplete,false,NA,true,8,1,NA,left,E4_Q1_ansL.png,E4_Q5_ansR.png,within,NA,NaN,NA,left,1133.4000000059605,1,1,1272.2999999970198
DreDQE9V,NA,NA,DreDQE9V,2020-0188,2021-09-19,14:49:05,15:40:39,NA,incomplete,false,NA,true,8,2,NA,right,E4_Q7_ansR.png,E4_Q5_ansR.png,within,NA,NaN,NA,right,1747.3999999910593,1,1,988.2999999970198
DreDQE9V,NA,NA,DreDQE9V,2020-0188,2021-09-19,14:49:05,15:40:39,NA,incomplete,false,NA,true,8,3,NA,right,E4_Q2_ansL.png,E4_Q4_ansL.png,within,NA,NaN,NA,left,1240.7999999970198,0,1,1829.4000000059605
DreDQE9V,NA,NA,DreDQE9V,2020-0188,2021-09-19,14:49:05,15:40:39,NA,incomplete,false,NA,true,8,4,NA,left,E26_Q3_ansR.png,E26_Q4_ansR.png,within,NA,NaN,NA,left,1259.2000000029802,1,1,1373.2000000029802
DreDQE9V,NA,NA,DreDQE9V,2020-0188,2021-09-19,14:49:05,15:40:39,NA,incomplete,false,NA,true,8,5,NA,right,E6_Q3_ansR.png,E6_Q6_ansR.png,within,NA,NaN,NA,right,972.9000000059605,1,1,881.7000000029802
DreDQE9V,NA,NA,DreDQE9V,2020-0188,2021-09-19,14:49:05,15:40:39,NA,incomplete,false,NA,true,8,6,NA,left,E6_Q10_ansL.png,E6_Q4_ansR.png,within,NA,NaN,NA,left,1055.7999999970198,1,1,963.9000000059605
DreDQE9V,NA,NA,DreDQE9V,2020-0188,2021-09-19,14:49:05,15:40:39,NA,incomplete,false,NA,true,8,7,NA,right,E26_Q10_ansL.png,E6_Q7_ansL.png,between,NA,NaN,NA,left,882.5,0,1,2275.5
DreDQE9V,NA,NA,DreDQE9V,2020-0188,2021-09-19,14:49:05,15:40:39,NA,incomplete,false,NA,true,8,8,NA,left,E6_Q8_ansL.png,E6_Q7_ansL.png,within,NA,NaN,NA,left,2618.2999999970198,1,1,980.7999999970198
DreDQE9V,NA,NA,DreDQE9V,2020-0188,2021-09-19,14:49:05,15:40:39,NA,incomplete,false,NA,true,8,9,NA,right,E6_Q5_ansR.png,E4_Q3_ansL.png,between,NA,NaN,NA,right,979.1000000089407,1,1,980.4000000059605
DreDQE9V,NA,NA,DreDQE9V,2020-0188,2021-09-19,14:49:05,15:40:39,NA,incomplete,false,NA,true,8,10,NA,left,E6_Q9_ansL.png,E26_Q6_ansR.png,between,NA,NaN,NA,left,2331.7000000029802,1,2,1046.5999999940395
DreDQE9V,NA,NA,DreDQE9V,2020-0188,2021-09-19,14:49:05,15:40:39,NA,incomplete,false,NA,true,8,11,NA,left,E4_Q8_ansR.png,E4_Q3_ansL.png,within,NA,NaN,NA,left,9494.20000000298,1,1,1060.6000000089407
DreDQE9V,NA,NA,DreDQE9V,2020-0188,2021-09-19,14:49:05,15:40:39,NA,incomplete,false,NA,true,8,12,NA,left,E4_Q9_ansL.png,E4_Q8_ansR.png,within,NA,NaN,NA,right,1865.5999999940395,0,1,1282.5
DreDQE9V,NA,NA,DreDQE9V,2020-0188,2021-09-19,14:49:05,15:40:39,NA,incomplete,false,NA,true,8,13,NA,right,E26_Q8_ansL.png,E6_Q4_ansR.png,between,NA,NaN,NA,right,4279.5,1,2,1055.7000000029802
DreDQE9V,NA,NA,DreDQE9V,2020-0188,2021-09-19,14:49:05,15:40:39,NA,incomplete,false,NA,true,8,14,NA,left,E6_Q2_ansL.png,E6_Q9_ansL.png,within,NA,NaN,NA,left,1250.2999999970198,1,1,1257.3999999910593
DreDQE9V,NA,NA,DreDQE9V,2020-0188,2021-09-19,14:49:05,15:40:39,NA,incomplete,false,NA,true,8,15,NA,right,E26_Q3_ansR.png,E26_Q5_ansR.png,within,NA,NaN,NA,right,996.9000000059605,1,1,849.5
DreDQE9V,NA,NA,DreDQE9V,2020-0188,2021-09-19,14:49:05,15:40:39,NA,incomplete,false,NA,true,8,16,NA,left,E6_Q1_ansL.png,E6_Q8_ansL.png,within,NA,NaN,NA,right,1373.9000000059605,0,1,1110.9000000059605
DreDQE9V,NA,NA,DreDQE9V,2020-0188,2021-09-19,14:49:05,15:40:39,NA,incomplete,false,NA,true,8,17,NA,left,E6_Q3_ansR.png,E6_Q2_ansL.png,within,NA,NaN,NA,left,1169.0999999940395,1,1,1382.2000000029802
DreDQE9V,NA,NA,DreDQE9V,2020-0188,2021-09-19,14:49:05,15:40:39,NA,incomplete,false,NA,true,8,18,NA,right,E26_Q1_ansL.png,E26_Q8_ansL.png,within,NA,NaN,NA,left,1030.5,0,1,1160.1000000089407
DreDQE9V,NA,NA,DreDQE9V,2020-0188,2021-09-19,14:49:05,15:40:39,NA,incomplete,false,NA,true,8,19,NA,left,E6_Q5_ansR.png,E6_Q10_ansL.png,within,NA,NaN,NA,left,1194.0999999940395,1,1,1046.2000000029802
DreDQE9V,NA,NA,DreDQE9V,2020-0188,2021-09-19,14:49:05,15:40:39,NA,incomplete,false,NA,true,8,20,NA,left,E26_Q10_ansL.png,E26_Q5_ansR.png,within,NA,NaN,NA,left,1103.8999999910593,1,1,939.5
DreDQE9V,NA,NA,DreDQE9V,2020-0188,2021-09-19,14:49:05,15:40:39,NA,incomplete,false,NA,true,8,21,NA,right,E26_Q9_ansR.png,E26_Q1_ansL.png,within,NA,NaN,NA,left,2021,0,1,955.5999999940395
DreDQE9V,NA,NA,DreDQE9V,2020-0188,2021-09-19,14:49:05,15:40:39,NA,incomplete,false,NA,true,8,22,NA,right,E26_Q7_ansL.png,E26_Q2_ansL.png,within,NA,NaN,NA,right,1642.1000000089407,1,1,2191.5999999940395
DreDQE9V,NA,NA,DreDQE9V,2020-0188,2021-09-19,14:49:05,15:40:39,NA,incomplete,false,NA,true,8,23,NA,left,E4_Q10_ansR.png,E4_Q4_ansL.png,within,NA,NaN,NA,left,1087.2000000029802,1,1,800
DreDQE9V,NA,NA,DreDQE9V,2020-0188,2021-09-19,14:49:05,15:40:39,NA,incomplete,false,NA,true,8,24,NA,left,E4_Q6_ansR.png,E4_Q9_ansL.png,within,NA,NaN,NA,left,1114,1,1,948
DreDQE9V,NA,NA,DreDQE9V,2020-0188,2021-09-19,14:49:05,15:40:39,NA,incomplete,false,NA,true,8,25,NA,left,E4_Q2_ansL.png,E6_Q1_ansL.png,between,NA,NaN,NA,left,2135.0999999940395,1,2,914.4000000059605
DreDQE9V,NA,NA,DreDQE9V,2020-0188,2021-09-19,14:49:05,15:40:39,NA,incomplete,false,NA,true,8,26,NA,left,E4_Q7_ansR.png,E6_Q6_ansR.png,between,NA,NaN,NA,left,1873.2999999970198,1,1,1396.8999999910593
DreDQE9V,NA,NA,DreDQE9V,2020-0188,2021-09-19,14:49:05,15:40:39,NA,incomplete,false,true,NA,9,0,E2_Q1_ansL.png,left,NA,NA,NA,left,1089,true,NA,NA,NA,NA,NA
DreDQE9V,NA,NA,DreDQE9V,2020-0188,2021-09-19,14:49:05,15:40:39,NA,incomplete,false,true,NA,9,1,E2_Q4_ansL.png,left,NA,NA,NA,left,1016.20000000298,true,NA,NA,NA,NA,NA
DreDQE9V,NA,NA,DreDQE9V,2020-0188,2021-09-19,14:49:05,15:40:39,NA,incomplete,false,true,NA,9,2,E2_Q8_ansR.png,right,NA,NA,NA,right,980.100000008941,true,NA,NA,NA,NA,NA
DreDQE9V,NA,NA,DreDQE9V,2020-0188,2021-09-19,14:49:05,15:40:39,NA,incomplete,false,true,NA,9,3,E2_Q9_ansL.png,left,NA,NA,NA,left,794.29999999702,true,NA,NA,NA,NA,NA
DreDQE9V,NA,NA,DreDQE9V,2020-0188,2021-09-19,14:49:05,15:40:39,NA,incomplete,false,true,NA,9,4,E2_Q3_ansR.png,right,NA,NA,NA,right,1234.70000000298,true,NA,NA,NA,NA,NA
DreDQE9V,NA,NA,DreDQE9V,2020-0188,2021-09-19,14:49:05,15:40:39,NA,incomplete,false,true,NA,9,5,E2_Q5_ansL.png,left,NA,NA,NA,left,948.5,true,NA,NA,NA,NA,NA
DreDQE9V,NA,NA,DreDQE9V,2020-0188,2021-09-19,14:49:05,15:40:39,NA,incomplete,false,true,NA,9,6,E2_Q7_ansR.png,right,NA,NA,NA,right,1047,true,NA,NA,NA,NA,NA
DreDQE9V,NA,NA,DreDQE9V,2020-0188,2021-09-19,14:49:05,15:40:39,NA,incomplete,false,true,NA,9,7,E2_Q10_ansL.png,left,NA,NA,NA,right,985.5,false,NA,NA,NA,NA,NA
DreDQE9V,NA,NA,DreDQE9V,2020-0188,2021-09-19,14:49:05,15:40:39,NA,incomplete,false,true,NA,9,8,E2_Q2_ansR.png,right,NA,NA,NA,right,1301.90000000596,true,NA,NA,NA,NA,NA
DreDQE9V,NA,NA,DreDQE9V,2020-0188,2021-09-19,14:49:05,15:40:39,NA,incomplete,false,true,NA,9,9,E2_Q6_ansL.png,left,NA,NA,NA,left,1084.69999998808,true,NA,NA,NA,NA,NA
DreDQE9V,NA,NA,DreDQE9V,2020-0188,2021-09-19,14:49:05,15:40:39,NA,incomplete,false,true,NA,9,10,E23_Q5_ansR.png,right,NA,NA,NA,right,1138.10000000894,true,NA,NA,NA,NA,NA
DreDQE9V,NA,NA,DreDQE9V,2020-0188,2021-09-19,14:49:05,15:40:39,NA,incomplete,false,true,NA,9,11,E23_Q6_ansR.png,right,NA,NA,NA,right,1151,true,NA,NA,NA,NA,NA
DreDQE9V,NA,NA,DreDQE9V,2020-0188,2021-09-19,14:49:05,15:40:39,NA,incomplete,false,true,NA,9,12,E23_Q8_ansL.png,left,NA,NA,NA,left,1462.59999999404,true,NA,NA,NA,NA,NA
DreDQE9V,NA,NA,DreDQE9V,2020-0188,2021-09-19,14:49:05,15:40:39,NA,incomplete,false,true,NA,9,13,E23_Q1_ansL.png,left,NA,NA,NA,left,1024.20000000298,true,NA,NA,NA,NA,NA
DreDQE9V,NA,NA,DreDQE9V,2020-0188,2021-09-19,14:49:05,15:40:39,NA,incomplete,false,true,NA,9,14,E23_Q4_ansR.png,right,NA,NA,NA,right,2056.40000000596,true,NA,NA,NA,NA,NA
DreDQE9V,NA,NA,DreDQE9V,2020-0188,2021-09-19,14:49:05,15:40:39,NA,incomplete,false,true,NA,9,15,E23_Q10_ansL.png,left,NA,NA,NA,left,892.70000000298,true,NA,NA,NA,NA,NA
DreDQE9V,NA,NA,DreDQE9V,2020-0188,2021-09-19,14:49:05,15:40:39,NA,incomplete,false,true,NA,9,16,E23_Q3_ansR.png,right,NA,NA,NA,right,950,true,NA,NA,NA,NA,NA
DreDQE9V,NA,NA,DreDQE9V,2020-0188,2021-09-19,14:49:05,15:40:39,NA,incomplete,false,true,NA,9,17,E23_Q2_ansL.png,left,NA,NA,NA,left,812,true,NA,NA,NA,NA,NA
DreDQE9V,NA,NA,DreDQE9V,2020-0188,2021-09-19,14:49:05,15:40:39,NA,incomplete,false,true,NA,9,18,E23_Q7_ansL.png,left,NA,NA,NA,left,1162.70000000298,true,NA,NA,NA,NA,NA
DreDQE9V,NA,NA,DreDQE9V,2020-0188,2021-09-19,14:49:05,15:40:39,NA,incomplete,false,true,NA,9,19,E23_Q9_ansR.png,right,NA,NA,NA,right,967.29999999702,true,NA,NA,NA,NA,NA
DreDQE9V,NA,NA,DreDQE9V,2020-0188,2021-09-19,14:49:05,15:40:39,NA,incomplete,false,true,NA,9,20,E9_Q5_ansL.png,left,NA,NA,NA,left,1395.10000000894,true,NA,NA,NA,NA,NA
DreDQE9V,NA,NA,DreDQE9V,2020-0188,2021-09-19,14:49:05,15:40:39,NA,incomplete,false,true,NA,9,21,E9_Q7_ansR.png,right,NA,NA,NA,left,642.90000000596,false,NA,NA,NA,NA,NA
DreDQE9V,NA,NA,DreDQE9V,2020-0188,2021-09-19,14:49:05,15:40:39,NA,incomplete,false,true,NA,9,22,E9_Q8_ansR.png,right,NA,NA,NA,right,980.79999999702,true,NA,NA,NA,NA,NA
DreDQE9V,NA,NA,DreDQE9V,2020-0188,2021-09-19,14:49:05,15:40:39,NA,incomplete,false,true,NA,9,23,E9_Q3_ansL.png,left,NA,NA,NA,left,957,true,NA,NA,NA,NA,NA
DreDQE9V,NA,NA,DreDQE9V,2020-0188,2021-09-19,14:49:05,15:40:39,NA,incomplete,false,true,NA,9,24,E9_Q2_ansR.png,right,NA,NA,NA,right,1038,true,NA,NA,NA,NA,NA
DreDQE9V,NA,NA,DreDQE9V,2020-0188,2021-09-19,14:49:05,15:40:39,NA,incomplete,false,true,NA,9,25,E9_Q4_ansL.png,left,NA,NA,NA,left,1288.20000000298,true,NA,NA,NA,NA,NA
DreDQE9V,NA,NA,DreDQE9V,2020-0188,2021-09-19,14:49:05,15:40:39,NA,incomplete,false,true,NA,9,26,E9_Q6_ansL.png,left,NA,NA,NA,left,1345,true,NA,NA,NA,NA,NA
DreDQE9V,NA,NA,DreDQE9V,2020-0188,2021-09-19,14:49:05,15:40:39,NA,incomplete,false,true,NA,9,27,E9_Q10_ansR.png,right,NA,NA,NA,right,1060.79999999702,true,NA,NA,NA,NA,NA
DreDQE9V,NA,NA,DreDQE9V,2020-0188,2021-09-19,14:49:05,15:40:39,NA,incomplete,false,true,NA,9,28,E9_Q9_ansL.png,left,NA,NA,NA,left,891.90000000596,true,NA,NA,NA,NA,NA
DreDQE9V,NA,NA,DreDQE9V,2020-0188,2021-09-19,14:49:05,15:40:39,NA,incomplete,false,true,NA,9,29,E9_Q1_ansR.png,right,NA,NA,NA,right,1086.79999999702,true,NA,NA,NA,NA,NA
DreDQE9V,NA,NA,DreDQE9V,2020-0188,2021-09-19,14:49:05,15:40:39,NA,incomplete,false,NA,true,9,0,NA,left,E9_Q7_ansR.png,E9_Q2_ansR.png,within,NA,NaN,NA,left,990.7999999970198,1,1,892.9000000059605
DreDQE9V,NA,NA,DreDQE9V,2020-0188,2021-09-19,14:49:05,15:40:39,NA,incomplete,false,NA,true,9,1,NA,left,E2_Q6_ansL.png,E23_Q8_ansL.png,between,NA,NaN,NA,left,1316,1,2,892.2999999970198
DreDQE9V,NA,NA,DreDQE9V,2020-0188,2021-09-19,14:49:05,15:40:39,NA,incomplete,false,NA,true,9,2,NA,right,E2_Q3_ansR.png,E2_Q4_ansL.png,within,NA,NaN,NA,right,1160,1,1,921.7999999970198
DreDQE9V,NA,NA,DreDQE9V,2020-0188,2021-09-19,14:49:05,15:40:39,NA,incomplete,false,NA,true,9,3,NA,right,E2_Q10_ansL.png,E2_Q3_ansR.png,within,NA,NaN,NA,right,1684.300000011921,1,1,823
DreDQE9V,NA,NA,DreDQE9V,2020-0188,2021-09-19,14:49:05,15:40:39,NA,incomplete,false,NA,true,9,4,NA,left,E23_Q4_ansR.png,E23_Q2_ansL.png,within,NA,NaN,NA,left,1258.6000000089407,1,1,1764.4000000059605
DreDQE9V,NA,NA,DreDQE9V,2020-0188,2021-09-19,14:49:05,15:40:39,NA,incomplete,false,NA,true,9,5,NA,right,E2_Q5_ansL.png,E2_Q8_ansR.png,within,NA,NaN,NA,right,1757.3999999910593,1,1,1404.6000000089407
DreDQE9V,NA,NA,DreDQE9V,2020-0188,2021-09-19,14:49:05,15:40:39,NA,incomplete,false,NA,true,9,6,NA,right,E9_Q8_ansR.png,E23_Q9_ansR.png,between,NA,NaN,NA,right,3001.4000000059605,1,2,799.0999999940395
DreDQE9V,NA,NA,DreDQE9V,2020-0188,2021-09-19,14:49:05,15:40:39,NA,incomplete,false,NA,true,9,7,NA,right,E23_Q5_ansR.png,E2_Q10_ansL.png,between,NA,NaN,NA,right,2256.7000000029802,1,2,782.2000000029802
DreDQE9V,NA,NA,DreDQE9V,2020-0188,2021-09-19,14:49:05,15:40:39,NA,incomplete,false,NA,true,9,8,NA,right,E9_Q3_ansL.png,E9_Q5_ansL.png,within,NA,NaN,NA,right,1732.9000000059605,1,1,1093.9000000059605
DreDQE9V,NA,NA,DreDQE9V,2020-0188,2021-09-19,14:49:05,15:40:39,NA,incomplete,false,NA,true,9,9,NA,right,E23_Q3_ansR.png,E23_Q1_ansL.png,within,NA,NaN,NA,left,1364.2000000029802,0,1,1022.0999999940395
DreDQE9V,NA,NA,DreDQE9V,2020-0188,2021-09-19,14:49:05,15:40:39,NA,incomplete,false,NA,true,9,10,NA,right,E23_Q4_ansR.png,E23_Q6_ansR.png,within,NA,NaN,NA,right,1095.2000000029802,1,1,1005.2999999970198
DreDQE9V,NA,NA,DreDQE9V,2020-0188,2021-09-19,14:49:05,15:40:39,NA,incomplete,false,NA,true,9,11,NA,left,E9_Q3_ansL.png,E9_Q6_ansL.png,within,NA,NaN,NA,left,1611.2999999970198,1,1,881.5
DreDQE9V,NA,NA,DreDQE9V,2020-0188,2021-09-19,14:49:05,15:40:39,NA,incomplete,false,NA,true,9,12,NA,right,E23_Q9_ansR.png,E23_Q3_ansR.png,within,NA,NaN,NA,right,1218.5999999940395,1,1,872.5999999940395
