workerId,hitId,assignmentId,subject,studyid,exp_date,exp_start,exp_end,time_start,time_end,practice,encoding,memory,block,trial,stim,answer,left_image,right_image,condition,response,response_time,response_acc,order_response,order_response_time,order_acc,distance_response,distance_response_time
dZNSKsp9,NA,NA,dZNSKsp9,2020-0188,2021-09-22,01:59:29,03:16:57,NA,incomplete,true,true,NA,0,0,E9_Q1_ansR.png,right,NA,NA,NA,right,3311.00000000006,true,NA,NA,NA,NA,NA
dZNSKsp9,NA,NA,dZNSKsp9,2020-0188,2021-09-22,01:59:29,03:16:57,NA,incomplete,true,true,NA,0,1,E9_Q6_ansL.png,left,NA,NA,NA,none,0,false,NA,NA,NA,NA,NA
dZNSKsp9,NA,NA,dZNSKsp9,2020-0188,2021-09-22,01:59:29,03:16:57,NA,incomplete,true,true,NA,0,2,E9_Q5_ansL.png,left,NA,NA,NA,left,1697,true,NA,NA,NA,NA,NA
dZNSKsp9,NA,NA,dZNSKsp9,2020-0188,2021-09-22,01:59:29,03:16:57,NA,incomplete,true,true,NA,0,3,E9_Q10_ansR.png,right,NA,NA,NA,right,2039.00000000006,true,NA,NA,NA,NA,NA
dZNSKsp9,NA,NA,dZNSKsp9,2020-0188,2021-09-22,01:59:29,03:16:57,NA,incomplete,true,true,NA,0,4,E9_Q7_ansR.png,right,NA,NA,NA,right,1523,true,NA,NA,NA,NA,NA
dZNSKsp9,NA,NA,dZNSKsp9,2020-0188,2021-09-22,01:59:29,03:16:57,NA,incomplete,true,true,NA,0,5,E9_Q3_ansL.png,left,NA,NA,NA,left,1474.00000000006,true,NA,NA,NA,NA,NA
dZNSKsp9,NA,NA,dZNSKsp9,2020-0188,2021-09-22,01:59:29,03:16:57,NA,incomplete,true,true,NA,0,6,E9_Q8_ansR.png,right,NA,NA,NA,right,1685,true,NA,NA,NA,NA,NA
dZNSKsp9,NA,NA,dZNSKsp9,2020-0188,2021-09-22,01:59:29,03:16:57,NA,incomplete,true,true,NA,0,7,E9_Q9_ansL.png,left,NA,NA,NA,left,1229,true,NA,NA,NA,NA,NA
dZNSKsp9,NA,NA,dZNSKsp9,2020-0188,2021-09-22,01:59:29,03:16:57,NA,incomplete,true,true,NA,0,8,E9_Q2_ansR.png,right,NA,NA,NA,right,1772,true,NA,NA,NA,NA,NA
dZNSKsp9,NA,NA,dZNSKsp9,2020-0188,2021-09-22,01:59:29,03:16:57,NA,incomplete,true,true,NA,0,9,E9_Q4_ansL.png,left,NA,NA,NA,left,1981.00000000006,true,NA,NA,NA,NA,NA
dZNSKsp9,NA,NA,dZNSKsp9,2020-0188,2021-09-22,01:59:29,03:16:57,NA,incomplete,true,true,NA,0,10,E26_Q7_ansL.png,left,NA,NA,NA,left,2301,true,NA,NA,NA,NA,NA
dZNSKsp9,NA,NA,dZNSKsp9,2020-0188,2021-09-22,01:59:29,03:16:57,NA,incomplete,true,true,NA,0,11,E26_Q5_ansR.png,right,NA,NA,NA,right,1460,true,NA,NA,NA,NA,NA
dZNSKsp9,NA,NA,dZNSKsp9,2020-0188,2021-09-22,01:59:29,03:16:57,NA,incomplete,true,true,NA,0,12,E26_Q4_ansR.png,right,NA,NA,NA,right,1288,true,NA,NA,NA,NA,NA
dZNSKsp9,NA,NA,dZNSKsp9,2020-0188,2021-09-22,01:59:29,03:16:57,NA,incomplete,true,true,NA,0,13,E26_Q3_ansR.png,right,NA,NA,NA,right,1985.00000000006,true,NA,NA,NA,NA,NA
dZNSKsp9,NA,NA,dZNSKsp9,2020-0188,2021-09-22,01:59:29,03:16:57,NA,incomplete,true,true,NA,0,14,E26_Q1_ansL.png,left,NA,NA,NA,left,1270,true,NA,NA,NA,NA,NA
dZNSKsp9,NA,NA,dZNSKsp9,2020-0188,2021-09-22,01:59:29,03:16:57,NA,incomplete,true,true,NA,0,15,E26_Q9_ansR.png,right,NA,NA,NA,right,1832.99999999994,true,NA,NA,NA,NA,NA
dZNSKsp9,NA,NA,dZNSKsp9,2020-0188,2021-09-22,01:59:29,03:16:57,NA,incomplete,true,true,NA,0,16,E26_Q2_ansL.png,left,NA,NA,NA,left,1089,true,NA,NA,NA,NA,NA
dZNSKsp9,NA,NA,dZNSKsp9,2020-0188,2021-09-22,01:59:29,03:16:57,NA,incomplete,true,true,NA,0,17,E26_Q8_ansL.png,left,NA,NA,NA,left,1825,true,NA,NA,NA,NA,NA
dZNSKsp9,NA,NA,dZNSKsp9,2020-0188,2021-09-22,01:59:29,03:16:57,NA,incomplete,true,true,NA,0,18,E26_Q10_ansL.png,left,NA,NA,NA,left,1108,true,NA,NA,NA,NA,NA
dZNSKsp9,NA,NA,dZNSKsp9,2020-0188,2021-09-22,01:59:29,03:16:57,NA,incomplete,true,true,NA,0,19,E26_Q6_ansR.png,right,NA,NA,NA,right,1463,true,NA,NA,NA,NA,NA
dZNSKsp9,NA,NA,dZNSKsp9,2020-0188,2021-09-22,01:59:29,03:16:57,NA,incomplete,true,true,NA,0,20,E14_Q5_ansR.png,right,NA,NA,NA,left,2157.99999999994,false,NA,NA,NA,NA,NA
dZNSKsp9,NA,NA,dZNSKsp9,2020-0188,2021-09-22,01:59:29,03:16:57,NA,incomplete,true,true,NA,0,21,E14_Q3_ansR.png,right,NA,NA,NA,right,1506,true,NA,NA,NA,NA,NA
dZNSKsp9,NA,NA,dZNSKsp9,2020-0188,2021-09-22,01:59:29,03:16:57,NA,incomplete,true,true,NA,0,22,E14_Q2_ansL.png,left,NA,NA,NA,left,1184.00000000006,true,NA,NA,NA,NA,NA
dZNSKsp9,NA,NA,dZNSKsp9,2020-0188,2021-09-22,01:59:29,03:16:57,NA,incomplete,true,true,NA,0,23,E14_Q6_ansR.png,right,NA,NA,NA,right,2476,true,NA,NA,NA,NA,NA
dZNSKsp9,NA,NA,dZNSKsp9,2020-0188,2021-09-22,01:59:29,03:16:57,NA,incomplete,true,true,NA,0,24,E14_Q1_ansL.png,left,NA,NA,NA,left,982.000000000058,true,NA,NA,NA,NA,NA
dZNSKsp9,NA,NA,dZNSKsp9,2020-0188,2021-09-22,01:59:29,03:16:57,NA,incomplete,true,true,NA,0,25,E14_Q10_ansL.png,left,NA,NA,NA,left,1436,true,NA,NA,NA,NA,NA
dZNSKsp9,NA,NA,dZNSKsp9,2020-0188,2021-09-22,01:59:29,03:16:57,NA,incomplete,true,true,NA,0,26,E14_Q7_ansL.png,left,NA,NA,NA,left,1595,true,NA,NA,NA,NA,NA
dZNSKsp9,NA,NA,dZNSKsp9,2020-0188,2021-09-22,01:59:29,03:16:57,NA,incomplete,true,true,NA,0,27,E14_Q8_ansL.png,left,NA,NA,NA,left,1233.00000000006,true,NA,NA,NA,NA,NA
dZNSKsp9,NA,NA,dZNSKsp9,2020-0188,2021-09-22,01:59:29,03:16:57,NA,incomplete,true,true,NA,0,28,E14_Q9_ansR.png,right,NA,NA,NA,right,1158.99999999994,true,NA,NA,NA,NA,NA
dZNSKsp9,NA,NA,dZNSKsp9,2020-0188,2021-09-22,01:59:29,03:16:57,NA,incomplete,true,true,NA,0,29,E14_Q4_ansR.png,right,NA,NA,NA,right,1286.00000000006,true,NA,NA,NA,NA,NA
dZNSKsp9,NA,NA,dZNSKsp9,2020-0188,2021-09-22,01:59:29,03:16:57,NA,incomplete,true,NA,true,0,0,NA,left,E14_Q2_ansL.png,E14_Q10_ansL.png,within,NA,NaN,NA,left,3858,1,1,5262
dZNSKsp9,NA,NA,dZNSKsp9,2020-0188,2021-09-22,01:59:29,03:16:57,NA,incomplete,true,NA,true,0,1,NA,right,E26_Q1_ansL.png,E26_Q5_ansR.png,within,NA,NaN,NA,left,3974,0,2,6082
dZNSKsp9,NA,NA,dZNSKsp9,2020-0188,2021-09-22,01:59:29,03:16:57,NA,incomplete,true,NA,true,0,2,NA,left,E9_Q10_ansR.png,E9_Q8_ansR.png,within,NA,NaN,NA,left,4899,1,1,2215.999999999942
dZNSKsp9,NA,NA,dZNSKsp9,2020-0188,2021-09-22,01:59:29,03:16:57,NA,incomplete,true,NA,true,0,3,NA,right,E26_Q7_ansL.png,E9_Q9_ansL.png,between,NA,NaN,NA,right,5006,1,3,2486.999999999942
dZNSKsp9,NA,NA,dZNSKsp9,2020-0188,2021-09-22,01:59:29,03:16:57,NA,incomplete,true,NA,true,0,4,NA,right,E14_Q1_ansL.png,E14_Q3_ansR.png,within,NA,NaN,NA,right,2661.9999999998836,1,1,4597
dZNSKsp9,NA,NA,dZNSKsp9,2020-0188,2021-09-22,01:59:29,03:16:57,NA,incomplete,true,NA,true,0,5,NA,right,E14_Q4_ansR.png,E14_Q7_ansL.png,within,NA,NaN,NA,right,3166,1,0,3124
dZNSKsp9,NA,NA,dZNSKsp9,2020-0188,2021-09-22,01:59:29,03:16:57,NA,incomplete,true,NA,true,0,6,NA,right,E26_Q3_ansR.png,E26_Q7_ansL.png,within,NA,NaN,NA,left,3389,0,0,3589
dZNSKsp9,NA,NA,dZNSKsp9,2020-0188,2021-09-22,01:59:29,03:16:57,NA,incomplete,true,NA,true,0,7,NA,right,E26_Q9_ansR.png,E26_Q4_ansR.png,within,NA,NaN,NA,right,1886,1,2,1620
dZNSKsp9,NA,NA,dZNSKsp9,2020-0188,2021-09-22,01:59:29,03:16:57,NA,incomplete,true,NA,true,0,8,NA,left,E26_Q8_ansL.png,E14_Q5_ansR.png,between,NA,NaN,NA,left,2307,1,3,2947
dZNSKsp9,NA,NA,dZNSKsp9,2020-0188,2021-09-22,01:59:29,03:16:57,NA,incomplete,true,NA,true,0,9,NA,left,E26_Q9_ansR.png,E26_Q10_ansL.png,within,NA,NaN,NA,left,2928,1,2,2387
dZNSKsp9,NA,NA,dZNSKsp9,2020-0188,2021-09-22,01:59:29,03:16:57,NA,incomplete,true,NA,true,0,10,NA,right,E26_Q4_ansR.png,E9_Q4_ansL.png,between,NA,NaN,NA,right,1787.0000000001164,1,2,6055
dZNSKsp9,NA,NA,dZNSKsp9,2020-0188,2021-09-22,01:59:29,03:16:57,NA,incomplete,true,NA,true,0,11,NA,right,E14_Q9_ansR.png,E14_Q10_ansL.png,within,NA,NaN,NA,right,3700,1,1,1820
dZNSKsp9,NA,NA,dZNSKsp9,2020-0188,2021-09-22,01:59:29,03:16:57,NA,incomplete,true,NA,true,0,12,NA,right,E9_Q10_ansR.png,E9_Q1_ansR.png,within,NA,NaN,NA,right,2274,1,1,1453
dZNSKsp9,NA,NA,dZNSKsp9,2020-0188,2021-09-22,01:59:29,03:16:57,NA,incomplete,true,NA,true,0,13,NA,right,E14_Q8_ansL.png,E14_Q1_ansL.png,within,NA,NaN,NA,left,2244.0000000001164,0,1,2203
dZNSKsp9,NA,NA,dZNSKsp9,2020-0188,2021-09-22,01:59:29,03:16:57,NA,incomplete,true,NA,true,0,14,NA,right,E26_Q8_ansL.png,E26_Q1_ansL.png,within,NA,NaN,NA,right,2279,1,1,3481.0000000001164
dZNSKsp9,NA,NA,dZNSKsp9,2020-0188,2021-09-22,01:59:29,03:16:57,NA,incomplete,true,NA,true,0,15,NA,left,E26_Q10_ansL.png,E14_Q3_ansR.png,between,NA,NaN,NA,left,1536,1,2,7613
dZNSKsp9,NA,NA,dZNSKsp9,2020-0188,2021-09-22,01:59:29,03:16:57,NA,incomplete,true,NA,true,0,16,NA,right,E26_Q2_ansL.png,E26_Q3_ansR.png,within,NA,NaN,NA,right,2450,1,2,5245
dZNSKsp9,NA,NA,dZNSKsp9,2020-0188,2021-09-22,01:59:29,03:16:57,NA,incomplete,true,NA,true,0,17,NA,left,E14_Q5_ansR.png,E14_Q6_ansR.png,within,NA,NaN,NA,left,1747,1,2,2392.0000000001164
dZNSKsp9,NA,NA,dZNSKsp9,2020-0188,2021-09-22,01:59:29,03:16:57,NA,incomplete,true,NA,true,0,18,NA,right,E9_Q7_ansR.png,E9_Q6_ansL.png,within,NA,NaN,NA,right,2293,1,1,2162
dZNSKsp9,NA,NA,dZNSKsp9,2020-0188,2021-09-22,01:59:29,03:16:57,NA,incomplete,true,NA,true,0,19,NA,left,E9_Q7_ansR.png,E9_Q9_ansL.png,within,NA,NaN,NA,left,3437,1,1,2154
dZNSKsp9,NA,NA,dZNSKsp9,2020-0188,2021-09-22,01:59:29,03:16:57,NA,incomplete,true,NA,true,0,20,NA,left,E9_Q3_ansL.png,E9_Q2_ansR.png,within,NA,NaN,NA,right,12803,0,1,1867
dZNSKsp9,NA,NA,dZNSKsp9,2020-0188,2021-09-22,01:59:29,03:16:57,NA,incomplete,true,NA,true,0,21,NA,right,E9_Q4_ansL.png,E9_Q8_ansR.png,within,NA,NaN,NA,left,5120,0,1,1530
dZNSKsp9,NA,NA,dZNSKsp9,2020-0188,2021-09-22,01:59:29,03:16:57,NA,incomplete,true,NA,true,0,22,NA,right,E26_Q6_ansR.png,E26_Q2_ansL.png,within,NA,NaN,NA,left,3569.9999999998836,0,1,3055
dZNSKsp9,NA,NA,dZNSKsp9,2020-0188,2021-09-22,01:59:29,03:16:57,NA,incomplete,true,NA,true,0,23,NA,left,E9_Q2_ansR.png,E26_Q5_ansR.png,between,NA,NaN,NA,left,2089.9999999998836,1,2,2419
dZNSKsp9,NA,NA,dZNSKsp9,2020-0188,2021-09-22,01:59:29,03:16:57,NA,incomplete,true,NA,true,0,24,NA,left,E14_Q6_ansR.png,E14_Q7_ansL.png,within,NA,NaN,NA,left,4425.999999999884,1,1,2595
dZNSKsp9,NA,NA,dZNSKsp9,2020-0188,2021-09-22,01:59:29,03:16:57,NA,incomplete,true,NA,true,0,25,NA,left,E26_Q6_ansR.png,E14_Q2_ansL.png,between,NA,NaN,NA,left,2143,1,2,3627.9999999998836
dZNSKsp9,NA,NA,dZNSKsp9,2020-0188,2021-09-22,01:59:29,03:16:57,NA,incomplete,true,NA,true,0,26,NA,left,E9_Q5_ansL.png,E9_Q3_ansL.png,within,NA,NaN,NA,left,1769,1,1,1560.0000000001164
dZNSKsp9,NA,NA,dZNSKsp9,2020-0188,2021-09-22,01:59:29,03:16:57,NA,incomplete,false,true,NA,1,0,E10_Q4_ansL.png,left,NA,NA,NA,none,0,false,NA,NA,NA,NA,NA
dZNSKsp9,NA,NA,dZNSKsp9,2020-0188,2021-09-22,01:59:29,03:16:57,NA,incomplete,false,true,NA,1,1,E10_Q5_ansR.png,right,NA,NA,NA,right,3368.00000000012,true,NA,NA,NA,NA,NA
dZNSKsp9,NA,NA,dZNSKsp9,2020-0188,2021-09-22,01:59:29,03:16:57,NA,incomplete,false,true,NA,1,2,E10_Q7_ansR.png,right,NA,NA,NA,right,2782,true,NA,NA,NA,NA,NA
dZNSKsp9,NA,NA,dZNSKsp9,2020-0188,2021-09-22,01:59:29,03:16:57,NA,incomplete,false,true,NA,1,3,E10_Q10_ansR.png,right,NA,NA,NA,none,0,false,NA,NA,NA,NA,NA
dZNSKsp9,NA,NA,dZNSKsp9,2020-0188,2021-09-22,01:59:29,03:16:57,NA,incomplete,false,true,NA,1,4,E10_Q8_ansR.png,right,NA,NA,NA,right,2380,true,NA,NA,NA,NA,NA
dZNSKsp9,NA,NA,dZNSKsp9,2020-0188,2021-09-22,01:59:29,03:16:57,NA,incomplete,false,true,NA,1,5,E10_Q3_ansL.png,left,NA,NA,NA,left,2266,true,NA,NA,NA,NA,NA
dZNSKsp9,NA,NA,dZNSKsp9,2020-0188,2021-09-22,01:59:29,03:16:57,NA,incomplete,false,true,NA,1,6,E10_Q1_ansL.png,left,NA,NA,NA,left,2119.00000000012,true,NA,NA,NA,NA,NA
dZNSKsp9,NA,NA,dZNSKsp9,2020-0188,2021-09-22,01:59:29,03:16:57,NA,incomplete,false,true,NA,1,7,E10_Q6_ansR.png,right,NA,NA,NA,right,1665,true,NA,NA,NA,NA,NA
dZNSKsp9,NA,NA,dZNSKsp9,2020-0188,2021-09-22,01:59:29,03:16:57,NA,incomplete,false,true,NA,1,8,E10_Q9_ansL.png,left,NA,NA,NA,left,2051,true,NA,NA,NA,NA,NA
dZNSKsp9,NA,NA,dZNSKsp9,2020-0188,2021-09-22,01:59:29,03:16:57,NA,incomplete,false,true,NA,1,9,E10_Q2_ansL.png,left,NA,NA,NA,left,1336,true,NA,NA,NA,NA,NA
dZNSKsp9,NA,NA,dZNSKsp9,2020-0188,2021-09-22,01:59:29,03:16:57,NA,incomplete,false,true,NA,1,10,E1_Q9_ansL.png,left,NA,NA,NA,left,2072,true,NA,NA,NA,NA,NA
dZNSKsp9,NA,NA,dZNSKsp9,2020-0188,2021-09-22,01:59:29,03:16:57,NA,incomplete,false,true,NA,1,11,E1_Q8_ansR.png,right,NA,NA,NA,right,1830,true,NA,NA,NA,NA,NA
dZNSKsp9,NA,NA,dZNSKsp9,2020-0188,2021-09-22,01:59:29,03:16:57,NA,incomplete,false,true,NA,1,12,E1_Q7_ansL.png,left,NA,NA,NA,left,1106,true,NA,NA,NA,NA,NA
dZNSKsp9,NA,NA,dZNSKsp9,2020-0188,2021-09-22,01:59:29,03:16:57,NA,incomplete,false,true,NA,1,13,E1_Q3_ansR.png,right,NA,NA,NA,right,1157,true,NA,NA,NA,NA,NA
dZNSKsp9,NA,NA,dZNSKsp9,2020-0188,2021-09-22,01:59:29,03:16:57,NA,incomplete,false,true,NA,1,14,E1_Q1_ansL.png,left,NA,NA,NA,left,1605.00000000012,true,NA,NA,NA,NA,NA
dZNSKsp9,NA,NA,dZNSKsp9,2020-0188,2021-09-22,01:59:29,03:16:57,NA,incomplete,false,true,NA,1,15,E1_Q2_ansL.png,left,NA,NA,NA,left,1335,true,NA,NA,NA,NA,NA
dZNSKsp9,NA,NA,dZNSKsp9,2020-0188,2021-09-22,01:59:29,03:16:57,NA,incomplete,false,true,NA,1,16,E1_Q6_ansR.png,right,NA,NA,NA,right,937.999999999884,true,NA,NA,NA,NA,NA
dZNSKsp9,NA,NA,dZNSKsp9,2020-0188,2021-09-22,01:59:29,03:16:57,NA,incomplete,false,true,NA,1,17,E1_Q4_ansL.png,left,NA,NA,NA,left,801,true,NA,NA,NA,NA,NA
dZNSKsp9,NA,NA,dZNSKsp9,2020-0188,2021-09-22,01:59:29,03:16:57,NA,incomplete,false,true,NA,1,18,E1_Q10_ansR.png,right,NA,NA,NA,right,1013,true,NA,NA,NA,NA,NA
dZNSKsp9,NA,NA,dZNSKsp9,2020-0188,2021-09-22,01:59:29,03:16:57,NA,incomplete,false,true,NA,1,19,E1_Q5_ansR.png,right,NA,NA,NA,right,868,true,NA,NA,NA,NA,NA
dZNSKsp9,NA,NA,dZNSKsp9,2020-0188,2021-09-22,01:59:29,03:16:57,NA,incomplete,false,true,NA,1,20,E20_Q10_ansL.png,left,NA,NA,NA,right,1616.99999999988,false,NA,NA,NA,NA,NA
dZNSKsp9,NA,NA,dZNSKsp9,2020-0188,2021-09-22,01:59:29,03:16:57,NA,incomplete,false,true,NA,1,21,E20_Q8_ansL.png,left,NA,NA,NA,left,1850,true,NA,NA,NA,NA,NA
dZNSKsp9,NA,NA,dZNSKsp9,2020-0188,2021-09-22,01:59:29,03:16:57,NA,incomplete,false,true,NA,1,22,E20_Q3_ansR.png,right,NA,NA,NA,right,1152,true,NA,NA,NA,NA,NA
dZNSKsp9,NA,NA,dZNSKsp9,2020-0188,2021-09-22,01:59:29,03:16:57,NA,incomplete,false,true,NA,1,23,E20_Q7_ansL.png,left,NA,NA,NA,left,1147,true,NA,NA,NA,NA,NA
dZNSKsp9,NA,NA,dZNSKsp9,2020-0188,2021-09-22,01:59:29,03:16:57,NA,incomplete,false,true,NA,1,24,E20_Q4_ansR.png,right,NA,NA,NA,right,1042,true,NA,NA,NA,NA,NA
dZNSKsp9,NA,NA,dZNSKsp9,2020-0188,2021-09-22,01:59:29,03:16:57,NA,incomplete,false,true,NA,1,25,E20_Q5_ansR.png,right,NA,NA,NA,right,2245,true,NA,NA,NA,NA,NA
dZNSKsp9,NA,NA,dZNSKsp9,2020-0188,2021-09-22,01:59:29,03:16:57,NA,incomplete,false,true,NA,1,26,E20_Q2_ansL.png,left,NA,NA,NA,left,1136,true,NA,NA,NA,NA,NA
dZNSKsp9,NA,NA,dZNSKsp9,2020-0188,2021-09-22,01:59:29,03:16:57,NA,incomplete,false,true,NA,1,27,E20_Q6_ansR.png,right,NA,NA,NA,right,1106,true,NA,NA,NA,NA,NA
dZNSKsp9,NA,NA,dZNSKsp9,2020-0188,2021-09-22,01:59:29,03:16:57,NA,incomplete,false,true,NA,1,28,E20_Q1_ansL.png,left,NA,NA,NA,left,1036.00000000012,true,NA,NA,NA,NA,NA
dZNSKsp9,NA,NA,dZNSKsp9,2020-0188,2021-09-22,01:59:29,03:16:57,NA,incomplete,false,true,NA,1,29,E20_Q9_ansR.png,right,NA,NA,NA,right,996,true,NA,NA,NA,NA,NA
dZNSKsp9,NA,NA,dZNSKsp9,2020-0188,2021-09-22,01:59:29,03:16:57,NA,incomplete,false,NA,true,1,0,NA,right,E10_Q8_ansR.png,E10_Q5_ansR.png,within,NA,NaN,NA,right,5409,1,1,4027
dZNSKsp9,NA,NA,dZNSKsp9,2020-0188,2021-09-22,01:59:29,03:16:57,NA,incomplete,false,NA,true,1,1,NA,left,E1_Q2_ansL.png,E1_Q10_ansR.png,within,NA,NaN,NA,left,10391,1,0,2359.0000000001164
dZNSKsp9,NA,NA,dZNSKsp9,2020-0188,2021-09-22,01:59:29,03:16:57,NA,incomplete,false,NA,true,1,2,NA,right,E20_Q7_ansL.png,E20_Q10_ansL.png,within,NA,NaN,NA,right,2480,1,1,1553
dZNSKsp9,NA,NA,dZNSKsp9,2020-0188,2021-09-22,01:59:29,03:16:57,NA,incomplete,false,NA,true,1,3,NA,left,E10_Q8_ansR.png,E10_Q6_ansR.png,within,NA,NaN,NA,left,2992,1,1,1576
dZNSKsp9,NA,NA,dZNSKsp9,2020-0188,2021-09-22,01:59:29,03:16:57,NA,incomplete,false,NA,true,1,4,NA,left,E1_Q1_ansL.png,E1_Q4_ansL.png,within,NA,NaN,NA,left,9472,1,1,4971
dZNSKsp9,NA,NA,dZNSKsp9,2020-0188,2021-09-22,01:59:29,03:16:57,NA,incomplete,false,NA,true,1,5,NA,right,E10_Q3_ansL.png,E10_Q7_ansR.png,within,NA,NaN,NA,right,1703.9999999998836,1,1,2189.9999999998836
dZNSKsp9,NA,NA,dZNSKsp9,2020-0188,2021-09-22,01:59:29,03:16:57,NA,incomplete,false,NA,true,1,6,NA,left,E10_Q1_ansL.png,E10_Q2_ansL.png,within,NA,NaN,NA,left,1931,1,0,2779.9999999998836
dZNSKsp9,NA,NA,dZNSKsp9,2020-0188,2021-09-22,01:59:29,03:16:57,NA,incomplete,false,NA,true,1,7,NA,left,E1_Q5_ansR.png,E20_Q3_ansR.png,between,NA,NaN,NA,left,3226,1,2,8474
dZNSKsp9,NA,NA,dZNSKsp9,2020-0188,2021-09-22,01:59:29,03:16:57,NA,incomplete,false,NA,true,1,8,NA,left,E10_Q2_ansL.png,E1_Q7_ansL.png,between,NA,NaN,NA,left,1768,1,2,959
dZNSKsp9,NA,NA,dZNSKsp9,2020-0188,2021-09-22,01:59:29,03:16:57,NA,incomplete,false,NA,true,1,9,NA,right,E20_Q4_ansR.png,E20_Q8_ansL.png,within,NA,NaN,NA,right,2040,1,1,3221
dZNSKsp9,NA,NA,dZNSKsp9,2020-0188,2021-09-22,01:59:29,03:16:57,NA,incomplete,false,NA,true,1,10,NA,right,E10_Q1_ansL.png,E10_Q10_ansR.png,within,NA,NaN,NA,right,3202.0000000001164,1,1,2028
dZNSKsp9,NA,NA,dZNSKsp9,2020-0188,2021-09-22,01:59:29,03:16:57,NA,incomplete,false,NA,true,1,11,NA,left,E20_Q7_ansL.png,E20_Q2_ansL.png,within,NA,NaN,NA,left,2093,1,1,1155.9999999998836
dZNSKsp9,NA,NA,dZNSKsp9,2020-0188,2021-09-22,01:59:29,03:16:57,NA,incomplete,false,NA,true,1,12,NA,right,E10_Q10_ansR.png,E10_Q4_ansL.png,within,NA,NaN,NA,right,1772,1,0,980
dZNSKsp9,NA,NA,dZNSKsp9,2020-0188,2021-09-22,01:59:29,03:16:57,NA,incomplete,false,NA,true,1,13,NA,right,E20_Q6_ansR.png,E20_Q4_ansR.png,within,NA,NaN,NA,right,2974.000000000233,1,0,2266.0000000001164
dZNSKsp9,NA,NA,dZNSKsp9,2020-0188,2021-09-22,01:59:29,03:16:57,NA,incomplete,false,NA,true,1,14,NA,right,E20_Q9_ansR.png,E20_Q2_ansL.png,within,NA,NaN,NA,right,1879.0000000001164,1,1,1456
dZNSKsp9,NA,NA,dZNSKsp9,2020-0188,2021-09-22,01:59:29,03:16:57,NA,incomplete,false,NA,true,1,15,NA,left,E20_Q5_ansR.png,E20_Q1_ansL.png,within,NA,NaN,NA,right,4740,0,1,1479
dZNSKsp9,NA,NA,dZNSKsp9,2020-0188,2021-09-22,01:59:29,03:16:57,NA,incomplete,false,NA,true,1,16,NA,left,E1_Q9_ansL.png,E1_Q3_ansR.png,within,NA,NaN,NA,left,4017,1,1,2612
dZNSKsp9,NA,NA,dZNSKsp9,2020-0188,2021-09-22,01:59:29,03:16:57,NA,incomplete,false,NA,true,1,17,NA,left,E20_Q3_ansR.png,E20_Q5_ansR.png,within,NA,NaN,NA,right,6318.999999999767,0,0,1585
dZNSKsp9,NA,NA,dZNSKsp9,2020-0188,2021-09-22,01:59:29,03:16:57,NA,incomplete,false,NA,true,1,18,NA,right,E10_Q9_ansL.png,E10_Q3_ansL.png,within,NA,NaN,NA,left,6812,0,0,1579.9999999997672
dZNSKsp9,NA,NA,dZNSKsp9,2020-0188,2021-09-22,01:59:29,03:16:57,NA,incomplete,false,NA,true,1,19,NA,left,E10_Q6_ansR.png,E1_Q9_ansL.png,between,NA,NaN,NA,left,1628,1,1,1941
dZNSKsp9,NA,NA,dZNSKsp9,2020-0188,2021-09-22,01:59:29,03:16:57,NA,incomplete,false,NA,true,1,20,NA,left,E1_Q10_ansR.png,E20_Q8_ansL.png,between,NA,NaN,NA,left,1440,1,1,1039
dZNSKsp9,NA,NA,dZNSKsp9,2020-0188,2021-09-22,01:59:29,03:16:57,NA,incomplete,false,NA,true,1,21,NA,right,E1_Q1_ansL.png,E1_Q8_ansR.png,within,NA,NaN,NA,right,3336,1,1,2337
dZNSKsp9,NA,NA,dZNSKsp9,2020-0188,2021-09-22,01:59:29,03:16:57,NA,incomplete,false,NA,true,1,22,NA,right,E1_Q6_ansR.png,E1_Q3_ansR.png,within,NA,NaN,NA,right,4916.999999999767,1,1,2719
dZNSKsp9,NA,NA,dZNSKsp9,2020-0188,2021-09-22,01:59:29,03:16:57,NA,incomplete,false,NA,true,1,23,NA,left,E1_Q4_ansL.png,E20_Q10_ansL.png,between,NA,NaN,NA,left,1487,1,2,2259
dZNSKsp9,NA,NA,dZNSKsp9,2020-0188,2021-09-22,01:59:29,03:16:57,NA,incomplete,false,NA,true,1,24,NA,right,E1_Q8_ansR.png,E10_Q9_ansL.png,between,NA,NaN,NA,right,2173,1,2,1885
dZNSKsp9,NA,NA,dZNSKsp9,2020-0188,2021-09-22,01:59:29,03:16:57,NA,incomplete,false,NA,true,1,25,NA,left,E1_Q6_ansR.png,E1_Q5_ansR.png,within,NA,NaN,NA,right,4635,0,1,3729
dZNSKsp9,NA,NA,dZNSKsp9,2020-0188,2021-09-22,01:59:29,03:16:57,NA,incomplete,false,NA,true,1,26,NA,right,E1_Q2_ansL.png,E1_Q7_ansL.png,within,NA,NaN,NA,right,2983,1,1,2807
dZNSKsp9,NA,NA,dZNSKsp9,2020-0188,2021-09-22,01:59:29,03:16:57,NA,incomplete,false,true,NA,2,0,E23_Q9_ansR.png,right,NA,NA,NA,right,2154.99999999977,true,NA,NA,NA,NA,NA
dZNSKsp9,NA,NA,dZNSKsp9,2020-0188,2021-09-22,01:59:29,03:16:57,NA,incomplete,false,true,NA,2,1,E23_Q1_ansL.png,left,NA,NA,NA,left,1934,true,NA,NA,NA,NA,NA
dZNSKsp9,NA,NA,dZNSKsp9,2020-0188,2021-09-22,01:59:29,03:16:57,NA,incomplete,false,true,NA,2,2,E23_Q7_ansL.png,left,NA,NA,NA,left,1102,true,NA,NA,NA,NA,NA
dZNSKsp9,NA,NA,dZNSKsp9,2020-0188,2021-09-22,01:59:29,03:16:57,NA,incomplete,false,true,NA,2,3,E23_Q8_ansL.png,left,NA,NA,NA,left,1013.00000000023,true,NA,NA,NA,NA,NA
dZNSKsp9,NA,NA,dZNSKsp9,2020-0188,2021-09-22,01:59:29,03:16:57,NA,incomplete,false,true,NA,2,4,E23_Q5_ansR.png,right,NA,NA,NA,right,1354.00000000023,true,NA,NA,NA,NA,NA
dZNSKsp9,NA,NA,dZNSKsp9,2020-0188,2021-09-22,01:59:29,03:16:57,NA,incomplete,false,true,NA,2,5,E23_Q10_ansL.png,left,NA,NA,NA,left,1105.00000000023,true,NA,NA,NA,NA,NA
dZNSKsp9,NA,NA,dZNSKsp9,2020-0188,2021-09-22,01:59:29,03:16:57,NA,incomplete,false,true,NA,2,6,E23_Q2_ansL.png,left,NA,NA,NA,left,1435,true,NA,NA,NA,NA,NA
dZNSKsp9,NA,NA,dZNSKsp9,2020-0188,2021-09-22,01:59:29,03:16:57,NA,incomplete,false,true,NA,2,7,E23_Q4_ansR.png,right,NA,NA,NA,right,947,true,NA,NA,NA,NA,NA
dZNSKsp9,NA,NA,dZNSKsp9,2020-0188,2021-09-22,01:59:29,03:16:57,NA,incomplete,false,true,NA,2,8,E23_Q6_ansR.png,right,NA,NA,NA,right,1210,true,NA,NA,NA,NA,NA
dZNSKsp9,NA,NA,dZNSKsp9,2020-0188,2021-09-22,01:59:29,03:16:57,NA,incomplete,false,true,NA,2,9,E23_Q3_ansR.png,right,NA,NA,NA,right,1007,true,NA,NA,NA,NA,NA
dZNSKsp9,NA,NA,dZNSKsp9,2020-0188,2021-09-22,01:59:29,03:16:57,NA,incomplete,false,true,NA,2,10,E13_Q2_ansL.png,left,NA,NA,NA,left,1771,true,NA,NA,NA,NA,NA
dZNSKsp9,NA,NA,dZNSKsp9,2020-0188,2021-09-22,01:59:29,03:16:57,NA,incomplete,false,true,NA,2,11,E13_Q9_ansR.png,right,NA,NA,NA,right,1020,true,NA,NA,NA,NA,NA
dZNSKsp9,NA,NA,dZNSKsp9,2020-0188,2021-09-22,01:59:29,03:16:57,NA,incomplete,false,true,NA,2,12,E13_Q7_ansL.png,left,NA,NA,NA,left,878,true,NA,NA,NA,NA,NA
dZNSKsp9,NA,NA,dZNSKsp9,2020-0188,2021-09-22,01:59:29,03:16:57,NA,incomplete,false,true,NA,2,13,E13_Q4_ansR.png,right,NA,NA,NA,right,1148.99999999977,true,NA,NA,NA,NA,NA
dZNSKsp9,NA,NA,dZNSKsp9,2020-0188,2021-09-22,01:59:29,03:16:57,NA,incomplete,false,true,NA,2,14,E13_Q1_ansL.png,left,NA,NA,NA,left,967,true,NA,NA,NA,NA,NA
dZNSKsp9,NA,NA,dZNSKsp9,2020-0188,2021-09-22,01:59:29,03:16:57,NA,incomplete,false,true,NA,2,15,E13_Q5_ansR.png,right,NA,NA,NA,right,1267,true,NA,NA,NA,NA,NA
dZNSKsp9,NA,NA,dZNSKsp9,2020-0188,2021-09-22,01:59:29,03:16:57,NA,incomplete,false,true,NA,2,16,E13_Q3_ansR.png,right,NA,NA,NA,right,1023,true,NA,NA,NA,NA,NA
dZNSKsp9,NA,NA,dZNSKsp9,2020-0188,2021-09-22,01:59:29,03:16:57,NA,incomplete,false,true,NA,2,17,E13_Q6_ansR.png,right,NA,NA,NA,right,1165,true,NA,NA,NA,NA,NA
dZNSKsp9,NA,NA,dZNSKsp9,2020-0188,2021-09-22,01:59:29,03:16:57,NA,incomplete,false,true,NA,2,18,E13_Q8_ansL.png,left,NA,NA,NA,left,1474,true,NA,NA,NA,NA,NA
dZNSKsp9,NA,NA,dZNSKsp9,2020-0188,2021-09-22,01:59:29,03:16:57,NA,incomplete,false,true,NA,2,19,E13_Q10_ansL.png,left,NA,NA,NA,left,1113.00000000023,true,NA,NA,NA,NA,NA
dZNSKsp9,NA,NA,dZNSKsp9,2020-0188,2021-09-22,01:59:29,03:16:57,NA,incomplete,false,true,NA,2,20,E31_Q5_ansL.png,left,NA,NA,NA,left,2090,true,NA,NA,NA,NA,NA
dZNSKsp9,NA,NA,dZNSKsp9,2020-0188,2021-09-22,01:59:29,03:16:57,NA,incomplete,false,true,NA,2,21,E31_Q1_ansR.png,right,NA,NA,NA,right,1166,true,NA,NA,NA,NA,NA
dZNSKsp9,NA,NA,dZNSKsp9,2020-0188,2021-09-22,01:59:29,03:16:57,NA,incomplete,false,true,NA,2,22,E31_Q6_ansL.png,left,NA,NA,NA,left,997,true,NA,NA,NA,NA,NA
dZNSKsp9,NA,NA,dZNSKsp9,2020-0188,2021-09-22,01:59:29,03:16:57,NA,incomplete,false,true,NA,2,23,E31_Q9_ansL.png,left,NA,NA,NA,left,1392,true,NA,NA,NA,NA,NA
dZNSKsp9,NA,NA,dZNSKsp9,2020-0188,2021-09-22,01:59:29,03:16:57,NA,incomplete,false,true,NA,2,24,E31_Q8_ansR.png,right,NA,NA,NA,right,1367,true,NA,NA,NA,NA,NA
dZNSKsp9,NA,NA,dZNSKsp9,2020-0188,2021-09-22,01:59:29,03:16:57,NA,incomplete,false,true,NA,2,25,E31_Q7_ansR.png,right,NA,NA,NA,right,982,true,NA,NA,NA,NA,NA
dZNSKsp9,NA,NA,dZNSKsp9,2020-0188,2021-09-22,01:59:29,03:16:57,NA,incomplete,false,true,NA,2,26,E31_Q3_ansL.png,left,NA,NA,NA,left,1018.00000000023,true,NA,NA,NA,NA,NA
dZNSKsp9,NA,NA,dZNSKsp9,2020-0188,2021-09-22,01:59:29,03:16:57,NA,incomplete,false,true,NA,2,27,E31_Q4_ansL.png,left,NA,NA,NA,left,1153,true,NA,NA,NA,NA,NA
dZNSKsp9,NA,NA,dZNSKsp9,2020-0188,2021-09-22,01:59:29,03:16:57,NA,incomplete,false,true,NA,2,28,E31_Q10_ansR.png,right,NA,NA,NA,right,1108,true,NA,NA,NA,NA,NA
dZNSKsp9,NA,NA,dZNSKsp9,2020-0188,2021-09-22,01:59:29,03:16:57,NA,incomplete,false,true,NA,2,29,E31_Q2_ansR.png,right,NA,NA,NA,right,1090,true,NA,NA,NA,NA,NA
dZNSKsp9,NA,NA,dZNSKsp9,2020-0188,2021-09-22,01:59:29,03:16:57,NA,incomplete,false,NA,true,2,0,NA,right,E31_Q4_ansL.png,E31_Q8_ansR.png,within,NA,NaN,NA,right,1860.0000000002328,1,1,2152
dZNSKsp9,NA,NA,dZNSKsp9,2020-0188,2021-09-22,01:59:29,03:16:57,NA,incomplete,false,NA,true,2,1,NA,left,E13_Q9_ansR.png,E13_Q1_ansL.png,within,NA,NaN,NA,left,1864.0000000002328,1,1,1075
dZNSKsp9,NA,NA,dZNSKsp9,2020-0188,2021-09-22,01:59:29,03:16:57,NA,incomplete,false,NA,true,2,2,NA,left,E23_Q10_ansL.png,E23_Q6_ansR.png,within,NA,NaN,NA,left,2442,1,0,1357
dZNSKsp9,NA,NA,dZNSKsp9,2020-0188,2021-09-22,01:59:29,03:16:57,NA,incomplete,false,NA,true,2,3,NA,right,E13_Q6_ansR.png,E13_Q1_ansL.png,within,NA,NaN,NA,left,3473,0,1,922
dZNSKsp9,NA,NA,dZNSKsp9,2020-0188,2021-09-22,01:59:29,03:16:57,NA,incomplete,false,NA,true,2,4,NA,left,E23_Q2_ansL.png,E23_Q3_ansR.png,within,NA,NaN,NA,left,1817,1,1,1302.9999999997672
dZNSKsp9,NA,NA,dZNSKsp9,2020-0188,2021-09-22,01:59:29,03:16:57,NA,incomplete,false,NA,true,2,5,NA,right,E23_Q2_ansL.png,E23_Q8_ansL.png,within,NA,NaN,NA,right,2240.999999999767,1,0,4259.999999999767
dZNSKsp9,NA,NA,dZNSKsp9,2020-0188,2021-09-22,01:59:29,03:16:57,NA,incomplete,false,NA,true,2,6,NA,right,E31_Q9_ansL.png,E31_Q5_ansL.png,within,NA,NaN,NA,right,2202,1,1,1150.9999999997672
dZNSKsp9,NA,NA,dZNSKsp9,2020-0188,2021-09-22,01:59:29,03:16:57,NA,incomplete,false,NA,true,2,7,NA,right,E31_Q3_ansL.png,E31_Q9_ansL.png,within,NA,NaN,NA,left,3152,0,1,2718.999999999767
dZNSKsp9,NA,NA,dZNSKsp9,2020-0188,2021-09-22,01:59:29,03:16:57,NA,incomplete,false,NA,true,2,8,NA,right,E23_Q8_ansL.png,E23_Q9_ansR.png,within,NA,NaN,NA,right,1616,1,1,1758
dZNSKsp9,NA,NA,dZNSKsp9,2020-0188,2021-09-22,01:59:29,03:16:57,NA,incomplete,false,NA,true,2,9,NA,right,E13_Q4_ansR.png,E13_Q2_ansL.png,within,NA,NaN,NA,right,1589,1,1,1111
dZNSKsp9,NA,NA,dZNSKsp9,2020-0188,2021-09-22,01:59:29,03:16:57,NA,incomplete,false,NA,true,2,10,NA,left,E13_Q3_ansR.png,E13_Q10_ansL.png,within,NA,NaN,NA,left,1597,1,1,1021
dZNSKsp9,NA,NA,dZNSKsp9,2020-0188,2021-09-22,01:59:29,03:16:57,NA,incomplete,false,NA,true,2,11,NA,right,E31_Q7_ansR.png,E31_Q6_ansL.png,within,NA,NaN,NA,right,2395,1,1,1863
dZNSKsp9,NA,NA,dZNSKsp9,2020-0188,2021-09-22,01:59:29,03:16:57,NA,incomplete,false,NA,true,2,12,NA,left,E13_Q6_ansR.png,E31_Q5_ansL.png,between,NA,NaN,NA,left,4638,1,1,5365
dZNSKsp9,NA,NA,dZNSKsp9,2020-0188,2021-09-22,01:59:29,03:16:57,NA,incomplete,false,NA,true,2,13,NA,right,E13_Q2_ansL.png,E23_Q4_ansR.png,between,NA,NaN,NA,right,1589,1,1,4325.999999999767
dZNSKsp9,NA,NA,dZNSKsp9,2020-0188,2021-09-22,01:59:29,03:16:57,NA,incomplete,false,NA,true,2,14,NA,left,E13_Q4_ansR.png,E13_Q3_ansR.png,within,NA,NaN,NA,left,2535,1,1,1633
dZNSKsp9,NA,NA,dZNSKsp9,2020-0188,2021-09-22,01:59:29,03:16:57,NA,incomplete,false,NA,true,2,15,NA,left,E31_Q1_ansR.png,E31_Q8_ansR.png,within,NA,NaN,NA,left,2959,1,1,978
dZNSKsp9,NA,NA,dZNSKsp9,2020-0188,2021-09-22,01:59:29,03:16:57,NA,incomplete,false,NA,true,2,16,NA,left,E13_Q7_ansL.png,E13_Q5_ansR.png,within,NA,NaN,NA,left,1584,1,2,2144
dZNSKsp9,NA,NA,dZNSKsp9,2020-0188,2021-09-22,01:59:29,03:16:57,NA,incomplete,false,NA,true,2,17,NA,left,E31_Q7_ansR.png,E31_Q10_ansR.png,within,NA,NaN,NA,left,10770,1,0,3199
dZNSKsp9,NA,NA,dZNSKsp9,2020-0188,2021-09-22,01:59:29,03:16:57,NA,incomplete,false,NA,true,2,18,NA,right,E13_Q9_ansR.png,E23_Q6_ansR.png,between,NA,NaN,NA,right,1687.9999999997672,1,1,1515
dZNSKsp9,NA,NA,dZNSKsp9,2020-0188,2021-09-22,01:59:29,03:16:57,NA,incomplete,false,NA,true,2,19,NA,left,E23_Q7_ansL.png,E23_Q10_ansL.png,within,NA,NaN,NA,left,2946.000000000233,1,0,1569.9999999997672
dZNSKsp9,NA,NA,dZNSKsp9,2020-0188,2021-09-22,01:59:29,03:16:57,NA,incomplete,false,NA,true,2,20,NA,left,E13_Q10_ansL.png,E31_Q6_ansL.png,between,NA,NaN,NA,left,1691,1,1,2066
dZNSKsp9,NA,NA,dZNSKsp9,2020-0188,2021-09-22,01:59:29,03:16:57,NA,incomplete,false,NA,true,2,21,NA,right,E13_Q8_ansL.png,E13_Q5_ansR.png,within,NA,NaN,NA,right,2852,1,0,1803
dZNSKsp9,NA,NA,dZNSKsp9,2020-0188,2021-09-22,01:59:29,03:16:57,NA,incomplete,false,NA,true,2,22,NA,right,E13_Q7_ansL.png,E23_Q3_ansR.png,between,NA,NaN,NA,right,1720,1,2,1202
dZNSKsp9,NA,NA,dZNSKsp9,2020-0188,2021-09-22,01:59:29,03:16:57,NA,incomplete,false,NA,true,2,23,NA,right,E23_Q4_ansR.png,E23_Q5_ansR.png,within,NA,NaN,NA,right,2861.999999999767,1,1,1278
dZNSKsp9,NA,NA,dZNSKsp9,2020-0188,2021-09-22,01:59:29,03:16:57,NA,incomplete,false,NA,true,2,24,NA,left,E13_Q8_ansL.png,E31_Q1_ansR.png,between,NA,NaN,NA,left,2153,1,1,1338
dZNSKsp9,NA,NA,dZNSKsp9,2020-0188,2021-09-22,01:59:29,03:16:57,NA,incomplete,false,NA,true,2,25,NA,right,E31_Q2_ansR.png,E31_Q3_ansL.png,within,NA,NaN,NA,right,1546,1,1,1734
dZNSKsp9,NA,NA,dZNSKsp9,2020-0188,2021-09-22,01:59:29,03:16:57,NA,incomplete,false,NA,true,2,26,NA,left,E23_Q1_ansL.png,E23_Q5_ansR.png,within,NA,NaN,NA,right,6214.000000000233,0,1,1060
dZNSKsp9,NA,NA,dZNSKsp9,2020-0188,2021-09-22,01:59:29,03:16:57,NA,incomplete,false,true,NA,3,0,E7_Q4_ansR.png,right,NA,NA,NA,right,1858,true,NA,NA,NA,NA,NA
dZNSKsp9,NA,NA,dZNSKsp9,2020-0188,2021-09-22,01:59:29,03:16:57,NA,incomplete,false,true,NA,3,1,E7_Q9_ansR.png,right,NA,NA,NA,right,1354,true,NA,NA,NA,NA,NA
dZNSKsp9,NA,NA,dZNSKsp9,2020-0188,2021-09-22,01:59:29,03:16:57,NA,incomplete,false,true,NA,3,2,E7_Q1_ansL.png,left,NA,NA,NA,left,1186,true,NA,NA,NA,NA,NA
dZNSKsp9,NA,NA,dZNSKsp9,2020-0188,2021-09-22,01:59:29,03:16:57,NA,incomplete,false,true,NA,3,3,E7_Q6_ansR.png,right,NA,NA,NA,right,899,true,NA,NA,NA,NA,NA
dZNSKsp9,NA,NA,dZNSKsp9,2020-0188,2021-09-22,01:59:29,03:16:57,NA,incomplete,false,true,NA,3,4,E7_Q8_ansL.png,left,NA,NA,NA,left,905,true,NA,NA,NA,NA,NA
dZNSKsp9,NA,NA,dZNSKsp9,2020-0188,2021-09-22,01:59:29,03:16:57,NA,incomplete,false,true,NA,3,5,E7_Q7_ansL.png,left,NA,NA,NA,left,799,true,NA,NA,NA,NA,NA
dZNSKsp9,NA,NA,dZNSKsp9,2020-0188,2021-09-22,01:59:29,03:16:57,NA,incomplete,false,true,NA,3,6,E7_Q10_ansR.png,right,NA,NA,NA,right,1928.99999999977,true,NA,NA,NA,NA,NA
dZNSKsp9,NA,NA,dZNSKsp9,2020-0188,2021-09-22,01:59:29,03:16:57,NA,incomplete,false,true,NA,3,7,E7_Q3_ansR.png,right,NA,NA,NA,right,1307,true,NA,NA,NA,NA,NA
dZNSKsp9,NA,NA,dZNSKsp9,2020-0188,2021-09-22,01:59:29,03:16:57,NA,incomplete,false,true,NA,3,8,E7_Q5_ansR.png,right,NA,NA,NA,right,1133,true,NA,NA,NA,NA,NA
dZNSKsp9,NA,NA,dZNSKsp9,2020-0188,2021-09-22,01:59:29,03:16:57,NA,incomplete,false,true,NA,3,9,E7_Q2_ansL.png,left,NA,NA,NA,left,838.000000000233,true,NA,NA,NA,NA,NA
dZNSKsp9,NA,NA,dZNSKsp9,2020-0188,2021-09-22,01:59:29,03:16:57,NA,incomplete,false,true,NA,3,10,E5_Q1_ansL.png,left,NA,NA,NA,left,1260,true,NA,NA,NA,NA,NA
dZNSKsp9,NA,NA,dZNSKsp9,2020-0188,2021-09-22,01:59:29,03:16:57,NA,incomplete,false,true,NA,3,11,E5_Q3_ansR.png,right,NA,NA,NA,right,913,true,NA,NA,NA,NA,NA
dZNSKsp9,NA,NA,dZNSKsp9,2020-0188,2021-09-22,01:59:29,03:16:57,NA,incomplete,false,true,NA,3,12,E5_Q6_ansR.png,right,NA,NA,NA,right,1290,true,NA,NA,NA,NA,NA
dZNSKsp9,NA,NA,dZNSKsp9,2020-0188,2021-09-22,01:59:29,03:16:57,NA,incomplete,false,true,NA,3,13,E5_Q8_ansL.png,left,NA,NA,NA,left,1068,true,NA,NA,NA,NA,NA
dZNSKsp9,NA,NA,dZNSKsp9,2020-0188,2021-09-22,01:59:29,03:16:57,NA,incomplete,false,true,NA,3,14,E5_Q2_ansL.png,left,NA,NA,NA,left,1165,true,NA,NA,NA,NA,NA
dZNSKsp9,NA,NA,dZNSKsp9,2020-0188,2021-09-22,01:59:29,03:16:57,NA,incomplete,false,true,NA,3,15,E5_Q4_ansR.png,right,NA,NA,NA,right,940.999999999767,true,NA,NA,NA,NA,NA
dZNSKsp9,NA,NA,dZNSKsp9,2020-0188,2021-09-22,01:59:29,03:16:57,NA,incomplete,false,true,NA,3,16,E5_Q10_ansR.png,right,NA,NA,NA,right,1125,true,NA,NA,NA,NA,NA
dZNSKsp9,NA,NA,dZNSKsp9,2020-0188,2021-09-22,01:59:29,03:16:57,NA,incomplete,false,true,NA,3,17,E5_Q7_ansL.png,left,NA,NA,NA,left,1153,true,NA,NA,NA,NA,NA
dZNSKsp9,NA,NA,dZNSKsp9,2020-0188,2021-09-22,01:59:29,03:16:57,NA,incomplete,false,true,NA,3,18,E5_Q5_ansR.png,right,NA,NA,NA,right,1024,true,NA,NA,NA,NA,NA
dZNSKsp9,NA,NA,dZNSKsp9,2020-0188,2021-09-22,01:59:29,03:16:57,NA,incomplete,false,true,NA,3,19,E5_Q9_ansR.png,right,NA,NA,NA,right,971,true,NA,NA,NA,NA,NA
dZNSKsp9,NA,NA,dZNSKsp9,2020-0188,2021-09-22,01:59:29,03:16:57,NA,incomplete,false,true,NA,3,20,E11_Q3_ansL.png,left,NA,NA,NA,left,1850.00000000023,true,NA,NA,NA,NA,NA
dZNSKsp9,NA,NA,dZNSKsp9,2020-0188,2021-09-22,01:59:29,03:16:57,NA,incomplete,false,true,NA,3,21,E11_Q2_ansR.png,right,NA,NA,NA,right,1353.00000000023,true,NA,NA,NA,NA,NA
dZNSKsp9,NA,NA,dZNSKsp9,2020-0188,2021-09-22,01:59:29,03:16:57,NA,incomplete,false,true,NA,3,22,E11_Q4_ansL.png,left,NA,NA,NA,left,1335,true,NA,NA,NA,NA,NA
dZNSKsp9,NA,NA,dZNSKsp9,2020-0188,2021-09-22,01:59:29,03:16:57,NA,incomplete,false,true,NA,3,23,E11_Q7_ansR.png,right,NA,NA,NA,right,1765.00000000023,true,NA,NA,NA,NA,NA
dZNSKsp9,NA,NA,dZNSKsp9,2020-0188,2021-09-22,01:59:29,03:16:57,NA,incomplete,false,true,NA,3,24,E11_Q10_ansR.png,right,NA,NA,NA,right,1228,true,NA,NA,NA,NA,NA
dZNSKsp9,NA,NA,dZNSKsp9,2020-0188,2021-09-22,01:59:29,03:16:57,NA,incomplete,false,true,NA,3,25,E11_Q5_ansL.png,left,NA,NA,NA,left,1559,true,NA,NA,NA,NA,NA
dZNSKsp9,NA,NA,dZNSKsp9,2020-0188,2021-09-22,01:59:29,03:16:57,NA,incomplete,false,true,NA,3,26,E11_Q8_ansR.png,right,NA,NA,NA,right,1291,true,NA,NA,NA,NA,NA
dZNSKsp9,NA,NA,dZNSKsp9,2020-0188,2021-09-22,01:59:29,03:16:57,NA,incomplete,false,true,NA,3,27,E11_Q6_ansL.png,left,NA,NA,NA,left,1568,true,NA,NA,NA,NA,NA
dZNSKsp9,NA,NA,dZNSKsp9,2020-0188,2021-09-22,01:59:29,03:16:57,NA,incomplete,false,true,NA,3,28,E11_Q9_ansL.png,left,NA,NA,NA,right,1251.00000000023,false,NA,NA,NA,NA,NA
dZNSKsp9,NA,NA,dZNSKsp9,2020-0188,2021-09-22,01:59:29,03:16:57,NA,incomplete,false,true,NA,3,29,E11_Q1_ansR.png,right,NA,NA,NA,right,1328,true,NA,NA,NA,NA,NA
dZNSKsp9,NA,NA,dZNSKsp9,2020-0188,2021-09-22,01:59:29,03:16:57,NA,incomplete,false,NA,true,3,0,NA,right,E11_Q1_ansR.png,E11_Q8_ansR.png,within,NA,NaN,NA,right,2224.000000000233,1,0,2650
dZNSKsp9,NA,NA,dZNSKsp9,2020-0188,2021-09-22,01:59:29,03:16:57,NA,incomplete,false,NA,true,3,1,NA,right,E7_Q2_ansL.png,E7_Q10_ansR.png,within,NA,NaN,NA,right,2494,1,0,1416.0000000002328
dZNSKsp9,NA,NA,dZNSKsp9,2020-0188,2021-09-22,01:59:29,03:16:57,NA,incomplete,false,NA,true,3,2,NA,right,E11_Q3_ansL.png,E5_Q7_ansL.png,between,NA,NaN,NA,right,2415,1,2,5997
dZNSKsp9,NA,NA,dZNSKsp9,2020-0188,2021-09-22,01:59:29,03:16:57,NA,incomplete,false,NA,true,3,3,NA,right,E7_Q6_ansR.png,E7_Q4_ansR.png,within,NA,NaN,NA,right,2351.999999999767,1,1,1371
dZNSKsp9,NA,NA,dZNSKsp9,2020-0188,2021-09-22,01:59:29,03:16:57,NA,incomplete,false,NA,true,3,4,NA,right,E11_Q6_ansL.png,E11_Q10_ansR.png,within,NA,NaN,NA,right,1630,1,1,1276.9999999997672
dZNSKsp9,NA,NA,dZNSKsp9,2020-0188,2021-09-22,01:59:29,03:16:57,NA,incomplete,false,NA,true,3,5,NA,left,E7_Q1_ansL.png,E7_Q7_ansL.png,within,NA,NaN,NA,left,1496,1,1,1049.9999999997672
dZNSKsp9,NA,NA,dZNSKsp9,2020-0188,2021-09-22,01:59:29,03:16:57,NA,incomplete,false,NA,true,3,6,NA,right,E5_Q7_ansL.png,E5_Q2_ansL.png,within,NA,NaN,NA,left,2483,0,0,2675
dZNSKsp9,NA,NA,dZNSKsp9,2020-0188,2021-09-22,01:59:29,03:16:57,NA,incomplete,false,NA,true,3,7,NA,right,E7_Q3_ansR.png,E7_Q8_ansL.png,within,NA,NaN,NA,right,3386.999999999767,1,1,1188.0000000002328
dZNSKsp9,NA,NA,dZNSKsp9,2020-0188,2021-09-22,01:59:29,03:16:57,NA,incomplete,false,NA,true,3,8,NA,left,E11_Q7_ansR.png,E11_Q8_ansR.png,within,NA,NaN,NA,left,2034.0000000002328,1,1,3101
dZNSKsp9,NA,NA,dZNSKsp9,2020-0188,2021-09-22,01:59:29,03:16:57,NA,incomplete,false,NA,true,3,9,NA,left,E5_Q1_ansL.png,E5_Q8_ansL.png,within,NA,NaN,NA,left,2123,1,1,1011
dZNSKsp9,NA,NA,dZNSKsp9,2020-0188,2021-09-22,01:59:29,03:16:57,NA,incomplete,false,NA,true,3,10,NA,left,E7_Q6_ansR.png,E7_Q10_ansR.png,within,NA,NaN,NA,left,1732.9999999997672,1,1,934
dZNSKsp9,NA,NA,dZNSKsp9,2020-0188,2021-09-22,01:59:29,03:16:57,NA,incomplete,false,NA,true,3,11,NA,right,E5_Q6_ansR.png,E7_Q2_ansL.png,between,NA,NaN,NA,right,1680,1,1,1749.0000000002328
dZNSKsp9,NA,NA,dZNSKsp9,2020-0188,2021-09-22,01:59:29,03:16:57,NA,incomplete,false,NA,true,3,12,NA,left,E5_Q10_ansR.png,E5_Q9_ansR.png,within,NA,NaN,NA,right,3181.000000000233,0,1,1241
dZNSKsp9,NA,NA,dZNSKsp9,2020-0188,2021-09-22,01:59:29,03:16:57,NA,incomplete,false,NA,true,3,13,NA,left,E5_Q5_ansR.png,E11_Q2_ansR.png,between,NA,NaN,NA,left,1321,1,2,1824
dZNSKsp9,NA,NA,dZNSKsp9,2020-0188,2021-09-22,01:59:29,03:16:57,NA,incomplete,false,NA,true,3,14,NA,left,E7_Q7_ansL.png,E7_Q5_ansR.png,within,NA,NaN,NA,left,1581,1,0,1825
dZNSKsp9,NA,NA,dZNSKsp9,2020-0188,2021-09-22,01:59:29,03:16:57,NA,incomplete,false,NA,true,3,15,NA,left,E5_Q3_ansR.png,E5_Q2_ansL.png,within,NA,NaN,NA,left,1415,1,1,1493
dZNSKsp9,NA,NA,dZNSKsp9,2020-0188,2021-09-22,01:59:29,03:16:57,NA,incomplete,false,NA,true,3,16,NA,right,E5_Q10_ansR.png,E5_Q8_ansL.png,within,NA,NaN,NA,right,1524.9999999997672,1,1,1030.9999999997672
dZNSKsp9,NA,NA,dZNSKsp9,2020-0188,2021-09-22,01:59:29,03:16:57,NA,incomplete,false,NA,true,3,17,NA,left,E7_Q9_ansR.png,E7_Q8_ansL.png,within,NA,NaN,NA,left,1523,1,1,1013
dZNSKsp9,NA,NA,dZNSKsp9,2020-0188,2021-09-22,01:59:29,03:16:57,NA,incomplete,false,NA,true,3,18,NA,right,E11_Q4_ansL.png,E5_Q9_ansR.png,between,NA,NaN,NA,right,1429.0000000002328,1,2,2317
dZNSKsp9,NA,NA,dZNSKsp9,2020-0188,2021-09-22,01:59:29,03:16:57,NA,incomplete,false,NA,true,3,19,NA,left,E7_Q5_ansR.png,E5_Q3_ansR.png,between,NA,NaN,NA,left,2037,1,1,1814.9999999997672
dZNSKsp9,NA,NA,dZNSKsp9,2020-0188,2021-09-22,01:59:29,03:16:57,NA,incomplete,false,NA,true,3,20,NA,right,E11_Q5_ansL.png,E11_Q4_ansL.png,within,NA,NaN,NA,right,2635.999999999767,1,1,1659
dZNSKsp9,NA,NA,dZNSKsp9,2020-0188,2021-09-22,01:59:29,03:16:57,NA,incomplete,false,NA,true,3,21,NA,left,E5_Q4_ansR.png,E5_Q5_ansR.png,within,NA,NaN,NA,left,1727.9999999997672,1,1,1635
dZNSKsp9,NA,NA,dZNSKsp9,2020-0188,2021-09-22,01:59:29,03:16:57,NA,incomplete,false,NA,true,3,22,NA,right,E11_Q7_ansR.png,E11_Q3_ansL.png,within,NA,NaN,NA,right,1493,1,1,1070
dZNSKsp9,NA,NA,dZNSKsp9,2020-0188,2021-09-22,01:59:29,03:16:57,NA,incomplete,false,NA,true,3,23,NA,left,E5_Q6_ansR.png,E5_Q4_ansR.png,within,NA,NaN,NA,left,1639,1,1,1350
dZNSKsp9,NA,NA,dZNSKsp9,2020-0188,2021-09-22,01:59:29,03:16:57,NA,incomplete,false,NA,true,3,24,NA,left,E7_Q3_ansR.png,E5_Q1_ansL.png,between,NA,NaN,NA,left,1062.9999999997672,1,2,620.9999999997672
dZNSKsp9,NA,NA,dZNSKsp9,2020-0188,2021-09-22,01:59:29,03:16:57,NA,incomplete,false,NA,true,3,25,NA,left,E11_Q2_ansR.png,E11_Q10_ansR.png,within,NA,NaN,NA,left,1286,1,1,3011
dZNSKsp9,NA,NA,dZNSKsp9,2020-0188,2021-09-22,01:59:29,03:16:57,NA,incomplete,false,NA,true,3,26,NA,left,E11_Q5_ansL.png,E11_Q9_ansL.png,within,NA,NaN,NA,left,1638,1,0,3448
dZNSKsp9,NA,NA,dZNSKsp9,2020-0188,2021-09-22,01:59:29,03:16:57,NA,incomplete,false,true,NA,4,0,E6_Q7_ansL.png,left,NA,NA,NA,left,1688,true,NA,NA,NA,NA,NA
dZNSKsp9,NA,NA,dZNSKsp9,2020-0188,2021-09-22,01:59:29,03:16:57,NA,incomplete,false,true,NA,4,1,E6_Q3_ansR.png,right,NA,NA,NA,right,813,true,NA,NA,NA,NA,NA
dZNSKsp9,NA,NA,dZNSKsp9,2020-0188,2021-09-22,01:59:29,03:16:57,NA,incomplete,false,true,NA,4,2,E6_Q9_ansL.png,left,NA,NA,NA,left,1135.99999999977,true,NA,NA,NA,NA,NA
dZNSKsp9,NA,NA,dZNSKsp9,2020-0188,2021-09-22,01:59:29,03:16:57,NA,incomplete,false,true,NA,4,3,E6_Q6_ansR.png,right,NA,NA,NA,right,790.999999999767,true,NA,NA,NA,NA,NA
dZNSKsp9,NA,NA,dZNSKsp9,2020-0188,2021-09-22,01:59:29,03:16:57,NA,incomplete,false,true,NA,4,4,E6_Q4_ansR.png,right,NA,NA,NA,left,1102,false,NA,NA,NA,NA,NA
dZNSKsp9,NA,NA,dZNSKsp9,2020-0188,2021-09-22,01:59:29,03:16:57,NA,incomplete,false,true,NA,4,5,E6_Q8_ansL.png,left,NA,NA,NA,left,1371,true,NA,NA,NA,NA,NA
dZNSKsp9,NA,NA,dZNSKsp9,2020-0188,2021-09-22,01:59:29,03:16:57,NA,incomplete,false,true,NA,4,6,E6_Q1_ansL.png,left,NA,NA,NA,left,1085.99999999977,true,NA,NA,NA,NA,NA
dZNSKsp9,NA,NA,dZNSKsp9,2020-0188,2021-09-22,01:59:29,03:16:57,NA,incomplete,false,true,NA,4,7,E6_Q10_ansL.png,left,NA,NA,NA,left,1162,true,NA,NA,NA,NA,NA
dZNSKsp9,NA,NA,dZNSKsp9,2020-0188,2021-09-22,01:59:29,03:16:57,NA,incomplete,false,true,NA,4,8,E6_Q5_ansR.png,right,NA,NA,NA,right,1329.00000000023,true,NA,NA,NA,NA,NA
dZNSKsp9,NA,NA,dZNSKsp9,2020-0188,2021-09-22,01:59:29,03:16:57,NA,incomplete,false,true,NA,4,9,E6_Q2_ansL.png,left,NA,NA,NA,left,1232,true,NA,NA,NA,NA,NA
dZNSKsp9,NA,NA,dZNSKsp9,2020-0188,2021-09-22,01:59:29,03:16:57,NA,incomplete,false,true,NA,4,10,E2_Q7_ansR.png,right,NA,NA,NA,right,2331.99999999977,true,NA,NA,NA,NA,NA
dZNSKsp9,NA,NA,dZNSKsp9,2020-0188,2021-09-22,01:59:29,03:16:57,NA,incomplete,false,true,NA,4,11,E2_Q4_ansL.png,left,NA,NA,NA,left,1371.00000000023,true,NA,NA,NA,NA,NA
dZNSKsp9,NA,NA,dZNSKsp9,2020-0188,2021-09-22,01:59:29,03:16:57,NA,incomplete,false,true,NA,4,12,E2_Q1_ansL.png,left,NA,NA,NA,left,1357,true,NA,NA,NA,NA,NA
dZNSKsp9,NA,NA,dZNSKsp9,2020-0188,2021-09-22,01:59:29,03:16:57,NA,incomplete,false,true,NA,4,13,E2_Q10_ansL.png,left,NA,NA,NA,left,1213,true,NA,NA,NA,NA,NA
dZNSKsp9,NA,NA,dZNSKsp9,2020-0188,2021-09-22,01:59:29,03:16:57,NA,incomplete,false,true,NA,4,14,E2_Q9_ansL.png,left,NA,NA,NA,left,1080,true,NA,NA,NA,NA,NA
dZNSKsp9,NA,NA,dZNSKsp9,2020-0188,2021-09-22,01:59:29,03:16:57,NA,incomplete,false,true,NA,4,15,E2_Q3_ansR.png,right,NA,NA,NA,right,1281,true,NA,NA,NA,NA,NA
dZNSKsp9,NA,NA,dZNSKsp9,2020-0188,2021-09-22,01:59:29,03:16:57,NA,incomplete,false,true,NA,4,16,E2_Q6_ansL.png,left,NA,NA,NA,left,1094,true,NA,NA,NA,NA,NA
dZNSKsp9,NA,NA,dZNSKsp9,2020-0188,2021-09-22,01:59:29,03:16:57,NA,incomplete,false,true,NA,4,17,E2_Q2_ansR.png,right,NA,NA,NA,right,1112,true,NA,NA,NA,NA,NA
dZNSKsp9,NA,NA,dZNSKsp9,2020-0188,2021-09-22,01:59:29,03:16:57,NA,incomplete,false,true,NA,4,18,E2_Q8_ansR.png,right,NA,NA,NA,right,914.000000000233,true,NA,NA,NA,NA,NA
dZNSKsp9,NA,NA,dZNSKsp9,2020-0188,2021-09-22,01:59:29,03:16:57,NA,incomplete,false,true,NA,4,19,E2_Q5_ansL.png,left,NA,NA,NA,left,1165.99999999953,true,NA,NA,NA,NA,NA
dZNSKsp9,NA,NA,dZNSKsp9,2020-0188,2021-09-22,01:59:29,03:16:57,NA,incomplete,false,true,NA,4,20,E32_Q4_ansR.png,right,NA,NA,NA,right,2347.99999999977,true,NA,NA,NA,NA,NA
dZNSKsp9,NA,NA,dZNSKsp9,2020-0188,2021-09-22,01:59:29,03:16:57,NA,incomplete,false,true,NA,4,21,E32_Q5_ansR.png,right,NA,NA,NA,right,1301,true,NA,NA,NA,NA,NA
dZNSKsp9,NA,NA,dZNSKsp9,2020-0188,2021-09-22,01:59:29,03:16:57,NA,incomplete,false,true,NA,4,22,E32_Q1_ansL.png,left,NA,NA,NA,left,1099.99999999977,true,NA,NA,NA,NA,NA
dZNSKsp9,NA,NA,dZNSKsp9,2020-0188,2021-09-22,01:59:29,03:16:57,NA,incomplete,false,true,NA,4,23,E32_Q9_ansR.png,right,NA,NA,NA,right,1030.99999999977,true,NA,NA,NA,NA,NA
dZNSKsp9,NA,NA,dZNSKsp9,2020-0188,2021-09-22,01:59:29,03:16:57,NA,incomplete,false,true,NA,4,24,E32_Q8_ansL.png,left,NA,NA,NA,left,913,true,NA,NA,NA,NA,NA
dZNSKsp9,NA,NA,dZNSKsp9,2020-0188,2021-09-22,01:59:29,03:16:57,NA,incomplete,false,true,NA,4,25,E32_Q10_ansL.png,left,NA,NA,NA,left,1024,true,NA,NA,NA,NA,NA
dZNSKsp9,NA,NA,dZNSKsp9,2020-0188,2021-09-22,01:59:29,03:16:57,NA,incomplete,false,true,NA,4,26,E32_Q3_ansR.png,right,NA,NA,NA,right,1076.99999999953,true,NA,NA,NA,NA,NA
dZNSKsp9,NA,NA,dZNSKsp9,2020-0188,2021-09-22,01:59:29,03:16:57,NA,incomplete,false,true,NA,4,27,E32_Q6_ansR.png,right,NA,NA,NA,right,1182,true,NA,NA,NA,NA,NA
dZNSKsp9,NA,NA,dZNSKsp9,2020-0188,2021-09-22,01:59:29,03:16:57,NA,incomplete,false,true,NA,4,28,E32_Q2_ansL.png,left,NA,NA,NA,left,1630,true,NA,NA,NA,NA,NA
dZNSKsp9,NA,NA,dZNSKsp9,2020-0188,2021-09-22,01:59:29,03:16:57,NA,incomplete,false,true,NA,4,29,E32_Q7_ansL.png,left,NA,NA,NA,left,1157,true,NA,NA,NA,NA,NA
dZNSKsp9,NA,NA,dZNSKsp9,2020-0188,2021-09-22,01:59:29,03:16:57,NA,incomplete,false,NA,true,4,0,NA,right,E32_Q6_ansR.png,E32_Q8_ansL.png,within,NA,NaN,NA,right,2897,1,1,1466
dZNSKsp9,NA,NA,dZNSKsp9,2020-0188,2021-09-22,01:59:29,03:16:57,NA,incomplete,false,NA,true,4,1,NA,left,E2_Q4_ansL.png,E2_Q9_ansL.png,within,NA,NaN,NA,left,1331,1,1,843
dZNSKsp9,NA,NA,dZNSKsp9,2020-0188,2021-09-22,01:59:29,03:16:57,NA,incomplete,false,NA,true,4,2,NA,left,E2_Q6_ansL.png,E2_Q5_ansL.png,within,NA,NaN,NA,left,1422,1,1,1059
dZNSKsp9,NA,NA,dZNSKsp9,2020-0188,2021-09-22,01:59:29,03:16:57,NA,incomplete,false,NA,true,4,3,NA,right,E32_Q4_ansR.png,E2_Q2_ansR.png,between,NA,NaN,NA,right,2081.9999999995343,1,0,6199
dZNSKsp9,NA,NA,dZNSKsp9,2020-0188,2021-09-22,01:59:29,03:16:57,NA,incomplete,false,NA,true,4,4,NA,right,E6_Q8_ansL.png,E6_Q9_ansL.png,within,NA,NaN,NA,left,3910.0000000004657,0,0,952
dZNSKsp9,NA,NA,dZNSKsp9,2020-0188,2021-09-22,01:59:29,03:16:57,NA,incomplete,false,NA,true,4,5,NA,left,E2_Q1_ansL.png,E2_Q3_ansR.png,within,NA,NaN,NA,left,1528.0000000004657,1,1,906
dZNSKsp9,NA,NA,dZNSKsp9,2020-0188,2021-09-22,01:59:29,03:16:57,NA,incomplete,false,NA,true,4,6,NA,right,E6_Q10_ansL.png,E6_Q4_ansR.png,within,NA,NaN,NA,right,9773,1,1,1050
dZNSKsp9,NA,NA,dZNSKsp9,2020-0188,2021-09-22,01:59:29,03:16:57,NA,incomplete,false,NA,true,4,7,NA,right,E2_Q2_ansR.png,E2_Q9_ansL.png,within,NA,NaN,NA,right,1899,1,0,1152
dZNSKsp9,NA,NA,dZNSKsp9,2020-0188,2021-09-22,01:59:29,03:16:57,NA,incomplete,false,NA,true,4,8,NA,right,E32_Q8_ansL.png,E32_Q5_ansR.png,within,NA,NaN,NA,right,1772,1,1,1358
dZNSKsp9,NA,NA,dZNSKsp9,2020-0188,2021-09-22,01:59:29,03:16:57,NA,incomplete,false,NA,true,4,9,NA,right,E32_Q7_ansL.png,E32_Q3_ansR.png,within,NA,NaN,NA,right,2360,1,1,1009
dZNSKsp9,NA,NA,dZNSKsp9,2020-0188,2021-09-22,01:59:29,03:16:57,NA,incomplete,false,NA,true,4,10,NA,left,E6_Q10_ansL.png,E2_Q7_ansR.png,between,NA,NaN,NA,left,1973.9999999995343,1,1,1820
dZNSKsp9,NA,NA,dZNSKsp9,2020-0188,2021-09-22,01:59:29,03:16:57,NA,incomplete,false,NA,true,4,11,NA,left,E2_Q5_ansL.png,E32_Q1_ansL.png,between,NA,NaN,NA,left,3456,1,2,2190.0000000004657
dZNSKsp9,NA,NA,dZNSKsp9,2020-0188,2021-09-22,01:59:29,03:16:57,NA,incomplete,false,NA,true,4,12,NA,right,E6_Q6_ansR.png,E6_Q7_ansL.png,within,NA,NaN,NA,right,1789,1,1,2671
dZNSKsp9,NA,NA,dZNSKsp9,2020-0188,2021-09-22,01:59:29,03:16:57,NA,incomplete,false,NA,true,4,13,NA,right,E32_Q2_ansL.png,E32_Q10_ansL.png,within,NA,NaN,NA,left,6715,0,1,1305
dZNSKsp9,NA,NA,dZNSKsp9,2020-0188,2021-09-22,01:59:29,03:16:57,NA,incomplete,false,NA,true,4,14,NA,left,E32_Q9_ansR.png,E32_Q3_ansR.png,within,NA,NaN,NA,left,1959,1,1,1175
dZNSKsp9,NA,NA,dZNSKsp9,2020-0188,2021-09-22,01:59:29,03:16:57,NA,incomplete,false,NA,true,4,15,NA,left,E6_Q2_ansL.png,E2_Q1_ansL.png,between,NA,NaN,NA,left,1966,1,1,995
dZNSKsp9,NA,NA,dZNSKsp9,2020-0188,2021-09-22,01:59:29,03:16:57,NA,incomplete,false,NA,true,4,16,NA,right,E2_Q10_ansL.png,E2_Q7_ansR.png,within,NA,NaN,NA,right,1561,1,2,981
dZNSKsp9,NA,NA,dZNSKsp9,2020-0188,2021-09-22,01:59:29,03:16:57,NA,incomplete,false,NA,true,4,17,NA,left,E2_Q3_ansR.png,E2_Q8_ansR.png,within,NA,NaN,NA,right,3086,0,1,864
dZNSKsp9,NA,NA,dZNSKsp9,2020-0188,2021-09-22,01:59:29,03:16:57,NA,incomplete,false,NA,true,4,18,NA,left,E2_Q10_ansL.png,E2_Q6_ansL.png,within,NA,NaN,NA,left,2676,1,1,974
dZNSKsp9,NA,NA,dZNSKsp9,2020-0188,2021-09-22,01:59:29,03:16:57,NA,incomplete,false,NA,true,4,19,NA,right,E6_Q5_ansR.png,E6_Q8_ansL.png,within,NA,NaN,NA,right,3047,1,1,1075
dZNSKsp9,NA,NA,dZNSKsp9,2020-0188,2021-09-22,01:59:29,03:16:57,NA,incomplete,false,NA,true,4,20,NA,right,E6_Q1_ansL.png,E6_Q6_ansR.png,within,NA,NaN,NA,left,2657,0,0,2001
dZNSKsp9,NA,NA,dZNSKsp9,2020-0188,2021-09-22,01:59:29,03:16:57,NA,incomplete,false,NA,true,4,21,NA,left,E32_Q4_ansR.png,E32_Q9_ansR.png,within,NA,NaN,NA,left,1177,1,1,1700
dZNSKsp9,NA,NA,dZNSKsp9,2020-0188,2021-09-22,01:59:29,03:16:57,NA,incomplete,false,NA,true,4,22,NA,right,E2_Q4_ansL.png,E6_Q5_ansR.png,between,NA,NaN,NA,right,1843.9999999995343,1,2,1671
dZNSKsp9,NA,NA,dZNSKsp9,2020-0188,2021-09-22,01:59:29,03:16:57,NA,incomplete,false,NA,true,4,23,NA,left,E2_Q8_ansR.png,E32_Q5_ansR.png,between,NA,NaN,NA,left,1770,1,2,1501
dZNSKsp9,NA,NA,dZNSKsp9,2020-0188,2021-09-22,01:59:29,03:16:57,NA,incomplete,false,NA,true,4,24,NA,left,E6_Q3_ansR.png,E6_Q4_ansR.png,within,NA,NaN,NA,left,1864.0000000004657,1,1,1030
dZNSKsp9,NA,NA,dZNSKsp9,2020-0188,2021-09-22,01:59:29,03:16:57,NA,incomplete,false,NA,true,4,25,NA,left,E6_Q1_ansL.png,E6_Q2_ansL.png,within,NA,NaN,NA,left,2172.0000000004657,1,1,1642.0000000004657
dZNSKsp9,NA,NA,dZNSKsp9,2020-0188,2021-09-22,01:59:29,03:16:57,NA,incomplete,false,NA,true,4,26,NA,right,E32_Q10_ansL.png,E32_Q1_ansL.png,within,NA,NaN,NA,left,2264.0000000004657,0,1,1411
dZNSKsp9,NA,NA,dZNSKsp9,2020-0188,2021-09-22,01:59:29,03:16:57,NA,incomplete,false,true,NA,5,0,E30_Q3_ansL.png,left,NA,NA,NA,left,2491,true,NA,NA,NA,NA,NA
dZNSKsp9,NA,NA,dZNSKsp9,2020-0188,2021-09-22,01:59:29,03:16:57,NA,incomplete,false,true,NA,5,1,E30_Q4_ansL.png,left,NA,NA,NA,left,2643,true,NA,NA,NA,NA,NA
dZNSKsp9,NA,NA,dZNSKsp9,2020-0188,2021-09-22,01:59:29,03:16:57,NA,incomplete,false,true,NA,5,2,E30_Q1_ansL.png,left,NA,NA,NA,left,2065,true,NA,NA,NA,NA,NA
dZNSKsp9,NA,NA,dZNSKsp9,2020-0188,2021-09-22,01:59:29,03:16:57,NA,incomplete,false,true,NA,5,3,E30_Q2_ansL.png,left,NA,NA,NA,left,2962,true,NA,NA,NA,NA,NA
dZNSKsp9,NA,NA,dZNSKsp9,2020-0188,2021-09-22,01:59:29,03:16:57,NA,incomplete,false,true,NA,5,4,E30_Q9_ansL.png,left,NA,NA,NA,left,2150,true,NA,NA,NA,NA,NA
dZNSKsp9,NA,NA,dZNSKsp9,2020-0188,2021-09-22,01:59:29,03:16:57,NA,incomplete,false,true,NA,5,5,E30_Q10_ansR.png,right,NA,NA,NA,right,1877.99999999953,true,NA,NA,NA,NA,NA
dZNSKsp9,NA,NA,dZNSKsp9,2020-0188,2021-09-22,01:59:29,03:16:57,NA,incomplete,false,true,NA,5,6,E30_Q7_ansL.png,left,NA,NA,NA,right,1978.99999999953,false,NA,NA,NA,NA,NA
dZNSKsp9,NA,NA,dZNSKsp9,2020-0188,2021-09-22,01:59:29,03:16:57,NA,incomplete,false,true,NA,5,7,E30_Q8_ansL.png,left,NA,NA,NA,left,2399,true,NA,NA,NA,NA,NA
dZNSKsp9,NA,NA,dZNSKsp9,2020-0188,2021-09-22,01:59:29,03:16:57,NA,incomplete,false,true,NA,5,8,E30_Q5_ansR.png,right,NA,NA,NA,right,1780.00000000047,true,NA,NA,NA,NA,NA
dZNSKsp9,NA,NA,dZNSKsp9,2020-0188,2021-09-22,01:59:29,03:16:57,NA,incomplete,false,true,NA,5,9,E30_Q6_ansR.png,right,NA,NA,NA,right,1510,true,NA,NA,NA,NA,NA
dZNSKsp9,NA,NA,dZNSKsp9,2020-0188,2021-09-22,01:59:29,03:16:57,NA,incomplete,false,true,NA,5,10,E4_Q6_ansR.png,right,NA,NA,NA,right,1791,true,NA,NA,NA,NA,NA
dZNSKsp9,NA,NA,dZNSKsp9,2020-0188,2021-09-22,01:59:29,03:16:57,NA,incomplete,false,true,NA,5,11,E4_Q8_ansR.png,right,NA,NA,NA,right,1392,true,NA,NA,NA,NA,NA
dZNSKsp9,NA,NA,dZNSKsp9,2020-0188,2021-09-22,01:59:29,03:16:57,NA,incomplete,false,true,NA,5,12,E4_Q1_ansL.png,left,NA,NA,NA,left,1043.99999999953,true,NA,NA,NA,NA,NA
dZNSKsp9,NA,NA,dZNSKsp9,2020-0188,2021-09-22,01:59:29,03:16:57,NA,incomplete,false,true,NA,5,13,E4_Q2_ansL.png,left,NA,NA,NA,left,1624,true,NA,NA,NA,NA,NA
dZNSKsp9,NA,NA,dZNSKsp9,2020-0188,2021-09-22,01:59:29,03:16:57,NA,incomplete,false,true,NA,5,14,E4_Q3_ansL.png,left,NA,NA,NA,left,2027,true,NA,NA,NA,NA,NA
dZNSKsp9,NA,NA,dZNSKsp9,2020-0188,2021-09-22,01:59:29,03:16:57,NA,incomplete,false,true,NA,5,15,E4_Q4_ansL.png,left,NA,NA,NA,left,1771,true,NA,NA,NA,NA,NA
dZNSKsp9,NA,NA,dZNSKsp9,2020-0188,2021-09-22,01:59:29,03:16:57,NA,incomplete,false,true,NA,5,16,E4_Q9_ansL.png,left,NA,NA,NA,left,1026,true,NA,NA,NA,NA,NA
dZNSKsp9,NA,NA,dZNSKsp9,2020-0188,2021-09-22,01:59:29,03:16:57,NA,incomplete,false,true,NA,5,17,E4_Q10_ansR.png,right,NA,NA,NA,right,1253,true,NA,NA,NA,NA,NA
dZNSKsp9,NA,NA,dZNSKsp9,2020-0188,2021-09-22,01:59:29,03:16:57,NA,incomplete,false,true,NA,5,18,E4_Q7_ansR.png,right,NA,NA,NA,right,2060,true,NA,NA,NA,NA,NA
dZNSKsp9,NA,NA,dZNSKsp9,2020-0188,2021-09-22,01:59:29,03:16:57,NA,incomplete,false,true,NA,5,19,E4_Q5_ansR.png,right,NA,NA,NA,right,1106,true,NA,NA,NA,NA,NA
dZNSKsp9,NA,NA,dZNSKsp9,2020-0188,2021-09-22,01:59:29,03:16:57,NA,incomplete,false,true,NA,5,20,E8_Q1_ansR.png,right,NA,NA,NA,right,1284,true,NA,NA,NA,NA,NA
dZNSKsp9,NA,NA,dZNSKsp9,2020-0188,2021-09-22,01:59:29,03:16:57,NA,incomplete,false,true,NA,5,21,E8_Q8_ansR.png,right,NA,NA,NA,right,895,true,NA,NA,NA,NA,NA
dZNSKsp9,NA,NA,dZNSKsp9,2020-0188,2021-09-22,01:59:29,03:16:57,NA,incomplete,false,true,NA,5,22,E8_Q7_ansR.png,right,NA,NA,NA,right,1245,true,NA,NA,NA,NA,NA
dZNSKsp9,NA,NA,dZNSKsp9,2020-0188,2021-09-22,01:59:29,03:16:57,NA,incomplete,false,true,NA,5,23,E8_Q5_ansL.png,left,NA,NA,NA,left,1570,true,NA,NA,NA,NA,NA
dZNSKsp9,NA,NA,dZNSKsp9,2020-0188,2021-09-22,01:59:29,03:16:57,NA,incomplete,false,true,NA,5,24,E8_Q9_ansL.png,left,NA,NA,NA,left,1063.99999999953,true,NA,NA,NA,NA,NA
dZNSKsp9,NA,NA,dZNSKsp9,2020-0188,2021-09-22,01:59:29,03:16:57,NA,incomplete,false,true,NA,5,25,E8_Q4_ansL.png,left,NA,NA,NA,left,1252,true,NA,NA,NA,NA,NA
dZNSKsp9,NA,NA,dZNSKsp9,2020-0188,2021-09-22,01:59:29,03:16:57,NA,incomplete,false,true,NA,5,26,E8_Q2_ansR.png,right,NA,NA,NA,right,1612,true,NA,NA,NA,NA,NA
dZNSKsp9,NA,NA,dZNSKsp9,2020-0188,2021-09-22,01:59:29,03:16:57,NA,incomplete,false,true,NA,5,27,E8_Q10_ansR.png,right,NA,NA,NA,right,999,true,NA,NA,NA,NA,NA
dZNSKsp9,NA,NA,dZNSKsp9,2020-0188,2021-09-22,01:59:29,03:16:57,NA,incomplete,false,true,NA,5,28,E8_Q6_ansL.png,left,NA,NA,NA,left,1254,true,NA,NA,NA,NA,NA
dZNSKsp9,NA,NA,dZNSKsp9,2020-0188,2021-09-22,01:59:29,03:16:57,NA,incomplete,false,true,NA,5,29,E8_Q3_ansL.png,left,NA,NA,NA,left,1452,true,NA,NA,NA,NA,NA
dZNSKsp9,NA,NA,dZNSKsp9,2020-0188,2021-09-22,01:59:29,03:16:57,NA,incomplete,false,NA,true,5,0,NA,right,E4_Q7_ansR.png,E4_Q4_ansL.png,within,NA,NaN,NA,right,2832,1,1,1177
dZNSKsp9,NA,NA,dZNSKsp9,2020-0188,2021-09-22,01:59:29,03:16:57,NA,incomplete,false,NA,true,5,1,NA,left,E8_Q9_ansL.png,E8_Q10_ansR.png,within,NA,NaN,NA,left,4047,1,0,1574.0000000004657
dZNSKsp9,NA,NA,dZNSKsp9,2020-0188,2021-09-22,01:59:29,03:16:57,NA,incomplete,false,NA,true,5,2,NA,left,E30_Q5_ansR.png,E4_Q8_ansR.png,between,NA,NaN,NA,left,3717,1,1,1569
dZNSKsp9,NA,NA,dZNSKsp9,2020-0188,2021-09-22,01:59:29,03:16:57,NA,incomplete,false,NA,true,5,3,NA,right,E8_Q4_ansL.png,E8_Q7_ansR.png,within,NA,NaN,NA,right,2208.0000000004657,1,0,963
dZNSKsp9,NA,NA,dZNSKsp9,2020-0188,2021-09-22,01:59:29,03:16:57,NA,incomplete,false,NA,true,5,4,NA,right,E30_Q8_ansL.png,E30_Q9_ansL.png,within,NA,NaN,NA,right,2289,1,1,903
dZNSKsp9,NA,NA,dZNSKsp9,2020-0188,2021-09-22,01:59:29,03:16:57,NA,incomplete,false,NA,true,5,5,NA,right,E4_Q4_ansL.png,E4_Q1_ansL.png,within,NA,NaN,NA,right,4314.000000000466,1,0,911
dZNSKsp9,NA,NA,dZNSKsp9,2020-0188,2021-09-22,01:59:29,03:16:57,NA,incomplete,false,NA,true,5,6,NA,right,E4_Q10_ansR.png,E4_Q3_ansL.png,within,NA,NaN,NA,right,2009.9999999995343,1,1,1171
dZNSKsp9,NA,NA,dZNSKsp9,2020-0188,2021-09-22,01:59:29,03:16:57,NA,incomplete,false,NA,true,5,7,NA,left,E4_Q8_ansR.png,E4_Q3_ansL.png,within,NA,NaN,NA,left,1479,1,1,946
dZNSKsp9,NA,NA,dZNSKsp9,2020-0188,2021-09-22,01:59:29,03:16:57,NA,incomplete,false,NA,true,5,8,NA,right,E8_Q5_ansL.png,E8_Q1_ansR.png,within,NA,NaN,NA,right,1477.9999999995343,1,1,1490.0000000004657
dZNSKsp9,NA,NA,dZNSKsp9,2020-0188,2021-09-22,01:59:29,03:16:57,NA,incomplete,false,NA,true,5,9,NA,left,E8_Q8_ansR.png,E8_Q9_ansL.png,within,NA,NaN,NA,left,2179.9999999995343,1,1,1672.9999999995343
dZNSKsp9,NA,NA,dZNSKsp9,2020-0188,2021-09-22,01:59:29,03:16:57,NA,incomplete,false,NA,true,5,10,NA,right,E4_Q6_ansR.png,E30_Q8_ansL.png,between,NA,NaN,NA,right,7427,1,1,1375
dZNSKsp9,NA,NA,dZNSKsp9,2020-0188,2021-09-22,01:59:29,03:16:57,NA,incomplete,false,NA,true,5,11,NA,left,E4_Q10_ansR.png,E8_Q1_ansR.png,between,NA,NaN,NA,left,1611,1,2,2960
dZNSKsp9,NA,NA,dZNSKsp9,2020-0188,2021-09-22,01:59:29,03:16:57,NA,incomplete,false,NA,true,5,12,NA,right,E4_Q1_ansL.png,E30_Q6_ansR.png,between,NA,NaN,NA,right,1261,1,1,1174
dZNSKsp9,NA,NA,dZNSKsp9,2020-0188,2021-09-22,01:59:29,03:16:57,NA,incomplete,false,NA,true,5,13,NA,left,E4_Q6_ansR.png,E4_Q2_ansL.png,within,NA,NaN,NA,left,2312,1,1,1505
dZNSKsp9,NA,NA,dZNSKsp9,2020-0188,2021-09-22,01:59:29,03:16:57,NA,incomplete,false,NA,true,5,14,NA,left,E30_Q1_ansL.png,E30_Q10_ansR.png,within,NA,NaN,NA,left,1439,1,1,995.9999999995343
dZNSKsp9,NA,NA,dZNSKsp9,2020-0188,2021-09-22,01:59:29,03:16:57,NA,incomplete,false,NA,true,5,15,NA,left,E8_Q5_ansL.png,E8_Q2_ansR.png,within,NA,NaN,NA,left,1481,1,1,944
dZNSKsp9,NA,NA,dZNSKsp9,2020-0188,2021-09-22,01:59:29,03:16:57,NA,incomplete,false,NA,true,5,16,NA,left,E8_Q2_ansR.png,E8_Q3_ansL.png,within,NA,NaN,NA,left,1712,1,1,1460.0000000004657
dZNSKsp9,NA,NA,dZNSKsp9,2020-0188,2021-09-22,01:59:29,03:16:57,NA,incomplete,false,NA,true,5,17,NA,left,E30_Q4_ansL.png,E30_Q9_ansL.png,within,NA,NaN,NA,left,1443,1,1,1084
dZNSKsp9,NA,NA,dZNSKsp9,2020-0188,2021-09-22,01:59:29,03:16:57,NA,incomplete,false,NA,true,5,18,NA,right,E8_Q7_ansR.png,E4_Q5_ansR.png,between,NA,NaN,NA,right,1463,1,3,2163.9999999995343
dZNSKsp9,NA,NA,dZNSKsp9,2020-0188,2021-09-22,01:59:29,03:16:57,NA,incomplete,false,NA,true,5,19,NA,right,E8_Q6_ansL.png,E8_Q4_ansL.png,within,NA,NaN,NA,right,3094,1,1,1505
dZNSKsp9,NA,NA,dZNSKsp9,2020-0188,2021-09-22,01:59:29,03:16:57,NA,incomplete,false,NA,true,5,20,NA,left,E30_Q10_ansR.png,E30_Q5_ansR.png,within,NA,NaN,NA,left,1945,1,1,3500
dZNSKsp9,NA,NA,dZNSKsp9,2020-0188,2021-09-22,01:59:29,03:16:57,NA,incomplete,false,NA,true,5,21,NA,left,E30_Q3_ansL.png,E30_Q2_ansL.png,within,NA,NaN,NA,left,1355,1,1,1029
dZNSKsp9,NA,NA,dZNSKsp9,2020-0188,2021-09-22,01:59:29,03:16:57,NA,incomplete,false,NA,true,5,22,NA,left,E30_Q7_ansL.png,E30_Q6_ansR.png,within,NA,NaN,NA,left,1812,1,0,4281.000000000466
dZNSKsp9,NA,NA,dZNSKsp9,2020-0188,2021-09-22,01:59:29,03:16:57,NA,incomplete,false,NA,true,5,23,NA,right,E4_Q5_ansR.png,E4_Q9_ansL.png,within,NA,NaN,NA,left,6633,0,1,2444
dZNSKsp9,NA,NA,dZNSKsp9,2020-0188,2021-09-22,01:59:29,03:16:57,NA,incomplete,false,NA,true,5,24,NA,right,E4_Q9_ansL.png,E4_Q2_ansL.png,within,NA,NaN,NA,right,2029.9999999995343,1,1,1270.9999999995343
dZNSKsp9,NA,NA,dZNSKsp9,2020-0188,2021-09-22,01:59:29,03:16:57,NA,incomplete,false,NA,true,5,25,NA,left,E30_Q2_ansL.png,E30_Q7_ansL.png,within,NA,NaN,NA,right,1761,0,0,1160
dZNSKsp9,NA,NA,dZNSKsp9,2020-0188,2021-09-22,01:59:29,03:16:57,NA,incomplete,false,NA,true,5,26,NA,right,E8_Q8_ansR.png,E4_Q7_ansR.png,between,NA,NaN,NA,right,1418.0000000004657,1,2,1284
dZNSKsp9,NA,NA,dZNSKsp9,2020-0188,2021-09-22,01:59:29,03:16:57,NA,incomplete,false,true,NA,6,0,E16_Q5_ansL.png,left,NA,NA,NA,left,1354,true,NA,NA,NA,NA,NA
dZNSKsp9,NA,NA,dZNSKsp9,2020-0188,2021-09-22,01:59:29,03:16:57,NA,incomplete,false,true,NA,6,1,E16_Q6_ansL.png,left,NA,NA,NA,left,782,true,NA,NA,NA,NA,NA
dZNSKsp9,NA,NA,dZNSKsp9,2020-0188,2021-09-22,01:59:29,03:16:57,NA,incomplete,false,true,NA,6,2,E16_Q3_ansL.png,left,NA,NA,NA,right,634,false,NA,NA,NA,NA,NA
dZNSKsp9,NA,NA,dZNSKsp9,2020-0188,2021-09-22,01:59:29,03:16:57,NA,incomplete,false,true,NA,6,3,E16_Q9_ansL.png,left,NA,NA,NA,left,912,true,NA,NA,NA,NA,NA
dZNSKsp9,NA,NA,dZNSKsp9,2020-0188,2021-09-22,01:59:29,03:16:57,NA,incomplete,false,true,NA,6,4,E16_Q4_ansL.png,left,NA,NA,NA,left,888,true,NA,NA,NA,NA,NA
dZNSKsp9,NA,NA,dZNSKsp9,2020-0188,2021-09-22,01:59:29,03:16:57,NA,incomplete,false,true,NA,6,5,E16_Q8_ansR.png,right,NA,NA,NA,right,1351,true,NA,NA,NA,NA,NA
dZNSKsp9,NA,NA,dZNSKsp9,2020-0188,2021-09-22,01:59:29,03:16:57,NA,incomplete,false,true,NA,6,6,E16_Q10_ansR.png,right,NA,NA,NA,right,999,true,NA,NA,NA,NA,NA
dZNSKsp9,NA,NA,dZNSKsp9,2020-0188,2021-09-22,01:59:29,03:16:57,NA,incomplete,false,true,NA,6,7,E16_Q7_ansR.png,right,NA,NA,NA,right,801,true,NA,NA,NA,NA,NA
dZNSKsp9,NA,NA,dZNSKsp9,2020-0188,2021-09-22,01:59:29,03:16:57,NA,incomplete,false,true,NA,6,8,E16_Q2_ansR.png,right,NA,NA,NA,right,1145,true,NA,NA,NA,NA,NA
dZNSKsp9,NA,NA,dZNSKsp9,2020-0188,2021-09-22,01:59:29,03:16:57,NA,incomplete,false,true,NA,6,9,E16_Q1_ansR.png,right,NA,NA,NA,right,780,true,NA,NA,NA,NA,NA
dZNSKsp9,NA,NA,dZNSKsp9,2020-0188,2021-09-22,01:59:29,03:16:57,NA,incomplete,false,true,NA,6,10,E27_Q4_ansR.png,right,NA,NA,NA,right,1037,true,NA,NA,NA,NA,NA
dZNSKsp9,NA,NA,dZNSKsp9,2020-0188,2021-09-22,01:59:29,03:16:57,NA,incomplete,false,true,NA,6,11,E27_Q8_ansL.png,left,NA,NA,NA,left,692,true,NA,NA,NA,NA,NA
dZNSKsp9,NA,NA,dZNSKsp9,2020-0188,2021-09-22,01:59:29,03:16:57,NA,incomplete,false,true,NA,6,12,E27_Q10_ansL.png,left,NA,NA,NA,left,1180.00000000047,true,NA,NA,NA,NA,NA
dZNSKsp9,NA,NA,dZNSKsp9,2020-0188,2021-09-22,01:59:29,03:16:57,NA,incomplete,false,true,NA,6,13,E27_Q9_ansR.png,right,NA,NA,NA,right,606,true,NA,NA,NA,NA,NA
dZNSKsp9,NA,NA,dZNSKsp9,2020-0188,2021-09-22,01:59:29,03:16:57,NA,incomplete,false,true,NA,6,14,E27_Q5_ansR.png,right,NA,NA,NA,right,1062,true,NA,NA,NA,NA,NA
dZNSKsp9,NA,NA,dZNSKsp9,2020-0188,2021-09-22,01:59:29,03:16:57,NA,incomplete,false,true,NA,6,15,E27_Q1_ansL.png,left,NA,NA,NA,left,975,true,NA,NA,NA,NA,NA
dZNSKsp9,NA,NA,dZNSKsp9,2020-0188,2021-09-22,01:59:29,03:16:57,NA,incomplete,false,true,NA,6,16,E27_Q3_ansR.png,right,NA,NA,NA,right,869.000000000466,true,NA,NA,NA,NA,NA
dZNSKsp9,NA,NA,dZNSKsp9,2020-0188,2021-09-22,01:59:29,03:16:57,NA,incomplete,false,true,NA,6,17,E27_Q6_ansR.png,right,NA,NA,NA,right,826,true,NA,NA,NA,NA,NA
dZNSKsp9,NA,NA,dZNSKsp9,2020-0188,2021-09-22,01:59:29,03:16:57,NA,incomplete,false,true,NA,6,18,E27_Q2_ansL.png,left,NA,NA,NA,left,796.999999999534,true,NA,NA,NA,NA,NA
dZNSKsp9,NA,NA,dZNSKsp9,2020-0188,2021-09-22,01:59:29,03:16:57,NA,incomplete,false,true,NA,6,19,E27_Q7_ansL.png,left,NA,NA,NA,left,903,true,NA,NA,NA,NA,NA
dZNSKsp9,NA,NA,dZNSKsp9,2020-0188,2021-09-22,01:59:29,03:16:57,NA,incomplete,false,true,NA,6,20,E33_Q6_ansR.png,right,NA,NA,NA,right,1966,true,NA,NA,NA,NA,NA
dZNSKsp9,NA,NA,dZNSKsp9,2020-0188,2021-09-22,01:59:29,03:16:57,NA,incomplete,false,true,NA,6,21,E33_Q5_ansR.png,right,NA,NA,NA,right,1626,true,NA,NA,NA,NA,NA
dZNSKsp9,NA,NA,dZNSKsp9,2020-0188,2021-09-22,01:59:29,03:16:57,NA,incomplete,false,true,NA,6,22,E33_Q9_ansR.png,right,NA,NA,NA,right,1761,true,NA,NA,NA,NA,NA
dZNSKsp9,NA,NA,dZNSKsp9,2020-0188,2021-09-22,01:59:29,03:16:57,NA,incomplete,false,true,NA,6,23,E33_Q7_ansL.png,left,NA,NA,NA,left,3355,true,NA,NA,NA,NA,NA
dZNSKsp9,NA,NA,dZNSKsp9,2020-0188,2021-09-22,01:59:29,03:16:57,NA,incomplete,false,true,NA,6,24,E33_Q1_ansL.png,left,NA,NA,NA,left,2245,true,NA,NA,NA,NA,NA
dZNSKsp9,NA,NA,dZNSKsp9,2020-0188,2021-09-22,01:59:29,03:16:57,NA,incomplete,false,true,NA,6,25,E33_Q4_ansR.png,right,NA,NA,NA,right,1278,true,NA,NA,NA,NA,NA
dZNSKsp9,NA,NA,dZNSKsp9,2020-0188,2021-09-22,01:59:29,03:16:57,NA,incomplete,false,true,NA,6,26,E33_Q2_ansL.png,left,NA,NA,NA,left,1271,true,NA,NA,NA,NA,NA
dZNSKsp9,NA,NA,dZNSKsp9,2020-0188,2021-09-22,01:59:29,03:16:57,NA,incomplete,false,true,NA,6,27,E33_Q3_ansR.png,right,NA,NA,NA,left,2202,false,NA,NA,NA,NA,NA
dZNSKsp9,NA,NA,dZNSKsp9,2020-0188,2021-09-22,01:59:29,03:16:57,NA,incomplete,false,true,NA,6,28,E33_Q8_ansL.png,left,NA,NA,NA,left,2125.99999999953,true,NA,NA,NA,NA,NA
dZNSKsp9,NA,NA,dZNSKsp9,2020-0188,2021-09-22,01:59:29,03:16:57,NA,incomplete,false,true,NA,6,29,E33_Q10_ansL.png,left,NA,NA,NA,left,2301,true,NA,NA,NA,NA,NA
dZNSKsp9,NA,NA,dZNSKsp9,2020-0188,2021-09-22,01:59:29,03:16:57,NA,incomplete,false,NA,true,6,0,NA,left,E33_Q2_ansL.png,E33_Q10_ansL.png,within,NA,NaN,NA,left,1921,1,0,3012
dZNSKsp9,NA,NA,dZNSKsp9,2020-0188,2021-09-22,01:59:29,03:16:57,NA,incomplete,false,NA,true,6,1,NA,right,E27_Q2_ansL.png,E27_Q1_ansL.png,within,NA,NaN,NA,left,2419,0,1,3638
dZNSKsp9,NA,NA,dZNSKsp9,2020-0188,2021-09-22,01:59:29,03:16:57,NA,incomplete,false,NA,true,6,2,NA,left,E27_Q8_ansL.png,E27_Q5_ansR.png,within,NA,NaN,NA,left,1259,1,1,2133
dZNSKsp9,NA,NA,dZNSKsp9,2020-0188,2021-09-22,01:59:29,03:16:57,NA,incomplete,false,NA,true,6,3,NA,right,E16_Q1_ansR.png,E16_Q10_ansR.png,within,NA,NaN,NA,right,5110.999999999534,1,0,1721
dZNSKsp9,NA,NA,dZNSKsp9,2020-0188,2021-09-22,01:59:29,03:16:57,NA,incomplete,false,NA,true,6,4,NA,right,E33_Q7_ansL.png,E33_Q6_ansR.png,within,NA,NaN,NA,right,1974.0000000004657,1,0,1242
dZNSKsp9,NA,NA,dZNSKsp9,2020-0188,2021-09-22,01:59:29,03:16:57,NA,incomplete,false,NA,true,6,5,NA,right,E33_Q8_ansL.png,E33_Q4_ansR.png,within,NA,NaN,NA,right,2685,1,0,2138
dZNSKsp9,NA,NA,dZNSKsp9,2020-0188,2021-09-22,01:59:29,03:16:57,NA,incomplete,false,NA,true,6,6,NA,left,E27_Q2_ansL.png,E33_Q5_ansR.png,between,NA,NaN,NA,left,3780,1,1,1437
dZNSKsp9,NA,NA,dZNSKsp9,2020-0188,2021-09-22,01:59:29,03:16:57,NA,incomplete,false,NA,true,6,7,NA,left,E27_Q9_ansR.png,E27_Q3_ansR.png,within,NA,NaN,NA,left,1803,1,1,3264
dZNSKsp9,NA,NA,dZNSKsp9,2020-0188,2021-09-22,01:59:29,03:16:57,NA,incomplete,false,NA,true,6,8,NA,right,E33_Q3_ansR.png,E33_Q1_ansL.png,within,NA,NaN,NA,right,4939.000000000466,1,1,1173
dZNSKsp9,NA,NA,dZNSKsp9,2020-0188,2021-09-22,01:59:29,03:16:57,NA,incomplete,false,NA,true,6,9,NA,left,E33_Q5_ansR.png,E33_Q1_ansL.png,within,NA,NaN,NA,left,1965,1,0,2263.0000000004657
dZNSKsp9,NA,NA,dZNSKsp9,2020-0188,2021-09-22,01:59:29,03:16:57,NA,incomplete,false,NA,true,6,10,NA,right,E27_Q4_ansR.png,E16_Q7_ansR.png,between,NA,NaN,NA,right,5367,1,2,4209.999999999534
dZNSKsp9,NA,NA,dZNSKsp9,2020-0188,2021-09-22,01:59:29,03:16:57,NA,incomplete,false,NA,true,6,11,NA,right,E27_Q9_ansR.png,E27_Q4_ansR.png,within,NA,NaN,NA,right,1890.9999999995343,1,1,900
dZNSKsp9,NA,NA,dZNSKsp9,2020-0188,2021-09-22,01:59:29,03:16:57,NA,incomplete,false,NA,true,6,12,NA,left,E16_Q6_ansL.png,E16_Q4_ansL.png,within,NA,NaN,NA,left,1805,1,0,1236
dZNSKsp9,NA,NA,dZNSKsp9,2020-0188,2021-09-22,01:59:29,03:16:57,NA,incomplete,false,NA,true,6,13,NA,left,E16_Q5_ansL.png,E16_Q9_ansL.png,within,NA,NaN,NA,left,3077,1,0,3779
dZNSKsp9,NA,NA,dZNSKsp9,2020-0188,2021-09-22,01:59:29,03:16:57,NA,incomplete,false,NA,true,6,14,NA,left,E16_Q4_ansL.png,E16_Q7_ansR.png,within,NA,NaN,NA,left,3332,1,0,1541.9999999995343
dZNSKsp9,NA,NA,dZNSKsp9,2020-0188,2021-09-22,01:59:29,03:16:57,NA,incomplete,false,NA,true,6,15,NA,right,E33_Q4_ansR.png,E33_Q9_ansR.png,within,NA,NaN,NA,right,2497,1,1,2726
dZNSKsp9,NA,NA,dZNSKsp9,2020-0188,2021-09-22,01:59:29,03:16:57,NA,incomplete,false,NA,true,6,16,NA,right,E16_Q8_ansR.png,E16_Q3_ansL.png,within,NA,NaN,NA,right,3047,1,1,1525.9999999995343
dZNSKsp9,NA,NA,dZNSKsp9,2020-0188,2021-09-22,01:59:29,03:16:57,NA,incomplete,false,NA,true,6,17,NA,right,E27_Q6_ansR.png,E27_Q5_ansR.png,within,NA,NaN,NA,left,7137,0,1,989
dZNSKsp9,NA,NA,dZNSKsp9,2020-0188,2021-09-22,01:59:29,03:16:57,NA,incomplete,false,NA,true,6,18,NA,right,E33_Q9_ansR.png,E27_Q7_ansL.png,between,NA,NaN,NA,right,1760,1,1,1954.9999999995343
dZNSKsp9,NA,NA,dZNSKsp9,2020-0188,2021-09-22,01:59:29,03:16:57,NA,incomplete,false,NA,true,6,19,NA,right,E16_Q10_ansR.png,E16_Q9_ansL.png,within,NA,NaN,NA,right,14209.000000000466,1,0,1594.9999999995343
dZNSKsp9,NA,NA,dZNSKsp9,2020-0188,2021-09-22,01:59:29,03:16:57,NA,incomplete,false,NA,true,6,20,NA,left,E33_Q7_ansL.png,E33_Q2_ansL.png,within,NA,NaN,NA,left,3105,1,0,1912
dZNSKsp9,NA,NA,dZNSKsp9,2020-0188,2021-09-22,01:59:29,03:16:57,NA,incomplete,false,NA,true,6,21,NA,left,E27_Q6_ansR.png,E33_Q6_ansR.png,between,NA,NaN,NA,left,5867,1,3,3103
dZNSKsp9,NA,NA,dZNSKsp9,2020-0188,2021-09-22,01:59:29,03:16:57,NA,incomplete,false,NA,true,6,22,NA,right,E27_Q1_ansL.png,E27_Q10_ansL.png,within,NA,NaN,NA,right,1747,1,1,1260
dZNSKsp9,NA,NA,dZNSKsp9,2020-0188,2021-09-22,01:59:29,03:16:57,NA,incomplete,false,NA,true,6,23,NA,left,E16_Q2_ansR.png,E27_Q8_ansL.png,between,NA,NaN,NA,left,1775,1,1,1643
dZNSKsp9,NA,NA,dZNSKsp9,2020-0188,2021-09-22,01:59:29,03:16:57,NA,incomplete,false,NA,true,6,24,NA,left,E27_Q3_ansR.png,E27_Q7_ansL.png,within,NA,NaN,NA,left,2260,1,1,1054.0000000004657
dZNSKsp9,NA,NA,dZNSKsp9,2020-0188,2021-09-22,01:59:29,03:16:57,NA,incomplete,false,NA,true,6,25,NA,right,E16_Q2_ansR.png,E16_Q8_ansR.png,within,NA,NaN,NA,right,3806.9999999995343,1,0,1174
dZNSKsp9,NA,NA,dZNSKsp9,2020-0188,2021-09-22,01:59:29,03:16:57,NA,incomplete,false,NA,true,6,26,NA,left,E16_Q1_ansR.png,E27_Q10_ansL.png,between,NA,NaN,NA,left,1655,1,2,1203
dZNSKsp9,NA,NA,dZNSKsp9,2020-0188,2021-09-22,01:59:29,03:16:57,NA,incomplete,false,true,NA,7,0,E12_Q9_ansR.png,right,NA,NA,NA,right,1479.00000000047,true,NA,NA,NA,NA,NA
dZNSKsp9,NA,NA,dZNSKsp9,2020-0188,2021-09-22,01:59:29,03:16:57,NA,incomplete,false,true,NA,7,1,E12_Q8_ansL.png,left,NA,NA,NA,right,1942,false,NA,NA,NA,NA,NA
dZNSKsp9,NA,NA,dZNSKsp9,2020-0188,2021-09-22,01:59:29,03:16:57,NA,incomplete,false,true,NA,7,2,E12_Q1_ansL.png,left,NA,NA,NA,left,1523.99999999953,true,NA,NA,NA,NA,NA
dZNSKsp9,NA,NA,dZNSKsp9,2020-0188,2021-09-22,01:59:29,03:16:57,NA,incomplete,false,true,NA,7,3,E12_Q4_ansR.png,right,NA,NA,NA,right,1340.00000000047,true,NA,NA,NA,NA,NA
dZNSKsp9,NA,NA,dZNSKsp9,2020-0188,2021-09-22,01:59:29,03:16:57,NA,incomplete,false,true,NA,7,4,E12_Q6_ansR.png,right,NA,NA,NA,right,1580.00000000047,true,NA,NA,NA,NA,NA
dZNSKsp9,NA,NA,dZNSKsp9,2020-0188,2021-09-22,01:59:29,03:16:57,NA,incomplete,false,true,NA,7,5,E12_Q3_ansR.png,right,NA,NA,NA,right,1065,true,NA,NA,NA,NA,NA
dZNSKsp9,NA,NA,dZNSKsp9,2020-0188,2021-09-22,01:59:29,03:16:57,NA,incomplete,false,true,NA,7,6,E12_Q2_ansL.png,left,NA,NA,NA,left,1514,true,NA,NA,NA,NA,NA
dZNSKsp9,NA,NA,dZNSKsp9,2020-0188,2021-09-22,01:59:29,03:16:57,NA,incomplete,false,true,NA,7,7,E12_Q7_ansL.png,left,NA,NA,NA,left,1201,true,NA,NA,NA,NA,NA
dZNSKsp9,NA,NA,dZNSKsp9,2020-0188,2021-09-22,01:59:29,03:16:57,NA,incomplete,false,true,NA,7,8,E12_Q10_ansL.png,left,NA,NA,NA,left,1392,true,NA,NA,NA,NA,NA
dZNSKsp9,NA,NA,dZNSKsp9,2020-0188,2021-09-22,01:59:29,03:16:57,NA,incomplete,false,true,NA,7,9,E12_Q5_ansR.png,right,NA,NA,NA,right,1321,true,NA,NA,NA,NA,NA
dZNSKsp9,NA,NA,dZNSKsp9,2020-0188,2021-09-22,01:59:29,03:16:57,NA,incomplete,false,true,NA,7,10,E21_Q4_ansR.png,right,NA,NA,NA,right,1365,true,NA,NA,NA,NA,NA
dZNSKsp9,NA,NA,dZNSKsp9,2020-0188,2021-09-22,01:59:29,03:16:57,NA,incomplete,false,true,NA,7,11,E21_Q7_ansL.png,left,NA,NA,NA,left,781,true,NA,NA,NA,NA,NA
dZNSKsp9,NA,NA,dZNSKsp9,2020-0188,2021-09-22,01:59:29,03:16:57,NA,incomplete,false,true,NA,7,12,E21_Q1_ansL.png,left,NA,NA,NA,left,920.999999999534,true,NA,NA,NA,NA,NA
dZNSKsp9,NA,NA,dZNSKsp9,2020-0188,2021-09-22,01:59:29,03:16:57,NA,incomplete,false,true,NA,7,13,E21_Q10_ansL.png,left,NA,NA,NA,left,819.999999999534,true,NA,NA,NA,NA,NA
dZNSKsp9,NA,NA,dZNSKsp9,2020-0188,2021-09-22,01:59:29,03:16:57,NA,incomplete,false,true,NA,7,14,E21_Q3_ansR.png,right,NA,NA,NA,right,1565.99999999953,true,NA,NA,NA,NA,NA
dZNSKsp9,NA,NA,dZNSKsp9,2020-0188,2021-09-22,01:59:29,03:16:57,NA,incomplete,false,true,NA,7,15,E21_Q6_ansR.png,right,NA,NA,NA,right,791,true,NA,NA,NA,NA,NA
dZNSKsp9,NA,NA,dZNSKsp9,2020-0188,2021-09-22,01:59:29,03:16:57,NA,incomplete,false,true,NA,7,16,E21_Q5_ansR.png,right,NA,NA,NA,right,775,true,NA,NA,NA,NA,NA
dZNSKsp9,NA,NA,dZNSKsp9,2020-0188,2021-09-22,01:59:29,03:16:57,NA,incomplete,false,true,NA,7,17,E21_Q9_ansR.png,right,NA,NA,NA,right,799,true,NA,NA,NA,NA,NA
dZNSKsp9,NA,NA,dZNSKsp9,2020-0188,2021-09-22,01:59:29,03:16:57,NA,incomplete,false,true,NA,7,18,E21_Q2_ansL.png,left,NA,NA,NA,left,842,true,NA,NA,NA,NA,NA
dZNSKsp9,NA,NA,dZNSKsp9,2020-0188,2021-09-22,01:59:29,03:16:57,NA,incomplete,false,true,NA,7,19,E21_Q8_ansL.png,left,NA,NA,NA,left,895,true,NA,NA,NA,NA,NA
dZNSKsp9,NA,NA,dZNSKsp9,2020-0188,2021-09-22,01:59:29,03:16:57,NA,incomplete,false,true,NA,7,20,E25_Q4_ansL.png,left,NA,NA,NA,left,2326,true,NA,NA,NA,NA,NA
dZNSKsp9,NA,NA,dZNSKsp9,2020-0188,2021-09-22,01:59:29,03:16:57,NA,incomplete,false,true,NA,7,21,E25_Q7_ansR.png,right,NA,NA,NA,right,1948,true,NA,NA,NA,NA,NA
dZNSKsp9,NA,NA,dZNSKsp9,2020-0188,2021-09-22,01:59:29,03:16:57,NA,incomplete,false,true,NA,7,22,E25_Q9_ansL.png,left,NA,NA,NA,left,2266,true,NA,NA,NA,NA,NA
dZNSKsp9,NA,NA,dZNSKsp9,2020-0188,2021-09-22,01:59:29,03:16:57,NA,incomplete,false,true,NA,7,23,E25_Q5_ansL.png,left,NA,NA,NA,left,2500,true,NA,NA,NA,NA,NA
dZNSKsp9,NA,NA,dZNSKsp9,2020-0188,2021-09-22,01:59:29,03:16:57,NA,incomplete,false,true,NA,7,24,E25_Q10_ansR.png,right,NA,NA,NA,right,2027.00000000047,true,NA,NA,NA,NA,NA
dZNSKsp9,NA,NA,dZNSKsp9,2020-0188,2021-09-22,01:59:29,03:16:57,NA,incomplete,false,true,NA,7,25,E25_Q3_ansL.png,left,NA,NA,NA,left,3111,true,NA,NA,NA,NA,NA
dZNSKsp9,NA,NA,dZNSKsp9,2020-0188,2021-09-22,01:59:29,03:16:57,NA,incomplete,false,true,NA,7,26,E25_Q8_ansR.png,right,NA,NA,NA,left,3238.00000000047,false,NA,NA,NA,NA,NA
dZNSKsp9,NA,NA,dZNSKsp9,2020-0188,2021-09-22,01:59:29,03:16:57,NA,incomplete,false,true,NA,7,27,E25_Q6_ansL.png,left,NA,NA,NA,left,1302.00000000047,true,NA,NA,NA,NA,NA
dZNSKsp9,NA,NA,dZNSKsp9,2020-0188,2021-09-22,01:59:29,03:16:57,NA,incomplete,false,true,NA,7,28,E25_Q2_ansR.png,right,NA,NA,NA,right,1442,true,NA,NA,NA,NA,NA
dZNSKsp9,NA,NA,dZNSKsp9,2020-0188,2021-09-22,01:59:29,03:16:57,NA,incomplete,false,true,NA,7,29,E25_Q1_ansR.png,right,NA,NA,NA,right,1248,true,NA,NA,NA,NA,NA
dZNSKsp9,NA,NA,dZNSKsp9,2020-0188,2021-09-22,01:59:29,03:16:57,NA,incomplete,false,NA,true,7,0,NA,right,E21_Q8_ansL.png,E21_Q5_ansR.png,within,NA,NaN,NA,left,2283.0000000004657,0,0,976
dZNSKsp9,NA,NA,dZNSKsp9,2020-0188,2021-09-22,01:59:29,03:16:57,NA,incomplete,false,NA,true,7,1,NA,right,E21_Q1_ansL.png,E12_Q5_ansR.png,between,NA,NaN,NA,right,1442,1,1,1200
dZNSKsp9,NA,NA,dZNSKsp9,2020-0188,2021-09-22,01:59:29,03:16:57,NA,incomplete,false,NA,true,7,2,NA,left,E25_Q3_ansL.png,E25_Q2_ansR.png,within,NA,NaN,NA,left,2102,1,0,2144
dZNSKsp9,NA,NA,dZNSKsp9,2020-0188,2021-09-22,01:59:29,03:16:57,NA,incomplete,false,NA,true,7,3,NA,right,E12_Q5_ansR.png,E12_Q2_ansL.png,within,NA,NaN,NA,right,2186,1,0,1311.0000000004657
dZNSKsp9,NA,NA,dZNSKsp9,2020-0188,2021-09-22,01:59:29,03:16:57,NA,incomplete,false,NA,true,7,4,NA,left,E12_Q7_ansL.png,E21_Q4_ansR.png,between,NA,NaN,NA,left,2738,1,1,4761
dZNSKsp9,NA,NA,dZNSKsp9,2020-0188,2021-09-22,01:59:29,03:16:57,NA,incomplete,false,NA,true,7,5,NA,right,E12_Q10_ansL.png,E12_Q3_ansR.png,within,NA,NaN,NA,left,3136,0,0,1105
dZNSKsp9,NA,NA,dZNSKsp9,2020-0188,2021-09-22,01:59:29,03:16:57,NA,incomplete,false,NA,true,7,6,NA,left,E21_Q3_ansR.png,E21_Q9_ansR.png,within,NA,NaN,NA,right,5416,0,0,1150
dZNSKsp9,NA,NA,dZNSKsp9,2020-0188,2021-09-22,01:59:29,03:16:57,NA,incomplete,false,NA,true,7,7,NA,left,E21_Q6_ansR.png,E21_Q2_ansL.png,within,NA,NaN,NA,left,3443,1,1,1013
dZNSKsp9,NA,NA,dZNSKsp9,2020-0188,2021-09-22,01:59:29,03:16:57,NA,incomplete,false,NA,true,7,8,NA,right,E21_Q3_ansR.png,E21_Q7_ansL.png,within,NA,NaN,NA,right,1720,1,1,1534
dZNSKsp9,NA,NA,dZNSKsp9,2020-0188,2021-09-22,01:59:29,03:16:57,NA,incomplete,false,NA,true,7,9,NA,left,E12_Q8_ansL.png,E12_Q6_ansR.png,within,NA,NaN,NA,left,1891,1,1,894
dZNSKsp9,NA,NA,dZNSKsp9,2020-0188,2021-09-22,01:59:29,03:16:57,NA,incomplete,false,NA,true,7,10,NA,right,E21_Q10_ansL.png,E21_Q4_ansR.png,within,NA,NaN,NA,right,1496.0000000004657,1,1,1032
dZNSKsp9,NA,NA,dZNSKsp9,2020-0188,2021-09-22,01:59:29,03:16:57,NA,incomplete,false,NA,true,7,11,NA,right,E25_Q7_ansR.png,E21_Q2_ansL.png,between,NA,NaN,NA,right,1860,1,2,2928
dZNSKsp9,NA,NA,dZNSKsp9,2020-0188,2021-09-22,01:59:29,03:16:57,NA,incomplete,false,NA,true,7,12,NA,right,E21_Q7_ansL.png,E12_Q10_ansL.png,between,NA,NaN,NA,right,2021,1,2,1301.9999999995343
dZNSKsp9,NA,NA,dZNSKsp9,2020-0188,2021-09-22,01:59:29,03:16:57,NA,incomplete,false,NA,true,7,13,NA,right,E21_Q5_ansR.png,E21_Q10_ansL.png,within,NA,NaN,NA,right,2108,1,1,1191
dZNSKsp9,NA,NA,dZNSKsp9,2020-0188,2021-09-22,01:59:29,03:16:57,NA,incomplete,false,NA,true,7,14,NA,left,E25_Q8_ansR.png,E25_Q1_ansR.png,within,NA,NaN,NA,left,1918,1,1,2340
dZNSKsp9,NA,NA,dZNSKsp9,2020-0188,2021-09-22,01:59:29,03:16:57,NA,incomplete,false,NA,true,7,15,NA,right,E21_Q6_ansR.png,E21_Q1_ansL.png,within,NA,NaN,NA,left,3943.9999999995343,0,0,2842.0000000004657
dZNSKsp9,NA,NA,dZNSKsp9,2020-0188,2021-09-22,01:59:29,03:16:57,NA,incomplete,false,NA,true,7,16,NA,right,E25_Q3_ansL.png,E25_Q9_ansL.png,within,NA,NaN,NA,right,2599.9999999995343,1,1,1144.0000000004657
dZNSKsp9,NA,NA,dZNSKsp9,2020-0188,2021-09-22,01:59:29,03:16:57,NA,incomplete,false,NA,true,7,17,NA,left,E25_Q4_ansL.png,E25_Q5_ansL.png,within,NA,NaN,NA,left,2279,1,1,1008
dZNSKsp9,NA,NA,dZNSKsp9,2020-0188,2021-09-22,01:59:29,03:16:57,NA,incomplete,false,NA,true,7,18,NA,left,E25_Q7_ansR.png,E25_Q10_ansR.png,within,NA,NaN,NA,left,1920,1,1,1309
dZNSKsp9,NA,NA,dZNSKsp9,2020-0188,2021-09-22,01:59:29,03:16:57,NA,incomplete,false,NA,true,7,19,NA,left,E12_Q1_ansL.png,E12_Q3_ansR.png,within,NA,NaN,NA,left,1792.9999999995343,1,1,1571
dZNSKsp9,NA,NA,dZNSKsp9,2020-0188,2021-09-22,01:59:29,03:16:57,NA,incomplete,false,NA,true,7,20,NA,left,E12_Q6_ansR.png,E12_Q7_ansL.png,within,NA,NaN,NA,left,2233,1,1,2119.0000000004657
dZNSKsp9,NA,NA,dZNSKsp9,2020-0188,2021-09-22,01:59:29,03:16:57,NA,incomplete,false,NA,true,7,21,NA,right,E12_Q4_ansR.png,E12_Q9_ansR.png,within,NA,NaN,NA,right,3034,1,1,1552.0000000004657
dZNSKsp9,NA,NA,dZNSKsp9,2020-0188,2021-09-22,01:59:29,03:16:57,NA,incomplete,false,NA,true,7,22,NA,left,E21_Q8_ansL.png,E25_Q9_ansL.png,between,NA,NaN,NA,left,2527,1,2,2024.9999999995343
dZNSKsp9,NA,NA,dZNSKsp9,2020-0188,2021-09-22,01:59:29,03:16:57,NA,incomplete,false,NA,true,7,23,NA,right,E25_Q6_ansL.png,E25_Q10_ansR.png,within,NA,NaN,NA,right,2734.9999999995343,1,1,4489
dZNSKsp9,NA,NA,dZNSKsp9,2020-0188,2021-09-22,01:59:29,03:16:57,NA,incomplete,false,NA,true,7,24,NA,right,E25_Q4_ansL.png,E21_Q9_ansR.png,between,NA,NaN,NA,right,4447,1,2,1446
dZNSKsp9,NA,NA,dZNSKsp9,2020-0188,2021-09-22,01:59:29,03:16:57,NA,incomplete,false,NA,true,7,25,NA,left,E12_Q4_ansR.png,E12_Q2_ansL.png,within,NA,NaN,NA,left,2691,1,1,1638.0000000004657
dZNSKsp9,NA,NA,dZNSKsp9,2020-0188,2021-09-22,01:59:29,03:16:57,NA,incomplete,false,NA,true,7,26,NA,left,E25_Q5_ansL.png,E25_Q8_ansR.png,within,NA,NaN,NA,left,1915,1,1,1626
dZNSKsp9,NA,NA,dZNSKsp9,2020-0188,2021-09-22,01:59:29,03:16:57,NA,incomplete,false,true,NA,8,0,E28_Q4_ansL.png,left,NA,NA,NA,left,1656.00000000047,true,NA,NA,NA,NA,NA
dZNSKsp9,NA,NA,dZNSKsp9,2020-0188,2021-09-22,01:59:29,03:16:57,NA,incomplete,false,true,NA,8,1,E28_Q9_ansL.png,left,NA,NA,NA,left,760,true,NA,NA,NA,NA,NA
dZNSKsp9,NA,NA,dZNSKsp9,2020-0188,2021-09-22,01:59:29,03:16:57,NA,incomplete,false,true,NA,8,2,E28_Q10_ansR.png,right,NA,NA,NA,right,1069,true,NA,NA,NA,NA,NA
dZNSKsp9,NA,NA,dZNSKsp9,2020-0188,2021-09-22,01:59:29,03:16:57,NA,incomplete,false,true,NA,8,3,E28_Q3_ansL.png,left,NA,NA,NA,left,1076,true,NA,NA,NA,NA,NA
dZNSKsp9,NA,NA,dZNSKsp9,2020-0188,2021-09-22,01:59:29,03:16:57,NA,incomplete,false,true,NA,8,4,E28_Q1_ansR.png,right,NA,NA,NA,right,1450,true,NA,NA,NA,NA,NA
dZNSKsp9,NA,NA,dZNSKsp9,2020-0188,2021-09-22,01:59:29,03:16:57,NA,incomplete,false,true,NA,8,5,E28_Q6_ansL.png,left,NA,NA,NA,left,1236,true,NA,NA,NA,NA,NA
dZNSKsp9,NA,NA,dZNSKsp9,2020-0188,2021-09-22,01:59:29,03:16:57,NA,incomplete,false,true,NA,8,6,E28_Q5_ansL.png,left,NA,NA,NA,left,1153,true,NA,NA,NA,NA,NA
dZNSKsp9,NA,NA,dZNSKsp9,2020-0188,2021-09-22,01:59:29,03:16:57,NA,incomplete,false,true,NA,8,7,E28_Q8_ansR.png,right,NA,NA,NA,right,2294,true,NA,NA,NA,NA,NA
dZNSKsp9,NA,NA,dZNSKsp9,2020-0188,2021-09-22,01:59:29,03:16:57,NA,incomplete,false,true,NA,8,8,E28_Q2_ansR.png,right,NA,NA,NA,right,1162,true,NA,NA,NA,NA,NA
dZNSKsp9,NA,NA,dZNSKsp9,2020-0188,2021-09-22,01:59:29,03:16:57,NA,incomplete,false,true,NA,8,9,E28_Q7_ansR.png,right,NA,NA,NA,right,1205,true,NA,NA,NA,NA,NA
dZNSKsp9,NA,NA,dZNSKsp9,2020-0188,2021-09-22,01:59:29,03:16:57,NA,incomplete,false,true,NA,8,10,E17_Q8_ansL.png,left,NA,NA,NA,left,1643.00000000047,true,NA,NA,NA,NA,NA
dZNSKsp9,NA,NA,dZNSKsp9,2020-0188,2021-09-22,01:59:29,03:16:57,NA,incomplete,false,true,NA,8,11,E17_Q2_ansL.png,left,NA,NA,NA,left,972,true,NA,NA,NA,NA,NA
dZNSKsp9,NA,NA,dZNSKsp9,2020-0188,2021-09-22,01:59:29,03:16:57,NA,incomplete,false,true,NA,8,12,E17_Q10_ansL.png,left,NA,NA,NA,left,1085,true,NA,NA,NA,NA,NA
dZNSKsp9,NA,NA,dZNSKsp9,2020-0188,2021-09-22,01:59:29,03:16:57,NA,incomplete,false,true,NA,8,13,E17_Q4_ansR.png,right,NA,NA,NA,right,999,true,NA,NA,NA,NA,NA
dZNSKsp9,NA,NA,dZNSKsp9,2020-0188,2021-09-22,01:59:29,03:16:57,NA,incomplete,false,true,NA,8,14,E17_Q9_ansR.png,right,NA,NA,NA,right,932,true,NA,NA,NA,NA,NA
dZNSKsp9,NA,NA,dZNSKsp9,2020-0188,2021-09-22,01:59:29,03:16:57,NA,incomplete,false,true,NA,8,15,E17_Q5_ansR.png,right,NA,NA,NA,right,1236.00000000047,true,NA,NA,NA,NA,NA
dZNSKsp9,NA,NA,dZNSKsp9,2020-0188,2021-09-22,01:59:29,03:16:57,NA,incomplete,false,true,NA,8,16,E17_Q1_ansL.png,left,NA,NA,NA,left,811.999999999534,true,NA,NA,NA,NA,NA
dZNSKsp9,NA,NA,dZNSKsp9,2020-0188,2021-09-22,01:59:29,03:16:57,NA,incomplete,false,true,NA,8,17,E17_Q3_ansR.png,right,NA,NA,NA,right,749,true,NA,NA,NA,NA,NA
dZNSKsp9,NA,NA,dZNSKsp9,2020-0188,2021-09-22,01:59:29,03:16:57,NA,incomplete,false,true,NA,8,18,E17_Q7_ansL.png,left,NA,NA,NA,left,963,true,NA,NA,NA,NA,NA
dZNSKsp9,NA,NA,dZNSKsp9,2020-0188,2021-09-22,01:59:29,03:16:57,NA,incomplete,false,true,NA,8,19,E17_Q6_ansR.png,right,NA,NA,NA,right,1100,true,NA,NA,NA,NA,NA
dZNSKsp9,NA,NA,dZNSKsp9,2020-0188,2021-09-22,01:59:29,03:16:57,NA,incomplete,false,true,NA,8,20,E22_Q9_ansL.png,left,NA,NA,NA,left,1398,true,NA,NA,NA,NA,NA
dZNSKsp9,NA,NA,dZNSKsp9,2020-0188,2021-09-22,01:59:29,03:16:57,NA,incomplete,false,true,NA,8,21,E22_Q6_ansL.png,left,NA,NA,NA,left,900,true,NA,NA,NA,NA,NA
dZNSKsp9,NA,NA,dZNSKsp9,2020-0188,2021-09-22,01:59:29,03:16:57,NA,incomplete,false,true,NA,8,22,E22_Q2_ansR.png,right,NA,NA,NA,right,1111.99999999953,true,NA,NA,NA,NA,NA
dZNSKsp9,NA,NA,dZNSKsp9,2020-0188,2021-09-22,01:59:29,03:16:57,NA,incomplete,false,true,NA,8,23,E22_Q5_ansL.png,left,NA,NA,NA,left,967,true,NA,NA,NA,NA,NA
dZNSKsp9,NA,NA,dZNSKsp9,2020-0188,2021-09-22,01:59:29,03:16:57,NA,incomplete,false,true,NA,8,24,E22_Q7_ansR.png,right,NA,NA,NA,right,1170.99999999953,true,NA,NA,NA,NA,NA
dZNSKsp9,NA,NA,dZNSKsp9,2020-0188,2021-09-22,01:59:29,03:16:57,NA,incomplete,false,true,NA,8,25,E22_Q1_ansR.png,right,NA,NA,NA,right,898.000000000466,true,NA,NA,NA,NA,NA
dZNSKsp9,NA,NA,dZNSKsp9,2020-0188,2021-09-22,01:59:29,03:16:57,NA,incomplete,false,true,NA,8,26,E22_Q4_ansL.png,left,NA,NA,NA,left,1051.99999999953,true,NA,NA,NA,NA,NA
dZNSKsp9,NA,NA,dZNSKsp9,2020-0188,2021-09-22,01:59:29,03:16:57,NA,incomplete,false,true,NA,8,27,E22_Q10_ansR.png,right,NA,NA,NA,right,808,true,NA,NA,NA,NA,NA
dZNSKsp9,NA,NA,dZNSKsp9,2020-0188,2021-09-22,01:59:29,03:16:57,NA,incomplete,false,true,NA,8,28,E22_Q8_ansR.png,right,NA,NA,NA,right,959,true,NA,NA,NA,NA,NA
dZNSKsp9,NA,NA,dZNSKsp9,2020-0188,2021-09-22,01:59:29,03:16:57,NA,incomplete,false,true,NA,8,29,E22_Q3_ansL.png,left,NA,NA,NA,left,988,true,NA,NA,NA,NA,NA
dZNSKsp9,NA,NA,dZNSKsp9,2020-0188,2021-09-22,01:59:29,03:16:57,NA,incomplete,false,NA,true,8,0,NA,right,E28_Q7_ansR.png,E28_Q5_ansL.png,within,NA,NaN,NA,right,2033.0000000004657,1,0,1760.0000000004657
dZNSKsp9,NA,NA,dZNSKsp9,2020-0188,2021-09-22,01:59:29,03:16:57,NA,incomplete,false,NA,true,8,1,NA,right,E22_Q3_ansL.png,E22_Q4_ansL.png,within,NA,NaN,NA,right,1803,1,0,1944
dZNSKsp9,NA,NA,dZNSKsp9,2020-0188,2021-09-22,01:59:29,03:16:57,NA,incomplete,false,NA,true,8,2,NA,right,E22_Q7_ansR.png,E22_Q6_ansL.png,within,NA,NaN,NA,right,1648,1,1,981.0000000004657
dZNSKsp9,NA,NA,dZNSKsp9,2020-0188,2021-09-22,01:59:29,03:16:57,NA,incomplete,false,NA,true,8,3,NA,left,E17_Q10_ansL.png,E17_Q5_ansR.png,within,NA,NaN,NA,left,1340,1,1,1049
dZNSKsp9,NA,NA,dZNSKsp9,2020-0188,2021-09-22,01:59:29,03:16:57,NA,incomplete,false,NA,true,8,4,NA,right,E17_Q7_ansL.png,E17_Q5_ansR.png,within,NA,NaN,NA,right,1265,1,1,1405
dZNSKsp9,NA,NA,dZNSKsp9,2020-0188,2021-09-22,01:59:29,03:16:57,NA,incomplete,false,NA,true,8,5,NA,left,E17_Q1_ansL.png,E17_Q6_ansR.png,within,NA,NaN,NA,right,3154,0,1,1125
dZNSKsp9,NA,NA,dZNSKsp9,2020-0188,2021-09-22,01:59:29,03:16:57,NA,incomplete,false,NA,true,8,6,NA,left,E17_Q9_ansR.png,E17_Q3_ansR.png,within,NA,NaN,NA,right,2394,0,1,1252
dZNSKsp9,NA,NA,dZNSKsp9,2020-0188,2021-09-22,01:59:29,03:16:57,NA,incomplete,false,NA,true,8,7,NA,right,E28_Q5_ansL.png,E28_Q3_ansL.png,within,NA,NaN,NA,left,1914,0,1,1847
dZNSKsp9,NA,NA,dZNSKsp9,2020-0188,2021-09-22,01:59:29,03:16:57,NA,incomplete,false,NA,true,8,8,NA,left,E17_Q7_ansL.png,E22_Q6_ansL.png,between,NA,NaN,NA,left,2504,1,1,3123
dZNSKsp9,NA,NA,dZNSKsp9,2020-0188,2021-09-22,01:59:29,03:16:57,NA,incomplete,false,NA,true,8,9,NA,right,E28_Q2_ansR.png,E28_Q6_ansL.png,within,NA,NaN,NA,right,2279,1,0,1190
dZNSKsp9,NA,NA,dZNSKsp9,2020-0188,2021-09-22,01:59:29,03:16:57,NA,incomplete,false,NA,true,8,10,NA,right,E22_Q5_ansL.png,E22_Q9_ansL.png,within,NA,NaN,NA,right,4232,1,1,2084.0000000004657
dZNSKsp9,NA,NA,dZNSKsp9,2020-0188,2021-09-22,01:59:29,03:16:57,NA,incomplete,false,NA,true,8,11,NA,left,E28_Q8_ansR.png,E17_Q8_ansL.png,between,NA,NaN,NA,left,1665,1,2,6161
dZNSKsp9,NA,NA,dZNSKsp9,2020-0188,2021-09-22,01:59:29,03:16:57,NA,incomplete,false,NA,true,8,12,NA,right,E28_Q6_ansL.png,E28_Q10_ansR.png,within,NA,NaN,NA,left,3213,0,2,1144.0000000004657
dZNSKsp9,NA,NA,dZNSKsp9,2020-0188,2021-09-22,01:59:29,03:16:57,NA,incomplete,false,NA,true,8,13,NA,right,E17_Q4_ansR.png,E17_Q8_ansL.png,within,NA,NaN,NA,right,1770.9999999995343,1,1,1038
dZNSKsp9,NA,NA,dZNSKsp9,2020-0188,2021-09-22,01:59:29,03:16:57,NA,incomplete,false,NA,true,8,14,NA,right,E28_Q1_ansR.png,E28_Q9_ansL.png,within,NA,NaN,NA,right,1877,1,0,2078
dZNSKsp9,NA,NA,dZNSKsp9,2020-0188,2021-09-22,01:59:29,03:16:57,NA,incomplete,false,NA,true,8,15,NA,right,E22_Q2_ansR.png,E17_Q6_ansR.png,between,NA,NaN,NA,right,3043,1,1,1656
dZNSKsp9,NA,NA,dZNSKsp9,2020-0188,2021-09-22,01:59:29,03:16:57,NA,incomplete,false,NA,true,8,16,NA,right,E17_Q9_ansR.png,E17_Q2_ansL.png,within,NA,NaN,NA,right,1670,1,1,1410.9999999995343
dZNSKsp9,NA,NA,dZNSKsp9,2020-0188,2021-09-22,01:59:29,03:16:57,NA,incomplete,false,NA,true,8,17,NA,left,E22_Q2_ansR.png,E22_Q1_ansR.png,within,NA,NaN,NA,right,3015,0,1,1763
dZNSKsp9,NA,NA,dZNSKsp9,2020-0188,2021-09-22,01:59:29,03:16:57,NA,incomplete,false,NA,true,8,18,NA,left,E22_Q5_ansL.png,E22_Q4_ansL.png,within,NA,NaN,NA,left,4922,1,1,2357
dZNSKsp9,NA,NA,dZNSKsp9,2020-0188,2021-09-22,01:59:29,03:16:57,NA,incomplete,false,NA,true,8,19,NA,right,E28_Q3_ansL.png,E28_Q4_ansL.png,within,NA,NaN,NA,right,1437.0000000004657,1,1,1282.9999999995343
dZNSKsp9,NA,NA,dZNSKsp9,2020-0188,2021-09-22,01:59:29,03:16:57,NA,incomplete,false,NA,true,8,20,NA,left,E17_Q4_ansR.png,E17_Q1_ansL.png,within,NA,NaN,NA,left,4200.999999999534,1,1,962
dZNSKsp9,NA,NA,dZNSKsp9,2020-0188,2021-09-22,01:59:29,03:16:57,NA,incomplete,false,NA,true,8,21,NA,left,E22_Q7_ansR.png,E22_Q10_ansR.png,within,NA,NaN,NA,left,1554,1,1,1510.0000000004657
dZNSKsp9,NA,NA,dZNSKsp9,2020-0188,2021-09-22,01:59:29,03:16:57,NA,incomplete,false,NA,true,8,22,NA,right,E17_Q2_ansL.png,E28_Q2_ansR.png,between,NA,NaN,NA,right,2154,1,2,1225
dZNSKsp9,NA,NA,dZNSKsp9,2020-0188,2021-09-22,01:59:29,03:16:57,NA,incomplete,false,NA,true,8,23,NA,left,E17_Q3_ansR.png,E22_Q9_ansL.png,between,NA,NaN,NA,left,2361,1,2,976
dZNSKsp9,NA,NA,dZNSKsp9,2020-0188,2021-09-22,01:59:29,03:16:57,NA,incomplete,false,NA,true,8,24,NA,left,E22_Q1_ansR.png,E22_Q8_ansR.png,within,NA,NaN,NA,left,3437,1,1,1644
dZNSKsp9,NA,NA,dZNSKsp9,2020-0188,2021-09-22,01:59:29,03:16:57,NA,incomplete,false,NA,true,8,25,NA,right,E17_Q10_ansL.png,E28_Q7_ansR.png,between,NA,NaN,NA,right,1705,1,2,1413.9999999995343
dZNSKsp9,NA,NA,dZNSKsp9,2020-0188,2021-09-22,01:59:29,03:16:57,NA,incomplete,false,NA,true,8,26,NA,right,E28_Q8_ansR.png,E28_Q1_ansR.png,within,NA,NaN,NA,right,1483.0000000004657,1,1,1397
dZNSKsp9,NA,NA,dZNSKsp9,2020-0188,2021-09-22,01:59:29,03:16:57,NA,incomplete,false,true,NA,9,0,E15_Q5_ansR.png,right,NA,NA,NA,right,1449.99999999953,true,NA,NA,NA,NA,NA
dZNSKsp9,NA,NA,dZNSKsp9,2020-0188,2021-09-22,01:59:29,03:16:57,NA,incomplete,false,true,NA,9,1,E15_Q6_ansR.png,right,NA,NA,NA,right,1037,true,NA,NA,NA,NA,NA
dZNSKsp9,NA,NA,dZNSKsp9,2020-0188,2021-09-22,01:59:29,03:16:57,NA,incomplete,false,true,NA,9,2,E15_Q2_ansL.png,left,NA,NA,NA,left,994,true,NA,NA,NA,NA,NA
dZNSKsp9,NA,NA,dZNSKsp9,2020-0188,2021-09-22,01:59:29,03:16:57,NA,incomplete,false,true,NA,9,3,E15_Q9_ansR.png,right,NA,NA,NA,left,2109,false,NA,NA,NA,NA,NA
dZNSKsp9,NA,NA,dZNSKsp9,2020-0188,2021-09-22,01:59:29,03:16:57,NA,incomplete,false,true,NA,9,4,E15_Q1_ansL.png,left,NA,NA,NA,left,1597.00000000047,true,NA,NA,NA,NA,NA
dZNSKsp9,NA,NA,dZNSKsp9,2020-0188,2021-09-22,01:59:29,03:16:57,NA,incomplete,false,true,NA,9,5,E15_Q7_ansL.png,left,NA,NA,NA,right,1300.99999999953,false,NA,NA,NA,NA,NA
dZNSKsp9,NA,NA,dZNSKsp9,2020-0188,2021-09-22,01:59:29,03:16:57,NA,incomplete,false,true,NA,9,6,E15_Q4_ansR.png,right,NA,NA,NA,right,1850,true,NA,NA,NA,NA,NA
dZNSKsp9,NA,NA,dZNSKsp9,2020-0188,2021-09-22,01:59:29,03:16:57,NA,incomplete,false,true,NA,9,7,E15_Q10_ansL.png,left,NA,NA,NA,left,1411,true,NA,NA,NA,NA,NA
dZNSKsp9,NA,NA,dZNSKsp9,2020-0188,2021-09-22,01:59:29,03:16:57,NA,incomplete,false,true,NA,9,8,E15_Q3_ansR.png,right,NA,NA,NA,right,1224,true,NA,NA,NA,NA,NA
dZNSKsp9,NA,NA,dZNSKsp9,2020-0188,2021-09-22,01:59:29,03:16:57,NA,incomplete,false,true,NA,9,9,E15_Q8_ansL.png,left,NA,NA,NA,left,971.000000000466,true,NA,NA,NA,NA,NA
dZNSKsp9,NA,NA,dZNSKsp9,2020-0188,2021-09-22,01:59:29,03:16:57,NA,incomplete,false,true,NA,9,10,E19_Q5_ansR.png,right,NA,NA,NA,right,1309.99999999953,true,NA,NA,NA,NA,NA
dZNSKsp9,NA,NA,dZNSKsp9,2020-0188,2021-09-22,01:59:29,03:16:57,NA,incomplete,false,true,NA,9,11,E19_Q8_ansL.png,left,NA,NA,NA,right,768,false,NA,NA,NA,NA,NA
dZNSKsp9,NA,NA,dZNSKsp9,2020-0188,2021-09-22,01:59:29,03:16:57,NA,incomplete,false,true,NA,9,12,E19_Q2_ansL.png,left,NA,NA,NA,left,949.999999999534,true,NA,NA,NA,NA,NA
dZNSKsp9,NA,NA,dZNSKsp9,2020-0188,2021-09-22,01:59:29,03:16:57,NA,incomplete,false,true,NA,9,13,E19_Q10_ansL.png,left,NA,NA,NA,left,1004.00000000047,true,NA,NA,NA,NA,NA
dZNSKsp9,NA,NA,dZNSKsp9,2020-0188,2021-09-22,01:59:29,03:16:57,NA,incomplete,false,true,NA,9,14,E19_Q1_ansL.png,left,NA,NA,NA,left,968,true,NA,NA,NA,NA,NA
dZNSKsp9,NA,NA,dZNSKsp9,2020-0188,2021-09-22,01:59:29,03:16:57,NA,incomplete,false,true,NA,9,15,E19_Q6_ansR.png,right,NA,NA,NA,right,965,true,NA,NA,NA,NA,NA
dZNSKsp9,NA,NA,dZNSKsp9,2020-0188,2021-09-22,01:59:29,03:16:57,NA,incomplete,false,true,NA,9,16,E19_Q9_ansR.png,right,NA,NA,NA,right,1466,true,NA,NA,NA,NA,NA
dZNSKsp9,NA,NA,dZNSKsp9,2020-0188,2021-09-22,01:59:29,03:16:57,NA,incomplete,false,true,NA,9,17,E19_Q3_ansR.png,right,NA,NA,NA,right,966.999999999534,true,NA,NA,NA,NA,NA
dZNSKsp9,NA,NA,dZNSKsp9,2020-0188,2021-09-22,01:59:29,03:16:57,NA,incomplete,false,true,NA,9,18,E19_Q4_ansR.png,right,NA,NA,NA,right,708,true,NA,NA,NA,NA,NA
dZNSKsp9,NA,NA,dZNSKsp9,2020-0188,2021-09-22,01:59:29,03:16:57,NA,incomplete,false,true,NA,9,19,E19_Q7_ansL.png,left,NA,NA,NA,left,1094,true,NA,NA,NA,NA,NA
dZNSKsp9,NA,NA,dZNSKsp9,2020-0188,2021-09-22,01:59:29,03:16:57,NA,incomplete,false,true,NA,9,20,E18_Q7_ansL.png,left,NA,NA,NA,left,1183,true,NA,NA,NA,NA,NA
dZNSKsp9,NA,NA,dZNSKsp9,2020-0188,2021-09-22,01:59:29,03:16:57,NA,incomplete,false,true,NA,9,21,E18_Q8_ansL.png,left,NA,NA,NA,left,1379.00000000047,true,NA,NA,NA,NA,NA
dZNSKsp9,NA,NA,dZNSKsp9,2020-0188,2021-09-22,01:59:29,03:16:57,NA,incomplete,false,true,NA,9,22,E18_Q5_ansR.png,right,NA,NA,NA,right,1114,true,NA,NA,NA,NA,NA
dZNSKsp9,NA,NA,dZNSKsp9,2020-0188,2021-09-22,01:59:29,03:16:57,NA,incomplete,false,true,NA,9,23,E18_Q2_ansL.png,left,NA,NA,NA,left,1009,true,NA,NA,NA,NA,NA
dZNSKsp9,NA,NA,dZNSKsp9,2020-0188,2021-09-22,01:59:29,03:16:57,NA,incomplete,false,true,NA,9,24,E18_Q3_ansR.png,right,NA,NA,NA,right,1021.00000000047,true,NA,NA,NA,NA,NA
dZNSKsp9,NA,NA,dZNSKsp9,2020-0188,2021-09-22,01:59:29,03:16:57,NA,incomplete,false,true,NA,9,25,E18_Q9_ansR.png,right,NA,NA,NA,right,798,true,NA,NA,NA,NA,NA
dZNSKsp9,NA,NA,dZNSKsp9,2020-0188,2021-09-22,01:59:29,03:16:57,NA,incomplete,false,true,NA,9,26,E18_Q4_ansR.png,right,NA,NA,NA,right,904,true,NA,NA,NA,NA,NA
dZNSKsp9,NA,NA,dZNSKsp9,2020-0188,2021-09-22,01:59:29,03:16:57,NA,incomplete,false,true,NA,9,27,E18_Q1_ansL.png,left,NA,NA,NA,left,945,true,NA,NA,NA,NA,NA
dZNSKsp9,NA,NA,dZNSKsp9,2020-0188,2021-09-22,01:59:29,03:16:57,NA,incomplete,false,true,NA,9,28,E18_Q10_ansL.png,left,NA,NA,NA,left,1304,true,NA,NA,NA,NA,NA
dZNSKsp9,NA,NA,dZNSKsp9,2020-0188,2021-09-22,01:59:29,03:16:57,NA,incomplete,false,true,NA,9,29,E18_Q6_ansR.png,right,NA,NA,NA,right,1221,true,NA,NA,NA,NA,NA
dZNSKsp9,NA,NA,dZNSKsp9,2020-0188,2021-09-22,01:59:29,03:16:57,NA,incomplete,false,NA,true,9,0,NA,right,E15_Q7_ansL.png,E15_Q2_ansL.png,within,NA,NaN,NA,right,2538,1,0,1621.0000000004657
dZNSKsp9,NA,NA,dZNSKsp9,2020-0188,2021-09-22,01:59:29,03:16:57,NA,incomplete,false,NA,true,9,1,NA,right,E18_Q3_ansR.png,E18_Q8_ansL.png,within,NA,NaN,NA,right,1579.9999999995343,1,1,1146
dZNSKsp9,NA,NA,dZNSKsp9,2020-0188,2021-09-22,01:59:29,03:16:57,NA,incomplete,false,NA,true,9,2,NA,right,E19_Q8_ansL.png,E15_Q3_ansR.png,between,NA,NaN,NA,right,1800.9999999995343,1,2,1974.9999999995343
dZNSKsp9,NA,NA,dZNSKsp9,2020-0188,2021-09-22,01:59:29,03:16:57,NA,incomplete,false,NA,true,9,3,NA,left,E15_Q4_ansR.png,E15_Q8_ansL.png,within,NA,NaN,NA,left,1688,1,1,966.0000000004657
dZNSKsp9,NA,NA,dZNSKsp9,2020-0188,2021-09-22,01:59:29,03:16:57,NA,incomplete,false,NA,true,9,4,NA,left,E19_Q5_ansR.png,E19_Q10_ansL.png,within,NA,NaN,NA,left,1390,1,1,1455
dZNSKsp9,NA,NA,dZNSKsp9,2020-0188,2021-09-22,01:59:29,03:16:57,NA,incomplete,false,NA,true,9,5,NA,right,E19_Q9_ansR.png,E19_Q10_ansL.png,within,NA,NaN,NA,right,2024.9999999995343,1,0,1124.0000000004657
dZNSKsp9,NA,NA,dZNSKsp9,2020-0188,2021-09-22,01:59:29,03:16:57,NA,incomplete,false,NA,true,9,6,NA,right,E19_Q5_ansR.png,E15_Q10_ansL.png,between,NA,NaN,NA,right,1120.9999999990687,1,1,1336.9999999995343
dZNSKsp9,NA,NA,dZNSKsp9,2020-0188,2021-09-22,01:59:29,03:16:57,NA,incomplete,false,NA,true,9,7,NA,left,E15_Q5_ansR.png,E15_Q9_ansR.png,within,NA,NaN,NA,left,1360.9999999995343,1,1,1001.0000000004657
dZNSKsp9,NA,NA,dZNSKsp9,2020-0188,2021-09-22,01:59:29,03:16:57,NA,incomplete,false,NA,true,9,8,NA,left,E15_Q1_ansL.png,E15_Q10_ansL.png,within,NA,NaN,NA,left,2405.9999999995343,1,1,1022
dZNSKsp9,NA,NA,dZNSKsp9,2020-0188,2021-09-22,01:59:29,03:16:57,NA,incomplete,false,NA,true,9,9,NA,left,E18_Q4_ansR.png,E18_Q6_ansR.png,within,NA,NaN,NA,left,1749,1,0,2514.9999999995343
dZNSKsp9,NA,NA,dZNSKsp9,2020-0188,2021-09-22,01:59:29,03:16:57,NA,incomplete,false,NA,true,9,10,NA,right,E18_Q4_ansR.png,E18_Q2_ansL.png,within,NA,NaN,NA,right,1650.0000000004657,1,0,1014
dZNSKsp9,NA,NA,dZNSKsp9,2020-0188,2021-09-22,01:59:29,03:16:57,NA,incomplete,false,NA,true,9,11,NA,right,E19_Q7_ansL.png,E19_Q9_ansR.png,within,NA,NaN,NA,right,2117.0000000004657,1,1,996.0000000004657
dZNSKsp9,NA,NA,dZNSKsp9,2020-0188,2021-09-22,01:59:29,03:16:57,NA,incomplete,false,NA,true,9,12,NA,left,E19_Q2_ansL.png,E19_Q6_ansR.png,within,NA,NaN,NA,left,1422.9999999995343,1,1,914
dZNSKsp9,NA,NA,dZNSKsp9,2020-0188,2021-09-22,01:59:29,03:16:57,NA,incomplete,false,NA,true,9,13,NA,left,E15_Q6_ansR.png,E15_Q1_ansL.png,within,NA,NaN,NA,left,1493.9999999995343,1,1,1217.0000000009313
dZNSKsp9,NA,NA,dZNSKsp9,2020-0188,2021-09-22,01:59:29,03:16:57,NA,incomplete,false,NA,true,9,14,NA,right,E18_Q8_ansL.png,E19_Q4_ansR.png,between,NA,NaN,NA,left,9693,0,2,1151
dZNSKsp9,NA,NA,dZNSKsp9,2020-0188,2021-09-22,01:59:29,03:16:57,NA,incomplete,false,NA,true,9,15,NA,left,E19_Q3_ansR.png,E18_Q7_ansL.png,between,NA,NaN,NA,right,4064.9999999995343,0,3,1312
dZNSKsp9,NA,NA,dZNSKsp9,2020-0188,2021-09-22,01:59:29,03:16:57,NA,incomplete,false,NA,true,9,16,NA,right,E19_Q4_ansR.png,E19_Q6_ansR.png,within,NA,NaN,NA,left,1902,0,1,2049
dZNSKsp9,NA,NA,dZNSKsp9,2020-0188,2021-09-22,01:59:29,03:16:57,NA,incomplete,false,NA,true,9,17,NA,right,E18_Q10_ansL.png,E18_Q9_ansR.png,within,NA,NaN,NA,left,2119.0000000004657,0,1,3812
dZNSKsp9,NA,NA,dZNSKsp9,2020-0188,2021-09-22,01:59:29,03:16:57,NA,incomplete,false,NA,true,9,18,NA,left,E15_Q8_ansL.png,E19_Q2_ansL.png,between,NA,NaN,NA,left,1250,1,2,1879
dZNSKsp9,NA,NA,dZNSKsp9,2020-0188,2021-09-22,01:59:29,03:16:57,NA,incomplete,false,NA,true,9,19,NA,right,E15_Q3_ansR.png,E15_Q7_ansL.png,within,NA,NaN,NA,right,2943,1,0,1207
dZNSKsp9,NA,NA,dZNSKsp9,2020-0188,2021-09-22,01:59:29,03:16:57,NA,incomplete,false,NA,true,9,20,NA,left,E19_Q7_ansL.png,E18_Q5_ansR.png,between,NA,NaN,NA,right,2613,0,3,1737
dZNSKsp9,NA,NA,dZNSKsp9,2020-0188,2021-09-22,01:59:29,03:16:57,NA,incomplete,false,NA,true,9,21,NA,left,E18_Q7_ansL.png,E18_Q2_ansL.png,within,NA,NaN,NA,left,1577,1,1,2020
dZNSKsp9,NA,NA,dZNSKsp9,2020-0188,2021-09-22,01:59:29,03:16:57,NA,incomplete,false,NA,true,9,22,NA,left,E18_Q3_ansR.png,E18_Q1_ansL.png,within,NA,NaN,NA,left,2443,1,0,958
dZNSKsp9,NA,NA,dZNSKsp9,2020-0188,2021-09-22,01:59:29,03:16:57,NA,incomplete,false,NA,true,9,23,NA,left,E15_Q9_ansR.png,E15_Q4_ansR.png,within,NA,NaN,NA,left,1430,1,1,928
dZNSKsp9,NA,NA,dZNSKsp9,2020-0188,2021-09-22,01:59:29,03:16:57,NA,incomplete,false,NA,true,9,24,NA,right,E19_Q3_ansR.png,E19_Q1_ansL.png,within,NA,NaN,NA,right,1703,1,1,1168.9999999990687
dZNSKsp9,NA,NA,dZNSKsp9,2020-0188,2021-09-22,01:59:29,03:16:57,NA,incomplete,false,NA,true,9,25,NA,left,E19_Q8_ansL.png,E19_Q1_ansL.png,within,NA,NaN,NA,left,1222,1,0,1212
dZNSKsp9,NA,NA,dZNSKsp9,2020-0188,2021-09-22,01:59:29,03:16:57,NA,incomplete,false,NA,true,9,26,NA,left,E18_Q5_ansR.png,E18_Q9_ansR.png,within,NA,NaN,NA,left,3592,1,0,1749
dZNSKsp9,NA,NA,dZNSKsp9,2020-0188,2021-09-22,01:59:29,03:16:57,NA,incomplete,false,true,NA,10,0,E24_Q5_ansL.png,left,NA,NA,NA,left,1521,true,NA,NA,NA,NA,NA
dZNSKsp9,NA,NA,dZNSKsp9,2020-0188,2021-09-22,01:59:29,03:16:57,NA,incomplete,false,true,NA,10,1,E24_Q1_ansR.png,right,NA,NA,NA,right,900,true,NA,NA,NA,NA,NA
dZNSKsp9,NA,NA,dZNSKsp9,2020-0188,2021-09-22,01:59:29,03:16:57,NA,incomplete,false,true,NA,10,2,E24_Q8_ansR.png,right,NA,NA,NA,right,1150,true,NA,NA,NA,NA,NA
dZNSKsp9,NA,NA,dZNSKsp9,2020-0188,2021-09-22,01:59:29,03:16:57,NA,incomplete,false,true,NA,10,3,E24_Q2_ansR.png,right,NA,NA,NA,right,1434,true,NA,NA,NA,NA,NA
dZNSKsp9,NA,NA,dZNSKsp9,2020-0188,2021-09-22,01:59:29,03:16:57,NA,incomplete,false,true,NA,10,4,E24_Q3_ansL.png,left,NA,NA,NA,left,1165,true,NA,NA,NA,NA,NA
dZNSKsp9,NA,NA,dZNSKsp9,2020-0188,2021-09-22,01:59:29,03:16:57,NA,incomplete,false,true,NA,10,5,E24_Q9_ansL.png,left,NA,NA,NA,left,1170,true,NA,NA,NA,NA,NA
dZNSKsp9,NA,NA,dZNSKsp9,2020-0188,2021-09-22,01:59:29,03:16:57,NA,incomplete,false,true,NA,10,6,E24_Q4_ansL.png,left,NA,NA,NA,left,1089,true,NA,NA,NA,NA,NA
dZNSKsp9,NA,NA,dZNSKsp9,2020-0188,2021-09-22,01:59:29,03:16:57,NA,incomplete,false,true,NA,10,7,E24_Q7_ansR.png,right,NA,NA,NA,right,1226.00000000093,true,NA,NA,NA,NA,NA
dZNSKsp9,NA,NA,dZNSKsp9,2020-0188,2021-09-22,01:59:29,03:16:57,NA,incomplete,false,true,NA,10,8,E24_Q6_ansL.png,left,NA,NA,NA,left,1263,true,NA,NA,NA,NA,NA
dZNSKsp9,NA,NA,dZNSKsp9,2020-0188,2021-09-22,01:59:29,03:16:57,NA,incomplete,false,true,NA,10,9,E24_Q10_ansR.png,right,NA,NA,NA,right,1236,true,NA,NA,NA,NA,NA
dZNSKsp9,NA,NA,dZNSKsp9,2020-0188,2021-09-22,01:59:29,03:16:57,NA,incomplete,false,true,NA,10,10,E29_Q10_ansL.png,left,NA,NA,NA,left,1347,true,NA,NA,NA,NA,NA
dZNSKsp9,NA,NA,dZNSKsp9,2020-0188,2021-09-22,01:59:29,03:16:57,NA,incomplete,false,true,NA,10,11,E29_Q6_ansR.png,right,NA,NA,NA,right,1482.99999999907,true,NA,NA,NA,NA,NA
dZNSKsp9,NA,NA,dZNSKsp9,2020-0188,2021-09-22,01:59:29,03:16:57,NA,incomplete,false,true,NA,10,12,E29_Q1_ansL.png,left,NA,NA,NA,left,972,true,NA,NA,NA,NA,NA
dZNSKsp9,NA,NA,dZNSKsp9,2020-0188,2021-09-22,01:59:29,03:16:57,NA,incomplete,false,true,NA,10,13,E29_Q8_ansL.png,left,NA,NA,NA,left,1917,true,NA,NA,NA,NA,NA
dZNSKsp9,NA,NA,dZNSKsp9,2020-0188,2021-09-22,01:59:29,03:16:57,NA,incomplete,false,true,NA,10,14,E29_Q9_ansR.png,right,NA,NA,NA,right,842,true,NA,NA,NA,NA,NA
dZNSKsp9,NA,NA,dZNSKsp9,2020-0188,2021-09-22,01:59:29,03:16:57,NA,incomplete,false,true,NA,10,15,E29_Q4_ansR.png,right,NA,NA,NA,right,899,true,NA,NA,NA,NA,NA
dZNSKsp9,NA,NA,dZNSKsp9,2020-0188,2021-09-22,01:59:29,03:16:57,NA,incomplete,false,true,NA,10,16,E29_Q3_ansR.png,right,NA,NA,NA,right,913,true,NA,NA,NA,NA,NA
dZNSKsp9,NA,NA,dZNSKsp9,2020-0188,2021-09-22,01:59:29,03:16:57,NA,incomplete,false,true,NA,10,17,E29_Q5_ansR.png,right,NA,NA,NA,right,1050,true,NA,NA,NA,NA,NA
dZNSKsp9,NA,NA,dZNSKsp9,2020-0188,2021-09-22,01:59:29,03:16:57,NA,incomplete,false,true,NA,10,18,E29_Q2_ansL.png,left,NA,NA,NA,left,2737,true,NA,NA,NA,NA,NA
dZNSKsp9,NA,NA,dZNSKsp9,2020-0188,2021-09-22,01:59:29,03:16:57,NA,incomplete,false,true,NA,10,19,E29_Q7_ansL.png,left,NA,NA,NA,left,1011,true,NA,NA,NA,NA,NA
dZNSKsp9,NA,NA,dZNSKsp9,2020-0188,2021-09-22,01:59:29,03:16:57,NA,incomplete,false,true,NA,10,20,E3_Q6_ansR.png,right,NA,NA,NA,right,1580,true,NA,NA,NA,NA,NA
