workerId,hitId,assignmentId,subject,studyid,exp_date,exp_start,exp_end,time_start,time_end,practice,encoding,memory,block,trial,stim,answer,left_image,right_image,condition,response,response_time,response_acc,order_response,order_response_time,order_acc,distance_response,distance_response_time
FF4zVVJu,NA,NA,FF4zVVJu,2020-0188,2021-11-13,23:58:08,01:09:25,NA,incomplete,true,true,NA,0,0,E7_Q1_ansL.png,left,NA,NA,NA,left,1755.5,true,NA,NA,NA,NA,NA
FF4zVVJu,NA,NA,FF4zVVJu,2020-0188,2021-11-13,23:58:08,01:09:25,NA,incomplete,true,true,NA,0,1,E7_Q10_ansR.png,right,NA,NA,NA,right,2532.40000000596,true,NA,NA,NA,NA,NA
FF4zVVJu,NA,NA,FF4zVVJu,2020-0188,2021-11-13,23:58:08,01:09:25,NA,incomplete,true,true,NA,0,2,E7_Q9_ansR.png,right,NA,NA,NA,right,1715.09999999404,true,NA,NA,NA,NA,NA
FF4zVVJu,NA,NA,FF4zVVJu,2020-0188,2021-11-13,23:58:08,01:09:25,NA,incomplete,true,true,NA,0,3,E7_Q8_ansL.png,left,NA,NA,NA,left,929.09999999404,true,NA,NA,NA,NA,NA
FF4zVVJu,NA,NA,FF4zVVJu,2020-0188,2021-11-13,23:58:08,01:09:25,NA,incomplete,true,true,NA,0,4,E7_Q3_ansR.png,right,NA,NA,NA,right,1011.09999999404,true,NA,NA,NA,NA,NA
FF4zVVJu,NA,NA,FF4zVVJu,2020-0188,2021-11-13,23:58:08,01:09:25,NA,incomplete,true,true,NA,0,5,E7_Q6_ansR.png,right,NA,NA,NA,right,1251.90000000596,true,NA,NA,NA,NA,NA
FF4zVVJu,NA,NA,FF4zVVJu,2020-0188,2021-11-13,23:58:08,01:09:25,NA,incomplete,true,true,NA,0,6,E7_Q4_ansR.png,right,NA,NA,NA,right,1451.10000002384,true,NA,NA,NA,NA,NA
FF4zVVJu,NA,NA,FF4zVVJu,2020-0188,2021-11-13,23:58:08,01:09:25,NA,incomplete,true,true,NA,0,7,E7_Q7_ansL.png,left,NA,NA,NA,left,1163.09999999404,true,NA,NA,NA,NA,NA
FF4zVVJu,NA,NA,FF4zVVJu,2020-0188,2021-11-13,23:58:08,01:09:25,NA,incomplete,true,true,NA,0,8,E7_Q2_ansL.png,left,NA,NA,NA,left,1176.09999999404,true,NA,NA,NA,NA,NA
FF4zVVJu,NA,NA,FF4zVVJu,2020-0188,2021-11-13,23:58:08,01:09:25,NA,incomplete,true,true,NA,0,9,E7_Q5_ansR.png,right,NA,NA,NA,right,1135.20000001788,true,NA,NA,NA,NA,NA
FF4zVVJu,NA,NA,FF4zVVJu,2020-0188,2021-11-13,23:58:08,01:09:25,NA,incomplete,true,true,NA,0,10,E28_Q1_ansR.png,right,NA,NA,NA,right,1828.40000000596,true,NA,NA,NA,NA,NA
FF4zVVJu,NA,NA,FF4zVVJu,2020-0188,2021-11-13,23:58:08,01:09:25,NA,incomplete,true,true,NA,0,11,E28_Q10_ansR.png,right,NA,NA,NA,right,1581.79999998212,true,NA,NA,NA,NA,NA
FF4zVVJu,NA,NA,FF4zVVJu,2020-0188,2021-11-13,23:58:08,01:09:25,NA,incomplete,true,true,NA,0,12,E28_Q6_ansL.png,left,NA,NA,NA,left,1472,true,NA,NA,NA,NA,NA
FF4zVVJu,NA,NA,FF4zVVJu,2020-0188,2021-11-13,23:58:08,01:09:25,NA,incomplete,true,true,NA,0,13,E28_Q3_ansL.png,left,NA,NA,NA,left,2099,true,NA,NA,NA,NA,NA
FF4zVVJu,NA,NA,FF4zVVJu,2020-0188,2021-11-13,23:58:08,01:09:25,NA,incomplete,true,true,NA,0,14,E28_Q4_ansL.png,left,NA,NA,NA,left,1255.80000001192,true,NA,NA,NA,NA,NA
FF4zVVJu,NA,NA,FF4zVVJu,2020-0188,2021-11-13,23:58:08,01:09:25,NA,incomplete,true,true,NA,0,15,E28_Q9_ansL.png,left,NA,NA,NA,left,1312.79999998212,true,NA,NA,NA,NA,NA
FF4zVVJu,NA,NA,FF4zVVJu,2020-0188,2021-11-13,23:58:08,01:09:25,NA,incomplete,true,true,NA,0,16,E28_Q8_ansR.png,right,NA,NA,NA,right,1165.40000000596,true,NA,NA,NA,NA,NA
FF4zVVJu,NA,NA,FF4zVVJu,2020-0188,2021-11-13,23:58:08,01:09:25,NA,incomplete,true,true,NA,0,17,E28_Q7_ansR.png,right,NA,NA,NA,right,1361.19999998808,true,NA,NA,NA,NA,NA
FF4zVVJu,NA,NA,FF4zVVJu,2020-0188,2021-11-13,23:58:08,01:09:25,NA,incomplete,true,true,NA,0,18,E28_Q5_ansL.png,left,NA,NA,NA,left,1259.60000002384,true,NA,NA,NA,NA,NA
FF4zVVJu,NA,NA,FF4zVVJu,2020-0188,2021-11-13,23:58:08,01:09:25,NA,incomplete,true,true,NA,0,19,E28_Q2_ansR.png,right,NA,NA,NA,right,1188.39999997616,true,NA,NA,NA,NA,NA
FF4zVVJu,NA,NA,FF4zVVJu,2020-0188,2021-11-13,23:58:08,01:09:25,NA,incomplete,true,true,NA,0,20,E22_Q7_ansR.png,right,NA,NA,NA,right,1499.30000001192,true,NA,NA,NA,NA,NA
FF4zVVJu,NA,NA,FF4zVVJu,2020-0188,2021-11-13,23:58:08,01:09:25,NA,incomplete,true,true,NA,0,21,E22_Q1_ansR.png,right,NA,NA,NA,right,1225,true,NA,NA,NA,NA,NA
FF4zVVJu,NA,NA,FF4zVVJu,2020-0188,2021-11-13,23:58:08,01:09:25,NA,incomplete,true,true,NA,0,22,E22_Q2_ansR.png,right,NA,NA,NA,right,1183.59999999404,true,NA,NA,NA,NA,NA
FF4zVVJu,NA,NA,FF4zVVJu,2020-0188,2021-11-13,23:58:08,01:09:25,NA,incomplete,true,true,NA,0,23,E22_Q10_ansR.png,right,NA,NA,NA,right,1072.5,true,NA,NA,NA,NA,NA
FF4zVVJu,NA,NA,FF4zVVJu,2020-0188,2021-11-13,23:58:08,01:09:25,NA,incomplete,true,true,NA,0,24,E22_Q9_ansL.png,left,NA,NA,NA,left,1399.59999999404,true,NA,NA,NA,NA,NA
FF4zVVJu,NA,NA,FF4zVVJu,2020-0188,2021-11-13,23:58:08,01:09:25,NA,incomplete,true,true,NA,0,25,E22_Q5_ansL.png,left,NA,NA,NA,left,1205.60000002384,true,NA,NA,NA,NA,NA
FF4zVVJu,NA,NA,FF4zVVJu,2020-0188,2021-11-13,23:58:08,01:09:25,NA,incomplete,true,true,NA,0,26,E22_Q4_ansL.png,left,NA,NA,NA,left,1334.5,true,NA,NA,NA,NA,NA
FF4zVVJu,NA,NA,FF4zVVJu,2020-0188,2021-11-13,23:58:08,01:09:25,NA,incomplete,true,true,NA,0,27,E22_Q6_ansL.png,left,NA,NA,NA,left,1109.5,true,NA,NA,NA,NA,NA
FF4zVVJu,NA,NA,FF4zVVJu,2020-0188,2021-11-13,23:58:08,01:09:25,NA,incomplete,true,true,NA,0,28,E22_Q3_ansL.png,left,NA,NA,NA,left,1120.40000000596,true,NA,NA,NA,NA,NA
FF4zVVJu,NA,NA,FF4zVVJu,2020-0188,2021-11-13,23:58:08,01:09:25,NA,incomplete,true,true,NA,0,29,E22_Q8_ansR.png,right,NA,NA,NA,right,926.799999982119,true,NA,NA,NA,NA,NA
FF4zVVJu,NA,NA,FF4zVVJu,2020-0188,2021-11-13,23:58:08,01:09:25,NA,incomplete,true,NA,true,0,0,NA,left,E28_Q9_ansL.png,E28_Q5_ansL.png,within,NA,NaN,NA,left,6039.800000011921,1,1,5899.5
FF4zVVJu,NA,NA,FF4zVVJu,2020-0188,2021-11-13,23:58:08,01:09:25,NA,incomplete,true,NA,true,0,1,NA,right,E22_Q8_ansR.png,E22_Q4_ansL.png,within,NA,NaN,NA,right,4927.5,1,1,4128.9000000059605
FF4zVVJu,NA,NA,FF4zVVJu,2020-0188,2021-11-13,23:58:08,01:09:25,NA,incomplete,true,NA,true,0,2,NA,left,E28_Q4_ansL.png,E28_Q7_ansR.png,within,NA,NaN,NA,right,14773.800000011921,0,0,1534
FF4zVVJu,NA,NA,FF4zVVJu,2020-0188,2021-11-13,23:58:08,01:09:25,NA,incomplete,true,NA,true,0,3,NA,left,E28_Q2_ansR.png,E22_Q2_ansR.png,between,NA,NaN,NA,left,2805,1,2,1902.199999988079
FF4zVVJu,NA,NA,FF4zVVJu,2020-0188,2021-11-13,23:58:08,01:09:25,NA,incomplete,true,NA,true,0,4,NA,right,E28_Q8_ansR.png,E28_Q3_ansL.png,within,NA,NaN,NA,right,5045.9000000059605,1,0,1943.3999999761581
FF4zVVJu,NA,NA,FF4zVVJu,2020-0188,2021-11-13,23:58:08,01:09:25,NA,incomplete,true,NA,true,0,5,NA,right,E28_Q4_ansL.png,E28_Q10_ansR.png,within,NA,NaN,NA,right,4235.799999982119,1,1,1758.9000000059605
FF4zVVJu,NA,NA,FF4zVVJu,2020-0188,2021-11-13,23:58:08,01:09:25,NA,incomplete,true,NA,true,0,6,NA,left,E7_Q4_ansR.png,E7_Q5_ansR.png,within,NA,NaN,NA,left,4921.9000000059605,1,1,947.1999999880791
FF4zVVJu,NA,NA,FF4zVVJu,2020-0188,2021-11-13,23:58:08,01:09:25,NA,incomplete,true,NA,true,0,7,NA,right,E22_Q10_ansR.png,E22_Q7_ansR.png,within,NA,NaN,NA,left,7564.0999999940395,0,1,1164.300000011921
FF4zVVJu,NA,NA,FF4zVVJu,2020-0188,2021-11-13,23:58:08,01:09:25,NA,incomplete,true,NA,true,0,8,NA,left,E7_Q2_ansL.png,E28_Q10_ansR.png,between,NA,NaN,NA,left,2514.300000011921,1,2,1846.699999988079
FF4zVVJu,NA,NA,FF4zVVJu,2020-0188,2021-11-13,23:58:08,01:09:25,NA,incomplete,true,NA,true,0,9,NA,right,E7_Q4_ansR.png,E7_Q8_ansL.png,within,NA,NaN,NA,right,4546.5999999940395,1,0,1372.5
FF4zVVJu,NA,NA,FF4zVVJu,2020-0188,2021-11-13,23:58:08,01:09:25,NA,incomplete,true,NA,true,0,10,NA,left,E22_Q5_ansL.png,E22_Q3_ansL.png,within,NA,NaN,NA,right,6100.600000023842,0,0,1943.7999999821186
FF4zVVJu,NA,NA,FF4zVVJu,2020-0188,2021-11-13,23:58:08,01:09:25,NA,incomplete,true,NA,true,0,11,NA,left,E7_Q6_ansR.png,E7_Q2_ansL.png,within,NA,NaN,NA,left,3052.699999988079,1,0,2433.2999999821186
FF4zVVJu,NA,NA,FF4zVVJu,2020-0188,2021-11-13,23:58:08,01:09:25,NA,incomplete,true,NA,true,0,12,NA,left,E7_Q10_ansR.png,E7_Q3_ansR.png,within,NA,NaN,NA,left,4042.7000000178814,1,1,2264.800000011921
FF4zVVJu,NA,NA,FF4zVVJu,2020-0188,2021-11-13,23:58:08,01:09:25,NA,incomplete,true,NA,true,0,13,NA,left,E28_Q6_ansL.png,E28_Q9_ansL.png,within,NA,NaN,NA,left,4386,1,0,1236.9000000059605
FF4zVVJu,NA,NA,FF4zVVJu,2020-0188,2021-11-13,23:58:08,01:09:25,NA,incomplete,true,NA,true,0,14,NA,right,E28_Q2_ansR.png,E28_Q8_ansR.png,within,NA,NaN,NA,left,3285.199999988079,0,1,1068.5
FF4zVVJu,NA,NA,FF4zVVJu,2020-0188,2021-11-13,23:58:08,01:09:25,NA,incomplete,true,NA,true,0,15,NA,left,E28_Q5_ansL.png,E22_Q1_ansR.png,between,NA,NaN,NA,left,3453.800000011921,1,2,3028.5999999940395
FF4zVVJu,NA,NA,FF4zVVJu,2020-0188,2021-11-13,23:58:08,01:09:25,NA,incomplete,true,NA,true,0,16,NA,right,E28_Q1_ansR.png,E7_Q7_ansL.png,between,NA,NaN,NA,right,3679.600000023842,1,2,2714.899999976158
FF4zVVJu,NA,NA,FF4zVVJu,2020-0188,2021-11-13,23:58:08,01:09:25,NA,incomplete,true,NA,true,0,17,NA,left,E7_Q1_ansL.png,E7_Q8_ansL.png,within,NA,NaN,NA,left,4607,1,1,1012
FF4zVVJu,NA,NA,FF4zVVJu,2020-0188,2021-11-13,23:58:08,01:09:25,NA,incomplete,true,NA,true,0,18,NA,left,E7_Q5_ansR.png,E28_Q6_ansL.png,between,NA,NaN,NA,left,1984.9000000059605,1,2,2088.9000000059605
FF4zVVJu,NA,NA,FF4zVVJu,2020-0188,2021-11-13,23:58:08,01:09:25,NA,incomplete,true,NA,true,0,19,NA,right,E22_Q5_ansL.png,E22_Q2_ansR.png,within,NA,NaN,NA,right,5415,1,1,2057.7000000178814
FF4zVVJu,NA,NA,FF4zVVJu,2020-0188,2021-11-13,23:58:08,01:09:25,NA,incomplete,true,NA,true,0,20,NA,left,E22_Q9_ansL.png,E22_Q6_ansL.png,within,NA,NaN,NA,right,2812.0999999940395,0,1,1229.5
FF4zVVJu,NA,NA,FF4zVVJu,2020-0188,2021-11-13,23:58:08,01:09:25,NA,incomplete,true,NA,true,0,21,NA,left,E22_Q10_ansR.png,E22_Q4_ansL.png,within,NA,NaN,NA,right,3825,0,1,1574.699999988079
FF4zVVJu,NA,NA,FF4zVVJu,2020-0188,2021-11-13,23:58:08,01:09:25,NA,incomplete,true,NA,true,0,22,NA,left,E7_Q3_ansR.png,E7_Q7_ansL.png,within,NA,NaN,NA,left,3264.100000023842,1,1,1295.800000011921
FF4zVVJu,NA,NA,FF4zVVJu,2020-0188,2021-11-13,23:58:08,01:09:25,NA,incomplete,true,NA,true,0,23,NA,right,E28_Q3_ansL.png,E28_Q1_ansR.png,within,NA,NaN,NA,right,5038.9000000059605,1,1,1083.5999999940395
FF4zVVJu,NA,NA,FF4zVVJu,2020-0188,2021-11-13,23:58:08,01:09:25,NA,incomplete,true,NA,true,0,24,NA,left,E28_Q7_ansR.png,E22_Q7_ansR.png,between,NA,NaN,NA,left,8009.5,1,2,1856.4000000059605
FF4zVVJu,NA,NA,FF4zVVJu,2020-0188,2021-11-13,23:58:08,01:09:25,NA,incomplete,true,NA,true,0,25,NA,left,E7_Q9_ansR.png,E7_Q6_ansR.png,within,NA,NaN,NA,right,4261.9000000059605,0,0,1132.5
FF4zVVJu,NA,NA,FF4zVVJu,2020-0188,2021-11-13,23:58:08,01:09:25,NA,incomplete,true,NA,true,0,26,NA,right,E22_Q9_ansL.png,E22_Q1_ansR.png,within,NA,NaN,NA,left,6992.0999999940395,0,0,1179.699999988079
FF4zVVJu,NA,NA,FF4zVVJu,2020-0188,2021-11-13,23:58:08,01:09:25,NA,incomplete,false,true,NA,1,0,E24_Q9_ansL.png,left,NA,NA,NA,none,0,false,NA,NA,NA,NA,NA
FF4zVVJu,NA,NA,FF4zVVJu,2020-0188,2021-11-13,23:58:08,01:09:25,NA,incomplete,false,true,NA,1,1,E24_Q5_ansL.png,left,NA,NA,NA,left,1388,true,NA,NA,NA,NA,NA
FF4zVVJu,NA,NA,FF4zVVJu,2020-0188,2021-11-13,23:58:08,01:09:25,NA,incomplete,false,true,NA,1,2,E24_Q4_ansL.png,left,NA,NA,NA,left,1562.19999998808,true,NA,NA,NA,NA,NA
FF4zVVJu,NA,NA,FF4zVVJu,2020-0188,2021-11-13,23:58:08,01:09:25,NA,incomplete,false,true,NA,1,3,E24_Q7_ansR.png,right,NA,NA,NA,right,1261.5,true,NA,NA,NA,NA,NA
FF4zVVJu,NA,NA,FF4zVVJu,2020-0188,2021-11-13,23:58:08,01:09:25,NA,incomplete,false,true,NA,1,4,E24_Q8_ansR.png,right,NA,NA,NA,right,1249.5,true,NA,NA,NA,NA,NA
FF4zVVJu,NA,NA,FF4zVVJu,2020-0188,2021-11-13,23:58:08,01:09:25,NA,incomplete,false,true,NA,1,5,E24_Q10_ansR.png,right,NA,NA,NA,right,1427.30000001192,true,NA,NA,NA,NA,NA
FF4zVVJu,NA,NA,FF4zVVJu,2020-0188,2021-11-13,23:58:08,01:09:25,NA,incomplete,false,true,NA,1,6,E24_Q3_ansL.png,left,NA,NA,NA,left,1230.80000001192,true,NA,NA,NA,NA,NA
FF4zVVJu,NA,NA,FF4zVVJu,2020-0188,2021-11-13,23:58:08,01:09:25,NA,incomplete,false,true,NA,1,7,E24_Q1_ansR.png,right,NA,NA,NA,right,1687.5,true,NA,NA,NA,NA,NA
FF4zVVJu,NA,NA,FF4zVVJu,2020-0188,2021-11-13,23:58:08,01:09:25,NA,incomplete,false,true,NA,1,8,E24_Q2_ansR.png,right,NA,NA,NA,right,2167.30000001192,true,NA,NA,NA,NA,NA
FF4zVVJu,NA,NA,FF4zVVJu,2020-0188,2021-11-13,23:58:08,01:09:25,NA,incomplete,false,true,NA,1,9,E24_Q6_ansL.png,left,NA,NA,NA,left,1084.09999999404,true,NA,NA,NA,NA,NA
FF4zVVJu,NA,NA,FF4zVVJu,2020-0188,2021-11-13,23:58:08,01:09:25,NA,incomplete,false,true,NA,1,10,E13_Q1_ansL.png,left,NA,NA,NA,left,1542,true,NA,NA,NA,NA,NA
FF4zVVJu,NA,NA,FF4zVVJu,2020-0188,2021-11-13,23:58:08,01:09:25,NA,incomplete,false,true,NA,1,11,E13_Q5_ansR.png,right,NA,NA,NA,right,1198.19999998808,true,NA,NA,NA,NA,NA
FF4zVVJu,NA,NA,FF4zVVJu,2020-0188,2021-11-13,23:58:08,01:09:25,NA,incomplete,false,true,NA,1,12,E13_Q7_ansL.png,left,NA,NA,NA,left,1508.19999998808,true,NA,NA,NA,NA,NA
FF4zVVJu,NA,NA,FF4zVVJu,2020-0188,2021-11-13,23:58:08,01:09:25,NA,incomplete,false,true,NA,1,13,E13_Q8_ansL.png,left,NA,NA,NA,left,1133.79999998212,true,NA,NA,NA,NA,NA
FF4zVVJu,NA,NA,FF4zVVJu,2020-0188,2021-11-13,23:58:08,01:09:25,NA,incomplete,false,true,NA,1,14,E13_Q3_ansR.png,right,NA,NA,NA,right,1221.69999998808,true,NA,NA,NA,NA,NA
FF4zVVJu,NA,NA,FF4zVVJu,2020-0188,2021-11-13,23:58:08,01:09:25,NA,incomplete,false,true,NA,1,15,E13_Q6_ansR.png,right,NA,NA,NA,right,1234.09999999404,true,NA,NA,NA,NA,NA
FF4zVVJu,NA,NA,FF4zVVJu,2020-0188,2021-11-13,23:58:08,01:09:25,NA,incomplete,false,true,NA,1,16,E13_Q4_ansR.png,right,NA,NA,NA,right,1701.5,true,NA,NA,NA,NA,NA
FF4zVVJu,NA,NA,FF4zVVJu,2020-0188,2021-11-13,23:58:08,01:09:25,NA,incomplete,false,true,NA,1,17,E13_Q2_ansL.png,left,NA,NA,NA,left,1209.09999999404,true,NA,NA,NA,NA,NA
FF4zVVJu,NA,NA,FF4zVVJu,2020-0188,2021-11-13,23:58:08,01:09:25,NA,incomplete,false,true,NA,1,18,E13_Q9_ansR.png,right,NA,NA,NA,right,1420.70000001788,true,NA,NA,NA,NA,NA
FF4zVVJu,NA,NA,FF4zVVJu,2020-0188,2021-11-13,23:58:08,01:09:25,NA,incomplete,false,true,NA,1,19,E13_Q10_ansL.png,left,NA,NA,NA,left,1593.09999999404,true,NA,NA,NA,NA,NA
FF4zVVJu,NA,NA,FF4zVVJu,2020-0188,2021-11-13,23:58:08,01:09:25,NA,incomplete,false,true,NA,1,20,E32_Q2_ansL.png,left,NA,NA,NA,left,1539,true,NA,NA,NA,NA,NA
FF4zVVJu,NA,NA,FF4zVVJu,2020-0188,2021-11-13,23:58:08,01:09:25,NA,incomplete,false,true,NA,1,21,E32_Q7_ansL.png,left,NA,NA,NA,right,1309.30000001192,false,NA,NA,NA,NA,NA
FF4zVVJu,NA,NA,FF4zVVJu,2020-0188,2021-11-13,23:58:08,01:09:25,NA,incomplete,false,true,NA,1,22,E32_Q3_ansR.png,right,NA,NA,NA,right,1239.5,true,NA,NA,NA,NA,NA
FF4zVVJu,NA,NA,FF4zVVJu,2020-0188,2021-11-13,23:58:08,01:09:25,NA,incomplete,false,true,NA,1,23,E32_Q5_ansR.png,right,NA,NA,NA,right,1454.69999998808,true,NA,NA,NA,NA,NA
FF4zVVJu,NA,NA,FF4zVVJu,2020-0188,2021-11-13,23:58:08,01:09:25,NA,incomplete,false,true,NA,1,24,E32_Q4_ansR.png,right,NA,NA,NA,right,1617,true,NA,NA,NA,NA,NA
FF4zVVJu,NA,NA,FF4zVVJu,2020-0188,2021-11-13,23:58:08,01:09:25,NA,incomplete,false,true,NA,1,25,E32_Q1_ansL.png,left,NA,NA,NA,left,1075.80000001192,true,NA,NA,NA,NA,NA
FF4zVVJu,NA,NA,FF4zVVJu,2020-0188,2021-11-13,23:58:08,01:09:25,NA,incomplete,false,true,NA,1,26,E32_Q10_ansL.png,left,NA,NA,NA,left,1715.90000000596,true,NA,NA,NA,NA,NA
FF4zVVJu,NA,NA,FF4zVVJu,2020-0188,2021-11-13,23:58:08,01:09:25,NA,incomplete,false,true,NA,1,27,E32_Q6_ansR.png,right,NA,NA,NA,right,1596,true,NA,NA,NA,NA,NA
FF4zVVJu,NA,NA,FF4zVVJu,2020-0188,2021-11-13,23:58:08,01:09:25,NA,incomplete,false,true,NA,1,28,E32_Q8_ansL.png,left,NA,NA,NA,left,2506.09999999404,true,NA,NA,NA,NA,NA
FF4zVVJu,NA,NA,FF4zVVJu,2020-0188,2021-11-13,23:58:08,01:09:25,NA,incomplete,false,true,NA,1,29,E32_Q9_ansR.png,right,NA,NA,NA,right,1249.40000000596,true,NA,NA,NA,NA,NA
FF4zVVJu,NA,NA,FF4zVVJu,2020-0188,2021-11-13,23:58:08,01:09:25,NA,incomplete,false,NA,true,1,0,NA,right,E13_Q1_ansL.png,E24_Q1_ansR.png,between,NA,NaN,NA,right,4937.9000000059605,1,2,2795.199999988079
FF4zVVJu,NA,NA,FF4zVVJu,2020-0188,2021-11-13,23:58:08,01:09:25,NA,incomplete,false,NA,true,1,1,NA,left,E13_Q6_ansR.png,E13_Q9_ansR.png,within,NA,NaN,NA,left,4054.699999988079,1,1,1212.4000000059605
FF4zVVJu,NA,NA,FF4zVVJu,2020-0188,2021-11-13,23:58:08,01:09:25,NA,incomplete,false,NA,true,1,2,NA,left,E24_Q5_ansL.png,E24_Q8_ansR.png,within,NA,NaN,NA,left,4678.300000011921,1,0,1573.9000000059605
FF4zVVJu,NA,NA,FF4zVVJu,2020-0188,2021-11-13,23:58:08,01:09:25,NA,incomplete,false,NA,true,1,3,NA,left,E24_Q10_ansR.png,E24_Q2_ansR.png,within,NA,NaN,NA,right,6389.899999976158,0,0,1212.5999999940395
FF4zVVJu,NA,NA,FF4zVVJu,2020-0188,2021-11-13,23:58:08,01:09:25,NA,incomplete,false,NA,true,1,4,NA,left,E13_Q8_ansL.png,E13_Q4_ansR.png,within,NA,NaN,NA,left,2939.7999999821186,1,1,1140.699999988079
FF4zVVJu,NA,NA,FF4zVVJu,2020-0188,2021-11-13,23:58:08,01:09:25,NA,incomplete,false,NA,true,1,5,NA,left,E13_Q5_ansR.png,E13_Q3_ansR.png,within,NA,NaN,NA,left,2249,1,0,1782.5999999940395
FF4zVVJu,NA,NA,FF4zVVJu,2020-0188,2021-11-13,23:58:08,01:09:25,NA,incomplete,false,NA,true,1,6,NA,right,E32_Q7_ansL.png,E13_Q9_ansR.png,between,NA,NaN,NA,right,3011.800000011921,1,2,899.2999999821186
FF4zVVJu,NA,NA,FF4zVVJu,2020-0188,2021-11-13,23:58:08,01:09:25,NA,incomplete,false,NA,true,1,7,NA,left,E32_Q4_ansR.png,E32_Q6_ansR.png,within,NA,NaN,NA,left,4450.700000017881,1,0,1244.5
FF4zVVJu,NA,NA,FF4zVVJu,2020-0188,2021-11-13,23:58:08,01:09:25,NA,incomplete,false,NA,true,1,8,NA,left,E32_Q2_ansL.png,E32_Q5_ansR.png,within,NA,NaN,NA,left,8686.299999982119,1,1,2305.4000000059605
FF4zVVJu,NA,NA,FF4zVVJu,2020-0188,2021-11-13,23:58:08,01:09:25,NA,incomplete,false,NA,true,1,9,NA,left,E32_Q10_ansL.png,E32_Q9_ansR.png,within,NA,NaN,NA,left,5005.899999976158,1,1,1382.4000000059605
FF4zVVJu,NA,NA,FF4zVVJu,2020-0188,2021-11-13,23:58:08,01:09:25,NA,incomplete,false,NA,true,1,10,NA,right,E24_Q6_ansL.png,E24_Q3_ansL.png,within,NA,NaN,NA,right,4305.9000000059605,1,1,1052.4000000059605
FF4zVVJu,NA,NA,FF4zVVJu,2020-0188,2021-11-13,23:58:08,01:09:25,NA,incomplete,false,NA,true,1,11,NA,left,E24_Q2_ansR.png,E13_Q5_ansR.png,between,NA,NaN,NA,left,3543.4000000059605,1,2,931
FF4zVVJu,NA,NA,FF4zVVJu,2020-0188,2021-11-13,23:58:08,01:09:25,NA,incomplete,false,NA,true,1,12,NA,right,E13_Q10_ansL.png,E13_Q4_ansR.png,within,NA,NaN,NA,right,4954.699999988079,1,1,1132.199999988079
FF4zVVJu,NA,NA,FF4zVVJu,2020-0188,2021-11-13,23:58:08,01:09:25,NA,incomplete,false,NA,true,1,13,NA,left,E32_Q3_ansR.png,E32_Q1_ansL.png,within,NA,NaN,NA,left,6082.5999999940395,1,1,1475
FF4zVVJu,NA,NA,FF4zVVJu,2020-0188,2021-11-13,23:58:08,01:09:25,NA,incomplete,false,NA,true,1,14,NA,left,E13_Q2_ansL.png,E32_Q2_ansL.png,between,NA,NaN,NA,left,3132.7000000178814,1,2,2306.5
FF4zVVJu,NA,NA,FF4zVVJu,2020-0188,2021-11-13,23:58:08,01:09:25,NA,incomplete,false,NA,true,1,15,NA,right,E32_Q8_ansL.png,E32_Q1_ansL.png,within,NA,NaN,NA,left,3389.300000011921,0,1,995.4000000059605
FF4zVVJu,NA,NA,FF4zVVJu,2020-0188,2021-11-13,23:58:08,01:09:25,NA,incomplete,false,NA,true,1,16,NA,left,E32_Q7_ansL.png,E32_Q4_ansR.png,within,NA,NaN,NA,left,3423.0999999940395,1,1,1140.7999999821186
FF4zVVJu,NA,NA,FF4zVVJu,2020-0188,2021-11-13,23:58:08,01:09:25,NA,incomplete,false,NA,true,1,17,NA,left,E13_Q3_ansR.png,E13_Q2_ansL.png,within,NA,NaN,NA,left,2587.9000000059605,1,1,1566.5999999940395
FF4zVVJu,NA,NA,FF4zVVJu,2020-0188,2021-11-13,23:58:08,01:09:25,NA,incomplete,false,NA,true,1,18,NA,right,E24_Q10_ansR.png,E24_Q4_ansL.png,within,NA,NaN,NA,right,3140.699999988079,1,0,1704
FF4zVVJu,NA,NA,FF4zVVJu,2020-0188,2021-11-13,23:58:08,01:09:25,NA,incomplete,false,NA,true,1,19,NA,left,E24_Q9_ansL.png,E24_Q7_ansR.png,within,NA,NaN,NA,left,3217.4000000059605,1,1,1003.2999999821186
FF4zVVJu,NA,NA,FF4zVVJu,2020-0188,2021-11-13,23:58:08,01:09:25,NA,incomplete,false,NA,true,1,20,NA,right,E24_Q3_ansL.png,E24_Q7_ansR.png,within,NA,NaN,NA,right,2531.4000000059605,1,1,978.7999999821186
FF4zVVJu,NA,NA,FF4zVVJu,2020-0188,2021-11-13,23:58:08,01:09:25,NA,incomplete,false,NA,true,1,21,NA,right,E24_Q1_ansR.png,E24_Q8_ansR.png,within,NA,NaN,NA,left,3952.699999988079,0,0,1116.9000000059605
FF4zVVJu,NA,NA,FF4zVVJu,2020-0188,2021-11-13,23:58:08,01:09:25,NA,incomplete,false,NA,true,1,22,NA,left,E13_Q1_ansL.png,E13_Q8_ansL.png,within,NA,NaN,NA,left,2932.5999999940395,1,0,1261.300000011921
FF4zVVJu,NA,NA,FF4zVVJu,2020-0188,2021-11-13,23:58:08,01:09:25,NA,incomplete,false,NA,true,1,23,NA,right,E13_Q7_ansL.png,E24_Q6_ansL.png,between,NA,NaN,NA,right,3526.600000023842,1,2,1759.5999999940395
FF4zVVJu,NA,NA,FF4zVVJu,2020-0188,2021-11-13,23:58:08,01:09:25,NA,incomplete,false,NA,true,1,24,NA,left,E32_Q5_ansR.png,E32_Q10_ansL.png,within,NA,NaN,NA,left,3472.2999999821186,1,1,1694.300000011921
FF4zVVJu,NA,NA,FF4zVVJu,2020-0188,2021-11-13,23:58:08,01:09:25,NA,incomplete,false,NA,true,1,25,NA,left,E13_Q10_ansL.png,E32_Q3_ansR.png,between,NA,NaN,NA,left,5200.200000017881,1,2,1654.5
FF4zVVJu,NA,NA,FF4zVVJu,2020-0188,2021-11-13,23:58:08,01:09:25,NA,incomplete,false,NA,true,1,26,NA,right,E13_Q6_ansR.png,E13_Q7_ansL.png,within,NA,NaN,NA,left,2522.2999999821186,0,0,1237.0999999940395
FF4zVVJu,NA,NA,FF4zVVJu,2020-0188,2021-11-13,23:58:08,01:09:25,NA,incomplete,false,true,NA,2,0,E15_Q2_ansL.png,left,NA,NA,NA,left,1906.09999999404,true,NA,NA,NA,NA,NA
FF4zVVJu,NA,NA,FF4zVVJu,2020-0188,2021-11-13,23:58:08,01:09:25,NA,incomplete,false,true,NA,2,1,E15_Q4_ansR.png,right,NA,NA,NA,left,2576.20000001788,false,NA,NA,NA,NA,NA
FF4zVVJu,NA,NA,FF4zVVJu,2020-0188,2021-11-13,23:58:08,01:09:25,NA,incomplete,false,true,NA,2,2,E15_Q10_ansL.png,left,NA,NA,NA,left,1517.59999999404,true,NA,NA,NA,NA,NA
FF4zVVJu,NA,NA,FF4zVVJu,2020-0188,2021-11-13,23:58:08,01:09:25,NA,incomplete,false,true,NA,2,3,E15_Q3_ansR.png,right,NA,NA,NA,left,2349.19999998808,false,NA,NA,NA,NA,NA
FF4zVVJu,NA,NA,FF4zVVJu,2020-0188,2021-11-13,23:58:08,01:09:25,NA,incomplete,false,true,NA,2,4,E15_Q9_ansR.png,right,NA,NA,NA,right,2917.90000000596,true,NA,NA,NA,NA,NA
FF4zVVJu,NA,NA,FF4zVVJu,2020-0188,2021-11-13,23:58:08,01:09:25,NA,incomplete,false,true,NA,2,5,E15_Q7_ansL.png,left,NA,NA,NA,left,1200.5,true,NA,NA,NA,NA,NA
FF4zVVJu,NA,NA,FF4zVVJu,2020-0188,2021-11-13,23:58:08,01:09:25,NA,incomplete,false,true,NA,2,6,E15_Q1_ansL.png,left,NA,NA,NA,none,0,false,NA,NA,NA,NA,NA
FF4zVVJu,NA,NA,FF4zVVJu,2020-0188,2021-11-13,23:58:08,01:09:25,NA,incomplete,false,true,NA,2,7,E15_Q5_ansR.png,right,NA,NA,NA,right,1754,true,NA,NA,NA,NA,NA
FF4zVVJu,NA,NA,FF4zVVJu,2020-0188,2021-11-13,23:58:08,01:09:25,NA,incomplete,false,true,NA,2,8,E15_Q6_ansR.png,right,NA,NA,NA,left,2776.09999999404,false,NA,NA,NA,NA,NA
FF4zVVJu,NA,NA,FF4zVVJu,2020-0188,2021-11-13,23:58:08,01:09:25,NA,incomplete,false,true,NA,2,9,E15_Q8_ansL.png,left,NA,NA,NA,left,1508.79999998212,true,NA,NA,NA,NA,NA
FF4zVVJu,NA,NA,FF4zVVJu,2020-0188,2021-11-13,23:58:08,01:09:25,NA,incomplete,false,true,NA,2,10,E5_Q8_ansL.png,left,NA,NA,NA,left,1954.09999999404,true,NA,NA,NA,NA,NA
FF4zVVJu,NA,NA,FF4zVVJu,2020-0188,2021-11-13,23:58:08,01:09:25,NA,incomplete,false,true,NA,2,11,E5_Q2_ansL.png,left,NA,NA,NA,left,1793.90000000596,true,NA,NA,NA,NA,NA
FF4zVVJu,NA,NA,FF4zVVJu,2020-0188,2021-11-13,23:58:08,01:09:25,NA,incomplete,false,true,NA,2,12,E5_Q10_ansR.png,right,NA,NA,NA,right,1248.69999998808,true,NA,NA,NA,NA,NA
FF4zVVJu,NA,NA,FF4zVVJu,2020-0188,2021-11-13,23:58:08,01:09:25,NA,incomplete,false,true,NA,2,13,E5_Q1_ansL.png,left,NA,NA,NA,left,1200.80000001192,true,NA,NA,NA,NA,NA
FF4zVVJu,NA,NA,FF4zVVJu,2020-0188,2021-11-13,23:58:08,01:09:25,NA,incomplete,false,true,NA,2,14,E5_Q7_ansL.png,left,NA,NA,NA,left,1008.40000000596,true,NA,NA,NA,NA,NA
FF4zVVJu,NA,NA,FF4zVVJu,2020-0188,2021-11-13,23:58:08,01:09:25,NA,incomplete,false,true,NA,2,15,E5_Q3_ansR.png,right,NA,NA,NA,right,1306.70000001788,true,NA,NA,NA,NA,NA
FF4zVVJu,NA,NA,FF4zVVJu,2020-0188,2021-11-13,23:58:08,01:09:25,NA,incomplete,false,true,NA,2,16,E5_Q9_ansR.png,right,NA,NA,NA,right,1226.40000000596,true,NA,NA,NA,NA,NA
FF4zVVJu,NA,NA,FF4zVVJu,2020-0188,2021-11-13,23:58:08,01:09:25,NA,incomplete,false,true,NA,2,17,E5_Q6_ansR.png,right,NA,NA,NA,right,1527.5,true,NA,NA,NA,NA,NA
FF4zVVJu,NA,NA,FF4zVVJu,2020-0188,2021-11-13,23:58:08,01:09:25,NA,incomplete,false,true,NA,2,18,E5_Q4_ansR.png,right,NA,NA,NA,right,2147.60000002384,true,NA,NA,NA,NA,NA
FF4zVVJu,NA,NA,FF4zVVJu,2020-0188,2021-11-13,23:58:08,01:09:25,NA,incomplete,false,true,NA,2,19,E5_Q5_ansR.png,right,NA,NA,NA,right,1398.70000001788,true,NA,NA,NA,NA,NA
FF4zVVJu,NA,NA,FF4zVVJu,2020-0188,2021-11-13,23:58:08,01:09:25,NA,incomplete,false,true,NA,2,20,E14_Q1_ansL.png,left,NA,NA,NA,left,2007.59999999404,true,NA,NA,NA,NA,NA
FF4zVVJu,NA,NA,FF4zVVJu,2020-0188,2021-11-13,23:58:08,01:09:25,NA,incomplete,false,true,NA,2,21,E14_Q7_ansL.png,left,NA,NA,NA,left,1279.69999998808,true,NA,NA,NA,NA,NA
FF4zVVJu,NA,NA,FF4zVVJu,2020-0188,2021-11-13,23:58:08,01:09:25,NA,incomplete,false,true,NA,2,22,E14_Q6_ansR.png,right,NA,NA,NA,right,2013.20000001788,true,NA,NA,NA,NA,NA
FF4zVVJu,NA,NA,FF4zVVJu,2020-0188,2021-11-13,23:58:08,01:09:25,NA,incomplete,false,true,NA,2,23,E14_Q10_ansL.png,left,NA,NA,NA,left,1678.29999998212,true,NA,NA,NA,NA,NA
FF4zVVJu,NA,NA,FF4zVVJu,2020-0188,2021-11-13,23:58:08,01:09:25,NA,incomplete,false,true,NA,2,24,E14_Q9_ansR.png,right,NA,NA,NA,right,1389.80000001192,true,NA,NA,NA,NA,NA
FF4zVVJu,NA,NA,FF4zVVJu,2020-0188,2021-11-13,23:58:08,01:09:25,NA,incomplete,false,true,NA,2,25,E14_Q2_ansL.png,left,NA,NA,NA,left,1416.69999998808,true,NA,NA,NA,NA,NA
FF4zVVJu,NA,NA,FF4zVVJu,2020-0188,2021-11-13,23:58:08,01:09:25,NA,incomplete,false,true,NA,2,26,E14_Q3_ansR.png,right,NA,NA,NA,right,1297.59999999404,true,NA,NA,NA,NA,NA
FF4zVVJu,NA,NA,FF4zVVJu,2020-0188,2021-11-13,23:58:08,01:09:25,NA,incomplete,false,true,NA,2,27,E14_Q8_ansL.png,left,NA,NA,NA,left,1147.5,true,NA,NA,NA,NA,NA
FF4zVVJu,NA,NA,FF4zVVJu,2020-0188,2021-11-13,23:58:08,01:09:25,NA,incomplete,false,true,NA,2,28,E14_Q4_ansR.png,right,NA,NA,NA,right,1316.69999998808,true,NA,NA,NA,NA,NA
FF4zVVJu,NA,NA,FF4zVVJu,2020-0188,2021-11-13,23:58:08,01:09:25,NA,incomplete,false,true,NA,2,29,E14_Q5_ansR.png,right,NA,NA,NA,right,1515.5,true,NA,NA,NA,NA,NA
FF4zVVJu,NA,NA,FF4zVVJu,2020-0188,2021-11-13,23:58:08,01:09:25,NA,incomplete,false,NA,true,2,0,NA,left,E14_Q6_ansR.png,E14_Q2_ansL.png,within,NA,NaN,NA,right,7535.4000000059605,0,0,1412.8999999761581
FF4zVVJu,NA,NA,FF4zVVJu,2020-0188,2021-11-13,23:58:08,01:09:25,NA,incomplete,false,NA,true,2,1,NA,right,E5_Q1_ansL.png,E5_Q8_ansL.png,within,NA,NaN,NA,right,2416.9000000059605,1,1,2690.699999988079
FF4zVVJu,NA,NA,FF4zVVJu,2020-0188,2021-11-13,23:58:08,01:09:25,NA,incomplete,false,NA,true,2,2,NA,left,E15_Q5_ansR.png,E5_Q8_ansL.png,between,NA,NaN,NA,left,3285.5,1,2,1036.4000000059605
FF4zVVJu,NA,NA,FF4zVVJu,2020-0188,2021-11-13,23:58:08,01:09:25,NA,incomplete,false,NA,true,2,3,NA,right,E5_Q10_ansR.png,E15_Q8_ansL.png,between,NA,NaN,NA,right,2144.7000000178814,1,2,1003.9000000059605
FF4zVVJu,NA,NA,FF4zVVJu,2020-0188,2021-11-13,23:58:08,01:09:25,NA,incomplete,false,NA,true,2,4,NA,left,E14_Q7_ansL.png,E14_Q9_ansR.png,within,NA,NaN,NA,left,3309.5999999940395,1,1,1862.699999988079
FF4zVVJu,NA,NA,FF4zVVJu,2020-0188,2021-11-13,23:58:08,01:09:25,NA,incomplete,false,NA,true,2,5,NA,left,E14_Q9_ansR.png,E14_Q8_ansL.png,within,NA,NaN,NA,left,2530.2999999821186,1,1,1340.7000000178814
FF4zVVJu,NA,NA,FF4zVVJu,2020-0188,2021-11-13,23:58:08,01:09:25,NA,incomplete,false,NA,true,2,6,NA,right,E5_Q6_ansR.png,E5_Q7_ansL.png,within,NA,NaN,NA,left,2698.5,0,1,1179.5
FF4zVVJu,NA,NA,FF4zVVJu,2020-0188,2021-11-13,23:58:08,01:09:25,NA,incomplete,false,NA,true,2,7,NA,right,E5_Q5_ansR.png,E5_Q9_ansR.png,within,NA,NaN,NA,left,4859.0999999940395,0,1,1204.699999988079
FF4zVVJu,NA,NA,FF4zVVJu,2020-0188,2021-11-13,23:58:08,01:09:25,NA,incomplete,false,NA,true,2,8,NA,right,E5_Q7_ansL.png,E5_Q2_ansL.png,within,NA,NaN,NA,right,2007.199999988079,1,1,1630.7000000178814
FF4zVVJu,NA,NA,FF4zVVJu,2020-0188,2021-11-13,23:58:08,01:09:25,NA,incomplete,false,NA,true,2,9,NA,right,E15_Q6_ansR.png,E15_Q7_ansL.png,within,NA,NaN,NA,right,3325.5,1,0,1229.0999999940395
FF4zVVJu,NA,NA,FF4zVVJu,2020-0188,2021-11-13,23:58:08,01:09:25,NA,incomplete,false,NA,true,2,10,NA,left,E14_Q2_ansL.png,E14_Q4_ansR.png,within,NA,NaN,NA,left,2835.699999988079,1,1,1974.5
FF4zVVJu,NA,NA,FF4zVVJu,2020-0188,2021-11-13,23:58:08,01:09:25,NA,incomplete,false,NA,true,2,11,NA,left,E15_Q3_ansR.png,E15_Q1_ansL.png,within,NA,NaN,NA,right,5413.300000011921,0,0,1036.4000000059605
FF4zVVJu,NA,NA,FF4zVVJu,2020-0188,2021-11-13,23:58:08,01:09:25,NA,incomplete,false,NA,true,2,12,NA,left,E15_Q10_ansL.png,E15_Q7_ansL.png,within,NA,NaN,NA,left,2345.0999999940395,1,0,1035.300000011921
FF4zVVJu,NA,NA,FF4zVVJu,2020-0188,2021-11-13,23:58:08,01:09:25,NA,incomplete,false,NA,true,2,13,NA,right,E5_Q4_ansR.png,E5_Q3_ansR.png,within,NA,NaN,NA,right,1935.2999999821186,1,0,2177.0999999940395
FF4zVVJu,NA,NA,FF4zVVJu,2020-0188,2021-11-13,23:58:08,01:09:25,NA,incomplete,false,NA,true,2,14,NA,right,E15_Q5_ansR.png,E15_Q9_ansR.png,within,NA,NaN,NA,left,4684.5999999940395,0,1,2152.7999999821186
FF4zVVJu,NA,NA,FF4zVVJu,2020-0188,2021-11-13,23:58:08,01:09:25,NA,incomplete,false,NA,true,2,15,NA,left,E15_Q1_ansL.png,E15_Q8_ansL.png,within,NA,NaN,NA,right,2008.199999988079,0,0,1171.5
FF4zVVJu,NA,NA,FF4zVVJu,2020-0188,2021-11-13,23:58:08,01:09:25,NA,incomplete,false,NA,true,2,16,NA,left,E14_Q10_ansL.png,E14_Q3_ansR.png,within,NA,NaN,NA,left,5584.9000000059605,1,0,2296.7000000178814
FF4zVVJu,NA,NA,FF4zVVJu,2020-0188,2021-11-13,23:58:08,01:09:25,NA,incomplete,false,NA,true,2,17,NA,right,E14_Q5_ansR.png,E14_Q3_ansR.png,within,NA,NaN,NA,right,2241.5,1,1,1412.699999988079
FF4zVVJu,NA,NA,FF4zVVJu,2020-0188,2021-11-13,23:58:08,01:09:25,NA,incomplete,false,NA,true,2,18,NA,right,E14_Q7_ansL.png,E5_Q4_ansR.png,between,NA,NaN,NA,right,4040.4000000059605,1,1,5582.5999999940395
FF4zVVJu,NA,NA,FF4zVVJu,2020-0188,2021-11-13,23:58:08,01:09:25,NA,incomplete,false,NA,true,2,19,NA,left,E5_Q10_ansR.png,E5_Q3_ansR.png,within,NA,NaN,NA,left,2924.199999988079,1,1,1613.5999999940395
FF4zVVJu,NA,NA,FF4zVVJu,2020-0188,2021-11-13,23:58:08,01:09:25,NA,incomplete,false,NA,true,2,20,NA,right,E15_Q3_ansR.png,E15_Q2_ansL.png,within,NA,NaN,NA,right,2321,1,1,955.9000000059605
FF4zVVJu,NA,NA,FF4zVVJu,2020-0188,2021-11-13,23:58:08,01:09:25,NA,incomplete,false,NA,true,2,21,NA,left,E15_Q6_ansR.png,E5_Q2_ansL.png,between,NA,NaN,NA,left,3043.9000000059605,1,2,2128.699999988079
FF4zVVJu,NA,NA,FF4zVVJu,2020-0188,2021-11-13,23:58:08,01:09:25,NA,incomplete,false,NA,true,2,22,NA,right,E5_Q9_ansR.png,E5_Q1_ansL.png,within,NA,NaN,NA,left,4920,0,1,1074.7999999821186
FF4zVVJu,NA,NA,FF4zVVJu,2020-0188,2021-11-13,23:58:08,01:09:25,NA,incomplete,false,NA,true,2,23,NA,right,E14_Q1_ansL.png,E5_Q6_ansR.png,between,NA,NaN,NA,right,1703.4000000059605,1,1,2738.5999999940395
FF4zVVJu,NA,NA,FF4zVVJu,2020-0188,2021-11-13,23:58:08,01:09:25,NA,incomplete,false,NA,true,2,24,NA,right,E14_Q6_ansR.png,E5_Q5_ansR.png,between,NA,NaN,NA,right,4650.9000000059605,1,2,996.4000000059605
FF4zVVJu,NA,NA,FF4zVVJu,2020-0188,2021-11-13,23:58:08,01:09:25,NA,incomplete,false,NA,true,2,25,NA,left,E14_Q1_ansL.png,E14_Q10_ansL.png,within,NA,NaN,NA,left,2151.9000000059605,1,1,1051.699999988079
FF4zVVJu,NA,NA,FF4zVVJu,2020-0188,2021-11-13,23:58:08,01:09:25,NA,incomplete,false,NA,true,2,26,NA,left,E15_Q4_ansR.png,E15_Q9_ansR.png,within,NA,NaN,NA,left,5045.700000017881,1,1,3999.9000000059605
FF4zVVJu,NA,NA,FF4zVVJu,2020-0188,2021-11-13,23:58:08,01:09:25,NA,incomplete,false,true,NA,3,0,E19_Q7_ansL.png,left,NA,NA,NA,left,1917.40000000596,true,NA,NA,NA,NA,NA
FF4zVVJu,NA,NA,FF4zVVJu,2020-0188,2021-11-13,23:58:08,01:09:25,NA,incomplete,false,true,NA,3,1,E19_Q5_ansR.png,right,NA,NA,NA,right,1309.80000001192,true,NA,NA,NA,NA,NA
FF4zVVJu,NA,NA,FF4zVVJu,2020-0188,2021-11-13,23:58:08,01:09:25,NA,incomplete,false,true,NA,3,2,E19_Q4_ansR.png,right,NA,NA,NA,right,1791,true,NA,NA,NA,NA,NA
FF4zVVJu,NA,NA,FF4zVVJu,2020-0188,2021-11-13,23:58:08,01:09:25,NA,incomplete,false,true,NA,3,3,E19_Q6_ansR.png,right,NA,NA,NA,right,1556.79999998212,true,NA,NA,NA,NA,NA
FF4zVVJu,NA,NA,FF4zVVJu,2020-0188,2021-11-13,23:58:08,01:09:25,NA,incomplete,false,true,NA,3,4,E19_Q2_ansL.png,left,NA,NA,NA,left,1205.90000000596,true,NA,NA,NA,NA,NA
FF4zVVJu,NA,NA,FF4zVVJu,2020-0188,2021-11-13,23:58:08,01:09:25,NA,incomplete,false,true,NA,3,5,E19_Q10_ansL.png,left,NA,NA,NA,left,1568.69999998808,true,NA,NA,NA,NA,NA
FF4zVVJu,NA,NA,FF4zVVJu,2020-0188,2021-11-13,23:58:08,01:09:25,NA,incomplete,false,true,NA,3,6,E19_Q8_ansL.png,left,NA,NA,NA,left,1481.80000001192,true,NA,NA,NA,NA,NA
FF4zVVJu,NA,NA,FF4zVVJu,2020-0188,2021-11-13,23:58:08,01:09:25,NA,incomplete,false,true,NA,3,7,E19_Q1_ansL.png,left,NA,NA,NA,left,1234.90000000596,true,NA,NA,NA,NA,NA
FF4zVVJu,NA,NA,FF4zVVJu,2020-0188,2021-11-13,23:58:08,01:09:25,NA,incomplete,false,true,NA,3,8,E19_Q9_ansR.png,right,NA,NA,NA,right,1402.60000002384,true,NA,NA,NA,NA,NA
FF4zVVJu,NA,NA,FF4zVVJu,2020-0188,2021-11-13,23:58:08,01:09:25,NA,incomplete,false,true,NA,3,9,E19_Q3_ansR.png,right,NA,NA,NA,right,1125.59999999404,true,NA,NA,NA,NA,NA
FF4zVVJu,NA,NA,FF4zVVJu,2020-0188,2021-11-13,23:58:08,01:09:25,NA,incomplete,false,true,NA,3,10,E11_Q5_ansL.png,left,NA,NA,NA,left,2232.90000000596,true,NA,NA,NA,NA,NA
FF4zVVJu,NA,NA,FF4zVVJu,2020-0188,2021-11-13,23:58:08,01:09:25,NA,incomplete,false,true,NA,3,11,E11_Q8_ansR.png,right,NA,NA,NA,right,2487.20000001788,true,NA,NA,NA,NA,NA
FF4zVVJu,NA,NA,FF4zVVJu,2020-0188,2021-11-13,23:58:08,01:09:25,NA,incomplete,false,true,NA,3,12,E11_Q1_ansR.png,right,NA,NA,NA,right,1544.19999998808,true,NA,NA,NA,NA,NA
FF4zVVJu,NA,NA,FF4zVVJu,2020-0188,2021-11-13,23:58:08,01:09:25,NA,incomplete,false,true,NA,3,13,E11_Q2_ansR.png,right,NA,NA,NA,right,1496.20000001788,true,NA,NA,NA,NA,NA
FF4zVVJu,NA,NA,FF4zVVJu,2020-0188,2021-11-13,23:58:08,01:09:25,NA,incomplete,false,true,NA,3,14,E11_Q9_ansL.png,left,NA,NA,NA,left,1268.69999998808,true,NA,NA,NA,NA,NA
FF4zVVJu,NA,NA,FF4zVVJu,2020-0188,2021-11-13,23:58:08,01:09:25,NA,incomplete,false,true,NA,3,15,E11_Q6_ansL.png,left,NA,NA,NA,left,1482.39999997616,true,NA,NA,NA,NA,NA
FF4zVVJu,NA,NA,FF4zVVJu,2020-0188,2021-11-13,23:58:08,01:09:25,NA,incomplete,false,true,NA,3,16,E11_Q7_ansR.png,right,NA,NA,NA,right,2015.09999999404,true,NA,NA,NA,NA,NA
FF4zVVJu,NA,NA,FF4zVVJu,2020-0188,2021-11-13,23:58:08,01:09:25,NA,incomplete,false,true,NA,3,17,E11_Q3_ansL.png,left,NA,NA,NA,left,1157.80000001192,true,NA,NA,NA,NA,NA
FF4zVVJu,NA,NA,FF4zVVJu,2020-0188,2021-11-13,23:58:08,01:09:25,NA,incomplete,false,true,NA,3,18,E11_Q4_ansL.png,left,NA,NA,NA,left,1194.19999998808,true,NA,NA,NA,NA,NA
FF4zVVJu,NA,NA,FF4zVVJu,2020-0188,2021-11-13,23:58:08,01:09:25,NA,incomplete,false,true,NA,3,19,E11_Q10_ansR.png,right,NA,NA,NA,right,1652.70000001788,true,NA,NA,NA,NA,NA
FF4zVVJu,NA,NA,FF4zVVJu,2020-0188,2021-11-13,23:58:08,01:09:25,NA,incomplete,false,true,NA,3,20,E6_Q2_ansL.png,left,NA,NA,NA,left,1602.70000001788,true,NA,NA,NA,NA,NA
FF4zVVJu,NA,NA,FF4zVVJu,2020-0188,2021-11-13,23:58:08,01:09:25,NA,incomplete,false,true,NA,3,21,E6_Q10_ansL.png,left,NA,NA,NA,left,1452.19999998808,true,NA,NA,NA,NA,NA
FF4zVVJu,NA,NA,FF4zVVJu,2020-0188,2021-11-13,23:58:08,01:09:25,NA,incomplete,false,true,NA,3,22,E6_Q1_ansL.png,left,NA,NA,NA,left,1417.19999998808,true,NA,NA,NA,NA,NA
FF4zVVJu,NA,NA,FF4zVVJu,2020-0188,2021-11-13,23:58:08,01:09:25,NA,incomplete,false,true,NA,3,23,E6_Q9_ansL.png,left,NA,NA,NA,left,1196.80000001192,true,NA,NA,NA,NA,NA
FF4zVVJu,NA,NA,FF4zVVJu,2020-0188,2021-11-13,23:58:08,01:09:25,NA,incomplete,false,true,NA,3,24,E6_Q6_ansR.png,right,NA,NA,NA,right,1383.09999999404,true,NA,NA,NA,NA,NA
FF4zVVJu,NA,NA,FF4zVVJu,2020-0188,2021-11-13,23:58:08,01:09:25,NA,incomplete,false,true,NA,3,25,E6_Q8_ansL.png,left,NA,NA,NA,left,1149.40000000596,true,NA,NA,NA,NA,NA
FF4zVVJu,NA,NA,FF4zVVJu,2020-0188,2021-11-13,23:58:08,01:09:25,NA,incomplete,false,true,NA,3,26,E6_Q5_ansR.png,right,NA,NA,NA,right,1291.30000001192,true,NA,NA,NA,NA,NA
FF4zVVJu,NA,NA,FF4zVVJu,2020-0188,2021-11-13,23:58:08,01:09:25,NA,incomplete,false,true,NA,3,27,E6_Q7_ansL.png,left,NA,NA,NA,left,1275.30000001192,true,NA,NA,NA,NA,NA
FF4zVVJu,NA,NA,FF4zVVJu,2020-0188,2021-11-13,23:58:08,01:09:25,NA,incomplete,false,true,NA,3,28,E6_Q3_ansR.png,right,NA,NA,NA,right,1141,true,NA,NA,NA,NA,NA
FF4zVVJu,NA,NA,FF4zVVJu,2020-0188,2021-11-13,23:58:08,01:09:25,NA,incomplete,false,true,NA,3,29,E6_Q4_ansR.png,right,NA,NA,NA,right,1478.69999998808,true,NA,NA,NA,NA,NA
FF4zVVJu,NA,NA,FF4zVVJu,2020-0188,2021-11-13,23:58:08,01:09:25,NA,incomplete,false,NA,true,3,0,NA,right,E6_Q5_ansR.png,E6_Q9_ansL.png,within,NA,NaN,NA,right,7339.100000023842,1,0,2048.4000000059605
FF4zVVJu,NA,NA,FF4zVVJu,2020-0188,2021-11-13,23:58:08,01:09:25,NA,incomplete,false,NA,true,3,1,NA,right,E19_Q6_ansR.png,E19_Q7_ansL.png,within,NA,NaN,NA,right,2120.4000000059605,1,0,1390.9000000059605
FF4zVVJu,NA,NA,FF4zVVJu,2020-0188,2021-11-13,23:58:08,01:09:25,NA,incomplete,false,NA,true,3,2,NA,left,E19_Q4_ansR.png,E19_Q10_ansL.png,within,NA,NaN,NA,left,2843.9000000059605,1,0,890.4000000059605
FF4zVVJu,NA,NA,FF4zVVJu,2020-0188,2021-11-13,23:58:08,01:09:25,NA,incomplete,false,NA,true,3,3,NA,right,E6_Q7_ansL.png,E6_Q6_ansR.png,within,NA,NaN,NA,right,2056.4000000059605,1,0,1261.699999988079
FF4zVVJu,NA,NA,FF4zVVJu,2020-0188,2021-11-13,23:58:08,01:09:25,NA,incomplete,false,NA,true,3,4,NA,left,E11_Q6_ansL.png,E11_Q4_ansL.png,within,NA,NaN,NA,right,2587,0,0,1084.5999999940395
FF4zVVJu,NA,NA,FF4zVVJu,2020-0188,2021-11-13,23:58:08,01:09:25,NA,incomplete,false,NA,true,3,5,NA,left,E11_Q4_ansL.png,E6_Q10_ansL.png,between,NA,NaN,NA,left,15906.199999988079,1,2,2706.4000000059605
FF4zVVJu,NA,NA,FF4zVVJu,2020-0188,2021-11-13,23:58:08,01:09:25,NA,incomplete,false,NA,true,3,6,NA,left,E19_Q2_ansL.png,E19_Q1_ansL.png,within,NA,NaN,NA,left,2225.2999999821186,1,0,1132.5
FF4zVVJu,NA,NA,FF4zVVJu,2020-0188,2021-11-13,23:58:08,01:09:25,NA,incomplete,false,NA,true,3,7,NA,left,E19_Q10_ansL.png,E19_Q9_ansR.png,within,NA,NaN,NA,left,3431.100000023842,1,1,2547.5999999940395
FF4zVVJu,NA,NA,FF4zVVJu,2020-0188,2021-11-13,23:58:08,01:09:25,NA,incomplete,false,NA,true,3,8,NA,right,E11_Q5_ansL.png,E19_Q1_ansL.png,between,NA,NaN,NA,right,2434.800000011921,1,1,2016.7999999821186
FF4zVVJu,NA,NA,FF4zVVJu,2020-0188,2021-11-13,23:58:08,01:09:25,NA,incomplete,false,NA,true,3,9,NA,right,E11_Q8_ansR.png,E19_Q9_ansR.png,between,NA,NaN,NA,right,3439,1,2,1814.8999999761581
FF4zVVJu,NA,NA,FF4zVVJu,2020-0188,2021-11-13,23:58:08,01:09:25,NA,incomplete,false,NA,true,3,10,NA,right,E6_Q9_ansL.png,E6_Q2_ansL.png,within,NA,NaN,NA,right,2733,1,0,978.6999999880791
FF4zVVJu,NA,NA,FF4zVVJu,2020-0188,2021-11-13,23:58:08,01:09:25,NA,incomplete,false,NA,true,3,11,NA,right,E19_Q3_ansR.png,E19_Q8_ansL.png,within,NA,NaN,NA,right,2947.800000011921,1,0,1220.6000000238419
FF4zVVJu,NA,NA,FF4zVVJu,2020-0188,2021-11-13,23:58:08,01:09:25,NA,incomplete,false,NA,true,3,12,NA,right,E11_Q1_ansR.png,E19_Q3_ansR.png,between,NA,NaN,NA,right,2820.9000000059605,1,2,1886.4000000059605
FF4zVVJu,NA,NA,FF4zVVJu,2020-0188,2021-11-13,23:58:08,01:09:25,NA,incomplete,false,NA,true,3,13,NA,right,E11_Q6_ansL.png,E11_Q1_ansR.png,within,NA,NaN,NA,right,2169.300000011921,1,0,1414.2000000178814
FF4zVVJu,NA,NA,FF4zVVJu,2020-0188,2021-11-13,23:58:08,01:09:25,NA,incomplete,false,NA,true,3,14,NA,left,E19_Q5_ansR.png,E19_Q2_ansL.png,within,NA,NaN,NA,left,1896,1,1,1139.0999999940395
FF4zVVJu,NA,NA,FF4zVVJu,2020-0188,2021-11-13,23:58:08,01:09:25,NA,incomplete,false,NA,true,3,15,NA,right,E11_Q9_ansL.png,E11_Q8_ansR.png,within,NA,NaN,NA,right,4154.9000000059605,1,0,1984.8999999761581
FF4zVVJu,NA,NA,FF4zVVJu,2020-0188,2021-11-13,23:58:08,01:09:25,NA,incomplete,false,NA,true,3,16,NA,right,E6_Q1_ansL.png,E11_Q10_ansR.png,between,NA,NaN,NA,right,2313.9000000059605,1,1,1156.5
FF4zVVJu,NA,NA,FF4zVVJu,2020-0188,2021-11-13,23:58:08,01:09:25,NA,incomplete,false,NA,true,3,17,NA,left,E11_Q2_ansR.png,E11_Q7_ansR.png,within,NA,NaN,NA,left,3672.4000000059605,1,1,939.6000000238419
FF4zVVJu,NA,NA,FF4zVVJu,2020-0188,2021-11-13,23:58:08,01:09:25,NA,incomplete,false,NA,true,3,18,NA,left,E11_Q5_ansL.png,E11_Q2_ansR.png,within,NA,NaN,NA,left,2169.9000000059605,1,0,1172.7000000178814
FF4zVVJu,NA,NA,FF4zVVJu,2020-0188,2021-11-13,23:58:08,01:09:25,NA,incomplete,false,NA,true,3,19,NA,left,E6_Q10_ansL.png,E6_Q6_ansR.png,within,NA,NaN,NA,left,1897.1000000238419,1,0,1397.9000000059605
FF4zVVJu,NA,NA,FF4zVVJu,2020-0188,2021-11-13,23:58:08,01:09:25,NA,incomplete,false,NA,true,3,20,NA,right,E6_Q2_ansL.png,E11_Q3_ansL.png,between,NA,NaN,NA,right,3124.800000011921,1,2,1197.0999999940395
FF4zVVJu,NA,NA,FF4zVVJu,2020-0188,2021-11-13,23:58:08,01:09:25,NA,incomplete,false,NA,true,3,21,NA,right,E11_Q10_ansR.png,E11_Q7_ansR.png,within,NA,NaN,NA,right,2859.7999999821186,1,1,963.5
FF4zVVJu,NA,NA,FF4zVVJu,2020-0188,2021-11-13,23:58:08,01:09:25,NA,incomplete,false,NA,true,3,22,NA,right,E6_Q4_ansR.png,E6_Q5_ansR.png,within,NA,NaN,NA,left,2506,0,1,2682.300000011921
FF4zVVJu,NA,NA,FF4zVVJu,2020-0188,2021-11-13,23:58:08,01:09:25,NA,incomplete,false,NA,true,3,23,NA,right,E6_Q8_ansL.png,E6_Q1_ansL.png,within,NA,NaN,NA,right,2579.2000000178814,1,1,1269
FF4zVVJu,NA,NA,FF4zVVJu,2020-0188,2021-11-13,23:58:08,01:09:25,NA,incomplete,false,NA,true,3,24,NA,left,E19_Q6_ansR.png,E19_Q8_ansL.png,within,NA,NaN,NA,left,2128.2000000178814,1,0,2063.7000000178814
FF4zVVJu,NA,NA,FF4zVVJu,2020-0188,2021-11-13,23:58:08,01:09:25,NA,incomplete,false,NA,true,3,25,NA,right,E6_Q3_ansR.png,E6_Q8_ansL.png,within,NA,NaN,NA,right,2666.5999999940395,1,1,1486.699999988079
FF4zVVJu,NA,NA,FF4zVVJu,2020-0188,2021-11-13,23:58:08,01:09:25,NA,incomplete,false,NA,true,3,26,NA,left,E11_Q9_ansL.png,E11_Q3_ansL.png,within,NA,NaN,NA,left,3800.9000000059605,1,1,1518.800000011921
FF4zVVJu,NA,NA,FF4zVVJu,2020-0188,2021-11-13,23:58:08,01:09:25,NA,incomplete,false,true,NA,4,0,E21_Q1_ansL.png,left,NA,NA,NA,left,2078.09999999404,true,NA,NA,NA,NA,NA
FF4zVVJu,NA,NA,FF4zVVJu,2020-0188,2021-11-13,23:58:08,01:09:25,NA,incomplete,false,true,NA,4,1,E21_Q4_ansR.png,right,NA,NA,NA,right,1452.59999999404,true,NA,NA,NA,NA,NA
FF4zVVJu,NA,NA,FF4zVVJu,2020-0188,2021-11-13,23:58:08,01:09:25,NA,incomplete,false,true,NA,4,2,E21_Q6_ansR.png,right,NA,NA,NA,right,1298.60000002384,true,NA,NA,NA,NA,NA
FF4zVVJu,NA,NA,FF4zVVJu,2020-0188,2021-11-13,23:58:08,01:09:25,NA,incomplete,false,true,NA,4,3,E21_Q2_ansL.png,left,NA,NA,NA,left,1351.20000001788,true,NA,NA,NA,NA,NA
FF4zVVJu,NA,NA,FF4zVVJu,2020-0188,2021-11-13,23:58:08,01:09:25,NA,incomplete,false,true,NA,4,4,E21_Q9_ansR.png,right,NA,NA,NA,right,1389.40000000596,true,NA,NA,NA,NA,NA
FF4zVVJu,NA,NA,FF4zVVJu,2020-0188,2021-11-13,23:58:08,01:09:25,NA,incomplete,false,true,NA,4,5,E21_Q7_ansL.png,left,NA,NA,NA,left,1149.70000001788,true,NA,NA,NA,NA,NA
FF4zVVJu,NA,NA,FF4zVVJu,2020-0188,2021-11-13,23:58:08,01:09:25,NA,incomplete,false,true,NA,4,6,E21_Q8_ansL.png,left,NA,NA,NA,left,1173.69999998808,true,NA,NA,NA,NA,NA
FF4zVVJu,NA,NA,FF4zVVJu,2020-0188,2021-11-13,23:58:08,01:09:25,NA,incomplete,false,true,NA,4,7,E21_Q3_ansR.png,right,NA,NA,NA,right,1117.90000000596,true,NA,NA,NA,NA,NA
FF4zVVJu,NA,NA,FF4zVVJu,2020-0188,2021-11-13,23:58:08,01:09:25,NA,incomplete,false,true,NA,4,8,E21_Q10_ansL.png,left,NA,NA,NA,left,1232.40000000596,true,NA,NA,NA,NA,NA
FF4zVVJu,NA,NA,FF4zVVJu,2020-0188,2021-11-13,23:58:08,01:09:25,NA,incomplete,false,true,NA,4,9,E21_Q5_ansR.png,right,NA,NA,NA,right,1517.70000001788,true,NA,NA,NA,NA,NA
FF4zVVJu,NA,NA,FF4zVVJu,2020-0188,2021-11-13,23:58:08,01:09:25,NA,incomplete,false,true,NA,4,10,E4_Q8_ansR.png,right,NA,NA,NA,left,2583.69999998808,false,NA,NA,NA,NA,NA
FF4zVVJu,NA,NA,FF4zVVJu,2020-0188,2021-11-13,23:58:08,01:09:25,NA,incomplete,false,true,NA,4,11,E4_Q1_ansL.png,left,NA,NA,NA,left,1857.69999998808,true,NA,NA,NA,NA,NA
FF4zVVJu,NA,NA,FF4zVVJu,2020-0188,2021-11-13,23:58:08,01:09:25,NA,incomplete,false,true,NA,4,12,E4_Q4_ansL.png,left,NA,NA,NA,left,2789.30000001192,true,NA,NA,NA,NA,NA
FF4zVVJu,NA,NA,FF4zVVJu,2020-0188,2021-11-13,23:58:08,01:09:25,NA,incomplete,false,true,NA,4,13,E4_Q6_ansR.png,right,NA,NA,NA,right,1838.39999997616,true,NA,NA,NA,NA,NA
FF4zVVJu,NA,NA,FF4zVVJu,2020-0188,2021-11-13,23:58:08,01:09:25,NA,incomplete,false,true,NA,4,14,E4_Q10_ansR.png,right,NA,NA,NA,right,1753.90000000596,true,NA,NA,NA,NA,NA
FF4zVVJu,NA,NA,FF4zVVJu,2020-0188,2021-11-13,23:58:08,01:09:25,NA,incomplete,false,true,NA,4,15,E4_Q2_ansL.png,left,NA,NA,NA,left,1704.19999998808,true,NA,NA,NA,NA,NA
FF4zVVJu,NA,NA,FF4zVVJu,2020-0188,2021-11-13,23:58:08,01:09:25,NA,incomplete,false,true,NA,4,16,E4_Q3_ansL.png,left,NA,NA,NA,left,3408.90000000596,true,NA,NA,NA,NA,NA
FF4zVVJu,NA,NA,FF4zVVJu,2020-0188,2021-11-13,23:58:08,01:09:25,NA,incomplete,false,true,NA,4,17,E4_Q9_ansL.png,left,NA,NA,NA,left,1445.19999998808,true,NA,NA,NA,NA,NA
FF4zVVJu,NA,NA,FF4zVVJu,2020-0188,2021-11-13,23:58:08,01:09:25,NA,incomplete,false,true,NA,4,18,E4_Q5_ansR.png,right,NA,NA,NA,right,1635.60000002384,true,NA,NA,NA,NA,NA
FF4zVVJu,NA,NA,FF4zVVJu,2020-0188,2021-11-13,23:58:08,01:09:25,NA,incomplete,false,true,NA,4,19,E4_Q7_ansR.png,right,NA,NA,NA,right,1903.29999998212,true,NA,NA,NA,NA,NA
FF4zVVJu,NA,NA,FF4zVVJu,2020-0188,2021-11-13,23:58:08,01:09:25,NA,incomplete,false,true,NA,4,20,E23_Q6_ansR.png,right,NA,NA,NA,right,2025.20000001788,true,NA,NA,NA,NA,NA
FF4zVVJu,NA,NA,FF4zVVJu,2020-0188,2021-11-13,23:58:08,01:09:25,NA,incomplete,false,true,NA,4,21,E23_Q4_ansR.png,right,NA,NA,NA,right,1664.90000000596,true,NA,NA,NA,NA,NA
FF4zVVJu,NA,NA,FF4zVVJu,2020-0188,2021-11-13,23:58:08,01:09:25,NA,incomplete,false,true,NA,4,22,E23_Q8_ansL.png,left,NA,NA,NA,left,1426.5,true,NA,NA,NA,NA,NA
FF4zVVJu,NA,NA,FF4zVVJu,2020-0188,2021-11-13,23:58:08,01:09:25,NA,incomplete,false,true,NA,4,23,E23_Q1_ansL.png,left,NA,NA,NA,left,1472.40000000596,true,NA,NA,NA,NA,NA
FF4zVVJu,NA,NA,FF4zVVJu,2020-0188,2021-11-13,23:58:08,01:09:25,NA,incomplete,false,true,NA,4,24,E23_Q5_ansR.png,right,NA,NA,NA,right,1338.70000001788,true,NA,NA,NA,NA,NA
FF4zVVJu,NA,NA,FF4zVVJu,2020-0188,2021-11-13,23:58:08,01:09:25,NA,incomplete,false,true,NA,4,25,E23_Q2_ansL.png,left,NA,NA,NA,left,1316,true,NA,NA,NA,NA,NA
FF4zVVJu,NA,NA,FF4zVVJu,2020-0188,2021-11-13,23:58:08,01:09:25,NA,incomplete,false,true,NA,4,26,E23_Q10_ansL.png,left,NA,NA,NA,left,1400.19999998808,true,NA,NA,NA,NA,NA
FF4zVVJu,NA,NA,FF4zVVJu,2020-0188,2021-11-13,23:58:08,01:09:25,NA,incomplete,false,true,NA,4,27,E23_Q7_ansL.png,left,NA,NA,NA,left,1495.59999999404,true,NA,NA,NA,NA,NA
FF4zVVJu,NA,NA,FF4zVVJu,2020-0188,2021-11-13,23:58:08,01:09:25,NA,incomplete,false,true,NA,4,28,E23_Q3_ansR.png,right,NA,NA,NA,right,1432.10000002384,true,NA,NA,NA,NA,NA
FF4zVVJu,NA,NA,FF4zVVJu,2020-0188,2021-11-13,23:58:08,01:09:25,NA,incomplete,false,true,NA,4,29,E23_Q9_ansR.png,right,NA,NA,NA,right,1911,true,NA,NA,NA,NA,NA
FF4zVVJu,NA,NA,FF4zVVJu,2020-0188,2021-11-13,23:58:08,01:09:25,NA,incomplete,false,NA,true,4,0,NA,right,E21_Q2_ansL.png,E21_Q1_ansL.png,within,NA,NaN,NA,right,3045.4000000059605,1,0,1051.6000000238419
FF4zVVJu,NA,NA,FF4zVVJu,2020-0188,2021-11-13,23:58:08,01:09:25,NA,incomplete,false,NA,true,4,1,NA,right,E23_Q2_ansL.png,E23_Q8_ansL.png,within,NA,NaN,NA,right,3389.199999988079,1,0,1292
FF4zVVJu,NA,NA,FF4zVVJu,2020-0188,2021-11-13,23:58:08,01:09:25,NA,incomplete,false,NA,true,4,2,NA,left,E4_Q4_ansL.png,E4_Q2_ansL.png,within,NA,NaN,NA,left,5637.800000011921,1,1,834.2999999821186
FF4zVVJu,NA,NA,FF4zVVJu,2020-0188,2021-11-13,23:58:08,01:09:25,NA,incomplete,false,NA,true,4,3,NA,right,E23_Q8_ansL.png,E4_Q7_ansR.png,between,NA,NaN,NA,right,3270.300000011921,1,2,4191.5999999940395
FF4zVVJu,NA,NA,FF4zVVJu,2020-0188,2021-11-13,23:58:08,01:09:25,NA,incomplete,false,NA,true,4,4,NA,left,E4_Q5_ansR.png,E23_Q4_ansR.png,between,NA,NaN,NA,left,4203.300000011921,1,2,2811.5
FF4zVVJu,NA,NA,FF4zVVJu,2020-0188,2021-11-13,23:58:08,01:09:25,NA,incomplete,false,NA,true,4,5,NA,left,E21_Q6_ansR.png,E21_Q7_ansL.png,within,NA,NaN,NA,right,2819.0999999940395,0,1,1117.199999988079
FF4zVVJu,NA,NA,FF4zVVJu,2020-0188,2021-11-13,23:58:08,01:09:25,NA,incomplete,false,NA,true,4,6,NA,left,E23_Q5_ansR.png,E23_Q7_ansL.png,within,NA,NaN,NA,left,2722.800000011921,1,1,1221.4000000059605
FF4zVVJu,NA,NA,FF4zVVJu,2020-0188,2021-11-13,23:58:08,01:09:25,NA,incomplete,false,NA,true,4,7,NA,right,E21_Q9_ansR.png,E21_Q4_ansR.png,within,NA,NaN,NA,right,1751.4000000059605,1,1,1123.300000011921
FF4zVVJu,NA,NA,FF4zVVJu,2020-0188,2021-11-13,23:58:08,01:09:25,NA,incomplete,false,NA,true,4,8,NA,left,E21_Q3_ansR.png,E4_Q8_ansR.png,between,NA,NaN,NA,left,2345.899999976158,1,1,3534.4000000059605
FF4zVVJu,NA,NA,FF4zVVJu,2020-0188,2021-11-13,23:58:08,01:09:25,NA,incomplete,false,NA,true,4,9,NA,right,E23_Q9_ansR.png,E23_Q10_ansL.png,within,NA,NaN,NA,right,3389.0999999940395,1,1,907.6999999880791
FF4zVVJu,NA,NA,FF4zVVJu,2020-0188,2021-11-13,23:58:08,01:09:25,NA,incomplete,false,NA,true,4,10,NA,left,E4_Q9_ansL.png,E23_Q6_ansR.png,between,NA,NaN,NA,left,4459.0999999940395,1,2,3108.0999999940395
FF4zVVJu,NA,NA,FF4zVVJu,2020-0188,2021-11-13,23:58:08,01:09:25,NA,incomplete,false,NA,true,4,11,NA,right,E21_Q8_ansL.png,E21_Q2_ansL.png,within,NA,NaN,NA,right,1976.7000000178814,1,1,971.6999999880791
FF4zVVJu,NA,NA,FF4zVVJu,2020-0188,2021-11-13,23:58:08,01:09:25,NA,incomplete,false,NA,true,4,12,NA,left,E4_Q8_ansR.png,E4_Q6_ansR.png,within,NA,NaN,NA,right,3953.800000011921,0,1,1846.2999999821186
FF4zVVJu,NA,NA,FF4zVVJu,2020-0188,2021-11-13,23:58:08,01:09:25,NA,incomplete,false,NA,true,4,13,NA,right,E4_Q1_ansL.png,E21_Q10_ansL.png,between,NA,NaN,NA,right,2860.0999999940395,1,2,1229
FF4zVVJu,NA,NA,FF4zVVJu,2020-0188,2021-11-13,23:58:08,01:09:25,NA,incomplete,false,NA,true,4,14,NA,left,E23_Q2_ansL.png,E23_Q3_ansR.png,within,NA,NaN,NA,right,2168.300000011921,0,0,1108.300000011921
FF4zVVJu,NA,NA,FF4zVVJu,2020-0188,2021-11-13,23:58:08,01:09:25,NA,incomplete,false,NA,true,4,15,NA,right,E4_Q4_ansL.png,E21_Q5_ansR.png,between,NA,NaN,NA,right,2088.9000000059605,1,2,4359.800000011921
FF4zVVJu,NA,NA,FF4zVVJu,2020-0188,2021-11-13,23:58:08,01:09:25,NA,incomplete,false,NA,true,4,16,NA,right,E4_Q5_ansR.png,E4_Q2_ansL.png,within,NA,NaN,NA,right,5551.0999999940395,1,1,1028.4000000059605
FF4zVVJu,NA,NA,FF4zVVJu,2020-0188,2021-11-13,23:58:08,01:09:25,NA,incomplete,false,NA,true,4,17,NA,right,E21_Q10_ansL.png,E21_Q7_ansL.png,within,NA,NaN,NA,right,4186.699999988079,1,0,963.7999999821186
FF4zVVJu,NA,NA,FF4zVVJu,2020-0188,2021-11-13,23:58:08,01:09:25,NA,incomplete,false,NA,true,4,18,NA,left,E4_Q3_ansL.png,E4_Q7_ansR.png,within,NA,NaN,NA,left,3816.9000000059605,1,1,1236.7999999821186
FF4zVVJu,NA,NA,FF4zVVJu,2020-0188,2021-11-13,23:58:08,01:09:25,NA,incomplete,false,NA,true,4,19,NA,left,E4_Q1_ansL.png,E4_Q10_ansR.png,within,NA,NaN,NA,left,3712.5999999940395,1,1,3246
FF4zVVJu,NA,NA,FF4zVVJu,2020-0188,2021-11-13,23:58:08,01:09:25,NA,incomplete,false,NA,true,4,20,NA,left,E23_Q4_ansR.png,E23_Q5_ansR.png,within,NA,NaN,NA,left,2497.7000000178814,1,1,1075.7999999821186
FF4zVVJu,NA,NA,FF4zVVJu,2020-0188,2021-11-13,23:58:08,01:09:25,NA,incomplete,false,NA,true,4,21,NA,right,E4_Q3_ansL.png,E4_Q6_ansR.png,within,NA,NaN,NA,right,3108.7999999821186,1,1,2072.800000011921
FF4zVVJu,NA,NA,FF4zVVJu,2020-0188,2021-11-13,23:58:08,01:09:25,NA,incomplete,false,NA,true,4,22,NA,left,E21_Q9_ansR.png,E21_Q3_ansR.png,within,NA,NaN,NA,left,1679.9000000059605,1,1,954.8000000119209
FF4zVVJu,NA,NA,FF4zVVJu,2020-0188,2021-11-13,23:58:08,01:09:25,NA,incomplete,false,NA,true,4,23,NA,left,E4_Q10_ansR.png,E4_Q9_ansL.png,within,NA,NaN,NA,left,3623.899999976158,1,1,939.6999999880791
FF4zVVJu,NA,NA,FF4zVVJu,2020-0188,2021-11-13,23:58:08,01:09:25,NA,incomplete,false,NA,true,4,24,NA,right,E23_Q1_ansL.png,E23_Q6_ansR.png,within,NA,NaN,NA,right,2359,1,0,1301
FF4zVVJu,NA,NA,FF4zVVJu,2020-0188,2021-11-13,23:58:08,01:09:25,NA,incomplete,false,NA,true,4,25,NA,right,E23_Q10_ansL.png,E23_Q1_ansL.png,within,NA,NaN,NA,right,2216.4000000059605,1,1,1156.1000000238419
FF4zVVJu,NA,NA,FF4zVVJu,2020-0188,2021-11-13,23:58:08,01:09:25,NA,incomplete,false,NA,true,4,26,NA,left,E21_Q8_ansL.png,E21_Q5_ansR.png,within,NA,NaN,NA,left,2144.800000011921,1,0,985.5
FF4zVVJu,NA,NA,FF4zVVJu,2020-0188,2021-11-13,23:58:08,01:09:25,NA,incomplete,false,true,NA,5,0,E33_Q5_ansR.png,right,NA,NA,NA,right,3191.80000001192,true,NA,NA,NA,NA,NA
FF4zVVJu,NA,NA,FF4zVVJu,2020-0188,2021-11-13,23:58:08,01:09:25,NA,incomplete,false,true,NA,5,1,E33_Q2_ansL.png,left,NA,NA,NA,left,2370.40000000596,true,NA,NA,NA,NA,NA
FF4zVVJu,NA,NA,FF4zVVJu,2020-0188,2021-11-13,23:58:08,01:09:25,NA,incomplete,false,true,NA,5,2,E33_Q8_ansL.png,left,NA,NA,NA,left,2183.5,true,NA,NA,NA,NA,NA
FF4zVVJu,NA,NA,FF4zVVJu,2020-0188,2021-11-13,23:58:08,01:09:25,NA,incomplete,false,true,NA,5,3,E33_Q1_ansL.png,left,NA,NA,NA,left,2005.90000000596,true,NA,NA,NA,NA,NA
FF4zVVJu,NA,NA,FF4zVVJu,2020-0188,2021-11-13,23:58:08,01:09:25,NA,incomplete,false,true,NA,5,4,E33_Q3_ansR.png,right,NA,NA,NA,right,2063.69999998808,true,NA,NA,NA,NA,NA
FF4zVVJu,NA,NA,FF4zVVJu,2020-0188,2021-11-13,23:58:08,01:09:25,NA,incomplete,false,true,NA,5,5,E33_Q6_ansR.png,right,NA,NA,NA,right,2390.30000001192,true,NA,NA,NA,NA,NA
FF4zVVJu,NA,NA,FF4zVVJu,2020-0188,2021-11-13,23:58:08,01:09:25,NA,incomplete,false,true,NA,5,6,E33_Q9_ansR.png,right,NA,NA,NA,right,2613.40000000596,true,NA,NA,NA,NA,NA
FF4zVVJu,NA,NA,FF4zVVJu,2020-0188,2021-11-13,23:58:08,01:09:25,NA,incomplete,false,true,NA,5,7,E33_Q7_ansL.png,left,NA,NA,NA,right,2834.90000000596,false,NA,NA,NA,NA,NA
FF4zVVJu,NA,NA,FF4zVVJu,2020-0188,2021-11-13,23:58:08,01:09:25,NA,incomplete,false,true,NA,5,8,E33_Q10_ansL.png,left,NA,NA,NA,left,2085.59999999404,true,NA,NA,NA,NA,NA
FF4zVVJu,NA,NA,FF4zVVJu,2020-0188,2021-11-13,23:58:08,01:09:25,NA,incomplete,false,true,NA,5,9,E33_Q4_ansR.png,right,NA,NA,NA,right,1627.90000000596,true,NA,NA,NA,NA,NA
FF4zVVJu,NA,NA,FF4zVVJu,2020-0188,2021-11-13,23:58:08,01:09:25,NA,incomplete,false,true,NA,5,10,E2_Q3_ansR.png,right,NA,NA,NA,right,1796,true,NA,NA,NA,NA,NA
FF4zVVJu,NA,NA,FF4zVVJu,2020-0188,2021-11-13,23:58:08,01:09:25,NA,incomplete,false,true,NA,5,11,E2_Q1_ansL.png,left,NA,NA,NA,left,1504,true,NA,NA,NA,NA,NA
FF4zVVJu,NA,NA,FF4zVVJu,2020-0188,2021-11-13,23:58:08,01:09:25,NA,incomplete,false,true,NA,5,12,E2_Q4_ansL.png,left,NA,NA,NA,left,1066.40000000596,true,NA,NA,NA,NA,NA
FF4zVVJu,NA,NA,FF4zVVJu,2020-0188,2021-11-13,23:58:08,01:09:25,NA,incomplete,false,true,NA,5,13,E2_Q10_ansL.png,left,NA,NA,NA,left,1361,true,NA,NA,NA,NA,NA
FF4zVVJu,NA,NA,FF4zVVJu,2020-0188,2021-11-13,23:58:08,01:09:25,NA,incomplete,false,true,NA,5,14,E2_Q6_ansL.png,left,NA,NA,NA,left,1017.80000001192,true,NA,NA,NA,NA,NA
FF4zVVJu,NA,NA,FF4zVVJu,2020-0188,2021-11-13,23:58:08,01:09:25,NA,incomplete,false,true,NA,5,15,E2_Q2_ansR.png,right,NA,NA,NA,right,1776.29999998212,true,NA,NA,NA,NA,NA
FF4zVVJu,NA,NA,FF4zVVJu,2020-0188,2021-11-13,23:58:08,01:09:25,NA,incomplete,false,true,NA,5,16,E2_Q5_ansL.png,left,NA,NA,NA,left,1667.90000000596,true,NA,NA,NA,NA,NA
FF4zVVJu,NA,NA,FF4zVVJu,2020-0188,2021-11-13,23:58:08,01:09:25,NA,incomplete,false,true,NA,5,17,E2_Q8_ansR.png,right,NA,NA,NA,right,1649.70000001788,true,NA,NA,NA,NA,NA
FF4zVVJu,NA,NA,FF4zVVJu,2020-0188,2021-11-13,23:58:08,01:09:25,NA,incomplete,false,true,NA,5,18,E2_Q9_ansL.png,left,NA,NA,NA,left,1078.30000001192,true,NA,NA,NA,NA,NA
FF4zVVJu,NA,NA,FF4zVVJu,2020-0188,2021-11-13,23:58:08,01:09:25,NA,incomplete,false,true,NA,5,19,E2_Q7_ansR.png,right,NA,NA,NA,right,1423.5,true,NA,NA,NA,NA,NA
FF4zVVJu,NA,NA,FF4zVVJu,2020-0188,2021-11-13,23:58:08,01:09:25,NA,incomplete,false,true,NA,5,20,E25_Q3_ansL.png,left,NA,NA,NA,left,2131,true,NA,NA,NA,NA,NA
FF4zVVJu,NA,NA,FF4zVVJu,2020-0188,2021-11-13,23:58:08,01:09:25,NA,incomplete,false,true,NA,5,21,E25_Q5_ansL.png,left,NA,NA,NA,left,2464.80000001192,true,NA,NA,NA,NA,NA
FF4zVVJu,NA,NA,FF4zVVJu,2020-0188,2021-11-13,23:58:08,01:09:25,NA,incomplete,false,true,NA,5,22,E25_Q9_ansL.png,left,NA,NA,NA,left,2137.30000001192,true,NA,NA,NA,NA,NA
FF4zVVJu,NA,NA,FF4zVVJu,2020-0188,2021-11-13,23:58:08,01:09:25,NA,incomplete,false,true,NA,5,23,E25_Q6_ansL.png,left,NA,NA,NA,left,2000.69999998808,true,NA,NA,NA,NA,NA
FF4zVVJu,NA,NA,FF4zVVJu,2020-0188,2021-11-13,23:58:08,01:09:25,NA,incomplete,false,true,NA,5,24,E25_Q1_ansR.png,right,NA,NA,NA,right,1283.39999997616,true,NA,NA,NA,NA,NA
FF4zVVJu,NA,NA,FF4zVVJu,2020-0188,2021-11-13,23:58:08,01:09:25,NA,incomplete,false,true,NA,5,25,E25_Q8_ansR.png,right,NA,NA,NA,right,1420.5,true,NA,NA,NA,NA,NA
FF4zVVJu,NA,NA,FF4zVVJu,2020-0188,2021-11-13,23:58:08,01:09:25,NA,incomplete,false,true,NA,5,26,E25_Q10_ansR.png,right,NA,NA,NA,right,2280.39999997616,true,NA,NA,NA,NA,NA
FF4zVVJu,NA,NA,FF4zVVJu,2020-0188,2021-11-13,23:58:08,01:09:25,NA,incomplete,false,true,NA,5,27,E25_Q7_ansR.png,right,NA,NA,NA,right,1881.19999998808,true,NA,NA,NA,NA,NA
FF4zVVJu,NA,NA,FF4zVVJu,2020-0188,2021-11-13,23:58:08,01:09:25,NA,incomplete,false,true,NA,5,28,E25_Q4_ansL.png,left,NA,NA,NA,left,1848.30000001192,true,NA,NA,NA,NA,NA
FF4zVVJu,NA,NA,FF4zVVJu,2020-0188,2021-11-13,23:58:08,01:09:25,NA,incomplete,false,true,NA,5,29,E25_Q2_ansR.png,right,NA,NA,NA,right,1333.20000001788,true,NA,NA,NA,NA,NA
FF4zVVJu,NA,NA,FF4zVVJu,2020-0188,2021-11-13,23:58:08,01:09:25,NA,incomplete,false,NA,true,5,0,NA,right,E25_Q3_ansL.png,E2_Q8_ansR.png,between,NA,NaN,NA,right,3398.100000023842,1,2,2971.9000000059605
FF4zVVJu,NA,NA,FF4zVVJu,2020-0188,2021-11-13,23:58:08,01:09:25,NA,incomplete,false,NA,true,5,1,NA,right,E2_Q4_ansL.png,E33_Q4_ansR.png,between,NA,NaN,NA,right,9733.899999976158,1,1,1124.0999999940395
FF4zVVJu,NA,NA,FF4zVVJu,2020-0188,2021-11-13,23:58:08,01:09:25,NA,incomplete,false,NA,true,5,2,NA,right,E2_Q9_ansL.png,E2_Q2_ansR.png,within,NA,NaN,NA,right,4906.800000011921,1,0,1992
FF4zVVJu,NA,NA,FF4zVVJu,2020-0188,2021-11-13,23:58:08,01:09:25,NA,incomplete,false,NA,true,5,3,NA,right,E33_Q6_ansR.png,E33_Q8_ansL.png,within,NA,NaN,NA,right,2722.199999988079,1,0,2041
FF4zVVJu,NA,NA,FF4zVVJu,2020-0188,2021-11-13,23:58:08,01:09:25,NA,incomplete,false,NA,true,5,4,NA,left,E2_Q7_ansR.png,E25_Q9_ansL.png,between,NA,NaN,NA,left,2218.199999988079,1,2,2859.699999988079
FF4zVVJu,NA,NA,FF4zVVJu,2020-0188,2021-11-13,23:58:08,01:09:25,NA,incomplete,false,NA,true,5,5,NA,right,E33_Q7_ansL.png,E33_Q3_ansR.png,within,NA,NaN,NA,right,2827.300000011921,1,1,3028.9000000059605
FF4zVVJu,NA,NA,FF4zVVJu,2020-0188,2021-11-13,23:58:08,01:09:25,NA,incomplete,false,NA,true,5,6,NA,left,E2_Q6_ansL.png,E2_Q8_ansR.png,within,NA,NaN,NA,right,2490.5999999940395,0,1,1268.9000000059605
FF4zVVJu,NA,NA,FF4zVVJu,2020-0188,2021-11-13,23:58:08,01:09:25,NA,incomplete,false,NA,true,5,7,NA,right,E2_Q5_ansL.png,E2_Q10_ansL.png,within,NA,NaN,NA,right,1702.699999988079,1,1,1430.2999999821186
FF4zVVJu,NA,NA,FF4zVVJu,2020-0188,2021-11-13,23:58:08,01:09:25,NA,incomplete,false,NA,true,5,8,NA,right,E33_Q3_ansR.png,E33_Q2_ansL.png,within,NA,NaN,NA,right,2678.5999999940395,1,1,1422.2000000178814
FF4zVVJu,NA,NA,FF4zVVJu,2020-0188,2021-11-13,23:58:08,01:09:25,NA,incomplete,false,NA,true,5,9,NA,right,E2_Q10_ansL.png,E2_Q3_ansR.png,within,NA,NaN,NA,right,1373.2999999821186,1,0,2289.5
FF4zVVJu,NA,NA,FF4zVVJu,2020-0188,2021-11-13,23:58:08,01:09:25,NA,incomplete,false,NA,true,5,10,NA,left,E2_Q4_ansL.png,E2_Q2_ansR.png,within,NA,NaN,NA,left,2000.699999988079,1,1,915.2000000178814
FF4zVVJu,NA,NA,FF4zVVJu,2020-0188,2021-11-13,23:58:08,01:09:25,NA,incomplete,false,NA,true,5,11,NA,left,E25_Q6_ansL.png,E25_Q10_ansR.png,within,NA,NaN,NA,left,5245.200000017881,1,0,2322.199999988079
FF4zVVJu,NA,NA,FF4zVVJu,2020-0188,2021-11-13,23:58:08,01:09:25,NA,incomplete,false,NA,true,5,12,NA,left,E33_Q5_ansR.png,E33_Q1_ansL.png,within,NA,NaN,NA,left,2105,1,0,3357.9000000059605
FF4zVVJu,NA,NA,FF4zVVJu,2020-0188,2021-11-13,23:58:08,01:09:25,NA,incomplete,false,NA,true,5,13,NA,left,E25_Q10_ansR.png,E25_Q2_ansR.png,within,NA,NaN,NA,right,3260.800000011921,0,1,4146.199999988079
FF4zVVJu,NA,NA,FF4zVVJu,2020-0188,2021-11-13,23:58:08,01:09:25,NA,incomplete,false,NA,true,5,14,NA,left,E25_Q1_ansR.png,E25_Q7_ansR.png,within,NA,NaN,NA,left,4788.699999988079,1,0,2064.0999999940395
FF4zVVJu,NA,NA,FF4zVVJu,2020-0188,2021-11-13,23:58:08,01:09:25,NA,incomplete,false,NA,true,5,15,NA,right,E25_Q8_ansR.png,E25_Q9_ansL.png,within,NA,NaN,NA,right,8998.200000017881,1,1,1140.9000000059605
FF4zVVJu,NA,NA,FF4zVVJu,2020-0188,2021-11-13,23:58:08,01:09:25,NA,incomplete,false,NA,true,5,16,NA,left,E33_Q1_ansL.png,E33_Q9_ansR.png,within,NA,NaN,NA,left,2529.5,1,1,1614.2000000178814
FF4zVVJu,NA,NA,FF4zVVJu,2020-0188,2021-11-13,23:58:08,01:09:25,NA,incomplete,false,NA,true,5,17,NA,left,E2_Q5_ansL.png,E2_Q7_ansR.png,within,NA,NaN,NA,left,2498.5,1,1,1102.4000000059605
FF4zVVJu,NA,NA,FF4zVVJu,2020-0188,2021-11-13,23:58:08,01:09:25,NA,incomplete,false,NA,true,5,18,NA,left,E25_Q8_ansR.png,E25_Q4_ansL.png,within,NA,NaN,NA,left,2511.0999999940395,1,2,1614.699999988079
FF4zVVJu,NA,NA,FF4zVVJu,2020-0188,2021-11-13,23:58:08,01:09:25,NA,incomplete,false,NA,true,5,19,NA,left,E33_Q7_ansL.png,E2_Q3_ansR.png,between,NA,NaN,NA,left,3695,1,2,1219.7999999821186
FF4zVVJu,NA,NA,FF4zVVJu,2020-0188,2021-11-13,23:58:08,01:09:25,NA,incomplete,false,NA,true,5,20,NA,left,E33_Q6_ansR.png,E33_Q10_ansL.png,within,NA,NaN,NA,left,2281.5,1,2,2908.2999999821186
FF4zVVJu,NA,NA,FF4zVVJu,2020-0188,2021-11-13,23:58:08,01:09:25,NA,incomplete,false,NA,true,5,21,NA,right,E25_Q1_ansR.png,E25_Q5_ansL.png,within,NA,NaN,NA,right,1646.7000000178814,1,1,980.1999999880791
FF4zVVJu,NA,NA,FF4zVVJu,2020-0188,2021-11-13,23:58:08,01:09:25,NA,incomplete,false,NA,true,5,22,NA,left,E33_Q10_ansL.png,E2_Q1_ansL.png,between,NA,NaN,NA,right,1727.300000011921,0,2,1013.5999999940395
FF4zVVJu,NA,NA,FF4zVVJu,2020-0188,2021-11-13,23:58:08,01:09:25,NA,incomplete,false,NA,true,5,23,NA,right,E25_Q6_ansL.png,E25_Q3_ansL.png,within,NA,NaN,NA,right,1992.199999988079,1,1,2088.0999999940395
FF4zVVJu,NA,NA,FF4zVVJu,2020-0188,2021-11-13,23:58:08,01:09:25,NA,incomplete,false,NA,true,5,24,NA,left,E2_Q9_ansL.png,E25_Q5_ansL.png,between,NA,NaN,NA,left,3575,1,2,1999.5
FF4zVVJu,NA,NA,FF4zVVJu,2020-0188,2021-11-13,23:58:08,01:09:25,NA,incomplete,false,NA,true,5,25,NA,right,E33_Q4_ansR.png,E33_Q9_ansR.png,within,NA,NaN,NA,left,3159.7000000178814,0,1,1400.9000000059605
FF4zVVJu,NA,NA,FF4zVVJu,2020-0188,2021-11-13,23:58:08,01:09:25,NA,incomplete,false,NA,true,5,26,NA,left,E2_Q1_ansL.png,E2_Q6_ansL.png,within,NA,NaN,NA,left,3574.800000011921,1,0,2402.5999999940395
FF4zVVJu,NA,NA,FF4zVVJu,2020-0188,2021-11-13,23:58:08,01:09:25,NA,incomplete,false,true,NA,6,0,E8_Q3_ansL.png,left,NA,NA,NA,left,1849.10000002384,true,NA,NA,NA,NA,NA
FF4zVVJu,NA,NA,FF4zVVJu,2020-0188,2021-11-13,23:58:08,01:09:25,NA,incomplete,false,true,NA,6,1,E8_Q5_ansL.png,left,NA,NA,NA,left,1360,true,NA,NA,NA,NA,NA
FF4zVVJu,NA,NA,FF4zVVJu,2020-0188,2021-11-13,23:58:08,01:09:25,NA,incomplete,false,true,NA,6,2,E8_Q4_ansL.png,left,NA,NA,NA,left,1296.19999998808,true,NA,NA,NA,NA,NA
FF4zVVJu,NA,NA,FF4zVVJu,2020-0188,2021-11-13,23:58:08,01:09:25,NA,incomplete,false,true,NA,6,3,E8_Q1_ansR.png,right,NA,NA,NA,right,1181.39999997616,true,NA,NA,NA,NA,NA
FF4zVVJu,NA,NA,FF4zVVJu,2020-0188,2021-11-13,23:58:08,01:09:25,NA,incomplete,false,true,NA,6,4,E8_Q8_ansR.png,right,NA,NA,NA,right,1108.09999999404,true,NA,NA,NA,NA,NA
FF4zVVJu,NA,NA,FF4zVVJu,2020-0188,2021-11-13,23:58:08,01:09:25,NA,incomplete,false,true,NA,6,5,E8_Q2_ansR.png,right,NA,NA,NA,right,1172.80000001192,true,NA,NA,NA,NA,NA
FF4zVVJu,NA,NA,FF4zVVJu,2020-0188,2021-11-13,23:58:08,01:09:25,NA,incomplete,false,true,NA,6,6,E8_Q10_ansR.png,right,NA,NA,NA,right,1197.09999999404,true,NA,NA,NA,NA,NA
FF4zVVJu,NA,NA,FF4zVVJu,2020-0188,2021-11-13,23:58:08,01:09:25,NA,incomplete,false,true,NA,6,7,E8_Q7_ansR.png,right,NA,NA,NA,right,1210.29999998212,true,NA,NA,NA,NA,NA
FF4zVVJu,NA,NA,FF4zVVJu,2020-0188,2021-11-13,23:58:08,01:09:25,NA,incomplete,false,true,NA,6,8,E8_Q9_ansL.png,left,NA,NA,NA,left,1104.20000001788,true,NA,NA,NA,NA,NA
FF4zVVJu,NA,NA,FF4zVVJu,2020-0188,2021-11-13,23:58:08,01:09:25,NA,incomplete,false,true,NA,6,9,E8_Q6_ansL.png,left,NA,NA,NA,left,1295.19999998808,true,NA,NA,NA,NA,NA
FF4zVVJu,NA,NA,FF4zVVJu,2020-0188,2021-11-13,23:58:08,01:09:25,NA,incomplete,false,true,NA,6,10,E30_Q7_ansL.png,left,NA,NA,NA,none,0,false,NA,NA,NA,NA,NA
FF4zVVJu,NA,NA,FF4zVVJu,2020-0188,2021-11-13,23:58:08,01:09:25,NA,incomplete,false,true,NA,6,11,E30_Q5_ansR.png,right,NA,NA,NA,none,0,false,NA,NA,NA,NA,NA
FF4zVVJu,NA,NA,FF4zVVJu,2020-0188,2021-11-13,23:58:08,01:09:25,NA,incomplete,false,true,NA,6,12,E30_Q8_ansL.png,left,NA,NA,NA,right,2048.59999999404,false,NA,NA,NA,NA,NA
FF4zVVJu,NA,NA,FF4zVVJu,2020-0188,2021-11-13,23:58:08,01:09:25,NA,incomplete,false,true,NA,6,13,E30_Q1_ansL.png,left,NA,NA,NA,left,1388.69999998808,true,NA,NA,NA,NA,NA
FF4zVVJu,NA,NA,FF4zVVJu,2020-0188,2021-11-13,23:58:08,01:09:25,NA,incomplete,false,true,NA,6,14,E30_Q3_ansL.png,left,NA,NA,NA,right,2916.10000002384,false,NA,NA,NA,NA,NA
FF4zVVJu,NA,NA,FF4zVVJu,2020-0188,2021-11-13,23:58:08,01:09:25,NA,incomplete,false,true,NA,6,15,E30_Q10_ansR.png,right,NA,NA,NA,right,2190.19999998808,true,NA,NA,NA,NA,NA
FF4zVVJu,NA,NA,FF4zVVJu,2020-0188,2021-11-13,23:58:08,01:09:25,NA,incomplete,false,true,NA,6,16,E30_Q4_ansL.png,left,NA,NA,NA,left,1402.69999998808,true,NA,NA,NA,NA,NA
FF4zVVJu,NA,NA,FF4zVVJu,2020-0188,2021-11-13,23:58:08,01:09:25,NA,incomplete,false,true,NA,6,17,E30_Q2_ansL.png,left,NA,NA,NA,left,2327.09999999404,true,NA,NA,NA,NA,NA
FF4zVVJu,NA,NA,FF4zVVJu,2020-0188,2021-11-13,23:58:08,01:09:25,NA,incomplete,false,true,NA,6,18,E30_Q6_ansR.png,right,NA,NA,NA,right,2516.30000001192,true,NA,NA,NA,NA,NA
FF4zVVJu,NA,NA,FF4zVVJu,2020-0188,2021-11-13,23:58:08,01:09:25,NA,incomplete,false,true,NA,6,19,E30_Q9_ansL.png,left,NA,NA,NA,left,2147.5,true,NA,NA,NA,NA,NA
FF4zVVJu,NA,NA,FF4zVVJu,2020-0188,2021-11-13,23:58:08,01:09:25,NA,incomplete,false,true,NA,6,20,E27_Q10_ansL.png,left,NA,NA,NA,left,1340.19999998808,true,NA,NA,NA,NA,NA
FF4zVVJu,NA,NA,FF4zVVJu,2020-0188,2021-11-13,23:58:08,01:09:25,NA,incomplete,false,true,NA,6,21,E27_Q8_ansL.png,left,NA,NA,NA,left,884.299999982119,true,NA,NA,NA,NA,NA
FF4zVVJu,NA,NA,FF4zVVJu,2020-0188,2021-11-13,23:58:08,01:09:25,NA,incomplete,false,true,NA,6,22,E27_Q3_ansR.png,right,NA,NA,NA,right,1081.40000000596,true,NA,NA,NA,NA,NA
FF4zVVJu,NA,NA,FF4zVVJu,2020-0188,2021-11-13,23:58:08,01:09:25,NA,incomplete,false,true,NA,6,23,E27_Q9_ansR.png,right,NA,NA,NA,right,958.800000011921,true,NA,NA,NA,NA,NA
FF4zVVJu,NA,NA,FF4zVVJu,2020-0188,2021-11-13,23:58:08,01:09:25,NA,incomplete,false,true,NA,6,24,E27_Q4_ansR.png,right,NA,NA,NA,right,1065.69999998808,true,NA,NA,NA,NA,NA
FF4zVVJu,NA,NA,FF4zVVJu,2020-0188,2021-11-13,23:58:08,01:09:25,NA,incomplete,false,true,NA,6,25,E27_Q6_ansR.png,right,NA,NA,NA,right,1236.19999998808,true,NA,NA,NA,NA,NA
FF4zVVJu,NA,NA,FF4zVVJu,2020-0188,2021-11-13,23:58:08,01:09:25,NA,incomplete,false,true,NA,6,26,E27_Q5_ansR.png,right,NA,NA,NA,right,953.09999999404,true,NA,NA,NA,NA,NA
FF4zVVJu,NA,NA,FF4zVVJu,2020-0188,2021-11-13,23:58:08,01:09:25,NA,incomplete,false,true,NA,6,27,E27_Q2_ansL.png,left,NA,NA,NA,left,1058.59999999404,true,NA,NA,NA,NA,NA
FF4zVVJu,NA,NA,FF4zVVJu,2020-0188,2021-11-13,23:58:08,01:09:25,NA,incomplete,false,true,NA,6,28,E27_Q1_ansL.png,left,NA,NA,NA,left,1130.80000001192,true,NA,NA,NA,NA,NA
FF4zVVJu,NA,NA,FF4zVVJu,2020-0188,2021-11-13,23:58:08,01:09:25,NA,incomplete,false,true,NA,6,29,E27_Q7_ansL.png,left,NA,NA,NA,left,981.09999999404,true,NA,NA,NA,NA,NA
FF4zVVJu,NA,NA,FF4zVVJu,2020-0188,2021-11-13,23:58:08,01:09:25,NA,incomplete,false,NA,true,6,0,NA,right,E8_Q2_ansR.png,E8_Q4_ansL.png,within,NA,NaN,NA,right,2828,1,1,1524.8999999761581
FF4zVVJu,NA,NA,FF4zVVJu,2020-0188,2021-11-13,23:58:08,01:09:25,NA,incomplete,false,NA,true,6,1,NA,right,E8_Q8_ansR.png,E8_Q5_ansL.png,within,NA,NaN,NA,right,2947.9000000059605,1,1,1357.5
FF4zVVJu,NA,NA,FF4zVVJu,2020-0188,2021-11-13,23:58:08,01:09:25,NA,incomplete,false,NA,true,6,2,NA,right,E30_Q8_ansL.png,E8_Q6_ansL.png,between,NA,NaN,NA,right,3301.9000000059605,1,2,1173.0999999940395
FF4zVVJu,NA,NA,FF4zVVJu,2020-0188,2021-11-13,23:58:08,01:09:25,NA,incomplete,false,NA,true,6,3,NA,right,E30_Q3_ansL.png,E30_Q5_ansR.png,within,NA,NaN,NA,right,2458.4000000059605,1,1,2787.800000011921
FF4zVVJu,NA,NA,FF4zVVJu,2020-0188,2021-11-13,23:58:08,01:09:25,NA,incomplete,false,NA,true,6,4,NA,left,E30_Q7_ansL.png,E30_Q1_ansL.png,within,NA,NaN,NA,left,3045,1,0,4964.4000000059605
FF4zVVJu,NA,NA,FF4zVVJu,2020-0188,2021-11-13,23:58:08,01:09:25,NA,incomplete,false,NA,true,6,5,NA,left,E30_Q4_ansL.png,E30_Q9_ansL.png,within,NA,NaN,NA,left,4097.9000000059605,1,1,1457.5999999940395
FF4zVVJu,NA,NA,FF4zVVJu,2020-0188,2021-11-13,23:58:08,01:09:25,NA,incomplete,false,NA,true,6,6,NA,left,E30_Q1_ansL.png,E30_Q4_ansL.png,within,NA,NaN,NA,left,5002.9000000059605,1,0,1253.7000000178814
FF4zVVJu,NA,NA,FF4zVVJu,2020-0188,2021-11-13,23:58:08,01:09:25,NA,incomplete,false,NA,true,6,7,NA,right,E27_Q8_ansL.png,E30_Q6_ansR.png,between,NA,NaN,NA,right,8718.40000000596,1,2,2408.699999988079
FF4zVVJu,NA,NA,FF4zVVJu,2020-0188,2021-11-13,23:58:08,01:09:25,NA,incomplete,false,NA,true,6,8,NA,left,E8_Q3_ansL.png,E8_Q1_ansR.png,within,NA,NaN,NA,left,2040.300000011921,1,1,2112.9000000059605
FF4zVVJu,NA,NA,FF4zVVJu,2020-0188,2021-11-13,23:58:08,01:09:25,NA,incomplete,false,NA,true,6,9,NA,right,E27_Q2_ansL.png,E27_Q4_ansR.png,within,NA,NaN,NA,right,3792.5999999940395,1,1,923.7000000178814
FF4zVVJu,NA,NA,FF4zVVJu,2020-0188,2021-11-13,23:58:08,01:09:25,NA,incomplete,false,NA,true,6,10,NA,left,E8_Q8_ansR.png,E8_Q7_ansR.png,within,NA,NaN,NA,left,2096.800000011921,1,2,2995.699999988079
FF4zVVJu,NA,NA,FF4zVVJu,2020-0188,2021-11-13,23:58:08,01:09:25,NA,incomplete,false,NA,true,6,11,NA,left,E27_Q5_ansR.png,E27_Q7_ansL.png,within,NA,NaN,NA,right,1663.4000000059605,0,0,1059.800000011921
FF4zVVJu,NA,NA,FF4zVVJu,2020-0188,2021-11-13,23:58:08,01:09:25,NA,incomplete,false,NA,true,6,12,NA,left,E30_Q10_ansR.png,E30_Q6_ansR.png,within,NA,NaN,NA,left,3849.800000011921,1,1,907.3000000119209
FF4zVVJu,NA,NA,FF4zVVJu,2020-0188,2021-11-13,23:58:08,01:09:25,NA,incomplete,false,NA,true,6,13,NA,right,E27_Q1_ansL.png,E27_Q6_ansR.png,within,NA,NaN,NA,left,3103.4000000059605,0,0,1590.6000000238419
FF4zVVJu,NA,NA,FF4zVVJu,2020-0188,2021-11-13,23:58:08,01:09:25,NA,incomplete,false,NA,true,6,14,NA,right,E27_Q9_ansR.png,E27_Q10_ansL.png,within,NA,NaN,NA,right,1429.199999988079,1,0,1012.9000000059605
FF4zVVJu,NA,NA,FF4zVVJu,2020-0188,2021-11-13,23:58:08,01:09:25,NA,incomplete,false,NA,true,6,15,NA,left,E30_Q2_ansL.png,E27_Q10_ansL.png,between,NA,NaN,NA,left,3637.800000011921,1,1,3592.0999999940395
FF4zVVJu,NA,NA,FF4zVVJu,2020-0188,2021-11-13,23:58:08,01:09:25,NA,incomplete,false,NA,true,6,16,NA,left,E8_Q1_ansR.png,E8_Q10_ansR.png,within,NA,NaN,NA,left,5946.5,1,1,2571.5
FF4zVVJu,NA,NA,FF4zVVJu,2020-0188,2021-11-13,23:58:08,01:09:25,NA,incomplete,false,NA,true,6,17,NA,right,E27_Q3_ansR.png,E30_Q9_ansL.png,between,NA,NaN,NA,right,3961.199999988079,1,1,2786.5
FF4zVVJu,NA,NA,FF4zVVJu,2020-0188,2021-11-13,23:58:08,01:09:25,NA,incomplete,false,NA,true,6,18,NA,right,E8_Q6_ansL.png,E8_Q10_ansR.png,within,NA,NaN,NA,left,2482.399999976158,0,0,1092.2999999821186
FF4zVVJu,NA,NA,FF4zVVJu,2020-0188,2021-11-13,23:58:08,01:09:25,NA,incomplete,false,NA,true,6,19,NA,right,E30_Q10_ansR.png,E30_Q8_ansL.png,within,NA,NaN,NA,right,5269.9000000059605,1,1,1251.800000011921
FF4zVVJu,NA,NA,FF4zVVJu,2020-0188,2021-11-13,23:58:08,01:09:25,NA,incomplete,false,NA,true,6,20,NA,right,E27_Q6_ansR.png,E27_Q3_ansR.png,within,NA,NaN,NA,right,2039.5999999940395,1,2,2336.800000011921
FF4zVVJu,NA,NA,FF4zVVJu,2020-0188,2021-11-13,23:58:08,01:09:25,NA,incomplete,false,NA,true,6,21,NA,left,E8_Q7_ansR.png,E30_Q7_ansL.png,between,NA,NaN,NA,left,2562.9000000059605,1,1,3862.5999999940395
FF4zVVJu,NA,NA,FF4zVVJu,2020-0188,2021-11-13,23:58:08,01:09:25,NA,incomplete,false,NA,true,6,22,NA,right,E8_Q9_ansL.png,E8_Q2_ansR.png,within,NA,NaN,NA,right,4965.200000017881,1,0,1494.0999999940395
FF4zVVJu,NA,NA,FF4zVVJu,2020-0188,2021-11-13,23:58:08,01:09:25,NA,incomplete,false,NA,true,6,23,NA,left,E27_Q9_ansR.png,E27_Q5_ansR.png,within,NA,NaN,NA,left,1927.3999999761581,1,1,1490.5999999940395
FF4zVVJu,NA,NA,FF4zVVJu,2020-0188,2021-11-13,23:58:08,01:09:25,NA,incomplete,false,NA,true,6,24,NA,left,E8_Q9_ansL.png,E30_Q5_ansR.png,between,NA,NaN,NA,left,2369.699999988079,1,1,2780.4000000059605
FF4zVVJu,NA,NA,FF4zVVJu,2020-0188,2021-11-13,23:58:08,01:09:25,NA,incomplete,false,NA,true,6,25,NA,right,E30_Q2_ansL.png,E30_Q3_ansL.png,within,NA,NaN,NA,right,3446.5,1,1,2498.100000023842
FF4zVVJu,NA,NA,FF4zVVJu,2020-0188,2021-11-13,23:58:08,01:09:25,NA,incomplete,false,NA,true,6,26,NA,left,E27_Q8_ansL.png,E27_Q4_ansR.png,within,NA,NaN,NA,left,1888,1,0,1115.9000000059605
FF4zVVJu,NA,NA,FF4zVVJu,2020-0188,2021-11-13,23:58:08,01:09:25,NA,incomplete,false,true,NA,7,0,E31_Q1_ansR.png,right,NA,NA,NA,right,1817.80000001192,true,NA,NA,NA,NA,NA
FF4zVVJu,NA,NA,FF4zVVJu,2020-0188,2021-11-13,23:58:08,01:09:25,NA,incomplete,false,true,NA,7,1,E31_Q3_ansL.png,left,NA,NA,NA,left,1854.90000000596,true,NA,NA,NA,NA,NA
FF4zVVJu,NA,NA,FF4zVVJu,2020-0188,2021-11-13,23:58:08,01:09:25,NA,incomplete,false,true,NA,7,2,E31_Q4_ansL.png,left,NA,NA,NA,left,1200.20000001788,true,NA,NA,NA,NA,NA
FF4zVVJu,NA,NA,FF4zVVJu,2020-0188,2021-11-13,23:58:08,01:09:25,NA,incomplete,false,true,NA,7,3,E31_Q8_ansR.png,right,NA,NA,NA,right,1195.10000002384,true,NA,NA,NA,NA,NA
FF4zVVJu,NA,NA,FF4zVVJu,2020-0188,2021-11-13,23:58:08,01:09:25,NA,incomplete,false,true,NA,7,4,E31_Q9_ansL.png,left,NA,NA,NA,left,1203.59999999404,true,NA,NA,NA,NA,NA
FF4zVVJu,NA,NA,FF4zVVJu,2020-0188,2021-11-13,23:58:08,01:09:25,NA,incomplete,false,true,NA,7,5,E31_Q2_ansR.png,right,NA,NA,NA,right,1313,true,NA,NA,NA,NA,NA
FF4zVVJu,NA,NA,FF4zVVJu,2020-0188,2021-11-13,23:58:08,01:09:25,NA,incomplete,false,true,NA,7,6,E31_Q7_ansR.png,right,NA,NA,NA,right,1377.59999999404,true,NA,NA,NA,NA,NA
FF4zVVJu,NA,NA,FF4zVVJu,2020-0188,2021-11-13,23:58:08,01:09:25,NA,incomplete,false,true,NA,7,7,E31_Q5_ansL.png,left,NA,NA,NA,left,1008.5,true,NA,NA,NA,NA,NA
FF4zVVJu,NA,NA,FF4zVVJu,2020-0188,2021-11-13,23:58:08,01:09:25,NA,incomplete,false,true,NA,7,8,E31_Q6_ansL.png,left,NA,NA,NA,left,1081.09999999404,true,NA,NA,NA,NA,NA
FF4zVVJu,NA,NA,FF4zVVJu,2020-0188,2021-11-13,23:58:08,01:09:25,NA,incomplete,false,true,NA,7,9,E31_Q10_ansR.png,right,NA,NA,NA,right,1395,true,NA,NA,NA,NA,NA
FF4zVVJu,NA,NA,FF4zVVJu,2020-0188,2021-11-13,23:58:08,01:09:25,NA,incomplete,false,true,NA,7,10,E9_Q5_ansL.png,left,NA,NA,NA,left,1737.19999998808,true,NA,NA,NA,NA,NA
FF4zVVJu,NA,NA,FF4zVVJu,2020-0188,2021-11-13,23:58:08,01:09:25,NA,incomplete,false,true,NA,7,11,E9_Q2_ansR.png,right,NA,NA,NA,right,979.09999999404,true,NA,NA,NA,NA,NA
FF4zVVJu,NA,NA,FF4zVVJu,2020-0188,2021-11-13,23:58:08,01:09:25,NA,incomplete,false,true,NA,7,12,E9_Q10_ansR.png,right,NA,NA,NA,right,1647,true,NA,NA,NA,NA,NA
FF4zVVJu,NA,NA,FF4zVVJu,2020-0188,2021-11-13,23:58:08,01:09:25,NA,incomplete,false,true,NA,7,13,E9_Q6_ansL.png,left,NA,NA,NA,left,1919.5,true,NA,NA,NA,NA,NA
FF4zVVJu,NA,NA,FF4zVVJu,2020-0188,2021-11-13,23:58:08,01:09:25,NA,incomplete,false,true,NA,7,14,E9_Q9_ansL.png,left,NA,NA,NA,left,1261.90000000596,true,NA,NA,NA,NA,NA
FF4zVVJu,NA,NA,FF4zVVJu,2020-0188,2021-11-13,23:58:08,01:09:25,NA,incomplete,false,true,NA,7,15,E9_Q3_ansL.png,left,NA,NA,NA,left,1427.5,true,NA,NA,NA,NA,NA
FF4zVVJu,NA,NA,FF4zVVJu,2020-0188,2021-11-13,23:58:08,01:09:25,NA,incomplete,false,true,NA,7,16,E9_Q8_ansR.png,right,NA,NA,NA,right,1398.09999999404,true,NA,NA,NA,NA,NA
FF4zVVJu,NA,NA,FF4zVVJu,2020-0188,2021-11-13,23:58:08,01:09:25,NA,incomplete,false,true,NA,7,17,E9_Q1_ansR.png,right,NA,NA,NA,right,1330.80000001192,true,NA,NA,NA,NA,NA
FF4zVVJu,NA,NA,FF4zVVJu,2020-0188,2021-11-13,23:58:08,01:09:25,NA,incomplete,false,true,NA,7,18,E9_Q4_ansL.png,left,NA,NA,NA,left,1431,true,NA,NA,NA,NA,NA
FF4zVVJu,NA,NA,FF4zVVJu,2020-0188,2021-11-13,23:58:08,01:09:25,NA,incomplete,false,true,NA,7,19,E9_Q7_ansR.png,right,NA,NA,NA,right,1698.5,true,NA,NA,NA,NA,NA
FF4zVVJu,NA,NA,FF4zVVJu,2020-0188,2021-11-13,23:58:08,01:09:25,NA,incomplete,false,true,NA,7,20,E12_Q3_ansR.png,right,NA,NA,NA,right,2197.09999999404,true,NA,NA,NA,NA,NA
FF4zVVJu,NA,NA,FF4zVVJu,2020-0188,2021-11-13,23:58:08,01:09:25,NA,incomplete,false,true,NA,7,21,E12_Q2_ansL.png,left,NA,NA,NA,left,1418.30000001192,true,NA,NA,NA,NA,NA
FF4zVVJu,NA,NA,FF4zVVJu,2020-0188,2021-11-13,23:58:08,01:09:25,NA,incomplete,false,true,NA,7,22,E12_Q7_ansL.png,left,NA,NA,NA,left,1348.90000000596,true,NA,NA,NA,NA,NA
FF4zVVJu,NA,NA,FF4zVVJu,2020-0188,2021-11-13,23:58:08,01:09:25,NA,incomplete,false,true,NA,7,23,E12_Q6_ansR.png,right,NA,NA,NA,right,1565.30000001192,true,NA,NA,NA,NA,NA
FF4zVVJu,NA,NA,FF4zVVJu,2020-0188,2021-11-13,23:58:08,01:09:25,NA,incomplete,false,true,NA,7,24,E12_Q10_ansL.png,left,NA,NA,NA,left,1258.69999998808,true,NA,NA,NA,NA,NA
FF4zVVJu,NA,NA,FF4zVVJu,2020-0188,2021-11-13,23:58:08,01:09:25,NA,incomplete,false,true,NA,7,25,E12_Q4_ansR.png,right,NA,NA,NA,right,1232.20000001788,true,NA,NA,NA,NA,NA
FF4zVVJu,NA,NA,FF4zVVJu,2020-0188,2021-11-13,23:58:08,01:09:25,NA,incomplete,false,true,NA,7,26,E12_Q5_ansR.png,right,NA,NA,NA,right,1370.09999999404,true,NA,NA,NA,NA,NA
FF4zVVJu,NA,NA,FF4zVVJu,2020-0188,2021-11-13,23:58:08,01:09:25,NA,incomplete,false,true,NA,7,27,E12_Q8_ansL.png,left,NA,NA,NA,left,1176.30000001192,true,NA,NA,NA,NA,NA
FF4zVVJu,NA,NA,FF4zVVJu,2020-0188,2021-11-13,23:58:08,01:09:25,NA,incomplete,false,true,NA,7,28,E12_Q9_ansR.png,right,NA,NA,NA,right,1223.20000001788,true,NA,NA,NA,NA,NA
FF4zVVJu,NA,NA,FF4zVVJu,2020-0188,2021-11-13,23:58:08,01:09:25,NA,incomplete,false,true,NA,7,29,E12_Q1_ansL.png,left,NA,NA,NA,left,1968.79999998212,true,NA,NA,NA,NA,NA
FF4zVVJu,NA,NA,FF4zVVJu,2020-0188,2021-11-13,23:58:08,01:09:25,NA,incomplete,false,NA,true,7,0,NA,left,E31_Q9_ansL.png,E31_Q5_ansL.png,within,NA,NaN,NA,left,3871.5999999940395,1,1,3134
FF4zVVJu,NA,NA,FF4zVVJu,2020-0188,2021-11-13,23:58:08,01:09:25,NA,incomplete,false,NA,true,7,1,NA,right,E9_Q5_ansL.png,E31_Q5_ansL.png,between,NA,NaN,NA,right,2957.5,1,2,2876.9000000059605
FF4zVVJu,NA,NA,FF4zVVJu,2020-0188,2021-11-13,23:58:08,01:09:25,NA,incomplete,false,NA,true,7,2,NA,right,E31_Q2_ansR.png,E31_Q4_ansL.png,within,NA,NaN,NA,left,3608.699999988079,0,0,1093.3999999761581
FF4zVVJu,NA,NA,FF4zVVJu,2020-0188,2021-11-13,23:58:08,01:09:25,NA,incomplete,false,NA,true,7,3,NA,left,E31_Q6_ansL.png,E9_Q2_ansR.png,between,NA,NaN,NA,left,3013.800000011921,1,2,2048.7999999821186
FF4zVVJu,NA,NA,FF4zVVJu,2020-0188,2021-11-13,23:58:08,01:09:25,NA,incomplete,false,NA,true,7,4,NA,left,E12_Q5_ansR.png,E12_Q1_ansL.png,within,NA,NaN,NA,right,4507.799999982119,0,0,939.9000000059605
FF4zVVJu,NA,NA,FF4zVVJu,2020-0188,2021-11-13,23:58:08,01:09:25,NA,incomplete,false,NA,true,7,5,NA,left,E12_Q10_ansL.png,E12_Q8_ansL.png,within,NA,NaN,NA,left,3527.5999999940395,1,0,1493.5
FF4zVVJu,NA,NA,FF4zVVJu,2020-0188,2021-11-13,23:58:08,01:09:25,NA,incomplete,false,NA,true,7,6,NA,left,E31_Q8_ansR.png,E31_Q7_ansR.png,within,NA,NaN,NA,left,1960.0999999940395,1,1,1494.2999999821186
FF4zVVJu,NA,NA,FF4zVVJu,2020-0188,2021-11-13,23:58:08,01:09:25,NA,incomplete,false,NA,true,7,7,NA,left,E9_Q8_ansR.png,E9_Q7_ansR.png,within,NA,NaN,NA,left,3656,1,1,803.5
FF4zVVJu,NA,NA,FF4zVVJu,2020-0188,2021-11-13,23:58:08,01:09:25,NA,incomplete,false,NA,true,7,8,NA,left,E9_Q4_ansL.png,E12_Q2_ansL.png,between,NA,NaN,NA,left,8622.299999982119,1,2,3576.699999988079
FF4zVVJu,NA,NA,FF4zVVJu,2020-0188,2021-11-13,23:58:08,01:09:25,NA,incomplete,false,NA,true,7,9,NA,left,E31_Q7_ansR.png,E31_Q10_ansR.png,within,NA,NaN,NA,right,3182.199999988079,0,1,1781.699999988079
FF4zVVJu,NA,NA,FF4zVVJu,2020-0188,2021-11-13,23:58:08,01:09:25,NA,incomplete,false,NA,true,7,10,NA,right,E9_Q9_ansL.png,E9_Q2_ansR.png,within,NA,NaN,NA,left,4170.199999988079,0,1,1276.5999999940395
FF4zVVJu,NA,NA,FF4zVVJu,2020-0188,2021-11-13,23:58:08,01:09:25,NA,incomplete,false,NA,true,7,11,NA,right,E31_Q6_ansL.png,E31_Q2_ansR.png,within,NA,NaN,NA,right,1908.5999999940395,1,1,1703.3999999761581
FF4zVVJu,NA,NA,FF4zVVJu,2020-0188,2021-11-13,23:58:08,01:09:25,NA,incomplete,false,NA,true,7,12,NA,left,E12_Q3_ansR.png,E12_Q6_ansR.png,within,NA,NaN,NA,left,1920.4000000059605,1,0,1180.5
FF4zVVJu,NA,NA,FF4zVVJu,2020-0188,2021-11-13,23:58:08,01:09:25,NA,incomplete,false,NA,true,7,13,NA,right,E9_Q10_ansR.png,E31_Q10_ansR.png,between,NA,NaN,NA,right,3639.5,1,2,3390.7999999821186
FF4zVVJu,NA,NA,FF4zVVJu,2020-0188,2021-11-13,23:58:08,01:09:25,NA,incomplete,false,NA,true,7,14,NA,right,E9_Q6_ansL.png,E9_Q5_ansL.png,within,NA,NaN,NA,right,3814.800000011921,1,0,2169.0999999940395
FF4zVVJu,NA,NA,FF4zVVJu,2020-0188,2021-11-13,23:58:08,01:09:25,NA,incomplete,false,NA,true,7,15,NA,left,E9_Q1_ansR.png,E12_Q3_ansR.png,between,NA,NaN,NA,left,4082,1,2,1091.7999999821186
FF4zVVJu,NA,NA,FF4zVVJu,2020-0188,2021-11-13,23:58:08,01:09:25,NA,incomplete,false,NA,true,7,16,NA,left,E31_Q3_ansL.png,E31_Q9_ansL.png,within,NA,NaN,NA,left,2586.9000000059605,1,0,1140.5
FF4zVVJu,NA,NA,FF4zVVJu,2020-0188,2021-11-13,23:58:08,01:09:25,NA,incomplete,false,NA,true,7,17,NA,left,E12_Q2_ansL.png,E12_Q10_ansL.png,within,NA,NaN,NA,left,2940.5,1,0,1082.800000011921
FF4zVVJu,NA,NA,FF4zVVJu,2020-0188,2021-11-13,23:58:08,01:09:25,NA,incomplete,false,NA,true,7,18,NA,right,E9_Q8_ansR.png,E9_Q6_ansL.png,within,NA,NaN,NA,left,2274.7999999821186,0,1,1911.699999988079
FF4zVVJu,NA,NA,FF4zVVJu,2020-0188,2021-11-13,23:58:08,01:09:25,NA,incomplete,false,NA,true,7,19,NA,left,E9_Q3_ansL.png,E9_Q4_ansL.png,within,NA,NaN,NA,left,3535.4000000059605,1,1,955.8000000119209
FF4zVVJu,NA,NA,FF4zVVJu,2020-0188,2021-11-13,23:58:08,01:09:25,NA,incomplete,false,NA,true,7,20,NA,right,E12_Q9_ansR.png,E12_Q4_ansR.png,within,NA,NaN,NA,right,2627.7000000178814,1,0,1173.3999999761581
FF4zVVJu,NA,NA,FF4zVVJu,2020-0188,2021-11-13,23:58:08,01:09:25,NA,incomplete,false,NA,true,7,21,NA,right,E12_Q4_ansR.png,E12_Q7_ansL.png,within,NA,NaN,NA,right,3285.5,1,0,1060.800000011921
FF4zVVJu,NA,NA,FF4zVVJu,2020-0188,2021-11-13,23:58:08,01:09:25,NA,incomplete,false,NA,true,7,22,NA,left,E9_Q10_ansR.png,E9_Q3_ansL.png,within,NA,NaN,NA,left,5833.399999976158,1,1,1227.800000011921
FF4zVVJu,NA,NA,FF4zVVJu,2020-0188,2021-11-13,23:58:08,01:09:25,NA,incomplete,false,NA,true,7,23,NA,left,E31_Q1_ansR.png,E31_Q8_ansR.png,within,NA,NaN,NA,left,2257.699999988079,1,0,1244.9000000059605
FF4zVVJu,NA,NA,FF4zVVJu,2020-0188,2021-11-13,23:58:08,01:09:25,NA,incomplete,false,NA,true,7,24,NA,right,E9_Q1_ansR.png,E9_Q9_ansL.png,within,NA,NaN,NA,right,2313.5999999940395,1,1,747.0999999940395
FF4zVVJu,NA,NA,FF4zVVJu,2020-0188,2021-11-13,23:58:08,01:09:25,NA,incomplete,false,NA,true,7,25,NA,left,E12_Q6_ansR.png,E12_Q5_ansR.png,within,NA,NaN,NA,left,2965.0999999940395,1,1,1003.7999999821186
FF4zVVJu,NA,NA,FF4zVVJu,2020-0188,2021-11-13,23:58:08,01:09:25,NA,incomplete,false,NA,true,7,26,NA,left,E9_Q7_ansR.png,E12_Q7_ansL.png,between,NA,NaN,NA,left,2618.800000011921,1,2,1895.300000011921
FF4zVVJu,NA,NA,FF4zVVJu,2020-0188,2021-11-13,23:58:08,01:09:25,NA,incomplete,false,true,NA,8,0,E18_Q10_ansL.png,left,NA,NA,NA,left,1730.80000001192,true,NA,NA,NA,NA,NA
FF4zVVJu,NA,NA,FF4zVVJu,2020-0188,2021-11-13,23:58:08,01:09:25,NA,incomplete,false,true,NA,8,1,E18_Q7_ansL.png,left,NA,NA,NA,left,1516.60000002384,true,NA,NA,NA,NA,NA
FF4zVVJu,NA,NA,FF4zVVJu,2020-0188,2021-11-13,23:58:08,01:09:25,NA,incomplete,false,true,NA,8,2,E18_Q2_ansL.png,left,NA,NA,NA,left,1201,true,NA,NA,NA,NA,NA
FF4zVVJu,NA,NA,FF4zVVJu,2020-0188,2021-11-13,23:58:08,01:09:25,NA,incomplete,false,true,NA,8,3,E18_Q1_ansL.png,left,NA,NA,NA,left,951.59999999404,true,NA,NA,NA,NA,NA
FF4zVVJu,NA,NA,FF4zVVJu,2020-0188,2021-11-13,23:58:08,01:09:25,NA,incomplete,false,true,NA,8,4,E18_Q5_ansR.png,right,NA,NA,NA,right,2180.5,true,NA,NA,NA,NA,NA
FF4zVVJu,NA,NA,FF4zVVJu,2020-0188,2021-11-13,23:58:08,01:09:25,NA,incomplete,false,true,NA,8,5,E18_Q3_ansR.png,right,NA,NA,NA,right,1413.19999998808,true,NA,NA,NA,NA,NA
FF4zVVJu,NA,NA,FF4zVVJu,2020-0188,2021-11-13,23:58:08,01:09:25,NA,incomplete,false,true,NA,8,6,E18_Q4_ansR.png,right,NA,NA,NA,right,1219.80000001192,true,NA,NA,NA,NA,NA
FF4zVVJu,NA,NA,FF4zVVJu,2020-0188,2021-11-13,23:58:08,01:09:25,NA,incomplete,false,true,NA,8,7,E18_Q6_ansR.png,right,NA,NA,NA,right,1120.90000000596,true,NA,NA,NA,NA,NA
FF4zVVJu,NA,NA,FF4zVVJu,2020-0188,2021-11-13,23:58:08,01:09:25,NA,incomplete,false,true,NA,8,8,E18_Q9_ansR.png,right,NA,NA,NA,right,1436,true,NA,NA,NA,NA,NA
FF4zVVJu,NA,NA,FF4zVVJu,2020-0188,2021-11-13,23:58:08,01:09:25,NA,incomplete,false,true,NA,8,9,E18_Q8_ansL.png,left,NA,NA,NA,left,1307,true,NA,NA,NA,NA,NA
FF4zVVJu,NA,NA,FF4zVVJu,2020-0188,2021-11-13,23:58:08,01:09:25,NA,incomplete,false,true,NA,8,10,E26_Q1_ansL.png,left,NA,NA,NA,left,2070.19999998808,true,NA,NA,NA,NA,NA
FF4zVVJu,NA,NA,FF4zVVJu,2020-0188,2021-11-13,23:58:08,01:09:25,NA,incomplete,false,true,NA,8,11,E26_Q2_ansL.png,left,NA,NA,NA,left,1108.19999998808,true,NA,NA,NA,NA,NA
FF4zVVJu,NA,NA,FF4zVVJu,2020-0188,2021-11-13,23:58:08,01:09:25,NA,incomplete,false,true,NA,8,12,E26_Q6_ansR.png,right,NA,NA,NA,right,1209.89999997616,true,NA,NA,NA,NA,NA
FF4zVVJu,NA,NA,FF4zVVJu,2020-0188,2021-11-13,23:58:08,01:09:25,NA,incomplete,false,true,NA,8,13,E26_Q4_ansR.png,right,NA,NA,NA,right,1351.09999999404,true,NA,NA,NA,NA,NA
FF4zVVJu,NA,NA,FF4zVVJu,2020-0188,2021-11-13,23:58:08,01:09:25,NA,incomplete,false,true,NA,8,14,E26_Q3_ansR.png,right,NA,NA,NA,right,1280.5,true,NA,NA,NA,NA,NA
FF4zVVJu,NA,NA,FF4zVVJu,2020-0188,2021-11-13,23:58:08,01:09:25,NA,incomplete,false,true,NA,8,15,E26_Q7_ansL.png,left,NA,NA,NA,left,1044.30000001192,true,NA,NA,NA,NA,NA
FF4zVVJu,NA,NA,FF4zVVJu,2020-0188,2021-11-13,23:58:08,01:09:25,NA,incomplete,false,true,NA,8,16,E26_Q9_ansR.png,right,NA,NA,NA,right,1305.10000002384,true,NA,NA,NA,NA,NA
FF4zVVJu,NA,NA,FF4zVVJu,2020-0188,2021-11-13,23:58:08,01:09:25,NA,incomplete,false,true,NA,8,17,E26_Q10_ansL.png,left,NA,NA,NA,left,1238.90000000596,true,NA,NA,NA,NA,NA
FF4zVVJu,NA,NA,FF4zVVJu,2020-0188,2021-11-13,23:58:08,01:09:25,NA,incomplete,false,true,NA,8,18,E26_Q5_ansR.png,right,NA,NA,NA,right,1193.30000001192,true,NA,NA,NA,NA,NA
FF4zVVJu,NA,NA,FF4zVVJu,2020-0188,2021-11-13,23:58:08,01:09:25,NA,incomplete,false,true,NA,8,19,E26_Q8_ansL.png,left,NA,NA,NA,left,1012.79999998212,true,NA,NA,NA,NA,NA
FF4zVVJu,NA,NA,FF4zVVJu,2020-0188,2021-11-13,23:58:08,01:09:25,NA,incomplete,false,true,NA,8,20,E1_Q4_ansL.png,left,NA,NA,NA,left,2018.30000001192,true,NA,NA,NA,NA,NA
FF4zVVJu,NA,NA,FF4zVVJu,2020-0188,2021-11-13,23:58:08,01:09:25,NA,incomplete,false,true,NA,8,21,E1_Q7_ansL.png,left,NA,NA,NA,left,1017.19999998808,true,NA,NA,NA,NA,NA
FF4zVVJu,NA,NA,FF4zVVJu,2020-0188,2021-11-13,23:58:08,01:09:25,NA,incomplete,false,true,NA,8,22,E1_Q6_ansR.png,right,NA,NA,NA,right,1421.79999998212,true,NA,NA,NA,NA,NA
FF4zVVJu,NA,NA,FF4zVVJu,2020-0188,2021-11-13,23:58:08,01:09:25,NA,incomplete,false,true,NA,8,23,E1_Q3_ansR.png,right,NA,NA,NA,right,2483.09999999404,true,NA,NA,NA,NA,NA
FF4zVVJu,NA,NA,FF4zVVJu,2020-0188,2021-11-13,23:58:08,01:09:25,NA,incomplete,false,true,NA,8,24,E1_Q8_ansR.png,right,NA,NA,NA,right,1296.70000001788,true,NA,NA,NA,NA,NA
FF4zVVJu,NA,NA,FF4zVVJu,2020-0188,2021-11-13,23:58:08,01:09:25,NA,incomplete,false,true,NA,8,25,E1_Q10_ansR.png,right,NA,NA,NA,right,1411.69999998808,true,NA,NA,NA,NA,NA
FF4zVVJu,NA,NA,FF4zVVJu,2020-0188,2021-11-13,23:58:08,01:09:25,NA,incomplete,false,true,NA,8,26,E1_Q9_ansL.png,left,NA,NA,NA,left,1059.70000001788,true,NA,NA,NA,NA,NA
FF4zVVJu,NA,NA,FF4zVVJu,2020-0188,2021-11-13,23:58:08,01:09:25,NA,incomplete,false,true,NA,8,27,E1_Q1_ansL.png,left,NA,NA,NA,left,1186.29999998212,true,NA,NA,NA,NA,NA
FF4zVVJu,NA,NA,FF4zVVJu,2020-0188,2021-11-13,23:58:08,01:09:25,NA,incomplete,false,true,NA,8,28,E1_Q5_ansR.png,right,NA,NA,NA,right,1030.90000000596,true,NA,NA,NA,NA,NA
FF4zVVJu,NA,NA,FF4zVVJu,2020-0188,2021-11-13,23:58:08,01:09:25,NA,incomplete,false,true,NA,8,29,E1_Q2_ansL.png,left,NA,NA,NA,left,1367.90000000596,true,NA,NA,NA,NA,NA
FF4zVVJu,NA,NA,FF4zVVJu,2020-0188,2021-11-13,23:58:08,01:09:25,NA,incomplete,false,NA,true,8,0,NA,right,E26_Q6_ansR.png,E18_Q8_ansL.png,between,NA,NaN,NA,right,3990.7999999821186,1,2,1123.7999999821186
FF4zVVJu,NA,NA,FF4zVVJu,2020-0188,2021-11-13,23:58:08,01:09:25,NA,incomplete,false,NA,true,8,1,NA,left,E26_Q4_ansR.png,E26_Q9_ansR.png,within,NA,NaN,NA,right,3549.800000011921,0,0,2087.199999988079
FF4zVVJu,NA,NA,FF4zVVJu,2020-0188,2021-11-13,23:58:08,01:09:25,NA,incomplete,false,NA,true,8,2,NA,right,E1_Q6_ansR.png,E26_Q8_ansL.png,between,NA,NaN,NA,right,2738.699999988079,1,2,1951.699999988079
FF4zVVJu,NA,NA,FF4zVVJu,2020-0188,2021-11-13,23:58:08,01:09:25,NA,incomplete,false,NA,true,8,3,NA,left,E18_Q6_ansR.png,E26_Q1_ansL.png,between,NA,NaN,NA,left,2569.7999999821186,1,2,2089.2000000178814
FF4zVVJu,NA,NA,FF4zVVJu,2020-0188,2021-11-13,23:58:08,01:09:25,NA,incomplete,false,NA,true,8,4,NA,right,E1_Q5_ansR.png,E1_Q10_ansR.png,within,NA,NaN,NA,right,5768.299999982119,1,1,1871.5999999940395
FF4zVVJu,NA,NA,FF4zVVJu,2020-0188,2021-11-13,23:58:08,01:09:25,NA,incomplete,false,NA,true,8,5,NA,right,E1_Q9_ansL.png,E1_Q3_ansR.png,within,NA,NaN,NA,right,2611.600000023842,1,0,1614.4000000059605
FF4zVVJu,NA,NA,FF4zVVJu,2020-0188,2021-11-13,23:58:08,01:09:25,NA,incomplete,false,NA,true,8,6,NA,left,E1_Q7_ansL.png,E1_Q8_ansR.png,within,NA,NaN,NA,left,2233.0999999940395,1,1,3373.7999999821186
FF4zVVJu,NA,NA,FF4zVVJu,2020-0188,2021-11-13,23:58:08,01:09:25,NA,incomplete,false,NA,true,8,7,NA,left,E18_Q3_ansR.png,E18_Q9_ansR.png,within,NA,NaN,NA,left,3325.300000011921,1,1,915.5
FF4zVVJu,NA,NA,FF4zVVJu,2020-0188,2021-11-13,23:58:08,01:09:25,NA,incomplete,false,NA,true,8,8,NA,right,E1_Q10_ansR.png,E1_Q6_ansR.png,within,NA,NaN,NA,right,6219.4000000059605,1,1,1148.800000011921
FF4zVVJu,NA,NA,FF4zVVJu,2020-0188,2021-11-13,23:58:08,01:09:25,NA,incomplete,false,NA,true,8,9,NA,right,E1_Q3_ansR.png,E1_Q4_ansL.png,within,NA,NaN,NA,right,3149.399999976158,1,1,1019.2999999821186
FF4zVVJu,NA,NA,FF4zVVJu,2020-0188,2021-11-13,23:58:08,01:09:25,NA,incomplete,false,NA,true,8,10,NA,left,E26_Q5_ansR.png,E1_Q7_ansL.png,between,NA,NaN,NA,left,2996.4000000059605,1,2,2988.7000000178814
FF4zVVJu,NA,NA,FF4zVVJu,2020-0188,2021-11-13,23:58:08,01:09:25,NA,incomplete,false,NA,true,8,11,NA,right,E26_Q7_ansL.png,E26_Q6_ansR.png,within,NA,NaN,NA,right,1911.699999988079,1,1,1316.699999988079
FF4zVVJu,NA,NA,FF4zVVJu,2020-0188,2021-11-13,23:58:08,01:09:25,NA,incomplete,false,NA,true,8,12,NA,left,E26_Q2_ansL.png,E26_Q3_ansR.png,within,NA,NaN,NA,left,2481.5,1,1,1309.5
FF4zVVJu,NA,NA,FF4zVVJu,2020-0188,2021-11-13,23:58:08,01:09:25,NA,incomplete,false,NA,true,8,13,NA,left,E18_Q4_ansR.png,E18_Q8_ansL.png,within,NA,NaN,NA,left,4080.800000011921,1,0,2201.5999999940395
FF4zVVJu,NA,NA,FF4zVVJu,2020-0188,2021-11-13,23:58:08,01:09:25,NA,incomplete,false,NA,true,8,14,NA,left,E18_Q9_ansR.png,E26_Q2_ansL.png,between,NA,NaN,NA,left,5802,1,2,2956
FF4zVVJu,NA,NA,FF4zVVJu,2020-0188,2021-11-13,23:58:08,01:09:25,NA,incomplete,false,NA,true,8,15,NA,left,E26_Q1_ansL.png,E26_Q4_ansR.png,within,NA,NaN,NA,left,3012.199999988079,1,1,1093
FF4zVVJu,NA,NA,FF4zVVJu,2020-0188,2021-11-13,23:58:08,01:09:25,NA,incomplete,false,NA,true,8,16,NA,right,E18_Q6_ansR.png,E18_Q5_ansR.png,within,NA,NaN,NA,right,1895.2999999821186,1,1,3229.800000011921
FF4zVVJu,NA,NA,FF4zVVJu,2020-0188,2021-11-13,23:58:08,01:09:25,NA,incomplete,false,NA,true,8,17,NA,right,E1_Q2_ansL.png,E1_Q9_ansL.png,within,NA,NaN,NA,left,4330.299999982119,0,1,1237.800000011921
FF4zVVJu,NA,NA,FF4zVVJu,2020-0188,2021-11-13,23:58:08,01:09:25,NA,incomplete,false,NA,true,8,18,NA,left,E26_Q9_ansR.png,E26_Q8_ansL.png,within,NA,NaN,NA,right,2763.2999999821186,0,1,1092.9000000059605
FF4zVVJu,NA,NA,FF4zVVJu,2020-0188,2021-11-13,23:58:08,01:09:25,NA,incomplete,false,NA,true,8,19,NA,left,E1_Q8_ansR.png,E1_Q1_ansL.png,within,NA,NaN,NA,left,3566.399999976158,1,1,4890.700000017881
FF4zVVJu,NA,NA,FF4zVVJu,2020-0188,2021-11-13,23:58:08,01:09:25,NA,incomplete,false,NA,true,8,20,NA,left,E26_Q10_ansL.png,E1_Q4_ansL.png,between,NA,NaN,NA,left,2538.9000000059605,1,2,1124.199999988079
FF4zVVJu,NA,NA,FF4zVVJu,2020-0188,2021-11-13,23:58:08,01:09:25,NA,incomplete,false,NA,true,8,21,NA,right,E26_Q5_ansR.png,E26_Q7_ansL.png,within,NA,NaN,NA,left,3848.2000000178814,0,1,964
FF4zVVJu,NA,NA,FF4zVVJu,2020-0188,2021-11-13,23:58:08,01:09:25,NA,incomplete,false,NA,true,8,22,NA,left,E18_Q1_ansL.png,E18_Q4_ansR.png,within,NA,NaN,NA,left,2619.199999988079,1,1,770.8999999761581
FF4zVVJu,NA,NA,FF4zVVJu,2020-0188,2021-11-13,23:58:08,01:09:25,NA,incomplete,false,NA,true,8,23,NA,right,E18_Q5_ansR.png,E18_Q7_ansL.png,within,NA,NaN,NA,right,2924.9000000059605,1,0,2080.5999999940395
FF4zVVJu,NA,NA,FF4zVVJu,2020-0188,2021-11-13,23:58:08,01:09:25,NA,incomplete,false,NA,true,8,24,NA,left,E18_Q2_ansL.png,E18_Q3_ansR.png,within,NA,NaN,NA,left,2981,1,1,1197.5
FF4zVVJu,NA,NA,FF4zVVJu,2020-0188,2021-11-13,23:58:08,01:09:25,NA,incomplete,false,NA,true,8,25,NA,right,E26_Q10_ansL.png,E26_Q3_ansR.png,within,NA,NaN,NA,right,1920.5999999940395,1,1,1252.699999988079
FF4zVVJu,NA,NA,FF4zVVJu,2020-0188,2021-11-13,23:58:08,01:09:25,NA,incomplete,false,NA,true,8,26,NA,right,E18_Q1_ansL.png,E18_Q10_ansL.png,within,NA,NaN,NA,right,1816.0999999940395,1,0,849.5999999940395
FF4zVVJu,NA,NA,FF4zVVJu,2020-0188,2021-11-13,23:58:08,01:09:25,NA,incomplete,false,true,NA,9,0,E17_Q1_ansL.png,left,NA,NA,NA,left,1885,true,NA,NA,NA,NA,NA
FF4zVVJu,NA,NA,FF4zVVJu,2020-0188,2021-11-13,23:58:08,01:09:25,NA,incomplete,false,true,NA,9,1,E17_Q3_ansR.png,right,NA,NA,NA,right,1395.89999997616,true,NA,NA,NA,NA,NA
FF4zVVJu,NA,NA,FF4zVVJu,2020-0188,2021-11-13,23:58:08,01:09:25,NA,incomplete,false,true,NA,9,2,E17_Q2_ansL.png,left,NA,NA,NA,left,1071.69999998808,true,NA,NA,NA,NA,NA
FF4zVVJu,NA,NA,FF4zVVJu,2020-0188,2021-11-13,23:58:08,01:09:25,NA,incomplete,false,true,NA,9,3,E17_Q9_ansR.png,right,NA,NA,NA,right,1345.79999998212,true,NA,NA,NA,NA,NA
FF4zVVJu,NA,NA,FF4zVVJu,2020-0188,2021-11-13,23:58:08,01:09:25,NA,incomplete,false,true,NA,9,4,E17_Q6_ansR.png,right,NA,NA,NA,right,1517.30000001192,true,NA,NA,NA,NA,NA
FF4zVVJu,NA,NA,FF4zVVJu,2020-0188,2021-11-13,23:58:08,01:09:25,NA,incomplete,false,true,NA,9,5,E17_Q5_ansR.png,right,NA,NA,NA,right,1427.30000001192,true,NA,NA,NA,NA,NA
FF4zVVJu,NA,NA,FF4zVVJu,2020-0188,2021-11-13,23:58:08,01:09:25,NA,incomplete,false,true,NA,9,6,E17_Q8_ansL.png,left,NA,NA,NA,left,1131.40000000596,true,NA,NA,NA,NA,NA
FF4zVVJu,NA,NA,FF4zVVJu,2020-0188,2021-11-13,23:58:08,01:09:25,NA,incomplete,false,true,NA,9,7,E17_Q10_ansL.png,left,NA,NA,NA,left,1016.5,true,NA,NA,NA,NA,NA
FF4zVVJu,NA,NA,FF4zVVJu,2020-0188,2021-11-13,23:58:08,01:09:25,NA,incomplete,false,true,NA,9,8,E17_Q7_ansL.png,left,NA,NA,NA,left,1145.40000000596,true,NA,NA,NA,NA,NA
FF4zVVJu,NA,NA,FF4zVVJu,2020-0188,2021-11-13,23:58:08,01:09:25,NA,incomplete,false,true,NA,9,9,E17_Q4_ansR.png,right,NA,NA,NA,right,1333.59999999404,true,NA,NA,NA,NA,NA
FF4zVVJu,NA,NA,FF4zVVJu,2020-0188,2021-11-13,23:58:08,01:09:25,NA,incomplete,false,true,NA,9,10,E3_Q7_ansL.png,left,NA,NA,NA,left,1781.90000000596,true,NA,NA,NA,NA,NA
FF4zVVJu,NA,NA,FF4zVVJu,2020-0188,2021-11-13,23:58:08,01:09:25,NA,incomplete,false,true,NA,9,11,E3_Q8_ansL.png,left,NA,NA,NA,left,1549.89999997616,true,NA,NA,NA,NA,NA
FF4zVVJu,NA,NA,FF4zVVJu,2020-0188,2021-11-13,23:58:08,01:09:25,NA,incomplete,false,true,NA,9,12,E3_Q2_ansL.png,left,NA,NA,NA,left,1303.20000001788,true,NA,NA,NA,NA,NA
FF4zVVJu,NA,NA,FF4zVVJu,2020-0188,2021-11-13,23:58:08,01:09:25,NA,incomplete,false,true,NA,9,13,E3_Q4_ansL.png,left,NA,NA,NA,left,1406.80000001192,true,NA,NA,NA,NA,NA
FF4zVVJu,NA,NA,FF4zVVJu,2020-0188,2021-11-13,23:58:08,01:09:25,NA,incomplete,false,true,NA,9,14,E3_Q3_ansR.png,right,NA,NA,NA,right,1284.59999999404,true,NA,NA,NA,NA,NA
FF4zVVJu,NA,NA,FF4zVVJu,2020-0188,2021-11-13,23:58:08,01:09:25,NA,incomplete,false,true,NA,9,15,E3_Q9_ansL.png,left,NA,NA,NA,left,1407.40000000596,true,NA,NA,NA,NA,NA
FF4zVVJu,NA,NA,FF4zVVJu,2020-0188,2021-11-13,23:58:08,01:09:25,NA,incomplete,false,true,NA,9,16,E3_Q5_ansR.png,right,NA,NA,NA,right,1107.09999999404,true,NA,NA,NA,NA,NA
FF4zVVJu,NA,NA,FF4zVVJu,2020-0188,2021-11-13,23:58:08,01:09:25,NA,incomplete,false,true,NA,9,17,E3_Q10_ansR.png,right,NA,NA,NA,right,1219.79999998212,true,NA,NA,NA,NA,NA
FF4zVVJu,NA,NA,FF4zVVJu,2020-0188,2021-11-13,23:58:08,01:09:25,NA,incomplete,false,true,NA,9,18,E3_Q6_ansR.png,right,NA,NA,NA,right,1129.69999998808,true,NA,NA,NA,NA,NA
FF4zVVJu,NA,NA,FF4zVVJu,2020-0188,2021-11-13,23:58:08,01:09:25,NA,incomplete,false,true,NA,9,19,E3_Q1_ansR.png,right,NA,NA,NA,right,998.09999999404,true,NA,NA,NA,NA,NA
FF4zVVJu,NA,NA,FF4zVVJu,2020-0188,2021-11-13,23:58:08,01:09:25,NA,incomplete,false,true,NA,9,20,E16_Q9_ansL.png,left,NA,NA,NA,left,1199.09999999404,true,NA,NA,NA,NA,NA
FF4zVVJu,NA,NA,FF4zVVJu,2020-0188,2021-11-13,23:58:08,01:09:25,NA,incomplete,false,true,NA,9,21,E16_Q3_ansL.png,left,NA,NA,NA,left,919.40000000596,true,NA,NA,NA,NA,NA
FF4zVVJu,NA,NA,FF4zVVJu,2020-0188,2021-11-13,23:58:08,01:09:25,NA,incomplete,false,true,NA,9,22,E16_Q7_ansR.png,right,NA,NA,NA,right,964.5,true,NA,NA,NA,NA,NA
FF4zVVJu,NA,NA,FF4zVVJu,2020-0188,2021-11-13,23:58:08,01:09:25,NA,incomplete,false,true,NA,9,23,E16_Q5_ansL.png,left,NA,NA,NA,left,973.90000000596,true,NA,NA,NA,NA,NA
FF4zVVJu,NA,NA,FF4zVVJu,2020-0188,2021-11-13,23:58:08,01:09:25,NA,incomplete,false,true,NA,9,24,E16_Q6_ansL.png,left,NA,NA,NA,left,1174.40000000596,true,NA,NA,NA,NA,NA
FF4zVVJu,NA,NA,FF4zVVJu,2020-0188,2021-11-13,23:58:08,01:09:25,NA,incomplete,false,true,NA,9,25,E16_Q1_ansR.png,right,NA,NA,NA,right,1091.09999999404,true,NA,NA,NA,NA,NA
FF4zVVJu,NA,NA,FF4zVVJu,2020-0188,2021-11-13,23:58:08,01:09:25,NA,incomplete,false,true,NA,9,26,E16_Q8_ansR.png,right,NA,NA,NA,right,1435.5,true,NA,NA,NA,NA,NA
FF4zVVJu,NA,NA,FF4zVVJu,2020-0188,2021-11-13,23:58:08,01:09:25,NA,incomplete,false,true,NA,9,27,E16_Q4_ansL.png,left,NA,NA,NA,left,1033.30000001192,true,NA,NA,NA,NA,NA
FF4zVVJu,NA,NA,FF4zVVJu,2020-0188,2021-11-13,23:58:08,01:09:25,NA,incomplete,false,true,NA,9,28,E16_Q2_ansR.png,right,NA,NA,NA,right,1356.59999999404,true,NA,NA,NA,NA,NA
FF4zVVJu,NA,NA,FF4zVVJu,2020-0188,2021-11-13,23:58:08,01:09:25,NA,incomplete,false,true,NA,9,29,E16_Q10_ansR.png,right,NA,NA,NA,right,1131.69999998808,true,NA,NA,NA,NA,NA
FF4zVVJu,NA,NA,FF4zVVJu,2020-0188,2021-11-13,23:58:08,01:09:25,NA,incomplete,false,NA,true,9,0,NA,right,E3_Q7_ansL.png,E17_Q10_ansL.png,between,NA,NaN,NA,right,4227.5,1,2,2409.899999976158
FF4zVVJu,NA,NA,FF4zVVJu,2020-0188,2021-11-13,23:58:08,01:09:25,NA,incomplete,false,NA,true,9,1,NA,left,E16_Q3_ansL.png,E16_Q6_ansL.png,within,NA,NaN,NA,left,2827.5999999940395,1,1,2248.0999999940395
FF4zVVJu,NA,NA,FF4zVVJu,2020-0188,2021-11-13,23:58:08,01:09:25,NA,incomplete,false,NA,true,9,2,NA,right,E3_Q2_ansL.png,E17_Q4_ansR.png,between,NA,NaN,NA,right,1774.800000011921,1,2,1018.5
FF4zVVJu,NA,NA,FF4zVVJu,2020-0188,2021-11-13,23:58:08,01:09:25,NA,incomplete,false,NA,true,9,3,NA,right,E16_Q7_ansR.png,E3_Q1_ansR.png,between,NA,NaN,NA,right,4779.5999999940395,1,1,5759.199999988079
FF4zVVJu,NA,NA,FF4zVVJu,2020-0188,2021-11-13,23:58:08,01:09:25,NA,incomplete,false,NA,true,9,4,NA,left,E16_Q6_ansL.png,E16_Q4_ansL.png,within,NA,NaN,NA,left,2305.5,1,1,1171.199999988079
FF4zVVJu,NA,NA,FF4zVVJu,2020-0188,2021-11-13,23:58:08,01:09:25,NA,incomplete,false,NA,true,9,5,NA,left,E16_Q7_ansR.png,E16_Q1_ansR.png,within,NA,NaN,NA,left,3342.0999999940395,1,0,1461.199999988079
FF4zVVJu,NA,NA,FF4zVVJu,2020-0188,2021-11-13,23:58:08,01:09:25,NA,incomplete,false,NA,true,9,6,NA,left,E3_Q2_ansL.png,E3_Q9_ansL.png,within,NA,NaN,NA,left,7920.4000000059605,1,2,833.7999999821186
FF4zVVJu,NA,NA,FF4zVVJu,2020-0188,2021-11-13,23:58:08,01:09:25,NA,incomplete,false,NA,true,9,7,NA,right,E16_Q8_ansR.png,E16_Q5_ansL.png,within,NA,NaN,NA,right,3319.4000000059605,1,1,1003.5999999940395
FF4zVVJu,NA,NA,FF4zVVJu,2020-0188,2021-11-13,23:58:08,01:09:25,NA,incomplete,false,NA,true,9,8,NA,right,E17_Q7_ansL.png,E17_Q5_ansR.png,within,NA,NaN,NA,right,2642.5,1,1,1558.4000000059605
FF4zVVJu,NA,NA,FF4zVVJu,2020-0188,2021-11-13,23:58:08,01:09:25,NA,incomplete,false,NA,true,9,9,NA,left,E16_Q1_ansR.png,E16_Q2_ansR.png,within,NA,NaN,NA,left,2176.300000011921,1,1,979.3000000119209
FF4zVVJu,NA,NA,FF4zVVJu,2020-0188,2021-11-13,23:58:08,01:09:25,NA,incomplete,false,NA,true,9,10,NA,right,E16_Q10_ansR.png,E16_Q8_ansR.png,within,NA,NaN,NA,right,1701.8999999761581,1,0,1082.8999999761581
FF4zVVJu,NA,NA,FF4zVVJu,2020-0188,2021-11-13,23:58:08,01:09:25,NA,incomplete,false,NA,true,9,11,NA,left,E3_Q9_ansL.png,E3_Q6_ansR.png,within,NA,NaN,NA,right,3717.199999988079,0,0,1364.2999999821186
