workerId,hitId,assignmentId,subject,studyid,exp_date,exp_start,exp_end,time_start,time_end,practice,encoding,memory,block,trial,stim,answer,left_image,right_image,condition,response,response_time,response_acc,order_response,order_response_time,order_acc,distance_response,distance_response_time
Ga6cfLKL,NA,NA,Ga6cfLKL,2020-0188,2021-09-19,10:27:03,11:31:43,NA,incomplete,true,true,NA,0,0,E18_Q6_ansR.png,right,NA,NA,NA,right,1424,true,NA,NA,NA,NA,NA
Ga6cfLKL,NA,NA,Ga6cfLKL,2020-0188,2021-09-19,10:27:03,11:31:43,NA,incomplete,true,true,NA,0,1,E18_Q10_ansL.png,left,NA,NA,NA,left,1813,true,NA,NA,NA,NA,NA
Ga6cfLKL,NA,NA,Ga6cfLKL,2020-0188,2021-09-19,10:27:03,11:31:43,NA,incomplete,true,true,NA,0,2,E18_Q7_ansL.png,left,NA,NA,NA,left,1646,true,NA,NA,NA,NA,NA
Ga6cfLKL,NA,NA,Ga6cfLKL,2020-0188,2021-09-19,10:27:03,11:31:43,NA,incomplete,true,true,NA,0,3,E18_Q9_ansR.png,right,NA,NA,NA,right,1276.00000000001,true,NA,NA,NA,NA,NA
Ga6cfLKL,NA,NA,Ga6cfLKL,2020-0188,2021-09-19,10:27:03,11:31:43,NA,incomplete,true,true,NA,0,4,E18_Q8_ansL.png,left,NA,NA,NA,left,1483,true,NA,NA,NA,NA,NA
Ga6cfLKL,NA,NA,Ga6cfLKL,2020-0188,2021-09-19,10:27:03,11:31:43,NA,incomplete,true,true,NA,0,5,E18_Q3_ansR.png,right,NA,NA,NA,right,1889,true,NA,NA,NA,NA,NA
Ga6cfLKL,NA,NA,Ga6cfLKL,2020-0188,2021-09-19,10:27:03,11:31:43,NA,incomplete,true,true,NA,0,6,E18_Q1_ansL.png,left,NA,NA,NA,left,1155,true,NA,NA,NA,NA,NA
Ga6cfLKL,NA,NA,Ga6cfLKL,2020-0188,2021-09-19,10:27:03,11:31:43,NA,incomplete,true,true,NA,0,7,E18_Q2_ansL.png,left,NA,NA,NA,left,1243,true,NA,NA,NA,NA,NA
Ga6cfLKL,NA,NA,Ga6cfLKL,2020-0188,2021-09-19,10:27:03,11:31:43,NA,incomplete,true,true,NA,0,8,E18_Q4_ansR.png,right,NA,NA,NA,right,1383,true,NA,NA,NA,NA,NA
Ga6cfLKL,NA,NA,Ga6cfLKL,2020-0188,2021-09-19,10:27:03,11:31:43,NA,incomplete,true,true,NA,0,9,E18_Q5_ansR.png,right,NA,NA,NA,right,1444.00000000001,true,NA,NA,NA,NA,NA
Ga6cfLKL,NA,NA,Ga6cfLKL,2020-0188,2021-09-19,10:27:03,11:31:43,NA,incomplete,true,true,NA,0,10,E33_Q7_ansL.png,left,NA,NA,NA,left,2500,true,NA,NA,NA,NA,NA
Ga6cfLKL,NA,NA,Ga6cfLKL,2020-0188,2021-09-19,10:27:03,11:31:43,NA,incomplete,true,true,NA,0,11,E33_Q5_ansR.png,right,NA,NA,NA,right,1803,true,NA,NA,NA,NA,NA
Ga6cfLKL,NA,NA,Ga6cfLKL,2020-0188,2021-09-19,10:27:03,11:31:43,NA,incomplete,true,true,NA,0,12,E33_Q8_ansL.png,left,NA,NA,NA,left,1746.99999999999,true,NA,NA,NA,NA,NA
Ga6cfLKL,NA,NA,Ga6cfLKL,2020-0188,2021-09-19,10:27:03,11:31:43,NA,incomplete,true,true,NA,0,13,E33_Q10_ansL.png,left,NA,NA,NA,left,2056,true,NA,NA,NA,NA,NA
Ga6cfLKL,NA,NA,Ga6cfLKL,2020-0188,2021-09-19,10:27:03,11:31:43,NA,incomplete,true,true,NA,0,14,E33_Q6_ansR.png,right,NA,NA,NA,right,1910,true,NA,NA,NA,NA,NA
Ga6cfLKL,NA,NA,Ga6cfLKL,2020-0188,2021-09-19,10:27:03,11:31:43,NA,incomplete,true,true,NA,0,15,E33_Q1_ansL.png,left,NA,NA,NA,left,2717,true,NA,NA,NA,NA,NA
Ga6cfLKL,NA,NA,Ga6cfLKL,2020-0188,2021-09-19,10:27:03,11:31:43,NA,incomplete,true,true,NA,0,16,E33_Q3_ansR.png,right,NA,NA,NA,left,1767,false,NA,NA,NA,NA,NA
Ga6cfLKL,NA,NA,Ga6cfLKL,2020-0188,2021-09-19,10:27:03,11:31:43,NA,incomplete,true,true,NA,0,17,E33_Q9_ansR.png,right,NA,NA,NA,right,1734,true,NA,NA,NA,NA,NA
Ga6cfLKL,NA,NA,Ga6cfLKL,2020-0188,2021-09-19,10:27:03,11:31:43,NA,incomplete,true,true,NA,0,18,E33_Q4_ansR.png,right,NA,NA,NA,right,2293.00000000003,true,NA,NA,NA,NA,NA
Ga6cfLKL,NA,NA,Ga6cfLKL,2020-0188,2021-09-19,10:27:03,11:31:43,NA,incomplete,true,true,NA,0,19,E33_Q2_ansL.png,left,NA,NA,NA,left,2991,true,NA,NA,NA,NA,NA
Ga6cfLKL,NA,NA,Ga6cfLKL,2020-0188,2021-09-19,10:27:03,11:31:43,NA,incomplete,true,true,NA,0,20,E5_Q9_ansR.png,right,NA,NA,NA,right,1354.00000000003,true,NA,NA,NA,NA,NA
Ga6cfLKL,NA,NA,Ga6cfLKL,2020-0188,2021-09-19,10:27:03,11:31:43,NA,incomplete,true,true,NA,0,21,E5_Q4_ansR.png,right,NA,NA,NA,right,1114,true,NA,NA,NA,NA,NA
Ga6cfLKL,NA,NA,Ga6cfLKL,2020-0188,2021-09-19,10:27:03,11:31:43,NA,incomplete,true,true,NA,0,22,E5_Q10_ansR.png,right,NA,NA,NA,right,1505.00000000003,true,NA,NA,NA,NA,NA
Ga6cfLKL,NA,NA,Ga6cfLKL,2020-0188,2021-09-19,10:27:03,11:31:43,NA,incomplete,true,true,NA,0,23,E5_Q7_ansL.png,left,NA,NA,NA,left,1486.99999999997,true,NA,NA,NA,NA,NA
Ga6cfLKL,NA,NA,Ga6cfLKL,2020-0188,2021-09-19,10:27:03,11:31:43,NA,incomplete,true,true,NA,0,24,E5_Q8_ansL.png,left,NA,NA,NA,left,1167,true,NA,NA,NA,NA,NA
Ga6cfLKL,NA,NA,Ga6cfLKL,2020-0188,2021-09-19,10:27:03,11:31:43,NA,incomplete,true,true,NA,0,25,E5_Q5_ansR.png,right,NA,NA,NA,right,1334.00000000003,true,NA,NA,NA,NA,NA
Ga6cfLKL,NA,NA,Ga6cfLKL,2020-0188,2021-09-19,10:27:03,11:31:43,NA,incomplete,true,true,NA,0,26,E5_Q2_ansL.png,left,NA,NA,NA,left,1157,true,NA,NA,NA,NA,NA
Ga6cfLKL,NA,NA,Ga6cfLKL,2020-0188,2021-09-19,10:27:03,11:31:43,NA,incomplete,true,true,NA,0,27,E5_Q6_ansR.png,right,NA,NA,NA,right,1195,true,NA,NA,NA,NA,NA
Ga6cfLKL,NA,NA,Ga6cfLKL,2020-0188,2021-09-19,10:27:03,11:31:43,NA,incomplete,true,true,NA,0,28,E5_Q1_ansL.png,left,NA,NA,NA,left,1813,true,NA,NA,NA,NA,NA
Ga6cfLKL,NA,NA,Ga6cfLKL,2020-0188,2021-09-19,10:27:03,11:31:43,NA,incomplete,true,true,NA,0,29,E5_Q3_ansR.png,right,NA,NA,NA,right,1263.99999999997,true,NA,NA,NA,NA,NA
Ga6cfLKL,NA,NA,Ga6cfLKL,2020-0188,2021-09-19,10:27:03,11:31:43,NA,incomplete,true,NA,true,0,0,NA,left,E18_Q8_ansL.png,E18_Q2_ansL.png,within,NA,NaN,NA,left,2355,1,1,3688
Ga6cfLKL,NA,NA,Ga6cfLKL,2020-0188,2021-09-19,10:27:03,11:31:43,NA,incomplete,true,NA,true,0,1,NA,left,E18_Q3_ansR.png,E18_Q4_ansR.png,within,NA,NaN,NA,right,5810.999999999971,0,1,1012
Ga6cfLKL,NA,NA,Ga6cfLKL,2020-0188,2021-09-19,10:27:03,11:31:43,NA,incomplete,true,NA,true,0,2,NA,left,E33_Q2_ansL.png,E5_Q10_ansR.png,between,NA,NaN,NA,left,4580,1,1,947
Ga6cfLKL,NA,NA,Ga6cfLKL,2020-0188,2021-09-19,10:27:03,11:31:43,NA,incomplete,true,NA,true,0,3,NA,left,E5_Q4_ansR.png,E5_Q8_ansL.png,within,NA,NaN,NA,left,2567,1,1,1846
Ga6cfLKL,NA,NA,Ga6cfLKL,2020-0188,2021-09-19,10:27:03,11:31:43,NA,incomplete,true,NA,true,0,4,NA,right,E5_Q3_ansR.png,E5_Q2_ansL.png,within,NA,NaN,NA,right,3551.999999999942,1,0,1147
Ga6cfLKL,NA,NA,Ga6cfLKL,2020-0188,2021-09-19,10:27:03,11:31:43,NA,incomplete,true,NA,true,0,5,NA,right,E5_Q9_ansR.png,E33_Q9_ansR.png,between,NA,NaN,NA,right,3946,1,2,1688.0000000000582
Ga6cfLKL,NA,NA,Ga6cfLKL,2020-0188,2021-09-19,10:27:03,11:31:43,NA,incomplete,true,NA,true,0,6,NA,right,E18_Q3_ansR.png,E18_Q7_ansL.png,within,NA,NaN,NA,right,3020,1,1,1726.0000000000582
Ga6cfLKL,NA,NA,Ga6cfLKL,2020-0188,2021-09-19,10:27:03,11:31:43,NA,incomplete,true,NA,true,0,7,NA,right,E33_Q8_ansL.png,E18_Q5_ansR.png,between,NA,NaN,NA,right,1915,1,2,1445
Ga6cfLKL,NA,NA,Ga6cfLKL,2020-0188,2021-09-19,10:27:03,11:31:43,NA,incomplete,true,NA,true,0,8,NA,right,E33_Q4_ansR.png,E33_Q1_ansL.png,within,NA,NaN,NA,left,2079,0,1,1020
Ga6cfLKL,NA,NA,Ga6cfLKL,2020-0188,2021-09-19,10:27:03,11:31:43,NA,incomplete,true,NA,true,0,9,NA,left,E5_Q9_ansR.png,E5_Q7_ansL.png,within,NA,NaN,NA,left,9224,1,1,915.9999999999418
Ga6cfLKL,NA,NA,Ga6cfLKL,2020-0188,2021-09-19,10:27:03,11:31:43,NA,incomplete,true,NA,true,0,10,NA,left,E18_Q4_ansR.png,E33_Q5_ansR.png,between,NA,NaN,NA,left,1782,1,2,1418
Ga6cfLKL,NA,NA,Ga6cfLKL,2020-0188,2021-09-19,10:27:03,11:31:43,NA,incomplete,true,NA,true,0,11,NA,left,E33_Q5_ansR.png,E33_Q6_ansR.png,within,NA,NaN,NA,left,2121.000000000058,1,1,882.0000000000582
Ga6cfLKL,NA,NA,Ga6cfLKL,2020-0188,2021-09-19,10:27:03,11:31:43,NA,incomplete,true,NA,true,0,12,NA,right,E18_Q1_ansL.png,E18_Q9_ansR.png,within,NA,NaN,NA,right,2126,1,1,1003
Ga6cfLKL,NA,NA,Ga6cfLKL,2020-0188,2021-09-19,10:27:03,11:31:43,NA,incomplete,true,NA,true,0,13,NA,right,E18_Q9_ansR.png,E18_Q6_ansR.png,within,NA,NaN,NA,right,2683,1,1,832
Ga6cfLKL,NA,NA,Ga6cfLKL,2020-0188,2021-09-19,10:27:03,11:31:43,NA,incomplete,true,NA,true,0,14,NA,left,E5_Q10_ansR.png,E5_Q5_ansR.png,within,NA,NaN,NA,left,7019,1,1,1170
Ga6cfLKL,NA,NA,Ga6cfLKL,2020-0188,2021-09-19,10:27:03,11:31:43,NA,incomplete,true,NA,true,0,15,NA,right,E33_Q1_ansL.png,E33_Q8_ansL.png,within,NA,NaN,NA,right,2964,1,1,808
Ga6cfLKL,NA,NA,Ga6cfLKL,2020-0188,2021-09-19,10:27:03,11:31:43,NA,incomplete,true,NA,true,0,16,NA,right,E33_Q3_ansR.png,E33_Q10_ansL.png,within,NA,NaN,NA,right,2666,1,1,1338
Ga6cfLKL,NA,NA,Ga6cfLKL,2020-0188,2021-09-19,10:27:03,11:31:43,NA,incomplete,true,NA,true,0,17,NA,right,E18_Q5_ansR.png,E18_Q1_ansL.png,within,NA,NaN,NA,right,1831,1,1,931
Ga6cfLKL,NA,NA,Ga6cfLKL,2020-0188,2021-09-19,10:27:03,11:31:43,NA,incomplete,true,NA,true,0,18,NA,left,E18_Q10_ansL.png,E18_Q8_ansL.png,within,NA,NaN,NA,left,1452,1,1,1164
Ga6cfLKL,NA,NA,Ga6cfLKL,2020-0188,2021-09-19,10:27:03,11:31:43,NA,incomplete,true,NA,true,0,19,NA,right,E5_Q1_ansL.png,E5_Q5_ansR.png,within,NA,NaN,NA,left,1411,0,1,858
Ga6cfLKL,NA,NA,Ga6cfLKL,2020-0188,2021-09-19,10:27:03,11:31:43,NA,incomplete,true,NA,true,0,20,NA,left,E5_Q8_ansL.png,E5_Q6_ansR.png,within,NA,NaN,NA,left,1355,1,1,1053.9999999999418
Ga6cfLKL,NA,NA,Ga6cfLKL,2020-0188,2021-09-19,10:27:03,11:31:43,NA,incomplete,true,NA,true,0,21,NA,left,E33_Q3_ansR.png,E33_Q2_ansL.png,within,NA,NaN,NA,right,3484,0,1,2164
Ga6cfLKL,NA,NA,Ga6cfLKL,2020-0188,2021-09-19,10:27:03,11:31:43,NA,incomplete,true,NA,true,0,22,NA,right,E33_Q7_ansL.png,E18_Q2_ansL.png,between,NA,NaN,NA,right,1583,1,2,973
Ga6cfLKL,NA,NA,Ga6cfLKL,2020-0188,2021-09-19,10:27:03,11:31:43,NA,incomplete,true,NA,true,0,23,NA,right,E5_Q4_ansR.png,E33_Q4_ansR.png,between,NA,NaN,NA,right,1692,1,2,820
Ga6cfLKL,NA,NA,Ga6cfLKL,2020-0188,2021-09-19,10:27:03,11:31:43,NA,incomplete,true,NA,true,0,24,NA,left,E5_Q7_ansL.png,E5_Q2_ansL.png,within,NA,NaN,NA,left,2724,1,1,653
Ga6cfLKL,NA,NA,Ga6cfLKL,2020-0188,2021-09-19,10:27:03,11:31:43,NA,incomplete,true,NA,true,0,25,NA,left,E33_Q7_ansL.png,E33_Q10_ansL.png,within,NA,NaN,NA,left,1718,1,1,841
Ga6cfLKL,NA,NA,Ga6cfLKL,2020-0188,2021-09-19,10:27:03,11:31:43,NA,incomplete,true,NA,true,0,26,NA,right,E33_Q9_ansR.png,E33_Q6_ansR.png,within,NA,NaN,NA,left,1951.0000000000582,0,1,801
Ga6cfLKL,NA,NA,Ga6cfLKL,2020-0188,2021-09-19,10:27:03,11:31:43,NA,incomplete,false,true,NA,1,0,E24_Q9_ansL.png,left,NA,NA,NA,left,2647,true,NA,NA,NA,NA,NA
Ga6cfLKL,NA,NA,Ga6cfLKL,2020-0188,2021-09-19,10:27:03,11:31:43,NA,incomplete,false,true,NA,1,1,E24_Q1_ansR.png,right,NA,NA,NA,right,2184,true,NA,NA,NA,NA,NA
Ga6cfLKL,NA,NA,Ga6cfLKL,2020-0188,2021-09-19,10:27:03,11:31:43,NA,incomplete,false,true,NA,1,2,E24_Q6_ansL.png,left,NA,NA,NA,left,1569,true,NA,NA,NA,NA,NA
Ga6cfLKL,NA,NA,Ga6cfLKL,2020-0188,2021-09-19,10:27:03,11:31:43,NA,incomplete,false,true,NA,1,3,E24_Q4_ansL.png,left,NA,NA,NA,left,1863.99999999994,true,NA,NA,NA,NA,NA
Ga6cfLKL,NA,NA,Ga6cfLKL,2020-0188,2021-09-19,10:27:03,11:31:43,NA,incomplete,false,true,NA,1,4,E24_Q2_ansR.png,right,NA,NA,NA,right,1947,true,NA,NA,NA,NA,NA
Ga6cfLKL,NA,NA,Ga6cfLKL,2020-0188,2021-09-19,10:27:03,11:31:43,NA,incomplete,false,true,NA,1,5,E24_Q8_ansR.png,right,NA,NA,NA,right,1646,true,NA,NA,NA,NA,NA
Ga6cfLKL,NA,NA,Ga6cfLKL,2020-0188,2021-09-19,10:27:03,11:31:43,NA,incomplete,false,true,NA,1,6,E24_Q5_ansL.png,left,NA,NA,NA,left,1691,true,NA,NA,NA,NA,NA
Ga6cfLKL,NA,NA,Ga6cfLKL,2020-0188,2021-09-19,10:27:03,11:31:43,NA,incomplete,false,true,NA,1,7,E24_Q10_ansR.png,right,NA,NA,NA,right,1587.00000000006,true,NA,NA,NA,NA,NA
Ga6cfLKL,NA,NA,Ga6cfLKL,2020-0188,2021-09-19,10:27:03,11:31:43,NA,incomplete,false,true,NA,1,8,E24_Q7_ansR.png,right,NA,NA,NA,right,1438,true,NA,NA,NA,NA,NA
Ga6cfLKL,NA,NA,Ga6cfLKL,2020-0188,2021-09-19,10:27:03,11:31:43,NA,incomplete,false,true,NA,1,9,E24_Q3_ansL.png,left,NA,NA,NA,left,2029.99999999994,true,NA,NA,NA,NA,NA
Ga6cfLKL,NA,NA,Ga6cfLKL,2020-0188,2021-09-19,10:27:03,11:31:43,NA,incomplete,false,true,NA,1,10,E2_Q7_ansR.png,right,NA,NA,NA,right,2624,true,NA,NA,NA,NA,NA
Ga6cfLKL,NA,NA,Ga6cfLKL,2020-0188,2021-09-19,10:27:03,11:31:43,NA,incomplete,false,true,NA,1,11,E2_Q3_ansR.png,right,NA,NA,NA,right,1712,true,NA,NA,NA,NA,NA
Ga6cfLKL,NA,NA,Ga6cfLKL,2020-0188,2021-09-19,10:27:03,11:31:43,NA,incomplete,false,true,NA,1,12,E2_Q10_ansL.png,left,NA,NA,NA,left,1402,true,NA,NA,NA,NA,NA
Ga6cfLKL,NA,NA,Ga6cfLKL,2020-0188,2021-09-19,10:27:03,11:31:43,NA,incomplete,false,true,NA,1,13,E2_Q1_ansL.png,left,NA,NA,NA,left,1990,true,NA,NA,NA,NA,NA
Ga6cfLKL,NA,NA,Ga6cfLKL,2020-0188,2021-09-19,10:27:03,11:31:43,NA,incomplete,false,true,NA,1,14,E2_Q5_ansL.png,left,NA,NA,NA,left,2290,true,NA,NA,NA,NA,NA
Ga6cfLKL,NA,NA,Ga6cfLKL,2020-0188,2021-09-19,10:27:03,11:31:43,NA,incomplete,false,true,NA,1,15,E2_Q6_ansL.png,left,NA,NA,NA,left,2761,true,NA,NA,NA,NA,NA
Ga6cfLKL,NA,NA,Ga6cfLKL,2020-0188,2021-09-19,10:27:03,11:31:43,NA,incomplete,false,true,NA,1,16,E2_Q2_ansR.png,right,NA,NA,NA,right,3181,true,NA,NA,NA,NA,NA
Ga6cfLKL,NA,NA,Ga6cfLKL,2020-0188,2021-09-19,10:27:03,11:31:43,NA,incomplete,false,true,NA,1,17,E2_Q4_ansL.png,left,NA,NA,NA,left,3013,true,NA,NA,NA,NA,NA
Ga6cfLKL,NA,NA,Ga6cfLKL,2020-0188,2021-09-19,10:27:03,11:31:43,NA,incomplete,false,true,NA,1,18,E2_Q9_ansL.png,left,NA,NA,NA,left,3038.99999999994,true,NA,NA,NA,NA,NA
Ga6cfLKL,NA,NA,Ga6cfLKL,2020-0188,2021-09-19,10:27:03,11:31:43,NA,incomplete,false,true,NA,1,19,E2_Q8_ansR.png,right,NA,NA,NA,right,1483,true,NA,NA,NA,NA,NA
Ga6cfLKL,NA,NA,Ga6cfLKL,2020-0188,2021-09-19,10:27:03,11:31:43,NA,incomplete,false,true,NA,1,20,E14_Q7_ansL.png,left,NA,NA,NA,right,2419,false,NA,NA,NA,NA,NA
Ga6cfLKL,NA,NA,Ga6cfLKL,2020-0188,2021-09-19,10:27:03,11:31:43,NA,incomplete,false,true,NA,1,21,E14_Q10_ansL.png,left,NA,NA,NA,right,1594.99999999994,false,NA,NA,NA,NA,NA
Ga6cfLKL,NA,NA,Ga6cfLKL,2020-0188,2021-09-19,10:27:03,11:31:43,NA,incomplete,false,true,NA,1,22,E14_Q2_ansL.png,left,NA,NA,NA,left,1235,true,NA,NA,NA,NA,NA
Ga6cfLKL,NA,NA,Ga6cfLKL,2020-0188,2021-09-19,10:27:03,11:31:43,NA,incomplete,false,true,NA,1,23,E14_Q3_ansR.png,right,NA,NA,NA,right,1492.99999999994,true,NA,NA,NA,NA,NA
Ga6cfLKL,NA,NA,Ga6cfLKL,2020-0188,2021-09-19,10:27:03,11:31:43,NA,incomplete,false,true,NA,1,24,E14_Q8_ansL.png,left,NA,NA,NA,left,1198,true,NA,NA,NA,NA,NA
Ga6cfLKL,NA,NA,Ga6cfLKL,2020-0188,2021-09-19,10:27:03,11:31:43,NA,incomplete,false,true,NA,1,25,E14_Q4_ansR.png,right,NA,NA,NA,right,1309,true,NA,NA,NA,NA,NA
Ga6cfLKL,NA,NA,Ga6cfLKL,2020-0188,2021-09-19,10:27:03,11:31:43,NA,incomplete,false,true,NA,1,26,E14_Q5_ansR.png,right,NA,NA,NA,right,1953,true,NA,NA,NA,NA,NA
Ga6cfLKL,NA,NA,Ga6cfLKL,2020-0188,2021-09-19,10:27:03,11:31:43,NA,incomplete,false,true,NA,1,27,E14_Q6_ansR.png,right,NA,NA,NA,right,2637,true,NA,NA,NA,NA,NA
Ga6cfLKL,NA,NA,Ga6cfLKL,2020-0188,2021-09-19,10:27:03,11:31:43,NA,incomplete,false,true,NA,1,28,E14_Q9_ansR.png,right,NA,NA,NA,right,1368,true,NA,NA,NA,NA,NA
Ga6cfLKL,NA,NA,Ga6cfLKL,2020-0188,2021-09-19,10:27:03,11:31:43,NA,incomplete,false,true,NA,1,29,E14_Q1_ansL.png,left,NA,NA,NA,left,2597,true,NA,NA,NA,NA,NA
Ga6cfLKL,NA,NA,Ga6cfLKL,2020-0188,2021-09-19,10:27:03,11:31:43,NA,incomplete,false,NA,true,1,0,NA,left,E2_Q5_ansL.png,E2_Q4_ansL.png,within,NA,NaN,NA,right,4020,0,0,1089
Ga6cfLKL,NA,NA,Ga6cfLKL,2020-0188,2021-09-19,10:27:03,11:31:43,NA,incomplete,false,NA,true,1,1,NA,left,E24_Q6_ansL.png,E24_Q8_ansR.png,within,NA,NaN,NA,left,2888,1,0,1038
Ga6cfLKL,NA,NA,Ga6cfLKL,2020-0188,2021-09-19,10:27:03,11:31:43,NA,incomplete,false,NA,true,1,2,NA,right,E24_Q4_ansL.png,E24_Q9_ansL.png,within,NA,NaN,NA,right,2443,1,0,1833
Ga6cfLKL,NA,NA,Ga6cfLKL,2020-0188,2021-09-19,10:27:03,11:31:43,NA,incomplete,false,NA,true,1,3,NA,right,E24_Q7_ansR.png,E24_Q8_ansR.png,within,NA,NaN,NA,right,2393,1,0,2368
Ga6cfLKL,NA,NA,Ga6cfLKL,2020-0188,2021-09-19,10:27:03,11:31:43,NA,incomplete,false,NA,true,1,4,NA,right,E2_Q7_ansR.png,E24_Q10_ansR.png,between,NA,NaN,NA,right,2229,1,1,1518
Ga6cfLKL,NA,NA,Ga6cfLKL,2020-0188,2021-09-19,10:27:03,11:31:43,NA,incomplete,false,NA,true,1,5,NA,right,E14_Q7_ansL.png,E2_Q4_ansL.png,between,NA,NaN,NA,right,1765,1,1,1071.0000000001164
Ga6cfLKL,NA,NA,Ga6cfLKL,2020-0188,2021-09-19,10:27:03,11:31:43,NA,incomplete,false,NA,true,1,6,NA,left,E2_Q9_ansL.png,E14_Q10_ansL.png,between,NA,NaN,NA,left,5431,1,2,1767
Ga6cfLKL,NA,NA,Ga6cfLKL,2020-0188,2021-09-19,10:27:03,11:31:43,NA,incomplete,false,NA,true,1,7,NA,right,E2_Q8_ansR.png,E2_Q2_ansR.png,within,NA,NaN,NA,right,3251,1,0,881
Ga6cfLKL,NA,NA,Ga6cfLKL,2020-0188,2021-09-19,10:27:03,11:31:43,NA,incomplete,false,NA,true,1,8,NA,left,E14_Q3_ansR.png,E14_Q5_ansR.png,within,NA,NaN,NA,left,2720,1,0,1728
Ga6cfLKL,NA,NA,Ga6cfLKL,2020-0188,2021-09-19,10:27:03,11:31:43,NA,incomplete,false,NA,true,1,9,NA,right,E2_Q9_ansL.png,E2_Q6_ansL.png,within,NA,NaN,NA,right,2342.0000000001164,1,1,1054
Ga6cfLKL,NA,NA,Ga6cfLKL,2020-0188,2021-09-19,10:27:03,11:31:43,NA,incomplete,false,NA,true,1,10,NA,right,E2_Q3_ansR.png,E24_Q7_ansR.png,between,NA,NaN,NA,right,1773,1,1,831
Ga6cfLKL,NA,NA,Ga6cfLKL,2020-0188,2021-09-19,10:27:03,11:31:43,NA,incomplete,false,NA,true,1,11,NA,left,E24_Q1_ansR.png,E24_Q2_ansR.png,within,NA,NaN,NA,left,1782,1,1,1411
Ga6cfLKL,NA,NA,Ga6cfLKL,2020-0188,2021-09-19,10:27:03,11:31:43,NA,incomplete,false,NA,true,1,12,NA,right,E14_Q8_ansL.png,E14_Q10_ansL.png,within,NA,NaN,NA,right,2856,1,0,2667
Ga6cfLKL,NA,NA,Ga6cfLKL,2020-0188,2021-09-19,10:27:03,11:31:43,NA,incomplete,false,NA,true,1,13,NA,right,E14_Q2_ansL.png,E2_Q8_ansR.png,between,NA,NaN,NA,right,1704.9999999998836,1,1,965.0000000001164
Ga6cfLKL,NA,NA,Ga6cfLKL,2020-0188,2021-09-19,10:27:03,11:31:43,NA,incomplete,false,NA,true,1,14,NA,left,E24_Q2_ansR.png,E24_Q10_ansR.png,within,NA,NaN,NA,left,3037,1,1,1493
Ga6cfLKL,NA,NA,Ga6cfLKL,2020-0188,2021-09-19,10:27:03,11:31:43,NA,incomplete,false,NA,true,1,15,NA,right,E2_Q2_ansR.png,E2_Q1_ansL.png,within,NA,NaN,NA,left,3127.0000000001164,0,1,2946
Ga6cfLKL,NA,NA,Ga6cfLKL,2020-0188,2021-09-19,10:27:03,11:31:43,NA,incomplete,false,NA,true,1,16,NA,left,E14_Q8_ansL.png,E14_Q6_ansR.png,within,NA,NaN,NA,right,3744,0,1,897
Ga6cfLKL,NA,NA,Ga6cfLKL,2020-0188,2021-09-19,10:27:03,11:31:43,NA,incomplete,false,NA,true,1,17,NA,right,E14_Q1_ansL.png,E14_Q5_ansR.png,within,NA,NaN,NA,left,1585,0,1,881
Ga6cfLKL,NA,NA,Ga6cfLKL,2020-0188,2021-09-19,10:27:03,11:31:43,NA,incomplete,false,NA,true,1,18,NA,left,E14_Q2_ansL.png,E14_Q4_ansR.png,within,NA,NaN,NA,right,2319,0,0,930
Ga6cfLKL,NA,NA,Ga6cfLKL,2020-0188,2021-09-19,10:27:03,11:31:43,NA,incomplete,false,NA,true,1,19,NA,left,E2_Q3_ansR.png,E2_Q5_ansL.png,within,NA,NaN,NA,right,1559,0,1,1295
Ga6cfLKL,NA,NA,Ga6cfLKL,2020-0188,2021-09-19,10:27:03,11:31:43,NA,incomplete,false,NA,true,1,20,NA,right,E24_Q5_ansL.png,E24_Q4_ansL.png,within,NA,NaN,NA,right,1512,1,1,905
Ga6cfLKL,NA,NA,Ga6cfLKL,2020-0188,2021-09-19,10:27:03,11:31:43,NA,incomplete,false,NA,true,1,21,NA,left,E2_Q10_ansL.png,E2_Q6_ansL.png,within,NA,NaN,NA,left,1310.9999999998836,1,0,1674
Ga6cfLKL,NA,NA,Ga6cfLKL,2020-0188,2021-09-19,10:27:03,11:31:43,NA,incomplete,false,NA,true,1,22,NA,right,E2_Q10_ansL.png,E24_Q3_ansL.png,between,NA,NaN,NA,right,2664,1,1,880
Ga6cfLKL,NA,NA,Ga6cfLKL,2020-0188,2021-09-19,10:27:03,11:31:43,NA,incomplete,false,NA,true,1,23,NA,left,E14_Q7_ansL.png,E14_Q3_ansR.png,within,NA,NaN,NA,right,3896.9999999998836,0,1,871.9999999998836
Ga6cfLKL,NA,NA,Ga6cfLKL,2020-0188,2021-09-19,10:27:03,11:31:43,NA,incomplete,false,NA,true,1,24,NA,left,E24_Q5_ansL.png,E24_Q3_ansL.png,within,NA,NaN,NA,left,3188,1,0,866
Ga6cfLKL,NA,NA,Ga6cfLKL,2020-0188,2021-09-19,10:27:03,11:31:43,NA,incomplete,false,NA,true,1,25,NA,right,E2_Q1_ansL.png,E2_Q7_ansR.png,within,NA,NaN,NA,right,3938,1,1,850
Ga6cfLKL,NA,NA,Ga6cfLKL,2020-0188,2021-09-19,10:27:03,11:31:43,NA,incomplete,false,NA,true,1,26,NA,left,E14_Q4_ansR.png,E14_Q9_ansR.png,within,NA,NaN,NA,right,942,0,1,1212
Ga6cfLKL,NA,NA,Ga6cfLKL,2020-0188,2021-09-19,10:27:03,11:31:43,NA,incomplete,false,true,NA,2,0,E23_Q4_ansR.png,right,NA,NA,NA,none,0,false,NA,NA,NA,NA,NA
Ga6cfLKL,NA,NA,Ga6cfLKL,2020-0188,2021-09-19,10:27:03,11:31:43,NA,incomplete,false,true,NA,2,1,E23_Q7_ansL.png,left,NA,NA,NA,left,1623,true,NA,NA,NA,NA,NA
Ga6cfLKL,NA,NA,Ga6cfLKL,2020-0188,2021-09-19,10:27:03,11:31:43,NA,incomplete,false,true,NA,2,2,E23_Q3_ansR.png,right,NA,NA,NA,right,2363,true,NA,NA,NA,NA,NA
Ga6cfLKL,NA,NA,Ga6cfLKL,2020-0188,2021-09-19,10:27:03,11:31:43,NA,incomplete,false,true,NA,2,3,E23_Q10_ansL.png,left,NA,NA,NA,left,973,true,NA,NA,NA,NA,NA
Ga6cfLKL,NA,NA,Ga6cfLKL,2020-0188,2021-09-19,10:27:03,11:31:43,NA,incomplete,false,true,NA,2,4,E23_Q5_ansR.png,right,NA,NA,NA,right,1300,true,NA,NA,NA,NA,NA
Ga6cfLKL,NA,NA,Ga6cfLKL,2020-0188,2021-09-19,10:27:03,11:31:43,NA,incomplete,false,true,NA,2,5,E23_Q1_ansL.png,left,NA,NA,NA,left,1700,true,NA,NA,NA,NA,NA
Ga6cfLKL,NA,NA,Ga6cfLKL,2020-0188,2021-09-19,10:27:03,11:31:43,NA,incomplete,false,true,NA,2,6,E23_Q8_ansL.png,left,NA,NA,NA,left,1616,true,NA,NA,NA,NA,NA
Ga6cfLKL,NA,NA,Ga6cfLKL,2020-0188,2021-09-19,10:27:03,11:31:43,NA,incomplete,false,true,NA,2,7,E23_Q2_ansL.png,left,NA,NA,NA,left,1579.00000000012,true,NA,NA,NA,NA,NA
Ga6cfLKL,NA,NA,Ga6cfLKL,2020-0188,2021-09-19,10:27:03,11:31:43,NA,incomplete,false,true,NA,2,8,E23_Q9_ansR.png,right,NA,NA,NA,right,1346,true,NA,NA,NA,NA,NA
Ga6cfLKL,NA,NA,Ga6cfLKL,2020-0188,2021-09-19,10:27:03,11:31:43,NA,incomplete,false,true,NA,2,9,E23_Q6_ansR.png,right,NA,NA,NA,right,1459,true,NA,NA,NA,NA,NA
Ga6cfLKL,NA,NA,Ga6cfLKL,2020-0188,2021-09-19,10:27:03,11:31:43,NA,incomplete,false,true,NA,2,10,E3_Q5_ansR.png,right,NA,NA,NA,right,2043,true,NA,NA,NA,NA,NA
Ga6cfLKL,NA,NA,Ga6cfLKL,2020-0188,2021-09-19,10:27:03,11:31:43,NA,incomplete,false,true,NA,2,11,E3_Q10_ansR.png,right,NA,NA,NA,right,2401.99999999988,true,NA,NA,NA,NA,NA
Ga6cfLKL,NA,NA,Ga6cfLKL,2020-0188,2021-09-19,10:27:03,11:31:43,NA,incomplete,false,true,NA,2,12,E3_Q1_ansR.png,right,NA,NA,NA,right,1757,true,NA,NA,NA,NA,NA
Ga6cfLKL,NA,NA,Ga6cfLKL,2020-0188,2021-09-19,10:27:03,11:31:43,NA,incomplete,false,true,NA,2,13,E3_Q9_ansL.png,left,NA,NA,NA,left,1624,true,NA,NA,NA,NA,NA
Ga6cfLKL,NA,NA,Ga6cfLKL,2020-0188,2021-09-19,10:27:03,11:31:43,NA,incomplete,false,true,NA,2,14,E3_Q3_ansR.png,right,NA,NA,NA,right,1856,true,NA,NA,NA,NA,NA
Ga6cfLKL,NA,NA,Ga6cfLKL,2020-0188,2021-09-19,10:27:03,11:31:43,NA,incomplete,false,true,NA,2,15,E3_Q2_ansL.png,left,NA,NA,NA,left,2004,true,NA,NA,NA,NA,NA
Ga6cfLKL,NA,NA,Ga6cfLKL,2020-0188,2021-09-19,10:27:03,11:31:43,NA,incomplete,false,true,NA,2,16,E3_Q8_ansL.png,left,NA,NA,NA,left,1995,true,NA,NA,NA,NA,NA
Ga6cfLKL,NA,NA,Ga6cfLKL,2020-0188,2021-09-19,10:27:03,11:31:43,NA,incomplete,false,true,NA,2,17,E3_Q4_ansL.png,left,NA,NA,NA,left,1603,true,NA,NA,NA,NA,NA
Ga6cfLKL,NA,NA,Ga6cfLKL,2020-0188,2021-09-19,10:27:03,11:31:43,NA,incomplete,false,true,NA,2,18,E3_Q6_ansR.png,right,NA,NA,NA,right,2189,true,NA,NA,NA,NA,NA
Ga6cfLKL,NA,NA,Ga6cfLKL,2020-0188,2021-09-19,10:27:03,11:31:43,NA,incomplete,false,true,NA,2,19,E3_Q7_ansL.png,left,NA,NA,NA,none,0,false,NA,NA,NA,NA,NA
Ga6cfLKL,NA,NA,Ga6cfLKL,2020-0188,2021-09-19,10:27:03,11:31:43,NA,incomplete,false,true,NA,2,20,E29_Q6_ansR.png,right,NA,NA,NA,right,1038,true,NA,NA,NA,NA,NA
Ga6cfLKL,NA,NA,Ga6cfLKL,2020-0188,2021-09-19,10:27:03,11:31:43,NA,incomplete,false,true,NA,2,21,E29_Q5_ansR.png,right,NA,NA,NA,right,1162.99999999988,true,NA,NA,NA,NA,NA
Ga6cfLKL,NA,NA,Ga6cfLKL,2020-0188,2021-09-19,10:27:03,11:31:43,NA,incomplete,false,true,NA,2,22,E29_Q2_ansL.png,left,NA,NA,NA,right,1108,false,NA,NA,NA,NA,NA
Ga6cfLKL,NA,NA,Ga6cfLKL,2020-0188,2021-09-19,10:27:03,11:31:43,NA,incomplete,false,true,NA,2,23,E29_Q7_ansL.png,left,NA,NA,NA,left,1108,true,NA,NA,NA,NA,NA
Ga6cfLKL,NA,NA,Ga6cfLKL,2020-0188,2021-09-19,10:27:03,11:31:43,NA,incomplete,false,true,NA,2,24,E29_Q10_ansL.png,left,NA,NA,NA,left,1527,true,NA,NA,NA,NA,NA
Ga6cfLKL,NA,NA,Ga6cfLKL,2020-0188,2021-09-19,10:27:03,11:31:43,NA,incomplete,false,true,NA,2,25,E29_Q8_ansL.png,left,NA,NA,NA,left,1547,true,NA,NA,NA,NA,NA
Ga6cfLKL,NA,NA,Ga6cfLKL,2020-0188,2021-09-19,10:27:03,11:31:43,NA,incomplete,false,true,NA,2,26,E29_Q1_ansL.png,left,NA,NA,NA,left,1845,true,NA,NA,NA,NA,NA
Ga6cfLKL,NA,NA,Ga6cfLKL,2020-0188,2021-09-19,10:27:03,11:31:43,NA,incomplete,false,true,NA,2,27,E29_Q3_ansR.png,right,NA,NA,NA,right,2596,true,NA,NA,NA,NA,NA
Ga6cfLKL,NA,NA,Ga6cfLKL,2020-0188,2021-09-19,10:27:03,11:31:43,NA,incomplete,false,true,NA,2,28,E29_Q9_ansR.png,right,NA,NA,NA,right,1608,true,NA,NA,NA,NA,NA
Ga6cfLKL,NA,NA,Ga6cfLKL,2020-0188,2021-09-19,10:27:03,11:31:43,NA,incomplete,false,true,NA,2,29,E29_Q4_ansR.png,right,NA,NA,NA,right,1431,true,NA,NA,NA,NA,NA
Ga6cfLKL,NA,NA,Ga6cfLKL,2020-0188,2021-09-19,10:27:03,11:31:43,NA,incomplete,false,NA,true,2,0,NA,right,E29_Q2_ansL.png,E3_Q7_ansL.png,between,NA,NaN,NA,right,2830,1,1,1622.9999999998836
Ga6cfLKL,NA,NA,Ga6cfLKL,2020-0188,2021-09-19,10:27:03,11:31:43,NA,incomplete,false,NA,true,2,1,NA,left,E29_Q5_ansR.png,E29_Q10_ansL.png,within,NA,NaN,NA,right,1987,0,1,1771.9999999998836
Ga6cfLKL,NA,NA,Ga6cfLKL,2020-0188,2021-09-19,10:27:03,11:31:43,NA,incomplete,false,NA,true,2,2,NA,left,E29_Q7_ansL.png,E29_Q1_ansL.png,within,NA,NaN,NA,left,3435,1,1,952
Ga6cfLKL,NA,NA,Ga6cfLKL,2020-0188,2021-09-19,10:27:03,11:31:43,NA,incomplete,false,NA,true,2,3,NA,left,E3_Q5_ansR.png,E3_Q9_ansL.png,within,NA,NaN,NA,left,1433,1,1,865
Ga6cfLKL,NA,NA,Ga6cfLKL,2020-0188,2021-09-19,10:27:03,11:31:43,NA,incomplete,false,NA,true,2,4,NA,left,E29_Q6_ansR.png,E29_Q7_ansL.png,within,NA,NaN,NA,right,1036,0,1,976
Ga6cfLKL,NA,NA,Ga6cfLKL,2020-0188,2021-09-19,10:27:03,11:31:43,NA,incomplete,false,NA,true,2,5,NA,left,E3_Q1_ansR.png,E3_Q2_ansL.png,within,NA,NaN,NA,left,1318,1,1,991.0000000001164
Ga6cfLKL,NA,NA,Ga6cfLKL,2020-0188,2021-09-19,10:27:03,11:31:43,NA,incomplete,false,NA,true,2,6,NA,left,E29_Q10_ansL.png,E29_Q3_ansR.png,within,NA,NaN,NA,right,840.0000000001164,0,1,898
Ga6cfLKL,NA,NA,Ga6cfLKL,2020-0188,2021-09-19,10:27:03,11:31:43,NA,incomplete,false,NA,true,2,7,NA,left,E3_Q2_ansL.png,E3_Q6_ansR.png,within,NA,NaN,NA,left,765,1,1,1344
Ga6cfLKL,NA,NA,Ga6cfLKL,2020-0188,2021-09-19,10:27:03,11:31:43,NA,incomplete,false,NA,true,2,8,NA,right,E3_Q10_ansR.png,E23_Q9_ansR.png,between,NA,NaN,NA,right,1098,1,1,1031
Ga6cfLKL,NA,NA,Ga6cfLKL,2020-0188,2021-09-19,10:27:03,11:31:43,NA,incomplete,false,NA,true,2,9,NA,right,E23_Q2_ansL.png,E23_Q5_ansR.png,within,NA,NaN,NA,left,883,0,1,1123
Ga6cfLKL,NA,NA,Ga6cfLKL,2020-0188,2021-09-19,10:27:03,11:31:43,NA,incomplete,false,NA,true,2,10,NA,right,E23_Q1_ansL.png,E23_Q3_ansR.png,within,NA,NaN,NA,left,1211,0,1,1268
Ga6cfLKL,NA,NA,Ga6cfLKL,2020-0188,2021-09-19,10:27:03,11:31:43,NA,incomplete,false,NA,true,2,11,NA,left,E23_Q7_ansL.png,E23_Q5_ansR.png,within,NA,NaN,NA,left,1886.0000000001164,1,1,929.9999999998836
Ga6cfLKL,NA,NA,Ga6cfLKL,2020-0188,2021-09-19,10:27:03,11:31:43,NA,incomplete,false,NA,true,2,12,NA,right,E3_Q1_ansR.png,E23_Q6_ansR.png,between,NA,NaN,NA,left,751,0,1,1544.0000000001164
Ga6cfLKL,NA,NA,Ga6cfLKL,2020-0188,2021-09-19,10:27:03,11:31:43,NA,incomplete,false,NA,true,2,13,NA,right,E23_Q10_ansL.png,E23_Q4_ansR.png,within,NA,NaN,NA,right,1692,1,1,937.9999999998836
Ga6cfLKL,NA,NA,Ga6cfLKL,2020-0188,2021-09-19,10:27:03,11:31:43,NA,incomplete,false,NA,true,2,14,NA,right,E29_Q6_ansR.png,E3_Q4_ansL.png,between,NA,NaN,NA,right,846,1,1,1242.9999999998836
Ga6cfLKL,NA,NA,Ga6cfLKL,2020-0188,2021-09-19,10:27:03,11:31:43,NA,incomplete,false,NA,true,2,15,NA,right,E29_Q9_ansR.png,E29_Q8_ansL.png,within,NA,NaN,NA,left,724,0,1,1018
Ga6cfLKL,NA,NA,Ga6cfLKL,2020-0188,2021-09-19,10:27:03,11:31:43,NA,incomplete,false,NA,true,2,16,NA,right,E29_Q8_ansL.png,E29_Q2_ansL.png,within,NA,NaN,NA,left,601,0,1,891
Ga6cfLKL,NA,NA,Ga6cfLKL,2020-0188,2021-09-19,10:27:03,11:31:43,NA,incomplete,false,NA,true,2,17,NA,right,E3_Q5_ansR.png,E23_Q2_ansL.png,between,NA,NaN,NA,right,913,1,1,954
Ga6cfLKL,NA,NA,Ga6cfLKL,2020-0188,2021-09-19,10:27:03,11:31:43,NA,incomplete,false,NA,true,2,18,NA,left,E3_Q9_ansL.png,E3_Q8_ansL.png,within,NA,NaN,NA,left,937,1,1,1532
Ga6cfLKL,NA,NA,Ga6cfLKL,2020-0188,2021-09-19,10:27:03,11:31:43,NA,incomplete,false,NA,true,2,19,NA,left,E3_Q8_ansL.png,E3_Q7_ansL.png,within,NA,NaN,NA,right,682.0000000001164,0,1,3103
Ga6cfLKL,NA,NA,Ga6cfLKL,2020-0188,2021-09-19,10:27:03,11:31:43,NA,incomplete,false,NA,true,2,20,NA,left,E29_Q1_ansL.png,E29_Q4_ansR.png,within,NA,NaN,NA,right,2292,0,1,3029
Ga6cfLKL,NA,NA,Ga6cfLKL,2020-0188,2021-09-19,10:27:03,11:31:43,NA,incomplete,false,NA,true,2,21,NA,right,E3_Q3_ansR.png,E3_Q10_ansR.png,within,NA,NaN,NA,left,911.0000000001164,0,0,1870
Ga6cfLKL,NA,NA,Ga6cfLKL,2020-0188,2021-09-19,10:27:03,11:31:43,NA,incomplete,false,NA,true,2,22,NA,left,E3_Q6_ansR.png,E29_Q5_ansR.png,between,NA,NaN,NA,right,633,0,1,843
Ga6cfLKL,NA,NA,Ga6cfLKL,2020-0188,2021-09-19,10:27:03,11:31:43,NA,incomplete,false,NA,true,2,23,NA,left,E3_Q3_ansR.png,E3_Q4_ansL.png,within,NA,NaN,NA,left,707,1,1,840
Ga6cfLKL,NA,NA,Ga6cfLKL,2020-0188,2021-09-19,10:27:03,11:31:43,NA,incomplete,false,NA,true,2,24,NA,right,E23_Q9_ansR.png,E23_Q1_ansL.png,within,NA,NaN,NA,right,591,1,1,767
Ga6cfLKL,NA,NA,Ga6cfLKL,2020-0188,2021-09-19,10:27:03,11:31:43,NA,incomplete,false,NA,true,2,25,NA,right,E23_Q6_ansR.png,E23_Q8_ansL.png,within,NA,NaN,NA,left,715,0,1,739
Ga6cfLKL,NA,NA,Ga6cfLKL,2020-0188,2021-09-19,10:27:03,11:31:43,NA,incomplete,false,NA,true,2,26,NA,left,E23_Q10_ansL.png,E23_Q8_ansL.png,within,NA,NaN,NA,right,5112.000000000116,0,1,1963.9999999998836
Ga6cfLKL,NA,NA,Ga6cfLKL,2020-0188,2021-09-19,10:27:03,11:31:43,NA,incomplete,false,true,NA,3,0,E27_Q10_ansL.png,left,NA,NA,NA,left,1906.99999999988,true,NA,NA,NA,NA,NA
Ga6cfLKL,NA,NA,Ga6cfLKL,2020-0188,2021-09-19,10:27:03,11:31:43,NA,incomplete,false,true,NA,3,1,E27_Q9_ansR.png,right,NA,NA,NA,right,3435.99999999988,true,NA,NA,NA,NA,NA
Ga6cfLKL,NA,NA,Ga6cfLKL,2020-0188,2021-09-19,10:27:03,11:31:43,NA,incomplete,false,true,NA,3,2,E27_Q1_ansL.png,left,NA,NA,NA,left,1516,true,NA,NA,NA,NA,NA
Ga6cfLKL,NA,NA,Ga6cfLKL,2020-0188,2021-09-19,10:27:03,11:31:43,NA,incomplete,false,true,NA,3,3,E27_Q4_ansR.png,right,NA,NA,NA,right,1312,true,NA,NA,NA,NA,NA
Ga6cfLKL,NA,NA,Ga6cfLKL,2020-0188,2021-09-19,10:27:03,11:31:43,NA,incomplete,false,true,NA,3,4,E27_Q7_ansL.png,left,NA,NA,NA,left,1915,true,NA,NA,NA,NA,NA
Ga6cfLKL,NA,NA,Ga6cfLKL,2020-0188,2021-09-19,10:27:03,11:31:43,NA,incomplete,false,true,NA,3,5,E27_Q8_ansL.png,left,NA,NA,NA,left,1114,true,NA,NA,NA,NA,NA
Ga6cfLKL,NA,NA,Ga6cfLKL,2020-0188,2021-09-19,10:27:03,11:31:43,NA,incomplete,false,true,NA,3,6,E27_Q3_ansR.png,right,NA,NA,NA,right,1068.99999999977,true,NA,NA,NA,NA,NA
Ga6cfLKL,NA,NA,Ga6cfLKL,2020-0188,2021-09-19,10:27:03,11:31:43,NA,incomplete,false,true,NA,3,7,E27_Q6_ansR.png,right,NA,NA,NA,right,1305,true,NA,NA,NA,NA,NA
Ga6cfLKL,NA,NA,Ga6cfLKL,2020-0188,2021-09-19,10:27:03,11:31:43,NA,incomplete,false,true,NA,3,8,E27_Q2_ansL.png,left,NA,NA,NA,left,1336,true,NA,NA,NA,NA,NA
Ga6cfLKL,NA,NA,Ga6cfLKL,2020-0188,2021-09-19,10:27:03,11:31:43,NA,incomplete,false,true,NA,3,9,E27_Q5_ansR.png,right,NA,NA,NA,right,1007,true,NA,NA,NA,NA,NA
Ga6cfLKL,NA,NA,Ga6cfLKL,2020-0188,2021-09-19,10:27:03,11:31:43,NA,incomplete,false,true,NA,3,10,E17_Q3_ansR.png,right,NA,NA,NA,right,1411,true,NA,NA,NA,NA,NA
Ga6cfLKL,NA,NA,Ga6cfLKL,2020-0188,2021-09-19,10:27:03,11:31:43,NA,incomplete,false,true,NA,3,11,E17_Q6_ansR.png,right,NA,NA,NA,right,1085.00000000023,true,NA,NA,NA,NA,NA
Ga6cfLKL,NA,NA,Ga6cfLKL,2020-0188,2021-09-19,10:27:03,11:31:43,NA,incomplete,false,true,NA,3,12,E17_Q7_ansL.png,left,NA,NA,NA,left,1428,true,NA,NA,NA,NA,NA
Ga6cfLKL,NA,NA,Ga6cfLKL,2020-0188,2021-09-19,10:27:03,11:31:43,NA,incomplete,false,true,NA,3,13,E17_Q8_ansL.png,left,NA,NA,NA,left,2444,true,NA,NA,NA,NA,NA
Ga6cfLKL,NA,NA,Ga6cfLKL,2020-0188,2021-09-19,10:27:03,11:31:43,NA,incomplete,false,true,NA,3,14,E17_Q4_ansR.png,right,NA,NA,NA,right,1200.99999999977,true,NA,NA,NA,NA,NA
Ga6cfLKL,NA,NA,Ga6cfLKL,2020-0188,2021-09-19,10:27:03,11:31:43,NA,incomplete,false,true,NA,3,15,E17_Q1_ansL.png,left,NA,NA,NA,left,1428.99999999977,true,NA,NA,NA,NA,NA
Ga6cfLKL,NA,NA,Ga6cfLKL,2020-0188,2021-09-19,10:27:03,11:31:43,NA,incomplete,false,true,NA,3,16,E17_Q9_ansR.png,right,NA,NA,NA,right,1506,true,NA,NA,NA,NA,NA
Ga6cfLKL,NA,NA,Ga6cfLKL,2020-0188,2021-09-19,10:27:03,11:31:43,NA,incomplete,false,true,NA,3,17,E17_Q10_ansL.png,left,NA,NA,NA,left,2536,true,NA,NA,NA,NA,NA
Ga6cfLKL,NA,NA,Ga6cfLKL,2020-0188,2021-09-19,10:27:03,11:31:43,NA,incomplete,false,true,NA,3,18,E17_Q2_ansL.png,left,NA,NA,NA,left,2243,true,NA,NA,NA,NA,NA
Ga6cfLKL,NA,NA,Ga6cfLKL,2020-0188,2021-09-19,10:27:03,11:31:43,NA,incomplete,false,true,NA,3,19,E17_Q5_ansR.png,right,NA,NA,NA,right,1497.00000000023,true,NA,NA,NA,NA,NA
Ga6cfLKL,NA,NA,Ga6cfLKL,2020-0188,2021-09-19,10:27:03,11:31:43,NA,incomplete,false,true,NA,3,20,E8_Q9_ansL.png,left,NA,NA,NA,none,0,false,NA,NA,NA,NA,NA
Ga6cfLKL,NA,NA,Ga6cfLKL,2020-0188,2021-09-19,10:27:03,11:31:43,NA,incomplete,false,true,NA,3,21,E8_Q10_ansR.png,right,NA,NA,NA,right,1790,true,NA,NA,NA,NA,NA
Ga6cfLKL,NA,NA,Ga6cfLKL,2020-0188,2021-09-19,10:27:03,11:31:43,NA,incomplete,false,true,NA,3,22,E8_Q2_ansR.png,right,NA,NA,NA,right,1197,true,NA,NA,NA,NA,NA
Ga6cfLKL,NA,NA,Ga6cfLKL,2020-0188,2021-09-19,10:27:03,11:31:43,NA,incomplete,false,true,NA,3,23,E8_Q4_ansL.png,left,NA,NA,NA,left,1308,true,NA,NA,NA,NA,NA
Ga6cfLKL,NA,NA,Ga6cfLKL,2020-0188,2021-09-19,10:27:03,11:31:43,NA,incomplete,false,true,NA,3,24,E8_Q8_ansR.png,right,NA,NA,NA,right,3024,true,NA,NA,NA,NA,NA
Ga6cfLKL,NA,NA,Ga6cfLKL,2020-0188,2021-09-19,10:27:03,11:31:43,NA,incomplete,false,true,NA,3,25,E8_Q5_ansL.png,left,NA,NA,NA,left,1694,true,NA,NA,NA,NA,NA
Ga6cfLKL,NA,NA,Ga6cfLKL,2020-0188,2021-09-19,10:27:03,11:31:43,NA,incomplete,false,true,NA,3,26,E8_Q3_ansL.png,left,NA,NA,NA,left,1251,true,NA,NA,NA,NA,NA
Ga6cfLKL,NA,NA,Ga6cfLKL,2020-0188,2021-09-19,10:27:03,11:31:43,NA,incomplete,false,true,NA,3,27,E8_Q1_ansR.png,right,NA,NA,NA,right,2527,true,NA,NA,NA,NA,NA
Ga6cfLKL,NA,NA,Ga6cfLKL,2020-0188,2021-09-19,10:27:03,11:31:43,NA,incomplete,false,true,NA,3,28,E8_Q7_ansR.png,right,NA,NA,NA,right,1949,true,NA,NA,NA,NA,NA
Ga6cfLKL,NA,NA,Ga6cfLKL,2020-0188,2021-09-19,10:27:03,11:31:43,NA,incomplete,false,true,NA,3,29,E8_Q6_ansL.png,left,NA,NA,NA,none,0,false,NA,NA,NA,NA,NA
Ga6cfLKL,NA,NA,Ga6cfLKL,2020-0188,2021-09-19,10:27:03,11:31:43,NA,incomplete,false,NA,true,3,0,NA,left,E17_Q7_ansL.png,E17_Q1_ansL.png,within,NA,NaN,NA,left,5300,1,1,920
Ga6cfLKL,NA,NA,Ga6cfLKL,2020-0188,2021-09-19,10:27:03,11:31:43,NA,incomplete,false,NA,true,3,1,NA,right,E17_Q2_ansL.png,E17_Q1_ansL.png,within,NA,NaN,NA,right,1383,1,1,1473.9999999997672
Ga6cfLKL,NA,NA,Ga6cfLKL,2020-0188,2021-09-19,10:27:03,11:31:43,NA,incomplete,false,NA,true,3,2,NA,right,E8_Q10_ansR.png,E17_Q2_ansL.png,between,NA,NaN,NA,right,2473.999999999767,1,2,2097
Ga6cfLKL,NA,NA,Ga6cfLKL,2020-0188,2021-09-19,10:27:03,11:31:43,NA,incomplete,false,NA,true,3,3,NA,right,E17_Q7_ansL.png,E27_Q5_ansR.png,between,NA,NaN,NA,right,1659,1,1,1385
Ga6cfLKL,NA,NA,Ga6cfLKL,2020-0188,2021-09-19,10:27:03,11:31:43,NA,incomplete,false,NA,true,3,4,NA,left,E17_Q5_ansR.png,E8_Q2_ansR.png,between,NA,NaN,NA,left,1552,1,1,1375
Ga6cfLKL,NA,NA,Ga6cfLKL,2020-0188,2021-09-19,10:27:03,11:31:43,NA,incomplete,false,NA,true,3,5,NA,left,E17_Q3_ansR.png,E17_Q8_ansL.png,within,NA,NaN,NA,right,890,0,1,921.0000000002328
Ga6cfLKL,NA,NA,Ga6cfLKL,2020-0188,2021-09-19,10:27:03,11:31:43,NA,incomplete,false,NA,true,3,6,NA,right,E8_Q4_ansL.png,E8_Q9_ansL.png,within,NA,NaN,NA,right,1576,1,1,915
Ga6cfLKL,NA,NA,Ga6cfLKL,2020-0188,2021-09-19,10:27:03,11:31:43,NA,incomplete,false,NA,true,3,7,NA,right,E8_Q5_ansL.png,E8_Q2_ansR.png,within,NA,NaN,NA,left,2068,0,1,996
Ga6cfLKL,NA,NA,Ga6cfLKL,2020-0188,2021-09-19,10:27:03,11:31:43,NA,incomplete,false,NA,true,3,8,NA,left,E27_Q1_ansL.png,E27_Q8_ansL.png,within,NA,NaN,NA,right,1532.9999999997672,0,1,928
Ga6cfLKL,NA,NA,Ga6cfLKL,2020-0188,2021-09-19,10:27:03,11:31:43,NA,incomplete,false,NA,true,3,9,NA,left,E27_Q10_ansL.png,E27_Q4_ansR.png,within,NA,NaN,NA,right,904,0,1,1227
Ga6cfLKL,NA,NA,Ga6cfLKL,2020-0188,2021-09-19,10:27:03,11:31:43,NA,incomplete,false,NA,true,3,10,NA,right,E17_Q9_ansR.png,E17_Q8_ansL.png,within,NA,NaN,NA,left,694,0,1,825
Ga6cfLKL,NA,NA,Ga6cfLKL,2020-0188,2021-09-19,10:27:03,11:31:43,NA,incomplete,false,NA,true,3,11,NA,right,E17_Q4_ansR.png,E17_Q6_ansR.png,within,NA,NaN,NA,right,549.0000000002328,1,1,1122
Ga6cfLKL,NA,NA,Ga6cfLKL,2020-0188,2021-09-19,10:27:03,11:31:43,NA,incomplete,false,NA,true,3,12,NA,right,E27_Q2_ansL.png,E27_Q8_ansL.png,within,NA,NaN,NA,right,1333,1,1,1103.0000000002328
Ga6cfLKL,NA,NA,Ga6cfLKL,2020-0188,2021-09-19,10:27:03,11:31:43,NA,incomplete,false,NA,true,3,13,NA,right,E8_Q7_ansR.png,E8_Q5_ansL.png,within,NA,NaN,NA,left,1297,0,1,1011
Ga6cfLKL,NA,NA,Ga6cfLKL,2020-0188,2021-09-19,10:27:03,11:31:43,NA,incomplete,false,NA,true,3,14,NA,right,E8_Q8_ansR.png,E8_Q10_ansR.png,within,NA,NaN,NA,right,790.9999999997672,1,1,980
Ga6cfLKL,NA,NA,Ga6cfLKL,2020-0188,2021-09-19,10:27:03,11:31:43,NA,incomplete,false,NA,true,3,15,NA,left,E17_Q9_ansR.png,E17_Q5_ansR.png,within,NA,NaN,NA,left,1845,1,1,790
Ga6cfLKL,NA,NA,Ga6cfLKL,2020-0188,2021-09-19,10:27:03,11:31:43,NA,incomplete,false,NA,true,3,16,NA,right,E17_Q10_ansL.png,E17_Q4_ansR.png,within,NA,NaN,NA,left,1823.9999999997672,0,1,1003
Ga6cfLKL,NA,NA,Ga6cfLKL,2020-0188,2021-09-19,10:27:03,11:31:43,NA,incomplete,false,NA,true,3,17,NA,left,E17_Q10_ansL.png,E8_Q9_ansL.png,between,NA,NaN,NA,right,609,0,1,1113.9999999997672
Ga6cfLKL,NA,NA,Ga6cfLKL,2020-0188,2021-09-19,10:27:03,11:31:43,NA,incomplete,false,NA,true,3,18,NA,right,E27_Q7_ansL.png,E27_Q9_ansR.png,within,NA,NaN,NA,left,1007.0000000002328,0,1,1004
Ga6cfLKL,NA,NA,Ga6cfLKL,2020-0188,2021-09-19,10:27:03,11:31:43,NA,incomplete,false,NA,true,3,19,NA,right,E27_Q6_ansR.png,E27_Q7_ansL.png,within,NA,NaN,NA,right,1221,1,1,1624
Ga6cfLKL,NA,NA,Ga6cfLKL,2020-0188,2021-09-19,10:27:03,11:31:43,NA,incomplete,false,NA,true,3,20,NA,left,E27_Q6_ansR.png,E17_Q3_ansR.png,between,NA,NaN,NA,left,739,1,1,913
Ga6cfLKL,NA,NA,Ga6cfLKL,2020-0188,2021-09-19,10:27:03,11:31:43,NA,incomplete,false,NA,true,3,21,NA,left,E8_Q8_ansR.png,E8_Q1_ansR.png,within,NA,NaN,NA,right,487,0,1,1436
Ga6cfLKL,NA,NA,Ga6cfLKL,2020-0188,2021-09-19,10:27:03,11:31:43,NA,incomplete,false,NA,true,3,22,NA,left,E27_Q4_ansR.png,E27_Q3_ansR.png,within,NA,NaN,NA,left,516,1,1,824
Ga6cfLKL,NA,NA,Ga6cfLKL,2020-0188,2021-09-19,10:27:03,11:31:43,NA,incomplete,false,NA,true,3,23,NA,right,E27_Q5_ansR.png,E27_Q3_ansR.png,within,NA,NaN,NA,right,503,1,1,952
Ga6cfLKL,NA,NA,Ga6cfLKL,2020-0188,2021-09-19,10:27:03,11:31:43,NA,incomplete,false,NA,true,3,24,NA,right,E8_Q3_ansL.png,E8_Q4_ansL.png,within,NA,NaN,NA,left,641,0,1,954.9999999997672
Ga6cfLKL,NA,NA,Ga6cfLKL,2020-0188,2021-09-19,10:27:03,11:31:43,NA,incomplete,false,NA,true,3,25,NA,left,E27_Q2_ansL.png,E17_Q6_ansR.png,between,NA,NaN,NA,right,533,0,1,1467
Ga6cfLKL,NA,NA,Ga6cfLKL,2020-0188,2021-09-19,10:27:03,11:31:43,NA,incomplete,false,NA,true,3,26,NA,left,E8_Q3_ansL.png,E8_Q6_ansL.png,within,NA,NaN,NA,right,1946,0,1,1660
Ga6cfLKL,NA,NA,Ga6cfLKL,2020-0188,2021-09-19,10:27:03,11:31:43,NA,incomplete,false,true,NA,4,0,E13_Q8_ansL.png,left,NA,NA,NA,left,3246,true,NA,NA,NA,NA,NA
Ga6cfLKL,NA,NA,Ga6cfLKL,2020-0188,2021-09-19,10:27:03,11:31:43,NA,incomplete,false,true,NA,4,1,E13_Q2_ansL.png,left,NA,NA,NA,left,1105,true,NA,NA,NA,NA,NA
Ga6cfLKL,NA,NA,Ga6cfLKL,2020-0188,2021-09-19,10:27:03,11:31:43,NA,incomplete,false,true,NA,4,2,E13_Q7_ansL.png,left,NA,NA,NA,none,0,false,NA,NA,NA,NA,NA
Ga6cfLKL,NA,NA,Ga6cfLKL,2020-0188,2021-09-19,10:27:03,11:31:43,NA,incomplete,false,true,NA,4,3,E13_Q9_ansR.png,right,NA,NA,NA,right,1264.99999999977,true,NA,NA,NA,NA,NA
Ga6cfLKL,NA,NA,Ga6cfLKL,2020-0188,2021-09-19,10:27:03,11:31:43,NA,incomplete,false,true,NA,4,4,E13_Q10_ansL.png,left,NA,NA,NA,left,1245,true,NA,NA,NA,NA,NA
Ga6cfLKL,NA,NA,Ga6cfLKL,2020-0188,2021-09-19,10:27:03,11:31:43,NA,incomplete,false,true,NA,4,5,E13_Q6_ansR.png,right,NA,NA,NA,right,1349,true,NA,NA,NA,NA,NA
Ga6cfLKL,NA,NA,Ga6cfLKL,2020-0188,2021-09-19,10:27:03,11:31:43,NA,incomplete,false,true,NA,4,6,E13_Q4_ansR.png,right,NA,NA,NA,left,2453,false,NA,NA,NA,NA,NA
Ga6cfLKL,NA,NA,Ga6cfLKL,2020-0188,2021-09-19,10:27:03,11:31:43,NA,incomplete,false,true,NA,4,7,E13_Q3_ansR.png,right,NA,NA,NA,right,1153,true,NA,NA,NA,NA,NA
Ga6cfLKL,NA,NA,Ga6cfLKL,2020-0188,2021-09-19,10:27:03,11:31:43,NA,incomplete,false,true,NA,4,8,E13_Q5_ansR.png,right,NA,NA,NA,right,1967.00000000023,true,NA,NA,NA,NA,NA
Ga6cfLKL,NA,NA,Ga6cfLKL,2020-0188,2021-09-19,10:27:03,11:31:43,NA,incomplete,false,true,NA,4,9,E13_Q1_ansL.png,left,NA,NA,NA,left,1158.00000000023,true,NA,NA,NA,NA,NA
Ga6cfLKL,NA,NA,Ga6cfLKL,2020-0188,2021-09-19,10:27:03,11:31:43,NA,incomplete,false,true,NA,4,10,E9_Q1_ansR.png,right,NA,NA,NA,right,1268,true,NA,NA,NA,NA,NA
Ga6cfLKL,NA,NA,Ga6cfLKL,2020-0188,2021-09-19,10:27:03,11:31:43,NA,incomplete,false,true,NA,4,11,E9_Q3_ansL.png,left,NA,NA,NA,left,1028,true,NA,NA,NA,NA,NA
Ga6cfLKL,NA,NA,Ga6cfLKL,2020-0188,2021-09-19,10:27:03,11:31:43,NA,incomplete,false,true,NA,4,12,E9_Q9_ansL.png,left,NA,NA,NA,right,2703,false,NA,NA,NA,NA,NA
Ga6cfLKL,NA,NA,Ga6cfLKL,2020-0188,2021-09-19,10:27:03,11:31:43,NA,incomplete,false,true,NA,4,13,E9_Q6_ansL.png,left,NA,NA,NA,left,2039,true,NA,NA,NA,NA,NA
Ga6cfLKL,NA,NA,Ga6cfLKL,2020-0188,2021-09-19,10:27:03,11:31:43,NA,incomplete,false,true,NA,4,14,E9_Q10_ansR.png,right,NA,NA,NA,right,1696,true,NA,NA,NA,NA,NA
Ga6cfLKL,NA,NA,Ga6cfLKL,2020-0188,2021-09-19,10:27:03,11:31:43,NA,incomplete,false,true,NA,4,15,E9_Q7_ansR.png,right,NA,NA,NA,right,1276,true,NA,NA,NA,NA,NA
Ga6cfLKL,NA,NA,Ga6cfLKL,2020-0188,2021-09-19,10:27:03,11:31:43,NA,incomplete,false,true,NA,4,16,E9_Q8_ansR.png,right,NA,NA,NA,right,1478,true,NA,NA,NA,NA,NA
Ga6cfLKL,NA,NA,Ga6cfLKL,2020-0188,2021-09-19,10:27:03,11:31:43,NA,incomplete,false,true,NA,4,17,E9_Q4_ansL.png,left,NA,NA,NA,left,2068,true,NA,NA,NA,NA,NA
Ga6cfLKL,NA,NA,Ga6cfLKL,2020-0188,2021-09-19,10:27:03,11:31:43,NA,incomplete,false,true,NA,4,18,E9_Q5_ansL.png,left,NA,NA,NA,left,1599,true,NA,NA,NA,NA,NA
Ga6cfLKL,NA,NA,Ga6cfLKL,2020-0188,2021-09-19,10:27:03,11:31:43,NA,incomplete,false,true,NA,4,19,E9_Q2_ansR.png,right,NA,NA,NA,right,2561,true,NA,NA,NA,NA,NA
Ga6cfLKL,NA,NA,Ga6cfLKL,2020-0188,2021-09-19,10:27:03,11:31:43,NA,incomplete,false,true,NA,4,20,E6_Q9_ansL.png,left,NA,NA,NA,left,1676,true,NA,NA,NA,NA,NA
Ga6cfLKL,NA,NA,Ga6cfLKL,2020-0188,2021-09-19,10:27:03,11:31:43,NA,incomplete,false,true,NA,4,21,E6_Q5_ansR.png,right,NA,NA,NA,right,1963,true,NA,NA,NA,NA,NA
Ga6cfLKL,NA,NA,Ga6cfLKL,2020-0188,2021-09-19,10:27:03,11:31:43,NA,incomplete,false,true,NA,4,22,E6_Q8_ansL.png,left,NA,NA,NA,left,1948,true,NA,NA,NA,NA,NA
Ga6cfLKL,NA,NA,Ga6cfLKL,2020-0188,2021-09-19,10:27:03,11:31:43,NA,incomplete,false,true,NA,4,23,E6_Q6_ansR.png,right,NA,NA,NA,right,1229.00000000023,true,NA,NA,NA,NA,NA
Ga6cfLKL,NA,NA,Ga6cfLKL,2020-0188,2021-09-19,10:27:03,11:31:43,NA,incomplete,false,true,NA,4,24,E6_Q10_ansL.png,left,NA,NA,NA,left,1876,true,NA,NA,NA,NA,NA
Ga6cfLKL,NA,NA,Ga6cfLKL,2020-0188,2021-09-19,10:27:03,11:31:43,NA,incomplete,false,true,NA,4,25,E6_Q7_ansL.png,left,NA,NA,NA,left,1906,true,NA,NA,NA,NA,NA
Ga6cfLKL,NA,NA,Ga6cfLKL,2020-0188,2021-09-19,10:27:03,11:31:43,NA,incomplete,false,true,NA,4,26,E6_Q2_ansL.png,left,NA,NA,NA,left,1143,true,NA,NA,NA,NA,NA
Ga6cfLKL,NA,NA,Ga6cfLKL,2020-0188,2021-09-19,10:27:03,11:31:43,NA,incomplete,false,true,NA,4,27,E6_Q4_ansR.png,right,NA,NA,NA,right,1757,true,NA,NA,NA,NA,NA
Ga6cfLKL,NA,NA,Ga6cfLKL,2020-0188,2021-09-19,10:27:03,11:31:43,NA,incomplete,false,true,NA,4,28,E6_Q3_ansR.png,right,NA,NA,NA,right,1344,true,NA,NA,NA,NA,NA
Ga6cfLKL,NA,NA,Ga6cfLKL,2020-0188,2021-09-19,10:27:03,11:31:43,NA,incomplete,false,true,NA,4,29,E6_Q1_ansL.png,left,NA,NA,NA,left,1303.00000000023,true,NA,NA,NA,NA,NA
Ga6cfLKL,NA,NA,Ga6cfLKL,2020-0188,2021-09-19,10:27:03,11:31:43,NA,incomplete,false,NA,true,4,0,NA,right,E9_Q10_ansR.png,E9_Q3_ansL.png,within,NA,NaN,NA,left,3801,0,1,823
Ga6cfLKL,NA,NA,Ga6cfLKL,2020-0188,2021-09-19,10:27:03,11:31:43,NA,incomplete,false,NA,true,4,1,NA,right,E13_Q10_ansL.png,E13_Q2_ansL.png,within,NA,NaN,NA,right,1848,1,1,733.0000000002328
Ga6cfLKL,NA,NA,Ga6cfLKL,2020-0188,2021-09-19,10:27:03,11:31:43,NA,incomplete,false,NA,true,4,2,NA,left,E9_Q10_ansR.png,E9_Q4_ansL.png,within,NA,NaN,NA,right,1492,0,1,822
Ga6cfLKL,NA,NA,Ga6cfLKL,2020-0188,2021-09-19,10:27:03,11:31:43,NA,incomplete,false,NA,true,4,3,NA,right,E9_Q2_ansR.png,E9_Q8_ansR.png,within,NA,NaN,NA,left,732,0,1,830.9999999997672
Ga6cfLKL,NA,NA,Ga6cfLKL,2020-0188,2021-09-19,10:27:03,11:31:43,NA,incomplete,false,NA,true,4,4,NA,right,E13_Q4_ansR.png,E13_Q9_ansR.png,within,NA,NaN,NA,left,1739,0,1,915
Ga6cfLKL,NA,NA,Ga6cfLKL,2020-0188,2021-09-19,10:27:03,11:31:43,NA,incomplete,false,NA,true,4,5,NA,right,E6_Q7_ansL.png,E6_Q8_ansL.png,within,NA,NaN,NA,left,2670,0,1,1011
Ga6cfLKL,NA,NA,Ga6cfLKL,2020-0188,2021-09-19,10:27:03,11:31:43,NA,incomplete,false,NA,true,4,6,NA,left,E13_Q6_ansR.png,E13_Q5_ansR.png,within,NA,NaN,NA,left,1320,1,1,1521
Ga6cfLKL,NA,NA,Ga6cfLKL,2020-0188,2021-09-19,10:27:03,11:31:43,NA,incomplete,false,NA,true,4,7,NA,right,E9_Q1_ansR.png,E13_Q3_ansR.png,between,NA,NaN,NA,right,5825,1,1,1104
Ga6cfLKL,NA,NA,Ga6cfLKL,2020-0188,2021-09-19,10:27:03,11:31:43,NA,incomplete,false,NA,true,4,8,NA,left,E13_Q5_ansR.png,E9_Q3_ansL.png,between,NA,NaN,NA,left,2624,1,1,2219.999999999767
Ga6cfLKL,NA,NA,Ga6cfLKL,2020-0188,2021-09-19,10:27:03,11:31:43,NA,incomplete,false,NA,true,4,9,NA,right,E9_Q8_ansR.png,E9_Q6_ansL.png,within,NA,NaN,NA,right,641.0000000002328,1,1,1219
Ga6cfLKL,NA,NA,Ga6cfLKL,2020-0188,2021-09-19,10:27:03,11:31:43,NA,incomplete,false,NA,true,4,10,NA,right,E6_Q4_ansR.png,E6_Q10_ansL.png,within,NA,NaN,NA,left,1053,0,1,3618
Ga6cfLKL,NA,NA,Ga6cfLKL,2020-0188,2021-09-19,10:27:03,11:31:43,NA,incomplete,false,NA,true,4,11,NA,right,E6_Q1_ansL.png,E6_Q2_ansL.png,within,NA,NaN,NA,right,670,1,1,963
Ga6cfLKL,NA,NA,Ga6cfLKL,2020-0188,2021-09-19,10:27:03,11:31:43,NA,incomplete,false,NA,true,4,12,NA,left,E9_Q9_ansL.png,E9_Q7_ansR.png,within,NA,NaN,NA,left,963,1,1,4816
Ga6cfLKL,NA,NA,Ga6cfLKL,2020-0188,2021-09-19,10:27:03,11:31:43,NA,incomplete,false,NA,true,4,13,NA,right,E9_Q9_ansL.png,E13_Q1_ansL.png,between,NA,NaN,NA,right,3386.999999999767,1,1,941
Ga6cfLKL,NA,NA,Ga6cfLKL,2020-0188,2021-09-19,10:27:03,11:31:43,NA,incomplete,false,NA,true,4,14,NA,left,E9_Q4_ansL.png,E6_Q9_ansL.png,between,NA,NaN,NA,right,2762,0,1,1137
Ga6cfLKL,NA,NA,Ga6cfLKL,2020-0188,2021-09-19,10:27:03,11:31:43,NA,incomplete,false,NA,true,4,15,NA,left,E6_Q6_ansR.png,E6_Q2_ansL.png,within,NA,NaN,NA,left,1475,1,1,1458
Ga6cfLKL,NA,NA,Ga6cfLKL,2020-0188,2021-09-19,10:27:03,11:31:43,NA,incomplete,false,NA,true,4,16,NA,right,E13_Q1_ansL.png,E13_Q4_ansR.png,within,NA,NaN,NA,right,4103,1,1,839.9999999997672
Ga6cfLKL,NA,NA,Ga6cfLKL,2020-0188,2021-09-19,10:27:03,11:31:43,NA,incomplete,false,NA,true,4,17,NA,left,E9_Q7_ansR.png,E9_Q5_ansL.png,within,NA,NaN,NA,right,2832,0,1,824.0000000002328
Ga6cfLKL,NA,NA,Ga6cfLKL,2020-0188,2021-09-19,10:27:03,11:31:43,NA,incomplete,false,NA,true,4,18,NA,left,E6_Q7_ansL.png,E6_Q3_ansR.png,within,NA,NaN,NA,right,743,0,1,800
Ga6cfLKL,NA,NA,Ga6cfLKL,2020-0188,2021-09-19,10:27:03,11:31:43,NA,incomplete,false,NA,true,4,19,NA,left,E9_Q5_ansL.png,E6_Q5_ansR.png,between,NA,NaN,NA,right,848.9999999997672,0,1,1493
Ga6cfLKL,NA,NA,Ga6cfLKL,2020-0188,2021-09-19,10:27:03,11:31:43,NA,incomplete,false,NA,true,4,20,NA,right,E6_Q10_ansL.png,E6_Q5_ansR.png,within,NA,NaN,NA,left,660,0,1,1567
Ga6cfLKL,NA,NA,Ga6cfLKL,2020-0188,2021-09-19,10:27:03,11:31:43,NA,incomplete,false,NA,true,4,21,NA,left,E13_Q8_ansL.png,E13_Q9_ansR.png,within,NA,NaN,NA,right,1215,0,1,1139
Ga6cfLKL,NA,NA,Ga6cfLKL,2020-0188,2021-09-19,10:27:03,11:31:43,NA,incomplete,false,NA,true,4,22,NA,left,E13_Q10_ansL.png,E13_Q3_ansR.png,within,NA,NaN,NA,left,639,1,1,1321
Ga6cfLKL,NA,NA,Ga6cfLKL,2020-0188,2021-09-19,10:27:03,11:31:43,NA,incomplete,false,NA,true,4,23,NA,right,E6_Q6_ansR.png,E6_Q9_ansL.png,within,NA,NaN,NA,right,667.9999999997672,1,1,779
Ga6cfLKL,NA,NA,Ga6cfLKL,2020-0188,2021-09-19,10:27:03,11:31:43,NA,incomplete,false,NA,true,4,24,NA,left,E9_Q2_ansR.png,E6_Q8_ansL.png,between,NA,NaN,NA,left,2297,1,1,1950
Ga6cfLKL,NA,NA,Ga6cfLKL,2020-0188,2021-09-19,10:27:03,11:31:43,NA,incomplete,false,NA,true,4,25,NA,left,E13_Q7_ansL.png,E13_Q6_ansR.png,within,NA,NaN,NA,right,897,0,1,905
Ga6cfLKL,NA,NA,Ga6cfLKL,2020-0188,2021-09-19,10:27:03,11:31:43,NA,incomplete,false,NA,true,4,26,NA,left,E9_Q1_ansR.png,E9_Q6_ansL.png,within,NA,NaN,NA,right,832,0,1,1757
Ga6cfLKL,NA,NA,Ga6cfLKL,2020-0188,2021-09-19,10:27:03,11:31:43,NA,incomplete,false,true,NA,5,0,E7_Q8_ansL.png,left,NA,NA,NA,left,1391,true,NA,NA,NA,NA,NA
Ga6cfLKL,NA,NA,Ga6cfLKL,2020-0188,2021-09-19,10:27:03,11:31:43,NA,incomplete,false,true,NA,5,1,E7_Q4_ansR.png,right,NA,NA,NA,right,873.000000000233,true,NA,NA,NA,NA,NA
Ga6cfLKL,NA,NA,Ga6cfLKL,2020-0188,2021-09-19,10:27:03,11:31:43,NA,incomplete,false,true,NA,5,2,E7_Q1_ansL.png,left,NA,NA,NA,left,1134.00000000023,true,NA,NA,NA,NA,NA
Ga6cfLKL,NA,NA,Ga6cfLKL,2020-0188,2021-09-19,10:27:03,11:31:43,NA,incomplete,false,true,NA,5,3,E7_Q7_ansL.png,left,NA,NA,NA,left,951,true,NA,NA,NA,NA,NA
Ga6cfLKL,NA,NA,Ga6cfLKL,2020-0188,2021-09-19,10:27:03,11:31:43,NA,incomplete,false,true,NA,5,4,E7_Q3_ansR.png,right,NA,NA,NA,right,1119,true,NA,NA,NA,NA,NA
Ga6cfLKL,NA,NA,Ga6cfLKL,2020-0188,2021-09-19,10:27:03,11:31:43,NA,incomplete,false,true,NA,5,5,E7_Q5_ansR.png,right,NA,NA,NA,left,1186,false,NA,NA,NA,NA,NA
Ga6cfLKL,NA,NA,Ga6cfLKL,2020-0188,2021-09-19,10:27:03,11:31:43,NA,incomplete,false,true,NA,5,6,E7_Q10_ansR.png,right,NA,NA,NA,right,1185,true,NA,NA,NA,NA,NA
Ga6cfLKL,NA,NA,Ga6cfLKL,2020-0188,2021-09-19,10:27:03,11:31:43,NA,incomplete,false,true,NA,5,7,E7_Q6_ansR.png,right,NA,NA,NA,right,1209,true,NA,NA,NA,NA,NA
Ga6cfLKL,NA,NA,Ga6cfLKL,2020-0188,2021-09-19,10:27:03,11:31:43,NA,incomplete,false,true,NA,5,8,E7_Q9_ansR.png,right,NA,NA,NA,right,1448,true,NA,NA,NA,NA,NA
Ga6cfLKL,NA,NA,Ga6cfLKL,2020-0188,2021-09-19,10:27:03,11:31:43,NA,incomplete,false,true,NA,5,9,E7_Q2_ansL.png,left,NA,NA,NA,left,1710,true,NA,NA,NA,NA,NA
Ga6cfLKL,NA,NA,Ga6cfLKL,2020-0188,2021-09-19,10:27:03,11:31:43,NA,incomplete,false,true,NA,5,10,E11_Q4_ansL.png,left,NA,NA,NA,left,1617,true,NA,NA,NA,NA,NA
Ga6cfLKL,NA,NA,Ga6cfLKL,2020-0188,2021-09-19,10:27:03,11:31:43,NA,incomplete,false,true,NA,5,11,E11_Q3_ansL.png,left,NA,NA,NA,left,1593,true,NA,NA,NA,NA,NA
Ga6cfLKL,NA,NA,Ga6cfLKL,2020-0188,2021-09-19,10:27:03,11:31:43,NA,incomplete,false,true,NA,5,12,E11_Q10_ansR.png,right,NA,NA,NA,right,1758,true,NA,NA,NA,NA,NA
Ga6cfLKL,NA,NA,Ga6cfLKL,2020-0188,2021-09-19,10:27:03,11:31:43,NA,incomplete,false,true,NA,5,13,E11_Q2_ansR.png,right,NA,NA,NA,right,1412,true,NA,NA,NA,NA,NA
Ga6cfLKL,NA,NA,Ga6cfLKL,2020-0188,2021-09-19,10:27:03,11:31:43,NA,incomplete,false,true,NA,5,14,E11_Q8_ansR.png,right,NA,NA,NA,right,2047,true,NA,NA,NA,NA,NA
Ga6cfLKL,NA,NA,Ga6cfLKL,2020-0188,2021-09-19,10:27:03,11:31:43,NA,incomplete,false,true,NA,5,15,E11_Q1_ansR.png,right,NA,NA,NA,right,1222,true,NA,NA,NA,NA,NA
Ga6cfLKL,NA,NA,Ga6cfLKL,2020-0188,2021-09-19,10:27:03,11:31:43,NA,incomplete,false,true,NA,5,16,E11_Q7_ansR.png,right,NA,NA,NA,right,1079,true,NA,NA,NA,NA,NA
Ga6cfLKL,NA,NA,Ga6cfLKL,2020-0188,2021-09-19,10:27:03,11:31:43,NA,incomplete,false,true,NA,5,17,E11_Q6_ansL.png,left,NA,NA,NA,right,1016,false,NA,NA,NA,NA,NA
Ga6cfLKL,NA,NA,Ga6cfLKL,2020-0188,2021-09-19,10:27:03,11:31:43,NA,incomplete,false,true,NA,5,18,E11_Q9_ansL.png,left,NA,NA,NA,left,1281.99999999977,true,NA,NA,NA,NA,NA
Ga6cfLKL,NA,NA,Ga6cfLKL,2020-0188,2021-09-19,10:27:03,11:31:43,NA,incomplete,false,true,NA,5,19,E11_Q5_ansL.png,left,NA,NA,NA,left,1574.99999999977,true,NA,NA,NA,NA,NA
Ga6cfLKL,NA,NA,Ga6cfLKL,2020-0188,2021-09-19,10:27:03,11:31:43,NA,incomplete,false,true,NA,5,20,E19_Q7_ansL.png,left,NA,NA,NA,left,1444,true,NA,NA,NA,NA,NA
Ga6cfLKL,NA,NA,Ga6cfLKL,2020-0188,2021-09-19,10:27:03,11:31:43,NA,incomplete,false,true,NA,5,21,E19_Q2_ansL.png,left,NA,NA,NA,left,1011.99999999977,true,NA,NA,NA,NA,NA
Ga6cfLKL,NA,NA,Ga6cfLKL,2020-0188,2021-09-19,10:27:03,11:31:43,NA,incomplete,false,true,NA,5,22,E19_Q1_ansL.png,left,NA,NA,NA,left,1247,true,NA,NA,NA,NA,NA
Ga6cfLKL,NA,NA,Ga6cfLKL,2020-0188,2021-09-19,10:27:03,11:31:43,NA,incomplete,false,true,NA,5,23,E19_Q4_ansR.png,right,NA,NA,NA,right,2857.99999999977,true,NA,NA,NA,NA,NA
Ga6cfLKL,NA,NA,Ga6cfLKL,2020-0188,2021-09-19,10:27:03,11:31:43,NA,incomplete,false,true,NA,5,24,E19_Q3_ansR.png,right,NA,NA,NA,right,980,true,NA,NA,NA,NA,NA
Ga6cfLKL,NA,NA,Ga6cfLKL,2020-0188,2021-09-19,10:27:03,11:31:43,NA,incomplete,false,true,NA,5,25,E19_Q8_ansL.png,left,NA,NA,NA,left,1656.00000000023,true,NA,NA,NA,NA,NA
Ga6cfLKL,NA,NA,Ga6cfLKL,2020-0188,2021-09-19,10:27:03,11:31:43,NA,incomplete,false,true,NA,5,26,E19_Q6_ansR.png,right,NA,NA,NA,right,1422,true,NA,NA,NA,NA,NA
Ga6cfLKL,NA,NA,Ga6cfLKL,2020-0188,2021-09-19,10:27:03,11:31:43,NA,incomplete,false,true,NA,5,27,E19_Q9_ansR.png,right,NA,NA,NA,right,1110,true,NA,NA,NA,NA,NA
Ga6cfLKL,NA,NA,Ga6cfLKL,2020-0188,2021-09-19,10:27:03,11:31:43,NA,incomplete,false,true,NA,5,28,E19_Q10_ansL.png,left,NA,NA,NA,left,1378,true,NA,NA,NA,NA,NA
Ga6cfLKL,NA,NA,Ga6cfLKL,2020-0188,2021-09-19,10:27:03,11:31:43,NA,incomplete,false,true,NA,5,29,E19_Q5_ansR.png,right,NA,NA,NA,right,1441.00000000023,true,NA,NA,NA,NA,NA
Ga6cfLKL,NA,NA,Ga6cfLKL,2020-0188,2021-09-19,10:27:03,11:31:43,NA,incomplete,false,NA,true,5,0,NA,left,E19_Q3_ansR.png,E19_Q9_ansR.png,within,NA,NaN,NA,left,1650,1,1,769.9999999997672
Ga6cfLKL,NA,NA,Ga6cfLKL,2020-0188,2021-09-19,10:27:03,11:31:43,NA,incomplete,false,NA,true,5,1,NA,left,E11_Q2_ansR.png,E11_Q7_ansR.png,within,NA,NaN,NA,left,2886,1,1,818.9999999997672
Ga6cfLKL,NA,NA,Ga6cfLKL,2020-0188,2021-09-19,10:27:03,11:31:43,NA,incomplete,false,NA,true,5,2,NA,right,E7_Q5_ansR.png,E7_Q1_ansL.png,within,NA,NaN,NA,right,1220,1,1,741
Ga6cfLKL,NA,NA,Ga6cfLKL,2020-0188,2021-09-19,10:27:03,11:31:43,NA,incomplete,false,NA,true,5,3,NA,left,E11_Q3_ansL.png,E11_Q8_ansR.png,within,NA,NaN,NA,left,1990,1,1,1205
Ga6cfLKL,NA,NA,Ga6cfLKL,2020-0188,2021-09-19,10:27:03,11:31:43,NA,incomplete,false,NA,true,5,4,NA,right,E11_Q2_ansR.png,E11_Q4_ansL.png,within,NA,NaN,NA,right,1277,1,1,850.9999999997672
Ga6cfLKL,NA,NA,Ga6cfLKL,2020-0188,2021-09-19,10:27:03,11:31:43,NA,incomplete,false,NA,true,5,5,NA,left,E11_Q5_ansL.png,E19_Q1_ansL.png,between,NA,NaN,NA,left,1952,1,1,868
Ga6cfLKL,NA,NA,Ga6cfLKL,2020-0188,2021-09-19,10:27:03,11:31:43,NA,incomplete,false,NA,true,5,6,NA,right,E19_Q7_ansL.png,E11_Q6_ansL.png,between,NA,NaN,NA,right,1807,1,1,1406
Ga6cfLKL,NA,NA,Ga6cfLKL,2020-0188,2021-09-19,10:27:03,11:31:43,NA,incomplete,false,NA,true,5,7,NA,left,E7_Q5_ansR.png,E7_Q9_ansR.png,within,NA,NaN,NA,right,1885,0,1,1025
Ga6cfLKL,NA,NA,Ga6cfLKL,2020-0188,2021-09-19,10:27:03,11:31:43,NA,incomplete,false,NA,true,5,8,NA,left,E11_Q1_ansR.png,E11_Q9_ansL.png,within,NA,NaN,NA,right,2434,0,1,1552
Ga6cfLKL,NA,NA,Ga6cfLKL,2020-0188,2021-09-19,10:27:03,11:31:43,NA,incomplete,false,NA,true,5,9,NA,right,E7_Q10_ansR.png,E7_Q7_ansL.png,within,NA,NaN,NA,right,1691,1,1,1040
Ga6cfLKL,NA,NA,Ga6cfLKL,2020-0188,2021-09-19,10:27:03,11:31:43,NA,incomplete,false,NA,true,5,10,NA,right,E7_Q7_ansL.png,E7_Q8_ansL.png,within,NA,NaN,NA,right,821,1,1,1063
Ga6cfLKL,NA,NA,Ga6cfLKL,2020-0188,2021-09-19,10:27:03,11:31:43,NA,incomplete,false,NA,true,5,11,NA,left,E19_Q6_ansR.png,E19_Q5_ansR.png,within,NA,NaN,NA,left,1660,1,1,1328
Ga6cfLKL,NA,NA,Ga6cfLKL,2020-0188,2021-09-19,10:27:03,11:31:43,NA,incomplete,false,NA,true,5,12,NA,right,E11_Q5_ansL.png,E11_Q7_ansR.png,within,NA,NaN,NA,left,675,0,1,1848
Ga6cfLKL,NA,NA,Ga6cfLKL,2020-0188,2021-09-19,10:27:03,11:31:43,NA,incomplete,false,NA,true,5,13,NA,right,E19_Q8_ansL.png,E19_Q1_ansL.png,within,NA,NaN,NA,left,3442.000000000233,0,1,1140
Ga6cfLKL,NA,NA,Ga6cfLKL,2020-0188,2021-09-19,10:27:03,11:31:43,NA,incomplete,false,NA,true,5,14,NA,left,E7_Q6_ansR.png,E11_Q4_ansL.png,between,NA,NaN,NA,right,781,0,1,1367.9999999997672
Ga6cfLKL,NA,NA,Ga6cfLKL,2020-0188,2021-09-19,10:27:03,11:31:43,NA,incomplete,false,NA,true,5,15,NA,left,E19_Q8_ansL.png,E19_Q10_ansL.png,within,NA,NaN,NA,left,4498,1,1,834.0000000002328
Ga6cfLKL,NA,NA,Ga6cfLKL,2020-0188,2021-09-19,10:27:03,11:31:43,NA,incomplete,false,NA,true,5,16,NA,right,E19_Q3_ansR.png,E19_Q2_ansL.png,within,NA,NaN,NA,right,1317,1,1,750
Ga6cfLKL,NA,NA,Ga6cfLKL,2020-0188,2021-09-19,10:27:03,11:31:43,NA,incomplete,false,NA,true,5,17,NA,left,E7_Q2_ansL.png,E11_Q10_ansR.png,between,NA,NaN,NA,left,1252,1,1,982
Ga6cfLKL,NA,NA,Ga6cfLKL,2020-0188,2021-09-19,10:27:03,11:31:43,NA,incomplete,false,NA,true,5,18,NA,left,E7_Q3_ansR.png,E7_Q6_ansR.png,within,NA,NaN,NA,right,1186,0,1,821.9999999997672
Ga6cfLKL,NA,NA,Ga6cfLKL,2020-0188,2021-09-19,10:27:03,11:31:43,NA,incomplete,false,NA,true,5,19,NA,right,E11_Q1_ansR.png,E11_Q10_ansR.png,within,NA,NaN,NA,right,6247,1,1,872
Ga6cfLKL,NA,NA,Ga6cfLKL,2020-0188,2021-09-19,10:27:03,11:31:43,NA,incomplete,false,NA,true,5,20,NA,right,E11_Q6_ansL.png,E11_Q8_ansR.png,within,NA,NaN,NA,right,1385.9999999997672,1,1,899
Ga6cfLKL,NA,NA,Ga6cfLKL,2020-0188,2021-09-19,10:27:03,11:31:43,NA,incomplete,false,NA,true,5,21,NA,right,E11_Q3_ansL.png,E7_Q9_ansR.png,between,NA,NaN,NA,right,1285,1,1,740
Ga6cfLKL,NA,NA,Ga6cfLKL,2020-0188,2021-09-19,10:27:03,11:31:43,NA,incomplete,false,NA,true,5,22,NA,left,E19_Q4_ansR.png,E19_Q6_ansR.png,within,NA,NaN,NA,right,2004,0,1,1138.9999999997672
Ga6cfLKL,NA,NA,Ga6cfLKL,2020-0188,2021-09-19,10:27:03,11:31:43,NA,incomplete,false,NA,true,5,23,NA,left,E7_Q10_ansR.png,E7_Q2_ansL.png,within,NA,NaN,NA,right,1541.0000000002328,0,1,923
Ga6cfLKL,NA,NA,Ga6cfLKL,2020-0188,2021-09-19,10:27:03,11:31:43,NA,incomplete,false,NA,true,5,24,NA,left,E7_Q4_ansR.png,E7_Q3_ansR.png,within,NA,NaN,NA,right,1056,0,1,939.0000000002328
Ga6cfLKL,NA,NA,Ga6cfLKL,2020-0188,2021-09-19,10:27:03,11:31:43,NA,incomplete,false,NA,true,5,25,NA,right,E19_Q2_ansL.png,E11_Q9_ansL.png,between,NA,NaN,NA,right,2542.999999999767,1,1,915
Ga6cfLKL,NA,NA,Ga6cfLKL,2020-0188,2021-09-19,10:27:03,11:31:43,NA,incomplete,false,NA,true,5,26,NA,right,E19_Q4_ansR.png,E19_Q7_ansL.png,within,NA,NaN,NA,right,1533,1,1,963
Ga6cfLKL,NA,NA,Ga6cfLKL,2020-0188,2021-09-19,10:27:03,11:31:43,NA,incomplete,false,true,NA,6,0,E31_Q3_ansL.png,left,NA,NA,NA,left,1931.00000000023,true,NA,NA,NA,NA,NA
Ga6cfLKL,NA,NA,Ga6cfLKL,2020-0188,2021-09-19,10:27:03,11:31:43,NA,incomplete,false,true,NA,6,1,E31_Q2_ansR.png,right,NA,NA,NA,right,1203.99999999977,true,NA,NA,NA,NA,NA
Ga6cfLKL,NA,NA,Ga6cfLKL,2020-0188,2021-09-19,10:27:03,11:31:43,NA,incomplete,false,true,NA,6,2,E31_Q8_ansR.png,right,NA,NA,NA,right,1067,true,NA,NA,NA,NA,NA
Ga6cfLKL,NA,NA,Ga6cfLKL,2020-0188,2021-09-19,10:27:03,11:31:43,NA,incomplete,false,true,NA,6,3,E31_Q9_ansL.png,left,NA,NA,NA,left,1218.99999999953,true,NA,NA,NA,NA,NA
Ga6cfLKL,NA,NA,Ga6cfLKL,2020-0188,2021-09-19,10:27:03,11:31:43,NA,incomplete,false,true,NA,6,4,E31_Q4_ansL.png,left,NA,NA,NA,left,1683,true,NA,NA,NA,NA,NA
Ga6cfLKL,NA,NA,Ga6cfLKL,2020-0188,2021-09-19,10:27:03,11:31:43,NA,incomplete,false,true,NA,6,5,E31_Q5_ansL.png,left,NA,NA,NA,left,1245,true,NA,NA,NA,NA,NA
Ga6cfLKL,NA,NA,Ga6cfLKL,2020-0188,2021-09-19,10:27:03,11:31:43,NA,incomplete,false,true,NA,6,6,E31_Q6_ansL.png,left,NA,NA,NA,left,1123,true,NA,NA,NA,NA,NA
Ga6cfLKL,NA,NA,Ga6cfLKL,2020-0188,2021-09-19,10:27:03,11:31:43,NA,incomplete,false,true,NA,6,7,E31_Q1_ansR.png,right,NA,NA,NA,right,1081.00000000023,true,NA,NA,NA,NA,NA
Ga6cfLKL,NA,NA,Ga6cfLKL,2020-0188,2021-09-19,10:27:03,11:31:43,NA,incomplete,false,true,NA,6,8,E31_Q7_ansR.png,right,NA,NA,NA,right,1837,true,NA,NA,NA,NA,NA
Ga6cfLKL,NA,NA,Ga6cfLKL,2020-0188,2021-09-19,10:27:03,11:31:43,NA,incomplete,false,true,NA,6,9,E31_Q10_ansR.png,right,NA,NA,NA,right,1607,true,NA,NA,NA,NA,NA
Ga6cfLKL,NA,NA,Ga6cfLKL,2020-0188,2021-09-19,10:27:03,11:31:43,NA,incomplete,false,true,NA,6,10,E4_Q2_ansL.png,left,NA,NA,NA,left,2522.99999999953,true,NA,NA,NA,NA,NA
Ga6cfLKL,NA,NA,Ga6cfLKL,2020-0188,2021-09-19,10:27:03,11:31:43,NA,incomplete,false,true,NA,6,11,E4_Q6_ansR.png,right,NA,NA,NA,right,1288.00000000047,true,NA,NA,NA,NA,NA
Ga6cfLKL,NA,NA,Ga6cfLKL,2020-0188,2021-09-19,10:27:03,11:31:43,NA,incomplete,false,true,NA,6,12,E4_Q4_ansL.png,left,NA,NA,NA,left,1705,true,NA,NA,NA,NA,NA
Ga6cfLKL,NA,NA,Ga6cfLKL,2020-0188,2021-09-19,10:27:03,11:31:43,NA,incomplete,false,true,NA,6,13,E4_Q8_ansR.png,right,NA,NA,NA,right,2141,true,NA,NA,NA,NA,NA
Ga6cfLKL,NA,NA,Ga6cfLKL,2020-0188,2021-09-19,10:27:03,11:31:43,NA,incomplete,false,true,NA,6,14,E4_Q5_ansR.png,right,NA,NA,NA,right,1908,true,NA,NA,NA,NA,NA
Ga6cfLKL,NA,NA,Ga6cfLKL,2020-0188,2021-09-19,10:27:03,11:31:43,NA,incomplete,false,true,NA,6,15,E4_Q3_ansL.png,left,NA,NA,NA,left,2035,true,NA,NA,NA,NA,NA
Ga6cfLKL,NA,NA,Ga6cfLKL,2020-0188,2021-09-19,10:27:03,11:31:43,NA,incomplete,false,true,NA,6,16,E4_Q10_ansR.png,right,NA,NA,NA,right,2175,true,NA,NA,NA,NA,NA
Ga6cfLKL,NA,NA,Ga6cfLKL,2020-0188,2021-09-19,10:27:03,11:31:43,NA,incomplete,false,true,NA,6,17,E4_Q7_ansR.png,right,NA,NA,NA,right,2460,true,NA,NA,NA,NA,NA
Ga6cfLKL,NA,NA,Ga6cfLKL,2020-0188,2021-09-19,10:27:03,11:31:43,NA,incomplete,false,true,NA,6,18,E4_Q9_ansL.png,left,NA,NA,NA,left,1797,true,NA,NA,NA,NA,NA
Ga6cfLKL,NA,NA,Ga6cfLKL,2020-0188,2021-09-19,10:27:03,11:31:43,NA,incomplete,false,true,NA,6,19,E4_Q1_ansL.png,left,NA,NA,NA,left,1448,true,NA,NA,NA,NA,NA
Ga6cfLKL,NA,NA,Ga6cfLKL,2020-0188,2021-09-19,10:27:03,11:31:43,NA,incomplete,false,true,NA,6,20,E16_Q9_ansL.png,left,NA,NA,NA,left,1311.99999999953,true,NA,NA,NA,NA,NA
Ga6cfLKL,NA,NA,Ga6cfLKL,2020-0188,2021-09-19,10:27:03,11:31:43,NA,incomplete,false,true,NA,6,21,E16_Q3_ansL.png,left,NA,NA,NA,left,2515.99999999953,true,NA,NA,NA,NA,NA
Ga6cfLKL,NA,NA,Ga6cfLKL,2020-0188,2021-09-19,10:27:03,11:31:43,NA,incomplete,false,true,NA,6,22,E16_Q1_ansR.png,right,NA,NA,NA,none,0,false,NA,NA,NA,NA,NA
Ga6cfLKL,NA,NA,Ga6cfLKL,2020-0188,2021-09-19,10:27:03,11:31:43,NA,incomplete,false,true,NA,6,23,E16_Q10_ansR.png,right,NA,NA,NA,right,1466,true,NA,NA,NA,NA,NA
Ga6cfLKL,NA,NA,Ga6cfLKL,2020-0188,2021-09-19,10:27:03,11:31:43,NA,incomplete,false,true,NA,6,24,E16_Q5_ansL.png,left,NA,NA,NA,left,1099,true,NA,NA,NA,NA,NA
Ga6cfLKL,NA,NA,Ga6cfLKL,2020-0188,2021-09-19,10:27:03,11:31:43,NA,incomplete,false,true,NA,6,25,E16_Q2_ansR.png,right,NA,NA,NA,right,1327,true,NA,NA,NA,NA,NA
Ga6cfLKL,NA,NA,Ga6cfLKL,2020-0188,2021-09-19,10:27:03,11:31:43,NA,incomplete,false,true,NA,6,26,E16_Q7_ansR.png,right,NA,NA,NA,right,1124,true,NA,NA,NA,NA,NA
Ga6cfLKL,NA,NA,Ga6cfLKL,2020-0188,2021-09-19,10:27:03,11:31:43,NA,incomplete,false,true,NA,6,27,E16_Q4_ansL.png,left,NA,NA,NA,left,1424,true,NA,NA,NA,NA,NA
Ga6cfLKL,NA,NA,Ga6cfLKL,2020-0188,2021-09-19,10:27:03,11:31:43,NA,incomplete,false,true,NA,6,28,E16_Q8_ansR.png,right,NA,NA,NA,right,1417,true,NA,NA,NA,NA,NA
Ga6cfLKL,NA,NA,Ga6cfLKL,2020-0188,2021-09-19,10:27:03,11:31:43,NA,incomplete,false,true,NA,6,29,E16_Q6_ansL.png,left,NA,NA,NA,left,1132.99999999953,true,NA,NA,NA,NA,NA
Ga6cfLKL,NA,NA,Ga6cfLKL,2020-0188,2021-09-19,10:27:03,11:31:43,NA,incomplete,false,NA,true,6,0,NA,left,E4_Q4_ansL.png,E4_Q3_ansL.png,within,NA,NaN,NA,left,16028,1,1,4381
Ga6cfLKL,NA,NA,Ga6cfLKL,2020-0188,2021-09-19,10:27:03,11:31:43,NA,incomplete,false,NA,true,6,1,NA,right,E31_Q7_ansR.png,E31_Q5_ansL.png,within,NA,NaN,NA,left,4167,0,1,800
Ga6cfLKL,NA,NA,Ga6cfLKL,2020-0188,2021-09-19,10:27:03,11:31:43,NA,incomplete,false,NA,true,6,2,NA,left,E31_Q2_ansR.png,E31_Q4_ansL.png,within,NA,NaN,NA,left,2585,1,1,852
Ga6cfLKL,NA,NA,Ga6cfLKL,2020-0188,2021-09-19,10:27:03,11:31:43,NA,incomplete,false,NA,true,6,3,NA,left,E4_Q10_ansR.png,E4_Q1_ansL.png,within,NA,NaN,NA,right,1353,0,1,966
Ga6cfLKL,NA,NA,Ga6cfLKL,2020-0188,2021-09-19,10:27:03,11:31:43,NA,incomplete,false,NA,true,6,4,NA,right,E16_Q6_ansL.png,E16_Q7_ansR.png,within,NA,NaN,NA,right,10750,1,1,1202
Ga6cfLKL,NA,NA,Ga6cfLKL,2020-0188,2021-09-19,10:27:03,11:31:43,NA,incomplete,false,NA,true,6,5,NA,left,E16_Q3_ansL.png,E16_Q5_ansL.png,within,NA,NaN,NA,left,1748,1,1,1156
Ga6cfLKL,NA,NA,Ga6cfLKL,2020-0188,2021-09-19,10:27:03,11:31:43,NA,incomplete,false,NA,true,6,6,NA,left,E31_Q6_ansL.png,E31_Q10_ansR.png,within,NA,NaN,NA,left,2633,1,1,1211
Ga6cfLKL,NA,NA,Ga6cfLKL,2020-0188,2021-09-19,10:27:03,11:31:43,NA,incomplete,false,NA,true,6,7,NA,left,E4_Q6_ansR.png,E4_Q5_ansR.png,within,NA,NaN,NA,right,2881,0,1,1054
Ga6cfLKL,NA,NA,Ga6cfLKL,2020-0188,2021-09-19,10:27:03,11:31:43,NA,incomplete,false,NA,true,6,8,NA,left,E4_Q2_ansL.png,E4_Q8_ansR.png,within,NA,NaN,NA,left,2162,1,1,1056
Ga6cfLKL,NA,NA,Ga6cfLKL,2020-0188,2021-09-19,10:27:03,11:31:43,NA,incomplete,false,NA,true,6,9,NA,left,E31_Q10_ansR.png,E4_Q4_ansL.png,between,NA,NaN,NA,left,1650,1,1,757.0000000004657
Ga6cfLKL,NA,NA,Ga6cfLKL,2020-0188,2021-09-19,10:27:03,11:31:43,NA,incomplete,false,NA,true,6,10,NA,right,E31_Q5_ansL.png,E31_Q8_ansR.png,within,NA,NaN,NA,right,1436,1,1,806
Ga6cfLKL,NA,NA,Ga6cfLKL,2020-0188,2021-09-19,10:27:03,11:31:43,NA,incomplete,false,NA,true,6,11,NA,left,E31_Q3_ansL.png,E31_Q9_ansL.png,within,NA,NaN,NA,left,1343,1,1,1124
Ga6cfLKL,NA,NA,Ga6cfLKL,2020-0188,2021-09-19,10:27:03,11:31:43,NA,incomplete,false,NA,true,6,12,NA,left,E31_Q7_ansR.png,E4_Q6_ansR.png,between,NA,NaN,NA,left,1399.9999999995343,1,1,1476
Ga6cfLKL,NA,NA,Ga6cfLKL,2020-0188,2021-09-19,10:27:03,11:31:43,NA,incomplete,false,NA,true,6,13,NA,left,E4_Q8_ansR.png,E4_Q10_ansR.png,within,NA,NaN,NA,left,1732,1,1,7148
Ga6cfLKL,NA,NA,Ga6cfLKL,2020-0188,2021-09-19,10:27:03,11:31:43,NA,incomplete,false,NA,true,6,14,NA,left,E16_Q2_ansR.png,E16_Q8_ansR.png,within,NA,NaN,NA,right,2594,0,1,3079
Ga6cfLKL,NA,NA,Ga6cfLKL,2020-0188,2021-09-19,10:27:03,11:31:43,NA,incomplete,false,NA,true,6,15,NA,right,E16_Q2_ansR.png,E16_Q1_ansR.png,within,NA,NaN,NA,right,2286.0000000004657,1,1,1501.0000000004657
Ga6cfLKL,NA,NA,Ga6cfLKL,2020-0188,2021-09-19,10:27:03,11:31:43,NA,incomplete,false,NA,true,6,16,NA,right,E4_Q9_ansL.png,E4_Q3_ansL.png,within,NA,NaN,NA,left,4053.0000000004657,0,1,996
Ga6cfLKL,NA,NA,Ga6cfLKL,2020-0188,2021-09-19,10:27:03,11:31:43,NA,incomplete,false,NA,true,6,17,NA,left,E16_Q9_ansL.png,E16_Q10_ansR.png,within,NA,NaN,NA,right,3369,0,1,1115
Ga6cfLKL,NA,NA,Ga6cfLKL,2020-0188,2021-09-19,10:27:03,11:31:43,NA,incomplete,false,NA,true,6,18,NA,right,E4_Q2_ansL.png,E31_Q1_ansR.png,between,NA,NaN,NA,left,1441,0,1,1471.9999999995343
Ga6cfLKL,NA,NA,Ga6cfLKL,2020-0188,2021-09-19,10:27:03,11:31:43,NA,incomplete,false,NA,true,6,19,NA,right,E16_Q1_ansR.png,E4_Q1_ansL.png,between,NA,NaN,NA,right,1418,1,1,831
Ga6cfLKL,NA,NA,Ga6cfLKL,2020-0188,2021-09-19,10:27:03,11:31:43,NA,incomplete,false,NA,true,6,20,NA,right,E16_Q7_ansR.png,E16_Q10_ansR.png,within,NA,NaN,NA,left,1523,0,1,1898
Ga6cfLKL,NA,NA,Ga6cfLKL,2020-0188,2021-09-19,10:27:03,11:31:43,NA,incomplete,false,NA,true,6,21,NA,left,E4_Q9_ansL.png,E16_Q3_ansL.png,between,NA,NaN,NA,left,1335,1,1,1841
Ga6cfLKL,NA,NA,Ga6cfLKL,2020-0188,2021-09-19,10:27:03,11:31:43,NA,incomplete,false,NA,true,6,22,NA,right,E16_Q4_ansL.png,E16_Q5_ansL.png,within,NA,NaN,NA,left,1036,0,1,963
Ga6cfLKL,NA,NA,Ga6cfLKL,2020-0188,2021-09-19,10:27:03,11:31:43,NA,incomplete,false,NA,true,6,23,NA,left,E31_Q9_ansL.png,E31_Q6_ansL.png,within,NA,NaN,NA,left,1335,1,1,2120
Ga6cfLKL,NA,NA,Ga6cfLKL,2020-0188,2021-09-19,10:27:03,11:31:43,NA,incomplete,false,NA,true,6,24,NA,left,E4_Q5_ansR.png,E4_Q7_ansR.png,within,NA,NaN,NA,right,1409,0,1,3538
Ga6cfLKL,NA,NA,Ga6cfLKL,2020-0188,2021-09-19,10:27:03,11:31:43,NA,incomplete,false,NA,true,6,25,NA,right,E16_Q9_ansL.png,E4_Q7_ansR.png,between,NA,NaN,NA,right,3741,1,1,822
Ga6cfLKL,NA,NA,Ga6cfLKL,2020-0188,2021-09-19,10:27:03,11:31:43,NA,incomplete,false,NA,true,6,26,NA,left,E31_Q4_ansL.png,E31_Q1_ansR.png,within,NA,NaN,NA,right,1114,0,1,1285
Ga6cfLKL,NA,NA,Ga6cfLKL,2020-0188,2021-09-19,10:27:03,11:31:43,NA,incomplete,false,true,NA,7,0,E12_Q5_ansR.png,right,NA,NA,NA,right,2017.99999999953,true,NA,NA,NA,NA,NA
Ga6cfLKL,NA,NA,Ga6cfLKL,2020-0188,2021-09-19,10:27:03,11:31:43,NA,incomplete,false,true,NA,7,1,E12_Q10_ansL.png,left,NA,NA,NA,left,2527,true,NA,NA,NA,NA,NA
Ga6cfLKL,NA,NA,Ga6cfLKL,2020-0188,2021-09-19,10:27:03,11:31:43,NA,incomplete,false,true,NA,7,2,E12_Q8_ansL.png,left,NA,NA,NA,left,2510,true,NA,NA,NA,NA,NA
Ga6cfLKL,NA,NA,Ga6cfLKL,2020-0188,2021-09-19,10:27:03,11:31:43,NA,incomplete,false,true,NA,7,3,E12_Q3_ansR.png,right,NA,NA,NA,right,1941,true,NA,NA,NA,NA,NA
Ga6cfLKL,NA,NA,Ga6cfLKL,2020-0188,2021-09-19,10:27:03,11:31:43,NA,incomplete,false,true,NA,7,4,E12_Q4_ansR.png,right,NA,NA,NA,right,1468,true,NA,NA,NA,NA,NA
Ga6cfLKL,NA,NA,Ga6cfLKL,2020-0188,2021-09-19,10:27:03,11:31:43,NA,incomplete,false,true,NA,7,5,E12_Q9_ansR.png,right,NA,NA,NA,none,0,false,NA,NA,NA,NA,NA
Ga6cfLKL,NA,NA,Ga6cfLKL,2020-0188,2021-09-19,10:27:03,11:31:43,NA,incomplete,false,true,NA,7,6,E12_Q6_ansR.png,right,NA,NA,NA,right,1019,true,NA,NA,NA,NA,NA
Ga6cfLKL,NA,NA,Ga6cfLKL,2020-0188,2021-09-19,10:27:03,11:31:43,NA,incomplete,false,true,NA,7,7,E12_Q7_ansL.png,left,NA,NA,NA,left,3192,true,NA,NA,NA,NA,NA
Ga6cfLKL,NA,NA,Ga6cfLKL,2020-0188,2021-09-19,10:27:03,11:31:43,NA,incomplete,false,true,NA,7,8,E12_Q2_ansL.png,left,NA,NA,NA,right,1521,false,NA,NA,NA,NA,NA
Ga6cfLKL,NA,NA,Ga6cfLKL,2020-0188,2021-09-19,10:27:03,11:31:43,NA,incomplete,false,true,NA,7,9,E12_Q1_ansL.png,left,NA,NA,NA,none,0,false,NA,NA,NA,NA,NA
Ga6cfLKL,NA,NA,Ga6cfLKL,2020-0188,2021-09-19,10:27:03,11:31:43,NA,incomplete,false,true,NA,7,10,E32_Q10_ansL.png,left,NA,NA,NA,none,0,false,NA,NA,NA,NA,NA
Ga6cfLKL,NA,NA,Ga6cfLKL,2020-0188,2021-09-19,10:27:03,11:31:43,NA,incomplete,false,true,NA,7,11,E32_Q5_ansR.png,right,NA,NA,NA,right,1847,true,NA,NA,NA,NA,NA
Ga6cfLKL,NA,NA,Ga6cfLKL,2020-0188,2021-09-19,10:27:03,11:31:43,NA,incomplete,false,true,NA,7,12,E32_Q8_ansL.png,left,NA,NA,NA,left,1766,true,NA,NA,NA,NA,NA
Ga6cfLKL,NA,NA,Ga6cfLKL,2020-0188,2021-09-19,10:27:03,11:31:43,NA,incomplete,false,true,NA,7,13,E32_Q4_ansR.png,right,NA,NA,NA,none,0,false,NA,NA,NA,NA,NA
Ga6cfLKL,NA,NA,Ga6cfLKL,2020-0188,2021-09-19,10:27:03,11:31:43,NA,incomplete,false,true,NA,7,14,E32_Q3_ansR.png,right,NA,NA,NA,none,0,false,NA,NA,NA,NA,NA
Ga6cfLKL,NA,NA,Ga6cfLKL,2020-0188,2021-09-19,10:27:03,11:31:43,NA,incomplete,false,true,NA,7,15,E32_Q6_ansR.png,right,NA,NA,NA,none,0,false,NA,NA,NA,NA,NA
Ga6cfLKL,NA,NA,Ga6cfLKL,2020-0188,2021-09-19,10:27:03,11:31:43,NA,incomplete,false,true,NA,7,16,E32_Q9_ansR.png,right,NA,NA,NA,none,0,false,NA,NA,NA,NA,NA
Ga6cfLKL,NA,NA,Ga6cfLKL,2020-0188,2021-09-19,10:27:03,11:31:43,NA,incomplete,false,true,NA,7,17,E32_Q2_ansL.png,left,NA,NA,NA,none,0,false,NA,NA,NA,NA,NA
Ga6cfLKL,NA,NA,Ga6cfLKL,2020-0188,2021-09-19,10:27:03,11:31:43,NA,incomplete,false,true,NA,7,18,E32_Q1_ansL.png,left,NA,NA,NA,none,0,false,NA,NA,NA,NA,NA
Ga6cfLKL,NA,NA,Ga6cfLKL,2020-0188,2021-09-19,10:27:03,11:31:43,NA,incomplete,false,true,NA,7,19,E32_Q7_ansL.png,left,NA,NA,NA,none,0,false,NA,NA,NA,NA,NA
Ga6cfLKL,NA,NA,Ga6cfLKL,2020-0188,2021-09-19,10:27:03,11:31:43,NA,incomplete,false,true,NA,7,20,E22_Q1_ansR.png,right,NA,NA,NA,none,0,false,NA,NA,NA,NA,NA
Ga6cfLKL,NA,NA,Ga6cfLKL,2020-0188,2021-09-19,10:27:03,11:31:43,NA,incomplete,false,true,NA,7,21,E22_Q8_ansR.png,right,NA,NA,NA,none,0,false,NA,NA,NA,NA,NA
Ga6cfLKL,NA,NA,Ga6cfLKL,2020-0188,2021-09-19,10:27:03,11:31:43,NA,incomplete,false,true,NA,7,22,E22_Q10_ansR.png,right,NA,NA,NA,none,0,false,NA,NA,NA,NA,NA
Ga6cfLKL,NA,NA,Ga6cfLKL,2020-0188,2021-09-19,10:27:03,11:31:43,NA,incomplete,false,true,NA,7,23,E22_Q9_ansL.png,left,NA,NA,NA,none,0,false,NA,NA,NA,NA,NA
Ga6cfLKL,NA,NA,Ga6cfLKL,2020-0188,2021-09-19,10:27:03,11:31:43,NA,incomplete,false,true,NA,7,24,E22_Q5_ansL.png,left,NA,NA,NA,none,0,false,NA,NA,NA,NA,NA
Ga6cfLKL,NA,NA,Ga6cfLKL,2020-0188,2021-09-19,10:27:03,11:31:43,NA,incomplete,false,true,NA,7,25,E22_Q3_ansL.png,left,NA,NA,NA,left,3274,true,NA,NA,NA,NA,NA
Ga6cfLKL,NA,NA,Ga6cfLKL,2020-0188,2021-09-19,10:27:03,11:31:43,NA,incomplete,false,true,NA,7,26,E22_Q4_ansL.png,left,NA,NA,NA,left,965,true,NA,NA,NA,NA,NA
Ga6cfLKL,NA,NA,Ga6cfLKL,2020-0188,2021-09-19,10:27:03,11:31:43,NA,incomplete,false,true,NA,7,27,E22_Q2_ansR.png,right,NA,NA,NA,right,1890,true,NA,NA,NA,NA,NA
Ga6cfLKL,NA,NA,Ga6cfLKL,2020-0188,2021-09-19,10:27:03,11:31:43,NA,incomplete,false,true,NA,7,28,E22_Q7_ansR.png,right,NA,NA,NA,right,1160,true,NA,NA,NA,NA,NA
Ga6cfLKL,NA,NA,Ga6cfLKL,2020-0188,2021-09-19,10:27:03,11:31:43,NA,incomplete,false,true,NA,7,29,E22_Q6_ansL.png,left,NA,NA,NA,left,1257,true,NA,NA,NA,NA,NA
Ga6cfLKL,NA,NA,Ga6cfLKL,2020-0188,2021-09-19,10:27:03,11:31:43,NA,incomplete,false,NA,true,7,0,NA,left,E32_Q5_ansR.png,E32_Q3_ansR.png,within,NA,NaN,NA,left,3300,1,1,992
Ga6cfLKL,NA,NA,Ga6cfLKL,2020-0188,2021-09-19,10:27:03,11:31:43,NA,incomplete,false,NA,true,7,1,NA,left,E32_Q8_ansL.png,E32_Q6_ansR.png,within,NA,NaN,NA,right,2721,0,1,1092
Ga6cfLKL,NA,NA,Ga6cfLKL,2020-0188,2021-09-19,10:27:03,11:31:43,NA,incomplete,false,NA,true,7,2,NA,right,E22_Q7_ansR.png,E22_Q3_ansL.png,within,NA,NaN,NA,right,19709,1,1,10474
Ga6cfLKL,NA,NA,Ga6cfLKL,2020-0188,2021-09-19,10:27:03,11:31:43,NA,incomplete,false,NA,true,7,3,NA,right,E32_Q1_ansL.png,E32_Q6_ansR.png,within,NA,NaN,NA,left,856,0,1,931
Ga6cfLKL,NA,NA,Ga6cfLKL,2020-0188,2021-09-19,10:27:03,11:31:43,NA,incomplete,false,NA,true,7,4,NA,right,E22_Q10_ansR.png,E32_Q7_ansL.png,between,NA,NaN,NA,right,461,1,1,716
Ga6cfLKL,NA,NA,Ga6cfLKL,2020-0188,2021-09-19,10:27:03,11:31:43,NA,incomplete,false,NA,true,7,5,NA,right,E32_Q5_ansR.png,E12_Q2_ansL.png,between,NA,NaN,NA,right,1435.0000000004657,1,1,939
Ga6cfLKL,NA,NA,Ga6cfLKL,2020-0188,2021-09-19,10:27:03,11:31:43,NA,incomplete,false,NA,true,7,6,NA,right,E12_Q7_ansL.png,E12_Q4_ansR.png,within,NA,NaN,NA,left,815,0,1,905
Ga6cfLKL,NA,NA,Ga6cfLKL,2020-0188,2021-09-19,10:27:03,11:31:43,NA,incomplete,false,NA,true,7,7,NA,left,E12_Q8_ansL.png,E12_Q9_ansR.png,within,NA,NaN,NA,right,450.00000000046566,0,1,848
Ga6cfLKL,NA,NA,Ga6cfLKL,2020-0188,2021-09-19,10:27:03,11:31:43,NA,incomplete,false,NA,true,7,8,NA,right,E32_Q8_ansL.png,E12_Q1_ansL.png,between,NA,NaN,NA,right,1227,1,1,863
Ga6cfLKL,NA,NA,Ga6cfLKL,2020-0188,2021-09-19,10:27:03,11:31:43,NA,incomplete,false,NA,true,7,9,NA,right,E22_Q6_ansL.png,E22_Q4_ansL.png,within,NA,NaN,NA,left,535.0000000004657,0,1,883
Ga6cfLKL,NA,NA,Ga6cfLKL,2020-0188,2021-09-19,10:27:03,11:31:43,NA,incomplete,false,NA,true,7,10,NA,right,E12_Q1_ansL.png,E12_Q6_ansR.png,within,NA,NaN,NA,left,750,0,1,916.0000000004657
Ga6cfLKL,NA,NA,Ga6cfLKL,2020-0188,2021-09-19,10:27:03,11:31:43,NA,incomplete,false,NA,true,7,11,NA,left,E22_Q10_ansR.png,E22_Q3_ansL.png,within,NA,NaN,NA,right,483,0,1,980
Ga6cfLKL,NA,NA,Ga6cfLKL,2020-0188,2021-09-19,10:27:03,11:31:43,NA,incomplete,false,NA,true,7,12,NA,left,E32_Q2_ansL.png,E22_Q1_ansR.png,between,NA,NaN,NA,right,3027,0,1,891
Ga6cfLKL,NA,NA,Ga6cfLKL,2020-0188,2021-09-19,10:27:03,11:31:43,NA,incomplete,false,NA,true,7,13,NA,right,E32_Q7_ansL.png,E32_Q9_ansR.png,within,NA,NaN,NA,right,691,1,1,1642
Ga6cfLKL,NA,NA,Ga6cfLKL,2020-0188,2021-09-19,10:27:03,11:31:43,NA,incomplete,false,NA,true,7,14,NA,right,E12_Q2_ansL.png,E12_Q9_ansR.png,within,NA,NaN,NA,right,1995,1,1,806.9999999995343
Ga6cfLKL,NA,NA,Ga6cfLKL,2020-0188,2021-09-19,10:27:03,11:31:43,NA,incomplete,false,NA,true,7,15,NA,right,E22_Q8_ansR.png,E32_Q1_ansL.png,between,NA,NaN,NA,left,734,0,1,1008
Ga6cfLKL,NA,NA,Ga6cfLKL,2020-0188,2021-09-19,10:27:03,11:31:43,NA,incomplete,false,NA,true,7,16,NA,right,E22_Q2_ansR.png,E22_Q5_ansL.png,within,NA,NaN,NA,right,501.99999999953434,1,1,949
Ga6cfLKL,NA,NA,Ga6cfLKL,2020-0188,2021-09-19,10:27:03,11:31:43,NA,incomplete,false,NA,true,7,17,NA,right,E12_Q4_ansR.png,E12_Q10_ansL.png,within,NA,NaN,NA,right,841,1,1,827.0000000004657
Ga6cfLKL,NA,NA,Ga6cfLKL,2020-0188,2021-09-19,10:27:03,11:31:43,NA,incomplete,false,NA,true,7,18,NA,right,E22_Q9_ansL.png,E22_Q1_ansR.png,within,NA,NaN,NA,left,938,0,1,723
Ga6cfLKL,NA,NA,Ga6cfLKL,2020-0188,2021-09-19,10:27:03,11:31:43,NA,incomplete,false,NA,true,7,19,NA,right,E32_Q9_ansR.png,E32_Q4_ansR.png,within,NA,NaN,NA,left,876.9999999995343,0,1,990
Ga6cfLKL,NA,NA,Ga6cfLKL,2020-0188,2021-09-19,10:27:03,11:31:43,NA,incomplete,false,NA,true,7,20,NA,right,E12_Q6_ansR.png,E12_Q3_ansR.png,within,NA,NaN,NA,right,796,1,1,1061
Ga6cfLKL,NA,NA,Ga6cfLKL,2020-0188,2021-09-19,10:27:03,11:31:43,NA,incomplete,false,NA,true,7,21,NA,right,E22_Q4_ansL.png,E22_Q9_ansL.png,within,NA,NaN,NA,left,564,0,1,890
Ga6cfLKL,NA,NA,Ga6cfLKL,2020-0188,2021-09-19,10:27:03,11:31:43,NA,incomplete,false,NA,true,7,22,NA,right,E12_Q3_ansR.png,E12_Q5_ansR.png,within,NA,NaN,NA,right,516,1,1,2591
Ga6cfLKL,NA,NA,Ga6cfLKL,2020-0188,2021-09-19,10:27:03,11:31:43,NA,incomplete,false,NA,true,7,23,NA,right,E32_Q2_ansL.png,E32_Q3_ansR.png,within,NA,NaN,NA,right,1673,1,1,915.9999999995343
Ga6cfLKL,NA,NA,Ga6cfLKL,2020-0188,2021-09-19,10:27:03,11:31:43,NA,incomplete,false,NA,true,7,24,NA,left,E12_Q7_ansL.png,E32_Q10_ansL.png,between,NA,NaN,NA,right,1087,0,1,1008
Ga6cfLKL,NA,NA,Ga6cfLKL,2020-0188,2021-09-19,10:27:03,11:31:43,NA,incomplete,false,NA,true,7,25,NA,left,E22_Q8_ansR.png,E22_Q5_ansL.png,within,NA,NaN,NA,left,520,1,1,788
Ga6cfLKL,NA,NA,Ga6cfLKL,2020-0188,2021-09-19,10:27:03,11:31:43,NA,incomplete,false,NA,true,7,26,NA,right,E32_Q4_ansR.png,E32_Q10_ansL.png,within,NA,NaN,NA,right,484.00000000046566,1,1,864
Ga6cfLKL,NA,NA,Ga6cfLKL,2020-0188,2021-09-19,10:27:03,11:31:43,NA,incomplete,false,true,NA,8,0,E21_Q9_ansR.png,right,NA,NA,NA,right,1895,true,NA,NA,NA,NA,NA
Ga6cfLKL,NA,NA,Ga6cfLKL,2020-0188,2021-09-19,10:27:03,11:31:43,NA,incomplete,false,true,NA,8,1,E21_Q7_ansL.png,left,NA,NA,NA,left,2530.00000000047,true,NA,NA,NA,NA,NA
Ga6cfLKL,NA,NA,Ga6cfLKL,2020-0188,2021-09-19,10:27:03,11:31:43,NA,incomplete,false,true,NA,8,2,E21_Q3_ansR.png,right,NA,NA,NA,right,3014,true,NA,NA,NA,NA,NA
Ga6cfLKL,NA,NA,Ga6cfLKL,2020-0188,2021-09-19,10:27:03,11:31:43,NA,incomplete,false,true,NA,8,3,E21_Q10_ansL.png,left,NA,NA,NA,left,1255,true,NA,NA,NA,NA,NA
Ga6cfLKL,NA,NA,Ga6cfLKL,2020-0188,2021-09-19,10:27:03,11:31:43,NA,incomplete,false,true,NA,8,4,E21_Q8_ansL.png,left,NA,NA,NA,left,1745,true,NA,NA,NA,NA,NA
Ga6cfLKL,NA,NA,Ga6cfLKL,2020-0188,2021-09-19,10:27:03,11:31:43,NA,incomplete,false,true,NA,8,5,E21_Q4_ansR.png,right,NA,NA,NA,right,1046.99999999953,true,NA,NA,NA,NA,NA
Ga6cfLKL,NA,NA,Ga6cfLKL,2020-0188,2021-09-19,10:27:03,11:31:43,NA,incomplete,false,true,NA,8,6,E21_Q5_ansR.png,right,NA,NA,NA,right,1154.99999999953,true,NA,NA,NA,NA,NA
Ga6cfLKL,NA,NA,Ga6cfLKL,2020-0188,2021-09-19,10:27:03,11:31:43,NA,incomplete,false,true,NA,8,7,E21_Q6_ansR.png,right,NA,NA,NA,right,999,true,NA,NA,NA,NA,NA
Ga6cfLKL,NA,NA,Ga6cfLKL,2020-0188,2021-09-19,10:27:03,11:31:43,NA,incomplete,false,true,NA,8,8,E21_Q2_ansL.png,left,NA,NA,NA,left,1469,true,NA,NA,NA,NA,NA
Ga6cfLKL,NA,NA,Ga6cfLKL,2020-0188,2021-09-19,10:27:03,11:31:43,NA,incomplete,false,true,NA,8,9,E21_Q1_ansL.png,left,NA,NA,NA,left,1172,true,NA,NA,NA,NA,NA
Ga6cfLKL,NA,NA,Ga6cfLKL,2020-0188,2021-09-19,10:27:03,11:31:43,NA,incomplete,false,true,NA,8,10,E26_Q3_ansR.png,right,NA,NA,NA,none,0,false,NA,NA,NA,NA,NA
Ga6cfLKL,NA,NA,Ga6cfLKL,2020-0188,2021-09-19,10:27:03,11:31:43,NA,incomplete,false,true,NA,8,11,E26_Q5_ansR.png,right,NA,NA,NA,right,1525,true,NA,NA,NA,NA,NA
Ga6cfLKL,NA,NA,Ga6cfLKL,2020-0188,2021-09-19,10:27:03,11:31:43,NA,incomplete,false,true,NA,8,12,E26_Q4_ansR.png,right,NA,NA,NA,right,1951,true,NA,NA,NA,NA,NA
Ga6cfLKL,NA,NA,Ga6cfLKL,2020-0188,2021-09-19,10:27:03,11:31:43,NA,incomplete,false,true,NA,8,13,E26_Q8_ansL.png,left,NA,NA,NA,left,2087,true,NA,NA,NA,NA,NA
Ga6cfLKL,NA,NA,Ga6cfLKL,2020-0188,2021-09-19,10:27:03,11:31:43,NA,incomplete,false,true,NA,8,14,E26_Q10_ansL.png,left,NA,NA,NA,left,1570,true,NA,NA,NA,NA,NA
Ga6cfLKL,NA,NA,Ga6cfLKL,2020-0188,2021-09-19,10:27:03,11:31:43,NA,incomplete,false,true,NA,8,15,E26_Q7_ansL.png,left,NA,NA,NA,left,1323,true,NA,NA,NA,NA,NA
Ga6cfLKL,NA,NA,Ga6cfLKL,2020-0188,2021-09-19,10:27:03,11:31:43,NA,incomplete,false,true,NA,8,16,E26_Q9_ansR.png,right,NA,NA,NA,right,2434,true,NA,NA,NA,NA,NA
Ga6cfLKL,NA,NA,Ga6cfLKL,2020-0188,2021-09-19,10:27:03,11:31:43,NA,incomplete,false,true,NA,8,17,E26_Q1_ansL.png,left,NA,NA,NA,left,1327,true,NA,NA,NA,NA,NA
Ga6cfLKL,NA,NA,Ga6cfLKL,2020-0188,2021-09-19,10:27:03,11:31:43,NA,incomplete,false,true,NA,8,18,E26_Q2_ansL.png,left,NA,NA,NA,left,1927,true,NA,NA,NA,NA,NA
Ga6cfLKL,NA,NA,Ga6cfLKL,2020-0188,2021-09-19,10:27:03,11:31:43,NA,incomplete,false,true,NA,8,19,E26_Q6_ansR.png,right,NA,NA,NA,right,936,true,NA,NA,NA,NA,NA
Ga6cfLKL,NA,NA,Ga6cfLKL,2020-0188,2021-09-19,10:27:03,11:31:43,NA,incomplete,false,true,NA,8,20,E28_Q10_ansR.png,right,NA,NA,NA,right,1633.00000000047,true,NA,NA,NA,NA,NA
Ga6cfLKL,NA,NA,Ga6cfLKL,2020-0188,2021-09-19,10:27:03,11:31:43,NA,incomplete,false,true,NA,8,21,E28_Q3_ansL.png,left,NA,NA,NA,left,2129,true,NA,NA,NA,NA,NA
Ga6cfLKL,NA,NA,Ga6cfLKL,2020-0188,2021-09-19,10:27:03,11:31:43,NA,incomplete,false,true,NA,8,22,E28_Q2_ansR.png,right,NA,NA,NA,right,1719,true,NA,NA,NA,NA,NA
Ga6cfLKL,NA,NA,Ga6cfLKL,2020-0188,2021-09-19,10:27:03,11:31:43,NA,incomplete,false,true,NA,8,23,E28_Q4_ansL.png,left,NA,NA,NA,none,0,false,NA,NA,NA,NA,NA
Ga6cfLKL,NA,NA,Ga6cfLKL,2020-0188,2021-09-19,10:27:03,11:31:43,NA,incomplete,false,true,NA,8,24,E28_Q1_ansR.png,right,NA,NA,NA,right,1212.99999999953,true,NA,NA,NA,NA,NA
Ga6cfLKL,NA,NA,Ga6cfLKL,2020-0188,2021-09-19,10:27:03,11:31:43,NA,incomplete,false,true,NA,8,25,E28_Q8_ansR.png,right,NA,NA,NA,right,3073,true,NA,NA,NA,NA,NA
Ga6cfLKL,NA,NA,Ga6cfLKL,2020-0188,2021-09-19,10:27:03,11:31:43,NA,incomplete,false,true,NA,8,26,E28_Q7_ansR.png,right,NA,NA,NA,right,3261,true,NA,NA,NA,NA,NA
Ga6cfLKL,NA,NA,Ga6cfLKL,2020-0188,2021-09-19,10:27:03,11:31:43,NA,incomplete,false,true,NA,8,27,E28_Q5_ansL.png,left,NA,NA,NA,left,2214,true,NA,NA,NA,NA,NA
Ga6cfLKL,NA,NA,Ga6cfLKL,2020-0188,2021-09-19,10:27:03,11:31:43,NA,incomplete,false,true,NA,8,28,E28_Q9_ansL.png,left,NA,NA,NA,left,1721,true,NA,NA,NA,NA,NA
Ga6cfLKL,NA,NA,Ga6cfLKL,2020-0188,2021-09-19,10:27:03,11:31:43,NA,incomplete,false,true,NA,8,29,E28_Q6_ansL.png,left,NA,NA,NA,left,1472,true,NA,NA,NA,NA,NA
Ga6cfLKL,NA,NA,Ga6cfLKL,2020-0188,2021-09-19,10:27:03,11:31:43,NA,incomplete,false,NA,true,8,0,NA,left,E26_Q2_ansL.png,E28_Q3_ansL.png,between,NA,NaN,NA,left,2021,1,1,747
Ga6cfLKL,NA,NA,Ga6cfLKL,2020-0188,2021-09-19,10:27:03,11:31:43,NA,incomplete,false,NA,true,8,1,NA,right,E26_Q9_ansR.png,E26_Q8_ansL.png,within,NA,NaN,NA,left,1728.9999999995343,0,1,702
Ga6cfLKL,NA,NA,Ga6cfLKL,2020-0188,2021-09-19,10:27:03,11:31:43,NA,incomplete,false,NA,true,8,2,NA,right,E28_Q7_ansR.png,E28_Q4_ansL.png,within,NA,NaN,NA,right,2269,1,1,1012.9999999995343
Ga6cfLKL,NA,NA,Ga6cfLKL,2020-0188,2021-09-19,10:27:03,11:31:43,NA,incomplete,false,NA,true,8,3,NA,left,E26_Q5_ansR.png,E26_Q10_ansL.png,within,NA,NaN,NA,left,983,1,1,1500
Ga6cfLKL,NA,NA,Ga6cfLKL,2020-0188,2021-09-19,10:27:03,11:31:43,NA,incomplete,false,NA,true,8,4,NA,left,E21_Q9_ansR.png,E21_Q10_ansL.png,within,NA,NaN,NA,left,1072,1,1,1674
Ga6cfLKL,NA,NA,Ga6cfLKL,2020-0188,2021-09-19,10:27:03,11:31:43,NA,incomplete,false,NA,true,8,5,NA,right,E26_Q8_ansL.png,E26_Q3_ansR.png,within,NA,NaN,NA,right,947,1,1,784
Ga6cfLKL,NA,NA,Ga6cfLKL,2020-0188,2021-09-19,10:27:03,11:31:43,NA,incomplete,false,NA,true,8,6,NA,right,E28_Q9_ansL.png,E28_Q8_ansR.png,within,NA,NaN,NA,right,1244,1,1,920.0000000004657
Ga6cfLKL,NA,NA,Ga6cfLKL,2020-0188,2021-09-19,10:27:03,11:31:43,NA,incomplete,false,NA,true,8,7,NA,left,E21_Q6_ansR.png,E26_Q3_ansR.png,between,NA,NaN,NA,left,3896,1,1,841
Ga6cfLKL,NA,NA,Ga6cfLKL,2020-0188,2021-09-19,10:27:03,11:31:43,NA,incomplete,false,NA,true,8,8,NA,right,E21_Q6_ansR.png,E21_Q8_ansL.png,within,NA,NaN,NA,left,1131,0,1,1063.0000000004657
Ga6cfLKL,NA,NA,Ga6cfLKL,2020-0188,2021-09-19,10:27:03,11:31:43,NA,incomplete,false,NA,true,8,9,NA,left,E26_Q4_ansR.png,E26_Q7_ansL.png,within,NA,NaN,NA,left,2144,1,1,2201
Ga6cfLKL,NA,NA,Ga6cfLKL,2020-0188,2021-09-19,10:27:03,11:31:43,NA,incomplete,false,NA,true,8,10,NA,left,E21_Q4_ansR.png,E21_Q2_ansL.png,within,NA,NaN,NA,right,1172,0,1,945.9999999995343
Ga6cfLKL,NA,NA,Ga6cfLKL,2020-0188,2021-09-19,10:27:03,11:31:43,NA,incomplete,false,NA,true,8,11,NA,left,E26_Q6_ansR.png,E28_Q2_ansR.png,between,NA,NaN,NA,left,10688,1,1,3604
Ga6cfLKL,NA,NA,Ga6cfLKL,2020-0188,2021-09-19,10:27:03,11:31:43,NA,incomplete,false,NA,true,8,12,NA,right,E28_Q4_ansL.png,E28_Q10_ansR.png,within,NA,NaN,NA,right,913,1,1,1094.9999999995343
Ga6cfLKL,NA,NA,Ga6cfLKL,2020-0188,2021-09-19,10:27:03,11:31:43,NA,incomplete,false,NA,true,8,13,NA,right,E26_Q6_ansR.png,E26_Q9_ansR.png,within,NA,NaN,NA,right,18577,1,1,1816
Ga6cfLKL,NA,NA,Ga6cfLKL,2020-0188,2021-09-19,10:27:03,11:31:43,NA,incomplete,false,NA,true,8,14,NA,left,E28_Q7_ansR.png,E28_Q6_ansL.png,within,NA,NaN,NA,right,839,0,1,1495.0000000004657
Ga6cfLKL,NA,NA,Ga6cfLKL,2020-0188,2021-09-19,10:27:03,11:31:43,NA,incomplete,false,NA,true,8,15,NA,right,E26_Q4_ansR.png,E21_Q1_ansL.png,between,NA,NaN,NA,right,1650,1,1,909
Ga6cfLKL,NA,NA,Ga6cfLKL,2020-0188,2021-09-19,10:27:03,11:31:43,NA,incomplete,false,NA,true,8,16,NA,left,E21_Q5_ansR.png,E21_Q1_ansL.png,within,NA,NaN,NA,left,1279,1,1,1010.0000000004657
Ga6cfLKL,NA,NA,Ga6cfLKL,2020-0188,2021-09-19,10:27:03,11:31:43,NA,incomplete,false,NA,true,8,17,NA,right,E21_Q5_ansR.png,E21_Q10_ansL.png,within,NA,NaN,NA,right,849.0000000004657,1,1,1006
Ga6cfLKL,NA,NA,Ga6cfLKL,2020-0188,2021-09-19,10:27:03,11:31:43,NA,incomplete,false,NA,true,8,18,NA,left,E28_Q1_ansR.png,E28_Q5_ansL.png,within,NA,NaN,NA,right,1087,0,1,882
Ga6cfLKL,NA,NA,Ga6cfLKL,2020-0188,2021-09-19,10:27:03,11:31:43,NA,incomplete,false,NA,true,8,19,NA,left,E21_Q2_ansL.png,E26_Q5_ansR.png,between,NA,NaN,NA,left,1185,1,1,923
Ga6cfLKL,NA,NA,Ga6cfLKL,2020-0188,2021-09-19,10:27:03,11:31:43,NA,incomplete,false,NA,true,8,20,NA,right,E28_Q10_ansR.png,E26_Q1_ansL.png,between,NA,NaN,NA,right,1805,1,1,875
Ga6cfLKL,NA,NA,Ga6cfLKL,2020-0188,2021-09-19,10:27:03,11:31:43,NA,incomplete,false,NA,true,8,21,NA,right,E28_Q1_ansR.png,E28_Q3_ansL.png,within,NA,NaN,NA,right,1144.9999999995343,1,1,881
Ga6cfLKL,NA,NA,Ga6cfLKL,2020-0188,2021-09-19,10:27:03,11:31:43,NA,incomplete,false,NA,true,8,22,NA,left,E21_Q7_ansL.png,E21_Q8_ansL.png,within,NA,NaN,NA,right,1162,0,1,1097.0000000004657
Ga6cfLKL,NA,NA,Ga6cfLKL,2020-0188,2021-09-19,10:27:03,11:31:43,NA,incomplete,false,NA,true,8,23,NA,right,E26_Q1_ansL.png,E26_Q10_ansL.png,within,NA,NaN,NA,left,2701,0,1,1747.9999999995343
Ga6cfLKL,NA,NA,Ga6cfLKL,2020-0188,2021-09-19,10:27:03,11:31:43,NA,incomplete,false,NA,true,8,24,NA,right,E26_Q2_ansL.png,E26_Q7_ansL.png,within,NA,NaN,NA,right,1623.0000000004657,1,1,981
Ga6cfLKL,NA,NA,Ga6cfLKL,2020-0188,2021-09-19,10:27:03,11:31:43,NA,incomplete,false,NA,true,8,25,NA,right,E21_Q4_ansR.png,E21_Q3_ansR.png,within,NA,NaN,NA,left,1500,0,1,914
Ga6cfLKL,NA,NA,Ga6cfLKL,2020-0188,2021-09-19,10:27:03,11:31:43,NA,incomplete,false,NA,true,8,26,NA,left,E28_Q2_ansR.png,E28_Q8_ansR.png,within,NA,NaN,NA,right,3079,0,1,1311.9999999995343
Ga6cfLKL,NA,NA,Ga6cfLKL,2020-0188,2021-09-19,10:27:03,11:31:43,NA,incomplete,false,true,NA,9,0,E20_Q8_ansL.png,left,NA,NA,NA,right,1461.00000000047,false,NA,NA,NA,NA,NA
Ga6cfLKL,NA,NA,Ga6cfLKL,2020-0188,2021-09-19,10:27:03,11:31:43,NA,incomplete,false,true,NA,9,1,E20_Q7_ansL.png,left,NA,NA,NA,left,1540,true,NA,NA,NA,NA,NA
Ga6cfLKL,NA,NA,Ga6cfLKL,2020-0188,2021-09-19,10:27:03,11:31:43,NA,incomplete,false,true,NA,9,2,E20_Q1_ansL.png,left,NA,NA,NA,left,1547,true,NA,NA,NA,NA,NA
Ga6cfLKL,NA,NA,Ga6cfLKL,2020-0188,2021-09-19,10:27:03,11:31:43,NA,incomplete,false,true,NA,9,3,E20_Q9_ansR.png,right,NA,NA,NA,right,1242,true,NA,NA,NA,NA,NA
Ga6cfLKL,NA,NA,Ga6cfLKL,2020-0188,2021-09-19,10:27:03,11:31:43,NA,incomplete,false,true,NA,9,4,E20_Q6_ansR.png,right,NA,NA,NA,right,1711,true,NA,NA,NA,NA,NA
Ga6cfLKL,NA,NA,Ga6cfLKL,2020-0188,2021-09-19,10:27:03,11:31:43,NA,incomplete,false,true,NA,9,5,E20_Q2_ansL.png,left,NA,NA,NA,left,1939,true,NA,NA,NA,NA,NA
Ga6cfLKL,NA,NA,Ga6cfLKL,2020-0188,2021-09-19,10:27:03,11:31:43,NA,incomplete,false,true,NA,9,6,E20_Q5_ansR.png,right,NA,NA,NA,right,2091.00000000047,true,NA,NA,NA,NA,NA
Ga6cfLKL,NA,NA,Ga6cfLKL,2020-0188,2021-09-19,10:27:03,11:31:43,NA,incomplete,false,true,NA,9,7,E20_Q10_ansL.png,left,NA,NA,NA,right,1633,false,NA,NA,NA,NA,NA
Ga6cfLKL,NA,NA,Ga6cfLKL,2020-0188,2021-09-19,10:27:03,11:31:43,NA,incomplete,false,true,NA,9,8,E20_Q3_ansR.png,right,NA,NA,NA,right,1347,true,NA,NA,NA,NA,NA
Ga6cfLKL,NA,NA,Ga6cfLKL,2020-0188,2021-09-19,10:27:03,11:31:43,NA,incomplete,false,true,NA,9,9,E20_Q4_ansR.png,right,NA,NA,NA,right,1663,true,NA,NA,NA,NA,NA
Ga6cfLKL,NA,NA,Ga6cfLKL,2020-0188,2021-09-19,10:27:03,11:31:43,NA,incomplete,false,true,NA,9,10,E30_Q2_ansL.png,left,NA,NA,NA,left,3133,true,NA,NA,NA,NA,NA
Ga6cfLKL,NA,NA,Ga6cfLKL,2020-0188,2021-09-19,10:27:03,11:31:43,NA,incomplete,false,true,NA,9,11,E30_Q1_ansL.png,left,NA,NA,NA,left,2743,true,NA,NA,NA,NA,NA
Ga6cfLKL,NA,NA,Ga6cfLKL,2020-0188,2021-09-19,10:27:03,11:31:43,NA,incomplete,false,true,NA,9,12,E30_Q6_ansR.png,right,NA,NA,NA,right,1299,true,NA,NA,NA,NA,NA
Ga6cfLKL,NA,NA,Ga6cfLKL,2020-0188,2021-09-19,10:27:03,11:31:43,NA,incomplete,false,true,NA,9,13,E30_Q5_ansR.png,right,NA,NA,NA,right,2304.00000000047,true,NA,NA,NA,NA,NA
Ga6cfLKL,NA,NA,Ga6cfLKL,2020-0188,2021-09-19,10:27:03,11:31:43,NA,incomplete,false,true,NA,9,14,E30_Q7_ansL.png,left,NA,NA,NA,right,3351.99999999953,false,NA,NA,NA,NA,NA
Ga6cfLKL,NA,NA,Ga6cfLKL,2020-0188,2021-09-19,10:27:03,11:31:43,NA,incomplete,false,true,NA,9,15,E30_Q4_ansL.png,left,NA,NA,NA,left,2441,true,NA,NA,NA,NA,NA
Ga6cfLKL,NA,NA,Ga6cfLKL,2020-0188,2021-09-19,10:27:03,11:31:43,NA,incomplete,false,true,NA,9,16,E30_Q10_ansR.png,right,NA,NA,NA,right,1885,true,NA,NA,NA,NA,NA
Ga6cfLKL,NA,NA,Ga6cfLKL,2020-0188,2021-09-19,10:27:03,11:31:43,NA,incomplete,false,true,NA,9,17,E30_Q3_ansL.png,left,NA,NA,NA,left,2809.00000000047,true,NA,NA,NA,NA,NA
Ga6cfLKL,NA,NA,Ga6cfLKL,2020-0188,2021-09-19,10:27:03,11:31:43,NA,incomplete,false,true,NA,9,18,E30_Q8_ansL.png,left,NA,NA,NA,left,3443,true,NA,NA,NA,NA,NA
Ga6cfLKL,NA,NA,Ga6cfLKL,2020-0188,2021-09-19,10:27:03,11:31:43,NA,incomplete,false,true,NA,9,19,E30_Q9_ansL.png,left,NA,NA,NA,none,0,false,NA,NA,NA,NA,NA
Ga6cfLKL,NA,NA,Ga6cfLKL,2020-0188,2021-09-19,10:27:03,11:31:43,NA,incomplete,false,true,NA,9,20,E1_Q5_ansR.png,right,NA,NA,NA,right,1388,true,NA,NA,NA,NA,NA
Ga6cfLKL,NA,NA,Ga6cfLKL,2020-0188,2021-09-19,10:27:03,11:31:43,NA,incomplete,false,true,NA,9,21,E1_Q2_ansL.png,left,NA,NA,NA,left,2320,true,NA,NA,NA,NA,NA
Ga6cfLKL,NA,NA,Ga6cfLKL,2020-0188,2021-09-19,10:27:03,11:31:43,NA,incomplete,false,true,NA,9,22,E1_Q10_ansR.png,right,NA,NA,NA,right,1094.99999999953,true,NA,NA,NA,NA,NA
Ga6cfLKL,NA,NA,Ga6cfLKL,2020-0188,2021-09-19,10:27:03,11:31:43,NA,incomplete,false,true,NA,9,23,E1_Q8_ansR.png,right,NA,NA,NA,right,1652,true,NA,NA,NA,NA,NA
Ga6cfLKL,NA,NA,Ga6cfLKL,2020-0188,2021-09-19,10:27:03,11:31:43,NA,incomplete,false,true,NA,9,24,E1_Q4_ansL.png,left,NA,NA,NA,left,1693.00000000047,true,NA,NA,NA,NA,NA
Ga6cfLKL,NA,NA,Ga6cfLKL,2020-0188,2021-09-19,10:27:03,11:31:43,NA,incomplete,false,true,NA,9,25,E1_Q3_ansR.png,right,NA,NA,NA,right,2528,true,NA,NA,NA,NA,NA
Ga6cfLKL,NA,NA,Ga6cfLKL,2020-0188,2021-09-19,10:27:03,11:31:43,NA,incomplete,false,true,NA,9,26,E1_Q9_ansL.png,left,NA,NA,NA,left,1154,true,NA,NA,NA,NA,NA
Ga6cfLKL,NA,NA,Ga6cfLKL,2020-0188,2021-09-19,10:27:03,11:31:43,NA,incomplete,false,true,NA,9,27,E1_Q6_ansR.png,right,NA,NA,NA,right,1564,true,NA,NA,NA,NA,NA
Ga6cfLKL,NA,NA,Ga6cfLKL,2020-0188,2021-09-19,10:27:03,11:31:43,NA,incomplete,false,true,NA,9,28,E1_Q1_ansL.png,left,NA,NA,NA,left,2474,true,NA,NA,NA,NA,NA
Ga6cfLKL,NA,NA,Ga6cfLKL,2020-0188,2021-09-19,10:27:03,11:31:43,NA,incomplete,false,true,NA,9,29,E1_Q7_ansL.png,left,NA,NA,NA,left,1434,true,NA,NA,NA,NA,NA
Ga6cfLKL,NA,NA,Ga6cfLKL,2020-0188,2021-09-19,10:27:03,11:31:43,NA,incomplete,false,NA,true,9,0,NA,right,E30_Q10_ansR.png,E30_Q5_ansR.png,within,NA,NaN,NA,right,3740,1,1,1129
Ga6cfLKL,NA,NA,Ga6cfLKL,2020-0188,2021-09-19,10:27:03,11:31:43,NA,incomplete,false,NA,true,9,1,NA,right,E1_Q8_ansR.png,E1_Q5_ansR.png,within,NA,NaN,NA,right,3161,1,1,816
Ga6cfLKL,NA,NA,Ga6cfLKL,2020-0188,2021-09-19,10:27:03,11:31:43,NA,incomplete,false,NA,true,9,2,NA,left,E20_Q6_ansR.png,E20_Q10_ansL.png,within,NA,NaN,NA,left,2937,1,1,1211
Ga6cfLKL,NA,NA,Ga6cfLKL,2020-0188,2021-09-19,10:27:03,11:31:43,NA,incomplete,false,NA,true,9,3,NA,left,E20_Q2_ansL.png,E20_Q3_ansR.png,within,NA,NaN,NA,right,1299,0,1,822
Ga6cfLKL,NA,NA,Ga6cfLKL,2020-0188,2021-09-19,10:27:03,11:31:43,NA,incomplete,false,NA,true,9,4,NA,right,E20_Q2_ansL.png,E20_Q1_ansL.png,within,NA,NaN,NA,right,1153,1,1,766
Ga6cfLKL,NA,NA,Ga6cfLKL,2020-0188,2021-09-19,10:27:03,11:31:43,NA,incomplete,false,NA,true,9,5,NA,right,E1_Q6_ansR.png,E1_Q4_ansL.png,within,NA,NaN,NA,left,1931,0,1,989.9999999995343
Ga6cfLKL,NA,NA,Ga6cfLKL,2020-0188,2021-09-19,10:27:03,11:31:43,NA,incomplete,false,NA,true,9,6,NA,right,E20_Q6_ansR.png,E20_Q7_ansL.png,within,NA,NaN,NA,right,1866,1,1,1280
Ga6cfLKL,NA,NA,Ga6cfLKL,2020-0188,2021-09-19,10:27:03,11:31:43,NA,incomplete,false,NA,true,9,7,NA,left,E30_Q3_ansL.png,E1_Q5_ansR.png,between,NA,NaN,NA,left,2193,1,1,1158
Ga6cfLKL,NA,NA,Ga6cfLKL,2020-0188,2021-09-19,10:27:03,11:31:43,NA,incomplete,false,NA,true,9,8,NA,right,E30_Q9_ansL.png,E30_Q10_ansR.png,within,NA,NaN,NA,left,3180,0,1,2281
Ga6cfLKL,NA,NA,Ga6cfLKL,2020-0188,2021-09-19,10:27:03,11:31:43,NA,incomplete,false,NA,true,9,9,NA,right,E1_Q10_ansR.png,E30_Q9_ansL.png,between,NA,NaN,NA,right,1082,1,1,1658.0000000004657
Ga6cfLKL,NA,NA,Ga6cfLKL,2020-0188,2021-09-19,10:27:03,11:31:43,NA,incomplete,false,NA,true,9,10,NA,right,E30_Q5_ansR.png,E30_Q2_ansL.png,within,NA,NaN,NA,right,5143,1,1,971
Ga6cfLKL,NA,NA,Ga6cfLKL,2020-0188,2021-09-19,10:27:03,11:31:43,NA,incomplete,false,NA,true,9,11,NA,right,E1_Q3_ansR.png,E1_Q10_ansR.png,within,NA,NaN,NA,right,2345,1,1,1004
Ga6cfLKL,NA,NA,Ga6cfLKL,2020-0188,2021-09-19,10:27:03,11:31:43,NA,incomplete,false,NA,true,9,12,NA,right,E30_Q2_ansL.png,E20_Q10_ansL.png,between,NA,NaN,NA,right,1304,1,1,996
Ga6cfLKL,NA,NA,Ga6cfLKL,2020-0188,2021-09-19,10:27:03,11:31:43,NA,incomplete,false,NA,true,9,13,NA,right,E30_Q6_ansR.png,E20_Q4_ansR.png,between,NA,NaN,NA,right,1039,1,1,1065
Ga6cfLKL,NA,NA,Ga6cfLKL,2020-0188,2021-09-19,10:27:03,11:31:43,NA,incomplete,false,NA,true,9,14,NA,left,E20_Q9_ansR.png,E20_Q5_ansR.png,within,NA,NaN,NA,right,2282.0000000004657,0,1,850
Ga6cfLKL,NA,NA,Ga6cfLKL,2020-0188,2021-09-19,10:27:03,11:31:43,NA,incomplete,false,NA,true,9,15,NA,left,E30_Q6_ansR.png,E30_Q4_ansL.png,within,NA,NaN,NA,right,2632,0,1,1179
Ga6cfLKL,NA,NA,Ga6cfLKL,2020-0188,2021-09-19,10:27:03,11:31:43,NA,incomplete,false,NA,true,9,16,NA,right,E30_Q7_ansL.png,E30_Q1_ansL.png,within,NA,NaN,NA,right,2836,1,1,990
Ga6cfLKL,NA,NA,Ga6cfLKL,2020-0188,2021-09-19,10:27:03,11:31:43,NA,incomplete,false,NA,true,9,17,NA,right,E1_Q1_ansL.png,E1_Q3_ansR.png,within,NA,NaN,NA,left,1639.9999999995343,0,1,1277
Ga6cfLKL,NA,NA,Ga6cfLKL,2020-0188,2021-09-19,10:27:03,11:31:43,NA,incomplete,false,NA,true,9,18,NA,left,E20_Q3_ansR.png,E30_Q1_ansL.png,between,NA,NaN,NA,left,2007,1,1,1000
Ga6cfLKL,NA,NA,Ga6cfLKL,2020-0188,2021-09-19,10:27:03,11:31:43,NA,incomplete,false,NA,true,9,19,NA,left,E1_Q8_ansR.png,E1_Q9_ansL.png,within,NA,NaN,NA,left,2268,1,1,875.9999999995343
Ga6cfLKL,NA,NA,Ga6cfLKL,2020-0188,2021-09-19,10:27:03,11:31:43,NA,incomplete,false,NA,true,9,20,NA,right,E1_Q2_ansL.png,E30_Q8_ansL.png,between,NA,NaN,NA,right,1468,1,1,923
Ga6cfLKL,NA,NA,Ga6cfLKL,2020-0188,2021-09-19,10:27:03,11:31:43,NA,incomplete,false,NA,true,9,21,NA,right,E30_Q3_ansL.png,E30_Q7_ansL.png,within,NA,NaN,NA,right,3993.9999999995343,1,1,757
Ga6cfLKL,NA,NA,Ga6cfLKL,2020-0188,2021-09-19,10:27:03,11:31:43,NA,incomplete,false,NA,true,9,22,NA,left,E1_Q9_ansL.png,E1_Q7_ansL.png,within,NA,NaN,NA,left,1118.9999999995343,1,1,1223
Ga6cfLKL,NA,NA,Ga6cfLKL,2020-0188,2021-09-19,10:27:03,11:31:43,NA,incomplete,false,NA,true,9,23,NA,left,E1_Q2_ansL.png,E1_Q4_ansL.png,within,NA,NaN,NA,left,2028,1,1,905
Ga6cfLKL,NA,NA,Ga6cfLKL,2020-0188,2021-09-19,10:27:03,11:31:43,NA,incomplete,false,NA,true,9,24,NA,left,E20_Q8_ansL.png,E20_Q9_ansR.png,within,NA,NaN,NA,left,4299,1,1,917
Ga6cfLKL,NA,NA,Ga6cfLKL,2020-0188,2021-09-19,10:27:03,11:31:43,NA,incomplete,false,NA,true,9,25,NA,right,E30_Q8_ansL.png,E30_Q4_ansL.png,within,NA,NaN,NA,right,1743,1,1,1016
Ga6cfLKL,NA,NA,Ga6cfLKL,2020-0188,2021-09-19,10:27:03,11:31:43,NA,incomplete,false,NA,true,9,26,NA,left,E20_Q5_ansR.png,E20_Q4_ansR.png,within,NA,NaN,NA,left,4045.9999999995343,1,1,831
Ga6cfLKL,NA,NA,Ga6cfLKL,2020-0188,2021-09-19,10:27:03,11:31:43,NA,incomplete,false,true,NA,10,0,E25_Q1_ansR.png,right,NA,NA,NA,right,2398,true,NA,NA,NA,NA,NA
Ga6cfLKL,NA,NA,Ga6cfLKL,2020-0188,2021-09-19,10:27:03,11:31:43,NA,incomplete,false,true,NA,10,1,E25_Q9_ansL.png,left,NA,NA,NA,none,0,false,NA,NA,NA,NA,NA
Ga6cfLKL,NA,NA,Ga6cfLKL,2020-0188,2021-09-19,10:27:03,11:31:43,NA,incomplete,false,true,NA,10,2,E25_Q7_ansR.png,right,NA,NA,NA,right,2317.99999999953,true,NA,NA,NA,NA,NA
Ga6cfLKL,NA,NA,Ga6cfLKL,2020-0188,2021-09-19,10:27:03,11:31:43,NA,incomplete,false,true,NA,10,3,E25_Q4_ansL.png,left,NA,NA,NA,left,2614,true,NA,NA,NA,NA,NA
Ga6cfLKL,NA,NA,Ga6cfLKL,2020-0188,2021-09-19,10:27:03,11:31:43,NA,incomplete,false,true,NA,10,4,E25_Q2_ansR.png,right,NA,NA,NA,right,3109,true,NA,NA,NA,NA,NA
Ga6cfLKL,NA,NA,Ga6cfLKL,2020-0188,2021-09-19,10:27:03,11:31:43,NA,incomplete,false,true,NA,10,5,E25_Q3_ansL.png,left,NA,NA,NA,left,3032,true,NA,NA,NA,NA,NA
Ga6cfLKL,NA,NA,Ga6cfLKL,2020-0188,2021-09-19,10:27:03,11:31:43,NA,incomplete,false,true,NA,10,6,E25_Q6_ansL.png,left,NA,NA,NA,left,1935,true,NA,NA,NA,NA,NA
Ga6cfLKL,NA,NA,Ga6cfLKL,2020-0188,2021-09-19,10:27:03,11:31:43,NA,incomplete,false,true,NA,10,7,E25_Q8_ansR.png,right,NA,NA,NA,right,1541,true,NA,NA,NA,NA,NA
Ga6cfLKL,NA,NA,Ga6cfLKL,2020-0188,2021-09-19,10:27:03,11:31:43,NA,incomplete,false,true,NA,10,8,E25_Q10_ansR.png,right,NA,NA,NA,right,2913,true,NA,NA,NA,NA,NA
Ga6cfLKL,NA,NA,Ga6cfLKL,2020-0188,2021-09-19,10:27:03,11:31:43,NA,incomplete,false,true,NA,10,9,E25_Q5_ansL.png,left,NA,NA,NA,left,2480,true,NA,NA,NA,NA,NA
Ga6cfLKL,NA,NA,Ga6cfLKL,2020-0188,2021-09-19,10:27:03,11:31:43,NA,incomplete,false,true,NA,10,10,E15_Q1_ansL.png,left,NA,NA,NA,left,1592.99999999953,true,NA,NA,NA,NA,NA
Ga6cfLKL,NA,NA,Ga6cfLKL,2020-0188,2021-09-19,10:27:03,11:31:43,NA,incomplete,false,true,NA,10,11,E15_Q5_ansR.png,right,NA,NA,NA,right,1297,true,NA,NA,NA,NA,NA
Ga6cfLKL,NA,NA,Ga6cfLKL,2020-0188,2021-09-19,10:27:03,11:31:43,NA,incomplete,false,true,NA,10,12,E15_Q6_ansR.png,right,NA,NA,NA,right,1178,true,NA,NA,NA,NA,NA
Ga6cfLKL,NA,NA,Ga6cfLKL,2020-0188,2021-09-19,10:27:03,11:31:43,NA,incomplete,false,true,NA,10,13,E15_Q9_ansR.png,right,NA,NA,NA,left,1062,false,NA,NA,NA,NA,NA
Ga6cfLKL,NA,NA,Ga6cfLKL,2020-0188,2021-09-19,10:27:03,11:31:43,NA,incomplete,false,true,NA,10,14,E15_Q8_ansL.png,left,NA,NA,NA,left,1266.99999999953,true,NA,NA,NA,NA,NA
Ga6cfLKL,NA,NA,Ga6cfLKL,2020-0188,2021-09-19,10:27:03,11:31:43,NA,incomplete,false,true,NA,10,15,E15_Q2_ansL.png,left,NA,NA,NA,left,953,true,NA,NA,NA,NA,NA
Ga6cfLKL,NA,NA,Ga6cfLKL,2020-0188,2021-09-19,10:27:03,11:31:43,NA,incomplete,false,true,NA,10,16,E15_Q4_ansR.png,right,NA,NA,NA,left,1709.00000000047,false,NA,NA,NA,NA,NA
Ga6cfLKL,NA,NA,Ga6cfLKL,2020-0188,2021-09-19,10:27:03,11:31:43,NA,incomplete,false,true,NA,10,17,E15_Q3_ansR.png,right,NA,NA,NA,right,1672,true,NA,NA,NA,NA,NA
Ga6cfLKL,NA,NA,Ga6cfLKL,2020-0188,2021-09-19,10:27:03,11:31:43,NA,incomplete,false,true,NA,10,18,E15_Q7_ansL.png,left,NA,NA,NA,left,1228,true,NA,NA,NA,NA,NA
Ga6cfLKL,NA,NA,Ga6cfLKL,2020-0188,2021-09-19,10:27:03,11:31:43,NA,incomplete,false,true,NA,10,19,E15_Q10_ansL.png,left,NA,NA,NA,left,825.999999999534,true,NA,NA,NA,NA,NA
Ga6cfLKL,NA,NA,Ga6cfLKL,2020-0188,2021-09-19,10:27:03,11:31:43,NA,incomplete,false,true,NA,10,20,E10_Q10_ansR.png,right,NA,NA,NA,none,0,false,NA,NA,NA,NA,NA
Ga6cfLKL,NA,NA,Ga6cfLKL,2020-0188,2021-09-19,10:27:03,11:31:43,NA,incomplete,false,true,NA,10,21,E10_Q6_ansR.png,right,NA,NA,NA,right,2652,true,NA,NA,NA,NA,NA
Ga6cfLKL,NA,NA,Ga6cfLKL,2020-0188,2021-09-19,10:27:03,11:31:43,NA,incomplete,false,true,NA,10,22,E10_Q5_ansR.png,right,NA,NA,NA,right,2416,true,NA,NA,NA,NA,NA
Ga6cfLKL,NA,NA,Ga6cfLKL,2020-0188,2021-09-19,10:27:03,11:31:43,NA,incomplete,false,true,NA,10,23,E10_Q3_ansL.png,left,NA,NA,NA,left,2658,true,NA,NA,NA,NA,NA
Ga6cfLKL,NA,NA,Ga6cfLKL,2020-0188,2021-09-19,10:27:03,11:31:43,NA,incomplete,false,true,NA,10,24,E10_Q1_ansL.png,left,NA,NA,NA,left,2302,true,NA,NA,NA,NA,NA
Ga6cfLKL,NA,NA,Ga6cfLKL,2020-0188,2021-09-19,10:27:03,11:31:43,NA,incomplete,false,true,NA,10,25,E10_Q8_ansR.png,right,NA,NA,NA,right,3117,true,NA,NA,NA,NA,NA
Ga6cfLKL,NA,NA,Ga6cfLKL,2020-0188,2021-09-19,10:27:03,11:31:43,NA,incomplete,false,true,NA,10,26,E10_Q4_ansL.png,left,NA,NA,NA,left,3289,true,NA,NA,NA,NA,NA
