workerId,hitId,assignmentId,subject,studyid,exp_date,exp_start,exp_end,time_start,time_end,practice,encoding,memory,block,trial,stim,answer,left_image,right_image,condition,response,response_time,response_acc,order_response,order_response_time,order_acc,distance_response,distance_response_time
Gk4QBztY,NA,NA,Gk4QBztY,2020-0188,2021-09-20,21:49:26,20:08:26,NA,incomplete,true,true,NA,0,0,E22_Q9_ansL.png,left,NA,NA,NA,left,1826.70000000298,true,NA,NA,NA,NA,NA
Gk4QBztY,NA,NA,Gk4QBztY,2020-0188,2021-09-20,21:49:26,20:08:26,NA,incomplete,true,true,NA,0,1,E22_Q8_ansR.png,right,NA,NA,NA,right,1047.79999999702,true,NA,NA,NA,NA,NA
Gk4QBztY,NA,NA,Gk4QBztY,2020-0188,2021-09-20,21:49:26,20:08:26,NA,incomplete,true,true,NA,0,2,E22_Q2_ansR.png,right,NA,NA,NA,right,1193.70000000298,true,NA,NA,NA,NA,NA
Gk4QBztY,NA,NA,Gk4QBztY,2020-0188,2021-09-20,21:49:26,20:08:26,NA,incomplete,true,true,NA,0,3,E22_Q10_ansR.png,right,NA,NA,NA,right,720.29999999702,true,NA,NA,NA,NA,NA
Gk4QBztY,NA,NA,Gk4QBztY,2020-0188,2021-09-20,21:49:26,20:08:26,NA,incomplete,true,true,NA,0,4,E22_Q7_ansR.png,right,NA,NA,NA,right,791.800000011921,true,NA,NA,NA,NA,NA
Gk4QBztY,NA,NA,Gk4QBztY,2020-0188,2021-09-20,21:49:26,20:08:26,NA,incomplete,true,true,NA,0,5,E22_Q6_ansL.png,left,NA,NA,NA,left,984.5,true,NA,NA,NA,NA,NA
Gk4QBztY,NA,NA,Gk4QBztY,2020-0188,2021-09-20,21:49:26,20:08:26,NA,incomplete,true,true,NA,0,6,E22_Q5_ansL.png,left,NA,NA,NA,left,961.399999991059,true,NA,NA,NA,NA,NA
Gk4QBztY,NA,NA,Gk4QBztY,2020-0188,2021-09-20,21:49:26,20:08:26,NA,incomplete,true,true,NA,0,7,E22_Q1_ansR.png,right,NA,NA,NA,right,946.40000000596,true,NA,NA,NA,NA,NA
Gk4QBztY,NA,NA,Gk4QBztY,2020-0188,2021-09-20,21:49:26,20:08:26,NA,incomplete,true,true,NA,0,8,E22_Q3_ansL.png,left,NA,NA,NA,left,1109.40000000596,true,NA,NA,NA,NA,NA
Gk4QBztY,NA,NA,Gk4QBztY,2020-0188,2021-09-20,21:49:26,20:08:26,NA,incomplete,true,true,NA,0,9,E22_Q4_ansL.png,left,NA,NA,NA,left,1212.5,true,NA,NA,NA,NA,NA
Gk4QBztY,NA,NA,Gk4QBztY,2020-0188,2021-09-20,21:49:26,20:08:26,NA,incomplete,true,true,NA,0,10,E20_Q3_ansR.png,right,NA,NA,NA,right,1891.19999998808,true,NA,NA,NA,NA,NA
Gk4QBztY,NA,NA,Gk4QBztY,2020-0188,2021-09-20,21:49:26,20:08:26,NA,incomplete,true,true,NA,0,11,E20_Q1_ansL.png,left,NA,NA,NA,right,1474.40000000596,false,NA,NA,NA,NA,NA
Gk4QBztY,NA,NA,Gk4QBztY,2020-0188,2021-09-20,21:49:26,20:08:26,NA,incomplete,true,true,NA,0,12,E20_Q9_ansR.png,right,NA,NA,NA,right,1505.90000000596,true,NA,NA,NA,NA,NA
Gk4QBztY,NA,NA,Gk4QBztY,2020-0188,2021-09-20,21:49:26,20:08:26,NA,incomplete,true,true,NA,0,13,E20_Q5_ansR.png,right,NA,NA,NA,left,1503.69999998808,false,NA,NA,NA,NA,NA
Gk4QBztY,NA,NA,Gk4QBztY,2020-0188,2021-09-20,21:49:26,20:08:26,NA,incomplete,true,true,NA,0,14,E20_Q7_ansL.png,left,NA,NA,NA,right,1587.69999998808,false,NA,NA,NA,NA,NA
Gk4QBztY,NA,NA,Gk4QBztY,2020-0188,2021-09-20,21:49:26,20:08:26,NA,incomplete,true,true,NA,0,15,E20_Q4_ansR.png,right,NA,NA,NA,right,996.20000000298,true,NA,NA,NA,NA,NA
Gk4QBztY,NA,NA,Gk4QBztY,2020-0188,2021-09-20,21:49:26,20:08:26,NA,incomplete,true,true,NA,0,16,E20_Q10_ansL.png,left,NA,NA,NA,right,2187.5,false,NA,NA,NA,NA,NA
Gk4QBztY,NA,NA,Gk4QBztY,2020-0188,2021-09-20,21:49:26,20:08:26,NA,incomplete,true,true,NA,0,17,E20_Q6_ansR.png,right,NA,NA,NA,right,2590.29999999702,true,NA,NA,NA,NA,NA
Gk4QBztY,NA,NA,Gk4QBztY,2020-0188,2021-09-20,21:49:26,20:08:26,NA,incomplete,true,true,NA,0,18,E20_Q2_ansL.png,left,NA,NA,NA,left,1539.29999999702,true,NA,NA,NA,NA,NA
Gk4QBztY,NA,NA,Gk4QBztY,2020-0188,2021-09-20,21:49:26,20:08:26,NA,incomplete,true,true,NA,0,19,E20_Q8_ansL.png,left,NA,NA,NA,left,1359.09999999404,true,NA,NA,NA,NA,NA
Gk4QBztY,NA,NA,Gk4QBztY,2020-0188,2021-09-20,21:49:26,20:08:26,NA,incomplete,true,true,NA,0,20,E21_Q10_ansL.png,left,NA,NA,NA,left,976.300000011921,true,NA,NA,NA,NA,NA
Gk4QBztY,NA,NA,Gk4QBztY,2020-0188,2021-09-20,21:49:26,20:08:26,NA,incomplete,true,true,NA,0,21,E21_Q9_ansR.png,right,NA,NA,NA,right,1719,true,NA,NA,NA,NA,NA
Gk4QBztY,NA,NA,Gk4QBztY,2020-0188,2021-09-20,21:49:26,20:08:26,NA,incomplete,true,true,NA,0,22,E21_Q1_ansL.png,left,NA,NA,NA,left,1614.60000000894,true,NA,NA,NA,NA,NA
Gk4QBztY,NA,NA,Gk4QBztY,2020-0188,2021-09-20,21:49:26,20:08:26,NA,incomplete,true,true,NA,0,23,E21_Q3_ansR.png,right,NA,NA,NA,right,1207.09999999404,true,NA,NA,NA,NA,NA
Gk4QBztY,NA,NA,Gk4QBztY,2020-0188,2021-09-20,21:49:26,20:08:26,NA,incomplete,true,true,NA,0,24,E21_Q4_ansR.png,right,NA,NA,NA,right,988.399999991059,true,NA,NA,NA,NA,NA
Gk4QBztY,NA,NA,Gk4QBztY,2020-0188,2021-09-20,21:49:26,20:08:26,NA,incomplete,true,true,NA,0,25,E21_Q6_ansR.png,right,NA,NA,NA,right,1484,true,NA,NA,NA,NA,NA
Gk4QBztY,NA,NA,Gk4QBztY,2020-0188,2021-09-20,21:49:26,20:08:26,NA,incomplete,true,true,NA,0,26,E21_Q2_ansL.png,left,NA,NA,NA,left,1009.20000000298,true,NA,NA,NA,NA,NA
Gk4QBztY,NA,NA,Gk4QBztY,2020-0188,2021-09-20,21:49:26,20:08:26,NA,incomplete,true,true,NA,0,27,E21_Q8_ansL.png,left,NA,NA,NA,left,1217.09999999404,true,NA,NA,NA,NA,NA
Gk4QBztY,NA,NA,Gk4QBztY,2020-0188,2021-09-20,21:49:26,20:08:26,NA,incomplete,true,true,NA,0,28,E21_Q7_ansL.png,left,NA,NA,NA,left,964.29999999702,true,NA,NA,NA,NA,NA
Gk4QBztY,NA,NA,Gk4QBztY,2020-0188,2021-09-20,21:49:26,20:08:26,NA,incomplete,true,true,NA,0,29,E21_Q5_ansR.png,right,NA,NA,NA,right,1355.09999999404,true,NA,NA,NA,NA,NA
Gk4QBztY,NA,NA,Gk4QBztY,2020-0188,2021-09-20,21:49:26,20:08:26,NA,incomplete,true,NA,true,0,0,NA,right,E20_Q5_ansR.png,E20_Q3_ansR.png,within,NA,NaN,NA,right,3395.5,1,1,1835.9000000059605
Gk4QBztY,NA,NA,Gk4QBztY,2020-0188,2021-09-20,21:49:26,20:08:26,NA,incomplete,true,NA,true,0,1,NA,right,E21_Q8_ansL.png,E21_Q4_ansR.png,within,NA,NaN,NA,left,6493,0,1,3249.199999988079
Gk4QBztY,NA,NA,Gk4QBztY,2020-0188,2021-09-20,21:49:26,20:08:26,NA,incomplete,true,NA,true,0,2,NA,right,E22_Q3_ansL.png,E22_Q6_ansL.png,within,NA,NaN,NA,right,3521,1,1,1817.0999999940395
Gk4QBztY,NA,NA,Gk4QBztY,2020-0188,2021-09-20,21:49:26,20:08:26,NA,incomplete,true,NA,true,0,3,NA,right,E21_Q6_ansR.png,E21_Q1_ansL.png,within,NA,NaN,NA,right,4083.300000011921,1,1,1674.9000000059605
Gk4QBztY,NA,NA,Gk4QBztY,2020-0188,2021-09-20,21:49:26,20:08:26,NA,incomplete,true,NA,true,0,4,NA,right,E20_Q4_ansR.png,E20_Q9_ansR.png,within,NA,NaN,NA,right,1724,1,1,1889.9000000059605
Gk4QBztY,NA,NA,Gk4QBztY,2020-0188,2021-09-20,21:49:26,20:08:26,NA,incomplete,true,NA,true,0,5,NA,left,E22_Q9_ansL.png,E22_Q10_ansR.png,within,NA,NaN,NA,right,1444.3999999910593,0,1,1968.7000000029802
Gk4QBztY,NA,NA,Gk4QBztY,2020-0188,2021-09-20,21:49:26,20:08:26,NA,incomplete,true,NA,true,0,6,NA,right,E22_Q1_ansR.png,E22_Q7_ansR.png,within,NA,NaN,NA,right,1722.6000000089407,1,1,1136.2000000029802
Gk4QBztY,NA,NA,Gk4QBztY,2020-0188,2021-09-20,21:49:26,20:08:26,NA,incomplete,true,NA,true,0,7,NA,left,E20_Q10_ansL.png,E20_Q8_ansL.png,within,NA,NaN,NA,left,1754.7000000029802,1,1,1206.7000000029802
Gk4QBztY,NA,NA,Gk4QBztY,2020-0188,2021-09-20,21:49:26,20:08:26,NA,incomplete,true,NA,true,0,8,NA,right,E22_Q6_ansL.png,E22_Q2_ansR.png,within,NA,NaN,NA,right,3439.2000000029802,1,2,1348.9000000059605
Gk4QBztY,NA,NA,Gk4QBztY,2020-0188,2021-09-20,21:49:26,20:08:26,NA,incomplete,true,NA,true,0,9,NA,right,E20_Q2_ansL.png,E20_Q4_ansR.png,within,NA,NaN,NA,right,1436.9000000059605,1,1,928
Gk4QBztY,NA,NA,Gk4QBztY,2020-0188,2021-09-20,21:49:26,20:08:26,NA,incomplete,true,NA,true,0,10,NA,right,E21_Q1_ansL.png,E20_Q8_ansL.png,between,NA,NaN,NA,right,3296.7999999970198,1,2,1912.800000011921
Gk4QBztY,NA,NA,Gk4QBztY,2020-0188,2021-09-20,21:49:26,20:08:26,NA,incomplete,true,NA,true,0,11,NA,left,E20_Q5_ansR.png,E20_Q10_ansL.png,within,NA,NaN,NA,right,1459.800000011921,0,1,1779.2999999970198
Gk4QBztY,NA,NA,Gk4QBztY,2020-0188,2021-09-20,21:49:26,20:08:26,NA,incomplete,true,NA,true,0,12,NA,left,E21_Q3_ansR.png,E21_Q2_ansL.png,within,NA,NaN,NA,left,1865.5999999940395,1,1,2199.2000000029802
Gk4QBztY,NA,NA,Gk4QBztY,2020-0188,2021-09-20,21:49:26,20:08:26,NA,incomplete,true,NA,true,0,13,NA,right,E22_Q4_ansL.png,E22_Q5_ansL.png,within,NA,NaN,NA,right,1199.0999999940395,1,1,1198.2000000029802
Gk4QBztY,NA,NA,Gk4QBztY,2020-0188,2021-09-20,21:49:26,20:08:26,NA,incomplete,true,NA,true,0,14,NA,right,E20_Q6_ansR.png,E20_Q7_ansL.png,within,NA,NaN,NA,left,2684.5,0,1,1637.9000000059605
Gk4QBztY,NA,NA,Gk4QBztY,2020-0188,2021-09-20,21:49:26,20:08:26,NA,incomplete,true,NA,true,0,15,NA,right,E21_Q9_ansR.png,E20_Q2_ansL.png,between,NA,NaN,NA,right,2557.0999999940395,1,2,1031
Gk4QBztY,NA,NA,Gk4QBztY,2020-0188,2021-09-20,21:49:26,20:08:26,NA,incomplete,true,NA,true,0,16,NA,right,E21_Q4_ansR.png,E21_Q9_ansR.png,within,NA,NaN,NA,right,1316.2999999970198,1,1,1065.0999999940395
Gk4QBztY,NA,NA,Gk4QBztY,2020-0188,2021-09-20,21:49:26,20:08:26,NA,incomplete,true,NA,true,0,17,NA,right,E21_Q3_ansR.png,E21_Q10_ansL.png,within,NA,NaN,NA,right,1237.0999999940395,1,1,1515.7999999970198
Gk4QBztY,NA,NA,Gk4QBztY,2020-0188,2021-09-20,21:49:26,20:08:26,NA,incomplete,true,NA,true,0,18,NA,right,E21_Q5_ansR.png,E21_Q2_ansL.png,within,NA,NaN,NA,right,2151,1,1,1015.4000000059605
Gk4QBztY,NA,NA,Gk4QBztY,2020-0188,2021-09-20,21:49:26,20:08:26,NA,incomplete,true,NA,true,0,19,NA,right,E20_Q7_ansL.png,E20_Q1_ansL.png,within,NA,NaN,NA,left,3034.2000000029802,0,1,1992.3999999910593
Gk4QBztY,NA,NA,Gk4QBztY,2020-0188,2021-09-20,21:49:26,20:08:26,NA,incomplete,true,NA,true,0,20,NA,right,E22_Q7_ansR.png,E22_Q8_ansR.png,within,NA,NaN,NA,right,1769.5,1,1,2445.800000011921
Gk4QBztY,NA,NA,Gk4QBztY,2020-0188,2021-09-20,21:49:26,20:08:26,NA,incomplete,true,NA,true,0,21,NA,left,E22_Q4_ansL.png,E20_Q9_ansR.png,between,NA,NaN,NA,left,1706.0999999940395,1,2,1071.2999999970198
Gk4QBztY,NA,NA,Gk4QBztY,2020-0188,2021-09-20,21:49:26,20:08:26,NA,incomplete,true,NA,true,0,22,NA,left,E22_Q10_ansR.png,E22_Q5_ansL.png,within,NA,NaN,NA,left,2249.5,1,1,1285.2000000029802
Gk4QBztY,NA,NA,Gk4QBztY,2020-0188,2021-09-20,21:49:26,20:08:26,NA,incomplete,true,NA,true,0,23,NA,left,E21_Q6_ansR.png,E21_Q7_ansL.png,within,NA,NaN,NA,right,1643.7000000029802,0,1,1213.8999999910593
Gk4QBztY,NA,NA,Gk4QBztY,2020-0188,2021-09-20,21:49:26,20:08:26,NA,incomplete,true,NA,true,0,24,NA,left,E20_Q6_ansR.png,E21_Q10_ansL.png,between,NA,NaN,NA,right,1278.0999999940395,0,2,2144.300000011921
Gk4QBztY,NA,NA,Gk4QBztY,2020-0188,2021-09-20,21:49:26,20:08:26,NA,incomplete,true,NA,true,0,25,NA,right,E20_Q3_ansR.png,E22_Q1_ansR.png,between,NA,NaN,NA,right,1557.5,1,2,1874.5999999940395
Gk4QBztY,NA,NA,Gk4QBztY,2020-0188,2021-09-20,21:49:26,20:08:26,NA,incomplete,true,NA,true,0,26,NA,right,E20_Q1_ansL.png,E22_Q3_ansL.png,between,NA,NaN,NA,right,1406.199999988079,1,2,1722.5999999940395
Gk4QBztY,NA,NA,Gk4QBztY,2020-0188,2021-09-20,21:49:26,20:08:26,NA,incomplete,false,true,NA,1,0,E28_Q3_ansL.png,left,NA,NA,NA,left,2308.5,true,NA,NA,NA,NA,NA
Gk4QBztY,NA,NA,Gk4QBztY,2020-0188,2021-09-20,21:49:26,20:08:26,NA,incomplete,false,true,NA,1,1,E28_Q1_ansR.png,right,NA,NA,NA,right,1814.70000000298,true,NA,NA,NA,NA,NA
Gk4QBztY,NA,NA,Gk4QBztY,2020-0188,2021-09-20,21:49:26,20:08:26,NA,incomplete,false,true,NA,1,2,E28_Q10_ansR.png,right,NA,NA,NA,right,1753,true,NA,NA,NA,NA,NA
Gk4QBztY,NA,NA,Gk4QBztY,2020-0188,2021-09-20,21:49:26,20:08:26,NA,incomplete,false,true,NA,1,3,E28_Q9_ansL.png,left,NA,NA,NA,left,1618.20000000298,true,NA,NA,NA,NA,NA
Gk4QBztY,NA,NA,Gk4QBztY,2020-0188,2021-09-20,21:49:26,20:08:26,NA,incomplete,false,true,NA,1,4,E28_Q4_ansL.png,left,NA,NA,NA,left,1093.10000000894,true,NA,NA,NA,NA,NA
Gk4QBztY,NA,NA,Gk4QBztY,2020-0188,2021-09-20,21:49:26,20:08:26,NA,incomplete,false,true,NA,1,5,E28_Q2_ansR.png,right,NA,NA,NA,right,1134.39999999106,true,NA,NA,NA,NA,NA
Gk4QBztY,NA,NA,Gk4QBztY,2020-0188,2021-09-20,21:49:26,20:08:26,NA,incomplete,false,true,NA,1,6,E28_Q6_ansL.png,left,NA,NA,NA,left,1653.39999999106,true,NA,NA,NA,NA,NA
Gk4QBztY,NA,NA,Gk4QBztY,2020-0188,2021-09-20,21:49:26,20:08:26,NA,incomplete,false,true,NA,1,7,E28_Q5_ansL.png,left,NA,NA,NA,left,1237,true,NA,NA,NA,NA,NA
Gk4QBztY,NA,NA,Gk4QBztY,2020-0188,2021-09-20,21:49:26,20:08:26,NA,incomplete,false,true,NA,1,8,E28_Q8_ansR.png,right,NA,NA,NA,right,953.5,true,NA,NA,NA,NA,NA
Gk4QBztY,NA,NA,Gk4QBztY,2020-0188,2021-09-20,21:49:26,20:08:26,NA,incomplete,false,true,NA,1,9,E28_Q7_ansR.png,right,NA,NA,NA,right,1069.90000000596,true,NA,NA,NA,NA,NA
Gk4QBztY,NA,NA,Gk4QBztY,2020-0188,2021-09-20,21:49:26,20:08:26,NA,incomplete,false,true,NA,1,10,E17_Q4_ansR.png,right,NA,NA,NA,right,2375.09999999404,true,NA,NA,NA,NA,NA
Gk4QBztY,NA,NA,Gk4QBztY,2020-0188,2021-09-20,21:49:26,20:08:26,NA,incomplete,false,true,NA,1,11,E17_Q2_ansL.png,left,NA,NA,NA,left,1449,true,NA,NA,NA,NA,NA
Gk4QBztY,NA,NA,Gk4QBztY,2020-0188,2021-09-20,21:49:26,20:08:26,NA,incomplete,false,true,NA,1,12,E17_Q6_ansR.png,right,NA,NA,NA,right,1075.39999999106,true,NA,NA,NA,NA,NA
Gk4QBztY,NA,NA,Gk4QBztY,2020-0188,2021-09-20,21:49:26,20:08:26,NA,incomplete,false,true,NA,1,13,E17_Q5_ansR.png,right,NA,NA,NA,right,1409.29999999702,true,NA,NA,NA,NA,NA
Gk4QBztY,NA,NA,Gk4QBztY,2020-0188,2021-09-20,21:49:26,20:08:26,NA,incomplete,false,true,NA,1,14,E17_Q8_ansL.png,left,NA,NA,NA,left,1173.40000000596,true,NA,NA,NA,NA,NA
Gk4QBztY,NA,NA,Gk4QBztY,2020-0188,2021-09-20,21:49:26,20:08:26,NA,incomplete,false,true,NA,1,15,E17_Q1_ansL.png,left,NA,NA,NA,left,1732.79999999702,true,NA,NA,NA,NA,NA
Gk4QBztY,NA,NA,Gk4QBztY,2020-0188,2021-09-20,21:49:26,20:08:26,NA,incomplete,false,true,NA,1,16,E17_Q3_ansR.png,right,NA,NA,NA,right,1439.29999999702,true,NA,NA,NA,NA,NA
Gk4QBztY,NA,NA,Gk4QBztY,2020-0188,2021-09-20,21:49:26,20:08:26,NA,incomplete,false,true,NA,1,17,E17_Q10_ansL.png,left,NA,NA,NA,left,1841.5,true,NA,NA,NA,NA,NA
Gk4QBztY,NA,NA,Gk4QBztY,2020-0188,2021-09-20,21:49:26,20:08:26,NA,incomplete,false,true,NA,1,18,E17_Q9_ansR.png,right,NA,NA,NA,right,2030.89999999106,true,NA,NA,NA,NA,NA
Gk4QBztY,NA,NA,Gk4QBztY,2020-0188,2021-09-20,21:49:26,20:08:26,NA,incomplete,false,true,NA,1,19,E17_Q7_ansL.png,left,NA,NA,NA,left,1195,true,NA,NA,NA,NA,NA
Gk4QBztY,NA,NA,Gk4QBztY,2020-0188,2021-09-20,21:49:26,20:08:26,NA,incomplete,false,true,NA,1,20,E16_Q2_ansR.png,right,NA,NA,NA,right,1690.60000000894,true,NA,NA,NA,NA,NA
Gk4QBztY,NA,NA,Gk4QBztY,2020-0188,2021-09-20,21:49:26,20:08:26,NA,incomplete,false,true,NA,1,21,E16_Q1_ansR.png,right,NA,NA,NA,right,985.90000000596,true,NA,NA,NA,NA,NA
Gk4QBztY,NA,NA,Gk4QBztY,2020-0188,2021-09-20,21:49:26,20:08:26,NA,incomplete,false,true,NA,1,22,E16_Q6_ansL.png,left,NA,NA,NA,left,1298,true,NA,NA,NA,NA,NA
Gk4QBztY,NA,NA,Gk4QBztY,2020-0188,2021-09-20,21:49:26,20:08:26,NA,incomplete,false,true,NA,1,23,E16_Q5_ansL.png,left,NA,NA,NA,left,2035,true,NA,NA,NA,NA,NA
Gk4QBztY,NA,NA,Gk4QBztY,2020-0188,2021-09-20,21:49:26,20:08:26,NA,incomplete,false,true,NA,1,24,E16_Q3_ansL.png,left,NA,NA,NA,left,1385.59999999404,true,NA,NA,NA,NA,NA
Gk4QBztY,NA,NA,Gk4QBztY,2020-0188,2021-09-20,21:49:26,20:08:26,NA,incomplete,false,true,NA,1,25,E16_Q7_ansR.png,right,NA,NA,NA,right,1356,true,NA,NA,NA,NA,NA
Gk4QBztY,NA,NA,Gk4QBztY,2020-0188,2021-09-20,21:49:26,20:08:26,NA,incomplete,false,true,NA,1,26,E16_Q9_ansL.png,left,NA,NA,NA,left,1204.10000000894,true,NA,NA,NA,NA,NA
Gk4QBztY,NA,NA,Gk4QBztY,2020-0188,2021-09-20,21:49:26,20:08:26,NA,incomplete,false,true,NA,1,27,E16_Q10_ansR.png,right,NA,NA,NA,right,1512.39999999106,true,NA,NA,NA,NA,NA
Gk4QBztY,NA,NA,Gk4QBztY,2020-0188,2021-09-20,21:49:26,20:08:26,NA,incomplete,false,true,NA,1,28,E16_Q4_ansL.png,left,NA,NA,NA,left,960.29999999702,true,NA,NA,NA,NA,NA
Gk4QBztY,NA,NA,Gk4QBztY,2020-0188,2021-09-20,21:49:26,20:08:26,NA,incomplete,false,true,NA,1,29,E16_Q8_ansR.png,right,NA,NA,NA,left,1365.5,false,NA,NA,NA,NA,NA
Gk4QBztY,NA,NA,Gk4QBztY,2020-0188,2021-09-20,21:49:26,20:08:26,NA,incomplete,false,NA,true,1,0,NA,left,E17_Q6_ansR.png,E17_Q1_ansL.png,within,NA,NaN,NA,right,4769.899999991059,0,1,1306.2999999970198
Gk4QBztY,NA,NA,Gk4QBztY,2020-0188,2021-09-20,21:49:26,20:08:26,NA,incomplete,false,NA,true,1,1,NA,left,E17_Q8_ansL.png,E17_Q10_ansL.png,within,NA,NaN,NA,left,3024.699999988079,1,1,1077
Gk4QBztY,NA,NA,Gk4QBztY,2020-0188,2021-09-20,21:49:26,20:08:26,NA,incomplete,false,NA,true,1,2,NA,left,E16_Q1_ansR.png,E16_Q3_ansL.png,within,NA,NaN,NA,left,2421,1,1,2361.300000011921
Gk4QBztY,NA,NA,Gk4QBztY,2020-0188,2021-09-20,21:49:26,20:08:26,NA,incomplete,false,NA,true,1,3,NA,left,E17_Q10_ansL.png,E16_Q2_ansR.png,between,NA,NaN,NA,left,2914.9000000059605,1,2,968.5
Gk4QBztY,NA,NA,Gk4QBztY,2020-0188,2021-09-20,21:49:26,20:08:26,NA,incomplete,false,NA,true,1,4,NA,right,E17_Q3_ansR.png,E17_Q5_ansR.png,within,NA,NaN,NA,left,3845.9000000059605,0,1,1245.0999999940395
Gk4QBztY,NA,NA,Gk4QBztY,2020-0188,2021-09-20,21:49:26,20:08:26,NA,incomplete,false,NA,true,1,5,NA,right,E16_Q9_ansL.png,E16_Q5_ansL.png,within,NA,NaN,NA,left,2788.199999988079,0,1,1499.8999999910593
Gk4QBztY,NA,NA,Gk4QBztY,2020-0188,2021-09-20,21:49:26,20:08:26,NA,incomplete,false,NA,true,1,6,NA,left,E28_Q9_ansL.png,E28_Q6_ansL.png,within,NA,NaN,NA,left,2223.7000000029802,1,1,1023.7000000029802
Gk4QBztY,NA,NA,Gk4QBztY,2020-0188,2021-09-20,21:49:26,20:08:26,NA,incomplete,false,NA,true,1,7,NA,left,E16_Q3_ansL.png,E16_Q10_ansR.png,within,NA,NaN,NA,left,2827.2999999970198,1,1,1015.2000000029802
Gk4QBztY,NA,NA,Gk4QBztY,2020-0188,2021-09-20,21:49:26,20:08:26,NA,incomplete,false,NA,true,1,8,NA,right,E16_Q8_ansR.png,E16_Q9_ansL.png,within,NA,NaN,NA,right,2104.2000000029802,1,1,1444.7999999970198
Gk4QBztY,NA,NA,Gk4QBztY,2020-0188,2021-09-20,21:49:26,20:08:26,NA,incomplete,false,NA,true,1,9,NA,right,E16_Q5_ansL.png,E16_Q2_ansR.png,within,NA,NaN,NA,left,2390.0999999940395,0,1,945.2000000029802
Gk4QBztY,NA,NA,Gk4QBztY,2020-0188,2021-09-20,21:49:26,20:08:26,NA,incomplete,false,NA,true,1,10,NA,right,E16_Q4_ansL.png,E16_Q7_ansR.png,within,NA,NaN,NA,right,2527.0999999940395,1,1,1532.5999999940395
Gk4QBztY,NA,NA,Gk4QBztY,2020-0188,2021-09-20,21:49:26,20:08:26,NA,incomplete,false,NA,true,1,11,NA,right,E16_Q1_ansR.png,E17_Q9_ansR.png,between,NA,NaN,NA,right,1666.7999999970198,1,2,1110.2999999970198
Gk4QBztY,NA,NA,Gk4QBztY,2020-0188,2021-09-20,21:49:26,20:08:26,NA,incomplete,false,NA,true,1,12,NA,left,E28_Q7_ansR.png,E17_Q6_ansR.png,between,NA,NaN,NA,left,2343.5,1,1,1141.2999999970198
Gk4QBztY,NA,NA,Gk4QBztY,2020-0188,2021-09-20,21:49:26,20:08:26,NA,incomplete,false,NA,true,1,13,NA,right,E17_Q4_ansR.png,E28_Q5_ansL.png,between,NA,NaN,NA,left,2883.7000000029802,0,1,904.4000000059605
Gk4QBztY,NA,NA,Gk4QBztY,2020-0188,2021-09-20,21:49:26,20:08:26,NA,incomplete,false,NA,true,1,14,NA,left,E17_Q7_ansL.png,E16_Q6_ansL.png,between,NA,NaN,NA,left,1729.0999999940395,1,2,1198.7999999970198
Gk4QBztY,NA,NA,Gk4QBztY,2020-0188,2021-09-20,21:49:26,20:08:26,NA,incomplete,false,NA,true,1,15,NA,left,E28_Q10_ansR.png,E28_Q2_ansR.png,within,NA,NaN,NA,right,1991.5999999940395,0,1,1078.7000000029802
Gk4QBztY,NA,NA,Gk4QBztY,2020-0188,2021-09-20,21:49:26,20:08:26,NA,incomplete,false,NA,true,1,16,NA,left,E28_Q8_ansR.png,E17_Q2_ansL.png,between,NA,NaN,NA,left,2820.5999999940395,1,1,1158.5
Gk4QBztY,NA,NA,Gk4QBztY,2020-0188,2021-09-20,21:49:26,20:08:26,NA,incomplete,false,NA,true,1,17,NA,right,E28_Q8_ansR.png,E28_Q2_ansR.png,within,NA,NaN,NA,right,1148.7999999970198,1,1,1731.5999999940395
Gk4QBztY,NA,NA,Gk4QBztY,2020-0188,2021-09-20,21:49:26,20:08:26,NA,incomplete,false,NA,true,1,18,NA,right,E17_Q5_ansR.png,E17_Q4_ansR.png,within,NA,NaN,NA,left,2048.5999999940395,0,1,959
Gk4QBztY,NA,NA,Gk4QBztY,2020-0188,2021-09-20,21:49:26,20:08:26,NA,incomplete,false,NA,true,1,19,NA,right,E17_Q8_ansL.png,E17_Q2_ansL.png,within,NA,NaN,NA,left,1889.4000000059605,0,1,1968.7999999970198
Gk4QBztY,NA,NA,Gk4QBztY,2020-0188,2021-09-20,21:49:26,20:08:26,NA,incomplete,false,NA,true,1,20,NA,right,E28_Q7_ansR.png,E28_Q6_ansL.png,within,NA,NaN,NA,right,1659.7000000029802,1,1,1238.199999988079
Gk4QBztY,NA,NA,Gk4QBztY,2020-0188,2021-09-20,21:49:26,20:08:26,NA,incomplete,false,NA,true,1,21,NA,right,E17_Q9_ansR.png,E17_Q1_ansL.png,within,NA,NaN,NA,right,2087.9000000059605,1,1,1491.5
Gk4QBztY,NA,NA,Gk4QBztY,2020-0188,2021-09-20,21:49:26,20:08:26,NA,incomplete,false,NA,true,1,22,NA,left,E17_Q3_ansR.png,E17_Q7_ansL.png,within,NA,NaN,NA,right,2246.2999999970198,0,1,1477
Gk4QBztY,NA,NA,Gk4QBztY,2020-0188,2021-09-20,21:49:26,20:08:26,NA,incomplete,false,NA,true,1,23,NA,left,E28_Q3_ansL.png,E28_Q9_ansL.png,within,NA,NaN,NA,left,1777.8999999910593,1,1,1555.4000000059605
Gk4QBztY,NA,NA,Gk4QBztY,2020-0188,2021-09-20,21:49:26,20:08:26,NA,incomplete,false,NA,true,1,24,NA,left,E16_Q6_ansL.png,E16_Q7_ansR.png,within,NA,NaN,NA,left,2589.7999999970198,1,1,1277.4000000059605
Gk4QBztY,NA,NA,Gk4QBztY,2020-0188,2021-09-20,21:49:26,20:08:26,NA,incomplete,false,NA,true,1,25,NA,left,E28_Q4_ansL.png,E28_Q5_ansL.png,within,NA,NaN,NA,left,2176,1,1,1010.1000000089407
Gk4QBztY,NA,NA,Gk4QBztY,2020-0188,2021-09-20,21:49:26,20:08:26,NA,incomplete,false,NA,true,1,26,NA,left,E28_Q1_ansR.png,E28_Q4_ansL.png,within,NA,NaN,NA,left,1373.5999999940395,1,1,3193.800000011921
Gk4QBztY,NA,NA,Gk4QBztY,2020-0188,2021-09-20,21:49:26,20:08:26,NA,incomplete,false,true,NA,2,0,E27_Q5_ansR.png,right,NA,NA,NA,right,1766.5,true,NA,NA,NA,NA,NA
Gk4QBztY,NA,NA,Gk4QBztY,2020-0188,2021-09-20,21:49:26,20:08:26,NA,incomplete,false,true,NA,2,1,E27_Q9_ansR.png,right,NA,NA,NA,right,1500.80000001192,true,NA,NA,NA,NA,NA
Gk4QBztY,NA,NA,Gk4QBztY,2020-0188,2021-09-20,21:49:26,20:08:26,NA,incomplete,false,true,NA,2,2,E27_Q2_ansL.png,left,NA,NA,NA,left,1689.89999999106,true,NA,NA,NA,NA,NA
Gk4QBztY,NA,NA,Gk4QBztY,2020-0188,2021-09-20,21:49:26,20:08:26,NA,incomplete,false,true,NA,2,3,E27_Q6_ansR.png,right,NA,NA,NA,right,1254.29999999702,true,NA,NA,NA,NA,NA
Gk4QBztY,NA,NA,Gk4QBztY,2020-0188,2021-09-20,21:49:26,20:08:26,NA,incomplete,false,true,NA,2,4,E27_Q10_ansL.png,left,NA,NA,NA,left,1262.09999999404,true,NA,NA,NA,NA,NA
Gk4QBztY,NA,NA,Gk4QBztY,2020-0188,2021-09-20,21:49:26,20:08:26,NA,incomplete,false,true,NA,2,5,E27_Q4_ansR.png,right,NA,NA,NA,right,1146,true,NA,NA,NA,NA,NA
Gk4QBztY,NA,NA,Gk4QBztY,2020-0188,2021-09-20,21:49:26,20:08:26,NA,incomplete,false,true,NA,2,6,E27_Q3_ansR.png,right,NA,NA,NA,right,977.90000000596,true,NA,NA,NA,NA,NA
Gk4QBztY,NA,NA,Gk4QBztY,2020-0188,2021-09-20,21:49:26,20:08:26,NA,incomplete,false,true,NA,2,7,E27_Q8_ansL.png,left,NA,NA,NA,left,941.699999988079,true,NA,NA,NA,NA,NA
Gk4QBztY,NA,NA,Gk4QBztY,2020-0188,2021-09-20,21:49:26,20:08:26,NA,incomplete,false,true,NA,2,8,E27_Q1_ansL.png,left,NA,NA,NA,left,1066.79999999702,true,NA,NA,NA,NA,NA
Gk4QBztY,NA,NA,Gk4QBztY,2020-0188,2021-09-20,21:49:26,20:08:26,NA,incomplete,false,true,NA,2,9,E27_Q7_ansL.png,left,NA,NA,NA,left,1038.60000000894,true,NA,NA,NA,NA,NA
Gk4QBztY,NA,NA,Gk4QBztY,2020-0188,2021-09-20,21:49:26,20:08:26,NA,incomplete,false,true,NA,2,10,E19_Q9_ansR.png,right,NA,NA,NA,right,2489.19999998808,true,NA,NA,NA,NA,NA
Gk4QBztY,NA,NA,Gk4QBztY,2020-0188,2021-09-20,21:49:26,20:08:26,NA,incomplete,false,true,NA,2,11,E19_Q5_ansR.png,right,NA,NA,NA,right,1304.10000000894,true,NA,NA,NA,NA,NA
Gk4QBztY,NA,NA,Gk4QBztY,2020-0188,2021-09-20,21:49:26,20:08:26,NA,incomplete,false,true,NA,2,12,E19_Q4_ansR.png,right,NA,NA,NA,right,1212.40000000596,true,NA,NA,NA,NA,NA
Gk4QBztY,NA,NA,Gk4QBztY,2020-0188,2021-09-20,21:49:26,20:08:26,NA,incomplete,false,true,NA,2,13,E19_Q6_ansR.png,right,NA,NA,NA,right,1462.79999999702,true,NA,NA,NA,NA,NA
Gk4QBztY,NA,NA,Gk4QBztY,2020-0188,2021-09-20,21:49:26,20:08:26,NA,incomplete,false,true,NA,2,14,E19_Q7_ansL.png,left,NA,NA,NA,left,1669.90000000596,true,NA,NA,NA,NA,NA
Gk4QBztY,NA,NA,Gk4QBztY,2020-0188,2021-09-20,21:49:26,20:08:26,NA,incomplete,false,true,NA,2,15,E19_Q8_ansL.png,left,NA,NA,NA,left,1421.09999999404,true,NA,NA,NA,NA,NA
Gk4QBztY,NA,NA,Gk4QBztY,2020-0188,2021-09-20,21:49:26,20:08:26,NA,incomplete,false,true,NA,2,16,E19_Q10_ansL.png,left,NA,NA,NA,left,1828,true,NA,NA,NA,NA,NA
Gk4QBztY,NA,NA,Gk4QBztY,2020-0188,2021-09-20,21:49:26,20:08:26,NA,incomplete,false,true,NA,2,17,E19_Q2_ansL.png,left,NA,NA,NA,left,1234.40000000596,true,NA,NA,NA,NA,NA
Gk4QBztY,NA,NA,Gk4QBztY,2020-0188,2021-09-20,21:49:26,20:08:26,NA,incomplete,false,true,NA,2,18,E19_Q3_ansR.png,right,NA,NA,NA,right,1875.29999999702,true,NA,NA,NA,NA,NA
Gk4QBztY,NA,NA,Gk4QBztY,2020-0188,2021-09-20,21:49:26,20:08:26,NA,incomplete,false,true,NA,2,19,E19_Q1_ansL.png,left,NA,NA,NA,left,1123.39999999106,true,NA,NA,NA,NA,NA
Gk4QBztY,NA,NA,Gk4QBztY,2020-0188,2021-09-20,21:49:26,20:08:26,NA,incomplete,false,true,NA,2,20,E10_Q7_ansR.png,right,NA,NA,NA,left,2321.29999999702,false,NA,NA,NA,NA,NA
Gk4QBztY,NA,NA,Gk4QBztY,2020-0188,2021-09-20,21:49:26,20:08:26,NA,incomplete,false,true,NA,2,21,E10_Q5_ansR.png,right,NA,NA,NA,left,2799.40000000596,false,NA,NA,NA,NA,NA
Gk4QBztY,NA,NA,Gk4QBztY,2020-0188,2021-09-20,21:49:26,20:08:26,NA,incomplete,false,true,NA,2,22,E10_Q9_ansL.png,left,NA,NA,NA,left,2840,true,NA,NA,NA,NA,NA
Gk4QBztY,NA,NA,Gk4QBztY,2020-0188,2021-09-20,21:49:26,20:08:26,NA,incomplete,false,true,NA,2,23,E10_Q1_ansL.png,left,NA,NA,NA,left,3460,true,NA,NA,NA,NA,NA
Gk4QBztY,NA,NA,Gk4QBztY,2020-0188,2021-09-20,21:49:26,20:08:26,NA,incomplete,false,true,NA,2,24,E10_Q8_ansR.png,right,NA,NA,NA,left,3085.29999999702,false,NA,NA,NA,NA,NA
Gk4QBztY,NA,NA,Gk4QBztY,2020-0188,2021-09-20,21:49:26,20:08:26,NA,incomplete,false,true,NA,2,25,E10_Q2_ansL.png,left,NA,NA,NA,left,2379.79999999702,true,NA,NA,NA,NA,NA
Gk4QBztY,NA,NA,Gk4QBztY,2020-0188,2021-09-20,21:49:26,20:08:26,NA,incomplete,false,true,NA,2,26,E10_Q3_ansL.png,left,NA,NA,NA,right,2928.09999999404,false,NA,NA,NA,NA,NA
Gk4QBztY,NA,NA,Gk4QBztY,2020-0188,2021-09-20,21:49:26,20:08:26,NA,incomplete,false,true,NA,2,27,E10_Q10_ansR.png,right,NA,NA,NA,right,2361.5,true,NA,NA,NA,NA,NA
Gk4QBztY,NA,NA,Gk4QBztY,2020-0188,2021-09-20,21:49:26,20:08:26,NA,incomplete,false,true,NA,2,28,E10_Q4_ansL.png,left,NA,NA,NA,none,0,false,NA,NA,NA,NA,NA
Gk4QBztY,NA,NA,Gk4QBztY,2020-0188,2021-09-20,21:49:26,20:08:26,NA,incomplete,false,true,NA,2,29,E10_Q6_ansR.png,right,NA,NA,NA,right,2258.90000000596,true,NA,NA,NA,NA,NA
Gk4QBztY,NA,NA,Gk4QBztY,2020-0188,2021-09-20,21:49:26,20:08:26,NA,incomplete,false,NA,true,2,0,NA,left,E19_Q4_ansR.png,E19_Q8_ansL.png,within,NA,NaN,NA,right,3229.8999999910593,0,1,2001.7000000029802
Gk4QBztY,NA,NA,Gk4QBztY,2020-0188,2021-09-20,21:49:26,20:08:26,NA,incomplete,false,NA,true,2,1,NA,left,E27_Q5_ansR.png,E27_Q6_ansR.png,within,NA,NaN,NA,left,3034.7000000029802,1,1,1374
Gk4QBztY,NA,NA,Gk4QBztY,2020-0188,2021-09-20,21:49:26,20:08:26,NA,incomplete,false,NA,true,2,2,NA,right,E19_Q9_ansR.png,E27_Q8_ansL.png,between,NA,NaN,NA,right,1412.7999999970198,1,2,1953.7000000029802
Gk4QBztY,NA,NA,Gk4QBztY,2020-0188,2021-09-20,21:49:26,20:08:26,NA,incomplete,false,NA,true,2,3,NA,left,E19_Q7_ansL.png,E19_Q2_ansL.png,within,NA,NaN,NA,right,1675,0,1,1174.2999999970198
Gk4QBztY,NA,NA,Gk4QBztY,2020-0188,2021-09-20,21:49:26,20:08:26,NA,incomplete,false,NA,true,2,4,NA,right,E10_Q1_ansL.png,E10_Q7_ansR.png,within,NA,NaN,NA,right,3757.4000000059605,1,1,1730.5999999940395
Gk4QBztY,NA,NA,Gk4QBztY,2020-0188,2021-09-20,21:49:26,20:08:26,NA,incomplete,false,NA,true,2,5,NA,left,E10_Q1_ansL.png,E10_Q3_ansL.png,within,NA,NaN,NA,left,2588.6000000089407,1,1,1126.2999999970198
Gk4QBztY,NA,NA,Gk4QBztY,2020-0188,2021-09-20,21:49:26,20:08:26,NA,incomplete,false,NA,true,2,6,NA,right,E19_Q1_ansL.png,E19_Q10_ansL.png,within,NA,NaN,NA,left,2351.7000000029802,0,1,1054.4000000059605
Gk4QBztY,NA,NA,Gk4QBztY,2020-0188,2021-09-20,21:49:26,20:08:26,NA,incomplete,false,NA,true,2,7,NA,left,E19_Q9_ansR.png,E19_Q6_ansR.png,within,NA,NaN,NA,left,2349.7000000029802,1,1,1549
Gk4QBztY,NA,NA,Gk4QBztY,2020-0188,2021-09-20,21:49:26,20:08:26,NA,incomplete,false,NA,true,2,8,NA,left,E19_Q2_ansL.png,E10_Q7_ansR.png,between,NA,NaN,NA,left,3288.4000000059605,1,2,4817.300000011921
Gk4QBztY,NA,NA,Gk4QBztY,2020-0188,2021-09-20,21:49:26,20:08:26,NA,incomplete,false,NA,true,2,9,NA,right,E10_Q5_ansR.png,E19_Q3_ansR.png,between,NA,NaN,NA,right,6226,1,1,1785.5999999940395
Gk4QBztY,NA,NA,Gk4QBztY,2020-0188,2021-09-20,21:49:26,20:08:26,NA,incomplete,false,NA,true,2,10,NA,left,E19_Q1_ansL.png,E10_Q9_ansL.png,between,NA,NaN,NA,left,2184.2000000029802,1,1,3043.6000000089407
Gk4QBztY,NA,NA,Gk4QBztY,2020-0188,2021-09-20,21:49:26,20:08:26,NA,incomplete,false,NA,true,2,11,NA,left,E27_Q9_ansR.png,E27_Q10_ansL.png,within,NA,NaN,NA,right,2915.5999999940395,0,1,1389.199999988079
Gk4QBztY,NA,NA,Gk4QBztY,2020-0188,2021-09-20,21:49:26,20:08:26,NA,incomplete,false,NA,true,2,12,NA,left,E27_Q3_ansR.png,E27_Q7_ansL.png,within,NA,NaN,NA,right,1619.2999999970198,0,1,1755.0999999940395
Gk4QBztY,NA,NA,Gk4QBztY,2020-0188,2021-09-20,21:49:26,20:08:26,NA,incomplete,false,NA,true,2,13,NA,left,E10_Q2_ansL.png,E10_Q4_ansL.png,within,NA,NaN,NA,right,1635.4000000059605,0,1,1531.4000000059605
Gk4QBztY,NA,NA,Gk4QBztY,2020-0188,2021-09-20,21:49:26,20:08:26,NA,incomplete,false,NA,true,2,14,NA,left,E27_Q4_ansR.png,E27_Q1_ansL.png,within,NA,NaN,NA,left,1850.2000000029802,1,1,1230
Gk4QBztY,NA,NA,Gk4QBztY,2020-0188,2021-09-20,21:49:26,20:08:26,NA,incomplete,false,NA,true,2,15,NA,left,E10_Q8_ansR.png,E10_Q10_ansR.png,within,NA,NaN,NA,right,1484.7999999970198,0,1,1396.7999999970198
Gk4QBztY,NA,NA,Gk4QBztY,2020-0188,2021-09-20,21:49:26,20:08:26,NA,incomplete,false,NA,true,2,16,NA,right,E27_Q3_ansR.png,E27_Q6_ansR.png,within,NA,NaN,NA,right,1530.8999999910593,1,1,1215.5
Gk4QBztY,NA,NA,Gk4QBztY,2020-0188,2021-09-20,21:49:26,20:08:26,NA,incomplete,false,NA,true,2,17,NA,right,E27_Q8_ansL.png,E27_Q10_ansL.png,within,NA,NaN,NA,right,1335,1,2,3432
Gk4QBztY,NA,NA,Gk4QBztY,2020-0188,2021-09-20,21:49:26,20:08:26,NA,incomplete,false,NA,true,2,18,NA,left,E19_Q6_ansR.png,E19_Q10_ansL.png,within,NA,NaN,NA,left,3511.7000000029802,1,1,1546.6000000089407
Gk4QBztY,NA,NA,Gk4QBztY,2020-0188,2021-09-20,21:49:26,20:08:26,NA,incomplete,false,NA,true,2,19,NA,right,E19_Q5_ansR.png,E27_Q1_ansL.png,between,NA,NaN,NA,right,2144,1,2,1659.5
Gk4QBztY,NA,NA,Gk4QBztY,2020-0188,2021-09-20,21:49:26,20:08:26,NA,incomplete,false,NA,true,2,20,NA,right,E10_Q2_ansL.png,E10_Q9_ansL.png,within,NA,NaN,NA,right,1332.7999999970198,1,1,1372.7999999970198
Gk4QBztY,NA,NA,Gk4QBztY,2020-0188,2021-09-20,21:49:26,20:08:26,NA,incomplete,false,NA,true,2,21,NA,right,E19_Q7_ansL.png,E19_Q5_ansR.png,within,NA,NaN,NA,right,1522.4000000059605,1,1,1087.3999999910593
Gk4QBztY,NA,NA,Gk4QBztY,2020-0188,2021-09-20,21:49:26,20:08:26,NA,incomplete,false,NA,true,2,22,NA,left,E27_Q7_ansL.png,E19_Q4_ansR.png,between,NA,NaN,NA,left,2001.2999999970198,1,2,928.2000000029802
Gk4QBztY,NA,NA,Gk4QBztY,2020-0188,2021-09-20,21:49:26,20:08:26,NA,incomplete,false,NA,true,2,23,NA,left,E10_Q5_ansR.png,E10_Q8_ansR.png,within,NA,NaN,NA,left,2358.9000000059605,1,1,1547.7999999970198
Gk4QBztY,NA,NA,Gk4QBztY,2020-0188,2021-09-20,21:49:26,20:08:26,NA,incomplete,false,NA,true,2,24,NA,left,E10_Q3_ansL.png,E10_Q6_ansR.png,within,NA,NaN,NA,right,2709,0,1,2088.6000000089407
Gk4QBztY,NA,NA,Gk4QBztY,2020-0188,2021-09-20,21:49:26,20:08:26,NA,incomplete,false,NA,true,2,25,NA,left,E27_Q2_ansL.png,E27_Q4_ansR.png,within,NA,NaN,NA,right,2389,0,1,1691.5
Gk4QBztY,NA,NA,Gk4QBztY,2020-0188,2021-09-20,21:49:26,20:08:26,NA,incomplete,false,NA,true,2,26,NA,left,E19_Q8_ansL.png,E19_Q3_ansR.png,within,NA,NaN,NA,left,2137.0999999940395,1,1,1287.5
Gk4QBztY,NA,NA,Gk4QBztY,2020-0188,2021-09-20,21:49:26,20:08:26,NA,incomplete,false,true,NA,3,0,E4_Q7_ansR.png,right,NA,NA,NA,right,2925.79999999702,true,NA,NA,NA,NA,NA
Gk4QBztY,NA,NA,Gk4QBztY,2020-0188,2021-09-20,21:49:26,20:08:26,NA,incomplete,false,true,NA,3,1,E4_Q2_ansL.png,left,NA,NA,NA,left,2318.59999999404,true,NA,NA,NA,NA,NA
Gk4QBztY,NA,NA,Gk4QBztY,2020-0188,2021-09-20,21:49:26,20:08:26,NA,incomplete,false,true,NA,3,2,E4_Q3_ansL.png,left,NA,NA,NA,left,1633.89999999106,true,NA,NA,NA,NA,NA
Gk4QBztY,NA,NA,Gk4QBztY,2020-0188,2021-09-20,21:49:26,20:08:26,NA,incomplete,false,true,NA,3,3,E4_Q10_ansR.png,right,NA,NA,NA,right,1519.40000000596,true,NA,NA,NA,NA,NA
Gk4QBztY,NA,NA,Gk4QBztY,2020-0188,2021-09-20,21:49:26,20:08:26,NA,incomplete,false,true,NA,3,4,E4_Q1_ansL.png,left,NA,NA,NA,left,1440,true,NA,NA,NA,NA,NA
Gk4QBztY,NA,NA,Gk4QBztY,2020-0188,2021-09-20,21:49:26,20:08:26,NA,incomplete,false,true,NA,3,5,E4_Q6_ansR.png,right,NA,NA,NA,right,1456.20000000298,true,NA,NA,NA,NA,NA
Gk4QBztY,NA,NA,Gk4QBztY,2020-0188,2021-09-20,21:49:26,20:08:26,NA,incomplete,false,true,NA,3,6,E4_Q4_ansL.png,left,NA,NA,NA,right,1372.70000000298,false,NA,NA,NA,NA,NA
Gk4QBztY,NA,NA,Gk4QBztY,2020-0188,2021-09-20,21:49:26,20:08:26,NA,incomplete,false,true,NA,3,7,E4_Q9_ansL.png,left,NA,NA,NA,left,1250.90000000596,true,NA,NA,NA,NA,NA
Gk4QBztY,NA,NA,Gk4QBztY,2020-0188,2021-09-20,21:49:26,20:08:26,NA,incomplete,false,true,NA,3,8,E4_Q8_ansR.png,right,NA,NA,NA,right,1609.19999998808,true,NA,NA,NA,NA,NA
Gk4QBztY,NA,NA,Gk4QBztY,2020-0188,2021-09-20,21:49:26,20:08:26,NA,incomplete,false,true,NA,3,9,E4_Q5_ansR.png,right,NA,NA,NA,right,1703.39999999106,true,NA,NA,NA,NA,NA
Gk4QBztY,NA,NA,Gk4QBztY,2020-0188,2021-09-20,21:49:26,20:08:26,NA,incomplete,false,true,NA,3,10,E14_Q3_ansR.png,right,NA,NA,NA,right,1634.69999998808,true,NA,NA,NA,NA,NA
Gk4QBztY,NA,NA,Gk4QBztY,2020-0188,2021-09-20,21:49:26,20:08:26,NA,incomplete,false,true,NA,3,11,E14_Q2_ansL.png,left,NA,NA,NA,left,1237.20000000298,true,NA,NA,NA,NA,NA
Gk4QBztY,NA,NA,Gk4QBztY,2020-0188,2021-09-20,21:49:26,20:08:26,NA,incomplete,false,true,NA,3,12,E14_Q5_ansR.png,right,NA,NA,NA,left,1227.10000000894,false,NA,NA,NA,NA,NA
Gk4QBztY,NA,NA,Gk4QBztY,2020-0188,2021-09-20,21:49:26,20:08:26,NA,incomplete,false,true,NA,3,13,E14_Q4_ansR.png,right,NA,NA,NA,right,1203.60000000894,true,NA,NA,NA,NA,NA
Gk4QBztY,NA,NA,Gk4QBztY,2020-0188,2021-09-20,21:49:26,20:08:26,NA,incomplete,false,true,NA,3,14,E14_Q8_ansL.png,left,NA,NA,NA,right,2495,false,NA,NA,NA,NA,NA
Gk4QBztY,NA,NA,Gk4QBztY,2020-0188,2021-09-20,21:49:26,20:08:26,NA,incomplete,false,true,NA,3,15,E14_Q6_ansR.png,right,NA,NA,NA,left,1497,false,NA,NA,NA,NA,NA
Gk4QBztY,NA,NA,Gk4QBztY,2020-0188,2021-09-20,21:49:26,20:08:26,NA,incomplete,false,true,NA,3,16,E14_Q9_ansR.png,right,NA,NA,NA,right,1292.29999999702,true,NA,NA,NA,NA,NA
Gk4QBztY,NA,NA,Gk4QBztY,2020-0188,2021-09-20,21:49:26,20:08:26,NA,incomplete,false,true,NA,3,17,E14_Q10_ansL.png,left,NA,NA,NA,left,1207.80000001192,true,NA,NA,NA,NA,NA
Gk4QBztY,NA,NA,Gk4QBztY,2020-0188,2021-09-20,21:49:26,20:08:26,NA,incomplete,false,true,NA,3,18,E14_Q7_ansL.png,left,NA,NA,NA,left,1025.20000000298,true,NA,NA,NA,NA,NA
Gk4QBztY,NA,NA,Gk4QBztY,2020-0188,2021-09-20,21:49:26,20:08:26,NA,incomplete,false,true,NA,3,19,E14_Q1_ansL.png,left,NA,NA,NA,right,823.699999988079,false,NA,NA,NA,NA,NA
Gk4QBztY,NA,NA,Gk4QBztY,2020-0188,2021-09-20,21:49:26,20:08:26,NA,incomplete,false,true,NA,3,20,E2_Q5_ansL.png,left,NA,NA,NA,left,2276.10000000894,true,NA,NA,NA,NA,NA
Gk4QBztY,NA,NA,Gk4QBztY,2020-0188,2021-09-20,21:49:26,20:08:26,NA,incomplete,false,true,NA,3,21,E2_Q1_ansL.png,left,NA,NA,NA,left,2287.79999999702,true,NA,NA,NA,NA,NA
Gk4QBztY,NA,NA,Gk4QBztY,2020-0188,2021-09-20,21:49:26,20:08:26,NA,incomplete,false,true,NA,3,22,E2_Q10_ansL.png,left,NA,NA,NA,left,2387.20000000298,true,NA,NA,NA,NA,NA
Gk4QBztY,NA,NA,Gk4QBztY,2020-0188,2021-09-20,21:49:26,20:08:26,NA,incomplete,false,true,NA,3,23,E2_Q2_ansR.png,right,NA,NA,NA,right,1400.79999999702,true,NA,NA,NA,NA,NA
Gk4QBztY,NA,NA,Gk4QBztY,2020-0188,2021-09-20,21:49:26,20:08:26,NA,incomplete,false,true,NA,3,24,E2_Q4_ansL.png,left,NA,NA,NA,left,1180.70000000298,true,NA,NA,NA,NA,NA
Gk4QBztY,NA,NA,Gk4QBztY,2020-0188,2021-09-20,21:49:26,20:08:26,NA,incomplete,false,true,NA,3,25,E2_Q3_ansR.png,right,NA,NA,NA,right,1856.59999999404,true,NA,NA,NA,NA,NA
Gk4QBztY,NA,NA,Gk4QBztY,2020-0188,2021-09-20,21:49:26,20:08:26,NA,incomplete,false,true,NA,3,26,E2_Q9_ansL.png,left,NA,NA,NA,left,1217.09999999404,true,NA,NA,NA,NA,NA
Gk4QBztY,NA,NA,Gk4QBztY,2020-0188,2021-09-20,21:49:26,20:08:26,NA,incomplete,false,true,NA,3,27,E2_Q6_ansL.png,left,NA,NA,NA,left,1654,true,NA,NA,NA,NA,NA
Gk4QBztY,NA,NA,Gk4QBztY,2020-0188,2021-09-20,21:49:26,20:08:26,NA,incomplete,false,true,NA,3,28,E2_Q7_ansR.png,right,NA,NA,NA,right,1174.10000000894,true,NA,NA,NA,NA,NA
Gk4QBztY,NA,NA,Gk4QBztY,2020-0188,2021-09-20,21:49:26,20:08:26,NA,incomplete,false,true,NA,3,29,E2_Q8_ansR.png,right,NA,NA,NA,right,2183.5,true,NA,NA,NA,NA,NA
Gk4QBztY,NA,NA,Gk4QBztY,2020-0188,2021-09-20,21:49:26,20:08:26,NA,incomplete,false,NA,true,3,0,NA,left,E4_Q2_ansL.png,E4_Q1_ansL.png,within,NA,NaN,NA,right,13009,0,1,4819
Gk4QBztY,NA,NA,Gk4QBztY,2020-0188,2021-09-20,21:49:26,20:08:26,NA,incomplete,false,NA,true,3,1,NA,left,E2_Q10_ansL.png,E2_Q3_ansR.png,within,NA,NaN,NA,right,2973.300000011921,0,2,1556.800000011921
Gk4QBztY,NA,NA,Gk4QBztY,2020-0188,2021-09-20,21:49:26,20:08:26,NA,incomplete,false,NA,true,3,2,NA,left,E14_Q6_ansR.png,E14_Q7_ansL.png,within,NA,NaN,NA,left,2471.5,1,1,1716.2000000029802
Gk4QBztY,NA,NA,Gk4QBztY,2020-0188,2021-09-20,21:49:26,20:08:26,NA,incomplete,false,NA,true,3,3,NA,left,E4_Q3_ansL.png,E4_Q6_ansR.png,within,NA,NaN,NA,right,4962.4000000059605,0,1,913.4000000059605
Gk4QBztY,NA,NA,Gk4QBztY,2020-0188,2021-09-20,21:49:26,20:08:26,NA,incomplete,false,NA,true,3,4,NA,right,E14_Q10_ansL.png,E14_Q8_ansL.png,within,NA,NaN,NA,right,2600.9000000059605,1,1,1553.2000000029802
Gk4QBztY,NA,NA,Gk4QBztY,2020-0188,2021-09-20,21:49:26,20:08:26,NA,incomplete,false,NA,true,3,5,NA,right,E14_Q2_ansL.png,E4_Q8_ansR.png,between,NA,NaN,NA,right,2416.9000000059605,1,2,1183
Gk4QBztY,NA,NA,Gk4QBztY,2020-0188,2021-09-20,21:49:26,20:08:26,NA,incomplete,false,NA,true,3,6,NA,left,E4_Q4_ansL.png,E4_Q5_ansR.png,within,NA,NaN,NA,right,8526.59999999404,0,1,1366.4000000059605
Gk4QBztY,NA,NA,Gk4QBztY,2020-0188,2021-09-20,21:49:26,20:08:26,NA,incomplete,false,NA,true,3,7,NA,right,E4_Q9_ansL.png,E4_Q1_ansL.png,within,NA,NaN,NA,right,2519.5,1,1,2597.6000000089407
Gk4QBztY,NA,NA,Gk4QBztY,2020-0188,2021-09-20,21:49:26,20:08:26,NA,incomplete,false,NA,true,3,8,NA,left,E2_Q9_ansL.png,E2_Q8_ansR.png,within,NA,NaN,NA,left,2447.699999988079,1,1,1079.9000000059605
Gk4QBztY,NA,NA,Gk4QBztY,2020-0188,2021-09-20,21:49:26,20:08:26,NA,incomplete,false,NA,true,3,9,NA,left,E2_Q4_ansL.png,E2_Q6_ansL.png,within,NA,NaN,NA,right,5104.0999999940395,0,1,1309.1000000089407
Gk4QBztY,NA,NA,Gk4QBztY,2020-0188,2021-09-20,21:49:26,20:08:26,NA,incomplete,false,NA,true,3,10,NA,left,E2_Q5_ansL.png,E2_Q2_ansR.png,within,NA,NaN,NA,left,4109.79999999702,1,1,1206.8999999910593
Gk4QBztY,NA,NA,Gk4QBztY,2020-0188,2021-09-20,21:49:26,20:08:26,NA,incomplete,false,NA,true,3,11,NA,left,E2_Q1_ansL.png,E2_Q4_ansL.png,within,NA,NaN,NA,left,3043.2000000029802,1,1,1445.9000000059605
Gk4QBztY,NA,NA,Gk4QBztY,2020-0188,2021-09-20,21:49:26,20:08:26,NA,incomplete,false,NA,true,3,12,NA,right,E4_Q8_ansR.png,E4_Q6_ansR.png,within,NA,NaN,NA,left,11265.60000000894,0,1,1517.0999999940395
Gk4QBztY,NA,NA,Gk4QBztY,2020-0188,2021-09-20,21:49:26,20:08:26,NA,incomplete,false,NA,true,3,13,NA,left,E14_Q2_ansL.png,E14_Q8_ansL.png,within,NA,NaN,NA,left,1939.2999999970198,1,1,1542
Gk4QBztY,NA,NA,Gk4QBztY,2020-0188,2021-09-20,21:49:26,20:08:26,NA,incomplete,false,NA,true,3,14,NA,left,E4_Q9_ansL.png,E14_Q3_ansR.png,between,NA,NaN,NA,left,2663.7999999970198,1,2,2050.6000000089407
Gk4QBztY,NA,NA,Gk4QBztY,2020-0188,2021-09-20,21:49:26,20:08:26,NA,incomplete,false,NA,true,3,15,NA,right,E2_Q5_ansL.png,E14_Q10_ansL.png,between,NA,NaN,NA,left,2033.2000000029802,0,2,951.4000000059605
Gk4QBztY,NA,NA,Gk4QBztY,2020-0188,2021-09-20,21:49:26,20:08:26,NA,incomplete,false,NA,true,3,16,NA,right,E14_Q9_ansR.png,E14_Q4_ansR.png,within,NA,NaN,NA,left,3457.0999999940395,0,1,11368.60000000894
Gk4QBztY,NA,NA,Gk4QBztY,2020-0188,2021-09-20,21:49:26,20:08:26,NA,incomplete,false,NA,true,3,17,NA,left,E14_Q1_ansL.png,E2_Q10_ansL.png,between,NA,NaN,NA,right,3123.1000000089407,0,2,2860.4000000059605
Gk4QBztY,NA,NA,Gk4QBztY,2020-0188,2021-09-20,21:49:26,20:08:26,NA,incomplete,false,NA,true,3,18,NA,right,E4_Q10_ansR.png,E4_Q7_ansR.png,within,NA,NaN,NA,right,3689.7999999970198,1,1,1874.0999999940395
Gk4QBztY,NA,NA,Gk4QBztY,2020-0188,2021-09-20,21:49:26,20:08:26,NA,incomplete,false,NA,true,3,19,NA,right,E4_Q4_ansL.png,E4_Q10_ansR.png,within,NA,NaN,NA,right,1937.3999999910593,1,1,1165.8999999910593
Gk4QBztY,NA,NA,Gk4QBztY,2020-0188,2021-09-20,21:49:26,20:08:26,NA,incomplete,false,NA,true,3,20,NA,left,E14_Q9_ansR.png,E14_Q1_ansL.png,within,NA,NaN,NA,right,1780.2000000029802,0,1,943.0999999940395
Gk4QBztY,NA,NA,Gk4QBztY,2020-0188,2021-09-20,21:49:26,20:08:26,NA,incomplete,false,NA,true,3,21,NA,right,E14_Q6_ansR.png,E14_Q5_ansR.png,within,NA,NaN,NA,right,2430.7000000029802,1,1,1248
Gk4QBztY,NA,NA,Gk4QBztY,2020-0188,2021-09-20,21:49:26,20:08:26,NA,incomplete,false,NA,true,3,22,NA,left,E14_Q7_ansL.png,E2_Q1_ansL.png,between,NA,NaN,NA,right,1357.3999999910593,0,2,1667.0999999940395
Gk4QBztY,NA,NA,Gk4QBztY,2020-0188,2021-09-20,21:49:26,20:08:26,NA,incomplete,false,NA,true,3,23,NA,left,E2_Q3_ansR.png,E2_Q7_ansR.png,within,NA,NaN,NA,left,2181.2999999970198,1,1,1882.3999999910593
Gk4QBztY,NA,NA,Gk4QBztY,2020-0188,2021-09-20,21:49:26,20:08:26,NA,incomplete,false,NA,true,3,24,NA,right,E14_Q5_ansR.png,E4_Q5_ansR.png,between,NA,NaN,NA,right,2034.4000000059605,1,2,2096.3999999910593
Gk4QBztY,NA,NA,Gk4QBztY,2020-0188,2021-09-20,21:49:26,20:08:26,NA,incomplete,false,NA,true,3,25,NA,left,E14_Q3_ansR.png,E14_Q4_ansR.png,within,NA,NaN,NA,left,3122.5,1,1,1316.5
Gk4QBztY,NA,NA,Gk4QBztY,2020-0188,2021-09-20,21:49:26,20:08:26,NA,incomplete,false,NA,true,3,26,NA,left,E2_Q2_ansR.png,E2_Q9_ansL.png,within,NA,NaN,NA,right,2828.1000000089407,0,1,1158.0999999940395
Gk4QBztY,NA,NA,Gk4QBztY,2020-0188,2021-09-20,21:49:26,20:08:26,NA,incomplete,false,true,NA,4,0,E26_Q1_ansL.png,left,NA,NA,NA,left,2802.29999999702,true,NA,NA,NA,NA,NA
Gk4QBztY,NA,NA,Gk4QBztY,2020-0188,2021-09-20,21:49:26,20:08:26,NA,incomplete,false,true,NA,4,1,E26_Q10_ansL.png,left,NA,NA,NA,left,1675.70000000298,true,NA,NA,NA,NA,NA
Gk4QBztY,NA,NA,Gk4QBztY,2020-0188,2021-09-20,21:49:26,20:08:26,NA,incomplete,false,true,NA,4,2,E26_Q8_ansL.png,left,NA,NA,NA,left,1328,true,NA,NA,NA,NA,NA
Gk4QBztY,NA,NA,Gk4QBztY,2020-0188,2021-09-20,21:49:26,20:08:26,NA,incomplete,false,true,NA,4,3,E26_Q2_ansL.png,left,NA,NA,NA,left,1641.29999999702,true,NA,NA,NA,NA,NA
Gk4QBztY,NA,NA,Gk4QBztY,2020-0188,2021-09-20,21:49:26,20:08:26,NA,incomplete,false,true,NA,4,4,E26_Q9_ansR.png,right,NA,NA,NA,right,1855,true,NA,NA,NA,NA,NA
Gk4QBztY,NA,NA,Gk4QBztY,2020-0188,2021-09-20,21:49:26,20:08:26,NA,incomplete,false,true,NA,4,5,E26_Q6_ansR.png,right,NA,NA,NA,right,1082.29999999702,true,NA,NA,NA,NA,NA
Gk4QBztY,NA,NA,Gk4QBztY,2020-0188,2021-09-20,21:49:26,20:08:26,NA,incomplete,false,true,NA,4,6,E26_Q5_ansR.png,right,NA,NA,NA,right,1181.5,true,NA,NA,NA,NA,NA
Gk4QBztY,NA,NA,Gk4QBztY,2020-0188,2021-09-20,21:49:26,20:08:26,NA,incomplete,false,true,NA,4,7,E26_Q4_ansR.png,right,NA,NA,NA,right,1976.39999999106,true,NA,NA,NA,NA,NA
Gk4QBztY,NA,NA,Gk4QBztY,2020-0188,2021-09-20,21:49:26,20:08:26,NA,incomplete,false,true,NA,4,8,E26_Q7_ansL.png,left,NA,NA,NA,left,1039,true,NA,NA,NA,NA,NA
Gk4QBztY,NA,NA,Gk4QBztY,2020-0188,2021-09-20,21:49:26,20:08:26,NA,incomplete,false,true,NA,4,9,E26_Q3_ansR.png,right,NA,NA,NA,right,1506.39999999106,true,NA,NA,NA,NA,NA
Gk4QBztY,NA,NA,Gk4QBztY,2020-0188,2021-09-20,21:49:26,20:08:26,NA,incomplete,false,true,NA,4,10,E25_Q2_ansR.png,right,NA,NA,NA,right,3253.79999999702,true,NA,NA,NA,NA,NA
Gk4QBztY,NA,NA,Gk4QBztY,2020-0188,2021-09-20,21:49:26,20:08:26,NA,incomplete,false,true,NA,4,11,E25_Q4_ansL.png,left,NA,NA,NA,left,2930.59999999404,true,NA,NA,NA,NA,NA
Gk4QBztY,NA,NA,Gk4QBztY,2020-0188,2021-09-20,21:49:26,20:08:26,NA,incomplete,false,true,NA,4,12,E25_Q1_ansR.png,right,NA,NA,NA,right,1834.29999999702,true,NA,NA,NA,NA,NA
Gk4QBztY,NA,NA,Gk4QBztY,2020-0188,2021-09-20,21:49:26,20:08:26,NA,incomplete,false,true,NA,4,13,E25_Q9_ansL.png,left,NA,NA,NA,left,2621.79999999702,true,NA,NA,NA,NA,NA
Gk4QBztY,NA,NA,Gk4QBztY,2020-0188,2021-09-20,21:49:26,20:08:26,NA,incomplete,false,true,NA,4,14,E25_Q7_ansR.png,right,NA,NA,NA,right,2552,true,NA,NA,NA,NA,NA
Gk4QBztY,NA,NA,Gk4QBztY,2020-0188,2021-09-20,21:49:26,20:08:26,NA,incomplete,false,true,NA,4,15,E25_Q5_ansL.png,left,NA,NA,NA,left,2479.40000000596,true,NA,NA,NA,NA,NA
Gk4QBztY,NA,NA,Gk4QBztY,2020-0188,2021-09-20,21:49:26,20:08:26,NA,incomplete,false,true,NA,4,16,E25_Q6_ansL.png,left,NA,NA,NA,left,1749.5,true,NA,NA,NA,NA,NA
Gk4QBztY,NA,NA,Gk4QBztY,2020-0188,2021-09-20,21:49:26,20:08:26,NA,incomplete,false,true,NA,4,17,E25_Q8_ansR.png,right,NA,NA,NA,right,2745,true,NA,NA,NA,NA,NA
Gk4QBztY,NA,NA,Gk4QBztY,2020-0188,2021-09-20,21:49:26,20:08:26,NA,incomplete,false,true,NA,4,18,E25_Q3_ansL.png,left,NA,NA,NA,none,0,false,NA,NA,NA,NA,NA
Gk4QBztY,NA,NA,Gk4QBztY,2020-0188,2021-09-20,21:49:26,20:08:26,NA,incomplete,false,true,NA,4,19,E25_Q10_ansR.png,right,NA,NA,NA,left,2653.20000000298,false,NA,NA,NA,NA,NA
Gk4QBztY,NA,NA,Gk4QBztY,2020-0188,2021-09-20,21:49:26,20:08:26,NA,incomplete,false,true,NA,4,20,E1_Q7_ansL.png,left,NA,NA,NA,left,2061.09999999404,true,NA,NA,NA,NA,NA
Gk4QBztY,NA,NA,Gk4QBztY,2020-0188,2021-09-20,21:49:26,20:08:26,NA,incomplete,false,true,NA,4,21,E1_Q3_ansR.png,right,NA,NA,NA,right,2000.70000000298,true,NA,NA,NA,NA,NA
Gk4QBztY,NA,NA,Gk4QBztY,2020-0188,2021-09-20,21:49:26,20:08:26,NA,incomplete,false,true,NA,4,22,E1_Q2_ansL.png,left,NA,NA,NA,left,2574.60000000894,true,NA,NA,NA,NA,NA
Gk4QBztY,NA,NA,Gk4QBztY,2020-0188,2021-09-20,21:49:26,20:08:26,NA,incomplete,false,true,NA,4,23,E1_Q9_ansL.png,left,NA,NA,NA,left,985.29999999702,true,NA,NA,NA,NA,NA
Gk4QBztY,NA,NA,Gk4QBztY,2020-0188,2021-09-20,21:49:26,20:08:26,NA,incomplete,false,true,NA,4,24,E1_Q6_ansR.png,right,NA,NA,NA,right,1134.20000000298,true,NA,NA,NA,NA,NA
Gk4QBztY,NA,NA,Gk4QBztY,2020-0188,2021-09-20,21:49:26,20:08:26,NA,incomplete,false,true,NA,4,25,E1_Q10_ansR.png,right,NA,NA,NA,right,1345.5,true,NA,NA,NA,NA,NA
Gk4QBztY,NA,NA,Gk4QBztY,2020-0188,2021-09-20,21:49:26,20:08:26,NA,incomplete,false,true,NA,4,26,E1_Q8_ansR.png,right,NA,NA,NA,right,1403.79999999702,true,NA,NA,NA,NA,NA
Gk4QBztY,NA,NA,Gk4QBztY,2020-0188,2021-09-20,21:49:26,20:08:26,NA,incomplete,false,true,NA,4,27,E1_Q5_ansR.png,right,NA,NA,NA,right,1376.29999999702,true,NA,NA,NA,NA,NA
Gk4QBztY,NA,NA,Gk4QBztY,2020-0188,2021-09-20,21:49:26,20:08:26,NA,incomplete,false,true,NA,4,28,E1_Q4_ansL.png,left,NA,NA,NA,left,1662.79999999702,true,NA,NA,NA,NA,NA
Gk4QBztY,NA,NA,Gk4QBztY,2020-0188,2021-09-20,21:49:26,20:08:26,NA,incomplete,false,true,NA,4,29,E1_Q1_ansL.png,left,NA,NA,NA,left,1730.29999999702,true,NA,NA,NA,NA,NA
Gk4QBztY,NA,NA,Gk4QBztY,2020-0188,2021-09-20,21:49:26,20:08:26,NA,incomplete,false,NA,true,4,0,NA,left,E25_Q7_ansR.png,E25_Q8_ansR.png,within,NA,NaN,NA,left,5768.0999999940395,1,1,1264.4000000059605
Gk4QBztY,NA,NA,Gk4QBztY,2020-0188,2021-09-20,21:49:26,20:08:26,NA,incomplete,false,NA,true,4,1,NA,right,E1_Q4_ansL.png,E1_Q10_ansR.png,within,NA,NaN,NA,left,2179.5999999940395,0,1,1781.3999999910593
Gk4QBztY,NA,NA,Gk4QBztY,2020-0188,2021-09-20,21:49:26,20:08:26,NA,incomplete,false,NA,true,4,2,NA,right,E26_Q2_ansL.png,E26_Q1_ansL.png,within,NA,NaN,NA,left,3437.5,0,1,1272.0999999940395
Gk4QBztY,NA,NA,Gk4QBztY,2020-0188,2021-09-20,21:49:26,20:08:26,NA,incomplete,false,NA,true,4,3,NA,right,E25_Q3_ansL.png,E25_Q5_ansL.png,within,NA,NaN,NA,right,2617.5,1,1,1903.5
Gk4QBztY,NA,NA,Gk4QBztY,2020-0188,2021-09-20,21:49:26,20:08:26,NA,incomplete,false,NA,true,4,4,NA,left,E1_Q3_ansR.png,E1_Q6_ansR.png,within,NA,NaN,NA,right,2719.7999999970198,0,1,1438.7000000029802
Gk4QBztY,NA,NA,Gk4QBztY,2020-0188,2021-09-20,21:49:26,20:08:26,NA,incomplete,false,NA,true,4,5,NA,left,E26_Q7_ansL.png,E25_Q4_ansL.png,between,NA,NaN,NA,left,10037.5,1,2,1494.5999999940395
Gk4QBztY,NA,NA,Gk4QBztY,2020-0188,2021-09-20,21:49:26,20:08:26,NA,incomplete,false,NA,true,4,6,NA,left,E26_Q4_ansR.png,E25_Q2_ansR.png,between,NA,NaN,NA,left,2903.800000011921,1,2,1422.199999988079
Gk4QBztY,NA,NA,Gk4QBztY,2020-0188,2021-09-20,21:49:26,20:08:26,NA,incomplete,false,NA,true,4,7,NA,right,E26_Q9_ansR.png,E26_Q10_ansL.png,within,NA,NaN,NA,right,2721,1,1,1517.9000000059605
Gk4QBztY,NA,NA,Gk4QBztY,2020-0188,2021-09-20,21:49:26,20:08:26,NA,incomplete,false,NA,true,4,8,NA,left,E1_Q8_ansR.png,E1_Q1_ansL.png,within,NA,NaN,NA,left,2721.2999999970198,1,1,1486.2999999970198
Gk4QBztY,NA,NA,Gk4QBztY,2020-0188,2021-09-20,21:49:26,20:08:26,NA,incomplete,false,NA,true,4,9,NA,right,E25_Q6_ansL.png,E25_Q9_ansL.png,within,NA,NaN,NA,right,3898.4000000059605,1,1,1828.300000011921
Gk4QBztY,NA,NA,Gk4QBztY,2020-0188,2021-09-20,21:49:26,20:08:26,NA,incomplete,false,NA,true,4,10,NA,left,E26_Q2_ansL.png,E26_Q5_ansR.png,within,NA,NaN,NA,left,4266.100000008941,1,1,1342.7999999970198
Gk4QBztY,NA,NA,Gk4QBztY,2020-0188,2021-09-20,21:49:26,20:08:26,NA,incomplete,false,NA,true,4,11,NA,left,E25_Q6_ansL.png,E25_Q10_ansR.png,within,NA,NaN,NA,left,3118.5,1,1,1677.7000000029802
Gk4QBztY,NA,NA,Gk4QBztY,2020-0188,2021-09-20,21:49:26,20:08:26,NA,incomplete,false,NA,true,4,12,NA,left,E25_Q8_ansR.png,E1_Q7_ansL.png,between,NA,NaN,NA,left,2984,1,2,1510.1000000089407
Gk4QBztY,NA,NA,Gk4QBztY,2020-0188,2021-09-20,21:49:26,20:08:26,NA,incomplete,false,NA,true,4,13,NA,left,E25_Q1_ansR.png,E25_Q5_ansL.png,within,NA,NaN,NA,right,1749.2000000029802,0,1,1390.8999999910593
Gk4QBztY,NA,NA,Gk4QBztY,2020-0188,2021-09-20,21:49:26,20:08:26,NA,incomplete,false,NA,true,4,14,NA,left,E25_Q4_ansL.png,E25_Q7_ansR.png,within,NA,NaN,NA,right,2100,0,1,1438.2999999970198
Gk4QBztY,NA,NA,Gk4QBztY,2020-0188,2021-09-20,21:49:26,20:08:26,NA,incomplete,false,NA,true,4,15,NA,left,E1_Q9_ansL.png,E1_Q8_ansR.png,within,NA,NaN,NA,right,1637.5999999940395,0,1,1606.2000000029802
Gk4QBztY,NA,NA,Gk4QBztY,2020-0188,2021-09-20,21:49:26,20:08:26,NA,incomplete,false,NA,true,4,16,NA,left,E26_Q5_ansR.png,E26_Q3_ansR.png,within,NA,NaN,NA,right,1621.2999999970198,0,1,1692.8999999910593
Gk4QBztY,NA,NA,Gk4QBztY,2020-0188,2021-09-20,21:49:26,20:08:26,NA,incomplete,false,NA,true,4,17,NA,right,E1_Q9_ansL.png,E1_Q7_ansL.png,within,NA,NaN,NA,right,3435.5,1,1,1374.4000000059605
Gk4QBztY,NA,NA,Gk4QBztY,2020-0188,2021-09-20,21:49:26,20:08:26,NA,incomplete,false,NA,true,4,18,NA,left,E25_Q3_ansL.png,E1_Q3_ansR.png,between,NA,NaN,NA,left,3794,1,1,1487
Gk4QBztY,NA,NA,Gk4QBztY,2020-0188,2021-09-20,21:49:26,20:08:26,NA,incomplete,false,NA,true,4,19,NA,right,E26_Q6_ansR.png,E26_Q8_ansL.png,within,NA,NaN,NA,right,1541,1,1,1287.2999999970198
Gk4QBztY,NA,NA,Gk4QBztY,2020-0188,2021-09-20,21:49:26,20:08:26,NA,incomplete,false,NA,true,4,20,NA,right,E25_Q9_ansL.png,E25_Q2_ansR.png,within,NA,NaN,NA,right,1382.5,1,1,1104.2000000029802
Gk4QBztY,NA,NA,Gk4QBztY,2020-0188,2021-09-20,21:49:26,20:08:26,NA,incomplete,false,NA,true,4,21,NA,left,E1_Q2_ansL.png,E1_Q10_ansR.png,within,NA,NaN,NA,right,1518.0999999940395,0,1,1216
Gk4QBztY,NA,NA,Gk4QBztY,2020-0188,2021-09-20,21:49:26,20:08:26,NA,incomplete,false,NA,true,4,22,NA,right,E26_Q7_ansL.png,E26_Q6_ansR.png,within,NA,NaN,NA,right,1535.2999999970198,1,1,1278.5
Gk4QBztY,NA,NA,Gk4QBztY,2020-0188,2021-09-20,21:49:26,20:08:26,NA,incomplete,false,NA,true,4,23,NA,right,E1_Q2_ansL.png,E25_Q10_ansR.png,between,NA,NaN,NA,right,1557.8999999910593,1,1,1064.2999999970198
Gk4QBztY,NA,NA,Gk4QBztY,2020-0188,2021-09-20,21:49:26,20:08:26,NA,incomplete,false,NA,true,4,24,NA,right,E25_Q1_ansR.png,E26_Q3_ansR.png,between,NA,NaN,NA,right,3271.0999999940395,1,2,1406.2999999970198
Gk4QBztY,NA,NA,Gk4QBztY,2020-0188,2021-09-20,21:49:26,20:08:26,NA,incomplete,false,NA,true,4,25,NA,left,E26_Q9_ansR.png,E26_Q4_ansR.png,within,NA,NaN,NA,right,2665.2999999970198,0,1,1207.5999999940395
Gk4QBztY,NA,NA,Gk4QBztY,2020-0188,2021-09-20,21:49:26,20:08:26,NA,incomplete,false,NA,true,4,26,NA,left,E1_Q6_ansR.png,E1_Q5_ansR.png,within,NA,NaN,NA,right,1414.2999999970198,0,1,1175.5999999940395
Gk4QBztY,NA,NA,Gk4QBztY,2020-0188,2021-09-20,21:49:26,20:08:26,NA,incomplete,false,true,NA,5,0,E18_Q5_ansR.png,right,NA,NA,NA,right,2477.70000000298,true,NA,NA,NA,NA,NA
Gk4QBztY,NA,NA,Gk4QBztY,2020-0188,2021-09-20,21:49:26,20:08:26,NA,incomplete,false,true,NA,5,1,E18_Q7_ansL.png,left,NA,NA,NA,left,1245.29999999702,true,NA,NA,NA,NA,NA
Gk4QBztY,NA,NA,Gk4QBztY,2020-0188,2021-09-20,21:49:26,20:08:26,NA,incomplete,false,true,NA,5,2,E18_Q6_ansR.png,right,NA,NA,NA,right,1267.5,true,NA,NA,NA,NA,NA
Gk4QBztY,NA,NA,Gk4QBztY,2020-0188,2021-09-20,21:49:26,20:08:26,NA,incomplete,false,true,NA,5,3,E18_Q4_ansR.png,right,NA,NA,NA,right,1301.90000000596,true,NA,NA,NA,NA,NA
Gk4QBztY,NA,NA,Gk4QBztY,2020-0188,2021-09-20,21:49:26,20:08:26,NA,incomplete,false,true,NA,5,4,E18_Q8_ansL.png,left,NA,NA,NA,left,1462,true,NA,NA,NA,NA,NA
Gk4QBztY,NA,NA,Gk4QBztY,2020-0188,2021-09-20,21:49:26,20:08:26,NA,incomplete,false,true,NA,5,5,E18_Q3_ansR.png,right,NA,NA,NA,right,1175.90000000596,true,NA,NA,NA,NA,NA
Gk4QBztY,NA,NA,Gk4QBztY,2020-0188,2021-09-20,21:49:26,20:08:26,NA,incomplete,false,true,NA,5,6,E18_Q2_ansL.png,left,NA,NA,NA,left,1383.40000000596,true,NA,NA,NA,NA,NA
Gk4QBztY,NA,NA,Gk4QBztY,2020-0188,2021-09-20,21:49:26,20:08:26,NA,incomplete,false,true,NA,5,7,E18_Q1_ansL.png,left,NA,NA,NA,left,1672,true,NA,NA,NA,NA,NA
Gk4QBztY,NA,NA,Gk4QBztY,2020-0188,2021-09-20,21:49:26,20:08:26,NA,incomplete,false,true,NA,5,8,E18_Q10_ansL.png,left,NA,NA,NA,right,2404.20000000298,false,NA,NA,NA,NA,NA
Gk4QBztY,NA,NA,Gk4QBztY,2020-0188,2021-09-20,21:49:26,20:08:26,NA,incomplete,false,true,NA,5,9,E18_Q9_ansR.png,right,NA,NA,NA,right,1025.90000000596,true,NA,NA,NA,NA,NA
Gk4QBztY,NA,NA,Gk4QBztY,2020-0188,2021-09-20,21:49:26,20:08:26,NA,incomplete,false,true,NA,5,10,E11_Q2_ansR.png,right,NA,NA,NA,right,1415.5,true,NA,NA,NA,NA,NA
Gk4QBztY,NA,NA,Gk4QBztY,2020-0188,2021-09-20,21:49:26,20:08:26,NA,incomplete,false,true,NA,5,11,E11_Q4_ansL.png,left,NA,NA,NA,left,1741.70000000298,true,NA,NA,NA,NA,NA
Gk4QBztY,NA,NA,Gk4QBztY,2020-0188,2021-09-20,21:49:26,20:08:26,NA,incomplete,false,true,NA,5,12,E11_Q7_ansR.png,right,NA,NA,NA,right,1357.09999999404,true,NA,NA,NA,NA,NA
Gk4QBztY,NA,NA,Gk4QBztY,2020-0188,2021-09-20,21:49:26,20:08:26,NA,incomplete,false,true,NA,5,13,E11_Q10_ansR.png,right,NA,NA,NA,right,1740,true,NA,NA,NA,NA,NA
Gk4QBztY,NA,NA,Gk4QBztY,2020-0188,2021-09-20,21:49:26,20:08:26,NA,incomplete,false,true,NA,5,14,E11_Q6_ansL.png,left,NA,NA,NA,left,1283,true,NA,NA,NA,NA,NA
Gk4QBztY,NA,NA,Gk4QBztY,2020-0188,2021-09-20,21:49:26,20:08:26,NA,incomplete,false,true,NA,5,15,E11_Q5_ansL.png,left,NA,NA,NA,right,1227.60000000894,false,NA,NA,NA,NA,NA
Gk4QBztY,NA,NA,Gk4QBztY,2020-0188,2021-09-20,21:49:26,20:08:26,NA,incomplete,false,true,NA,5,16,E11_Q1_ansR.png,right,NA,NA,NA,right,1075.20000000298,true,NA,NA,NA,NA,NA
Gk4QBztY,NA,NA,Gk4QBztY,2020-0188,2021-09-20,21:49:26,20:08:26,NA,incomplete,false,true,NA,5,17,E11_Q9_ansL.png,left,NA,NA,NA,left,1072.70000000298,true,NA,NA,NA,NA,NA
Gk4QBztY,NA,NA,Gk4QBztY,2020-0188,2021-09-20,21:49:26,20:08:26,NA,incomplete,false,true,NA,5,18,E11_Q3_ansL.png,left,NA,NA,NA,left,1221.20000000298,true,NA,NA,NA,NA,NA
Gk4QBztY,NA,NA,Gk4QBztY,2020-0188,2021-09-20,21:49:26,20:08:26,NA,incomplete,false,true,NA,5,19,E11_Q8_ansR.png,right,NA,NA,NA,right,1836.10000000894,true,NA,NA,NA,NA,NA
Gk4QBztY,NA,NA,Gk4QBztY,2020-0188,2021-09-20,21:49:26,20:08:26,NA,incomplete,false,true,NA,5,20,E9_Q5_ansL.png,left,NA,NA,NA,right,2173.39999999106,false,NA,NA,NA,NA,NA
Gk4QBztY,NA,NA,Gk4QBztY,2020-0188,2021-09-20,21:49:26,20:08:26,NA,incomplete,false,true,NA,5,21,E9_Q1_ansR.png,right,NA,NA,NA,right,772,true,NA,NA,NA,NA,NA
Gk4QBztY,NA,NA,Gk4QBztY,2020-0188,2021-09-20,21:49:26,20:08:26,NA,incomplete,false,true,NA,5,22,E9_Q10_ansR.png,right,NA,NA,NA,right,1596.89999999106,true,NA,NA,NA,NA,NA
Gk4QBztY,NA,NA,Gk4QBztY,2020-0188,2021-09-20,21:49:26,20:08:26,NA,incomplete,false,true,NA,5,23,E9_Q6_ansL.png,left,NA,NA,NA,left,1400.5,true,NA,NA,NA,NA,NA
Gk4QBztY,NA,NA,Gk4QBztY,2020-0188,2021-09-20,21:49:26,20:08:26,NA,incomplete,false,true,NA,5,24,E9_Q9_ansL.png,left,NA,NA,NA,left,1838,true,NA,NA,NA,NA,NA
Gk4QBztY,NA,NA,Gk4QBztY,2020-0188,2021-09-20,21:49:26,20:08:26,NA,incomplete,false,true,NA,5,25,E9_Q2_ansR.png,right,NA,NA,NA,right,841.90000000596,true,NA,NA,NA,NA,NA
Gk4QBztY,NA,NA,Gk4QBztY,2020-0188,2021-09-20,21:49:26,20:08:26,NA,incomplete,false,true,NA,5,26,E9_Q3_ansL.png,left,NA,NA,NA,left,1462.40000000596,true,NA,NA,NA,NA,NA
Gk4QBztY,NA,NA,Gk4QBztY,2020-0188,2021-09-20,21:49:26,20:08:26,NA,incomplete,false,true,NA,5,27,E9_Q8_ansR.png,right,NA,NA,NA,right,1207.40000000596,true,NA,NA,NA,NA,NA
Gk4QBztY,NA,NA,Gk4QBztY,2020-0188,2021-09-20,21:49:26,20:08:26,NA,incomplete,false,true,NA,5,28,E9_Q4_ansL.png,left,NA,NA,NA,left,1084.40000000596,true,NA,NA,NA,NA,NA
Gk4QBztY,NA,NA,Gk4QBztY,2020-0188,2021-09-20,21:49:26,20:08:26,NA,incomplete,false,true,NA,5,29,E9_Q7_ansR.png,right,NA,NA,NA,right,1232.5,true,NA,NA,NA,NA,NA
Gk4QBztY,NA,NA,Gk4QBztY,2020-0188,2021-09-20,21:49:26,20:08:26,NA,incomplete,false,NA,true,5,0,NA,right,E18_Q3_ansR.png,E18_Q6_ansR.png,within,NA,NaN,NA,right,48843.29999999702,1,1,1222.3999999910593
Gk4QBztY,NA,NA,Gk4QBztY,2020-0188,2021-09-20,21:49:26,20:08:26,NA,incomplete,false,NA,true,5,1,NA,left,E18_Q4_ansR.png,E18_Q2_ansL.png,within,NA,NaN,NA,right,3459,0,1,984.2000000029802
Gk4QBztY,NA,NA,Gk4QBztY,2020-0188,2021-09-20,21:49:26,20:08:26,NA,incomplete,false,NA,true,5,2,NA,left,E18_Q10_ansL.png,E11_Q4_ansL.png,between,NA,NaN,NA,left,2862,1,2,1422.4000000059605
Gk4QBztY,NA,NA,Gk4QBztY,2020-0188,2021-09-20,21:49:26,20:08:26,NA,incomplete,false,NA,true,5,3,NA,right,E9_Q2_ansR.png,E9_Q10_ansR.png,within,NA,NaN,NA,left,2567.0999999940395,0,1,1046.8999999910593
Gk4QBztY,NA,NA,Gk4QBztY,2020-0188,2021-09-20,21:49:26,20:08:26,NA,incomplete,false,NA,true,5,4,NA,right,E9_Q10_ansR.png,E11_Q8_ansR.png,between,NA,NaN,NA,right,2638.7999999970198,1,2,1715.7000000029802
Gk4QBztY,NA,NA,Gk4QBztY,2020-0188,2021-09-20,21:49:26,20:08:26,NA,incomplete,false,NA,true,5,5,NA,right,E9_Q1_ansR.png,E11_Q3_ansL.png,between,NA,NaN,NA,left,2058.0999999940395,0,2,2129
Gk4QBztY,NA,NA,Gk4QBztY,2020-0188,2021-09-20,21:49:26,20:08:26,NA,incomplete,false,NA,true,5,6,NA,right,E11_Q10_ansR.png,E11_Q2_ansR.png,within,NA,NaN,NA,right,3203.7999999970198,1,1,1154.0999999940395
Gk4QBztY,NA,NA,Gk4QBztY,2020-0188,2021-09-20,21:49:26,20:08:26,NA,incomplete,false,NA,true,5,7,NA,right,E11_Q7_ansR.png,E18_Q9_ansR.png,between,NA,NaN,NA,right,3012.1000000089407,1,2,1214.2999999970198
Gk4QBztY,NA,NA,Gk4QBztY,2020-0188,2021-09-20,21:49:26,20:08:26,NA,incomplete,false,NA,true,5,8,NA,right,E18_Q9_ansR.png,E18_Q2_ansL.png,within,NA,NaN,NA,right,3982.4000000059605,1,1,3395.2000000029802
Gk4QBztY,NA,NA,Gk4QBztY,2020-0188,2021-09-20,21:49:26,20:08:26,NA,incomplete,false,NA,true,5,9,NA,right,E9_Q9_ansL.png,E9_Q1_ansR.png,within,NA,NaN,NA,right,4159.29999999702,1,1,2607.7000000029802
Gk4QBztY,NA,NA,Gk4QBztY,2020-0188,2021-09-20,21:49:26,20:08:26,NA,incomplete,false,NA,true,5,10,NA,right,E11_Q9_ansL.png,E11_Q6_ansL.png,within,NA,NaN,NA,left,2185.699999988079,0,1,3044.5
Gk4QBztY,NA,NA,Gk4QBztY,2020-0188,2021-09-20,21:49:26,20:08:26,NA,incomplete,false,NA,true,5,11,NA,left,E18_Q8_ansL.png,E18_Q1_ansL.png,within,NA,NaN,NA,right,2687.4000000059605,0,1,1207.3999999910593
Gk4QBztY,NA,NA,Gk4QBztY,2020-0188,2021-09-20,21:49:26,20:08:26,NA,incomplete,false,NA,true,5,12,NA,right,E9_Q4_ansL.png,E9_Q2_ansR.png,within,NA,NaN,NA,right,2003.2000000029802,1,0,4691.70000000298
Gk4QBztY,NA,NA,Gk4QBztY,2020-0188,2021-09-20,21:49:26,20:08:26,NA,incomplete,false,NA,true,5,13,NA,left,E9_Q3_ansL.png,E9_Q7_ansR.png,within,NA,NaN,NA,right,3029.7999999970198,0,1,1707.9000000059605
Gk4QBztY,NA,NA,Gk4QBztY,2020-0188,2021-09-20,21:49:26,20:08:26,NA,incomplete,false,NA,true,5,14,NA,left,E11_Q1_ansR.png,E11_Q8_ansR.png,within,NA,NaN,NA,right,6540.4000000059605,0,1,2042.4000000059605
Gk4QBztY,NA,NA,Gk4QBztY,2020-0188,2021-09-20,21:49:26,20:08:26,NA,incomplete,false,NA,true,5,15,NA,right,E11_Q2_ansR.png,E18_Q1_ansL.png,between,NA,NaN,NA,right,1508.8999999910593,1,1,1358.300000011921
Gk4QBztY,NA,NA,Gk4QBztY,2020-0188,2021-09-20,21:49:26,20:08:26,NA,incomplete,false,NA,true,5,16,NA,left,E11_Q9_ansL.png,E9_Q5_ansL.png,between,NA,NaN,NA,right,2861.5,0,2,1158.7999999970198
Gk4QBztY,NA,NA,Gk4QBztY,2020-0188,2021-09-20,21:49:26,20:08:26,NA,incomplete,false,NA,true,5,17,NA,left,E9_Q5_ansL.png,E9_Q6_ansL.png,within,NA,NaN,NA,right,3998.5,0,1,1341.2000000029802
Gk4QBztY,NA,NA,Gk4QBztY,2020-0188,2021-09-20,21:49:26,20:08:26,NA,incomplete,false,NA,true,5,18,NA,right,E11_Q5_ansL.png,E11_Q7_ansR.png,within,NA,NaN,NA,right,50135.90000000596,1,1,1374.2999999970198
Gk4QBztY,NA,NA,Gk4QBztY,2020-0188,2021-09-20,21:49:26,20:08:26,NA,incomplete,false,NA,true,5,19,NA,left,E11_Q5_ansL.png,E11_Q3_ansL.png,within,NA,NaN,NA,right,2265.300000011921,0,2,1262.5999999940395
Gk4QBztY,NA,NA,Gk4QBztY,2020-0188,2021-09-20,21:49:26,20:08:26,NA,incomplete,false,NA,true,5,20,NA,right,E11_Q1_ansR.png,E11_Q10_ansR.png,within,NA,NaN,NA,right,1724,1,1,1239.5
Gk4QBztY,NA,NA,Gk4QBztY,2020-0188,2021-09-20,21:49:26,20:08:26,NA,incomplete,false,NA,true,5,21,NA,right,E9_Q8_ansR.png,E9_Q9_ansL.png,within,NA,NaN,NA,left,5500.899999991059,0,1,1341.7999999970198
Gk4QBztY,NA,NA,Gk4QBztY,2020-0188,2021-09-20,21:49:26,20:08:26,NA,incomplete,false,NA,true,5,22,NA,left,E18_Q7_ansL.png,E18_Q8_ansL.png,within,NA,NaN,NA,left,2320.5,1,1,2019.5
Gk4QBztY,NA,NA,Gk4QBztY,2020-0188,2021-09-20,21:49:26,20:08:26,NA,incomplete,false,NA,true,5,23,NA,left,E18_Q3_ansR.png,E18_Q10_ansL.png,within,NA,NaN,NA,left,2137.6000000089407,1,1,1262.5
Gk4QBztY,NA,NA,Gk4QBztY,2020-0188,2021-09-20,21:49:26,20:08:26,NA,incomplete,false,NA,true,5,24,NA,right,E11_Q6_ansL.png,E11_Q4_ansL.png,within,NA,NaN,NA,left,5982.5,0,1,1270.2000000029802
Gk4QBztY,NA,NA,Gk4QBztY,2020-0188,2021-09-20,21:49:26,20:08:26,NA,incomplete,false,NA,true,5,25,NA,right,E9_Q3_ansL.png,E9_Q6_ansL.png,within,NA,NaN,NA,right,1191.9000000059605,1,1,1556.7999999970198
Gk4QBztY,NA,NA,Gk4QBztY,2020-0188,2021-09-20,21:49:26,20:08:26,NA,incomplete,false,NA,true,5,26,NA,left,E18_Q5_ansR.png,E18_Q4_ansR.png,within,NA,NaN,NA,left,3744,1,1,1556.5
Gk4QBztY,NA,NA,Gk4QBztY,2020-0188,2021-09-20,21:49:26,20:08:26,NA,incomplete,false,true,NA,6,0,E29_Q10_ansL.png,left,NA,NA,NA,left,2043.79999999702,true,NA,NA,NA,NA,NA
Gk4QBztY,NA,NA,Gk4QBztY,2020-0188,2021-09-20,21:49:26,20:08:26,NA,incomplete,false,true,NA,6,1,E29_Q2_ansL.png,left,NA,NA,NA,right,2303.19999998808,false,NA,NA,NA,NA,NA
Gk4QBztY,NA,NA,Gk4QBztY,2020-0188,2021-09-20,21:49:26,20:08:26,NA,incomplete,false,true,NA,6,2,E29_Q7_ansL.png,left,NA,NA,NA,left,1081.20000000298,true,NA,NA,NA,NA,NA
Gk4QBztY,NA,NA,Gk4QBztY,2020-0188,2021-09-20,21:49:26,20:08:26,NA,incomplete,false,true,NA,6,3,E29_Q1_ansL.png,left,NA,NA,NA,left,1547.10000000894,true,NA,NA,NA,NA,NA
Gk4QBztY,NA,NA,Gk4QBztY,2020-0188,2021-09-20,21:49:26,20:08:26,NA,incomplete,false,true,NA,6,4,E29_Q3_ansR.png,right,NA,NA,NA,right,1757.20000000298,true,NA,NA,NA,NA,NA
Gk4QBztY,NA,NA,Gk4QBztY,2020-0188,2021-09-20,21:49:26,20:08:26,NA,incomplete,false,true,NA,6,5,E29_Q5_ansR.png,right,NA,NA,NA,right,2383.20000000298,true,NA,NA,NA,NA,NA
Gk4QBztY,NA,NA,Gk4QBztY,2020-0188,2021-09-20,21:49:26,20:08:26,NA,incomplete,false,true,NA,6,6,E29_Q8_ansL.png,left,NA,NA,NA,left,1719,true,NA,NA,NA,NA,NA
Gk4QBztY,NA,NA,Gk4QBztY,2020-0188,2021-09-20,21:49:26,20:08:26,NA,incomplete,false,true,NA,6,7,E29_Q4_ansR.png,right,NA,NA,NA,right,1070.39999999106,true,NA,NA,NA,NA,NA
Gk4QBztY,NA,NA,Gk4QBztY,2020-0188,2021-09-20,21:49:26,20:08:26,NA,incomplete,false,true,NA,6,8,E29_Q6_ansR.png,right,NA,NA,NA,right,1612.70000000298,true,NA,NA,NA,NA,NA
Gk4QBztY,NA,NA,Gk4QBztY,2020-0188,2021-09-20,21:49:26,20:08:26,NA,incomplete,false,true,NA,6,9,E29_Q9_ansR.png,right,NA,NA,NA,right,991.600000008941,true,NA,NA,NA,NA,NA
Gk4QBztY,NA,NA,Gk4QBztY,2020-0188,2021-09-20,21:49:26,20:08:26,NA,incomplete,false,true,NA,6,10,E13_Q8_ansL.png,left,NA,NA,NA,left,1232.90000000596,true,NA,NA,NA,NA,NA
Gk4QBztY,NA,NA,Gk4QBztY,2020-0188,2021-09-20,21:49:26,20:08:26,NA,incomplete,false,true,NA,6,11,E13_Q3_ansR.png,right,NA,NA,NA,right,1498.70000000298,true,NA,NA,NA,NA,NA
Gk4QBztY,NA,NA,Gk4QBztY,2020-0188,2021-09-20,21:49:26,20:08:26,NA,incomplete,false,true,NA,6,12,E13_Q4_ansR.png,right,NA,NA,NA,right,1430.5,true,NA,NA,NA,NA,NA
Gk4QBztY,NA,NA,Gk4QBztY,2020-0188,2021-09-20,21:49:26,20:08:26,NA,incomplete,false,true,NA,6,13,E13_Q10_ansL.png,left,NA,NA,NA,left,1462.5,true,NA,NA,NA,NA,NA
Gk4QBztY,NA,NA,Gk4QBztY,2020-0188,2021-09-20,21:49:26,20:08:26,NA,incomplete,false,true,NA,6,14,E13_Q6_ansR.png,right,NA,NA,NA,right,1638.40000000596,true,NA,NA,NA,NA,NA
Gk4QBztY,NA,NA,Gk4QBztY,2020-0188,2021-09-20,21:49:26,20:08:26,NA,incomplete,false,true,NA,6,15,E13_Q2_ansL.png,left,NA,NA,NA,left,1374.29999999702,true,NA,NA,NA,NA,NA
Gk4QBztY,NA,NA,Gk4QBztY,2020-0188,2021-09-20,21:49:26,20:08:26,NA,incomplete,false,true,NA,6,16,E13_Q1_ansL.png,left,NA,NA,NA,left,1075.79999999702,true,NA,NA,NA,NA,NA
Gk4QBztY,NA,NA,Gk4QBztY,2020-0188,2021-09-20,21:49:26,20:08:26,NA,incomplete,false,true,NA,6,17,E13_Q5_ansR.png,right,NA,NA,NA,right,1228.79999999702,true,NA,NA,NA,NA,NA
Gk4QBztY,NA,NA,Gk4QBztY,2020-0188,2021-09-20,21:49:26,20:08:26,NA,incomplete,false,true,NA,6,18,E13_Q7_ansL.png,left,NA,NA,NA,left,949.300000011921,true,NA,NA,NA,NA,NA
Gk4QBztY,NA,NA,Gk4QBztY,2020-0188,2021-09-20,21:49:26,20:08:26,NA,incomplete,false,true,NA,6,19,E13_Q9_ansR.png,right,NA,NA,NA,right,1069.20000000298,true,NA,NA,NA,NA,NA
Gk4QBztY,NA,NA,Gk4QBztY,2020-0188,2021-09-20,21:49:26,20:08:26,NA,incomplete,false,true,NA,6,20,E6_Q2_ansL.png,left,NA,NA,NA,left,2627.20000000298,true,NA,NA,NA,NA,NA
Gk4QBztY,NA,NA,Gk4QBztY,2020-0188,2021-09-20,21:49:26,20:08:26,NA,incomplete,false,true,NA,6,21,E6_Q10_ansL.png,left,NA,NA,NA,left,1917.39999999106,true,NA,NA,NA,NA,NA
Gk4QBztY,NA,NA,Gk4QBztY,2020-0188,2021-09-20,21:49:26,20:08:26,NA,incomplete,false,true,NA,6,22,E6_Q4_ansR.png,right,NA,NA,NA,right,1217,true,NA,NA,NA,NA,NA
Gk4QBztY,NA,NA,Gk4QBztY,2020-0188,2021-09-20,21:49:26,20:08:26,NA,incomplete,false,true,NA,6,23,E6_Q3_ansR.png,right,NA,NA,NA,right,1584.5,true,NA,NA,NA,NA,NA
Gk4QBztY,NA,NA,Gk4QBztY,2020-0188,2021-09-20,21:49:26,20:08:26,NA,incomplete,false,true,NA,6,24,E6_Q1_ansL.png,left,NA,NA,NA,left,1106.09999999404,true,NA,NA,NA,NA,NA
Gk4QBztY,NA,NA,Gk4QBztY,2020-0188,2021-09-20,21:49:26,20:08:26,NA,incomplete,false,true,NA,6,25,E6_Q5_ansR.png,right,NA,NA,NA,right,1276.40000000596,true,NA,NA,NA,NA,NA
Gk4QBztY,NA,NA,Gk4QBztY,2020-0188,2021-09-20,21:49:26,20:08:26,NA,incomplete,false,true,NA,6,26,E6_Q9_ansL.png,left,NA,NA,NA,left,900,true,NA,NA,NA,NA,NA
Gk4QBztY,NA,NA,Gk4QBztY,2020-0188,2021-09-20,21:49:26,20:08:26,NA,incomplete,false,true,NA,6,27,E6_Q7_ansL.png,left,NA,NA,NA,left,1116,true,NA,NA,NA,NA,NA
Gk4QBztY,NA,NA,Gk4QBztY,2020-0188,2021-09-20,21:49:26,20:08:26,NA,incomplete,false,true,NA,6,28,E6_Q6_ansR.png,right,NA,NA,NA,right,1405.09999999404,true,NA,NA,NA,NA,NA
Gk4QBztY,NA,NA,Gk4QBztY,2020-0188,2021-09-20,21:49:26,20:08:26,NA,incomplete,false,true,NA,6,29,E6_Q8_ansL.png,left,NA,NA,NA,left,1511.20000000298,true,NA,NA,NA,NA,NA
Gk4QBztY,NA,NA,Gk4QBztY,2020-0188,2021-09-20,21:49:26,20:08:26,NA,incomplete,false,NA,true,6,0,NA,left,E29_Q6_ansR.png,E13_Q3_ansR.png,between,NA,NaN,NA,left,3303.300000011921,1,2,1371.2000000029802
Gk4QBztY,NA,NA,Gk4QBztY,2020-0188,2021-09-20,21:49:26,20:08:26,NA,incomplete,false,NA,true,6,1,NA,right,E13_Q9_ansR.png,E13_Q1_ansL.png,within,NA,NaN,NA,right,1982.300000011921,1,1,1012.7999999970198
Gk4QBztY,NA,NA,Gk4QBztY,2020-0188,2021-09-20,21:49:26,20:08:26,NA,incomplete,false,NA,true,6,2,NA,left,E13_Q7_ansL.png,E6_Q10_ansL.png,between,NA,NaN,NA,left,3263.4000000059605,1,1,1482.2999999970198
Gk4QBztY,NA,NA,Gk4QBztY,2020-0188,2021-09-20,21:49:26,20:08:26,NA,incomplete,false,NA,true,6,3,NA,left,E29_Q9_ansR.png,E13_Q4_ansR.png,between,NA,NaN,NA,left,2055.6000000089407,1,2,1855.5999999940395
Gk4QBztY,NA,NA,Gk4QBztY,2020-0188,2021-09-20,21:49:26,20:08:26,NA,incomplete,false,NA,true,6,4,NA,right,E6_Q3_ansR.png,E6_Q2_ansL.png,within,NA,NaN,NA,right,4797.300000011921,1,1,1625.4000000059605
Gk4QBztY,NA,NA,Gk4QBztY,2020-0188,2021-09-20,21:49:26,20:08:26,NA,incomplete,false,NA,true,6,5,NA,left,E13_Q5_ansR.png,E6_Q2_ansL.png,between,NA,NaN,NA,right,4149.4000000059605,0,2,4856.5
Gk4QBztY,NA,NA,Gk4QBztY,2020-0188,2021-09-20,21:49:26,20:08:26,NA,incomplete,false,NA,true,6,6,NA,left,E29_Q5_ansR.png,E29_Q6_ansR.png,within,NA,NaN,NA,left,2193,1,1,1254.4000000059605
Gk4QBztY,NA,NA,Gk4QBztY,2020-0188,2021-09-20,21:49:26,20:08:26,NA,incomplete,false,NA,true,6,7,NA,left,E13_Q4_ansR.png,E13_Q2_ansL.png,within,NA,NaN,NA,left,2581.7000000029802,1,2,1246.8999999910593
Gk4QBztY,NA,NA,Gk4QBztY,2020-0188,2021-09-20,21:49:26,20:08:26,NA,incomplete,false,NA,true,6,8,NA,right,E13_Q1_ansL.png,E13_Q10_ansL.png,within,NA,NaN,NA,left,3179.5,0,1,1071.0999999940395
Gk4QBztY,NA,NA,Gk4QBztY,2020-0188,2021-09-20,21:49:26,20:08:26,NA,incomplete,false,NA,true,6,9,NA,left,E29_Q7_ansL.png,E29_Q5_ansR.png,within,NA,NaN,NA,left,3567.1000000089407,1,1,1070.5
Gk4QBztY,NA,NA,Gk4QBztY,2020-0188,2021-09-20,21:49:26,20:08:26,NA,incomplete,false,NA,true,6,10,NA,left,E6_Q1_ansL.png,E6_Q7_ansL.png,within,NA,NaN,NA,left,3083,1,1,1357.2999999970198
Gk4QBztY,NA,NA,Gk4QBztY,2020-0188,2021-09-20,21:49:26,20:08:26,NA,incomplete,false,NA,true,6,11,NA,right,E6_Q9_ansL.png,E6_Q3_ansR.png,within,NA,NaN,NA,left,6497.29999999702,0,1,2064.8999999910593
Gk4QBztY,NA,NA,Gk4QBztY,2020-0188,2021-09-20,21:49:26,20:08:26,NA,incomplete,false,NA,true,6,12,NA,right,E13_Q8_ansL.png,E29_Q4_ansR.png,between,NA,NaN,NA,right,1413.2000000029802,1,2,1094.800000011921
Gk4QBztY,NA,NA,Gk4QBztY,2020-0188,2021-09-20,21:49:26,20:08:26,NA,incomplete,false,NA,true,6,13,NA,right,E6_Q1_ansL.png,E6_Q10_ansL.png,within,NA,NaN,NA,left,2105.5999999940395,0,0,2215.800000011921
Gk4QBztY,NA,NA,Gk4QBztY,2020-0188,2021-09-20,21:49:26,20:08:26,NA,incomplete,false,NA,true,6,14,NA,left,E6_Q4_ansR.png,E6_Q5_ansR.png,within,NA,NaN,NA,right,1832.8999999910593,0,1,1507.7000000029802
Gk4QBztY,NA,NA,Gk4QBztY,2020-0188,2021-09-20,21:49:26,20:08:26,NA,incomplete,false,NA,true,6,15,NA,right,E29_Q3_ansR.png,E29_Q2_ansL.png,within,NA,NaN,NA,right,2217,1,1,1047.4000000059605
Gk4QBztY,NA,NA,Gk4QBztY,2020-0188,2021-09-20,21:49:26,20:08:26,NA,incomplete,false,NA,true,6,16,NA,left,E6_Q5_ansR.png,E6_Q6_ansR.png,within,NA,NaN,NA,right,1746.5999999940395,0,1,2438.9000000059605
Gk4QBztY,NA,NA,Gk4QBztY,2020-0188,2021-09-20,21:49:26,20:08:26,NA,incomplete,false,NA,true,6,17,NA,right,E29_Q4_ansR.png,E29_Q3_ansR.png,within,NA,NaN,NA,left,2239.8999999910593,0,1,2581.5
Gk4QBztY,NA,NA,Gk4QBztY,2020-0188,2021-09-20,21:49:26,20:08:26,NA,incomplete,false,NA,true,6,18,NA,left,E13_Q9_ansR.png,E6_Q4_ansR.png,between,NA,NaN,NA,left,2978.7000000029802,1,1,1722.7000000029802
Gk4QBztY,NA,NA,Gk4QBztY,2020-0188,2021-09-20,21:49:26,20:08:26,NA,incomplete,false,NA,true,6,19,NA,left,E29_Q10_ansL.png,E29_Q1_ansL.png,within,NA,NaN,NA,left,2199.5,1,2,1039.199999988079
Gk4QBztY,NA,NA,Gk4QBztY,2020-0188,2021-09-20,21:49:26,20:08:26,NA,incomplete,false,NA,true,6,20,NA,left,E13_Q2_ansL.png,E13_Q7_ansL.png,within,NA,NaN,NA,right,2239.0999999940395,0,1,1277.5
Gk4QBztY,NA,NA,Gk4QBztY,2020-0188,2021-09-20,21:49:26,20:08:26,NA,incomplete,false,NA,true,6,21,NA,right,E13_Q6_ansR.png,E13_Q3_ansR.png,within,NA,NaN,NA,right,2311.1000000089407,1,1,1452.2999999970198
Gk4QBztY,NA,NA,Gk4QBztY,2020-0188,2021-09-20,21:49:26,20:08:26,NA,incomplete,false,NA,true,6,22,NA,right,E29_Q9_ansR.png,E29_Q8_ansL.png,within,NA,NaN,NA,right,1619.3999999910593,1,2,1960.3999999910593
Gk4QBztY,NA,NA,Gk4QBztY,2020-0188,2021-09-20,21:49:26,20:08:26,NA,incomplete,false,NA,true,6,23,NA,left,E13_Q6_ansR.png,E13_Q5_ansR.png,within,NA,NaN,NA,right,2413.7999999970198,0,1,1221.7999999970198
Gk4QBztY,NA,NA,Gk4QBztY,2020-0188,2021-09-20,21:49:26,20:08:26,NA,incomplete,false,NA,true,6,24,NA,left,E29_Q1_ansL.png,E29_Q8_ansL.png,within,NA,NaN,NA,right,1689.5,0,1,1404.7999999970198
Gk4QBztY,NA,NA,Gk4QBztY,2020-0188,2021-09-20,21:49:26,20:08:26,NA,incomplete,false,NA,true,6,25,NA,left,E6_Q9_ansL.png,E6_Q8_ansL.png,within,NA,NaN,NA,right,3678.7000000029802,0,1,1309.7000000029802
Gk4QBztY,NA,NA,Gk4QBztY,2020-0188,2021-09-20,21:49:26,20:08:26,NA,incomplete,false,NA,true,6,26,NA,right,E13_Q10_ansL.png,E13_Q8_ansL.png,within,NA,NaN,NA,right,2399,1,1,2184.2999999970198
Gk4QBztY,NA,NA,Gk4QBztY,2020-0188,2021-09-20,21:49:26,20:08:26,NA,incomplete,false,true,NA,7,0,E33_Q6_ansR.png,right,NA,NA,NA,right,2194.70000000298,true,NA,NA,NA,NA,NA
Gk4QBztY,NA,NA,Gk4QBztY,2020-0188,2021-09-20,21:49:26,20:08:26,NA,incomplete,false,true,NA,7,1,E33_Q2_ansL.png,left,NA,NA,NA,left,2290.40000000596,true,NA,NA,NA,NA,NA
Gk4QBztY,NA,NA,Gk4QBztY,2020-0188,2021-09-20,21:49:26,20:08:26,NA,incomplete,false,true,NA,7,2,E33_Q5_ansR.png,right,NA,NA,NA,right,3125,true,NA,NA,NA,NA,NA
Gk4QBztY,NA,NA,Gk4QBztY,2020-0188,2021-09-20,21:49:26,20:08:26,NA,incomplete,false,true,NA,7,3,E33_Q9_ansR.png,right,NA,NA,NA,right,2007.20000000298,true,NA,NA,NA,NA,NA
Gk4QBztY,NA,NA,Gk4QBztY,2020-0188,2021-09-20,21:49:26,20:08:26,NA,incomplete,false,true,NA,7,4,E33_Q1_ansL.png,left,NA,NA,NA,left,2078.29999999702,true,NA,NA,NA,NA,NA
Gk4QBztY,NA,NA,Gk4QBztY,2020-0188,2021-09-20,21:49:26,20:08:26,NA,incomplete,false,true,NA,7,5,E33_Q7_ansL.png,left,NA,NA,NA,right,2099.29999999702,false,NA,NA,NA,NA,NA
Gk4QBztY,NA,NA,Gk4QBztY,2020-0188,2021-09-20,21:49:26,20:08:26,NA,incomplete,false,true,NA,7,6,E33_Q8_ansL.png,left,NA,NA,NA,left,1984.10000000894,true,NA,NA,NA,NA,NA
Gk4QBztY,NA,NA,Gk4QBztY,2020-0188,2021-09-20,21:49:26,20:08:26,NA,incomplete,false,true,NA,7,7,E33_Q3_ansR.png,right,NA,NA,NA,right,1552,true,NA,NA,NA,NA,NA
Gk4QBztY,NA,NA,Gk4QBztY,2020-0188,2021-09-20,21:49:26,20:08:26,NA,incomplete,false,true,NA,7,8,E33_Q4_ansR.png,right,NA,NA,NA,right,1258.90000000596,true,NA,NA,NA,NA,NA
Gk4QBztY,NA,NA,Gk4QBztY,2020-0188,2021-09-20,21:49:26,20:08:26,NA,incomplete,false,true,NA,7,9,E33_Q10_ansL.png,left,NA,NA,NA,right,2219.09999999404,false,NA,NA,NA,NA,NA
Gk4QBztY,NA,NA,Gk4QBztY,2020-0188,2021-09-20,21:49:26,20:08:26,NA,incomplete,false,true,NA,7,10,E32_Q7_ansL.png,left,NA,NA,NA,left,3065.70000000298,true,NA,NA,NA,NA,NA
Gk4QBztY,NA,NA,Gk4QBztY,2020-0188,2021-09-20,21:49:26,20:08:26,NA,incomplete,false,true,NA,7,11,E32_Q2_ansL.png,left,NA,NA,NA,left,1452.29999999702,true,NA,NA,NA,NA,NA
Gk4QBztY,NA,NA,Gk4QBztY,2020-0188,2021-09-20,21:49:26,20:08:26,NA,incomplete,false,true,NA,7,12,E32_Q5_ansR.png,right,NA,NA,NA,right,1154.10000000894,true,NA,NA,NA,NA,NA
Gk4QBztY,NA,NA,Gk4QBztY,2020-0188,2021-09-20,21:49:26,20:08:26,NA,incomplete,false,true,NA,7,13,E32_Q1_ansL.png,left,NA,NA,NA,left,1418.70000000298,true,NA,NA,NA,NA,NA
Gk4QBztY,NA,NA,Gk4QBztY,2020-0188,2021-09-20,21:49:26,20:08:26,NA,incomplete,false,true,NA,7,14,E32_Q3_ansR.png,right,NA,NA,NA,right,1163.60000000894,true,NA,NA,NA,NA,NA
Gk4QBztY,NA,NA,Gk4QBztY,2020-0188,2021-09-20,21:49:26,20:08:26,NA,incomplete,false,true,NA,7,15,E32_Q4_ansR.png,right,NA,NA,NA,right,1846.59999999404,true,NA,NA,NA,NA,NA
Gk4QBztY,NA,NA,Gk4QBztY,2020-0188,2021-09-20,21:49:26,20:08:26,NA,incomplete,false,true,NA,7,16,E32_Q10_ansL.png,left,NA,NA,NA,left,1796.89999999106,true,NA,NA,NA,NA,NA
Gk4QBztY,NA,NA,Gk4QBztY,2020-0188,2021-09-20,21:49:26,20:08:26,NA,incomplete,false,true,NA,7,17,E32_Q6_ansR.png,right,NA,NA,NA,right,1155.5,true,NA,NA,NA,NA,NA
Gk4QBztY,NA,NA,Gk4QBztY,2020-0188,2021-09-20,21:49:26,20:08:26,NA,incomplete,false,true,NA,7,18,E32_Q8_ansL.png,left,NA,NA,NA,left,1582.79999999702,true,NA,NA,NA,NA,NA
Gk4QBztY,NA,NA,Gk4QBztY,2020-0188,2021-09-20,21:49:26,20:08:26,NA,incomplete,false,true,NA,7,19,E32_Q9_ansR.png,right,NA,NA,NA,right,1404.29999999702,true,NA,NA,NA,NA,NA
Gk4QBztY,NA,NA,Gk4QBztY,2020-0188,2021-09-20,21:49:26,20:08:26,NA,incomplete,false,true,NA,7,20,E30_Q2_ansL.png,left,NA,NA,NA,left,3286.89999999106,true,NA,NA,NA,NA,NA
Gk4QBztY,NA,NA,Gk4QBztY,2020-0188,2021-09-20,21:49:26,20:08:26,NA,incomplete,false,true,NA,7,21,E30_Q1_ansL.png,left,NA,NA,NA,left,2022.29999999702,true,NA,NA,NA,NA,NA
Gk4QBztY,NA,NA,Gk4QBztY,2020-0188,2021-09-20,21:49:26,20:08:26,NA,incomplete,false,true,NA,7,22,E30_Q10_ansR.png,right,NA,NA,NA,right,1859.70000000298,true,NA,NA,NA,NA,NA
Gk4QBztY,NA,NA,Gk4QBztY,2020-0188,2021-09-20,21:49:26,20:08:26,NA,incomplete,false,true,NA,7,23,E30_Q9_ansL.png,left,NA,NA,NA,left,2031.20000000298,true,NA,NA,NA,NA,NA
Gk4QBztY,NA,NA,Gk4QBztY,2020-0188,2021-09-20,21:49:26,20:08:26,NA,incomplete,false,true,NA,7,24,E30_Q4_ansL.png,left,NA,NA,NA,left,1403.19999998808,true,NA,NA,NA,NA,NA
Gk4QBztY,NA,NA,Gk4QBztY,2020-0188,2021-09-20,21:49:26,20:08:26,NA,incomplete,false,true,NA,7,25,E30_Q3_ansL.png,left,NA,NA,NA,left,1704.09999999404,true,NA,NA,NA,NA,NA
Gk4QBztY,NA,NA,Gk4QBztY,2020-0188,2021-09-20,21:49:26,20:08:26,NA,incomplete,false,true,NA,7,26,E30_Q5_ansR.png,right,NA,NA,NA,right,1887,true,NA,NA,NA,NA,NA
Gk4QBztY,NA,NA,Gk4QBztY,2020-0188,2021-09-20,21:49:26,20:08:26,NA,incomplete,false,true,NA,7,27,E30_Q8_ansL.png,left,NA,NA,NA,right,2181,false,NA,NA,NA,NA,NA
Gk4QBztY,NA,NA,Gk4QBztY,2020-0188,2021-09-20,21:49:26,20:08:26,NA,incomplete,false,true,NA,7,28,E30_Q6_ansR.png,right,NA,NA,NA,right,1653.20000000298,true,NA,NA,NA,NA,NA
Gk4QBztY,NA,NA,Gk4QBztY,2020-0188,2021-09-20,21:49:26,20:08:26,NA,incomplete,false,true,NA,7,29,E30_Q7_ansL.png,left,NA,NA,NA,right,1103.5,false,NA,NA,NA,NA,NA
Gk4QBztY,NA,NA,Gk4QBztY,2020-0188,2021-09-20,21:49:26,20:08:26,NA,incomplete,false,NA,true,7,0,NA,right,E30_Q3_ansL.png,E30_Q10_ansR.png,within,NA,NaN,NA,left,7439.70000000298,0,1,1554.5
Gk4QBztY,NA,NA,Gk4QBztY,2020-0188,2021-09-20,21:49:26,20:08:26,NA,incomplete,false,NA,true,7,1,NA,right,E32_Q7_ansL.png,E33_Q3_ansR.png,between,NA,NaN,NA,left,2102.2999999970198,0,2,1076.7999999970198
Gk4QBztY,NA,NA,Gk4QBztY,2020-0188,2021-09-20,21:49:26,20:08:26,NA,incomplete,false,NA,true,7,2,NA,right,E30_Q2_ansL.png,E32_Q6_ansR.png,between,NA,NaN,NA,right,1656.7999999970198,1,2,1291.3999999910593
Gk4QBztY,NA,NA,Gk4QBztY,2020-0188,2021-09-20,21:49:26,20:08:26,NA,incomplete,false,NA,true,7,3,NA,left,E32_Q4_ansR.png,E32_Q8_ansL.png,within,NA,NaN,NA,right,5641.9000000059605,0,2,939.2000000029802
Gk4QBztY,NA,NA,Gk4QBztY,2020-0188,2021-09-20,21:49:26,20:08:26,NA,incomplete,false,NA,true,7,4,NA,right,E33_Q7_ansL.png,E33_Q5_ansR.png,within,NA,NaN,NA,right,2240.4000000059605,1,0,1850.0999999940395
Gk4QBztY,NA,NA,Gk4QBztY,2020-0188,2021-09-20,21:49:26,20:08:26,NA,incomplete,false,NA,true,7,5,NA,left,E30_Q4_ansL.png,E30_Q8_ansL.png,within,NA,NaN,NA,left,3250.0999999940395,1,1,1992.7999999970198
Gk4QBztY,NA,NA,Gk4QBztY,2020-0188,2021-09-20,21:49:26,20:08:26,NA,incomplete,false,NA,true,7,6,NA,left,E33_Q9_ansR.png,E33_Q8_ansL.png,within,NA,NaN,NA,right,2652.2999999970198,0,1,1325.2000000029802
Gk4QBztY,NA,NA,Gk4QBztY,2020-0188,2021-09-20,21:49:26,20:08:26,NA,incomplete,false,NA,true,7,7,NA,right,E33_Q3_ansR.png,E33_Q1_ansL.png,within,NA,NaN,NA,left,6551.70000000298,0,1,1730.3999999910593
Gk4QBztY,NA,NA,Gk4QBztY,2020-0188,2021-09-20,21:49:26,20:08:26,NA,incomplete,false,NA,true,7,8,NA,left,E32_Q10_ansL.png,E32_Q9_ansR.png,within,NA,NaN,NA,left,2819.2999999970198,1,1,1372.2000000029802
Gk4QBztY,NA,NA,Gk4QBztY,2020-0188,2021-09-20,21:49:26,20:08:26,NA,incomplete,false,NA,true,7,9,NA,left,E30_Q1_ansL.png,E30_Q4_ansL.png,within,NA,NaN,NA,left,3893.2999999970198,1,1,2771.2000000029802
Gk4QBztY,NA,NA,Gk4QBztY,2020-0188,2021-09-20,21:49:26,20:08:26,NA,incomplete,false,NA,true,7,10,NA,left,E32_Q8_ansL.png,E30_Q1_ansL.png,between,NA,NaN,NA,right,2698.9000000059605,0,1,903.5999999940395
Gk4QBztY,NA,NA,Gk4QBztY,2020-0188,2021-09-20,21:49:26,20:08:26,NA,incomplete,false,NA,true,7,11,NA,left,E33_Q4_ansR.png,E32_Q2_ansL.png,between,NA,NaN,NA,right,1880.9000000059605,0,1,1571.7000000029802
Gk4QBztY,NA,NA,Gk4QBztY,2020-0188,2021-09-20,21:49:26,20:08:26,NA,incomplete,false,NA,true,7,12,NA,left,E33_Q2_ansL.png,E33_Q1_ansL.png,within,NA,NaN,NA,right,2183,0,0,1348.5
Gk4QBztY,NA,NA,Gk4QBztY,2020-0188,2021-09-20,21:49:26,20:08:26,NA,incomplete,false,NA,true,7,13,NA,right,E30_Q6_ansR.png,E30_Q3_ansL.png,within,NA,NaN,NA,right,2174.5,1,2,1078.5999999940395
Gk4QBztY,NA,NA,Gk4QBztY,2020-0188,2021-09-20,21:49:26,20:08:26,NA,incomplete,false,NA,true,7,14,NA,left,E32_Q9_ansR.png,E30_Q10_ansR.png,between,NA,NaN,NA,left,2739.4000000059605,1,1,1197.5999999940395
Gk4QBztY,NA,NA,Gk4QBztY,2020-0188,2021-09-20,21:49:26,20:08:26,NA,incomplete,false,NA,true,7,15,NA,left,E33_Q7_ansL.png,E33_Q4_ansR.png,within,NA,NaN,NA,left,2367,1,2,2469.5
Gk4QBztY,NA,NA,Gk4QBztY,2020-0188,2021-09-20,21:49:26,20:08:26,NA,incomplete,false,NA,true,7,16,NA,left,E30_Q9_ansL.png,E30_Q5_ansR.png,within,NA,NaN,NA,left,2969.6000000089407,1,1,1118.3999999910593
Gk4QBztY,NA,NA,Gk4QBztY,2020-0188,2021-09-20,21:49:26,20:08:26,NA,incomplete,false,NA,true,7,17,NA,right,E33_Q9_ansR.png,E33_Q6_ansR.png,within,NA,NaN,NA,right,4890.699999988079,1,1,1213.7000000029802
Gk4QBztY,NA,NA,Gk4QBztY,2020-0188,2021-09-20,21:49:26,20:08:26,NA,incomplete,false,NA,true,7,18,NA,right,E30_Q7_ansL.png,E30_Q5_ansR.png,within,NA,NaN,NA,right,4477,1,1,1055.2999999970198
Gk4QBztY,NA,NA,Gk4QBztY,2020-0188,2021-09-20,21:49:26,20:08:26,NA,incomplete,false,NA,true,7,19,NA,right,E30_Q9_ansL.png,E30_Q2_ansL.png,within,NA,NaN,NA,right,5462.9000000059605,1,1,1158.5
Gk4QBztY,NA,NA,Gk4QBztY,2020-0188,2021-09-20,21:49:26,20:08:26,NA,incomplete,false,NA,true,7,20,NA,left,E32_Q1_ansL.png,E32_Q10_ansL.png,within,NA,NaN,NA,right,3986.2999999970198,0,1,1713.7999999970198
Gk4QBztY,NA,NA,Gk4QBztY,2020-0188,2021-09-20,21:49:26,20:08:26,NA,incomplete,false,NA,true,7,21,NA,left,E32_Q7_ansL.png,E32_Q1_ansL.png,within,NA,NaN,NA,left,1627.0999999940395,1,2,1078.2999999970198
Gk4QBztY,NA,NA,Gk4QBztY,2020-0188,2021-09-20,21:49:26,20:08:26,NA,incomplete,false,NA,true,7,22,NA,left,E32_Q3_ansR.png,E32_Q6_ansR.png,within,NA,NaN,NA,right,1626.5999999940395,0,1,2198.300000011921
Gk4QBztY,NA,NA,Gk4QBztY,2020-0188,2021-09-20,21:49:26,20:08:26,NA,incomplete,false,NA,true,7,23,NA,left,E33_Q10_ansL.png,E32_Q5_ansR.png,between,NA,NaN,NA,right,1340.5,0,2,1236.7999999970198
Gk4QBztY,NA,NA,Gk4QBztY,2020-0188,2021-09-20,21:49:26,20:08:26,NA,incomplete,false,NA,true,7,24,NA,right,E32_Q4_ansR.png,E32_Q5_ansR.png,within,NA,NaN,NA,right,2158.300000011921,1,2,1046.2999999970198
Gk4QBztY,NA,NA,Gk4QBztY,2020-0188,2021-09-20,21:49:26,20:08:26,NA,incomplete,false,NA,true,7,25,NA,right,E33_Q10_ansL.png,E33_Q8_ansL.png,within,NA,NaN,NA,left,2780.2999999970198,0,1,3009.7000000029802
Gk4QBztY,NA,NA,Gk4QBztY,2020-0188,2021-09-20,21:49:26,20:08:26,NA,incomplete,false,NA,true,7,26,NA,left,E32_Q2_ansL.png,E32_Q3_ansR.png,within,NA,NaN,NA,left,2040.2000000029802,1,1,1810.1000000089407
Gk4QBztY,NA,NA,Gk4QBztY,2020-0188,2021-09-20,21:49:26,20:08:26,NA,incomplete,false,true,NA,8,0,E5_Q2_ansL.png,left,NA,NA,NA,left,1759.70000000298,true,NA,NA,NA,NA,NA
Gk4QBztY,NA,NA,Gk4QBztY,2020-0188,2021-09-20,21:49:26,20:08:26,NA,incomplete,false,true,NA,8,1,E5_Q5_ansR.png,right,NA,NA,NA,right,1690.10000000894,true,NA,NA,NA,NA,NA
Gk4QBztY,NA,NA,Gk4QBztY,2020-0188,2021-09-20,21:49:26,20:08:26,NA,incomplete,false,true,NA,8,2,E5_Q6_ansR.png,right,NA,NA,NA,right,1493.5,true,NA,NA,NA,NA,NA
Gk4QBztY,NA,NA,Gk4QBztY,2020-0188,2021-09-20,21:49:26,20:08:26,NA,incomplete,false,true,NA,8,3,E5_Q4_ansR.png,right,NA,NA,NA,right,1390.89999999106,true,NA,NA,NA,NA,NA
Gk4QBztY,NA,NA,Gk4QBztY,2020-0188,2021-09-20,21:49:26,20:08:26,NA,incomplete,false,true,NA,8,4,E5_Q9_ansR.png,right,NA,NA,NA,right,1220.40000000596,true,NA,NA,NA,NA,NA
Gk4QBztY,NA,NA,Gk4QBztY,2020-0188,2021-09-20,21:49:26,20:08:26,NA,incomplete,false,true,NA,8,5,E5_Q8_ansL.png,left,NA,NA,NA,left,1703.79999999702,true,NA,NA,NA,NA,NA
Gk4QBztY,NA,NA,Gk4QBztY,2020-0188,2021-09-20,21:49:26,20:08:26,NA,incomplete,false,true,NA,8,6,E5_Q10_ansR.png,right,NA,NA,NA,right,1698.70000000298,true,NA,NA,NA,NA,NA
Gk4QBztY,NA,NA,Gk4QBztY,2020-0188,2021-09-20,21:49:26,20:08:26,NA,incomplete,false,true,NA,8,7,E5_Q3_ansR.png,right,NA,NA,NA,right,1625.30000001192,true,NA,NA,NA,NA,NA
Gk4QBztY,NA,NA,Gk4QBztY,2020-0188,2021-09-20,21:49:26,20:08:26,NA,incomplete,false,true,NA,8,8,E5_Q1_ansL.png,left,NA,NA,NA,left,1417,true,NA,NA,NA,NA,NA
Gk4QBztY,NA,NA,Gk4QBztY,2020-0188,2021-09-20,21:49:26,20:08:26,NA,incomplete,false,true,NA,8,9,E5_Q7_ansL.png,left,NA,NA,NA,left,1782.5,true,NA,NA,NA,NA,NA
Gk4QBztY,NA,NA,Gk4QBztY,2020-0188,2021-09-20,21:49:26,20:08:26,NA,incomplete,false,true,NA,8,10,E3_Q9_ansL.png,left,NA,NA,NA,left,2088.70000000298,true,NA,NA,NA,NA,NA
Gk4QBztY,NA,NA,Gk4QBztY,2020-0188,2021-09-20,21:49:26,20:08:26,NA,incomplete,false,true,NA,8,11,E3_Q3_ansR.png,right,NA,NA,NA,right,1916.59999999404,true,NA,NA,NA,NA,NA
Gk4QBztY,NA,NA,Gk4QBztY,2020-0188,2021-09-20,21:49:26,20:08:26,NA,incomplete,false,true,NA,8,12,E3_Q2_ansL.png,left,NA,NA,NA,left,1734.39999999106,true,NA,NA,NA,NA,NA
Gk4QBztY,NA,NA,Gk4QBztY,2020-0188,2021-09-20,21:49:26,20:08:26,NA,incomplete,false,true,NA,8,13,E3_Q5_ansR.png,right,NA,NA,NA,right,1534.89999999106,true,NA,NA,NA,NA,NA
Gk4QBztY,NA,NA,Gk4QBztY,2020-0188,2021-09-20,21:49:26,20:08:26,NA,incomplete,false,true,NA,8,14,E3_Q4_ansL.png,left,NA,NA,NA,left,1886.10000000894,true,NA,NA,NA,NA,NA
Gk4QBztY,NA,NA,Gk4QBztY,2020-0188,2021-09-20,21:49:26,20:08:26,NA,incomplete,false,true,NA,8,15,E3_Q8_ansL.png,left,NA,NA,NA,left,2044.70000000298,true,NA,NA,NA,NA,NA
Gk4QBztY,NA,NA,Gk4QBztY,2020-0188,2021-09-20,21:49:26,20:08:26,NA,incomplete,false,true,NA,8,16,E3_Q7_ansL.png,left,NA,NA,NA,left,2097.19999998808,true,NA,NA,NA,NA,NA
Gk4QBztY,NA,NA,Gk4QBztY,2020-0188,2021-09-20,21:49:26,20:08:26,NA,incomplete,false,true,NA,8,17,E3_Q1_ansR.png,right,NA,NA,NA,right,1624.40000000596,true,NA,NA,NA,NA,NA
Gk4QBztY,NA,NA,Gk4QBztY,2020-0188,2021-09-20,21:49:26,20:08:26,NA,incomplete,false,true,NA,8,18,E3_Q10_ansR.png,right,NA,NA,NA,right,2014.70000000298,true,NA,NA,NA,NA,NA
Gk4QBztY,NA,NA,Gk4QBztY,2020-0188,2021-09-20,21:49:26,20:08:26,NA,incomplete,false,true,NA,8,19,E3_Q6_ansR.png,right,NA,NA,NA,right,1924,true,NA,NA,NA,NA,NA
Gk4QBztY,NA,NA,Gk4QBztY,2020-0188,2021-09-20,21:49:26,20:08:26,NA,incomplete,false,true,NA,8,20,E7_Q8_ansL.png,left,NA,NA,NA,left,1637.80000001192,true,NA,NA,NA,NA,NA
Gk4QBztY,NA,NA,Gk4QBztY,2020-0188,2021-09-20,21:49:26,20:08:26,NA,incomplete,false,true,NA,8,21,E7_Q2_ansL.png,left,NA,NA,NA,left,1672.20000000298,true,NA,NA,NA,NA,NA
Gk4QBztY,NA,NA,Gk4QBztY,2020-0188,2021-09-20,21:49:26,20:08:26,NA,incomplete,false,true,NA,8,22,E7_Q1_ansL.png,left,NA,NA,NA,left,2057.10000000894,true,NA,NA,NA,NA,NA
Gk4QBztY,NA,NA,Gk4QBztY,2020-0188,2021-09-20,21:49:26,20:08:26,NA,incomplete,false,true,NA,8,23,E7_Q6_ansR.png,right,NA,NA,NA,right,1368.79999999702,true,NA,NA,NA,NA,NA
Gk4QBztY,NA,NA,Gk4QBztY,2020-0188,2021-09-20,21:49:26,20:08:26,NA,incomplete,false,true,NA,8,24,E7_Q3_ansR.png,right,NA,NA,NA,right,1493.79999999702,true,NA,NA,NA,NA,NA
Gk4QBztY,NA,NA,Gk4QBztY,2020-0188,2021-09-20,21:49:26,20:08:26,NA,incomplete,false,true,NA,8,25,E7_Q9_ansR.png,right,NA,NA,NA,right,1956.29999999702,true,NA,NA,NA,NA,NA
Gk4QBztY,NA,NA,Gk4QBztY,2020-0188,2021-09-20,21:49:26,20:08:26,NA,incomplete,false,true,NA,8,26,E7_Q4_ansR.png,right,NA,NA,NA,right,1303.59999999404,true,NA,NA,NA,NA,NA
Gk4QBztY,NA,NA,Gk4QBztY,2020-0188,2021-09-20,21:49:26,20:08:26,NA,incomplete,false,true,NA,8,27,E7_Q5_ansR.png,right,NA,NA,NA,right,1359.29999999702,true,NA,NA,NA,NA,NA
Gk4QBztY,NA,NA,Gk4QBztY,2020-0188,2021-09-20,21:49:26,20:08:26,NA,incomplete,false,true,NA,8,28,E7_Q7_ansL.png,left,NA,NA,NA,left,1481.70000000298,true,NA,NA,NA,NA,NA
Gk4QBztY,NA,NA,Gk4QBztY,2020-0188,2021-09-20,21:49:26,20:08:26,NA,incomplete,false,true,NA,8,29,E7_Q10_ansR.png,right,NA,NA,NA,right,1337.89999999106,true,NA,NA,NA,NA,NA
Gk4QBztY,NA,NA,Gk4QBztY,2020-0188,2021-09-20,21:49:26,20:08:26,NA,incomplete,false,NA,true,8,0,NA,right,E3_Q9_ansL.png,E5_Q3_ansR.png,between,NA,NaN,NA,right,3500.800000011921,1,2,2229
Gk4QBztY,NA,NA,Gk4QBztY,2020-0188,2021-09-20,21:49:26,20:08:26,NA,incomplete,false,NA,true,8,1,NA,right,E7_Q10_ansR.png,E7_Q4_ansR.png,within,NA,NaN,NA,right,3247.2999999970198,1,1,1008
Gk4QBztY,NA,NA,Gk4QBztY,2020-0188,2021-09-20,21:49:26,20:08:26,NA,incomplete,false,NA,true,8,2,NA,right,E7_Q2_ansL.png,E3_Q10_ansR.png,between,NA,NaN,NA,right,1588,1,2,1309.7000000029802
Gk4QBztY,NA,NA,Gk4QBztY,2020-0188,2021-09-20,21:49:26,20:08:26,NA,incomplete,false,NA,true,8,3,NA,left,E7_Q3_ansR.png,E7_Q5_ansR.png,within,NA,NaN,NA,left,3256.7999999970198,1,1,1166.2999999970198
Gk4QBztY,NA,NA,Gk4QBztY,2020-0188,2021-09-20,21:49:26,20:08:26,NA,incomplete,false,NA,true,8,4,NA,right,E3_Q8_ansL.png,E3_Q2_ansL.png,within,NA,NaN,NA,right,7723.29999999702,1,1,3185.300000011921
Gk4QBztY,NA,NA,Gk4QBztY,2020-0188,2021-09-20,21:49:26,20:08:26,NA,incomplete,false,NA,true,8,5,NA,left,E7_Q8_ansL.png,E7_Q6_ansR.png,within,NA,NaN,NA,left,2437.8999999910593,1,1,1054.699999988079
Gk4QBztY,NA,NA,Gk4QBztY,2020-0188,2021-09-20,21:49:26,20:08:26,NA,incomplete,false,NA,true,8,6,NA,right,E3_Q5_ansR.png,E3_Q9_ansL.png,within,NA,NaN,NA,right,1675.2000000029802,1,1,2223
Gk4QBztY,NA,NA,Gk4QBztY,2020-0188,2021-09-20,21:49:26,20:08:26,NA,incomplete,false,NA,true,8,7,NA,left,E5_Q9_ansR.png,E5_Q3_ansR.png,within,NA,NaN,NA,right,2166.9000000059605,0,1,1674.4000000059605
Gk4QBztY,NA,NA,Gk4QBztY,2020-0188,2021-09-20,21:49:26,20:08:26,NA,incomplete,false,NA,true,8,8,NA,left,E3_Q8_ansL.png,E3_Q10_ansR.png,within,NA,NaN,NA,right,1722,0,1,1666.6000000089407
Gk4QBztY,NA,NA,Gk4QBztY,2020-0188,2021-09-20,21:49:26,20:08:26,NA,incomplete,false,NA,true,8,9,NA,right,E5_Q1_ansL.png,E5_Q8_ansL.png,within,NA,NaN,NA,left,2421.5,0,1,1729.8999999910593
Gk4QBztY,NA,NA,Gk4QBztY,2020-0188,2021-09-20,21:49:26,20:08:26,NA,incomplete,false,NA,true,8,10,NA,left,E3_Q3_ansR.png,E3_Q4_ansL.png,within,NA,NaN,NA,right,2302.0999999940395,0,1,1572
Gk4QBztY,NA,NA,Gk4QBztY,2020-0188,2021-09-20,21:49:26,20:08:26,NA,incomplete,false,NA,true,8,11,NA,right,E7_Q4_ansR.png,E7_Q6_ansR.png,within,NA,NaN,NA,right,2057.0999999940395,1,1,1523.5
Gk4QBztY,NA,NA,Gk4QBztY,2020-0188,2021-09-20,21:49:26,20:08:26,NA,incomplete,false,NA,true,8,12,NA,left,E5_Q4_ansR.png,E5_Q10_ansR.png,within,NA,NaN,NA,left,3653.5,1,1,1221.5
Gk4QBztY,NA,NA,Gk4QBztY,2020-0188,2021-09-20,21:49:26,20:08:26,NA,incomplete,false,NA,true,8,13,NA,left,E5_Q2_ansL.png,E5_Q4_ansR.png,within,NA,NaN,NA,left,2223.300000011921,1,1,3168.1000000089407
Gk4QBztY,NA,NA,Gk4QBztY,2020-0188,2021-09-20,21:49:26,20:08:26,NA,incomplete,false,NA,true,8,14,NA,right,E5_Q8_ansL.png,E5_Q6_ansR.png,within,NA,NaN,NA,right,1682.5,1,1,1285.5
Gk4QBztY,NA,NA,Gk4QBztY,2020-0188,2021-09-20,21:49:26,20:08:26,NA,incomplete,false,NA,true,8,15,NA,right,E3_Q7_ansL.png,E3_Q5_ansR.png,within,NA,NaN,NA,right,1937,1,1,1690.0999999940395
Gk4QBztY,NA,NA,Gk4QBztY,2020-0188,2021-09-20,21:49:26,20:08:26,NA,incomplete,false,NA,true,8,16,NA,right,E3_Q1_ansR.png,E3_Q4_ansL.png,within,NA,NaN,NA,left,2612.5999999940395,0,1,2318.2999999970198
Gk4QBztY,NA,NA,Gk4QBztY,2020-0188,2021-09-20,21:49:26,20:08:26,NA,incomplete,false,NA,true,8,17,NA,right,E7_Q3_ansR.png,E7_Q2_ansL.png,within,NA,NaN,NA,right,2587.8999999910593,1,1,1245.0999999940395
Gk4QBztY,NA,NA,Gk4QBztY,2020-0188,2021-09-20,21:49:26,20:08:26,NA,incomplete,false,NA,true,8,18,NA,left,E5_Q10_ansR.png,E5_Q7_ansL.png,within,NA,NaN,NA,right,4020,0,1,1888.199999988079
Gk4QBztY,NA,NA,Gk4QBztY,2020-0188,2021-09-20,21:49:26,20:08:26,NA,incomplete,false,NA,true,8,19,NA,left,E3_Q6_ansR.png,E7_Q1_ansL.png,between,NA,NaN,NA,left,2723,1,2,2389.9000000059605
Gk4QBztY,NA,NA,Gk4QBztY,2020-0188,2021-09-20,21:49:26,20:08:26,NA,incomplete,false,NA,true,8,20,NA,left,E3_Q7_ansL.png,E3_Q6_ansR.png,within,NA,NaN,NA,right,1747.5999999940395,0,1,2382.2000000029802
Gk4QBztY,NA,NA,Gk4QBztY,2020-0188,2021-09-20,21:49:26,20:08:26,NA,incomplete,false,NA,true,8,21,NA,left,E5_Q1_ansL.png,E3_Q3_ansR.png,between,NA,NaN,NA,left,2826.800000011921,1,2,3040.9000000059605
Gk4QBztY,NA,NA,Gk4QBztY,2020-0188,2021-09-20,21:49:26,20:08:26,NA,incomplete,false,NA,true,8,22,NA,right,E7_Q8_ansL.png,E3_Q1_ansR.png,between,NA,NaN,NA,right,3233,1,2,1094
Gk4QBztY,NA,NA,Gk4QBztY,2020-0188,2021-09-20,21:49:26,20:08:26,NA,incomplete,false,NA,true,8,23,NA,left,E7_Q9_ansR.png,E7_Q7_ansL.png,within,NA,NaN,NA,right,2652.0999999940395,0,1,2167.0999999940395
Gk4QBztY,NA,NA,Gk4QBztY,2020-0188,2021-09-20,21:49:26,20:08:26,NA,incomplete,false,NA,true,8,24,NA,right,E7_Q9_ansR.png,E7_Q1_ansL.png,within,NA,NaN,NA,right,2572.5999999940395,1,1,1205.699999988079
Gk4QBztY,NA,NA,Gk4QBztY,2020-0188,2021-09-20,21:49:26,20:08:26,NA,incomplete,false,NA,true,8,25,NA,left,E5_Q7_ansL.png,E3_Q2_ansL.png,between,NA,NaN,NA,left,2842.6000000089407,1,2,1729.9000000059605
Gk4QBztY,NA,NA,Gk4QBztY,2020-0188,2021-09-20,21:49:26,20:08:26,NA,incomplete,false,NA,true,8,26,NA,left,E5_Q5_ansR.png,E5_Q9_ansR.png,within,NA,NaN,NA,right,2636.1000000089407,0,1,1419.9000000059605
Gk4QBztY,NA,NA,Gk4QBztY,2020-0188,2021-09-20,21:49:26,20:08:26,NA,incomplete,false,true,NA,9,0,E12_Q3_ansR.png,right,NA,NA,NA,left,2764.5,false,NA,NA,NA,NA,NA
Gk4QBztY,NA,NA,Gk4QBztY,2020-0188,2021-09-20,21:49:26,20:08:26,NA,incomplete,false,true,NA,9,1,E12_Q9_ansR.png,right,NA,NA,NA,right,1731.90000000596,true,NA,NA,NA,NA,NA
Gk4QBztY,NA,NA,Gk4QBztY,2020-0188,2021-09-20,21:49:26,20:08:26,NA,incomplete,false,true,NA,9,2,E12_Q10_ansL.png,left,NA,NA,NA,left,1549.90000000596,true,NA,NA,NA,NA,NA
Gk4QBztY,NA,NA,Gk4QBztY,2020-0188,2021-09-20,21:49:26,20:08:26,NA,incomplete,false,true,NA,9,3,E12_Q2_ansL.png,left,NA,NA,NA,right,2301.09999999404,false,NA,NA,NA,NA,NA
Gk4QBztY,NA,NA,Gk4QBztY,2020-0188,2021-09-20,21:49:26,20:08:26,NA,incomplete,false,true,NA,9,4,E12_Q6_ansR.png,right,NA,NA,NA,right,1713,true,NA,NA,NA,NA,NA
Gk4QBztY,NA,NA,Gk4QBztY,2020-0188,2021-09-20,21:49:26,20:08:26,NA,incomplete,false,true,NA,9,5,E12_Q5_ansR.png,right,NA,NA,NA,right,1749.5,true,NA,NA,NA,NA,NA
Gk4QBztY,NA,NA,Gk4QBztY,2020-0188,2021-09-20,21:49:26,20:08:26,NA,incomplete,false,true,NA,9,6,E12_Q8_ansL.png,left,NA,NA,NA,left,1518.29999999702,true,NA,NA,NA,NA,NA
Gk4QBztY,NA,NA,Gk4QBztY,2020-0188,2021-09-20,21:49:26,20:08:26,NA,incomplete,false,true,NA,9,7,E12_Q1_ansL.png,left,NA,NA,NA,right,1765.09999999404,false,NA,NA,NA,NA,NA
Gk4QBztY,NA,NA,Gk4QBztY,2020-0188,2021-09-20,21:49:26,20:08:26,NA,incomplete,false,true,NA,9,8,E12_Q4_ansR.png,right,NA,NA,NA,right,1649.69999998808,true,NA,NA,NA,NA,NA
Gk4QBztY,NA,NA,Gk4QBztY,2020-0188,2021-09-20,21:49:26,20:08:26,NA,incomplete,false,true,NA,9,9,E12_Q7_ansL.png,left,NA,NA,NA,left,1810.70000000298,true,NA,NA,NA,NA,NA
Gk4QBztY,NA,NA,Gk4QBztY,2020-0188,2021-09-20,21:49:26,20:08:26,NA,incomplete,false,true,NA,9,10,E31_Q2_ansR.png,right,NA,NA,NA,left,2659.40000000596,false,NA,NA,NA,NA,NA
Gk4QBztY,NA,NA,Gk4QBztY,2020-0188,2021-09-20,21:49:26,20:08:26,NA,incomplete,false,true,NA,9,11,E31_Q3_ansL.png,left,NA,NA,NA,right,1851.79999999702,false,NA,NA,NA,NA,NA
Gk4QBztY,NA,NA,Gk4QBztY,2020-0188,2021-09-20,21:49:26,20:08:26,NA,incomplete,false,true,NA,9,12,E31_Q10_ansR.png,right,NA,NA,NA,right,1518.20000000298,true,NA,NA,NA,NA,NA
Gk4QBztY,NA,NA,Gk4QBztY,2020-0188,2021-09-20,21:49:26,20:08:26,NA,incomplete,false,true,NA,9,13,E31_Q9_ansL.png,left,NA,NA,NA,left,1227.40000000596,true,NA,NA,NA,NA,NA
Gk4QBztY,NA,NA,Gk4QBztY,2020-0188,2021-09-20,21:49:26,20:08:26,NA,incomplete,false,true,NA,9,14,E31_Q1_ansR.png,right,NA,NA,NA,right,1268.5,true,NA,NA,NA,NA,NA
Gk4QBztY,NA,NA,Gk4QBztY,2020-0188,2021-09-20,21:49:26,20:08:26,NA,incomplete,false,true,NA,9,15,E31_Q8_ansR.png,right,NA,NA,NA,right,1649.10000000894,true,NA,NA,NA,NA,NA
Gk4QBztY,NA,NA,Gk4QBztY,2020-0188,2021-09-20,21:49:26,20:08:26,NA,incomplete,false,true,NA,9,16,E31_Q5_ansL.png,left,NA,NA,NA,left,1921.90000000596,true,NA,NA,NA,NA,NA
Gk4QBztY,NA,NA,Gk4QBztY,2020-0188,2021-09-20,21:49:26,20:08:26,NA,incomplete,false,true,NA,9,17,E31_Q4_ansL.png,left,NA,NA,NA,right,1549.39999999106,false,NA,NA,NA,NA,NA
Gk4QBztY,NA,NA,Gk4QBztY,2020-0188,2021-09-20,21:49:26,20:08:26,NA,incomplete,false,true,NA,9,18,E31_Q6_ansL.png,left,NA,NA,NA,left,1152.60000000894,true,NA,NA,NA,NA,NA
Gk4QBztY,NA,NA,Gk4QBztY,2020-0188,2021-09-20,21:49:26,20:08:26,NA,incomplete,false,true,NA,9,19,E31_Q7_ansR.png,right,NA,NA,NA,right,1694.59999999404,true,NA,NA,NA,NA,NA
Gk4QBztY,NA,NA,Gk4QBztY,2020-0188,2021-09-20,21:49:26,20:08:26,NA,incomplete,false,true,NA,9,20,E15_Q7_ansL.png,left,NA,NA,NA,left,2074.30000001192,true,NA,NA,NA,NA,NA
Gk4QBztY,NA,NA,Gk4QBztY,2020-0188,2021-09-20,21:49:26,20:08:26,NA,incomplete,false,true,NA,9,21,E15_Q1_ansL.png,left,NA,NA,NA,left,1261.09999999404,true,NA,NA,NA,NA,NA
Gk4QBztY,NA,NA,Gk4QBztY,2020-0188,2021-09-20,21:49:26,20:08:26,NA,incomplete,false,true,NA,9,22,E15_Q3_ansR.png,right,NA,NA,NA,right,985.90000000596,true,NA,NA,NA,NA,NA
Gk4QBztY,NA,NA,Gk4QBztY,2020-0188,2021-09-20,21:49:26,20:08:26,NA,incomplete,false,true,NA,9,23,E15_Q4_ansR.png,right,NA,NA,NA,right,1297.20000000298,true,NA,NA,NA,NA,NA
Gk4QBztY,NA,NA,Gk4QBztY,2020-0188,2021-09-20,21:49:26,20:08:26,NA,incomplete,false,true,NA,9,24,E15_Q6_ansR.png,right,NA,NA,NA,right,1590.69999998808,true,NA,NA,NA,NA,NA
Gk4QBztY,NA,NA,Gk4QBztY,2020-0188,2021-09-20,21:49:26,20:08:26,NA,incomplete,false,true,NA,9,25,E15_Q8_ansL.png,left,NA,NA,NA,left,1084.5,true,NA,NA,NA,NA,NA
Gk4QBztY,NA,NA,Gk4QBztY,2020-0188,2021-09-20,21:49:26,20:08:26,NA,incomplete,false,true,NA,9,26,E15_Q9_ansR.png,right,NA,NA,NA,right,1393.89999999106,true,NA,NA,NA,NA,NA
Gk4QBztY,NA,NA,Gk4QBztY,2020-0188,2021-09-20,21:49:26,20:08:26,NA,incomplete,false,true,NA,9,27,E15_Q2_ansL.png,left,NA,NA,NA,left,1087,true,NA,NA,NA,NA,NA
Gk4QBztY,NA,NA,Gk4QBztY,2020-0188,2021-09-20,21:49:26,20:08:26,NA,incomplete,false,true,NA,9,28,E15_Q5_ansR.png,right,NA,NA,NA,right,1293.09999999404,true,NA,NA,NA,NA,NA
Gk4QBztY,NA,NA,Gk4QBztY,2020-0188,2021-09-20,21:49:26,20:08:26,NA,incomplete,false,true,NA,9,29,E15_Q10_ansL.png,left,NA,NA,NA,left,1023.09999999404,true,NA,NA,NA,NA,NA
Gk4QBztY,NA,NA,Gk4QBztY,2020-0188,2021-09-20,21:49:26,20:08:26,NA,incomplete,false,NA,true,9,0,NA,left,E15_Q7_ansL.png,E15_Q4_ansR.png,within,NA,NaN,NA,left,3207.2000000029802,1,1,1148.2999999970198
Gk4QBztY,NA,NA,Gk4QBztY,2020-0188,2021-09-20,21:49:26,20:08:26,NA,incomplete,false,NA,true,9,1,NA,right,E12_Q7_ansL.png,E12_Q8_ansL.png,within,NA,NaN,NA,right,8861.699999988079,1,1,1347.5999999940395
Gk4QBztY,NA,NA,Gk4QBztY,2020-0188,2021-09-20,21:49:26,20:08:26,NA,incomplete,false,NA,true,9,2,NA,left,E31_Q3_ansL.png,E31_Q1_ansR.png,within,NA,NaN,NA,right,3040.6000000089407,0,1,1426.5999999940395
Gk4QBztY,NA,NA,Gk4QBztY,2020-0188,2021-09-20,21:49:26,20:08:26,NA,incomplete,false,NA,true,9,3,NA,left,E31_Q6_ansL.png,E15_Q1_ansL.png,between,NA,NaN,NA,right,2262.2000000029802,0,1,1315
Gk4QBztY,NA,NA,Gk4QBztY,2020-0188,2021-09-20,21:49:26,20:08:26,NA,incomplete,false,NA,true,9,4,NA,right,E15_Q3_ansR.png,E31_Q7_ansR.png,between,NA,NaN,NA,left,7419.29999999702,0,2,8042
Gk4QBztY,NA,NA,Gk4QBztY,2020-0188,2021-09-20,21:49:26,20:08:26,NA,incomplete,false,NA,true,9,5,NA,right,E31_Q4_ansL.png,E31_Q1_ansR.png,within,NA,NaN,NA,right,11562.90000000596,1,1,2038.0999999940395
Gk4QBztY,NA,NA,Gk4QBztY,2020-0188,2021-09-20,21:49:26,20:08:26,NA,incomplete,false,NA,true,9,6,NA,left,E31_Q8_ansR.png,E31_Q6_ansL.png,within,NA,NaN,NA,right,4709.20000000298,0,1,1155.8999999910593
Gk4QBztY,NA,NA,Gk4QBztY,2020-0188,2021-09-20,21:49:26,20:08:26,NA,incomplete,false,NA,true,9,7,NA,right,E15_Q5_ansR.png,E15_Q8_ansL.png,within,NA,NaN,NA,left,4294.70000000298,0,1,1211.5999999940395
Gk4QBztY,NA,NA,Gk4QBztY,2020-0188,2021-09-20,21:49:26,20:08:26,NA,incomplete,false,NA,true,9,8,NA,right,E15_Q10_ansL.png,E15_Q9_ansR.png,within,NA,NaN,NA,right,1839.2999999970198,1,1,1124.1000000089407
Gk4QBztY,NA,NA,Gk4QBztY,2020-0188,2021-09-20,21:49:26,20:08:26,NA,incomplete,false,NA,true,9,9,NA,left,E12_Q6_ansR.png,E12_Q1_ansL.png,within,NA,NaN,NA,left,5486.5,1,1,1219.5999999940395
Gk4QBztY,NA,NA,Gk4QBztY,2020-0188,2021-09-20,21:49:26,20:08:26,NA,incomplete,false,NA,true,9,10,NA,left,E15_Q6_ansR.png,E15_Q2_ansL.png,within,NA,NaN,NA,left,2537.9000000059605,1,1,1275.5
Gk4QBztY,NA,NA,Gk4QBztY,2020-0188,2021-09-20,21:49:26,20:08:26,NA,incomplete,false,NA,true,9,11,NA,left,E31_Q10_ansR.png,E31_Q8_ansR.png,within,NA,NaN,NA,right,4969.9000000059605,0,1,1902
Gk4QBztY,NA,NA,Gk4QBztY,2020-0188,2021-09-20,21:49:26,20:08:26,NA,incomplete,false,NA,true,9,12,NA,left,E15_Q1_ansL.png,E15_Q6_ansR.png,within,NA,NaN,NA,right,2664.7999999970198,0,1,2792.300000011921
Gk4QBztY,NA,NA,Gk4QBztY,2020-0188,2021-09-20,21:49:26,20:08:26,NA,incomplete,false,NA,true,9,13,NA,right,E12_Q4_ansR.png,E12_Q5_ansR.png,within,NA,NaN,NA,left,6630.5,0,1,1523.5999999940395
