workerId,hitId,assignmentId,subject,studyid,exp_date,exp_start,exp_end,time_start,time_end,practice,encoding,memory,block,trial,stim,answer,left_image,right_image,condition,response,response_time,response_acc,order_response,order_response_time,order_acc,distance_response,distance_response_time
jAmS8la5,NA,NA,jAmS8la5,2020-0188,2021-09-21,22:18:55,23:16:29,NA,incomplete,true,true,NA,0,0,E6_Q4_ansR.png,right,NA,NA,NA,right,1578.70000004768,true,NA,NA,NA,NA,NA
jAmS8la5,NA,NA,jAmS8la5,2020-0188,2021-09-21,22:18:55,23:16:29,NA,incomplete,true,true,NA,0,1,E6_Q1_ansL.png,left,NA,NA,NA,left,1741.09999990463,true,NA,NA,NA,NA,NA
jAmS8la5,NA,NA,jAmS8la5,2020-0188,2021-09-21,22:18:55,23:16:29,NA,incomplete,true,true,NA,0,2,E6_Q8_ansL.png,left,NA,NA,NA,left,2601.89999985695,true,NA,NA,NA,NA,NA
jAmS8la5,NA,NA,jAmS8la5,2020-0188,2021-09-21,22:18:55,23:16:29,NA,incomplete,true,true,NA,0,3,E6_Q2_ansL.png,left,NA,NA,NA,left,2028.29999995232,true,NA,NA,NA,NA,NA
jAmS8la5,NA,NA,jAmS8la5,2020-0188,2021-09-21,22:18:55,23:16:29,NA,incomplete,true,true,NA,0,4,E6_Q6_ansR.png,right,NA,NA,NA,right,1052.20000004768,true,NA,NA,NA,NA,NA
jAmS8la5,NA,NA,jAmS8la5,2020-0188,2021-09-21,22:18:55,23:16:29,NA,incomplete,true,true,NA,0,5,E6_Q9_ansL.png,left,NA,NA,NA,left,1034,true,NA,NA,NA,NA,NA
jAmS8la5,NA,NA,jAmS8la5,2020-0188,2021-09-21,22:18:55,23:16:29,NA,incomplete,true,true,NA,0,6,E6_Q3_ansR.png,right,NA,NA,NA,right,1569.60000014305,true,NA,NA,NA,NA,NA
jAmS8la5,NA,NA,jAmS8la5,2020-0188,2021-09-21,22:18:55,23:16:29,NA,incomplete,true,true,NA,0,7,E6_Q10_ansL.png,left,NA,NA,NA,left,1245.70000004768,true,NA,NA,NA,NA,NA
jAmS8la5,NA,NA,jAmS8la5,2020-0188,2021-09-21,22:18:55,23:16:29,NA,incomplete,true,true,NA,0,8,E6_Q5_ansR.png,right,NA,NA,NA,right,1273.20000004768,true,NA,NA,NA,NA,NA
jAmS8la5,NA,NA,jAmS8la5,2020-0188,2021-09-21,22:18:55,23:16:29,NA,incomplete,true,true,NA,0,9,E6_Q7_ansL.png,left,NA,NA,NA,left,1129.20000004768,true,NA,NA,NA,NA,NA
jAmS8la5,NA,NA,jAmS8la5,2020-0188,2021-09-21,22:18:55,23:16:29,NA,incomplete,true,true,NA,0,10,E33_Q6_ansR.png,right,NA,NA,NA,right,2299.09999990463,true,NA,NA,NA,NA,NA
jAmS8la5,NA,NA,jAmS8la5,2020-0188,2021-09-21,22:18:55,23:16:29,NA,incomplete,true,true,NA,0,11,E33_Q1_ansL.png,left,NA,NA,NA,left,2005.59999990463,true,NA,NA,NA,NA,NA
jAmS8la5,NA,NA,jAmS8la5,2020-0188,2021-09-21,22:18:55,23:16:29,NA,incomplete,true,true,NA,0,12,E33_Q3_ansR.png,right,NA,NA,NA,right,1843.20000004768,true,NA,NA,NA,NA,NA
jAmS8la5,NA,NA,jAmS8la5,2020-0188,2021-09-21,22:18:55,23:16:29,NA,incomplete,true,true,NA,0,13,E33_Q10_ansL.png,left,NA,NA,NA,left,3093.40000009537,true,NA,NA,NA,NA,NA
jAmS8la5,NA,NA,jAmS8la5,2020-0188,2021-09-21,22:18:55,23:16:29,NA,incomplete,true,true,NA,0,14,E33_Q4_ansR.png,right,NA,NA,NA,right,1125.10000014305,true,NA,NA,NA,NA,NA
jAmS8la5,NA,NA,jAmS8la5,2020-0188,2021-09-21,22:18:55,23:16:29,NA,incomplete,true,true,NA,0,15,E33_Q9_ansR.png,right,NA,NA,NA,right,1659.79999995232,true,NA,NA,NA,NA,NA
jAmS8la5,NA,NA,jAmS8la5,2020-0188,2021-09-21,22:18:55,23:16:29,NA,incomplete,true,true,NA,0,16,E33_Q8_ansL.png,left,NA,NA,NA,left,1635.70000004768,true,NA,NA,NA,NA,NA
jAmS8la5,NA,NA,jAmS8la5,2020-0188,2021-09-21,22:18:55,23:16:29,NA,incomplete,true,true,NA,0,17,E33_Q5_ansR.png,right,NA,NA,NA,right,3398.90000009537,true,NA,NA,NA,NA,NA
jAmS8la5,NA,NA,jAmS8la5,2020-0188,2021-09-21,22:18:55,23:16:29,NA,incomplete,true,true,NA,0,18,E33_Q2_ansL.png,left,NA,NA,NA,left,1632.59999990463,true,NA,NA,NA,NA,NA
jAmS8la5,NA,NA,jAmS8la5,2020-0188,2021-09-21,22:18:55,23:16:29,NA,incomplete,true,true,NA,0,19,E33_Q7_ansL.png,left,NA,NA,NA,left,2446.90000009537,true,NA,NA,NA,NA,NA
jAmS8la5,NA,NA,jAmS8la5,2020-0188,2021-09-21,22:18:55,23:16:29,NA,incomplete,true,true,NA,0,20,E14_Q4_ansR.png,right,NA,NA,NA,right,1326.60000014305,true,NA,NA,NA,NA,NA
jAmS8la5,NA,NA,jAmS8la5,2020-0188,2021-09-21,22:18:55,23:16:29,NA,incomplete,true,true,NA,0,21,E14_Q1_ansL.png,left,NA,NA,NA,left,1062.40000009537,true,NA,NA,NA,NA,NA
jAmS8la5,NA,NA,jAmS8la5,2020-0188,2021-09-21,22:18:55,23:16:29,NA,incomplete,true,true,NA,0,22,E14_Q7_ansL.png,left,NA,NA,NA,left,1267.79999995232,true,NA,NA,NA,NA,NA
jAmS8la5,NA,NA,jAmS8la5,2020-0188,2021-09-21,22:18:55,23:16:29,NA,incomplete,true,true,NA,0,23,E14_Q10_ansL.png,left,NA,NA,NA,left,2785,true,NA,NA,NA,NA,NA
jAmS8la5,NA,NA,jAmS8la5,2020-0188,2021-09-21,22:18:55,23:16:29,NA,incomplete,true,true,NA,0,24,E14_Q5_ansR.png,right,NA,NA,NA,right,1889.39999985695,true,NA,NA,NA,NA,NA
jAmS8la5,NA,NA,jAmS8la5,2020-0188,2021-09-21,22:18:55,23:16:29,NA,incomplete,true,true,NA,0,25,E14_Q3_ansR.png,right,NA,NA,NA,right,1078.90000009537,true,NA,NA,NA,NA,NA
jAmS8la5,NA,NA,jAmS8la5,2020-0188,2021-09-21,22:18:55,23:16:29,NA,incomplete,true,true,NA,0,26,E14_Q2_ansL.png,left,NA,NA,NA,left,994,true,NA,NA,NA,NA,NA
jAmS8la5,NA,NA,jAmS8la5,2020-0188,2021-09-21,22:18:55,23:16:29,NA,incomplete,true,true,NA,0,27,E14_Q8_ansL.png,left,NA,NA,NA,left,989.800000190735,true,NA,NA,NA,NA,NA
jAmS8la5,NA,NA,jAmS8la5,2020-0188,2021-09-21,22:18:55,23:16:29,NA,incomplete,true,true,NA,0,28,E14_Q6_ansR.png,right,NA,NA,NA,right,1051.69999980927,true,NA,NA,NA,NA,NA
jAmS8la5,NA,NA,jAmS8la5,2020-0188,2021-09-21,22:18:55,23:16:29,NA,incomplete,true,true,NA,0,29,E14_Q9_ansR.png,right,NA,NA,NA,right,1273.09999990463,true,NA,NA,NA,NA,NA
jAmS8la5,NA,NA,jAmS8la5,2020-0188,2021-09-21,22:18:55,23:16:29,NA,incomplete,true,NA,true,0,0,NA,left,E33_Q4_ansR.png,E33_Q5_ansR.png,within,NA,NaN,NA,left,5634.600000143051,1,1,6598
jAmS8la5,NA,NA,jAmS8la5,2020-0188,2021-09-21,22:18:55,23:16:29,NA,incomplete,true,NA,true,0,1,NA,left,E14_Q10_ansL.png,E14_Q2_ansL.png,within,NA,NaN,NA,right,2873.399999856949,0,1,2487.7999999523163
jAmS8la5,NA,NA,jAmS8la5,2020-0188,2021-09-21,22:18:55,23:16:29,NA,incomplete,true,NA,true,0,2,NA,left,E33_Q8_ansL.png,E33_Q7_ansL.png,within,NA,NaN,NA,left,2569.5,1,2,4337.900000095367
jAmS8la5,NA,NA,jAmS8la5,2020-0188,2021-09-21,22:18:55,23:16:29,NA,incomplete,true,NA,true,0,3,NA,right,E14_Q8_ansL.png,E14_Q5_ansR.png,within,NA,NaN,NA,left,4379,0,1,4347
jAmS8la5,NA,NA,jAmS8la5,2020-0188,2021-09-21,22:18:55,23:16:29,NA,incomplete,true,NA,true,0,4,NA,left,E33_Q1_ansL.png,E33_Q4_ansR.png,within,NA,NaN,NA,left,1778.7000000476837,1,1,1238.2999999523163
jAmS8la5,NA,NA,jAmS8la5,2020-0188,2021-09-21,22:18:55,23:16:29,NA,incomplete,true,NA,true,0,5,NA,left,E6_Q3_ansR.png,E6_Q7_ansL.png,within,NA,NaN,NA,left,2074.0999999046326,1,2,2770.4000000953674
jAmS8la5,NA,NA,jAmS8la5,2020-0188,2021-09-21,22:18:55,23:16:29,NA,incomplete,true,NA,true,0,6,NA,right,E14_Q9_ansR.png,E14_Q2_ansL.png,within,NA,NaN,NA,right,1873.7999999523163,1,1,1479.3999998569489
jAmS8la5,NA,NA,jAmS8la5,2020-0188,2021-09-21,22:18:55,23:16:29,NA,incomplete,true,NA,true,0,7,NA,right,E33_Q2_ansL.png,E33_Q9_ansR.png,within,NA,NaN,NA,right,3395.7999999523163,1,1,878.6999998092651
jAmS8la5,NA,NA,jAmS8la5,2020-0188,2021-09-21,22:18:55,23:16:29,NA,incomplete,true,NA,true,0,8,NA,right,E14_Q6_ansR.png,E14_Q3_ansR.png,within,NA,NaN,NA,right,1841.2999999523163,1,1,1439.9000000953674
jAmS8la5,NA,NA,jAmS8la5,2020-0188,2021-09-21,22:18:55,23:16:29,NA,incomplete,true,NA,true,0,9,NA,right,E33_Q3_ansR.png,E6_Q7_ansL.png,between,NA,NaN,NA,right,3852.2000000476837,1,3,1079
jAmS8la5,NA,NA,jAmS8la5,2020-0188,2021-09-21,22:18:55,23:16:29,NA,incomplete,true,NA,true,0,10,NA,left,E6_Q6_ansR.png,E6_Q10_ansL.png,within,NA,NaN,NA,left,2490.5,1,1,1127.5999999046326
jAmS8la5,NA,NA,jAmS8la5,2020-0188,2021-09-21,22:18:55,23:16:29,NA,incomplete,true,NA,true,0,11,NA,right,E14_Q1_ansL.png,E33_Q2_ansL.png,between,NA,NaN,NA,right,2843.4000000953674,1,2,1191.7999999523163
jAmS8la5,NA,NA,jAmS8la5,2020-0188,2021-09-21,22:18:55,23:16:29,NA,incomplete,true,NA,true,0,12,NA,right,E6_Q3_ansR.png,E6_Q2_ansL.png,within,NA,NaN,NA,right,1974.8999998569489,1,2,1376.7000000476837
jAmS8la5,NA,NA,jAmS8la5,2020-0188,2021-09-21,22:18:55,23:16:29,NA,incomplete,true,NA,true,0,13,NA,left,E6_Q10_ansL.png,E33_Q6_ansR.png,between,NA,NaN,NA,left,1761.5,1,2,1015.1000001430511
jAmS8la5,NA,NA,jAmS8la5,2020-0188,2021-09-21,22:18:55,23:16:29,NA,incomplete,true,NA,true,0,14,NA,right,E14_Q7_ansL.png,E33_Q7_ansL.png,between,NA,NaN,NA,right,5543.5,1,2,1424.5999999046326
jAmS8la5,NA,NA,jAmS8la5,2020-0188,2021-09-21,22:18:55,23:16:29,NA,incomplete,true,NA,true,0,15,NA,right,E33_Q1_ansL.png,E6_Q5_ansR.png,between,NA,NaN,NA,right,1200.9000000953674,1,2,1912.0999999046326
jAmS8la5,NA,NA,jAmS8la5,2020-0188,2021-09-21,22:18:55,23:16:29,NA,incomplete,true,NA,true,0,16,NA,left,E14_Q7_ansL.png,E14_Q3_ansR.png,within,NA,NaN,NA,left,4438.299999952316,1,1,1118.9000000953674
jAmS8la5,NA,NA,jAmS8la5,2020-0188,2021-09-21,22:18:55,23:16:29,NA,incomplete,true,NA,true,0,17,NA,right,E33_Q8_ansL.png,E33_Q10_ansL.png,within,NA,NaN,NA,right,5232.099999904633,1,0,1215.8000001907349
jAmS8la5,NA,NA,jAmS8la5,2020-0188,2021-09-21,22:18:55,23:16:29,NA,incomplete,true,NA,true,0,18,NA,right,E6_Q2_ansL.png,E6_Q4_ansR.png,within,NA,NaN,NA,right,2517,1,1,2265.5999999046326
jAmS8la5,NA,NA,jAmS8la5,2020-0188,2021-09-21,22:18:55,23:16:29,NA,incomplete,true,NA,true,0,19,NA,left,E6_Q1_ansL.png,E6_Q6_ansR.png,within,NA,NaN,NA,left,2211.699999809265,1,1,1120.2999999523163
jAmS8la5,NA,NA,jAmS8la5,2020-0188,2021-09-21,22:18:55,23:16:29,NA,incomplete,true,NA,true,0,20,NA,right,E33_Q9_ansR.png,E33_Q3_ansR.png,within,NA,NaN,NA,right,3260.100000143051,1,1,1159.9000000953674
jAmS8la5,NA,NA,jAmS8la5,2020-0188,2021-09-21,22:18:55,23:16:29,NA,incomplete,true,NA,true,0,21,NA,right,E6_Q9_ansL.png,E6_Q8_ansL.png,within,NA,NaN,NA,right,2562.5,1,0,1071.1000001430511
jAmS8la5,NA,NA,jAmS8la5,2020-0188,2021-09-21,22:18:55,23:16:29,NA,incomplete,true,NA,true,0,22,NA,left,E33_Q5_ansR.png,E14_Q4_ansR.png,between,NA,NaN,NA,left,1905.5,1,2,2073
jAmS8la5,NA,NA,jAmS8la5,2020-0188,2021-09-21,22:18:55,23:16:29,NA,incomplete,true,NA,true,0,23,NA,left,E6_Q9_ansL.png,E6_Q5_ansR.png,within,NA,NaN,NA,left,1754,1,1,847.5
jAmS8la5,NA,NA,jAmS8la5,2020-0188,2021-09-21,22:18:55,23:16:29,NA,incomplete,true,NA,true,0,24,NA,right,E14_Q10_ansL.png,E14_Q4_ansR.png,within,NA,NaN,NA,right,2866.9000000953674,1,0,1127.8999998569489
jAmS8la5,NA,NA,jAmS8la5,2020-0188,2021-09-21,22:18:55,23:16:29,NA,incomplete,true,NA,true,0,25,NA,right,E14_Q5_ansR.png,E14_Q1_ansL.png,within,NA,NaN,NA,right,2361.9000000953674,1,1,945.3999998569489
jAmS8la5,NA,NA,jAmS8la5,2020-0188,2021-09-21,22:18:55,23:16:29,NA,incomplete,true,NA,true,0,26,NA,left,E33_Q6_ansR.png,E33_Q10_ansL.png,within,NA,NaN,NA,left,1583.9000000953674,1,2,2352.899999856949
jAmS8la5,NA,NA,jAmS8la5,2020-0188,2021-09-21,22:18:55,23:16:29,NA,incomplete,false,true,NA,1,0,E21_Q9_ansR.png,right,NA,NA,NA,right,1841.59999990463,true,NA,NA,NA,NA,NA
jAmS8la5,NA,NA,jAmS8la5,2020-0188,2021-09-21,22:18:55,23:16:29,NA,incomplete,false,true,NA,1,1,E21_Q6_ansR.png,right,NA,NA,NA,right,1306.39999985695,true,NA,NA,NA,NA,NA
jAmS8la5,NA,NA,jAmS8la5,2020-0188,2021-09-21,22:18:55,23:16:29,NA,incomplete,false,true,NA,1,2,E21_Q1_ansL.png,left,NA,NA,NA,left,834.599999904633,true,NA,NA,NA,NA,NA
jAmS8la5,NA,NA,jAmS8la5,2020-0188,2021-09-21,22:18:55,23:16:29,NA,incomplete,false,true,NA,1,3,E21_Q5_ansR.png,right,NA,NA,NA,right,757.599999904633,true,NA,NA,NA,NA,NA
jAmS8la5,NA,NA,jAmS8la5,2020-0188,2021-09-21,22:18:55,23:16:29,NA,incomplete,false,true,NA,1,4,E21_Q2_ansL.png,left,NA,NA,NA,left,1054.59999990463,true,NA,NA,NA,NA,NA
jAmS8la5,NA,NA,jAmS8la5,2020-0188,2021-09-21,22:18:55,23:16:29,NA,incomplete,false,true,NA,1,5,E21_Q4_ansR.png,right,NA,NA,NA,right,1365.29999995232,true,NA,NA,NA,NA,NA
jAmS8la5,NA,NA,jAmS8la5,2020-0188,2021-09-21,22:18:55,23:16:29,NA,incomplete,false,true,NA,1,6,E21_Q3_ansR.png,right,NA,NA,NA,right,1217.5,true,NA,NA,NA,NA,NA
jAmS8la5,NA,NA,jAmS8la5,2020-0188,2021-09-21,22:18:55,23:16:29,NA,incomplete,false,true,NA,1,7,E21_Q10_ansL.png,left,NA,NA,NA,left,1004.90000009537,true,NA,NA,NA,NA,NA
jAmS8la5,NA,NA,jAmS8la5,2020-0188,2021-09-21,22:18:55,23:16:29,NA,incomplete,false,true,NA,1,8,E21_Q7_ansL.png,left,NA,NA,NA,left,714.900000095367,true,NA,NA,NA,NA,NA
jAmS8la5,NA,NA,jAmS8la5,2020-0188,2021-09-21,22:18:55,23:16:29,NA,incomplete,false,true,NA,1,9,E21_Q8_ansL.png,left,NA,NA,NA,left,671.299999952316,true,NA,NA,NA,NA,NA
jAmS8la5,NA,NA,jAmS8la5,2020-0188,2021-09-21,22:18:55,23:16:29,NA,incomplete,false,true,NA,1,10,E9_Q8_ansR.png,right,NA,NA,NA,right,1551.40000009537,true,NA,NA,NA,NA,NA
jAmS8la5,NA,NA,jAmS8la5,2020-0188,2021-09-21,22:18:55,23:16:29,NA,incomplete,false,true,NA,1,11,E9_Q4_ansL.png,left,NA,NA,NA,left,909.700000047684,true,NA,NA,NA,NA,NA
jAmS8la5,NA,NA,jAmS8la5,2020-0188,2021-09-21,22:18:55,23:16:29,NA,incomplete,false,true,NA,1,12,E9_Q3_ansL.png,left,NA,NA,NA,left,1031.29999995232,true,NA,NA,NA,NA,NA
jAmS8la5,NA,NA,jAmS8la5,2020-0188,2021-09-21,22:18:55,23:16:29,NA,incomplete,false,true,NA,1,13,E9_Q10_ansR.png,right,NA,NA,NA,right,848.599999904633,true,NA,NA,NA,NA,NA
jAmS8la5,NA,NA,jAmS8la5,2020-0188,2021-09-21,22:18:55,23:16:29,NA,incomplete,false,true,NA,1,14,E9_Q2_ansR.png,right,NA,NA,NA,right,1187,true,NA,NA,NA,NA,NA
jAmS8la5,NA,NA,jAmS8la5,2020-0188,2021-09-21,22:18:55,23:16:29,NA,incomplete,false,true,NA,1,15,E9_Q6_ansL.png,left,NA,NA,NA,left,1691,true,NA,NA,NA,NA,NA
jAmS8la5,NA,NA,jAmS8la5,2020-0188,2021-09-21,22:18:55,23:16:29,NA,incomplete,false,true,NA,1,16,E9_Q5_ansL.png,left,NA,NA,NA,left,943.700000047684,true,NA,NA,NA,NA,NA
jAmS8la5,NA,NA,jAmS8la5,2020-0188,2021-09-21,22:18:55,23:16:29,NA,incomplete,false,true,NA,1,17,E9_Q7_ansR.png,right,NA,NA,NA,right,1090.09999990463,true,NA,NA,NA,NA,NA
jAmS8la5,NA,NA,jAmS8la5,2020-0188,2021-09-21,22:18:55,23:16:29,NA,incomplete,false,true,NA,1,18,E9_Q1_ansR.png,right,NA,NA,NA,left,858.899999856949,false,NA,NA,NA,NA,NA
jAmS8la5,NA,NA,jAmS8la5,2020-0188,2021-09-21,22:18:55,23:16:29,NA,incomplete,false,true,NA,1,19,E9_Q9_ansL.png,left,NA,NA,NA,left,1160.79999995232,true,NA,NA,NA,NA,NA
jAmS8la5,NA,NA,jAmS8la5,2020-0188,2021-09-21,22:18:55,23:16:29,NA,incomplete,false,true,NA,1,20,E12_Q3_ansR.png,right,NA,NA,NA,right,2502.40000009537,true,NA,NA,NA,NA,NA
jAmS8la5,NA,NA,jAmS8la5,2020-0188,2021-09-21,22:18:55,23:16:29,NA,incomplete,false,true,NA,1,21,E12_Q4_ansR.png,right,NA,NA,NA,right,1197,true,NA,NA,NA,NA,NA
jAmS8la5,NA,NA,jAmS8la5,2020-0188,2021-09-21,22:18:55,23:16:29,NA,incomplete,false,true,NA,1,22,E12_Q8_ansL.png,left,NA,NA,NA,left,1227.59999990463,true,NA,NA,NA,NA,NA
jAmS8la5,NA,NA,jAmS8la5,2020-0188,2021-09-21,22:18:55,23:16:29,NA,incomplete,false,true,NA,1,23,E12_Q10_ansL.png,left,NA,NA,NA,left,1034.59999990463,true,NA,NA,NA,NA,NA
jAmS8la5,NA,NA,jAmS8la5,2020-0188,2021-09-21,22:18:55,23:16:29,NA,incomplete,false,true,NA,1,24,E12_Q7_ansL.png,left,NA,NA,NA,left,945.5,true,NA,NA,NA,NA,NA
jAmS8la5,NA,NA,jAmS8la5,2020-0188,2021-09-21,22:18:55,23:16:29,NA,incomplete,false,true,NA,1,25,E12_Q5_ansR.png,right,NA,NA,NA,right,1285.40000009537,true,NA,NA,NA,NA,NA
jAmS8la5,NA,NA,jAmS8la5,2020-0188,2021-09-21,22:18:55,23:16:29,NA,incomplete,false,true,NA,1,26,E12_Q1_ansL.png,left,NA,NA,NA,left,1537.39999985695,true,NA,NA,NA,NA,NA
jAmS8la5,NA,NA,jAmS8la5,2020-0188,2021-09-21,22:18:55,23:16:29,NA,incomplete,false,true,NA,1,27,E12_Q2_ansL.png,left,NA,NA,NA,left,927,true,NA,NA,NA,NA,NA
jAmS8la5,NA,NA,jAmS8la5,2020-0188,2021-09-21,22:18:55,23:16:29,NA,incomplete,false,true,NA,1,28,E12_Q9_ansR.png,right,NA,NA,NA,right,1079.79999995232,true,NA,NA,NA,NA,NA
jAmS8la5,NA,NA,jAmS8la5,2020-0188,2021-09-21,22:18:55,23:16:29,NA,incomplete,false,true,NA,1,29,E12_Q6_ansR.png,right,NA,NA,NA,right,1225.40000009537,true,NA,NA,NA,NA,NA
jAmS8la5,NA,NA,jAmS8la5,2020-0188,2021-09-21,22:18:55,23:16:29,NA,incomplete,false,NA,true,1,0,NA,left,E9_Q9_ansL.png,E12_Q8_ansL.png,between,NA,NaN,NA,left,2441,1,2,1262.7999999523163
jAmS8la5,NA,NA,jAmS8la5,2020-0188,2021-09-21,22:18:55,23:16:29,NA,incomplete,false,NA,true,1,1,NA,right,E12_Q4_ansR.png,E9_Q1_ansR.png,between,NA,NaN,NA,right,2379.800000190735,1,1,7200.299999952316
jAmS8la5,NA,NA,jAmS8la5,2020-0188,2021-09-21,22:18:55,23:16:29,NA,incomplete,false,NA,true,1,2,NA,right,E21_Q7_ansL.png,E21_Q4_ansR.png,within,NA,NaN,NA,right,2751.9000000953674,1,1,1518.3999998569489
jAmS8la5,NA,NA,jAmS8la5,2020-0188,2021-09-21,22:18:55,23:16:29,NA,incomplete,false,NA,true,1,3,NA,right,E21_Q8_ansL.png,E21_Q3_ansR.png,within,NA,NaN,NA,left,2946.7999999523163,0,1,1261.2000000476837
jAmS8la5,NA,NA,jAmS8la5,2020-0188,2021-09-21,22:18:55,23:16:29,NA,incomplete,false,NA,true,1,4,NA,right,E21_Q3_ansR.png,E21_Q5_ansR.png,within,NA,NaN,NA,left,1954.8999998569489,0,1,1386.8000001907349
jAmS8la5,NA,NA,jAmS8la5,2020-0188,2021-09-21,22:18:55,23:16:29,NA,incomplete,false,NA,true,1,5,NA,left,E12_Q3_ansR.png,E12_Q10_ansL.png,within,NA,NaN,NA,left,1923.5,1,1,3036.5
jAmS8la5,NA,NA,jAmS8la5,2020-0188,2021-09-21,22:18:55,23:16:29,NA,incomplete,false,NA,true,1,6,NA,left,E12_Q7_ansL.png,E12_Q2_ansL.png,within,NA,NaN,NA,left,1849.5999999046326,1,0,1238.8999998569489
jAmS8la5,NA,NA,jAmS8la5,2020-0188,2021-09-21,22:18:55,23:16:29,NA,incomplete,false,NA,true,1,7,NA,right,E12_Q3_ansR.png,E9_Q7_ansR.png,between,NA,NaN,NA,right,1353.3999998569489,1,2,1351.3999998569489
jAmS8la5,NA,NA,jAmS8la5,2020-0188,2021-09-21,22:18:55,23:16:29,NA,incomplete,false,NA,true,1,8,NA,right,E9_Q2_ansR.png,E9_Q4_ansL.png,within,NA,NaN,NA,right,2610.7999999523163,1,1,3106
jAmS8la5,NA,NA,jAmS8la5,2020-0188,2021-09-21,22:18:55,23:16:29,NA,incomplete,false,NA,true,1,9,NA,right,E9_Q5_ansL.png,E9_Q10_ansR.png,within,NA,NaN,NA,right,3195,1,1,1793.2000000476837
jAmS8la5,NA,NA,jAmS8la5,2020-0188,2021-09-21,22:18:55,23:16:29,NA,incomplete,false,NA,true,1,10,NA,left,E9_Q6_ansL.png,E9_Q1_ansR.png,within,NA,NaN,NA,left,2003.9000000953674,1,1,1039.9000000953674
jAmS8la5,NA,NA,jAmS8la5,2020-0188,2021-09-21,22:18:55,23:16:29,NA,incomplete,false,NA,true,1,11,NA,right,E21_Q4_ansR.png,E21_Q1_ansL.png,within,NA,NaN,NA,left,1529.8999998569489,0,0,1415.8000001907349
jAmS8la5,NA,NA,jAmS8la5,2020-0188,2021-09-21,22:18:55,23:16:29,NA,incomplete,false,NA,true,1,12,NA,left,E12_Q10_ansL.png,E12_Q1_ansL.png,within,NA,NaN,NA,left,2554.5999999046326,1,1,1007.7000000476837
jAmS8la5,NA,NA,jAmS8la5,2020-0188,2021-09-21,22:18:55,23:16:29,NA,incomplete,false,NA,true,1,13,NA,right,E21_Q10_ansL.png,E21_Q2_ansL.png,within,NA,NaN,NA,left,2403.399999856949,0,0,1010
jAmS8la5,NA,NA,jAmS8la5,2020-0188,2021-09-21,22:18:55,23:16:29,NA,incomplete,false,NA,true,1,14,NA,right,E21_Q5_ansR.png,E21_Q9_ansR.png,within,NA,NaN,NA,right,1370.6000001430511,1,1,1046.9000000953674
jAmS8la5,NA,NA,jAmS8la5,2020-0188,2021-09-21,22:18:55,23:16:29,NA,incomplete,false,NA,true,1,15,NA,left,E21_Q10_ansL.png,E9_Q8_ansR.png,between,NA,NaN,NA,left,1722.4000000953674,1,1,2450.7000000476837
jAmS8la5,NA,NA,jAmS8la5,2020-0188,2021-09-21,22:18:55,23:16:29,NA,incomplete,false,NA,true,1,16,NA,left,E9_Q8_ansR.png,E9_Q10_ansR.png,within,NA,NaN,NA,left,1506.0999999046326,1,1,1280.1999998092651
jAmS8la5,NA,NA,jAmS8la5,2020-0188,2021-09-21,22:18:55,23:16:29,NA,incomplete,false,NA,true,1,17,NA,left,E9_Q3_ansL.png,E9_Q6_ansL.png,within,NA,NaN,NA,left,3341.2999999523163,1,1,1616.3999998569489
jAmS8la5,NA,NA,jAmS8la5,2020-0188,2021-09-21,22:18:55,23:16:29,NA,incomplete,false,NA,true,1,18,NA,right,E12_Q6_ansR.png,E12_Q1_ansL.png,within,NA,NaN,NA,right,4361.399999856949,1,0,1760.2000000476837
jAmS8la5,NA,NA,jAmS8la5,2020-0188,2021-09-21,22:18:55,23:16:29,NA,incomplete,false,NA,true,1,19,NA,right,E21_Q2_ansL.png,E21_Q6_ansR.png,within,NA,NaN,NA,right,2642.2000000476837,1,0,1359.5999999046326
jAmS8la5,NA,NA,jAmS8la5,2020-0188,2021-09-21,22:18:55,23:16:29,NA,incomplete,false,NA,true,1,20,NA,left,E12_Q4_ansR.png,E12_Q7_ansL.png,within,NA,NaN,NA,left,1360.8000001907349,1,1,1830.9000000953674
jAmS8la5,NA,NA,jAmS8la5,2020-0188,2021-09-21,22:18:55,23:16:29,NA,incomplete,false,NA,true,1,21,NA,left,E21_Q7_ansL.png,E9_Q4_ansL.png,between,NA,NaN,NA,left,3648,1,1,814.5
jAmS8la5,NA,NA,jAmS8la5,2020-0188,2021-09-21,22:18:55,23:16:29,NA,incomplete,false,NA,true,1,22,NA,left,E12_Q8_ansL.png,E12_Q5_ansR.png,within,NA,NaN,NA,left,2111.7999999523163,1,1,1584.7999999523163
jAmS8la5,NA,NA,jAmS8la5,2020-0188,2021-09-21,22:18:55,23:16:29,NA,incomplete,false,NA,true,1,23,NA,left,E12_Q5_ansR.png,E12_Q9_ansR.png,within,NA,NaN,NA,left,2137.0999999046326,1,0,1005.2000000476837
jAmS8la5,NA,NA,jAmS8la5,2020-0188,2021-09-21,22:18:55,23:16:29,NA,incomplete,false,NA,true,1,24,NA,left,E9_Q5_ansL.png,E9_Q9_ansL.png,within,NA,NaN,NA,left,2859.7999999523163,1,0,1031.6000001430511
jAmS8la5,NA,NA,jAmS8la5,2020-0188,2021-09-21,22:18:55,23:16:29,NA,incomplete,false,NA,true,1,25,NA,right,E9_Q7_ansR.png,E9_Q2_ansR.png,within,NA,NaN,NA,left,2548.100000143051,0,1,1448.2000000476837
jAmS8la5,NA,NA,jAmS8la5,2020-0188,2021-09-21,22:18:55,23:16:29,NA,incomplete,false,NA,true,1,26,NA,left,E21_Q8_ansL.png,E9_Q3_ansL.png,between,NA,NaN,NA,left,3090,1,2,2119.7999999523163
jAmS8la5,NA,NA,jAmS8la5,2020-0188,2021-09-21,22:18:55,23:16:29,NA,incomplete,false,true,NA,2,0,E28_Q8_ansR.png,right,NA,NA,NA,right,1684.90000009537,true,NA,NA,NA,NA,NA
jAmS8la5,NA,NA,jAmS8la5,2020-0188,2021-09-21,22:18:55,23:16:29,NA,incomplete,false,true,NA,2,1,E28_Q6_ansL.png,left,NA,NA,NA,right,1455.40000009537,false,NA,NA,NA,NA,NA
jAmS8la5,NA,NA,jAmS8la5,2020-0188,2021-09-21,22:18:55,23:16:29,NA,incomplete,false,true,NA,2,2,E28_Q10_ansR.png,right,NA,NA,NA,right,981.5,true,NA,NA,NA,NA,NA
jAmS8la5,NA,NA,jAmS8la5,2020-0188,2021-09-21,22:18:55,23:16:29,NA,incomplete,false,true,NA,2,3,E28_Q1_ansR.png,right,NA,NA,NA,left,984.900000095367,false,NA,NA,NA,NA,NA
jAmS8la5,NA,NA,jAmS8la5,2020-0188,2021-09-21,22:18:55,23:16:29,NA,incomplete,false,true,NA,2,4,E28_Q9_ansL.png,left,NA,NA,NA,left,1138.79999995232,true,NA,NA,NA,NA,NA
jAmS8la5,NA,NA,jAmS8la5,2020-0188,2021-09-21,22:18:55,23:16:29,NA,incomplete,false,true,NA,2,5,E28_Q7_ansR.png,right,NA,NA,NA,right,811,true,NA,NA,NA,NA,NA
jAmS8la5,NA,NA,jAmS8la5,2020-0188,2021-09-21,22:18:55,23:16:29,NA,incomplete,false,true,NA,2,6,E28_Q5_ansL.png,left,NA,NA,NA,left,1079.5,true,NA,NA,NA,NA,NA
jAmS8la5,NA,NA,jAmS8la5,2020-0188,2021-09-21,22:18:55,23:16:29,NA,incomplete,false,true,NA,2,7,E28_Q4_ansL.png,left,NA,NA,NA,left,1819.90000009537,true,NA,NA,NA,NA,NA
jAmS8la5,NA,NA,jAmS8la5,2020-0188,2021-09-21,22:18:55,23:16:29,NA,incomplete,false,true,NA,2,8,E28_Q2_ansR.png,right,NA,NA,NA,right,1230,true,NA,NA,NA,NA,NA
jAmS8la5,NA,NA,jAmS8la5,2020-0188,2021-09-21,22:18:55,23:16:29,NA,incomplete,false,true,NA,2,9,E28_Q3_ansL.png,left,NA,NA,NA,left,1217,true,NA,NA,NA,NA,NA
jAmS8la5,NA,NA,jAmS8la5,2020-0188,2021-09-21,22:18:55,23:16:29,NA,incomplete,false,true,NA,2,10,E26_Q2_ansL.png,left,NA,NA,NA,left,1546.20000004768,true,NA,NA,NA,NA,NA
jAmS8la5,NA,NA,jAmS8la5,2020-0188,2021-09-21,22:18:55,23:16:29,NA,incomplete,false,true,NA,2,11,E26_Q5_ansR.png,right,NA,NA,NA,right,969,true,NA,NA,NA,NA,NA
jAmS8la5,NA,NA,jAmS8la5,2020-0188,2021-09-21,22:18:55,23:16:29,NA,incomplete,false,true,NA,2,12,E26_Q7_ansL.png,left,NA,NA,NA,left,998.400000095367,true,NA,NA,NA,NA,NA
jAmS8la5,NA,NA,jAmS8la5,2020-0188,2021-09-21,22:18:55,23:16:29,NA,incomplete,false,true,NA,2,13,E26_Q8_ansL.png,left,NA,NA,NA,left,1495.60000014305,true,NA,NA,NA,NA,NA
jAmS8la5,NA,NA,jAmS8la5,2020-0188,2021-09-21,22:18:55,23:16:29,NA,incomplete,false,true,NA,2,14,E26_Q9_ansR.png,right,NA,NA,NA,right,1213.59999990463,true,NA,NA,NA,NA,NA
jAmS8la5,NA,NA,jAmS8la5,2020-0188,2021-09-21,22:18:55,23:16:29,NA,incomplete,false,true,NA,2,15,E26_Q3_ansR.png,right,NA,NA,NA,right,1087,true,NA,NA,NA,NA,NA
jAmS8la5,NA,NA,jAmS8la5,2020-0188,2021-09-21,22:18:55,23:16:29,NA,incomplete,false,true,NA,2,16,E26_Q6_ansR.png,right,NA,NA,NA,right,895.399999856949,true,NA,NA,NA,NA,NA
jAmS8la5,NA,NA,jAmS8la5,2020-0188,2021-09-21,22:18:55,23:16:29,NA,incomplete,false,true,NA,2,17,E26_Q10_ansL.png,left,NA,NA,NA,left,992.899999856949,true,NA,NA,NA,NA,NA
jAmS8la5,NA,NA,jAmS8la5,2020-0188,2021-09-21,22:18:55,23:16:29,NA,incomplete,false,true,NA,2,18,E26_Q1_ansL.png,left,NA,NA,NA,left,1211.90000009537,true,NA,NA,NA,NA,NA
jAmS8la5,NA,NA,jAmS8la5,2020-0188,2021-09-21,22:18:55,23:16:29,NA,incomplete,false,true,NA,2,19,E26_Q4_ansR.png,right,NA,NA,NA,right,1229.79999995232,true,NA,NA,NA,NA,NA
jAmS8la5,NA,NA,jAmS8la5,2020-0188,2021-09-21,22:18:55,23:16:29,NA,incomplete,false,true,NA,2,20,E17_Q6_ansR.png,right,NA,NA,NA,right,1324.70000004768,true,NA,NA,NA,NA,NA
jAmS8la5,NA,NA,jAmS8la5,2020-0188,2021-09-21,22:18:55,23:16:29,NA,incomplete,false,true,NA,2,21,E17_Q4_ansR.png,right,NA,NA,NA,right,1149,true,NA,NA,NA,NA,NA
jAmS8la5,NA,NA,jAmS8la5,2020-0188,2021-09-21,22:18:55,23:16:29,NA,incomplete,false,true,NA,2,22,E17_Q10_ansL.png,left,NA,NA,NA,left,1179.80000019073,true,NA,NA,NA,NA,NA
jAmS8la5,NA,NA,jAmS8la5,2020-0188,2021-09-21,22:18:55,23:16:29,NA,incomplete,false,true,NA,2,23,E17_Q2_ansL.png,left,NA,NA,NA,left,1063.79999995232,true,NA,NA,NA,NA,NA
jAmS8la5,NA,NA,jAmS8la5,2020-0188,2021-09-21,22:18:55,23:16:29,NA,incomplete,false,true,NA,2,24,E17_Q8_ansL.png,left,NA,NA,NA,left,989.700000047684,true,NA,NA,NA,NA,NA
jAmS8la5,NA,NA,jAmS8la5,2020-0188,2021-09-21,22:18:55,23:16:29,NA,incomplete,false,true,NA,2,25,E17_Q1_ansL.png,left,NA,NA,NA,left,919.899999856949,true,NA,NA,NA,NA,NA
jAmS8la5,NA,NA,jAmS8la5,2020-0188,2021-09-21,22:18:55,23:16:29,NA,incomplete,false,true,NA,2,26,E17_Q5_ansR.png,right,NA,NA,NA,right,837.200000047684,true,NA,NA,NA,NA,NA
jAmS8la5,NA,NA,jAmS8la5,2020-0188,2021-09-21,22:18:55,23:16:29,NA,incomplete,false,true,NA,2,27,E17_Q3_ansR.png,right,NA,NA,NA,right,928.900000095367,true,NA,NA,NA,NA,NA
jAmS8la5,NA,NA,jAmS8la5,2020-0188,2021-09-21,22:18:55,23:16:29,NA,incomplete,false,true,NA,2,28,E17_Q9_ansR.png,right,NA,NA,NA,right,1094.09999990463,true,NA,NA,NA,NA,NA
jAmS8la5,NA,NA,jAmS8la5,2020-0188,2021-09-21,22:18:55,23:16:29,NA,incomplete,false,true,NA,2,29,E17_Q7_ansL.png,left,NA,NA,NA,left,874.299999952316,true,NA,NA,NA,NA,NA
jAmS8la5,NA,NA,jAmS8la5,2020-0188,2021-09-21,22:18:55,23:16:29,NA,incomplete,false,NA,true,2,0,NA,left,E28_Q9_ansL.png,E28_Q4_ansL.png,within,NA,NaN,NA,left,3912.699999809265,1,1,1777.2999999523163
jAmS8la5,NA,NA,jAmS8la5,2020-0188,2021-09-21,22:18:55,23:16:29,NA,incomplete,false,NA,true,2,1,NA,right,E26_Q6_ansR.png,E26_Q8_ansL.png,within,NA,NaN,NA,left,2068.5,0,0,3490.4000000953674
jAmS8la5,NA,NA,jAmS8la5,2020-0188,2021-09-21,22:18:55,23:16:29,NA,incomplete,false,NA,true,2,2,NA,left,E17_Q2_ansL.png,E17_Q5_ansR.png,within,NA,NaN,NA,left,2884,1,0,1929.5
jAmS8la5,NA,NA,jAmS8la5,2020-0188,2021-09-21,22:18:55,23:16:29,NA,incomplete,false,NA,true,2,3,NA,right,E28_Q1_ansR.png,E28_Q8_ansR.png,within,NA,NaN,NA,right,1152.2000000476837,1,0,1896.5
jAmS8la5,NA,NA,jAmS8la5,2020-0188,2021-09-21,22:18:55,23:16:29,NA,incomplete,false,NA,true,2,4,NA,right,E17_Q4_ansR.png,E26_Q1_ansL.png,between,NA,NaN,NA,right,2186.5,1,2,1359.7999999523163
jAmS8la5,NA,NA,jAmS8la5,2020-0188,2021-09-21,22:18:55,23:16:29,NA,incomplete,false,NA,true,2,5,NA,right,E17_Q3_ansR.png,E17_Q8_ansL.png,within,NA,NaN,NA,right,2839.100000143051,1,0,1759.8999998569489
jAmS8la5,NA,NA,jAmS8la5,2020-0188,2021-09-21,22:18:55,23:16:29,NA,incomplete,false,NA,true,2,6,NA,left,E28_Q4_ansL.png,E26_Q2_ansL.png,between,NA,NaN,NA,left,1313.9000000953674,1,2,1160
jAmS8la5,NA,NA,jAmS8la5,2020-0188,2021-09-21,22:18:55,23:16:29,NA,incomplete,false,NA,true,2,7,NA,left,E28_Q1_ansR.png,E28_Q5_ansL.png,within,NA,NaN,NA,right,1216.5999999046326,0,1,2379.699999809265
jAmS8la5,NA,NA,jAmS8la5,2020-0188,2021-09-21,22:18:55,23:16:29,NA,incomplete,false,NA,true,2,8,NA,right,E28_Q9_ansL.png,E28_Q6_ansL.png,within,NA,NaN,NA,right,993.5,1,0,1232
jAmS8la5,NA,NA,jAmS8la5,2020-0188,2021-09-21,22:18:55,23:16:29,NA,incomplete,false,NA,true,2,9,NA,right,E26_Q5_ansR.png,E28_Q2_ansR.png,between,NA,NaN,NA,right,1088.0999999046326,1,1,2691.300000190735
jAmS8la5,NA,NA,jAmS8la5,2020-0188,2021-09-21,22:18:55,23:16:29,NA,incomplete,false,NA,true,2,10,NA,right,E17_Q8_ansL.png,E17_Q4_ansR.png,within,NA,NaN,NA,right,2026.5,1,1,1471.9000000953674
jAmS8la5,NA,NA,jAmS8la5,2020-0188,2021-09-21,22:18:55,23:16:29,NA,incomplete,false,NA,true,2,11,NA,right,E26_Q1_ansL.png,E26_Q3_ansR.png,within,NA,NaN,NA,left,1994.2999999523163,0,0,1287.3000001907349
jAmS8la5,NA,NA,jAmS8la5,2020-0188,2021-09-21,22:18:55,23:16:29,NA,incomplete,false,NA,true,2,12,NA,left,E28_Q10_ansR.png,E28_Q7_ansR.png,within,NA,NaN,NA,left,3967,1,1,1367.9000000953674
jAmS8la5,NA,NA,jAmS8la5,2020-0188,2021-09-21,22:18:55,23:16:29,NA,incomplete,false,NA,true,2,13,NA,right,E28_Q3_ansL.png,E28_Q5_ansL.png,within,NA,NaN,NA,right,1256.4000000953674,1,1,1184.7000000476837
jAmS8la5,NA,NA,jAmS8la5,2020-0188,2021-09-21,22:18:55,23:16:29,NA,incomplete,false,NA,true,2,14,NA,right,E17_Q7_ansL.png,E17_Q5_ansR.png,within,NA,NaN,NA,left,1583.2000000476837,0,1,1252.2000000476837
jAmS8la5,NA,NA,jAmS8la5,2020-0188,2021-09-21,22:18:55,23:16:29,NA,incomplete,false,NA,true,2,15,NA,left,E26_Q7_ansL.png,E26_Q3_ansR.png,within,NA,NaN,NA,right,2322.4000000953674,0,1,1208.9000000953674
jAmS8la5,NA,NA,jAmS8la5,2020-0188,2021-09-21,22:18:55,23:16:29,NA,incomplete,false,NA,true,2,16,NA,right,E17_Q2_ansL.png,E17_Q6_ansR.png,within,NA,NaN,NA,right,1359.5,1,1,1031
jAmS8la5,NA,NA,jAmS8la5,2020-0188,2021-09-21,22:18:55,23:16:29,NA,incomplete,false,NA,true,2,17,NA,right,E17_Q1_ansL.png,E17_Q10_ansL.png,within,NA,NaN,NA,left,2562.9000000953674,0,1,1062.9000000953674
jAmS8la5,NA,NA,jAmS8la5,2020-0188,2021-09-21,22:18:55,23:16:29,NA,incomplete,false,NA,true,2,18,NA,left,E26_Q6_ansR.png,E26_Q4_ansR.png,within,NA,NaN,NA,left,3022.2000000476837,1,0,1913.6999998092651
jAmS8la5,NA,NA,jAmS8la5,2020-0188,2021-09-21,22:18:55,23:16:29,NA,incomplete,false,NA,true,2,19,NA,right,E26_Q7_ansL.png,E28_Q3_ansL.png,between,NA,NaN,NA,right,1177.6999998092651,1,2,960.1000001430511
jAmS8la5,NA,NA,jAmS8la5,2020-0188,2021-09-21,22:18:55,23:16:29,NA,incomplete,false,NA,true,2,20,NA,left,E26_Q10_ansL.png,E17_Q6_ansR.png,between,NA,NaN,NA,left,2292.0999999046326,1,2,2161.7999999523163
jAmS8la5,NA,NA,jAmS8la5,2020-0188,2021-09-21,22:18:55,23:16:29,NA,incomplete,false,NA,true,2,21,NA,left,E28_Q7_ansR.png,E28_Q2_ansR.png,within,NA,NaN,NA,left,2972.7999999523163,1,1,1080.9000000953674
jAmS8la5,NA,NA,jAmS8la5,2020-0188,2021-09-21,22:18:55,23:16:29,NA,incomplete,false,NA,true,2,22,NA,left,E26_Q2_ansL.png,E26_Q8_ansL.png,within,NA,NaN,NA,left,1323.7999999523163,1,1,1704.5999999046326
jAmS8la5,NA,NA,jAmS8la5,2020-0188,2021-09-21,22:18:55,23:16:29,NA,incomplete,false,NA,true,2,23,NA,right,E26_Q9_ansR.png,E26_Q5_ansR.png,within,NA,NaN,NA,right,1375.2000000476837,1,1,1607.1000001430511
jAmS8la5,NA,NA,jAmS8la5,2020-0188,2021-09-21,22:18:55,23:16:29,NA,incomplete,false,NA,true,2,24,NA,right,E17_Q9_ansR.png,E17_Q1_ansL.png,within,NA,NaN,NA,right,3654.9000000953674,1,0,1160.4000000953674
jAmS8la5,NA,NA,jAmS8la5,2020-0188,2021-09-21,22:18:55,23:16:29,NA,incomplete,false,NA,true,2,25,NA,left,E26_Q9_ansR.png,E26_Q10_ansL.png,within,NA,NaN,NA,right,3108.5999999046326,0,0,1768.9000000953674
jAmS8la5,NA,NA,jAmS8la5,2020-0188,2021-09-21,22:18:55,23:16:29,NA,incomplete,false,NA,true,2,26,NA,right,E17_Q10_ansL.png,E26_Q4_ansR.png,between,NA,NaN,NA,right,2050.2999999523163,1,2,1842.2000000476837
jAmS8la5,NA,NA,jAmS8la5,2020-0188,2021-09-21,22:18:55,23:16:29,NA,incomplete,false,true,NA,3,0,E30_Q7_ansL.png,left,NA,NA,NA,right,2633.59999990463,false,NA,NA,NA,NA,NA
jAmS8la5,NA,NA,jAmS8la5,2020-0188,2021-09-21,22:18:55,23:16:29,NA,incomplete,false,true,NA,3,1,E30_Q8_ansL.png,left,NA,NA,NA,right,2320.10000014305,false,NA,NA,NA,NA,NA
jAmS8la5,NA,NA,jAmS8la5,2020-0188,2021-09-21,22:18:55,23:16:29,NA,incomplete,false,true,NA,3,2,E30_Q9_ansL.png,left,NA,NA,NA,left,2999.90000009537,true,NA,NA,NA,NA,NA
jAmS8la5,NA,NA,jAmS8la5,2020-0188,2021-09-21,22:18:55,23:16:29,NA,incomplete,false,true,NA,3,3,E30_Q2_ansL.png,left,NA,NA,NA,left,2401.59999990463,true,NA,NA,NA,NA,NA
jAmS8la5,NA,NA,jAmS8la5,2020-0188,2021-09-21,22:18:55,23:16:29,NA,incomplete,false,true,NA,3,4,E30_Q10_ansR.png,right,NA,NA,NA,right,2367.5,true,NA,NA,NA,NA,NA
jAmS8la5,NA,NA,jAmS8la5,2020-0188,2021-09-21,22:18:55,23:16:29,NA,incomplete,false,true,NA,3,5,E30_Q1_ansL.png,left,NA,NA,NA,left,1453.40000009537,true,NA,NA,NA,NA,NA
jAmS8la5,NA,NA,jAmS8la5,2020-0188,2021-09-21,22:18:55,23:16:29,NA,incomplete,false,true,NA,3,6,E30_Q3_ansL.png,left,NA,NA,NA,left,1790.80000019073,true,NA,NA,NA,NA,NA
jAmS8la5,NA,NA,jAmS8la5,2020-0188,2021-09-21,22:18:55,23:16:29,NA,incomplete,false,true,NA,3,7,E30_Q4_ansL.png,left,NA,NA,NA,left,1482.09999990463,true,NA,NA,NA,NA,NA
jAmS8la5,NA,NA,jAmS8la5,2020-0188,2021-09-21,22:18:55,23:16:29,NA,incomplete,false,true,NA,3,8,E30_Q5_ansR.png,right,NA,NA,NA,right,1623.90000009537,true,NA,NA,NA,NA,NA
jAmS8la5,NA,NA,jAmS8la5,2020-0188,2021-09-21,22:18:55,23:16:29,NA,incomplete,false,true,NA,3,9,E30_Q6_ansR.png,right,NA,NA,NA,right,2008.59999990463,true,NA,NA,NA,NA,NA
jAmS8la5,NA,NA,jAmS8la5,2020-0188,2021-09-21,22:18:55,23:16:29,NA,incomplete,false,true,NA,3,10,E23_Q4_ansR.png,right,NA,NA,NA,right,1211.79999995232,true,NA,NA,NA,NA,NA
jAmS8la5,NA,NA,jAmS8la5,2020-0188,2021-09-21,22:18:55,23:16:29,NA,incomplete,false,true,NA,3,11,E23_Q3_ansR.png,right,NA,NA,NA,right,989.5,true,NA,NA,NA,NA,NA
jAmS8la5,NA,NA,jAmS8la5,2020-0188,2021-09-21,22:18:55,23:16:29,NA,incomplete,false,true,NA,3,12,E23_Q9_ansR.png,right,NA,NA,NA,right,1118.09999990463,true,NA,NA,NA,NA,NA
jAmS8la5,NA,NA,jAmS8la5,2020-0188,2021-09-21,22:18:55,23:16:29,NA,incomplete,false,true,NA,3,13,E23_Q5_ansR.png,right,NA,NA,NA,right,1404.70000004768,true,NA,NA,NA,NA,NA
jAmS8la5,NA,NA,jAmS8la5,2020-0188,2021-09-21,22:18:55,23:16:29,NA,incomplete,false,true,NA,3,14,E23_Q7_ansL.png,left,NA,NA,NA,left,1201.09999990463,true,NA,NA,NA,NA,NA
jAmS8la5,NA,NA,jAmS8la5,2020-0188,2021-09-21,22:18:55,23:16:29,NA,incomplete,false,true,NA,3,15,E23_Q8_ansL.png,left,NA,NA,NA,left,955.900000095367,true,NA,NA,NA,NA,NA
jAmS8la5,NA,NA,jAmS8la5,2020-0188,2021-09-21,22:18:55,23:16:29,NA,incomplete,false,true,NA,3,16,E23_Q2_ansL.png,left,NA,NA,NA,left,1188.09999990463,true,NA,NA,NA,NA,NA
jAmS8la5,NA,NA,jAmS8la5,2020-0188,2021-09-21,22:18:55,23:16:29,NA,incomplete,false,true,NA,3,17,E23_Q6_ansR.png,right,NA,NA,NA,right,1138.29999995232,true,NA,NA,NA,NA,NA
jAmS8la5,NA,NA,jAmS8la5,2020-0188,2021-09-21,22:18:55,23:16:29,NA,incomplete,false,true,NA,3,18,E23_Q1_ansL.png,left,NA,NA,NA,left,1169.59999990463,true,NA,NA,NA,NA,NA
jAmS8la5,NA,NA,jAmS8la5,2020-0188,2021-09-21,22:18:55,23:16:29,NA,incomplete,false,true,NA,3,19,E23_Q10_ansL.png,left,NA,NA,NA,left,1023,true,NA,NA,NA,NA,NA
jAmS8la5,NA,NA,jAmS8la5,2020-0188,2021-09-21,22:18:55,23:16:29,NA,incomplete,false,true,NA,3,20,E7_Q2_ansL.png,left,NA,NA,NA,left,1317.70000004768,true,NA,NA,NA,NA,NA
jAmS8la5,NA,NA,jAmS8la5,2020-0188,2021-09-21,22:18:55,23:16:29,NA,incomplete,false,true,NA,3,21,E7_Q6_ansR.png,right,NA,NA,NA,right,891.900000095367,true,NA,NA,NA,NA,NA
jAmS8la5,NA,NA,jAmS8la5,2020-0188,2021-09-21,22:18:55,23:16:29,NA,incomplete,false,true,NA,3,22,E7_Q10_ansR.png,right,NA,NA,NA,right,1464.40000009537,true,NA,NA,NA,NA,NA
jAmS8la5,NA,NA,jAmS8la5,2020-0188,2021-09-21,22:18:55,23:16:29,NA,incomplete,false,true,NA,3,23,E7_Q5_ansR.png,right,NA,NA,NA,right,822.5,true,NA,NA,NA,NA,NA
jAmS8la5,NA,NA,jAmS8la5,2020-0188,2021-09-21,22:18:55,23:16:29,NA,incomplete,false,true,NA,3,24,E7_Q1_ansL.png,left,NA,NA,NA,left,1007.90000009537,true,NA,NA,NA,NA,NA
jAmS8la5,NA,NA,jAmS8la5,2020-0188,2021-09-21,22:18:55,23:16:29,NA,incomplete,false,true,NA,3,25,E7_Q8_ansL.png,left,NA,NA,NA,left,1047.5,true,NA,NA,NA,NA,NA
jAmS8la5,NA,NA,jAmS8la5,2020-0188,2021-09-21,22:18:55,23:16:29,NA,incomplete,false,true,NA,3,26,E7_Q7_ansL.png,left,NA,NA,NA,left,915.700000047684,true,NA,NA,NA,NA,NA
jAmS8la5,NA,NA,jAmS8la5,2020-0188,2021-09-21,22:18:55,23:16:29,NA,incomplete,false,true,NA,3,27,E7_Q9_ansR.png,right,NA,NA,NA,right,943,true,NA,NA,NA,NA,NA
jAmS8la5,NA,NA,jAmS8la5,2020-0188,2021-09-21,22:18:55,23:16:29,NA,incomplete,false,true,NA,3,28,E7_Q4_ansR.png,right,NA,NA,NA,right,1019.5,true,NA,NA,NA,NA,NA
jAmS8la5,NA,NA,jAmS8la5,2020-0188,2021-09-21,22:18:55,23:16:29,NA,incomplete,false,true,NA,3,29,E7_Q3_ansR.png,right,NA,NA,NA,right,756,true,NA,NA,NA,NA,NA
jAmS8la5,NA,NA,jAmS8la5,2020-0188,2021-09-21,22:18:55,23:16:29,NA,incomplete,false,NA,true,3,0,NA,left,E23_Q3_ansR.png,E23_Q7_ansL.png,within,NA,NaN,NA,left,2152.2999999523163,1,1,1757.5
jAmS8la5,NA,NA,jAmS8la5,2020-0188,2021-09-21,22:18:55,23:16:29,NA,incomplete,false,NA,true,3,1,NA,left,E30_Q6_ansR.png,E23_Q9_ansR.png,between,NA,NaN,NA,left,1271.3000001907349,1,2,1794.7999999523163
jAmS8la5,NA,NA,jAmS8la5,2020-0188,2021-09-21,22:18:55,23:16:29,NA,incomplete,false,NA,true,3,2,NA,right,E30_Q6_ansR.png,E30_Q3_ansL.png,within,NA,NaN,NA,right,2748.2000000476837,1,1,1016.7999999523163
jAmS8la5,NA,NA,jAmS8la5,2020-0188,2021-09-21,22:18:55,23:16:29,NA,incomplete,false,NA,true,3,3,NA,left,E23_Q6_ansR.png,E7_Q2_ansL.png,between,NA,NaN,NA,left,1818.7000000476837,1,2,3068.2000000476837
jAmS8la5,NA,NA,jAmS8la5,2020-0188,2021-09-21,22:18:55,23:16:29,NA,incomplete,false,NA,true,3,4,NA,left,E7_Q1_ansL.png,E7_Q9_ansR.png,within,NA,NaN,NA,left,1697.5,1,0,1441.2000000476837
jAmS8la5,NA,NA,jAmS8la5,2020-0188,2021-09-21,22:18:55,23:16:29,NA,incomplete,false,NA,true,3,5,NA,right,E23_Q3_ansR.png,E30_Q5_ansR.png,between,NA,NaN,NA,right,960.1000001430511,1,2,991.2000000476837
jAmS8la5,NA,NA,jAmS8la5,2020-0188,2021-09-21,22:18:55,23:16:29,NA,incomplete,false,NA,true,3,6,NA,left,E30_Q9_ansL.png,E30_Q1_ansL.png,within,NA,NaN,NA,left,2627.2999999523163,1,1,1930.4000000953674
jAmS8la5,NA,NA,jAmS8la5,2020-0188,2021-09-21,22:18:55,23:16:29,NA,incomplete,false,NA,true,3,7,NA,right,E23_Q10_ansL.png,E23_Q2_ansL.png,within,NA,NaN,NA,right,2489.9000000953674,1,0,2971.899999856949
jAmS8la5,NA,NA,jAmS8la5,2020-0188,2021-09-21,22:18:55,23:16:29,NA,incomplete,false,NA,true,3,8,NA,left,E23_Q9_ansR.png,E23_Q8_ansL.png,within,NA,NaN,NA,left,1400.8999998569489,1,1,1767.8000001907349
jAmS8la5,NA,NA,jAmS8la5,2020-0188,2021-09-21,22:18:55,23:16:29,NA,incomplete,false,NA,true,3,9,NA,left,E23_Q1_ansL.png,E7_Q6_ansR.png,between,NA,NaN,NA,left,2648.9000000953674,1,2,1296.1000001430511
jAmS8la5,NA,NA,jAmS8la5,2020-0188,2021-09-21,22:18:55,23:16:29,NA,incomplete,false,NA,true,3,10,NA,left,E30_Q1_ansL.png,E30_Q5_ansR.png,within,NA,NaN,NA,left,3444.9000000953674,1,1,1551.1999998092651
jAmS8la5,NA,NA,jAmS8la5,2020-0188,2021-09-21,22:18:55,23:16:29,NA,incomplete,false,NA,true,3,11,NA,right,E30_Q4_ansL.png,E30_Q10_ansR.png,within,NA,NaN,NA,right,2314.5,1,0,1135.6999998092651
jAmS8la5,NA,NA,jAmS8la5,2020-0188,2021-09-21,22:18:55,23:16:29,NA,incomplete,false,NA,true,3,12,NA,right,E23_Q4_ansR.png,E30_Q4_ansL.png,between,NA,NaN,NA,right,1472.7999999523163,1,2,1303.5999999046326
jAmS8la5,NA,NA,jAmS8la5,2020-0188,2021-09-21,22:18:55,23:16:29,NA,incomplete,false,NA,true,3,13,NA,left,E7_Q7_ansL.png,E7_Q3_ansR.png,within,NA,NaN,NA,left,1509.0999999046326,1,0,2629.199999809265
jAmS8la5,NA,NA,jAmS8la5,2020-0188,2021-09-21,22:18:55,23:16:29,NA,incomplete,false,NA,true,3,14,NA,left,E7_Q8_ansL.png,E7_Q4_ansR.png,within,NA,NaN,NA,left,2705.9000000953674,1,1,1182.6999998092651
jAmS8la5,NA,NA,jAmS8la5,2020-0188,2021-09-21,22:18:55,23:16:29,NA,incomplete,false,NA,true,3,15,NA,right,E23_Q2_ansL.png,E23_Q5_ansR.png,within,NA,NaN,NA,left,4078.2000000476837,0,1,1128.4000000953674
jAmS8la5,NA,NA,jAmS8la5,2020-0188,2021-09-21,22:18:55,23:16:29,NA,incomplete,false,NA,true,3,16,NA,right,E23_Q5_ansR.png,E23_Q4_ansR.png,within,NA,NaN,NA,right,3618.5999999046326,1,0,1216.7999999523163
jAmS8la5,NA,NA,jAmS8la5,2020-0188,2021-09-21,22:18:55,23:16:29,NA,incomplete,false,NA,true,3,17,NA,right,E30_Q10_ansR.png,E30_Q8_ansL.png,within,NA,NaN,NA,right,3603.5999999046326,1,0,1129.4000000953674
jAmS8la5,NA,NA,jAmS8la5,2020-0188,2021-09-21,22:18:55,23:16:29,NA,incomplete,false,NA,true,3,18,NA,right,E7_Q5_ansR.png,E7_Q2_ansL.png,within,NA,NaN,NA,right,1537.6000001430511,1,0,802.7000000476837
jAmS8la5,NA,NA,jAmS8la5,2020-0188,2021-09-21,22:18:55,23:16:29,NA,incomplete,false,NA,true,3,19,NA,right,E7_Q7_ansL.png,E7_Q5_ansR.png,within,NA,NaN,NA,right,1216,1,0,1225.3999998569489
jAmS8la5,NA,NA,jAmS8la5,2020-0188,2021-09-21,22:18:55,23:16:29,NA,incomplete,false,NA,true,3,20,NA,right,E30_Q2_ansL.png,E30_Q7_ansL.png,within,NA,NaN,NA,right,2540,1,0,2250.5
jAmS8la5,NA,NA,jAmS8la5,2020-0188,2021-09-21,22:18:55,23:16:29,NA,incomplete,false,NA,true,3,21,NA,right,E23_Q1_ansL.png,E23_Q8_ansL.png,within,NA,NaN,NA,right,1489.9000000953674,1,0,1088.3999998569489
jAmS8la5,NA,NA,jAmS8la5,2020-0188,2021-09-21,22:18:55,23:16:29,NA,incomplete,false,NA,true,3,22,NA,right,E23_Q6_ansR.png,E23_Q7_ansL.png,within,NA,NaN,NA,right,2827.5999999046326,1,0,1505.5999999046326
jAmS8la5,NA,NA,jAmS8la5,2020-0188,2021-09-21,22:18:55,23:16:29,NA,incomplete,false,NA,true,3,23,NA,right,E7_Q1_ansL.png,E7_Q6_ansR.png,within,NA,NaN,NA,right,1297.9000000953674,1,0,935.2999999523163
jAmS8la5,NA,NA,jAmS8la5,2020-0188,2021-09-21,22:18:55,23:16:29,NA,incomplete,false,NA,true,3,24,NA,left,E7_Q10_ansR.png,E7_Q8_ansL.png,within,NA,NaN,NA,left,1401.9000000953674,1,1,1559.9000000953674
jAmS8la5,NA,NA,jAmS8la5,2020-0188,2021-09-21,22:18:55,23:16:29,NA,incomplete,false,NA,true,3,25,NA,right,E30_Q3_ansL.png,E30_Q2_ansL.png,within,NA,NaN,NA,left,2025.5,0,1,935.0999999046326
jAmS8la5,NA,NA,jAmS8la5,2020-0188,2021-09-21,22:18:55,23:16:29,NA,incomplete,false,NA,true,3,26,NA,left,E23_Q10_ansL.png,E7_Q10_ansR.png,between,NA,NaN,NA,left,1640.9000000953674,1,2,1689
jAmS8la5,NA,NA,jAmS8la5,2020-0188,2021-09-21,22:18:55,23:16:29,NA,incomplete,false,true,NA,4,0,E22_Q1_ansR.png,right,NA,NA,NA,right,1440,true,NA,NA,NA,NA,NA
jAmS8la5,NA,NA,jAmS8la5,2020-0188,2021-09-21,22:18:55,23:16:29,NA,incomplete,false,true,NA,4,1,E22_Q6_ansL.png,left,NA,NA,NA,left,1157.40000009537,true,NA,NA,NA,NA,NA
jAmS8la5,NA,NA,jAmS8la5,2020-0188,2021-09-21,22:18:55,23:16:29,NA,incomplete,false,true,NA,4,2,E22_Q4_ansL.png,left,NA,NA,NA,left,973.600000143051,true,NA,NA,NA,NA,NA
jAmS8la5,NA,NA,jAmS8la5,2020-0188,2021-09-21,22:18:55,23:16:29,NA,incomplete,false,true,NA,4,3,E22_Q5_ansL.png,left,NA,NA,NA,left,1305,true,NA,NA,NA,NA,NA
jAmS8la5,NA,NA,jAmS8la5,2020-0188,2021-09-21,22:18:55,23:16:29,NA,incomplete,false,true,NA,4,4,E22_Q2_ansR.png,right,NA,NA,NA,right,763.599999904633,true,NA,NA,NA,NA,NA
jAmS8la5,NA,NA,jAmS8la5,2020-0188,2021-09-21,22:18:55,23:16:29,NA,incomplete,false,true,NA,4,5,E22_Q8_ansR.png,right,NA,NA,NA,right,1192.5,true,NA,NA,NA,NA,NA
jAmS8la5,NA,NA,jAmS8la5,2020-0188,2021-09-21,22:18:55,23:16:29,NA,incomplete,false,true,NA,4,6,E22_Q9_ansL.png,left,NA,NA,NA,left,885.900000095367,true,NA,NA,NA,NA,NA
jAmS8la5,NA,NA,jAmS8la5,2020-0188,2021-09-21,22:18:55,23:16:29,NA,incomplete,false,true,NA,4,7,E22_Q3_ansL.png,left,NA,NA,NA,left,764.399999856949,true,NA,NA,NA,NA,NA
jAmS8la5,NA,NA,jAmS8la5,2020-0188,2021-09-21,22:18:55,23:16:29,NA,incomplete,false,true,NA,4,8,E22_Q7_ansR.png,right,NA,NA,NA,right,1021.29999995232,true,NA,NA,NA,NA,NA
jAmS8la5,NA,NA,jAmS8la5,2020-0188,2021-09-21,22:18:55,23:16:29,NA,incomplete,false,true,NA,4,9,E22_Q10_ansR.png,right,NA,NA,NA,right,1143.20000004768,true,NA,NA,NA,NA,NA
jAmS8la5,NA,NA,jAmS8la5,2020-0188,2021-09-21,22:18:55,23:16:29,NA,incomplete,false,true,NA,4,10,E29_Q3_ansR.png,right,NA,NA,NA,right,1548.10000014305,true,NA,NA,NA,NA,NA
jAmS8la5,NA,NA,jAmS8la5,2020-0188,2021-09-21,22:18:55,23:16:29,NA,incomplete,false,true,NA,4,11,E29_Q1_ansL.png,left,NA,NA,NA,left,1523.5,true,NA,NA,NA,NA,NA
jAmS8la5,NA,NA,jAmS8la5,2020-0188,2021-09-21,22:18:55,23:16:29,NA,incomplete,false,true,NA,4,12,E29_Q4_ansR.png,right,NA,NA,NA,right,1033.79999995232,true,NA,NA,NA,NA,NA
jAmS8la5,NA,NA,jAmS8la5,2020-0188,2021-09-21,22:18:55,23:16:29,NA,incomplete,false,true,NA,4,13,E29_Q5_ansR.png,right,NA,NA,NA,right,893.800000190735,true,NA,NA,NA,NA,NA
jAmS8la5,NA,NA,jAmS8la5,2020-0188,2021-09-21,22:18:55,23:16:29,NA,incomplete,false,true,NA,4,14,E29_Q8_ansL.png,left,NA,NA,NA,left,961.299999952316,true,NA,NA,NA,NA,NA
jAmS8la5,NA,NA,jAmS8la5,2020-0188,2021-09-21,22:18:55,23:16:29,NA,incomplete,false,true,NA,4,15,E29_Q7_ansL.png,left,NA,NA,NA,left,706.5,true,NA,NA,NA,NA,NA
jAmS8la5,NA,NA,jAmS8la5,2020-0188,2021-09-21,22:18:55,23:16:29,NA,incomplete,false,true,NA,4,16,E29_Q2_ansL.png,left,NA,NA,NA,left,1403.30000019073,true,NA,NA,NA,NA,NA
jAmS8la5,NA,NA,jAmS8la5,2020-0188,2021-09-21,22:18:55,23:16:29,NA,incomplete,false,true,NA,4,17,E29_Q6_ansR.png,right,NA,NA,NA,right,758,true,NA,NA,NA,NA,NA
jAmS8la5,NA,NA,jAmS8la5,2020-0188,2021-09-21,22:18:55,23:16:29,NA,incomplete,false,true,NA,4,18,E29_Q10_ansL.png,left,NA,NA,NA,left,867.599999904633,true,NA,NA,NA,NA,NA
jAmS8la5,NA,NA,jAmS8la5,2020-0188,2021-09-21,22:18:55,23:16:29,NA,incomplete,false,true,NA,4,19,E29_Q9_ansR.png,right,NA,NA,NA,right,957.099999904633,true,NA,NA,NA,NA,NA
jAmS8la5,NA,NA,jAmS8la5,2020-0188,2021-09-21,22:18:55,23:16:29,NA,incomplete,false,true,NA,4,20,E20_Q9_ansR.png,right,NA,NA,NA,right,1568.70000004768,true,NA,NA,NA,NA,NA
jAmS8la5,NA,NA,jAmS8la5,2020-0188,2021-09-21,22:18:55,23:16:29,NA,incomplete,false,true,NA,4,21,E20_Q1_ansL.png,left,NA,NA,NA,left,1629.59999990463,true,NA,NA,NA,NA,NA
jAmS8la5,NA,NA,jAmS8la5,2020-0188,2021-09-21,22:18:55,23:16:29,NA,incomplete,false,true,NA,4,22,E20_Q6_ansR.png,right,NA,NA,NA,right,1972.20000004768,true,NA,NA,NA,NA,NA
jAmS8la5,NA,NA,jAmS8la5,2020-0188,2021-09-21,22:18:55,23:16:29,NA,incomplete,false,true,NA,4,23,E20_Q3_ansR.png,right,NA,NA,NA,right,1033.79999995232,true,NA,NA,NA,NA,NA
jAmS8la5,NA,NA,jAmS8la5,2020-0188,2021-09-21,22:18:55,23:16:29,NA,incomplete,false,true,NA,4,24,E20_Q7_ansL.png,left,NA,NA,NA,left,1333.40000009537,true,NA,NA,NA,NA,NA
jAmS8la5,NA,NA,jAmS8la5,2020-0188,2021-09-21,22:18:55,23:16:29,NA,incomplete,false,true,NA,4,25,E20_Q5_ansR.png,right,NA,NA,NA,left,1105.40000009537,false,NA,NA,NA,NA,NA
jAmS8la5,NA,NA,jAmS8la5,2020-0188,2021-09-21,22:18:55,23:16:29,NA,incomplete,false,true,NA,4,26,E20_Q4_ansR.png,right,NA,NA,NA,right,953.299999952316,true,NA,NA,NA,NA,NA
jAmS8la5,NA,NA,jAmS8la5,2020-0188,2021-09-21,22:18:55,23:16:29,NA,incomplete,false,true,NA,4,27,E20_Q8_ansL.png,left,NA,NA,NA,right,1566.89999985695,false,NA,NA,NA,NA,NA
jAmS8la5,NA,NA,jAmS8la5,2020-0188,2021-09-21,22:18:55,23:16:29,NA,incomplete,false,true,NA,4,28,E20_Q10_ansL.png,left,NA,NA,NA,left,1829,true,NA,NA,NA,NA,NA
jAmS8la5,NA,NA,jAmS8la5,2020-0188,2021-09-21,22:18:55,23:16:29,NA,incomplete,false,true,NA,4,29,E20_Q2_ansL.png,left,NA,NA,NA,left,965.799999952316,true,NA,NA,NA,NA,NA
jAmS8la5,NA,NA,jAmS8la5,2020-0188,2021-09-21,22:18:55,23:16:29,NA,incomplete,false,NA,true,4,0,NA,left,E29_Q3_ansR.png,E29_Q5_ansR.png,within,NA,NaN,NA,left,3226.2999999523163,1,0,1165.0999999046326
jAmS8la5,NA,NA,jAmS8la5,2020-0188,2021-09-21,22:18:55,23:16:29,NA,incomplete,false,NA,true,4,1,NA,left,E20_Q5_ansR.png,E20_Q10_ansL.png,within,NA,NaN,NA,left,1511.7000000476837,1,0,1968
jAmS8la5,NA,NA,jAmS8la5,2020-0188,2021-09-21,22:18:55,23:16:29,NA,incomplete,false,NA,true,4,2,NA,left,E22_Q1_ansR.png,E22_Q5_ansL.png,within,NA,NaN,NA,left,1986.4000000953674,1,0,949.2999999523163
jAmS8la5,NA,NA,jAmS8la5,2020-0188,2021-09-21,22:18:55,23:16:29,NA,incomplete,false,NA,true,4,3,NA,left,E29_Q8_ansL.png,E29_Q6_ansR.png,within,NA,NaN,NA,left,1479.2999999523163,1,0,1405.6000001430511
jAmS8la5,NA,NA,jAmS8la5,2020-0188,2021-09-21,22:18:55,23:16:29,NA,incomplete,false,NA,true,4,4,NA,left,E22_Q8_ansR.png,E22_Q7_ansR.png,within,NA,NaN,NA,right,1623.5,0,0,1903.7000000476837
jAmS8la5,NA,NA,jAmS8la5,2020-0188,2021-09-21,22:18:55,23:16:29,NA,incomplete,false,NA,true,4,5,NA,right,E29_Q3_ansR.png,E22_Q3_ansL.png,between,NA,NaN,NA,right,1962.8999998569489,1,2,2096.7999999523163
jAmS8la5,NA,NA,jAmS8la5,2020-0188,2021-09-21,22:18:55,23:16:29,NA,incomplete,false,NA,true,4,6,NA,right,E20_Q6_ansR.png,E29_Q9_ansR.png,between,NA,NaN,NA,right,1777.2999999523163,1,1,775
jAmS8la5,NA,NA,jAmS8la5,2020-0188,2021-09-21,22:18:55,23:16:29,NA,incomplete,false,NA,true,4,7,NA,right,E29_Q2_ansL.png,E29_Q5_ansR.png,within,NA,NaN,NA,left,2098.800000190735,0,0,1184.1000001430511
jAmS8la5,NA,NA,jAmS8la5,2020-0188,2021-09-21,22:18:55,23:16:29,NA,incomplete,false,NA,true,4,8,NA,right,E29_Q7_ansL.png,E29_Q4_ansR.png,within,NA,NaN,NA,left,2563.9000000953674,0,0,1569.7000000476837
jAmS8la5,NA,NA,jAmS8la5,2020-0188,2021-09-21,22:18:55,23:16:29,NA,incomplete,false,NA,true,4,9,NA,left,E20_Q6_ansR.png,E20_Q5_ansR.png,within,NA,NaN,NA,left,2146.5,1,0,1569.2999999523163
jAmS8la5,NA,NA,jAmS8la5,2020-0188,2021-09-21,22:18:55,23:16:29,NA,incomplete,false,NA,true,4,10,NA,left,E20_Q3_ansR.png,E20_Q4_ansR.png,within,NA,NaN,NA,left,2854.9000000953674,1,0,1184.9000000953674
jAmS8la5,NA,NA,jAmS8la5,2020-0188,2021-09-21,22:18:55,23:16:29,NA,incomplete,false,NA,true,4,11,NA,left,E20_Q7_ansL.png,E20_Q8_ansL.png,within,NA,NaN,NA,left,2762.9000000953674,1,0,1465
jAmS8la5,NA,NA,jAmS8la5,2020-0188,2021-09-21,22:18:55,23:16:29,NA,incomplete,false,NA,true,4,12,NA,left,E22_Q6_ansL.png,E22_Q2_ansR.png,within,NA,NaN,NA,left,2146.2000000476837,1,0,1584
jAmS8la5,NA,NA,jAmS8la5,2020-0188,2021-09-21,22:18:55,23:16:29,NA,incomplete,false,NA,true,4,13,NA,left,E22_Q7_ansR.png,E29_Q1_ansL.png,between,NA,NaN,NA,left,2724.600000143051,1,2,1448.4000000953674
jAmS8la5,NA,NA,jAmS8la5,2020-0188,2021-09-21,22:18:55,23:16:29,NA,incomplete,false,NA,true,4,14,NA,right,E22_Q8_ansR.png,E22_Q4_ansL.png,within,NA,NaN,NA,left,2370,0,1,895
jAmS8la5,NA,NA,jAmS8la5,2020-0188,2021-09-21,22:18:55,23:16:29,NA,incomplete,false,NA,true,4,15,NA,right,E22_Q9_ansL.png,E22_Q5_ansL.png,within,NA,NaN,NA,right,2251,1,0,1570
jAmS8la5,NA,NA,jAmS8la5,2020-0188,2021-09-21,22:18:55,23:16:29,NA,incomplete,false,NA,true,4,16,NA,left,E20_Q4_ansR.png,E20_Q2_ansL.png,within,NA,NaN,NA,left,2058.2999999523163,1,0,1175.5999999046326
jAmS8la5,NA,NA,jAmS8la5,2020-0188,2021-09-21,22:18:55,23:16:29,NA,incomplete,false,NA,true,4,17,NA,right,E20_Q7_ansL.png,E20_Q1_ansL.png,within,NA,NaN,NA,right,1226.7999999523163,1,1,2025.8999998569489
jAmS8la5,NA,NA,jAmS8la5,2020-0188,2021-09-21,22:18:55,23:16:29,NA,incomplete,false,NA,true,4,18,NA,right,E29_Q10_ansL.png,E29_Q7_ansL.png,within,NA,NaN,NA,right,2481.7000000476837,1,1,1288.2999999523163
jAmS8la5,NA,NA,jAmS8la5,2020-0188,2021-09-21,22:18:55,23:16:29,NA,incomplete,false,NA,true,4,19,NA,right,E22_Q3_ansL.png,E22_Q2_ansR.png,within,NA,NaN,NA,left,1512.2000000476837,0,0,1519.0999999046326
jAmS8la5,NA,NA,jAmS8la5,2020-0188,2021-09-21,22:18:55,23:16:29,NA,incomplete,false,NA,true,4,20,NA,left,E29_Q6_ansR.png,E20_Q9_ansR.png,between,NA,NaN,NA,right,1545.7000000476837,0,1,1535.7999999523163
jAmS8la5,NA,NA,jAmS8la5,2020-0188,2021-09-21,22:18:55,23:16:29,NA,incomplete,false,NA,true,4,21,NA,right,E29_Q9_ansR.png,E29_Q2_ansL.png,within,NA,NaN,NA,right,1922.0999999046326,1,1,1190.6000001430511
jAmS8la5,NA,NA,jAmS8la5,2020-0188,2021-09-21,22:18:55,23:16:29,NA,incomplete,false,NA,true,4,22,NA,right,E22_Q10_ansR.png,E22_Q9_ansL.png,within,NA,NaN,NA,left,1827.0999999046326,0,1,1191.0999999046326
jAmS8la5,NA,NA,jAmS8la5,2020-0188,2021-09-21,22:18:55,23:16:29,NA,incomplete,false,NA,true,4,23,NA,left,E22_Q10_ansR.png,E29_Q4_ansR.png,between,NA,NaN,NA,right,2177.7999999523163,0,1,2834.7999999523163
jAmS8la5,NA,NA,jAmS8la5,2020-0188,2021-09-21,22:18:55,23:16:29,NA,incomplete,false,NA,true,4,24,NA,right,E20_Q3_ansR.png,E20_Q9_ansR.png,within,NA,NaN,NA,right,1248.6999998092651,1,0,1681.6000001430511
jAmS8la5,NA,NA,jAmS8la5,2020-0188,2021-09-21,22:18:55,23:16:29,NA,incomplete,false,NA,true,4,25,NA,right,E29_Q8_ansL.png,E29_Q1_ansL.png,within,NA,NaN,NA,right,1160.5,1,1,1272.3999998569489
jAmS8la5,NA,NA,jAmS8la5,2020-0188,2021-09-21,22:18:55,23:16:29,NA,incomplete,false,NA,true,4,26,NA,right,E20_Q1_ansL.png,E29_Q10_ansL.png,between,NA,NaN,NA,right,2442.9000000953674,1,1,1441.1000001430511
jAmS8la5,NA,NA,jAmS8la5,2020-0188,2021-09-21,22:18:55,23:16:29,NA,incomplete,false,true,NA,5,0,E16_Q2_ansR.png,right,NA,NA,NA,right,1528.80000019073,true,NA,NA,NA,NA,NA
jAmS8la5,NA,NA,jAmS8la5,2020-0188,2021-09-21,22:18:55,23:16:29,NA,incomplete,false,true,NA,5,1,E16_Q4_ansL.png,left,NA,NA,NA,left,1239.60000014305,true,NA,NA,NA,NA,NA
jAmS8la5,NA,NA,jAmS8la5,2020-0188,2021-09-21,22:18:55,23:16:29,NA,incomplete,false,true,NA,5,2,E16_Q10_ansR.png,right,NA,NA,NA,right,777.100000143051,true,NA,NA,NA,NA,NA
jAmS8la5,NA,NA,jAmS8la5,2020-0188,2021-09-21,22:18:55,23:16:29,NA,incomplete,false,true,NA,5,3,E16_Q1_ansR.png,right,NA,NA,NA,right,930,true,NA,NA,NA,NA,NA
jAmS8la5,NA,NA,jAmS8la5,2020-0188,2021-09-21,22:18:55,23:16:29,NA,incomplete,false,true,NA,5,4,E16_Q8_ansR.png,right,NA,NA,NA,right,1232.10000014305,true,NA,NA,NA,NA,NA
jAmS8la5,NA,NA,jAmS8la5,2020-0188,2021-09-21,22:18:55,23:16:29,NA,incomplete,false,true,NA,5,5,E16_Q6_ansL.png,left,NA,NA,NA,left,947.799999952316,true,NA,NA,NA,NA,NA
jAmS8la5,NA,NA,jAmS8la5,2020-0188,2021-09-21,22:18:55,23:16:29,NA,incomplete,false,true,NA,5,6,E16_Q7_ansR.png,right,NA,NA,NA,right,936.399999856949,true,NA,NA,NA,NA,NA
jAmS8la5,NA,NA,jAmS8la5,2020-0188,2021-09-21,22:18:55,23:16:29,NA,incomplete,false,true,NA,5,7,E16_Q3_ansL.png,left,NA,NA,NA,left,716.399999856949,true,NA,NA,NA,NA,NA
jAmS8la5,NA,NA,jAmS8la5,2020-0188,2021-09-21,22:18:55,23:16:29,NA,incomplete,false,true,NA,5,8,E16_Q9_ansL.png,left,NA,NA,NA,left,857.900000095367,true,NA,NA,NA,NA,NA
jAmS8la5,NA,NA,jAmS8la5,2020-0188,2021-09-21,22:18:55,23:16:29,NA,incomplete,false,true,NA,5,9,E16_Q5_ansL.png,left,NA,NA,NA,left,905.899999856949,true,NA,NA,NA,NA,NA
jAmS8la5,NA,NA,jAmS8la5,2020-0188,2021-09-21,22:18:55,23:16:29,NA,incomplete,false,true,NA,5,10,E19_Q1_ansL.png,left,NA,NA,NA,left,1409.60000014305,true,NA,NA,NA,NA,NA
jAmS8la5,NA,NA,jAmS8la5,2020-0188,2021-09-21,22:18:55,23:16:29,NA,incomplete,false,true,NA,5,11,E19_Q10_ansL.png,left,NA,NA,NA,left,1270.60000014305,true,NA,NA,NA,NA,NA
jAmS8la5,NA,NA,jAmS8la5,2020-0188,2021-09-21,22:18:55,23:16:29,NA,incomplete,false,true,NA,5,12,E19_Q9_ansR.png,right,NA,NA,NA,right,909.099999904633,true,NA,NA,NA,NA,NA
jAmS8la5,NA,NA,jAmS8la5,2020-0188,2021-09-21,22:18:55,23:16:29,NA,incomplete,false,true,NA,5,13,E19_Q3_ansR.png,right,NA,NA,NA,right,740.699999809265,true,NA,NA,NA,NA,NA
jAmS8la5,NA,NA,jAmS8la5,2020-0188,2021-09-21,22:18:55,23:16:29,NA,incomplete,false,true,NA,5,14,E19_Q6_ansR.png,right,NA,NA,NA,right,959.699999809265,true,NA,NA,NA,NA,NA
jAmS8la5,NA,NA,jAmS8la5,2020-0188,2021-09-21,22:18:55,23:16:29,NA,incomplete,false,true,NA,5,15,E19_Q4_ansR.png,right,NA,NA,NA,right,774.599999904633,true,NA,NA,NA,NA,NA
jAmS8la5,NA,NA,jAmS8la5,2020-0188,2021-09-21,22:18:55,23:16:29,NA,incomplete,false,true,NA,5,16,E19_Q8_ansL.png,left,NA,NA,NA,left,1200.39999985695,true,NA,NA,NA,NA,NA
jAmS8la5,NA,NA,jAmS8la5,2020-0188,2021-09-21,22:18:55,23:16:29,NA,incomplete,false,true,NA,5,17,E19_Q5_ansR.png,right,NA,NA,NA,right,949.200000047684,true,NA,NA,NA,NA,NA
jAmS8la5,NA,NA,jAmS8la5,2020-0188,2021-09-21,22:18:55,23:16:29,NA,incomplete,false,true,NA,5,18,E19_Q2_ansL.png,left,NA,NA,NA,left,782.199999809265,true,NA,NA,NA,NA,NA
jAmS8la5,NA,NA,jAmS8la5,2020-0188,2021-09-21,22:18:55,23:16:29,NA,incomplete,false,true,NA,5,19,E19_Q7_ansL.png,left,NA,NA,NA,left,929.799999952316,true,NA,NA,NA,NA,NA
jAmS8la5,NA,NA,jAmS8la5,2020-0188,2021-09-21,22:18:55,23:16:29,NA,incomplete,false,true,NA,5,20,E2_Q2_ansR.png,right,NA,NA,NA,right,1259.79999995232,true,NA,NA,NA,NA,NA
jAmS8la5,NA,NA,jAmS8la5,2020-0188,2021-09-21,22:18:55,23:16:29,NA,incomplete,false,true,NA,5,21,E2_Q1_ansL.png,left,NA,NA,NA,left,779.299999952316,true,NA,NA,NA,NA,NA
jAmS8la5,NA,NA,jAmS8la5,2020-0188,2021-09-21,22:18:55,23:16:29,NA,incomplete,false,true,NA,5,22,E2_Q9_ansL.png,left,NA,NA,NA,left,1176.70000004768,true,NA,NA,NA,NA,NA
jAmS8la5,NA,NA,jAmS8la5,2020-0188,2021-09-21,22:18:55,23:16:29,NA,incomplete,false,true,NA,5,23,E2_Q7_ansR.png,right,NA,NA,NA,right,1060.40000009537,true,NA,NA,NA,NA,NA
jAmS8la5,NA,NA,jAmS8la5,2020-0188,2021-09-21,22:18:55,23:16:29,NA,incomplete,false,true,NA,5,24,E2_Q5_ansL.png,left,NA,NA,NA,left,1153.20000004768,true,NA,NA,NA,NA,NA
jAmS8la5,NA,NA,jAmS8la5,2020-0188,2021-09-21,22:18:55,23:16:29,NA,incomplete,false,true,NA,5,25,E2_Q10_ansL.png,left,NA,NA,NA,left,971.400000095367,true,NA,NA,NA,NA,NA
jAmS8la5,NA,NA,jAmS8la5,2020-0188,2021-09-21,22:18:55,23:16:29,NA,incomplete,false,true,NA,5,26,E2_Q4_ansL.png,left,NA,NA,NA,left,1394.69999980927,true,NA,NA,NA,NA,NA
jAmS8la5,NA,NA,jAmS8la5,2020-0188,2021-09-21,22:18:55,23:16:29,NA,incomplete,false,true,NA,5,27,E2_Q6_ansL.png,left,NA,NA,NA,left,1190.90000009537,true,NA,NA,NA,NA,NA
jAmS8la5,NA,NA,jAmS8la5,2020-0188,2021-09-21,22:18:55,23:16:29,NA,incomplete,false,true,NA,5,28,E2_Q3_ansR.png,right,NA,NA,NA,right,803.799999952316,true,NA,NA,NA,NA,NA
jAmS8la5,NA,NA,jAmS8la5,2020-0188,2021-09-21,22:18:55,23:16:29,NA,incomplete,false,true,NA,5,29,E2_Q8_ansR.png,right,NA,NA,NA,right,896.099999904633,true,NA,NA,NA,NA,NA
jAmS8la5,NA,NA,jAmS8la5,2020-0188,2021-09-21,22:18:55,23:16:29,NA,incomplete,false,NA,true,5,0,NA,left,E16_Q4_ansL.png,E16_Q8_ansR.png,within,NA,NaN,NA,left,1446.9000000953674,1,0,1184.5
jAmS8la5,NA,NA,jAmS8la5,2020-0188,2021-09-21,22:18:55,23:16:29,NA,incomplete,false,NA,true,5,1,NA,right,E19_Q8_ansL.png,E19_Q3_ansR.png,within,NA,NaN,NA,right,1699,1,1,1240.7000000476837
jAmS8la5,NA,NA,jAmS8la5,2020-0188,2021-09-21,22:18:55,23:16:29,NA,incomplete,false,NA,true,5,2,NA,right,E19_Q3_ansR.png,E19_Q1_ansL.png,within,NA,NaN,NA,right,913.7999999523163,1,0,1386.7999999523163
jAmS8la5,NA,NA,jAmS8la5,2020-0188,2021-09-21,22:18:55,23:16:29,NA,incomplete,false,NA,true,5,3,NA,right,E2_Q6_ansL.png,E2_Q5_ansL.png,within,NA,NaN,NA,right,2154.0999999046326,1,1,1144.5999999046326
jAmS8la5,NA,NA,jAmS8la5,2020-0188,2021-09-21,22:18:55,23:16:29,NA,incomplete,false,NA,true,5,4,NA,right,E19_Q5_ansR.png,E19_Q6_ansR.png,within,NA,NaN,NA,right,3213.0999999046326,1,1,1311.8000001907349
jAmS8la5,NA,NA,jAmS8la5,2020-0188,2021-09-21,22:18:55,23:16:29,NA,incomplete,false,NA,true,5,5,NA,right,E19_Q10_ansL.png,E16_Q9_ansL.png,between,NA,NaN,NA,right,1024.5999999046326,1,2,1272.8999998569489
jAmS8la5,NA,NA,jAmS8la5,2020-0188,2021-09-21,22:18:55,23:16:29,NA,incomplete,false,NA,true,5,6,NA,right,E2_Q9_ansL.png,E19_Q7_ansL.png,between,NA,NaN,NA,right,1537.2999999523163,1,2,1336.4000000953674
jAmS8la5,NA,NA,jAmS8la5,2020-0188,2021-09-21,22:18:55,23:16:29,NA,incomplete,false,NA,true,5,7,NA,left,E2_Q1_ansL.png,E2_Q5_ansL.png,within,NA,NaN,NA,right,1537.5,0,0,1423.7000000476837
jAmS8la5,NA,NA,jAmS8la5,2020-0188,2021-09-21,22:18:55,23:16:29,NA,incomplete,false,NA,true,5,8,NA,left,E16_Q6_ansL.png,E16_Q9_ansL.png,within,NA,NaN,NA,right,2177.4000000953674,0,0,1184
jAmS8la5,NA,NA,jAmS8la5,2020-0188,2021-09-21,22:18:55,23:16:29,NA,incomplete,false,NA,true,5,9,NA,right,E2_Q7_ansR.png,E2_Q2_ansR.png,within,NA,NaN,NA,right,1248.9000000953674,1,1,2618.5
jAmS8la5,NA,NA,jAmS8la5,2020-0188,2021-09-21,22:18:55,23:16:29,NA,incomplete,false,NA,true,5,10,NA,left,E19_Q2_ansL.png,E2_Q1_ansL.png,between,NA,NaN,NA,left,1843.7999999523163,1,2,1714.3999998569489
jAmS8la5,NA,NA,jAmS8la5,2020-0188,2021-09-21,22:18:55,23:16:29,NA,incomplete,false,NA,true,5,11,NA,right,E2_Q8_ansR.png,E2_Q4_ansL.png,within,NA,NaN,NA,right,2323.2999999523163,1,0,3340.100000143051
jAmS8la5,NA,NA,jAmS8la5,2020-0188,2021-09-21,22:18:55,23:16:29,NA,incomplete,false,NA,true,5,12,NA,left,E19_Q8_ansL.png,E19_Q7_ansL.png,within,NA,NaN,NA,right,1970.5,0,1,1231.7000000476837
jAmS8la5,NA,NA,jAmS8la5,2020-0188,2021-09-21,22:18:55,23:16:29,NA,incomplete,false,NA,true,5,13,NA,left,E2_Q10_ansL.png,E2_Q3_ansR.png,within,NA,NaN,NA,left,1360.5,1,0,1402.5
jAmS8la5,NA,NA,jAmS8la5,2020-0188,2021-09-21,22:18:55,23:16:29,NA,incomplete,false,NA,true,5,14,NA,left,E19_Q9_ansR.png,E19_Q4_ansR.png,within,NA,NaN,NA,left,1562.2000000476837,1,1,877.0999999046326
jAmS8la5,NA,NA,jAmS8la5,2020-0188,2021-09-21,22:18:55,23:16:29,NA,incomplete,false,NA,true,5,15,NA,right,E19_Q1_ansL.png,E16_Q3_ansL.png,between,NA,NaN,NA,right,967.7000000476837,1,2,1344
jAmS8la5,NA,NA,jAmS8la5,2020-0188,2021-09-21,22:18:55,23:16:29,NA,incomplete,false,NA,true,5,16,NA,right,E16_Q7_ansR.png,E16_Q1_ansR.png,within,NA,NaN,NA,right,1520.7999999523163,1,1,2401.5999999046326
jAmS8la5,NA,NA,jAmS8la5,2020-0188,2021-09-21,22:18:55,23:16:29,NA,incomplete,false,NA,true,5,17,NA,left,E16_Q7_ansR.png,E16_Q5_ansL.png,within,NA,NaN,NA,right,1990.7999999523163,0,1,797.6999998092651
jAmS8la5,NA,NA,jAmS8la5,2020-0188,2021-09-21,22:18:55,23:16:29,NA,incomplete,false,NA,true,5,18,NA,left,E16_Q8_ansR.png,E16_Q3_ansL.png,within,NA,NaN,NA,right,1019.7999999523163,0,1,1168.5
jAmS8la5,NA,NA,jAmS8la5,2020-0188,2021-09-21,22:18:55,23:16:29,NA,incomplete,false,NA,true,5,19,NA,right,E19_Q2_ansL.png,E19_Q4_ansR.png,within,NA,NaN,NA,right,1369.2000000476837,1,1,1759.5999999046326
jAmS8la5,NA,NA,jAmS8la5,2020-0188,2021-09-21,22:18:55,23:16:29,NA,incomplete,false,NA,true,5,20,NA,right,E16_Q1_ansR.png,E16_Q2_ansR.png,within,NA,NaN,NA,right,1353.4000000953674,1,0,2490.0999999046326
jAmS8la5,NA,NA,jAmS8la5,2020-0188,2021-09-21,22:18:55,23:16:29,NA,incomplete,false,NA,true,5,21,NA,right,E2_Q2_ansR.png,E19_Q5_ansR.png,between,NA,NaN,NA,right,2955.300000190735,1,1,1215.3000001907349
jAmS8la5,NA,NA,jAmS8la5,2020-0188,2021-09-21,22:18:55,23:16:29,NA,incomplete,false,NA,true,5,22,NA,right,E19_Q9_ansR.png,E16_Q5_ansL.png,between,NA,NaN,NA,right,1297.1000001430511,1,1,1610.2000000476837
jAmS8la5,NA,NA,jAmS8la5,2020-0188,2021-09-21,22:18:55,23:16:29,NA,incomplete,false,NA,true,5,23,NA,left,E16_Q10_ansR.png,E16_Q6_ansL.png,within,NA,NaN,NA,left,1489.2999999523163,1,1,1103.4000000953674
jAmS8la5,NA,NA,jAmS8la5,2020-0188,2021-09-21,22:18:55,23:16:29,NA,incomplete,false,NA,true,5,24,NA,right,E2_Q4_ansL.png,E2_Q7_ansR.png,within,NA,NaN,NA,right,2514.0999999046326,1,1,936.2000000476837
jAmS8la5,NA,NA,jAmS8la5,2020-0188,2021-09-21,22:18:55,23:16:29,NA,incomplete,false,NA,true,5,25,NA,left,E19_Q10_ansL.png,E19_Q6_ansR.png,within,NA,NaN,NA,left,1410.5,1,1,1167.1000001430511
jAmS8la5,NA,NA,jAmS8la5,2020-0188,2021-09-21,22:18:55,23:16:29,NA,incomplete,false,NA,true,5,26,NA,right,E2_Q10_ansL.png,E2_Q9_ansL.png,within,NA,NaN,NA,right,1279.7000000476837,1,1,1335.7000000476837
jAmS8la5,NA,NA,jAmS8la5,2020-0188,2021-09-21,22:18:55,23:16:29,NA,incomplete,false,true,NA,6,0,E25_Q7_ansR.png,right,NA,NA,NA,none,0,false,NA,NA,NA,NA,NA
jAmS8la5,NA,NA,jAmS8la5,2020-0188,2021-09-21,22:18:55,23:16:29,NA,incomplete,false,true,NA,6,1,E25_Q6_ansL.png,left,NA,NA,NA,left,2181.5,true,NA,NA,NA,NA,NA
jAmS8la5,NA,NA,jAmS8la5,2020-0188,2021-09-21,22:18:55,23:16:29,NA,incomplete,false,true,NA,6,2,E25_Q9_ansL.png,left,NA,NA,NA,left,2963.70000004768,true,NA,NA,NA,NA,NA
jAmS8la5,NA,NA,jAmS8la5,2020-0188,2021-09-21,22:18:55,23:16:29,NA,incomplete,false,true,NA,6,3,E25_Q4_ansL.png,left,NA,NA,NA,left,3203.19999980927,true,NA,NA,NA,NA,NA
jAmS8la5,NA,NA,jAmS8la5,2020-0188,2021-09-21,22:18:55,23:16:29,NA,incomplete,false,true,NA,6,4,E25_Q5_ansL.png,left,NA,NA,NA,left,2526.70000004768,true,NA,NA,NA,NA,NA
jAmS8la5,NA,NA,jAmS8la5,2020-0188,2021-09-21,22:18:55,23:16:29,NA,incomplete,false,true,NA,6,5,E25_Q2_ansR.png,right,NA,NA,NA,right,2383.40000009537,true,NA,NA,NA,NA,NA
jAmS8la5,NA,NA,jAmS8la5,2020-0188,2021-09-21,22:18:55,23:16:29,NA,incomplete,false,true,NA,6,6,E25_Q1_ansR.png,right,NA,NA,NA,right,1660,true,NA,NA,NA,NA,NA
jAmS8la5,NA,NA,jAmS8la5,2020-0188,2021-09-21,22:18:55,23:16:29,NA,incomplete,false,true,NA,6,7,E25_Q3_ansL.png,left,NA,NA,NA,left,2279.90000009537,true,NA,NA,NA,NA,NA
jAmS8la5,NA,NA,jAmS8la5,2020-0188,2021-09-21,22:18:55,23:16:29,NA,incomplete,false,true,NA,6,8,E25_Q10_ansR.png,right,NA,NA,NA,left,3105.79999995232,false,NA,NA,NA,NA,NA
jAmS8la5,NA,NA,jAmS8la5,2020-0188,2021-09-21,22:18:55,23:16:29,NA,incomplete,false,true,NA,6,9,E25_Q8_ansR.png,right,NA,NA,NA,right,1371.79999995232,true,NA,NA,NA,NA,NA
jAmS8la5,NA,NA,jAmS8la5,2020-0188,2021-09-21,22:18:55,23:16:29,NA,incomplete,false,true,NA,6,10,E27_Q6_ansR.png,right,NA,NA,NA,right,1235.20000004768,true,NA,NA,NA,NA,NA
jAmS8la5,NA,NA,jAmS8la5,2020-0188,2021-09-21,22:18:55,23:16:29,NA,incomplete,false,true,NA,6,11,E27_Q8_ansL.png,left,NA,NA,NA,left,1013.09999990463,true,NA,NA,NA,NA,NA
jAmS8la5,NA,NA,jAmS8la5,2020-0188,2021-09-21,22:18:55,23:16:29,NA,incomplete,false,true,NA,6,12,E27_Q1_ansL.png,left,NA,NA,NA,left,1186.09999990463,true,NA,NA,NA,NA,NA
jAmS8la5,NA,NA,jAmS8la5,2020-0188,2021-09-21,22:18:55,23:16:29,NA,incomplete,false,true,NA,6,13,E27_Q7_ansL.png,left,NA,NA,NA,left,1130.5,true,NA,NA,NA,NA,NA
jAmS8la5,NA,NA,jAmS8la5,2020-0188,2021-09-21,22:18:55,23:16:29,NA,incomplete,false,true,NA,6,14,E27_Q3_ansR.png,right,NA,NA,NA,right,590.100000143051,true,NA,NA,NA,NA,NA
jAmS8la5,NA,NA,jAmS8la5,2020-0188,2021-09-21,22:18:55,23:16:29,NA,incomplete,false,true,NA,6,15,E27_Q4_ansR.png,right,NA,NA,NA,right,600.799999952316,true,NA,NA,NA,NA,NA
jAmS8la5,NA,NA,jAmS8la5,2020-0188,2021-09-21,22:18:55,23:16:29,NA,incomplete,false,true,NA,6,16,E27_Q5_ansR.png,right,NA,NA,NA,right,985.600000143051,true,NA,NA,NA,NA,NA
jAmS8la5,NA,NA,jAmS8la5,2020-0188,2021-09-21,22:18:55,23:16:29,NA,incomplete,false,true,NA,6,17,E27_Q2_ansL.png,left,NA,NA,NA,left,791.400000095367,true,NA,NA,NA,NA,NA
jAmS8la5,NA,NA,jAmS8la5,2020-0188,2021-09-21,22:18:55,23:16:29,NA,incomplete,false,true,NA,6,18,E27_Q9_ansR.png,right,NA,NA,NA,right,986.700000047684,true,NA,NA,NA,NA,NA
jAmS8la5,NA,NA,jAmS8la5,2020-0188,2021-09-21,22:18:55,23:16:29,NA,incomplete,false,true,NA,6,19,E27_Q10_ansL.png,left,NA,NA,NA,left,863.5,true,NA,NA,NA,NA,NA
jAmS8la5,NA,NA,jAmS8la5,2020-0188,2021-09-21,22:18:55,23:16:29,NA,incomplete,false,true,NA,6,20,E32_Q2_ansL.png,left,NA,NA,NA,left,983.099999904633,true,NA,NA,NA,NA,NA
jAmS8la5,NA,NA,jAmS8la5,2020-0188,2021-09-21,22:18:55,23:16:29,NA,incomplete,false,true,NA,6,21,E32_Q3_ansR.png,right,NA,NA,NA,left,791.599999904633,false,NA,NA,NA,NA,NA
jAmS8la5,NA,NA,jAmS8la5,2020-0188,2021-09-21,22:18:55,23:16:29,NA,incomplete,false,true,NA,6,22,E32_Q6_ansR.png,right,NA,NA,NA,right,973.200000047684,true,NA,NA,NA,NA,NA
jAmS8la5,NA,NA,jAmS8la5,2020-0188,2021-09-21,22:18:55,23:16:29,NA,incomplete,false,true,NA,6,23,E32_Q10_ansL.png,left,NA,NA,NA,left,1266.59999990463,true,NA,NA,NA,NA,NA
jAmS8la5,NA,NA,jAmS8la5,2020-0188,2021-09-21,22:18:55,23:16:29,NA,incomplete,false,true,NA,6,24,E32_Q7_ansL.png,left,NA,NA,NA,left,1573.09999990463,true,NA,NA,NA,NA,NA
jAmS8la5,NA,NA,jAmS8la5,2020-0188,2021-09-21,22:18:55,23:16:29,NA,incomplete,false,true,NA,6,25,E32_Q9_ansR.png,right,NA,NA,NA,right,1013.89999985695,true,NA,NA,NA,NA,NA
jAmS8la5,NA,NA,jAmS8la5,2020-0188,2021-09-21,22:18:55,23:16:29,NA,incomplete,false,true,NA,6,26,E32_Q5_ansR.png,right,NA,NA,NA,right,1921.59999990463,true,NA,NA,NA,NA,NA
jAmS8la5,NA,NA,jAmS8la5,2020-0188,2021-09-21,22:18:55,23:16:29,NA,incomplete,false,true,NA,6,27,E32_Q4_ansR.png,right,NA,NA,NA,right,1793.80000019073,true,NA,NA,NA,NA,NA
jAmS8la5,NA,NA,jAmS8la5,2020-0188,2021-09-21,22:18:55,23:16:29,NA,incomplete,false,true,NA,6,28,E32_Q1_ansL.png,left,NA,NA,NA,left,983.599999904633,true,NA,NA,NA,NA,NA
jAmS8la5,NA,NA,jAmS8la5,2020-0188,2021-09-21,22:18:55,23:16:29,NA,incomplete,false,true,NA,6,29,E32_Q8_ansL.png,left,NA,NA,NA,left,923.399999856949,true,NA,NA,NA,NA,NA
jAmS8la5,NA,NA,jAmS8la5,2020-0188,2021-09-21,22:18:55,23:16:29,NA,incomplete,false,NA,true,6,0,NA,right,E32_Q7_ansL.png,E32_Q3_ansR.png,within,NA,NaN,NA,right,1392.6000001430511,1,1,1181.2000000476837
jAmS8la5,NA,NA,jAmS8la5,2020-0188,2021-09-21,22:18:55,23:16:29,NA,incomplete,false,NA,true,6,1,NA,left,E27_Q2_ansL.png,E32_Q2_ansL.png,between,NA,NaN,NA,left,1616.3999998569489,1,2,1095.6999998092651
jAmS8la5,NA,NA,jAmS8la5,2020-0188,2021-09-21,22:18:55,23:16:29,NA,incomplete,false,NA,true,6,2,NA,right,E27_Q8_ansL.png,E25_Q10_ansR.png,between,NA,NaN,NA,right,1101.6000001430511,1,2,1774.5
jAmS8la5,NA,NA,jAmS8la5,2020-0188,2021-09-21,22:18:55,23:16:29,NA,incomplete,false,NA,true,6,3,NA,right,E32_Q9_ansR.png,E32_Q6_ansR.png,within,NA,NaN,NA,right,2242.100000143051,1,0,2111.7999999523163
jAmS8la5,NA,NA,jAmS8la5,2020-0188,2021-09-21,22:18:55,23:16:29,NA,incomplete,false,NA,true,6,4,NA,right,E25_Q10_ansR.png,E25_Q2_ansR.png,within,NA,NaN,NA,right,1672.7000000476837,1,0,1638.7000000476837
jAmS8la5,NA,NA,jAmS8la5,2020-0188,2021-09-21,22:18:55,23:16:29,NA,incomplete,false,NA,true,6,5,NA,right,E27_Q9_ansR.png,E27_Q4_ansR.png,within,NA,NaN,NA,right,1377.0999999046326,1,0,1113.5999999046326
jAmS8la5,NA,NA,jAmS8la5,2020-0188,2021-09-21,22:18:55,23:16:29,NA,incomplete,false,NA,true,6,6,NA,right,E27_Q2_ansL.png,E27_Q3_ansR.png,within,NA,NaN,NA,left,2339.2000000476837,0,0,1126.3999998569489
jAmS8la5,NA,NA,jAmS8la5,2020-0188,2021-09-21,22:18:55,23:16:29,NA,incomplete,false,NA,true,6,7,NA,right,E25_Q4_ansL.png,E25_Q7_ansR.png,within,NA,NaN,NA,right,2451.2000000476837,1,0,1386.2999999523163
jAmS8la5,NA,NA,jAmS8la5,2020-0188,2021-09-21,22:18:55,23:16:29,NA,incomplete,false,NA,true,6,8,NA,right,E25_Q3_ansL.png,E25_Q5_ansL.png,within,NA,NaN,NA,right,1852.1000001430511,1,1,967.7999999523163
jAmS8la5,NA,NA,jAmS8la5,2020-0188,2021-09-21,22:18:55,23:16:29,NA,incomplete,false,NA,true,6,9,NA,right,E25_Q2_ansR.png,E25_Q9_ansL.png,within,NA,NaN,NA,right,2475.4000000953674,1,0,1016.1000001430511
jAmS8la5,NA,NA,jAmS8la5,2020-0188,2021-09-21,22:18:55,23:16:29,NA,incomplete,false,NA,true,6,10,NA,right,E27_Q10_ansL.png,E27_Q5_ansR.png,within,NA,NaN,NA,right,1290.8000001907349,1,1,1071.4000000953674
jAmS8la5,NA,NA,jAmS8la5,2020-0188,2021-09-21,22:18:55,23:16:29,NA,incomplete,false,NA,true,6,11,NA,left,E32_Q10_ansL.png,E32_Q5_ansR.png,within,NA,NaN,NA,left,3021.4000000953674,1,0,1528.5999999046326
jAmS8la5,NA,NA,jAmS8la5,2020-0188,2021-09-21,22:18:55,23:16:29,NA,incomplete,false,NA,true,6,12,NA,right,E27_Q4_ansR.png,E27_Q1_ansL.png,within,NA,NaN,NA,right,1209.0999999046326,1,0,1320.5999999046326
jAmS8la5,NA,NA,jAmS8la5,2020-0188,2021-09-21,22:18:55,23:16:29,NA,incomplete,false,NA,true,6,13,NA,left,E25_Q4_ansL.png,E25_Q1_ansR.png,within,NA,NaN,NA,left,1969.9000000953674,1,0,1143.2000000476837
jAmS8la5,NA,NA,jAmS8la5,2020-0188,2021-09-21,22:18:55,23:16:29,NA,incomplete,false,NA,true,6,14,NA,right,E27_Q1_ansL.png,E25_Q8_ansR.png,between,NA,NaN,NA,right,1135.2000000476837,1,2,831.2999999523163
jAmS8la5,NA,NA,jAmS8la5,2020-0188,2021-09-21,22:18:55,23:16:29,NA,incomplete,false,NA,true,6,15,NA,right,E25_Q8_ansR.png,E25_Q1_ansR.png,within,NA,NaN,NA,right,2355,1,0,1937.7999999523163
jAmS8la5,NA,NA,jAmS8la5,2020-0188,2021-09-21,22:18:55,23:16:29,NA,incomplete,false,NA,true,6,16,NA,right,E25_Q5_ansL.png,E25_Q6_ansL.png,within,NA,NaN,NA,left,3212.800000190735,0,0,775.2000000476837
jAmS8la5,NA,NA,jAmS8la5,2020-0188,2021-09-21,22:18:55,23:16:29,NA,incomplete,false,NA,true,6,17,NA,left,E32_Q9_ansR.png,E32_Q1_ansL.png,within,NA,NaN,NA,right,1385.4000000953674,0,0,1390.7000000476837
jAmS8la5,NA,NA,jAmS8la5,2020-0188,2021-09-21,22:18:55,23:16:29,NA,incomplete,false,NA,true,6,18,NA,left,E25_Q3_ansL.png,E27_Q6_ansR.png,between,NA,NaN,NA,left,2925.2000000476837,1,0,1136.3000001907349
jAmS8la5,NA,NA,jAmS8la5,2020-0188,2021-09-21,22:18:55,23:16:29,NA,incomplete,false,NA,true,6,19,NA,left,E27_Q7_ansL.png,E27_Q5_ansR.png,within,NA,NaN,NA,left,2154.899999856949,1,0,1320.6999998092651
jAmS8la5,NA,NA,jAmS8la5,2020-0188,2021-09-21,22:18:55,23:16:29,NA,incomplete,false,NA,true,6,20,NA,left,E32_Q2_ansL.png,E32_Q10_ansL.png,within,NA,NaN,NA,left,1452.5,1,1,1880.5
jAmS8la5,NA,NA,jAmS8la5,2020-0188,2021-09-21,22:18:55,23:16:29,NA,incomplete,false,NA,true,6,21,NA,left,E27_Q6_ansR.png,E27_Q7_ansL.png,within,NA,NaN,NA,left,1697.5,1,1,1512.6000001430511
jAmS8la5,NA,NA,jAmS8la5,2020-0188,2021-09-21,22:18:55,23:16:29,NA,incomplete,false,NA,true,6,22,NA,left,E27_Q8_ansL.png,E27_Q3_ansR.png,within,NA,NaN,NA,left,1329.0999999046326,1,1,1071.7999999523163
jAmS8la5,NA,NA,jAmS8la5,2020-0188,2021-09-21,22:18:55,23:16:29,NA,incomplete,false,NA,true,6,23,NA,left,E27_Q10_ansL.png,E32_Q6_ansR.png,between,NA,NaN,NA,left,2571.4000000953674,1,0,1745.6000001430511
jAmS8la5,NA,NA,jAmS8la5,2020-0188,2021-09-21,22:18:55,23:16:29,NA,incomplete,false,NA,true,6,24,NA,right,E32_Q8_ansL.png,E32_Q5_ansR.png,within,NA,NaN,NA,right,1602.7000000476837,1,1,1119.8999998569489
jAmS8la5,NA,NA,jAmS8la5,2020-0188,2021-09-21,22:18:55,23:16:29,NA,incomplete,false,NA,true,6,25,NA,left,E27_Q9_ansR.png,E32_Q3_ansR.png,between,NA,NaN,NA,left,1466.0999999046326,1,1,1913.0999999046326
jAmS8la5,NA,NA,jAmS8la5,2020-0188,2021-09-21,22:18:55,23:16:29,NA,incomplete,false,NA,true,6,26,NA,left,E32_Q7_ansL.png,E32_Q4_ansR.png,within,NA,NaN,NA,left,2428.0999999046326,1,1,1254.3999998569489
jAmS8la5,NA,NA,jAmS8la5,2020-0188,2021-09-21,22:18:55,23:16:29,NA,incomplete,false,true,NA,7,0,E11_Q4_ansL.png,left,NA,NA,NA,left,1494.59999990463,true,NA,NA,NA,NA,NA
jAmS8la5,NA,NA,jAmS8la5,2020-0188,2021-09-21,22:18:55,23:16:29,NA,incomplete,false,true,NA,7,1,E11_Q1_ansR.png,right,NA,NA,NA,right,1627.29999995232,true,NA,NA,NA,NA,NA
jAmS8la5,NA,NA,jAmS8la5,2020-0188,2021-09-21,22:18:55,23:16:29,NA,incomplete,false,true,NA,7,2,E11_Q10_ansR.png,right,NA,NA,NA,right,1443.39999985695,true,NA,NA,NA,NA,NA
jAmS8la5,NA,NA,jAmS8la5,2020-0188,2021-09-21,22:18:55,23:16:29,NA,incomplete,false,true,NA,7,3,E11_Q8_ansR.png,right,NA,NA,NA,right,978.099999904633,true,NA,NA,NA,NA,NA
jAmS8la5,NA,NA,jAmS8la5,2020-0188,2021-09-21,22:18:55,23:16:29,NA,incomplete,false,true,NA,7,4,E11_Q2_ansR.png,right,NA,NA,NA,right,1123.90000009537,true,NA,NA,NA,NA,NA
jAmS8la5,NA,NA,jAmS8la5,2020-0188,2021-09-21,22:18:55,23:16:29,NA,incomplete,false,true,NA,7,5,E11_Q6_ansL.png,left,NA,NA,NA,left,1335.70000004768,true,NA,NA,NA,NA,NA
jAmS8la5,NA,NA,jAmS8la5,2020-0188,2021-09-21,22:18:55,23:16:29,NA,incomplete,false,true,NA,7,6,E11_Q9_ansL.png,left,NA,NA,NA,left,1357.60000014305,true,NA,NA,NA,NA,NA
jAmS8la5,NA,NA,jAmS8la5,2020-0188,2021-09-21,22:18:55,23:16:29,NA,incomplete,false,true,NA,7,7,E11_Q7_ansR.png,right,NA,NA,NA,right,786,true,NA,NA,NA,NA,NA
jAmS8la5,NA,NA,jAmS8la5,2020-0188,2021-09-21,22:18:55,23:16:29,NA,incomplete,false,true,NA,7,8,E11_Q3_ansL.png,left,NA,NA,NA,left,948.900000095367,true,NA,NA,NA,NA,NA
jAmS8la5,NA,NA,jAmS8la5,2020-0188,2021-09-21,22:18:55,23:16:29,NA,incomplete,false,true,NA,7,9,E11_Q5_ansL.png,left,NA,NA,NA,left,1671.5,true,NA,NA,NA,NA,NA
jAmS8la5,NA,NA,jAmS8la5,2020-0188,2021-09-21,22:18:55,23:16:29,NA,incomplete,false,true,NA,7,10,E15_Q4_ansR.png,right,NA,NA,NA,right,2027.5,true,NA,NA,NA,NA,NA
jAmS8la5,NA,NA,jAmS8la5,2020-0188,2021-09-21,22:18:55,23:16:29,NA,incomplete,false,true,NA,7,11,E15_Q2_ansL.png,left,NA,NA,NA,left,1070.90000009537,true,NA,NA,NA,NA,NA
jAmS8la5,NA,NA,jAmS8la5,2020-0188,2021-09-21,22:18:55,23:16:29,NA,incomplete,false,true,NA,7,12,E15_Q1_ansL.png,left,NA,NA,NA,left,931.100000143051,true,NA,NA,NA,NA,NA
jAmS8la5,NA,NA,jAmS8la5,2020-0188,2021-09-21,22:18:55,23:16:29,NA,incomplete,false,true,NA,7,13,E15_Q9_ansR.png,right,NA,NA,NA,right,1420.40000009537,true,NA,NA,NA,NA,NA
jAmS8la5,NA,NA,jAmS8la5,2020-0188,2021-09-21,22:18:55,23:16:29,NA,incomplete,false,true,NA,7,14,E15_Q5_ansR.png,right,NA,NA,NA,right,1156.5,true,NA,NA,NA,NA,NA
jAmS8la5,NA,NA,jAmS8la5,2020-0188,2021-09-21,22:18:55,23:16:29,NA,incomplete,false,true,NA,7,15,E15_Q3_ansR.png,right,NA,NA,NA,right,1032.70000004768,true,NA,NA,NA,NA,NA
jAmS8la5,NA,NA,jAmS8la5,2020-0188,2021-09-21,22:18:55,23:16:29,NA,incomplete,false,true,NA,7,16,E15_Q7_ansL.png,left,NA,NA,NA,left,1056.5,true,NA,NA,NA,NA,NA
jAmS8la5,NA,NA,jAmS8la5,2020-0188,2021-09-21,22:18:55,23:16:29,NA,incomplete,false,true,NA,7,17,E15_Q8_ansL.png,left,NA,NA,NA,left,1556.29999995232,true,NA,NA,NA,NA,NA
jAmS8la5,NA,NA,jAmS8la5,2020-0188,2021-09-21,22:18:55,23:16:29,NA,incomplete,false,true,NA,7,18,E15_Q6_ansR.png,right,NA,NA,NA,right,2165.90000009537,true,NA,NA,NA,NA,NA
jAmS8la5,NA,NA,jAmS8la5,2020-0188,2021-09-21,22:18:55,23:16:29,NA,incomplete,false,true,NA,7,19,E15_Q10_ansL.png,left,NA,NA,NA,left,1399.59999990463,true,NA,NA,NA,NA,NA
jAmS8la5,NA,NA,jAmS8la5,2020-0188,2021-09-21,22:18:55,23:16:29,NA,incomplete,false,true,NA,7,20,E3_Q8_ansL.png,left,NA,NA,NA,left,1917,true,NA,NA,NA,NA,NA
jAmS8la5,NA,NA,jAmS8la5,2020-0188,2021-09-21,22:18:55,23:16:29,NA,incomplete,false,true,NA,7,21,E3_Q9_ansL.png,left,NA,NA,NA,left,1884.30000019073,true,NA,NA,NA,NA,NA
jAmS8la5,NA,NA,jAmS8la5,2020-0188,2021-09-21,22:18:55,23:16:29,NA,incomplete,false,true,NA,7,22,E3_Q1_ansR.png,right,NA,NA,NA,right,1419.60000014305,true,NA,NA,NA,NA,NA
jAmS8la5,NA,NA,jAmS8la5,2020-0188,2021-09-21,22:18:55,23:16:29,NA,incomplete,false,true,NA,7,23,E3_Q4_ansL.png,left,NA,NA,NA,left,1478.79999995232,true,NA,NA,NA,NA,NA
jAmS8la5,NA,NA,jAmS8la5,2020-0188,2021-09-21,22:18:55,23:16:29,NA,incomplete,false,true,NA,7,24,E3_Q7_ansL.png,left,NA,NA,NA,left,1518.5,true,NA,NA,NA,NA,NA
jAmS8la5,NA,NA,jAmS8la5,2020-0188,2021-09-21,22:18:55,23:16:29,NA,incomplete,false,true,NA,7,25,E3_Q6_ansR.png,right,NA,NA,NA,right,1562.79999995232,true,NA,NA,NA,NA,NA
jAmS8la5,NA,NA,jAmS8la5,2020-0188,2021-09-21,22:18:55,23:16:29,NA,incomplete,false,true,NA,7,26,E3_Q3_ansR.png,right,NA,NA,NA,right,1517.59999990463,true,NA,NA,NA,NA,NA
jAmS8la5,NA,NA,jAmS8la5,2020-0188,2021-09-21,22:18:55,23:16:29,NA,incomplete,false,true,NA,7,27,E3_Q5_ansR.png,right,NA,NA,NA,right,1104.39999985695,true,NA,NA,NA,NA,NA
jAmS8la5,NA,NA,jAmS8la5,2020-0188,2021-09-21,22:18:55,23:16:29,NA,incomplete,false,true,NA,7,28,E3_Q2_ansL.png,left,NA,NA,NA,left,1145.30000019073,true,NA,NA,NA,NA,NA
jAmS8la5,NA,NA,jAmS8la5,2020-0188,2021-09-21,22:18:55,23:16:29,NA,incomplete,false,true,NA,7,29,E3_Q10_ansR.png,right,NA,NA,NA,right,957.699999809265,true,NA,NA,NA,NA,NA
jAmS8la5,NA,NA,jAmS8la5,2020-0188,2021-09-21,22:18:55,23:16:29,NA,incomplete,false,NA,true,7,0,NA,left,E11_Q2_ansR.png,E11_Q7_ansR.png,within,NA,NaN,NA,left,4267.799999952316,1,0,1224.2999999523163
jAmS8la5,NA,NA,jAmS8la5,2020-0188,2021-09-21,22:18:55,23:16:29,NA,incomplete,false,NA,true,7,1,NA,left,E11_Q6_ansL.png,E11_Q3_ansL.png,within,NA,NaN,NA,left,1622.7000000476837,1,0,824.2000000476837
jAmS8la5,NA,NA,jAmS8la5,2020-0188,2021-09-21,22:18:55,23:16:29,NA,incomplete,false,NA,true,7,2,NA,right,E11_Q5_ansL.png,E11_Q9_ansL.png,within,NA,NaN,NA,right,1810.5999999046326,1,0,927.2000000476837
jAmS8la5,NA,NA,jAmS8la5,2020-0188,2021-09-21,22:18:55,23:16:29,NA,incomplete,false,NA,true,7,3,NA,left,E11_Q3_ansL.png,E15_Q2_ansL.png,between,NA,NaN,NA,left,1176,1,2,1681.7000000476837
jAmS8la5,NA,NA,jAmS8la5,2020-0188,2021-09-21,22:18:55,23:16:29,NA,incomplete,false,NA,true,7,4,NA,left,E15_Q2_ansL.png,E15_Q5_ansR.png,within,NA,NaN,NA,left,1480.2999999523163,1,0,1536.5
jAmS8la5,NA,NA,jAmS8la5,2020-0188,2021-09-21,22:18:55,23:16:29,NA,incomplete,false,NA,true,7,5,NA,left,E3_Q6_ansR.png,E3_Q2_ansL.png,within,NA,NaN,NA,left,2042,1,0,1160.8999998569489
jAmS8la5,NA,NA,jAmS8la5,2020-0188,2021-09-21,22:18:55,23:16:29,NA,incomplete,false,NA,true,7,6,NA,left,E15_Q4_ansR.png,E15_Q9_ansR.png,within,NA,NaN,NA,right,2346.5999999046326,0,0,1088.5
jAmS8la5,NA,NA,jAmS8la5,2020-0188,2021-09-21,22:18:55,23:16:29,NA,incomplete,false,NA,true,7,7,NA,right,E3_Q10_ansR.png,E3_Q3_ansR.png,within,NA,NaN,NA,right,2803.5999999046326,1,0,2289.199999809265
jAmS8la5,NA,NA,jAmS8la5,2020-0188,2021-09-21,22:18:55,23:16:29,NA,incomplete,false,NA,true,7,8,NA,right,E15_Q6_ansR.png,E15_Q3_ansR.png,within,NA,NaN,NA,right,2081.699999809265,1,0,992.7999999523163
jAmS8la5,NA,NA,jAmS8la5,2020-0188,2021-09-21,22:18:55,23:16:29,NA,incomplete,false,NA,true,7,9,NA,left,E11_Q1_ansR.png,E11_Q2_ansR.png,within,NA,NaN,NA,left,1520.4000000953674,1,0,934.5
jAmS8la5,NA,NA,jAmS8la5,2020-0188,2021-09-21,22:18:55,23:16:29,NA,incomplete,false,NA,true,7,10,NA,right,E15_Q1_ansL.png,E11_Q5_ansL.png,between,NA,NaN,NA,right,1425.7000000476837,1,3,2482.7000000476837
jAmS8la5,NA,NA,jAmS8la5,2020-0188,2021-09-21,22:18:55,23:16:29,NA,incomplete,false,NA,true,7,11,NA,left,E15_Q7_ansL.png,E15_Q10_ansL.png,within,NA,NaN,NA,left,6706.700000047684,1,0,1062.2000000476837
jAmS8la5,NA,NA,jAmS8la5,2020-0188,2021-09-21,22:18:55,23:16:29,NA,incomplete,false,NA,true,7,12,NA,left,E15_Q1_ansL.png,E15_Q3_ansR.png,within,NA,NaN,NA,left,3065.5999999046326,1,0,1176
jAmS8la5,NA,NA,jAmS8la5,2020-0188,2021-09-21,22:18:55,23:16:29,NA,incomplete,false,NA,true,7,13,NA,left,E15_Q10_ansL.png,E3_Q1_ansR.png,between,NA,NaN,NA,left,1417.4000000953674,1,1,1399.7999999523163
jAmS8la5,NA,NA,jAmS8la5,2020-0188,2021-09-21,22:18:55,23:16:29,NA,incomplete,false,NA,true,7,14,NA,right,E15_Q8_ansL.png,E15_Q5_ansR.png,within,NA,NaN,NA,right,1520,1,1,2007.7999999523163
jAmS8la5,NA,NA,jAmS8la5,2020-0188,2021-09-21,22:18:55,23:16:29,NA,incomplete,false,NA,true,7,15,NA,left,E15_Q6_ansR.png,E3_Q9_ansL.png,between,NA,NaN,NA,left,1577.7999999523163,1,2,926.2000000476837
jAmS8la5,NA,NA,jAmS8la5,2020-0188,2021-09-21,22:18:55,23:16:29,NA,incomplete,false,NA,true,7,16,NA,right,E3_Q4_ansL.png,E3_Q8_ansL.png,within,NA,NaN,NA,right,2898.2000000476837,1,1,1511.7000000476837
jAmS8la5,NA,NA,jAmS8la5,2020-0188,2021-09-21,22:18:55,23:16:29,NA,incomplete,false,NA,true,7,17,NA,right,E3_Q3_ansR.png,E3_Q4_ansL.png,within,NA,NaN,NA,right,1415,1,0,1070
jAmS8la5,NA,NA,jAmS8la5,2020-0188,2021-09-21,22:18:55,23:16:29,NA,incomplete,false,NA,true,7,18,NA,left,E11_Q10_ansR.png,E11_Q6_ansL.png,within,NA,NaN,NA,left,1801.9000000953674,1,1,1079.2999999523163
jAmS8la5,NA,NA,jAmS8la5,2020-0188,2021-09-21,22:18:55,23:16:29,NA,incomplete,false,NA,true,7,19,NA,right,E3_Q7_ansL.png,E3_Q9_ansL.png,within,NA,NaN,NA,right,2114.399999856949,1,0,1255.6000001430511
jAmS8la5,NA,NA,jAmS8la5,2020-0188,2021-09-21,22:18:55,23:16:29,NA,incomplete,false,NA,true,7,20,NA,right,E3_Q5_ansR.png,E3_Q7_ansL.png,within,NA,NaN,NA,left,3500.100000143051,0,0,894.7000000476837
jAmS8la5,NA,NA,jAmS8la5,2020-0188,2021-09-21,22:18:55,23:16:29,NA,incomplete,false,NA,true,7,21,NA,left,E11_Q4_ansL.png,E11_Q8_ansR.png,within,NA,NaN,NA,left,1409,1,0,1455.7999999523163
jAmS8la5,NA,NA,jAmS8la5,2020-0188,2021-09-21,22:18:55,23:16:29,NA,incomplete,false,NA,true,7,22,NA,left,E11_Q7_ansR.png,E15_Q4_ansR.png,between,NA,NaN,NA,left,1313.9000000953674,1,2,1567.5999999046326
jAmS8la5,NA,NA,jAmS8la5,2020-0188,2021-09-21,22:18:55,23:16:29,NA,incomplete,false,NA,true,7,23,NA,right,E15_Q7_ansL.png,E15_Q9_ansR.png,within,NA,NaN,NA,right,1688.2000000476837,1,1,1368.0999999046326
jAmS8la5,NA,NA,jAmS8la5,2020-0188,2021-09-21,22:18:55,23:16:29,NA,incomplete,false,NA,true,7,24,NA,left,E11_Q8_ansR.png,E11_Q9_ansL.png,within,NA,NaN,NA,left,2033.4000000953674,1,0,1102.9000000953674
jAmS8la5,NA,NA,jAmS8la5,2020-0188,2021-09-21,22:18:55,23:16:29,NA,incomplete,false,NA,true,7,25,NA,left,E3_Q1_ansR.png,E3_Q6_ansR.png,within,NA,NaN,NA,right,1960.7999999523163,0,0,1310.5
jAmS8la5,NA,NA,jAmS8la5,2020-0188,2021-09-21,22:18:55,23:16:29,NA,incomplete,false,NA,true,7,26,NA,left,E15_Q8_ansL.png,E3_Q8_ansL.png,between,NA,NaN,NA,left,1110.6000001430511,1,1,790.3000001907349
jAmS8la5,NA,NA,jAmS8la5,2020-0188,2021-09-21,22:18:55,23:16:29,NA,incomplete,false,true,NA,8,0,E10_Q2_ansL.png,left,NA,NA,NA,left,3425.79999995232,true,NA,NA,NA,NA,NA
jAmS8la5,NA,NA,jAmS8la5,2020-0188,2021-09-21,22:18:55,23:16:29,NA,incomplete,false,true,NA,8,1,E10_Q7_ansR.png,right,NA,NA,NA,none,0,false,NA,NA,NA,NA,NA
jAmS8la5,NA,NA,jAmS8la5,2020-0188,2021-09-21,22:18:55,23:16:29,NA,incomplete,false,true,NA,8,2,E10_Q8_ansR.png,right,NA,NA,NA,right,3208.20000004768,true,NA,NA,NA,NA,NA
jAmS8la5,NA,NA,jAmS8la5,2020-0188,2021-09-21,22:18:55,23:16:29,NA,incomplete,false,true,NA,8,3,E10_Q1_ansL.png,left,NA,NA,NA,left,1547,true,NA,NA,NA,NA,NA
jAmS8la5,NA,NA,jAmS8la5,2020-0188,2021-09-21,22:18:55,23:16:29,NA,incomplete,false,true,NA,8,4,E10_Q5_ansR.png,right,NA,NA,NA,right,2676.20000004768,true,NA,NA,NA,NA,NA
jAmS8la5,NA,NA,jAmS8la5,2020-0188,2021-09-21,22:18:55,23:16:29,NA,incomplete,false,true,NA,8,5,E10_Q9_ansL.png,left,NA,NA,NA,left,2251.69999980927,true,NA,NA,NA,NA,NA
jAmS8la5,NA,NA,jAmS8la5,2020-0188,2021-09-21,22:18:55,23:16:29,NA,incomplete,false,true,NA,8,6,E10_Q4_ansL.png,left,NA,NA,NA,left,1912.5,true,NA,NA,NA,NA,NA
jAmS8la5,NA,NA,jAmS8la5,2020-0188,2021-09-21,22:18:55,23:16:29,NA,incomplete,false,true,NA,8,7,E10_Q10_ansR.png,right,NA,NA,NA,right,3394,true,NA,NA,NA,NA,NA
jAmS8la5,NA,NA,jAmS8la5,2020-0188,2021-09-21,22:18:55,23:16:29,NA,incomplete,false,true,NA,8,8,E10_Q6_ansR.png,right,NA,NA,NA,right,3323.89999985695,true,NA,NA,NA,NA,NA
jAmS8la5,NA,NA,jAmS8la5,2020-0188,2021-09-21,22:18:55,23:16:29,NA,incomplete,false,true,NA,8,9,E10_Q3_ansL.png,left,NA,NA,NA,left,3033.5,true,NA,NA,NA,NA,NA
jAmS8la5,NA,NA,jAmS8la5,2020-0188,2021-09-21,22:18:55,23:16:29,NA,incomplete,false,true,NA,8,10,E13_Q3_ansR.png,right,NA,NA,NA,right,1451.70000004768,true,NA,NA,NA,NA,NA
jAmS8la5,NA,NA,jAmS8la5,2020-0188,2021-09-21,22:18:55,23:16:29,NA,incomplete,false,true,NA,8,11,E13_Q1_ansL.png,left,NA,NA,NA,left,1003.30000019073,true,NA,NA,NA,NA,NA
jAmS8la5,NA,NA,jAmS8la5,2020-0188,2021-09-21,22:18:55,23:16:29,NA,incomplete,false,true,NA,8,12,E13_Q6_ansR.png,right,NA,NA,NA,right,856.300000190735,true,NA,NA,NA,NA,NA
jAmS8la5,NA,NA,jAmS8la5,2020-0188,2021-09-21,22:18:55,23:16:29,NA,incomplete,false,true,NA,8,13,E13_Q9_ansR.png,right,NA,NA,NA,right,955.599999904633,true,NA,NA,NA,NA,NA
jAmS8la5,NA,NA,jAmS8la5,2020-0188,2021-09-21,22:18:55,23:16:29,NA,incomplete,false,true,NA,8,14,E13_Q8_ansL.png,left,NA,NA,NA,left,763.400000095367,true,NA,NA,NA,NA,NA
jAmS8la5,NA,NA,jAmS8la5,2020-0188,2021-09-21,22:18:55,23:16:29,NA,incomplete,false,true,NA,8,15,E13_Q10_ansL.png,left,NA,NA,NA,left,1325.5,true,NA,NA,NA,NA,NA
jAmS8la5,NA,NA,jAmS8la5,2020-0188,2021-09-21,22:18:55,23:16:29,NA,incomplete,false,true,NA,8,16,E13_Q4_ansR.png,right,NA,NA,NA,right,935.400000095367,true,NA,NA,NA,NA,NA
jAmS8la5,NA,NA,jAmS8la5,2020-0188,2021-09-21,22:18:55,23:16:29,NA,incomplete,false,true,NA,8,17,E13_Q5_ansR.png,right,NA,NA,NA,left,685.400000095367,false,NA,NA,NA,NA,NA
jAmS8la5,NA,NA,jAmS8la5,2020-0188,2021-09-21,22:18:55,23:16:29,NA,incomplete,false,true,NA,8,18,E13_Q7_ansL.png,left,NA,NA,NA,left,1058.39999985695,true,NA,NA,NA,NA,NA
jAmS8la5,NA,NA,jAmS8la5,2020-0188,2021-09-21,22:18:55,23:16:29,NA,incomplete,false,true,NA,8,19,E13_Q2_ansL.png,left,NA,NA,NA,left,1016.29999995232,true,NA,NA,NA,NA,NA
jAmS8la5,NA,NA,jAmS8la5,2020-0188,2021-09-21,22:18:55,23:16:29,NA,incomplete,false,true,NA,8,20,E8_Q5_ansL.png,left,NA,NA,NA,left,1261.09999990463,true,NA,NA,NA,NA,NA
jAmS8la5,NA,NA,jAmS8la5,2020-0188,2021-09-21,22:18:55,23:16:29,NA,incomplete,false,true,NA,8,21,E8_Q4_ansL.png,left,NA,NA,NA,left,862.799999952316,true,NA,NA,NA,NA,NA
jAmS8la5,NA,NA,jAmS8la5,2020-0188,2021-09-21,22:18:55,23:16:29,NA,incomplete,false,true,NA,8,22,E8_Q7_ansR.png,right,NA,NA,NA,right,1281.70000004768,true,NA,NA,NA,NA,NA
jAmS8la5,NA,NA,jAmS8la5,2020-0188,2021-09-21,22:18:55,23:16:29,NA,incomplete,false,true,NA,8,23,E8_Q9_ansL.png,left,NA,NA,NA,left,779.299999952316,true,NA,NA,NA,NA,NA
jAmS8la5,NA,NA,jAmS8la5,2020-0188,2021-09-21,22:18:55,23:16:29,NA,incomplete,false,true,NA,8,24,E8_Q1_ansR.png,right,NA,NA,NA,right,1454.40000009537,true,NA,NA,NA,NA,NA
jAmS8la5,NA,NA,jAmS8la5,2020-0188,2021-09-21,22:18:55,23:16:29,NA,incomplete,false,true,NA,8,25,E8_Q8_ansR.png,right,NA,NA,NA,right,1031,true,NA,NA,NA,NA,NA
jAmS8la5,NA,NA,jAmS8la5,2020-0188,2021-09-21,22:18:55,23:16:29,NA,incomplete,false,true,NA,8,26,E8_Q3_ansL.png,left,NA,NA,NA,left,1042.80000019073,true,NA,NA,NA,NA,NA
jAmS8la5,NA,NA,jAmS8la5,2020-0188,2021-09-21,22:18:55,23:16:29,NA,incomplete,false,true,NA,8,27,E8_Q6_ansL.png,left,NA,NA,NA,left,981.600000143051,true,NA,NA,NA,NA,NA
jAmS8la5,NA,NA,jAmS8la5,2020-0188,2021-09-21,22:18:55,23:16:29,NA,incomplete,false,true,NA,8,28,E8_Q2_ansR.png,right,NA,NA,NA,right,987,true,NA,NA,NA,NA,NA
jAmS8la5,NA,NA,jAmS8la5,2020-0188,2021-09-21,22:18:55,23:16:29,NA,incomplete,false,true,NA,8,29,E8_Q10_ansR.png,right,NA,NA,NA,right,937.600000143051,true,NA,NA,NA,NA,NA
jAmS8la5,NA,NA,jAmS8la5,2020-0188,2021-09-21,22:18:55,23:16:29,NA,incomplete,false,NA,true,8,0,NA,left,E8_Q7_ansR.png,E8_Q8_ansR.png,within,NA,NaN,NA,left,1648.5,1,0,1174.9000000953674
jAmS8la5,NA,NA,jAmS8la5,2020-0188,2021-09-21,22:18:55,23:16:29,NA,incomplete,false,NA,true,8,1,NA,left,E13_Q1_ansL.png,E13_Q8_ansL.png,within,NA,NaN,NA,left,1462.6999998092651,1,0,1036
jAmS8la5,NA,NA,jAmS8la5,2020-0188,2021-09-21,22:18:55,23:16:29,NA,incomplete,false,NA,true,8,2,NA,left,E8_Q3_ansL.png,E8_Q10_ansR.png,within,NA,NaN,NA,left,2520.399999856949,1,0,1118.7000000476837
jAmS8la5,NA,NA,jAmS8la5,2020-0188,2021-09-21,22:18:55,23:16:29,NA,incomplete,false,NA,true,8,3,NA,right,E10_Q9_ansL.png,E10_Q8_ansR.png,within,NA,NaN,NA,right,1905.2999999523163,1,0,831.5999999046326
jAmS8la5,NA,NA,jAmS8la5,2020-0188,2021-09-21,22:18:55,23:16:29,NA,incomplete,false,NA,true,8,4,NA,left,E13_Q5_ansR.png,E8_Q5_ansL.png,between,NA,NaN,NA,left,1331.8999998569489,1,2,1737.7999999523163
jAmS8la5,NA,NA,jAmS8la5,2020-0188,2021-09-21,22:18:55,23:16:29,NA,incomplete,false,NA,true,8,5,NA,right,E13_Q6_ansR.png,E10_Q3_ansL.png,between,NA,NaN,NA,right,976.0999999046326,1,2,1279
jAmS8la5,NA,NA,jAmS8la5,2020-0188,2021-09-21,22:18:55,23:16:29,NA,incomplete,false,NA,true,8,6,NA,left,E10_Q1_ansL.png,E10_Q4_ansL.png,within,NA,NaN,NA,left,1601.5,1,1,1120.0999999046326
jAmS8la5,NA,NA,jAmS8la5,2020-0188,2021-09-21,22:18:55,23:16:29,NA,incomplete,false,NA,true,8,7,NA,right,E13_Q1_ansL.png,E10_Q6_ansR.png,between,NA,NaN,NA,right,1225,1,2,1103.7000000476837
jAmS8la5,NA,NA,jAmS8la5,2020-0188,2021-09-21,22:18:55,23:16:29,NA,incomplete,false,NA,true,8,8,NA,left,E13_Q4_ansR.png,E13_Q2_ansL.png,within,NA,NaN,NA,right,2937.7000000476837,0,0,1095.8999998569489
jAmS8la5,NA,NA,jAmS8la5,2020-0188,2021-09-21,22:18:55,23:16:29,NA,incomplete,false,NA,true,8,9,NA,left,E10_Q4_ansL.png,E10_Q3_ansL.png,within,NA,NaN,NA,left,2355.0999999046326,1,0,951
jAmS8la5,NA,NA,jAmS8la5,2020-0188,2021-09-21,22:18:55,23:16:29,NA,incomplete,false,NA,true,8,10,NA,right,E13_Q7_ansL.png,E13_Q10_ansL.png,within,NA,NaN,NA,right,1593.5,1,0,1039
jAmS8la5,NA,NA,jAmS8la5,2020-0188,2021-09-21,22:18:55,23:16:29,NA,incomplete,false,NA,true,8,11,NA,left,E10_Q10_ansR.png,E13_Q3_ansR.png,between,NA,NaN,NA,left,1135.3999998569489,1,2,1167.6000001430511
jAmS8la5,NA,NA,jAmS8la5,2020-0188,2021-09-21,22:18:55,23:16:29,NA,incomplete,false,NA,true,8,12,NA,right,E13_Q10_ansL.png,E13_Q6_ansR.png,within,NA,NaN,NA,left,1599.3999998569489,0,0,1688.6000001430511
jAmS8la5,NA,NA,jAmS8la5,2020-0188,2021-09-21,22:18:55,23:16:29,NA,incomplete,false,NA,true,8,13,NA,left,E8_Q1_ansR.png,E8_Q6_ansL.png,within,NA,NaN,NA,right,2868.2000000476837,0,0,967.5
jAmS8la5,NA,NA,jAmS8la5,2020-0188,2021-09-21,22:18:55,23:16:29,NA,incomplete,false,NA,true,8,14,NA,left,E13_Q3_ansR.png,E13_Q9_ansR.png,within,NA,NaN,NA,right,2266.7000000476837,0,0,1183.9000000953674
jAmS8la5,NA,NA,jAmS8la5,2020-0188,2021-09-21,22:18:55,23:16:29,NA,incomplete,false,NA,true,8,15,NA,right,E13_Q5_ansR.png,E13_Q8_ansL.png,within,NA,NaN,NA,right,1193.2000000476837,1,0,1409.1000001430511
jAmS8la5,NA,NA,jAmS8la5,2020-0188,2021-09-21,22:18:55,23:16:29,NA,incomplete,false,NA,true,8,16,NA,left,E13_Q9_ansR.png,E13_Q4_ansR.png,within,NA,NaN,NA,left,3044.399999856949,1,0,927.1000001430511
jAmS8la5,NA,NA,jAmS8la5,2020-0188,2021-09-21,22:18:55,23:16:29,NA,incomplete,false,NA,true,8,17,NA,right,E10_Q5_ansR.png,E10_Q7_ansR.png,within,NA,NaN,NA,right,1857.6000001430511,1,0,752
jAmS8la5,NA,NA,jAmS8la5,2020-0188,2021-09-21,22:18:55,23:16:29,NA,incomplete,false,NA,true,8,18,NA,right,E10_Q1_ansL.png,E10_Q2_ansL.png,within,NA,NaN,NA,right,2138.5,1,1,1215.9000000953674
jAmS8la5,NA,NA,jAmS8la5,2020-0188,2021-09-21,22:18:55,23:16:29,NA,incomplete,false,NA,true,8,19,NA,right,E8_Q1_ansR.png,E8_Q4_ansL.png,within,NA,NaN,NA,right,3909.0999999046326,1,0,2593.7999999523163
jAmS8la5,NA,NA,jAmS8la5,2020-0188,2021-09-21,22:18:55,23:16:29,NA,incomplete,false,NA,true,8,20,NA,left,E8_Q9_ansL.png,E8_Q3_ansL.png,within,NA,NaN,NA,right,1641,0,0,1223.4000000953674
jAmS8la5,NA,NA,jAmS8la5,2020-0188,2021-09-21,22:18:55,23:16:29,NA,incomplete,false,NA,true,8,21,NA,left,E10_Q5_ansR.png,E10_Q10_ansR.png,within,NA,NaN,NA,right,2227.2000000476837,0,0,1279.5
jAmS8la5,NA,NA,jAmS8la5,2020-0188,2021-09-21,22:18:55,23:16:29,NA,incomplete,false,NA,true,8,22,NA,left,E8_Q8_ansR.png,E8_Q2_ansR.png,within,NA,NaN,NA,left,1825.7000000476837,1,0,1048.6000001430511
jAmS8la5,NA,NA,jAmS8la5,2020-0188,2021-09-21,22:18:55,23:16:29,NA,incomplete,false,NA,true,8,23,NA,right,E8_Q4_ansL.png,E13_Q7_ansL.png,between,NA,NaN,NA,right,1232.9000000953674,1,2,2408.5999999046326
jAmS8la5,NA,NA,jAmS8la5,2020-0188,2021-09-21,22:18:55,23:16:29,NA,incomplete,false,NA,true,8,24,NA,right,E10_Q6_ansR.png,E10_Q9_ansL.png,within,NA,NaN,NA,left,3235.5,0,0,1016
jAmS8la5,NA,NA,jAmS8la5,2020-0188,2021-09-21,22:18:55,23:16:29,NA,incomplete,false,NA,true,8,25,NA,right,E8_Q9_ansL.png,E8_Q5_ansL.png,within,NA,NaN,NA,right,1376.7000000476837,1,0,1335.2000000476837
jAmS8la5,NA,NA,jAmS8la5,2020-0188,2021-09-21,22:18:55,23:16:29,NA,incomplete,false,NA,true,8,26,NA,left,E13_Q2_ansL.png,E8_Q7_ansR.png,between,NA,NaN,NA,left,1232.5999999046326,1,2,1088.5999999046326
jAmS8la5,NA,NA,jAmS8la5,2020-0188,2021-09-21,22:18:55,23:16:29,NA,incomplete,false,true,NA,9,0,E24_Q8_ansR.png,right,NA,NA,NA,right,1527.5,true,NA,NA,NA,NA,NA
jAmS8la5,NA,NA,jAmS8la5,2020-0188,2021-09-21,22:18:55,23:16:29,NA,incomplete,false,true,NA,9,1,E24_Q2_ansR.png,right,NA,NA,NA,right,1041,true,NA,NA,NA,NA,NA
jAmS8la5,NA,NA,jAmS8la5,2020-0188,2021-09-21,22:18:55,23:16:29,NA,incomplete,false,true,NA,9,2,E24_Q5_ansL.png,left,NA,NA,NA,left,2014.5,true,NA,NA,NA,NA,NA
jAmS8la5,NA,NA,jAmS8la5,2020-0188,2021-09-21,22:18:55,23:16:29,NA,incomplete,false,true,NA,9,3,E24_Q1_ansR.png,right,NA,NA,NA,right,919.399999856949,true,NA,NA,NA,NA,NA
jAmS8la5,NA,NA,jAmS8la5,2020-0188,2021-09-21,22:18:55,23:16:29,NA,incomplete,false,true,NA,9,4,E24_Q3_ansL.png,left,NA,NA,NA,left,1470.30000019073,true,NA,NA,NA,NA,NA
jAmS8la5,NA,NA,jAmS8la5,2020-0188,2021-09-21,22:18:55,23:16:29,NA,incomplete,false,true,NA,9,5,E24_Q7_ansR.png,right,NA,NA,NA,right,962.799999952316,true,NA,NA,NA,NA,NA
jAmS8la5,NA,NA,jAmS8la5,2020-0188,2021-09-21,22:18:55,23:16:29,NA,incomplete,false,true,NA,9,6,E24_Q9_ansL.png,left,NA,NA,NA,left,1093.5,true,NA,NA,NA,NA,NA
jAmS8la5,NA,NA,jAmS8la5,2020-0188,2021-09-21,22:18:55,23:16:29,NA,incomplete,false,true,NA,9,7,E24_Q4_ansL.png,left,NA,NA,NA,left,1424.80000019073,true,NA,NA,NA,NA,NA
jAmS8la5,NA,NA,jAmS8la5,2020-0188,2021-09-21,22:18:55,23:16:29,NA,incomplete,false,true,NA,9,8,E24_Q10_ansR.png,right,NA,NA,NA,right,775.299999952316,true,NA,NA,NA,NA,NA
jAmS8la5,NA,NA,jAmS8la5,2020-0188,2021-09-21,22:18:55,23:16:29,NA,incomplete,false,true,NA,9,9,E24_Q6_ansL.png,left,NA,NA,NA,left,1035.5,true,NA,NA,NA,NA,NA
jAmS8la5,NA,NA,jAmS8la5,2020-0188,2021-09-21,22:18:55,23:16:29,NA,incomplete,false,true,NA,9,10,E4_Q3_ansL.png,left,NA,NA,NA,left,1992.20000004768,true,NA,NA,NA,NA,NA
jAmS8la5,NA,NA,jAmS8la5,2020-0188,2021-09-21,22:18:55,23:16:29,NA,incomplete,false,true,NA,9,11,E4_Q4_ansL.png,left,NA,NA,NA,right,1633.70000004768,false,NA,NA,NA,NA,NA
jAmS8la5,NA,NA,jAmS8la5,2020-0188,2021-09-21,22:18:55,23:16:29,NA,incomplete,false,true,NA,9,12,E4_Q10_ansR.png,right,NA,NA,NA,right,1326.90000009537,true,NA,NA,NA,NA,NA
jAmS8la5,NA,NA,jAmS8la5,2020-0188,2021-09-21,22:18:55,23:16:29,NA,incomplete,false,true,NA,9,13,E4_Q1_ansL.png,left,NA,NA,NA,left,1368,true,NA,NA,NA,NA,NA
jAmS8la5,NA,NA,jAmS8la5,2020-0188,2021-09-21,22:18:55,23:16:29,NA,incomplete,false,true,NA,9,14,E4_Q9_ansL.png,left,NA,NA,NA,left,1300.39999985695,true,NA,NA,NA,NA,NA
jAmS8la5,NA,NA,jAmS8la5,2020-0188,2021-09-21,22:18:55,23:16:29,NA,incomplete,false,true,NA,9,15,E4_Q5_ansR.png,right,NA,NA,NA,right,1207.90000009537,true,NA,NA,NA,NA,NA
jAmS8la5,NA,NA,jAmS8la5,2020-0188,2021-09-21,22:18:55,23:16:29,NA,incomplete,false,true,NA,9,16,E4_Q8_ansR.png,right,NA,NA,NA,right,1503.89999985695,true,NA,NA,NA,NA,NA
jAmS8la5,NA,NA,jAmS8la5,2020-0188,2021-09-21,22:18:55,23:16:29,NA,incomplete,false,true,NA,9,17,E4_Q6_ansR.png,right,NA,NA,NA,right,1430.70000004768,true,NA,NA,NA,NA,NA
jAmS8la5,NA,NA,jAmS8la5,2020-0188,2021-09-21,22:18:55,23:16:29,NA,incomplete,false,true,NA,9,18,E4_Q2_ansL.png,left,NA,NA,NA,left,1466.89999985695,true,NA,NA,NA,NA,NA
jAmS8la5,NA,NA,jAmS8la5,2020-0188,2021-09-21,22:18:55,23:16:29,NA,incomplete,false,true,NA,9,19,E4_Q7_ansR.png,right,NA,NA,NA,right,1530.80000019073,true,NA,NA,NA,NA,NA
jAmS8la5,NA,NA,jAmS8la5,2020-0188,2021-09-21,22:18:55,23:16:29,NA,incomplete,false,true,NA,9,20,E5_Q7_ansL.png,left,NA,NA,NA,left,1437.09999990463,true,NA,NA,NA,NA,NA
jAmS8la5,NA,NA,jAmS8la5,2020-0188,2021-09-21,22:18:55,23:16:29,NA,incomplete,false,true,NA,9,21,E5_Q8_ansL.png,left,NA,NA,NA,left,966.200000047684,true,NA,NA,NA,NA,NA
jAmS8la5,NA,NA,jAmS8la5,2020-0188,2021-09-21,22:18:55,23:16:29,NA,incomplete,false,true,NA,9,22,E5_Q2_ansL.png,left,NA,NA,NA,right,761.400000095367,false,NA,NA,NA,NA,NA
jAmS8la5,NA,NA,jAmS8la5,2020-0188,2021-09-21,22:18:55,23:16:29,NA,incomplete,false,true,NA,9,23,E5_Q3_ansR.png,right,NA,NA,NA,right,775.5,true,NA,NA,NA,NA,NA
jAmS8la5,NA,NA,jAmS8la5,2020-0188,2021-09-21,22:18:55,23:16:29,NA,incomplete,false,true,NA,9,24,E5_Q5_ansR.png,right,NA,NA,NA,right,1247.90000009537,true,NA,NA,NA,NA,NA
jAmS8la5,NA,NA,jAmS8la5,2020-0188,2021-09-21,22:18:55,23:16:29,NA,incomplete,false,true,NA,9,25,E5_Q10_ansR.png,right,NA,NA,NA,right,821.900000095367,true,NA,NA,NA,NA,NA
jAmS8la5,NA,NA,jAmS8la5,2020-0188,2021-09-21,22:18:55,23:16:29,NA,incomplete,false,true,NA,9,26,E5_Q1_ansL.png,left,NA,NA,NA,left,831,true,NA,NA,NA,NA,NA
jAmS8la5,NA,NA,jAmS8la5,2020-0188,2021-09-21,22:18:55,23:16:29,NA,incomplete,false,true,NA,9,27,E5_Q9_ansR.png,right,NA,NA,NA,right,1081.10000014305,true,NA,NA,NA,NA,NA
jAmS8la5,NA,NA,jAmS8la5,2020-0188,2021-09-21,22:18:55,23:16:29,NA,incomplete,false,true,NA,9,28,E5_Q6_ansR.png,right,NA,NA,NA,right,1852.70000004768,true,NA,NA,NA,NA,NA
jAmS8la5,NA,NA,jAmS8la5,2020-0188,2021-09-21,22:18:55,23:16:29,NA,incomplete,false,true,NA,9,29,E5_Q4_ansR.png,right,NA,NA,NA,right,1439.29999995232,true,NA,NA,NA,NA,NA
jAmS8la5,NA,NA,jAmS8la5,2020-0188,2021-09-21,22:18:55,23:16:29,NA,incomplete,false,NA,true,9,0,NA,right,E24_Q4_ansL.png,E24_Q3_ansL.png,within,NA,NaN,NA,left,3010.9000000953674,0,0,1263.5
jAmS8la5,NA,NA,jAmS8la5,2020-0188,2021-09-21,22:18:55,23:16:29,NA,incomplete,false,NA,true,9,1,NA,left,E5_Q7_ansL.png,E5_Q3_ansR.png,within,NA,NaN,NA,left,1464.5,1,0,886.7000000476837
jAmS8la5,NA,NA,jAmS8la5,2020-0188,2021-09-21,22:18:55,23:16:29,NA,incomplete,false,NA,true,9,2,NA,left,E24_Q6_ansL.png,E4_Q10_ansR.png,between,NA,NaN,NA,left,1161.7000000476837,1,1,1119.8000001907349
jAmS8la5,NA,NA,jAmS8la5,2020-0188,2021-09-21,22:18:55,23:16:29,NA,incomplete,false,NA,true,9,3,NA,left,E5_Q10_ansR.png,E5_Q6_ansR.png,within,NA,NaN,NA,right,2723.399999856949,0,0,975.2999999523163
jAmS8la5,NA,NA,jAmS8la5,2020-0188,2021-09-21,22:18:55,23:16:29,NA,incomplete,false,NA,true,9,4,NA,left,E5_Q1_ansL.png,E5_Q4_ansR.png,within,NA,NaN,NA,left,1536.7000000476837,1,0,951.4000000953674
jAmS8la5,NA,NA,jAmS8la5,2020-0188,2021-09-21,22:18:55,23:16:29,NA,incomplete,false,NA,true,9,5,NA,right,E24_Q6_ansL.png,E24_Q9_ansL.png,within,NA,NaN,NA,right,1435.5999999046326,1,0,1015.7999999523163
jAmS8la5,NA,NA,jAmS8la5,2020-0188,2021-09-21,22:18:55,23:16:29,NA,incomplete,false,NA,true,9,6,NA,left,E24_Q8_ansR.png,E24_Q1_ansR.png,within,NA,NaN,NA,left,1440.7000000476837,1,0,1759.7000000476837
jAmS8la5,NA,NA,jAmS8la5,2020-0188,2021-09-21,22:18:55,23:16:29,NA,incomplete,false,NA,true,9,7,NA,right,E24_Q7_ansR.png,E24_Q5_ansL.png,within,NA,NaN,NA,right,2377.899999856949,1,0,1207.2999999523163
jAmS8la5,NA,NA,jAmS8la5,2020-0188,2021-09-21,22:18:55,23:16:29,NA,incomplete,false,NA,true,9,8,NA,right,E5_Q5_ansR.png,E5_Q8_ansL.png,within,NA,NaN,NA,right,2105.5,1,0,1336.3999998569489
jAmS8la5,NA,NA,jAmS8la5,2020-0188,2021-09-21,22:18:55,23:16:29,NA,incomplete,false,NA,true,9,9,NA,right,E4_Q1_ansL.png,E4_Q3_ansL.png,within,NA,NaN,NA,right,2547.600000143051,1,0,992.5999999046326
jAmS8la5,NA,NA,jAmS8la5,2020-0188,2021-09-21,22:18:55,23:16:29,NA,incomplete,false,NA,true,9,10,NA,right,E4_Q3_ansL.png,E24_Q4_ansL.png,between,NA,NaN,NA,right,1009.6000001430511,1,1,1064.4000000953674
jAmS8la5,NA,NA,jAmS8la5,2020-0188,2021-09-21,22:18:55,23:16:29,NA,incomplete,false,NA,true,9,11,NA,right,E5_Q1_ansL.png,E5_Q3_ansR.png,within,NA,NaN,NA,right,1648.5,1,0,1194.5
