workerId,hitId,assignmentId,subject,studyid,exp_date,exp_start,exp_end,time_start,time_end,practice,encoding,memory,block,trial,stim,answer,left_image,right_image,condition,response,response_time,response_acc,order_response,order_response_time,order_acc,distance_response,distance_response_time
jQPtn2Br,NA,NA,jQPtn2Br,2020-0188,2021-09-25,09:24:25,10:22:39,NA,incomplete,true,true,NA,0,0,E7_Q9_ansR.png,right,NA,NA,NA,right,1123,true,NA,NA,NA,NA,NA
jQPtn2Br,NA,NA,jQPtn2Br,2020-0188,2021-09-25,09:24:25,10:22:39,NA,incomplete,true,true,NA,0,1,E7_Q8_ansL.png,left,NA,NA,NA,left,1050,true,NA,NA,NA,NA,NA
jQPtn2Br,NA,NA,jQPtn2Br,2020-0188,2021-09-25,09:24:25,10:22:39,NA,incomplete,true,true,NA,0,2,E7_Q5_ansR.png,right,NA,NA,NA,right,1672,true,NA,NA,NA,NA,NA
jQPtn2Br,NA,NA,jQPtn2Br,2020-0188,2021-09-25,09:24:25,10:22:39,NA,incomplete,true,true,NA,0,3,E7_Q10_ansR.png,right,NA,NA,NA,right,2032,true,NA,NA,NA,NA,NA
jQPtn2Br,NA,NA,jQPtn2Br,2020-0188,2021-09-25,09:24:25,10:22:39,NA,incomplete,true,true,NA,0,4,E7_Q3_ansR.png,right,NA,NA,NA,right,1192,true,NA,NA,NA,NA,NA
jQPtn2Br,NA,NA,jQPtn2Br,2020-0188,2021-09-25,09:24:25,10:22:39,NA,incomplete,true,true,NA,0,5,E7_Q4_ansR.png,right,NA,NA,NA,right,2084,true,NA,NA,NA,NA,NA
jQPtn2Br,NA,NA,jQPtn2Br,2020-0188,2021-09-25,09:24:25,10:22:39,NA,incomplete,true,true,NA,0,6,E7_Q6_ansR.png,right,NA,NA,NA,right,1554,true,NA,NA,NA,NA,NA
jQPtn2Br,NA,NA,jQPtn2Br,2020-0188,2021-09-25,09:24:25,10:22:39,NA,incomplete,true,true,NA,0,7,E7_Q7_ansL.png,left,NA,NA,NA,left,1437,true,NA,NA,NA,NA,NA
jQPtn2Br,NA,NA,jQPtn2Br,2020-0188,2021-09-25,09:24:25,10:22:39,NA,incomplete,true,true,NA,0,8,E7_Q1_ansL.png,left,NA,NA,NA,right,960.999999999985,false,NA,NA,NA,NA,NA
jQPtn2Br,NA,NA,jQPtn2Br,2020-0188,2021-09-25,09:24:25,10:22:39,NA,incomplete,true,true,NA,0,9,E7_Q2_ansL.png,left,NA,NA,NA,right,1065,false,NA,NA,NA,NA,NA
jQPtn2Br,NA,NA,jQPtn2Br,2020-0188,2021-09-25,09:24:25,10:22:39,NA,incomplete,true,true,NA,0,10,E8_Q4_ansL.png,left,NA,NA,NA,left,1615,true,NA,NA,NA,NA,NA
jQPtn2Br,NA,NA,jQPtn2Br,2020-0188,2021-09-25,09:24:25,10:22:39,NA,incomplete,true,true,NA,0,11,E8_Q8_ansR.png,right,NA,NA,NA,right,1479,true,NA,NA,NA,NA,NA
jQPtn2Br,NA,NA,jQPtn2Br,2020-0188,2021-09-25,09:24:25,10:22:39,NA,incomplete,true,true,NA,0,12,E8_Q3_ansL.png,left,NA,NA,NA,left,951,true,NA,NA,NA,NA,NA
jQPtn2Br,NA,NA,jQPtn2Br,2020-0188,2021-09-25,09:24:25,10:22:39,NA,incomplete,true,true,NA,0,13,E8_Q5_ansL.png,left,NA,NA,NA,left,1556,true,NA,NA,NA,NA,NA
jQPtn2Br,NA,NA,jQPtn2Br,2020-0188,2021-09-25,09:24:25,10:22:39,NA,incomplete,true,true,NA,0,14,E8_Q7_ansR.png,right,NA,NA,NA,right,1525.00000000003,true,NA,NA,NA,NA,NA
jQPtn2Br,NA,NA,jQPtn2Br,2020-0188,2021-09-25,09:24:25,10:22:39,NA,incomplete,true,true,NA,0,15,E8_Q9_ansL.png,left,NA,NA,NA,left,1010.00000000003,true,NA,NA,NA,NA,NA
jQPtn2Br,NA,NA,jQPtn2Br,2020-0188,2021-09-25,09:24:25,10:22:39,NA,incomplete,true,true,NA,0,16,E8_Q2_ansR.png,right,NA,NA,NA,right,1798,true,NA,NA,NA,NA,NA
jQPtn2Br,NA,NA,jQPtn2Br,2020-0188,2021-09-25,09:24:25,10:22:39,NA,incomplete,true,true,NA,0,17,E8_Q1_ansR.png,right,NA,NA,NA,right,1466,true,NA,NA,NA,NA,NA
jQPtn2Br,NA,NA,jQPtn2Br,2020-0188,2021-09-25,09:24:25,10:22:39,NA,incomplete,true,true,NA,0,18,E8_Q10_ansR.png,right,NA,NA,NA,right,1874,true,NA,NA,NA,NA,NA
jQPtn2Br,NA,NA,jQPtn2Br,2020-0188,2021-09-25,09:24:25,10:22:39,NA,incomplete,true,true,NA,0,19,E8_Q6_ansL.png,left,NA,NA,NA,left,1824.00000000003,true,NA,NA,NA,NA,NA
jQPtn2Br,NA,NA,jQPtn2Br,2020-0188,2021-09-25,09:24:25,10:22:39,NA,incomplete,true,true,NA,0,20,E17_Q7_ansL.png,left,NA,NA,NA,left,1885,true,NA,NA,NA,NA,NA
jQPtn2Br,NA,NA,jQPtn2Br,2020-0188,2021-09-25,09:24:25,10:22:39,NA,incomplete,true,true,NA,0,21,E17_Q9_ansR.png,right,NA,NA,NA,right,1292,true,NA,NA,NA,NA,NA
jQPtn2Br,NA,NA,jQPtn2Br,2020-0188,2021-09-25,09:24:25,10:22:39,NA,incomplete,true,true,NA,0,22,E17_Q2_ansL.png,left,NA,NA,NA,left,2467,true,NA,NA,NA,NA,NA
jQPtn2Br,NA,NA,jQPtn2Br,2020-0188,2021-09-25,09:24:25,10:22:39,NA,incomplete,true,true,NA,0,23,E17_Q1_ansL.png,left,NA,NA,NA,left,1575,true,NA,NA,NA,NA,NA
jQPtn2Br,NA,NA,jQPtn2Br,2020-0188,2021-09-25,09:24:25,10:22:39,NA,incomplete,true,true,NA,0,24,E17_Q10_ansL.png,left,NA,NA,NA,left,927,true,NA,NA,NA,NA,NA
jQPtn2Br,NA,NA,jQPtn2Br,2020-0188,2021-09-25,09:24:25,10:22:39,NA,incomplete,true,true,NA,0,25,E17_Q8_ansL.png,left,NA,NA,NA,left,1431.00000000003,true,NA,NA,NA,NA,NA
jQPtn2Br,NA,NA,jQPtn2Br,2020-0188,2021-09-25,09:24:25,10:22:39,NA,incomplete,true,true,NA,0,26,E17_Q3_ansR.png,right,NA,NA,NA,right,957.999999999971,true,NA,NA,NA,NA,NA
jQPtn2Br,NA,NA,jQPtn2Br,2020-0188,2021-09-25,09:24:25,10:22:39,NA,incomplete,true,true,NA,0,27,E17_Q6_ansR.png,right,NA,NA,NA,right,967,true,NA,NA,NA,NA,NA
jQPtn2Br,NA,NA,jQPtn2Br,2020-0188,2021-09-25,09:24:25,10:22:39,NA,incomplete,true,true,NA,0,28,E17_Q5_ansR.png,right,NA,NA,NA,right,1013.99999999997,true,NA,NA,NA,NA,NA
jQPtn2Br,NA,NA,jQPtn2Br,2020-0188,2021-09-25,09:24:25,10:22:39,NA,incomplete,true,true,NA,0,29,E17_Q4_ansR.png,right,NA,NA,NA,right,1022.00000000003,true,NA,NA,NA,NA,NA
jQPtn2Br,NA,NA,jQPtn2Br,2020-0188,2021-09-25,09:24:25,10:22:39,NA,incomplete,true,NA,true,0,0,NA,left,E8_Q1_ansR.png,E17_Q7_ansL.png,between,NA,NaN,NA,left,2864,1,1,3935
jQPtn2Br,NA,NA,jQPtn2Br,2020-0188,2021-09-25,09:24:25,10:22:39,NA,incomplete,true,NA,true,0,1,NA,right,E17_Q4_ansR.png,E17_Q3_ansR.png,within,NA,NaN,NA,right,3231,1,0,2635.000000000058
jQPtn2Br,NA,NA,jQPtn2Br,2020-0188,2021-09-25,09:24:25,10:22:39,NA,incomplete,true,NA,true,0,2,NA,right,E8_Q6_ansL.png,E8_Q2_ansR.png,within,NA,NaN,NA,left,3006,0,2,5102
jQPtn2Br,NA,NA,jQPtn2Br,2020-0188,2021-09-25,09:24:25,10:22:39,NA,incomplete,true,NA,true,0,3,NA,right,E7_Q4_ansR.png,E7_Q5_ansR.png,within,NA,NaN,NA,right,5225,1,1,2054
jQPtn2Br,NA,NA,jQPtn2Br,2020-0188,2021-09-25,09:24:25,10:22:39,NA,incomplete,true,NA,true,0,4,NA,right,E8_Q7_ansR.png,E8_Q8_ansR.png,within,NA,NaN,NA,right,2837,1,2,3630
jQPtn2Br,NA,NA,jQPtn2Br,2020-0188,2021-09-25,09:24:25,10:22:39,NA,incomplete,true,NA,true,0,5,NA,right,E17_Q8_ansL.png,E17_Q2_ansL.png,within,NA,NaN,NA,right,2877.000000000058,1,1,1875
jQPtn2Br,NA,NA,jQPtn2Br,2020-0188,2021-09-25,09:24:25,10:22:39,NA,incomplete,true,NA,true,0,6,NA,right,E7_Q1_ansL.png,E7_Q4_ansR.png,within,NA,NaN,NA,right,1932,1,2,1015.0000000000582
jQPtn2Br,NA,NA,jQPtn2Br,2020-0188,2021-09-25,09:24:25,10:22:39,NA,incomplete,true,NA,true,0,7,NA,right,E17_Q5_ansR.png,E17_Q8_ansL.png,within,NA,NaN,NA,left,2331,0,1,1539.9999999999418
jQPtn2Br,NA,NA,jQPtn2Br,2020-0188,2021-09-25,09:24:25,10:22:39,NA,incomplete,true,NA,true,0,8,NA,right,E8_Q1_ansR.png,E8_Q7_ansR.png,within,NA,NaN,NA,left,2838.000000000058,0,1,1315
jQPtn2Br,NA,NA,jQPtn2Br,2020-0188,2021-09-25,09:24:25,10:22:39,NA,incomplete,true,NA,true,0,9,NA,right,E17_Q1_ansL.png,E17_Q7_ansL.png,within,NA,NaN,NA,right,3001,1,1,1068
jQPtn2Br,NA,NA,jQPtn2Br,2020-0188,2021-09-25,09:24:25,10:22:39,NA,incomplete,true,NA,true,0,10,NA,left,E7_Q3_ansR.png,E7_Q7_ansL.png,within,NA,NaN,NA,left,3948,1,1,2684
jQPtn2Br,NA,NA,jQPtn2Br,2020-0188,2021-09-25,09:24:25,10:22:39,NA,incomplete,true,NA,true,0,11,NA,left,E7_Q6_ansR.png,E7_Q2_ansL.png,within,NA,NaN,NA,right,2350,0,1,1001
jQPtn2Br,NA,NA,jQPtn2Br,2020-0188,2021-09-25,09:24:25,10:22:39,NA,incomplete,true,NA,true,0,12,NA,left,E7_Q1_ansL.png,E8_Q8_ansR.png,between,NA,NaN,NA,right,3679,0,2,1117
jQPtn2Br,NA,NA,jQPtn2Br,2020-0188,2021-09-25,09:24:25,10:22:39,NA,incomplete,true,NA,true,0,13,NA,right,E8_Q2_ansR.png,E8_Q5_ansL.png,within,NA,NaN,NA,right,2449,1,1,1427
jQPtn2Br,NA,NA,jQPtn2Br,2020-0188,2021-09-25,09:24:25,10:22:39,NA,incomplete,true,NA,true,0,14,NA,right,E17_Q9_ansR.png,E8_Q10_ansR.png,between,NA,NaN,NA,right,2203,1,2,1035
jQPtn2Br,NA,NA,jQPtn2Br,2020-0188,2021-09-25,09:24:25,10:22:39,NA,incomplete,true,NA,true,0,15,NA,right,E17_Q2_ansL.png,E8_Q6_ansL.png,between,NA,NaN,NA,right,1830,1,3,2112
jQPtn2Br,NA,NA,jQPtn2Br,2020-0188,2021-09-25,09:24:25,10:22:39,NA,incomplete,true,NA,true,0,16,NA,left,E17_Q1_ansL.png,E17_Q3_ansR.png,within,NA,NaN,NA,left,5072.000000000058,1,1,1183
jQPtn2Br,NA,NA,jQPtn2Br,2020-0188,2021-09-25,09:24:25,10:22:39,NA,incomplete,true,NA,true,0,17,NA,left,E7_Q10_ansR.png,E7_Q6_ansR.png,within,NA,NaN,NA,left,2010,1,1,886
jQPtn2Br,NA,NA,jQPtn2Br,2020-0188,2021-09-25,09:24:25,10:22:39,NA,incomplete,true,NA,true,0,18,NA,left,E17_Q9_ansR.png,E17_Q10_ansL.png,within,NA,NaN,NA,left,2451,1,1,1042.9999999999418
jQPtn2Br,NA,NA,jQPtn2Br,2020-0188,2021-09-25,09:24:25,10:22:39,NA,incomplete,true,NA,true,0,19,NA,right,E8_Q5_ansL.png,E8_Q4_ansL.png,within,NA,NaN,NA,right,2991,1,2,1100
jQPtn2Br,NA,NA,jQPtn2Br,2020-0188,2021-09-25,09:24:25,10:22:39,NA,incomplete,true,NA,true,0,20,NA,left,E17_Q10_ansL.png,E17_Q6_ansR.png,within,NA,NaN,NA,right,1842,0,1,1217
jQPtn2Br,NA,NA,jQPtn2Br,2020-0188,2021-09-25,09:24:25,10:22:39,NA,incomplete,true,NA,true,0,21,NA,right,E8_Q4_ansL.png,E7_Q7_ansL.png,between,NA,NaN,NA,left,1581,0,1,1034
jQPtn2Br,NA,NA,jQPtn2Br,2020-0188,2021-09-25,09:24:25,10:22:39,NA,incomplete,true,NA,true,0,22,NA,left,E8_Q9_ansL.png,E8_Q10_ansR.png,within,NA,NaN,NA,left,1719.0000000000582,1,2,1228
jQPtn2Br,NA,NA,jQPtn2Br,2020-0188,2021-09-25,09:24:25,10:22:39,NA,incomplete,true,NA,true,0,23,NA,left,E7_Q8_ansL.png,E7_Q3_ansR.png,within,NA,NaN,NA,left,2800,1,1,1310
jQPtn2Br,NA,NA,jQPtn2Br,2020-0188,2021-09-25,09:24:25,10:22:39,NA,incomplete,true,NA,true,0,24,NA,left,E8_Q3_ansL.png,E8_Q9_ansL.png,within,NA,NaN,NA,right,2481,0,0,1933
jQPtn2Br,NA,NA,jQPtn2Br,2020-0188,2021-09-25,09:24:25,10:22:39,NA,incomplete,true,NA,true,0,25,NA,right,E7_Q10_ansR.png,E7_Q9_ansR.png,within,NA,NaN,NA,left,2796.000000000058,0,1,1056
jQPtn2Br,NA,NA,jQPtn2Br,2020-0188,2021-09-25,09:24:25,10:22:39,NA,incomplete,true,NA,true,0,26,NA,left,E7_Q2_ansL.png,E8_Q3_ansL.png,between,NA,NaN,NA,right,2359,0,2,1215
jQPtn2Br,NA,NA,jQPtn2Br,2020-0188,2021-09-25,09:24:25,10:22:39,NA,incomplete,false,true,NA,1,0,E25_Q2_ansR.png,right,NA,NA,NA,right,1741.00000000006,true,NA,NA,NA,NA,NA
jQPtn2Br,NA,NA,jQPtn2Br,2020-0188,2021-09-25,09:24:25,10:22:39,NA,incomplete,false,true,NA,1,1,E25_Q9_ansL.png,left,NA,NA,NA,left,1643,true,NA,NA,NA,NA,NA
jQPtn2Br,NA,NA,jQPtn2Br,2020-0188,2021-09-25,09:24:25,10:22:39,NA,incomplete,false,true,NA,1,2,E25_Q8_ansR.png,right,NA,NA,NA,right,1787,true,NA,NA,NA,NA,NA
jQPtn2Br,NA,NA,jQPtn2Br,2020-0188,2021-09-25,09:24:25,10:22:39,NA,incomplete,false,true,NA,1,3,E25_Q1_ansR.png,right,NA,NA,NA,right,1148,true,NA,NA,NA,NA,NA
jQPtn2Br,NA,NA,jQPtn2Br,2020-0188,2021-09-25,09:24:25,10:22:39,NA,incomplete,false,true,NA,1,4,E25_Q3_ansL.png,left,NA,NA,NA,left,1721,true,NA,NA,NA,NA,NA
jQPtn2Br,NA,NA,jQPtn2Br,2020-0188,2021-09-25,09:24:25,10:22:39,NA,incomplete,false,true,NA,1,5,E25_Q6_ansL.png,left,NA,NA,NA,left,1360.99999999994,true,NA,NA,NA,NA,NA
jQPtn2Br,NA,NA,jQPtn2Br,2020-0188,2021-09-25,09:24:25,10:22:39,NA,incomplete,false,true,NA,1,6,E25_Q10_ansR.png,right,NA,NA,NA,right,1598.99999999994,true,NA,NA,NA,NA,NA
jQPtn2Br,NA,NA,jQPtn2Br,2020-0188,2021-09-25,09:24:25,10:22:39,NA,incomplete,false,true,NA,1,7,E25_Q7_ansR.png,right,NA,NA,NA,right,1647,true,NA,NA,NA,NA,NA
jQPtn2Br,NA,NA,jQPtn2Br,2020-0188,2021-09-25,09:24:25,10:22:39,NA,incomplete,false,true,NA,1,8,E25_Q4_ansL.png,left,NA,NA,NA,left,1443,true,NA,NA,NA,NA,NA
jQPtn2Br,NA,NA,jQPtn2Br,2020-0188,2021-09-25,09:24:25,10:22:39,NA,incomplete,false,true,NA,1,9,E25_Q5_ansL.png,left,NA,NA,NA,left,2588,true,NA,NA,NA,NA,NA
jQPtn2Br,NA,NA,jQPtn2Br,2020-0188,2021-09-25,09:24:25,10:22:39,NA,incomplete,false,true,NA,1,10,E21_Q3_ansR.png,right,NA,NA,NA,right,1743,true,NA,NA,NA,NA,NA
jQPtn2Br,NA,NA,jQPtn2Br,2020-0188,2021-09-25,09:24:25,10:22:39,NA,incomplete,false,true,NA,1,11,E21_Q9_ansR.png,right,NA,NA,NA,right,1349,true,NA,NA,NA,NA,NA
jQPtn2Br,NA,NA,jQPtn2Br,2020-0188,2021-09-25,09:24:25,10:22:39,NA,incomplete,false,true,NA,1,12,E21_Q7_ansL.png,left,NA,NA,NA,left,993,true,NA,NA,NA,NA,NA
jQPtn2Br,NA,NA,jQPtn2Br,2020-0188,2021-09-25,09:24:25,10:22:39,NA,incomplete,false,true,NA,1,13,E21_Q6_ansR.png,right,NA,NA,NA,right,1167,true,NA,NA,NA,NA,NA
jQPtn2Br,NA,NA,jQPtn2Br,2020-0188,2021-09-25,09:24:25,10:22:39,NA,incomplete,false,true,NA,1,14,E21_Q2_ansL.png,left,NA,NA,NA,left,976,true,NA,NA,NA,NA,NA
jQPtn2Br,NA,NA,jQPtn2Br,2020-0188,2021-09-25,09:24:25,10:22:39,NA,incomplete,false,true,NA,1,15,E21_Q5_ansR.png,right,NA,NA,NA,right,1005,true,NA,NA,NA,NA,NA
jQPtn2Br,NA,NA,jQPtn2Br,2020-0188,2021-09-25,09:24:25,10:22:39,NA,incomplete,false,true,NA,1,16,E21_Q8_ansL.png,left,NA,NA,NA,left,1265.99999999994,true,NA,NA,NA,NA,NA
jQPtn2Br,NA,NA,jQPtn2Br,2020-0188,2021-09-25,09:24:25,10:22:39,NA,incomplete,false,true,NA,1,17,E21_Q10_ansL.png,left,NA,NA,NA,left,1213.99999999994,true,NA,NA,NA,NA,NA
jQPtn2Br,NA,NA,jQPtn2Br,2020-0188,2021-09-25,09:24:25,10:22:39,NA,incomplete,false,true,NA,1,18,E21_Q1_ansL.png,left,NA,NA,NA,left,1558,true,NA,NA,NA,NA,NA
jQPtn2Br,NA,NA,jQPtn2Br,2020-0188,2021-09-25,09:24:25,10:22:39,NA,incomplete,false,true,NA,1,19,E21_Q4_ansR.png,right,NA,NA,NA,right,1579,true,NA,NA,NA,NA,NA
jQPtn2Br,NA,NA,jQPtn2Br,2020-0188,2021-09-25,09:24:25,10:22:39,NA,incomplete,false,true,NA,1,20,E9_Q9_ansL.png,left,NA,NA,NA,left,1661,true,NA,NA,NA,NA,NA
jQPtn2Br,NA,NA,jQPtn2Br,2020-0188,2021-09-25,09:24:25,10:22:39,NA,incomplete,false,true,NA,1,21,E9_Q10_ansR.png,right,NA,NA,NA,right,1709,true,NA,NA,NA,NA,NA
jQPtn2Br,NA,NA,jQPtn2Br,2020-0188,2021-09-25,09:24:25,10:22:39,NA,incomplete,false,true,NA,1,22,E9_Q8_ansR.png,right,NA,NA,NA,right,1524.99999999988,true,NA,NA,NA,NA,NA
jQPtn2Br,NA,NA,jQPtn2Br,2020-0188,2021-09-25,09:24:25,10:22:39,NA,incomplete,false,true,NA,1,23,E9_Q5_ansL.png,left,NA,NA,NA,left,1653.99999999988,true,NA,NA,NA,NA,NA
jQPtn2Br,NA,NA,jQPtn2Br,2020-0188,2021-09-25,09:24:25,10:22:39,NA,incomplete,false,true,NA,1,24,E9_Q2_ansR.png,right,NA,NA,NA,right,1444.99999999988,true,NA,NA,NA,NA,NA
jQPtn2Br,NA,NA,jQPtn2Br,2020-0188,2021-09-25,09:24:25,10:22:39,NA,incomplete,false,true,NA,1,25,E9_Q7_ansR.png,right,NA,NA,NA,right,1144,true,NA,NA,NA,NA,NA
jQPtn2Br,NA,NA,jQPtn2Br,2020-0188,2021-09-25,09:24:25,10:22:39,NA,incomplete,false,true,NA,1,26,E9_Q3_ansL.png,left,NA,NA,NA,left,1415,true,NA,NA,NA,NA,NA
jQPtn2Br,NA,NA,jQPtn2Br,2020-0188,2021-09-25,09:24:25,10:22:39,NA,incomplete,false,true,NA,1,27,E9_Q4_ansL.png,left,NA,NA,NA,left,1239,true,NA,NA,NA,NA,NA
jQPtn2Br,NA,NA,jQPtn2Br,2020-0188,2021-09-25,09:24:25,10:22:39,NA,incomplete,false,true,NA,1,28,E9_Q6_ansL.png,left,NA,NA,NA,left,2400,true,NA,NA,NA,NA,NA
jQPtn2Br,NA,NA,jQPtn2Br,2020-0188,2021-09-25,09:24:25,10:22:39,NA,incomplete,false,true,NA,1,29,E9_Q1_ansR.png,right,NA,NA,NA,right,1151,true,NA,NA,NA,NA,NA
jQPtn2Br,NA,NA,jQPtn2Br,2020-0188,2021-09-25,09:24:25,10:22:39,NA,incomplete,false,NA,true,1,0,NA,right,E21_Q9_ansR.png,E25_Q4_ansL.png,between,NA,NaN,NA,right,1794,1,1,1055
jQPtn2Br,NA,NA,jQPtn2Br,2020-0188,2021-09-25,09:24:25,10:22:39,NA,incomplete,false,NA,true,1,1,NA,right,E9_Q7_ansR.png,E9_Q8_ansR.png,within,NA,NaN,NA,right,4083,1,3,1268
jQPtn2Br,NA,NA,jQPtn2Br,2020-0188,2021-09-25,09:24:25,10:22:39,NA,incomplete,false,NA,true,1,2,NA,right,E9_Q2_ansR.png,E9_Q10_ansR.png,within,NA,NaN,NA,right,3453,1,1,888
jQPtn2Br,NA,NA,jQPtn2Br,2020-0188,2021-09-25,09:24:25,10:22:39,NA,incomplete,false,NA,true,1,3,NA,right,E9_Q9_ansL.png,E21_Q10_ansL.png,between,NA,NaN,NA,right,1965,1,1,1101
jQPtn2Br,NA,NA,jQPtn2Br,2020-0188,2021-09-25,09:24:25,10:22:39,NA,incomplete,false,NA,true,1,4,NA,left,E25_Q7_ansR.png,E21_Q3_ansR.png,between,NA,NaN,NA,left,3382,1,2,1057
jQPtn2Br,NA,NA,jQPtn2Br,2020-0188,2021-09-25,09:24:25,10:22:39,NA,incomplete,false,NA,true,1,5,NA,left,E21_Q3_ansR.png,E21_Q6_ansR.png,within,NA,NaN,NA,left,2157,1,1,869
jQPtn2Br,NA,NA,jQPtn2Br,2020-0188,2021-09-25,09:24:25,10:22:39,NA,incomplete,false,NA,true,1,6,NA,left,E25_Q3_ansL.png,E25_Q7_ansR.png,within,NA,NaN,NA,left,3986,1,0,2484
jQPtn2Br,NA,NA,jQPtn2Br,2020-0188,2021-09-25,09:24:25,10:22:39,NA,incomplete,false,NA,true,1,7,NA,left,E21_Q2_ansL.png,E21_Q10_ansL.png,within,NA,NaN,NA,left,2336,1,1,822
jQPtn2Br,NA,NA,jQPtn2Br,2020-0188,2021-09-25,09:24:25,10:22:39,NA,incomplete,false,NA,true,1,8,NA,left,E25_Q10_ansR.png,E25_Q5_ansL.png,within,NA,NaN,NA,left,2561.9999999998836,1,1,1213
jQPtn2Br,NA,NA,jQPtn2Br,2020-0188,2021-09-25,09:24:25,10:22:39,NA,incomplete,false,NA,true,1,9,NA,left,E25_Q6_ansL.png,E25_Q4_ansL.png,within,NA,NaN,NA,left,2236,1,1,1718.9999999998836
jQPtn2Br,NA,NA,jQPtn2Br,2020-0188,2021-09-25,09:24:25,10:22:39,NA,incomplete,false,NA,true,1,10,NA,right,E9_Q4_ansL.png,E9_Q2_ansR.png,within,NA,NaN,NA,right,2077,1,1,1068
jQPtn2Br,NA,NA,jQPtn2Br,2020-0188,2021-09-25,09:24:25,10:22:39,NA,incomplete,false,NA,true,1,11,NA,right,E9_Q5_ansL.png,E9_Q9_ansL.png,within,NA,NaN,NA,right,2591,1,2,1303
jQPtn2Br,NA,NA,jQPtn2Br,2020-0188,2021-09-25,09:24:25,10:22:39,NA,incomplete,false,NA,true,1,12,NA,right,E25_Q3_ansL.png,E25_Q9_ansL.png,within,NA,NaN,NA,right,2478.0000000001164,1,1,975
jQPtn2Br,NA,NA,jQPtn2Br,2020-0188,2021-09-25,09:24:25,10:22:39,NA,incomplete,false,NA,true,1,13,NA,left,E21_Q4_ansR.png,E9_Q8_ansR.png,between,NA,NaN,NA,left,2643,1,2,776.0000000001164
jQPtn2Br,NA,NA,jQPtn2Br,2020-0188,2021-09-25,09:24:25,10:22:39,NA,incomplete,false,NA,true,1,14,NA,left,E25_Q5_ansL.png,E21_Q7_ansL.png,between,NA,NaN,NA,left,2272,1,3,935
jQPtn2Br,NA,NA,jQPtn2Br,2020-0188,2021-09-25,09:24:25,10:22:39,NA,incomplete,false,NA,true,1,15,NA,right,E9_Q6_ansL.png,E9_Q7_ansR.png,within,NA,NaN,NA,left,3925,0,2,1257
jQPtn2Br,NA,NA,jQPtn2Br,2020-0188,2021-09-25,09:24:25,10:22:39,NA,incomplete,false,NA,true,1,16,NA,right,E9_Q10_ansR.png,E21_Q1_ansL.png,between,NA,NaN,NA,right,2248,1,2,2767
jQPtn2Br,NA,NA,jQPtn2Br,2020-0188,2021-09-25,09:24:25,10:22:39,NA,incomplete,false,NA,true,1,17,NA,right,E21_Q5_ansR.png,E21_Q7_ansL.png,within,NA,NaN,NA,right,3746,1,1,1474
jQPtn2Br,NA,NA,jQPtn2Br,2020-0188,2021-09-25,09:24:25,10:22:39,NA,incomplete,false,NA,true,1,18,NA,left,E21_Q6_ansR.png,E21_Q8_ansL.png,within,NA,NaN,NA,left,2651.0000000001164,1,1,807
jQPtn2Br,NA,NA,jQPtn2Br,2020-0188,2021-09-25,09:24:25,10:22:39,NA,incomplete,false,NA,true,1,19,NA,left,E25_Q1_ansR.png,E25_Q10_ansR.png,within,NA,NaN,NA,left,2844,1,1,1010
jQPtn2Br,NA,NA,jQPtn2Br,2020-0188,2021-09-25,09:24:25,10:22:39,NA,incomplete,false,NA,true,1,20,NA,right,E21_Q1_ansL.png,E21_Q5_ansR.png,within,NA,NaN,NA,left,2518,0,2,775
jQPtn2Br,NA,NA,jQPtn2Br,2020-0188,2021-09-25,09:24:25,10:22:39,NA,incomplete,false,NA,true,1,21,NA,right,E9_Q3_ansL.png,E9_Q5_ansL.png,within,NA,NaN,NA,left,2754.0000000001164,0,1,1201
jQPtn2Br,NA,NA,jQPtn2Br,2020-0188,2021-09-25,09:24:25,10:22:39,NA,incomplete,false,NA,true,1,22,NA,left,E21_Q8_ansL.png,E21_Q4_ansR.png,within,NA,NaN,NA,right,1416,0,2,1448.9999999998836
jQPtn2Br,NA,NA,jQPtn2Br,2020-0188,2021-09-25,09:24:25,10:22:39,NA,incomplete,false,NA,true,1,23,NA,right,E25_Q6_ansL.png,E25_Q8_ansR.png,within,NA,NaN,NA,left,2002,0,1,1260.9999999998836
jQPtn2Br,NA,NA,jQPtn2Br,2020-0188,2021-09-25,09:24:25,10:22:39,NA,incomplete,false,NA,true,1,24,NA,right,E9_Q1_ansR.png,E9_Q3_ansL.png,within,NA,NaN,NA,left,2980,0,1,1012.0000000001164
jQPtn2Br,NA,NA,jQPtn2Br,2020-0188,2021-09-25,09:24:25,10:22:39,NA,incomplete,false,NA,true,1,25,NA,right,E25_Q1_ansR.png,E25_Q2_ansR.png,within,NA,NaN,NA,right,1560,1,1,1294
jQPtn2Br,NA,NA,jQPtn2Br,2020-0188,2021-09-25,09:24:25,10:22:39,NA,incomplete,false,NA,true,1,26,NA,left,E21_Q9_ansR.png,E21_Q2_ansL.png,within,NA,NaN,NA,left,2375,1,1,1269
jQPtn2Br,NA,NA,jQPtn2Br,2020-0188,2021-09-25,09:24:25,10:22:39,NA,incomplete,false,true,NA,2,0,E28_Q2_ansR.png,right,NA,NA,NA,right,1992,true,NA,NA,NA,NA,NA
jQPtn2Br,NA,NA,jQPtn2Br,2020-0188,2021-09-25,09:24:25,10:22:39,NA,incomplete,false,true,NA,2,1,E28_Q1_ansR.png,right,NA,NA,NA,right,1894,true,NA,NA,NA,NA,NA
jQPtn2Br,NA,NA,jQPtn2Br,2020-0188,2021-09-25,09:24:25,10:22:39,NA,incomplete,false,true,NA,2,2,E28_Q4_ansL.png,left,NA,NA,NA,left,1961,true,NA,NA,NA,NA,NA
jQPtn2Br,NA,NA,jQPtn2Br,2020-0188,2021-09-25,09:24:25,10:22:39,NA,incomplete,false,true,NA,2,3,E28_Q3_ansL.png,left,NA,NA,NA,left,1181.00000000012,true,NA,NA,NA,NA,NA
jQPtn2Br,NA,NA,jQPtn2Br,2020-0188,2021-09-25,09:24:25,10:22:39,NA,incomplete,false,true,NA,2,4,E28_Q6_ansL.png,left,NA,NA,NA,left,1611,true,NA,NA,NA,NA,NA
jQPtn2Br,NA,NA,jQPtn2Br,2020-0188,2021-09-25,09:24:25,10:22:39,NA,incomplete,false,true,NA,2,5,E28_Q9_ansL.png,left,NA,NA,NA,left,1254,true,NA,NA,NA,NA,NA
jQPtn2Br,NA,NA,jQPtn2Br,2020-0188,2021-09-25,09:24:25,10:22:39,NA,incomplete,false,true,NA,2,6,E28_Q8_ansR.png,right,NA,NA,NA,right,1925.00000000012,true,NA,NA,NA,NA,NA
jQPtn2Br,NA,NA,jQPtn2Br,2020-0188,2021-09-25,09:24:25,10:22:39,NA,incomplete,false,true,NA,2,7,E28_Q7_ansR.png,right,NA,NA,NA,right,2036,true,NA,NA,NA,NA,NA
jQPtn2Br,NA,NA,jQPtn2Br,2020-0188,2021-09-25,09:24:25,10:22:39,NA,incomplete,false,true,NA,2,8,E28_Q5_ansL.png,left,NA,NA,NA,left,1464,true,NA,NA,NA,NA,NA
jQPtn2Br,NA,NA,jQPtn2Br,2020-0188,2021-09-25,09:24:25,10:22:39,NA,incomplete,false,true,NA,2,9,E28_Q10_ansR.png,right,NA,NA,NA,right,1624,true,NA,NA,NA,NA,NA
jQPtn2Br,NA,NA,jQPtn2Br,2020-0188,2021-09-25,09:24:25,10:22:39,NA,incomplete,false,true,NA,2,10,E11_Q5_ansL.png,left,NA,NA,NA,left,1806,true,NA,NA,NA,NA,NA
jQPtn2Br,NA,NA,jQPtn2Br,2020-0188,2021-09-25,09:24:25,10:22:39,NA,incomplete,false,true,NA,2,11,E11_Q8_ansR.png,right,NA,NA,NA,right,2009,true,NA,NA,NA,NA,NA
jQPtn2Br,NA,NA,jQPtn2Br,2020-0188,2021-09-25,09:24:25,10:22:39,NA,incomplete,false,true,NA,2,12,E11_Q10_ansR.png,right,NA,NA,NA,right,1740,true,NA,NA,NA,NA,NA
jQPtn2Br,NA,NA,jQPtn2Br,2020-0188,2021-09-25,09:24:25,10:22:39,NA,incomplete,false,true,NA,2,13,E11_Q9_ansL.png,left,NA,NA,NA,left,1268,true,NA,NA,NA,NA,NA
jQPtn2Br,NA,NA,jQPtn2Br,2020-0188,2021-09-25,09:24:25,10:22:39,NA,incomplete,false,true,NA,2,14,E11_Q4_ansL.png,left,NA,NA,NA,left,1271,true,NA,NA,NA,NA,NA
jQPtn2Br,NA,NA,jQPtn2Br,2020-0188,2021-09-25,09:24:25,10:22:39,NA,incomplete,false,true,NA,2,15,E11_Q6_ansL.png,left,NA,NA,NA,left,2477,true,NA,NA,NA,NA,NA
jQPtn2Br,NA,NA,jQPtn2Br,2020-0188,2021-09-25,09:24:25,10:22:39,NA,incomplete,false,true,NA,2,16,E11_Q1_ansR.png,right,NA,NA,NA,right,1689,true,NA,NA,NA,NA,NA
jQPtn2Br,NA,NA,jQPtn2Br,2020-0188,2021-09-25,09:24:25,10:22:39,NA,incomplete,false,true,NA,2,17,E11_Q7_ansR.png,right,NA,NA,NA,right,1651,true,NA,NA,NA,NA,NA
jQPtn2Br,NA,NA,jQPtn2Br,2020-0188,2021-09-25,09:24:25,10:22:39,NA,incomplete,false,true,NA,2,18,E11_Q3_ansL.png,left,NA,NA,NA,left,1185,true,NA,NA,NA,NA,NA
jQPtn2Br,NA,NA,jQPtn2Br,2020-0188,2021-09-25,09:24:25,10:22:39,NA,incomplete,false,true,NA,2,19,E11_Q2_ansR.png,right,NA,NA,NA,right,1596,true,NA,NA,NA,NA,NA
jQPtn2Br,NA,NA,jQPtn2Br,2020-0188,2021-09-25,09:24:25,10:22:39,NA,incomplete,false,true,NA,2,20,E29_Q5_ansR.png,right,NA,NA,NA,right,1540,true,NA,NA,NA,NA,NA
jQPtn2Br,NA,NA,jQPtn2Br,2020-0188,2021-09-25,09:24:25,10:22:39,NA,incomplete,false,true,NA,2,21,E29_Q2_ansL.png,left,NA,NA,NA,left,2753,true,NA,NA,NA,NA,NA
jQPtn2Br,NA,NA,jQPtn2Br,2020-0188,2021-09-25,09:24:25,10:22:39,NA,incomplete,false,true,NA,2,22,E29_Q4_ansR.png,right,NA,NA,NA,right,1503,true,NA,NA,NA,NA,NA
jQPtn2Br,NA,NA,jQPtn2Br,2020-0188,2021-09-25,09:24:25,10:22:39,NA,incomplete,false,true,NA,2,23,E29_Q8_ansL.png,left,NA,NA,NA,left,1823,true,NA,NA,NA,NA,NA
jQPtn2Br,NA,NA,jQPtn2Br,2020-0188,2021-09-25,09:24:25,10:22:39,NA,incomplete,false,true,NA,2,24,E29_Q10_ansL.png,left,NA,NA,NA,left,1198,true,NA,NA,NA,NA,NA
jQPtn2Br,NA,NA,jQPtn2Br,2020-0188,2021-09-25,09:24:25,10:22:39,NA,incomplete,false,true,NA,2,25,E29_Q1_ansL.png,left,NA,NA,NA,left,1736,true,NA,NA,NA,NA,NA
jQPtn2Br,NA,NA,jQPtn2Br,2020-0188,2021-09-25,09:24:25,10:22:39,NA,incomplete,false,true,NA,2,26,E29_Q6_ansR.png,right,NA,NA,NA,right,2178,true,NA,NA,NA,NA,NA
jQPtn2Br,NA,NA,jQPtn2Br,2020-0188,2021-09-25,09:24:25,10:22:39,NA,incomplete,false,true,NA,2,27,E29_Q7_ansL.png,left,NA,NA,NA,left,1493,true,NA,NA,NA,NA,NA
jQPtn2Br,NA,NA,jQPtn2Br,2020-0188,2021-09-25,09:24:25,10:22:39,NA,incomplete,false,true,NA,2,28,E29_Q9_ansR.png,right,NA,NA,NA,right,2033,true,NA,NA,NA,NA,NA
jQPtn2Br,NA,NA,jQPtn2Br,2020-0188,2021-09-25,09:24:25,10:22:39,NA,incomplete,false,true,NA,2,29,E29_Q3_ansR.png,right,NA,NA,NA,right,1658,true,NA,NA,NA,NA,NA
jQPtn2Br,NA,NA,jQPtn2Br,2020-0188,2021-09-25,09:24:25,10:22:39,NA,incomplete,false,NA,true,2,0,NA,right,E28_Q5_ansL.png,E28_Q9_ansL.png,within,NA,NaN,NA,left,3352,0,1,1147
jQPtn2Br,NA,NA,jQPtn2Br,2020-0188,2021-09-25,09:24:25,10:22:39,NA,incomplete,false,NA,true,2,1,NA,right,E11_Q5_ansL.png,E28_Q7_ansR.png,between,NA,NaN,NA,right,2440,1,2,1483
jQPtn2Br,NA,NA,jQPtn2Br,2020-0188,2021-09-25,09:24:25,10:22:39,NA,incomplete,false,NA,true,2,2,NA,right,E11_Q7_ansR.png,E11_Q4_ansL.png,within,NA,NaN,NA,left,2598.0000000001164,0,1,1022
jQPtn2Br,NA,NA,jQPtn2Br,2020-0188,2021-09-25,09:24:25,10:22:39,NA,incomplete,false,NA,true,2,3,NA,left,E11_Q9_ansL.png,E11_Q1_ansR.png,within,NA,NaN,NA,left,2673,1,1,1329
jQPtn2Br,NA,NA,jQPtn2Br,2020-0188,2021-09-25,09:24:25,10:22:39,NA,incomplete,false,NA,true,2,4,NA,left,E28_Q10_ansR.png,E11_Q10_ansR.png,between,NA,NaN,NA,left,1988,1,2,1223.0000000001164
jQPtn2Br,NA,NA,jQPtn2Br,2020-0188,2021-09-25,09:24:25,10:22:39,NA,incomplete,false,NA,true,2,5,NA,left,E11_Q5_ansL.png,E11_Q9_ansL.png,within,NA,NaN,NA,left,2661.9999999998836,1,0,953.9999999998836
jQPtn2Br,NA,NA,jQPtn2Br,2020-0188,2021-09-25,09:24:25,10:22:39,NA,incomplete,false,NA,true,2,6,NA,right,E28_Q6_ansL.png,E28_Q1_ansR.png,within,NA,NaN,NA,right,1899,1,0,1788
jQPtn2Br,NA,NA,jQPtn2Br,2020-0188,2021-09-25,09:24:25,10:22:39,NA,incomplete,false,NA,true,2,7,NA,right,E29_Q9_ansR.png,E29_Q1_ansL.png,within,NA,NaN,NA,left,2359,0,0,1417.0000000001164
jQPtn2Br,NA,NA,jQPtn2Br,2020-0188,2021-09-25,09:24:25,10:22:39,NA,incomplete,false,NA,true,2,8,NA,right,E29_Q4_ansR.png,E11_Q2_ansR.png,between,NA,NaN,NA,right,4630,1,1,1449
jQPtn2Br,NA,NA,jQPtn2Br,2020-0188,2021-09-25,09:24:25,10:22:39,NA,incomplete,false,NA,true,2,9,NA,right,E28_Q7_ansR.png,E28_Q6_ansL.png,within,NA,NaN,NA,right,5348,1,1,1945
jQPtn2Br,NA,NA,jQPtn2Br,2020-0188,2021-09-25,09:24:25,10:22:39,NA,incomplete,false,NA,true,2,10,NA,left,E11_Q7_ansR.png,E29_Q5_ansR.png,between,NA,NaN,NA,left,2831,1,3,3465.9999999998836
jQPtn2Br,NA,NA,jQPtn2Br,2020-0188,2021-09-25,09:24:25,10:22:39,NA,incomplete,false,NA,true,2,11,NA,right,E29_Q8_ansL.png,E29_Q5_ansR.png,within,NA,NaN,NA,right,2606,1,0,1225.0000000002328
jQPtn2Br,NA,NA,jQPtn2Br,2020-0188,2021-09-25,09:24:25,10:22:39,NA,incomplete,false,NA,true,2,12,NA,left,E29_Q2_ansL.png,E29_Q10_ansL.png,within,NA,NaN,NA,left,4702.999999999884,1,0,922
jQPtn2Br,NA,NA,jQPtn2Br,2020-0188,2021-09-25,09:24:25,10:22:39,NA,incomplete,false,NA,true,2,13,NA,right,E11_Q8_ansR.png,E28_Q5_ansL.png,between,NA,NaN,NA,right,1922,1,2,1606
jQPtn2Br,NA,NA,jQPtn2Br,2020-0188,2021-09-25,09:24:25,10:22:39,NA,incomplete,false,NA,true,2,14,NA,right,E28_Q10_ansR.png,E28_Q8_ansR.png,within,NA,NaN,NA,right,2349,1,0,1956
jQPtn2Br,NA,NA,jQPtn2Br,2020-0188,2021-09-25,09:24:25,10:22:39,NA,incomplete,false,NA,true,2,15,NA,right,E11_Q6_ansL.png,E11_Q10_ansR.png,within,NA,NaN,NA,right,2797,1,0,1170
jQPtn2Br,NA,NA,jQPtn2Br,2020-0188,2021-09-25,09:24:25,10:22:39,NA,incomplete,false,NA,true,2,16,NA,right,E29_Q1_ansL.png,E29_Q4_ansR.png,within,NA,NaN,NA,right,1856,1,1,1091
jQPtn2Br,NA,NA,jQPtn2Br,2020-0188,2021-09-25,09:24:25,10:22:39,NA,incomplete,false,NA,true,2,17,NA,left,E28_Q4_ansL.png,E28_Q9_ansL.png,within,NA,NaN,NA,right,2630,0,1,1733
jQPtn2Br,NA,NA,jQPtn2Br,2020-0188,2021-09-25,09:24:25,10:22:39,NA,incomplete,false,NA,true,2,18,NA,left,E11_Q6_ansL.png,E11_Q3_ansL.png,within,NA,NaN,NA,right,3777,0,0,1212
jQPtn2Br,NA,NA,jQPtn2Br,2020-0188,2021-09-25,09:24:25,10:22:39,NA,incomplete,false,NA,true,2,19,NA,left,E11_Q1_ansR.png,E11_Q2_ansR.png,within,NA,NaN,NA,left,2439,1,0,1179
jQPtn2Br,NA,NA,jQPtn2Br,2020-0188,2021-09-25,09:24:25,10:22:39,NA,incomplete,false,NA,true,2,20,NA,left,E11_Q3_ansL.png,E29_Q2_ansL.png,between,NA,NaN,NA,left,1910.9999999997672,1,2,897
jQPtn2Br,NA,NA,jQPtn2Br,2020-0188,2021-09-25,09:24:25,10:22:39,NA,incomplete,false,NA,true,2,21,NA,left,E28_Q3_ansL.png,E28_Q8_ansR.png,within,NA,NaN,NA,left,2842,1,0,1123
jQPtn2Br,NA,NA,jQPtn2Br,2020-0188,2021-09-25,09:24:25,10:22:39,NA,incomplete,false,NA,true,2,22,NA,right,E29_Q7_ansL.png,E29_Q10_ansL.png,within,NA,NaN,NA,right,2009.9999999997672,1,0,1128
jQPtn2Br,NA,NA,jQPtn2Br,2020-0188,2021-09-25,09:24:25,10:22:39,NA,incomplete,false,NA,true,2,23,NA,left,E29_Q8_ansL.png,E29_Q6_ansR.png,within,NA,NaN,NA,right,4442,0,1,1608
jQPtn2Br,NA,NA,jQPtn2Br,2020-0188,2021-09-25,09:24:25,10:22:39,NA,incomplete,false,NA,true,2,24,NA,left,E11_Q8_ansR.png,E11_Q4_ansL.png,within,NA,NaN,NA,left,2394,1,1,989
jQPtn2Br,NA,NA,jQPtn2Br,2020-0188,2021-09-25,09:24:25,10:22:39,NA,incomplete,false,NA,true,2,25,NA,right,E29_Q3_ansR.png,E29_Q6_ansR.png,within,NA,NaN,NA,left,3378,0,1,1811
jQPtn2Br,NA,NA,jQPtn2Br,2020-0188,2021-09-25,09:24:25,10:22:39,NA,incomplete,false,NA,true,2,26,NA,right,E28_Q3_ansL.png,E28_Q2_ansR.png,within,NA,NaN,NA,right,1956,1,0,1152
jQPtn2Br,NA,NA,jQPtn2Br,2020-0188,2021-09-25,09:24:25,10:22:39,NA,incomplete,false,true,NA,3,0,E24_Q3_ansL.png,left,NA,NA,NA,left,1787,true,NA,NA,NA,NA,NA
jQPtn2Br,NA,NA,jQPtn2Br,2020-0188,2021-09-25,09:24:25,10:22:39,NA,incomplete,false,true,NA,3,1,E24_Q6_ansL.png,left,NA,NA,NA,left,1718,true,NA,NA,NA,NA,NA
jQPtn2Br,NA,NA,jQPtn2Br,2020-0188,2021-09-25,09:24:25,10:22:39,NA,incomplete,false,true,NA,3,2,E24_Q8_ansR.png,right,NA,NA,NA,right,1540,true,NA,NA,NA,NA,NA
jQPtn2Br,NA,NA,jQPtn2Br,2020-0188,2021-09-25,09:24:25,10:22:39,NA,incomplete,false,true,NA,3,3,E24_Q7_ansR.png,right,NA,NA,NA,right,1840,true,NA,NA,NA,NA,NA
jQPtn2Br,NA,NA,jQPtn2Br,2020-0188,2021-09-25,09:24:25,10:22:39,NA,incomplete,false,true,NA,3,4,E24_Q9_ansL.png,left,NA,NA,NA,left,1858,true,NA,NA,NA,NA,NA
jQPtn2Br,NA,NA,jQPtn2Br,2020-0188,2021-09-25,09:24:25,10:22:39,NA,incomplete,false,true,NA,3,5,E24_Q5_ansL.png,left,NA,NA,NA,left,1629,true,NA,NA,NA,NA,NA
jQPtn2Br,NA,NA,jQPtn2Br,2020-0188,2021-09-25,09:24:25,10:22:39,NA,incomplete,false,true,NA,3,6,E24_Q2_ansR.png,right,NA,NA,NA,right,1820.00000000023,true,NA,NA,NA,NA,NA
jQPtn2Br,NA,NA,jQPtn2Br,2020-0188,2021-09-25,09:24:25,10:22:39,NA,incomplete,false,true,NA,3,7,E24_Q10_ansR.png,right,NA,NA,NA,right,1315,true,NA,NA,NA,NA,NA
jQPtn2Br,NA,NA,jQPtn2Br,2020-0188,2021-09-25,09:24:25,10:22:39,NA,incomplete,false,true,NA,3,8,E24_Q1_ansR.png,right,NA,NA,NA,left,1684.99999999977,false,NA,NA,NA,NA,NA
jQPtn2Br,NA,NA,jQPtn2Br,2020-0188,2021-09-25,09:24:25,10:22:39,NA,incomplete,false,true,NA,3,9,E24_Q4_ansL.png,left,NA,NA,NA,left,1382.99999999977,true,NA,NA,NA,NA,NA
jQPtn2Br,NA,NA,jQPtn2Br,2020-0188,2021-09-25,09:24:25,10:22:39,NA,incomplete,false,true,NA,3,10,E6_Q2_ansL.png,left,NA,NA,NA,left,1693,true,NA,NA,NA,NA,NA
jQPtn2Br,NA,NA,jQPtn2Br,2020-0188,2021-09-25,09:24:25,10:22:39,NA,incomplete,false,true,NA,3,11,E6_Q9_ansL.png,left,NA,NA,NA,left,1799,true,NA,NA,NA,NA,NA
jQPtn2Br,NA,NA,jQPtn2Br,2020-0188,2021-09-25,09:24:25,10:22:39,NA,incomplete,false,true,NA,3,12,E6_Q5_ansR.png,right,NA,NA,NA,right,1370,true,NA,NA,NA,NA,NA
jQPtn2Br,NA,NA,jQPtn2Br,2020-0188,2021-09-25,09:24:25,10:22:39,NA,incomplete,false,true,NA,3,13,E6_Q6_ansR.png,right,NA,NA,NA,right,1162,true,NA,NA,NA,NA,NA
jQPtn2Br,NA,NA,jQPtn2Br,2020-0188,2021-09-25,09:24:25,10:22:39,NA,incomplete,false,true,NA,3,14,E6_Q4_ansR.png,right,NA,NA,NA,right,2130,true,NA,NA,NA,NA,NA
jQPtn2Br,NA,NA,jQPtn2Br,2020-0188,2021-09-25,09:24:25,10:22:39,NA,incomplete,false,true,NA,3,15,E6_Q3_ansR.png,right,NA,NA,NA,right,1302,true,NA,NA,NA,NA,NA
jQPtn2Br,NA,NA,jQPtn2Br,2020-0188,2021-09-25,09:24:25,10:22:39,NA,incomplete,false,true,NA,3,16,E6_Q7_ansL.png,left,NA,NA,NA,left,1280,true,NA,NA,NA,NA,NA
jQPtn2Br,NA,NA,jQPtn2Br,2020-0188,2021-09-25,09:24:25,10:22:39,NA,incomplete,false,true,NA,3,17,E6_Q10_ansL.png,left,NA,NA,NA,left,1454,true,NA,NA,NA,NA,NA
jQPtn2Br,NA,NA,jQPtn2Br,2020-0188,2021-09-25,09:24:25,10:22:39,NA,incomplete,false,true,NA,3,18,E6_Q8_ansL.png,left,NA,NA,NA,left,1548,true,NA,NA,NA,NA,NA
jQPtn2Br,NA,NA,jQPtn2Br,2020-0188,2021-09-25,09:24:25,10:22:39,NA,incomplete,false,true,NA,3,19,E6_Q1_ansL.png,left,NA,NA,NA,left,1521,true,NA,NA,NA,NA,NA
jQPtn2Br,NA,NA,jQPtn2Br,2020-0188,2021-09-25,09:24:25,10:22:39,NA,incomplete,false,true,NA,3,20,E16_Q10_ansR.png,right,NA,NA,NA,right,1860,true,NA,NA,NA,NA,NA
jQPtn2Br,NA,NA,jQPtn2Br,2020-0188,2021-09-25,09:24:25,10:22:39,NA,incomplete,false,true,NA,3,21,E16_Q2_ansR.png,right,NA,NA,NA,right,1863.00000000023,true,NA,NA,NA,NA,NA
jQPtn2Br,NA,NA,jQPtn2Br,2020-0188,2021-09-25,09:24:25,10:22:39,NA,incomplete,false,true,NA,3,22,E16_Q7_ansR.png,right,NA,NA,NA,right,1377,true,NA,NA,NA,NA,NA
jQPtn2Br,NA,NA,jQPtn2Br,2020-0188,2021-09-25,09:24:25,10:22:39,NA,incomplete,false,true,NA,3,23,E16_Q1_ansR.png,right,NA,NA,NA,right,1772,true,NA,NA,NA,NA,NA
jQPtn2Br,NA,NA,jQPtn2Br,2020-0188,2021-09-25,09:24:25,10:22:39,NA,incomplete,false,true,NA,3,24,E16_Q5_ansL.png,left,NA,NA,NA,left,2310,true,NA,NA,NA,NA,NA
jQPtn2Br,NA,NA,jQPtn2Br,2020-0188,2021-09-25,09:24:25,10:22:39,NA,incomplete,false,true,NA,3,25,E16_Q8_ansR.png,right,NA,NA,NA,right,1264.99999999977,true,NA,NA,NA,NA,NA
jQPtn2Br,NA,NA,jQPtn2Br,2020-0188,2021-09-25,09:24:25,10:22:39,NA,incomplete,false,true,NA,3,26,E16_Q9_ansL.png,left,NA,NA,NA,left,1185,true,NA,NA,NA,NA,NA
jQPtn2Br,NA,NA,jQPtn2Br,2020-0188,2021-09-25,09:24:25,10:22:39,NA,incomplete,false,true,NA,3,27,E16_Q4_ansL.png,left,NA,NA,NA,left,1248,true,NA,NA,NA,NA,NA
jQPtn2Br,NA,NA,jQPtn2Br,2020-0188,2021-09-25,09:24:25,10:22:39,NA,incomplete,false,true,NA,3,28,E16_Q3_ansL.png,left,NA,NA,NA,left,1335,true,NA,NA,NA,NA,NA
jQPtn2Br,NA,NA,jQPtn2Br,2020-0188,2021-09-25,09:24:25,10:22:39,NA,incomplete,false,true,NA,3,29,E16_Q6_ansL.png,left,NA,NA,NA,left,1104,true,NA,NA,NA,NA,NA
jQPtn2Br,NA,NA,jQPtn2Br,2020-0188,2021-09-25,09:24:25,10:22:39,NA,incomplete,false,NA,true,3,0,NA,left,E16_Q1_ansR.png,E16_Q9_ansL.png,within,NA,NaN,NA,left,2419,1,0,1216
jQPtn2Br,NA,NA,jQPtn2Br,2020-0188,2021-09-25,09:24:25,10:22:39,NA,incomplete,false,NA,true,3,1,NA,left,E24_Q6_ansL.png,E24_Q9_ansL.png,within,NA,NaN,NA,left,2001,1,1,1081
jQPtn2Br,NA,NA,jQPtn2Br,2020-0188,2021-09-25,09:24:25,10:22:39,NA,incomplete,false,NA,true,3,2,NA,right,E6_Q10_ansL.png,E6_Q4_ansR.png,within,NA,NaN,NA,right,2393,1,1,1081
jQPtn2Br,NA,NA,jQPtn2Br,2020-0188,2021-09-25,09:24:25,10:22:39,NA,incomplete,false,NA,true,3,3,NA,left,E6_Q5_ansR.png,E6_Q3_ansR.png,within,NA,NaN,NA,left,2529,1,0,1765
jQPtn2Br,NA,NA,jQPtn2Br,2020-0188,2021-09-25,09:24:25,10:22:39,NA,incomplete,false,NA,true,3,4,NA,left,E16_Q9_ansL.png,E16_Q6_ansL.png,within,NA,NaN,NA,left,2684,1,1,1428
jQPtn2Br,NA,NA,jQPtn2Br,2020-0188,2021-09-25,09:24:25,10:22:39,NA,incomplete,false,NA,true,3,5,NA,left,E6_Q3_ansR.png,E6_Q8_ansL.png,within,NA,NaN,NA,left,3350,1,1,831
jQPtn2Br,NA,NA,jQPtn2Br,2020-0188,2021-09-25,09:24:25,10:22:39,NA,incomplete,false,NA,true,3,6,NA,right,E16_Q8_ansR.png,E16_Q7_ansR.png,within,NA,NaN,NA,left,1998.9999999997672,0,1,891
jQPtn2Br,NA,NA,jQPtn2Br,2020-0188,2021-09-25,09:24:25,10:22:39,NA,incomplete,false,NA,true,3,7,NA,right,E16_Q10_ansR.png,E6_Q10_ansL.png,between,NA,NaN,NA,right,1280.0000000002328,1,2,1114
jQPtn2Br,NA,NA,jQPtn2Br,2020-0188,2021-09-25,09:24:25,10:22:39,NA,incomplete,false,NA,true,3,8,NA,left,E16_Q8_ansR.png,E16_Q3_ansL.png,within,NA,NaN,NA,left,1303,1,1,956
jQPtn2Br,NA,NA,jQPtn2Br,2020-0188,2021-09-25,09:24:25,10:22:39,NA,incomplete,false,NA,true,3,9,NA,left,E24_Q4_ansL.png,E6_Q5_ansR.png,between,NA,NaN,NA,left,1447.0000000002328,1,2,1192
jQPtn2Br,NA,NA,jQPtn2Br,2020-0188,2021-09-25,09:24:25,10:22:39,NA,incomplete,false,NA,true,3,10,NA,left,E24_Q10_ansR.png,E6_Q2_ansL.png,between,NA,NaN,NA,left,1685,1,3,1115
jQPtn2Br,NA,NA,jQPtn2Br,2020-0188,2021-09-25,09:24:25,10:22:39,NA,incomplete,false,NA,true,3,11,NA,right,E24_Q1_ansR.png,E24_Q5_ansL.png,within,NA,NaN,NA,left,2171,0,1,1325
jQPtn2Br,NA,NA,jQPtn2Br,2020-0188,2021-09-25,09:24:25,10:22:39,NA,incomplete,false,NA,true,3,12,NA,left,E24_Q8_ansR.png,E24_Q5_ansL.png,within,NA,NaN,NA,left,1653,1,0,2293
jQPtn2Br,NA,NA,jQPtn2Br,2020-0188,2021-09-25,09:24:25,10:22:39,NA,incomplete,false,NA,true,3,13,NA,right,E24_Q2_ansR.png,E24_Q7_ansR.png,within,NA,NaN,NA,right,1373,1,1,1822
jQPtn2Br,NA,NA,jQPtn2Br,2020-0188,2021-09-25,09:24:25,10:22:39,NA,incomplete,false,NA,true,3,14,NA,left,E24_Q9_ansL.png,E24_Q10_ansR.png,within,NA,NaN,NA,right,1989,0,1,1868
jQPtn2Br,NA,NA,jQPtn2Br,2020-0188,2021-09-25,09:24:25,10:22:39,NA,incomplete,false,NA,true,3,15,NA,left,E24_Q1_ansR.png,E6_Q9_ansL.png,between,NA,NaN,NA,left,1280,1,3,1010
jQPtn2Br,NA,NA,jQPtn2Br,2020-0188,2021-09-25,09:24:25,10:22:39,NA,incomplete,false,NA,true,3,16,NA,left,E6_Q1_ansL.png,E16_Q7_ansR.png,between,NA,NaN,NA,left,1336,1,3,864
jQPtn2Br,NA,NA,jQPtn2Br,2020-0188,2021-09-25,09:24:25,10:22:39,NA,incomplete,false,NA,true,3,17,NA,left,E24_Q2_ansR.png,E24_Q4_ansL.png,within,NA,NaN,NA,right,2203,0,1,1169.0000000002328
jQPtn2Br,NA,NA,jQPtn2Br,2020-0188,2021-09-25,09:24:25,10:22:39,NA,incomplete,false,NA,true,3,18,NA,left,E16_Q10_ansR.png,E16_Q1_ansR.png,within,NA,NaN,NA,left,1697,1,1,1134
jQPtn2Br,NA,NA,jQPtn2Br,2020-0188,2021-09-25,09:24:25,10:22:39,NA,incomplete,false,NA,true,3,19,NA,left,E6_Q7_ansL.png,E6_Q1_ansL.png,within,NA,NaN,NA,left,1897,1,1,834
jQPtn2Br,NA,NA,jQPtn2Br,2020-0188,2021-09-25,09:24:25,10:22:39,NA,incomplete,false,NA,true,3,20,NA,right,E16_Q4_ansL.png,E16_Q5_ansL.png,within,NA,NaN,NA,right,2335.999999999767,1,1,1282
jQPtn2Br,NA,NA,jQPtn2Br,2020-0188,2021-09-25,09:24:25,10:22:39,NA,incomplete,false,NA,true,3,21,NA,right,E6_Q7_ansL.png,E6_Q6_ansR.png,within,NA,NaN,NA,right,1288,1,1,1381
jQPtn2Br,NA,NA,jQPtn2Br,2020-0188,2021-09-25,09:24:25,10:22:39,NA,incomplete,false,NA,true,3,22,NA,right,E6_Q4_ansR.png,E6_Q9_ansL.png,within,NA,NaN,NA,right,1482,1,1,901
jQPtn2Br,NA,NA,jQPtn2Br,2020-0188,2021-09-25,09:24:25,10:22:39,NA,incomplete,false,NA,true,3,23,NA,left,E24_Q3_ansL.png,E24_Q7_ansR.png,within,NA,NaN,NA,left,977.0000000002328,1,1,889.9999999997672
jQPtn2Br,NA,NA,jQPtn2Br,2020-0188,2021-09-25,09:24:25,10:22:39,NA,incomplete,false,NA,true,3,24,NA,left,E16_Q2_ansR.png,E16_Q5_ansL.png,within,NA,NaN,NA,left,1323,1,1,1300
jQPtn2Br,NA,NA,jQPtn2Br,2020-0188,2021-09-25,09:24:25,10:22:39,NA,incomplete,false,NA,true,3,25,NA,right,E6_Q6_ansR.png,E6_Q2_ansL.png,within,NA,NaN,NA,right,3519.999999999767,1,0,1226.0000000002328
jQPtn2Br,NA,NA,jQPtn2Br,2020-0188,2021-09-25,09:24:25,10:22:39,NA,incomplete,false,NA,true,3,26,NA,right,E16_Q2_ansR.png,E6_Q8_ansL.png,between,NA,NaN,NA,right,1146,1,2,1034.0000000002328
jQPtn2Br,NA,NA,jQPtn2Br,2020-0188,2021-09-25,09:24:25,10:22:39,NA,incomplete,false,true,NA,4,0,E12_Q6_ansR.png,right,NA,NA,NA,right,1749,true,NA,NA,NA,NA,NA
jQPtn2Br,NA,NA,jQPtn2Br,2020-0188,2021-09-25,09:24:25,10:22:39,NA,incomplete,false,true,NA,4,1,E12_Q9_ansR.png,right,NA,NA,NA,right,1527,true,NA,NA,NA,NA,NA
jQPtn2Br,NA,NA,jQPtn2Br,2020-0188,2021-09-25,09:24:25,10:22:39,NA,incomplete,false,true,NA,4,2,E12_Q8_ansL.png,left,NA,NA,NA,left,1868.00000000023,true,NA,NA,NA,NA,NA
jQPtn2Br,NA,NA,jQPtn2Br,2020-0188,2021-09-25,09:24:25,10:22:39,NA,incomplete,false,true,NA,4,3,E12_Q7_ansL.png,left,NA,NA,NA,left,1433,true,NA,NA,NA,NA,NA
jQPtn2Br,NA,NA,jQPtn2Br,2020-0188,2021-09-25,09:24:25,10:22:39,NA,incomplete,false,true,NA,4,4,E12_Q2_ansL.png,left,NA,NA,NA,right,1429.99999999977,false,NA,NA,NA,NA,NA
jQPtn2Br,NA,NA,jQPtn2Br,2020-0188,2021-09-25,09:24:25,10:22:39,NA,incomplete,false,true,NA,4,5,E12_Q4_ansR.png,right,NA,NA,NA,right,1780,true,NA,NA,NA,NA,NA
jQPtn2Br,NA,NA,jQPtn2Br,2020-0188,2021-09-25,09:24:25,10:22:39,NA,incomplete,false,true,NA,4,6,E12_Q10_ansL.png,left,NA,NA,NA,left,1206.00000000023,true,NA,NA,NA,NA,NA
jQPtn2Br,NA,NA,jQPtn2Br,2020-0188,2021-09-25,09:24:25,10:22:39,NA,incomplete,false,true,NA,4,7,E12_Q1_ansL.png,left,NA,NA,NA,left,1467,true,NA,NA,NA,NA,NA
jQPtn2Br,NA,NA,jQPtn2Br,2020-0188,2021-09-25,09:24:25,10:22:39,NA,incomplete,false,true,NA,4,8,E12_Q3_ansR.png,right,NA,NA,NA,right,2292,true,NA,NA,NA,NA,NA
jQPtn2Br,NA,NA,jQPtn2Br,2020-0188,2021-09-25,09:24:25,10:22:39,NA,incomplete,false,true,NA,4,9,E12_Q5_ansR.png,right,NA,NA,NA,right,1661,true,NA,NA,NA,NA,NA
jQPtn2Br,NA,NA,jQPtn2Br,2020-0188,2021-09-25,09:24:25,10:22:39,NA,incomplete,false,true,NA,4,10,E23_Q7_ansL.png,left,NA,NA,NA,left,1230,true,NA,NA,NA,NA,NA
jQPtn2Br,NA,NA,jQPtn2Br,2020-0188,2021-09-25,09:24:25,10:22:39,NA,incomplete,false,true,NA,4,11,E23_Q2_ansL.png,left,NA,NA,NA,left,2001,true,NA,NA,NA,NA,NA
jQPtn2Br,NA,NA,jQPtn2Br,2020-0188,2021-09-25,09:24:25,10:22:39,NA,incomplete,false,true,NA,4,12,E23_Q4_ansR.png,right,NA,NA,NA,right,1553,true,NA,NA,NA,NA,NA
jQPtn2Br,NA,NA,jQPtn2Br,2020-0188,2021-09-25,09:24:25,10:22:39,NA,incomplete,false,true,NA,4,13,E23_Q6_ansR.png,right,NA,NA,NA,right,1400,true,NA,NA,NA,NA,NA
jQPtn2Br,NA,NA,jQPtn2Br,2020-0188,2021-09-25,09:24:25,10:22:39,NA,incomplete,false,true,NA,4,14,E23_Q5_ansR.png,right,NA,NA,NA,right,1403,true,NA,NA,NA,NA,NA
jQPtn2Br,NA,NA,jQPtn2Br,2020-0188,2021-09-25,09:24:25,10:22:39,NA,incomplete,false,true,NA,4,15,E23_Q3_ansR.png,right,NA,NA,NA,right,1195.00000000023,true,NA,NA,NA,NA,NA
jQPtn2Br,NA,NA,jQPtn2Br,2020-0188,2021-09-25,09:24:25,10:22:39,NA,incomplete,false,true,NA,4,16,E23_Q1_ansL.png,left,NA,NA,NA,left,1731,true,NA,NA,NA,NA,NA
jQPtn2Br,NA,NA,jQPtn2Br,2020-0188,2021-09-25,09:24:25,10:22:39,NA,incomplete,false,true,NA,4,17,E23_Q8_ansL.png,left,NA,NA,NA,left,2518,true,NA,NA,NA,NA,NA
jQPtn2Br,NA,NA,jQPtn2Br,2020-0188,2021-09-25,09:24:25,10:22:39,NA,incomplete,false,true,NA,4,18,E23_Q9_ansR.png,right,NA,NA,NA,right,1718,true,NA,NA,NA,NA,NA
jQPtn2Br,NA,NA,jQPtn2Br,2020-0188,2021-09-25,09:24:25,10:22:39,NA,incomplete,false,true,NA,4,19,E23_Q10_ansL.png,left,NA,NA,NA,left,1530,true,NA,NA,NA,NA,NA
jQPtn2Br,NA,NA,jQPtn2Br,2020-0188,2021-09-25,09:24:25,10:22:39,NA,incomplete,false,true,NA,4,20,E22_Q2_ansR.png,right,NA,NA,NA,right,1601,true,NA,NA,NA,NA,NA
jQPtn2Br,NA,NA,jQPtn2Br,2020-0188,2021-09-25,09:24:25,10:22:39,NA,incomplete,false,true,NA,4,21,E22_Q10_ansR.png,right,NA,NA,NA,right,1273.00000000023,true,NA,NA,NA,NA,NA
jQPtn2Br,NA,NA,jQPtn2Br,2020-0188,2021-09-25,09:24:25,10:22:39,NA,incomplete,false,true,NA,4,22,E22_Q5_ansL.png,left,NA,NA,NA,left,1681,true,NA,NA,NA,NA,NA
jQPtn2Br,NA,NA,jQPtn2Br,2020-0188,2021-09-25,09:24:25,10:22:39,NA,incomplete,false,true,NA,4,23,E22_Q6_ansL.png,left,NA,NA,NA,left,2132,true,NA,NA,NA,NA,NA
jQPtn2Br,NA,NA,jQPtn2Br,2020-0188,2021-09-25,09:24:25,10:22:39,NA,incomplete,false,true,NA,4,24,E22_Q1_ansR.png,right,NA,NA,NA,right,1302,true,NA,NA,NA,NA,NA
jQPtn2Br,NA,NA,jQPtn2Br,2020-0188,2021-09-25,09:24:25,10:22:39,NA,incomplete,false,true,NA,4,25,E22_Q9_ansL.png,left,NA,NA,NA,left,1894,true,NA,NA,NA,NA,NA
jQPtn2Br,NA,NA,jQPtn2Br,2020-0188,2021-09-25,09:24:25,10:22:39,NA,incomplete,false,true,NA,4,26,E22_Q3_ansL.png,left,NA,NA,NA,left,1952,true,NA,NA,NA,NA,NA
jQPtn2Br,NA,NA,jQPtn2Br,2020-0188,2021-09-25,09:24:25,10:22:39,NA,incomplete,false,true,NA,4,27,E22_Q8_ansR.png,right,NA,NA,NA,right,990,true,NA,NA,NA,NA,NA
jQPtn2Br,NA,NA,jQPtn2Br,2020-0188,2021-09-25,09:24:25,10:22:39,NA,incomplete,false,true,NA,4,28,E22_Q7_ansR.png,right,NA,NA,NA,right,1931,true,NA,NA,NA,NA,NA
jQPtn2Br,NA,NA,jQPtn2Br,2020-0188,2021-09-25,09:24:25,10:22:39,NA,incomplete,false,true,NA,4,29,E22_Q4_ansL.png,left,NA,NA,NA,left,1324,true,NA,NA,NA,NA,NA
jQPtn2Br,NA,NA,jQPtn2Br,2020-0188,2021-09-25,09:24:25,10:22:39,NA,incomplete,false,NA,true,4,0,NA,left,E22_Q1_ansR.png,E22_Q8_ansR.png,within,NA,NaN,NA,left,2279,1,1,1010
jQPtn2Br,NA,NA,jQPtn2Br,2020-0188,2021-09-25,09:24:25,10:22:39,NA,incomplete,false,NA,true,4,1,NA,right,E23_Q1_ansL.png,E23_Q6_ansR.png,within,NA,NaN,NA,left,1480,0,0,1295
jQPtn2Br,NA,NA,jQPtn2Br,2020-0188,2021-09-25,09:24:25,10:22:39,NA,incomplete,false,NA,true,4,2,NA,left,E23_Q2_ansL.png,E23_Q5_ansR.png,within,NA,NaN,NA,left,1313,1,1,1475.0000000002328
jQPtn2Br,NA,NA,jQPtn2Br,2020-0188,2021-09-25,09:24:25,10:22:39,NA,incomplete,false,NA,true,4,3,NA,right,E23_Q4_ansR.png,E12_Q5_ansR.png,between,NA,NaN,NA,right,1280,1,2,1091
jQPtn2Br,NA,NA,jQPtn2Br,2020-0188,2021-09-25,09:24:25,10:22:39,NA,incomplete,false,NA,true,4,4,NA,left,E23_Q10_ansL.png,E22_Q5_ansL.png,between,NA,NaN,NA,left,1572,1,2,866.0000000002328
jQPtn2Br,NA,NA,jQPtn2Br,2020-0188,2021-09-25,09:24:25,10:22:39,NA,incomplete,false,NA,true,4,5,NA,left,E12_Q10_ansL.png,E12_Q5_ansR.png,within,NA,NaN,NA,right,4374,0,1,1000
jQPtn2Br,NA,NA,jQPtn2Br,2020-0188,2021-09-25,09:24:25,10:22:39,NA,incomplete,false,NA,true,4,6,NA,left,E22_Q3_ansL.png,E22_Q4_ansL.png,within,NA,NaN,NA,right,1654,0,1,886
jQPtn2Br,NA,NA,jQPtn2Br,2020-0188,2021-09-25,09:24:25,10:22:39,NA,incomplete,false,NA,true,4,7,NA,right,E12_Q4_ansR.png,E12_Q8_ansL.png,within,NA,NaN,NA,right,1493,1,1,1158.0000000002328
jQPtn2Br,NA,NA,jQPtn2Br,2020-0188,2021-09-25,09:24:25,10:22:39,NA,incomplete,false,NA,true,4,8,NA,left,E22_Q6_ansL.png,E22_Q3_ansL.png,within,NA,NaN,NA,left,1430,1,1,854
jQPtn2Br,NA,NA,jQPtn2Br,2020-0188,2021-09-25,09:24:25,10:22:39,NA,incomplete,false,NA,true,4,9,NA,right,E12_Q10_ansL.png,E12_Q7_ansL.png,within,NA,NaN,NA,right,1622,1,0,2529
jQPtn2Br,NA,NA,jQPtn2Br,2020-0188,2021-09-25,09:24:25,10:22:39,NA,incomplete,false,NA,true,4,10,NA,right,E23_Q10_ansL.png,E23_Q1_ansL.png,within,NA,NaN,NA,right,2684.999999999767,1,1,1202.0000000002328
jQPtn2Br,NA,NA,jQPtn2Br,2020-0188,2021-09-25,09:24:25,10:22:39,NA,incomplete,false,NA,true,4,11,NA,left,E23_Q8_ansL.png,E22_Q2_ansR.png,between,NA,NaN,NA,left,1440,1,1,1214
jQPtn2Br,NA,NA,jQPtn2Br,2020-0188,2021-09-25,09:24:25,10:22:39,NA,incomplete,false,NA,true,4,12,NA,right,E12_Q7_ansL.png,E12_Q6_ansR.png,within,NA,NaN,NA,right,1607,1,1,1066.9999999997672
jQPtn2Br,NA,NA,jQPtn2Br,2020-0188,2021-09-25,09:24:25,10:22:39,NA,incomplete,false,NA,true,4,13,NA,left,E12_Q9_ansR.png,E12_Q2_ansL.png,within,NA,NaN,NA,left,2653,1,1,1249
jQPtn2Br,NA,NA,jQPtn2Br,2020-0188,2021-09-25,09:24:25,10:22:39,NA,incomplete,false,NA,true,4,14,NA,left,E22_Q9_ansL.png,E22_Q7_ansR.png,within,NA,NaN,NA,left,1416,1,0,1553
jQPtn2Br,NA,NA,jQPtn2Br,2020-0188,2021-09-25,09:24:25,10:22:39,NA,incomplete,false,NA,true,4,15,NA,right,E22_Q9_ansL.png,E22_Q5_ansL.png,within,NA,NaN,NA,right,1325,1,1,922
jQPtn2Br,NA,NA,jQPtn2Br,2020-0188,2021-09-25,09:24:25,10:22:39,NA,incomplete,false,NA,true,4,16,NA,right,E23_Q2_ansL.png,E12_Q3_ansR.png,between,NA,NaN,NA,right,1190,1,2,2555
jQPtn2Br,NA,NA,jQPtn2Br,2020-0188,2021-09-25,09:24:25,10:22:39,NA,incomplete,false,NA,true,4,17,NA,left,E23_Q4_ansR.png,E23_Q3_ansR.png,within,NA,NaN,NA,right,1518,0,1,1585
jQPtn2Br,NA,NA,jQPtn2Br,2020-0188,2021-09-25,09:24:25,10:22:39,NA,incomplete,false,NA,true,4,18,NA,left,E23_Q5_ansR.png,E23_Q8_ansL.png,within,NA,NaN,NA,left,2068.999999999767,1,1,1102
jQPtn2Br,NA,NA,jQPtn2Br,2020-0188,2021-09-25,09:24:25,10:22:39,NA,incomplete,false,NA,true,4,19,NA,right,E22_Q10_ansR.png,E23_Q9_ansR.png,between,NA,NaN,NA,left,1946,0,2,3376
jQPtn2Br,NA,NA,jQPtn2Br,2020-0188,2021-09-25,09:24:25,10:22:39,NA,incomplete,false,NA,true,4,20,NA,right,E22_Q1_ansR.png,E22_Q10_ansR.png,within,NA,NaN,NA,right,1201,1,1,832
jQPtn2Br,NA,NA,jQPtn2Br,2020-0188,2021-09-25,09:24:25,10:22:39,NA,incomplete,false,NA,true,4,21,NA,right,E23_Q7_ansL.png,E12_Q1_ansL.png,between,NA,NaN,NA,right,1178.9999999997672,1,2,1043
jQPtn2Br,NA,NA,jQPtn2Br,2020-0188,2021-09-25,09:24:25,10:22:39,NA,incomplete,false,NA,true,4,22,NA,right,E12_Q3_ansR.png,E12_Q4_ansR.png,within,NA,NaN,NA,right,1483,1,1,1292.9999999997672
jQPtn2Br,NA,NA,jQPtn2Br,2020-0188,2021-09-25,09:24:25,10:22:39,NA,incomplete,false,NA,true,4,23,NA,left,E23_Q7_ansL.png,E23_Q6_ansR.png,within,NA,NaN,NA,right,2889,0,1,819.0000000002328
jQPtn2Br,NA,NA,jQPtn2Br,2020-0188,2021-09-25,09:24:25,10:22:39,NA,incomplete,false,NA,true,4,24,NA,left,E23_Q3_ansR.png,E23_Q9_ansR.png,within,NA,NaN,NA,left,1289.9999999997672,1,1,1676
jQPtn2Br,NA,NA,jQPtn2Br,2020-0188,2021-09-25,09:24:25,10:22:39,NA,incomplete,false,NA,true,4,25,NA,left,E22_Q2_ansR.png,E22_Q6_ansL.png,within,NA,NaN,NA,left,1515,1,1,1617
jQPtn2Br,NA,NA,jQPtn2Br,2020-0188,2021-09-25,09:24:25,10:22:39,NA,incomplete,false,NA,true,4,26,NA,left,E12_Q2_ansL.png,E12_Q1_ansL.png,within,NA,NaN,NA,left,1674,1,1,952
jQPtn2Br,NA,NA,jQPtn2Br,2020-0188,2021-09-25,09:24:25,10:22:39,NA,incomplete,false,true,NA,5,0,E30_Q1_ansL.png,left,NA,NA,NA,left,2703,true,NA,NA,NA,NA,NA
jQPtn2Br,NA,NA,jQPtn2Br,2020-0188,2021-09-25,09:24:25,10:22:39,NA,incomplete,false,true,NA,5,1,E30_Q3_ansL.png,left,NA,NA,NA,left,2189,true,NA,NA,NA,NA,NA
jQPtn2Br,NA,NA,jQPtn2Br,2020-0188,2021-09-25,09:24:25,10:22:39,NA,incomplete,false,true,NA,5,2,E30_Q4_ansL.png,left,NA,NA,NA,left,1895,true,NA,NA,NA,NA,NA
jQPtn2Br,NA,NA,jQPtn2Br,2020-0188,2021-09-25,09:24:25,10:22:39,NA,incomplete,false,true,NA,5,3,E30_Q2_ansL.png,left,NA,NA,NA,left,2761.00000000023,true,NA,NA,NA,NA,NA
jQPtn2Br,NA,NA,jQPtn2Br,2020-0188,2021-09-25,09:24:25,10:22:39,NA,incomplete,false,true,NA,5,4,E30_Q10_ansR.png,right,NA,NA,NA,right,1509.00000000023,true,NA,NA,NA,NA,NA
jQPtn2Br,NA,NA,jQPtn2Br,2020-0188,2021-09-25,09:24:25,10:22:39,NA,incomplete,false,true,NA,5,5,E30_Q5_ansR.png,right,NA,NA,NA,right,1703,true,NA,NA,NA,NA,NA
jQPtn2Br,NA,NA,jQPtn2Br,2020-0188,2021-09-25,09:24:25,10:22:39,NA,incomplete,false,true,NA,5,6,E30_Q7_ansL.png,left,NA,NA,NA,right,2179.00000000023,false,NA,NA,NA,NA,NA
jQPtn2Br,NA,NA,jQPtn2Br,2020-0188,2021-09-25,09:24:25,10:22:39,NA,incomplete,false,true,NA,5,7,E30_Q6_ansR.png,right,NA,NA,NA,right,2306,true,NA,NA,NA,NA,NA
jQPtn2Br,NA,NA,jQPtn2Br,2020-0188,2021-09-25,09:24:25,10:22:39,NA,incomplete,false,true,NA,5,8,E30_Q9_ansL.png,left,NA,NA,NA,left,1535,true,NA,NA,NA,NA,NA
jQPtn2Br,NA,NA,jQPtn2Br,2020-0188,2021-09-25,09:24:25,10:22:39,NA,incomplete,false,true,NA,5,9,E30_Q8_ansL.png,left,NA,NA,NA,right,2973,false,NA,NA,NA,NA,NA
jQPtn2Br,NA,NA,jQPtn2Br,2020-0188,2021-09-25,09:24:25,10:22:39,NA,incomplete,false,true,NA,5,10,E32_Q5_ansR.png,right,NA,NA,NA,right,2442,true,NA,NA,NA,NA,NA
jQPtn2Br,NA,NA,jQPtn2Br,2020-0188,2021-09-25,09:24:25,10:22:39,NA,incomplete,false,true,NA,5,11,E32_Q7_ansL.png,left,NA,NA,NA,left,1494.99999999977,true,NA,NA,NA,NA,NA
jQPtn2Br,NA,NA,jQPtn2Br,2020-0188,2021-09-25,09:24:25,10:22:39,NA,incomplete,false,true,NA,5,12,E32_Q8_ansL.png,left,NA,NA,NA,left,1609,true,NA,NA,NA,NA,NA
jQPtn2Br,NA,NA,jQPtn2Br,2020-0188,2021-09-25,09:24:25,10:22:39,NA,incomplete,false,true,NA,5,13,E32_Q1_ansL.png,left,NA,NA,NA,left,1165,true,NA,NA,NA,NA,NA
jQPtn2Br,NA,NA,jQPtn2Br,2020-0188,2021-09-25,09:24:25,10:22:39,NA,incomplete,false,true,NA,5,14,E32_Q6_ansR.png,right,NA,NA,NA,right,1369,true,NA,NA,NA,NA,NA
jQPtn2Br,NA,NA,jQPtn2Br,2020-0188,2021-09-25,09:24:25,10:22:39,NA,incomplete,false,true,NA,5,15,E32_Q4_ansR.png,right,NA,NA,NA,right,2612,true,NA,NA,NA,NA,NA
jQPtn2Br,NA,NA,jQPtn2Br,2020-0188,2021-09-25,09:24:25,10:22:39,NA,incomplete,false,true,NA,5,16,E32_Q3_ansR.png,right,NA,NA,NA,right,1077,true,NA,NA,NA,NA,NA
jQPtn2Br,NA,NA,jQPtn2Br,2020-0188,2021-09-25,09:24:25,10:22:39,NA,incomplete,false,true,NA,5,17,E32_Q9_ansR.png,right,NA,NA,NA,right,970,true,NA,NA,NA,NA,NA
jQPtn2Br,NA,NA,jQPtn2Br,2020-0188,2021-09-25,09:24:25,10:22:39,NA,incomplete,false,true,NA,5,18,E32_Q2_ansL.png,left,NA,NA,NA,left,1019,true,NA,NA,NA,NA,NA
jQPtn2Br,NA,NA,jQPtn2Br,2020-0188,2021-09-25,09:24:25,10:22:39,NA,incomplete,false,true,NA,5,19,E32_Q10_ansL.png,left,NA,NA,NA,left,2061,true,NA,NA,NA,NA,NA
jQPtn2Br,NA,NA,jQPtn2Br,2020-0188,2021-09-25,09:24:25,10:22:39,NA,incomplete,false,true,NA,5,20,E13_Q5_ansR.png,right,NA,NA,NA,right,1341.00000000023,true,NA,NA,NA,NA,NA
jQPtn2Br,NA,NA,jQPtn2Br,2020-0188,2021-09-25,09:24:25,10:22:39,NA,incomplete,false,true,NA,5,21,E13_Q3_ansR.png,right,NA,NA,NA,right,1320.00000000023,true,NA,NA,NA,NA,NA
jQPtn2Br,NA,NA,jQPtn2Br,2020-0188,2021-09-25,09:24:25,10:22:39,NA,incomplete,false,true,NA,5,22,E13_Q4_ansR.png,right,NA,NA,NA,right,1558,true,NA,NA,NA,NA,NA
jQPtn2Br,NA,NA,jQPtn2Br,2020-0188,2021-09-25,09:24:25,10:22:39,NA,incomplete,false,true,NA,5,23,E13_Q9_ansR.png,right,NA,NA,NA,right,964,true,NA,NA,NA,NA,NA
jQPtn2Br,NA,NA,jQPtn2Br,2020-0188,2021-09-25,09:24:25,10:22:39,NA,incomplete,false,true,NA,5,24,E13_Q1_ansL.png,left,NA,NA,NA,left,1534.99999999977,true,NA,NA,NA,NA,NA
jQPtn2Br,NA,NA,jQPtn2Br,2020-0188,2021-09-25,09:24:25,10:22:39,NA,incomplete,false,true,NA,5,25,E13_Q8_ansL.png,left,NA,NA,NA,left,1197.99999999977,true,NA,NA,NA,NA,NA
jQPtn2Br,NA,NA,jQPtn2Br,2020-0188,2021-09-25,09:24:25,10:22:39,NA,incomplete,false,true,NA,5,26,E13_Q6_ansR.png,right,NA,NA,NA,right,1299,true,NA,NA,NA,NA,NA
jQPtn2Br,NA,NA,jQPtn2Br,2020-0188,2021-09-25,09:24:25,10:22:39,NA,incomplete,false,true,NA,5,27,E13_Q7_ansL.png,left,NA,NA,NA,left,1210,true,NA,NA,NA,NA,NA
jQPtn2Br,NA,NA,jQPtn2Br,2020-0188,2021-09-25,09:24:25,10:22:39,NA,incomplete,false,true,NA,5,28,E13_Q2_ansL.png,left,NA,NA,NA,left,1484,true,NA,NA,NA,NA,NA
jQPtn2Br,NA,NA,jQPtn2Br,2020-0188,2021-09-25,09:24:25,10:22:39,NA,incomplete,false,true,NA,5,29,E13_Q10_ansL.png,left,NA,NA,NA,left,1366,true,NA,NA,NA,NA,NA
jQPtn2Br,NA,NA,jQPtn2Br,2020-0188,2021-09-25,09:24:25,10:22:39,NA,incomplete,false,NA,true,5,0,NA,right,E13_Q3_ansR.png,E32_Q2_ansL.png,between,NA,NaN,NA,right,2215,1,2,1279
jQPtn2Br,NA,NA,jQPtn2Br,2020-0188,2021-09-25,09:24:25,10:22:39,NA,incomplete,false,NA,true,5,1,NA,left,E30_Q8_ansL.png,E32_Q8_ansL.png,between,NA,NaN,NA,left,1023,1,2,876
jQPtn2Br,NA,NA,jQPtn2Br,2020-0188,2021-09-25,09:24:25,10:22:39,NA,incomplete,false,NA,true,5,2,NA,left,E30_Q9_ansL.png,E32_Q7_ansL.png,between,NA,NaN,NA,left,1358,1,2,1048
jQPtn2Br,NA,NA,jQPtn2Br,2020-0188,2021-09-25,09:24:25,10:22:39,NA,incomplete,false,NA,true,5,3,NA,left,E32_Q4_ansR.png,E32_Q2_ansL.png,within,NA,NaN,NA,right,1550,0,1,783
jQPtn2Br,NA,NA,jQPtn2Br,2020-0188,2021-09-25,09:24:25,10:22:39,NA,incomplete,false,NA,true,5,4,NA,left,E13_Q6_ansR.png,E13_Q10_ansL.png,within,NA,NaN,NA,left,1413,1,1,1100.9999999997672
jQPtn2Br,NA,NA,jQPtn2Br,2020-0188,2021-09-25,09:24:25,10:22:39,NA,incomplete,false,NA,true,5,5,NA,right,E32_Q9_ansR.png,E32_Q6_ansR.png,within,NA,NaN,NA,left,1866,0,2,1168
jQPtn2Br,NA,NA,jQPtn2Br,2020-0188,2021-09-25,09:24:25,10:22:39,NA,incomplete,false,NA,true,5,6,NA,left,E30_Q4_ansL.png,E30_Q5_ansR.png,within,NA,NaN,NA,left,1372,1,1,775
jQPtn2Br,NA,NA,jQPtn2Br,2020-0188,2021-09-25,09:24:25,10:22:39,NA,incomplete,false,NA,true,5,7,NA,left,E13_Q8_ansL.png,E13_Q2_ansL.png,within,NA,NaN,NA,left,1562,1,1,867
jQPtn2Br,NA,NA,jQPtn2Br,2020-0188,2021-09-25,09:24:25,10:22:39,NA,incomplete,false,NA,true,5,8,NA,left,E13_Q3_ansR.png,E13_Q1_ansL.png,within,NA,NaN,NA,left,963,1,1,707.0000000002328
jQPtn2Br,NA,NA,jQPtn2Br,2020-0188,2021-09-25,09:24:25,10:22:39,NA,incomplete,false,NA,true,5,9,NA,left,E32_Q8_ansL.png,E32_Q4_ansR.png,within,NA,NaN,NA,right,1033,0,1,1427
jQPtn2Br,NA,NA,jQPtn2Br,2020-0188,2021-09-25,09:24:25,10:22:39,NA,incomplete,false,NA,true,5,10,NA,left,E13_Q5_ansR.png,E13_Q9_ansR.png,within,NA,NaN,NA,left,1079,1,1,1101.0000000002328
jQPtn2Br,NA,NA,jQPtn2Br,2020-0188,2021-09-25,09:24:25,10:22:39,NA,incomplete,false,NA,true,5,11,NA,left,E30_Q5_ansR.png,E30_Q9_ansL.png,within,NA,NaN,NA,right,2067.000000000233,0,1,822
jQPtn2Br,NA,NA,jQPtn2Br,2020-0188,2021-09-25,09:24:25,10:22:39,NA,incomplete,false,NA,true,5,12,NA,right,E32_Q5_ansR.png,E30_Q6_ansR.png,between,NA,NaN,NA,left,966,0,2,1552.9999999997672
jQPtn2Br,NA,NA,jQPtn2Br,2020-0188,2021-09-25,09:24:25,10:22:39,NA,incomplete,false,NA,true,5,13,NA,right,E13_Q6_ansR.png,E13_Q9_ansR.png,within,NA,NaN,NA,right,1480,1,1,990
jQPtn2Br,NA,NA,jQPtn2Br,2020-0188,2021-09-25,09:24:25,10:22:39,NA,incomplete,false,NA,true,5,14,NA,right,E32_Q1_ansL.png,E32_Q5_ansR.png,within,NA,NaN,NA,right,1820,1,1,844
jQPtn2Br,NA,NA,jQPtn2Br,2020-0188,2021-09-25,09:24:25,10:22:39,NA,incomplete,false,NA,true,5,15,NA,right,E13_Q5_ansR.png,E32_Q9_ansR.png,between,NA,NaN,NA,right,1110,1,2,1573
jQPtn2Br,NA,NA,jQPtn2Br,2020-0188,2021-09-25,09:24:25,10:22:39,NA,incomplete,false,NA,true,5,16,NA,right,E13_Q8_ansL.png,E13_Q4_ansR.png,within,NA,NaN,NA,right,1639,1,1,1326
jQPtn2Br,NA,NA,jQPtn2Br,2020-0188,2021-09-25,09:24:25,10:22:39,NA,incomplete,false,NA,true,5,17,NA,left,E32_Q1_ansL.png,E32_Q3_ansR.png,within,NA,NaN,NA,left,2810,1,1,1780
jQPtn2Br,NA,NA,jQPtn2Br,2020-0188,2021-09-25,09:24:25,10:22:39,NA,incomplete,false,NA,true,5,18,NA,left,E30_Q3_ansL.png,E30_Q10_ansR.png,within,NA,NaN,NA,left,1290.9999999997672,1,1,1222.9999999997672
jQPtn2Br,NA,NA,jQPtn2Br,2020-0188,2021-09-25,09:24:25,10:22:39,NA,incomplete,false,NA,true,5,19,NA,left,E32_Q10_ansL.png,E13_Q4_ansR.png,between,NA,NaN,NA,left,1901.0000000002328,1,2,1157.9999999997672
jQPtn2Br,NA,NA,jQPtn2Br,2020-0188,2021-09-25,09:24:25,10:22:39,NA,incomplete,false,NA,true,5,20,NA,left,E30_Q10_ansR.png,E30_Q6_ansR.png,within,NA,NaN,NA,right,3327,0,1,1012.0000000002328
jQPtn2Br,NA,NA,jQPtn2Br,2020-0188,2021-09-25,09:24:25,10:22:39,NA,incomplete,false,NA,true,5,21,NA,left,E30_Q1_ansL.png,E30_Q2_ansL.png,within,NA,NaN,NA,left,953.9999999997672,1,1,2183
jQPtn2Br,NA,NA,jQPtn2Br,2020-0188,2021-09-25,09:24:25,10:22:39,NA,incomplete,false,NA,true,5,22,NA,right,E32_Q10_ansL.png,E32_Q3_ansR.png,within,NA,NaN,NA,right,2878,1,1,1033
jQPtn2Br,NA,NA,jQPtn2Br,2020-0188,2021-09-25,09:24:25,10:22:39,NA,incomplete,false,NA,true,5,23,NA,right,E13_Q7_ansL.png,E13_Q1_ansL.png,within,NA,NaN,NA,right,1471,1,1,808
jQPtn2Br,NA,NA,jQPtn2Br,2020-0188,2021-09-25,09:24:25,10:22:39,NA,incomplete,false,NA,true,5,24,NA,left,E32_Q7_ansL.png,E32_Q6_ansR.png,within,NA,NaN,NA,left,1335.0000000002328,1,1,919
jQPtn2Br,NA,NA,jQPtn2Br,2020-0188,2021-09-25,09:24:25,10:22:39,NA,incomplete,false,NA,true,5,25,NA,left,E30_Q2_ansL.png,E30_Q7_ansL.png,within,NA,NaN,NA,left,1517,1,0,1069.0000000002328
jQPtn2Br,NA,NA,jQPtn2Br,2020-0188,2021-09-25,09:24:25,10:22:39,NA,incomplete,false,NA,true,5,26,NA,left,E30_Q7_ansL.png,E30_Q8_ansL.png,within,NA,NaN,NA,right,3294.000000000233,0,1,799
jQPtn2Br,NA,NA,jQPtn2Br,2020-0188,2021-09-25,09:24:25,10:22:39,NA,incomplete,false,true,NA,6,0,E33_Q7_ansL.png,left,NA,NA,NA,left,2348,true,NA,NA,NA,NA,NA
jQPtn2Br,NA,NA,jQPtn2Br,2020-0188,2021-09-25,09:24:25,10:22:39,NA,incomplete,false,true,NA,6,1,E33_Q9_ansR.png,right,NA,NA,NA,right,1667.00000000023,true,NA,NA,NA,NA,NA
jQPtn2Br,NA,NA,jQPtn2Br,2020-0188,2021-09-25,09:24:25,10:22:39,NA,incomplete,false,true,NA,6,2,E33_Q2_ansL.png,left,NA,NA,NA,left,1536,true,NA,NA,NA,NA,NA
jQPtn2Br,NA,NA,jQPtn2Br,2020-0188,2021-09-25,09:24:25,10:22:39,NA,incomplete,false,true,NA,6,3,E33_Q10_ansL.png,left,NA,NA,NA,left,2850,true,NA,NA,NA,NA,NA
jQPtn2Br,NA,NA,jQPtn2Br,2020-0188,2021-09-25,09:24:25,10:22:39,NA,incomplete,false,true,NA,6,4,E33_Q3_ansR.png,right,NA,NA,NA,right,2518,true,NA,NA,NA,NA,NA
jQPtn2Br,NA,NA,jQPtn2Br,2020-0188,2021-09-25,09:24:25,10:22:39,NA,incomplete,false,true,NA,6,5,E33_Q1_ansL.png,left,NA,NA,NA,left,1240,true,NA,NA,NA,NA,NA
jQPtn2Br,NA,NA,jQPtn2Br,2020-0188,2021-09-25,09:24:25,10:22:39,NA,incomplete,false,true,NA,6,6,E33_Q4_ansR.png,right,NA,NA,NA,right,1789,true,NA,NA,NA,NA,NA
jQPtn2Br,NA,NA,jQPtn2Br,2020-0188,2021-09-25,09:24:25,10:22:39,NA,incomplete,false,true,NA,6,7,E33_Q8_ansL.png,left,NA,NA,NA,left,1871,true,NA,NA,NA,NA,NA
jQPtn2Br,NA,NA,jQPtn2Br,2020-0188,2021-09-25,09:24:25,10:22:39,NA,incomplete,false,true,NA,6,8,E33_Q5_ansR.png,right,NA,NA,NA,right,2009,true,NA,NA,NA,NA,NA
jQPtn2Br,NA,NA,jQPtn2Br,2020-0188,2021-09-25,09:24:25,10:22:39,NA,incomplete,false,true,NA,6,9,E33_Q6_ansR.png,right,NA,NA,NA,right,1694,true,NA,NA,NA,NA,NA
jQPtn2Br,NA,NA,jQPtn2Br,2020-0188,2021-09-25,09:24:25,10:22:39,NA,incomplete,false,true,NA,6,10,E31_Q1_ansR.png,right,NA,NA,NA,right,2004,true,NA,NA,NA,NA,NA
jQPtn2Br,NA,NA,jQPtn2Br,2020-0188,2021-09-25,09:24:25,10:22:39,NA,incomplete,false,true,NA,6,11,E31_Q5_ansL.png,left,NA,NA,NA,left,1333.00000000023,true,NA,NA,NA,NA,NA
jQPtn2Br,NA,NA,jQPtn2Br,2020-0188,2021-09-25,09:24:25,10:22:39,NA,incomplete,false,true,NA,6,12,E31_Q6_ansL.png,left,NA,NA,NA,left,1959,true,NA,NA,NA,NA,NA
jQPtn2Br,NA,NA,jQPtn2Br,2020-0188,2021-09-25,09:24:25,10:22:39,NA,incomplete,false,true,NA,6,13,E31_Q3_ansL.png,left,NA,NA,NA,left,1869.99999999977,true,NA,NA,NA,NA,NA
jQPtn2Br,NA,NA,jQPtn2Br,2020-0188,2021-09-25,09:24:25,10:22:39,NA,incomplete,false,true,NA,6,14,E31_Q4_ansL.png,left,NA,NA,NA,left,1597,true,NA,NA,NA,NA,NA
jQPtn2Br,NA,NA,jQPtn2Br,2020-0188,2021-09-25,09:24:25,10:22:39,NA,incomplete,false,true,NA,6,15,E31_Q10_ansR.png,right,NA,NA,NA,right,1830,true,NA,NA,NA,NA,NA
jQPtn2Br,NA,NA,jQPtn2Br,2020-0188,2021-09-25,09:24:25,10:22:39,NA,incomplete,false,true,NA,6,16,E31_Q8_ansR.png,right,NA,NA,NA,right,1251,true,NA,NA,NA,NA,NA
jQPtn2Br,NA,NA,jQPtn2Br,2020-0188,2021-09-25,09:24:25,10:22:39,NA,incomplete,false,true,NA,6,17,E31_Q2_ansR.png,right,NA,NA,NA,right,1432,true,NA,NA,NA,NA,NA
jQPtn2Br,NA,NA,jQPtn2Br,2020-0188,2021-09-25,09:24:25,10:22:39,NA,incomplete,false,true,NA,6,18,E31_Q9_ansL.png,left,NA,NA,NA,left,1646.00000000023,true,NA,NA,NA,NA,NA
jQPtn2Br,NA,NA,jQPtn2Br,2020-0188,2021-09-25,09:24:25,10:22:39,NA,incomplete,false,true,NA,6,19,E31_Q7_ansR.png,right,NA,NA,NA,right,1562.99999999977,true,NA,NA,NA,NA,NA
jQPtn2Br,NA,NA,jQPtn2Br,2020-0188,2021-09-25,09:24:25,10:22:39,NA,incomplete,false,true,NA,6,20,E5_Q3_ansR.png,right,NA,NA,NA,right,1689.00000000047,true,NA,NA,NA,NA,NA
jQPtn2Br,NA,NA,jQPtn2Br,2020-0188,2021-09-25,09:24:25,10:22:39,NA,incomplete,false,true,NA,6,21,E5_Q9_ansR.png,right,NA,NA,NA,right,1068.00000000023,true,NA,NA,NA,NA,NA
jQPtn2Br,NA,NA,jQPtn2Br,2020-0188,2021-09-25,09:24:25,10:22:39,NA,incomplete,false,true,NA,6,22,E5_Q2_ansL.png,left,NA,NA,NA,left,1529,true,NA,NA,NA,NA,NA
jQPtn2Br,NA,NA,jQPtn2Br,2020-0188,2021-09-25,09:24:25,10:22:39,NA,incomplete,false,true,NA,6,23,E5_Q6_ansR.png,right,NA,NA,NA,right,1201,true,NA,NA,NA,NA,NA
jQPtn2Br,NA,NA,jQPtn2Br,2020-0188,2021-09-25,09:24:25,10:22:39,NA,incomplete,false,true,NA,6,24,E5_Q4_ansR.png,right,NA,NA,NA,right,1121.99999999977,true,NA,NA,NA,NA,NA
jQPtn2Br,NA,NA,jQPtn2Br,2020-0188,2021-09-25,09:24:25,10:22:39,NA,incomplete,false,true,NA,6,25,E5_Q7_ansL.png,left,NA,NA,NA,right,1794.99999999953,false,NA,NA,NA,NA,NA
jQPtn2Br,NA,NA,jQPtn2Br,2020-0188,2021-09-25,09:24:25,10:22:39,NA,incomplete,false,true,NA,6,26,E5_Q5_ansR.png,right,NA,NA,NA,right,1684.00000000023,true,NA,NA,NA,NA,NA
jQPtn2Br,NA,NA,jQPtn2Br,2020-0188,2021-09-25,09:24:25,10:22:39,NA,incomplete,false,true,NA,6,27,E5_Q8_ansL.png,left,NA,NA,NA,left,2023.99999999977,true,NA,NA,NA,NA,NA
jQPtn2Br,NA,NA,jQPtn2Br,2020-0188,2021-09-25,09:24:25,10:22:39,NA,incomplete,false,true,NA,6,28,E5_Q10_ansR.png,right,NA,NA,NA,right,1499.00000000023,true,NA,NA,NA,NA,NA
jQPtn2Br,NA,NA,jQPtn2Br,2020-0188,2021-09-25,09:24:25,10:22:39,NA,incomplete,false,true,NA,6,29,E5_Q1_ansL.png,left,NA,NA,NA,left,1518.00000000023,true,NA,NA,NA,NA,NA
jQPtn2Br,NA,NA,jQPtn2Br,2020-0188,2021-09-25,09:24:25,10:22:39,NA,incomplete,false,NA,true,6,0,NA,left,E31_Q4_ansL.png,E31_Q2_ansR.png,within,NA,NaN,NA,right,2007,0,1,1278.0000000004657
jQPtn2Br,NA,NA,jQPtn2Br,2020-0188,2021-09-25,09:24:25,10:22:39,NA,incomplete,false,NA,true,6,1,NA,left,E31_Q6_ansL.png,E31_Q10_ansR.png,within,NA,NaN,NA,left,1692,1,1,1403
jQPtn2Br,NA,NA,jQPtn2Br,2020-0188,2021-09-25,09:24:25,10:22:39,NA,incomplete,false,NA,true,6,2,NA,right,E33_Q1_ansL.png,E33_Q2_ansL.png,within,NA,NaN,NA,right,2978.9999999995343,1,1,976
jQPtn2Br,NA,NA,jQPtn2Br,2020-0188,2021-09-25,09:24:25,10:22:39,NA,incomplete,false,NA,true,6,3,NA,right,E31_Q6_ansL.png,E33_Q6_ansR.png,between,NA,NaN,NA,right,1999,1,1,1440
jQPtn2Br,NA,NA,jQPtn2Br,2020-0188,2021-09-25,09:24:25,10:22:39,NA,incomplete,false,NA,true,6,4,NA,left,E5_Q2_ansL.png,E5_Q7_ansL.png,within,NA,NaN,NA,right,4034,0,1,1179
jQPtn2Br,NA,NA,jQPtn2Br,2020-0188,2021-09-25,09:24:25,10:22:39,NA,incomplete,false,NA,true,6,5,NA,right,E33_Q6_ansR.png,E33_Q4_ansR.png,within,NA,NaN,NA,right,1821,1,1,1217
jQPtn2Br,NA,NA,jQPtn2Br,2020-0188,2021-09-25,09:24:25,10:22:39,NA,incomplete,false,NA,true,6,6,NA,right,E5_Q6_ansR.png,E5_Q3_ansR.png,within,NA,NaN,NA,right,1069.9999999995343,1,1,886
jQPtn2Br,NA,NA,jQPtn2Br,2020-0188,2021-09-25,09:24:25,10:22:39,NA,incomplete,false,NA,true,6,7,NA,right,E31_Q1_ansR.png,E33_Q8_ansL.png,between,NA,NaN,NA,right,864,1,2,843
jQPtn2Br,NA,NA,jQPtn2Br,2020-0188,2021-09-25,09:24:25,10:22:39,NA,incomplete,false,NA,true,6,8,NA,left,E33_Q1_ansL.png,E33_Q5_ansR.png,within,NA,NaN,NA,left,2202,1,1,772.9999999995343
jQPtn2Br,NA,NA,jQPtn2Br,2020-0188,2021-09-25,09:24:25,10:22:39,NA,incomplete,false,NA,true,6,9,NA,left,E31_Q3_ansL.png,E31_Q8_ansR.png,within,NA,NaN,NA,right,2596,0,1,1234
jQPtn2Br,NA,NA,jQPtn2Br,2020-0188,2021-09-25,09:24:25,10:22:39,NA,incomplete,false,NA,true,6,10,NA,left,E31_Q7_ansR.png,E5_Q2_ansL.png,between,NA,NaN,NA,left,1213,1,2,957
jQPtn2Br,NA,NA,jQPtn2Br,2020-0188,2021-09-25,09:24:25,10:22:39,NA,incomplete,false,NA,true,6,11,NA,left,E5_Q9_ansR.png,E5_Q4_ansR.png,within,NA,NaN,NA,left,3114,1,1,1474
jQPtn2Br,NA,NA,jQPtn2Br,2020-0188,2021-09-25,09:24:25,10:22:39,NA,incomplete,false,NA,true,6,12,NA,left,E31_Q5_ansL.png,E31_Q4_ansL.png,within,NA,NaN,NA,left,2541,1,1,1108
jQPtn2Br,NA,NA,jQPtn2Br,2020-0188,2021-09-25,09:24:25,10:22:39,NA,incomplete,false,NA,true,6,13,NA,left,E5_Q6_ansR.png,E5_Q5_ansR.png,within,NA,NaN,NA,right,4419,0,1,1079
jQPtn2Br,NA,NA,jQPtn2Br,2020-0188,2021-09-25,09:24:25,10:22:39,NA,incomplete,false,NA,true,6,14,NA,right,E31_Q5_ansL.png,E33_Q5_ansR.png,between,NA,NaN,NA,right,1169.9999999995343,1,2,1258
jQPtn2Br,NA,NA,jQPtn2Br,2020-0188,2021-09-25,09:24:25,10:22:39,NA,incomplete,false,NA,true,6,15,NA,right,E5_Q1_ansL.png,E5_Q5_ansR.png,within,NA,NaN,NA,left,1277.9999999995343,0,1,2396
jQPtn2Br,NA,NA,jQPtn2Br,2020-0188,2021-09-25,09:24:25,10:22:39,NA,incomplete,false,NA,true,6,16,NA,left,E31_Q2_ansR.png,E5_Q3_ansR.png,between,NA,NaN,NA,left,1991,1,2,866
jQPtn2Br,NA,NA,jQPtn2Br,2020-0188,2021-09-25,09:24:25,10:22:39,NA,incomplete,false,NA,true,6,17,NA,left,E33_Q7_ansL.png,E33_Q10_ansL.png,within,NA,NaN,NA,left,1222,1,1,1055
jQPtn2Br,NA,NA,jQPtn2Br,2020-0188,2021-09-25,09:24:25,10:22:39,NA,incomplete,false,NA,true,6,18,NA,left,E33_Q9_ansR.png,E33_Q3_ansR.png,within,NA,NaN,NA,left,1212,1,1,1103
jQPtn2Br,NA,NA,jQPtn2Br,2020-0188,2021-09-25,09:24:25,10:22:39,NA,incomplete,false,NA,true,6,19,NA,right,E33_Q8_ansL.png,E33_Q3_ansR.png,within,NA,NaN,NA,left,2011,0,1,707
jQPtn2Br,NA,NA,jQPtn2Br,2020-0188,2021-09-25,09:24:25,10:22:39,NA,incomplete,false,NA,true,6,20,NA,right,E5_Q8_ansL.png,E5_Q4_ansR.png,within,NA,NaN,NA,right,1651,1,1,1011
jQPtn2Br,NA,NA,jQPtn2Br,2020-0188,2021-09-25,09:24:25,10:22:39,NA,incomplete,false,NA,true,6,21,NA,left,E31_Q8_ansR.png,E31_Q7_ansR.png,within,NA,NaN,NA,right,943,0,1,1099
jQPtn2Br,NA,NA,jQPtn2Br,2020-0188,2021-09-25,09:24:25,10:22:39,NA,incomplete,false,NA,true,6,22,NA,right,E33_Q4_ansR.png,E33_Q10_ansL.png,within,NA,NaN,NA,right,1863,1,1,2326
jQPtn2Br,NA,NA,jQPtn2Br,2020-0188,2021-09-25,09:24:25,10:22:39,NA,incomplete,false,NA,true,6,23,NA,left,E31_Q9_ansL.png,E5_Q9_ansR.png,between,NA,NaN,NA,left,1810,1,2,900
jQPtn2Br,NA,NA,jQPtn2Br,2020-0188,2021-09-25,09:24:25,10:22:39,NA,incomplete,false,NA,true,6,24,NA,right,E31_Q3_ansL.png,E31_Q1_ansR.png,within,NA,NaN,NA,right,1347.9999999995343,1,1,1036
jQPtn2Br,NA,NA,jQPtn2Br,2020-0188,2021-09-25,09:24:25,10:22:39,NA,incomplete,false,NA,true,6,25,NA,right,E31_Q9_ansL.png,E31_Q10_ansR.png,within,NA,NaN,NA,left,1662,0,1,1125
jQPtn2Br,NA,NA,jQPtn2Br,2020-0188,2021-09-25,09:24:25,10:22:39,NA,incomplete,false,NA,true,6,26,NA,right,E5_Q10_ansR.png,E5_Q7_ansL.png,within,NA,NaN,NA,right,1899,1,1,896
jQPtn2Br,NA,NA,jQPtn2Br,2020-0188,2021-09-25,09:24:25,10:22:39,NA,incomplete,false,true,NA,7,0,E4_Q2_ansL.png,left,NA,NA,NA,left,2087,true,NA,NA,NA,NA,NA
jQPtn2Br,NA,NA,jQPtn2Br,2020-0188,2021-09-25,09:24:25,10:22:39,NA,incomplete,false,true,NA,7,1,E4_Q9_ansL.png,left,NA,NA,NA,left,1165.00000000047,true,NA,NA,NA,NA,NA
jQPtn2Br,NA,NA,jQPtn2Br,2020-0188,2021-09-25,09:24:25,10:22:39,NA,incomplete,false,true,NA,7,2,E4_Q3_ansL.png,left,NA,NA,NA,left,1270,true,NA,NA,NA,NA,NA
jQPtn2Br,NA,NA,jQPtn2Br,2020-0188,2021-09-25,09:24:25,10:22:39,NA,incomplete,false,true,NA,7,3,E4_Q6_ansR.png,right,NA,NA,NA,right,1345.00000000047,true,NA,NA,NA,NA,NA
jQPtn2Br,NA,NA,jQPtn2Br,2020-0188,2021-09-25,09:24:25,10:22:39,NA,incomplete,false,true,NA,7,4,E4_Q1_ansL.png,left,NA,NA,NA,left,1213,true,NA,NA,NA,NA,NA
jQPtn2Br,NA,NA,jQPtn2Br,2020-0188,2021-09-25,09:24:25,10:22:39,NA,incomplete,false,true,NA,7,5,E4_Q4_ansL.png,left,NA,NA,NA,left,1100,true,NA,NA,NA,NA,NA
jQPtn2Br,NA,NA,jQPtn2Br,2020-0188,2021-09-25,09:24:25,10:22:39,NA,incomplete,false,true,NA,7,6,E4_Q7_ansR.png,right,NA,NA,NA,right,1406,true,NA,NA,NA,NA,NA
jQPtn2Br,NA,NA,jQPtn2Br,2020-0188,2021-09-25,09:24:25,10:22:39,NA,incomplete,false,true,NA,7,7,E4_Q5_ansR.png,right,NA,NA,NA,right,1331.00000000047,true,NA,NA,NA,NA,NA
jQPtn2Br,NA,NA,jQPtn2Br,2020-0188,2021-09-25,09:24:25,10:22:39,NA,incomplete,false,true,NA,7,8,E4_Q10_ansR.png,right,NA,NA,NA,right,1213,true,NA,NA,NA,NA,NA
jQPtn2Br,NA,NA,jQPtn2Br,2020-0188,2021-09-25,09:24:25,10:22:39,NA,incomplete,false,true,NA,7,9,E4_Q8_ansR.png,right,NA,NA,NA,right,1373.00000000047,true,NA,NA,NA,NA,NA
jQPtn2Br,NA,NA,jQPtn2Br,2020-0188,2021-09-25,09:24:25,10:22:39,NA,incomplete,false,true,NA,7,10,E15_Q8_ansL.png,left,NA,NA,NA,left,2609,true,NA,NA,NA,NA,NA
jQPtn2Br,NA,NA,jQPtn2Br,2020-0188,2021-09-25,09:24:25,10:22:39,NA,incomplete,false,true,NA,7,11,E15_Q3_ansR.png,right,NA,NA,NA,right,1595,true,NA,NA,NA,NA,NA
jQPtn2Br,NA,NA,jQPtn2Br,2020-0188,2021-09-25,09:24:25,10:22:39,NA,incomplete,false,true,NA,7,12,E15_Q5_ansR.png,right,NA,NA,NA,right,1182,true,NA,NA,NA,NA,NA
jQPtn2Br,NA,NA,jQPtn2Br,2020-0188,2021-09-25,09:24:25,10:22:39,NA,incomplete,false,true,NA,7,13,E15_Q2_ansL.png,left,NA,NA,NA,left,1003,true,NA,NA,NA,NA,NA
jQPtn2Br,NA,NA,jQPtn2Br,2020-0188,2021-09-25,09:24:25,10:22:39,NA,incomplete,false,true,NA,7,14,E15_Q4_ansR.png,right,NA,NA,NA,right,1417,true,NA,NA,NA,NA,NA
jQPtn2Br,NA,NA,jQPtn2Br,2020-0188,2021-09-25,09:24:25,10:22:39,NA,incomplete,false,true,NA,7,15,E15_Q9_ansR.png,right,NA,NA,NA,right,1528.00000000047,true,NA,NA,NA,NA,NA
jQPtn2Br,NA,NA,jQPtn2Br,2020-0188,2021-09-25,09:24:25,10:22:39,NA,incomplete,false,true,NA,7,16,E15_Q7_ansL.png,left,NA,NA,NA,left,1699.00000000047,true,NA,NA,NA,NA,NA
jQPtn2Br,NA,NA,jQPtn2Br,2020-0188,2021-09-25,09:24:25,10:22:39,NA,incomplete,false,true,NA,7,17,E15_Q6_ansR.png,right,NA,NA,NA,right,1708,true,NA,NA,NA,NA,NA
jQPtn2Br,NA,NA,jQPtn2Br,2020-0188,2021-09-25,09:24:25,10:22:39,NA,incomplete,false,true,NA,7,18,E15_Q1_ansL.png,left,NA,NA,NA,left,1989,true,NA,NA,NA,NA,NA
jQPtn2Br,NA,NA,jQPtn2Br,2020-0188,2021-09-25,09:24:25,10:22:39,NA,incomplete,false,true,NA,7,19,E15_Q10_ansL.png,left,NA,NA,NA,left,1140,true,NA,NA,NA,NA,NA
jQPtn2Br,NA,NA,jQPtn2Br,2020-0188,2021-09-25,09:24:25,10:22:39,NA,incomplete,false,true,NA,7,20,E20_Q6_ansR.png,right,NA,NA,NA,right,2616,true,NA,NA,NA,NA,NA
jQPtn2Br,NA,NA,jQPtn2Br,2020-0188,2021-09-25,09:24:25,10:22:39,NA,incomplete,false,true,NA,7,21,E20_Q3_ansR.png,right,NA,NA,NA,right,1380,true,NA,NA,NA,NA,NA
jQPtn2Br,NA,NA,jQPtn2Br,2020-0188,2021-09-25,09:24:25,10:22:39,NA,incomplete,false,true,NA,7,22,E20_Q5_ansR.png,right,NA,NA,NA,left,1241,false,NA,NA,NA,NA,NA
jQPtn2Br,NA,NA,jQPtn2Br,2020-0188,2021-09-25,09:24:25,10:22:39,NA,incomplete,false,true,NA,7,23,E20_Q4_ansR.png,right,NA,NA,NA,right,1240,true,NA,NA,NA,NA,NA
jQPtn2Br,NA,NA,jQPtn2Br,2020-0188,2021-09-25,09:24:25,10:22:39,NA,incomplete,false,true,NA,7,24,E20_Q2_ansL.png,left,NA,NA,NA,left,1717,true,NA,NA,NA,NA,NA
jQPtn2Br,NA,NA,jQPtn2Br,2020-0188,2021-09-25,09:24:25,10:22:39,NA,incomplete,false,true,NA,7,25,E20_Q1_ansL.png,left,NA,NA,NA,left,1202,true,NA,NA,NA,NA,NA
jQPtn2Br,NA,NA,jQPtn2Br,2020-0188,2021-09-25,09:24:25,10:22:39,NA,incomplete,false,true,NA,7,26,E20_Q8_ansL.png,left,NA,NA,NA,left,1309,true,NA,NA,NA,NA,NA
jQPtn2Br,NA,NA,jQPtn2Br,2020-0188,2021-09-25,09:24:25,10:22:39,NA,incomplete,false,true,NA,7,27,E20_Q9_ansR.png,right,NA,NA,NA,right,1074,true,NA,NA,NA,NA,NA
jQPtn2Br,NA,NA,jQPtn2Br,2020-0188,2021-09-25,09:24:25,10:22:39,NA,incomplete,false,true,NA,7,28,E20_Q10_ansL.png,left,NA,NA,NA,left,1645,true,NA,NA,NA,NA,NA
jQPtn2Br,NA,NA,jQPtn2Br,2020-0188,2021-09-25,09:24:25,10:22:39,NA,incomplete,false,true,NA,7,29,E20_Q7_ansL.png,left,NA,NA,NA,left,1162,true,NA,NA,NA,NA,NA
jQPtn2Br,NA,NA,jQPtn2Br,2020-0188,2021-09-25,09:24:25,10:22:39,NA,incomplete,false,NA,true,7,0,NA,left,E4_Q10_ansR.png,E15_Q3_ansR.png,between,NA,NaN,NA,left,1806,1,2,979
jQPtn2Br,NA,NA,jQPtn2Br,2020-0188,2021-09-25,09:24:25,10:22:39,NA,incomplete,false,NA,true,7,1,NA,left,E4_Q8_ansR.png,E15_Q5_ansR.png,between,NA,NaN,NA,left,1899,1,2,1211
jQPtn2Br,NA,NA,jQPtn2Br,2020-0188,2021-09-25,09:24:25,10:22:39,NA,incomplete,false,NA,true,7,2,NA,right,E4_Q6_ansR.png,E4_Q2_ansL.png,within,NA,NaN,NA,right,1371,1,1,1045
jQPtn2Br,NA,NA,jQPtn2Br,2020-0188,2021-09-25,09:24:25,10:22:39,NA,incomplete,false,NA,true,7,3,NA,right,E4_Q4_ansL.png,E4_Q3_ansL.png,within,NA,NaN,NA,right,1414,1,1,1045
jQPtn2Br,NA,NA,jQPtn2Br,2020-0188,2021-09-25,09:24:25,10:22:39,NA,incomplete,false,NA,true,7,4,NA,left,E4_Q4_ansL.png,E4_Q10_ansR.png,within,NA,NaN,NA,right,2932,0,1,1098
jQPtn2Br,NA,NA,jQPtn2Br,2020-0188,2021-09-25,09:24:25,10:22:39,NA,incomplete,false,NA,true,7,5,NA,left,E4_Q7_ansR.png,E4_Q8_ansR.png,within,NA,NaN,NA,right,3569,0,1,1099
jQPtn2Br,NA,NA,jQPtn2Br,2020-0188,2021-09-25,09:24:25,10:22:39,NA,incomplete,false,NA,true,7,6,NA,left,E4_Q6_ansR.png,E4_Q7_ansR.png,within,NA,NaN,NA,left,2615,1,1,1111.0000000004657
jQPtn2Br,NA,NA,jQPtn2Br,2020-0188,2021-09-25,09:24:25,10:22:39,NA,incomplete,false,NA,true,7,7,NA,left,E20_Q1_ansL.png,E20_Q10_ansL.png,within,NA,NaN,NA,left,1571,1,1,899
jQPtn2Br,NA,NA,jQPtn2Br,2020-0188,2021-09-25,09:24:25,10:22:39,NA,incomplete,false,NA,true,7,8,NA,left,E20_Q6_ansR.png,E20_Q4_ansR.png,within,NA,NaN,NA,left,1045.0000000004657,1,0,1811
jQPtn2Br,NA,NA,jQPtn2Br,2020-0188,2021-09-25,09:24:25,10:22:39,NA,incomplete,false,NA,true,7,9,NA,left,E15_Q2_ansL.png,E15_Q7_ansL.png,within,NA,NaN,NA,right,2368.9999999995343,0,1,912
jQPtn2Br,NA,NA,jQPtn2Br,2020-0188,2021-09-25,09:24:25,10:22:39,NA,incomplete,false,NA,true,7,10,NA,right,E15_Q1_ansL.png,E15_Q9_ansR.png,within,NA,NaN,NA,right,2102,1,1,833
jQPtn2Br,NA,NA,jQPtn2Br,2020-0188,2021-09-25,09:24:25,10:22:39,NA,incomplete,false,NA,true,7,11,NA,right,E20_Q8_ansL.png,E20_Q4_ansR.png,within,NA,NaN,NA,right,1280,1,1,1482
jQPtn2Br,NA,NA,jQPtn2Br,2020-0188,2021-09-25,09:24:25,10:22:39,NA,incomplete,false,NA,true,7,12,NA,left,E15_Q6_ansR.png,E20_Q6_ansR.png,between,NA,NaN,NA,left,1070,1,2,1822
jQPtn2Br,NA,NA,jQPtn2Br,2020-0188,2021-09-25,09:24:25,10:22:39,NA,incomplete,false,NA,true,7,13,NA,right,E15_Q9_ansR.png,E15_Q5_ansR.png,within,NA,NaN,NA,right,1488,1,1,1137
jQPtn2Br,NA,NA,jQPtn2Br,2020-0188,2021-09-25,09:24:25,10:22:39,NA,incomplete,false,NA,true,7,14,NA,left,E4_Q5_ansR.png,E15_Q8_ansL.png,between,NA,NaN,NA,left,1212,1,2,957
jQPtn2Br,NA,NA,jQPtn2Br,2020-0188,2021-09-25,09:24:25,10:22:39,NA,incomplete,false,NA,true,7,15,NA,left,E15_Q3_ansR.png,E15_Q4_ansR.png,within,NA,NaN,NA,left,1189,1,1,1108
jQPtn2Br,NA,NA,jQPtn2Br,2020-0188,2021-09-25,09:24:25,10:22:39,NA,incomplete,false,NA,true,7,16,NA,left,E4_Q1_ansL.png,E4_Q5_ansR.png,within,NA,NaN,NA,left,1155,1,1,686
jQPtn2Br,NA,NA,jQPtn2Br,2020-0188,2021-09-25,09:24:25,10:22:39,NA,incomplete,false,NA,true,7,17,NA,right,E20_Q2_ansL.png,E20_Q3_ansR.png,within,NA,NaN,NA,right,1719,1,1,1036
jQPtn2Br,NA,NA,jQPtn2Br,2020-0188,2021-09-25,09:24:25,10:22:39,NA,incomplete,false,NA,true,7,18,NA,right,E20_Q9_ansR.png,E20_Q2_ansL.png,within,NA,NaN,NA,right,2078,1,1,1204
jQPtn2Br,NA,NA,jQPtn2Br,2020-0188,2021-09-25,09:24:25,10:22:39,NA,incomplete,false,NA,true,7,19,NA,right,E20_Q5_ansR.png,E15_Q10_ansL.png,between,NA,NaN,NA,right,952,1,2,978
jQPtn2Br,NA,NA,jQPtn2Br,2020-0188,2021-09-25,09:24:25,10:22:39,NA,incomplete,false,NA,true,7,20,NA,right,E15_Q10_ansL.png,E15_Q7_ansL.png,within,NA,NaN,NA,left,2336,0,1,1381.9999999995343
jQPtn2Br,NA,NA,jQPtn2Br,2020-0188,2021-09-25,09:24:25,10:22:39,NA,incomplete,false,NA,true,7,21,NA,right,E20_Q7_ansL.png,E20_Q8_ansL.png,within,NA,NaN,NA,left,2720,0,1,776
jQPtn2Br,NA,NA,jQPtn2Br,2020-0188,2021-09-25,09:24:25,10:22:39,NA,incomplete,false,NA,true,7,22,NA,right,E15_Q6_ansR.png,E15_Q4_ansR.png,within,NA,NaN,NA,right,1671,1,1,898
jQPtn2Br,NA,NA,jQPtn2Br,2020-0188,2021-09-25,09:24:25,10:22:39,NA,incomplete,false,NA,true,7,23,NA,left,E20_Q5_ansR.png,E20_Q1_ansL.png,within,NA,NaN,NA,right,1348,0,1,942
jQPtn2Br,NA,NA,jQPtn2Br,2020-0188,2021-09-25,09:24:25,10:22:39,NA,incomplete,false,NA,true,7,24,NA,left,E15_Q8_ansL.png,E15_Q2_ansL.png,within,NA,NaN,NA,left,1301,1,1,862
jQPtn2Br,NA,NA,jQPtn2Br,2020-0188,2021-09-25,09:24:25,10:22:39,NA,incomplete,false,NA,true,7,25,NA,left,E15_Q1_ansL.png,E20_Q3_ansR.png,between,NA,NaN,NA,left,1099,1,2,956
jQPtn2Br,NA,NA,jQPtn2Br,2020-0188,2021-09-25,09:24:25,10:22:39,NA,incomplete,false,NA,true,7,26,NA,right,E4_Q1_ansL.png,E4_Q9_ansL.png,within,NA,NaN,NA,right,2980,1,1,1091
jQPtn2Br,NA,NA,jQPtn2Br,2020-0188,2021-09-25,09:24:25,10:22:39,NA,incomplete,false,true,NA,8,0,E14_Q1_ansL.png,left,NA,NA,NA,left,1623,true,NA,NA,NA,NA,NA
jQPtn2Br,NA,NA,jQPtn2Br,2020-0188,2021-09-25,09:24:25,10:22:39,NA,incomplete,false,true,NA,8,1,E14_Q8_ansL.png,left,NA,NA,NA,left,3232,true,NA,NA,NA,NA,NA
jQPtn2Br,NA,NA,jQPtn2Br,2020-0188,2021-09-25,09:24:25,10:22:39,NA,incomplete,false,true,NA,8,2,E14_Q3_ansR.png,right,NA,NA,NA,right,1126.00000000047,true,NA,NA,NA,NA,NA
jQPtn2Br,NA,NA,jQPtn2Br,2020-0188,2021-09-25,09:24:25,10:22:39,NA,incomplete,false,true,NA,8,3,E14_Q5_ansR.png,right,NA,NA,NA,right,1259,true,NA,NA,NA,NA,NA
jQPtn2Br,NA,NA,jQPtn2Br,2020-0188,2021-09-25,09:24:25,10:22:39,NA,incomplete,false,true,NA,8,4,E14_Q10_ansL.png,left,NA,NA,NA,left,1462,true,NA,NA,NA,NA,NA
jQPtn2Br,NA,NA,jQPtn2Br,2020-0188,2021-09-25,09:24:25,10:22:39,NA,incomplete,false,true,NA,8,5,E14_Q4_ansR.png,right,NA,NA,NA,right,1650,true,NA,NA,NA,NA,NA
jQPtn2Br,NA,NA,jQPtn2Br,2020-0188,2021-09-25,09:24:25,10:22:39,NA,incomplete,false,true,NA,8,6,E14_Q9_ansR.png,right,NA,NA,NA,right,1341,true,NA,NA,NA,NA,NA
jQPtn2Br,NA,NA,jQPtn2Br,2020-0188,2021-09-25,09:24:25,10:22:39,NA,incomplete,false,true,NA,8,7,E14_Q6_ansR.png,right,NA,NA,NA,right,1334,true,NA,NA,NA,NA,NA
jQPtn2Br,NA,NA,jQPtn2Br,2020-0188,2021-09-25,09:24:25,10:22:39,NA,incomplete,false,true,NA,8,8,E14_Q2_ansL.png,left,NA,NA,NA,left,1253.00000000047,true,NA,NA,NA,NA,NA
jQPtn2Br,NA,NA,jQPtn2Br,2020-0188,2021-09-25,09:24:25,10:22:39,NA,incomplete,false,true,NA,8,9,E14_Q7_ansL.png,left,NA,NA,NA,left,1302,true,NA,NA,NA,NA,NA
jQPtn2Br,NA,NA,jQPtn2Br,2020-0188,2021-09-25,09:24:25,10:22:39,NA,incomplete,false,true,NA,8,10,E2_Q10_ansL.png,left,NA,NA,NA,left,2484.00000000047,true,NA,NA,NA,NA,NA
jQPtn2Br,NA,NA,jQPtn2Br,2020-0188,2021-09-25,09:24:25,10:22:39,NA,incomplete,false,true,NA,8,11,E2_Q8_ansR.png,right,NA,NA,NA,right,1743.99999999953,true,NA,NA,NA,NA,NA
jQPtn2Br,NA,NA,jQPtn2Br,2020-0188,2021-09-25,09:24:25,10:22:39,NA,incomplete,false,true,NA,8,12,E2_Q1_ansL.png,left,NA,NA,NA,left,1849,true,NA,NA,NA,NA,NA
jQPtn2Br,NA,NA,jQPtn2Br,2020-0188,2021-09-25,09:24:25,10:22:39,NA,incomplete,false,true,NA,8,13,E2_Q2_ansR.png,right,NA,NA,NA,right,1900,true,NA,NA,NA,NA,NA
jQPtn2Br,NA,NA,jQPtn2Br,2020-0188,2021-09-25,09:24:25,10:22:39,NA,incomplete,false,true,NA,8,14,E2_Q9_ansL.png,left,NA,NA,NA,left,1723,true,NA,NA,NA,NA,NA
jQPtn2Br,NA,NA,jQPtn2Br,2020-0188,2021-09-25,09:24:25,10:22:39,NA,incomplete,false,true,NA,8,15,E2_Q6_ansL.png,left,NA,NA,NA,left,1971,true,NA,NA,NA,NA,NA
jQPtn2Br,NA,NA,jQPtn2Br,2020-0188,2021-09-25,09:24:25,10:22:39,NA,incomplete,false,true,NA,8,16,E2_Q5_ansL.png,left,NA,NA,NA,left,1701,true,NA,NA,NA,NA,NA
jQPtn2Br,NA,NA,jQPtn2Br,2020-0188,2021-09-25,09:24:25,10:22:39,NA,incomplete,false,true,NA,8,17,E2_Q4_ansL.png,left,NA,NA,NA,left,1850,true,NA,NA,NA,NA,NA
jQPtn2Br,NA,NA,jQPtn2Br,2020-0188,2021-09-25,09:24:25,10:22:39,NA,incomplete,false,true,NA,8,18,E2_Q7_ansR.png,right,NA,NA,NA,right,1593,true,NA,NA,NA,NA,NA
jQPtn2Br,NA,NA,jQPtn2Br,2020-0188,2021-09-25,09:24:25,10:22:39,NA,incomplete,false,true,NA,8,19,E2_Q3_ansR.png,right,NA,NA,NA,right,1209,true,NA,NA,NA,NA,NA
jQPtn2Br,NA,NA,jQPtn2Br,2020-0188,2021-09-25,09:24:25,10:22:39,NA,incomplete,false,true,NA,8,20,E10_Q8_ansR.png,right,NA,NA,NA,none,0,false,NA,NA,NA,NA,NA
jQPtn2Br,NA,NA,jQPtn2Br,2020-0188,2021-09-25,09:24:25,10:22:39,NA,incomplete,false,true,NA,8,21,E10_Q9_ansL.png,left,NA,NA,NA,right,1626.00000000047,false,NA,NA,NA,NA,NA
jQPtn2Br,NA,NA,jQPtn2Br,2020-0188,2021-09-25,09:24:25,10:22:39,NA,incomplete,false,true,NA,8,22,E10_Q5_ansR.png,right,NA,NA,NA,right,3273,true,NA,NA,NA,NA,NA
jQPtn2Br,NA,NA,jQPtn2Br,2020-0188,2021-09-25,09:24:25,10:22:39,NA,incomplete,false,true,NA,8,23,E10_Q1_ansL.png,left,NA,NA,NA,left,2514,true,NA,NA,NA,NA,NA
jQPtn2Br,NA,NA,jQPtn2Br,2020-0188,2021-09-25,09:24:25,10:22:39,NA,incomplete,false,true,NA,8,24,E10_Q2_ansL.png,left,NA,NA,NA,left,3008,true,NA,NA,NA,NA,NA
jQPtn2Br,NA,NA,jQPtn2Br,2020-0188,2021-09-25,09:24:25,10:22:39,NA,incomplete,false,true,NA,8,25,E10_Q4_ansL.png,left,NA,NA,NA,left,3280,true,NA,NA,NA,NA,NA
jQPtn2Br,NA,NA,jQPtn2Br,2020-0188,2021-09-25,09:24:25,10:22:39,NA,incomplete,false,true,NA,8,26,E10_Q7_ansR.png,right,NA,NA,NA,right,2611,true,NA,NA,NA,NA,NA
jQPtn2Br,NA,NA,jQPtn2Br,2020-0188,2021-09-25,09:24:25,10:22:39,NA,incomplete,false,true,NA,8,27,E10_Q6_ansR.png,right,NA,NA,NA,right,1831,true,NA,NA,NA,NA,NA
jQPtn2Br,NA,NA,jQPtn2Br,2020-0188,2021-09-25,09:24:25,10:22:39,NA,incomplete,false,true,NA,8,28,E10_Q3_ansL.png,left,NA,NA,NA,left,3484,true,NA,NA,NA,NA,NA
jQPtn2Br,NA,NA,jQPtn2Br,2020-0188,2021-09-25,09:24:25,10:22:39,NA,incomplete,false,true,NA,8,29,E10_Q10_ansR.png,right,NA,NA,NA,right,2540,true,NA,NA,NA,NA,NA
jQPtn2Br,NA,NA,jQPtn2Br,2020-0188,2021-09-25,09:24:25,10:22:39,NA,incomplete,false,NA,true,8,0,NA,right,E14_Q4_ansR.png,E14_Q3_ansR.png,within,NA,NaN,NA,right,1698,1,1,1194.9999999995343
jQPtn2Br,NA,NA,jQPtn2Br,2020-0188,2021-09-25,09:24:25,10:22:39,NA,incomplete,false,NA,true,8,1,NA,right,E10_Q8_ansR.png,E2_Q4_ansL.png,between,NA,NaN,NA,right,1475.9999999995343,1,2,1382
jQPtn2Br,NA,NA,jQPtn2Br,2020-0188,2021-09-25,09:24:25,10:22:39,NA,incomplete,false,NA,true,8,2,NA,right,E14_Q10_ansL.png,E14_Q8_ansL.png,within,NA,NaN,NA,right,1123.0000000004657,1,1,1159
jQPtn2Br,NA,NA,jQPtn2Br,2020-0188,2021-09-25,09:24:25,10:22:39,NA,incomplete,false,NA,true,8,3,NA,right,E2_Q6_ansL.png,E2_Q1_ansL.png,within,NA,NaN,NA,right,1932,1,1,1382
jQPtn2Br,NA,NA,jQPtn2Br,2020-0188,2021-09-25,09:24:25,10:22:39,NA,incomplete,false,NA,true,8,4,NA,right,E10_Q7_ansR.png,E10_Q1_ansL.png,within,NA,NaN,NA,right,4247.999999999534,1,1,832.0000000004657
jQPtn2Br,NA,NA,jQPtn2Br,2020-0188,2021-09-25,09:24:25,10:22:39,NA,incomplete,false,NA,true,8,5,NA,left,E10_Q5_ansR.png,E10_Q4_ansL.png,within,NA,NaN,NA,left,2335,1,1,1046
jQPtn2Br,NA,NA,jQPtn2Br,2020-0188,2021-09-25,09:24:25,10:22:39,NA,incomplete,false,NA,true,8,6,NA,left,E14_Q4_ansR.png,E14_Q2_ansL.png,within,NA,NaN,NA,left,3459.9999999995343,1,1,1080
jQPtn2Br,NA,NA,jQPtn2Br,2020-0188,2021-09-25,09:24:25,10:22:39,NA,incomplete,false,NA,true,8,7,NA,left,E14_Q2_ansL.png,E2_Q8_ansR.png,between,NA,NaN,NA,left,1693,1,2,1082
jQPtn2Br,NA,NA,jQPtn2Br,2020-0188,2021-09-25,09:24:25,10:22:39,NA,incomplete,false,NA,true,8,8,NA,right,E10_Q10_ansR.png,E10_Q7_ansR.png,within,NA,NaN,NA,right,1605,1,1,1459
jQPtn2Br,NA,NA,jQPtn2Br,2020-0188,2021-09-25,09:24:25,10:22:39,NA,incomplete,false,NA,true,8,9,NA,left,E2_Q7_ansR.png,E10_Q9_ansL.png,between,NA,NaN,NA,left,897.0000000004657,1,2,1563
jQPtn2Br,NA,NA,jQPtn2Br,2020-0188,2021-09-25,09:24:25,10:22:39,NA,incomplete,false,NA,true,8,10,NA,left,E14_Q10_ansL.png,E14_Q6_ansR.png,within,NA,NaN,NA,left,1401,1,1,1190
jQPtn2Br,NA,NA,jQPtn2Br,2020-0188,2021-09-25,09:24:25,10:22:39,NA,incomplete,false,NA,true,8,11,NA,right,E10_Q1_ansL.png,E10_Q8_ansR.png,within,NA,NaN,NA,right,2417,1,1,1058
jQPtn2Br,NA,NA,jQPtn2Br,2020-0188,2021-09-25,09:24:25,10:22:39,NA,incomplete,false,NA,true,8,12,NA,right,E14_Q7_ansL.png,E14_Q9_ansR.png,within,NA,NaN,NA,right,1867,1,1,1228
jQPtn2Br,NA,NA,jQPtn2Br,2020-0188,2021-09-25,09:24:25,10:22:39,NA,incomplete,false,NA,true,8,13,NA,right,E10_Q6_ansR.png,E10_Q2_ansL.png,within,NA,NaN,NA,right,1695.9999999995343,1,1,1103
jQPtn2Br,NA,NA,jQPtn2Br,2020-0188,2021-09-25,09:24:25,10:22:39,NA,incomplete,false,NA,true,8,14,NA,right,E14_Q5_ansR.png,E14_Q1_ansL.png,within,NA,NaN,NA,right,1548.9999999995343,1,1,1280.9999999995343
jQPtn2Br,NA,NA,jQPtn2Br,2020-0188,2021-09-25,09:24:25,10:22:39,NA,incomplete,false,NA,true,8,15,NA,right,E10_Q2_ansL.png,E10_Q9_ansL.png,within,NA,NaN,NA,right,2282,1,1,1088.9999999995343
jQPtn2Br,NA,NA,jQPtn2Br,2020-0188,2021-09-25,09:24:25,10:22:39,NA,incomplete,false,NA,true,8,16,NA,right,E10_Q5_ansR.png,E2_Q3_ansR.png,between,NA,NaN,NA,right,931,1,2,756
jQPtn2Br,NA,NA,jQPtn2Br,2020-0188,2021-09-25,09:24:25,10:22:39,NA,incomplete,false,NA,true,8,17,NA,left,E2_Q6_ansL.png,E2_Q7_ansR.png,within,NA,NaN,NA,right,1910,0,1,957
jQPtn2Br,NA,NA,jQPtn2Br,2020-0188,2021-09-25,09:24:25,10:22:39,NA,incomplete,false,NA,true,8,18,NA,right,E2_Q10_ansL.png,E14_Q6_ansR.png,between,NA,NaN,NA,right,1640,1,2,808
jQPtn2Br,NA,NA,jQPtn2Br,2020-0188,2021-09-25,09:24:25,10:22:39,NA,incomplete,false,NA,true,8,19,NA,left,E2_Q9_ansL.png,E2_Q4_ansL.png,within,NA,NaN,NA,right,1189,0,1,954.9999999995343
jQPtn2Br,NA,NA,jQPtn2Br,2020-0188,2021-09-25,09:24:25,10:22:39,NA,incomplete,false,NA,true,8,20,NA,left,E2_Q8_ansR.png,E2_Q9_ansL.png,within,NA,NaN,NA,left,1878,1,1,1857
jQPtn2Br,NA,NA,jQPtn2Br,2020-0188,2021-09-25,09:24:25,10:22:39,NA,incomplete,false,NA,true,8,21,NA,right,E14_Q9_ansR.png,E14_Q5_ansR.png,within,NA,NaN,NA,right,1054,1,1,1223
jQPtn2Br,NA,NA,jQPtn2Br,2020-0188,2021-09-25,09:24:25,10:22:39,NA,incomplete,false,NA,true,8,22,NA,left,E2_Q5_ansL.png,E2_Q3_ansR.png,within,NA,NaN,NA,right,1586,0,1,1652
jQPtn2Br,NA,NA,jQPtn2Br,2020-0188,2021-09-25,09:24:25,10:22:39,NA,incomplete,false,NA,true,8,23,NA,left,E2_Q2_ansR.png,E2_Q5_ansL.png,within,NA,NaN,NA,right,1934.0000000004657,0,1,1337
jQPtn2Br,NA,NA,jQPtn2Br,2020-0188,2021-09-25,09:24:25,10:22:39,NA,incomplete,false,NA,true,8,24,NA,left,E10_Q4_ansL.png,E10_Q3_ansL.png,within,NA,NaN,NA,left,1664,1,1,932
jQPtn2Br,NA,NA,jQPtn2Br,2020-0188,2021-09-25,09:24:25,10:22:39,NA,incomplete,false,NA,true,8,25,NA,right,E2_Q1_ansL.png,E14_Q7_ansL.png,between,NA,NaN,NA,right,977,1,2,1362.0000000004657
jQPtn2Br,NA,NA,jQPtn2Br,2020-0188,2021-09-25,09:24:25,10:22:39,NA,incomplete,false,NA,true,8,26,NA,right,E2_Q2_ansR.png,E2_Q10_ansL.png,within,NA,NaN,NA,right,1877.0000000004657,1,1,1227
jQPtn2Br,NA,NA,jQPtn2Br,2020-0188,2021-09-25,09:24:25,10:22:39,NA,incomplete,false,true,NA,9,0,E1_Q7_ansL.png,left,NA,NA,NA,left,1490,true,NA,NA,NA,NA,NA
jQPtn2Br,NA,NA,jQPtn2Br,2020-0188,2021-09-25,09:24:25,10:22:39,NA,incomplete,false,true,NA,9,1,E1_Q1_ansL.png,left,NA,NA,NA,left,1444,true,NA,NA,NA,NA,NA
jQPtn2Br,NA,NA,jQPtn2Br,2020-0188,2021-09-25,09:24:25,10:22:39,NA,incomplete,false,true,NA,9,2,E1_Q2_ansL.png,left,NA,NA,NA,left,966.000000000466,true,NA,NA,NA,NA,NA
jQPtn2Br,NA,NA,jQPtn2Br,2020-0188,2021-09-25,09:24:25,10:22:39,NA,incomplete,false,true,NA,9,3,E1_Q10_ansR.png,right,NA,NA,NA,right,1144.00000000047,true,NA,NA,NA,NA,NA
jQPtn2Br,NA,NA,jQPtn2Br,2020-0188,2021-09-25,09:24:25,10:22:39,NA,incomplete,false,true,NA,9,4,E1_Q4_ansL.png,left,NA,NA,NA,left,1391,true,NA,NA,NA,NA,NA
jQPtn2Br,NA,NA,jQPtn2Br,2020-0188,2021-09-25,09:24:25,10:22:39,NA,incomplete,false,true,NA,9,5,E1_Q3_ansR.png,right,NA,NA,NA,right,1128,true,NA,NA,NA,NA,NA
jQPtn2Br,NA,NA,jQPtn2Br,2020-0188,2021-09-25,09:24:25,10:22:39,NA,incomplete,false,true,NA,9,6,E1_Q5_ansR.png,right,NA,NA,NA,right,1137,true,NA,NA,NA,NA,NA
jQPtn2Br,NA,NA,jQPtn2Br,2020-0188,2021-09-25,09:24:25,10:22:39,NA,incomplete,false,true,NA,9,7,E1_Q6_ansR.png,right,NA,NA,NA,right,1347,true,NA,NA,NA,NA,NA
jQPtn2Br,NA,NA,jQPtn2Br,2020-0188,2021-09-25,09:24:25,10:22:39,NA,incomplete,false,true,NA,9,8,E1_Q8_ansR.png,right,NA,NA,NA,right,1073,true,NA,NA,NA,NA,NA
jQPtn2Br,NA,NA,jQPtn2Br,2020-0188,2021-09-25,09:24:25,10:22:39,NA,incomplete,false,true,NA,9,9,E1_Q9_ansL.png,left,NA,NA,NA,left,1354,true,NA,NA,NA,NA,NA
jQPtn2Br,NA,NA,jQPtn2Br,2020-0188,2021-09-25,09:24:25,10:22:39,NA,incomplete,false,true,NA,9,10,E18_Q3_ansR.png,right,NA,NA,NA,right,1561,true,NA,NA,NA,NA,NA
jQPtn2Br,NA,NA,jQPtn2Br,2020-0188,2021-09-25,09:24:25,10:22:39,NA,incomplete,false,true,NA,9,11,E18_Q10_ansL.png,left,NA,NA,NA,left,1146,true,NA,NA,NA,NA,NA
jQPtn2Br,NA,NA,jQPtn2Br,2020-0188,2021-09-25,09:24:25,10:22:39,NA,incomplete,false,true,NA,9,12,E18_Q9_ansR.png,right,NA,NA,NA,right,1235,true,NA,NA,NA,NA,NA
jQPtn2Br,NA,NA,jQPtn2Br,2020-0188,2021-09-25,09:24:25,10:22:39,NA,incomplete,false,true,NA,9,13,E18_Q1_ansL.png,left,NA,NA,NA,left,1100.00000000047,true,NA,NA,NA,NA,NA
jQPtn2Br,NA,NA,jQPtn2Br,2020-0188,2021-09-25,09:24:25,10:22:39,NA,incomplete,false,true,NA,9,14,E18_Q7_ansL.png,left,NA,NA,NA,left,1120,true,NA,NA,NA,NA,NA
jQPtn2Br,NA,NA,jQPtn2Br,2020-0188,2021-09-25,09:24:25,10:22:39,NA,incomplete,false,true,NA,9,15,E18_Q6_ansR.png,right,NA,NA,NA,right,1368,true,NA,NA,NA,NA,NA
jQPtn2Br,NA,NA,jQPtn2Br,2020-0188,2021-09-25,09:24:25,10:22:39,NA,incomplete,false,true,NA,9,16,E18_Q5_ansR.png,right,NA,NA,NA,right,1494,true,NA,NA,NA,NA,NA
jQPtn2Br,NA,NA,jQPtn2Br,2020-0188,2021-09-25,09:24:25,10:22:39,NA,incomplete,false,true,NA,9,17,E18_Q4_ansR.png,right,NA,NA,NA,right,1502,true,NA,NA,NA,NA,NA
jQPtn2Br,NA,NA,jQPtn2Br,2020-0188,2021-09-25,09:24:25,10:22:39,NA,incomplete,false,true,NA,9,18,E18_Q8_ansL.png,left,NA,NA,NA,left,1507,true,NA,NA,NA,NA,NA
jQPtn2Br,NA,NA,jQPtn2Br,2020-0188,2021-09-25,09:24:25,10:22:39,NA,incomplete,false,true,NA,9,19,E18_Q2_ansL.png,left,NA,NA,NA,left,947,true,NA,NA,NA,NA,NA
jQPtn2Br,NA,NA,jQPtn2Br,2020-0188,2021-09-25,09:24:25,10:22:39,NA,incomplete,false,true,NA,9,20,E3_Q8_ansL.png,left,NA,NA,NA,left,1516,true,NA,NA,NA,NA,NA
jQPtn2Br,NA,NA,jQPtn2Br,2020-0188,2021-09-25,09:24:25,10:22:39,NA,incomplete,false,true,NA,9,21,E3_Q4_ansL.png,left,NA,NA,NA,left,1099,true,NA,NA,NA,NA,NA
jQPtn2Br,NA,NA,jQPtn2Br,2020-0188,2021-09-25,09:24:25,10:22:39,NA,incomplete,false,true,NA,9,22,E3_Q5_ansR.png,right,NA,NA,NA,right,1272,true,NA,NA,NA,NA,NA
jQPtn2Br,NA,NA,jQPtn2Br,2020-0188,2021-09-25,09:24:25,10:22:39,NA,incomplete,false,true,NA,9,23,E3_Q2_ansL.png,left,NA,NA,NA,left,1136,true,NA,NA,NA,NA,NA
jQPtn2Br,NA,NA,jQPtn2Br,2020-0188,2021-09-25,09:24:25,10:22:39,NA,incomplete,false,true,NA,9,24,E3_Q9_ansL.png,left,NA,NA,NA,left,1388.00000000047,true,NA,NA,NA,NA,NA
jQPtn2Br,NA,NA,jQPtn2Br,2020-0188,2021-09-25,09:24:25,10:22:39,NA,incomplete,false,true,NA,9,25,E3_Q7_ansL.png,left,NA,NA,NA,left,1258,true,NA,NA,NA,NA,NA
jQPtn2Br,NA,NA,jQPtn2Br,2020-0188,2021-09-25,09:24:25,10:22:39,NA,incomplete,false,true,NA,9,26,E3_Q3_ansR.png,right,NA,NA,NA,right,1629.00000000047,true,NA,NA,NA,NA,NA
jQPtn2Br,NA,NA,jQPtn2Br,2020-0188,2021-09-25,09:24:25,10:22:39,NA,incomplete,false,true,NA,9,27,E3_Q1_ansR.png,right,NA,NA,NA,right,1522.00000000047,true,NA,NA,NA,NA,NA
jQPtn2Br,NA,NA,jQPtn2Br,2020-0188,2021-09-25,09:24:25,10:22:39,NA,incomplete,false,true,NA,9,28,E3_Q10_ansR.png,right,NA,NA,NA,right,1383,true,NA,NA,NA,NA,NA
jQPtn2Br,NA,NA,jQPtn2Br,2020-0188,2021-09-25,09:24:25,10:22:39,NA,incomplete,false,true,NA,9,29,E3_Q6_ansR.png,right,NA,NA,NA,right,1508,true,NA,NA,NA,NA,NA
jQPtn2Br,NA,NA,jQPtn2Br,2020-0188,2021-09-25,09:24:25,10:22:39,NA,incomplete,false,NA,true,9,0,NA,right,E3_Q2_ansL.png,E3_Q8_ansL.png,within,NA,NaN,NA,right,2270,1,1,1753
jQPtn2Br,NA,NA,jQPtn2Br,2020-0188,2021-09-25,09:24:25,10:22:39,NA,incomplete,false,NA,true,9,1,NA,right,E18_Q9_ansR.png,E1_Q9_ansL.png,between,NA,NaN,NA,right,828.9999999995343,1,2,1246
jQPtn2Br,NA,NA,jQPtn2Br,2020-0188,2021-09-25,09:24:25,10:22:39,NA,incomplete,false,NA,true,9,2,NA,right,E18_Q5_ansR.png,E18_Q1_ansL.png,within,NA,NaN,NA,right,1194,1,1,856
jQPtn2Br,NA,NA,jQPtn2Br,2020-0188,2021-09-25,09:24:25,10:22:39,NA,incomplete,false,NA,true,9,3,NA,left,E1_Q10_ansR.png,E1_Q5_ansR.png,within,NA,NaN,NA,right,2036,0,1,1182
jQPtn2Br,NA,NA,jQPtn2Br,2020-0188,2021-09-25,09:24:25,10:22:39,NA,incomplete,false,NA,true,9,4,NA,right,E3_Q4_ansL.png,E18_Q8_ansL.png,between,NA,NaN,NA,right,1203.9999999995343,1,2,1045
jQPtn2Br,NA,NA,jQPtn2Br,2020-0188,2021-09-25,09:24:25,10:22:39,NA,incomplete,false,NA,true,9,5,NA,left,E18_Q5_ansR.png,E18_Q2_ansL.png,within,NA,NaN,NA,left,1193,1,1,989
jQPtn2Br,NA,NA,jQPtn2Br,2020-0188,2021-09-25,09:24:25,10:22:39,NA,incomplete,false,NA,true,9,6,NA,right,E18_Q3_ansR.png,E1_Q6_ansR.png,between,NA,NaN,NA,right,1244.9999999995343,1,2,3126
jQPtn2Br,NA,NA,jQPtn2Br,2020-0188,2021-09-25,09:24:25,10:22:39,NA,incomplete,false,NA,true,9,7,NA,left,E1_Q1_ansL.png,E1_Q4_ansL.png,within,NA,NaN,NA,left,1585,1,1,2260
jQPtn2Br,NA,NA,jQPtn2Br,2020-0188,2021-09-25,09:24:25,10:22:39,NA,incomplete,false,NA,true,9,8,NA,right,E18_Q6_ansR.png,E18_Q9_ansR.png,within,NA,NaN,NA,right,1288.9999999995343,1,1,810.9999999995343
jQPtn2Br,NA,NA,jQPtn2Br,2020-0188,2021-09-25,09:24:25,10:22:39,NA,incomplete,false,NA,true,9,9,NA,right,E18_Q8_ansL.png,E18_Q6_ansR.png,within,NA,NaN,NA,right,1155,1,1,1122
jQPtn2Br,NA,NA,jQPtn2Br,2020-0188,2021-09-25,09:24:25,10:22:39,NA,incomplete,false,NA,true,9,10,NA,right,E1_Q8_ansR.png,E1_Q3_ansR.png,within,NA,NaN,NA,left,4292.999999999534,0,1,843.0000000004657
jQPtn2Br,NA,NA,jQPtn2Br,2020-0188,2021-09-25,09:24:25,10:22:39,NA,incomplete,false,NA,true,9,11,NA,right,E3_Q10_ansR.png,E3_Q7_ansL.png,within,NA,NaN,NA,right,2552,1,1,1012
jQPtn2Br,NA,NA,jQPtn2Br,2020-0188,2021-09-25,09:24:25,10:22:39,NA,incomplete,false,NA,true,9,12,NA,right,E1_Q10_ansR.png,E1_Q7_ansL.png,within,NA,NaN,NA,left,2055,0,1,1134
jQPtn2Br,NA,NA,jQPtn2Br,2020-0188,2021-09-25,09:24:25,10:22:39,NA,incomplete,false,NA,true,9,13,NA,right,E3_Q8_ansL.png,E18_Q4_ansR.png,between,NA,NaN,NA,right,1189.0000000004657,1,2,784
jQPtn2Br,NA,NA,jQPtn2Br,2020-0188,2021-09-25,09:24:25,10:22:39,NA,incomplete,false,NA,true,9,14,NA,left,E18_Q10_ansL.png,E18_Q7_ansL.png,within,NA,NaN,NA,left,1134,1,1,1306
jQPtn2Br,NA,NA,jQPtn2Br,2020-0188,2021-09-25,09:24:25,10:22:39,NA,incomplete,false,NA,true,9,15,NA,left,E18_Q3_ansR.png,E18_Q1_ansL.png,within,NA,NaN,NA,left,1189,1,1,1081
jQPtn2Br,NA,NA,jQPtn2Br,2020-0188,2021-09-25,09:24:25,10:22:39,NA,incomplete,false,NA,true,9,16,NA,left,E1_Q2_ansL.png,E1_Q3_ansR.png,within,NA,NaN,NA,right,1100,0,1,1248
jQPtn2Br,NA,NA,jQPtn2Br,2020-0188,2021-09-25,09:24:25,10:22:39,NA,incomplete,false,NA,true,9,17,NA,right,E3_Q5_ansR.png,E18_Q2_ansL.png,between,NA,NaN,NA,right,2959,1,2,2012
jQPtn2Br,NA,NA,jQPtn2Br,2020-0188,2021-09-25,09:24:25,10:22:39,NA,incomplete,false,NA,true,9,18,NA,left,E3_Q5_ansR.png,E3_Q7_ansL.png,within,NA,NaN,NA,left,1653,1,1,1077
jQPtn2Br,NA,NA,jQPtn2Br,2020-0188,2021-09-25,09:24:25,10:22:39,NA,incomplete,false,NA,true,9,19,NA,right,E18_Q10_ansL.png,E1_Q8_ansR.png,between,NA,NaN,NA,right,1179,1,2,1573
jQPtn2Br,NA,NA,jQPtn2Br,2020-0188,2021-09-25,09:24:25,10:22:39,NA,incomplete,false,NA,true,9,20,NA,right,E1_Q9_ansL.png,E1_Q5_ansR.png,within,NA,NaN,NA,right,1374.0000000004657,1,1,920
jQPtn2Br,NA,NA,jQPtn2Br,2020-0188,2021-09-25,09:24:25,10:22:39,NA,incomplete,false,NA,true,9,21,NA,right,E1_Q6_ansR.png,E1_Q4_ansL.png,within,NA,NaN,NA,right,1088,1,1,1100.9999999995343
jQPtn2Br,NA,NA,jQPtn2Br,2020-0188,2021-09-25,09:24:25,10:22:39,NA,incomplete,false,NA,true,9,22,NA,right,E3_Q1_ansR.png,E3_Q9_ansL.png,within,NA,NaN,NA,right,1213.0000000004657,1,1,1284.0000000004657
jQPtn2Br,NA,NA,jQPtn2Br,2020-0188,2021-09-25,09:24:25,10:22:39,NA,incomplete,false,NA,true,9,23,NA,left,E18_Q7_ansL.png,E18_Q4_ansR.png,within,NA,NaN,NA,right,1904,0,1,1205
jQPtn2Br,NA,NA,jQPtn2Br,2020-0188,2021-09-25,09:24:25,10:22:39,NA,incomplete,false,NA,true,9,24,NA,left,E3_Q2_ansL.png,E3_Q3_ansR.png,within,NA,NaN,NA,left,3203,1,1,1322
jQPtn2Br,NA,NA,jQPtn2Br,2020-0188,2021-09-25,09:24:25,10:22:39,NA,incomplete,false,NA,true,9,25,NA,left,E3_Q4_ansL.png,E3_Q9_ansL.png,within,NA,NaN,NA,left,1392.0000000004657,1,1,1203
jQPtn2Br,NA,NA,jQPtn2Br,2020-0188,2021-09-25,09:24:25,10:22:39,NA,incomplete,false,NA,true,9,26,NA,left,E3_Q3_ansR.png,E3_Q6_ansR.png,within,NA,NaN,NA,right,998.9999999995343,0,1,918
jQPtn2Br,NA,NA,jQPtn2Br,2020-0188,2021-09-25,09:24:25,10:22:39,NA,incomplete,false,true,NA,10,0,E27_Q10_ansL.png,left,NA,NA,NA,left,1761.99999999953,true,NA,NA,NA,NA,NA
jQPtn2Br,NA,NA,jQPtn2Br,2020-0188,2021-09-25,09:24:25,10:22:39,NA,incomplete,false,true,NA,10,1,E27_Q2_ansL.png,left,NA,NA,NA,left,991,true,NA,NA,NA,NA,NA
jQPtn2Br,NA,NA,jQPtn2Br,2020-0188,2021-09-25,09:24:25,10:22:39,NA,incomplete,false,true,NA,10,2,E27_Q9_ansR.png,right,NA,NA,NA,right,1520,true,NA,NA,NA,NA,NA
jQPtn2Br,NA,NA,jQPtn2Br,2020-0188,2021-09-25,09:24:25,10:22:39,NA,incomplete,false,true,NA,10,3,E27_Q5_ansR.png,right,NA,NA,NA,right,776.000000000466,true,NA,NA,NA,NA,NA
jQPtn2Br,NA,NA,jQPtn2Br,2020-0188,2021-09-25,09:24:25,10:22:39,NA,incomplete,false,true,NA,10,4,E27_Q6_ansR.png,right,NA,NA,NA,right,924,true,NA,NA,NA,NA,NA
jQPtn2Br,NA,NA,jQPtn2Br,2020-0188,2021-09-25,09:24:25,10:22:39,NA,incomplete,false,true,NA,10,5,E27_Q7_ansL.png,left,NA,NA,NA,left,1415,true,NA,NA,NA,NA,NA
jQPtn2Br,NA,NA,jQPtn2Br,2020-0188,2021-09-25,09:24:25,10:22:39,NA,incomplete,false,true,NA,10,6,E27_Q4_ansR.png,right,NA,NA,NA,right,1859,true,NA,NA,NA,NA,NA
jQPtn2Br,NA,NA,jQPtn2Br,2020-0188,2021-09-25,09:24:25,10:22:39,NA,incomplete,false,true,NA,10,7,E27_Q3_ansR.png,right,NA,NA,NA,right,1465.99999999953,true,NA,NA,NA,NA,NA
jQPtn2Br,NA,NA,jQPtn2Br,2020-0188,2021-09-25,09:24:25,10:22:39,NA,incomplete,false,true,NA,10,8,E27_Q1_ansL.png,left,NA,NA,NA,left,1746.00000000047,true,NA,NA,NA,NA,NA
jQPtn2Br,NA,NA,jQPtn2Br,2020-0188,2021-09-25,09:24:25,10:22:39,NA,incomplete,false,true,NA,10,9,E27_Q8_ansL.png,left,NA,NA,NA,left,887,true,NA,NA,NA,NA,NA
jQPtn2Br,NA,NA,jQPtn2Br,2020-0188,2021-09-25,09:24:25,10:22:39,NA,incomplete,false,true,NA,10,10,E19_Q1_ansL.png,left,NA,NA,NA,left,1395,true,NA,NA,NA,NA,NA
jQPtn2Br,NA,NA,jQPtn2Br,2020-0188,2021-09-25,09:24:25,10:22:39,NA,incomplete,false,true,NA,10,11,E19_Q7_ansL.png,left,NA,NA,NA,left,1098,true,NA,NA,NA,NA,NA
jQPtn2Br,NA,NA,jQPtn2Br,2020-0188,2021-09-25,09:24:25,10:22:39,NA,incomplete,false,true,NA,10,12,E19_Q2_ansL.png,left,NA,NA,NA,left,844.000000000466,true,NA,NA,NA,NA,NA
jQPtn2Br,NA,NA,jQPtn2Br,2020-0188,2021-09-25,09:24:25,10:22:39,NA,incomplete,false,true,NA,10,13,E19_Q10_ansL.png,left,NA,NA,NA,left,1561,true,NA,NA,NA,NA,NA
jQPtn2Br,NA,NA,jQPtn2Br,2020-0188,2021-09-25,09:24:25,10:22:39,NA,incomplete,false,true,NA,10,14,E19_Q9_ansR.png,right,NA,NA,NA,right,1153,true,NA,NA,NA,NA,NA
jQPtn2Br,NA,NA,jQPtn2Br,2020-0188,2021-09-25,09:24:25,10:22:39,NA,incomplete,false,true,NA,10,15,E19_Q3_ansR.png,right,NA,NA,NA,right,969,true,NA,NA,NA,NA,NA
jQPtn2Br,NA,NA,jQPtn2Br,2020-0188,2021-09-25,09:24:25,10:22:39,NA,incomplete,false,true,NA,10,16,E19_Q6_ansR.png,right,NA,NA,NA,right,1244.00000000047,true,NA,NA,NA,NA,NA
jQPtn2Br,NA,NA,jQPtn2Br,2020-0188,2021-09-25,09:24:25,10:22:39,NA,incomplete,false,true,NA,10,17,E19_Q5_ansR.png,right,NA,NA,NA,right,1389,true,NA,NA,NA,NA,NA
jQPtn2Br,NA,NA,jQPtn2Br,2020-0188,2021-09-25,09:24:25,10:22:39,NA,incomplete,false,true,NA,10,18,E19_Q8_ansL.png,left,NA,NA,NA,left,1633,true,NA,NA,NA,NA,NA
jQPtn2Br,NA,NA,jQPtn2Br,2020-0188,2021-09-25,09:24:25,10:22:39,NA,incomplete,false,true,NA,10,19,E19_Q4_ansR.png,right,NA,NA,NA,right,2694,true,NA,NA,NA,NA,NA
jQPtn2Br,NA,NA,jQPtn2Br,2020-0188,2021-09-25,09:24:25,10:22:39,NA,incomplete,false,true,NA,10,20,E26_Q2_ansL.png,left,NA,NA,NA,left,1936.00000000047,true,NA,NA,NA,NA,NA
jQPtn2Br,NA,NA,jQPtn2Br,2020-0188,2021-09-25,09:24:25,10:22:39,NA,incomplete,false,true,NA,10,21,E26_Q8_ansL.png,left,NA,NA,NA,left,2052.00000000047,true,NA,NA,NA,NA,NA
jQPtn2Br,NA,NA,jQPtn2Br,2020-0188,2021-09-25,09:24:25,10:22:39,NA,incomplete,false,true,NA,10,22,E26_Q6_ansR.png,right,NA,NA,NA,right,1840.00000000047,true,NA,NA,NA,NA,NA
jQPtn2Br,NA,NA,jQPtn2Br,2020-0188,2021-09-25,09:24:25,10:22:39,NA,incomplete,false,true,NA,10,23,E26_Q7_ansL.png,left,NA,NA,NA,left,1528,true,NA,NA,NA,NA,NA
jQPtn2Br,NA,NA,jQPtn2Br,2020-0188,2021-09-25,09:24:25,10:22:39,NA,incomplete,false,true,NA,10,24,E26_Q5_ansR.png,right,NA,NA,NA,right,2277,true,NA,NA,NA,NA,NA
