workerId,hitId,assignmentId,subject,studyid,exp_date,exp_start,exp_end,time_start,time_end,practice,encoding,memory,block,trial,stim,answer,left_image,right_image,condition,response,response_time,response_acc,order_response,order_response_time,order_acc,distance_response,distance_response_time
jrxNJuhD,NA,NA,jrxNJuhD,2020-0188,2021-11-11,13:16:25,23:49:51,NA,incomplete,true,true,NA,0,0,E23_Q6_ansR.png,right,NA,NA,NA,right,1481.5,true,NA,NA,NA,NA,NA
jrxNJuhD,NA,NA,jrxNJuhD,2020-0188,2021-11-11,13:16:25,23:49:51,NA,incomplete,true,true,NA,0,1,E23_Q4_ansR.png,right,NA,NA,NA,right,1614.59999999998,true,NA,NA,NA,NA,NA
jrxNJuhD,NA,NA,jrxNJuhD,2020-0188,2021-11-11,13:16:25,23:49:51,NA,incomplete,true,true,NA,0,2,E23_Q7_ansL.png,left,NA,NA,NA,left,1258.10000000009,true,NA,NA,NA,NA,NA
jrxNJuhD,NA,NA,jrxNJuhD,2020-0188,2021-11-11,13:16:25,23:49:51,NA,incomplete,true,true,NA,0,3,E23_Q10_ansL.png,left,NA,NA,NA,left,1084.40000000002,true,NA,NA,NA,NA,NA
jrxNJuhD,NA,NA,jrxNJuhD,2020-0188,2021-11-11,13:16:25,23:49:51,NA,incomplete,true,true,NA,0,4,E23_Q5_ansR.png,right,NA,NA,NA,right,1207.79999999993,true,NA,NA,NA,NA,NA
jrxNJuhD,NA,NA,jrxNJuhD,2020-0188,2021-11-11,13:16:25,23:49:51,NA,incomplete,true,true,NA,0,5,E23_Q1_ansL.png,left,NA,NA,NA,left,1241,true,NA,NA,NA,NA,NA
jrxNJuhD,NA,NA,jrxNJuhD,2020-0188,2021-11-11,13:16:25,23:49:51,NA,incomplete,true,true,NA,0,6,E23_Q9_ansR.png,right,NA,NA,NA,right,1202.40000000002,true,NA,NA,NA,NA,NA
jrxNJuhD,NA,NA,jrxNJuhD,2020-0188,2021-11-11,13:16:25,23:49:51,NA,incomplete,true,true,NA,0,7,E23_Q2_ansL.png,left,NA,NA,NA,left,1171.5,true,NA,NA,NA,NA,NA
jrxNJuhD,NA,NA,jrxNJuhD,2020-0188,2021-11-11,13:16:25,23:49:51,NA,incomplete,true,true,NA,0,8,E23_Q3_ansR.png,right,NA,NA,NA,right,1316.5,true,NA,NA,NA,NA,NA
jrxNJuhD,NA,NA,jrxNJuhD,2020-0188,2021-11-11,13:16:25,23:49:51,NA,incomplete,true,true,NA,0,9,E23_Q8_ansL.png,left,NA,NA,NA,left,1108.80000000005,true,NA,NA,NA,NA,NA
jrxNJuhD,NA,NA,jrxNJuhD,2020-0188,2021-11-11,13:16:25,23:49:51,NA,incomplete,true,true,NA,0,10,E16_Q1_ansR.png,right,NA,NA,NA,right,1609.29999999993,true,NA,NA,NA,NA,NA
jrxNJuhD,NA,NA,jrxNJuhD,2020-0188,2021-11-11,13:16:25,23:49:51,NA,incomplete,true,true,NA,0,11,E16_Q4_ansL.png,left,NA,NA,NA,left,1595.59999999998,true,NA,NA,NA,NA,NA
jrxNJuhD,NA,NA,jrxNJuhD,2020-0188,2021-11-11,13:16:25,23:49:51,NA,incomplete,true,true,NA,0,12,E16_Q2_ansR.png,right,NA,NA,NA,right,1202.79999999993,true,NA,NA,NA,NA,NA
jrxNJuhD,NA,NA,jrxNJuhD,2020-0188,2021-11-11,13:16:25,23:49:51,NA,incomplete,true,true,NA,0,13,E16_Q7_ansR.png,right,NA,NA,NA,right,1624.69999999995,true,NA,NA,NA,NA,NA
jrxNJuhD,NA,NA,jrxNJuhD,2020-0188,2021-11-11,13:16:25,23:49:51,NA,incomplete,true,true,NA,0,14,E16_Q8_ansR.png,right,NA,NA,NA,right,1074.30000000005,true,NA,NA,NA,NA,NA
jrxNJuhD,NA,NA,jrxNJuhD,2020-0188,2021-11-11,13:16:25,23:49:51,NA,incomplete,true,true,NA,0,15,E16_Q10_ansR.png,right,NA,NA,NA,right,1175.79999999993,true,NA,NA,NA,NA,NA
jrxNJuhD,NA,NA,jrxNJuhD,2020-0188,2021-11-11,13:16:25,23:49:51,NA,incomplete,true,true,NA,0,16,E16_Q6_ansL.png,left,NA,NA,NA,left,1520.90000000002,true,NA,NA,NA,NA,NA
jrxNJuhD,NA,NA,jrxNJuhD,2020-0188,2021-11-11,13:16:25,23:49:51,NA,incomplete,true,true,NA,0,17,E16_Q5_ansL.png,left,NA,NA,NA,left,1707.80000000005,true,NA,NA,NA,NA,NA
jrxNJuhD,NA,NA,jrxNJuhD,2020-0188,2021-11-11,13:16:25,23:49:51,NA,incomplete,true,true,NA,0,18,E16_Q9_ansL.png,left,NA,NA,NA,left,1355.5,true,NA,NA,NA,NA,NA
jrxNJuhD,NA,NA,jrxNJuhD,2020-0188,2021-11-11,13:16:25,23:49:51,NA,incomplete,true,true,NA,0,19,E16_Q3_ansL.png,left,NA,NA,NA,left,1182.19999999995,true,NA,NA,NA,NA,NA
jrxNJuhD,NA,NA,jrxNJuhD,2020-0188,2021-11-11,13:16:25,23:49:51,NA,incomplete,true,true,NA,0,20,E27_Q3_ansR.png,right,NA,NA,NA,right,1481.19999999995,true,NA,NA,NA,NA,NA
jrxNJuhD,NA,NA,jrxNJuhD,2020-0188,2021-11-11,13:16:25,23:49:51,NA,incomplete,true,true,NA,0,21,E27_Q7_ansL.png,left,NA,NA,NA,left,1940.79999999993,true,NA,NA,NA,NA,NA
jrxNJuhD,NA,NA,jrxNJuhD,2020-0188,2021-11-11,13:16:25,23:49:51,NA,incomplete,true,true,NA,0,22,E27_Q1_ansL.png,left,NA,NA,NA,left,1330.40000000002,true,NA,NA,NA,NA,NA
jrxNJuhD,NA,NA,jrxNJuhD,2020-0188,2021-11-11,13:16:25,23:49:51,NA,incomplete,true,true,NA,0,23,E27_Q10_ansL.png,left,NA,NA,NA,left,1271.69999999995,true,NA,NA,NA,NA,NA
jrxNJuhD,NA,NA,jrxNJuhD,2020-0188,2021-11-11,13:16:25,23:49:51,NA,incomplete,true,true,NA,0,24,E27_Q5_ansR.png,right,NA,NA,NA,right,1112,true,NA,NA,NA,NA,NA
jrxNJuhD,NA,NA,jrxNJuhD,2020-0188,2021-11-11,13:16:25,23:49:51,NA,incomplete,true,true,NA,0,25,E27_Q6_ansR.png,right,NA,NA,NA,right,1591,true,NA,NA,NA,NA,NA
jrxNJuhD,NA,NA,jrxNJuhD,2020-0188,2021-11-11,13:16:25,23:49:51,NA,incomplete,true,true,NA,0,26,E27_Q2_ansL.png,left,NA,NA,NA,left,1296.20000000007,true,NA,NA,NA,NA,NA
jrxNJuhD,NA,NA,jrxNJuhD,2020-0188,2021-11-11,13:16:25,23:49:51,NA,incomplete,true,true,NA,0,27,E27_Q4_ansR.png,right,NA,NA,NA,right,1267.79999999993,true,NA,NA,NA,NA,NA
jrxNJuhD,NA,NA,jrxNJuhD,2020-0188,2021-11-11,13:16:25,23:49:51,NA,incomplete,true,true,NA,0,28,E27_Q9_ansR.png,right,NA,NA,NA,right,1304,true,NA,NA,NA,NA,NA
jrxNJuhD,NA,NA,jrxNJuhD,2020-0188,2021-11-11,13:16:25,23:49:51,NA,incomplete,true,true,NA,0,29,E27_Q8_ansL.png,left,NA,NA,NA,left,1479.70000000007,true,NA,NA,NA,NA,NA
jrxNJuhD,NA,NA,jrxNJuhD,2020-0188,2021-11-11,13:16:25,23:49:51,NA,incomplete,true,NA,true,0,0,NA,right,E23_Q5_ansR.png,E23_Q4_ansR.png,within,NA,NaN,NA,left,4814.399999999907,0,1,8344.40000000014
jrxNJuhD,NA,NA,jrxNJuhD,2020-0188,2021-11-11,13:16:25,23:49:51,NA,incomplete,true,NA,true,0,1,NA,right,E27_Q3_ansR.png,E16_Q5_ansL.png,between,NA,NaN,NA,right,10434.5,1,1,3387.2999999998137
jrxNJuhD,NA,NA,jrxNJuhD,2020-0188,2021-11-11,13:16:25,23:49:51,NA,incomplete,true,NA,true,0,2,NA,right,E23_Q2_ansL.png,E23_Q5_ansR.png,within,NA,NaN,NA,left,4448.199999999953,0,0,1142
jrxNJuhD,NA,NA,jrxNJuhD,2020-0188,2021-11-11,13:16:25,23:49:51,NA,incomplete,true,NA,true,0,3,NA,right,E16_Q10_ansR.png,E16_Q2_ansR.png,within,NA,NaN,NA,right,4398.600000000093,1,2,1660.0999999998603
jrxNJuhD,NA,NA,jrxNJuhD,2020-0188,2021-11-11,13:16:25,23:49:51,NA,incomplete,true,NA,true,0,4,NA,right,E16_Q4_ansL.png,E23_Q3_ansR.png,between,NA,NaN,NA,right,4294.899999999907,1,1,3296.899999999907
jrxNJuhD,NA,NA,jrxNJuhD,2020-0188,2021-11-11,13:16:25,23:49:51,NA,incomplete,true,NA,true,0,5,NA,right,E16_Q9_ansL.png,E16_Q10_ansR.png,within,NA,NaN,NA,left,2066.3000000000466,0,1,906.6999999999534
jrxNJuhD,NA,NA,jrxNJuhD,2020-0188,2021-11-11,13:16:25,23:49:51,NA,incomplete,true,NA,true,0,6,NA,right,E23_Q1_ansL.png,E23_Q7_ansL.png,within,NA,NaN,NA,right,3757.899999999907,1,1,2657
jrxNJuhD,NA,NA,jrxNJuhD,2020-0188,2021-11-11,13:16:25,23:49:51,NA,incomplete,true,NA,true,0,7,NA,right,E23_Q10_ansL.png,E23_Q6_ansR.png,within,NA,NaN,NA,right,2907.4000000001397,1,2,1474.4000000001397
jrxNJuhD,NA,NA,jrxNJuhD,2020-0188,2021-11-11,13:16:25,23:49:51,NA,incomplete,true,NA,true,0,8,NA,left,E27_Q7_ansL.png,E27_Q5_ansR.png,within,NA,NaN,NA,right,6275.5,0,1,2446.7999999998137
jrxNJuhD,NA,NA,jrxNJuhD,2020-0188,2021-11-11,13:16:25,23:49:51,NA,incomplete,true,NA,true,0,9,NA,left,E27_Q1_ansL.png,E27_Q6_ansR.png,within,NA,NaN,NA,left,3321.7000000001863,1,2,5785.800000000047
jrxNJuhD,NA,NA,jrxNJuhD,2020-0188,2021-11-11,13:16:25,23:49:51,NA,incomplete,true,NA,true,0,10,NA,left,E16_Q9_ansL.png,E27_Q7_ansL.png,between,NA,NaN,NA,left,1563.7000000001863,1,1,1392.0999999998603
jrxNJuhD,NA,NA,jrxNJuhD,2020-0188,2021-11-11,13:16:25,23:49:51,NA,incomplete,true,NA,true,0,11,NA,right,E16_Q8_ansR.png,E16_Q4_ansL.png,within,NA,NaN,NA,left,5234.399999999907,0,1,2211.0999999998603
jrxNJuhD,NA,NA,jrxNJuhD,2020-0188,2021-11-11,13:16:25,23:49:51,NA,incomplete,true,NA,true,0,12,NA,left,E23_Q9_ansR.png,E23_Q8_ansL.png,within,NA,NaN,NA,right,5408.100000000093,0,1,6070.5
jrxNJuhD,NA,NA,jrxNJuhD,2020-0188,2021-11-11,13:16:25,23:49:51,NA,incomplete,true,NA,true,0,13,NA,right,E16_Q5_ansL.png,E16_Q8_ansR.png,within,NA,NaN,NA,right,4522.200000000186,1,1,2081.6999999999534
jrxNJuhD,NA,NA,jrxNJuhD,2020-0188,2021-11-11,13:16:25,23:49:51,NA,incomplete,true,NA,true,0,14,NA,right,E27_Q2_ansL.png,E27_Q10_ansL.png,within,NA,NaN,NA,left,2575.5,0,2,1936.3999999999069
jrxNJuhD,NA,NA,jrxNJuhD,2020-0188,2021-11-11,13:16:25,23:49:51,NA,incomplete,true,NA,true,0,15,NA,right,E27_Q4_ansR.png,E27_Q5_ansR.png,within,NA,NaN,NA,right,2097.600000000093,1,2,1231.5999999998603
jrxNJuhD,NA,NA,jrxNJuhD,2020-0188,2021-11-11,13:16:25,23:49:51,NA,incomplete,true,NA,true,0,16,NA,left,E23_Q1_ansL.png,E23_Q3_ansR.png,within,NA,NaN,NA,left,2138.6999999999534,1,2,6151.899999999907
jrxNJuhD,NA,NA,jrxNJuhD,2020-0188,2021-11-11,13:16:25,23:49:51,NA,incomplete,true,NA,true,0,17,NA,right,E23_Q9_ansR.png,E23_Q10_ansL.png,within,NA,NaN,NA,right,1473,1,1,2234.399999999907
jrxNJuhD,NA,NA,jrxNJuhD,2020-0188,2021-11-11,13:16:25,23:49:51,NA,incomplete,true,NA,true,0,18,NA,left,E27_Q2_ansL.png,E27_Q8_ansL.png,within,NA,NaN,NA,right,2384.2999999998137,0,2,4327.600000000093
jrxNJuhD,NA,NA,jrxNJuhD,2020-0188,2021-11-11,13:16:25,23:49:51,NA,incomplete,true,NA,true,0,19,NA,right,E27_Q10_ansL.png,E27_Q3_ansR.png,within,NA,NaN,NA,left,2154.6999999999534,0,1,2078.7999999998137
jrxNJuhD,NA,NA,jrxNJuhD,2020-0188,2021-11-11,13:16:25,23:49:51,NA,incomplete,true,NA,true,0,20,NA,left,E16_Q7_ansR.png,E16_Q6_ansL.png,within,NA,NaN,NA,right,2243.1999999999534,0,2,945.4000000001397
jrxNJuhD,NA,NA,jrxNJuhD,2020-0188,2021-11-11,13:16:25,23:49:51,NA,incomplete,true,NA,true,0,21,NA,right,E16_Q3_ansL.png,E16_Q6_ansL.png,within,NA,NaN,NA,left,2065.100000000093,0,1,1221
jrxNJuhD,NA,NA,jrxNJuhD,2020-0188,2021-11-11,13:16:25,23:49:51,NA,incomplete,true,NA,true,0,22,NA,right,E27_Q9_ansR.png,E27_Q6_ansR.png,within,NA,NaN,NA,right,1831.5,1,2,3077.3000000000466
jrxNJuhD,NA,NA,jrxNJuhD,2020-0188,2021-11-11,13:16:25,23:49:51,NA,incomplete,true,NA,true,0,23,NA,right,E27_Q1_ansL.png,E16_Q3_ansL.png,between,NA,NaN,NA,left,995.8999999999069,0,1,1320.5
jrxNJuhD,NA,NA,jrxNJuhD,2020-0188,2021-11-11,13:16:25,23:49:51,NA,incomplete,true,NA,true,0,24,NA,left,E16_Q1_ansR.png,E16_Q7_ansR.png,within,NA,NaN,NA,right,4114.100000000093,0,1,4943.300000000047
jrxNJuhD,NA,NA,jrxNJuhD,2020-0188,2021-11-11,13:16:25,23:49:51,NA,incomplete,true,NA,true,0,25,NA,right,E16_Q2_ansR.png,E23_Q8_ansL.png,between,NA,NaN,NA,right,1232.6000000000931,1,2,1959.1000000000931
jrxNJuhD,NA,NA,jrxNJuhD,2020-0188,2021-11-11,13:16:25,23:49:51,NA,incomplete,true,NA,true,0,26,NA,right,E16_Q1_ansR.png,E23_Q2_ansL.png,between,NA,NaN,NA,right,3323,1,1,1079.5
jrxNJuhD,NA,NA,jrxNJuhD,2020-0188,2021-11-11,13:16:25,23:49:51,NA,incomplete,false,true,NA,1,0,E17_Q7_ansL.png,left,NA,NA,NA,left,1755.80000000005,true,NA,NA,NA,NA,NA
jrxNJuhD,NA,NA,jrxNJuhD,2020-0188,2021-11-11,13:16:25,23:49:51,NA,incomplete,false,true,NA,1,1,E17_Q9_ansR.png,right,NA,NA,NA,right,1334.89999999991,true,NA,NA,NA,NA,NA
jrxNJuhD,NA,NA,jrxNJuhD,2020-0188,2021-11-11,13:16:25,23:49:51,NA,incomplete,false,true,NA,1,2,E17_Q10_ansL.png,left,NA,NA,NA,left,1089.89999999991,true,NA,NA,NA,NA,NA
jrxNJuhD,NA,NA,jrxNJuhD,2020-0188,2021-11-11,13:16:25,23:49:51,NA,incomplete,false,true,NA,1,3,E17_Q1_ansL.png,left,NA,NA,NA,left,1592.30000000005,true,NA,NA,NA,NA,NA
jrxNJuhD,NA,NA,jrxNJuhD,2020-0188,2021-11-11,13:16:25,23:49:51,NA,incomplete,false,true,NA,1,4,E17_Q4_ansR.png,right,NA,NA,NA,right,1313.90000000014,true,NA,NA,NA,NA,NA
jrxNJuhD,NA,NA,jrxNJuhD,2020-0188,2021-11-11,13:16:25,23:49:51,NA,incomplete,false,true,NA,1,5,E17_Q8_ansL.png,left,NA,NA,NA,left,1112.80000000005,true,NA,NA,NA,NA,NA
jrxNJuhD,NA,NA,jrxNJuhD,2020-0188,2021-11-11,13:16:25,23:49:51,NA,incomplete,false,true,NA,1,6,E17_Q6_ansR.png,right,NA,NA,NA,right,1431.30000000005,true,NA,NA,NA,NA,NA
jrxNJuhD,NA,NA,jrxNJuhD,2020-0188,2021-11-11,13:16:25,23:49:51,NA,incomplete,false,true,NA,1,7,E17_Q3_ansR.png,right,NA,NA,NA,right,1135.19999999995,true,NA,NA,NA,NA,NA
jrxNJuhD,NA,NA,jrxNJuhD,2020-0188,2021-11-11,13:16:25,23:49:51,NA,incomplete,false,true,NA,1,8,E17_Q2_ansL.png,left,NA,NA,NA,left,1371.19999999995,true,NA,NA,NA,NA,NA
jrxNJuhD,NA,NA,jrxNJuhD,2020-0188,2021-11-11,13:16:25,23:49:51,NA,incomplete,false,true,NA,1,9,E17_Q5_ansR.png,right,NA,NA,NA,right,958.5,true,NA,NA,NA,NA,NA
jrxNJuhD,NA,NA,jrxNJuhD,2020-0188,2021-11-11,13:16:25,23:49:51,NA,incomplete,false,true,NA,1,10,E2_Q5_ansL.png,left,NA,NA,NA,left,1528.40000000014,true,NA,NA,NA,NA,NA
jrxNJuhD,NA,NA,jrxNJuhD,2020-0188,2021-11-11,13:16:25,23:49:51,NA,incomplete,false,true,NA,1,11,E2_Q3_ansR.png,right,NA,NA,NA,left,2401.59999999986,false,NA,NA,NA,NA,NA
jrxNJuhD,NA,NA,jrxNJuhD,2020-0188,2021-11-11,13:16:25,23:49:51,NA,incomplete,false,true,NA,1,12,E2_Q10_ansL.png,left,NA,NA,NA,left,1388,true,NA,NA,NA,NA,NA
jrxNJuhD,NA,NA,jrxNJuhD,2020-0188,2021-11-11,13:16:25,23:49:51,NA,incomplete,false,true,NA,1,13,E2_Q1_ansL.png,left,NA,NA,NA,left,1742.90000000014,true,NA,NA,NA,NA,NA
jrxNJuhD,NA,NA,jrxNJuhD,2020-0188,2021-11-11,13:16:25,23:49:51,NA,incomplete,false,true,NA,1,14,E2_Q6_ansL.png,left,NA,NA,NA,left,1115.30000000005,true,NA,NA,NA,NA,NA
jrxNJuhD,NA,NA,jrxNJuhD,2020-0188,2021-11-11,13:16:25,23:49:51,NA,incomplete,false,true,NA,1,15,E2_Q7_ansR.png,right,NA,NA,NA,right,1106.5,true,NA,NA,NA,NA,NA
jrxNJuhD,NA,NA,jrxNJuhD,2020-0188,2021-11-11,13:16:25,23:49:51,NA,incomplete,false,true,NA,1,16,E2_Q9_ansL.png,left,NA,NA,NA,left,1880.5,true,NA,NA,NA,NA,NA
jrxNJuhD,NA,NA,jrxNJuhD,2020-0188,2021-11-11,13:16:25,23:49:51,NA,incomplete,false,true,NA,1,17,E2_Q2_ansR.png,right,NA,NA,NA,right,880.199999999953,true,NA,NA,NA,NA,NA
jrxNJuhD,NA,NA,jrxNJuhD,2020-0188,2021-11-11,13:16:25,23:49:51,NA,incomplete,false,true,NA,1,18,E2_Q4_ansL.png,left,NA,NA,NA,left,1306.30000000005,true,NA,NA,NA,NA,NA
jrxNJuhD,NA,NA,jrxNJuhD,2020-0188,2021-11-11,13:16:25,23:49:51,NA,incomplete,false,true,NA,1,19,E2_Q8_ansR.png,right,NA,NA,NA,right,1708.09999999986,true,NA,NA,NA,NA,NA
jrxNJuhD,NA,NA,jrxNJuhD,2020-0188,2021-11-11,13:16:25,23:49:51,NA,incomplete,false,true,NA,1,20,E28_Q6_ansL.png,left,NA,NA,NA,left,1550.39999999991,true,NA,NA,NA,NA,NA
jrxNJuhD,NA,NA,jrxNJuhD,2020-0188,2021-11-11,13:16:25,23:49:51,NA,incomplete,false,true,NA,1,21,E28_Q2_ansR.png,right,NA,NA,NA,right,1634.69999999995,true,NA,NA,NA,NA,NA
jrxNJuhD,NA,NA,jrxNJuhD,2020-0188,2021-11-11,13:16:25,23:49:51,NA,incomplete,false,true,NA,1,22,E28_Q1_ansR.png,right,NA,NA,NA,right,1189.60000000009,true,NA,NA,NA,NA,NA
jrxNJuhD,NA,NA,jrxNJuhD,2020-0188,2021-11-11,13:16:25,23:49:51,NA,incomplete,false,true,NA,1,23,E28_Q9_ansL.png,left,NA,NA,NA,left,1610.19999999995,true,NA,NA,NA,NA,NA
jrxNJuhD,NA,NA,jrxNJuhD,2020-0188,2021-11-11,13:16:25,23:49:51,NA,incomplete,false,true,NA,1,24,E28_Q10_ansR.png,right,NA,NA,NA,right,1338.59999999986,true,NA,NA,NA,NA,NA
jrxNJuhD,NA,NA,jrxNJuhD,2020-0188,2021-11-11,13:16:25,23:49:51,NA,incomplete,false,true,NA,1,25,E28_Q7_ansR.png,right,NA,NA,NA,right,1026.59999999986,true,NA,NA,NA,NA,NA
jrxNJuhD,NA,NA,jrxNJuhD,2020-0188,2021-11-11,13:16:25,23:49:51,NA,incomplete,false,true,NA,1,26,E28_Q4_ansL.png,left,NA,NA,NA,left,1268.5,true,NA,NA,NA,NA,NA
jrxNJuhD,NA,NA,jrxNJuhD,2020-0188,2021-11-11,13:16:25,23:49:51,NA,incomplete,false,true,NA,1,27,E28_Q3_ansL.png,left,NA,NA,NA,left,1604.60000000009,true,NA,NA,NA,NA,NA
jrxNJuhD,NA,NA,jrxNJuhD,2020-0188,2021-11-11,13:16:25,23:49:51,NA,incomplete,false,true,NA,1,28,E28_Q5_ansL.png,left,NA,NA,NA,left,1968.09999999986,true,NA,NA,NA,NA,NA
jrxNJuhD,NA,NA,jrxNJuhD,2020-0188,2021-11-11,13:16:25,23:49:51,NA,incomplete,false,true,NA,1,29,E28_Q8_ansR.png,right,NA,NA,NA,right,1155.80000000005,true,NA,NA,NA,NA,NA
jrxNJuhD,NA,NA,jrxNJuhD,2020-0188,2021-11-11,13:16:25,23:49:51,NA,incomplete,false,NA,true,1,0,NA,right,E2_Q9_ansL.png,E2_Q1_ansL.png,within,NA,NaN,NA,right,1550.3999999999069,1,1,1483.6000000000931
jrxNJuhD,NA,NA,jrxNJuhD,2020-0188,2021-11-11,13:16:25,23:49:51,NA,incomplete,false,NA,true,1,1,NA,right,E17_Q3_ansR.png,E17_Q4_ansR.png,within,NA,NaN,NA,left,1903.3000000000466,0,1,1798.1000000000931
jrxNJuhD,NA,NA,jrxNJuhD,2020-0188,2021-11-11,13:16:25,23:49:51,NA,incomplete,false,NA,true,1,2,NA,right,E2_Q8_ansR.png,E2_Q9_ansL.png,within,NA,NaN,NA,left,10876.199999999953,0,2,3816.100000000093
jrxNJuhD,NA,NA,jrxNJuhD,2020-0188,2021-11-11,13:16:25,23:49:51,NA,incomplete,false,NA,true,1,3,NA,right,E28_Q5_ansL.png,E28_Q7_ansR.png,within,NA,NaN,NA,right,15246.199999999953,1,1,1525.8000000000466
jrxNJuhD,NA,NA,jrxNJuhD,2020-0188,2021-11-11,13:16:25,23:49:51,NA,incomplete,false,NA,true,1,4,NA,right,E28_Q7_ansR.png,E28_Q1_ansR.png,within,NA,NaN,NA,left,9902.100000000093,0,1,1481.6000000000931
jrxNJuhD,NA,NA,jrxNJuhD,2020-0188,2021-11-11,13:16:25,23:49:51,NA,incomplete,false,NA,true,1,5,NA,right,E2_Q6_ansL.png,E2_Q3_ansR.png,within,NA,NaN,NA,left,26112.199999999953,0,1,1554.5
jrxNJuhD,NA,NA,jrxNJuhD,2020-0188,2021-11-11,13:16:25,23:49:51,NA,incomplete,false,NA,true,1,6,NA,left,E28_Q10_ansR.png,E28_Q3_ansL.png,within,NA,NaN,NA,left,2057.1999999999534,1,1,1206.8999999999069
jrxNJuhD,NA,NA,jrxNJuhD,2020-0188,2021-11-11,13:16:25,23:49:51,NA,incomplete,false,NA,true,1,7,NA,left,E17_Q2_ansL.png,E2_Q3_ansR.png,between,NA,NaN,NA,left,12927.5,1,2,1157.8999999999069
jrxNJuhD,NA,NA,jrxNJuhD,2020-0188,2021-11-11,13:16:25,23:49:51,NA,incomplete,false,NA,true,1,8,NA,right,E17_Q1_ansL.png,E17_Q7_ansL.png,within,NA,NaN,NA,right,3005.5,1,1,5210
jrxNJuhD,NA,NA,jrxNJuhD,2020-0188,2021-11-11,13:16:25,23:49:51,NA,incomplete,false,NA,true,1,9,NA,right,E2_Q10_ansL.png,E17_Q5_ansR.png,between,NA,NaN,NA,right,3547.6999999999534,1,2,1099.5
jrxNJuhD,NA,NA,jrxNJuhD,2020-0188,2021-11-11,13:16:25,23:49:51,NA,incomplete,false,NA,true,1,10,NA,right,E28_Q8_ansR.png,E28_Q4_ansL.png,within,NA,NaN,NA,right,3117.4000000001397,1,1,2334.3000000000466
jrxNJuhD,NA,NA,jrxNJuhD,2020-0188,2021-11-11,13:16:25,23:49:51,NA,incomplete,false,NA,true,1,11,NA,right,E17_Q2_ansL.png,E17_Q8_ansL.png,within,NA,NaN,NA,left,1610.5,0,1,1894.7000000001863
jrxNJuhD,NA,NA,jrxNJuhD,2020-0188,2021-11-11,13:16:25,23:49:51,NA,incomplete,false,NA,true,1,12,NA,right,E17_Q4_ansR.png,E17_Q9_ansR.png,within,NA,NaN,NA,right,37550.69999999995,1,1,2626.0999999998603
jrxNJuhD,NA,NA,jrxNJuhD,2020-0188,2021-11-11,13:16:25,23:49:51,NA,incomplete,false,NA,true,1,13,NA,left,E17_Q3_ansR.png,E2_Q5_ansL.png,between,NA,NaN,NA,left,5776.300000000047,1,2,2382.5999999998603
jrxNJuhD,NA,NA,jrxNJuhD,2020-0188,2021-11-11,13:16:25,23:49:51,NA,incomplete,false,NA,true,1,14,NA,right,E2_Q1_ansL.png,E2_Q5_ansL.png,within,NA,NaN,NA,left,1868.8999999999069,0,1,2593.0999999998603
jrxNJuhD,NA,NA,jrxNJuhD,2020-0188,2021-11-11,13:16:25,23:49:51,NA,incomplete,false,NA,true,1,15,NA,left,E2_Q7_ansR.png,E2_Q4_ansL.png,within,NA,NaN,NA,right,9229.399999999907,0,1,204432.80000000005
jrxNJuhD,NA,NA,jrxNJuhD,2020-0188,2021-11-11,13:16:25,23:49:51,NA,incomplete,false,NA,true,1,16,NA,left,E17_Q1_ansL.png,E17_Q6_ansR.png,within,NA,NaN,NA,left,1645.5999999998603,1,0,3161.0999999998603
jrxNJuhD,NA,NA,jrxNJuhD,2020-0188,2021-11-11,13:16:25,23:49:51,NA,incomplete,false,NA,true,1,17,NA,left,E2_Q10_ansL.png,E2_Q7_ansR.png,within,NA,NaN,NA,right,2185.5999999998603,0,0,2303.7000000001863
jrxNJuhD,NA,NA,jrxNJuhD,2020-0188,2021-11-11,13:16:25,23:49:51,NA,incomplete,false,NA,true,1,18,NA,right,E17_Q8_ansL.png,E17_Q10_ansL.png,within,NA,NaN,NA,right,3379.3000000000466,1,1,2755.3000000000466
jrxNJuhD,NA,NA,jrxNJuhD,2020-0188,2021-11-11,13:16:25,23:49:51,NA,incomplete,false,NA,true,1,19,NA,right,E2_Q2_ansR.png,E2_Q6_ansL.png,within,NA,NaN,NA,right,65697.20000000019,1,0,30293.699999999953
jrxNJuhD,NA,NA,jrxNJuhD,2020-0188,2021-11-11,13:16:25,23:49:51,NA,incomplete,false,NA,true,1,20,NA,left,E28_Q2_ansR.png,E28_Q10_ansR.png,within,NA,NaN,NA,left,10081.59999999986,1,1,8023.899999999907
jrxNJuhD,NA,NA,jrxNJuhD,2020-0188,2021-11-11,13:16:25,23:49:51,NA,incomplete,false,NA,true,1,21,NA,right,E17_Q5_ansR.png,E17_Q6_ansR.png,within,NA,NaN,NA,left,26504.300000000047,0,1,2227.1999999999534
jrxNJuhD,NA,NA,jrxNJuhD,2020-0188,2021-11-11,13:16:25,23:49:51,NA,incomplete,false,NA,true,1,22,NA,left,E28_Q9_ansL.png,E28_Q4_ansL.png,within,NA,NaN,NA,left,2163.600000000093,1,2,1465.8000000000466
jrxNJuhD,NA,NA,jrxNJuhD,2020-0188,2021-11-11,13:16:25,23:49:51,NA,incomplete,false,NA,true,1,23,NA,right,E28_Q9_ansL.png,E28_Q6_ansL.png,within,NA,NaN,NA,right,1978,1,1,1328
jrxNJuhD,NA,NA,jrxNJuhD,2020-0188,2021-11-11,13:16:25,23:49:51,NA,incomplete,false,NA,true,1,24,NA,left,E2_Q8_ansR.png,E28_Q1_ansR.png,between,NA,NaN,NA,left,166866,1,1,2763.3000000002794
jrxNJuhD,NA,NA,jrxNJuhD,2020-0188,2021-11-11,13:16:25,23:49:51,NA,incomplete,false,NA,true,1,25,NA,left,E2_Q4_ansL.png,E28_Q2_ansR.png,between,NA,NaN,NA,left,2618.600000000093,1,2,1562.6000000000931
jrxNJuhD,NA,NA,jrxNJuhD,2020-0188,2021-11-11,13:16:25,23:49:51,NA,incomplete,false,NA,true,1,26,NA,right,E28_Q6_ansL.png,E2_Q2_ansR.png,between,NA,NaN,NA,right,7099.899999999907,1,1,3355.2999999998137
jrxNJuhD,NA,NA,jrxNJuhD,2020-0188,2021-11-11,13:16:25,23:49:51,NA,incomplete,false,true,NA,2,0,E25_Q8_ansR.png,right,NA,NA,NA,right,1803.70000000019,true,NA,NA,NA,NA,NA
jrxNJuhD,NA,NA,jrxNJuhD,2020-0188,2021-11-11,13:16:25,23:49:51,NA,incomplete,false,true,NA,2,1,E25_Q4_ansL.png,left,NA,NA,NA,none,0,false,NA,NA,NA,NA,NA
jrxNJuhD,NA,NA,jrxNJuhD,2020-0188,2021-11-11,13:16:25,23:49:51,NA,incomplete,false,true,NA,2,2,E25_Q10_ansR.png,right,NA,NA,NA,right,2608.80000000028,true,NA,NA,NA,NA,NA
jrxNJuhD,NA,NA,jrxNJuhD,2020-0188,2021-11-11,13:16:25,23:49:51,NA,incomplete,false,true,NA,2,3,E25_Q2_ansR.png,right,NA,NA,NA,right,2014.29999999981,true,NA,NA,NA,NA,NA
jrxNJuhD,NA,NA,jrxNJuhD,2020-0188,2021-11-11,13:16:25,23:49:51,NA,incomplete,false,true,NA,2,4,E25_Q7_ansR.png,right,NA,NA,NA,right,2355.39999999991,true,NA,NA,NA,NA,NA
jrxNJuhD,NA,NA,jrxNJuhD,2020-0188,2021-11-11,13:16:25,23:49:51,NA,incomplete,false,true,NA,2,5,E25_Q1_ansR.png,right,NA,NA,NA,right,1860.20000000019,true,NA,NA,NA,NA,NA
jrxNJuhD,NA,NA,jrxNJuhD,2020-0188,2021-11-11,13:16:25,23:49:51,NA,incomplete,false,true,NA,2,6,E25_Q6_ansL.png,left,NA,NA,NA,left,1507.79999999981,true,NA,NA,NA,NA,NA
jrxNJuhD,NA,NA,jrxNJuhD,2020-0188,2021-11-11,13:16:25,23:49:51,NA,incomplete,false,true,NA,2,7,E25_Q9_ansL.png,left,NA,NA,NA,left,2280.20000000019,true,NA,NA,NA,NA,NA
jrxNJuhD,NA,NA,jrxNJuhD,2020-0188,2021-11-11,13:16:25,23:49:51,NA,incomplete,false,true,NA,2,8,E25_Q5_ansL.png,left,NA,NA,NA,left,2363.79999999981,true,NA,NA,NA,NA,NA
jrxNJuhD,NA,NA,jrxNJuhD,2020-0188,2021-11-11,13:16:25,23:49:51,NA,incomplete,false,true,NA,2,9,E25_Q3_ansL.png,left,NA,NA,NA,left,3040.5,true,NA,NA,NA,NA,NA
jrxNJuhD,NA,NA,jrxNJuhD,2020-0188,2021-11-11,13:16:25,23:49:51,NA,incomplete,false,true,NA,2,10,E21_Q4_ansR.png,right,NA,NA,NA,right,1458.60000000009,true,NA,NA,NA,NA,NA
jrxNJuhD,NA,NA,jrxNJuhD,2020-0188,2021-11-11,13:16:25,23:49:51,NA,incomplete,false,true,NA,2,11,E21_Q7_ansL.png,left,NA,NA,NA,left,1082,true,NA,NA,NA,NA,NA
jrxNJuhD,NA,NA,jrxNJuhD,2020-0188,2021-11-11,13:16:25,23:49:51,NA,incomplete,false,true,NA,2,12,E21_Q1_ansL.png,left,NA,NA,NA,left,1171.89999999991,true,NA,NA,NA,NA,NA
jrxNJuhD,NA,NA,jrxNJuhD,2020-0188,2021-11-11,13:16:25,23:49:51,NA,incomplete,false,true,NA,2,13,E21_Q8_ansL.png,left,NA,NA,NA,left,1115.69999999972,true,NA,NA,NA,NA,NA
jrxNJuhD,NA,NA,jrxNJuhD,2020-0188,2021-11-11,13:16:25,23:49:51,NA,incomplete,false,true,NA,2,14,E21_Q3_ansR.png,right,NA,NA,NA,right,1500.59999999963,true,NA,NA,NA,NA,NA
jrxNJuhD,NA,NA,jrxNJuhD,2020-0188,2021-11-11,13:16:25,23:49:51,NA,incomplete,false,true,NA,2,15,E21_Q10_ansL.png,left,NA,NA,NA,left,1731.29999999981,true,NA,NA,NA,NA,NA
jrxNJuhD,NA,NA,jrxNJuhD,2020-0188,2021-11-11,13:16:25,23:49:51,NA,incomplete,false,true,NA,2,16,E21_Q6_ansR.png,right,NA,NA,NA,right,1303.60000000009,true,NA,NA,NA,NA,NA
jrxNJuhD,NA,NA,jrxNJuhD,2020-0188,2021-11-11,13:16:25,23:49:51,NA,incomplete,false,true,NA,2,17,E21_Q5_ansR.png,right,NA,NA,NA,right,1122.5,true,NA,NA,NA,NA,NA
jrxNJuhD,NA,NA,jrxNJuhD,2020-0188,2021-11-11,13:16:25,23:49:51,NA,incomplete,false,true,NA,2,18,E21_Q9_ansR.png,right,NA,NA,NA,right,1146.20000000019,true,NA,NA,NA,NA,NA
jrxNJuhD,NA,NA,jrxNJuhD,2020-0188,2021-11-11,13:16:25,23:49:51,NA,incomplete,false,true,NA,2,19,E21_Q2_ansL.png,left,NA,NA,NA,left,1194,true,NA,NA,NA,NA,NA
jrxNJuhD,NA,NA,jrxNJuhD,2020-0188,2021-11-11,13:16:25,23:49:51,NA,incomplete,false,true,NA,2,20,E13_Q3_ansR.png,right,NA,NA,NA,right,1591.39999999991,true,NA,NA,NA,NA,NA
jrxNJuhD,NA,NA,jrxNJuhD,2020-0188,2021-11-11,13:16:25,23:49:51,NA,incomplete,false,true,NA,2,21,E13_Q1_ansL.png,left,NA,NA,NA,left,1750,true,NA,NA,NA,NA,NA
jrxNJuhD,NA,NA,jrxNJuhD,2020-0188,2021-11-11,13:16:25,23:49:51,NA,incomplete,false,true,NA,2,22,E13_Q8_ansL.png,left,NA,NA,NA,left,1250.89999999991,true,NA,NA,NA,NA,NA
jrxNJuhD,NA,NA,jrxNJuhD,2020-0188,2021-11-11,13:16:25,23:49:51,NA,incomplete,false,true,NA,2,23,E13_Q9_ansR.png,right,NA,NA,NA,right,1370.20000000019,true,NA,NA,NA,NA,NA
jrxNJuhD,NA,NA,jrxNJuhD,2020-0188,2021-11-11,13:16:25,23:49:51,NA,incomplete,false,true,NA,2,24,E13_Q7_ansL.png,left,NA,NA,NA,left,1569.10000000009,true,NA,NA,NA,NA,NA
jrxNJuhD,NA,NA,jrxNJuhD,2020-0188,2021-11-11,13:16:25,23:49:51,NA,incomplete,false,true,NA,2,25,E13_Q6_ansR.png,right,NA,NA,NA,right,1381.10000000009,true,NA,NA,NA,NA,NA
jrxNJuhD,NA,NA,jrxNJuhD,2020-0188,2021-11-11,13:16:25,23:49:51,NA,incomplete,false,true,NA,2,26,E13_Q10_ansL.png,left,NA,NA,NA,left,1644.39999999991,true,NA,NA,NA,NA,NA
jrxNJuhD,NA,NA,jrxNJuhD,2020-0188,2021-11-11,13:16:25,23:49:51,NA,incomplete,false,true,NA,2,27,E13_Q2_ansL.png,left,NA,NA,NA,left,1487.19999999972,true,NA,NA,NA,NA,NA
jrxNJuhD,NA,NA,jrxNJuhD,2020-0188,2021-11-11,13:16:25,23:49:51,NA,incomplete,false,true,NA,2,28,E13_Q5_ansR.png,right,NA,NA,NA,right,1596.70000000019,true,NA,NA,NA,NA,NA
jrxNJuhD,NA,NA,jrxNJuhD,2020-0188,2021-11-11,13:16:25,23:49:51,NA,incomplete,false,true,NA,2,29,E13_Q4_ansR.png,right,NA,NA,NA,right,1848.79999999981,true,NA,NA,NA,NA,NA
jrxNJuhD,NA,NA,jrxNJuhD,2020-0188,2021-11-11,13:16:25,23:49:51,NA,incomplete,false,NA,true,2,0,NA,left,E21_Q2_ansL.png,E13_Q8_ansL.png,between,NA,NaN,NA,right,2871,0,1,1550.3999999999069
jrxNJuhD,NA,NA,jrxNJuhD,2020-0188,2021-11-11,13:16:25,23:49:51,NA,incomplete,false,NA,true,2,1,NA,right,E21_Q1_ansL.png,E25_Q3_ansL.png,between,NA,NaN,NA,right,2387.1999999997206,1,2,946.2000000001863
jrxNJuhD,NA,NA,jrxNJuhD,2020-0188,2021-11-11,13:16:25,23:49:51,NA,incomplete,false,NA,true,2,2,NA,right,E13_Q5_ansR.png,E13_Q6_ansR.png,within,NA,NaN,NA,left,1900.7000000001863,0,1,1628.8999999999069
jrxNJuhD,NA,NA,jrxNJuhD,2020-0188,2021-11-11,13:16:25,23:49:51,NA,incomplete,false,NA,true,2,3,NA,left,E21_Q6_ansR.png,E21_Q2_ansL.png,within,NA,NaN,NA,right,1285.3999999999069,0,1,2155.1999999997206
jrxNJuhD,NA,NA,jrxNJuhD,2020-0188,2021-11-11,13:16:25,23:49:51,NA,incomplete,false,NA,true,2,4,NA,right,E13_Q6_ansR.png,E13_Q8_ansL.png,within,NA,NaN,NA,right,1357.8000000002794,1,1,1263.7999999998137
jrxNJuhD,NA,NA,jrxNJuhD,2020-0188,2021-11-11,13:16:25,23:49:51,NA,incomplete,false,NA,true,2,5,NA,left,E21_Q4_ansR.png,E21_Q8_ansL.png,within,NA,NaN,NA,left,2561.899999999907,1,1,924.3000000002794
jrxNJuhD,NA,NA,jrxNJuhD,2020-0188,2021-11-11,13:16:25,23:49:51,NA,incomplete,false,NA,true,2,6,NA,right,E13_Q4_ansR.png,E13_Q10_ansL.png,within,NA,NaN,NA,right,2359.399999999907,1,1,2424.4000000003725
jrxNJuhD,NA,NA,jrxNJuhD,2020-0188,2021-11-11,13:16:25,23:49:51,NA,incomplete,false,NA,true,2,7,NA,left,E21_Q10_ansL.png,E21_Q9_ansR.png,within,NA,NaN,NA,left,3509.4000000003725,1,1,1004.2999999998137
jrxNJuhD,NA,NA,jrxNJuhD,2020-0188,2021-11-11,13:16:25,23:49:51,NA,incomplete,false,NA,true,2,8,NA,right,E25_Q7_ansR.png,E25_Q4_ansL.png,within,NA,NaN,NA,right,2498.399999999907,1,1,1246
jrxNJuhD,NA,NA,jrxNJuhD,2020-0188,2021-11-11,13:16:25,23:49:51,NA,incomplete,false,NA,true,2,9,NA,left,E25_Q9_ansL.png,E21_Q4_ansR.png,between,NA,NaN,NA,left,2617.7000000001863,1,1,1425.2999999998137
jrxNJuhD,NA,NA,jrxNJuhD,2020-0188,2021-11-11,13:16:25,23:49:51,NA,incomplete,false,NA,true,2,10,NA,right,E13_Q2_ansL.png,E13_Q7_ansL.png,within,NA,NaN,NA,left,2692.600000000093,0,1,1133.1999999997206
jrxNJuhD,NA,NA,jrxNJuhD,2020-0188,2021-11-11,13:16:25,23:49:51,NA,incomplete,false,NA,true,2,11,NA,right,E25_Q6_ansL.png,E25_Q2_ansR.png,within,NA,NaN,NA,right,8695,1,1,1500.7000000001863
jrxNJuhD,NA,NA,jrxNJuhD,2020-0188,2021-11-11,13:16:25,23:49:51,NA,incomplete,false,NA,true,2,12,NA,right,E13_Q7_ansL.png,E13_Q1_ansL.png,within,NA,NaN,NA,right,4668.700000000186,1,1,1311.7000000001863
jrxNJuhD,NA,NA,jrxNJuhD,2020-0188,2021-11-11,13:16:25,23:49:51,NA,incomplete,false,NA,true,2,13,NA,right,E21_Q7_ansL.png,E25_Q5_ansL.png,between,NA,NaN,NA,right,1099,1,2,2170.600000000093
jrxNJuhD,NA,NA,jrxNJuhD,2020-0188,2021-11-11,13:16:25,23:49:51,NA,incomplete,false,NA,true,2,14,NA,left,E21_Q1_ansL.png,E21_Q10_ansL.png,within,NA,NaN,NA,left,1321.8000000002794,1,1,2065.100000000093
jrxNJuhD,NA,NA,jrxNJuhD,2020-0188,2021-11-11,13:16:25,23:49:51,NA,incomplete,false,NA,true,2,15,NA,right,E13_Q1_ansL.png,E21_Q9_ansR.png,between,NA,NaN,NA,right,2503.399999999907,1,1,1060.7000000001863
jrxNJuhD,NA,NA,jrxNJuhD,2020-0188,2021-11-11,13:16:25,23:49:51,NA,incomplete,false,NA,true,2,16,NA,left,E21_Q8_ansL.png,E21_Q6_ansR.png,within,NA,NaN,NA,right,3670.6999999997206,0,1,1108.8999999999069
jrxNJuhD,NA,NA,jrxNJuhD,2020-0188,2021-11-11,13:16:25,23:49:51,NA,incomplete,false,NA,true,2,17,NA,left,E25_Q6_ansL.png,E25_Q3_ansL.png,within,NA,NaN,NA,left,2493.8000000002794,1,1,946.5
jrxNJuhD,NA,NA,jrxNJuhD,2020-0188,2021-11-11,13:16:25,23:49:51,NA,incomplete,false,NA,true,2,18,NA,right,E21_Q3_ansR.png,E21_Q7_ansL.png,within,NA,NaN,NA,right,6321,1,1,2730.2000000001863
jrxNJuhD,NA,NA,jrxNJuhD,2020-0188,2021-11-11,13:16:25,23:49:51,NA,incomplete,false,NA,true,2,19,NA,right,E21_Q5_ansR.png,E21_Q3_ansR.png,within,NA,NaN,NA,left,5641.100000000093,0,1,1510.7999999998137
jrxNJuhD,NA,NA,jrxNJuhD,2020-0188,2021-11-11,13:16:25,23:49:51,NA,incomplete,false,NA,true,2,20,NA,right,E25_Q1_ansR.png,E25_Q10_ansR.png,within,NA,NaN,NA,right,10755.399999999907,1,1,1505.7999999998137
jrxNJuhD,NA,NA,jrxNJuhD,2020-0188,2021-11-11,13:16:25,23:49:51,NA,incomplete,false,NA,true,2,21,NA,left,E13_Q3_ansR.png,E13_Q9_ansR.png,within,NA,NaN,NA,right,3014.5,0,1,1036.1999999997206
jrxNJuhD,NA,NA,jrxNJuhD,2020-0188,2021-11-11,13:16:25,23:49:51,NA,incomplete,false,NA,true,2,22,NA,left,E25_Q1_ansR.png,E25_Q5_ansL.png,within,NA,NaN,NA,left,2374.5,1,1,2357.2000000001863
jrxNJuhD,NA,NA,jrxNJuhD,2020-0188,2021-11-11,13:16:25,23:49:51,NA,incomplete,false,NA,true,2,23,NA,right,E13_Q10_ansL.png,E13_Q9_ansR.png,within,NA,NaN,NA,right,1700.1000000000931,1,1,32174.799999999814
jrxNJuhD,NA,NA,jrxNJuhD,2020-0188,2021-11-11,13:16:25,23:49:51,NA,incomplete,false,NA,true,2,24,NA,left,E25_Q8_ansR.png,E25_Q2_ansR.png,within,NA,NaN,NA,right,4817.9000000003725,0,1,2387
jrxNJuhD,NA,NA,jrxNJuhD,2020-0188,2021-11-11,13:16:25,23:49:51,NA,incomplete,false,NA,true,2,25,NA,left,E25_Q7_ansR.png,E25_Q9_ansL.png,within,NA,NaN,NA,right,2557.1999999997206,0,1,1343.8999999999069
jrxNJuhD,NA,NA,jrxNJuhD,2020-0188,2021-11-11,13:16:25,23:49:51,NA,incomplete,false,NA,true,2,26,NA,left,E21_Q5_ansR.png,E13_Q3_ansR.png,between,NA,NaN,NA,left,7756.799999999814,1,2,2017.6000000000931
jrxNJuhD,NA,NA,jrxNJuhD,2020-0188,2021-11-11,13:16:25,23:49:51,NA,incomplete,false,true,NA,3,0,E31_Q8_ansR.png,right,NA,NA,NA,right,1907.69999999972,true,NA,NA,NA,NA,NA
jrxNJuhD,NA,NA,jrxNJuhD,2020-0188,2021-11-11,13:16:25,23:49:51,NA,incomplete,false,true,NA,3,1,E31_Q4_ansL.png,left,NA,NA,NA,left,1277.89999999991,true,NA,NA,NA,NA,NA
jrxNJuhD,NA,NA,jrxNJuhD,2020-0188,2021-11-11,13:16:25,23:49:51,NA,incomplete,false,true,NA,3,2,E31_Q7_ansR.png,right,NA,NA,NA,right,1218.09999999963,true,NA,NA,NA,NA,NA
jrxNJuhD,NA,NA,jrxNJuhD,2020-0188,2021-11-11,13:16:25,23:49:51,NA,incomplete,false,true,NA,3,3,E31_Q5_ansL.png,left,NA,NA,NA,left,1635.89999999991,true,NA,NA,NA,NA,NA
jrxNJuhD,NA,NA,jrxNJuhD,2020-0188,2021-11-11,13:16:25,23:49:51,NA,incomplete,false,true,NA,3,4,E31_Q10_ansR.png,right,NA,NA,NA,left,921.100000000093,false,NA,NA,NA,NA,NA
jrxNJuhD,NA,NA,jrxNJuhD,2020-0188,2021-11-11,13:16:25,23:49:51,NA,incomplete,false,true,NA,3,5,E31_Q3_ansL.png,left,NA,NA,NA,left,1077.89999999991,true,NA,NA,NA,NA,NA
jrxNJuhD,NA,NA,jrxNJuhD,2020-0188,2021-11-11,13:16:25,23:49:51,NA,incomplete,false,true,NA,3,6,E31_Q1_ansR.png,right,NA,NA,NA,right,1429.5,true,NA,NA,NA,NA,NA
jrxNJuhD,NA,NA,jrxNJuhD,2020-0188,2021-11-11,13:16:25,23:49:51,NA,incomplete,false,true,NA,3,7,E31_Q6_ansL.png,left,NA,NA,NA,left,1074.60000000009,true,NA,NA,NA,NA,NA
jrxNJuhD,NA,NA,jrxNJuhD,2020-0188,2021-11-11,13:16:25,23:49:51,NA,incomplete,false,true,NA,3,8,E31_Q9_ansL.png,left,NA,NA,NA,left,1036.60000000009,true,NA,NA,NA,NA,NA
jrxNJuhD,NA,NA,jrxNJuhD,2020-0188,2021-11-11,13:16:25,23:49:51,NA,incomplete,false,true,NA,3,9,E31_Q2_ansR.png,right,NA,NA,NA,right,1191.30000000028,true,NA,NA,NA,NA,NA
jrxNJuhD,NA,NA,jrxNJuhD,2020-0188,2021-11-11,13:16:25,23:49:51,NA,incomplete,false,true,NA,3,10,E22_Q7_ansR.png,right,NA,NA,NA,right,1295,true,NA,NA,NA,NA,NA
jrxNJuhD,NA,NA,jrxNJuhD,2020-0188,2021-11-11,13:16:25,23:49:51,NA,incomplete,false,true,NA,3,11,E22_Q3_ansL.png,left,NA,NA,NA,left,885.5,true,NA,NA,NA,NA,NA
jrxNJuhD,NA,NA,jrxNJuhD,2020-0188,2021-11-11,13:16:25,23:49:51,NA,incomplete,false,true,NA,3,12,E22_Q9_ansL.png,left,NA,NA,NA,left,1303.5,true,NA,NA,NA,NA,NA
jrxNJuhD,NA,NA,jrxNJuhD,2020-0188,2021-11-11,13:16:25,23:49:51,NA,incomplete,false,true,NA,3,13,E22_Q4_ansL.png,left,NA,NA,NA,left,1271.70000000019,true,NA,NA,NA,NA,NA
jrxNJuhD,NA,NA,jrxNJuhD,2020-0188,2021-11-11,13:16:25,23:49:51,NA,incomplete,false,true,NA,3,14,E22_Q6_ansL.png,left,NA,NA,NA,left,1417.20000000019,true,NA,NA,NA,NA,NA
jrxNJuhD,NA,NA,jrxNJuhD,2020-0188,2021-11-11,13:16:25,23:49:51,NA,incomplete,false,true,NA,3,15,E22_Q2_ansR.png,right,NA,NA,NA,right,1238.29999999981,true,NA,NA,NA,NA,NA
jrxNJuhD,NA,NA,jrxNJuhD,2020-0188,2021-11-11,13:16:25,23:49:51,NA,incomplete,false,true,NA,3,16,E22_Q8_ansR.png,right,NA,NA,NA,right,1068.20000000019,true,NA,NA,NA,NA,NA
jrxNJuhD,NA,NA,jrxNJuhD,2020-0188,2021-11-11,13:16:25,23:49:51,NA,incomplete,false,true,NA,3,17,E22_Q1_ansR.png,right,NA,NA,NA,right,1329.90000000037,true,NA,NA,NA,NA,NA
jrxNJuhD,NA,NA,jrxNJuhD,2020-0188,2021-11-11,13:16:25,23:49:51,NA,incomplete,false,true,NA,3,18,E22_Q5_ansL.png,left,NA,NA,NA,left,1311.10000000009,true,NA,NA,NA,NA,NA
jrxNJuhD,NA,NA,jrxNJuhD,2020-0188,2021-11-11,13:16:25,23:49:51,NA,incomplete,false,true,NA,3,19,E22_Q10_ansR.png,right,NA,NA,NA,right,909,true,NA,NA,NA,NA,NA
jrxNJuhD,NA,NA,jrxNJuhD,2020-0188,2021-11-11,13:16:25,23:49:51,NA,incomplete,false,true,NA,3,20,E15_Q1_ansL.png,left,NA,NA,NA,left,1942,true,NA,NA,NA,NA,NA
jrxNJuhD,NA,NA,jrxNJuhD,2020-0188,2021-11-11,13:16:25,23:49:51,NA,incomplete,false,true,NA,3,21,E15_Q5_ansR.png,right,NA,NA,NA,right,1213.60000000009,true,NA,NA,NA,NA,NA
jrxNJuhD,NA,NA,jrxNJuhD,2020-0188,2021-11-11,13:16:25,23:49:51,NA,incomplete,false,true,NA,3,22,E15_Q9_ansR.png,right,NA,NA,NA,right,993.199999999721,true,NA,NA,NA,NA,NA
jrxNJuhD,NA,NA,jrxNJuhD,2020-0188,2021-11-11,13:16:25,23:49:51,NA,incomplete,false,true,NA,3,23,E15_Q4_ansR.png,right,NA,NA,NA,right,1316.70000000019,true,NA,NA,NA,NA,NA
jrxNJuhD,NA,NA,jrxNJuhD,2020-0188,2021-11-11,13:16:25,23:49:51,NA,incomplete,false,true,NA,3,24,E15_Q7_ansL.png,left,NA,NA,NA,left,1387,true,NA,NA,NA,NA,NA
jrxNJuhD,NA,NA,jrxNJuhD,2020-0188,2021-11-11,13:16:25,23:49:51,NA,incomplete,false,true,NA,3,25,E15_Q3_ansR.png,right,NA,NA,NA,right,1113.79999999981,true,NA,NA,NA,NA,NA
jrxNJuhD,NA,NA,jrxNJuhD,2020-0188,2021-11-11,13:16:25,23:49:51,NA,incomplete,false,true,NA,3,26,E15_Q8_ansL.png,left,NA,NA,NA,left,992,true,NA,NA,NA,NA,NA
jrxNJuhD,NA,NA,jrxNJuhD,2020-0188,2021-11-11,13:16:25,23:49:51,NA,incomplete,false,true,NA,3,27,E15_Q10_ansL.png,left,NA,NA,NA,left,1051.5,true,NA,NA,NA,NA,NA
jrxNJuhD,NA,NA,jrxNJuhD,2020-0188,2021-11-11,13:16:25,23:49:51,NA,incomplete,false,true,NA,3,28,E15_Q2_ansL.png,left,NA,NA,NA,left,1303.90000000037,true,NA,NA,NA,NA,NA
jrxNJuhD,NA,NA,jrxNJuhD,2020-0188,2021-11-11,13:16:25,23:49:51,NA,incomplete,false,true,NA,3,29,E15_Q6_ansR.png,right,NA,NA,NA,right,971.700000000186,true,NA,NA,NA,NA,NA
jrxNJuhD,NA,NA,jrxNJuhD,2020-0188,2021-11-11,13:16:25,23:49:51,NA,incomplete,false,NA,true,3,0,NA,right,E22_Q8_ansR.png,E22_Q4_ansL.png,within,NA,NaN,NA,left,3711.0999999996275,0,1,930.8999999999069
jrxNJuhD,NA,NA,jrxNJuhD,2020-0188,2021-11-11,13:16:25,23:49:51,NA,incomplete,false,NA,true,3,1,NA,left,E31_Q2_ansR.png,E22_Q9_ansL.png,between,NA,NaN,NA,left,1339.1000000000931,1,2,915.5
jrxNJuhD,NA,NA,jrxNJuhD,2020-0188,2021-11-11,13:16:25,23:49:51,NA,incomplete,false,NA,true,3,2,NA,right,E31_Q1_ansR.png,E31_Q5_ansL.png,within,NA,NaN,NA,right,1936.6000000000931,1,1,1046.8999999999069
jrxNJuhD,NA,NA,jrxNJuhD,2020-0188,2021-11-11,13:16:25,23:49:51,NA,incomplete,false,NA,true,3,3,NA,left,E15_Q8_ansL.png,E15_Q6_ansR.png,within,NA,NaN,NA,left,5339.9000000003725,1,1,2513.5999999996275
jrxNJuhD,NA,NA,jrxNJuhD,2020-0188,2021-11-11,13:16:25,23:49:51,NA,incomplete,false,NA,true,3,4,NA,right,E15_Q10_ansL.png,E15_Q7_ansL.png,within,NA,NaN,NA,right,2534.3000000002794,1,1,907.2999999998137
jrxNJuhD,NA,NA,jrxNJuhD,2020-0188,2021-11-11,13:16:25,23:49:51,NA,incomplete,false,NA,true,3,5,NA,left,E31_Q9_ansL.png,E22_Q3_ansL.png,between,NA,NaN,NA,left,1417.5,1,2,948.7999999998137
jrxNJuhD,NA,NA,jrxNJuhD,2020-0188,2021-11-11,13:16:25,23:49:51,NA,incomplete,false,NA,true,3,6,NA,left,E15_Q5_ansR.png,E15_Q7_ansL.png,within,NA,NaN,NA,left,1339.0999999996275,1,1,1185.7999999998137
jrxNJuhD,NA,NA,jrxNJuhD,2020-0188,2021-11-11,13:16:25,23:49:51,NA,incomplete,false,NA,true,3,7,NA,right,E15_Q9_ansR.png,E22_Q10_ansR.png,between,NA,NaN,NA,right,2124.9000000003725,1,1,1050.1000000000931
jrxNJuhD,NA,NA,jrxNJuhD,2020-0188,2021-11-11,13:16:25,23:49:51,NA,incomplete,false,NA,true,3,8,NA,right,E15_Q5_ansR.png,E22_Q5_ansL.png,between,NA,NaN,NA,right,1383,1,2,2206.6999999997206
jrxNJuhD,NA,NA,jrxNJuhD,2020-0188,2021-11-11,13:16:25,23:49:51,NA,incomplete,false,NA,true,3,9,NA,right,E22_Q7_ansR.png,E31_Q6_ansL.png,between,NA,NaN,NA,right,1548.5,1,2,1890.3000000002794
jrxNJuhD,NA,NA,jrxNJuhD,2020-0188,2021-11-11,13:16:25,23:49:51,NA,incomplete,false,NA,true,3,10,NA,left,E31_Q7_ansR.png,E31_Q3_ansL.png,within,NA,NaN,NA,right,2960.399999999907,0,1,1765.2000000001863
jrxNJuhD,NA,NA,jrxNJuhD,2020-0188,2021-11-11,13:16:25,23:49:51,NA,incomplete,false,NA,true,3,11,NA,right,E22_Q5_ansL.png,E22_Q2_ansR.png,within,NA,NaN,NA,left,4417.600000000093,0,1,1758.3000000002794
jrxNJuhD,NA,NA,jrxNJuhD,2020-0188,2021-11-11,13:16:25,23:49:51,NA,incomplete,false,NA,true,3,12,NA,left,E22_Q3_ansL.png,E22_Q6_ansL.png,within,NA,NaN,NA,right,4518.200000000186,0,1,1217.7999999998137
jrxNJuhD,NA,NA,jrxNJuhD,2020-0188,2021-11-11,13:16:25,23:49:51,NA,incomplete,false,NA,true,3,13,NA,right,E31_Q10_ansR.png,E31_Q4_ansL.png,within,NA,NaN,NA,right,1499.7000000001863,1,1,1531.6999999997206
jrxNJuhD,NA,NA,jrxNJuhD,2020-0188,2021-11-11,13:16:25,23:49:51,NA,incomplete,false,NA,true,3,14,NA,right,E22_Q1_ansR.png,E22_Q6_ansL.png,within,NA,NaN,NA,left,44808,0,1,102945.69999999972
jrxNJuhD,NA,NA,jrxNJuhD,2020-0188,2021-11-11,13:16:25,23:49:51,NA,incomplete,false,NA,true,3,15,NA,right,E15_Q4_ansR.png,E15_Q1_ansL.png,within,NA,NaN,NA,left,2573.100000000093,0,1,1540
jrxNJuhD,NA,NA,jrxNJuhD,2020-0188,2021-11-11,13:16:25,23:49:51,NA,incomplete,false,NA,true,3,16,NA,right,E15_Q1_ansL.png,E22_Q1_ansR.png,between,NA,NaN,NA,left,1207.8999999999069,0,2,1200.9000000003725
jrxNJuhD,NA,NA,jrxNJuhD,2020-0188,2021-11-11,13:16:25,23:49:51,NA,incomplete,false,NA,true,3,17,NA,left,E22_Q8_ansR.png,E22_Q10_ansR.png,within,NA,NaN,NA,left,1591.2000000001863,1,1,1078.7000000001863
jrxNJuhD,NA,NA,jrxNJuhD,2020-0188,2021-11-11,13:16:25,23:49:51,NA,incomplete,false,NA,true,3,18,NA,right,E31_Q9_ansL.png,E31_Q3_ansL.png,within,NA,NaN,NA,left,3271.100000000093,0,1,4646943.600000001
jrxNJuhD,NA,NA,jrxNJuhD,2020-0188,2021-11-11,13:16:25,23:49:51,NA,incomplete,false,NA,true,3,19,NA,right,E22_Q2_ansR.png,E22_Q9_ansL.png,within,NA,NaN,NA,left,3907,0,1,1609.7999999998137
jrxNJuhD,NA,NA,jrxNJuhD,2020-0188,2021-11-11,13:16:25,23:49:51,NA,incomplete,false,NA,true,3,20,NA,left,E15_Q4_ansR.png,E15_Q8_ansL.png,within,NA,NaN,NA,right,1311.2000000001863,0,1,2266.9000000003725
jrxNJuhD,NA,NA,jrxNJuhD,2020-0188,2021-11-11,13:16:25,23:49:51,NA,incomplete,false,NA,true,3,21,NA,left,E31_Q1_ansR.png,E31_Q2_ansR.png,within,NA,NaN,NA,right,2338.9000000003725,0,1,2776.5
jrxNJuhD,NA,NA,jrxNJuhD,2020-0188,2021-11-11,13:16:25,23:49:51,NA,incomplete,false,NA,true,3,22,NA,left,E15_Q9_ansR.png,E15_Q3_ansR.png,within,NA,NaN,NA,left,2533.7999999998137,1,1,1528.1000000005588
jrxNJuhD,NA,NA,jrxNJuhD,2020-0188,2021-11-11,13:16:25,23:49:51,NA,incomplete,false,NA,true,3,23,NA,right,E15_Q2_ansL.png,E15_Q3_ansR.png,within,NA,NaN,NA,right,3133.5999999996275,1,1,1440.2000000001863
jrxNJuhD,NA,NA,jrxNJuhD,2020-0188,2021-11-11,13:16:25,23:49:51,NA,incomplete,false,NA,true,3,24,NA,left,E31_Q8_ansR.png,E31_Q5_ansL.png,within,NA,NaN,NA,left,2522.4000000003725,1,0,2769
jrxNJuhD,NA,NA,jrxNJuhD,2020-0188,2021-11-11,13:16:25,23:49:51,NA,incomplete,false,NA,true,3,25,NA,left,E31_Q10_ansR.png,E31_Q6_ansL.png,within,NA,NaN,NA,right,1727.7000000001863,0,1,2347
jrxNJuhD,NA,NA,jrxNJuhD,2020-0188,2021-11-11,13:16:25,23:49:51,NA,incomplete,false,NA,true,3,26,NA,right,E22_Q4_ansL.png,E22_Q7_ansR.png,within,NA,NaN,NA,right,3634.2999999998137,1,2,2420.899999999441
jrxNJuhD,NA,NA,jrxNJuhD,2020-0188,2021-11-11,13:16:25,23:49:51,NA,incomplete,false,true,NA,4,0,E26_Q1_ansL.png,left,NA,NA,NA,right,2215,false,NA,NA,NA,NA,NA
jrxNJuhD,NA,NA,jrxNJuhD,2020-0188,2021-11-11,13:16:25,23:49:51,NA,incomplete,false,true,NA,4,1,E26_Q5_ansR.png,right,NA,NA,NA,right,1789.59999999963,true,NA,NA,NA,NA,NA
jrxNJuhD,NA,NA,jrxNJuhD,2020-0188,2021-11-11,13:16:25,23:49:51,NA,incomplete,false,true,NA,4,2,E26_Q6_ansR.png,right,NA,NA,NA,right,1085.40000000037,true,NA,NA,NA,NA,NA
jrxNJuhD,NA,NA,jrxNJuhD,2020-0188,2021-11-11,13:16:25,23:49:51,NA,incomplete,false,true,NA,4,3,E26_Q4_ansR.png,right,NA,NA,NA,right,1428.29999999981,true,NA,NA,NA,NA,NA
jrxNJuhD,NA,NA,jrxNJuhD,2020-0188,2021-11-11,13:16:25,23:49:51,NA,incomplete,false,true,NA,4,4,E26_Q3_ansR.png,right,NA,NA,NA,right,1590.10000000056,true,NA,NA,NA,NA,NA
jrxNJuhD,NA,NA,jrxNJuhD,2020-0188,2021-11-11,13:16:25,23:49:51,NA,incomplete,false,true,NA,4,5,E26_Q10_ansL.png,left,NA,NA,NA,left,1863.39999999944,true,NA,NA,NA,NA,NA
jrxNJuhD,NA,NA,jrxNJuhD,2020-0188,2021-11-11,13:16:25,23:49:51,NA,incomplete,false,true,NA,4,6,E26_Q9_ansR.png,right,NA,NA,NA,right,1567.5,true,NA,NA,NA,NA,NA
jrxNJuhD,NA,NA,jrxNJuhD,2020-0188,2021-11-11,13:16:25,23:49:51,NA,incomplete,false,true,NA,4,7,E26_Q2_ansL.png,left,NA,NA,NA,left,1369.09999999963,true,NA,NA,NA,NA,NA
jrxNJuhD,NA,NA,jrxNJuhD,2020-0188,2021-11-11,13:16:25,23:49:51,NA,incomplete,false,true,NA,4,8,E26_Q8_ansL.png,left,NA,NA,NA,left,2220.90000000037,true,NA,NA,NA,NA,NA
jrxNJuhD,NA,NA,jrxNJuhD,2020-0188,2021-11-11,13:16:25,23:49:51,NA,incomplete,false,true,NA,4,9,E26_Q7_ansL.png,left,NA,NA,NA,left,1788.89999999944,true,NA,NA,NA,NA,NA
jrxNJuhD,NA,NA,jrxNJuhD,2020-0188,2021-11-11,13:16:25,23:49:51,NA,incomplete,false,true,NA,4,10,E1_Q2_ansL.png,left,NA,NA,NA,left,1938,true,NA,NA,NA,NA,NA
jrxNJuhD,NA,NA,jrxNJuhD,2020-0188,2021-11-11,13:16:25,23:49:51,NA,incomplete,false,true,NA,4,11,E1_Q7_ansL.png,left,NA,NA,NA,left,996.299999999814,true,NA,NA,NA,NA,NA
jrxNJuhD,NA,NA,jrxNJuhD,2020-0188,2021-11-11,13:16:25,23:49:51,NA,incomplete,false,true,NA,4,12,E1_Q5_ansR.png,right,NA,NA,NA,right,1415.30000000075,true,NA,NA,NA,NA,NA
jrxNJuhD,NA,NA,jrxNJuhD,2020-0188,2021-11-11,13:16:25,23:49:51,NA,incomplete,false,true,NA,4,13,E1_Q10_ansR.png,right,NA,NA,NA,right,1134.90000000037,true,NA,NA,NA,NA,NA
jrxNJuhD,NA,NA,jrxNJuhD,2020-0188,2021-11-11,13:16:25,23:49:51,NA,incomplete,false,true,NA,4,14,E1_Q6_ansR.png,right,NA,NA,NA,right,1534.5,true,NA,NA,NA,NA,NA
jrxNJuhD,NA,NA,jrxNJuhD,2020-0188,2021-11-11,13:16:25,23:49:51,NA,incomplete,false,true,NA,4,15,E1_Q3_ansR.png,right,NA,NA,NA,right,2270.60000000056,true,NA,NA,NA,NA,NA
jrxNJuhD,NA,NA,jrxNJuhD,2020-0188,2021-11-11,13:16:25,23:49:51,NA,incomplete,false,true,NA,4,16,E1_Q4_ansL.png,left,NA,NA,NA,left,1118.5,true,NA,NA,NA,NA,NA
jrxNJuhD,NA,NA,jrxNJuhD,2020-0188,2021-11-11,13:16:25,23:49:51,NA,incomplete,false,true,NA,4,17,E1_Q1_ansL.png,left,NA,NA,NA,left,1318.70000000019,true,NA,NA,NA,NA,NA
jrxNJuhD,NA,NA,jrxNJuhD,2020-0188,2021-11-11,13:16:25,23:49:51,NA,incomplete,false,true,NA,4,18,E1_Q8_ansR.png,right,NA,NA,NA,right,1912,true,NA,NA,NA,NA,NA
jrxNJuhD,NA,NA,jrxNJuhD,2020-0188,2021-11-11,13:16:25,23:49:51,NA,incomplete,false,true,NA,4,19,E1_Q9_ansL.png,left,NA,NA,NA,left,760.5,true,NA,NA,NA,NA,NA
jrxNJuhD,NA,NA,jrxNJuhD,2020-0188,2021-11-11,13:16:25,23:49:51,NA,incomplete,false,true,NA,4,20,E19_Q7_ansL.png,left,NA,NA,NA,left,1497.79999999981,true,NA,NA,NA,NA,NA
jrxNJuhD,NA,NA,jrxNJuhD,2020-0188,2021-11-11,13:16:25,23:49:51,NA,incomplete,false,true,NA,4,21,E19_Q5_ansR.png,right,NA,NA,NA,right,1201.40000000037,true,NA,NA,NA,NA,NA
jrxNJuhD,NA,NA,jrxNJuhD,2020-0188,2021-11-11,13:16:25,23:49:51,NA,incomplete,false,true,NA,4,22,E19_Q1_ansL.png,left,NA,NA,NA,left,1279.69999999925,true,NA,NA,NA,NA,NA
jrxNJuhD,NA,NA,jrxNJuhD,2020-0188,2021-11-11,13:16:25,23:49:51,NA,incomplete,false,true,NA,4,23,E19_Q4_ansR.png,right,NA,NA,NA,right,1213.10000000056,true,NA,NA,NA,NA,NA
jrxNJuhD,NA,NA,jrxNJuhD,2020-0188,2021-11-11,13:16:25,23:49:51,NA,incomplete,false,true,NA,4,24,E19_Q3_ansR.png,right,NA,NA,NA,right,1059.5,true,NA,NA,NA,NA,NA
jrxNJuhD,NA,NA,jrxNJuhD,2020-0188,2021-11-11,13:16:25,23:49:51,NA,incomplete,false,true,NA,4,25,E19_Q8_ansL.png,left,NA,NA,NA,left,1043.29999999981,true,NA,NA,NA,NA,NA
jrxNJuhD,NA,NA,jrxNJuhD,2020-0188,2021-11-11,13:16:25,23:49:51,NA,incomplete,false,true,NA,4,26,E19_Q9_ansR.png,right,NA,NA,NA,right,864.299999999814,true,NA,NA,NA,NA,NA
jrxNJuhD,NA,NA,jrxNJuhD,2020-0188,2021-11-11,13:16:25,23:49:51,NA,incomplete,false,true,NA,4,27,E19_Q6_ansR.png,right,NA,NA,NA,right,1295.39999999944,true,NA,NA,NA,NA,NA
jrxNJuhD,NA,NA,jrxNJuhD,2020-0188,2021-11-11,13:16:25,23:49:51,NA,incomplete,false,true,NA,4,28,E19_Q10_ansL.png,left,NA,NA,NA,left,1309.5,true,NA,NA,NA,NA,NA
jrxNJuhD,NA,NA,jrxNJuhD,2020-0188,2021-11-11,13:16:25,23:49:51,NA,incomplete,false,true,NA,4,29,E19_Q2_ansL.png,left,NA,NA,NA,left,1424,true,NA,NA,NA,NA,NA
jrxNJuhD,NA,NA,jrxNJuhD,2020-0188,2021-11-11,13:16:25,23:49:51,NA,incomplete,false,NA,true,4,0,NA,right,E19_Q10_ansL.png,E19_Q8_ansL.png,within,NA,NaN,NA,left,2973,0,1,1245.9000000003725
jrxNJuhD,NA,NA,jrxNJuhD,2020-0188,2021-11-11,13:16:25,23:49:51,NA,incomplete,false,NA,true,4,1,NA,right,E1_Q6_ansR.png,E1_Q7_ansL.png,within,NA,NaN,NA,left,2971.399999999441,0,1,1220.7999999998137
jrxNJuhD,NA,NA,jrxNJuhD,2020-0188,2021-11-11,13:16:25,23:49:51,NA,incomplete,false,NA,true,4,2,NA,left,E26_Q7_ansL.png,E1_Q5_ansR.png,between,NA,NaN,NA,left,3903,1,2,2209.7000000001863
jrxNJuhD,NA,NA,jrxNJuhD,2020-0188,2021-11-11,13:16:25,23:49:51,NA,incomplete,false,NA,true,4,3,NA,left,E19_Q1_ansL.png,E19_Q8_ansL.png,within,NA,NaN,NA,left,1967.3999999994412,1,1,1161.4000000003725
jrxNJuhD,NA,NA,jrxNJuhD,2020-0188,2021-11-11,13:16:25,23:49:51,NA,incomplete,false,NA,true,4,4,NA,left,E26_Q1_ansL.png,E26_Q4_ansR.png,within,NA,NaN,NA,left,2217.5999999996275,1,1,1003
jrxNJuhD,NA,NA,jrxNJuhD,2020-0188,2021-11-11,13:16:25,23:49:51,NA,incomplete,false,NA,true,4,5,NA,right,E26_Q3_ansR.png,E26_Q5_ansR.png,within,NA,NaN,NA,right,1529.5,1,1,831.7999999998137
jrxNJuhD,NA,NA,jrxNJuhD,2020-0188,2021-11-11,13:16:25,23:49:51,NA,incomplete,false,NA,true,4,6,NA,left,E19_Q9_ansR.png,E19_Q2_ansL.png,within,NA,NaN,NA,right,1359.7999999998137,0,1,1132.4000000003725
jrxNJuhD,NA,NA,jrxNJuhD,2020-0188,2021-11-11,13:16:25,23:49:51,NA,incomplete,false,NA,true,4,7,NA,left,E26_Q6_ansR.png,E26_Q10_ansL.png,within,NA,NaN,NA,left,1576.2000000001863,1,1,1366.8999999994412
jrxNJuhD,NA,NA,jrxNJuhD,2020-0188,2021-11-11,13:16:25,23:49:51,NA,incomplete,false,NA,true,4,8,NA,left,E26_Q10_ansL.png,E26_Q8_ansL.png,within,NA,NaN,NA,left,1350.7000000001863,1,1,1107.5
jrxNJuhD,NA,NA,jrxNJuhD,2020-0188,2021-11-11,13:16:25,23:49:51,NA,incomplete,false,NA,true,4,9,NA,right,E19_Q1_ansL.png,E1_Q9_ansL.png,between,NA,NaN,NA,right,2526.2999999998137,1,2,1083.9000000003725
jrxNJuhD,NA,NA,jrxNJuhD,2020-0188,2021-11-11,13:16:25,23:49:51,NA,incomplete,false,NA,true,4,10,NA,right,E26_Q9_ansR.png,E26_Q4_ansR.png,within,NA,NaN,NA,left,2039.7000000001863,0,1,2314.7999999998137
jrxNJuhD,NA,NA,jrxNJuhD,2020-0188,2021-11-11,13:16:25,23:49:51,NA,incomplete,false,NA,true,4,11,NA,right,E19_Q9_ansR.png,E19_Q4_ansR.png,within,NA,NaN,NA,left,3660.0999999996275,0,1,1513.0999999996275
jrxNJuhD,NA,NA,jrxNJuhD,2020-0188,2021-11-11,13:16:25,23:49:51,NA,incomplete,false,NA,true,4,12,NA,left,E19_Q3_ansR.png,E19_Q6_ansR.png,within,NA,NaN,NA,right,2927.199999999255,0,1,941.6000000005588
jrxNJuhD,NA,NA,jrxNJuhD,2020-0188,2021-11-11,13:16:25,23:49:51,NA,incomplete,false,NA,true,4,13,NA,right,E1_Q8_ansR.png,E1_Q3_ansR.png,within,NA,NaN,NA,right,2007.2000000001863,1,1,1109.699999999255
jrxNJuhD,NA,NA,jrxNJuhD,2020-0188,2021-11-11,13:16:25,23:49:51,NA,incomplete,false,NA,true,4,14,NA,right,E1_Q7_ansL.png,E26_Q8_ansL.png,between,NA,NaN,NA,right,4575.5999999996275,1,2,1391.7999999998137
jrxNJuhD,NA,NA,jrxNJuhD,2020-0188,2021-11-11,13:16:25,23:49:51,NA,incomplete,false,NA,true,4,15,NA,left,E1_Q6_ansR.png,E1_Q1_ansL.png,within,NA,NaN,NA,right,3700.7000000001863,0,1,1028.2000000001863
jrxNJuhD,NA,NA,jrxNJuhD,2020-0188,2021-11-11,13:16:25,23:49:51,NA,incomplete,false,NA,true,4,16,NA,left,E19_Q5_ansR.png,E19_Q3_ansR.png,within,NA,NaN,NA,left,3473.2000000001863,1,1,2522.5999999996275
jrxNJuhD,NA,NA,jrxNJuhD,2020-0188,2021-11-11,13:16:25,23:49:51,NA,incomplete,false,NA,true,4,17,NA,left,E1_Q5_ansR.png,E1_Q3_ansR.png,within,NA,NaN,NA,left,2656.2000000001863,1,1,1091.2999999998137
jrxNJuhD,NA,NA,jrxNJuhD,2020-0188,2021-11-11,13:16:25,23:49:51,NA,incomplete,false,NA,true,4,18,NA,right,E19_Q7_ansL.png,E1_Q1_ansL.png,between,NA,NaN,NA,right,2640.2000000001863,1,2,915.0999999996275
jrxNJuhD,NA,NA,jrxNJuhD,2020-0188,2021-11-11,13:16:25,23:49:51,NA,incomplete,false,NA,true,4,19,NA,left,E26_Q2_ansL.png,E1_Q2_ansL.png,between,NA,NaN,NA,left,1911.4000000003725,1,2,1351.1000000005588
jrxNJuhD,NA,NA,jrxNJuhD,2020-0188,2021-11-11,13:16:25,23:49:51,NA,incomplete,false,NA,true,4,20,NA,right,E1_Q9_ansL.png,E1_Q4_ansL.png,within,NA,NaN,NA,left,5507,0,1,937.8000000007451
jrxNJuhD,NA,NA,jrxNJuhD,2020-0188,2021-11-11,13:16:25,23:49:51,NA,incomplete,false,NA,true,4,21,NA,right,E19_Q4_ansR.png,E19_Q7_ansL.png,within,NA,NaN,NA,right,12268.700000000186,1,1,1544.300000000745
jrxNJuhD,NA,NA,jrxNJuhD,2020-0188,2021-11-11,13:16:25,23:49:51,NA,incomplete,false,NA,true,4,22,NA,right,E1_Q10_ansR.png,E1_Q2_ansL.png,within,NA,NaN,NA,right,1723.7999999998137,1,1,1237.6000000005588
jrxNJuhD,NA,NA,jrxNJuhD,2020-0188,2021-11-11,13:16:25,23:49:51,NA,incomplete,false,NA,true,4,23,NA,right,E1_Q4_ansL.png,E1_Q10_ansR.png,within,NA,NaN,NA,right,1627,1,1,1435.5999999996275
jrxNJuhD,NA,NA,jrxNJuhD,2020-0188,2021-11-11,13:16:25,23:49:51,NA,incomplete,false,NA,true,4,24,NA,left,E26_Q9_ansR.png,E26_Q7_ansL.png,within,NA,NaN,NA,left,2381.7000000001863,1,1,1061.2999999998137
jrxNJuhD,NA,NA,jrxNJuhD,2020-0188,2021-11-11,13:16:25,23:49:51,NA,incomplete,false,NA,true,4,25,NA,left,E1_Q8_ansR.png,E19_Q5_ansR.png,between,NA,NaN,NA,left,1392.4000000003725,1,2,2622.7999999998137
jrxNJuhD,NA,NA,jrxNJuhD,2020-0188,2021-11-11,13:16:25,23:49:51,NA,incomplete,false,NA,true,4,26,NA,left,E26_Q3_ansR.png,E26_Q2_ansL.png,within,NA,NaN,NA,right,1568.4000000003725,0,1,2726.399999999441
jrxNJuhD,NA,NA,jrxNJuhD,2020-0188,2021-11-11,13:16:25,23:49:51,NA,incomplete,false,true,NA,5,0,E24_Q6_ansL.png,left,NA,NA,NA,left,2736.79999999981,true,NA,NA,NA,NA,NA
jrxNJuhD,NA,NA,jrxNJuhD,2020-0188,2021-11-11,13:16:25,23:49:51,NA,incomplete,false,true,NA,5,1,E24_Q7_ansR.png,right,NA,NA,NA,right,1310,true,NA,NA,NA,NA,NA
jrxNJuhD,NA,NA,jrxNJuhD,2020-0188,2021-11-11,13:16:25,23:49:51,NA,incomplete,false,true,NA,5,2,E24_Q4_ansL.png,left,NA,NA,NA,left,1293.5,true,NA,NA,NA,NA,NA
jrxNJuhD,NA,NA,jrxNJuhD,2020-0188,2021-11-11,13:16:25,23:49:51,NA,incomplete,false,true,NA,5,3,E24_Q5_ansL.png,left,NA,NA,NA,left,1114.40000000037,true,NA,NA,NA,NA,NA
jrxNJuhD,NA,NA,jrxNJuhD,2020-0188,2021-11-11,13:16:25,23:49:51,NA,incomplete,false,true,NA,5,4,E24_Q3_ansL.png,left,NA,NA,NA,left,1564.60000000056,true,NA,NA,NA,NA,NA
jrxNJuhD,NA,NA,jrxNJuhD,2020-0188,2021-11-11,13:16:25,23:49:51,NA,incomplete,false,true,NA,5,5,E24_Q2_ansR.png,right,NA,NA,NA,right,1645.29999999981,true,NA,NA,NA,NA,NA
jrxNJuhD,NA,NA,jrxNJuhD,2020-0188,2021-11-11,13:16:25,23:49:51,NA,incomplete,false,true,NA,5,6,E24_Q10_ansR.png,right,NA,NA,NA,right,1517.29999999981,true,NA,NA,NA,NA,NA
jrxNJuhD,NA,NA,jrxNJuhD,2020-0188,2021-11-11,13:16:25,23:49:51,NA,incomplete,false,true,NA,5,7,E24_Q1_ansR.png,right,NA,NA,NA,right,1321.90000000037,true,NA,NA,NA,NA,NA
jrxNJuhD,NA,NA,jrxNJuhD,2020-0188,2021-11-11,13:16:25,23:49:51,NA,incomplete,false,true,NA,5,8,E24_Q8_ansR.png,right,NA,NA,NA,right,1332.80000000075,true,NA,NA,NA,NA,NA
jrxNJuhD,NA,NA,jrxNJuhD,2020-0188,2021-11-11,13:16:25,23:49:51,NA,incomplete,false,true,NA,5,9,E24_Q9_ansL.png,left,NA,NA,NA,left,1104.80000000075,true,NA,NA,NA,NA,NA
jrxNJuhD,NA,NA,jrxNJuhD,2020-0188,2021-11-11,13:16:25,23:49:51,NA,incomplete,false,true,NA,5,10,E12_Q7_ansL.png,left,NA,NA,NA,left,2429.5,true,NA,NA,NA,NA,NA
jrxNJuhD,NA,NA,jrxNJuhD,2020-0188,2021-11-11,13:16:25,23:49:51,NA,incomplete,false,true,NA,5,11,E12_Q8_ansL.png,left,NA,NA,NA,right,1295.5,false,NA,NA,NA,NA,NA
jrxNJuhD,NA,NA,jrxNJuhD,2020-0188,2021-11-11,13:16:25,23:49:51,NA,incomplete,false,true,NA,5,12,E12_Q10_ansL.png,left,NA,NA,NA,left,1004.09999999963,true,NA,NA,NA,NA,NA
jrxNJuhD,NA,NA,jrxNJuhD,2020-0188,2021-11-11,13:16:25,23:49:51,NA,incomplete,false,true,NA,5,13,E12_Q1_ansL.png,left,NA,NA,NA,left,2408.79999999981,true,NA,NA,NA,NA,NA
jrxNJuhD,NA,NA,jrxNJuhD,2020-0188,2021-11-11,13:16:25,23:49:51,NA,incomplete,false,true,NA,5,14,E12_Q3_ansR.png,right,NA,NA,NA,left,1145.60000000056,false,NA,NA,NA,NA,NA
jrxNJuhD,NA,NA,jrxNJuhD,2020-0188,2021-11-11,13:16:25,23:49:51,NA,incomplete,false,true,NA,5,15,E12_Q4_ansR.png,right,NA,NA,NA,right,1322.90000000037,true,NA,NA,NA,NA,NA
jrxNJuhD,NA,NA,jrxNJuhD,2020-0188,2021-11-11,13:16:25,23:49:51,NA,incomplete,false,true,NA,5,16,E12_Q5_ansR.png,right,NA,NA,NA,right,1333.40000000037,true,NA,NA,NA,NA,NA
jrxNJuhD,NA,NA,jrxNJuhD,2020-0188,2021-11-11,13:16:25,23:49:51,NA,incomplete,false,true,NA,5,17,E12_Q6_ansR.png,right,NA,NA,NA,right,1343.79999999981,true,NA,NA,NA,NA,NA
jrxNJuhD,NA,NA,jrxNJuhD,2020-0188,2021-11-11,13:16:25,23:49:51,NA,incomplete,false,true,NA,5,18,E12_Q9_ansR.png,right,NA,NA,NA,right,1557.29999999981,true,NA,NA,NA,NA,NA
jrxNJuhD,NA,NA,jrxNJuhD,2020-0188,2021-11-11,13:16:25,23:49:51,NA,incomplete,false,true,NA,5,19,E12_Q2_ansL.png,left,NA,NA,NA,left,1310.89999999944,true,NA,NA,NA,NA,NA
jrxNJuhD,NA,NA,jrxNJuhD,2020-0188,2021-11-11,13:16:25,23:49:51,NA,incomplete,false,true,NA,5,20,E5_Q9_ansR.png,right,NA,NA,NA,right,1107.70000000019,true,NA,NA,NA,NA,NA
jrxNJuhD,NA,NA,jrxNJuhD,2020-0188,2021-11-11,13:16:25,23:49:51,NA,incomplete,false,true,NA,5,21,E5_Q1_ansL.png,left,NA,NA,NA,left,975.099999999627,true,NA,NA,NA,NA,NA
jrxNJuhD,NA,NA,jrxNJuhD,2020-0188,2021-11-11,13:16:25,23:49:51,NA,incomplete,false,true,NA,5,22,E5_Q6_ansR.png,right,NA,NA,NA,right,851.5,true,NA,NA,NA,NA,NA
jrxNJuhD,NA,NA,jrxNJuhD,2020-0188,2021-11-11,13:16:25,23:49:51,NA,incomplete,false,true,NA,5,23,E5_Q7_ansL.png,left,NA,NA,NA,left,1230.5,true,NA,NA,NA,NA,NA
jrxNJuhD,NA,NA,jrxNJuhD,2020-0188,2021-11-11,13:16:25,23:49:51,NA,incomplete,false,true,NA,5,24,E5_Q5_ansR.png,right,NA,NA,NA,right,1279.60000000056,true,NA,NA,NA,NA,NA
jrxNJuhD,NA,NA,jrxNJuhD,2020-0188,2021-11-11,13:16:25,23:49:51,NA,incomplete,false,true,NA,5,25,E5_Q3_ansR.png,right,NA,NA,NA,right,1585.29999999981,true,NA,NA,NA,NA,NA
jrxNJuhD,NA,NA,jrxNJuhD,2020-0188,2021-11-11,13:16:25,23:49:51,NA,incomplete,false,true,NA,5,26,E5_Q8_ansL.png,left,NA,NA,NA,left,1003,true,NA,NA,NA,NA,NA
jrxNJuhD,NA,NA,jrxNJuhD,2020-0188,2021-11-11,13:16:25,23:49:51,NA,incomplete,false,true,NA,5,27,E5_Q4_ansR.png,right,NA,NA,NA,right,1114.70000000019,true,NA,NA,NA,NA,NA
jrxNJuhD,NA,NA,jrxNJuhD,2020-0188,2021-11-11,13:16:25,23:49:51,NA,incomplete,false,true,NA,5,28,E5_Q10_ansR.png,right,NA,NA,NA,right,1288.09999999963,true,NA,NA,NA,NA,NA
jrxNJuhD,NA,NA,jrxNJuhD,2020-0188,2021-11-11,13:16:25,23:49:51,NA,incomplete,false,true,NA,5,29,E5_Q2_ansL.png,left,NA,NA,NA,left,1151.09999999963,true,NA,NA,NA,NA,NA
jrxNJuhD,NA,NA,jrxNJuhD,2020-0188,2021-11-11,13:16:25,23:49:51,NA,incomplete,false,NA,true,5,0,NA,right,E12_Q9_ansR.png,E12_Q4_ansR.png,within,NA,NaN,NA,left,1911,0,1,2184.5
jrxNJuhD,NA,NA,jrxNJuhD,2020-0188,2021-11-11,13:16:25,23:49:51,NA,incomplete,false,NA,true,5,1,NA,right,E5_Q1_ansL.png,E12_Q9_ansR.png,between,NA,NaN,NA,right,1671.9000000003725,1,2,1033.9000000003725
jrxNJuhD,NA,NA,jrxNJuhD,2020-0188,2021-11-11,13:16:25,23:49:51,NA,incomplete,false,NA,true,5,2,NA,left,E5_Q6_ansR.png,E5_Q3_ansR.png,within,NA,NaN,NA,left,1431.7000000001863,1,1,994.5
jrxNJuhD,NA,NA,jrxNJuhD,2020-0188,2021-11-11,13:16:25,23:49:51,NA,incomplete,false,NA,true,5,3,NA,left,E12_Q3_ansR.png,E12_Q6_ansR.png,within,NA,NaN,NA,right,2694.7999999998137,0,1,1075
jrxNJuhD,NA,NA,jrxNJuhD,2020-0188,2021-11-11,13:16:25,23:49:51,NA,incomplete,false,NA,true,5,4,NA,right,E24_Q3_ansL.png,E24_Q7_ansR.png,within,NA,NaN,NA,right,7376.5,1,1,1779.7000000001863
jrxNJuhD,NA,NA,jrxNJuhD,2020-0188,2021-11-11,13:16:25,23:49:51,NA,incomplete,false,NA,true,5,5,NA,right,E12_Q1_ansL.png,E12_Q7_ansL.png,within,NA,NaN,NA,right,2464.5,1,1,1861.3999999994412
jrxNJuhD,NA,NA,jrxNJuhD,2020-0188,2021-11-11,13:16:25,23:49:51,NA,incomplete,false,NA,true,5,6,NA,right,E5_Q9_ansR.png,E12_Q6_ansR.png,between,NA,NaN,NA,right,1710.7000000001863,1,2,1262.4000000003725
jrxNJuhD,NA,NA,jrxNJuhD,2020-0188,2021-11-11,13:16:25,23:49:51,NA,incomplete,false,NA,true,5,7,NA,right,E12_Q3_ansR.png,E12_Q8_ansL.png,within,NA,NaN,NA,right,4113.5999999996275,1,1,1356.7999999998137
jrxNJuhD,NA,NA,jrxNJuhD,2020-0188,2021-11-11,13:16:25,23:49:51,NA,incomplete,false,NA,true,5,8,NA,right,E12_Q5_ansR.png,E12_Q1_ansL.png,within,NA,NaN,NA,right,2752.5999999996275,1,1,1058.7000000001863
jrxNJuhD,NA,NA,jrxNJuhD,2020-0188,2021-11-11,13:16:25,23:49:51,NA,incomplete,false,NA,true,5,9,NA,right,E5_Q6_ansR.png,E12_Q2_ansL.png,between,NA,NaN,NA,right,1495.7000000001863,1,2,1532.7000000001863
jrxNJuhD,NA,NA,jrxNJuhD,2020-0188,2021-11-11,13:16:25,23:49:51,NA,incomplete,false,NA,true,5,10,NA,right,E24_Q8_ansR.png,E24_Q2_ansR.png,within,NA,NaN,NA,right,222537.5,1,1,1018.5999999996275
jrxNJuhD,NA,NA,jrxNJuhD,2020-0188,2021-11-11,13:16:25,23:49:51,NA,incomplete,false,NA,true,5,11,NA,left,E5_Q7_ansL.png,E5_Q8_ansL.png,within,NA,NaN,NA,right,2962.699999999255,0,1,1133
jrxNJuhD,NA,NA,jrxNJuhD,2020-0188,2021-11-11,13:16:25,23:49:51,NA,incomplete,false,NA,true,5,12,NA,right,E12_Q8_ansL.png,E24_Q8_ansR.png,between,NA,NaN,NA,right,11811,1,2,1735.699999999255
jrxNJuhD,NA,NA,jrxNJuhD,2020-0188,2021-11-11,13:16:25,23:49:51,NA,incomplete,false,NA,true,5,13,NA,right,E24_Q10_ansR.png,E24_Q5_ansL.png,within,NA,NaN,NA,left,2234.9000000003725,0,1,1480.4000000003725
jrxNJuhD,NA,NA,jrxNJuhD,2020-0188,2021-11-11,13:16:25,23:49:51,NA,incomplete,false,NA,true,5,14,NA,left,E12_Q10_ansL.png,E12_Q4_ansR.png,within,NA,NaN,NA,right,2496.2000000011176,0,1,1723.2000000011176
jrxNJuhD,NA,NA,jrxNJuhD,2020-0188,2021-11-11,13:16:25,23:49:51,NA,incomplete,false,NA,true,5,15,NA,right,E5_Q7_ansL.png,E5_Q9_ansR.png,within,NA,NaN,NA,right,1870.0999999996275,1,1,2016.1000000014901
jrxNJuhD,NA,NA,jrxNJuhD,2020-0188,2021-11-11,13:16:25,23:49:51,NA,incomplete,false,NA,true,5,16,NA,right,E12_Q2_ansL.png,E12_Q5_ansR.png,within,NA,NaN,NA,left,3231.89999999851,0,1,953.7999999988824
jrxNJuhD,NA,NA,jrxNJuhD,2020-0188,2021-11-11,13:16:25,23:49:51,NA,incomplete,false,NA,true,5,17,NA,left,E24_Q9_ansL.png,E12_Q10_ansL.png,between,NA,NaN,NA,left,6900.300000000745,1,2,2194
jrxNJuhD,NA,NA,jrxNJuhD,2020-0188,2021-11-11,13:16:25,23:49:51,NA,incomplete,false,NA,true,5,18,NA,right,E12_Q7_ansL.png,E24_Q1_ansR.png,between,NA,NaN,NA,right,1400.2000000011176,1,2,1755.8999999985099
jrxNJuhD,NA,NA,jrxNJuhD,2020-0188,2021-11-11,13:16:25,23:49:51,NA,incomplete,false,NA,true,5,19,NA,left,E5_Q1_ansL.png,E5_Q5_ansR.png,within,NA,NaN,NA,right,2801.9000000003725,0,1,1278.0999999996275
jrxNJuhD,NA,NA,jrxNJuhD,2020-0188,2021-11-11,13:16:25,23:49:51,NA,incomplete,false,NA,true,5,20,NA,right,E5_Q10_ansR.png,E5_Q3_ansR.png,within,NA,NaN,NA,left,1213.5999999996275,0,1,1059.6000000014901
jrxNJuhD,NA,NA,jrxNJuhD,2020-0188,2021-11-11,13:16:25,23:49:51,NA,incomplete,false,NA,true,5,21,NA,left,E5_Q5_ansR.png,E5_Q4_ansR.png,within,NA,NaN,NA,left,6669.0999999996275,1,1,1018.5999999996275
jrxNJuhD,NA,NA,jrxNJuhD,2020-0188,2021-11-11,13:16:25,23:49:51,NA,incomplete,false,NA,true,5,22,NA,left,E24_Q6_ansL.png,E24_Q5_ansL.png,within,NA,NaN,NA,right,2914.7999999988824,0,1,1936.9000000003725
jrxNJuhD,NA,NA,jrxNJuhD,2020-0188,2021-11-11,13:16:25,23:49:51,NA,incomplete,false,NA,true,5,23,NA,left,E24_Q10_ansR.png,E24_Q9_ansL.png,within,NA,NaN,NA,right,2073.9000000003725,0,1,1498
jrxNJuhD,NA,NA,jrxNJuhD,2020-0188,2021-11-11,13:16:25,23:49:51,NA,incomplete,false,NA,true,5,24,NA,left,E24_Q3_ansL.png,E24_Q1_ansR.png,within,NA,NaN,NA,left,3602.2999999988824,1,1,1211.9000000003725
jrxNJuhD,NA,NA,jrxNJuhD,2020-0188,2021-11-11,13:16:25,23:49:51,NA,incomplete,false,NA,true,5,25,NA,right,E5_Q2_ansL.png,E5_Q8_ansL.png,within,NA,NaN,NA,right,1975.4000000003725,1,1,1156
jrxNJuhD,NA,NA,jrxNJuhD,2020-0188,2021-11-11,13:16:25,23:49:51,NA,incomplete,false,NA,true,5,26,NA,left,E24_Q4_ansL.png,E24_Q2_ansR.png,within,NA,NaN,NA,left,1659.5999999996275,1,1,938.2000000011176
jrxNJuhD,NA,NA,jrxNJuhD,2020-0188,2021-11-11,13:16:25,23:49:51,NA,incomplete,false,true,NA,6,0,E9_Q3_ansL.png,left,NA,NA,NA,left,2487.69999999925,true,NA,NA,NA,NA,NA
jrxNJuhD,NA,NA,jrxNJuhD,2020-0188,2021-11-11,13:16:25,23:49:51,NA,incomplete,false,true,NA,6,1,E9_Q10_ansR.png,right,NA,NA,NA,right,865.300000000745,true,NA,NA,NA,NA,NA
jrxNJuhD,NA,NA,jrxNJuhD,2020-0188,2021-11-11,13:16:25,23:49:51,NA,incomplete,false,true,NA,6,2,E9_Q9_ansL.png,left,NA,NA,NA,left,1680.30000000075,true,NA,NA,NA,NA,NA
jrxNJuhD,NA,NA,jrxNJuhD,2020-0188,2021-11-11,13:16:25,23:49:51,NA,incomplete,false,true,NA,6,3,E9_Q7_ansR.png,right,NA,NA,NA,right,951.800000000745,true,NA,NA,NA,NA,NA
jrxNJuhD,NA,NA,jrxNJuhD,2020-0188,2021-11-11,13:16:25,23:49:51,NA,incomplete,false,true,NA,6,4,E9_Q8_ansR.png,right,NA,NA,NA,right,1848.40000000037,true,NA,NA,NA,NA,NA
jrxNJuhD,NA,NA,jrxNJuhD,2020-0188,2021-11-11,13:16:25,23:49:51,NA,incomplete,false,true,NA,6,5,E9_Q2_ansR.png,right,NA,NA,NA,right,1626.20000000112,true,NA,NA,NA,NA,NA
jrxNJuhD,NA,NA,jrxNJuhD,2020-0188,2021-11-11,13:16:25,23:49:51,NA,incomplete,false,true,NA,6,6,E9_Q1_ansR.png,right,NA,NA,NA,right,1365.90000000037,true,NA,NA,NA,NA,NA
jrxNJuhD,NA,NA,jrxNJuhD,2020-0188,2021-11-11,13:16:25,23:49:51,NA,incomplete,false,true,NA,6,7,E9_Q5_ansL.png,left,NA,NA,NA,left,989.300000000745,true,NA,NA,NA,NA,NA
jrxNJuhD,NA,NA,jrxNJuhD,2020-0188,2021-11-11,13:16:25,23:49:51,NA,incomplete,false,true,NA,6,8,E9_Q4_ansL.png,left,NA,NA,NA,left,998.199999999255,true,NA,NA,NA,NA,NA
jrxNJuhD,NA,NA,jrxNJuhD,2020-0188,2021-11-11,13:16:25,23:49:51,NA,incomplete,false,true,NA,6,9,E9_Q6_ansL.png,left,NA,NA,NA,left,1384.09999999963,true,NA,NA,NA,NA,NA
jrxNJuhD,NA,NA,jrxNJuhD,2020-0188,2021-11-11,13:16:25,23:49:51,NA,incomplete,false,true,NA,6,10,E32_Q10_ansL.png,left,NA,NA,NA,left,2031.30000000075,true,NA,NA,NA,NA,NA
jrxNJuhD,NA,NA,jrxNJuhD,2020-0188,2021-11-11,13:16:25,23:49:51,NA,incomplete,false,true,NA,6,11,E32_Q8_ansL.png,left,NA,NA,NA,left,1127.40000000037,true,NA,NA,NA,NA,NA
jrxNJuhD,NA,NA,jrxNJuhD,2020-0188,2021-11-11,13:16:25,23:49:51,NA,incomplete,false,true,NA,6,12,E32_Q2_ansL.png,left,NA,NA,NA,right,509.39999999851,false,NA,NA,NA,NA,NA
jrxNJuhD,NA,NA,jrxNJuhD,2020-0188,2021-11-11,13:16:25,23:49:51,NA,incomplete,false,true,NA,6,13,E32_Q4_ansR.png,right,NA,NA,NA,right,1897.80000000075,true,NA,NA,NA,NA,NA
jrxNJuhD,NA,NA,jrxNJuhD,2020-0188,2021-11-11,13:16:25,23:49:51,NA,incomplete,false,true,NA,6,14,E32_Q5_ansR.png,right,NA,NA,NA,right,1204.70000000112,true,NA,NA,NA,NA,NA
jrxNJuhD,NA,NA,jrxNJuhD,2020-0188,2021-11-11,13:16:25,23:49:51,NA,incomplete,false,true,NA,6,15,E32_Q1_ansL.png,left,NA,NA,NA,left,1662.80000000075,true,NA,NA,NA,NA,NA
jrxNJuhD,NA,NA,jrxNJuhD,2020-0188,2021-11-11,13:16:25,23:49:51,NA,incomplete,false,true,NA,6,16,E32_Q9_ansR.png,right,NA,NA,NA,right,1073.19999999925,true,NA,NA,NA,NA,NA
jrxNJuhD,NA,NA,jrxNJuhD,2020-0188,2021-11-11,13:16:25,23:49:51,NA,incomplete,false,true,NA,6,17,E32_Q6_ansR.png,right,NA,NA,NA,right,1365.69999999925,true,NA,NA,NA,NA,NA
jrxNJuhD,NA,NA,jrxNJuhD,2020-0188,2021-11-11,13:16:25,23:49:51,NA,incomplete,false,true,NA,6,18,E32_Q7_ansL.png,left,NA,NA,NA,left,1450.5,true,NA,NA,NA,NA,NA
jrxNJuhD,NA,NA,jrxNJuhD,2020-0188,2021-11-11,13:16:25,23:49:51,NA,incomplete,false,true,NA,6,19,E32_Q3_ansR.png,right,NA,NA,NA,right,1510,true,NA,NA,NA,NA,NA
jrxNJuhD,NA,NA,jrxNJuhD,2020-0188,2021-11-11,13:16:25,23:49:51,NA,incomplete,false,true,NA,6,20,E8_Q4_ansL.png,left,NA,NA,NA,left,1498,true,NA,NA,NA,NA,NA
jrxNJuhD,NA,NA,jrxNJuhD,2020-0188,2021-11-11,13:16:25,23:49:51,NA,incomplete,false,true,NA,6,21,E8_Q3_ansL.png,left,NA,NA,NA,left,2137.5,true,NA,NA,NA,NA,NA
jrxNJuhD,NA,NA,jrxNJuhD,2020-0188,2021-11-11,13:16:25,23:49:51,NA,incomplete,false,true,NA,6,22,E8_Q10_ansR.png,right,NA,NA,NA,right,1272.30000000075,true,NA,NA,NA,NA,NA
jrxNJuhD,NA,NA,jrxNJuhD,2020-0188,2021-11-11,13:16:25,23:49:51,NA,incomplete,false,true,NA,6,23,E8_Q6_ansL.png,left,NA,NA,NA,left,1113.30000000075,true,NA,NA,NA,NA,NA
jrxNJuhD,NA,NA,jrxNJuhD,2020-0188,2021-11-11,13:16:25,23:49:51,NA,incomplete,false,true,NA,6,24,E8_Q5_ansL.png,left,NA,NA,NA,left,1063.70000000112,true,NA,NA,NA,NA,NA
jrxNJuhD,NA,NA,jrxNJuhD,2020-0188,2021-11-11,13:16:25,23:49:51,NA,incomplete,false,true,NA,6,25,E8_Q1_ansR.png,right,NA,NA,NA,right,1774.79999999888,true,NA,NA,NA,NA,NA
jrxNJuhD,NA,NA,jrxNJuhD,2020-0188,2021-11-11,13:16:25,23:49:51,NA,incomplete,false,true,NA,6,26,E8_Q7_ansR.png,right,NA,NA,NA,right,2021,true,NA,NA,NA,NA,NA
jrxNJuhD,NA,NA,jrxNJuhD,2020-0188,2021-11-11,13:16:25,23:49:51,NA,incomplete,false,true,NA,6,27,E8_Q2_ansR.png,right,NA,NA,NA,right,1417.80000000075,true,NA,NA,NA,NA,NA
jrxNJuhD,NA,NA,jrxNJuhD,2020-0188,2021-11-11,13:16:25,23:49:51,NA,incomplete,false,true,NA,6,28,E8_Q8_ansR.png,right,NA,NA,NA,right,1405.59999999963,true,NA,NA,NA,NA,NA
jrxNJuhD,NA,NA,jrxNJuhD,2020-0188,2021-11-11,13:16:25,23:49:51,NA,incomplete,false,true,NA,6,29,E8_Q9_ansL.png,left,NA,NA,NA,left,1151.39999999851,true,NA,NA,NA,NA,NA
jrxNJuhD,NA,NA,jrxNJuhD,2020-0188,2021-11-11,13:16:25,23:49:51,NA,incomplete,false,NA,true,6,0,NA,right,E8_Q9_ansL.png,E8_Q7_ansR.png,within,NA,NaN,NA,right,2752.800000000745,1,1,1494.699999999255
jrxNJuhD,NA,NA,jrxNJuhD,2020-0188,2021-11-11,13:16:25,23:49:51,NA,incomplete,false,NA,true,6,1,NA,left,E9_Q3_ansL.png,E9_Q7_ansR.png,within,NA,NaN,NA,right,18637.400000000373,0,1,1284.5
jrxNJuhD,NA,NA,jrxNJuhD,2020-0188,2021-11-11,13:16:25,23:49:51,NA,incomplete,false,NA,true,6,2,NA,left,E9_Q2_ansR.png,E9_Q4_ansL.png,within,NA,NaN,NA,left,6228.0999999996275,1,1,1025.7000000011176
jrxNJuhD,NA,NA,jrxNJuhD,2020-0188,2021-11-11,13:16:25,23:49:51,NA,incomplete,false,NA,true,6,3,NA,right,E32_Q3_ansR.png,E32_Q9_ansR.png,within,NA,NaN,NA,right,2169.0999999996275,1,1,1376.3999999985099
jrxNJuhD,NA,NA,jrxNJuhD,2020-0188,2021-11-11,13:16:25,23:49:51,NA,incomplete,false,NA,true,6,4,NA,right,E8_Q1_ansR.png,E8_Q10_ansR.png,within,NA,NaN,NA,left,1927.0999999996275,0,1,1351.5
jrxNJuhD,NA,NA,jrxNJuhD,2020-0188,2021-11-11,13:16:25,23:49:51,NA,incomplete,false,NA,true,6,5,NA,left,E8_Q4_ansL.png,E8_Q6_ansL.png,within,NA,NaN,NA,left,2871.0999999996275,1,1,1170.800000000745
jrxNJuhD,NA,NA,jrxNJuhD,2020-0188,2021-11-11,13:16:25,23:49:51,NA,incomplete,false,NA,true,6,6,NA,left,E32_Q1_ansL.png,E32_Q7_ansL.png,within,NA,NaN,NA,right,6125.4000000003725,0,1,1242.199999999255
jrxNJuhD,NA,NA,jrxNJuhD,2020-0188,2021-11-11,13:16:25,23:49:51,NA,incomplete,false,NA,true,6,7,NA,left,E32_Q3_ansR.png,E8_Q10_ansR.png,between,NA,NaN,NA,left,2235.10000000149,1,2,3782.2000000011176
jrxNJuhD,NA,NA,jrxNJuhD,2020-0188,2021-11-11,13:16:25,23:49:51,NA,incomplete,false,NA,true,6,8,NA,left,E8_Q5_ansL.png,E8_Q2_ansR.png,within,NA,NaN,NA,left,2422.5,1,1,4553.4000000003725
jrxNJuhD,NA,NA,jrxNJuhD,2020-0188,2021-11-11,13:16:25,23:49:51,NA,incomplete,false,NA,true,6,9,NA,left,E32_Q8_ansL.png,E32_Q5_ansR.png,within,NA,NaN,NA,right,3296.2999999988824,0,0,1512.7000000011176
jrxNJuhD,NA,NA,jrxNJuhD,2020-0188,2021-11-11,13:16:25,23:49:51,NA,incomplete,false,NA,true,6,10,NA,right,E9_Q2_ansR.png,E9_Q9_ansL.png,within,NA,NaN,NA,left,3063.0999999996275,0,1,995.4000000003725
jrxNJuhD,NA,NA,jrxNJuhD,2020-0188,2021-11-11,13:16:25,23:49:51,NA,incomplete,false,NA,true,6,11,NA,left,E9_Q8_ansR.png,E9_Q5_ansL.png,within,NA,NaN,NA,left,2162,1,1,1125.4000000003725
jrxNJuhD,NA,NA,jrxNJuhD,2020-0188,2021-11-11,13:16:25,23:49:51,NA,incomplete,false,NA,true,6,12,NA,left,E32_Q2_ansL.png,E32_Q1_ansL.png,within,NA,NaN,NA,right,1813.300000000745,0,1,2007.5
jrxNJuhD,NA,NA,jrxNJuhD,2020-0188,2021-11-11,13:16:25,23:49:51,NA,incomplete,false,NA,true,6,13,NA,right,E8_Q3_ansL.png,E32_Q7_ansL.png,between,NA,NaN,NA,right,2550.39999999851,1,1,1067.199999999255
jrxNJuhD,NA,NA,jrxNJuhD,2020-0188,2021-11-11,13:16:25,23:49:51,NA,incomplete,false,NA,true,6,14,NA,left,E9_Q6_ansL.png,E32_Q2_ansL.png,between,NA,NaN,NA,left,3814.800000000745,1,2,1456.4000000003725
jrxNJuhD,NA,NA,jrxNJuhD,2020-0188,2021-11-11,13:16:25,23:49:51,NA,incomplete,false,NA,true,6,15,NA,left,E9_Q10_ansR.png,E9_Q8_ansR.png,within,NA,NaN,NA,left,3713.199999999255,1,1,2904.5
jrxNJuhD,NA,NA,jrxNJuhD,2020-0188,2021-11-11,13:16:25,23:49:51,NA,incomplete,false,NA,true,6,16,NA,left,E32_Q10_ansL.png,E32_Q4_ansR.png,within,NA,NaN,NA,left,404931.0999999996,1,1,1870.7999999988824
jrxNJuhD,NA,NA,jrxNJuhD,2020-0188,2021-11-11,13:16:25,23:49:51,NA,incomplete,false,NA,true,6,17,NA,right,E32_Q10_ansL.png,E9_Q5_ansL.png,between,NA,NaN,NA,right,5261.9000000003725,1,2,2291.4000000003725
jrxNJuhD,NA,NA,jrxNJuhD,2020-0188,2021-11-11,13:16:25,23:49:51,NA,incomplete,false,NA,true,6,18,NA,left,E8_Q3_ansL.png,E8_Q5_ansL.png,within,NA,NaN,NA,left,15364.5,1,1,163269.30000000075
jrxNJuhD,NA,NA,jrxNJuhD,2020-0188,2021-11-11,13:16:25,23:49:51,NA,incomplete,false,NA,true,6,19,NA,left,E8_Q6_ansL.png,E8_Q7_ansR.png,within,NA,NaN,NA,left,201065.19999999925,1,1,1539
jrxNJuhD,NA,NA,jrxNJuhD,2020-0188,2021-11-11,13:16:25,23:49:51,NA,incomplete,false,NA,true,6,20,NA,right,E8_Q8_ansR.png,E8_Q1_ansR.png,within,NA,NaN,NA,right,1335.4000000003725,1,1,1003.2999999988824
jrxNJuhD,NA,NA,jrxNJuhD,2020-0188,2021-11-11,13:16:25,23:49:51,NA,incomplete,false,NA,true,6,21,NA,right,E32_Q8_ansL.png,E9_Q4_ansL.png,between,NA,NaN,NA,right,2340.2999999988824,1,2,1149.5999999996275
jrxNJuhD,NA,NA,jrxNJuhD,2020-0188,2021-11-11,13:16:25,23:49:51,NA,incomplete,false,NA,true,6,22,NA,left,E32_Q4_ansR.png,E32_Q9_ansR.png,within,NA,NaN,NA,right,1358.5,0,1,1739.7999999988824
jrxNJuhD,NA,NA,jrxNJuhD,2020-0188,2021-11-11,13:16:25,23:49:51,NA,incomplete,false,NA,true,6,23,NA,left,E9_Q1_ansR.png,E9_Q6_ansL.png,within,NA,NaN,NA,right,2177.7999999988824,0,1,1544.9000000003725
jrxNJuhD,NA,NA,jrxNJuhD,2020-0188,2021-11-11,13:16:25,23:49:51,NA,incomplete,false,NA,true,6,24,NA,right,E8_Q4_ansL.png,E32_Q6_ansR.png,between,NA,NaN,NA,left,2680,0,1,1303.0999999996275
jrxNJuhD,NA,NA,jrxNJuhD,2020-0188,2021-11-11,13:16:25,23:49:51,NA,incomplete,false,NA,true,6,25,NA,right,E9_Q1_ansR.png,E9_Q7_ansR.png,within,NA,NaN,NA,right,2089.5,1,1,970.5
jrxNJuhD,NA,NA,jrxNJuhD,2020-0188,2021-11-11,13:16:25,23:49:51,NA,incomplete,false,NA,true,6,26,NA,right,E32_Q6_ansR.png,E32_Q5_ansR.png,within,NA,NaN,NA,right,1383.9000000003725,1,0,2277.699999999255
jrxNJuhD,NA,NA,jrxNJuhD,2020-0188,2021-11-11,13:16:25,23:49:51,NA,incomplete,false,true,NA,7,0,E6_Q4_ansR.png,right,NA,NA,NA,right,1965.40000000037,true,NA,NA,NA,NA,NA
jrxNJuhD,NA,NA,jrxNJuhD,2020-0188,2021-11-11,13:16:25,23:49:51,NA,incomplete,false,true,NA,7,1,E6_Q2_ansL.png,left,NA,NA,NA,left,1643.29999999888,true,NA,NA,NA,NA,NA
jrxNJuhD,NA,NA,jrxNJuhD,2020-0188,2021-11-11,13:16:25,23:49:51,NA,incomplete,false,true,NA,7,2,E6_Q9_ansL.png,left,NA,NA,NA,left,1026.79999999888,true,NA,NA,NA,NA,NA
jrxNJuhD,NA,NA,jrxNJuhD,2020-0188,2021-11-11,13:16:25,23:49:51,NA,incomplete,false,true,NA,7,3,E6_Q3_ansR.png,right,NA,NA,NA,right,1645.20000000112,true,NA,NA,NA,NA,NA
jrxNJuhD,NA,NA,jrxNJuhD,2020-0188,2021-11-11,13:16:25,23:49:51,NA,incomplete,false,true,NA,7,4,E6_Q1_ansL.png,left,NA,NA,NA,left,2258.20000000112,true,NA,NA,NA,NA,NA
jrxNJuhD,NA,NA,jrxNJuhD,2020-0188,2021-11-11,13:16:25,23:49:51,NA,incomplete,false,true,NA,7,5,E6_Q7_ansL.png,left,NA,NA,NA,left,1716.69999999925,true,NA,NA,NA,NA,NA
jrxNJuhD,NA,NA,jrxNJuhD,2020-0188,2021-11-11,13:16:25,23:49:51,NA,incomplete,false,true,NA,7,6,E6_Q10_ansL.png,left,NA,NA,NA,left,1354.90000000037,true,NA,NA,NA,NA,NA
jrxNJuhD,NA,NA,jrxNJuhD,2020-0188,2021-11-11,13:16:25,23:49:51,NA,incomplete,false,true,NA,7,7,E6_Q6_ansR.png,right,NA,NA,NA,right,1825.20000000112,true,NA,NA,NA,NA,NA
jrxNJuhD,NA,NA,jrxNJuhD,2020-0188,2021-11-11,13:16:25,23:49:51,NA,incomplete,false,true,NA,7,8,E6_Q8_ansL.png,left,NA,NA,NA,left,1438.5,true,NA,NA,NA,NA,NA
jrxNJuhD,NA,NA,jrxNJuhD,2020-0188,2021-11-11,13:16:25,23:49:51,NA,incomplete,false,true,NA,7,9,E6_Q5_ansR.png,right,NA,NA,NA,right,1818.80000000075,true,NA,NA,NA,NA,NA
jrxNJuhD,NA,NA,jrxNJuhD,2020-0188,2021-11-11,13:16:25,23:49:51,NA,incomplete,false,true,NA,7,10,E30_Q3_ansL.png,left,NA,NA,NA,left,3160,true,NA,NA,NA,NA,NA
jrxNJuhD,NA,NA,jrxNJuhD,2020-0188,2021-11-11,13:16:25,23:49:51,NA,incomplete,false,true,NA,7,11,E30_Q1_ansL.png,left,NA,NA,NA,left,1722.79999999888,true,NA,NA,NA,NA,NA
jrxNJuhD,NA,NA,jrxNJuhD,2020-0188,2021-11-11,13:16:25,23:49:51,NA,incomplete,false,true,NA,7,12,E30_Q6_ansR.png,right,NA,NA,NA,none,0,false,NA,NA,NA,NA,NA
jrxNJuhD,NA,NA,jrxNJuhD,2020-0188,2021-11-11,13:16:25,23:49:51,NA,incomplete,false,true,NA,7,13,E30_Q4_ansL.png,left,NA,NA,NA,left,1850.40000000037,true,NA,NA,NA,NA,NA
jrxNJuhD,NA,NA,jrxNJuhD,2020-0188,2021-11-11,13:16:25,23:49:51,NA,incomplete,false,true,NA,7,14,E30_Q8_ansL.png,left,NA,NA,NA,right,2610.59999999963,false,NA,NA,NA,NA,NA
jrxNJuhD,NA,NA,jrxNJuhD,2020-0188,2021-11-11,13:16:25,23:49:51,NA,incomplete,false,true,NA,7,15,E30_Q9_ansL.png,left,NA,NA,NA,left,2571.90000000037,true,NA,NA,NA,NA,NA
jrxNJuhD,NA,NA,jrxNJuhD,2020-0188,2021-11-11,13:16:25,23:49:51,NA,incomplete,false,true,NA,7,16,E30_Q10_ansR.png,right,NA,NA,NA,left,1888.90000000037,false,NA,NA,NA,NA,NA
jrxNJuhD,NA,NA,jrxNJuhD,2020-0188,2021-11-11,13:16:25,23:49:51,NA,incomplete,false,true,NA,7,17,E30_Q5_ansR.png,right,NA,NA,NA,right,2420.70000000112,true,NA,NA,NA,NA,NA
jrxNJuhD,NA,NA,jrxNJuhD,2020-0188,2021-11-11,13:16:25,23:49:51,NA,incomplete,false,true,NA,7,18,E30_Q2_ansL.png,left,NA,NA,NA,left,1651.80000000075,true,NA,NA,NA,NA,NA
jrxNJuhD,NA,NA,jrxNJuhD,2020-0188,2021-11-11,13:16:25,23:49:51,NA,incomplete,false,true,NA,7,19,E30_Q7_ansL.png,left,NA,NA,NA,right,1566.59999999963,false,NA,NA,NA,NA,NA
jrxNJuhD,NA,NA,jrxNJuhD,2020-0188,2021-11-11,13:16:25,23:49:51,NA,incomplete,false,true,NA,7,20,E4_Q10_ansR.png,right,NA,NA,NA,right,1478.90000000037,true,NA,NA,NA,NA,NA
jrxNJuhD,NA,NA,jrxNJuhD,2020-0188,2021-11-11,13:16:25,23:49:51,NA,incomplete,false,true,NA,7,21,E4_Q7_ansR.png,right,NA,NA,NA,right,1265.69999999925,true,NA,NA,NA,NA,NA
jrxNJuhD,NA,NA,jrxNJuhD,2020-0188,2021-11-11,13:16:25,23:49:51,NA,incomplete,false,true,NA,7,22,E4_Q1_ansL.png,left,NA,NA,NA,left,1016.29999999888,true,NA,NA,NA,NA,NA
jrxNJuhD,NA,NA,jrxNJuhD,2020-0188,2021-11-11,13:16:25,23:49:51,NA,incomplete,false,true,NA,7,23,E4_Q3_ansL.png,left,NA,NA,NA,left,2417,true,NA,NA,NA,NA,NA
jrxNJuhD,NA,NA,jrxNJuhD,2020-0188,2021-11-11,13:16:25,23:49:51,NA,incomplete,false,true,NA,7,24,E4_Q4_ansL.png,left,NA,NA,NA,left,1420.29999999888,true,NA,NA,NA,NA,NA
jrxNJuhD,NA,NA,jrxNJuhD,2020-0188,2021-11-11,13:16:25,23:49:51,NA,incomplete,false,true,NA,7,25,E4_Q9_ansL.png,left,NA,NA,NA,left,1432.5,true,NA,NA,NA,NA,NA
jrxNJuhD,NA,NA,jrxNJuhD,2020-0188,2021-11-11,13:16:25,23:49:51,NA,incomplete,false,true,NA,7,26,E4_Q5_ansR.png,right,NA,NA,NA,right,1473,true,NA,NA,NA,NA,NA
jrxNJuhD,NA,NA,jrxNJuhD,2020-0188,2021-11-11,13:16:25,23:49:51,NA,incomplete,false,true,NA,7,27,E4_Q6_ansR.png,right,NA,NA,NA,right,1506.20000000112,true,NA,NA,NA,NA,NA
jrxNJuhD,NA,NA,jrxNJuhD,2020-0188,2021-11-11,13:16:25,23:49:51,NA,incomplete,false,true,NA,7,28,E4_Q8_ansR.png,right,NA,NA,NA,right,671.39999999851,true,NA,NA,NA,NA,NA
jrxNJuhD,NA,NA,jrxNJuhD,2020-0188,2021-11-11,13:16:25,23:49:51,NA,incomplete,false,true,NA,7,29,E4_Q2_ansL.png,left,NA,NA,NA,left,2014.5,true,NA,NA,NA,NA,NA
jrxNJuhD,NA,NA,jrxNJuhD,2020-0188,2021-11-11,13:16:25,23:49:51,NA,incomplete,false,NA,true,7,0,NA,left,E6_Q10_ansL.png,E6_Q5_ansR.png,within,NA,NaN,NA,right,3625.2999999988824,0,1,6628.4000000003725
jrxNJuhD,NA,NA,jrxNJuhD,2020-0188,2021-11-11,13:16:25,23:49:51,NA,incomplete,false,NA,true,7,1,NA,right,E4_Q3_ansL.png,E4_Q10_ansR.png,within,NA,NaN,NA,left,7948.5,0,1,3893.0999999996275
jrxNJuhD,NA,NA,jrxNJuhD,2020-0188,2021-11-11,13:16:25,23:49:51,NA,incomplete,false,NA,true,7,2,NA,left,E30_Q4_ansL.png,E30_Q10_ansR.png,within,NA,NaN,NA,right,8057.5,0,1,1246.300000000745
jrxNJuhD,NA,NA,jrxNJuhD,2020-0188,2021-11-11,13:16:25,23:49:51,NA,incomplete,false,NA,true,7,3,NA,left,E6_Q4_ansR.png,E6_Q3_ansR.png,within,NA,NaN,NA,left,10361.699999999255,1,1,1933.5999999996275
jrxNJuhD,NA,NA,jrxNJuhD,2020-0188,2021-11-11,13:16:25,23:49:51,NA,incomplete,false,NA,true,7,4,NA,left,E30_Q9_ansL.png,E30_Q2_ansL.png,within,NA,NaN,NA,left,4152.9000000003725,1,1,28639.300000000745
jrxNJuhD,NA,NA,jrxNJuhD,2020-0188,2021-11-11,13:16:25,23:49:51,NA,incomplete,false,NA,true,7,5,NA,right,E6_Q8_ansL.png,E6_Q7_ansL.png,within,NA,NaN,NA,right,4590.300000000745,1,1,2882.300000000745
jrxNJuhD,NA,NA,jrxNJuhD,2020-0188,2021-11-11,13:16:25,23:49:51,NA,incomplete,false,NA,true,7,6,NA,right,E30_Q5_ansR.png,E30_Q8_ansL.png,within,NA,NaN,NA,right,10668.400000000373,1,1,1814.4000000003725
jrxNJuhD,NA,NA,jrxNJuhD,2020-0188,2021-11-11,13:16:25,23:49:51,NA,incomplete,false,NA,true,7,7,NA,right,E4_Q8_ansR.png,E4_Q9_ansL.png,within,NA,NaN,NA,left,3635.89999999851,0,1,1276.800000000745
jrxNJuhD,NA,NA,jrxNJuhD,2020-0188,2021-11-11,13:16:25,23:49:51,NA,incomplete,false,NA,true,7,8,NA,right,E4_Q6_ansR.png,E4_Q4_ansL.png,within,NA,NaN,NA,left,13033.599999999627,0,1,8289.599999999627
jrxNJuhD,NA,NA,jrxNJuhD,2020-0188,2021-11-11,13:16:25,23:49:51,NA,incomplete,false,NA,true,7,9,NA,left,E6_Q2_ansL.png,E6_Q1_ansL.png,within,NA,NaN,NA,left,16039.900000000373,1,1,21930.200000001118
jrxNJuhD,NA,NA,jrxNJuhD,2020-0188,2021-11-11,13:16:25,23:49:51,NA,incomplete,false,NA,true,7,10,NA,right,E30_Q7_ansL.png,E30_Q10_ansR.png,within,NA,NaN,NA,right,4605.700000001118,1,1,2218.0999999996275
jrxNJuhD,NA,NA,jrxNJuhD,2020-0188,2021-11-11,13:16:25,23:49:51,NA,incomplete,false,NA,true,7,11,NA,left,E4_Q7_ansR.png,E4_Q4_ansL.png,within,NA,NaN,NA,right,5178.9000000003725,0,1,1781.5999999996275
jrxNJuhD,NA,NA,jrxNJuhD,2020-0188,2021-11-11,13:16:25,23:49:51,NA,incomplete,false,NA,true,7,12,NA,left,E6_Q8_ansL.png,E30_Q1_ansL.png,between,NA,NaN,NA,left,10670.599999999627,1,2,4138.5
jrxNJuhD,NA,NA,jrxNJuhD,2020-0188,2021-11-11,13:16:25,23:49:51,NA,incomplete,false,NA,true,7,13,NA,right,E6_Q10_ansL.png,E6_Q3_ansR.png,within,NA,NaN,NA,left,3168.39999999851,0,1,2858.5
jrxNJuhD,NA,NA,jrxNJuhD,2020-0188,2021-11-11,13:16:25,23:49:51,NA,incomplete,false,NA,true,7,14,NA,right,E30_Q9_ansL.png,E30_Q6_ansR.png,within,NA,NaN,NA,left,7330.699999999255,0,1,1496.9000000003725
jrxNJuhD,NA,NA,jrxNJuhD,2020-0188,2021-11-11,13:16:25,23:49:51,NA,incomplete,false,NA,true,7,15,NA,right,E30_Q8_ansL.png,E30_Q1_ansL.png,within,NA,NaN,NA,left,22983,0,1,2306.9000000003725
jrxNJuhD,NA,NA,jrxNJuhD,2020-0188,2021-11-11,13:16:25,23:49:51,NA,incomplete,false,NA,true,7,16,NA,left,E6_Q1_ansL.png,E6_Q6_ansR.png,within,NA,NaN,NA,right,3442,0,1,3211.4000000003725
jrxNJuhD,NA,NA,jrxNJuhD,2020-0188,2021-11-11,13:16:25,23:49:51,NA,incomplete,false,NA,true,7,17,NA,left,E6_Q9_ansL.png,E6_Q7_ansL.png,within,NA,NaN,NA,right,5066,0,1,1229
jrxNJuhD,NA,NA,jrxNJuhD,2020-0188,2021-11-11,13:16:25,23:49:51,NA,incomplete,false,NA,true,7,18,NA,right,E30_Q6_ansR.png,E6_Q5_ansR.png,between,NA,NaN,NA,left,20028,0,2,19890.10000000149
jrxNJuhD,NA,NA,jrxNJuhD,2020-0188,2021-11-11,13:16:25,23:49:51,NA,incomplete,false,NA,true,7,19,NA,left,E6_Q6_ansR.png,E30_Q3_ansL.png,between,NA,NaN,NA,right,5388,0,2,48149.59999999963
jrxNJuhD,NA,NA,jrxNJuhD,2020-0188,2021-11-11,13:16:25,23:49:51,NA,incomplete,false,NA,true,7,20,NA,left,E30_Q7_ansL.png,E4_Q1_ansL.png,between,NA,NaN,NA,right,7821.9000000003725,0,2,3027.9000000003725
jrxNJuhD,NA,NA,jrxNJuhD,2020-0188,2021-11-11,13:16:25,23:49:51,NA,incomplete,false,NA,true,7,21,NA,right,E4_Q2_ansL.png,E4_Q5_ansR.png,within,NA,NaN,NA,left,7102.4000000003725,0,1,2754.4000000003725
jrxNJuhD,NA,NA,jrxNJuhD,2020-0188,2021-11-11,13:16:25,23:49:51,NA,incomplete,false,NA,true,7,22,NA,right,E30_Q4_ansL.png,E30_Q3_ansL.png,within,NA,NaN,NA,right,3642.7999999988824,1,1,1238.0999999996275
jrxNJuhD,NA,NA,jrxNJuhD,2020-0188,2021-11-11,13:16:25,23:49:51,NA,incomplete,false,NA,true,7,23,NA,left,E4_Q1_ansL.png,E4_Q9_ansL.png,within,NA,NaN,NA,right,8610.400000000373,0,1,1116.2000000011176
jrxNJuhD,NA,NA,jrxNJuhD,2020-0188,2021-11-11,13:16:25,23:49:51,NA,incomplete,false,NA,true,7,24,NA,right,E4_Q7_ansR.png,E30_Q2_ansL.png,between,NA,NaN,NA,right,5896.10000000149,1,2,2906
jrxNJuhD,NA,NA,jrxNJuhD,2020-0188,2021-11-11,13:16:25,23:49:51,NA,incomplete,false,NA,true,7,25,NA,right,E4_Q10_ansR.png,E30_Q5_ansR.png,between,NA,NaN,NA,right,3657.7999999988824,1,2,25184.300000000745
jrxNJuhD,NA,NA,jrxNJuhD,2020-0188,2021-11-11,13:16:25,23:49:51,NA,incomplete,false,NA,true,7,26,NA,right,E4_Q5_ansR.png,E4_Q3_ansL.png,within,NA,NaN,NA,right,4371.9000000003725,1,1,1529
jrxNJuhD,NA,NA,jrxNJuhD,2020-0188,2021-11-11,13:16:25,23:49:51,NA,incomplete,false,true,NA,8,0,E11_Q9_ansL.png,left,NA,NA,NA,left,2016.69999999925,true,NA,NA,NA,NA,NA
jrxNJuhD,NA,NA,jrxNJuhD,2020-0188,2021-11-11,13:16:25,23:49:51,NA,incomplete,false,true,NA,8,1,E11_Q5_ansL.png,left,NA,NA,NA,right,1411.89999999851,false,NA,NA,NA,NA,NA
jrxNJuhD,NA,NA,jrxNJuhD,2020-0188,2021-11-11,13:16:25,23:49:51,NA,incomplete,false,true,NA,8,2,E11_Q6_ansL.png,left,NA,NA,NA,left,1811.80000000075,true,NA,NA,NA,NA,NA
jrxNJuhD,NA,NA,jrxNJuhD,2020-0188,2021-11-11,13:16:25,23:49:51,NA,incomplete,false,true,NA,8,3,E11_Q8_ansR.png,right,NA,NA,NA,left,1262.40000000224,false,NA,NA,NA,NA,NA
jrxNJuhD,NA,NA,jrxNJuhD,2020-0188,2021-11-11,13:16:25,23:49:51,NA,incomplete,false,true,NA,8,4,E11_Q10_ansR.png,right,NA,NA,NA,right,1202.80000000075,true,NA,NA,NA,NA,NA
jrxNJuhD,NA,NA,jrxNJuhD,2020-0188,2021-11-11,13:16:25,23:49:51,NA,incomplete,false,true,NA,8,5,E11_Q1_ansR.png,right,NA,NA,NA,right,1080.69999999925,true,NA,NA,NA,NA,NA
jrxNJuhD,NA,NA,jrxNJuhD,2020-0188,2021-11-11,13:16:25,23:49:51,NA,incomplete,false,true,NA,8,6,E11_Q7_ansR.png,right,NA,NA,NA,right,1079.69999999925,true,NA,NA,NA,NA,NA
jrxNJuhD,NA,NA,jrxNJuhD,2020-0188,2021-11-11,13:16:25,23:49:51,NA,incomplete,false,true,NA,8,7,E11_Q2_ansR.png,right,NA,NA,NA,right,1022.40000000224,true,NA,NA,NA,NA,NA
jrxNJuhD,NA,NA,jrxNJuhD,2020-0188,2021-11-11,13:16:25,23:49:51,NA,incomplete,false,true,NA,8,8,E11_Q3_ansL.png,left,NA,NA,NA,left,1606.40000000224,true,NA,NA,NA,NA,NA
jrxNJuhD,NA,NA,jrxNJuhD,2020-0188,2021-11-11,13:16:25,23:49:51,NA,incomplete,false,true,NA,8,9,E11_Q4_ansL.png,left,NA,NA,NA,left,1697.80000000075,true,NA,NA,NA,NA,NA
jrxNJuhD,NA,NA,jrxNJuhD,2020-0188,2021-11-11,13:16:25,23:49:51,NA,incomplete,false,true,NA,8,10,E10_Q4_ansL.png,left,NA,NA,NA,left,1914.19999999925,true,NA,NA,NA,NA,NA
jrxNJuhD,NA,NA,jrxNJuhD,2020-0188,2021-11-11,13:16:25,23:49:51,NA,incomplete,false,true,NA,8,11,E10_Q7_ansR.png,right,NA,NA,NA,left,1916.69999999925,false,NA,NA,NA,NA,NA
jrxNJuhD,NA,NA,jrxNJuhD,2020-0188,2021-11-11,13:16:25,23:49:51,NA,incomplete,false,true,NA,8,12,E10_Q10_ansR.png,right,NA,NA,NA,right,3144.90000000224,true,NA,NA,NA,NA,NA
jrxNJuhD,NA,NA,jrxNJuhD,2020-0188,2021-11-11,13:16:25,23:49:51,NA,incomplete,false,true,NA,8,13,E10_Q6_ansR.png,right,NA,NA,NA,right,2455.5,true,NA,NA,NA,NA,NA
jrxNJuhD,NA,NA,jrxNJuhD,2020-0188,2021-11-11,13:16:25,23:49:51,NA,incomplete,false,true,NA,8,14,E10_Q2_ansL.png,left,NA,NA,NA,left,1938.59999999776,true,NA,NA,NA,NA,NA
jrxNJuhD,NA,NA,jrxNJuhD,2020-0188,2021-11-11,13:16:25,23:49:51,NA,incomplete,false,true,NA,8,15,E10_Q9_ansL.png,left,NA,NA,NA,left,1549.10000000149,true,NA,NA,NA,NA,NA
jrxNJuhD,NA,NA,jrxNJuhD,2020-0188,2021-11-11,13:16:25,23:49:51,NA,incomplete,false,true,NA,8,16,E10_Q5_ansR.png,right,NA,NA,NA,left,2181.69999999925,false,NA,NA,NA,NA,NA
jrxNJuhD,NA,NA,jrxNJuhD,2020-0188,2021-11-11,13:16:25,23:49:51,NA,incomplete,false,true,NA,8,17,E10_Q8_ansR.png,right,NA,NA,NA,left,1804.89999999851,false,NA,NA,NA,NA,NA
jrxNJuhD,NA,NA,jrxNJuhD,2020-0188,2021-11-11,13:16:25,23:49:51,NA,incomplete,false,true,NA,8,18,E10_Q1_ansL.png,left,NA,NA,NA,left,2033.19999999925,true,NA,NA,NA,NA,NA
jrxNJuhD,NA,NA,jrxNJuhD,2020-0188,2021-11-11,13:16:25,23:49:51,NA,incomplete,false,true,NA,8,19,E10_Q3_ansL.png,left,NA,NA,NA,right,1961.89999999851,false,NA,NA,NA,NA,NA
jrxNJuhD,NA,NA,jrxNJuhD,2020-0188,2021-11-11,13:16:25,23:49:51,NA,incomplete,false,true,NA,8,20,E29_Q2_ansL.png,left,NA,NA,NA,left,2593.39999999851,true,NA,NA,NA,NA,NA
jrxNJuhD,NA,NA,jrxNJuhD,2020-0188,2021-11-11,13:16:25,23:49:51,NA,incomplete,false,true,NA,8,21,E29_Q10_ansL.png,left,NA,NA,NA,left,1282,true,NA,NA,NA,NA,NA
jrxNJuhD,NA,NA,jrxNJuhD,2020-0188,2021-11-11,13:16:25,23:49:51,NA,incomplete,false,true,NA,8,22,E29_Q3_ansR.png,right,NA,NA,NA,right,1816.5,true,NA,NA,NA,NA,NA
jrxNJuhD,NA,NA,jrxNJuhD,2020-0188,2021-11-11,13:16:25,23:49:51,NA,incomplete,false,true,NA,8,23,E29_Q1_ansL.png,left,NA,NA,NA,left,1463.60000000149,true,NA,NA,NA,NA,NA
jrxNJuhD,NA,NA,jrxNJuhD,2020-0188,2021-11-11,13:16:25,23:49:51,NA,incomplete,false,true,NA,8,24,E29_Q4_ansR.png,right,NA,NA,NA,right,2081.5,true,NA,NA,NA,NA,NA
jrxNJuhD,NA,NA,jrxNJuhD,2020-0188,2021-11-11,13:16:25,23:49:51,NA,incomplete,false,true,NA,8,25,E29_Q8_ansL.png,left,NA,NA,NA,left,1237.39999999851,true,NA,NA,NA,NA,NA
jrxNJuhD,NA,NA,jrxNJuhD,2020-0188,2021-11-11,13:16:25,23:49:51,NA,incomplete,false,true,NA,8,26,E29_Q7_ansL.png,left,NA,NA,NA,left,1094.30000000075,true,NA,NA,NA,NA,NA
jrxNJuhD,NA,NA,jrxNJuhD,2020-0188,2021-11-11,13:16:25,23:49:51,NA,incomplete,false,true,NA,8,27,E29_Q9_ansR.png,right,NA,NA,NA,right,2151.5,true,NA,NA,NA,NA,NA
jrxNJuhD,NA,NA,jrxNJuhD,2020-0188,2021-11-11,13:16:25,23:49:51,NA,incomplete,false,true,NA,8,28,E29_Q5_ansR.png,right,NA,NA,NA,right,1891.29999999702,true,NA,NA,NA,NA,NA
jrxNJuhD,NA,NA,jrxNJuhD,2020-0188,2021-11-11,13:16:25,23:49:51,NA,incomplete,false,true,NA,8,29,E29_Q6_ansR.png,right,NA,NA,NA,none,0,false,NA,NA,NA,NA,NA
jrxNJuhD,NA,NA,jrxNJuhD,2020-0188,2021-11-11,13:16:25,23:49:51,NA,incomplete,false,NA,true,8,0,NA,left,E10_Q9_ansL.png,E10_Q1_ansL.png,within,NA,NaN,NA,left,2833.300000000745,1,1,995.3999999985099
jrxNJuhD,NA,NA,jrxNJuhD,2020-0188,2021-11-11,13:16:25,23:49:51,NA,incomplete,false,NA,true,8,1,NA,left,E11_Q3_ansL.png,E10_Q7_ansR.png,between,NA,NaN,NA,left,1504.0999999977648,1,2,865.6999999992549
jrxNJuhD,NA,NA,jrxNJuhD,2020-0188,2021-11-11,13:16:25,23:49:51,NA,incomplete,false,NA,true,8,2,NA,left,E10_Q3_ansL.png,E29_Q3_ansR.png,between,NA,NaN,NA,left,1603.300000000745,1,2,1172.800000000745
jrxNJuhD,NA,NA,jrxNJuhD,2020-0188,2021-11-11,13:16:25,23:49:51,NA,incomplete,false,NA,true,8,3,NA,right,E10_Q8_ansR.png,E10_Q2_ansL.png,within,NA,NaN,NA,left,2047.1000000014901,0,1,897.4000000022352
jrxNJuhD,NA,NA,jrxNJuhD,2020-0188,2021-11-11,13:16:25,23:49:51,NA,incomplete,false,NA,true,8,4,NA,right,E29_Q2_ansL.png,E10_Q8_ansR.png,between,NA,NaN,NA,right,1586.1000000014901,1,2,3480.199999999255
jrxNJuhD,NA,NA,jrxNJuhD,2020-0188,2021-11-11,13:16:25,23:49:51,NA,incomplete,false,NA,true,8,5,NA,left,E11_Q9_ansL.png,E11_Q8_ansR.png,within,NA,NaN,NA,right,3981.10000000149,0,1,1083.3999999985099
jrxNJuhD,NA,NA,jrxNJuhD,2020-0188,2021-11-11,13:16:25,23:49:51,NA,incomplete,false,NA,true,8,6,NA,right,E10_Q6_ansR.png,E10_Q4_ansL.png,within,NA,NaN,NA,right,2015,1,1,1780.1000000014901
jrxNJuhD,NA,NA,jrxNJuhD,2020-0188,2021-11-11,13:16:25,23:49:51,NA,incomplete,false,NA,true,8,7,NA,left,E11_Q2_ansR.png,E10_Q4_ansL.png,between,NA,NaN,NA,right,4638.70000000298,0,2,1034.7999999970198
jrxNJuhD,NA,NA,jrxNJuhD,2020-0188,2021-11-11,13:16:25,23:49:51,NA,incomplete,false,NA,true,8,8,NA,left,E11_Q4_ansL.png,E10_Q10_ansR.png,between,NA,NaN,NA,right,10501.89999999851,0,2,3238.099999997765
jrxNJuhD,NA,NA,jrxNJuhD,2020-0188,2021-11-11,13:16:25,23:49:51,NA,incomplete,false,NA,true,8,9,NA,right,E29_Q10_ansL.png,E10_Q1_ansL.png,between,NA,NaN,NA,right,2608.199999999255,1,2,1164.300000000745
jrxNJuhD,NA,NA,jrxNJuhD,2020-0188,2021-11-11,13:16:25,23:49:51,NA,incomplete,false,NA,true,8,10,NA,right,E11_Q2_ansR.png,E11_Q10_ansR.png,within,NA,NaN,NA,right,2169.599999997765,1,1,995
jrxNJuhD,NA,NA,jrxNJuhD,2020-0188,2021-11-11,13:16:25,23:49:51,NA,incomplete,false,NA,true,8,11,NA,right,E29_Q7_ansL.png,E29_Q1_ansL.png,within,NA,NaN,NA,left,2503.2999999970198,0,1,1504.300000000745
jrxNJuhD,NA,NA,jrxNJuhD,2020-0188,2021-11-11,13:16:25,23:49:51,NA,incomplete,false,NA,true,8,12,NA,right,E11_Q4_ansL.png,E11_Q7_ansR.png,within,NA,NaN,NA,left,2639.300000000745,0,1,1002
jrxNJuhD,NA,NA,jrxNJuhD,2020-0188,2021-11-11,13:16:25,23:49:51,NA,incomplete,false,NA,true,8,13,NA,left,E10_Q5_ansR.png,E10_Q3_ansL.png,within,NA,NaN,NA,right,2344.300000000745,0,1,1563
jrxNJuhD,NA,NA,jrxNJuhD,2020-0188,2021-11-11,13:16:25,23:49:51,NA,incomplete,false,NA,true,8,14,NA,left,E10_Q6_ansR.png,E10_Q5_ansR.png,within,NA,NaN,NA,left,3343.199999999255,1,1,1107.7000000029802
jrxNJuhD,NA,NA,jrxNJuhD,2020-0188,2021-11-11,13:16:25,23:49:51,NA,incomplete,false,NA,true,8,15,NA,right,E10_Q2_ansL.png,E10_Q7_ansR.png,within,NA,NaN,NA,right,1910.0999999977648,1,1,792
jrxNJuhD,NA,NA,jrxNJuhD,2020-0188,2021-11-11,13:16:25,23:49:51,NA,incomplete,false,NA,true,8,16,NA,right,E29_Q8_ansL.png,E29_Q3_ansR.png,within,NA,NaN,NA,right,2408.800000000745,1,1,1235.1000000014901
jrxNJuhD,NA,NA,jrxNJuhD,2020-0188,2021-11-11,13:16:25,23:49:51,NA,incomplete,false,NA,true,8,17,NA,left,E29_Q10_ansL.png,E29_Q4_ansR.png,within,NA,NaN,NA,left,3093.699999999255,1,1,2015.199999999255
jrxNJuhD,NA,NA,jrxNJuhD,2020-0188,2021-11-11,13:16:25,23:49:51,NA,incomplete,false,NA,true,8,18,NA,right,E29_Q6_ansR.png,E29_Q7_ansL.png,within,NA,NaN,NA,right,4833.199999999255,1,1,1002.3999999985099
jrxNJuhD,NA,NA,jrxNJuhD,2020-0188,2021-11-11,13:16:25,23:49:51,NA,incomplete,false,NA,true,8,19,NA,right,E11_Q10_ansR.png,E11_Q5_ansL.png,within,NA,NaN,NA,left,1238.800000000745,0,1,792.2000000029802
jrxNJuhD,NA,NA,jrxNJuhD,2020-0188,2021-11-11,13:16:25,23:49:51,NA,incomplete,false,NA,true,8,20,NA,right,E29_Q5_ansR.png,E29_Q8_ansL.png,within,NA,NaN,NA,right,1278.199999999255,1,1,1107.9000000022352
jrxNJuhD,NA,NA,jrxNJuhD,2020-0188,2021-11-11,13:16:25,23:49:51,NA,incomplete,false,NA,true,8,21,NA,left,E11_Q1_ansR.png,E11_Q3_ansL.png,within,NA,NaN,NA,right,3424.5,0,1,2289.89999999851
jrxNJuhD,NA,NA,jrxNJuhD,2020-0188,2021-11-11,13:16:25,23:49:51,NA,incomplete,false,NA,true,8,22,NA,left,E10_Q10_ansR.png,E10_Q9_ansL.png,within,NA,NaN,NA,right,1731.7000000029802,0,1,1051.300000000745
jrxNJuhD,NA,NA,jrxNJuhD,2020-0188,2021-11-11,13:16:25,23:49:51,NA,incomplete,false,NA,true,8,23,NA,right,E29_Q1_ansL.png,E29_Q2_ansL.png,within,NA,NaN,NA,right,1173.1000000014901,1,1,1018.8000000007451
jrxNJuhD,NA,NA,jrxNJuhD,2020-0188,2021-11-11,13:16:25,23:49:51,NA,incomplete,false,NA,true,8,24,NA,left,E11_Q6_ansL.png,E11_Q1_ansR.png,within,NA,NaN,NA,left,1570.2000000029802,1,1,1504.9000000022352
jrxNJuhD,NA,NA,jrxNJuhD,2020-0188,2021-11-11,13:16:25,23:49:51,NA,incomplete,false,NA,true,8,25,NA,right,E11_Q7_ansR.png,E11_Q8_ansR.png,within,NA,NaN,NA,right,1253.699999999255,1,1,904.8999999985099
jrxNJuhD,NA,NA,jrxNJuhD,2020-0188,2021-11-11,13:16:25,23:49:51,NA,incomplete,false,NA,true,8,26,NA,left,E29_Q4_ansR.png,E29_Q9_ansR.png,within,NA,NaN,NA,right,1391.9000000022352,0,1,1727.6000000014901
jrxNJuhD,NA,NA,jrxNJuhD,2020-0188,2021-11-11,13:16:25,23:49:51,NA,incomplete,false,true,NA,9,0,E14_Q10_ansL.png,left,NA,NA,NA,right,2318.5,false,NA,NA,NA,NA,NA
jrxNJuhD,NA,NA,jrxNJuhD,2020-0188,2021-11-11,13:16:25,23:49:51,NA,incomplete,false,true,NA,9,1,E14_Q7_ansL.png,left,NA,NA,NA,right,1305.5,false,NA,NA,NA,NA,NA
jrxNJuhD,NA,NA,jrxNJuhD,2020-0188,2021-11-11,13:16:25,23:49:51,NA,incomplete,false,true,NA,9,2,E14_Q2_ansL.png,left,NA,NA,NA,right,1024.5,false,NA,NA,NA,NA,NA
jrxNJuhD,NA,NA,jrxNJuhD,2020-0188,2021-11-11,13:16:25,23:49:51,NA,incomplete,false,true,NA,9,3,E14_Q8_ansL.png,left,NA,NA,NA,right,1413.59999999776,false,NA,NA,NA,NA,NA
jrxNJuhD,NA,NA,jrxNJuhD,2020-0188,2021-11-11,13:16:25,23:49:51,NA,incomplete,false,true,NA,9,4,E14_Q1_ansL.png,left,NA,NA,NA,left,1804.30000000075,true,NA,NA,NA,NA,NA
jrxNJuhD,NA,NA,jrxNJuhD,2020-0188,2021-11-11,13:16:25,23:49:51,NA,incomplete,false,true,NA,9,5,E14_Q5_ansR.png,right,NA,NA,NA,right,1121.80000000075,true,NA,NA,NA,NA,NA
jrxNJuhD,NA,NA,jrxNJuhD,2020-0188,2021-11-11,13:16:25,23:49:51,NA,incomplete,false,true,NA,9,6,E14_Q9_ansR.png,right,NA,NA,NA,right,2010,true,NA,NA,NA,NA,NA
jrxNJuhD,NA,NA,jrxNJuhD,2020-0188,2021-11-11,13:16:25,23:49:51,NA,incomplete,false,true,NA,9,7,E14_Q4_ansR.png,right,NA,NA,NA,right,847.199999999255,true,NA,NA,NA,NA,NA
jrxNJuhD,NA,NA,jrxNJuhD,2020-0188,2021-11-11,13:16:25,23:49:51,NA,incomplete,false,true,NA,9,8,E14_Q3_ansR.png,right,NA,NA,NA,right,822.5,true,NA,NA,NA,NA,NA
jrxNJuhD,NA,NA,jrxNJuhD,2020-0188,2021-11-11,13:16:25,23:49:51,NA,incomplete,false,true,NA,9,9,E14_Q6_ansR.png,right,NA,NA,NA,right,1439.09999999776,true,NA,NA,NA,NA,NA
jrxNJuhD,NA,NA,jrxNJuhD,2020-0188,2021-11-11,13:16:25,23:49:51,NA,incomplete,false,true,NA,9,10,E18_Q9_ansR.png,right,NA,NA,NA,right,1398.39999999851,true,NA,NA,NA,NA,NA
jrxNJuhD,NA,NA,jrxNJuhD,2020-0188,2021-11-11,13:16:25,23:49:51,NA,incomplete,false,true,NA,9,11,E18_Q2_ansL.png,left,NA,NA,NA,left,1145.90000000224,true,NA,NA,NA,NA,NA
jrxNJuhD,NA,NA,jrxNJuhD,2020-0188,2021-11-11,13:16:25,23:49:51,NA,incomplete,false,true,NA,9,12,E18_Q10_ansL.png,left,NA,NA,NA,right,1422.19999999925,false,NA,NA,NA,NA,NA
jrxNJuhD,NA,NA,jrxNJuhD,2020-0188,2021-11-11,13:16:25,23:49:51,NA,incomplete,false,true,NA,9,13,E18_Q3_ansR.png,right,NA,NA,NA,right,1372.30000000075,true,NA,NA,NA,NA,NA
jrxNJuhD,NA,NA,jrxNJuhD,2020-0188,2021-11-11,13:16:25,23:49:51,NA,incomplete,false,true,NA,9,14,E18_Q5_ansR.png,right,NA,NA,NA,right,1837.40000000224,true,NA,NA,NA,NA,NA
jrxNJuhD,NA,NA,jrxNJuhD,2020-0188,2021-11-11,13:16:25,23:49:51,NA,incomplete,false,true,NA,9,15,E18_Q7_ansL.png,left,NA,NA,NA,left,1646.19999999925,true,NA,NA,NA,NA,NA
jrxNJuhD,NA,NA,jrxNJuhD,2020-0188,2021-11-11,13:16:25,23:49:51,NA,incomplete,false,true,NA,9,16,E18_Q6_ansR.png,right,NA,NA,NA,right,1025.5,true,NA,NA,NA,NA,NA
jrxNJuhD,NA,NA,jrxNJuhD,2020-0188,2021-11-11,13:16:25,23:49:51,NA,incomplete,false,true,NA,9,17,E18_Q8_ansL.png,left,NA,NA,NA,left,1254,true,NA,NA,NA,NA,NA
jrxNJuhD,NA,NA,jrxNJuhD,2020-0188,2021-11-11,13:16:25,23:49:51,NA,incomplete,false,true,NA,9,18,E18_Q4_ansR.png,right,NA,NA,NA,right,905.300000000745,true,NA,NA,NA,NA,NA
jrxNJuhD,NA,NA,jrxNJuhD,2020-0188,2021-11-11,13:16:25,23:49:51,NA,incomplete,false,true,NA,9,19,E18_Q1_ansL.png,left,NA,NA,NA,left,973.10000000149,true,NA,NA,NA,NA,NA
jrxNJuhD,NA,NA,jrxNJuhD,2020-0188,2021-11-11,13:16:25,23:49:51,NA,incomplete,false,true,NA,9,20,E7_Q6_ansR.png,right,NA,NA,NA,right,1142.19999999925,true,NA,NA,NA,NA,NA
jrxNJuhD,NA,NA,jrxNJuhD,2020-0188,2021-11-11,13:16:25,23:49:51,NA,incomplete,false,true,NA,9,21,E7_Q9_ansR.png,right,NA,NA,NA,right,897.5,true,NA,NA,NA,NA,NA
jrxNJuhD,NA,NA,jrxNJuhD,2020-0188,2021-11-11,13:16:25,23:49:51,NA,incomplete,false,true,NA,9,22,E7_Q10_ansR.png,right,NA,NA,NA,right,2178.90000000224,true,NA,NA,NA,NA,NA
jrxNJuhD,NA,NA,jrxNJuhD,2020-0188,2021-11-11,13:16:25,23:49:51,NA,incomplete,false,true,NA,9,23,E7_Q4_ansR.png,right,NA,NA,NA,right,1088.80000000075,true,NA,NA,NA,NA,NA
jrxNJuhD,NA,NA,jrxNJuhD,2020-0188,2021-11-11,13:16:25,23:49:51,NA,incomplete,false,true,NA,9,24,E7_Q5_ansR.png,right,NA,NA,NA,right,922.39999999851,true,NA,NA,NA,NA,NA
jrxNJuhD,NA,NA,jrxNJuhD,2020-0188,2021-11-11,13:16:25,23:49:51,NA,incomplete,false,true,NA,9,25,E7_Q7_ansL.png,left,NA,NA,NA,left,991.300000000745,true,NA,NA,NA,NA,NA
jrxNJuhD,NA,NA,jrxNJuhD,2020-0188,2021-11-11,13:16:25,23:49:51,NA,incomplete,false,true,NA,9,26,E7_Q3_ansR.png,right,NA,NA,NA,right,1030.80000000075,true,NA,NA,NA,NA,NA
jrxNJuhD,NA,NA,jrxNJuhD,2020-0188,2021-11-11,13:16:25,23:49:51,NA,incomplete,false,true,NA,9,27,E7_Q2_ansL.png,left,NA,NA,NA,left,1446.5,true,NA,NA,NA,NA,NA
jrxNJuhD,NA,NA,jrxNJuhD,2020-0188,2021-11-11,13:16:25,23:49:51,NA,incomplete,false,true,NA,9,28,E7_Q8_ansL.png,left,NA,NA,NA,left,1156.60000000149,true,NA,NA,NA,NA,NA
jrxNJuhD,NA,NA,jrxNJuhD,2020-0188,2021-11-11,13:16:25,23:49:51,NA,incomplete,false,true,NA,9,29,E7_Q1_ansL.png,left,NA,NA,NA,left,1128.5,true,NA,NA,NA,NA,NA
jrxNJuhD,NA,NA,jrxNJuhD,2020-0188,2021-11-11,13:16:25,23:49:51,NA,incomplete,false,NA,true,9,0,NA,left,E18_Q3_ansR.png,E18_Q6_ansR.png,within,NA,NaN,NA,left,3353.300000000745,1,1,1285.9000000022352
jrxNJuhD,NA,NA,jrxNJuhD,2020-0188,2021-11-11,13:16:25,23:49:51,NA,incomplete,false,NA,true,9,1,NA,right,E14_Q4_ansR.png,E14_Q1_ansL.png,within,NA,NaN,NA,right,2460.199999999255,1,1,1683.699999999255
jrxNJuhD,NA,NA,jrxNJuhD,2020-0188,2021-11-11,13:16:25,23:49:51,NA,incomplete,false,NA,true,9,2,NA,right,E18_Q2_ansL.png,E14_Q3_ansR.png,between,NA,NaN,NA,right,1262.8999999985099,1,2,994.6999999992549
jrxNJuhD,NA,NA,jrxNJuhD,2020-0188,2021-11-11,13:16:25,23:49:51,NA,incomplete,false,NA,true,9,3,NA,right,E7_Q6_ansR.png,E18_Q8_ansL.png,between,NA,NaN,NA,right,3010.5,1,1,962
jrxNJuhD,NA,NA,jrxNJuhD,2020-0188,2021-11-11,13:16:25,23:49:51,NA,incomplete,false,NA,true,9,4,NA,left,E7_Q7_ansL.png,E7_Q8_ansL.png,within,NA,NaN,NA,right,1723.699999999255,0,1,1018.5
jrxNJuhD,NA,NA,jrxNJuhD,2020-0188,2021-11-11,13:16:25,23:49:51,NA,incomplete,false,NA,true,9,5,NA,left,E7_Q3_ansR.png,E7_Q1_ansL.png,within,NA,NaN,NA,left,1568.2000000029802,1,1,849.3999999985099
jrxNJuhD,NA,NA,jrxNJuhD,2020-0188,2021-11-11,13:16:25,23:49:51,NA,incomplete,false,NA,true,9,6,NA,left,E18_Q10_ansL.png,E18_Q7_ansL.png,within,NA,NaN,NA,right,2233.10000000149,0,1,2768.199999999255
jrxNJuhD,NA,NA,jrxNJuhD,2020-0188,2021-11-11,13:16:25,23:49:51,NA,incomplete,false,NA,true,9,7,NA,left,E14_Q2_ansL.png,E14_Q5_ansR.png,within,NA,NaN,NA,right,4453.10000000149,0,1,1747.199999999255
jrxNJuhD,NA,NA,jrxNJuhD,2020-0188,2021-11-11,13:16:25,23:49:51,NA,incomplete,false,NA,true,9,8,NA,right,E14_Q1_ansL.png,E14_Q7_ansL.png,within,NA,NaN,NA,right,1367.3999999985099,1,1,1318.2000000029802
jrxNJuhD,NA,NA,jrxNJuhD,2020-0188,2021-11-11,13:16:25,23:49:51,NA,incomplete,false,NA,true,9,9,NA,left,E18_Q1_ansL.png,E7_Q10_ansR.png,between,NA,NaN,NA,left,3295.699999999255,1,2,4469.199999999255
jrxNJuhD,NA,NA,jrxNJuhD,2020-0188,2021-11-11,13:16:25,23:49:51,NA,incomplete,false,NA,true,9,10,NA,right,E18_Q8_ansL.png,E18_Q5_ansR.png,within,NA,NaN,NA,left,3868.39999999851,0,1,1756.1000000014901
jrxNJuhD,NA,NA,jrxNJuhD,2020-0188,2021-11-11,13:16:25,23:49:51,NA,incomplete,false,NA,true,9,11,NA,right,E14_Q6_ansR.png,E14_Q9_ansR.png,within,NA,NaN,NA,left,3647.10000000149,0,1,873.1999999992549
jrxNJuhD,NA,NA,jrxNJuhD,2020-0188,2021-11-11,13:16:25,23:49:51,NA,incomplete,false,NA,true,9,12,NA,left,E7_Q4_ansR.png,E7_Q3_ansR.png,within,NA,NaN,NA,left,1593.5999999977648,1,1,1188.5999999977648
