workerId,hitId,assignmentId,subject,studyid,exp_date,exp_start,exp_end,time_start,time_end,practice,encoding,memory,block,trial,stim,answer,left_image,right_image,condition,response,response_time,response_acc,order_response,order_response_time,order_acc,distance_response,distance_response_time
kBouTCj9,NA,NA,kBouTCj9,2020-0188,2021-11-13,17:14:14,19:17:19,NA,incomplete,true,true,NA,0,0,E24_Q4_ansL.png,left,NA,NA,NA,none,0,false,NA,NA,NA,NA,NA
kBouTCj9,NA,NA,kBouTCj9,2020-0188,2021-11-13,17:14:14,19:17:19,NA,incomplete,true,true,NA,0,1,E24_Q1_ansR.png,right,NA,NA,NA,right,2427.19999998808,true,NA,NA,NA,NA,NA
kBouTCj9,NA,NA,kBouTCj9,2020-0188,2021-11-13,17:14:14,19:17:19,NA,incomplete,true,true,NA,0,2,E24_Q5_ansL.png,left,NA,NA,NA,left,2227.40000003576,true,NA,NA,NA,NA,NA
kBouTCj9,NA,NA,kBouTCj9,2020-0188,2021-11-13,17:14:14,19:17:19,NA,incomplete,true,true,NA,0,3,E24_Q10_ansR.png,right,NA,NA,NA,right,1707.60000002384,true,NA,NA,NA,NA,NA
kBouTCj9,NA,NA,kBouTCj9,2020-0188,2021-11-13,17:14:14,19:17:19,NA,incomplete,true,true,NA,0,4,E24_Q7_ansR.png,right,NA,NA,NA,right,1009.70000004768,true,NA,NA,NA,NA,NA
kBouTCj9,NA,NA,kBouTCj9,2020-0188,2021-11-13,17:14:14,19:17:19,NA,incomplete,true,true,NA,0,5,E24_Q2_ansR.png,right,NA,NA,NA,right,2052.79999995232,true,NA,NA,NA,NA,NA
kBouTCj9,NA,NA,kBouTCj9,2020-0188,2021-11-13,17:14:14,19:17:19,NA,incomplete,true,true,NA,0,6,E24_Q6_ansL.png,left,NA,NA,NA,left,1570.69999998808,true,NA,NA,NA,NA,NA
kBouTCj9,NA,NA,kBouTCj9,2020-0188,2021-11-13,17:14:14,19:17:19,NA,incomplete,true,true,NA,0,7,E24_Q3_ansL.png,left,NA,NA,NA,left,1540.59999996424,true,NA,NA,NA,NA,NA
kBouTCj9,NA,NA,kBouTCj9,2020-0188,2021-11-13,17:14:14,19:17:19,NA,incomplete,true,true,NA,0,8,E24_Q8_ansR.png,right,NA,NA,NA,right,1158.10000002384,true,NA,NA,NA,NA,NA
kBouTCj9,NA,NA,kBouTCj9,2020-0188,2021-11-13,17:14:14,19:17:19,NA,incomplete,true,true,NA,0,9,E24_Q9_ansL.png,left,NA,NA,NA,left,2847.60000002384,true,NA,NA,NA,NA,NA
kBouTCj9,NA,NA,kBouTCj9,2020-0188,2021-11-13,17:14:14,19:17:19,NA,incomplete,true,true,NA,0,10,E28_Q9_ansL.png,left,NA,NA,NA,left,1790.10000002384,true,NA,NA,NA,NA,NA
kBouTCj9,NA,NA,kBouTCj9,2020-0188,2021-11-13,17:14:14,19:17:19,NA,incomplete,true,true,NA,0,11,E28_Q4_ansL.png,left,NA,NA,NA,left,1404.20000004768,true,NA,NA,NA,NA,NA
kBouTCj9,NA,NA,kBouTCj9,2020-0188,2021-11-13,17:14:14,19:17:19,NA,incomplete,true,true,NA,0,12,E28_Q1_ansR.png,right,NA,NA,NA,right,1513.19999998808,true,NA,NA,NA,NA,NA
kBouTCj9,NA,NA,kBouTCj9,2020-0188,2021-11-13,17:14:14,19:17:19,NA,incomplete,true,true,NA,0,13,E28_Q2_ansR.png,right,NA,NA,NA,right,1776.5,true,NA,NA,NA,NA,NA
kBouTCj9,NA,NA,kBouTCj9,2020-0188,2021-11-13,17:14:14,19:17:19,NA,incomplete,true,true,NA,0,14,E28_Q7_ansR.png,right,NA,NA,NA,right,3333.19999998808,true,NA,NA,NA,NA,NA
kBouTCj9,NA,NA,kBouTCj9,2020-0188,2021-11-13,17:14:14,19:17:19,NA,incomplete,true,true,NA,0,15,E28_Q5_ansL.png,left,NA,NA,NA,left,1972.40000003576,true,NA,NA,NA,NA,NA
kBouTCj9,NA,NA,kBouTCj9,2020-0188,2021-11-13,17:14:14,19:17:19,NA,incomplete,true,true,NA,0,16,E28_Q6_ansL.png,left,NA,NA,NA,left,1726.40000003576,true,NA,NA,NA,NA,NA
kBouTCj9,NA,NA,kBouTCj9,2020-0188,2021-11-13,17:14:14,19:17:19,NA,incomplete,true,true,NA,0,17,E28_Q3_ansL.png,left,NA,NA,NA,left,1787.39999997616,true,NA,NA,NA,NA,NA
kBouTCj9,NA,NA,kBouTCj9,2020-0188,2021-11-13,17:14:14,19:17:19,NA,incomplete,true,true,NA,0,18,E28_Q10_ansR.png,right,NA,NA,NA,right,2233.89999997616,true,NA,NA,NA,NA,NA
kBouTCj9,NA,NA,kBouTCj9,2020-0188,2021-11-13,17:14:14,19:17:19,NA,incomplete,true,true,NA,0,19,E28_Q8_ansR.png,right,NA,NA,NA,right,1810.69999998808,true,NA,NA,NA,NA,NA
kBouTCj9,NA,NA,kBouTCj9,2020-0188,2021-11-13,17:14:14,19:17:19,NA,incomplete,true,true,NA,0,20,E26_Q5_ansR.png,right,NA,NA,NA,right,2256,true,NA,NA,NA,NA,NA
kBouTCj9,NA,NA,kBouTCj9,2020-0188,2021-11-13,17:14:14,19:17:19,NA,incomplete,true,true,NA,0,21,E26_Q2_ansL.png,left,NA,NA,NA,left,1817,true,NA,NA,NA,NA,NA
kBouTCj9,NA,NA,kBouTCj9,2020-0188,2021-11-13,17:14:14,19:17:19,NA,incomplete,true,true,NA,0,22,E26_Q8_ansL.png,left,NA,NA,NA,left,1926.89999997616,true,NA,NA,NA,NA,NA
kBouTCj9,NA,NA,kBouTCj9,2020-0188,2021-11-13,17:14:14,19:17:19,NA,incomplete,true,true,NA,0,23,E26_Q10_ansL.png,left,NA,NA,NA,left,1365.59999996424,true,NA,NA,NA,NA,NA
kBouTCj9,NA,NA,kBouTCj9,2020-0188,2021-11-13,17:14:14,19:17:19,NA,incomplete,true,true,NA,0,24,E26_Q7_ansL.png,left,NA,NA,NA,left,1347.29999995232,true,NA,NA,NA,NA,NA
kBouTCj9,NA,NA,kBouTCj9,2020-0188,2021-11-13,17:14:14,19:17:19,NA,incomplete,true,true,NA,0,25,E26_Q9_ansR.png,right,NA,NA,NA,right,1952.69999998808,true,NA,NA,NA,NA,NA
kBouTCj9,NA,NA,kBouTCj9,2020-0188,2021-11-13,17:14:14,19:17:19,NA,incomplete,true,true,NA,0,26,E26_Q1_ansL.png,left,NA,NA,NA,left,1433.20000004768,true,NA,NA,NA,NA,NA
kBouTCj9,NA,NA,kBouTCj9,2020-0188,2021-11-13,17:14:14,19:17:19,NA,incomplete,true,true,NA,0,27,E26_Q3_ansR.png,right,NA,NA,NA,right,960.399999976158,true,NA,NA,NA,NA,NA
kBouTCj9,NA,NA,kBouTCj9,2020-0188,2021-11-13,17:14:14,19:17:19,NA,incomplete,true,true,NA,0,28,E26_Q6_ansR.png,right,NA,NA,NA,right,1259.40000003576,true,NA,NA,NA,NA,NA
kBouTCj9,NA,NA,kBouTCj9,2020-0188,2021-11-13,17:14:14,19:17:19,NA,incomplete,true,true,NA,0,29,E26_Q4_ansR.png,right,NA,NA,NA,right,1497.19999998808,true,NA,NA,NA,NA,NA
kBouTCj9,NA,NA,kBouTCj9,2020-0188,2021-11-13,17:14:14,19:17:19,NA,incomplete,true,NA,true,0,0,NA,left,E24_Q7_ansR.png,E24_Q3_ansL.png,within,NA,NaN,NA,left,4991.900000035763,1,1,2753.399999976158
kBouTCj9,NA,NA,kBouTCj9,2020-0188,2021-11-13,17:14:14,19:17:19,NA,incomplete,true,NA,true,0,1,NA,left,E26_Q2_ansL.png,E26_Q7_ansL.png,within,NA,NaN,NA,left,2739.2999999523163,1,0,6451.200000047684
kBouTCj9,NA,NA,kBouTCj9,2020-0188,2021-11-13,17:14:14,19:17:19,NA,incomplete,true,NA,true,0,2,NA,right,E28_Q8_ansR.png,E28_Q6_ansL.png,within,NA,NaN,NA,left,2444.600000023842,0,1,1989.7999999523163
kBouTCj9,NA,NA,kBouTCj9,2020-0188,2021-11-13,17:14:14,19:17:19,NA,incomplete,true,NA,true,0,3,NA,right,E28_Q2_ansR.png,E28_Q9_ansL.png,within,NA,NaN,NA,right,2245.199999988079,1,1,1312.699999988079
kBouTCj9,NA,NA,kBouTCj9,2020-0188,2021-11-13,17:14:14,19:17:19,NA,incomplete,true,NA,true,0,4,NA,right,E28_Q4_ansL.png,E24_Q8_ansR.png,between,NA,NaN,NA,right,2500.5,1,2,7623.5
kBouTCj9,NA,NA,kBouTCj9,2020-0188,2021-11-13,17:14:14,19:17:19,NA,incomplete,true,NA,true,0,5,NA,right,E28_Q1_ansR.png,E24_Q9_ansL.png,between,NA,NaN,NA,right,1663.5,1,2,2062.899999976158
kBouTCj9,NA,NA,kBouTCj9,2020-0188,2021-11-13,17:14:14,19:17:19,NA,incomplete,true,NA,true,0,6,NA,right,E28_Q7_ansR.png,E28_Q4_ansL.png,within,NA,NaN,NA,right,1265.5,1,1,1297.4000000357628
kBouTCj9,NA,NA,kBouTCj9,2020-0188,2021-11-13,17:14:14,19:17:19,NA,incomplete,true,NA,true,0,7,NA,left,E24_Q6_ansL.png,E24_Q9_ansL.png,within,NA,NaN,NA,left,2927.699999988079,1,1,1539
kBouTCj9,NA,NA,kBouTCj9,2020-0188,2021-11-13,17:14:14,19:17:19,NA,incomplete,true,NA,true,0,8,NA,right,E26_Q2_ansL.png,E28_Q10_ansR.png,between,NA,NaN,NA,right,2070.2000000476837,1,2,1910.0999999642372
kBouTCj9,NA,NA,kBouTCj9,2020-0188,2021-11-13,17:14:14,19:17:19,NA,incomplete,true,NA,true,0,9,NA,right,E24_Q6_ansL.png,E24_Q10_ansR.png,within,NA,NaN,NA,left,2666.7000000476837,0,1,1002
kBouTCj9,NA,NA,kBouTCj9,2020-0188,2021-11-13,17:14:14,19:17:19,NA,incomplete,true,NA,true,0,10,NA,right,E28_Q10_ansR.png,E28_Q5_ansL.png,within,NA,NaN,NA,right,9059.100000023842,1,1,3217.2999999523163
kBouTCj9,NA,NA,kBouTCj9,2020-0188,2021-11-13,17:14:14,19:17:19,NA,incomplete,true,NA,true,0,11,NA,left,E28_Q7_ansR.png,E28_Q3_ansL.png,within,NA,NaN,NA,right,1417,0,1,1129.8999999761581
kBouTCj9,NA,NA,kBouTCj9,2020-0188,2021-11-13,17:14:14,19:17:19,NA,incomplete,true,NA,true,0,12,NA,left,E28_Q3_ansL.png,E26_Q5_ansR.png,between,NA,NaN,NA,left,3830.800000011921,1,2,1846.300000011921
kBouTCj9,NA,NA,kBouTCj9,2020-0188,2021-11-13,17:14:14,19:17:19,NA,incomplete,true,NA,true,0,13,NA,right,E26_Q4_ansR.png,E26_Q1_ansL.png,within,NA,NaN,NA,right,1376.4000000357628,1,1,2157.600000023842
kBouTCj9,NA,NA,kBouTCj9,2020-0188,2021-11-13,17:14:14,19:17:19,NA,incomplete,true,NA,true,0,14,NA,left,E24_Q4_ansL.png,E24_Q10_ansR.png,within,NA,NaN,NA,left,2300.899999976158,1,1,1233.300000011921
kBouTCj9,NA,NA,kBouTCj9,2020-0188,2021-11-13,17:14:14,19:17:19,NA,incomplete,true,NA,true,0,15,NA,right,E26_Q1_ansL.png,E26_Q10_ansL.png,within,NA,NaN,NA,right,1384.8999999761581,1,1,1241.199999988079
kBouTCj9,NA,NA,kBouTCj9,2020-0188,2021-11-13,17:14:14,19:17:19,NA,incomplete,true,NA,true,0,16,NA,right,E28_Q6_ansL.png,E28_Q2_ansR.png,within,NA,NaN,NA,left,2747,0,2,1766.699999988079
kBouTCj9,NA,NA,kBouTCj9,2020-0188,2021-11-13,17:14:14,19:17:19,NA,incomplete,true,NA,true,0,17,NA,right,E24_Q8_ansR.png,E24_Q2_ansR.png,within,NA,NaN,NA,left,1783.3999999761581,0,1,18863.5
kBouTCj9,NA,NA,kBouTCj9,2020-0188,2021-11-13,17:14:14,19:17:19,NA,incomplete,true,NA,true,0,18,NA,left,E24_Q1_ansR.png,E24_Q7_ansR.png,within,NA,NaN,NA,right,1735.5999999642372,0,1,2245.5
kBouTCj9,NA,NA,kBouTCj9,2020-0188,2021-11-13,17:14:14,19:17:19,NA,incomplete,true,NA,true,0,19,NA,right,E28_Q5_ansL.png,E28_Q1_ansR.png,within,NA,NaN,NA,right,1289.199999988079,1,1,1264.8999999761581
kBouTCj9,NA,NA,kBouTCj9,2020-0188,2021-11-13,17:14:14,19:17:19,NA,incomplete,true,NA,true,0,20,NA,right,E26_Q10_ansL.png,E26_Q5_ansR.png,within,NA,NaN,NA,right,1113.800000011921,1,1,2237.5
kBouTCj9,NA,NA,kBouTCj9,2020-0188,2021-11-13,17:14:14,19:17:19,NA,incomplete,true,NA,true,0,21,NA,right,E26_Q3_ansR.png,E26_Q7_ansL.png,within,NA,NaN,NA,right,1384.800000011921,1,2,1384.7999999523163
kBouTCj9,NA,NA,kBouTCj9,2020-0188,2021-11-13,17:14:14,19:17:19,NA,incomplete,true,NA,true,0,22,NA,left,E24_Q5_ansL.png,E24_Q2_ansR.png,within,NA,NaN,NA,left,3256.399999976158,1,1,3535.199999988079
kBouTCj9,NA,NA,kBouTCj9,2020-0188,2021-11-13,17:14:14,19:17:19,NA,incomplete,true,NA,true,0,23,NA,left,E24_Q3_ansL.png,E28_Q9_ansL.png,between,NA,NaN,NA,right,2357.399999976158,0,2,3862.199999988079
kBouTCj9,NA,NA,kBouTCj9,2020-0188,2021-11-13,17:14:14,19:17:19,NA,incomplete,true,NA,true,0,24,NA,right,E26_Q9_ansR.png,E26_Q8_ansL.png,within,NA,NaN,NA,left,2142.100000023842,0,1,1821.5
kBouTCj9,NA,NA,kBouTCj9,2020-0188,2021-11-13,17:14:14,19:17:19,NA,incomplete,true,NA,true,0,25,NA,left,E28_Q8_ansR.png,E26_Q8_ansL.png,between,NA,NaN,NA,left,3393,1,1,1297.4000000357628
kBouTCj9,NA,NA,kBouTCj9,2020-0188,2021-11-13,17:14:14,19:17:19,NA,incomplete,true,NA,true,0,26,NA,left,E26_Q9_ansR.png,E26_Q6_ansR.png,within,NA,NaN,NA,left,1990.199999988079,1,1,1273.5
kBouTCj9,NA,NA,kBouTCj9,2020-0188,2021-11-13,17:14:14,19:17:19,NA,incomplete,false,true,NA,1,0,E16_Q6_ansL.png,left,NA,NA,NA,left,1639.80000001192,true,NA,NA,NA,NA,NA
kBouTCj9,NA,NA,kBouTCj9,2020-0188,2021-11-13,17:14:14,19:17:19,NA,incomplete,false,true,NA,1,1,E16_Q9_ansL.png,left,NA,NA,NA,left,1404.19999998808,true,NA,NA,NA,NA,NA
kBouTCj9,NA,NA,kBouTCj9,2020-0188,2021-11-13,17:14:14,19:17:19,NA,incomplete,false,true,NA,1,2,E16_Q10_ansR.png,right,NA,NA,NA,right,1874.30000001192,true,NA,NA,NA,NA,NA
kBouTCj9,NA,NA,kBouTCj9,2020-0188,2021-11-13,17:14:14,19:17:19,NA,incomplete,false,true,NA,1,3,E16_Q3_ansL.png,left,NA,NA,NA,left,1153.39999997616,true,NA,NA,NA,NA,NA
kBouTCj9,NA,NA,kBouTCj9,2020-0188,2021-11-13,17:14:14,19:17:19,NA,incomplete,false,true,NA,1,4,E16_Q5_ansL.png,left,NA,NA,NA,left,1287,true,NA,NA,NA,NA,NA
kBouTCj9,NA,NA,kBouTCj9,2020-0188,2021-11-13,17:14:14,19:17:19,NA,incomplete,false,true,NA,1,5,E16_Q8_ansR.png,right,NA,NA,NA,right,1560.5,true,NA,NA,NA,NA,NA
kBouTCj9,NA,NA,kBouTCj9,2020-0188,2021-11-13,17:14:14,19:17:19,NA,incomplete,false,true,NA,1,6,E16_Q4_ansL.png,left,NA,NA,NA,left,1100.10000002384,true,NA,NA,NA,NA,NA
kBouTCj9,NA,NA,kBouTCj9,2020-0188,2021-11-13,17:14:14,19:17:19,NA,incomplete,false,true,NA,1,7,E16_Q1_ansR.png,right,NA,NA,NA,right,1393.89999997616,true,NA,NA,NA,NA,NA
kBouTCj9,NA,NA,kBouTCj9,2020-0188,2021-11-13,17:14:14,19:17:19,NA,incomplete,false,true,NA,1,8,E16_Q7_ansR.png,right,NA,NA,NA,right,1505.79999995232,true,NA,NA,NA,NA,NA
kBouTCj9,NA,NA,kBouTCj9,2020-0188,2021-11-13,17:14:14,19:17:19,NA,incomplete,false,true,NA,1,9,E16_Q2_ansR.png,right,NA,NA,NA,right,2131,true,NA,NA,NA,NA,NA
kBouTCj9,NA,NA,kBouTCj9,2020-0188,2021-11-13,17:14:14,19:17:19,NA,incomplete,false,true,NA,1,10,E29_Q8_ansL.png,left,NA,NA,NA,none,0,false,NA,NA,NA,NA,NA
kBouTCj9,NA,NA,kBouTCj9,2020-0188,2021-11-13,17:14:14,19:17:19,NA,incomplete,false,true,NA,1,11,E29_Q2_ansL.png,left,NA,NA,NA,left,1798.10000002384,true,NA,NA,NA,NA,NA
kBouTCj9,NA,NA,kBouTCj9,2020-0188,2021-11-13,17:14:14,19:17:19,NA,incomplete,false,true,NA,1,12,E29_Q6_ansR.png,right,NA,NA,NA,right,1887.40000003576,true,NA,NA,NA,NA,NA
kBouTCj9,NA,NA,kBouTCj9,2020-0188,2021-11-13,17:14:14,19:17:19,NA,incomplete,false,true,NA,1,13,E29_Q3_ansR.png,right,NA,NA,NA,right,1135.09999996424,true,NA,NA,NA,NA,NA
kBouTCj9,NA,NA,kBouTCj9,2020-0188,2021-11-13,17:14:14,19:17:19,NA,incomplete,false,true,NA,1,14,E29_Q5_ansR.png,right,NA,NA,NA,right,1304.59999996424,true,NA,NA,NA,NA,NA
kBouTCj9,NA,NA,kBouTCj9,2020-0188,2021-11-13,17:14:14,19:17:19,NA,incomplete,false,true,NA,1,15,E29_Q10_ansL.png,left,NA,NA,NA,left,1782,true,NA,NA,NA,NA,NA
kBouTCj9,NA,NA,kBouTCj9,2020-0188,2021-11-13,17:14:14,19:17:19,NA,incomplete,false,true,NA,1,16,E29_Q7_ansL.png,left,NA,NA,NA,left,1301.09999996424,true,NA,NA,NA,NA,NA
kBouTCj9,NA,NA,kBouTCj9,2020-0188,2021-11-13,17:14:14,19:17:19,NA,incomplete,false,true,NA,1,17,E29_Q4_ansR.png,right,NA,NA,NA,right,1549,true,NA,NA,NA,NA,NA
kBouTCj9,NA,NA,kBouTCj9,2020-0188,2021-11-13,17:14:14,19:17:19,NA,incomplete,false,true,NA,1,18,E29_Q9_ansR.png,right,NA,NA,NA,right,1136.60000002384,true,NA,NA,NA,NA,NA
kBouTCj9,NA,NA,kBouTCj9,2020-0188,2021-11-13,17:14:14,19:17:19,NA,incomplete,false,true,NA,1,19,E29_Q1_ansL.png,left,NA,NA,NA,left,1350.80000001192,true,NA,NA,NA,NA,NA
kBouTCj9,NA,NA,kBouTCj9,2020-0188,2021-11-13,17:14:14,19:17:19,NA,incomplete,false,true,NA,1,20,E10_Q8_ansR.png,right,NA,NA,NA,none,0,false,NA,NA,NA,NA,NA
kBouTCj9,NA,NA,kBouTCj9,2020-0188,2021-11-13,17:14:14,19:17:19,NA,incomplete,false,true,NA,1,21,E10_Q10_ansR.png,right,NA,NA,NA,none,0,false,NA,NA,NA,NA,NA
kBouTCj9,NA,NA,kBouTCj9,2020-0188,2021-11-13,17:14:14,19:17:19,NA,incomplete,false,true,NA,1,22,E10_Q9_ansL.png,left,NA,NA,NA,none,0,false,NA,NA,NA,NA,NA
kBouTCj9,NA,NA,kBouTCj9,2020-0188,2021-11-13,17:14:14,19:17:19,NA,incomplete,false,true,NA,1,23,E10_Q3_ansL.png,left,NA,NA,NA,right,2714.39999997616,false,NA,NA,NA,NA,NA
kBouTCj9,NA,NA,kBouTCj9,2020-0188,2021-11-13,17:14:14,19:17:19,NA,incomplete,false,true,NA,1,24,E10_Q4_ansL.png,left,NA,NA,NA,left,2889.80000001192,true,NA,NA,NA,NA,NA
kBouTCj9,NA,NA,kBouTCj9,2020-0188,2021-11-13,17:14:14,19:17:19,NA,incomplete,false,true,NA,1,25,E10_Q1_ansL.png,left,NA,NA,NA,left,2736.59999996424,true,NA,NA,NA,NA,NA
kBouTCj9,NA,NA,kBouTCj9,2020-0188,2021-11-13,17:14:14,19:17:19,NA,incomplete,false,true,NA,1,26,E10_Q7_ansR.png,right,NA,NA,NA,left,3280.5,false,NA,NA,NA,NA,NA
kBouTCj9,NA,NA,kBouTCj9,2020-0188,2021-11-13,17:14:14,19:17:19,NA,incomplete,false,true,NA,1,27,E10_Q6_ansR.png,right,NA,NA,NA,right,1898.19999998808,true,NA,NA,NA,NA,NA
kBouTCj9,NA,NA,kBouTCj9,2020-0188,2021-11-13,17:14:14,19:17:19,NA,incomplete,false,true,NA,1,28,E10_Q2_ansL.png,left,NA,NA,NA,left,2144.60000002384,true,NA,NA,NA,NA,NA
kBouTCj9,NA,NA,kBouTCj9,2020-0188,2021-11-13,17:14:14,19:17:19,NA,incomplete,false,true,NA,1,29,E10_Q5_ansR.png,right,NA,NA,NA,right,3344.30000001192,true,NA,NA,NA,NA,NA
kBouTCj9,NA,NA,kBouTCj9,2020-0188,2021-11-13,17:14:14,19:17:19,NA,incomplete,false,NA,true,1,0,NA,left,E16_Q2_ansR.png,E29_Q6_ansR.png,between,NA,NaN,NA,left,6963.399999976158,1,2,43191.40000003576
kBouTCj9,NA,NA,kBouTCj9,2020-0188,2021-11-13,17:14:14,19:17:19,NA,incomplete,false,NA,true,1,1,NA,right,E10_Q8_ansR.png,E29_Q4_ansR.png,between,NA,NaN,NA,right,3043,1,2,2812.5
kBouTCj9,NA,NA,kBouTCj9,2020-0188,2021-11-13,17:14:14,19:17:19,NA,incomplete,false,NA,true,1,2,NA,right,E29_Q9_ansR.png,E29_Q10_ansL.png,within,NA,NaN,NA,right,3170,1,1,2797.100000023842
kBouTCj9,NA,NA,kBouTCj9,2020-0188,2021-11-13,17:14:14,19:17:19,NA,incomplete,false,NA,true,1,3,NA,right,E29_Q4_ansR.png,E29_Q5_ansR.png,within,NA,NaN,NA,right,1211.6000000238419,1,1,1833.300000011921
kBouTCj9,NA,NA,kBouTCj9,2020-0188,2021-11-13,17:14:14,19:17:19,NA,incomplete,false,NA,true,1,4,NA,right,E29_Q1_ansL.png,E29_Q7_ansL.png,within,NA,NaN,NA,left,3346.900000035763,0,2,2851
kBouTCj9,NA,NA,kBouTCj9,2020-0188,2021-11-13,17:14:14,19:17:19,NA,incomplete,false,NA,true,1,5,NA,left,E10_Q3_ansL.png,E10_Q7_ansR.png,within,NA,NaN,NA,right,1456.800000011921,0,2,1265.800000011921
kBouTCj9,NA,NA,kBouTCj9,2020-0188,2021-11-13,17:14:14,19:17:19,NA,incomplete,false,NA,true,1,6,NA,left,E10_Q1_ansL.png,E10_Q2_ansL.png,within,NA,NaN,NA,right,1226.699999988079,0,1,2501
kBouTCj9,NA,NA,kBouTCj9,2020-0188,2021-11-13,17:14:14,19:17:19,NA,incomplete,false,NA,true,1,7,NA,right,E29_Q7_ansL.png,E29_Q3_ansR.png,within,NA,NaN,NA,right,1162.9000000357628,1,1,1034.1000000238419
kBouTCj9,NA,NA,kBouTCj9,2020-0188,2021-11-13,17:14:14,19:17:19,NA,incomplete,false,NA,true,1,8,NA,left,E29_Q8_ansL.png,E29_Q3_ansR.png,within,NA,NaN,NA,right,1209,0,1,1275.699999988079
kBouTCj9,NA,NA,kBouTCj9,2020-0188,2021-11-13,17:14:14,19:17:19,NA,incomplete,false,NA,true,1,9,NA,right,E10_Q4_ansL.png,E10_Q10_ansR.png,within,NA,NaN,NA,right,874.1000000238419,1,1,1360.3999999761581
kBouTCj9,NA,NA,kBouTCj9,2020-0188,2021-11-13,17:14:14,19:17:19,NA,incomplete,false,NA,true,1,10,NA,right,E29_Q2_ansL.png,E16_Q7_ansR.png,between,NA,NaN,NA,right,1935.3999999761581,1,1,1051.3999999761581
kBouTCj9,NA,NA,kBouTCj9,2020-0188,2021-11-13,17:14:14,19:17:19,NA,incomplete,false,NA,true,1,11,NA,left,E10_Q9_ansL.png,E10_Q1_ansL.png,within,NA,NaN,NA,right,1042.800000011921,0,1,1155.199999988079
kBouTCj9,NA,NA,kBouTCj9,2020-0188,2021-11-13,17:14:14,19:17:19,NA,incomplete,false,NA,true,1,12,NA,left,E16_Q3_ansL.png,E16_Q4_ansL.png,within,NA,NaN,NA,right,1139.8999999761581,0,1,1125
kBouTCj9,NA,NA,kBouTCj9,2020-0188,2021-11-13,17:14:14,19:17:19,NA,incomplete,false,NA,true,1,13,NA,left,E16_Q10_ansR.png,E16_Q8_ansR.png,within,NA,NaN,NA,right,1152.6000000238419,0,1,1256.9000000357628
kBouTCj9,NA,NA,kBouTCj9,2020-0188,2021-11-13,17:14:14,19:17:19,NA,incomplete,false,NA,true,1,14,NA,left,E16_Q1_ansR.png,E29_Q8_ansL.png,between,NA,NaN,NA,right,1129,0,1,1895.3999999761581
kBouTCj9,NA,NA,kBouTCj9,2020-0188,2021-11-13,17:14:14,19:17:19,NA,incomplete,false,NA,true,1,15,NA,right,E16_Q7_ansR.png,E16_Q8_ansR.png,within,NA,NaN,NA,right,1004,1,1,1260.1000000238419
kBouTCj9,NA,NA,kBouTCj9,2020-0188,2021-11-13,17:14:14,19:17:19,NA,incomplete,false,NA,true,1,16,NA,left,E29_Q9_ansR.png,E10_Q10_ansR.png,between,NA,NaN,NA,right,1472.4000000357628,0,1,1242.5
kBouTCj9,NA,NA,kBouTCj9,2020-0188,2021-11-13,17:14:14,19:17:19,NA,incomplete,false,NA,true,1,17,NA,right,E10_Q5_ansR.png,E10_Q7_ansR.png,within,NA,NaN,NA,right,1089.800000011921,1,1,1096.5999999642372
kBouTCj9,NA,NA,kBouTCj9,2020-0188,2021-11-13,17:14:14,19:17:19,NA,incomplete,false,NA,true,1,18,NA,left,E10_Q8_ansR.png,E10_Q3_ansL.png,within,NA,NaN,NA,right,1368.300000011921,0,1,1252.3999999761581
kBouTCj9,NA,NA,kBouTCj9,2020-0188,2021-11-13,17:14:14,19:17:19,NA,incomplete,false,NA,true,1,19,NA,left,E10_Q4_ansL.png,E10_Q6_ansR.png,within,NA,NaN,NA,right,1125.199999988079,0,1,1234.3999999761581
kBouTCj9,NA,NA,kBouTCj9,2020-0188,2021-11-13,17:14:14,19:17:19,NA,incomplete,false,NA,true,1,20,NA,right,E16_Q3_ansL.png,E16_Q6_ansL.png,within,NA,NaN,NA,right,985.2999999523163,1,1,1529.1000000238419
kBouTCj9,NA,NA,kBouTCj9,2020-0188,2021-11-13,17:14:14,19:17:19,NA,incomplete,false,NA,true,1,21,NA,right,E16_Q2_ansR.png,E16_Q4_ansL.png,within,NA,NaN,NA,right,1488.6000000238419,1,1,1059.6000000238419
kBouTCj9,NA,NA,kBouTCj9,2020-0188,2021-11-13,17:14:14,19:17:19,NA,incomplete,false,NA,true,1,22,NA,right,E16_Q5_ansL.png,E16_Q9_ansL.png,within,NA,NaN,NA,right,1033.199999988079,1,1,1075.5999999642372
kBouTCj9,NA,NA,kBouTCj9,2020-0188,2021-11-13,17:14:14,19:17:19,NA,incomplete,false,NA,true,1,23,NA,left,E29_Q6_ansR.png,E29_Q10_ansL.png,within,NA,NaN,NA,right,915.1999999880791,0,2,1224.5
kBouTCj9,NA,NA,kBouTCj9,2020-0188,2021-11-13,17:14:14,19:17:19,NA,incomplete,false,NA,true,1,24,NA,left,E16_Q5_ansL.png,E16_Q1_ansR.png,within,NA,NaN,NA,right,1338.5999999642372,0,1,1081.5
kBouTCj9,NA,NA,kBouTCj9,2020-0188,2021-11-13,17:14:14,19:17:19,NA,incomplete,false,NA,true,1,25,NA,left,E29_Q2_ansL.png,E29_Q5_ansR.png,within,NA,NaN,NA,right,1257.2000000476837,0,1,1098.7999999523163
kBouTCj9,NA,NA,kBouTCj9,2020-0188,2021-11-13,17:14:14,19:17:19,NA,incomplete,false,NA,true,1,26,NA,right,E10_Q9_ansL.png,E29_Q1_ansL.png,between,NA,NaN,NA,right,948.3999999761581,1,1,1456.800000011921
kBouTCj9,NA,NA,kBouTCj9,2020-0188,2021-11-13,17:14:14,19:17:19,NA,incomplete,false,true,NA,2,0,E11_Q4_ansL.png,left,NA,NA,NA,left,1814.90000003576,true,NA,NA,NA,NA,NA
kBouTCj9,NA,NA,kBouTCj9,2020-0188,2021-11-13,17:14:14,19:17:19,NA,incomplete,false,true,NA,2,1,E11_Q1_ansR.png,right,NA,NA,NA,right,844.200000047684,true,NA,NA,NA,NA,NA
kBouTCj9,NA,NA,kBouTCj9,2020-0188,2021-11-13,17:14:14,19:17:19,NA,incomplete,false,true,NA,2,2,E11_Q8_ansR.png,right,NA,NA,NA,right,1021.79999995232,true,NA,NA,NA,NA,NA
kBouTCj9,NA,NA,kBouTCj9,2020-0188,2021-11-13,17:14:14,19:17:19,NA,incomplete,false,true,NA,2,3,E11_Q6_ansL.png,left,NA,NA,NA,left,2670.80000001192,true,NA,NA,NA,NA,NA
kBouTCj9,NA,NA,kBouTCj9,2020-0188,2021-11-13,17:14:14,19:17:19,NA,incomplete,false,true,NA,2,4,E11_Q2_ansR.png,right,NA,NA,NA,right,837.100000023842,true,NA,NA,NA,NA,NA
kBouTCj9,NA,NA,kBouTCj9,2020-0188,2021-11-13,17:14:14,19:17:19,NA,incomplete,false,true,NA,2,5,E11_Q5_ansL.png,left,NA,NA,NA,left,2168,true,NA,NA,NA,NA,NA
kBouTCj9,NA,NA,kBouTCj9,2020-0188,2021-11-13,17:14:14,19:17:19,NA,incomplete,false,true,NA,2,6,E11_Q3_ansL.png,left,NA,NA,NA,left,1616.5,true,NA,NA,NA,NA,NA
kBouTCj9,NA,NA,kBouTCj9,2020-0188,2021-11-13,17:14:14,19:17:19,NA,incomplete,false,true,NA,2,7,E11_Q7_ansR.png,right,NA,NA,NA,right,1461.60000002384,true,NA,NA,NA,NA,NA
kBouTCj9,NA,NA,kBouTCj9,2020-0188,2021-11-13,17:14:14,19:17:19,NA,incomplete,false,true,NA,2,8,E11_Q9_ansL.png,left,NA,NA,NA,none,0,false,NA,NA,NA,NA,NA
kBouTCj9,NA,NA,kBouTCj9,2020-0188,2021-11-13,17:14:14,19:17:19,NA,incomplete,false,true,NA,2,9,E11_Q10_ansR.png,right,NA,NA,NA,none,0,false,NA,NA,NA,NA,NA
kBouTCj9,NA,NA,kBouTCj9,2020-0188,2021-11-13,17:14:14,19:17:19,NA,incomplete,false,true,NA,2,10,E13_Q8_ansL.png,left,NA,NA,NA,none,0,false,NA,NA,NA,NA,NA
kBouTCj9,NA,NA,kBouTCj9,2020-0188,2021-11-13,17:14:14,19:17:19,NA,incomplete,false,true,NA,2,11,E13_Q10_ansL.png,left,NA,NA,NA,none,0,false,NA,NA,NA,NA,NA
kBouTCj9,NA,NA,kBouTCj9,2020-0188,2021-11-13,17:14:14,19:17:19,NA,incomplete,false,true,NA,2,12,E13_Q1_ansL.png,left,NA,NA,NA,left,2452.90000003576,true,NA,NA,NA,NA,NA
kBouTCj9,NA,NA,kBouTCj9,2020-0188,2021-11-13,17:14:14,19:17:19,NA,incomplete,false,true,NA,2,13,E13_Q2_ansL.png,left,NA,NA,NA,left,985.100000023842,true,NA,NA,NA,NA,NA
kBouTCj9,NA,NA,kBouTCj9,2020-0188,2021-11-13,17:14:14,19:17:19,NA,incomplete,false,true,NA,2,14,E13_Q5_ansR.png,right,NA,NA,NA,right,3158.20000004768,true,NA,NA,NA,NA,NA
kBouTCj9,NA,NA,kBouTCj9,2020-0188,2021-11-13,17:14:14,19:17:19,NA,incomplete,false,true,NA,2,15,E13_Q4_ansR.png,right,NA,NA,NA,right,1973.69999998808,true,NA,NA,NA,NA,NA
kBouTCj9,NA,NA,kBouTCj9,2020-0188,2021-11-13,17:14:14,19:17:19,NA,incomplete,false,true,NA,2,16,E13_Q6_ansR.png,right,NA,NA,NA,right,1640.59999996424,true,NA,NA,NA,NA,NA
kBouTCj9,NA,NA,kBouTCj9,2020-0188,2021-11-13,17:14:14,19:17:19,NA,incomplete,false,true,NA,2,17,E13_Q9_ansR.png,right,NA,NA,NA,none,0,false,NA,NA,NA,NA,NA
kBouTCj9,NA,NA,kBouTCj9,2020-0188,2021-11-13,17:14:14,19:17:19,NA,incomplete,false,true,NA,2,18,E13_Q3_ansR.png,right,NA,NA,NA,none,0,false,NA,NA,NA,NA,NA
kBouTCj9,NA,NA,kBouTCj9,2020-0188,2021-11-13,17:14:14,19:17:19,NA,incomplete,false,true,NA,2,19,E13_Q7_ansL.png,left,NA,NA,NA,none,0,false,NA,NA,NA,NA,NA
kBouTCj9,NA,NA,kBouTCj9,2020-0188,2021-11-13,17:14:14,19:17:19,NA,incomplete,false,true,NA,2,20,E22_Q3_ansL.png,left,NA,NA,NA,none,0,false,NA,NA,NA,NA,NA
kBouTCj9,NA,NA,kBouTCj9,2020-0188,2021-11-13,17:14:14,19:17:19,NA,incomplete,false,true,NA,2,21,E22_Q7_ansR.png,right,NA,NA,NA,none,0,false,NA,NA,NA,NA,NA
kBouTCj9,NA,NA,kBouTCj9,2020-0188,2021-11-13,17:14:14,19:17:19,NA,incomplete,false,true,NA,2,22,E22_Q10_ansR.png,right,NA,NA,NA,none,0,false,NA,NA,NA,NA,NA
kBouTCj9,NA,NA,kBouTCj9,2020-0188,2021-11-13,17:14:14,19:17:19,NA,incomplete,false,true,NA,2,23,E22_Q6_ansL.png,left,NA,NA,NA,none,0,false,NA,NA,NA,NA,NA
kBouTCj9,NA,NA,kBouTCj9,2020-0188,2021-11-13,17:14:14,19:17:19,NA,incomplete,false,true,NA,2,24,E22_Q4_ansL.png,left,NA,NA,NA,none,0,false,NA,NA,NA,NA,NA
kBouTCj9,NA,NA,kBouTCj9,2020-0188,2021-11-13,17:14:14,19:17:19,NA,incomplete,false,true,NA,2,25,E22_Q2_ansR.png,right,NA,NA,NA,none,0,false,NA,NA,NA,NA,NA
kBouTCj9,NA,NA,kBouTCj9,2020-0188,2021-11-13,17:14:14,19:17:19,NA,incomplete,false,true,NA,2,26,E22_Q5_ansL.png,left,NA,NA,NA,left,1626.39999997616,true,NA,NA,NA,NA,NA
kBouTCj9,NA,NA,kBouTCj9,2020-0188,2021-11-13,17:14:14,19:17:19,NA,incomplete,false,true,NA,2,27,E22_Q8_ansR.png,right,NA,NA,NA,right,1047.40000003576,true,NA,NA,NA,NA,NA
kBouTCj9,NA,NA,kBouTCj9,2020-0188,2021-11-13,17:14:14,19:17:19,NA,incomplete,false,true,NA,2,28,E22_Q9_ansL.png,left,NA,NA,NA,left,1805.80000001192,true,NA,NA,NA,NA,NA
kBouTCj9,NA,NA,kBouTCj9,2020-0188,2021-11-13,17:14:14,19:17:19,NA,incomplete,false,true,NA,2,29,E22_Q1_ansR.png,right,NA,NA,NA,right,1507.20000004768,true,NA,NA,NA,NA,NA
kBouTCj9,NA,NA,kBouTCj9,2020-0188,2021-11-13,17:14:14,19:17:19,NA,incomplete,false,NA,true,2,0,NA,left,E11_Q3_ansL.png,E11_Q10_ansR.png,within,NA,NaN,NA,left,2574,1,1,2979.699999988079
kBouTCj9,NA,NA,kBouTCj9,2020-0188,2021-11-13,17:14:14,19:17:19,NA,incomplete,false,NA,true,2,1,NA,left,E11_Q10_ansR.png,E13_Q1_ansL.png,between,NA,NaN,NA,left,2341.5,1,2,3624
kBouTCj9,NA,NA,kBouTCj9,2020-0188,2021-11-13,17:14:14,19:17:19,NA,incomplete,false,NA,true,2,2,NA,right,E22_Q5_ansL.png,E22_Q6_ansL.png,within,NA,NaN,NA,left,2231.199999988079,0,1,2221.100000023842
kBouTCj9,NA,NA,kBouTCj9,2020-0188,2021-11-13,17:14:14,19:17:19,NA,incomplete,false,NA,true,2,3,NA,right,E22_Q2_ansR.png,E22_Q10_ansR.png,within,NA,NaN,NA,right,1608.8999999761581,1,3,6652.600000023842
kBouTCj9,NA,NA,kBouTCj9,2020-0188,2021-11-13,17:14:14,19:17:19,NA,incomplete,false,NA,true,2,4,NA,right,E22_Q8_ansR.png,E22_Q4_ansL.png,within,NA,NaN,NA,right,1092.199999988079,1,1,1726.3999999761581
kBouTCj9,NA,NA,kBouTCj9,2020-0188,2021-11-13,17:14:14,19:17:19,NA,incomplete,false,NA,true,2,5,NA,left,E22_Q5_ansL.png,E22_Q1_ansR.png,within,NA,NaN,NA,right,2126.2999999523163,0,1,1607.5
kBouTCj9,NA,NA,kBouTCj9,2020-0188,2021-11-13,17:14:14,19:17:19,NA,incomplete,false,NA,true,2,6,NA,left,E11_Q9_ansL.png,E13_Q10_ansL.png,between,NA,NaN,NA,right,1139.2000000476837,0,1,1146.3999999761581
kBouTCj9,NA,NA,kBouTCj9,2020-0188,2021-11-13,17:14:14,19:17:19,NA,incomplete,false,NA,true,2,7,NA,right,E22_Q10_ansR.png,E13_Q7_ansL.png,between,NA,NaN,NA,right,847,1,1,1299.199999988079
kBouTCj9,NA,NA,kBouTCj9,2020-0188,2021-11-13,17:14:14,19:17:19,NA,incomplete,false,NA,true,2,8,NA,right,E13_Q6_ansR.png,E13_Q2_ansL.png,within,NA,NaN,NA,right,1329,1,2,1507.5
kBouTCj9,NA,NA,kBouTCj9,2020-0188,2021-11-13,17:14:14,19:17:19,NA,incomplete,false,NA,true,2,9,NA,left,E11_Q7_ansR.png,E13_Q8_ansL.png,between,NA,NaN,NA,right,2206.600000023842,0,2,1409
kBouTCj9,NA,NA,kBouTCj9,2020-0188,2021-11-13,17:14:14,19:17:19,NA,incomplete,false,NA,true,2,10,NA,left,E11_Q1_ansR.png,E11_Q2_ansR.png,within,NA,NaN,NA,right,1137.5,0,1,1458.5
kBouTCj9,NA,NA,kBouTCj9,2020-0188,2021-11-13,17:14:14,19:17:19,NA,incomplete,false,NA,true,2,11,NA,left,E11_Q6_ansL.png,E11_Q3_ansL.png,within,NA,NaN,NA,right,1042.0999999642372,0,1,1177.699999988079
kBouTCj9,NA,NA,kBouTCj9,2020-0188,2021-11-13,17:14:14,19:17:19,NA,incomplete,false,NA,true,2,12,NA,left,E13_Q5_ansR.png,E13_Q9_ansR.png,within,NA,NaN,NA,right,1114.199999988079,0,1,1236.0999999642372
kBouTCj9,NA,NA,kBouTCj9,2020-0188,2021-11-13,17:14:14,19:17:19,NA,incomplete,false,NA,true,2,13,NA,left,E13_Q10_ansL.png,E13_Q5_ansR.png,within,NA,NaN,NA,right,908.5,0,1,1273.7999999523163
kBouTCj9,NA,NA,kBouTCj9,2020-0188,2021-11-13,17:14:14,19:17:19,NA,incomplete,false,NA,true,2,14,NA,left,E13_Q3_ansR.png,E22_Q7_ansR.png,between,NA,NaN,NA,right,1073.8999999761581,0,1,1265.300000011921
kBouTCj9,NA,NA,kBouTCj9,2020-0188,2021-11-13,17:14:14,19:17:19,NA,incomplete,false,NA,true,2,15,NA,right,E13_Q2_ansL.png,E13_Q8_ansL.png,within,NA,NaN,NA,right,2511,1,1,1392.199999988079
kBouTCj9,NA,NA,kBouTCj9,2020-0188,2021-11-13,17:14:14,19:17:19,NA,incomplete,false,NA,true,2,16,NA,right,E11_Q6_ansL.png,E11_Q4_ansL.png,within,NA,NaN,NA,right,1177.300000011921,1,1,1377.699999988079
kBouTCj9,NA,NA,kBouTCj9,2020-0188,2021-11-13,17:14:14,19:17:19,NA,incomplete,false,NA,true,2,17,NA,left,E13_Q4_ansR.png,E13_Q3_ansR.png,within,NA,NaN,NA,right,1176.7999999523163,0,1,3672.7000000476837
kBouTCj9,NA,NA,kBouTCj9,2020-0188,2021-11-13,17:14:14,19:17:19,NA,incomplete,false,NA,true,2,18,NA,left,E13_Q9_ansR.png,E22_Q3_ansL.png,between,NA,NaN,NA,right,1378.5999999642372,0,1,2805.699999988079
kBouTCj9,NA,NA,kBouTCj9,2020-0188,2021-11-13,17:14:14,19:17:19,NA,incomplete,false,NA,true,2,19,NA,right,E11_Q7_ansR.png,E11_Q2_ansR.png,within,NA,NaN,NA,right,1497.300000011921,1,1,1942.699999988079
kBouTCj9,NA,NA,kBouTCj9,2020-0188,2021-11-13,17:14:14,19:17:19,NA,incomplete,false,NA,true,2,20,NA,left,E22_Q3_ansL.png,E22_Q6_ansL.png,within,NA,NaN,NA,right,1064.1000000238419,0,1,1689.800000011921
kBouTCj9,NA,NA,kBouTCj9,2020-0188,2021-11-13,17:14:14,19:17:19,NA,incomplete,false,NA,true,2,21,NA,left,E22_Q2_ansR.png,E22_Q9_ansL.png,within,NA,NaN,NA,right,1266.300000011921,0,1,1202.199999988079
kBouTCj9,NA,NA,kBouTCj9,2020-0188,2021-11-13,17:14:14,19:17:19,NA,incomplete,false,NA,true,2,22,NA,left,E13_Q6_ansR.png,E13_Q7_ansL.png,within,NA,NaN,NA,right,1153.8999999761581,0,1,2501.699999988079
kBouTCj9,NA,NA,kBouTCj9,2020-0188,2021-11-13,17:14:14,19:17:19,NA,incomplete,false,NA,true,2,23,NA,left,E22_Q7_ansR.png,E22_Q4_ansL.png,within,NA,NaN,NA,right,1319.300000011921,0,1,1258.699999988079
kBouTCj9,NA,NA,kBouTCj9,2020-0188,2021-11-13,17:14:14,19:17:19,NA,incomplete,false,NA,true,2,24,NA,right,E11_Q5_ansL.png,E11_Q8_ansR.png,within,NA,NaN,NA,right,1321.699999988079,1,1,1287.0999999642372
kBouTCj9,NA,NA,kBouTCj9,2020-0188,2021-11-13,17:14:14,19:17:19,NA,incomplete,false,NA,true,2,25,NA,left,E13_Q1_ansL.png,E13_Q4_ansR.png,within,NA,NaN,NA,right,1202.800000011921,0,1,1346.5
kBouTCj9,NA,NA,kBouTCj9,2020-0188,2021-11-13,17:14:14,19:17:19,NA,incomplete,false,NA,true,2,26,NA,left,E11_Q5_ansL.png,E11_Q9_ansL.png,within,NA,NaN,NA,right,1168.699999988079,0,1,1537.5
kBouTCj9,NA,NA,kBouTCj9,2020-0188,2021-11-13,17:14:14,19:17:19,NA,incomplete,false,true,NA,3,0,E7_Q5_ansR.png,right,NA,NA,NA,right,1517.40000003576,true,NA,NA,NA,NA,NA
kBouTCj9,NA,NA,kBouTCj9,2020-0188,2021-11-13,17:14:14,19:17:19,NA,incomplete,false,true,NA,3,1,E7_Q4_ansR.png,right,NA,NA,NA,left,1045.19999998808,false,NA,NA,NA,NA,NA
kBouTCj9,NA,NA,kBouTCj9,2020-0188,2021-11-13,17:14:14,19:17:19,NA,incomplete,false,true,NA,3,2,E7_Q10_ansR.png,right,NA,NA,NA,right,1256.60000002384,true,NA,NA,NA,NA,NA
kBouTCj9,NA,NA,kBouTCj9,2020-0188,2021-11-13,17:14:14,19:17:19,NA,incomplete,false,true,NA,3,3,E7_Q8_ansL.png,left,NA,NA,NA,left,1057.10000002384,true,NA,NA,NA,NA,NA
kBouTCj9,NA,NA,kBouTCj9,2020-0188,2021-11-13,17:14:14,19:17:19,NA,incomplete,false,true,NA,3,4,E7_Q2_ansL.png,left,NA,NA,NA,left,1182.59999996424,true,NA,NA,NA,NA,NA
kBouTCj9,NA,NA,kBouTCj9,2020-0188,2021-11-13,17:14:14,19:17:19,NA,incomplete,false,true,NA,3,5,E7_Q3_ansR.png,right,NA,NA,NA,right,1052.30000001192,true,NA,NA,NA,NA,NA
kBouTCj9,NA,NA,kBouTCj9,2020-0188,2021-11-13,17:14:14,19:17:19,NA,incomplete,false,true,NA,3,6,E7_Q6_ansR.png,right,NA,NA,NA,right,1386.39999997616,true,NA,NA,NA,NA,NA
kBouTCj9,NA,NA,kBouTCj9,2020-0188,2021-11-13,17:14:14,19:17:19,NA,incomplete,false,true,NA,3,7,E7_Q7_ansL.png,left,NA,NA,NA,left,1589.79999995232,true,NA,NA,NA,NA,NA
kBouTCj9,NA,NA,kBouTCj9,2020-0188,2021-11-13,17:14:14,19:17:19,NA,incomplete,false,true,NA,3,8,E7_Q1_ansL.png,left,NA,NA,NA,left,1612.90000003576,true,NA,NA,NA,NA,NA
kBouTCj9,NA,NA,kBouTCj9,2020-0188,2021-11-13,17:14:14,19:17:19,NA,incomplete,false,true,NA,3,9,E7_Q9_ansR.png,right,NA,NA,NA,right,1054.59999996424,true,NA,NA,NA,NA,NA
kBouTCj9,NA,NA,kBouTCj9,2020-0188,2021-11-13,17:14:14,19:17:19,NA,incomplete,false,true,NA,3,10,E1_Q5_ansR.png,right,NA,NA,NA,right,1593.59999996424,true,NA,NA,NA,NA,NA
kBouTCj9,NA,NA,kBouTCj9,2020-0188,2021-11-13,17:14:14,19:17:19,NA,incomplete,false,true,NA,3,11,E1_Q9_ansL.png,left,NA,NA,NA,left,2099.39999997616,true,NA,NA,NA,NA,NA
kBouTCj9,NA,NA,kBouTCj9,2020-0188,2021-11-13,17:14:14,19:17:19,NA,incomplete,false,true,NA,3,12,E1_Q6_ansR.png,right,NA,NA,NA,right,2694.30000001192,true,NA,NA,NA,NA,NA
kBouTCj9,NA,NA,kBouTCj9,2020-0188,2021-11-13,17:14:14,19:17:19,NA,incomplete,false,true,NA,3,13,E1_Q7_ansL.png,left,NA,NA,NA,left,1428.40000003576,true,NA,NA,NA,NA,NA
kBouTCj9,NA,NA,kBouTCj9,2020-0188,2021-11-13,17:14:14,19:17:19,NA,incomplete,false,true,NA,3,14,E1_Q2_ansL.png,left,NA,NA,NA,left,2747.60000002384,true,NA,NA,NA,NA,NA
kBouTCj9,NA,NA,kBouTCj9,2020-0188,2021-11-13,17:14:14,19:17:19,NA,incomplete,false,true,NA,3,15,E1_Q8_ansR.png,right,NA,NA,NA,none,0,false,NA,NA,NA,NA,NA
kBouTCj9,NA,NA,kBouTCj9,2020-0188,2021-11-13,17:14:14,19:17:19,NA,incomplete,false,true,NA,3,16,E1_Q3_ansR.png,right,NA,NA,NA,right,2558,true,NA,NA,NA,NA,NA
kBouTCj9,NA,NA,kBouTCj9,2020-0188,2021-11-13,17:14:14,19:17:19,NA,incomplete,false,true,NA,3,17,E1_Q10_ansR.png,right,NA,NA,NA,none,0,false,NA,NA,NA,NA,NA
kBouTCj9,NA,NA,kBouTCj9,2020-0188,2021-11-13,17:14:14,19:17:19,NA,incomplete,false,true,NA,3,18,E1_Q4_ansL.png,left,NA,NA,NA,left,1767.19999998808,true,NA,NA,NA,NA,NA
kBouTCj9,NA,NA,kBouTCj9,2020-0188,2021-11-13,17:14:14,19:17:19,NA,incomplete,false,true,NA,3,19,E1_Q1_ansL.png,left,NA,NA,NA,left,1936.60000002384,true,NA,NA,NA,NA,NA
kBouTCj9,NA,NA,kBouTCj9,2020-0188,2021-11-13,17:14:14,19:17:19,NA,incomplete,false,true,NA,3,20,E21_Q10_ansL.png,left,NA,NA,NA,left,2447.80000001192,true,NA,NA,NA,NA,NA
kBouTCj9,NA,NA,kBouTCj9,2020-0188,2021-11-13,17:14:14,19:17:19,NA,incomplete,false,true,NA,3,21,E21_Q8_ansL.png,left,NA,NA,NA,left,1197.69999998808,true,NA,NA,NA,NA,NA
kBouTCj9,NA,NA,kBouTCj9,2020-0188,2021-11-13,17:14:14,19:17:19,NA,incomplete,false,true,NA,3,22,E21_Q4_ansR.png,right,NA,NA,NA,right,1668.69999998808,true,NA,NA,NA,NA,NA
kBouTCj9,NA,NA,kBouTCj9,2020-0188,2021-11-13,17:14:14,19:17:19,NA,incomplete,false,true,NA,3,23,E21_Q5_ansR.png,right,NA,NA,NA,right,1484.89999997616,true,NA,NA,NA,NA,NA
kBouTCj9,NA,NA,kBouTCj9,2020-0188,2021-11-13,17:14:14,19:17:19,NA,incomplete,false,true,NA,3,24,E21_Q2_ansL.png,left,NA,NA,NA,left,2076,true,NA,NA,NA,NA,NA
kBouTCj9,NA,NA,kBouTCj9,2020-0188,2021-11-13,17:14:14,19:17:19,NA,incomplete,false,true,NA,3,25,E21_Q1_ansL.png,left,NA,NA,NA,left,1356,true,NA,NA,NA,NA,NA
kBouTCj9,NA,NA,kBouTCj9,2020-0188,2021-11-13,17:14:14,19:17:19,NA,incomplete,false,true,NA,3,26,E21_Q3_ansR.png,right,NA,NA,NA,right,2074.19999998808,true,NA,NA,NA,NA,NA
kBouTCj9,NA,NA,kBouTCj9,2020-0188,2021-11-13,17:14:14,19:17:19,NA,incomplete,false,true,NA,3,27,E21_Q7_ansL.png,left,NA,NA,NA,left,1401.30000001192,true,NA,NA,NA,NA,NA
kBouTCj9,NA,NA,kBouTCj9,2020-0188,2021-11-13,17:14:14,19:17:19,NA,incomplete,false,true,NA,3,28,E21_Q6_ansR.png,right,NA,NA,NA,right,1596.30000001192,true,NA,NA,NA,NA,NA
kBouTCj9,NA,NA,kBouTCj9,2020-0188,2021-11-13,17:14:14,19:17:19,NA,incomplete,false,true,NA,3,29,E21_Q9_ansR.png,right,NA,NA,NA,right,1631.80000001192,true,NA,NA,NA,NA,NA
kBouTCj9,NA,NA,kBouTCj9,2020-0188,2021-11-13,17:14:14,19:17:19,NA,incomplete,false,NA,true,3,0,NA,right,E1_Q5_ansR.png,E7_Q7_ansL.png,between,NA,NaN,NA,right,1519,1,2,4013.300000011921
kBouTCj9,NA,NA,kBouTCj9,2020-0188,2021-11-13,17:14:14,19:17:19,NA,incomplete,false,NA,true,3,1,NA,right,E7_Q2_ansL.png,E7_Q4_ansR.png,within,NA,NaN,NA,right,1152.4000000357628,1,2,1695.6000000238419
kBouTCj9,NA,NA,kBouTCj9,2020-0188,2021-11-13,17:14:14,19:17:19,NA,incomplete,false,NA,true,3,2,NA,right,E7_Q9_ansR.png,E7_Q6_ansR.png,within,NA,NaN,NA,right,1642.800000011921,1,1,1992.300000011921
kBouTCj9,NA,NA,kBouTCj9,2020-0188,2021-11-13,17:14:14,19:17:19,NA,incomplete,false,NA,true,3,3,NA,left,E1_Q1_ansL.png,E21_Q4_ansR.png,between,NA,NaN,NA,right,1037.5,0,1,1042.300000011921
kBouTCj9,NA,NA,kBouTCj9,2020-0188,2021-11-13,17:14:14,19:17:19,NA,incomplete,false,NA,true,3,4,NA,right,E7_Q7_ansL.png,E7_Q2_ansL.png,within,NA,NaN,NA,right,1131.5,1,1,1282.4000000357628
kBouTCj9,NA,NA,kBouTCj9,2020-0188,2021-11-13,17:14:14,19:17:19,NA,incomplete,false,NA,true,3,5,NA,left,E1_Q10_ansR.png,E21_Q10_ansL.png,between,NA,NaN,NA,right,1024.300000011921,0,1,1306.199999988079
kBouTCj9,NA,NA,kBouTCj9,2020-0188,2021-11-13,17:14:14,19:17:19,NA,incomplete,false,NA,true,3,6,NA,left,E7_Q5_ansR.png,E7_Q8_ansL.png,within,NA,NaN,NA,right,971.1000000238419,0,1,1277.199999988079
kBouTCj9,NA,NA,kBouTCj9,2020-0188,2021-11-13,17:14:14,19:17:19,NA,incomplete,false,NA,true,3,7,NA,right,E1_Q9_ansL.png,E7_Q1_ansL.png,between,NA,NaN,NA,right,1011.6000000238419,1,1,1299
kBouTCj9,NA,NA,kBouTCj9,2020-0188,2021-11-13,17:14:14,19:17:19,NA,incomplete,false,NA,true,3,8,NA,left,E21_Q3_ansR.png,E21_Q9_ansR.png,within,NA,NaN,NA,right,1045.699999988079,0,1,1521
kBouTCj9,NA,NA,kBouTCj9,2020-0188,2021-11-13,17:14:14,19:17:19,NA,incomplete,false,NA,true,3,9,NA,left,E7_Q9_ansR.png,E1_Q6_ansR.png,between,NA,NaN,NA,right,978.8000000119209,0,1,1105.9000000357628
kBouTCj9,NA,NA,kBouTCj9,2020-0188,2021-11-13,17:14:14,19:17:19,NA,incomplete,false,NA,true,3,10,NA,right,E7_Q3_ansR.png,E7_Q10_ansR.png,within,NA,NaN,NA,right,795.6000000238419,1,1,1178.5999999642372
kBouTCj9,NA,NA,kBouTCj9,2020-0188,2021-11-13,17:14:14,19:17:19,NA,incomplete,false,NA,true,3,11,NA,left,E1_Q2_ansL.png,E1_Q10_ansR.png,within,NA,NaN,NA,right,1082.7999999523163,0,1,1514.300000011921
kBouTCj9,NA,NA,kBouTCj9,2020-0188,2021-11-13,17:14:14,19:17:19,NA,incomplete,false,NA,true,3,12,NA,right,E21_Q2_ansL.png,E21_Q8_ansL.png,within,NA,NaN,NA,right,1115,1,1,1186.699999988079
kBouTCj9,NA,NA,kBouTCj9,2020-0188,2021-11-13,17:14:14,19:17:19,NA,incomplete,false,NA,true,3,13,NA,right,E1_Q4_ansL.png,E1_Q8_ansR.png,within,NA,NaN,NA,right,1025.6000000238419,1,1,1275.300000011921
kBouTCj9,NA,NA,kBouTCj9,2020-0188,2021-11-13,17:14:14,19:17:19,NA,incomplete,false,NA,true,3,14,NA,left,E1_Q9_ansL.png,E1_Q2_ansL.png,within,NA,NaN,NA,right,851.6000000238419,0,2,1107.199999988079
kBouTCj9,NA,NA,kBouTCj9,2020-0188,2021-11-13,17:14:14,19:17:19,NA,incomplete,false,NA,true,3,15,NA,left,E21_Q4_ansR.png,E21_Q1_ansL.png,within,NA,NaN,NA,right,1133.199999988079,0,1,1734.8999999761581
kBouTCj9,NA,NA,kBouTCj9,2020-0188,2021-11-13,17:14:14,19:17:19,NA,incomplete,false,NA,true,3,16,NA,left,E1_Q4_ansL.png,E21_Q8_ansL.png,between,NA,NaN,NA,right,1130.5,0,1,1248.6000000238419
kBouTCj9,NA,NA,kBouTCj9,2020-0188,2021-11-13,17:14:14,19:17:19,NA,incomplete,false,NA,true,3,17,NA,left,E1_Q5_ansR.png,E1_Q7_ansL.png,within,NA,NaN,NA,right,1083.2000000476837,0,1,1248.8999999761581
kBouTCj9,NA,NA,kBouTCj9,2020-0188,2021-11-13,17:14:14,19:17:19,NA,incomplete,false,NA,true,3,18,NA,left,E1_Q6_ansR.png,E1_Q8_ansR.png,within,NA,NaN,NA,right,1185.4000000357628,0,1,1385.4000000357628
kBouTCj9,NA,NA,kBouTCj9,2020-0188,2021-11-13,17:14:14,19:17:19,NA,incomplete,false,NA,true,3,19,NA,left,E7_Q8_ansL.png,E7_Q6_ansR.png,within,NA,NaN,NA,right,1091.699999988079,0,1,1254.3999999761581
kBouTCj9,NA,NA,kBouTCj9,2020-0188,2021-11-13,17:14:14,19:17:19,NA,incomplete,false,NA,true,3,20,NA,left,E21_Q1_ansL.png,E21_Q6_ansR.png,within,NA,NaN,NA,right,1154.800000011921,0,1,1202.2999999523163
kBouTCj9,NA,NA,kBouTCj9,2020-0188,2021-11-13,17:14:14,19:17:19,NA,incomplete,false,NA,true,3,21,NA,left,E1_Q3_ansR.png,E1_Q1_ansL.png,within,NA,NaN,NA,right,891.1999999880791,0,1,1123.1000000238419
kBouTCj9,NA,NA,kBouTCj9,2020-0188,2021-11-13,17:14:14,19:17:19,NA,incomplete,false,NA,true,3,22,NA,right,E1_Q3_ansR.png,E1_Q7_ansL.png,within,NA,NaN,NA,right,1020.8000000119209,1,1,1068.1000000238419
kBouTCj9,NA,NA,kBouTCj9,2020-0188,2021-11-13,17:14:14,19:17:19,NA,incomplete,false,NA,true,3,23,NA,right,E7_Q1_ansL.png,E7_Q3_ansR.png,within,NA,NaN,NA,right,948.7000000476837,1,1,2150.599999964237
kBouTCj9,NA,NA,kBouTCj9,2020-0188,2021-11-13,17:14:14,19:17:19,NA,incomplete,false,NA,true,3,24,NA,left,E21_Q5_ansR.png,E21_Q3_ansR.png,within,NA,NaN,NA,right,998.9000000357628,0,1,1257.3999999761581
kBouTCj9,NA,NA,kBouTCj9,2020-0188,2021-11-13,17:14:14,19:17:19,NA,incomplete,false,NA,true,3,25,NA,left,E21_Q2_ansL.png,E21_Q7_ansL.png,within,NA,NaN,NA,right,969,0,1,1281
kBouTCj9,NA,NA,kBouTCj9,2020-0188,2021-11-13,17:14:14,19:17:19,NA,incomplete,false,NA,true,3,26,NA,left,E21_Q10_ansL.png,E21_Q5_ansR.png,within,NA,NaN,NA,right,1100.5,0,1,1704
kBouTCj9,NA,NA,kBouTCj9,2020-0188,2021-11-13,17:14:14,19:17:19,NA,incomplete,false,true,NA,4,0,E12_Q7_ansL.png,left,NA,NA,NA,left,1722.09999996424,true,NA,NA,NA,NA,NA
kBouTCj9,NA,NA,kBouTCj9,2020-0188,2021-11-13,17:14:14,19:17:19,NA,incomplete,false,true,NA,4,1,E12_Q9_ansR.png,right,NA,NA,NA,right,1504,true,NA,NA,NA,NA,NA
kBouTCj9,NA,NA,kBouTCj9,2020-0188,2021-11-13,17:14:14,19:17:19,NA,incomplete,false,true,NA,4,2,E12_Q3_ansR.png,right,NA,NA,NA,right,1629.10000002384,true,NA,NA,NA,NA,NA
kBouTCj9,NA,NA,kBouTCj9,2020-0188,2021-11-13,17:14:14,19:17:19,NA,incomplete,false,true,NA,4,3,E12_Q8_ansL.png,left,NA,NA,NA,left,2198.80000001192,true,NA,NA,NA,NA,NA
kBouTCj9,NA,NA,kBouTCj9,2020-0188,2021-11-13,17:14:14,19:17:19,NA,incomplete,false,true,NA,4,4,E12_Q10_ansL.png,left,NA,NA,NA,left,1722.89999997616,true,NA,NA,NA,NA,NA
kBouTCj9,NA,NA,kBouTCj9,2020-0188,2021-11-13,17:14:14,19:17:19,NA,incomplete,false,true,NA,4,5,E12_Q6_ansR.png,right,NA,NA,NA,right,1977,true,NA,NA,NA,NA,NA
kBouTCj9,NA,NA,kBouTCj9,2020-0188,2021-11-13,17:14:14,19:17:19,NA,incomplete,false,true,NA,4,6,E12_Q1_ansL.png,left,NA,NA,NA,left,2000.60000002384,true,NA,NA,NA,NA,NA
kBouTCj9,NA,NA,kBouTCj9,2020-0188,2021-11-13,17:14:14,19:17:19,NA,incomplete,false,true,NA,4,7,E12_Q4_ansR.png,right,NA,NA,NA,right,2226.59999996424,true,NA,NA,NA,NA,NA
kBouTCj9,NA,NA,kBouTCj9,2020-0188,2021-11-13,17:14:14,19:17:19,NA,incomplete,false,true,NA,4,8,E12_Q5_ansR.png,right,NA,NA,NA,right,1756.5,true,NA,NA,NA,NA,NA
kBouTCj9,NA,NA,kBouTCj9,2020-0188,2021-11-13,17:14:14,19:17:19,NA,incomplete,false,true,NA,4,9,E12_Q2_ansL.png,left,NA,NA,NA,left,3117.89999997616,true,NA,NA,NA,NA,NA
kBouTCj9,NA,NA,kBouTCj9,2020-0188,2021-11-13,17:14:14,19:17:19,NA,incomplete,false,true,NA,4,10,E4_Q10_ansR.png,right,NA,NA,NA,right,2754.30000001192,true,NA,NA,NA,NA,NA
kBouTCj9,NA,NA,kBouTCj9,2020-0188,2021-11-13,17:14:14,19:17:19,NA,incomplete,false,true,NA,4,11,E4_Q9_ansL.png,left,NA,NA,NA,left,1805.5,true,NA,NA,NA,NA,NA
kBouTCj9,NA,NA,kBouTCj9,2020-0188,2021-11-13,17:14:14,19:17:19,NA,incomplete,false,true,NA,4,12,E4_Q5_ansR.png,right,NA,NA,NA,right,1289.09999996424,true,NA,NA,NA,NA,NA
kBouTCj9,NA,NA,kBouTCj9,2020-0188,2021-11-13,17:14:14,19:17:19,NA,incomplete,false,true,NA,4,13,E4_Q3_ansL.png,left,NA,NA,NA,left,3421.10000002384,true,NA,NA,NA,NA,NA
kBouTCj9,NA,NA,kBouTCj9,2020-0188,2021-11-13,17:14:14,19:17:19,NA,incomplete,false,true,NA,4,14,E4_Q4_ansL.png,left,NA,NA,NA,right,2545.69999998808,false,NA,NA,NA,NA,NA
kBouTCj9,NA,NA,kBouTCj9,2020-0188,2021-11-13,17:14:14,19:17:19,NA,incomplete,false,true,NA,4,15,E4_Q2_ansL.png,left,NA,NA,NA,left,2587,true,NA,NA,NA,NA,NA
kBouTCj9,NA,NA,kBouTCj9,2020-0188,2021-11-13,17:14:14,19:17:19,NA,incomplete,false,true,NA,4,16,E4_Q6_ansR.png,right,NA,NA,NA,right,1264.19999998808,true,NA,NA,NA,NA,NA
kBouTCj9,NA,NA,kBouTCj9,2020-0188,2021-11-13,17:14:14,19:17:19,NA,incomplete,false,true,NA,4,17,E4_Q1_ansL.png,left,NA,NA,NA,left,1736.19999998808,true,NA,NA,NA,NA,NA
kBouTCj9,NA,NA,kBouTCj9,2020-0188,2021-11-13,17:14:14,19:17:19,NA,incomplete,false,true,NA,4,18,E4_Q8_ansR.png,right,NA,NA,NA,right,1437.80000001192,true,NA,NA,NA,NA,NA
kBouTCj9,NA,NA,kBouTCj9,2020-0188,2021-11-13,17:14:14,19:17:19,NA,incomplete,false,true,NA,4,19,E4_Q7_ansR.png,right,NA,NA,NA,right,1323.30000001192,true,NA,NA,NA,NA,NA
kBouTCj9,NA,NA,kBouTCj9,2020-0188,2021-11-13,17:14:14,19:17:19,NA,incomplete,false,true,NA,4,20,E32_Q10_ansL.png,left,NA,NA,NA,left,3040.70000004768,true,NA,NA,NA,NA,NA
kBouTCj9,NA,NA,kBouTCj9,2020-0188,2021-11-13,17:14:14,19:17:19,NA,incomplete,false,true,NA,4,21,E32_Q9_ansR.png,right,NA,NA,NA,right,2741.69999998808,true,NA,NA,NA,NA,NA
kBouTCj9,NA,NA,kBouTCj9,2020-0188,2021-11-13,17:14:14,19:17:19,NA,incomplete,false,true,NA,4,22,E32_Q5_ansR.png,right,NA,NA,NA,right,3145,true,NA,NA,NA,NA,NA
kBouTCj9,NA,NA,kBouTCj9,2020-0188,2021-11-13,17:14:14,19:17:19,NA,incomplete,false,true,NA,4,23,E32_Q4_ansR.png,right,NA,NA,NA,none,0,false,NA,NA,NA,NA,NA
kBouTCj9,NA,NA,kBouTCj9,2020-0188,2021-11-13,17:14:14,19:17:19,NA,incomplete,false,true,NA,4,24,E32_Q6_ansR.png,right,NA,NA,NA,right,1717,true,NA,NA,NA,NA,NA
kBouTCj9,NA,NA,kBouTCj9,2020-0188,2021-11-13,17:14:14,19:17:19,NA,incomplete,false,true,NA,4,25,E32_Q1_ansL.png,left,NA,NA,NA,left,1563.69999998808,true,NA,NA,NA,NA,NA
kBouTCj9,NA,NA,kBouTCj9,2020-0188,2021-11-13,17:14:14,19:17:19,NA,incomplete,false,true,NA,4,26,E32_Q2_ansL.png,left,NA,NA,NA,none,0,false,NA,NA,NA,NA,NA
kBouTCj9,NA,NA,kBouTCj9,2020-0188,2021-11-13,17:14:14,19:17:19,NA,incomplete,false,true,NA,4,27,E32_Q3_ansR.png,right,NA,NA,NA,right,2535.69999998808,true,NA,NA,NA,NA,NA
kBouTCj9,NA,NA,kBouTCj9,2020-0188,2021-11-13,17:14:14,19:17:19,NA,incomplete,false,true,NA,4,28,E32_Q8_ansL.png,left,NA,NA,NA,left,1637,true,NA,NA,NA,NA,NA
kBouTCj9,NA,NA,kBouTCj9,2020-0188,2021-11-13,17:14:14,19:17:19,NA,incomplete,false,true,NA,4,29,E32_Q7_ansL.png,left,NA,NA,NA,left,3135.40000003576,true,NA,NA,NA,NA,NA
kBouTCj9,NA,NA,kBouTCj9,2020-0188,2021-11-13,17:14:14,19:17:19,NA,incomplete,false,NA,true,4,0,NA,left,E12_Q9_ansR.png,E12_Q10_ansL.png,within,NA,NaN,NA,right,3359.400000035763,0,1,3032.800000011921
kBouTCj9,NA,NA,kBouTCj9,2020-0188,2021-11-13,17:14:14,19:17:19,NA,incomplete,false,NA,true,4,1,NA,left,E32_Q5_ansR.png,E32_Q1_ansL.png,within,NA,NaN,NA,right,992.9000000357628,0,1,1367.8999999761581
kBouTCj9,NA,NA,kBouTCj9,2020-0188,2021-11-13,17:14:14,19:17:19,NA,incomplete,false,NA,true,4,2,NA,right,E4_Q4_ansL.png,E4_Q9_ansL.png,within,NA,NaN,NA,right,1066.5,1,1,1034.5999999642372
kBouTCj9,NA,NA,kBouTCj9,2020-0188,2021-11-13,17:14:14,19:17:19,NA,incomplete,false,NA,true,4,3,NA,right,E32_Q9_ansR.png,E4_Q8_ansR.png,between,NA,NaN,NA,right,1058.300000011921,1,1,1050.5999999642372
kBouTCj9,NA,NA,kBouTCj9,2020-0188,2021-11-13,17:14:14,19:17:19,NA,incomplete,false,NA,true,4,4,NA,left,E12_Q1_ansL.png,E12_Q2_ansL.png,within,NA,NaN,NA,right,987.2000000476837,0,1,266605.6999999881
kBouTCj9,NA,NA,kBouTCj9,2020-0188,2021-11-13,17:14:14,19:17:19,NA,incomplete,false,NA,true,4,5,NA,right,E12_Q6_ansR.png,E12_Q3_ansR.png,within,NA,NaN,NA,right,1428.9000000357628,1,2,3248.600000023842
kBouTCj9,NA,NA,kBouTCj9,2020-0188,2021-11-13,17:14:14,19:17:19,NA,incomplete,false,NA,true,4,6,NA,left,E4_Q10_ansR.png,E4_Q3_ansL.png,within,NA,NaN,NA,right,1439.300000011921,0,1,1901
kBouTCj9,NA,NA,kBouTCj9,2020-0188,2021-11-13,17:14:14,19:17:19,NA,incomplete,false,NA,true,4,7,NA,right,E4_Q2_ansL.png,E4_Q5_ansR.png,within,NA,NaN,NA,right,1265.300000011921,1,1,1193.699999988079
kBouTCj9,NA,NA,kBouTCj9,2020-0188,2021-11-13,17:14:14,19:17:19,NA,incomplete,false,NA,true,4,8,NA,left,E12_Q6_ansR.png,E12_Q5_ansR.png,within,NA,NaN,NA,right,1113,0,1,1217.9000000357628
kBouTCj9,NA,NA,kBouTCj9,2020-0188,2021-11-13,17:14:14,19:17:19,NA,incomplete,false,NA,true,4,9,NA,right,E32_Q6_ansR.png,E32_Q9_ansR.png,within,NA,NaN,NA,right,1353.5,1,1,1623.5999999642372
kBouTCj9,NA,NA,kBouTCj9,2020-0188,2021-11-13,17:14:14,19:17:19,NA,incomplete,false,NA,true,4,10,NA,right,E32_Q7_ansL.png,E32_Q2_ansL.png,within,NA,NaN,NA,right,899,1,1,1232.8999999761581
kBouTCj9,NA,NA,kBouTCj9,2020-0188,2021-11-13,17:14:14,19:17:19,NA,incomplete,false,NA,true,4,11,NA,left,E32_Q10_ansL.png,E32_Q4_ansR.png,within,NA,NaN,NA,right,1142.699999988079,0,1,2071.300000011921
kBouTCj9,NA,NA,kBouTCj9,2020-0188,2021-11-13,17:14:14,19:17:19,NA,incomplete,false,NA,true,4,12,NA,right,E4_Q1_ansL.png,E4_Q4_ansL.png,within,NA,NaN,NA,right,1273.800000011921,1,1,1210.199999988079
kBouTCj9,NA,NA,kBouTCj9,2020-0188,2021-11-13,17:14:14,19:17:19,NA,incomplete,false,NA,true,4,13,NA,right,E12_Q4_ansR.png,E12_Q10_ansL.png,within,NA,NaN,NA,right,890.8000000119209,1,1,1105.7000000476837
kBouTCj9,NA,NA,kBouTCj9,2020-0188,2021-11-13,17:14:14,19:17:19,NA,incomplete,false,NA,true,4,14,NA,left,E4_Q1_ansL.png,E32_Q10_ansL.png,between,NA,NaN,NA,right,1170.5999999642372,0,1,1038.300000011921
kBouTCj9,NA,NA,kBouTCj9,2020-0188,2021-11-13,17:14:14,19:17:19,NA,incomplete,false,NA,true,4,15,NA,left,E32_Q4_ansR.png,E32_Q2_ansL.png,within,NA,NaN,NA,right,1683.199999988079,0,1,1415
kBouTCj9,NA,NA,kBouTCj9,2020-0188,2021-11-13,17:14:14,19:17:19,NA,incomplete,false,NA,true,4,16,NA,right,E32_Q5_ansR.png,E4_Q7_ansR.png,between,NA,NaN,NA,right,1342.199999988079,1,1,2125.699999988079
kBouTCj9,NA,NA,kBouTCj9,2020-0188,2021-11-13,17:14:14,19:17:19,NA,incomplete,false,NA,true,4,17,NA,right,E4_Q8_ansR.png,E4_Q2_ansL.png,within,NA,NaN,NA,right,1121.699999988079,1,1,1225.1000000238419
kBouTCj9,NA,NA,kBouTCj9,2020-0188,2021-11-13,17:14:14,19:17:19,NA,incomplete,false,NA,true,4,18,NA,right,E12_Q8_ansL.png,E12_Q7_ansL.png,within,NA,NaN,NA,right,1003.6000000238419,1,1,2138.899999976158
kBouTCj9,NA,NA,kBouTCj9,2020-0188,2021-11-13,17:14:14,19:17:19,NA,incomplete,false,NA,true,4,19,NA,right,E12_Q1_ansL.png,E12_Q8_ansL.png,within,NA,NaN,NA,right,1608.699999988079,1,1,1042.4000000357628
kBouTCj9,NA,NA,kBouTCj9,2020-0188,2021-11-13,17:14:14,19:17:19,NA,incomplete,false,NA,true,4,20,NA,left,E12_Q4_ansR.png,E4_Q10_ansR.png,between,NA,NaN,NA,right,986.0999999642372,0,1,1166.1000000238419
kBouTCj9,NA,NA,kBouTCj9,2020-0188,2021-11-13,17:14:14,19:17:19,NA,incomplete,false,NA,true,4,21,NA,left,E12_Q2_ansL.png,E4_Q5_ansR.png,between,NA,NaN,NA,right,991.6999999880791,0,1,2306.7999999523163
kBouTCj9,NA,NA,kBouTCj9,2020-0188,2021-11-13,17:14:14,19:17:19,NA,incomplete,false,NA,true,4,22,NA,left,E4_Q3_ansL.png,E4_Q6_ansR.png,within,NA,NaN,NA,right,1256.800000011921,0,1,1236.5999999642372
kBouTCj9,NA,NA,kBouTCj9,2020-0188,2021-11-13,17:14:14,19:17:19,NA,incomplete,false,NA,true,4,23,NA,right,E4_Q7_ansR.png,E4_Q6_ansR.png,within,NA,NaN,NA,right,1178.699999988079,1,1,1072.8999999761581
kBouTCj9,NA,NA,kBouTCj9,2020-0188,2021-11-13,17:14:14,19:17:19,NA,incomplete,false,NA,true,4,24,NA,right,E32_Q8_ansL.png,E32_Q1_ansL.png,within,NA,NaN,NA,right,1089.7999999523163,1,1,1495.800000011921
kBouTCj9,NA,NA,kBouTCj9,2020-0188,2021-11-13,17:14:14,19:17:19,NA,incomplete,false,NA,true,4,25,NA,right,E32_Q3_ansR.png,E32_Q6_ansR.png,within,NA,NaN,NA,right,1002.9000000357628,1,1,1138.0999999642372
kBouTCj9,NA,NA,kBouTCj9,2020-0188,2021-11-13,17:14:14,19:17:19,NA,incomplete,false,NA,true,4,26,NA,left,E12_Q5_ansR.png,E4_Q9_ansL.png,between,NA,NaN,NA,right,1105.5,0,1,1480.800000011921
kBouTCj9,NA,NA,kBouTCj9,2020-0188,2021-11-13,17:14:14,19:17:19,NA,incomplete,false,true,NA,5,0,E19_Q5_ansR.png,right,NA,NA,NA,right,2394,true,NA,NA,NA,NA,NA
kBouTCj9,NA,NA,kBouTCj9,2020-0188,2021-11-13,17:14:14,19:17:19,NA,incomplete,false,true,NA,5,1,E19_Q6_ansR.png,right,NA,NA,NA,right,1251.10000002384,true,NA,NA,NA,NA,NA
kBouTCj9,NA,NA,kBouTCj9,2020-0188,2021-11-13,17:14:14,19:17:19,NA,incomplete,false,true,NA,5,2,E19_Q8_ansL.png,left,NA,NA,NA,left,1940.19999998808,true,NA,NA,NA,NA,NA
kBouTCj9,NA,NA,kBouTCj9,2020-0188,2021-11-13,17:14:14,19:17:19,NA,incomplete,false,true,NA,5,3,E19_Q10_ansL.png,left,NA,NA,NA,left,1159.39999997616,true,NA,NA,NA,NA,NA
kBouTCj9,NA,NA,kBouTCj9,2020-0188,2021-11-13,17:14:14,19:17:19,NA,incomplete,false,true,NA,5,4,E19_Q9_ansR.png,right,NA,NA,NA,right,1976.89999997616,true,NA,NA,NA,NA,NA
kBouTCj9,NA,NA,kBouTCj9,2020-0188,2021-11-13,17:14:14,19:17:19,NA,incomplete,false,true,NA,5,5,E19_Q7_ansL.png,left,NA,NA,NA,left,2058.80000001192,true,NA,NA,NA,NA,NA
kBouTCj9,NA,NA,kBouTCj9,2020-0188,2021-11-13,17:14:14,19:17:19,NA,incomplete,false,true,NA,5,6,E19_Q1_ansL.png,left,NA,NA,NA,left,2156.69999998808,true,NA,NA,NA,NA,NA
kBouTCj9,NA,NA,kBouTCj9,2020-0188,2021-11-13,17:14:14,19:17:19,NA,incomplete,false,true,NA,5,7,E19_Q4_ansR.png,right,NA,NA,NA,right,1430.90000003576,true,NA,NA,NA,NA,NA
kBouTCj9,NA,NA,kBouTCj9,2020-0188,2021-11-13,17:14:14,19:17:19,NA,incomplete,false,true,NA,5,8,E19_Q2_ansL.png,left,NA,NA,NA,left,1570.60000002384,true,NA,NA,NA,NA,NA
kBouTCj9,NA,NA,kBouTCj9,2020-0188,2021-11-13,17:14:14,19:17:19,NA,incomplete,false,true,NA,5,9,E19_Q3_ansR.png,right,NA,NA,NA,right,1356.89999997616,true,NA,NA,NA,NA,NA
kBouTCj9,NA,NA,kBouTCj9,2020-0188,2021-11-13,17:14:14,19:17:19,NA,incomplete,false,true,NA,5,10,E30_Q7_ansL.png,left,NA,NA,NA,none,0,false,NA,NA,NA,NA,NA
kBouTCj9,NA,NA,kBouTCj9,2020-0188,2021-11-13,17:14:14,19:17:19,NA,incomplete,false,true,NA,5,11,E30_Q10_ansR.png,right,NA,NA,NA,right,2493.80000001192,true,NA,NA,NA,NA,NA
kBouTCj9,NA,NA,kBouTCj9,2020-0188,2021-11-13,17:14:14,19:17:19,NA,incomplete,false,true,NA,5,12,E30_Q6_ansR.png,right,NA,NA,NA,right,2908,true,NA,NA,NA,NA,NA
kBouTCj9,NA,NA,kBouTCj9,2020-0188,2021-11-13,17:14:14,19:17:19,NA,incomplete,false,true,NA,5,13,E30_Q8_ansL.png,left,NA,NA,NA,none,0,false,NA,NA,NA,NA,NA
kBouTCj9,NA,NA,kBouTCj9,2020-0188,2021-11-13,17:14:14,19:17:19,NA,incomplete,false,true,NA,5,14,E30_Q9_ansL.png,left,NA,NA,NA,left,2175.5,true,NA,NA,NA,NA,NA
kBouTCj9,NA,NA,kBouTCj9,2020-0188,2021-11-13,17:14:14,19:17:19,NA,incomplete,false,true,NA,5,15,E30_Q3_ansL.png,left,NA,NA,NA,none,0,false,NA,NA,NA,NA,NA
kBouTCj9,NA,NA,kBouTCj9,2020-0188,2021-11-13,17:14:14,19:17:19,NA,incomplete,false,true,NA,5,16,E30_Q2_ansL.png,left,NA,NA,NA,none,0,false,NA,NA,NA,NA,NA
kBouTCj9,NA,NA,kBouTCj9,2020-0188,2021-11-13,17:14:14,19:17:19,NA,incomplete,false,true,NA,5,17,E30_Q4_ansL.png,left,NA,NA,NA,left,3490.10000002384,true,NA,NA,NA,NA,NA
kBouTCj9,NA,NA,kBouTCj9,2020-0188,2021-11-13,17:14:14,19:17:19,NA,incomplete,false,true,NA,5,18,E30_Q1_ansL.png,left,NA,NA,NA,left,2606.69999998808,true,NA,NA,NA,NA,NA
kBouTCj9,NA,NA,kBouTCj9,2020-0188,2021-11-13,17:14:14,19:17:19,NA,incomplete,false,true,NA,5,19,E30_Q5_ansR.png,right,NA,NA,NA,right,3186.19999998808,true,NA,NA,NA,NA,NA
kBouTCj9,NA,NA,kBouTCj9,2020-0188,2021-11-13,17:14:14,19:17:19,NA,incomplete,false,true,NA,5,20,E23_Q7_ansL.png,left,NA,NA,NA,none,0,false,NA,NA,NA,NA,NA
kBouTCj9,NA,NA,kBouTCj9,2020-0188,2021-11-13,17:14:14,19:17:19,NA,incomplete,false,true,NA,5,21,E23_Q8_ansL.png,left,NA,NA,NA,left,2263.5,true,NA,NA,NA,NA,NA
kBouTCj9,NA,NA,kBouTCj9,2020-0188,2021-11-13,17:14:14,19:17:19,NA,incomplete,false,true,NA,5,22,E23_Q10_ansL.png,left,NA,NA,NA,left,1606.09999996424,true,NA,NA,NA,NA,NA
kBouTCj9,NA,NA,kBouTCj9,2020-0188,2021-11-13,17:14:14,19:17:19,NA,incomplete,false,true,NA,5,23,E23_Q3_ansR.png,right,NA,NA,NA,right,1326.5,true,NA,NA,NA,NA,NA
kBouTCj9,NA,NA,kBouTCj9,2020-0188,2021-11-13,17:14:14,19:17:19,NA,incomplete,false,true,NA,5,24,E23_Q4_ansR.png,right,NA,NA,NA,right,1993,true,NA,NA,NA,NA,NA
kBouTCj9,NA,NA,kBouTCj9,2020-0188,2021-11-13,17:14:14,19:17:19,NA,incomplete,false,true,NA,5,25,E23_Q2_ansL.png,left,NA,NA,NA,left,1757.39999997616,true,NA,NA,NA,NA,NA
kBouTCj9,NA,NA,kBouTCj9,2020-0188,2021-11-13,17:14:14,19:17:19,NA,incomplete,false,true,NA,5,26,E23_Q5_ansR.png,right,NA,NA,NA,none,0,false,NA,NA,NA,NA,NA
kBouTCj9,NA,NA,kBouTCj9,2020-0188,2021-11-13,17:14:14,19:17:19,NA,incomplete,false,true,NA,5,27,E23_Q6_ansR.png,right,NA,NA,NA,right,1324.59999996424,true,NA,NA,NA,NA,NA
kBouTCj9,NA,NA,kBouTCj9,2020-0188,2021-11-13,17:14:14,19:17:19,NA,incomplete,false,true,NA,5,28,E23_Q1_ansL.png,left,NA,NA,NA,left,1653.09999996424,true,NA,NA,NA,NA,NA
kBouTCj9,NA,NA,kBouTCj9,2020-0188,2021-11-13,17:14:14,19:17:19,NA,incomplete,false,true,NA,5,29,E23_Q9_ansR.png,right,NA,NA,NA,right,3440.80000001192,true,NA,NA,NA,NA,NA
kBouTCj9,NA,NA,kBouTCj9,2020-0188,2021-11-13,17:14:14,19:17:19,NA,incomplete,false,NA,true,5,0,NA,right,E23_Q1_ansL.png,E23_Q2_ansL.png,within,NA,NaN,NA,right,6804,1,1,3321.100000023842
kBouTCj9,NA,NA,kBouTCj9,2020-0188,2021-11-13,17:14:14,19:17:19,NA,incomplete,false,NA,true,5,1,NA,right,E30_Q5_ansR.png,E30_Q2_ansL.png,within,NA,NaN,NA,left,1089.1000000238419,0,1,1029.199999988079
kBouTCj9,NA,NA,kBouTCj9,2020-0188,2021-11-13,17:14:14,19:17:19,NA,incomplete,false,NA,true,5,2,NA,right,E30_Q4_ansL.png,E30_Q9_ansL.png,within,NA,NaN,NA,right,1566.3999999761581,1,1,1397.5
kBouTCj9,NA,NA,kBouTCj9,2020-0188,2021-11-13,17:14:14,19:17:19,NA,incomplete,false,NA,true,5,3,NA,right,E23_Q3_ansR.png,E23_Q7_ansL.png,within,NA,NaN,NA,right,1157.300000011921,1,2,2093.600000023842
kBouTCj9,NA,NA,kBouTCj9,2020-0188,2021-11-13,17:14:14,19:17:19,NA,incomplete,false,NA,true,5,4,NA,right,E23_Q6_ansR.png,E23_Q4_ansR.png,within,NA,NaN,NA,right,1185.699999988079,1,1,1232.6000000238419
kBouTCj9,NA,NA,kBouTCj9,2020-0188,2021-11-13,17:14:14,19:17:19,NA,incomplete,false,NA,true,5,5,NA,left,E19_Q3_ansR.png,E30_Q6_ansR.png,between,NA,NaN,NA,right,1266.1000000238419,0,1,1330.5999999642372
kBouTCj9,NA,NA,kBouTCj9,2020-0188,2021-11-13,17:14:14,19:17:19,NA,incomplete,false,NA,true,5,6,NA,left,E30_Q5_ansR.png,E23_Q10_ansL.png,between,NA,NaN,NA,left,1273.2000000476837,1,1,1560.2000000476837
kBouTCj9,NA,NA,kBouTCj9,2020-0188,2021-11-13,17:14:14,19:17:19,NA,incomplete,false,NA,true,5,7,NA,left,E19_Q7_ansL.png,E19_Q2_ansL.png,within,NA,NaN,NA,right,2930.2999999523163,0,1,1299.8999999761581
kBouTCj9,NA,NA,kBouTCj9,2020-0188,2021-11-13,17:14:14,19:17:19,NA,incomplete,false,NA,true,5,8,NA,left,E19_Q1_ansL.png,E19_Q3_ansR.png,within,NA,NaN,NA,right,1185.8999999761581,0,1,1480
kBouTCj9,NA,NA,kBouTCj9,2020-0188,2021-11-13,17:14:14,19:17:19,NA,incomplete,false,NA,true,5,9,NA,left,E19_Q5_ansR.png,E19_Q10_ansL.png,within,NA,NaN,NA,right,1603,0,1,1656.2000000476837
kBouTCj9,NA,NA,kBouTCj9,2020-0188,2021-11-13,17:14:14,19:17:19,NA,incomplete,false,NA,true,5,10,NA,right,E30_Q2_ansL.png,E30_Q8_ansL.png,within,NA,NaN,NA,right,1441.199999988079,1,1,1742.800000011921
kBouTCj9,NA,NA,kBouTCj9,2020-0188,2021-11-13,17:14:14,19:17:19,NA,incomplete,false,NA,true,5,11,NA,left,E19_Q2_ansL.png,E30_Q10_ansR.png,between,NA,NaN,NA,right,1410.7000000476837,0,1,1973.6000000238419
kBouTCj9,NA,NA,kBouTCj9,2020-0188,2021-11-13,17:14:14,19:17:19,NA,incomplete,false,NA,true,5,12,NA,left,E23_Q10_ansL.png,E23_Q2_ansL.png,within,NA,NaN,NA,right,1459.4000000357628,0,1,1846.800000011921
kBouTCj9,NA,NA,kBouTCj9,2020-0188,2021-11-13,17:14:14,19:17:19,NA,incomplete,false,NA,true,5,13,NA,right,E23_Q7_ansL.png,E30_Q4_ansL.png,between,NA,NaN,NA,right,1252.8999999761581,1,1,1260
kBouTCj9,NA,NA,kBouTCj9,2020-0188,2021-11-13,17:14:14,19:17:19,NA,incomplete,false,NA,true,5,14,NA,right,E30_Q3_ansL.png,E30_Q6_ansR.png,within,NA,NaN,NA,right,1724.0999999642372,1,1,1432.3999999761581
kBouTCj9,NA,NA,kBouTCj9,2020-0188,2021-11-13,17:14:14,19:17:19,NA,incomplete,false,NA,true,5,15,NA,right,E30_Q7_ansL.png,E19_Q4_ansR.png,between,NA,NaN,NA,right,1323.199999988079,1,1,1237.199999988079
kBouTCj9,NA,NA,kBouTCj9,2020-0188,2021-11-13,17:14:14,19:17:19,NA,incomplete,false,NA,true,5,16,NA,left,E23_Q8_ansL.png,E23_Q4_ansR.png,within,NA,NaN,NA,right,1178.800000011921,0,1,1565.9000000357628
kBouTCj9,NA,NA,kBouTCj9,2020-0188,2021-11-13,17:14:14,19:17:19,NA,incomplete,false,NA,true,5,17,NA,left,E30_Q7_ansL.png,E30_Q8_ansL.png,within,NA,NaN,NA,right,1117.7000000476837,0,1,2281.199999988079
kBouTCj9,NA,NA,kBouTCj9,2020-0188,2021-11-13,17:14:14,19:17:19,NA,incomplete,false,NA,true,5,18,NA,left,E19_Q8_ansL.png,E19_Q7_ansL.png,within,NA,NaN,NA,right,1239.6000000238419,0,1,1122.0999999642372
kBouTCj9,NA,NA,kBouTCj9,2020-0188,2021-11-13,17:14:14,19:17:19,NA,incomplete,false,NA,true,5,19,NA,left,E19_Q6_ansR.png,E19_Q9_ansR.png,within,NA,NaN,NA,right,1097.699999988079,0,1,1323.7000000476837
kBouTCj9,NA,NA,kBouTCj9,2020-0188,2021-11-13,17:14:14,19:17:19,NA,incomplete,false,NA,true,5,20,NA,left,E30_Q10_ansR.png,E30_Q9_ansL.png,within,NA,NaN,NA,right,1116.0999999642372,0,1,2261.100000023842
kBouTCj9,NA,NA,kBouTCj9,2020-0188,2021-11-13,17:14:14,19:17:19,NA,incomplete,false,NA,true,5,21,NA,left,E30_Q1_ansL.png,E23_Q8_ansL.png,between,NA,NaN,NA,right,1446.8999999761581,0,1,1889.199999988079
kBouTCj9,NA,NA,kBouTCj9,2020-0188,2021-11-13,17:14:14,19:17:19,NA,incomplete,false,NA,true,5,22,NA,left,E23_Q3_ansR.png,E23_Q5_ansR.png,within,NA,NaN,NA,right,1282.199999988079,0,1,1663.2000000476837
kBouTCj9,NA,NA,kBouTCj9,2020-0188,2021-11-13,17:14:14,19:17:19,NA,incomplete,false,NA,true,5,23,NA,left,E19_Q9_ansR.png,E19_Q4_ansR.png,within,NA,NaN,NA,right,1616.0999999642372,0,1,1584.9000000357628
kBouTCj9,NA,NA,kBouTCj9,2020-0188,2021-11-13,17:14:14,19:17:19,NA,incomplete,false,NA,true,5,24,NA,right,E19_Q1_ansL.png,E19_Q10_ansL.png,within,NA,NaN,NA,right,1257,1,1,1411.1000000238419
kBouTCj9,NA,NA,kBouTCj9,2020-0188,2021-11-13,17:14:14,19:17:19,NA,incomplete,false,NA,true,5,25,NA,left,E30_Q3_ansL.png,E30_Q1_ansL.png,within,NA,NaN,NA,right,1050,0,1,953.6999999880791
kBouTCj9,NA,NA,kBouTCj9,2020-0188,2021-11-13,17:14:14,19:17:19,NA,incomplete,false,NA,true,5,26,NA,left,E23_Q5_ansR.png,E23_Q9_ansR.png,within,NA,NaN,NA,right,1017.6000000238419,0,1,1921.6000000238419
kBouTCj9,NA,NA,kBouTCj9,2020-0188,2021-11-13,17:14:14,19:17:19,NA,incomplete,false,true,NA,6,0,E2_Q1_ansL.png,left,NA,NA,NA,left,3231.70000004768,true,NA,NA,NA,NA,NA
kBouTCj9,NA,NA,kBouTCj9,2020-0188,2021-11-13,17:14:14,19:17:19,NA,incomplete,false,true,NA,6,1,E2_Q6_ansL.png,left,NA,NA,NA,right,2479.69999998808,false,NA,NA,NA,NA,NA
kBouTCj9,NA,NA,kBouTCj9,2020-0188,2021-11-13,17:14:14,19:17:19,NA,incomplete,false,true,NA,6,2,E2_Q10_ansL.png,left,NA,NA,NA,left,3153.39999997616,true,NA,NA,NA,NA,NA
kBouTCj9,NA,NA,kBouTCj9,2020-0188,2021-11-13,17:14:14,19:17:19,NA,incomplete,false,true,NA,6,3,E2_Q4_ansL.png,left,NA,NA,NA,left,1663.19999998808,true,NA,NA,NA,NA,NA
kBouTCj9,NA,NA,kBouTCj9,2020-0188,2021-11-13,17:14:14,19:17:19,NA,incomplete,false,true,NA,6,4,E2_Q2_ansR.png,right,NA,NA,NA,none,0,false,NA,NA,NA,NA,NA
kBouTCj9,NA,NA,kBouTCj9,2020-0188,2021-11-13,17:14:14,19:17:19,NA,incomplete,false,true,NA,6,5,E2_Q5_ansL.png,left,NA,NA,NA,left,1918.59999996424,true,NA,NA,NA,NA,NA
kBouTCj9,NA,NA,kBouTCj9,2020-0188,2021-11-13,17:14:14,19:17:19,NA,incomplete,false,true,NA,6,6,E2_Q9_ansL.png,left,NA,NA,NA,none,0,false,NA,NA,NA,NA,NA
kBouTCj9,NA,NA,kBouTCj9,2020-0188,2021-11-13,17:14:14,19:17:19,NA,incomplete,false,true,NA,6,7,E2_Q7_ansR.png,right,NA,NA,NA,right,1591.29999995232,true,NA,NA,NA,NA,NA
kBouTCj9,NA,NA,kBouTCj9,2020-0188,2021-11-13,17:14:14,19:17:19,NA,incomplete,false,true,NA,6,8,E2_Q3_ansR.png,right,NA,NA,NA,left,2672.79999995232,false,NA,NA,NA,NA,NA
kBouTCj9,NA,NA,kBouTCj9,2020-0188,2021-11-13,17:14:14,19:17:19,NA,incomplete,false,true,NA,6,9,E2_Q8_ansR.png,right,NA,NA,NA,none,0,false,NA,NA,NA,NA,NA
kBouTCj9,NA,NA,kBouTCj9,2020-0188,2021-11-13,17:14:14,19:17:19,NA,incomplete,false,true,NA,6,10,E8_Q2_ansR.png,right,NA,NA,NA,right,1045,true,NA,NA,NA,NA,NA
kBouTCj9,NA,NA,kBouTCj9,2020-0188,2021-11-13,17:14:14,19:17:19,NA,incomplete,false,true,NA,6,11,E8_Q1_ansR.png,right,NA,NA,NA,right,2755.69999998808,true,NA,NA,NA,NA,NA
kBouTCj9,NA,NA,kBouTCj9,2020-0188,2021-11-13,17:14:14,19:17:19,NA,incomplete,false,true,NA,6,12,E8_Q5_ansL.png,left,NA,NA,NA,left,1923.39999997616,true,NA,NA,NA,NA,NA
kBouTCj9,NA,NA,kBouTCj9,2020-0188,2021-11-13,17:14:14,19:17:19,NA,incomplete,false,true,NA,6,13,E8_Q3_ansL.png,left,NA,NA,NA,right,3301.80000001192,false,NA,NA,NA,NA,NA
kBouTCj9,NA,NA,kBouTCj9,2020-0188,2021-11-13,17:14:14,19:17:19,NA,incomplete,false,true,NA,6,14,E8_Q7_ansR.png,right,NA,NA,NA,right,2025.09999996424,true,NA,NA,NA,NA,NA
kBouTCj9,NA,NA,kBouTCj9,2020-0188,2021-11-13,17:14:14,19:17:19,NA,incomplete,false,true,NA,6,15,E8_Q6_ansL.png,left,NA,NA,NA,left,2990.59999996424,true,NA,NA,NA,NA,NA
kBouTCj9,NA,NA,kBouTCj9,2020-0188,2021-11-13,17:14:14,19:17:19,NA,incomplete,false,true,NA,6,16,E8_Q9_ansL.png,left,NA,NA,NA,left,1509.80000001192,true,NA,NA,NA,NA,NA
kBouTCj9,NA,NA,kBouTCj9,2020-0188,2021-11-13,17:14:14,19:17:19,NA,incomplete,false,true,NA,6,17,E8_Q8_ansR.png,right,NA,NA,NA,none,0,false,NA,NA,NA,NA,NA
kBouTCj9,NA,NA,kBouTCj9,2020-0188,2021-11-13,17:14:14,19:17:19,NA,incomplete,false,true,NA,6,18,E8_Q10_ansR.png,right,NA,NA,NA,right,1260.19999998808,true,NA,NA,NA,NA,NA
kBouTCj9,NA,NA,kBouTCj9,2020-0188,2021-11-13,17:14:14,19:17:19,NA,incomplete,false,true,NA,6,19,E8_Q4_ansL.png,left,NA,NA,NA,left,2670.69999998808,true,NA,NA,NA,NA,NA
kBouTCj9,NA,NA,kBouTCj9,2020-0188,2021-11-13,17:14:14,19:17:19,NA,incomplete,false,true,NA,6,20,E20_Q1_ansL.png,left,NA,NA,NA,none,0,false,NA,NA,NA,NA,NA
kBouTCj9,NA,NA,kBouTCj9,2020-0188,2021-11-13,17:14:14,19:17:19,NA,incomplete,false,true,NA,6,21,E20_Q3_ansR.png,right,NA,NA,NA,none,0,false,NA,NA,NA,NA,NA
kBouTCj9,NA,NA,kBouTCj9,2020-0188,2021-11-13,17:14:14,19:17:19,NA,incomplete,false,true,NA,6,22,E20_Q4_ansR.png,right,NA,NA,NA,right,2244.39999997616,true,NA,NA,NA,NA,NA
kBouTCj9,NA,NA,kBouTCj9,2020-0188,2021-11-13,17:14:14,19:17:19,NA,incomplete,false,true,NA,6,23,E20_Q8_ansL.png,left,NA,NA,NA,left,1828.60000002384,true,NA,NA,NA,NA,NA
kBouTCj9,NA,NA,kBouTCj9,2020-0188,2021-11-13,17:14:14,19:17:19,NA,incomplete,false,true,NA,6,24,E20_Q6_ansR.png,right,NA,NA,NA,right,3489.5,true,NA,NA,NA,NA,NA
kBouTCj9,NA,NA,kBouTCj9,2020-0188,2021-11-13,17:14:14,19:17:19,NA,incomplete,false,true,NA,6,25,E20_Q2_ansL.png,left,NA,NA,NA,left,2616.10000002384,true,NA,NA,NA,NA,NA
kBouTCj9,NA,NA,kBouTCj9,2020-0188,2021-11-13,17:14:14,19:17:19,NA,incomplete,false,true,NA,6,26,E20_Q7_ansL.png,left,NA,NA,NA,none,0,false,NA,NA,NA,NA,NA
kBouTCj9,NA,NA,kBouTCj9,2020-0188,2021-11-13,17:14:14,19:17:19,NA,incomplete,false,true,NA,6,27,E20_Q10_ansL.png,left,NA,NA,NA,right,2223.60000002384,false,NA,NA,NA,NA,NA
kBouTCj9,NA,NA,kBouTCj9,2020-0188,2021-11-13,17:14:14,19:17:19,NA,incomplete,false,true,NA,6,28,E20_Q9_ansR.png,right,NA,NA,NA,right,2704.69999998808,true,NA,NA,NA,NA,NA
kBouTCj9,NA,NA,kBouTCj9,2020-0188,2021-11-13,17:14:14,19:17:19,NA,incomplete,false,true,NA,6,29,E20_Q5_ansR.png,right,NA,NA,NA,none,0,false,NA,NA,NA,NA,NA
kBouTCj9,NA,NA,kBouTCj9,2020-0188,2021-11-13,17:14:14,19:17:19,NA,incomplete,false,NA,true,6,0,NA,left,E8_Q6_ansL.png,E8_Q10_ansR.png,within,NA,NaN,NA,right,1938.199999988079,0,1,1913.300000011921
kBouTCj9,NA,NA,kBouTCj9,2020-0188,2021-11-13,17:14:14,19:17:19,NA,incomplete,false,NA,true,6,1,NA,left,E8_Q2_ansR.png,E8_Q3_ansL.png,within,NA,NaN,NA,right,1114.1000000238419,0,1,4809.699999988079
kBouTCj9,NA,NA,kBouTCj9,2020-0188,2021-11-13,17:14:14,19:17:19,NA,incomplete,false,NA,true,6,2,NA,right,E20_Q7_ansL.png,E20_Q8_ansL.png,within,NA,NaN,NA,left,3200.100000023842,0,1,1698.3999999761581
kBouTCj9,NA,NA,kBouTCj9,2020-0188,2021-11-13,17:14:14,19:17:19,NA,incomplete,false,NA,true,6,3,NA,right,E2_Q2_ansR.png,E2_Q6_ansL.png,within,NA,NaN,NA,right,1719.4000000357628,1,1,1082.800000011921
kBouTCj9,NA,NA,kBouTCj9,2020-0188,2021-11-13,17:14:14,19:17:19,NA,incomplete,false,NA,true,6,4,NA,left,E20_Q3_ansR.png,E20_Q6_ansR.png,within,NA,NaN,NA,left,1130.7000000476837,1,1,2524.7000000476837
kBouTCj9,NA,NA,kBouTCj9,2020-0188,2021-11-13,17:14:14,19:17:19,NA,incomplete,false,NA,true,6,5,NA,right,E2_Q7_ansR.png,E2_Q2_ansR.png,within,NA,NaN,NA,right,1235.4000000357628,1,1,1130.5999999642372
kBouTCj9,NA,NA,kBouTCj9,2020-0188,2021-11-13,17:14:14,19:17:19,NA,incomplete,false,NA,true,6,6,NA,left,E8_Q1_ansR.png,E8_Q7_ansR.png,within,NA,NaN,NA,right,1163.800000011921,0,1,1695.300000011921
kBouTCj9,NA,NA,kBouTCj9,2020-0188,2021-11-13,17:14:14,19:17:19,NA,incomplete,false,NA,true,6,7,NA,left,E8_Q5_ansL.png,E8_Q6_ansL.png,within,NA,NaN,NA,right,1396.300000011921,0,1,1703.5
kBouTCj9,NA,NA,kBouTCj9,2020-0188,2021-11-13,17:14:14,19:17:19,NA,incomplete,false,NA,true,6,8,NA,left,E2_Q4_ansL.png,E2_Q9_ansL.png,within,NA,NaN,NA,right,2610.600000023842,0,1,1520.1000000238419
kBouTCj9,NA,NA,kBouTCj9,2020-0188,2021-11-13,17:14:14,19:17:19,NA,incomplete,false,NA,true,6,9,NA,left,E2_Q3_ansR.png,E8_Q1_ansR.png,between,NA,NaN,NA,right,1402.300000011921,0,1,1646.5
kBouTCj9,NA,NA,kBouTCj9,2020-0188,2021-11-13,17:14:14,19:17:19,NA,incomplete,false,NA,true,6,10,NA,left,E8_Q4_ansL.png,E20_Q4_ansR.png,between,NA,NaN,NA,right,1280,0,2,1839.0999999642372
kBouTCj9,NA,NA,kBouTCj9,2020-0188,2021-11-13,17:14:14,19:17:19,NA,incomplete,false,NA,true,6,11,NA,right,E20_Q5_ansR.png,E20_Q7_ansL.png,within,NA,NaN,NA,right,1513.7999999523163,1,1,1559.800000011921
kBouTCj9,NA,NA,kBouTCj9,2020-0188,2021-11-13,17:14:14,19:17:19,NA,incomplete,false,NA,true,6,12,NA,right,E2_Q8_ansR.png,E2_Q9_ansL.png,within,NA,NaN,NA,right,1134.199999988079,1,1,1376.3999999761581
kBouTCj9,NA,NA,kBouTCj9,2020-0188,2021-11-13,17:14:14,19:17:19,NA,incomplete,false,NA,true,6,13,NA,left,E20_Q2_ansL.png,E20_Q9_ansR.png,within,NA,NaN,NA,right,1181.6000000238419,0,1,4484.199999988079
kBouTCj9,NA,NA,kBouTCj9,2020-0188,2021-11-13,17:14:14,19:17:19,NA,incomplete,false,NA,true,6,14,NA,left,E8_Q10_ansR.png,E20_Q3_ansR.png,between,NA,NaN,NA,right,1622.300000011921,0,1,3067.399999976158
kBouTCj9,NA,NA,kBouTCj9,2020-0188,2021-11-13,17:14:14,19:17:19,NA,incomplete,false,NA,true,6,15,NA,right,E20_Q1_ansL.png,E8_Q8_ansR.png,between,NA,NaN,NA,right,1050.199999988079,1,1,1252.3999999761581
kBouTCj9,NA,NA,kBouTCj9,2020-0188,2021-11-13,17:14:14,19:17:19,NA,incomplete,false,NA,true,6,16,NA,left,E20_Q4_ansR.png,E20_Q2_ansL.png,within,NA,NaN,NA,right,1455.4000000357628,0,1,3137.900000035763
kBouTCj9,NA,NA,kBouTCj9,2020-0188,2021-11-13,17:14:14,19:17:19,NA,incomplete,false,NA,true,6,17,NA,right,E8_Q5_ansL.png,E2_Q8_ansR.png,between,NA,NaN,NA,right,1217.3999999761581,1,1,1298
kBouTCj9,NA,NA,kBouTCj9,2020-0188,2021-11-13,17:14:14,19:17:19,NA,incomplete,false,NA,true,6,18,NA,left,E20_Q1_ansL.png,E20_Q8_ansL.png,within,NA,NaN,NA,right,1365,0,1,1346.300000011921
kBouTCj9,NA,NA,kBouTCj9,2020-0188,2021-11-13,17:14:14,19:17:19,NA,incomplete,false,NA,true,6,19,NA,right,E2_Q3_ansR.png,E2_Q5_ansL.png,within,NA,NaN,NA,right,2070.699999988079,1,1,1532.699999988079
kBouTCj9,NA,NA,kBouTCj9,2020-0188,2021-11-13,17:14:14,19:17:19,NA,incomplete,false,NA,true,6,20,NA,right,E8_Q4_ansL.png,E8_Q9_ansL.png,within,NA,NaN,NA,right,1476,1,1,2444.300000011921
kBouTCj9,NA,NA,kBouTCj9,2020-0188,2021-11-13,17:14:14,19:17:19,NA,incomplete,false,NA,true,6,21,NA,right,E8_Q9_ansL.png,E8_Q3_ansL.png,within,NA,NaN,NA,right,1112.4000000357628,1,1,1129.9000000357628
kBouTCj9,NA,NA,kBouTCj9,2020-0188,2021-11-13,17:14:14,19:17:19,NA,incomplete,false,NA,true,6,22,NA,right,E2_Q4_ansL.png,E2_Q1_ansL.png,within,NA,NaN,NA,right,1390.300000011921,1,1,1384.1000000238419
kBouTCj9,NA,NA,kBouTCj9,2020-0188,2021-11-13,17:14:14,19:17:19,NA,incomplete,false,NA,true,6,23,NA,right,E8_Q8_ansR.png,E8_Q7_ansR.png,within,NA,NaN,NA,right,1041.199999988079,1,1,1507.5
kBouTCj9,NA,NA,kBouTCj9,2020-0188,2021-11-13,17:14:14,19:17:19,NA,incomplete,false,NA,true,6,24,NA,left,E2_Q10_ansL.png,E2_Q5_ansL.png,within,NA,NaN,NA,right,859.8000000119209,0,1,1258.1000000238419
kBouTCj9,NA,NA,kBouTCj9,2020-0188,2021-11-13,17:14:14,19:17:19,NA,incomplete,false,NA,true,6,25,NA,right,E8_Q2_ansR.png,E2_Q7_ansR.png,between,NA,NaN,NA,left,1346.5,0,1,1948.5999999642372
kBouTCj9,NA,NA,kBouTCj9,2020-0188,2021-11-13,17:14:14,19:17:19,NA,incomplete,false,NA,true,6,26,NA,right,E20_Q10_ansL.png,E20_Q6_ansR.png,within,NA,NaN,NA,right,1496.6000000238419,1,1,1450.5
kBouTCj9,NA,NA,kBouTCj9,2020-0188,2021-11-13,17:14:14,19:17:19,NA,incomplete,false,true,NA,7,0,E27_Q1_ansL.png,left,NA,NA,NA,none,0,false,NA,NA,NA,NA,NA
kBouTCj9,NA,NA,kBouTCj9,2020-0188,2021-11-13,17:14:14,19:17:19,NA,incomplete,false,true,NA,7,1,E27_Q5_ansR.png,right,NA,NA,NA,none,0,false,NA,NA,NA,NA,NA
kBouTCj9,NA,NA,kBouTCj9,2020-0188,2021-11-13,17:14:14,19:17:19,NA,incomplete,false,true,NA,7,2,E27_Q9_ansR.png,right,NA,NA,NA,none,0,false,NA,NA,NA,NA,NA
kBouTCj9,NA,NA,kBouTCj9,2020-0188,2021-11-13,17:14:14,19:17:19,NA,incomplete,false,true,NA,7,3,E27_Q3_ansR.png,right,NA,NA,NA,none,0,false,NA,NA,NA,NA,NA
kBouTCj9,NA,NA,kBouTCj9,2020-0188,2021-11-13,17:14:14,19:17:19,NA,incomplete,false,true,NA,7,4,E27_Q2_ansL.png,left,NA,NA,NA,none,0,false,NA,NA,NA,NA,NA
kBouTCj9,NA,NA,kBouTCj9,2020-0188,2021-11-13,17:14:14,19:17:19,NA,incomplete,false,true,NA,7,5,E27_Q6_ansR.png,right,NA,NA,NA,none,0,false,NA,NA,NA,NA,NA
kBouTCj9,NA,NA,kBouTCj9,2020-0188,2021-11-13,17:14:14,19:17:19,NA,incomplete,false,true,NA,7,6,E27_Q7_ansL.png,left,NA,NA,NA,left,2236.79999995232,true,NA,NA,NA,NA,NA
kBouTCj9,NA,NA,kBouTCj9,2020-0188,2021-11-13,17:14:14,19:17:19,NA,incomplete,false,true,NA,7,7,E27_Q8_ansL.png,left,NA,NA,NA,left,1212.69999998808,true,NA,NA,NA,NA,NA
kBouTCj9,NA,NA,kBouTCj9,2020-0188,2021-11-13,17:14:14,19:17:19,NA,incomplete,false,true,NA,7,8,E27_Q4_ansR.png,right,NA,NA,NA,right,1318.5,true,NA,NA,NA,NA,NA
kBouTCj9,NA,NA,kBouTCj9,2020-0188,2021-11-13,17:14:14,19:17:19,NA,incomplete,false,true,NA,7,9,E27_Q10_ansL.png,left,NA,NA,NA,left,1002.20000004768,true,NA,NA,NA,NA,NA
kBouTCj9,NA,NA,kBouTCj9,2020-0188,2021-11-13,17:14:14,19:17:19,NA,incomplete,false,true,NA,7,10,E14_Q6_ansR.png,right,NA,NA,NA,left,2144.20000004768,false,NA,NA,NA,NA,NA
kBouTCj9,NA,NA,kBouTCj9,2020-0188,2021-11-13,17:14:14,19:17:19,NA,incomplete,false,true,NA,7,11,E14_Q5_ansR.png,right,NA,NA,NA,right,1788.40000003576,true,NA,NA,NA,NA,NA
kBouTCj9,NA,NA,kBouTCj9,2020-0188,2021-11-13,17:14:14,19:17:19,NA,incomplete,false,true,NA,7,12,E14_Q8_ansL.png,left,NA,NA,NA,right,1558,false,NA,NA,NA,NA,NA
kBouTCj9,NA,NA,kBouTCj9,2020-0188,2021-11-13,17:14:14,19:17:19,NA,incomplete,false,true,NA,7,13,E14_Q10_ansL.png,left,NA,NA,NA,left,2151.70000004768,true,NA,NA,NA,NA,NA
kBouTCj9,NA,NA,kBouTCj9,2020-0188,2021-11-13,17:14:14,19:17:19,NA,incomplete,false,true,NA,7,14,E14_Q7_ansL.png,left,NA,NA,NA,none,0,false,NA,NA,NA,NA,NA
kBouTCj9,NA,NA,kBouTCj9,2020-0188,2021-11-13,17:14:14,19:17:19,NA,incomplete,false,true,NA,7,15,E14_Q2_ansL.png,left,NA,NA,NA,left,2237,true,NA,NA,NA,NA,NA
kBouTCj9,NA,NA,kBouTCj9,2020-0188,2021-11-13,17:14:14,19:17:19,NA,incomplete,false,true,NA,7,16,E14_Q9_ansR.png,right,NA,NA,NA,none,0,false,NA,NA,NA,NA,NA
kBouTCj9,NA,NA,kBouTCj9,2020-0188,2021-11-13,17:14:14,19:17:19,NA,incomplete,false,true,NA,7,17,E14_Q1_ansL.png,left,NA,NA,NA,none,0,false,NA,NA,NA,NA,NA
kBouTCj9,NA,NA,kBouTCj9,2020-0188,2021-11-13,17:14:14,19:17:19,NA,incomplete,false,true,NA,7,18,E14_Q4_ansR.png,right,NA,NA,NA,none,0,false,NA,NA,NA,NA,NA
kBouTCj9,NA,NA,kBouTCj9,2020-0188,2021-11-13,17:14:14,19:17:19,NA,incomplete,false,true,NA,7,19,E14_Q3_ansR.png,right,NA,NA,NA,right,1068.5,true,NA,NA,NA,NA,NA
kBouTCj9,NA,NA,kBouTCj9,2020-0188,2021-11-13,17:14:14,19:17:19,NA,incomplete,false,true,NA,7,20,E5_Q6_ansR.png,right,NA,NA,NA,right,1679.69999998808,true,NA,NA,NA,NA,NA
kBouTCj9,NA,NA,kBouTCj9,2020-0188,2021-11-13,17:14:14,19:17:19,NA,incomplete,false,true,NA,7,21,E5_Q7_ansL.png,left,NA,NA,NA,left,2234.19999998808,true,NA,NA,NA,NA,NA
kBouTCj9,NA,NA,kBouTCj9,2020-0188,2021-11-13,17:14:14,19:17:19,NA,incomplete,false,true,NA,7,22,E5_Q3_ansR.png,right,NA,NA,NA,none,0,false,NA,NA,NA,NA,NA
kBouTCj9,NA,NA,kBouTCj9,2020-0188,2021-11-13,17:14:14,19:17:19,NA,incomplete,false,true,NA,7,23,E5_Q10_ansR.png,right,NA,NA,NA,right,3111.80000001192,true,NA,NA,NA,NA,NA
kBouTCj9,NA,NA,kBouTCj9,2020-0188,2021-11-13,17:14:14,19:17:19,NA,incomplete,false,true,NA,7,24,E5_Q4_ansR.png,right,NA,NA,NA,right,2023.39999997616,true,NA,NA,NA,NA,NA
kBouTCj9,NA,NA,kBouTCj9,2020-0188,2021-11-13,17:14:14,19:17:19,NA,incomplete,false,true,NA,7,25,E5_Q1_ansL.png,left,NA,NA,NA,left,1177,true,NA,NA,NA,NA,NA
kBouTCj9,NA,NA,kBouTCj9,2020-0188,2021-11-13,17:14:14,19:17:19,NA,incomplete,false,true,NA,7,26,E5_Q8_ansL.png,left,NA,NA,NA,left,1230.89999997616,true,NA,NA,NA,NA,NA
kBouTCj9,NA,NA,kBouTCj9,2020-0188,2021-11-13,17:14:14,19:17:19,NA,incomplete,false,true,NA,7,27,E5_Q2_ansL.png,left,NA,NA,NA,left,2374.60000002384,true,NA,NA,NA,NA,NA
kBouTCj9,NA,NA,kBouTCj9,2020-0188,2021-11-13,17:14:14,19:17:19,NA,incomplete,false,true,NA,7,28,E5_Q9_ansR.png,right,NA,NA,NA,right,1492.69999998808,true,NA,NA,NA,NA,NA
kBouTCj9,NA,NA,kBouTCj9,2020-0188,2021-11-13,17:14:14,19:17:19,NA,incomplete,false,true,NA,7,29,E5_Q5_ansR.png,right,NA,NA,NA,right,1311.40000003576,true,NA,NA,NA,NA,NA
kBouTCj9,NA,NA,kBouTCj9,2020-0188,2021-11-13,17:14:14,19:17:19,NA,incomplete,false,NA,true,7,0,NA,left,E27_Q1_ansL.png,E27_Q3_ansR.png,within,NA,NaN,NA,left,1492.5,1,1,1951.5
kBouTCj9,NA,NA,kBouTCj9,2020-0188,2021-11-13,17:14:14,19:17:19,NA,incomplete,false,NA,true,7,1,NA,right,E5_Q6_ansR.png,E14_Q1_ansL.png,between,NA,NaN,NA,left,717.5,0,2,1687.8999999761581
kBouTCj9,NA,NA,kBouTCj9,2020-0188,2021-11-13,17:14:14,19:17:19,NA,incomplete,false,NA,true,7,2,NA,right,E14_Q10_ansL.png,E14_Q6_ansR.png,within,NA,NaN,NA,left,836.3999999761581,0,1,2375
kBouTCj9,NA,NA,kBouTCj9,2020-0188,2021-11-13,17:14:14,19:17:19,NA,incomplete,false,NA,true,7,3,NA,right,E14_Q2_ansL.png,E14_Q8_ansL.png,within,NA,NaN,NA,right,1133.8999999761581,1,1,1242.199999988079
kBouTCj9,NA,NA,kBouTCj9,2020-0188,2021-11-13,17:14:14,19:17:19,NA,incomplete,false,NA,true,7,4,NA,right,E14_Q1_ansL.png,E14_Q7_ansL.png,within,NA,NaN,NA,right,916.5,1,1,1810.6000000238419
kBouTCj9,NA,NA,kBouTCj9,2020-0188,2021-11-13,17:14:14,19:17:19,NA,incomplete,false,NA,true,7,5,NA,right,E14_Q8_ansL.png,E27_Q10_ansL.png,between,NA,NaN,NA,right,827.3000000119209,1,1,1418.3999999761581
kBouTCj9,NA,NA,kBouTCj9,2020-0188,2021-11-13,17:14:14,19:17:19,NA,incomplete,false,NA,true,7,6,NA,left,E27_Q5_ansR.png,E27_Q2_ansL.png,within,NA,NaN,NA,right,2423.699999988079,0,1,1434.199999988079
kBouTCj9,NA,NA,kBouTCj9,2020-0188,2021-11-13,17:14:14,19:17:19,NA,incomplete,false,NA,true,7,7,NA,right,E5_Q3_ansR.png,E14_Q3_ansR.png,between,NA,NaN,NA,left,1474.8999999761581,0,1,1345.8999999761581
kBouTCj9,NA,NA,kBouTCj9,2020-0188,2021-11-13,17:14:14,19:17:19,NA,incomplete,false,NA,true,7,8,NA,left,E27_Q9_ansR.png,E27_Q6_ansR.png,within,NA,NaN,NA,right,892.5,0,1,1752.300000011921
kBouTCj9,NA,NA,kBouTCj9,2020-0188,2021-11-13,17:14:14,19:17:19,NA,incomplete,false,NA,true,7,9,NA,right,E5_Q2_ansL.png,E5_Q4_ansR.png,within,NA,NaN,NA,right,1027.9000000357628,1,1,1274.300000011921
kBouTCj9,NA,NA,kBouTCj9,2020-0188,2021-11-13,17:14:14,19:17:19,NA,incomplete,false,NA,true,7,10,NA,right,E14_Q3_ansR.png,E14_Q9_ansR.png,within,NA,NaN,NA,right,995.9000000357628,1,1,1298.1000000238419
kBouTCj9,NA,NA,kBouTCj9,2020-0188,2021-11-13,17:14:14,19:17:19,NA,incomplete,false,NA,true,7,11,NA,left,E5_Q1_ansL.png,E5_Q9_ansR.png,within,NA,NaN,NA,right,1139.5999999642372,0,1,1203.3999999761581
kBouTCj9,NA,NA,kBouTCj9,2020-0188,2021-11-13,17:14:14,19:17:19,NA,incomplete,false,NA,true,7,12,NA,right,E14_Q4_ansR.png,E14_Q2_ansL.png,within,NA,NaN,NA,right,1299.8999999761581,1,1,1249.1000000238419
kBouTCj9,NA,NA,kBouTCj9,2020-0188,2021-11-13,17:14:14,19:17:19,NA,incomplete,false,NA,true,7,13,NA,left,E5_Q8_ansL.png,E5_Q5_ansR.png,within,NA,NaN,NA,right,1025.2999999523163,0,1,971.7999999523163
kBouTCj9,NA,NA,kBouTCj9,2020-0188,2021-11-13,17:14:14,19:17:19,NA,incomplete,false,NA,true,7,14,NA,left,E27_Q3_ansR.png,E27_Q7_ansL.png,within,NA,NaN,NA,right,995.3999999761581,0,1,1291.300000011921
kBouTCj9,NA,NA,kBouTCj9,2020-0188,2021-11-13,17:14:14,19:17:19,NA,incomplete,false,NA,true,7,15,NA,left,E5_Q10_ansR.png,E5_Q8_ansL.png,within,NA,NaN,NA,right,940.1999999880791,0,1,1497.5
kBouTCj9,NA,NA,kBouTCj9,2020-0188,2021-11-13,17:14:14,19:17:19,NA,incomplete,false,NA,true,7,16,NA,left,E14_Q4_ansR.png,E5_Q7_ansL.png,between,NA,NaN,NA,right,2239.199999988079,0,2,2287.699999988079
kBouTCj9,NA,NA,kBouTCj9,2020-0188,2021-11-13,17:14:14,19:17:19,NA,incomplete,false,NA,true,7,17,NA,left,E5_Q6_ansR.png,E5_Q10_ansR.png,within,NA,NaN,NA,right,2438.600000023842,0,1,2246.400000035763
kBouTCj9,NA,NA,kBouTCj9,2020-0188,2021-11-13,17:14:14,19:17:19,NA,incomplete,false,NA,true,7,18,NA,right,E5_Q4_ansR.png,E5_Q7_ansL.png,within,NA,NaN,NA,right,1006.4000000357628,1,1,1603
kBouTCj9,NA,NA,kBouTCj9,2020-0188,2021-11-13,17:14:14,19:17:19,NA,incomplete,false,NA,true,7,19,NA,left,E14_Q10_ansL.png,E14_Q9_ansR.png,within,NA,NaN,NA,left,1163.3999999761581,1,1,2047
kBouTCj9,NA,NA,kBouTCj9,2020-0188,2021-11-13,17:14:14,19:17:19,NA,incomplete,false,NA,true,7,20,NA,right,E14_Q5_ansR.png,E27_Q4_ansR.png,between,NA,NaN,NA,right,1020.3999999761581,1,1,1171.1000000238419
kBouTCj9,NA,NA,kBouTCj9,2020-0188,2021-11-13,17:14:14,19:17:19,NA,incomplete,false,NA,true,7,21,NA,left,E27_Q2_ansL.png,E27_Q8_ansL.png,within,NA,NaN,NA,right,1028.699999988079,0,2,1568.699999988079
kBouTCj9,NA,NA,kBouTCj9,2020-0188,2021-11-13,17:14:14,19:17:19,NA,incomplete,false,NA,true,7,22,NA,right,E14_Q7_ansL.png,E14_Q5_ansR.png,within,NA,NaN,NA,right,1754.199999988079,1,1,1839.800000011921
kBouTCj9,NA,NA,kBouTCj9,2020-0188,2021-11-13,17:14:14,19:17:19,NA,incomplete,false,NA,true,7,23,NA,right,E27_Q10_ansL.png,E27_Q7_ansL.png,within,NA,NaN,NA,right,926.0999999642372,1,2,1521.5
kBouTCj9,NA,NA,kBouTCj9,2020-0188,2021-11-13,17:14:14,19:17:19,NA,incomplete,false,NA,true,7,24,NA,left,E5_Q3_ansR.png,E5_Q1_ansL.png,within,NA,NaN,NA,right,876,0,1,1592.9000000357628
kBouTCj9,NA,NA,kBouTCj9,2020-0188,2021-11-13,17:14:14,19:17:19,NA,incomplete,false,NA,true,7,25,NA,left,E27_Q8_ansL.png,E14_Q6_ansR.png,between,NA,NaN,NA,left,1115.0999999642372,1,1,1036.199999988079
kBouTCj9,NA,NA,kBouTCj9,2020-0188,2021-11-13,17:14:14,19:17:19,NA,incomplete,false,NA,true,7,26,NA,left,E27_Q6_ansR.png,E27_Q4_ansR.png,within,NA,NaN,NA,left,1107,1,1,1100
kBouTCj9,NA,NA,kBouTCj9,2020-0188,2021-11-13,17:14:14,19:17:19,NA,incomplete,false,true,NA,8,0,E6_Q1_ansL.png,left,NA,NA,NA,left,2306,true,NA,NA,NA,NA,NA
kBouTCj9,NA,NA,kBouTCj9,2020-0188,2021-11-13,17:14:14,19:17:19,NA,incomplete,false,true,NA,8,1,E6_Q3_ansR.png,right,NA,NA,NA,right,1236.39999997616,true,NA,NA,NA,NA,NA
kBouTCj9,NA,NA,kBouTCj9,2020-0188,2021-11-13,17:14:14,19:17:19,NA,incomplete,false,true,NA,8,2,E6_Q5_ansR.png,right,NA,NA,NA,right,1656.60000002384,true,NA,NA,NA,NA,NA
kBouTCj9,NA,NA,kBouTCj9,2020-0188,2021-11-13,17:14:14,19:17:19,NA,incomplete,false,true,NA,8,3,E6_Q8_ansL.png,left,NA,NA,NA,none,0,false,NA,NA,NA,NA,NA
kBouTCj9,NA,NA,kBouTCj9,2020-0188,2021-11-13,17:14:14,19:17:19,NA,incomplete,false,true,NA,8,4,E6_Q6_ansR.png,right,NA,NA,NA,right,2518.5,true,NA,NA,NA,NA,NA
kBouTCj9,NA,NA,kBouTCj9,2020-0188,2021-11-13,17:14:14,19:17:19,NA,incomplete,false,true,NA,8,5,E6_Q9_ansL.png,left,NA,NA,NA,left,2642.89999997616,true,NA,NA,NA,NA,NA
kBouTCj9,NA,NA,kBouTCj9,2020-0188,2021-11-13,17:14:14,19:17:19,NA,incomplete,false,true,NA,8,6,E6_Q2_ansL.png,left,NA,NA,NA,left,1583,true,NA,NA,NA,NA,NA
kBouTCj9,NA,NA,kBouTCj9,2020-0188,2021-11-13,17:14:14,19:17:19,NA,incomplete,false,true,NA,8,7,E6_Q10_ansL.png,left,NA,NA,NA,right,1570.69999998808,false,NA,NA,NA,NA,NA
kBouTCj9,NA,NA,kBouTCj9,2020-0188,2021-11-13,17:14:14,19:17:19,NA,incomplete,false,true,NA,8,8,E6_Q4_ansR.png,right,NA,NA,NA,right,1700.69999998808,true,NA,NA,NA,NA,NA
kBouTCj9,NA,NA,kBouTCj9,2020-0188,2021-11-13,17:14:14,19:17:19,NA,incomplete,false,true,NA,8,9,E6_Q7_ansL.png,left,NA,NA,NA,left,1577.69999998808,true,NA,NA,NA,NA,NA
kBouTCj9,NA,NA,kBouTCj9,2020-0188,2021-11-13,17:14:14,19:17:19,NA,incomplete,false,true,NA,8,10,E31_Q7_ansR.png,right,NA,NA,NA,right,1860,true,NA,NA,NA,NA,NA
kBouTCj9,NA,NA,kBouTCj9,2020-0188,2021-11-13,17:14:14,19:17:19,NA,incomplete,false,true,NA,8,11,E31_Q2_ansR.png,right,NA,NA,NA,right,1853.60000002384,true,NA,NA,NA,NA,NA
kBouTCj9,NA,NA,kBouTCj9,2020-0188,2021-11-13,17:14:14,19:17:19,NA,incomplete,false,true,NA,8,12,E31_Q3_ansL.png,left,NA,NA,NA,left,1292.60000002384,true,NA,NA,NA,NA,NA
kBouTCj9,NA,NA,kBouTCj9,2020-0188,2021-11-13,17:14:14,19:17:19,NA,incomplete,false,true,NA,8,13,E31_Q6_ansL.png,left,NA,NA,NA,left,1261.19999998808,true,NA,NA,NA,NA,NA
kBouTCj9,NA,NA,kBouTCj9,2020-0188,2021-11-13,17:14:14,19:17:19,NA,incomplete,false,true,NA,8,14,E31_Q8_ansR.png,right,NA,NA,NA,right,1746,true,NA,NA,NA,NA,NA
kBouTCj9,NA,NA,kBouTCj9,2020-0188,2021-11-13,17:14:14,19:17:19,NA,incomplete,false,true,NA,8,15,E31_Q5_ansL.png,left,NA,NA,NA,left,1168.89999997616,true,NA,NA,NA,NA,NA
kBouTCj9,NA,NA,kBouTCj9,2020-0188,2021-11-13,17:14:14,19:17:19,NA,incomplete,false,true,NA,8,16,E31_Q10_ansR.png,right,NA,NA,NA,right,991,true,NA,NA,NA,NA,NA
kBouTCj9,NA,NA,kBouTCj9,2020-0188,2021-11-13,17:14:14,19:17:19,NA,incomplete,false,true,NA,8,17,E31_Q1_ansR.png,right,NA,NA,NA,right,1106.30000001192,true,NA,NA,NA,NA,NA
kBouTCj9,NA,NA,kBouTCj9,2020-0188,2021-11-13,17:14:14,19:17:19,NA,incomplete,false,true,NA,8,18,E31_Q9_ansL.png,left,NA,NA,NA,left,1496.19999998808,true,NA,NA,NA,NA,NA
kBouTCj9,NA,NA,kBouTCj9,2020-0188,2021-11-13,17:14:14,19:17:19,NA,incomplete,false,true,NA,8,19,E31_Q4_ansL.png,left,NA,NA,NA,left,1026.30000001192,true,NA,NA,NA,NA,NA
kBouTCj9,NA,NA,kBouTCj9,2020-0188,2021-11-13,17:14:14,19:17:19,NA,incomplete,false,true,NA,8,20,E17_Q5_ansR.png,right,NA,NA,NA,right,1493.19999998808,true,NA,NA,NA,NA,NA
kBouTCj9,NA,NA,kBouTCj9,2020-0188,2021-11-13,17:14:14,19:17:19,NA,incomplete,false,true,NA,8,21,E17_Q10_ansL.png,left,NA,NA,NA,left,2116.69999998808,true,NA,NA,NA,NA,NA
kBouTCj9,NA,NA,kBouTCj9,2020-0188,2021-11-13,17:14:14,19:17:19,NA,incomplete,false,true,NA,8,22,E17_Q6_ansR.png,right,NA,NA,NA,right,2066.60000002384,true,NA,NA,NA,NA,NA
kBouTCj9,NA,NA,kBouTCj9,2020-0188,2021-11-13,17:14:14,19:17:19,NA,incomplete,false,true,NA,8,23,E17_Q9_ansR.png,right,NA,NA,NA,right,1201.69999998808,true,NA,NA,NA,NA,NA
kBouTCj9,NA,NA,kBouTCj9,2020-0188,2021-11-13,17:14:14,19:17:19,NA,incomplete,false,true,NA,8,24,E17_Q4_ansR.png,right,NA,NA,NA,right,1809,true,NA,NA,NA,NA,NA
kBouTCj9,NA,NA,kBouTCj9,2020-0188,2021-11-13,17:14:14,19:17:19,NA,incomplete,false,true,NA,8,25,E17_Q8_ansL.png,left,NA,NA,NA,left,1035.60000002384,true,NA,NA,NA,NA,NA
kBouTCj9,NA,NA,kBouTCj9,2020-0188,2021-11-13,17:14:14,19:17:19,NA,incomplete,false,true,NA,8,26,E17_Q3_ansR.png,right,NA,NA,NA,left,309.5,false,NA,NA,NA,NA,NA
kBouTCj9,NA,NA,kBouTCj9,2020-0188,2021-11-13,17:14:14,19:17:19,NA,incomplete,false,true,NA,8,27,E17_Q7_ansL.png,left,NA,NA,NA,left,305.300000011921,true,NA,NA,NA,NA,NA
kBouTCj9,NA,NA,kBouTCj9,2020-0188,2021-11-13,17:14:14,19:17:19,NA,incomplete,false,true,NA,8,28,E17_Q2_ansL.png,left,NA,NA,NA,left,109.899999976158,true,NA,NA,NA,NA,NA
kBouTCj9,NA,NA,kBouTCj9,2020-0188,2021-11-13,17:14:14,19:17:19,NA,incomplete,false,true,NA,8,29,E17_Q1_ansL.png,left,NA,NA,NA,left,51.8999999761581,true,NA,NA,NA,NA,NA
kBouTCj9,NA,NA,kBouTCj9,2020-0188,2021-11-13,17:14:14,19:17:19,NA,incomplete,false,NA,true,8,0,NA,left,E6_Q2_ansL.png,E6_Q7_ansL.png,within,NA,NaN,NA,right,1232.699999988079,0,1,2397.599999964237
kBouTCj9,NA,NA,kBouTCj9,2020-0188,2021-11-13,17:14:14,19:17:19,NA,incomplete,false,NA,true,8,1,NA,right,E31_Q1_ansR.png,E31_Q8_ansR.png,within,NA,NaN,NA,right,644.6999999880791,1,2,2876.800000011921
kBouTCj9,NA,NA,kBouTCj9,2020-0188,2021-11-13,17:14:14,19:17:19,NA,incomplete,false,NA,true,8,2,NA,right,E31_Q5_ansL.png,E31_Q3_ansL.png,within,NA,NaN,NA,right,732.6000000238419,1,1,1457.8999999761581
kBouTCj9,NA,NA,kBouTCj9,2020-0188,2021-11-13,17:14:14,19:17:19,NA,incomplete,false,NA,true,8,3,NA,right,E17_Q2_ansL.png,E17_Q8_ansL.png,within,NA,NaN,NA,left,801.9000000357628,0,1,2022.9000000357628
kBouTCj9,NA,NA,kBouTCj9,2020-0188,2021-11-13,17:14:14,19:17:19,NA,incomplete,false,NA,true,8,4,NA,left,E31_Q7_ansR.png,E31_Q6_ansL.png,within,NA,NaN,NA,right,732.6000000238419,0,2,1832.5
kBouTCj9,NA,NA,kBouTCj9,2020-0188,2021-11-13,17:14:14,19:17:19,NA,incomplete,false,NA,true,8,5,NA,right,E31_Q10_ansR.png,E31_Q6_ansL.png,within,NA,NaN,NA,right,587.7999999523163,1,2,1212.5
kBouTCj9,NA,NA,kBouTCj9,2020-0188,2021-11-13,17:14:14,19:17:19,NA,incomplete,false,NA,true,8,6,NA,right,E17_Q9_ansR.png,E17_Q5_ansR.png,within,NA,NaN,NA,right,2288.100000023842,1,1,1402.1000000238419
kBouTCj9,NA,NA,kBouTCj9,2020-0188,2021-11-13,17:14:14,19:17:19,NA,incomplete,false,NA,true,8,7,NA,right,E6_Q10_ansL.png,E6_Q6_ansR.png,within,NA,NaN,NA,right,796,1,1,1306.5999999642372
kBouTCj9,NA,NA,kBouTCj9,2020-0188,2021-11-13,17:14:14,19:17:19,NA,incomplete,false,NA,true,8,8,NA,left,E6_Q7_ansL.png,E31_Q3_ansL.png,between,NA,NaN,NA,right,831.3000000119209,0,1,1106.6000000238419
kBouTCj9,NA,NA,kBouTCj9,2020-0188,2021-11-13,17:14:14,19:17:19,NA,incomplete,false,NA,true,8,9,NA,left,E17_Q10_ansL.png,E17_Q4_ansR.png,within,NA,NaN,NA,left,597.0999999642372,1,1,2430.599999964237
kBouTCj9,NA,NA,kBouTCj9,2020-0188,2021-11-13,17:14:14,19:17:19,NA,incomplete,false,NA,true,8,10,NA,right,E31_Q7_ansR.png,E6_Q10_ansL.png,between,NA,NaN,NA,right,1084.3999999761581,1,1,1051.800000011921
kBouTCj9,NA,NA,kBouTCj9,2020-0188,2021-11-13,17:14:14,19:17:19,NA,incomplete,false,NA,true,8,11,NA,right,E6_Q2_ansL.png,E6_Q8_ansL.png,within,NA,NaN,NA,right,1342.699999988079,1,1,1242.300000011921
kBouTCj9,NA,NA,kBouTCj9,2020-0188,2021-11-13,17:14:14,19:17:19,NA,incomplete,false,NA,true,8,12,NA,left,E17_Q9_ansR.png,E17_Q3_ansR.png,within,NA,NaN,NA,right,724.5,0,1,1049.199999988079
kBouTCj9,NA,NA,kBouTCj9,2020-0188,2021-11-13,17:14:14,19:17:19,NA,incomplete,false,NA,true,8,13,NA,right,E31_Q2_ansR.png,E6_Q4_ansR.png,between,NA,NaN,NA,right,748.1999999880791,1,1,2063.2999999523163
kBouTCj9,NA,NA,kBouTCj9,2020-0188,2021-11-13,17:14:14,19:17:19,NA,incomplete,false,NA,true,8,14,NA,right,E31_Q4_ansL.png,E31_Q10_ansR.png,within,NA,NaN,NA,right,1202.699999988079,1,2,1792.3999999761581
kBouTCj9,NA,NA,kBouTCj9,2020-0188,2021-11-13,17:14:14,19:17:19,NA,incomplete,false,NA,true,8,15,NA,left,E31_Q2_ansR.png,E31_Q8_ansR.png,within,NA,NaN,NA,right,1098.300000011921,0,1,907.5
kBouTCj9,NA,NA,kBouTCj9,2020-0188,2021-11-13,17:14:14,19:17:19,NA,incomplete,false,NA,true,8,16,NA,right,E6_Q9_ansL.png,E6_Q5_ansR.png,within,NA,NaN,NA,right,828.1999999880791,1,1,1042.800000011921
kBouTCj9,NA,NA,kBouTCj9,2020-0188,2021-11-13,17:14:14,19:17:19,NA,incomplete,false,NA,true,8,17,NA,left,E31_Q1_ansR.png,E17_Q5_ansR.png,between,NA,NaN,NA,right,1114.6000000238419,0,1,1194.5
kBouTCj9,NA,NA,kBouTCj9,2020-0188,2021-11-13,17:14:14,19:17:19,NA,incomplete,false,NA,true,8,18,NA,right,E17_Q7_ansL.png,E17_Q4_ansR.png,within,NA,NaN,NA,right,2550.399999976158,1,1,1162.5
kBouTCj9,NA,NA,kBouTCj9,2020-0188,2021-11-13,17:14:14,19:17:19,NA,incomplete,false,NA,true,8,19,NA,right,E17_Q10_ansL.png,E31_Q9_ansL.png,between,NA,NaN,NA,right,1122.6000000238419,1,2,1280.300000011921
kBouTCj9,NA,NA,kBouTCj9,2020-0188,2021-11-13,17:14:14,19:17:19,NA,incomplete,false,NA,true,8,20,NA,left,E31_Q5_ansL.png,E31_Q9_ansL.png,within,NA,NaN,NA,right,1632.6000000238419,0,1,1513.699999988079
kBouTCj9,NA,NA,kBouTCj9,2020-0188,2021-11-13,17:14:14,19:17:19,NA,incomplete,false,NA,true,8,21,NA,left,E31_Q4_ansL.png,E17_Q6_ansR.png,between,NA,NaN,NA,right,914.3999999761581,0,1,1138.800000011921
kBouTCj9,NA,NA,kBouTCj9,2020-0188,2021-11-13,17:14:14,19:17:19,NA,incomplete,false,NA,true,8,22,NA,left,E17_Q3_ansR.png,E17_Q1_ansL.png,within,NA,NaN,NA,right,850.3999999761581,0,1,1018.8000000119209
kBouTCj9,NA,NA,kBouTCj9,2020-0188,2021-11-13,17:14:14,19:17:19,NA,incomplete,false,NA,true,8,23,NA,left,E6_Q1_ansL.png,E6_Q8_ansL.png,within,NA,NaN,NA,right,947.2999999523163,0,1,1138.9000000357628
kBouTCj9,NA,NA,kBouTCj9,2020-0188,2021-11-13,17:14:14,19:17:19,NA,incomplete,false,NA,true,8,24,NA,right,E6_Q4_ansR.png,E6_Q9_ansL.png,within,NA,NaN,NA,right,835.8999999761581,1,2,1346.300000011921
kBouTCj9,NA,NA,kBouTCj9,2020-0188,2021-11-13,17:14:14,19:17:19,NA,incomplete,false,NA,true,8,25,NA,left,E6_Q3_ansR.png,E6_Q6_ansR.png,within,NA,NaN,NA,right,581,0,2,1750
kBouTCj9,NA,NA,kBouTCj9,2020-0188,2021-11-13,17:14:14,19:17:19,NA,incomplete,false,NA,true,8,26,NA,right,E17_Q8_ansL.png,E17_Q6_ansR.png,within,NA,NaN,NA,right,694.5,1,2,843
kBouTCj9,NA,NA,kBouTCj9,2020-0188,2021-11-13,17:14:14,19:17:19,NA,incomplete,false,true,NA,9,0,E3_Q3_ansR.png,right,NA,NA,NA,right,3410.69999998808,true,NA,NA,NA,NA,NA
kBouTCj9,NA,NA,kBouTCj9,2020-0188,2021-11-13,17:14:14,19:17:19,NA,incomplete,false,true,NA,9,1,E3_Q7_ansL.png,left,NA,NA,NA,left,1458.09999996424,true,NA,NA,NA,NA,NA
kBouTCj9,NA,NA,kBouTCj9,2020-0188,2021-11-13,17:14:14,19:17:19,NA,incomplete,false,true,NA,9,2,E3_Q9_ansL.png,left,NA,NA,NA,left,1886.39999997616,true,NA,NA,NA,NA,NA
kBouTCj9,NA,NA,kBouTCj9,2020-0188,2021-11-13,17:14:14,19:17:19,NA,incomplete,false,true,NA,9,3,E3_Q10_ansR.png,right,NA,NA,NA,right,1549,true,NA,NA,NA,NA,NA
kBouTCj9,NA,NA,kBouTCj9,2020-0188,2021-11-13,17:14:14,19:17:19,NA,incomplete,false,true,NA,9,4,E3_Q8_ansL.png,left,NA,NA,NA,left,2320.69999998808,true,NA,NA,NA,NA,NA
kBouTCj9,NA,NA,kBouTCj9,2020-0188,2021-11-13,17:14:14,19:17:19,NA,incomplete,false,true,NA,9,5,E3_Q1_ansR.png,right,NA,NA,NA,right,2599.69999998808,true,NA,NA,NA,NA,NA
kBouTCj9,NA,NA,kBouTCj9,2020-0188,2021-11-13,17:14:14,19:17:19,NA,incomplete,false,true,NA,9,6,E3_Q6_ansR.png,right,NA,NA,NA,right,2716.59999996424,true,NA,NA,NA,NA,NA
kBouTCj9,NA,NA,kBouTCj9,2020-0188,2021-11-13,17:14:14,19:17:19,NA,incomplete,false,true,NA,9,7,E3_Q2_ansL.png,left,NA,NA,NA,left,2182.30000001192,true,NA,NA,NA,NA,NA
kBouTCj9,NA,NA,kBouTCj9,2020-0188,2021-11-13,17:14:14,19:17:19,NA,incomplete,false,true,NA,9,8,E3_Q5_ansR.png,right,NA,NA,NA,right,1812.59999996424,true,NA,NA,NA,NA,NA
kBouTCj9,NA,NA,kBouTCj9,2020-0188,2021-11-13,17:14:14,19:17:19,NA,incomplete,false,true,NA,9,9,E3_Q4_ansL.png,left,NA,NA,NA,left,1972,true,NA,NA,NA,NA,NA
kBouTCj9,NA,NA,kBouTCj9,2020-0188,2021-11-13,17:14:14,19:17:19,NA,incomplete,false,true,NA,9,10,E15_Q2_ansL.png,left,NA,NA,NA,none,0,false,NA,NA,NA,NA,NA
kBouTCj9,NA,NA,kBouTCj9,2020-0188,2021-11-13,17:14:14,19:17:19,NA,incomplete,false,true,NA,9,11,E15_Q6_ansR.png,right,NA,NA,NA,left,2177.19999998808,false,NA,NA,NA,NA,NA
kBouTCj9,NA,NA,kBouTCj9,2020-0188,2021-11-13,17:14:14,19:17:19,NA,incomplete,false,true,NA,9,12,E15_Q7_ansL.png,left,NA,NA,NA,none,0,false,NA,NA,NA,NA,NA
kBouTCj9,NA,NA,kBouTCj9,2020-0188,2021-11-13,17:14:14,19:17:19,NA,incomplete,false,true,NA,9,13,E15_Q9_ansR.png,right,NA,NA,NA,none,0,false,NA,NA,NA,NA,NA
kBouTCj9,NA,NA,kBouTCj9,2020-0188,2021-11-13,17:14:14,19:17:19,NA,incomplete,false,true,NA,9,14,E15_Q4_ansR.png,right,NA,NA,NA,none,0,false,NA,NA,NA,NA,NA
kBouTCj9,NA,NA,kBouTCj9,2020-0188,2021-11-13,17:14:14,19:17:19,NA,incomplete,false,true,NA,9,15,E15_Q3_ansR.png,right,NA,NA,NA,none,0,false,NA,NA,NA,NA,NA
kBouTCj9,NA,NA,kBouTCj9,2020-0188,2021-11-13,17:14:14,19:17:19,NA,incomplete,false,true,NA,9,16,E15_Q5_ansR.png,right,NA,NA,NA,none,0,false,NA,NA,NA,NA,NA
kBouTCj9,NA,NA,kBouTCj9,2020-0188,2021-11-13,17:14:14,19:17:19,NA,incomplete,false,true,NA,9,17,E15_Q10_ansL.png,left,NA,NA,NA,left,2552,true,NA,NA,NA,NA,NA
kBouTCj9,NA,NA,kBouTCj9,2020-0188,2021-11-13,17:14:14,19:17:19,NA,incomplete,false,true,NA,9,18,E15_Q8_ansL.png,left,NA,NA,NA,none,0,false,NA,NA,NA,NA,NA
kBouTCj9,NA,NA,kBouTCj9,2020-0188,2021-11-13,17:14:14,19:17:19,NA,incomplete,false,true,NA,9,19,E15_Q1_ansL.png,left,NA,NA,NA,left,2743.69999998808,true,NA,NA,NA,NA,NA
kBouTCj9,NA,NA,kBouTCj9,2020-0188,2021-11-13,17:14:14,19:17:19,NA,incomplete,false,true,NA,9,20,E33_Q10_ansL.png,left,NA,NA,NA,none,0,false,NA,NA,NA,NA,NA
kBouTCj9,NA,NA,kBouTCj9,2020-0188,2021-11-13,17:14:14,19:17:19,NA,incomplete,false,true,NA,9,21,E33_Q9_ansR.png,right,NA,NA,NA,none,0,false,NA,NA,NA,NA,NA
kBouTCj9,NA,NA,kBouTCj9,2020-0188,2021-11-13,17:14:14,19:17:19,NA,incomplete,false,true,NA,9,22,E33_Q6_ansR.png,right,NA,NA,NA,none,0,false,NA,NA,NA,NA,NA
kBouTCj9,NA,NA,kBouTCj9,2020-0188,2021-11-13,17:14:14,19:17:19,NA,incomplete,false,true,NA,9,23,E33_Q2_ansL.png,left,NA,NA,NA,none,0,false,NA,NA,NA,NA,NA
kBouTCj9,NA,NA,kBouTCj9,2020-0188,2021-11-13,17:14:14,19:17:19,NA,incomplete,false,true,NA,9,24,E33_Q8_ansL.png,left,NA,NA,NA,none,0,false,NA,NA,NA,NA,NA
kBouTCj9,NA,NA,kBouTCj9,2020-0188,2021-11-13,17:14:14,19:17:19,NA,incomplete,false,true,NA,9,25,E33_Q4_ansR.png,right,NA,NA,NA,none,0,false,NA,NA,NA,NA,NA
kBouTCj9,NA,NA,kBouTCj9,2020-0188,2021-11-13,17:14:14,19:17:19,NA,incomplete,false,true,NA,9,26,E33_Q1_ansL.png,left,NA,NA,NA,left,3054.69999998808,true,NA,NA,NA,NA,NA
kBouTCj9,NA,NA,kBouTCj9,2020-0188,2021-11-13,17:14:14,19:17:19,NA,incomplete,false,true,NA,9,27,E33_Q3_ansR.png,right,NA,NA,NA,none,0,false,NA,NA,NA,NA,NA
kBouTCj9,NA,NA,kBouTCj9,2020-0188,2021-11-13,17:14:14,19:17:19,NA,incomplete,false,true,NA,9,28,E33_Q5_ansR.png,right,NA,NA,NA,none,0,false,NA,NA,NA,NA,NA
kBouTCj9,NA,NA,kBouTCj9,2020-0188,2021-11-13,17:14:14,19:17:19,NA,incomplete,false,true,NA,9,29,E33_Q7_ansL.png,left,NA,NA,NA,none,0,false,NA,NA,NA,NA,NA
kBouTCj9,NA,NA,kBouTCj9,2020-0188,2021-11-13,17:14:14,19:17:19,NA,incomplete,false,NA,true,9,0,NA,left,E15_Q4_ansR.png,E15_Q10_ansL.png,within,NA,NaN,NA,right,1264,0,1,2792
kBouTCj9,NA,NA,kBouTCj9,2020-0188,2021-11-13,17:14:14,19:17:19,NA,incomplete,false,NA,true,9,1,NA,right,E15_Q9_ansR.png,E15_Q2_ansL.png,within,NA,NaN,NA,right,868.8999999761581,1,1,1185.4000000357628
kBouTCj9,NA,NA,kBouTCj9,2020-0188,2021-11-13,17:14:14,19:17:19,NA,incomplete,false,NA,true,9,2,NA,left,E33_Q8_ansL.png,E33_Q3_ansR.png,within,NA,NaN,NA,right,619.1999999880791,0,2,1557.8999999761581
kBouTCj9,NA,NA,kBouTCj9,2020-0188,2021-11-13,17:14:14,19:17:19,NA,incomplete,false,NA,true,9,3,NA,right,E33_Q5_ansR.png,E33_Q4_ansR.png,within,NA,NaN,NA,right,1974.7000000476837,1,1,1552.300000011921
kBouTCj9,NA,NA,kBouTCj9,2020-0188,2021-11-13,17:14:14,19:17:19,NA,incomplete,false,NA,true,9,4,NA,right,E3_Q5_ansR.png,E3_Q1_ansR.png,within,NA,NaN,NA,right,817.2000000476837,1,2,1274.2000000476837
kBouTCj9,NA,NA,kBouTCj9,2020-0188,2021-11-13,17:14:14,19:17:19,NA,incomplete,false,NA,true,9,5,NA,left,E15_Q8_ansL.png,E33_Q9_ansR.png,between,NA,NaN,NA,right,974.6000000238419,0,2,2677.899999976158
kBouTCj9,NA,NA,kBouTCj9,2020-0188,2021-11-13,17:14:14,19:17:19,NA,incomplete,false,NA,true,9,6,NA,left,E33_Q1_ansL.png,E33_Q7_ansL.png,within,NA,NaN,NA,right,1051.699999988079,0,1,5858.5
kBouTCj9,NA,NA,kBouTCj9,2020-0188,2021-11-13,17:14:14,19:17:19,NA,incomplete,false,NA,true,9,7,NA,right,E15_Q4_ansR.png,E15_Q6_ansR.png,within,NA,NaN,NA,right,803.8000000119209,1,1,1194.199999988079
kBouTCj9,NA,NA,kBouTCj9,2020-0188,2021-11-13,17:14:14,19:17:19,NA,incomplete,false,NA,true,9,8,NA,right,E3_Q1_ansR.png,E3_Q9_ansL.png,within,NA,NaN,NA,right,914.6999999880791,1,1,1783.300000011921
kBouTCj9,NA,NA,kBouTCj9,2020-0188,2021-11-13,17:14:14,19:17:19,NA,incomplete,false,NA,true,9,9,NA,left,E15_Q9_ansR.png,E15_Q5_ansR.png,within,NA,NaN,NA,right,810.7999999523163,0,1,3291.400000035763
kBouTCj9,NA,NA,kBouTCj9,2020-0188,2021-11-13,17:14:14,19:17:19,NA,incomplete,false,NA,true,9,10,NA,left,E3_Q10_ansR.png,E3_Q6_ansR.png,within,NA,NaN,NA,right,820.1999999880791,0,1,1140.1000000238419
kBouTCj9,NA,NA,kBouTCj9,2020-0188,2021-11-13,17:14:14,19:17:19,NA,incomplete,false,NA,true,9,11,NA,left,E15_Q5_ansR.png,E15_Q1_ansL.png,within,NA,NaN,NA,right,901.8000000119209,0,1,2320.699999988079
kBouTCj9,NA,NA,kBouTCj9,2020-0188,2021-11-13,17:14:14,19:17:19,NA,incomplete,false,NA,true,9,12,NA,right,E33_Q10_ansL.png,E15_Q10_ansL.png,between,NA,NaN,NA,right,1544.9000000357628,1,1,1457.5
kBouTCj9,NA,NA,kBouTCj9,2020-0188,2021-11-13,17:14:14,19:17:19,NA,incomplete,false,NA,true,9,13,NA,right,E33_Q8_ansL.png,E33_Q9_ansR.png,within,NA,NaN,NA,right,766.1999999880791,1,1,1527.2999999523163
kBouTCj9,NA,NA,kBouTCj9,2020-0188,2021-11-13,17:14:14,19:17:19,NA,incomplete,false,NA,true,9,14,NA,left,E33_Q6_ansR.png,E33_Q4_ansR.png,within,NA,NaN,NA,right,1274.6000000238419,0,1,1772.699999988079
kBouTCj9,NA,NA,kBouTCj9,2020-0188,2021-11-13,17:14:14,19:17:19,NA,incomplete,false,NA,true,9,15,NA,right,E3_Q10_ansR.png,E3_Q3_ansR.png,within,NA,NaN,NA,right,1210.6000000238419,1,1,1370.1000000238419
kBouTCj9,NA,NA,kBouTCj9,2020-0188,2021-11-13,17:14:14,19:17:19,NA,incomplete,false,NA,true,9,16,NA,left,E3_Q6_ansR.png,E3_Q4_ansL.png,within,NA,NaN,NA,right,1115,0,1,1407.7999999523163
