workerId,hitId,assignmentId,subject,studyid,exp_date,exp_start,exp_end,time_start,time_end,practice,encoding,memory,block,trial,stim,answer,left_image,right_image,condition,response,response_time,response_acc,order_response,order_response_time,order_acc,distance_response,distance_response_time
KYuhKx6Q,NA,NA,KYuhKx6Q,2020-0188,2021-09-22,10:30:12,11:52:41,NA,incomplete,true,true,NA,0,0,E32_Q9_ansR.png,right,NA,NA,NA,left,1853.5,false,NA,NA,NA,NA,NA
KYuhKx6Q,NA,NA,KYuhKx6Q,2020-0188,2021-09-22,10:30:12,11:52:41,NA,incomplete,true,true,NA,0,1,E32_Q4_ansR.png,right,NA,NA,NA,right,964.700000047684,true,NA,NA,NA,NA,NA
KYuhKx6Q,NA,NA,KYuhKx6Q,2020-0188,2021-09-22,10:30:12,11:52:41,NA,incomplete,true,true,NA,0,2,E32_Q2_ansL.png,left,NA,NA,NA,left,1475.59999990463,true,NA,NA,NA,NA,NA
KYuhKx6Q,NA,NA,KYuhKx6Q,2020-0188,2021-09-22,10:30:12,11:52:41,NA,incomplete,true,true,NA,0,3,E32_Q8_ansL.png,left,NA,NA,NA,left,1318.29999995232,true,NA,NA,NA,NA,NA
KYuhKx6Q,NA,NA,KYuhKx6Q,2020-0188,2021-09-22,10:30:12,11:52:41,NA,incomplete,true,true,NA,0,4,E32_Q3_ansR.png,right,NA,NA,NA,right,1696.19999980927,true,NA,NA,NA,NA,NA
KYuhKx6Q,NA,NA,KYuhKx6Q,2020-0188,2021-09-22,10:30:12,11:52:41,NA,incomplete,true,true,NA,0,5,E32_Q6_ansR.png,right,NA,NA,NA,right,1391.89999985695,true,NA,NA,NA,NA,NA
KYuhKx6Q,NA,NA,KYuhKx6Q,2020-0188,2021-09-22,10:30:12,11:52:41,NA,incomplete,true,true,NA,0,6,E32_Q5_ansR.png,right,NA,NA,NA,right,998.899999856949,true,NA,NA,NA,NA,NA
KYuhKx6Q,NA,NA,KYuhKx6Q,2020-0188,2021-09-22,10:30:12,11:52:41,NA,incomplete,true,true,NA,0,7,E32_Q7_ansL.png,left,NA,NA,NA,left,788.700000047684,true,NA,NA,NA,NA,NA
KYuhKx6Q,NA,NA,KYuhKx6Q,2020-0188,2021-09-22,10:30:12,11:52:41,NA,incomplete,true,true,NA,0,8,E32_Q1_ansL.png,left,NA,NA,NA,left,1123.89999985695,true,NA,NA,NA,NA,NA
KYuhKx6Q,NA,NA,KYuhKx6Q,2020-0188,2021-09-22,10:30:12,11:52:41,NA,incomplete,true,true,NA,0,9,E32_Q10_ansL.png,left,NA,NA,NA,left,1224.60000014305,true,NA,NA,NA,NA,NA
KYuhKx6Q,NA,NA,KYuhKx6Q,2020-0188,2021-09-22,10:30:12,11:52:41,NA,incomplete,true,true,NA,0,10,E2_Q8_ansR.png,right,NA,NA,NA,right,1457.70000004768,true,NA,NA,NA,NA,NA
KYuhKx6Q,NA,NA,KYuhKx6Q,2020-0188,2021-09-22,10:30:12,11:52:41,NA,incomplete,true,true,NA,0,11,E2_Q7_ansR.png,right,NA,NA,NA,right,1414.60000014305,true,NA,NA,NA,NA,NA
KYuhKx6Q,NA,NA,KYuhKx6Q,2020-0188,2021-09-22,10:30:12,11:52:41,NA,incomplete,true,true,NA,0,12,E2_Q10_ansL.png,left,NA,NA,NA,left,1227.40000009537,true,NA,NA,NA,NA,NA
KYuhKx6Q,NA,NA,KYuhKx6Q,2020-0188,2021-09-22,10:30:12,11:52:41,NA,incomplete,true,true,NA,0,13,E2_Q5_ansL.png,left,NA,NA,NA,left,971.200000047684,true,NA,NA,NA,NA,NA
KYuhKx6Q,NA,NA,KYuhKx6Q,2020-0188,2021-09-22,10:30:12,11:52:41,NA,incomplete,true,true,NA,0,14,E2_Q4_ansL.png,left,NA,NA,NA,left,930,true,NA,NA,NA,NA,NA
KYuhKx6Q,NA,NA,KYuhKx6Q,2020-0188,2021-09-22,10:30:12,11:52:41,NA,incomplete,true,true,NA,0,15,E2_Q3_ansR.png,right,NA,NA,NA,right,1251,true,NA,NA,NA,NA,NA
KYuhKx6Q,NA,NA,KYuhKx6Q,2020-0188,2021-09-22,10:30:12,11:52:41,NA,incomplete,true,true,NA,0,16,E2_Q1_ansL.png,left,NA,NA,NA,left,970.200000047684,true,NA,NA,NA,NA,NA
KYuhKx6Q,NA,NA,KYuhKx6Q,2020-0188,2021-09-22,10:30:12,11:52:41,NA,incomplete,true,true,NA,0,17,E2_Q9_ansL.png,left,NA,NA,NA,left,1202.90000009537,true,NA,NA,NA,NA,NA
KYuhKx6Q,NA,NA,KYuhKx6Q,2020-0188,2021-09-22,10:30:12,11:52:41,NA,incomplete,true,true,NA,0,18,E2_Q2_ansR.png,right,NA,NA,NA,right,1841.19999980927,true,NA,NA,NA,NA,NA
KYuhKx6Q,NA,NA,KYuhKx6Q,2020-0188,2021-09-22,10:30:12,11:52:41,NA,incomplete,true,true,NA,0,19,E2_Q6_ansL.png,left,NA,NA,NA,left,918.5,true,NA,NA,NA,NA,NA
KYuhKx6Q,NA,NA,KYuhKx6Q,2020-0188,2021-09-22,10:30:12,11:52:41,NA,incomplete,true,true,NA,0,20,E21_Q2_ansL.png,left,NA,NA,NA,left,1096.5,true,NA,NA,NA,NA,NA
KYuhKx6Q,NA,NA,KYuhKx6Q,2020-0188,2021-09-22,10:30:12,11:52:41,NA,incomplete,true,true,NA,0,21,E21_Q10_ansL.png,left,NA,NA,NA,left,1097.89999985695,true,NA,NA,NA,NA,NA
KYuhKx6Q,NA,NA,KYuhKx6Q,2020-0188,2021-09-22,10:30:12,11:52:41,NA,incomplete,true,true,NA,0,22,E21_Q6_ansR.png,right,NA,NA,NA,right,1005.70000004768,true,NA,NA,NA,NA,NA
KYuhKx6Q,NA,NA,KYuhKx6Q,2020-0188,2021-09-22,10:30:12,11:52:41,NA,incomplete,true,true,NA,0,23,E21_Q9_ansR.png,right,NA,NA,NA,right,1161.70000004768,true,NA,NA,NA,NA,NA
KYuhKx6Q,NA,NA,KYuhKx6Q,2020-0188,2021-09-22,10:30:12,11:52:41,NA,incomplete,true,true,NA,0,24,E21_Q4_ansR.png,right,NA,NA,NA,right,1068.09999990463,true,NA,NA,NA,NA,NA
KYuhKx6Q,NA,NA,KYuhKx6Q,2020-0188,2021-09-22,10:30:12,11:52:41,NA,incomplete,true,true,NA,0,25,E21_Q1_ansL.png,left,NA,NA,NA,left,1323.20000004768,true,NA,NA,NA,NA,NA
KYuhKx6Q,NA,NA,KYuhKx6Q,2020-0188,2021-09-22,10:30:12,11:52:41,NA,incomplete,true,true,NA,0,26,E21_Q8_ansL.png,left,NA,NA,NA,left,2034.5,true,NA,NA,NA,NA,NA
KYuhKx6Q,NA,NA,KYuhKx6Q,2020-0188,2021-09-22,10:30:12,11:52:41,NA,incomplete,true,true,NA,0,27,E21_Q3_ansR.png,right,NA,NA,NA,right,1453.70000004768,true,NA,NA,NA,NA,NA
KYuhKx6Q,NA,NA,KYuhKx6Q,2020-0188,2021-09-22,10:30:12,11:52:41,NA,incomplete,true,true,NA,0,28,E21_Q5_ansR.png,right,NA,NA,NA,right,2108.60000014305,true,NA,NA,NA,NA,NA
KYuhKx6Q,NA,NA,KYuhKx6Q,2020-0188,2021-09-22,10:30:12,11:52:41,NA,incomplete,true,true,NA,0,29,E21_Q7_ansL.png,left,NA,NA,NA,left,1694.5,true,NA,NA,NA,NA,NA
KYuhKx6Q,NA,NA,KYuhKx6Q,2020-0188,2021-09-22,10:30:12,11:52:41,NA,incomplete,true,NA,true,0,0,NA,right,E32_Q1_ansL.png,E32_Q6_ansR.png,within,NA,NaN,NA,right,7530.600000143051,1,0,2670.0999999046326
KYuhKx6Q,NA,NA,KYuhKx6Q,2020-0188,2021-09-22,10:30:12,11:52:41,NA,incomplete,true,NA,true,0,1,NA,right,E2_Q7_ansR.png,E32_Q1_ansL.png,between,NA,NaN,NA,right,2429.0999999046326,1,1,3360.899999856949
KYuhKx6Q,NA,NA,KYuhKx6Q,2020-0188,2021-09-22,10:30:12,11:52:41,NA,incomplete,true,NA,true,0,2,NA,right,E21_Q3_ansR.png,E21_Q4_ansR.png,within,NA,NaN,NA,left,4248.799999952316,0,0,1712.6000001430511
KYuhKx6Q,NA,NA,KYuhKx6Q,2020-0188,2021-09-22,10:30:12,11:52:41,NA,incomplete,true,NA,true,0,3,NA,right,E32_Q10_ansL.png,E32_Q5_ansR.png,within,NA,NaN,NA,right,3935.4000000953674,1,0,1335.0999999046326
KYuhKx6Q,NA,NA,KYuhKx6Q,2020-0188,2021-09-22,10:30:12,11:52:41,NA,incomplete,true,NA,true,0,4,NA,left,E21_Q1_ansL.png,E21_Q5_ansR.png,within,NA,NaN,NA,right,5391.699999809265,0,0,2105.4000000953674
KYuhKx6Q,NA,NA,KYuhKx6Q,2020-0188,2021-09-22,10:30:12,11:52:41,NA,incomplete,true,NA,true,0,5,NA,left,E2_Q3_ansR.png,E2_Q2_ansR.png,within,NA,NaN,NA,left,4615.100000143051,1,0,2873.7000000476837
KYuhKx6Q,NA,NA,KYuhKx6Q,2020-0188,2021-09-22,10:30:12,11:52:41,NA,incomplete,true,NA,true,0,6,NA,right,E32_Q8_ansL.png,E32_Q9_ansR.png,within,NA,NaN,NA,left,2839.199999809265,0,0,2054.399999856949
KYuhKx6Q,NA,NA,KYuhKx6Q,2020-0188,2021-09-22,10:30:12,11:52:41,NA,incomplete,true,NA,true,0,7,NA,left,E32_Q2_ansL.png,E32_Q6_ansR.png,within,NA,NaN,NA,left,2644.9000000953674,1,0,2630.5
KYuhKx6Q,NA,NA,KYuhKx6Q,2020-0188,2021-09-22,10:30:12,11:52:41,NA,incomplete,true,NA,true,0,8,NA,right,E32_Q5_ansR.png,E32_Q8_ansL.png,within,NA,NaN,NA,right,3329.7999999523163,1,0,1258.0999999046326
KYuhKx6Q,NA,NA,KYuhKx6Q,2020-0188,2021-09-22,10:30:12,11:52:41,NA,incomplete,true,NA,true,0,9,NA,right,E21_Q9_ansR.png,E21_Q2_ansL.png,within,NA,NaN,NA,left,3460.5,0,0,2298
KYuhKx6Q,NA,NA,KYuhKx6Q,2020-0188,2021-09-22,10:30:12,11:52:41,NA,incomplete,true,NA,true,0,10,NA,right,E32_Q3_ansR.png,E32_Q4_ansR.png,within,NA,NaN,NA,right,3333.5,1,0,3045.2999999523163
KYuhKx6Q,NA,NA,KYuhKx6Q,2020-0188,2021-09-22,10:30:12,11:52:41,NA,incomplete,true,NA,true,0,11,NA,right,E2_Q10_ansL.png,E32_Q10_ansL.png,between,NA,NaN,NA,right,3829.800000190735,1,1,1863.3999998569489
KYuhKx6Q,NA,NA,KYuhKx6Q,2020-0188,2021-09-22,10:30:12,11:52:41,NA,incomplete,true,NA,true,0,12,NA,left,E21_Q8_ansL.png,E21_Q7_ansL.png,within,NA,NaN,NA,right,3290.699999809265,0,1,4537.799999952316
KYuhKx6Q,NA,NA,KYuhKx6Q,2020-0188,2021-09-22,10:30:12,11:52:41,NA,incomplete,true,NA,true,0,13,NA,left,E32_Q3_ansR.png,E32_Q7_ansL.png,within,NA,NaN,NA,left,5644.800000190735,1,0,1627.5999999046326
KYuhKx6Q,NA,NA,KYuhKx6Q,2020-0188,2021-09-22,10:30:12,11:52:41,NA,incomplete,true,NA,true,0,14,NA,left,E2_Q1_ansL.png,E2_Q6_ansL.png,within,NA,NaN,NA,right,3515.5999999046326,0,1,1458.4000000953674
KYuhKx6Q,NA,NA,KYuhKx6Q,2020-0188,2021-09-22,10:30:12,11:52:41,NA,incomplete,true,NA,true,0,15,NA,left,E2_Q10_ansL.png,E2_Q3_ansR.png,within,NA,NaN,NA,right,2347.0999999046326,0,1,1418.7999999523163
KYuhKx6Q,NA,NA,KYuhKx6Q,2020-0188,2021-09-22,10:30:12,11:52:41,NA,incomplete,true,NA,true,0,16,NA,left,E32_Q7_ansL.png,E2_Q8_ansR.png,between,NA,NaN,NA,left,2761.4000000953674,1,2,3836.9000000953674
KYuhKx6Q,NA,NA,KYuhKx6Q,2020-0188,2021-09-22,10:30:12,11:52:41,NA,incomplete,true,NA,true,0,17,NA,right,E21_Q8_ansL.png,E21_Q9_ansR.png,within,NA,NaN,NA,right,3719.4000000953674,1,0,2432.7000000476837
KYuhKx6Q,NA,NA,KYuhKx6Q,2020-0188,2021-09-22,10:30:12,11:52:41,NA,incomplete,true,NA,true,0,18,NA,right,E2_Q1_ansL.png,E2_Q5_ansL.png,within,NA,NaN,NA,right,2196.399999856949,1,1,2238.899999856949
KYuhKx6Q,NA,NA,KYuhKx6Q,2020-0188,2021-09-22,10:30:12,11:52:41,NA,incomplete,true,NA,true,0,19,NA,right,E21_Q1_ansL.png,E21_Q6_ansR.png,within,NA,NaN,NA,left,4754.600000143051,0,1,2456
KYuhKx6Q,NA,NA,KYuhKx6Q,2020-0188,2021-09-22,10:30:12,11:52:41,NA,incomplete,true,NA,true,0,20,NA,right,E2_Q4_ansL.png,E2_Q7_ansR.png,within,NA,NaN,NA,left,19405.400000095367,0,1,2115
KYuhKx6Q,NA,NA,KYuhKx6Q,2020-0188,2021-09-22,10:30:12,11:52:41,NA,incomplete,true,NA,true,0,21,NA,right,E21_Q4_ansR.png,E21_Q10_ansL.png,within,NA,NaN,NA,right,22543.700000047684,1,1,2102.4000000953674
KYuhKx6Q,NA,NA,KYuhKx6Q,2020-0188,2021-09-22,10:30:12,11:52:41,NA,incomplete,true,NA,true,0,22,NA,right,E21_Q6_ansR.png,E2_Q6_ansL.png,between,NA,NaN,NA,right,5093,1,2,3628.600000143051
KYuhKx6Q,NA,NA,KYuhKx6Q,2020-0188,2021-09-22,10:30:12,11:52:41,NA,incomplete,true,NA,true,0,23,NA,left,E2_Q2_ansR.png,E21_Q10_ansL.png,between,NA,NaN,NA,left,3622.7000000476837,1,2,1622.4000000953674
KYuhKx6Q,NA,NA,KYuhKx6Q,2020-0188,2021-09-22,10:30:12,11:52:41,NA,incomplete,true,NA,true,0,24,NA,right,E21_Q2_ansL.png,E2_Q9_ansL.png,between,NA,NaN,NA,right,2480.600000143051,1,2,2037.5
KYuhKx6Q,NA,NA,KYuhKx6Q,2020-0188,2021-09-22,10:30:12,11:52:41,NA,incomplete,true,NA,true,0,25,NA,right,E2_Q9_ansL.png,E2_Q4_ansL.png,within,NA,NaN,NA,right,2162.2999999523163,1,1,1415.3999998569489
KYuhKx6Q,NA,NA,KYuhKx6Q,2020-0188,2021-09-22,10:30:12,11:52:41,NA,incomplete,true,NA,true,0,26,NA,left,E2_Q8_ansR.png,E2_Q5_ansL.png,within,NA,NaN,NA,left,5156.899999856949,1,1,3258.100000143051
KYuhKx6Q,NA,NA,KYuhKx6Q,2020-0188,2021-09-22,10:30:12,11:52:41,NA,incomplete,false,true,NA,1,0,E23_Q5_ansR.png,right,NA,NA,NA,right,1451.60000014305,true,NA,NA,NA,NA,NA
KYuhKx6Q,NA,NA,KYuhKx6Q,2020-0188,2021-09-22,10:30:12,11:52:41,NA,incomplete,false,true,NA,1,1,E23_Q7_ansL.png,left,NA,NA,NA,left,1553.09999990463,true,NA,NA,NA,NA,NA
KYuhKx6Q,NA,NA,KYuhKx6Q,2020-0188,2021-09-22,10:30:12,11:52:41,NA,incomplete,false,true,NA,1,2,E23_Q2_ansL.png,left,NA,NA,NA,left,1772.60000014305,true,NA,NA,NA,NA,NA
KYuhKx6Q,NA,NA,KYuhKx6Q,2020-0188,2021-09-22,10:30:12,11:52:41,NA,incomplete,false,true,NA,1,3,E23_Q8_ansL.png,left,NA,NA,NA,left,1432.40000009537,true,NA,NA,NA,NA,NA
KYuhKx6Q,NA,NA,KYuhKx6Q,2020-0188,2021-09-22,10:30:12,11:52:41,NA,incomplete,false,true,NA,1,4,E23_Q4_ansR.png,right,NA,NA,NA,right,1302.39999985695,true,NA,NA,NA,NA,NA
KYuhKx6Q,NA,NA,KYuhKx6Q,2020-0188,2021-09-22,10:30:12,11:52:41,NA,incomplete,false,true,NA,1,5,E23_Q10_ansL.png,left,NA,NA,NA,left,1164.90000009537,true,NA,NA,NA,NA,NA
KYuhKx6Q,NA,NA,KYuhKx6Q,2020-0188,2021-09-22,10:30:12,11:52:41,NA,incomplete,false,true,NA,1,6,E23_Q1_ansL.png,left,NA,NA,NA,left,1222.40000009537,true,NA,NA,NA,NA,NA
KYuhKx6Q,NA,NA,KYuhKx6Q,2020-0188,2021-09-22,10:30:12,11:52:41,NA,incomplete,false,true,NA,1,7,E23_Q3_ansR.png,right,NA,NA,NA,right,1149.29999995232,true,NA,NA,NA,NA,NA
KYuhKx6Q,NA,NA,KYuhKx6Q,2020-0188,2021-09-22,10:30:12,11:52:41,NA,incomplete,false,true,NA,1,8,E23_Q9_ansR.png,right,NA,NA,NA,right,1695.79999995232,true,NA,NA,NA,NA,NA
KYuhKx6Q,NA,NA,KYuhKx6Q,2020-0188,2021-09-22,10:30:12,11:52:41,NA,incomplete,false,true,NA,1,9,E23_Q6_ansR.png,right,NA,NA,NA,right,1708.79999995232,true,NA,NA,NA,NA,NA
KYuhKx6Q,NA,NA,KYuhKx6Q,2020-0188,2021-09-22,10:30:12,11:52:41,NA,incomplete,false,true,NA,1,10,E11_Q10_ansR.png,right,NA,NA,NA,right,2023.29999995232,true,NA,NA,NA,NA,NA
KYuhKx6Q,NA,NA,KYuhKx6Q,2020-0188,2021-09-22,10:30:12,11:52:41,NA,incomplete,false,true,NA,1,11,E11_Q1_ansR.png,right,NA,NA,NA,right,1438.20000004768,true,NA,NA,NA,NA,NA
KYuhKx6Q,NA,NA,KYuhKx6Q,2020-0188,2021-09-22,10:30:12,11:52:41,NA,incomplete,false,true,NA,1,12,E11_Q5_ansL.png,left,NA,NA,NA,left,1183.79999995232,true,NA,NA,NA,NA,NA
KYuhKx6Q,NA,NA,KYuhKx6Q,2020-0188,2021-09-22,10:30:12,11:52:41,NA,incomplete,false,true,NA,1,13,E11_Q9_ansL.png,left,NA,NA,NA,left,1306,true,NA,NA,NA,NA,NA
KYuhKx6Q,NA,NA,KYuhKx6Q,2020-0188,2021-09-22,10:30:12,11:52:41,NA,incomplete,false,true,NA,1,14,E11_Q4_ansL.png,left,NA,NA,NA,left,1180.29999995232,true,NA,NA,NA,NA,NA
KYuhKx6Q,NA,NA,KYuhKx6Q,2020-0188,2021-09-22,10:30:12,11:52:41,NA,incomplete,false,true,NA,1,15,E11_Q2_ansR.png,right,NA,NA,NA,right,1300.19999980927,true,NA,NA,NA,NA,NA
KYuhKx6Q,NA,NA,KYuhKx6Q,2020-0188,2021-09-22,10:30:12,11:52:41,NA,incomplete,false,true,NA,1,16,E11_Q6_ansL.png,left,NA,NA,NA,left,989.299999952316,true,NA,NA,NA,NA,NA
KYuhKx6Q,NA,NA,KYuhKx6Q,2020-0188,2021-09-22,10:30:12,11:52:41,NA,incomplete,false,true,NA,1,17,E11_Q8_ansR.png,right,NA,NA,NA,right,1423.5,true,NA,NA,NA,NA,NA
KYuhKx6Q,NA,NA,KYuhKx6Q,2020-0188,2021-09-22,10:30:12,11:52:41,NA,incomplete,false,true,NA,1,18,E11_Q7_ansR.png,right,NA,NA,NA,right,1279.79999995232,true,NA,NA,NA,NA,NA
KYuhKx6Q,NA,NA,KYuhKx6Q,2020-0188,2021-09-22,10:30:12,11:52:41,NA,incomplete,false,true,NA,1,19,E11_Q3_ansL.png,left,NA,NA,NA,left,1551.5,true,NA,NA,NA,NA,NA
KYuhKx6Q,NA,NA,KYuhKx6Q,2020-0188,2021-09-22,10:30:12,11:52:41,NA,incomplete,false,true,NA,1,20,E19_Q4_ansR.png,right,NA,NA,NA,right,1303.20000004768,true,NA,NA,NA,NA,NA
KYuhKx6Q,NA,NA,KYuhKx6Q,2020-0188,2021-09-22,10:30:12,11:52:41,NA,incomplete,false,true,NA,1,21,E19_Q5_ansR.png,right,NA,NA,NA,right,1657.59999990463,true,NA,NA,NA,NA,NA
KYuhKx6Q,NA,NA,KYuhKx6Q,2020-0188,2021-09-22,10:30:12,11:52:41,NA,incomplete,false,true,NA,1,22,E19_Q7_ansL.png,left,NA,NA,NA,left,1320,true,NA,NA,NA,NA,NA
KYuhKx6Q,NA,NA,KYuhKx6Q,2020-0188,2021-09-22,10:30:12,11:52:41,NA,incomplete,false,true,NA,1,23,E19_Q3_ansR.png,right,NA,NA,NA,right,794,true,NA,NA,NA,NA,NA
KYuhKx6Q,NA,NA,KYuhKx6Q,2020-0188,2021-09-22,10:30:12,11:52:41,NA,incomplete,false,true,NA,1,24,E19_Q2_ansL.png,left,NA,NA,NA,left,976.199999809265,true,NA,NA,NA,NA,NA
KYuhKx6Q,NA,NA,KYuhKx6Q,2020-0188,2021-09-22,10:30:12,11:52:41,NA,incomplete,false,true,NA,1,25,E19_Q6_ansR.png,right,NA,NA,NA,right,1150.20000004768,true,NA,NA,NA,NA,NA
KYuhKx6Q,NA,NA,KYuhKx6Q,2020-0188,2021-09-22,10:30:12,11:52:41,NA,incomplete,false,true,NA,1,26,E19_Q8_ansL.png,left,NA,NA,NA,left,1346.90000009537,true,NA,NA,NA,NA,NA
KYuhKx6Q,NA,NA,KYuhKx6Q,2020-0188,2021-09-22,10:30:12,11:52:41,NA,incomplete,false,true,NA,1,27,E19_Q10_ansL.png,left,NA,NA,NA,left,1196.70000004768,true,NA,NA,NA,NA,NA
KYuhKx6Q,NA,NA,KYuhKx6Q,2020-0188,2021-09-22,10:30:12,11:52:41,NA,incomplete,false,true,NA,1,28,E19_Q9_ansR.png,right,NA,NA,NA,right,1405.09999990463,true,NA,NA,NA,NA,NA
KYuhKx6Q,NA,NA,KYuhKx6Q,2020-0188,2021-09-22,10:30:12,11:52:41,NA,incomplete,false,true,NA,1,29,E19_Q1_ansL.png,left,NA,NA,NA,left,1402.30000019073,true,NA,NA,NA,NA,NA
KYuhKx6Q,NA,NA,KYuhKx6Q,2020-0188,2021-09-22,10:30:12,11:52:41,NA,incomplete,false,NA,true,1,0,NA,right,E23_Q8_ansL.png,E23_Q5_ansR.png,within,NA,NaN,NA,left,2850.5999999046326,0,0,1374.0999999046326
KYuhKx6Q,NA,NA,KYuhKx6Q,2020-0188,2021-09-22,10:30:12,11:52:41,NA,incomplete,false,NA,true,1,1,NA,right,E11_Q10_ansR.png,E23_Q3_ansR.png,between,NA,NaN,NA,right,3095.7999999523163,1,1,3355.2000000476837
KYuhKx6Q,NA,NA,KYuhKx6Q,2020-0188,2021-09-22,10:30:12,11:52:41,NA,incomplete,false,NA,true,1,2,NA,left,E19_Q5_ansR.png,E19_Q2_ansL.png,within,NA,NaN,NA,left,5651.5,1,1,2175.0999999046326
KYuhKx6Q,NA,NA,KYuhKx6Q,2020-0188,2021-09-22,10:30:12,11:52:41,NA,incomplete,false,NA,true,1,3,NA,right,E23_Q1_ansL.png,E23_Q8_ansL.png,within,NA,NaN,NA,left,6761.599999904633,0,0,2601.5
KYuhKx6Q,NA,NA,KYuhKx6Q,2020-0188,2021-09-22,10:30:12,11:52:41,NA,incomplete,false,NA,true,1,4,NA,right,E19_Q4_ansR.png,E11_Q8_ansR.png,between,NA,NaN,NA,right,113181.60000014305,1,2,2459.5999999046326
KYuhKx6Q,NA,NA,KYuhKx6Q,2020-0188,2021-09-22,10:30:12,11:52:41,NA,incomplete,false,NA,true,1,5,NA,right,E11_Q2_ansR.png,E11_Q5_ansL.png,within,NA,NaN,NA,right,58609.799999952316,1,0,1720.7000000476837
KYuhKx6Q,NA,NA,KYuhKx6Q,2020-0188,2021-09-22,10:30:12,11:52:41,NA,incomplete,false,NA,true,1,6,NA,left,E23_Q10_ansL.png,E23_Q9_ansR.png,within,NA,NaN,NA,right,4344.900000095367,0,0,1846.6999998092651
KYuhKx6Q,NA,NA,KYuhKx6Q,2020-0188,2021-09-22,10:30:12,11:52:41,NA,incomplete,false,NA,true,1,7,NA,right,E23_Q10_ansL.png,E23_Q2_ansL.png,within,NA,NaN,NA,right,2880,1,0,1539
KYuhKx6Q,NA,NA,KYuhKx6Q,2020-0188,2021-09-22,10:30:12,11:52:41,NA,incomplete,false,NA,true,1,8,NA,right,E11_Q7_ansR.png,E11_Q2_ansR.png,within,NA,NaN,NA,right,3100.2000000476837,1,0,3076.5
KYuhKx6Q,NA,NA,KYuhKx6Q,2020-0188,2021-09-22,10:30:12,11:52:41,NA,incomplete,false,NA,true,1,9,NA,right,E19_Q5_ansR.png,E11_Q7_ansR.png,between,NA,NaN,NA,right,27335.799999952316,1,2,5701.5
KYuhKx6Q,NA,NA,KYuhKx6Q,2020-0188,2021-09-22,10:30:12,11:52:41,NA,incomplete,false,NA,true,1,10,NA,left,E23_Q6_ansR.png,E11_Q5_ansL.png,between,NA,NaN,NA,left,2117.9000000953674,1,1,7094.200000047684
KYuhKx6Q,NA,NA,KYuhKx6Q,2020-0188,2021-09-22,10:30:12,11:52:41,NA,incomplete,false,NA,true,1,11,NA,left,E19_Q7_ansL.png,E19_Q6_ansR.png,within,NA,NaN,NA,left,2166.399999856949,1,0,1694.8000001907349
KYuhKx6Q,NA,NA,KYuhKx6Q,2020-0188,2021-09-22,10:30:12,11:52:41,NA,incomplete,false,NA,true,1,12,NA,right,E23_Q4_ansR.png,E23_Q7_ansL.png,within,NA,NaN,NA,right,5233,1,0,2550.600000143051
KYuhKx6Q,NA,NA,KYuhKx6Q,2020-0188,2021-09-22,10:30:12,11:52:41,NA,incomplete,false,NA,true,1,13,NA,left,E11_Q10_ansR.png,E11_Q9_ansL.png,within,NA,NaN,NA,left,3971.2000000476837,1,0,1257.5
KYuhKx6Q,NA,NA,KYuhKx6Q,2020-0188,2021-09-22,10:30:12,11:52:41,NA,incomplete,false,NA,true,1,14,NA,left,E19_Q4_ansR.png,E19_Q3_ansR.png,within,NA,NaN,NA,right,4208.099999904633,0,0,1444.5
KYuhKx6Q,NA,NA,KYuhKx6Q,2020-0188,2021-09-22,10:30:12,11:52:41,NA,incomplete,false,NA,true,1,15,NA,right,E11_Q1_ansR.png,E23_Q9_ansR.png,between,NA,NaN,NA,right,1834.4000000953674,1,1,3051.7000000476837
KYuhKx6Q,NA,NA,KYuhKx6Q,2020-0188,2021-09-22,10:30:12,11:52:41,NA,incomplete,false,NA,true,1,16,NA,left,E19_Q8_ansL.png,E19_Q1_ansL.png,within,NA,NaN,NA,left,3298.5,1,1,1868.7000000476837
KYuhKx6Q,NA,NA,KYuhKx6Q,2020-0188,2021-09-22,10:30:12,11:52:41,NA,incomplete,false,NA,true,1,17,NA,right,E19_Q7_ansL.png,E11_Q3_ansL.png,between,NA,NaN,NA,right,4382.200000047684,1,1,1724.4000000953674
KYuhKx6Q,NA,NA,KYuhKx6Q,2020-0188,2021-09-22,10:30:12,11:52:41,NA,incomplete,false,NA,true,1,18,NA,right,E11_Q8_ansR.png,E11_Q4_ansL.png,within,NA,NaN,NA,left,3117.399999856949,0,0,1854.1000001430511
KYuhKx6Q,NA,NA,KYuhKx6Q,2020-0188,2021-09-22,10:30:12,11:52:41,NA,incomplete,false,NA,true,1,19,NA,right,E11_Q6_ansL.png,E11_Q9_ansL.png,within,NA,NaN,NA,left,8151.200000047684,0,1,2191.699999809265
KYuhKx6Q,NA,NA,KYuhKx6Q,2020-0188,2021-09-22,10:30:12,11:52:41,NA,incomplete,false,NA,true,1,20,NA,left,E23_Q4_ansR.png,E23_Q3_ansR.png,within,NA,NaN,NA,left,2584.5999999046326,1,0,1491.2999999523163
KYuhKx6Q,NA,NA,KYuhKx6Q,2020-0188,2021-09-22,10:30:12,11:52:41,NA,incomplete,false,NA,true,1,21,NA,left,E23_Q1_ansL.png,E23_Q6_ansR.png,within,NA,NaN,NA,right,2453.0999999046326,0,0,4772.300000190735
KYuhKx6Q,NA,NA,KYuhKx6Q,2020-0188,2021-09-22,10:30:12,11:52:41,NA,incomplete,false,NA,true,1,22,NA,left,E11_Q6_ansL.png,E11_Q3_ansL.png,within,NA,NaN,NA,right,1945.6000001430511,0,0,1702
KYuhKx6Q,NA,NA,KYuhKx6Q,2020-0188,2021-09-22,10:30:12,11:52:41,NA,incomplete,false,NA,true,1,23,NA,left,E19_Q3_ansR.png,E19_Q8_ansL.png,within,NA,NaN,NA,left,5122.899999856949,1,0,1347.7999999523163
KYuhKx6Q,NA,NA,KYuhKx6Q,2020-0188,2021-09-22,10:30:12,11:52:41,NA,incomplete,false,NA,true,1,24,NA,left,E19_Q2_ansL.png,E19_Q10_ansL.png,within,NA,NaN,NA,left,1824.5,1,0,1446.8999998569489
KYuhKx6Q,NA,NA,KYuhKx6Q,2020-0188,2021-09-22,10:30:12,11:52:41,NA,incomplete,false,NA,true,1,25,NA,left,E11_Q1_ansR.png,E11_Q4_ansL.png,within,NA,NaN,NA,left,2649.7999999523163,1,0,1460.5
KYuhKx6Q,NA,NA,KYuhKx6Q,2020-0188,2021-09-22,10:30:12,11:52:41,NA,incomplete,false,NA,true,1,26,NA,right,E19_Q9_ansR.png,E19_Q6_ansR.png,within,NA,NaN,NA,right,2722.7000000476837,1,0,1460.0999999046326
KYuhKx6Q,NA,NA,KYuhKx6Q,2020-0188,2021-09-22,10:30:12,11:52:41,NA,incomplete,false,true,NA,2,0,E3_Q5_ansR.png,right,NA,NA,NA,right,2569,true,NA,NA,NA,NA,NA
KYuhKx6Q,NA,NA,KYuhKx6Q,2020-0188,2021-09-22,10:30:12,11:52:41,NA,incomplete,false,true,NA,2,1,E3_Q2_ansL.png,left,NA,NA,NA,left,2540.09999990463,true,NA,NA,NA,NA,NA
KYuhKx6Q,NA,NA,KYuhKx6Q,2020-0188,2021-09-22,10:30:12,11:52:41,NA,incomplete,false,true,NA,2,2,E3_Q8_ansL.png,left,NA,NA,NA,left,2015.10000014305,true,NA,NA,NA,NA,NA
KYuhKx6Q,NA,NA,KYuhKx6Q,2020-0188,2021-09-22,10:30:12,11:52:41,NA,incomplete,false,true,NA,2,3,E3_Q4_ansL.png,left,NA,NA,NA,left,1742.09999990463,true,NA,NA,NA,NA,NA
KYuhKx6Q,NA,NA,KYuhKx6Q,2020-0188,2021-09-22,10:30:12,11:52:41,NA,incomplete,false,true,NA,2,4,E3_Q3_ansR.png,right,NA,NA,NA,none,0,false,NA,NA,NA,NA,NA
KYuhKx6Q,NA,NA,KYuhKx6Q,2020-0188,2021-09-22,10:30:12,11:52:41,NA,incomplete,false,true,NA,2,5,E3_Q6_ansR.png,right,NA,NA,NA,right,2700.29999995232,true,NA,NA,NA,NA,NA
KYuhKx6Q,NA,NA,KYuhKx6Q,2020-0188,2021-09-22,10:30:12,11:52:41,NA,incomplete,false,true,NA,2,6,E3_Q1_ansR.png,right,NA,NA,NA,right,2003.20000004768,true,NA,NA,NA,NA,NA
KYuhKx6Q,NA,NA,KYuhKx6Q,2020-0188,2021-09-22,10:30:12,11:52:41,NA,incomplete,false,true,NA,2,7,E3_Q10_ansR.png,right,NA,NA,NA,right,1670.29999995232,true,NA,NA,NA,NA,NA
KYuhKx6Q,NA,NA,KYuhKx6Q,2020-0188,2021-09-22,10:30:12,11:52:41,NA,incomplete,false,true,NA,2,8,E3_Q9_ansL.png,left,NA,NA,NA,left,1922.5,true,NA,NA,NA,NA,NA
KYuhKx6Q,NA,NA,KYuhKx6Q,2020-0188,2021-09-22,10:30:12,11:52:41,NA,incomplete,false,true,NA,2,9,E3_Q7_ansL.png,left,NA,NA,NA,left,1792.90000009537,true,NA,NA,NA,NA,NA
KYuhKx6Q,NA,NA,KYuhKx6Q,2020-0188,2021-09-22,10:30:12,11:52:41,NA,incomplete,false,true,NA,2,10,E9_Q7_ansR.png,right,NA,NA,NA,right,2846.19999980927,true,NA,NA,NA,NA,NA
KYuhKx6Q,NA,NA,KYuhKx6Q,2020-0188,2021-09-22,10:30:12,11:52:41,NA,incomplete,false,true,NA,2,11,E9_Q4_ansL.png,left,NA,NA,NA,left,1781.39999985695,true,NA,NA,NA,NA,NA
KYuhKx6Q,NA,NA,KYuhKx6Q,2020-0188,2021-09-22,10:30:12,11:52:41,NA,incomplete,false,true,NA,2,12,E9_Q1_ansR.png,right,NA,NA,NA,right,2186.09999990463,true,NA,NA,NA,NA,NA
KYuhKx6Q,NA,NA,KYuhKx6Q,2020-0188,2021-09-22,10:30:12,11:52:41,NA,incomplete,false,true,NA,2,13,E9_Q9_ansL.png,left,NA,NA,NA,left,1267.89999985695,true,NA,NA,NA,NA,NA
KYuhKx6Q,NA,NA,KYuhKx6Q,2020-0188,2021-09-22,10:30:12,11:52:41,NA,incomplete,false,true,NA,2,14,E9_Q2_ansR.png,right,NA,NA,NA,right,1327.39999985695,true,NA,NA,NA,NA,NA
KYuhKx6Q,NA,NA,KYuhKx6Q,2020-0188,2021-09-22,10:30:12,11:52:41,NA,incomplete,false,true,NA,2,15,E9_Q10_ansR.png,right,NA,NA,NA,right,1424.09999990463,true,NA,NA,NA,NA,NA
KYuhKx6Q,NA,NA,KYuhKx6Q,2020-0188,2021-09-22,10:30:12,11:52:41,NA,incomplete,false,true,NA,2,16,E9_Q6_ansL.png,left,NA,NA,NA,left,1723.5,true,NA,NA,NA,NA,NA
KYuhKx6Q,NA,NA,KYuhKx6Q,2020-0188,2021-09-22,10:30:12,11:52:41,NA,incomplete,false,true,NA,2,17,E9_Q5_ansL.png,left,NA,NA,NA,left,1929.10000014305,true,NA,NA,NA,NA,NA
KYuhKx6Q,NA,NA,KYuhKx6Q,2020-0188,2021-09-22,10:30:12,11:52:41,NA,incomplete,false,true,NA,2,18,E9_Q3_ansL.png,left,NA,NA,NA,left,1475.89999985695,true,NA,NA,NA,NA,NA
KYuhKx6Q,NA,NA,KYuhKx6Q,2020-0188,2021-09-22,10:30:12,11:52:41,NA,incomplete,false,true,NA,2,19,E9_Q8_ansR.png,right,NA,NA,NA,right,1334.29999995232,true,NA,NA,NA,NA,NA
KYuhKx6Q,NA,NA,KYuhKx6Q,2020-0188,2021-09-22,10:30:12,11:52:41,NA,incomplete,false,true,NA,2,20,E30_Q2_ansL.png,left,NA,NA,NA,none,0,false,NA,NA,NA,NA,NA
KYuhKx6Q,NA,NA,KYuhKx6Q,2020-0188,2021-09-22,10:30:12,11:52:41,NA,incomplete,false,true,NA,2,21,E30_Q5_ansR.png,right,NA,NA,NA,right,1894.79999995232,true,NA,NA,NA,NA,NA
KYuhKx6Q,NA,NA,KYuhKx6Q,2020-0188,2021-09-22,10:30:12,11:52:41,NA,incomplete,false,true,NA,2,22,E30_Q1_ansL.png,left,NA,NA,NA,left,2011.79999995232,true,NA,NA,NA,NA,NA
KYuhKx6Q,NA,NA,KYuhKx6Q,2020-0188,2021-09-22,10:30:12,11:52:41,NA,incomplete,false,true,NA,2,23,E30_Q9_ansL.png,left,NA,NA,NA,left,1944.69999980927,true,NA,NA,NA,NA,NA
KYuhKx6Q,NA,NA,KYuhKx6Q,2020-0188,2021-09-22,10:30:12,11:52:41,NA,incomplete,false,true,NA,2,24,E30_Q10_ansR.png,right,NA,NA,NA,right,2002.20000004768,true,NA,NA,NA,NA,NA
KYuhKx6Q,NA,NA,KYuhKx6Q,2020-0188,2021-09-22,10:30:12,11:52:41,NA,incomplete,false,true,NA,2,25,E30_Q3_ansL.png,left,NA,NA,NA,left,2100.5,true,NA,NA,NA,NA,NA
KYuhKx6Q,NA,NA,KYuhKx6Q,2020-0188,2021-09-22,10:30:12,11:52:41,NA,incomplete,false,true,NA,2,26,E30_Q4_ansL.png,left,NA,NA,NA,right,2346.79999995232,false,NA,NA,NA,NA,NA
KYuhKx6Q,NA,NA,KYuhKx6Q,2020-0188,2021-09-22,10:30:12,11:52:41,NA,incomplete,false,true,NA,2,27,E30_Q8_ansL.png,left,NA,NA,NA,right,2554.40000009537,false,NA,NA,NA,NA,NA
KYuhKx6Q,NA,NA,KYuhKx6Q,2020-0188,2021-09-22,10:30:12,11:52:41,NA,incomplete,false,true,NA,2,28,E30_Q6_ansR.png,right,NA,NA,NA,right,2112.89999985695,true,NA,NA,NA,NA,NA
KYuhKx6Q,NA,NA,KYuhKx6Q,2020-0188,2021-09-22,10:30:12,11:52:41,NA,incomplete,false,true,NA,2,29,E30_Q7_ansL.png,left,NA,NA,NA,left,3294.89999985695,true,NA,NA,NA,NA,NA
KYuhKx6Q,NA,NA,KYuhKx6Q,2020-0188,2021-09-22,10:30:12,11:52:41,NA,incomplete,false,NA,true,2,0,NA,right,E30_Q10_ansR.png,E30_Q5_ansR.png,within,NA,NaN,NA,right,3012.7000000476837,1,0,2307.7999999523163
KYuhKx6Q,NA,NA,KYuhKx6Q,2020-0188,2021-09-22,10:30:12,11:52:41,NA,incomplete,false,NA,true,2,1,NA,left,E30_Q2_ansL.png,E30_Q9_ansL.png,within,NA,NaN,NA,left,7294.100000143051,1,0,1124.8999998569489
KYuhKx6Q,NA,NA,KYuhKx6Q,2020-0188,2021-09-22,10:30:12,11:52:41,NA,incomplete,false,NA,true,2,2,NA,right,E3_Q3_ansR.png,E3_Q2_ansL.png,within,NA,NaN,NA,right,3531.9000000953674,1,0,1341.5
KYuhKx6Q,NA,NA,KYuhKx6Q,2020-0188,2021-09-22,10:30:12,11:52:41,NA,incomplete,false,NA,true,2,3,NA,left,E30_Q9_ansL.png,E30_Q4_ansL.png,within,NA,NaN,NA,left,8718.400000095367,1,0,1137.9000000953674
KYuhKx6Q,NA,NA,KYuhKx6Q,2020-0188,2021-09-22,10:30:12,11:52:41,NA,incomplete,false,NA,true,2,4,NA,right,E9_Q2_ansR.png,E9_Q4_ansL.png,within,NA,NaN,NA,left,4107.899999856949,0,0,1275.6000001430511
KYuhKx6Q,NA,NA,KYuhKx6Q,2020-0188,2021-09-22,10:30:12,11:52:41,NA,incomplete,false,NA,true,2,5,NA,right,E9_Q6_ansL.png,E9_Q9_ansL.png,within,NA,NaN,NA,left,6035.399999856949,0,1,2392.4000000953674
KYuhKx6Q,NA,NA,KYuhKx6Q,2020-0188,2021-09-22,10:30:12,11:52:41,NA,incomplete,false,NA,true,2,6,NA,left,E9_Q6_ansL.png,E9_Q8_ansR.png,within,NA,NaN,NA,right,5343.799999952316,0,0,1577.7000000476837
KYuhKx6Q,NA,NA,KYuhKx6Q,2020-0188,2021-09-22,10:30:12,11:52:41,NA,incomplete,false,NA,true,2,7,NA,left,E9_Q3_ansL.png,E30_Q5_ansR.png,between,NA,NaN,NA,right,8136.700000047684,0,2,1869.5999999046326
KYuhKx6Q,NA,NA,KYuhKx6Q,2020-0188,2021-09-22,10:30:12,11:52:41,NA,incomplete,false,NA,true,2,8,NA,left,E9_Q7_ansR.png,E9_Q9_ansL.png,within,NA,NaN,NA,left,2016,1,0,1472.8999998569489
KYuhKx6Q,NA,NA,KYuhKx6Q,2020-0188,2021-09-22,10:30:12,11:52:41,NA,incomplete,false,NA,true,2,9,NA,left,E3_Q1_ansR.png,E3_Q7_ansL.png,within,NA,NaN,NA,right,6465,0,0,1733.5999999046326
KYuhKx6Q,NA,NA,KYuhKx6Q,2020-0188,2021-09-22,10:30:12,11:52:41,NA,incomplete,false,NA,true,2,10,NA,left,E3_Q5_ansR.png,E3_Q4_ansL.png,within,NA,NaN,NA,left,2993.2999999523163,1,0,5756.099999904633
KYuhKx6Q,NA,NA,KYuhKx6Q,2020-0188,2021-09-22,10:30:12,11:52:41,NA,incomplete,false,NA,true,2,11,NA,right,E30_Q6_ansR.png,E30_Q3_ansL.png,within,NA,NaN,NA,right,3679.5999999046326,1,0,2323.300000190735
KYuhKx6Q,NA,NA,KYuhKx6Q,2020-0188,2021-09-22,10:30:12,11:52:41,NA,incomplete,false,NA,true,2,12,NA,right,E3_Q9_ansL.png,E3_Q6_ansR.png,within,NA,NaN,NA,left,2150.7000000476837,0,0,1879.5999999046326
KYuhKx6Q,NA,NA,KYuhKx6Q,2020-0188,2021-09-22,10:30:12,11:52:41,NA,incomplete,false,NA,true,2,13,NA,left,E9_Q5_ansL.png,E30_Q2_ansL.png,between,NA,NaN,NA,left,3731.600000143051,1,2,1590
KYuhKx6Q,NA,NA,KYuhKx6Q,2020-0188,2021-09-22,10:30:12,11:52:41,NA,incomplete,false,NA,true,2,14,NA,right,E3_Q6_ansR.png,E3_Q8_ansL.png,within,NA,NaN,NA,right,2515.399999856949,1,0,1470
KYuhKx6Q,NA,NA,KYuhKx6Q,2020-0188,2021-09-22,10:30:12,11:52:41,NA,incomplete,false,NA,true,2,15,NA,right,E3_Q10_ansR.png,E3_Q3_ansR.png,within,NA,NaN,NA,right,1646.8999998569489,1,0,2996.5
KYuhKx6Q,NA,NA,KYuhKx6Q,2020-0188,2021-09-22,10:30:12,11:52:41,NA,incomplete,false,NA,true,2,16,NA,right,E30_Q3_ansL.png,E30_Q1_ansL.png,within,NA,NaN,NA,right,2071.899999856949,1,0,3269.2000000476837
KYuhKx6Q,NA,NA,KYuhKx6Q,2020-0188,2021-09-22,10:30:12,11:52:41,NA,incomplete,false,NA,true,2,17,NA,left,E9_Q10_ansR.png,E9_Q3_ansL.png,within,NA,NaN,NA,left,3572.899999856949,1,0,1213.5
KYuhKx6Q,NA,NA,KYuhKx6Q,2020-0188,2021-09-22,10:30:12,11:52:41,NA,incomplete,false,NA,true,2,18,NA,right,E30_Q1_ansL.png,E9_Q8_ansR.png,between,NA,NaN,NA,right,1781.8000001907349,1,2,1948.5
KYuhKx6Q,NA,NA,KYuhKx6Q,2020-0188,2021-09-22,10:30:12,11:52:41,NA,incomplete,false,NA,true,2,19,NA,right,E30_Q7_ansL.png,E30_Q4_ansL.png,within,NA,NaN,NA,right,4715.5,1,1,1655.7999999523163
KYuhKx6Q,NA,NA,KYuhKx6Q,2020-0188,2021-09-22,10:30:12,11:52:41,NA,incomplete,false,NA,true,2,20,NA,right,E9_Q7_ansR.png,E3_Q10_ansR.png,between,NA,NaN,NA,left,2418,0,1,1776.0999999046326
KYuhKx6Q,NA,NA,KYuhKx6Q,2020-0188,2021-09-22,10:30:12,11:52:41,NA,incomplete,false,NA,true,2,21,NA,left,E3_Q7_ansL.png,E9_Q1_ansR.png,between,NA,NaN,NA,right,2412.2999999523163,0,2,999.2999999523163
KYuhKx6Q,NA,NA,KYuhKx6Q,2020-0188,2021-09-22,10:30:12,11:52:41,NA,incomplete,false,NA,true,2,22,NA,left,E9_Q1_ansR.png,E9_Q10_ansR.png,within,NA,NaN,NA,left,2395.2000000476837,1,1,1662.0999999046326
KYuhKx6Q,NA,NA,KYuhKx6Q,2020-0188,2021-09-22,10:30:12,11:52:41,NA,incomplete,false,NA,true,2,23,NA,right,E9_Q4_ansL.png,E3_Q9_ansL.png,between,NA,NaN,NA,left,3332.5,0,2,1240.5999999046326
KYuhKx6Q,NA,NA,KYuhKx6Q,2020-0188,2021-09-22,10:30:12,11:52:41,NA,incomplete,false,NA,true,2,24,NA,left,E9_Q2_ansR.png,E9_Q5_ansL.png,within,NA,NaN,NA,left,3076.2999999523163,1,1,1661.5999999046326
KYuhKx6Q,NA,NA,KYuhKx6Q,2020-0188,2021-09-22,10:30:12,11:52:41,NA,incomplete,false,NA,true,2,25,NA,left,E30_Q10_ansR.png,E30_Q8_ansL.png,within,NA,NaN,NA,right,1872.0999999046326,0,0,1305.3999998569489
KYuhKx6Q,NA,NA,KYuhKx6Q,2020-0188,2021-09-22,10:30:12,11:52:41,NA,incomplete,false,NA,true,2,26,NA,left,E3_Q4_ansL.png,E3_Q1_ansR.png,within,NA,NaN,NA,right,1486,0,1,1835.7000000476837
KYuhKx6Q,NA,NA,KYuhKx6Q,2020-0188,2021-09-22,10:30:12,11:52:41,NA,incomplete,false,true,NA,3,0,E6_Q6_ansR.png,right,NA,NA,NA,none,0,false,NA,NA,NA,NA,NA
KYuhKx6Q,NA,NA,KYuhKx6Q,2020-0188,2021-09-22,10:30:12,11:52:41,NA,incomplete,false,true,NA,3,1,E6_Q10_ansL.png,left,NA,NA,NA,left,1579.69999980927,true,NA,NA,NA,NA,NA
KYuhKx6Q,NA,NA,KYuhKx6Q,2020-0188,2021-09-22,10:30:12,11:52:41,NA,incomplete,false,true,NA,3,2,E6_Q3_ansR.png,right,NA,NA,NA,right,1446.20000004768,true,NA,NA,NA,NA,NA
KYuhKx6Q,NA,NA,KYuhKx6Q,2020-0188,2021-09-22,10:30:12,11:52:41,NA,incomplete,false,true,NA,3,3,E6_Q5_ansR.png,right,NA,NA,NA,right,1689.40000009537,true,NA,NA,NA,NA,NA
KYuhKx6Q,NA,NA,KYuhKx6Q,2020-0188,2021-09-22,10:30:12,11:52:41,NA,incomplete,false,true,NA,3,4,E6_Q2_ansL.png,left,NA,NA,NA,right,1106.39999985695,false,NA,NA,NA,NA,NA
KYuhKx6Q,NA,NA,KYuhKx6Q,2020-0188,2021-09-22,10:30:12,11:52:41,NA,incomplete,false,true,NA,3,5,E6_Q7_ansL.png,left,NA,NA,NA,left,969.200000047684,true,NA,NA,NA,NA,NA
KYuhKx6Q,NA,NA,KYuhKx6Q,2020-0188,2021-09-22,10:30:12,11:52:41,NA,incomplete,false,true,NA,3,6,E6_Q9_ansL.png,left,NA,NA,NA,left,994.799999952316,true,NA,NA,NA,NA,NA
KYuhKx6Q,NA,NA,KYuhKx6Q,2020-0188,2021-09-22,10:30:12,11:52:41,NA,incomplete,false,true,NA,3,7,E6_Q1_ansL.png,left,NA,NA,NA,left,1327.20000004768,true,NA,NA,NA,NA,NA
KYuhKx6Q,NA,NA,KYuhKx6Q,2020-0188,2021-09-22,10:30:12,11:52:41,NA,incomplete,false,true,NA,3,8,E6_Q4_ansR.png,right,NA,NA,NA,right,1109.80000019073,true,NA,NA,NA,NA,NA
KYuhKx6Q,NA,NA,KYuhKx6Q,2020-0188,2021-09-22,10:30:12,11:52:41,NA,incomplete,false,true,NA,3,9,E6_Q8_ansL.png,left,NA,NA,NA,left,1481.70000004768,true,NA,NA,NA,NA,NA
KYuhKx6Q,NA,NA,KYuhKx6Q,2020-0188,2021-09-22,10:30:12,11:52:41,NA,incomplete,false,true,NA,3,10,E27_Q3_ansR.png,right,NA,NA,NA,right,1205.10000014305,true,NA,NA,NA,NA,NA
KYuhKx6Q,NA,NA,KYuhKx6Q,2020-0188,2021-09-22,10:30:12,11:52:41,NA,incomplete,false,true,NA,3,11,E27_Q10_ansL.png,left,NA,NA,NA,left,1370.90000009537,true,NA,NA,NA,NA,NA
KYuhKx6Q,NA,NA,KYuhKx6Q,2020-0188,2021-09-22,10:30:12,11:52:41,NA,incomplete,false,true,NA,3,12,E27_Q9_ansR.png,right,NA,NA,NA,right,965.399999856949,true,NA,NA,NA,NA,NA
KYuhKx6Q,NA,NA,KYuhKx6Q,2020-0188,2021-09-22,10:30:12,11:52:41,NA,incomplete,false,true,NA,3,13,E27_Q8_ansL.png,left,NA,NA,NA,left,833.400000095367,true,NA,NA,NA,NA,NA
KYuhKx6Q,NA,NA,KYuhKx6Q,2020-0188,2021-09-22,10:30:12,11:52:41,NA,incomplete,false,true,NA,3,14,E27_Q4_ansR.png,right,NA,NA,NA,right,684.5,true,NA,NA,NA,NA,NA
KYuhKx6Q,NA,NA,KYuhKx6Q,2020-0188,2021-09-22,10:30:12,11:52:41,NA,incomplete,false,true,NA,3,15,E27_Q7_ansL.png,left,NA,NA,NA,left,924.399999856949,true,NA,NA,NA,NA,NA
KYuhKx6Q,NA,NA,KYuhKx6Q,2020-0188,2021-09-22,10:30:12,11:52:41,NA,incomplete,false,true,NA,3,16,E27_Q1_ansL.png,left,NA,NA,NA,left,1230.30000019073,true,NA,NA,NA,NA,NA
KYuhKx6Q,NA,NA,KYuhKx6Q,2020-0188,2021-09-22,10:30:12,11:52:41,NA,incomplete,false,true,NA,3,17,E27_Q6_ansR.png,right,NA,NA,NA,right,882.800000190735,true,NA,NA,NA,NA,NA
KYuhKx6Q,NA,NA,KYuhKx6Q,2020-0188,2021-09-22,10:30:12,11:52:41,NA,incomplete,false,true,NA,3,18,E27_Q5_ansR.png,right,NA,NA,NA,right,1192.09999990463,true,NA,NA,NA,NA,NA
KYuhKx6Q,NA,NA,KYuhKx6Q,2020-0188,2021-09-22,10:30:12,11:52:41,NA,incomplete,false,true,NA,3,19,E27_Q2_ansL.png,left,NA,NA,NA,left,784.799999952316,true,NA,NA,NA,NA,NA
KYuhKx6Q,NA,NA,KYuhKx6Q,2020-0188,2021-09-22,10:30:12,11:52:41,NA,incomplete,false,true,NA,3,20,E16_Q8_ansR.png,right,NA,NA,NA,right,1380.30000019073,true,NA,NA,NA,NA,NA
KYuhKx6Q,NA,NA,KYuhKx6Q,2020-0188,2021-09-22,10:30:12,11:52:41,NA,incomplete,false,true,NA,3,21,E16_Q4_ansL.png,left,NA,NA,NA,left,1219,true,NA,NA,NA,NA,NA
KYuhKx6Q,NA,NA,KYuhKx6Q,2020-0188,2021-09-22,10:30:12,11:52:41,NA,incomplete,false,true,NA,3,22,E16_Q1_ansR.png,right,NA,NA,NA,right,2484.40000009537,true,NA,NA,NA,NA,NA
KYuhKx6Q,NA,NA,KYuhKx6Q,2020-0188,2021-09-22,10:30:12,11:52:41,NA,incomplete,false,true,NA,3,23,E16_Q3_ansL.png,left,NA,NA,NA,left,1441.29999995232,true,NA,NA,NA,NA,NA
KYuhKx6Q,NA,NA,KYuhKx6Q,2020-0188,2021-09-22,10:30:12,11:52:41,NA,incomplete,false,true,NA,3,24,E16_Q2_ansR.png,right,NA,NA,NA,left,1302.79999995232,false,NA,NA,NA,NA,NA
KYuhKx6Q,NA,NA,KYuhKx6Q,2020-0188,2021-09-22,10:30:12,11:52:41,NA,incomplete,false,true,NA,3,25,E16_Q5_ansL.png,left,NA,NA,NA,left,1146.29999995232,true,NA,NA,NA,NA,NA
KYuhKx6Q,NA,NA,KYuhKx6Q,2020-0188,2021-09-22,10:30:12,11:52:41,NA,incomplete,false,true,NA,3,26,E16_Q9_ansL.png,left,NA,NA,NA,left,969.700000047684,true,NA,NA,NA,NA,NA
KYuhKx6Q,NA,NA,KYuhKx6Q,2020-0188,2021-09-22,10:30:12,11:52:41,NA,incomplete,false,true,NA,3,27,E16_Q10_ansR.png,right,NA,NA,NA,right,1448.79999995232,true,NA,NA,NA,NA,NA
KYuhKx6Q,NA,NA,KYuhKx6Q,2020-0188,2021-09-22,10:30:12,11:52:41,NA,incomplete,false,true,NA,3,28,E16_Q6_ansL.png,left,NA,NA,NA,left,896.299999952316,true,NA,NA,NA,NA,NA
KYuhKx6Q,NA,NA,KYuhKx6Q,2020-0188,2021-09-22,10:30:12,11:52:41,NA,incomplete,false,true,NA,3,29,E16_Q7_ansR.png,right,NA,NA,NA,right,1245.80000019073,true,NA,NA,NA,NA,NA
KYuhKx6Q,NA,NA,KYuhKx6Q,2020-0188,2021-09-22,10:30:12,11:52:41,NA,incomplete,false,NA,true,3,0,NA,right,E27_Q6_ansR.png,E27_Q4_ansR.png,within,NA,NaN,NA,right,3904.2999999523163,1,1,1609.3999998569489
KYuhKx6Q,NA,NA,KYuhKx6Q,2020-0188,2021-09-22,10:30:12,11:52:41,NA,incomplete,false,NA,true,3,1,NA,left,E16_Q5_ansL.png,E16_Q6_ansL.png,within,NA,NaN,NA,right,2139.800000190735,0,1,2281.7000000476837
KYuhKx6Q,NA,NA,KYuhKx6Q,2020-0188,2021-09-22,10:30:12,11:52:41,NA,incomplete,false,NA,true,3,2,NA,right,E27_Q2_ansL.png,E27_Q1_ansL.png,within,NA,NaN,NA,left,1457.3999998569489,0,1,1768.2000000476837
KYuhKx6Q,NA,NA,KYuhKx6Q,2020-0188,2021-09-22,10:30:12,11:52:41,NA,incomplete,false,NA,true,3,3,NA,right,E16_Q2_ansR.png,E16_Q4_ansL.png,within,NA,NaN,NA,right,1199.1999998092651,1,1,1293.5999999046326
KYuhKx6Q,NA,NA,KYuhKx6Q,2020-0188,2021-09-22,10:30:12,11:52:41,NA,incomplete,false,NA,true,3,4,NA,right,E27_Q10_ansL.png,E6_Q4_ansR.png,between,NA,NaN,NA,left,9749.600000143051,0,1,2495.2000000476837
KYuhKx6Q,NA,NA,KYuhKx6Q,2020-0188,2021-09-22,10:30:12,11:52:41,NA,incomplete,false,NA,true,3,5,NA,left,E16_Q2_ansR.png,E16_Q10_ansR.png,within,NA,NaN,NA,left,2276.2999999523163,1,1,1108.7000000476837
KYuhKx6Q,NA,NA,KYuhKx6Q,2020-0188,2021-09-22,10:30:12,11:52:41,NA,incomplete,false,NA,true,3,6,NA,right,E6_Q8_ansL.png,E6_Q9_ansL.png,within,NA,NaN,NA,left,961.8999998569489,0,1,1391.5
KYuhKx6Q,NA,NA,KYuhKx6Q,2020-0188,2021-09-22,10:30:12,11:52:41,NA,incomplete,false,NA,true,3,7,NA,right,E27_Q9_ansR.png,E6_Q8_ansL.png,between,NA,NaN,NA,left,2694.600000143051,0,1,3644.5999999046326
KYuhKx6Q,NA,NA,KYuhKx6Q,2020-0188,2021-09-22,10:30:12,11:52:41,NA,incomplete,false,NA,true,3,8,NA,right,E16_Q7_ansR.png,E16_Q9_ansL.png,within,NA,NaN,NA,left,876.6000001430511,0,1,1260.5
KYuhKx6Q,NA,NA,KYuhKx6Q,2020-0188,2021-09-22,10:30:12,11:52:41,NA,incomplete,false,NA,true,3,9,NA,right,E16_Q4_ansL.png,E27_Q5_ansR.png,between,NA,NaN,NA,right,4302.899999856949,1,1,1291.0999999046326
KYuhKx6Q,NA,NA,KYuhKx6Q,2020-0188,2021-09-22,10:30:12,11:52:41,NA,incomplete,false,NA,true,3,10,NA,left,E27_Q2_ansL.png,E16_Q1_ansR.png,between,NA,NaN,NA,left,1638.2999999523163,1,1,1801.4000000953674
KYuhKx6Q,NA,NA,KYuhKx6Q,2020-0188,2021-09-22,10:30:12,11:52:41,NA,incomplete,false,NA,true,3,11,NA,right,E6_Q1_ansL.png,E6_Q2_ansL.png,within,NA,NaN,NA,left,1917.8999998569489,0,1,1414.6000001430511
KYuhKx6Q,NA,NA,KYuhKx6Q,2020-0188,2021-09-22,10:30:12,11:52:41,NA,incomplete,false,NA,true,3,12,NA,left,E27_Q8_ansL.png,E27_Q1_ansL.png,within,NA,NaN,NA,right,1387.9000000953674,0,1,1484.2999999523163
KYuhKx6Q,NA,NA,KYuhKx6Q,2020-0188,2021-09-22,10:30:12,11:52:41,NA,incomplete,false,NA,true,3,13,NA,right,E16_Q8_ansR.png,E27_Q6_ansR.png,between,NA,NaN,NA,right,1587,1,1,1632.0999999046326
KYuhKx6Q,NA,NA,KYuhKx6Q,2020-0188,2021-09-22,10:30:12,11:52:41,NA,incomplete,false,NA,true,3,14,NA,left,E16_Q3_ansL.png,E16_Q9_ansL.png,within,NA,NaN,NA,left,792.0999999046326,1,1,1277.1000001430511
KYuhKx6Q,NA,NA,KYuhKx6Q,2020-0188,2021-09-22,10:30:12,11:52:41,NA,incomplete,false,NA,true,3,15,NA,left,E27_Q3_ansR.png,E27_Q8_ansL.png,within,NA,NaN,NA,left,1291.6000001430511,1,1,1168.6000001430511
KYuhKx6Q,NA,NA,KYuhKx6Q,2020-0188,2021-09-22,10:30:12,11:52:41,NA,incomplete,false,NA,true,3,16,NA,left,E27_Q10_ansL.png,E27_Q4_ansR.png,within,NA,NaN,NA,right,2100.7000000476837,0,1,1037.7000000476837
KYuhKx6Q,NA,NA,KYuhKx6Q,2020-0188,2021-09-22,10:30:12,11:52:41,NA,incomplete,false,NA,true,3,17,NA,right,E6_Q9_ansL.png,E6_Q5_ansR.png,within,NA,NaN,NA,right,888.3999998569489,1,1,1493.2999999523163
KYuhKx6Q,NA,NA,KYuhKx6Q,2020-0188,2021-09-22,10:30:12,11:52:41,NA,incomplete,false,NA,true,3,18,NA,right,E6_Q4_ansR.png,E6_Q7_ansL.png,within,NA,NaN,NA,left,1253,0,1,1277.7999999523163
KYuhKx6Q,NA,NA,KYuhKx6Q,2020-0188,2021-09-22,10:30:12,11:52:41,NA,incomplete,false,NA,true,3,19,NA,left,E27_Q9_ansR.png,E27_Q7_ansL.png,within,NA,NaN,NA,left,1597,1,1,1663.5
KYuhKx6Q,NA,NA,KYuhKx6Q,2020-0188,2021-09-22,10:30:12,11:52:41,NA,incomplete,false,NA,true,3,20,NA,right,E6_Q2_ansL.png,E6_Q10_ansL.png,within,NA,NaN,NA,left,687.7999999523163,0,1,1486.5999999046326
KYuhKx6Q,NA,NA,KYuhKx6Q,2020-0188,2021-09-22,10:30:12,11:52:41,NA,incomplete,false,NA,true,3,21,NA,right,E6_Q7_ansL.png,E6_Q3_ansR.png,within,NA,NaN,NA,left,980,0,1,1726.9000000953674
KYuhKx6Q,NA,NA,KYuhKx6Q,2020-0188,2021-09-22,10:30:12,11:52:41,NA,incomplete,false,NA,true,3,22,NA,left,E27_Q7_ansL.png,E27_Q5_ansR.png,within,NA,NaN,NA,right,998.2000000476837,0,1,1212.5
KYuhKx6Q,NA,NA,KYuhKx6Q,2020-0188,2021-09-22,10:30:12,11:52:41,NA,incomplete,false,NA,true,3,23,NA,right,E27_Q3_ansR.png,E6_Q1_ansL.png,between,NA,NaN,NA,right,1039.5999999046326,1,1,2395.5999999046326
KYuhKx6Q,NA,NA,KYuhKx6Q,2020-0188,2021-09-22,10:30:12,11:52:41,NA,incomplete,false,NA,true,3,24,NA,right,E16_Q3_ansL.png,E16_Q8_ansR.png,within,NA,NaN,NA,right,1565.8999998569489,1,1,1144
KYuhKx6Q,NA,NA,KYuhKx6Q,2020-0188,2021-09-22,10:30:12,11:52:41,NA,incomplete,false,NA,true,3,25,NA,left,E6_Q6_ansR.png,E6_Q5_ansR.png,within,NA,NaN,NA,left,1797.2999999523163,1,1,1137.8000001907349
KYuhKx6Q,NA,NA,KYuhKx6Q,2020-0188,2021-09-22,10:30:12,11:52:41,NA,incomplete,false,NA,true,3,26,NA,right,E16_Q5_ansL.png,E16_Q1_ansR.png,within,NA,NaN,NA,left,1136.4000000953674,0,1,1147.7000000476837
KYuhKx6Q,NA,NA,KYuhKx6Q,2020-0188,2021-09-22,10:30:12,11:52:41,NA,incomplete,false,true,NA,4,0,E29_Q6_ansR.png,right,NA,NA,NA,right,1948.5,true,NA,NA,NA,NA,NA
KYuhKx6Q,NA,NA,KYuhKx6Q,2020-0188,2021-09-22,10:30:12,11:52:41,NA,incomplete,false,true,NA,4,1,E29_Q2_ansL.png,left,NA,NA,NA,right,1456.90000009537,false,NA,NA,NA,NA,NA
KYuhKx6Q,NA,NA,KYuhKx6Q,2020-0188,2021-09-22,10:30:12,11:52:41,NA,incomplete,false,true,NA,4,2,E29_Q3_ansR.png,right,NA,NA,NA,right,1491.39999985695,true,NA,NA,NA,NA,NA
KYuhKx6Q,NA,NA,KYuhKx6Q,2020-0188,2021-09-22,10:30:12,11:52:41,NA,incomplete,false,true,NA,4,3,E29_Q4_ansR.png,right,NA,NA,NA,right,1212.20000004768,true,NA,NA,NA,NA,NA
KYuhKx6Q,NA,NA,KYuhKx6Q,2020-0188,2021-09-22,10:30:12,11:52:41,NA,incomplete,false,true,NA,4,4,E29_Q8_ansL.png,left,NA,NA,NA,left,945.099999904633,true,NA,NA,NA,NA,NA
KYuhKx6Q,NA,NA,KYuhKx6Q,2020-0188,2021-09-22,10:30:12,11:52:41,NA,incomplete,false,true,NA,4,5,E29_Q1_ansL.png,left,NA,NA,NA,left,1074.89999985695,true,NA,NA,NA,NA,NA
KYuhKx6Q,NA,NA,KYuhKx6Q,2020-0188,2021-09-22,10:30:12,11:52:41,NA,incomplete,false,true,NA,4,6,E29_Q10_ansL.png,left,NA,NA,NA,left,971.799999952316,true,NA,NA,NA,NA,NA
KYuhKx6Q,NA,NA,KYuhKx6Q,2020-0188,2021-09-22,10:30:12,11:52:41,NA,incomplete,false,true,NA,4,7,E29_Q9_ansR.png,right,NA,NA,NA,right,1610.79999995232,true,NA,NA,NA,NA,NA
KYuhKx6Q,NA,NA,KYuhKx6Q,2020-0188,2021-09-22,10:30:12,11:52:41,NA,incomplete,false,true,NA,4,8,E29_Q5_ansR.png,right,NA,NA,NA,right,1056.40000009537,true,NA,NA,NA,NA,NA
KYuhKx6Q,NA,NA,KYuhKx6Q,2020-0188,2021-09-22,10:30:12,11:52:41,NA,incomplete,false,true,NA,4,9,E29_Q7_ansL.png,left,NA,NA,NA,left,915,true,NA,NA,NA,NA,NA
KYuhKx6Q,NA,NA,KYuhKx6Q,2020-0188,2021-09-22,10:30:12,11:52:41,NA,incomplete,false,true,NA,4,10,E13_Q4_ansR.png,right,NA,NA,NA,left,1471.40000009537,false,NA,NA,NA,NA,NA
KYuhKx6Q,NA,NA,KYuhKx6Q,2020-0188,2021-09-22,10:30:12,11:52:41,NA,incomplete,false,true,NA,4,11,E13_Q2_ansL.png,left,NA,NA,NA,left,1160.69999980927,true,NA,NA,NA,NA,NA
KYuhKx6Q,NA,NA,KYuhKx6Q,2020-0188,2021-09-22,10:30:12,11:52:41,NA,incomplete,false,true,NA,4,12,E13_Q5_ansR.png,right,NA,NA,NA,right,1101.20000004768,true,NA,NA,NA,NA,NA
KYuhKx6Q,NA,NA,KYuhKx6Q,2020-0188,2021-09-22,10:30:12,11:52:41,NA,incomplete,false,true,NA,4,13,E13_Q1_ansL.png,left,NA,NA,NA,left,1063.20000004768,true,NA,NA,NA,NA,NA
KYuhKx6Q,NA,NA,KYuhKx6Q,2020-0188,2021-09-22,10:30:12,11:52:41,NA,incomplete,false,true,NA,4,14,E13_Q10_ansL.png,left,NA,NA,NA,left,1418.10000014305,true,NA,NA,NA,NA,NA
KYuhKx6Q,NA,NA,KYuhKx6Q,2020-0188,2021-09-22,10:30:12,11:52:41,NA,incomplete,false,true,NA,4,15,E13_Q3_ansR.png,right,NA,NA,NA,right,1064,true,NA,NA,NA,NA,NA
KYuhKx6Q,NA,NA,KYuhKx6Q,2020-0188,2021-09-22,10:30:12,11:52:41,NA,incomplete,false,true,NA,4,16,E13_Q8_ansL.png,left,NA,NA,NA,left,968.700000047684,true,NA,NA,NA,NA,NA
KYuhKx6Q,NA,NA,KYuhKx6Q,2020-0188,2021-09-22,10:30:12,11:52:41,NA,incomplete,false,true,NA,4,17,E13_Q7_ansL.png,left,NA,NA,NA,left,1253.30000019073,true,NA,NA,NA,NA,NA
KYuhKx6Q,NA,NA,KYuhKx6Q,2020-0188,2021-09-22,10:30:12,11:52:41,NA,incomplete,false,true,NA,4,18,E13_Q6_ansR.png,right,NA,NA,NA,right,1266.59999990463,true,NA,NA,NA,NA,NA
KYuhKx6Q,NA,NA,KYuhKx6Q,2020-0188,2021-09-22,10:30:12,11:52:41,NA,incomplete,false,true,NA,4,19,E13_Q9_ansR.png,right,NA,NA,NA,right,1275.10000014305,true,NA,NA,NA,NA,NA
KYuhKx6Q,NA,NA,KYuhKx6Q,2020-0188,2021-09-22,10:30:12,11:52:41,NA,incomplete,false,true,NA,4,20,E31_Q9_ansL.png,left,NA,NA,NA,left,1728.90000009537,true,NA,NA,NA,NA,NA
KYuhKx6Q,NA,NA,KYuhKx6Q,2020-0188,2021-09-22,10:30:12,11:52:41,NA,incomplete,false,true,NA,4,21,E31_Q3_ansL.png,left,NA,NA,NA,left,1662.59999990463,true,NA,NA,NA,NA,NA
KYuhKx6Q,NA,NA,KYuhKx6Q,2020-0188,2021-09-22,10:30:12,11:52:41,NA,incomplete,false,true,NA,4,22,E31_Q5_ansL.png,left,NA,NA,NA,left,2283.90000009537,true,NA,NA,NA,NA,NA
KYuhKx6Q,NA,NA,KYuhKx6Q,2020-0188,2021-09-22,10:30:12,11:52:41,NA,incomplete,false,true,NA,4,23,E31_Q1_ansR.png,right,NA,NA,NA,right,1822,true,NA,NA,NA,NA,NA
KYuhKx6Q,NA,NA,KYuhKx6Q,2020-0188,2021-09-22,10:30:12,11:52:41,NA,incomplete,false,true,NA,4,24,E31_Q8_ansR.png,right,NA,NA,NA,right,1661.09999990463,true,NA,NA,NA,NA,NA
KYuhKx6Q,NA,NA,KYuhKx6Q,2020-0188,2021-09-22,10:30:12,11:52:41,NA,incomplete,false,true,NA,4,25,E31_Q7_ansR.png,right,NA,NA,NA,right,1369.39999985695,true,NA,NA,NA,NA,NA
KYuhKx6Q,NA,NA,KYuhKx6Q,2020-0188,2021-09-22,10:30:12,11:52:41,NA,incomplete,false,true,NA,4,26,E31_Q10_ansR.png,right,NA,NA,NA,right,1107.70000004768,true,NA,NA,NA,NA,NA
KYuhKx6Q,NA,NA,KYuhKx6Q,2020-0188,2021-09-22,10:30:12,11:52:41,NA,incomplete,false,true,NA,4,27,E31_Q6_ansL.png,left,NA,NA,NA,left,932.100000143051,true,NA,NA,NA,NA,NA
KYuhKx6Q,NA,NA,KYuhKx6Q,2020-0188,2021-09-22,10:30:12,11:52:41,NA,incomplete,false,true,NA,4,28,E31_Q2_ansR.png,right,NA,NA,NA,right,1188.10000014305,true,NA,NA,NA,NA,NA
KYuhKx6Q,NA,NA,KYuhKx6Q,2020-0188,2021-09-22,10:30:12,11:52:41,NA,incomplete,false,true,NA,4,29,E31_Q4_ansL.png,left,NA,NA,NA,left,1388.60000014305,true,NA,NA,NA,NA,NA
KYuhKx6Q,NA,NA,KYuhKx6Q,2020-0188,2021-09-22,10:30:12,11:52:41,NA,incomplete,false,NA,true,4,0,NA,left,E13_Q9_ansR.png,E31_Q5_ansL.png,between,NA,NaN,NA,right,1099.4000000953674,0,2,1382.9000000953674
KYuhKx6Q,NA,NA,KYuhKx6Q,2020-0188,2021-09-22,10:30:12,11:52:41,NA,incomplete,false,NA,true,4,1,NA,left,E31_Q9_ansL.png,E31_Q1_ansR.png,within,NA,NaN,NA,right,693.0999999046326,0,2,1428
KYuhKx6Q,NA,NA,KYuhKx6Q,2020-0188,2021-09-22,10:30:12,11:52:41,NA,incomplete,false,NA,true,4,2,NA,right,E13_Q5_ansR.png,E29_Q7_ansL.png,between,NA,NaN,NA,right,648.3000001907349,1,2,1068.7999999523163
KYuhKx6Q,NA,NA,KYuhKx6Q,2020-0188,2021-09-22,10:30:12,11:52:41,NA,incomplete,false,NA,true,4,3,NA,left,E31_Q7_ansR.png,E31_Q2_ansR.png,within,NA,NaN,NA,right,662.5,0,2,1748.2999999523163
KYuhKx6Q,NA,NA,KYuhKx6Q,2020-0188,2021-09-22,10:30:12,11:52:41,NA,incomplete,false,NA,true,4,4,NA,right,E13_Q2_ansL.png,E29_Q5_ansR.png,between,NA,NaN,NA,right,766.9000000953674,1,2,1382.1000001430511
KYuhKx6Q,NA,NA,KYuhKx6Q,2020-0188,2021-09-22,10:30:12,11:52:41,NA,incomplete,false,NA,true,4,5,NA,left,E13_Q2_ansL.png,E13_Q10_ansL.png,within,NA,NaN,NA,right,677.5999999046326,0,2,1198.7999999523163
KYuhKx6Q,NA,NA,KYuhKx6Q,2020-0188,2021-09-22,10:30:12,11:52:41,NA,incomplete,false,NA,true,4,6,NA,left,E13_Q7_ansL.png,E31_Q9_ansL.png,between,NA,NaN,NA,right,618.0999999046326,0,2,1358.2999999523163
KYuhKx6Q,NA,NA,KYuhKx6Q,2020-0188,2021-09-22,10:30:12,11:52:41,NA,incomplete,false,NA,true,4,7,NA,left,E31_Q8_ansR.png,E31_Q6_ansL.png,within,NA,NaN,NA,right,622.2000000476837,0,2,1356.5999999046326
KYuhKx6Q,NA,NA,KYuhKx6Q,2020-0188,2021-09-22,10:30:12,11:52:41,NA,incomplete,false,NA,true,4,8,NA,right,E13_Q1_ansL.png,E13_Q4_ansR.png,within,NA,NaN,NA,right,566.2999999523163,1,2,1491.8999998569489
KYuhKx6Q,NA,NA,KYuhKx6Q,2020-0188,2021-09-22,10:30:12,11:52:41,NA,incomplete,false,NA,true,4,9,NA,left,E29_Q6_ansR.png,E29_Q4_ansR.png,within,NA,NaN,NA,right,565.9000000953674,0,1,1264.4000000953674
KYuhKx6Q,NA,NA,KYuhKx6Q,2020-0188,2021-09-22,10:30:12,11:52:41,NA,incomplete,false,NA,true,4,10,NA,left,E13_Q1_ansL.png,E13_Q8_ansL.png,within,NA,NaN,NA,right,643.5999999046326,0,1,2372.7000000476837
KYuhKx6Q,NA,NA,KYuhKx6Q,2020-0188,2021-09-22,10:30:12,11:52:41,NA,incomplete,false,NA,true,4,11,NA,left,E29_Q4_ansR.png,E29_Q10_ansL.png,within,NA,NaN,NA,right,578.7000000476837,0,1,1250.4000000953674
KYuhKx6Q,NA,NA,KYuhKx6Q,2020-0188,2021-09-22,10:30:12,11:52:41,NA,incomplete,false,NA,true,4,12,NA,right,E13_Q3_ansR.png,E13_Q5_ansR.png,within,NA,NaN,NA,right,534.0999999046326,1,3,2465.7999999523163
KYuhKx6Q,NA,NA,KYuhKx6Q,2020-0188,2021-09-22,10:30:12,11:52:41,NA,incomplete,false,NA,true,4,13,NA,right,E31_Q4_ansL.png,E31_Q10_ansR.png,within,NA,NaN,NA,right,814.5999999046326,1,3,1033.7999999523163
KYuhKx6Q,NA,NA,KYuhKx6Q,2020-0188,2021-09-22,10:30:12,11:52:41,NA,incomplete,false,NA,true,4,14,NA,right,E31_Q10_ansR.png,E31_Q1_ansR.png,within,NA,NaN,NA,right,599.5999999046326,1,0,1235.2000000476837
KYuhKx6Q,NA,NA,KYuhKx6Q,2020-0188,2021-09-22,10:30:12,11:52:41,NA,incomplete,false,NA,true,4,15,NA,right,E13_Q9_ansR.png,E13_Q8_ansL.png,within,NA,NaN,NA,right,622.5999999046326,1,1,1294.2999999523163
KYuhKx6Q,NA,NA,KYuhKx6Q,2020-0188,2021-09-22,10:30:12,11:52:41,NA,incomplete,false,NA,true,4,16,NA,left,E29_Q3_ansR.png,E29_Q1_ansL.png,within,NA,NaN,NA,right,558.5999999046326,0,1,1557.8000001907349
KYuhKx6Q,NA,NA,KYuhKx6Q,2020-0188,2021-09-22,10:30:12,11:52:41,NA,incomplete,false,NA,true,4,17,NA,right,E31_Q8_ansR.png,E31_Q3_ansL.png,within,NA,NaN,NA,right,534.5,1,1,2124.7999999523163
KYuhKx6Q,NA,NA,KYuhKx6Q,2020-0188,2021-09-22,10:30:12,11:52:41,NA,incomplete,false,NA,true,4,18,NA,left,E13_Q3_ansR.png,E13_Q6_ansR.png,within,NA,NaN,NA,right,630.7999999523163,0,1,2341.5999999046326
KYuhKx6Q,NA,NA,KYuhKx6Q,2020-0188,2021-09-22,10:30:12,11:52:41,NA,incomplete,false,NA,true,4,19,NA,left,E29_Q9_ansR.png,E13_Q4_ansR.png,between,NA,NaN,NA,right,767.7000000476837,0,1,1238.2000000476837
KYuhKx6Q,NA,NA,KYuhKx6Q,2020-0188,2021-09-22,10:30:12,11:52:41,NA,incomplete,false,NA,true,4,20,NA,right,E13_Q7_ansL.png,E13_Q10_ansL.png,within,NA,NaN,NA,right,633.2000000476837,1,1,1179
KYuhKx6Q,NA,NA,KYuhKx6Q,2020-0188,2021-09-22,10:30:12,11:52:41,NA,incomplete,false,NA,true,4,21,NA,right,E31_Q7_ansR.png,E31_Q5_ansL.png,within,NA,NaN,NA,right,705,1,1,1145.9000000953674
KYuhKx6Q,NA,NA,KYuhKx6Q,2020-0188,2021-09-22,10:30:12,11:52:41,NA,incomplete,false,NA,true,4,22,NA,left,E13_Q6_ansR.png,E31_Q3_ansL.png,between,NA,NaN,NA,right,869,0,2,2500.600000143051
KYuhKx6Q,NA,NA,KYuhKx6Q,2020-0188,2021-09-22,10:30:12,11:52:41,NA,incomplete,false,NA,true,4,23,NA,left,E29_Q1_ansL.png,E29_Q5_ansR.png,within,NA,NaN,NA,right,779.7999999523163,0,1,3658
KYuhKx6Q,NA,NA,KYuhKx6Q,2020-0188,2021-09-22,10:30:12,11:52:41,NA,incomplete,false,NA,true,4,24,NA,right,E29_Q7_ansL.png,E29_Q10_ansL.png,within,NA,NaN,NA,right,686.2000000476837,1,1,1251.5
KYuhKx6Q,NA,NA,KYuhKx6Q,2020-0188,2021-09-22,10:30:12,11:52:41,NA,incomplete,false,NA,true,4,25,NA,left,E29_Q2_ansL.png,E29_Q8_ansL.png,within,NA,NaN,NA,right,1008.2000000476837,0,1,1175.1999998092651
KYuhKx6Q,NA,NA,KYuhKx6Q,2020-0188,2021-09-22,10:30:12,11:52:41,NA,incomplete,false,NA,true,4,26,NA,left,E29_Q8_ansL.png,E29_Q9_ansR.png,within,NA,NaN,NA,right,607.2000000476837,0,1,1117.7000000476837
KYuhKx6Q,NA,NA,KYuhKx6Q,2020-0188,2021-09-22,10:30:12,11:52:41,NA,incomplete,false,true,NA,5,0,E26_Q10_ansL.png,left,NA,NA,NA,left,1830,true,NA,NA,NA,NA,NA
KYuhKx6Q,NA,NA,KYuhKx6Q,2020-0188,2021-09-22,10:30:12,11:52:41,NA,incomplete,false,true,NA,5,1,E26_Q4_ansR.png,right,NA,NA,NA,right,1526.80000019073,true,NA,NA,NA,NA,NA
KYuhKx6Q,NA,NA,KYuhKx6Q,2020-0188,2021-09-22,10:30:12,11:52:41,NA,incomplete,false,true,NA,5,2,E26_Q7_ansL.png,left,NA,NA,NA,left,1173.69999980927,true,NA,NA,NA,NA,NA
KYuhKx6Q,NA,NA,KYuhKx6Q,2020-0188,2021-09-22,10:30:12,11:52:41,NA,incomplete,false,true,NA,5,3,E26_Q1_ansL.png,left,NA,NA,NA,right,1324.20000004768,false,NA,NA,NA,NA,NA
KYuhKx6Q,NA,NA,KYuhKx6Q,2020-0188,2021-09-22,10:30:12,11:52:41,NA,incomplete,false,true,NA,5,4,E26_Q2_ansL.png,left,NA,NA,NA,left,2207.30000019073,true,NA,NA,NA,NA,NA
KYuhKx6Q,NA,NA,KYuhKx6Q,2020-0188,2021-09-22,10:30:12,11:52:41,NA,incomplete,false,true,NA,5,5,E26_Q9_ansR.png,right,NA,NA,NA,right,1611.5,true,NA,NA,NA,NA,NA
KYuhKx6Q,NA,NA,KYuhKx6Q,2020-0188,2021-09-22,10:30:12,11:52:41,NA,incomplete,false,true,NA,5,6,E26_Q8_ansL.png,left,NA,NA,NA,left,1547.79999995232,true,NA,NA,NA,NA,NA
KYuhKx6Q,NA,NA,KYuhKx6Q,2020-0188,2021-09-22,10:30:12,11:52:41,NA,incomplete,false,true,NA,5,7,E26_Q3_ansR.png,right,NA,NA,NA,right,1476.89999985695,true,NA,NA,NA,NA,NA
KYuhKx6Q,NA,NA,KYuhKx6Q,2020-0188,2021-09-22,10:30:12,11:52:41,NA,incomplete,false,true,NA,5,8,E26_Q6_ansR.png,right,NA,NA,NA,right,1266.5,true,NA,NA,NA,NA,NA
KYuhKx6Q,NA,NA,KYuhKx6Q,2020-0188,2021-09-22,10:30:12,11:52:41,NA,incomplete,false,true,NA,5,9,E26_Q5_ansR.png,right,NA,NA,NA,right,1338.89999985695,true,NA,NA,NA,NA,NA
KYuhKx6Q,NA,NA,KYuhKx6Q,2020-0188,2021-09-22,10:30:12,11:52:41,NA,incomplete,false,true,NA,5,10,E10_Q7_ansR.png,right,NA,NA,NA,left,2677.09999990463,false,NA,NA,NA,NA,NA
KYuhKx6Q,NA,NA,KYuhKx6Q,2020-0188,2021-09-22,10:30:12,11:52:41,NA,incomplete,false,true,NA,5,11,E10_Q8_ansR.png,right,NA,NA,NA,right,2609.90000009537,true,NA,NA,NA,NA,NA
KYuhKx6Q,NA,NA,KYuhKx6Q,2020-0188,2021-09-22,10:30:12,11:52:41,NA,incomplete,false,true,NA,5,12,E10_Q9_ansL.png,left,NA,NA,NA,left,2138.90000009537,true,NA,NA,NA,NA,NA
KYuhKx6Q,NA,NA,KYuhKx6Q,2020-0188,2021-09-22,10:30:12,11:52:41,NA,incomplete,false,true,NA,5,13,E10_Q4_ansL.png,left,NA,NA,NA,left,2531.20000004768,true,NA,NA,NA,NA,NA
KYuhKx6Q,NA,NA,KYuhKx6Q,2020-0188,2021-09-22,10:30:12,11:52:41,NA,incomplete,false,true,NA,5,14,E10_Q2_ansL.png,left,NA,NA,NA,left,2960.5,true,NA,NA,NA,NA,NA
KYuhKx6Q,NA,NA,KYuhKx6Q,2020-0188,2021-09-22,10:30:12,11:52:41,NA,incomplete,false,true,NA,5,15,E10_Q6_ansR.png,right,NA,NA,NA,right,2465.09999990463,true,NA,NA,NA,NA,NA
KYuhKx6Q,NA,NA,KYuhKx6Q,2020-0188,2021-09-22,10:30:12,11:52:41,NA,incomplete,false,true,NA,5,16,E10_Q1_ansL.png,left,NA,NA,NA,left,1919.70000004768,true,NA,NA,NA,NA,NA
KYuhKx6Q,NA,NA,KYuhKx6Q,2020-0188,2021-09-22,10:30:12,11:52:41,NA,incomplete,false,true,NA,5,17,E10_Q10_ansR.png,right,NA,NA,NA,right,2242.60000014305,true,NA,NA,NA,NA,NA
KYuhKx6Q,NA,NA,KYuhKx6Q,2020-0188,2021-09-22,10:30:12,11:52:41,NA,incomplete,false,true,NA,5,18,E10_Q5_ansR.png,right,NA,NA,NA,right,2283.59999990463,true,NA,NA,NA,NA,NA
KYuhKx6Q,NA,NA,KYuhKx6Q,2020-0188,2021-09-22,10:30:12,11:52:41,NA,incomplete,false,true,NA,5,19,E10_Q3_ansL.png,left,NA,NA,NA,left,2538.90000009537,true,NA,NA,NA,NA,NA
KYuhKx6Q,NA,NA,KYuhKx6Q,2020-0188,2021-09-22,10:30:12,11:52:41,NA,incomplete,false,true,NA,5,20,E5_Q3_ansR.png,right,NA,NA,NA,right,1139,true,NA,NA,NA,NA,NA
KYuhKx6Q,NA,NA,KYuhKx6Q,2020-0188,2021-09-22,10:30:12,11:52:41,NA,incomplete,false,true,NA,5,21,E5_Q10_ansR.png,right,NA,NA,NA,right,1084.29999995232,true,NA,NA,NA,NA,NA
KYuhKx6Q,NA,NA,KYuhKx6Q,2020-0188,2021-09-22,10:30:12,11:52:41,NA,incomplete,false,true,NA,5,22,E5_Q4_ansR.png,right,NA,NA,NA,right,1428.29999995232,true,NA,NA,NA,NA,NA
KYuhKx6Q,NA,NA,KYuhKx6Q,2020-0188,2021-09-22,10:30:12,11:52:41,NA,incomplete,false,true,NA,5,23,E5_Q5_ansR.png,right,NA,NA,NA,right,1073.79999995232,true,NA,NA,NA,NA,NA
KYuhKx6Q,NA,NA,KYuhKx6Q,2020-0188,2021-09-22,10:30:12,11:52:41,NA,incomplete,false,true,NA,5,24,E5_Q6_ansR.png,right,NA,NA,NA,left,412.5,false,NA,NA,NA,NA,NA
KYuhKx6Q,NA,NA,KYuhKx6Q,2020-0188,2021-09-22,10:30:12,11:52:41,NA,incomplete,false,true,NA,5,25,E5_Q1_ansL.png,left,NA,NA,NA,left,1785.09999990463,true,NA,NA,NA,NA,NA
KYuhKx6Q,NA,NA,KYuhKx6Q,2020-0188,2021-09-22,10:30:12,11:52:41,NA,incomplete,false,true,NA,5,26,E5_Q7_ansL.png,left,NA,NA,NA,left,1923,true,NA,NA,NA,NA,NA
KYuhKx6Q,NA,NA,KYuhKx6Q,2020-0188,2021-09-22,10:30:12,11:52:41,NA,incomplete,false,true,NA,5,27,E5_Q8_ansL.png,left,NA,NA,NA,left,1970.29999995232,true,NA,NA,NA,NA,NA
KYuhKx6Q,NA,NA,KYuhKx6Q,2020-0188,2021-09-22,10:30:12,11:52:41,NA,incomplete,false,true,NA,5,28,E5_Q9_ansR.png,right,NA,NA,NA,right,2085.29999995232,true,NA,NA,NA,NA,NA
KYuhKx6Q,NA,NA,KYuhKx6Q,2020-0188,2021-09-22,10:30:12,11:52:41,NA,incomplete,false,true,NA,5,29,E5_Q2_ansL.png,left,NA,NA,NA,left,1112.60000014305,true,NA,NA,NA,NA,NA
KYuhKx6Q,NA,NA,KYuhKx6Q,2020-0188,2021-09-22,10:30:12,11:52:41,NA,incomplete,false,NA,true,5,0,NA,left,E10_Q7_ansR.png,E10_Q4_ansL.png,within,NA,NaN,NA,left,2161.199999809265,1,0,1409.5999999046326
KYuhKx6Q,NA,NA,KYuhKx6Q,2020-0188,2021-09-22,10:30:12,11:52:41,NA,incomplete,false,NA,true,5,1,NA,right,E26_Q8_ansL.png,E26_Q1_ansL.png,within,NA,NaN,NA,right,925.2000000476837,1,1,1434.5999999046326
KYuhKx6Q,NA,NA,KYuhKx6Q,2020-0188,2021-09-22,10:30:12,11:52:41,NA,incomplete,false,NA,true,5,2,NA,left,E26_Q10_ansL.png,E26_Q1_ansL.png,within,NA,NaN,NA,right,920.0999999046326,0,1,1598.7000000476837
KYuhKx6Q,NA,NA,KYuhKx6Q,2020-0188,2021-09-22,10:30:12,11:52:41,NA,incomplete,false,NA,true,5,3,NA,left,E26_Q9_ansR.png,E26_Q6_ansR.png,within,NA,NaN,NA,right,742.6999998092651,0,1,1190.2000000476837
KYuhKx6Q,NA,NA,KYuhKx6Q,2020-0188,2021-09-22,10:30:12,11:52:41,NA,incomplete,false,NA,true,5,4,NA,right,E5_Q8_ansL.png,E5_Q6_ansR.png,within,NA,NaN,NA,right,671.9000000953674,1,2,1246.5
KYuhKx6Q,NA,NA,KYuhKx6Q,2020-0188,2021-09-22,10:30:12,11:52:41,NA,incomplete,false,NA,true,5,5,NA,right,E10_Q8_ansR.png,E26_Q6_ansR.png,between,NA,NaN,NA,right,758.1000001430511,1,2,1203.0999999046326
KYuhKx6Q,NA,NA,KYuhKx6Q,2020-0188,2021-09-22,10:30:12,11:52:41,NA,incomplete,false,NA,true,5,6,NA,right,E5_Q1_ansL.png,E5_Q4_ansR.png,within,NA,NaN,NA,right,1762,1,1,1034.6000001430511
KYuhKx6Q,NA,NA,KYuhKx6Q,2020-0188,2021-09-22,10:30:12,11:52:41,NA,incomplete,false,NA,true,5,7,NA,right,E10_Q6_ansR.png,E10_Q9_ansL.png,within,NA,NaN,NA,right,596.1000001430511,1,3,1810.1999998092651
KYuhKx6Q,NA,NA,KYuhKx6Q,2020-0188,2021-09-22,10:30:12,11:52:41,NA,incomplete,false,NA,true,5,8,NA,right,E10_Q10_ansR.png,E10_Q2_ansL.png,within,NA,NaN,NA,right,3955.2000000476837,1,2,991
KYuhKx6Q,NA,NA,KYuhKx6Q,2020-0188,2021-09-22,10:30:12,11:52:41,NA,incomplete,false,NA,true,5,9,NA,right,E5_Q4_ansR.png,E10_Q3_ansL.png,between,NA,NaN,NA,right,567,1,3,1290.3999998569489
KYuhKx6Q,NA,NA,KYuhKx6Q,2020-0188,2021-09-22,10:30:12,11:52:41,NA,incomplete,false,NA,true,5,10,NA,right,E5_Q3_ansR.png,E10_Q10_ansR.png,between,NA,NaN,NA,right,508,1,3,738.9000000953674
KYuhKx6Q,NA,NA,KYuhKx6Q,2020-0188,2021-09-22,10:30:12,11:52:41,NA,incomplete,false,NA,true,5,11,NA,left,E26_Q3_ansR.png,E10_Q7_ansR.png,between,NA,NaN,NA,right,518.9000000953674,0,3,6491.799999952316
KYuhKx6Q,NA,NA,KYuhKx6Q,2020-0188,2021-09-22,10:30:12,11:52:41,NA,incomplete,false,NA,true,5,12,NA,right,E10_Q5_ansR.png,E10_Q6_ansR.png,within,NA,NaN,NA,right,1561.0999999046326,1,3,2461.7999999523163
KYuhKx6Q,NA,NA,KYuhKx6Q,2020-0188,2021-09-22,10:30:12,11:52:41,NA,incomplete,false,NA,true,5,13,NA,left,E26_Q7_ansL.png,E26_Q9_ansR.png,within,NA,NaN,NA,right,702.5999999046326,0,3,1072.2999999523163
KYuhKx6Q,NA,NA,KYuhKx6Q,2020-0188,2021-09-22,10:30:12,11:52:41,NA,incomplete,false,NA,true,5,14,NA,right,E26_Q3_ansR.png,E26_Q2_ansL.png,within,NA,NaN,NA,right,583.2999999523163,1,3,1230.5999999046326
KYuhKx6Q,NA,NA,KYuhKx6Q,2020-0188,2021-09-22,10:30:12,11:52:41,NA,incomplete,false,NA,true,5,15,NA,left,E5_Q3_ansR.png,E5_Q5_ansR.png,within,NA,NaN,NA,right,639.5,0,3,1064.8999998569489
KYuhKx6Q,NA,NA,KYuhKx6Q,2020-0188,2021-09-22,10:30:12,11:52:41,NA,incomplete,false,NA,true,5,16,NA,left,E10_Q8_ansR.png,E10_Q2_ansL.png,within,NA,NaN,NA,right,561.7000000476837,0,3,2187.0999999046326
KYuhKx6Q,NA,NA,KYuhKx6Q,2020-0188,2021-09-22,10:30:12,11:52:41,NA,incomplete,false,NA,true,5,17,NA,left,E5_Q1_ansL.png,E5_Q9_ansR.png,within,NA,NaN,NA,right,598.5,0,3,1535.0999999046326
KYuhKx6Q,NA,NA,KYuhKx6Q,2020-0188,2021-09-22,10:30:12,11:52:41,NA,incomplete,false,NA,true,5,18,NA,right,E26_Q5_ansR.png,E26_Q8_ansL.png,within,NA,NaN,NA,right,590.7999999523163,1,3,1400.2000000476837
KYuhKx6Q,NA,NA,KYuhKx6Q,2020-0188,2021-09-22,10:30:12,11:52:41,NA,incomplete,false,NA,true,5,19,NA,left,E26_Q4_ansR.png,E26_Q2_ansL.png,within,NA,NaN,NA,right,588.2000000476837,0,3,1061.4000000953674
KYuhKx6Q,NA,NA,KYuhKx6Q,2020-0188,2021-09-22,10:30:12,11:52:41,NA,incomplete,false,NA,true,5,20,NA,right,E5_Q7_ansL.png,E5_Q5_ansR.png,within,NA,NaN,NA,right,630.5,1,3,1214.6000001430511
KYuhKx6Q,NA,NA,KYuhKx6Q,2020-0188,2021-09-22,10:30:12,11:52:41,NA,incomplete,false,NA,true,5,21,NA,left,E10_Q5_ansR.png,E5_Q10_ansR.png,between,NA,NaN,NA,right,551.6999998092651,0,3,1113.7999999523163
KYuhKx6Q,NA,NA,KYuhKx6Q,2020-0188,2021-09-22,10:30:12,11:52:41,NA,incomplete,false,NA,true,5,22,NA,left,E10_Q4_ansL.png,E10_Q1_ansL.png,within,NA,NaN,NA,right,558.2999999523163,0,3,1158.6999998092651
KYuhKx6Q,NA,NA,KYuhKx6Q,2020-0188,2021-09-22,10:30:12,11:52:41,NA,incomplete,false,NA,true,5,23,NA,right,E5_Q6_ansR.png,E5_Q10_ansR.png,within,NA,NaN,NA,right,549.7000000476837,1,3,1480.5
KYuhKx6Q,NA,NA,KYuhKx6Q,2020-0188,2021-09-22,10:30:12,11:52:41,NA,incomplete,false,NA,true,5,24,NA,right,E5_Q2_ansL.png,E5_Q7_ansL.png,within,NA,NaN,NA,right,879.1000001430511,1,3,977.6999998092651
KYuhKx6Q,NA,NA,KYuhKx6Q,2020-0188,2021-09-22,10:30:12,11:52:41,NA,incomplete,false,NA,true,5,25,NA,left,E10_Q1_ansL.png,E10_Q3_ansL.png,within,NA,NaN,NA,right,532.7999999523163,0,3,1525.5
KYuhKx6Q,NA,NA,KYuhKx6Q,2020-0188,2021-09-22,10:30:12,11:52:41,NA,incomplete,false,NA,true,5,26,NA,left,E26_Q5_ansR.png,E10_Q9_ansL.png,between,NA,NaN,NA,right,780.5999999046326,0,3,1673.8000001907349
KYuhKx6Q,NA,NA,KYuhKx6Q,2020-0188,2021-09-22,10:30:12,11:52:41,NA,incomplete,false,true,NA,6,0,E25_Q10_ansR.png,right,NA,NA,NA,left,2766.90000009537,false,NA,NA,NA,NA,NA
KYuhKx6Q,NA,NA,KYuhKx6Q,2020-0188,2021-09-22,10:30:12,11:52:41,NA,incomplete,false,true,NA,6,1,E25_Q5_ansL.png,left,NA,NA,NA,left,2374.70000004768,true,NA,NA,NA,NA,NA
KYuhKx6Q,NA,NA,KYuhKx6Q,2020-0188,2021-09-22,10:30:12,11:52:41,NA,incomplete,false,true,NA,6,2,E25_Q2_ansR.png,right,NA,NA,NA,right,1883.5,true,NA,NA,NA,NA,NA
KYuhKx6Q,NA,NA,KYuhKx6Q,2020-0188,2021-09-22,10:30:12,11:52:41,NA,incomplete,false,true,NA,6,3,E25_Q8_ansR.png,right,NA,NA,NA,right,1472.60000014305,true,NA,NA,NA,NA,NA
KYuhKx6Q,NA,NA,KYuhKx6Q,2020-0188,2021-09-22,10:30:12,11:52:41,NA,incomplete,false,true,NA,6,4,E25_Q7_ansR.png,right,NA,NA,NA,right,1952.59999990463,true,NA,NA,NA,NA,NA
KYuhKx6Q,NA,NA,KYuhKx6Q,2020-0188,2021-09-22,10:30:12,11:52:41,NA,incomplete,false,true,NA,6,5,E25_Q3_ansL.png,left,NA,NA,NA,left,2299.39999985695,true,NA,NA,NA,NA,NA
KYuhKx6Q,NA,NA,KYuhKx6Q,2020-0188,2021-09-22,10:30:12,11:52:41,NA,incomplete,false,true,NA,6,6,E25_Q4_ansL.png,left,NA,NA,NA,left,1809.20000004768,true,NA,NA,NA,NA,NA
KYuhKx6Q,NA,NA,KYuhKx6Q,2020-0188,2021-09-22,10:30:12,11:52:41,NA,incomplete,false,true,NA,6,7,E25_Q9_ansL.png,left,NA,NA,NA,left,3036.5,true,NA,NA,NA,NA,NA
KYuhKx6Q,NA,NA,KYuhKx6Q,2020-0188,2021-09-22,10:30:12,11:52:41,NA,incomplete,false,true,NA,6,8,E25_Q6_ansL.png,left,NA,NA,NA,left,1388.09999990463,true,NA,NA,NA,NA,NA
KYuhKx6Q,NA,NA,KYuhKx6Q,2020-0188,2021-09-22,10:30:12,11:52:41,NA,incomplete,false,true,NA,6,9,E25_Q1_ansR.png,right,NA,NA,NA,right,1042.70000004768,true,NA,NA,NA,NA,NA
KYuhKx6Q,NA,NA,KYuhKx6Q,2020-0188,2021-09-22,10:30:12,11:52:41,NA,incomplete,false,true,NA,6,10,E4_Q6_ansR.png,right,NA,NA,NA,right,1303.59999990463,true,NA,NA,NA,NA,NA
KYuhKx6Q,NA,NA,KYuhKx6Q,2020-0188,2021-09-22,10:30:12,11:52:41,NA,incomplete,false,true,NA,6,11,E4_Q3_ansL.png,left,NA,NA,NA,left,2654.79999995232,true,NA,NA,NA,NA,NA
KYuhKx6Q,NA,NA,KYuhKx6Q,2020-0188,2021-09-22,10:30:12,11:52:41,NA,incomplete,false,true,NA,6,12,E4_Q1_ansL.png,left,NA,NA,NA,left,1344.90000009537,true,NA,NA,NA,NA,NA
KYuhKx6Q,NA,NA,KYuhKx6Q,2020-0188,2021-09-22,10:30:12,11:52:41,NA,incomplete,false,true,NA,6,13,E4_Q7_ansR.png,right,NA,NA,NA,right,1543.59999990463,true,NA,NA,NA,NA,NA
KYuhKx6Q,NA,NA,KYuhKx6Q,2020-0188,2021-09-22,10:30:12,11:52:41,NA,incomplete,false,true,NA,6,14,E4_Q10_ansR.png,right,NA,NA,NA,right,1279.29999995232,true,NA,NA,NA,NA,NA
KYuhKx6Q,NA,NA,KYuhKx6Q,2020-0188,2021-09-22,10:30:12,11:52:41,NA,incomplete,false,true,NA,6,15,E4_Q2_ansL.png,left,NA,NA,NA,left,1311.89999985695,true,NA,NA,NA,NA,NA
KYuhKx6Q,NA,NA,KYuhKx6Q,2020-0188,2021-09-22,10:30:12,11:52:41,NA,incomplete,false,true,NA,6,16,E4_Q9_ansL.png,left,NA,NA,NA,left,952.700000047684,true,NA,NA,NA,NA,NA
KYuhKx6Q,NA,NA,KYuhKx6Q,2020-0188,2021-09-22,10:30:12,11:52:41,NA,incomplete,false,true,NA,6,17,E4_Q5_ansR.png,right,NA,NA,NA,right,1206.29999995232,true,NA,NA,NA,NA,NA
KYuhKx6Q,NA,NA,KYuhKx6Q,2020-0188,2021-09-22,10:30:12,11:52:41,NA,incomplete,false,true,NA,6,18,E4_Q8_ansR.png,right,NA,NA,NA,right,1235.20000004768,true,NA,NA,NA,NA,NA
KYuhKx6Q,NA,NA,KYuhKx6Q,2020-0188,2021-09-22,10:30:12,11:52:41,NA,incomplete,false,true,NA,6,19,E4_Q4_ansL.png,left,NA,NA,NA,none,0,false,NA,NA,NA,NA,NA
KYuhKx6Q,NA,NA,KYuhKx6Q,2020-0188,2021-09-22,10:30:12,11:52:41,NA,incomplete,false,true,NA,6,20,E1_Q7_ansL.png,left,NA,NA,NA,left,1315,true,NA,NA,NA,NA,NA
KYuhKx6Q,NA,NA,KYuhKx6Q,2020-0188,2021-09-22,10:30:12,11:52:41,NA,incomplete,false,true,NA,6,21,E1_Q2_ansL.png,left,NA,NA,NA,left,1831.40000009537,true,NA,NA,NA,NA,NA
KYuhKx6Q,NA,NA,KYuhKx6Q,2020-0188,2021-09-22,10:30:12,11:52:41,NA,incomplete,false,true,NA,6,22,E1_Q10_ansR.png,right,NA,NA,NA,right,1556.5,true,NA,NA,NA,NA,NA
KYuhKx6Q,NA,NA,KYuhKx6Q,2020-0188,2021-09-22,10:30:12,11:52:41,NA,incomplete,false,true,NA,6,23,E1_Q1_ansL.png,left,NA,NA,NA,left,1003.19999980927,true,NA,NA,NA,NA,NA
KYuhKx6Q,NA,NA,KYuhKx6Q,2020-0188,2021-09-22,10:30:12,11:52:41,NA,incomplete,false,true,NA,6,24,E1_Q6_ansR.png,right,NA,NA,NA,right,1033.20000004768,true,NA,NA,NA,NA,NA
KYuhKx6Q,NA,NA,KYuhKx6Q,2020-0188,2021-09-22,10:30:12,11:52:41,NA,incomplete,false,true,NA,6,25,E1_Q3_ansR.png,right,NA,NA,NA,right,1138.20000004768,true,NA,NA,NA,NA,NA
KYuhKx6Q,NA,NA,KYuhKx6Q,2020-0188,2021-09-22,10:30:12,11:52:41,NA,incomplete,false,true,NA,6,26,E1_Q9_ansL.png,left,NA,NA,NA,left,1557.29999995232,true,NA,NA,NA,NA,NA
KYuhKx6Q,NA,NA,KYuhKx6Q,2020-0188,2021-09-22,10:30:12,11:52:41,NA,incomplete,false,true,NA,6,27,E1_Q8_ansR.png,right,NA,NA,NA,right,971.200000047684,true,NA,NA,NA,NA,NA
KYuhKx6Q,NA,NA,KYuhKx6Q,2020-0188,2021-09-22,10:30:12,11:52:41,NA,incomplete,false,true,NA,6,28,E1_Q5_ansR.png,right,NA,NA,NA,right,1473.29999995232,true,NA,NA,NA,NA,NA
KYuhKx6Q,NA,NA,KYuhKx6Q,2020-0188,2021-09-22,10:30:12,11:52:41,NA,incomplete,false,true,NA,6,29,E1_Q4_ansL.png,left,NA,NA,NA,left,1420.90000009537,true,NA,NA,NA,NA,NA
KYuhKx6Q,NA,NA,KYuhKx6Q,2020-0188,2021-09-22,10:30:12,11:52:41,NA,incomplete,false,NA,true,6,0,NA,left,E1_Q1_ansL.png,E1_Q9_ansL.png,within,NA,NaN,NA,right,837,0,3,1100.1000001430511
KYuhKx6Q,NA,NA,KYuhKx6Q,2020-0188,2021-09-22,10:30:12,11:52:41,NA,incomplete,false,NA,true,6,1,NA,right,E25_Q9_ansL.png,E25_Q7_ansR.png,within,NA,NaN,NA,right,632.5,1,3,958.3999998569489
KYuhKx6Q,NA,NA,KYuhKx6Q,2020-0188,2021-09-22,10:30:12,11:52:41,NA,incomplete,false,NA,true,6,2,NA,left,E25_Q1_ansR.png,E4_Q1_ansL.png,between,NA,NaN,NA,right,591.5999999046326,0,3,828
KYuhKx6Q,NA,NA,KYuhKx6Q,2020-0188,2021-09-22,10:30:12,11:52:41,NA,incomplete,false,NA,true,6,3,NA,left,E4_Q3_ansL.png,E4_Q10_ansR.png,within,NA,NaN,NA,right,649.5,0,3,1987.2000000476837
KYuhKx6Q,NA,NA,KYuhKx6Q,2020-0188,2021-09-22,10:30:12,11:52:41,NA,incomplete,false,NA,true,6,4,NA,left,E4_Q1_ansL.png,E4_Q2_ansL.png,within,NA,NaN,NA,right,925.6000001430511,0,3,3815.5999999046326
KYuhKx6Q,NA,NA,KYuhKx6Q,2020-0188,2021-09-22,10:30:12,11:52:41,NA,incomplete,false,NA,true,6,5,NA,right,E25_Q6_ansL.png,E25_Q3_ansL.png,within,NA,NaN,NA,right,1307.1000001430511,1,3,1655.3999998569489
KYuhKx6Q,NA,NA,KYuhKx6Q,2020-0188,2021-09-22,10:30:12,11:52:41,NA,incomplete,false,NA,true,6,6,NA,right,E4_Q4_ansL.png,E4_Q9_ansL.png,within,NA,NaN,NA,right,854.9000000953674,1,3,1711.7999999523163
KYuhKx6Q,NA,NA,KYuhKx6Q,2020-0188,2021-09-22,10:30:12,11:52:41,NA,incomplete,false,NA,true,6,7,NA,right,E25_Q7_ansR.png,E25_Q5_ansL.png,within,NA,NaN,NA,right,966.5,1,3,1063.5
KYuhKx6Q,NA,NA,KYuhKx6Q,2020-0188,2021-09-22,10:30:12,11:52:41,NA,incomplete,false,NA,true,6,8,NA,right,E25_Q8_ansR.png,E25_Q10_ansR.png,within,NA,NaN,NA,right,616.4000000953674,1,3,965.5
KYuhKx6Q,NA,NA,KYuhKx6Q,2020-0188,2021-09-22,10:30:12,11:52:41,NA,incomplete,false,NA,true,6,9,NA,right,E1_Q3_ansR.png,E1_Q10_ansR.png,within,NA,NaN,NA,right,592,1,3,1205.1000001430511
KYuhKx6Q,NA,NA,KYuhKx6Q,2020-0188,2021-09-22,10:30:12,11:52:41,NA,incomplete,false,NA,true,6,10,NA,left,E4_Q8_ansR.png,E1_Q2_ansL.png,between,NA,NaN,NA,right,516.2000000476837,0,3,1758.2999999523163
KYuhKx6Q,NA,NA,KYuhKx6Q,2020-0188,2021-09-22,10:30:12,11:52:41,NA,incomplete,false,NA,true,6,11,NA,right,E1_Q7_ansL.png,E4_Q5_ansR.png,between,NA,NaN,NA,right,565.2999999523163,1,3,2906.7999999523163
KYuhKx6Q,NA,NA,KYuhKx6Q,2020-0188,2021-09-22,10:30:12,11:52:41,NA,incomplete,false,NA,true,6,12,NA,right,E25_Q1_ansR.png,E25_Q4_ansL.png,within,NA,NaN,NA,right,579.5999999046326,1,3,1326.2999999523163
KYuhKx6Q,NA,NA,KYuhKx6Q,2020-0188,2021-09-22,10:30:12,11:52:41,NA,incomplete,false,NA,true,6,13,NA,left,E1_Q6_ansR.png,E1_Q8_ansR.png,within,NA,NaN,NA,right,1162,0,3,1083.4000000953674
KYuhKx6Q,NA,NA,KYuhKx6Q,2020-0188,2021-09-22,10:30:12,11:52:41,NA,incomplete,false,NA,true,6,14,NA,right,E4_Q8_ansR.png,E4_Q2_ansL.png,within,NA,NaN,NA,right,1550.7000000476837,1,3,1432.2000000476837
KYuhKx6Q,NA,NA,KYuhKx6Q,2020-0188,2021-09-22,10:30:12,11:52:41,NA,incomplete,false,NA,true,6,15,NA,right,E1_Q1_ansL.png,E1_Q7_ansL.png,within,NA,NaN,NA,right,1330.5,1,3,1262.3999998569489
KYuhKx6Q,NA,NA,KYuhKx6Q,2020-0188,2021-09-22,10:30:12,11:52:41,NA,incomplete,false,NA,true,6,16,NA,right,E4_Q7_ansR.png,E4_Q6_ansR.png,within,NA,NaN,NA,right,2097.5999999046326,1,3,1301.9000000953674
KYuhKx6Q,NA,NA,KYuhKx6Q,2020-0188,2021-09-22,10:30:12,11:52:41,NA,incomplete,false,NA,true,6,17,NA,right,E4_Q6_ansR.png,E25_Q9_ansL.png,between,NA,NaN,NA,right,613.9000000953674,1,3,1144.9000000953674
KYuhKx6Q,NA,NA,KYuhKx6Q,2020-0188,2021-09-22,10:30:12,11:52:41,NA,incomplete,false,NA,true,6,18,NA,left,E1_Q9_ansL.png,E1_Q4_ansL.png,within,NA,NaN,NA,right,622.1999998092651,0,3,1176.5
KYuhKx6Q,NA,NA,KYuhKx6Q,2020-0188,2021-09-22,10:30:12,11:52:41,NA,incomplete,false,NA,true,6,19,NA,right,E1_Q6_ansR.png,E1_Q2_ansL.png,within,NA,NaN,NA,right,540.7999999523163,1,3,1061.8999998569489
KYuhKx6Q,NA,NA,KYuhKx6Q,2020-0188,2021-09-22,10:30:12,11:52:41,NA,incomplete,false,NA,true,6,20,NA,right,E1_Q5_ansR.png,E1_Q3_ansR.png,within,NA,NaN,NA,right,2670,1,3,1287.7999999523163
KYuhKx6Q,NA,NA,KYuhKx6Q,2020-0188,2021-09-22,10:30:12,11:52:41,NA,incomplete,false,NA,true,6,21,NA,left,E25_Q8_ansR.png,E25_Q4_ansL.png,within,NA,NaN,NA,right,668.7999999523163,0,3,1931.8000001907349
KYuhKx6Q,NA,NA,KYuhKx6Q,2020-0188,2021-09-22,10:30:12,11:52:41,NA,incomplete,false,NA,true,6,22,NA,right,E25_Q3_ansL.png,E25_Q2_ansR.png,within,NA,NaN,NA,right,598.7999999523163,1,3,1212
KYuhKx6Q,NA,NA,KYuhKx6Q,2020-0188,2021-09-22,10:30:12,11:52:41,NA,incomplete,false,NA,true,6,23,NA,right,E4_Q5_ansR.png,E4_Q10_ansR.png,within,NA,NaN,NA,right,574,1,3,1095.5999999046326
KYuhKx6Q,NA,NA,KYuhKx6Q,2020-0188,2021-09-22,10:30:12,11:52:41,NA,incomplete,false,NA,true,6,24,NA,left,E4_Q7_ansR.png,E4_Q9_ansL.png,within,NA,NaN,NA,right,571.5,0,3,1012.9000000953674
KYuhKx6Q,NA,NA,KYuhKx6Q,2020-0188,2021-09-22,10:30:12,11:52:41,NA,incomplete,false,NA,true,6,25,NA,right,E4_Q3_ansL.png,E25_Q6_ansL.png,between,NA,NaN,NA,right,638.7000000476837,1,3,1085.2999999523163
KYuhKx6Q,NA,NA,KYuhKx6Q,2020-0188,2021-09-22,10:30:12,11:52:41,NA,incomplete,false,NA,true,6,26,NA,left,E4_Q4_ansL.png,E1_Q10_ansR.png,between,NA,NaN,NA,right,528.0999999046326,0,3,1308.9000000953674
KYuhKx6Q,NA,NA,KYuhKx6Q,2020-0188,2021-09-22,10:30:12,11:52:41,NA,incomplete,false,true,NA,7,0,E18_Q10_ansL.png,left,NA,NA,NA,left,2530.19999980927,true,NA,NA,NA,NA,NA
KYuhKx6Q,NA,NA,KYuhKx6Q,2020-0188,2021-09-22,10:30:12,11:52:41,NA,incomplete,false,true,NA,7,1,E18_Q8_ansL.png,left,NA,NA,NA,left,729.299999952316,true,NA,NA,NA,NA,NA
KYuhKx6Q,NA,NA,KYuhKx6Q,2020-0188,2021-09-22,10:30:12,11:52:41,NA,incomplete,false,true,NA,7,2,E18_Q9_ansR.png,right,NA,NA,NA,right,1262.5,true,NA,NA,NA,NA,NA
KYuhKx6Q,NA,NA,KYuhKx6Q,2020-0188,2021-09-22,10:30:12,11:52:41,NA,incomplete,false,true,NA,7,3,E18_Q6_ansR.png,right,NA,NA,NA,right,1442.5,true,NA,NA,NA,NA,NA
KYuhKx6Q,NA,NA,KYuhKx6Q,2020-0188,2021-09-22,10:30:12,11:52:41,NA,incomplete,false,true,NA,7,4,E18_Q3_ansR.png,right,NA,NA,NA,right,1191.20000004768,true,NA,NA,NA,NA,NA
KYuhKx6Q,NA,NA,KYuhKx6Q,2020-0188,2021-09-22,10:30:12,11:52:41,NA,incomplete,false,true,NA,7,5,E18_Q1_ansL.png,left,NA,NA,NA,left,2007.40000009537,true,NA,NA,NA,NA,NA
KYuhKx6Q,NA,NA,KYuhKx6Q,2020-0188,2021-09-22,10:30:12,11:52:41,NA,incomplete,false,true,NA,7,6,E18_Q2_ansL.png,left,NA,NA,NA,left,1110.19999980927,true,NA,NA,NA,NA,NA
KYuhKx6Q,NA,NA,KYuhKx6Q,2020-0188,2021-09-22,10:30:12,11:52:41,NA,incomplete,false,true,NA,7,7,E18_Q5_ansR.png,right,NA,NA,NA,right,1306.29999995232,true,NA,NA,NA,NA,NA
KYuhKx6Q,NA,NA,KYuhKx6Q,2020-0188,2021-09-22,10:30:12,11:52:41,NA,incomplete,false,true,NA,7,8,E18_Q4_ansR.png,right,NA,NA,NA,right,1148.5,true,NA,NA,NA,NA,NA
KYuhKx6Q,NA,NA,KYuhKx6Q,2020-0188,2021-09-22,10:30:12,11:52:41,NA,incomplete,false,true,NA,7,9,E18_Q7_ansL.png,left,NA,NA,NA,left,1433.70000004768,true,NA,NA,NA,NA,NA
KYuhKx6Q,NA,NA,KYuhKx6Q,2020-0188,2021-09-22,10:30:12,11:52:41,NA,incomplete,false,true,NA,7,10,E14_Q1_ansL.png,left,NA,NA,NA,left,1601.80000019073,true,NA,NA,NA,NA,NA
KYuhKx6Q,NA,NA,KYuhKx6Q,2020-0188,2021-09-22,10:30:12,11:52:41,NA,incomplete,false,true,NA,7,11,E14_Q2_ansL.png,left,NA,NA,NA,left,1022.60000014305,true,NA,NA,NA,NA,NA
KYuhKx6Q,NA,NA,KYuhKx6Q,2020-0188,2021-09-22,10:30:12,11:52:41,NA,incomplete,false,true,NA,7,12,E14_Q5_ansR.png,right,NA,NA,NA,left,1238.79999995232,false,NA,NA,NA,NA,NA
KYuhKx6Q,NA,NA,KYuhKx6Q,2020-0188,2021-09-22,10:30:12,11:52:41,NA,incomplete,false,true,NA,7,13,E14_Q10_ansL.png,left,NA,NA,NA,right,2040.59999990463,false,NA,NA,NA,NA,NA
KYuhKx6Q,NA,NA,KYuhKx6Q,2020-0188,2021-09-22,10:30:12,11:52:41,NA,incomplete,false,true,NA,7,14,E14_Q6_ansR.png,right,NA,NA,NA,right,1083.59999990463,true,NA,NA,NA,NA,NA
KYuhKx6Q,NA,NA,KYuhKx6Q,2020-0188,2021-09-22,10:30:12,11:52:41,NA,incomplete,false,true,NA,7,15,E14_Q3_ansR.png,right,NA,NA,NA,right,1042.29999995232,true,NA,NA,NA,NA,NA
KYuhKx6Q,NA,NA,KYuhKx6Q,2020-0188,2021-09-22,10:30:12,11:52:41,NA,incomplete,false,true,NA,7,16,E14_Q7_ansL.png,left,NA,NA,NA,left,750.300000190735,true,NA,NA,NA,NA,NA
KYuhKx6Q,NA,NA,KYuhKx6Q,2020-0188,2021-09-22,10:30:12,11:52:41,NA,incomplete,false,true,NA,7,17,E14_Q4_ansR.png,right,NA,NA,NA,right,1408.70000004768,true,NA,NA,NA,NA,NA
KYuhKx6Q,NA,NA,KYuhKx6Q,2020-0188,2021-09-22,10:30:12,11:52:41,NA,incomplete,false,true,NA,7,18,E14_Q8_ansL.png,left,NA,NA,NA,left,1105.5,true,NA,NA,NA,NA,NA
KYuhKx6Q,NA,NA,KYuhKx6Q,2020-0188,2021-09-22,10:30:12,11:52:41,NA,incomplete,false,true,NA,7,19,E14_Q9_ansR.png,right,NA,NA,NA,right,1351.20000004768,true,NA,NA,NA,NA,NA
KYuhKx6Q,NA,NA,KYuhKx6Q,2020-0188,2021-09-22,10:30:12,11:52:41,NA,incomplete,false,true,NA,7,20,E24_Q4_ansL.png,left,NA,NA,NA,left,2072.80000019073,true,NA,NA,NA,NA,NA
KYuhKx6Q,NA,NA,KYuhKx6Q,2020-0188,2021-09-22,10:30:12,11:52:41,NA,incomplete,false,true,NA,7,21,E24_Q10_ansR.png,right,NA,NA,NA,right,1664,true,NA,NA,NA,NA,NA
KYuhKx6Q,NA,NA,KYuhKx6Q,2020-0188,2021-09-22,10:30:12,11:52:41,NA,incomplete,false,true,NA,7,22,E24_Q2_ansR.png,right,NA,NA,NA,left,1407.79999995232,false,NA,NA,NA,NA,NA
KYuhKx6Q,NA,NA,KYuhKx6Q,2020-0188,2021-09-22,10:30:12,11:52:41,NA,incomplete,false,true,NA,7,23,E24_Q8_ansR.png,right,NA,NA,NA,right,962.299999952316,true,NA,NA,NA,NA,NA
KYuhKx6Q,NA,NA,KYuhKx6Q,2020-0188,2021-09-22,10:30:12,11:52:41,NA,incomplete,false,true,NA,7,24,E24_Q3_ansL.png,left,NA,NA,NA,left,1510,true,NA,NA,NA,NA,NA
KYuhKx6Q,NA,NA,KYuhKx6Q,2020-0188,2021-09-22,10:30:12,11:52:41,NA,incomplete,false,true,NA,7,25,E24_Q7_ansR.png,right,NA,NA,NA,right,1518.69999980927,true,NA,NA,NA,NA,NA
KYuhKx6Q,NA,NA,KYuhKx6Q,2020-0188,2021-09-22,10:30:12,11:52:41,NA,incomplete,false,true,NA,7,26,E24_Q9_ansL.png,left,NA,NA,NA,left,2472.20000004768,true,NA,NA,NA,NA,NA
KYuhKx6Q,NA,NA,KYuhKx6Q,2020-0188,2021-09-22,10:30:12,11:52:41,NA,incomplete,false,true,NA,7,27,E24_Q5_ansL.png,left,NA,NA,NA,left,1809.90000009537,true,NA,NA,NA,NA,NA
KYuhKx6Q,NA,NA,KYuhKx6Q,2020-0188,2021-09-22,10:30:12,11:52:41,NA,incomplete,false,true,NA,7,28,E24_Q6_ansL.png,left,NA,NA,NA,left,1265.60000014305,true,NA,NA,NA,NA,NA
KYuhKx6Q,NA,NA,KYuhKx6Q,2020-0188,2021-09-22,10:30:12,11:52:41,NA,incomplete,false,true,NA,7,29,E24_Q1_ansR.png,right,NA,NA,NA,left,1541.60000014305,false,NA,NA,NA,NA,NA
KYuhKx6Q,NA,NA,KYuhKx6Q,2020-0188,2021-09-22,10:30:12,11:52:41,NA,incomplete,false,NA,true,7,0,NA,right,E24_Q9_ansL.png,E24_Q8_ansR.png,within,NA,NaN,NA,right,1238.7999999523163,1,1,2352.9000000953674
KYuhKx6Q,NA,NA,KYuhKx6Q,2020-0188,2021-09-22,10:30:12,11:52:41,NA,incomplete,false,NA,true,7,1,NA,right,E18_Q7_ansL.png,E18_Q2_ansL.png,within,NA,NaN,NA,right,783.7999999523163,1,3,980.4000000953674
KYuhKx6Q,NA,NA,KYuhKx6Q,2020-0188,2021-09-22,10:30:12,11:52:41,NA,incomplete,false,NA,true,7,2,NA,left,E14_Q9_ansR.png,E24_Q2_ansR.png,between,NA,NaN,NA,right,674.5999999046326,0,3,1138.2000000476837
KYuhKx6Q,NA,NA,KYuhKx6Q,2020-0188,2021-09-22,10:30:12,11:52:41,NA,incomplete,false,NA,true,7,3,NA,right,E18_Q4_ansR.png,E18_Q1_ansL.png,within,NA,NaN,NA,right,773.2999999523163,1,2,1046.3999998569489
KYuhKx6Q,NA,NA,KYuhKx6Q,2020-0188,2021-09-22,10:30:12,11:52:41,NA,incomplete,false,NA,true,7,4,NA,right,E14_Q1_ansL.png,E18_Q5_ansR.png,between,NA,NaN,NA,right,662.5,1,2,1376.6000001430511
KYuhKx6Q,NA,NA,KYuhKx6Q,2020-0188,2021-09-22,10:30:12,11:52:41,NA,incomplete,false,NA,true,7,5,NA,right,E14_Q7_ansL.png,E14_Q10_ansL.png,within,NA,NaN,NA,right,598.7999999523163,1,3,1381.4000000953674
KYuhKx6Q,NA,NA,KYuhKx6Q,2020-0188,2021-09-22,10:30:12,11:52:41,NA,incomplete,false,NA,true,7,6,NA,left,E18_Q8_ansL.png,E18_Q3_ansR.png,within,NA,NaN,NA,right,1993,0,3,1085.1000001430511
KYuhKx6Q,NA,NA,KYuhKx6Q,2020-0188,2021-09-22,10:30:12,11:52:41,NA,incomplete,false,NA,true,7,7,NA,left,E14_Q4_ansR.png,E24_Q4_ansL.png,between,NA,NaN,NA,right,613.1999998092651,0,3,978.7000000476837
KYuhKx6Q,NA,NA,KYuhKx6Q,2020-0188,2021-09-22,10:30:12,11:52:41,NA,incomplete,false,NA,true,7,8,NA,right,E14_Q10_ansL.png,E14_Q1_ansL.png,within,NA,NaN,NA,right,550.6000001430511,1,3,1093.2999999523163
KYuhKx6Q,NA,NA,KYuhKx6Q,2020-0188,2021-09-22,10:30:12,11:52:41,NA,incomplete,false,NA,true,7,9,NA,right,E24_Q3_ansL.png,E24_Q10_ansR.png,within,NA,NaN,NA,right,558.9000000953674,1,3,981.5999999046326
KYuhKx6Q,NA,NA,KYuhKx6Q,2020-0188,2021-09-22,10:30:12,11:52:41,NA,incomplete,false,NA,true,7,10,NA,right,E24_Q5_ansL.png,E24_Q3_ansL.png,within,NA,NaN,NA,right,747.9000000953674,1,3,945.2999999523163
KYuhKx6Q,NA,NA,KYuhKx6Q,2020-0188,2021-09-22,10:30:12,11:52:41,NA,incomplete,false,NA,true,7,11,NA,left,E24_Q9_ansL.png,E24_Q1_ansR.png,within,NA,NaN,NA,right,613.7999999523163,0,3,1046.0999999046326
KYuhKx6Q,NA,NA,KYuhKx6Q,2020-0188,2021-09-22,10:30:12,11:52:41,NA,incomplete,false,NA,true,7,12,NA,right,E18_Q5_ansR.png,E18_Q3_ansR.png,within,NA,NaN,NA,right,574.9000000953674,1,3,1053.3999998569489
KYuhKx6Q,NA,NA,KYuhKx6Q,2020-0188,2021-09-22,10:30:12,11:52:41,NA,incomplete,false,NA,true,7,13,NA,left,E18_Q9_ansR.png,E18_Q1_ansL.png,within,NA,NaN,NA,right,558.1000001430511,0,3,1205.0999999046326
KYuhKx6Q,NA,NA,KYuhKx6Q,2020-0188,2021-09-22,10:30:12,11:52:41,NA,incomplete,false,NA,true,7,14,NA,right,E14_Q3_ansR.png,E14_Q5_ansR.png,within,NA,NaN,NA,right,557.6999998092651,1,3,992.5
KYuhKx6Q,NA,NA,KYuhKx6Q,2020-0188,2021-09-22,10:30:12,11:52:41,NA,incomplete,false,NA,true,7,15,NA,right,E14_Q4_ansR.png,E14_Q6_ansR.png,within,NA,NaN,NA,right,606.7000000476837,1,3,1198.5999999046326
KYuhKx6Q,NA,NA,KYuhKx6Q,2020-0188,2021-09-22,10:30:12,11:52:41,NA,incomplete,false,NA,true,7,16,NA,right,E24_Q10_ansR.png,E14_Q8_ansL.png,between,NA,NaN,NA,right,598.5,1,3,1021.9000000953674
KYuhKx6Q,NA,NA,KYuhKx6Q,2020-0188,2021-09-22,10:30:12,11:52:41,NA,incomplete,false,NA,true,7,17,NA,left,E18_Q10_ansL.png,E18_Q6_ansR.png,within,NA,NaN,NA,right,556,0,3,954.8000001907349
KYuhKx6Q,NA,NA,KYuhKx6Q,2020-0188,2021-09-22,10:30:12,11:52:41,NA,incomplete,false,NA,true,7,18,NA,right,E14_Q6_ansR.png,E14_Q2_ansL.png,within,NA,NaN,NA,right,553.9000000953674,1,3,1436.2999999523163
KYuhKx6Q,NA,NA,KYuhKx6Q,2020-0188,2021-09-22,10:30:12,11:52:41,NA,incomplete,false,NA,true,7,19,NA,left,E18_Q6_ansR.png,E18_Q2_ansL.png,within,NA,NaN,NA,right,586.1999998092651,0,3,1411.4000000953674
KYuhKx6Q,NA,NA,KYuhKx6Q,2020-0188,2021-09-22,10:30:12,11:52:41,NA,incomplete,false,NA,true,7,20,NA,left,E24_Q2_ansR.png,E24_Q7_ansR.png,within,NA,NaN,NA,right,534.7000000476837,0,3,991.5
KYuhKx6Q,NA,NA,KYuhKx6Q,2020-0188,2021-09-22,10:30:12,11:52:41,NA,incomplete,false,NA,true,7,21,NA,right,E14_Q9_ansR.png,E14_Q7_ansL.png,within,NA,NaN,NA,right,639.5,1,3,1031.6999998092651
KYuhKx6Q,NA,NA,KYuhKx6Q,2020-0188,2021-09-22,10:30:12,11:52:41,NA,incomplete,false,NA,true,7,22,NA,right,E14_Q2_ansL.png,E18_Q4_ansR.png,between,NA,NaN,NA,right,599.1000001430511,1,3,1006.8999998569489
KYuhKx6Q,NA,NA,KYuhKx6Q,2020-0188,2021-09-22,10:30:12,11:52:41,NA,incomplete,false,NA,true,7,23,NA,left,E24_Q4_ansL.png,E24_Q8_ansR.png,within,NA,NaN,NA,right,623.9000000953674,0,3,1439.5
KYuhKx6Q,NA,NA,KYuhKx6Q,2020-0188,2021-09-22,10:30:12,11:52:41,NA,incomplete,false,NA,true,7,24,NA,right,E14_Q5_ansR.png,E18_Q7_ansL.png,between,NA,NaN,NA,right,568.1000001430511,1,3,1116.9000000953674
KYuhKx6Q,NA,NA,KYuhKx6Q,2020-0188,2021-09-22,10:30:12,11:52:41,NA,incomplete,false,NA,true,7,25,NA,right,E14_Q8_ansL.png,E14_Q3_ansR.png,within,NA,NaN,NA,right,561.2999999523163,1,3,973.7999999523163
KYuhKx6Q,NA,NA,KYuhKx6Q,2020-0188,2021-09-22,10:30:12,11:52:41,NA,incomplete,false,NA,true,7,26,NA,right,E24_Q6_ansL.png,E24_Q7_ansR.png,within,NA,NaN,NA,right,583.8999998569489,1,3,1134.3999998569489
KYuhKx6Q,NA,NA,KYuhKx6Q,2020-0188,2021-09-22,10:30:12,11:52:41,NA,incomplete,false,true,NA,8,0,E22_Q9_ansL.png,left,NA,NA,NA,left,1943.90000009537,true,NA,NA,NA,NA,NA
KYuhKx6Q,NA,NA,KYuhKx6Q,2020-0188,2021-09-22,10:30:12,11:52:41,NA,incomplete,false,true,NA,8,1,E22_Q10_ansR.png,right,NA,NA,NA,right,1325,true,NA,NA,NA,NA,NA
KYuhKx6Q,NA,NA,KYuhKx6Q,2020-0188,2021-09-22,10:30:12,11:52:41,NA,incomplete,false,true,NA,8,2,E22_Q3_ansL.png,left,NA,NA,NA,left,797.399999856949,true,NA,NA,NA,NA,NA
KYuhKx6Q,NA,NA,KYuhKx6Q,2020-0188,2021-09-22,10:30:12,11:52:41,NA,incomplete,false,true,NA,8,3,E22_Q7_ansR.png,right,NA,NA,NA,right,1531.09999990463,true,NA,NA,NA,NA,NA
KYuhKx6Q,NA,NA,KYuhKx6Q,2020-0188,2021-09-22,10:30:12,11:52:41,NA,incomplete,false,true,NA,8,4,E22_Q2_ansR.png,right,NA,NA,NA,right,917.900000095367,true,NA,NA,NA,NA,NA
KYuhKx6Q,NA,NA,KYuhKx6Q,2020-0188,2021-09-22,10:30:12,11:52:41,NA,incomplete,false,true,NA,8,5,E22_Q5_ansL.png,left,NA,NA,NA,left,996.600000143051,true,NA,NA,NA,NA,NA
KYuhKx6Q,NA,NA,KYuhKx6Q,2020-0188,2021-09-22,10:30:12,11:52:41,NA,incomplete,false,true,NA,8,6,E22_Q8_ansR.png,right,NA,NA,NA,right,1201.20000004768,true,NA,NA,NA,NA,NA
KYuhKx6Q,NA,NA,KYuhKx6Q,2020-0188,2021-09-22,10:30:12,11:52:41,NA,incomplete,false,true,NA,8,7,E22_Q1_ansR.png,right,NA,NA,NA,right,1387,true,NA,NA,NA,NA,NA
KYuhKx6Q,NA,NA,KYuhKx6Q,2020-0188,2021-09-22,10:30:12,11:52:41,NA,incomplete,false,true,NA,8,8,E22_Q4_ansL.png,left,NA,NA,NA,left,924.5,true,NA,NA,NA,NA,NA
KYuhKx6Q,NA,NA,KYuhKx6Q,2020-0188,2021-09-22,10:30:12,11:52:41,NA,incomplete,false,true,NA,8,9,E22_Q6_ansL.png,left,NA,NA,NA,left,1561.59999990463,true,NA,NA,NA,NA,NA
KYuhKx6Q,NA,NA,KYuhKx6Q,2020-0188,2021-09-22,10:30:12,11:52:41,NA,incomplete,false,true,NA,8,10,E33_Q1_ansL.png,left,NA,NA,NA,left,2094.60000014305,true,NA,NA,NA,NA,NA
KYuhKx6Q,NA,NA,KYuhKx6Q,2020-0188,2021-09-22,10:30:12,11:52:41,NA,incomplete,false,true,NA,8,11,E33_Q7_ansL.png,left,NA,NA,NA,none,0,false,NA,NA,NA,NA,NA
KYuhKx6Q,NA,NA,KYuhKx6Q,2020-0188,2021-09-22,10:30:12,11:52:41,NA,incomplete,false,true,NA,8,12,E33_Q10_ansL.png,left,NA,NA,NA,right,2636.69999980927,false,NA,NA,NA,NA,NA
KYuhKx6Q,NA,NA,KYuhKx6Q,2020-0188,2021-09-22,10:30:12,11:52:41,NA,incomplete,false,true,NA,8,13,E33_Q6_ansR.png,right,NA,NA,NA,left,2225.79999995232,false,NA,NA,NA,NA,NA
KYuhKx6Q,NA,NA,KYuhKx6Q,2020-0188,2021-09-22,10:30:12,11:52:41,NA,incomplete,false,true,NA,8,14,E33_Q2_ansL.png,left,NA,NA,NA,left,1699.29999995232,true,NA,NA,NA,NA,NA
KYuhKx6Q,NA,NA,KYuhKx6Q,2020-0188,2021-09-22,10:30:12,11:52:41,NA,incomplete,false,true,NA,8,15,E33_Q8_ansL.png,left,NA,NA,NA,left,1572.20000004768,true,NA,NA,NA,NA,NA
KYuhKx6Q,NA,NA,KYuhKx6Q,2020-0188,2021-09-22,10:30:12,11:52:41,NA,incomplete,false,true,NA,8,16,E33_Q5_ansR.png,right,NA,NA,NA,right,2396,true,NA,NA,NA,NA,NA
KYuhKx6Q,NA,NA,KYuhKx6Q,2020-0188,2021-09-22,10:30:12,11:52:41,NA,incomplete,false,true,NA,8,17,E33_Q9_ansR.png,right,NA,NA,NA,right,1937.79999995232,true,NA,NA,NA,NA,NA
KYuhKx6Q,NA,NA,KYuhKx6Q,2020-0188,2021-09-22,10:30:12,11:52:41,NA,incomplete,false,true,NA,8,18,E33_Q4_ansR.png,right,NA,NA,NA,right,1972.80000019073,true,NA,NA,NA,NA,NA
KYuhKx6Q,NA,NA,KYuhKx6Q,2020-0188,2021-09-22,10:30:12,11:52:41,NA,incomplete,false,true,NA,8,19,E33_Q3_ansR.png,right,NA,NA,NA,right,2646.20000004768,true,NA,NA,NA,NA,NA
KYuhKx6Q,NA,NA,KYuhKx6Q,2020-0188,2021-09-22,10:30:12,11:52:41,NA,incomplete,false,true,NA,8,20,E28_Q4_ansL.png,left,NA,NA,NA,left,1913.60000014305,true,NA,NA,NA,NA,NA
KYuhKx6Q,NA,NA,KYuhKx6Q,2020-0188,2021-09-22,10:30:12,11:52:41,NA,incomplete,false,true,NA,8,21,E28_Q1_ansR.png,right,NA,NA,NA,right,2424.40000009537,true,NA,NA,NA,NA,NA
KYuhKx6Q,NA,NA,KYuhKx6Q,2020-0188,2021-09-22,10:30:12,11:52:41,NA,incomplete,false,true,NA,8,22,E28_Q5_ansL.png,left,NA,NA,NA,left,1356.20000004768,true,NA,NA,NA,NA,NA
KYuhKx6Q,NA,NA,KYuhKx6Q,2020-0188,2021-09-22,10:30:12,11:52:41,NA,incomplete,false,true,NA,8,23,E28_Q6_ansL.png,left,NA,NA,NA,left,1662.70000004768,true,NA,NA,NA,NA,NA
KYuhKx6Q,NA,NA,KYuhKx6Q,2020-0188,2021-09-22,10:30:12,11:52:41,NA,incomplete,false,true,NA,8,24,E28_Q10_ansR.png,right,NA,NA,NA,left,1522.5,false,NA,NA,NA,NA,NA
KYuhKx6Q,NA,NA,KYuhKx6Q,2020-0188,2021-09-22,10:30:12,11:52:41,NA,incomplete,false,true,NA,8,25,E28_Q2_ansR.png,right,NA,NA,NA,right,1876.09999990463,true,NA,NA,NA,NA,NA
KYuhKx6Q,NA,NA,KYuhKx6Q,2020-0188,2021-09-22,10:30:12,11:52:41,NA,incomplete,false,true,NA,8,26,E28_Q9_ansL.png,left,NA,NA,NA,left,1787.79999995232,true,NA,NA,NA,NA,NA
KYuhKx6Q,NA,NA,KYuhKx6Q,2020-0188,2021-09-22,10:30:12,11:52:41,NA,incomplete,false,true,NA,8,27,E28_Q7_ansR.png,right,NA,NA,NA,right,1785.29999995232,true,NA,NA,NA,NA,NA
KYuhKx6Q,NA,NA,KYuhKx6Q,2020-0188,2021-09-22,10:30:12,11:52:41,NA,incomplete,false,true,NA,8,28,E28_Q3_ansL.png,left,NA,NA,NA,left,1730.09999990463,true,NA,NA,NA,NA,NA
KYuhKx6Q,NA,NA,KYuhKx6Q,2020-0188,2021-09-22,10:30:12,11:52:41,NA,incomplete,false,true,NA,8,29,E28_Q8_ansR.png,right,NA,NA,NA,right,2190.09999990463,true,NA,NA,NA,NA,NA
KYuhKx6Q,NA,NA,KYuhKx6Q,2020-0188,2021-09-22,10:30:12,11:52:41,NA,incomplete,false,NA,true,8,0,NA,right,E33_Q6_ansR.png,E33_Q1_ansL.png,within,NA,NaN,NA,right,835,1,3,1501.4000000953674
KYuhKx6Q,NA,NA,KYuhKx6Q,2020-0188,2021-09-22,10:30:12,11:52:41,NA,incomplete,false,NA,true,8,1,NA,right,E22_Q6_ansL.png,E22_Q8_ansR.png,within,NA,NaN,NA,right,1932.5999999046326,1,3,1036.5
KYuhKx6Q,NA,NA,KYuhKx6Q,2020-0188,2021-09-22,10:30:12,11:52:41,NA,incomplete,false,NA,true,8,2,NA,left,E22_Q3_ansL.png,E22_Q5_ansL.png,within,NA,NaN,NA,right,637.8999998569489,0,3,1066.5
KYuhKx6Q,NA,NA,KYuhKx6Q,2020-0188,2021-09-22,10:30:12,11:52:41,NA,incomplete,false,NA,true,8,3,NA,left,E28_Q5_ansL.png,E28_Q2_ansR.png,within,NA,NaN,NA,right,574.7000000476837,0,3,1028.5
KYuhKx6Q,NA,NA,KYuhKx6Q,2020-0188,2021-09-22,10:30:12,11:52:41,NA,incomplete,false,NA,true,8,4,NA,right,E22_Q4_ansL.png,E22_Q5_ansL.png,within,NA,NaN,NA,right,613.6000001430511,1,3,949.2000000476837
KYuhKx6Q,NA,NA,KYuhKx6Q,2020-0188,2021-09-22,10:30:12,11:52:41,NA,incomplete,false,NA,true,8,5,NA,left,E33_Q3_ansR.png,E28_Q5_ansL.png,between,NA,NaN,NA,right,643,0,3,1424.1000001430511
KYuhKx6Q,NA,NA,KYuhKx6Q,2020-0188,2021-09-22,10:30:12,11:52:41,NA,incomplete,false,NA,true,8,6,NA,right,E28_Q7_ansR.png,E28_Q10_ansR.png,within,NA,NaN,NA,right,566,1,3,1700.2000000476837
KYuhKx6Q,NA,NA,KYuhKx6Q,2020-0188,2021-09-22,10:30:12,11:52:41,NA,incomplete,false,NA,true,8,7,NA,right,E28_Q3_ansL.png,E28_Q2_ansR.png,within,NA,NaN,NA,right,669.4000000953674,1,3,1490.7000000476837
KYuhKx6Q,NA,NA,KYuhKx6Q,2020-0188,2021-09-22,10:30:12,11:52:41,NA,incomplete,false,NA,true,8,8,NA,left,E22_Q9_ansL.png,E22_Q7_ansR.png,within,NA,NaN,NA,right,633.5999999046326,0,3,1122
KYuhKx6Q,NA,NA,KYuhKx6Q,2020-0188,2021-09-22,10:30:12,11:52:41,NA,incomplete,false,NA,true,8,9,NA,left,E28_Q9_ansL.png,E28_Q8_ansR.png,within,NA,NaN,NA,right,1478.5,0,3,1015.4000000953674
KYuhKx6Q,NA,NA,KYuhKx6Q,2020-0188,2021-09-22,10:30:12,11:52:41,NA,incomplete,false,NA,true,8,10,NA,left,E22_Q6_ansL.png,E33_Q10_ansL.png,between,NA,NaN,NA,right,599.8000001907349,0,3,1765.2999999523163
KYuhKx6Q,NA,NA,KYuhKx6Q,2020-0188,2021-09-22,10:30:12,11:52:41,NA,incomplete,false,NA,true,8,11,NA,right,E22_Q2_ansR.png,E22_Q10_ansR.png,within,NA,NaN,NA,right,631.7000000476837,1,3,1075.8999998569489
KYuhKx6Q,NA,NA,KYuhKx6Q,2020-0188,2021-09-22,10:30:12,11:52:41,NA,incomplete,false,NA,true,8,12,NA,right,E28_Q6_ansL.png,E28_Q4_ansL.png,within,NA,NaN,NA,right,767.5999999046326,1,3,1212.1000001430511
KYuhKx6Q,NA,NA,KYuhKx6Q,2020-0188,2021-09-22,10:30:12,11:52:41,NA,incomplete,false,NA,true,8,13,NA,left,E33_Q4_ansR.png,E28_Q1_ansR.png,between,NA,NaN,NA,right,3797.2999999523163,0,3,3273.399999856949
KYuhKx6Q,NA,NA,KYuhKx6Q,2020-0188,2021-09-22,10:30:12,11:52:41,NA,incomplete,false,NA,true,8,14,NA,left,E33_Q10_ansL.png,E33_Q8_ansL.png,within,NA,NaN,NA,right,655,0,3,1153
KYuhKx6Q,NA,NA,KYuhKx6Q,2020-0188,2021-09-22,10:30:12,11:52:41,NA,incomplete,false,NA,true,8,15,NA,right,E33_Q4_ansR.png,E33_Q8_ansL.png,within,NA,NaN,NA,right,702.3999998569489,1,3,2492
KYuhKx6Q,NA,NA,KYuhKx6Q,2020-0188,2021-09-22,10:30:12,11:52:41,NA,incomplete,false,NA,true,8,16,NA,left,E33_Q5_ansR.png,E33_Q3_ansR.png,within,NA,NaN,NA,right,1074.2000000476837,0,3,1813.0999999046326
KYuhKx6Q,NA,NA,KYuhKx6Q,2020-0188,2021-09-22,10:30:12,11:52:41,NA,incomplete,false,NA,true,8,17,NA,left,E33_Q6_ansR.png,E33_Q5_ansR.png,within,NA,NaN,NA,right,894.7000000476837,0,3,1285.5
KYuhKx6Q,NA,NA,KYuhKx6Q,2020-0188,2021-09-22,10:30:12,11:52:41,NA,incomplete,false,NA,true,8,18,NA,right,E33_Q2_ansL.png,E33_Q7_ansL.png,within,NA,NaN,NA,right,1030.8999998569489,1,3,1767.7999999523163
KYuhKx6Q,NA,NA,KYuhKx6Q,2020-0188,2021-09-22,10:30:12,11:52:41,NA,incomplete,false,NA,true,8,19,NA,right,E28_Q9_ansL.png,E28_Q6_ansL.png,within,NA,NaN,NA,right,723.0999999046326,1,3,2682.5
KYuhKx6Q,NA,NA,KYuhKx6Q,2020-0188,2021-09-22,10:30:12,11:52:41,NA,incomplete,false,NA,true,8,20,NA,left,E33_Q2_ansL.png,E33_Q9_ansR.png,within,NA,NaN,NA,right,2346.600000143051,0,3,1597
KYuhKx6Q,NA,NA,KYuhKx6Q,2020-0188,2021-09-22,10:30:12,11:52:41,NA,incomplete,false,NA,true,8,21,NA,left,E22_Q4_ansL.png,E33_Q7_ansL.png,between,NA,NaN,NA,right,675.8000001907349,0,3,1855.3000001907349
KYuhKx6Q,NA,NA,KYuhKx6Q,2020-0188,2021-09-22,10:30:12,11:52:41,NA,incomplete,false,NA,true,8,22,NA,right,E33_Q1_ansL.png,E22_Q1_ansR.png,between,NA,NaN,NA,right,2082.699999809265,1,3,1381.9000000953674
KYuhKx6Q,NA,NA,KYuhKx6Q,2020-0188,2021-09-22,10:30:12,11:52:41,NA,incomplete,false,NA,true,8,23,NA,right,E28_Q10_ansR.png,E28_Q1_ansR.png,within,NA,NaN,NA,right,1236.4000000953674,1,3,1970.5
KYuhKx6Q,NA,NA,KYuhKx6Q,2020-0188,2021-09-22,10:30:12,11:52:41,NA,incomplete,false,NA,true,8,24,NA,right,E28_Q4_ansL.png,E33_Q9_ansR.png,between,NA,NaN,NA,right,913.5,1,3,1460
KYuhKx6Q,NA,NA,KYuhKx6Q,2020-0188,2021-09-22,10:30:12,11:52:41,NA,incomplete,false,NA,true,8,25,NA,right,E22_Q1_ansR.png,E22_Q2_ansR.png,within,NA,NaN,NA,right,759.2999999523163,1,3,1765.5999999046326
KYuhKx6Q,NA,NA,KYuhKx6Q,2020-0188,2021-09-22,10:30:12,11:52:41,NA,incomplete,false,NA,true,8,26,NA,left,E22_Q7_ansR.png,E22_Q8_ansR.png,within,NA,NaN,NA,right,662.9000000953674,0,3,1644.4000000953674
KYuhKx6Q,NA,NA,KYuhKx6Q,2020-0188,2021-09-22,10:30:12,11:52:41,NA,incomplete,false,true,NA,9,0,E7_Q1_ansL.png,left,NA,NA,NA,left,1726.59999990463,true,NA,NA,NA,NA,NA
KYuhKx6Q,NA,NA,KYuhKx6Q,2020-0188,2021-09-22,10:30:12,11:52:41,NA,incomplete,false,true,NA,9,1,E7_Q4_ansR.png,right,NA,NA,NA,right,2295.90000009537,true,NA,NA,NA,NA,NA
KYuhKx6Q,NA,NA,KYuhKx6Q,2020-0188,2021-09-22,10:30:12,11:52:41,NA,incomplete,false,true,NA,9,2,E7_Q2_ansL.png,left,NA,NA,NA,left,1144.19999980927,true,NA,NA,NA,NA,NA
KYuhKx6Q,NA,NA,KYuhKx6Q,2020-0188,2021-09-22,10:30:12,11:52:41,NA,incomplete,false,true,NA,9,3,E7_Q8_ansL.png,left,NA,NA,NA,left,1585.39999985695,true,NA,NA,NA,NA,NA
KYuhKx6Q,NA,NA,KYuhKx6Q,2020-0188,2021-09-22,10:30:12,11:52:41,NA,incomplete,false,true,NA,9,4,E7_Q7_ansL.png,left,NA,NA,NA,left,2686.09999990463,true,NA,NA,NA,NA,NA
KYuhKx6Q,NA,NA,KYuhKx6Q,2020-0188,2021-09-22,10:30:12,11:52:41,NA,incomplete,false,true,NA,9,5,E7_Q10_ansR.png,right,NA,NA,NA,right,2391.89999985695,true,NA,NA,NA,NA,NA
KYuhKx6Q,NA,NA,KYuhKx6Q,2020-0188,2021-09-22,10:30:12,11:52:41,NA,incomplete,false,true,NA,9,6,E7_Q6_ansR.png,right,NA,NA,NA,right,1273.09999990463,true,NA,NA,NA,NA,NA
KYuhKx6Q,NA,NA,KYuhKx6Q,2020-0188,2021-09-22,10:30:12,11:52:41,NA,incomplete,false,true,NA,9,7,E7_Q9_ansR.png,right,NA,NA,NA,left,1227.60000014305,false,NA,NA,NA,NA,NA
KYuhKx6Q,NA,NA,KYuhKx6Q,2020-0188,2021-09-22,10:30:12,11:52:41,NA,incomplete,false,true,NA,9,8,E7_Q3_ansR.png,right,NA,NA,NA,right,2458.5,true,NA,NA,NA,NA,NA
KYuhKx6Q,NA,NA,KYuhKx6Q,2020-0188,2021-09-22,10:30:12,11:52:41,NA,incomplete,false,true,NA,9,9,E7_Q5_ansR.png,right,NA,NA,NA,right,1604,true,NA,NA,NA,NA,NA
KYuhKx6Q,NA,NA,KYuhKx6Q,2020-0188,2021-09-22,10:30:12,11:52:41,NA,incomplete,false,true,NA,9,10,E20_Q4_ansR.png,right,NA,NA,NA,right,1843.5,true,NA,NA,NA,NA,NA
KYuhKx6Q,NA,NA,KYuhKx6Q,2020-0188,2021-09-22,10:30:12,11:52:41,NA,incomplete,false,true,NA,9,11,E20_Q9_ansR.png,right,NA,NA,NA,right,2040.10000014305,true,NA,NA,NA,NA,NA
KYuhKx6Q,NA,NA,KYuhKx6Q,2020-0188,2021-09-22,10:30:12,11:52:41,NA,incomplete,false,true,NA,9,12,E20_Q2_ansL.png,left,NA,NA,NA,left,1937.89999985695,true,NA,NA,NA,NA,NA
KYuhKx6Q,NA,NA,KYuhKx6Q,2020-0188,2021-09-22,10:30:12,11:52:41,NA,incomplete,false,true,NA,9,13,E20_Q10_ansL.png,left,NA,NA,NA,right,1216.59999990463,false,NA,NA,NA,NA,NA
KYuhKx6Q,NA,NA,KYuhKx6Q,2020-0188,2021-09-22,10:30:12,11:52:41,NA,incomplete,false,true,NA,9,14,E20_Q7_ansL.png,left,NA,NA,NA,left,1604.10000014305,true,NA,NA,NA,NA,NA
KYuhKx6Q,NA,NA,KYuhKx6Q,2020-0188,2021-09-22,10:30:12,11:52:41,NA,incomplete,false,true,NA,9,15,E20_Q6_ansR.png,right,NA,NA,NA,right,1737.79999995232,true,NA,NA,NA,NA,NA
KYuhKx6Q,NA,NA,KYuhKx6Q,2020-0188,2021-09-22,10:30:12,11:52:41,NA,incomplete,false,true,NA,9,16,E20_Q1_ansL.png,left,NA,NA,NA,left,3298.29999995232,true,NA,NA,NA,NA,NA
KYuhKx6Q,NA,NA,KYuhKx6Q,2020-0188,2021-09-22,10:30:12,11:52:41,NA,incomplete,false,true,NA,9,17,E20_Q3_ansR.png,right,NA,NA,NA,right,2397.40000009537,true,NA,NA,NA,NA,NA
KYuhKx6Q,NA,NA,KYuhKx6Q,2020-0188,2021-09-22,10:30:12,11:52:41,NA,incomplete,false,true,NA,9,18,E20_Q5_ansR.png,right,NA,NA,NA,left,1036.89999985695,false,NA,NA,NA,NA,NA
KYuhKx6Q,NA,NA,KYuhKx6Q,2020-0188,2021-09-22,10:30:12,11:52:41,NA,incomplete,false,true,NA,9,19,E20_Q8_ansL.png,left,NA,NA,NA,right,1443.30000019073,false,NA,NA,NA,NA,NA
KYuhKx6Q,NA,NA,KYuhKx6Q,2020-0188,2021-09-22,10:30:12,11:52:41,NA,incomplete,false,true,NA,9,20,E17_Q1_ansL.png,left,NA,NA,NA,left,1806.5,true,NA,NA,NA,NA,NA
KYuhKx6Q,NA,NA,KYuhKx6Q,2020-0188,2021-09-22,10:30:12,11:52:41,NA,incomplete,false,true,NA,9,21,E17_Q2_ansL.png,left,NA,NA,NA,left,1101.09999990463,true,NA,NA,NA,NA,NA
KYuhKx6Q,NA,NA,KYuhKx6Q,2020-0188,2021-09-22,10:30:12,11:52:41,NA,incomplete,false,true,NA,9,22,E17_Q6_ansR.png,right,NA,NA,NA,right,1472.29999995232,true,NA,NA,NA,NA,NA
KYuhKx6Q,NA,NA,KYuhKx6Q,2020-0188,2021-09-22,10:30:12,11:52:41,NA,incomplete,false,true,NA,9,23,E17_Q5_ansR.png,right,NA,NA,NA,right,1663.80000019073,true,NA,NA,NA,NA,NA
KYuhKx6Q,NA,NA,KYuhKx6Q,2020-0188,2021-09-22,10:30:12,11:52:41,NA,incomplete,false,true,NA,9,24,E17_Q8_ansL.png,left,NA,NA,NA,left,873.599999904633,true,NA,NA,NA,NA,NA
KYuhKx6Q,NA,NA,KYuhKx6Q,2020-0188,2021-09-22,10:30:12,11:52:41,NA,incomplete,false,true,NA,9,25,E17_Q10_ansL.png,left,NA,NA,NA,left,1222.60000014305,true,NA,NA,NA,NA,NA
KYuhKx6Q,NA,NA,KYuhKx6Q,2020-0188,2021-09-22,10:30:12,11:52:41,NA,incomplete,false,true,NA,9,26,E17_Q3_ansR.png,right,NA,NA,NA,right,970.900000095367,true,NA,NA,NA,NA,NA
KYuhKx6Q,NA,NA,KYuhKx6Q,2020-0188,2021-09-22,10:30:12,11:52:41,NA,incomplete,false,true,NA,9,27,E17_Q7_ansL.png,left,NA,NA,NA,left,1225.70000004768,true,NA,NA,NA,NA,NA
KYuhKx6Q,NA,NA,KYuhKx6Q,2020-0188,2021-09-22,10:30:12,11:52:41,NA,incomplete,false,true,NA,9,28,E17_Q9_ansR.png,right,NA,NA,NA,right,1721.79999995232,true,NA,NA,NA,NA,NA
KYuhKx6Q,NA,NA,KYuhKx6Q,2020-0188,2021-09-22,10:30:12,11:52:41,NA,incomplete,false,true,NA,9,29,E17_Q4_ansR.png,right,NA,NA,NA,right,1316.70000004768,true,NA,NA,NA,NA,NA
KYuhKx6Q,NA,NA,KYuhKx6Q,2020-0188,2021-09-22,10:30:12,11:52:41,NA,incomplete,false,NA,true,9,0,NA,left,E17_Q10_ansL.png,E17_Q9_ansR.png,within,NA,NaN,NA,right,941.5,0,3,3565.7999999523163
KYuhKx6Q,NA,NA,KYuhKx6Q,2020-0188,2021-09-22,10:30:12,11:52:41,NA,incomplete,false,NA,true,9,1,NA,left,E20_Q3_ansR.png,E17_Q1_ansL.png,between,NA,NaN,NA,right,640.5,0,3,1086.5999999046326
KYuhKx6Q,NA,NA,KYuhKx6Q,2020-0188,2021-09-22,10:30:12,11:52:41,NA,incomplete,false,NA,true,9,2,NA,right,E17_Q7_ansL.png,E17_Q8_ansL.png,within,NA,NaN,NA,right,567.5999999046326,1,3,1110.3999998569489
KYuhKx6Q,NA,NA,KYuhKx6Q,2020-0188,2021-09-22,10:30:12,11:52:41,NA,incomplete,false,NA,true,9,3,NA,left,E7_Q4_ansR.png,E7_Q7_ansL.png,within,NA,NaN,NA,right,653.2000000476837,0,3,1517.5
KYuhKx6Q,NA,NA,KYuhKx6Q,2020-0188,2021-09-22,10:30:12,11:52:41,NA,incomplete,false,NA,true,9,4,NA,right,E7_Q9_ansR.png,E7_Q7_ansL.png,within,NA,NaN,NA,right,669.5,1,3,967.2000000476837
KYuhKx6Q,NA,NA,KYuhKx6Q,2020-0188,2021-09-22,10:30:12,11:52:41,NA,incomplete,false,NA,true,9,5,NA,right,E7_Q3_ansR.png,E7_Q10_ansR.png,within,NA,NaN,NA,right,670.2999999523163,1,3,1197.8999998569489
KYuhKx6Q,NA,NA,KYuhKx6Q,2020-0188,2021-09-22,10:30:12,11:52:41,NA,incomplete,false,NA,true,9,6,NA,left,E17_Q3_ansR.png,E17_Q4_ansR.png,within,NA,NaN,NA,right,636.3999998569489,0,3,1173.2000000476837
KYuhKx6Q,NA,NA,KYuhKx6Q,2020-0188,2021-09-22,10:30:12,11:52:41,NA,incomplete,false,NA,true,9,7,NA,left,E7_Q9_ansR.png,E20_Q4_ansR.png,between,NA,NaN,NA,right,718.2999999523163,0,3,1013
KYuhKx6Q,NA,NA,KYuhKx6Q,2020-0188,2021-09-22,10:30:12,11:52:41,NA,incomplete,false,NA,true,9,8,NA,right,E17_Q8_ansL.png,E17_Q2_ansL.png,within,NA,NaN,NA,right,677.2999999523163,1,3,1085.7000000476837
KYuhKx6Q,NA,NA,KYuhKx6Q,2020-0188,2021-09-22,10:30:12,11:52:41,NA,incomplete,false,NA,true,9,9,NA,right,E17_Q5_ansR.png,E17_Q1_ansL.png,within,NA,NaN,NA,right,570.3999998569489,1,3,1772.0999999046326
KYuhKx6Q,NA,NA,KYuhKx6Q,2020-0188,2021-09-22,10:30:12,11:52:41,NA,incomplete,false,NA,true,9,10,NA,left,E20_Q8_ansL.png,E17_Q6_ansR.png,between,NA,NaN,NA,right,550,0,3,1161.7999999523163
KYuhKx6Q,NA,NA,KYuhKx6Q,2020-0188,2021-09-22,10:30:12,11:52:41,NA,incomplete,false,NA,true,9,11,NA,left,E17_Q6_ansR.png,E17_Q10_ansL.png,within,NA,NaN,NA,right,613.5,0,3,1150.2999999523163
