workerId,hitId,assignmentId,subject,studyid,exp_date,exp_start,exp_end,time_start,time_end,practice,encoding,memory,block,trial,stim,answer,left_image,right_image,condition,response,response_time,response_acc,order_response,order_response_time,order_acc,distance_response,distance_response_time
pYAACgIF,NA,NA,pYAACgIF,2020-0188,2021-09-18,17:24:54,18:43:19,NA,incomplete,true,true,NA,0,0,E29_Q10_ansL.png,left,NA,NA,NA,left,1712,true,NA,NA,NA,NA,NA
pYAACgIF,NA,NA,pYAACgIF,2020-0188,2021-09-18,17:24:54,18:43:19,NA,incomplete,true,true,NA,0,1,E29_Q8_ansL.png,left,NA,NA,NA,left,1838.00000000003,true,NA,NA,NA,NA,NA
pYAACgIF,NA,NA,pYAACgIF,2020-0188,2021-09-18,17:24:54,18:43:19,NA,incomplete,true,true,NA,0,2,E29_Q6_ansR.png,right,NA,NA,NA,right,2297,true,NA,NA,NA,NA,NA
pYAACgIF,NA,NA,pYAACgIF,2020-0188,2021-09-18,17:24:54,18:43:19,NA,incomplete,true,true,NA,0,3,E29_Q3_ansR.png,right,NA,NA,NA,right,1503.00000000003,true,NA,NA,NA,NA,NA
pYAACgIF,NA,NA,pYAACgIF,2020-0188,2021-09-18,17:24:54,18:43:19,NA,incomplete,true,true,NA,0,4,E29_Q2_ansL.png,left,NA,NA,NA,left,1115,true,NA,NA,NA,NA,NA
pYAACgIF,NA,NA,pYAACgIF,2020-0188,2021-09-18,17:24:54,18:43:19,NA,incomplete,true,true,NA,0,5,E29_Q7_ansL.png,left,NA,NA,NA,left,1103.99999999997,true,NA,NA,NA,NA,NA
pYAACgIF,NA,NA,pYAACgIF,2020-0188,2021-09-18,17:24:54,18:43:19,NA,incomplete,true,true,NA,0,6,E29_Q1_ansL.png,left,NA,NA,NA,left,1271.99999999997,true,NA,NA,NA,NA,NA
pYAACgIF,NA,NA,pYAACgIF,2020-0188,2021-09-18,17:24:54,18:43:19,NA,incomplete,true,true,NA,0,7,E29_Q4_ansR.png,right,NA,NA,NA,right,1068.99999999997,true,NA,NA,NA,NA,NA
pYAACgIF,NA,NA,pYAACgIF,2020-0188,2021-09-18,17:24:54,18:43:19,NA,incomplete,true,true,NA,0,8,E29_Q5_ansR.png,right,NA,NA,NA,right,1052,true,NA,NA,NA,NA,NA
pYAACgIF,NA,NA,pYAACgIF,2020-0188,2021-09-18,17:24:54,18:43:19,NA,incomplete,true,true,NA,0,9,E29_Q9_ansR.png,right,NA,NA,NA,right,1023,true,NA,NA,NA,NA,NA
pYAACgIF,NA,NA,pYAACgIF,2020-0188,2021-09-18,17:24:54,18:43:19,NA,incomplete,true,true,NA,0,10,E8_Q9_ansL.png,left,NA,NA,NA,left,1190.99999999997,true,NA,NA,NA,NA,NA
pYAACgIF,NA,NA,pYAACgIF,2020-0188,2021-09-18,17:24:54,18:43:19,NA,incomplete,true,true,NA,0,11,E8_Q2_ansR.png,right,NA,NA,NA,right,1373.00000000003,true,NA,NA,NA,NA,NA
pYAACgIF,NA,NA,pYAACgIF,2020-0188,2021-09-18,17:24:54,18:43:19,NA,incomplete,true,true,NA,0,12,E8_Q1_ansR.png,right,NA,NA,NA,right,1363,true,NA,NA,NA,NA,NA
pYAACgIF,NA,NA,pYAACgIF,2020-0188,2021-09-18,17:24:54,18:43:19,NA,incomplete,true,true,NA,0,13,E8_Q8_ansR.png,right,NA,NA,NA,right,1062,true,NA,NA,NA,NA,NA
pYAACgIF,NA,NA,pYAACgIF,2020-0188,2021-09-18,17:24:54,18:43:19,NA,incomplete,true,true,NA,0,14,E8_Q4_ansL.png,left,NA,NA,NA,left,872,true,NA,NA,NA,NA,NA
pYAACgIF,NA,NA,pYAACgIF,2020-0188,2021-09-18,17:24:54,18:43:19,NA,incomplete,true,true,NA,0,15,E8_Q6_ansL.png,left,NA,NA,NA,left,990,true,NA,NA,NA,NA,NA
pYAACgIF,NA,NA,pYAACgIF,2020-0188,2021-09-18,17:24:54,18:43:19,NA,incomplete,true,true,NA,0,16,E8_Q5_ansL.png,left,NA,NA,NA,left,1293,true,NA,NA,NA,NA,NA
pYAACgIF,NA,NA,pYAACgIF,2020-0188,2021-09-18,17:24:54,18:43:19,NA,incomplete,true,true,NA,0,17,E8_Q3_ansL.png,left,NA,NA,NA,left,1385,true,NA,NA,NA,NA,NA
pYAACgIF,NA,NA,pYAACgIF,2020-0188,2021-09-18,17:24:54,18:43:19,NA,incomplete,true,true,NA,0,18,E8_Q7_ansR.png,right,NA,NA,NA,right,985.000000000029,true,NA,NA,NA,NA,NA
pYAACgIF,NA,NA,pYAACgIF,2020-0188,2021-09-18,17:24:54,18:43:19,NA,incomplete,true,true,NA,0,19,E8_Q10_ansR.png,right,NA,NA,NA,right,1019,true,NA,NA,NA,NA,NA
pYAACgIF,NA,NA,pYAACgIF,2020-0188,2021-09-18,17:24:54,18:43:19,NA,incomplete,true,true,NA,0,20,E3_Q3_ansR.png,right,NA,NA,NA,right,2325,true,NA,NA,NA,NA,NA
pYAACgIF,NA,NA,pYAACgIF,2020-0188,2021-09-18,17:24:54,18:43:19,NA,incomplete,true,true,NA,0,21,E3_Q9_ansL.png,left,NA,NA,NA,left,1293,true,NA,NA,NA,NA,NA
pYAACgIF,NA,NA,pYAACgIF,2020-0188,2021-09-18,17:24:54,18:43:19,NA,incomplete,true,true,NA,0,22,E3_Q6_ansR.png,right,NA,NA,NA,right,1242,true,NA,NA,NA,NA,NA
pYAACgIF,NA,NA,pYAACgIF,2020-0188,2021-09-18,17:24:54,18:43:19,NA,incomplete,true,true,NA,0,23,E3_Q5_ansR.png,right,NA,NA,NA,right,1421,true,NA,NA,NA,NA,NA
pYAACgIF,NA,NA,pYAACgIF,2020-0188,2021-09-18,17:24:54,18:43:19,NA,incomplete,true,true,NA,0,24,E3_Q1_ansR.png,right,NA,NA,NA,right,1340,true,NA,NA,NA,NA,NA
pYAACgIF,NA,NA,pYAACgIF,2020-0188,2021-09-18,17:24:54,18:43:19,NA,incomplete,true,true,NA,0,25,E3_Q7_ansL.png,left,NA,NA,NA,left,1289.00000000006,true,NA,NA,NA,NA,NA
pYAACgIF,NA,NA,pYAACgIF,2020-0188,2021-09-18,17:24:54,18:43:19,NA,incomplete,true,true,NA,0,26,E3_Q2_ansL.png,left,NA,NA,NA,left,1403,true,NA,NA,NA,NA,NA
pYAACgIF,NA,NA,pYAACgIF,2020-0188,2021-09-18,17:24:54,18:43:19,NA,incomplete,true,true,NA,0,27,E3_Q10_ansR.png,right,NA,NA,NA,right,1918,true,NA,NA,NA,NA,NA
pYAACgIF,NA,NA,pYAACgIF,2020-0188,2021-09-18,17:24:54,18:43:19,NA,incomplete,true,true,NA,0,28,E3_Q4_ansL.png,left,NA,NA,NA,left,1647,true,NA,NA,NA,NA,NA
pYAACgIF,NA,NA,pYAACgIF,2020-0188,2021-09-18,17:24:54,18:43:19,NA,incomplete,true,true,NA,0,29,E3_Q8_ansL.png,left,NA,NA,NA,left,1538,true,NA,NA,NA,NA,NA
pYAACgIF,NA,NA,pYAACgIF,2020-0188,2021-09-18,17:24:54,18:43:19,NA,incomplete,true,NA,true,0,0,NA,left,E29_Q7_ansL.png,E29_Q5_ansR.png,within,NA,NaN,NA,left,8992,1,1,3471
pYAACgIF,NA,NA,pYAACgIF,2020-0188,2021-09-18,17:24:54,18:43:19,NA,incomplete,true,NA,true,0,1,NA,right,E8_Q3_ansL.png,E8_Q4_ansL.png,within,NA,NaN,NA,left,6100,0,1,1351
pYAACgIF,NA,NA,pYAACgIF,2020-0188,2021-09-18,17:24:54,18:43:19,NA,incomplete,true,NA,true,0,2,NA,right,E3_Q10_ansR.png,E3_Q1_ansR.png,within,NA,NaN,NA,left,4870,0,1,1986
pYAACgIF,NA,NA,pYAACgIF,2020-0188,2021-09-18,17:24:54,18:43:19,NA,incomplete,true,NA,true,0,3,NA,left,E8_Q7_ansR.png,E3_Q9_ansL.png,between,NA,NaN,NA,left,6921,1,3,1174
pYAACgIF,NA,NA,pYAACgIF,2020-0188,2021-09-18,17:24:54,18:43:19,NA,incomplete,true,NA,true,0,4,NA,left,E3_Q9_ansL.png,E3_Q1_ansR.png,within,NA,NaN,NA,left,9075,1,1,2762.0000000001164
pYAACgIF,NA,NA,pYAACgIF,2020-0188,2021-09-18,17:24:54,18:43:19,NA,incomplete,true,NA,true,0,5,NA,right,E3_Q5_ansR.png,E3_Q3_ansR.png,within,NA,NaN,NA,right,5995,1,2,1588
pYAACgIF,NA,NA,pYAACgIF,2020-0188,2021-09-18,17:24:54,18:43:19,NA,incomplete,true,NA,true,0,6,NA,left,E29_Q4_ansR.png,E8_Q9_ansL.png,between,NA,NaN,NA,left,2500,1,3,1792
pYAACgIF,NA,NA,pYAACgIF,2020-0188,2021-09-18,17:24:54,18:43:19,NA,incomplete,true,NA,true,0,7,NA,right,E29_Q7_ansL.png,E29_Q6_ansR.png,within,NA,NaN,NA,left,3178,0,1,978
pYAACgIF,NA,NA,pYAACgIF,2020-0188,2021-09-18,17:24:54,18:43:19,NA,incomplete,true,NA,true,0,8,NA,right,E8_Q8_ansR.png,E8_Q9_ansL.png,within,NA,NaN,NA,right,4728,1,1,1613
pYAACgIF,NA,NA,pYAACgIF,2020-0188,2021-09-18,17:24:54,18:43:19,NA,incomplete,true,NA,true,0,9,NA,right,E3_Q4_ansL.png,E3_Q7_ansL.png,within,NA,NaN,NA,right,3811,1,1,1034.0000000001164
pYAACgIF,NA,NA,pYAACgIF,2020-0188,2021-09-18,17:24:54,18:43:19,NA,incomplete,true,NA,true,0,10,NA,right,E3_Q6_ansR.png,E8_Q10_ansR.png,between,NA,NaN,NA,right,2208,1,3,2067
pYAACgIF,NA,NA,pYAACgIF,2020-0188,2021-09-18,17:24:54,18:43:19,NA,incomplete,true,NA,true,0,11,NA,left,E29_Q3_ansR.png,E29_Q1_ansL.png,within,NA,NaN,NA,left,4123,1,0,1410.9999999998836
pYAACgIF,NA,NA,pYAACgIF,2020-0188,2021-09-18,17:24:54,18:43:19,NA,incomplete,true,NA,true,0,12,NA,left,E8_Q3_ansL.png,E3_Q3_ansR.png,between,NA,NaN,NA,left,3608,1,3,1050
pYAACgIF,NA,NA,pYAACgIF,2020-0188,2021-09-18,17:24:54,18:43:19,NA,incomplete,true,NA,true,0,13,NA,left,E29_Q2_ansL.png,E29_Q4_ansR.png,within,NA,NaN,NA,right,4437,0,0,860
pYAACgIF,NA,NA,pYAACgIF,2020-0188,2021-09-18,17:24:54,18:43:19,NA,incomplete,true,NA,true,0,14,NA,left,E29_Q8_ansL.png,E29_Q2_ansL.png,within,NA,NaN,NA,left,2501.0000000001164,1,1,1236.9999999998836
pYAACgIF,NA,NA,pYAACgIF,2020-0188,2021-09-18,17:24:54,18:43:19,NA,incomplete,true,NA,true,0,15,NA,right,E29_Q9_ansR.png,E29_Q1_ansL.png,within,NA,NaN,NA,left,8831,0,1,1531
pYAACgIF,NA,NA,pYAACgIF,2020-0188,2021-09-18,17:24:54,18:43:19,NA,incomplete,true,NA,true,0,16,NA,left,E8_Q6_ansL.png,E8_Q7_ansR.png,within,NA,NaN,NA,left,2198.9999999998836,1,1,1733.9999999998836
pYAACgIF,NA,NA,pYAACgIF,2020-0188,2021-09-18,17:24:54,18:43:19,NA,incomplete,true,NA,true,0,17,NA,right,E8_Q5_ansL.png,E8_Q8_ansR.png,within,NA,NaN,NA,left,3079,0,1,9701
pYAACgIF,NA,NA,pYAACgIF,2020-0188,2021-09-18,17:24:54,18:43:19,NA,incomplete,true,NA,true,0,18,NA,right,E29_Q3_ansR.png,E29_Q10_ansL.png,within,NA,NaN,NA,right,7853,1,0,1338
pYAACgIF,NA,NA,pYAACgIF,2020-0188,2021-09-18,17:24:54,18:43:19,NA,incomplete,true,NA,true,0,19,NA,left,E8_Q5_ansL.png,E8_Q10_ansR.png,within,NA,NaN,NA,right,10023,0,0,1066
pYAACgIF,NA,NA,pYAACgIF,2020-0188,2021-09-18,17:24:54,18:43:19,NA,incomplete,true,NA,true,0,20,NA,right,E8_Q1_ansR.png,E29_Q9_ansR.png,between,NA,NaN,NA,right,2500,1,3,1505.0000000001164
pYAACgIF,NA,NA,pYAACgIF,2020-0188,2021-09-18,17:24:54,18:43:19,NA,incomplete,true,NA,true,0,21,NA,right,E8_Q2_ansR.png,E29_Q5_ansR.png,between,NA,NaN,NA,right,2629,1,3,929
pYAACgIF,NA,NA,pYAACgIF,2020-0188,2021-09-18,17:24:54,18:43:19,NA,incomplete,true,NA,true,0,22,NA,left,E3_Q5_ansR.png,E3_Q2_ansL.png,within,NA,NaN,NA,right,3617,0,1,2218
pYAACgIF,NA,NA,pYAACgIF,2020-0188,2021-09-18,17:24:54,18:43:19,NA,incomplete,true,NA,true,0,23,NA,left,E3_Q6_ansR.png,E3_Q7_ansL.png,within,NA,NaN,NA,right,2880,0,1,1086
pYAACgIF,NA,NA,pYAACgIF,2020-0188,2021-09-18,17:24:54,18:43:19,NA,incomplete,true,NA,true,0,24,NA,left,E8_Q2_ansR.png,E8_Q4_ansL.png,within,NA,NaN,NA,left,8687,1,1,1623
pYAACgIF,NA,NA,pYAACgIF,2020-0188,2021-09-18,17:24:54,18:43:19,NA,incomplete,true,NA,true,0,25,NA,left,E8_Q1_ansR.png,E8_Q6_ansL.png,within,NA,NaN,NA,right,1907,0,2,765.9999999998836
pYAACgIF,NA,NA,pYAACgIF,2020-0188,2021-09-18,17:24:54,18:43:19,NA,incomplete,true,NA,true,0,26,NA,right,E3_Q8_ansL.png,E3_Q2_ansL.png,within,NA,NaN,NA,right,3012,1,1,1336.0000000001164
pYAACgIF,NA,NA,pYAACgIF,2020-0188,2021-09-18,17:24:54,18:43:19,NA,incomplete,false,true,NA,1,0,E28_Q8_ansR.png,right,NA,NA,NA,right,2456,true,NA,NA,NA,NA,NA
pYAACgIF,NA,NA,pYAACgIF,2020-0188,2021-09-18,17:24:54,18:43:19,NA,incomplete,false,true,NA,1,1,E28_Q4_ansL.png,left,NA,NA,NA,left,1069,true,NA,NA,NA,NA,NA
pYAACgIF,NA,NA,pYAACgIF,2020-0188,2021-09-18,17:24:54,18:43:19,NA,incomplete,false,true,NA,1,2,E28_Q2_ansR.png,right,NA,NA,NA,right,1249,true,NA,NA,NA,NA,NA
pYAACgIF,NA,NA,pYAACgIF,2020-0188,2021-09-18,17:24:54,18:43:19,NA,incomplete,false,true,NA,1,3,E28_Q3_ansL.png,left,NA,NA,NA,left,1138,true,NA,NA,NA,NA,NA
pYAACgIF,NA,NA,pYAACgIF,2020-0188,2021-09-18,17:24:54,18:43:19,NA,incomplete,false,true,NA,1,4,E28_Q6_ansL.png,left,NA,NA,NA,left,1173,true,NA,NA,NA,NA,NA
pYAACgIF,NA,NA,pYAACgIF,2020-0188,2021-09-18,17:24:54,18:43:19,NA,incomplete,false,true,NA,1,5,E28_Q1_ansR.png,right,NA,NA,NA,right,1111.99999999988,true,NA,NA,NA,NA,NA
pYAACgIF,NA,NA,pYAACgIF,2020-0188,2021-09-18,17:24:54,18:43:19,NA,incomplete,false,true,NA,1,6,E28_Q10_ansR.png,right,NA,NA,NA,right,1088,true,NA,NA,NA,NA,NA
pYAACgIF,NA,NA,pYAACgIF,2020-0188,2021-09-18,17:24:54,18:43:19,NA,incomplete,false,true,NA,1,7,E28_Q9_ansL.png,left,NA,NA,NA,left,966,true,NA,NA,NA,NA,NA
pYAACgIF,NA,NA,pYAACgIF,2020-0188,2021-09-18,17:24:54,18:43:19,NA,incomplete,false,true,NA,1,8,E28_Q7_ansR.png,right,NA,NA,NA,right,1098,true,NA,NA,NA,NA,NA
pYAACgIF,NA,NA,pYAACgIF,2020-0188,2021-09-18,17:24:54,18:43:19,NA,incomplete,false,true,NA,1,9,E28_Q5_ansL.png,left,NA,NA,NA,left,1112,true,NA,NA,NA,NA,NA
pYAACgIF,NA,NA,pYAACgIF,2020-0188,2021-09-18,17:24:54,18:43:19,NA,incomplete,false,true,NA,1,10,E14_Q5_ansR.png,right,NA,NA,NA,left,1863,false,NA,NA,NA,NA,NA
pYAACgIF,NA,NA,pYAACgIF,2020-0188,2021-09-18,17:24:54,18:43:19,NA,incomplete,false,true,NA,1,11,E14_Q10_ansL.png,left,NA,NA,NA,left,2708,true,NA,NA,NA,NA,NA
pYAACgIF,NA,NA,pYAACgIF,2020-0188,2021-09-18,17:24:54,18:43:19,NA,incomplete,false,true,NA,1,12,E14_Q6_ansR.png,right,NA,NA,NA,right,1431.00000000012,true,NA,NA,NA,NA,NA
pYAACgIF,NA,NA,pYAACgIF,2020-0188,2021-09-18,17:24:54,18:43:19,NA,incomplete,false,true,NA,1,13,E14_Q8_ansL.png,left,NA,NA,NA,left,1968,true,NA,NA,NA,NA,NA
pYAACgIF,NA,NA,pYAACgIF,2020-0188,2021-09-18,17:24:54,18:43:19,NA,incomplete,false,true,NA,1,14,E14_Q9_ansR.png,right,NA,NA,NA,right,969,true,NA,NA,NA,NA,NA
pYAACgIF,NA,NA,pYAACgIF,2020-0188,2021-09-18,17:24:54,18:43:19,NA,incomplete,false,true,NA,1,15,E14_Q7_ansL.png,left,NA,NA,NA,left,958.000000000116,true,NA,NA,NA,NA,NA
pYAACgIF,NA,NA,pYAACgIF,2020-0188,2021-09-18,17:24:54,18:43:19,NA,incomplete,false,true,NA,1,16,E14_Q3_ansR.png,right,NA,NA,NA,right,1208.00000000012,true,NA,NA,NA,NA,NA
pYAACgIF,NA,NA,pYAACgIF,2020-0188,2021-09-18,17:24:54,18:43:19,NA,incomplete,false,true,NA,1,17,E14_Q1_ansL.png,left,NA,NA,NA,left,1289,true,NA,NA,NA,NA,NA
pYAACgIF,NA,NA,pYAACgIF,2020-0188,2021-09-18,17:24:54,18:43:19,NA,incomplete,false,true,NA,1,18,E14_Q2_ansL.png,left,NA,NA,NA,left,1391,true,NA,NA,NA,NA,NA
pYAACgIF,NA,NA,pYAACgIF,2020-0188,2021-09-18,17:24:54,18:43:19,NA,incomplete,false,true,NA,1,19,E14_Q4_ansR.png,right,NA,NA,NA,right,900,true,NA,NA,NA,NA,NA
pYAACgIF,NA,NA,pYAACgIF,2020-0188,2021-09-18,17:24:54,18:43:19,NA,incomplete,false,true,NA,1,20,E24_Q8_ansR.png,right,NA,NA,NA,right,1574,true,NA,NA,NA,NA,NA
pYAACgIF,NA,NA,pYAACgIF,2020-0188,2021-09-18,17:24:54,18:43:19,NA,incomplete,false,true,NA,1,21,E24_Q6_ansL.png,left,NA,NA,NA,left,898,true,NA,NA,NA,NA,NA
pYAACgIF,NA,NA,pYAACgIF,2020-0188,2021-09-18,17:24:54,18:43:19,NA,incomplete,false,true,NA,1,22,E24_Q1_ansR.png,right,NA,NA,NA,right,1190,true,NA,NA,NA,NA,NA
pYAACgIF,NA,NA,pYAACgIF,2020-0188,2021-09-18,17:24:54,18:43:19,NA,incomplete,false,true,NA,1,23,E24_Q5_ansL.png,left,NA,NA,NA,left,952,true,NA,NA,NA,NA,NA
pYAACgIF,NA,NA,pYAACgIF,2020-0188,2021-09-18,17:24:54,18:43:19,NA,incomplete,false,true,NA,1,24,E24_Q9_ansL.png,left,NA,NA,NA,left,1061,true,NA,NA,NA,NA,NA
pYAACgIF,NA,NA,pYAACgIF,2020-0188,2021-09-18,17:24:54,18:43:19,NA,incomplete,false,true,NA,1,25,E24_Q10_ansR.png,right,NA,NA,NA,right,868.999999999884,true,NA,NA,NA,NA,NA
pYAACgIF,NA,NA,pYAACgIF,2020-0188,2021-09-18,17:24:54,18:43:19,NA,incomplete,false,true,NA,1,26,E24_Q4_ansL.png,left,NA,NA,NA,left,1428.99999999988,true,NA,NA,NA,NA,NA
pYAACgIF,NA,NA,pYAACgIF,2020-0188,2021-09-18,17:24:54,18:43:19,NA,incomplete,false,true,NA,1,27,E24_Q7_ansR.png,right,NA,NA,NA,right,749,true,NA,NA,NA,NA,NA
pYAACgIF,NA,NA,pYAACgIF,2020-0188,2021-09-18,17:24:54,18:43:19,NA,incomplete,false,true,NA,1,28,E24_Q3_ansL.png,left,NA,NA,NA,left,1585,true,NA,NA,NA,NA,NA
pYAACgIF,NA,NA,pYAACgIF,2020-0188,2021-09-18,17:24:54,18:43:19,NA,incomplete,false,true,NA,1,29,E24_Q2_ansR.png,right,NA,NA,NA,right,1369.00000000012,true,NA,NA,NA,NA,NA
pYAACgIF,NA,NA,pYAACgIF,2020-0188,2021-09-18,17:24:54,18:43:19,NA,incomplete,false,NA,true,1,0,NA,right,E14_Q1_ansL.png,E14_Q9_ansR.png,within,NA,NaN,NA,right,2273,1,1,1329.9999999998836
pYAACgIF,NA,NA,pYAACgIF,2020-0188,2021-09-18,17:24:54,18:43:19,NA,incomplete,false,NA,true,1,1,NA,left,E14_Q5_ansR.png,E14_Q8_ansL.png,within,NA,NaN,NA,left,1530.9999999998836,1,1,1932.0000000001164
pYAACgIF,NA,NA,pYAACgIF,2020-0188,2021-09-18,17:24:54,18:43:19,NA,incomplete,false,NA,true,1,2,NA,right,E24_Q10_ansR.png,E24_Q1_ansR.png,within,NA,NaN,NA,left,4527.999999999884,0,0,2054
pYAACgIF,NA,NA,pYAACgIF,2020-0188,2021-09-18,17:24:54,18:43:19,NA,incomplete,false,NA,true,1,3,NA,left,E28_Q5_ansL.png,E14_Q6_ansR.png,between,NA,NaN,NA,left,5465.000000000116,1,3,756
pYAACgIF,NA,NA,pYAACgIF,2020-0188,2021-09-18,17:24:54,18:43:19,NA,incomplete,false,NA,true,1,4,NA,right,E14_Q2_ansL.png,E14_Q7_ansL.png,within,NA,NaN,NA,right,5930.999999999884,1,0,1254
pYAACgIF,NA,NA,pYAACgIF,2020-0188,2021-09-18,17:24:54,18:43:19,NA,incomplete,false,NA,true,1,5,NA,right,E28_Q5_ansL.png,E28_Q10_ansR.png,within,NA,NaN,NA,right,2413,1,0,4089
pYAACgIF,NA,NA,pYAACgIF,2020-0188,2021-09-18,17:24:54,18:43:19,NA,incomplete,false,NA,true,1,6,NA,left,E28_Q9_ansL.png,E14_Q5_ansR.png,between,NA,NaN,NA,right,2241,0,1,1026.0000000001164
pYAACgIF,NA,NA,pYAACgIF,2020-0188,2021-09-18,17:24:54,18:43:19,NA,incomplete,false,NA,true,1,7,NA,right,E28_Q1_ansR.png,E28_Q2_ansR.png,within,NA,NaN,NA,right,2409.0000000001164,1,0,2425.9999999998836
pYAACgIF,NA,NA,pYAACgIF,2020-0188,2021-09-18,17:24:54,18:43:19,NA,incomplete,false,NA,true,1,8,NA,left,E28_Q1_ansR.png,E28_Q7_ansR.png,within,NA,NaN,NA,right,2151,0,0,1889
pYAACgIF,NA,NA,pYAACgIF,2020-0188,2021-09-18,17:24:54,18:43:19,NA,incomplete,false,NA,true,1,9,NA,right,E24_Q9_ansL.png,E24_Q6_ansL.png,within,NA,NaN,NA,right,3396.9999999998836,1,1,1184.0000000001164
pYAACgIF,NA,NA,pYAACgIF,2020-0188,2021-09-18,17:24:54,18:43:19,NA,incomplete,false,NA,true,1,10,NA,right,E24_Q2_ansR.png,E24_Q4_ansL.png,within,NA,NaN,NA,right,2942,1,0,1379
pYAACgIF,NA,NA,pYAACgIF,2020-0188,2021-09-18,17:24:54,18:43:19,NA,incomplete,false,NA,true,1,11,NA,left,E24_Q8_ansR.png,E24_Q5_ansL.png,within,NA,NaN,NA,left,1496,1,0,1086
pYAACgIF,NA,NA,pYAACgIF,2020-0188,2021-09-18,17:24:54,18:43:19,NA,incomplete,false,NA,true,1,12,NA,left,E14_Q3_ansR.png,E14_Q4_ansR.png,within,NA,NaN,NA,left,2826,1,1,3234
pYAACgIF,NA,NA,pYAACgIF,2020-0188,2021-09-18,17:24:54,18:43:19,NA,incomplete,false,NA,true,1,13,NA,left,E14_Q4_ansR.png,E24_Q1_ansR.png,between,NA,NaN,NA,left,1572,1,3,1115
pYAACgIF,NA,NA,pYAACgIF,2020-0188,2021-09-18,17:24:54,18:43:19,NA,incomplete,false,NA,true,1,14,NA,right,E28_Q9_ansL.png,E28_Q6_ansL.png,within,NA,NaN,NA,left,2144,0,0,1369
pYAACgIF,NA,NA,pYAACgIF,2020-0188,2021-09-18,17:24:54,18:43:19,NA,incomplete,false,NA,true,1,15,NA,left,E28_Q3_ansL.png,E28_Q10_ansR.png,within,NA,NaN,NA,right,1522,0,1,1107
pYAACgIF,NA,NA,pYAACgIF,2020-0188,2021-09-18,17:24:54,18:43:19,NA,incomplete,false,NA,true,1,16,NA,right,E24_Q6_ansL.png,E14_Q2_ansL.png,between,NA,NaN,NA,right,1090,1,3,888
pYAACgIF,NA,NA,pYAACgIF,2020-0188,2021-09-18,17:24:54,18:43:19,NA,incomplete,false,NA,true,1,17,NA,left,E14_Q6_ansR.png,E14_Q7_ansL.png,within,NA,NaN,NA,left,1939.0000000001164,1,1,1107
pYAACgIF,NA,NA,pYAACgIF,2020-0188,2021-09-18,17:24:54,18:43:19,NA,incomplete,false,NA,true,1,18,NA,left,E14_Q10_ansL.png,E14_Q9_ansR.png,within,NA,NaN,NA,left,1441.0000000001164,1,0,1296
pYAACgIF,NA,NA,pYAACgIF,2020-0188,2021-09-18,17:24:54,18:43:19,NA,incomplete,false,NA,true,1,19,NA,right,E28_Q6_ansL.png,E28_Q4_ansL.png,within,NA,NaN,NA,right,4412.000000000116,1,1,774.9999999998836
pYAACgIF,NA,NA,pYAACgIF,2020-0188,2021-09-18,17:24:54,18:43:19,NA,incomplete,false,NA,true,1,20,NA,left,E14_Q8_ansL.png,E14_Q3_ansR.png,within,NA,NaN,NA,left,1116.9999999998836,1,0,3186
pYAACgIF,NA,NA,pYAACgIF,2020-0188,2021-09-18,17:24:54,18:43:19,NA,incomplete,false,NA,true,1,21,NA,right,E24_Q4_ansL.png,E24_Q5_ansL.png,within,NA,NaN,NA,right,5290,1,0,2029
pYAACgIF,NA,NA,pYAACgIF,2020-0188,2021-09-18,17:24:54,18:43:19,NA,incomplete,false,NA,true,1,22,NA,right,E14_Q10_ansL.png,E28_Q7_ansR.png,between,NA,NaN,NA,right,3813,1,3,1216
pYAACgIF,NA,NA,pYAACgIF,2020-0188,2021-09-18,17:24:54,18:43:19,NA,incomplete,false,NA,true,1,23,NA,left,E28_Q8_ansR.png,E28_Q3_ansL.png,within,NA,NaN,NA,left,1440,1,1,1258
pYAACgIF,NA,NA,pYAACgIF,2020-0188,2021-09-18,17:24:54,18:43:19,NA,incomplete,false,NA,true,1,24,NA,left,E24_Q10_ansR.png,E24_Q3_ansL.png,within,NA,NaN,NA,left,1605,1,1,774
pYAACgIF,NA,NA,pYAACgIF,2020-0188,2021-09-18,17:24:54,18:43:19,NA,incomplete,false,NA,true,1,25,NA,right,E24_Q7_ansR.png,E24_Q9_ansL.png,within,NA,NaN,NA,left,1475,0,0,807
pYAACgIF,NA,NA,pYAACgIF,2020-0188,2021-09-18,17:24:54,18:43:19,NA,incomplete,false,NA,true,1,26,NA,right,E24_Q8_ansR.png,E14_Q1_ansL.png,between,NA,NaN,NA,right,1579,1,3,1598
pYAACgIF,NA,NA,pYAACgIF,2020-0188,2021-09-18,17:24:54,18:43:19,NA,incomplete,false,true,NA,2,0,E2_Q2_ansR.png,right,NA,NA,NA,right,2866,true,NA,NA,NA,NA,NA
pYAACgIF,NA,NA,pYAACgIF,2020-0188,2021-09-18,17:24:54,18:43:19,NA,incomplete,false,true,NA,2,1,E2_Q8_ansR.png,right,NA,NA,NA,right,1334.00000000023,true,NA,NA,NA,NA,NA
pYAACgIF,NA,NA,pYAACgIF,2020-0188,2021-09-18,17:24:54,18:43:19,NA,incomplete,false,true,NA,2,2,E2_Q1_ansL.png,left,NA,NA,NA,left,1649,true,NA,NA,NA,NA,NA
pYAACgIF,NA,NA,pYAACgIF,2020-0188,2021-09-18,17:24:54,18:43:19,NA,incomplete,false,true,NA,2,3,E2_Q4_ansL.png,left,NA,NA,NA,left,1307,true,NA,NA,NA,NA,NA
pYAACgIF,NA,NA,pYAACgIF,2020-0188,2021-09-18,17:24:54,18:43:19,NA,incomplete,false,true,NA,2,4,E2_Q5_ansL.png,left,NA,NA,NA,left,1216.00000000023,true,NA,NA,NA,NA,NA
pYAACgIF,NA,NA,pYAACgIF,2020-0188,2021-09-18,17:24:54,18:43:19,NA,incomplete,false,true,NA,2,5,E2_Q7_ansR.png,right,NA,NA,NA,right,970,true,NA,NA,NA,NA,NA
pYAACgIF,NA,NA,pYAACgIF,2020-0188,2021-09-18,17:24:54,18:43:19,NA,incomplete,false,true,NA,2,6,E2_Q3_ansR.png,right,NA,NA,NA,right,918,true,NA,NA,NA,NA,NA
pYAACgIF,NA,NA,pYAACgIF,2020-0188,2021-09-18,17:24:54,18:43:19,NA,incomplete,false,true,NA,2,7,E2_Q10_ansL.png,left,NA,NA,NA,left,1054,true,NA,NA,NA,NA,NA
pYAACgIF,NA,NA,pYAACgIF,2020-0188,2021-09-18,17:24:54,18:43:19,NA,incomplete,false,true,NA,2,8,E2_Q9_ansL.png,left,NA,NA,NA,left,1613,true,NA,NA,NA,NA,NA
pYAACgIF,NA,NA,pYAACgIF,2020-0188,2021-09-18,17:24:54,18:43:19,NA,incomplete,false,true,NA,2,9,E2_Q6_ansL.png,left,NA,NA,NA,left,1621,true,NA,NA,NA,NA,NA
pYAACgIF,NA,NA,pYAACgIF,2020-0188,2021-09-18,17:24:54,18:43:19,NA,incomplete,false,true,NA,2,10,E11_Q6_ansL.png,left,NA,NA,NA,left,2036,true,NA,NA,NA,NA,NA
pYAACgIF,NA,NA,pYAACgIF,2020-0188,2021-09-18,17:24:54,18:43:19,NA,incomplete,false,true,NA,2,11,E11_Q5_ansL.png,left,NA,NA,NA,left,2529,true,NA,NA,NA,NA,NA
pYAACgIF,NA,NA,pYAACgIF,2020-0188,2021-09-18,17:24:54,18:43:19,NA,incomplete,false,true,NA,2,12,E11_Q1_ansR.png,right,NA,NA,NA,right,1381,true,NA,NA,NA,NA,NA
pYAACgIF,NA,NA,pYAACgIF,2020-0188,2021-09-18,17:24:54,18:43:19,NA,incomplete,false,true,NA,2,13,E11_Q4_ansL.png,left,NA,NA,NA,left,1412,true,NA,NA,NA,NA,NA
pYAACgIF,NA,NA,pYAACgIF,2020-0188,2021-09-18,17:24:54,18:43:19,NA,incomplete,false,true,NA,2,14,E11_Q2_ansR.png,right,NA,NA,NA,right,1196,true,NA,NA,NA,NA,NA
pYAACgIF,NA,NA,pYAACgIF,2020-0188,2021-09-18,17:24:54,18:43:19,NA,incomplete,false,true,NA,2,15,E11_Q3_ansL.png,left,NA,NA,NA,left,989.000000000233,true,NA,NA,NA,NA,NA
pYAACgIF,NA,NA,pYAACgIF,2020-0188,2021-09-18,17:24:54,18:43:19,NA,incomplete,false,true,NA,2,16,E11_Q10_ansR.png,right,NA,NA,NA,right,1300,true,NA,NA,NA,NA,NA
pYAACgIF,NA,NA,pYAACgIF,2020-0188,2021-09-18,17:24:54,18:43:19,NA,incomplete,false,true,NA,2,17,E11_Q7_ansR.png,right,NA,NA,NA,right,2078,true,NA,NA,NA,NA,NA
pYAACgIF,NA,NA,pYAACgIF,2020-0188,2021-09-18,17:24:54,18:43:19,NA,incomplete,false,true,NA,2,18,E11_Q8_ansR.png,right,NA,NA,NA,right,2550,true,NA,NA,NA,NA,NA
pYAACgIF,NA,NA,pYAACgIF,2020-0188,2021-09-18,17:24:54,18:43:19,NA,incomplete,false,true,NA,2,19,E11_Q9_ansL.png,left,NA,NA,NA,left,878.999999999767,true,NA,NA,NA,NA,NA
pYAACgIF,NA,NA,pYAACgIF,2020-0188,2021-09-18,17:24:54,18:43:19,NA,incomplete,false,true,NA,2,20,E6_Q10_ansL.png,left,NA,NA,NA,left,1476,true,NA,NA,NA,NA,NA
pYAACgIF,NA,NA,pYAACgIF,2020-0188,2021-09-18,17:24:54,18:43:19,NA,incomplete,false,true,NA,2,21,E6_Q4_ansR.png,right,NA,NA,NA,right,1053.00000000023,true,NA,NA,NA,NA,NA
pYAACgIF,NA,NA,pYAACgIF,2020-0188,2021-09-18,17:24:54,18:43:19,NA,incomplete,false,true,NA,2,22,E6_Q9_ansL.png,left,NA,NA,NA,left,2401,true,NA,NA,NA,NA,NA
pYAACgIF,NA,NA,pYAACgIF,2020-0188,2021-09-18,17:24:54,18:43:19,NA,incomplete,false,true,NA,2,23,E6_Q2_ansL.png,left,NA,NA,NA,left,1005,true,NA,NA,NA,NA,NA
pYAACgIF,NA,NA,pYAACgIF,2020-0188,2021-09-18,17:24:54,18:43:19,NA,incomplete,false,true,NA,2,24,E6_Q3_ansR.png,right,NA,NA,NA,right,1125,true,NA,NA,NA,NA,NA
pYAACgIF,NA,NA,pYAACgIF,2020-0188,2021-09-18,17:24:54,18:43:19,NA,incomplete,false,true,NA,2,25,E6_Q5_ansR.png,right,NA,NA,NA,right,1383,true,NA,NA,NA,NA,NA
pYAACgIF,NA,NA,pYAACgIF,2020-0188,2021-09-18,17:24:54,18:43:19,NA,incomplete,false,true,NA,2,26,E6_Q7_ansL.png,left,NA,NA,NA,left,1698,true,NA,NA,NA,NA,NA
pYAACgIF,NA,NA,pYAACgIF,2020-0188,2021-09-18,17:24:54,18:43:19,NA,incomplete,false,true,NA,2,27,E6_Q6_ansR.png,right,NA,NA,NA,right,992,true,NA,NA,NA,NA,NA
pYAACgIF,NA,NA,pYAACgIF,2020-0188,2021-09-18,17:24:54,18:43:19,NA,incomplete,false,true,NA,2,28,E6_Q1_ansL.png,left,NA,NA,NA,left,1024,true,NA,NA,NA,NA,NA
pYAACgIF,NA,NA,pYAACgIF,2020-0188,2021-09-18,17:24:54,18:43:19,NA,incomplete,false,true,NA,2,29,E6_Q8_ansL.png,left,NA,NA,NA,left,894,true,NA,NA,NA,NA,NA
pYAACgIF,NA,NA,pYAACgIF,2020-0188,2021-09-18,17:24:54,18:43:19,NA,incomplete,false,NA,true,2,0,NA,left,E2_Q7_ansR.png,E2_Q9_ansL.png,within,NA,NaN,NA,left,3049,1,0,1190
pYAACgIF,NA,NA,pYAACgIF,2020-0188,2021-09-18,17:24:54,18:43:19,NA,incomplete,false,NA,true,2,1,NA,left,E2_Q9_ansL.png,E11_Q5_ansL.png,between,NA,NaN,NA,left,1735,1,3,1981
pYAACgIF,NA,NA,pYAACgIF,2020-0188,2021-09-18,17:24:54,18:43:19,NA,incomplete,false,NA,true,2,2,NA,left,E11_Q1_ansR.png,E11_Q3_ansL.png,within,NA,NaN,NA,left,7271,1,0,1291
pYAACgIF,NA,NA,pYAACgIF,2020-0188,2021-09-18,17:24:54,18:43:19,NA,incomplete,false,NA,true,2,3,NA,right,E11_Q8_ansR.png,E11_Q3_ansL.png,within,NA,NaN,NA,right,1530,1,1,1117
pYAACgIF,NA,NA,pYAACgIF,2020-0188,2021-09-18,17:24:54,18:43:19,NA,incomplete,false,NA,true,2,4,NA,right,E6_Q1_ansL.png,E6_Q5_ansR.png,within,NA,NaN,NA,left,1417,0,0,1370.0000000002328
pYAACgIF,NA,NA,pYAACgIF,2020-0188,2021-09-18,17:24:54,18:43:19,NA,incomplete,false,NA,true,2,5,NA,right,E6_Q7_ansL.png,E6_Q2_ansL.png,within,NA,NaN,NA,right,1891.0000000002328,1,1,950.0000000002328
pYAACgIF,NA,NA,pYAACgIF,2020-0188,2021-09-18,17:24:54,18:43:19,NA,incomplete,false,NA,true,2,6,NA,right,E2_Q4_ansL.png,E2_Q2_ansR.png,within,NA,NaN,NA,right,2281.999999999767,1,1,1246
pYAACgIF,NA,NA,pYAACgIF,2020-0188,2021-09-18,17:24:54,18:43:19,NA,incomplete,false,NA,true,2,7,NA,left,E11_Q10_ansR.png,E11_Q9_ansL.png,within,NA,NaN,NA,left,3676,1,1,1043.9999999997672
pYAACgIF,NA,NA,pYAACgIF,2020-0188,2021-09-18,17:24:54,18:43:19,NA,incomplete,false,NA,true,2,8,NA,right,E6_Q5_ansR.png,E6_Q9_ansL.png,within,NA,NaN,NA,right,1418,1,1,1296
pYAACgIF,NA,NA,pYAACgIF,2020-0188,2021-09-18,17:24:54,18:43:19,NA,incomplete,false,NA,true,2,9,NA,right,E11_Q1_ansR.png,E2_Q6_ansL.png,between,NA,NaN,NA,right,2159.000000000233,1,3,1076
pYAACgIF,NA,NA,pYAACgIF,2020-0188,2021-09-18,17:24:54,18:43:19,NA,incomplete,false,NA,true,2,10,NA,left,E2_Q4_ansL.png,E2_Q3_ansR.png,within,NA,NaN,NA,left,2656,1,1,1735
pYAACgIF,NA,NA,pYAACgIF,2020-0188,2021-09-18,17:24:54,18:43:19,NA,incomplete,false,NA,true,2,11,NA,left,E2_Q1_ansL.png,E2_Q7_ansR.png,within,NA,NaN,NA,left,2331,1,0,1680
pYAACgIF,NA,NA,pYAACgIF,2020-0188,2021-09-18,17:24:54,18:43:19,NA,incomplete,false,NA,true,2,12,NA,left,E6_Q3_ansR.png,E6_Q6_ansR.png,within,NA,NaN,NA,left,3103.000000000233,1,0,1223
pYAACgIF,NA,NA,pYAACgIF,2020-0188,2021-09-18,17:24:54,18:43:19,NA,incomplete,false,NA,true,2,13,NA,left,E2_Q8_ansR.png,E2_Q5_ansL.png,within,NA,NaN,NA,left,1050,1,0,1441
pYAACgIF,NA,NA,pYAACgIF,2020-0188,2021-09-18,17:24:54,18:43:19,NA,incomplete,false,NA,true,2,14,NA,right,E6_Q3_ansR.png,E6_Q4_ansR.png,within,NA,NaN,NA,right,1096.9999999997672,1,1,1801
pYAACgIF,NA,NA,pYAACgIF,2020-0188,2021-09-18,17:24:54,18:43:19,NA,incomplete,false,NA,true,2,15,NA,right,E6_Q2_ansL.png,E6_Q10_ansL.png,within,NA,NaN,NA,right,1197,1,1,1067
pYAACgIF,NA,NA,pYAACgIF,2020-0188,2021-09-18,17:24:54,18:43:19,NA,incomplete,false,NA,true,2,16,NA,left,E11_Q5_ansL.png,E11_Q2_ansR.png,within,NA,NaN,NA,left,1931,1,1,1979
pYAACgIF,NA,NA,pYAACgIF,2020-0188,2021-09-18,17:24:54,18:43:19,NA,incomplete,false,NA,true,2,17,NA,left,E11_Q8_ansR.png,E6_Q4_ansR.png,between,NA,NaN,NA,left,5979.999999999767,1,3,2413
pYAACgIF,NA,NA,pYAACgIF,2020-0188,2021-09-18,17:24:54,18:43:19,NA,incomplete,false,NA,true,2,18,NA,right,E6_Q8_ansL.png,E6_Q7_ansL.png,within,NA,NaN,NA,left,1595,0,1,1166
pYAACgIF,NA,NA,pYAACgIF,2020-0188,2021-09-18,17:24:54,18:43:19,NA,incomplete,false,NA,true,2,19,NA,right,E2_Q10_ansL.png,E2_Q5_ansL.png,within,NA,NaN,NA,right,1623.0000000002328,1,0,1409
pYAACgIF,NA,NA,pYAACgIF,2020-0188,2021-09-18,17:24:54,18:43:19,NA,incomplete,false,NA,true,2,20,NA,right,E11_Q4_ansL.png,E11_Q6_ansL.png,within,NA,NaN,NA,right,2231,1,1,1394
pYAACgIF,NA,NA,pYAACgIF,2020-0188,2021-09-18,17:24:54,18:43:19,NA,incomplete,false,NA,true,2,21,NA,right,E11_Q10_ansR.png,E11_Q4_ansL.png,within,NA,NaN,NA,left,6198,0,1,952.9999999997672
pYAACgIF,NA,NA,pYAACgIF,2020-0188,2021-09-18,17:24:54,18:43:19,NA,incomplete,false,NA,true,2,22,NA,left,E2_Q10_ansL.png,E11_Q6_ansL.png,between,NA,NaN,NA,left,2647,1,3,1761
pYAACgIF,NA,NA,pYAACgIF,2020-0188,2021-09-18,17:24:54,18:43:19,NA,incomplete,false,NA,true,2,23,NA,left,E11_Q9_ansL.png,E6_Q9_ansL.png,between,NA,NaN,NA,left,2370,1,2,2264
pYAACgIF,NA,NA,pYAACgIF,2020-0188,2021-09-18,17:24:54,18:43:19,NA,incomplete,false,NA,true,2,24,NA,left,E2_Q3_ansR.png,E2_Q6_ansL.png,within,NA,NaN,NA,right,3430,0,1,2364
pYAACgIF,NA,NA,pYAACgIF,2020-0188,2021-09-18,17:24:54,18:43:19,NA,incomplete,false,NA,true,2,25,NA,right,E11_Q7_ansR.png,E11_Q2_ansR.png,within,NA,NaN,NA,left,1799.9999999997672,0,1,1166
pYAACgIF,NA,NA,pYAACgIF,2020-0188,2021-09-18,17:24:54,18:43:19,NA,incomplete,false,NA,true,2,26,NA,left,E11_Q7_ansR.png,E6_Q10_ansL.png,between,NA,NaN,NA,right,1180.0000000002328,0,2,4768
pYAACgIF,NA,NA,pYAACgIF,2020-0188,2021-09-18,17:24:54,18:43:19,NA,incomplete,false,true,NA,3,0,E21_Q6_ansR.png,right,NA,NA,NA,right,2244,true,NA,NA,NA,NA,NA
pYAACgIF,NA,NA,pYAACgIF,2020-0188,2021-09-18,17:24:54,18:43:19,NA,incomplete,false,true,NA,3,1,E21_Q9_ansR.png,right,NA,NA,NA,right,867,true,NA,NA,NA,NA,NA
pYAACgIF,NA,NA,pYAACgIF,2020-0188,2021-09-18,17:24:54,18:43:19,NA,incomplete,false,true,NA,3,2,E21_Q7_ansL.png,left,NA,NA,NA,left,741,true,NA,NA,NA,NA,NA
pYAACgIF,NA,NA,pYAACgIF,2020-0188,2021-09-18,17:24:54,18:43:19,NA,incomplete,false,true,NA,3,3,E21_Q4_ansR.png,right,NA,NA,NA,right,653,true,NA,NA,NA,NA,NA
pYAACgIF,NA,NA,pYAACgIF,2020-0188,2021-09-18,17:24:54,18:43:19,NA,incomplete,false,true,NA,3,4,E21_Q2_ansL.png,left,NA,NA,NA,left,1079.00000000023,true,NA,NA,NA,NA,NA
pYAACgIF,NA,NA,pYAACgIF,2020-0188,2021-09-18,17:24:54,18:43:19,NA,incomplete,false,true,NA,3,5,E21_Q3_ansR.png,right,NA,NA,NA,right,933,true,NA,NA,NA,NA,NA
pYAACgIF,NA,NA,pYAACgIF,2020-0188,2021-09-18,17:24:54,18:43:19,NA,incomplete,false,true,NA,3,6,E21_Q8_ansL.png,left,NA,NA,NA,left,952,true,NA,NA,NA,NA,NA
pYAACgIF,NA,NA,pYAACgIF,2020-0188,2021-09-18,17:24:54,18:43:19,NA,incomplete,false,true,NA,3,7,E21_Q10_ansL.png,left,NA,NA,NA,left,758,true,NA,NA,NA,NA,NA
pYAACgIF,NA,NA,pYAACgIF,2020-0188,2021-09-18,17:24:54,18:43:19,NA,incomplete,false,true,NA,3,8,E21_Q1_ansL.png,left,NA,NA,NA,left,1257,true,NA,NA,NA,NA,NA
pYAACgIF,NA,NA,pYAACgIF,2020-0188,2021-09-18,17:24:54,18:43:19,NA,incomplete,false,true,NA,3,9,E21_Q5_ansR.png,right,NA,NA,NA,right,1384,true,NA,NA,NA,NA,NA
pYAACgIF,NA,NA,pYAACgIF,2020-0188,2021-09-18,17:24:54,18:43:19,NA,incomplete,false,true,NA,3,10,E10_Q4_ansL.png,left,NA,NA,NA,none,0,false,NA,NA,NA,NA,NA
pYAACgIF,NA,NA,pYAACgIF,2020-0188,2021-09-18,17:24:54,18:43:19,NA,incomplete,false,true,NA,3,11,E10_Q6_ansR.png,right,NA,NA,NA,left,2579,false,NA,NA,NA,NA,NA
pYAACgIF,NA,NA,pYAACgIF,2020-0188,2021-09-18,17:24:54,18:43:19,NA,incomplete,false,true,NA,3,12,E10_Q2_ansL.png,left,NA,NA,NA,left,1959,true,NA,NA,NA,NA,NA
pYAACgIF,NA,NA,pYAACgIF,2020-0188,2021-09-18,17:24:54,18:43:19,NA,incomplete,false,true,NA,3,13,E10_Q7_ansR.png,right,NA,NA,NA,left,2179.99999999977,false,NA,NA,NA,NA,NA
pYAACgIF,NA,NA,pYAACgIF,2020-0188,2021-09-18,17:24:54,18:43:19,NA,incomplete,false,true,NA,3,14,E10_Q9_ansL.png,left,NA,NA,NA,left,2238.00000000023,true,NA,NA,NA,NA,NA
pYAACgIF,NA,NA,pYAACgIF,2020-0188,2021-09-18,17:24:54,18:43:19,NA,incomplete,false,true,NA,3,15,E10_Q8_ansR.png,right,NA,NA,NA,right,2299,true,NA,NA,NA,NA,NA
pYAACgIF,NA,NA,pYAACgIF,2020-0188,2021-09-18,17:24:54,18:43:19,NA,incomplete,false,true,NA,3,16,E10_Q3_ansL.png,left,NA,NA,NA,right,1481,false,NA,NA,NA,NA,NA
pYAACgIF,NA,NA,pYAACgIF,2020-0188,2021-09-18,17:24:54,18:43:19,NA,incomplete,false,true,NA,3,17,E10_Q10_ansR.png,right,NA,NA,NA,left,3459,false,NA,NA,NA,NA,NA
pYAACgIF,NA,NA,pYAACgIF,2020-0188,2021-09-18,17:24:54,18:43:19,NA,incomplete,false,true,NA,3,18,E10_Q5_ansR.png,right,NA,NA,NA,right,2267,true,NA,NA,NA,NA,NA
pYAACgIF,NA,NA,pYAACgIF,2020-0188,2021-09-18,17:24:54,18:43:19,NA,incomplete,false,true,NA,3,19,E10_Q1_ansL.png,left,NA,NA,NA,left,1949,true,NA,NA,NA,NA,NA
pYAACgIF,NA,NA,pYAACgIF,2020-0188,2021-09-18,17:24:54,18:43:19,NA,incomplete,false,true,NA,3,20,E31_Q6_ansL.png,left,NA,NA,NA,left,1772.00000000023,true,NA,NA,NA,NA,NA
pYAACgIF,NA,NA,pYAACgIF,2020-0188,2021-09-18,17:24:54,18:43:19,NA,incomplete,false,true,NA,3,21,E31_Q3_ansL.png,left,NA,NA,NA,left,1471,true,NA,NA,NA,NA,NA
pYAACgIF,NA,NA,pYAACgIF,2020-0188,2021-09-18,17:24:54,18:43:19,NA,incomplete,false,true,NA,3,22,E31_Q4_ansL.png,left,NA,NA,NA,left,919,true,NA,NA,NA,NA,NA
pYAACgIF,NA,NA,pYAACgIF,2020-0188,2021-09-18,17:24:54,18:43:19,NA,incomplete,false,true,NA,3,23,E31_Q7_ansR.png,right,NA,NA,NA,right,874,true,NA,NA,NA,NA,NA
pYAACgIF,NA,NA,pYAACgIF,2020-0188,2021-09-18,17:24:54,18:43:19,NA,incomplete,false,true,NA,3,24,E31_Q10_ansR.png,right,NA,NA,NA,right,951,true,NA,NA,NA,NA,NA
pYAACgIF,NA,NA,pYAACgIF,2020-0188,2021-09-18,17:24:54,18:43:19,NA,incomplete,false,true,NA,3,25,E31_Q9_ansL.png,left,NA,NA,NA,left,881,true,NA,NA,NA,NA,NA
pYAACgIF,NA,NA,pYAACgIF,2020-0188,2021-09-18,17:24:54,18:43:19,NA,incomplete,false,true,NA,3,26,E31_Q5_ansL.png,left,NA,NA,NA,left,920.999999999767,true,NA,NA,NA,NA,NA
pYAACgIF,NA,NA,pYAACgIF,2020-0188,2021-09-18,17:24:54,18:43:19,NA,incomplete,false,true,NA,3,27,E31_Q2_ansR.png,right,NA,NA,NA,right,1279,true,NA,NA,NA,NA,NA
pYAACgIF,NA,NA,pYAACgIF,2020-0188,2021-09-18,17:24:54,18:43:19,NA,incomplete,false,true,NA,3,28,E31_Q1_ansR.png,right,NA,NA,NA,right,860,true,NA,NA,NA,NA,NA
pYAACgIF,NA,NA,pYAACgIF,2020-0188,2021-09-18,17:24:54,18:43:19,NA,incomplete,false,true,NA,3,29,E31_Q8_ansR.png,right,NA,NA,NA,right,1117,true,NA,NA,NA,NA,NA
pYAACgIF,NA,NA,pYAACgIF,2020-0188,2021-09-18,17:24:54,18:43:19,NA,incomplete,false,NA,true,3,0,NA,left,E10_Q4_ansL.png,E10_Q7_ansR.png,within,NA,NaN,NA,left,3629,1,0,1263
pYAACgIF,NA,NA,pYAACgIF,2020-0188,2021-09-18,17:24:54,18:43:19,NA,incomplete,false,NA,true,3,1,NA,right,E31_Q7_ansR.png,E31_Q6_ansL.png,within,NA,NaN,NA,right,1871,1,0,1459
pYAACgIF,NA,NA,pYAACgIF,2020-0188,2021-09-18,17:24:54,18:43:19,NA,incomplete,false,NA,true,3,2,NA,left,E21_Q8_ansL.png,E21_Q5_ansR.png,within,NA,NaN,NA,right,1564,0,0,1256
pYAACgIF,NA,NA,pYAACgIF,2020-0188,2021-09-18,17:24:54,18:43:19,NA,incomplete,false,NA,true,3,3,NA,left,E10_Q3_ansL.png,E10_Q1_ansL.png,within,NA,NaN,NA,left,1491,1,0,1247
pYAACgIF,NA,NA,pYAACgIF,2020-0188,2021-09-18,17:24:54,18:43:19,NA,incomplete,false,NA,true,3,4,NA,left,E10_Q5_ansR.png,E31_Q3_ansL.png,between,NA,NaN,NA,left,2940.999999999767,1,3,1385.9999999997672
pYAACgIF,NA,NA,pYAACgIF,2020-0188,2021-09-18,17:24:54,18:43:19,NA,incomplete,false,NA,true,3,5,NA,right,E21_Q1_ansL.png,E21_Q3_ansR.png,within,NA,NaN,NA,left,3216,0,1,1931
pYAACgIF,NA,NA,pYAACgIF,2020-0188,2021-09-18,17:24:54,18:43:19,NA,incomplete,false,NA,true,3,6,NA,left,E31_Q10_ansR.png,E31_Q2_ansR.png,within,NA,NaN,NA,left,1556.9999999997672,1,1,1572
pYAACgIF,NA,NA,pYAACgIF,2020-0188,2021-09-18,17:24:54,18:43:19,NA,incomplete,false,NA,true,3,7,NA,left,E10_Q10_ansR.png,E31_Q6_ansL.png,between,NA,NaN,NA,left,1872,1,2,1271.0000000002328
pYAACgIF,NA,NA,pYAACgIF,2020-0188,2021-09-18,17:24:54,18:43:19,NA,incomplete,false,NA,true,3,8,NA,left,E21_Q2_ansL.png,E21_Q10_ansL.png,within,NA,NaN,NA,left,4873,1,0,1142.0000000002328
pYAACgIF,NA,NA,pYAACgIF,2020-0188,2021-09-18,17:24:54,18:43:19,NA,incomplete,false,NA,true,3,9,NA,right,E10_Q3_ansL.png,E10_Q7_ansR.png,within,NA,NaN,NA,right,2188.999999999767,1,0,2372
pYAACgIF,NA,NA,pYAACgIF,2020-0188,2021-09-18,17:24:54,18:43:19,NA,incomplete,false,NA,true,3,10,NA,right,E31_Q9_ansL.png,E31_Q4_ansL.png,within,NA,NaN,NA,right,2997.999999999767,1,1,4010
pYAACgIF,NA,NA,pYAACgIF,2020-0188,2021-09-18,17:24:54,18:43:19,NA,incomplete,false,NA,true,3,11,NA,left,E21_Q1_ansL.png,E10_Q6_ansR.png,between,NA,NaN,NA,left,2491,1,2,1141
pYAACgIF,NA,NA,pYAACgIF,2020-0188,2021-09-18,17:24:54,18:43:19,NA,incomplete,false,NA,true,3,12,NA,left,E21_Q4_ansR.png,E21_Q8_ansL.png,within,NA,NaN,NA,left,5678,1,1,2288
pYAACgIF,NA,NA,pYAACgIF,2020-0188,2021-09-18,17:24:54,18:43:19,NA,incomplete,false,NA,true,3,13,NA,left,E31_Q7_ansR.png,E31_Q5_ansL.png,within,NA,NaN,NA,left,1328,1,0,2004.9999999997672
pYAACgIF,NA,NA,pYAACgIF,2020-0188,2021-09-18,17:24:54,18:43:19,NA,incomplete,false,NA,true,3,14,NA,right,E21_Q4_ansR.png,E21_Q6_ansR.png,within,NA,NaN,NA,right,1269,1,1,1109
pYAACgIF,NA,NA,pYAACgIF,2020-0188,2021-09-18,17:24:54,18:43:19,NA,incomplete,false,NA,true,3,15,NA,left,E10_Q2_ansL.png,E10_Q8_ansR.png,within,NA,NaN,NA,left,1840,1,1,1393.9999999997672
pYAACgIF,NA,NA,pYAACgIF,2020-0188,2021-09-18,17:24:54,18:43:19,NA,incomplete,false,NA,true,3,16,NA,right,E31_Q1_ansR.png,E31_Q9_ansL.png,within,NA,NaN,NA,right,2973.999999999767,1,1,978.9999999997672
pYAACgIF,NA,NA,pYAACgIF,2020-0188,2021-09-18,17:24:54,18:43:19,NA,incomplete,false,NA,true,3,17,NA,left,E21_Q10_ansL.png,E10_Q4_ansL.png,between,NA,NaN,NA,left,3986,1,3,1082
pYAACgIF,NA,NA,pYAACgIF,2020-0188,2021-09-18,17:24:54,18:43:19,NA,incomplete,false,NA,true,3,18,NA,right,E31_Q4_ansL.png,E10_Q1_ansL.png,between,NA,NaN,NA,right,4358.000000000233,1,3,1042
pYAACgIF,NA,NA,pYAACgIF,2020-0188,2021-09-18,17:24:54,18:43:19,NA,incomplete,false,NA,true,3,19,NA,left,E10_Q9_ansL.png,E10_Q10_ansR.png,within,NA,NaN,NA,left,2437,1,1,2992
pYAACgIF,NA,NA,pYAACgIF,2020-0188,2021-09-18,17:24:54,18:43:19,NA,incomplete,false,NA,true,3,20,NA,left,E10_Q8_ansR.png,E10_Q5_ansR.png,within,NA,NaN,NA,right,5214,0,0,1052
pYAACgIF,NA,NA,pYAACgIF,2020-0188,2021-09-18,17:24:54,18:43:19,NA,incomplete,false,NA,true,3,21,NA,left,E21_Q7_ansL.png,E21_Q3_ansR.png,within,NA,NaN,NA,right,1922.0000000002328,0,1,1001
pYAACgIF,NA,NA,pYAACgIF,2020-0188,2021-09-18,17:24:54,18:43:19,NA,incomplete,false,NA,true,3,22,NA,left,E31_Q5_ansL.png,E31_Q8_ansR.png,within,NA,NaN,NA,right,1728,0,1,1387
pYAACgIF,NA,NA,pYAACgIF,2020-0188,2021-09-18,17:24:54,18:43:19,NA,incomplete,false,NA,true,3,23,NA,left,E31_Q3_ansL.png,E31_Q10_ansR.png,within,NA,NaN,NA,left,1385,1,0,1280
pYAACgIF,NA,NA,pYAACgIF,2020-0188,2021-09-18,17:24:54,18:43:19,NA,incomplete,false,NA,true,3,24,NA,left,E10_Q6_ansR.png,E10_Q9_ansL.png,within,NA,NaN,NA,left,1400.9999999997672,1,0,1280
pYAACgIF,NA,NA,pYAACgIF,2020-0188,2021-09-18,17:24:54,18:43:19,NA,incomplete,false,NA,true,3,25,NA,left,E21_Q9_ansR.png,E21_Q2_ansL.png,within,NA,NaN,NA,left,1008,1,0,946
pYAACgIF,NA,NA,pYAACgIF,2020-0188,2021-09-18,17:24:54,18:43:19,NA,incomplete,false,NA,true,3,26,NA,right,E10_Q2_ansL.png,E21_Q5_ansR.png,between,NA,NaN,NA,right,1033,1,3,805
pYAACgIF,NA,NA,pYAACgIF,2020-0188,2021-09-18,17:24:54,18:43:19,NA,incomplete,false,true,NA,4,0,E23_Q4_ansR.png,right,NA,NA,NA,right,2608.00000000023,true,NA,NA,NA,NA,NA
pYAACgIF,NA,NA,pYAACgIF,2020-0188,2021-09-18,17:24:54,18:43:19,NA,incomplete,false,true,NA,4,1,E23_Q2_ansL.png,left,NA,NA,NA,left,941,true,NA,NA,NA,NA,NA
pYAACgIF,NA,NA,pYAACgIF,2020-0188,2021-09-18,17:24:54,18:43:19,NA,incomplete,false,true,NA,4,2,E23_Q10_ansL.png,left,NA,NA,NA,left,880,true,NA,NA,NA,NA,NA
pYAACgIF,NA,NA,pYAACgIF,2020-0188,2021-09-18,17:24:54,18:43:19,NA,incomplete,false,true,NA,4,3,E23_Q8_ansL.png,left,NA,NA,NA,left,964.999999999767,true,NA,NA,NA,NA,NA
pYAACgIF,NA,NA,pYAACgIF,2020-0188,2021-09-18,17:24:54,18:43:19,NA,incomplete,false,true,NA,4,4,E23_Q5_ansR.png,right,NA,NA,NA,right,841,true,NA,NA,NA,NA,NA
pYAACgIF,NA,NA,pYAACgIF,2020-0188,2021-09-18,17:24:54,18:43:19,NA,incomplete,false,true,NA,4,5,E23_Q3_ansR.png,right,NA,NA,NA,right,960,true,NA,NA,NA,NA,NA
pYAACgIF,NA,NA,pYAACgIF,2020-0188,2021-09-18,17:24:54,18:43:19,NA,incomplete,false,true,NA,4,6,E23_Q6_ansR.png,right,NA,NA,NA,right,1482,true,NA,NA,NA,NA,NA
pYAACgIF,NA,NA,pYAACgIF,2020-0188,2021-09-18,17:24:54,18:43:19,NA,incomplete,false,true,NA,4,7,E23_Q1_ansL.png,left,NA,NA,NA,left,754.999999999767,true,NA,NA,NA,NA,NA
pYAACgIF,NA,NA,pYAACgIF,2020-0188,2021-09-18,17:24:54,18:43:19,NA,incomplete,false,true,NA,4,8,E23_Q9_ansR.png,right,NA,NA,NA,right,966.999999999767,true,NA,NA,NA,NA,NA
pYAACgIF,NA,NA,pYAACgIF,2020-0188,2021-09-18,17:24:54,18:43:19,NA,incomplete,false,true,NA,4,9,E23_Q7_ansL.png,left,NA,NA,NA,left,904.999999999767,true,NA,NA,NA,NA,NA
pYAACgIF,NA,NA,pYAACgIF,2020-0188,2021-09-18,17:24:54,18:43:19,NA,incomplete,false,true,NA,4,10,E15_Q3_ansR.png,right,NA,NA,NA,right,3142.99999999977,true,NA,NA,NA,NA,NA
pYAACgIF,NA,NA,pYAACgIF,2020-0188,2021-09-18,17:24:54,18:43:19,NA,incomplete,false,true,NA,4,11,E15_Q6_ansR.png,right,NA,NA,NA,right,2305,true,NA,NA,NA,NA,NA
pYAACgIF,NA,NA,pYAACgIF,2020-0188,2021-09-18,17:24:54,18:43:19,NA,incomplete,false,true,NA,4,12,E15_Q10_ansL.png,left,NA,NA,NA,left,1398,true,NA,NA,NA,NA,NA
pYAACgIF,NA,NA,pYAACgIF,2020-0188,2021-09-18,17:24:54,18:43:19,NA,incomplete,false,true,NA,4,13,E15_Q8_ansL.png,left,NA,NA,NA,left,1001,true,NA,NA,NA,NA,NA
pYAACgIF,NA,NA,pYAACgIF,2020-0188,2021-09-18,17:24:54,18:43:19,NA,incomplete,false,true,NA,4,14,E15_Q4_ansR.png,right,NA,NA,NA,right,1030,true,NA,NA,NA,NA,NA
pYAACgIF,NA,NA,pYAACgIF,2020-0188,2021-09-18,17:24:54,18:43:19,NA,incomplete,false,true,NA,4,15,E15_Q7_ansL.png,left,NA,NA,NA,left,1407.99999999977,true,NA,NA,NA,NA,NA
pYAACgIF,NA,NA,pYAACgIF,2020-0188,2021-09-18,17:24:54,18:43:19,NA,incomplete,false,true,NA,4,16,E15_Q1_ansL.png,left,NA,NA,NA,left,1270,true,NA,NA,NA,NA,NA
pYAACgIF,NA,NA,pYAACgIF,2020-0188,2021-09-18,17:24:54,18:43:19,NA,incomplete,false,true,NA,4,17,E15_Q5_ansR.png,right,NA,NA,NA,right,1067,true,NA,NA,NA,NA,NA
pYAACgIF,NA,NA,pYAACgIF,2020-0188,2021-09-18,17:24:54,18:43:19,NA,incomplete,false,true,NA,4,18,E15_Q9_ansR.png,right,NA,NA,NA,right,1913,true,NA,NA,NA,NA,NA
pYAACgIF,NA,NA,pYAACgIF,2020-0188,2021-09-18,17:24:54,18:43:19,NA,incomplete,false,true,NA,4,19,E15_Q2_ansL.png,left,NA,NA,NA,left,1593,true,NA,NA,NA,NA,NA
pYAACgIF,NA,NA,pYAACgIF,2020-0188,2021-09-18,17:24:54,18:43:19,NA,incomplete,false,true,NA,4,20,E12_Q7_ansL.png,left,NA,NA,NA,left,1964.00000000023,true,NA,NA,NA,NA,NA
pYAACgIF,NA,NA,pYAACgIF,2020-0188,2021-09-18,17:24:54,18:43:19,NA,incomplete,false,true,NA,4,21,E12_Q6_ansR.png,right,NA,NA,NA,right,1162.00000000023,true,NA,NA,NA,NA,NA
pYAACgIF,NA,NA,pYAACgIF,2020-0188,2021-09-18,17:24:54,18:43:19,NA,incomplete,false,true,NA,4,22,E12_Q10_ansL.png,left,NA,NA,NA,left,1185,true,NA,NA,NA,NA,NA
pYAACgIF,NA,NA,pYAACgIF,2020-0188,2021-09-18,17:24:54,18:43:19,NA,incomplete,false,true,NA,4,23,E12_Q2_ansL.png,left,NA,NA,NA,left,1555,true,NA,NA,NA,NA,NA
pYAACgIF,NA,NA,pYAACgIF,2020-0188,2021-09-18,17:24:54,18:43:19,NA,incomplete,false,true,NA,4,24,E12_Q3_ansR.png,right,NA,NA,NA,right,1478.00000000023,true,NA,NA,NA,NA,NA
pYAACgIF,NA,NA,pYAACgIF,2020-0188,2021-09-18,17:24:54,18:43:19,NA,incomplete,false,true,NA,4,25,E12_Q8_ansL.png,left,NA,NA,NA,left,1952,true,NA,NA,NA,NA,NA
pYAACgIF,NA,NA,pYAACgIF,2020-0188,2021-09-18,17:24:54,18:43:19,NA,incomplete,false,true,NA,4,26,E12_Q9_ansR.png,right,NA,NA,NA,right,955.000000000233,true,NA,NA,NA,NA,NA
pYAACgIF,NA,NA,pYAACgIF,2020-0188,2021-09-18,17:24:54,18:43:19,NA,incomplete,false,true,NA,4,27,E12_Q5_ansR.png,right,NA,NA,NA,right,1273,true,NA,NA,NA,NA,NA
pYAACgIF,NA,NA,pYAACgIF,2020-0188,2021-09-18,17:24:54,18:43:19,NA,incomplete,false,true,NA,4,28,E12_Q1_ansL.png,left,NA,NA,NA,left,2054,true,NA,NA,NA,NA,NA
pYAACgIF,NA,NA,pYAACgIF,2020-0188,2021-09-18,17:24:54,18:43:19,NA,incomplete,false,true,NA,4,29,E12_Q4_ansR.png,right,NA,NA,NA,right,1108.00000000023,true,NA,NA,NA,NA,NA
pYAACgIF,NA,NA,pYAACgIF,2020-0188,2021-09-18,17:24:54,18:43:19,NA,incomplete,false,NA,true,4,0,NA,right,E15_Q3_ansR.png,E23_Q1_ansL.png,between,NA,NaN,NA,right,1464.0000000002328,1,3,758
pYAACgIF,NA,NA,pYAACgIF,2020-0188,2021-09-18,17:24:54,18:43:19,NA,incomplete,false,NA,true,4,1,NA,right,E23_Q5_ansR.png,E23_Q2_ansL.png,within,NA,NaN,NA,right,1922,1,1,946.0000000002328
pYAACgIF,NA,NA,pYAACgIF,2020-0188,2021-09-18,17:24:54,18:43:19,NA,incomplete,false,NA,true,4,2,NA,right,E15_Q1_ansL.png,E15_Q8_ansL.png,within,NA,NaN,NA,right,2564.999999999767,1,0,1409
pYAACgIF,NA,NA,pYAACgIF,2020-0188,2021-09-18,17:24:54,18:43:19,NA,incomplete,false,NA,true,4,3,NA,left,E15_Q5_ansR.png,E12_Q7_ansL.png,between,NA,NaN,NA,left,2542,1,3,2043
pYAACgIF,NA,NA,pYAACgIF,2020-0188,2021-09-18,17:24:54,18:43:19,NA,incomplete,false,NA,true,4,4,NA,left,E23_Q10_ansL.png,E23_Q3_ansR.png,within,NA,NaN,NA,right,3054.999999999767,0,1,1947
pYAACgIF,NA,NA,pYAACgIF,2020-0188,2021-09-18,17:24:54,18:43:19,NA,incomplete,false,NA,true,4,5,NA,right,E23_Q1_ansL.png,E23_Q5_ansR.png,within,NA,NaN,NA,left,1375,0,0,1214
pYAACgIF,NA,NA,pYAACgIF,2020-0188,2021-09-18,17:24:54,18:43:19,NA,incomplete,false,NA,true,4,6,NA,right,E15_Q2_ansL.png,E15_Q1_ansL.png,within,NA,NaN,NA,left,13449,0,0,1872
pYAACgIF,NA,NA,pYAACgIF,2020-0188,2021-09-18,17:24:54,18:43:19,NA,incomplete,false,NA,true,4,7,NA,left,E15_Q2_ansL.png,E12_Q10_ansL.png,between,NA,NaN,NA,left,3014,1,3,1075
pYAACgIF,NA,NA,pYAACgIF,2020-0188,2021-09-18,17:24:54,18:43:19,NA,incomplete,false,NA,true,4,8,NA,left,E15_Q10_ansL.png,E15_Q7_ansL.png,within,NA,NaN,NA,left,2059.999999999767,1,1,1752.0000000002328
pYAACgIF,NA,NA,pYAACgIF,2020-0188,2021-09-18,17:24:54,18:43:19,NA,incomplete,false,NA,true,4,9,NA,left,E12_Q9_ansR.png,E12_Q4_ansR.png,within,NA,NaN,NA,left,1570,1,1,1099.0000000002328
pYAACgIF,NA,NA,pYAACgIF,2020-0188,2021-09-18,17:24:54,18:43:19,NA,incomplete,false,NA,true,4,10,NA,left,E23_Q7_ansL.png,E15_Q10_ansL.png,between,NA,NaN,NA,left,2102,1,3,1393
pYAACgIF,NA,NA,pYAACgIF,2020-0188,2021-09-18,17:24:54,18:43:19,NA,incomplete,false,NA,true,4,11,NA,left,E23_Q4_ansR.png,E23_Q8_ansL.png,within,NA,NaN,NA,left,1553.9999999997672,1,1,1094
pYAACgIF,NA,NA,pYAACgIF,2020-0188,2021-09-18,17:24:54,18:43:19,NA,incomplete,false,NA,true,4,12,NA,left,E12_Q6_ansR.png,E12_Q3_ansR.png,within,NA,NaN,NA,left,1433,1,1,1679
pYAACgIF,NA,NA,pYAACgIF,2020-0188,2021-09-18,17:24:54,18:43:19,NA,incomplete,false,NA,true,4,13,NA,left,E12_Q7_ansL.png,E12_Q2_ansL.png,within,NA,NaN,NA,left,2102,1,2,1961
pYAACgIF,NA,NA,pYAACgIF,2020-0188,2021-09-18,17:24:54,18:43:19,NA,incomplete,false,NA,true,4,14,NA,left,E12_Q2_ansL.png,E12_Q9_ansR.png,within,NA,NaN,NA,left,2231,1,1,1302
pYAACgIF,NA,NA,pYAACgIF,2020-0188,2021-09-18,17:24:54,18:43:19,NA,incomplete,false,NA,true,4,15,NA,right,E23_Q6_ansR.png,E23_Q8_ansL.png,within,NA,NaN,NA,left,3592,0,1,2641
pYAACgIF,NA,NA,pYAACgIF,2020-0188,2021-09-18,17:24:54,18:43:19,NA,incomplete,false,NA,true,4,16,NA,right,E15_Q4_ansR.png,E15_Q6_ansR.png,within,NA,NaN,NA,right,2074,1,0,1963
pYAACgIF,NA,NA,pYAACgIF,2020-0188,2021-09-18,17:24:54,18:43:19,NA,incomplete,false,NA,true,4,17,NA,right,E12_Q5_ansR.png,E12_Q3_ansR.png,within,NA,NaN,NA,right,1457,1,0,1189
pYAACgIF,NA,NA,pYAACgIF,2020-0188,2021-09-18,17:24:54,18:43:19,NA,incomplete,false,NA,true,4,18,NA,right,E15_Q5_ansR.png,E15_Q4_ansR.png,within,NA,NaN,NA,left,1213,0,0,986
pYAACgIF,NA,NA,pYAACgIF,2020-0188,2021-09-18,17:24:54,18:43:19,NA,incomplete,false,NA,true,4,19,NA,left,E12_Q8_ansL.png,E12_Q1_ansL.png,within,NA,NaN,NA,left,5293,1,0,986.0000000002328
pYAACgIF,NA,NA,pYAACgIF,2020-0188,2021-09-18,17:24:54,18:43:19,NA,incomplete,false,NA,true,4,20,NA,left,E15_Q9_ansR.png,E12_Q6_ansR.png,between,NA,NaN,NA,left,12594.000000000233,1,2,968
pYAACgIF,NA,NA,pYAACgIF,2020-0188,2021-09-18,17:24:54,18:43:19,NA,incomplete,false,NA,true,4,21,NA,right,E23_Q7_ansL.png,E23_Q6_ansR.png,within,NA,NaN,NA,left,2060.9999999995343,0,0,1182.9999999997672
pYAACgIF,NA,NA,pYAACgIF,2020-0188,2021-09-18,17:24:54,18:43:19,NA,incomplete,false,NA,true,4,22,NA,left,E12_Q10_ansL.png,E12_Q8_ansL.png,within,NA,NaN,NA,left,4718,1,0,1165.9999999997672
pYAACgIF,NA,NA,pYAACgIF,2020-0188,2021-09-18,17:24:54,18:43:19,NA,incomplete,false,NA,true,4,23,NA,right,E15_Q8_ansL.png,E15_Q3_ansR.png,within,NA,NaN,NA,right,2352.0000000004657,1,1,1252.9999999995343
pYAACgIF,NA,NA,pYAACgIF,2020-0188,2021-09-18,17:24:54,18:43:19,NA,incomplete,false,NA,true,4,24,NA,left,E15_Q7_ansL.png,E15_Q9_ansR.png,within,NA,NaN,NA,left,6364.999999999767,1,1,1304.9999999997672
pYAACgIF,NA,NA,pYAACgIF,2020-0188,2021-09-18,17:24:54,18:43:19,NA,incomplete,false,NA,true,4,25,NA,right,E23_Q9_ansR.png,E23_Q3_ansR.png,within,NA,NaN,NA,right,10273.000000000233,1,1,1386
pYAACgIF,NA,NA,pYAACgIF,2020-0188,2021-09-18,17:24:54,18:43:19,NA,incomplete,false,NA,true,4,26,NA,left,E23_Q9_ansR.png,E15_Q6_ansR.png,between,NA,NaN,NA,left,5110,1,3,787.0000000002328
pYAACgIF,NA,NA,pYAACgIF,2020-0188,2021-09-18,17:24:54,18:43:19,NA,incomplete,false,true,NA,5,0,E20_Q1_ansL.png,left,NA,NA,NA,left,1476.99999999953,true,NA,NA,NA,NA,NA
pYAACgIF,NA,NA,pYAACgIF,2020-0188,2021-09-18,17:24:54,18:43:19,NA,incomplete,false,true,NA,5,1,E20_Q2_ansL.png,left,NA,NA,NA,left,1219,true,NA,NA,NA,NA,NA
pYAACgIF,NA,NA,pYAACgIF,2020-0188,2021-09-18,17:24:54,18:43:19,NA,incomplete,false,true,NA,5,2,E20_Q3_ansR.png,right,NA,NA,NA,right,1454,true,NA,NA,NA,NA,NA
pYAACgIF,NA,NA,pYAACgIF,2020-0188,2021-09-18,17:24:54,18:43:19,NA,incomplete,false,true,NA,5,3,E20_Q10_ansL.png,left,NA,NA,NA,left,1661,true,NA,NA,NA,NA,NA
pYAACgIF,NA,NA,pYAACgIF,2020-0188,2021-09-18,17:24:54,18:43:19,NA,incomplete,false,true,NA,5,4,E20_Q9_ansR.png,right,NA,NA,NA,right,1164,true,NA,NA,NA,NA,NA
pYAACgIF,NA,NA,pYAACgIF,2020-0188,2021-09-18,17:24:54,18:43:19,NA,incomplete,false,true,NA,5,5,E20_Q8_ansL.png,left,NA,NA,NA,left,1046,true,NA,NA,NA,NA,NA
pYAACgIF,NA,NA,pYAACgIF,2020-0188,2021-09-18,17:24:54,18:43:19,NA,incomplete,false,true,NA,5,6,E20_Q5_ansR.png,right,NA,NA,NA,right,1379.99999999953,true,NA,NA,NA,NA,NA
pYAACgIF,NA,NA,pYAACgIF,2020-0188,2021-09-18,17:24:54,18:43:19,NA,incomplete,false,true,NA,5,7,E20_Q7_ansL.png,left,NA,NA,NA,left,1056,true,NA,NA,NA,NA,NA
pYAACgIF,NA,NA,pYAACgIF,2020-0188,2021-09-18,17:24:54,18:43:19,NA,incomplete,false,true,NA,5,8,E20_Q6_ansR.png,right,NA,NA,NA,right,1458.00000000047,true,NA,NA,NA,NA,NA
pYAACgIF,NA,NA,pYAACgIF,2020-0188,2021-09-18,17:24:54,18:43:19,NA,incomplete,false,true,NA,5,9,E20_Q4_ansR.png,right,NA,NA,NA,right,1704,true,NA,NA,NA,NA,NA
pYAACgIF,NA,NA,pYAACgIF,2020-0188,2021-09-18,17:24:54,18:43:19,NA,incomplete,false,true,NA,5,10,E27_Q3_ansR.png,right,NA,NA,NA,right,1340,true,NA,NA,NA,NA,NA
pYAACgIF,NA,NA,pYAACgIF,2020-0188,2021-09-18,17:24:54,18:43:19,NA,incomplete,false,true,NA,5,11,E27_Q1_ansL.png,left,NA,NA,NA,left,955,true,NA,NA,NA,NA,NA
pYAACgIF,NA,NA,pYAACgIF,2020-0188,2021-09-18,17:24:54,18:43:19,NA,incomplete,false,true,NA,5,12,E27_Q6_ansR.png,right,NA,NA,NA,right,619,true,NA,NA,NA,NA,NA
pYAACgIF,NA,NA,pYAACgIF,2020-0188,2021-09-18,17:24:54,18:43:19,NA,incomplete,false,true,NA,5,13,E27_Q7_ansL.png,left,NA,NA,NA,left,938,true,NA,NA,NA,NA,NA
pYAACgIF,NA,NA,pYAACgIF,2020-0188,2021-09-18,17:24:54,18:43:19,NA,incomplete,false,true,NA,5,14,E27_Q8_ansL.png,left,NA,NA,NA,left,833.000000000466,true,NA,NA,NA,NA,NA
pYAACgIF,NA,NA,pYAACgIF,2020-0188,2021-09-18,17:24:54,18:43:19,NA,incomplete,false,true,NA,5,15,E27_Q5_ansR.png,right,NA,NA,NA,right,775,true,NA,NA,NA,NA,NA
pYAACgIF,NA,NA,pYAACgIF,2020-0188,2021-09-18,17:24:54,18:43:19,NA,incomplete,false,true,NA,5,16,E27_Q2_ansL.png,left,NA,NA,NA,left,825,true,NA,NA,NA,NA,NA
pYAACgIF,NA,NA,pYAACgIF,2020-0188,2021-09-18,17:24:54,18:43:19,NA,incomplete,false,true,NA,5,17,E27_Q10_ansL.png,left,NA,NA,NA,left,808,true,NA,NA,NA,NA,NA
pYAACgIF,NA,NA,pYAACgIF,2020-0188,2021-09-18,17:24:54,18:43:19,NA,incomplete,false,true,NA,5,18,E27_Q4_ansR.png,right,NA,NA,NA,right,697,true,NA,NA,NA,NA,NA
pYAACgIF,NA,NA,pYAACgIF,2020-0188,2021-09-18,17:24:54,18:43:19,NA,incomplete,false,true,NA,5,19,E27_Q9_ansR.png,right,NA,NA,NA,right,814,true,NA,NA,NA,NA,NA
pYAACgIF,NA,NA,pYAACgIF,2020-0188,2021-09-18,17:24:54,18:43:19,NA,incomplete,false,true,NA,5,20,E33_Q4_ansR.png,right,NA,NA,NA,right,1779,true,NA,NA,NA,NA,NA
pYAACgIF,NA,NA,pYAACgIF,2020-0188,2021-09-18,17:24:54,18:43:19,NA,incomplete,false,true,NA,5,21,E33_Q2_ansL.png,left,NA,NA,NA,left,1331,true,NA,NA,NA,NA,NA
pYAACgIF,NA,NA,pYAACgIF,2020-0188,2021-09-18,17:24:54,18:43:19,NA,incomplete,false,true,NA,5,22,E33_Q7_ansL.png,left,NA,NA,NA,left,2462,true,NA,NA,NA,NA,NA
pYAACgIF,NA,NA,pYAACgIF,2020-0188,2021-09-18,17:24:54,18:43:19,NA,incomplete,false,true,NA,5,23,E33_Q6_ansR.png,right,NA,NA,NA,right,1251,true,NA,NA,NA,NA,NA
pYAACgIF,NA,NA,pYAACgIF,2020-0188,2021-09-18,17:24:54,18:43:19,NA,incomplete,false,true,NA,5,24,E33_Q5_ansR.png,right,NA,NA,NA,left,2491,false,NA,NA,NA,NA,NA
pYAACgIF,NA,NA,pYAACgIF,2020-0188,2021-09-18,17:24:54,18:43:19,NA,incomplete,false,true,NA,5,25,E33_Q9_ansR.png,right,NA,NA,NA,left,2870,false,NA,NA,NA,NA,NA
pYAACgIF,NA,NA,pYAACgIF,2020-0188,2021-09-18,17:24:54,18:43:19,NA,incomplete,false,true,NA,5,26,E33_Q8_ansL.png,left,NA,NA,NA,left,3019,true,NA,NA,NA,NA,NA
pYAACgIF,NA,NA,pYAACgIF,2020-0188,2021-09-18,17:24:54,18:43:19,NA,incomplete,false,true,NA,5,27,E33_Q10_ansL.png,left,NA,NA,NA,left,2045,true,NA,NA,NA,NA,NA
pYAACgIF,NA,NA,pYAACgIF,2020-0188,2021-09-18,17:24:54,18:43:19,NA,incomplete,false,true,NA,5,28,E33_Q1_ansL.png,left,NA,NA,NA,left,1550,true,NA,NA,NA,NA,NA
pYAACgIF,NA,NA,pYAACgIF,2020-0188,2021-09-18,17:24:54,18:43:19,NA,incomplete,false,true,NA,5,29,E33_Q3_ansR.png,right,NA,NA,NA,right,1544,true,NA,NA,NA,NA,NA
pYAACgIF,NA,NA,pYAACgIF,2020-0188,2021-09-18,17:24:54,18:43:19,NA,incomplete,false,NA,true,5,0,NA,left,E33_Q5_ansR.png,E33_Q10_ansL.png,within,NA,NaN,NA,left,9368,1,1,8889.000000000466
pYAACgIF,NA,NA,pYAACgIF,2020-0188,2021-09-18,17:24:54,18:43:19,NA,incomplete,false,NA,true,5,1,NA,left,E20_Q5_ansR.png,E20_Q4_ansR.png,within,NA,NaN,NA,right,1586,0,1,1279
pYAACgIF,NA,NA,pYAACgIF,2020-0188,2021-09-18,17:24:54,18:43:19,NA,incomplete,false,NA,true,5,2,NA,right,E27_Q5_ansR.png,E27_Q6_ansR.png,within,NA,NaN,NA,right,2011,1,1,3012
pYAACgIF,NA,NA,pYAACgIF,2020-0188,2021-09-18,17:24:54,18:43:19,NA,incomplete,false,NA,true,5,3,NA,left,E27_Q5_ansR.png,E27_Q4_ansR.png,within,NA,NaN,NA,left,1888,1,1,953
pYAACgIF,NA,NA,pYAACgIF,2020-0188,2021-09-18,17:24:54,18:43:19,NA,incomplete,false,NA,true,5,4,NA,right,E20_Q8_ansL.png,E20_Q3_ansR.png,within,NA,NaN,NA,right,1578,1,0,1825
pYAACgIF,NA,NA,pYAACgIF,2020-0188,2021-09-18,17:24:54,18:43:19,NA,incomplete,false,NA,true,5,5,NA,right,E20_Q7_ansL.png,E20_Q9_ansR.png,within,NA,NaN,NA,right,12994,1,1,1939.9999999995343
pYAACgIF,NA,NA,pYAACgIF,2020-0188,2021-09-18,17:24:54,18:43:19,NA,incomplete,false,NA,true,5,6,NA,left,E27_Q9_ansR.png,E33_Q7_ansL.png,between,NA,NaN,NA,left,1750,1,2,1694
pYAACgIF,NA,NA,pYAACgIF,2020-0188,2021-09-18,17:24:54,18:43:19,NA,incomplete,false,NA,true,5,7,NA,right,E33_Q5_ansR.png,E33_Q2_ansL.png,within,NA,NaN,NA,right,1636,1,1,1385
pYAACgIF,NA,NA,pYAACgIF,2020-0188,2021-09-18,17:24:54,18:43:19,NA,incomplete,false,NA,true,5,8,NA,right,E33_Q2_ansL.png,E27_Q4_ansR.png,between,NA,NaN,NA,right,4496,1,2,780.9999999995343
pYAACgIF,NA,NA,pYAACgIF,2020-0188,2021-09-18,17:24:54,18:43:19,NA,incomplete,false,NA,true,5,9,NA,right,E33_Q4_ansR.png,E27_Q10_ansL.png,between,NA,NaN,NA,right,24446.000000000466,1,1,1153
pYAACgIF,NA,NA,pYAACgIF,2020-0188,2021-09-18,17:24:54,18:43:19,NA,incomplete,false,NA,true,5,10,NA,left,E27_Q7_ansL.png,E27_Q2_ansL.png,within,NA,NaN,NA,left,10314.000000000466,1,1,1361
pYAACgIF,NA,NA,pYAACgIF,2020-0188,2021-09-18,17:24:54,18:43:19,NA,incomplete,false,NA,true,5,11,NA,right,E33_Q8_ansL.png,E33_Q6_ansR.png,within,NA,NaN,NA,right,6751,1,0,905
pYAACgIF,NA,NA,pYAACgIF,2020-0188,2021-09-18,17:24:54,18:43:19,NA,incomplete,false,NA,true,5,12,NA,left,E20_Q8_ansL.png,E20_Q6_ansR.png,within,NA,NaN,NA,left,6323.000000000466,1,0,2746
pYAACgIF,NA,NA,pYAACgIF,2020-0188,2021-09-18,17:24:54,18:43:19,NA,incomplete,false,NA,true,5,13,NA,left,E27_Q1_ansL.png,E27_Q8_ansL.png,within,NA,NaN,NA,left,1792,1,0,1035
pYAACgIF,NA,NA,pYAACgIF,2020-0188,2021-09-18,17:24:54,18:43:19,NA,incomplete,false,NA,true,5,14,NA,right,E33_Q9_ansR.png,E33_Q7_ansL.png,within,NA,NaN,NA,right,2841,1,0,1082
pYAACgIF,NA,NA,pYAACgIF,2020-0188,2021-09-18,17:24:54,18:43:19,NA,incomplete,false,NA,true,5,15,NA,left,E20_Q2_ansL.png,E20_Q9_ansR.png,within,NA,NaN,NA,left,1106,1,0,1007
pYAACgIF,NA,NA,pYAACgIF,2020-0188,2021-09-18,17:24:54,18:43:19,NA,incomplete,false,NA,true,5,16,NA,right,E27_Q1_ansL.png,E20_Q6_ansR.png,between,NA,NaN,NA,right,15744,1,3,724.9999999995343
pYAACgIF,NA,NA,pYAACgIF,2020-0188,2021-09-18,17:24:54,18:43:19,NA,incomplete,false,NA,true,5,17,NA,left,E27_Q3_ansR.png,E27_Q7_ansL.png,within,NA,NaN,NA,right,17717.999999999534,0,1,2303
pYAACgIF,NA,NA,pYAACgIF,2020-0188,2021-09-18,17:24:54,18:43:19,NA,incomplete,false,NA,true,5,18,NA,right,E20_Q10_ansL.png,E20_Q1_ansL.png,within,NA,NaN,NA,right,1986,1,0,1343
pYAACgIF,NA,NA,pYAACgIF,2020-0188,2021-09-18,17:24:54,18:43:19,NA,incomplete,false,NA,true,5,19,NA,right,E27_Q9_ansR.png,E27_Q2_ansL.png,within,NA,NaN,NA,right,5096.999999999534,1,0,1303
pYAACgIF,NA,NA,pYAACgIF,2020-0188,2021-09-18,17:24:54,18:43:19,NA,incomplete,false,NA,true,5,20,NA,left,E27_Q8_ansL.png,E27_Q10_ansL.png,within,NA,NaN,NA,right,5354,0,1,1018
pYAACgIF,NA,NA,pYAACgIF,2020-0188,2021-09-18,17:24:54,18:43:19,NA,incomplete,false,NA,true,5,21,NA,left,E20_Q4_ansR.png,E27_Q6_ansR.png,between,NA,NaN,NA,left,1212,1,3,969
pYAACgIF,NA,NA,pYAACgIF,2020-0188,2021-09-18,17:24:54,18:43:19,NA,incomplete,false,NA,true,5,22,NA,right,E27_Q3_ansR.png,E20_Q7_ansL.png,between,NA,NaN,NA,right,19991,1,3,5304
pYAACgIF,NA,NA,pYAACgIF,2020-0188,2021-09-18,17:24:54,18:43:19,NA,incomplete,false,NA,true,5,23,NA,left,E33_Q4_ansR.png,E33_Q6_ansR.png,within,NA,NaN,NA,left,1504.0000000004657,1,1,3860.0000000004657
pYAACgIF,NA,NA,pYAACgIF,2020-0188,2021-09-18,17:24:54,18:43:19,NA,incomplete,false,NA,true,5,24,NA,left,E33_Q9_ansR.png,E33_Q1_ansL.png,within,NA,NaN,NA,left,27081,1,0,1413
pYAACgIF,NA,NA,pYAACgIF,2020-0188,2021-09-18,17:24:54,18:43:19,NA,incomplete,false,NA,true,5,25,NA,left,E33_Q8_ansL.png,E33_Q3_ansR.png,within,NA,NaN,NA,left,3046,1,0,902
pYAACgIF,NA,NA,pYAACgIF,2020-0188,2021-09-18,17:24:54,18:43:19,NA,incomplete,false,NA,true,5,26,NA,right,E20_Q5_ansR.png,E20_Q10_ansL.png,within,NA,NaN,NA,left,70624,0,0,2807
pYAACgIF,NA,NA,pYAACgIF,2020-0188,2021-09-18,17:24:54,18:43:19,NA,incomplete,false,true,NA,6,0,E9_Q6_ansL.png,left,NA,NA,NA,left,2392,true,NA,NA,NA,NA,NA
pYAACgIF,NA,NA,pYAACgIF,2020-0188,2021-09-18,17:24:54,18:43:19,NA,incomplete,false,true,NA,6,1,E9_Q2_ansR.png,right,NA,NA,NA,right,1119,true,NA,NA,NA,NA,NA
pYAACgIF,NA,NA,pYAACgIF,2020-0188,2021-09-18,17:24:54,18:43:19,NA,incomplete,false,true,NA,6,2,E9_Q9_ansL.png,left,NA,NA,NA,left,2047,true,NA,NA,NA,NA,NA
pYAACgIF,NA,NA,pYAACgIF,2020-0188,2021-09-18,17:24:54,18:43:19,NA,incomplete,false,true,NA,6,3,E9_Q7_ansR.png,right,NA,NA,NA,right,835,true,NA,NA,NA,NA,NA
pYAACgIF,NA,NA,pYAACgIF,2020-0188,2021-09-18,17:24:54,18:43:19,NA,incomplete,false,true,NA,6,4,E9_Q1_ansR.png,right,NA,NA,NA,right,1268,true,NA,NA,NA,NA,NA
pYAACgIF,NA,NA,pYAACgIF,2020-0188,2021-09-18,17:24:54,18:43:19,NA,incomplete,false,true,NA,6,5,E9_Q5_ansL.png,left,NA,NA,NA,left,864,true,NA,NA,NA,NA,NA
pYAACgIF,NA,NA,pYAACgIF,2020-0188,2021-09-18,17:24:54,18:43:19,NA,incomplete,false,true,NA,6,6,E9_Q3_ansL.png,left,NA,NA,NA,left,1168,true,NA,NA,NA,NA,NA
pYAACgIF,NA,NA,pYAACgIF,2020-0188,2021-09-18,17:24:54,18:43:19,NA,incomplete,false,true,NA,6,7,E9_Q10_ansR.png,right,NA,NA,NA,right,1132,true,NA,NA,NA,NA,NA
pYAACgIF,NA,NA,pYAACgIF,2020-0188,2021-09-18,17:24:54,18:43:19,NA,incomplete,false,true,NA,6,8,E9_Q8_ansR.png,right,NA,NA,NA,right,1326,true,NA,NA,NA,NA,NA
pYAACgIF,NA,NA,pYAACgIF,2020-0188,2021-09-18,17:24:54,18:43:19,NA,incomplete,false,true,NA,6,9,E9_Q4_ansL.png,left,NA,NA,NA,left,986,true,NA,NA,NA,NA,NA
pYAACgIF,NA,NA,pYAACgIF,2020-0188,2021-09-18,17:24:54,18:43:19,NA,incomplete,false,true,NA,6,10,E18_Q7_ansL.png,left,NA,NA,NA,left,1299,true,NA,NA,NA,NA,NA
pYAACgIF,NA,NA,pYAACgIF,2020-0188,2021-09-18,17:24:54,18:43:19,NA,incomplete,false,true,NA,6,11,E18_Q5_ansR.png,right,NA,NA,NA,right,1586,true,NA,NA,NA,NA,NA
pYAACgIF,NA,NA,pYAACgIF,2020-0188,2021-09-18,17:24:54,18:43:19,NA,incomplete,false,true,NA,6,12,E18_Q4_ansR.png,right,NA,NA,NA,right,1050,true,NA,NA,NA,NA,NA
pYAACgIF,NA,NA,pYAACgIF,2020-0188,2021-09-18,17:24:54,18:43:19,NA,incomplete,false,true,NA,6,13,E18_Q9_ansR.png,right,NA,NA,NA,right,995.999999999534,true,NA,NA,NA,NA,NA
pYAACgIF,NA,NA,pYAACgIF,2020-0188,2021-09-18,17:24:54,18:43:19,NA,incomplete,false,true,NA,6,14,E18_Q10_ansL.png,left,NA,NA,NA,left,1503,true,NA,NA,NA,NA,NA
pYAACgIF,NA,NA,pYAACgIF,2020-0188,2021-09-18,17:24:54,18:43:19,NA,incomplete,false,true,NA,6,15,E18_Q2_ansL.png,left,NA,NA,NA,left,1236,true,NA,NA,NA,NA,NA
pYAACgIF,NA,NA,pYAACgIF,2020-0188,2021-09-18,17:24:54,18:43:19,NA,incomplete,false,true,NA,6,16,E18_Q1_ansL.png,left,NA,NA,NA,left,1319,true,NA,NA,NA,NA,NA
pYAACgIF,NA,NA,pYAACgIF,2020-0188,2021-09-18,17:24:54,18:43:19,NA,incomplete,false,true,NA,6,17,E18_Q8_ansL.png,left,NA,NA,NA,left,2025,true,NA,NA,NA,NA,NA
pYAACgIF,NA,NA,pYAACgIF,2020-0188,2021-09-18,17:24:54,18:43:19,NA,incomplete,false,true,NA,6,18,E18_Q3_ansR.png,right,NA,NA,NA,right,1348,true,NA,NA,NA,NA,NA
pYAACgIF,NA,NA,pYAACgIF,2020-0188,2021-09-18,17:24:54,18:43:19,NA,incomplete,false,true,NA,6,19,E18_Q6_ansR.png,right,NA,NA,NA,right,831,true,NA,NA,NA,NA,NA
pYAACgIF,NA,NA,pYAACgIF,2020-0188,2021-09-18,17:24:54,18:43:19,NA,incomplete,false,true,NA,6,20,E26_Q1_ansL.png,left,NA,NA,NA,left,2071,true,NA,NA,NA,NA,NA
pYAACgIF,NA,NA,pYAACgIF,2020-0188,2021-09-18,17:24:54,18:43:19,NA,incomplete,false,true,NA,6,21,E26_Q5_ansR.png,right,NA,NA,NA,right,1498,true,NA,NA,NA,NA,NA
pYAACgIF,NA,NA,pYAACgIF,2020-0188,2021-09-18,17:24:54,18:43:19,NA,incomplete,false,true,NA,6,22,E26_Q4_ansR.png,right,NA,NA,NA,right,1497.99999999953,true,NA,NA,NA,NA,NA
pYAACgIF,NA,NA,pYAACgIF,2020-0188,2021-09-18,17:24:54,18:43:19,NA,incomplete,false,true,NA,6,23,E26_Q3_ansR.png,right,NA,NA,NA,right,985,true,NA,NA,NA,NA,NA
pYAACgIF,NA,NA,pYAACgIF,2020-0188,2021-09-18,17:24:54,18:43:19,NA,incomplete,false,true,NA,6,24,E26_Q6_ansR.png,right,NA,NA,NA,right,1040,true,NA,NA,NA,NA,NA
pYAACgIF,NA,NA,pYAACgIF,2020-0188,2021-09-18,17:24:54,18:43:19,NA,incomplete,false,true,NA,6,25,E26_Q7_ansL.png,left,NA,NA,NA,left,927,true,NA,NA,NA,NA,NA
pYAACgIF,NA,NA,pYAACgIF,2020-0188,2021-09-18,17:24:54,18:43:19,NA,incomplete,false,true,NA,6,26,E26_Q8_ansL.png,left,NA,NA,NA,left,833,true,NA,NA,NA,NA,NA
pYAACgIF,NA,NA,pYAACgIF,2020-0188,2021-09-18,17:24:54,18:43:19,NA,incomplete,false,true,NA,6,27,E26_Q2_ansL.png,left,NA,NA,NA,left,1209.99999999953,true,NA,NA,NA,NA,NA
pYAACgIF,NA,NA,pYAACgIF,2020-0188,2021-09-18,17:24:54,18:43:19,NA,incomplete,false,true,NA,6,28,E26_Q9_ansR.png,right,NA,NA,NA,right,1281,true,NA,NA,NA,NA,NA
pYAACgIF,NA,NA,pYAACgIF,2020-0188,2021-09-18,17:24:54,18:43:19,NA,incomplete,false,true,NA,6,29,E26_Q10_ansL.png,left,NA,NA,NA,left,1002,true,NA,NA,NA,NA,NA
pYAACgIF,NA,NA,pYAACgIF,2020-0188,2021-09-18,17:24:54,18:43:19,NA,incomplete,false,NA,true,6,0,NA,left,E18_Q10_ansL.png,E18_Q8_ansL.png,within,NA,NaN,NA,left,4138.999999999534,1,1,920
pYAACgIF,NA,NA,pYAACgIF,2020-0188,2021-09-18,17:24:54,18:43:19,NA,incomplete,false,NA,true,6,1,NA,right,E26_Q3_ansR.png,E26_Q1_ansL.png,within,NA,NaN,NA,right,1432,1,1,1350
pYAACgIF,NA,NA,pYAACgIF,2020-0188,2021-09-18,17:24:54,18:43:19,NA,incomplete,false,NA,true,6,2,NA,left,E26_Q8_ansL.png,E26_Q10_ansL.png,within,NA,NaN,NA,right,8680,0,0,1001
pYAACgIF,NA,NA,pYAACgIF,2020-0188,2021-09-18,17:24:54,18:43:19,NA,incomplete,false,NA,true,6,3,NA,right,E18_Q2_ansL.png,E18_Q4_ansR.png,within,NA,NaN,NA,right,2556,1,0,1931
pYAACgIF,NA,NA,pYAACgIF,2020-0188,2021-09-18,17:24:54,18:43:19,NA,incomplete,false,NA,true,6,4,NA,left,E26_Q4_ansR.png,E26_Q7_ansL.png,within,NA,NaN,NA,left,2535.9999999995343,1,1,1756.0000000004657
pYAACgIF,NA,NA,pYAACgIF,2020-0188,2021-09-18,17:24:54,18:43:19,NA,incomplete,false,NA,true,6,5,NA,left,E18_Q2_ansL.png,E18_Q3_ansR.png,within,NA,NaN,NA,left,1971.9999999995343,1,1,1589
pYAACgIF,NA,NA,pYAACgIF,2020-0188,2021-09-18,17:24:54,18:43:19,NA,incomplete,false,NA,true,6,6,NA,right,E18_Q4_ansR.png,E9_Q4_ansL.png,between,NA,NaN,NA,right,3201,1,3,912.9999999995343
pYAACgIF,NA,NA,pYAACgIF,2020-0188,2021-09-18,17:24:54,18:43:19,NA,incomplete,false,NA,true,6,7,NA,left,E18_Q5_ansR.png,E18_Q10_ansL.png,within,NA,NaN,NA,left,4764.999999999534,1,1,1458
pYAACgIF,NA,NA,pYAACgIF,2020-0188,2021-09-18,17:24:54,18:43:19,NA,incomplete,false,NA,true,6,8,NA,right,E26_Q1_ansL.png,E18_Q8_ansL.png,between,NA,NaN,NA,right,5496,1,2,5373
pYAACgIF,NA,NA,pYAACgIF,2020-0188,2021-09-18,17:24:54,18:43:19,NA,incomplete,false,NA,true,6,9,NA,right,E9_Q1_ansR.png,E9_Q2_ansR.png,within,NA,NaN,NA,right,2711,1,1,1186
pYAACgIF,NA,NA,pYAACgIF,2020-0188,2021-09-18,17:24:54,18:43:19,NA,incomplete,false,NA,true,6,10,NA,left,E18_Q6_ansR.png,E26_Q4_ansR.png,between,NA,NaN,NA,right,3100.9999999995343,0,2,6996.999999999534
pYAACgIF,NA,NA,pYAACgIF,2020-0188,2021-09-18,17:24:54,18:43:19,NA,incomplete,false,NA,true,6,11,NA,left,E9_Q3_ansL.png,E9_Q4_ansL.png,within,NA,NaN,NA,left,2899,1,1,1735
pYAACgIF,NA,NA,pYAACgIF,2020-0188,2021-09-18,17:24:54,18:43:19,NA,incomplete,false,NA,true,6,12,NA,left,E9_Q5_ansL.png,E9_Q8_ansR.png,within,NA,NaN,NA,left,1498,1,1,1311
pYAACgIF,NA,NA,pYAACgIF,2020-0188,2021-09-18,17:24:54,18:43:19,NA,incomplete,false,NA,true,6,13,NA,right,E26_Q8_ansL.png,E26_Q3_ansR.png,within,NA,NaN,NA,right,2492,1,1,1352
pYAACgIF,NA,NA,pYAACgIF,2020-0188,2021-09-18,17:24:54,18:43:19,NA,incomplete,false,NA,true,6,14,NA,left,E9_Q9_ansL.png,E9_Q5_ansL.png,within,NA,NaN,NA,left,1026.0000000004657,1,0,1246
pYAACgIF,NA,NA,pYAACgIF,2020-0188,2021-09-18,17:24:54,18:43:19,NA,incomplete,false,NA,true,6,15,NA,right,E18_Q9_ansR.png,E18_Q7_ansL.png,within,NA,NaN,NA,right,2058,1,1,4294.000000000466
pYAACgIF,NA,NA,pYAACgIF,2020-0188,2021-09-18,17:24:54,18:43:19,NA,incomplete,false,NA,true,6,16,NA,left,E9_Q7_ansR.png,E9_Q3_ansL.png,within,NA,NaN,NA,left,2636,1,0,896
pYAACgIF,NA,NA,pYAACgIF,2020-0188,2021-09-18,17:24:54,18:43:19,NA,incomplete,false,NA,true,6,17,NA,left,E9_Q8_ansR.png,E18_Q5_ansR.png,between,NA,NaN,NA,left,2458,1,3,952
pYAACgIF,NA,NA,pYAACgIF,2020-0188,2021-09-18,17:24:54,18:43:19,NA,incomplete,false,NA,true,6,18,NA,left,E26_Q6_ansR.png,E26_Q2_ansL.png,within,NA,NaN,NA,right,4663,0,1,1890.0000000004657
pYAACgIF,NA,NA,pYAACgIF,2020-0188,2021-09-18,17:24:54,18:43:19,NA,incomplete,false,NA,true,6,19,NA,left,E26_Q7_ansL.png,E26_Q9_ansR.png,within,NA,NaN,NA,right,1000,0,1,1531
pYAACgIF,NA,NA,pYAACgIF,2020-0188,2021-09-18,17:24:54,18:43:19,NA,incomplete,false,NA,true,6,20,NA,right,E18_Q7_ansL.png,E9_Q10_ansR.png,between,NA,NaN,NA,right,1001,1,3,756.9999999995343
pYAACgIF,NA,NA,pYAACgIF,2020-0188,2021-09-18,17:24:54,18:43:19,NA,incomplete,false,NA,true,6,21,NA,right,E9_Q7_ansR.png,E9_Q6_ansL.png,within,NA,NaN,NA,right,1188.0000000004657,1,0,1378
pYAACgIF,NA,NA,pYAACgIF,2020-0188,2021-09-18,17:24:54,18:43:19,NA,incomplete,false,NA,true,6,22,NA,left,E26_Q5_ansR.png,E26_Q6_ansR.png,within,NA,NaN,NA,left,984,1,0,1077
pYAACgIF,NA,NA,pYAACgIF,2020-0188,2021-09-18,17:24:54,18:43:19,NA,incomplete,false,NA,true,6,23,NA,left,E18_Q1_ansL.png,E18_Q6_ansR.png,within,NA,NaN,NA,right,1997,0,0,1036
pYAACgIF,NA,NA,pYAACgIF,2020-0188,2021-09-18,17:24:54,18:43:19,NA,incomplete,false,NA,true,6,24,NA,right,E9_Q10_ansR.png,E9_Q1_ansR.png,within,NA,NaN,NA,left,846.9999999995343,0,0,978
pYAACgIF,NA,NA,pYAACgIF,2020-0188,2021-09-18,17:24:54,18:43:19,NA,incomplete,false,NA,true,6,25,NA,right,E18_Q1_ansL.png,E18_Q9_ansR.png,within,NA,NaN,NA,right,1172,1,1,889
pYAACgIF,NA,NA,pYAACgIF,2020-0188,2021-09-18,17:24:54,18:43:19,NA,incomplete,false,NA,true,6,26,NA,right,E26_Q5_ansR.png,E18_Q3_ansR.png,between,NA,NaN,NA,right,967,1,2,1222
pYAACgIF,NA,NA,pYAACgIF,2020-0188,2021-09-18,17:24:54,18:43:19,NA,incomplete,false,true,NA,7,0,E7_Q8_ansL.png,left,NA,NA,NA,left,1612,true,NA,NA,NA,NA,NA
pYAACgIF,NA,NA,pYAACgIF,2020-0188,2021-09-18,17:24:54,18:43:19,NA,incomplete,false,true,NA,7,1,E7_Q7_ansL.png,left,NA,NA,NA,left,887.999999999534,true,NA,NA,NA,NA,NA
pYAACgIF,NA,NA,pYAACgIF,2020-0188,2021-09-18,17:24:54,18:43:19,NA,incomplete,false,true,NA,7,2,E7_Q1_ansL.png,left,NA,NA,NA,left,1173.99999999953,true,NA,NA,NA,NA,NA
pYAACgIF,NA,NA,pYAACgIF,2020-0188,2021-09-18,17:24:54,18:43:19,NA,incomplete,false,true,NA,7,3,E7_Q10_ansR.png,right,NA,NA,NA,right,1302.99999999953,true,NA,NA,NA,NA,NA
pYAACgIF,NA,NA,pYAACgIF,2020-0188,2021-09-18,17:24:54,18:43:19,NA,incomplete,false,true,NA,7,4,E7_Q9_ansR.png,right,NA,NA,NA,right,922.999999999534,true,NA,NA,NA,NA,NA
pYAACgIF,NA,NA,pYAACgIF,2020-0188,2021-09-18,17:24:54,18:43:19,NA,incomplete,false,true,NA,7,5,E7_Q5_ansR.png,right,NA,NA,NA,right,1056,true,NA,NA,NA,NA,NA
pYAACgIF,NA,NA,pYAACgIF,2020-0188,2021-09-18,17:24:54,18:43:19,NA,incomplete,false,true,NA,7,6,E7_Q3_ansR.png,right,NA,NA,NA,right,875,true,NA,NA,NA,NA,NA
pYAACgIF,NA,NA,pYAACgIF,2020-0188,2021-09-18,17:24:54,18:43:19,NA,incomplete,false,true,NA,7,7,E7_Q2_ansL.png,left,NA,NA,NA,left,1184.99999999953,true,NA,NA,NA,NA,NA
pYAACgIF,NA,NA,pYAACgIF,2020-0188,2021-09-18,17:24:54,18:43:19,NA,incomplete,false,true,NA,7,8,E7_Q6_ansR.png,right,NA,NA,NA,right,795.999999999534,true,NA,NA,NA,NA,NA
pYAACgIF,NA,NA,pYAACgIF,2020-0188,2021-09-18,17:24:54,18:43:19,NA,incomplete,false,true,NA,7,9,E7_Q4_ansR.png,right,NA,NA,NA,right,1325.00000000047,true,NA,NA,NA,NA,NA
pYAACgIF,NA,NA,pYAACgIF,2020-0188,2021-09-18,17:24:54,18:43:19,NA,incomplete,false,true,NA,7,10,E22_Q2_ansR.png,right,NA,NA,NA,right,1436,true,NA,NA,NA,NA,NA
pYAACgIF,NA,NA,pYAACgIF,2020-0188,2021-09-18,17:24:54,18:43:19,NA,incomplete,false,true,NA,7,11,E22_Q7_ansR.png,right,NA,NA,NA,right,938,true,NA,NA,NA,NA,NA
pYAACgIF,NA,NA,pYAACgIF,2020-0188,2021-09-18,17:24:54,18:43:19,NA,incomplete,false,true,NA,7,12,E22_Q6_ansL.png,left,NA,NA,NA,left,1535,true,NA,NA,NA,NA,NA
pYAACgIF,NA,NA,pYAACgIF,2020-0188,2021-09-18,17:24:54,18:43:19,NA,incomplete,false,true,NA,7,13,E22_Q1_ansR.png,right,NA,NA,NA,right,875,true,NA,NA,NA,NA,NA
pYAACgIF,NA,NA,pYAACgIF,2020-0188,2021-09-18,17:24:54,18:43:19,NA,incomplete,false,true,NA,7,14,E22_Q5_ansL.png,left,NA,NA,NA,left,1040,true,NA,NA,NA,NA,NA
pYAACgIF,NA,NA,pYAACgIF,2020-0188,2021-09-18,17:24:54,18:43:19,NA,incomplete,false,true,NA,7,15,E22_Q3_ansL.png,left,NA,NA,NA,left,1017,true,NA,NA,NA,NA,NA
pYAACgIF,NA,NA,pYAACgIF,2020-0188,2021-09-18,17:24:54,18:43:19,NA,incomplete,false,true,NA,7,16,E22_Q4_ansL.png,left,NA,NA,NA,left,1014,true,NA,NA,NA,NA,NA
pYAACgIF,NA,NA,pYAACgIF,2020-0188,2021-09-18,17:24:54,18:43:19,NA,incomplete,false,true,NA,7,17,E22_Q9_ansL.png,left,NA,NA,NA,left,1242,true,NA,NA,NA,NA,NA
pYAACgIF,NA,NA,pYAACgIF,2020-0188,2021-09-18,17:24:54,18:43:19,NA,incomplete,false,true,NA,7,18,E22_Q10_ansR.png,right,NA,NA,NA,right,667,true,NA,NA,NA,NA,NA
pYAACgIF,NA,NA,pYAACgIF,2020-0188,2021-09-18,17:24:54,18:43:19,NA,incomplete,false,true,NA,7,19,E22_Q8_ansR.png,right,NA,NA,NA,right,1092.00000000047,true,NA,NA,NA,NA,NA
pYAACgIF,NA,NA,pYAACgIF,2020-0188,2021-09-18,17:24:54,18:43:19,NA,incomplete,false,true,NA,7,20,E32_Q4_ansR.png,right,NA,NA,NA,none,0,false,NA,NA,NA,NA,NA
pYAACgIF,NA,NA,pYAACgIF,2020-0188,2021-09-18,17:24:54,18:43:19,NA,incomplete,false,true,NA,7,21,E32_Q6_ansR.png,right,NA,NA,NA,right,1255,true,NA,NA,NA,NA,NA
pYAACgIF,NA,NA,pYAACgIF,2020-0188,2021-09-18,17:24:54,18:43:19,NA,incomplete,false,true,NA,7,22,E32_Q5_ansR.png,right,NA,NA,NA,right,2245,true,NA,NA,NA,NA,NA
pYAACgIF,NA,NA,pYAACgIF,2020-0188,2021-09-18,17:24:54,18:43:19,NA,incomplete,false,true,NA,7,23,E32_Q7_ansL.png,left,NA,NA,NA,left,1332.99999999953,true,NA,NA,NA,NA,NA
pYAACgIF,NA,NA,pYAACgIF,2020-0188,2021-09-18,17:24:54,18:43:19,NA,incomplete,false,true,NA,7,24,E32_Q10_ansL.png,left,NA,NA,NA,left,953,true,NA,NA,NA,NA,NA
pYAACgIF,NA,NA,pYAACgIF,2020-0188,2021-09-18,17:24:54,18:43:19,NA,incomplete,false,true,NA,7,25,E32_Q9_ansR.png,right,NA,NA,NA,right,932,true,NA,NA,NA,NA,NA
pYAACgIF,NA,NA,pYAACgIF,2020-0188,2021-09-18,17:24:54,18:43:19,NA,incomplete,false,true,NA,7,26,E32_Q1_ansL.png,left,NA,NA,NA,left,906,true,NA,NA,NA,NA,NA
pYAACgIF,NA,NA,pYAACgIF,2020-0188,2021-09-18,17:24:54,18:43:19,NA,incomplete,false,true,NA,7,27,E32_Q3_ansR.png,right,NA,NA,NA,right,1072,true,NA,NA,NA,NA,NA
pYAACgIF,NA,NA,pYAACgIF,2020-0188,2021-09-18,17:24:54,18:43:19,NA,incomplete,false,true,NA,7,28,E32_Q2_ansL.png,left,NA,NA,NA,left,1764,true,NA,NA,NA,NA,NA
pYAACgIF,NA,NA,pYAACgIF,2020-0188,2021-09-18,17:24:54,18:43:19,NA,incomplete,false,true,NA,7,29,E32_Q8_ansL.png,left,NA,NA,NA,left,1825,true,NA,NA,NA,NA,NA
pYAACgIF,NA,NA,pYAACgIF,2020-0188,2021-09-18,17:24:54,18:43:19,NA,incomplete,false,NA,true,7,0,NA,left,E7_Q10_ansR.png,E7_Q3_ansR.png,within,NA,NaN,NA,left,3101,1,0,1240.0000000004657
pYAACgIF,NA,NA,pYAACgIF,2020-0188,2021-09-18,17:24:54,18:43:19,NA,incomplete,false,NA,true,7,1,NA,right,E32_Q4_ansR.png,E22_Q9_ansL.png,between,NA,NaN,NA,right,3297,1,2,1320
pYAACgIF,NA,NA,pYAACgIF,2020-0188,2021-09-18,17:24:54,18:43:19,NA,incomplete,false,NA,true,7,2,NA,left,E32_Q4_ansR.png,E32_Q7_ansL.png,within,NA,NaN,NA,left,1855.9999999995343,1,0,864.0000000004657
pYAACgIF,NA,NA,pYAACgIF,2020-0188,2021-09-18,17:24:54,18:43:19,NA,incomplete,false,NA,true,7,3,NA,right,E32_Q10_ansL.png,E32_Q6_ansR.png,within,NA,NaN,NA,right,2237,1,0,1165
pYAACgIF,NA,NA,pYAACgIF,2020-0188,2021-09-18,17:24:54,18:43:19,NA,incomplete,false,NA,true,7,4,NA,right,E22_Q10_ansR.png,E22_Q3_ansL.png,within,NA,NaN,NA,left,3346,0,0,1391.0000000004657
pYAACgIF,NA,NA,pYAACgIF,2020-0188,2021-09-18,17:24:54,18:43:19,NA,incomplete,false,NA,true,7,5,NA,right,E32_Q3_ansR.png,E32_Q10_ansL.png,within,NA,NaN,NA,right,1694,1,1,1483
pYAACgIF,NA,NA,pYAACgIF,2020-0188,2021-09-18,17:24:54,18:43:19,NA,incomplete,false,NA,true,7,6,NA,right,E32_Q5_ansR.png,E22_Q8_ansR.png,between,NA,NaN,NA,right,4248.000000000466,1,2,1439.9999999995343
pYAACgIF,NA,NA,pYAACgIF,2020-0188,2021-09-18,17:24:54,18:43:19,NA,incomplete,false,NA,true,7,7,NA,right,E22_Q6_ansL.png,E7_Q4_ansR.png,between,NA,NaN,NA,right,1644,1,3,871
pYAACgIF,NA,NA,pYAACgIF,2020-0188,2021-09-18,17:24:54,18:43:19,NA,incomplete,false,NA,true,7,8,NA,left,E7_Q6_ansR.png,E22_Q7_ansR.png,between,NA,NaN,NA,left,1367,1,3,1848.0000000004657
pYAACgIF,NA,NA,pYAACgIF,2020-0188,2021-09-18,17:24:54,18:43:19,NA,incomplete,false,NA,true,7,9,NA,left,E7_Q1_ansL.png,E7_Q5_ansR.png,within,NA,NaN,NA,right,2754,0,1,1026.0000000004657
pYAACgIF,NA,NA,pYAACgIF,2020-0188,2021-09-18,17:24:54,18:43:19,NA,incomplete,false,NA,true,7,10,NA,right,E22_Q1_ansR.png,E22_Q2_ansR.png,within,NA,NaN,NA,right,1228,1,1,1008.0000000004657
pYAACgIF,NA,NA,pYAACgIF,2020-0188,2021-09-18,17:24:54,18:43:19,NA,incomplete,false,NA,true,7,11,NA,left,E32_Q7_ansL.png,E32_Q1_ansL.png,within,NA,NaN,NA,left,4406,1,0,1767
pYAACgIF,NA,NA,pYAACgIF,2020-0188,2021-09-18,17:24:54,18:43:19,NA,incomplete,false,NA,true,7,12,NA,right,E7_Q10_ansR.png,E7_Q8_ansL.png,within,NA,NaN,NA,right,1889,1,0,3901
pYAACgIF,NA,NA,pYAACgIF,2020-0188,2021-09-18,17:24:54,18:43:19,NA,incomplete,false,NA,true,7,13,NA,left,E32_Q5_ansR.png,E32_Q9_ansR.png,within,NA,NaN,NA,left,6442,1,0,1294
pYAACgIF,NA,NA,pYAACgIF,2020-0188,2021-09-18,17:24:54,18:43:19,NA,incomplete,false,NA,true,7,14,NA,left,E32_Q1_ansL.png,E32_Q8_ansL.png,within,NA,NaN,NA,right,1963,0,1,840
pYAACgIF,NA,NA,pYAACgIF,2020-0188,2021-09-18,17:24:54,18:43:19,NA,incomplete,false,NA,true,7,15,NA,right,E7_Q4_ansR.png,E7_Q3_ansR.png,within,NA,NaN,NA,right,4986,1,0,1635.0000000004657
pYAACgIF,NA,NA,pYAACgIF,2020-0188,2021-09-18,17:24:54,18:43:19,NA,incomplete,false,NA,true,7,16,NA,right,E22_Q4_ansL.png,E22_Q1_ansR.png,within,NA,NaN,NA,right,2832,1,1,975
pYAACgIF,NA,NA,pYAACgIF,2020-0188,2021-09-18,17:24:54,18:43:19,NA,incomplete,false,NA,true,7,17,NA,right,E7_Q6_ansR.png,E7_Q5_ansR.png,within,NA,NaN,NA,right,2802,1,0,970
pYAACgIF,NA,NA,pYAACgIF,2020-0188,2021-09-18,17:24:54,18:43:19,NA,incomplete,false,NA,true,7,18,NA,left,E22_Q4_ansL.png,E22_Q8_ansR.png,within,NA,NaN,NA,right,1880,0,0,1190
pYAACgIF,NA,NA,pYAACgIF,2020-0188,2021-09-18,17:24:54,18:43:19,NA,incomplete,false,NA,true,7,19,NA,right,E22_Q5_ansL.png,E22_Q7_ansR.png,within,NA,NaN,NA,right,3085.9999999995343,1,0,2891
pYAACgIF,NA,NA,pYAACgIF,2020-0188,2021-09-18,17:24:54,18:43:19,NA,incomplete,false,NA,true,7,20,NA,left,E22_Q6_ansL.png,E22_Q3_ansL.png,within,NA,NaN,NA,left,3272,1,0,1032
pYAACgIF,NA,NA,pYAACgIF,2020-0188,2021-09-18,17:24:54,18:43:19,NA,incomplete,false,NA,true,7,21,NA,left,E22_Q10_ansR.png,E32_Q6_ansR.png,between,NA,NaN,NA,left,4868,1,2,2002
pYAACgIF,NA,NA,pYAACgIF,2020-0188,2021-09-18,17:24:54,18:43:19,NA,incomplete,false,NA,true,7,22,NA,right,E32_Q2_ansL.png,E32_Q9_ansR.png,within,NA,NaN,NA,right,3144,1,0,2312
pYAACgIF,NA,NA,pYAACgIF,2020-0188,2021-09-18,17:24:54,18:43:19,NA,incomplete,false,NA,true,7,23,NA,right,E7_Q9_ansR.png,E7_Q7_ansL.png,within,NA,NaN,NA,right,3412,1,1,2107
pYAACgIF,NA,NA,pYAACgIF,2020-0188,2021-09-18,17:24:54,18:43:19,NA,incomplete,false,NA,true,7,24,NA,right,E22_Q2_ansR.png,E7_Q2_ansL.png,between,NA,NaN,NA,right,1123,1,3,2548.0000000004657
pYAACgIF,NA,NA,pYAACgIF,2020-0188,2021-09-18,17:24:54,18:43:19,NA,incomplete,false,NA,true,7,25,NA,left,E22_Q5_ansL.png,E22_Q9_ansL.png,within,NA,NaN,NA,right,2204.9999999995343,0,1,1678.9999999995343
pYAACgIF,NA,NA,pYAACgIF,2020-0188,2021-09-18,17:24:54,18:43:19,NA,incomplete,false,NA,true,7,26,NA,right,E7_Q2_ansL.png,E7_Q9_ansR.png,within,NA,NaN,NA,left,1130,0,0,2133
pYAACgIF,NA,NA,pYAACgIF,2020-0188,2021-09-18,17:24:54,18:43:19,NA,incomplete,false,true,NA,8,0,E4_Q3_ansL.png,left,NA,NA,NA,left,2749,true,NA,NA,NA,NA,NA
pYAACgIF,NA,NA,pYAACgIF,2020-0188,2021-09-18,17:24:54,18:43:19,NA,incomplete,false,true,NA,8,1,E4_Q9_ansL.png,left,NA,NA,NA,left,1248,true,NA,NA,NA,NA,NA
pYAACgIF,NA,NA,pYAACgIF,2020-0188,2021-09-18,17:24:54,18:43:19,NA,incomplete,false,true,NA,8,2,E4_Q4_ansL.png,left,NA,NA,NA,left,1406,true,NA,NA,NA,NA,NA
pYAACgIF,NA,NA,pYAACgIF,2020-0188,2021-09-18,17:24:54,18:43:19,NA,incomplete,false,true,NA,8,3,E4_Q7_ansR.png,right,NA,NA,NA,right,1192,true,NA,NA,NA,NA,NA
pYAACgIF,NA,NA,pYAACgIF,2020-0188,2021-09-18,17:24:54,18:43:19,NA,incomplete,false,true,NA,8,4,E4_Q2_ansL.png,left,NA,NA,NA,left,1316,true,NA,NA,NA,NA,NA
pYAACgIF,NA,NA,pYAACgIF,2020-0188,2021-09-18,17:24:54,18:43:19,NA,incomplete,false,true,NA,8,5,E4_Q6_ansR.png,right,NA,NA,NA,right,998,true,NA,NA,NA,NA,NA
pYAACgIF,NA,NA,pYAACgIF,2020-0188,2021-09-18,17:24:54,18:43:19,NA,incomplete,false,true,NA,8,6,E4_Q1_ansL.png,left,NA,NA,NA,left,1077.99999999953,true,NA,NA,NA,NA,NA
pYAACgIF,NA,NA,pYAACgIF,2020-0188,2021-09-18,17:24:54,18:43:19,NA,incomplete,false,true,NA,8,7,E4_Q10_ansR.png,right,NA,NA,NA,right,1005,true,NA,NA,NA,NA,NA
pYAACgIF,NA,NA,pYAACgIF,2020-0188,2021-09-18,17:24:54,18:43:19,NA,incomplete,false,true,NA,8,8,E4_Q8_ansR.png,right,NA,NA,NA,right,1020,true,NA,NA,NA,NA,NA
pYAACgIF,NA,NA,pYAACgIF,2020-0188,2021-09-18,17:24:54,18:43:19,NA,incomplete,false,true,NA,8,9,E4_Q5_ansR.png,right,NA,NA,NA,right,1327,true,NA,NA,NA,NA,NA
pYAACgIF,NA,NA,pYAACgIF,2020-0188,2021-09-18,17:24:54,18:43:19,NA,incomplete,false,true,NA,8,10,E17_Q9_ansR.png,right,NA,NA,NA,right,1611,true,NA,NA,NA,NA,NA
pYAACgIF,NA,NA,pYAACgIF,2020-0188,2021-09-18,17:24:54,18:43:19,NA,incomplete,false,true,NA,8,11,E17_Q8_ansL.png,left,NA,NA,NA,left,889,true,NA,NA,NA,NA,NA
pYAACgIF,NA,NA,pYAACgIF,2020-0188,2021-09-18,17:24:54,18:43:19,NA,incomplete,false,true,NA,8,12,E17_Q7_ansL.png,left,NA,NA,NA,left,1634,true,NA,NA,NA,NA,NA
pYAACgIF,NA,NA,pYAACgIF,2020-0188,2021-09-18,17:24:54,18:43:19,NA,incomplete,false,true,NA,8,13,E17_Q10_ansL.png,left,NA,NA,NA,left,1501.00000000047,true,NA,NA,NA,NA,NA
pYAACgIF,NA,NA,pYAACgIF,2020-0188,2021-09-18,17:24:54,18:43:19,NA,incomplete,false,true,NA,8,14,E17_Q3_ansR.png,right,NA,NA,NA,right,684.000000000466,true,NA,NA,NA,NA,NA
pYAACgIF,NA,NA,pYAACgIF,2020-0188,2021-09-18,17:24:54,18:43:19,NA,incomplete,false,true,NA,8,15,E17_Q6_ansR.png,right,NA,NA,NA,right,1073,true,NA,NA,NA,NA,NA
pYAACgIF,NA,NA,pYAACgIF,2020-0188,2021-09-18,17:24:54,18:43:19,NA,incomplete,false,true,NA,8,16,E17_Q4_ansR.png,right,NA,NA,NA,right,880,true,NA,NA,NA,NA,NA
pYAACgIF,NA,NA,pYAACgIF,2020-0188,2021-09-18,17:24:54,18:43:19,NA,incomplete,false,true,NA,8,17,E17_Q1_ansL.png,left,NA,NA,NA,left,958,true,NA,NA,NA,NA,NA
pYAACgIF,NA,NA,pYAACgIF,2020-0188,2021-09-18,17:24:54,18:43:19,NA,incomplete,false,true,NA,8,18,E17_Q2_ansL.png,left,NA,NA,NA,right,790,false,NA,NA,NA,NA,NA
pYAACgIF,NA,NA,pYAACgIF,2020-0188,2021-09-18,17:24:54,18:43:19,NA,incomplete,false,true,NA,8,19,E17_Q5_ansR.png,right,NA,NA,NA,right,1054,true,NA,NA,NA,NA,NA
pYAACgIF,NA,NA,pYAACgIF,2020-0188,2021-09-18,17:24:54,18:43:19,NA,incomplete,false,true,NA,8,20,E30_Q1_ansL.png,left,NA,NA,NA,left,2349,true,NA,NA,NA,NA,NA
pYAACgIF,NA,NA,pYAACgIF,2020-0188,2021-09-18,17:24:54,18:43:19,NA,incomplete,false,true,NA,8,21,E30_Q7_ansL.png,left,NA,NA,NA,right,2857,false,NA,NA,NA,NA,NA
pYAACgIF,NA,NA,pYAACgIF,2020-0188,2021-09-18,17:24:54,18:43:19,NA,incomplete,false,true,NA,8,22,E30_Q4_ansL.png,left,NA,NA,NA,left,1409.00000000047,true,NA,NA,NA,NA,NA
pYAACgIF,NA,NA,pYAACgIF,2020-0188,2021-09-18,17:24:54,18:43:19,NA,incomplete,false,true,NA,8,23,E30_Q6_ansR.png,right,NA,NA,NA,right,2119,true,NA,NA,NA,NA,NA
pYAACgIF,NA,NA,pYAACgIF,2020-0188,2021-09-18,17:24:54,18:43:19,NA,incomplete,false,true,NA,8,24,E30_Q3_ansL.png,left,NA,NA,NA,left,1813,true,NA,NA,NA,NA,NA
pYAACgIF,NA,NA,pYAACgIF,2020-0188,2021-09-18,17:24:54,18:43:19,NA,incomplete,false,true,NA,8,25,E30_Q2_ansL.png,left,NA,NA,NA,left,1516.99999999953,true,NA,NA,NA,NA,NA
pYAACgIF,NA,NA,pYAACgIF,2020-0188,2021-09-18,17:24:54,18:43:19,NA,incomplete,false,true,NA,8,26,E30_Q10_ansR.png,right,NA,NA,NA,right,1659.00000000047,true,NA,NA,NA,NA,NA
pYAACgIF,NA,NA,pYAACgIF,2020-0188,2021-09-18,17:24:54,18:43:19,NA,incomplete,false,true,NA,8,27,E30_Q9_ansL.png,left,NA,NA,NA,left,1888.00000000047,true,NA,NA,NA,NA,NA
pYAACgIF,NA,NA,pYAACgIF,2020-0188,2021-09-18,17:24:54,18:43:19,NA,incomplete,false,true,NA,8,28,E30_Q8_ansL.png,left,NA,NA,NA,right,2099,false,NA,NA,NA,NA,NA
pYAACgIF,NA,NA,pYAACgIF,2020-0188,2021-09-18,17:24:54,18:43:19,NA,incomplete,false,true,NA,8,29,E30_Q5_ansR.png,right,NA,NA,NA,right,1430.99999999953,true,NA,NA,NA,NA,NA
pYAACgIF,NA,NA,pYAACgIF,2020-0188,2021-09-18,17:24:54,18:43:19,NA,incomplete,false,NA,true,8,0,NA,left,E17_Q5_ansR.png,E30_Q4_ansL.png,between,NA,NaN,NA,left,2056,1,2,997
pYAACgIF,NA,NA,pYAACgIF,2020-0188,2021-09-18,17:24:54,18:43:19,NA,incomplete,false,NA,true,8,1,NA,right,E4_Q5_ansR.png,E4_Q1_ansL.png,within,NA,NaN,NA,left,4877.999999999534,0,0,843
pYAACgIF,NA,NA,pYAACgIF,2020-0188,2021-09-18,17:24:54,18:43:19,NA,incomplete,false,NA,true,8,2,NA,left,E17_Q6_ansR.png,E17_Q2_ansL.png,within,NA,NaN,NA,right,1848.9999999995343,0,0,1694.9999999995343
pYAACgIF,NA,NA,pYAACgIF,2020-0188,2021-09-18,17:24:54,18:43:19,NA,incomplete,false,NA,true,8,3,NA,left,E4_Q8_ansR.png,E17_Q8_ansL.png,between,NA,NaN,NA,right,108755,0,3,1472
pYAACgIF,NA,NA,pYAACgIF,2020-0188,2021-09-18,17:24:54,18:43:19,NA,incomplete,false,NA,true,8,4,NA,left,E17_Q3_ansR.png,E17_Q1_ansL.png,within,NA,NaN,NA,left,1775,1,0,1287.0000000004657
pYAACgIF,NA,NA,pYAACgIF,2020-0188,2021-09-18,17:24:54,18:43:19,NA,incomplete,false,NA,true,8,5,NA,left,E30_Q10_ansR.png,E30_Q5_ansR.png,within,NA,NaN,NA,left,2939,1,0,1303.9999999995343
pYAACgIF,NA,NA,pYAACgIF,2020-0188,2021-09-18,17:24:54,18:43:19,NA,incomplete,false,NA,true,8,6,NA,right,E17_Q5_ansR.png,E17_Q4_ansR.png,within,NA,NaN,NA,left,5519.000000000466,0,0,1049.9999999995343
pYAACgIF,NA,NA,pYAACgIF,2020-0188,2021-09-18,17:24:54,18:43:19,NA,incomplete,false,NA,true,8,7,NA,left,E4_Q5_ansR.png,E17_Q7_ansL.png,between,NA,NaN,NA,right,1205,0,3,976.0000000004657
pYAACgIF,NA,NA,pYAACgIF,2020-0188,2021-09-18,17:24:54,18:43:19,NA,incomplete,false,NA,true,8,8,NA,left,E4_Q2_ansL.png,E4_Q10_ansR.png,within,NA,NaN,NA,left,3714,1,0,1183
pYAACgIF,NA,NA,pYAACgIF,2020-0188,2021-09-18,17:24:54,18:43:19,NA,incomplete,false,NA,true,8,9,NA,right,E4_Q6_ansR.png,E4_Q4_ansL.png,within,NA,NaN,NA,left,1709,0,0,1075
pYAACgIF,NA,NA,pYAACgIF,2020-0188,2021-09-18,17:24:54,18:43:19,NA,incomplete,false,NA,true,8,10,NA,right,E30_Q3_ansL.png,E30_Q7_ansL.png,within,NA,NaN,NA,right,1855,1,1,1742.9999999995343
pYAACgIF,NA,NA,pYAACgIF,2020-0188,2021-09-18,17:24:54,18:43:19,NA,incomplete,false,NA,true,8,11,NA,right,E30_Q1_ansL.png,E17_Q1_ansL.png,between,NA,NaN,NA,right,2273.0000000004657,1,2,1108.9999999995343
pYAACgIF,NA,NA,pYAACgIF,2020-0188,2021-09-18,17:24:54,18:43:19,NA,incomplete,false,NA,true,8,12,NA,right,E30_Q9_ansL.png,E30_Q3_ansL.png,within,NA,NaN,NA,right,4603,1,0,1007
pYAACgIF,NA,NA,pYAACgIF,2020-0188,2021-09-18,17:24:54,18:43:19,NA,incomplete,false,NA,true,8,13,NA,left,E17_Q2_ansL.png,E30_Q7_ansL.png,between,NA,NaN,NA,left,1350,1,2,1076
pYAACgIF,NA,NA,pYAACgIF,2020-0188,2021-09-18,17:24:54,18:43:19,NA,incomplete,false,NA,true,8,14,NA,right,E17_Q3_ansR.png,E17_Q8_ansL.png,within,NA,NaN,NA,right,3103.9999999995343,1,1,1125
pYAACgIF,NA,NA,pYAACgIF,2020-0188,2021-09-18,17:24:54,18:43:19,NA,incomplete,false,NA,true,8,15,NA,right,E4_Q1_ansL.png,E4_Q7_ansR.png,within,NA,NaN,NA,right,1327,1,1,1132.9999999995343
pYAACgIF,NA,NA,pYAACgIF,2020-0188,2021-09-18,17:24:54,18:43:19,NA,incomplete,false,NA,true,8,16,NA,right,E4_Q7_ansR.png,E4_Q3_ansL.png,within,NA,NaN,NA,right,2338,1,0,2421
pYAACgIF,NA,NA,pYAACgIF,2020-0188,2021-09-18,17:24:54,18:43:19,NA,incomplete,false,NA,true,8,17,NA,left,E30_Q6_ansR.png,E30_Q10_ansR.png,within,NA,NaN,NA,left,7115,1,0,1679.9999999995343
pYAACgIF,NA,NA,pYAACgIF,2020-0188,2021-09-18,17:24:54,18:43:19,NA,incomplete,false,NA,true,8,18,NA,left,E30_Q1_ansL.png,E30_Q6_ansR.png,within,NA,NaN,NA,left,4860.000000000466,1,0,1410
pYAACgIF,NA,NA,pYAACgIF,2020-0188,2021-09-18,17:24:54,18:43:19,NA,incomplete,false,NA,true,8,19,NA,right,E4_Q8_ansR.png,E4_Q6_ansR.png,within,NA,NaN,NA,left,1636,0,1,1256
pYAACgIF,NA,NA,pYAACgIF,2020-0188,2021-09-18,17:24:54,18:43:19,NA,incomplete,false,NA,true,8,20,NA,right,E30_Q8_ansL.png,E30_Q2_ansL.png,within,NA,NaN,NA,left,1465,0,1,1018
pYAACgIF,NA,NA,pYAACgIF,2020-0188,2021-09-18,17:24:54,18:43:19,NA,incomplete,false,NA,true,8,21,NA,left,E4_Q10_ansR.png,E17_Q9_ansR.png,between,NA,NaN,NA,right,1327,0,2,1093
pYAACgIF,NA,NA,pYAACgIF,2020-0188,2021-09-18,17:24:54,18:43:19,NA,incomplete,false,NA,true,8,22,NA,left,E17_Q7_ansL.png,E17_Q6_ansR.png,within,NA,NaN,NA,right,3199.0000000004657,0,1,945
pYAACgIF,NA,NA,pYAACgIF,2020-0188,2021-09-18,17:24:54,18:43:19,NA,incomplete,false,NA,true,8,23,NA,left,E17_Q9_ansR.png,E17_Q10_ansL.png,within,NA,NaN,NA,right,1523,0,1,847.9999999995343
pYAACgIF,NA,NA,pYAACgIF,2020-0188,2021-09-18,17:24:54,18:43:19,NA,incomplete,false,NA,true,8,24,NA,right,E17_Q4_ansR.png,E17_Q10_ansL.png,within,NA,NaN,NA,left,1031,0,1,854.0000000004657
pYAACgIF,NA,NA,pYAACgIF,2020-0188,2021-09-18,17:24:54,18:43:19,NA,incomplete,false,NA,true,8,25,NA,left,E30_Q4_ansL.png,E30_Q2_ansL.png,within,NA,NaN,NA,left,1622,1,1,1068
pYAACgIF,NA,NA,pYAACgIF,2020-0188,2021-09-18,17:24:54,18:43:19,NA,incomplete,false,NA,true,8,26,NA,left,E4_Q9_ansL.png,E4_Q2_ansL.png,within,NA,NaN,NA,left,1328,1,1,1312
pYAACgIF,NA,NA,pYAACgIF,2020-0188,2021-09-18,17:24:54,18:43:19,NA,incomplete,false,true,NA,9,0,E19_Q7_ansL.png,left,NA,NA,NA,left,2903,true,NA,NA,NA,NA,NA
pYAACgIF,NA,NA,pYAACgIF,2020-0188,2021-09-18,17:24:54,18:43:19,NA,incomplete,false,true,NA,9,1,E19_Q4_ansR.png,right,NA,NA,NA,right,770.999999999534,true,NA,NA,NA,NA,NA
pYAACgIF,NA,NA,pYAACgIF,2020-0188,2021-09-18,17:24:54,18:43:19,NA,incomplete,false,true,NA,9,2,E19_Q1_ansL.png,left,NA,NA,NA,left,972.999999999534,true,NA,NA,NA,NA,NA
pYAACgIF,NA,NA,pYAACgIF,2020-0188,2021-09-18,17:24:54,18:43:19,NA,incomplete,false,true,NA,9,3,E19_Q10_ansL.png,left,NA,NA,NA,left,1038,true,NA,NA,NA,NA,NA
pYAACgIF,NA,NA,pYAACgIF,2020-0188,2021-09-18,17:24:54,18:43:19,NA,incomplete,false,true,NA,9,4,E19_Q3_ansR.png,right,NA,NA,NA,right,879.999999999534,true,NA,NA,NA,NA,NA
pYAACgIF,NA,NA,pYAACgIF,2020-0188,2021-09-18,17:24:54,18:43:19,NA,incomplete,false,true,NA,9,5,E19_Q9_ansR.png,right,NA,NA,NA,right,1310,true,NA,NA,NA,NA,NA
pYAACgIF,NA,NA,pYAACgIF,2020-0188,2021-09-18,17:24:54,18:43:19,NA,incomplete,false,true,NA,9,6,E19_Q5_ansR.png,right,NA,NA,NA,right,1112,true,NA,NA,NA,NA,NA
pYAACgIF,NA,NA,pYAACgIF,2020-0188,2021-09-18,17:24:54,18:43:19,NA,incomplete,false,true,NA,9,7,E19_Q8_ansL.png,left,NA,NA,NA,left,1176.99999999953,true,NA,NA,NA,NA,NA
pYAACgIF,NA,NA,pYAACgIF,2020-0188,2021-09-18,17:24:54,18:43:19,NA,incomplete,false,true,NA,9,8,E19_Q6_ansR.png,right,NA,NA,NA,right,1203,true,NA,NA,NA,NA,NA
pYAACgIF,NA,NA,pYAACgIF,2020-0188,2021-09-18,17:24:54,18:43:19,NA,incomplete,false,true,NA,9,9,E19_Q2_ansL.png,left,NA,NA,NA,left,916,true,NA,NA,NA,NA,NA
pYAACgIF,NA,NA,pYAACgIF,2020-0188,2021-09-18,17:24:54,18:43:19,NA,incomplete,false,true,NA,9,10,E5_Q9_ansR.png,right,NA,NA,NA,right,1481,true,NA,NA,NA,NA,NA
pYAACgIF,NA,NA,pYAACgIF,2020-0188,2021-09-18,17:24:54,18:43:19,NA,incomplete,false,true,NA,9,11,E5_Q10_ansR.png,right,NA,NA,NA,right,1064,true,NA,NA,NA,NA,NA
pYAACgIF,NA,NA,pYAACgIF,2020-0188,2021-09-18,17:24:54,18:43:19,NA,incomplete,false,true,NA,9,12,E5_Q2_ansL.png,left,NA,NA,NA,left,1132,true,NA,NA,NA,NA,NA
pYAACgIF,NA,NA,pYAACgIF,2020-0188,2021-09-18,17:24:54,18:43:19,NA,incomplete,false,true,NA,9,13,E5_Q8_ansL.png,left,NA,NA,NA,left,862.000000000466,true,NA,NA,NA,NA,NA
pYAACgIF,NA,NA,pYAACgIF,2020-0188,2021-09-18,17:24:54,18:43:19,NA,incomplete,false,true,NA,9,14,E5_Q3_ansR.png,right,NA,NA,NA,right,1071.00000000047,true,NA,NA,NA,NA,NA
pYAACgIF,NA,NA,pYAACgIF,2020-0188,2021-09-18,17:24:54,18:43:19,NA,incomplete,false,true,NA,9,15,E5_Q4_ansR.png,right,NA,NA,NA,right,912,true,NA,NA,NA,NA,NA
pYAACgIF,NA,NA,pYAACgIF,2020-0188,2021-09-18,17:24:54,18:43:19,NA,incomplete,false,true,NA,9,16,E5_Q1_ansL.png,left,NA,NA,NA,left,875.999999999534,true,NA,NA,NA,NA,NA
pYAACgIF,NA,NA,pYAACgIF,2020-0188,2021-09-18,17:24:54,18:43:19,NA,incomplete,false,true,NA,9,17,E5_Q7_ansL.png,left,NA,NA,NA,left,1148,true,NA,NA,NA,NA,NA
pYAACgIF,NA,NA,pYAACgIF,2020-0188,2021-09-18,17:24:54,18:43:19,NA,incomplete,false,true,NA,9,18,E5_Q6_ansR.png,right,NA,NA,NA,right,1713,true,NA,NA,NA,NA,NA
pYAACgIF,NA,NA,pYAACgIF,2020-0188,2021-09-18,17:24:54,18:43:19,NA,incomplete,false,true,NA,9,19,E5_Q5_ansR.png,right,NA,NA,NA,right,1664.00000000047,true,NA,NA,NA,NA,NA
pYAACgIF,NA,NA,pYAACgIF,2020-0188,2021-09-18,17:24:54,18:43:19,NA,incomplete,false,true,NA,9,20,E1_Q2_ansL.png,left,NA,NA,NA,left,1616.99999999953,true,NA,NA,NA,NA,NA
pYAACgIF,NA,NA,pYAACgIF,2020-0188,2021-09-18,17:24:54,18:43:19,NA,incomplete,false,true,NA,9,21,E1_Q1_ansL.png,left,NA,NA,NA,left,1244,true,NA,NA,NA,NA,NA
pYAACgIF,NA,NA,pYAACgIF,2020-0188,2021-09-18,17:24:54,18:43:19,NA,incomplete,false,true,NA,9,22,E1_Q9_ansL.png,left,NA,NA,NA,left,1168,true,NA,NA,NA,NA,NA
pYAACgIF,NA,NA,pYAACgIF,2020-0188,2021-09-18,17:24:54,18:43:19,NA,incomplete,false,true,NA,9,23,E1_Q6_ansR.png,right,NA,NA,NA,right,1662,true,NA,NA,NA,NA,NA
pYAACgIF,NA,NA,pYAACgIF,2020-0188,2021-09-18,17:24:54,18:43:19,NA,incomplete,false,true,NA,9,24,E1_Q5_ansR.png,right,NA,NA,NA,right,1544.99999999953,true,NA,NA,NA,NA,NA
pYAACgIF,NA,NA,pYAACgIF,2020-0188,2021-09-18,17:24:54,18:43:19,NA,incomplete,false,true,NA,9,25,E1_Q10_ansR.png,right,NA,NA,NA,right,1519.00000000047,true,NA,NA,NA,NA,NA
pYAACgIF,NA,NA,pYAACgIF,2020-0188,2021-09-18,17:24:54,18:43:19,NA,incomplete,false,true,NA,9,26,E1_Q3_ansR.png,right,NA,NA,NA,right,2255,true,NA,NA,NA,NA,NA
pYAACgIF,NA,NA,pYAACgIF,2020-0188,2021-09-18,17:24:54,18:43:19,NA,incomplete,false,true,NA,9,27,E1_Q7_ansL.png,left,NA,NA,NA,left,1010,true,NA,NA,NA,NA,NA
pYAACgIF,NA,NA,pYAACgIF,2020-0188,2021-09-18,17:24:54,18:43:19,NA,incomplete,false,true,NA,9,28,E1_Q4_ansL.png,left,NA,NA,NA,left,1477,true,NA,NA,NA,NA,NA
pYAACgIF,NA,NA,pYAACgIF,2020-0188,2021-09-18,17:24:54,18:43:19,NA,incomplete,false,true,NA,9,29,E1_Q8_ansR.png,right,NA,NA,NA,right,1456.00000000047,true,NA,NA,NA,NA,NA
pYAACgIF,NA,NA,pYAACgIF,2020-0188,2021-09-18,17:24:54,18:43:19,NA,incomplete,false,NA,true,9,0,NA,left,E1_Q9_ansL.png,E1_Q10_ansR.png,within,NA,NaN,NA,left,2436.9999999995343,1,0,912
pYAACgIF,NA,NA,pYAACgIF,2020-0188,2021-09-18,17:24:54,18:43:19,NA,incomplete,false,NA,true,9,1,NA,left,E1_Q1_ansL.png,E1_Q5_ansR.png,within,NA,NaN,NA,left,1600,1,1,1160
pYAACgIF,NA,NA,pYAACgIF,2020-0188,2021-09-18,17:24:54,18:43:19,NA,incomplete,false,NA,true,9,2,NA,left,E19_Q9_ansR.png,E19_Q6_ansR.png,within,NA,NaN,NA,left,1668,1,0,1264
pYAACgIF,NA,NA,pYAACgIF,2020-0188,2021-09-18,17:24:54,18:43:19,NA,incomplete,false,NA,true,9,3,NA,right,E5_Q6_ansR.png,E5_Q4_ansR.png,within,NA,NaN,NA,right,1635,1,0,1026
pYAACgIF,NA,NA,pYAACgIF,2020-0188,2021-09-18,17:24:54,18:43:19,NA,incomplete,false,NA,true,9,4,NA,left,E5_Q5_ansR.png,E1_Q9_ansL.png,between,NA,NaN,NA,left,1105,1,2,1084
pYAACgIF,NA,NA,pYAACgIF,2020-0188,2021-09-18,17:24:54,18:43:19,NA,incomplete,false,NA,true,9,5,NA,left,E5_Q6_ansR.png,E1_Q1_ansL.png,between,NA,NaN,NA,left,1564.9999999995343,1,3,971
pYAACgIF,NA,NA,pYAACgIF,2020-0188,2021-09-18,17:24:54,18:43:19,NA,incomplete,false,NA,true,9,6,NA,left,E1_Q5_ansR.png,E1_Q7_ansL.png,within,NA,NaN,NA,left,2665,1,0,1122
pYAACgIF,NA,NA,pYAACgIF,2020-0188,2021-09-18,17:24:54,18:43:19,NA,incomplete,false,NA,true,9,7,NA,right,E19_Q10_ansL.png,E19_Q7_ansL.png,within,NA,NaN,NA,right,1750,1,1,1255.9999999995343
pYAACgIF,NA,NA,pYAACgIF,2020-0188,2021-09-18,17:24:54,18:43:19,NA,incomplete,false,NA,true,9,8,NA,left,E19_Q3_ansR.png,E19_Q8_ansL.png,within,NA,NaN,NA,left,1654,1,1,1027
pYAACgIF,NA,NA,pYAACgIF,2020-0188,2021-09-18,17:24:54,18:43:19,NA,incomplete,false,NA,true,9,9,NA,left,E19_Q6_ansR.png,E5_Q10_ansR.png,between,NA,NaN,NA,left,2410.9999999995343,1,3,847.0000000004657
pYAACgIF,NA,NA,pYAACgIF,2020-0188,2021-09-18,17:24:54,18:43:19,NA,incomplete,false,NA,true,9,10,NA,left,E5_Q2_ansL.png,E5_Q4_ansR.png,within,NA,NaN,NA,left,3079.9999999995343,1,1,1099.9999999995343
pYAACgIF,NA,NA,pYAACgIF,2020-0188,2021-09-18,17:24:54,18:43:19,NA,incomplete,false,NA,true,9,11,NA,right,E5_Q3_ansR.png,E5_Q10_ansR.png,within,NA,NaN,NA,right,1442,1,1,872
pYAACgIF,NA,NA,pYAACgIF,2020-0188,2021-09-18,17:24:54,18:43:19,NA,incomplete,false,NA,true,9,12,NA,right,E5_Q7_ansL.png,E5_Q3_ansR.png,within,NA,NaN,NA,right,2255,1,1,1196
pYAACgIF,NA,NA,pYAACgIF,2020-0188,2021-09-18,17:24:54,18:43:19,NA,incomplete,false,NA,true,9,13,NA,left,E1_Q2_ansL.png,E1_Q6_ansR.png,within,NA,NaN,NA,left,2395,1,1,3609
pYAACgIF,NA,NA,pYAACgIF,2020-0188,2021-09-18,17:24:54,18:43:19,NA,incomplete,false,NA,true,9,14,NA,right,E1_Q8_ansR.png,E1_Q3_ansR.png,within,NA,NaN,NA,right,1881.9999999995343,1,1,2231
pYAACgIF,NA,NA,pYAACgIF,2020-0188,2021-09-18,17:24:54,18:43:19,NA,incomplete,false,NA,true,9,15,NA,left,E5_Q7_ansL.png,E1_Q2_ansL.png,between,NA,NaN,NA,left,1328,1,2,1272
pYAACgIF,NA,NA,pYAACgIF,2020-0188,2021-09-18,17:24:54,18:43:19,NA,incomplete,false,NA,true,9,16,NA,right,E5_Q1_ansL.png,E5_Q8_ansL.png,within,NA,NaN,NA,left,1451,0,1,1076
pYAACgIF,NA,NA,pYAACgIF,2020-0188,2021-09-18,17:24:54,18:43:19,NA,incomplete,false,NA,true,9,17,NA,left,E19_Q4_ansR.png,E19_Q3_ansR.png,within,NA,NaN,NA,left,1848.9999999995343,1,1,950
pYAACgIF,NA,NA,pYAACgIF,2020-0188,2021-09-18,17:24:54,18:43:19,NA,incomplete,false,NA,true,9,18,NA,right,E19_Q5_ansR.png,E19_Q10_ansL.png,within,NA,NaN,NA,right,2150,1,1,1385
pYAACgIF,NA,NA,pYAACgIF,2020-0188,2021-09-18,17:24:54,18:43:19,NA,incomplete,false,NA,true,9,19,NA,right,E5_Q2_ansL.png,E19_Q2_ansL.png,between,NA,NaN,NA,right,2281,1,3,3269
pYAACgIF,NA,NA,pYAACgIF,2020-0188,2021-09-18,17:24:54,18:43:19,NA,incomplete,false,NA,true,9,20,NA,left,E19_Q1_ansL.png,E19_Q9_ansR.png,within,NA,NaN,NA,right,26038,0,0,1848
pYAACgIF,NA,NA,pYAACgIF,2020-0188,2021-09-18,17:24:54,18:43:19,NA,incomplete,false,NA,true,9,21,NA,right,E19_Q2_ansL.png,E19_Q5_ansR.png,within,NA,NaN,NA,left,1791.0000000004657,0,1,967.9999999995343
pYAACgIF,NA,NA,pYAACgIF,2020-0188,2021-09-18,17:24:54,18:43:19,NA,incomplete,false,NA,true,9,22,NA,right,E5_Q5_ansR.png,E5_Q1_ansL.png,within,NA,NaN,NA,left,1475.9999999995343,0,0,905
pYAACgIF,NA,NA,pYAACgIF,2020-0188,2021-09-18,17:24:54,18:43:19,NA,incomplete,false,NA,true,9,23,NA,left,E1_Q10_ansR.png,E1_Q4_ansL.png,within,NA,NaN,NA,left,2494.9999999995343,1,1,938
pYAACgIF,NA,NA,pYAACgIF,2020-0188,2021-09-18,17:24:54,18:43:19,NA,incomplete,false,NA,true,9,24,NA,right,E5_Q9_ansR.png,E19_Q8_ansL.png,between,NA,NaN,NA,right,2117,1,3,1327.0000000004657
pYAACgIF,NA,NA,pYAACgIF,2020-0188,2021-09-18,17:24:54,18:43:19,NA,incomplete,false,NA,true,9,25,NA,left,E5_Q9_ansR.png,E5_Q8_ansL.png,within,NA,NaN,NA,left,1744,1,1,970.0000000004657
pYAACgIF,NA,NA,pYAACgIF,2020-0188,2021-09-18,17:24:54,18:43:19,NA,incomplete,false,NA,true,9,26,NA,left,E1_Q6_ansR.png,E1_Q3_ansR.png,within,NA,NaN,NA,right,7009,0,1,964
pYAACgIF,NA,NA,pYAACgIF,2020-0188,2021-09-18,17:24:54,18:43:19,NA,incomplete,false,true,NA,10,0,E16_Q7_ansR.png,right,NA,NA,NA,right,1620,true,NA,NA,NA,NA,NA
pYAACgIF,NA,NA,pYAACgIF,2020-0188,2021-09-18,17:24:54,18:43:19,NA,incomplete,false,true,NA,10,1,E16_Q1_ansR.png,right,NA,NA,NA,right,1136,true,NA,NA,NA,NA,NA
pYAACgIF,NA,NA,pYAACgIF,2020-0188,2021-09-18,17:24:54,18:43:19,NA,incomplete,false,true,NA,10,2,E16_Q5_ansL.png,left,NA,NA,NA,left,882,true,NA,NA,NA,NA,NA
pYAACgIF,NA,NA,pYAACgIF,2020-0188,2021-09-18,17:24:54,18:43:19,NA,incomplete,false,true,NA,10,3,E16_Q4_ansL.png,left,NA,NA,NA,left,927,true,NA,NA,NA,NA,NA
pYAACgIF,NA,NA,pYAACgIF,2020-0188,2021-09-18,17:24:54,18:43:19,NA,incomplete,false,true,NA,10,4,E16_Q3_ansL.png,left,NA,NA,NA,left,996,true,NA,NA,NA,NA,NA
pYAACgIF,NA,NA,pYAACgIF,2020-0188,2021-09-18,17:24:54,18:43:19,NA,incomplete,false,true,NA,10,5,E16_Q8_ansR.png,right,NA,NA,NA,right,711.000000000931,true,NA,NA,NA,NA,NA
pYAACgIF,NA,NA,pYAACgIF,2020-0188,2021-09-18,17:24:54,18:43:19,NA,incomplete,false,true,NA,10,6,E16_Q9_ansL.png,left,NA,NA,NA,left,1489,true,NA,NA,NA,NA,NA
pYAACgIF,NA,NA,pYAACgIF,2020-0188,2021-09-18,17:24:54,18:43:19,NA,incomplete,false,true,NA,10,7,E16_Q10_ansR.png,right,NA,NA,NA,right,758,true,NA,NA,NA,NA,NA
pYAACgIF,NA,NA,pYAACgIF,2020-0188,2021-09-18,17:24:54,18:43:19,NA,incomplete,false,true,NA,10,8,E16_Q6_ansL.png,left,NA,NA,NA,left,1135,true,NA,NA,NA,NA,NA
pYAACgIF,NA,NA,pYAACgIF,2020-0188,2021-09-18,17:24:54,18:43:19,NA,incomplete,false,true,NA,10,9,E16_Q2_ansR.png,right,NA,NA,NA,right,928,true,NA,NA,NA,NA,NA
pYAACgIF,NA,NA,pYAACgIF,2020-0188,2021-09-18,17:24:54,18:43:19,NA,incomplete,false,true,NA,10,10,E25_Q7_ansR.png,right,NA,NA,NA,right,2838,true,NA,NA,NA,NA,NA
pYAACgIF,NA,NA,pYAACgIF,2020-0188,2021-09-18,17:24:54,18:43:19,NA,incomplete,false,true,NA,10,11,E25_Q10_ansR.png,right,NA,NA,NA,right,2165,true,NA,NA,NA,NA,NA
pYAACgIF,NA,NA,pYAACgIF,2020-0188,2021-09-18,17:24:54,18:43:19,NA,incomplete,false,true,NA,10,12,E25_Q2_ansR.png,right,NA,NA,NA,right,1193,true,NA,NA,NA,NA,NA
pYAACgIF,NA,NA,pYAACgIF,2020-0188,2021-09-18,17:24:54,18:43:19,NA,incomplete,false,true,NA,10,13,E25_Q5_ansL.png,left,NA,NA,NA,left,1783,true,NA,NA,NA,NA,NA
pYAACgIF,NA,NA,pYAACgIF,2020-0188,2021-09-18,17:24:54,18:43:19,NA,incomplete,false,true,NA,10,14,E25_Q9_ansL.png,left,NA,NA,NA,left,2683,true,NA,NA,NA,NA,NA
pYAACgIF,NA,NA,pYAACgIF,2020-0188,2021-09-18,17:24:54,18:43:19,NA,incomplete,false,true,NA,10,15,E25_Q8_ansR.png,right,NA,NA,NA,right,1233,true,NA,NA,NA,NA,NA
pYAACgIF,NA,NA,pYAACgIF,2020-0188,2021-09-18,17:24:54,18:43:19,NA,incomplete,false,true,NA,10,16,E25_Q6_ansL.png,left,NA,NA,NA,left,1271,true,NA,NA,NA,NA,NA
pYAACgIF,NA,NA,pYAACgIF,2020-0188,2021-09-18,17:24:54,18:43:19,NA,incomplete,false,true,NA,10,17,E25_Q3_ansL.png,left,NA,NA,NA,left,1448,true,NA,NA,NA,NA,NA
pYAACgIF,NA,NA,pYAACgIF,2020-0188,2021-09-18,17:24:54,18:43:19,NA,incomplete,false,true,NA,10,18,E25_Q4_ansL.png,left,NA,NA,NA,left,1612.00000000093,true,NA,NA,NA,NA,NA
pYAACgIF,NA,NA,pYAACgIF,2020-0188,2021-09-18,17:24:54,18:43:19,NA,incomplete,false,true,NA,10,19,E25_Q1_ansR.png,right,NA,NA,NA,right,1943,true,NA,NA,NA,NA,NA
pYAACgIF,NA,NA,pYAACgIF,2020-0188,2021-09-18,17:24:54,18:43:19,NA,incomplete,false,true,NA,10,20,E13_Q6_ansR.png,right,NA,NA,NA,right,1336,true,NA,NA,NA,NA,NA
pYAACgIF,NA,NA,pYAACgIF,2020-0188,2021-09-18,17:24:54,18:43:19,NA,incomplete,false,true,NA,10,21,E13_Q9_ansR.png,right,NA,NA,NA,right,899,true,NA,NA,NA,NA,NA
