workerId,hitId,assignmentId,subject,studyid,exp_date,exp_start,exp_end,time_start,time_end,practice,encoding,memory,block,trial,stim,answer,left_image,right_image,condition,response,response_time,response_acc,order_response,order_response_time,order_acc,distance_response,distance_response_time
qhzVwkWx,NA,NA,qhzVwkWx,2020-0188,2021-09-22,11:58:07,13:06:27,NA,incomplete,true,true,NA,0,0,E27_Q5_ansR.png,right,NA,NA,NA,right,1461,true,NA,NA,NA,NA,NA
qhzVwkWx,NA,NA,qhzVwkWx,2020-0188,2021-09-22,11:58:07,13:06:27,NA,incomplete,true,true,NA,0,1,E27_Q6_ansR.png,right,NA,NA,NA,right,982,true,NA,NA,NA,NA,NA
qhzVwkWx,NA,NA,qhzVwkWx,2020-0188,2021-09-22,11:58:07,13:06:27,NA,incomplete,true,true,NA,0,2,E27_Q9_ansR.png,right,NA,NA,NA,right,847.5,true,NA,NA,NA,NA,NA
qhzVwkWx,NA,NA,qhzVwkWx,2020-0188,2021-09-22,11:58:07,13:06:27,NA,incomplete,true,true,NA,0,3,E27_Q2_ansL.png,left,NA,NA,NA,left,822.5,true,NA,NA,NA,NA,NA
qhzVwkWx,NA,NA,qhzVwkWx,2020-0188,2021-09-22,11:58:07,13:06:27,NA,incomplete,true,true,NA,0,4,E27_Q1_ansL.png,left,NA,NA,NA,left,956.400000095367,true,NA,NA,NA,NA,NA
qhzVwkWx,NA,NA,qhzVwkWx,2020-0188,2021-09-22,11:58:07,13:06:27,NA,incomplete,true,true,NA,0,5,E27_Q4_ansR.png,right,NA,NA,NA,right,824.799999952316,true,NA,NA,NA,NA,NA
qhzVwkWx,NA,NA,qhzVwkWx,2020-0188,2021-09-22,11:58:07,13:06:27,NA,incomplete,true,true,NA,0,6,E27_Q8_ansL.png,left,NA,NA,NA,left,892.799999952316,true,NA,NA,NA,NA,NA
qhzVwkWx,NA,NA,qhzVwkWx,2020-0188,2021-09-22,11:58:07,13:06:27,NA,incomplete,true,true,NA,0,7,E27_Q7_ansL.png,left,NA,NA,NA,left,739.700000047684,true,NA,NA,NA,NA,NA
qhzVwkWx,NA,NA,qhzVwkWx,2020-0188,2021-09-22,11:58:07,13:06:27,NA,incomplete,true,true,NA,0,8,E27_Q10_ansL.png,left,NA,NA,NA,left,673.400000095367,true,NA,NA,NA,NA,NA
qhzVwkWx,NA,NA,qhzVwkWx,2020-0188,2021-09-22,11:58:07,13:06:27,NA,incomplete,true,true,NA,0,9,E27_Q3_ansR.png,right,NA,NA,NA,right,598.699999809265,true,NA,NA,NA,NA,NA
qhzVwkWx,NA,NA,qhzVwkWx,2020-0188,2021-09-22,11:58:07,13:06:27,NA,incomplete,true,true,NA,0,10,E10_Q2_ansL.png,left,NA,NA,NA,left,2943.09999990463,true,NA,NA,NA,NA,NA
qhzVwkWx,NA,NA,qhzVwkWx,2020-0188,2021-09-22,11:58:07,13:06:27,NA,incomplete,true,true,NA,0,11,E10_Q7_ansR.png,right,NA,NA,NA,left,1717.10000014305,false,NA,NA,NA,NA,NA
qhzVwkWx,NA,NA,qhzVwkWx,2020-0188,2021-09-22,11:58:07,13:06:27,NA,incomplete,true,true,NA,0,12,E10_Q8_ansR.png,right,NA,NA,NA,right,2660.79999995232,true,NA,NA,NA,NA,NA
qhzVwkWx,NA,NA,qhzVwkWx,2020-0188,2021-09-22,11:58:07,13:06:27,NA,incomplete,true,true,NA,0,13,E10_Q10_ansR.png,right,NA,NA,NA,right,2967.10000014305,true,NA,NA,NA,NA,NA
qhzVwkWx,NA,NA,qhzVwkWx,2020-0188,2021-09-22,11:58:07,13:06:27,NA,incomplete,true,true,NA,0,14,E10_Q9_ansL.png,left,NA,NA,NA,left,2541.90000009537,true,NA,NA,NA,NA,NA
qhzVwkWx,NA,NA,qhzVwkWx,2020-0188,2021-09-22,11:58:07,13:06:27,NA,incomplete,true,true,NA,0,15,E10_Q4_ansL.png,left,NA,NA,NA,left,3267.29999995232,true,NA,NA,NA,NA,NA
qhzVwkWx,NA,NA,qhzVwkWx,2020-0188,2021-09-22,11:58:07,13:06:27,NA,incomplete,true,true,NA,0,16,E10_Q1_ansL.png,left,NA,NA,NA,left,2352.39999985695,true,NA,NA,NA,NA,NA
qhzVwkWx,NA,NA,qhzVwkWx,2020-0188,2021-09-22,11:58:07,13:06:27,NA,incomplete,true,true,NA,0,17,E10_Q6_ansR.png,right,NA,NA,NA,right,2660.29999995232,true,NA,NA,NA,NA,NA
qhzVwkWx,NA,NA,qhzVwkWx,2020-0188,2021-09-22,11:58:07,13:06:27,NA,incomplete,true,true,NA,0,18,E10_Q3_ansL.png,left,NA,NA,NA,none,0,false,NA,NA,NA,NA,NA
qhzVwkWx,NA,NA,qhzVwkWx,2020-0188,2021-09-22,11:58:07,13:06:27,NA,incomplete,true,true,NA,0,19,E10_Q5_ansR.png,right,NA,NA,NA,right,2897,true,NA,NA,NA,NA,NA
qhzVwkWx,NA,NA,qhzVwkWx,2020-0188,2021-09-22,11:58:07,13:06:27,NA,incomplete,true,true,NA,0,20,E19_Q7_ansL.png,left,NA,NA,NA,left,1877.70000004768,true,NA,NA,NA,NA,NA
qhzVwkWx,NA,NA,qhzVwkWx,2020-0188,2021-09-22,11:58:07,13:06:27,NA,incomplete,true,true,NA,0,21,E19_Q5_ansR.png,right,NA,NA,NA,right,1015,true,NA,NA,NA,NA,NA
qhzVwkWx,NA,NA,qhzVwkWx,2020-0188,2021-09-22,11:58:07,13:06:27,NA,incomplete,true,true,NA,0,22,E19_Q9_ansR.png,right,NA,NA,NA,right,1132.40000009537,true,NA,NA,NA,NA,NA
qhzVwkWx,NA,NA,qhzVwkWx,2020-0188,2021-09-22,11:58:07,13:06:27,NA,incomplete,true,true,NA,0,23,E19_Q2_ansL.png,left,NA,NA,NA,left,911.700000047684,true,NA,NA,NA,NA,NA
qhzVwkWx,NA,NA,qhzVwkWx,2020-0188,2021-09-22,11:58:07,13:06:27,NA,incomplete,true,true,NA,0,24,E19_Q4_ansR.png,right,NA,NA,NA,right,660.5,true,NA,NA,NA,NA,NA
qhzVwkWx,NA,NA,qhzVwkWx,2020-0188,2021-09-22,11:58:07,13:06:27,NA,incomplete,true,true,NA,0,25,E19_Q6_ansR.png,right,NA,NA,NA,right,1275.59999990463,true,NA,NA,NA,NA,NA
qhzVwkWx,NA,NA,qhzVwkWx,2020-0188,2021-09-22,11:58:07,13:06:27,NA,incomplete,true,true,NA,0,26,E19_Q3_ansR.png,right,NA,NA,NA,right,888.799999952316,true,NA,NA,NA,NA,NA
qhzVwkWx,NA,NA,qhzVwkWx,2020-0188,2021-09-22,11:58:07,13:06:27,NA,incomplete,true,true,NA,0,27,E19_Q8_ansL.png,left,NA,NA,NA,left,1338.90000009537,true,NA,NA,NA,NA,NA
qhzVwkWx,NA,NA,qhzVwkWx,2020-0188,2021-09-22,11:58:07,13:06:27,NA,incomplete,true,true,NA,0,28,E19_Q1_ansL.png,left,NA,NA,NA,left,940.299999952316,true,NA,NA,NA,NA,NA
qhzVwkWx,NA,NA,qhzVwkWx,2020-0188,2021-09-22,11:58:07,13:06:27,NA,incomplete,true,true,NA,0,29,E19_Q10_ansL.png,left,NA,NA,NA,left,1229.90000009537,true,NA,NA,NA,NA,NA
qhzVwkWx,NA,NA,qhzVwkWx,2020-0188,2021-09-22,11:58:07,13:06:27,NA,incomplete,true,NA,true,0,0,NA,left,E10_Q8_ansR.png,E10_Q4_ansL.png,within,NA,NaN,NA,left,4331.600000143051,1,1,4246.799999952316
qhzVwkWx,NA,NA,qhzVwkWx,2020-0188,2021-09-22,11:58:07,13:06:27,NA,incomplete,true,NA,true,0,1,NA,left,E19_Q5_ansR.png,E19_Q4_ansR.png,within,NA,NaN,NA,left,3682.399999856949,1,1,1930.2999999523163
qhzVwkWx,NA,NA,qhzVwkWx,2020-0188,2021-09-22,11:58:07,13:06:27,NA,incomplete,true,NA,true,0,2,NA,right,E19_Q8_ansL.png,E19_Q4_ansR.png,within,NA,NaN,NA,right,2180.5,1,2,1757.5
qhzVwkWx,NA,NA,qhzVwkWx,2020-0188,2021-09-22,11:58:07,13:06:27,NA,incomplete,true,NA,true,0,3,NA,left,E27_Q3_ansR.png,E10_Q8_ansR.png,between,NA,NaN,NA,left,3173.899999856949,1,3,1261
qhzVwkWx,NA,NA,qhzVwkWx,2020-0188,2021-09-22,11:58:07,13:06:27,NA,incomplete,true,NA,true,0,4,NA,right,E27_Q2_ansL.png,E27_Q5_ansR.png,within,NA,NaN,NA,right,3323.7000000476837,1,1,1415.8999998569489
qhzVwkWx,NA,NA,qhzVwkWx,2020-0188,2021-09-22,11:58:07,13:06:27,NA,incomplete,true,NA,true,0,5,NA,left,E10_Q9_ansL.png,E10_Q6_ansR.png,within,NA,NaN,NA,left,6389.599999904633,1,0,971.9000000953674
qhzVwkWx,NA,NA,qhzVwkWx,2020-0188,2021-09-22,11:58:07,13:06:27,NA,incomplete,true,NA,true,0,6,NA,right,E27_Q3_ansR.png,E27_Q8_ansL.png,within,NA,NaN,NA,left,2610.2000000476837,0,1,2032.5
qhzVwkWx,NA,NA,qhzVwkWx,2020-0188,2021-09-22,11:58:07,13:06:27,NA,incomplete,true,NA,true,0,7,NA,left,E10_Q4_ansL.png,E10_Q3_ansL.png,within,NA,NaN,NA,left,4734.700000047684,1,1,1141.7999999523163
qhzVwkWx,NA,NA,qhzVwkWx,2020-0188,2021-09-22,11:58:07,13:06:27,NA,incomplete,true,NA,true,0,8,NA,right,E27_Q1_ansL.png,E27_Q6_ansR.png,within,NA,NaN,NA,right,3137.4000000953674,1,1,1678.8999998569489
qhzVwkWx,NA,NA,qhzVwkWx,2020-0188,2021-09-22,11:58:07,13:06:27,NA,incomplete,true,NA,true,0,9,NA,left,E10_Q1_ansL.png,E10_Q5_ansR.png,within,NA,NaN,NA,left,2877.2999999523163,1,2,1034.8999998569489
qhzVwkWx,NA,NA,qhzVwkWx,2020-0188,2021-09-22,11:58:07,13:06:27,NA,incomplete,true,NA,true,0,10,NA,right,E19_Q6_ansR.png,E19_Q9_ansR.png,within,NA,NaN,NA,left,3139.2000000476837,0,1,4664.599999904633
qhzVwkWx,NA,NA,qhzVwkWx,2020-0188,2021-09-22,11:58:07,13:06:27,NA,incomplete,true,NA,true,0,11,NA,left,E10_Q10_ansR.png,E10_Q1_ansL.png,within,NA,NaN,NA,left,2568.9000000953674,1,2,2838.9000000953674
qhzVwkWx,NA,NA,qhzVwkWx,2020-0188,2021-09-22,11:58:07,13:06:27,NA,incomplete,true,NA,true,0,12,NA,right,E27_Q7_ansL.png,E27_Q1_ansL.png,within,NA,NaN,NA,right,2028.1000001430511,1,1,1352.3999998569489
qhzVwkWx,NA,NA,qhzVwkWx,2020-0188,2021-09-22,11:58:07,13:06:27,NA,incomplete,true,NA,true,0,13,NA,left,E27_Q7_ansL.png,E10_Q2_ansL.png,between,NA,NaN,NA,left,2812.7999999523163,1,3,1139.9000000953674
qhzVwkWx,NA,NA,qhzVwkWx,2020-0188,2021-09-22,11:58:07,13:06:27,NA,incomplete,true,NA,true,0,14,NA,right,E27_Q10_ansL.png,E27_Q4_ansR.png,within,NA,NaN,NA,left,4240.400000095367,0,1,4241
qhzVwkWx,NA,NA,qhzVwkWx,2020-0188,2021-09-22,11:58:07,13:06:27,NA,incomplete,true,NA,true,0,15,NA,right,E19_Q5_ansR.png,E10_Q3_ansL.png,between,NA,NaN,NA,right,3688.2999999523163,1,2,1589.2999999523163
qhzVwkWx,NA,NA,qhzVwkWx,2020-0188,2021-09-22,11:58:07,13:06:27,NA,incomplete,true,NA,true,0,16,NA,right,E27_Q4_ansR.png,E27_Q9_ansR.png,within,NA,NaN,NA,left,2344.4000000953674,0,1,1829.3999998569489
qhzVwkWx,NA,NA,qhzVwkWx,2020-0188,2021-09-22,11:58:07,13:06:27,NA,incomplete,true,NA,true,0,17,NA,left,E10_Q6_ansR.png,E19_Q7_ansL.png,between,NA,NaN,NA,left,3227.2000000476837,1,2,1009
qhzVwkWx,NA,NA,qhzVwkWx,2020-0188,2021-09-22,11:58:07,13:06:27,NA,incomplete,true,NA,true,0,18,NA,right,E19_Q10_ansL.png,E19_Q3_ansR.png,within,NA,NaN,NA,right,2990.5999999046326,1,1,1335.7999999523163
qhzVwkWx,NA,NA,qhzVwkWx,2020-0188,2021-09-22,11:58:07,13:06:27,NA,incomplete,true,NA,true,0,19,NA,right,E10_Q10_ansR.png,E10_Q2_ansL.png,within,NA,NaN,NA,right,2872.2000000476837,1,1,979.2000000476837
qhzVwkWx,NA,NA,qhzVwkWx,2020-0188,2021-09-22,11:58:07,13:06:27,NA,incomplete,true,NA,true,0,20,NA,right,E19_Q3_ansR.png,E19_Q2_ansL.png,within,NA,NaN,NA,right,2202.2000000476837,1,1,1225.2999999523163
qhzVwkWx,NA,NA,qhzVwkWx,2020-0188,2021-09-22,11:58:07,13:06:27,NA,incomplete,true,NA,true,0,21,NA,left,E27_Q10_ansL.png,E10_Q7_ansR.png,between,NA,NaN,NA,left,1967.0999999046326,1,3,1855.5
qhzVwkWx,NA,NA,qhzVwkWx,2020-0188,2021-09-22,11:58:07,13:06:27,NA,incomplete,true,NA,true,0,22,NA,right,E19_Q2_ansL.png,E19_Q7_ansL.png,within,NA,NaN,NA,right,2672.100000143051,1,2,2910.100000143051
qhzVwkWx,NA,NA,qhzVwkWx,2020-0188,2021-09-22,11:58:07,13:06:27,NA,incomplete,true,NA,true,0,23,NA,left,E19_Q6_ansR.png,E19_Q1_ansL.png,within,NA,NaN,NA,left,6061.900000095367,1,1,1157.7000000476837
qhzVwkWx,NA,NA,qhzVwkWx,2020-0188,2021-09-22,11:58:07,13:06:27,NA,incomplete,true,NA,true,0,24,NA,left,E10_Q7_ansR.png,E10_Q9_ansL.png,within,NA,NaN,NA,left,4086.2999999523163,1,2,1963.0999999046326
qhzVwkWx,NA,NA,qhzVwkWx,2020-0188,2021-09-22,11:58:07,13:06:27,NA,incomplete,true,NA,true,0,25,NA,right,E19_Q9_ansR.png,E10_Q5_ansR.png,between,NA,NaN,NA,right,2886.7999999523163,1,2,1143.5999999046326
qhzVwkWx,NA,NA,qhzVwkWx,2020-0188,2021-09-22,11:58:07,13:06:27,NA,incomplete,true,NA,true,0,26,NA,right,E27_Q8_ansL.png,E27_Q2_ansL.png,within,NA,NaN,NA,right,5124.400000095367,1,1,1275.6000001430511
qhzVwkWx,NA,NA,qhzVwkWx,2020-0188,2021-09-22,11:58:07,13:06:27,NA,incomplete,false,true,NA,1,0,E11_Q6_ansL.png,left,NA,NA,NA,left,2401.10000014305,true,NA,NA,NA,NA,NA
qhzVwkWx,NA,NA,qhzVwkWx,2020-0188,2021-09-22,11:58:07,13:06:27,NA,incomplete,false,true,NA,1,1,E11_Q7_ansR.png,right,NA,NA,NA,right,1351,true,NA,NA,NA,NA,NA
qhzVwkWx,NA,NA,qhzVwkWx,2020-0188,2021-09-22,11:58:07,13:06:27,NA,incomplete,false,true,NA,1,2,E11_Q5_ansL.png,left,NA,NA,NA,left,2419.89999985695,true,NA,NA,NA,NA,NA
qhzVwkWx,NA,NA,qhzVwkWx,2020-0188,2021-09-22,11:58:07,13:06:27,NA,incomplete,false,true,NA,1,3,E11_Q9_ansL.png,left,NA,NA,NA,left,1057.60000014305,true,NA,NA,NA,NA,NA
qhzVwkWx,NA,NA,qhzVwkWx,2020-0188,2021-09-22,11:58:07,13:06:27,NA,incomplete,false,true,NA,1,4,E11_Q8_ansR.png,right,NA,NA,NA,right,1540.90000009537,true,NA,NA,NA,NA,NA
qhzVwkWx,NA,NA,qhzVwkWx,2020-0188,2021-09-22,11:58:07,13:06:27,NA,incomplete,false,true,NA,1,5,E11_Q3_ansL.png,left,NA,NA,NA,left,1633.20000004768,true,NA,NA,NA,NA,NA
qhzVwkWx,NA,NA,qhzVwkWx,2020-0188,2021-09-22,11:58:07,13:06:27,NA,incomplete,false,true,NA,1,6,E11_Q2_ansR.png,right,NA,NA,NA,right,1117,true,NA,NA,NA,NA,NA
qhzVwkWx,NA,NA,qhzVwkWx,2020-0188,2021-09-22,11:58:07,13:06:27,NA,incomplete,false,true,NA,1,7,E11_Q1_ansR.png,right,NA,NA,NA,right,1098.79999995232,true,NA,NA,NA,NA,NA
qhzVwkWx,NA,NA,qhzVwkWx,2020-0188,2021-09-22,11:58:07,13:06:27,NA,incomplete,false,true,NA,1,8,E11_Q10_ansR.png,right,NA,NA,NA,right,1524.59999990463,true,NA,NA,NA,NA,NA
qhzVwkWx,NA,NA,qhzVwkWx,2020-0188,2021-09-22,11:58:07,13:06:27,NA,incomplete,false,true,NA,1,9,E11_Q4_ansL.png,left,NA,NA,NA,left,1252.20000004768,true,NA,NA,NA,NA,NA
qhzVwkWx,NA,NA,qhzVwkWx,2020-0188,2021-09-22,11:58:07,13:06:27,NA,incomplete,false,true,NA,1,10,E18_Q9_ansR.png,right,NA,NA,NA,right,1532.60000014305,true,NA,NA,NA,NA,NA
qhzVwkWx,NA,NA,qhzVwkWx,2020-0188,2021-09-22,11:58:07,13:06:27,NA,incomplete,false,true,NA,1,11,E18_Q10_ansL.png,left,NA,NA,NA,left,750.400000095367,true,NA,NA,NA,NA,NA
qhzVwkWx,NA,NA,qhzVwkWx,2020-0188,2021-09-22,11:58:07,13:06:27,NA,incomplete,false,true,NA,1,12,E18_Q3_ansR.png,right,NA,NA,NA,right,728,true,NA,NA,NA,NA,NA
qhzVwkWx,NA,NA,qhzVwkWx,2020-0188,2021-09-22,11:58:07,13:06:27,NA,incomplete,false,true,NA,1,13,E18_Q7_ansL.png,left,NA,NA,NA,left,1133.60000014305,true,NA,NA,NA,NA,NA
qhzVwkWx,NA,NA,qhzVwkWx,2020-0188,2021-09-22,11:58:07,13:06:27,NA,incomplete,false,true,NA,1,14,E18_Q2_ansL.png,left,NA,NA,NA,left,946.099999904633,true,NA,NA,NA,NA,NA
qhzVwkWx,NA,NA,qhzVwkWx,2020-0188,2021-09-22,11:58:07,13:06:27,NA,incomplete,false,true,NA,1,15,E18_Q1_ansL.png,left,NA,NA,NA,left,886.799999952316,true,NA,NA,NA,NA,NA
qhzVwkWx,NA,NA,qhzVwkWx,2020-0188,2021-09-22,11:58:07,13:06:27,NA,incomplete,false,true,NA,1,16,E18_Q4_ansR.png,right,NA,NA,NA,right,934.100000143051,true,NA,NA,NA,NA,NA
qhzVwkWx,NA,NA,qhzVwkWx,2020-0188,2021-09-22,11:58:07,13:06:27,NA,incomplete,false,true,NA,1,17,E18_Q5_ansR.png,right,NA,NA,NA,right,1378,true,NA,NA,NA,NA,NA
qhzVwkWx,NA,NA,qhzVwkWx,2020-0188,2021-09-22,11:58:07,13:06:27,NA,incomplete,false,true,NA,1,18,E18_Q6_ansR.png,right,NA,NA,NA,right,1132.79999995232,true,NA,NA,NA,NA,NA
qhzVwkWx,NA,NA,qhzVwkWx,2020-0188,2021-09-22,11:58:07,13:06:27,NA,incomplete,false,true,NA,1,19,E18_Q8_ansL.png,left,NA,NA,NA,left,1301.60000014305,true,NA,NA,NA,NA,NA
qhzVwkWx,NA,NA,qhzVwkWx,2020-0188,2021-09-22,11:58:07,13:06:27,NA,incomplete,false,true,NA,1,20,E21_Q4_ansR.png,right,NA,NA,NA,right,1622.29999995232,true,NA,NA,NA,NA,NA
qhzVwkWx,NA,NA,qhzVwkWx,2020-0188,2021-09-22,11:58:07,13:06:27,NA,incomplete,false,true,NA,1,21,E21_Q3_ansR.png,right,NA,NA,NA,right,733.700000047684,true,NA,NA,NA,NA,NA
qhzVwkWx,NA,NA,qhzVwkWx,2020-0188,2021-09-22,11:58:07,13:06:27,NA,incomplete,false,true,NA,1,22,E21_Q5_ansR.png,right,NA,NA,NA,right,1057.69999980927,true,NA,NA,NA,NA,NA
qhzVwkWx,NA,NA,qhzVwkWx,2020-0188,2021-09-22,11:58:07,13:06:27,NA,incomplete,false,true,NA,1,23,E21_Q2_ansL.png,left,NA,NA,NA,left,874.099999904633,true,NA,NA,NA,NA,NA
qhzVwkWx,NA,NA,qhzVwkWx,2020-0188,2021-09-22,11:58:07,13:06:27,NA,incomplete,false,true,NA,1,24,E21_Q1_ansL.png,left,NA,NA,NA,left,1275,true,NA,NA,NA,NA,NA
qhzVwkWx,NA,NA,qhzVwkWx,2020-0188,2021-09-22,11:58:07,13:06:27,NA,incomplete,false,true,NA,1,25,E21_Q10_ansL.png,left,NA,NA,NA,left,870.299999952316,true,NA,NA,NA,NA,NA
qhzVwkWx,NA,NA,qhzVwkWx,2020-0188,2021-09-22,11:58:07,13:06:27,NA,incomplete,false,true,NA,1,26,E21_Q9_ansR.png,right,NA,NA,NA,right,1117.79999995232,true,NA,NA,NA,NA,NA
qhzVwkWx,NA,NA,qhzVwkWx,2020-0188,2021-09-22,11:58:07,13:06:27,NA,incomplete,false,true,NA,1,27,E21_Q7_ansL.png,left,NA,NA,NA,left,751.599999904633,true,NA,NA,NA,NA,NA
qhzVwkWx,NA,NA,qhzVwkWx,2020-0188,2021-09-22,11:58:07,13:06:27,NA,incomplete,false,true,NA,1,28,E21_Q8_ansL.png,left,NA,NA,NA,left,852.599999904633,true,NA,NA,NA,NA,NA
qhzVwkWx,NA,NA,qhzVwkWx,2020-0188,2021-09-22,11:58:07,13:06:27,NA,incomplete,false,true,NA,1,29,E21_Q6_ansR.png,right,NA,NA,NA,right,815.599999904633,true,NA,NA,NA,NA,NA
qhzVwkWx,NA,NA,qhzVwkWx,2020-0188,2021-09-22,11:58:07,13:06:27,NA,incomplete,false,NA,true,1,0,NA,left,E11_Q10_ansR.png,E18_Q10_ansL.png,between,NA,NaN,NA,left,2827,1,3,4604.900000095367
qhzVwkWx,NA,NA,qhzVwkWx,2020-0188,2021-09-22,11:58:07,13:06:27,NA,incomplete,false,NA,true,1,1,NA,right,E21_Q8_ansL.png,E21_Q10_ansL.png,within,NA,NaN,NA,left,3640.7000000476837,0,1,1531.9000000953674
qhzVwkWx,NA,NA,qhzVwkWx,2020-0188,2021-09-22,11:58:07,13:06:27,NA,incomplete,false,NA,true,1,2,NA,right,E18_Q6_ansR.png,E18_Q1_ansL.png,within,NA,NaN,NA,left,2862,0,1,1323.1000001430511
qhzVwkWx,NA,NA,qhzVwkWx,2020-0188,2021-09-22,11:58:07,13:06:27,NA,incomplete,false,NA,true,1,3,NA,right,E11_Q3_ansL.png,E11_Q5_ansL.png,within,NA,NaN,NA,right,2905.4000000953674,1,1,1321.5999999046326
qhzVwkWx,NA,NA,qhzVwkWx,2020-0188,2021-09-22,11:58:07,13:06:27,NA,incomplete,false,NA,true,1,4,NA,right,E21_Q4_ansR.png,E18_Q5_ansR.png,between,NA,NaN,NA,right,2431.600000143051,1,2,1064.5
qhzVwkWx,NA,NA,qhzVwkWx,2020-0188,2021-09-22,11:58:07,13:06:27,NA,incomplete,false,NA,true,1,5,NA,right,E21_Q2_ansL.png,E21_Q4_ansR.png,within,NA,NaN,NA,right,2464.199999809265,1,1,2326.800000190735
qhzVwkWx,NA,NA,qhzVwkWx,2020-0188,2021-09-22,11:58:07,13:06:27,NA,incomplete,false,NA,true,1,6,NA,right,E18_Q8_ansL.png,E18_Q4_ansR.png,within,NA,NaN,NA,right,3503.7999999523163,1,1,1002.8000001907349
qhzVwkWx,NA,NA,qhzVwkWx,2020-0188,2021-09-22,11:58:07,13:06:27,NA,incomplete,false,NA,true,1,7,NA,right,E21_Q3_ansR.png,E18_Q6_ansR.png,between,NA,NaN,NA,right,3057,1,2,1263.4000000953674
qhzVwkWx,NA,NA,qhzVwkWx,2020-0188,2021-09-22,11:58:07,13:06:27,NA,incomplete,false,NA,true,1,8,NA,right,E11_Q1_ansR.png,E11_Q8_ansR.png,within,NA,NaN,NA,right,2577.399999856949,1,1,1297.5
qhzVwkWx,NA,NA,qhzVwkWx,2020-0188,2021-09-22,11:58:07,13:06:27,NA,incomplete,false,NA,true,1,9,NA,right,E21_Q9_ansR.png,E21_Q2_ansL.png,within,NA,NaN,NA,right,2317,1,1,1012.0999999046326
qhzVwkWx,NA,NA,qhzVwkWx,2020-0188,2021-09-22,11:58:07,13:06:27,NA,incomplete,false,NA,true,1,10,NA,left,E18_Q2_ansL.png,E18_Q5_ansR.png,within,NA,NaN,NA,left,2334.800000190735,1,1,1620.2999999523163
qhzVwkWx,NA,NA,qhzVwkWx,2020-0188,2021-09-22,11:58:07,13:06:27,NA,incomplete,false,NA,true,1,11,NA,right,E21_Q1_ansL.png,E21_Q3_ansR.png,within,NA,NaN,NA,right,1759.2999999523163,1,1,1126.2999999523163
qhzVwkWx,NA,NA,qhzVwkWx,2020-0188,2021-09-22,11:58:07,13:06:27,NA,incomplete,false,NA,true,1,12,NA,left,E11_Q9_ansL.png,E11_Q2_ansR.png,within,NA,NaN,NA,left,3469.7000000476837,1,1,1133.2000000476837
qhzVwkWx,NA,NA,qhzVwkWx,2020-0188,2021-09-22,11:58:07,13:06:27,NA,incomplete,false,NA,true,1,13,NA,right,E21_Q7_ansL.png,E21_Q1_ansL.png,within,NA,NaN,NA,left,3057,0,1,1126.5999999046326
qhzVwkWx,NA,NA,qhzVwkWx,2020-0188,2021-09-22,11:58:07,13:06:27,NA,incomplete,false,NA,true,1,14,NA,left,E11_Q1_ansR.png,E18_Q9_ansR.png,between,NA,NaN,NA,left,2555.899999856949,1,3,1039.6000001430511
qhzVwkWx,NA,NA,qhzVwkWx,2020-0188,2021-09-22,11:58:07,13:06:27,NA,incomplete,false,NA,true,1,15,NA,right,E11_Q10_ansR.png,E11_Q3_ansL.png,within,NA,NaN,NA,right,3168.5,1,1,1678.1000001430511
qhzVwkWx,NA,NA,qhzVwkWx,2020-0188,2021-09-22,11:58:07,13:06:27,NA,incomplete,false,NA,true,1,16,NA,right,E21_Q10_ansL.png,E21_Q5_ansR.png,within,NA,NaN,NA,right,1767.9000000953674,1,1,1561.1000001430511
qhzVwkWx,NA,NA,qhzVwkWx,2020-0188,2021-09-22,11:58:07,13:06:27,NA,incomplete,false,NA,true,1,17,NA,right,E18_Q2_ansL.png,E18_Q10_ansL.png,within,NA,NaN,NA,right,1550.5,1,1,1134.7999999523163
qhzVwkWx,NA,NA,qhzVwkWx,2020-0188,2021-09-22,11:58:07,13:06:27,NA,incomplete,false,NA,true,1,18,NA,left,E18_Q7_ansL.png,E18_Q4_ansR.png,within,NA,NaN,NA,left,4720.400000095367,1,1,1118
qhzVwkWx,NA,NA,qhzVwkWx,2020-0188,2021-09-22,11:58:07,13:06:27,NA,incomplete,false,NA,true,1,19,NA,left,E18_Q3_ansR.png,E18_Q1_ansL.png,within,NA,NaN,NA,left,2249.699999809265,1,1,1313.9000000953674
qhzVwkWx,NA,NA,qhzVwkWx,2020-0188,2021-09-22,11:58:07,13:06:27,NA,incomplete,false,NA,true,1,20,NA,left,E11_Q2_ansR.png,E11_Q4_ansL.png,within,NA,NaN,NA,left,6627.100000143051,1,1,1021
qhzVwkWx,NA,NA,qhzVwkWx,2020-0188,2021-09-22,11:58:07,13:06:27,NA,incomplete,false,NA,true,1,21,NA,right,E11_Q9_ansL.png,E11_Q6_ansL.png,within,NA,NaN,NA,right,1516.3999998569489,1,1,1642.6000001430511
qhzVwkWx,NA,NA,qhzVwkWx,2020-0188,2021-09-22,11:58:07,13:06:27,NA,incomplete,false,NA,true,1,22,NA,left,E18_Q9_ansR.png,E18_Q7_ansL.png,within,NA,NaN,NA,left,2528.9000000953674,1,1,933
qhzVwkWx,NA,NA,qhzVwkWx,2020-0188,2021-09-22,11:58:07,13:06:27,NA,incomplete,false,NA,true,1,23,NA,left,E18_Q8_ansL.png,E21_Q5_ansR.png,between,NA,NaN,NA,left,4485.800000190735,1,2,892
qhzVwkWx,NA,NA,qhzVwkWx,2020-0188,2021-09-22,11:58:07,13:06:27,NA,incomplete,false,NA,true,1,24,NA,right,E18_Q3_ansR.png,E11_Q4_ansL.png,between,NA,NaN,NA,right,2099.7999999523163,1,3,881
qhzVwkWx,NA,NA,qhzVwkWx,2020-0188,2021-09-22,11:58:07,13:06:27,NA,incomplete,false,NA,true,1,25,NA,right,E11_Q8_ansR.png,E11_Q7_ansR.png,within,NA,NaN,NA,right,2594,1,1,2212.2999999523163
qhzVwkWx,NA,NA,qhzVwkWx,2020-0188,2021-09-22,11:58:07,13:06:27,NA,incomplete,false,NA,true,1,26,NA,right,E21_Q6_ansR.png,E21_Q9_ansR.png,within,NA,NaN,NA,left,2172.4000000953674,0,1,1085.7000000476837
qhzVwkWx,NA,NA,qhzVwkWx,2020-0188,2021-09-22,11:58:07,13:06:27,NA,incomplete,false,true,NA,2,0,E12_Q9_ansR.png,right,NA,NA,NA,left,1522,false,NA,NA,NA,NA,NA
qhzVwkWx,NA,NA,qhzVwkWx,2020-0188,2021-09-22,11:58:07,13:06:27,NA,incomplete,false,true,NA,2,1,E12_Q4_ansR.png,right,NA,NA,NA,right,1205.5,true,NA,NA,NA,NA,NA
qhzVwkWx,NA,NA,qhzVwkWx,2020-0188,2021-09-22,11:58:07,13:06:27,NA,incomplete,false,true,NA,2,2,E12_Q2_ansL.png,left,NA,NA,NA,left,1306,true,NA,NA,NA,NA,NA
qhzVwkWx,NA,NA,qhzVwkWx,2020-0188,2021-09-22,11:58:07,13:06:27,NA,incomplete,false,true,NA,2,3,E12_Q1_ansL.png,left,NA,NA,NA,left,1670.89999985695,true,NA,NA,NA,NA,NA
qhzVwkWx,NA,NA,qhzVwkWx,2020-0188,2021-09-22,11:58:07,13:06:27,NA,incomplete,false,true,NA,2,4,E12_Q8_ansL.png,left,NA,NA,NA,right,2254.5,false,NA,NA,NA,NA,NA
qhzVwkWx,NA,NA,qhzVwkWx,2020-0188,2021-09-22,11:58:07,13:06:27,NA,incomplete,false,true,NA,2,5,E12_Q5_ansR.png,right,NA,NA,NA,right,990.400000095367,true,NA,NA,NA,NA,NA
qhzVwkWx,NA,NA,qhzVwkWx,2020-0188,2021-09-22,11:58:07,13:06:27,NA,incomplete,false,true,NA,2,6,E12_Q10_ansL.png,left,NA,NA,NA,left,1159.5,true,NA,NA,NA,NA,NA
qhzVwkWx,NA,NA,qhzVwkWx,2020-0188,2021-09-22,11:58:07,13:06:27,NA,incomplete,false,true,NA,2,7,E12_Q6_ansR.png,right,NA,NA,NA,right,856.100000143051,true,NA,NA,NA,NA,NA
qhzVwkWx,NA,NA,qhzVwkWx,2020-0188,2021-09-22,11:58:07,13:06:27,NA,incomplete,false,true,NA,2,8,E12_Q3_ansR.png,right,NA,NA,NA,right,1360.19999980927,true,NA,NA,NA,NA,NA
qhzVwkWx,NA,NA,qhzVwkWx,2020-0188,2021-09-22,11:58:07,13:06:27,NA,incomplete,false,true,NA,2,9,E12_Q7_ansL.png,left,NA,NA,NA,left,1418.70000004768,true,NA,NA,NA,NA,NA
qhzVwkWx,NA,NA,qhzVwkWx,2020-0188,2021-09-22,11:58:07,13:06:27,NA,incomplete,false,true,NA,2,10,E23_Q6_ansR.png,right,NA,NA,NA,right,1622.70000004768,true,NA,NA,NA,NA,NA
qhzVwkWx,NA,NA,qhzVwkWx,2020-0188,2021-09-22,11:58:07,13:06:27,NA,incomplete,false,true,NA,2,11,E23_Q9_ansR.png,right,NA,NA,NA,right,1492.39999985695,true,NA,NA,NA,NA,NA
qhzVwkWx,NA,NA,qhzVwkWx,2020-0188,2021-09-22,11:58:07,13:06:27,NA,incomplete,false,true,NA,2,12,E23_Q5_ansR.png,right,NA,NA,NA,right,1008.29999995232,true,NA,NA,NA,NA,NA
qhzVwkWx,NA,NA,qhzVwkWx,2020-0188,2021-09-22,11:58:07,13:06:27,NA,incomplete,false,true,NA,2,13,E23_Q8_ansL.png,left,NA,NA,NA,left,1237.70000004768,true,NA,NA,NA,NA,NA
qhzVwkWx,NA,NA,qhzVwkWx,2020-0188,2021-09-22,11:58:07,13:06:27,NA,incomplete,false,true,NA,2,14,E23_Q3_ansR.png,right,NA,NA,NA,right,920.400000095367,true,NA,NA,NA,NA,NA
qhzVwkWx,NA,NA,qhzVwkWx,2020-0188,2021-09-22,11:58:07,13:06:27,NA,incomplete,false,true,NA,2,15,E23_Q7_ansL.png,left,NA,NA,NA,left,947.700000047684,true,NA,NA,NA,NA,NA
qhzVwkWx,NA,NA,qhzVwkWx,2020-0188,2021-09-22,11:58:07,13:06:27,NA,incomplete,false,true,NA,2,16,E23_Q2_ansL.png,left,NA,NA,NA,left,1147.79999995232,true,NA,NA,NA,NA,NA
qhzVwkWx,NA,NA,qhzVwkWx,2020-0188,2021-09-22,11:58:07,13:06:27,NA,incomplete,false,true,NA,2,17,E23_Q4_ansR.png,right,NA,NA,NA,right,1256.59999990463,true,NA,NA,NA,NA,NA
qhzVwkWx,NA,NA,qhzVwkWx,2020-0188,2021-09-22,11:58:07,13:06:27,NA,incomplete,false,true,NA,2,18,E23_Q1_ansL.png,left,NA,NA,NA,left,1439,true,NA,NA,NA,NA,NA
qhzVwkWx,NA,NA,qhzVwkWx,2020-0188,2021-09-22,11:58:07,13:06:27,NA,incomplete,false,true,NA,2,19,E23_Q10_ansL.png,left,NA,NA,NA,left,1117,true,NA,NA,NA,NA,NA
qhzVwkWx,NA,NA,qhzVwkWx,2020-0188,2021-09-22,11:58:07,13:06:27,NA,incomplete,false,true,NA,2,20,E26_Q10_ansL.png,left,NA,NA,NA,left,1834.29999995232,true,NA,NA,NA,NA,NA
qhzVwkWx,NA,NA,qhzVwkWx,2020-0188,2021-09-22,11:58:07,13:06:27,NA,incomplete,false,true,NA,2,21,E26_Q4_ansR.png,right,NA,NA,NA,right,752.299999952316,true,NA,NA,NA,NA,NA
qhzVwkWx,NA,NA,qhzVwkWx,2020-0188,2021-09-22,11:58:07,13:06:27,NA,incomplete,false,true,NA,2,22,E26_Q5_ansR.png,right,NA,NA,NA,left,802.299999952316,false,NA,NA,NA,NA,NA
qhzVwkWx,NA,NA,qhzVwkWx,2020-0188,2021-09-22,11:58:07,13:06:27,NA,incomplete,false,true,NA,2,23,E26_Q1_ansL.png,left,NA,NA,NA,left,1164.5,true,NA,NA,NA,NA,NA
qhzVwkWx,NA,NA,qhzVwkWx,2020-0188,2021-09-22,11:58:07,13:06:27,NA,incomplete,false,true,NA,2,24,E26_Q9_ansR.png,right,NA,NA,NA,right,1058.70000004768,true,NA,NA,NA,NA,NA
qhzVwkWx,NA,NA,qhzVwkWx,2020-0188,2021-09-22,11:58:07,13:06:27,NA,incomplete,false,true,NA,2,25,E26_Q3_ansR.png,right,NA,NA,NA,right,1699.60000014305,true,NA,NA,NA,NA,NA
qhzVwkWx,NA,NA,qhzVwkWx,2020-0188,2021-09-22,11:58:07,13:06:27,NA,incomplete,false,true,NA,2,26,E26_Q7_ansL.png,left,NA,NA,NA,left,1122.80000019073,true,NA,NA,NA,NA,NA
qhzVwkWx,NA,NA,qhzVwkWx,2020-0188,2021-09-22,11:58:07,13:06:27,NA,incomplete,false,true,NA,2,27,E26_Q8_ansL.png,left,NA,NA,NA,left,1088,true,NA,NA,NA,NA,NA
qhzVwkWx,NA,NA,qhzVwkWx,2020-0188,2021-09-22,11:58:07,13:06:27,NA,incomplete,false,true,NA,2,28,E26_Q2_ansL.png,left,NA,NA,NA,left,1331.59999990463,true,NA,NA,NA,NA,NA
qhzVwkWx,NA,NA,qhzVwkWx,2020-0188,2021-09-22,11:58:07,13:06:27,NA,incomplete,false,true,NA,2,29,E26_Q6_ansR.png,right,NA,NA,NA,right,931.099999904633,true,NA,NA,NA,NA,NA
qhzVwkWx,NA,NA,qhzVwkWx,2020-0188,2021-09-22,11:58:07,13:06:27,NA,incomplete,false,NA,true,2,0,NA,left,E23_Q3_ansR.png,E23_Q4_ansR.png,within,NA,NaN,NA,left,4170.700000047684,1,1,1769.3000001907349
qhzVwkWx,NA,NA,qhzVwkWx,2020-0188,2021-09-22,11:58:07,13:06:27,NA,incomplete,false,NA,true,2,1,NA,left,E26_Q3_ansR.png,E26_Q2_ansL.png,within,NA,NaN,NA,left,2879,1,1,1018.9000000953674
qhzVwkWx,NA,NA,qhzVwkWx,2020-0188,2021-09-22,11:58:07,13:06:27,NA,incomplete,false,NA,true,2,2,NA,right,E12_Q10_ansL.png,E12_Q1_ansL.png,within,NA,NaN,NA,right,2608.800000190735,1,0,3447
qhzVwkWx,NA,NA,qhzVwkWx,2020-0188,2021-09-22,11:58:07,13:06:27,NA,incomplete,false,NA,true,2,3,NA,left,E12_Q9_ansR.png,E12_Q1_ansL.png,within,NA,NaN,NA,left,2296.5,1,1,2187.5
qhzVwkWx,NA,NA,qhzVwkWx,2020-0188,2021-09-22,11:58:07,13:06:27,NA,incomplete,false,NA,true,2,4,NA,left,E23_Q7_ansL.png,E23_Q1_ansL.png,within,NA,NaN,NA,right,3330.2000000476837,0,1,1952.4000000953674
qhzVwkWx,NA,NA,qhzVwkWx,2020-0188,2021-09-22,11:58:07,13:06:27,NA,incomplete,false,NA,true,2,5,NA,left,E12_Q5_ansR.png,E12_Q3_ansR.png,within,NA,NaN,NA,left,2592.800000190735,1,1,966.2999999523163
qhzVwkWx,NA,NA,qhzVwkWx,2020-0188,2021-09-22,11:58:07,13:06:27,NA,incomplete,false,NA,true,2,6,NA,left,E23_Q2_ansL.png,E23_Q10_ansL.png,within,NA,NaN,NA,left,2480.5,1,1,1094.2999999523163
qhzVwkWx,NA,NA,qhzVwkWx,2020-0188,2021-09-22,11:58:07,13:06:27,NA,incomplete,false,NA,true,2,7,NA,right,E26_Q1_ansL.png,E26_Q10_ansL.png,within,NA,NaN,NA,right,2870.7000000476837,1,1,987.7999999523163
qhzVwkWx,NA,NA,qhzVwkWx,2020-0188,2021-09-22,11:58:07,13:06:27,NA,incomplete,false,NA,true,2,8,NA,left,E23_Q9_ansR.png,E23_Q3_ansR.png,within,NA,NaN,NA,left,2154.300000190735,1,1,1387.2999999523163
qhzVwkWx,NA,NA,qhzVwkWx,2020-0188,2021-09-22,11:58:07,13:06:27,NA,incomplete,false,NA,true,2,9,NA,left,E26_Q9_ansR.png,E26_Q8_ansL.png,within,NA,NaN,NA,left,2280,1,1,1454.2999999523163
qhzVwkWx,NA,NA,qhzVwkWx,2020-0188,2021-09-22,11:58:07,13:06:27,NA,incomplete,false,NA,true,2,10,NA,right,E12_Q6_ansR.png,E12_Q8_ansL.png,within,NA,NaN,NA,right,3330.5,1,1,1188.5
qhzVwkWx,NA,NA,qhzVwkWx,2020-0188,2021-09-22,11:58:07,13:06:27,NA,incomplete,false,NA,true,2,11,NA,left,E12_Q10_ansL.png,E12_Q7_ansL.png,within,NA,NaN,NA,left,3210.0999999046326,1,1,1636.7999999523163
qhzVwkWx,NA,NA,qhzVwkWx,2020-0188,2021-09-22,11:58:07,13:06:27,NA,incomplete,false,NA,true,2,12,NA,right,E26_Q6_ansR.png,E26_Q7_ansL.png,within,NA,NaN,NA,left,3079.5,0,1,1101.3999998569489
qhzVwkWx,NA,NA,qhzVwkWx,2020-0188,2021-09-22,11:58:07,13:06:27,NA,incomplete,false,NA,true,2,13,NA,right,E23_Q2_ansL.png,E23_Q8_ansL.png,within,NA,NaN,NA,right,2885.600000143051,1,1,1093.1999998092651
qhzVwkWx,NA,NA,qhzVwkWx,2020-0188,2021-09-22,11:58:07,13:06:27,NA,incomplete,false,NA,true,2,14,NA,right,E12_Q8_ansL.png,E12_Q4_ansR.png,within,NA,NaN,NA,right,2188.4000000953674,1,1,1206.1000001430511
qhzVwkWx,NA,NA,qhzVwkWx,2020-0188,2021-09-22,11:58:07,13:06:27,NA,incomplete,false,NA,true,2,15,NA,left,E26_Q4_ansR.png,E26_Q9_ansR.png,within,NA,NaN,NA,left,1759.2999999523163,1,1,1249.2999999523163
qhzVwkWx,NA,NA,qhzVwkWx,2020-0188,2021-09-22,11:58:07,13:06:27,NA,incomplete,false,NA,true,2,16,NA,left,E23_Q10_ansL.png,E26_Q5_ansR.png,between,NA,NaN,NA,left,2523.100000143051,1,3,2519.2000000476837
qhzVwkWx,NA,NA,qhzVwkWx,2020-0188,2021-09-22,11:58:07,13:06:27,NA,incomplete,false,NA,true,2,17,NA,right,E23_Q7_ansL.png,E23_Q5_ansR.png,within,NA,NaN,NA,right,8803.600000143051,1,1,1246.9000000953674
qhzVwkWx,NA,NA,qhzVwkWx,2020-0188,2021-09-22,11:58:07,13:06:27,NA,incomplete,false,NA,true,2,18,NA,left,E26_Q5_ansR.png,E26_Q3_ansR.png,within,NA,NaN,NA,left,2153.5999999046326,1,1,1239.0999999046326
qhzVwkWx,NA,NA,qhzVwkWx,2020-0188,2021-09-22,11:58:07,13:06:27,NA,incomplete,false,NA,true,2,19,NA,left,E23_Q1_ansL.png,E26_Q4_ansR.png,between,NA,NaN,NA,left,1831.7999999523163,1,3,1443.2000000476837
qhzVwkWx,NA,NA,qhzVwkWx,2020-0188,2021-09-22,11:58:07,13:06:27,NA,incomplete,false,NA,true,2,20,NA,left,E12_Q7_ansL.png,E23_Q5_ansR.png,between,NA,NaN,NA,left,1295.7000000476837,1,2,5295.100000143051
qhzVwkWx,NA,NA,qhzVwkWx,2020-0188,2021-09-22,11:58:07,13:06:27,NA,incomplete,false,NA,true,2,21,NA,left,E23_Q4_ansR.png,E26_Q10_ansL.png,between,NA,NaN,NA,left,1783.5,1,3,1157.1000001430511
qhzVwkWx,NA,NA,qhzVwkWx,2020-0188,2021-09-22,11:58:07,13:06:27,NA,incomplete,false,NA,true,2,22,NA,left,E26_Q1_ansL.png,E26_Q7_ansL.png,within,NA,NaN,NA,left,1583.5,1,1,982.2000000476837
qhzVwkWx,NA,NA,qhzVwkWx,2020-0188,2021-09-22,11:58:07,13:06:27,NA,incomplete,false,NA,true,2,23,NA,right,E12_Q5_ansR.png,E12_Q2_ansL.png,within,NA,NaN,NA,right,1856.2000000476837,1,1,2009.9000000953674
qhzVwkWx,NA,NA,qhzVwkWx,2020-0188,2021-09-22,11:58:07,13:06:27,NA,incomplete,false,NA,true,2,24,NA,right,E23_Q8_ansL.png,E23_Q6_ansR.png,within,NA,NaN,NA,right,1559.5999999046326,1,1,1075.5999999046326
qhzVwkWx,NA,NA,qhzVwkWx,2020-0188,2021-09-22,11:58:07,13:06:27,NA,incomplete,false,NA,true,2,25,NA,right,E23_Q6_ansR.png,E12_Q6_ansR.png,between,NA,NaN,NA,right,3144.2999999523163,1,2,1938.2999999523163
qhzVwkWx,NA,NA,qhzVwkWx,2020-0188,2021-09-22,11:58:07,13:06:27,NA,incomplete,false,NA,true,2,26,NA,left,E12_Q3_ansR.png,E23_Q9_ansR.png,between,NA,NaN,NA,left,1539.8999998569489,1,2,2049.399999856949
qhzVwkWx,NA,NA,qhzVwkWx,2020-0188,2021-09-22,11:58:07,13:06:27,NA,incomplete,false,true,NA,3,0,E15_Q7_ansL.png,left,NA,NA,NA,left,2499.5,true,NA,NA,NA,NA,NA
qhzVwkWx,NA,NA,qhzVwkWx,2020-0188,2021-09-22,11:58:07,13:06:27,NA,incomplete,false,true,NA,3,1,E15_Q4_ansR.png,right,NA,NA,NA,right,1195.79999995232,true,NA,NA,NA,NA,NA
qhzVwkWx,NA,NA,qhzVwkWx,2020-0188,2021-09-22,11:58:07,13:06:27,NA,incomplete,false,true,NA,3,2,E15_Q3_ansR.png,right,NA,NA,NA,right,895.399999856949,true,NA,NA,NA,NA,NA
qhzVwkWx,NA,NA,qhzVwkWx,2020-0188,2021-09-22,11:58:07,13:06:27,NA,incomplete,false,true,NA,3,3,E15_Q10_ansL.png,left,NA,NA,NA,left,1140.29999995232,true,NA,NA,NA,NA,NA
qhzVwkWx,NA,NA,qhzVwkWx,2020-0188,2021-09-22,11:58:07,13:06:27,NA,incomplete,false,true,NA,3,4,E15_Q6_ansR.png,right,NA,NA,NA,right,1175.40000009537,true,NA,NA,NA,NA,NA
qhzVwkWx,NA,NA,qhzVwkWx,2020-0188,2021-09-22,11:58:07,13:06:27,NA,incomplete,false,true,NA,3,5,E15_Q5_ansR.png,right,NA,NA,NA,right,795.599999904633,true,NA,NA,NA,NA,NA
qhzVwkWx,NA,NA,qhzVwkWx,2020-0188,2021-09-22,11:58:07,13:06:27,NA,incomplete,false,true,NA,3,6,E15_Q1_ansL.png,left,NA,NA,NA,left,1119.5,true,NA,NA,NA,NA,NA
qhzVwkWx,NA,NA,qhzVwkWx,2020-0188,2021-09-22,11:58:07,13:06:27,NA,incomplete,false,true,NA,3,7,E15_Q9_ansR.png,right,NA,NA,NA,right,872.5,true,NA,NA,NA,NA,NA
qhzVwkWx,NA,NA,qhzVwkWx,2020-0188,2021-09-22,11:58:07,13:06:27,NA,incomplete,false,true,NA,3,8,E15_Q2_ansL.png,left,NA,NA,NA,left,1047.60000014305,true,NA,NA,NA,NA,NA
qhzVwkWx,NA,NA,qhzVwkWx,2020-0188,2021-09-22,11:58:07,13:06:27,NA,incomplete,false,true,NA,3,9,E15_Q8_ansL.png,left,NA,NA,NA,left,954,true,NA,NA,NA,NA,NA
qhzVwkWx,NA,NA,qhzVwkWx,2020-0188,2021-09-22,11:58:07,13:06:27,NA,incomplete,false,true,NA,3,10,E7_Q10_ansR.png,right,NA,NA,NA,right,1733.70000004768,true,NA,NA,NA,NA,NA
qhzVwkWx,NA,NA,qhzVwkWx,2020-0188,2021-09-22,11:58:07,13:06:27,NA,incomplete,false,true,NA,3,11,E7_Q9_ansR.png,right,NA,NA,NA,left,849.200000047684,false,NA,NA,NA,NA,NA
qhzVwkWx,NA,NA,qhzVwkWx,2020-0188,2021-09-22,11:58:07,13:06:27,NA,incomplete,false,true,NA,3,12,E7_Q7_ansL.png,left,NA,NA,NA,left,1288.29999995232,true,NA,NA,NA,NA,NA
qhzVwkWx,NA,NA,qhzVwkWx,2020-0188,2021-09-22,11:58:07,13:06:27,NA,incomplete,false,true,NA,3,13,E7_Q2_ansL.png,left,NA,NA,NA,left,1556.5,true,NA,NA,NA,NA,NA
qhzVwkWx,NA,NA,qhzVwkWx,2020-0188,2021-09-22,11:58:07,13:06:27,NA,incomplete,false,true,NA,3,14,E7_Q1_ansL.png,left,NA,NA,NA,left,1257,true,NA,NA,NA,NA,NA
qhzVwkWx,NA,NA,qhzVwkWx,2020-0188,2021-09-22,11:58:07,13:06:27,NA,incomplete,false,true,NA,3,15,E7_Q8_ansL.png,left,NA,NA,NA,left,858.700000047684,true,NA,NA,NA,NA,NA
qhzVwkWx,NA,NA,qhzVwkWx,2020-0188,2021-09-22,11:58:07,13:06:27,NA,incomplete,false,true,NA,3,16,E7_Q5_ansR.png,right,NA,NA,NA,right,982.299999952316,true,NA,NA,NA,NA,NA
qhzVwkWx,NA,NA,qhzVwkWx,2020-0188,2021-09-22,11:58:07,13:06:27,NA,incomplete,false,true,NA,3,17,E7_Q3_ansR.png,right,NA,NA,NA,right,1079.20000004768,true,NA,NA,NA,NA,NA
qhzVwkWx,NA,NA,qhzVwkWx,2020-0188,2021-09-22,11:58:07,13:06:27,NA,incomplete,false,true,NA,3,18,E7_Q4_ansR.png,right,NA,NA,NA,right,939.5,true,NA,NA,NA,NA,NA
qhzVwkWx,NA,NA,qhzVwkWx,2020-0188,2021-09-22,11:58:07,13:06:27,NA,incomplete,false,true,NA,3,19,E7_Q6_ansR.png,right,NA,NA,NA,right,1152.40000009537,true,NA,NA,NA,NA,NA
qhzVwkWx,NA,NA,qhzVwkWx,2020-0188,2021-09-22,11:58:07,13:06:27,NA,incomplete,false,true,NA,3,20,E24_Q5_ansL.png,left,NA,NA,NA,left,1670.39999985695,true,NA,NA,NA,NA,NA
qhzVwkWx,NA,NA,qhzVwkWx,2020-0188,2021-09-22,11:58:07,13:06:27,NA,incomplete,false,true,NA,3,21,E24_Q6_ansL.png,left,NA,NA,NA,left,1292.29999995232,true,NA,NA,NA,NA,NA
qhzVwkWx,NA,NA,qhzVwkWx,2020-0188,2021-09-22,11:58:07,13:06:27,NA,incomplete,false,true,NA,3,22,E24_Q3_ansL.png,left,NA,NA,NA,left,1405.20000004768,true,NA,NA,NA,NA,NA
qhzVwkWx,NA,NA,qhzVwkWx,2020-0188,2021-09-22,11:58:07,13:06:27,NA,incomplete,false,true,NA,3,23,E24_Q10_ansR.png,right,NA,NA,NA,right,1583.79999995232,true,NA,NA,NA,NA,NA
qhzVwkWx,NA,NA,qhzVwkWx,2020-0188,2021-09-22,11:58:07,13:06:27,NA,incomplete,false,true,NA,3,24,E24_Q1_ansR.png,right,NA,NA,NA,right,1300.10000014305,true,NA,NA,NA,NA,NA
qhzVwkWx,NA,NA,qhzVwkWx,2020-0188,2021-09-22,11:58:07,13:06:27,NA,incomplete,false,true,NA,3,25,E24_Q8_ansR.png,right,NA,NA,NA,right,1195.29999995232,true,NA,NA,NA,NA,NA
qhzVwkWx,NA,NA,qhzVwkWx,2020-0188,2021-09-22,11:58:07,13:06:27,NA,incomplete,false,true,NA,3,26,E24_Q4_ansL.png,left,NA,NA,NA,left,1193,true,NA,NA,NA,NA,NA
qhzVwkWx,NA,NA,qhzVwkWx,2020-0188,2021-09-22,11:58:07,13:06:27,NA,incomplete,false,true,NA,3,27,E24_Q9_ansL.png,left,NA,NA,NA,left,1616.20000004768,true,NA,NA,NA,NA,NA
qhzVwkWx,NA,NA,qhzVwkWx,2020-0188,2021-09-22,11:58:07,13:06:27,NA,incomplete,false,true,NA,3,28,E24_Q2_ansR.png,right,NA,NA,NA,right,1549.5,true,NA,NA,NA,NA,NA
qhzVwkWx,NA,NA,qhzVwkWx,2020-0188,2021-09-22,11:58:07,13:06:27,NA,incomplete,false,true,NA,3,29,E24_Q7_ansR.png,right,NA,NA,NA,right,1101.89999985695,true,NA,NA,NA,NA,NA
qhzVwkWx,NA,NA,qhzVwkWx,2020-0188,2021-09-22,11:58:07,13:06:27,NA,incomplete,false,NA,true,3,0,NA,right,E24_Q3_ansL.png,E7_Q6_ansR.png,between,NA,NaN,NA,right,4929.300000190735,1,2,1280
qhzVwkWx,NA,NA,qhzVwkWx,2020-0188,2021-09-22,11:58:07,13:06:27,NA,incomplete,false,NA,true,3,1,NA,right,E24_Q5_ansL.png,E7_Q3_ansR.png,between,NA,NaN,NA,right,2122.5999999046326,1,2,1352
qhzVwkWx,NA,NA,qhzVwkWx,2020-0188,2021-09-22,11:58:07,13:06:27,NA,incomplete,false,NA,true,3,2,NA,right,E7_Q3_ansR.png,E7_Q1_ansL.png,within,NA,NaN,NA,right,2165.699999809265,1,1,1652.6000001430511
qhzVwkWx,NA,NA,qhzVwkWx,2020-0188,2021-09-22,11:58:07,13:06:27,NA,incomplete,false,NA,true,3,3,NA,left,E24_Q6_ansL.png,E24_Q1_ansR.png,within,NA,NaN,NA,left,4494.700000047684,1,1,1335.2999999523163
qhzVwkWx,NA,NA,qhzVwkWx,2020-0188,2021-09-22,11:58:07,13:06:27,NA,incomplete,false,NA,true,3,4,NA,right,E15_Q8_ansL.png,E15_Q1_ansL.png,within,NA,NaN,NA,right,3624.4000000953674,1,1,1279.8999998569489
qhzVwkWx,NA,NA,qhzVwkWx,2020-0188,2021-09-22,11:58:07,13:06:27,NA,incomplete,false,NA,true,3,5,NA,left,E24_Q8_ansR.png,E24_Q2_ansR.png,within,NA,NaN,NA,left,1999.7000000476837,1,1,1141.2999999523163
qhzVwkWx,NA,NA,qhzVwkWx,2020-0188,2021-09-22,11:58:07,13:06:27,NA,incomplete,false,NA,true,3,6,NA,right,E7_Q7_ansL.png,E15_Q8_ansL.png,between,NA,NaN,NA,right,2644.0999999046326,1,2,1758.5
qhzVwkWx,NA,NA,qhzVwkWx,2020-0188,2021-09-22,11:58:07,13:06:27,NA,incomplete,false,NA,true,3,7,NA,left,E24_Q1_ansR.png,E24_Q9_ansL.png,within,NA,NaN,NA,left,2780.2000000476837,1,1,1321.1000001430511
qhzVwkWx,NA,NA,qhzVwkWx,2020-0188,2021-09-22,11:58:07,13:06:27,NA,incomplete,false,NA,true,3,8,NA,left,E7_Q5_ansR.png,E7_Q6_ansR.png,within,NA,NaN,NA,left,5099.599999904633,1,1,1059.0999999046326
qhzVwkWx,NA,NA,qhzVwkWx,2020-0188,2021-09-22,11:58:07,13:06:27,NA,incomplete,false,NA,true,3,9,NA,left,E24_Q10_ansR.png,E24_Q4_ansL.png,within,NA,NaN,NA,left,3724.5999999046326,1,1,1092.5
qhzVwkWx,NA,NA,qhzVwkWx,2020-0188,2021-09-22,11:58:07,13:06:27,NA,incomplete,false,NA,true,3,10,NA,left,E7_Q2_ansL.png,E7_Q5_ansR.png,within,NA,NaN,NA,left,6172.300000190735,1,1,4851.599999904633
qhzVwkWx,NA,NA,qhzVwkWx,2020-0188,2021-09-22,11:58:07,13:06:27,NA,incomplete,false,NA,true,3,11,NA,right,E15_Q9_ansR.png,E15_Q6_ansR.png,within,NA,NaN,NA,right,2028.1999998092651,1,1,1297.0999999046326
qhzVwkWx,NA,NA,qhzVwkWx,2020-0188,2021-09-22,11:58:07,13:06:27,NA,incomplete,false,NA,true,3,12,NA,left,E15_Q7_ansL.png,E15_Q10_ansL.png,within,NA,NaN,NA,left,3326.2999999523163,1,1,1351.6000001430511
qhzVwkWx,NA,NA,qhzVwkWx,2020-0188,2021-09-22,11:58:07,13:06:27,NA,incomplete,false,NA,true,3,13,NA,right,E15_Q5_ansR.png,E15_Q3_ansR.png,within,NA,NaN,NA,right,2301.9000000953674,1,1,1100.7999999523163
qhzVwkWx,NA,NA,qhzVwkWx,2020-0188,2021-09-22,11:58:07,13:06:27,NA,incomplete,false,NA,true,3,14,NA,left,E7_Q7_ansL.png,E7_Q8_ansL.png,within,NA,NaN,NA,left,1328.2000000476837,1,1,963.1000001430511
qhzVwkWx,NA,NA,qhzVwkWx,2020-0188,2021-09-22,11:58:07,13:06:27,NA,incomplete,false,NA,true,3,15,NA,left,E15_Q9_ansR.png,E7_Q10_ansR.png,between,NA,NaN,NA,left,2157.7999999523163,1,2,2480.2999999523163
qhzVwkWx,NA,NA,qhzVwkWx,2020-0188,2021-09-22,11:58:07,13:06:27,NA,incomplete,false,NA,true,3,16,NA,right,E15_Q6_ansR.png,E15_Q4_ansR.png,within,NA,NaN,NA,right,2790.300000190735,1,1,1887
qhzVwkWx,NA,NA,qhzVwkWx,2020-0188,2021-09-22,11:58:07,13:06:27,NA,incomplete,false,NA,true,3,17,NA,left,E7_Q9_ansR.png,E7_Q1_ansL.png,within,NA,NaN,NA,left,1902.9000000953674,1,1,1318.5999999046326
qhzVwkWx,NA,NA,qhzVwkWx,2020-0188,2021-09-22,11:58:07,13:06:27,NA,incomplete,false,NA,true,3,18,NA,right,E24_Q10_ansR.png,E24_Q5_ansL.png,within,NA,NaN,NA,right,1531.1000001430511,1,1,1424.8999998569489
qhzVwkWx,NA,NA,qhzVwkWx,2020-0188,2021-09-22,11:58:07,13:06:27,NA,incomplete,false,NA,true,3,19,NA,left,E15_Q5_ansR.png,E15_Q2_ansL.png,within,NA,NaN,NA,left,1433.9000000953674,1,1,1719.2999999523163
qhzVwkWx,NA,NA,qhzVwkWx,2020-0188,2021-09-22,11:58:07,13:06:27,NA,incomplete,false,NA,true,3,20,NA,left,E7_Q4_ansR.png,E24_Q6_ansL.png,between,NA,NaN,NA,left,1994.4000000953674,1,2,2973.0999999046326
qhzVwkWx,NA,NA,qhzVwkWx,2020-0188,2021-09-22,11:58:07,13:06:27,NA,incomplete,false,NA,true,3,21,NA,left,E24_Q4_ansL.png,E24_Q7_ansR.png,within,NA,NaN,NA,left,3687.9000000953674,1,1,3039.100000143051
qhzVwkWx,NA,NA,qhzVwkWx,2020-0188,2021-09-22,11:58:07,13:06:27,NA,incomplete,false,NA,true,3,22,NA,left,E7_Q8_ansL.png,E7_Q4_ansR.png,within,NA,NaN,NA,right,4428.099999904633,0,1,5568.299999952316
qhzVwkWx,NA,NA,qhzVwkWx,2020-0188,2021-09-22,11:58:07,13:06:27,NA,incomplete,false,NA,true,3,23,NA,left,E7_Q10_ansR.png,E7_Q2_ansL.png,within,NA,NaN,NA,left,11657.100000143051,1,1,1999.5
qhzVwkWx,NA,NA,qhzVwkWx,2020-0188,2021-09-22,11:58:07,13:06:27,NA,incomplete,false,NA,true,3,24,NA,left,E24_Q3_ansL.png,E24_Q8_ansR.png,within,NA,NaN,NA,left,3251.2999999523163,1,1,1580.7000000476837
qhzVwkWx,NA,NA,qhzVwkWx,2020-0188,2021-09-22,11:58:07,13:06:27,NA,incomplete,false,NA,true,3,25,NA,left,E15_Q10_ansL.png,E15_Q1_ansL.png,within,NA,NaN,NA,left,2830.5999999046326,1,1,2057.5
qhzVwkWx,NA,NA,qhzVwkWx,2020-0188,2021-09-22,11:58:07,13:06:27,NA,incomplete,false,NA,true,3,26,NA,right,E7_Q9_ansR.png,E15_Q2_ansL.png,between,NA,NaN,NA,right,1814.7999999523163,1,2,1210.5999999046326
qhzVwkWx,NA,NA,qhzVwkWx,2020-0188,2021-09-22,11:58:07,13:06:27,NA,incomplete,false,true,NA,4,0,E6_Q5_ansR.png,right,NA,NA,NA,right,1312.39999985695,true,NA,NA,NA,NA,NA
qhzVwkWx,NA,NA,qhzVwkWx,2020-0188,2021-09-22,11:58:07,13:06:27,NA,incomplete,false,true,NA,4,1,E6_Q1_ansL.png,left,NA,NA,NA,left,1094.60000014305,true,NA,NA,NA,NA,NA
qhzVwkWx,NA,NA,qhzVwkWx,2020-0188,2021-09-22,11:58:07,13:06:27,NA,incomplete,false,true,NA,4,2,E6_Q10_ansL.png,left,NA,NA,NA,left,1005.20000004768,true,NA,NA,NA,NA,NA
qhzVwkWx,NA,NA,qhzVwkWx,2020-0188,2021-09-22,11:58:07,13:06:27,NA,incomplete,false,true,NA,4,3,E6_Q8_ansL.png,left,NA,NA,NA,left,1227,true,NA,NA,NA,NA,NA
qhzVwkWx,NA,NA,qhzVwkWx,2020-0188,2021-09-22,11:58:07,13:06:27,NA,incomplete,false,true,NA,4,4,E6_Q7_ansL.png,left,NA,NA,NA,left,918.299999952316,true,NA,NA,NA,NA,NA
qhzVwkWx,NA,NA,qhzVwkWx,2020-0188,2021-09-22,11:58:07,13:06:27,NA,incomplete,false,true,NA,4,5,E6_Q4_ansR.png,right,NA,NA,NA,left,863.599999904633,false,NA,NA,NA,NA,NA
qhzVwkWx,NA,NA,qhzVwkWx,2020-0188,2021-09-22,11:58:07,13:06:27,NA,incomplete,false,true,NA,4,6,E6_Q6_ansR.png,right,NA,NA,NA,right,867.900000095367,true,NA,NA,NA,NA,NA
qhzVwkWx,NA,NA,qhzVwkWx,2020-0188,2021-09-22,11:58:07,13:06:27,NA,incomplete,false,true,NA,4,7,E6_Q3_ansR.png,right,NA,NA,NA,right,1162.89999985695,true,NA,NA,NA,NA,NA
qhzVwkWx,NA,NA,qhzVwkWx,2020-0188,2021-09-22,11:58:07,13:06:27,NA,incomplete,false,true,NA,4,8,E6_Q9_ansL.png,left,NA,NA,NA,left,1247.5,true,NA,NA,NA,NA,NA
qhzVwkWx,NA,NA,qhzVwkWx,2020-0188,2021-09-22,11:58:07,13:06:27,NA,incomplete,false,true,NA,4,9,E6_Q2_ansL.png,left,NA,NA,NA,left,2005.90000009537,true,NA,NA,NA,NA,NA
qhzVwkWx,NA,NA,qhzVwkWx,2020-0188,2021-09-22,11:58:07,13:06:27,NA,incomplete,false,true,NA,4,10,E8_Q2_ansR.png,right,NA,NA,NA,right,1045.80000019073,true,NA,NA,NA,NA,NA
qhzVwkWx,NA,NA,qhzVwkWx,2020-0188,2021-09-22,11:58:07,13:06:27,NA,incomplete,false,true,NA,4,11,E8_Q5_ansL.png,left,NA,NA,NA,left,1000.09999990463,true,NA,NA,NA,NA,NA
qhzVwkWx,NA,NA,qhzVwkWx,2020-0188,2021-09-22,11:58:07,13:06:27,NA,incomplete,false,true,NA,4,12,E8_Q6_ansL.png,left,NA,NA,NA,left,934.600000143051,true,NA,NA,NA,NA,NA
qhzVwkWx,NA,NA,qhzVwkWx,2020-0188,2021-09-22,11:58:07,13:06:27,NA,incomplete,false,true,NA,4,13,E8_Q4_ansL.png,left,NA,NA,NA,left,920.099999904633,true,NA,NA,NA,NA,NA
qhzVwkWx,NA,NA,qhzVwkWx,2020-0188,2021-09-22,11:58:07,13:06:27,NA,incomplete,false,true,NA,4,14,E8_Q8_ansR.png,right,NA,NA,NA,right,1018.09999990463,true,NA,NA,NA,NA,NA
qhzVwkWx,NA,NA,qhzVwkWx,2020-0188,2021-09-22,11:58:07,13:06:27,NA,incomplete,false,true,NA,4,15,E8_Q7_ansR.png,right,NA,NA,NA,right,801,true,NA,NA,NA,NA,NA
qhzVwkWx,NA,NA,qhzVwkWx,2020-0188,2021-09-22,11:58:07,13:06:27,NA,incomplete,false,true,NA,4,16,E8_Q10_ansR.png,right,NA,NA,NA,right,1241.5,true,NA,NA,NA,NA,NA
qhzVwkWx,NA,NA,qhzVwkWx,2020-0188,2021-09-22,11:58:07,13:06:27,NA,incomplete,false,true,NA,4,17,E8_Q9_ansL.png,left,NA,NA,NA,left,769,true,NA,NA,NA,NA,NA
qhzVwkWx,NA,NA,qhzVwkWx,2020-0188,2021-09-22,11:58:07,13:06:27,NA,incomplete,false,true,NA,4,18,E8_Q1_ansR.png,right,NA,NA,NA,right,882.400000095367,true,NA,NA,NA,NA,NA
qhzVwkWx,NA,NA,qhzVwkWx,2020-0188,2021-09-22,11:58:07,13:06:27,NA,incomplete,false,true,NA,4,19,E8_Q3_ansL.png,left,NA,NA,NA,left,932.299999952316,true,NA,NA,NA,NA,NA
qhzVwkWx,NA,NA,qhzVwkWx,2020-0188,2021-09-22,11:58:07,13:06:27,NA,incomplete,false,true,NA,4,20,E16_Q6_ansL.png,left,NA,NA,NA,left,1552.19999980927,true,NA,NA,NA,NA,NA
qhzVwkWx,NA,NA,qhzVwkWx,2020-0188,2021-09-22,11:58:07,13:06:27,NA,incomplete,false,true,NA,4,21,E16_Q9_ansL.png,left,NA,NA,NA,left,793.899999856949,true,NA,NA,NA,NA,NA
qhzVwkWx,NA,NA,qhzVwkWx,2020-0188,2021-09-22,11:58:07,13:06:27,NA,incomplete,false,true,NA,4,22,E16_Q2_ansR.png,right,NA,NA,NA,right,1019.5,true,NA,NA,NA,NA,NA
qhzVwkWx,NA,NA,qhzVwkWx,2020-0188,2021-09-22,11:58:07,13:06:27,NA,incomplete,false,true,NA,4,23,E16_Q8_ansR.png,right,NA,NA,NA,right,1375.29999995232,true,NA,NA,NA,NA,NA
qhzVwkWx,NA,NA,qhzVwkWx,2020-0188,2021-09-22,11:58:07,13:06:27,NA,incomplete,false,true,NA,4,24,E16_Q1_ansR.png,right,NA,NA,NA,right,1416.5,true,NA,NA,NA,NA,NA
qhzVwkWx,NA,NA,qhzVwkWx,2020-0188,2021-09-22,11:58:07,13:06:27,NA,incomplete,false,true,NA,4,25,E16_Q4_ansL.png,left,NA,NA,NA,left,894.799999952316,true,NA,NA,NA,NA,NA
qhzVwkWx,NA,NA,qhzVwkWx,2020-0188,2021-09-22,11:58:07,13:06:27,NA,incomplete,false,true,NA,4,26,E16_Q5_ansL.png,left,NA,NA,NA,left,842.400000095367,true,NA,NA,NA,NA,NA
qhzVwkWx,NA,NA,qhzVwkWx,2020-0188,2021-09-22,11:58:07,13:06:27,NA,incomplete,false,true,NA,4,27,E16_Q3_ansL.png,left,NA,NA,NA,left,984.799999952316,true,NA,NA,NA,NA,NA
qhzVwkWx,NA,NA,qhzVwkWx,2020-0188,2021-09-22,11:58:07,13:06:27,NA,incomplete,false,true,NA,4,28,E16_Q10_ansR.png,right,NA,NA,NA,right,858.300000190735,true,NA,NA,NA,NA,NA
qhzVwkWx,NA,NA,qhzVwkWx,2020-0188,2021-09-22,11:58:07,13:06:27,NA,incomplete,false,true,NA,4,29,E16_Q7_ansR.png,right,NA,NA,NA,right,1018.29999995232,true,NA,NA,NA,NA,NA
qhzVwkWx,NA,NA,qhzVwkWx,2020-0188,2021-09-22,11:58:07,13:06:27,NA,incomplete,false,NA,true,4,0,NA,right,E16_Q4_ansL.png,E16_Q2_ansR.png,within,NA,NaN,NA,left,4113.600000143051,0,1,1252.2000000476837
qhzVwkWx,NA,NA,qhzVwkWx,2020-0188,2021-09-22,11:58:07,13:06:27,NA,incomplete,false,NA,true,4,1,NA,left,E16_Q8_ansR.png,E16_Q5_ansL.png,within,NA,NaN,NA,right,4348.800000190735,0,1,1772
qhzVwkWx,NA,NA,qhzVwkWx,2020-0188,2021-09-22,11:58:07,13:06:27,NA,incomplete,false,NA,true,4,2,NA,left,E6_Q10_ansL.png,E6_Q4_ansR.png,within,NA,NaN,NA,left,1678.4000000953674,1,1,1174
qhzVwkWx,NA,NA,qhzVwkWx,2020-0188,2021-09-22,11:58:07,13:06:27,NA,incomplete,false,NA,true,4,3,NA,right,E8_Q1_ansR.png,E8_Q7_ansR.png,within,NA,NaN,NA,left,5597.299999952316,0,1,997.0999999046326
qhzVwkWx,NA,NA,qhzVwkWx,2020-0188,2021-09-22,11:58:07,13:06:27,NA,incomplete,false,NA,true,4,4,NA,right,E16_Q3_ansL.png,E16_Q1_ansR.png,within,NA,NaN,NA,right,5101.899999856949,1,1,1288.2999999523163
qhzVwkWx,NA,NA,qhzVwkWx,2020-0188,2021-09-22,11:58:07,13:06:27,NA,incomplete,false,NA,true,4,5,NA,right,E8_Q3_ansL.png,E8_Q10_ansR.png,within,NA,NaN,NA,right,2367.2999999523163,1,1,1700.5
qhzVwkWx,NA,NA,qhzVwkWx,2020-0188,2021-09-22,11:58:07,13:06:27,NA,incomplete,false,NA,true,4,6,NA,left,E6_Q6_ansR.png,E6_Q2_ansL.png,within,NA,NaN,NA,left,3097.7999999523163,1,1,1466.2999999523163
qhzVwkWx,NA,NA,qhzVwkWx,2020-0188,2021-09-22,11:58:07,13:06:27,NA,incomplete,false,NA,true,4,7,NA,left,E6_Q9_ansL.png,E8_Q5_ansL.png,between,NA,NaN,NA,left,2523.0999999046326,1,2,1026.7999999523163
qhzVwkWx,NA,NA,qhzVwkWx,2020-0188,2021-09-22,11:58:07,13:06:27,NA,incomplete,false,NA,true,4,8,NA,right,E6_Q9_ansL.png,E6_Q4_ansR.png,within,NA,NaN,NA,right,1580.8000001907349,1,1,1246.1999998092651
qhzVwkWx,NA,NA,qhzVwkWx,2020-0188,2021-09-22,11:58:07,13:06:27,NA,incomplete,false,NA,true,4,9,NA,right,E6_Q6_ansR.png,E6_Q8_ansL.png,within,NA,NaN,NA,left,1150.5,0,1,962.9000000953674
qhzVwkWx,NA,NA,qhzVwkWx,2020-0188,2021-09-22,11:58:07,13:06:27,NA,incomplete,false,NA,true,4,10,NA,right,E8_Q8_ansR.png,E8_Q5_ansL.png,within,NA,NaN,NA,right,3155.0999999046326,1,1,1232.0999999046326
qhzVwkWx,NA,NA,qhzVwkWx,2020-0188,2021-09-22,11:58:07,13:06:27,NA,incomplete,false,NA,true,4,11,NA,right,E16_Q9_ansL.png,E8_Q1_ansR.png,between,NA,NaN,NA,right,3677.0999999046326,1,2,1321.6000001430511
qhzVwkWx,NA,NA,qhzVwkWx,2020-0188,2021-09-22,11:58:07,13:06:27,NA,incomplete,false,NA,true,4,12,NA,left,E6_Q5_ansR.png,E6_Q8_ansL.png,within,NA,NaN,NA,left,1272.7999999523163,1,1,2011.5
qhzVwkWx,NA,NA,qhzVwkWx,2020-0188,2021-09-22,11:58:07,13:06:27,NA,incomplete,false,NA,true,4,13,NA,left,E16_Q6_ansL.png,E16_Q8_ansR.png,within,NA,NaN,NA,left,4230.799999952316,1,1,1119.6000001430511
qhzVwkWx,NA,NA,qhzVwkWx,2020-0188,2021-09-22,11:58:07,13:06:27,NA,incomplete,false,NA,true,4,14,NA,left,E16_Q9_ansL.png,E16_Q1_ansR.png,within,NA,NaN,NA,left,4719.399999856949,1,1,1036.1000001430511
qhzVwkWx,NA,NA,qhzVwkWx,2020-0188,2021-09-22,11:58:07,13:06:27,NA,incomplete,false,NA,true,4,15,NA,left,E8_Q3_ansL.png,E16_Q2_ansR.png,between,NA,NaN,NA,left,1791,1,1,1329.5999999046326
qhzVwkWx,NA,NA,qhzVwkWx,2020-0188,2021-09-22,11:58:07,13:06:27,NA,incomplete,false,NA,true,4,16,NA,right,E6_Q3_ansR.png,E6_Q7_ansL.png,within,NA,NaN,NA,left,2172.7000000476837,0,1,1214.1000001430511
qhzVwkWx,NA,NA,qhzVwkWx,2020-0188,2021-09-22,11:58:07,13:06:27,NA,incomplete,false,NA,true,4,17,NA,right,E6_Q7_ansL.png,E6_Q1_ansL.png,within,NA,NaN,NA,right,1630,1,1,1027.3000001907349
qhzVwkWx,NA,NA,qhzVwkWx,2020-0188,2021-09-22,11:58:07,13:06:27,NA,incomplete,false,NA,true,4,18,NA,left,E6_Q3_ansR.png,E8_Q2_ansR.png,between,NA,NaN,NA,left,1392.7999999523163,1,3,1117.9000000953674
qhzVwkWx,NA,NA,qhzVwkWx,2020-0188,2021-09-22,11:58:07,13:06:27,NA,incomplete,false,NA,true,4,19,NA,left,E8_Q4_ansL.png,E8_Q10_ansR.png,within,NA,NaN,NA,left,1929.4000000953674,1,1,833.2000000476837
qhzVwkWx,NA,NA,qhzVwkWx,2020-0188,2021-09-22,11:58:07,13:06:27,NA,incomplete,false,NA,true,4,20,NA,left,E8_Q9_ansL.png,E16_Q6_ansL.png,between,NA,NaN,NA,left,1230.4000000953674,1,2,982
qhzVwkWx,NA,NA,qhzVwkWx,2020-0188,2021-09-22,11:58:07,13:06:27,NA,incomplete,false,NA,true,4,21,NA,right,E8_Q6_ansL.png,E6_Q2_ansL.png,between,NA,NaN,NA,right,1596.6000001430511,1,2,1020
qhzVwkWx,NA,NA,qhzVwkWx,2020-0188,2021-09-22,11:58:07,13:06:27,NA,incomplete,false,NA,true,4,22,NA,right,E8_Q7_ansR.png,E8_Q6_ansL.png,within,NA,NaN,NA,right,1335.7999999523163,1,1,986.4000000953674
qhzVwkWx,NA,NA,qhzVwkWx,2020-0188,2021-09-22,11:58:07,13:06:27,NA,incomplete,false,NA,true,4,23,NA,left,E16_Q5_ansL.png,E16_Q7_ansR.png,within,NA,NaN,NA,right,1806.5,0,1,1142.5
qhzVwkWx,NA,NA,qhzVwkWx,2020-0188,2021-09-22,11:58:07,13:06:27,NA,incomplete,false,NA,true,4,24,NA,left,E8_Q8_ansR.png,E8_Q9_ansL.png,within,NA,NaN,NA,right,1298,0,1,1053.7000000476837
qhzVwkWx,NA,NA,qhzVwkWx,2020-0188,2021-09-22,11:58:07,13:06:27,NA,incomplete,false,NA,true,4,25,NA,right,E8_Q4_ansL.png,E8_Q2_ansR.png,within,NA,NaN,NA,right,1280.7000000476837,1,1,1215.1999998092651
qhzVwkWx,NA,NA,qhzVwkWx,2020-0188,2021-09-22,11:58:07,13:06:27,NA,incomplete,false,NA,true,4,26,NA,right,E16_Q10_ansR.png,E16_Q4_ansL.png,within,NA,NaN,NA,right,5477.599999904633,1,1,1573.2999999523163
qhzVwkWx,NA,NA,qhzVwkWx,2020-0188,2021-09-22,11:58:07,13:06:27,NA,incomplete,false,true,NA,5,0,E28_Q4_ansL.png,left,NA,NA,NA,left,1946.10000014305,true,NA,NA,NA,NA,NA
qhzVwkWx,NA,NA,qhzVwkWx,2020-0188,2021-09-22,11:58:07,13:06:27,NA,incomplete,false,true,NA,5,1,E28_Q5_ansL.png,left,NA,NA,NA,left,1256.90000009537,true,NA,NA,NA,NA,NA
qhzVwkWx,NA,NA,qhzVwkWx,2020-0188,2021-09-22,11:58:07,13:06:27,NA,incomplete,false,true,NA,5,2,E28_Q6_ansL.png,left,NA,NA,NA,left,1107.29999995232,true,NA,NA,NA,NA,NA
qhzVwkWx,NA,NA,qhzVwkWx,2020-0188,2021-09-22,11:58:07,13:06:27,NA,incomplete,false,true,NA,5,3,E28_Q8_ansR.png,right,NA,NA,NA,right,1740.70000004768,true,NA,NA,NA,NA,NA
qhzVwkWx,NA,NA,qhzVwkWx,2020-0188,2021-09-22,11:58:07,13:06:27,NA,incomplete,false,true,NA,5,4,E28_Q7_ansR.png,right,NA,NA,NA,right,1089.09999990463,true,NA,NA,NA,NA,NA
qhzVwkWx,NA,NA,qhzVwkWx,2020-0188,2021-09-22,11:58:07,13:06:27,NA,incomplete,false,true,NA,5,5,E28_Q10_ansR.png,right,NA,NA,NA,right,1099.79999995232,true,NA,NA,NA,NA,NA
qhzVwkWx,NA,NA,qhzVwkWx,2020-0188,2021-09-22,11:58:07,13:06:27,NA,incomplete,false,true,NA,5,6,E28_Q3_ansL.png,left,NA,NA,NA,left,1470.79999995232,true,NA,NA,NA,NA,NA
qhzVwkWx,NA,NA,qhzVwkWx,2020-0188,2021-09-22,11:58:07,13:06:27,NA,incomplete,false,true,NA,5,7,E28_Q1_ansR.png,right,NA,NA,NA,right,1144.29999995232,true,NA,NA,NA,NA,NA
qhzVwkWx,NA,NA,qhzVwkWx,2020-0188,2021-09-22,11:58:07,13:06:27,NA,incomplete,false,true,NA,5,8,E28_Q2_ansR.png,right,NA,NA,NA,right,1298.10000014305,true,NA,NA,NA,NA,NA
qhzVwkWx,NA,NA,qhzVwkWx,2020-0188,2021-09-22,11:58:07,13:06:27,NA,incomplete,false,true,NA,5,9,E28_Q9_ansL.png,left,NA,NA,NA,right,1075.5,false,NA,NA,NA,NA,NA
qhzVwkWx,NA,NA,qhzVwkWx,2020-0188,2021-09-22,11:58:07,13:06:27,NA,incomplete,false,true,NA,5,10,E33_Q2_ansL.png,left,NA,NA,NA,left,2106.20000004768,true,NA,NA,NA,NA,NA
qhzVwkWx,NA,NA,qhzVwkWx,2020-0188,2021-09-22,11:58:07,13:06:27,NA,incomplete,false,true,NA,5,11,E33_Q8_ansL.png,left,NA,NA,NA,left,1900.80000019073,true,NA,NA,NA,NA,NA
qhzVwkWx,NA,NA,qhzVwkWx,2020-0188,2021-09-22,11:58:07,13:06:27,NA,incomplete,false,true,NA,5,12,E33_Q1_ansL.png,left,NA,NA,NA,left,2531.39999985695,true,NA,NA,NA,NA,NA
qhzVwkWx,NA,NA,qhzVwkWx,2020-0188,2021-09-22,11:58:07,13:06:27,NA,incomplete,false,true,NA,5,13,E33_Q4_ansR.png,right,NA,NA,NA,right,1182.59999990463,true,NA,NA,NA,NA,NA
qhzVwkWx,NA,NA,qhzVwkWx,2020-0188,2021-09-22,11:58:07,13:06:27,NA,incomplete,false,true,NA,5,14,E33_Q5_ansR.png,right,NA,NA,NA,left,2155.29999995232,false,NA,NA,NA,NA,NA
qhzVwkWx,NA,NA,qhzVwkWx,2020-0188,2021-09-22,11:58:07,13:06:27,NA,incomplete,false,true,NA,5,15,E33_Q10_ansL.png,left,NA,NA,NA,left,3121.40000009537,true,NA,NA,NA,NA,NA
qhzVwkWx,NA,NA,qhzVwkWx,2020-0188,2021-09-22,11:58:07,13:06:27,NA,incomplete,false,true,NA,5,16,E33_Q9_ansR.png,right,NA,NA,NA,right,1323.79999995232,true,NA,NA,NA,NA,NA
qhzVwkWx,NA,NA,qhzVwkWx,2020-0188,2021-09-22,11:58:07,13:06:27,NA,incomplete,false,true,NA,5,17,E33_Q6_ansR.png,right,NA,NA,NA,right,1170.5,true,NA,NA,NA,NA,NA
qhzVwkWx,NA,NA,qhzVwkWx,2020-0188,2021-09-22,11:58:07,13:06:27,NA,incomplete,false,true,NA,5,18,E33_Q3_ansR.png,right,NA,NA,NA,right,2663.20000004768,true,NA,NA,NA,NA,NA
qhzVwkWx,NA,NA,qhzVwkWx,2020-0188,2021-09-22,11:58:07,13:06:27,NA,incomplete,false,true,NA,5,19,E33_Q7_ansL.png,left,NA,NA,NA,right,2243.30000019073,false,NA,NA,NA,NA,NA
qhzVwkWx,NA,NA,qhzVwkWx,2020-0188,2021-09-22,11:58:07,13:06:27,NA,incomplete,false,true,NA,5,20,E9_Q5_ansL.png,left,NA,NA,NA,left,2028.70000004768,true,NA,NA,NA,NA,NA
qhzVwkWx,NA,NA,qhzVwkWx,2020-0188,2021-09-22,11:58:07,13:06:27,NA,incomplete,false,true,NA,5,21,E9_Q9_ansL.png,left,NA,NA,NA,left,1580.20000004768,true,NA,NA,NA,NA,NA
qhzVwkWx,NA,NA,qhzVwkWx,2020-0188,2021-09-22,11:58:07,13:06:27,NA,incomplete,false,true,NA,5,22,E9_Q3_ansL.png,left,NA,NA,NA,left,979.800000190735,true,NA,NA,NA,NA,NA
qhzVwkWx,NA,NA,qhzVwkWx,2020-0188,2021-09-22,11:58:07,13:06:27,NA,incomplete,false,true,NA,5,23,E9_Q2_ansR.png,right,NA,NA,NA,right,1021.40000009537,true,NA,NA,NA,NA,NA
qhzVwkWx,NA,NA,qhzVwkWx,2020-0188,2021-09-22,11:58:07,13:06:27,NA,incomplete,false,true,NA,5,24,E9_Q4_ansL.png,left,NA,NA,NA,left,1086.40000009537,true,NA,NA,NA,NA,NA
qhzVwkWx,NA,NA,qhzVwkWx,2020-0188,2021-09-22,11:58:07,13:06:27,NA,incomplete,false,true,NA,5,25,E9_Q8_ansR.png,right,NA,NA,NA,right,874.899999856949,true,NA,NA,NA,NA,NA
qhzVwkWx,NA,NA,qhzVwkWx,2020-0188,2021-09-22,11:58:07,13:06:27,NA,incomplete,false,true,NA,5,26,E9_Q6_ansL.png,left,NA,NA,NA,left,1934.09999990463,true,NA,NA,NA,NA,NA
qhzVwkWx,NA,NA,qhzVwkWx,2020-0188,2021-09-22,11:58:07,13:06:27,NA,incomplete,false,true,NA,5,27,E9_Q7_ansR.png,right,NA,NA,NA,right,1078.89999985695,true,NA,NA,NA,NA,NA
qhzVwkWx,NA,NA,qhzVwkWx,2020-0188,2021-09-22,11:58:07,13:06:27,NA,incomplete,false,true,NA,5,28,E9_Q10_ansR.png,right,NA,NA,NA,right,1690.80000019073,true,NA,NA,NA,NA,NA
qhzVwkWx,NA,NA,qhzVwkWx,2020-0188,2021-09-22,11:58:07,13:06:27,NA,incomplete,false,true,NA,5,29,E9_Q1_ansR.png,right,NA,NA,NA,right,998.400000095367,true,NA,NA,NA,NA,NA
qhzVwkWx,NA,NA,qhzVwkWx,2020-0188,2021-09-22,11:58:07,13:06:27,NA,incomplete,false,NA,true,5,0,NA,left,E33_Q7_ansL.png,E9_Q3_ansL.png,between,NA,NaN,NA,left,6267.799999952316,1,2,1538.0999999046326
qhzVwkWx,NA,NA,qhzVwkWx,2020-0188,2021-09-22,11:58:07,13:06:27,NA,incomplete,false,NA,true,5,1,NA,right,E9_Q5_ansL.png,E33_Q6_ansR.png,between,NA,NaN,NA,right,2027.4000000953674,1,2,1272.5
qhzVwkWx,NA,NA,qhzVwkWx,2020-0188,2021-09-22,11:58:07,13:06:27,NA,incomplete,false,NA,true,5,2,NA,right,E9_Q6_ansL.png,E9_Q2_ansR.png,within,NA,NaN,NA,right,9099.299999952316,1,1,1458.3999998569489
qhzVwkWx,NA,NA,qhzVwkWx,2020-0188,2021-09-22,11:58:07,13:06:27,NA,incomplete,false,NA,true,5,3,NA,left,E28_Q10_ansR.png,E28_Q2_ansR.png,within,NA,NaN,NA,left,1816.2000000476837,1,1,1149.8999998569489
qhzVwkWx,NA,NA,qhzVwkWx,2020-0188,2021-09-22,11:58:07,13:06:27,NA,incomplete,false,NA,true,5,4,NA,left,E9_Q5_ansL.png,E9_Q2_ansR.png,within,NA,NaN,NA,left,1522.7999999523163,1,1,1022.5
qhzVwkWx,NA,NA,qhzVwkWx,2020-0188,2021-09-22,11:58:07,13:06:27,NA,incomplete,false,NA,true,5,5,NA,left,E33_Q3_ansR.png,E9_Q9_ansL.png,between,NA,NaN,NA,left,2986,1,2,898.2999999523163
qhzVwkWx,NA,NA,qhzVwkWx,2020-0188,2021-09-22,11:58:07,13:06:27,NA,incomplete,false,NA,true,5,6,NA,left,E28_Q9_ansL.png,E33_Q1_ansL.png,between,NA,NaN,NA,left,2197,1,2,1213.5
qhzVwkWx,NA,NA,qhzVwkWx,2020-0188,2021-09-22,11:58:07,13:06:27,NA,incomplete,false,NA,true,5,7,NA,left,E28_Q2_ansR.png,E33_Q8_ansL.png,between,NA,NaN,NA,left,1466.0999999046326,1,2,1119.2999999523163
qhzVwkWx,NA,NA,qhzVwkWx,2020-0188,2021-09-22,11:58:07,13:06:27,NA,incomplete,false,NA,true,5,8,NA,left,E9_Q9_ansL.png,E9_Q4_ansL.png,within,NA,NaN,NA,left,2172.7000000476837,1,1,1053.5
qhzVwkWx,NA,NA,qhzVwkWx,2020-0188,2021-09-22,11:58:07,13:06:27,NA,incomplete,false,NA,true,5,9,NA,left,E28_Q4_ansL.png,E28_Q8_ansR.png,within,NA,NaN,NA,left,1533,1,1,1537.5
qhzVwkWx,NA,NA,qhzVwkWx,2020-0188,2021-09-22,11:58:07,13:06:27,NA,incomplete,false,NA,true,5,10,NA,right,E33_Q3_ansR.png,E33_Q10_ansL.png,within,NA,NaN,NA,right,4272.900000095367,1,1,1279.7000000476837
qhzVwkWx,NA,NA,qhzVwkWx,2020-0188,2021-09-22,11:58:07,13:06:27,NA,incomplete,false,NA,true,5,11,NA,right,E9_Q8_ansR.png,E9_Q3_ansL.png,within,NA,NaN,NA,right,2255.699999809265,1,1,897.6000001430511
qhzVwkWx,NA,NA,qhzVwkWx,2020-0188,2021-09-22,11:58:07,13:06:27,NA,incomplete,false,NA,true,5,12,NA,right,E28_Q7_ansR.png,E28_Q5_ansL.png,within,NA,NaN,NA,right,1378,1,1,1344.5999999046326
qhzVwkWx,NA,NA,qhzVwkWx,2020-0188,2021-09-22,11:58:07,13:06:27,NA,incomplete,false,NA,true,5,13,NA,left,E9_Q4_ansL.png,E9_Q7_ansR.png,within,NA,NaN,NA,left,3081.5999999046326,1,1,790.5999999046326
qhzVwkWx,NA,NA,qhzVwkWx,2020-0188,2021-09-22,11:58:07,13:06:27,NA,incomplete,false,NA,true,5,14,NA,left,E33_Q2_ansL.png,E33_Q4_ansR.png,within,NA,NaN,NA,left,1169.5999999046326,1,1,1091.4000000953674
qhzVwkWx,NA,NA,qhzVwkWx,2020-0188,2021-09-22,11:58:07,13:06:27,NA,incomplete,false,NA,true,5,15,NA,left,E33_Q5_ansR.png,E33_Q6_ansR.png,within,NA,NaN,NA,left,3643.5,1,1,1036.2999999523163
qhzVwkWx,NA,NA,qhzVwkWx,2020-0188,2021-09-22,11:58:07,13:06:27,NA,incomplete,false,NA,true,5,16,NA,left,E28_Q8_ansR.png,E28_Q3_ansL.png,within,NA,NaN,NA,left,2685.2000000476837,1,1,1701.2000000476837
qhzVwkWx,NA,NA,qhzVwkWx,2020-0188,2021-09-22,11:58:07,13:06:27,NA,incomplete,false,NA,true,5,17,NA,right,E28_Q10_ansR.png,E28_Q6_ansL.png,within,NA,NaN,NA,right,1629.4000000953674,1,1,1622.7999999523163
qhzVwkWx,NA,NA,qhzVwkWx,2020-0188,2021-09-22,11:58:07,13:06:27,NA,incomplete,false,NA,true,5,18,NA,right,E33_Q10_ansL.png,E33_Q1_ansL.png,within,NA,NaN,NA,right,1335.8000001907349,1,1,1587.8000001907349
qhzVwkWx,NA,NA,qhzVwkWx,2020-0188,2021-09-22,11:58:07,13:06:27,NA,incomplete,false,NA,true,5,19,NA,left,E9_Q8_ansR.png,E9_Q10_ansR.png,within,NA,NaN,NA,left,2113.7999999523163,1,1,1233.3999998569489
qhzVwkWx,NA,NA,qhzVwkWx,2020-0188,2021-09-22,11:58:07,13:06:27,NA,incomplete,false,NA,true,5,20,NA,right,E9_Q1_ansR.png,E9_Q6_ansL.png,within,NA,NaN,NA,right,1078,1,1,1175.5
qhzVwkWx,NA,NA,qhzVwkWx,2020-0188,2021-09-22,11:58:07,13:06:27,NA,incomplete,false,NA,true,5,21,NA,left,E28_Q7_ansR.png,E28_Q1_ansR.png,within,NA,NaN,NA,left,2636.4000000953674,1,1,1646
qhzVwkWx,NA,NA,qhzVwkWx,2020-0188,2021-09-22,11:58:07,13:06:27,NA,incomplete,false,NA,true,5,22,NA,right,E28_Q9_ansL.png,E28_Q3_ansL.png,within,NA,NaN,NA,right,2027.2000000476837,1,0,2919.4000000953674
qhzVwkWx,NA,NA,qhzVwkWx,2020-0188,2021-09-22,11:58:07,13:06:27,NA,incomplete,false,NA,true,5,23,NA,right,E33_Q5_ansR.png,E33_Q8_ansL.png,within,NA,NaN,NA,right,3869,1,1,1249.4000000953674
qhzVwkWx,NA,NA,qhzVwkWx,2020-0188,2021-09-22,11:58:07,13:06:27,NA,incomplete,false,NA,true,5,24,NA,right,E33_Q7_ansL.png,E33_Q9_ansR.png,within,NA,NaN,NA,right,4186.5,1,1,1568.4000000953674
qhzVwkWx,NA,NA,qhzVwkWx,2020-0188,2021-09-22,11:58:07,13:06:27,NA,incomplete,false,NA,true,5,25,NA,left,E33_Q4_ansR.png,E33_Q9_ansR.png,within,NA,NaN,NA,left,2141.899999856949,1,1,1193
qhzVwkWx,NA,NA,qhzVwkWx,2020-0188,2021-09-22,11:58:07,13:06:27,NA,incomplete,false,NA,true,5,26,NA,right,E33_Q2_ansL.png,E28_Q1_ansR.png,between,NA,NaN,NA,right,4231.599999904633,1,2,1101.7999999523163
qhzVwkWx,NA,NA,qhzVwkWx,2020-0188,2021-09-22,11:58:07,13:06:27,NA,incomplete,false,true,NA,6,0,E20_Q10_ansL.png,left,NA,NA,NA,right,1914.29999995232,false,NA,NA,NA,NA,NA
qhzVwkWx,NA,NA,qhzVwkWx,2020-0188,2021-09-22,11:58:07,13:06:27,NA,incomplete,false,true,NA,6,1,E20_Q9_ansR.png,right,NA,NA,NA,right,804.200000047684,true,NA,NA,NA,NA,NA
qhzVwkWx,NA,NA,qhzVwkWx,2020-0188,2021-09-22,11:58:07,13:06:27,NA,incomplete,false,true,NA,6,2,E20_Q5_ansR.png,right,NA,NA,NA,right,1859.5,true,NA,NA,NA,NA,NA
qhzVwkWx,NA,NA,qhzVwkWx,2020-0188,2021-09-22,11:58:07,13:06:27,NA,incomplete,false,true,NA,6,3,E20_Q4_ansR.png,right,NA,NA,NA,right,1261.40000009537,true,NA,NA,NA,NA,NA
qhzVwkWx,NA,NA,qhzVwkWx,2020-0188,2021-09-22,11:58:07,13:06:27,NA,incomplete,false,true,NA,6,4,E20_Q6_ansR.png,right,NA,NA,NA,right,1444.60000014305,true,NA,NA,NA,NA,NA
qhzVwkWx,NA,NA,qhzVwkWx,2020-0188,2021-09-22,11:58:07,13:06:27,NA,incomplete,false,true,NA,6,5,E20_Q1_ansL.png,left,NA,NA,NA,right,1006.29999995232,false,NA,NA,NA,NA,NA
qhzVwkWx,NA,NA,qhzVwkWx,2020-0188,2021-09-22,11:58:07,13:06:27,NA,incomplete,false,true,NA,6,6,E20_Q2_ansL.png,left,NA,NA,NA,left,1629.29999995232,true,NA,NA,NA,NA,NA
qhzVwkWx,NA,NA,qhzVwkWx,2020-0188,2021-09-22,11:58:07,13:06:27,NA,incomplete,false,true,NA,6,7,E20_Q3_ansR.png,right,NA,NA,NA,right,1045.89999985695,true,NA,NA,NA,NA,NA
qhzVwkWx,NA,NA,qhzVwkWx,2020-0188,2021-09-22,11:58:07,13:06:27,NA,incomplete,false,true,NA,6,8,E20_Q8_ansL.png,left,NA,NA,NA,right,1384,false,NA,NA,NA,NA,NA
qhzVwkWx,NA,NA,qhzVwkWx,2020-0188,2021-09-22,11:58:07,13:06:27,NA,incomplete,false,true,NA,6,9,E20_Q7_ansL.png,left,NA,NA,NA,left,1074.79999995232,true,NA,NA,NA,NA,NA
qhzVwkWx,NA,NA,qhzVwkWx,2020-0188,2021-09-22,11:58:07,13:06:27,NA,incomplete,false,true,NA,6,10,E13_Q9_ansR.png,right,NA,NA,NA,right,1485.29999995232,true,NA,NA,NA,NA,NA
qhzVwkWx,NA,NA,qhzVwkWx,2020-0188,2021-09-22,11:58:07,13:06:27,NA,incomplete,false,true,NA,6,11,E13_Q4_ansR.png,right,NA,NA,NA,right,1335.59999990463,true,NA,NA,NA,NA,NA
qhzVwkWx,NA,NA,qhzVwkWx,2020-0188,2021-09-22,11:58:07,13:06:27,NA,incomplete,false,true,NA,6,12,E13_Q8_ansL.png,left,NA,NA,NA,left,901.699999809265,true,NA,NA,NA,NA,NA
qhzVwkWx,NA,NA,qhzVwkWx,2020-0188,2021-09-22,11:58:07,13:06:27,NA,incomplete,false,true,NA,6,13,E13_Q10_ansL.png,left,NA,NA,NA,left,1259.5,true,NA,NA,NA,NA,NA
qhzVwkWx,NA,NA,qhzVwkWx,2020-0188,2021-09-22,11:58:07,13:06:27,NA,incomplete,false,true,NA,6,14,E13_Q5_ansR.png,right,NA,NA,NA,right,1625.20000004768,true,NA,NA,NA,NA,NA
qhzVwkWx,NA,NA,qhzVwkWx,2020-0188,2021-09-22,11:58:07,13:06:27,NA,incomplete,false,true,NA,6,15,E13_Q7_ansL.png,left,NA,NA,NA,left,1368.29999995232,true,NA,NA,NA,NA,NA
qhzVwkWx,NA,NA,qhzVwkWx,2020-0188,2021-09-22,11:58:07,13:06:27,NA,incomplete,false,true,NA,6,16,E13_Q2_ansL.png,left,NA,NA,NA,left,1618,true,NA,NA,NA,NA,NA
qhzVwkWx,NA,NA,qhzVwkWx,2020-0188,2021-09-22,11:58:07,13:06:27,NA,incomplete,false,true,NA,6,17,E13_Q3_ansR.png,right,NA,NA,NA,right,1422.20000004768,true,NA,NA,NA,NA,NA
qhzVwkWx,NA,NA,qhzVwkWx,2020-0188,2021-09-22,11:58:07,13:06:27,NA,incomplete,false,true,NA,6,18,E13_Q1_ansL.png,left,NA,NA,NA,left,1413.89999985695,true,NA,NA,NA,NA,NA
qhzVwkWx,NA,NA,qhzVwkWx,2020-0188,2021-09-22,11:58:07,13:06:27,NA,incomplete,false,true,NA,6,19,E13_Q6_ansR.png,right,NA,NA,NA,right,1234.90000009537,true,NA,NA,NA,NA,NA
qhzVwkWx,NA,NA,qhzVwkWx,2020-0188,2021-09-22,11:58:07,13:06:27,NA,incomplete,false,true,NA,6,20,E5_Q7_ansL.png,left,NA,NA,NA,left,1291.79999995232,true,NA,NA,NA,NA,NA
qhzVwkWx,NA,NA,qhzVwkWx,2020-0188,2021-09-22,11:58:07,13:06:27,NA,incomplete,false,true,NA,6,21,E5_Q3_ansR.png,right,NA,NA,NA,right,1195,true,NA,NA,NA,NA,NA
qhzVwkWx,NA,NA,qhzVwkWx,2020-0188,2021-09-22,11:58:07,13:06:27,NA,incomplete,false,true,NA,6,22,E5_Q6_ansR.png,right,NA,NA,NA,right,1091.59999990463,true,NA,NA,NA,NA,NA
qhzVwkWx,NA,NA,qhzVwkWx,2020-0188,2021-09-22,11:58:07,13:06:27,NA,incomplete,false,true,NA,6,23,E5_Q9_ansR.png,right,NA,NA,NA,right,1180.29999995232,true,NA,NA,NA,NA,NA
qhzVwkWx,NA,NA,qhzVwkWx,2020-0188,2021-09-22,11:58:07,13:06:27,NA,incomplete,false,true,NA,6,24,E5_Q4_ansR.png,right,NA,NA,NA,right,848.600000143051,true,NA,NA,NA,NA,NA
qhzVwkWx,NA,NA,qhzVwkWx,2020-0188,2021-09-22,11:58:07,13:06:27,NA,incomplete,false,true,NA,6,25,E5_Q10_ansR.png,right,NA,NA,NA,right,1054.60000014305,true,NA,NA,NA,NA,NA
qhzVwkWx,NA,NA,qhzVwkWx,2020-0188,2021-09-22,11:58:07,13:06:27,NA,incomplete,false,true,NA,6,26,E5_Q1_ansL.png,left,NA,NA,NA,left,1066.90000009537,true,NA,NA,NA,NA,NA
qhzVwkWx,NA,NA,qhzVwkWx,2020-0188,2021-09-22,11:58:07,13:06:27,NA,incomplete,false,true,NA,6,27,E5_Q2_ansL.png,left,NA,NA,NA,left,1243.5,true,NA,NA,NA,NA,NA
qhzVwkWx,NA,NA,qhzVwkWx,2020-0188,2021-09-22,11:58:07,13:06:27,NA,incomplete,false,true,NA,6,28,E5_Q8_ansL.png,left,NA,NA,NA,left,1204.40000009537,true,NA,NA,NA,NA,NA
qhzVwkWx,NA,NA,qhzVwkWx,2020-0188,2021-09-22,11:58:07,13:06:27,NA,incomplete,false,true,NA,6,29,E5_Q5_ansR.png,right,NA,NA,NA,right,1164,true,NA,NA,NA,NA,NA
qhzVwkWx,NA,NA,qhzVwkWx,2020-0188,2021-09-22,11:58:07,13:06:27,NA,incomplete,false,NA,true,6,0,NA,left,E20_Q9_ansR.png,E20_Q6_ansR.png,within,NA,NaN,NA,left,1602.9000000953674,1,1,1474.5999999046326
qhzVwkWx,NA,NA,qhzVwkWx,2020-0188,2021-09-22,11:58:07,13:06:27,NA,incomplete,false,NA,true,6,1,NA,right,E5_Q1_ansL.png,E5_Q9_ansR.png,within,NA,NaN,NA,right,2648.2999999523163,1,1,1043
qhzVwkWx,NA,NA,qhzVwkWx,2020-0188,2021-09-22,11:58:07,13:06:27,NA,incomplete,false,NA,true,6,2,NA,right,E5_Q4_ansR.png,E5_Q3_ansR.png,within,NA,NaN,NA,right,1393.2000000476837,1,1,1122.2999999523163
qhzVwkWx,NA,NA,qhzVwkWx,2020-0188,2021-09-22,11:58:07,13:06:27,NA,incomplete,false,NA,true,6,3,NA,left,E13_Q4_ansR.png,E13_Q5_ansR.png,within,NA,NaN,NA,left,1277.5999999046326,1,1,1676.1000001430511
qhzVwkWx,NA,NA,qhzVwkWx,2020-0188,2021-09-22,11:58:07,13:06:27,NA,incomplete,false,NA,true,6,4,NA,right,E20_Q4_ansR.png,E20_Q10_ansL.png,within,NA,NaN,NA,right,1446.9000000953674,1,1,1084.7000000476837
qhzVwkWx,NA,NA,qhzVwkWx,2020-0188,2021-09-22,11:58:07,13:06:27,NA,incomplete,false,NA,true,6,5,NA,right,E13_Q10_ansL.png,E13_Q9_ansR.png,within,NA,NaN,NA,right,1191.0999999046326,1,1,1262.0999999046326
qhzVwkWx,NA,NA,qhzVwkWx,2020-0188,2021-09-22,11:58:07,13:06:27,NA,incomplete,false,NA,true,6,6,NA,right,E5_Q8_ansL.png,E5_Q10_ansR.png,within,NA,NaN,NA,right,1043.7000000476837,1,1,1213.3000001907349
qhzVwkWx,NA,NA,qhzVwkWx,2020-0188,2021-09-22,11:58:07,13:06:27,NA,incomplete,false,NA,true,6,7,NA,left,E13_Q6_ansR.png,E5_Q6_ansR.png,between,NA,NaN,NA,left,1581.7000000476837,1,2,1440.4000000953674
qhzVwkWx,NA,NA,qhzVwkWx,2020-0188,2021-09-22,11:58:07,13:06:27,NA,incomplete,false,NA,true,6,8,NA,left,E20_Q6_ansR.png,E20_Q3_ansR.png,within,NA,NaN,NA,left,2278.0999999046326,1,1,1020.9000000953674
qhzVwkWx,NA,NA,qhzVwkWx,2020-0188,2021-09-22,11:58:07,13:06:27,NA,incomplete,false,NA,true,6,9,NA,left,E13_Q3_ansR.png,E5_Q7_ansL.png,between,NA,NaN,NA,left,1596.5,1,2,1531.5
qhzVwkWx,NA,NA,qhzVwkWx,2020-0188,2021-09-22,11:58:07,13:06:27,NA,incomplete,false,NA,true,6,10,NA,right,E20_Q2_ansL.png,E20_Q4_ansR.png,within,NA,NaN,NA,right,2083.0999999046326,1,1,1077.2000000476837
qhzVwkWx,NA,NA,qhzVwkWx,2020-0188,2021-09-22,11:58:07,13:06:27,NA,incomplete,false,NA,true,6,11,NA,left,E5_Q1_ansL.png,E5_Q5_ansR.png,within,NA,NaN,NA,left,2561.800000190735,1,1,1077.0999999046326
qhzVwkWx,NA,NA,qhzVwkWx,2020-0188,2021-09-22,11:58:07,13:06:27,NA,incomplete,false,NA,true,6,12,NA,right,E5_Q10_ansR.png,E5_Q6_ansR.png,within,NA,NaN,NA,right,1106.0999999046326,1,1,1132
qhzVwkWx,NA,NA,qhzVwkWx,2020-0188,2021-09-22,11:58:07,13:06:27,NA,incomplete,false,NA,true,6,13,NA,right,E13_Q2_ansL.png,E13_Q10_ansL.png,within,NA,NaN,NA,right,1339.8000001907349,1,1,1377.5999999046326
qhzVwkWx,NA,NA,qhzVwkWx,2020-0188,2021-09-22,11:58:07,13:06:27,NA,incomplete,false,NA,true,6,14,NA,left,E13_Q5_ansR.png,E13_Q3_ansR.png,within,NA,NaN,NA,left,3795.600000143051,1,1,1215.3999998569489
qhzVwkWx,NA,NA,qhzVwkWx,2020-0188,2021-09-22,11:58:07,13:06:27,NA,incomplete,false,NA,true,6,15,NA,right,E20_Q1_ansL.png,E20_Q5_ansR.png,within,NA,NaN,NA,right,1824.0999999046326,1,1,1344.5
qhzVwkWx,NA,NA,qhzVwkWx,2020-0188,2021-09-22,11:58:07,13:06:27,NA,incomplete,false,NA,true,6,16,NA,left,E20_Q3_ansR.png,E13_Q9_ansR.png,between,NA,NaN,NA,left,1917.9000000953674,1,2,2763.9000000953674
qhzVwkWx,NA,NA,qhzVwkWx,2020-0188,2021-09-22,11:58:07,13:06:27,NA,incomplete,false,NA,true,6,17,NA,right,E13_Q1_ansL.png,E13_Q7_ansL.png,within,NA,NaN,NA,right,1978.3999998569489,1,1,1077
qhzVwkWx,NA,NA,qhzVwkWx,2020-0188,2021-09-22,11:58:07,13:06:27,NA,incomplete,false,NA,true,6,18,NA,right,E20_Q7_ansL.png,E20_Q2_ansL.png,within,NA,NaN,NA,right,1289.5999999046326,1,1,986.7999999523163
qhzVwkWx,NA,NA,qhzVwkWx,2020-0188,2021-09-22,11:58:07,13:06:27,NA,incomplete,false,NA,true,6,19,NA,right,E13_Q4_ansR.png,E20_Q8_ansL.png,between,NA,NaN,NA,right,2320,1,2,2130.4000000953674
qhzVwkWx,NA,NA,qhzVwkWx,2020-0188,2021-09-22,11:58:07,13:06:27,NA,incomplete,false,NA,true,6,20,NA,left,E13_Q8_ansL.png,E13_Q7_ansL.png,within,NA,NaN,NA,left,1491.3999998569489,1,1,1256.2999999523163
qhzVwkWx,NA,NA,qhzVwkWx,2020-0188,2021-09-22,11:58:07,13:06:27,NA,incomplete,false,NA,true,6,21,NA,left,E5_Q7_ansL.png,E5_Q9_ansR.png,within,NA,NaN,NA,left,1238.9000000953674,1,1,1018.5
qhzVwkWx,NA,NA,qhzVwkWx,2020-0188,2021-09-22,11:58:07,13:06:27,NA,incomplete,false,NA,true,6,22,NA,right,E5_Q2_ansL.png,E5_Q4_ansR.png,within,NA,NaN,NA,right,3150.7000000476837,1,1,1134
qhzVwkWx,NA,NA,qhzVwkWx,2020-0188,2021-09-22,11:58:07,13:06:27,NA,incomplete,false,NA,true,6,23,NA,left,E20_Q7_ansL.png,E13_Q8_ansL.png,between,NA,NaN,NA,left,1800.5,1,2,1863.7999999523163
qhzVwkWx,NA,NA,qhzVwkWx,2020-0188,2021-09-22,11:58:07,13:06:27,NA,incomplete,false,NA,true,6,24,NA,right,E20_Q8_ansL.png,E20_Q1_ansL.png,within,NA,NaN,NA,right,1873,1,1,1068.9000000953674
qhzVwkWx,NA,NA,qhzVwkWx,2020-0188,2021-09-22,11:58:07,13:06:27,NA,incomplete,false,NA,true,6,25,NA,left,E13_Q1_ansL.png,E5_Q3_ansR.png,between,NA,NaN,NA,left,1482.8999998569489,1,2,1345.1000001430511
qhzVwkWx,NA,NA,qhzVwkWx,2020-0188,2021-09-22,11:58:07,13:06:27,NA,incomplete,false,NA,true,6,26,NA,right,E13_Q6_ansR.png,E13_Q2_ansL.png,within,NA,NaN,NA,right,3033.2999999523163,1,1,1164.0999999046326
qhzVwkWx,NA,NA,qhzVwkWx,2020-0188,2021-09-22,11:58:07,13:06:27,NA,incomplete,false,true,NA,7,0,E29_Q5_ansR.png,right,NA,NA,NA,right,1618.89999985695,true,NA,NA,NA,NA,NA
qhzVwkWx,NA,NA,qhzVwkWx,2020-0188,2021-09-22,11:58:07,13:06:27,NA,incomplete,false,true,NA,7,1,E29_Q4_ansR.png,right,NA,NA,NA,right,1033.40000009537,true,NA,NA,NA,NA,NA
qhzVwkWx,NA,NA,qhzVwkWx,2020-0188,2021-09-22,11:58:07,13:06:27,NA,incomplete,false,true,NA,7,2,E29_Q1_ansL.png,left,NA,NA,NA,left,1180,true,NA,NA,NA,NA,NA
qhzVwkWx,NA,NA,qhzVwkWx,2020-0188,2021-09-22,11:58:07,13:06:27,NA,incomplete,false,true,NA,7,3,E29_Q6_ansR.png,right,NA,NA,NA,right,1149.29999995232,true,NA,NA,NA,NA,NA
qhzVwkWx,NA,NA,qhzVwkWx,2020-0188,2021-09-22,11:58:07,13:06:27,NA,incomplete,false,true,NA,7,4,E29_Q10_ansL.png,left,NA,NA,NA,left,1083.70000004768,true,NA,NA,NA,NA,NA
qhzVwkWx,NA,NA,qhzVwkWx,2020-0188,2021-09-22,11:58:07,13:06:27,NA,incomplete,false,true,NA,7,5,E29_Q9_ansR.png,right,NA,NA,NA,right,968.899999856949,true,NA,NA,NA,NA,NA
qhzVwkWx,NA,NA,qhzVwkWx,2020-0188,2021-09-22,11:58:07,13:06:27,NA,incomplete,false,true,NA,7,6,E29_Q3_ansR.png,right,NA,NA,NA,right,1245.70000004768,true,NA,NA,NA,NA,NA
qhzVwkWx,NA,NA,qhzVwkWx,2020-0188,2021-09-22,11:58:07,13:06:27,NA,incomplete,false,true,NA,7,7,E29_Q7_ansL.png,left,NA,NA,NA,left,1454.5,true,NA,NA,NA,NA,NA
qhzVwkWx,NA,NA,qhzVwkWx,2020-0188,2021-09-22,11:58:07,13:06:27,NA,incomplete,false,true,NA,7,8,E29_Q8_ansL.png,left,NA,NA,NA,left,1474.29999995232,true,NA,NA,NA,NA,NA
qhzVwkWx,NA,NA,qhzVwkWx,2020-0188,2021-09-22,11:58:07,13:06:27,NA,incomplete,false,true,NA,7,9,E29_Q2_ansL.png,left,NA,NA,NA,left,1209.39999985695,true,NA,NA,NA,NA,NA
qhzVwkWx,NA,NA,qhzVwkWx,2020-0188,2021-09-22,11:58:07,13:06:27,NA,incomplete,false,true,NA,7,10,E17_Q3_ansR.png,right,NA,NA,NA,right,1359.29999995232,true,NA,NA,NA,NA,NA
qhzVwkWx,NA,NA,qhzVwkWx,2020-0188,2021-09-22,11:58:07,13:06:27,NA,incomplete,false,true,NA,7,11,E17_Q7_ansL.png,left,NA,NA,NA,left,843.699999809265,true,NA,NA,NA,NA,NA
qhzVwkWx,NA,NA,qhzVwkWx,2020-0188,2021-09-22,11:58:07,13:06:27,NA,incomplete,false,true,NA,7,12,E17_Q5_ansR.png,right,NA,NA,NA,right,930.700000047684,true,NA,NA,NA,NA,NA
qhzVwkWx,NA,NA,qhzVwkWx,2020-0188,2021-09-22,11:58:07,13:06:27,NA,incomplete,false,true,NA,7,13,E17_Q9_ansR.png,right,NA,NA,NA,right,1287.69999980927,true,NA,NA,NA,NA,NA
qhzVwkWx,NA,NA,qhzVwkWx,2020-0188,2021-09-22,11:58:07,13:06:27,NA,incomplete,false,true,NA,7,14,E17_Q8_ansL.png,left,NA,NA,NA,left,1144.5,true,NA,NA,NA,NA,NA
qhzVwkWx,NA,NA,qhzVwkWx,2020-0188,2021-09-22,11:58:07,13:06:27,NA,incomplete,false,true,NA,7,15,E17_Q6_ansR.png,right,NA,NA,NA,right,1142.5,true,NA,NA,NA,NA,NA
qhzVwkWx,NA,NA,qhzVwkWx,2020-0188,2021-09-22,11:58:07,13:06:27,NA,incomplete,false,true,NA,7,16,E17_Q10_ansL.png,left,NA,NA,NA,left,2119.20000004768,true,NA,NA,NA,NA,NA
qhzVwkWx,NA,NA,qhzVwkWx,2020-0188,2021-09-22,11:58:07,13:06:27,NA,incomplete,false,true,NA,7,17,E17_Q2_ansL.png,left,NA,NA,NA,left,1180.90000009537,true,NA,NA,NA,NA,NA
qhzVwkWx,NA,NA,qhzVwkWx,2020-0188,2021-09-22,11:58:07,13:06:27,NA,incomplete,false,true,NA,7,18,E17_Q4_ansR.png,right,NA,NA,NA,right,1067.5,true,NA,NA,NA,NA,NA
qhzVwkWx,NA,NA,qhzVwkWx,2020-0188,2021-09-22,11:58:07,13:06:27,NA,incomplete,false,true,NA,7,19,E17_Q1_ansL.png,left,NA,NA,NA,left,1107.79999995232,true,NA,NA,NA,NA,NA
qhzVwkWx,NA,NA,qhzVwkWx,2020-0188,2021-09-22,11:58:07,13:06:27,NA,incomplete,false,true,NA,7,20,E31_Q1_ansR.png,right,NA,NA,NA,right,1483.89999985695,true,NA,NA,NA,NA,NA
qhzVwkWx,NA,NA,qhzVwkWx,2020-0188,2021-09-22,11:58:07,13:06:27,NA,incomplete,false,true,NA,7,21,E31_Q3_ansL.png,left,NA,NA,NA,left,2249.29999995232,true,NA,NA,NA,NA,NA
qhzVwkWx,NA,NA,qhzVwkWx,2020-0188,2021-09-22,11:58:07,13:06:27,NA,incomplete,false,true,NA,7,22,E31_Q2_ansR.png,right,NA,NA,NA,right,1242.30000019073,true,NA,NA,NA,NA,NA
qhzVwkWx,NA,NA,qhzVwkWx,2020-0188,2021-09-22,11:58:07,13:06:27,NA,incomplete,false,true,NA,7,23,E31_Q9_ansL.png,left,NA,NA,NA,left,2683.59999990463,true,NA,NA,NA,NA,NA
qhzVwkWx,NA,NA,qhzVwkWx,2020-0188,2021-09-22,11:58:07,13:06:27,NA,incomplete,false,true,NA,7,24,E31_Q6_ansL.png,left,NA,NA,NA,left,1124.09999990463,true,NA,NA,NA,NA,NA
qhzVwkWx,NA,NA,qhzVwkWx,2020-0188,2021-09-22,11:58:07,13:06:27,NA,incomplete,false,true,NA,7,25,E31_Q4_ansL.png,left,NA,NA,NA,left,1024,true,NA,NA,NA,NA,NA
qhzVwkWx,NA,NA,qhzVwkWx,2020-0188,2021-09-22,11:58:07,13:06:27,NA,incomplete,false,true,NA,7,26,E31_Q5_ansL.png,left,NA,NA,NA,left,1253.20000004768,true,NA,NA,NA,NA,NA
qhzVwkWx,NA,NA,qhzVwkWx,2020-0188,2021-09-22,11:58:07,13:06:27,NA,incomplete,false,true,NA,7,27,E31_Q7_ansR.png,right,NA,NA,NA,right,1186.40000009537,true,NA,NA,NA,NA,NA
qhzVwkWx,NA,NA,qhzVwkWx,2020-0188,2021-09-22,11:58:07,13:06:27,NA,incomplete,false,true,NA,7,28,E31_Q8_ansR.png,right,NA,NA,NA,right,936.100000143051,true,NA,NA,NA,NA,NA
qhzVwkWx,NA,NA,qhzVwkWx,2020-0188,2021-09-22,11:58:07,13:06:27,NA,incomplete,false,true,NA,7,29,E31_Q10_ansR.png,right,NA,NA,NA,right,960.5,true,NA,NA,NA,NA,NA
qhzVwkWx,NA,NA,qhzVwkWx,2020-0188,2021-09-22,11:58:07,13:06:27,NA,incomplete,false,NA,true,7,0,NA,right,E29_Q6_ansR.png,E29_Q5_ansR.png,within,NA,NaN,NA,right,2219.2999999523163,1,1,1500.5999999046326
qhzVwkWx,NA,NA,qhzVwkWx,2020-0188,2021-09-22,11:58:07,13:06:27,NA,incomplete,false,NA,true,7,1,NA,left,E17_Q3_ansR.png,E17_Q9_ansR.png,within,NA,NaN,NA,left,2637.2999999523163,1,1,1613.7999999523163
qhzVwkWx,NA,NA,qhzVwkWx,2020-0188,2021-09-22,11:58:07,13:06:27,NA,incomplete,false,NA,true,7,2,NA,right,E17_Q3_ansR.png,E29_Q7_ansL.png,between,NA,NaN,NA,right,898.7999999523163,1,2,1304.0999999046326
qhzVwkWx,NA,NA,qhzVwkWx,2020-0188,2021-09-22,11:58:07,13:06:27,NA,incomplete,false,NA,true,7,3,NA,right,E31_Q1_ansR.png,E17_Q2_ansL.png,between,NA,NaN,NA,right,2618.5,1,2,1147.1000001430511
qhzVwkWx,NA,NA,qhzVwkWx,2020-0188,2021-09-22,11:58:07,13:06:27,NA,incomplete,false,NA,true,7,4,NA,right,E17_Q2_ansL.png,E17_Q8_ansL.png,within,NA,NaN,NA,right,2530.899999856949,1,1,1543.2000000476837
qhzVwkWx,NA,NA,qhzVwkWx,2020-0188,2021-09-22,11:58:07,13:06:27,NA,incomplete,false,NA,true,7,5,NA,right,E17_Q7_ansL.png,E29_Q8_ansL.png,between,NA,NaN,NA,right,3153.2999999523163,1,2,1120.7000000476837
qhzVwkWx,NA,NA,qhzVwkWx,2020-0188,2021-09-22,11:58:07,13:06:27,NA,incomplete,false,NA,true,7,6,NA,right,E17_Q6_ansR.png,E17_Q5_ansR.png,within,NA,NaN,NA,right,2115,1,1,1102
qhzVwkWx,NA,NA,qhzVwkWx,2020-0188,2021-09-22,11:58:07,13:06:27,NA,incomplete,false,NA,true,7,7,NA,right,E31_Q2_ansR.png,E17_Q1_ansL.png,between,NA,NaN,NA,right,980.0999999046326,1,2,1571.5999999046326
qhzVwkWx,NA,NA,qhzVwkWx,2020-0188,2021-09-22,11:58:07,13:06:27,NA,incomplete,false,NA,true,7,8,NA,left,E17_Q4_ansR.png,E31_Q3_ansL.png,between,NA,NaN,NA,left,1247.5,1,2,1424.7999999523163
qhzVwkWx,NA,NA,qhzVwkWx,2020-0188,2021-09-22,11:58:07,13:06:27,NA,incomplete,false,NA,true,7,9,NA,left,E29_Q2_ansL.png,E17_Q5_ansR.png,between,NA,NaN,NA,left,1117,1,2,3146.5
qhzVwkWx,NA,NA,qhzVwkWx,2020-0188,2021-09-22,11:58:07,13:06:27,NA,incomplete,false,NA,true,7,10,NA,right,E31_Q10_ansR.png,E31_Q5_ansL.png,within,NA,NaN,NA,right,3085.2999999523163,1,1,1055.5999999046326
qhzVwkWx,NA,NA,qhzVwkWx,2020-0188,2021-09-22,11:58:07,13:06:27,NA,incomplete,false,NA,true,7,11,NA,right,E29_Q9_ansR.png,E29_Q1_ansL.png,within,NA,NaN,NA,right,1476.7999999523163,1,1,3390.199999809265
qhzVwkWx,NA,NA,qhzVwkWx,2020-0188,2021-09-22,11:58:07,13:06:27,NA,incomplete,false,NA,true,7,12,NA,left,E31_Q9_ansL.png,E31_Q5_ansL.png,within,NA,NaN,NA,left,1809.2000000476837,1,1,1097.6000001430511
qhzVwkWx,NA,NA,qhzVwkWx,2020-0188,2021-09-22,11:58:07,13:06:27,NA,incomplete,false,NA,true,7,13,NA,left,E31_Q3_ansL.png,E31_Q6_ansL.png,within,NA,NaN,NA,left,1304.7000000476837,1,1,695
qhzVwkWx,NA,NA,qhzVwkWx,2020-0188,2021-09-22,11:58:07,13:06:27,NA,incomplete,false,NA,true,7,14,NA,right,E17_Q10_ansL.png,E17_Q9_ansR.png,within,NA,NaN,NA,right,4614.099999904633,1,1,1180.2999999523163
qhzVwkWx,NA,NA,qhzVwkWx,2020-0188,2021-09-22,11:58:07,13:06:27,NA,incomplete,false,NA,true,7,15,NA,left,E29_Q10_ansL.png,E29_Q7_ansL.png,within,NA,NaN,NA,right,1369.7999999523163,0,1,1443.3999998569489
qhzVwkWx,NA,NA,qhzVwkWx,2020-0188,2021-09-22,11:58:07,13:06:27,NA,incomplete,false,NA,true,7,16,NA,left,E31_Q1_ansR.png,E31_Q9_ansL.png,within,NA,NaN,NA,left,1280.5999999046326,1,1,996.8999998569489
qhzVwkWx,NA,NA,qhzVwkWx,2020-0188,2021-09-22,11:58:07,13:06:27,NA,incomplete,false,NA,true,7,17,NA,left,E29_Q9_ansR.png,E29_Q8_ansL.png,within,NA,NaN,NA,right,1022.4000000953674,0,1,1718.6999998092651
qhzVwkWx,NA,NA,qhzVwkWx,2020-0188,2021-09-22,11:58:07,13:06:27,NA,incomplete,false,NA,true,7,18,NA,left,E31_Q6_ansL.png,E31_Q7_ansR.png,within,NA,NaN,NA,right,1500.3000001907349,0,1,1215.5
qhzVwkWx,NA,NA,qhzVwkWx,2020-0188,2021-09-22,11:58:07,13:06:27,NA,incomplete,false,NA,true,7,19,NA,left,E29_Q3_ansR.png,E29_Q2_ansL.png,within,NA,NaN,NA,left,1005.3999998569489,1,1,1547.0999999046326
qhzVwkWx,NA,NA,qhzVwkWx,2020-0188,2021-09-22,11:58:07,13:06:27,NA,incomplete,false,NA,true,7,20,NA,right,E29_Q3_ansR.png,E29_Q6_ansR.png,within,NA,NaN,NA,right,915.5,1,1,1093.5
qhzVwkWx,NA,NA,qhzVwkWx,2020-0188,2021-09-22,11:58:07,13:06:27,NA,incomplete,false,NA,true,7,21,NA,right,E29_Q10_ansL.png,E29_Q4_ansR.png,within,NA,NaN,NA,right,1181.7999999523163,1,1,1215.5
qhzVwkWx,NA,NA,qhzVwkWx,2020-0188,2021-09-22,11:58:07,13:06:27,NA,incomplete,false,NA,true,7,22,NA,right,E31_Q4_ansL.png,E31_Q2_ansR.png,within,NA,NaN,NA,right,1119.2000000476837,1,1,925
qhzVwkWx,NA,NA,qhzVwkWx,2020-0188,2021-09-22,11:58:07,13:06:27,NA,incomplete,false,NA,true,7,23,NA,right,E17_Q1_ansL.png,E17_Q10_ansL.png,within,NA,NaN,NA,left,2660.2999999523163,0,1,973.4000000953674
qhzVwkWx,NA,NA,qhzVwkWx,2020-0188,2021-09-22,11:58:07,13:06:27,NA,incomplete,false,NA,true,7,24,NA,right,E31_Q8_ansR.png,E31_Q4_ansL.png,within,NA,NaN,NA,right,1053.2000000476837,1,1,965.5999999046326
qhzVwkWx,NA,NA,qhzVwkWx,2020-0188,2021-09-22,11:58:07,13:06:27,NA,incomplete,false,NA,true,7,25,NA,left,E17_Q6_ansR.png,E17_Q4_ansR.png,within,NA,NaN,NA,left,2020.5999999046326,1,1,1091.7000000476837
qhzVwkWx,NA,NA,qhzVwkWx,2020-0188,2021-09-22,11:58:07,13:06:27,NA,incomplete,false,NA,true,7,26,NA,right,E17_Q8_ansL.png,E17_Q7_ansL.png,within,NA,NaN,NA,right,950.7999999523163,1,1,1377.6000001430511
qhzVwkWx,NA,NA,qhzVwkWx,2020-0188,2021-09-22,11:58:07,13:06:27,NA,incomplete,false,true,NA,8,0,E32_Q2_ansL.png,left,NA,NA,NA,left,1894.70000004768,true,NA,NA,NA,NA,NA
qhzVwkWx,NA,NA,qhzVwkWx,2020-0188,2021-09-22,11:58:07,13:06:27,NA,incomplete,false,true,NA,8,1,E32_Q9_ansR.png,right,NA,NA,NA,right,931.600000143051,true,NA,NA,NA,NA,NA
qhzVwkWx,NA,NA,qhzVwkWx,2020-0188,2021-09-22,11:58:07,13:06:27,NA,incomplete,false,true,NA,8,2,E32_Q1_ansL.png,left,NA,NA,NA,left,1526.29999995232,true,NA,NA,NA,NA,NA
qhzVwkWx,NA,NA,qhzVwkWx,2020-0188,2021-09-22,11:58:07,13:06:27,NA,incomplete,false,true,NA,8,3,E32_Q3_ansR.png,right,NA,NA,NA,right,881.5,true,NA,NA,NA,NA,NA
qhzVwkWx,NA,NA,qhzVwkWx,2020-0188,2021-09-22,11:58:07,13:06:27,NA,incomplete,false,true,NA,8,4,E32_Q8_ansL.png,left,NA,NA,NA,left,1305.09999990463,true,NA,NA,NA,NA,NA
qhzVwkWx,NA,NA,qhzVwkWx,2020-0188,2021-09-22,11:58:07,13:06:27,NA,incomplete,false,true,NA,8,5,E32_Q5_ansR.png,right,NA,NA,NA,right,1271.09999990463,true,NA,NA,NA,NA,NA
qhzVwkWx,NA,NA,qhzVwkWx,2020-0188,2021-09-22,11:58:07,13:06:27,NA,incomplete,false,true,NA,8,6,E32_Q6_ansR.png,right,NA,NA,NA,right,1443,true,NA,NA,NA,NA,NA
qhzVwkWx,NA,NA,qhzVwkWx,2020-0188,2021-09-22,11:58:07,13:06:27,NA,incomplete,false,true,NA,8,7,E32_Q7_ansL.png,left,NA,NA,NA,left,1236.09999990463,true,NA,NA,NA,NA,NA
qhzVwkWx,NA,NA,qhzVwkWx,2020-0188,2021-09-22,11:58:07,13:06:27,NA,incomplete,false,true,NA,8,8,E32_Q10_ansL.png,left,NA,NA,NA,left,1395.89999985695,true,NA,NA,NA,NA,NA
qhzVwkWx,NA,NA,qhzVwkWx,2020-0188,2021-09-22,11:58:07,13:06:27,NA,incomplete,false,true,NA,8,9,E32_Q4_ansR.png,right,NA,NA,NA,right,1247.19999980927,true,NA,NA,NA,NA,NA
qhzVwkWx,NA,NA,qhzVwkWx,2020-0188,2021-09-22,11:58:07,13:06:27,NA,incomplete,false,true,NA,8,10,E2_Q10_ansL.png,left,NA,NA,NA,left,1845,true,NA,NA,NA,NA,NA
qhzVwkWx,NA,NA,qhzVwkWx,2020-0188,2021-09-22,11:58:07,13:06:27,NA,incomplete,false,true,NA,8,11,E2_Q6_ansL.png,left,NA,NA,NA,left,1050.89999985695,true,NA,NA,NA,NA,NA
qhzVwkWx,NA,NA,qhzVwkWx,2020-0188,2021-09-22,11:58:07,13:06:27,NA,incomplete,false,true,NA,8,12,E2_Q3_ansR.png,right,NA,NA,NA,right,1005,true,NA,NA,NA,NA,NA
qhzVwkWx,NA,NA,qhzVwkWx,2020-0188,2021-09-22,11:58:07,13:06:27,NA,incomplete,false,true,NA,8,13,E2_Q5_ansL.png,left,NA,NA,NA,left,1003.90000009537,true,NA,NA,NA,NA,NA
qhzVwkWx,NA,NA,qhzVwkWx,2020-0188,2021-09-22,11:58:07,13:06:27,NA,incomplete,false,true,NA,8,14,E2_Q2_ansR.png,right,NA,NA,NA,right,1363.5,true,NA,NA,NA,NA,NA
qhzVwkWx,NA,NA,qhzVwkWx,2020-0188,2021-09-22,11:58:07,13:06:27,NA,incomplete,false,true,NA,8,15,E2_Q9_ansL.png,left,NA,NA,NA,left,1052.20000004768,true,NA,NA,NA,NA,NA
qhzVwkWx,NA,NA,qhzVwkWx,2020-0188,2021-09-22,11:58:07,13:06:27,NA,incomplete,false,true,NA,8,16,E2_Q1_ansL.png,left,NA,NA,NA,left,1323.09999990463,true,NA,NA,NA,NA,NA
qhzVwkWx,NA,NA,qhzVwkWx,2020-0188,2021-09-22,11:58:07,13:06:27,NA,incomplete,false,true,NA,8,17,E2_Q4_ansL.png,left,NA,NA,NA,left,1243.19999980927,true,NA,NA,NA,NA,NA
qhzVwkWx,NA,NA,qhzVwkWx,2020-0188,2021-09-22,11:58:07,13:06:27,NA,incomplete,false,true,NA,8,18,E2_Q7_ansR.png,right,NA,NA,NA,right,1251,true,NA,NA,NA,NA,NA
qhzVwkWx,NA,NA,qhzVwkWx,2020-0188,2021-09-22,11:58:07,13:06:27,NA,incomplete,false,true,NA,8,19,E2_Q8_ansR.png,right,NA,NA,NA,right,1368.20000004768,true,NA,NA,NA,NA,NA
qhzVwkWx,NA,NA,qhzVwkWx,2020-0188,2021-09-22,11:58:07,13:06:27,NA,incomplete,false,true,NA,8,20,E3_Q7_ansL.png,left,NA,NA,NA,left,1800.10000014305,true,NA,NA,NA,NA,NA
qhzVwkWx,NA,NA,qhzVwkWx,2020-0188,2021-09-22,11:58:07,13:06:27,NA,incomplete,false,true,NA,8,21,E3_Q2_ansL.png,left,NA,NA,NA,left,1827.60000014305,true,NA,NA,NA,NA,NA
qhzVwkWx,NA,NA,qhzVwkWx,2020-0188,2021-09-22,11:58:07,13:06:27,NA,incomplete,false,true,NA,8,22,E3_Q5_ansR.png,right,NA,NA,NA,right,1154.39999985695,true,NA,NA,NA,NA,NA
qhzVwkWx,NA,NA,qhzVwkWx,2020-0188,2021-09-22,11:58:07,13:06:27,NA,incomplete,false,true,NA,8,23,E3_Q8_ansL.png,left,NA,NA,NA,left,1486.79999995232,true,NA,NA,NA,NA,NA
qhzVwkWx,NA,NA,qhzVwkWx,2020-0188,2021-09-22,11:58:07,13:06:27,NA,incomplete,false,true,NA,8,24,E3_Q3_ansR.png,right,NA,NA,NA,right,1127.39999985695,true,NA,NA,NA,NA,NA
qhzVwkWx,NA,NA,qhzVwkWx,2020-0188,2021-09-22,11:58:07,13:06:27,NA,incomplete,false,true,NA,8,25,E3_Q9_ansL.png,left,NA,NA,NA,left,1305.20000004768,true,NA,NA,NA,NA,NA
qhzVwkWx,NA,NA,qhzVwkWx,2020-0188,2021-09-22,11:58:07,13:06:27,NA,incomplete,false,true,NA,8,26,E3_Q4_ansL.png,left,NA,NA,NA,left,1602.90000009537,true,NA,NA,NA,NA,NA
qhzVwkWx,NA,NA,qhzVwkWx,2020-0188,2021-09-22,11:58:07,13:06:27,NA,incomplete,false,true,NA,8,27,E3_Q10_ansR.png,right,NA,NA,NA,right,1159.79999995232,true,NA,NA,NA,NA,NA
qhzVwkWx,NA,NA,qhzVwkWx,2020-0188,2021-09-22,11:58:07,13:06:27,NA,incomplete,false,true,NA,8,28,E3_Q6_ansR.png,right,NA,NA,NA,right,1503.29999995232,true,NA,NA,NA,NA,NA
qhzVwkWx,NA,NA,qhzVwkWx,2020-0188,2021-09-22,11:58:07,13:06:27,NA,incomplete,false,true,NA,8,29,E3_Q1_ansR.png,right,NA,NA,NA,right,1076.39999985695,true,NA,NA,NA,NA,NA
qhzVwkWx,NA,NA,qhzVwkWx,2020-0188,2021-09-22,11:58:07,13:06:27,NA,incomplete,false,NA,true,8,0,NA,right,E2_Q1_ansL.png,E2_Q5_ansL.png,within,NA,NaN,NA,right,3171.7000000476837,1,1,1382.5
qhzVwkWx,NA,NA,qhzVwkWx,2020-0188,2021-09-22,11:58:07,13:06:27,NA,incomplete,false,NA,true,8,1,NA,left,E2_Q10_ansL.png,E2_Q5_ansL.png,within,NA,NaN,NA,left,1139.9000000953674,1,1,1196.4000000953674
qhzVwkWx,NA,NA,qhzVwkWx,2020-0188,2021-09-22,11:58:07,13:06:27,NA,incomplete,false,NA,true,8,2,NA,left,E3_Q3_ansR.png,E3_Q10_ansR.png,within,NA,NaN,NA,right,2278.2000000476837,0,1,1020
qhzVwkWx,NA,NA,qhzVwkWx,2020-0188,2021-09-22,11:58:07,13:06:27,NA,incomplete,false,NA,true,8,3,NA,left,E32_Q7_ansL.png,E2_Q10_ansL.png,between,NA,NaN,NA,left,1465.7000000476837,1,2,1224.5999999046326
qhzVwkWx,NA,NA,qhzVwkWx,2020-0188,2021-09-22,11:58:07,13:06:27,NA,incomplete,false,NA,true,8,4,NA,left,E2_Q1_ansL.png,E2_Q8_ansR.png,within,NA,NaN,NA,left,1409.9000000953674,1,1,1198.3999998569489
qhzVwkWx,NA,NA,qhzVwkWx,2020-0188,2021-09-22,11:58:07,13:06:27,NA,incomplete,false,NA,true,8,5,NA,left,E3_Q7_ansL.png,E3_Q8_ansL.png,within,NA,NaN,NA,left,1279.0999999046326,1,0,2214.2000000476837
qhzVwkWx,NA,NA,qhzVwkWx,2020-0188,2021-09-22,11:58:07,13:06:27,NA,incomplete,false,NA,true,8,6,NA,right,E2_Q3_ansR.png,E32_Q4_ansR.png,between,NA,NaN,NA,right,1587.7000000476837,1,2,1248.7999999523163
qhzVwkWx,NA,NA,qhzVwkWx,2020-0188,2021-09-22,11:58:07,13:06:27,NA,incomplete,false,NA,true,8,7,NA,left,E3_Q4_ansL.png,E3_Q1_ansR.png,within,NA,NaN,NA,right,3649.4000000953674,0,1,1110.4000000953674
qhzVwkWx,NA,NA,qhzVwkWx,2020-0188,2021-09-22,11:58:07,13:06:27,NA,incomplete,false,NA,true,8,8,NA,left,E32_Q2_ansL.png,E32_Q3_ansR.png,within,NA,NaN,NA,left,1183,1,1,998.3000001907349
qhzVwkWx,NA,NA,qhzVwkWx,2020-0188,2021-09-22,11:58:07,13:06:27,NA,incomplete,false,NA,true,8,9,NA,left,E2_Q4_ansL.png,E3_Q7_ansL.png,between,NA,NaN,NA,left,2095,1,2,2431.399999856949
qhzVwkWx,NA,NA,qhzVwkWx,2020-0188,2021-09-22,11:58:07,13:06:27,NA,incomplete,false,NA,true,8,10,NA,left,E2_Q2_ansR.png,E2_Q4_ansL.png,within,NA,NaN,NA,left,3026.800000190735,1,1,2351.5
qhzVwkWx,NA,NA,qhzVwkWx,2020-0188,2021-09-22,11:58:07,13:06:27,NA,incomplete,false,NA,true,8,11,NA,left,E32_Q1_ansL.png,E32_Q5_ansR.png,within,NA,NaN,NA,left,1692.7000000476837,1,1,1231.4000000953674
qhzVwkWx,NA,NA,qhzVwkWx,2020-0188,2021-09-22,11:58:07,13:06:27,NA,incomplete,false,NA,true,8,12,NA,left,E32_Q6_ansR.png,E32_Q4_ansR.png,within,NA,NaN,NA,left,6156.099999904633,1,1,1807.4000000953674
qhzVwkWx,NA,NA,qhzVwkWx,2020-0188,2021-09-22,11:58:07,13:06:27,NA,incomplete,false,NA,true,8,13,NA,right,E2_Q9_ansL.png,E2_Q3_ansR.png,within,NA,NaN,NA,right,2042.8999998569489,1,1,1531.0999999046326
qhzVwkWx,NA,NA,qhzVwkWx,2020-0188,2021-09-22,11:58:07,13:06:27,NA,incomplete,false,NA,true,8,14,NA,right,E32_Q6_ansR.png,E32_Q3_ansR.png,within,NA,NaN,NA,right,1610.7999999523163,1,1,1124.8999998569489
qhzVwkWx,NA,NA,qhzVwkWx,2020-0188,2021-09-22,11:58:07,13:06:27,NA,incomplete,false,NA,true,8,15,NA,left,E2_Q7_ansR.png,E3_Q2_ansL.png,between,NA,NaN,NA,left,1183.5999999046326,1,2,1953.5999999046326
qhzVwkWx,NA,NA,qhzVwkWx,2020-0188,2021-09-22,11:58:07,13:06:27,NA,incomplete,false,NA,true,8,16,NA,right,E3_Q9_ansL.png,E3_Q5_ansR.png,within,NA,NaN,NA,right,1524.8000001907349,1,1,981
qhzVwkWx,NA,NA,qhzVwkWx,2020-0188,2021-09-22,11:58:07,13:06:27,NA,incomplete,false,NA,true,8,17,NA,left,E2_Q6_ansL.png,E2_Q2_ansR.png,within,NA,NaN,NA,left,1346.4000000953674,1,1,1766.1999998092651
qhzVwkWx,NA,NA,qhzVwkWx,2020-0188,2021-09-22,11:58:07,13:06:27,NA,incomplete,false,NA,true,8,18,NA,right,E32_Q7_ansL.png,E32_Q8_ansL.png,within,NA,NaN,NA,right,1490.7999999523163,1,1,1482.7999999523163
qhzVwkWx,NA,NA,qhzVwkWx,2020-0188,2021-09-22,11:58:07,13:06:27,NA,incomplete,false,NA,true,8,19,NA,left,E32_Q10_ansL.png,E2_Q6_ansL.png,between,NA,NaN,NA,left,3023.5,1,2,1630.2999999523163
qhzVwkWx,NA,NA,qhzVwkWx,2020-0188,2021-09-22,11:58:07,13:06:27,NA,incomplete,false,NA,true,8,20,NA,left,E32_Q9_ansR.png,E32_Q8_ansL.png,within,NA,NaN,NA,left,1094,1,1,1117.9000000953674
qhzVwkWx,NA,NA,qhzVwkWx,2020-0188,2021-09-22,11:58:07,13:06:27,NA,incomplete,false,NA,true,8,21,NA,left,E3_Q2_ansL.png,E3_Q3_ansR.png,within,NA,NaN,NA,left,4022.0999999046326,1,1,1279.5
qhzVwkWx,NA,NA,qhzVwkWx,2020-0188,2021-09-22,11:58:07,13:06:27,NA,incomplete,false,NA,true,8,22,NA,left,E3_Q8_ansL.png,E3_Q4_ansL.png,within,NA,NaN,NA,left,1149.8000001907349,1,1,2049.2000000476837
qhzVwkWx,NA,NA,qhzVwkWx,2020-0188,2021-09-22,11:58:07,13:06:27,NA,incomplete,false,NA,true,8,23,NA,right,E2_Q7_ansR.png,E2_Q9_ansL.png,within,NA,NaN,NA,left,2042.7999999523163,0,1,1222.7000000476837
qhzVwkWx,NA,NA,qhzVwkWx,2020-0188,2021-09-22,11:58:07,13:06:27,NA,incomplete,false,NA,true,8,24,NA,left,E32_Q5_ansR.png,E32_Q10_ansL.png,within,NA,NaN,NA,left,1079.6000001430511,1,1,1302.3999998569489
qhzVwkWx,NA,NA,qhzVwkWx,2020-0188,2021-09-22,11:58:07,13:06:27,NA,incomplete,false,NA,true,8,25,NA,left,E3_Q9_ansL.png,E3_Q6_ansR.png,within,NA,NaN,NA,left,3316.2000000476837,1,1,1206.1999998092651
qhzVwkWx,NA,NA,qhzVwkWx,2020-0188,2021-09-22,11:58:07,13:06:27,NA,incomplete,false,NA,true,8,26,NA,right,E3_Q5_ansR.png,E2_Q8_ansR.png,between,NA,NaN,NA,right,1070.7999999523163,1,2,1558.7000000476837
qhzVwkWx,NA,NA,qhzVwkWx,2020-0188,2021-09-22,11:58:07,13:06:27,NA,incomplete,false,true,NA,9,0,E22_Q3_ansL.png,left,NA,NA,NA,left,1394.70000004768,true,NA,NA,NA,NA,NA
qhzVwkWx,NA,NA,qhzVwkWx,2020-0188,2021-09-22,11:58:07,13:06:27,NA,incomplete,false,true,NA,9,1,E22_Q6_ansL.png,left,NA,NA,NA,left,1118.59999990463,true,NA,NA,NA,NA,NA
qhzVwkWx,NA,NA,qhzVwkWx,2020-0188,2021-09-22,11:58:07,13:06:27,NA,incomplete,false,true,NA,9,2,E22_Q7_ansR.png,right,NA,NA,NA,right,1035.10000014305,true,NA,NA,NA,NA,NA
qhzVwkWx,NA,NA,qhzVwkWx,2020-0188,2021-09-22,11:58:07,13:06:27,NA,incomplete,false,true,NA,9,3,E22_Q2_ansR.png,right,NA,NA,NA,right,983.599999904633,true,NA,NA,NA,NA,NA
qhzVwkWx,NA,NA,qhzVwkWx,2020-0188,2021-09-22,11:58:07,13:06:27,NA,incomplete,false,true,NA,9,4,E22_Q4_ansL.png,left,NA,NA,NA,left,1007.60000014305,true,NA,NA,NA,NA,NA
qhzVwkWx,NA,NA,qhzVwkWx,2020-0188,2021-09-22,11:58:07,13:06:27,NA,incomplete,false,true,NA,9,5,E22_Q9_ansL.png,left,NA,NA,NA,left,881.400000095367,true,NA,NA,NA,NA,NA
qhzVwkWx,NA,NA,qhzVwkWx,2020-0188,2021-09-22,11:58:07,13:06:27,NA,incomplete,false,true,NA,9,6,E22_Q1_ansR.png,right,NA,NA,NA,right,806.799999952316,true,NA,NA,NA,NA,NA
qhzVwkWx,NA,NA,qhzVwkWx,2020-0188,2021-09-22,11:58:07,13:06:27,NA,incomplete,false,true,NA,9,7,E22_Q8_ansR.png,right,NA,NA,NA,right,982.299999952316,true,NA,NA,NA,NA,NA
qhzVwkWx,NA,NA,qhzVwkWx,2020-0188,2021-09-22,11:58:07,13:06:27,NA,incomplete,false,true,NA,9,8,E22_Q10_ansR.png,right,NA,NA,NA,right,907.700000047684,true,NA,NA,NA,NA,NA
qhzVwkWx,NA,NA,qhzVwkWx,2020-0188,2021-09-22,11:58:07,13:06:27,NA,incomplete,false,true,NA,9,9,E22_Q5_ansL.png,left,NA,NA,NA,left,1148.19999980927,true,NA,NA,NA,NA,NA
qhzVwkWx,NA,NA,qhzVwkWx,2020-0188,2021-09-22,11:58:07,13:06:27,NA,incomplete,false,true,NA,9,10,E25_Q5_ansL.png,left,NA,NA,NA,left,3088.40000009537,true,NA,NA,NA,NA,NA
qhzVwkWx,NA,NA,qhzVwkWx,2020-0188,2021-09-22,11:58:07,13:06:27,NA,incomplete,false,true,NA,9,11,E25_Q1_ansR.png,right,NA,NA,NA,right,1548.19999980927,true,NA,NA,NA,NA,NA
qhzVwkWx,NA,NA,qhzVwkWx,2020-0188,2021-09-22,11:58:07,13:06:27,NA,incomplete,false,true,NA,9,12,E25_Q2_ansR.png,right,NA,NA,NA,right,1435.79999995232,true,NA,NA,NA,NA,NA
qhzVwkWx,NA,NA,qhzVwkWx,2020-0188,2021-09-22,11:58:07,13:06:27,NA,incomplete,false,true,NA,9,13,E25_Q10_ansR.png,right,NA,NA,NA,right,1821.70000004768,true,NA,NA,NA,NA,NA
qhzVwkWx,NA,NA,qhzVwkWx,2020-0188,2021-09-22,11:58:07,13:06:27,NA,incomplete,false,true,NA,9,14,E25_Q4_ansL.png,left,NA,NA,NA,left,2040.89999985695,true,NA,NA,NA,NA,NA
qhzVwkWx,NA,NA,qhzVwkWx,2020-0188,2021-09-22,11:58:07,13:06:27,NA,incomplete,false,true,NA,9,15,E25_Q9_ansL.png,left,NA,NA,NA,left,2680.80000019073,true,NA,NA,NA,NA,NA
qhzVwkWx,NA,NA,qhzVwkWx,2020-0188,2021-09-22,11:58:07,13:06:27,NA,incomplete,false,true,NA,9,16,E25_Q7_ansR.png,right,NA,NA,NA,right,1844.39999985695,true,NA,NA,NA,NA,NA
qhzVwkWx,NA,NA,qhzVwkWx,2020-0188,2021-09-22,11:58:07,13:06:27,NA,incomplete,false,true,NA,9,17,E25_Q3_ansL.png,left,NA,NA,NA,right,2686.80000019073,false,NA,NA,NA,NA,NA
qhzVwkWx,NA,NA,qhzVwkWx,2020-0188,2021-09-22,11:58:07,13:06:27,NA,incomplete,false,true,NA,9,18,E25_Q6_ansL.png,left,NA,NA,NA,left,1535.5,true,NA,NA,NA,NA,NA
qhzVwkWx,NA,NA,qhzVwkWx,2020-0188,2021-09-22,11:58:07,13:06:27,NA,incomplete,false,true,NA,9,19,E25_Q8_ansR.png,right,NA,NA,NA,right,1414.10000014305,true,NA,NA,NA,NA,NA
qhzVwkWx,NA,NA,qhzVwkWx,2020-0188,2021-09-22,11:58:07,13:06:27,NA,incomplete,false,true,NA,9,20,E30_Q7_ansL.png,left,NA,NA,NA,right,2291.89999985695,false,NA,NA,NA,NA,NA
qhzVwkWx,NA,NA,qhzVwkWx,2020-0188,2021-09-22,11:58:07,13:06:27,NA,incomplete,false,true,NA,9,21,E30_Q10_ansR.png,right,NA,NA,NA,right,1652.5,true,NA,NA,NA,NA,NA
qhzVwkWx,NA,NA,qhzVwkWx,2020-0188,2021-09-22,11:58:07,13:06:27,NA,incomplete,false,true,NA,9,22,E30_Q6_ansR.png,right,NA,NA,NA,right,1672.90000009537,true,NA,NA,NA,NA,NA
qhzVwkWx,NA,NA,qhzVwkWx,2020-0188,2021-09-22,11:58:07,13:06:27,NA,incomplete,false,true,NA,9,23,E30_Q5_ansR.png,right,NA,NA,NA,right,1404.10000014305,true,NA,NA,NA,NA,NA
qhzVwkWx,NA,NA,qhzVwkWx,2020-0188,2021-09-22,11:58:07,13:06:27,NA,incomplete,false,true,NA,9,24,E30_Q8_ansL.png,left,NA,NA,NA,right,1606.89999985695,false,NA,NA,NA,NA,NA
qhzVwkWx,NA,NA,qhzVwkWx,2020-0188,2021-09-22,11:58:07,13:06:27,NA,incomplete,false,true,NA,9,25,E30_Q2_ansL.png,left,NA,NA,NA,left,1777.70000004768,true,NA,NA,NA,NA,NA
qhzVwkWx,NA,NA,qhzVwkWx,2020-0188,2021-09-22,11:58:07,13:06:27,NA,incomplete,false,true,NA,9,26,E30_Q9_ansL.png,left,NA,NA,NA,left,2332.09999990463,true,NA,NA,NA,NA,NA
qhzVwkWx,NA,NA,qhzVwkWx,2020-0188,2021-09-22,11:58:07,13:06:27,NA,incomplete,false,true,NA,9,27,E30_Q4_ansL.png,left,NA,NA,NA,left,2322.59999990463,true,NA,NA,NA,NA,NA
qhzVwkWx,NA,NA,qhzVwkWx,2020-0188,2021-09-22,11:58:07,13:06:27,NA,incomplete,false,true,NA,9,28,E30_Q3_ansL.png,left,NA,NA,NA,left,2086,true,NA,NA,NA,NA,NA
qhzVwkWx,NA,NA,qhzVwkWx,2020-0188,2021-09-22,11:58:07,13:06:27,NA,incomplete,false,true,NA,9,29,E30_Q1_ansL.png,left,NA,NA,NA,left,2690.69999980927,true,NA,NA,NA,NA,NA
qhzVwkWx,NA,NA,qhzVwkWx,2020-0188,2021-09-22,11:58:07,13:06:27,NA,incomplete,false,NA,true,9,0,NA,right,E25_Q10_ansR.png,E25_Q5_ansL.png,within,NA,NaN,NA,right,2487.800000190735,1,1,1360.9000000953674
qhzVwkWx,NA,NA,qhzVwkWx,2020-0188,2021-09-22,11:58:07,13:06:27,NA,incomplete,false,NA,true,9,1,NA,right,E30_Q10_ansR.png,E25_Q6_ansL.png,between,NA,NaN,NA,right,1505.6000001430511,1,2,1544.1000001430511
qhzVwkWx,NA,NA,qhzVwkWx,2020-0188,2021-09-22,11:58:07,13:06:27,NA,incomplete,false,NA,true,9,2,NA,right,E30_Q7_ansL.png,E25_Q3_ansL.png,between,NA,NaN,NA,right,1450.0999999046326,1,2,1835
qhzVwkWx,NA,NA,qhzVwkWx,2020-0188,2021-09-22,11:58:07,13:06:27,NA,incomplete,false,NA,true,9,3,NA,right,E30_Q9_ansL.png,E30_Q5_ansR.png,within,NA,NaN,NA,right,2154.199999809265,1,1,1236.5999999046326
qhzVwkWx,NA,NA,qhzVwkWx,2020-0188,2021-09-22,11:58:07,13:06:27,NA,incomplete,false,NA,true,9,4,NA,right,E22_Q1_ansR.png,E22_Q2_ansR.png,within,NA,NaN,NA,right,2463.0999999046326,1,1,1312.0999999046326
qhzVwkWx,NA,NA,qhzVwkWx,2020-0188,2021-09-22,11:58:07,13:06:27,NA,incomplete,false,NA,true,9,5,NA,left,E25_Q7_ansR.png,E25_Q8_ansR.png,within,NA,NaN,NA,left,1775.5999999046326,1,1,1467.2000000476837
qhzVwkWx,NA,NA,qhzVwkWx,2020-0188,2021-09-22,11:58:07,13:06:27,NA,incomplete,false,NA,true,9,6,NA,left,E30_Q6_ansR.png,E30_Q2_ansL.png,within,NA,NaN,NA,right,4159.200000047684,0,0,1782.2999999523163
qhzVwkWx,NA,NA,qhzVwkWx,2020-0188,2021-09-22,11:58:07,13:06:27,NA,incomplete,false,NA,true,9,7,NA,right,E25_Q4_ansL.png,E25_Q1_ansR.png,within,NA,NaN,NA,right,1709.6000001430511,1,1,2844.0999999046326
qhzVwkWx,NA,NA,qhzVwkWx,2020-0188,2021-09-22,11:58:07,13:06:27,NA,incomplete,false,NA,true,9,8,NA,left,E22_Q8_ansR.png,E25_Q5_ansL.png,between,NA,NaN,NA,left,2220.7000000476837,1,2,1118.9000000953674
qhzVwkWx,NA,NA,qhzVwkWx,2020-0188,2021-09-22,11:58:07,13:06:27,NA,incomplete,false,NA,true,9,9,NA,right,E30_Q5_ansR.png,E30_Q7_ansL.png,within,NA,NaN,NA,right,1734,1,1,1126.0999999046326
qhzVwkWx,NA,NA,qhzVwkWx,2020-0188,2021-09-22,11:58:07,13:06:27,NA,incomplete,false,NA,true,9,10,NA,left,E25_Q10_ansR.png,E25_Q7_ansR.png,within,NA,NaN,NA,left,4591.400000095367,1,1,1043.3999998569489
qhzVwkWx,NA,NA,qhzVwkWx,2020-0188,2021-09-22,11:58:07,13:06:27,NA,incomplete,false,NA,true,9,11,NA,right,E22_Q4_ansL.png,E22_Q6_ansL.png,within,NA,NaN,NA,right,1351.8999998569489,1,1,1506.9000000953674
qhzVwkWx,NA,NA,qhzVwkWx,2020-0188,2021-09-22,11:58:07,13:06:27,NA,incomplete,false,NA,true,9,12,NA,left,E22_Q3_ansL.png,E22_Q2_ansR.png,within,NA,NaN,NA,left,1240,1,1,1245.5999999046326
