workerId,hitId,assignmentId,subject,studyid,exp_date,exp_start,exp_end,time_start,time_end,practice,encoding,memory,block,trial,stim,answer,left_image,right_image,condition,response,response_time,response_acc,order_response,order_response_time,order_acc,distance_response,distance_response_time
s6uKUrzd,NA,NA,s6uKUrzd,2020-0188,2021-09-21,23:16:47,12:22:23,NA,incomplete,true,true,NA,0,0,E25_Q6_ansL.png,left,NA,NA,NA,left,3170,true,NA,NA,NA,NA,NA
s6uKUrzd,NA,NA,s6uKUrzd,2020-0188,2021-09-21,23:16:47,12:22:23,NA,incomplete,true,true,NA,0,1,E25_Q9_ansL.png,left,NA,NA,NA,none,0,false,NA,NA,NA,NA,NA
s6uKUrzd,NA,NA,s6uKUrzd,2020-0188,2021-09-21,23:16:47,12:22:23,NA,incomplete,true,true,NA,0,2,E25_Q7_ansR.png,right,NA,NA,NA,left,3171,false,NA,NA,NA,NA,NA
s6uKUrzd,NA,NA,s6uKUrzd,2020-0188,2021-09-21,23:16:47,12:22:23,NA,incomplete,true,true,NA,0,3,E25_Q1_ansR.png,right,NA,NA,NA,right,1874,true,NA,NA,NA,NA,NA
s6uKUrzd,NA,NA,s6uKUrzd,2020-0188,2021-09-21,23:16:47,12:22:23,NA,incomplete,true,true,NA,0,4,E25_Q3_ansL.png,left,NA,NA,NA,none,0,false,NA,NA,NA,NA,NA
s6uKUrzd,NA,NA,s6uKUrzd,2020-0188,2021-09-21,23:16:47,12:22:23,NA,incomplete,true,true,NA,0,5,E25_Q5_ansL.png,left,NA,NA,NA,left,2698,true,NA,NA,NA,NA,NA
s6uKUrzd,NA,NA,s6uKUrzd,2020-0188,2021-09-21,23:16:47,12:22:23,NA,incomplete,true,true,NA,0,6,E25_Q4_ansL.png,left,NA,NA,NA,left,2916,true,NA,NA,NA,NA,NA
s6uKUrzd,NA,NA,s6uKUrzd,2020-0188,2021-09-21,23:16:47,12:22:23,NA,incomplete,true,true,NA,0,7,E25_Q10_ansR.png,right,NA,NA,NA,right,2499,true,NA,NA,NA,NA,NA
s6uKUrzd,NA,NA,s6uKUrzd,2020-0188,2021-09-21,23:16:47,12:22:23,NA,incomplete,true,true,NA,0,8,E25_Q2_ansR.png,right,NA,NA,NA,right,1942,true,NA,NA,NA,NA,NA
s6uKUrzd,NA,NA,s6uKUrzd,2020-0188,2021-09-21,23:16:47,12:22:23,NA,incomplete,true,true,NA,0,9,E25_Q8_ansR.png,right,NA,NA,NA,right,1742.99999999994,true,NA,NA,NA,NA,NA
s6uKUrzd,NA,NA,s6uKUrzd,2020-0188,2021-09-21,23:16:47,12:22:23,NA,incomplete,true,true,NA,0,10,E12_Q1_ansL.png,left,NA,NA,NA,right,2743,false,NA,NA,NA,NA,NA
s6uKUrzd,NA,NA,s6uKUrzd,2020-0188,2021-09-21,23:16:47,12:22:23,NA,incomplete,true,true,NA,0,11,E12_Q2_ansL.png,left,NA,NA,NA,left,2030,true,NA,NA,NA,NA,NA
s6uKUrzd,NA,NA,s6uKUrzd,2020-0188,2021-09-21,23:16:47,12:22:23,NA,incomplete,true,true,NA,0,12,E12_Q9_ansR.png,right,NA,NA,NA,right,1232,true,NA,NA,NA,NA,NA
s6uKUrzd,NA,NA,s6uKUrzd,2020-0188,2021-09-21,23:16:47,12:22:23,NA,incomplete,true,true,NA,0,13,E12_Q6_ansR.png,right,NA,NA,NA,right,1587,true,NA,NA,NA,NA,NA
s6uKUrzd,NA,NA,s6uKUrzd,2020-0188,2021-09-21,23:16:47,12:22:23,NA,incomplete,true,true,NA,0,14,E12_Q10_ansL.png,left,NA,NA,NA,left,3439,true,NA,NA,NA,NA,NA
s6uKUrzd,NA,NA,s6uKUrzd,2020-0188,2021-09-21,23:16:47,12:22:23,NA,incomplete,true,true,NA,0,15,E12_Q3_ansR.png,right,NA,NA,NA,none,0,false,NA,NA,NA,NA,NA
s6uKUrzd,NA,NA,s6uKUrzd,2020-0188,2021-09-21,23:16:47,12:22:23,NA,incomplete,true,true,NA,0,16,E12_Q7_ansL.png,left,NA,NA,NA,left,1753,true,NA,NA,NA,NA,NA
s6uKUrzd,NA,NA,s6uKUrzd,2020-0188,2021-09-21,23:16:47,12:22:23,NA,incomplete,true,true,NA,0,17,E12_Q5_ansR.png,right,NA,NA,NA,right,2734,true,NA,NA,NA,NA,NA
s6uKUrzd,NA,NA,s6uKUrzd,2020-0188,2021-09-21,23:16:47,12:22:23,NA,incomplete,true,true,NA,0,18,E12_Q8_ansL.png,left,NA,NA,NA,left,2651.99999999994,true,NA,NA,NA,NA,NA
s6uKUrzd,NA,NA,s6uKUrzd,2020-0188,2021-09-21,23:16:47,12:22:23,NA,incomplete,true,true,NA,0,19,E12_Q4_ansR.png,right,NA,NA,NA,right,1708.99999999994,true,NA,NA,NA,NA,NA
s6uKUrzd,NA,NA,s6uKUrzd,2020-0188,2021-09-21,23:16:47,12:22:23,NA,incomplete,true,true,NA,0,20,E29_Q9_ansR.png,right,NA,NA,NA,right,1596,true,NA,NA,NA,NA,NA
s6uKUrzd,NA,NA,s6uKUrzd,2020-0188,2021-09-21,23:16:47,12:22:23,NA,incomplete,true,true,NA,0,21,E29_Q10_ansL.png,left,NA,NA,NA,left,1433,true,NA,NA,NA,NA,NA
s6uKUrzd,NA,NA,s6uKUrzd,2020-0188,2021-09-21,23:16:47,12:22:23,NA,incomplete,true,true,NA,0,22,E29_Q4_ansR.png,right,NA,NA,NA,right,1807.00000000006,true,NA,NA,NA,NA,NA
s6uKUrzd,NA,NA,s6uKUrzd,2020-0188,2021-09-21,23:16:47,12:22:23,NA,incomplete,true,true,NA,0,23,E29_Q3_ansR.png,right,NA,NA,NA,right,1450.00000000006,true,NA,NA,NA,NA,NA
s6uKUrzd,NA,NA,s6uKUrzd,2020-0188,2021-09-21,23:16:47,12:22:23,NA,incomplete,true,true,NA,0,24,E29_Q5_ansR.png,right,NA,NA,NA,right,1796,true,NA,NA,NA,NA,NA
s6uKUrzd,NA,NA,s6uKUrzd,2020-0188,2021-09-21,23:16:47,12:22:23,NA,incomplete,true,true,NA,0,25,E29_Q1_ansL.png,left,NA,NA,NA,left,1541,true,NA,NA,NA,NA,NA
s6uKUrzd,NA,NA,s6uKUrzd,2020-0188,2021-09-21,23:16:47,12:22:23,NA,incomplete,true,true,NA,0,26,E29_Q7_ansL.png,left,NA,NA,NA,left,1692,true,NA,NA,NA,NA,NA
s6uKUrzd,NA,NA,s6uKUrzd,2020-0188,2021-09-21,23:16:47,12:22:23,NA,incomplete,true,true,NA,0,27,E29_Q8_ansL.png,left,NA,NA,NA,left,1842,true,NA,NA,NA,NA,NA
s6uKUrzd,NA,NA,s6uKUrzd,2020-0188,2021-09-21,23:16:47,12:22:23,NA,incomplete,true,true,NA,0,28,E29_Q6_ansR.png,right,NA,NA,NA,right,1891,true,NA,NA,NA,NA,NA
s6uKUrzd,NA,NA,s6uKUrzd,2020-0188,2021-09-21,23:16:47,12:22:23,NA,incomplete,true,true,NA,0,29,E29_Q2_ansL.png,left,NA,NA,NA,left,1305,true,NA,NA,NA,NA,NA
s6uKUrzd,NA,NA,s6uKUrzd,2020-0188,2021-09-21,23:16:47,12:22:23,NA,incomplete,true,NA,true,0,0,NA,left,E12_Q3_ansR.png,E12_Q8_ansL.png,within,NA,NaN,NA,left,14731,1,1,2139
s6uKUrzd,NA,NA,s6uKUrzd,2020-0188,2021-09-21,23:16:47,12:22:23,NA,incomplete,true,NA,true,0,1,NA,right,E25_Q4_ansL.png,E25_Q1_ansR.png,within,NA,NaN,NA,right,5590,1,1,1842
s6uKUrzd,NA,NA,s6uKUrzd,2020-0188,2021-09-21,23:16:47,12:22:23,NA,incomplete,true,NA,true,0,2,NA,right,E29_Q10_ansL.png,E12_Q8_ansL.png,between,NA,NaN,NA,right,2266.999999999942,1,1,1106
s6uKUrzd,NA,NA,s6uKUrzd,2020-0188,2021-09-21,23:16:47,12:22:23,NA,incomplete,true,NA,true,0,3,NA,left,E29_Q4_ansR.png,E29_Q1_ansL.png,within,NA,NaN,NA,left,12302,1,1,948
s6uKUrzd,NA,NA,s6uKUrzd,2020-0188,2021-09-21,23:16:47,12:22:23,NA,incomplete,true,NA,true,0,4,NA,right,E25_Q2_ansR.png,E25_Q5_ansL.png,within,NA,NaN,NA,left,1834.9999999999418,0,1,865
s6uKUrzd,NA,NA,s6uKUrzd,2020-0188,2021-09-21,23:16:47,12:22:23,NA,incomplete,true,NA,true,0,5,NA,right,E12_Q4_ansR.png,E12_Q7_ansL.png,within,NA,NaN,NA,right,11913,1,1,1692
s6uKUrzd,NA,NA,s6uKUrzd,2020-0188,2021-09-21,23:16:47,12:22:23,NA,incomplete,true,NA,true,0,6,NA,right,E25_Q10_ansR.png,E25_Q3_ansL.png,within,NA,NaN,NA,left,2987,0,1,1122
s6uKUrzd,NA,NA,s6uKUrzd,2020-0188,2021-09-21,23:16:47,12:22:23,NA,incomplete,true,NA,true,0,7,NA,right,E12_Q3_ansR.png,E12_Q9_ansR.png,within,NA,NaN,NA,left,9651,0,1,1473
s6uKUrzd,NA,NA,s6uKUrzd,2020-0188,2021-09-21,23:16:47,12:22:23,NA,incomplete,true,NA,true,0,8,NA,right,E29_Q3_ansR.png,E29_Q9_ansR.png,within,NA,NaN,NA,right,6439.999999999942,1,1,1401
s6uKUrzd,NA,NA,s6uKUrzd,2020-0188,2021-09-21,23:16:47,12:22:23,NA,incomplete,true,NA,true,0,9,NA,right,E12_Q5_ansR.png,E12_Q10_ansL.png,within,NA,NaN,NA,right,2939,1,2,1450
s6uKUrzd,NA,NA,s6uKUrzd,2020-0188,2021-09-21,23:16:47,12:22:23,NA,incomplete,true,NA,true,0,10,NA,left,E12_Q6_ansR.png,E12_Q7_ansL.png,within,NA,NaN,NA,left,1922,1,2,1537.9999999999418
s6uKUrzd,NA,NA,s6uKUrzd,2020-0188,2021-09-21,23:16:47,12:22:23,NA,incomplete,true,NA,true,0,11,NA,right,E12_Q9_ansR.png,E25_Q8_ansR.png,between,NA,NaN,NA,right,1665.9999999999418,1,2,721
s6uKUrzd,NA,NA,s6uKUrzd,2020-0188,2021-09-21,23:16:47,12:22:23,NA,incomplete,true,NA,true,0,12,NA,right,E29_Q8_ansL.png,E29_Q5_ansR.png,within,NA,NaN,NA,right,8926,1,1,929
s6uKUrzd,NA,NA,s6uKUrzd,2020-0188,2021-09-21,23:16:47,12:22:23,NA,incomplete,true,NA,true,0,13,NA,right,E25_Q1_ansR.png,E25_Q6_ansL.png,within,NA,NaN,NA,right,1497,1,1,2458.0000000001164
s6uKUrzd,NA,NA,s6uKUrzd,2020-0188,2021-09-21,23:16:47,12:22:23,NA,incomplete,true,NA,true,0,14,NA,left,E12_Q4_ansR.png,E29_Q4_ansR.png,between,NA,NaN,NA,left,1482,1,3,2049
s6uKUrzd,NA,NA,s6uKUrzd,2020-0188,2021-09-21,23:16:47,12:22:23,NA,incomplete,true,NA,true,0,15,NA,left,E25_Q9_ansL.png,E25_Q3_ansL.png,within,NA,NaN,NA,left,1954,1,1,888
s6uKUrzd,NA,NA,s6uKUrzd,2020-0188,2021-09-21,23:16:47,12:22:23,NA,incomplete,true,NA,true,0,16,NA,right,E29_Q5_ansR.png,E29_Q10_ansL.png,within,NA,NaN,NA,right,8521,1,0,2537
s6uKUrzd,NA,NA,s6uKUrzd,2020-0188,2021-09-21,23:16:47,12:22:23,NA,incomplete,true,NA,true,0,17,NA,left,E25_Q4_ansL.png,E25_Q8_ansR.png,within,NA,NaN,NA,left,1168.9999999998836,1,1,1122
s6uKUrzd,NA,NA,s6uKUrzd,2020-0188,2021-09-21,23:16:47,12:22:23,NA,incomplete,true,NA,true,0,18,NA,left,E25_Q2_ansR.png,E12_Q2_ansL.png,between,NA,NaN,NA,left,2442.0000000001164,1,2,1040.0000000001164
s6uKUrzd,NA,NA,s6uKUrzd,2020-0188,2021-09-21,23:16:47,12:22:23,NA,incomplete,true,NA,true,0,19,NA,left,E25_Q7_ansR.png,E25_Q5_ansL.png,within,NA,NaN,NA,right,2532,0,1,2512
s6uKUrzd,NA,NA,s6uKUrzd,2020-0188,2021-09-21,23:16:47,12:22:23,NA,incomplete,true,NA,true,0,20,NA,right,E29_Q6_ansR.png,E29_Q1_ansL.png,within,NA,NaN,NA,right,9547,1,2,914
s6uKUrzd,NA,NA,s6uKUrzd,2020-0188,2021-09-21,23:16:47,12:22:23,NA,incomplete,true,NA,true,0,21,NA,right,E12_Q6_ansR.png,E12_Q1_ansL.png,within,NA,NaN,NA,left,1793.9999999998836,0,0,1987.0000000001164
s6uKUrzd,NA,NA,s6uKUrzd,2020-0188,2021-09-21,23:16:47,12:22:23,NA,incomplete,true,NA,true,0,22,NA,right,E12_Q1_ansL.png,E25_Q10_ansR.png,between,NA,NaN,NA,right,4500,1,2,3026
s6uKUrzd,NA,NA,s6uKUrzd,2020-0188,2021-09-21,23:16:47,12:22:23,NA,incomplete,true,NA,true,0,23,NA,right,E29_Q7_ansL.png,E29_Q3_ansR.png,within,NA,NaN,NA,right,1818,1,2,1385
s6uKUrzd,NA,NA,s6uKUrzd,2020-0188,2021-09-21,23:16:47,12:22:23,NA,incomplete,true,NA,true,0,24,NA,left,E12_Q2_ansL.png,E12_Q10_ansL.png,within,NA,NaN,NA,left,2002,1,1,1620
s6uKUrzd,NA,NA,s6uKUrzd,2020-0188,2021-09-21,23:16:47,12:22:23,NA,incomplete,true,NA,true,0,25,NA,left,E12_Q5_ansR.png,E29_Q9_ansR.png,between,NA,NaN,NA,left,1322,1,3,1434
s6uKUrzd,NA,NA,s6uKUrzd,2020-0188,2021-09-21,23:16:47,12:22:23,NA,incomplete,true,NA,true,0,26,NA,right,E29_Q2_ansL.png,E29_Q7_ansL.png,within,NA,NaN,NA,right,2276,1,1,1888
s6uKUrzd,NA,NA,s6uKUrzd,2020-0188,2021-09-21,23:16:47,12:22:23,NA,incomplete,false,true,NA,1,0,E22_Q10_ansR.png,right,NA,NA,NA,right,2032,true,NA,NA,NA,NA,NA
s6uKUrzd,NA,NA,s6uKUrzd,2020-0188,2021-09-21,23:16:47,12:22:23,NA,incomplete,false,true,NA,1,1,E22_Q8_ansR.png,right,NA,NA,NA,right,1034,true,NA,NA,NA,NA,NA
s6uKUrzd,NA,NA,s6uKUrzd,2020-0188,2021-09-21,23:16:47,12:22:23,NA,incomplete,false,true,NA,1,2,E22_Q2_ansR.png,right,NA,NA,NA,right,1498.99999999988,true,NA,NA,NA,NA,NA
s6uKUrzd,NA,NA,s6uKUrzd,2020-0188,2021-09-21,23:16:47,12:22:23,NA,incomplete,false,true,NA,1,3,E22_Q1_ansR.png,right,NA,NA,NA,right,1052,true,NA,NA,NA,NA,NA
s6uKUrzd,NA,NA,s6uKUrzd,2020-0188,2021-09-21,23:16:47,12:22:23,NA,incomplete,false,true,NA,1,4,E22_Q7_ansR.png,right,NA,NA,NA,right,1176,true,NA,NA,NA,NA,NA
s6uKUrzd,NA,NA,s6uKUrzd,2020-0188,2021-09-21,23:16:47,12:22:23,NA,incomplete,false,true,NA,1,5,E22_Q6_ansL.png,left,NA,NA,NA,left,1638,true,NA,NA,NA,NA,NA
s6uKUrzd,NA,NA,s6uKUrzd,2020-0188,2021-09-21,23:16:47,12:22:23,NA,incomplete,false,true,NA,1,6,E22_Q9_ansL.png,left,NA,NA,NA,left,1484.00000000012,true,NA,NA,NA,NA,NA
s6uKUrzd,NA,NA,s6uKUrzd,2020-0188,2021-09-21,23:16:47,12:22:23,NA,incomplete,false,true,NA,1,7,E22_Q4_ansL.png,left,NA,NA,NA,left,1504,true,NA,NA,NA,NA,NA
s6uKUrzd,NA,NA,s6uKUrzd,2020-0188,2021-09-21,23:16:47,12:22:23,NA,incomplete,false,true,NA,1,8,E22_Q5_ansL.png,left,NA,NA,NA,left,1636,true,NA,NA,NA,NA,NA
s6uKUrzd,NA,NA,s6uKUrzd,2020-0188,2021-09-21,23:16:47,12:22:23,NA,incomplete,false,true,NA,1,9,E22_Q3_ansL.png,left,NA,NA,NA,left,1399,true,NA,NA,NA,NA,NA
s6uKUrzd,NA,NA,s6uKUrzd,2020-0188,2021-09-21,23:16:47,12:22:23,NA,incomplete,false,true,NA,1,10,E14_Q3_ansR.png,right,NA,NA,NA,right,1372.99999999988,true,NA,NA,NA,NA,NA
s6uKUrzd,NA,NA,s6uKUrzd,2020-0188,2021-09-21,23:16:47,12:22:23,NA,incomplete,false,true,NA,1,11,E14_Q9_ansR.png,right,NA,NA,NA,right,1383.99999999988,true,NA,NA,NA,NA,NA
s6uKUrzd,NA,NA,s6uKUrzd,2020-0188,2021-09-21,23:16:47,12:22:23,NA,incomplete,false,true,NA,1,12,E14_Q5_ansR.png,right,NA,NA,NA,right,1925.99999999988,true,NA,NA,NA,NA,NA
s6uKUrzd,NA,NA,s6uKUrzd,2020-0188,2021-09-21,23:16:47,12:22:23,NA,incomplete,false,true,NA,1,13,E14_Q6_ansR.png,right,NA,NA,NA,right,1136,true,NA,NA,NA,NA,NA
s6uKUrzd,NA,NA,s6uKUrzd,2020-0188,2021-09-21,23:16:47,12:22:23,NA,incomplete,false,true,NA,1,14,E14_Q4_ansR.png,right,NA,NA,NA,right,1024,true,NA,NA,NA,NA,NA
s6uKUrzd,NA,NA,s6uKUrzd,2020-0188,2021-09-21,23:16:47,12:22:23,NA,incomplete,false,true,NA,1,15,E14_Q7_ansL.png,left,NA,NA,NA,left,1912,true,NA,NA,NA,NA,NA
s6uKUrzd,NA,NA,s6uKUrzd,2020-0188,2021-09-21,23:16:47,12:22:23,NA,incomplete,false,true,NA,1,16,E14_Q10_ansL.png,left,NA,NA,NA,left,2197,true,NA,NA,NA,NA,NA
s6uKUrzd,NA,NA,s6uKUrzd,2020-0188,2021-09-21,23:16:47,12:22:23,NA,incomplete,false,true,NA,1,17,E14_Q2_ansL.png,left,NA,NA,NA,left,1145,true,NA,NA,NA,NA,NA
s6uKUrzd,NA,NA,s6uKUrzd,2020-0188,2021-09-21,23:16:47,12:22:23,NA,incomplete,false,true,NA,1,18,E14_Q8_ansL.png,left,NA,NA,NA,left,1226,true,NA,NA,NA,NA,NA
s6uKUrzd,NA,NA,s6uKUrzd,2020-0188,2021-09-21,23:16:47,12:22:23,NA,incomplete,false,true,NA,1,19,E14_Q1_ansL.png,left,NA,NA,NA,left,1524,true,NA,NA,NA,NA,NA
s6uKUrzd,NA,NA,s6uKUrzd,2020-0188,2021-09-21,23:16:47,12:22:23,NA,incomplete,false,true,NA,1,20,E15_Q1_ansL.png,left,NA,NA,NA,none,0,false,NA,NA,NA,NA,NA
s6uKUrzd,NA,NA,s6uKUrzd,2020-0188,2021-09-21,23:16:47,12:22:23,NA,incomplete,false,true,NA,1,21,E15_Q3_ansR.png,right,NA,NA,NA,right,2624,true,NA,NA,NA,NA,NA
s6uKUrzd,NA,NA,s6uKUrzd,2020-0188,2021-09-21,23:16:47,12:22:23,NA,incomplete,false,true,NA,1,22,E15_Q6_ansR.png,right,NA,NA,NA,right,1566.99999999988,true,NA,NA,NA,NA,NA
s6uKUrzd,NA,NA,s6uKUrzd,2020-0188,2021-09-21,23:16:47,12:22:23,NA,incomplete,false,true,NA,1,23,E15_Q10_ansL.png,left,NA,NA,NA,right,2888.99999999988,false,NA,NA,NA,NA,NA
s6uKUrzd,NA,NA,s6uKUrzd,2020-0188,2021-09-21,23:16:47,12:22:23,NA,incomplete,false,true,NA,1,24,E15_Q7_ansL.png,left,NA,NA,NA,right,2795,false,NA,NA,NA,NA,NA
s6uKUrzd,NA,NA,s6uKUrzd,2020-0188,2021-09-21,23:16:47,12:22:23,NA,incomplete,false,true,NA,1,25,E15_Q9_ansR.png,right,NA,NA,NA,left,1380,false,NA,NA,NA,NA,NA
s6uKUrzd,NA,NA,s6uKUrzd,2020-0188,2021-09-21,23:16:47,12:22:23,NA,incomplete,false,true,NA,1,26,E15_Q2_ansL.png,left,NA,NA,NA,left,2977,true,NA,NA,NA,NA,NA
s6uKUrzd,NA,NA,s6uKUrzd,2020-0188,2021-09-21,23:16:47,12:22:23,NA,incomplete,false,true,NA,1,27,E15_Q4_ansR.png,right,NA,NA,NA,none,0,false,NA,NA,NA,NA,NA
s6uKUrzd,NA,NA,s6uKUrzd,2020-0188,2021-09-21,23:16:47,12:22:23,NA,incomplete,false,true,NA,1,28,E15_Q5_ansR.png,right,NA,NA,NA,left,1227,false,NA,NA,NA,NA,NA
s6uKUrzd,NA,NA,s6uKUrzd,2020-0188,2021-09-21,23:16:47,12:22:23,NA,incomplete,false,true,NA,1,29,E15_Q8_ansL.png,left,NA,NA,NA,none,0,false,NA,NA,NA,NA,NA
s6uKUrzd,NA,NA,s6uKUrzd,2020-0188,2021-09-21,23:16:47,12:22:23,NA,incomplete,false,NA,true,1,0,NA,right,E15_Q10_ansL.png,E15_Q1_ansL.png,within,NA,NaN,NA,left,27874940.000000004,0,1,2076.0000000037253
s6uKUrzd,NA,NA,s6uKUrzd,2020-0188,2021-09-21,23:16:47,12:22:23,NA,incomplete,false,NA,true,1,1,NA,right,E14_Q2_ansL.png,E14_Q4_ansR.png,within,NA,NaN,NA,right,24057,1,1,2268
s6uKUrzd,NA,NA,s6uKUrzd,2020-0188,2021-09-21,23:16:47,12:22:23,NA,incomplete,false,NA,true,1,2,NA,left,E22_Q4_ansL.png,E14_Q3_ansR.png,between,NA,NaN,NA,left,4690,1,2,1138
s6uKUrzd,NA,NA,s6uKUrzd,2020-0188,2021-09-21,23:16:47,12:22:23,NA,incomplete,false,NA,true,1,3,NA,right,E15_Q9_ansR.png,E15_Q6_ansR.png,within,NA,NaN,NA,right,8512.999999996275,1,1,1298.0000000037253
s6uKUrzd,NA,NA,s6uKUrzd,2020-0188,2021-09-21,23:16:47,12:22:23,NA,incomplete,false,NA,true,1,4,NA,right,E22_Q3_ansL.png,E22_Q9_ansL.png,within,NA,NaN,NA,right,12411,1,1,1020.0000000037253
s6uKUrzd,NA,NA,s6uKUrzd,2020-0188,2021-09-21,23:16:47,12:22:23,NA,incomplete,false,NA,true,1,5,NA,left,E22_Q6_ansL.png,E22_Q5_ansL.png,within,NA,NaN,NA,left,14456,1,1,1837
s6uKUrzd,NA,NA,s6uKUrzd,2020-0188,2021-09-21,23:16:47,12:22:23,NA,incomplete,false,NA,true,1,6,NA,left,E22_Q7_ansR.png,E22_Q4_ansL.png,within,NA,NaN,NA,right,1773,0,1,1571
s6uKUrzd,NA,NA,s6uKUrzd,2020-0188,2021-09-21,23:16:47,12:22:23,NA,incomplete,false,NA,true,1,7,NA,right,E15_Q2_ansL.png,E15_Q10_ansL.png,within,NA,NaN,NA,right,10005,1,1,995
s6uKUrzd,NA,NA,s6uKUrzd,2020-0188,2021-09-21,23:16:47,12:22:23,NA,incomplete,false,NA,true,1,8,NA,right,E15_Q8_ansL.png,E15_Q2_ansL.png,within,NA,NaN,NA,left,2428,0,1,2156
s6uKUrzd,NA,NA,s6uKUrzd,2020-0188,2021-09-21,23:16:47,12:22:23,NA,incomplete,false,NA,true,1,9,NA,left,E14_Q3_ansR.png,E14_Q6_ansR.png,within,NA,NaN,NA,left,6816,1,1,1291
s6uKUrzd,NA,NA,s6uKUrzd,2020-0188,2021-09-21,23:16:47,12:22:23,NA,incomplete,false,NA,true,1,10,NA,right,E15_Q7_ansL.png,E15_Q3_ansR.png,within,NA,NaN,NA,right,10328,1,1,1193.9999999962747
s6uKUrzd,NA,NA,s6uKUrzd,2020-0188,2021-09-21,23:16:47,12:22:23,NA,incomplete,false,NA,true,1,11,NA,right,E14_Q4_ansR.png,E14_Q9_ansR.png,within,NA,NaN,NA,right,5854.000000003725,1,1,1258
s6uKUrzd,NA,NA,s6uKUrzd,2020-0188,2021-09-21,23:16:47,12:22:23,NA,incomplete,false,NA,true,1,12,NA,right,E15_Q3_ansR.png,E14_Q8_ansL.png,between,NA,NaN,NA,right,2579,1,2,889
s6uKUrzd,NA,NA,s6uKUrzd,2020-0188,2021-09-21,23:16:47,12:22:23,NA,incomplete,false,NA,true,1,13,NA,right,E22_Q7_ansR.png,E22_Q8_ansR.png,within,NA,NaN,NA,left,1475.0000000037253,0,1,778
s6uKUrzd,NA,NA,s6uKUrzd,2020-0188,2021-09-21,23:16:47,12:22:23,NA,incomplete,false,NA,true,1,14,NA,left,E15_Q7_ansL.png,E15_Q4_ansR.png,within,NA,NaN,NA,left,7435,1,1,1973
s6uKUrzd,NA,NA,s6uKUrzd,2020-0188,2021-09-21,23:16:47,12:22:23,NA,incomplete,false,NA,true,1,15,NA,right,E15_Q6_ansR.png,E14_Q1_ansL.png,between,NA,NaN,NA,right,1233,1,2,1137
s6uKUrzd,NA,NA,s6uKUrzd,2020-0188,2021-09-21,23:16:47,12:22:23,NA,incomplete,false,NA,true,1,16,NA,left,E22_Q10_ansR.png,E22_Q1_ansR.png,within,NA,NaN,NA,right,1898,0,1,1139
s6uKUrzd,NA,NA,s6uKUrzd,2020-0188,2021-09-21,23:16:47,12:22:23,NA,incomplete,false,NA,true,1,17,NA,left,E22_Q3_ansL.png,E14_Q5_ansR.png,between,NA,NaN,NA,left,3630.9999999962747,1,1,1194
s6uKUrzd,NA,NA,s6uKUrzd,2020-0188,2021-09-21,23:16:47,12:22:23,NA,incomplete,false,NA,true,1,18,NA,left,E14_Q5_ansR.png,E14_Q7_ansL.png,within,NA,NaN,NA,left,2170.0000000037253,1,1,1174.9999999962747
s6uKUrzd,NA,NA,s6uKUrzd,2020-0188,2021-09-21,23:16:47,12:22:23,NA,incomplete,false,NA,true,1,19,NA,right,E14_Q10_ansL.png,E14_Q6_ansR.png,within,NA,NaN,NA,right,1072,1,0,1484
s6uKUrzd,NA,NA,s6uKUrzd,2020-0188,2021-09-21,23:16:47,12:22:23,NA,incomplete,false,NA,true,1,20,NA,left,E22_Q1_ansR.png,E22_Q9_ansL.png,within,NA,NaN,NA,right,1183,0,1,1026
s6uKUrzd,NA,NA,s6uKUrzd,2020-0188,2021-09-21,23:16:47,12:22:23,NA,incomplete,false,NA,true,1,21,NA,left,E14_Q10_ansL.png,E14_Q1_ansL.png,within,NA,NaN,NA,left,889,1,1,1009
s6uKUrzd,NA,NA,s6uKUrzd,2020-0188,2021-09-21,23:16:47,12:22:23,NA,incomplete,false,NA,true,1,22,NA,left,E15_Q9_ansR.png,E15_Q5_ansR.png,within,NA,NaN,NA,right,1314,0,0,3053
s6uKUrzd,NA,NA,s6uKUrzd,2020-0188,2021-09-21,23:16:47,12:22:23,NA,incomplete,false,NA,true,1,23,NA,right,E14_Q8_ansL.png,E14_Q7_ansL.png,within,NA,NaN,NA,right,936.9999999962747,1,1,1097
s6uKUrzd,NA,NA,s6uKUrzd,2020-0188,2021-09-21,23:16:47,12:22:23,NA,incomplete,false,NA,true,1,24,NA,right,E22_Q6_ansL.png,E22_Q2_ansR.png,within,NA,NaN,NA,right,2740,1,1,769
s6uKUrzd,NA,NA,s6uKUrzd,2020-0188,2021-09-21,23:16:47,12:22:23,NA,incomplete,false,NA,true,1,25,NA,right,E15_Q1_ansL.png,E14_Q2_ansL.png,between,NA,NaN,NA,right,1305,1,2,1578
s6uKUrzd,NA,NA,s6uKUrzd,2020-0188,2021-09-21,23:16:47,12:22:23,NA,incomplete,false,NA,true,1,26,NA,left,E22_Q5_ansL.png,E14_Q9_ansR.png,between,NA,NaN,NA,right,1241,0,2,2227.0000000037253
s6uKUrzd,NA,NA,s6uKUrzd,2020-0188,2021-09-21,23:16:47,12:22:23,NA,incomplete,false,true,NA,2,0,E27_Q4_ansR.png,right,NA,NA,NA,none,0,false,NA,NA,NA,NA,NA
s6uKUrzd,NA,NA,s6uKUrzd,2020-0188,2021-09-21,23:16:47,12:22:23,NA,incomplete,false,true,NA,2,1,E27_Q3_ansR.png,right,NA,NA,NA,right,3097,true,NA,NA,NA,NA,NA
s6uKUrzd,NA,NA,s6uKUrzd,2020-0188,2021-09-21,23:16:47,12:22:23,NA,incomplete,false,true,NA,2,2,E27_Q6_ansR.png,right,NA,NA,NA,right,2238,true,NA,NA,NA,NA,NA
s6uKUrzd,NA,NA,s6uKUrzd,2020-0188,2021-09-21,23:16:47,12:22:23,NA,incomplete,false,true,NA,2,3,E27_Q8_ansL.png,left,NA,NA,NA,left,1906,true,NA,NA,NA,NA,NA
s6uKUrzd,NA,NA,s6uKUrzd,2020-0188,2021-09-21,23:16:47,12:22:23,NA,incomplete,false,true,NA,2,4,E27_Q7_ansL.png,left,NA,NA,NA,left,1308,true,NA,NA,NA,NA,NA
s6uKUrzd,NA,NA,s6uKUrzd,2020-0188,2021-09-21,23:16:47,12:22:23,NA,incomplete,false,true,NA,2,5,E27_Q10_ansL.png,left,NA,NA,NA,left,1361,true,NA,NA,NA,NA,NA
s6uKUrzd,NA,NA,s6uKUrzd,2020-0188,2021-09-21,23:16:47,12:22:23,NA,incomplete,false,true,NA,2,6,E27_Q9_ansR.png,right,NA,NA,NA,right,1504,true,NA,NA,NA,NA,NA
s6uKUrzd,NA,NA,s6uKUrzd,2020-0188,2021-09-21,23:16:47,12:22:23,NA,incomplete,false,true,NA,2,7,E27_Q1_ansL.png,left,NA,NA,NA,left,1519,true,NA,NA,NA,NA,NA
s6uKUrzd,NA,NA,s6uKUrzd,2020-0188,2021-09-21,23:16:47,12:22:23,NA,incomplete,false,true,NA,2,8,E27_Q2_ansL.png,left,NA,NA,NA,left,1301,true,NA,NA,NA,NA,NA
s6uKUrzd,NA,NA,s6uKUrzd,2020-0188,2021-09-21,23:16:47,12:22:23,NA,incomplete,false,true,NA,2,9,E27_Q5_ansR.png,right,NA,NA,NA,right,1793.00000000373,true,NA,NA,NA,NA,NA
s6uKUrzd,NA,NA,s6uKUrzd,2020-0188,2021-09-21,23:16:47,12:22:23,NA,incomplete,false,true,NA,2,10,E16_Q6_ansL.png,left,NA,NA,NA,left,2047,true,NA,NA,NA,NA,NA
s6uKUrzd,NA,NA,s6uKUrzd,2020-0188,2021-09-21,23:16:47,12:22:23,NA,incomplete,false,true,NA,2,11,E16_Q5_ansL.png,left,NA,NA,NA,left,2355,true,NA,NA,NA,NA,NA
s6uKUrzd,NA,NA,s6uKUrzd,2020-0188,2021-09-21,23:16:47,12:22:23,NA,incomplete,false,true,NA,2,12,E16_Q1_ansR.png,right,NA,NA,NA,right,1220.00000000373,true,NA,NA,NA,NA,NA
s6uKUrzd,NA,NA,s6uKUrzd,2020-0188,2021-09-21,23:16:47,12:22:23,NA,incomplete,false,true,NA,2,13,E16_Q7_ansR.png,right,NA,NA,NA,right,1583,true,NA,NA,NA,NA,NA
s6uKUrzd,NA,NA,s6uKUrzd,2020-0188,2021-09-21,23:16:47,12:22:23,NA,incomplete,false,true,NA,2,14,E16_Q2_ansR.png,right,NA,NA,NA,none,0,false,NA,NA,NA,NA,NA
s6uKUrzd,NA,NA,s6uKUrzd,2020-0188,2021-09-21,23:16:47,12:22:23,NA,incomplete,false,true,NA,2,15,E16_Q4_ansL.png,left,NA,NA,NA,none,0,false,NA,NA,NA,NA,NA
s6uKUrzd,NA,NA,s6uKUrzd,2020-0188,2021-09-21,23:16:47,12:22:23,NA,incomplete,false,true,NA,2,16,E16_Q8_ansR.png,right,NA,NA,NA,right,1896,true,NA,NA,NA,NA,NA
s6uKUrzd,NA,NA,s6uKUrzd,2020-0188,2021-09-21,23:16:47,12:22:23,NA,incomplete,false,true,NA,2,17,E16_Q3_ansL.png,left,NA,NA,NA,left,2570,true,NA,NA,NA,NA,NA
s6uKUrzd,NA,NA,s6uKUrzd,2020-0188,2021-09-21,23:16:47,12:22:23,NA,incomplete,false,true,NA,2,18,E16_Q10_ansR.png,right,NA,NA,NA,right,2293,true,NA,NA,NA,NA,NA
s6uKUrzd,NA,NA,s6uKUrzd,2020-0188,2021-09-21,23:16:47,12:22:23,NA,incomplete,false,true,NA,2,19,E16_Q9_ansL.png,left,NA,NA,NA,left,1709.00000000373,true,NA,NA,NA,NA,NA
s6uKUrzd,NA,NA,s6uKUrzd,2020-0188,2021-09-21,23:16:47,12:22:23,NA,incomplete,false,true,NA,2,20,E26_Q9_ansR.png,right,NA,NA,NA,none,0,false,NA,NA,NA,NA,NA
s6uKUrzd,NA,NA,s6uKUrzd,2020-0188,2021-09-21,23:16:47,12:22:23,NA,incomplete,false,true,NA,2,21,E26_Q2_ansL.png,left,NA,NA,NA,left,1934,true,NA,NA,NA,NA,NA
s6uKUrzd,NA,NA,s6uKUrzd,2020-0188,2021-09-21,23:16:47,12:22:23,NA,incomplete,false,true,NA,2,22,E26_Q4_ansR.png,right,NA,NA,NA,none,0,false,NA,NA,NA,NA,NA
s6uKUrzd,NA,NA,s6uKUrzd,2020-0188,2021-09-21,23:16:47,12:22:23,NA,incomplete,false,true,NA,2,23,E26_Q7_ansL.png,left,NA,NA,NA,none,0,false,NA,NA,NA,NA,NA
s6uKUrzd,NA,NA,s6uKUrzd,2020-0188,2021-09-21,23:16:47,12:22:23,NA,incomplete,false,true,NA,2,24,E26_Q10_ansL.png,left,NA,NA,NA,none,0,false,NA,NA,NA,NA,NA
s6uKUrzd,NA,NA,s6uKUrzd,2020-0188,2021-09-21,23:16:47,12:22:23,NA,incomplete,false,true,NA,2,25,E26_Q5_ansR.png,right,NA,NA,NA,none,0,false,NA,NA,NA,NA,NA
s6uKUrzd,NA,NA,s6uKUrzd,2020-0188,2021-09-21,23:16:47,12:22:23,NA,incomplete,false,true,NA,2,26,E26_Q6_ansR.png,right,NA,NA,NA,none,0,false,NA,NA,NA,NA,NA
s6uKUrzd,NA,NA,s6uKUrzd,2020-0188,2021-09-21,23:16:47,12:22:23,NA,incomplete,false,true,NA,2,27,E26_Q8_ansL.png,left,NA,NA,NA,none,0,false,NA,NA,NA,NA,NA
s6uKUrzd,NA,NA,s6uKUrzd,2020-0188,2021-09-21,23:16:47,12:22:23,NA,incomplete,false,true,NA,2,28,E26_Q3_ansR.png,right,NA,NA,NA,right,1998,true,NA,NA,NA,NA,NA
s6uKUrzd,NA,NA,s6uKUrzd,2020-0188,2021-09-21,23:16:47,12:22:23,NA,incomplete,false,true,NA,2,29,E26_Q1_ansL.png,left,NA,NA,NA,left,1497,true,NA,NA,NA,NA,NA
s6uKUrzd,NA,NA,s6uKUrzd,2020-0188,2021-09-21,23:16:47,12:22:23,NA,incomplete,false,NA,true,2,0,NA,left,E27_Q6_ansR.png,E27_Q10_ansL.png,within,NA,NaN,NA,right,6433.999999996275,0,1,930
s6uKUrzd,NA,NA,s6uKUrzd,2020-0188,2021-09-21,23:16:47,12:22:23,NA,incomplete,false,NA,true,2,1,NA,left,E27_Q8_ansL.png,E27_Q9_ansR.png,within,NA,NaN,NA,right,1249,0,1,1474
s6uKUrzd,NA,NA,s6uKUrzd,2020-0188,2021-09-21,23:16:47,12:22:23,NA,incomplete,false,NA,true,2,2,NA,right,E16_Q10_ansR.png,E16_Q4_ansL.png,within,NA,NaN,NA,right,2041,1,1,1637.0000000037253
s6uKUrzd,NA,NA,s6uKUrzd,2020-0188,2021-09-21,23:16:47,12:22:23,NA,incomplete,false,NA,true,2,3,NA,right,E27_Q5_ansR.png,E27_Q9_ansR.png,within,NA,NaN,NA,right,1064.0000000037253,1,1,3103
s6uKUrzd,NA,NA,s6uKUrzd,2020-0188,2021-09-21,23:16:47,12:22:23,NA,incomplete,false,NA,true,2,4,NA,left,E27_Q4_ansR.png,E27_Q8_ansL.png,within,NA,NaN,NA,right,1457.0000000037253,0,1,792.0000000037253
s6uKUrzd,NA,NA,s6uKUrzd,2020-0188,2021-09-21,23:16:47,12:22:23,NA,incomplete,false,NA,true,2,5,NA,left,E16_Q5_ansL.png,E16_Q2_ansR.png,within,NA,NaN,NA,right,3120,0,1,939.0000000037253
s6uKUrzd,NA,NA,s6uKUrzd,2020-0188,2021-09-21,23:16:47,12:22:23,NA,incomplete,false,NA,true,2,6,NA,right,E26_Q2_ansL.png,E16_Q10_ansR.png,between,NA,NaN,NA,right,3982,1,2,1043
s6uKUrzd,NA,NA,s6uKUrzd,2020-0188,2021-09-21,23:16:47,12:22:23,NA,incomplete,false,NA,true,2,7,NA,left,E27_Q1_ansL.png,E16_Q6_ansL.png,between,NA,NaN,NA,right,1208.9999999962747,0,2,3013
s6uKUrzd,NA,NA,s6uKUrzd,2020-0188,2021-09-21,23:16:47,12:22:23,NA,incomplete,false,NA,true,2,8,NA,left,E16_Q7_ansR.png,E16_Q8_ansR.png,within,NA,NaN,NA,right,1328,0,1,2002
s6uKUrzd,NA,NA,s6uKUrzd,2020-0188,2021-09-21,23:16:47,12:22:23,NA,incomplete,false,NA,true,2,9,NA,left,E26_Q2_ansL.png,E26_Q10_ansL.png,within,NA,NaN,NA,left,1058.0000000037253,1,1,1058
s6uKUrzd,NA,NA,s6uKUrzd,2020-0188,2021-09-21,23:16:47,12:22:23,NA,incomplete,false,NA,true,2,10,NA,left,E26_Q7_ansL.png,E26_Q6_ansR.png,within,NA,NaN,NA,right,2216.9999999962747,0,1,1003
s6uKUrzd,NA,NA,s6uKUrzd,2020-0188,2021-09-21,23:16:47,12:22:23,NA,incomplete,false,NA,true,2,11,NA,left,E26_Q5_ansR.png,E26_Q3_ansR.png,within,NA,NaN,NA,right,1141,0,1,1000
s6uKUrzd,NA,NA,s6uKUrzd,2020-0188,2021-09-21,23:16:47,12:22:23,NA,incomplete,false,NA,true,2,12,NA,right,E16_Q4_ansL.png,E16_Q1_ansR.png,within,NA,NaN,NA,left,1353,0,1,1307
s6uKUrzd,NA,NA,s6uKUrzd,2020-0188,2021-09-21,23:16:47,12:22:23,NA,incomplete,false,NA,true,2,13,NA,left,E27_Q2_ansL.png,E16_Q5_ansL.png,between,NA,NaN,NA,right,1138.0000000037253,0,1,735
s6uKUrzd,NA,NA,s6uKUrzd,2020-0188,2021-09-21,23:16:47,12:22:23,NA,incomplete,false,NA,true,2,14,NA,right,E16_Q1_ansR.png,E27_Q5_ansR.png,between,NA,NaN,NA,right,1128,1,1,657
s6uKUrzd,NA,NA,s6uKUrzd,2020-0188,2021-09-21,23:16:47,12:22:23,NA,incomplete,false,NA,true,2,15,NA,left,E26_Q10_ansL.png,E26_Q8_ansL.png,within,NA,NaN,NA,left,1585.0000000037253,1,0,987
s6uKUrzd,NA,NA,s6uKUrzd,2020-0188,2021-09-21,23:16:47,12:22:23,NA,incomplete,false,NA,true,2,16,NA,right,E27_Q1_ansL.png,E27_Q7_ansL.png,within,NA,NaN,NA,left,842.0000000037253,0,0,1242
s6uKUrzd,NA,NA,s6uKUrzd,2020-0188,2021-09-21,23:16:47,12:22:23,NA,incomplete,false,NA,true,2,17,NA,right,E16_Q7_ansR.png,E16_Q6_ansL.png,within,NA,NaN,NA,left,1658.0000000037253,0,0,1332.0000000037253
s6uKUrzd,NA,NA,s6uKUrzd,2020-0188,2021-09-21,23:16:47,12:22:23,NA,incomplete,false,NA,true,2,18,NA,right,E26_Q4_ansR.png,E16_Q9_ansL.png,between,NA,NaN,NA,right,2274.9999999962747,1,2,2444.0000000037253
s6uKUrzd,NA,NA,s6uKUrzd,2020-0188,2021-09-21,23:16:47,12:22:23,NA,incomplete,false,NA,true,2,19,NA,right,E16_Q9_ansL.png,E16_Q8_ansR.png,within,NA,NaN,NA,right,922,1,1,1480
s6uKUrzd,NA,NA,s6uKUrzd,2020-0188,2021-09-21,23:16:47,12:22:23,NA,incomplete,false,NA,true,2,20,NA,right,E26_Q9_ansR.png,E16_Q3_ansL.png,between,NA,NaN,NA,right,1442,1,1,1267
s6uKUrzd,NA,NA,s6uKUrzd,2020-0188,2021-09-21,23:16:47,12:22:23,NA,incomplete,false,NA,true,2,21,NA,right,E26_Q1_ansL.png,E26_Q6_ansR.png,within,NA,NaN,NA,right,2276,1,1,2124
s6uKUrzd,NA,NA,s6uKUrzd,2020-0188,2021-09-21,23:16:47,12:22:23,NA,incomplete,false,NA,true,2,22,NA,left,E16_Q2_ansR.png,E16_Q3_ansL.png,within,NA,NaN,NA,left,2276.0000000037253,1,1,1522
s6uKUrzd,NA,NA,s6uKUrzd,2020-0188,2021-09-21,23:16:47,12:22:23,NA,incomplete,false,NA,true,2,23,NA,right,E26_Q7_ansL.png,E26_Q9_ansR.png,within,NA,NaN,NA,right,1138.9999999962747,1,1,1080
s6uKUrzd,NA,NA,s6uKUrzd,2020-0188,2021-09-21,23:16:47,12:22:23,NA,incomplete,false,NA,true,2,24,NA,left,E27_Q10_ansL.png,E27_Q2_ansL.png,within,NA,NaN,NA,left,2193.9999999962747,1,1,847.9999999962747
s6uKUrzd,NA,NA,s6uKUrzd,2020-0188,2021-09-21,23:16:47,12:22:23,NA,incomplete,false,NA,true,2,25,NA,left,E27_Q3_ansR.png,E27_Q7_ansL.png,within,NA,NaN,NA,right,736,0,1,1787
s6uKUrzd,NA,NA,s6uKUrzd,2020-0188,2021-09-21,23:16:47,12:22:23,NA,incomplete,false,NA,true,2,26,NA,left,E26_Q4_ansR.png,E26_Q5_ansR.png,within,NA,NaN,NA,left,944,1,0,4311
s6uKUrzd,NA,NA,s6uKUrzd,2020-0188,2021-09-21,23:16:47,12:22:23,NA,incomplete,false,true,NA,3,0,E4_Q5_ansR.png,right,NA,NA,NA,none,0,false,NA,NA,NA,NA,NA
s6uKUrzd,NA,NA,s6uKUrzd,2020-0188,2021-09-21,23:16:47,12:22:23,NA,incomplete,false,true,NA,3,1,E4_Q2_ansL.png,left,NA,NA,NA,left,2026.99999999627,true,NA,NA,NA,NA,NA
s6uKUrzd,NA,NA,s6uKUrzd,2020-0188,2021-09-21,23:16:47,12:22:23,NA,incomplete,false,true,NA,3,2,E4_Q1_ansL.png,left,NA,NA,NA,left,2876,true,NA,NA,NA,NA,NA
s6uKUrzd,NA,NA,s6uKUrzd,2020-0188,2021-09-21,23:16:47,12:22:23,NA,incomplete,false,true,NA,3,3,E4_Q3_ansL.png,left,NA,NA,NA,right,2926.00000000373,false,NA,NA,NA,NA,NA
s6uKUrzd,NA,NA,s6uKUrzd,2020-0188,2021-09-21,23:16:47,12:22:23,NA,incomplete,false,true,NA,3,4,E4_Q7_ansR.png,right,NA,NA,NA,right,3300.00000000373,true,NA,NA,NA,NA,NA
s6uKUrzd,NA,NA,s6uKUrzd,2020-0188,2021-09-21,23:16:47,12:22:23,NA,incomplete,false,true,NA,3,5,E4_Q4_ansL.png,left,NA,NA,NA,left,3286,true,NA,NA,NA,NA,NA
s6uKUrzd,NA,NA,s6uKUrzd,2020-0188,2021-09-21,23:16:47,12:22:23,NA,incomplete,false,true,NA,3,6,E4_Q10_ansR.png,right,NA,NA,NA,none,0,false,NA,NA,NA,NA,NA
s6uKUrzd,NA,NA,s6uKUrzd,2020-0188,2021-09-21,23:16:47,12:22:23,NA,incomplete,false,true,NA,3,7,E4_Q6_ansR.png,right,NA,NA,NA,right,2528,true,NA,NA,NA,NA,NA
s6uKUrzd,NA,NA,s6uKUrzd,2020-0188,2021-09-21,23:16:47,12:22:23,NA,incomplete,false,true,NA,3,8,E4_Q9_ansL.png,left,NA,NA,NA,left,1874,true,NA,NA,NA,NA,NA
s6uKUrzd,NA,NA,s6uKUrzd,2020-0188,2021-09-21,23:16:47,12:22:23,NA,incomplete,false,true,NA,3,9,E4_Q8_ansR.png,right,NA,NA,NA,right,1888,true,NA,NA,NA,NA,NA
s6uKUrzd,NA,NA,s6uKUrzd,2020-0188,2021-09-21,23:16:47,12:22:23,NA,incomplete,false,true,NA,3,10,E3_Q7_ansL.png,left,NA,NA,NA,left,2515,true,NA,NA,NA,NA,NA
s6uKUrzd,NA,NA,s6uKUrzd,2020-0188,2021-09-21,23:16:47,12:22:23,NA,incomplete,false,true,NA,3,11,E3_Q8_ansL.png,left,NA,NA,NA,left,2995,true,NA,NA,NA,NA,NA
s6uKUrzd,NA,NA,s6uKUrzd,2020-0188,2021-09-21,23:16:47,12:22:23,NA,incomplete,false,true,NA,3,12,E3_Q3_ansR.png,right,NA,NA,NA,right,2230,true,NA,NA,NA,NA,NA
s6uKUrzd,NA,NA,s6uKUrzd,2020-0188,2021-09-21,23:16:47,12:22:23,NA,incomplete,false,true,NA,3,13,E3_Q5_ansR.png,right,NA,NA,NA,right,3131,true,NA,NA,NA,NA,NA
s6uKUrzd,NA,NA,s6uKUrzd,2020-0188,2021-09-21,23:16:47,12:22:23,NA,incomplete,false,true,NA,3,14,E3_Q2_ansL.png,left,NA,NA,NA,none,0,false,NA,NA,NA,NA,NA
s6uKUrzd,NA,NA,s6uKUrzd,2020-0188,2021-09-21,23:16:47,12:22:23,NA,incomplete,false,true,NA,3,15,E3_Q10_ansR.png,right,NA,NA,NA,right,1801,true,NA,NA,NA,NA,NA
s6uKUrzd,NA,NA,s6uKUrzd,2020-0188,2021-09-21,23:16:47,12:22:23,NA,incomplete,false,true,NA,3,16,E3_Q9_ansL.png,left,NA,NA,NA,left,1975,true,NA,NA,NA,NA,NA
s6uKUrzd,NA,NA,s6uKUrzd,2020-0188,2021-09-21,23:16:47,12:22:23,NA,incomplete,false,true,NA,3,17,E3_Q4_ansL.png,left,NA,NA,NA,left,2148.00000000373,true,NA,NA,NA,NA,NA
s6uKUrzd,NA,NA,s6uKUrzd,2020-0188,2021-09-21,23:16:47,12:22:23,NA,incomplete,false,true,NA,3,18,E3_Q6_ansR.png,right,NA,NA,NA,right,1729,true,NA,NA,NA,NA,NA
s6uKUrzd,NA,NA,s6uKUrzd,2020-0188,2021-09-21,23:16:47,12:22:23,NA,incomplete,false,true,NA,3,19,E3_Q1_ansR.png,right,NA,NA,NA,right,1636,true,NA,NA,NA,NA,NA
s6uKUrzd,NA,NA,s6uKUrzd,2020-0188,2021-09-21,23:16:47,12:22:23,NA,incomplete,false,true,NA,3,20,E5_Q1_ansL.png,left,NA,NA,NA,left,1991,true,NA,NA,NA,NA,NA
s6uKUrzd,NA,NA,s6uKUrzd,2020-0188,2021-09-21,23:16:47,12:22:23,NA,incomplete,false,true,NA,3,21,E5_Q8_ansL.png,left,NA,NA,NA,left,1866,true,NA,NA,NA,NA,NA
s6uKUrzd,NA,NA,s6uKUrzd,2020-0188,2021-09-21,23:16:47,12:22:23,NA,incomplete,false,true,NA,3,22,E5_Q7_ansL.png,left,NA,NA,NA,left,1497,true,NA,NA,NA,NA,NA
s6uKUrzd,NA,NA,s6uKUrzd,2020-0188,2021-09-21,23:16:47,12:22:23,NA,incomplete,false,true,NA,3,23,E5_Q10_ansR.png,right,NA,NA,NA,right,1502.99999999627,true,NA,NA,NA,NA,NA
s6uKUrzd,NA,NA,s6uKUrzd,2020-0188,2021-09-21,23:16:47,12:22:23,NA,incomplete,false,true,NA,3,24,E5_Q2_ansL.png,left,NA,NA,NA,left,1283.99999999627,true,NA,NA,NA,NA,NA
s6uKUrzd,NA,NA,s6uKUrzd,2020-0188,2021-09-21,23:16:47,12:22:23,NA,incomplete,false,true,NA,3,25,E5_Q6_ansR.png,right,NA,NA,NA,left,1038.99999999627,false,NA,NA,NA,NA,NA
s6uKUrzd,NA,NA,s6uKUrzd,2020-0188,2021-09-21,23:16:47,12:22:23,NA,incomplete,false,true,NA,3,26,E5_Q9_ansR.png,right,NA,NA,NA,right,1452.99999999627,true,NA,NA,NA,NA,NA
s6uKUrzd,NA,NA,s6uKUrzd,2020-0188,2021-09-21,23:16:47,12:22:23,NA,incomplete,false,true,NA,3,27,E5_Q5_ansR.png,right,NA,NA,NA,left,1322.99999999627,false,NA,NA,NA,NA,NA
s6uKUrzd,NA,NA,s6uKUrzd,2020-0188,2021-09-21,23:16:47,12:22:23,NA,incomplete,false,true,NA,3,28,E5_Q3_ansR.png,right,NA,NA,NA,right,1486.99999999627,true,NA,NA,NA,NA,NA
s6uKUrzd,NA,NA,s6uKUrzd,2020-0188,2021-09-21,23:16:47,12:22:23,NA,incomplete,false,true,NA,3,29,E5_Q4_ansR.png,right,NA,NA,NA,right,1099.99999999627,true,NA,NA,NA,NA,NA
s6uKUrzd,NA,NA,s6uKUrzd,2020-0188,2021-09-21,23:16:47,12:22:23,NA,incomplete,false,NA,true,3,0,NA,left,E4_Q10_ansR.png,E4_Q8_ansR.png,within,NA,NaN,NA,left,4326,1,0,1721.0000000037253
s6uKUrzd,NA,NA,s6uKUrzd,2020-0188,2021-09-21,23:16:47,12:22:23,NA,incomplete,false,NA,true,3,1,NA,right,E5_Q4_ansR.png,E5_Q9_ansR.png,within,NA,NaN,NA,right,10371,1,1,1098
s6uKUrzd,NA,NA,s6uKUrzd,2020-0188,2021-09-21,23:16:47,12:22:23,NA,incomplete,false,NA,true,3,2,NA,right,E4_Q6_ansR.png,E4_Q7_ansR.png,within,NA,NaN,NA,right,5286,1,1,1945
s6uKUrzd,NA,NA,s6uKUrzd,2020-0188,2021-09-21,23:16:47,12:22:23,NA,incomplete,false,NA,true,3,3,NA,right,E5_Q10_ansR.png,E5_Q1_ansL.png,within,NA,NaN,NA,right,4446,1,0,1483
s6uKUrzd,NA,NA,s6uKUrzd,2020-0188,2021-09-21,23:16:47,12:22:23,NA,incomplete,false,NA,true,3,4,NA,right,E5_Q7_ansL.png,E3_Q1_ansR.png,between,NA,NaN,NA,right,1625,1,2,1066.9999999962747
s6uKUrzd,NA,NA,s6uKUrzd,2020-0188,2021-09-21,23:16:47,12:22:23,NA,incomplete,false,NA,true,3,5,NA,left,E5_Q8_ansL.png,E5_Q2_ansL.png,within,NA,NaN,NA,left,3797.0000000037253,1,0,3389
s6uKUrzd,NA,NA,s6uKUrzd,2020-0188,2021-09-21,23:16:47,12:22:23,NA,incomplete,false,NA,true,3,6,NA,left,E3_Q2_ansL.png,E3_Q4_ansL.png,within,NA,NaN,NA,left,3107,1,0,1173.0000000037253
s6uKUrzd,NA,NA,s6uKUrzd,2020-0188,2021-09-21,23:16:47,12:22:23,NA,incomplete,false,NA,true,3,7,NA,right,E4_Q7_ansR.png,E4_Q2_ansL.png,within,NA,NaN,NA,right,3283,1,0,968
s6uKUrzd,NA,NA,s6uKUrzd,2020-0188,2021-09-21,23:16:47,12:22:23,NA,incomplete,false,NA,true,3,8,NA,left,E5_Q6_ansR.png,E5_Q3_ansR.png,within,NA,NaN,NA,left,1779,1,0,1266
s6uKUrzd,NA,NA,s6uKUrzd,2020-0188,2021-09-21,23:16:47,12:22:23,NA,incomplete,false,NA,true,3,9,NA,left,E3_Q7_ansL.png,E3_Q5_ansR.png,within,NA,NaN,NA,right,4472.000000003725,0,1,809.9999999962747
s6uKUrzd,NA,NA,s6uKUrzd,2020-0188,2021-09-21,23:16:47,12:22:23,NA,incomplete,false,NA,true,3,10,NA,left,E3_Q4_ansL.png,E5_Q1_ansL.png,between,NA,NaN,NA,left,2051,1,2,1153
s6uKUrzd,NA,NA,s6uKUrzd,2020-0188,2021-09-21,23:16:47,12:22:23,NA,incomplete,false,NA,true,3,11,NA,left,E4_Q5_ansR.png,E4_Q3_ansL.png,within,NA,NaN,NA,right,1859,0,1,1115
s6uKUrzd,NA,NA,s6uKUrzd,2020-0188,2021-09-21,23:16:47,12:22:23,NA,incomplete,false,NA,true,3,12,NA,right,E4_Q4_ansL.png,E4_Q1_ansL.png,within,NA,NaN,NA,right,3139,1,0,1828
s6uKUrzd,NA,NA,s6uKUrzd,2020-0188,2021-09-21,23:16:47,12:22:23,NA,incomplete,false,NA,true,3,13,NA,right,E3_Q8_ansL.png,E4_Q9_ansL.png,between,NA,NaN,NA,right,7065,1,2,1098
s6uKUrzd,NA,NA,s6uKUrzd,2020-0188,2021-09-21,23:16:47,12:22:23,NA,incomplete,false,NA,true,3,14,NA,right,E3_Q9_ansL.png,E3_Q5_ansR.png,within,NA,NaN,NA,left,3876,0,1,969
s6uKUrzd,NA,NA,s6uKUrzd,2020-0188,2021-09-21,23:16:47,12:22:23,NA,incomplete,false,NA,true,3,15,NA,left,E4_Q4_ansL.png,E4_Q9_ansL.png,within,NA,NaN,NA,right,2969,0,0,1436.0000000037253
s6uKUrzd,NA,NA,s6uKUrzd,2020-0188,2021-09-21,23:16:47,12:22:23,NA,incomplete,false,NA,true,3,16,NA,left,E5_Q7_ansL.png,E5_Q6_ansR.png,within,NA,NaN,NA,left,2164,1,0,1092
s6uKUrzd,NA,NA,s6uKUrzd,2020-0188,2021-09-21,23:16:47,12:22:23,NA,incomplete,false,NA,true,3,17,NA,left,E3_Q6_ansR.png,E5_Q8_ansL.png,between,NA,NaN,NA,left,1377.9999999962747,1,1,1041
s6uKUrzd,NA,NA,s6uKUrzd,2020-0188,2021-09-21,23:16:47,12:22:23,NA,incomplete,false,NA,true,3,18,NA,right,E3_Q1_ansR.png,E3_Q9_ansL.png,within,NA,NaN,NA,left,2555,0,1,1251
s6uKUrzd,NA,NA,s6uKUrzd,2020-0188,2021-09-21,23:16:47,12:22:23,NA,incomplete,false,NA,true,3,19,NA,left,E3_Q8_ansL.png,E3_Q2_ansL.png,within,NA,NaN,NA,right,2651,0,1,881
s6uKUrzd,NA,NA,s6uKUrzd,2020-0188,2021-09-21,23:16:47,12:22:23,NA,incomplete,false,NA,true,3,20,NA,right,E4_Q10_ansR.png,E4_Q3_ansL.png,within,NA,NaN,NA,right,4293,1,1,753.0000000037253
s6uKUrzd,NA,NA,s6uKUrzd,2020-0188,2021-09-21,23:16:47,12:22:23,NA,incomplete,false,NA,true,3,21,NA,right,E5_Q9_ansR.png,E5_Q10_ansR.png,within,NA,NaN,NA,left,1899,0,1,805
s6uKUrzd,NA,NA,s6uKUrzd,2020-0188,2021-09-21,23:16:47,12:22:23,NA,incomplete,false,NA,true,3,22,NA,left,E4_Q6_ansR.png,E3_Q7_ansL.png,between,NA,NaN,NA,left,2547.0000000037253,1,2,967.0000000037253
s6uKUrzd,NA,NA,s6uKUrzd,2020-0188,2021-09-21,23:16:47,12:22:23,NA,incomplete,false,NA,true,3,23,NA,left,E3_Q3_ansR.png,E3_Q10_ansR.png,within,NA,NaN,NA,right,4853,0,0,2501
s6uKUrzd,NA,NA,s6uKUrzd,2020-0188,2021-09-21,23:16:47,12:22:23,NA,incomplete,false,NA,true,3,24,NA,right,E3_Q3_ansR.png,E4_Q8_ansR.png,between,NA,NaN,NA,right,1521,1,2,2074
s6uKUrzd,NA,NA,s6uKUrzd,2020-0188,2021-09-21,23:16:47,12:22:23,NA,incomplete,false,NA,true,3,25,NA,right,E3_Q6_ansR.png,E3_Q10_ansR.png,within,NA,NaN,NA,right,3699,1,1,914
s6uKUrzd,NA,NA,s6uKUrzd,2020-0188,2021-09-21,23:16:47,12:22:23,NA,incomplete,false,NA,true,3,26,NA,right,E5_Q5_ansR.png,E5_Q2_ansL.png,within,NA,NaN,NA,right,10971.999999996275,1,1,1148
s6uKUrzd,NA,NA,s6uKUrzd,2020-0188,2021-09-21,23:16:47,12:22:23,NA,incomplete,false,true,NA,4,0,E7_Q9_ansR.png,right,NA,NA,NA,right,1525.99999999627,true,NA,NA,NA,NA,NA
s6uKUrzd,NA,NA,s6uKUrzd,2020-0188,2021-09-21,23:16:47,12:22:23,NA,incomplete,false,true,NA,4,1,E7_Q10_ansR.png,right,NA,NA,NA,right,1556,true,NA,NA,NA,NA,NA
s6uKUrzd,NA,NA,s6uKUrzd,2020-0188,2021-09-21,23:16:47,12:22:23,NA,incomplete,false,true,NA,4,2,E7_Q6_ansR.png,right,NA,NA,NA,right,1233.99999999627,true,NA,NA,NA,NA,NA
s6uKUrzd,NA,NA,s6uKUrzd,2020-0188,2021-09-21,23:16:47,12:22:23,NA,incomplete,false,true,NA,4,3,E7_Q8_ansL.png,left,NA,NA,NA,left,1297,true,NA,NA,NA,NA,NA
s6uKUrzd,NA,NA,s6uKUrzd,2020-0188,2021-09-21,23:16:47,12:22:23,NA,incomplete,false,true,NA,4,4,E7_Q5_ansR.png,right,NA,NA,NA,right,1131,true,NA,NA,NA,NA,NA
s6uKUrzd,NA,NA,s6uKUrzd,2020-0188,2021-09-21,23:16:47,12:22:23,NA,incomplete,false,true,NA,4,5,E7_Q4_ansR.png,right,NA,NA,NA,right,1381,true,NA,NA,NA,NA,NA
s6uKUrzd,NA,NA,s6uKUrzd,2020-0188,2021-09-21,23:16:47,12:22:23,NA,incomplete,false,true,NA,4,6,E7_Q2_ansL.png,left,NA,NA,NA,left,1256,true,NA,NA,NA,NA,NA
s6uKUrzd,NA,NA,s6uKUrzd,2020-0188,2021-09-21,23:16:47,12:22:23,NA,incomplete,false,true,NA,4,7,E7_Q3_ansR.png,right,NA,NA,NA,right,1444,true,NA,NA,NA,NA,NA
s6uKUrzd,NA,NA,s6uKUrzd,2020-0188,2021-09-21,23:16:47,12:22:23,NA,incomplete,false,true,NA,4,8,E7_Q7_ansL.png,left,NA,NA,NA,left,1382,true,NA,NA,NA,NA,NA
s6uKUrzd,NA,NA,s6uKUrzd,2020-0188,2021-09-21,23:16:47,12:22:23,NA,incomplete,false,true,NA,4,9,E7_Q1_ansL.png,left,NA,NA,NA,left,1349.00000000373,true,NA,NA,NA,NA,NA
s6uKUrzd,NA,NA,s6uKUrzd,2020-0188,2021-09-21,23:16:47,12:22:23,NA,incomplete,false,true,NA,4,10,E1_Q1_ansL.png,left,NA,NA,NA,left,2669.00000000373,true,NA,NA,NA,NA,NA
s6uKUrzd,NA,NA,s6uKUrzd,2020-0188,2021-09-21,23:16:47,12:22:23,NA,incomplete,false,true,NA,4,11,E1_Q2_ansL.png,left,NA,NA,NA,left,1812.00000000373,true,NA,NA,NA,NA,NA
s6uKUrzd,NA,NA,s6uKUrzd,2020-0188,2021-09-21,23:16:47,12:22:23,NA,incomplete,false,true,NA,4,12,E1_Q6_ansR.png,right,NA,NA,NA,right,1928,true,NA,NA,NA,NA,NA
s6uKUrzd,NA,NA,s6uKUrzd,2020-0188,2021-09-21,23:16:47,12:22:23,NA,incomplete,false,true,NA,4,13,E1_Q10_ansR.png,right,NA,NA,NA,right,2463,true,NA,NA,NA,NA,NA
s6uKUrzd,NA,NA,s6uKUrzd,2020-0188,2021-09-21,23:16:47,12:22:23,NA,incomplete,false,true,NA,4,14,E1_Q3_ansR.png,right,NA,NA,NA,none,0,false,NA,NA,NA,NA,NA
s6uKUrzd,NA,NA,s6uKUrzd,2020-0188,2021-09-21,23:16:47,12:22:23,NA,incomplete,false,true,NA,4,15,E1_Q9_ansL.png,left,NA,NA,NA,left,1654,true,NA,NA,NA,NA,NA
s6uKUrzd,NA,NA,s6uKUrzd,2020-0188,2021-09-21,23:16:47,12:22:23,NA,incomplete,false,true,NA,4,16,E1_Q8_ansR.png,right,NA,NA,NA,right,2934,true,NA,NA,NA,NA,NA
s6uKUrzd,NA,NA,s6uKUrzd,2020-0188,2021-09-21,23:16:47,12:22:23,NA,incomplete,false,true,NA,4,17,E1_Q5_ansR.png,right,NA,NA,NA,right,1660,true,NA,NA,NA,NA,NA
s6uKUrzd,NA,NA,s6uKUrzd,2020-0188,2021-09-21,23:16:47,12:22:23,NA,incomplete,false,true,NA,4,18,E1_Q7_ansL.png,left,NA,NA,NA,left,2109.00000000373,true,NA,NA,NA,NA,NA
s6uKUrzd,NA,NA,s6uKUrzd,2020-0188,2021-09-21,23:16:47,12:22:23,NA,incomplete,false,true,NA,4,19,E1_Q4_ansL.png,left,NA,NA,NA,left,1989.99999999627,true,NA,NA,NA,NA,NA
s6uKUrzd,NA,NA,s6uKUrzd,2020-0188,2021-09-21,23:16:47,12:22:23,NA,incomplete,false,true,NA,4,20,E21_Q1_ansL.png,left,NA,NA,NA,left,1920.99999999627,true,NA,NA,NA,NA,NA
s6uKUrzd,NA,NA,s6uKUrzd,2020-0188,2021-09-21,23:16:47,12:22:23,NA,incomplete,false,true,NA,4,21,E21_Q2_ansL.png,left,NA,NA,NA,left,1939.99999999627,true,NA,NA,NA,NA,NA
s6uKUrzd,NA,NA,s6uKUrzd,2020-0188,2021-09-21,23:16:47,12:22:23,NA,incomplete,false,true,NA,4,22,E21_Q5_ansR.png,right,NA,NA,NA,right,1441.99999999627,true,NA,NA,NA,NA,NA
s6uKUrzd,NA,NA,s6uKUrzd,2020-0188,2021-09-21,23:16:47,12:22:23,NA,incomplete,false,true,NA,4,23,E21_Q9_ansR.png,right,NA,NA,NA,right,1343.99999999627,true,NA,NA,NA,NA,NA
s6uKUrzd,NA,NA,s6uKUrzd,2020-0188,2021-09-21,23:16:47,12:22:23,NA,incomplete,false,true,NA,4,24,E21_Q10_ansL.png,left,NA,NA,NA,left,1544.99999999627,true,NA,NA,NA,NA,NA
s6uKUrzd,NA,NA,s6uKUrzd,2020-0188,2021-09-21,23:16:47,12:22:23,NA,incomplete,false,true,NA,4,25,E21_Q3_ansR.png,right,NA,NA,NA,right,1185,true,NA,NA,NA,NA,NA
s6uKUrzd,NA,NA,s6uKUrzd,2020-0188,2021-09-21,23:16:47,12:22:23,NA,incomplete,false,true,NA,4,26,E21_Q4_ansR.png,right,NA,NA,NA,right,896,true,NA,NA,NA,NA,NA
s6uKUrzd,NA,NA,s6uKUrzd,2020-0188,2021-09-21,23:16:47,12:22:23,NA,incomplete,false,true,NA,4,27,E21_Q8_ansL.png,left,NA,NA,NA,left,853.000000003725,true,NA,NA,NA,NA,NA
s6uKUrzd,NA,NA,s6uKUrzd,2020-0188,2021-09-21,23:16:47,12:22:23,NA,incomplete,false,true,NA,4,28,E21_Q6_ansR.png,right,NA,NA,NA,right,1451,true,NA,NA,NA,NA,NA
s6uKUrzd,NA,NA,s6uKUrzd,2020-0188,2021-09-21,23:16:47,12:22:23,NA,incomplete,false,true,NA,4,29,E21_Q7_ansL.png,left,NA,NA,NA,left,1927,true,NA,NA,NA,NA,NA
s6uKUrzd,NA,NA,s6uKUrzd,2020-0188,2021-09-21,23:16:47,12:22:23,NA,incomplete,false,NA,true,4,0,NA,left,E7_Q3_ansR.png,E1_Q1_ansL.png,between,NA,NaN,NA,left,2997,1,2,2644.0000000037253
s6uKUrzd,NA,NA,s6uKUrzd,2020-0188,2021-09-21,23:16:47,12:22:23,NA,incomplete,false,NA,true,4,1,NA,right,E21_Q6_ansR.png,E21_Q3_ansR.png,within,NA,NaN,NA,right,2273.9999999962747,1,1,761
s6uKUrzd,NA,NA,s6uKUrzd,2020-0188,2021-09-21,23:16:47,12:22:23,NA,incomplete,false,NA,true,4,2,NA,right,E21_Q10_ansL.png,E21_Q2_ansL.png,within,NA,NaN,NA,right,4527.000000003725,1,1,1108
s6uKUrzd,NA,NA,s6uKUrzd,2020-0188,2021-09-21,23:16:47,12:22:23,NA,incomplete,false,NA,true,4,3,NA,right,E1_Q9_ansL.png,E1_Q6_ansR.png,within,NA,NaN,NA,right,4862,1,1,1273.0000000037253
s6uKUrzd,NA,NA,s6uKUrzd,2020-0188,2021-09-21,23:16:47,12:22:23,NA,incomplete,false,NA,true,4,4,NA,left,E21_Q5_ansR.png,E21_Q3_ansR.png,within,NA,NaN,NA,left,1724,1,0,1611
s6uKUrzd,NA,NA,s6uKUrzd,2020-0188,2021-09-21,23:16:47,12:22:23,NA,incomplete,false,NA,true,4,5,NA,left,E1_Q10_ansR.png,E1_Q8_ansR.png,within,NA,NaN,NA,left,3843,1,0,1648.9999999962747
s6uKUrzd,NA,NA,s6uKUrzd,2020-0188,2021-09-21,23:16:47,12:22:23,NA,incomplete,false,NA,true,4,6,NA,right,E7_Q4_ansR.png,E7_Q6_ansR.png,within,NA,NaN,NA,left,1770,0,0,1402.0000000037253
s6uKUrzd,NA,NA,s6uKUrzd,2020-0188,2021-09-21,23:16:47,12:22:23,NA,incomplete,false,NA,true,4,7,NA,right,E1_Q4_ansL.png,E1_Q8_ansR.png,within,NA,NaN,NA,right,3445,1,0,1529.9999999962747
s6uKUrzd,NA,NA,s6uKUrzd,2020-0188,2021-09-21,23:16:47,12:22:23,NA,incomplete,false,NA,true,4,8,NA,left,E21_Q10_ansL.png,E21_Q8_ansL.png,within,NA,NaN,NA,left,1399,1,0,996
s6uKUrzd,NA,NA,s6uKUrzd,2020-0188,2021-09-21,23:16:47,12:22:23,NA,incomplete,false,NA,true,4,9,NA,left,E7_Q9_ansR.png,E7_Q8_ansL.png,within,NA,NaN,NA,left,1925,1,0,1386.0000000037253
s6uKUrzd,NA,NA,s6uKUrzd,2020-0188,2021-09-21,23:16:47,12:22:23,NA,incomplete,false,NA,true,4,10,NA,right,E1_Q2_ansL.png,E7_Q7_ansL.png,between,NA,NaN,NA,right,1560,1,2,1738.9999999962747
s6uKUrzd,NA,NA,s6uKUrzd,2020-0188,2021-09-21,23:16:47,12:22:23,NA,incomplete,false,NA,true,4,11,NA,right,E21_Q7_ansL.png,E21_Q4_ansR.png,within,NA,NaN,NA,right,2721.9999999962747,1,1,890
s6uKUrzd,NA,NA,s6uKUrzd,2020-0188,2021-09-21,23:16:47,12:22:23,NA,incomplete,false,NA,true,4,12,NA,right,E21_Q4_ansR.png,E21_Q9_ansR.png,within,NA,NaN,NA,left,1409,0,1,1137.9999999962747
s6uKUrzd,NA,NA,s6uKUrzd,2020-0188,2021-09-21,23:16:47,12:22:23,NA,incomplete,false,NA,true,4,13,NA,left,E1_Q3_ansR.png,E1_Q5_ansR.png,within,NA,NaN,NA,right,5407.000000003725,0,1,1170
s6uKUrzd,NA,NA,s6uKUrzd,2020-0188,2021-09-21,23:16:47,12:22:23,NA,incomplete,false,NA,true,4,14,NA,left,E1_Q4_ansL.png,E21_Q5_ansR.png,between,NA,NaN,NA,left,1473,1,2,1241.9999999962747
s6uKUrzd,NA,NA,s6uKUrzd,2020-0188,2021-09-21,23:16:47,12:22:23,NA,incomplete,false,NA,true,4,15,NA,right,E21_Q9_ansR.png,E21_Q1_ansL.png,within,NA,NaN,NA,right,1811,1,1,2347.9999999962747
s6uKUrzd,NA,NA,s6uKUrzd,2020-0188,2021-09-21,23:16:47,12:22:23,NA,incomplete,false,NA,true,4,16,NA,left,E1_Q2_ansL.png,E1_Q3_ansR.png,within,NA,NaN,NA,right,3146,0,1,1442
s6uKUrzd,NA,NA,s6uKUrzd,2020-0188,2021-09-21,23:16:47,12:22:23,NA,incomplete,false,NA,true,4,17,NA,left,E1_Q9_ansL.png,E1_Q7_ansL.png,within,NA,NaN,NA,right,5222.999999996275,0,1,1281
s6uKUrzd,NA,NA,s6uKUrzd,2020-0188,2021-09-21,23:16:47,12:22:23,NA,incomplete,false,NA,true,4,18,NA,right,E21_Q2_ansL.png,E1_Q7_ansL.png,between,NA,NaN,NA,right,1499,1,1,970
s6uKUrzd,NA,NA,s6uKUrzd,2020-0188,2021-09-21,23:16:47,12:22:23,NA,incomplete,false,NA,true,4,19,NA,right,E7_Q7_ansL.png,E7_Q4_ansR.png,within,NA,NaN,NA,right,1889,1,1,2205
s6uKUrzd,NA,NA,s6uKUrzd,2020-0188,2021-09-21,23:16:47,12:22:23,NA,incomplete,false,NA,true,4,20,NA,left,E7_Q5_ansR.png,E7_Q3_ansR.png,within,NA,NaN,NA,right,6151,0,0,1026
s6uKUrzd,NA,NA,s6uKUrzd,2020-0188,2021-09-21,23:16:47,12:22:23,NA,incomplete,false,NA,true,4,21,NA,left,E7_Q8_ansL.png,E7_Q2_ansL.png,within,NA,NaN,NA,left,2188,1,1,936.9999999962747
s6uKUrzd,NA,NA,s6uKUrzd,2020-0188,2021-09-21,23:16:47,12:22:23,NA,incomplete,false,NA,true,4,22,NA,left,E7_Q10_ansR.png,E7_Q5_ansR.png,within,NA,NaN,NA,left,1473,1,0,1027.0000000037253
s6uKUrzd,NA,NA,s6uKUrzd,2020-0188,2021-09-21,23:16:47,12:22:23,NA,incomplete,false,NA,true,4,23,NA,left,E1_Q5_ansR.png,E21_Q1_ansL.png,between,NA,NaN,NA,left,1304,1,2,1503.0000000037253
s6uKUrzd,NA,NA,s6uKUrzd,2020-0188,2021-09-21,23:16:47,12:22:23,NA,incomplete,false,NA,true,4,24,NA,left,E7_Q1_ansL.png,E1_Q6_ansR.png,between,NA,NaN,NA,left,2089,1,1,1241
s6uKUrzd,NA,NA,s6uKUrzd,2020-0188,2021-09-21,23:16:47,12:22:23,NA,incomplete,false,NA,true,4,25,NA,left,E1_Q1_ansL.png,E1_Q10_ansR.png,within,NA,NaN,NA,left,1883,1,0,1714
s6uKUrzd,NA,NA,s6uKUrzd,2020-0188,2021-09-21,23:16:47,12:22:23,NA,incomplete,false,NA,true,4,26,NA,right,E7_Q1_ansL.png,E7_Q2_ansL.png,within,NA,NaN,NA,left,1874,0,1,1251
s6uKUrzd,NA,NA,s6uKUrzd,2020-0188,2021-09-21,23:16:47,12:22:23,NA,incomplete,false,true,NA,5,0,E2_Q9_ansL.png,left,NA,NA,NA,left,2292,true,NA,NA,NA,NA,NA
s6uKUrzd,NA,NA,s6uKUrzd,2020-0188,2021-09-21,23:16:47,12:22:23,NA,incomplete,false,true,NA,5,1,E2_Q8_ansR.png,right,NA,NA,NA,right,1805,true,NA,NA,NA,NA,NA
s6uKUrzd,NA,NA,s6uKUrzd,2020-0188,2021-09-21,23:16:47,12:22:23,NA,incomplete,false,true,NA,5,2,E2_Q3_ansR.png,right,NA,NA,NA,right,2276,true,NA,NA,NA,NA,NA
s6uKUrzd,NA,NA,s6uKUrzd,2020-0188,2021-09-21,23:16:47,12:22:23,NA,incomplete,false,true,NA,5,3,E2_Q6_ansL.png,left,NA,NA,NA,left,1316,true,NA,NA,NA,NA,NA
s6uKUrzd,NA,NA,s6uKUrzd,2020-0188,2021-09-21,23:16:47,12:22:23,NA,incomplete,false,true,NA,5,4,E2_Q4_ansL.png,left,NA,NA,NA,right,1030,false,NA,NA,NA,NA,NA
s6uKUrzd,NA,NA,s6uKUrzd,2020-0188,2021-09-21,23:16:47,12:22:23,NA,incomplete,false,true,NA,5,5,E2_Q2_ansR.png,right,NA,NA,NA,right,2068,true,NA,NA,NA,NA,NA
s6uKUrzd,NA,NA,s6uKUrzd,2020-0188,2021-09-21,23:16:47,12:22:23,NA,incomplete,false,true,NA,5,6,E2_Q5_ansL.png,left,NA,NA,NA,left,1406,true,NA,NA,NA,NA,NA
s6uKUrzd,NA,NA,s6uKUrzd,2020-0188,2021-09-21,23:16:47,12:22:23,NA,incomplete,false,true,NA,5,7,E2_Q7_ansR.png,right,NA,NA,NA,right,1451,true,NA,NA,NA,NA,NA
s6uKUrzd,NA,NA,s6uKUrzd,2020-0188,2021-09-21,23:16:47,12:22:23,NA,incomplete,false,true,NA,5,8,E2_Q1_ansL.png,left,NA,NA,NA,left,1455,true,NA,NA,NA,NA,NA
s6uKUrzd,NA,NA,s6uKUrzd,2020-0188,2021-09-21,23:16:47,12:22:23,NA,incomplete,false,true,NA,5,9,E2_Q10_ansL.png,left,NA,NA,NA,left,1302,true,NA,NA,NA,NA,NA
s6uKUrzd,NA,NA,s6uKUrzd,2020-0188,2021-09-21,23:16:47,12:22:23,NA,incomplete,false,true,NA,5,10,E13_Q10_ansL.png,left,NA,NA,NA,left,1517,true,NA,NA,NA,NA,NA
s6uKUrzd,NA,NA,s6uKUrzd,2020-0188,2021-09-21,23:16:47,12:22:23,NA,incomplete,false,true,NA,5,11,E13_Q3_ansR.png,right,NA,NA,NA,right,1564,true,NA,NA,NA,NA,NA
s6uKUrzd,NA,NA,s6uKUrzd,2020-0188,2021-09-21,23:16:47,12:22:23,NA,incomplete,false,true,NA,5,12,E13_Q4_ansR.png,right,NA,NA,NA,right,1234,true,NA,NA,NA,NA,NA
s6uKUrzd,NA,NA,s6uKUrzd,2020-0188,2021-09-21,23:16:47,12:22:23,NA,incomplete,false,true,NA,5,13,E13_Q9_ansR.png,right,NA,NA,NA,right,1213,true,NA,NA,NA,NA,NA
s6uKUrzd,NA,NA,s6uKUrzd,2020-0188,2021-09-21,23:16:47,12:22:23,NA,incomplete,false,true,NA,5,14,E13_Q2_ansL.png,left,NA,NA,NA,left,1620,true,NA,NA,NA,NA,NA
s6uKUrzd,NA,NA,s6uKUrzd,2020-0188,2021-09-21,23:16:47,12:22:23,NA,incomplete,false,true,NA,5,15,E13_Q6_ansR.png,right,NA,NA,NA,right,1218,true,NA,NA,NA,NA,NA
s6uKUrzd,NA,NA,s6uKUrzd,2020-0188,2021-09-21,23:16:47,12:22:23,NA,incomplete,false,true,NA,5,16,E13_Q1_ansL.png,left,NA,NA,NA,left,1408,true,NA,NA,NA,NA,NA
s6uKUrzd,NA,NA,s6uKUrzd,2020-0188,2021-09-21,23:16:47,12:22:23,NA,incomplete,false,true,NA,5,17,E13_Q7_ansL.png,left,NA,NA,NA,left,2222,true,NA,NA,NA,NA,NA
s6uKUrzd,NA,NA,s6uKUrzd,2020-0188,2021-09-21,23:16:47,12:22:23,NA,incomplete,false,true,NA,5,18,E13_Q8_ansL.png,left,NA,NA,NA,left,1048,true,NA,NA,NA,NA,NA
s6uKUrzd,NA,NA,s6uKUrzd,2020-0188,2021-09-21,23:16:47,12:22:23,NA,incomplete,false,true,NA,5,19,E13_Q5_ansR.png,right,NA,NA,NA,right,1263.99999999627,true,NA,NA,NA,NA,NA
s6uKUrzd,NA,NA,s6uKUrzd,2020-0188,2021-09-21,23:16:47,12:22:23,NA,incomplete,false,true,NA,5,20,E8_Q6_ansL.png,left,NA,NA,NA,left,1786,true,NA,NA,NA,NA,NA
s6uKUrzd,NA,NA,s6uKUrzd,2020-0188,2021-09-21,23:16:47,12:22:23,NA,incomplete,false,true,NA,5,21,E8_Q1_ansR.png,right,NA,NA,NA,right,1305.99999999627,true,NA,NA,NA,NA,NA
s6uKUrzd,NA,NA,s6uKUrzd,2020-0188,2021-09-21,23:16:47,12:22:23,NA,incomplete,false,true,NA,5,22,E8_Q9_ansL.png,left,NA,NA,NA,left,1544.99999999627,true,NA,NA,NA,NA,NA
s6uKUrzd,NA,NA,s6uKUrzd,2020-0188,2021-09-21,23:16:47,12:22:23,NA,incomplete,false,true,NA,5,23,E8_Q7_ansR.png,right,NA,NA,NA,right,1365,true,NA,NA,NA,NA,NA
s6uKUrzd,NA,NA,s6uKUrzd,2020-0188,2021-09-21,23:16:47,12:22:23,NA,incomplete,false,true,NA,5,24,E8_Q5_ansL.png,left,NA,NA,NA,left,1630,true,NA,NA,NA,NA,NA
s6uKUrzd,NA,NA,s6uKUrzd,2020-0188,2021-09-21,23:16:47,12:22:23,NA,incomplete,false,true,NA,5,25,E8_Q3_ansL.png,left,NA,NA,NA,left,1703,true,NA,NA,NA,NA,NA
s6uKUrzd,NA,NA,s6uKUrzd,2020-0188,2021-09-21,23:16:47,12:22:23,NA,incomplete,false,true,NA,5,26,E8_Q4_ansL.png,left,NA,NA,NA,left,1679,true,NA,NA,NA,NA,NA
s6uKUrzd,NA,NA,s6uKUrzd,2020-0188,2021-09-21,23:16:47,12:22:23,NA,incomplete,false,true,NA,5,27,E8_Q2_ansR.png,right,NA,NA,NA,right,1569,true,NA,NA,NA,NA,NA
s6uKUrzd,NA,NA,s6uKUrzd,2020-0188,2021-09-21,23:16:47,12:22:23,NA,incomplete,false,true,NA,5,28,E8_Q8_ansR.png,right,NA,NA,NA,right,1445,true,NA,NA,NA,NA,NA
s6uKUrzd,NA,NA,s6uKUrzd,2020-0188,2021-09-21,23:16:47,12:22:23,NA,incomplete,false,true,NA,5,29,E8_Q10_ansR.png,right,NA,NA,NA,right,1243.00000000373,true,NA,NA,NA,NA,NA
s6uKUrzd,NA,NA,s6uKUrzd,2020-0188,2021-09-21,23:16:47,12:22:23,NA,incomplete,false,NA,true,5,0,NA,right,E13_Q4_ansR.png,E2_Q10_ansL.png,between,NA,NaN,NA,right,1793,1,2,2040.0000000037253
s6uKUrzd,NA,NA,s6uKUrzd,2020-0188,2021-09-21,23:16:47,12:22:23,NA,incomplete,false,NA,true,5,1,NA,left,E8_Q7_ansR.png,E8_Q4_ansL.png,within,NA,NaN,NA,left,10501,1,1,2499
s6uKUrzd,NA,NA,s6uKUrzd,2020-0188,2021-09-21,23:16:47,12:22:23,NA,incomplete,false,NA,true,5,2,NA,right,E2_Q4_ansL.png,E2_Q8_ansR.png,within,NA,NaN,NA,right,2224,1,1,863
s6uKUrzd,NA,NA,s6uKUrzd,2020-0188,2021-09-21,23:16:47,12:22:23,NA,incomplete,false,NA,true,5,3,NA,left,E2_Q4_ansL.png,E2_Q7_ansR.png,within,NA,NaN,NA,left,1608,1,1,1098.0000000037253
s6uKUrzd,NA,NA,s6uKUrzd,2020-0188,2021-09-21,23:16:47,12:22:23,NA,incomplete,false,NA,true,5,4,NA,left,E13_Q5_ansR.png,E8_Q9_ansL.png,between,NA,NaN,NA,left,1609.9999999962747,1,1,1121.9999999962747
s6uKUrzd,NA,NA,s6uKUrzd,2020-0188,2021-09-21,23:16:47,12:22:23,NA,incomplete,false,NA,true,5,5,NA,left,E2_Q2_ansR.png,E2_Q1_ansL.png,within,NA,NaN,NA,right,5591,0,1,809
s6uKUrzd,NA,NA,s6uKUrzd,2020-0188,2021-09-21,23:16:47,12:22:23,NA,incomplete,false,NA,true,5,6,NA,right,E13_Q7_ansL.png,E13_Q2_ansL.png,within,NA,NaN,NA,right,6577,1,1,946
s6uKUrzd,NA,NA,s6uKUrzd,2020-0188,2021-09-21,23:16:47,12:22:23,NA,incomplete,false,NA,true,5,7,NA,left,E8_Q3_ansL.png,E8_Q8_ansR.png,within,NA,NaN,NA,right,2291,0,0,960.9999999962747
s6uKUrzd,NA,NA,s6uKUrzd,2020-0188,2021-09-21,23:16:47,12:22:23,NA,incomplete,false,NA,true,5,8,NA,right,E8_Q1_ansR.png,E13_Q8_ansL.png,between,NA,NaN,NA,right,1593,1,2,3555
s6uKUrzd,NA,NA,s6uKUrzd,2020-0188,2021-09-21,23:16:47,12:22:23,NA,incomplete,false,NA,true,5,9,NA,left,E13_Q4_ansR.png,E13_Q6_ansR.png,within,NA,NaN,NA,left,1956,1,0,1875
s6uKUrzd,NA,NA,s6uKUrzd,2020-0188,2021-09-21,23:16:47,12:22:23,NA,incomplete,false,NA,true,5,10,NA,right,E8_Q2_ansR.png,E8_Q5_ansL.png,within,NA,NaN,NA,left,2363,0,1,744
s6uKUrzd,NA,NA,s6uKUrzd,2020-0188,2021-09-21,23:16:47,12:22:23,NA,incomplete,false,NA,true,5,11,NA,left,E13_Q7_ansL.png,E8_Q6_ansL.png,between,NA,NaN,NA,left,1497,1,1,3133
s6uKUrzd,NA,NA,s6uKUrzd,2020-0188,2021-09-21,23:16:47,12:22:23,NA,incomplete,false,NA,true,5,12,NA,right,E2_Q10_ansL.png,E2_Q5_ansL.png,within,NA,NaN,NA,right,4139.999999996275,1,1,929
s6uKUrzd,NA,NA,s6uKUrzd,2020-0188,2021-09-21,23:16:47,12:22:23,NA,incomplete,false,NA,true,5,13,NA,left,E2_Q9_ansL.png,E2_Q6_ansL.png,within,NA,NaN,NA,left,1489.0000000037253,1,0,1019
s6uKUrzd,NA,NA,s6uKUrzd,2020-0188,2021-09-21,23:16:47,12:22:23,NA,incomplete,false,NA,true,5,14,NA,left,E2_Q7_ansR.png,E13_Q10_ansL.png,between,NA,NaN,NA,left,1840,1,2,2012.0000000037253
s6uKUrzd,NA,NA,s6uKUrzd,2020-0188,2021-09-21,23:16:47,12:22:23,NA,incomplete,false,NA,true,5,15,NA,left,E2_Q3_ansR.png,E2_Q2_ansR.png,within,NA,NaN,NA,right,2194,0,1,873
s6uKUrzd,NA,NA,s6uKUrzd,2020-0188,2021-09-21,23:16:47,12:22:23,NA,incomplete,false,NA,true,5,16,NA,right,E13_Q8_ansL.png,E13_Q6_ansR.png,within,NA,NaN,NA,left,4173,0,0,1476.0000000037253
s6uKUrzd,NA,NA,s6uKUrzd,2020-0188,2021-09-21,23:16:47,12:22:23,NA,incomplete,false,NA,true,5,17,NA,right,E8_Q10_ansR.png,E8_Q4_ansL.png,within,NA,NaN,NA,left,1304.9999999962747,0,1,1258
s6uKUrzd,NA,NA,s6uKUrzd,2020-0188,2021-09-21,23:16:47,12:22:23,NA,incomplete,false,NA,true,5,18,NA,right,E8_Q3_ansL.png,E8_Q9_ansL.png,within,NA,NaN,NA,left,1074,0,1,1458.9999999962747
s6uKUrzd,NA,NA,s6uKUrzd,2020-0188,2021-09-21,23:16:47,12:22:23,NA,incomplete,false,NA,true,5,19,NA,left,E13_Q3_ansR.png,E13_Q2_ansL.png,within,NA,NaN,NA,left,1584.0000000037253,1,1,1084
s6uKUrzd,NA,NA,s6uKUrzd,2020-0188,2021-09-21,23:16:47,12:22:23,NA,incomplete,false,NA,true,5,20,NA,right,E2_Q5_ansL.png,E2_Q6_ansL.png,within,NA,NaN,NA,right,1515,1,0,896.9999999962747
s6uKUrzd,NA,NA,s6uKUrzd,2020-0188,2021-09-21,23:16:47,12:22:23,NA,incomplete,false,NA,true,5,21,NA,right,E13_Q9_ansR.png,E13_Q10_ansL.png,within,NA,NaN,NA,left,1643,0,0,1906.0000000037253
s6uKUrzd,NA,NA,s6uKUrzd,2020-0188,2021-09-21,23:16:47,12:22:23,NA,incomplete,false,NA,true,5,22,NA,right,E13_Q5_ansR.png,E13_Q1_ansL.png,within,NA,NaN,NA,right,2874,1,1,1018.9999999962747
s6uKUrzd,NA,NA,s6uKUrzd,2020-0188,2021-09-21,23:16:47,12:22:23,NA,incomplete,false,NA,true,5,23,NA,left,E2_Q1_ansL.png,E13_Q3_ansR.png,between,NA,NaN,NA,left,1104,1,2,1955
s6uKUrzd,NA,NA,s6uKUrzd,2020-0188,2021-09-21,23:16:47,12:22:23,NA,incomplete,false,NA,true,5,24,NA,left,E8_Q6_ansL.png,E8_Q7_ansR.png,within,NA,NaN,NA,left,2114.0000000037253,1,1,1386.9999999962747
s6uKUrzd,NA,NA,s6uKUrzd,2020-0188,2021-09-21,23:16:47,12:22:23,NA,incomplete,false,NA,true,5,25,NA,left,E8_Q1_ansR.png,E8_Q5_ansL.png,within,NA,NaN,NA,left,1859,1,1,1226
s6uKUrzd,NA,NA,s6uKUrzd,2020-0188,2021-09-21,23:16:47,12:22:23,NA,incomplete,false,NA,true,5,26,NA,right,E13_Q1_ansL.png,E13_Q9_ansR.png,within,NA,NaN,NA,right,2339,1,1,834.9999999962747
s6uKUrzd,NA,NA,s6uKUrzd,2020-0188,2021-09-21,23:16:47,12:22:23,NA,incomplete,false,true,NA,6,0,E23_Q10_ansL.png,left,NA,NA,NA,left,1859,true,NA,NA,NA,NA,NA
s6uKUrzd,NA,NA,s6uKUrzd,2020-0188,2021-09-21,23:16:47,12:22:23,NA,incomplete,false,true,NA,6,1,E23_Q8_ansL.png,left,NA,NA,NA,left,1403,true,NA,NA,NA,NA,NA
s6uKUrzd,NA,NA,s6uKUrzd,2020-0188,2021-09-21,23:16:47,12:22:23,NA,incomplete,false,true,NA,6,2,E23_Q2_ansL.png,left,NA,NA,NA,left,1918,true,NA,NA,NA,NA,NA
s6uKUrzd,NA,NA,s6uKUrzd,2020-0188,2021-09-21,23:16:47,12:22:23,NA,incomplete,false,true,NA,6,3,E23_Q6_ansR.png,right,NA,NA,NA,right,1463,true,NA,NA,NA,NA,NA
s6uKUrzd,NA,NA,s6uKUrzd,2020-0188,2021-09-21,23:16:47,12:22:23,NA,incomplete,false,true,NA,6,4,E23_Q7_ansL.png,left,NA,NA,NA,left,2214,true,NA,NA,NA,NA,NA
s6uKUrzd,NA,NA,s6uKUrzd,2020-0188,2021-09-21,23:16:47,12:22:23,NA,incomplete,false,true,NA,6,5,E23_Q4_ansR.png,right,NA,NA,NA,right,1508,true,NA,NA,NA,NA,NA
s6uKUrzd,NA,NA,s6uKUrzd,2020-0188,2021-09-21,23:16:47,12:22:23,NA,incomplete,false,true,NA,6,6,E23_Q9_ansR.png,right,NA,NA,NA,right,2206.00000000373,true,NA,NA,NA,NA,NA
s6uKUrzd,NA,NA,s6uKUrzd,2020-0188,2021-09-21,23:16:47,12:22:23,NA,incomplete,false,true,NA,6,7,E23_Q1_ansL.png,left,NA,NA,NA,left,2532,true,NA,NA,NA,NA,NA
s6uKUrzd,NA,NA,s6uKUrzd,2020-0188,2021-09-21,23:16:47,12:22:23,NA,incomplete,false,true,NA,6,8,E23_Q5_ansR.png,right,NA,NA,NA,right,1330.00000000373,true,NA,NA,NA,NA,NA
s6uKUrzd,NA,NA,s6uKUrzd,2020-0188,2021-09-21,23:16:47,12:22:23,NA,incomplete,false,true,NA,6,9,E23_Q3_ansR.png,right,NA,NA,NA,right,1431,true,NA,NA,NA,NA,NA
s6uKUrzd,NA,NA,s6uKUrzd,2020-0188,2021-09-21,23:16:47,12:22:23,NA,incomplete,false,true,NA,6,10,E18_Q8_ansL.png,left,NA,NA,NA,left,2882.00000000373,true,NA,NA,NA,NA,NA
s6uKUrzd,NA,NA,s6uKUrzd,2020-0188,2021-09-21,23:16:47,12:22:23,NA,incomplete,false,true,NA,6,11,E18_Q6_ansR.png,right,NA,NA,NA,right,1512,true,NA,NA,NA,NA,NA
s6uKUrzd,NA,NA,s6uKUrzd,2020-0188,2021-09-21,23:16:47,12:22:23,NA,incomplete,false,true,NA,6,12,E18_Q10_ansL.png,left,NA,NA,NA,left,2270,true,NA,NA,NA,NA,NA
s6uKUrzd,NA,NA,s6uKUrzd,2020-0188,2021-09-21,23:16:47,12:22:23,NA,incomplete,false,true,NA,6,13,E18_Q5_ansR.png,right,NA,NA,NA,left,2472,false,NA,NA,NA,NA,NA
s6uKUrzd,NA,NA,s6uKUrzd,2020-0188,2021-09-21,23:16:47,12:22:23,NA,incomplete,false,true,NA,6,14,E18_Q2_ansL.png,left,NA,NA,NA,left,2051,true,NA,NA,NA,NA,NA
s6uKUrzd,NA,NA,s6uKUrzd,2020-0188,2021-09-21,23:16:47,12:22:23,NA,incomplete,false,true,NA,6,15,E18_Q4_ansR.png,right,NA,NA,NA,right,1429,true,NA,NA,NA,NA,NA
s6uKUrzd,NA,NA,s6uKUrzd,2020-0188,2021-09-21,23:16:47,12:22:23,NA,incomplete,false,true,NA,6,16,E18_Q9_ansR.png,right,NA,NA,NA,right,1605,true,NA,NA,NA,NA,NA
s6uKUrzd,NA,NA,s6uKUrzd,2020-0188,2021-09-21,23:16:47,12:22:23,NA,incomplete,false,true,NA,6,17,E18_Q1_ansL.png,left,NA,NA,NA,left,1718.00000000373,true,NA,NA,NA,NA,NA
s6uKUrzd,NA,NA,s6uKUrzd,2020-0188,2021-09-21,23:16:47,12:22:23,NA,incomplete,false,true,NA,6,18,E18_Q3_ansR.png,right,NA,NA,NA,right,1380,true,NA,NA,NA,NA,NA
s6uKUrzd,NA,NA,s6uKUrzd,2020-0188,2021-09-21,23:16:47,12:22:23,NA,incomplete,false,true,NA,6,19,E18_Q7_ansL.png,left,NA,NA,NA,left,1564.99999999627,true,NA,NA,NA,NA,NA
s6uKUrzd,NA,NA,s6uKUrzd,2020-0188,2021-09-21,23:16:47,12:22:23,NA,incomplete,false,true,NA,6,20,E33_Q7_ansL.png,left,NA,NA,NA,right,3136.99999999627,false,NA,NA,NA,NA,NA
s6uKUrzd,NA,NA,s6uKUrzd,2020-0188,2021-09-21,23:16:47,12:22:23,NA,incomplete,false,true,NA,6,21,E33_Q9_ansR.png,right,NA,NA,NA,right,2095.99999999627,true,NA,NA,NA,NA,NA
s6uKUrzd,NA,NA,s6uKUrzd,2020-0188,2021-09-21,23:16:47,12:22:23,NA,incomplete,false,true,NA,6,22,E33_Q3_ansR.png,right,NA,NA,NA,right,3330,true,NA,NA,NA,NA,NA
s6uKUrzd,NA,NA,s6uKUrzd,2020-0188,2021-09-21,23:16:47,12:22:23,NA,incomplete,false,true,NA,6,23,E33_Q1_ansL.png,left,NA,NA,NA,left,3022,true,NA,NA,NA,NA,NA
s6uKUrzd,NA,NA,s6uKUrzd,2020-0188,2021-09-21,23:16:47,12:22:23,NA,incomplete,false,true,NA,6,24,E33_Q5_ansR.png,right,NA,NA,NA,right,2381,true,NA,NA,NA,NA,NA
s6uKUrzd,NA,NA,s6uKUrzd,2020-0188,2021-09-21,23:16:47,12:22:23,NA,incomplete,false,true,NA,6,25,E33_Q8_ansL.png,left,NA,NA,NA,left,2520,true,NA,NA,NA,NA,NA
s6uKUrzd,NA,NA,s6uKUrzd,2020-0188,2021-09-21,23:16:47,12:22:23,NA,incomplete,false,true,NA,6,26,E33_Q10_ansL.png,left,NA,NA,NA,left,2760,true,NA,NA,NA,NA,NA
s6uKUrzd,NA,NA,s6uKUrzd,2020-0188,2021-09-21,23:16:47,12:22:23,NA,incomplete,false,true,NA,6,27,E33_Q6_ansR.png,right,NA,NA,NA,right,2258,true,NA,NA,NA,NA,NA
s6uKUrzd,NA,NA,s6uKUrzd,2020-0188,2021-09-21,23:16:47,12:22:23,NA,incomplete,false,true,NA,6,28,E33_Q4_ansR.png,right,NA,NA,NA,right,2180,true,NA,NA,NA,NA,NA
s6uKUrzd,NA,NA,s6uKUrzd,2020-0188,2021-09-21,23:16:47,12:22:23,NA,incomplete,false,true,NA,6,29,E33_Q2_ansL.png,left,NA,NA,NA,left,2327,true,NA,NA,NA,NA,NA
s6uKUrzd,NA,NA,s6uKUrzd,2020-0188,2021-09-21,23:16:47,12:22:23,NA,incomplete,false,NA,true,6,0,NA,right,E18_Q6_ansR.png,E23_Q5_ansR.png,between,NA,NaN,NA,right,4536,1,2,1411.9999999962747
s6uKUrzd,NA,NA,s6uKUrzd,2020-0188,2021-09-21,23:16:47,12:22:23,NA,incomplete,false,NA,true,6,1,NA,left,E23_Q9_ansR.png,E23_Q3_ansR.png,within,NA,NaN,NA,left,4063,1,1,1737.9999999962747
s6uKUrzd,NA,NA,s6uKUrzd,2020-0188,2021-09-21,23:16:47,12:22:23,NA,incomplete,false,NA,true,6,2,NA,right,E18_Q3_ansR.png,E18_Q4_ansR.png,within,NA,NaN,NA,right,3463.0000000037253,1,1,881
s6uKUrzd,NA,NA,s6uKUrzd,2020-0188,2021-09-21,23:16:47,12:22:23,NA,incomplete,false,NA,true,6,3,NA,right,E18_Q10_ansL.png,E23_Q3_ansR.png,between,NA,NaN,NA,right,1936.0000000037253,1,0,2692
s6uKUrzd,NA,NA,s6uKUrzd,2020-0188,2021-09-21,23:16:47,12:22:23,NA,incomplete,false,NA,true,6,4,NA,left,E23_Q1_ansL.png,E18_Q8_ansL.png,between,NA,NaN,NA,left,1883,1,3,985
s6uKUrzd,NA,NA,s6uKUrzd,2020-0188,2021-09-21,23:16:47,12:22:23,NA,incomplete,false,NA,true,6,5,NA,right,E33_Q4_ansR.png,E33_Q8_ansL.png,within,NA,NaN,NA,left,3656,0,1,1049
s6uKUrzd,NA,NA,s6uKUrzd,2020-0188,2021-09-21,23:16:47,12:22:23,NA,incomplete,false,NA,true,6,6,NA,left,E18_Q10_ansL.png,E18_Q4_ansR.png,within,NA,NaN,NA,right,6056,0,1,26447
s6uKUrzd,NA,NA,s6uKUrzd,2020-0188,2021-09-21,23:16:47,12:22:23,NA,incomplete,false,NA,true,6,7,NA,left,E18_Q8_ansL.png,E18_Q5_ansR.png,within,NA,NaN,NA,left,2003.0000000037253,1,1,1099
s6uKUrzd,NA,NA,s6uKUrzd,2020-0188,2021-09-21,23:16:47,12:22:23,NA,incomplete,false,NA,true,6,8,NA,left,E23_Q10_ansL.png,E23_Q6_ansR.png,within,NA,NaN,NA,left,3318,1,0,1298
s6uKUrzd,NA,NA,s6uKUrzd,2020-0188,2021-09-21,23:16:47,12:22:23,NA,incomplete,false,NA,true,6,9,NA,right,E23_Q1_ansL.png,E23_Q7_ansL.png,within,NA,NaN,NA,left,2173,0,0,3333
s6uKUrzd,NA,NA,s6uKUrzd,2020-0188,2021-09-21,23:16:47,12:22:23,NA,incomplete,false,NA,true,6,10,NA,right,E33_Q3_ansR.png,E18_Q7_ansL.png,between,NA,NaN,NA,right,2139,1,2,1531
s6uKUrzd,NA,NA,s6uKUrzd,2020-0188,2021-09-21,23:16:47,12:22:23,NA,incomplete,false,NA,true,6,11,NA,right,E33_Q5_ansR.png,E33_Q9_ansR.png,within,NA,NaN,NA,right,5598,1,1,785
s6uKUrzd,NA,NA,s6uKUrzd,2020-0188,2021-09-21,23:16:47,12:22:23,NA,incomplete,false,NA,true,6,12,NA,left,E33_Q3_ansR.png,E33_Q8_ansL.png,within,NA,NaN,NA,left,1751.9999999962747,1,0,993
s6uKUrzd,NA,NA,s6uKUrzd,2020-0188,2021-09-21,23:16:47,12:22:23,NA,incomplete,false,NA,true,6,13,NA,left,E23_Q6_ansR.png,E23_Q9_ansR.png,within,NA,NaN,NA,left,1491,1,0,1130
s6uKUrzd,NA,NA,s6uKUrzd,2020-0188,2021-09-21,23:16:47,12:22:23,NA,incomplete,false,NA,true,6,14,NA,right,E18_Q7_ansL.png,E18_Q9_ansR.png,within,NA,NaN,NA,right,2835,1,1,881.0000000037253
s6uKUrzd,NA,NA,s6uKUrzd,2020-0188,2021-09-21,23:16:47,12:22:23,NA,incomplete,false,NA,true,6,15,NA,left,E18_Q3_ansR.png,E33_Q9_ansR.png,between,NA,NaN,NA,left,31748,1,2,1284
s6uKUrzd,NA,NA,s6uKUrzd,2020-0188,2021-09-21,23:16:47,12:22:23,NA,incomplete,false,NA,true,6,16,NA,left,E33_Q7_ansL.png,E33_Q1_ansL.png,within,NA,NaN,NA,right,4344,0,0,1436
s6uKUrzd,NA,NA,s6uKUrzd,2020-0188,2021-09-21,23:16:47,12:22:23,NA,incomplete,false,NA,true,6,17,NA,left,E18_Q5_ansR.png,E18_Q9_ansR.png,within,NA,NaN,NA,left,1682,1,1,1843
s6uKUrzd,NA,NA,s6uKUrzd,2020-0188,2021-09-21,23:16:47,12:22:23,NA,incomplete,false,NA,true,6,18,NA,left,E33_Q10_ansL.png,E33_Q2_ansL.png,within,NA,NaN,NA,left,2233,1,1,1194
s6uKUrzd,NA,NA,s6uKUrzd,2020-0188,2021-09-21,23:16:47,12:22:23,NA,incomplete,false,NA,true,6,19,NA,left,E23_Q8_ansL.png,E23_Q7_ansL.png,within,NA,NaN,NA,left,2394,1,0,1567
s6uKUrzd,NA,NA,s6uKUrzd,2020-0188,2021-09-21,23:16:47,12:22:23,NA,incomplete,false,NA,true,6,20,NA,right,E18_Q2_ansL.png,E18_Q6_ansR.png,within,NA,NaN,NA,right,4896,1,1,1435
s6uKUrzd,NA,NA,s6uKUrzd,2020-0188,2021-09-21,23:16:47,12:22:23,NA,incomplete,false,NA,true,6,21,NA,left,E18_Q1_ansL.png,E33_Q7_ansL.png,between,NA,NaN,NA,left,12831.999999996275,1,2,1546
s6uKUrzd,NA,NA,s6uKUrzd,2020-0188,2021-09-21,23:16:47,12:22:23,NA,incomplete,false,NA,true,6,22,NA,right,E23_Q4_ansR.png,E23_Q2_ansL.png,within,NA,NaN,NA,right,1881.9999999962747,1,2,2043
s6uKUrzd,NA,NA,s6uKUrzd,2020-0188,2021-09-21,23:16:47,12:22:23,NA,incomplete,false,NA,true,6,23,NA,right,E33_Q10_ansL.png,E33_Q1_ansL.png,within,NA,NaN,NA,right,3004,1,1,1258
s6uKUrzd,NA,NA,s6uKUrzd,2020-0188,2021-09-21,23:16:47,12:22:23,NA,incomplete,false,NA,true,6,24,NA,right,E23_Q5_ansR.png,E23_Q4_ansR.png,within,NA,NaN,NA,left,2033,0,1,1467
s6uKUrzd,NA,NA,s6uKUrzd,2020-0188,2021-09-21,23:16:47,12:22:23,NA,incomplete,false,NA,true,6,25,NA,right,E33_Q6_ansR.png,E33_Q5_ansR.png,within,NA,NaN,NA,right,1977,1,0,2823
s6uKUrzd,NA,NA,s6uKUrzd,2020-0188,2021-09-21,23:16:47,12:22:23,NA,incomplete,false,NA,true,6,26,NA,left,E18_Q2_ansL.png,E18_Q1_ansL.png,within,NA,NaN,NA,left,2441,1,1,1137
s6uKUrzd,NA,NA,s6uKUrzd,2020-0188,2021-09-21,23:16:47,12:22:23,NA,incomplete,false,true,NA,7,0,E10_Q6_ansR.png,right,NA,NA,NA,right,2651,true,NA,NA,NA,NA,NA
s6uKUrzd,NA,NA,s6uKUrzd,2020-0188,2021-09-21,23:16:47,12:22:23,NA,incomplete,false,true,NA,7,1,E10_Q10_ansR.png,right,NA,NA,NA,right,2672.00000000373,true,NA,NA,NA,NA,NA
s6uKUrzd,NA,NA,s6uKUrzd,2020-0188,2021-09-21,23:16:47,12:22:23,NA,incomplete,false,true,NA,7,2,E10_Q4_ansL.png,left,NA,NA,NA,none,0,false,NA,NA,NA,NA,NA
s6uKUrzd,NA,NA,s6uKUrzd,2020-0188,2021-09-21,23:16:47,12:22:23,NA,incomplete,false,true,NA,7,3,E10_Q8_ansR.png,right,NA,NA,NA,none,0,false,NA,NA,NA,NA,NA
s6uKUrzd,NA,NA,s6uKUrzd,2020-0188,2021-09-21,23:16:47,12:22:23,NA,incomplete,false,true,NA,7,4,E10_Q1_ansL.png,left,NA,NA,NA,left,2034,true,NA,NA,NA,NA,NA
s6uKUrzd,NA,NA,s6uKUrzd,2020-0188,2021-09-21,23:16:47,12:22:23,NA,incomplete,false,true,NA,7,5,E10_Q9_ansL.png,left,NA,NA,NA,left,2531,true,NA,NA,NA,NA,NA
s6uKUrzd,NA,NA,s6uKUrzd,2020-0188,2021-09-21,23:16:47,12:22:23,NA,incomplete,false,true,NA,7,6,E10_Q7_ansR.png,right,NA,NA,NA,right,3480,true,NA,NA,NA,NA,NA
s6uKUrzd,NA,NA,s6uKUrzd,2020-0188,2021-09-21,23:16:47,12:22:23,NA,incomplete,false,true,NA,7,7,E10_Q5_ansR.png,right,NA,NA,NA,left,2293.00000000373,false,NA,NA,NA,NA,NA
s6uKUrzd,NA,NA,s6uKUrzd,2020-0188,2021-09-21,23:16:47,12:22:23,NA,incomplete,false,true,NA,7,8,E10_Q2_ansL.png,left,NA,NA,NA,left,3283,true,NA,NA,NA,NA,NA
s6uKUrzd,NA,NA,s6uKUrzd,2020-0188,2021-09-21,23:16:47,12:22:23,NA,incomplete,false,true,NA,7,9,E10_Q3_ansL.png,left,NA,NA,NA,none,0,false,NA,NA,NA,NA,NA
s6uKUrzd,NA,NA,s6uKUrzd,2020-0188,2021-09-21,23:16:47,12:22:23,NA,incomplete,false,true,NA,7,10,E32_Q4_ansR.png,right,NA,NA,NA,right,2261,true,NA,NA,NA,NA,NA
s6uKUrzd,NA,NA,s6uKUrzd,2020-0188,2021-09-21,23:16:47,12:22:23,NA,incomplete,false,true,NA,7,11,E32_Q1_ansL.png,left,NA,NA,NA,left,1299,true,NA,NA,NA,NA,NA
s6uKUrzd,NA,NA,s6uKUrzd,2020-0188,2021-09-21,23:16:47,12:22:23,NA,incomplete,false,true,NA,7,12,E32_Q9_ansR.png,right,NA,NA,NA,right,1739.99999999627,true,NA,NA,NA,NA,NA
s6uKUrzd,NA,NA,s6uKUrzd,2020-0188,2021-09-21,23:16:47,12:22:23,NA,incomplete,false,true,NA,7,13,E32_Q7_ansL.png,left,NA,NA,NA,left,1825.99999999627,true,NA,NA,NA,NA,NA
s6uKUrzd,NA,NA,s6uKUrzd,2020-0188,2021-09-21,23:16:47,12:22:23,NA,incomplete,false,true,NA,7,14,E32_Q3_ansR.png,right,NA,NA,NA,right,1408.99999999627,true,NA,NA,NA,NA,NA
s6uKUrzd,NA,NA,s6uKUrzd,2020-0188,2021-09-21,23:16:47,12:22:23,NA,incomplete,false,true,NA,7,15,E32_Q10_ansL.png,left,NA,NA,NA,left,1373,true,NA,NA,NA,NA,NA
s6uKUrzd,NA,NA,s6uKUrzd,2020-0188,2021-09-21,23:16:47,12:22:23,NA,incomplete,false,true,NA,7,16,E32_Q6_ansR.png,right,NA,NA,NA,right,1674.99999999627,true,NA,NA,NA,NA,NA
s6uKUrzd,NA,NA,s6uKUrzd,2020-0188,2021-09-21,23:16:47,12:22:23,NA,incomplete,false,true,NA,7,17,E32_Q2_ansL.png,left,NA,NA,NA,left,1245,true,NA,NA,NA,NA,NA
s6uKUrzd,NA,NA,s6uKUrzd,2020-0188,2021-09-21,23:16:47,12:22:23,NA,incomplete,false,true,NA,7,18,E32_Q8_ansL.png,left,NA,NA,NA,left,1428,true,NA,NA,NA,NA,NA
s6uKUrzd,NA,NA,s6uKUrzd,2020-0188,2021-09-21,23:16:47,12:22:23,NA,incomplete,false,true,NA,7,19,E32_Q5_ansR.png,right,NA,NA,NA,right,1411,true,NA,NA,NA,NA,NA
s6uKUrzd,NA,NA,s6uKUrzd,2020-0188,2021-09-21,23:16:47,12:22:23,NA,incomplete,false,true,NA,7,20,E9_Q6_ansL.png,left,NA,NA,NA,left,1854,true,NA,NA,NA,NA,NA
s6uKUrzd,NA,NA,s6uKUrzd,2020-0188,2021-09-21,23:16:47,12:22:23,NA,incomplete,false,true,NA,7,21,E9_Q1_ansR.png,right,NA,NA,NA,right,1301,true,NA,NA,NA,NA,NA
s6uKUrzd,NA,NA,s6uKUrzd,2020-0188,2021-09-21,23:16:47,12:22:23,NA,incomplete,false,true,NA,7,22,E9_Q4_ansL.png,left,NA,NA,NA,left,1780.00000000373,true,NA,NA,NA,NA,NA
s6uKUrzd,NA,NA,s6uKUrzd,2020-0188,2021-09-21,23:16:47,12:22:23,NA,incomplete,false,true,NA,7,23,E9_Q8_ansR.png,right,NA,NA,NA,right,1528.00000000373,true,NA,NA,NA,NA,NA
s6uKUrzd,NA,NA,s6uKUrzd,2020-0188,2021-09-21,23:16:47,12:22:23,NA,incomplete,false,true,NA,7,24,E9_Q3_ansL.png,left,NA,NA,NA,left,1725.00000000373,true,NA,NA,NA,NA,NA
s6uKUrzd,NA,NA,s6uKUrzd,2020-0188,2021-09-21,23:16:47,12:22:23,NA,incomplete,false,true,NA,7,25,E9_Q2_ansR.png,right,NA,NA,NA,right,1333,true,NA,NA,NA,NA,NA
s6uKUrzd,NA,NA,s6uKUrzd,2020-0188,2021-09-21,23:16:47,12:22:23,NA,incomplete,false,true,NA,7,26,E9_Q5_ansL.png,left,NA,NA,NA,left,1326,true,NA,NA,NA,NA,NA
s6uKUrzd,NA,NA,s6uKUrzd,2020-0188,2021-09-21,23:16:47,12:22:23,NA,incomplete,false,true,NA,7,27,E9_Q7_ansR.png,right,NA,NA,NA,right,1533,true,NA,NA,NA,NA,NA
s6uKUrzd,NA,NA,s6uKUrzd,2020-0188,2021-09-21,23:16:47,12:22:23,NA,incomplete,false,true,NA,7,28,E9_Q9_ansL.png,left,NA,NA,NA,left,1371,true,NA,NA,NA,NA,NA
s6uKUrzd,NA,NA,s6uKUrzd,2020-0188,2021-09-21,23:16:47,12:22:23,NA,incomplete,false,true,NA,7,29,E9_Q10_ansR.png,right,NA,NA,NA,right,1307.00000000373,true,NA,NA,NA,NA,NA
s6uKUrzd,NA,NA,s6uKUrzd,2020-0188,2021-09-21,23:16:47,12:22:23,NA,incomplete,false,NA,true,7,0,NA,left,E10_Q10_ansR.png,E10_Q1_ansL.png,within,NA,NaN,NA,left,2155,1,0,993
s6uKUrzd,NA,NA,s6uKUrzd,2020-0188,2021-09-21,23:16:47,12:22:23,NA,incomplete,false,NA,true,7,1,NA,right,E32_Q2_ansL.png,E32_Q3_ansR.png,within,NA,NaN,NA,right,2477,1,1,23033
s6uKUrzd,NA,NA,s6uKUrzd,2020-0188,2021-09-21,23:16:47,12:22:23,NA,incomplete,false,NA,true,7,2,NA,right,E32_Q4_ansR.png,E10_Q5_ansR.png,between,NA,NaN,NA,right,1385.0000000037253,1,2,2779
s6uKUrzd,NA,NA,s6uKUrzd,2020-0188,2021-09-21,23:16:47,12:22:23,NA,incomplete,false,NA,true,7,3,NA,left,E9_Q3_ansL.png,E9_Q7_ansR.png,within,NA,NaN,NA,right,5261,0,0,1802
s6uKUrzd,NA,NA,s6uKUrzd,2020-0188,2021-09-21,23:16:47,12:22:23,NA,incomplete,false,NA,true,7,4,NA,left,E9_Q8_ansR.png,E9_Q5_ansL.png,within,NA,NaN,NA,left,2843.0000000037253,1,0,1484
s6uKUrzd,NA,NA,s6uKUrzd,2020-0188,2021-09-21,23:16:47,12:22:23,NA,incomplete,false,NA,true,7,5,NA,left,E32_Q2_ansL.png,E9_Q6_ansL.png,between,NA,NaN,NA,left,1226,1,2,1299
s6uKUrzd,NA,NA,s6uKUrzd,2020-0188,2021-09-21,23:16:47,12:22:23,NA,incomplete,false,NA,true,7,6,NA,right,E10_Q9_ansL.png,E10_Q4_ansL.png,within,NA,NaN,NA,right,3186.9999999962747,1,1,867
s6uKUrzd,NA,NA,s6uKUrzd,2020-0188,2021-09-21,23:16:47,12:22:23,NA,incomplete,false,NA,true,7,7,NA,right,E9_Q8_ansR.png,E9_Q6_ansL.png,within,NA,NaN,NA,right,1433,1,1,891
s6uKUrzd,NA,NA,s6uKUrzd,2020-0188,2021-09-21,23:16:47,12:22:23,NA,incomplete,false,NA,true,7,8,NA,left,E9_Q2_ansR.png,E9_Q9_ansL.png,within,NA,NaN,NA,left,2140,1,0,1138.9999999962747
s6uKUrzd,NA,NA,s6uKUrzd,2020-0188,2021-09-21,23:16:47,12:22:23,NA,incomplete,false,NA,true,7,9,NA,left,E10_Q6_ansR.png,E10_Q8_ansR.png,within,NA,NaN,NA,left,2221,1,1,2276
s6uKUrzd,NA,NA,s6uKUrzd,2020-0188,2021-09-21,23:16:47,12:22:23,NA,incomplete,false,NA,true,7,10,NA,left,E9_Q5_ansL.png,E9_Q10_ansR.png,within,NA,NaN,NA,right,2539.9999999962747,0,1,951.9999999962747
s6uKUrzd,NA,NA,s6uKUrzd,2020-0188,2021-09-21,23:16:47,12:22:23,NA,incomplete,false,NA,true,7,11,NA,right,E9_Q3_ansL.png,E9_Q1_ansR.png,within,NA,NaN,NA,left,5223,0,1,872.9999999962747
s6uKUrzd,NA,NA,s6uKUrzd,2020-0188,2021-09-21,23:16:47,12:22:23,NA,incomplete,false,NA,true,7,12,NA,right,E32_Q8_ansL.png,E32_Q10_ansL.png,within,NA,NaN,NA,right,1641,1,1,1753
s6uKUrzd,NA,NA,s6uKUrzd,2020-0188,2021-09-21,23:16:47,12:22:23,NA,incomplete,false,NA,true,7,13,NA,right,E32_Q5_ansR.png,E32_Q6_ansR.png,within,NA,NaN,NA,right,2104.0000000037253,1,1,892
s6uKUrzd,NA,NA,s6uKUrzd,2020-0188,2021-09-21,23:16:47,12:22:23,NA,incomplete,false,NA,true,7,14,NA,right,E10_Q5_ansR.png,E10_Q1_ansL.png,within,NA,NaN,NA,right,2827,1,0,1284
s6uKUrzd,NA,NA,s6uKUrzd,2020-0188,2021-09-21,23:16:47,12:22:23,NA,incomplete,false,NA,true,7,15,NA,right,E10_Q3_ansL.png,E10_Q7_ansR.png,within,NA,NaN,NA,left,4709,0,0,887
s6uKUrzd,NA,NA,s6uKUrzd,2020-0188,2021-09-21,23:16:47,12:22:23,NA,incomplete,false,NA,true,7,16,NA,left,E10_Q9_ansL.png,E10_Q2_ansL.png,within,NA,NaN,NA,left,2807.0000000037253,1,1,2018
s6uKUrzd,NA,NA,s6uKUrzd,2020-0188,2021-09-21,23:16:47,12:22:23,NA,incomplete,false,NA,true,7,17,NA,left,E10_Q3_ansL.png,E32_Q9_ansR.png,between,NA,NaN,NA,left,1449,1,1,1107
s6uKUrzd,NA,NA,s6uKUrzd,2020-0188,2021-09-21,23:16:47,12:22:23,NA,incomplete,false,NA,true,7,18,NA,left,E32_Q7_ansL.png,E32_Q6_ansR.png,within,NA,NaN,NA,left,3918.0000000037253,1,0,2237
s6uKUrzd,NA,NA,s6uKUrzd,2020-0188,2021-09-21,23:16:47,12:22:23,NA,incomplete,false,NA,true,7,19,NA,left,E32_Q1_ansL.png,E32_Q3_ansR.png,within,NA,NaN,NA,left,5426,1,1,816.0000000037253
s6uKUrzd,NA,NA,s6uKUrzd,2020-0188,2021-09-21,23:16:47,12:22:23,NA,incomplete,false,NA,true,7,20,NA,right,E32_Q7_ansL.png,E32_Q4_ansR.png,within,NA,NaN,NA,right,2082,1,1,1481
s6uKUrzd,NA,NA,s6uKUrzd,2020-0188,2021-09-21,23:16:47,12:22:23,NA,incomplete,false,NA,true,7,21,NA,right,E9_Q2_ansR.png,E9_Q4_ansL.png,within,NA,NaN,NA,right,2835.0000000037253,1,1,817
s6uKUrzd,NA,NA,s6uKUrzd,2020-0188,2021-09-21,23:16:47,12:22:23,NA,incomplete,false,NA,true,7,22,NA,left,E10_Q8_ansR.png,E10_Q7_ansR.png,within,NA,NaN,NA,right,5159,0,1,889
s6uKUrzd,NA,NA,s6uKUrzd,2020-0188,2021-09-21,23:16:47,12:22:23,NA,incomplete,false,NA,true,7,23,NA,right,E9_Q1_ansR.png,E32_Q8_ansL.png,between,NA,NaN,NA,right,3500,1,2,1059
s6uKUrzd,NA,NA,s6uKUrzd,2020-0188,2021-09-21,23:16:47,12:22:23,NA,incomplete,false,NA,true,7,24,NA,left,E10_Q2_ansL.png,E32_Q1_ansL.png,between,NA,NaN,NA,left,1612,1,2,924.0000000037253
s6uKUrzd,NA,NA,s6uKUrzd,2020-0188,2021-09-21,23:16:47,12:22:23,NA,incomplete,false,NA,true,7,25,NA,right,E32_Q10_ansL.png,E32_Q9_ansR.png,within,NA,NaN,NA,left,4142,0,2,1240.9999999962747
s6uKUrzd,NA,NA,s6uKUrzd,2020-0188,2021-09-21,23:16:47,12:22:23,NA,incomplete,false,NA,true,7,26,NA,left,E32_Q5_ansR.png,E9_Q4_ansL.png,between,NA,NaN,NA,right,1121.0000000037253,0,2,3080.9999999962747
s6uKUrzd,NA,NA,s6uKUrzd,2020-0188,2021-09-21,23:16:47,12:22:23,NA,incomplete,false,true,NA,8,0,E20_Q7_ansL.png,left,NA,NA,NA,left,2643,true,NA,NA,NA,NA,NA
s6uKUrzd,NA,NA,s6uKUrzd,2020-0188,2021-09-21,23:16:47,12:22:23,NA,incomplete,false,true,NA,8,1,E20_Q8_ansL.png,left,NA,NA,NA,right,1594,false,NA,NA,NA,NA,NA
s6uKUrzd,NA,NA,s6uKUrzd,2020-0188,2021-09-21,23:16:47,12:22:23,NA,incomplete,false,true,NA,8,2,E20_Q5_ansR.png,right,NA,NA,NA,right,2175,true,NA,NA,NA,NA,NA
s6uKUrzd,NA,NA,s6uKUrzd,2020-0188,2021-09-21,23:16:47,12:22:23,NA,incomplete,false,true,NA,8,3,E20_Q4_ansR.png,right,NA,NA,NA,right,1754.00000000373,true,NA,NA,NA,NA,NA
s6uKUrzd,NA,NA,s6uKUrzd,2020-0188,2021-09-21,23:16:47,12:22:23,NA,incomplete,false,true,NA,8,4,E20_Q2_ansL.png,left,NA,NA,NA,left,1538,true,NA,NA,NA,NA,NA
s6uKUrzd,NA,NA,s6uKUrzd,2020-0188,2021-09-21,23:16:47,12:22:23,NA,incomplete,false,true,NA,8,5,E20_Q10_ansL.png,left,NA,NA,NA,left,2242,true,NA,NA,NA,NA,NA
s6uKUrzd,NA,NA,s6uKUrzd,2020-0188,2021-09-21,23:16:47,12:22:23,NA,incomplete,false,true,NA,8,6,E20_Q1_ansL.png,left,NA,NA,NA,left,1902,true,NA,NA,NA,NA,NA
s6uKUrzd,NA,NA,s6uKUrzd,2020-0188,2021-09-21,23:16:47,12:22:23,NA,incomplete,false,true,NA,8,7,E20_Q9_ansR.png,right,NA,NA,NA,right,1927,true,NA,NA,NA,NA,NA
s6uKUrzd,NA,NA,s6uKUrzd,2020-0188,2021-09-21,23:16:47,12:22:23,NA,incomplete,false,true,NA,8,8,E20_Q6_ansR.png,right,NA,NA,NA,right,1915,true,NA,NA,NA,NA,NA
s6uKUrzd,NA,NA,s6uKUrzd,2020-0188,2021-09-21,23:16:47,12:22:23,NA,incomplete,false,true,NA,8,9,E20_Q3_ansR.png,right,NA,NA,NA,right,1686.99999999627,true,NA,NA,NA,NA,NA
s6uKUrzd,NA,NA,s6uKUrzd,2020-0188,2021-09-21,23:16:47,12:22:23,NA,incomplete,false,true,NA,8,10,E11_Q8_ansR.png,right,NA,NA,NA,right,2451.99999999627,true,NA,NA,NA,NA,NA
s6uKUrzd,NA,NA,s6uKUrzd,2020-0188,2021-09-21,23:16:47,12:22:23,NA,incomplete,false,true,NA,8,11,E11_Q9_ansL.png,left,NA,NA,NA,left,1351.99999999627,true,NA,NA,NA,NA,NA
s6uKUrzd,NA,NA,s6uKUrzd,2020-0188,2021-09-21,23:16:47,12:22:23,NA,incomplete,false,true,NA,8,12,E11_Q6_ansL.png,left,NA,NA,NA,left,1950.99999999627,true,NA,NA,NA,NA,NA
s6uKUrzd,NA,NA,s6uKUrzd,2020-0188,2021-09-21,23:16:47,12:22:23,NA,incomplete,false,true,NA,8,13,E11_Q7_ansR.png,right,NA,NA,NA,right,1785,true,NA,NA,NA,NA,NA
s6uKUrzd,NA,NA,s6uKUrzd,2020-0188,2021-09-21,23:16:47,12:22:23,NA,incomplete,false,true,NA,8,14,E11_Q3_ansL.png,left,NA,NA,NA,left,1537,true,NA,NA,NA,NA,NA
s6uKUrzd,NA,NA,s6uKUrzd,2020-0188,2021-09-21,23:16:47,12:22:23,NA,incomplete,false,true,NA,8,15,E11_Q2_ansR.png,right,NA,NA,NA,right,1747.99999999627,true,NA,NA,NA,NA,NA
s6uKUrzd,NA,NA,s6uKUrzd,2020-0188,2021-09-21,23:16:47,12:22:23,NA,incomplete,false,true,NA,8,16,E11_Q1_ansR.png,right,NA,NA,NA,right,1918.99999999627,true,NA,NA,NA,NA,NA
s6uKUrzd,NA,NA,s6uKUrzd,2020-0188,2021-09-21,23:16:47,12:22:23,NA,incomplete,false,true,NA,8,17,E11_Q4_ansL.png,left,NA,NA,NA,left,1385,true,NA,NA,NA,NA,NA
s6uKUrzd,NA,NA,s6uKUrzd,2020-0188,2021-09-21,23:16:47,12:22:23,NA,incomplete,false,true,NA,8,18,E11_Q10_ansR.png,right,NA,NA,NA,right,1520.99999999627,true,NA,NA,NA,NA,NA
s6uKUrzd,NA,NA,s6uKUrzd,2020-0188,2021-09-21,23:16:47,12:22:23,NA,incomplete,false,true,NA,8,19,E11_Q5_ansL.png,left,NA,NA,NA,left,1976,true,NA,NA,NA,NA,NA
s6uKUrzd,NA,NA,s6uKUrzd,2020-0188,2021-09-21,23:16:47,12:22:23,NA,incomplete,false,true,NA,8,20,E30_Q2_ansL.png,left,NA,NA,NA,none,0,false,NA,NA,NA,NA,NA
s6uKUrzd,NA,NA,s6uKUrzd,2020-0188,2021-09-21,23:16:47,12:22:23,NA,incomplete,false,true,NA,8,21,E30_Q1_ansL.png,left,NA,NA,NA,left,2203,true,NA,NA,NA,NA,NA
s6uKUrzd,NA,NA,s6uKUrzd,2020-0188,2021-09-21,23:16:47,12:22:23,NA,incomplete,false,true,NA,8,22,E30_Q7_ansL.png,left,NA,NA,NA,right,3028,false,NA,NA,NA,NA,NA
s6uKUrzd,NA,NA,s6uKUrzd,2020-0188,2021-09-21,23:16:47,12:22:23,NA,incomplete,false,true,NA,8,23,E30_Q4_ansL.png,left,NA,NA,NA,left,2432,true,NA,NA,NA,NA,NA
s6uKUrzd,NA,NA,s6uKUrzd,2020-0188,2021-09-21,23:16:47,12:22:23,NA,incomplete,false,true,NA,8,24,E30_Q9_ansL.png,left,NA,NA,NA,left,2655.00000000373,true,NA,NA,NA,NA,NA
s6uKUrzd,NA,NA,s6uKUrzd,2020-0188,2021-09-21,23:16:47,12:22:23,NA,incomplete,false,true,NA,8,25,E30_Q3_ansL.png,left,NA,NA,NA,none,0,false,NA,NA,NA,NA,NA
s6uKUrzd,NA,NA,s6uKUrzd,2020-0188,2021-09-21,23:16:47,12:22:23,NA,incomplete,false,true,NA,8,26,E30_Q10_ansR.png,right,NA,NA,NA,right,2408,true,NA,NA,NA,NA,NA
s6uKUrzd,NA,NA,s6uKUrzd,2020-0188,2021-09-21,23:16:47,12:22:23,NA,incomplete,false,true,NA,8,27,E30_Q6_ansR.png,right,NA,NA,NA,right,3480,true,NA,NA,NA,NA,NA
s6uKUrzd,NA,NA,s6uKUrzd,2020-0188,2021-09-21,23:16:47,12:22:23,NA,incomplete,false,true,NA,8,28,E30_Q5_ansR.png,right,NA,NA,NA,right,3162,true,NA,NA,NA,NA,NA
s6uKUrzd,NA,NA,s6uKUrzd,2020-0188,2021-09-21,23:16:47,12:22:23,NA,incomplete,false,true,NA,8,29,E30_Q8_ansL.png,left,NA,NA,NA,right,2708,false,NA,NA,NA,NA,NA
s6uKUrzd,NA,NA,s6uKUrzd,2020-0188,2021-09-21,23:16:47,12:22:23,NA,incomplete,false,NA,true,8,0,NA,right,E20_Q9_ansR.png,E20_Q2_ansL.png,within,NA,NaN,NA,right,9862,1,0,1323
s6uKUrzd,NA,NA,s6uKUrzd,2020-0188,2021-09-21,23:16:47,12:22:23,NA,incomplete,false,NA,true,8,1,NA,left,E11_Q6_ansL.png,E11_Q2_ansR.png,within,NA,NaN,NA,right,2154,0,1,1297
s6uKUrzd,NA,NA,s6uKUrzd,2020-0188,2021-09-21,23:16:47,12:22:23,NA,incomplete,false,NA,true,8,2,NA,left,E20_Q3_ansR.png,E11_Q6_ansL.png,between,NA,NaN,NA,left,1305,1,1,3125
s6uKUrzd,NA,NA,s6uKUrzd,2020-0188,2021-09-21,23:16:47,12:22:23,NA,incomplete,false,NA,true,8,3,NA,right,E11_Q10_ansR.png,E11_Q2_ansR.png,within,NA,NaN,NA,left,3956.9999999962747,0,1,1018
s6uKUrzd,NA,NA,s6uKUrzd,2020-0188,2021-09-21,23:16:47,12:22:23,NA,incomplete,false,NA,true,8,4,NA,left,E20_Q9_ansR.png,E11_Q8_ansR.png,between,NA,NaN,NA,right,1977,0,1,2957
s6uKUrzd,NA,NA,s6uKUrzd,2020-0188,2021-09-21,23:16:47,12:22:23,NA,incomplete,false,NA,true,8,5,NA,right,E11_Q4_ansL.png,E11_Q3_ansL.png,within,NA,NaN,NA,right,3638,1,1,1353.9999999962747
s6uKUrzd,NA,NA,s6uKUrzd,2020-0188,2021-09-21,23:16:47,12:22:23,NA,incomplete,false,NA,true,8,6,NA,right,E20_Q3_ansR.png,E20_Q1_ansL.png,within,NA,NaN,NA,left,1282.0000000037253,0,0,1140
s6uKUrzd,NA,NA,s6uKUrzd,2020-0188,2021-09-21,23:16:47,12:22:23,NA,incomplete,false,NA,true,8,7,NA,right,E20_Q4_ansR.png,E20_Q7_ansL.png,within,NA,NaN,NA,right,1889,1,0,923.0000000037253
s6uKUrzd,NA,NA,s6uKUrzd,2020-0188,2021-09-21,23:16:47,12:22:23,NA,incomplete,false,NA,true,8,8,NA,left,E11_Q7_ansR.png,E11_Q1_ansR.png,within,NA,NaN,NA,left,232580.00000000373,1,1,1243.9999999962747
s6uKUrzd,NA,NA,s6uKUrzd,2020-0188,2021-09-21,23:16:47,12:22:23,NA,incomplete,false,NA,true,8,9,NA,left,E20_Q4_ansR.png,E20_Q1_ansL.png,within,NA,NaN,NA,left,2292,1,1,1782.9999999962747
s6uKUrzd,NA,NA,s6uKUrzd,2020-0188,2021-09-21,23:16:47,12:22:23,NA,incomplete,false,NA,true,8,10,NA,left,E30_Q9_ansL.png,E30_Q6_ansR.png,within,NA,NaN,NA,left,5524,1,1,1434
s6uKUrzd,NA,NA,s6uKUrzd,2020-0188,2021-09-21,23:16:47,12:22:23,NA,incomplete,false,NA,true,8,11,NA,right,E11_Q3_ansL.png,E11_Q9_ansL.png,within,NA,NaN,NA,right,1922,1,0,1009
s6uKUrzd,NA,NA,s6uKUrzd,2020-0188,2021-09-21,23:16:47,12:22:23,NA,incomplete,false,NA,true,8,12,NA,left,E11_Q1_ansR.png,E11_Q5_ansL.png,within,NA,NaN,NA,left,4544.000000003725,1,0,2612.0000000037253
s6uKUrzd,NA,NA,s6uKUrzd,2020-0188,2021-09-21,23:16:47,12:22:23,NA,incomplete,false,NA,true,8,13,NA,left,E30_Q3_ansL.png,E30_Q5_ansR.png,within,NA,NaN,NA,left,3543.0000000037253,1,1,1161
s6uKUrzd,NA,NA,s6uKUrzd,2020-0188,2021-09-21,23:16:47,12:22:23,NA,incomplete,false,NA,true,8,14,NA,left,E20_Q6_ansR.png,E11_Q9_ansL.png,between,NA,NaN,NA,left,3392,1,2,3261
s6uKUrzd,NA,NA,s6uKUrzd,2020-0188,2021-09-21,23:16:47,12:22:23,NA,incomplete,false,NA,true,8,15,NA,left,E11_Q8_ansR.png,E11_Q7_ansR.png,within,NA,NaN,NA,left,1112.9999999962747,1,1,1283
s6uKUrzd,NA,NA,s6uKUrzd,2020-0188,2021-09-21,23:16:47,12:22:23,NA,incomplete,false,NA,true,8,16,NA,right,E30_Q1_ansL.png,E11_Q10_ansR.png,between,NA,NaN,NA,left,7351.999999996275,0,2,1388.9999999962747
s6uKUrzd,NA,NA,s6uKUrzd,2020-0188,2021-09-21,23:16:47,12:22:23,NA,incomplete,false,NA,true,8,17,NA,left,E30_Q1_ansL.png,E30_Q9_ansL.png,within,NA,NaN,NA,left,5110.000000003725,1,1,1193.0000000037253
s6uKUrzd,NA,NA,s6uKUrzd,2020-0188,2021-09-21,23:16:47,12:22:23,NA,incomplete,false,NA,true,8,18,NA,right,E20_Q6_ansR.png,E20_Q10_ansL.png,within,NA,NaN,NA,left,5409,0,1,1113
s6uKUrzd,NA,NA,s6uKUrzd,2020-0188,2021-09-21,23:16:47,12:22:23,NA,incomplete,false,NA,true,8,19,NA,right,E20_Q10_ansL.png,E20_Q5_ansR.png,within,NA,NaN,NA,right,1136,1,1,7577.000000003725
s6uKUrzd,NA,NA,s6uKUrzd,2020-0188,2021-09-21,23:16:47,12:22:23,NA,incomplete,false,NA,true,8,20,NA,right,E20_Q2_ansL.png,E20_Q8_ansL.png,within,NA,NaN,NA,right,2162,1,1,1261
s6uKUrzd,NA,NA,s6uKUrzd,2020-0188,2021-09-21,23:16:47,12:22:23,NA,incomplete,false,NA,true,8,21,NA,right,E30_Q10_ansR.png,E30_Q4_ansL.png,within,NA,NaN,NA,right,158036,1,1,7682.999999996275
s6uKUrzd,NA,NA,s6uKUrzd,2020-0188,2021-09-21,23:16:47,12:22:23,NA,incomplete,false,NA,true,8,22,NA,right,E30_Q7_ansL.png,E11_Q5_ansL.png,between,NA,NaN,NA,left,191381,0,1,1353.9999999962747
s6uKUrzd,NA,NA,s6uKUrzd,2020-0188,2021-09-21,23:16:47,12:22:23,NA,incomplete,false,NA,true,8,23,NA,right,E30_Q3_ansL.png,E30_Q7_ansL.png,within,NA,NaN,NA,left,101693.99999999627,0,1,1357.9999999962747
s6uKUrzd,NA,NA,s6uKUrzd,2020-0188,2021-09-21,23:16:47,12:22:23,NA,incomplete,false,NA,true,8,24,NA,right,E30_Q4_ansL.png,E30_Q2_ansL.png,within,NA,NaN,NA,left,8635,0,1,1162
s6uKUrzd,NA,NA,s6uKUrzd,2020-0188,2021-09-21,23:16:47,12:22:23,NA,incomplete,false,NA,true,8,25,NA,right,E30_Q8_ansL.png,E30_Q10_ansR.png,within,NA,NaN,NA,right,9247,1,1,1315
s6uKUrzd,NA,NA,s6uKUrzd,2020-0188,2021-09-21,23:16:47,12:22:23,NA,incomplete,false,NA,true,8,26,NA,left,E11_Q4_ansL.png,E30_Q2_ansL.png,between,NA,NaN,NA,left,1658,1,1,2326
s6uKUrzd,NA,NA,s6uKUrzd,2020-0188,2021-09-21,23:16:47,12:22:23,NA,incomplete,false,true,NA,9,0,E19_Q7_ansL.png,left,NA,NA,NA,left,2554,true,NA,NA,NA,NA,NA
s6uKUrzd,NA,NA,s6uKUrzd,2020-0188,2021-09-21,23:16:47,12:22:23,NA,incomplete,false,true,NA,9,1,E19_Q1_ansL.png,left,NA,NA,NA,left,2128,true,NA,NA,NA,NA,NA
s6uKUrzd,NA,NA,s6uKUrzd,2020-0188,2021-09-21,23:16:47,12:22:23,NA,incomplete,false,true,NA,9,2,E19_Q8_ansL.png,left,NA,NA,NA,left,2731,true,NA,NA,NA,NA,NA
s6uKUrzd,NA,NA,s6uKUrzd,2020-0188,2021-09-21,23:16:47,12:22:23,NA,incomplete,false,true,NA,9,3,E19_Q2_ansL.png,left,NA,NA,NA,left,1573,true,NA,NA,NA,NA,NA
s6uKUrzd,NA,NA,s6uKUrzd,2020-0188,2021-09-21,23:16:47,12:22:23,NA,incomplete,false,true,NA,9,4,E19_Q6_ansR.png,right,NA,NA,NA,right,1933,true,NA,NA,NA,NA,NA
s6uKUrzd,NA,NA,s6uKUrzd,2020-0188,2021-09-21,23:16:47,12:22:23,NA,incomplete,false,true,NA,9,5,E19_Q10_ansL.png,left,NA,NA,NA,left,2127,true,NA,NA,NA,NA,NA
s6uKUrzd,NA,NA,s6uKUrzd,2020-0188,2021-09-21,23:16:47,12:22:23,NA,incomplete,false,true,NA,9,6,E19_Q5_ansR.png,right,NA,NA,NA,right,1565,true,NA,NA,NA,NA,NA
s6uKUrzd,NA,NA,s6uKUrzd,2020-0188,2021-09-21,23:16:47,12:22:23,NA,incomplete,false,true,NA,9,7,E19_Q9_ansR.png,right,NA,NA,NA,right,1724,true,NA,NA,NA,NA,NA
s6uKUrzd,NA,NA,s6uKUrzd,2020-0188,2021-09-21,23:16:47,12:22:23,NA,incomplete,false,true,NA,9,8,E19_Q4_ansR.png,right,NA,NA,NA,right,1394,true,NA,NA,NA,NA,NA
s6uKUrzd,NA,NA,s6uKUrzd,2020-0188,2021-09-21,23:16:47,12:22:23,NA,incomplete,false,true,NA,9,9,E19_Q3_ansR.png,right,NA,NA,NA,right,1582,true,NA,NA,NA,NA,NA
s6uKUrzd,NA,NA,s6uKUrzd,2020-0188,2021-09-21,23:16:47,12:22:23,NA,incomplete,false,true,NA,9,10,E31_Q8_ansR.png,right,NA,NA,NA,right,3006,true,NA,NA,NA,NA,NA
s6uKUrzd,NA,NA,s6uKUrzd,2020-0188,2021-09-21,23:16:47,12:22:23,NA,incomplete,false,true,NA,9,11,E31_Q4_ansL.png,left,NA,NA,NA,left,2455,true,NA,NA,NA,NA,NA
s6uKUrzd,NA,NA,s6uKUrzd,2020-0188,2021-09-21,23:16:47,12:22:23,NA,incomplete,false,true,NA,9,12,E31_Q6_ansL.png,left,NA,NA,NA,left,2316,true,NA,NA,NA,NA,NA
s6uKUrzd,NA,NA,s6uKUrzd,2020-0188,2021-09-21,23:16:47,12:22:23,NA,incomplete,false,true,NA,9,13,E31_Q10_ansR.png,right,NA,NA,NA,right,2063,true,NA,NA,NA,NA,NA
s6uKUrzd,NA,NA,s6uKUrzd,2020-0188,2021-09-21,23:16:47,12:22:23,NA,incomplete,false,true,NA,9,14,E31_Q2_ansR.png,right,NA,NA,NA,right,1537,true,NA,NA,NA,NA,NA
s6uKUrzd,NA,NA,s6uKUrzd,2020-0188,2021-09-21,23:16:47,12:22:23,NA,incomplete,false,true,NA,9,15,E31_Q1_ansR.png,right,NA,NA,NA,right,1490.99999999627,true,NA,NA,NA,NA,NA
s6uKUrzd,NA,NA,s6uKUrzd,2020-0188,2021-09-21,23:16:47,12:22:23,NA,incomplete,false,true,NA,9,16,E31_Q9_ansL.png,left,NA,NA,NA,left,2021.99999999627,true,NA,NA,NA,NA,NA
s6uKUrzd,NA,NA,s6uKUrzd,2020-0188,2021-09-21,23:16:47,12:22:23,NA,incomplete,false,true,NA,9,17,E31_Q7_ansR.png,right,NA,NA,NA,right,1810.99999999627,true,NA,NA,NA,NA,NA
s6uKUrzd,NA,NA,s6uKUrzd,2020-0188,2021-09-21,23:16:47,12:22:23,NA,incomplete,false,true,NA,9,18,E31_Q3_ansL.png,left,NA,NA,NA,left,1405.99999999627,true,NA,NA,NA,NA,NA
s6uKUrzd,NA,NA,s6uKUrzd,2020-0188,2021-09-21,23:16:47,12:22:23,NA,incomplete,false,true,NA,9,19,E31_Q5_ansL.png,left,NA,NA,NA,left,2128.99999999627,true,NA,NA,NA,NA,NA
s6uKUrzd,NA,NA,s6uKUrzd,2020-0188,2021-09-21,23:16:47,12:22:23,NA,incomplete,false,true,NA,9,20,E24_Q6_ansL.png,left,NA,NA,NA,left,2156.99999999627,true,NA,NA,NA,NA,NA
s6uKUrzd,NA,NA,s6uKUrzd,2020-0188,2021-09-21,23:16:47,12:22:23,NA,incomplete,false,true,NA,9,21,E24_Q9_ansL.png,left,NA,NA,NA,left,2698,true,NA,NA,NA,NA,NA
s6uKUrzd,NA,NA,s6uKUrzd,2020-0188,2021-09-21,23:16:47,12:22:23,NA,incomplete,false,true,NA,9,22,E24_Q10_ansR.png,right,NA,NA,NA,right,1704,true,NA,NA,NA,NA,NA
s6uKUrzd,NA,NA,s6uKUrzd,2020-0188,2021-09-21,23:16:47,12:22:23,NA,incomplete,false,true,NA,9,23,E24_Q4_ansL.png,left,NA,NA,NA,left,1978.00000000373,true,NA,NA,NA,NA,NA
s6uKUrzd,NA,NA,s6uKUrzd,2020-0188,2021-09-21,23:16:47,12:22:23,NA,incomplete,false,true,NA,9,24,E24_Q2_ansR.png,right,NA,NA,NA,right,1637.00000000373,true,NA,NA,NA,NA,NA
s6uKUrzd,NA,NA,s6uKUrzd,2020-0188,2021-09-21,23:16:47,12:22:23,NA,incomplete,false,true,NA,9,25,E24_Q3_ansL.png,left,NA,NA,NA,left,1531.00000000373,true,NA,NA,NA,NA,NA
s6uKUrzd,NA,NA,s6uKUrzd,2020-0188,2021-09-21,23:16:47,12:22:23,NA,incomplete,false,true,NA,9,26,E24_Q5_ansL.png,left,NA,NA,NA,left,1700,true,NA,NA,NA,NA,NA
s6uKUrzd,NA,NA,s6uKUrzd,2020-0188,2021-09-21,23:16:47,12:22:23,NA,incomplete,false,true,NA,9,27,E24_Q1_ansR.png,right,NA,NA,NA,right,1880,true,NA,NA,NA,NA,NA
s6uKUrzd,NA,NA,s6uKUrzd,2020-0188,2021-09-21,23:16:47,12:22:23,NA,incomplete,false,true,NA,9,28,E24_Q7_ansR.png,right,NA,NA,NA,right,2100.00000000373,true,NA,NA,NA,NA,NA
s6uKUrzd,NA,NA,s6uKUrzd,2020-0188,2021-09-21,23:16:47,12:22:23,NA,incomplete,false,true,NA,9,29,E24_Q8_ansR.png,right,NA,NA,NA,right,1574,true,NA,NA,NA,NA,NA
s6uKUrzd,NA,NA,s6uKUrzd,2020-0188,2021-09-21,23:16:47,12:22:23,NA,incomplete,false,NA,true,9,0,NA,right,E24_Q3_ansL.png,E24_Q10_ansR.png,within,NA,NaN,NA,right,3703.9999999962747,1,1,1386
s6uKUrzd,NA,NA,s6uKUrzd,2020-0188,2021-09-21,23:16:47,12:22:23,NA,incomplete,false,NA,true,9,1,NA,right,E31_Q10_ansR.png,E31_Q8_ansR.png,within,NA,NaN,NA,right,1810.9999999925494,1,1,1572.9999999962747
s6uKUrzd,NA,NA,s6uKUrzd,2020-0188,2021-09-21,23:16:47,12:22:23,NA,incomplete,false,NA,true,9,2,NA,right,E31_Q2_ansR.png,E31_Q4_ansL.png,within,NA,NaN,NA,right,23485.999999996275,1,1,1288
s6uKUrzd,NA,NA,s6uKUrzd,2020-0188,2021-09-21,23:16:47,12:22:23,NA,incomplete,false,NA,true,9,3,NA,left,E24_Q2_ansR.png,E24_Q1_ansR.png,within,NA,NaN,NA,left,2184,1,1,1114.9999999962747
s6uKUrzd,NA,NA,s6uKUrzd,2020-0188,2021-09-21,23:16:47,12:22:23,NA,incomplete,false,NA,true,9,4,NA,left,E31_Q6_ansL.png,E31_Q1_ansR.png,within,NA,NaN,NA,left,2803,1,1,1025
s6uKUrzd,NA,NA,s6uKUrzd,2020-0188,2021-09-21,23:16:47,12:22:23,NA,incomplete,false,NA,true,9,5,NA,right,E31_Q5_ansL.png,E31_Q9_ansL.png,within,NA,NaN,NA,right,1063.9999999962747,1,0,2692
s6uKUrzd,NA,NA,s6uKUrzd,2020-0188,2021-09-21,23:16:47,12:22:23,NA,incomplete,false,NA,true,9,6,NA,left,E31_Q10_ansR.png,E31_Q9_ansL.png,within,NA,NaN,NA,left,1033.0000000037253,1,1,1481
s6uKUrzd,NA,NA,s6uKUrzd,2020-0188,2021-09-21,23:16:47,12:22:23,NA,incomplete,false,NA,true,9,7,NA,right,E24_Q2_ansR.png,E24_Q9_ansL.png,within,NA,NaN,NA,left,6656.999999996275,0,1,1057
s6uKUrzd,NA,NA,s6uKUrzd,2020-0188,2021-09-21,23:16:47,12:22:23,NA,incomplete,false,NA,true,9,8,NA,left,E31_Q7_ansR.png,E24_Q6_ansL.png,between,NA,NaN,NA,left,985,1,1,1331.9999999925494
s6uKUrzd,NA,NA,s6uKUrzd,2020-0188,2021-09-21,23:16:47,12:22:23,NA,incomplete,false,NA,true,9,9,NA,right,E19_Q9_ansR.png,E19_Q6_ansR.png,within,NA,NaN,NA,left,10663,0,2,9805
s6uKUrzd,NA,NA,s6uKUrzd,2020-0188,2021-09-21,23:16:47,12:22:23,NA,incomplete,false,NA,true,9,10,NA,right,E31_Q7_ansR.png,E31_Q2_ansR.png,within,NA,NaN,NA,right,1553,1,1,1052
s6uKUrzd,NA,NA,s6uKUrzd,2020-0188,2021-09-21,23:16:47,12:22:23,NA,incomplete,false,NA,true,9,11,NA,right,E24_Q10_ansR.png,E31_Q5_ansL.png,between,NA,NaN,NA,right,1472,1,2,1762.9999999962747
s6uKUrzd,NA,NA,s6uKUrzd,2020-0188,2021-09-21,23:16:47,12:22:23,NA,incomplete,false,NA,true,9,12,NA,left,E19_Q4_ansR.png,E31_Q4_ansL.png,between,NA,NaN,NA,right,4629,0,3,1065.9999999962747
s6uKUrzd,NA,NA,s6uKUrzd,2020-0188,2021-09-21,23:16:47,12:22:23,NA,incomplete,false,NA,true,9,13,NA,left,E19_Q9_ansR.png,E31_Q8_ansR.png,between,NA,NaN,NA,right,913,0,2,1763
s6uKUrzd,NA,NA,s6uKUrzd,2020-0188,2021-09-21,23:16:47,12:22:23,NA,incomplete,false,NA,true,9,14,NA,left,E24_Q3_ansL.png,E24_Q7_ansR.png,within,NA,NaN,NA,left,1329.0000000074506,1,1,1949
s6uKUrzd,NA,NA,s6uKUrzd,2020-0188,2021-09-21,23:16:47,12:22:23,NA,incomplete,false,NA,true,9,15,NA,left,E31_Q3_ansL.png,E24_Q9_ansL.png,between,NA,NaN,NA,left,2396,1,1,1034
s6uKUrzd,NA,NA,s6uKUrzd,2020-0188,2021-09-21,23:16:47,12:22:23,NA,incomplete,false,NA,true,9,16,NA,left,E19_Q1_ansL.png,E19_Q6_ansR.png,within,NA,NaN,NA,left,1375.9999999962747,1,1,1363.0000000037253
s6uKUrzd,NA,NA,s6uKUrzd,2020-0188,2021-09-21,23:16:47,12:22:23,NA,incomplete,false,NA,true,9,17,NA,left,E19_Q3_ansR.png,E31_Q6_ansL.png,between,NA,NaN,NA,right,1754,0,2,922
s6uKUrzd,NA,NA,s6uKUrzd,2020-0188,2021-09-21,23:16:47,12:22:23,NA,incomplete,false,NA,true,9,18,NA,left,E24_Q4_ansL.png,E24_Q5_ansL.png,within,NA,NaN,NA,left,2036,1,1,1259.9999999962747
s6uKUrzd,NA,NA,s6uKUrzd,2020-0188,2021-09-21,23:16:47,12:22:23,NA,incomplete,false,NA,true,9,19,NA,left,E31_Q1_ansR.png,E31_Q3_ansL.png,within,NA,NaN,NA,left,1818,1,1,1186.9999999962747
s6uKUrzd,NA,NA,s6uKUrzd,2020-0188,2021-09-21,23:16:47,12:22:23,NA,incomplete,false,NA,true,9,20,NA,right,E24_Q8_ansR.png,E24_Q5_ansL.png,within,NA,NaN,NA,left,1762.9999999962747,0,1,3348.9999999925494
s6uKUrzd,NA,NA,s6uKUrzd,2020-0188,2021-09-21,23:16:47,12:22:23,NA,incomplete,false,NA,true,9,21,NA,left,E19_Q8_ansL.png,E19_Q10_ansL.png,within,NA,NaN,NA,left,1402.9999999962747,1,1,1818.9999999962747
s6uKUrzd,NA,NA,s6uKUrzd,2020-0188,2021-09-21,23:16:47,12:22:23,NA,incomplete,false,NA,true,9,22,NA,left,E19_Q2_ansL.png,E19_Q5_ansR.png,within,NA,NaN,NA,left,1017,1,0,1298.0000000037253
s6uKUrzd,NA,NA,s6uKUrzd,2020-0188,2021-09-21,23:16:47,12:22:23,NA,incomplete,false,NA,true,9,23,NA,right,E19_Q2_ansL.png,E19_Q7_ansL.png,within,NA,NaN,NA,right,4818.999999996275,1,1,1314.9999999962747
s6uKUrzd,NA,NA,s6uKUrzd,2020-0188,2021-09-21,23:16:47,12:22:23,NA,incomplete,false,NA,true,9,24,NA,left,E24_Q6_ansL.png,E24_Q4_ansL.png,within,NA,NaN,NA,right,2499.0000000037253,0,1,971.0000000037253
s6uKUrzd,NA,NA,s6uKUrzd,2020-0188,2021-09-21,23:16:47,12:22:23,NA,incomplete,false,NA,true,9,25,NA,left,E19_Q10_ansL.png,E19_Q4_ansR.png,within,NA,NaN,NA,right,1120.9999999962747,0,1,1099.9999999962747
s6uKUrzd,NA,NA,s6uKUrzd,2020-0188,2021-09-21,23:16:47,12:22:23,NA,incomplete,false,NA,true,9,26,NA,left,E19_Q5_ansR.png,E19_Q3_ansR.png,within,NA,NaN,NA,right,2161,0,1,1442.0000000037253
s6uKUrzd,NA,NA,s6uKUrzd,2020-0188,2021-09-21,23:16:47,12:22:23,NA,incomplete,false,true,NA,10,0,E6_Q5_ansR.png,right,NA,NA,NA,right,1899.00000000373,true,NA,NA,NA,NA,NA
s6uKUrzd,NA,NA,s6uKUrzd,2020-0188,2021-09-21,23:16:47,12:22:23,NA,incomplete,false,true,NA,10,1,E6_Q8_ansL.png,left,NA,NA,NA,left,2067,true,NA,NA,NA,NA,NA
s6uKUrzd,NA,NA,s6uKUrzd,2020-0188,2021-09-21,23:16:47,12:22:23,NA,incomplete,false,true,NA,10,2,E6_Q9_ansL.png,left,NA,NA,NA,left,1795.00000000373,true,NA,NA,NA,NA,NA
s6uKUrzd,NA,NA,s6uKUrzd,2020-0188,2021-09-21,23:16:47,12:22:23,NA,incomplete,false,true,NA,10,3,E6_Q1_ansL.png,left,NA,NA,NA,left,1781.99999999627,true,NA,NA,NA,NA,NA
s6uKUrzd,NA,NA,s6uKUrzd,2020-0188,2021-09-21,23:16:47,12:22:23,NA,incomplete,false,true,NA,10,4,E6_Q3_ansR.png,right,NA,NA,NA,right,1911,true,NA,NA,NA,NA,NA
s6uKUrzd,NA,NA,s6uKUrzd,2020-0188,2021-09-21,23:16:47,12:22:23,NA,incomplete,false,true,NA,10,5,E6_Q7_ansL.png,left,NA,NA,NA,left,1858,true,NA,NA,NA,NA,NA
s6uKUrzd,NA,NA,s6uKUrzd,2020-0188,2021-09-21,23:16:47,12:22:23,NA,incomplete,false,true,NA,10,6,E6_Q4_ansR.png,right,NA,NA,NA,right,3169.99999999627,true,NA,NA,NA,NA,NA
s6uKUrzd,NA,NA,s6uKUrzd,2020-0188,2021-09-21,23:16:47,12:22:23,NA,incomplete,false,true,NA,10,7,E6_Q10_ansL.png,left,NA,NA,NA,left,2446.00000000373,true,NA,NA,NA,NA,NA
s6uKUrzd,NA,NA,s6uKUrzd,2020-0188,2021-09-21,23:16:47,12:22:23,NA,incomplete,false,true,NA,10,8,E6_Q6_ansR.png,right,NA,NA,NA,right,1476.00000000373,true,NA,NA,NA,NA,NA
s6uKUrzd,NA,NA,s6uKUrzd,2020-0188,2021-09-21,23:16:47,12:22:23,NA,incomplete,false,true,NA,10,9,E6_Q2_ansL.png,left,NA,NA,NA,left,1996,true,NA,NA,NA,NA,NA
s6uKUrzd,NA,NA,s6uKUrzd,2020-0188,2021-09-21,23:16:47,12:22:23,NA,incomplete,false,true,NA,10,10,E28_Q5_ansL.png,left,NA,NA,NA,left,2253.99999999255,true,NA,NA,NA,NA,NA
s6uKUrzd,NA,NA,s6uKUrzd,2020-0188,2021-09-21,23:16:47,12:22:23,NA,incomplete,false,true,NA,10,11,E28_Q4_ansL.png,left,NA,NA,NA,left,1952.99999999627,true,NA,NA,NA,NA,NA
s6uKUrzd,NA,NA,s6uKUrzd,2020-0188,2021-09-21,23:16:47,12:22:23,NA,incomplete,false,true,NA,10,12,E28_Q3_ansL.png,left,NA,NA,NA,left,2481,true,NA,NA,NA,NA,NA
s6uKUrzd,NA,NA,s6uKUrzd,2020-0188,2021-09-21,23:16:47,12:22:23,NA,incomplete,false,true,NA,10,13,E28_Q6_ansL.png,left,NA,NA,NA,left,1564,true,NA,NA,NA,NA,NA
s6uKUrzd,NA,NA,s6uKUrzd,2020-0188,2021-09-21,23:16:47,12:22:23,NA,incomplete,false,true,NA,10,14,E28_Q9_ansL.png,left,NA,NA,NA,left,1512.00000000373,true,NA,NA,NA,NA,NA
s6uKUrzd,NA,NA,s6uKUrzd,2020-0188,2021-09-21,23:16:47,12:22:23,NA,incomplete,false,true,NA,10,15,E28_Q2_ansR.png,right,NA,NA,NA,right,1912.00000000373,true,NA,NA,NA,NA,NA
s6uKUrzd,NA,NA,s6uKUrzd,2020-0188,2021-09-21,23:16:47,12:22:23,NA,incomplete,false,true,NA,10,16,E28_Q1_ansR.png,right,NA,NA,NA,right,2356,true,NA,NA,NA,NA,NA
s6uKUrzd,NA,NA,s6uKUrzd,2020-0188,2021-09-21,23:16:47,12:22:23,NA,incomplete,false,true,NA,10,17,E28_Q10_ansR.png,right,NA,NA,NA,right,2588.00000000373,true,NA,NA,NA,NA,NA
