workerId,hitId,assignmentId,subject,studyid,exp_date,exp_start,exp_end,time_start,time_end,practice,encoding,memory,block,trial,stim,answer,left_image,right_image,condition,response,response_time,response_acc,order_response,order_response_time,order_acc,distance_response,distance_response_time
t53MoJEb,NA,NA,t53MoJEb,2020-0188,2021-11-15,17:27:21,18:59:23,NA,incomplete,true,true,NA,0,0,E1_Q3_ansR.png,right,NA,NA,NA,right,2529.5,true,NA,NA,NA,NA,NA
t53MoJEb,NA,NA,t53MoJEb,2020-0188,2021-11-15,17:27:21,18:59:23,NA,incomplete,true,true,NA,0,1,E1_Q2_ansL.png,left,NA,NA,NA,left,1452,true,NA,NA,NA,NA,NA
t53MoJEb,NA,NA,t53MoJEb,2020-0188,2021-11-15,17:27:21,18:59:23,NA,incomplete,true,true,NA,0,2,E1_Q1_ansL.png,left,NA,NA,NA,left,1764.5,true,NA,NA,NA,NA,NA
t53MoJEb,NA,NA,t53MoJEb,2020-0188,2021-11-15,17:27:21,18:59:23,NA,incomplete,true,true,NA,0,3,E1_Q9_ansL.png,left,NA,NA,NA,left,950.20000000298,true,NA,NA,NA,NA,NA
t53MoJEb,NA,NA,t53MoJEb,2020-0188,2021-11-15,17:27:21,18:59:23,NA,incomplete,true,true,NA,0,4,E1_Q4_ansL.png,left,NA,NA,NA,left,1850,true,NA,NA,NA,NA,NA
t53MoJEb,NA,NA,t53MoJEb,2020-0188,2021-11-15,17:27:21,18:59:23,NA,incomplete,true,true,NA,0,5,E1_Q8_ansR.png,right,NA,NA,NA,left,1606.5,false,NA,NA,NA,NA,NA
t53MoJEb,NA,NA,t53MoJEb,2020-0188,2021-11-15,17:27:21,18:59:23,NA,incomplete,true,true,NA,0,6,E1_Q5_ansR.png,right,NA,NA,NA,right,1993.39999999106,true,NA,NA,NA,NA,NA
t53MoJEb,NA,NA,t53MoJEb,2020-0188,2021-11-15,17:27:21,18:59:23,NA,incomplete,true,true,NA,0,7,E1_Q7_ansL.png,left,NA,NA,NA,left,1109.5,true,NA,NA,NA,NA,NA
t53MoJEb,NA,NA,t53MoJEb,2020-0188,2021-11-15,17:27:21,18:59:23,NA,incomplete,true,true,NA,0,8,E1_Q10_ansR.png,right,NA,NA,NA,right,1290.60000000894,true,NA,NA,NA,NA,NA
t53MoJEb,NA,NA,t53MoJEb,2020-0188,2021-11-15,17:27:21,18:59:23,NA,incomplete,true,true,NA,0,9,E1_Q6_ansR.png,right,NA,NA,NA,right,944,true,NA,NA,NA,NA,NA
t53MoJEb,NA,NA,t53MoJEb,2020-0188,2021-11-15,17:27:21,18:59:23,NA,incomplete,true,true,NA,0,10,E9_Q3_ansL.png,left,NA,NA,NA,left,2186.59999999404,true,NA,NA,NA,NA,NA
t53MoJEb,NA,NA,t53MoJEb,2020-0188,2021-11-15,17:27:21,18:59:23,NA,incomplete,true,true,NA,0,11,E9_Q10_ansR.png,right,NA,NA,NA,right,1395.40000000596,true,NA,NA,NA,NA,NA
t53MoJEb,NA,NA,t53MoJEb,2020-0188,2021-11-15,17:27:21,18:59:23,NA,incomplete,true,true,NA,0,12,E9_Q7_ansR.png,right,NA,NA,NA,right,1162.79999999702,true,NA,NA,NA,NA,NA
t53MoJEb,NA,NA,t53MoJEb,2020-0188,2021-11-15,17:27:21,18:59:23,NA,incomplete,true,true,NA,0,13,E9_Q1_ansR.png,right,NA,NA,NA,right,1298.70000000298,true,NA,NA,NA,NA,NA
t53MoJEb,NA,NA,t53MoJEb,2020-0188,2021-11-15,17:27:21,18:59:23,NA,incomplete,true,true,NA,0,14,E9_Q6_ansL.png,left,NA,NA,NA,left,1774.79999999702,true,NA,NA,NA,NA,NA
t53MoJEb,NA,NA,t53MoJEb,2020-0188,2021-11-15,17:27:21,18:59:23,NA,incomplete,true,true,NA,0,15,E9_Q2_ansR.png,right,NA,NA,NA,right,1385.09999999404,true,NA,NA,NA,NA,NA
t53MoJEb,NA,NA,t53MoJEb,2020-0188,2021-11-15,17:27:21,18:59:23,NA,incomplete,true,true,NA,0,16,E9_Q8_ansR.png,right,NA,NA,NA,right,1497.5,true,NA,NA,NA,NA,NA
t53MoJEb,NA,NA,t53MoJEb,2020-0188,2021-11-15,17:27:21,18:59:23,NA,incomplete,true,true,NA,0,17,E9_Q9_ansL.png,left,NA,NA,NA,left,1292.79999999702,true,NA,NA,NA,NA,NA
t53MoJEb,NA,NA,t53MoJEb,2020-0188,2021-11-15,17:27:21,18:59:23,NA,incomplete,true,true,NA,0,18,E9_Q4_ansL.png,left,NA,NA,NA,left,1509.90000000596,true,NA,NA,NA,NA,NA
t53MoJEb,NA,NA,t53MoJEb,2020-0188,2021-11-15,17:27:21,18:59:23,NA,incomplete,true,true,NA,0,19,E9_Q5_ansL.png,left,NA,NA,NA,right,1462.10000000894,false,NA,NA,NA,NA,NA
t53MoJEb,NA,NA,t53MoJEb,2020-0188,2021-11-15,17:27:21,18:59:23,NA,incomplete,true,true,NA,0,20,E7_Q4_ansR.png,right,NA,NA,NA,right,2192.09999999404,true,NA,NA,NA,NA,NA
t53MoJEb,NA,NA,t53MoJEb,2020-0188,2021-11-15,17:27:21,18:59:23,NA,incomplete,true,true,NA,0,21,E7_Q6_ansR.png,right,NA,NA,NA,right,1936.19999998808,true,NA,NA,NA,NA,NA
t53MoJEb,NA,NA,t53MoJEb,2020-0188,2021-11-15,17:27:21,18:59:23,NA,incomplete,true,true,NA,0,22,E7_Q10_ansR.png,right,NA,NA,NA,right,1943.19999998808,true,NA,NA,NA,NA,NA
t53MoJEb,NA,NA,t53MoJEb,2020-0188,2021-11-15,17:27:21,18:59:23,NA,incomplete,true,true,NA,0,23,E7_Q1_ansL.png,left,NA,NA,NA,left,1435.20000000298,true,NA,NA,NA,NA,NA
t53MoJEb,NA,NA,t53MoJEb,2020-0188,2021-11-15,17:27:21,18:59:23,NA,incomplete,true,true,NA,0,24,E7_Q5_ansR.png,right,NA,NA,NA,right,2770.40000000596,true,NA,NA,NA,NA,NA
t53MoJEb,NA,NA,t53MoJEb,2020-0188,2021-11-15,17:27:21,18:59:23,NA,incomplete,true,true,NA,0,25,E7_Q8_ansL.png,left,NA,NA,NA,left,1704.59999999404,true,NA,NA,NA,NA,NA
t53MoJEb,NA,NA,t53MoJEb,2020-0188,2021-11-15,17:27:21,18:59:23,NA,incomplete,true,true,NA,0,26,E7_Q9_ansR.png,right,NA,NA,NA,right,1860.70000000298,true,NA,NA,NA,NA,NA
t53MoJEb,NA,NA,t53MoJEb,2020-0188,2021-11-15,17:27:21,18:59:23,NA,incomplete,true,true,NA,0,27,E7_Q7_ansL.png,left,NA,NA,NA,left,1514.80000001192,true,NA,NA,NA,NA,NA
t53MoJEb,NA,NA,t53MoJEb,2020-0188,2021-11-15,17:27:21,18:59:23,NA,incomplete,true,true,NA,0,28,E7_Q3_ansR.png,right,NA,NA,NA,right,1398.80000001192,true,NA,NA,NA,NA,NA
t53MoJEb,NA,NA,t53MoJEb,2020-0188,2021-11-15,17:27:21,18:59:23,NA,incomplete,true,true,NA,0,29,E7_Q2_ansL.png,left,NA,NA,NA,left,1432,true,NA,NA,NA,NA,NA
t53MoJEb,NA,NA,t53MoJEb,2020-0188,2021-11-15,17:27:21,18:59:23,NA,incomplete,true,NA,true,0,0,NA,left,E9_Q2_ansR.png,E9_Q4_ansL.png,within,NA,NaN,NA,left,10193.89999999106,1,1,2303.7999999970198
t53MoJEb,NA,NA,t53MoJEb,2020-0188,2021-11-15,17:27:21,18:59:23,NA,incomplete,true,NA,true,0,1,NA,right,E9_Q5_ansL.png,E9_Q8_ansR.png,within,NA,NaN,NA,left,2402.5,0,1,1226.300000011921
t53MoJEb,NA,NA,t53MoJEb,2020-0188,2021-11-15,17:27:21,18:59:23,NA,incomplete,true,NA,true,0,2,NA,left,E7_Q5_ansR.png,E7_Q7_ansL.png,within,NA,NaN,NA,left,1547.7999999970198,1,1,1177.3999999910593
t53MoJEb,NA,NA,t53MoJEb,2020-0188,2021-11-15,17:27:21,18:59:23,NA,incomplete,true,NA,true,0,3,NA,right,E9_Q10_ansR.png,E1_Q10_ansR.png,between,NA,NaN,NA,right,2929.5999999940395,1,1,1604.8999999910593
t53MoJEb,NA,NA,t53MoJEb,2020-0188,2021-11-15,17:27:21,18:59:23,NA,incomplete,true,NA,true,0,4,NA,left,E1_Q3_ansR.png,E1_Q9_ansL.png,within,NA,NaN,NA,left,11739.300000011921,1,1,4034.8999999910593
t53MoJEb,NA,NA,t53MoJEb,2020-0188,2021-11-15,17:27:21,18:59:23,NA,incomplete,true,NA,true,0,5,NA,left,E1_Q2_ansL.png,E1_Q4_ansL.png,within,NA,NaN,NA,right,6058.79999999702,0,1,1068.5999999940395
t53MoJEb,NA,NA,t53MoJEb,2020-0188,2021-11-15,17:27:21,18:59:23,NA,incomplete,true,NA,true,0,6,NA,right,E9_Q2_ansR.png,E9_Q7_ansR.png,within,NA,NaN,NA,left,11852.40000000596,0,1,1143.8999999910593
t53MoJEb,NA,NA,t53MoJEb,2020-0188,2021-11-15,17:27:21,18:59:23,NA,incomplete,true,NA,true,0,7,NA,left,E7_Q8_ansL.png,E7_Q3_ansR.png,within,NA,NaN,NA,right,2004.7000000029802,0,2,831.2000000029802
t53MoJEb,NA,NA,t53MoJEb,2020-0188,2021-11-15,17:27:21,18:59:23,NA,incomplete,true,NA,true,0,8,NA,right,E7_Q9_ansR.png,E7_Q1_ansL.png,within,NA,NaN,NA,right,3851.9000000059605,1,1,1372.9000000059605
t53MoJEb,NA,NA,t53MoJEb,2020-0188,2021-11-15,17:27:21,18:59:23,NA,incomplete,true,NA,true,0,9,NA,left,E9_Q9_ansL.png,E7_Q4_ansR.png,between,NA,NaN,NA,right,2083.0999999940395,0,2,904.5999999940395
t53MoJEb,NA,NA,t53MoJEb,2020-0188,2021-11-15,17:27:21,18:59:23,NA,incomplete,true,NA,true,0,10,NA,left,E1_Q1_ansL.png,E1_Q8_ansR.png,within,NA,NaN,NA,right,9068.79999999702,0,1,14778.79999999702
t53MoJEb,NA,NA,t53MoJEb,2020-0188,2021-11-15,17:27:21,18:59:23,NA,incomplete,true,NA,true,0,11,NA,left,E9_Q10_ansR.png,E9_Q6_ansL.png,within,NA,NaN,NA,left,3339.7999999970198,1,1,1192
t53MoJEb,NA,NA,t53MoJEb,2020-0188,2021-11-15,17:27:21,18:59:23,NA,incomplete,true,NA,true,0,12,NA,right,E9_Q9_ansL.png,E9_Q6_ansL.png,within,NA,NaN,NA,right,2535.4000000059605,1,1,1117.5
t53MoJEb,NA,NA,t53MoJEb,2020-0188,2021-11-15,17:27:21,18:59:23,NA,incomplete,true,NA,true,0,13,NA,right,E7_Q10_ansR.png,E9_Q5_ansL.png,between,NA,NaN,NA,right,5324.0999999940395,1,2,1152.0999999940395
t53MoJEb,NA,NA,t53MoJEb,2020-0188,2021-11-15,17:27:21,18:59:23,NA,incomplete,true,NA,true,0,14,NA,right,E9_Q7_ansR.png,E1_Q6_ansR.png,between,NA,NaN,NA,right,7137.100000008941,1,2,1100.7000000029802
t53MoJEb,NA,NA,t53MoJEb,2020-0188,2021-11-15,17:27:21,18:59:23,NA,incomplete,true,NA,true,0,15,NA,left,E1_Q9_ansL.png,E1_Q5_ansR.png,within,NA,NaN,NA,left,3908.9000000059605,1,1,14261.10000000894
t53MoJEb,NA,NA,t53MoJEb,2020-0188,2021-11-15,17:27:21,18:59:23,NA,incomplete,true,NA,true,0,16,NA,left,E7_Q4_ansR.png,E7_Q1_ansL.png,within,NA,NaN,NA,left,1677.8999999910593,1,2,1053.3999999910593
t53MoJEb,NA,NA,t53MoJEb,2020-0188,2021-11-15,17:27:21,18:59:23,NA,incomplete,true,NA,true,0,17,NA,right,E7_Q8_ansL.png,E7_Q10_ansR.png,within,NA,NaN,NA,left,21179.10000000894,0,1,2845.5999999940395
t53MoJEb,NA,NA,t53MoJEb,2020-0188,2021-11-15,17:27:21,18:59:23,NA,incomplete,true,NA,true,0,18,NA,right,E9_Q3_ansL.png,E1_Q7_ansL.png,between,NA,NaN,NA,right,1293,1,2,12135.09999999404
t53MoJEb,NA,NA,t53MoJEb,2020-0188,2021-11-15,17:27:21,18:59:23,NA,incomplete,true,NA,true,0,19,NA,left,E1_Q5_ansR.png,E1_Q6_ansR.png,within,NA,NaN,NA,right,2031.0999999940395,0,1,1183.199999988079
t53MoJEb,NA,NA,t53MoJEb,2020-0188,2021-11-15,17:27:21,18:59:23,NA,incomplete,true,NA,true,0,20,NA,right,E1_Q7_ansL.png,E1_Q4_ansL.png,within,NA,NaN,NA,left,1077.3999999910593,0,1,2313.3999999910593
t53MoJEb,NA,NA,t53MoJEb,2020-0188,2021-11-15,17:27:21,18:59:23,NA,incomplete,true,NA,true,0,21,NA,left,E7_Q9_ansR.png,E7_Q2_ansL.png,within,NA,NaN,NA,right,11507.29999999702,0,1,3496.2999999970198
t53MoJEb,NA,NA,t53MoJEb,2020-0188,2021-11-15,17:27:21,18:59:23,NA,incomplete,true,NA,true,0,22,NA,right,E9_Q1_ansR.png,E9_Q3_ansL.png,within,NA,NaN,NA,left,1085.5,0,1,30611.40000000596
t53MoJEb,NA,NA,t53MoJEb,2020-0188,2021-11-15,17:27:21,18:59:23,NA,incomplete,true,NA,true,0,23,NA,right,E7_Q6_ansR.png,E9_Q4_ansL.png,between,NA,NaN,NA,left,2936.8999999910593,0,1,1579
t53MoJEb,NA,NA,t53MoJEb,2020-0188,2021-11-15,17:27:21,18:59:23,NA,incomplete,true,NA,true,0,24,NA,left,E9_Q1_ansR.png,E9_Q8_ansR.png,within,NA,NaN,NA,right,11607.5,0,1,2261.2000000029802
t53MoJEb,NA,NA,t53MoJEb,2020-0188,2021-11-15,17:27:21,18:59:23,NA,incomplete,true,NA,true,0,25,NA,right,E7_Q5_ansR.png,E7_Q6_ansR.png,within,NA,NaN,NA,left,929.8000000119209,0,1,1621
t53MoJEb,NA,NA,t53MoJEb,2020-0188,2021-11-15,17:27:21,18:59:23,NA,incomplete,true,NA,true,0,26,NA,right,E1_Q10_ansR.png,E1_Q8_ansR.png,within,NA,NaN,NA,right,1620.6000000089407,1,1,1553.2999999970198
t53MoJEb,NA,NA,t53MoJEb,2020-0188,2021-11-15,17:27:21,18:59:23,NA,incomplete,false,true,NA,1,0,E5_Q1_ansL.png,left,NA,NA,NA,left,1564.09999999404,true,NA,NA,NA,NA,NA
t53MoJEb,NA,NA,t53MoJEb,2020-0188,2021-11-15,17:27:21,18:59:23,NA,incomplete,false,true,NA,1,1,E5_Q2_ansL.png,left,NA,NA,NA,left,2221.09999999404,true,NA,NA,NA,NA,NA
t53MoJEb,NA,NA,t53MoJEb,2020-0188,2021-11-15,17:27:21,18:59:23,NA,incomplete,false,true,NA,1,2,E5_Q10_ansR.png,right,NA,NA,NA,right,1454.5,true,NA,NA,NA,NA,NA
t53MoJEb,NA,NA,t53MoJEb,2020-0188,2021-11-15,17:27:21,18:59:23,NA,incomplete,false,true,NA,1,3,E5_Q4_ansR.png,right,NA,NA,NA,right,1577.90000000596,true,NA,NA,NA,NA,NA
t53MoJEb,NA,NA,t53MoJEb,2020-0188,2021-11-15,17:27:21,18:59:23,NA,incomplete,false,true,NA,1,4,E5_Q3_ansR.png,right,NA,NA,NA,right,1136.39999999106,true,NA,NA,NA,NA,NA
t53MoJEb,NA,NA,t53MoJEb,2020-0188,2021-11-15,17:27:21,18:59:23,NA,incomplete,false,true,NA,1,5,E5_Q5_ansR.png,right,NA,NA,NA,right,2123.10000000894,true,NA,NA,NA,NA,NA
t53MoJEb,NA,NA,t53MoJEb,2020-0188,2021-11-15,17:27:21,18:59:23,NA,incomplete,false,true,NA,1,6,E5_Q6_ansR.png,right,NA,NA,NA,right,1155.20000000298,true,NA,NA,NA,NA,NA
t53MoJEb,NA,NA,t53MoJEb,2020-0188,2021-11-15,17:27:21,18:59:23,NA,incomplete,false,true,NA,1,7,E5_Q7_ansL.png,left,NA,NA,NA,left,919.70000000298,true,NA,NA,NA,NA,NA
t53MoJEb,NA,NA,t53MoJEb,2020-0188,2021-11-15,17:27:21,18:59:23,NA,incomplete,false,true,NA,1,8,E5_Q8_ansL.png,left,NA,NA,NA,left,1435.29999999702,true,NA,NA,NA,NA,NA
t53MoJEb,NA,NA,t53MoJEb,2020-0188,2021-11-15,17:27:21,18:59:23,NA,incomplete,false,true,NA,1,9,E5_Q9_ansR.png,right,NA,NA,NA,right,906,true,NA,NA,NA,NA,NA
t53MoJEb,NA,NA,t53MoJEb,2020-0188,2021-11-15,17:27:21,18:59:23,NA,incomplete,false,true,NA,1,10,E3_Q3_ansR.png,right,NA,NA,NA,right,2664.20000000298,true,NA,NA,NA,NA,NA
t53MoJEb,NA,NA,t53MoJEb,2020-0188,2021-11-15,17:27:21,18:59:23,NA,incomplete,false,true,NA,1,11,E3_Q1_ansR.png,right,NA,NA,NA,right,1888.29999999702,true,NA,NA,NA,NA,NA
t53MoJEb,NA,NA,t53MoJEb,2020-0188,2021-11-15,17:27:21,18:59:23,NA,incomplete,false,true,NA,1,12,E3_Q4_ansL.png,left,NA,NA,NA,left,1257.20000000298,true,NA,NA,NA,NA,NA
t53MoJEb,NA,NA,t53MoJEb,2020-0188,2021-11-15,17:27:21,18:59:23,NA,incomplete,false,true,NA,1,13,E3_Q7_ansL.png,left,NA,NA,NA,right,1479.59999999404,false,NA,NA,NA,NA,NA
t53MoJEb,NA,NA,t53MoJEb,2020-0188,2021-11-15,17:27:21,18:59:23,NA,incomplete,false,true,NA,1,14,E3_Q8_ansL.png,left,NA,NA,NA,left,1211.79999999702,true,NA,NA,NA,NA,NA
t53MoJEb,NA,NA,t53MoJEb,2020-0188,2021-11-15,17:27:21,18:59:23,NA,incomplete,false,true,NA,1,15,E3_Q2_ansL.png,left,NA,NA,NA,left,858.29999999702,true,NA,NA,NA,NA,NA
t53MoJEb,NA,NA,t53MoJEb,2020-0188,2021-11-15,17:27:21,18:59:23,NA,incomplete,false,true,NA,1,16,E3_Q9_ansL.png,left,NA,NA,NA,left,1689.20000000298,true,NA,NA,NA,NA,NA
t53MoJEb,NA,NA,t53MoJEb,2020-0188,2021-11-15,17:27:21,18:59:23,NA,incomplete,false,true,NA,1,17,E3_Q6_ansR.png,right,NA,NA,NA,right,1226.70000000298,true,NA,NA,NA,NA,NA
t53MoJEb,NA,NA,t53MoJEb,2020-0188,2021-11-15,17:27:21,18:59:23,NA,incomplete,false,true,NA,1,18,E3_Q10_ansR.png,right,NA,NA,NA,right,1565.09999999404,true,NA,NA,NA,NA,NA
t53MoJEb,NA,NA,t53MoJEb,2020-0188,2021-11-15,17:27:21,18:59:23,NA,incomplete,false,true,NA,1,19,E3_Q5_ansR.png,right,NA,NA,NA,right,2033.09999999404,true,NA,NA,NA,NA,NA
t53MoJEb,NA,NA,t53MoJEb,2020-0188,2021-11-15,17:27:21,18:59:23,NA,incomplete,false,true,NA,1,20,E12_Q4_ansR.png,right,NA,NA,NA,right,2472.20000000298,true,NA,NA,NA,NA,NA
t53MoJEb,NA,NA,t53MoJEb,2020-0188,2021-11-15,17:27:21,18:59:23,NA,incomplete,false,true,NA,1,21,E12_Q9_ansR.png,right,NA,NA,NA,right,1958.09999999404,true,NA,NA,NA,NA,NA
t53MoJEb,NA,NA,t53MoJEb,2020-0188,2021-11-15,17:27:21,18:59:23,NA,incomplete,false,true,NA,1,22,E12_Q6_ansR.png,right,NA,NA,NA,right,1187.90000000596,true,NA,NA,NA,NA,NA
t53MoJEb,NA,NA,t53MoJEb,2020-0188,2021-11-15,17:27:21,18:59:23,NA,incomplete,false,true,NA,1,23,E12_Q5_ansR.png,right,NA,NA,NA,right,2364,true,NA,NA,NA,NA,NA
t53MoJEb,NA,NA,t53MoJEb,2020-0188,2021-11-15,17:27:21,18:59:23,NA,incomplete,false,true,NA,1,24,E12_Q10_ansL.png,left,NA,NA,NA,left,2717.19999998808,true,NA,NA,NA,NA,NA
t53MoJEb,NA,NA,t53MoJEb,2020-0188,2021-11-15,17:27:21,18:59:23,NA,incomplete,false,true,NA,1,25,E12_Q2_ansL.png,left,NA,NA,NA,left,2790.10000000894,true,NA,NA,NA,NA,NA
t53MoJEb,NA,NA,t53MoJEb,2020-0188,2021-11-15,17:27:21,18:59:23,NA,incomplete,false,true,NA,1,26,E12_Q8_ansL.png,left,NA,NA,NA,left,2572.5,true,NA,NA,NA,NA,NA
t53MoJEb,NA,NA,t53MoJEb,2020-0188,2021-11-15,17:27:21,18:59:23,NA,incomplete,false,true,NA,1,27,E12_Q3_ansR.png,right,NA,NA,NA,right,1444.90000000596,true,NA,NA,NA,NA,NA
t53MoJEb,NA,NA,t53MoJEb,2020-0188,2021-11-15,17:27:21,18:59:23,NA,incomplete,false,true,NA,1,28,E12_Q7_ansL.png,left,NA,NA,NA,left,2059.19999998808,true,NA,NA,NA,NA,NA
t53MoJEb,NA,NA,t53MoJEb,2020-0188,2021-11-15,17:27:21,18:59:23,NA,incomplete,false,true,NA,1,29,E12_Q1_ansL.png,left,NA,NA,NA,left,1187.09999999404,true,NA,NA,NA,NA,NA
t53MoJEb,NA,NA,t53MoJEb,2020-0188,2021-11-15,17:27:21,18:59:23,NA,incomplete,false,NA,true,1,0,NA,right,E3_Q1_ansR.png,E5_Q8_ansL.png,between,NA,NaN,NA,right,7984.29999999702,1,2,2180.5
t53MoJEb,NA,NA,t53MoJEb,2020-0188,2021-11-15,17:27:21,18:59:23,NA,incomplete,false,NA,true,1,1,NA,left,E12_Q5_ansR.png,E12_Q8_ansL.png,within,NA,NaN,NA,left,1813.7000000029802,1,1,1143.9000000059605
t53MoJEb,NA,NA,t53MoJEb,2020-0188,2021-11-15,17:27:21,18:59:23,NA,incomplete,false,NA,true,1,2,NA,left,E12_Q10_ansL.png,E12_Q3_ansR.png,within,NA,NaN,NA,right,3636.3999999910593,0,1,2540.5999999940395
t53MoJEb,NA,NA,t53MoJEb,2020-0188,2021-11-15,17:27:21,18:59:23,NA,incomplete,false,NA,true,1,3,NA,left,E3_Q3_ansR.png,E3_Q7_ansL.png,within,NA,NaN,NA,right,1439.2999999970198,0,1,1653.3999999910593
t53MoJEb,NA,NA,t53MoJEb,2020-0188,2021-11-15,17:27:21,18:59:23,NA,incomplete,false,NA,true,1,4,NA,left,E12_Q6_ansR.png,E12_Q2_ansL.png,within,NA,NaN,NA,left,5127.29999999702,1,1,1110.2000000029802
t53MoJEb,NA,NA,t53MoJEb,2020-0188,2021-11-15,17:27:21,18:59:23,NA,incomplete,false,NA,true,1,5,NA,left,E5_Q7_ansL.png,E3_Q3_ansR.png,between,NA,NaN,NA,left,995.2999999970198,1,1,2040.0999999940395
t53MoJEb,NA,NA,t53MoJEb,2020-0188,2021-11-15,17:27:21,18:59:23,NA,incomplete,false,NA,true,1,6,NA,left,E5_Q3_ansR.png,E5_Q7_ansL.png,within,NA,NaN,NA,left,1308.7000000029802,1,1,2328.0999999940395
t53MoJEb,NA,NA,t53MoJEb,2020-0188,2021-11-15,17:27:21,18:59:23,NA,incomplete,false,NA,true,1,7,NA,left,E3_Q6_ansR.png,E12_Q4_ansR.png,between,NA,NaN,NA,left,4906.100000008941,1,1,2558.4000000059605
t53MoJEb,NA,NA,t53MoJEb,2020-0188,2021-11-15,17:27:21,18:59:23,NA,incomplete,false,NA,true,1,8,NA,right,E12_Q5_ansR.png,E12_Q4_ansR.png,within,NA,NaN,NA,right,1538.5,1,1,1148.5999999940395
t53MoJEb,NA,NA,t53MoJEb,2020-0188,2021-11-15,17:27:21,18:59:23,NA,incomplete,false,NA,true,1,9,NA,right,E12_Q6_ansR.png,E3_Q5_ansR.png,between,NA,NaN,NA,right,7211,1,2,5537.20000000298
t53MoJEb,NA,NA,t53MoJEb,2020-0188,2021-11-15,17:27:21,18:59:23,NA,incomplete,false,NA,true,1,10,NA,left,E12_Q2_ansL.png,E12_Q7_ansL.png,within,NA,NaN,NA,left,2254.2000000029802,1,1,887
t53MoJEb,NA,NA,t53MoJEb,2020-0188,2021-11-15,17:27:21,18:59:23,NA,incomplete,false,NA,true,1,11,NA,left,E5_Q5_ansR.png,E5_Q8_ansL.png,within,NA,NaN,NA,left,1900.4000000059605,1,1,1407
t53MoJEb,NA,NA,t53MoJEb,2020-0188,2021-11-15,17:27:21,18:59:23,NA,incomplete,false,NA,true,1,12,NA,right,E5_Q3_ansR.png,E5_Q2_ansL.png,within,NA,NaN,NA,right,1003.6000000089407,1,1,1068.2000000029802
t53MoJEb,NA,NA,t53MoJEb,2020-0188,2021-11-15,17:27:21,18:59:23,NA,incomplete,false,NA,true,1,13,NA,left,E3_Q4_ansL.png,E3_Q2_ansL.png,within,NA,NaN,NA,left,996.8999999910593,1,1,1909.2000000029802
t53MoJEb,NA,NA,t53MoJEb,2020-0188,2021-11-15,17:27:21,18:59:23,NA,incomplete,false,NA,true,1,14,NA,left,E3_Q10_ansR.png,E12_Q9_ansR.png,between,NA,NaN,NA,left,1514.8999999910593,1,2,1069
t53MoJEb,NA,NA,t53MoJEb,2020-0188,2021-11-15,17:27:21,18:59:23,NA,incomplete,false,NA,true,1,15,NA,right,E12_Q1_ansL.png,E12_Q8_ansL.png,within,NA,NaN,NA,left,2066.3999999910593,0,1,1374.7000000029802
t53MoJEb,NA,NA,t53MoJEb,2020-0188,2021-11-15,17:27:21,18:59:23,NA,incomplete,false,NA,true,1,16,NA,right,E3_Q5_ansR.png,E3_Q9_ansL.png,within,NA,NaN,NA,left,3003.9000000059605,0,1,1051
t53MoJEb,NA,NA,t53MoJEb,2020-0188,2021-11-15,17:27:21,18:59:23,NA,incomplete,false,NA,true,1,17,NA,left,E5_Q4_ansR.png,E5_Q6_ansR.png,within,NA,NaN,NA,left,1988.9000000059605,1,0,2713.2000000029802
t53MoJEb,NA,NA,t53MoJEb,2020-0188,2021-11-15,17:27:21,18:59:23,NA,incomplete,false,NA,true,1,18,NA,right,E5_Q5_ansR.png,E5_Q10_ansR.png,within,NA,NaN,NA,right,3088.4000000059605,1,1,2423.5
t53MoJEb,NA,NA,t53MoJEb,2020-0188,2021-11-15,17:27:21,18:59:23,NA,incomplete,false,NA,true,1,19,NA,left,E3_Q8_ansL.png,E3_Q6_ansR.png,within,NA,NaN,NA,left,916,1,1,1729.7999999970198
t53MoJEb,NA,NA,t53MoJEb,2020-0188,2021-11-15,17:27:21,18:59:23,NA,incomplete,false,NA,true,1,20,NA,left,E3_Q2_ansL.png,E3_Q10_ansR.png,within,NA,NaN,NA,left,1186.5,1,1,1431
t53MoJEb,NA,NA,t53MoJEb,2020-0188,2021-11-15,17:27:21,18:59:23,NA,incomplete,false,NA,true,1,21,NA,right,E3_Q4_ansL.png,E5_Q9_ansR.png,between,NA,NaN,NA,right,905,1,2,13015
t53MoJEb,NA,NA,t53MoJEb,2020-0188,2021-11-15,17:27:21,18:59:23,NA,incomplete,false,NA,true,1,22,NA,left,E5_Q6_ansR.png,E5_Q9_ansR.png,within,NA,NaN,NA,right,1398.3999999910593,0,1,1110.4000000059605
t53MoJEb,NA,NA,t53MoJEb,2020-0188,2021-11-15,17:27:21,18:59:23,NA,incomplete,false,NA,true,1,23,NA,right,E12_Q10_ansL.png,E12_Q9_ansR.png,within,NA,NaN,NA,right,1579.7999999970198,1,1,2590.1000000089407
t53MoJEb,NA,NA,t53MoJEb,2020-0188,2021-11-15,17:27:21,18:59:23,NA,incomplete,false,NA,true,1,24,NA,left,E3_Q7_ansL.png,E3_Q9_ansL.png,within,NA,NaN,NA,right,1876.2999999970198,0,1,1581.5
t53MoJEb,NA,NA,t53MoJEb,2020-0188,2021-11-15,17:27:21,18:59:23,NA,incomplete,false,NA,true,1,25,NA,right,E5_Q4_ansR.png,E5_Q1_ansL.png,within,NA,NaN,NA,left,2388.7000000029802,0,1,1712.1000000089407
t53MoJEb,NA,NA,t53MoJEb,2020-0188,2021-11-15,17:27:21,18:59:23,NA,incomplete,false,NA,true,1,26,NA,right,E3_Q8_ansL.png,E3_Q1_ansR.png,within,NA,NaN,NA,left,781.4000000059605,0,1,2773.0999999940395
t53MoJEb,NA,NA,t53MoJEb,2020-0188,2021-11-15,17:27:21,18:59:23,NA,incomplete,false,true,NA,2,0,E26_Q1_ansL.png,left,NA,NA,NA,none,0,false,NA,NA,NA,NA,NA
t53MoJEb,NA,NA,t53MoJEb,2020-0188,2021-11-15,17:27:21,18:59:23,NA,incomplete,false,true,NA,2,1,E26_Q8_ansL.png,left,NA,NA,NA,left,1968.79999999702,true,NA,NA,NA,NA,NA
t53MoJEb,NA,NA,t53MoJEb,2020-0188,2021-11-15,17:27:21,18:59:23,NA,incomplete,false,true,NA,2,2,E26_Q5_ansR.png,right,NA,NA,NA,right,2987.29999999702,true,NA,NA,NA,NA,NA
t53MoJEb,NA,NA,t53MoJEb,2020-0188,2021-11-15,17:27:21,18:59:23,NA,incomplete,false,true,NA,2,3,E26_Q10_ansL.png,left,NA,NA,NA,left,2503.20000000298,true,NA,NA,NA,NA,NA
t53MoJEb,NA,NA,t53MoJEb,2020-0188,2021-11-15,17:27:21,18:59:23,NA,incomplete,false,true,NA,2,4,E26_Q7_ansL.png,left,NA,NA,NA,left,1638.5,true,NA,NA,NA,NA,NA
t53MoJEb,NA,NA,t53MoJEb,2020-0188,2021-11-15,17:27:21,18:59:23,NA,incomplete,false,true,NA,2,5,E26_Q6_ansR.png,right,NA,NA,NA,right,2322.20000000298,true,NA,NA,NA,NA,NA
t53MoJEb,NA,NA,t53MoJEb,2020-0188,2021-11-15,17:27:21,18:59:23,NA,incomplete,false,true,NA,2,6,E26_Q2_ansL.png,left,NA,NA,NA,left,1278.40000000596,true,NA,NA,NA,NA,NA
t53MoJEb,NA,NA,t53MoJEb,2020-0188,2021-11-15,17:27:21,18:59:23,NA,incomplete,false,true,NA,2,7,E26_Q4_ansR.png,right,NA,NA,NA,right,1283.29999999702,true,NA,NA,NA,NA,NA
t53MoJEb,NA,NA,t53MoJEb,2020-0188,2021-11-15,17:27:21,18:59:23,NA,incomplete,false,true,NA,2,8,E26_Q3_ansR.png,right,NA,NA,NA,right,2177.60000000894,true,NA,NA,NA,NA,NA
t53MoJEb,NA,NA,t53MoJEb,2020-0188,2021-11-15,17:27:21,18:59:23,NA,incomplete,false,true,NA,2,9,E26_Q9_ansR.png,right,NA,NA,NA,right,1802.40000000596,true,NA,NA,NA,NA,NA
t53MoJEb,NA,NA,t53MoJEb,2020-0188,2021-11-15,17:27:21,18:59:23,NA,incomplete,false,true,NA,2,10,E23_Q5_ansR.png,right,NA,NA,NA,right,2884.60000000894,true,NA,NA,NA,NA,NA
t53MoJEb,NA,NA,t53MoJEb,2020-0188,2021-11-15,17:27:21,18:59:23,NA,incomplete,false,true,NA,2,11,E23_Q10_ansL.png,left,NA,NA,NA,left,1689.60000000894,true,NA,NA,NA,NA,NA
t53MoJEb,NA,NA,t53MoJEb,2020-0188,2021-11-15,17:27:21,18:59:23,NA,incomplete,false,true,NA,2,12,E23_Q8_ansL.png,left,NA,NA,NA,left,1139.79999999702,true,NA,NA,NA,NA,NA
t53MoJEb,NA,NA,t53MoJEb,2020-0188,2021-11-15,17:27:21,18:59:23,NA,incomplete,false,true,NA,2,13,E23_Q3_ansR.png,right,NA,NA,NA,right,1317.70000000298,true,NA,NA,NA,NA,NA
t53MoJEb,NA,NA,t53MoJEb,2020-0188,2021-11-15,17:27:21,18:59:23,NA,incomplete,false,true,NA,2,14,E23_Q2_ansL.png,left,NA,NA,NA,left,1681.70000000298,true,NA,NA,NA,NA,NA
t53MoJEb,NA,NA,t53MoJEb,2020-0188,2021-11-15,17:27:21,18:59:23,NA,incomplete,false,true,NA,2,15,E23_Q6_ansR.png,right,NA,NA,NA,left,2637.20000000298,false,NA,NA,NA,NA,NA
t53MoJEb,NA,NA,t53MoJEb,2020-0188,2021-11-15,17:27:21,18:59:23,NA,incomplete,false,true,NA,2,16,E23_Q9_ansR.png,right,NA,NA,NA,right,2921,true,NA,NA,NA,NA,NA
t53MoJEb,NA,NA,t53MoJEb,2020-0188,2021-11-15,17:27:21,18:59:23,NA,incomplete,false,true,NA,2,17,E23_Q7_ansL.png,left,NA,NA,NA,none,0,false,NA,NA,NA,NA,NA
t53MoJEb,NA,NA,t53MoJEb,2020-0188,2021-11-15,17:27:21,18:59:23,NA,incomplete,false,true,NA,2,18,E23_Q4_ansR.png,right,NA,NA,NA,right,2420.20000000298,true,NA,NA,NA,NA,NA
t53MoJEb,NA,NA,t53MoJEb,2020-0188,2021-11-15,17:27:21,18:59:23,NA,incomplete,false,true,NA,2,19,E23_Q1_ansL.png,left,NA,NA,NA,left,1812.70000000298,true,NA,NA,NA,NA,NA
t53MoJEb,NA,NA,t53MoJEb,2020-0188,2021-11-15,17:27:21,18:59:23,NA,incomplete,false,true,NA,2,20,E22_Q9_ansL.png,left,NA,NA,NA,left,1021,true,NA,NA,NA,NA,NA
t53MoJEb,NA,NA,t53MoJEb,2020-0188,2021-11-15,17:27:21,18:59:23,NA,incomplete,false,true,NA,2,21,E22_Q3_ansL.png,left,NA,NA,NA,left,974.199999988079,true,NA,NA,NA,NA,NA
t53MoJEb,NA,NA,t53MoJEb,2020-0188,2021-11-15,17:27:21,18:59:23,NA,incomplete,false,true,NA,2,22,E22_Q6_ansL.png,left,NA,NA,NA,left,1706.20000000298,true,NA,NA,NA,NA,NA
t53MoJEb,NA,NA,t53MoJEb,2020-0188,2021-11-15,17:27:21,18:59:23,NA,incomplete,false,true,NA,2,23,E22_Q7_ansR.png,right,NA,NA,NA,right,2249.10000000894,true,NA,NA,NA,NA,NA
t53MoJEb,NA,NA,t53MoJEb,2020-0188,2021-11-15,17:27:21,18:59:23,NA,incomplete,false,true,NA,2,24,E22_Q5_ansL.png,left,NA,NA,NA,left,1517.20000000298,true,NA,NA,NA,NA,NA
t53MoJEb,NA,NA,t53MoJEb,2020-0188,2021-11-15,17:27:21,18:59:23,NA,incomplete,false,true,NA,2,25,E22_Q2_ansR.png,right,NA,NA,NA,right,1723.20000000298,true,NA,NA,NA,NA,NA
t53MoJEb,NA,NA,t53MoJEb,2020-0188,2021-11-15,17:27:21,18:59:23,NA,incomplete,false,true,NA,2,26,E22_Q1_ansR.png,right,NA,NA,NA,right,2781.39999999106,true,NA,NA,NA,NA,NA
t53MoJEb,NA,NA,t53MoJEb,2020-0188,2021-11-15,17:27:21,18:59:23,NA,incomplete,false,true,NA,2,27,E22_Q4_ansL.png,left,NA,NA,NA,left,3328.70000000298,true,NA,NA,NA,NA,NA
t53MoJEb,NA,NA,t53MoJEb,2020-0188,2021-11-15,17:27:21,18:59:23,NA,incomplete,false,true,NA,2,28,E22_Q10_ansR.png,right,NA,NA,NA,right,3335.59999999404,true,NA,NA,NA,NA,NA
t53MoJEb,NA,NA,t53MoJEb,2020-0188,2021-11-15,17:27:21,18:59:23,NA,incomplete,false,true,NA,2,29,E22_Q8_ansR.png,right,NA,NA,NA,none,0,false,NA,NA,NA,NA,NA
t53MoJEb,NA,NA,t53MoJEb,2020-0188,2021-11-15,17:27:21,18:59:23,NA,incomplete,false,NA,true,2,0,NA,left,E22_Q9_ansL.png,E22_Q7_ansR.png,within,NA,NaN,NA,left,3713.9000000059605,1,1,1997.4000000059605
t53MoJEb,NA,NA,t53MoJEb,2020-0188,2021-11-15,17:27:21,18:59:23,NA,incomplete,false,NA,true,2,1,NA,left,E23_Q7_ansL.png,E22_Q9_ansL.png,between,NA,NaN,NA,left,6608.70000000298,1,1,1808.2999999970198
t53MoJEb,NA,NA,t53MoJEb,2020-0188,2021-11-15,17:27:21,18:59:23,NA,incomplete,false,NA,true,2,2,NA,right,E22_Q1_ansR.png,E22_Q7_ansR.png,within,NA,NaN,NA,left,6397.29999999702,0,1,1660
t53MoJEb,NA,NA,t53MoJEb,2020-0188,2021-11-15,17:27:21,18:59:23,NA,incomplete,false,NA,true,2,3,NA,right,E26_Q9_ansR.png,E26_Q2_ansL.png,within,NA,NaN,NA,left,5168.800000011921,0,1,3183.2999999970198
t53MoJEb,NA,NA,t53MoJEb,2020-0188,2021-11-15,17:27:21,18:59:23,NA,incomplete,false,NA,true,2,4,NA,right,E22_Q3_ansL.png,E23_Q4_ansR.png,between,NA,NaN,NA,right,2230.7999999970198,1,2,2740.0999999940395
t53MoJEb,NA,NA,t53MoJEb,2020-0188,2021-11-15,17:27:21,18:59:23,NA,incomplete,false,NA,true,2,5,NA,right,E23_Q7_ansL.png,E23_Q2_ansL.png,within,NA,NaN,NA,left,1153,0,1,1249.4000000059605
t53MoJEb,NA,NA,t53MoJEb,2020-0188,2021-11-15,17:27:21,18:59:23,NA,incomplete,false,NA,true,2,6,NA,right,E22_Q6_ansL.png,E23_Q1_ansL.png,between,NA,NaN,NA,right,2049.5999999940395,1,1,22827.79999999702
t53MoJEb,NA,NA,t53MoJEb,2020-0188,2021-11-15,17:27:21,18:59:23,NA,incomplete,false,NA,true,2,7,NA,left,E23_Q6_ansR.png,E23_Q4_ansR.png,within,NA,NaN,NA,left,823.1999999880791,1,1,1916.300000011921
t53MoJEb,NA,NA,t53MoJEb,2020-0188,2021-11-15,17:27:21,18:59:23,NA,incomplete,false,NA,true,2,8,NA,left,E22_Q3_ansL.png,E22_Q5_ansL.png,within,NA,NaN,NA,left,7835.0999999940395,1,1,6640.100000008941
t53MoJEb,NA,NA,t53MoJEb,2020-0188,2021-11-15,17:27:21,18:59:23,NA,incomplete,false,NA,true,2,9,NA,right,E22_Q2_ansR.png,E22_Q6_ansL.png,within,NA,NaN,NA,left,922.5,0,1,1696.2999999970198
t53MoJEb,NA,NA,t53MoJEb,2020-0188,2021-11-15,17:27:21,18:59:23,NA,incomplete,false,NA,true,2,10,NA,right,E23_Q1_ansL.png,E23_Q9_ansR.png,within,NA,NaN,NA,right,21665.20000000298,1,1,1069.5
t53MoJEb,NA,NA,t53MoJEb,2020-0188,2021-11-15,17:27:21,18:59:23,NA,incomplete,false,NA,true,2,11,NA,left,E26_Q3_ansR.png,E23_Q10_ansL.png,between,NA,NaN,NA,right,988,0,1,1101.2000000029802
t53MoJEb,NA,NA,t53MoJEb,2020-0188,2021-11-15,17:27:21,18:59:23,NA,incomplete,false,NA,true,2,12,NA,right,E23_Q3_ansR.png,E23_Q5_ansR.png,within,NA,NaN,NA,right,9839.89999999106,1,1,2640.7000000029802
t53MoJEb,NA,NA,t53MoJEb,2020-0188,2021-11-15,17:27:21,18:59:23,NA,incomplete,false,NA,true,2,13,NA,right,E23_Q5_ansR.png,E26_Q4_ansR.png,between,NA,NaN,NA,left,1116.7999999970198,0,1,1878.2999999970198
t53MoJEb,NA,NA,t53MoJEb,2020-0188,2021-11-15,17:27:21,18:59:23,NA,incomplete,false,NA,true,2,14,NA,left,E22_Q2_ansR.png,E22_Q10_ansR.png,within,NA,NaN,NA,left,963.5,1,1,2050.5
t53MoJEb,NA,NA,t53MoJEb,2020-0188,2021-11-15,17:27:21,18:59:23,NA,incomplete,false,NA,true,2,15,NA,right,E23_Q9_ansR.png,E23_Q3_ansR.png,within,NA,NaN,NA,left,5814.399999991059,0,1,1053.5
t53MoJEb,NA,NA,t53MoJEb,2020-0188,2021-11-15,17:27:21,18:59:23,NA,incomplete,false,NA,true,2,16,NA,right,E23_Q6_ansR.png,E23_Q8_ansL.png,within,NA,NaN,NA,left,1127.3999999910593,0,1,1908.0999999940395
t53MoJEb,NA,NA,t53MoJEb,2020-0188,2021-11-15,17:27:21,18:59:23,NA,incomplete,false,NA,true,2,17,NA,left,E22_Q5_ansL.png,E22_Q4_ansL.png,within,NA,NaN,NA,left,1587.4000000059605,1,1,880.2000000029802
t53MoJEb,NA,NA,t53MoJEb,2020-0188,2021-11-15,17:27:21,18:59:23,NA,incomplete,false,NA,true,2,18,NA,left,E26_Q9_ansR.png,E23_Q8_ansL.png,between,NA,NaN,NA,right,1015,0,2,2993.7999999970198
t53MoJEb,NA,NA,t53MoJEb,2020-0188,2021-11-15,17:27:21,18:59:23,NA,incomplete,false,NA,true,2,19,NA,left,E26_Q8_ansL.png,E26_Q7_ansL.png,within,NA,NaN,NA,right,3324.0999999940395,0,1,2072.2000000029802
t53MoJEb,NA,NA,t53MoJEb,2020-0188,2021-11-15,17:27:21,18:59:23,NA,incomplete,false,NA,true,2,20,NA,left,E26_Q7_ansL.png,E26_Q4_ansR.png,within,NA,NaN,NA,left,855.4000000059605,1,1,1194
t53MoJEb,NA,NA,t53MoJEb,2020-0188,2021-11-15,17:27:21,18:59:23,NA,incomplete,false,NA,true,2,21,NA,right,E23_Q2_ansL.png,E23_Q10_ansL.png,within,NA,NaN,NA,left,872.8000000119209,0,1,15092.90000000596
t53MoJEb,NA,NA,t53MoJEb,2020-0188,2021-11-15,17:27:21,18:59:23,NA,incomplete,false,NA,true,2,22,NA,left,E26_Q10_ansL.png,E26_Q2_ansL.png,within,NA,NaN,NA,left,733.9000000059605,1,1,2195.8999999910593
t53MoJEb,NA,NA,t53MoJEb,2020-0188,2021-11-15,17:27:21,18:59:23,NA,incomplete,false,NA,true,2,23,NA,left,E26_Q6_ansR.png,E26_Q3_ansR.png,within,NA,NaN,NA,left,831.2999999970198,1,1,1793.5
t53MoJEb,NA,NA,t53MoJEb,2020-0188,2021-11-15,17:27:21,18:59:23,NA,incomplete,false,NA,true,2,24,NA,left,E26_Q1_ansL.png,E26_Q10_ansL.png,within,NA,NaN,NA,left,2001.7000000029802,1,1,1423.4000000059605
t53MoJEb,NA,NA,t53MoJEb,2020-0188,2021-11-15,17:27:21,18:59:23,NA,incomplete,false,NA,true,2,25,NA,right,E26_Q6_ansR.png,E26_Q5_ansR.png,within,NA,NaN,NA,left,741.7000000029802,0,1,1331.2000000029802
t53MoJEb,NA,NA,t53MoJEb,2020-0188,2021-11-15,17:27:21,18:59:23,NA,incomplete,false,NA,true,2,26,NA,right,E22_Q8_ansR.png,E22_Q1_ansR.png,within,NA,NaN,NA,left,883.2999999970198,0,1,1403.199999988079
t53MoJEb,NA,NA,t53MoJEb,2020-0188,2021-11-15,17:27:21,18:59:23,NA,incomplete,false,true,NA,3,0,E15_Q2_ansL.png,left,NA,NA,NA,left,1722.29999999702,true,NA,NA,NA,NA,NA
t53MoJEb,NA,NA,t53MoJEb,2020-0188,2021-11-15,17:27:21,18:59:23,NA,incomplete,false,true,NA,3,1,E15_Q5_ansR.png,right,NA,NA,NA,right,1932.89999999106,true,NA,NA,NA,NA,NA
t53MoJEb,NA,NA,t53MoJEb,2020-0188,2021-11-15,17:27:21,18:59:23,NA,incomplete,false,true,NA,3,2,E15_Q10_ansL.png,left,NA,NA,NA,left,1300.90000000596,true,NA,NA,NA,NA,NA
t53MoJEb,NA,NA,t53MoJEb,2020-0188,2021-11-15,17:27:21,18:59:23,NA,incomplete,false,true,NA,3,3,E15_Q7_ansL.png,left,NA,NA,NA,left,1394.80000001192,true,NA,NA,NA,NA,NA
t53MoJEb,NA,NA,t53MoJEb,2020-0188,2021-11-15,17:27:21,18:59:23,NA,incomplete,false,true,NA,3,4,E15_Q4_ansR.png,right,NA,NA,NA,right,1379.79999999702,true,NA,NA,NA,NA,NA
t53MoJEb,NA,NA,t53MoJEb,2020-0188,2021-11-15,17:27:21,18:59:23,NA,incomplete,false,true,NA,3,5,E15_Q3_ansR.png,right,NA,NA,NA,right,1405.79999999702,true,NA,NA,NA,NA,NA
t53MoJEb,NA,NA,t53MoJEb,2020-0188,2021-11-15,17:27:21,18:59:23,NA,incomplete,false,true,NA,3,6,E15_Q8_ansL.png,left,NA,NA,NA,left,874.59999999404,true,NA,NA,NA,NA,NA
t53MoJEb,NA,NA,t53MoJEb,2020-0188,2021-11-15,17:27:21,18:59:23,NA,incomplete,false,true,NA,3,7,E15_Q6_ansR.png,right,NA,NA,NA,right,1758.70000000298,true,NA,NA,NA,NA,NA
t53MoJEb,NA,NA,t53MoJEb,2020-0188,2021-11-15,17:27:21,18:59:23,NA,incomplete,false,true,NA,3,8,E15_Q1_ansL.png,left,NA,NA,NA,none,0,false,NA,NA,NA,NA,NA
t53MoJEb,NA,NA,t53MoJEb,2020-0188,2021-11-15,17:27:21,18:59:23,NA,incomplete,false,true,NA,3,9,E15_Q9_ansR.png,right,NA,NA,NA,left,60.4000000059605,false,NA,NA,NA,NA,NA
t53MoJEb,NA,NA,t53MoJEb,2020-0188,2021-11-15,17:27:21,18:59:23,NA,incomplete,false,true,NA,3,10,E10_Q5_ansR.png,right,NA,NA,NA,right,3455.5,true,NA,NA,NA,NA,NA
t53MoJEb,NA,NA,t53MoJEb,2020-0188,2021-11-15,17:27:21,18:59:23,NA,incomplete,false,true,NA,3,11,E10_Q8_ansR.png,right,NA,NA,NA,right,2498.70000000298,true,NA,NA,NA,NA,NA
t53MoJEb,NA,NA,t53MoJEb,2020-0188,2021-11-15,17:27:21,18:59:23,NA,incomplete,false,true,NA,3,12,E10_Q2_ansL.png,left,NA,NA,NA,right,3075.70000000298,false,NA,NA,NA,NA,NA
t53MoJEb,NA,NA,t53MoJEb,2020-0188,2021-11-15,17:27:21,18:59:23,NA,incomplete,false,true,NA,3,13,E10_Q7_ansR.png,right,NA,NA,NA,right,2255.09999999404,true,NA,NA,NA,NA,NA
t53MoJEb,NA,NA,t53MoJEb,2020-0188,2021-11-15,17:27:21,18:59:23,NA,incomplete,false,true,NA,3,14,E10_Q3_ansL.png,left,NA,NA,NA,left,1461.90000000596,true,NA,NA,NA,NA,NA
t53MoJEb,NA,NA,t53MoJEb,2020-0188,2021-11-15,17:27:21,18:59:23,NA,incomplete,false,true,NA,3,15,E10_Q6_ansR.png,right,NA,NA,NA,left,3356.70000000298,false,NA,NA,NA,NA,NA
t53MoJEb,NA,NA,t53MoJEb,2020-0188,2021-11-15,17:27:21,18:59:23,NA,incomplete,false,true,NA,3,16,E10_Q4_ansL.png,left,NA,NA,NA,left,3154.59999999404,true,NA,NA,NA,NA,NA
t53MoJEb,NA,NA,t53MoJEb,2020-0188,2021-11-15,17:27:21,18:59:23,NA,incomplete,false,true,NA,3,17,E10_Q1_ansL.png,left,NA,NA,NA,left,2643.5,true,NA,NA,NA,NA,NA
t53MoJEb,NA,NA,t53MoJEb,2020-0188,2021-11-15,17:27:21,18:59:23,NA,incomplete,false,true,NA,3,18,E10_Q9_ansL.png,left,NA,NA,NA,left,2216.20000000298,true,NA,NA,NA,NA,NA
t53MoJEb,NA,NA,t53MoJEb,2020-0188,2021-11-15,17:27:21,18:59:23,NA,incomplete,false,true,NA,3,19,E10_Q10_ansR.png,right,NA,NA,NA,right,3502.79999999702,true,NA,NA,NA,NA,NA
t53MoJEb,NA,NA,t53MoJEb,2020-0188,2021-11-15,17:27:21,18:59:23,NA,incomplete,false,true,NA,3,20,E21_Q10_ansL.png,left,NA,NA,NA,left,1264.70000000298,true,NA,NA,NA,NA,NA
t53MoJEb,NA,NA,t53MoJEb,2020-0188,2021-11-15,17:27:21,18:59:23,NA,incomplete,false,true,NA,3,21,E21_Q5_ansR.png,right,NA,NA,NA,right,1168.09999999404,true,NA,NA,NA,NA,NA
t53MoJEb,NA,NA,t53MoJEb,2020-0188,2021-11-15,17:27:21,18:59:23,NA,incomplete,false,true,NA,3,22,E21_Q2_ansL.png,left,NA,NA,NA,left,1439.59999999404,true,NA,NA,NA,NA,NA
t53MoJEb,NA,NA,t53MoJEb,2020-0188,2021-11-15,17:27:21,18:59:23,NA,incomplete,false,true,NA,3,23,E21_Q6_ansR.png,right,NA,NA,NA,right,1513.5,true,NA,NA,NA,NA,NA
t53MoJEb,NA,NA,t53MoJEb,2020-0188,2021-11-15,17:27:21,18:59:23,NA,incomplete,false,true,NA,3,24,E21_Q9_ansR.png,right,NA,NA,NA,right,1423.89999999106,true,NA,NA,NA,NA,NA
t53MoJEb,NA,NA,t53MoJEb,2020-0188,2021-11-15,17:27:21,18:59:23,NA,incomplete,false,true,NA,3,25,E21_Q7_ansL.png,left,NA,NA,NA,left,953.90000000596,true,NA,NA,NA,NA,NA
t53MoJEb,NA,NA,t53MoJEb,2020-0188,2021-11-15,17:27:21,18:59:23,NA,incomplete,false,true,NA,3,26,E21_Q4_ansR.png,right,NA,NA,NA,right,1166.59999999404,true,NA,NA,NA,NA,NA
t53MoJEb,NA,NA,t53MoJEb,2020-0188,2021-11-15,17:27:21,18:59:23,NA,incomplete,false,true,NA,3,27,E21_Q1_ansL.png,left,NA,NA,NA,left,977.5,true,NA,NA,NA,NA,NA
t53MoJEb,NA,NA,t53MoJEb,2020-0188,2021-11-15,17:27:21,18:59:23,NA,incomplete,false,true,NA,3,28,E21_Q3_ansR.png,right,NA,NA,NA,right,1812.90000000596,true,NA,NA,NA,NA,NA
t53MoJEb,NA,NA,t53MoJEb,2020-0188,2021-11-15,17:27:21,18:59:23,NA,incomplete,false,true,NA,3,29,E21_Q8_ansL.png,left,NA,NA,NA,left,1030.70000000298,true,NA,NA,NA,NA,NA
t53MoJEb,NA,NA,t53MoJEb,2020-0188,2021-11-15,17:27:21,18:59:23,NA,incomplete,false,NA,true,3,0,NA,left,E10_Q1_ansL.png,E21_Q10_ansL.png,between,NA,NaN,NA,left,3035.2000000029802,1,1,1257.5
t53MoJEb,NA,NA,t53MoJEb,2020-0188,2021-11-15,17:27:21,18:59:23,NA,incomplete,false,NA,true,3,1,NA,left,E15_Q7_ansL.png,E15_Q8_ansL.png,within,NA,NaN,NA,right,9079.29999999702,0,1,1506.0999999940395
t53MoJEb,NA,NA,t53MoJEb,2020-0188,2021-11-15,17:27:21,18:59:23,NA,incomplete,false,NA,true,3,2,NA,left,E15_Q1_ansL.png,E10_Q8_ansR.png,between,NA,NaN,NA,left,1497.4000000059605,1,1,1044.0999999940395
t53MoJEb,NA,NA,t53MoJEb,2020-0188,2021-11-15,17:27:21,18:59:23,NA,incomplete,false,NA,true,3,3,NA,right,E10_Q7_ansR.png,E10_Q5_ansR.png,within,NA,NaN,NA,right,3137.7999999970198,1,1,980.5
t53MoJEb,NA,NA,t53MoJEb,2020-0188,2021-11-15,17:27:21,18:59:23,NA,incomplete,false,NA,true,3,4,NA,left,E10_Q7_ansR.png,E10_Q4_ansL.png,within,NA,NaN,NA,right,865.7999999970198,0,1,1621.5
t53MoJEb,NA,NA,t53MoJEb,2020-0188,2021-11-15,17:27:21,18:59:23,NA,incomplete,false,NA,true,3,5,NA,left,E10_Q4_ansL.png,E10_Q10_ansR.png,within,NA,NaN,NA,left,1374.9000000059605,1,1,1884.7000000029802
t53MoJEb,NA,NA,t53MoJEb,2020-0188,2021-11-15,17:27:21,18:59:23,NA,incomplete,false,NA,true,3,6,NA,right,E21_Q5_ansR.png,E10_Q9_ansL.png,between,NA,NaN,NA,right,8584.20000000298,1,2,5530.0999999940395
t53MoJEb,NA,NA,t53MoJEb,2020-0188,2021-11-15,17:27:21,18:59:23,NA,incomplete,false,NA,true,3,7,NA,left,E15_Q2_ansL.png,E15_Q7_ansL.png,within,NA,NaN,NA,right,2380.9000000059605,0,1,1769.7999999970198
t53MoJEb,NA,NA,t53MoJEb,2020-0188,2021-11-15,17:27:21,18:59:23,NA,incomplete,false,NA,true,3,8,NA,left,E21_Q7_ansL.png,E21_Q3_ansR.png,within,NA,NaN,NA,right,1388.9000000059605,0,1,11316.90000000596
t53MoJEb,NA,NA,t53MoJEb,2020-0188,2021-11-15,17:27:21,18:59:23,NA,incomplete,false,NA,true,3,9,NA,left,E15_Q3_ansR.png,E15_Q1_ansL.png,within,NA,NaN,NA,left,798.4000000059605,1,1,1776
t53MoJEb,NA,NA,t53MoJEb,2020-0188,2021-11-15,17:27:21,18:59:23,NA,incomplete,false,NA,true,3,10,NA,left,E21_Q9_ansR.png,E21_Q1_ansL.png,within,NA,NaN,NA,right,1555,0,1,1628.2000000029802
t53MoJEb,NA,NA,t53MoJEb,2020-0188,2021-11-15,17:27:21,18:59:23,NA,incomplete,false,NA,true,3,11,NA,right,E10_Q2_ansL.png,E15_Q9_ansR.png,between,NA,NaN,NA,right,2405.5999999940395,1,2,1858.7000000029802
t53MoJEb,NA,NA,t53MoJEb,2020-0188,2021-11-15,17:27:21,18:59:23,NA,incomplete,false,NA,true,3,12,NA,left,E21_Q10_ansL.png,E21_Q6_ansR.png,within,NA,NaN,NA,left,955,1,1,1207.7000000029802
t53MoJEb,NA,NA,t53MoJEb,2020-0188,2021-11-15,17:27:21,18:59:23,NA,incomplete,false,NA,true,3,13,NA,left,E15_Q8_ansL.png,E15_Q9_ansR.png,within,NA,NaN,NA,right,4264.29999999702,0,1,1299.2000000029802
t53MoJEb,NA,NA,t53MoJEb,2020-0188,2021-11-15,17:27:21,18:59:23,NA,incomplete,false,NA,true,3,14,NA,left,E21_Q2_ansL.png,E21_Q7_ansL.png,within,NA,NaN,NA,left,881.2000000029802,1,1,1768.2999999970198
t53MoJEb,NA,NA,t53MoJEb,2020-0188,2021-11-15,17:27:21,18:59:23,NA,incomplete,false,NA,true,3,15,NA,right,E15_Q3_ansR.png,E15_Q10_ansL.png,within,NA,NaN,NA,right,2065.6000000089407,1,1,1223.0999999940395
t53MoJEb,NA,NA,t53MoJEb,2020-0188,2021-11-15,17:27:21,18:59:23,NA,incomplete,false,NA,true,3,16,NA,left,E21_Q6_ansR.png,E21_Q4_ansR.png,within,NA,NaN,NA,right,2108.2999999970198,0,1,1438.5
t53MoJEb,NA,NA,t53MoJEb,2020-0188,2021-11-15,17:27:21,18:59:23,NA,incomplete,false,NA,true,3,17,NA,right,E10_Q6_ansR.png,E10_Q2_ansL.png,within,NA,NaN,NA,left,1480.7999999970198,0,1,1834.2999999970198
t53MoJEb,NA,NA,t53MoJEb,2020-0188,2021-11-15,17:27:21,18:59:23,NA,incomplete,false,NA,true,3,18,NA,left,E10_Q8_ansR.png,E10_Q3_ansL.png,within,NA,NaN,NA,right,1582.0999999940395,0,1,1174.699999988079
t53MoJEb,NA,NA,t53MoJEb,2020-0188,2021-11-15,17:27:21,18:59:23,NA,incomplete,false,NA,true,3,19,NA,left,E10_Q6_ansR.png,E10_Q9_ansL.png,within,NA,NaN,NA,left,2526.2999999970198,1,1,1290.7000000029802
t53MoJEb,NA,NA,t53MoJEb,2020-0188,2021-11-15,17:27:21,18:59:23,NA,incomplete,false,NA,true,3,20,NA,left,E10_Q10_ansR.png,E21_Q2_ansL.png,between,NA,NaN,NA,left,3936.0999999940395,1,2,1910.2999999970198
t53MoJEb,NA,NA,t53MoJEb,2020-0188,2021-11-15,17:27:21,18:59:23,NA,incomplete,false,NA,true,3,21,NA,left,E15_Q4_ansR.png,E15_Q6_ansR.png,within,NA,NaN,NA,right,5491.300000011921,0,1,1455.8999999910593
t53MoJEb,NA,NA,t53MoJEb,2020-0188,2021-11-15,17:27:21,18:59:23,NA,incomplete,false,NA,true,3,22,NA,right,E21_Q9_ansR.png,E21_Q5_ansR.png,within,NA,NaN,NA,right,2051.0999999940395,1,1,1067
t53MoJEb,NA,NA,t53MoJEb,2020-0188,2021-11-15,17:27:21,18:59:23,NA,incomplete,false,NA,true,3,23,NA,left,E15_Q6_ansR.png,E10_Q5_ansR.png,between,NA,NaN,NA,left,3983.6000000089407,1,2,2475.7000000029802
t53MoJEb,NA,NA,t53MoJEb,2020-0188,2021-11-15,17:27:21,18:59:23,NA,incomplete,false,NA,true,3,24,NA,left,E15_Q5_ansR.png,E15_Q4_ansR.png,within,NA,NaN,NA,left,2199.2999999970198,1,1,920.6000000089407
t53MoJEb,NA,NA,t53MoJEb,2020-0188,2021-11-15,17:27:21,18:59:23,NA,incomplete,false,NA,true,3,25,NA,right,E21_Q8_ansL.png,E21_Q4_ansR.png,within,NA,NaN,NA,left,1092.0999999940395,0,1,1990
t53MoJEb,NA,NA,t53MoJEb,2020-0188,2021-11-15,17:27:21,18:59:23,NA,incomplete,false,NA,true,3,26,NA,right,E10_Q1_ansL.png,E10_Q3_ansL.png,within,NA,NaN,NA,left,1348.5999999940395,0,1,731.3999999910593
t53MoJEb,NA,NA,t53MoJEb,2020-0188,2021-11-15,17:27:21,18:59:23,NA,incomplete,false,true,NA,4,0,E17_Q9_ansR.png,right,NA,NA,NA,right,1719.29999999702,true,NA,NA,NA,NA,NA
t53MoJEb,NA,NA,t53MoJEb,2020-0188,2021-11-15,17:27:21,18:59:23,NA,incomplete,false,true,NA,4,1,E17_Q7_ansL.png,left,NA,NA,NA,left,1561.90000000596,true,NA,NA,NA,NA,NA
t53MoJEb,NA,NA,t53MoJEb,2020-0188,2021-11-15,17:27:21,18:59:23,NA,incomplete,false,true,NA,4,2,E17_Q2_ansL.png,left,NA,NA,NA,left,1417.5,true,NA,NA,NA,NA,NA
t53MoJEb,NA,NA,t53MoJEb,2020-0188,2021-11-15,17:27:21,18:59:23,NA,incomplete,false,true,NA,4,3,E17_Q8_ansL.png,left,NA,NA,NA,left,2682.90000000596,true,NA,NA,NA,NA,NA
t53MoJEb,NA,NA,t53MoJEb,2020-0188,2021-11-15,17:27:21,18:59:23,NA,incomplete,false,true,NA,4,4,E17_Q3_ansR.png,right,NA,NA,NA,right,2101,true,NA,NA,NA,NA,NA
t53MoJEb,NA,NA,t53MoJEb,2020-0188,2021-11-15,17:27:21,18:59:23,NA,incomplete,false,true,NA,4,5,E17_Q10_ansL.png,left,NA,NA,NA,left,957.29999999702,true,NA,NA,NA,NA,NA
t53MoJEb,NA,NA,t53MoJEb,2020-0188,2021-11-15,17:27:21,18:59:23,NA,incomplete,false,true,NA,4,6,E17_Q4_ansR.png,right,NA,NA,NA,right,2681.09999999404,true,NA,NA,NA,NA,NA
t53MoJEb,NA,NA,t53MoJEb,2020-0188,2021-11-15,17:27:21,18:59:23,NA,incomplete,false,true,NA,4,7,E17_Q6_ansR.png,right,NA,NA,NA,right,2113.59999999404,true,NA,NA,NA,NA,NA
t53MoJEb,NA,NA,t53MoJEb,2020-0188,2021-11-15,17:27:21,18:59:23,NA,incomplete,false,true,NA,4,8,E17_Q1_ansL.png,left,NA,NA,NA,left,1251.20000000298,true,NA,NA,NA,NA,NA
t53MoJEb,NA,NA,t53MoJEb,2020-0188,2021-11-15,17:27:21,18:59:23,NA,incomplete,false,true,NA,4,9,E17_Q5_ansR.png,right,NA,NA,NA,right,3285.20000000298,true,NA,NA,NA,NA,NA
t53MoJEb,NA,NA,t53MoJEb,2020-0188,2021-11-15,17:27:21,18:59:23,NA,incomplete,false,true,NA,4,10,E31_Q5_ansL.png,left,NA,NA,NA,left,1450.5,true,NA,NA,NA,NA,NA
t53MoJEb,NA,NA,t53MoJEb,2020-0188,2021-11-15,17:27:21,18:59:23,NA,incomplete,false,true,NA,4,11,E31_Q6_ansL.png,left,NA,NA,NA,left,1080,true,NA,NA,NA,NA,NA
t53MoJEb,NA,NA,t53MoJEb,2020-0188,2021-11-15,17:27:21,18:59:23,NA,incomplete,false,true,NA,4,12,E31_Q9_ansL.png,left,NA,NA,NA,left,1396,true,NA,NA,NA,NA,NA
t53MoJEb,NA,NA,t53MoJEb,2020-0188,2021-11-15,17:27:21,18:59:23,NA,incomplete,false,true,NA,4,13,E31_Q1_ansR.png,right,NA,NA,NA,right,2106.90000000596,true,NA,NA,NA,NA,NA
t53MoJEb,NA,NA,t53MoJEb,2020-0188,2021-11-15,17:27:21,18:59:23,NA,incomplete,false,true,NA,4,14,E31_Q2_ansR.png,right,NA,NA,NA,right,978.09999999404,true,NA,NA,NA,NA,NA
t53MoJEb,NA,NA,t53MoJEb,2020-0188,2021-11-15,17:27:21,18:59:23,NA,incomplete,false,true,NA,4,15,E31_Q4_ansL.png,left,NA,NA,NA,left,2661.69999998808,true,NA,NA,NA,NA,NA
t53MoJEb,NA,NA,t53MoJEb,2020-0188,2021-11-15,17:27:21,18:59:23,NA,incomplete,false,true,NA,4,16,E31_Q3_ansL.png,left,NA,NA,NA,left,1003.90000000596,true,NA,NA,NA,NA,NA
t53MoJEb,NA,NA,t53MoJEb,2020-0188,2021-11-15,17:27:21,18:59:23,NA,incomplete,false,true,NA,4,17,E31_Q7_ansR.png,right,NA,NA,NA,right,1446.79999999702,true,NA,NA,NA,NA,NA
t53MoJEb,NA,NA,t53MoJEb,2020-0188,2021-11-15,17:27:21,18:59:23,NA,incomplete,false,true,NA,4,18,E31_Q8_ansR.png,right,NA,NA,NA,left,1771.40000000596,false,NA,NA,NA,NA,NA
t53MoJEb,NA,NA,t53MoJEb,2020-0188,2021-11-15,17:27:21,18:59:23,NA,incomplete,false,true,NA,4,19,E31_Q10_ansR.png,right,NA,NA,NA,right,1523.5,true,NA,NA,NA,NA,NA
t53MoJEb,NA,NA,t53MoJEb,2020-0188,2021-11-15,17:27:21,18:59:23,NA,incomplete,false,true,NA,4,20,E8_Q7_ansR.png,right,NA,NA,NA,right,2315.70000000298,true,NA,NA,NA,NA,NA
t53MoJEb,NA,NA,t53MoJEb,2020-0188,2021-11-15,17:27:21,18:59:23,NA,incomplete,false,true,NA,4,21,E8_Q1_ansR.png,right,NA,NA,NA,right,1785.29999999702,true,NA,NA,NA,NA,NA
t53MoJEb,NA,NA,t53MoJEb,2020-0188,2021-11-15,17:27:21,18:59:23,NA,incomplete,false,true,NA,4,22,E8_Q9_ansL.png,left,NA,NA,NA,left,905.90000000596,true,NA,NA,NA,NA,NA
t53MoJEb,NA,NA,t53MoJEb,2020-0188,2021-11-15,17:27:21,18:59:23,NA,incomplete,false,true,NA,4,23,E8_Q4_ansL.png,left,NA,NA,NA,left,1979.20000000298,true,NA,NA,NA,NA,NA
t53MoJEb,NA,NA,t53MoJEb,2020-0188,2021-11-15,17:27:21,18:59:23,NA,incomplete,false,true,NA,4,24,E8_Q8_ansR.png,right,NA,NA,NA,right,1324.09999999404,true,NA,NA,NA,NA,NA
t53MoJEb,NA,NA,t53MoJEb,2020-0188,2021-11-15,17:27:21,18:59:23,NA,incomplete,false,true,NA,4,25,E8_Q5_ansL.png,left,NA,NA,NA,left,1708,true,NA,NA,NA,NA,NA
t53MoJEb,NA,NA,t53MoJEb,2020-0188,2021-11-15,17:27:21,18:59:23,NA,incomplete,false,true,NA,4,26,E8_Q6_ansL.png,left,NA,NA,NA,left,1667.40000000596,true,NA,NA,NA,NA,NA
t53MoJEb,NA,NA,t53MoJEb,2020-0188,2021-11-15,17:27:21,18:59:23,NA,incomplete,false,true,NA,4,27,E8_Q3_ansL.png,left,NA,NA,NA,left,2071.10000000894,true,NA,NA,NA,NA,NA
t53MoJEb,NA,NA,t53MoJEb,2020-0188,2021-11-15,17:27:21,18:59:23,NA,incomplete,false,true,NA,4,28,E8_Q10_ansR.png,right,NA,NA,NA,right,1220.09999999404,true,NA,NA,NA,NA,NA
t53MoJEb,NA,NA,t53MoJEb,2020-0188,2021-11-15,17:27:21,18:59:23,NA,incomplete,false,true,NA,4,29,E8_Q2_ansR.png,right,NA,NA,NA,right,2215.5,true,NA,NA,NA,NA,NA
t53MoJEb,NA,NA,t53MoJEb,2020-0188,2021-11-15,17:27:21,18:59:23,NA,incomplete,false,NA,true,4,0,NA,left,E8_Q6_ansL.png,E8_Q2_ansR.png,within,NA,NaN,NA,right,1226.1000000089407,0,1,2688.5999999940395
t53MoJEb,NA,NA,t53MoJEb,2020-0188,2021-11-15,17:27:21,18:59:23,NA,incomplete,false,NA,true,4,1,NA,left,E31_Q10_ansR.png,E8_Q9_ansL.png,between,NA,NaN,NA,left,2016.9000000059605,1,2,2690.4000000059605
t53MoJEb,NA,NA,t53MoJEb,2020-0188,2021-11-15,17:27:21,18:59:23,NA,incomplete,false,NA,true,4,2,NA,right,E17_Q8_ansL.png,E17_Q9_ansR.png,within,NA,NaN,NA,right,1712.2999999970198,1,1,1479.7999999970198
t53MoJEb,NA,NA,t53MoJEb,2020-0188,2021-11-15,17:27:21,18:59:23,NA,incomplete,false,NA,true,4,3,NA,left,E17_Q7_ansL.png,E17_Q3_ansR.png,within,NA,NaN,NA,right,3532.3999999910593,0,1,1109.1000000089407
t53MoJEb,NA,NA,t53MoJEb,2020-0188,2021-11-15,17:27:21,18:59:23,NA,incomplete,false,NA,true,4,4,NA,left,E17_Q8_ansL.png,E17_Q4_ansR.png,within,NA,NaN,NA,right,1168.699999988079,0,1,2089.5
t53MoJEb,NA,NA,t53MoJEb,2020-0188,2021-11-15,17:27:21,18:59:23,NA,incomplete,false,NA,true,4,5,NA,right,E8_Q1_ansR.png,E31_Q8_ansR.png,between,NA,NaN,NA,right,1653.2999999970198,1,2,3812.2999999970198
t53MoJEb,NA,NA,t53MoJEb,2020-0188,2021-11-15,17:27:21,18:59:23,NA,incomplete,false,NA,true,4,6,NA,right,E31_Q6_ansL.png,E17_Q1_ansL.png,between,NA,NaN,NA,left,1522.4000000059605,0,2,4303.5999999940395
t53MoJEb,NA,NA,t53MoJEb,2020-0188,2021-11-15,17:27:21,18:59:23,NA,incomplete,false,NA,true,4,7,NA,left,E17_Q2_ansL.png,E17_Q10_ansL.png,within,NA,NaN,NA,right,2221.4000000059605,0,1,1365.2000000029802
t53MoJEb,NA,NA,t53MoJEb,2020-0188,2021-11-15,17:27:21,18:59:23,NA,incomplete,false,NA,true,4,8,NA,right,E31_Q7_ansR.png,E31_Q2_ansR.png,within,NA,NaN,NA,left,2247.7000000029802,0,1,1201.9000000059605
t53MoJEb,NA,NA,t53MoJEb,2020-0188,2021-11-15,17:27:21,18:59:23,NA,incomplete,false,NA,true,4,9,NA,right,E17_Q6_ansR.png,E17_Q3_ansR.png,within,NA,NaN,NA,right,3392.5999999940395,1,1,1249.3999999910593
t53MoJEb,NA,NA,t53MoJEb,2020-0188,2021-11-15,17:27:21,18:59:23,NA,incomplete,false,NA,true,4,10,NA,right,E31_Q4_ansL.png,E31_Q9_ansL.png,within,NA,NaN,NA,left,824.5999999940395,0,1,1481
t53MoJEb,NA,NA,t53MoJEb,2020-0188,2021-11-15,17:27:21,18:59:23,NA,incomplete,false,NA,true,4,11,NA,right,E31_Q10_ansR.png,E31_Q3_ansL.png,within,NA,NaN,NA,left,1464.8999999910593,0,1,2252.2999999970198
t53MoJEb,NA,NA,t53MoJEb,2020-0188,2021-11-15,17:27:21,18:59:23,NA,incomplete,false,NA,true,4,12,NA,right,E17_Q5_ansR.png,E17_Q4_ansR.png,within,NA,NaN,NA,right,2888.7000000029802,1,1,1864.7999999970198
t53MoJEb,NA,NA,t53MoJEb,2020-0188,2021-11-15,17:27:21,18:59:23,NA,incomplete,false,NA,true,4,13,NA,left,E8_Q9_ansL.png,E8_Q5_ansL.png,within,NA,NaN,NA,right,986.9000000059605,0,1,3894.2999999970198
t53MoJEb,NA,NA,t53MoJEb,2020-0188,2021-11-15,17:27:21,18:59:23,NA,incomplete,false,NA,true,4,14,NA,right,E31_Q8_ansR.png,E31_Q4_ansL.png,within,NA,NaN,NA,left,1267.0999999940395,0,1,9092.79999999702
t53MoJEb,NA,NA,t53MoJEb,2020-0188,2021-11-15,17:27:21,18:59:23,NA,incomplete,false,NA,true,4,15,NA,left,E31_Q6_ansL.png,E31_Q2_ansR.png,within,NA,NaN,NA,left,901.5999999940395,1,1,6984.70000000298
t53MoJEb,NA,NA,t53MoJEb,2020-0188,2021-11-15,17:27:21,18:59:23,NA,incomplete,false,NA,true,4,16,NA,left,E8_Q1_ansR.png,E8_Q8_ansR.png,within,NA,NaN,NA,left,1242.6000000089407,1,1,1025.5999999940395
t53MoJEb,NA,NA,t53MoJEb,2020-0188,2021-11-15,17:27:21,18:59:23,NA,incomplete,false,NA,true,4,17,NA,left,E17_Q5_ansR.png,E31_Q9_ansL.png,between,NA,NaN,NA,right,2643.5,0,2,1940
t53MoJEb,NA,NA,t53MoJEb,2020-0188,2021-11-15,17:27:21,18:59:23,NA,incomplete,false,NA,true,4,18,NA,right,E31_Q3_ansL.png,E31_Q1_ansR.png,within,NA,NaN,NA,right,10812.09999999404,1,1,1974.2000000029802
t53MoJEb,NA,NA,t53MoJEb,2020-0188,2021-11-15,17:27:21,18:59:23,NA,incomplete,false,NA,true,4,19,NA,right,E8_Q3_ansL.png,E8_Q8_ansR.png,within,NA,NaN,NA,left,774.3000000119209,0,1,1562.7000000029802
t53MoJEb,NA,NA,t53MoJEb,2020-0188,2021-11-15,17:27:21,18:59:23,NA,incomplete,false,NA,true,4,20,NA,left,E17_Q6_ansR.png,E31_Q5_ansL.png,between,NA,NaN,NA,left,5292.899999991059,1,2,3124.800000011921
t53MoJEb,NA,NA,t53MoJEb,2020-0188,2021-11-15,17:27:21,18:59:23,NA,incomplete,false,NA,true,4,21,NA,right,E8_Q6_ansL.png,E8_Q4_ansL.png,within,NA,NaN,NA,right,3160.9000000059605,1,1,3019.7999999970198
t53MoJEb,NA,NA,t53MoJEb,2020-0188,2021-11-15,17:27:21,18:59:23,NA,incomplete,false,NA,true,4,22,NA,left,E31_Q7_ansR.png,E8_Q7_ansR.png,between,NA,NaN,NA,right,2156.3999999910593,0,1,1135.2000000029802
t53MoJEb,NA,NA,t53MoJEb,2020-0188,2021-11-15,17:27:21,18:59:23,NA,incomplete,false,NA,true,4,23,NA,left,E8_Q5_ansL.png,E8_Q10_ansR.png,within,NA,NaN,NA,right,3871.2000000029802,0,1,1798.800000011921
t53MoJEb,NA,NA,t53MoJEb,2020-0188,2021-11-15,17:27:21,18:59:23,NA,incomplete,false,NA,true,4,24,NA,left,E31_Q5_ansL.png,E31_Q1_ansR.png,within,NA,NaN,NA,right,4274.20000000298,0,1,19143.29999999702
t53MoJEb,NA,NA,t53MoJEb,2020-0188,2021-11-15,17:27:21,18:59:23,NA,incomplete,false,NA,true,4,25,NA,left,E17_Q10_ansL.png,E17_Q1_ansL.png,within,NA,NaN,NA,right,953.9000000059605,0,1,954.8000000119209
t53MoJEb,NA,NA,t53MoJEb,2020-0188,2021-11-15,17:27:21,18:59:23,NA,incomplete,false,NA,true,4,26,NA,right,E8_Q4_ansL.png,E8_Q7_ansR.png,within,NA,NaN,NA,right,3169.300000011921,1,1,1176.300000011921
t53MoJEb,NA,NA,t53MoJEb,2020-0188,2021-11-15,17:27:21,18:59:23,NA,incomplete,false,true,NA,5,0,E4_Q3_ansL.png,left,NA,NA,NA,left,2133.79999999702,true,NA,NA,NA,NA,NA
t53MoJEb,NA,NA,t53MoJEb,2020-0188,2021-11-15,17:27:21,18:59:23,NA,incomplete,false,true,NA,5,1,E4_Q2_ansL.png,left,NA,NA,NA,left,1310.70000000298,true,NA,NA,NA,NA,NA
t53MoJEb,NA,NA,t53MoJEb,2020-0188,2021-11-15,17:27:21,18:59:23,NA,incomplete,false,true,NA,5,2,E4_Q8_ansR.png,right,NA,NA,NA,right,1757.20000000298,true,NA,NA,NA,NA,NA
t53MoJEb,NA,NA,t53MoJEb,2020-0188,2021-11-15,17:27:21,18:59:23,NA,incomplete,false,true,NA,5,3,E4_Q9_ansL.png,left,NA,NA,NA,left,1090.79999999702,true,NA,NA,NA,NA,NA
t53MoJEb,NA,NA,t53MoJEb,2020-0188,2021-11-15,17:27:21,18:59:23,NA,incomplete,false,true,NA,5,4,E4_Q5_ansR.png,right,NA,NA,NA,left,1600.60000000894,false,NA,NA,NA,NA,NA
t53MoJEb,NA,NA,t53MoJEb,2020-0188,2021-11-15,17:27:21,18:59:23,NA,incomplete,false,true,NA,5,5,E4_Q1_ansL.png,left,NA,NA,NA,left,1181.19999998808,true,NA,NA,NA,NA,NA
t53MoJEb,NA,NA,t53MoJEb,2020-0188,2021-11-15,17:27:21,18:59:23,NA,incomplete,false,true,NA,5,6,E4_Q6_ansR.png,right,NA,NA,NA,right,1997.09999999404,true,NA,NA,NA,NA,NA
t53MoJEb,NA,NA,t53MoJEb,2020-0188,2021-11-15,17:27:21,18:59:23,NA,incomplete,false,true,NA,5,7,E4_Q10_ansR.png,right,NA,NA,NA,right,1611.90000000596,true,NA,NA,NA,NA,NA
t53MoJEb,NA,NA,t53MoJEb,2020-0188,2021-11-15,17:27:21,18:59:23,NA,incomplete,false,true,NA,5,8,E4_Q7_ansR.png,right,NA,NA,NA,right,2161.90000000596,true,NA,NA,NA,NA,NA
t53MoJEb,NA,NA,t53MoJEb,2020-0188,2021-11-15,17:27:21,18:59:23,NA,incomplete,false,true,NA,5,9,E4_Q4_ansL.png,left,NA,NA,NA,left,2795.89999999106,true,NA,NA,NA,NA,NA
t53MoJEb,NA,NA,t53MoJEb,2020-0188,2021-11-15,17:27:21,18:59:23,NA,incomplete,false,true,NA,5,10,E14_Q9_ansR.png,right,NA,NA,NA,right,1887.29999999702,true,NA,NA,NA,NA,NA
t53MoJEb,NA,NA,t53MoJEb,2020-0188,2021-11-15,17:27:21,18:59:23,NA,incomplete,false,true,NA,5,11,E14_Q7_ansL.png,left,NA,NA,NA,left,1411.20000000298,true,NA,NA,NA,NA,NA
t53MoJEb,NA,NA,t53MoJEb,2020-0188,2021-11-15,17:27:21,18:59:23,NA,incomplete,false,true,NA,5,12,E14_Q2_ansL.png,left,NA,NA,NA,left,1429.79999999702,true,NA,NA,NA,NA,NA
t53MoJEb,NA,NA,t53MoJEb,2020-0188,2021-11-15,17:27:21,18:59:23,NA,incomplete,false,true,NA,5,13,E14_Q10_ansL.png,left,NA,NA,NA,left,2252.59999999404,true,NA,NA,NA,NA,NA
t53MoJEb,NA,NA,t53MoJEb,2020-0188,2021-11-15,17:27:21,18:59:23,NA,incomplete,false,true,NA,5,14,E14_Q4_ansR.png,right,NA,NA,NA,right,1130.5,true,NA,NA,NA,NA,NA
t53MoJEb,NA,NA,t53MoJEb,2020-0188,2021-11-15,17:27:21,18:59:23,NA,incomplete,false,true,NA,5,15,E14_Q8_ansL.png,left,NA,NA,NA,left,1450.29999999702,true,NA,NA,NA,NA,NA
t53MoJEb,NA,NA,t53MoJEb,2020-0188,2021-11-15,17:27:21,18:59:23,NA,incomplete,false,true,NA,5,16,E14_Q5_ansR.png,right,NA,NA,NA,right,2619.20000000298,true,NA,NA,NA,NA,NA
t53MoJEb,NA,NA,t53MoJEb,2020-0188,2021-11-15,17:27:21,18:59:23,NA,incomplete,false,true,NA,5,17,E14_Q6_ansR.png,right,NA,NA,NA,right,1353.5,true,NA,NA,NA,NA,NA
t53MoJEb,NA,NA,t53MoJEb,2020-0188,2021-11-15,17:27:21,18:59:23,NA,incomplete,false,true,NA,5,18,E14_Q3_ansR.png,right,NA,NA,NA,right,1282.40000000596,true,NA,NA,NA,NA,NA
t53MoJEb,NA,NA,t53MoJEb,2020-0188,2021-11-15,17:27:21,18:59:23,NA,incomplete,false,true,NA,5,19,E14_Q1_ansL.png,left,NA,NA,NA,left,1826.20000000298,true,NA,NA,NA,NA,NA
t53MoJEb,NA,NA,t53MoJEb,2020-0188,2021-11-15,17:27:21,18:59:23,NA,incomplete,false,true,NA,5,20,E33_Q4_ansR.png,right,NA,NA,NA,right,1992.80000001192,true,NA,NA,NA,NA,NA
t53MoJEb,NA,NA,t53MoJEb,2020-0188,2021-11-15,17:27:21,18:59:23,NA,incomplete,false,true,NA,5,21,E33_Q9_ansR.png,right,NA,NA,NA,right,1458.90000000596,true,NA,NA,NA,NA,NA
t53MoJEb,NA,NA,t53MoJEb,2020-0188,2021-11-15,17:27:21,18:59:23,NA,incomplete,false,true,NA,5,22,E33_Q3_ansR.png,right,NA,NA,NA,right,1871.29999999702,true,NA,NA,NA,NA,NA
t53MoJEb,NA,NA,t53MoJEb,2020-0188,2021-11-15,17:27:21,18:59:23,NA,incomplete,false,true,NA,5,23,E33_Q6_ansR.png,right,NA,NA,NA,right,1899.90000000596,true,NA,NA,NA,NA,NA
t53MoJEb,NA,NA,t53MoJEb,2020-0188,2021-11-15,17:27:21,18:59:23,NA,incomplete,false,true,NA,5,24,E33_Q5_ansR.png,right,NA,NA,NA,left,2608.39999999106,false,NA,NA,NA,NA,NA
t53MoJEb,NA,NA,t53MoJEb,2020-0188,2021-11-15,17:27:21,18:59:23,NA,incomplete,false,true,NA,5,25,E33_Q7_ansL.png,left,NA,NA,NA,right,1927.09999999404,false,NA,NA,NA,NA,NA
t53MoJEb,NA,NA,t53MoJEb,2020-0188,2021-11-15,17:27:21,18:59:23,NA,incomplete,false,true,NA,5,26,E33_Q10_ansL.png,left,NA,NA,NA,right,1349.40000000596,false,NA,NA,NA,NA,NA
t53MoJEb,NA,NA,t53MoJEb,2020-0188,2021-11-15,17:27:21,18:59:23,NA,incomplete,false,true,NA,5,27,E33_Q2_ansL.png,left,NA,NA,NA,left,1437.20000000298,true,NA,NA,NA,NA,NA
t53MoJEb,NA,NA,t53MoJEb,2020-0188,2021-11-15,17:27:21,18:59:23,NA,incomplete,false,true,NA,5,28,E33_Q1_ansL.png,left,NA,NA,NA,none,0,false,NA,NA,NA,NA,NA
t53MoJEb,NA,NA,t53MoJEb,2020-0188,2021-11-15,17:27:21,18:59:23,NA,incomplete,false,true,NA,5,29,E33_Q8_ansL.png,left,NA,NA,NA,right,2611.59999999404,false,NA,NA,NA,NA,NA
t53MoJEb,NA,NA,t53MoJEb,2020-0188,2021-11-15,17:27:21,18:59:23,NA,incomplete,false,NA,true,5,0,NA,right,E33_Q3_ansR.png,E14_Q1_ansL.png,between,NA,NaN,NA,right,4005.3999999910593,1,2,1336.0999999940395
t53MoJEb,NA,NA,t53MoJEb,2020-0188,2021-11-15,17:27:21,18:59:23,NA,incomplete,false,NA,true,5,1,NA,left,E33_Q3_ansR.png,E33_Q7_ansL.png,within,NA,NaN,NA,left,1153.0999999940395,1,1,2442.5999999940395
t53MoJEb,NA,NA,t53MoJEb,2020-0188,2021-11-15,17:27:21,18:59:23,NA,incomplete,false,NA,true,5,2,NA,right,E33_Q5_ansR.png,E33_Q9_ansR.png,within,NA,NaN,NA,right,13679.10000000894,1,1,1659.5999999940395
t53MoJEb,NA,NA,t53MoJEb,2020-0188,2021-11-15,17:27:21,18:59:23,NA,incomplete,false,NA,true,5,3,NA,left,E14_Q10_ansL.png,E14_Q5_ansR.png,within,NA,NaN,NA,left,1454.5,1,1,1306.2000000029802
t53MoJEb,NA,NA,t53MoJEb,2020-0188,2021-11-15,17:27:21,18:59:23,NA,incomplete,false,NA,true,5,4,NA,right,E4_Q4_ansL.png,E4_Q6_ansR.png,within,NA,NaN,NA,right,16706.70000000298,1,1,1422
t53MoJEb,NA,NA,t53MoJEb,2020-0188,2021-11-15,17:27:21,18:59:23,NA,incomplete,false,NA,true,5,5,NA,right,E14_Q7_ansL.png,E4_Q7_ansR.png,between,NA,NaN,NA,left,4952.29999999702,0,2,3011
t53MoJEb,NA,NA,t53MoJEb,2020-0188,2021-11-15,17:27:21,18:59:23,NA,incomplete,false,NA,true,5,6,NA,right,E14_Q2_ansL.png,E4_Q4_ansL.png,between,NA,NaN,NA,left,3678.9000000059605,0,2,1891.7999999970198
t53MoJEb,NA,NA,t53MoJEb,2020-0188,2021-11-15,17:27:21,18:59:23,NA,incomplete,false,NA,true,5,7,NA,left,E4_Q1_ansL.png,E4_Q7_ansR.png,within,NA,NaN,NA,left,2354.5999999940395,1,1,1496.5999999940395
t53MoJEb,NA,NA,t53MoJEb,2020-0188,2021-11-15,17:27:21,18:59:23,NA,incomplete,false,NA,true,5,8,NA,left,E4_Q10_ansR.png,E14_Q9_ansR.png,between,NA,NaN,NA,right,896.9000000059605,0,1,911.5
t53MoJEb,NA,NA,t53MoJEb,2020-0188,2021-11-15,17:27:21,18:59:23,NA,incomplete,false,NA,true,5,9,NA,left,E33_Q10_ansL.png,E33_Q8_ansL.png,within,NA,NaN,NA,left,4459.70000000298,1,1,2540.5
t53MoJEb,NA,NA,t53MoJEb,2020-0188,2021-11-15,17:27:21,18:59:23,NA,incomplete,false,NA,true,5,10,NA,right,E14_Q10_ansL.png,E14_Q9_ansR.png,within,NA,NaN,NA,left,10074.39999999106,0,1,1356.5999999940395
t53MoJEb,NA,NA,t53MoJEb,2020-0188,2021-11-15,17:27:21,18:59:23,NA,incomplete,false,NA,true,5,11,NA,left,E14_Q6_ansR.png,E33_Q4_ansR.png,between,NA,NaN,NA,left,1482.3999999910593,1,2,44679.10000000894
t53MoJEb,NA,NA,t53MoJEb,2020-0188,2021-11-15,17:27:21,18:59:23,NA,incomplete,false,NA,true,5,12,NA,left,E4_Q9_ansL.png,E4_Q6_ansR.png,within,NA,NaN,NA,left,1110.1000000089407,1,1,3397
t53MoJEb,NA,NA,t53MoJEb,2020-0188,2021-11-15,17:27:21,18:59:23,NA,incomplete,false,NA,true,5,13,NA,left,E33_Q4_ansR.png,E33_Q6_ansR.png,within,NA,NaN,NA,left,1020.2999999970198,1,1,1431.4000000059605
t53MoJEb,NA,NA,t53MoJEb,2020-0188,2021-11-15,17:27:21,18:59:23,NA,incomplete,false,NA,true,5,14,NA,left,E4_Q8_ansR.png,E4_Q1_ansL.png,within,NA,NaN,NA,left,5119.5999999940395,1,1,1504.2000000029802
t53MoJEb,NA,NA,t53MoJEb,2020-0188,2021-11-15,17:27:21,18:59:23,NA,incomplete,false,NA,true,5,15,NA,right,E33_Q10_ansL.png,E33_Q6_ansR.png,within,NA,NaN,NA,left,3193.5,0,1,1354.2000000029802
t53MoJEb,NA,NA,t53MoJEb,2020-0188,2021-11-15,17:27:21,18:59:23,NA,incomplete,false,NA,true,5,16,NA,left,E14_Q8_ansL.png,E14_Q3_ansR.png,within,NA,NaN,NA,right,2551.4000000059605,0,1,1192.2000000029802
t53MoJEb,NA,NA,t53MoJEb,2020-0188,2021-11-15,17:27:21,18:59:23,NA,incomplete,false,NA,true,5,17,NA,left,E4_Q3_ansL.png,E4_Q9_ansL.png,within,NA,NaN,NA,left,822.7999999970198,1,1,1266.2999999970198
t53MoJEb,NA,NA,t53MoJEb,2020-0188,2021-11-15,17:27:21,18:59:23,NA,incomplete,false,NA,true,5,18,NA,right,E33_Q2_ansL.png,E33_Q5_ansR.png,within,NA,NaN,NA,left,12473.59999999404,0,1,6277.79999999702
t53MoJEb,NA,NA,t53MoJEb,2020-0188,2021-11-15,17:27:21,18:59:23,NA,incomplete,false,NA,true,5,19,NA,right,E33_Q1_ansL.png,E33_Q7_ansL.png,within,NA,NaN,NA,right,2928.7999999970198,1,1,1538.2000000029802
t53MoJEb,NA,NA,t53MoJEb,2020-0188,2021-11-15,17:27:21,18:59:23,NA,incomplete,false,NA,true,5,20,NA,right,E4_Q5_ansR.png,E4_Q2_ansL.png,within,NA,NaN,NA,left,3662.199999988079,0,1,1661.1000000089407
t53MoJEb,NA,NA,t53MoJEb,2020-0188,2021-11-15,17:27:21,18:59:23,NA,incomplete,false,NA,true,5,21,NA,left,E14_Q3_ansR.png,E33_Q9_ansR.png,between,NA,NaN,NA,left,2263.3999999910593,1,2,3274
t53MoJEb,NA,NA,t53MoJEb,2020-0188,2021-11-15,17:27:21,18:59:23,NA,incomplete,false,NA,true,5,22,NA,left,E14_Q4_ansR.png,E14_Q6_ansR.png,within,NA,NaN,NA,left,1317.8999999910593,1,1,1734.2000000029802
t53MoJEb,NA,NA,t53MoJEb,2020-0188,2021-11-15,17:27:21,18:59:23,NA,incomplete,false,NA,true,5,23,NA,left,E14_Q2_ansL.png,E14_Q8_ansL.png,within,NA,NaN,NA,left,26131.30000001192,1,1,5869.29999999702
t53MoJEb,NA,NA,t53MoJEb,2020-0188,2021-11-15,17:27:21,18:59:23,NA,incomplete,false,NA,true,5,24,NA,right,E4_Q10_ansR.png,E4_Q5_ansR.png,within,NA,NaN,NA,left,22476.70000000298,0,1,1224.5999999940395
t53MoJEb,NA,NA,t53MoJEb,2020-0188,2021-11-15,17:27:21,18:59:23,NA,incomplete,false,NA,true,5,25,NA,right,E14_Q1_ansL.png,E14_Q5_ansR.png,within,NA,NaN,NA,right,7504.699999988079,1,1,1864.7999999970198
t53MoJEb,NA,NA,t53MoJEb,2020-0188,2021-11-15,17:27:21,18:59:23,NA,incomplete,false,NA,true,5,26,NA,left,E14_Q7_ansL.png,E14_Q4_ansR.png,within,NA,NaN,NA,left,987.1999999880791,1,1,1216.0999999940395
t53MoJEb,NA,NA,t53MoJEb,2020-0188,2021-11-15,17:27:21,18:59:23,NA,incomplete,false,true,NA,6,0,E30_Q1_ansL.png,left,NA,NA,NA,left,1611.30000001192,true,NA,NA,NA,NA,NA
t53MoJEb,NA,NA,t53MoJEb,2020-0188,2021-11-15,17:27:21,18:59:23,NA,incomplete,false,true,NA,6,1,E30_Q3_ansL.png,left,NA,NA,NA,left,2381.09999999404,true,NA,NA,NA,NA,NA
t53MoJEb,NA,NA,t53MoJEb,2020-0188,2021-11-15,17:27:21,18:59:23,NA,incomplete,false,true,NA,6,2,E30_Q5_ansR.png,right,NA,NA,NA,right,1612,true,NA,NA,NA,NA,NA
t53MoJEb,NA,NA,t53MoJEb,2020-0188,2021-11-15,17:27:21,18:59:23,NA,incomplete,false,true,NA,6,3,E30_Q7_ansL.png,left,NA,NA,NA,right,2296.29999999702,false,NA,NA,NA,NA,NA
t53MoJEb,NA,NA,t53MoJEb,2020-0188,2021-11-15,17:27:21,18:59:23,NA,incomplete,false,true,NA,6,4,E30_Q6_ansR.png,right,NA,NA,NA,right,2207.09999999404,true,NA,NA,NA,NA,NA
t53MoJEb,NA,NA,t53MoJEb,2020-0188,2021-11-15,17:27:21,18:59:23,NA,incomplete,false,true,NA,6,5,E30_Q4_ansL.png,left,NA,NA,NA,left,3307.39999999106,true,NA,NA,NA,NA,NA
t53MoJEb,NA,NA,t53MoJEb,2020-0188,2021-11-15,17:27:21,18:59:23,NA,incomplete,false,true,NA,6,6,E30_Q9_ansL.png,left,NA,NA,NA,left,1977,true,NA,NA,NA,NA,NA
t53MoJEb,NA,NA,t53MoJEb,2020-0188,2021-11-15,17:27:21,18:59:23,NA,incomplete,false,true,NA,6,7,E30_Q10_ansR.png,right,NA,NA,NA,right,2666.79999999702,true,NA,NA,NA,NA,NA
t53MoJEb,NA,NA,t53MoJEb,2020-0188,2021-11-15,17:27:21,18:59:23,NA,incomplete,false,true,NA,6,8,E30_Q2_ansL.png,left,NA,NA,NA,left,2044.10000000894,true,NA,NA,NA,NA,NA
t53MoJEb,NA,NA,t53MoJEb,2020-0188,2021-11-15,17:27:21,18:59:23,NA,incomplete,false,true,NA,6,9,E30_Q8_ansL.png,left,NA,NA,NA,left,3340.10000000894,true,NA,NA,NA,NA,NA
t53MoJEb,NA,NA,t53MoJEb,2020-0188,2021-11-15,17:27:21,18:59:23,NA,incomplete,false,true,NA,6,10,E25_Q5_ansL.png,left,NA,NA,NA,left,2216.89999999106,true,NA,NA,NA,NA,NA
t53MoJEb,NA,NA,t53MoJEb,2020-0188,2021-11-15,17:27:21,18:59:23,NA,incomplete,false,true,NA,6,11,E25_Q10_ansR.png,right,NA,NA,NA,right,1632.40000000596,true,NA,NA,NA,NA,NA
t53MoJEb,NA,NA,t53MoJEb,2020-0188,2021-11-15,17:27:21,18:59:23,NA,incomplete,false,true,NA,6,12,E25_Q9_ansL.png,left,NA,NA,NA,left,1859.40000000596,true,NA,NA,NA,NA,NA
t53MoJEb,NA,NA,t53MoJEb,2020-0188,2021-11-15,17:27:21,18:59:23,NA,incomplete,false,true,NA,6,13,E25_Q8_ansR.png,right,NA,NA,NA,right,1568.20000000298,true,NA,NA,NA,NA,NA
t53MoJEb,NA,NA,t53MoJEb,2020-0188,2021-11-15,17:27:21,18:59:23,NA,incomplete,false,true,NA,6,14,E25_Q6_ansL.png,left,NA,NA,NA,left,2007.20000000298,true,NA,NA,NA,NA,NA
t53MoJEb,NA,NA,t53MoJEb,2020-0188,2021-11-15,17:27:21,18:59:23,NA,incomplete,false,true,NA,6,15,E25_Q1_ansR.png,right,NA,NA,NA,right,1505.40000000596,true,NA,NA,NA,NA,NA
t53MoJEb,NA,NA,t53MoJEb,2020-0188,2021-11-15,17:27:21,18:59:23,NA,incomplete,false,true,NA,6,16,E25_Q3_ansL.png,left,NA,NA,NA,left,2330.70000000298,true,NA,NA,NA,NA,NA
t53MoJEb,NA,NA,t53MoJEb,2020-0188,2021-11-15,17:27:21,18:59:23,NA,incomplete,false,true,NA,6,17,E25_Q2_ansR.png,right,NA,NA,NA,right,1545.20000000298,true,NA,NA,NA,NA,NA
t53MoJEb,NA,NA,t53MoJEb,2020-0188,2021-11-15,17:27:21,18:59:23,NA,incomplete,false,true,NA,6,18,E25_Q4_ansL.png,left,NA,NA,NA,left,2209.70000000298,true,NA,NA,NA,NA,NA
t53MoJEb,NA,NA,t53MoJEb,2020-0188,2021-11-15,17:27:21,18:59:23,NA,incomplete,false,true,NA,6,19,E25_Q7_ansR.png,right,NA,NA,NA,right,2186.90000000596,true,NA,NA,NA,NA,NA
t53MoJEb,NA,NA,t53MoJEb,2020-0188,2021-11-15,17:27:21,18:59:23,NA,incomplete,false,true,NA,6,20,E20_Q3_ansR.png,right,NA,NA,NA,right,2614.30000001192,true,NA,NA,NA,NA,NA
t53MoJEb,NA,NA,t53MoJEb,2020-0188,2021-11-15,17:27:21,18:59:23,NA,incomplete,false,true,NA,6,21,E20_Q6_ansR.png,right,NA,NA,NA,right,1780.70000000298,true,NA,NA,NA,NA,NA
t53MoJEb,NA,NA,t53MoJEb,2020-0188,2021-11-15,17:27:21,18:59:23,NA,incomplete,false,true,NA,6,22,E20_Q2_ansL.png,left,NA,NA,NA,left,2667.5,true,NA,NA,NA,NA,NA
t53MoJEb,NA,NA,t53MoJEb,2020-0188,2021-11-15,17:27:21,18:59:23,NA,incomplete,false,true,NA,6,23,E20_Q7_ansL.png,left,NA,NA,NA,left,1734.09999999404,true,NA,NA,NA,NA,NA
t53MoJEb,NA,NA,t53MoJEb,2020-0188,2021-11-15,17:27:21,18:59:23,NA,incomplete,false,true,NA,6,24,E20_Q10_ansL.png,left,NA,NA,NA,right,1481.70000000298,false,NA,NA,NA,NA,NA
t53MoJEb,NA,NA,t53MoJEb,2020-0188,2021-11-15,17:27:21,18:59:23,NA,incomplete,false,true,NA,6,25,E20_Q9_ansR.png,right,NA,NA,NA,right,2431.5,true,NA,NA,NA,NA,NA
t53MoJEb,NA,NA,t53MoJEb,2020-0188,2021-11-15,17:27:21,18:59:23,NA,incomplete,false,true,NA,6,26,E20_Q1_ansL.png,left,NA,NA,NA,left,1708.09999999404,true,NA,NA,NA,NA,NA
t53MoJEb,NA,NA,t53MoJEb,2020-0188,2021-11-15,17:27:21,18:59:23,NA,incomplete,false,true,NA,6,27,E20_Q4_ansR.png,right,NA,NA,NA,right,1527.60000000894,true,NA,NA,NA,NA,NA
t53MoJEb,NA,NA,t53MoJEb,2020-0188,2021-11-15,17:27:21,18:59:23,NA,incomplete,false,true,NA,6,28,E20_Q8_ansL.png,left,NA,NA,NA,right,1670.09999999404,false,NA,NA,NA,NA,NA
t53MoJEb,NA,NA,t53MoJEb,2020-0188,2021-11-15,17:27:21,18:59:23,NA,incomplete,false,true,NA,6,29,E20_Q5_ansR.png,right,NA,NA,NA,right,2246.39999999106,true,NA,NA,NA,NA,NA
t53MoJEb,NA,NA,t53MoJEb,2020-0188,2021-11-15,17:27:21,18:59:23,NA,incomplete,false,NA,true,6,0,NA,left,E30_Q9_ansL.png,E30_Q8_ansL.png,within,NA,NaN,NA,right,16211.800000011921,0,1,8805.79999999702
t53MoJEb,NA,NA,t53MoJEb,2020-0188,2021-11-15,17:27:21,18:59:23,NA,incomplete,false,NA,true,6,1,NA,right,E30_Q10_ansR.png,E30_Q6_ansR.png,within,NA,NaN,NA,left,855.7000000029802,0,1,2673.2000000029802
t53MoJEb,NA,NA,t53MoJEb,2020-0188,2021-11-15,17:27:21,18:59:23,NA,incomplete,false,NA,true,6,2,NA,right,E30_Q6_ansR.png,E30_Q3_ansL.png,within,NA,NaN,NA,right,10668.70000000298,1,1,2575.4000000059605
t53MoJEb,NA,NA,t53MoJEb,2020-0188,2021-11-15,17:27:21,18:59:23,NA,incomplete,false,NA,true,6,3,NA,right,E25_Q2_ansR.png,E25_Q6_ansL.png,within,NA,NaN,NA,right,10147,1,1,1652.0999999940395
t53MoJEb,NA,NA,t53MoJEb,2020-0188,2021-11-15,17:27:21,18:59:23,NA,incomplete,false,NA,true,6,4,NA,right,E20_Q3_ansR.png,E25_Q2_ansR.png,between,NA,NaN,NA,left,24665.29999999702,0,1,1215.7999999970198
t53MoJEb,NA,NA,t53MoJEb,2020-0188,2021-11-15,17:27:21,18:59:23,NA,incomplete,false,NA,true,6,5,NA,right,E30_Q7_ansL.png,E30_Q1_ansL.png,within,NA,NaN,NA,right,1990.3999999910593,1,1,1027.5
t53MoJEb,NA,NA,t53MoJEb,2020-0188,2021-11-15,17:27:21,18:59:23,NA,incomplete,false,NA,true,6,6,NA,left,E30_Q7_ansL.png,E30_Q9_ansL.png,within,NA,NaN,NA,left,2650.2999999970198,1,1,2566.2999999970198
t53MoJEb,NA,NA,t53MoJEb,2020-0188,2021-11-15,17:27:21,18:59:23,NA,incomplete,false,NA,true,6,7,NA,right,E20_Q5_ansR.png,E20_Q1_ansL.png,within,NA,NaN,NA,left,2099,0,1,1035.2000000029802
t53MoJEb,NA,NA,t53MoJEb,2020-0188,2021-11-15,17:27:21,18:59:23,NA,incomplete,false,NA,true,6,8,NA,right,E25_Q8_ansR.png,E25_Q5_ansL.png,within,NA,NaN,NA,left,30608.40000000596,0,1,2533.2000000029802
t53MoJEb,NA,NA,t53MoJEb,2020-0188,2021-11-15,17:27:21,18:59:23,NA,incomplete,false,NA,true,6,9,NA,right,E20_Q7_ansL.png,E20_Q3_ansR.png,within,NA,NaN,NA,right,19216.79999999702,1,1,1866.300000011921
t53MoJEb,NA,NA,t53MoJEb,2020-0188,2021-11-15,17:27:21,18:59:23,NA,incomplete,false,NA,true,6,10,NA,left,E30_Q8_ansL.png,E25_Q9_ansL.png,between,NA,NaN,NA,left,5572.9000000059605,1,2,6767.300000011921
t53MoJEb,NA,NA,t53MoJEb,2020-0188,2021-11-15,17:27:21,18:59:23,NA,incomplete,false,NA,true,6,11,NA,right,E25_Q5_ansL.png,E30_Q10_ansR.png,between,NA,NaN,NA,right,3514.2999999970198,1,2,1916.5999999940395
t53MoJEb,NA,NA,t53MoJEb,2020-0188,2021-11-15,17:27:21,18:59:23,NA,incomplete,false,NA,true,6,12,NA,left,E25_Q3_ansL.png,E25_Q7_ansR.png,within,NA,NaN,NA,left,1308.4000000059605,1,1,1644.0999999940395
t53MoJEb,NA,NA,t53MoJEb,2020-0188,2021-11-15,17:27:21,18:59:23,NA,incomplete,false,NA,true,6,13,NA,right,E20_Q8_ansL.png,E20_Q9_ansR.png,within,NA,NaN,NA,left,2741,0,1,2433.7999999970198
t53MoJEb,NA,NA,t53MoJEb,2020-0188,2021-11-15,17:27:21,18:59:23,NA,incomplete,false,NA,true,6,14,NA,left,E25_Q9_ansL.png,E25_Q1_ansR.png,within,NA,NaN,NA,left,3143.7999999970198,1,1,17541.09999999404
t53MoJEb,NA,NA,t53MoJEb,2020-0188,2021-11-15,17:27:21,18:59:23,NA,incomplete,false,NA,true,6,15,NA,right,E25_Q3_ansL.png,E25_Q8_ansR.png,within,NA,NaN,NA,left,4254.20000000298,0,1,7621.0999999940395
t53MoJEb,NA,NA,t53MoJEb,2020-0188,2021-11-15,17:27:21,18:59:23,NA,incomplete,false,NA,true,6,16,NA,right,E20_Q1_ansL.png,E20_Q7_ansL.png,within,NA,NaN,NA,left,1029,0,1,6892.399999991059
t53MoJEb,NA,NA,t53MoJEb,2020-0188,2021-11-15,17:27:21,18:59:23,NA,incomplete,false,NA,true,6,17,NA,left,E20_Q2_ansL.png,E20_Q9_ansR.png,within,NA,NaN,NA,left,905.7999999970198,1,1,1207.699999988079
t53MoJEb,NA,NA,t53MoJEb,2020-0188,2021-11-15,17:27:21,18:59:23,NA,incomplete,false,NA,true,6,18,NA,right,E25_Q4_ansL.png,E25_Q1_ansR.png,within,NA,NaN,NA,right,2567.2000000029802,1,1,1281.8999999910593
t53MoJEb,NA,NA,t53MoJEb,2020-0188,2021-11-15,17:27:21,18:59:23,NA,incomplete,false,NA,true,6,19,NA,left,E20_Q10_ansL.png,E20_Q4_ansR.png,within,NA,NaN,NA,left,903.3000000119209,1,1,1133.9000000059605
t53MoJEb,NA,NA,t53MoJEb,2020-0188,2021-11-15,17:27:21,18:59:23,NA,incomplete,false,NA,true,6,20,NA,left,E25_Q10_ansR.png,E25_Q6_ansL.png,within,NA,NaN,NA,left,2312.8999999910593,1,1,1028.0999999940395
t53MoJEb,NA,NA,t53MoJEb,2020-0188,2021-11-15,17:27:21,18:59:23,NA,incomplete,false,NA,true,6,21,NA,right,E25_Q10_ansR.png,E30_Q2_ansL.png,between,NA,NaN,NA,left,1529.5999999940395,0,2,5356.70000000298
t53MoJEb,NA,NA,t53MoJEb,2020-0188,2021-11-15,17:27:21,18:59:23,NA,incomplete,false,NA,true,6,22,NA,left,E30_Q4_ansL.png,E30_Q2_ansL.png,within,NA,NaN,NA,right,2477.7999999970198,0,1,863.2000000029802
t53MoJEb,NA,NA,t53MoJEb,2020-0188,2021-11-15,17:27:21,18:59:23,NA,incomplete,false,NA,true,6,23,NA,right,E20_Q10_ansL.png,E20_Q6_ansR.png,within,NA,NaN,NA,right,2155.7000000029802,1,1,1677.4000000059605
t53MoJEb,NA,NA,t53MoJEb,2020-0188,2021-11-15,17:27:21,18:59:23,NA,incomplete,false,NA,true,6,24,NA,right,E20_Q6_ansR.png,E25_Q4_ansL.png,between,NA,NaN,NA,left,2092.2999999970198,0,2,1736
t53MoJEb,NA,NA,t53MoJEb,2020-0188,2021-11-15,17:27:21,18:59:23,NA,incomplete,false,NA,true,6,25,NA,left,E25_Q7_ansR.png,E20_Q2_ansL.png,between,NA,NaN,NA,left,1143.5999999940395,1,2,11206.199999988079
t53MoJEb,NA,NA,t53MoJEb,2020-0188,2021-11-15,17:27:21,18:59:23,NA,incomplete,false,NA,true,6,26,NA,left,E30_Q5_ansR.png,E30_Q4_ansL.png,within,NA,NaN,NA,right,2598.8999999910593,0,1,902
t53MoJEb,NA,NA,t53MoJEb,2020-0188,2021-11-15,17:27:21,18:59:23,NA,incomplete,false,true,NA,7,0,E24_Q6_ansL.png,left,NA,NA,NA,left,1831.79999999702,true,NA,NA,NA,NA,NA
t53MoJEb,NA,NA,t53MoJEb,2020-0188,2021-11-15,17:27:21,18:59:23,NA,incomplete,false,true,NA,7,1,E24_Q1_ansR.png,right,NA,NA,NA,right,1495.69999998808,true,NA,NA,NA,NA,NA
t53MoJEb,NA,NA,t53MoJEb,2020-0188,2021-11-15,17:27:21,18:59:23,NA,incomplete,false,true,NA,7,2,E24_Q3_ansL.png,left,NA,NA,NA,left,1267.5,true,NA,NA,NA,NA,NA
t53MoJEb,NA,NA,t53MoJEb,2020-0188,2021-11-15,17:27:21,18:59:23,NA,incomplete,false,true,NA,7,3,E24_Q10_ansR.png,right,NA,NA,NA,left,908.100000008941,false,NA,NA,NA,NA,NA
t53MoJEb,NA,NA,t53MoJEb,2020-0188,2021-11-15,17:27:21,18:59:23,NA,incomplete,false,true,NA,7,4,E24_Q8_ansR.png,right,NA,NA,NA,right,1592,true,NA,NA,NA,NA,NA
t53MoJEb,NA,NA,t53MoJEb,2020-0188,2021-11-15,17:27:21,18:59:23,NA,incomplete,false,true,NA,7,5,E24_Q5_ansL.png,left,NA,NA,NA,left,1891,true,NA,NA,NA,NA,NA
t53MoJEb,NA,NA,t53MoJEb,2020-0188,2021-11-15,17:27:21,18:59:23,NA,incomplete,false,true,NA,7,6,E24_Q2_ansR.png,right,NA,NA,NA,right,1545.59999999404,true,NA,NA,NA,NA,NA
t53MoJEb,NA,NA,t53MoJEb,2020-0188,2021-11-15,17:27:21,18:59:23,NA,incomplete,false,true,NA,7,7,E24_Q9_ansL.png,left,NA,NA,NA,left,1402.89999999106,true,NA,NA,NA,NA,NA
t53MoJEb,NA,NA,t53MoJEb,2020-0188,2021-11-15,17:27:21,18:59:23,NA,incomplete,false,true,NA,7,8,E24_Q7_ansR.png,right,NA,NA,NA,right,2658.19999998808,true,NA,NA,NA,NA,NA
t53MoJEb,NA,NA,t53MoJEb,2020-0188,2021-11-15,17:27:21,18:59:23,NA,incomplete,false,true,NA,7,9,E24_Q4_ansL.png,left,NA,NA,NA,left,1174.60000000894,true,NA,NA,NA,NA,NA
t53MoJEb,NA,NA,t53MoJEb,2020-0188,2021-11-15,17:27:21,18:59:23,NA,incomplete,false,true,NA,7,10,E18_Q8_ansL.png,left,NA,NA,NA,left,3342.10000000894,true,NA,NA,NA,NA,NA
t53MoJEb,NA,NA,t53MoJEb,2020-0188,2021-11-15,17:27:21,18:59:23,NA,incomplete,false,true,NA,7,11,E18_Q10_ansL.png,left,NA,NA,NA,left,935.09999999404,true,NA,NA,NA,NA,NA
t53MoJEb,NA,NA,t53MoJEb,2020-0188,2021-11-15,17:27:21,18:59:23,NA,incomplete,false,true,NA,7,12,E18_Q4_ansR.png,right,NA,NA,NA,right,922.09999999404,true,NA,NA,NA,NA,NA
t53MoJEb,NA,NA,t53MoJEb,2020-0188,2021-11-15,17:27:21,18:59:23,NA,incomplete,false,true,NA,7,13,E18_Q1_ansL.png,left,NA,NA,NA,left,1085.5,true,NA,NA,NA,NA,NA
t53MoJEb,NA,NA,t53MoJEb,2020-0188,2021-11-15,17:27:21,18:59:23,NA,incomplete,false,true,NA,7,14,E18_Q6_ansR.png,right,NA,NA,NA,right,1152.09999999404,true,NA,NA,NA,NA,NA
t53MoJEb,NA,NA,t53MoJEb,2020-0188,2021-11-15,17:27:21,18:59:23,NA,incomplete,false,true,NA,7,15,E18_Q7_ansL.png,left,NA,NA,NA,left,1118.29999999702,true,NA,NA,NA,NA,NA
t53MoJEb,NA,NA,t53MoJEb,2020-0188,2021-11-15,17:27:21,18:59:23,NA,incomplete,false,true,NA,7,16,E18_Q3_ansR.png,right,NA,NA,NA,right,1399,true,NA,NA,NA,NA,NA
t53MoJEb,NA,NA,t53MoJEb,2020-0188,2021-11-15,17:27:21,18:59:23,NA,incomplete,false,true,NA,7,17,E18_Q2_ansL.png,left,NA,NA,NA,left,1038.39999999106,true,NA,NA,NA,NA,NA
t53MoJEb,NA,NA,t53MoJEb,2020-0188,2021-11-15,17:27:21,18:59:23,NA,incomplete,false,true,NA,7,18,E18_Q9_ansR.png,right,NA,NA,NA,right,1811.70000000298,true,NA,NA,NA,NA,NA
t53MoJEb,NA,NA,t53MoJEb,2020-0188,2021-11-15,17:27:21,18:59:23,NA,incomplete,false,true,NA,7,19,E18_Q5_ansR.png,right,NA,NA,NA,right,1178.29999999702,true,NA,NA,NA,NA,NA
t53MoJEb,NA,NA,t53MoJEb,2020-0188,2021-11-15,17:27:21,18:59:23,NA,incomplete,false,true,NA,7,20,E13_Q7_ansL.png,left,NA,NA,NA,left,1877.19999998808,true,NA,NA,NA,NA,NA
t53MoJEb,NA,NA,t53MoJEb,2020-0188,2021-11-15,17:27:21,18:59:23,NA,incomplete,false,true,NA,7,21,E13_Q1_ansL.png,left,NA,NA,NA,left,1661.79999999702,true,NA,NA,NA,NA,NA
t53MoJEb,NA,NA,t53MoJEb,2020-0188,2021-11-15,17:27:21,18:59:23,NA,incomplete,false,true,NA,7,22,E13_Q3_ansR.png,right,NA,NA,NA,right,2251.59999999404,true,NA,NA,NA,NA,NA
t53MoJEb,NA,NA,t53MoJEb,2020-0188,2021-11-15,17:27:21,18:59:23,NA,incomplete,false,true,NA,7,23,E13_Q6_ansR.png,right,NA,NA,NA,right,2708.70000000298,true,NA,NA,NA,NA,NA
t53MoJEb,NA,NA,t53MoJEb,2020-0188,2021-11-15,17:27:21,18:59:23,NA,incomplete,false,true,NA,7,24,E13_Q5_ansR.png,right,NA,NA,NA,right,1422.5,true,NA,NA,NA,NA,NA
t53MoJEb,NA,NA,t53MoJEb,2020-0188,2021-11-15,17:27:21,18:59:23,NA,incomplete,false,true,NA,7,25,E13_Q10_ansL.png,left,NA,NA,NA,left,2384.29999999702,true,NA,NA,NA,NA,NA
t53MoJEb,NA,NA,t53MoJEb,2020-0188,2021-11-15,17:27:21,18:59:23,NA,incomplete,false,true,NA,7,26,E13_Q9_ansR.png,right,NA,NA,NA,right,3487.5,true,NA,NA,NA,NA,NA
t53MoJEb,NA,NA,t53MoJEb,2020-0188,2021-11-15,17:27:21,18:59:23,NA,incomplete,false,true,NA,7,27,E13_Q8_ansL.png,left,NA,NA,NA,left,2018.09999999404,true,NA,NA,NA,NA,NA
t53MoJEb,NA,NA,t53MoJEb,2020-0188,2021-11-15,17:27:21,18:59:23,NA,incomplete,false,true,NA,7,28,E13_Q2_ansL.png,left,NA,NA,NA,left,1568.89999999106,true,NA,NA,NA,NA,NA
t53MoJEb,NA,NA,t53MoJEb,2020-0188,2021-11-15,17:27:21,18:59:23,NA,incomplete,false,true,NA,7,29,E13_Q4_ansR.png,right,NA,NA,NA,left,1993.79999999702,false,NA,NA,NA,NA,NA
t53MoJEb,NA,NA,t53MoJEb,2020-0188,2021-11-15,17:27:21,18:59:23,NA,incomplete,false,NA,true,7,0,NA,left,E24_Q6_ansL.png,E24_Q10_ansR.png,within,NA,NaN,NA,left,2944.9000000059605,1,1,2787.3999999910593
t53MoJEb,NA,NA,t53MoJEb,2020-0188,2021-11-15,17:27:21,18:59:23,NA,incomplete,false,NA,true,7,1,NA,left,E24_Q2_ansR.png,E24_Q4_ansL.png,within,NA,NaN,NA,left,5867.4000000059605,1,1,1527.5
t53MoJEb,NA,NA,t53MoJEb,2020-0188,2021-11-15,17:27:21,18:59:23,NA,incomplete,false,NA,true,7,2,NA,left,E24_Q3_ansL.png,E24_Q5_ansL.png,within,NA,NaN,NA,right,3119.5999999940395,0,1,1256.3999999910593
t53MoJEb,NA,NA,t53MoJEb,2020-0188,2021-11-15,17:27:21,18:59:23,NA,incomplete,false,NA,true,7,3,NA,right,E24_Q2_ansR.png,E24_Q10_ansR.png,within,NA,NaN,NA,right,3649.2000000029802,1,1,1487.699999988079
t53MoJEb,NA,NA,t53MoJEb,2020-0188,2021-11-15,17:27:21,18:59:23,NA,incomplete,false,NA,true,7,4,NA,right,E18_Q9_ansR.png,E18_Q7_ansL.png,within,NA,NaN,NA,right,2138.7999999970198,1,1,1726.7999999970198
t53MoJEb,NA,NA,t53MoJEb,2020-0188,2021-11-15,17:27:21,18:59:23,NA,incomplete,false,NA,true,7,5,NA,right,E18_Q7_ansL.png,E18_Q4_ansR.png,within,NA,NaN,NA,right,3926.1000000089407,1,1,1093.2999999970198
t53MoJEb,NA,NA,t53MoJEb,2020-0188,2021-11-15,17:27:21,18:59:23,NA,incomplete,false,NA,true,7,6,NA,right,E18_Q2_ansL.png,E18_Q6_ansR.png,within,NA,NaN,NA,right,1135.2000000029802,1,1,994
t53MoJEb,NA,NA,t53MoJEb,2020-0188,2021-11-15,17:27:21,18:59:23,NA,incomplete,false,NA,true,7,7,NA,right,E18_Q3_ansR.png,E18_Q1_ansL.png,within,NA,NaN,NA,right,1825.300000011921,1,1,1299.1000000089407
t53MoJEb,NA,NA,t53MoJEb,2020-0188,2021-11-15,17:27:21,18:59:23,NA,incomplete,false,NA,true,7,8,NA,left,E18_Q9_ansR.png,E13_Q1_ansL.png,between,NA,NaN,NA,right,2182.7999999970198,0,1,1382.1000000089407
t53MoJEb,NA,NA,t53MoJEb,2020-0188,2021-11-15,17:27:21,18:59:23,NA,incomplete,false,NA,true,7,9,NA,left,E13_Q3_ansR.png,E13_Q10_ansL.png,within,NA,NaN,NA,left,1959,1,1,1389.2000000029802
t53MoJEb,NA,NA,t53MoJEb,2020-0188,2021-11-15,17:27:21,18:59:23,NA,incomplete,false,NA,true,7,10,NA,right,E13_Q7_ansL.png,E18_Q2_ansL.png,between,NA,NaN,NA,right,4963,1,2,2204.7000000029802
t53MoJEb,NA,NA,t53MoJEb,2020-0188,2021-11-15,17:27:21,18:59:23,NA,incomplete,false,NA,true,7,11,NA,left,E13_Q5_ansR.png,E13_Q8_ansL.png,within,NA,NaN,NA,left,1234,1,1,1405.3999999910593
t53MoJEb,NA,NA,t53MoJEb,2020-0188,2021-11-15,17:27:21,18:59:23,NA,incomplete,false,NA,true,7,12,NA,left,E24_Q7_ansR.png,E18_Q10_ansL.png,between,NA,NaN,NA,left,3668.2999999970198,1,2,2601.6000000089407
t53MoJEb,NA,NA,t53MoJEb,2020-0188,2021-11-15,17:27:21,18:59:23,NA,incomplete,false,NA,true,7,13,NA,right,E13_Q5_ansR.png,E13_Q1_ansL.png,within,NA,NaN,NA,right,1573.1000000089407,1,1,1316.2999999970198
t53MoJEb,NA,NA,t53MoJEb,2020-0188,2021-11-15,17:27:21,18:59:23,NA,incomplete,false,NA,true,7,14,NA,left,E13_Q9_ansR.png,E13_Q4_ansR.png,within,NA,NaN,NA,left,2511.0999999940395,1,1,1028
t53MoJEb,NA,NA,t53MoJEb,2020-0188,2021-11-15,17:27:21,18:59:23,NA,incomplete,false,NA,true,7,15,NA,left,E24_Q1_ansR.png,E24_Q8_ansR.png,within,NA,NaN,NA,left,2197.800000011921,1,1,865.0999999940395
t53MoJEb,NA,NA,t53MoJEb,2020-0188,2021-11-15,17:27:21,18:59:23,NA,incomplete,false,NA,true,7,16,NA,left,E24_Q9_ansL.png,E18_Q8_ansL.png,between,NA,NaN,NA,left,5044.29999999702,1,2,1406
t53MoJEb,NA,NA,t53MoJEb,2020-0188,2021-11-15,17:27:21,18:59:23,NA,incomplete,false,NA,true,7,17,NA,right,E18_Q6_ansR.png,E18_Q10_ansL.png,within,NA,NaN,NA,right,1803,1,1,1777.4000000059605
t53MoJEb,NA,NA,t53MoJEb,2020-0188,2021-11-15,17:27:21,18:59:23,NA,incomplete,false,NA,true,7,18,NA,right,E18_Q1_ansL.png,E18_Q8_ansL.png,within,NA,NaN,NA,left,2008.8999999910593,0,1,1109.2000000029802
t53MoJEb,NA,NA,t53MoJEb,2020-0188,2021-11-15,17:27:21,18:59:23,NA,incomplete,false,NA,true,7,19,NA,right,E13_Q6_ansR.png,E13_Q7_ansL.png,within,NA,NaN,NA,left,1819.3999999910593,0,1,1793.300000011921
t53MoJEb,NA,NA,t53MoJEb,2020-0188,2021-11-15,17:27:21,18:59:23,NA,incomplete,false,NA,true,7,20,NA,right,E13_Q3_ansR.png,E18_Q5_ansR.png,between,NA,NaN,NA,left,3556.5,0,2,1901.0999999940395
t53MoJEb,NA,NA,t53MoJEb,2020-0188,2021-11-15,17:27:21,18:59:23,NA,incomplete,false,NA,true,7,21,NA,left,E13_Q6_ansR.png,E13_Q9_ansR.png,within,NA,NaN,NA,right,2930.5,0,1,1603
t53MoJEb,NA,NA,t53MoJEb,2020-0188,2021-11-15,17:27:21,18:59:23,NA,incomplete,false,NA,true,7,22,NA,left,E24_Q8_ansR.png,E24_Q9_ansL.png,within,NA,NaN,NA,left,1702.9000000059605,1,1,1260.2999999970198
t53MoJEb,NA,NA,t53MoJEb,2020-0188,2021-11-15,17:27:21,18:59:23,NA,incomplete,false,NA,true,7,23,NA,right,E13_Q2_ansL.png,E13_Q10_ansL.png,within,NA,NaN,NA,right,1876.2000000029802,1,1,1833.2999999970198
t53MoJEb,NA,NA,t53MoJEb,2020-0188,2021-11-15,17:27:21,18:59:23,NA,incomplete,false,NA,true,7,24,NA,right,E18_Q5_ansR.png,E18_Q3_ansR.png,within,NA,NaN,NA,left,2121.9000000059605,0,1,1741.699999988079
t53MoJEb,NA,NA,t53MoJEb,2020-0188,2021-11-15,17:27:21,18:59:23,NA,incomplete,false,NA,true,7,25,NA,left,E24_Q4_ansL.png,E18_Q4_ansR.png,between,NA,NaN,NA,left,1654.5,1,2,951.0999999940395
t53MoJEb,NA,NA,t53MoJEb,2020-0188,2021-11-15,17:27:21,18:59:23,NA,incomplete,false,NA,true,7,26,NA,right,E24_Q7_ansR.png,E24_Q5_ansL.png,within,NA,NaN,NA,left,2132.9000000059605,0,1,936.4000000059605
t53MoJEb,NA,NA,t53MoJEb,2020-0188,2021-11-15,17:27:21,18:59:23,NA,incomplete,false,true,NA,8,0,E6_Q6_ansR.png,right,NA,NA,NA,right,1349.79999999702,true,NA,NA,NA,NA,NA
t53MoJEb,NA,NA,t53MoJEb,2020-0188,2021-11-15,17:27:21,18:59:23,NA,incomplete,false,true,NA,8,1,E6_Q2_ansL.png,left,NA,NA,NA,left,1368.89999999106,true,NA,NA,NA,NA,NA
t53MoJEb,NA,NA,t53MoJEb,2020-0188,2021-11-15,17:27:21,18:59:23,NA,incomplete,false,true,NA,8,2,E6_Q8_ansL.png,left,NA,NA,NA,left,1410.40000000596,true,NA,NA,NA,NA,NA
t53MoJEb,NA,NA,t53MoJEb,2020-0188,2021-11-15,17:27:21,18:59:23,NA,incomplete,false,true,NA,8,3,E6_Q3_ansR.png,right,NA,NA,NA,right,1212.60000000894,true,NA,NA,NA,NA,NA
t53MoJEb,NA,NA,t53MoJEb,2020-0188,2021-11-15,17:27:21,18:59:23,NA,incomplete,false,true,NA,8,4,E6_Q9_ansL.png,left,NA,NA,NA,left,1288.5,true,NA,NA,NA,NA,NA
t53MoJEb,NA,NA,t53MoJEb,2020-0188,2021-11-15,17:27:21,18:59:23,NA,incomplete,false,true,NA,8,5,E6_Q1_ansL.png,left,NA,NA,NA,left,1115.70000000298,true,NA,NA,NA,NA,NA
t53MoJEb,NA,NA,t53MoJEb,2020-0188,2021-11-15,17:27:21,18:59:23,NA,incomplete,false,true,NA,8,6,E6_Q4_ansR.png,right,NA,NA,NA,right,1637.70000000298,true,NA,NA,NA,NA,NA
t53MoJEb,NA,NA,t53MoJEb,2020-0188,2021-11-15,17:27:21,18:59:23,NA,incomplete,false,true,NA,8,7,E6_Q10_ansL.png,left,NA,NA,NA,left,1652.40000000596,true,NA,NA,NA,NA,NA
t53MoJEb,NA,NA,t53MoJEb,2020-0188,2021-11-15,17:27:21,18:59:23,NA,incomplete,false,true,NA,8,8,E6_Q5_ansR.png,right,NA,NA,NA,right,1678.20000000298,true,NA,NA,NA,NA,NA
t53MoJEb,NA,NA,t53MoJEb,2020-0188,2021-11-15,17:27:21,18:59:23,NA,incomplete,false,true,NA,8,9,E6_Q7_ansL.png,left,NA,NA,NA,left,1287.79999999702,true,NA,NA,NA,NA,NA
t53MoJEb,NA,NA,t53MoJEb,2020-0188,2021-11-15,17:27:21,18:59:23,NA,incomplete,false,true,NA,8,10,E28_Q4_ansL.png,left,NA,NA,NA,left,1756.5,true,NA,NA,NA,NA,NA
t53MoJEb,NA,NA,t53MoJEb,2020-0188,2021-11-15,17:27:21,18:59:23,NA,incomplete,false,true,NA,8,11,E28_Q6_ansL.png,left,NA,NA,NA,left,1136.29999999702,true,NA,NA,NA,NA,NA
t53MoJEb,NA,NA,t53MoJEb,2020-0188,2021-11-15,17:27:21,18:59:23,NA,incomplete,false,true,NA,8,12,E28_Q1_ansR.png,right,NA,NA,NA,right,1222.20000000298,true,NA,NA,NA,NA,NA
t53MoJEb,NA,NA,t53MoJEb,2020-0188,2021-11-15,17:27:21,18:59:23,NA,incomplete,false,true,NA,8,13,E28_Q3_ansL.png,left,NA,NA,NA,left,1715.90000000596,true,NA,NA,NA,NA,NA
t53MoJEb,NA,NA,t53MoJEb,2020-0188,2021-11-15,17:27:21,18:59:23,NA,incomplete,false,true,NA,8,14,E28_Q9_ansL.png,left,NA,NA,NA,left,1476.89999999106,true,NA,NA,NA,NA,NA
t53MoJEb,NA,NA,t53MoJEb,2020-0188,2021-11-15,17:27:21,18:59:23,NA,incomplete,false,true,NA,8,15,E28_Q2_ansR.png,right,NA,NA,NA,right,1478.20000000298,true,NA,NA,NA,NA,NA
t53MoJEb,NA,NA,t53MoJEb,2020-0188,2021-11-15,17:27:21,18:59:23,NA,incomplete,false,true,NA,8,16,E28_Q7_ansR.png,right,NA,NA,NA,right,1304.60000000894,true,NA,NA,NA,NA,NA
t53MoJEb,NA,NA,t53MoJEb,2020-0188,2021-11-15,17:27:21,18:59:23,NA,incomplete,false,true,NA,8,17,E28_Q5_ansL.png,left,NA,NA,NA,left,1476.20000000298,true,NA,NA,NA,NA,NA
t53MoJEb,NA,NA,t53MoJEb,2020-0188,2021-11-15,17:27:21,18:59:23,NA,incomplete,false,true,NA,8,18,E28_Q8_ansR.png,right,NA,NA,NA,right,2790.79999999702,true,NA,NA,NA,NA,NA
t53MoJEb,NA,NA,t53MoJEb,2020-0188,2021-11-15,17:27:21,18:59:23,NA,incomplete,false,true,NA,8,19,E28_Q10_ansR.png,right,NA,NA,NA,right,2841.79999999702,true,NA,NA,NA,NA,NA
t53MoJEb,NA,NA,t53MoJEb,2020-0188,2021-11-15,17:27:21,18:59:23,NA,incomplete,false,true,NA,8,20,E16_Q5_ansL.png,left,NA,NA,NA,left,1449.5,true,NA,NA,NA,NA,NA
t53MoJEb,NA,NA,t53MoJEb,2020-0188,2021-11-15,17:27:21,18:59:23,NA,incomplete,false,true,NA,8,21,E16_Q8_ansR.png,right,NA,NA,NA,right,1745.90000000596,true,NA,NA,NA,NA,NA
t53MoJEb,NA,NA,t53MoJEb,2020-0188,2021-11-15,17:27:21,18:59:23,NA,incomplete,false,true,NA,8,22,E16_Q9_ansL.png,left,NA,NA,NA,left,1729.20000000298,true,NA,NA,NA,NA,NA
t53MoJEb,NA,NA,t53MoJEb,2020-0188,2021-11-15,17:27:21,18:59:23,NA,incomplete,false,true,NA,8,23,E16_Q6_ansL.png,left,NA,NA,NA,left,1066.10000000894,true,NA,NA,NA,NA,NA
t53MoJEb,NA,NA,t53MoJEb,2020-0188,2021-11-15,17:27:21,18:59:23,NA,incomplete,false,true,NA,8,24,E16_Q1_ansR.png,right,NA,NA,NA,right,1429.09999999404,true,NA,NA,NA,NA,NA
t53MoJEb,NA,NA,t53MoJEb,2020-0188,2021-11-15,17:27:21,18:59:23,NA,incomplete,false,true,NA,8,25,E16_Q10_ansR.png,right,NA,NA,NA,right,1302.39999999106,true,NA,NA,NA,NA,NA
t53MoJEb,NA,NA,t53MoJEb,2020-0188,2021-11-15,17:27:21,18:59:23,NA,incomplete,false,true,NA,8,26,E16_Q3_ansL.png,left,NA,NA,NA,left,1378.79999999702,true,NA,NA,NA,NA,NA
t53MoJEb,NA,NA,t53MoJEb,2020-0188,2021-11-15,17:27:21,18:59:23,NA,incomplete,false,true,NA,8,27,E16_Q2_ansR.png,right,NA,NA,NA,right,1310,true,NA,NA,NA,NA,NA
t53MoJEb,NA,NA,t53MoJEb,2020-0188,2021-11-15,17:27:21,18:59:23,NA,incomplete,false,true,NA,8,28,E16_Q4_ansL.png,left,NA,NA,NA,left,1259.5,true,NA,NA,NA,NA,NA
t53MoJEb,NA,NA,t53MoJEb,2020-0188,2021-11-15,17:27:21,18:59:23,NA,incomplete,false,true,NA,8,29,E16_Q7_ansR.png,right,NA,NA,NA,right,1318,true,NA,NA,NA,NA,NA
t53MoJEb,NA,NA,t53MoJEb,2020-0188,2021-11-15,17:27:21,18:59:23,NA,incomplete,false,NA,true,8,0,NA,right,E28_Q7_ansR.png,E28_Q3_ansL.png,within,NA,NaN,NA,right,1687.699999988079,1,1,2650.7999999970198
t53MoJEb,NA,NA,t53MoJEb,2020-0188,2021-11-15,17:27:21,18:59:23,NA,incomplete,false,NA,true,8,1,NA,right,E16_Q7_ansR.png,E16_Q3_ansL.png,within,NA,NaN,NA,left,1563.5999999940395,0,1,1290.0999999940395
t53MoJEb,NA,NA,t53MoJEb,2020-0188,2021-11-15,17:27:21,18:59:23,NA,incomplete,false,NA,true,8,2,NA,right,E6_Q3_ansR.png,E6_Q6_ansR.png,within,NA,NaN,NA,right,1793.2999999970198,1,1,1347.7999999970198
t53MoJEb,NA,NA,t53MoJEb,2020-0188,2021-11-15,17:27:21,18:59:23,NA,incomplete,false,NA,true,8,3,NA,left,E28_Q9_ansL.png,E28_Q5_ansL.png,within,NA,NaN,NA,left,1215.4000000059605,1,1,1387.5999999940395
t53MoJEb,NA,NA,t53MoJEb,2020-0188,2021-11-15,17:27:21,18:59:23,NA,incomplete,false,NA,true,8,4,NA,right,E28_Q10_ansR.png,E28_Q7_ansR.png,within,NA,NaN,NA,right,1424,1,1,1382.2999999970198
t53MoJEb,NA,NA,t53MoJEb,2020-0188,2021-11-15,17:27:21,18:59:23,NA,incomplete,false,NA,true,8,5,NA,left,E16_Q9_ansL.png,E16_Q10_ansR.png,within,NA,NaN,NA,left,10192.5,1,1,15233.20000000298
t53MoJEb,NA,NA,t53MoJEb,2020-0188,2021-11-15,17:27:21,18:59:23,NA,incomplete,false,NA,true,8,6,NA,left,E6_Q2_ansL.png,E6_Q9_ansL.png,within,NA,NaN,NA,left,2312.199999988079,1,1,1241.2000000029802
t53MoJEb,NA,NA,t53MoJEb,2020-0188,2021-11-15,17:27:21,18:59:23,NA,incomplete,false,NA,true,8,7,NA,left,E28_Q2_ansR.png,E28_Q8_ansR.png,within,NA,NaN,NA,left,5224.4000000059605,1,1,846.3999999910593
t53MoJEb,NA,NA,t53MoJEb,2020-0188,2021-11-15,17:27:21,18:59:23,NA,incomplete,false,NA,true,8,8,NA,left,E6_Q4_ansR.png,E6_Q7_ansL.png,within,NA,NaN,NA,right,8798.40000000596,0,1,1160.2999999970198
t53MoJEb,NA,NA,t53MoJEb,2020-0188,2021-11-15,17:27:21,18:59:23,NA,incomplete,false,NA,true,8,9,NA,right,E6_Q10_ansL.png,E6_Q9_ansL.png,within,NA,NaN,NA,right,1110.5999999940395,1,1,1019.5999999940395
t53MoJEb,NA,NA,t53MoJEb,2020-0188,2021-11-15,17:27:21,18:59:23,NA,incomplete,false,NA,true,8,10,NA,right,E16_Q4_ansL.png,E16_Q10_ansR.png,within,NA,NaN,NA,left,1524.5,0,1,1397.7999999970198
t53MoJEb,NA,NA,t53MoJEb,2020-0188,2021-11-15,17:27:21,18:59:23,NA,incomplete,false,NA,true,8,11,NA,left,E28_Q10_ansR.png,E16_Q9_ansL.png,between,NA,NaN,NA,left,3383.199999988079,1,1,1043.9000000059605
t53MoJEb,NA,NA,t53MoJEb,2020-0188,2021-11-15,17:27:21,18:59:23,NA,incomplete,false,NA,true,8,12,NA,left,E16_Q5_ansL.png,E16_Q6_ansL.png,within,NA,NaN,NA,right,2197,0,1,1118.1000000089407
t53MoJEb,NA,NA,t53MoJEb,2020-0188,2021-11-15,17:27:21,18:59:23,NA,incomplete,false,NA,true,8,13,NA,left,E6_Q10_ansL.png,E28_Q4_ansL.png,between,NA,NaN,NA,left,6507.5,1,2,2321.7000000029802
t53MoJEb,NA,NA,t53MoJEb,2020-0188,2021-11-15,17:27:21,18:59:23,NA,incomplete,false,NA,true,8,14,NA,right,E28_Q9_ansL.png,E28_Q6_ansL.png,within,NA,NaN,NA,right,1982.5,1,1,1339.5
t53MoJEb,NA,NA,t53MoJEb,2020-0188,2021-11-15,17:27:21,18:59:23,NA,incomplete,false,NA,true,8,15,NA,left,E28_Q8_ansR.png,E16_Q8_ansR.png,between,NA,NaN,NA,right,6419.5,0,1,2302.5
t53MoJEb,NA,NA,t53MoJEb,2020-0188,2021-11-15,17:27:21,18:59:23,NA,incomplete,false,NA,true,8,16,NA,left,E28_Q1_ansR.png,E28_Q2_ansR.png,within,NA,NaN,NA,left,1498.2000000029802,1,1,1077.699999988079
t53MoJEb,NA,NA,t53MoJEb,2020-0188,2021-11-15,17:27:21,18:59:23,NA,incomplete,false,NA,true,8,17,NA,left,E6_Q7_ansL.png,E28_Q1_ansR.png,between,NA,NaN,NA,left,1160.5999999940395,1,2,2920.2000000029802
t53MoJEb,NA,NA,t53MoJEb,2020-0188,2021-11-15,17:27:21,18:59:23,NA,incomplete,false,NA,true,8,18,NA,right,E6_Q4_ansR.png,E6_Q3_ansR.png,within,NA,NaN,NA,right,3448.699999988079,1,1,1619.5999999940395
t53MoJEb,NA,NA,t53MoJEb,2020-0188,2021-11-15,17:27:21,18:59:23,NA,incomplete,false,NA,true,8,19,NA,right,E6_Q5_ansR.png,E6_Q1_ansL.png,within,NA,NaN,NA,right,7705.4000000059605,1,1,1684.5999999940395
t53MoJEb,NA,NA,t53MoJEb,2020-0188,2021-11-15,17:27:21,18:59:23,NA,incomplete,false,NA,true,8,20,NA,left,E16_Q6_ansL.png,E16_Q3_ansL.png,within,NA,NaN,NA,left,1869,1,1,2461.7999999970198
t53MoJEb,NA,NA,t53MoJEb,2020-0188,2021-11-15,17:27:21,18:59:23,NA,incomplete,false,NA,true,8,21,NA,left,E6_Q5_ansR.png,E28_Q6_ansL.png,between,NA,NaN,NA,left,41565.10000000894,1,2,3223.2999999970198
t53MoJEb,NA,NA,t53MoJEb,2020-0188,2021-11-15,17:27:21,18:59:23,NA,incomplete,false,NA,true,8,22,NA,left,E16_Q8_ansR.png,E16_Q1_ansR.png,within,NA,NaN,NA,left,1441.4000000059605,1,1,1291
t53MoJEb,NA,NA,t53MoJEb,2020-0188,2021-11-15,17:27:21,18:59:23,NA,incomplete,false,NA,true,8,23,NA,right,E16_Q2_ansR.png,E16_Q1_ansR.png,within,NA,NaN,NA,right,2098.5,1,1,1549.0999999940395
t53MoJEb,NA,NA,t53MoJEb,2020-0188,2021-11-15,17:27:21,18:59:23,NA,incomplete,false,NA,true,8,24,NA,left,E6_Q8_ansL.png,E6_Q1_ansL.png,within,NA,NaN,NA,right,4857.9000000059605,0,1,1191.2000000029802
t53MoJEb,NA,NA,t53MoJEb,2020-0188,2021-11-15,17:27:21,18:59:23,NA,incomplete,false,NA,true,8,25,NA,left,E28_Q4_ansL.png,E28_Q3_ansL.png,within,NA,NaN,NA,left,1128.4000000059605,1,1,879.5999999940395
t53MoJEb,NA,NA,t53MoJEb,2020-0188,2021-11-15,17:27:21,18:59:23,NA,incomplete,false,NA,true,8,26,NA,left,E28_Q5_ansL.png,E16_Q5_ansL.png,between,NA,NaN,NA,left,154096.5,1,1,870.8999999910593
t53MoJEb,NA,NA,t53MoJEb,2020-0188,2021-11-15,17:27:21,18:59:23,NA,incomplete,false,true,NA,9,0,E27_Q4_ansR.png,right,NA,NA,NA,right,1011.30000001192,true,NA,NA,NA,NA,NA
t53MoJEb,NA,NA,t53MoJEb,2020-0188,2021-11-15,17:27:21,18:59:23,NA,incomplete,false,true,NA,9,1,E27_Q5_ansR.png,right,NA,NA,NA,right,855.5,true,NA,NA,NA,NA,NA
t53MoJEb,NA,NA,t53MoJEb,2020-0188,2021-11-15,17:27:21,18:59:23,NA,incomplete,false,true,NA,9,2,E27_Q9_ansR.png,right,NA,NA,NA,right,967.40000000596,true,NA,NA,NA,NA,NA
t53MoJEb,NA,NA,t53MoJEb,2020-0188,2021-11-15,17:27:21,18:59:23,NA,incomplete,false,true,NA,9,3,E27_Q2_ansL.png,left,NA,NA,NA,left,897.79999999702,true,NA,NA,NA,NA,NA
t53MoJEb,NA,NA,t53MoJEb,2020-0188,2021-11-15,17:27:21,18:59:23,NA,incomplete,false,true,NA,9,4,E27_Q1_ansL.png,left,NA,NA,NA,left,1591.70000000298,true,NA,NA,NA,NA,NA
t53MoJEb,NA,NA,t53MoJEb,2020-0188,2021-11-15,17:27:21,18:59:23,NA,incomplete,false,true,NA,9,5,E27_Q3_ansR.png,right,NA,NA,NA,right,995,true,NA,NA,NA,NA,NA
t53MoJEb,NA,NA,t53MoJEb,2020-0188,2021-11-15,17:27:21,18:59:23,NA,incomplete,false,true,NA,9,6,E27_Q8_ansL.png,left,NA,NA,NA,left,986,true,NA,NA,NA,NA,NA
t53MoJEb,NA,NA,t53MoJEb,2020-0188,2021-11-15,17:27:21,18:59:23,NA,incomplete,false,true,NA,9,7,E27_Q6_ansR.png,right,NA,NA,NA,right,882.70000000298,true,NA,NA,NA,NA,NA
t53MoJEb,NA,NA,t53MoJEb,2020-0188,2021-11-15,17:27:21,18:59:23,NA,incomplete,false,true,NA,9,8,E27_Q10_ansL.png,left,NA,NA,NA,left,902.20000000298,true,NA,NA,NA,NA,NA
t53MoJEb,NA,NA,t53MoJEb,2020-0188,2021-11-15,17:27:21,18:59:23,NA,incomplete,false,true,NA,9,9,E27_Q7_ansL.png,left,NA,NA,NA,left,746.199999988079,true,NA,NA,NA,NA,NA
t53MoJEb,NA,NA,t53MoJEb,2020-0188,2021-11-15,17:27:21,18:59:23,NA,incomplete,false,true,NA,9,10,E11_Q7_ansR.png,right,NA,NA,NA,right,2180.29999999702,true,NA,NA,NA,NA,NA
t53MoJEb,NA,NA,t53MoJEb,2020-0188,2021-11-15,17:27:21,18:59:23,NA,incomplete,false,true,NA,9,11,E11_Q2_ansR.png,right,NA,NA,NA,right,1550.79999999702,true,NA,NA,NA,NA,NA
t53MoJEb,NA,NA,t53MoJEb,2020-0188,2021-11-15,17:27:21,18:59:23,NA,incomplete,false,true,NA,9,12,E11_Q8_ansR.png,right,NA,NA,NA,right,1376.10000000894,true,NA,NA,NA,NA,NA
t53MoJEb,NA,NA,t53MoJEb,2020-0188,2021-11-15,17:27:21,18:59:23,NA,incomplete,false,true,NA,9,13,E11_Q3_ansL.png,left,NA,NA,NA,left,1614,true,NA,NA,NA,NA,NA
t53MoJEb,NA,NA,t53MoJEb,2020-0188,2021-11-15,17:27:21,18:59:23,NA,incomplete,false,true,NA,9,14,E11_Q4_ansL.png,left,NA,NA,NA,left,915.399999991059,true,NA,NA,NA,NA,NA
t53MoJEb,NA,NA,t53MoJEb,2020-0188,2021-11-15,17:27:21,18:59:23,NA,incomplete,false,true,NA,9,15,E11_Q1_ansR.png,right,NA,NA,NA,right,2660.59999999404,true,NA,NA,NA,NA,NA
t53MoJEb,NA,NA,t53MoJEb,2020-0188,2021-11-15,17:27:21,18:59:23,NA,incomplete,false,true,NA,9,16,E11_Q9_ansL.png,left,NA,NA,NA,left,2241,true,NA,NA,NA,NA,NA
t53MoJEb,NA,NA,t53MoJEb,2020-0188,2021-11-15,17:27:21,18:59:23,NA,incomplete,false,true,NA,9,17,E11_Q6_ansL.png,left,NA,NA,NA,left,2774.20000000298,true,NA,NA,NA,NA,NA
t53MoJEb,NA,NA,t53MoJEb,2020-0188,2021-11-15,17:27:21,18:59:23,NA,incomplete,false,true,NA,9,18,E11_Q5_ansL.png,left,NA,NA,NA,left,2123.90000000596,true,NA,NA,NA,NA,NA
t53MoJEb,NA,NA,t53MoJEb,2020-0188,2021-11-15,17:27:21,18:59:23,NA,incomplete,false,true,NA,9,19,E11_Q10_ansR.png,right,NA,NA,NA,right,1723.39999999106,true,NA,NA,NA,NA,NA
t53MoJEb,NA,NA,t53MoJEb,2020-0188,2021-11-15,17:27:21,18:59:23,NA,incomplete,false,true,NA,9,20,E32_Q4_ansR.png,right,NA,NA,NA,right,2683.10000000894,true,NA,NA,NA,NA,NA
t53MoJEb,NA,NA,t53MoJEb,2020-0188,2021-11-15,17:27:21,18:59:23,NA,incomplete,false,true,NA,9,21,E32_Q1_ansL.png,left,NA,NA,NA,left,1068.29999999702,true,NA,NA,NA,NA,NA
t53MoJEb,NA,NA,t53MoJEb,2020-0188,2021-11-15,17:27:21,18:59:23,NA,incomplete,false,true,NA,9,22,E32_Q10_ansL.png,left,NA,NA,NA,left,1013.10000000894,true,NA,NA,NA,NA,NA
t53MoJEb,NA,NA,t53MoJEb,2020-0188,2021-11-15,17:27:21,18:59:23,NA,incomplete,false,true,NA,9,23,E32_Q5_ansR.png,right,NA,NA,NA,right,1273.79999999702,true,NA,NA,NA,NA,NA
t53MoJEb,NA,NA,t53MoJEb,2020-0188,2021-11-15,17:27:21,18:59:23,NA,incomplete,false,true,NA,9,24,E32_Q3_ansR.png,right,NA,NA,NA,right,1319.10000000894,true,NA,NA,NA,NA,NA
t53MoJEb,NA,NA,t53MoJEb,2020-0188,2021-11-15,17:27:21,18:59:23,NA,incomplete,false,true,NA,9,25,E32_Q8_ansL.png,left,NA,NA,NA,left,1351.40000000596,true,NA,NA,NA,NA,NA
t53MoJEb,NA,NA,t53MoJEb,2020-0188,2021-11-15,17:27:21,18:59:23,NA,incomplete,false,true,NA,9,26,E32_Q2_ansL.png,left,NA,NA,NA,left,1025,true,NA,NA,NA,NA,NA
t53MoJEb,NA,NA,t53MoJEb,2020-0188,2021-11-15,17:27:21,18:59:23,NA,incomplete,false,true,NA,9,27,E32_Q6_ansR.png,right,NA,NA,NA,right,1390.80000001192,true,NA,NA,NA,NA,NA
t53MoJEb,NA,NA,t53MoJEb,2020-0188,2021-11-15,17:27:21,18:59:23,NA,incomplete,false,true,NA,9,28,E32_Q7_ansL.png,left,NA,NA,NA,left,1747.69999998808,true,NA,NA,NA,NA,NA
t53MoJEb,NA,NA,t53MoJEb,2020-0188,2021-11-15,17:27:21,18:59:23,NA,incomplete,false,true,NA,9,29,E32_Q9_ansR.png,right,NA,NA,NA,right,1842,true,NA,NA,NA,NA,NA
t53MoJEb,NA,NA,t53MoJEb,2020-0188,2021-11-15,17:27:21,18:59:23,NA,incomplete,false,NA,true,9,0,NA,right,E11_Q5_ansL.png,E11_Q1_ansR.png,within,NA,NaN,NA,right,2188.2999999970198,1,1,2304.0999999940395
t53MoJEb,NA,NA,t53MoJEb,2020-0188,2021-11-15,17:27:21,18:59:23,NA,incomplete,false,NA,true,9,1,NA,right,E32_Q4_ansR.png,E11_Q6_ansL.png,between,NA,NaN,NA,right,3430.7999999970198,1,2,2515.7999999970198
t53MoJEb,NA,NA,t53MoJEb,2020-0188,2021-11-15,17:27:21,18:59:23,NA,incomplete,false,NA,true,9,2,NA,left,E27_Q9_ansR.png,E27_Q3_ansR.png,within,NA,NaN,NA,left,1737.800000011921,1,1,1431.9000000059605
t53MoJEb,NA,NA,t53MoJEb,2020-0188,2021-11-15,17:27:21,18:59:23,NA,incomplete,false,NA,true,9,3,NA,right,E11_Q4_ansL.png,E11_Q2_ansR.png,within,NA,NaN,NA,right,2710.5,1,1,896.0999999940395
t53MoJEb,NA,NA,t53MoJEb,2020-0188,2021-11-15,17:27:21,18:59:23,NA,incomplete,false,NA,true,9,4,NA,left,E27_Q7_ansL.png,E11_Q8_ansR.png,between,NA,NaN,NA,left,1366.7000000029802,1,2,1982.4000000059605
t53MoJEb,NA,NA,t53MoJEb,2020-0188,2021-11-15,17:27:21,18:59:23,NA,incomplete,false,NA,true,9,5,NA,right,E27_Q7_ansL.png,E27_Q8_ansL.png,within,NA,NaN,NA,right,1539.4000000059605,1,1,1431
t53MoJEb,NA,NA,t53MoJEb,2020-0188,2021-11-15,17:27:21,18:59:23,NA,incomplete,false,NA,true,9,6,NA,right,E11_Q9_ansL.png,E11_Q3_ansL.png,within,NA,NaN,NA,left,2039.9000000059605,0,1,790.2999999970198
t53MoJEb,NA,NA,t53MoJEb,2020-0188,2021-11-15,17:27:21,18:59:23,NA,incomplete,false,NA,true,9,7,NA,left,E32_Q2_ansL.png,E32_Q9_ansR.png,within,NA,NaN,NA,left,1177.800000011921,1,1,1359.4000000059605
t53MoJEb,NA,NA,t53MoJEb,2020-0188,2021-11-15,17:27:21,18:59:23,NA,incomplete,false,NA,true,9,8,NA,right,E32_Q1_ansL.png,E11_Q5_ansL.png,between,NA,NaN,NA,right,2475.2999999970198,1,2,1899.3999999910593
t53MoJEb,NA,NA,t53MoJEb,2020-0188,2021-11-15,17:27:21,18:59:23,NA,incomplete,false,NA,true,9,9,NA,left,E11_Q4_ansL.png,E11_Q6_ansL.png,within,NA,NaN,NA,right,3984.7000000029802,0,1,1290.4000000059605
t53MoJEb,NA,NA,t53MoJEb,2020-0188,2021-11-15,17:27:21,18:59:23,NA,incomplete,false,NA,true,9,10,NA,right,E32_Q7_ansL.png,E32_Q8_ansL.png,within,NA,NaN,NA,right,1111.8999999910593,1,1,1685.6000000089407
t53MoJEb,NA,NA,t53MoJEb,2020-0188,2021-11-15,17:27:21,18:59:23,NA,incomplete,false,NA,true,9,11,NA,right,E32_Q5_ansR.png,E32_Q4_ansR.png,within,NA,NaN,NA,right,4797.9000000059605,1,1,1423.1000000089407
