workerId,hitId,assignmentId,subject,studyid,exp_date,exp_start,exp_end,time_start,time_end,practice,encoding,memory,block,trial,stim,answer,left_image,right_image,condition,response,response_time,response_acc,order_response,order_response_time,order_acc,distance_response,distance_response_time
tFoReWhc,NA,NA,tFoReWhc,2020-0188,2021-09-19,18:53:10,19:56:34,NA,incomplete,true,true,NA,0,0,E11_Q7_ansR.png,right,NA,NA,NA,right,2657.70000004768,true,NA,NA,NA,NA,NA
tFoReWhc,NA,NA,tFoReWhc,2020-0188,2021-09-19,18:53:10,19:56:34,NA,incomplete,true,true,NA,0,1,E11_Q5_ansL.png,left,NA,NA,NA,left,2078,true,NA,NA,NA,NA,NA
tFoReWhc,NA,NA,tFoReWhc,2020-0188,2021-09-19,18:53:10,19:56:34,NA,incomplete,true,true,NA,0,2,E11_Q6_ansL.png,left,NA,NA,NA,left,1733.60000002384,true,NA,NA,NA,NA,NA
tFoReWhc,NA,NA,tFoReWhc,2020-0188,2021-09-19,18:53:10,19:56:34,NA,incomplete,true,true,NA,0,3,E11_Q4_ansL.png,left,NA,NA,NA,left,1821.20000004768,true,NA,NA,NA,NA,NA
tFoReWhc,NA,NA,tFoReWhc,2020-0188,2021-09-19,18:53:10,19:56:34,NA,incomplete,true,true,NA,0,4,E11_Q10_ansR.png,right,NA,NA,NA,right,1197,true,NA,NA,NA,NA,NA
tFoReWhc,NA,NA,tFoReWhc,2020-0188,2021-09-19,18:53:10,19:56:34,NA,incomplete,true,true,NA,0,5,E11_Q9_ansL.png,left,NA,NA,NA,left,1017.39999997616,true,NA,NA,NA,NA,NA
tFoReWhc,NA,NA,tFoReWhc,2020-0188,2021-09-19,18:53:10,19:56:34,NA,incomplete,true,true,NA,0,6,E11_Q3_ansL.png,left,NA,NA,NA,left,1457.30000007153,true,NA,NA,NA,NA,NA
tFoReWhc,NA,NA,tFoReWhc,2020-0188,2021-09-19,18:53:10,19:56:34,NA,incomplete,true,true,NA,0,7,E11_Q2_ansR.png,right,NA,NA,NA,right,1509.89999997616,true,NA,NA,NA,NA,NA
tFoReWhc,NA,NA,tFoReWhc,2020-0188,2021-09-19,18:53:10,19:56:34,NA,incomplete,true,true,NA,0,8,E11_Q1_ansR.png,right,NA,NA,NA,right,1283,true,NA,NA,NA,NA,NA
tFoReWhc,NA,NA,tFoReWhc,2020-0188,2021-09-19,18:53:10,19:56:34,NA,incomplete,true,true,NA,0,9,E11_Q8_ansR.png,right,NA,NA,NA,right,1567.19999992847,true,NA,NA,NA,NA,NA
tFoReWhc,NA,NA,tFoReWhc,2020-0188,2021-09-19,18:53:10,19:56:34,NA,incomplete,true,true,NA,0,10,E5_Q4_ansR.png,right,NA,NA,NA,right,1360.5,true,NA,NA,NA,NA,NA
tFoReWhc,NA,NA,tFoReWhc,2020-0188,2021-09-19,18:53:10,19:56:34,NA,incomplete,true,true,NA,0,11,E5_Q3_ansR.png,right,NA,NA,NA,right,1530.70000004768,true,NA,NA,NA,NA,NA
tFoReWhc,NA,NA,tFoReWhc,2020-0188,2021-09-19,18:53:10,19:56:34,NA,incomplete,true,true,NA,0,12,E5_Q7_ansL.png,left,NA,NA,NA,left,1477.70000004768,true,NA,NA,NA,NA,NA
tFoReWhc,NA,NA,tFoReWhc,2020-0188,2021-09-19,18:53:10,19:56:34,NA,incomplete,true,true,NA,0,13,E5_Q1_ansL.png,left,NA,NA,NA,left,1335.70000004768,true,NA,NA,NA,NA,NA
tFoReWhc,NA,NA,tFoReWhc,2020-0188,2021-09-19,18:53:10,19:56:34,NA,incomplete,true,true,NA,0,14,E5_Q5_ansR.png,right,NA,NA,NA,right,1643.40000009537,true,NA,NA,NA,NA,NA
tFoReWhc,NA,NA,tFoReWhc,2020-0188,2021-09-19,18:53:10,19:56:34,NA,incomplete,true,true,NA,0,15,E5_Q8_ansL.png,left,NA,NA,NA,left,1257.39999997616,true,NA,NA,NA,NA,NA
tFoReWhc,NA,NA,tFoReWhc,2020-0188,2021-09-19,18:53:10,19:56:34,NA,incomplete,true,true,NA,0,16,E5_Q9_ansR.png,right,NA,NA,NA,right,1050.70000004768,true,NA,NA,NA,NA,NA
tFoReWhc,NA,NA,tFoReWhc,2020-0188,2021-09-19,18:53:10,19:56:34,NA,incomplete,true,true,NA,0,17,E5_Q2_ansL.png,left,NA,NA,NA,left,1108.89999997616,true,NA,NA,NA,NA,NA
tFoReWhc,NA,NA,tFoReWhc,2020-0188,2021-09-19,18:53:10,19:56:34,NA,incomplete,true,true,NA,0,18,E5_Q10_ansR.png,right,NA,NA,NA,right,1846.29999995232,true,NA,NA,NA,NA,NA
tFoReWhc,NA,NA,tFoReWhc,2020-0188,2021-09-19,18:53:10,19:56:34,NA,incomplete,true,true,NA,0,19,E5_Q6_ansR.png,right,NA,NA,NA,right,1436.40000009537,true,NA,NA,NA,NA,NA
tFoReWhc,NA,NA,tFoReWhc,2020-0188,2021-09-19,18:53:10,19:56:34,NA,incomplete,true,true,NA,0,20,E4_Q9_ansL.png,left,NA,NA,NA,left,2247.09999990463,true,NA,NA,NA,NA,NA
tFoReWhc,NA,NA,tFoReWhc,2020-0188,2021-09-19,18:53:10,19:56:34,NA,incomplete,true,true,NA,0,21,E4_Q2_ansL.png,left,NA,NA,NA,left,1754.60000002384,true,NA,NA,NA,NA,NA
tFoReWhc,NA,NA,tFoReWhc,2020-0188,2021-09-19,18:53:10,19:56:34,NA,incomplete,true,true,NA,0,22,E4_Q6_ansR.png,right,NA,NA,NA,right,1480.10000002384,true,NA,NA,NA,NA,NA
tFoReWhc,NA,NA,tFoReWhc,2020-0188,2021-09-19,18:53:10,19:56:34,NA,incomplete,true,true,NA,0,23,E4_Q5_ansR.png,right,NA,NA,NA,right,1603,true,NA,NA,NA,NA,NA
tFoReWhc,NA,NA,tFoReWhc,2020-0188,2021-09-19,18:53:10,19:56:34,NA,incomplete,true,true,NA,0,24,E4_Q4_ansL.png,left,NA,NA,NA,left,1932.09999990463,true,NA,NA,NA,NA,NA
tFoReWhc,NA,NA,tFoReWhc,2020-0188,2021-09-19,18:53:10,19:56:34,NA,incomplete,true,true,NA,0,25,E4_Q10_ansR.png,right,NA,NA,NA,right,1527.10000002384,true,NA,NA,NA,NA,NA
tFoReWhc,NA,NA,tFoReWhc,2020-0188,2021-09-19,18:53:10,19:56:34,NA,incomplete,true,true,NA,0,26,E4_Q8_ansR.png,right,NA,NA,NA,right,1788.80000007153,true,NA,NA,NA,NA,NA
tFoReWhc,NA,NA,tFoReWhc,2020-0188,2021-09-19,18:53:10,19:56:34,NA,incomplete,true,true,NA,0,27,E4_Q7_ansR.png,right,NA,NA,NA,right,1832,true,NA,NA,NA,NA,NA
tFoReWhc,NA,NA,tFoReWhc,2020-0188,2021-09-19,18:53:10,19:56:34,NA,incomplete,true,true,NA,0,28,E4_Q3_ansL.png,left,NA,NA,NA,left,1518.39999997616,true,NA,NA,NA,NA,NA
tFoReWhc,NA,NA,tFoReWhc,2020-0188,2021-09-19,18:53:10,19:56:34,NA,incomplete,true,true,NA,0,29,E4_Q1_ansL.png,left,NA,NA,NA,left,1242.5,true,NA,NA,NA,NA,NA
tFoReWhc,NA,NA,tFoReWhc,2020-0188,2021-09-19,18:53:10,19:56:34,NA,incomplete,true,NA,true,0,0,NA,left,E5_Q2_ansL.png,E4_Q9_ansL.png,between,NA,NaN,NA,left,3414.600000023842,1,1,5298
tFoReWhc,NA,NA,tFoReWhc,2020-0188,2021-09-19,18:53:10,19:56:34,NA,incomplete,true,NA,true,0,1,NA,right,E11_Q9_ansL.png,E11_Q6_ansL.png,within,NA,NaN,NA,right,3073.8000000715256,1,1,3614.6999999284744
tFoReWhc,NA,NA,tFoReWhc,2020-0188,2021-09-19,18:53:10,19:56:34,NA,incomplete,true,NA,true,0,2,NA,right,E11_Q10_ansR.png,E11_Q5_ansL.png,within,NA,NaN,NA,right,3843.399999976158,1,1,1847
tFoReWhc,NA,NA,tFoReWhc,2020-0188,2021-09-19,18:53:10,19:56:34,NA,incomplete,true,NA,true,0,3,NA,left,E11_Q2_ansR.png,E5_Q4_ansR.png,between,NA,NaN,NA,left,3298.8000000715256,1,2,3550.399999976158
tFoReWhc,NA,NA,tFoReWhc,2020-0188,2021-09-19,18:53:10,19:56:34,NA,incomplete,true,NA,true,0,4,NA,right,E4_Q3_ansL.png,E4_Q10_ansR.png,within,NA,NaN,NA,right,5294.5,1,1,3172.3000000715256
tFoReWhc,NA,NA,tFoReWhc,2020-0188,2021-09-19,18:53:10,19:56:34,NA,incomplete,true,NA,true,0,5,NA,right,E4_Q4_ansL.png,E4_Q2_ansL.png,within,NA,NaN,NA,right,1942.8000000715256,1,1,3085
tFoReWhc,NA,NA,tFoReWhc,2020-0188,2021-09-19,18:53:10,19:56:34,NA,incomplete,true,NA,true,0,6,NA,right,E11_Q8_ansR.png,E11_Q3_ansL.png,within,NA,NaN,NA,left,5101.299999952316,0,1,1809.5999999046326
tFoReWhc,NA,NA,tFoReWhc,2020-0188,2021-09-19,18:53:10,19:56:34,NA,incomplete,true,NA,true,0,7,NA,right,E4_Q10_ansR.png,E4_Q6_ansR.png,within,NA,NaN,NA,right,5947,1,1,1689.6999999284744
tFoReWhc,NA,NA,tFoReWhc,2020-0188,2021-09-19,18:53:10,19:56:34,NA,incomplete,true,NA,true,0,8,NA,left,E5_Q1_ansL.png,E5_Q9_ansR.png,within,NA,NaN,NA,left,4872.700000047684,1,1,2331
tFoReWhc,NA,NA,tFoReWhc,2020-0188,2021-09-19,18:53:10,19:56:34,NA,incomplete,true,NA,true,0,9,NA,right,E11_Q4_ansL.png,E11_Q7_ansR.png,within,NA,NaN,NA,right,2311.9000000953674,1,1,3309
tFoReWhc,NA,NA,tFoReWhc,2020-0188,2021-09-19,18:53:10,19:56:34,NA,incomplete,true,NA,true,0,10,NA,left,E4_Q8_ansR.png,E4_Q1_ansL.png,within,NA,NaN,NA,left,9271.600000023842,1,1,1642.3999999761581
tFoReWhc,NA,NA,tFoReWhc,2020-0188,2021-09-19,18:53:10,19:56:34,NA,incomplete,true,NA,true,0,11,NA,left,E5_Q4_ansR.png,E5_Q1_ansL.png,within,NA,NaN,NA,left,1570.7000000476837,1,1,1281.4000000953674
tFoReWhc,NA,NA,tFoReWhc,2020-0188,2021-09-19,18:53:10,19:56:34,NA,incomplete,true,NA,true,0,12,NA,left,E5_Q8_ansL.png,E5_Q10_ansR.png,within,NA,NaN,NA,left,3262.2000000476837,1,1,1176.6000000238419
tFoReWhc,NA,NA,tFoReWhc,2020-0188,2021-09-19,18:53:10,19:56:34,NA,incomplete,true,NA,true,0,13,NA,right,E5_Q3_ansR.png,E11_Q1_ansR.png,between,NA,NaN,NA,right,1581.7000000476837,1,2,1809.7999999523163
tFoReWhc,NA,NA,tFoReWhc,2020-0188,2021-09-19,18:53:10,19:56:34,NA,incomplete,true,NA,true,0,14,NA,right,E4_Q5_ansR.png,E4_Q9_ansL.png,within,NA,NaN,NA,right,5189.599999904633,1,1,1770.7999999523163
tFoReWhc,NA,NA,tFoReWhc,2020-0188,2021-09-19,18:53:10,19:56:34,NA,incomplete,true,NA,true,0,15,NA,left,E11_Q9_ansL.png,E11_Q1_ansR.png,within,NA,NaN,NA,left,3359.0999999046326,1,1,1309.7000000476837
tFoReWhc,NA,NA,tFoReWhc,2020-0188,2021-09-19,18:53:10,19:56:34,NA,incomplete,true,NA,true,0,16,NA,right,E4_Q7_ansR.png,E4_Q4_ansL.png,within,NA,NaN,NA,right,5309.600000023842,1,1,1497.5
tFoReWhc,NA,NA,tFoReWhc,2020-0188,2021-09-19,18:53:10,19:56:34,NA,incomplete,true,NA,true,0,17,NA,left,E4_Q5_ansR.png,E4_Q8_ansR.png,within,NA,NaN,NA,right,3874.899999976158,0,1,1209.1000000238419
tFoReWhc,NA,NA,tFoReWhc,2020-0188,2021-09-19,18:53:10,19:56:34,NA,incomplete,true,NA,true,0,18,NA,left,E11_Q4_ansL.png,E11_Q3_ansL.png,within,NA,NaN,NA,right,2263.100000023842,0,1,1256.8999999761581
tFoReWhc,NA,NA,tFoReWhc,2020-0188,2021-09-19,18:53:10,19:56:34,NA,incomplete,true,NA,true,0,19,NA,right,E5_Q2_ansL.png,E5_Q5_ansR.png,within,NA,NaN,NA,left,1514,0,1,1453.6000000238419
tFoReWhc,NA,NA,tFoReWhc,2020-0188,2021-09-19,18:53:10,19:56:34,NA,incomplete,true,NA,true,0,20,NA,right,E5_Q7_ansL.png,E11_Q8_ansR.png,between,NA,NaN,NA,right,2299.399999976158,1,2,1024.5
tFoReWhc,NA,NA,tFoReWhc,2020-0188,2021-09-19,18:53:10,19:56:34,NA,incomplete,true,NA,true,0,21,NA,right,E5_Q5_ansR.png,E5_Q3_ansR.png,within,NA,NaN,NA,right,2023.2000000476837,1,0,1777.8999999761581
tFoReWhc,NA,NA,tFoReWhc,2020-0188,2021-09-19,18:53:10,19:56:34,NA,incomplete,true,NA,true,0,22,NA,right,E5_Q8_ansL.png,E5_Q7_ansL.png,within,NA,NaN,NA,left,2202.6999999284744,0,1,1257
tFoReWhc,NA,NA,tFoReWhc,2020-0188,2021-09-19,18:53:10,19:56:34,NA,incomplete,true,NA,true,0,23,NA,right,E4_Q6_ansR.png,E5_Q6_ansR.png,between,NA,NaN,NA,right,2604.2000000476837,1,2,1368.7999999523163
tFoReWhc,NA,NA,tFoReWhc,2020-0188,2021-09-19,18:53:10,19:56:34,NA,incomplete,true,NA,true,0,24,NA,right,E5_Q6_ansR.png,E5_Q9_ansR.png,within,NA,NaN,NA,right,2187.5,1,1,1697.5
tFoReWhc,NA,NA,tFoReWhc,2020-0188,2021-09-19,18:53:10,19:56:34,NA,incomplete,true,NA,true,0,25,NA,right,E4_Q2_ansL.png,E5_Q10_ansR.png,between,NA,NaN,NA,right,3049.2000000476837,1,2,984.3999999761581
tFoReWhc,NA,NA,tFoReWhc,2020-0188,2021-09-19,18:53:10,19:56:34,NA,incomplete,true,NA,true,0,26,NA,left,E11_Q10_ansR.png,E11_Q2_ansR.png,within,NA,NaN,NA,left,9801.5,1,1,3492.5
tFoReWhc,NA,NA,tFoReWhc,2020-0188,2021-09-19,18:53:10,19:56:34,NA,incomplete,false,true,NA,1,0,E19_Q1_ansL.png,left,NA,NA,NA,left,2381.10000002384,true,NA,NA,NA,NA,NA
tFoReWhc,NA,NA,tFoReWhc,2020-0188,2021-09-19,18:53:10,19:56:34,NA,incomplete,false,true,NA,1,1,E19_Q5_ansR.png,right,NA,NA,NA,right,1961.89999997616,true,NA,NA,NA,NA,NA
tFoReWhc,NA,NA,tFoReWhc,2020-0188,2021-09-19,18:53:10,19:56:34,NA,incomplete,false,true,NA,1,2,E19_Q9_ansR.png,right,NA,NA,NA,right,2536.89999997616,true,NA,NA,NA,NA,NA
tFoReWhc,NA,NA,tFoReWhc,2020-0188,2021-09-19,18:53:10,19:56:34,NA,incomplete,false,true,NA,1,3,E19_Q4_ansR.png,right,NA,NA,NA,right,1236.69999992847,true,NA,NA,NA,NA,NA
tFoReWhc,NA,NA,tFoReWhc,2020-0188,2021-09-19,18:53:10,19:56:34,NA,incomplete,false,true,NA,1,4,E19_Q8_ansL.png,left,NA,NA,NA,left,1523.60000002384,true,NA,NA,NA,NA,NA
tFoReWhc,NA,NA,tFoReWhc,2020-0188,2021-09-19,18:53:10,19:56:34,NA,incomplete,false,true,NA,1,5,E19_Q2_ansL.png,left,NA,NA,NA,left,1160,true,NA,NA,NA,NA,NA
tFoReWhc,NA,NA,tFoReWhc,2020-0188,2021-09-19,18:53:10,19:56:34,NA,incomplete,false,true,NA,1,6,E19_Q3_ansR.png,right,NA,NA,NA,right,1988.10000002384,true,NA,NA,NA,NA,NA
tFoReWhc,NA,NA,tFoReWhc,2020-0188,2021-09-19,18:53:10,19:56:34,NA,incomplete,false,true,NA,1,7,E19_Q6_ansR.png,right,NA,NA,NA,right,1933.59999990463,true,NA,NA,NA,NA,NA
tFoReWhc,NA,NA,tFoReWhc,2020-0188,2021-09-19,18:53:10,19:56:34,NA,incomplete,false,true,NA,1,8,E19_Q10_ansL.png,left,NA,NA,NA,left,1794.70000004768,true,NA,NA,NA,NA,NA
tFoReWhc,NA,NA,tFoReWhc,2020-0188,2021-09-19,18:53:10,19:56:34,NA,incomplete,false,true,NA,1,9,E19_Q7_ansL.png,left,NA,NA,NA,left,1954.79999995232,true,NA,NA,NA,NA,NA
tFoReWhc,NA,NA,tFoReWhc,2020-0188,2021-09-19,18:53:10,19:56:34,NA,incomplete,false,true,NA,1,10,E33_Q6_ansR.png,right,NA,NA,NA,right,2737.5,true,NA,NA,NA,NA,NA
tFoReWhc,NA,NA,tFoReWhc,2020-0188,2021-09-19,18:53:10,19:56:34,NA,incomplete,false,true,NA,1,11,E33_Q1_ansL.png,left,NA,NA,NA,left,2175.20000004768,true,NA,NA,NA,NA,NA
tFoReWhc,NA,NA,tFoReWhc,2020-0188,2021-09-19,18:53:10,19:56:34,NA,incomplete,false,true,NA,1,12,E33_Q9_ansR.png,right,NA,NA,NA,none,0,false,NA,NA,NA,NA,NA
tFoReWhc,NA,NA,tFoReWhc,2020-0188,2021-09-19,18:53:10,19:56:34,NA,incomplete,false,true,NA,1,13,E33_Q7_ansL.png,left,NA,NA,NA,right,2249.10000002384,false,NA,NA,NA,NA,NA
tFoReWhc,NA,NA,tFoReWhc,2020-0188,2021-09-19,18:53:10,19:56:34,NA,incomplete,false,true,NA,1,14,E33_Q3_ansR.png,right,NA,NA,NA,right,1372.60000002384,true,NA,NA,NA,NA,NA
tFoReWhc,NA,NA,tFoReWhc,2020-0188,2021-09-19,18:53:10,19:56:34,NA,incomplete,false,true,NA,1,15,E33_Q5_ansR.png,right,NA,NA,NA,right,2091.39999997616,true,NA,NA,NA,NA,NA
tFoReWhc,NA,NA,tFoReWhc,2020-0188,2021-09-19,18:53:10,19:56:34,NA,incomplete,false,true,NA,1,16,E33_Q2_ansL.png,left,NA,NA,NA,left,1939.20000004768,true,NA,NA,NA,NA,NA
tFoReWhc,NA,NA,tFoReWhc,2020-0188,2021-09-19,18:53:10,19:56:34,NA,incomplete,false,true,NA,1,17,E33_Q10_ansL.png,left,NA,NA,NA,left,2854.10000002384,true,NA,NA,NA,NA,NA
tFoReWhc,NA,NA,tFoReWhc,2020-0188,2021-09-19,18:53:10,19:56:34,NA,incomplete,false,true,NA,1,18,E33_Q8_ansL.png,left,NA,NA,NA,left,1957.60000002384,true,NA,NA,NA,NA,NA
tFoReWhc,NA,NA,tFoReWhc,2020-0188,2021-09-19,18:53:10,19:56:34,NA,incomplete,false,true,NA,1,19,E33_Q4_ansR.png,right,NA,NA,NA,right,1649.70000004768,true,NA,NA,NA,NA,NA
tFoReWhc,NA,NA,tFoReWhc,2020-0188,2021-09-19,18:53:10,19:56:34,NA,incomplete,false,true,NA,1,20,E15_Q8_ansL.png,left,NA,NA,NA,left,2055,true,NA,NA,NA,NA,NA
tFoReWhc,NA,NA,tFoReWhc,2020-0188,2021-09-19,18:53:10,19:56:34,NA,incomplete,false,true,NA,1,21,E15_Q7_ansL.png,left,NA,NA,NA,left,1005.20000004768,true,NA,NA,NA,NA,NA
tFoReWhc,NA,NA,tFoReWhc,2020-0188,2021-09-19,18:53:10,19:56:34,NA,incomplete,false,true,NA,1,22,E15_Q9_ansR.png,right,NA,NA,NA,right,1563,true,NA,NA,NA,NA,NA
tFoReWhc,NA,NA,tFoReWhc,2020-0188,2021-09-19,18:53:10,19:56:34,NA,incomplete,false,true,NA,1,23,E15_Q1_ansL.png,left,NA,NA,NA,right,995.899999976158,false,NA,NA,NA,NA,NA
tFoReWhc,NA,NA,tFoReWhc,2020-0188,2021-09-19,18:53:10,19:56:34,NA,incomplete,false,true,NA,1,24,E15_Q3_ansR.png,right,NA,NA,NA,right,2289.30000007153,true,NA,NA,NA,NA,NA
tFoReWhc,NA,NA,tFoReWhc,2020-0188,2021-09-19,18:53:10,19:56:34,NA,incomplete,false,true,NA,1,25,E15_Q2_ansL.png,left,NA,NA,NA,left,1422.60000002384,true,NA,NA,NA,NA,NA
tFoReWhc,NA,NA,tFoReWhc,2020-0188,2021-09-19,18:53:10,19:56:34,NA,incomplete,false,true,NA,1,26,E15_Q5_ansR.png,right,NA,NA,NA,right,1129.20000004768,true,NA,NA,NA,NA,NA
tFoReWhc,NA,NA,tFoReWhc,2020-0188,2021-09-19,18:53:10,19:56:34,NA,incomplete,false,true,NA,1,27,E15_Q6_ansR.png,right,NA,NA,NA,right,1294.89999997616,true,NA,NA,NA,NA,NA
tFoReWhc,NA,NA,tFoReWhc,2020-0188,2021-09-19,18:53:10,19:56:34,NA,incomplete,false,true,NA,1,28,E15_Q4_ansR.png,right,NA,NA,NA,right,1685.29999995232,true,NA,NA,NA,NA,NA
tFoReWhc,NA,NA,tFoReWhc,2020-0188,2021-09-19,18:53:10,19:56:34,NA,incomplete,false,true,NA,1,29,E15_Q10_ansL.png,left,NA,NA,NA,left,1568.30000007153,true,NA,NA,NA,NA,NA
tFoReWhc,NA,NA,tFoReWhc,2020-0188,2021-09-19,18:53:10,19:56:34,NA,incomplete,false,NA,true,1,0,NA,right,E15_Q9_ansR.png,E33_Q4_ansR.png,between,NA,NaN,NA,right,4040.600000023842,1,2,3033.100000023842
tFoReWhc,NA,NA,tFoReWhc,2020-0188,2021-09-19,18:53:10,19:56:34,NA,incomplete,false,NA,true,1,1,NA,left,E19_Q8_ansL.png,E19_Q6_ansR.png,within,NA,NaN,NA,left,3230.6999999284744,1,1,1263.5999999046326
tFoReWhc,NA,NA,tFoReWhc,2020-0188,2021-09-19,18:53:10,19:56:34,NA,incomplete,false,NA,true,1,2,NA,left,E19_Q6_ansR.png,E33_Q6_ansR.png,between,NA,NaN,NA,left,2386.5,1,2,1818.6000000238419
tFoReWhc,NA,NA,tFoReWhc,2020-0188,2021-09-19,18:53:10,19:56:34,NA,incomplete,false,NA,true,1,3,NA,right,E33_Q9_ansR.png,E19_Q7_ansL.png,between,NA,NaN,NA,right,2448.2000000476837,1,2,1674.3999999761581
tFoReWhc,NA,NA,tFoReWhc,2020-0188,2021-09-19,18:53:10,19:56:34,NA,incomplete,false,NA,true,1,4,NA,right,E19_Q10_ansL.png,E19_Q2_ansL.png,within,NA,NaN,NA,right,2335.6999999284744,1,1,1441.2999999523163
tFoReWhc,NA,NA,tFoReWhc,2020-0188,2021-09-19,18:53:10,19:56:34,NA,incomplete,false,NA,true,1,5,NA,right,E15_Q8_ansL.png,E33_Q10_ansL.png,between,NA,NaN,NA,right,3445.5,1,2,3493.1999999284744
tFoReWhc,NA,NA,tFoReWhc,2020-0188,2021-09-19,18:53:10,19:56:34,NA,incomplete,false,NA,true,1,6,NA,left,E33_Q2_ansL.png,E33_Q4_ansR.png,within,NA,NaN,NA,left,13554.5,1,1,1080.7000000476837
tFoReWhc,NA,NA,tFoReWhc,2020-0188,2021-09-19,18:53:10,19:56:34,NA,incomplete,false,NA,true,1,7,NA,left,E19_Q1_ansL.png,E19_Q4_ansR.png,within,NA,NaN,NA,left,5024.900000095367,1,1,1312.7999999523163
tFoReWhc,NA,NA,tFoReWhc,2020-0188,2021-09-19,18:53:10,19:56:34,NA,incomplete,false,NA,true,1,8,NA,left,E33_Q3_ansR.png,E33_Q10_ansL.png,within,NA,NaN,NA,right,3442.100000023842,0,1,1305.8999999761581
tFoReWhc,NA,NA,tFoReWhc,2020-0188,2021-09-19,18:53:10,19:56:34,NA,incomplete,false,NA,true,1,9,NA,left,E33_Q6_ansR.png,E33_Q7_ansL.png,within,NA,NaN,NA,left,1783,1,0,2821.5
tFoReWhc,NA,NA,tFoReWhc,2020-0188,2021-09-19,18:53:10,19:56:34,NA,incomplete,false,NA,true,1,10,NA,left,E33_Q9_ansR.png,E33_Q5_ansR.png,within,NA,NaN,NA,left,2670.899999976158,1,1,1737.7000000476837
tFoReWhc,NA,NA,tFoReWhc,2020-0188,2021-09-19,18:53:10,19:56:34,NA,incomplete,false,NA,true,1,11,NA,left,E33_Q7_ansL.png,E33_Q2_ansL.png,within,NA,NaN,NA,left,4367.800000071526,1,1,1305.1000000238419
tFoReWhc,NA,NA,tFoReWhc,2020-0188,2021-09-19,18:53:10,19:56:34,NA,incomplete,false,NA,true,1,12,NA,left,E19_Q4_ansR.png,E19_Q3_ansR.png,within,NA,NaN,NA,left,1971.6000000238419,1,1,1217.1000000238419
tFoReWhc,NA,NA,tFoReWhc,2020-0188,2021-09-19,18:53:10,19:56:34,NA,incomplete,false,NA,true,1,13,NA,right,E19_Q2_ansL.png,E19_Q9_ansR.png,within,NA,NaN,NA,right,2560.3000000715256,1,1,1530
tFoReWhc,NA,NA,tFoReWhc,2020-0188,2021-09-19,18:53:10,19:56:34,NA,incomplete,false,NA,true,1,14,NA,right,E33_Q8_ansL.png,E33_Q5_ansR.png,within,NA,NaN,NA,right,6255.700000047684,1,0,3213.4000000953674
tFoReWhc,NA,NA,tFoReWhc,2020-0188,2021-09-19,18:53:10,19:56:34,NA,incomplete,false,NA,true,1,15,NA,right,E15_Q6_ansR.png,E15_Q3_ansR.png,within,NA,NaN,NA,left,2384.600000023842,0,1,1224.3000000715256
tFoReWhc,NA,NA,tFoReWhc,2020-0188,2021-09-19,18:53:10,19:56:34,NA,incomplete,false,NA,true,1,16,NA,right,E33_Q3_ansR.png,E33_Q1_ansL.png,within,NA,NaN,NA,right,3056.5,1,1,1232.8000000715256
tFoReWhc,NA,NA,tFoReWhc,2020-0188,2021-09-19,18:53:10,19:56:34,NA,incomplete,false,NA,true,1,17,NA,right,E19_Q8_ansL.png,E19_Q5_ansR.png,within,NA,NaN,NA,right,2243.5,1,1,1369.1000000238419
tFoReWhc,NA,NA,tFoReWhc,2020-0188,2021-09-19,18:53:10,19:56:34,NA,incomplete,false,NA,true,1,18,NA,left,E15_Q1_ansL.png,E15_Q5_ansR.png,within,NA,NaN,NA,left,5709.900000095367,1,0,5837.199999928474
tFoReWhc,NA,NA,tFoReWhc,2020-0188,2021-09-19,18:53:10,19:56:34,NA,incomplete,false,NA,true,1,19,NA,left,E15_Q8_ansL.png,E15_Q1_ansL.png,within,NA,NaN,NA,left,1284.7000000476837,1,1,1177.2000000476837
tFoReWhc,NA,NA,tFoReWhc,2020-0188,2021-09-19,18:53:10,19:56:34,NA,incomplete,false,NA,true,1,20,NA,left,E19_Q10_ansL.png,E33_Q1_ansL.png,between,NA,NaN,NA,left,2424.5,1,2,1458.7000000476837
tFoReWhc,NA,NA,tFoReWhc,2020-0188,2021-09-19,18:53:10,19:56:34,NA,incomplete,false,NA,true,1,21,NA,left,E19_Q3_ansR.png,E19_Q7_ansL.png,within,NA,NaN,NA,left,2110.8000000715256,1,1,2138.8000000715256
tFoReWhc,NA,NA,tFoReWhc,2020-0188,2021-09-19,18:53:10,19:56:34,NA,incomplete,false,NA,true,1,22,NA,left,E15_Q5_ansR.png,E15_Q10_ansL.png,within,NA,NaN,NA,left,2380.7000000476837,1,1,1562
tFoReWhc,NA,NA,tFoReWhc,2020-0188,2021-09-19,18:53:10,19:56:34,NA,incomplete,false,NA,true,1,23,NA,left,E15_Q7_ansL.png,E15_Q3_ansR.png,within,NA,NaN,NA,left,4094.5,1,1,1261
tFoReWhc,NA,NA,tFoReWhc,2020-0188,2021-09-19,18:53:10,19:56:34,NA,incomplete,false,NA,true,1,24,NA,right,E15_Q4_ansR.png,E15_Q2_ansL.png,within,NA,NaN,NA,left,3994.2000000476837,0,1,1321.0999999046326
tFoReWhc,NA,NA,tFoReWhc,2020-0188,2021-09-19,18:53:10,19:56:34,NA,incomplete,false,NA,true,1,25,NA,left,E15_Q9_ansR.png,E15_Q2_ansL.png,within,NA,NaN,NA,left,1253.3999999761581,1,1,1521.5
tFoReWhc,NA,NA,tFoReWhc,2020-0188,2021-09-19,18:53:10,19:56:34,NA,incomplete,false,NA,true,1,26,NA,right,E15_Q7_ansL.png,E33_Q8_ansL.png,between,NA,NaN,NA,right,1974.2999999523163,1,3,3533.1999999284744
tFoReWhc,NA,NA,tFoReWhc,2020-0188,2021-09-19,18:53:10,19:56:34,NA,incomplete,false,true,NA,2,0,E3_Q4_ansL.png,left,NA,NA,NA,right,2608.10000002384,false,NA,NA,NA,NA,NA
tFoReWhc,NA,NA,tFoReWhc,2020-0188,2021-09-19,18:53:10,19:56:34,NA,incomplete,false,true,NA,2,1,E3_Q8_ansL.png,left,NA,NA,NA,left,1719.39999997616,true,NA,NA,NA,NA,NA
tFoReWhc,NA,NA,tFoReWhc,2020-0188,2021-09-19,18:53:10,19:56:34,NA,incomplete,false,true,NA,2,2,E3_Q1_ansR.png,right,NA,NA,NA,right,1843.39999997616,true,NA,NA,NA,NA,NA
tFoReWhc,NA,NA,tFoReWhc,2020-0188,2021-09-19,18:53:10,19:56:34,NA,incomplete,false,true,NA,2,3,E3_Q3_ansR.png,right,NA,NA,NA,right,1352.60000002384,true,NA,NA,NA,NA,NA
tFoReWhc,NA,NA,tFoReWhc,2020-0188,2021-09-19,18:53:10,19:56:34,NA,incomplete,false,true,NA,2,4,E3_Q2_ansL.png,left,NA,NA,NA,left,1787.70000004768,true,NA,NA,NA,NA,NA
tFoReWhc,NA,NA,tFoReWhc,2020-0188,2021-09-19,18:53:10,19:56:34,NA,incomplete,false,true,NA,2,5,E3_Q6_ansR.png,right,NA,NA,NA,right,1302.10000002384,true,NA,NA,NA,NA,NA
tFoReWhc,NA,NA,tFoReWhc,2020-0188,2021-09-19,18:53:10,19:56:34,NA,incomplete,false,true,NA,2,6,E3_Q7_ansL.png,left,NA,NA,NA,left,1456.19999992847,true,NA,NA,NA,NA,NA
tFoReWhc,NA,NA,tFoReWhc,2020-0188,2021-09-19,18:53:10,19:56:34,NA,incomplete,false,true,NA,2,7,E3_Q5_ansR.png,right,NA,NA,NA,right,1217,true,NA,NA,NA,NA,NA
tFoReWhc,NA,NA,tFoReWhc,2020-0188,2021-09-19,18:53:10,19:56:34,NA,incomplete,false,true,NA,2,8,E3_Q9_ansL.png,left,NA,NA,NA,left,1683.80000007153,true,NA,NA,NA,NA,NA
tFoReWhc,NA,NA,tFoReWhc,2020-0188,2021-09-19,18:53:10,19:56:34,NA,incomplete,false,true,NA,2,9,E3_Q10_ansR.png,right,NA,NA,NA,right,2454.30000007153,true,NA,NA,NA,NA,NA
tFoReWhc,NA,NA,tFoReWhc,2020-0188,2021-09-19,18:53:10,19:56:34,NA,incomplete,false,true,NA,2,10,E21_Q2_ansL.png,left,NA,NA,NA,left,1714.10000002384,true,NA,NA,NA,NA,NA
tFoReWhc,NA,NA,tFoReWhc,2020-0188,2021-09-19,18:53:10,19:56:34,NA,incomplete,false,true,NA,2,11,E21_Q9_ansR.png,right,NA,NA,NA,right,2029.10000002384,true,NA,NA,NA,NA,NA
tFoReWhc,NA,NA,tFoReWhc,2020-0188,2021-09-19,18:53:10,19:56:34,NA,incomplete,false,true,NA,2,12,E21_Q7_ansL.png,left,NA,NA,NA,left,816.800000071526,true,NA,NA,NA,NA,NA
tFoReWhc,NA,NA,tFoReWhc,2020-0188,2021-09-19,18:53:10,19:56:34,NA,incomplete,false,true,NA,2,13,E21_Q1_ansL.png,left,NA,NA,NA,left,1228.29999995232,true,NA,NA,NA,NA,NA
tFoReWhc,NA,NA,tFoReWhc,2020-0188,2021-09-19,18:53:10,19:56:34,NA,incomplete,false,true,NA,2,14,E21_Q8_ansL.png,left,NA,NA,NA,left,1262.39999997616,true,NA,NA,NA,NA,NA
tFoReWhc,NA,NA,tFoReWhc,2020-0188,2021-09-19,18:53:10,19:56:34,NA,incomplete,false,true,NA,2,15,E21_Q6_ansR.png,right,NA,NA,NA,right,1093.19999992847,true,NA,NA,NA,NA,NA
tFoReWhc,NA,NA,tFoReWhc,2020-0188,2021-09-19,18:53:10,19:56:34,NA,incomplete,false,true,NA,2,16,E21_Q4_ansR.png,right,NA,NA,NA,left,1230,false,NA,NA,NA,NA,NA
tFoReWhc,NA,NA,tFoReWhc,2020-0188,2021-09-19,18:53:10,19:56:34,NA,incomplete,false,true,NA,2,17,E21_Q5_ansR.png,right,NA,NA,NA,right,1010.80000007153,true,NA,NA,NA,NA,NA
tFoReWhc,NA,NA,tFoReWhc,2020-0188,2021-09-19,18:53:10,19:56:34,NA,incomplete,false,true,NA,2,18,E21_Q3_ansR.png,right,NA,NA,NA,right,1503.70000004768,true,NA,NA,NA,NA,NA
tFoReWhc,NA,NA,tFoReWhc,2020-0188,2021-09-19,18:53:10,19:56:34,NA,incomplete,false,true,NA,2,19,E21_Q10_ansL.png,left,NA,NA,NA,left,1209.5,true,NA,NA,NA,NA,NA
tFoReWhc,NA,NA,tFoReWhc,2020-0188,2021-09-19,18:53:10,19:56:34,NA,incomplete,false,true,NA,2,20,E7_Q8_ansL.png,left,NA,NA,NA,left,1257.19999992847,true,NA,NA,NA,NA,NA
tFoReWhc,NA,NA,tFoReWhc,2020-0188,2021-09-19,18:53:10,19:56:34,NA,incomplete,false,true,NA,2,21,E7_Q6_ansR.png,right,NA,NA,NA,right,2584.59999990463,true,NA,NA,NA,NA,NA
tFoReWhc,NA,NA,tFoReWhc,2020-0188,2021-09-19,18:53:10,19:56:34,NA,incomplete,false,true,NA,2,22,E7_Q10_ansR.png,right,NA,NA,NA,right,2389.80000007153,true,NA,NA,NA,NA,NA
tFoReWhc,NA,NA,tFoReWhc,2020-0188,2021-09-19,18:53:10,19:56:34,NA,incomplete,false,true,NA,2,23,E7_Q1_ansL.png,left,NA,NA,NA,left,932,true,NA,NA,NA,NA,NA
tFoReWhc,NA,NA,tFoReWhc,2020-0188,2021-09-19,18:53:10,19:56:34,NA,incomplete,false,true,NA,2,24,E7_Q4_ansR.png,right,NA,NA,NA,right,1145,true,NA,NA,NA,NA,NA
tFoReWhc,NA,NA,tFoReWhc,2020-0188,2021-09-19,18:53:10,19:56:34,NA,incomplete,false,true,NA,2,25,E7_Q5_ansR.png,right,NA,NA,NA,right,2599.20000004768,true,NA,NA,NA,NA,NA
tFoReWhc,NA,NA,tFoReWhc,2020-0188,2021-09-19,18:53:10,19:56:34,NA,incomplete,false,true,NA,2,26,E7_Q9_ansR.png,right,NA,NA,NA,right,1339.5,true,NA,NA,NA,NA,NA
tFoReWhc,NA,NA,tFoReWhc,2020-0188,2021-09-19,18:53:10,19:56:34,NA,incomplete,false,true,NA,2,27,E7_Q7_ansL.png,left,NA,NA,NA,left,1202,true,NA,NA,NA,NA,NA
tFoReWhc,NA,NA,tFoReWhc,2020-0188,2021-09-19,18:53:10,19:56:34,NA,incomplete,false,true,NA,2,28,E7_Q3_ansR.png,right,NA,NA,NA,right,1633.29999995232,true,NA,NA,NA,NA,NA
tFoReWhc,NA,NA,tFoReWhc,2020-0188,2021-09-19,18:53:10,19:56:34,NA,incomplete,false,true,NA,2,29,E7_Q2_ansL.png,left,NA,NA,NA,left,1067.60000002384,true,NA,NA,NA,NA,NA
tFoReWhc,NA,NA,tFoReWhc,2020-0188,2021-09-19,18:53:10,19:56:34,NA,incomplete,false,NA,true,2,0,NA,right,E21_Q5_ansR.png,E21_Q8_ansL.png,within,NA,NaN,NA,left,2901.5,0,1,1264.1000000238419
tFoReWhc,NA,NA,tFoReWhc,2020-0188,2021-09-19,18:53:10,19:56:34,NA,incomplete,false,NA,true,2,1,NA,right,E21_Q2_ansL.png,E3_Q5_ansR.png,between,NA,NaN,NA,right,5315.899999976158,1,1,1520.8000000715256
tFoReWhc,NA,NA,tFoReWhc,2020-0188,2021-09-19,18:53:10,19:56:34,NA,incomplete,false,NA,true,2,2,NA,right,E3_Q7_ansL.png,E3_Q3_ansR.png,within,NA,NaN,NA,left,3854.2000000476837,0,1,2369.2000000476837
tFoReWhc,NA,NA,tFoReWhc,2020-0188,2021-09-19,18:53:10,19:56:34,NA,incomplete,false,NA,true,2,3,NA,right,E7_Q6_ansR.png,E21_Q3_ansR.png,between,NA,NaN,NA,right,2526.5,1,2,1664.2000000476837
tFoReWhc,NA,NA,tFoReWhc,2020-0188,2021-09-19,18:53:10,19:56:34,NA,incomplete,false,NA,true,2,4,NA,left,E21_Q1_ansL.png,E21_Q4_ansR.png,within,NA,NaN,NA,left,2610.3000000715256,1,1,1255.4000000953674
tFoReWhc,NA,NA,tFoReWhc,2020-0188,2021-09-19,18:53:10,19:56:34,NA,incomplete,false,NA,true,2,5,NA,left,E7_Q1_ansL.png,E7_Q9_ansR.png,within,NA,NaN,NA,left,2710.5,1,1,1306
tFoReWhc,NA,NA,tFoReWhc,2020-0188,2021-09-19,18:53:10,19:56:34,NA,incomplete,false,NA,true,2,6,NA,left,E7_Q6_ansR.png,E7_Q4_ansR.png,within,NA,NaN,NA,left,2660.3000000715256,1,1,2195.7999999523163
tFoReWhc,NA,NA,tFoReWhc,2020-0188,2021-09-19,18:53:10,19:56:34,NA,incomplete,false,NA,true,2,7,NA,right,E7_Q1_ansL.png,E7_Q8_ansL.png,within,NA,NaN,NA,right,2675.6999999284744,1,1,4879.899999976158
tFoReWhc,NA,NA,tFoReWhc,2020-0188,2021-09-19,18:53:10,19:56:34,NA,incomplete,false,NA,true,2,8,NA,left,E7_Q10_ansR.png,E7_Q5_ansR.png,within,NA,NaN,NA,left,2837.600000023842,1,1,1289.5
tFoReWhc,NA,NA,tFoReWhc,2020-0188,2021-09-19,18:53:10,19:56:34,NA,incomplete,false,NA,true,2,9,NA,left,E3_Q10_ansR.png,E21_Q7_ansL.png,between,NA,NaN,NA,left,1580.0999999046326,1,2,2391.7000000476837
tFoReWhc,NA,NA,tFoReWhc,2020-0188,2021-09-19,18:53:10,19:56:34,NA,incomplete,false,NA,true,2,10,NA,right,E7_Q2_ansL.png,E7_Q9_ansR.png,within,NA,NaN,NA,right,2244,1,1,2122.600000023842
tFoReWhc,NA,NA,tFoReWhc,2020-0188,2021-09-19,18:53:10,19:56:34,NA,incomplete,false,NA,true,2,11,NA,left,E3_Q8_ansL.png,E3_Q2_ansL.png,within,NA,NaN,NA,left,3807.100000023842,1,1,1112.5
tFoReWhc,NA,NA,tFoReWhc,2020-0188,2021-09-19,18:53:10,19:56:34,NA,incomplete,false,NA,true,2,12,NA,left,E21_Q7_ansL.png,E21_Q6_ansR.png,within,NA,NaN,NA,left,1778.8000000715256,1,1,2082.399999976158
tFoReWhc,NA,NA,tFoReWhc,2020-0188,2021-09-19,18:53:10,19:56:34,NA,incomplete,false,NA,true,2,13,NA,left,E3_Q1_ansR.png,E3_Q6_ansR.png,within,NA,NaN,NA,right,4865.199999928474,0,1,1594.3999999761581
tFoReWhc,NA,NA,tFoReWhc,2020-0188,2021-09-19,18:53:10,19:56:34,NA,incomplete,false,NA,true,2,14,NA,right,E3_Q10_ansR.png,E3_Q7_ansL.png,within,NA,NaN,NA,right,2517,1,1,1317.1999999284744
tFoReWhc,NA,NA,tFoReWhc,2020-0188,2021-09-19,18:53:10,19:56:34,NA,incomplete,false,NA,true,2,15,NA,right,E7_Q8_ansL.png,E21_Q5_ansR.png,between,NA,NaN,NA,right,1883.1000000238419,1,2,1258
tFoReWhc,NA,NA,tFoReWhc,2020-0188,2021-09-19,18:53:10,19:56:34,NA,incomplete,false,NA,true,2,16,NA,left,E7_Q4_ansR.png,E7_Q7_ansL.png,within,NA,NaN,NA,left,2236.399999976158,1,1,2026.5
tFoReWhc,NA,NA,tFoReWhc,2020-0188,2021-09-19,18:53:10,19:56:34,NA,incomplete,false,NA,true,2,17,NA,left,E3_Q2_ansL.png,E3_Q5_ansR.png,within,NA,NaN,NA,left,4809.299999952316,1,1,1361.7000000476837
tFoReWhc,NA,NA,tFoReWhc,2020-0188,2021-09-19,18:53:10,19:56:34,NA,incomplete,false,NA,true,2,18,NA,left,E3_Q9_ansL.png,E21_Q9_ansR.png,between,NA,NaN,NA,left,4143.699999928474,1,2,1329.5999999046326
tFoReWhc,NA,NA,tFoReWhc,2020-0188,2021-09-19,18:53:10,19:56:34,NA,incomplete,false,NA,true,2,19,NA,right,E3_Q9_ansL.png,E3_Q6_ansR.png,within,NA,NaN,NA,right,2147.100000023842,1,1,1161.3999999761581
tFoReWhc,NA,NA,tFoReWhc,2020-0188,2021-09-19,18:53:10,19:56:34,NA,incomplete,false,NA,true,2,20,NA,right,E3_Q3_ansR.png,E3_Q4_ansL.png,within,NA,NaN,NA,right,2028.7999999523163,1,1,2059.600000023842
tFoReWhc,NA,NA,tFoReWhc,2020-0188,2021-09-19,18:53:10,19:56:34,NA,incomplete,false,NA,true,2,21,NA,left,E21_Q9_ansR.png,E21_Q8_ansL.png,within,NA,NaN,NA,left,1010.6000000238419,1,1,1237.3999999761581
tFoReWhc,NA,NA,tFoReWhc,2020-0188,2021-09-19,18:53:10,19:56:34,NA,incomplete,false,NA,true,2,22,NA,left,E21_Q6_ansR.png,E21_Q3_ansR.png,within,NA,NaN,NA,right,2388.5,0,1,2092.5
tFoReWhc,NA,NA,tFoReWhc,2020-0188,2021-09-19,18:53:10,19:56:34,NA,incomplete,false,NA,true,2,23,NA,right,E7_Q3_ansR.png,E7_Q5_ansR.png,within,NA,NaN,NA,right,3255.399999976158,1,1,1857
tFoReWhc,NA,NA,tFoReWhc,2020-0188,2021-09-19,18:53:10,19:56:34,NA,incomplete,false,NA,true,2,24,NA,right,E21_Q1_ansL.png,E21_Q2_ansL.png,within,NA,NaN,NA,right,1352.4000000953674,1,0,3437.600000023842
tFoReWhc,NA,NA,tFoReWhc,2020-0188,2021-09-19,18:53:10,19:56:34,NA,incomplete,false,NA,true,2,25,NA,right,E7_Q10_ansR.png,E21_Q10_ansL.png,between,NA,NaN,NA,right,2263.899999976158,1,2,2542.399999976158
tFoReWhc,NA,NA,tFoReWhc,2020-0188,2021-09-19,18:53:10,19:56:34,NA,incomplete,false,NA,true,2,26,NA,right,E21_Q10_ansL.png,E21_Q4_ansR.png,within,NA,NaN,NA,right,2600.2000000476837,1,1,1483
tFoReWhc,NA,NA,tFoReWhc,2020-0188,2021-09-19,18:53:10,19:56:34,NA,incomplete,false,true,NA,3,0,E13_Q5_ansR.png,right,NA,NA,NA,right,1932.10000002384,true,NA,NA,NA,NA,NA
tFoReWhc,NA,NA,tFoReWhc,2020-0188,2021-09-19,18:53:10,19:56:34,NA,incomplete,false,true,NA,3,1,E13_Q6_ansR.png,right,NA,NA,NA,right,1563.10000002384,true,NA,NA,NA,NA,NA
tFoReWhc,NA,NA,tFoReWhc,2020-0188,2021-09-19,18:53:10,19:56:34,NA,incomplete,false,true,NA,3,2,E13_Q1_ansL.png,left,NA,NA,NA,left,1290,true,NA,NA,NA,NA,NA
tFoReWhc,NA,NA,tFoReWhc,2020-0188,2021-09-19,18:53:10,19:56:34,NA,incomplete,false,true,NA,3,3,E13_Q9_ansR.png,right,NA,NA,NA,right,1711.39999997616,true,NA,NA,NA,NA,NA
tFoReWhc,NA,NA,tFoReWhc,2020-0188,2021-09-19,18:53:10,19:56:34,NA,incomplete,false,true,NA,3,4,E13_Q2_ansL.png,left,NA,NA,NA,left,2064.5,true,NA,NA,NA,NA,NA
tFoReWhc,NA,NA,tFoReWhc,2020-0188,2021-09-19,18:53:10,19:56:34,NA,incomplete,false,true,NA,3,5,E13_Q7_ansL.png,left,NA,NA,NA,left,1133.10000002384,true,NA,NA,NA,NA,NA
tFoReWhc,NA,NA,tFoReWhc,2020-0188,2021-09-19,18:53:10,19:56:34,NA,incomplete,false,true,NA,3,6,E13_Q4_ansR.png,right,NA,NA,NA,right,2388.20000004768,true,NA,NA,NA,NA,NA
tFoReWhc,NA,NA,tFoReWhc,2020-0188,2021-09-19,18:53:10,19:56:34,NA,incomplete,false,true,NA,3,7,E13_Q3_ansR.png,right,NA,NA,NA,right,1374.60000002384,true,NA,NA,NA,NA,NA
tFoReWhc,NA,NA,tFoReWhc,2020-0188,2021-09-19,18:53:10,19:56:34,NA,incomplete,false,true,NA,3,8,E13_Q8_ansL.png,left,NA,NA,NA,left,1761.5,true,NA,NA,NA,NA,NA
tFoReWhc,NA,NA,tFoReWhc,2020-0188,2021-09-19,18:53:10,19:56:34,NA,incomplete,false,true,NA,3,9,E13_Q10_ansL.png,left,NA,NA,NA,left,2548.20000004768,true,NA,NA,NA,NA,NA
tFoReWhc,NA,NA,tFoReWhc,2020-0188,2021-09-19,18:53:10,19:56:34,NA,incomplete,false,true,NA,3,10,E20_Q2_ansL.png,left,NA,NA,NA,left,2290.20000004768,true,NA,NA,NA,NA,NA
tFoReWhc,NA,NA,tFoReWhc,2020-0188,2021-09-19,18:53:10,19:56:34,NA,incomplete,false,true,NA,3,11,E20_Q6_ansR.png,right,NA,NA,NA,right,1860.69999992847,true,NA,NA,NA,NA,NA
tFoReWhc,NA,NA,tFoReWhc,2020-0188,2021-09-19,18:53:10,19:56:34,NA,incomplete,false,true,NA,3,12,E20_Q4_ansR.png,right,NA,NA,NA,right,2056.5,true,NA,NA,NA,NA,NA
tFoReWhc,NA,NA,tFoReWhc,2020-0188,2021-09-19,18:53:10,19:56:34,NA,incomplete,false,true,NA,3,13,E20_Q8_ansL.png,left,NA,NA,NA,left,1795.29999995232,true,NA,NA,NA,NA,NA
tFoReWhc,NA,NA,tFoReWhc,2020-0188,2021-09-19,18:53:10,19:56:34,NA,incomplete,false,true,NA,3,14,E20_Q3_ansR.png,right,NA,NA,NA,right,1893,true,NA,NA,NA,NA,NA
tFoReWhc,NA,NA,tFoReWhc,2020-0188,2021-09-19,18:53:10,19:56:34,NA,incomplete,false,true,NA,3,15,E20_Q1_ansL.png,left,NA,NA,NA,left,2001.89999997616,true,NA,NA,NA,NA,NA
tFoReWhc,NA,NA,tFoReWhc,2020-0188,2021-09-19,18:53:10,19:56:34,NA,incomplete,false,true,NA,3,16,E20_Q5_ansR.png,right,NA,NA,NA,right,1957.10000002384,true,NA,NA,NA,NA,NA
tFoReWhc,NA,NA,tFoReWhc,2020-0188,2021-09-19,18:53:10,19:56:34,NA,incomplete,false,true,NA,3,17,E20_Q10_ansL.png,left,NA,NA,NA,left,2006.70000004768,true,NA,NA,NA,NA,NA
tFoReWhc,NA,NA,tFoReWhc,2020-0188,2021-09-19,18:53:10,19:56:34,NA,incomplete,false,true,NA,3,18,E20_Q9_ansR.png,right,NA,NA,NA,right,1513.90000009537,true,NA,NA,NA,NA,NA
tFoReWhc,NA,NA,tFoReWhc,2020-0188,2021-09-19,18:53:10,19:56:34,NA,incomplete,false,true,NA,3,19,E20_Q7_ansL.png,left,NA,NA,NA,left,1426.79999995232,true,NA,NA,NA,NA,NA
tFoReWhc,NA,NA,tFoReWhc,2020-0188,2021-09-19,18:53:10,19:56:34,NA,incomplete,false,true,NA,3,20,E10_Q1_ansL.png,left,NA,NA,NA,none,0,false,NA,NA,NA,NA,NA
tFoReWhc,NA,NA,tFoReWhc,2020-0188,2021-09-19,18:53:10,19:56:34,NA,incomplete,false,true,NA,3,21,E10_Q4_ansL.png,left,NA,NA,NA,right,3030.5,false,NA,NA,NA,NA,NA
tFoReWhc,NA,NA,tFoReWhc,2020-0188,2021-09-19,18:53:10,19:56:34,NA,incomplete,false,true,NA,3,22,E10_Q6_ansR.png,right,NA,NA,NA,none,0,false,NA,NA,NA,NA,NA
tFoReWhc,NA,NA,tFoReWhc,2020-0188,2021-09-19,18:53:10,19:56:34,NA,incomplete,false,true,NA,3,23,E10_Q2_ansL.png,left,NA,NA,NA,left,1712.79999995232,true,NA,NA,NA,NA,NA
tFoReWhc,NA,NA,tFoReWhc,2020-0188,2021-09-19,18:53:10,19:56:34,NA,incomplete,false,true,NA,3,24,E10_Q5_ansR.png,right,NA,NA,NA,right,3343,true,NA,NA,NA,NA,NA
tFoReWhc,NA,NA,tFoReWhc,2020-0188,2021-09-19,18:53:10,19:56:34,NA,incomplete,false,true,NA,3,25,E10_Q10_ansR.png,right,NA,NA,NA,right,2497.5,true,NA,NA,NA,NA,NA
tFoReWhc,NA,NA,tFoReWhc,2020-0188,2021-09-19,18:53:10,19:56:34,NA,incomplete,false,true,NA,3,26,E10_Q3_ansL.png,left,NA,NA,NA,right,2159,false,NA,NA,NA,NA,NA
tFoReWhc,NA,NA,tFoReWhc,2020-0188,2021-09-19,18:53:10,19:56:34,NA,incomplete,false,true,NA,3,27,E10_Q9_ansL.png,left,NA,NA,NA,left,1557.80000007153,true,NA,NA,NA,NA,NA
tFoReWhc,NA,NA,tFoReWhc,2020-0188,2021-09-19,18:53:10,19:56:34,NA,incomplete,false,true,NA,3,28,E10_Q8_ansR.png,right,NA,NA,NA,right,2652.89999997616,true,NA,NA,NA,NA,NA
tFoReWhc,NA,NA,tFoReWhc,2020-0188,2021-09-19,18:53:10,19:56:34,NA,incomplete,false,true,NA,3,29,E10_Q7_ansR.png,right,NA,NA,NA,right,2168.09999990463,true,NA,NA,NA,NA,NA
tFoReWhc,NA,NA,tFoReWhc,2020-0188,2021-09-19,18:53:10,19:56:34,NA,incomplete,false,NA,true,3,0,NA,left,E10_Q3_ansL.png,E10_Q7_ansR.png,within,NA,NaN,NA,left,3332.2000000476837,1,0,1806
tFoReWhc,NA,NA,tFoReWhc,2020-0188,2021-09-19,18:53:10,19:56:34,NA,incomplete,false,NA,true,3,1,NA,right,E10_Q9_ansL.png,E10_Q5_ansR.png,within,NA,NaN,NA,right,4178,1,1,1417.5999999046326
tFoReWhc,NA,NA,tFoReWhc,2020-0188,2021-09-19,18:53:10,19:56:34,NA,incomplete,false,NA,true,3,2,NA,right,E10_Q4_ansL.png,E20_Q9_ansR.png,between,NA,NaN,NA,right,2480.5,1,2,1449.9000000953674
tFoReWhc,NA,NA,tFoReWhc,2020-0188,2021-09-19,18:53:10,19:56:34,NA,incomplete,false,NA,true,3,3,NA,right,E10_Q1_ansL.png,E20_Q10_ansL.png,between,NA,NaN,NA,right,1345.1999999284744,1,2,1071.2999999523163
tFoReWhc,NA,NA,tFoReWhc,2020-0188,2021-09-19,18:53:10,19:56:34,NA,incomplete,false,NA,true,3,4,NA,left,E13_Q6_ansR.png,E13_Q2_ansL.png,within,NA,NaN,NA,left,2081.600000023842,1,1,1278.6000000238419
tFoReWhc,NA,NA,tFoReWhc,2020-0188,2021-09-19,18:53:10,19:56:34,NA,incomplete,false,NA,true,3,5,NA,left,E13_Q4_ansR.png,E13_Q10_ansL.png,within,NA,NaN,NA,left,1778,1,1,2839
tFoReWhc,NA,NA,tFoReWhc,2020-0188,2021-09-19,18:53:10,19:56:34,NA,incomplete,false,NA,true,3,6,NA,right,E13_Q3_ansR.png,E13_Q2_ansL.png,within,NA,NaN,NA,right,4561.800000071526,1,0,1367.7999999523163
tFoReWhc,NA,NA,tFoReWhc,2020-0188,2021-09-19,18:53:10,19:56:34,NA,incomplete,false,NA,true,3,7,NA,left,E13_Q3_ansR.png,E20_Q2_ansL.png,between,NA,NaN,NA,left,2627.5,1,2,3337.899999976158
tFoReWhc,NA,NA,tFoReWhc,2020-0188,2021-09-19,18:53:10,19:56:34,NA,incomplete,false,NA,true,3,8,NA,right,E10_Q5_ansR.png,E10_Q4_ansL.png,within,NA,NaN,NA,right,5440.299999952316,1,0,2482.7999999523163
tFoReWhc,NA,NA,tFoReWhc,2020-0188,2021-09-19,18:53:10,19:56:34,NA,incomplete,false,NA,true,3,9,NA,left,E13_Q5_ansR.png,E13_Q9_ansR.png,within,NA,NaN,NA,left,1174.9000000953674,1,0,3297
tFoReWhc,NA,NA,tFoReWhc,2020-0188,2021-09-19,18:53:10,19:56:34,NA,incomplete,false,NA,true,3,10,NA,right,E20_Q8_ansL.png,E20_Q2_ansL.png,within,NA,NaN,NA,right,1439.7999999523163,1,1,1118.7000000476837
tFoReWhc,NA,NA,tFoReWhc,2020-0188,2021-09-19,18:53:10,19:56:34,NA,incomplete,false,NA,true,3,11,NA,right,E20_Q1_ansL.png,E20_Q4_ansR.png,within,NA,NaN,NA,right,1519.2000000476837,1,1,1153.3999999761581
tFoReWhc,NA,NA,tFoReWhc,2020-0188,2021-09-19,18:53:10,19:56:34,NA,incomplete,false,NA,true,3,12,NA,left,E20_Q3_ansR.png,E20_Q10_ansL.png,within,NA,NaN,NA,right,3508.1999999284744,0,1,1721.8000000715256
tFoReWhc,NA,NA,tFoReWhc,2020-0188,2021-09-19,18:53:10,19:56:34,NA,incomplete,false,NA,true,3,13,NA,right,E13_Q4_ansR.png,E13_Q9_ansR.png,within,NA,NaN,NA,right,1533.7000000476837,1,0,1395
tFoReWhc,NA,NA,tFoReWhc,2020-0188,2021-09-19,18:53:10,19:56:34,NA,incomplete,false,NA,true,3,14,NA,left,E10_Q6_ansR.png,E10_Q10_ansR.png,within,NA,NaN,NA,left,3174.0999999046326,1,0,1594
tFoReWhc,NA,NA,tFoReWhc,2020-0188,2021-09-19,18:53:10,19:56:34,NA,incomplete,false,NA,true,3,15,NA,left,E20_Q8_ansL.png,E20_Q5_ansR.png,within,NA,NaN,NA,left,1784.7000000476837,1,1,1116.8000000715256
tFoReWhc,NA,NA,tFoReWhc,2020-0188,2021-09-19,18:53:10,19:56:34,NA,incomplete,false,NA,true,3,16,NA,right,E13_Q7_ansL.png,E13_Q1_ansL.png,within,NA,NaN,NA,right,2151.600000023842,1,1,1116.1000000238419
tFoReWhc,NA,NA,tFoReWhc,2020-0188,2021-09-19,18:53:10,19:56:34,NA,incomplete,false,NA,true,3,17,NA,left,E13_Q10_ansL.png,E20_Q4_ansR.png,between,NA,NaN,NA,left,1837.2000000476837,1,1,1271.7999999523163
tFoReWhc,NA,NA,tFoReWhc,2020-0188,2021-09-19,18:53:10,19:56:34,NA,incomplete,false,NA,true,3,18,NA,right,E10_Q8_ansR.png,E10_Q10_ansR.png,within,NA,NaN,NA,right,3280.5,1,1,1258.6000000238419
tFoReWhc,NA,NA,tFoReWhc,2020-0188,2021-09-19,18:53:10,19:56:34,NA,incomplete,false,NA,true,3,19,NA,right,E20_Q7_ansL.png,E20_Q5_ansR.png,within,NA,NaN,NA,left,3133.5,0,1,1464.7999999523163
tFoReWhc,NA,NA,tFoReWhc,2020-0188,2021-09-19,18:53:10,19:56:34,NA,incomplete,false,NA,true,3,20,NA,right,E20_Q3_ansR.png,E20_Q6_ansR.png,within,NA,NaN,NA,right,1309,1,1,1576.3999999761581
tFoReWhc,NA,NA,tFoReWhc,2020-0188,2021-09-19,18:53:10,19:56:34,NA,incomplete,false,NA,true,3,21,NA,right,E13_Q8_ansL.png,E13_Q7_ansL.png,within,NA,NaN,NA,right,2606.7999999523163,1,1,1120.8000000715256
tFoReWhc,NA,NA,tFoReWhc,2020-0188,2021-09-19,18:53:10,19:56:34,NA,incomplete,false,NA,true,3,22,NA,left,E10_Q2_ansL.png,E10_Q3_ansL.png,within,NA,NaN,NA,right,8837.600000023842,0,0,2876.3000000715256
tFoReWhc,NA,NA,tFoReWhc,2020-0188,2021-09-19,18:53:10,19:56:34,NA,incomplete,false,NA,true,3,23,NA,left,E13_Q8_ansL.png,E20_Q6_ansR.png,between,NA,NaN,NA,left,1767.1000000238419,1,3,2724.1999999284744
tFoReWhc,NA,NA,tFoReWhc,2020-0188,2021-09-19,18:53:10,19:56:34,NA,incomplete,false,NA,true,3,24,NA,right,E10_Q2_ansL.png,E10_Q1_ansL.png,within,NA,NaN,NA,right,2581.2000000476837,1,1,1370.7000000476837
tFoReWhc,NA,NA,tFoReWhc,2020-0188,2021-09-19,18:53:10,19:56:34,NA,incomplete,false,NA,true,3,25,NA,right,E10_Q6_ansR.png,E20_Q7_ansL.png,between,NA,NaN,NA,right,4023.6999999284744,1,2,1898.2999999523163
tFoReWhc,NA,NA,tFoReWhc,2020-0188,2021-09-19,18:53:10,19:56:34,NA,incomplete,false,NA,true,3,26,NA,left,E20_Q1_ansL.png,E20_Q9_ansR.png,within,NA,NaN,NA,right,3497,0,0,1402.2999999523163
tFoReWhc,NA,NA,tFoReWhc,2020-0188,2021-09-19,18:53:10,19:56:34,NA,incomplete,false,true,NA,4,0,E30_Q3_ansL.png,left,NA,NA,NA,left,3376.69999992847,true,NA,NA,NA,NA,NA
tFoReWhc,NA,NA,tFoReWhc,2020-0188,2021-09-19,18:53:10,19:56:34,NA,incomplete,false,true,NA,4,1,E30_Q5_ansR.png,right,NA,NA,NA,right,2317.30000007153,true,NA,NA,NA,NA,NA
tFoReWhc,NA,NA,tFoReWhc,2020-0188,2021-09-19,18:53:10,19:56:34,NA,incomplete,false,true,NA,4,2,E30_Q8_ansL.png,left,NA,NA,NA,right,2294.10000002384,false,NA,NA,NA,NA,NA
tFoReWhc,NA,NA,tFoReWhc,2020-0188,2021-09-19,18:53:10,19:56:34,NA,incomplete,false,true,NA,4,3,E30_Q2_ansL.png,left,NA,NA,NA,left,1578.20000004768,true,NA,NA,NA,NA,NA
tFoReWhc,NA,NA,tFoReWhc,2020-0188,2021-09-19,18:53:10,19:56:34,NA,incomplete,false,true,NA,4,4,E30_Q7_ansL.png,left,NA,NA,NA,right,1776.29999995232,false,NA,NA,NA,NA,NA
tFoReWhc,NA,NA,tFoReWhc,2020-0188,2021-09-19,18:53:10,19:56:34,NA,incomplete,false,true,NA,4,5,E30_Q10_ansR.png,right,NA,NA,NA,right,2006.29999995232,true,NA,NA,NA,NA,NA
tFoReWhc,NA,NA,tFoReWhc,2020-0188,2021-09-19,18:53:10,19:56:34,NA,incomplete,false,true,NA,4,6,E30_Q4_ansL.png,left,NA,NA,NA,left,2392.39999997616,true,NA,NA,NA,NA,NA
tFoReWhc,NA,NA,tFoReWhc,2020-0188,2021-09-19,18:53:10,19:56:34,NA,incomplete,false,true,NA,4,7,E30_Q9_ansL.png,left,NA,NA,NA,left,1807.20000004768,true,NA,NA,NA,NA,NA
tFoReWhc,NA,NA,tFoReWhc,2020-0188,2021-09-19,18:53:10,19:56:34,NA,incomplete,false,true,NA,4,8,E30_Q1_ansL.png,left,NA,NA,NA,left,1475.69999992847,true,NA,NA,NA,NA,NA
tFoReWhc,NA,NA,tFoReWhc,2020-0188,2021-09-19,18:53:10,19:56:34,NA,incomplete,false,true,NA,4,9,E30_Q6_ansR.png,right,NA,NA,NA,right,2582.20000004768,true,NA,NA,NA,NA,NA
tFoReWhc,NA,NA,tFoReWhc,2020-0188,2021-09-19,18:53:10,19:56:34,NA,incomplete,false,true,NA,4,10,E16_Q3_ansL.png,left,NA,NA,NA,left,1556.39999997616,true,NA,NA,NA,NA,NA
tFoReWhc,NA,NA,tFoReWhc,2020-0188,2021-09-19,18:53:10,19:56:34,NA,incomplete,false,true,NA,4,11,E16_Q8_ansR.png,right,NA,NA,NA,right,1526.5,true,NA,NA,NA,NA,NA
tFoReWhc,NA,NA,tFoReWhc,2020-0188,2021-09-19,18:53:10,19:56:34,NA,incomplete,false,true,NA,4,12,E16_Q1_ansR.png,right,NA,NA,NA,left,2405,false,NA,NA,NA,NA,NA
tFoReWhc,NA,NA,tFoReWhc,2020-0188,2021-09-19,18:53:10,19:56:34,NA,incomplete,false,true,NA,4,13,E16_Q7_ansR.png,right,NA,NA,NA,right,1150.59999990463,true,NA,NA,NA,NA,NA
tFoReWhc,NA,NA,tFoReWhc,2020-0188,2021-09-19,18:53:10,19:56:34,NA,incomplete,false,true,NA,4,14,E16_Q5_ansL.png,left,NA,NA,NA,right,2486.79999995232,false,NA,NA,NA,NA,NA
tFoReWhc,NA,NA,tFoReWhc,2020-0188,2021-09-19,18:53:10,19:56:34,NA,incomplete,false,true,NA,4,15,E16_Q6_ansL.png,left,NA,NA,NA,left,1908.10000002384,true,NA,NA,NA,NA,NA
tFoReWhc,NA,NA,tFoReWhc,2020-0188,2021-09-19,18:53:10,19:56:34,NA,incomplete,false,true,NA,4,16,E16_Q4_ansL.png,left,NA,NA,NA,left,1825.70000004768,true,NA,NA,NA,NA,NA
tFoReWhc,NA,NA,tFoReWhc,2020-0188,2021-09-19,18:53:10,19:56:34,NA,incomplete,false,true,NA,4,17,E16_Q9_ansL.png,left,NA,NA,NA,left,1330.20000004768,true,NA,NA,NA,NA,NA
tFoReWhc,NA,NA,tFoReWhc,2020-0188,2021-09-19,18:53:10,19:56:34,NA,incomplete,false,true,NA,4,18,E16_Q10_ansR.png,right,NA,NA,NA,right,1646.09999990463,true,NA,NA,NA,NA,NA
tFoReWhc,NA,NA,tFoReWhc,2020-0188,2021-09-19,18:53:10,19:56:34,NA,incomplete,false,true,NA,4,19,E16_Q2_ansR.png,right,NA,NA,NA,left,1388.70000004768,false,NA,NA,NA,NA,NA
tFoReWhc,NA,NA,tFoReWhc,2020-0188,2021-09-19,18:53:10,19:56:34,NA,incomplete,false,true,NA,4,20,E23_Q9_ansR.png,right,NA,NA,NA,right,2062.29999995232,true,NA,NA,NA,NA,NA
tFoReWhc,NA,NA,tFoReWhc,2020-0188,2021-09-19,18:53:10,19:56:34,NA,incomplete,false,true,NA,4,21,E23_Q4_ansR.png,right,NA,NA,NA,right,1385.89999997616,true,NA,NA,NA,NA,NA
tFoReWhc,NA,NA,tFoReWhc,2020-0188,2021-09-19,18:53:10,19:56:34,NA,incomplete,false,true,NA,4,22,E23_Q1_ansL.png,left,NA,NA,NA,left,2439.59999990463,true,NA,NA,NA,NA,NA
tFoReWhc,NA,NA,tFoReWhc,2020-0188,2021-09-19,18:53:10,19:56:34,NA,incomplete,false,true,NA,4,23,E23_Q3_ansR.png,right,NA,NA,NA,right,1650.30000007153,true,NA,NA,NA,NA,NA
tFoReWhc,NA,NA,tFoReWhc,2020-0188,2021-09-19,18:53:10,19:56:34,NA,incomplete,false,true,NA,4,24,E23_Q6_ansR.png,right,NA,NA,NA,right,1805.5,true,NA,NA,NA,NA,NA
tFoReWhc,NA,NA,tFoReWhc,2020-0188,2021-09-19,18:53:10,19:56:34,NA,incomplete,false,true,NA,4,25,E23_Q5_ansR.png,right,NA,NA,NA,right,1568.70000004768,true,NA,NA,NA,NA,NA
tFoReWhc,NA,NA,tFoReWhc,2020-0188,2021-09-19,18:53:10,19:56:34,NA,incomplete,false,true,NA,4,26,E23_Q7_ansL.png,left,NA,NA,NA,left,2007.39999997616,true,NA,NA,NA,NA,NA
tFoReWhc,NA,NA,tFoReWhc,2020-0188,2021-09-19,18:53:10,19:56:34,NA,incomplete,false,true,NA,4,27,E23_Q2_ansL.png,left,NA,NA,NA,left,2097.89999997616,true,NA,NA,NA,NA,NA
tFoReWhc,NA,NA,tFoReWhc,2020-0188,2021-09-19,18:53:10,19:56:34,NA,incomplete,false,true,NA,4,28,E23_Q10_ansL.png,left,NA,NA,NA,left,1435.79999995232,true,NA,NA,NA,NA,NA
tFoReWhc,NA,NA,tFoReWhc,2020-0188,2021-09-19,18:53:10,19:56:34,NA,incomplete,false,true,NA,4,29,E23_Q8_ansL.png,left,NA,NA,NA,left,1449,true,NA,NA,NA,NA,NA
tFoReWhc,NA,NA,tFoReWhc,2020-0188,2021-09-19,18:53:10,19:56:34,NA,incomplete,false,NA,true,4,0,NA,left,E23_Q5_ansR.png,E23_Q10_ansL.png,within,NA,NaN,NA,right,5221.5,0,1,1258.7000000476837
tFoReWhc,NA,NA,tFoReWhc,2020-0188,2021-09-19,18:53:10,19:56:34,NA,incomplete,false,NA,true,4,1,NA,left,E16_Q7_ansR.png,E16_Q4_ansL.png,within,NA,NaN,NA,right,2013.3999999761581,0,1,984
tFoReWhc,NA,NA,tFoReWhc,2020-0188,2021-09-19,18:53:10,19:56:34,NA,incomplete,false,NA,true,4,2,NA,left,E30_Q8_ansL.png,E30_Q10_ansR.png,within,NA,NaN,NA,left,1737.3000000715256,1,1,1171.6999999284744
tFoReWhc,NA,NA,tFoReWhc,2020-0188,2021-09-19,18:53:10,19:56:34,NA,incomplete,false,NA,true,4,3,NA,right,E16_Q1_ansR.png,E30_Q6_ansR.png,between,NA,NaN,NA,right,2333.7999999523163,1,3,857.1000000238419
tFoReWhc,NA,NA,tFoReWhc,2020-0188,2021-09-19,18:53:10,19:56:34,NA,incomplete,false,NA,true,4,4,NA,right,E30_Q2_ansL.png,E30_Q3_ansL.png,within,NA,NaN,NA,right,2599.7000000476837,1,0,1682.5
tFoReWhc,NA,NA,tFoReWhc,2020-0188,2021-09-19,18:53:10,19:56:34,NA,incomplete,false,NA,true,4,5,NA,left,E23_Q3_ansR.png,E23_Q7_ansL.png,within,NA,NaN,NA,left,1217.7999999523163,1,1,1803.4000000953674
tFoReWhc,NA,NA,tFoReWhc,2020-0188,2021-09-19,18:53:10,19:56:34,NA,incomplete,false,NA,true,4,6,NA,left,E16_Q6_ansL.png,E16_Q10_ansR.png,within,NA,NaN,NA,left,1831,1,1,1279.4000000953674
tFoReWhc,NA,NA,tFoReWhc,2020-0188,2021-09-19,18:53:10,19:56:34,NA,incomplete,false,NA,true,4,7,NA,left,E23_Q9_ansR.png,E23_Q3_ansR.png,within,NA,NaN,NA,right,2064.399999976158,0,1,1112.3999999761581
tFoReWhc,NA,NA,tFoReWhc,2020-0188,2021-09-19,18:53:10,19:56:34,NA,incomplete,false,NA,true,4,8,NA,left,E30_Q4_ansL.png,E30_Q6_ansR.png,within,NA,NaN,NA,right,1866.3999999761581,0,1,1033.5
tFoReWhc,NA,NA,tFoReWhc,2020-0188,2021-09-19,18:53:10,19:56:34,NA,incomplete,false,NA,true,4,9,NA,left,E16_Q9_ansL.png,E23_Q9_ansR.png,between,NA,NaN,NA,left,3509.399999976158,1,2,2014.6000000238419
tFoReWhc,NA,NA,tFoReWhc,2020-0188,2021-09-19,18:53:10,19:56:34,NA,incomplete,false,NA,true,4,10,NA,right,E30_Q1_ansL.png,E30_Q10_ansR.png,within,NA,NaN,NA,left,2158.2000000476837,0,0,1321.5
tFoReWhc,NA,NA,tFoReWhc,2020-0188,2021-09-19,18:53:10,19:56:34,NA,incomplete,false,NA,true,4,11,NA,right,E23_Q2_ansL.png,E23_Q6_ansR.png,within,NA,NaN,NA,right,6354,1,1,1120.2999999523163
tFoReWhc,NA,NA,tFoReWhc,2020-0188,2021-09-19,18:53:10,19:56:34,NA,incomplete,false,NA,true,4,12,NA,left,E16_Q1_ansR.png,E16_Q6_ansL.png,within,NA,NaN,NA,left,1545.7999999523163,1,1,3160.399999976158
tFoReWhc,NA,NA,tFoReWhc,2020-0188,2021-09-19,18:53:10,19:56:34,NA,incomplete,false,NA,true,4,13,NA,right,E23_Q1_ansL.png,E16_Q2_ansR.png,between,NA,NaN,NA,right,2948.5,1,2,2021.4000000953674
tFoReWhc,NA,NA,tFoReWhc,2020-0188,2021-09-19,18:53:10,19:56:34,NA,incomplete,false,NA,true,4,14,NA,left,E23_Q1_ansL.png,E23_Q5_ansR.png,within,NA,NaN,NA,right,2031.3999999761581,0,1,1153.1000000238419
tFoReWhc,NA,NA,tFoReWhc,2020-0188,2021-09-19,18:53:10,19:56:34,NA,incomplete,false,NA,true,4,15,NA,left,E23_Q4_ansR.png,E23_Q6_ansR.png,within,NA,NaN,NA,left,2478.9000000953674,1,0,1497.6000000238419
tFoReWhc,NA,NA,tFoReWhc,2020-0188,2021-09-19,18:53:10,19:56:34,NA,incomplete,false,NA,true,4,16,NA,right,E16_Q3_ansL.png,E30_Q9_ansL.png,between,NA,NaN,NA,right,2223.2999999523163,1,2,1495.4000000953674
tFoReWhc,NA,NA,tFoReWhc,2020-0188,2021-09-19,18:53:10,19:56:34,NA,incomplete,false,NA,true,4,17,NA,left,E16_Q8_ansR.png,E16_Q5_ansL.png,within,NA,NaN,NA,left,1369.5,1,1,2964.2999999523163
tFoReWhc,NA,NA,tFoReWhc,2020-0188,2021-09-19,18:53:10,19:56:34,NA,incomplete,false,NA,true,4,18,NA,right,E16_Q9_ansL.png,E16_Q5_ansL.png,within,NA,NaN,NA,left,1676.1000000238419,0,1,1073.8999999761581
tFoReWhc,NA,NA,tFoReWhc,2020-0188,2021-09-19,18:53:10,19:56:34,NA,incomplete,false,NA,true,4,19,NA,left,E30_Q5_ansR.png,E30_Q7_ansL.png,within,NA,NaN,NA,left,1338.5,1,1,2431.1999999284744
tFoReWhc,NA,NA,tFoReWhc,2020-0188,2021-09-19,18:53:10,19:56:34,NA,incomplete,false,NA,true,4,20,NA,right,E16_Q2_ansR.png,E16_Q4_ansL.png,within,NA,NaN,NA,left,2107.7999999523163,0,1,1305.2999999523163
tFoReWhc,NA,NA,tFoReWhc,2020-0188,2021-09-19,18:53:10,19:56:34,NA,incomplete,false,NA,true,4,21,NA,left,E30_Q2_ansL.png,E30_Q4_ansL.png,within,NA,NaN,NA,left,1512.1999999284744,1,0,3305.7999999523163
tFoReWhc,NA,NA,tFoReWhc,2020-0188,2021-09-19,18:53:10,19:56:34,NA,incomplete,false,NA,true,4,22,NA,right,E16_Q7_ansR.png,E16_Q3_ansL.png,within,NA,NaN,NA,right,1551.0999999046326,1,1,1235.8999999761581
tFoReWhc,NA,NA,tFoReWhc,2020-0188,2021-09-19,18:53:10,19:56:34,NA,incomplete,false,NA,true,4,23,NA,left,E16_Q10_ansR.png,E23_Q4_ansR.png,between,NA,NaN,NA,left,3712.7000000476837,1,3,1289.6000000238419
tFoReWhc,NA,NA,tFoReWhc,2020-0188,2021-09-19,18:53:10,19:56:34,NA,incomplete,false,NA,true,4,24,NA,right,E23_Q8_ansL.png,E23_Q7_ansL.png,within,NA,NaN,NA,left,2655.7000000476837,0,1,3919.7000000476837
tFoReWhc,NA,NA,tFoReWhc,2020-0188,2021-09-19,18:53:10,19:56:34,NA,incomplete,false,NA,true,4,25,NA,left,E30_Q1_ansL.png,E16_Q8_ansR.png,between,NA,NaN,NA,left,1598,1,2,1391.7999999523163
tFoReWhc,NA,NA,tFoReWhc,2020-0188,2021-09-19,18:53:10,19:56:34,NA,incomplete,false,NA,true,4,26,NA,right,E30_Q9_ansL.png,E30_Q7_ansL.png,within,NA,NaN,NA,left,3974.7999999523163,0,0,1106.3999999761581
tFoReWhc,NA,NA,tFoReWhc,2020-0188,2021-09-19,18:53:10,19:56:34,NA,incomplete,false,true,NA,5,0,E29_Q1_ansL.png,left,NA,NA,NA,left,2612.89999997616,true,NA,NA,NA,NA,NA
tFoReWhc,NA,NA,tFoReWhc,2020-0188,2021-09-19,18:53:10,19:56:34,NA,incomplete,false,true,NA,5,1,E29_Q8_ansL.png,left,NA,NA,NA,left,1312.79999995232,true,NA,NA,NA,NA,NA
tFoReWhc,NA,NA,tFoReWhc,2020-0188,2021-09-19,18:53:10,19:56:34,NA,incomplete,false,true,NA,5,2,E29_Q2_ansL.png,left,NA,NA,NA,left,1176,true,NA,NA,NA,NA,NA
tFoReWhc,NA,NA,tFoReWhc,2020-0188,2021-09-19,18:53:10,19:56:34,NA,incomplete,false,true,NA,5,3,E29_Q10_ansL.png,left,NA,NA,NA,left,1616.69999992847,true,NA,NA,NA,NA,NA
tFoReWhc,NA,NA,tFoReWhc,2020-0188,2021-09-19,18:53:10,19:56:34,NA,incomplete,false,true,NA,5,4,E29_Q3_ansR.png,right,NA,NA,NA,right,1731.29999995232,true,NA,NA,NA,NA,NA
tFoReWhc,NA,NA,tFoReWhc,2020-0188,2021-09-19,18:53:10,19:56:34,NA,incomplete,false,true,NA,5,5,E29_Q6_ansR.png,right,NA,NA,NA,right,1927.5,true,NA,NA,NA,NA,NA
tFoReWhc,NA,NA,tFoReWhc,2020-0188,2021-09-19,18:53:10,19:56:34,NA,incomplete,false,true,NA,5,6,E29_Q9_ansR.png,right,NA,NA,NA,right,876.299999952316,true,NA,NA,NA,NA,NA
tFoReWhc,NA,NA,tFoReWhc,2020-0188,2021-09-19,18:53:10,19:56:34,NA,incomplete,false,true,NA,5,7,E29_Q5_ansR.png,right,NA,NA,NA,right,1994.80000007153,true,NA,NA,NA,NA,NA
tFoReWhc,NA,NA,tFoReWhc,2020-0188,2021-09-19,18:53:10,19:56:34,NA,incomplete,false,true,NA,5,8,E29_Q7_ansL.png,left,NA,NA,NA,left,1295.70000004768,true,NA,NA,NA,NA,NA
tFoReWhc,NA,NA,tFoReWhc,2020-0188,2021-09-19,18:53:10,19:56:34,NA,incomplete,false,true,NA,5,9,E29_Q4_ansR.png,right,NA,NA,NA,right,945.799999952316,true,NA,NA,NA,NA,NA
tFoReWhc,NA,NA,tFoReWhc,2020-0188,2021-09-19,18:53:10,19:56:34,NA,incomplete,false,true,NA,5,10,E27_Q9_ansR.png,right,NA,NA,NA,right,1636.79999995232,true,NA,NA,NA,NA,NA
tFoReWhc,NA,NA,tFoReWhc,2020-0188,2021-09-19,18:53:10,19:56:34,NA,incomplete,false,true,NA,5,11,E27_Q4_ansR.png,right,NA,NA,NA,right,1586.5,true,NA,NA,NA,NA,NA
tFoReWhc,NA,NA,tFoReWhc,2020-0188,2021-09-19,18:53:10,19:56:34,NA,incomplete,false,true,NA,5,12,E27_Q1_ansL.png,left,NA,NA,NA,left,2373,true,NA,NA,NA,NA,NA
tFoReWhc,NA,NA,tFoReWhc,2020-0188,2021-09-19,18:53:10,19:56:34,NA,incomplete,false,true,NA,5,13,E27_Q2_ansL.png,left,NA,NA,NA,left,1019.5,true,NA,NA,NA,NA,NA
tFoReWhc,NA,NA,tFoReWhc,2020-0188,2021-09-19,18:53:10,19:56:34,NA,incomplete,false,true,NA,5,14,E27_Q10_ansL.png,left,NA,NA,NA,left,1274.70000004768,true,NA,NA,NA,NA,NA
tFoReWhc,NA,NA,tFoReWhc,2020-0188,2021-09-19,18:53:10,19:56:34,NA,incomplete,false,true,NA,5,15,E27_Q5_ansR.png,right,NA,NA,NA,right,1425.5,true,NA,NA,NA,NA,NA
tFoReWhc,NA,NA,tFoReWhc,2020-0188,2021-09-19,18:53:10,19:56:34,NA,incomplete,false,true,NA,5,16,E27_Q8_ansL.png,left,NA,NA,NA,left,1426.5,true,NA,NA,NA,NA,NA
tFoReWhc,NA,NA,tFoReWhc,2020-0188,2021-09-19,18:53:10,19:56:34,NA,incomplete,false,true,NA,5,17,E27_Q7_ansL.png,left,NA,NA,NA,left,1309.39999997616,true,NA,NA,NA,NA,NA
tFoReWhc,NA,NA,tFoReWhc,2020-0188,2021-09-19,18:53:10,19:56:34,NA,incomplete,false,true,NA,5,18,E27_Q3_ansR.png,right,NA,NA,NA,right,1351,true,NA,NA,NA,NA,NA
tFoReWhc,NA,NA,tFoReWhc,2020-0188,2021-09-19,18:53:10,19:56:34,NA,incomplete,false,true,NA,5,19,E27_Q6_ansR.png,right,NA,NA,NA,right,1643.39999997616,true,NA,NA,NA,NA,NA
tFoReWhc,NA,NA,tFoReWhc,2020-0188,2021-09-19,18:53:10,19:56:34,NA,incomplete,false,true,NA,5,20,E31_Q4_ansL.png,left,NA,NA,NA,right,3042.10000002384,false,NA,NA,NA,NA,NA
tFoReWhc,NA,NA,tFoReWhc,2020-0188,2021-09-19,18:53:10,19:56:34,NA,incomplete,false,true,NA,5,21,E31_Q8_ansR.png,right,NA,NA,NA,right,1377.80000007153,true,NA,NA,NA,NA,NA
tFoReWhc,NA,NA,tFoReWhc,2020-0188,2021-09-19,18:53:10,19:56:34,NA,incomplete,false,true,NA,5,22,E31_Q5_ansL.png,left,NA,NA,NA,left,1052.5,true,NA,NA,NA,NA,NA
tFoReWhc,NA,NA,tFoReWhc,2020-0188,2021-09-19,18:53:10,19:56:34,NA,incomplete,false,true,NA,5,23,E31_Q9_ansL.png,left,NA,NA,NA,left,1975.79999995232,true,NA,NA,NA,NA,NA
tFoReWhc,NA,NA,tFoReWhc,2020-0188,2021-09-19,18:53:10,19:56:34,NA,incomplete,false,true,NA,5,24,E31_Q1_ansR.png,right,NA,NA,NA,right,1127,true,NA,NA,NA,NA,NA
tFoReWhc,NA,NA,tFoReWhc,2020-0188,2021-09-19,18:53:10,19:56:34,NA,incomplete,false,true,NA,5,25,E31_Q10_ansR.png,right,NA,NA,NA,right,1202.5,true,NA,NA,NA,NA,NA
tFoReWhc,NA,NA,tFoReWhc,2020-0188,2021-09-19,18:53:10,19:56:34,NA,incomplete,false,true,NA,5,26,E31_Q3_ansL.png,left,NA,NA,NA,left,1322.79999995232,true,NA,NA,NA,NA,NA
tFoReWhc,NA,NA,tFoReWhc,2020-0188,2021-09-19,18:53:10,19:56:34,NA,incomplete,false,true,NA,5,27,E31_Q6_ansL.png,left,NA,NA,NA,left,1925.30000007153,true,NA,NA,NA,NA,NA
tFoReWhc,NA,NA,tFoReWhc,2020-0188,2021-09-19,18:53:10,19:56:34,NA,incomplete,false,true,NA,5,28,E31_Q2_ansR.png,right,NA,NA,NA,left,1764.79999995232,false,NA,NA,NA,NA,NA
tFoReWhc,NA,NA,tFoReWhc,2020-0188,2021-09-19,18:53:10,19:56:34,NA,incomplete,false,true,NA,5,29,E31_Q7_ansR.png,right,NA,NA,NA,right,1429.10000002384,true,NA,NA,NA,NA,NA
tFoReWhc,NA,NA,tFoReWhc,2020-0188,2021-09-19,18:53:10,19:56:34,NA,incomplete,false,NA,true,5,0,NA,left,E29_Q7_ansL.png,E27_Q4_ansR.png,between,NA,NaN,NA,left,1377.2999999523163,1,3,2818.399999976158
tFoReWhc,NA,NA,tFoReWhc,2020-0188,2021-09-19,18:53:10,19:56:34,NA,incomplete,false,NA,true,5,1,NA,left,E29_Q4_ansR.png,E27_Q1_ansL.png,between,NA,NaN,NA,left,1057.3999999761581,1,3,1035.6000000238419
tFoReWhc,NA,NA,tFoReWhc,2020-0188,2021-09-19,18:53:10,19:56:34,NA,incomplete,false,NA,true,5,2,NA,left,E27_Q5_ansR.png,E27_Q3_ansR.png,within,NA,NaN,NA,left,1113.5,1,1,1944.7999999523163
tFoReWhc,NA,NA,tFoReWhc,2020-0188,2021-09-19,18:53:10,19:56:34,NA,incomplete,false,NA,true,5,3,NA,left,E31_Q3_ansL.png,E31_Q7_ansR.png,within,NA,NaN,NA,left,1133.8999999761581,1,1,3492.5
tFoReWhc,NA,NA,tFoReWhc,2020-0188,2021-09-19,18:53:10,19:56:34,NA,incomplete,false,NA,true,5,4,NA,left,E29_Q8_ansL.png,E29_Q3_ansR.png,within,NA,NaN,NA,right,3995.7000000476837,0,1,1336.6000000238419
tFoReWhc,NA,NA,tFoReWhc,2020-0188,2021-09-19,18:53:10,19:56:34,NA,incomplete,false,NA,true,5,5,NA,right,E31_Q9_ansL.png,E31_Q4_ansL.png,within,NA,NaN,NA,right,1518.7999999523163,1,1,1000.3999999761581
tFoReWhc,NA,NA,tFoReWhc,2020-0188,2021-09-19,18:53:10,19:56:34,NA,incomplete,false,NA,true,5,6,NA,right,E27_Q9_ansR.png,E29_Q5_ansR.png,between,NA,NaN,NA,right,2602,1,3,1017.3999999761581
tFoReWhc,NA,NA,tFoReWhc,2020-0188,2021-09-19,18:53:10,19:56:34,NA,incomplete,false,NA,true,5,7,NA,right,E29_Q9_ansR.png,E29_Q10_ansL.png,within,NA,NaN,NA,left,2122.899999976158,0,0,2925.7000000476837
tFoReWhc,NA,NA,tFoReWhc,2020-0188,2021-09-19,18:53:10,19:56:34,NA,incomplete,false,NA,true,5,8,NA,right,E31_Q1_ansR.png,E31_Q8_ansR.png,within,NA,NaN,NA,right,1951.6000000238419,1,1,1111.1999999284744
tFoReWhc,NA,NA,tFoReWhc,2020-0188,2021-09-19,18:53:10,19:56:34,NA,incomplete,false,NA,true,5,9,NA,right,E27_Q2_ansL.png,E27_Q9_ansR.png,within,NA,NaN,NA,right,1170.2999999523163,1,1,1210.7000000476837
tFoReWhc,NA,NA,tFoReWhc,2020-0188,2021-09-19,18:53:10,19:56:34,NA,incomplete,false,NA,true,5,10,NA,right,E31_Q6_ansL.png,E31_Q1_ansR.png,within,NA,NaN,NA,left,1507.2999999523163,0,1,1125.5
tFoReWhc,NA,NA,tFoReWhc,2020-0188,2021-09-19,18:53:10,19:56:34,NA,incomplete,false,NA,true,5,11,NA,right,E27_Q6_ansR.png,E27_Q8_ansL.png,within,NA,NaN,NA,left,1584.7000000476837,0,0,2028.8999999761581
tFoReWhc,NA,NA,tFoReWhc,2020-0188,2021-09-19,18:53:10,19:56:34,NA,incomplete,false,NA,true,5,12,NA,left,E29_Q1_ansL.png,E29_Q10_ansL.png,within,NA,NaN,NA,left,1004.7000000476837,1,1,1016.6999999284744
tFoReWhc,NA,NA,tFoReWhc,2020-0188,2021-09-19,18:53:10,19:56:34,NA,incomplete,false,NA,true,5,13,NA,left,E27_Q7_ansL.png,E31_Q4_ansL.png,between,NA,NaN,NA,left,1934.2999999523163,1,2,2261.6999999284744
tFoReWhc,NA,NA,tFoReWhc,2020-0188,2021-09-19,18:53:10,19:56:34,NA,incomplete,false,NA,true,5,14,NA,left,E31_Q5_ansL.png,E31_Q10_ansR.png,within,NA,NaN,NA,right,1882.6000000238419,0,0,1040.5
tFoReWhc,NA,NA,tFoReWhc,2020-0188,2021-09-19,18:53:10,19:56:34,NA,incomplete,false,NA,true,5,15,NA,right,E31_Q2_ansR.png,E31_Q10_ansR.png,within,NA,NaN,NA,left,1357.1000000238419,0,1,1167.6000000238419
tFoReWhc,NA,NA,tFoReWhc,2020-0188,2021-09-19,18:53:10,19:56:34,NA,incomplete,false,NA,true,5,16,NA,left,E27_Q10_ansL.png,E27_Q7_ansL.png,within,NA,NaN,NA,left,1093.1000000238419,1,1,4593.400000095367
tFoReWhc,NA,NA,tFoReWhc,2020-0188,2021-09-19,18:53:10,19:56:34,NA,incomplete,false,NA,true,5,17,NA,right,E31_Q3_ansL.png,E31_Q9_ansL.png,within,NA,NaN,NA,left,1084,0,1,2099.899999976158
tFoReWhc,NA,NA,tFoReWhc,2020-0188,2021-09-19,18:53:10,19:56:34,NA,incomplete,false,NA,true,5,18,NA,left,E27_Q1_ansL.png,E27_Q5_ansR.png,within,NA,NaN,NA,left,4957.5,1,1,1267.2000000476837
tFoReWhc,NA,NA,tFoReWhc,2020-0188,2021-09-19,18:53:10,19:56:34,NA,incomplete,false,NA,true,5,19,NA,right,E31_Q5_ansL.png,E27_Q6_ansR.png,between,NA,NaN,NA,right,2336.7000000476837,1,2,2138.899999976158
tFoReWhc,NA,NA,tFoReWhc,2020-0188,2021-09-19,18:53:10,19:56:34,NA,incomplete,false,NA,true,5,20,NA,left,E29_Q6_ansR.png,E29_Q7_ansL.png,within,NA,NaN,NA,left,3032.7000000476837,1,1,1298.5
tFoReWhc,NA,NA,tFoReWhc,2020-0188,2021-09-19,18:53:10,19:56:34,NA,incomplete,false,NA,true,5,21,NA,right,E29_Q6_ansR.png,E29_Q2_ansL.png,within,NA,NaN,NA,right,1692.5,1,1,1122.5
tFoReWhc,NA,NA,tFoReWhc,2020-0188,2021-09-19,18:53:10,19:56:34,NA,incomplete,false,NA,true,5,22,NA,right,E29_Q4_ansR.png,E29_Q9_ansR.png,within,NA,NaN,NA,right,2617.8000000715256,1,1,3101.899999976158
tFoReWhc,NA,NA,tFoReWhc,2020-0188,2021-09-19,18:53:10,19:56:34,NA,incomplete,false,NA,true,5,23,NA,right,E31_Q8_ansR.png,E27_Q3_ansR.png,between,NA,NaN,NA,right,2735.4000000953674,1,2,2868.5
tFoReWhc,NA,NA,tFoReWhc,2020-0188,2021-09-19,18:53:10,19:56:34,NA,incomplete,false,NA,true,5,24,NA,right,E27_Q8_ansL.png,E27_Q2_ansL.png,within,NA,NaN,NA,left,4973.299999952316,0,1,879.8999999761581
tFoReWhc,NA,NA,tFoReWhc,2020-0188,2021-09-19,18:53:10,19:56:34,NA,incomplete,false,NA,true,5,25,NA,left,E27_Q4_ansR.png,E27_Q10_ansL.png,within,NA,NaN,NA,left,2299.5,1,1,1214.9000000953674
tFoReWhc,NA,NA,tFoReWhc,2020-0188,2021-09-19,18:53:10,19:56:34,NA,incomplete,false,NA,true,5,26,NA,right,E29_Q5_ansR.png,E29_Q3_ansR.png,within,NA,NaN,NA,right,3896.2000000476837,1,1,903.2000000476837
tFoReWhc,NA,NA,tFoReWhc,2020-0188,2021-09-19,18:53:10,19:56:34,NA,incomplete,false,true,NA,6,0,E17_Q10_ansL.png,left,NA,NA,NA,left,2741.89999997616,true,NA,NA,NA,NA,NA
tFoReWhc,NA,NA,tFoReWhc,2020-0188,2021-09-19,18:53:10,19:56:34,NA,incomplete,false,true,NA,6,1,E17_Q2_ansL.png,left,NA,NA,NA,left,2347.69999992847,true,NA,NA,NA,NA,NA
tFoReWhc,NA,NA,tFoReWhc,2020-0188,2021-09-19,18:53:10,19:56:34,NA,incomplete,false,true,NA,6,2,E17_Q3_ansR.png,right,NA,NA,NA,right,1377.20000004768,true,NA,NA,NA,NA,NA
tFoReWhc,NA,NA,tFoReWhc,2020-0188,2021-09-19,18:53:10,19:56:34,NA,incomplete,false,true,NA,6,3,E17_Q9_ansR.png,right,NA,NA,NA,right,1567.5,true,NA,NA,NA,NA,NA
tFoReWhc,NA,NA,tFoReWhc,2020-0188,2021-09-19,18:53:10,19:56:34,NA,incomplete,false,true,NA,6,4,E17_Q6_ansR.png,right,NA,NA,NA,right,1143.39999997616,true,NA,NA,NA,NA,NA
tFoReWhc,NA,NA,tFoReWhc,2020-0188,2021-09-19,18:53:10,19:56:34,NA,incomplete,false,true,NA,6,5,E17_Q5_ansR.png,right,NA,NA,NA,right,1769.40000009537,true,NA,NA,NA,NA,NA
tFoReWhc,NA,NA,tFoReWhc,2020-0188,2021-09-19,18:53:10,19:56:34,NA,incomplete,false,true,NA,6,6,E17_Q8_ansL.png,left,NA,NA,NA,left,1591,true,NA,NA,NA,NA,NA
tFoReWhc,NA,NA,tFoReWhc,2020-0188,2021-09-19,18:53:10,19:56:34,NA,incomplete,false,true,NA,6,7,E17_Q4_ansR.png,right,NA,NA,NA,right,2086.70000004768,true,NA,NA,NA,NA,NA
tFoReWhc,NA,NA,tFoReWhc,2020-0188,2021-09-19,18:53:10,19:56:34,NA,incomplete,false,true,NA,6,8,E17_Q7_ansL.png,left,NA,NA,NA,left,873.399999976158,true,NA,NA,NA,NA,NA
tFoReWhc,NA,NA,tFoReWhc,2020-0188,2021-09-19,18:53:10,19:56:34,NA,incomplete,false,true,NA,6,9,E17_Q1_ansL.png,left,NA,NA,NA,left,930.899999976158,true,NA,NA,NA,NA,NA
tFoReWhc,NA,NA,tFoReWhc,2020-0188,2021-09-19,18:53:10,19:56:34,NA,incomplete,false,true,NA,6,10,E24_Q1_ansR.png,right,NA,NA,NA,right,2046.29999995232,true,NA,NA,NA,NA,NA
tFoReWhc,NA,NA,tFoReWhc,2020-0188,2021-09-19,18:53:10,19:56:34,NA,incomplete,false,true,NA,6,11,E24_Q7_ansR.png,right,NA,NA,NA,right,1402.19999992847,true,NA,NA,NA,NA,NA
tFoReWhc,NA,NA,tFoReWhc,2020-0188,2021-09-19,18:53:10,19:56:34,NA,incomplete,false,true,NA,6,12,E24_Q10_ansR.png,right,NA,NA,NA,right,1623.5,true,NA,NA,NA,NA,NA
tFoReWhc,NA,NA,tFoReWhc,2020-0188,2021-09-19,18:53:10,19:56:34,NA,incomplete,false,true,NA,6,13,E24_Q2_ansR.png,right,NA,NA,NA,right,2141,true,NA,NA,NA,NA,NA
tFoReWhc,NA,NA,tFoReWhc,2020-0188,2021-09-19,18:53:10,19:56:34,NA,incomplete,false,true,NA,6,14,E24_Q6_ansL.png,left,NA,NA,NA,left,1564.5,true,NA,NA,NA,NA,NA
tFoReWhc,NA,NA,tFoReWhc,2020-0188,2021-09-19,18:53:10,19:56:34,NA,incomplete,false,true,NA,6,15,E24_Q5_ansL.png,left,NA,NA,NA,left,1011.39999997616,true,NA,NA,NA,NA,NA
tFoReWhc,NA,NA,tFoReWhc,2020-0188,2021-09-19,18:53:10,19:56:34,NA,incomplete,false,true,NA,6,16,E24_Q8_ansR.png,right,NA,NA,NA,right,1274.60000002384,true,NA,NA,NA,NA,NA
tFoReWhc,NA,NA,tFoReWhc,2020-0188,2021-09-19,18:53:10,19:56:34,NA,incomplete,false,true,NA,6,17,E24_Q4_ansL.png,left,NA,NA,NA,left,1259.10000002384,true,NA,NA,NA,NA,NA
tFoReWhc,NA,NA,tFoReWhc,2020-0188,2021-09-19,18:53:10,19:56:34,NA,incomplete,false,true,NA,6,18,E24_Q9_ansL.png,left,NA,NA,NA,left,1427,true,NA,NA,NA,NA,NA
tFoReWhc,NA,NA,tFoReWhc,2020-0188,2021-09-19,18:53:10,19:56:34,NA,incomplete,false,true,NA,6,19,E24_Q3_ansL.png,left,NA,NA,NA,left,891.699999928474,true,NA,NA,NA,NA,NA
tFoReWhc,NA,NA,tFoReWhc,2020-0188,2021-09-19,18:53:10,19:56:34,NA,incomplete,false,true,NA,6,20,E9_Q5_ansL.png,left,NA,NA,NA,left,2912.80000007153,true,NA,NA,NA,NA,NA
tFoReWhc,NA,NA,tFoReWhc,2020-0188,2021-09-19,18:53:10,19:56:34,NA,incomplete,false,true,NA,6,21,E9_Q4_ansL.png,left,NA,NA,NA,left,1557.89999997616,true,NA,NA,NA,NA,NA
tFoReWhc,NA,NA,tFoReWhc,2020-0188,2021-09-19,18:53:10,19:56:34,NA,incomplete,false,true,NA,6,22,E9_Q7_ansR.png,right,NA,NA,NA,right,1220.5,true,NA,NA,NA,NA,NA
tFoReWhc,NA,NA,tFoReWhc,2020-0188,2021-09-19,18:53:10,19:56:34,NA,incomplete,false,true,NA,6,23,E9_Q3_ansL.png,left,NA,NA,NA,left,1878.70000004768,true,NA,NA,NA,NA,NA
tFoReWhc,NA,NA,tFoReWhc,2020-0188,2021-09-19,18:53:10,19:56:34,NA,incomplete,false,true,NA,6,24,E9_Q10_ansR.png,right,NA,NA,NA,right,933.700000047684,true,NA,NA,NA,NA,NA
tFoReWhc,NA,NA,tFoReWhc,2020-0188,2021-09-19,18:53:10,19:56:34,NA,incomplete,false,true,NA,6,25,E9_Q9_ansL.png,left,NA,NA,NA,left,859.399999976158,true,NA,NA,NA,NA,NA
tFoReWhc,NA,NA,tFoReWhc,2020-0188,2021-09-19,18:53:10,19:56:34,NA,incomplete,false,true,NA,6,26,E9_Q1_ansR.png,right,NA,NA,NA,right,1468.5,true,NA,NA,NA,NA,NA
tFoReWhc,NA,NA,tFoReWhc,2020-0188,2021-09-19,18:53:10,19:56:34,NA,incomplete,false,true,NA,6,27,E9_Q8_ansR.png,right,NA,NA,NA,right,1339.89999997616,true,NA,NA,NA,NA,NA
tFoReWhc,NA,NA,tFoReWhc,2020-0188,2021-09-19,18:53:10,19:56:34,NA,incomplete,false,true,NA,6,28,E9_Q6_ansL.png,left,NA,NA,NA,left,1375.5,true,NA,NA,NA,NA,NA
tFoReWhc,NA,NA,tFoReWhc,2020-0188,2021-09-19,18:53:10,19:56:34,NA,incomplete,false,true,NA,6,29,E9_Q2_ansR.png,right,NA,NA,NA,right,1749.80000007153,true,NA,NA,NA,NA,NA
tFoReWhc,NA,NA,tFoReWhc,2020-0188,2021-09-19,18:53:10,19:56:34,NA,incomplete,false,NA,true,6,0,NA,right,E24_Q2_ansR.png,E24_Q1_ansR.png,within,NA,NaN,NA,right,2226.9000000953674,1,1,1177.8000000715256
tFoReWhc,NA,NA,tFoReWhc,2020-0188,2021-09-19,18:53:10,19:56:34,NA,incomplete,false,NA,true,6,1,NA,left,E17_Q3_ansR.png,E17_Q5_ansR.png,within,NA,NaN,NA,right,2113,0,1,1206.8000000715256
tFoReWhc,NA,NA,tFoReWhc,2020-0188,2021-09-19,18:53:10,19:56:34,NA,incomplete,false,NA,true,6,2,NA,right,E9_Q6_ansL.png,E9_Q9_ansL.png,within,NA,NaN,NA,right,3330.7999999523163,1,1,1018.1000000238419
tFoReWhc,NA,NA,tFoReWhc,2020-0188,2021-09-19,18:53:10,19:56:34,NA,incomplete,false,NA,true,6,3,NA,right,E17_Q7_ansL.png,E17_Q5_ansR.png,within,NA,NaN,NA,left,1249.2999999523163,0,1,1254.8999999761581
tFoReWhc,NA,NA,tFoReWhc,2020-0188,2021-09-19,18:53:10,19:56:34,NA,incomplete,false,NA,true,6,4,NA,right,E24_Q8_ansR.png,E24_Q2_ansR.png,within,NA,NaN,NA,left,1462.7000000476837,0,1,1102.5
tFoReWhc,NA,NA,tFoReWhc,2020-0188,2021-09-19,18:53:10,19:56:34,NA,incomplete,false,NA,true,6,5,NA,left,E24_Q4_ansL.png,E9_Q5_ansL.png,between,NA,NaN,NA,left,2839.5999999046326,1,2,1489.2999999523163
tFoReWhc,NA,NA,tFoReWhc,2020-0188,2021-09-19,18:53:10,19:56:34,NA,incomplete,false,NA,true,6,6,NA,right,E9_Q3_ansL.png,E9_Q5_ansL.png,within,NA,NaN,NA,right,3261.2999999523163,1,1,1025.2000000476837
tFoReWhc,NA,NA,tFoReWhc,2020-0188,2021-09-19,18:53:10,19:56:34,NA,incomplete,false,NA,true,6,7,NA,right,E24_Q5_ansL.png,E24_Q10_ansR.png,within,NA,NaN,NA,right,2942.5,1,0,1602.7000000476837
tFoReWhc,NA,NA,tFoReWhc,2020-0188,2021-09-19,18:53:10,19:56:34,NA,incomplete,false,NA,true,6,8,NA,right,E9_Q9_ansL.png,E9_Q7_ansR.png,within,NA,NaN,NA,right,1332.2000000476837,1,1,1322.3999999761581
tFoReWhc,NA,NA,tFoReWhc,2020-0188,2021-09-19,18:53:10,19:56:34,NA,incomplete,false,NA,true,6,9,NA,right,E24_Q3_ansL.png,E24_Q8_ansR.png,within,NA,NaN,NA,left,3026.899999976158,0,0,1505.1000000238419
tFoReWhc,NA,NA,tFoReWhc,2020-0188,2021-09-19,18:53:10,19:56:34,NA,incomplete,false,NA,true,6,10,NA,left,E24_Q3_ansL.png,E9_Q7_ansR.png,between,NA,NaN,NA,left,997.6000000238419,1,2,2355.2999999523163
tFoReWhc,NA,NA,tFoReWhc,2020-0188,2021-09-19,18:53:10,19:56:34,NA,incomplete,false,NA,true,6,11,NA,right,E24_Q6_ansL.png,E24_Q7_ansR.png,within,NA,NaN,NA,right,1536,1,1,1409.2999999523163
tFoReWhc,NA,NA,tFoReWhc,2020-0188,2021-09-19,18:53:10,19:56:34,NA,incomplete,false,NA,true,6,12,NA,left,E17_Q8_ansL.png,E17_Q1_ansL.png,within,NA,NaN,NA,right,3517.1999999284744,0,1,1281
tFoReWhc,NA,NA,tFoReWhc,2020-0188,2021-09-19,18:53:10,19:56:34,NA,incomplete,false,NA,true,6,13,NA,right,E24_Q9_ansL.png,E24_Q5_ansL.png,within,NA,NaN,NA,right,1611,1,1,1121.1999999284744
tFoReWhc,NA,NA,tFoReWhc,2020-0188,2021-09-19,18:53:10,19:56:34,NA,incomplete,false,NA,true,6,14,NA,right,E24_Q1_ansR.png,E17_Q4_ansR.png,between,NA,NaN,NA,right,1563.8999999761581,1,1,1465.2000000476837
tFoReWhc,NA,NA,tFoReWhc,2020-0188,2021-09-19,18:53:10,19:56:34,NA,incomplete,false,NA,true,6,15,NA,left,E24_Q6_ansL.png,E24_Q4_ansL.png,within,NA,NaN,NA,left,2935.899999976158,1,1,1516.6000000238419
tFoReWhc,NA,NA,tFoReWhc,2020-0188,2021-09-19,18:53:10,19:56:34,NA,incomplete,false,NA,true,6,16,NA,left,E9_Q4_ansL.png,E9_Q10_ansR.png,within,NA,NaN,NA,left,4178.5,1,1,1232.3999999761581
tFoReWhc,NA,NA,tFoReWhc,2020-0188,2021-09-19,18:53:10,19:56:34,NA,incomplete,false,NA,true,6,17,NA,left,E24_Q9_ansL.png,E9_Q4_ansL.png,between,NA,NaN,NA,left,3089.3000000715256,1,2,1256.3000000715256
tFoReWhc,NA,NA,tFoReWhc,2020-0188,2021-09-19,18:53:10,19:56:34,NA,incomplete,false,NA,true,6,18,NA,left,E17_Q7_ansL.png,E24_Q7_ansR.png,between,NA,NaN,NA,right,3274.600000023842,0,2,1347.3999999761581
tFoReWhc,NA,NA,tFoReWhc,2020-0188,2021-09-19,18:53:10,19:56:34,NA,incomplete,false,NA,true,6,19,NA,right,E9_Q8_ansR.png,E9_Q10_ansR.png,within,NA,NaN,NA,right,2308.5,1,1,1307.0999999046326
tFoReWhc,NA,NA,tFoReWhc,2020-0188,2021-09-19,18:53:10,19:56:34,NA,incomplete,false,NA,true,6,20,NA,left,E9_Q1_ansR.png,E9_Q2_ansR.png,within,NA,NaN,NA,left,1767.1999999284744,1,1,1134.2000000476837
tFoReWhc,NA,NA,tFoReWhc,2020-0188,2021-09-19,18:53:10,19:56:34,NA,incomplete,false,NA,true,6,21,NA,left,E9_Q3_ansL.png,E9_Q1_ansR.png,within,NA,NaN,NA,left,1370.2999999523163,1,1,863.8999999761581
tFoReWhc,NA,NA,tFoReWhc,2020-0188,2021-09-19,18:53:10,19:56:34,NA,incomplete,false,NA,true,6,22,NA,left,E17_Q2_ansL.png,E17_Q6_ansR.png,within,NA,NaN,NA,right,1757.8000000715256,0,1,2326.0999999046326
tFoReWhc,NA,NA,tFoReWhc,2020-0188,2021-09-19,18:53:10,19:56:34,NA,incomplete,false,NA,true,6,23,NA,right,E17_Q8_ansL.png,E17_Q9_ansR.png,within,NA,NaN,NA,left,1070.4000000953674,0,1,801
tFoReWhc,NA,NA,tFoReWhc,2020-0188,2021-09-19,18:53:10,19:56:34,NA,incomplete,false,NA,true,6,24,NA,right,E24_Q10_ansR.png,E17_Q1_ansL.png,between,NA,NaN,NA,right,1173.5,1,2,2613.3000000715256
tFoReWhc,NA,NA,tFoReWhc,2020-0188,2021-09-19,18:53:10,19:56:34,NA,incomplete,false,NA,true,6,25,NA,left,E17_Q6_ansR.png,E17_Q4_ansR.png,within,NA,NaN,NA,left,1221.1000000238419,1,1,1185.5999999046326
tFoReWhc,NA,NA,tFoReWhc,2020-0188,2021-09-19,18:53:10,19:56:34,NA,incomplete,false,NA,true,6,26,NA,right,E17_Q9_ansR.png,E17_Q10_ansL.png,within,NA,NaN,NA,left,1329.2000000476837,0,0,5206.700000047684
tFoReWhc,NA,NA,tFoReWhc,2020-0188,2021-09-19,18:53:10,19:56:34,NA,incomplete,false,true,NA,7,0,E2_Q8_ansR.png,right,NA,NA,NA,right,2626.5,true,NA,NA,NA,NA,NA
tFoReWhc,NA,NA,tFoReWhc,2020-0188,2021-09-19,18:53:10,19:56:34,NA,incomplete,false,true,NA,7,1,E2_Q1_ansL.png,left,NA,NA,NA,left,1574.79999995232,true,NA,NA,NA,NA,NA
tFoReWhc,NA,NA,tFoReWhc,2020-0188,2021-09-19,18:53:10,19:56:34,NA,incomplete,false,true,NA,7,2,E2_Q3_ansR.png,right,NA,NA,NA,right,1404.89999997616,true,NA,NA,NA,NA,NA
tFoReWhc,NA,NA,tFoReWhc,2020-0188,2021-09-19,18:53:10,19:56:34,NA,incomplete,false,true,NA,7,3,E2_Q6_ansL.png,left,NA,NA,NA,left,2356,true,NA,NA,NA,NA,NA
tFoReWhc,NA,NA,tFoReWhc,2020-0188,2021-09-19,18:53:10,19:56:34,NA,incomplete,false,true,NA,7,4,E2_Q10_ansL.png,left,NA,NA,NA,left,939.399999976158,true,NA,NA,NA,NA,NA
tFoReWhc,NA,NA,tFoReWhc,2020-0188,2021-09-19,18:53:10,19:56:34,NA,incomplete,false,true,NA,7,5,E2_Q5_ansL.png,left,NA,NA,NA,left,1792.89999997616,true,NA,NA,NA,NA,NA
tFoReWhc,NA,NA,tFoReWhc,2020-0188,2021-09-19,18:53:10,19:56:34,NA,incomplete,false,true,NA,7,6,E2_Q9_ansL.png,left,NA,NA,NA,left,1431,true,NA,NA,NA,NA,NA
tFoReWhc,NA,NA,tFoReWhc,2020-0188,2021-09-19,18:53:10,19:56:34,NA,incomplete,false,true,NA,7,7,E2_Q2_ansR.png,right,NA,NA,NA,right,1444.39999997616,true,NA,NA,NA,NA,NA
tFoReWhc,NA,NA,tFoReWhc,2020-0188,2021-09-19,18:53:10,19:56:34,NA,incomplete,false,true,NA,7,8,E2_Q4_ansL.png,left,NA,NA,NA,left,2088.89999997616,true,NA,NA,NA,NA,NA
tFoReWhc,NA,NA,tFoReWhc,2020-0188,2021-09-19,18:53:10,19:56:34,NA,incomplete,false,true,NA,7,9,E2_Q7_ansR.png,right,NA,NA,NA,right,2727.60000002384,true,NA,NA,NA,NA,NA
tFoReWhc,NA,NA,tFoReWhc,2020-0188,2021-09-19,18:53:10,19:56:34,NA,incomplete,false,true,NA,7,10,E22_Q7_ansR.png,right,NA,NA,NA,right,1697.19999992847,true,NA,NA,NA,NA,NA
tFoReWhc,NA,NA,tFoReWhc,2020-0188,2021-09-19,18:53:10,19:56:34,NA,incomplete,false,true,NA,7,11,E22_Q4_ansL.png,left,NA,NA,NA,left,658,true,NA,NA,NA,NA,NA
tFoReWhc,NA,NA,tFoReWhc,2020-0188,2021-09-19,18:53:10,19:56:34,NA,incomplete,false,true,NA,7,12,E22_Q10_ansR.png,right,NA,NA,NA,right,1454.10000002384,true,NA,NA,NA,NA,NA
tFoReWhc,NA,NA,tFoReWhc,2020-0188,2021-09-19,18:53:10,19:56:34,NA,incomplete,false,true,NA,7,13,E22_Q1_ansR.png,right,NA,NA,NA,right,926.600000023842,true,NA,NA,NA,NA,NA
tFoReWhc,NA,NA,tFoReWhc,2020-0188,2021-09-19,18:53:10,19:56:34,NA,incomplete,false,true,NA,7,14,E22_Q5_ansL.png,left,NA,NA,NA,left,1509.30000007153,true,NA,NA,NA,NA,NA
tFoReWhc,NA,NA,tFoReWhc,2020-0188,2021-09-19,18:53:10,19:56:34,NA,incomplete,false,true,NA,7,15,E22_Q2_ansR.png,right,NA,NA,NA,right,1137,true,NA,NA,NA,NA,NA
tFoReWhc,NA,NA,tFoReWhc,2020-0188,2021-09-19,18:53:10,19:56:34,NA,incomplete,false,true,NA,7,16,E22_Q8_ansR.png,right,NA,NA,NA,right,1356.80000007153,true,NA,NA,NA,NA,NA
tFoReWhc,NA,NA,tFoReWhc,2020-0188,2021-09-19,18:53:10,19:56:34,NA,incomplete,false,true,NA,7,17,E22_Q6_ansL.png,left,NA,NA,NA,left,1273.89999997616,true,NA,NA,NA,NA,NA
tFoReWhc,NA,NA,tFoReWhc,2020-0188,2021-09-19,18:53:10,19:56:34,NA,incomplete,false,true,NA,7,18,E22_Q9_ansL.png,left,NA,NA,NA,left,1677.79999995232,true,NA,NA,NA,NA,NA
tFoReWhc,NA,NA,tFoReWhc,2020-0188,2021-09-19,18:53:10,19:56:34,NA,incomplete,false,true,NA,7,19,E22_Q3_ansL.png,left,NA,NA,NA,left,1191.80000007153,true,NA,NA,NA,NA,NA
tFoReWhc,NA,NA,tFoReWhc,2020-0188,2021-09-19,18:53:10,19:56:34,NA,incomplete,false,true,NA,7,20,E25_Q3_ansL.png,left,NA,NA,NA,left,2072.80000007153,true,NA,NA,NA,NA,NA
tFoReWhc,NA,NA,tFoReWhc,2020-0188,2021-09-19,18:53:10,19:56:34,NA,incomplete,false,true,NA,7,21,E25_Q2_ansR.png,right,NA,NA,NA,right,1586.5,true,NA,NA,NA,NA,NA
tFoReWhc,NA,NA,tFoReWhc,2020-0188,2021-09-19,18:53:10,19:56:34,NA,incomplete,false,true,NA,7,22,E25_Q1_ansR.png,right,NA,NA,NA,right,2238,true,NA,NA,NA,NA,NA
tFoReWhc,NA,NA,tFoReWhc,2020-0188,2021-09-19,18:53:10,19:56:34,NA,incomplete,false,true,NA,7,23,E25_Q9_ansL.png,left,NA,NA,NA,none,0,false,NA,NA,NA,NA,NA
tFoReWhc,NA,NA,tFoReWhc,2020-0188,2021-09-19,18:53:10,19:56:34,NA,incomplete,false,true,NA,7,24,E25_Q6_ansL.png,left,NA,NA,NA,left,1351.29999995232,true,NA,NA,NA,NA,NA
tFoReWhc,NA,NA,tFoReWhc,2020-0188,2021-09-19,18:53:10,19:56:34,NA,incomplete,false,true,NA,7,25,E25_Q7_ansR.png,right,NA,NA,NA,right,2707.70000004768,true,NA,NA,NA,NA,NA
tFoReWhc,NA,NA,tFoReWhc,2020-0188,2021-09-19,18:53:10,19:56:34,NA,incomplete,false,true,NA,7,26,E25_Q4_ansL.png,left,NA,NA,NA,left,1624.60000002384,true,NA,NA,NA,NA,NA
tFoReWhc,NA,NA,tFoReWhc,2020-0188,2021-09-19,18:53:10,19:56:34,NA,incomplete,false,true,NA,7,27,E25_Q10_ansR.png,right,NA,NA,NA,right,2409.20000004768,true,NA,NA,NA,NA,NA
tFoReWhc,NA,NA,tFoReWhc,2020-0188,2021-09-19,18:53:10,19:56:34,NA,incomplete,false,true,NA,7,28,E25_Q5_ansL.png,left,NA,NA,NA,right,2747.20000004768,false,NA,NA,NA,NA,NA
tFoReWhc,NA,NA,tFoReWhc,2020-0188,2021-09-19,18:53:10,19:56:34,NA,incomplete,false,true,NA,7,29,E25_Q8_ansR.png,right,NA,NA,NA,right,1994.70000004768,true,NA,NA,NA,NA,NA
tFoReWhc,NA,NA,tFoReWhc,2020-0188,2021-09-19,18:53:10,19:56:34,NA,incomplete,false,NA,true,7,0,NA,right,E25_Q9_ansL.png,E25_Q3_ansL.png,within,NA,NaN,NA,right,2214.5,1,1,949.8000000715256
tFoReWhc,NA,NA,tFoReWhc,2020-0188,2021-09-19,18:53:10,19:56:34,NA,incomplete,false,NA,true,7,1,NA,right,E22_Q6_ansL.png,E22_Q5_ansL.png,within,NA,NaN,NA,right,1641.5,1,1,1032
tFoReWhc,NA,NA,tFoReWhc,2020-0188,2021-09-19,18:53:10,19:56:34,NA,incomplete,false,NA,true,7,2,NA,left,E2_Q2_ansR.png,E22_Q7_ansR.png,between,NA,NaN,NA,left,5171.900000095367,1,2,1061.6999999284744
tFoReWhc,NA,NA,tFoReWhc,2020-0188,2021-09-19,18:53:10,19:56:34,NA,incomplete,false,NA,true,7,3,NA,right,E2_Q10_ansL.png,E2_Q1_ansL.png,within,NA,NaN,NA,right,8959.5,1,0,1378.0999999046326
tFoReWhc,NA,NA,tFoReWhc,2020-0188,2021-09-19,18:53:10,19:56:34,NA,incomplete,false,NA,true,7,4,NA,left,E22_Q6_ansL.png,E25_Q3_ansL.png,between,NA,NaN,NA,left,1596.5,1,2,1226.7000000476837
tFoReWhc,NA,NA,tFoReWhc,2020-0188,2021-09-19,18:53:10,19:56:34,NA,incomplete,false,NA,true,7,5,NA,right,E22_Q8_ansR.png,E22_Q1_ansR.png,within,NA,NaN,NA,right,2086.399999976158,1,0,2826.899999976158
tFoReWhc,NA,NA,tFoReWhc,2020-0188,2021-09-19,18:53:10,19:56:34,NA,incomplete,false,NA,true,7,6,NA,right,E22_Q5_ansL.png,E22_Q4_ansL.png,within,NA,NaN,NA,left,2372.2999999523163,0,0,2144.399999976158
tFoReWhc,NA,NA,tFoReWhc,2020-0188,2021-09-19,18:53:10,19:56:34,NA,incomplete,false,NA,true,7,7,NA,left,E22_Q7_ansR.png,E22_Q1_ansR.png,within,NA,NaN,NA,left,1540.6000000238419,1,0,1039.6999999284744
tFoReWhc,NA,NA,tFoReWhc,2020-0188,2021-09-19,18:53:10,19:56:34,NA,incomplete,false,NA,true,7,8,NA,left,E2_Q5_ansL.png,E2_Q4_ansL.png,within,NA,NaN,NA,right,1246.8000000715256,0,1,1025.1000000238419
tFoReWhc,NA,NA,tFoReWhc,2020-0188,2021-09-19,18:53:10,19:56:34,NA,incomplete,false,NA,true,7,9,NA,left,E2_Q4_ansL.png,E22_Q4_ansL.png,between,NA,NaN,NA,right,1274.3999999761581,0,2,1033.7000000476837
tFoReWhc,NA,NA,tFoReWhc,2020-0188,2021-09-19,18:53:10,19:56:34,NA,incomplete,false,NA,true,7,10,NA,left,E22_Q2_ansR.png,E22_Q9_ansL.png,within,NA,NaN,NA,left,2336.1999999284744,1,1,1724.5
tFoReWhc,NA,NA,tFoReWhc,2020-0188,2021-09-19,18:53:10,19:56:34,NA,incomplete,false,NA,true,7,11,NA,left,E25_Q2_ansR.png,E25_Q6_ansL.png,within,NA,NaN,NA,left,1109.5999999046326,1,1,1073
tFoReWhc,NA,NA,tFoReWhc,2020-0188,2021-09-19,18:53:10,19:56:34,NA,incomplete,false,NA,true,7,12,NA,right,E25_Q7_ansR.png,E25_Q1_ansR.png,within,NA,NaN,NA,right,1698.7999999523163,1,1,1065.6000000238419
tFoReWhc,NA,NA,tFoReWhc,2020-0188,2021-09-19,18:53:10,19:56:34,NA,incomplete,false,NA,true,7,13,NA,right,E22_Q3_ansL.png,E22_Q8_ansR.png,within,NA,NaN,NA,right,1330.5999999046326,1,0,1757.3000000715256
tFoReWhc,NA,NA,tFoReWhc,2020-0188,2021-09-19,18:53:10,19:56:34,NA,incomplete,false,NA,true,7,14,NA,left,E2_Q10_ansL.png,E2_Q2_ansR.png,within,NA,NaN,NA,left,1531.7000000476837,1,1,1989.3999999761581
tFoReWhc,NA,NA,tFoReWhc,2020-0188,2021-09-19,18:53:10,19:56:34,NA,incomplete,false,NA,true,7,15,NA,right,E22_Q2_ansR.png,E22_Q10_ansR.png,within,NA,NaN,NA,left,2266.3000000715256,0,1,1754.5
tFoReWhc,NA,NA,tFoReWhc,2020-0188,2021-09-19,18:53:10,19:56:34,NA,incomplete,false,NA,true,7,16,NA,right,E25_Q5_ansL.png,E25_Q7_ansR.png,within,NA,NaN,NA,left,2165.2999999523163,0,1,1169.5
tFoReWhc,NA,NA,tFoReWhc,2020-0188,2021-09-19,18:53:10,19:56:34,NA,incomplete,false,NA,true,7,17,NA,right,E25_Q10_ansR.png,E25_Q6_ansL.png,within,NA,NaN,NA,right,1338.1000000238419,1,1,1159
tFoReWhc,NA,NA,tFoReWhc,2020-0188,2021-09-19,18:53:10,19:56:34,NA,incomplete,false,NA,true,7,18,NA,right,E2_Q6_ansL.png,E2_Q8_ansR.png,within,NA,NaN,NA,right,3110,1,1,1346.8999999761581
tFoReWhc,NA,NA,tFoReWhc,2020-0188,2021-09-19,18:53:10,19:56:34,NA,incomplete,false,NA,true,7,19,NA,left,E2_Q3_ansR.png,E2_Q5_ansL.png,within,NA,NaN,NA,right,1751.3999999761581,0,1,1139.8000000715256
tFoReWhc,NA,NA,tFoReWhc,2020-0188,2021-09-19,18:53:10,19:56:34,NA,incomplete,false,NA,true,7,20,NA,left,E25_Q9_ansL.png,E25_Q4_ansL.png,within,NA,NaN,NA,right,3008.7999999523163,0,1,823.5
tFoReWhc,NA,NA,tFoReWhc,2020-0188,2021-09-19,18:53:10,19:56:34,NA,incomplete,false,NA,true,7,21,NA,left,E2_Q6_ansL.png,E2_Q9_ansL.png,within,NA,NaN,NA,left,1605.1000000238419,1,0,1483
tFoReWhc,NA,NA,tFoReWhc,2020-0188,2021-09-19,18:53:10,19:56:34,NA,incomplete,false,NA,true,7,22,NA,left,E25_Q4_ansL.png,E25_Q8_ansR.png,within,NA,NaN,NA,left,4327,1,1,1186.8999999761581
tFoReWhc,NA,NA,tFoReWhc,2020-0188,2021-09-19,18:53:10,19:56:34,NA,incomplete,false,NA,true,7,23,NA,right,E2_Q7_ansR.png,E2_Q9_ansL.png,within,NA,NaN,NA,right,2465,1,1,2361.2999999523163
tFoReWhc,NA,NA,tFoReWhc,2020-0188,2021-09-19,18:53:10,19:56:34,NA,incomplete,false,NA,true,7,24,NA,left,E22_Q9_ansL.png,E25_Q2_ansR.png,between,NA,NaN,NA,left,1596.8999999761581,1,2,1739
tFoReWhc,NA,NA,tFoReWhc,2020-0188,2021-09-19,18:53:10,19:56:34,NA,incomplete,false,NA,true,7,25,NA,left,E2_Q7_ansR.png,E22_Q10_ansR.png,between,NA,NaN,NA,right,1295.1000000238419,0,2,2964.899999976158
tFoReWhc,NA,NA,tFoReWhc,2020-0188,2021-09-19,18:53:10,19:56:34,NA,incomplete,false,NA,true,7,26,NA,left,E22_Q3_ansL.png,E25_Q1_ansR.png,between,NA,NaN,NA,left,1636.1999999284744,1,2,971.3000000715256
tFoReWhc,NA,NA,tFoReWhc,2020-0188,2021-09-19,18:53:10,19:56:34,NA,incomplete,false,true,NA,8,0,E6_Q8_ansL.png,left,NA,NA,NA,left,2639.10000002384,true,NA,NA,NA,NA,NA
tFoReWhc,NA,NA,tFoReWhc,2020-0188,2021-09-19,18:53:10,19:56:34,NA,incomplete,false,true,NA,8,1,E6_Q6_ansR.png,right,NA,NA,NA,right,1305.5,true,NA,NA,NA,NA,NA
tFoReWhc,NA,NA,tFoReWhc,2020-0188,2021-09-19,18:53:10,19:56:34,NA,incomplete,false,true,NA,8,2,E6_Q5_ansR.png,right,NA,NA,NA,right,1703.10000002384,true,NA,NA,NA,NA,NA
tFoReWhc,NA,NA,tFoReWhc,2020-0188,2021-09-19,18:53:10,19:56:34,NA,incomplete,false,true,NA,8,3,E6_Q2_ansL.png,left,NA,NA,NA,left,1647.39999997616,true,NA,NA,NA,NA,NA
tFoReWhc,NA,NA,tFoReWhc,2020-0188,2021-09-19,18:53:10,19:56:34,NA,incomplete,false,true,NA,8,4,E6_Q7_ansL.png,left,NA,NA,NA,left,1718,true,NA,NA,NA,NA,NA
tFoReWhc,NA,NA,tFoReWhc,2020-0188,2021-09-19,18:53:10,19:56:34,NA,incomplete,false,true,NA,8,5,E6_Q10_ansL.png,left,NA,NA,NA,left,3290.89999997616,true,NA,NA,NA,NA,NA
tFoReWhc,NA,NA,tFoReWhc,2020-0188,2021-09-19,18:53:10,19:56:34,NA,incomplete,false,true,NA,8,6,E6_Q4_ansR.png,right,NA,NA,NA,right,1245.20000004768,true,NA,NA,NA,NA,NA
tFoReWhc,NA,NA,tFoReWhc,2020-0188,2021-09-19,18:53:10,19:56:34,NA,incomplete,false,true,NA,8,7,E6_Q9_ansL.png,left,NA,NA,NA,left,1610.30000007153,true,NA,NA,NA,NA,NA
tFoReWhc,NA,NA,tFoReWhc,2020-0188,2021-09-19,18:53:10,19:56:34,NA,incomplete,false,true,NA,8,8,E6_Q3_ansR.png,right,NA,NA,NA,none,0,false,NA,NA,NA,NA,NA
tFoReWhc,NA,NA,tFoReWhc,2020-0188,2021-09-19,18:53:10,19:56:34,NA,incomplete,false,true,NA,8,9,E6_Q1_ansL.png,left,NA,NA,NA,left,1399.89999997616,true,NA,NA,NA,NA,NA
tFoReWhc,NA,NA,tFoReWhc,2020-0188,2021-09-19,18:53:10,19:56:34,NA,incomplete,false,true,NA,8,10,E18_Q8_ansL.png,left,NA,NA,NA,left,1377.5,true,NA,NA,NA,NA,NA
tFoReWhc,NA,NA,tFoReWhc,2020-0188,2021-09-19,18:53:10,19:56:34,NA,incomplete,false,true,NA,8,11,E18_Q2_ansL.png,left,NA,NA,NA,left,1349.09999990463,true,NA,NA,NA,NA,NA
tFoReWhc,NA,NA,tFoReWhc,2020-0188,2021-09-19,18:53:10,19:56:34,NA,incomplete,false,true,NA,8,12,E18_Q5_ansR.png,right,NA,NA,NA,right,1692.60000002384,true,NA,NA,NA,NA,NA
tFoReWhc,NA,NA,tFoReWhc,2020-0188,2021-09-19,18:53:10,19:56:34,NA,incomplete,false,true,NA,8,13,E18_Q3_ansR.png,right,NA,NA,NA,right,2009.60000002384,true,NA,NA,NA,NA,NA
tFoReWhc,NA,NA,tFoReWhc,2020-0188,2021-09-19,18:53:10,19:56:34,NA,incomplete,false,true,NA,8,14,E18_Q1_ansL.png,left,NA,NA,NA,left,2247.19999992847,true,NA,NA,NA,NA,NA
tFoReWhc,NA,NA,tFoReWhc,2020-0188,2021-09-19,18:53:10,19:56:34,NA,incomplete,false,true,NA,8,15,E18_Q6_ansR.png,right,NA,NA,NA,right,1316.79999995232,true,NA,NA,NA,NA,NA
tFoReWhc,NA,NA,tFoReWhc,2020-0188,2021-09-19,18:53:10,19:56:34,NA,incomplete,false,true,NA,8,16,E18_Q7_ansL.png,left,NA,NA,NA,left,1409.20000004768,true,NA,NA,NA,NA,NA
tFoReWhc,NA,NA,tFoReWhc,2020-0188,2021-09-19,18:53:10,19:56:34,NA,incomplete,false,true,NA,8,17,E18_Q10_ansL.png,left,NA,NA,NA,left,2171,true,NA,NA,NA,NA,NA
tFoReWhc,NA,NA,tFoReWhc,2020-0188,2021-09-19,18:53:10,19:56:34,NA,incomplete,false,true,NA,8,18,E18_Q9_ansR.png,right,NA,NA,NA,right,1235.70000004768,true,NA,NA,NA,NA,NA
tFoReWhc,NA,NA,tFoReWhc,2020-0188,2021-09-19,18:53:10,19:56:34,NA,incomplete,false,true,NA,8,19,E18_Q4_ansR.png,right,NA,NA,NA,right,1633.19999992847,true,NA,NA,NA,NA,NA
tFoReWhc,NA,NA,tFoReWhc,2020-0188,2021-09-19,18:53:10,19:56:34,NA,incomplete,false,true,NA,8,20,E28_Q9_ansL.png,left,NA,NA,NA,left,2152.10000002384,true,NA,NA,NA,NA,NA
tFoReWhc,NA,NA,tFoReWhc,2020-0188,2021-09-19,18:53:10,19:56:34,NA,incomplete,false,true,NA,8,21,E28_Q5_ansL.png,left,NA,NA,NA,left,1513.30000007153,true,NA,NA,NA,NA,NA
tFoReWhc,NA,NA,tFoReWhc,2020-0188,2021-09-19,18:53:10,19:56:34,NA,incomplete,false,true,NA,8,22,E28_Q10_ansR.png,right,NA,NA,NA,right,1521.10000002384,true,NA,NA,NA,NA,NA
tFoReWhc,NA,NA,tFoReWhc,2020-0188,2021-09-19,18:53:10,19:56:34,NA,incomplete,false,true,NA,8,23,E28_Q1_ansR.png,right,NA,NA,NA,right,1350.70000004768,true,NA,NA,NA,NA,NA
tFoReWhc,NA,NA,tFoReWhc,2020-0188,2021-09-19,18:53:10,19:56:34,NA,incomplete,false,true,NA,8,24,E28_Q3_ansL.png,left,NA,NA,NA,left,2903.30000007153,true,NA,NA,NA,NA,NA
tFoReWhc,NA,NA,tFoReWhc,2020-0188,2021-09-19,18:53:10,19:56:34,NA,incomplete,false,true,NA,8,25,E28_Q2_ansR.png,right,NA,NA,NA,right,1689.60000002384,true,NA,NA,NA,NA,NA
tFoReWhc,NA,NA,tFoReWhc,2020-0188,2021-09-19,18:53:10,19:56:34,NA,incomplete,false,true,NA,8,26,E28_Q7_ansR.png,right,NA,NA,NA,right,1398.19999992847,true,NA,NA,NA,NA,NA
tFoReWhc,NA,NA,tFoReWhc,2020-0188,2021-09-19,18:53:10,19:56:34,NA,incomplete,false,true,NA,8,27,E28_Q8_ansR.png,right,NA,NA,NA,none,0,false,NA,NA,NA,NA,NA
tFoReWhc,NA,NA,tFoReWhc,2020-0188,2021-09-19,18:53:10,19:56:34,NA,incomplete,false,true,NA,8,28,E28_Q6_ansL.png,left,NA,NA,NA,left,1777.39999997616,true,NA,NA,NA,NA,NA
tFoReWhc,NA,NA,tFoReWhc,2020-0188,2021-09-19,18:53:10,19:56:34,NA,incomplete,false,true,NA,8,29,E28_Q4_ansL.png,left,NA,NA,NA,left,1616.29999995232,true,NA,NA,NA,NA,NA
tFoReWhc,NA,NA,tFoReWhc,2020-0188,2021-09-19,18:53:10,19:56:34,NA,incomplete,false,NA,true,8,0,NA,right,E18_Q7_ansL.png,E18_Q3_ansR.png,within,NA,NaN,NA,left,2855.100000023842,0,0,1275.8999999761581
tFoReWhc,NA,NA,tFoReWhc,2020-0188,2021-09-19,18:53:10,19:56:34,NA,incomplete,false,NA,true,8,1,NA,right,E28_Q5_ansL.png,E18_Q9_ansR.png,between,NA,NaN,NA,right,1368.2000000476837,1,2,1544.2999999523163
tFoReWhc,NA,NA,tFoReWhc,2020-0188,2021-09-19,18:53:10,19:56:34,NA,incomplete,false,NA,true,8,2,NA,left,E18_Q6_ansR.png,E18_Q9_ansR.png,within,NA,NaN,NA,left,2102.1999999284744,1,1,1158.8000000715256
tFoReWhc,NA,NA,tFoReWhc,2020-0188,2021-09-19,18:53:10,19:56:34,NA,incomplete,false,NA,true,8,3,NA,left,E28_Q10_ansR.png,E28_Q2_ansR.png,within,NA,NaN,NA,left,3217.8000000715256,1,1,1247.7000000476837
tFoReWhc,NA,NA,tFoReWhc,2020-0188,2021-09-19,18:53:10,19:56:34,NA,incomplete,false,NA,true,8,4,NA,right,E28_Q4_ansL.png,E28_Q7_ansR.png,within,NA,NaN,NA,right,4365.799999952316,1,1,1546.8000000715256
tFoReWhc,NA,NA,tFoReWhc,2020-0188,2021-09-19,18:53:10,19:56:34,NA,incomplete,false,NA,true,8,5,NA,right,E18_Q4_ansR.png,E18_Q7_ansL.png,within,NA,NaN,NA,left,1506.5,0,1,1041.1000000238419
tFoReWhc,NA,NA,tFoReWhc,2020-0188,2021-09-19,18:53:10,19:56:34,NA,incomplete,false,NA,true,8,6,NA,left,E18_Q2_ansL.png,E18_Q1_ansL.png,within,NA,NaN,NA,left,1723.0999999046326,1,1,1097.3999999761581
tFoReWhc,NA,NA,tFoReWhc,2020-0188,2021-09-19,18:53:10,19:56:34,NA,incomplete,false,NA,true,8,7,NA,left,E18_Q5_ansR.png,E18_Q6_ansR.png,within,NA,NaN,NA,left,1494.6000000238419,1,1,1995.3999999761581
tFoReWhc,NA,NA,tFoReWhc,2020-0188,2021-09-19,18:53:10,19:56:34,NA,incomplete,false,NA,true,8,8,NA,right,E28_Q7_ansR.png,E28_Q1_ansR.png,within,NA,NaN,NA,right,1358.1999999284744,1,1,1201.8999999761581
tFoReWhc,NA,NA,tFoReWhc,2020-0188,2021-09-19,18:53:10,19:56:34,NA,incomplete,false,NA,true,8,9,NA,left,E18_Q10_ansL.png,E28_Q9_ansL.png,between,NA,NaN,NA,right,1835.7000000476837,0,0,1185.3999999761581
tFoReWhc,NA,NA,tFoReWhc,2020-0188,2021-09-19,18:53:10,19:56:34,NA,incomplete,false,NA,true,8,10,NA,left,E6_Q5_ansR.png,E6_Q10_ansL.png,within,NA,NaN,NA,left,2825.5,1,1,1025.1000000238419
tFoReWhc,NA,NA,tFoReWhc,2020-0188,2021-09-19,18:53:10,19:56:34,NA,incomplete,false,NA,true,8,11,NA,right,E28_Q8_ansR.png,E28_Q3_ansL.png,within,NA,NaN,NA,left,3638.2000000476837,0,1,1177.2999999523163
tFoReWhc,NA,NA,tFoReWhc,2020-0188,2021-09-19,18:53:10,19:56:34,NA,incomplete,false,NA,true,8,12,NA,right,E18_Q2_ansL.png,E6_Q3_ansR.png,between,NA,NaN,NA,right,1209.7000000476837,1,2,1497.5
tFoReWhc,NA,NA,tFoReWhc,2020-0188,2021-09-19,18:53:10,19:56:34,NA,incomplete,false,NA,true,8,13,NA,left,E18_Q1_ansL.png,E18_Q10_ansL.png,within,NA,NaN,NA,right,2793.600000023842,0,1,1370.1999999284744
tFoReWhc,NA,NA,tFoReWhc,2020-0188,2021-09-19,18:53:10,19:56:34,NA,incomplete,false,NA,true,8,14,NA,left,E18_Q4_ansR.png,E28_Q10_ansR.png,between,NA,NaN,NA,right,1710.8999999761581,0,1,1289.6999999284744
tFoReWhc,NA,NA,tFoReWhc,2020-0188,2021-09-19,18:53:10,19:56:34,NA,incomplete,false,NA,true,8,15,NA,right,E6_Q4_ansR.png,E6_Q2_ansL.png,within,NA,NaN,NA,left,989.2000000476837,0,1,1225.7000000476837
tFoReWhc,NA,NA,tFoReWhc,2020-0188,2021-09-19,18:53:10,19:56:34,NA,incomplete,false,NA,true,8,16,NA,right,E6_Q3_ansR.png,E6_Q10_ansL.png,within,NA,NaN,NA,left,2728.6999999284744,0,1,1281.7999999523163
tFoReWhc,NA,NA,tFoReWhc,2020-0188,2021-09-19,18:53:10,19:56:34,NA,incomplete,false,NA,true,8,17,NA,left,E28_Q9_ansL.png,E28_Q1_ansR.png,within,NA,NaN,NA,left,1234.7000000476837,1,1,1072.6999999284744
tFoReWhc,NA,NA,tFoReWhc,2020-0188,2021-09-19,18:53:10,19:56:34,NA,incomplete,false,NA,true,8,18,NA,right,E6_Q2_ansL.png,E6_Q8_ansL.png,within,NA,NaN,NA,right,3149.899999976158,1,1,3474.7999999523163
tFoReWhc,NA,NA,tFoReWhc,2020-0188,2021-09-19,18:53:10,19:56:34,NA,incomplete,false,NA,true,8,19,NA,right,E18_Q8_ansL.png,E6_Q9_ansL.png,between,NA,NaN,NA,right,3290.2000000476837,1,2,992.6000000238419
tFoReWhc,NA,NA,tFoReWhc,2020-0188,2021-09-19,18:53:10,19:56:34,NA,incomplete,false,NA,true,8,20,NA,right,E28_Q3_ansL.png,E28_Q5_ansL.png,within,NA,NaN,NA,right,1538.5,1,1,928.3999999761581
tFoReWhc,NA,NA,tFoReWhc,2020-0188,2021-09-19,18:53:10,19:56:34,NA,incomplete,false,NA,true,8,21,NA,left,E6_Q4_ansR.png,E6_Q1_ansL.png,within,NA,NaN,NA,left,921,1,1,1369.8000000715256
tFoReWhc,NA,NA,tFoReWhc,2020-0188,2021-09-19,18:53:10,19:56:34,NA,incomplete,false,NA,true,8,22,NA,left,E28_Q2_ansR.png,E28_Q6_ansL.png,within,NA,NaN,NA,left,873.6000000238419,1,1,984.1000000238419
tFoReWhc,NA,NA,tFoReWhc,2020-0188,2021-09-19,18:53:10,19:56:34,NA,incomplete,false,NA,true,8,23,NA,left,E6_Q6_ansR.png,E6_Q7_ansL.png,within,NA,NaN,NA,left,1333.9000000953674,1,1,1458.8999999761581
tFoReWhc,NA,NA,tFoReWhc,2020-0188,2021-09-19,18:53:10,19:56:34,NA,incomplete,false,NA,true,8,24,NA,left,E18_Q8_ansL.png,E18_Q3_ansR.png,within,NA,NaN,NA,right,2364.6999999284744,0,1,1097.3999999761581
tFoReWhc,NA,NA,tFoReWhc,2020-0188,2021-09-19,18:53:10,19:56:34,NA,incomplete,false,NA,true,8,25,NA,left,E6_Q1_ansL.png,E18_Q5_ansR.png,between,NA,NaN,NA,right,1089.6000000238419,0,2,2997
tFoReWhc,NA,NA,tFoReWhc,2020-0188,2021-09-19,18:53:10,19:56:34,NA,incomplete,false,NA,true,8,26,NA,right,E6_Q9_ansL.png,E6_Q7_ansL.png,within,NA,NaN,NA,left,3659,0,1,1024.6000000238419
tFoReWhc,NA,NA,tFoReWhc,2020-0188,2021-09-19,18:53:10,19:56:34,NA,incomplete,false,true,NA,9,0,E26_Q10_ansL.png,left,NA,NA,NA,right,2278.30000007153,false,NA,NA,NA,NA,NA
tFoReWhc,NA,NA,tFoReWhc,2020-0188,2021-09-19,18:53:10,19:56:34,NA,incomplete,false,true,NA,9,1,E26_Q5_ansR.png,right,NA,NA,NA,right,1643.59999990463,true,NA,NA,NA,NA,NA
tFoReWhc,NA,NA,tFoReWhc,2020-0188,2021-09-19,18:53:10,19:56:34,NA,incomplete,false,true,NA,9,2,E26_Q9_ansR.png,right,NA,NA,NA,right,1989.60000002384,true,NA,NA,NA,NA,NA
tFoReWhc,NA,NA,tFoReWhc,2020-0188,2021-09-19,18:53:10,19:56:34,NA,incomplete,false,true,NA,9,3,E26_Q7_ansL.png,left,NA,NA,NA,left,1041.5,true,NA,NA,NA,NA,NA
tFoReWhc,NA,NA,tFoReWhc,2020-0188,2021-09-19,18:53:10,19:56:34,NA,incomplete,false,true,NA,9,4,E26_Q1_ansL.png,left,NA,NA,NA,left,2104.79999995232,true,NA,NA,NA,NA,NA
tFoReWhc,NA,NA,tFoReWhc,2020-0188,2021-09-19,18:53:10,19:56:34,NA,incomplete,false,true,NA,9,5,E26_Q8_ansL.png,left,NA,NA,NA,left,2244.60000002384,true,NA,NA,NA,NA,NA
tFoReWhc,NA,NA,tFoReWhc,2020-0188,2021-09-19,18:53:10,19:56:34,NA,incomplete,false,true,NA,9,6,E26_Q4_ansR.png,right,NA,NA,NA,right,1092.5,true,NA,NA,NA,NA,NA
tFoReWhc,NA,NA,tFoReWhc,2020-0188,2021-09-19,18:53:10,19:56:34,NA,incomplete,false,true,NA,9,7,E26_Q2_ansL.png,left,NA,NA,NA,left,1459.60000002384,true,NA,NA,NA,NA,NA
tFoReWhc,NA,NA,tFoReWhc,2020-0188,2021-09-19,18:53:10,19:56:34,NA,incomplete,false,true,NA,9,8,E26_Q3_ansR.png,right,NA,NA,NA,right,1455.39999997616,true,NA,NA,NA,NA,NA
tFoReWhc,NA,NA,tFoReWhc,2020-0188,2021-09-19,18:53:10,19:56:34,NA,incomplete,false,true,NA,9,9,E26_Q6_ansR.png,right,NA,NA,NA,right,1665.20000004768,true,NA,NA,NA,NA,NA
tFoReWhc,NA,NA,tFoReWhc,2020-0188,2021-09-19,18:53:10,19:56:34,NA,incomplete,false,true,NA,9,10,E12_Q2_ansL.png,left,NA,NA,NA,left,2110.5,true,NA,NA,NA,NA,NA
tFoReWhc,NA,NA,tFoReWhc,2020-0188,2021-09-19,18:53:10,19:56:34,NA,incomplete,false,true,NA,9,11,E12_Q3_ansR.png,right,NA,NA,NA,right,1887.70000004768,true,NA,NA,NA,NA,NA
tFoReWhc,NA,NA,tFoReWhc,2020-0188,2021-09-19,18:53:10,19:56:34,NA,incomplete,false,true,NA,9,12,E12_Q6_ansR.png,right,NA,NA,NA,right,2241.5,true,NA,NA,NA,NA,NA
tFoReWhc,NA,NA,tFoReWhc,2020-0188,2021-09-19,18:53:10,19:56:34,NA,incomplete,false,true,NA,9,13,E12_Q7_ansL.png,left,NA,NA,NA,left,1358.5,true,NA,NA,NA,NA,NA
tFoReWhc,NA,NA,tFoReWhc,2020-0188,2021-09-19,18:53:10,19:56:34,NA,incomplete,false,true,NA,9,14,E12_Q10_ansL.png,left,NA,NA,NA,left,1829.20000004768,true,NA,NA,NA,NA,NA
tFoReWhc,NA,NA,tFoReWhc,2020-0188,2021-09-19,18:53:10,19:56:34,NA,incomplete,false,true,NA,9,15,E12_Q1_ansL.png,left,NA,NA,NA,left,927.300000071526,true,NA,NA,NA,NA,NA
tFoReWhc,NA,NA,tFoReWhc,2020-0188,2021-09-19,18:53:10,19:56:34,NA,incomplete,false,true,NA,9,16,E12_Q9_ansR.png,right,NA,NA,NA,right,1283.60000002384,true,NA,NA,NA,NA,NA
tFoReWhc,NA,NA,tFoReWhc,2020-0188,2021-09-19,18:53:10,19:56:34,NA,incomplete,false,true,NA,9,17,E12_Q5_ansR.png,right,NA,NA,NA,right,2202.10000002384,true,NA,NA,NA,NA,NA
tFoReWhc,NA,NA,tFoReWhc,2020-0188,2021-09-19,18:53:10,19:56:34,NA,incomplete,false,true,NA,9,18,E12_Q8_ansL.png,left,NA,NA,NA,left,1075.20000004768,true,NA,NA,NA,NA,NA
tFoReWhc,NA,NA,tFoReWhc,2020-0188,2021-09-19,18:53:10,19:56:34,NA,incomplete,false,true,NA,9,19,E12_Q4_ansR.png,right,NA,NA,NA,right,1082.89999997616,true,NA,NA,NA,NA,NA
tFoReWhc,NA,NA,tFoReWhc,2020-0188,2021-09-19,18:53:10,19:56:34,NA,incomplete,false,true,NA,9,20,E1_Q6_ansR.png,right,NA,NA,NA,right,2430.90000009537,true,NA,NA,NA,NA,NA
tFoReWhc,NA,NA,tFoReWhc,2020-0188,2021-09-19,18:53:10,19:56:34,NA,incomplete,false,true,NA,9,21,E1_Q9_ansL.png,left,NA,NA,NA,left,1524.20000004768,true,NA,NA,NA,NA,NA
tFoReWhc,NA,NA,tFoReWhc,2020-0188,2021-09-19,18:53:10,19:56:34,NA,incomplete,false,true,NA,9,22,E1_Q7_ansL.png,left,NA,NA,NA,left,979.800000071526,true,NA,NA,NA,NA,NA
tFoReWhc,NA,NA,tFoReWhc,2020-0188,2021-09-19,18:53:10,19:56:34,NA,incomplete,false,true,NA,9,23,E1_Q4_ansL.png,left,NA,NA,NA,left,1537.30000007153,true,NA,NA,NA,NA,NA
tFoReWhc,NA,NA,tFoReWhc,2020-0188,2021-09-19,18:53:10,19:56:34,NA,incomplete,false,true,NA,9,24,E1_Q5_ansR.png,right,NA,NA,NA,right,1361.69999992847,true,NA,NA,NA,NA,NA
tFoReWhc,NA,NA,tFoReWhc,2020-0188,2021-09-19,18:53:10,19:56:34,NA,incomplete,false,true,NA,9,25,E1_Q8_ansR.png,right,NA,NA,NA,right,1750.70000004768,true,NA,NA,NA,NA,NA
tFoReWhc,NA,NA,tFoReWhc,2020-0188,2021-09-19,18:53:10,19:56:34,NA,incomplete,false,true,NA,9,26,E1_Q2_ansL.png,left,NA,NA,NA,left,3176,true,NA,NA,NA,NA,NA
tFoReWhc,NA,NA,tFoReWhc,2020-0188,2021-09-19,18:53:10,19:56:34,NA,incomplete,false,true,NA,9,27,E1_Q3_ansR.png,right,NA,NA,NA,right,1884.5,true,NA,NA,NA,NA,NA
tFoReWhc,NA,NA,tFoReWhc,2020-0188,2021-09-19,18:53:10,19:56:34,NA,incomplete,false,true,NA,9,28,E1_Q10_ansR.png,right,NA,NA,NA,right,1014.10000002384,true,NA,NA,NA,NA,NA
tFoReWhc,NA,NA,tFoReWhc,2020-0188,2021-09-19,18:53:10,19:56:34,NA,incomplete,false,true,NA,9,29,E1_Q1_ansL.png,left,NA,NA,NA,right,2294.79999995232,false,NA,NA,NA,NA,NA
tFoReWhc,NA,NA,tFoReWhc,2020-0188,2021-09-19,18:53:10,19:56:34,NA,incomplete,false,NA,true,9,0,NA,left,E12_Q2_ansL.png,E12_Q7_ansL.png,within,NA,NaN,NA,left,1681.7000000476837,1,0,1183.2000000476837
tFoReWhc,NA,NA,tFoReWhc,2020-0188,2021-09-19,18:53:10,19:56:34,NA,incomplete,false,NA,true,9,1,NA,right,E12_Q6_ansR.png,E26_Q6_ansR.png,between,NA,NaN,NA,right,1797.1000000238419,1,1,1185.3000000715256
tFoReWhc,NA,NA,tFoReWhc,2020-0188,2021-09-19,18:53:10,19:56:34,NA,incomplete,false,NA,true,9,2,NA,left,E12_Q9_ansR.png,E12_Q4_ansR.png,within,NA,NaN,NA,right,4652.299999952316,0,1,1554.1999999284744
tFoReWhc,NA,NA,tFoReWhc,2020-0188,2021-09-19,18:53:10,19:56:34,NA,incomplete,false,NA,true,9,3,NA,right,E12_Q8_ansL.png,E12_Q1_ansL.png,within,NA,NaN,NA,right,4539.899999976158,1,0,944.2000000476837
tFoReWhc,NA,NA,tFoReWhc,2020-0188,2021-09-19,18:53:10,19:56:34,NA,incomplete,false,NA,true,9,4,NA,right,E26_Q4_ansR.png,E26_Q7_ansL.png,within,NA,NaN,NA,left,1405.6000000238419,0,1,1545.3999999761581
tFoReWhc,NA,NA,tFoReWhc,2020-0188,2021-09-19,18:53:10,19:56:34,NA,incomplete,false,NA,true,9,5,NA,left,E1_Q6_ansR.png,E1_Q4_ansL.png,within,NA,NaN,NA,left,1321.6000000238419,1,1,1321.3999999761581
tFoReWhc,NA,NA,tFoReWhc,2020-0188,2021-09-19,18:53:10,19:56:34,NA,incomplete,false,NA,true,9,6,NA,right,E12_Q5_ansR.png,E12_Q10_ansL.png,within,NA,NaN,NA,left,956.6000000238419,0,0,1040.7000000476837
tFoReWhc,NA,NA,tFoReWhc,2020-0188,2021-09-19,18:53:10,19:56:34,NA,incomplete,false,NA,true,9,7,NA,left,E12_Q4_ansR.png,E1_Q7_ansL.png,between,NA,NaN,NA,left,1069.2000000476837,1,2,1617.8000000715256
tFoReWhc,NA,NA,tFoReWhc,2020-0188,2021-09-19,18:53:10,19:56:34,NA,incomplete,false,NA,true,9,8,NA,left,E26_Q5_ansR.png,E26_Q1_ansL.png,within,NA,NaN,NA,left,1709.8999999761581,1,0,2864.899999976158
tFoReWhc,NA,NA,tFoReWhc,2020-0188,2021-09-19,18:53:10,19:56:34,NA,incomplete,false,NA,true,9,9,NA,right,E1_Q8_ansR.png,E1_Q7_ansL.png,within,NA,NaN,NA,right,1770.8999999761581,1,1,1990.1999999284744
tFoReWhc,NA,NA,tFoReWhc,2020-0188,2021-09-19,18:53:10,19:56:34,NA,incomplete,false,NA,true,9,10,NA,left,E26_Q1_ansL.png,E26_Q2_ansL.png,within,NA,NaN,NA,right,3124.4000000953674,0,1,984.1000000238419
tFoReWhc,NA,NA,tFoReWhc,2020-0188,2021-09-19,18:53:10,19:56:34,NA,incomplete,false,NA,true,9,11,NA,left,E12_Q5_ansR.png,E1_Q6_ansR.png,between,NA,NaN,NA,left,1109.0999999046326,1,2,1986.2000000476837
tFoReWhc,NA,NA,tFoReWhc,2020-0188,2021-09-19,18:53:10,19:56:34,NA,incomplete,false,NA,true,9,12,NA,right,E12_Q9_ansR.png,E12_Q7_ansL.png,within,NA,NaN,NA,right,2643.100000023842,1,1,1176.3000000715256
tFoReWhc,NA,NA,tFoReWhc,2020-0188,2021-09-19,18:53:10,19:56:34,NA,incomplete,false,NA,true,9,13,NA,right,E1_Q3_ansR.png,E1_Q5_ansR.png,within,NA,NaN,NA,left,2142.399999976158,0,1,1456.5
