workerId,hitId,assignmentId,subject,studyid,exp_date,exp_start,exp_end,time_start,time_end,practice,encoding,memory,block,trial,stim,answer,left_image,right_image,condition,response,response_time,response_acc,order_response,order_response_time,order_acc,distance_response,distance_response_time
uetQJPmK,NA,NA,uetQJPmK,2020-0188,2021-11-11,10:12:36,11:17:52,NA,incomplete,true,true,NA,0,0,E21_Q9_ansR.png,right,NA,NA,NA,right,1965,true,NA,NA,NA,NA,NA
uetQJPmK,NA,NA,uetQJPmK,2020-0188,2021-11-11,10:12:36,11:17:52,NA,incomplete,true,true,NA,0,1,E21_Q6_ansR.png,right,NA,NA,NA,right,1113,true,NA,NA,NA,NA,NA
uetQJPmK,NA,NA,uetQJPmK,2020-0188,2021-11-11,10:12:36,11:17:52,NA,incomplete,true,true,NA,0,2,E21_Q8_ansL.png,left,NA,NA,NA,left,1001,true,NA,NA,NA,NA,NA
uetQJPmK,NA,NA,uetQJPmK,2020-0188,2021-11-11,10:12:36,11:17:52,NA,incomplete,true,true,NA,0,3,E21_Q3_ansR.png,right,NA,NA,NA,right,704,true,NA,NA,NA,NA,NA
uetQJPmK,NA,NA,uetQJPmK,2020-0188,2021-11-11,10:12:36,11:17:52,NA,incomplete,true,true,NA,0,4,E21_Q5_ansR.png,right,NA,NA,NA,right,874,true,NA,NA,NA,NA,NA
uetQJPmK,NA,NA,uetQJPmK,2020-0188,2021-11-11,10:12:36,11:17:52,NA,incomplete,true,true,NA,0,5,E21_Q1_ansL.png,left,NA,NA,NA,left,850,true,NA,NA,NA,NA,NA
uetQJPmK,NA,NA,uetQJPmK,2020-0188,2021-11-11,10:12:36,11:17:52,NA,incomplete,true,true,NA,0,6,E21_Q10_ansL.png,left,NA,NA,NA,left,801,true,NA,NA,NA,NA,NA
uetQJPmK,NA,NA,uetQJPmK,2020-0188,2021-11-11,10:12:36,11:17:52,NA,incomplete,true,true,NA,0,7,E21_Q2_ansL.png,left,NA,NA,NA,left,841,true,NA,NA,NA,NA,NA
uetQJPmK,NA,NA,uetQJPmK,2020-0188,2021-11-11,10:12:36,11:17:52,NA,incomplete,true,true,NA,0,8,E21_Q4_ansR.png,right,NA,NA,NA,right,726,true,NA,NA,NA,NA,NA
uetQJPmK,NA,NA,uetQJPmK,2020-0188,2021-11-11,10:12:36,11:17:52,NA,incomplete,true,true,NA,0,9,E21_Q7_ansL.png,left,NA,NA,NA,left,785,true,NA,NA,NA,NA,NA
uetQJPmK,NA,NA,uetQJPmK,2020-0188,2021-11-11,10:12:36,11:17:52,NA,incomplete,true,true,NA,0,10,E17_Q3_ansR.png,right,NA,NA,NA,right,1261,true,NA,NA,NA,NA,NA
uetQJPmK,NA,NA,uetQJPmK,2020-0188,2021-11-11,10:12:36,11:17:52,NA,incomplete,true,true,NA,0,11,E17_Q2_ansL.png,left,NA,NA,NA,left,1032,true,NA,NA,NA,NA,NA
uetQJPmK,NA,NA,uetQJPmK,2020-0188,2021-11-11,10:12:36,11:17:52,NA,incomplete,true,true,NA,0,12,E17_Q8_ansL.png,left,NA,NA,NA,left,907,true,NA,NA,NA,NA,NA
uetQJPmK,NA,NA,uetQJPmK,2020-0188,2021-11-11,10:12:36,11:17:52,NA,incomplete,true,true,NA,0,13,E17_Q5_ansR.png,right,NA,NA,NA,right,938,true,NA,NA,NA,NA,NA
uetQJPmK,NA,NA,uetQJPmK,2020-0188,2021-11-11,10:12:36,11:17:52,NA,incomplete,true,true,NA,0,14,E17_Q10_ansL.png,left,NA,NA,NA,left,1078,true,NA,NA,NA,NA,NA
uetQJPmK,NA,NA,uetQJPmK,2020-0188,2021-11-11,10:12:36,11:17:52,NA,incomplete,true,true,NA,0,15,E17_Q7_ansL.png,left,NA,NA,NA,left,897,true,NA,NA,NA,NA,NA
uetQJPmK,NA,NA,uetQJPmK,2020-0188,2021-11-11,10:12:36,11:17:52,NA,incomplete,true,true,NA,0,16,E17_Q6_ansR.png,right,NA,NA,NA,right,851,true,NA,NA,NA,NA,NA
uetQJPmK,NA,NA,uetQJPmK,2020-0188,2021-11-11,10:12:36,11:17:52,NA,incomplete,true,true,NA,0,17,E17_Q1_ansL.png,left,NA,NA,NA,right,978,false,NA,NA,NA,NA,NA
uetQJPmK,NA,NA,uetQJPmK,2020-0188,2021-11-11,10:12:36,11:17:52,NA,incomplete,true,true,NA,0,18,E17_Q4_ansR.png,right,NA,NA,NA,right,977,true,NA,NA,NA,NA,NA
uetQJPmK,NA,NA,uetQJPmK,2020-0188,2021-11-11,10:12:36,11:17:52,NA,incomplete,true,true,NA,0,19,E17_Q9_ansR.png,right,NA,NA,NA,right,982,true,NA,NA,NA,NA,NA
uetQJPmK,NA,NA,uetQJPmK,2020-0188,2021-11-11,10:12:36,11:17:52,NA,incomplete,true,true,NA,0,20,E24_Q3_ansL.png,left,NA,NA,NA,left,1538,true,NA,NA,NA,NA,NA
uetQJPmK,NA,NA,uetQJPmK,2020-0188,2021-11-11,10:12:36,11:17:52,NA,incomplete,true,true,NA,0,21,E24_Q5_ansL.png,left,NA,NA,NA,left,1944,true,NA,NA,NA,NA,NA
uetQJPmK,NA,NA,uetQJPmK,2020-0188,2021-11-11,10:12:36,11:17:52,NA,incomplete,true,true,NA,0,22,E24_Q9_ansL.png,left,NA,NA,NA,left,1280,true,NA,NA,NA,NA,NA
uetQJPmK,NA,NA,uetQJPmK,2020-0188,2021-11-11,10:12:36,11:17:52,NA,incomplete,true,true,NA,0,23,E24_Q2_ansR.png,right,NA,NA,NA,right,2357,true,NA,NA,NA,NA,NA
uetQJPmK,NA,NA,uetQJPmK,2020-0188,2021-11-11,10:12:36,11:17:52,NA,incomplete,true,true,NA,0,24,E24_Q6_ansL.png,left,NA,NA,NA,left,1048,true,NA,NA,NA,NA,NA
uetQJPmK,NA,NA,uetQJPmK,2020-0188,2021-11-11,10:12:36,11:17:52,NA,incomplete,true,true,NA,0,25,E24_Q8_ansR.png,right,NA,NA,NA,right,1543,true,NA,NA,NA,NA,NA
uetQJPmK,NA,NA,uetQJPmK,2020-0188,2021-11-11,10:12:36,11:17:52,NA,incomplete,true,true,NA,0,26,E24_Q10_ansR.png,right,NA,NA,NA,right,921,true,NA,NA,NA,NA,NA
uetQJPmK,NA,NA,uetQJPmK,2020-0188,2021-11-11,10:12:36,11:17:52,NA,incomplete,true,true,NA,0,27,E24_Q4_ansL.png,left,NA,NA,NA,left,995,true,NA,NA,NA,NA,NA
uetQJPmK,NA,NA,uetQJPmK,2020-0188,2021-11-11,10:12:36,11:17:52,NA,incomplete,true,true,NA,0,28,E24_Q1_ansR.png,right,NA,NA,NA,right,1056,true,NA,NA,NA,NA,NA
uetQJPmK,NA,NA,uetQJPmK,2020-0188,2021-11-11,10:12:36,11:17:52,NA,incomplete,true,true,NA,0,29,E24_Q7_ansR.png,right,NA,NA,NA,right,1114,true,NA,NA,NA,NA,NA
uetQJPmK,NA,NA,uetQJPmK,2020-0188,2021-11-11,10:12:36,11:17:52,NA,incomplete,true,NA,true,0,0,NA,left,E17_Q6_ansR.png,E17_Q9_ansR.png,within,NA,NaN,NA,right,3890,0,1,3848
uetQJPmK,NA,NA,uetQJPmK,2020-0188,2021-11-11,10:12:36,11:17:52,NA,incomplete,true,NA,true,0,1,NA,left,E21_Q7_ansL.png,E17_Q8_ansL.png,between,NA,NaN,NA,left,2458,1,2,1301
uetQJPmK,NA,NA,uetQJPmK,2020-0188,2021-11-11,10:12:36,11:17:52,NA,incomplete,true,NA,true,0,2,NA,right,E21_Q3_ansR.png,E21_Q9_ansR.png,within,NA,NaN,NA,right,2655,1,0,1284
uetQJPmK,NA,NA,uetQJPmK,2020-0188,2021-11-11,10:12:36,11:17:52,NA,incomplete,true,NA,true,0,3,NA,right,E17_Q10_ansL.png,E17_Q2_ansL.png,within,NA,NaN,NA,right,3638,1,1,1928
uetQJPmK,NA,NA,uetQJPmK,2020-0188,2021-11-11,10:12:36,11:17:52,NA,incomplete,true,NA,true,0,4,NA,right,E17_Q5_ansR.png,E17_Q3_ansR.png,within,NA,NaN,NA,right,2784,1,0,1271
uetQJPmK,NA,NA,uetQJPmK,2020-0188,2021-11-11,10:12:36,11:17:52,NA,incomplete,true,NA,true,0,5,NA,right,E21_Q7_ansL.png,E21_Q10_ansL.png,within,NA,NaN,NA,left,2248,0,0,1246
uetQJPmK,NA,NA,uetQJPmK,2020-0188,2021-11-11,10:12:36,11:17:52,NA,incomplete,true,NA,true,0,6,NA,right,E24_Q3_ansL.png,E17_Q1_ansL.png,between,NA,NaN,NA,right,1923,1,2,1220
uetQJPmK,NA,NA,uetQJPmK,2020-0188,2021-11-11,10:12:36,11:17:52,NA,incomplete,true,NA,true,0,7,NA,left,E21_Q1_ansL.png,E21_Q4_ansR.png,within,NA,NaN,NA,right,2668,0,1,1325
uetQJPmK,NA,NA,uetQJPmK,2020-0188,2021-11-11,10:12:36,11:17:52,NA,incomplete,true,NA,true,0,8,NA,left,E17_Q10_ansL.png,E17_Q1_ansL.png,within,NA,NaN,NA,right,3311,0,1,2199
uetQJPmK,NA,NA,uetQJPmK,2020-0188,2021-11-11,10:12:36,11:17:52,NA,incomplete,true,NA,true,0,9,NA,left,E24_Q9_ansL.png,E24_Q8_ansR.png,within,NA,NaN,NA,left,3955,1,0,1125
uetQJPmK,NA,NA,uetQJPmK,2020-0188,2021-11-11,10:12:36,11:17:52,NA,incomplete,true,NA,true,0,10,NA,left,E24_Q8_ansR.png,E24_Q1_ansR.png,within,NA,NaN,NA,left,3332,1,0,1683
uetQJPmK,NA,NA,uetQJPmK,2020-0188,2021-11-11,10:12:36,11:17:52,NA,incomplete,true,NA,true,0,11,NA,right,E24_Q4_ansL.png,E24_Q6_ansL.png,within,NA,NaN,NA,right,2751,1,0,1448
uetQJPmK,NA,NA,uetQJPmK,2020-0188,2021-11-11,10:12:36,11:17:52,NA,incomplete,true,NA,true,0,12,NA,right,E24_Q6_ansL.png,E24_Q5_ansL.png,within,NA,NaN,NA,right,2290,1,0,1059
uetQJPmK,NA,NA,uetQJPmK,2020-0188,2021-11-11,10:12:36,11:17:52,NA,incomplete,true,NA,true,0,13,NA,left,E21_Q4_ansR.png,E17_Q2_ansL.png,between,NA,NaN,NA,left,2046,1,2,1037
uetQJPmK,NA,NA,uetQJPmK,2020-0188,2021-11-11,10:12:36,11:17:52,NA,incomplete,true,NA,true,0,14,NA,left,E24_Q3_ansL.png,E24_Q2_ansR.png,within,NA,NaN,NA,left,3129,1,1,1010
uetQJPmK,NA,NA,uetQJPmK,2020-0188,2021-11-11,10:12:36,11:17:52,NA,incomplete,true,NA,true,0,15,NA,left,E17_Q5_ansR.png,E17_Q6_ansR.png,within,NA,NaN,NA,left,4051,1,0,1437
uetQJPmK,NA,NA,uetQJPmK,2020-0188,2021-11-11,10:12:36,11:17:52,NA,incomplete,true,NA,true,0,16,NA,left,E17_Q9_ansR.png,E24_Q9_ansL.png,between,NA,NaN,NA,left,2420,1,2,1212
uetQJPmK,NA,NA,uetQJPmK,2020-0188,2021-11-11,10:12:36,11:17:52,NA,incomplete,true,NA,true,0,17,NA,right,E24_Q7_ansR.png,E24_Q10_ansR.png,within,NA,NaN,NA,right,4220,1,1,1555
uetQJPmK,NA,NA,uetQJPmK,2020-0188,2021-11-11,10:12:36,11:17:52,NA,incomplete,true,NA,true,0,18,NA,left,E17_Q8_ansL.png,E17_Q7_ansL.png,within,NA,NaN,NA,left,2977,1,1,1215
uetQJPmK,NA,NA,uetQJPmK,2020-0188,2021-11-11,10:12:36,11:17:52,NA,incomplete,true,NA,true,0,19,NA,left,E24_Q2_ansR.png,E24_Q10_ansR.png,within,NA,NaN,NA,left,2341,1,0,1116
uetQJPmK,NA,NA,uetQJPmK,2020-0188,2021-11-11,10:12:36,11:17:52,NA,incomplete,true,NA,true,0,20,NA,right,E17_Q4_ansR.png,E17_Q7_ansL.png,within,NA,NaN,NA,right,7697,1,1,1043
uetQJPmK,NA,NA,uetQJPmK,2020-0188,2021-11-11,10:12:36,11:17:52,NA,incomplete,true,NA,true,0,21,NA,right,E21_Q10_ansL.png,E21_Q3_ansR.png,within,NA,NaN,NA,right,2069,1,0,1407
uetQJPmK,NA,NA,uetQJPmK,2020-0188,2021-11-11,10:12:36,11:17:52,NA,incomplete,true,NA,true,0,22,NA,right,E24_Q5_ansL.png,E17_Q4_ansR.png,between,NA,NaN,NA,right,2021,1,2,1798
uetQJPmK,NA,NA,uetQJPmK,2020-0188,2021-11-11,10:12:36,11:17:52,NA,incomplete,true,NA,true,0,23,NA,right,E21_Q5_ansR.png,E21_Q6_ansR.png,within,NA,NaN,NA,left,1984,0,1,1228
uetQJPmK,NA,NA,uetQJPmK,2020-0188,2021-11-11,10:12:36,11:17:52,NA,incomplete,true,NA,true,0,24,NA,left,E21_Q8_ansL.png,E21_Q1_ansL.png,within,NA,NaN,NA,right,1649,0,1,1020
uetQJPmK,NA,NA,uetQJPmK,2020-0188,2021-11-11,10:12:36,11:17:52,NA,incomplete,true,NA,true,0,25,NA,right,E17_Q3_ansR.png,E21_Q2_ansL.png,between,NA,NaN,NA,right,2017,1,2,1693
uetQJPmK,NA,NA,uetQJPmK,2020-0188,2021-11-11,10:12:36,11:17:52,NA,incomplete,true,NA,true,0,26,NA,left,E21_Q5_ansR.png,E21_Q2_ansL.png,within,NA,NaN,NA,right,2406,0,1,1120
uetQJPmK,NA,NA,uetQJPmK,2020-0188,2021-11-11,10:12:36,11:17:52,NA,incomplete,false,true,NA,1,0,E22_Q4_ansL.png,left,NA,NA,NA,left,2833,true,NA,NA,NA,NA,NA
uetQJPmK,NA,NA,uetQJPmK,2020-0188,2021-11-11,10:12:36,11:17:52,NA,incomplete,false,true,NA,1,1,E22_Q10_ansR.png,right,NA,NA,NA,right,786,true,NA,NA,NA,NA,NA
uetQJPmK,NA,NA,uetQJPmK,2020-0188,2021-11-11,10:12:36,11:17:52,NA,incomplete,false,true,NA,1,2,E22_Q8_ansR.png,right,NA,NA,NA,right,1229,true,NA,NA,NA,NA,NA
uetQJPmK,NA,NA,uetQJPmK,2020-0188,2021-11-11,10:12:36,11:17:52,NA,incomplete,false,true,NA,1,3,E22_Q6_ansL.png,left,NA,NA,NA,left,904,true,NA,NA,NA,NA,NA
uetQJPmK,NA,NA,uetQJPmK,2020-0188,2021-11-11,10:12:36,11:17:52,NA,incomplete,false,true,NA,1,4,E22_Q5_ansL.png,left,NA,NA,NA,left,1074,true,NA,NA,NA,NA,NA
uetQJPmK,NA,NA,uetQJPmK,2020-0188,2021-11-11,10:12:36,11:17:52,NA,incomplete,false,true,NA,1,5,E22_Q3_ansL.png,left,NA,NA,NA,left,1476,true,NA,NA,NA,NA,NA
uetQJPmK,NA,NA,uetQJPmK,2020-0188,2021-11-11,10:12:36,11:17:52,NA,incomplete,false,true,NA,1,6,E22_Q1_ansR.png,right,NA,NA,NA,right,971,true,NA,NA,NA,NA,NA
uetQJPmK,NA,NA,uetQJPmK,2020-0188,2021-11-11,10:12:36,11:17:52,NA,incomplete,false,true,NA,1,7,E22_Q7_ansR.png,right,NA,NA,NA,right,1240,true,NA,NA,NA,NA,NA
uetQJPmK,NA,NA,uetQJPmK,2020-0188,2021-11-11,10:12:36,11:17:52,NA,incomplete,false,true,NA,1,8,E22_Q2_ansR.png,right,NA,NA,NA,right,897,true,NA,NA,NA,NA,NA
uetQJPmK,NA,NA,uetQJPmK,2020-0188,2021-11-11,10:12:36,11:17:52,NA,incomplete,false,true,NA,1,9,E22_Q9_ansL.png,left,NA,NA,NA,left,1180,true,NA,NA,NA,NA,NA
uetQJPmK,NA,NA,uetQJPmK,2020-0188,2021-11-11,10:12:36,11:17:52,NA,incomplete,false,true,NA,1,10,E4_Q2_ansL.png,left,NA,NA,NA,left,1615,true,NA,NA,NA,NA,NA
uetQJPmK,NA,NA,uetQJPmK,2020-0188,2021-11-11,10:12:36,11:17:52,NA,incomplete,false,true,NA,1,11,E4_Q7_ansR.png,right,NA,NA,NA,right,1590,true,NA,NA,NA,NA,NA
uetQJPmK,NA,NA,uetQJPmK,2020-0188,2021-11-11,10:12:36,11:17:52,NA,incomplete,false,true,NA,1,12,E4_Q9_ansL.png,left,NA,NA,NA,left,952,true,NA,NA,NA,NA,NA
uetQJPmK,NA,NA,uetQJPmK,2020-0188,2021-11-11,10:12:36,11:17:52,NA,incomplete,false,true,NA,1,13,E4_Q10_ansR.png,right,NA,NA,NA,right,1133,true,NA,NA,NA,NA,NA
uetQJPmK,NA,NA,uetQJPmK,2020-0188,2021-11-11,10:12:36,11:17:52,NA,incomplete,false,true,NA,1,14,E4_Q1_ansL.png,left,NA,NA,NA,left,1016,true,NA,NA,NA,NA,NA
uetQJPmK,NA,NA,uetQJPmK,2020-0188,2021-11-11,10:12:36,11:17:52,NA,incomplete,false,true,NA,1,15,E4_Q8_ansR.png,right,NA,NA,NA,right,1099,true,NA,NA,NA,NA,NA
uetQJPmK,NA,NA,uetQJPmK,2020-0188,2021-11-11,10:12:36,11:17:52,NA,incomplete,false,true,NA,1,16,E4_Q5_ansR.png,right,NA,NA,NA,right,1281,true,NA,NA,NA,NA,NA
uetQJPmK,NA,NA,uetQJPmK,2020-0188,2021-11-11,10:12:36,11:17:52,NA,incomplete,false,true,NA,1,17,E4_Q3_ansL.png,left,NA,NA,NA,left,1043,true,NA,NA,NA,NA,NA
uetQJPmK,NA,NA,uetQJPmK,2020-0188,2021-11-11,10:12:36,11:17:52,NA,incomplete,false,true,NA,1,18,E4_Q4_ansL.png,left,NA,NA,NA,left,995,true,NA,NA,NA,NA,NA
uetQJPmK,NA,NA,uetQJPmK,2020-0188,2021-11-11,10:12:36,11:17:52,NA,incomplete,false,true,NA,1,19,E4_Q6_ansR.png,right,NA,NA,NA,right,1140,true,NA,NA,NA,NA,NA
uetQJPmK,NA,NA,uetQJPmK,2020-0188,2021-11-11,10:12:36,11:17:52,NA,incomplete,false,true,NA,1,20,E16_Q1_ansR.png,right,NA,NA,NA,right,2670,true,NA,NA,NA,NA,NA
uetQJPmK,NA,NA,uetQJPmK,2020-0188,2021-11-11,10:12:36,11:17:52,NA,incomplete,false,true,NA,1,21,E16_Q2_ansR.png,right,NA,NA,NA,none,0,false,NA,NA,NA,NA,NA
uetQJPmK,NA,NA,uetQJPmK,2020-0188,2021-11-11,10:12:36,11:17:52,NA,incomplete,false,true,NA,1,22,E16_Q7_ansR.png,right,NA,NA,NA,left,1373,false,NA,NA,NA,NA,NA
uetQJPmK,NA,NA,uetQJPmK,2020-0188,2021-11-11,10:12:36,11:17:52,NA,incomplete,false,true,NA,1,23,E16_Q8_ansR.png,right,NA,NA,NA,right,940,true,NA,NA,NA,NA,NA
uetQJPmK,NA,NA,uetQJPmK,2020-0188,2021-11-11,10:12:36,11:17:52,NA,incomplete,false,true,NA,1,24,E16_Q5_ansL.png,left,NA,NA,NA,left,1153,true,NA,NA,NA,NA,NA
uetQJPmK,NA,NA,uetQJPmK,2020-0188,2021-11-11,10:12:36,11:17:52,NA,incomplete,false,true,NA,1,25,E16_Q6_ansL.png,left,NA,NA,NA,left,838,true,NA,NA,NA,NA,NA
uetQJPmK,NA,NA,uetQJPmK,2020-0188,2021-11-11,10:12:36,11:17:52,NA,incomplete,false,true,NA,1,26,E16_Q4_ansL.png,left,NA,NA,NA,left,995,true,NA,NA,NA,NA,NA
uetQJPmK,NA,NA,uetQJPmK,2020-0188,2021-11-11,10:12:36,11:17:52,NA,incomplete,false,true,NA,1,27,E16_Q10_ansR.png,right,NA,NA,NA,right,1604,true,NA,NA,NA,NA,NA
uetQJPmK,NA,NA,uetQJPmK,2020-0188,2021-11-11,10:12:36,11:17:52,NA,incomplete,false,true,NA,1,28,E16_Q9_ansL.png,left,NA,NA,NA,left,840,true,NA,NA,NA,NA,NA
uetQJPmK,NA,NA,uetQJPmK,2020-0188,2021-11-11,10:12:36,11:17:52,NA,incomplete,false,true,NA,1,29,E16_Q3_ansL.png,left,NA,NA,NA,left,710,true,NA,NA,NA,NA,NA
uetQJPmK,NA,NA,uetQJPmK,2020-0188,2021-11-11,10:12:36,11:17:52,NA,incomplete,false,NA,true,1,0,NA,right,E4_Q2_ansL.png,E22_Q7_ansR.png,between,NA,NaN,NA,right,2489,1,1,1490
uetQJPmK,NA,NA,uetQJPmK,2020-0188,2021-11-11,10:12:36,11:17:52,NA,incomplete,false,NA,true,1,1,NA,left,E22_Q4_ansL.png,E22_Q6_ansL.png,within,NA,NaN,NA,left,2280,1,0,1317
uetQJPmK,NA,NA,uetQJPmK,2020-0188,2021-11-11,10:12:36,11:17:52,NA,incomplete,false,NA,true,1,2,NA,left,E4_Q1_ansL.png,E4_Q3_ansL.png,within,NA,NaN,NA,right,3549,0,0,955
uetQJPmK,NA,NA,uetQJPmK,2020-0188,2021-11-11,10:12:36,11:17:52,NA,incomplete,false,NA,true,1,3,NA,left,E22_Q5_ansL.png,E22_Q7_ansR.png,within,NA,NaN,NA,right,5302,0,0,865
uetQJPmK,NA,NA,uetQJPmK,2020-0188,2021-11-11,10:12:36,11:17:52,NA,incomplete,false,NA,true,1,4,NA,right,E4_Q9_ansL.png,E22_Q9_ansL.png,between,NA,NaN,NA,right,2498,1,1,948
uetQJPmK,NA,NA,uetQJPmK,2020-0188,2021-11-11,10:12:36,11:17:52,NA,incomplete,false,NA,true,1,5,NA,left,E22_Q6_ansL.png,E22_Q1_ansR.png,within,NA,NaN,NA,left,2765,1,0,1043
uetQJPmK,NA,NA,uetQJPmK,2020-0188,2021-11-11,10:12:36,11:17:52,NA,incomplete,false,NA,true,1,6,NA,right,E22_Q5_ansL.png,E22_Q10_ansR.png,within,NA,NaN,NA,right,1859,1,0,1590
uetQJPmK,NA,NA,uetQJPmK,2020-0188,2021-11-11,10:12:36,11:17:52,NA,incomplete,false,NA,true,1,7,NA,right,E4_Q6_ansR.png,E4_Q5_ansR.png,within,NA,NaN,NA,right,4585,1,0,1228
uetQJPmK,NA,NA,uetQJPmK,2020-0188,2021-11-11,10:12:36,11:17:52,NA,incomplete,false,NA,true,1,8,NA,right,E4_Q8_ansR.png,E4_Q9_ansL.png,within,NA,NaN,NA,right,2280,1,0,888
uetQJPmK,NA,NA,uetQJPmK,2020-0188,2021-11-11,10:12:36,11:17:52,NA,incomplete,false,NA,true,1,9,NA,right,E4_Q10_ansR.png,E4_Q2_ansL.png,within,NA,NaN,NA,right,1423,1,0,1122
uetQJPmK,NA,NA,uetQJPmK,2020-0188,2021-11-11,10:12:36,11:17:52,NA,incomplete,false,NA,true,1,10,NA,left,E16_Q6_ansL.png,E16_Q9_ansL.png,within,NA,NaN,NA,right,2246,0,0,1551
uetQJPmK,NA,NA,uetQJPmK,2020-0188,2021-11-11,10:12:36,11:17:52,NA,incomplete,false,NA,true,1,11,NA,right,E22_Q3_ansL.png,E22_Q8_ansR.png,within,NA,NaN,NA,right,2952,1,0,864
uetQJPmK,NA,NA,uetQJPmK,2020-0188,2021-11-11,10:12:36,11:17:52,NA,incomplete,false,NA,true,1,12,NA,right,E16_Q3_ansL.png,E16_Q4_ansL.png,within,NA,NaN,NA,right,4162,1,0,1017
uetQJPmK,NA,NA,uetQJPmK,2020-0188,2021-11-11,10:12:36,11:17:52,NA,incomplete,false,NA,true,1,13,NA,right,E16_Q1_ansR.png,E4_Q3_ansL.png,between,NA,NaN,NA,right,4199,1,1,938
uetQJPmK,NA,NA,uetQJPmK,2020-0188,2021-11-11,10:12:36,11:17:52,NA,incomplete,false,NA,true,1,14,NA,left,E22_Q2_ansR.png,E4_Q7_ansR.png,between,NA,NaN,NA,left,2004,1,2,929
uetQJPmK,NA,NA,uetQJPmK,2020-0188,2021-11-11,10:12:36,11:17:52,NA,incomplete,false,NA,true,1,15,NA,right,E16_Q10_ansR.png,E16_Q5_ansL.png,within,NA,NaN,NA,right,2884,1,0,1026
uetQJPmK,NA,NA,uetQJPmK,2020-0188,2021-11-11,10:12:36,11:17:52,NA,incomplete,false,NA,true,1,16,NA,left,E16_Q1_ansR.png,E16_Q8_ansR.png,within,NA,NaN,NA,left,2628,1,0,1051
uetQJPmK,NA,NA,uetQJPmK,2020-0188,2021-11-11,10:12:36,11:17:52,NA,incomplete,false,NA,true,1,17,NA,right,E4_Q1_ansL.png,E4_Q7_ansR.png,within,NA,NaN,NA,right,3111,1,0,1335
uetQJPmK,NA,NA,uetQJPmK,2020-0188,2021-11-11,10:12:36,11:17:52,NA,incomplete,false,NA,true,1,18,NA,left,E16_Q8_ansR.png,E16_Q4_ansL.png,within,NA,NaN,NA,left,2715,1,0,905
uetQJPmK,NA,NA,uetQJPmK,2020-0188,2021-11-11,10:12:36,11:17:52,NA,incomplete,false,NA,true,1,19,NA,right,E16_Q7_ansR.png,E4_Q6_ansR.png,between,NA,NaN,NA,right,2150,1,2,2230
uetQJPmK,NA,NA,uetQJPmK,2020-0188,2021-11-11,10:12:36,11:17:52,NA,incomplete,false,NA,true,1,20,NA,left,E4_Q8_ansR.png,E4_Q4_ansL.png,within,NA,NaN,NA,left,3282,1,0,791
uetQJPmK,NA,NA,uetQJPmK,2020-0188,2021-11-11,10:12:36,11:17:52,NA,incomplete,false,NA,true,1,21,NA,right,E16_Q6_ansL.png,E16_Q7_ansR.png,within,NA,NaN,NA,left,3990,0,0,1093
uetQJPmK,NA,NA,uetQJPmK,2020-0188,2021-11-11,10:12:36,11:17:52,NA,incomplete,false,NA,true,1,22,NA,left,E22_Q1_ansR.png,E22_Q9_ansL.png,within,NA,NaN,NA,right,2636,0,0,1763
uetQJPmK,NA,NA,uetQJPmK,2020-0188,2021-11-11,10:12:36,11:17:52,NA,incomplete,false,NA,true,1,23,NA,right,E16_Q5_ansL.png,E16_Q2_ansR.png,within,NA,NaN,NA,right,2879,1,0,843
uetQJPmK,NA,NA,uetQJPmK,2020-0188,2021-11-11,10:12:36,11:17:52,NA,incomplete,false,NA,true,1,24,NA,right,E4_Q5_ansR.png,E4_Q10_ansR.png,within,NA,NaN,NA,right,2578,1,0,906
uetQJPmK,NA,NA,uetQJPmK,2020-0188,2021-11-11,10:12:36,11:17:52,NA,incomplete,false,NA,true,1,25,NA,right,E16_Q2_ansR.png,E4_Q4_ansL.png,between,NA,NaN,NA,right,2212,1,1,1434
uetQJPmK,NA,NA,uetQJPmK,2020-0188,2021-11-11,10:12:36,11:17:52,NA,incomplete,false,NA,true,1,26,NA,left,E22_Q3_ansL.png,E22_Q2_ansR.png,within,NA,NaN,NA,right,2682,0,0,1414
uetQJPmK,NA,NA,uetQJPmK,2020-0188,2021-11-11,10:12:36,11:17:52,NA,incomplete,false,true,NA,2,0,E33_Q3_ansR.png,right,NA,NA,NA,right,2459,true,NA,NA,NA,NA,NA
uetQJPmK,NA,NA,uetQJPmK,2020-0188,2021-11-11,10:12:36,11:17:52,NA,incomplete,false,true,NA,2,1,E33_Q10_ansL.png,left,NA,NA,NA,left,1644,true,NA,NA,NA,NA,NA
uetQJPmK,NA,NA,uetQJPmK,2020-0188,2021-11-11,10:12:36,11:17:52,NA,incomplete,false,true,NA,2,2,E33_Q4_ansR.png,right,NA,NA,NA,right,1147,true,NA,NA,NA,NA,NA
uetQJPmK,NA,NA,uetQJPmK,2020-0188,2021-11-11,10:12:36,11:17:52,NA,incomplete,false,true,NA,2,3,E33_Q8_ansL.png,left,NA,NA,NA,left,1437,true,NA,NA,NA,NA,NA
uetQJPmK,NA,NA,uetQJPmK,2020-0188,2021-11-11,10:12:36,11:17:52,NA,incomplete,false,true,NA,2,4,E33_Q6_ansR.png,right,NA,NA,NA,left,1062,false,NA,NA,NA,NA,NA
uetQJPmK,NA,NA,uetQJPmK,2020-0188,2021-11-11,10:12:36,11:17:52,NA,incomplete,false,true,NA,2,5,E33_Q2_ansL.png,left,NA,NA,NA,left,1615,true,NA,NA,NA,NA,NA
uetQJPmK,NA,NA,uetQJPmK,2020-0188,2021-11-11,10:12:36,11:17:52,NA,incomplete,false,true,NA,2,6,E33_Q5_ansR.png,right,NA,NA,NA,right,2029,true,NA,NA,NA,NA,NA
uetQJPmK,NA,NA,uetQJPmK,2020-0188,2021-11-11,10:12:36,11:17:52,NA,incomplete,false,true,NA,2,7,E33_Q7_ansL.png,left,NA,NA,NA,left,2043,true,NA,NA,NA,NA,NA
uetQJPmK,NA,NA,uetQJPmK,2020-0188,2021-11-11,10:12:36,11:17:52,NA,incomplete,false,true,NA,2,8,E33_Q1_ansL.png,left,NA,NA,NA,left,1169,true,NA,NA,NA,NA,NA
uetQJPmK,NA,NA,uetQJPmK,2020-0188,2021-11-11,10:12:36,11:17:52,NA,incomplete,false,true,NA,2,9,E33_Q9_ansR.png,right,NA,NA,NA,left,1590,false,NA,NA,NA,NA,NA
uetQJPmK,NA,NA,uetQJPmK,2020-0188,2021-11-11,10:12:36,11:17:52,NA,incomplete,false,true,NA,2,10,E3_Q7_ansL.png,left,NA,NA,NA,left,1688,true,NA,NA,NA,NA,NA
uetQJPmK,NA,NA,uetQJPmK,2020-0188,2021-11-11,10:12:36,11:17:52,NA,incomplete,false,true,NA,2,11,E3_Q4_ansL.png,left,NA,NA,NA,left,1283,true,NA,NA,NA,NA,NA
uetQJPmK,NA,NA,uetQJPmK,2020-0188,2021-11-11,10:12:36,11:17:52,NA,incomplete,false,true,NA,2,12,E3_Q9_ansL.png,left,NA,NA,NA,left,1135,true,NA,NA,NA,NA,NA
uetQJPmK,NA,NA,uetQJPmK,2020-0188,2021-11-11,10:12:36,11:17:52,NA,incomplete,false,true,NA,2,13,E3_Q8_ansL.png,left,NA,NA,NA,left,1142,true,NA,NA,NA,NA,NA
uetQJPmK,NA,NA,uetQJPmK,2020-0188,2021-11-11,10:12:36,11:17:52,NA,incomplete,false,true,NA,2,14,E3_Q2_ansL.png,left,NA,NA,NA,left,1041,true,NA,NA,NA,NA,NA
uetQJPmK,NA,NA,uetQJPmK,2020-0188,2021-11-11,10:12:36,11:17:52,NA,incomplete,false,true,NA,2,15,E3_Q5_ansR.png,right,NA,NA,NA,right,976,true,NA,NA,NA,NA,NA
uetQJPmK,NA,NA,uetQJPmK,2020-0188,2021-11-11,10:12:36,11:17:52,NA,incomplete,false,true,NA,2,16,E3_Q1_ansR.png,right,NA,NA,NA,right,897,true,NA,NA,NA,NA,NA
uetQJPmK,NA,NA,uetQJPmK,2020-0188,2021-11-11,10:12:36,11:17:52,NA,incomplete,false,true,NA,2,17,E3_Q3_ansR.png,right,NA,NA,NA,right,1310,true,NA,NA,NA,NA,NA
uetQJPmK,NA,NA,uetQJPmK,2020-0188,2021-11-11,10:12:36,11:17:52,NA,incomplete,false,true,NA,2,18,E3_Q6_ansR.png,right,NA,NA,NA,right,850,true,NA,NA,NA,NA,NA
uetQJPmK,NA,NA,uetQJPmK,2020-0188,2021-11-11,10:12:36,11:17:52,NA,incomplete,false,true,NA,2,19,E3_Q10_ansR.png,right,NA,NA,NA,right,914,true,NA,NA,NA,NA,NA
uetQJPmK,NA,NA,uetQJPmK,2020-0188,2021-11-11,10:12:36,11:17:52,NA,incomplete,false,true,NA,2,20,E10_Q10_ansR.png,right,NA,NA,NA,none,0,false,NA,NA,NA,NA,NA
uetQJPmK,NA,NA,uetQJPmK,2020-0188,2021-11-11,10:12:36,11:17:52,NA,incomplete,false,true,NA,2,21,E10_Q4_ansL.png,left,NA,NA,NA,left,3069,true,NA,NA,NA,NA,NA
uetQJPmK,NA,NA,uetQJPmK,2020-0188,2021-11-11,10:12:36,11:17:52,NA,incomplete,false,true,NA,2,22,E10_Q8_ansR.png,right,NA,NA,NA,right,2875,true,NA,NA,NA,NA,NA
uetQJPmK,NA,NA,uetQJPmK,2020-0188,2021-11-11,10:12:36,11:17:52,NA,incomplete,false,true,NA,2,23,E10_Q1_ansL.png,left,NA,NA,NA,left,2449,true,NA,NA,NA,NA,NA
uetQJPmK,NA,NA,uetQJPmK,2020-0188,2021-11-11,10:12:36,11:17:52,NA,incomplete,false,true,NA,2,24,E10_Q7_ansR.png,right,NA,NA,NA,right,1986,true,NA,NA,NA,NA,NA
uetQJPmK,NA,NA,uetQJPmK,2020-0188,2021-11-11,10:12:36,11:17:52,NA,incomplete,false,true,NA,2,25,E10_Q9_ansL.png,left,NA,NA,NA,left,2454,true,NA,NA,NA,NA,NA
uetQJPmK,NA,NA,uetQJPmK,2020-0188,2021-11-11,10:12:36,11:17:52,NA,incomplete,false,true,NA,2,26,E10_Q6_ansR.png,right,NA,NA,NA,right,1757,true,NA,NA,NA,NA,NA
uetQJPmK,NA,NA,uetQJPmK,2020-0188,2021-11-11,10:12:36,11:17:52,NA,incomplete,false,true,NA,2,27,E10_Q2_ansL.png,left,NA,NA,NA,left,1955,true,NA,NA,NA,NA,NA
uetQJPmK,NA,NA,uetQJPmK,2020-0188,2021-11-11,10:12:36,11:17:52,NA,incomplete,false,true,NA,2,28,E10_Q3_ansL.png,left,NA,NA,NA,left,2137,true,NA,NA,NA,NA,NA
uetQJPmK,NA,NA,uetQJPmK,2020-0188,2021-11-11,10:12:36,11:17:52,NA,incomplete,false,true,NA,2,29,E10_Q5_ansR.png,right,NA,NA,NA,right,1779,true,NA,NA,NA,NA,NA
uetQJPmK,NA,NA,uetQJPmK,2020-0188,2021-11-11,10:12:36,11:17:52,NA,incomplete,false,NA,true,2,0,NA,right,E10_Q7_ansR.png,E10_Q4_ansL.png,within,NA,NaN,NA,right,3493,1,0,855
uetQJPmK,NA,NA,uetQJPmK,2020-0188,2021-11-11,10:12:36,11:17:52,NA,incomplete,false,NA,true,2,1,NA,left,E10_Q1_ansL.png,E10_Q6_ansR.png,within,NA,NaN,NA,left,2653,1,0,1238
uetQJPmK,NA,NA,uetQJPmK,2020-0188,2021-11-11,10:12:36,11:17:52,NA,incomplete,false,NA,true,2,2,NA,right,E33_Q9_ansR.png,E33_Q5_ansR.png,within,NA,NaN,NA,left,2175,0,0,1233
uetQJPmK,NA,NA,uetQJPmK,2020-0188,2021-11-11,10:12:36,11:17:52,NA,incomplete,false,NA,true,2,3,NA,left,E3_Q10_ansR.png,E10_Q8_ansR.png,between,NA,NaN,NA,left,2007,1,2,777
uetQJPmK,NA,NA,uetQJPmK,2020-0188,2021-11-11,10:12:36,11:17:52,NA,incomplete,false,NA,true,2,4,NA,left,E10_Q10_ansR.png,E10_Q1_ansL.png,within,NA,NaN,NA,left,2482,1,0,912
uetQJPmK,NA,NA,uetQJPmK,2020-0188,2021-11-11,10:12:36,11:17:52,NA,incomplete,false,NA,true,2,5,NA,left,E3_Q8_ansL.png,E3_Q1_ansR.png,within,NA,NaN,NA,left,2523,1,0,1254
uetQJPmK,NA,NA,uetQJPmK,2020-0188,2021-11-11,10:12:36,11:17:52,NA,incomplete,false,NA,true,2,6,NA,right,E3_Q10_ansR.png,E3_Q1_ansR.png,within,NA,NaN,NA,left,1935,0,0,834
uetQJPmK,NA,NA,uetQJPmK,2020-0188,2021-11-11,10:12:36,11:17:52,NA,incomplete,false,NA,true,2,7,NA,right,E3_Q8_ansL.png,E3_Q7_ansL.png,within,NA,NaN,NA,right,1594,1,0,1334
uetQJPmK,NA,NA,uetQJPmK,2020-0188,2021-11-11,10:12:36,11:17:52,NA,incomplete,false,NA,true,2,8,NA,right,E10_Q4_ansL.png,E3_Q6_ansR.png,between,NA,NaN,NA,right,1794,1,2,1846
uetQJPmK,NA,NA,uetQJPmK,2020-0188,2021-11-11,10:12:36,11:17:52,NA,incomplete,false,NA,true,2,9,NA,right,E10_Q5_ansR.png,E10_Q6_ansR.png,within,NA,NaN,NA,right,2619,1,0,807
uetQJPmK,NA,NA,uetQJPmK,2020-0188,2021-11-11,10:12:36,11:17:52,NA,incomplete,false,NA,true,2,10,NA,right,E3_Q6_ansR.png,E3_Q5_ansR.png,within,NA,NaN,NA,right,2370,1,0,1033
uetQJPmK,NA,NA,uetQJPmK,2020-0188,2021-11-11,10:12:36,11:17:52,NA,incomplete,false,NA,true,2,11,NA,right,E10_Q9_ansL.png,E10_Q8_ansR.png,within,NA,NaN,NA,left,4050,0,0,1503
uetQJPmK,NA,NA,uetQJPmK,2020-0188,2021-11-11,10:12:36,11:17:52,NA,incomplete,false,NA,true,2,12,NA,left,E33_Q6_ansR.png,E33_Q7_ansL.png,within,NA,NaN,NA,left,2853,1,0,1269
uetQJPmK,NA,NA,uetQJPmK,2020-0188,2021-11-11,10:12:36,11:17:52,NA,incomplete,false,NA,true,2,13,NA,left,E33_Q10_ansL.png,E33_Q6_ansR.png,within,NA,NaN,NA,left,2117,1,0,1196
uetQJPmK,NA,NA,uetQJPmK,2020-0188,2021-11-11,10:12:36,11:17:52,NA,incomplete,false,NA,true,2,14,NA,left,E3_Q3_ansR.png,E10_Q10_ansR.png,between,NA,NaN,NA,left,1739,1,2,927
uetQJPmK,NA,NA,uetQJPmK,2020-0188,2021-11-11,10:12:36,11:17:52,NA,incomplete,false,NA,true,2,15,NA,right,E33_Q2_ansL.png,E33_Q4_ansR.png,within,NA,NaN,NA,right,2070,1,0,2947
uetQJPmK,NA,NA,uetQJPmK,2020-0188,2021-11-11,10:12:36,11:17:52,NA,incomplete,false,NA,true,2,16,NA,right,E3_Q4_ansL.png,E33_Q1_ansL.png,between,NA,NaN,NA,right,1827,1,2,1074
uetQJPmK,NA,NA,uetQJPmK,2020-0188,2021-11-11,10:12:36,11:17:52,NA,incomplete,false,NA,true,2,17,NA,left,E10_Q7_ansR.png,E10_Q2_ansL.png,within,NA,NaN,NA,left,2362,1,0,711
uetQJPmK,NA,NA,uetQJPmK,2020-0188,2021-11-11,10:12:36,11:17:52,NA,incomplete,false,NA,true,2,18,NA,left,E33_Q3_ansR.png,E33_Q8_ansL.png,within,NA,NaN,NA,left,1776,1,0,825
uetQJPmK,NA,NA,uetQJPmK,2020-0188,2021-11-11,10:12:36,11:17:52,NA,incomplete,false,NA,true,2,19,NA,left,E3_Q2_ansL.png,E3_Q3_ansR.png,within,NA,NaN,NA,left,2035,1,0,865
uetQJPmK,NA,NA,uetQJPmK,2020-0188,2021-11-11,10:12:36,11:17:52,NA,incomplete,false,NA,true,2,20,NA,left,E33_Q9_ansR.png,E3_Q9_ansL.png,between,NA,NaN,NA,left,3393,1,2,1680
uetQJPmK,NA,NA,uetQJPmK,2020-0188,2021-11-11,10:12:36,11:17:52,NA,incomplete,false,NA,true,2,21,NA,right,E3_Q7_ansL.png,E33_Q7_ansL.png,between,NA,NaN,NA,right,2538,1,2,2345
uetQJPmK,NA,NA,uetQJPmK,2020-0188,2021-11-11,10:12:36,11:17:52,NA,incomplete,false,NA,true,2,22,NA,right,E10_Q3_ansL.png,E10_Q9_ansL.png,within,NA,NaN,NA,right,1883,1,0,1996
uetQJPmK,NA,NA,uetQJPmK,2020-0188,2021-11-11,10:12:36,11:17:52,NA,incomplete,false,NA,true,2,23,NA,left,E33_Q2_ansL.png,E33_Q1_ansL.png,within,NA,NaN,NA,left,2002,1,0,3014
uetQJPmK,NA,NA,uetQJPmK,2020-0188,2021-11-11,10:12:36,11:17:52,NA,incomplete,false,NA,true,2,24,NA,left,E33_Q8_ansL.png,E33_Q5_ansR.png,within,NA,NaN,NA,left,2546,1,1,946
uetQJPmK,NA,NA,uetQJPmK,2020-0188,2021-11-11,10:12:36,11:17:52,NA,incomplete,false,NA,true,2,25,NA,right,E3_Q5_ansR.png,E3_Q9_ansL.png,within,NA,NaN,NA,left,2040,0,0,2072
uetQJPmK,NA,NA,uetQJPmK,2020-0188,2021-11-11,10:12:36,11:17:52,NA,incomplete,false,NA,true,2,26,NA,right,E3_Q2_ansL.png,E3_Q4_ansL.png,within,NA,NaN,NA,right,2116,1,0,954
uetQJPmK,NA,NA,uetQJPmK,2020-0188,2021-11-11,10:12:36,11:17:52,NA,incomplete,false,true,NA,3,0,E7_Q10_ansR.png,right,NA,NA,NA,right,1613,true,NA,NA,NA,NA,NA
uetQJPmK,NA,NA,uetQJPmK,2020-0188,2021-11-11,10:12:36,11:17:52,NA,incomplete,false,true,NA,3,1,E7_Q3_ansR.png,right,NA,NA,NA,right,1104,true,NA,NA,NA,NA,NA
uetQJPmK,NA,NA,uetQJPmK,2020-0188,2021-11-11,10:12:36,11:17:52,NA,incomplete,false,true,NA,3,2,E7_Q5_ansR.png,right,NA,NA,NA,right,1230,true,NA,NA,NA,NA,NA
uetQJPmK,NA,NA,uetQJPmK,2020-0188,2021-11-11,10:12:36,11:17:52,NA,incomplete,false,true,NA,3,3,E7_Q2_ansL.png,left,NA,NA,NA,left,896,true,NA,NA,NA,NA,NA
uetQJPmK,NA,NA,uetQJPmK,2020-0188,2021-11-11,10:12:36,11:17:52,NA,incomplete,false,true,NA,3,4,E7_Q1_ansL.png,left,NA,NA,NA,left,813,true,NA,NA,NA,NA,NA
uetQJPmK,NA,NA,uetQJPmK,2020-0188,2021-11-11,10:12:36,11:17:52,NA,incomplete,false,true,NA,3,5,E7_Q9_ansR.png,right,NA,NA,NA,right,815,true,NA,NA,NA,NA,NA
uetQJPmK,NA,NA,uetQJPmK,2020-0188,2021-11-11,10:12:36,11:17:52,NA,incomplete,false,true,NA,3,6,E7_Q8_ansL.png,left,NA,NA,NA,left,721,true,NA,NA,NA,NA,NA
uetQJPmK,NA,NA,uetQJPmK,2020-0188,2021-11-11,10:12:36,11:17:52,NA,incomplete,false,true,NA,3,7,E7_Q7_ansL.png,left,NA,NA,NA,left,769,true,NA,NA,NA,NA,NA
uetQJPmK,NA,NA,uetQJPmK,2020-0188,2021-11-11,10:12:36,11:17:52,NA,incomplete,false,true,NA,3,8,E7_Q4_ansR.png,right,NA,NA,NA,right,1074,true,NA,NA,NA,NA,NA
uetQJPmK,NA,NA,uetQJPmK,2020-0188,2021-11-11,10:12:36,11:17:52,NA,incomplete,false,true,NA,3,9,E7_Q6_ansR.png,right,NA,NA,NA,right,847,true,NA,NA,NA,NA,NA
uetQJPmK,NA,NA,uetQJPmK,2020-0188,2021-11-11,10:12:36,11:17:52,NA,incomplete,false,true,NA,3,10,E29_Q5_ansR.png,right,NA,NA,NA,right,1417,true,NA,NA,NA,NA,NA
uetQJPmK,NA,NA,uetQJPmK,2020-0188,2021-11-11,10:12:36,11:17:52,NA,incomplete,false,true,NA,3,11,E29_Q9_ansR.png,right,NA,NA,NA,right,1519,true,NA,NA,NA,NA,NA
uetQJPmK,NA,NA,uetQJPmK,2020-0188,2021-11-11,10:12:36,11:17:52,NA,incomplete,false,true,NA,3,12,E29_Q7_ansL.png,left,NA,NA,NA,left,950,true,NA,NA,NA,NA,NA
uetQJPmK,NA,NA,uetQJPmK,2020-0188,2021-11-11,10:12:36,11:17:52,NA,incomplete,false,true,NA,3,13,E29_Q4_ansR.png,right,NA,NA,NA,right,1244,true,NA,NA,NA,NA,NA
uetQJPmK,NA,NA,uetQJPmK,2020-0188,2021-11-11,10:12:36,11:17:52,NA,incomplete,false,true,NA,3,14,E29_Q2_ansL.png,left,NA,NA,NA,left,1348,true,NA,NA,NA,NA,NA
uetQJPmK,NA,NA,uetQJPmK,2020-0188,2021-11-11,10:12:36,11:17:52,NA,incomplete,false,true,NA,3,15,E29_Q8_ansL.png,left,NA,NA,NA,left,1072,true,NA,NA,NA,NA,NA
uetQJPmK,NA,NA,uetQJPmK,2020-0188,2021-11-11,10:12:36,11:17:52,NA,incomplete,false,true,NA,3,16,E29_Q3_ansR.png,right,NA,NA,NA,right,1092,true,NA,NA,NA,NA,NA
uetQJPmK,NA,NA,uetQJPmK,2020-0188,2021-11-11,10:12:36,11:17:52,NA,incomplete,false,true,NA,3,17,E29_Q1_ansL.png,left,NA,NA,NA,left,923,true,NA,NA,NA,NA,NA
uetQJPmK,NA,NA,uetQJPmK,2020-0188,2021-11-11,10:12:36,11:17:52,NA,incomplete,false,true,NA,3,18,E29_Q10_ansL.png,left,NA,NA,NA,left,861,true,NA,NA,NA,NA,NA
uetQJPmK,NA,NA,uetQJPmK,2020-0188,2021-11-11,10:12:36,11:17:52,NA,incomplete,false,true,NA,3,19,E29_Q6_ansR.png,right,NA,NA,NA,right,931,true,NA,NA,NA,NA,NA
uetQJPmK,NA,NA,uetQJPmK,2020-0188,2021-11-11,10:12:36,11:17:52,NA,incomplete,false,true,NA,3,20,E20_Q5_ansR.png,right,NA,NA,NA,left,1359,false,NA,NA,NA,NA,NA
uetQJPmK,NA,NA,uetQJPmK,2020-0188,2021-11-11,10:12:36,11:17:52,NA,incomplete,false,true,NA,3,21,E20_Q10_ansL.png,left,NA,NA,NA,left,1682,true,NA,NA,NA,NA,NA
uetQJPmK,NA,NA,uetQJPmK,2020-0188,2021-11-11,10:12:36,11:17:52,NA,incomplete,false,true,NA,3,22,E20_Q7_ansL.png,left,NA,NA,NA,left,1164,true,NA,NA,NA,NA,NA
uetQJPmK,NA,NA,uetQJPmK,2020-0188,2021-11-11,10:12:36,11:17:52,NA,incomplete,false,true,NA,3,23,E20_Q9_ansR.png,right,NA,NA,NA,right,1208,true,NA,NA,NA,NA,NA
uetQJPmK,NA,NA,uetQJPmK,2020-0188,2021-11-11,10:12:36,11:17:52,NA,incomplete,false,true,NA,3,24,E20_Q4_ansR.png,right,NA,NA,NA,right,1202,true,NA,NA,NA,NA,NA
uetQJPmK,NA,NA,uetQJPmK,2020-0188,2021-11-11,10:12:36,11:17:52,NA,incomplete,false,true,NA,3,25,E20_Q8_ansL.png,left,NA,NA,NA,left,1615,true,NA,NA,NA,NA,NA
uetQJPmK,NA,NA,uetQJPmK,2020-0188,2021-11-11,10:12:36,11:17:52,NA,incomplete,false,true,NA,3,26,E20_Q2_ansL.png,left,NA,NA,NA,left,1253,true,NA,NA,NA,NA,NA
uetQJPmK,NA,NA,uetQJPmK,2020-0188,2021-11-11,10:12:36,11:17:52,NA,incomplete,false,true,NA,3,27,E20_Q3_ansR.png,right,NA,NA,NA,right,1130,true,NA,NA,NA,NA,NA
uetQJPmK,NA,NA,uetQJPmK,2020-0188,2021-11-11,10:12:36,11:17:52,NA,incomplete,false,true,NA,3,28,E20_Q6_ansR.png,right,NA,NA,NA,right,1241,true,NA,NA,NA,NA,NA
uetQJPmK,NA,NA,uetQJPmK,2020-0188,2021-11-11,10:12:36,11:17:52,NA,incomplete,false,true,NA,3,29,E20_Q1_ansL.png,left,NA,NA,NA,left,1099,true,NA,NA,NA,NA,NA
uetQJPmK,NA,NA,uetQJPmK,2020-0188,2021-11-11,10:12:36,11:17:52,NA,incomplete,false,NA,true,3,0,NA,right,E7_Q6_ansR.png,E7_Q8_ansL.png,within,NA,NaN,NA,left,2097,0,0,954
uetQJPmK,NA,NA,uetQJPmK,2020-0188,2021-11-11,10:12:36,11:17:52,NA,incomplete,false,NA,true,3,1,NA,right,E20_Q3_ansR.png,E20_Q4_ansR.png,within,NA,NaN,NA,left,4622,0,0,1861
uetQJPmK,NA,NA,uetQJPmK,2020-0188,2021-11-11,10:12:36,11:17:52,NA,incomplete,false,NA,true,3,2,NA,right,E20_Q4_ansR.png,E20_Q10_ansL.png,within,NA,NaN,NA,right,1570,1,0,1205
uetQJPmK,NA,NA,uetQJPmK,2020-0188,2021-11-11,10:12:36,11:17:52,NA,incomplete,false,NA,true,3,3,NA,left,E7_Q7_ansL.png,E29_Q5_ansR.png,between,NA,NaN,NA,left,2669,1,2,1513
uetQJPmK,NA,NA,uetQJPmK,2020-0188,2021-11-11,10:12:36,11:17:52,NA,incomplete,false,NA,true,3,4,NA,right,E29_Q8_ansL.png,E29_Q7_ansL.png,within,NA,NaN,NA,right,2046,1,1,1682
uetQJPmK,NA,NA,uetQJPmK,2020-0188,2021-11-11,10:12:36,11:17:52,NA,incomplete,false,NA,true,3,5,NA,right,E20_Q8_ansL.png,E20_Q7_ansL.png,within,NA,NaN,NA,right,3874,1,1,1679
uetQJPmK,NA,NA,uetQJPmK,2020-0188,2021-11-11,10:12:36,11:17:52,NA,incomplete,false,NA,true,3,6,NA,right,E29_Q3_ansR.png,E29_Q4_ansR.png,within,NA,NaN,NA,right,1495,1,0,1309
uetQJPmK,NA,NA,uetQJPmK,2020-0188,2021-11-11,10:12:36,11:17:52,NA,incomplete,false,NA,true,3,7,NA,left,E7_Q10_ansR.png,E7_Q2_ansL.png,within,NA,NaN,NA,left,2157,1,1,726
uetQJPmK,NA,NA,uetQJPmK,2020-0188,2021-11-11,10:12:36,11:17:52,NA,incomplete,false,NA,true,3,8,NA,left,E7_Q9_ansR.png,E7_Q4_ansR.png,within,NA,NaN,NA,left,1980,1,0,901
uetQJPmK,NA,NA,uetQJPmK,2020-0188,2021-11-11,10:12:36,11:17:52,NA,incomplete,false,NA,true,3,9,NA,right,E20_Q1_ansL.png,E20_Q2_ansL.png,within,NA,NaN,NA,right,1546,1,0,898
uetQJPmK,NA,NA,uetQJPmK,2020-0188,2021-11-11,10:12:36,11:17:52,NA,incomplete,false,NA,true,3,10,NA,right,E7_Q9_ansR.png,E7_Q5_ansR.png,within,NA,NaN,NA,right,2143,1,0,954
uetQJPmK,NA,NA,uetQJPmK,2020-0188,2021-11-11,10:12:36,11:17:52,NA,incomplete,false,NA,true,3,11,NA,right,E29_Q6_ansR.png,E29_Q3_ansR.png,within,NA,NaN,NA,left,2085,0,1,1988
uetQJPmK,NA,NA,uetQJPmK,2020-0188,2021-11-11,10:12:36,11:17:52,NA,incomplete,false,NA,true,3,12,NA,right,E29_Q1_ansL.png,E29_Q2_ansL.png,within,NA,NaN,NA,left,3023,0,0,1035
uetQJPmK,NA,NA,uetQJPmK,2020-0188,2021-11-11,10:12:36,11:17:52,NA,incomplete,false,NA,true,3,13,NA,left,E29_Q1_ansL.png,E20_Q5_ansR.png,between,NA,NaN,NA,right,4494,0,2,1462
uetQJPmK,NA,NA,uetQJPmK,2020-0188,2021-11-11,10:12:36,11:17:52,NA,incomplete,false,NA,true,3,14,NA,left,E20_Q9_ansR.png,E20_Q2_ansL.png,within,NA,NaN,NA,left,2827,1,1,1941
uetQJPmK,NA,NA,uetQJPmK,2020-0188,2021-11-11,10:12:36,11:17:52,NA,incomplete,false,NA,true,3,15,NA,left,E29_Q6_ansR.png,E20_Q7_ansL.png,between,NA,NaN,NA,right,2272,0,2,1018
uetQJPmK,NA,NA,uetQJPmK,2020-0188,2021-11-11,10:12:36,11:17:52,NA,incomplete,false,NA,true,3,16,NA,left,E29_Q9_ansR.png,E29_Q2_ansL.png,within,NA,NaN,NA,left,1634,1,1,1019
uetQJPmK,NA,NA,uetQJPmK,2020-0188,2021-11-11,10:12:36,11:17:52,NA,incomplete,false,NA,true,3,17,NA,left,E7_Q4_ansR.png,E29_Q9_ansR.png,between,NA,NaN,NA,left,1819,1,2,1001
uetQJPmK,NA,NA,uetQJPmK,2020-0188,2021-11-11,10:12:36,11:17:52,NA,incomplete,false,NA,true,3,18,NA,right,E29_Q10_ansL.png,E29_Q8_ansL.png,within,NA,NaN,NA,left,2792,0,0,1905
uetQJPmK,NA,NA,uetQJPmK,2020-0188,2021-11-11,10:12:36,11:17:52,NA,incomplete,false,NA,true,3,19,NA,left,E29_Q10_ansL.png,E20_Q10_ansL.png,between,NA,NaN,NA,right,1642,0,2,872
uetQJPmK,NA,NA,uetQJPmK,2020-0188,2021-11-11,10:12:36,11:17:52,NA,incomplete,false,NA,true,3,20,NA,right,E7_Q8_ansL.png,E7_Q2_ansL.png,within,NA,NaN,NA,right,1941,1,1,1043
uetQJPmK,NA,NA,uetQJPmK,2020-0188,2021-11-11,10:12:36,11:17:52,NA,incomplete,false,NA,true,3,21,NA,right,E7_Q7_ansL.png,E7_Q1_ansL.png,within,NA,NaN,NA,left,2404,0,1,1042
uetQJPmK,NA,NA,uetQJPmK,2020-0188,2021-11-11,10:12:36,11:17:52,NA,incomplete,false,NA,true,3,22,NA,right,E20_Q6_ansR.png,E20_Q8_ansL.png,within,NA,NaN,NA,left,3023,0,1,997
uetQJPmK,NA,NA,uetQJPmK,2020-0188,2021-11-11,10:12:36,11:17:52,NA,incomplete,false,NA,true,3,23,NA,right,E29_Q7_ansL.png,E7_Q6_ansR.png,between,NA,NaN,NA,right,1186,1,3,1859
uetQJPmK,NA,NA,uetQJPmK,2020-0188,2021-11-11,10:12:36,11:17:52,NA,incomplete,false,NA,true,3,24,NA,right,E7_Q1_ansL.png,E7_Q3_ansR.png,within,NA,NaN,NA,right,1617,1,0,1358
uetQJPmK,NA,NA,uetQJPmK,2020-0188,2021-11-11,10:12:36,11:17:52,NA,incomplete,false,NA,true,3,25,NA,left,E20_Q5_ansR.png,E20_Q9_ansR.png,within,NA,NaN,NA,left,1881,1,1,964
uetQJPmK,NA,NA,uetQJPmK,2020-0188,2021-11-11,10:12:36,11:17:52,NA,incomplete,false,NA,true,3,26,NA,right,E29_Q4_ansR.png,E29_Q5_ansR.png,within,NA,NaN,NA,left,1884,0,1,926
uetQJPmK,NA,NA,uetQJPmK,2020-0188,2021-11-11,10:12:36,11:17:52,NA,incomplete,false,true,NA,4,0,E13_Q4_ansR.png,right,NA,NA,NA,right,1956,true,NA,NA,NA,NA,NA
uetQJPmK,NA,NA,uetQJPmK,2020-0188,2021-11-11,10:12:36,11:17:52,NA,incomplete,false,true,NA,4,1,E13_Q10_ansL.png,left,NA,NA,NA,left,2058,true,NA,NA,NA,NA,NA
uetQJPmK,NA,NA,uetQJPmK,2020-0188,2021-11-11,10:12:36,11:17:52,NA,incomplete,false,true,NA,4,2,E13_Q2_ansL.png,left,NA,NA,NA,left,1779,true,NA,NA,NA,NA,NA
uetQJPmK,NA,NA,uetQJPmK,2020-0188,2021-11-11,10:12:36,11:17:52,NA,incomplete,false,true,NA,4,3,E13_Q3_ansR.png,right,NA,NA,NA,right,1060,true,NA,NA,NA,NA,NA
uetQJPmK,NA,NA,uetQJPmK,2020-0188,2021-11-11,10:12:36,11:17:52,NA,incomplete,false,true,NA,4,4,E13_Q9_ansR.png,right,NA,NA,NA,right,990,true,NA,NA,NA,NA,NA
uetQJPmK,NA,NA,uetQJPmK,2020-0188,2021-11-11,10:12:36,11:17:52,NA,incomplete,false,true,NA,4,5,E13_Q6_ansR.png,right,NA,NA,NA,right,1052,true,NA,NA,NA,NA,NA
uetQJPmK,NA,NA,uetQJPmK,2020-0188,2021-11-11,10:12:36,11:17:52,NA,incomplete,false,true,NA,4,6,E13_Q5_ansR.png,right,NA,NA,NA,right,1027,true,NA,NA,NA,NA,NA
uetQJPmK,NA,NA,uetQJPmK,2020-0188,2021-11-11,10:12:36,11:17:52,NA,incomplete,false,true,NA,4,7,E13_Q1_ansL.png,left,NA,NA,NA,left,1117,true,NA,NA,NA,NA,NA
uetQJPmK,NA,NA,uetQJPmK,2020-0188,2021-11-11,10:12:36,11:17:52,NA,incomplete,false,true,NA,4,8,E13_Q8_ansL.png,left,NA,NA,NA,left,1224,true,NA,NA,NA,NA,NA
uetQJPmK,NA,NA,uetQJPmK,2020-0188,2021-11-11,10:12:36,11:17:52,NA,incomplete,false,true,NA,4,9,E13_Q7_ansL.png,left,NA,NA,NA,left,1123,true,NA,NA,NA,NA,NA
uetQJPmK,NA,NA,uetQJPmK,2020-0188,2021-11-11,10:12:36,11:17:52,NA,incomplete,false,true,NA,4,10,E30_Q7_ansL.png,left,NA,NA,NA,right,2750,false,NA,NA,NA,NA,NA
uetQJPmK,NA,NA,uetQJPmK,2020-0188,2021-11-11,10:12:36,11:17:52,NA,incomplete,false,true,NA,4,11,E30_Q2_ansL.png,left,NA,NA,NA,left,2141,true,NA,NA,NA,NA,NA
uetQJPmK,NA,NA,uetQJPmK,2020-0188,2021-11-11,10:12:36,11:17:52,NA,incomplete,false,true,NA,4,12,E30_Q1_ansL.png,left,NA,NA,NA,left,1993,true,NA,NA,NA,NA,NA
uetQJPmK,NA,NA,uetQJPmK,2020-0188,2021-11-11,10:12:36,11:17:52,NA,incomplete,false,true,NA,4,13,E30_Q3_ansL.png,left,NA,NA,NA,left,2672,true,NA,NA,NA,NA,NA
uetQJPmK,NA,NA,uetQJPmK,2020-0188,2021-11-11,10:12:36,11:17:52,NA,incomplete,false,true,NA,4,14,E30_Q6_ansR.png,right,NA,NA,NA,right,1576,true,NA,NA,NA,NA,NA
uetQJPmK,NA,NA,uetQJPmK,2020-0188,2021-11-11,10:12:36,11:17:52,NA,incomplete,false,true,NA,4,15,E30_Q9_ansL.png,left,NA,NA,NA,left,1574,true,NA,NA,NA,NA,NA
uetQJPmK,NA,NA,uetQJPmK,2020-0188,2021-11-11,10:12:36,11:17:52,NA,incomplete,false,true,NA,4,16,E30_Q8_ansL.png,left,NA,NA,NA,right,2879,false,NA,NA,NA,NA,NA
uetQJPmK,NA,NA,uetQJPmK,2020-0188,2021-11-11,10:12:36,11:17:52,NA,incomplete,false,true,NA,4,17,E30_Q5_ansR.png,right,NA,NA,NA,right,1887,true,NA,NA,NA,NA,NA
uetQJPmK,NA,NA,uetQJPmK,2020-0188,2021-11-11,10:12:36,11:17:52,NA,incomplete,false,true,NA,4,18,E30_Q10_ansR.png,right,NA,NA,NA,right,1717,true,NA,NA,NA,NA,NA
uetQJPmK,NA,NA,uetQJPmK,2020-0188,2021-11-11,10:12:36,11:17:52,NA,incomplete,false,true,NA,4,19,E30_Q4_ansL.png,left,NA,NA,NA,left,1346,true,NA,NA,NA,NA,NA
uetQJPmK,NA,NA,uetQJPmK,2020-0188,2021-11-11,10:12:36,11:17:52,NA,incomplete,false,true,NA,4,20,E32_Q1_ansL.png,left,NA,NA,NA,left,1473,true,NA,NA,NA,NA,NA
uetQJPmK,NA,NA,uetQJPmK,2020-0188,2021-11-11,10:12:36,11:17:52,NA,incomplete,false,true,NA,4,21,E32_Q9_ansR.png,right,NA,NA,NA,right,1123,true,NA,NA,NA,NA,NA
uetQJPmK,NA,NA,uetQJPmK,2020-0188,2021-11-11,10:12:36,11:17:52,NA,incomplete,false,true,NA,4,22,E32_Q8_ansL.png,left,NA,NA,NA,left,963,true,NA,NA,NA,NA,NA
uetQJPmK,NA,NA,uetQJPmK,2020-0188,2021-11-11,10:12:36,11:17:52,NA,incomplete,false,true,NA,4,23,E32_Q5_ansR.png,right,NA,NA,NA,right,1096,true,NA,NA,NA,NA,NA
uetQJPmK,NA,NA,uetQJPmK,2020-0188,2021-11-11,10:12:36,11:17:52,NA,incomplete,false,true,NA,4,24,E32_Q3_ansR.png,right,NA,NA,NA,right,980,true,NA,NA,NA,NA,NA
uetQJPmK,NA,NA,uetQJPmK,2020-0188,2021-11-11,10:12:36,11:17:52,NA,incomplete,false,true,NA,4,25,E32_Q7_ansL.png,left,NA,NA,NA,left,1008,true,NA,NA,NA,NA,NA
uetQJPmK,NA,NA,uetQJPmK,2020-0188,2021-11-11,10:12:36,11:17:52,NA,incomplete,false,true,NA,4,26,E32_Q2_ansL.png,left,NA,NA,NA,left,1285,true,NA,NA,NA,NA,NA
uetQJPmK,NA,NA,uetQJPmK,2020-0188,2021-11-11,10:12:36,11:17:52,NA,incomplete,false,true,NA,4,27,E32_Q4_ansR.png,right,NA,NA,NA,right,1838,true,NA,NA,NA,NA,NA
uetQJPmK,NA,NA,uetQJPmK,2020-0188,2021-11-11,10:12:36,11:17:52,NA,incomplete,false,true,NA,4,28,E32_Q6_ansR.png,right,NA,NA,NA,right,1059,true,NA,NA,NA,NA,NA
uetQJPmK,NA,NA,uetQJPmK,2020-0188,2021-11-11,10:12:36,11:17:52,NA,incomplete,false,true,NA,4,29,E32_Q10_ansL.png,left,NA,NA,NA,left,992,true,NA,NA,NA,NA,NA
uetQJPmK,NA,NA,uetQJPmK,2020-0188,2021-11-11,10:12:36,11:17:52,NA,incomplete,false,NA,true,4,0,NA,left,E13_Q2_ansL.png,E13_Q6_ansR.png,within,NA,NaN,NA,left,2157,1,0,1915
uetQJPmK,NA,NA,uetQJPmK,2020-0188,2021-11-11,10:12:36,11:17:52,NA,incomplete,false,NA,true,4,1,NA,right,E30_Q1_ansL.png,E13_Q7_ansL.png,between,NA,NaN,NA,right,1576,1,1,1552
uetQJPmK,NA,NA,uetQJPmK,2020-0188,2021-11-11,10:12:36,11:17:52,NA,incomplete,false,NA,true,4,2,NA,left,E13_Q3_ansR.png,E13_Q5_ansR.png,within,NA,NaN,NA,left,1479,1,1,1982
uetQJPmK,NA,NA,uetQJPmK,2020-0188,2021-11-11,10:12:36,11:17:52,NA,incomplete,false,NA,true,4,3,NA,left,E30_Q9_ansL.png,E30_Q10_ansR.png,within,NA,NaN,NA,left,2490,1,0,1714
uetQJPmK,NA,NA,uetQJPmK,2020-0188,2021-11-11,10:12:36,11:17:52,NA,incomplete,false,NA,true,4,4,NA,left,E32_Q9_ansR.png,E32_Q3_ansR.png,within,NA,NaN,NA,left,2290,1,0,1290
uetQJPmK,NA,NA,uetQJPmK,2020-0188,2021-11-11,10:12:36,11:17:52,NA,incomplete,false,NA,true,4,5,NA,right,E13_Q8_ansL.png,E13_Q6_ansR.png,within,NA,NaN,NA,right,2622,1,0,1691
uetQJPmK,NA,NA,uetQJPmK,2020-0188,2021-11-11,10:12:36,11:17:52,NA,incomplete,false,NA,true,4,6,NA,right,E32_Q1_ansL.png,E30_Q5_ansR.png,between,NA,NaN,NA,right,1485,1,2,1062
uetQJPmK,NA,NA,uetQJPmK,2020-0188,2021-11-11,10:12:36,11:17:52,NA,incomplete,false,NA,true,4,7,NA,right,E32_Q5_ansR.png,E32_Q1_ansL.png,within,NA,NaN,NA,right,2336,1,1,2457
uetQJPmK,NA,NA,uetQJPmK,2020-0188,2021-11-11,10:12:36,11:17:52,NA,incomplete,false,NA,true,4,8,NA,right,E30_Q4_ansL.png,E30_Q8_ansL.png,within,NA,NaN,NA,left,2100,0,0,1933
uetQJPmK,NA,NA,uetQJPmK,2020-0188,2021-11-11,10:12:36,11:17:52,NA,incomplete,false,NA,true,4,9,NA,right,E13_Q1_ansL.png,E13_Q9_ansR.png,within,NA,NaN,NA,right,2199,1,0,1416
uetQJPmK,NA,NA,uetQJPmK,2020-0188,2021-11-11,10:12:36,11:17:52,NA,incomplete,false,NA,true,4,10,NA,right,E30_Q8_ansL.png,E30_Q3_ansL.png,within,NA,NaN,NA,right,2840,1,0,2046
uetQJPmK,NA,NA,uetQJPmK,2020-0188,2021-11-11,10:12:36,11:17:52,NA,incomplete,false,NA,true,4,11,NA,left,E30_Q10_ansR.png,E32_Q9_ansR.png,between,NA,NaN,NA,left,1792,1,2,1292
uetQJPmK,NA,NA,uetQJPmK,2020-0188,2021-11-11,10:12:36,11:17:52,NA,incomplete,false,NA,true,4,12,NA,right,E32_Q10_ansL.png,E32_Q2_ansL.png,within,NA,NaN,NA,right,1737,1,1,1180
uetQJPmK,NA,NA,uetQJPmK,2020-0188,2021-11-11,10:12:36,11:17:52,NA,incomplete,false,NA,true,4,13,NA,right,E13_Q3_ansR.png,E13_Q4_ansR.png,within,NA,NaN,NA,right,2377,1,0,1318
uetQJPmK,NA,NA,uetQJPmK,2020-0188,2021-11-11,10:12:36,11:17:52,NA,incomplete,false,NA,true,4,14,NA,right,E32_Q4_ansR.png,E32_Q3_ansR.png,within,NA,NaN,NA,right,1934,1,0,1871
uetQJPmK,NA,NA,uetQJPmK,2020-0188,2021-11-11,10:12:36,11:17:52,NA,incomplete,false,NA,true,4,15,NA,right,E30_Q2_ansL.png,E13_Q8_ansL.png,between,NA,NaN,NA,right,1530,1,3,876
uetQJPmK,NA,NA,uetQJPmK,2020-0188,2021-11-11,10:12:36,11:17:52,NA,incomplete,false,NA,true,4,16,NA,left,E30_Q7_ansL.png,E30_Q3_ansL.png,within,NA,NaN,NA,left,2538,1,1,821
uetQJPmK,NA,NA,uetQJPmK,2020-0188,2021-11-11,10:12:36,11:17:52,NA,incomplete,false,NA,true,4,17,NA,left,E32_Q5_ansR.png,E32_Q2_ansL.png,within,NA,NaN,NA,left,2802,1,1,873
uetQJPmK,NA,NA,uetQJPmK,2020-0188,2021-11-11,10:12:36,11:17:52,NA,incomplete,false,NA,true,4,18,NA,left,E30_Q1_ansL.png,E30_Q9_ansL.png,within,NA,NaN,NA,left,1939,1,1,1637
uetQJPmK,NA,NA,uetQJPmK,2020-0188,2021-11-11,10:12:36,11:17:52,NA,incomplete,false,NA,true,4,19,NA,left,E30_Q4_ansL.png,E32_Q8_ansL.png,between,NA,NaN,NA,left,2475,1,2,791
uetQJPmK,NA,NA,uetQJPmK,2020-0188,2021-11-11,10:12:36,11:17:52,NA,incomplete,false,NA,true,4,20,NA,left,E32_Q7_ansL.png,E32_Q6_ansR.png,within,NA,NaN,NA,right,3008,0,1,907
uetQJPmK,NA,NA,uetQJPmK,2020-0188,2021-11-11,10:12:36,11:17:52,NA,incomplete,false,NA,true,4,21,NA,left,E13_Q5_ansR.png,E13_Q7_ansL.png,within,NA,NaN,NA,right,1560,0,1,945
uetQJPmK,NA,NA,uetQJPmK,2020-0188,2021-11-11,10:12:36,11:17:52,NA,incomplete,false,NA,true,4,22,NA,left,E13_Q10_ansL.png,E13_Q9_ansR.png,within,NA,NaN,NA,left,1611,1,0,1557
uetQJPmK,NA,NA,uetQJPmK,2020-0188,2021-11-11,10:12:36,11:17:52,NA,incomplete,false,NA,true,4,23,NA,right,E30_Q5_ansR.png,E30_Q6_ansR.png,within,NA,NaN,NA,right,3116,1,0,1557
uetQJPmK,NA,NA,uetQJPmK,2020-0188,2021-11-11,10:12:36,11:17:52,NA,incomplete,false,NA,true,4,24,NA,left,E13_Q1_ansL.png,E30_Q7_ansL.png,between,NA,NaN,NA,left,1538,1,2,856
uetQJPmK,NA,NA,uetQJPmK,2020-0188,2021-11-11,10:12:36,11:17:52,NA,incomplete,false,NA,true,4,25,NA,right,E30_Q6_ansR.png,E30_Q2_ansL.png,within,NA,NaN,NA,right,2030,1,1,841
uetQJPmK,NA,NA,uetQJPmK,2020-0188,2021-11-11,10:12:36,11:17:52,NA,incomplete,false,NA,true,4,26,NA,left,E32_Q8_ansL.png,E32_Q7_ansL.png,within,NA,NaN,NA,left,2158,1,0,1155
uetQJPmK,NA,NA,uetQJPmK,2020-0188,2021-11-11,10:12:36,11:17:52,NA,incomplete,false,true,NA,5,0,E27_Q10_ansL.png,left,NA,NA,NA,left,2135,true,NA,NA,NA,NA,NA
uetQJPmK,NA,NA,uetQJPmK,2020-0188,2021-11-11,10:12:36,11:17:52,NA,incomplete,false,true,NA,5,1,E27_Q5_ansR.png,right,NA,NA,NA,right,2361,true,NA,NA,NA,NA,NA
uetQJPmK,NA,NA,uetQJPmK,2020-0188,2021-11-11,10:12:36,11:17:52,NA,incomplete,false,true,NA,5,2,E27_Q2_ansL.png,left,NA,NA,NA,left,1349,true,NA,NA,NA,NA,NA
uetQJPmK,NA,NA,uetQJPmK,2020-0188,2021-11-11,10:12:36,11:17:52,NA,incomplete,false,true,NA,5,3,E27_Q8_ansL.png,left,NA,NA,NA,left,1873,true,NA,NA,NA,NA,NA
uetQJPmK,NA,NA,uetQJPmK,2020-0188,2021-11-11,10:12:36,11:17:52,NA,incomplete,false,true,NA,5,4,E27_Q9_ansR.png,right,NA,NA,NA,right,1543,true,NA,NA,NA,NA,NA
uetQJPmK,NA,NA,uetQJPmK,2020-0188,2021-11-11,10:12:36,11:17:52,NA,incomplete,false,true,NA,5,5,E27_Q1_ansL.png,left,NA,NA,NA,left,2967,true,NA,NA,NA,NA,NA
uetQJPmK,NA,NA,uetQJPmK,2020-0188,2021-11-11,10:12:36,11:17:52,NA,incomplete,false,true,NA,5,6,E27_Q3_ansR.png,right,NA,NA,NA,none,0,false,NA,NA,NA,NA,NA
uetQJPmK,NA,NA,uetQJPmK,2020-0188,2021-11-11,10:12:36,11:17:52,NA,incomplete,false,true,NA,5,7,E27_Q4_ansR.png,right,NA,NA,NA,right,772,true,NA,NA,NA,NA,NA
uetQJPmK,NA,NA,uetQJPmK,2020-0188,2021-11-11,10:12:36,11:17:52,NA,incomplete,false,true,NA,5,8,E27_Q7_ansL.png,left,NA,NA,NA,left,1038,true,NA,NA,NA,NA,NA
uetQJPmK,NA,NA,uetQJPmK,2020-0188,2021-11-11,10:12:36,11:17:52,NA,incomplete,false,true,NA,5,9,E27_Q6_ansR.png,right,NA,NA,NA,right,1682,true,NA,NA,NA,NA,NA
uetQJPmK,NA,NA,uetQJPmK,2020-0188,2021-11-11,10:12:36,11:17:52,NA,incomplete,false,true,NA,5,10,E19_Q8_ansL.png,left,NA,NA,NA,left,2067,true,NA,NA,NA,NA,NA
uetQJPmK,NA,NA,uetQJPmK,2020-0188,2021-11-11,10:12:36,11:17:52,NA,incomplete,false,true,NA,5,11,E19_Q4_ansR.png,right,NA,NA,NA,right,826,true,NA,NA,NA,NA,NA
uetQJPmK,NA,NA,uetQJPmK,2020-0188,2021-11-11,10:12:36,11:17:52,NA,incomplete,false,true,NA,5,12,E19_Q10_ansL.png,left,NA,NA,NA,left,1485,true,NA,NA,NA,NA,NA
uetQJPmK,NA,NA,uetQJPmK,2020-0188,2021-11-11,10:12:36,11:17:52,NA,incomplete,false,true,NA,5,13,E19_Q1_ansL.png,left,NA,NA,NA,left,3020,true,NA,NA,NA,NA,NA
uetQJPmK,NA,NA,uetQJPmK,2020-0188,2021-11-11,10:12:36,11:17:52,NA,incomplete,false,true,NA,5,14,E19_Q7_ansL.png,left,NA,NA,NA,left,2195,true,NA,NA,NA,NA,NA
uetQJPmK,NA,NA,uetQJPmK,2020-0188,2021-11-11,10:12:36,11:17:52,NA,incomplete,false,true,NA,5,15,E19_Q5_ansR.png,right,NA,NA,NA,right,2343,true,NA,NA,NA,NA,NA
uetQJPmK,NA,NA,uetQJPmK,2020-0188,2021-11-11,10:12:36,11:17:52,NA,incomplete,false,true,NA,5,16,E19_Q3_ansR.png,right,NA,NA,NA,right,2506,true,NA,NA,NA,NA,NA
uetQJPmK,NA,NA,uetQJPmK,2020-0188,2021-11-11,10:12:36,11:17:52,NA,incomplete,false,true,NA,5,17,E19_Q9_ansR.png,right,NA,NA,NA,none,0,false,NA,NA,NA,NA,NA
uetQJPmK,NA,NA,uetQJPmK,2020-0188,2021-11-11,10:12:36,11:17:52,NA,incomplete,false,true,NA,5,18,E19_Q6_ansR.png,right,NA,NA,NA,right,1128,true,NA,NA,NA,NA,NA
uetQJPmK,NA,NA,uetQJPmK,2020-0188,2021-11-11,10:12:36,11:17:52,NA,incomplete,false,true,NA,5,19,E19_Q2_ansL.png,left,NA,NA,NA,left,1907,true,NA,NA,NA,NA,NA
uetQJPmK,NA,NA,uetQJPmK,2020-0188,2021-11-11,10:12:36,11:17:52,NA,incomplete,false,true,NA,5,20,E25_Q6_ansL.png,left,NA,NA,NA,left,2156,true,NA,NA,NA,NA,NA
uetQJPmK,NA,NA,uetQJPmK,2020-0188,2021-11-11,10:12:36,11:17:52,NA,incomplete,false,true,NA,5,21,E25_Q7_ansR.png,right,NA,NA,NA,right,2018,true,NA,NA,NA,NA,NA
uetQJPmK,NA,NA,uetQJPmK,2020-0188,2021-11-11,10:12:36,11:17:52,NA,incomplete,false,true,NA,5,22,E25_Q1_ansR.png,right,NA,NA,NA,right,1465,true,NA,NA,NA,NA,NA
uetQJPmK,NA,NA,uetQJPmK,2020-0188,2021-11-11,10:12:36,11:17:52,NA,incomplete,false,true,NA,5,23,E25_Q3_ansL.png,left,NA,NA,NA,left,2744,true,NA,NA,NA,NA,NA
uetQJPmK,NA,NA,uetQJPmK,2020-0188,2021-11-11,10:12:36,11:17:52,NA,incomplete,false,true,NA,5,24,E25_Q8_ansR.png,right,NA,NA,NA,right,979,true,NA,NA,NA,NA,NA
uetQJPmK,NA,NA,uetQJPmK,2020-0188,2021-11-11,10:12:36,11:17:52,NA,incomplete,false,true,NA,5,25,E25_Q4_ansL.png,left,NA,NA,NA,left,1806,true,NA,NA,NA,NA,NA
uetQJPmK,NA,NA,uetQJPmK,2020-0188,2021-11-11,10:12:36,11:17:52,NA,incomplete,false,true,NA,5,26,E25_Q10_ansR.png,right,NA,NA,NA,right,1798,true,NA,NA,NA,NA,NA
uetQJPmK,NA,NA,uetQJPmK,2020-0188,2021-11-11,10:12:36,11:17:52,NA,incomplete,false,true,NA,5,27,E25_Q5_ansL.png,left,NA,NA,NA,none,0,false,NA,NA,NA,NA,NA
uetQJPmK,NA,NA,uetQJPmK,2020-0188,2021-11-11,10:12:36,11:17:52,NA,incomplete,false,true,NA,5,28,E25_Q2_ansR.png,right,NA,NA,NA,none,0,false,NA,NA,NA,NA,NA
uetQJPmK,NA,NA,uetQJPmK,2020-0188,2021-11-11,10:12:36,11:17:52,NA,incomplete,false,true,NA,5,29,E25_Q9_ansL.png,left,NA,NA,NA,right,114,false,NA,NA,NA,NA,NA
uetQJPmK,NA,NA,uetQJPmK,2020-0188,2021-11-11,10:12:36,11:17:52,NA,incomplete,false,NA,true,5,0,NA,right,E25_Q1_ansR.png,E19_Q2_ansL.png,between,NA,NaN,NA,right,3640,1,2,2449
uetQJPmK,NA,NA,uetQJPmK,2020-0188,2021-11-11,10:12:36,11:17:52,NA,incomplete,false,NA,true,5,1,NA,right,E25_Q8_ansR.png,E25_Q7_ansR.png,within,NA,NaN,NA,right,1777,1,1,727
uetQJPmK,NA,NA,uetQJPmK,2020-0188,2021-11-11,10:12:36,11:17:52,NA,incomplete,false,NA,true,5,2,NA,left,E19_Q10_ansL.png,E19_Q5_ansR.png,within,NA,NaN,NA,right,3654,0,1,2224
uetQJPmK,NA,NA,uetQJPmK,2020-0188,2021-11-11,10:12:36,11:17:52,NA,incomplete,false,NA,true,5,3,NA,right,E27_Q8_ansL.png,E27_Q10_ansL.png,within,NA,NaN,NA,right,1657,1,0,921
uetQJPmK,NA,NA,uetQJPmK,2020-0188,2021-11-11,10:12:36,11:17:52,NA,incomplete,false,NA,true,5,4,NA,left,E27_Q3_ansR.png,E27_Q6_ansR.png,within,NA,NaN,NA,left,1794,1,1,1349
uetQJPmK,NA,NA,uetQJPmK,2020-0188,2021-11-11,10:12:36,11:17:52,NA,incomplete,false,NA,true,5,5,NA,right,E19_Q10_ansL.png,E27_Q6_ansR.png,between,NA,NaN,NA,right,1386,1,2,1091
uetQJPmK,NA,NA,uetQJPmK,2020-0188,2021-11-11,10:12:36,11:17:52,NA,incomplete,false,NA,true,5,6,NA,right,E27_Q4_ansR.png,E27_Q9_ansR.png,within,NA,NaN,NA,left,1615,0,1,1095
uetQJPmK,NA,NA,uetQJPmK,2020-0188,2021-11-11,10:12:36,11:17:52,NA,incomplete,false,NA,true,5,7,NA,right,E19_Q4_ansR.png,E27_Q7_ansL.png,between,NA,NaN,NA,right,3451,1,2,2029
uetQJPmK,NA,NA,uetQJPmK,2020-0188,2021-11-11,10:12:36,11:17:52,NA,incomplete,false,NA,true,5,8,NA,right,E25_Q9_ansL.png,E25_Q10_ansR.png,within,NA,NaN,NA,right,3403,1,1,776
uetQJPmK,NA,NA,uetQJPmK,2020-0188,2021-11-11,10:12:36,11:17:52,NA,incomplete,false,NA,true,5,9,NA,right,E19_Q7_ansL.png,E19_Q4_ansR.png,within,NA,NaN,NA,right,1500,1,0,1884
uetQJPmK,NA,NA,uetQJPmK,2020-0188,2021-11-11,10:12:36,11:17:52,NA,incomplete,false,NA,true,5,10,NA,left,E19_Q7_ansL.png,E19_Q9_ansR.png,within,NA,NaN,NA,right,1770,0,1,1032
uetQJPmK,NA,NA,uetQJPmK,2020-0188,2021-11-11,10:12:36,11:17:52,NA,incomplete,false,NA,true,5,11,NA,right,E25_Q2_ansR.png,E25_Q4_ansL.png,within,NA,NaN,NA,left,2362,0,1,1130
uetQJPmK,NA,NA,uetQJPmK,2020-0188,2021-11-11,10:12:36,11:17:52,NA,incomplete,false,NA,true,5,12,NA,right,E27_Q9_ansR.png,E27_Q5_ansR.png,within,NA,NaN,NA,right,1101,1,0,1156
uetQJPmK,NA,NA,uetQJPmK,2020-0188,2021-11-11,10:12:36,11:17:52,NA,incomplete,false,NA,true,5,13,NA,right,E19_Q3_ansR.png,E19_Q1_ansL.png,within,NA,NaN,NA,right,1508,1,0,1218
uetQJPmK,NA,NA,uetQJPmK,2020-0188,2021-11-11,10:12:36,11:17:52,NA,incomplete,false,NA,true,5,14,NA,right,E25_Q10_ansR.png,E25_Q3_ansL.png,within,NA,NaN,NA,right,1423,1,1,849
uetQJPmK,NA,NA,uetQJPmK,2020-0188,2021-11-11,10:12:36,11:17:52,NA,incomplete,false,NA,true,5,15,NA,right,E19_Q6_ansR.png,E19_Q5_ansR.png,within,NA,NaN,NA,right,1390,1,1,889
uetQJPmK,NA,NA,uetQJPmK,2020-0188,2021-11-11,10:12:36,11:17:52,NA,incomplete,false,NA,true,5,16,NA,right,E19_Q2_ansL.png,E19_Q3_ansR.png,within,NA,NaN,NA,left,1989,0,1,889
uetQJPmK,NA,NA,uetQJPmK,2020-0188,2021-11-11,10:12:36,11:17:52,NA,incomplete,false,NA,true,5,17,NA,left,E25_Q8_ansR.png,E25_Q5_ansL.png,within,NA,NaN,NA,left,2054,1,1,1204
uetQJPmK,NA,NA,uetQJPmK,2020-0188,2021-11-11,10:12:36,11:17:52,NA,incomplete,false,NA,true,5,18,NA,left,E27_Q2_ansL.png,E27_Q1_ansL.png,within,NA,NaN,NA,right,1546,0,1,1278
uetQJPmK,NA,NA,uetQJPmK,2020-0188,2021-11-11,10:12:36,11:17:52,NA,incomplete,false,NA,true,5,19,NA,left,E27_Q1_ansL.png,E27_Q7_ansL.png,within,NA,NaN,NA,right,1003,0,2,955
uetQJPmK,NA,NA,uetQJPmK,2020-0188,2021-11-11,10:12:36,11:17:52,NA,incomplete,false,NA,true,5,20,NA,left,E19_Q9_ansR.png,E25_Q6_ansL.png,between,NA,NaN,NA,left,2579,1,2,937
uetQJPmK,NA,NA,uetQJPmK,2020-0188,2021-11-11,10:12:36,11:17:52,NA,incomplete,false,NA,true,5,21,NA,right,E27_Q3_ansR.png,E27_Q8_ansL.png,within,NA,NaN,NA,left,1819,0,1,986
uetQJPmK,NA,NA,uetQJPmK,2020-0188,2021-11-11,10:12:36,11:17:52,NA,incomplete,false,NA,true,5,22,NA,right,E25_Q7_ansR.png,E19_Q6_ansR.png,between,NA,NaN,NA,right,2133,1,2,938
uetQJPmK,NA,NA,uetQJPmK,2020-0188,2021-11-11,10:12:36,11:17:52,NA,incomplete,false,NA,true,5,23,NA,left,E19_Q8_ansL.png,E19_Q1_ansL.png,within,NA,NaN,NA,left,2071,1,1,1834
uetQJPmK,NA,NA,uetQJPmK,2020-0188,2021-11-11,10:12:36,11:17:52,NA,incomplete,false,NA,true,5,24,NA,left,E25_Q1_ansR.png,E25_Q4_ansL.png,within,NA,NaN,NA,right,1318,0,1,1315
uetQJPmK,NA,NA,uetQJPmK,2020-0188,2021-11-11,10:12:36,11:17:52,NA,incomplete,false,NA,true,5,25,NA,right,E19_Q8_ansL.png,E27_Q4_ansR.png,between,NA,NaN,NA,right,1018,1,2,920
uetQJPmK,NA,NA,uetQJPmK,2020-0188,2021-11-11,10:12:36,11:17:52,NA,incomplete,false,NA,true,5,26,NA,left,E25_Q6_ansL.png,E25_Q3_ansL.png,within,NA,NaN,NA,left,1687,1,1,924
uetQJPmK,NA,NA,uetQJPmK,2020-0188,2021-11-11,10:12:36,11:17:52,NA,incomplete,false,true,NA,6,0,E5_Q5_ansR.png,right,NA,NA,NA,right,1726,true,NA,NA,NA,NA,NA
uetQJPmK,NA,NA,uetQJPmK,2020-0188,2021-11-11,10:12:36,11:17:52,NA,incomplete,false,true,NA,6,1,E5_Q4_ansR.png,right,NA,NA,NA,none,0,false,NA,NA,NA,NA,NA
uetQJPmK,NA,NA,uetQJPmK,2020-0188,2021-11-11,10:12:36,11:17:52,NA,incomplete,false,true,NA,6,2,E5_Q3_ansR.png,right,NA,NA,NA,right,1397,true,NA,NA,NA,NA,NA
uetQJPmK,NA,NA,uetQJPmK,2020-0188,2021-11-11,10:12:36,11:17:52,NA,incomplete,false,true,NA,6,3,E5_Q9_ansR.png,right,NA,NA,NA,right,1428,true,NA,NA,NA,NA,NA
uetQJPmK,NA,NA,uetQJPmK,2020-0188,2021-11-11,10:12:36,11:17:52,NA,incomplete,false,true,NA,6,4,E5_Q8_ansL.png,left,NA,NA,NA,none,0,false,NA,NA,NA,NA,NA
uetQJPmK,NA,NA,uetQJPmK,2020-0188,2021-11-11,10:12:36,11:17:52,NA,incomplete,false,true,NA,6,5,E5_Q10_ansR.png,right,NA,NA,NA,right,2034,true,NA,NA,NA,NA,NA
uetQJPmK,NA,NA,uetQJPmK,2020-0188,2021-11-11,10:12:36,11:17:52,NA,incomplete,false,true,NA,6,6,E5_Q6_ansR.png,right,NA,NA,NA,right,1410,true,NA,NA,NA,NA,NA
uetQJPmK,NA,NA,uetQJPmK,2020-0188,2021-11-11,10:12:36,11:17:52,NA,incomplete,false,true,NA,6,7,E5_Q7_ansL.png,left,NA,NA,NA,left,2485,true,NA,NA,NA,NA,NA
uetQJPmK,NA,NA,uetQJPmK,2020-0188,2021-11-11,10:12:36,11:17:52,NA,incomplete,false,true,NA,6,8,E5_Q2_ansL.png,left,NA,NA,NA,left,2421,true,NA,NA,NA,NA,NA
uetQJPmK,NA,NA,uetQJPmK,2020-0188,2021-11-11,10:12:36,11:17:52,NA,incomplete,false,true,NA,6,9,E5_Q1_ansL.png,left,NA,NA,NA,none,0,false,NA,NA,NA,NA,NA
uetQJPmK,NA,NA,uetQJPmK,2020-0188,2021-11-11,10:12:36,11:17:52,NA,incomplete,false,true,NA,6,10,E14_Q3_ansR.png,right,NA,NA,NA,right,1710,true,NA,NA,NA,NA,NA
uetQJPmK,NA,NA,uetQJPmK,2020-0188,2021-11-11,10:12:36,11:17:52,NA,incomplete,false,true,NA,6,11,E14_Q4_ansR.png,right,NA,NA,NA,right,738,true,NA,NA,NA,NA,NA
uetQJPmK,NA,NA,uetQJPmK,2020-0188,2021-11-11,10:12:36,11:17:52,NA,incomplete,false,true,NA,6,12,E14_Q9_ansR.png,right,NA,NA,NA,right,1477,true,NA,NA,NA,NA,NA
uetQJPmK,NA,NA,uetQJPmK,2020-0188,2021-11-11,10:12:36,11:17:52,NA,incomplete,false,true,NA,6,13,E14_Q6_ansR.png,right,NA,NA,NA,right,2316,true,NA,NA,NA,NA,NA
uetQJPmK,NA,NA,uetQJPmK,2020-0188,2021-11-11,10:12:36,11:17:52,NA,incomplete,false,true,NA,6,14,E14_Q1_ansL.png,left,NA,NA,NA,left,831,true,NA,NA,NA,NA,NA
uetQJPmK,NA,NA,uetQJPmK,2020-0188,2021-11-11,10:12:36,11:17:52,NA,incomplete,false,true,NA,6,15,E14_Q7_ansL.png,left,NA,NA,NA,left,899,true,NA,NA,NA,NA,NA
uetQJPmK,NA,NA,uetQJPmK,2020-0188,2021-11-11,10:12:36,11:17:52,NA,incomplete,false,true,NA,6,16,E14_Q8_ansL.png,left,NA,NA,NA,left,2784,true,NA,NA,NA,NA,NA
uetQJPmK,NA,NA,uetQJPmK,2020-0188,2021-11-11,10:12:36,11:17:52,NA,incomplete,false,true,NA,6,17,E14_Q5_ansR.png,right,NA,NA,NA,none,0,false,NA,NA,NA,NA,NA
uetQJPmK,NA,NA,uetQJPmK,2020-0188,2021-11-11,10:12:36,11:17:52,NA,incomplete,false,true,NA,6,18,E14_Q10_ansL.png,left,NA,NA,NA,left,942,true,NA,NA,NA,NA,NA
uetQJPmK,NA,NA,uetQJPmK,2020-0188,2021-11-11,10:12:36,11:17:52,NA,incomplete,false,true,NA,6,19,E14_Q2_ansL.png,left,NA,NA,NA,left,3036,true,NA,NA,NA,NA,NA
uetQJPmK,NA,NA,uetQJPmK,2020-0188,2021-11-11,10:12:36,11:17:52,NA,incomplete,false,true,NA,6,20,E31_Q5_ansL.png,left,NA,NA,NA,none,0,false,NA,NA,NA,NA,NA
uetQJPmK,NA,NA,uetQJPmK,2020-0188,2021-11-11,10:12:36,11:17:52,NA,incomplete,false,true,NA,6,21,E31_Q1_ansR.png,right,NA,NA,NA,right,879,true,NA,NA,NA,NA,NA
uetQJPmK,NA,NA,uetQJPmK,2020-0188,2021-11-11,10:12:36,11:17:52,NA,incomplete,false,true,NA,6,22,E31_Q4_ansL.png,left,NA,NA,NA,left,1103,true,NA,NA,NA,NA,NA
uetQJPmK,NA,NA,uetQJPmK,2020-0188,2021-11-11,10:12:36,11:17:52,NA,incomplete,false,true,NA,6,23,E31_Q10_ansR.png,right,NA,NA,NA,right,1082,true,NA,NA,NA,NA,NA
uetQJPmK,NA,NA,uetQJPmK,2020-0188,2021-11-11,10:12:36,11:17:52,NA,incomplete,false,true,NA,6,24,E31_Q7_ansR.png,right,NA,NA,NA,right,1114,true,NA,NA,NA,NA,NA
uetQJPmK,NA,NA,uetQJPmK,2020-0188,2021-11-11,10:12:36,11:17:52,NA,incomplete,false,true,NA,6,25,E31_Q8_ansR.png,right,NA,NA,NA,right,1168,true,NA,NA,NA,NA,NA
uetQJPmK,NA,NA,uetQJPmK,2020-0188,2021-11-11,10:12:36,11:17:52,NA,incomplete,false,true,NA,6,26,E31_Q6_ansL.png,left,NA,NA,NA,left,885,true,NA,NA,NA,NA,NA
uetQJPmK,NA,NA,uetQJPmK,2020-0188,2021-11-11,10:12:36,11:17:52,NA,incomplete,false,true,NA,6,27,E31_Q9_ansL.png,left,NA,NA,NA,left,1099,true,NA,NA,NA,NA,NA
uetQJPmK,NA,NA,uetQJPmK,2020-0188,2021-11-11,10:12:36,11:17:52,NA,incomplete,false,true,NA,6,28,E31_Q2_ansR.png,right,NA,NA,NA,right,1851,true,NA,NA,NA,NA,NA
uetQJPmK,NA,NA,uetQJPmK,2020-0188,2021-11-11,10:12:36,11:17:52,NA,incomplete,false,true,NA,6,29,E31_Q3_ansL.png,left,NA,NA,NA,left,898,true,NA,NA,NA,NA,NA
uetQJPmK,NA,NA,uetQJPmK,2020-0188,2021-11-11,10:12:36,11:17:52,NA,incomplete,false,NA,true,6,0,NA,right,E31_Q2_ansR.png,E31_Q8_ansR.png,within,NA,NaN,NA,right,286,1,0,1817
uetQJPmK,NA,NA,uetQJPmK,2020-0188,2021-11-11,10:12:36,11:17:52,NA,incomplete,false,NA,true,6,1,NA,left,E14_Q5_ansR.png,E31_Q5_ansL.png,between,NA,NaN,NA,left,1726,1,2,1463
uetQJPmK,NA,NA,uetQJPmK,2020-0188,2021-11-11,10:12:36,11:17:52,NA,incomplete,false,NA,true,6,2,NA,right,E31_Q6_ansL.png,E31_Q10_ansR.png,within,NA,NaN,NA,left,2789,0,0,1640
uetQJPmK,NA,NA,uetQJPmK,2020-0188,2021-11-11,10:12:36,11:17:52,NA,incomplete,false,NA,true,6,3,NA,left,E14_Q10_ansL.png,E31_Q1_ansR.png,between,NA,NaN,NA,left,1820,1,2,1828
uetQJPmK,NA,NA,uetQJPmK,2020-0188,2021-11-11,10:12:36,11:17:52,NA,incomplete,false,NA,true,6,4,NA,left,E5_Q7_ansL.png,E14_Q3_ansR.png,between,NA,NaN,NA,left,2032,1,2,1422
uetQJPmK,NA,NA,uetQJPmK,2020-0188,2021-11-11,10:12:36,11:17:52,NA,incomplete,false,NA,true,6,5,NA,left,E31_Q1_ansR.png,E31_Q7_ansR.png,within,NA,NaN,NA,left,1956,1,1,1006
uetQJPmK,NA,NA,uetQJPmK,2020-0188,2021-11-11,10:12:36,11:17:52,NA,incomplete,false,NA,true,6,6,NA,left,E14_Q4_ansR.png,E14_Q1_ansL.png,within,NA,NaN,NA,left,2376,1,0,1341
uetQJPmK,NA,NA,uetQJPmK,2020-0188,2021-11-11,10:12:36,11:17:52,NA,incomplete,false,NA,true,6,7,NA,left,E31_Q6_ansL.png,E31_Q3_ansL.png,within,NA,NaN,NA,left,1787,1,0,760
uetQJPmK,NA,NA,uetQJPmK,2020-0188,2021-11-11,10:12:36,11:17:52,NA,incomplete,false,NA,true,6,8,NA,left,E5_Q2_ansL.png,E14_Q4_ansR.png,between,NA,NaN,NA,left,1624,1,2,1205
uetQJPmK,NA,NA,uetQJPmK,2020-0188,2021-11-11,10:12:36,11:17:52,NA,incomplete,false,NA,true,6,9,NA,left,E5_Q6_ansR.png,E5_Q1_ansL.png,within,NA,NaN,NA,right,2191,0,0,939
uetQJPmK,NA,NA,uetQJPmK,2020-0188,2021-11-11,10:12:36,11:17:52,NA,incomplete,false,NA,true,6,10,NA,left,E31_Q5_ansL.png,E31_Q10_ansR.png,within,NA,NaN,NA,left,1529,1,1,946
uetQJPmK,NA,NA,uetQJPmK,2020-0188,2021-11-11,10:12:36,11:17:52,NA,incomplete,false,NA,true,6,11,NA,right,E5_Q2_ansL.png,E5_Q10_ansR.png,within,NA,NaN,NA,left,1366,0,0,888
uetQJPmK,NA,NA,uetQJPmK,2020-0188,2021-11-11,10:12:36,11:17:52,NA,incomplete,false,NA,true,6,12,NA,left,E31_Q7_ansR.png,E31_Q9_ansL.png,within,NA,NaN,NA,right,2056,0,1,945
uetQJPmK,NA,NA,uetQJPmK,2020-0188,2021-11-11,10:12:36,11:17:52,NA,incomplete,false,NA,true,6,13,NA,right,E5_Q8_ansL.png,E5_Q4_ansR.png,within,NA,NaN,NA,right,1393,1,1,712
uetQJPmK,NA,NA,uetQJPmK,2020-0188,2021-11-11,10:12:36,11:17:52,NA,incomplete,false,NA,true,6,14,NA,right,E31_Q4_ansL.png,E14_Q2_ansL.png,between,NA,NaN,NA,right,2493,1,2,2419
uetQJPmK,NA,NA,uetQJPmK,2020-0188,2021-11-11,10:12:36,11:17:52,NA,incomplete,false,NA,true,6,15,NA,right,E31_Q8_ansR.png,E31_Q4_ansL.png,within,NA,NaN,NA,right,1478,1,1,1000
uetQJPmK,NA,NA,uetQJPmK,2020-0188,2021-11-11,10:12:36,11:17:52,NA,incomplete,false,NA,true,6,16,NA,right,E5_Q10_ansR.png,E5_Q3_ansR.png,within,NA,NaN,NA,right,1237,1,0,1174
uetQJPmK,NA,NA,uetQJPmK,2020-0188,2021-11-11,10:12:36,11:17:52,NA,incomplete,false,NA,true,6,17,NA,right,E14_Q8_ansL.png,E14_Q6_ansR.png,within,NA,NaN,NA,right,2067,1,0,1031
uetQJPmK,NA,NA,uetQJPmK,2020-0188,2021-11-11,10:12:36,11:17:52,NA,incomplete,false,NA,true,6,18,NA,right,E14_Q6_ansR.png,E14_Q3_ansR.png,within,NA,NaN,NA,right,2636,1,0,967
uetQJPmK,NA,NA,uetQJPmK,2020-0188,2021-11-11,10:12:36,11:17:52,NA,incomplete,false,NA,true,6,19,NA,left,E14_Q9_ansR.png,E14_Q7_ansL.png,within,NA,NaN,NA,left,1972,1,0,1139
uetQJPmK,NA,NA,uetQJPmK,2020-0188,2021-11-11,10:12:36,11:17:52,NA,incomplete,false,NA,true,6,20,NA,right,E14_Q5_ansR.png,E14_Q1_ansL.png,within,NA,NaN,NA,right,4824,1,1,1579
uetQJPmK,NA,NA,uetQJPmK,2020-0188,2021-11-11,10:12:36,11:17:52,NA,incomplete,false,NA,true,6,21,NA,left,E5_Q1_ansL.png,E14_Q9_ansR.png,between,NA,NaN,NA,left,2401,1,2,1359
uetQJPmK,NA,NA,uetQJPmK,2020-0188,2021-11-11,10:12:36,11:17:52,NA,incomplete,false,NA,true,6,22,NA,right,E5_Q6_ansR.png,E5_Q9_ansR.png,within,NA,NaN,NA,right,2158,1,1,945
uetQJPmK,NA,NA,uetQJPmK,2020-0188,2021-11-11,10:12:36,11:17:52,NA,incomplete,false,NA,true,6,23,NA,left,E5_Q8_ansL.png,E5_Q7_ansL.png,within,NA,NaN,NA,right,1462,0,0,1355
uetQJPmK,NA,NA,uetQJPmK,2020-0188,2021-11-11,10:12:36,11:17:52,NA,incomplete,false,NA,true,6,24,NA,right,E14_Q10_ansL.png,E14_Q7_ansL.png,within,NA,NaN,NA,right,1668,1,1,989
uetQJPmK,NA,NA,uetQJPmK,2020-0188,2021-11-11,10:12:36,11:17:52,NA,incomplete,false,NA,true,6,25,NA,left,E14_Q8_ansL.png,E14_Q2_ansL.png,within,NA,NaN,NA,right,1535,0,1,1018
uetQJPmK,NA,NA,uetQJPmK,2020-0188,2021-11-11,10:12:36,11:17:52,NA,incomplete,false,NA,true,6,26,NA,left,E5_Q5_ansR.png,E5_Q9_ansR.png,within,NA,NaN,NA,left,2432,1,0,962
uetQJPmK,NA,NA,uetQJPmK,2020-0188,2021-11-11,10:12:36,11:17:52,NA,incomplete,false,true,NA,7,0,E6_Q1_ansL.png,left,NA,NA,NA,left,2359,true,NA,NA,NA,NA,NA
uetQJPmK,NA,NA,uetQJPmK,2020-0188,2021-11-11,10:12:36,11:17:52,NA,incomplete,false,true,NA,7,1,E6_Q9_ansL.png,left,NA,NA,NA,left,1328,true,NA,NA,NA,NA,NA
uetQJPmK,NA,NA,uetQJPmK,2020-0188,2021-11-11,10:12:36,11:17:52,NA,incomplete,false,true,NA,7,2,E6_Q7_ansL.png,left,NA,NA,NA,right,1211,false,NA,NA,NA,NA,NA
uetQJPmK,NA,NA,uetQJPmK,2020-0188,2021-11-11,10:12:36,11:17:52,NA,incomplete,false,true,NA,7,3,E6_Q6_ansR.png,right,NA,NA,NA,right,1720,true,NA,NA,NA,NA,NA
uetQJPmK,NA,NA,uetQJPmK,2020-0188,2021-11-11,10:12:36,11:17:52,NA,incomplete,false,true,NA,7,4,E6_Q2_ansL.png,left,NA,NA,NA,left,3260,true,NA,NA,NA,NA,NA
uetQJPmK,NA,NA,uetQJPmK,2020-0188,2021-11-11,10:12:36,11:17:52,NA,incomplete,false,true,NA,7,5,E6_Q3_ansR.png,right,NA,NA,NA,none,0,false,NA,NA,NA,NA,NA
uetQJPmK,NA,NA,uetQJPmK,2020-0188,2021-11-11,10:12:36,11:17:52,NA,incomplete,false,true,NA,7,6,E6_Q10_ansL.png,left,NA,NA,NA,left,1313,true,NA,NA,NA,NA,NA
uetQJPmK,NA,NA,uetQJPmK,2020-0188,2021-11-11,10:12:36,11:17:52,NA,incomplete,false,true,NA,7,7,E6_Q5_ansR.png,right,NA,NA,NA,none,0,false,NA,NA,NA,NA,NA
uetQJPmK,NA,NA,uetQJPmK,2020-0188,2021-11-11,10:12:36,11:17:52,NA,incomplete,false,true,NA,7,8,E6_Q8_ansL.png,left,NA,NA,NA,left,2799,true,NA,NA,NA,NA,NA
uetQJPmK,NA,NA,uetQJPmK,2020-0188,2021-11-11,10:12:36,11:17:52,NA,incomplete,false,true,NA,7,9,E6_Q4_ansR.png,right,NA,NA,NA,right,2796,true,NA,NA,NA,NA,NA
uetQJPmK,NA,NA,uetQJPmK,2020-0188,2021-11-11,10:12:36,11:17:52,NA,incomplete,false,true,NA,7,10,E2_Q4_ansL.png,left,NA,NA,NA,left,2549,true,NA,NA,NA,NA,NA
uetQJPmK,NA,NA,uetQJPmK,2020-0188,2021-11-11,10:12:36,11:17:52,NA,incomplete,false,true,NA,7,11,E2_Q7_ansR.png,right,NA,NA,NA,right,2193,true,NA,NA,NA,NA,NA
uetQJPmK,NA,NA,uetQJPmK,2020-0188,2021-11-11,10:12:36,11:17:52,NA,incomplete,false,true,NA,7,12,E2_Q1_ansL.png,left,NA,NA,NA,left,3352,true,NA,NA,NA,NA,NA
uetQJPmK,NA,NA,uetQJPmK,2020-0188,2021-11-11,10:12:36,11:17:52,NA,incomplete,false,true,NA,7,13,E2_Q6_ansL.png,left,NA,NA,NA,none,0,false,NA,NA,NA,NA,NA
uetQJPmK,NA,NA,uetQJPmK,2020-0188,2021-11-11,10:12:36,11:17:52,NA,incomplete,false,true,NA,7,14,E2_Q5_ansL.png,left,NA,NA,NA,left,1180,true,NA,NA,NA,NA,NA
uetQJPmK,NA,NA,uetQJPmK,2020-0188,2021-11-11,10:12:36,11:17:52,NA,incomplete,false,true,NA,7,15,E2_Q10_ansL.png,left,NA,NA,NA,left,2562,true,NA,NA,NA,NA,NA
uetQJPmK,NA,NA,uetQJPmK,2020-0188,2021-11-11,10:12:36,11:17:52,NA,incomplete,false,true,NA,7,16,E2_Q8_ansR.png,right,NA,NA,NA,right,1253,true,NA,NA,NA,NA,NA
uetQJPmK,NA,NA,uetQJPmK,2020-0188,2021-11-11,10:12:36,11:17:52,NA,incomplete,false,true,NA,7,17,E2_Q3_ansR.png,right,NA,NA,NA,right,1362,true,NA,NA,NA,NA,NA
uetQJPmK,NA,NA,uetQJPmK,2020-0188,2021-11-11,10:12:36,11:17:52,NA,incomplete,false,true,NA,7,18,E2_Q2_ansR.png,right,NA,NA,NA,none,0,false,NA,NA,NA,NA,NA
uetQJPmK,NA,NA,uetQJPmK,2020-0188,2021-11-11,10:12:36,11:17:52,NA,incomplete,false,true,NA,7,19,E2_Q9_ansL.png,left,NA,NA,NA,left,1732,true,NA,NA,NA,NA,NA
uetQJPmK,NA,NA,uetQJPmK,2020-0188,2021-11-11,10:12:36,11:17:52,NA,incomplete,false,true,NA,7,20,E1_Q1_ansL.png,left,NA,NA,NA,none,0,false,NA,NA,NA,NA,NA
uetQJPmK,NA,NA,uetQJPmK,2020-0188,2021-11-11,10:12:36,11:17:52,NA,incomplete,false,true,NA,7,21,E1_Q6_ansR.png,right,NA,NA,NA,right,1302,true,NA,NA,NA,NA,NA
uetQJPmK,NA,NA,uetQJPmK,2020-0188,2021-11-11,10:12:36,11:17:52,NA,incomplete,false,true,NA,7,22,E1_Q5_ansR.png,right,NA,NA,NA,right,2440,true,NA,NA,NA,NA,NA
uetQJPmK,NA,NA,uetQJPmK,2020-0188,2021-11-11,10:12:36,11:17:52,NA,incomplete,false,true,NA,7,23,E1_Q2_ansL.png,left,NA,NA,NA,left,1703,true,NA,NA,NA,NA,NA
uetQJPmK,NA,NA,uetQJPmK,2020-0188,2021-11-11,10:12:36,11:17:52,NA,incomplete,false,true,NA,7,24,E1_Q9_ansL.png,left,NA,NA,NA,left,3106,true,NA,NA,NA,NA,NA
uetQJPmK,NA,NA,uetQJPmK,2020-0188,2021-11-11,10:12:36,11:17:52,NA,incomplete,false,true,NA,7,25,E1_Q8_ansR.png,right,NA,NA,NA,right,2892,true,NA,NA,NA,NA,NA
uetQJPmK,NA,NA,uetQJPmK,2020-0188,2021-11-11,10:12:36,11:17:52,NA,incomplete,false,true,NA,7,26,E1_Q4_ansL.png,left,NA,NA,NA,left,2857,true,NA,NA,NA,NA,NA
uetQJPmK,NA,NA,uetQJPmK,2020-0188,2021-11-11,10:12:36,11:17:52,NA,incomplete,false,true,NA,7,27,E1_Q10_ansR.png,right,NA,NA,NA,right,2831,true,NA,NA,NA,NA,NA
uetQJPmK,NA,NA,uetQJPmK,2020-0188,2021-11-11,10:12:36,11:17:52,NA,incomplete,false,true,NA,7,28,E1_Q7_ansL.png,left,NA,NA,NA,left,2470,true,NA,NA,NA,NA,NA
uetQJPmK,NA,NA,uetQJPmK,2020-0188,2021-11-11,10:12:36,11:17:52,NA,incomplete,false,true,NA,7,29,E1_Q3_ansR.png,right,NA,NA,NA,right,2620,true,NA,NA,NA,NA,NA
uetQJPmK,NA,NA,uetQJPmK,2020-0188,2021-11-11,10:12:36,11:17:52,NA,incomplete,false,NA,true,7,0,NA,right,E2_Q9_ansL.png,E2_Q8_ansR.png,within,NA,NaN,NA,left,2331,0,0,1518
uetQJPmK,NA,NA,uetQJPmK,2020-0188,2021-11-11,10:12:36,11:17:52,NA,incomplete,false,NA,true,7,1,NA,left,E2_Q6_ansL.png,E2_Q8_ansR.png,within,NA,NaN,NA,left,2083,1,0,1756
uetQJPmK,NA,NA,uetQJPmK,2020-0188,2021-11-11,10:12:36,11:17:52,NA,incomplete,false,NA,true,7,2,NA,right,E1_Q4_ansL.png,E1_Q2_ansL.png,within,NA,NaN,NA,right,1531,1,0,1259
uetQJPmK,NA,NA,uetQJPmK,2020-0188,2021-11-11,10:12:36,11:17:52,NA,incomplete,false,NA,true,7,3,NA,right,E2_Q3_ansR.png,E2_Q5_ansL.png,within,NA,NaN,NA,right,1189,1,0,1083
uetQJPmK,NA,NA,uetQJPmK,2020-0188,2021-11-11,10:12:36,11:17:52,NA,incomplete,false,NA,true,7,4,NA,left,E2_Q10_ansL.png,E2_Q2_ansR.png,within,NA,NaN,NA,left,1253,1,0,986
uetQJPmK,NA,NA,uetQJPmK,2020-0188,2021-11-11,10:12:36,11:17:52,NA,incomplete,false,NA,true,7,5,NA,left,E2_Q9_ansL.png,E1_Q5_ansR.png,between,NA,NaN,NA,left,1438,1,2,1373
uetQJPmK,NA,NA,uetQJPmK,2020-0188,2021-11-11,10:12:36,11:17:52,NA,incomplete,false,NA,true,7,6,NA,left,E2_Q2_ansR.png,E1_Q6_ansR.png,between,NA,NaN,NA,left,1356,1,2,954
uetQJPmK,NA,NA,uetQJPmK,2020-0188,2021-11-11,10:12:36,11:17:52,NA,incomplete,false,NA,true,7,7,NA,left,E1_Q5_ansR.png,E1_Q8_ansR.png,within,NA,NaN,NA,left,1186,1,1,1183
uetQJPmK,NA,NA,uetQJPmK,2020-0188,2021-11-11,10:12:36,11:17:52,NA,incomplete,false,NA,true,7,8,NA,left,E6_Q6_ansR.png,E6_Q10_ansL.png,within,NA,NaN,NA,left,1125,1,0,1697
uetQJPmK,NA,NA,uetQJPmK,2020-0188,2021-11-11,10:12:36,11:17:52,NA,incomplete,false,NA,true,7,9,NA,right,E2_Q4_ansL.png,E6_Q5_ansR.png,between,NA,NaN,NA,right,6053,1,1,1218
uetQJPmK,NA,NA,uetQJPmK,2020-0188,2021-11-11,10:12:36,11:17:52,NA,incomplete,false,NA,true,7,10,NA,left,E2_Q3_ansR.png,E1_Q1_ansL.png,between,NA,NaN,NA,left,1224,1,2,1034
uetQJPmK,NA,NA,uetQJPmK,2020-0188,2021-11-11,10:12:36,11:17:52,NA,incomplete,false,NA,true,7,11,NA,right,E6_Q3_ansR.png,E6_Q7_ansL.png,within,NA,NaN,NA,right,1735,1,1,1375
uetQJPmK,NA,NA,uetQJPmK,2020-0188,2021-11-11,10:12:36,11:17:52,NA,incomplete,false,NA,true,7,12,NA,left,E6_Q1_ansL.png,E6_Q6_ansR.png,within,NA,NaN,NA,left,1050,1,0,1559
uetQJPmK,NA,NA,uetQJPmK,2020-0188,2021-11-11,10:12:36,11:17:52,NA,incomplete,false,NA,true,7,13,NA,left,E6_Q4_ansR.png,E2_Q1_ansL.png,between,NA,NaN,NA,left,1019,1,2,994
uetQJPmK,NA,NA,uetQJPmK,2020-0188,2021-11-11,10:12:36,11:17:52,NA,incomplete,false,NA,true,7,14,NA,left,E6_Q9_ansL.png,E6_Q2_ansL.png,within,NA,NaN,NA,left,1732,1,0,905
uetQJPmK,NA,NA,uetQJPmK,2020-0188,2021-11-11,10:12:36,11:17:52,NA,incomplete,false,NA,true,7,15,NA,left,E2_Q7_ansR.png,E2_Q5_ansL.png,within,NA,NaN,NA,left,1577,1,0,962
uetQJPmK,NA,NA,uetQJPmK,2020-0188,2021-11-11,10:12:36,11:17:52,NA,incomplete,false,NA,true,7,16,NA,right,E1_Q2_ansL.png,E1_Q1_ansL.png,within,NA,NaN,NA,left,1035,0,0,1068
uetQJPmK,NA,NA,uetQJPmK,2020-0188,2021-11-11,10:12:36,11:17:52,NA,incomplete,false,NA,true,7,17,NA,right,E6_Q8_ansL.png,E6_Q3_ansR.png,within,NA,NaN,NA,left,1129,0,0,945
uetQJPmK,NA,NA,uetQJPmK,2020-0188,2021-11-11,10:12:36,11:17:52,NA,incomplete,false,NA,true,7,18,NA,right,E2_Q7_ansR.png,E6_Q8_ansL.png,between,NA,NaN,NA,right,2505,1,1,1899
uetQJPmK,NA,NA,uetQJPmK,2020-0188,2021-11-11,10:12:36,11:17:52,NA,incomplete,false,NA,true,7,19,NA,right,E6_Q5_ansR.png,E6_Q2_ansL.png,within,NA,NaN,NA,left,1059,0,0,1005
uetQJPmK,NA,NA,uetQJPmK,2020-0188,2021-11-11,10:12:36,11:17:52,NA,incomplete,false,NA,true,7,20,NA,right,E2_Q10_ansL.png,E2_Q1_ansL.png,within,NA,NaN,NA,left,1124,0,0,1373
uetQJPmK,NA,NA,uetQJPmK,2020-0188,2021-11-11,10:12:36,11:17:52,NA,incomplete,false,NA,true,7,21,NA,left,E1_Q8_ansR.png,E1_Q7_ansL.png,within,NA,NaN,NA,left,1205,1,0,2046
uetQJPmK,NA,NA,uetQJPmK,2020-0188,2021-11-11,10:12:36,11:17:52,NA,incomplete,false,NA,true,7,22,NA,left,E2_Q4_ansL.png,E2_Q6_ansL.png,within,NA,NaN,NA,right,2489,0,0,1675
uetQJPmK,NA,NA,uetQJPmK,2020-0188,2021-11-11,10:12:36,11:17:52,NA,incomplete,false,NA,true,7,23,NA,right,E1_Q9_ansL.png,E1_Q6_ansR.png,within,NA,NaN,NA,left,1260,0,0,1059
uetQJPmK,NA,NA,uetQJPmK,2020-0188,2021-11-11,10:12:36,11:17:52,NA,incomplete,false,NA,true,7,24,NA,right,E6_Q4_ansR.png,E6_Q10_ansL.png,within,NA,NaN,NA,left,938,0,0,1018
uetQJPmK,NA,NA,uetQJPmK,2020-0188,2021-11-11,10:12:36,11:17:52,NA,incomplete,false,NA,true,7,25,NA,right,E1_Q10_ansR.png,E1_Q9_ansL.png,within,NA,NaN,NA,left,811,0,0,1011
uetQJPmK,NA,NA,uetQJPmK,2020-0188,2021-11-11,10:12:36,11:17:52,NA,incomplete,false,NA,true,7,26,NA,right,E1_Q3_ansR.png,E1_Q4_ansL.png,within,NA,NaN,NA,right,921,1,0,1121
uetQJPmK,NA,NA,uetQJPmK,2020-0188,2021-11-11,10:12:36,11:17:52,NA,incomplete,false,true,NA,8,0,E9_Q4_ansL.png,left,NA,NA,NA,left,2110,true,NA,NA,NA,NA,NA
uetQJPmK,NA,NA,uetQJPmK,2020-0188,2021-11-11,10:12:36,11:17:52,NA,incomplete,false,true,NA,8,1,E9_Q9_ansL.png,left,NA,NA,NA,left,1538,true,NA,NA,NA,NA,NA
uetQJPmK,NA,NA,uetQJPmK,2020-0188,2021-11-11,10:12:36,11:17:52,NA,incomplete,false,true,NA,8,2,E9_Q3_ansL.png,left,NA,NA,NA,left,1223,true,NA,NA,NA,NA,NA
uetQJPmK,NA,NA,uetQJPmK,2020-0188,2021-11-11,10:12:36,11:17:52,NA,incomplete,false,true,NA,8,3,E9_Q6_ansL.png,left,NA,NA,NA,left,2259,true,NA,NA,NA,NA,NA
uetQJPmK,NA,NA,uetQJPmK,2020-0188,2021-11-11,10:12:36,11:17:52,NA,incomplete,false,true,NA,8,4,E9_Q8_ansR.png,right,NA,NA,NA,right,3024,true,NA,NA,NA,NA,NA
uetQJPmK,NA,NA,uetQJPmK,2020-0188,2021-11-11,10:12:36,11:17:52,NA,incomplete,false,true,NA,8,5,E9_Q5_ansL.png,left,NA,NA,NA,left,2863,true,NA,NA,NA,NA,NA
uetQJPmK,NA,NA,uetQJPmK,2020-0188,2021-11-11,10:12:36,11:17:52,NA,incomplete,false,true,NA,8,6,E9_Q7_ansR.png,right,NA,NA,NA,right,2117,true,NA,NA,NA,NA,NA
uetQJPmK,NA,NA,uetQJPmK,2020-0188,2021-11-11,10:12:36,11:17:52,NA,incomplete,false,true,NA,8,7,E9_Q10_ansR.png,right,NA,NA,NA,right,2428,true,NA,NA,NA,NA,NA
uetQJPmK,NA,NA,uetQJPmK,2020-0188,2021-11-11,10:12:36,11:17:52,NA,incomplete,false,true,NA,8,8,E9_Q1_ansR.png,right,NA,NA,NA,right,2649,true,NA,NA,NA,NA,NA
uetQJPmK,NA,NA,uetQJPmK,2020-0188,2021-11-11,10:12:36,11:17:52,NA,incomplete,false,true,NA,8,9,E9_Q2_ansR.png,right,NA,NA,NA,right,2455,true,NA,NA,NA,NA,NA
uetQJPmK,NA,NA,uetQJPmK,2020-0188,2021-11-11,10:12:36,11:17:52,NA,incomplete,false,true,NA,8,10,E23_Q3_ansR.png,right,NA,NA,NA,right,2811,true,NA,NA,NA,NA,NA
uetQJPmK,NA,NA,uetQJPmK,2020-0188,2021-11-11,10:12:36,11:17:52,NA,incomplete,false,true,NA,8,11,E23_Q1_ansL.png,left,NA,NA,NA,left,2411,true,NA,NA,NA,NA,NA
uetQJPmK,NA,NA,uetQJPmK,2020-0188,2021-11-11,10:12:36,11:17:52,NA,incomplete,false,true,NA,8,12,E23_Q8_ansL.png,left,NA,NA,NA,left,2220,true,NA,NA,NA,NA,NA
uetQJPmK,NA,NA,uetQJPmK,2020-0188,2021-11-11,10:12:36,11:17:52,NA,incomplete,false,true,NA,8,13,E23_Q10_ansL.png,left,NA,NA,NA,left,3346,true,NA,NA,NA,NA,NA
uetQJPmK,NA,NA,uetQJPmK,2020-0188,2021-11-11,10:12:36,11:17:52,NA,incomplete,false,true,NA,8,14,E23_Q2_ansL.png,left,NA,NA,NA,left,1570,true,NA,NA,NA,NA,NA
uetQJPmK,NA,NA,uetQJPmK,2020-0188,2021-11-11,10:12:36,11:17:52,NA,incomplete,false,true,NA,8,15,E23_Q4_ansR.png,right,NA,NA,NA,right,1527,true,NA,NA,NA,NA,NA
uetQJPmK,NA,NA,uetQJPmK,2020-0188,2021-11-11,10:12:36,11:17:52,NA,incomplete,false,true,NA,8,16,E23_Q6_ansR.png,right,NA,NA,NA,left,2278,false,NA,NA,NA,NA,NA
uetQJPmK,NA,NA,uetQJPmK,2020-0188,2021-11-11,10:12:36,11:17:52,NA,incomplete,false,true,NA,8,17,E23_Q5_ansR.png,right,NA,NA,NA,right,2529,true,NA,NA,NA,NA,NA
uetQJPmK,NA,NA,uetQJPmK,2020-0188,2021-11-11,10:12:36,11:17:52,NA,incomplete,false,true,NA,8,18,E23_Q7_ansL.png,left,NA,NA,NA,left,2512,true,NA,NA,NA,NA,NA
uetQJPmK,NA,NA,uetQJPmK,2020-0188,2021-11-11,10:12:36,11:17:52,NA,incomplete,false,true,NA,8,19,E23_Q9_ansR.png,right,NA,NA,NA,right,1902,true,NA,NA,NA,NA,NA
uetQJPmK,NA,NA,uetQJPmK,2020-0188,2021-11-11,10:12:36,11:17:52,NA,incomplete,false,true,NA,8,20,E28_Q3_ansL.png,left,NA,NA,NA,left,2643,true,NA,NA,NA,NA,NA
uetQJPmK,NA,NA,uetQJPmK,2020-0188,2021-11-11,10:12:36,11:17:52,NA,incomplete,false,true,NA,8,21,E28_Q1_ansR.png,right,NA,NA,NA,right,2420,true,NA,NA,NA,NA,NA
uetQJPmK,NA,NA,uetQJPmK,2020-0188,2021-11-11,10:12:36,11:17:52,NA,incomplete,false,true,NA,8,22,E28_Q5_ansL.png,left,NA,NA,NA,left,1199,true,NA,NA,NA,NA,NA
uetQJPmK,NA,NA,uetQJPmK,2020-0188,2021-11-11,10:12:36,11:17:52,NA,incomplete,false,true,NA,8,23,E28_Q2_ansR.png,right,NA,NA,NA,right,2052,true,NA,NA,NA,NA,NA
uetQJPmK,NA,NA,uetQJPmK,2020-0188,2021-11-11,10:12:36,11:17:52,NA,incomplete,false,true,NA,8,24,E28_Q8_ansR.png,right,NA,NA,NA,right,2003,true,NA,NA,NA,NA,NA
uetQJPmK,NA,NA,uetQJPmK,2020-0188,2021-11-11,10:12:36,11:17:52,NA,incomplete,false,true,NA,8,25,E28_Q9_ansL.png,left,NA,NA,NA,left,1108,true,NA,NA,NA,NA,NA
uetQJPmK,NA,NA,uetQJPmK,2020-0188,2021-11-11,10:12:36,11:17:52,NA,incomplete,false,true,NA,8,26,E28_Q6_ansL.png,left,NA,NA,NA,left,1068,true,NA,NA,NA,NA,NA
uetQJPmK,NA,NA,uetQJPmK,2020-0188,2021-11-11,10:12:36,11:17:52,NA,incomplete,false,true,NA,8,27,E28_Q7_ansR.png,right,NA,NA,NA,right,1107,true,NA,NA,NA,NA,NA
uetQJPmK,NA,NA,uetQJPmK,2020-0188,2021-11-11,10:12:36,11:17:52,NA,incomplete,false,true,NA,8,28,E28_Q4_ansL.png,left,NA,NA,NA,left,1004,true,NA,NA,NA,NA,NA
uetQJPmK,NA,NA,uetQJPmK,2020-0188,2021-11-11,10:12:36,11:17:52,NA,incomplete,false,true,NA,8,29,E28_Q10_ansR.png,right,NA,NA,NA,right,1024,true,NA,NA,NA,NA,NA
uetQJPmK,NA,NA,uetQJPmK,2020-0188,2021-11-11,10:12:36,11:17:52,NA,incomplete,false,NA,true,8,0,NA,left,E23_Q6_ansR.png,E23_Q9_ansR.png,within,NA,NaN,NA,left,2927,1,0,792
uetQJPmK,NA,NA,uetQJPmK,2020-0188,2021-11-11,10:12:36,11:17:52,NA,incomplete,false,NA,true,8,1,NA,right,E9_Q10_ansR.png,E9_Q8_ansR.png,within,NA,NaN,NA,left,1731,0,0,933
uetQJPmK,NA,NA,uetQJPmK,2020-0188,2021-11-11,10:12:36,11:17:52,NA,incomplete,false,NA,true,8,2,NA,left,E9_Q4_ansL.png,E9_Q6_ansL.png,within,NA,NaN,NA,left,1562,1,1,1461
uetQJPmK,NA,NA,uetQJPmK,2020-0188,2021-11-11,10:12:36,11:17:52,NA,incomplete,false,NA,true,8,3,NA,left,E23_Q1_ansL.png,E23_Q2_ansL.png,within,NA,NaN,NA,right,1310,0,0,929
uetQJPmK,NA,NA,uetQJPmK,2020-0188,2021-11-11,10:12:36,11:17:52,NA,incomplete,false,NA,true,8,4,NA,left,E23_Q8_ansL.png,E23_Q4_ansR.png,within,NA,NaN,NA,left,1367,1,0,1322
uetQJPmK,NA,NA,uetQJPmK,2020-0188,2021-11-11,10:12:36,11:17:52,NA,incomplete,false,NA,true,8,5,NA,right,E23_Q1_ansL.png,E9_Q1_ansR.png,between,NA,NaN,NA,right,1147,1,2,865
uetQJPmK,NA,NA,uetQJPmK,2020-0188,2021-11-11,10:12:36,11:17:52,NA,incomplete,false,NA,true,8,6,NA,left,E23_Q4_ansR.png,E23_Q7_ansL.png,within,NA,NaN,NA,left,4408,1,0,954
uetQJPmK,NA,NA,uetQJPmK,2020-0188,2021-11-11,10:12:36,11:17:52,NA,incomplete,false,NA,true,8,7,NA,right,E9_Q7_ansR.png,E9_Q6_ansL.png,within,NA,NaN,NA,right,2531,1,0,808
uetQJPmK,NA,NA,uetQJPmK,2020-0188,2021-11-11,10:12:36,11:17:52,NA,incomplete,false,NA,true,8,8,NA,left,E28_Q3_ansL.png,E28_Q2_ansR.png,within,NA,NaN,NA,left,1643,1,0,873
uetQJPmK,NA,NA,uetQJPmK,2020-0188,2021-11-11,10:12:36,11:17:52,NA,incomplete,false,NA,true,8,9,NA,left,E9_Q7_ansR.png,E9_Q2_ansR.png,within,NA,NaN,NA,right,2265,0,0,1090
uetQJPmK,NA,NA,uetQJPmK,2020-0188,2021-11-11,10:12:36,11:17:52,NA,incomplete,false,NA,true,8,10,NA,right,E28_Q3_ansL.png,E23_Q5_ansR.png,between,NA,NaN,NA,right,1935,1,2,890
uetQJPmK,NA,NA,uetQJPmK,2020-0188,2021-11-11,10:12:36,11:17:52,NA,incomplete,false,NA,true,8,11,NA,left,E28_Q1_ansR.png,E28_Q8_ansR.png,within,NA,NaN,NA,left,2072,1,1,1028
uetQJPmK,NA,NA,uetQJPmK,2020-0188,2021-11-11,10:12:36,11:17:52,NA,incomplete,false,NA,true,8,12,NA,left,E9_Q2_ansR.png,E23_Q8_ansL.png,between,NA,NaN,NA,left,2782,1,2,1551
uetQJPmK,NA,NA,uetQJPmK,2020-0188,2021-11-11,10:12:36,11:17:52,NA,incomplete,false,NA,true,8,13,NA,right,E28_Q5_ansL.png,E23_Q9_ansR.png,between,NA,NaN,NA,right,2027,1,2,882
uetQJPmK,NA,NA,uetQJPmK,2020-0188,2021-11-11,10:12:36,11:17:52,NA,incomplete,false,NA,true,8,14,NA,left,E9_Q3_ansL.png,E9_Q5_ansL.png,within,NA,NaN,NA,left,2004,1,0,881
uetQJPmK,NA,NA,uetQJPmK,2020-0188,2021-11-11,10:12:36,11:17:52,NA,incomplete,false,NA,true,8,15,NA,right,E23_Q6_ansR.png,E23_Q10_ansL.png,within,NA,NaN,NA,right,2637,1,0,999
uetQJPmK,NA,NA,uetQJPmK,2020-0188,2021-11-11,10:12:36,11:17:52,NA,incomplete,false,NA,true,8,16,NA,left,E28_Q5_ansL.png,E28_Q9_ansL.png,within,NA,NaN,NA,left,1769,1,0,973
uetQJPmK,NA,NA,uetQJPmK,2020-0188,2021-11-11,10:12:36,11:17:52,NA,incomplete,false,NA,true,8,17,NA,left,E28_Q9_ansL.png,E28_Q4_ansL.png,within,NA,NaN,NA,left,3994,1,0,735
uetQJPmK,NA,NA,uetQJPmK,2020-0188,2021-11-11,10:12:36,11:17:52,NA,incomplete,false,NA,true,8,18,NA,right,E28_Q1_ansR.png,E23_Q7_ansL.png,between,NA,NaN,NA,right,1342,1,2,1002
uetQJPmK,NA,NA,uetQJPmK,2020-0188,2021-11-11,10:12:36,11:17:52,NA,incomplete,false,NA,true,8,19,NA,left,E28_Q2_ansR.png,E28_Q6_ansL.png,within,NA,NaN,NA,left,2200,1,0,1655
uetQJPmK,NA,NA,uetQJPmK,2020-0188,2021-11-11,10:12:36,11:17:52,NA,incomplete,false,NA,true,8,20,NA,right,E23_Q10_ansL.png,E23_Q3_ansR.png,within,NA,NaN,NA,right,2021,1,0,1099
uetQJPmK,NA,NA,uetQJPmK,2020-0188,2021-11-11,10:12:36,11:17:52,NA,incomplete,false,NA,true,8,21,NA,left,E28_Q8_ansR.png,E28_Q7_ansR.png,within,NA,NaN,NA,left,1273,1,0,1115
uetQJPmK,NA,NA,uetQJPmK,2020-0188,2021-11-11,10:12:36,11:17:52,NA,incomplete,false,NA,true,8,22,NA,right,E23_Q3_ansR.png,E9_Q10_ansR.png,between,NA,NaN,NA,right,1188,1,2,1584
uetQJPmK,NA,NA,uetQJPmK,2020-0188,2021-11-11,10:12:36,11:17:52,NA,incomplete,false,NA,true,8,23,NA,right,E9_Q8_ansR.png,E9_Q9_ansL.png,within,NA,NaN,NA,right,1731,1,0,1069
uetQJPmK,NA,NA,uetQJPmK,2020-0188,2021-11-11,10:12:36,11:17:52,NA,incomplete,false,NA,true,8,24,NA,left,E23_Q2_ansL.png,E23_Q5_ansR.png,within,NA,NaN,NA,left,1565,1,0,1067
uetQJPmK,NA,NA,uetQJPmK,2020-0188,2021-11-11,10:12:36,11:17:52,NA,incomplete,false,NA,true,8,25,NA,right,E9_Q1_ansR.png,E9_Q5_ansL.png,within,NA,NaN,NA,left,1830,0,0,1000
uetQJPmK,NA,NA,uetQJPmK,2020-0188,2021-11-11,10:12:36,11:17:52,NA,incomplete,false,NA,true,8,26,NA,right,E28_Q10_ansR.png,E28_Q6_ansL.png,within,NA,NaN,NA,left,2575,0,0,1124
uetQJPmK,NA,NA,uetQJPmK,2020-0188,2021-11-11,10:12:36,11:17:52,NA,incomplete,false,true,NA,9,0,E12_Q8_ansL.png,left,NA,NA,NA,left,1928,true,NA,NA,NA,NA,NA
uetQJPmK,NA,NA,uetQJPmK,2020-0188,2021-11-11,10:12:36,11:17:52,NA,incomplete,false,true,NA,9,1,E12_Q4_ansR.png,right,NA,NA,NA,right,1483,true,NA,NA,NA,NA,NA
uetQJPmK,NA,NA,uetQJPmK,2020-0188,2021-11-11,10:12:36,11:17:52,NA,incomplete,false,true,NA,9,2,E12_Q5_ansR.png,right,NA,NA,NA,left,1000,false,NA,NA,NA,NA,NA
uetQJPmK,NA,NA,uetQJPmK,2020-0188,2021-11-11,10:12:36,11:17:52,NA,incomplete,false,true,NA,9,3,E12_Q1_ansL.png,left,NA,NA,NA,left,971,true,NA,NA,NA,NA,NA
uetQJPmK,NA,NA,uetQJPmK,2020-0188,2021-11-11,10:12:36,11:17:52,NA,incomplete,false,true,NA,9,4,E12_Q3_ansR.png,right,NA,NA,NA,right,994,true,NA,NA,NA,NA,NA
uetQJPmK,NA,NA,uetQJPmK,2020-0188,2021-11-11,10:12:36,11:17:52,NA,incomplete,false,true,NA,9,5,E12_Q6_ansR.png,right,NA,NA,NA,right,1002,true,NA,NA,NA,NA,NA
uetQJPmK,NA,NA,uetQJPmK,2020-0188,2021-11-11,10:12:36,11:17:52,NA,incomplete,false,true,NA,9,6,E12_Q9_ansR.png,right,NA,NA,NA,right,1154,true,NA,NA,NA,NA,NA
uetQJPmK,NA,NA,uetQJPmK,2020-0188,2021-11-11,10:12:36,11:17:52,NA,incomplete,false,true,NA,9,7,E12_Q2_ansL.png,left,NA,NA,NA,left,1132,true,NA,NA,NA,NA,NA
uetQJPmK,NA,NA,uetQJPmK,2020-0188,2021-11-11,10:12:36,11:17:52,NA,incomplete,false,true,NA,9,8,E12_Q7_ansL.png,left,NA,NA,NA,left,1284,true,NA,NA,NA,NA,NA
uetQJPmK,NA,NA,uetQJPmK,2020-0188,2021-11-11,10:12:36,11:17:52,NA,incomplete,false,true,NA,9,9,E12_Q10_ansL.png,left,NA,NA,NA,left,982,true,NA,NA,NA,NA,NA
uetQJPmK,NA,NA,uetQJPmK,2020-0188,2021-11-11,10:12:36,11:17:52,NA,incomplete,false,true,NA,9,10,E26_Q5_ansR.png,right,NA,NA,NA,right,1477,true,NA,NA,NA,NA,NA
uetQJPmK,NA,NA,uetQJPmK,2020-0188,2021-11-11,10:12:36,11:17:52,NA,incomplete,false,true,NA,9,11,E26_Q2_ansL.png,left,NA,NA,NA,left,1280,true,NA,NA,NA,NA,NA
uetQJPmK,NA,NA,uetQJPmK,2020-0188,2021-11-11,10:12:36,11:17:52,NA,incomplete,false,true,NA,9,12,E26_Q9_ansR.png,right,NA,NA,NA,right,1151,true,NA,NA,NA,NA,NA
uetQJPmK,NA,NA,uetQJPmK,2020-0188,2021-11-11,10:12:36,11:17:52,NA,incomplete,false,true,NA,9,13,E26_Q4_ansR.png,right,NA,NA,NA,right,2705,true,NA,NA,NA,NA,NA
uetQJPmK,NA,NA,uetQJPmK,2020-0188,2021-11-11,10:12:36,11:17:52,NA,incomplete,false,true,NA,9,14,E26_Q6_ansR.png,right,NA,NA,NA,right,1607,true,NA,NA,NA,NA,NA
uetQJPmK,NA,NA,uetQJPmK,2020-0188,2021-11-11,10:12:36,11:17:52,NA,incomplete,false,true,NA,9,15,E26_Q1_ansL.png,left,NA,NA,NA,left,1315,true,NA,NA,NA,NA,NA
uetQJPmK,NA,NA,uetQJPmK,2020-0188,2021-11-11,10:12:36,11:17:52,NA,incomplete,false,true,NA,9,16,E26_Q7_ansL.png,left,NA,NA,NA,left,3248,true,NA,NA,NA,NA,NA
uetQJPmK,NA,NA,uetQJPmK,2020-0188,2021-11-11,10:12:36,11:17:52,NA,incomplete,false,true,NA,9,17,E26_Q3_ansR.png,right,NA,NA,NA,right,876,true,NA,NA,NA,NA,NA
uetQJPmK,NA,NA,uetQJPmK,2020-0188,2021-11-11,10:12:36,11:17:52,NA,incomplete,false,true,NA,9,18,E26_Q8_ansL.png,left,NA,NA,NA,left,1504,true,NA,NA,NA,NA,NA
uetQJPmK,NA,NA,uetQJPmK,2020-0188,2021-11-11,10:12:36,11:17:52,NA,incomplete,false,true,NA,9,19,E26_Q10_ansL.png,left,NA,NA,NA,left,2441,true,NA,NA,NA,NA,NA
uetQJPmK,NA,NA,uetQJPmK,2020-0188,2021-11-11,10:12:36,11:17:52,NA,incomplete,false,true,NA,9,20,E11_Q6_ansL.png,left,NA,NA,NA,left,3038,true,NA,NA,NA,NA,NA
uetQJPmK,NA,NA,uetQJPmK,2020-0188,2021-11-11,10:12:36,11:17:52,NA,incomplete,false,true,NA,9,21,E11_Q5_ansL.png,left,NA,NA,NA,left,2066,true,NA,NA,NA,NA,NA
uetQJPmK,NA,NA,uetQJPmK,2020-0188,2021-11-11,10:12:36,11:17:52,NA,incomplete,false,true,NA,9,22,E11_Q10_ansR.png,right,NA,NA,NA,right,1439,true,NA,NA,NA,NA,NA
uetQJPmK,NA,NA,uetQJPmK,2020-0188,2021-11-11,10:12:36,11:17:52,NA,incomplete,false,true,NA,9,23,E11_Q8_ansR.png,right,NA,NA,NA,right,1160,true,NA,NA,NA,NA,NA
uetQJPmK,NA,NA,uetQJPmK,2020-0188,2021-11-11,10:12:36,11:17:52,NA,incomplete,false,true,NA,9,24,E11_Q7_ansR.png,right,NA,NA,NA,right,949,true,NA,NA,NA,NA,NA
uetQJPmK,NA,NA,uetQJPmK,2020-0188,2021-11-11,10:12:36,11:17:52,NA,incomplete,false,true,NA,9,25,E11_Q3_ansL.png,left,NA,NA,NA,left,970,true,NA,NA,NA,NA,NA
uetQJPmK,NA,NA,uetQJPmK,2020-0188,2021-11-11,10:12:36,11:17:52,NA,incomplete,false,true,NA,9,26,E11_Q9_ansL.png,left,NA,NA,NA,left,546,true,NA,NA,NA,NA,NA
uetQJPmK,NA,NA,uetQJPmK,2020-0188,2021-11-11,10:12:36,11:17:52,NA,incomplete,false,true,NA,9,27,E11_Q2_ansR.png,right,NA,NA,NA,right,1060,true,NA,NA,NA,NA,NA
uetQJPmK,NA,NA,uetQJPmK,2020-0188,2021-11-11,10:12:36,11:17:52,NA,incomplete,false,true,NA,9,28,E11_Q4_ansL.png,left,NA,NA,NA,left,1200,true,NA,NA,NA,NA,NA
uetQJPmK,NA,NA,uetQJPmK,2020-0188,2021-11-11,10:12:36,11:17:52,NA,incomplete,false,true,NA,9,29,E11_Q1_ansR.png,right,NA,NA,NA,right,908,true,NA,NA,NA,NA,NA
uetQJPmK,NA,NA,uetQJPmK,2020-0188,2021-11-11,10:12:36,11:17:52,NA,incomplete,false,NA,true,9,0,NA,left,E26_Q1_ansL.png,E26_Q8_ansL.png,within,NA,NaN,NA,right,2152,0,0,832
uetQJPmK,NA,NA,uetQJPmK,2020-0188,2021-11-11,10:12:36,11:17:52,NA,incomplete,false,NA,true,9,1,NA,right,E12_Q6_ansR.png,E12_Q5_ansR.png,within,NA,NaN,NA,right,2483,1,0,1092
uetQJPmK,NA,NA,uetQJPmK,2020-0188,2021-11-11,10:12:36,11:17:52,NA,incomplete,false,NA,true,9,2,NA,left,E11_Q8_ansR.png,E11_Q9_ansL.png,within,NA,NaN,NA,left,2441,1,1,1503
uetQJPmK,NA,NA,uetQJPmK,2020-0188,2021-11-11,10:12:36,11:17:52,NA,incomplete,false,NA,true,9,3,NA,left,E26_Q8_ansL.png,E11_Q5_ansL.png,between,NA,NaN,NA,left,2814,1,2,702
uetQJPmK,NA,NA,uetQJPmK,2020-0188,2021-11-11,10:12:36,11:17:52,NA,incomplete,false,NA,true,9,4,NA,right,E12_Q9_ansR.png,E12_Q1_ansL.png,within,NA,NaN,NA,right,1567,1,1,1188
uetQJPmK,NA,NA,uetQJPmK,2020-0188,2021-11-11,10:12:36,11:17:52,NA,incomplete,false,NA,true,9,5,NA,left,E12_Q6_ansR.png,E12_Q7_ansL.png,within,NA,NaN,NA,left,1715,1,0,939
uetQJPmK,NA,NA,uetQJPmK,2020-0188,2021-11-11,10:12:36,11:17:52,NA,incomplete,false,NA,true,9,6,NA,right,E11_Q6_ansL.png,E26_Q3_ansR.png,between,NA,NaN,NA,right,2050,1,1,1167
uetQJPmK,NA,NA,uetQJPmK,2020-0188,2021-11-11,10:12:36,11:17:52,NA,incomplete,false,NA,true,9,7,NA,right,E26_Q5_ansR.png,E12_Q2_ansL.png,between,NA,NaN,NA,left,2302,0,2,2692
uetQJPmK,NA,NA,uetQJPmK,2020-0188,2021-11-11,10:12:36,11:17:52,NA,incomplete,false,NA,true,9,8,NA,right,E11_Q4_ansL.png,E11_Q3_ansL.png,within,NA,NaN,NA,right,3532,1,0,782
uetQJPmK,NA,NA,uetQJPmK,2020-0188,2021-11-11,10:12:36,11:17:52,NA,incomplete,false,NA,true,9,9,NA,right,E12_Q2_ansL.png,E12_Q3_ansR.png,within,NA,NaN,NA,right,4100,1,0,1392
uetQJPmK,NA,NA,uetQJPmK,2020-0188,2021-11-11,10:12:36,11:17:52,NA,incomplete,false,NA,true,9,10,NA,right,E26_Q4_ansR.png,E26_Q5_ansR.png,within,NA,NaN,NA,right,1609,1,0,898
uetQJPmK,NA,NA,uetQJPmK,2020-0188,2021-11-11,10:12:36,11:17:52,NA,incomplete,false,NA,true,9,11,NA,left,E11_Q7_ansR.png,E11_Q2_ansR.png,within,NA,NaN,NA,left,2103,1,1,832
uetQJPmK,NA,NA,uetQJPmK,2020-0188,2021-11-11,10:12:36,11:17:52,NA,incomplete,false,NA,true,9,12,NA,right,E26_Q1_ansL.png,E26_Q9_ansR.png,within,NA,NaN,NA,left,1732,0,0,1338
uetQJPmK,NA,NA,uetQJPmK,2020-0188,2021-11-11,10:12:36,11:17:52,NA,incomplete,false,NA,true,9,13,NA,left,E26_Q4_ansR.png,E26_Q7_ansL.png,within,NA,NaN,NA,right,1804,0,0,910
uetQJPmK,NA,NA,uetQJPmK,2020-0188,2021-11-11,10:12:36,11:17:52,NA,incomplete,false,NA,true,9,14,NA,right,E12_Q1_ansL.png,E12_Q8_ansL.png,within,NA,NaN,NA,right,1885,1,0,1487
uetQJPmK,NA,NA,uetQJPmK,2020-0188,2021-11-11,10:12:36,11:17:52,NA,incomplete,false,NA,true,9,15,NA,right,E11_Q8_ansR.png,E11_Q6_ansL.png,within,NA,NaN,NA,right,1527,1,0,881
uetQJPmK,NA,NA,uetQJPmK,2020-0188,2021-11-11,10:12:36,11:17:52,NA,incomplete,false,NA,true,9,16,NA,left,E26_Q6_ansR.png,E26_Q3_ansR.png,within,NA,NaN,NA,right,2248,0,0,1148
uetQJPmK,NA,NA,uetQJPmK,2020-0188,2021-11-11,10:12:36,11:17:52,NA,incomplete,false,NA,true,9,17,NA,right,E26_Q10_ansL.png,E26_Q7_ansL.png,within,NA,NaN,NA,right,1061,1,0,890
uetQJPmK,NA,NA,uetQJPmK,2020-0188,2021-11-11,10:12:36,11:17:52,NA,incomplete,false,NA,true,9,18,NA,right,E26_Q2_ansL.png,E12_Q7_ansL.png,between,NA,NaN,NA,right,1082,1,3,1278
uetQJPmK,NA,NA,uetQJPmK,2020-0188,2021-11-11,10:12:36,11:17:52,NA,incomplete,false,NA,true,9,19,NA,right,E11_Q3_ansL.png,E11_Q10_ansR.png,within,NA,NaN,NA,right,1513,1,0,1101
uetQJPmK,NA,NA,uetQJPmK,2020-0188,2021-11-11,10:12:36,11:17:52,NA,incomplete,false,NA,true,9,20,NA,right,E12_Q10_ansL.png,E12_Q9_ansR.png,within,NA,NaN,NA,left,7006,0,0,1036
uetQJPmK,NA,NA,uetQJPmK,2020-0188,2021-11-11,10:12:36,11:17:52,NA,incomplete,false,NA,true,9,21,NA,left,E12_Q4_ansR.png,E12_Q3_ansR.png,within,NA,NaN,NA,left,1366,1,0,2241
uetQJPmK,NA,NA,uetQJPmK,2020-0188,2021-11-11,10:12:36,11:17:52,NA,incomplete,false,NA,true,9,22,NA,left,E11_Q9_ansL.png,E11_Q1_ansR.png,within,NA,NaN,NA,right,1115,0,0,962
uetQJPmK,NA,NA,uetQJPmK,2020-0188,2021-11-11,10:12:36,11:17:52,NA,incomplete,false,NA,true,9,23,NA,left,E26_Q2_ansL.png,E26_Q6_ansR.png,within,NA,NaN,NA,left,1366,1,0,1181
uetQJPmK,NA,NA,uetQJPmK,2020-0188,2021-11-11,10:12:36,11:17:52,NA,incomplete,false,NA,true,9,24,NA,right,E11_Q7_ansR.png,E11_Q5_ansL.png,within,NA,NaN,NA,right,1596,1,0,794
uetQJPmK,NA,NA,uetQJPmK,2020-0188,2021-11-11,10:12:36,11:17:52,NA,incomplete,false,NA,true,9,25,NA,right,E11_Q10_ansR.png,E26_Q10_ansL.png,between,NA,NaN,NA,right,1607,1,2,741
uetQJPmK,NA,NA,uetQJPmK,2020-0188,2021-11-11,10:12:36,11:17:52,NA,incomplete,false,NA,true,9,26,NA,left,E12_Q10_ansL.png,E26_Q9_ansR.png,between,NA,NaN,NA,left,1298,1,3,1422
uetQJPmK,NA,NA,uetQJPmK,2020-0188,2021-11-11,10:12:36,11:17:52,NA,incomplete,false,true,NA,10,0,E8_Q7_ansR.png,right,NA,NA,NA,right,1698,true,NA,NA,NA,NA,NA
uetQJPmK,NA,NA,uetQJPmK,2020-0188,2021-11-11,10:12:36,11:17:52,NA,incomplete,false,true,NA,10,1,E8_Q3_ansL.png,left,NA,NA,NA,left,1311,true,NA,NA,NA,NA,NA
uetQJPmK,NA,NA,uetQJPmK,2020-0188,2021-11-11,10:12:36,11:17:52,NA,incomplete,false,true,NA,10,2,E8_Q10_ansR.png,right,NA,NA,NA,right,855,true,NA,NA,NA,NA,NA
uetQJPmK,NA,NA,uetQJPmK,2020-0188,2021-11-11,10:12:36,11:17:52,NA,incomplete,false,true,NA,10,3,E8_Q8_ansR.png,right,NA,NA,NA,right,988,true,NA,NA,NA,NA,NA
uetQJPmK,NA,NA,uetQJPmK,2020-0188,2021-11-11,10:12:36,11:17:52,NA,incomplete,false,true,NA,10,4,E8_Q9_ansL.png,left,NA,NA,NA,left,900,true,NA,NA,NA,NA,NA
uetQJPmK,NA,NA,uetQJPmK,2020-0188,2021-11-11,10:12:36,11:17:52,NA,incomplete,false,true,NA,10,5,E8_Q1_ansR.png,right,NA,NA,NA,right,1790,true,NA,NA,NA,NA,NA
uetQJPmK,NA,NA,uetQJPmK,2020-0188,2021-11-11,10:12:36,11:17:52,NA,incomplete,false,true,NA,10,6,E8_Q5_ansL.png,left,NA,NA,NA,left,1226,true,NA,NA,NA,NA,NA
uetQJPmK,NA,NA,uetQJPmK,2020-0188,2021-11-11,10:12:36,11:17:52,NA,incomplete,false,true,NA,10,7,E8_Q4_ansL.png,left,NA,NA,NA,left,1558,true,NA,NA,NA,NA,NA
uetQJPmK,NA,NA,uetQJPmK,2020-0188,2021-11-11,10:12:36,11:17:52,NA,incomplete,false,true,NA,10,8,E8_Q2_ansR.png,right,NA,NA,NA,right,1056,true,NA,NA,NA,NA,NA
uetQJPmK,NA,NA,uetQJPmK,2020-0188,2021-11-11,10:12:36,11:17:52,NA,incomplete,false,true,NA,10,9,E8_Q6_ansL.png,left,NA,NA,NA,left,1178,true,NA,NA,NA,NA,NA
uetQJPmK,NA,NA,uetQJPmK,2020-0188,2021-11-11,10:12:36,11:17:52,NA,incomplete,false,true,NA,10,10,E15_Q5_ansR.png,right,NA,NA,NA,right,1556,true,NA,NA,NA,NA,NA
uetQJPmK,NA,NA,uetQJPmK,2020-0188,2021-11-11,10:12:36,11:17:52,NA,incomplete,false,true,NA,10,11,E15_Q8_ansL.png,left,NA,NA,NA,left,1054,true,NA,NA,NA,NA,NA
uetQJPmK,NA,NA,uetQJPmK,2020-0188,2021-11-11,10:12:36,11:17:52,NA,incomplete,false,true,NA,10,12,E15_Q6_ansR.png,right,NA,NA,NA,right,1106,true,NA,NA,NA,NA,NA
uetQJPmK,NA,NA,uetQJPmK,2020-0188,2021-11-11,10:12:36,11:17:52,NA,incomplete,false,true,NA,10,13,E15_Q1_ansL.png,left,NA,NA,NA,left,1236,true,NA,NA,NA,NA,NA
uetQJPmK,NA,NA,uetQJPmK,2020-0188,2021-11-11,10:12:36,11:17:52,NA,incomplete,false,true,NA,10,14,E15_Q10_ansL.png,left,NA,NA,NA,left,1169,true,NA,NA,NA,NA,NA
uetQJPmK,NA,NA,uetQJPmK,2020-0188,2021-11-11,10:12:36,11:17:52,NA,incomplete,false,true,NA,10,15,E15_Q9_ansR.png,right,NA,NA,NA,right,1108,true,NA,NA,NA,NA,NA
uetQJPmK,NA,NA,uetQJPmK,2020-0188,2021-11-11,10:12:36,11:17:52,NA,incomplete,false,true,NA,10,16,E15_Q2_ansL.png,left,NA,NA,NA,left,886,true,NA,NA,NA,NA,NA
uetQJPmK,NA,NA,uetQJPmK,2020-0188,2021-11-11,10:12:36,11:17:52,NA,incomplete,false,true,NA,10,17,E15_Q4_ansR.png,right,NA,NA,NA,right,980,true,NA,NA,NA,NA,NA
uetQJPmK,NA,NA,uetQJPmK,2020-0188,2021-11-11,10:12:36,11:17:52,NA,incomplete,false,true,NA,10,18,E15_Q3_ansR.png,right,NA,NA,NA,right,1384,true,NA,NA,NA,NA,NA
uetQJPmK,NA,NA,uetQJPmK,2020-0188,2021-11-11,10:12:36,11:17:52,NA,incomplete,false,true,NA,10,19,E15_Q7_ansL.png,left,NA,NA,NA,left,1335,true,NA,NA,NA,NA,NA
uetQJPmK,NA,NA,uetQJPmK,2020-0188,2021-11-11,10:12:36,11:17:52,NA,incomplete,false,true,NA,10,20,E18_Q8_ansL.png,left,NA,NA,NA,left,2036,true,NA,NA,NA,NA,NA
uetQJPmK,NA,NA,uetQJPmK,2020-0188,2021-11-11,10:12:36,11:17:52,NA,incomplete,false,true,NA,10,21,E18_Q2_ansL.png,left,NA,NA,NA,left,1077,true,NA,NA,NA,NA,NA
uetQJPmK,NA,NA,uetQJPmK,2020-0188,2021-11-11,10:12:36,11:17:52,NA,incomplete,false,true,NA,10,22,E18_Q9_ansR.png,right,NA,NA,NA,right,1632,true,NA,NA,NA,NA,NA
uetQJPmK,NA,NA,uetQJPmK,2020-0188,2021-11-11,10:12:36,11:17:52,NA,incomplete,false,true,NA,10,23,E18_Q7_ansL.png,left,NA,NA,NA,left,1000,true,NA,NA,NA,NA,NA
uetQJPmK,NA,NA,uetQJPmK,2020-0188,2021-11-11,10:12:36,11:17:52,NA,incomplete,false,true,NA,10,24,E18_Q1_ansL.png,left,NA,NA,NA,left,1507,true,NA,NA,NA,NA,NA
uetQJPmK,NA,NA,uetQJPmK,2020-0188,2021-11-11,10:12:36,11:17:52,NA,incomplete,false,true,NA,10,25,E18_Q4_ansR.png,right,NA,NA,NA,right,1017,true,NA,NA,NA,NA,NA
uetQJPmK,NA,NA,uetQJPmK,2020-0188,2021-11-11,10:12:36,11:17:52,NA,incomplete,false,true,NA,10,26,E18_Q10_ansL.png,left,NA,NA,NA,left,1155,true,NA,NA,NA,NA,NA
uetQJPmK,NA,NA,uetQJPmK,2020-0188,2021-11-11,10:12:36,11:17:52,NA,incomplete,false,true,NA,10,27,E18_Q5_ansR.png,right,NA,NA,NA,right,1277,true,NA,NA,NA,NA,NA
uetQJPmK,NA,NA,uetQJPmK,2020-0188,2021-11-11,10:12:36,11:17:52,NA,incomplete,false,true,NA,10,28,E18_Q6_ansR.png,right,NA,NA,NA,right,1034,true,NA,NA,NA,NA,NA
uetQJPmK,NA,NA,uetQJPmK,2020-0188,2021-11-11,10:12:36,11:17:52,NA,incomplete,false,true,NA,10,29,E18_Q3_ansR.png,right,NA,NA,NA,right,1283,true,NA,NA,NA,NA,NA
uetQJPmK,NA,NA,uetQJPmK,2020-0188,2021-11-11,10:12:36,11:17:52,NA,incomplete,false,NA,true,10,0,NA,right,E15_Q7_ansL.png,E15_Q2_ansL.png,within,NA,NaN,NA,right,2602,1,0,836
uetQJPmK,NA,NA,uetQJPmK,2020-0188,2021-11-11,10:12:36,11:17:52,NA,incomplete,false,NA,true,10,1,NA,right,E15_Q8_ansL.png,E8_Q2_ansR.png,between,NA,NaN,NA,right,1820,1,2,1130
uetQJPmK,NA,NA,uetQJPmK,2020-0188,2021-11-11,10:12:36,11:17:52,NA,incomplete,false,NA,true,10,2,NA,left,E15_Q8_ansL.png,E15_Q10_ansL.png,within,NA,NaN,NA,left,1837,1,0,1454
uetQJPmK,NA,NA,uetQJPmK,2020-0188,2021-11-11,10:12:36,11:17:52,NA,incomplete,false,NA,true,10,3,NA,left,E8_Q3_ansL.png,E8_Q9_ansL.png,within,NA,NaN,NA,left,1242,1,0,862
uetQJPmK,NA,NA,uetQJPmK,2020-0188,2021-11-11,10:12:36,11:17:52,NA,incomplete,false,NA,true,10,4,NA,right,E15_Q3_ansR.png,E15_Q9_ansR.png,within,NA,NaN,NA,right,1561,1,1,1249
uetQJPmK,NA,NA,uetQJPmK,2020-0188,2021-11-11,10:12:36,11:17:52,NA,incomplete,false,NA,true,10,5,NA,right,E8_Q8_ansR.png,E8_Q7_ansR.png,within,NA,NaN,NA,right,1245,1,1,890
uetQJPmK,NA,NA,uetQJPmK,2020-0188,2021-11-11,10:12:36,11:17:52,NA,incomplete,false,NA,true,10,6,NA,right,E8_Q6_ansL.png,E8_Q5_ansL.png,within,NA,NaN,NA,left,1507,0,1,644
uetQJPmK,NA,NA,uetQJPmK,2020-0188,2021-11-11,10:12:36,11:17:52,NA,incomplete,false,NA,true,10,7,NA,left,E15_Q10_ansL.png,E15_Q4_ansR.png,within,NA,NaN,NA,left,1625,1,1,977
uetQJPmK,NA,NA,uetQJPmK,2020-0188,2021-11-11,10:12:36,11:17:52,NA,incomplete,false,NA,true,10,8,NA,right,E18_Q7_ansL.png,E18_Q8_ansL.png,within,NA,NaN,NA,right,1325,1,1,761
