workerId,hitId,assignmentId,subject,studyid,exp_date,exp_start,exp_end,time_start,time_end,practice,encoding,memory,block,trial,stim,answer,left_image,right_image,condition,response,response_time,response_acc,order_response,order_response_time,order_acc,distance_response,distance_response_time
XFAB9qSX,NA,NA,XFAB9qSX,2020-0188,2021-09-20,20:43:03,22:10:13,NA,incomplete,true,true,NA,0,0,E4_Q6_ansR.png,right,NA,NA,NA,none,0,false,NA,NA,NA,NA,NA
XFAB9qSX,NA,NA,XFAB9qSX,2020-0188,2021-09-20,20:43:03,22:10:13,NA,incomplete,true,true,NA,0,1,E4_Q1_ansL.png,left,NA,NA,NA,left,3420.09999999404,true,NA,NA,NA,NA,NA
XFAB9qSX,NA,NA,XFAB9qSX,2020-0188,2021-09-20,20:43:03,22:10:13,NA,incomplete,true,true,NA,0,2,E4_Q8_ansR.png,right,NA,NA,NA,right,2450,true,NA,NA,NA,NA,NA
XFAB9qSX,NA,NA,XFAB9qSX,2020-0188,2021-09-20,20:43:03,22:10:13,NA,incomplete,true,true,NA,0,3,E4_Q7_ansR.png,right,NA,NA,NA,right,2297.20000000298,true,NA,NA,NA,NA,NA
XFAB9qSX,NA,NA,XFAB9qSX,2020-0188,2021-09-20,20:43:03,22:10:13,NA,incomplete,true,true,NA,0,4,E4_Q4_ansL.png,left,NA,NA,NA,right,2234.89999999106,false,NA,NA,NA,NA,NA
XFAB9qSX,NA,NA,XFAB9qSX,2020-0188,2021-09-20,20:43:03,22:10:13,NA,incomplete,true,true,NA,0,5,E4_Q10_ansR.png,right,NA,NA,NA,right,2362.69999998808,true,NA,NA,NA,NA,NA
XFAB9qSX,NA,NA,XFAB9qSX,2020-0188,2021-09-20,20:43:03,22:10:13,NA,incomplete,true,true,NA,0,6,E4_Q5_ansR.png,right,NA,NA,NA,right,1750.39999999106,true,NA,NA,NA,NA,NA
XFAB9qSX,NA,NA,XFAB9qSX,2020-0188,2021-09-20,20:43:03,22:10:13,NA,incomplete,true,true,NA,0,7,E4_Q2_ansL.png,left,NA,NA,NA,left,1608.89999999106,true,NA,NA,NA,NA,NA
XFAB9qSX,NA,NA,XFAB9qSX,2020-0188,2021-09-20,20:43:03,22:10:13,NA,incomplete,true,true,NA,0,8,E4_Q3_ansL.png,left,NA,NA,NA,right,2576.40000000596,false,NA,NA,NA,NA,NA
XFAB9qSX,NA,NA,XFAB9qSX,2020-0188,2021-09-20,20:43:03,22:10:13,NA,incomplete,true,true,NA,0,9,E4_Q9_ansL.png,left,NA,NA,NA,left,2754,true,NA,NA,NA,NA,NA
XFAB9qSX,NA,NA,XFAB9qSX,2020-0188,2021-09-20,20:43:03,22:10:13,NA,incomplete,true,true,NA,0,10,E8_Q2_ansR.png,right,NA,NA,NA,right,1820.70000000298,true,NA,NA,NA,NA,NA
XFAB9qSX,NA,NA,XFAB9qSX,2020-0188,2021-09-20,20:43:03,22:10:13,NA,incomplete,true,true,NA,0,11,E8_Q10_ansR.png,right,NA,NA,NA,left,1686.19999998808,false,NA,NA,NA,NA,NA
XFAB9qSX,NA,NA,XFAB9qSX,2020-0188,2021-09-20,20:43:03,22:10:13,NA,incomplete,true,true,NA,0,12,E8_Q6_ansL.png,left,NA,NA,NA,left,2660.09999999404,true,NA,NA,NA,NA,NA
XFAB9qSX,NA,NA,XFAB9qSX,2020-0188,2021-09-20,20:43:03,22:10:13,NA,incomplete,true,true,NA,0,13,E8_Q5_ansL.png,left,NA,NA,NA,left,1190.5,true,NA,NA,NA,NA,NA
XFAB9qSX,NA,NA,XFAB9qSX,2020-0188,2021-09-20,20:43:03,22:10:13,NA,incomplete,true,true,NA,0,14,E8_Q4_ansL.png,left,NA,NA,NA,left,1392.5,true,NA,NA,NA,NA,NA
XFAB9qSX,NA,NA,XFAB9qSX,2020-0188,2021-09-20,20:43:03,22:10:13,NA,incomplete,true,true,NA,0,15,E8_Q1_ansR.png,right,NA,NA,NA,right,1220.79999999702,true,NA,NA,NA,NA,NA
XFAB9qSX,NA,NA,XFAB9qSX,2020-0188,2021-09-20,20:43:03,22:10:13,NA,incomplete,true,true,NA,0,16,E8_Q3_ansL.png,left,NA,NA,NA,left,1152.10000000894,true,NA,NA,NA,NA,NA
XFAB9qSX,NA,NA,XFAB9qSX,2020-0188,2021-09-20,20:43:03,22:10:13,NA,incomplete,true,true,NA,0,17,E8_Q8_ansR.png,right,NA,NA,NA,right,1605,true,NA,NA,NA,NA,NA
XFAB9qSX,NA,NA,XFAB9qSX,2020-0188,2021-09-20,20:43:03,22:10:13,NA,incomplete,true,true,NA,0,18,E8_Q9_ansL.png,left,NA,NA,NA,left,1032.90000000596,true,NA,NA,NA,NA,NA
XFAB9qSX,NA,NA,XFAB9qSX,2020-0188,2021-09-20,20:43:03,22:10:13,NA,incomplete,true,true,NA,0,19,E8_Q7_ansR.png,right,NA,NA,NA,right,1918.19999998808,true,NA,NA,NA,NA,NA
XFAB9qSX,NA,NA,XFAB9qSX,2020-0188,2021-09-20,20:43:03,22:10:13,NA,incomplete,true,true,NA,0,20,E13_Q2_ansL.png,left,NA,NA,NA,left,1330,true,NA,NA,NA,NA,NA
XFAB9qSX,NA,NA,XFAB9qSX,2020-0188,2021-09-20,20:43:03,22:10:13,NA,incomplete,true,true,NA,0,21,E13_Q6_ansR.png,right,NA,NA,NA,right,1295.29999999702,true,NA,NA,NA,NA,NA
XFAB9qSX,NA,NA,XFAB9qSX,2020-0188,2021-09-20,20:43:03,22:10:13,NA,incomplete,true,true,NA,0,22,E13_Q9_ansR.png,right,NA,NA,NA,right,1509.90000000596,true,NA,NA,NA,NA,NA
XFAB9qSX,NA,NA,XFAB9qSX,2020-0188,2021-09-20,20:43:03,22:10:13,NA,incomplete,true,true,NA,0,23,E13_Q8_ansL.png,left,NA,NA,NA,left,1081.70000000298,true,NA,NA,NA,NA,NA
XFAB9qSX,NA,NA,XFAB9qSX,2020-0188,2021-09-20,20:43:03,22:10:13,NA,incomplete,true,true,NA,0,24,E13_Q10_ansL.png,left,NA,NA,NA,right,2593.5,false,NA,NA,NA,NA,NA
XFAB9qSX,NA,NA,XFAB9qSX,2020-0188,2021-09-20,20:43:03,22:10:13,NA,incomplete,true,true,NA,0,25,E13_Q4_ansR.png,right,NA,NA,NA,right,975.40000000596,true,NA,NA,NA,NA,NA
XFAB9qSX,NA,NA,XFAB9qSX,2020-0188,2021-09-20,20:43:03,22:10:13,NA,incomplete,true,true,NA,0,26,E13_Q1_ansL.png,left,NA,NA,NA,left,1423.70000000298,true,NA,NA,NA,NA,NA
XFAB9qSX,NA,NA,XFAB9qSX,2020-0188,2021-09-20,20:43:03,22:10:13,NA,incomplete,true,true,NA,0,27,E13_Q5_ansR.png,right,NA,NA,NA,right,1889.20000000298,true,NA,NA,NA,NA,NA
XFAB9qSX,NA,NA,XFAB9qSX,2020-0188,2021-09-20,20:43:03,22:10:13,NA,incomplete,true,true,NA,0,28,E13_Q7_ansL.png,left,NA,NA,NA,left,1356.10000000894,true,NA,NA,NA,NA,NA
XFAB9qSX,NA,NA,XFAB9qSX,2020-0188,2021-09-20,20:43:03,22:10:13,NA,incomplete,true,true,NA,0,29,E13_Q3_ansR.png,right,NA,NA,NA,right,1068.79999999702,true,NA,NA,NA,NA,NA
XFAB9qSX,NA,NA,XFAB9qSX,2020-0188,2021-09-20,20:43:03,22:10:13,NA,incomplete,true,NA,true,0,0,NA,left,E13_Q9_ansR.png,E13_Q4_ansR.png,within,NA,NaN,NA,left,2642.7999999970198,1,1,5622.79999999702
XFAB9qSX,NA,NA,XFAB9qSX,2020-0188,2021-09-20,20:43:03,22:10:13,NA,incomplete,true,NA,true,0,1,NA,left,E8_Q6_ansL.png,E8_Q1_ansR.png,within,NA,NaN,NA,left,5538.300000011921,1,0,1999.4000000059605
XFAB9qSX,NA,NA,XFAB9qSX,2020-0188,2021-09-20,20:43:03,22:10:13,NA,incomplete,true,NA,true,0,2,NA,left,E4_Q1_ansL.png,E4_Q4_ansL.png,within,NA,NaN,NA,left,3731.0999999940395,1,1,1572.800000011921
XFAB9qSX,NA,NA,XFAB9qSX,2020-0188,2021-09-20,20:43:03,22:10:13,NA,incomplete,true,NA,true,0,3,NA,right,E4_Q9_ansL.png,E4_Q5_ansR.png,within,NA,NaN,NA,right,2923,1,1,1428.5
XFAB9qSX,NA,NA,XFAB9qSX,2020-0188,2021-09-20,20:43:03,22:10:13,NA,incomplete,true,NA,true,0,4,NA,right,E8_Q8_ansR.png,E8_Q4_ansL.png,within,NA,NaN,NA,right,2606.2999999970198,1,2,1488.7000000029802
XFAB9qSX,NA,NA,XFAB9qSX,2020-0188,2021-09-20,20:43:03,22:10:13,NA,incomplete,true,NA,true,0,5,NA,right,E4_Q5_ansR.png,E4_Q7_ansR.png,within,NA,NaN,NA,left,6812.5,0,1,2303.9000000059605
XFAB9qSX,NA,NA,XFAB9qSX,2020-0188,2021-09-20,20:43:03,22:10:13,NA,incomplete,true,NA,true,0,6,NA,right,E4_Q3_ansL.png,E4_Q10_ansR.png,within,NA,NaN,NA,right,4387.4000000059605,1,0,1867.4000000059605
XFAB9qSX,NA,NA,XFAB9qSX,2020-0188,2021-09-20,20:43:03,22:10:13,NA,incomplete,true,NA,true,0,7,NA,right,E8_Q9_ansL.png,E8_Q1_ansR.png,within,NA,NaN,NA,right,5808.5,1,1,1532.1000000089407
XFAB9qSX,NA,NA,XFAB9qSX,2020-0188,2021-09-20,20:43:03,22:10:13,NA,incomplete,true,NA,true,0,8,NA,right,E13_Q6_ansR.png,E8_Q9_ansL.png,between,NA,NaN,NA,right,2434.7999999970198,1,3,4701.600000008941
XFAB9qSX,NA,NA,XFAB9qSX,2020-0188,2021-09-20,20:43:03,22:10:13,NA,incomplete,true,NA,true,0,9,NA,left,E4_Q8_ansR.png,E4_Q10_ansR.png,within,NA,NaN,NA,left,3416.2999999970198,1,1,1874.2999999970198
XFAB9qSX,NA,NA,XFAB9qSX,2020-0188,2021-09-20,20:43:03,22:10:13,NA,incomplete,true,NA,true,0,10,NA,right,E13_Q9_ansR.png,E8_Q7_ansR.png,between,NA,NaN,NA,right,3744.4000000059605,1,2,2028.7999999970198
XFAB9qSX,NA,NA,XFAB9qSX,2020-0188,2021-09-20,20:43:03,22:10:13,NA,incomplete,true,NA,true,0,11,NA,right,E8_Q7_ansR.png,E8_Q3_ansL.png,within,NA,NaN,NA,left,3127,0,1,1390.7000000029802
XFAB9qSX,NA,NA,XFAB9qSX,2020-0188,2021-09-20,20:43:03,22:10:13,NA,incomplete,true,NA,true,0,12,NA,left,E13_Q10_ansL.png,E13_Q5_ansR.png,within,NA,NaN,NA,left,4036.1000000089407,1,0,2741.9000000059605
XFAB9qSX,NA,NA,XFAB9qSX,2020-0188,2021-09-20,20:43:03,22:10:13,NA,incomplete,true,NA,true,0,13,NA,left,E4_Q6_ansR.png,E4_Q7_ansR.png,within,NA,NaN,NA,left,2971.2000000029802,1,1,5516
XFAB9qSX,NA,NA,XFAB9qSX,2020-0188,2021-09-20,20:43:03,22:10:13,NA,incomplete,true,NA,true,0,14,NA,left,E13_Q2_ansL.png,E13_Q8_ansL.png,within,NA,NaN,NA,left,1945.8999999910593,1,0,1442.9000000059605
XFAB9qSX,NA,NA,XFAB9qSX,2020-0188,2021-09-20,20:43:03,22:10:13,NA,incomplete,true,NA,true,0,15,NA,right,E13_Q10_ansL.png,E13_Q6_ansR.png,within,NA,NaN,NA,right,1953,1,0,1503.2999999970198
XFAB9qSX,NA,NA,XFAB9qSX,2020-0188,2021-09-20,20:43:03,22:10:13,NA,incomplete,true,NA,true,0,16,NA,right,E4_Q2_ansL.png,E4_Q4_ansL.png,within,NA,NaN,NA,left,5408.70000000298,0,1,1294.8999999910593
XFAB9qSX,NA,NA,XFAB9qSX,2020-0188,2021-09-20,20:43:03,22:10:13,NA,incomplete,true,NA,true,0,17,NA,left,E8_Q2_ansR.png,E8_Q5_ansL.png,within,NA,NaN,NA,left,2995.4000000059605,1,0,1558.4000000059605
XFAB9qSX,NA,NA,XFAB9qSX,2020-0188,2021-09-20,20:43:03,22:10:13,NA,incomplete,true,NA,true,0,18,NA,right,E8_Q3_ansL.png,E8_Q5_ansL.png,within,NA,NaN,NA,left,6579.100000008941,0,0,4053
XFAB9qSX,NA,NA,XFAB9qSX,2020-0188,2021-09-20,20:43:03,22:10:13,NA,incomplete,true,NA,true,0,19,NA,left,E8_Q10_ansR.png,E8_Q4_ansL.png,within,NA,NaN,NA,left,5197.0999999940395,1,1,2253.1000000089407
XFAB9qSX,NA,NA,XFAB9qSX,2020-0188,2021-09-20,20:43:03,22:10:13,NA,incomplete,true,NA,true,0,20,NA,left,E13_Q8_ansL.png,E13_Q1_ansL.png,within,NA,NaN,NA,left,4523.0999999940395,1,0,1508.7000000029802
XFAB9qSX,NA,NA,XFAB9qSX,2020-0188,2021-09-20,20:43:03,22:10:13,NA,incomplete,true,NA,true,0,21,NA,right,E13_Q7_ansL.png,E13_Q4_ansR.png,within,NA,NaN,NA,right,2573.7000000029802,1,0,3483.7000000029802
XFAB9qSX,NA,NA,XFAB9qSX,2020-0188,2021-09-20,20:43:03,22:10:13,NA,incomplete,true,NA,true,0,22,NA,left,E4_Q2_ansL.png,E8_Q2_ansR.png,between,NA,NaN,NA,left,2157.5999999940395,1,1,2728.1000000089407
XFAB9qSX,NA,NA,XFAB9qSX,2020-0188,2021-09-20,20:43:03,22:10:13,NA,incomplete,true,NA,true,0,23,NA,right,E8_Q6_ansL.png,E4_Q9_ansL.png,between,NA,NaN,NA,right,2176.4000000059605,1,2,4189.600000008941
XFAB9qSX,NA,NA,XFAB9qSX,2020-0188,2021-09-20,20:43:03,22:10:13,NA,incomplete,true,NA,true,0,24,NA,right,E13_Q2_ansL.png,E8_Q8_ansR.png,between,NA,NaN,NA,right,2191.6000000089407,1,1,6803.5
XFAB9qSX,NA,NA,XFAB9qSX,2020-0188,2021-09-20,20:43:03,22:10:13,NA,incomplete,true,NA,true,0,25,NA,right,E13_Q3_ansR.png,E13_Q1_ansL.png,within,NA,NaN,NA,right,3493.1000000089407,1,1,3080.3999999910593
XFAB9qSX,NA,NA,XFAB9qSX,2020-0188,2021-09-20,20:43:03,22:10:13,NA,incomplete,true,NA,true,0,26,NA,right,E8_Q10_ansR.png,E4_Q3_ansL.png,between,NA,NaN,NA,right,1526.5999999940395,1,1,4934.600000008941
XFAB9qSX,NA,NA,XFAB9qSX,2020-0188,2021-09-20,20:43:03,22:10:13,NA,incomplete,false,true,NA,1,0,E1_Q1_ansL.png,left,NA,NA,NA,left,3167.10000000894,true,NA,NA,NA,NA,NA
XFAB9qSX,NA,NA,XFAB9qSX,2020-0188,2021-09-20,20:43:03,22:10:13,NA,incomplete,false,true,NA,1,1,E1_Q2_ansL.png,left,NA,NA,NA,none,0,false,NA,NA,NA,NA,NA
XFAB9qSX,NA,NA,XFAB9qSX,2020-0188,2021-09-20,20:43:03,22:10:13,NA,incomplete,false,true,NA,1,2,E1_Q5_ansR.png,right,NA,NA,NA,right,1635.79999999702,true,NA,NA,NA,NA,NA
XFAB9qSX,NA,NA,XFAB9qSX,2020-0188,2021-09-20,20:43:03,22:10:13,NA,incomplete,false,true,NA,1,3,E1_Q7_ansL.png,left,NA,NA,NA,left,1618.90000000596,true,NA,NA,NA,NA,NA
XFAB9qSX,NA,NA,XFAB9qSX,2020-0188,2021-09-20,20:43:03,22:10:13,NA,incomplete,false,true,NA,1,4,E1_Q10_ansR.png,right,NA,NA,NA,right,2158.30000001192,true,NA,NA,NA,NA,NA
XFAB9qSX,NA,NA,XFAB9qSX,2020-0188,2021-09-20,20:43:03,22:10:13,NA,incomplete,false,true,NA,1,5,E1_Q6_ansR.png,right,NA,NA,NA,right,1981,true,NA,NA,NA,NA,NA
XFAB9qSX,NA,NA,XFAB9qSX,2020-0188,2021-09-20,20:43:03,22:10:13,NA,incomplete,false,true,NA,1,6,E1_Q8_ansR.png,right,NA,NA,NA,left,2674.29999999702,false,NA,NA,NA,NA,NA
XFAB9qSX,NA,NA,XFAB9qSX,2020-0188,2021-09-20,20:43:03,22:10:13,NA,incomplete,false,true,NA,1,7,E1_Q4_ansL.png,left,NA,NA,NA,left,2756.89999999106,true,NA,NA,NA,NA,NA
XFAB9qSX,NA,NA,XFAB9qSX,2020-0188,2021-09-20,20:43:03,22:10:13,NA,incomplete,false,true,NA,1,8,E1_Q9_ansL.png,left,NA,NA,NA,left,1215.60000000894,true,NA,NA,NA,NA,NA
XFAB9qSX,NA,NA,XFAB9qSX,2020-0188,2021-09-20,20:43:03,22:10:13,NA,incomplete,false,true,NA,1,9,E1_Q3_ansR.png,right,NA,NA,NA,right,1830,true,NA,NA,NA,NA,NA
XFAB9qSX,NA,NA,XFAB9qSX,2020-0188,2021-09-20,20:43:03,22:10:13,NA,incomplete,false,true,NA,1,10,E28_Q2_ansR.png,right,NA,NA,NA,right,1643.39999999106,true,NA,NA,NA,NA,NA
XFAB9qSX,NA,NA,XFAB9qSX,2020-0188,2021-09-20,20:43:03,22:10:13,NA,incomplete,false,true,NA,1,11,E28_Q10_ansR.png,right,NA,NA,NA,right,1330.59999999404,true,NA,NA,NA,NA,NA
XFAB9qSX,NA,NA,XFAB9qSX,2020-0188,2021-09-20,20:43:03,22:10:13,NA,incomplete,false,true,NA,1,12,E28_Q9_ansL.png,left,NA,NA,NA,left,1450.60000000894,true,NA,NA,NA,NA,NA
XFAB9qSX,NA,NA,XFAB9qSX,2020-0188,2021-09-20,20:43:03,22:10:13,NA,incomplete,false,true,NA,1,13,E28_Q1_ansR.png,right,NA,NA,NA,right,1293.39999999106,true,NA,NA,NA,NA,NA
XFAB9qSX,NA,NA,XFAB9qSX,2020-0188,2021-09-20,20:43:03,22:10:13,NA,incomplete,false,true,NA,1,14,E28_Q7_ansR.png,right,NA,NA,NA,right,2393.79999999702,true,NA,NA,NA,NA,NA
XFAB9qSX,NA,NA,XFAB9qSX,2020-0188,2021-09-20,20:43:03,22:10:13,NA,incomplete,false,true,NA,1,15,E28_Q6_ansL.png,left,NA,NA,NA,left,1386,true,NA,NA,NA,NA,NA
XFAB9qSX,NA,NA,XFAB9qSX,2020-0188,2021-09-20,20:43:03,22:10:13,NA,incomplete,false,true,NA,1,16,E28_Q4_ansL.png,left,NA,NA,NA,left,1402.70000000298,true,NA,NA,NA,NA,NA
XFAB9qSX,NA,NA,XFAB9qSX,2020-0188,2021-09-20,20:43:03,22:10:13,NA,incomplete,false,true,NA,1,17,E28_Q3_ansL.png,left,NA,NA,NA,left,1605.90000000596,true,NA,NA,NA,NA,NA
XFAB9qSX,NA,NA,XFAB9qSX,2020-0188,2021-09-20,20:43:03,22:10:13,NA,incomplete,false,true,NA,1,18,E28_Q5_ansL.png,left,NA,NA,NA,left,1340.59999999404,true,NA,NA,NA,NA,NA
XFAB9qSX,NA,NA,XFAB9qSX,2020-0188,2021-09-20,20:43:03,22:10:13,NA,incomplete,false,true,NA,1,19,E28_Q8_ansR.png,right,NA,NA,NA,right,1589.59999999404,true,NA,NA,NA,NA,NA
XFAB9qSX,NA,NA,XFAB9qSX,2020-0188,2021-09-20,20:43:03,22:10:13,NA,incomplete,false,true,NA,1,20,E29_Q3_ansR.png,right,NA,NA,NA,right,1702.70000000298,true,NA,NA,NA,NA,NA
XFAB9qSX,NA,NA,XFAB9qSX,2020-0188,2021-09-20,20:43:03,22:10:13,NA,incomplete,false,true,NA,1,21,E29_Q10_ansL.png,left,NA,NA,NA,left,1063.70000000298,true,NA,NA,NA,NA,NA
XFAB9qSX,NA,NA,XFAB9qSX,2020-0188,2021-09-20,20:43:03,22:10:13,NA,incomplete,false,true,NA,1,22,E29_Q4_ansR.png,right,NA,NA,NA,right,1183.39999999106,true,NA,NA,NA,NA,NA
XFAB9qSX,NA,NA,XFAB9qSX,2020-0188,2021-09-20,20:43:03,22:10:13,NA,incomplete,false,true,NA,1,23,E29_Q9_ansR.png,right,NA,NA,NA,right,1472.19999998808,true,NA,NA,NA,NA,NA
XFAB9qSX,NA,NA,XFAB9qSX,2020-0188,2021-09-20,20:43:03,22:10:13,NA,incomplete,false,true,NA,1,24,E29_Q5_ansR.png,right,NA,NA,NA,right,990.399999991059,true,NA,NA,NA,NA,NA
XFAB9qSX,NA,NA,XFAB9qSX,2020-0188,2021-09-20,20:43:03,22:10:13,NA,incomplete,false,true,NA,1,25,E29_Q1_ansL.png,left,NA,NA,NA,left,844.29999999702,true,NA,NA,NA,NA,NA
XFAB9qSX,NA,NA,XFAB9qSX,2020-0188,2021-09-20,20:43:03,22:10:13,NA,incomplete,false,true,NA,1,26,E29_Q6_ansR.png,right,NA,NA,NA,right,1657.79999999702,true,NA,NA,NA,NA,NA
XFAB9qSX,NA,NA,XFAB9qSX,2020-0188,2021-09-20,20:43:03,22:10:13,NA,incomplete,false,true,NA,1,27,E29_Q2_ansL.png,left,NA,NA,NA,left,1337.5,true,NA,NA,NA,NA,NA
XFAB9qSX,NA,NA,XFAB9qSX,2020-0188,2021-09-20,20:43:03,22:10:13,NA,incomplete,false,true,NA,1,28,E29_Q8_ansL.png,left,NA,NA,NA,left,1546.70000000298,true,NA,NA,NA,NA,NA
XFAB9qSX,NA,NA,XFAB9qSX,2020-0188,2021-09-20,20:43:03,22:10:13,NA,incomplete,false,true,NA,1,29,E29_Q7_ansL.png,left,NA,NA,NA,left,918.79999999702,true,NA,NA,NA,NA,NA
XFAB9qSX,NA,NA,XFAB9qSX,2020-0188,2021-09-20,20:43:03,22:10:13,NA,incomplete,false,NA,true,1,0,NA,right,E28_Q3_ansL.png,E28_Q7_ansR.png,within,NA,NaN,NA,right,4378.4000000059605,1,1,1135.2000000029802
XFAB9qSX,NA,NA,XFAB9qSX,2020-0188,2021-09-20,20:43:03,22:10:13,NA,incomplete,false,NA,true,1,1,NA,left,E29_Q1_ansL.png,E29_Q8_ansL.png,within,NA,NaN,NA,left,3223.2999999970198,1,1,1884.2000000029802
XFAB9qSX,NA,NA,XFAB9qSX,2020-0188,2021-09-20,20:43:03,22:10:13,NA,incomplete,false,NA,true,1,2,NA,left,E1_Q7_ansL.png,E1_Q8_ansR.png,within,NA,NaN,NA,left,3629.2000000029802,1,1,2971.4000000059605
XFAB9qSX,NA,NA,XFAB9qSX,2020-0188,2021-09-20,20:43:03,22:10:13,NA,incomplete,false,NA,true,1,3,NA,right,E29_Q10_ansL.png,E28_Q5_ansL.png,between,NA,NaN,NA,right,3195.2999999970198,1,2,1273.9000000059605
XFAB9qSX,NA,NA,XFAB9qSX,2020-0188,2021-09-20,20:43:03,22:10:13,NA,incomplete,false,NA,true,1,4,NA,left,E1_Q5_ansR.png,E1_Q6_ansR.png,within,NA,NaN,NA,left,3500.6000000089407,1,1,1576
XFAB9qSX,NA,NA,XFAB9qSX,2020-0188,2021-09-20,20:43:03,22:10:13,NA,incomplete,false,NA,true,1,5,NA,right,E1_Q10_ansR.png,E1_Q2_ansL.png,within,NA,NaN,NA,right,5553.399999991059,1,1,1281.8999999910593
XFAB9qSX,NA,NA,XFAB9qSX,2020-0188,2021-09-20,20:43:03,22:10:13,NA,incomplete,false,NA,true,1,6,NA,left,E28_Q3_ansL.png,E29_Q3_ansR.png,between,NA,NaN,NA,left,2445.5,1,0,2279.9000000059605
XFAB9qSX,NA,NA,XFAB9qSX,2020-0188,2021-09-20,20:43:03,22:10:13,NA,incomplete,false,NA,true,1,7,NA,left,E1_Q8_ansR.png,E1_Q3_ansR.png,within,NA,NaN,NA,left,2743.5999999940395,1,1,1451.8999999910593
XFAB9qSX,NA,NA,XFAB9qSX,2020-0188,2021-09-20,20:43:03,22:10:13,NA,incomplete,false,NA,true,1,8,NA,right,E28_Q1_ansR.png,E28_Q2_ansR.png,within,NA,NaN,NA,right,3313.5999999940395,1,1,1175.7000000029802
XFAB9qSX,NA,NA,XFAB9qSX,2020-0188,2021-09-20,20:43:03,22:10:13,NA,incomplete,false,NA,true,1,9,NA,right,E1_Q4_ansL.png,E1_Q10_ansR.png,within,NA,NaN,NA,right,11721.40000000596,1,0,1874.5
XFAB9qSX,NA,NA,XFAB9qSX,2020-0188,2021-09-20,20:43:03,22:10:13,NA,incomplete,false,NA,true,1,10,NA,right,E1_Q7_ansL.png,E1_Q1_ansL.png,within,NA,NaN,NA,right,4742.899999991059,1,1,1379.2999999970198
XFAB9qSX,NA,NA,XFAB9qSX,2020-0188,2021-09-20,20:43:03,22:10:13,NA,incomplete,false,NA,true,1,11,NA,left,E28_Q6_ansL.png,E28_Q5_ansL.png,within,NA,NaN,NA,left,1681.9000000059605,1,0,2131.6000000089407
XFAB9qSX,NA,NA,XFAB9qSX,2020-0188,2021-09-20,20:43:03,22:10:13,NA,incomplete,false,NA,true,1,12,NA,right,E1_Q9_ansL.png,E1_Q6_ansR.png,within,NA,NaN,NA,left,7499.79999999702,0,1,1265.2999999970198
XFAB9qSX,NA,NA,XFAB9qSX,2020-0188,2021-09-20,20:43:03,22:10:13,NA,incomplete,false,NA,true,1,13,NA,right,E29_Q2_ansL.png,E29_Q5_ansR.png,within,NA,NaN,NA,right,7927,1,0,2720.7000000029802
XFAB9qSX,NA,NA,XFAB9qSX,2020-0188,2021-09-20,20:43:03,22:10:13,NA,incomplete,false,NA,true,1,14,NA,left,E1_Q4_ansL.png,E28_Q2_ansR.png,between,NA,NaN,NA,left,2215.5,1,1,2378.8999999910593
XFAB9qSX,NA,NA,XFAB9qSX,2020-0188,2021-09-20,20:43:03,22:10:13,NA,incomplete,false,NA,true,1,15,NA,right,E28_Q9_ansL.png,E1_Q3_ansR.png,between,NA,NaN,NA,right,1615.0999999940395,1,2,1224.9000000059605
XFAB9qSX,NA,NA,XFAB9qSX,2020-0188,2021-09-20,20:43:03,22:10:13,NA,incomplete,false,NA,true,1,16,NA,left,E28_Q1_ansR.png,E28_Q4_ansL.png,within,NA,NaN,NA,left,5963.0999999940395,1,0,2626.7999999970198
XFAB9qSX,NA,NA,XFAB9qSX,2020-0188,2021-09-20,20:43:03,22:10:13,NA,incomplete,false,NA,true,1,17,NA,right,E28_Q8_ansR.png,E28_Q4_ansL.png,within,NA,NaN,NA,left,2191.2000000029802,0,0,1779.0999999940395
XFAB9qSX,NA,NA,XFAB9qSX,2020-0188,2021-09-20,20:43:03,22:10:13,NA,incomplete,false,NA,true,1,18,NA,left,E29_Q6_ansR.png,E29_Q7_ansL.png,within,NA,NaN,NA,left,2590.5999999940395,1,0,1130.0999999940395
XFAB9qSX,NA,NA,XFAB9qSX,2020-0188,2021-09-20,20:43:03,22:10:13,NA,incomplete,false,NA,true,1,19,NA,left,E28_Q10_ansR.png,E28_Q7_ansR.png,within,NA,NaN,NA,left,2381.5999999940395,1,1,1637.2999999970198
XFAB9qSX,NA,NA,XFAB9qSX,2020-0188,2021-09-20,20:43:03,22:10:13,NA,incomplete,false,NA,true,1,20,NA,left,E29_Q3_ansR.png,E29_Q9_ansR.png,within,NA,NaN,NA,left,1655.3999999910593,1,1,1314.699999988079
XFAB9qSX,NA,NA,XFAB9qSX,2020-0188,2021-09-20,20:43:03,22:10:13,NA,incomplete,false,NA,true,1,21,NA,right,E28_Q6_ansL.png,E28_Q9_ansL.png,within,NA,NaN,NA,right,2729.4000000059605,1,0,3043.2999999970198
XFAB9qSX,NA,NA,XFAB9qSX,2020-0188,2021-09-20,20:43:03,22:10:13,NA,incomplete,false,NA,true,1,22,NA,right,E29_Q1_ansL.png,E29_Q4_ansR.png,within,NA,NaN,NA,left,1628,0,0,3702.2999999970198
XFAB9qSX,NA,NA,XFAB9qSX,2020-0188,2021-09-20,20:43:03,22:10:13,NA,incomplete,false,NA,true,1,23,NA,left,E29_Q10_ansL.png,E29_Q5_ansR.png,within,NA,NaN,NA,left,1882.800000011921,1,0,2376.5
XFAB9qSX,NA,NA,XFAB9qSX,2020-0188,2021-09-20,20:43:03,22:10:13,NA,incomplete,false,NA,true,1,24,NA,right,E29_Q6_ansR.png,E29_Q9_ansR.png,within,NA,NaN,NA,right,3990.5,1,1,2216.7000000029802
XFAB9qSX,NA,NA,XFAB9qSX,2020-0188,2021-09-20,20:43:03,22:10:13,NA,incomplete,false,NA,true,1,25,NA,right,E28_Q10_ansR.png,E1_Q9_ansL.png,between,NA,NaN,NA,right,2621.1000000089407,1,2,1299.800000011921
XFAB9qSX,NA,NA,XFAB9qSX,2020-0188,2021-09-20,20:43:03,22:10:13,NA,incomplete,false,NA,true,1,26,NA,left,E28_Q8_ansR.png,E29_Q4_ansR.png,between,NA,NaN,NA,left,2906.7999999970198,1,2,1815.2000000029802
XFAB9qSX,NA,NA,XFAB9qSX,2020-0188,2021-09-20,20:43:03,22:10:13,NA,incomplete,false,true,NA,2,0,E14_Q5_ansR.png,right,NA,NA,NA,left,2206.70000000298,false,NA,NA,NA,NA,NA
XFAB9qSX,NA,NA,XFAB9qSX,2020-0188,2021-09-20,20:43:03,22:10:13,NA,incomplete,false,true,NA,2,1,E14_Q3_ansR.png,right,NA,NA,NA,right,1366.29999999702,true,NA,NA,NA,NA,NA
XFAB9qSX,NA,NA,XFAB9qSX,2020-0188,2021-09-20,20:43:03,22:10:13,NA,incomplete,false,true,NA,2,2,E14_Q1_ansL.png,left,NA,NA,NA,left,1141.40000000596,true,NA,NA,NA,NA,NA
XFAB9qSX,NA,NA,XFAB9qSX,2020-0188,2021-09-20,20:43:03,22:10:13,NA,incomplete,false,true,NA,2,3,E14_Q8_ansL.png,left,NA,NA,NA,left,1891.89999999106,true,NA,NA,NA,NA,NA
XFAB9qSX,NA,NA,XFAB9qSX,2020-0188,2021-09-20,20:43:03,22:10:13,NA,incomplete,false,true,NA,2,4,E14_Q10_ansL.png,left,NA,NA,NA,left,1846.40000000596,true,NA,NA,NA,NA,NA
XFAB9qSX,NA,NA,XFAB9qSX,2020-0188,2021-09-20,20:43:03,22:10:13,NA,incomplete,false,true,NA,2,5,E14_Q4_ansR.png,right,NA,NA,NA,right,854,true,NA,NA,NA,NA,NA
XFAB9qSX,NA,NA,XFAB9qSX,2020-0188,2021-09-20,20:43:03,22:10:13,NA,incomplete,false,true,NA,2,6,E14_Q9_ansR.png,right,NA,NA,NA,right,1166.20000000298,true,NA,NA,NA,NA,NA
XFAB9qSX,NA,NA,XFAB9qSX,2020-0188,2021-09-20,20:43:03,22:10:13,NA,incomplete,false,true,NA,2,7,E14_Q6_ansR.png,right,NA,NA,NA,right,1256.70000000298,true,NA,NA,NA,NA,NA
XFAB9qSX,NA,NA,XFAB9qSX,2020-0188,2021-09-20,20:43:03,22:10:13,NA,incomplete,false,true,NA,2,8,E14_Q2_ansL.png,left,NA,NA,NA,left,771.20000000298,true,NA,NA,NA,NA,NA
XFAB9qSX,NA,NA,XFAB9qSX,2020-0188,2021-09-20,20:43:03,22:10:13,NA,incomplete,false,true,NA,2,9,E14_Q7_ansL.png,left,NA,NA,NA,left,1421.59999999404,true,NA,NA,NA,NA,NA
XFAB9qSX,NA,NA,XFAB9qSX,2020-0188,2021-09-20,20:43:03,22:10:13,NA,incomplete,false,true,NA,2,10,E19_Q4_ansR.png,right,NA,NA,NA,right,1997.70000000298,true,NA,NA,NA,NA,NA
XFAB9qSX,NA,NA,XFAB9qSX,2020-0188,2021-09-20,20:43:03,22:10:13,NA,incomplete,false,true,NA,2,11,E19_Q9_ansR.png,right,NA,NA,NA,right,1636.59999999404,true,NA,NA,NA,NA,NA
XFAB9qSX,NA,NA,XFAB9qSX,2020-0188,2021-09-20,20:43:03,22:10:13,NA,incomplete,false,true,NA,2,12,E19_Q3_ansR.png,right,NA,NA,NA,right,1105.69999998808,true,NA,NA,NA,NA,NA
XFAB9qSX,NA,NA,XFAB9qSX,2020-0188,2021-09-20,20:43:03,22:10:13,NA,incomplete,false,true,NA,2,13,E19_Q5_ansR.png,right,NA,NA,NA,right,2272.60000000894,true,NA,NA,NA,NA,NA
XFAB9qSX,NA,NA,XFAB9qSX,2020-0188,2021-09-20,20:43:03,22:10:13,NA,incomplete,false,true,NA,2,14,E19_Q7_ansL.png,left,NA,NA,NA,left,1209,true,NA,NA,NA,NA,NA
XFAB9qSX,NA,NA,XFAB9qSX,2020-0188,2021-09-20,20:43:03,22:10:13,NA,incomplete,false,true,NA,2,15,E19_Q10_ansL.png,left,NA,NA,NA,left,1616.40000000596,true,NA,NA,NA,NA,NA
XFAB9qSX,NA,NA,XFAB9qSX,2020-0188,2021-09-20,20:43:03,22:10:13,NA,incomplete,false,true,NA,2,16,E19_Q6_ansR.png,right,NA,NA,NA,right,1885.79999999702,true,NA,NA,NA,NA,NA
XFAB9qSX,NA,NA,XFAB9qSX,2020-0188,2021-09-20,20:43:03,22:10:13,NA,incomplete,false,true,NA,2,17,E19_Q2_ansL.png,left,NA,NA,NA,left,2083.40000000596,true,NA,NA,NA,NA,NA
XFAB9qSX,NA,NA,XFAB9qSX,2020-0188,2021-09-20,20:43:03,22:10:13,NA,incomplete,false,true,NA,2,18,E19_Q1_ansL.png,left,NA,NA,NA,left,1086.09999999404,true,NA,NA,NA,NA,NA
XFAB9qSX,NA,NA,XFAB9qSX,2020-0188,2021-09-20,20:43:03,22:10:13,NA,incomplete,false,true,NA,2,19,E19_Q8_ansL.png,left,NA,NA,NA,left,1394.40000000596,true,NA,NA,NA,NA,NA
XFAB9qSX,NA,NA,XFAB9qSX,2020-0188,2021-09-20,20:43:03,22:10:13,NA,incomplete,false,true,NA,2,20,E7_Q9_ansR.png,right,NA,NA,NA,right,2554.40000000596,true,NA,NA,NA,NA,NA
XFAB9qSX,NA,NA,XFAB9qSX,2020-0188,2021-09-20,20:43:03,22:10:13,NA,incomplete,false,true,NA,2,21,E7_Q5_ansR.png,right,NA,NA,NA,right,1237.69999998808,true,NA,NA,NA,NA,NA
XFAB9qSX,NA,NA,XFAB9qSX,2020-0188,2021-09-20,20:43:03,22:10:13,NA,incomplete,false,true,NA,2,22,E7_Q6_ansR.png,right,NA,NA,NA,right,1236.79999999702,true,NA,NA,NA,NA,NA
XFAB9qSX,NA,NA,XFAB9qSX,2020-0188,2021-09-20,20:43:03,22:10:13,NA,incomplete,false,true,NA,2,23,E7_Q3_ansR.png,right,NA,NA,NA,right,1134,true,NA,NA,NA,NA,NA
XFAB9qSX,NA,NA,XFAB9qSX,2020-0188,2021-09-20,20:43:03,22:10:13,NA,incomplete,false,true,NA,2,24,E7_Q1_ansL.png,left,NA,NA,NA,left,1211.90000000596,true,NA,NA,NA,NA,NA
XFAB9qSX,NA,NA,XFAB9qSX,2020-0188,2021-09-20,20:43:03,22:10:13,NA,incomplete,false,true,NA,2,25,E7_Q10_ansR.png,right,NA,NA,NA,right,1872.09999999404,true,NA,NA,NA,NA,NA
XFAB9qSX,NA,NA,XFAB9qSX,2020-0188,2021-09-20,20:43:03,22:10:13,NA,incomplete,false,true,NA,2,26,E7_Q2_ansL.png,left,NA,NA,NA,left,1119.90000000596,true,NA,NA,NA,NA,NA
XFAB9qSX,NA,NA,XFAB9qSX,2020-0188,2021-09-20,20:43:03,22:10:13,NA,incomplete,false,true,NA,2,27,E7_Q8_ansL.png,left,NA,NA,NA,left,1291.79999999702,true,NA,NA,NA,NA,NA
XFAB9qSX,NA,NA,XFAB9qSX,2020-0188,2021-09-20,20:43:03,22:10:13,NA,incomplete,false,true,NA,2,28,E7_Q4_ansR.png,right,NA,NA,NA,right,998.29999999702,true,NA,NA,NA,NA,NA
XFAB9qSX,NA,NA,XFAB9qSX,2020-0188,2021-09-20,20:43:03,22:10:13,NA,incomplete,false,true,NA,2,29,E7_Q7_ansL.png,left,NA,NA,NA,left,1438,true,NA,NA,NA,NA,NA
XFAB9qSX,NA,NA,XFAB9qSX,2020-0188,2021-09-20,20:43:03,22:10:13,NA,incomplete,false,NA,true,2,0,NA,left,E14_Q4_ansR.png,E14_Q2_ansL.png,within,NA,NaN,NA,left,5377.20000000298,1,0,1685.3999999910593
XFAB9qSX,NA,NA,XFAB9qSX,2020-0188,2021-09-20,20:43:03,22:10:13,NA,incomplete,false,NA,true,2,1,NA,right,E7_Q3_ansR.png,E7_Q9_ansR.png,within,NA,NaN,NA,right,1595.6000000089407,1,1,3611.7999999970198
XFAB9qSX,NA,NA,XFAB9qSX,2020-0188,2021-09-20,20:43:03,22:10:13,NA,incomplete,false,NA,true,2,2,NA,left,E14_Q1_ansL.png,E14_Q4_ansR.png,within,NA,NaN,NA,right,6562.0999999940395,0,0,1916.199999988079
XFAB9qSX,NA,NA,XFAB9qSX,2020-0188,2021-09-20,20:43:03,22:10:13,NA,incomplete,false,NA,true,2,3,NA,left,E19_Q6_ansR.png,E19_Q8_ansL.png,within,NA,NaN,NA,left,2593.7999999970198,1,1,1747.5999999940395
XFAB9qSX,NA,NA,XFAB9qSX,2020-0188,2021-09-20,20:43:03,22:10:13,NA,incomplete,false,NA,true,2,4,NA,right,E19_Q9_ansR.png,E14_Q2_ansL.png,between,NA,NaN,NA,right,1467.9000000059605,1,2,3051.699999988079
XFAB9qSX,NA,NA,XFAB9qSX,2020-0188,2021-09-20,20:43:03,22:10:13,NA,incomplete,false,NA,true,2,5,NA,right,E7_Q6_ansR.png,E19_Q8_ansL.png,between,NA,NaN,NA,right,4446.5,1,2,5788.800000011921
XFAB9qSX,NA,NA,XFAB9qSX,2020-0188,2021-09-20,20:43:03,22:10:13,NA,incomplete,false,NA,true,2,6,NA,left,E7_Q3_ansR.png,E7_Q2_ansL.png,within,NA,NaN,NA,left,1654,1,1,3836.7999999970198
XFAB9qSX,NA,NA,XFAB9qSX,2020-0188,2021-09-20,20:43:03,22:10:13,NA,incomplete,false,NA,true,2,7,NA,left,E19_Q2_ansL.png,E7_Q9_ansR.png,between,NA,NaN,NA,left,4562.699999988079,1,2,4637
XFAB9qSX,NA,NA,XFAB9qSX,2020-0188,2021-09-20,20:43:03,22:10:13,NA,incomplete,false,NA,true,2,8,NA,left,E14_Q10_ansL.png,E14_Q6_ansR.png,within,NA,NaN,NA,left,3087.5,1,0,4507.100000008941
XFAB9qSX,NA,NA,XFAB9qSX,2020-0188,2021-09-20,20:43:03,22:10:13,NA,incomplete,false,NA,true,2,9,NA,left,E19_Q1_ansL.png,E7_Q5_ansR.png,between,NA,NaN,NA,left,2424.4000000059605,1,2,4139.5999999940395
XFAB9qSX,NA,NA,XFAB9qSX,2020-0188,2021-09-20,20:43:03,22:10:13,NA,incomplete,false,NA,true,2,10,NA,left,E19_Q4_ansR.png,E19_Q5_ansR.png,within,NA,NaN,NA,left,1595.2000000029802,1,0,1907.2999999970198
XFAB9qSX,NA,NA,XFAB9qSX,2020-0188,2021-09-20,20:43:03,22:10:13,NA,incomplete,false,NA,true,2,11,NA,right,E19_Q1_ansL.png,E19_Q10_ansL.png,within,NA,NaN,NA,right,2397.3999999910593,1,1,2648.6000000089407
XFAB9qSX,NA,NA,XFAB9qSX,2020-0188,2021-09-20,20:43:03,22:10:13,NA,incomplete,false,NA,true,2,12,NA,right,E7_Q10_ansR.png,E7_Q6_ansR.png,within,NA,NaN,NA,right,3815.4000000059605,1,1,2770.2999999970198
XFAB9qSX,NA,NA,XFAB9qSX,2020-0188,2021-09-20,20:43:03,22:10:13,NA,incomplete,false,NA,true,2,13,NA,right,E14_Q9_ansR.png,E14_Q8_ansL.png,within,NA,NaN,NA,right,3396.5,1,1,1747
XFAB9qSX,NA,NA,XFAB9qSX,2020-0188,2021-09-20,20:43:03,22:10:13,NA,incomplete,false,NA,true,2,14,NA,right,E19_Q6_ansR.png,E19_Q5_ansR.png,within,NA,NaN,NA,right,1443.5999999940395,1,1,2325.2999999970198
XFAB9qSX,NA,NA,XFAB9qSX,2020-0188,2021-09-20,20:43:03,22:10:13,NA,incomplete,false,NA,true,2,15,NA,left,E7_Q2_ansL.png,E7_Q7_ansL.png,within,NA,NaN,NA,left,2268.699999988079,1,0,2911.699999988079
XFAB9qSX,NA,NA,XFAB9qSX,2020-0188,2021-09-20,20:43:03,22:10:13,NA,incomplete,false,NA,true,2,16,NA,left,E7_Q5_ansR.png,E7_Q1_ansL.png,within,NA,NaN,NA,left,4494.5,1,1,1826.0999999940395
XFAB9qSX,NA,NA,XFAB9qSX,2020-0188,2021-09-20,20:43:03,22:10:13,NA,incomplete,false,NA,true,2,17,NA,left,E14_Q9_ansR.png,E14_Q7_ansL.png,within,NA,NaN,NA,right,2021.0999999940395,0,1,1526.5
XFAB9qSX,NA,NA,XFAB9qSX,2020-0188,2021-09-20,20:43:03,22:10:13,NA,incomplete,false,NA,true,2,18,NA,left,E14_Q3_ansR.png,E14_Q10_ansL.png,within,NA,NaN,NA,left,5921.5,1,1,1097.699999988079
XFAB9qSX,NA,NA,XFAB9qSX,2020-0188,2021-09-20,20:43:03,22:10:13,NA,incomplete,false,NA,true,2,19,NA,right,E14_Q8_ansL.png,E14_Q5_ansR.png,within,NA,NaN,NA,right,1534.300000011921,1,0,1645.5
XFAB9qSX,NA,NA,XFAB9qSX,2020-0188,2021-09-20,20:43:03,22:10:13,NA,incomplete,false,NA,true,2,20,NA,left,E14_Q6_ansR.png,E19_Q4_ansR.png,between,NA,NaN,NA,left,1816.9000000059605,1,1,1883.9000000059605
XFAB9qSX,NA,NA,XFAB9qSX,2020-0188,2021-09-20,20:43:03,22:10:13,NA,incomplete,false,NA,true,2,21,NA,right,E19_Q7_ansL.png,E19_Q9_ansR.png,within,NA,NaN,NA,right,1808.4000000059605,1,1,2322.7999999970198
XFAB9qSX,NA,NA,XFAB9qSX,2020-0188,2021-09-20,20:43:03,22:10:13,NA,incomplete,false,NA,true,2,22,NA,right,E19_Q3_ansR.png,E14_Q7_ansL.png,between,NA,NaN,NA,right,2796.2999999970198,1,3,3637.300000011921
XFAB9qSX,NA,NA,XFAB9qSX,2020-0188,2021-09-20,20:43:03,22:10:13,NA,incomplete,false,NA,true,2,23,NA,right,E7_Q8_ansL.png,E7_Q1_ansL.png,within,NA,NaN,NA,left,2253.7000000029802,0,0,3061.800000011921
XFAB9qSX,NA,NA,XFAB9qSX,2020-0188,2021-09-20,20:43:03,22:10:13,NA,incomplete,false,NA,true,2,24,NA,left,E7_Q10_ansR.png,E7_Q4_ansR.png,within,NA,NaN,NA,left,3890.0999999940395,1,0,1835
XFAB9qSX,NA,NA,XFAB9qSX,2020-0188,2021-09-20,20:43:03,22:10:13,NA,incomplete,false,NA,true,2,25,NA,left,E19_Q7_ansL.png,E19_Q2_ansL.png,within,NA,NaN,NA,left,6700.79999999702,1,1,1566.699999988079
XFAB9qSX,NA,NA,XFAB9qSX,2020-0188,2021-09-20,20:43:03,22:10:13,NA,incomplete,false,NA,true,2,26,NA,right,E19_Q10_ansL.png,E19_Q3_ansR.png,within,NA,NaN,NA,right,1386.4000000059605,1,0,1411.9000000059605
XFAB9qSX,NA,NA,XFAB9qSX,2020-0188,2021-09-20,20:43:03,22:10:13,NA,incomplete,false,true,NA,3,0,E5_Q9_ansR.png,right,NA,NA,NA,right,2594.70000000298,true,NA,NA,NA,NA,NA
XFAB9qSX,NA,NA,XFAB9qSX,2020-0188,2021-09-20,20:43:03,22:10:13,NA,incomplete,false,true,NA,3,1,E5_Q2_ansL.png,left,NA,NA,NA,left,997.199999988079,true,NA,NA,NA,NA,NA
XFAB9qSX,NA,NA,XFAB9qSX,2020-0188,2021-09-20,20:43:03,22:10:13,NA,incomplete,false,true,NA,3,2,E5_Q10_ansR.png,right,NA,NA,NA,right,1035.39999999106,true,NA,NA,NA,NA,NA
XFAB9qSX,NA,NA,XFAB9qSX,2020-0188,2021-09-20,20:43:03,22:10:13,NA,incomplete,false,true,NA,3,3,E5_Q1_ansL.png,left,NA,NA,NA,left,1029.39999999106,true,NA,NA,NA,NA,NA
XFAB9qSX,NA,NA,XFAB9qSX,2020-0188,2021-09-20,20:43:03,22:10:13,NA,incomplete,false,true,NA,3,4,E5_Q4_ansR.png,right,NA,NA,NA,right,937.600000008941,true,NA,NA,NA,NA,NA
XFAB9qSX,NA,NA,XFAB9qSX,2020-0188,2021-09-20,20:43:03,22:10:13,NA,incomplete,false,true,NA,3,5,E5_Q6_ansR.png,right,NA,NA,NA,right,911.09999999404,true,NA,NA,NA,NA,NA
XFAB9qSX,NA,NA,XFAB9qSX,2020-0188,2021-09-20,20:43:03,22:10:13,NA,incomplete,false,true,NA,3,6,E5_Q8_ansL.png,left,NA,NA,NA,left,921,true,NA,NA,NA,NA,NA
XFAB9qSX,NA,NA,XFAB9qSX,2020-0188,2021-09-20,20:43:03,22:10:13,NA,incomplete,false,true,NA,3,7,E5_Q5_ansR.png,right,NA,NA,NA,right,995.899999991059,true,NA,NA,NA,NA,NA
XFAB9qSX,NA,NA,XFAB9qSX,2020-0188,2021-09-20,20:43:03,22:10:13,NA,incomplete,false,true,NA,3,8,E5_Q3_ansR.png,right,NA,NA,NA,right,1446.20000000298,true,NA,NA,NA,NA,NA
XFAB9qSX,NA,NA,XFAB9qSX,2020-0188,2021-09-20,20:43:03,22:10:13,NA,incomplete,false,true,NA,3,9,E5_Q7_ansL.png,left,NA,NA,NA,left,834.20000000298,true,NA,NA,NA,NA,NA
XFAB9qSX,NA,NA,XFAB9qSX,2020-0188,2021-09-20,20:43:03,22:10:13,NA,incomplete,false,true,NA,3,10,E22_Q5_ansL.png,left,NA,NA,NA,left,1639.69999998808,true,NA,NA,NA,NA,NA
XFAB9qSX,NA,NA,XFAB9qSX,2020-0188,2021-09-20,20:43:03,22:10:13,NA,incomplete,false,true,NA,3,11,E22_Q10_ansR.png,right,NA,NA,NA,right,1233.70000000298,true,NA,NA,NA,NA,NA
XFAB9qSX,NA,NA,XFAB9qSX,2020-0188,2021-09-20,20:43:03,22:10:13,NA,incomplete,false,true,NA,3,12,E22_Q8_ansR.png,right,NA,NA,NA,right,840.100000008941,true,NA,NA,NA,NA,NA
XFAB9qSX,NA,NA,XFAB9qSX,2020-0188,2021-09-20,20:43:03,22:10:13,NA,incomplete,false,true,NA,3,13,E22_Q4_ansL.png,left,NA,NA,NA,left,901.20000000298,true,NA,NA,NA,NA,NA
XFAB9qSX,NA,NA,XFAB9qSX,2020-0188,2021-09-20,20:43:03,22:10:13,NA,incomplete,false,true,NA,3,14,E22_Q9_ansL.png,left,NA,NA,NA,left,1213.80000001192,true,NA,NA,NA,NA,NA
XFAB9qSX,NA,NA,XFAB9qSX,2020-0188,2021-09-20,20:43:03,22:10:13,NA,incomplete,false,true,NA,3,15,E22_Q7_ansR.png,right,NA,NA,NA,right,1060.30000001192,true,NA,NA,NA,NA,NA
XFAB9qSX,NA,NA,XFAB9qSX,2020-0188,2021-09-20,20:43:03,22:10:13,NA,incomplete,false,true,NA,3,16,E22_Q3_ansL.png,left,NA,NA,NA,left,985.100000008941,true,NA,NA,NA,NA,NA
XFAB9qSX,NA,NA,XFAB9qSX,2020-0188,2021-09-20,20:43:03,22:10:13,NA,incomplete,false,true,NA,3,17,E22_Q6_ansL.png,left,NA,NA,NA,left,1334,true,NA,NA,NA,NA,NA
XFAB9qSX,NA,NA,XFAB9qSX,2020-0188,2021-09-20,20:43:03,22:10:13,NA,incomplete,false,true,NA,3,18,E22_Q2_ansR.png,right,NA,NA,NA,right,856.5,true,NA,NA,NA,NA,NA
XFAB9qSX,NA,NA,XFAB9qSX,2020-0188,2021-09-20,20:43:03,22:10:13,NA,incomplete,false,true,NA,3,19,E22_Q1_ansR.png,right,NA,NA,NA,right,1050,true,NA,NA,NA,NA,NA
XFAB9qSX,NA,NA,XFAB9qSX,2020-0188,2021-09-20,20:43:03,22:10:13,NA,incomplete,false,true,NA,3,20,E15_Q1_ansL.png,left,NA,NA,NA,left,3241.59999999404,true,NA,NA,NA,NA,NA
XFAB9qSX,NA,NA,XFAB9qSX,2020-0188,2021-09-20,20:43:03,22:10:13,NA,incomplete,false,true,NA,3,21,E15_Q9_ansR.png,right,NA,NA,NA,right,3260.59999999404,true,NA,NA,NA,NA,NA
XFAB9qSX,NA,NA,XFAB9qSX,2020-0188,2021-09-20,20:43:03,22:10:13,NA,incomplete,false,true,NA,3,22,E15_Q2_ansL.png,left,NA,NA,NA,none,0,false,NA,NA,NA,NA,NA
XFAB9qSX,NA,NA,XFAB9qSX,2020-0188,2021-09-20,20:43:03,22:10:13,NA,incomplete,false,true,NA,3,23,E15_Q6_ansR.png,right,NA,NA,NA,right,3238.39999999106,true,NA,NA,NA,NA,NA
XFAB9qSX,NA,NA,XFAB9qSX,2020-0188,2021-09-20,20:43:03,22:10:13,NA,incomplete,false,true,NA,3,24,E15_Q10_ansL.png,left,NA,NA,NA,left,2211.29999999702,true,NA,NA,NA,NA,NA
XFAB9qSX,NA,NA,XFAB9qSX,2020-0188,2021-09-20,20:43:03,22:10:13,NA,incomplete,false,true,NA,3,25,E15_Q4_ansR.png,right,NA,NA,NA,right,1538.79999999702,true,NA,NA,NA,NA,NA
XFAB9qSX,NA,NA,XFAB9qSX,2020-0188,2021-09-20,20:43:03,22:10:13,NA,incomplete,false,true,NA,3,26,E15_Q3_ansR.png,right,NA,NA,NA,right,2112.10000000894,true,NA,NA,NA,NA,NA
XFAB9qSX,NA,NA,XFAB9qSX,2020-0188,2021-09-20,20:43:03,22:10:13,NA,incomplete,false,true,NA,3,27,E15_Q5_ansR.png,right,NA,NA,NA,left,1079.70000000298,false,NA,NA,NA,NA,NA
XFAB9qSX,NA,NA,XFAB9qSX,2020-0188,2021-09-20,20:43:03,22:10:13,NA,incomplete,false,true,NA,3,28,E15_Q8_ansL.png,left,NA,NA,NA,right,499.5,false,NA,NA,NA,NA,NA
XFAB9qSX,NA,NA,XFAB9qSX,2020-0188,2021-09-20,20:43:03,22:10:13,NA,incomplete,false,true,NA,3,29,E15_Q7_ansL.png,left,NA,NA,NA,right,2145.20000000298,false,NA,NA,NA,NA,NA
XFAB9qSX,NA,NA,XFAB9qSX,2020-0188,2021-09-20,20:43:03,22:10:13,NA,incomplete,false,NA,true,3,0,NA,left,E22_Q4_ansL.png,E22_Q3_ansL.png,within,NA,NaN,NA,left,1981,1,1,970
XFAB9qSX,NA,NA,XFAB9qSX,2020-0188,2021-09-20,20:43:03,22:10:13,NA,incomplete,false,NA,true,3,1,NA,left,E15_Q3_ansR.png,E15_Q7_ansL.png,within,NA,NaN,NA,left,2445.6000000089407,1,0,1678.2999999970198
XFAB9qSX,NA,NA,XFAB9qSX,2020-0188,2021-09-20,20:43:03,22:10:13,NA,incomplete,false,NA,true,3,2,NA,right,E15_Q2_ansL.png,E22_Q1_ansR.png,between,NA,NaN,NA,right,1901.300000011921,1,2,3083.9000000059605
XFAB9qSX,NA,NA,XFAB9qSX,2020-0188,2021-09-20,20:43:03,22:10:13,NA,incomplete,false,NA,true,3,3,NA,left,E22_Q2_ansR.png,E15_Q9_ansR.png,between,NA,NaN,NA,left,2434.2999999970198,1,1,2053.199999988079
XFAB9qSX,NA,NA,XFAB9qSX,2020-0188,2021-09-20,20:43:03,22:10:13,NA,incomplete,false,NA,true,3,4,NA,left,E22_Q9_ansL.png,E22_Q6_ansL.png,within,NA,NaN,NA,right,7089.300000011921,0,0,1582.5
XFAB9qSX,NA,NA,XFAB9qSX,2020-0188,2021-09-20,20:43:03,22:10:13,NA,incomplete,false,NA,true,3,5,NA,right,E22_Q1_ansR.png,E22_Q3_ansL.png,within,NA,NaN,NA,left,7829.5999999940395,0,0,1541.7999999970198
XFAB9qSX,NA,NA,XFAB9qSX,2020-0188,2021-09-20,20:43:03,22:10:13,NA,incomplete,false,NA,true,3,6,NA,left,E5_Q8_ansL.png,E5_Q7_ansL.png,within,NA,NaN,NA,right,3903.9000000059605,0,0,2646.2000000029802
XFAB9qSX,NA,NA,XFAB9qSX,2020-0188,2021-09-20,20:43:03,22:10:13,NA,incomplete,false,NA,true,3,7,NA,right,E22_Q5_ansL.png,E5_Q5_ansR.png,between,NA,NaN,NA,right,1834.4000000059605,1,1,2353.300000011921
XFAB9qSX,NA,NA,XFAB9qSX,2020-0188,2021-09-20,20:43:03,22:10:13,NA,incomplete,false,NA,true,3,8,NA,right,E15_Q1_ansL.png,E22_Q6_ansL.png,between,NA,NaN,NA,right,1549.3999999910593,1,2,1217.2000000029802
XFAB9qSX,NA,NA,XFAB9qSX,2020-0188,2021-09-20,20:43:03,22:10:13,NA,incomplete,false,NA,true,3,9,NA,right,E5_Q1_ansL.png,E5_Q9_ansR.png,within,NA,NaN,NA,right,1851.4000000059605,1,0,1256
XFAB9qSX,NA,NA,XFAB9qSX,2020-0188,2021-09-20,20:43:03,22:10:13,NA,incomplete,false,NA,true,3,10,NA,left,E22_Q10_ansR.png,E22_Q9_ansL.png,within,NA,NaN,NA,left,1615.5,1,1,2329.3999999910593
XFAB9qSX,NA,NA,XFAB9qSX,2020-0188,2021-09-20,20:43:03,22:10:13,NA,incomplete,false,NA,true,3,11,NA,left,E15_Q1_ansL.png,E15_Q6_ansR.png,within,NA,NaN,NA,left,4085.2999999970198,1,1,2142.2999999970198
XFAB9qSX,NA,NA,XFAB9qSX,2020-0188,2021-09-20,20:43:03,22:10:13,NA,incomplete,false,NA,true,3,12,NA,right,E22_Q10_ansR.png,E5_Q3_ansR.png,between,NA,NaN,NA,right,1154.6000000089407,1,2,2102.6000000089407
XFAB9qSX,NA,NA,XFAB9qSX,2020-0188,2021-09-20,20:43:03,22:10:13,NA,incomplete,false,NA,true,3,13,NA,right,E15_Q8_ansL.png,E15_Q4_ansR.png,within,NA,NaN,NA,right,1624,1,0,1745.7999999970198
XFAB9qSX,NA,NA,XFAB9qSX,2020-0188,2021-09-20,20:43:03,22:10:13,NA,incomplete,false,NA,true,3,14,NA,left,E22_Q5_ansL.png,E22_Q4_ansL.png,within,NA,NaN,NA,left,2061.2000000029802,1,0,2192.1000000089407
XFAB9qSX,NA,NA,XFAB9qSX,2020-0188,2021-09-20,20:43:03,22:10:13,NA,incomplete,false,NA,true,3,15,NA,right,E5_Q3_ansR.png,E5_Q6_ansR.png,within,NA,NaN,NA,left,4629.5,0,0,1281.6000000089407
XFAB9qSX,NA,NA,XFAB9qSX,2020-0188,2021-09-20,20:43:03,22:10:13,NA,incomplete,false,NA,true,3,16,NA,right,E15_Q4_ansR.png,E15_Q2_ansL.png,within,NA,NaN,NA,right,2364,1,0,2098.5999999940395
XFAB9qSX,NA,NA,XFAB9qSX,2020-0188,2021-09-20,20:43:03,22:10:13,NA,incomplete,false,NA,true,3,17,NA,right,E5_Q6_ansR.png,E5_Q10_ansR.png,within,NA,NaN,NA,right,1236.2999999970198,1,1,1253.2000000029802
XFAB9qSX,NA,NA,XFAB9qSX,2020-0188,2021-09-20,20:43:03,22:10:13,NA,incomplete,false,NA,true,3,18,NA,left,E5_Q7_ansL.png,E22_Q8_ansR.png,between,NA,NaN,NA,left,1343.9000000059605,1,2,1216.7999999970198
XFAB9qSX,NA,NA,XFAB9qSX,2020-0188,2021-09-20,20:43:03,22:10:13,NA,incomplete,false,NA,true,3,19,NA,left,E5_Q2_ansL.png,E5_Q4_ansR.png,within,NA,NaN,NA,left,1538.9000000059605,1,1,2184.2000000029802
XFAB9qSX,NA,NA,XFAB9qSX,2020-0188,2021-09-20,20:43:03,22:10:13,NA,incomplete,false,NA,true,3,20,NA,left,E5_Q4_ansR.png,E5_Q5_ansR.png,within,NA,NaN,NA,left,1892,1,1,1311.6000000089407
XFAB9qSX,NA,NA,XFAB9qSX,2020-0188,2021-09-20,20:43:03,22:10:13,NA,incomplete,false,NA,true,3,21,NA,right,E22_Q2_ansR.png,E22_Q7_ansR.png,within,NA,NaN,NA,right,1736.5,1,1,1752
XFAB9qSX,NA,NA,XFAB9qSX,2020-0188,2021-09-20,20:43:03,22:10:13,NA,incomplete,false,NA,true,3,22,NA,right,E5_Q8_ansL.png,E5_Q1_ansL.png,within,NA,NaN,NA,right,1789.5999999940395,1,1,1162.5999999940395
XFAB9qSX,NA,NA,XFAB9qSX,2020-0188,2021-09-20,20:43:03,22:10:13,NA,incomplete,false,NA,true,3,23,NA,left,E15_Q9_ansR.png,E15_Q10_ansL.png,within,NA,NaN,NA,left,1743.5999999940395,1,1,1220.1000000089407
XFAB9qSX,NA,NA,XFAB9qSX,2020-0188,2021-09-20,20:43:03,22:10:13,NA,incomplete,false,NA,true,3,24,NA,left,E22_Q8_ansR.png,E22_Q7_ansR.png,within,NA,NaN,NA,left,1435.5,1,1,1345.5999999940395
XFAB9qSX,NA,NA,XFAB9qSX,2020-0188,2021-09-20,20:43:03,22:10:13,NA,incomplete,false,NA,true,3,25,NA,right,E15_Q3_ansR.png,E15_Q6_ansR.png,within,NA,NaN,NA,left,1443.2000000029802,0,1,1655.0999999940395
XFAB9qSX,NA,NA,XFAB9qSX,2020-0188,2021-09-20,20:43:03,22:10:13,NA,incomplete,false,NA,true,3,26,NA,left,E15_Q10_ansL.png,E15_Q5_ansR.png,within,NA,NaN,NA,left,1907,1,1,1395.7000000029802
XFAB9qSX,NA,NA,XFAB9qSX,2020-0188,2021-09-20,20:43:03,22:10:13,NA,incomplete,false,true,NA,4,0,E31_Q4_ansL.png,left,NA,NA,NA,none,0,false,NA,NA,NA,NA,NA
XFAB9qSX,NA,NA,XFAB9qSX,2020-0188,2021-09-20,20:43:03,22:10:13,NA,incomplete,false,true,NA,4,1,E31_Q2_ansR.png,right,NA,NA,NA,right,2215.79999999702,true,NA,NA,NA,NA,NA
XFAB9qSX,NA,NA,XFAB9qSX,2020-0188,2021-09-20,20:43:03,22:10:13,NA,incomplete,false,true,NA,4,2,E31_Q7_ansR.png,right,NA,NA,NA,right,1467.20000000298,true,NA,NA,NA,NA,NA
XFAB9qSX,NA,NA,XFAB9qSX,2020-0188,2021-09-20,20:43:03,22:10:13,NA,incomplete,false,true,NA,4,3,E31_Q10_ansR.png,right,NA,NA,NA,right,1144,true,NA,NA,NA,NA,NA
XFAB9qSX,NA,NA,XFAB9qSX,2020-0188,2021-09-20,20:43:03,22:10:13,NA,incomplete,false,true,NA,4,4,E31_Q1_ansR.png,right,NA,NA,NA,right,1181.09999999404,true,NA,NA,NA,NA,NA
XFAB9qSX,NA,NA,XFAB9qSX,2020-0188,2021-09-20,20:43:03,22:10:13,NA,incomplete,false,true,NA,4,5,E31_Q3_ansL.png,left,NA,NA,NA,left,1452.70000000298,true,NA,NA,NA,NA,NA
XFAB9qSX,NA,NA,XFAB9qSX,2020-0188,2021-09-20,20:43:03,22:10:13,NA,incomplete,false,true,NA,4,6,E31_Q6_ansL.png,left,NA,NA,NA,left,1110.70000000298,true,NA,NA,NA,NA,NA
XFAB9qSX,NA,NA,XFAB9qSX,2020-0188,2021-09-20,20:43:03,22:10:13,NA,incomplete,false,true,NA,4,7,E31_Q5_ansL.png,left,NA,NA,NA,left,966.5,true,NA,NA,NA,NA,NA
XFAB9qSX,NA,NA,XFAB9qSX,2020-0188,2021-09-20,20:43:03,22:10:13,NA,incomplete,false,true,NA,4,8,E31_Q9_ansL.png,left,NA,NA,NA,left,1309.10000000894,true,NA,NA,NA,NA,NA
XFAB9qSX,NA,NA,XFAB9qSX,2020-0188,2021-09-20,20:43:03,22:10:13,NA,incomplete,false,true,NA,4,9,E31_Q8_ansR.png,right,NA,NA,NA,right,1386.89999999106,true,NA,NA,NA,NA,NA
XFAB9qSX,NA,NA,XFAB9qSX,2020-0188,2021-09-20,20:43:03,22:10:13,NA,incomplete,false,true,NA,4,10,E18_Q4_ansR.png,right,NA,NA,NA,right,1287.60000000894,true,NA,NA,NA,NA,NA
XFAB9qSX,NA,NA,XFAB9qSX,2020-0188,2021-09-20,20:43:03,22:10:13,NA,incomplete,false,true,NA,4,11,E18_Q8_ansL.png,left,NA,NA,NA,left,1470.40000000596,true,NA,NA,NA,NA,NA
XFAB9qSX,NA,NA,XFAB9qSX,2020-0188,2021-09-20,20:43:03,22:10:13,NA,incomplete,false,true,NA,4,12,E18_Q3_ansR.png,right,NA,NA,NA,right,1319.70000000298,true,NA,NA,NA,NA,NA
XFAB9qSX,NA,NA,XFAB9qSX,2020-0188,2021-09-20,20:43:03,22:10:13,NA,incomplete,false,true,NA,4,13,E18_Q10_ansL.png,left,NA,NA,NA,left,1268.90000000596,true,NA,NA,NA,NA,NA
XFAB9qSX,NA,NA,XFAB9qSX,2020-0188,2021-09-20,20:43:03,22:10:13,NA,incomplete,false,true,NA,4,14,E18_Q1_ansL.png,left,NA,NA,NA,left,1675.59999999404,true,NA,NA,NA,NA,NA
XFAB9qSX,NA,NA,XFAB9qSX,2020-0188,2021-09-20,20:43:03,22:10:13,NA,incomplete,false,true,NA,4,15,E18_Q5_ansR.png,right,NA,NA,NA,right,909.5,true,NA,NA,NA,NA,NA
XFAB9qSX,NA,NA,XFAB9qSX,2020-0188,2021-09-20,20:43:03,22:10:13,NA,incomplete,false,true,NA,4,16,E18_Q9_ansR.png,right,NA,NA,NA,right,1002.39999999106,true,NA,NA,NA,NA,NA
XFAB9qSX,NA,NA,XFAB9qSX,2020-0188,2021-09-20,20:43:03,22:10:13,NA,incomplete,false,true,NA,4,17,E18_Q7_ansL.png,left,NA,NA,NA,left,1291.79999999702,true,NA,NA,NA,NA,NA
XFAB9qSX,NA,NA,XFAB9qSX,2020-0188,2021-09-20,20:43:03,22:10:13,NA,incomplete,false,true,NA,4,18,E18_Q6_ansR.png,right,NA,NA,NA,right,1023.89999999106,true,NA,NA,NA,NA,NA
XFAB9qSX,NA,NA,XFAB9qSX,2020-0188,2021-09-20,20:43:03,22:10:13,NA,incomplete,false,true,NA,4,19,E18_Q2_ansL.png,left,NA,NA,NA,left,1206,true,NA,NA,NA,NA,NA
XFAB9qSX,NA,NA,XFAB9qSX,2020-0188,2021-09-20,20:43:03,22:10:13,NA,incomplete,false,true,NA,4,20,E24_Q9_ansL.png,left,NA,NA,NA,left,1631.79999999702,true,NA,NA,NA,NA,NA
XFAB9qSX,NA,NA,XFAB9qSX,2020-0188,2021-09-20,20:43:03,22:10:13,NA,incomplete,false,true,NA,4,21,E24_Q5_ansL.png,left,NA,NA,NA,left,1386.10000000894,true,NA,NA,NA,NA,NA
XFAB9qSX,NA,NA,XFAB9qSX,2020-0188,2021-09-20,20:43:03,22:10:13,NA,incomplete,false,true,NA,4,22,E24_Q8_ansR.png,right,NA,NA,NA,right,1339.59999999404,true,NA,NA,NA,NA,NA
XFAB9qSX,NA,NA,XFAB9qSX,2020-0188,2021-09-20,20:43:03,22:10:13,NA,incomplete,false,true,NA,4,23,E24_Q1_ansR.png,right,NA,NA,NA,right,1243.79999999702,true,NA,NA,NA,NA,NA
XFAB9qSX,NA,NA,XFAB9qSX,2020-0188,2021-09-20,20:43:03,22:10:13,NA,incomplete,false,true,NA,4,24,E24_Q7_ansR.png,right,NA,NA,NA,right,1068.09999999404,true,NA,NA,NA,NA,NA
XFAB9qSX,NA,NA,XFAB9qSX,2020-0188,2021-09-20,20:43:03,22:10:13,NA,incomplete,false,true,NA,4,25,E24_Q10_ansR.png,right,NA,NA,NA,right,1291.59999999404,true,NA,NA,NA,NA,NA
XFAB9qSX,NA,NA,XFAB9qSX,2020-0188,2021-09-20,20:43:03,22:10:13,NA,incomplete,false,true,NA,4,26,E24_Q6_ansL.png,left,NA,NA,NA,left,1354.09999999404,true,NA,NA,NA,NA,NA
XFAB9qSX,NA,NA,XFAB9qSX,2020-0188,2021-09-20,20:43:03,22:10:13,NA,incomplete,false,true,NA,4,27,E24_Q2_ansR.png,right,NA,NA,NA,right,1567.90000000596,true,NA,NA,NA,NA,NA
XFAB9qSX,NA,NA,XFAB9qSX,2020-0188,2021-09-20,20:43:03,22:10:13,NA,incomplete,false,true,NA,4,28,E24_Q3_ansL.png,left,NA,NA,NA,left,1734.70000000298,true,NA,NA,NA,NA,NA
XFAB9qSX,NA,NA,XFAB9qSX,2020-0188,2021-09-20,20:43:03,22:10:13,NA,incomplete,false,true,NA,4,29,E24_Q4_ansL.png,left,NA,NA,NA,left,1863,true,NA,NA,NA,NA,NA
XFAB9qSX,NA,NA,XFAB9qSX,2020-0188,2021-09-20,20:43:03,22:10:13,NA,incomplete,false,NA,true,4,0,NA,left,E24_Q10_ansR.png,E24_Q3_ansL.png,within,NA,NaN,NA,left,2500.9000000059605,1,0,1151.199999988079
XFAB9qSX,NA,NA,XFAB9qSX,2020-0188,2021-09-20,20:43:03,22:10:13,NA,incomplete,false,NA,true,4,1,NA,left,E31_Q5_ansL.png,E18_Q4_ansR.png,between,NA,NaN,NA,left,1185.5999999940395,1,1,3021.5
XFAB9qSX,NA,NA,XFAB9qSX,2020-0188,2021-09-20,20:43:03,22:10:13,NA,incomplete,false,NA,true,4,2,NA,left,E24_Q1_ansR.png,E24_Q6_ansL.png,within,NA,NaN,NA,right,3321.5,0,0,2012.9000000059605
XFAB9qSX,NA,NA,XFAB9qSX,2020-0188,2021-09-20,20:43:03,22:10:13,NA,incomplete,false,NA,true,4,3,NA,right,E31_Q1_ansR.png,E31_Q2_ansR.png,within,NA,NaN,NA,right,4929.79999999702,1,0,1233.5999999940395
XFAB9qSX,NA,NA,XFAB9qSX,2020-0188,2021-09-20,20:43:03,22:10:13,NA,incomplete,false,NA,true,4,4,NA,right,E18_Q9_ansR.png,E18_Q10_ansL.png,within,NA,NaN,NA,right,3783.6000000089407,1,0,1144
XFAB9qSX,NA,NA,XFAB9qSX,2020-0188,2021-09-20,20:43:03,22:10:13,NA,incomplete,false,NA,true,4,5,NA,left,E31_Q3_ansL.png,E31_Q9_ansL.png,within,NA,NaN,NA,left,2632.7000000029802,1,1,1323.7999999970198
XFAB9qSX,NA,NA,XFAB9qSX,2020-0188,2021-09-20,20:43:03,22:10:13,NA,incomplete,false,NA,true,4,6,NA,right,E18_Q6_ansR.png,E18_Q5_ansR.png,within,NA,NaN,NA,right,3037.2000000029802,1,0,1124.5999999940395
XFAB9qSX,NA,NA,XFAB9qSX,2020-0188,2021-09-20,20:43:03,22:10:13,NA,incomplete,false,NA,true,4,7,NA,left,E31_Q8_ansR.png,E18_Q3_ansR.png,between,NA,NaN,NA,left,1461.7999999970198,1,2,2072.7999999970198
XFAB9qSX,NA,NA,XFAB9qSX,2020-0188,2021-09-20,20:43:03,22:10:13,NA,incomplete,false,NA,true,4,8,NA,left,E31_Q7_ansR.png,E31_Q3_ansL.png,within,NA,NaN,NA,left,2461.2999999970198,1,1,1241.3999999910593
XFAB9qSX,NA,NA,XFAB9qSX,2020-0188,2021-09-20,20:43:03,22:10:13,NA,incomplete,false,NA,true,4,9,NA,left,E24_Q6_ansL.png,E24_Q4_ansL.png,within,NA,NaN,NA,left,2579.2000000029802,1,1,1469.0999999940395
XFAB9qSX,NA,NA,XFAB9qSX,2020-0188,2021-09-20,20:43:03,22:10:13,NA,incomplete,false,NA,true,4,10,NA,right,E24_Q2_ansR.png,E24_Q7_ansR.png,within,NA,NaN,NA,right,4303.29999999702,1,1,1595
XFAB9qSX,NA,NA,XFAB9qSX,2020-0188,2021-09-20,20:43:03,22:10:13,NA,incomplete,false,NA,true,4,11,NA,left,E18_Q8_ansL.png,E18_Q1_ansL.png,within,NA,NaN,NA,left,2154.7999999970198,1,0,2577.4000000059605
XFAB9qSX,NA,NA,XFAB9qSX,2020-0188,2021-09-20,20:43:03,22:10:13,NA,incomplete,false,NA,true,4,12,NA,left,E24_Q5_ansL.png,E24_Q7_ansR.png,within,NA,NaN,NA,left,1376.2000000029802,1,0,1248.7000000029802
XFAB9qSX,NA,NA,XFAB9qSX,2020-0188,2021-09-20,20:43:03,22:10:13,NA,incomplete,false,NA,true,4,13,NA,right,E18_Q2_ansL.png,E18_Q9_ansR.png,within,NA,NaN,NA,left,2501.5,0,1,987.8000000119209
XFAB9qSX,NA,NA,XFAB9qSX,2020-0188,2021-09-20,20:43:03,22:10:13,NA,incomplete,false,NA,true,4,14,NA,right,E18_Q10_ansL.png,E18_Q4_ansR.png,within,NA,NaN,NA,right,1469.5999999940395,1,0,1371.199999988079
XFAB9qSX,NA,NA,XFAB9qSX,2020-0188,2021-09-20,20:43:03,22:10:13,NA,incomplete,false,NA,true,4,15,NA,left,E24_Q8_ansR.png,E24_Q10_ansR.png,within,NA,NaN,NA,left,1971.9000000059605,1,0,1665.5999999940395
XFAB9qSX,NA,NA,XFAB9qSX,2020-0188,2021-09-20,20:43:03,22:10:13,NA,incomplete,false,NA,true,4,16,NA,left,E31_Q4_ansL.png,E31_Q10_ansR.png,within,NA,NaN,NA,left,2081.4000000059605,1,0,1864.5
XFAB9qSX,NA,NA,XFAB9qSX,2020-0188,2021-09-20,20:43:03,22:10:13,NA,incomplete,false,NA,true,4,17,NA,left,E18_Q1_ansL.png,E18_Q7_ansL.png,within,NA,NaN,NA,left,3736,1,0,1134.2999999970198
XFAB9qSX,NA,NA,XFAB9qSX,2020-0188,2021-09-20,20:43:03,22:10:13,NA,incomplete,false,NA,true,4,18,NA,left,E31_Q10_ansR.png,E31_Q6_ansL.png,within,NA,NaN,NA,left,5306.899999991059,1,0,1119.6000000089407
XFAB9qSX,NA,NA,XFAB9qSX,2020-0188,2021-09-20,20:43:03,22:10:13,NA,incomplete,false,NA,true,4,19,NA,right,E24_Q9_ansL.png,E18_Q7_ansL.png,between,NA,NaN,NA,right,5907.199999988079,1,2,1418.5999999940395
XFAB9qSX,NA,NA,XFAB9qSX,2020-0188,2021-09-20,20:43:03,22:10:13,NA,incomplete,false,NA,true,4,20,NA,left,E18_Q6_ansR.png,E24_Q5_ansL.png,between,NA,NaN,NA,left,3084,1,2,965.6000000089407
XFAB9qSX,NA,NA,XFAB9qSX,2020-0188,2021-09-20,20:43:03,22:10:13,NA,incomplete,false,NA,true,4,21,NA,right,E31_Q5_ansL.png,E31_Q1_ansR.png,within,NA,NaN,NA,right,9141.90000000596,1,0,2700.2999999970198
XFAB9qSX,NA,NA,XFAB9qSX,2020-0188,2021-09-20,20:43:03,22:10:13,NA,incomplete,false,NA,true,4,22,NA,right,E31_Q8_ansR.png,E31_Q6_ansL.png,within,NA,NaN,NA,right,1598.7000000029802,1,1,1062.4000000059605
XFAB9qSX,NA,NA,XFAB9qSX,2020-0188,2021-09-20,20:43:03,22:10:13,NA,incomplete,false,NA,true,4,23,NA,right,E18_Q8_ansL.png,E31_Q9_ansL.png,between,NA,NaN,NA,right,1345.7000000029802,1,1,1644.6000000089407
XFAB9qSX,NA,NA,XFAB9qSX,2020-0188,2021-09-20,20:43:03,22:10:13,NA,incomplete,false,NA,true,4,24,NA,right,E24_Q1_ansR.png,E24_Q9_ansL.png,within,NA,NaN,NA,right,1526.2000000029802,1,0,2287.199999988079
XFAB9qSX,NA,NA,XFAB9qSX,2020-0188,2021-09-20,20:43:03,22:10:13,NA,incomplete,false,NA,true,4,25,NA,left,E18_Q2_ansL.png,E24_Q8_ansR.png,between,NA,NaN,NA,left,1793.4000000059605,1,2,2207.800000011921
XFAB9qSX,NA,NA,XFAB9qSX,2020-0188,2021-09-20,20:43:03,22:10:13,NA,incomplete,false,NA,true,4,26,NA,right,E18_Q5_ansR.png,E18_Q3_ansR.png,within,NA,NaN,NA,right,2062.699999988079,1,0,1919.0999999940395
XFAB9qSX,NA,NA,XFAB9qSX,2020-0188,2021-09-20,20:43:03,22:10:13,NA,incomplete,false,true,NA,5,0,E32_Q5_ansR.png,right,NA,NA,NA,right,2257.19999998808,true,NA,NA,NA,NA,NA
XFAB9qSX,NA,NA,XFAB9qSX,2020-0188,2021-09-20,20:43:03,22:10:13,NA,incomplete,false,true,NA,5,1,E32_Q2_ansL.png,left,NA,NA,NA,left,1033.5,true,NA,NA,NA,NA,NA
XFAB9qSX,NA,NA,XFAB9qSX,2020-0188,2021-09-20,20:43:03,22:10:13,NA,incomplete,false,true,NA,5,2,E32_Q3_ansR.png,right,NA,NA,NA,right,1365.40000000596,true,NA,NA,NA,NA,NA
XFAB9qSX,NA,NA,XFAB9qSX,2020-0188,2021-09-20,20:43:03,22:10:13,NA,incomplete,false,true,NA,5,3,E32_Q1_ansL.png,left,NA,NA,NA,left,1203.60000000894,true,NA,NA,NA,NA,NA
XFAB9qSX,NA,NA,XFAB9qSX,2020-0188,2021-09-20,20:43:03,22:10:13,NA,incomplete,false,true,NA,5,4,E32_Q7_ansL.png,left,NA,NA,NA,left,1836.70000000298,true,NA,NA,NA,NA,NA
XFAB9qSX,NA,NA,XFAB9qSX,2020-0188,2021-09-20,20:43:03,22:10:13,NA,incomplete,false,true,NA,5,5,E32_Q10_ansL.png,left,NA,NA,NA,left,2056.60000000894,true,NA,NA,NA,NA,NA
XFAB9qSX,NA,NA,XFAB9qSX,2020-0188,2021-09-20,20:43:03,22:10:13,NA,incomplete,false,true,NA,5,6,E32_Q8_ansL.png,left,NA,NA,NA,left,1125.5,true,NA,NA,NA,NA,NA
XFAB9qSX,NA,NA,XFAB9qSX,2020-0188,2021-09-20,20:43:03,22:10:13,NA,incomplete,false,true,NA,5,7,E32_Q6_ansR.png,right,NA,NA,NA,right,1222.09999999404,true,NA,NA,NA,NA,NA
XFAB9qSX,NA,NA,XFAB9qSX,2020-0188,2021-09-20,20:43:03,22:10:13,NA,incomplete,false,true,NA,5,8,E32_Q9_ansR.png,right,NA,NA,NA,right,2188.90000000596,true,NA,NA,NA,NA,NA
XFAB9qSX,NA,NA,XFAB9qSX,2020-0188,2021-09-20,20:43:03,22:10:13,NA,incomplete,false,true,NA,5,9,E32_Q4_ansR.png,right,NA,NA,NA,right,1260.69999998808,true,NA,NA,NA,NA,NA
XFAB9qSX,NA,NA,XFAB9qSX,2020-0188,2021-09-20,20:43:03,22:10:13,NA,incomplete,false,true,NA,5,10,E21_Q2_ansL.png,left,NA,NA,NA,left,1084.5,true,NA,NA,NA,NA,NA
XFAB9qSX,NA,NA,XFAB9qSX,2020-0188,2021-09-20,20:43:03,22:10:13,NA,incomplete,false,true,NA,5,11,E21_Q9_ansR.png,right,NA,NA,NA,right,1211.19999998808,true,NA,NA,NA,NA,NA
XFAB9qSX,NA,NA,XFAB9qSX,2020-0188,2021-09-20,20:43:03,22:10:13,NA,incomplete,false,true,NA,5,12,E21_Q4_ansR.png,right,NA,NA,NA,right,1016.79999999702,true,NA,NA,NA,NA,NA
XFAB9qSX,NA,NA,XFAB9qSX,2020-0188,2021-09-20,20:43:03,22:10:13,NA,incomplete,false,true,NA,5,13,E21_Q1_ansL.png,left,NA,NA,NA,left,1244.70000000298,true,NA,NA,NA,NA,NA
XFAB9qSX,NA,NA,XFAB9qSX,2020-0188,2021-09-20,20:43:03,22:10:13,NA,incomplete,false,true,NA,5,14,E21_Q3_ansR.png,right,NA,NA,NA,right,917.100000008941,true,NA,NA,NA,NA,NA
XFAB9qSX,NA,NA,XFAB9qSX,2020-0188,2021-09-20,20:43:03,22:10:13,NA,incomplete,false,true,NA,5,15,E21_Q8_ansL.png,left,NA,NA,NA,left,1931.20000000298,true,NA,NA,NA,NA,NA
XFAB9qSX,NA,NA,XFAB9qSX,2020-0188,2021-09-20,20:43:03,22:10:13,NA,incomplete,false,true,NA,5,16,E21_Q10_ansL.png,left,NA,NA,NA,left,1265.60000000894,true,NA,NA,NA,NA,NA
XFAB9qSX,NA,NA,XFAB9qSX,2020-0188,2021-09-20,20:43:03,22:10:13,NA,incomplete,false,true,NA,5,17,E21_Q5_ansR.png,right,NA,NA,NA,right,869.29999999702,true,NA,NA,NA,NA,NA
XFAB9qSX,NA,NA,XFAB9qSX,2020-0188,2021-09-20,20:43:03,22:10:13,NA,incomplete,false,true,NA,5,18,E21_Q7_ansL.png,left,NA,NA,NA,left,1117,true,NA,NA,NA,NA,NA
XFAB9qSX,NA,NA,XFAB9qSX,2020-0188,2021-09-20,20:43:03,22:10:13,NA,incomplete,false,true,NA,5,19,E21_Q6_ansR.png,right,NA,NA,NA,right,1277.80000001192,true,NA,NA,NA,NA,NA
XFAB9qSX,NA,NA,XFAB9qSX,2020-0188,2021-09-20,20:43:03,22:10:13,NA,incomplete,false,true,NA,5,20,E26_Q1_ansL.png,left,NA,NA,NA,left,2229.19999998808,true,NA,NA,NA,NA,NA
XFAB9qSX,NA,NA,XFAB9qSX,2020-0188,2021-09-20,20:43:03,22:10:13,NA,incomplete,false,true,NA,5,21,E26_Q9_ansR.png,right,NA,NA,NA,right,1118.70000000298,true,NA,NA,NA,NA,NA
XFAB9qSX,NA,NA,XFAB9qSX,2020-0188,2021-09-20,20:43:03,22:10:13,NA,incomplete,false,true,NA,5,22,E26_Q3_ansR.png,right,NA,NA,NA,right,2047.40000000596,true,NA,NA,NA,NA,NA
XFAB9qSX,NA,NA,XFAB9qSX,2020-0188,2021-09-20,20:43:03,22:10:13,NA,incomplete,false,true,NA,5,23,E26_Q7_ansL.png,left,NA,NA,NA,left,1940.5,true,NA,NA,NA,NA,NA
XFAB9qSX,NA,NA,XFAB9qSX,2020-0188,2021-09-20,20:43:03,22:10:13,NA,incomplete,false,true,NA,5,24,E26_Q2_ansL.png,left,NA,NA,NA,left,1546.79999999702,true,NA,NA,NA,NA,NA
XFAB9qSX,NA,NA,XFAB9qSX,2020-0188,2021-09-20,20:43:03,22:10:13,NA,incomplete,false,true,NA,5,25,E26_Q10_ansL.png,left,NA,NA,NA,left,1244.40000000596,true,NA,NA,NA,NA,NA
XFAB9qSX,NA,NA,XFAB9qSX,2020-0188,2021-09-20,20:43:03,22:10:13,NA,incomplete,false,true,NA,5,26,E26_Q6_ansR.png,right,NA,NA,NA,right,2431.80000001192,true,NA,NA,NA,NA,NA
XFAB9qSX,NA,NA,XFAB9qSX,2020-0188,2021-09-20,20:43:03,22:10:13,NA,incomplete,false,true,NA,5,27,E26_Q8_ansL.png,left,NA,NA,NA,left,1840.29999999702,true,NA,NA,NA,NA,NA
XFAB9qSX,NA,NA,XFAB9qSX,2020-0188,2021-09-20,20:43:03,22:10:13,NA,incomplete,false,true,NA,5,28,E26_Q5_ansR.png,right,NA,NA,NA,right,1782.40000000596,true,NA,NA,NA,NA,NA
XFAB9qSX,NA,NA,XFAB9qSX,2020-0188,2021-09-20,20:43:03,22:10:13,NA,incomplete,false,true,NA,5,29,E26_Q4_ansR.png,right,NA,NA,NA,right,1315.40000000596,true,NA,NA,NA,NA,NA
XFAB9qSX,NA,NA,XFAB9qSX,2020-0188,2021-09-20,20:43:03,22:10:13,NA,incomplete,false,NA,true,5,0,NA,right,E21_Q8_ansL.png,E21_Q4_ansR.png,within,NA,NaN,NA,right,1380.2999999970198,1,1,1150.7999999970198
XFAB9qSX,NA,NA,XFAB9qSX,2020-0188,2021-09-20,20:43:03,22:10:13,NA,incomplete,false,NA,true,5,1,NA,left,E26_Q3_ansR.png,E26_Q10_ansL.png,within,NA,NaN,NA,left,2758.5,1,1,1210.4000000059605
XFAB9qSX,NA,NA,XFAB9qSX,2020-0188,2021-09-20,20:43:03,22:10:13,NA,incomplete,false,NA,true,5,2,NA,right,E32_Q10_ansL.png,E32_Q3_ansR.png,within,NA,NaN,NA,right,1731.2999999970198,1,1,2572.7999999970198
XFAB9qSX,NA,NA,XFAB9qSX,2020-0188,2021-09-20,20:43:03,22:10:13,NA,incomplete,false,NA,true,5,3,NA,left,E32_Q9_ansR.png,E21_Q9_ansR.png,between,NA,NaN,NA,left,1434.7000000029802,1,2,2241.7000000029802
XFAB9qSX,NA,NA,XFAB9qSX,2020-0188,2021-09-20,20:43:03,22:10:13,NA,incomplete,false,NA,true,5,4,NA,left,E26_Q6_ansR.png,E26_Q4_ansR.png,within,NA,NaN,NA,right,1955.5999999940395,0,1,2448.6000000089407
XFAB9qSX,NA,NA,XFAB9qSX,2020-0188,2021-09-20,20:43:03,22:10:13,NA,incomplete,false,NA,true,5,5,NA,left,E21_Q3_ansR.png,E21_Q5_ansR.png,within,NA,NaN,NA,left,2191.8999999910593,1,1,2980.5
XFAB9qSX,NA,NA,XFAB9qSX,2020-0188,2021-09-20,20:43:03,22:10:13,NA,incomplete,false,NA,true,5,6,NA,right,E21_Q10_ansL.png,E21_Q1_ansL.png,within,NA,NaN,NA,right,1778.6000000089407,1,0,1965.2000000029802
XFAB9qSX,NA,NA,XFAB9qSX,2020-0188,2021-09-20,20:43:03,22:10:13,NA,incomplete,false,NA,true,5,7,NA,left,E32_Q2_ansL.png,E32_Q7_ansL.png,within,NA,NaN,NA,left,2850,1,0,1875.1000000089407
XFAB9qSX,NA,NA,XFAB9qSX,2020-0188,2021-09-20,20:43:03,22:10:13,NA,incomplete,false,NA,true,5,8,NA,left,E32_Q5_ansR.png,E32_Q1_ansL.png,within,NA,NaN,NA,left,1310.0999999940395,1,0,1412.4000000059605
XFAB9qSX,NA,NA,XFAB9qSX,2020-0188,2021-09-20,20:43:03,22:10:13,NA,incomplete,false,NA,true,5,9,NA,left,E21_Q5_ansR.png,E26_Q1_ansL.png,between,NA,NaN,NA,left,3376.5,1,3,1965.2999999970198
XFAB9qSX,NA,NA,XFAB9qSX,2020-0188,2021-09-20,20:43:03,22:10:13,NA,incomplete,false,NA,true,5,10,NA,right,E21_Q6_ansR.png,E21_Q10_ansL.png,within,NA,NaN,NA,right,2575.7999999970198,1,1,2179.8999999910593
XFAB9qSX,NA,NA,XFAB9qSX,2020-0188,2021-09-20,20:43:03,22:10:13,NA,incomplete,false,NA,true,5,11,NA,right,E21_Q1_ansL.png,E21_Q2_ansL.png,within,NA,NaN,NA,right,1141.0999999940395,1,1,2582
XFAB9qSX,NA,NA,XFAB9qSX,2020-0188,2021-09-20,20:43:03,22:10:13,NA,incomplete,false,NA,true,5,12,NA,left,E32_Q1_ansL.png,E32_Q8_ansL.png,within,NA,NaN,NA,left,1361,1,1,2345
XFAB9qSX,NA,NA,XFAB9qSX,2020-0188,2021-09-20,20:43:03,22:10:13,NA,incomplete,false,NA,true,5,13,NA,right,E26_Q7_ansL.png,E26_Q1_ansL.png,within,NA,NaN,NA,right,1942.5,1,1,1541
XFAB9qSX,NA,NA,XFAB9qSX,2020-0188,2021-09-20,20:43:03,22:10:13,NA,incomplete,false,NA,true,5,14,NA,right,E21_Q3_ansR.png,E21_Q9_ansR.png,within,NA,NaN,NA,right,1768.9000000059605,1,1,1781.7000000029802
XFAB9qSX,NA,NA,XFAB9qSX,2020-0188,2021-09-20,20:43:03,22:10:13,NA,incomplete,false,NA,true,5,15,NA,right,E32_Q6_ansR.png,E32_Q7_ansL.png,within,NA,NaN,NA,right,1776.8999999910593,1,1,2472.800000011921
XFAB9qSX,NA,NA,XFAB9qSX,2020-0188,2021-09-20,20:43:03,22:10:13,NA,incomplete,false,NA,true,5,16,NA,right,E32_Q9_ansR.png,E32_Q10_ansL.png,within,NA,NaN,NA,left,1327,0,1,1387.2000000029802
XFAB9qSX,NA,NA,XFAB9qSX,2020-0188,2021-09-20,20:43:03,22:10:13,NA,incomplete,false,NA,true,5,17,NA,right,E26_Q6_ansR.png,E26_Q7_ansL.png,within,NA,NaN,NA,right,1384.699999988079,1,1,1703.7000000029802
XFAB9qSX,NA,NA,XFAB9qSX,2020-0188,2021-09-20,20:43:03,22:10:13,NA,incomplete,false,NA,true,5,18,NA,left,E32_Q6_ansR.png,E21_Q2_ansL.png,between,NA,NaN,NA,left,9827.40000000596,1,1,6334.4000000059605
XFAB9qSX,NA,NA,XFAB9qSX,2020-0188,2021-09-20,20:43:03,22:10:13,NA,incomplete,false,NA,true,5,19,NA,left,E26_Q2_ansL.png,E26_Q8_ansL.png,within,NA,NaN,NA,left,5206.100000008941,1,1,1608.2000000029802
XFAB9qSX,NA,NA,XFAB9qSX,2020-0188,2021-09-20,20:43:03,22:10:13,NA,incomplete,false,NA,true,5,20,NA,right,E32_Q4_ansR.png,E32_Q8_ansL.png,within,NA,NaN,NA,left,2474.7999999970198,0,1,2491.2999999970198
XFAB9qSX,NA,NA,XFAB9qSX,2020-0188,2021-09-20,20:43:03,22:10:13,NA,incomplete,false,NA,true,5,21,NA,right,E21_Q7_ansL.png,E21_Q8_ansL.png,within,NA,NaN,NA,right,1783.7000000029802,1,1,2680
XFAB9qSX,NA,NA,XFAB9qSX,2020-0188,2021-09-20,20:43:03,22:10:13,NA,incomplete,false,NA,true,5,22,NA,right,E26_Q9_ansR.png,E21_Q7_ansL.png,between,NA,NaN,NA,right,1200.7999999970198,1,2,1338.2000000029802
XFAB9qSX,NA,NA,XFAB9qSX,2020-0188,2021-09-20,20:43:03,22:10:13,NA,incomplete,false,NA,true,5,23,NA,left,E26_Q10_ansL.png,E26_Q5_ansR.png,within,NA,NaN,NA,left,1782.5,1,1,1020.2000000029802
XFAB9qSX,NA,NA,XFAB9qSX,2020-0188,2021-09-20,20:43:03,22:10:13,NA,incomplete,false,NA,true,5,24,NA,left,E21_Q6_ansR.png,E26_Q3_ansR.png,between,NA,NaN,NA,left,1196.7000000029802,1,2,2216.2999999970198
XFAB9qSX,NA,NA,XFAB9qSX,2020-0188,2021-09-20,20:43:03,22:10:13,NA,incomplete,false,NA,true,5,25,NA,left,E26_Q9_ansR.png,E26_Q2_ansL.png,within,NA,NaN,NA,right,3385.7999999970198,0,1,2488.4000000059605
XFAB9qSX,NA,NA,XFAB9qSX,2020-0188,2021-09-20,20:43:03,22:10:13,NA,incomplete,false,NA,true,5,26,NA,right,E21_Q4_ansR.png,E32_Q4_ansR.png,between,NA,NaN,NA,left,2981.5999999940395,0,2,6519.20000000298
XFAB9qSX,NA,NA,XFAB9qSX,2020-0188,2021-09-20,20:43:03,22:10:13,NA,incomplete,false,true,NA,6,0,E20_Q10_ansL.png,left,NA,NA,NA,left,3259.70000000298,true,NA,NA,NA,NA,NA
XFAB9qSX,NA,NA,XFAB9qSX,2020-0188,2021-09-20,20:43:03,22:10:13,NA,incomplete,false,true,NA,6,1,E20_Q2_ansL.png,left,NA,NA,NA,left,2366.40000000596,true,NA,NA,NA,NA,NA
XFAB9qSX,NA,NA,XFAB9qSX,2020-0188,2021-09-20,20:43:03,22:10:13,NA,incomplete,false,true,NA,6,2,E20_Q5_ansR.png,right,NA,NA,NA,right,1391.40000000596,true,NA,NA,NA,NA,NA
XFAB9qSX,NA,NA,XFAB9qSX,2020-0188,2021-09-20,20:43:03,22:10:13,NA,incomplete,false,true,NA,6,3,E20_Q1_ansL.png,left,NA,NA,NA,left,1791.5,true,NA,NA,NA,NA,NA
XFAB9qSX,NA,NA,XFAB9qSX,2020-0188,2021-09-20,20:43:03,22:10:13,NA,incomplete,false,true,NA,6,4,E20_Q4_ansR.png,right,NA,NA,NA,right,2886.70000000298,true,NA,NA,NA,NA,NA
XFAB9qSX,NA,NA,XFAB9qSX,2020-0188,2021-09-20,20:43:03,22:10:13,NA,incomplete,false,true,NA,6,5,E20_Q3_ansR.png,right,NA,NA,NA,right,1797.20000000298,true,NA,NA,NA,NA,NA
XFAB9qSX,NA,NA,XFAB9qSX,2020-0188,2021-09-20,20:43:03,22:10:13,NA,incomplete,false,true,NA,6,6,E20_Q6_ansR.png,right,NA,NA,NA,right,1257.5,true,NA,NA,NA,NA,NA
XFAB9qSX,NA,NA,XFAB9qSX,2020-0188,2021-09-20,20:43:03,22:10:13,NA,incomplete,false,true,NA,6,7,E20_Q8_ansL.png,left,NA,NA,NA,left,1578.79999999702,true,NA,NA,NA,NA,NA
XFAB9qSX,NA,NA,XFAB9qSX,2020-0188,2021-09-20,20:43:03,22:10:13,NA,incomplete,false,true,NA,6,8,E20_Q7_ansL.png,left,NA,NA,NA,left,1582.09999999404,true,NA,NA,NA,NA,NA
XFAB9qSX,NA,NA,XFAB9qSX,2020-0188,2021-09-20,20:43:03,22:10:13,NA,incomplete,false,true,NA,6,9,E20_Q9_ansR.png,right,NA,NA,NA,right,2472.79999999702,true,NA,NA,NA,NA,NA
XFAB9qSX,NA,NA,XFAB9qSX,2020-0188,2021-09-20,20:43:03,22:10:13,NA,incomplete,false,true,NA,6,10,E10_Q4_ansL.png,left,NA,NA,NA,none,0,false,NA,NA,NA,NA,NA
XFAB9qSX,NA,NA,XFAB9qSX,2020-0188,2021-09-20,20:43:03,22:10:13,NA,incomplete,false,true,NA,6,11,E10_Q1_ansL.png,left,NA,NA,NA,left,269.899999991059,true,NA,NA,NA,NA,NA
XFAB9qSX,NA,NA,XFAB9qSX,2020-0188,2021-09-20,20:43:03,22:10:13,NA,incomplete,false,true,NA,6,12,E10_Q7_ansR.png,right,NA,NA,NA,none,0,false,NA,NA,NA,NA,NA
XFAB9qSX,NA,NA,XFAB9qSX,2020-0188,2021-09-20,20:43:03,22:10:13,NA,incomplete,false,true,NA,6,13,E10_Q2_ansL.png,left,NA,NA,NA,left,2795.5,true,NA,NA,NA,NA,NA
XFAB9qSX,NA,NA,XFAB9qSX,2020-0188,2021-09-20,20:43:03,22:10:13,NA,incomplete,false,true,NA,6,14,E10_Q8_ansR.png,right,NA,NA,NA,right,2235.80000001192,true,NA,NA,NA,NA,NA
XFAB9qSX,NA,NA,XFAB9qSX,2020-0188,2021-09-20,20:43:03,22:10:13,NA,incomplete,false,true,NA,6,15,E10_Q5_ansR.png,right,NA,NA,NA,right,1406.20000000298,true,NA,NA,NA,NA,NA
XFAB9qSX,NA,NA,XFAB9qSX,2020-0188,2021-09-20,20:43:03,22:10:13,NA,incomplete,false,true,NA,6,16,E10_Q3_ansL.png,left,NA,NA,NA,none,0,false,NA,NA,NA,NA,NA
XFAB9qSX,NA,NA,XFAB9qSX,2020-0188,2021-09-20,20:43:03,22:10:13,NA,incomplete,false,true,NA,6,17,E10_Q9_ansL.png,left,NA,NA,NA,left,2319,true,NA,NA,NA,NA,NA
XFAB9qSX,NA,NA,XFAB9qSX,2020-0188,2021-09-20,20:43:03,22:10:13,NA,incomplete,false,true,NA,6,18,E10_Q10_ansR.png,right,NA,NA,NA,right,1931.40000000596,true,NA,NA,NA,NA,NA
XFAB9qSX,NA,NA,XFAB9qSX,2020-0188,2021-09-20,20:43:03,22:10:13,NA,incomplete,false,true,NA,6,19,E10_Q6_ansR.png,right,NA,NA,NA,right,2352.5,true,NA,NA,NA,NA,NA
XFAB9qSX,NA,NA,XFAB9qSX,2020-0188,2021-09-20,20:43:03,22:10:13,NA,incomplete,false,true,NA,6,20,E12_Q6_ansR.png,right,NA,NA,NA,right,2018.5,true,NA,NA,NA,NA,NA
XFAB9qSX,NA,NA,XFAB9qSX,2020-0188,2021-09-20,20:43:03,22:10:13,NA,incomplete,false,true,NA,6,21,E12_Q8_ansL.png,left,NA,NA,NA,left,3175.89999999106,true,NA,NA,NA,NA,NA
XFAB9qSX,NA,NA,XFAB9qSX,2020-0188,2021-09-20,20:43:03,22:10:13,NA,incomplete,false,true,NA,6,22,E12_Q7_ansL.png,left,NA,NA,NA,left,1946.79999999702,true,NA,NA,NA,NA,NA
XFAB9qSX,NA,NA,XFAB9qSX,2020-0188,2021-09-20,20:43:03,22:10:13,NA,incomplete,false,true,NA,6,23,E12_Q5_ansR.png,right,NA,NA,NA,right,1114,true,NA,NA,NA,NA,NA
XFAB9qSX,NA,NA,XFAB9qSX,2020-0188,2021-09-20,20:43:03,22:10:13,NA,incomplete,false,true,NA,6,24,E12_Q10_ansL.png,left,NA,NA,NA,left,1817.20000000298,true,NA,NA,NA,NA,NA
XFAB9qSX,NA,NA,XFAB9qSX,2020-0188,2021-09-20,20:43:03,22:10:13,NA,incomplete,false,true,NA,6,25,E12_Q4_ansR.png,right,NA,NA,NA,right,1243.80000001192,true,NA,NA,NA,NA,NA
XFAB9qSX,NA,NA,XFAB9qSX,2020-0188,2021-09-20,20:43:03,22:10:13,NA,incomplete,false,true,NA,6,26,E12_Q3_ansR.png,right,NA,NA,NA,right,865,true,NA,NA,NA,NA,NA
XFAB9qSX,NA,NA,XFAB9qSX,2020-0188,2021-09-20,20:43:03,22:10:13,NA,incomplete,false,true,NA,6,27,E12_Q2_ansL.png,left,NA,NA,NA,left,2274.90000000596,true,NA,NA,NA,NA,NA
XFAB9qSX,NA,NA,XFAB9qSX,2020-0188,2021-09-20,20:43:03,22:10:13,NA,incomplete,false,true,NA,6,28,E12_Q1_ansL.png,left,NA,NA,NA,left,1514.40000000596,true,NA,NA,NA,NA,NA
XFAB9qSX,NA,NA,XFAB9qSX,2020-0188,2021-09-20,20:43:03,22:10:13,NA,incomplete,false,true,NA,6,29,E12_Q9_ansR.png,right,NA,NA,NA,none,0,false,NA,NA,NA,NA,NA
XFAB9qSX,NA,NA,XFAB9qSX,2020-0188,2021-09-20,20:43:03,22:10:13,NA,incomplete,false,NA,true,6,0,NA,left,E10_Q2_ansL.png,E10_Q3_ansL.png,within,NA,NaN,NA,left,1757,1,1,1484.9000000059605
XFAB9qSX,NA,NA,XFAB9qSX,2020-0188,2021-09-20,20:43:03,22:10:13,NA,incomplete,false,NA,true,6,1,NA,left,E20_Q9_ansR.png,E10_Q7_ansR.png,between,NA,NaN,NA,left,1437.9000000059605,1,3,1654.4000000059605
XFAB9qSX,NA,NA,XFAB9qSX,2020-0188,2021-09-20,20:43:03,22:10:13,NA,incomplete,false,NA,true,6,2,NA,right,E10_Q6_ansR.png,E10_Q3_ansL.png,within,NA,NaN,NA,right,1371.3999999910593,1,1,1453
XFAB9qSX,NA,NA,XFAB9qSX,2020-0188,2021-09-20,20:43:03,22:10:13,NA,incomplete,false,NA,true,6,3,NA,right,E10_Q2_ansL.png,E10_Q4_ansL.png,within,NA,NaN,NA,right,2241.9000000059605,1,0,2125.9000000059605
XFAB9qSX,NA,NA,XFAB9qSX,2020-0188,2021-09-20,20:43:03,22:10:13,NA,incomplete,false,NA,true,6,4,NA,left,E10_Q5_ansR.png,E10_Q10_ansR.png,within,NA,NaN,NA,left,3716.7999999970198,1,1,1259.199999988079
XFAB9qSX,NA,NA,XFAB9qSX,2020-0188,2021-09-20,20:43:03,22:10:13,NA,incomplete,false,NA,true,6,5,NA,left,E20_Q6_ansR.png,E20_Q9_ansR.png,within,NA,NaN,NA,right,3671,0,0,1637.9000000059605
XFAB9qSX,NA,NA,XFAB9qSX,2020-0188,2021-09-20,20:43:03,22:10:13,NA,incomplete,false,NA,true,6,6,NA,left,E20_Q5_ansR.png,E20_Q3_ansR.png,within,NA,NaN,NA,left,2626.5,1,1,1224.1000000089407
XFAB9qSX,NA,NA,XFAB9qSX,2020-0188,2021-09-20,20:43:03,22:10:13,NA,incomplete,false,NA,true,6,7,NA,left,E20_Q2_ansL.png,E20_Q4_ansR.png,within,NA,NaN,NA,left,1785.5,1,1,1489.8999999910593
XFAB9qSX,NA,NA,XFAB9qSX,2020-0188,2021-09-20,20:43:03,22:10:13,NA,incomplete,false,NA,true,6,8,NA,right,E12_Q6_ansR.png,E10_Q9_ansL.png,between,NA,NaN,NA,right,5118.9000000059605,1,3,3832.0999999940395
XFAB9qSX,NA,NA,XFAB9qSX,2020-0188,2021-09-20,20:43:03,22:10:13,NA,incomplete,false,NA,true,6,9,NA,left,E12_Q3_ansR.png,E12_Q9_ansR.png,within,NA,NaN,NA,left,1806.5,1,0,3264.5999999940395
XFAB9qSX,NA,NA,XFAB9qSX,2020-0188,2021-09-20,20:43:03,22:10:13,NA,incomplete,false,NA,true,6,10,NA,left,E20_Q7_ansL.png,E10_Q1_ansL.png,between,NA,NaN,NA,left,3233.2999999970198,1,2,1614.2000000029802
XFAB9qSX,NA,NA,XFAB9qSX,2020-0188,2021-09-20,20:43:03,22:10:13,NA,incomplete,false,NA,true,6,11,NA,right,E10_Q9_ansL.png,E10_Q8_ansR.png,within,NA,NaN,NA,left,1801.800000011921,0,1,1200.6000000089407
XFAB9qSX,NA,NA,XFAB9qSX,2020-0188,2021-09-20,20:43:03,22:10:13,NA,incomplete,false,NA,true,6,12,NA,right,E10_Q8_ansR.png,E10_Q1_ansL.png,within,NA,NaN,NA,right,1264.5,1,0,4074.800000011921
XFAB9qSX,NA,NA,XFAB9qSX,2020-0188,2021-09-20,20:43:03,22:10:13,NA,incomplete,false,NA,true,6,13,NA,right,E12_Q5_ansR.png,E12_Q6_ansR.png,within,NA,NaN,NA,right,1654.8999999910593,1,1,7096.800000011921
XFAB9qSX,NA,NA,XFAB9qSX,2020-0188,2021-09-20,20:43:03,22:10:13,NA,incomplete,false,NA,true,6,14,NA,left,E12_Q7_ansL.png,E12_Q4_ansR.png,within,NA,NaN,NA,left,1639.5,1,1,2422.1000000089407
XFAB9qSX,NA,NA,XFAB9qSX,2020-0188,2021-09-20,20:43:03,22:10:13,NA,incomplete,false,NA,true,6,15,NA,right,E20_Q1_ansL.png,E20_Q10_ansL.png,within,NA,NaN,NA,right,1579.7999999970198,1,1,2298.7999999970198
XFAB9qSX,NA,NA,XFAB9qSX,2020-0188,2021-09-20,20:43:03,22:10:13,NA,incomplete,false,NA,true,6,16,NA,right,E12_Q8_ansL.png,E10_Q10_ansR.png,between,NA,NaN,NA,right,1461.2999999970198,1,2,2987.1000000089407
XFAB9qSX,NA,NA,XFAB9qSX,2020-0188,2021-09-20,20:43:03,22:10:13,NA,incomplete,false,NA,true,6,17,NA,left,E20_Q3_ansR.png,E20_Q7_ansL.png,within,NA,NaN,NA,right,4843.300000011921,0,1,1955.9000000059605
XFAB9qSX,NA,NA,XFAB9qSX,2020-0188,2021-09-20,20:43:03,22:10:13,NA,incomplete,false,NA,true,6,18,NA,left,E20_Q8_ansL.png,E10_Q4_ansL.png,between,NA,NaN,NA,left,1923.7000000029802,1,1,6974.9000000059605
XFAB9qSX,NA,NA,XFAB9qSX,2020-0188,2021-09-20,20:43:03,22:10:13,NA,incomplete,false,NA,true,6,19,NA,right,E12_Q2_ansL.png,E12_Q10_ansL.png,within,NA,NaN,NA,right,1874.8999999910593,1,1,4733.300000011921
XFAB9qSX,NA,NA,XFAB9qSX,2020-0188,2021-09-20,20:43:03,22:10:13,NA,incomplete,false,NA,true,6,20,NA,right,E12_Q3_ansR.png,E12_Q5_ansR.png,within,NA,NaN,NA,right,2331.7999999970198,1,1,1737.1000000089407
XFAB9qSX,NA,NA,XFAB9qSX,2020-0188,2021-09-20,20:43:03,22:10:13,NA,incomplete,false,NA,true,6,21,NA,right,E12_Q7_ansL.png,E10_Q6_ansR.png,between,NA,NaN,NA,right,1389.7999999970198,1,2,4489.5999999940395
XFAB9qSX,NA,NA,XFAB9qSX,2020-0188,2021-09-20,20:43:03,22:10:13,NA,incomplete,false,NA,true,6,22,NA,left,E10_Q7_ansR.png,E10_Q5_ansR.png,within,NA,NaN,NA,left,2291.4000000059605,1,1,1613.2999999970198
XFAB9qSX,NA,NA,XFAB9qSX,2020-0188,2021-09-20,20:43:03,22:10:13,NA,incomplete,false,NA,true,6,23,NA,left,E12_Q8_ansL.png,E12_Q10_ansL.png,within,NA,NaN,NA,left,3030.7000000029802,1,0,2796.2999999970198
XFAB9qSX,NA,NA,XFAB9qSX,2020-0188,2021-09-20,20:43:03,22:10:13,NA,incomplete,false,NA,true,6,24,NA,right,E20_Q6_ansR.png,E20_Q1_ansL.png,within,NA,NaN,NA,left,2678.9000000059605,0,1,7341
XFAB9qSX,NA,NA,XFAB9qSX,2020-0188,2021-09-20,20:43:03,22:10:13,NA,incomplete,false,NA,true,6,25,NA,right,E20_Q8_ansL.png,E20_Q4_ansR.png,within,NA,NaN,NA,right,1176.8999999910593,1,1,2403.7000000029802
XFAB9qSX,NA,NA,XFAB9qSX,2020-0188,2021-09-20,20:43:03,22:10:13,NA,incomplete,false,NA,true,6,26,NA,right,E12_Q1_ansL.png,E12_Q4_ansR.png,within,NA,NaN,NA,right,2865.2999999970198,1,0,11991.5
XFAB9qSX,NA,NA,XFAB9qSX,2020-0188,2021-09-20,20:43:03,22:10:13,NA,incomplete,false,true,NA,7,0,E11_Q2_ansR.png,right,NA,NA,NA,none,0,false,NA,NA,NA,NA,NA
XFAB9qSX,NA,NA,XFAB9qSX,2020-0188,2021-09-20,20:43:03,22:10:13,NA,incomplete,false,true,NA,7,1,E11_Q5_ansL.png,left,NA,NA,NA,left,3387.29999999702,true,NA,NA,NA,NA,NA
XFAB9qSX,NA,NA,XFAB9qSX,2020-0188,2021-09-20,20:43:03,22:10:13,NA,incomplete,false,true,NA,7,2,E11_Q6_ansL.png,left,NA,NA,NA,left,2707.79999999702,true,NA,NA,NA,NA,NA
XFAB9qSX,NA,NA,XFAB9qSX,2020-0188,2021-09-20,20:43:03,22:10:13,NA,incomplete,false,true,NA,7,3,E11_Q7_ansR.png,right,NA,NA,NA,right,1294.29999999702,true,NA,NA,NA,NA,NA
XFAB9qSX,NA,NA,XFAB9qSX,2020-0188,2021-09-20,20:43:03,22:10:13,NA,incomplete,false,true,NA,7,4,E11_Q1_ansR.png,right,NA,NA,NA,right,1347.69999998808,true,NA,NA,NA,NA,NA
XFAB9qSX,NA,NA,XFAB9qSX,2020-0188,2021-09-20,20:43:03,22:10:13,NA,incomplete,false,true,NA,7,5,E11_Q10_ansR.png,right,NA,NA,NA,right,1700.80000001192,true,NA,NA,NA,NA,NA
XFAB9qSX,NA,NA,XFAB9qSX,2020-0188,2021-09-20,20:43:03,22:10:13,NA,incomplete,false,true,NA,7,6,E11_Q3_ansL.png,left,NA,NA,NA,left,992,true,NA,NA,NA,NA,NA
XFAB9qSX,NA,NA,XFAB9qSX,2020-0188,2021-09-20,20:43:03,22:10:13,NA,incomplete,false,true,NA,7,7,E11_Q4_ansL.png,left,NA,NA,NA,left,1372.29999999702,true,NA,NA,NA,NA,NA
XFAB9qSX,NA,NA,XFAB9qSX,2020-0188,2021-09-20,20:43:03,22:10:13,NA,incomplete,false,true,NA,7,8,E11_Q9_ansL.png,left,NA,NA,NA,left,1910.09999999404,true,NA,NA,NA,NA,NA
XFAB9qSX,NA,NA,XFAB9qSX,2020-0188,2021-09-20,20:43:03,22:10:13,NA,incomplete,false,true,NA,7,9,E11_Q8_ansR.png,right,NA,NA,NA,right,1027.40000000596,true,NA,NA,NA,NA,NA
XFAB9qSX,NA,NA,XFAB9qSX,2020-0188,2021-09-20,20:43:03,22:10:13,NA,incomplete,false,true,NA,7,10,E25_Q4_ansL.png,left,NA,NA,NA,none,0,false,NA,NA,NA,NA,NA
XFAB9qSX,NA,NA,XFAB9qSX,2020-0188,2021-09-20,20:43:03,22:10:13,NA,incomplete,false,true,NA,7,11,E25_Q1_ansR.png,right,NA,NA,NA,right,3021.70000000298,true,NA,NA,NA,NA,NA
XFAB9qSX,NA,NA,XFAB9qSX,2020-0188,2021-09-20,20:43:03,22:10:13,NA,incomplete,false,true,NA,7,12,E25_Q5_ansL.png,left,NA,NA,NA,none,0,false,NA,NA,NA,NA,NA
XFAB9qSX,NA,NA,XFAB9qSX,2020-0188,2021-09-20,20:43:03,22:10:13,NA,incomplete,false,true,NA,7,13,E25_Q9_ansL.png,left,NA,NA,NA,none,0,false,NA,NA,NA,NA,NA
XFAB9qSX,NA,NA,XFAB9qSX,2020-0188,2021-09-20,20:43:03,22:10:13,NA,incomplete,false,true,NA,7,14,E25_Q6_ansL.png,left,NA,NA,NA,left,3153.10000000894,true,NA,NA,NA,NA,NA
XFAB9qSX,NA,NA,XFAB9qSX,2020-0188,2021-09-20,20:43:03,22:10:13,NA,incomplete,false,true,NA,7,15,E25_Q2_ansR.png,right,NA,NA,NA,right,2577.89999999106,true,NA,NA,NA,NA,NA
XFAB9qSX,NA,NA,XFAB9qSX,2020-0188,2021-09-20,20:43:03,22:10:13,NA,incomplete,false,true,NA,7,16,E25_Q10_ansR.png,right,NA,NA,NA,none,0,false,NA,NA,NA,NA,NA
XFAB9qSX,NA,NA,XFAB9qSX,2020-0188,2021-09-20,20:43:03,22:10:13,NA,incomplete,false,true,NA,7,17,E25_Q3_ansL.png,left,NA,NA,NA,right,2268.10000000894,false,NA,NA,NA,NA,NA
XFAB9qSX,NA,NA,XFAB9qSX,2020-0188,2021-09-20,20:43:03,22:10:13,NA,incomplete,false,true,NA,7,18,E25_Q7_ansR.png,right,NA,NA,NA,right,2310.29999999702,true,NA,NA,NA,NA,NA
XFAB9qSX,NA,NA,XFAB9qSX,2020-0188,2021-09-20,20:43:03,22:10:13,NA,incomplete,false,true,NA,7,19,E25_Q8_ansR.png,right,NA,NA,NA,right,1370.09999999404,true,NA,NA,NA,NA,NA
XFAB9qSX,NA,NA,XFAB9qSX,2020-0188,2021-09-20,20:43:03,22:10:13,NA,incomplete,false,true,NA,7,20,E30_Q2_ansL.png,left,NA,NA,NA,none,0,false,NA,NA,NA,NA,NA
XFAB9qSX,NA,NA,XFAB9qSX,2020-0188,2021-09-20,20:43:03,22:10:13,NA,incomplete,false,true,NA,7,21,E30_Q10_ansR.png,right,NA,NA,NA,right,2107.5,true,NA,NA,NA,NA,NA
XFAB9qSX,NA,NA,XFAB9qSX,2020-0188,2021-09-20,20:43:03,22:10:13,NA,incomplete,false,true,NA,7,22,E30_Q3_ansL.png,left,NA,NA,NA,left,2886.5,true,NA,NA,NA,NA,NA
XFAB9qSX,NA,NA,XFAB9qSX,2020-0188,2021-09-20,20:43:03,22:10:13,NA,incomplete,false,true,NA,7,23,E30_Q6_ansR.png,right,NA,NA,NA,right,1941.20000000298,true,NA,NA,NA,NA,NA
XFAB9qSX,NA,NA,XFAB9qSX,2020-0188,2021-09-20,20:43:03,22:10:13,NA,incomplete,false,true,NA,7,24,E30_Q7_ansL.png,left,NA,NA,NA,right,2577.5,false,NA,NA,NA,NA,NA
XFAB9qSX,NA,NA,XFAB9qSX,2020-0188,2021-09-20,20:43:03,22:10:13,NA,incomplete,false,true,NA,7,25,E30_Q1_ansL.png,left,NA,NA,NA,left,3393.59999999404,true,NA,NA,NA,NA,NA
XFAB9qSX,NA,NA,XFAB9qSX,2020-0188,2021-09-20,20:43:03,22:10:13,NA,incomplete,false,true,NA,7,26,E30_Q8_ansL.png,left,NA,NA,NA,right,2958.89999999106,false,NA,NA,NA,NA,NA
XFAB9qSX,NA,NA,XFAB9qSX,2020-0188,2021-09-20,20:43:03,22:10:13,NA,incomplete,false,true,NA,7,27,E30_Q9_ansL.png,left,NA,NA,NA,left,1956.70000000298,true,NA,NA,NA,NA,NA
XFAB9qSX,NA,NA,XFAB9qSX,2020-0188,2021-09-20,20:43:03,22:10:13,NA,incomplete,false,true,NA,7,28,E30_Q5_ansR.png,right,NA,NA,NA,right,2378.10000000894,true,NA,NA,NA,NA,NA
XFAB9qSX,NA,NA,XFAB9qSX,2020-0188,2021-09-20,20:43:03,22:10:13,NA,incomplete,false,true,NA,7,29,E30_Q4_ansL.png,left,NA,NA,NA,left,3101.19999998808,true,NA,NA,NA,NA,NA
XFAB9qSX,NA,NA,XFAB9qSX,2020-0188,2021-09-20,20:43:03,22:10:13,NA,incomplete,false,NA,true,7,0,NA,left,E11_Q5_ansL.png,E11_Q1_ansR.png,within,NA,NaN,NA,left,4398.9000000059605,1,0,1641.7000000029802
XFAB9qSX,NA,NA,XFAB9qSX,2020-0188,2021-09-20,20:43:03,22:10:13,NA,incomplete,false,NA,true,7,1,NA,right,E30_Q9_ansL.png,E30_Q7_ansL.png,within,NA,NaN,NA,right,3402.5999999940395,1,0,1134.0999999940395
XFAB9qSX,NA,NA,XFAB9qSX,2020-0188,2021-09-20,20:43:03,22:10:13,NA,incomplete,false,NA,true,7,2,NA,left,E25_Q4_ansL.png,E25_Q9_ansL.png,within,NA,NaN,NA,left,1921.8999999910593,1,0,4043
XFAB9qSX,NA,NA,XFAB9qSX,2020-0188,2021-09-20,20:43:03,22:10:13,NA,incomplete,false,NA,true,7,3,NA,left,E11_Q8_ansR.png,E25_Q5_ansL.png,between,NA,NaN,NA,left,2379.9000000059605,1,3,2766.699999988079
XFAB9qSX,NA,NA,XFAB9qSX,2020-0188,2021-09-20,20:43:03,22:10:13,NA,incomplete,false,NA,true,7,4,NA,left,E25_Q2_ansR.png,E25_Q7_ansR.png,within,NA,NaN,NA,left,3569.3999999910593,1,0,1629.3999999910593
XFAB9qSX,NA,NA,XFAB9qSX,2020-0188,2021-09-20,20:43:03,22:10:13,NA,incomplete,false,NA,true,7,5,NA,right,E25_Q2_ansR.png,E25_Q5_ansL.png,within,NA,NaN,NA,right,4699.399999991059,1,1,1312.5999999940395
XFAB9qSX,NA,NA,XFAB9qSX,2020-0188,2021-09-20,20:43:03,22:10:13,NA,incomplete,false,NA,true,7,6,NA,left,E30_Q6_ansR.png,E30_Q8_ansL.png,within,NA,NaN,NA,left,2825.300000011921,1,1,3964.7000000029802
XFAB9qSX,NA,NA,XFAB9qSX,2020-0188,2021-09-20,20:43:03,22:10:13,NA,incomplete,false,NA,true,7,7,NA,left,E30_Q3_ansL.png,E30_Q1_ansL.png,within,NA,NaN,NA,left,6756.20000000298,1,1,1964
XFAB9qSX,NA,NA,XFAB9qSX,2020-0188,2021-09-20,20:43:03,22:10:13,NA,incomplete,false,NA,true,7,8,NA,left,E11_Q4_ansL.png,E25_Q4_ansL.png,between,NA,NaN,NA,left,1591,1,3,7641.9000000059605
XFAB9qSX,NA,NA,XFAB9qSX,2020-0188,2021-09-20,20:43:03,22:10:13,NA,incomplete,false,NA,true,7,9,NA,left,E25_Q7_ansR.png,E30_Q10_ansR.png,between,NA,NaN,NA,left,3328.2000000029802,1,2,2915.7999999970198
XFAB9qSX,NA,NA,XFAB9qSX,2020-0188,2021-09-20,20:43:03,22:10:13,NA,incomplete,false,NA,true,7,10,NA,left,E30_Q2_ansL.png,E30_Q6_ansR.png,within,NA,NaN,NA,left,2224,1,0,2216.2000000029802
XFAB9qSX,NA,NA,XFAB9qSX,2020-0188,2021-09-20,20:43:03,22:10:13,NA,incomplete,false,NA,true,7,11,NA,right,E25_Q8_ansR.png,E25_Q10_ansR.png,within,NA,NaN,NA,right,3027.7999999970198,1,1,1874.2999999970198
XFAB9qSX,NA,NA,XFAB9qSX,2020-0188,2021-09-20,20:43:03,22:10:13,NA,incomplete,false,NA,true,7,12,NA,left,E30_Q10_ansR.png,E30_Q7_ansL.png,within,NA,NaN,NA,left,5055.4000000059605,1,1,2411.4000000059605
XFAB9qSX,NA,NA,XFAB9qSX,2020-0188,2021-09-20,20:43:03,22:10:13,NA,incomplete,false,NA,true,7,13,NA,right,E11_Q7_ansR.png,E11_Q2_ansR.png,within,NA,NaN,NA,right,2525.2000000029802,1,0,14716.199999988079
XFAB9qSX,NA,NA,XFAB9qSX,2020-0188,2021-09-20,20:43:03,22:10:13,NA,incomplete,false,NA,true,7,14,NA,left,E30_Q8_ansL.png,E30_Q4_ansL.png,within,NA,NaN,NA,left,3030.7999999970198,1,0,1486.5999999940395
XFAB9qSX,NA,NA,XFAB9qSX,2020-0188,2021-09-20,20:43:03,22:10:13,NA,incomplete,false,NA,true,7,15,NA,left,E11_Q3_ansL.png,E11_Q8_ansR.png,within,NA,NaN,NA,left,2061.2999999970198,1,1,1947.7000000029802
XFAB9qSX,NA,NA,XFAB9qSX,2020-0188,2021-09-20,20:43:03,22:10:13,NA,incomplete,false,NA,true,7,16,NA,left,E25_Q1_ansR.png,E25_Q6_ansL.png,within,NA,NaN,NA,left,2312.1000000089407,1,1,1062.699999988079
XFAB9qSX,NA,NA,XFAB9qSX,2020-0188,2021-09-20,20:43:03,22:10:13,NA,incomplete,false,NA,true,7,17,NA,left,E11_Q1_ansR.png,E11_Q4_ansL.png,within,NA,NaN,NA,left,1714.2999999970198,1,1,960.7000000029802
XFAB9qSX,NA,NA,XFAB9qSX,2020-0188,2021-09-20,20:43:03,22:10:13,NA,incomplete,false,NA,true,7,18,NA,left,E25_Q8_ansR.png,E30_Q3_ansL.png,between,NA,NaN,NA,left,2105.4000000059605,1,2,989.4000000059605
XFAB9qSX,NA,NA,XFAB9qSX,2020-0188,2021-09-20,20:43:03,22:10:13,NA,incomplete,false,NA,true,7,19,NA,left,E25_Q3_ansL.png,E30_Q2_ansL.png,between,NA,NaN,NA,left,10450.40000000596,1,2,1045
XFAB9qSX,NA,NA,XFAB9qSX,2020-0188,2021-09-20,20:43:03,22:10:13,NA,incomplete,false,NA,true,7,20,NA,left,E30_Q1_ansL.png,E30_Q5_ansR.png,within,NA,NaN,NA,right,6478.29999999702,0,1,1468.1000000089407
XFAB9qSX,NA,NA,XFAB9qSX,2020-0188,2021-09-20,20:43:03,22:10:13,NA,incomplete,false,NA,true,7,21,NA,left,E25_Q6_ansL.png,E25_Q3_ansL.png,within,NA,NaN,NA,left,2396.2000000029802,1,1,1320.7999999970198
XFAB9qSX,NA,NA,XFAB9qSX,2020-0188,2021-09-20,20:43:03,22:10:13,NA,incomplete,false,NA,true,7,22,NA,right,E11_Q10_ansR.png,E11_Q6_ansL.png,within,NA,NaN,NA,right,3498.8999999910593,1,0,2110
XFAB9qSX,NA,NA,XFAB9qSX,2020-0188,2021-09-20,20:43:03,22:10:13,NA,incomplete,false,NA,true,7,23,NA,right,E25_Q10_ansR.png,E25_Q9_ansL.png,within,NA,NaN,NA,right,2085.5,1,1,1127.2000000029802
XFAB9qSX,NA,NA,XFAB9qSX,2020-0188,2021-09-20,20:43:03,22:10:13,NA,incomplete,false,NA,true,7,24,NA,left,E11_Q7_ansR.png,E11_Q3_ansL.png,within,NA,NaN,NA,left,1736.5,1,1,1265.5
XFAB9qSX,NA,NA,XFAB9qSX,2020-0188,2021-09-20,20:43:03,22:10:13,NA,incomplete,false,NA,true,7,25,NA,right,E11_Q9_ansL.png,E11_Q10_ansR.png,within,NA,NaN,NA,right,2036,1,0,1943
XFAB9qSX,NA,NA,XFAB9qSX,2020-0188,2021-09-20,20:43:03,22:10:13,NA,incomplete,false,NA,true,7,26,NA,left,E11_Q9_ansL.png,E25_Q1_ansR.png,between,NA,NaN,NA,left,3108.5999999940395,1,1,2491
XFAB9qSX,NA,NA,XFAB9qSX,2020-0188,2021-09-20,20:43:03,22:10:13,NA,incomplete,false,true,NA,8,0,E3_Q10_ansR.png,right,NA,NA,NA,right,2578.40000000596,true,NA,NA,NA,NA,NA
XFAB9qSX,NA,NA,XFAB9qSX,2020-0188,2021-09-20,20:43:03,22:10:13,NA,incomplete,false,true,NA,8,1,E3_Q1_ansR.png,right,NA,NA,NA,right,1668.29999999702,true,NA,NA,NA,NA,NA
XFAB9qSX,NA,NA,XFAB9qSX,2020-0188,2021-09-20,20:43:03,22:10:13,NA,incomplete,false,true,NA,8,2,E3_Q4_ansL.png,left,NA,NA,NA,left,1873.59999999404,true,NA,NA,NA,NA,NA
XFAB9qSX,NA,NA,XFAB9qSX,2020-0188,2021-09-20,20:43:03,22:10:13,NA,incomplete,false,true,NA,8,3,E3_Q8_ansL.png,left,NA,NA,NA,left,393.600000008941,true,NA,NA,NA,NA,NA
XFAB9qSX,NA,NA,XFAB9qSX,2020-0188,2021-09-20,20:43:03,22:10:13,NA,incomplete,false,true,NA,8,4,E3_Q7_ansL.png,left,NA,NA,NA,right,1929.70000000298,false,NA,NA,NA,NA,NA
XFAB9qSX,NA,NA,XFAB9qSX,2020-0188,2021-09-20,20:43:03,22:10:13,NA,incomplete,false,true,NA,8,5,E3_Q3_ansR.png,right,NA,NA,NA,right,1669,true,NA,NA,NA,NA,NA
XFAB9qSX,NA,NA,XFAB9qSX,2020-0188,2021-09-20,20:43:03,22:10:13,NA,incomplete,false,true,NA,8,6,E3_Q9_ansL.png,left,NA,NA,NA,left,1223.70000000298,true,NA,NA,NA,NA,NA
XFAB9qSX,NA,NA,XFAB9qSX,2020-0188,2021-09-20,20:43:03,22:10:13,NA,incomplete,false,true,NA,8,7,E3_Q2_ansL.png,left,NA,NA,NA,left,1675.5,true,NA,NA,NA,NA,NA
XFAB9qSX,NA,NA,XFAB9qSX,2020-0188,2021-09-20,20:43:03,22:10:13,NA,incomplete,false,true,NA,8,8,E3_Q5_ansR.png,right,NA,NA,NA,right,997.5,true,NA,NA,NA,NA,NA
XFAB9qSX,NA,NA,XFAB9qSX,2020-0188,2021-09-20,20:43:03,22:10:13,NA,incomplete,false,true,NA,8,9,E3_Q6_ansR.png,right,NA,NA,NA,right,1130.60000000894,true,NA,NA,NA,NA,NA
XFAB9qSX,NA,NA,XFAB9qSX,2020-0188,2021-09-20,20:43:03,22:10:13,NA,incomplete,false,true,NA,8,10,E9_Q5_ansL.png,left,NA,NA,NA,left,1891.09999999404,true,NA,NA,NA,NA,NA
XFAB9qSX,NA,NA,XFAB9qSX,2020-0188,2021-09-20,20:43:03,22:10:13,NA,incomplete,false,true,NA,8,11,E9_Q6_ansL.png,left,NA,NA,NA,left,1154.29999999702,true,NA,NA,NA,NA,NA
XFAB9qSX,NA,NA,XFAB9qSX,2020-0188,2021-09-20,20:43:03,22:10:13,NA,incomplete,false,true,NA,8,12,E9_Q10_ansR.png,right,NA,NA,NA,right,1037.70000000298,true,NA,NA,NA,NA,NA
XFAB9qSX,NA,NA,XFAB9qSX,2020-0188,2021-09-20,20:43:03,22:10:13,NA,incomplete,false,true,NA,8,13,E9_Q2_ansR.png,right,NA,NA,NA,right,1004.80000001192,true,NA,NA,NA,NA,NA
XFAB9qSX,NA,NA,XFAB9qSX,2020-0188,2021-09-20,20:43:03,22:10:13,NA,incomplete,false,true,NA,8,14,E9_Q1_ansR.png,right,NA,NA,NA,right,896.20000000298,true,NA,NA,NA,NA,NA
XFAB9qSX,NA,NA,XFAB9qSX,2020-0188,2021-09-20,20:43:03,22:10:13,NA,incomplete,false,true,NA,8,15,E9_Q3_ansL.png,left,NA,NA,NA,right,808.79999999702,false,NA,NA,NA,NA,NA
XFAB9qSX,NA,NA,XFAB9qSX,2020-0188,2021-09-20,20:43:03,22:10:13,NA,incomplete,false,true,NA,8,16,E9_Q7_ansR.png,right,NA,NA,NA,right,2128.5,true,NA,NA,NA,NA,NA
XFAB9qSX,NA,NA,XFAB9qSX,2020-0188,2021-09-20,20:43:03,22:10:13,NA,incomplete,false,true,NA,8,17,E9_Q9_ansL.png,left,NA,NA,NA,left,1567.40000000596,true,NA,NA,NA,NA,NA
XFAB9qSX,NA,NA,XFAB9qSX,2020-0188,2021-09-20,20:43:03,22:10:13,NA,incomplete,false,true,NA,8,18,E9_Q8_ansR.png,right,NA,NA,NA,right,1056.90000000596,true,NA,NA,NA,NA,NA
XFAB9qSX,NA,NA,XFAB9qSX,2020-0188,2021-09-20,20:43:03,22:10:13,NA,incomplete,false,true,NA,8,19,E9_Q4_ansL.png,left,NA,NA,NA,left,932.800000011921,true,NA,NA,NA,NA,NA
XFAB9qSX,NA,NA,XFAB9qSX,2020-0188,2021-09-20,20:43:03,22:10:13,NA,incomplete,false,true,NA,8,20,E16_Q4_ansL.png,left,NA,NA,NA,left,1181.09999999404,true,NA,NA,NA,NA,NA
XFAB9qSX,NA,NA,XFAB9qSX,2020-0188,2021-09-20,20:43:03,22:10:13,NA,incomplete,false,true,NA,8,21,E16_Q10_ansR.png,right,NA,NA,NA,right,1525.69999998808,true,NA,NA,NA,NA,NA
XFAB9qSX,NA,NA,XFAB9qSX,2020-0188,2021-09-20,20:43:03,22:10:13,NA,incomplete,false,true,NA,8,22,E16_Q1_ansR.png,right,NA,NA,NA,right,1165.90000000596,true,NA,NA,NA,NA,NA
XFAB9qSX,NA,NA,XFAB9qSX,2020-0188,2021-09-20,20:43:03,22:10:13,NA,incomplete,false,true,NA,8,23,E16_Q2_ansR.png,right,NA,NA,NA,right,1811.59999999404,true,NA,NA,NA,NA,NA
XFAB9qSX,NA,NA,XFAB9qSX,2020-0188,2021-09-20,20:43:03,22:10:13,NA,incomplete,false,true,NA,8,24,E16_Q8_ansR.png,right,NA,NA,NA,right,1695.20000000298,true,NA,NA,NA,NA,NA
XFAB9qSX,NA,NA,XFAB9qSX,2020-0188,2021-09-20,20:43:03,22:10:13,NA,incomplete,false,true,NA,8,25,E16_Q3_ansL.png,left,NA,NA,NA,left,1782.40000000596,true,NA,NA,NA,NA,NA
XFAB9qSX,NA,NA,XFAB9qSX,2020-0188,2021-09-20,20:43:03,22:10:13,NA,incomplete,false,true,NA,8,26,E16_Q5_ansL.png,left,NA,NA,NA,left,1698.89999999106,true,NA,NA,NA,NA,NA
XFAB9qSX,NA,NA,XFAB9qSX,2020-0188,2021-09-20,20:43:03,22:10:13,NA,incomplete,false,true,NA,8,27,E16_Q7_ansR.png,right,NA,NA,NA,right,983.100000008941,true,NA,NA,NA,NA,NA
XFAB9qSX,NA,NA,XFAB9qSX,2020-0188,2021-09-20,20:43:03,22:10:13,NA,incomplete,false,true,NA,8,28,E16_Q6_ansL.png,left,NA,NA,NA,left,1639.09999999404,true,NA,NA,NA,NA,NA
XFAB9qSX,NA,NA,XFAB9qSX,2020-0188,2021-09-20,20:43:03,22:10:13,NA,incomplete,false,true,NA,8,29,E16_Q9_ansL.png,left,NA,NA,NA,left,1024.70000000298,true,NA,NA,NA,NA,NA
XFAB9qSX,NA,NA,XFAB9qSX,2020-0188,2021-09-20,20:43:03,22:10:13,NA,incomplete,false,NA,true,8,0,NA,right,E16_Q2_ansR.png,E16_Q4_ansL.png,within,NA,NaN,NA,right,9971.59999999404,1,1,1440.3999999910593
XFAB9qSX,NA,NA,XFAB9qSX,2020-0188,2021-09-20,20:43:03,22:10:13,NA,incomplete,false,NA,true,8,1,NA,right,E9_Q1_ansR.png,E9_Q6_ansL.png,within,NA,NaN,NA,right,1207.5,1,1,6524.300000011921
XFAB9qSX,NA,NA,XFAB9qSX,2020-0188,2021-09-20,20:43:03,22:10:13,NA,incomplete,false,NA,true,8,2,NA,right,E16_Q5_ansL.png,E16_Q2_ansR.png,within,NA,NaN,NA,right,3781.7999999970198,1,1,1239.5999999940395
XFAB9qSX,NA,NA,XFAB9qSX,2020-0188,2021-09-20,20:43:03,22:10:13,NA,incomplete,false,NA,true,8,3,NA,right,E9_Q8_ansR.png,E9_Q3_ansL.png,within,NA,NaN,NA,right,7469.899999991059,1,1,1980
XFAB9qSX,NA,NA,XFAB9qSX,2020-0188,2021-09-20,20:43:03,22:10:13,NA,incomplete,false,NA,true,8,4,NA,right,E9_Q6_ansL.png,E3_Q5_ansR.png,between,NA,NaN,NA,right,2792.699999988079,1,2,8418.89999999106
XFAB9qSX,NA,NA,XFAB9qSX,2020-0188,2021-09-20,20:43:03,22:10:13,NA,incomplete,false,NA,true,8,5,NA,left,E9_Q10_ansR.png,E9_Q3_ansL.png,within,NA,NaN,NA,left,1411,1,1,1823.7000000029802
XFAB9qSX,NA,NA,XFAB9qSX,2020-0188,2021-09-20,20:43:03,22:10:13,NA,incomplete,false,NA,true,8,6,NA,right,E3_Q7_ansL.png,E3_Q1_ansR.png,within,NA,NaN,NA,left,2550.2000000029802,0,1,1262.800000011921
XFAB9qSX,NA,NA,XFAB9qSX,2020-0188,2021-09-20,20:43:03,22:10:13,NA,incomplete,false,NA,true,8,7,NA,right,E16_Q1_ansR.png,E9_Q4_ansL.png,between,NA,NaN,NA,right,1736.4000000059605,1,2,1235.6000000089407
XFAB9qSX,NA,NA,XFAB9qSX,2020-0188,2021-09-20,20:43:03,22:10:13,NA,incomplete,false,NA,true,8,8,NA,right,E9_Q4_ansL.png,E9_Q7_ansR.png,within,NA,NaN,NA,left,2189.5,0,1,2423.5999999940395
XFAB9qSX,NA,NA,XFAB9qSX,2020-0188,2021-09-20,20:43:03,22:10:13,NA,incomplete,false,NA,true,8,9,NA,left,E3_Q4_ansL.png,E3_Q3_ansR.png,within,NA,NaN,NA,left,2799.5,1,1,2369.0999999940395
XFAB9qSX,NA,NA,XFAB9qSX,2020-0188,2021-09-20,20:43:03,22:10:13,NA,incomplete,false,NA,true,8,10,NA,left,E9_Q8_ansR.png,E16_Q10_ansR.png,between,NA,NaN,NA,left,2790.0999999940395,1,3,1296.2999999970198
XFAB9qSX,NA,NA,XFAB9qSX,2020-0188,2021-09-20,20:43:03,22:10:13,NA,incomplete,false,NA,true,8,11,NA,left,E3_Q6_ansR.png,E9_Q10_ansR.png,between,NA,NaN,NA,left,1893.7999999970198,1,1,1193.2999999970198
XFAB9qSX,NA,NA,XFAB9qSX,2020-0188,2021-09-20,20:43:03,22:10:13,NA,incomplete,false,NA,true,8,12,NA,right,E3_Q2_ansL.png,E3_Q7_ansL.png,within,NA,NaN,NA,right,7933.0999999940395,1,1,1239.7000000029802
XFAB9qSX,NA,NA,XFAB9qSX,2020-0188,2021-09-20,20:43:03,22:10:13,NA,incomplete,false,NA,true,8,13,NA,right,E9_Q2_ansR.png,E9_Q5_ansL.png,within,NA,NaN,NA,right,1817.5,1,0,2426.2000000029802
XFAB9qSX,NA,NA,XFAB9qSX,2020-0188,2021-09-20,20:43:03,22:10:13,NA,incomplete,false,NA,true,8,14,NA,right,E16_Q7_ansR.png,E16_Q8_ansR.png,within,NA,NaN,NA,right,13298.09999999404,1,1,2898.8999999910593
XFAB9qSX,NA,NA,XFAB9qSX,2020-0188,2021-09-20,20:43:03,22:10:13,NA,incomplete,false,NA,true,8,15,NA,left,E3_Q10_ansR.png,E3_Q8_ansL.png,within,NA,NaN,NA,left,3791.699999988079,1,0,1573.199999988079
XFAB9qSX,NA,NA,XFAB9qSX,2020-0188,2021-09-20,20:43:03,22:10:13,NA,incomplete,false,NA,true,8,16,NA,left,E3_Q9_ansL.png,E3_Q6_ansR.png,within,NA,NaN,NA,right,2560,0,1,1301.0999999940395
XFAB9qSX,NA,NA,XFAB9qSX,2020-0188,2021-09-20,20:43:03,22:10:13,NA,incomplete,false,NA,true,8,17,NA,right,E16_Q9_ansL.png,E16_Q5_ansL.png,within,NA,NaN,NA,left,1817.9000000059605,0,1,2106.2000000029802
XFAB9qSX,NA,NA,XFAB9qSX,2020-0188,2021-09-20,20:43:03,22:10:13,NA,incomplete,false,NA,true,8,18,NA,left,E3_Q3_ansR.png,E3_Q5_ansR.png,within,NA,NaN,NA,left,3229.7000000029802,1,1,1605.5999999940395
XFAB9qSX,NA,NA,XFAB9qSX,2020-0188,2021-09-20,20:43:03,22:10:13,NA,incomplete,false,NA,true,8,19,NA,right,E9_Q7_ansR.png,E9_Q2_ansR.png,within,NA,NaN,NA,right,1186,1,0,1535.6000000089407
XFAB9qSX,NA,NA,XFAB9qSX,2020-0188,2021-09-20,20:43:03,22:10:13,NA,incomplete,false,NA,true,8,20,NA,left,E9_Q1_ansR.png,E9_Q9_ansL.png,within,NA,NaN,NA,left,3156.8999999910593,1,0,2045.2000000029802
XFAB9qSX,NA,NA,XFAB9qSX,2020-0188,2021-09-20,20:43:03,22:10:13,NA,incomplete,false,NA,true,8,21,NA,right,E16_Q6_ansL.png,E16_Q3_ansL.png,within,NA,NaN,NA,right,7052.4000000059605,1,1,1614.5
XFAB9qSX,NA,NA,XFAB9qSX,2020-0188,2021-09-20,20:43:03,22:10:13,NA,incomplete,false,NA,true,8,22,NA,left,E9_Q9_ansL.png,E16_Q4_ansL.png,between,NA,NaN,NA,left,2930.7999999970198,1,2,1045.8999999910593
XFAB9qSX,NA,NA,XFAB9qSX,2020-0188,2021-09-20,20:43:03,22:10:13,NA,incomplete,false,NA,true,8,23,NA,right,E9_Q5_ansL.png,E3_Q2_ansL.png,between,NA,NaN,NA,right,2040.7999999970198,1,1,3925.5
XFAB9qSX,NA,NA,XFAB9qSX,2020-0188,2021-09-20,20:43:03,22:10:13,NA,incomplete,false,NA,true,8,24,NA,left,E3_Q8_ansL.png,E3_Q9_ansL.png,within,NA,NaN,NA,left,1801.4000000059605,1,1,1297.7999999970198
XFAB9qSX,NA,NA,XFAB9qSX,2020-0188,2021-09-20,20:43:03,22:10:13,NA,incomplete,false,NA,true,8,25,NA,left,E16_Q1_ansR.png,E16_Q3_ansL.png,within,NA,NaN,NA,left,1149.2000000029802,1,1,1248.699999988079
XFAB9qSX,NA,NA,XFAB9qSX,2020-0188,2021-09-20,20:43:03,22:10:13,NA,incomplete,false,NA,true,8,26,NA,right,E16_Q8_ansR.png,E16_Q10_ansR.png,within,NA,NaN,NA,right,2137.3999999910593,1,1,1110.1000000089407
XFAB9qSX,NA,NA,XFAB9qSX,2020-0188,2021-09-20,20:43:03,22:10:13,NA,incomplete,false,true,NA,9,0,E6_Q9_ansL.png,left,NA,NA,NA,left,1693.79999999702,true,NA,NA,NA,NA,NA
XFAB9qSX,NA,NA,XFAB9qSX,2020-0188,2021-09-20,20:43:03,22:10:13,NA,incomplete,false,true,NA,9,1,E6_Q3_ansR.png,right,NA,NA,NA,right,1848.09999999404,true,NA,NA,NA,NA,NA
XFAB9qSX,NA,NA,XFAB9qSX,2020-0188,2021-09-20,20:43:03,22:10:13,NA,incomplete,false,true,NA,9,2,E6_Q4_ansR.png,right,NA,NA,NA,right,1357.70000000298,true,NA,NA,NA,NA,NA
XFAB9qSX,NA,NA,XFAB9qSX,2020-0188,2021-09-20,20:43:03,22:10:13,NA,incomplete,false,true,NA,9,3,E6_Q6_ansR.png,right,NA,NA,NA,right,1952,true,NA,NA,NA,NA,NA
XFAB9qSX,NA,NA,XFAB9qSX,2020-0188,2021-09-20,20:43:03,22:10:13,NA,incomplete,false,true,NA,9,4,E6_Q2_ansL.png,left,NA,NA,NA,left,1639.90000000596,true,NA,NA,NA,NA,NA
XFAB9qSX,NA,NA,XFAB9qSX,2020-0188,2021-09-20,20:43:03,22:10:13,NA,incomplete,false,true,NA,9,5,E6_Q5_ansR.png,right,NA,NA,NA,right,1256.70000000298,true,NA,NA,NA,NA,NA
XFAB9qSX,NA,NA,XFAB9qSX,2020-0188,2021-09-20,20:43:03,22:10:13,NA,incomplete,false,true,NA,9,6,E6_Q1_ansL.png,left,NA,NA,NA,left,1230,true,NA,NA,NA,NA,NA
XFAB9qSX,NA,NA,XFAB9qSX,2020-0188,2021-09-20,20:43:03,22:10:13,NA,incomplete,false,true,NA,9,7,E6_Q7_ansL.png,left,NA,NA,NA,left,2333.5,true,NA,NA,NA,NA,NA
XFAB9qSX,NA,NA,XFAB9qSX,2020-0188,2021-09-20,20:43:03,22:10:13,NA,incomplete,false,true,NA,9,8,E6_Q10_ansL.png,left,NA,NA,NA,left,1572.20000000298,true,NA,NA,NA,NA,NA
XFAB9qSX,NA,NA,XFAB9qSX,2020-0188,2021-09-20,20:43:03,22:10:13,NA,incomplete,false,true,NA,9,9,E6_Q8_ansL.png,left,NA,NA,NA,left,2806,true,NA,NA,NA,NA,NA
XFAB9qSX,NA,NA,XFAB9qSX,2020-0188,2021-09-20,20:43:03,22:10:13,NA,incomplete,false,true,NA,9,10,E23_Q6_ansR.png,right,NA,NA,NA,right,1598.5,true,NA,NA,NA,NA,NA
XFAB9qSX,NA,NA,XFAB9qSX,2020-0188,2021-09-20,20:43:03,22:10:13,NA,incomplete,false,true,NA,9,11,E23_Q1_ansL.png,left,NA,NA,NA,left,910.70000000298,true,NA,NA,NA,NA,NA
XFAB9qSX,NA,NA,XFAB9qSX,2020-0188,2021-09-20,20:43:03,22:10:13,NA,incomplete,false,true,NA,9,12,E23_Q9_ansR.png,right,NA,NA,NA,right,1159.79999999702,true,NA,NA,NA,NA,NA
XFAB9qSX,NA,NA,XFAB9qSX,2020-0188,2021-09-20,20:43:03,22:10:13,NA,incomplete,false,true,NA,9,13,E23_Q3_ansR.png,right,NA,NA,NA,right,1181.39999999106,true,NA,NA,NA,NA,NA
XFAB9qSX,NA,NA,XFAB9qSX,2020-0188,2021-09-20,20:43:03,22:10:13,NA,incomplete,false,true,NA,9,14,E23_Q8_ansL.png,left,NA,NA,NA,left,1102.10000000894,true,NA,NA,NA,NA,NA
XFAB9qSX,NA,NA,XFAB9qSX,2020-0188,2021-09-20,20:43:03,22:10:13,NA,incomplete,false,true,NA,9,15,E23_Q2_ansL.png,left,NA,NA,NA,left,1818.90000000596,true,NA,NA,NA,NA,NA
XFAB9qSX,NA,NA,XFAB9qSX,2020-0188,2021-09-20,20:43:03,22:10:13,NA,incomplete,false,true,NA,9,16,E23_Q4_ansR.png,right,NA,NA,NA,right,1026.5,true,NA,NA,NA,NA,NA
XFAB9qSX,NA,NA,XFAB9qSX,2020-0188,2021-09-20,20:43:03,22:10:13,NA,incomplete,false,true,NA,9,17,E23_Q10_ansL.png,left,NA,NA,NA,left,1870,true,NA,NA,NA,NA,NA
XFAB9qSX,NA,NA,XFAB9qSX,2020-0188,2021-09-20,20:43:03,22:10:13,NA,incomplete,false,true,NA,9,18,E23_Q7_ansL.png,left,NA,NA,NA,left,1599.20000000298,true,NA,NA,NA,NA,NA
XFAB9qSX,NA,NA,XFAB9qSX,2020-0188,2021-09-20,20:43:03,22:10:13,NA,incomplete,false,true,NA,9,19,E23_Q5_ansR.png,right,NA,NA,NA,right,991.40000000596,true,NA,NA,NA,NA,NA
XFAB9qSX,NA,NA,XFAB9qSX,2020-0188,2021-09-20,20:43:03,22:10:13,NA,incomplete,false,true,NA,9,20,E17_Q10_ansL.png,left,NA,NA,NA,left,1351.60000000894,true,NA,NA,NA,NA,NA
XFAB9qSX,NA,NA,XFAB9qSX,2020-0188,2021-09-20,20:43:03,22:10:13,NA,incomplete,false,true,NA,9,21,E17_Q1_ansL.png,left,NA,NA,NA,left,1396.10000000894,true,NA,NA,NA,NA,NA
XFAB9qSX,NA,NA,XFAB9qSX,2020-0188,2021-09-20,20:43:03,22:10:13,NA,incomplete,false,true,NA,9,22,E17_Q5_ansR.png,right,NA,NA,NA,right,810,true,NA,NA,NA,NA,NA
XFAB9qSX,NA,NA,XFAB9qSX,2020-0188,2021-09-20,20:43:03,22:10:13,NA,incomplete,false,true,NA,9,23,E17_Q4_ansR.png,right,NA,NA,NA,right,1547.90000000596,true,NA,NA,NA,NA,NA
XFAB9qSX,NA,NA,XFAB9qSX,2020-0188,2021-09-20,20:43:03,22:10:13,NA,incomplete,false,true,NA,9,24,E17_Q2_ansL.png,left,NA,NA,NA,left,2270.30000001192,true,NA,NA,NA,NA,NA
XFAB9qSX,NA,NA,XFAB9qSX,2020-0188,2021-09-20,20:43:03,22:10:13,NA,incomplete,false,true,NA,9,25,E17_Q8_ansL.png,left,NA,NA,NA,left,1446.59999999404,true,NA,NA,NA,NA,NA
XFAB9qSX,NA,NA,XFAB9qSX,2020-0188,2021-09-20,20:43:03,22:10:13,NA,incomplete,false,true,NA,9,26,E17_Q9_ansR.png,right,NA,NA,NA,right,1078.10000000894,true,NA,NA,NA,NA,NA
XFAB9qSX,NA,NA,XFAB9qSX,2020-0188,2021-09-20,20:43:03,22:10:13,NA,incomplete,false,true,NA,9,27,E17_Q3_ansR.png,right,NA,NA,NA,right,1508.79999999702,true,NA,NA,NA,NA,NA
XFAB9qSX,NA,NA,XFAB9qSX,2020-0188,2021-09-20,20:43:03,22:10:13,NA,incomplete,false,true,NA,9,28,E17_Q6_ansR.png,right,NA,NA,NA,right,1128.19999998808,true,NA,NA,NA,NA,NA
XFAB9qSX,NA,NA,XFAB9qSX,2020-0188,2021-09-20,20:43:03,22:10:13,NA,incomplete,false,true,NA,9,29,E17_Q7_ansL.png,left,NA,NA,NA,left,1929.40000000596,true,NA,NA,NA,NA,NA
XFAB9qSX,NA,NA,XFAB9qSX,2020-0188,2021-09-20,20:43:03,22:10:13,NA,incomplete,false,NA,true,9,0,NA,right,E17_Q2_ansL.png,E17_Q1_ansL.png,within,NA,NaN,NA,right,1814.2000000029802,1,1,1289.5
XFAB9qSX,NA,NA,XFAB9qSX,2020-0188,2021-09-20,20:43:03,22:10:13,NA,incomplete,false,NA,true,9,1,NA,left,E6_Q4_ansR.png,E6_Q5_ansR.png,within,NA,NaN,NA,left,1368.5,1,0,1182.2999999970198
XFAB9qSX,NA,NA,XFAB9qSX,2020-0188,2021-09-20,20:43:03,22:10:13,NA,incomplete,false,NA,true,9,2,NA,right,E6_Q1_ansL.png,E6_Q6_ansR.png,within,NA,NaN,NA,left,1685.7000000029802,0,0,2717.699999988079
XFAB9qSX,NA,NA,XFAB9qSX,2020-0188,2021-09-20,20:43:03,22:10:13,NA,incomplete,false,NA,true,9,3,NA,left,E17_Q4_ansR.png,E17_Q9_ansR.png,within,NA,NaN,NA,left,3145.2000000029802,1,0,1516.300000011921
XFAB9qSX,NA,NA,XFAB9qSX,2020-0188,2021-09-20,20:43:03,22:10:13,NA,incomplete,false,NA,true,9,4,NA,left,E23_Q6_ansR.png,E23_Q3_ansR.png,within,NA,NaN,NA,left,1427.9000000059605,1,1,3538.7999999970198
XFAB9qSX,NA,NA,XFAB9qSX,2020-0188,2021-09-20,20:43:03,22:10:13,NA,incomplete,false,NA,true,9,5,NA,left,E23_Q4_ansR.png,E23_Q5_ansR.png,within,NA,NaN,NA,left,2613,1,1,2032.5
XFAB9qSX,NA,NA,XFAB9qSX,2020-0188,2021-09-20,20:43:03,22:10:13,NA,incomplete,false,NA,true,9,6,NA,left,E6_Q7_ansL.png,E23_Q6_ansR.png,between,NA,NaN,NA,left,1987.9000000059605,1,1,1552.9000000059605
XFAB9qSX,NA,NA,XFAB9qSX,2020-0188,2021-09-20,20:43:03,22:10:13,NA,incomplete,false,NA,true,9,7,NA,left,E6_Q3_ansR.png,E6_Q2_ansL.png,within,NA,NaN,NA,left,1971.3999999910593,1,0,1237.699999988079
XFAB9qSX,NA,NA,XFAB9qSX,2020-0188,2021-09-20,20:43:03,22:10:13,NA,incomplete,false,NA,true,9,8,NA,left,E23_Q1_ansL.png,E23_Q8_ansL.png,within,NA,NaN,NA,left,1654.300000011921,1,1,1444.7999999970198
XFAB9qSX,NA,NA,XFAB9qSX,2020-0188,2021-09-20,20:43:03,22:10:13,NA,incomplete,false,NA,true,9,9,NA,right,E6_Q7_ansL.png,E6_Q2_ansL.png,within,NA,NaN,NA,right,2173.0999999940395,1,1,2287.7999999970198
XFAB9qSX,NA,NA,XFAB9qSX,2020-0188,2021-09-20,20:43:03,22:10:13,NA,incomplete,false,NA,true,9,10,NA,left,E17_Q5_ansR.png,E17_Q8_ansL.png,within,NA,NaN,NA,left,1582,1,0,1288.5
XFAB9qSX,NA,NA,XFAB9qSX,2020-0188,2021-09-20,20:43:03,22:10:13,NA,incomplete,false,NA,true,9,11,NA,right,E23_Q10_ansL.png,E23_Q8_ansL.png,within,NA,NaN,NA,right,2882.6000000089407,1,1,1304.8999999910593
XFAB9qSX,NA,NA,XFAB9qSX,2020-0188,2021-09-20,20:43:03,22:10:13,NA,incomplete,false,NA,true,9,12,NA,right,E23_Q1_ansL.png,E6_Q10_ansL.png,between,NA,NaN,NA,right,1607.5999999940395,1,1,1111.2999999970198
