workerId,hitId,assignmentId,subject,studyid,exp_date,exp_start,exp_end,time_start,time_end,practice,encoding,memory,block,trial,stim,answer,left_image,right_image,condition,response,response_time,response_acc,order_response,order_response_time,order_acc,distance_response,distance_response_time
YdCxsnz9,NA,NA,YdCxsnz9,2020-0188,2021-11-12,13:32:00,15:06:47,NA,incomplete,true,true,NA,0,0,E26_Q8_ansL.png,left,NA,NA,NA,left,2786.10000002384,true,NA,NA,NA,NA,NA
YdCxsnz9,NA,NA,YdCxsnz9,2020-0188,2021-11-12,13:32:00,15:06:47,NA,incomplete,true,true,NA,0,1,E26_Q5_ansR.png,right,NA,NA,NA,right,1493.5,true,NA,NA,NA,NA,NA
YdCxsnz9,NA,NA,YdCxsnz9,2020-0188,2021-11-12,13:32:00,15:06:47,NA,incomplete,true,true,NA,0,2,E26_Q6_ansR.png,right,NA,NA,NA,right,1307.89999997616,true,NA,NA,NA,NA,NA
YdCxsnz9,NA,NA,YdCxsnz9,2020-0188,2021-11-12,13:32:00,15:06:47,NA,incomplete,true,true,NA,0,3,E26_Q7_ansL.png,left,NA,NA,NA,left,1439.40000003576,true,NA,NA,NA,NA,NA
YdCxsnz9,NA,NA,YdCxsnz9,2020-0188,2021-11-12,13:32:00,15:06:47,NA,incomplete,true,true,NA,0,4,E26_Q4_ansR.png,right,NA,NA,NA,right,1505.39999997616,true,NA,NA,NA,NA,NA
YdCxsnz9,NA,NA,YdCxsnz9,2020-0188,2021-11-12,13:32:00,15:06:47,NA,incomplete,true,true,NA,0,5,E26_Q10_ansL.png,left,NA,NA,NA,left,1030.89999997616,true,NA,NA,NA,NA,NA
YdCxsnz9,NA,NA,YdCxsnz9,2020-0188,2021-11-12,13:32:00,15:06:47,NA,incomplete,true,true,NA,0,6,E26_Q9_ansR.png,right,NA,NA,NA,right,1230.39999997616,true,NA,NA,NA,NA,NA
YdCxsnz9,NA,NA,YdCxsnz9,2020-0188,2021-11-12,13:32:00,15:06:47,NA,incomplete,true,true,NA,0,7,E26_Q2_ansL.png,left,NA,NA,NA,left,1299.40000003576,true,NA,NA,NA,NA,NA
YdCxsnz9,NA,NA,YdCxsnz9,2020-0188,2021-11-12,13:32:00,15:06:47,NA,incomplete,true,true,NA,0,8,E26_Q1_ansL.png,left,NA,NA,NA,left,964.900000035763,true,NA,NA,NA,NA,NA
YdCxsnz9,NA,NA,YdCxsnz9,2020-0188,2021-11-12,13:32:00,15:06:47,NA,incomplete,true,true,NA,0,9,E26_Q3_ansR.png,right,NA,NA,NA,right,1103.10000002384,true,NA,NA,NA,NA,NA
YdCxsnz9,NA,NA,YdCxsnz9,2020-0188,2021-11-12,13:32:00,15:06:47,NA,incomplete,true,true,NA,0,10,E20_Q7_ansL.png,left,NA,NA,NA,left,2234.39999997616,true,NA,NA,NA,NA,NA
YdCxsnz9,NA,NA,YdCxsnz9,2020-0188,2021-11-12,13:32:00,15:06:47,NA,incomplete,true,true,NA,0,11,E20_Q8_ansL.png,left,NA,NA,NA,left,1644.39999997616,true,NA,NA,NA,NA,NA
YdCxsnz9,NA,NA,YdCxsnz9,2020-0188,2021-11-12,13:32:00,15:06:47,NA,incomplete,true,true,NA,0,12,E20_Q1_ansL.png,left,NA,NA,NA,left,1709.59999996424,true,NA,NA,NA,NA,NA
YdCxsnz9,NA,NA,YdCxsnz9,2020-0188,2021-11-12,13:32:00,15:06:47,NA,incomplete,true,true,NA,0,13,E20_Q6_ansR.png,right,NA,NA,NA,left,2061.69999998808,false,NA,NA,NA,NA,NA
YdCxsnz9,NA,NA,YdCxsnz9,2020-0188,2021-11-12,13:32:00,15:06:47,NA,incomplete,true,true,NA,0,14,E20_Q4_ansR.png,right,NA,NA,NA,right,1276.19999998808,true,NA,NA,NA,NA,NA
YdCxsnz9,NA,NA,YdCxsnz9,2020-0188,2021-11-12,13:32:00,15:06:47,NA,incomplete,true,true,NA,0,15,E20_Q9_ansR.png,right,NA,NA,NA,right,1273.90000003576,true,NA,NA,NA,NA,NA
YdCxsnz9,NA,NA,YdCxsnz9,2020-0188,2021-11-12,13:32:00,15:06:47,NA,incomplete,true,true,NA,0,16,E20_Q3_ansR.png,right,NA,NA,NA,right,1446.10000002384,true,NA,NA,NA,NA,NA
YdCxsnz9,NA,NA,YdCxsnz9,2020-0188,2021-11-12,13:32:00,15:06:47,NA,incomplete,true,true,NA,0,17,E20_Q10_ansL.png,left,NA,NA,NA,right,1583.19999998808,false,NA,NA,NA,NA,NA
YdCxsnz9,NA,NA,YdCxsnz9,2020-0188,2021-11-12,13:32:00,15:06:47,NA,incomplete,true,true,NA,0,18,E20_Q2_ansL.png,left,NA,NA,NA,left,1704.39999997616,true,NA,NA,NA,NA,NA
YdCxsnz9,NA,NA,YdCxsnz9,2020-0188,2021-11-12,13:32:00,15:06:47,NA,incomplete,true,true,NA,0,19,E20_Q5_ansR.png,right,NA,NA,NA,left,1867,false,NA,NA,NA,NA,NA
YdCxsnz9,NA,NA,YdCxsnz9,2020-0188,2021-11-12,13:32:00,15:06:47,NA,incomplete,true,true,NA,0,20,E14_Q6_ansR.png,right,NA,NA,NA,right,1947.69999998808,true,NA,NA,NA,NA,NA
YdCxsnz9,NA,NA,YdCxsnz9,2020-0188,2021-11-12,13:32:00,15:06:47,NA,incomplete,true,true,NA,0,21,E14_Q5_ansR.png,right,NA,NA,NA,left,1552.30000001192,false,NA,NA,NA,NA,NA
YdCxsnz9,NA,NA,YdCxsnz9,2020-0188,2021-11-12,13:32:00,15:06:47,NA,incomplete,true,true,NA,0,22,E14_Q3_ansR.png,right,NA,NA,NA,right,1246.89999997616,true,NA,NA,NA,NA,NA
YdCxsnz9,NA,NA,YdCxsnz9,2020-0188,2021-11-12,13:32:00,15:06:47,NA,incomplete,true,true,NA,0,23,E14_Q9_ansR.png,right,NA,NA,NA,right,1497.5,true,NA,NA,NA,NA,NA
YdCxsnz9,NA,NA,YdCxsnz9,2020-0188,2021-11-12,13:32:00,15:06:47,NA,incomplete,true,true,NA,0,24,E14_Q4_ansR.png,right,NA,NA,NA,right,1004.40000003576,true,NA,NA,NA,NA,NA
YdCxsnz9,NA,NA,YdCxsnz9,2020-0188,2021-11-12,13:32:00,15:06:47,NA,incomplete,true,true,NA,0,25,E14_Q7_ansL.png,left,NA,NA,NA,left,951.800000011921,true,NA,NA,NA,NA,NA
YdCxsnz9,NA,NA,YdCxsnz9,2020-0188,2021-11-12,13:32:00,15:06:47,NA,incomplete,true,true,NA,0,26,E14_Q8_ansL.png,left,NA,NA,NA,left,2092.10000002384,true,NA,NA,NA,NA,NA
YdCxsnz9,NA,NA,YdCxsnz9,2020-0188,2021-11-12,13:32:00,15:06:47,NA,incomplete,true,true,NA,0,27,E14_Q1_ansL.png,left,NA,NA,NA,left,1054.30000001192,true,NA,NA,NA,NA,NA
YdCxsnz9,NA,NA,YdCxsnz9,2020-0188,2021-11-12,13:32:00,15:06:47,NA,incomplete,true,true,NA,0,28,E14_Q2_ansL.png,left,NA,NA,NA,left,1675.10000002384,true,NA,NA,NA,NA,NA
YdCxsnz9,NA,NA,YdCxsnz9,2020-0188,2021-11-12,13:32:00,15:06:47,NA,incomplete,true,true,NA,0,29,E14_Q10_ansL.png,left,NA,NA,NA,left,1660.39999997616,true,NA,NA,NA,NA,NA
YdCxsnz9,NA,NA,YdCxsnz9,2020-0188,2021-11-12,13:32:00,15:06:47,NA,incomplete,true,NA,true,0,0,NA,right,E20_Q1_ansL.png,E26_Q3_ansR.png,between,NA,NaN,NA,right,2723.300000011921,1,2,5008
YdCxsnz9,NA,NA,YdCxsnz9,2020-0188,2021-11-12,13:32:00,15:06:47,NA,incomplete,true,NA,true,0,1,NA,left,E20_Q1_ansL.png,E20_Q9_ansR.png,within,NA,NaN,NA,left,3811.199999988079,1,1,2306
YdCxsnz9,NA,NA,YdCxsnz9,2020-0188,2021-11-12,13:32:00,15:06:47,NA,incomplete,true,NA,true,0,2,NA,right,E14_Q5_ansR.png,E20_Q2_ansL.png,between,NA,NaN,NA,right,4773.599999964237,1,2,1794.6000000238419
YdCxsnz9,NA,NA,YdCxsnz9,2020-0188,2021-11-12,13:32:00,15:06:47,NA,incomplete,true,NA,true,0,3,NA,right,E14_Q2_ansL.png,E14_Q7_ansL.png,within,NA,NaN,NA,right,2599.699999988079,1,0,1564.1000000238419
YdCxsnz9,NA,NA,YdCxsnz9,2020-0188,2021-11-12,13:32:00,15:06:47,NA,incomplete,true,NA,true,0,4,NA,right,E26_Q2_ansL.png,E26_Q4_ansR.png,within,NA,NaN,NA,left,3805.899999976158,0,1,2524
YdCxsnz9,NA,NA,YdCxsnz9,2020-0188,2021-11-12,13:32:00,15:06:47,NA,incomplete,true,NA,true,0,5,NA,right,E20_Q7_ansL.png,E26_Q2_ansL.png,between,NA,NaN,NA,right,2723.699999988079,1,2,2179.5
YdCxsnz9,NA,NA,YdCxsnz9,2020-0188,2021-11-12,13:32:00,15:06:47,NA,incomplete,true,NA,true,0,6,NA,right,E14_Q6_ansR.png,E20_Q10_ansL.png,between,NA,NaN,NA,right,2817.899999976158,1,2,1444
YdCxsnz9,NA,NA,YdCxsnz9,2020-0188,2021-11-12,13:32:00,15:06:47,NA,incomplete,true,NA,true,0,7,NA,left,E14_Q8_ansL.png,E14_Q10_ansL.png,within,NA,NaN,NA,right,2851.199999988079,0,0,1349.9000000357628
YdCxsnz9,NA,NA,YdCxsnz9,2020-0188,2021-11-12,13:32:00,15:06:47,NA,incomplete,true,NA,true,0,8,NA,right,E14_Q8_ansL.png,E14_Q9_ansR.png,within,NA,NaN,NA,right,1999.1000000238419,1,0,1042.800000011921
YdCxsnz9,NA,NA,YdCxsnz9,2020-0188,2021-11-12,13:32:00,15:06:47,NA,incomplete,true,NA,true,0,9,NA,left,E26_Q9_ansR.png,E26_Q3_ansR.png,within,NA,NaN,NA,right,2473.5,0,0,1002.6999999880791
YdCxsnz9,NA,NA,YdCxsnz9,2020-0188,2021-11-12,13:32:00,15:06:47,NA,incomplete,true,NA,true,0,10,NA,right,E26_Q7_ansL.png,E26_Q8_ansL.png,within,NA,NaN,NA,right,2335.7000000476837,1,1,1290.8999999761581
YdCxsnz9,NA,NA,YdCxsnz9,2020-0188,2021-11-12,13:32:00,15:06:47,NA,incomplete,true,NA,true,0,11,NA,left,E20_Q9_ansR.png,E20_Q2_ansL.png,within,NA,NaN,NA,left,3766.899999976158,1,1,1110
YdCxsnz9,NA,NA,YdCxsnz9,2020-0188,2021-11-12,13:32:00,15:06:47,NA,incomplete,true,NA,true,0,12,NA,right,E26_Q4_ansR.png,E26_Q5_ansR.png,within,NA,NaN,NA,left,6974.5,0,0,924.8999999761581
YdCxsnz9,NA,NA,YdCxsnz9,2020-0188,2021-11-12,13:32:00,15:06:47,NA,incomplete,true,NA,true,0,13,NA,right,E14_Q1_ansL.png,E14_Q4_ansR.png,within,NA,NaN,NA,left,3383,0,0,2082.399999976158
YdCxsnz9,NA,NA,YdCxsnz9,2020-0188,2021-11-12,13:32:00,15:06:47,NA,incomplete,true,NA,true,0,14,NA,right,E14_Q9_ansR.png,E14_Q6_ansR.png,within,NA,NaN,NA,right,3630.699999988079,1,0,1363.6000000238419
YdCxsnz9,NA,NA,YdCxsnz9,2020-0188,2021-11-12,13:32:00,15:06:47,NA,incomplete,true,NA,true,0,15,NA,left,E20_Q6_ansR.png,E20_Q3_ansR.png,within,NA,NaN,NA,left,10505.600000023842,1,0,1411.5999999642372
YdCxsnz9,NA,NA,YdCxsnz9,2020-0188,2021-11-12,13:32:00,15:06:47,NA,incomplete,true,NA,true,0,16,NA,right,E20_Q5_ansR.png,E20_Q3_ansR.png,within,NA,NaN,NA,right,3184.400000035763,1,0,1150.9000000357628
YdCxsnz9,NA,NA,YdCxsnz9,2020-0188,2021-11-12,13:32:00,15:06:47,NA,incomplete,true,NA,true,0,17,NA,right,E20_Q8_ansL.png,E26_Q1_ansL.png,between,NA,NaN,NA,right,1937.6000000238419,1,3,1555.2000000476837
YdCxsnz9,NA,NA,YdCxsnz9,2020-0188,2021-11-12,13:32:00,15:06:47,NA,incomplete,true,NA,true,0,18,NA,left,E26_Q10_ansL.png,E26_Q1_ansL.png,within,NA,NaN,NA,left,2217.199999988079,1,0,1149.5
YdCxsnz9,NA,NA,YdCxsnz9,2020-0188,2021-11-12,13:32:00,15:06:47,NA,incomplete,true,NA,true,0,19,NA,right,E14_Q7_ansL.png,E14_Q3_ansR.png,within,NA,NaN,NA,left,2429.300000011921,0,1,836.5999999642372
YdCxsnz9,NA,NA,YdCxsnz9,2020-0188,2021-11-12,13:32:00,15:06:47,NA,incomplete,true,NA,true,0,20,NA,left,E20_Q5_ansR.png,E14_Q3_ansR.png,between,NA,NaN,NA,left,1964.1000000238419,1,2,1411.3999999761581
YdCxsnz9,NA,NA,YdCxsnz9,2020-0188,2021-11-12,13:32:00,15:06:47,NA,incomplete,true,NA,true,0,21,NA,right,E20_Q6_ansR.png,E20_Q7_ansL.png,within,NA,NaN,NA,right,2642.2000000476837,1,1,1077.8999999761581
YdCxsnz9,NA,NA,YdCxsnz9,2020-0188,2021-11-12,13:32:00,15:06:47,NA,incomplete,true,NA,true,0,22,NA,left,E20_Q4_ansR.png,E20_Q10_ansL.png,within,NA,NaN,NA,left,3991.400000035763,1,0,2484.899999976158
YdCxsnz9,NA,NA,YdCxsnz9,2020-0188,2021-11-12,13:32:00,15:06:47,NA,incomplete,true,NA,true,0,23,NA,right,E26_Q9_ansR.png,E26_Q7_ansL.png,within,NA,NaN,NA,left,3565.099999964237,0,0,1668.7999999523163
YdCxsnz9,NA,NA,YdCxsnz9,2020-0188,2021-11-12,13:32:00,15:06:47,NA,incomplete,true,NA,true,0,24,NA,right,E14_Q4_ansR.png,E14_Q5_ansR.png,within,NA,NaN,NA,right,3313,1,0,876.5999999642372
YdCxsnz9,NA,NA,YdCxsnz9,2020-0188,2021-11-12,13:32:00,15:06:47,NA,incomplete,true,NA,true,0,25,NA,right,E26_Q10_ansL.png,E26_Q6_ansR.png,within,NA,NaN,NA,left,3161.699999988079,0,0,1387.699999988079
YdCxsnz9,NA,NA,YdCxsnz9,2020-0188,2021-11-12,13:32:00,15:06:47,NA,incomplete,true,NA,true,0,26,NA,left,E20_Q8_ansL.png,E20_Q4_ansR.png,within,NA,NaN,NA,left,3390.800000011921,1,0,1283.5999999642372
YdCxsnz9,NA,NA,YdCxsnz9,2020-0188,2021-11-12,13:32:00,15:06:47,NA,incomplete,false,true,NA,1,0,E21_Q3_ansR.png,right,NA,NA,NA,right,1884.20000004768,true,NA,NA,NA,NA,NA
YdCxsnz9,NA,NA,YdCxsnz9,2020-0188,2021-11-12,13:32:00,15:06:47,NA,incomplete,false,true,NA,1,1,E21_Q2_ansL.png,left,NA,NA,NA,left,1462.89999997616,true,NA,NA,NA,NA,NA
YdCxsnz9,NA,NA,YdCxsnz9,2020-0188,2021-11-12,13:32:00,15:06:47,NA,incomplete,false,true,NA,1,2,E21_Q6_ansR.png,right,NA,NA,NA,right,1286.39999997616,true,NA,NA,NA,NA,NA
YdCxsnz9,NA,NA,YdCxsnz9,2020-0188,2021-11-12,13:32:00,15:06:47,NA,incomplete,false,true,NA,1,3,E21_Q1_ansL.png,left,NA,NA,NA,left,1199,true,NA,NA,NA,NA,NA
YdCxsnz9,NA,NA,YdCxsnz9,2020-0188,2021-11-12,13:32:00,15:06:47,NA,incomplete,false,true,NA,1,4,E21_Q7_ansL.png,left,NA,NA,NA,left,1281.80000001192,true,NA,NA,NA,NA,NA
YdCxsnz9,NA,NA,YdCxsnz9,2020-0188,2021-11-12,13:32:00,15:06:47,NA,incomplete,false,true,NA,1,5,E21_Q5_ansR.png,right,NA,NA,NA,right,1190.60000002384,true,NA,NA,NA,NA,NA
YdCxsnz9,NA,NA,YdCxsnz9,2020-0188,2021-11-12,13:32:00,15:06:47,NA,incomplete,false,true,NA,1,6,E21_Q10_ansL.png,left,NA,NA,NA,left,1357.09999996424,true,NA,NA,NA,NA,NA
YdCxsnz9,NA,NA,YdCxsnz9,2020-0188,2021-11-12,13:32:00,15:06:47,NA,incomplete,false,true,NA,1,7,E21_Q8_ansL.png,left,NA,NA,NA,left,917.400000035763,true,NA,NA,NA,NA,NA
YdCxsnz9,NA,NA,YdCxsnz9,2020-0188,2021-11-12,13:32:00,15:06:47,NA,incomplete,false,true,NA,1,8,E21_Q9_ansR.png,right,NA,NA,NA,right,1249.30000001192,true,NA,NA,NA,NA,NA
YdCxsnz9,NA,NA,YdCxsnz9,2020-0188,2021-11-12,13:32:00,15:06:47,NA,incomplete,false,true,NA,1,9,E21_Q4_ansR.png,right,NA,NA,NA,right,1045.69999998808,true,NA,NA,NA,NA,NA
YdCxsnz9,NA,NA,YdCxsnz9,2020-0188,2021-11-12,13:32:00,15:06:47,NA,incomplete,false,true,NA,1,10,E11_Q10_ansR.png,right,NA,NA,NA,right,1692.30000001192,true,NA,NA,NA,NA,NA
YdCxsnz9,NA,NA,YdCxsnz9,2020-0188,2021-11-12,13:32:00,15:06:47,NA,incomplete,false,true,NA,1,11,E11_Q6_ansL.png,left,NA,NA,NA,left,1697.29999995232,true,NA,NA,NA,NA,NA
YdCxsnz9,NA,NA,YdCxsnz9,2020-0188,2021-11-12,13:32:00,15:06:47,NA,incomplete,false,true,NA,1,12,E11_Q9_ansL.png,left,NA,NA,NA,left,1247.60000002384,true,NA,NA,NA,NA,NA
YdCxsnz9,NA,NA,YdCxsnz9,2020-0188,2021-11-12,13:32:00,15:06:47,NA,incomplete,false,true,NA,1,13,E11_Q8_ansR.png,right,NA,NA,NA,right,1261.19999998808,true,NA,NA,NA,NA,NA
YdCxsnz9,NA,NA,YdCxsnz9,2020-0188,2021-11-12,13:32:00,15:06:47,NA,incomplete,false,true,NA,1,14,E11_Q3_ansL.png,left,NA,NA,NA,left,1784.09999996424,true,NA,NA,NA,NA,NA
YdCxsnz9,NA,NA,YdCxsnz9,2020-0188,2021-11-12,13:32:00,15:06:47,NA,incomplete,false,true,NA,1,15,E11_Q7_ansR.png,right,NA,NA,NA,right,1231,true,NA,NA,NA,NA,NA
YdCxsnz9,NA,NA,YdCxsnz9,2020-0188,2021-11-12,13:32:00,15:06:47,NA,incomplete,false,true,NA,1,16,E11_Q4_ansL.png,left,NA,NA,NA,left,1708.60000002384,true,NA,NA,NA,NA,NA
YdCxsnz9,NA,NA,YdCxsnz9,2020-0188,2021-11-12,13:32:00,15:06:47,NA,incomplete,false,true,NA,1,17,E11_Q2_ansR.png,right,NA,NA,NA,right,1257.59999996424,true,NA,NA,NA,NA,NA
YdCxsnz9,NA,NA,YdCxsnz9,2020-0188,2021-11-12,13:32:00,15:06:47,NA,incomplete,false,true,NA,1,18,E11_Q5_ansL.png,left,NA,NA,NA,left,1666.89999997616,true,NA,NA,NA,NA,NA
YdCxsnz9,NA,NA,YdCxsnz9,2020-0188,2021-11-12,13:32:00,15:06:47,NA,incomplete,false,true,NA,1,19,E11_Q1_ansR.png,right,NA,NA,NA,right,1319.60000002384,true,NA,NA,NA,NA,NA
YdCxsnz9,NA,NA,YdCxsnz9,2020-0188,2021-11-12,13:32:00,15:06:47,NA,incomplete,false,true,NA,1,20,E16_Q2_ansR.png,right,NA,NA,NA,right,1542.10000002384,true,NA,NA,NA,NA,NA
YdCxsnz9,NA,NA,YdCxsnz9,2020-0188,2021-11-12,13:32:00,15:06:47,NA,incomplete,false,true,NA,1,21,E16_Q4_ansL.png,left,NA,NA,NA,left,1271.39999997616,true,NA,NA,NA,NA,NA
YdCxsnz9,NA,NA,YdCxsnz9,2020-0188,2021-11-12,13:32:00,15:06:47,NA,incomplete,false,true,NA,1,22,E16_Q3_ansL.png,left,NA,NA,NA,left,1536.39999997616,true,NA,NA,NA,NA,NA
YdCxsnz9,NA,NA,YdCxsnz9,2020-0188,2021-11-12,13:32:00,15:06:47,NA,incomplete,false,true,NA,1,23,E16_Q9_ansL.png,left,NA,NA,NA,left,1179.79999995232,true,NA,NA,NA,NA,NA
YdCxsnz9,NA,NA,YdCxsnz9,2020-0188,2021-11-12,13:32:00,15:06:47,NA,incomplete,false,true,NA,1,24,E16_Q10_ansR.png,right,NA,NA,NA,right,984.5,true,NA,NA,NA,NA,NA
YdCxsnz9,NA,NA,YdCxsnz9,2020-0188,2021-11-12,13:32:00,15:06:47,NA,incomplete,false,true,NA,1,25,E16_Q1_ansR.png,right,NA,NA,NA,right,1293,true,NA,NA,NA,NA,NA
YdCxsnz9,NA,NA,YdCxsnz9,2020-0188,2021-11-12,13:32:00,15:06:47,NA,incomplete,false,true,NA,1,26,E16_Q6_ansL.png,left,NA,NA,NA,left,1193.39999997616,true,NA,NA,NA,NA,NA
YdCxsnz9,NA,NA,YdCxsnz9,2020-0188,2021-11-12,13:32:00,15:06:47,NA,incomplete,false,true,NA,1,27,E16_Q8_ansR.png,right,NA,NA,NA,right,1164.69999998808,true,NA,NA,NA,NA,NA
YdCxsnz9,NA,NA,YdCxsnz9,2020-0188,2021-11-12,13:32:00,15:06:47,NA,incomplete,false,true,NA,1,28,E16_Q7_ansR.png,right,NA,NA,NA,right,1194,true,NA,NA,NA,NA,NA
YdCxsnz9,NA,NA,YdCxsnz9,2020-0188,2021-11-12,13:32:00,15:06:47,NA,incomplete,false,true,NA,1,29,E16_Q5_ansL.png,left,NA,NA,NA,left,1011.19999998808,true,NA,NA,NA,NA,NA
YdCxsnz9,NA,NA,YdCxsnz9,2020-0188,2021-11-12,13:32:00,15:06:47,NA,incomplete,false,NA,true,1,0,NA,left,E16_Q10_ansR.png,E16_Q8_ansR.png,within,NA,NaN,NA,left,3445.900000035763,1,0,2466.399999976158
YdCxsnz9,NA,NA,YdCxsnz9,2020-0188,2021-11-12,13:32:00,15:06:47,NA,incomplete,false,NA,true,1,1,NA,right,E11_Q1_ansR.png,E11_Q4_ansL.png,within,NA,NaN,NA,right,2616.100000023842,1,0,1404.300000011921
YdCxsnz9,NA,NA,YdCxsnz9,2020-0188,2021-11-12,13:32:00,15:06:47,NA,incomplete,false,NA,true,1,2,NA,right,E21_Q9_ansR.png,E21_Q5_ansR.png,within,NA,NaN,NA,right,2054.699999988079,1,0,1034.800000011921
YdCxsnz9,NA,NA,YdCxsnz9,2020-0188,2021-11-12,13:32:00,15:06:47,NA,incomplete,false,NA,true,1,3,NA,right,E16_Q5_ansL.png,E16_Q6_ansL.png,within,NA,NaN,NA,right,2543.199999988079,1,0,1435.7999999523163
YdCxsnz9,NA,NA,YdCxsnz9,2020-0188,2021-11-12,13:32:00,15:06:47,NA,incomplete,false,NA,true,1,4,NA,right,E16_Q4_ansL.png,E11_Q5_ansL.png,between,NA,NaN,NA,right,3095.399999976158,1,2,5317.300000011921
YdCxsnz9,NA,NA,YdCxsnz9,2020-0188,2021-11-12,13:32:00,15:06:47,NA,incomplete,false,NA,true,1,5,NA,left,E11_Q3_ansL.png,E11_Q2_ansR.png,within,NA,NaN,NA,right,3835.100000023842,0,0,1379.9000000357628
YdCxsnz9,NA,NA,YdCxsnz9,2020-0188,2021-11-12,13:32:00,15:06:47,NA,incomplete,false,NA,true,1,6,NA,right,E16_Q9_ansL.png,E16_Q2_ansR.png,within,NA,NaN,NA,left,4099.5,0,0,2201.599999964237
YdCxsnz9,NA,NA,YdCxsnz9,2020-0188,2021-11-12,13:32:00,15:06:47,NA,incomplete,false,NA,true,1,7,NA,right,E11_Q4_ansL.png,E11_Q8_ansR.png,within,NA,NaN,NA,right,2641.800000011921,1,0,1220.0999999642372
YdCxsnz9,NA,NA,YdCxsnz9,2020-0188,2021-11-12,13:32:00,15:06:47,NA,incomplete,false,NA,true,1,8,NA,right,E16_Q6_ansL.png,E16_Q9_ansL.png,within,NA,NaN,NA,right,2291.7000000476837,1,0,1574.2000000476837
YdCxsnz9,NA,NA,YdCxsnz9,2020-0188,2021-11-12,13:32:00,15:06:47,NA,incomplete,false,NA,true,1,9,NA,right,E11_Q10_ansR.png,E21_Q8_ansL.png,between,NA,NaN,NA,right,2001.1000000238419,1,2,1964.0999999642372
YdCxsnz9,NA,NA,YdCxsnz9,2020-0188,2021-11-12,13:32:00,15:06:47,NA,incomplete,false,NA,true,1,10,NA,left,E21_Q10_ansL.png,E21_Q4_ansR.png,within,NA,NaN,NA,left,3145.400000035763,1,1,938.1999999880791
YdCxsnz9,NA,NA,YdCxsnz9,2020-0188,2021-11-12,13:32:00,15:06:47,NA,incomplete,false,NA,true,1,11,NA,right,E11_Q6_ansL.png,E21_Q9_ansR.png,between,NA,NaN,NA,right,2872.099999964237,1,2,1222.300000011921
YdCxsnz9,NA,NA,YdCxsnz9,2020-0188,2021-11-12,13:32:00,15:06:47,NA,incomplete,false,NA,true,1,12,NA,right,E11_Q9_ansL.png,E21_Q4_ansR.png,between,NA,NaN,NA,right,2688.7999999523163,1,2,2044.3999999761581
YdCxsnz9,NA,NA,YdCxsnz9,2020-0188,2021-11-12,13:32:00,15:06:47,NA,incomplete,false,NA,true,1,13,NA,right,E11_Q7_ansR.png,E11_Q9_ansL.png,within,NA,NaN,NA,right,2688,1,0,1027.7000000476837
YdCxsnz9,NA,NA,YdCxsnz9,2020-0188,2021-11-12,13:32:00,15:06:47,NA,incomplete,false,NA,true,1,14,NA,left,E21_Q7_ansL.png,E21_Q8_ansL.png,within,NA,NaN,NA,right,3933,0,0,1649.5
YdCxsnz9,NA,NA,YdCxsnz9,2020-0188,2021-11-12,13:32:00,15:06:47,NA,incomplete,false,NA,true,1,15,NA,right,E16_Q2_ansR.png,E11_Q2_ansR.png,between,NA,NaN,NA,right,5846.699999988079,1,2,1218.699999988079
YdCxsnz9,NA,NA,YdCxsnz9,2020-0188,2021-11-12,13:32:00,15:06:47,NA,incomplete,false,NA,true,1,16,NA,right,E11_Q5_ansL.png,E11_Q7_ansR.png,within,NA,NaN,NA,left,2978.600000023842,0,0,1222.5999999642372
YdCxsnz9,NA,NA,YdCxsnz9,2020-0188,2021-11-12,13:32:00,15:06:47,NA,incomplete,false,NA,true,1,17,NA,right,E11_Q8_ansR.png,E11_Q10_ansR.png,within,NA,NaN,NA,right,5521.900000035763,1,0,1018.8999999761581
YdCxsnz9,NA,NA,YdCxsnz9,2020-0188,2021-11-12,13:32:00,15:06:47,NA,incomplete,false,NA,true,1,18,NA,right,E21_Q1_ansL.png,E21_Q3_ansR.png,within,NA,NaN,NA,right,2528.900000035763,1,1,1553.6000000238419
YdCxsnz9,NA,NA,YdCxsnz9,2020-0188,2021-11-12,13:32:00,15:06:47,NA,incomplete,false,NA,true,1,19,NA,left,E21_Q6_ansR.png,E21_Q5_ansR.png,within,NA,NaN,NA,right,2367.900000035763,0,1,1312.699999988079
YdCxsnz9,NA,NA,YdCxsnz9,2020-0188,2021-11-12,13:32:00,15:06:47,NA,incomplete,false,NA,true,1,20,NA,left,E16_Q1_ansR.png,E16_Q7_ansR.png,within,NA,NaN,NA,left,3111.699999988079,1,0,2857.399999976158
YdCxsnz9,NA,NA,YdCxsnz9,2020-0188,2021-11-12,13:32:00,15:06:47,NA,incomplete,false,NA,true,1,21,NA,right,E16_Q3_ansL.png,E11_Q1_ansR.png,between,NA,NaN,NA,right,5943,1,2,1708
YdCxsnz9,NA,NA,YdCxsnz9,2020-0188,2021-11-12,13:32:00,15:06:47,NA,incomplete,false,NA,true,1,22,NA,left,E21_Q2_ansL.png,E21_Q7_ansL.png,within,NA,NaN,NA,left,4211.800000011921,1,0,1205.1000000238419
YdCxsnz9,NA,NA,YdCxsnz9,2020-0188,2021-11-12,13:32:00,15:06:47,NA,incomplete,false,NA,true,1,23,NA,left,E11_Q6_ansL.png,E11_Q3_ansL.png,within,NA,NaN,NA,left,2791.699999988079,1,0,1618.5999999642372
YdCxsnz9,NA,NA,YdCxsnz9,2020-0188,2021-11-12,13:32:00,15:06:47,NA,incomplete,false,NA,true,1,24,NA,left,E16_Q3_ansL.png,E16_Q1_ansR.png,within,NA,NaN,NA,left,5297.199999988079,1,0,1785.699999988079
YdCxsnz9,NA,NA,YdCxsnz9,2020-0188,2021-11-12,13:32:00,15:06:47,NA,incomplete,false,NA,true,1,25,NA,right,E16_Q10_ansR.png,E16_Q4_ansL.png,within,NA,NaN,NA,right,2479.800000011921,1,0,2002.699999988079
YdCxsnz9,NA,NA,YdCxsnz9,2020-0188,2021-11-12,13:32:00,15:06:47,NA,incomplete,false,NA,true,1,26,NA,left,E21_Q1_ansL.png,E21_Q10_ansL.png,within,NA,NaN,NA,left,4186.300000011921,1,0,1487.800000011921
YdCxsnz9,NA,NA,YdCxsnz9,2020-0188,2021-11-12,13:32:00,15:06:47,NA,incomplete,false,true,NA,2,0,E5_Q1_ansL.png,left,NA,NA,NA,left,1698.5,true,NA,NA,NA,NA,NA
YdCxsnz9,NA,NA,YdCxsnz9,2020-0188,2021-11-12,13:32:00,15:06:47,NA,incomplete,false,true,NA,2,1,E5_Q10_ansR.png,right,NA,NA,NA,right,1001.5,true,NA,NA,NA,NA,NA
YdCxsnz9,NA,NA,YdCxsnz9,2020-0188,2021-11-12,13:32:00,15:06:47,NA,incomplete,false,true,NA,2,2,E5_Q9_ansR.png,right,NA,NA,NA,right,1314.40000003576,true,NA,NA,NA,NA,NA
YdCxsnz9,NA,NA,YdCxsnz9,2020-0188,2021-11-12,13:32:00,15:06:47,NA,incomplete,false,true,NA,2,3,E5_Q5_ansR.png,right,NA,NA,NA,right,1254.59999996424,true,NA,NA,NA,NA,NA
YdCxsnz9,NA,NA,YdCxsnz9,2020-0188,2021-11-12,13:32:00,15:06:47,NA,incomplete,false,true,NA,2,4,E5_Q3_ansR.png,right,NA,NA,NA,right,1007.30000001192,true,NA,NA,NA,NA,NA
YdCxsnz9,NA,NA,YdCxsnz9,2020-0188,2021-11-12,13:32:00,15:06:47,NA,incomplete,false,true,NA,2,5,E5_Q6_ansR.png,right,NA,NA,NA,right,946.899999976158,true,NA,NA,NA,NA,NA
YdCxsnz9,NA,NA,YdCxsnz9,2020-0188,2021-11-12,13:32:00,15:06:47,NA,incomplete,false,true,NA,2,6,E5_Q4_ansR.png,right,NA,NA,NA,right,1072.39999997616,true,NA,NA,NA,NA,NA
YdCxsnz9,NA,NA,YdCxsnz9,2020-0188,2021-11-12,13:32:00,15:06:47,NA,incomplete,false,true,NA,2,7,E5_Q2_ansL.png,left,NA,NA,NA,left,1217.5,true,NA,NA,NA,NA,NA
YdCxsnz9,NA,NA,YdCxsnz9,2020-0188,2021-11-12,13:32:00,15:06:47,NA,incomplete,false,true,NA,2,8,E5_Q8_ansL.png,left,NA,NA,NA,left,1125.19999998808,true,NA,NA,NA,NA,NA
YdCxsnz9,NA,NA,YdCxsnz9,2020-0188,2021-11-12,13:32:00,15:06:47,NA,incomplete,false,true,NA,2,9,E5_Q7_ansL.png,left,NA,NA,NA,left,1140.20000004768,true,NA,NA,NA,NA,NA
YdCxsnz9,NA,NA,YdCxsnz9,2020-0188,2021-11-12,13:32:00,15:06:47,NA,incomplete,false,true,NA,2,10,E27_Q5_ansR.png,right,NA,NA,NA,right,1300.40000003576,true,NA,NA,NA,NA,NA
YdCxsnz9,NA,NA,YdCxsnz9,2020-0188,2021-11-12,13:32:00,15:06:47,NA,incomplete,false,true,NA,2,11,E27_Q8_ansL.png,left,NA,NA,NA,left,1672.19999998808,true,NA,NA,NA,NA,NA
YdCxsnz9,NA,NA,YdCxsnz9,2020-0188,2021-11-12,13:32:00,15:06:47,NA,incomplete,false,true,NA,2,12,E27_Q4_ansR.png,right,NA,NA,NA,right,1384.19999998808,true,NA,NA,NA,NA,NA
YdCxsnz9,NA,NA,YdCxsnz9,2020-0188,2021-11-12,13:32:00,15:06:47,NA,incomplete,false,true,NA,2,13,E27_Q7_ansL.png,left,NA,NA,NA,left,1277.70000004768,true,NA,NA,NA,NA,NA
YdCxsnz9,NA,NA,YdCxsnz9,2020-0188,2021-11-12,13:32:00,15:06:47,NA,incomplete,false,true,NA,2,14,E27_Q2_ansL.png,left,NA,NA,NA,left,1093.5,true,NA,NA,NA,NA,NA
YdCxsnz9,NA,NA,YdCxsnz9,2020-0188,2021-11-12,13:32:00,15:06:47,NA,incomplete,false,true,NA,2,15,E27_Q6_ansR.png,right,NA,NA,NA,right,962.799999952316,true,NA,NA,NA,NA,NA
YdCxsnz9,NA,NA,YdCxsnz9,2020-0188,2021-11-12,13:32:00,15:06:47,NA,incomplete,false,true,NA,2,16,E27_Q3_ansR.png,right,NA,NA,NA,right,1159.20000004768,true,NA,NA,NA,NA,NA
YdCxsnz9,NA,NA,YdCxsnz9,2020-0188,2021-11-12,13:32:00,15:06:47,NA,incomplete,false,true,NA,2,17,E27_Q10_ansL.png,left,NA,NA,NA,left,1215,true,NA,NA,NA,NA,NA
YdCxsnz9,NA,NA,YdCxsnz9,2020-0188,2021-11-12,13:32:00,15:06:47,NA,incomplete,false,true,NA,2,18,E27_Q9_ansR.png,right,NA,NA,NA,right,1205.59999996424,true,NA,NA,NA,NA,NA
YdCxsnz9,NA,NA,YdCxsnz9,2020-0188,2021-11-12,13:32:00,15:06:47,NA,incomplete,false,true,NA,2,19,E27_Q1_ansL.png,left,NA,NA,NA,left,1639.10000002384,true,NA,NA,NA,NA,NA
YdCxsnz9,NA,NA,YdCxsnz9,2020-0188,2021-11-12,13:32:00,15:06:47,NA,incomplete,false,true,NA,2,20,E4_Q5_ansR.png,right,NA,NA,NA,right,2542.5,true,NA,NA,NA,NA,NA
YdCxsnz9,NA,NA,YdCxsnz9,2020-0188,2021-11-12,13:32:00,15:06:47,NA,incomplete,false,true,NA,2,21,E4_Q8_ansR.png,right,NA,NA,NA,right,2046.90000003576,true,NA,NA,NA,NA,NA
YdCxsnz9,NA,NA,YdCxsnz9,2020-0188,2021-11-12,13:32:00,15:06:47,NA,incomplete,false,true,NA,2,22,E4_Q7_ansR.png,right,NA,NA,NA,right,1655.60000002384,true,NA,NA,NA,NA,NA
YdCxsnz9,NA,NA,YdCxsnz9,2020-0188,2021-11-12,13:32:00,15:06:47,NA,incomplete,false,true,NA,2,23,E4_Q2_ansL.png,left,NA,NA,NA,left,2127,true,NA,NA,NA,NA,NA
YdCxsnz9,NA,NA,YdCxsnz9,2020-0188,2021-11-12,13:32:00,15:06:47,NA,incomplete,false,true,NA,2,24,E4_Q4_ansL.png,left,NA,NA,NA,left,1805.19999998808,true,NA,NA,NA,NA,NA
YdCxsnz9,NA,NA,YdCxsnz9,2020-0188,2021-11-12,13:32:00,15:06:47,NA,incomplete,false,true,NA,2,25,E4_Q3_ansL.png,left,NA,NA,NA,left,1955.5,true,NA,NA,NA,NA,NA
YdCxsnz9,NA,NA,YdCxsnz9,2020-0188,2021-11-12,13:32:00,15:06:47,NA,incomplete,false,true,NA,2,26,E4_Q1_ansL.png,left,NA,NA,NA,left,1303.5,true,NA,NA,NA,NA,NA
YdCxsnz9,NA,NA,YdCxsnz9,2020-0188,2021-11-12,13:32:00,15:06:47,NA,incomplete,false,true,NA,2,27,E4_Q9_ansL.png,left,NA,NA,NA,left,1622.20000004768,true,NA,NA,NA,NA,NA
YdCxsnz9,NA,NA,YdCxsnz9,2020-0188,2021-11-12,13:32:00,15:06:47,NA,incomplete,false,true,NA,2,28,E4_Q10_ansR.png,right,NA,NA,NA,right,1532.40000003576,true,NA,NA,NA,NA,NA
YdCxsnz9,NA,NA,YdCxsnz9,2020-0188,2021-11-12,13:32:00,15:06:47,NA,incomplete,false,true,NA,2,29,E4_Q6_ansR.png,right,NA,NA,NA,right,1557.10000002384,true,NA,NA,NA,NA,NA
YdCxsnz9,NA,NA,YdCxsnz9,2020-0188,2021-11-12,13:32:00,15:06:47,NA,incomplete,false,NA,true,2,0,NA,right,E4_Q5_ansR.png,E27_Q10_ansL.png,between,NA,NaN,NA,right,2096.699999988079,1,2,1153.199999988079
YdCxsnz9,NA,NA,YdCxsnz9,2020-0188,2021-11-12,13:32:00,15:06:47,NA,incomplete,false,NA,true,2,1,NA,left,E5_Q3_ansR.png,E5_Q2_ansL.png,within,NA,NaN,NA,left,2082.399999976158,1,0,1343.699999988079
YdCxsnz9,NA,NA,YdCxsnz9,2020-0188,2021-11-12,13:32:00,15:06:47,NA,incomplete,false,NA,true,2,2,NA,right,E4_Q4_ansL.png,E4_Q8_ansR.png,within,NA,NaN,NA,right,2888.199999988079,1,0,1035.7000000476837
YdCxsnz9,NA,NA,YdCxsnz9,2020-0188,2021-11-12,13:32:00,15:06:47,NA,incomplete,false,NA,true,2,3,NA,right,E27_Q7_ansL.png,E27_Q5_ansR.png,within,NA,NaN,NA,right,1867,1,0,1117.699999988079
YdCxsnz9,NA,NA,YdCxsnz9,2020-0188,2021-11-12,13:32:00,15:06:47,NA,incomplete,false,NA,true,2,4,NA,left,E5_Q1_ansL.png,E5_Q5_ansR.png,within,NA,NaN,NA,left,1884,1,0,1221.1000000238419
YdCxsnz9,NA,NA,YdCxsnz9,2020-0188,2021-11-12,13:32:00,15:06:47,NA,incomplete,false,NA,true,2,5,NA,right,E27_Q5_ansR.png,E5_Q2_ansL.png,between,NA,NaN,NA,right,3653.699999988079,1,1,941.6999999880791
YdCxsnz9,NA,NA,YdCxsnz9,2020-0188,2021-11-12,13:32:00,15:06:47,NA,incomplete,false,NA,true,2,6,NA,left,E27_Q9_ansR.png,E4_Q8_ansR.png,between,NA,NaN,NA,left,2051.2000000476837,1,2,1125.2999999523163
YdCxsnz9,NA,NA,YdCxsnz9,2020-0188,2021-11-12,13:32:00,15:06:47,NA,incomplete,false,NA,true,2,7,NA,left,E4_Q7_ansR.png,E4_Q3_ansL.png,within,NA,NaN,NA,right,5880.699999988079,0,0,1162.6000000238419
YdCxsnz9,NA,NA,YdCxsnz9,2020-0188,2021-11-12,13:32:00,15:06:47,NA,incomplete,false,NA,true,2,8,NA,right,E5_Q6_ansR.png,E5_Q9_ansR.png,within,NA,NaN,NA,right,3073.399999976158,1,0,1508.3999999761581
YdCxsnz9,NA,NA,YdCxsnz9,2020-0188,2021-11-12,13:32:00,15:06:47,NA,incomplete,false,NA,true,2,9,NA,right,E27_Q6_ansR.png,E27_Q4_ansR.png,within,NA,NaN,NA,right,3757.600000023842,1,0,1796.8999999761581
YdCxsnz9,NA,NA,YdCxsnz9,2020-0188,2021-11-12,13:32:00,15:06:47,NA,incomplete,false,NA,true,2,10,NA,left,E5_Q10_ansR.png,E5_Q3_ansR.png,within,NA,NaN,NA,left,5998.799999952316,1,0,1594.6000000238419
YdCxsnz9,NA,NA,YdCxsnz9,2020-0188,2021-11-12,13:32:00,15:06:47,NA,incomplete,false,NA,true,2,11,NA,left,E4_Q3_ansL.png,E4_Q10_ansR.png,within,NA,NaN,NA,left,3558.2000000476837,1,0,1125
YdCxsnz9,NA,NA,YdCxsnz9,2020-0188,2021-11-12,13:32:00,15:06:47,NA,incomplete,false,NA,true,2,12,NA,left,E4_Q5_ansR.png,E4_Q2_ansL.png,within,NA,NaN,NA,left,3496.199999988079,1,0,1203.699999988079
YdCxsnz9,NA,NA,YdCxsnz9,2020-0188,2021-11-12,13:32:00,15:06:47,NA,incomplete,false,NA,true,2,13,NA,left,E5_Q6_ansR.png,E5_Q8_ansL.png,within,NA,NaN,NA,left,3545.899999976158,1,0,971.3000000119209
YdCxsnz9,NA,NA,YdCxsnz9,2020-0188,2021-11-12,13:32:00,15:06:47,NA,incomplete,false,NA,true,2,14,NA,right,E5_Q7_ansL.png,E5_Q4_ansR.png,within,NA,NaN,NA,left,4352.699999988079,0,0,1542.800000011921
YdCxsnz9,NA,NA,YdCxsnz9,2020-0188,2021-11-12,13:32:00,15:06:47,NA,incomplete,false,NA,true,2,15,NA,left,E27_Q6_ansR.png,E27_Q9_ansR.png,within,NA,NaN,NA,left,3330.800000011921,1,0,2410.100000023842
YdCxsnz9,NA,NA,YdCxsnz9,2020-0188,2021-11-12,13:32:00,15:06:47,NA,incomplete,false,NA,true,2,16,NA,left,E27_Q2_ansL.png,E27_Q10_ansL.png,within,NA,NaN,NA,right,6205.400000035763,0,1,996.8000000119209
YdCxsnz9,NA,NA,YdCxsnz9,2020-0188,2021-11-12,13:32:00,15:06:47,NA,incomplete,false,NA,true,2,17,NA,right,E27_Q3_ansR.png,E27_Q7_ansL.png,within,NA,NaN,NA,right,2574.300000011921,1,1,1069.1000000238419
YdCxsnz9,NA,NA,YdCxsnz9,2020-0188,2021-11-12,13:32:00,15:06:47,NA,incomplete,false,NA,true,2,18,NA,left,E27_Q1_ansL.png,E4_Q7_ansR.png,between,NA,NaN,NA,left,3701.2999999523163,1,2,1379
YdCxsnz9,NA,NA,YdCxsnz9,2020-0188,2021-11-12,13:32:00,15:06:47,NA,incomplete,false,NA,true,2,19,NA,right,E4_Q6_ansR.png,E4_Q1_ansL.png,within,NA,NaN,NA,right,3255.900000035763,1,0,1997.800000011921
YdCxsnz9,NA,NA,YdCxsnz9,2020-0188,2021-11-12,13:32:00,15:06:47,NA,incomplete,false,NA,true,2,20,NA,right,E27_Q1_ansL.png,E27_Q3_ansR.png,within,NA,NaN,NA,right,4643.5,1,0,1110.8999999761581
YdCxsnz9,NA,NA,YdCxsnz9,2020-0188,2021-11-12,13:32:00,15:06:47,NA,incomplete,false,NA,true,2,21,NA,left,E4_Q4_ansL.png,E4_Q9_ansL.png,within,NA,NaN,NA,left,4976.5,1,0,978.5
YdCxsnz9,NA,NA,YdCxsnz9,2020-0188,2021-11-12,13:32:00,15:06:47,NA,incomplete,false,NA,true,2,22,NA,right,E4_Q1_ansL.png,E4_Q2_ansL.png,within,NA,NaN,NA,left,5345.199999988079,0,0,1037.1000000238419
YdCxsnz9,NA,NA,YdCxsnz9,2020-0188,2021-11-12,13:32:00,15:06:47,NA,incomplete,false,NA,true,2,23,NA,right,E27_Q4_ansR.png,E5_Q7_ansL.png,between,NA,NaN,NA,right,2344.5,1,3,1005
YdCxsnz9,NA,NA,YdCxsnz9,2020-0188,2021-11-12,13:32:00,15:06:47,NA,incomplete,false,NA,true,2,24,NA,right,E27_Q8_ansL.png,E5_Q8_ansL.png,between,NA,NaN,NA,right,2775.899999976158,1,3,1166.8999999761581
YdCxsnz9,NA,NA,YdCxsnz9,2020-0188,2021-11-12,13:32:00,15:06:47,NA,incomplete,false,NA,true,2,25,NA,right,E27_Q2_ansL.png,E27_Q8_ansL.png,within,NA,NaN,NA,right,3525.5,1,1,2418.600000023842
YdCxsnz9,NA,NA,YdCxsnz9,2020-0188,2021-11-12,13:32:00,15:06:47,NA,incomplete,false,NA,true,2,26,NA,right,E5_Q4_ansR.png,E5_Q5_ansR.png,within,NA,NaN,NA,right,6194.199999988079,1,0,1944.3999999761581
YdCxsnz9,NA,NA,YdCxsnz9,2020-0188,2021-11-12,13:32:00,15:06:47,NA,incomplete,false,true,NA,3,0,E2_Q8_ansR.png,right,NA,NA,NA,right,1829.5,true,NA,NA,NA,NA,NA
YdCxsnz9,NA,NA,YdCxsnz9,2020-0188,2021-11-12,13:32:00,15:06:47,NA,incomplete,false,true,NA,3,1,E2_Q1_ansL.png,left,NA,NA,NA,left,1502,true,NA,NA,NA,NA,NA
YdCxsnz9,NA,NA,YdCxsnz9,2020-0188,2021-11-12,13:32:00,15:06:47,NA,incomplete,false,true,NA,3,2,E2_Q4_ansL.png,left,NA,NA,NA,left,1304,true,NA,NA,NA,NA,NA
YdCxsnz9,NA,NA,YdCxsnz9,2020-0188,2021-11-12,13:32:00,15:06:47,NA,incomplete,false,true,NA,3,3,E2_Q6_ansL.png,left,NA,NA,NA,left,1215.39999997616,true,NA,NA,NA,NA,NA
YdCxsnz9,NA,NA,YdCxsnz9,2020-0188,2021-11-12,13:32:00,15:06:47,NA,incomplete,false,true,NA,3,4,E2_Q10_ansL.png,left,NA,NA,NA,left,1237.5,true,NA,NA,NA,NA,NA
YdCxsnz9,NA,NA,YdCxsnz9,2020-0188,2021-11-12,13:32:00,15:06:47,NA,incomplete,false,true,NA,3,5,E2_Q5_ansL.png,left,NA,NA,NA,left,980.599999964237,true,NA,NA,NA,NA,NA
YdCxsnz9,NA,NA,YdCxsnz9,2020-0188,2021-11-12,13:32:00,15:06:47,NA,incomplete,false,true,NA,3,6,E2_Q9_ansL.png,left,NA,NA,NA,left,1407.10000002384,true,NA,NA,NA,NA,NA
YdCxsnz9,NA,NA,YdCxsnz9,2020-0188,2021-11-12,13:32:00,15:06:47,NA,incomplete,false,true,NA,3,7,E2_Q7_ansR.png,right,NA,NA,NA,right,1534.5,true,NA,NA,NA,NA,NA
YdCxsnz9,NA,NA,YdCxsnz9,2020-0188,2021-11-12,13:32:00,15:06:47,NA,incomplete,false,true,NA,3,8,E2_Q3_ansR.png,right,NA,NA,NA,right,1406.80000001192,true,NA,NA,NA,NA,NA
YdCxsnz9,NA,NA,YdCxsnz9,2020-0188,2021-11-12,13:32:00,15:06:47,NA,incomplete,false,true,NA,3,9,E2_Q2_ansR.png,right,NA,NA,NA,right,1203.19999998808,true,NA,NA,NA,NA,NA
YdCxsnz9,NA,NA,YdCxsnz9,2020-0188,2021-11-12,13:32:00,15:06:47,NA,incomplete,false,true,NA,3,10,E15_Q2_ansL.png,left,NA,NA,NA,left,2290.90000003576,true,NA,NA,NA,NA,NA
YdCxsnz9,NA,NA,YdCxsnz9,2020-0188,2021-11-12,13:32:00,15:06:47,NA,incomplete,false,true,NA,3,11,E15_Q7_ansL.png,left,NA,NA,NA,left,1271.5,true,NA,NA,NA,NA,NA
YdCxsnz9,NA,NA,YdCxsnz9,2020-0188,2021-11-12,13:32:00,15:06:47,NA,incomplete,false,true,NA,3,12,E15_Q8_ansL.png,left,NA,NA,NA,left,1293.19999998808,true,NA,NA,NA,NA,NA
YdCxsnz9,NA,NA,YdCxsnz9,2020-0188,2021-11-12,13:32:00,15:06:47,NA,incomplete,false,true,NA,3,13,E15_Q3_ansR.png,right,NA,NA,NA,right,982.899999976158,true,NA,NA,NA,NA,NA
YdCxsnz9,NA,NA,YdCxsnz9,2020-0188,2021-11-12,13:32:00,15:06:47,NA,incomplete,false,true,NA,3,14,E15_Q1_ansL.png,left,NA,NA,NA,right,883.799999952316,false,NA,NA,NA,NA,NA
YdCxsnz9,NA,NA,YdCxsnz9,2020-0188,2021-11-12,13:32:00,15:06:47,NA,incomplete,false,true,NA,3,15,E15_Q10_ansL.png,left,NA,NA,NA,left,1211.80000001192,true,NA,NA,NA,NA,NA
YdCxsnz9,NA,NA,YdCxsnz9,2020-0188,2021-11-12,13:32:00,15:06:47,NA,incomplete,false,true,NA,3,16,E15_Q6_ansR.png,right,NA,NA,NA,right,1690.40000003576,true,NA,NA,NA,NA,NA
YdCxsnz9,NA,NA,YdCxsnz9,2020-0188,2021-11-12,13:32:00,15:06:47,NA,incomplete,false,true,NA,3,17,E15_Q9_ansR.png,right,NA,NA,NA,right,1212.09999996424,true,NA,NA,NA,NA,NA
YdCxsnz9,NA,NA,YdCxsnz9,2020-0188,2021-11-12,13:32:00,15:06:47,NA,incomplete,false,true,NA,3,18,E15_Q5_ansR.png,right,NA,NA,NA,right,1174.69999998808,true,NA,NA,NA,NA,NA
YdCxsnz9,NA,NA,YdCxsnz9,2020-0188,2021-11-12,13:32:00,15:06:47,NA,incomplete,false,true,NA,3,19,E15_Q4_ansR.png,right,NA,NA,NA,right,1184.19999998808,true,NA,NA,NA,NA,NA
YdCxsnz9,NA,NA,YdCxsnz9,2020-0188,2021-11-12,13:32:00,15:06:47,NA,incomplete,false,true,NA,3,20,E10_Q5_ansR.png,right,NA,NA,NA,right,2621,true,NA,NA,NA,NA,NA
YdCxsnz9,NA,NA,YdCxsnz9,2020-0188,2021-11-12,13:32:00,15:06:47,NA,incomplete,false,true,NA,3,21,E10_Q9_ansL.png,left,NA,NA,NA,left,2416,true,NA,NA,NA,NA,NA
YdCxsnz9,NA,NA,YdCxsnz9,2020-0188,2021-11-12,13:32:00,15:06:47,NA,incomplete,false,true,NA,3,22,E10_Q7_ansR.png,right,NA,NA,NA,right,3070.69999998808,true,NA,NA,NA,NA,NA
YdCxsnz9,NA,NA,YdCxsnz9,2020-0188,2021-11-12,13:32:00,15:06:47,NA,incomplete,false,true,NA,3,23,E10_Q4_ansL.png,left,NA,NA,NA,left,3072.59999996424,true,NA,NA,NA,NA,NA
YdCxsnz9,NA,NA,YdCxsnz9,2020-0188,2021-11-12,13:32:00,15:06:47,NA,incomplete,false,true,NA,3,24,E10_Q2_ansL.png,left,NA,NA,NA,left,3280.80000001192,true,NA,NA,NA,NA,NA
YdCxsnz9,NA,NA,YdCxsnz9,2020-0188,2021-11-12,13:32:00,15:06:47,NA,incomplete,false,true,NA,3,25,E10_Q6_ansR.png,right,NA,NA,NA,right,2712,true,NA,NA,NA,NA,NA
YdCxsnz9,NA,NA,YdCxsnz9,2020-0188,2021-11-12,13:32:00,15:06:47,NA,incomplete,false,true,NA,3,26,E10_Q8_ansR.png,right,NA,NA,NA,left,3049.60000002384,false,NA,NA,NA,NA,NA
YdCxsnz9,NA,NA,YdCxsnz9,2020-0188,2021-11-12,13:32:00,15:06:47,NA,incomplete,false,true,NA,3,27,E10_Q3_ansL.png,left,NA,NA,NA,right,3215.40000003576,false,NA,NA,NA,NA,NA
YdCxsnz9,NA,NA,YdCxsnz9,2020-0188,2021-11-12,13:32:00,15:06:47,NA,incomplete,false,true,NA,3,28,E10_Q1_ansL.png,left,NA,NA,NA,right,2521.70000004768,false,NA,NA,NA,NA,NA
YdCxsnz9,NA,NA,YdCxsnz9,2020-0188,2021-11-12,13:32:00,15:06:47,NA,incomplete,false,true,NA,3,29,E10_Q10_ansR.png,right,NA,NA,NA,right,2639.29999995232,true,NA,NA,NA,NA,NA
YdCxsnz9,NA,NA,YdCxsnz9,2020-0188,2021-11-12,13:32:00,15:06:47,NA,incomplete,false,NA,true,3,0,NA,left,E10_Q2_ansL.png,E10_Q3_ansL.png,within,NA,NaN,NA,right,7214,0,0,1138.5
YdCxsnz9,NA,NA,YdCxsnz9,2020-0188,2021-11-12,13:32:00,15:06:47,NA,incomplete,false,NA,true,3,1,NA,left,E15_Q1_ansL.png,E15_Q9_ansR.png,within,NA,NaN,NA,left,2185.800000011921,1,0,1336.800000011921
YdCxsnz9,NA,NA,YdCxsnz9,2020-0188,2021-11-12,13:32:00,15:06:47,NA,incomplete,false,NA,true,3,2,NA,right,E15_Q5_ansR.png,E15_Q10_ansL.png,within,NA,NaN,NA,left,2201.899999976158,0,0,1524.2000000476837
YdCxsnz9,NA,NA,YdCxsnz9,2020-0188,2021-11-12,13:32:00,15:06:47,NA,incomplete,false,NA,true,3,3,NA,right,E10_Q1_ansL.png,E10_Q6_ansR.png,within,NA,NaN,NA,left,2594.300000011921,0,0,1269.6000000238419
YdCxsnz9,NA,NA,YdCxsnz9,2020-0188,2021-11-12,13:32:00,15:06:47,NA,incomplete,false,NA,true,3,4,NA,right,E10_Q10_ansR.png,E10_Q8_ansR.png,within,NA,NaN,NA,right,5229.899999976158,1,0,933.6999999880791
YdCxsnz9,NA,NA,YdCxsnz9,2020-0188,2021-11-12,13:32:00,15:06:47,NA,incomplete,false,NA,true,3,5,NA,left,E15_Q7_ansL.png,E15_Q1_ansL.png,within,NA,NaN,NA,left,1972.800000011921,1,0,1119.199999988079
YdCxsnz9,NA,NA,YdCxsnz9,2020-0188,2021-11-12,13:32:00,15:06:47,NA,incomplete,false,NA,true,3,6,NA,right,E2_Q2_ansR.png,E2_Q9_ansL.png,within,NA,NaN,NA,right,2650.100000023842,1,0,987.6999999880791
YdCxsnz9,NA,NA,YdCxsnz9,2020-0188,2021-11-12,13:32:00,15:06:47,NA,incomplete,false,NA,true,3,7,NA,right,E15_Q6_ansR.png,E15_Q3_ansR.png,within,NA,NaN,NA,right,2428.100000023842,1,0,1268.5
YdCxsnz9,NA,NA,YdCxsnz9,2020-0188,2021-11-12,13:32:00,15:06:47,NA,incomplete,false,NA,true,3,8,NA,left,E2_Q8_ansR.png,E2_Q6_ansL.png,within,NA,NaN,NA,left,1819.8999999761581,1,0,2073.800000011921
YdCxsnz9,NA,NA,YdCxsnz9,2020-0188,2021-11-12,13:32:00,15:06:47,NA,incomplete,false,NA,true,3,9,NA,right,E2_Q3_ansR.png,E2_Q5_ansL.png,within,NA,NaN,NA,right,2615.699999988079,1,0,942.5
YdCxsnz9,NA,NA,YdCxsnz9,2020-0188,2021-11-12,13:32:00,15:06:47,NA,incomplete,false,NA,true,3,10,NA,left,E10_Q5_ansR.png,E10_Q4_ansL.png,within,NA,NaN,NA,left,3319.5,1,1,926.5
YdCxsnz9,NA,NA,YdCxsnz9,2020-0188,2021-11-12,13:32:00,15:06:47,NA,incomplete,false,NA,true,3,11,NA,left,E15_Q9_ansR.png,E10_Q5_ansR.png,between,NA,NaN,NA,left,1944.699999988079,1,2,1727.4000000357628
YdCxsnz9,NA,NA,YdCxsnz9,2020-0188,2021-11-12,13:32:00,15:06:47,NA,incomplete,false,NA,true,3,12,NA,right,E2_Q5_ansL.png,E2_Q4_ansL.png,within,NA,NaN,NA,right,1725.699999988079,1,0,1852.3999999761581
YdCxsnz9,NA,NA,YdCxsnz9,2020-0188,2021-11-12,13:32:00,15:06:47,NA,incomplete,false,NA,true,3,13,NA,left,E2_Q3_ansR.png,E15_Q7_ansL.png,between,NA,NaN,NA,left,4134.800000011921,1,2,1148.5999999642372
YdCxsnz9,NA,NA,YdCxsnz9,2020-0188,2021-11-12,13:32:00,15:06:47,NA,incomplete,false,NA,true,3,14,NA,right,E2_Q9_ansL.png,E2_Q6_ansL.png,within,NA,NaN,NA,left,2649.100000023842,0,0,1040.199999988079
YdCxsnz9,NA,NA,YdCxsnz9,2020-0188,2021-11-12,13:32:00,15:06:47,NA,incomplete,false,NA,true,3,15,NA,left,E10_Q9_ansL.png,E10_Q2_ansL.png,within,NA,NaN,NA,left,3261.400000035763,1,0,1077.800000011921
YdCxsnz9,NA,NA,YdCxsnz9,2020-0188,2021-11-12,13:32:00,15:06:47,NA,incomplete,false,NA,true,3,16,NA,right,E2_Q10_ansL.png,E2_Q1_ansL.png,within,NA,NaN,NA,right,2363.2000000476837,1,0,734.1000000238419
YdCxsnz9,NA,NA,YdCxsnz9,2020-0188,2021-11-12,13:32:00,15:06:47,NA,incomplete,false,NA,true,3,17,NA,left,E15_Q2_ansL.png,E15_Q3_ansR.png,within,NA,NaN,NA,left,2108.199999988079,1,1,1035.199999988079
YdCxsnz9,NA,NA,YdCxsnz9,2020-0188,2021-11-12,13:32:00,15:06:47,NA,incomplete,false,NA,true,3,18,NA,left,E15_Q5_ansR.png,E10_Q9_ansL.png,between,NA,NaN,NA,left,2307,1,2,1157.2000000476837
YdCxsnz9,NA,NA,YdCxsnz9,2020-0188,2021-11-12,13:32:00,15:06:47,NA,incomplete,false,NA,true,3,19,NA,right,E10_Q7_ansR.png,E15_Q4_ansR.png,between,NA,NaN,NA,right,1666.7000000476837,1,2,756.6999999880791
YdCxsnz9,NA,NA,YdCxsnz9,2020-0188,2021-11-12,13:32:00,15:06:47,NA,incomplete,false,NA,true,3,20,NA,left,E2_Q10_ansL.png,E2_Q7_ansR.png,within,NA,NaN,NA,left,2993.800000011921,1,0,1068
YdCxsnz9,NA,NA,YdCxsnz9,2020-0188,2021-11-12,13:32:00,15:06:47,NA,incomplete,false,NA,true,3,21,NA,right,E15_Q10_ansL.png,E15_Q8_ansL.png,within,NA,NaN,NA,right,2607.800000011921,1,0,964.8999999761581
YdCxsnz9,NA,NA,YdCxsnz9,2020-0188,2021-11-12,13:32:00,15:06:47,NA,incomplete,false,NA,true,3,22,NA,right,E15_Q4_ansR.png,E15_Q6_ansR.png,within,NA,NaN,NA,left,2705.699999988079,0,0,1156.699999988079
YdCxsnz9,NA,NA,YdCxsnz9,2020-0188,2021-11-12,13:32:00,15:06:47,NA,incomplete,false,NA,true,3,23,NA,right,E10_Q8_ansR.png,E10_Q4_ansL.png,within,NA,NaN,NA,left,2634.899999976158,0,0,1444.199999988079
YdCxsnz9,NA,NA,YdCxsnz9,2020-0188,2021-11-12,13:32:00,15:06:47,NA,incomplete,false,NA,true,3,24,NA,left,E10_Q7_ansR.png,E10_Q6_ansR.png,within,NA,NaN,NA,left,3880,1,0,1029.0999999642372
YdCxsnz9,NA,NA,YdCxsnz9,2020-0188,2021-11-12,13:32:00,15:06:47,NA,incomplete,false,NA,true,3,25,NA,right,E15_Q2_ansL.png,E2_Q7_ansR.png,between,NA,NaN,NA,right,3787.5,1,2,1060.699999988079
YdCxsnz9,NA,NA,YdCxsnz9,2020-0188,2021-11-12,13:32:00,15:06:47,NA,incomplete,false,NA,true,3,26,NA,left,E2_Q2_ansR.png,E15_Q8_ansL.png,between,NA,NaN,NA,left,2219.300000011921,1,2,1898.7000000476837
YdCxsnz9,NA,NA,YdCxsnz9,2020-0188,2021-11-12,13:32:00,15:06:47,NA,incomplete,false,true,NA,4,0,E13_Q8_ansL.png,left,NA,NA,NA,left,1852.60000002384,true,NA,NA,NA,NA,NA
YdCxsnz9,NA,NA,YdCxsnz9,2020-0188,2021-11-12,13:32:00,15:06:47,NA,incomplete,false,true,NA,4,1,E13_Q2_ansL.png,left,NA,NA,NA,left,2301,true,NA,NA,NA,NA,NA
YdCxsnz9,NA,NA,YdCxsnz9,2020-0188,2021-11-12,13:32:00,15:06:47,NA,incomplete,false,true,NA,4,2,E13_Q6_ansR.png,right,NA,NA,NA,right,1207.5,true,NA,NA,NA,NA,NA
YdCxsnz9,NA,NA,YdCxsnz9,2020-0188,2021-11-12,13:32:00,15:06:47,NA,incomplete,false,true,NA,4,3,E13_Q1_ansL.png,left,NA,NA,NA,left,1038.20000004768,true,NA,NA,NA,NA,NA
YdCxsnz9,NA,NA,YdCxsnz9,2020-0188,2021-11-12,13:32:00,15:06:47,NA,incomplete,false,true,NA,4,4,E13_Q7_ansL.png,left,NA,NA,NA,left,1310,true,NA,NA,NA,NA,NA
YdCxsnz9,NA,NA,YdCxsnz9,2020-0188,2021-11-12,13:32:00,15:06:47,NA,incomplete,false,true,NA,4,5,E13_Q5_ansR.png,right,NA,NA,NA,right,1333.09999996424,true,NA,NA,NA,NA,NA
YdCxsnz9,NA,NA,YdCxsnz9,2020-0188,2021-11-12,13:32:00,15:06:47,NA,incomplete,false,true,NA,4,6,E13_Q10_ansL.png,left,NA,NA,NA,left,1445,true,NA,NA,NA,NA,NA
YdCxsnz9,NA,NA,YdCxsnz9,2020-0188,2021-11-12,13:32:00,15:06:47,NA,incomplete,false,true,NA,4,7,E13_Q4_ansR.png,right,NA,NA,NA,right,1799.89999997616,true,NA,NA,NA,NA,NA
YdCxsnz9,NA,NA,YdCxsnz9,2020-0188,2021-11-12,13:32:00,15:06:47,NA,incomplete,false,true,NA,4,8,E13_Q9_ansR.png,right,NA,NA,NA,right,1094,true,NA,NA,NA,NA,NA
YdCxsnz9,NA,NA,YdCxsnz9,2020-0188,2021-11-12,13:32:00,15:06:47,NA,incomplete,false,true,NA,4,9,E13_Q3_ansR.png,right,NA,NA,NA,right,1262.39999997616,true,NA,NA,NA,NA,NA
YdCxsnz9,NA,NA,YdCxsnz9,2020-0188,2021-11-12,13:32:00,15:06:47,NA,incomplete,false,true,NA,4,10,E30_Q6_ansR.png,right,NA,NA,NA,right,2282.5,true,NA,NA,NA,NA,NA
YdCxsnz9,NA,NA,YdCxsnz9,2020-0188,2021-11-12,13:32:00,15:06:47,NA,incomplete,false,true,NA,4,11,E30_Q9_ansL.png,left,NA,NA,NA,left,1999.30000001192,true,NA,NA,NA,NA,NA
YdCxsnz9,NA,NA,YdCxsnz9,2020-0188,2021-11-12,13:32:00,15:06:47,NA,incomplete,false,true,NA,4,12,E30_Q5_ansR.png,right,NA,NA,NA,right,1794.60000002384,true,NA,NA,NA,NA,NA
YdCxsnz9,NA,NA,YdCxsnz9,2020-0188,2021-11-12,13:32:00,15:06:47,NA,incomplete,false,true,NA,4,13,E30_Q8_ansL.png,left,NA,NA,NA,right,3473.69999998808,false,NA,NA,NA,NA,NA
YdCxsnz9,NA,NA,YdCxsnz9,2020-0188,2021-11-12,13:32:00,15:06:47,NA,incomplete,false,true,NA,4,14,E30_Q3_ansL.png,left,NA,NA,NA,left,1936.5,true,NA,NA,NA,NA,NA
YdCxsnz9,NA,NA,YdCxsnz9,2020-0188,2021-11-12,13:32:00,15:06:47,NA,incomplete,false,true,NA,4,15,E30_Q7_ansL.png,left,NA,NA,NA,right,1682.5,false,NA,NA,NA,NA,NA
YdCxsnz9,NA,NA,YdCxsnz9,2020-0188,2021-11-12,13:32:00,15:06:47,NA,incomplete,false,true,NA,4,16,E30_Q1_ansL.png,left,NA,NA,NA,left,1909.89999997616,true,NA,NA,NA,NA,NA
YdCxsnz9,NA,NA,YdCxsnz9,2020-0188,2021-11-12,13:32:00,15:06:47,NA,incomplete,false,true,NA,4,17,E30_Q10_ansR.png,right,NA,NA,NA,right,1665.80000001192,true,NA,NA,NA,NA,NA
YdCxsnz9,NA,NA,YdCxsnz9,2020-0188,2021-11-12,13:32:00,15:06:47,NA,incomplete,false,true,NA,4,18,E30_Q4_ansL.png,left,NA,NA,NA,left,2687.60000002384,true,NA,NA,NA,NA,NA
YdCxsnz9,NA,NA,YdCxsnz9,2020-0188,2021-11-12,13:32:00,15:06:47,NA,incomplete,false,true,NA,4,19,E30_Q2_ansL.png,left,NA,NA,NA,right,2691.80000001192,false,NA,NA,NA,NA,NA
YdCxsnz9,NA,NA,YdCxsnz9,2020-0188,2021-11-12,13:32:00,15:06:47,NA,incomplete,false,true,NA,4,20,E1_Q4_ansL.png,left,NA,NA,NA,left,2268.10000002384,true,NA,NA,NA,NA,NA
YdCxsnz9,NA,NA,YdCxsnz9,2020-0188,2021-11-12,13:32:00,15:06:47,NA,incomplete,false,true,NA,4,21,E1_Q8_ansR.png,right,NA,NA,NA,right,1255.60000002384,true,NA,NA,NA,NA,NA
YdCxsnz9,NA,NA,YdCxsnz9,2020-0188,2021-11-12,13:32:00,15:06:47,NA,incomplete,false,true,NA,4,22,E1_Q9_ansL.png,left,NA,NA,NA,left,1291.40000003576,true,NA,NA,NA,NA,NA
YdCxsnz9,NA,NA,YdCxsnz9,2020-0188,2021-11-12,13:32:00,15:06:47,NA,incomplete,false,true,NA,4,23,E1_Q7_ansL.png,left,NA,NA,NA,left,1077.09999996424,true,NA,NA,NA,NA,NA
YdCxsnz9,NA,NA,YdCxsnz9,2020-0188,2021-11-12,13:32:00,15:06:47,NA,incomplete,false,true,NA,4,24,E1_Q2_ansL.png,left,NA,NA,NA,left,2134.69999998808,true,NA,NA,NA,NA,NA
YdCxsnz9,NA,NA,YdCxsnz9,2020-0188,2021-11-12,13:32:00,15:06:47,NA,incomplete,false,true,NA,4,25,E1_Q10_ansR.png,right,NA,NA,NA,right,1837.80000001192,true,NA,NA,NA,NA,NA
YdCxsnz9,NA,NA,YdCxsnz9,2020-0188,2021-11-12,13:32:00,15:06:47,NA,incomplete,false,true,NA,4,26,E1_Q3_ansR.png,right,NA,NA,NA,right,2077.20000004768,true,NA,NA,NA,NA,NA
YdCxsnz9,NA,NA,YdCxsnz9,2020-0188,2021-11-12,13:32:00,15:06:47,NA,incomplete,false,true,NA,4,27,E1_Q6_ansR.png,right,NA,NA,NA,right,1645.40000003576,true,NA,NA,NA,NA,NA
YdCxsnz9,NA,NA,YdCxsnz9,2020-0188,2021-11-12,13:32:00,15:06:47,NA,incomplete,false,true,NA,4,28,E1_Q5_ansR.png,right,NA,NA,NA,right,1580.5,true,NA,NA,NA,NA,NA
YdCxsnz9,NA,NA,YdCxsnz9,2020-0188,2021-11-12,13:32:00,15:06:47,NA,incomplete,false,true,NA,4,29,E1_Q1_ansL.png,left,NA,NA,NA,left,2300.80000001192,true,NA,NA,NA,NA,NA
YdCxsnz9,NA,NA,YdCxsnz9,2020-0188,2021-11-12,13:32:00,15:06:47,NA,incomplete,false,NA,true,4,0,NA,left,E13_Q7_ansL.png,E13_Q4_ansR.png,within,NA,NaN,NA,left,3247.5,1,0,2058.900000035763
YdCxsnz9,NA,NA,YdCxsnz9,2020-0188,2021-11-12,13:32:00,15:06:47,NA,incomplete,false,NA,true,4,1,NA,right,E30_Q6_ansR.png,E13_Q4_ansR.png,between,NA,NaN,NA,right,2267.699999988079,1,2,1189.300000011921
YdCxsnz9,NA,NA,YdCxsnz9,2020-0188,2021-11-12,13:32:00,15:06:47,NA,incomplete,false,NA,true,4,2,NA,right,E13_Q10_ansL.png,E13_Q1_ansL.png,within,NA,NaN,NA,right,4137.599999964237,1,0,1032.699999988079
YdCxsnz9,NA,NA,YdCxsnz9,2020-0188,2021-11-12,13:32:00,15:06:47,NA,incomplete,false,NA,true,4,3,NA,right,E1_Q1_ansL.png,E1_Q3_ansR.png,within,NA,NaN,NA,right,4894.900000035763,1,0,1114.3999999761581
YdCxsnz9,NA,NA,YdCxsnz9,2020-0188,2021-11-12,13:32:00,15:06:47,NA,incomplete,false,NA,true,4,4,NA,left,E30_Q8_ansL.png,E30_Q1_ansL.png,within,NA,NaN,NA,left,3740.5,1,0,3298.900000035763
YdCxsnz9,NA,NA,YdCxsnz9,2020-0188,2021-11-12,13:32:00,15:06:47,NA,incomplete,false,NA,true,4,5,NA,right,E1_Q7_ansL.png,E1_Q4_ansL.png,within,NA,NaN,NA,right,4311.300000011921,1,0,2507.699999988079
YdCxsnz9,NA,NA,YdCxsnz9,2020-0188,2021-11-12,13:32:00,15:06:47,NA,incomplete,false,NA,true,4,6,NA,right,E1_Q4_ansL.png,E30_Q10_ansR.png,between,NA,NaN,NA,right,3034.5,1,2,1436.9000000357628
YdCxsnz9,NA,NA,YdCxsnz9,2020-0188,2021-11-12,13:32:00,15:06:47,NA,incomplete,false,NA,true,4,7,NA,left,E13_Q2_ansL.png,E13_Q7_ansL.png,within,NA,NaN,NA,left,2244.199999988079,1,1,1084.199999988079
YdCxsnz9,NA,NA,YdCxsnz9,2020-0188,2021-11-12,13:32:00,15:06:47,NA,incomplete,false,NA,true,4,8,NA,right,E13_Q3_ansR.png,E13_Q10_ansL.png,within,NA,NaN,NA,right,3975.100000023842,1,0,1403.800000011921
YdCxsnz9,NA,NA,YdCxsnz9,2020-0188,2021-11-12,13:32:00,15:06:47,NA,incomplete,false,NA,true,4,9,NA,left,E30_Q6_ansR.png,E30_Q8_ansL.png,within,NA,NaN,NA,left,2770.600000023842,1,0,1822.4000000357628
YdCxsnz9,NA,NA,YdCxsnz9,2020-0188,2021-11-12,13:32:00,15:06:47,NA,incomplete,false,NA,true,4,10,NA,left,E30_Q9_ansL.png,E30_Q3_ansL.png,within,NA,NaN,NA,left,4041.2000000476837,1,0,1194.300000011921
YdCxsnz9,NA,NA,YdCxsnz9,2020-0188,2021-11-12,13:32:00,15:06:47,NA,incomplete,false,NA,true,4,11,NA,left,E30_Q3_ansL.png,E30_Q10_ansR.png,within,NA,NaN,NA,left,2826.900000035763,1,0,1372.9000000357628
YdCxsnz9,NA,NA,YdCxsnz9,2020-0188,2021-11-12,13:32:00,15:06:47,NA,incomplete,false,NA,true,4,12,NA,left,E13_Q5_ansR.png,E13_Q9_ansR.png,within,NA,NaN,NA,right,3916.199999988079,0,0,8583.399999976158
YdCxsnz9,NA,NA,YdCxsnz9,2020-0188,2021-11-12,13:32:00,15:06:47,NA,incomplete,false,NA,true,4,13,NA,left,E1_Q10_ansR.png,E1_Q5_ansR.png,within,NA,NaN,NA,left,13487.099999964237,1,0,924.1000000238419
YdCxsnz9,NA,NA,YdCxsnz9,2020-0188,2021-11-12,13:32:00,15:06:47,NA,incomplete,false,NA,true,4,14,NA,left,E30_Q2_ansL.png,E1_Q9_ansL.png,between,NA,NaN,NA,left,4255.699999988079,1,2,1052.699999988079
YdCxsnz9,NA,NA,YdCxsnz9,2020-0188,2021-11-12,13:32:00,15:06:47,NA,incomplete,false,NA,true,4,15,NA,right,E30_Q9_ansL.png,E13_Q9_ansR.png,between,NA,NaN,NA,right,2984.599999964237,1,2,1167.6000000238419
YdCxsnz9,NA,NA,YdCxsnz9,2020-0188,2021-11-12,13:32:00,15:06:47,NA,incomplete,false,NA,true,4,16,NA,right,E13_Q5_ansR.png,E13_Q6_ansR.png,within,NA,NaN,NA,right,3305,1,1,2314.400000035763
YdCxsnz9,NA,NA,YdCxsnz9,2020-0188,2021-11-12,13:32:00,15:06:47,NA,incomplete,false,NA,true,4,17,NA,left,E1_Q2_ansL.png,E1_Q6_ansR.png,within,NA,NaN,NA,right,15892.100000023842,0,0,1356.8999999761581
YdCxsnz9,NA,NA,YdCxsnz9,2020-0188,2021-11-12,13:32:00,15:06:47,NA,incomplete,false,NA,true,4,18,NA,left,E1_Q7_ansL.png,E1_Q3_ansR.png,within,NA,NaN,NA,left,7953.600000023842,1,0,981.3999999761581
YdCxsnz9,NA,NA,YdCxsnz9,2020-0188,2021-11-12,13:32:00,15:06:47,NA,incomplete,false,NA,true,4,19,NA,right,E1_Q8_ansR.png,E30_Q4_ansL.png,between,NA,NaN,NA,right,2187.400000035763,1,2,1141.800000011921
YdCxsnz9,NA,NA,YdCxsnz9,2020-0188,2021-11-12,13:32:00,15:06:47,NA,incomplete,false,NA,true,4,20,NA,left,E30_Q7_ansL.png,E30_Q4_ansL.png,within,NA,NaN,NA,left,4312.200000047684,1,0,861.8999999761581
YdCxsnz9,NA,NA,YdCxsnz9,2020-0188,2021-11-12,13:32:00,15:06:47,NA,incomplete,false,NA,true,4,21,NA,left,E1_Q9_ansL.png,E1_Q10_ansR.png,within,NA,NaN,NA,left,3456.5,1,0,1397.5
YdCxsnz9,NA,NA,YdCxsnz9,2020-0188,2021-11-12,13:32:00,15:06:47,NA,incomplete,false,NA,true,4,22,NA,right,E30_Q7_ansL.png,E30_Q5_ansR.png,within,NA,NaN,NA,right,3129.300000011921,1,0,1662.2000000476837
YdCxsnz9,NA,NA,YdCxsnz9,2020-0188,2021-11-12,13:32:00,15:06:47,NA,incomplete,false,NA,true,4,23,NA,right,E1_Q2_ansL.png,E1_Q8_ansR.png,within,NA,NaN,NA,right,5014,1,0,890.6999999880791
YdCxsnz9,NA,NA,YdCxsnz9,2020-0188,2021-11-12,13:32:00,15:06:47,NA,incomplete,false,NA,true,4,24,NA,left,E13_Q3_ansR.png,E30_Q5_ansR.png,between,NA,NaN,NA,left,2093.300000011921,1,2,1156.9000000357628
YdCxsnz9,NA,NA,YdCxsnz9,2020-0188,2021-11-12,13:32:00,15:06:47,NA,incomplete,false,NA,true,4,25,NA,left,E30_Q1_ansL.png,E30_Q2_ansL.png,within,NA,NaN,NA,right,4455.799999952316,0,0,909.7999999523163
YdCxsnz9,NA,NA,YdCxsnz9,2020-0188,2021-11-12,13:32:00,15:06:47,NA,incomplete,false,NA,true,4,26,NA,left,E13_Q8_ansL.png,E13_Q1_ansL.png,within,NA,NaN,NA,left,1956,1,1,1302.7999999523163
YdCxsnz9,NA,NA,YdCxsnz9,2020-0188,2021-11-12,13:32:00,15:06:47,NA,incomplete,false,true,NA,5,0,E12_Q3_ansR.png,right,NA,NA,NA,right,2026.19999998808,true,NA,NA,NA,NA,NA
YdCxsnz9,NA,NA,YdCxsnz9,2020-0188,2021-11-12,13:32:00,15:06:47,NA,incomplete,false,true,NA,5,1,E12_Q8_ansL.png,left,NA,NA,NA,right,2494.60000002384,false,NA,NA,NA,NA,NA
YdCxsnz9,NA,NA,YdCxsnz9,2020-0188,2021-11-12,13:32:00,15:06:47,NA,incomplete,false,true,NA,5,2,E12_Q6_ansR.png,right,NA,NA,NA,left,1771.90000003576,false,NA,NA,NA,NA,NA
YdCxsnz9,NA,NA,YdCxsnz9,2020-0188,2021-11-12,13:32:00,15:06:47,NA,incomplete,false,true,NA,5,3,E12_Q10_ansL.png,left,NA,NA,NA,left,1488.09999996424,true,NA,NA,NA,NA,NA
YdCxsnz9,NA,NA,YdCxsnz9,2020-0188,2021-11-12,13:32:00,15:06:47,NA,incomplete,false,true,NA,5,4,E12_Q2_ansL.png,left,NA,NA,NA,left,1829.39999997616,true,NA,NA,NA,NA,NA
YdCxsnz9,NA,NA,YdCxsnz9,2020-0188,2021-11-12,13:32:00,15:06:47,NA,incomplete,false,true,NA,5,5,E12_Q5_ansR.png,right,NA,NA,NA,right,2314,true,NA,NA,NA,NA,NA
YdCxsnz9,NA,NA,YdCxsnz9,2020-0188,2021-11-12,13:32:00,15:06:47,NA,incomplete,false,true,NA,5,6,E12_Q7_ansL.png,left,NA,NA,NA,left,1344.39999997616,true,NA,NA,NA,NA,NA
YdCxsnz9,NA,NA,YdCxsnz9,2020-0188,2021-11-12,13:32:00,15:06:47,NA,incomplete,false,true,NA,5,7,E12_Q4_ansR.png,right,NA,NA,NA,right,1913.19999998808,true,NA,NA,NA,NA,NA
YdCxsnz9,NA,NA,YdCxsnz9,2020-0188,2021-11-12,13:32:00,15:06:47,NA,incomplete,false,true,NA,5,8,E12_Q9_ansR.png,right,NA,NA,NA,right,1875.80000001192,true,NA,NA,NA,NA,NA
YdCxsnz9,NA,NA,YdCxsnz9,2020-0188,2021-11-12,13:32:00,15:06:47,NA,incomplete,false,true,NA,5,9,E12_Q1_ansL.png,left,NA,NA,NA,left,1795.39999997616,true,NA,NA,NA,NA,NA
YdCxsnz9,NA,NA,YdCxsnz9,2020-0188,2021-11-12,13:32:00,15:06:47,NA,incomplete,false,true,NA,5,10,E7_Q6_ansR.png,right,NA,NA,NA,right,1784.89999997616,true,NA,NA,NA,NA,NA
YdCxsnz9,NA,NA,YdCxsnz9,2020-0188,2021-11-12,13:32:00,15:06:47,NA,incomplete,false,true,NA,5,11,E7_Q5_ansR.png,right,NA,NA,NA,right,1425,true,NA,NA,NA,NA,NA
YdCxsnz9,NA,NA,YdCxsnz9,2020-0188,2021-11-12,13:32:00,15:06:47,NA,incomplete,false,true,NA,5,12,E7_Q8_ansL.png,left,NA,NA,NA,left,1420.69999998808,true,NA,NA,NA,NA,NA
YdCxsnz9,NA,NA,YdCxsnz9,2020-0188,2021-11-12,13:32:00,15:06:47,NA,incomplete,false,true,NA,5,13,E7_Q2_ansL.png,left,NA,NA,NA,left,1126.69999998808,true,NA,NA,NA,NA,NA
YdCxsnz9,NA,NA,YdCxsnz9,2020-0188,2021-11-12,13:32:00,15:06:47,NA,incomplete,false,true,NA,5,14,E7_Q3_ansR.png,right,NA,NA,NA,right,1279.89999997616,true,NA,NA,NA,NA,NA
YdCxsnz9,NA,NA,YdCxsnz9,2020-0188,2021-11-12,13:32:00,15:06:47,NA,incomplete,false,true,NA,5,15,E7_Q1_ansL.png,left,NA,NA,NA,left,1112.10000002384,true,NA,NA,NA,NA,NA
YdCxsnz9,NA,NA,YdCxsnz9,2020-0188,2021-11-12,13:32:00,15:06:47,NA,incomplete,false,true,NA,5,16,E7_Q9_ansR.png,right,NA,NA,NA,right,1394.80000001192,true,NA,NA,NA,NA,NA
YdCxsnz9,NA,NA,YdCxsnz9,2020-0188,2021-11-12,13:32:00,15:06:47,NA,incomplete,false,true,NA,5,17,E7_Q10_ansR.png,right,NA,NA,NA,right,1388.30000001192,true,NA,NA,NA,NA,NA
YdCxsnz9,NA,NA,YdCxsnz9,2020-0188,2021-11-12,13:32:00,15:06:47,NA,incomplete,false,true,NA,5,18,E7_Q7_ansL.png,left,NA,NA,NA,left,1646,true,NA,NA,NA,NA,NA
YdCxsnz9,NA,NA,YdCxsnz9,2020-0188,2021-11-12,13:32:00,15:06:47,NA,incomplete,false,true,NA,5,19,E7_Q4_ansR.png,right,NA,NA,NA,right,1177.70000004768,true,NA,NA,NA,NA,NA
YdCxsnz9,NA,NA,YdCxsnz9,2020-0188,2021-11-12,13:32:00,15:06:47,NA,incomplete,false,true,NA,5,20,E31_Q9_ansL.png,left,NA,NA,NA,left,2064.5,true,NA,NA,NA,NA,NA
YdCxsnz9,NA,NA,YdCxsnz9,2020-0188,2021-11-12,13:32:00,15:06:47,NA,incomplete,false,true,NA,5,21,E31_Q5_ansL.png,left,NA,NA,NA,left,1532.80000001192,true,NA,NA,NA,NA,NA
YdCxsnz9,NA,NA,YdCxsnz9,2020-0188,2021-11-12,13:32:00,15:06:47,NA,incomplete,false,true,NA,5,22,E31_Q8_ansR.png,right,NA,NA,NA,right,1673.69999998808,true,NA,NA,NA,NA,NA
YdCxsnz9,NA,NA,YdCxsnz9,2020-0188,2021-11-12,13:32:00,15:06:47,NA,incomplete,false,true,NA,5,23,E31_Q7_ansR.png,right,NA,NA,NA,right,1050,true,NA,NA,NA,NA,NA
YdCxsnz9,NA,NA,YdCxsnz9,2020-0188,2021-11-12,13:32:00,15:06:47,NA,incomplete,false,true,NA,5,24,E31_Q6_ansL.png,left,NA,NA,NA,left,1185.10000002384,true,NA,NA,NA,NA,NA
YdCxsnz9,NA,NA,YdCxsnz9,2020-0188,2021-11-12,13:32:00,15:06:47,NA,incomplete,false,true,NA,5,25,E31_Q10_ansR.png,right,NA,NA,NA,right,1174.69999998808,true,NA,NA,NA,NA,NA
YdCxsnz9,NA,NA,YdCxsnz9,2020-0188,2021-11-12,13:32:00,15:06:47,NA,incomplete,false,true,NA,5,26,E31_Q3_ansL.png,left,NA,NA,NA,left,1287.40000003576,true,NA,NA,NA,NA,NA
YdCxsnz9,NA,NA,YdCxsnz9,2020-0188,2021-11-12,13:32:00,15:06:47,NA,incomplete,false,true,NA,5,27,E31_Q4_ansL.png,left,NA,NA,NA,left,1113.90000003576,true,NA,NA,NA,NA,NA
YdCxsnz9,NA,NA,YdCxsnz9,2020-0188,2021-11-12,13:32:00,15:06:47,NA,incomplete,false,true,NA,5,28,E31_Q1_ansR.png,right,NA,NA,NA,right,1305.60000002384,true,NA,NA,NA,NA,NA
YdCxsnz9,NA,NA,YdCxsnz9,2020-0188,2021-11-12,13:32:00,15:06:47,NA,incomplete,false,true,NA,5,29,E31_Q2_ansR.png,right,NA,NA,NA,right,1588.5,true,NA,NA,NA,NA,NA
YdCxsnz9,NA,NA,YdCxsnz9,2020-0188,2021-11-12,13:32:00,15:06:47,NA,incomplete,false,NA,true,5,0,NA,left,E12_Q8_ansL.png,E12_Q2_ansL.png,within,NA,NaN,NA,left,2908.600000023842,1,0,1114.3999999761581
YdCxsnz9,NA,NA,YdCxsnz9,2020-0188,2021-11-12,13:32:00,15:06:47,NA,incomplete,false,NA,true,5,1,NA,right,E7_Q8_ansL.png,E12_Q1_ansL.png,between,NA,NaN,NA,right,1709.6000000238419,1,3,1072.9000000357628
YdCxsnz9,NA,NA,YdCxsnz9,2020-0188,2021-11-12,13:32:00,15:06:47,NA,incomplete,false,NA,true,5,2,NA,right,E7_Q3_ansR.png,E7_Q5_ansR.png,within,NA,NaN,NA,right,2191.699999988079,1,0,1056.6000000238419
YdCxsnz9,NA,NA,YdCxsnz9,2020-0188,2021-11-12,13:32:00,15:06:47,NA,incomplete,false,NA,true,5,3,NA,left,E7_Q7_ansL.png,E31_Q5_ansL.png,between,NA,NaN,NA,left,7335.5,1,3,855.1999999880791
YdCxsnz9,NA,NA,YdCxsnz9,2020-0188,2021-11-12,13:32:00,15:06:47,NA,incomplete,false,NA,true,5,4,NA,right,E12_Q5_ansR.png,E12_Q6_ansR.png,within,NA,NaN,NA,right,4904.5,1,0,1054.300000011921
YdCxsnz9,NA,NA,YdCxsnz9,2020-0188,2021-11-12,13:32:00,15:06:47,NA,incomplete,false,NA,true,5,5,NA,left,E12_Q3_ansR.png,E12_Q10_ansL.png,within,NA,NaN,NA,right,3172.399999976158,0,0,942.6000000238419
YdCxsnz9,NA,NA,YdCxsnz9,2020-0188,2021-11-12,13:32:00,15:06:47,NA,incomplete,false,NA,true,5,6,NA,left,E12_Q4_ansR.png,E7_Q6_ansR.png,between,NA,NaN,NA,left,2876.599999964237,1,2,1449
YdCxsnz9,NA,NA,YdCxsnz9,2020-0188,2021-11-12,13:32:00,15:06:47,NA,incomplete,false,NA,true,5,7,NA,left,E12_Q5_ansR.png,E12_Q9_ansR.png,within,NA,NaN,NA,right,5378.100000023842,0,0,1109.8999999761581
YdCxsnz9,NA,NA,YdCxsnz9,2020-0188,2021-11-12,13:32:00,15:06:47,NA,incomplete,false,NA,true,5,8,NA,right,E7_Q10_ansR.png,E7_Q3_ansR.png,within,NA,NaN,NA,right,3561.600000023842,1,0,1309.800000011921
YdCxsnz9,NA,NA,YdCxsnz9,2020-0188,2021-11-12,13:32:00,15:06:47,NA,incomplete,false,NA,true,5,9,NA,left,E7_Q8_ansL.png,E7_Q1_ansL.png,within,NA,NaN,NA,left,2670.099999964237,1,0,1448.8999999761581
YdCxsnz9,NA,NA,YdCxsnz9,2020-0188,2021-11-12,13:32:00,15:06:47,NA,incomplete,false,NA,true,5,10,NA,right,E31_Q2_ansR.png,E31_Q3_ansL.png,within,NA,NaN,NA,right,3890.199999988079,1,0,1836.6000000238419
YdCxsnz9,NA,NA,YdCxsnz9,2020-0188,2021-11-12,13:32:00,15:06:47,NA,incomplete,false,NA,true,5,11,NA,right,E31_Q9_ansL.png,E7_Q10_ansR.png,between,NA,NaN,NA,right,3489.199999988079,1,2,1092.6000000238419
YdCxsnz9,NA,NA,YdCxsnz9,2020-0188,2021-11-12,13:32:00,15:06:47,NA,incomplete,false,NA,true,5,12,NA,right,E7_Q5_ansR.png,E12_Q9_ansR.png,between,NA,NaN,NA,right,2317.600000023842,1,2,933.1000000238419
YdCxsnz9,NA,NA,YdCxsnz9,2020-0188,2021-11-12,13:32:00,15:06:47,NA,incomplete,false,NA,true,5,13,NA,left,E31_Q10_ansR.png,E31_Q1_ansR.png,within,NA,NaN,NA,left,6053.399999976158,1,0,1229.800000011921
YdCxsnz9,NA,NA,YdCxsnz9,2020-0188,2021-11-12,13:32:00,15:06:47,NA,incomplete,false,NA,true,5,14,NA,right,E31_Q3_ansL.png,E31_Q7_ansR.png,within,NA,NaN,NA,left,4389.599999964237,0,0,1277.300000011921
YdCxsnz9,NA,NA,YdCxsnz9,2020-0188,2021-11-12,13:32:00,15:06:47,NA,incomplete,false,NA,true,5,15,NA,right,E31_Q7_ansR.png,E31_Q9_ansL.png,within,NA,NaN,NA,right,1476.199999988079,1,0,1364.800000011921
YdCxsnz9,NA,NA,YdCxsnz9,2020-0188,2021-11-12,13:32:00,15:06:47,NA,incomplete,false,NA,true,5,16,NA,right,E12_Q4_ansR.png,E12_Q2_ansL.png,within,NA,NaN,NA,right,2898.400000035763,1,0,1206
YdCxsnz9,NA,NA,YdCxsnz9,2020-0188,2021-11-12,13:32:00,15:06:47,NA,incomplete,false,NA,true,5,17,NA,left,E7_Q6_ansR.png,E7_Q2_ansL.png,within,NA,NaN,NA,left,2666.900000035763,1,0,2043
YdCxsnz9,NA,NA,YdCxsnz9,2020-0188,2021-11-12,13:32:00,15:06:47,NA,incomplete,false,NA,true,5,18,NA,right,E12_Q7_ansL.png,E12_Q10_ansL.png,within,NA,NaN,NA,left,3817,0,0,1086.699999988079
YdCxsnz9,NA,NA,YdCxsnz9,2020-0188,2021-11-12,13:32:00,15:06:47,NA,incomplete,false,NA,true,5,19,NA,left,E31_Q5_ansL.png,E31_Q6_ansL.png,within,NA,NaN,NA,left,9846,1,0,1019.5999999642372
YdCxsnz9,NA,NA,YdCxsnz9,2020-0188,2021-11-12,13:32:00,15:06:47,NA,incomplete,false,NA,true,5,20,NA,left,E31_Q8_ansR.png,E31_Q10_ansR.png,within,NA,NaN,NA,left,3306.100000023842,1,0,2617.899999976158
YdCxsnz9,NA,NA,YdCxsnz9,2020-0188,2021-11-12,13:32:00,15:06:47,NA,incomplete,false,NA,true,5,21,NA,right,E12_Q1_ansL.png,E12_Q7_ansL.png,within,NA,NaN,NA,right,11451.800000011921,1,0,1564.300000011921
YdCxsnz9,NA,NA,YdCxsnz9,2020-0188,2021-11-12,13:32:00,15:06:47,NA,incomplete,false,NA,true,5,22,NA,left,E31_Q6_ansL.png,E31_Q4_ansL.png,within,NA,NaN,NA,right,4519.399999976158,0,0,1149.8999999761581
YdCxsnz9,NA,NA,YdCxsnz9,2020-0188,2021-11-12,13:32:00,15:06:47,NA,incomplete,false,NA,true,5,23,NA,left,E7_Q2_ansL.png,E7_Q9_ansR.png,within,NA,NaN,NA,left,3098.199999988079,1,0,1362.5
YdCxsnz9,NA,NA,YdCxsnz9,2020-0188,2021-11-12,13:32:00,15:06:47,NA,incomplete,false,NA,true,5,24,NA,right,E7_Q4_ansR.png,E7_Q9_ansR.png,within,NA,NaN,NA,left,3057.600000023842,0,0,1033.5
YdCxsnz9,NA,NA,YdCxsnz9,2020-0188,2021-11-12,13:32:00,15:06:47,NA,incomplete,false,NA,true,5,25,NA,right,E31_Q8_ansR.png,E7_Q4_ansR.png,between,NA,NaN,NA,right,1492,1,2,767.1000000238419
YdCxsnz9,NA,NA,YdCxsnz9,2020-0188,2021-11-12,13:32:00,15:06:47,NA,incomplete,false,NA,true,5,26,NA,right,E7_Q7_ansL.png,E7_Q1_ansL.png,within,NA,NaN,NA,left,5541.600000023842,0,0,989.6999999880791
YdCxsnz9,NA,NA,YdCxsnz9,2020-0188,2021-11-12,13:32:00,15:06:47,NA,incomplete,false,true,NA,6,0,E22_Q3_ansL.png,left,NA,NA,NA,left,1875.19999998808,true,NA,NA,NA,NA,NA
YdCxsnz9,NA,NA,YdCxsnz9,2020-0188,2021-11-12,13:32:00,15:06:47,NA,incomplete,false,true,NA,6,1,E22_Q2_ansR.png,right,NA,NA,NA,right,1333,true,NA,NA,NA,NA,NA
YdCxsnz9,NA,NA,YdCxsnz9,2020-0188,2021-11-12,13:32:00,15:06:47,NA,incomplete,false,true,NA,6,2,E22_Q6_ansL.png,left,NA,NA,NA,left,1203,true,NA,NA,NA,NA,NA
YdCxsnz9,NA,NA,YdCxsnz9,2020-0188,2021-11-12,13:32:00,15:06:47,NA,incomplete,false,true,NA,6,3,E22_Q8_ansR.png,right,NA,NA,NA,right,2053.29999995232,true,NA,NA,NA,NA,NA
YdCxsnz9,NA,NA,YdCxsnz9,2020-0188,2021-11-12,13:32:00,15:06:47,NA,incomplete,false,true,NA,6,4,E22_Q9_ansL.png,left,NA,NA,NA,left,1319.80000001192,true,NA,NA,NA,NA,NA
YdCxsnz9,NA,NA,YdCxsnz9,2020-0188,2021-11-12,13:32:00,15:06:47,NA,incomplete,false,true,NA,6,5,E22_Q10_ansR.png,right,NA,NA,NA,right,1030.09999996424,true,NA,NA,NA,NA,NA
YdCxsnz9,NA,NA,YdCxsnz9,2020-0188,2021-11-12,13:32:00,15:06:47,NA,incomplete,false,true,NA,6,6,E22_Q7_ansR.png,right,NA,NA,NA,right,1283.19999998808,true,NA,NA,NA,NA,NA
YdCxsnz9,NA,NA,YdCxsnz9,2020-0188,2021-11-12,13:32:00,15:06:47,NA,incomplete,false,true,NA,6,7,E22_Q5_ansL.png,left,NA,NA,NA,left,1439.10000002384,true,NA,NA,NA,NA,NA
YdCxsnz9,NA,NA,YdCxsnz9,2020-0188,2021-11-12,13:32:00,15:06:47,NA,incomplete,false,true,NA,6,8,E22_Q1_ansR.png,right,NA,NA,NA,right,995,true,NA,NA,NA,NA,NA
YdCxsnz9,NA,NA,YdCxsnz9,2020-0188,2021-11-12,13:32:00,15:06:47,NA,incomplete,false,true,NA,6,9,E22_Q4_ansL.png,left,NA,NA,NA,left,904.099999964237,true,NA,NA,NA,NA,NA
YdCxsnz9,NA,NA,YdCxsnz9,2020-0188,2021-11-12,13:32:00,15:06:47,NA,incomplete,false,true,NA,6,10,E17_Q1_ansL.png,left,NA,NA,NA,left,1766.69999998808,true,NA,NA,NA,NA,NA
YdCxsnz9,NA,NA,YdCxsnz9,2020-0188,2021-11-12,13:32:00,15:06:47,NA,incomplete,false,true,NA,6,11,E17_Q2_ansL.png,left,NA,NA,NA,left,1054.80000001192,true,NA,NA,NA,NA,NA
YdCxsnz9,NA,NA,YdCxsnz9,2020-0188,2021-11-12,13:32:00,15:06:47,NA,incomplete,false,true,NA,6,12,E17_Q4_ansR.png,right,NA,NA,NA,right,1304.5,true,NA,NA,NA,NA,NA
YdCxsnz9,NA,NA,YdCxsnz9,2020-0188,2021-11-12,13:32:00,15:06:47,NA,incomplete,false,true,NA,6,13,E17_Q9_ansR.png,right,NA,NA,NA,right,1470.09999996424,true,NA,NA,NA,NA,NA
YdCxsnz9,NA,NA,YdCxsnz9,2020-0188,2021-11-12,13:32:00,15:06:47,NA,incomplete,false,true,NA,6,14,E17_Q3_ansR.png,right,NA,NA,NA,right,1632.30000001192,true,NA,NA,NA,NA,NA
YdCxsnz9,NA,NA,YdCxsnz9,2020-0188,2021-11-12,13:32:00,15:06:47,NA,incomplete,false,true,NA,6,15,E17_Q5_ansR.png,right,NA,NA,NA,right,1526.59999996424,true,NA,NA,NA,NA,NA
YdCxsnz9,NA,NA,YdCxsnz9,2020-0188,2021-11-12,13:32:00,15:06:47,NA,incomplete,false,true,NA,6,16,E17_Q6_ansR.png,right,NA,NA,NA,right,1809.80000001192,true,NA,NA,NA,NA,NA
YdCxsnz9,NA,NA,YdCxsnz9,2020-0188,2021-11-12,13:32:00,15:06:47,NA,incomplete,false,true,NA,6,17,E17_Q7_ansL.png,left,NA,NA,NA,left,1526.09999996424,true,NA,NA,NA,NA,NA
YdCxsnz9,NA,NA,YdCxsnz9,2020-0188,2021-11-12,13:32:00,15:06:47,NA,incomplete,false,true,NA,6,18,E17_Q10_ansL.png,left,NA,NA,NA,left,1782.40000003576,true,NA,NA,NA,NA,NA
YdCxsnz9,NA,NA,YdCxsnz9,2020-0188,2021-11-12,13:32:00,15:06:47,NA,incomplete,false,true,NA,6,19,E17_Q8_ansL.png,left,NA,NA,NA,left,1823.89999997616,true,NA,NA,NA,NA,NA
YdCxsnz9,NA,NA,YdCxsnz9,2020-0188,2021-11-12,13:32:00,15:06:47,NA,incomplete,false,true,NA,6,20,E28_Q10_ansR.png,right,NA,NA,NA,right,1867.40000003576,true,NA,NA,NA,NA,NA
YdCxsnz9,NA,NA,YdCxsnz9,2020-0188,2021-11-12,13:32:00,15:06:47,NA,incomplete,false,true,NA,6,21,E28_Q7_ansR.png,right,NA,NA,NA,right,1808.59999996424,true,NA,NA,NA,NA,NA
YdCxsnz9,NA,NA,YdCxsnz9,2020-0188,2021-11-12,13:32:00,15:06:47,NA,incomplete,false,true,NA,6,22,E28_Q4_ansL.png,left,NA,NA,NA,left,1437.20000004768,true,NA,NA,NA,NA,NA
YdCxsnz9,NA,NA,YdCxsnz9,2020-0188,2021-11-12,13:32:00,15:06:47,NA,incomplete,false,true,NA,6,23,E28_Q3_ansL.png,left,NA,NA,NA,left,1467.90000003576,true,NA,NA,NA,NA,NA
YdCxsnz9,NA,NA,YdCxsnz9,2020-0188,2021-11-12,13:32:00,15:06:47,NA,incomplete,false,true,NA,6,24,E28_Q2_ansR.png,right,NA,NA,NA,right,1313.19999998808,true,NA,NA,NA,NA,NA
YdCxsnz9,NA,NA,YdCxsnz9,2020-0188,2021-11-12,13:32:00,15:06:47,NA,incomplete,false,true,NA,6,25,E28_Q1_ansR.png,right,NA,NA,NA,right,1388.40000003576,true,NA,NA,NA,NA,NA
YdCxsnz9,NA,NA,YdCxsnz9,2020-0188,2021-11-12,13:32:00,15:06:47,NA,incomplete,false,true,NA,6,26,E28_Q5_ansL.png,left,NA,NA,NA,left,1597.69999998808,true,NA,NA,NA,NA,NA
YdCxsnz9,NA,NA,YdCxsnz9,2020-0188,2021-11-12,13:32:00,15:06:47,NA,incomplete,false,true,NA,6,27,E28_Q9_ansL.png,left,NA,NA,NA,left,1565.29999995232,true,NA,NA,NA,NA,NA
YdCxsnz9,NA,NA,YdCxsnz9,2020-0188,2021-11-12,13:32:00,15:06:47,NA,incomplete,false,true,NA,6,28,E28_Q8_ansR.png,right,NA,NA,NA,right,1261.80000001192,true,NA,NA,NA,NA,NA
YdCxsnz9,NA,NA,YdCxsnz9,2020-0188,2021-11-12,13:32:00,15:06:47,NA,incomplete,false,true,NA,6,29,E28_Q6_ansL.png,left,NA,NA,NA,left,1308.39999997616,true,NA,NA,NA,NA,NA
YdCxsnz9,NA,NA,YdCxsnz9,2020-0188,2021-11-12,13:32:00,15:06:47,NA,incomplete,false,NA,true,6,0,NA,right,E28_Q1_ansR.png,E28_Q4_ansL.png,within,NA,NaN,NA,right,2625,1,0,1690.8999999761581
YdCxsnz9,NA,NA,YdCxsnz9,2020-0188,2021-11-12,13:32:00,15:06:47,NA,incomplete,false,NA,true,6,1,NA,left,E17_Q9_ansR.png,E17_Q6_ansR.png,within,NA,NaN,NA,left,1860.5999999642372,1,0,1588.199999988079
YdCxsnz9,NA,NA,YdCxsnz9,2020-0188,2021-11-12,13:32:00,15:06:47,NA,incomplete,false,NA,true,6,2,NA,right,E28_Q4_ansL.png,E17_Q8_ansL.png,between,NA,NaN,NA,right,3178.699999988079,1,2,1796.5
YdCxsnz9,NA,NA,YdCxsnz9,2020-0188,2021-11-12,13:32:00,15:06:47,NA,incomplete,false,NA,true,6,3,NA,left,E22_Q3_ansL.png,E22_Q8_ansR.png,within,NA,NaN,NA,left,3888.600000023842,1,0,2868.300000011921
YdCxsnz9,NA,NA,YdCxsnz9,2020-0188,2021-11-12,13:32:00,15:06:47,NA,incomplete,false,NA,true,6,4,NA,right,E17_Q2_ansL.png,E22_Q1_ansR.png,between,NA,NaN,NA,right,2956.800000011921,1,2,1532.5
YdCxsnz9,NA,NA,YdCxsnz9,2020-0188,2021-11-12,13:32:00,15:06:47,NA,incomplete,false,NA,true,6,5,NA,right,E17_Q5_ansR.png,E17_Q4_ansR.png,within,NA,NaN,NA,right,3369.800000011921,1,0,1273.8999999761581
YdCxsnz9,NA,NA,YdCxsnz9,2020-0188,2021-11-12,13:32:00,15:06:47,NA,incomplete,false,NA,true,6,6,NA,right,E17_Q1_ansL.png,E22_Q5_ansL.png,between,NA,NaN,NA,right,3881.699999988079,1,2,2788.199999988079
YdCxsnz9,NA,NA,YdCxsnz9,2020-0188,2021-11-12,13:32:00,15:06:47,NA,incomplete,false,NA,true,6,7,NA,left,E17_Q3_ansR.png,E17_Q7_ansL.png,within,NA,NaN,NA,left,2355.100000023842,1,1,2629.300000011921
YdCxsnz9,NA,NA,YdCxsnz9,2020-0188,2021-11-12,13:32:00,15:06:47,NA,incomplete,false,NA,true,6,8,NA,left,E28_Q2_ansR.png,E28_Q9_ansL.png,within,NA,NaN,NA,left,3353.7999999523163,1,0,1108.1000000238419
YdCxsnz9,NA,NA,YdCxsnz9,2020-0188,2021-11-12,13:32:00,15:06:47,NA,incomplete,false,NA,true,6,9,NA,left,E17_Q6_ansR.png,E17_Q8_ansL.png,within,NA,NaN,NA,right,6583.699999988079,0,0,1125.199999988079
YdCxsnz9,NA,NA,YdCxsnz9,2020-0188,2021-11-12,13:32:00,15:06:47,NA,incomplete,false,NA,true,6,10,NA,left,E28_Q1_ansR.png,E28_Q8_ansR.png,within,NA,NaN,NA,left,4876.800000011921,1,0,1251.800000011921
YdCxsnz9,NA,NA,YdCxsnz9,2020-0188,2021-11-12,13:32:00,15:06:47,NA,incomplete,false,NA,true,6,11,NA,right,E28_Q6_ansL.png,E28_Q5_ansL.png,within,NA,NaN,NA,right,8707.199999988079,1,0,1020.6000000238419
YdCxsnz9,NA,NA,YdCxsnz9,2020-0188,2021-11-12,13:32:00,15:06:47,NA,incomplete,false,NA,true,6,12,NA,right,E22_Q9_ansL.png,E22_Q2_ansR.png,within,NA,NaN,NA,left,3218.300000011921,0,0,1044.699999988079
YdCxsnz9,NA,NA,YdCxsnz9,2020-0188,2021-11-12,13:32:00,15:06:47,NA,incomplete,false,NA,true,6,13,NA,right,E28_Q3_ansL.png,E28_Q10_ansR.png,within,NA,NaN,NA,right,3521.5,1,0,1253.3999999761581
YdCxsnz9,NA,NA,YdCxsnz9,2020-0188,2021-11-12,13:32:00,15:06:47,NA,incomplete,false,NA,true,6,14,NA,left,E22_Q4_ansL.png,E17_Q4_ansR.png,between,NA,NaN,NA,left,2818.599999964237,1,2,995.9000000357628
YdCxsnz9,NA,NA,YdCxsnz9,2020-0188,2021-11-12,13:32:00,15:06:47,NA,incomplete,false,NA,true,6,15,NA,right,E22_Q4_ansL.png,E22_Q7_ansR.png,within,NA,NaN,NA,left,3273.699999988079,0,1,1476.4000000357628
YdCxsnz9,NA,NA,YdCxsnz9,2020-0188,2021-11-12,13:32:00,15:06:47,NA,incomplete,false,NA,true,6,16,NA,right,E22_Q1_ansR.png,E22_Q10_ansR.png,within,NA,NaN,NA,left,2223.399999976158,0,0,1253
YdCxsnz9,NA,NA,YdCxsnz9,2020-0188,2021-11-12,13:32:00,15:06:47,NA,incomplete,false,NA,true,6,17,NA,right,E17_Q10_ansL.png,E17_Q5_ansR.png,within,NA,NaN,NA,left,5552.5,0,0,1012.8999999761581
YdCxsnz9,NA,NA,YdCxsnz9,2020-0188,2021-11-12,13:32:00,15:06:47,NA,incomplete,false,NA,true,6,18,NA,left,E22_Q8_ansR.png,E22_Q7_ansR.png,within,NA,NaN,NA,left,16377,1,0,2819.7000000476837
YdCxsnz9,NA,NA,YdCxsnz9,2020-0188,2021-11-12,13:32:00,15:06:47,NA,incomplete,false,NA,true,6,19,NA,right,E28_Q7_ansR.png,E17_Q10_ansL.png,between,NA,NaN,NA,right,2363.300000011921,1,2,1660.5
YdCxsnz9,NA,NA,YdCxsnz9,2020-0188,2021-11-12,13:32:00,15:06:47,NA,incomplete,false,NA,true,6,20,NA,right,E22_Q5_ansL.png,E22_Q9_ansL.png,within,NA,NaN,NA,right,2835.100000023842,1,0,1219.6000000238419
YdCxsnz9,NA,NA,YdCxsnz9,2020-0188,2021-11-12,13:32:00,15:06:47,NA,incomplete,false,NA,true,6,21,NA,right,E28_Q2_ansR.png,E28_Q7_ansR.png,within,NA,NaN,NA,right,1996.4000000357628,1,0,1092.800000011921
YdCxsnz9,NA,NA,YdCxsnz9,2020-0188,2021-11-12,13:32:00,15:06:47,NA,incomplete,false,NA,true,6,22,NA,left,E17_Q1_ansL.png,E17_Q9_ansR.png,within,NA,NaN,NA,left,3026,1,0,1493.699999988079
YdCxsnz9,NA,NA,YdCxsnz9,2020-0188,2021-11-12,13:32:00,15:06:47,NA,incomplete,false,NA,true,6,23,NA,right,E28_Q10_ansR.png,E17_Q7_ansL.png,between,NA,NaN,NA,right,2171.5,1,1,989.3999999761581
YdCxsnz9,NA,NA,YdCxsnz9,2020-0188,2021-11-12,13:32:00,15:06:47,NA,incomplete,false,NA,true,6,24,NA,left,E22_Q6_ansL.png,E22_Q10_ansR.png,within,NA,NaN,NA,left,2733.300000011921,1,1,978.8999999761581
YdCxsnz9,NA,NA,YdCxsnz9,2020-0188,2021-11-12,13:32:00,15:06:47,NA,incomplete,false,NA,true,6,25,NA,left,E28_Q3_ansL.png,E28_Q5_ansL.png,within,NA,NaN,NA,left,1891.800000011921,1,1,1268.7000000476837
YdCxsnz9,NA,NA,YdCxsnz9,2020-0188,2021-11-12,13:32:00,15:06:47,NA,incomplete,false,NA,true,6,26,NA,left,E17_Q2_ansL.png,E17_Q3_ansR.png,within,NA,NaN,NA,left,3038.600000023842,1,0,1077.199999988079
YdCxsnz9,NA,NA,YdCxsnz9,2020-0188,2021-11-12,13:32:00,15:06:47,NA,incomplete,false,true,NA,7,0,E19_Q8_ansL.png,left,NA,NA,NA,left,1749.30000001192,true,NA,NA,NA,NA,NA
YdCxsnz9,NA,NA,YdCxsnz9,2020-0188,2021-11-12,13:32:00,15:06:47,NA,incomplete,false,true,NA,7,1,E19_Q3_ansR.png,right,NA,NA,NA,right,904.099999964237,true,NA,NA,NA,NA,NA
YdCxsnz9,NA,NA,YdCxsnz9,2020-0188,2021-11-12,13:32:00,15:06:47,NA,incomplete,false,true,NA,7,2,E19_Q4_ansR.png,right,NA,NA,NA,right,972.899999976158,true,NA,NA,NA,NA,NA
YdCxsnz9,NA,NA,YdCxsnz9,2020-0188,2021-11-12,13:32:00,15:06:47,NA,incomplete,false,true,NA,7,3,E19_Q1_ansL.png,left,NA,NA,NA,left,949.599999964237,true,NA,NA,NA,NA,NA
YdCxsnz9,NA,NA,YdCxsnz9,2020-0188,2021-11-12,13:32:00,15:06:47,NA,incomplete,false,true,NA,7,4,E19_Q2_ansL.png,left,NA,NA,NA,left,798.600000023842,true,NA,NA,NA,NA,NA
YdCxsnz9,NA,NA,YdCxsnz9,2020-0188,2021-11-12,13:32:00,15:06:47,NA,incomplete,false,true,NA,7,5,E19_Q10_ansL.png,left,NA,NA,NA,left,1139.19999998808,true,NA,NA,NA,NA,NA
YdCxsnz9,NA,NA,YdCxsnz9,2020-0188,2021-11-12,13:32:00,15:06:47,NA,incomplete,false,true,NA,7,6,E19_Q5_ansR.png,right,NA,NA,NA,right,1233.60000002384,true,NA,NA,NA,NA,NA
YdCxsnz9,NA,NA,YdCxsnz9,2020-0188,2021-11-12,13:32:00,15:06:47,NA,incomplete,false,true,NA,7,7,E19_Q7_ansL.png,left,NA,NA,NA,left,1514.60000002384,true,NA,NA,NA,NA,NA
YdCxsnz9,NA,NA,YdCxsnz9,2020-0188,2021-11-12,13:32:00,15:06:47,NA,incomplete,false,true,NA,7,8,E19_Q9_ansR.png,right,NA,NA,NA,right,1249.39999997616,true,NA,NA,NA,NA,NA
YdCxsnz9,NA,NA,YdCxsnz9,2020-0188,2021-11-12,13:32:00,15:06:47,NA,incomplete,false,true,NA,7,9,E19_Q6_ansR.png,right,NA,NA,NA,right,931.899999976158,true,NA,NA,NA,NA,NA
YdCxsnz9,NA,NA,YdCxsnz9,2020-0188,2021-11-12,13:32:00,15:06:47,NA,incomplete,false,true,NA,7,10,E9_Q10_ansR.png,right,NA,NA,NA,right,2276,true,NA,NA,NA,NA,NA
YdCxsnz9,NA,NA,YdCxsnz9,2020-0188,2021-11-12,13:32:00,15:06:47,NA,incomplete,false,true,NA,7,11,E9_Q6_ansL.png,left,NA,NA,NA,left,1638.30000001192,true,NA,NA,NA,NA,NA
YdCxsnz9,NA,NA,YdCxsnz9,2020-0188,2021-11-12,13:32:00,15:06:47,NA,incomplete,false,true,NA,7,12,E9_Q7_ansR.png,right,NA,NA,NA,right,1768.19999998808,true,NA,NA,NA,NA,NA
YdCxsnz9,NA,NA,YdCxsnz9,2020-0188,2021-11-12,13:32:00,15:06:47,NA,incomplete,false,true,NA,7,13,E9_Q8_ansR.png,right,NA,NA,NA,right,1571.10000002384,true,NA,NA,NA,NA,NA
YdCxsnz9,NA,NA,YdCxsnz9,2020-0188,2021-11-12,13:32:00,15:06:47,NA,incomplete,false,true,NA,7,14,E9_Q4_ansL.png,left,NA,NA,NA,left,1428.39999997616,true,NA,NA,NA,NA,NA
YdCxsnz9,NA,NA,YdCxsnz9,2020-0188,2021-11-12,13:32:00,15:06:47,NA,incomplete,false,true,NA,7,15,E9_Q1_ansR.png,right,NA,NA,NA,right,1877.60000002384,true,NA,NA,NA,NA,NA
YdCxsnz9,NA,NA,YdCxsnz9,2020-0188,2021-11-12,13:32:00,15:06:47,NA,incomplete,false,true,NA,7,16,E9_Q5_ansL.png,left,NA,NA,NA,left,1256.10000002384,true,NA,NA,NA,NA,NA
YdCxsnz9,NA,NA,YdCxsnz9,2020-0188,2021-11-12,13:32:00,15:06:47,NA,incomplete,false,true,NA,7,17,E9_Q9_ansL.png,left,NA,NA,NA,left,1643.29999995232,true,NA,NA,NA,NA,NA
YdCxsnz9,NA,NA,YdCxsnz9,2020-0188,2021-11-12,13:32:00,15:06:47,NA,incomplete,false,true,NA,7,18,E9_Q2_ansR.png,right,NA,NA,NA,right,1393.89999997616,true,NA,NA,NA,NA,NA
YdCxsnz9,NA,NA,YdCxsnz9,2020-0188,2021-11-12,13:32:00,15:06:47,NA,incomplete,false,true,NA,7,19,E9_Q3_ansL.png,left,NA,NA,NA,left,1195.59999996424,true,NA,NA,NA,NA,NA
YdCxsnz9,NA,NA,YdCxsnz9,2020-0188,2021-11-12,13:32:00,15:06:47,NA,incomplete,false,true,NA,7,20,E25_Q7_ansR.png,right,NA,NA,NA,none,0,false,NA,NA,NA,NA,NA
YdCxsnz9,NA,NA,YdCxsnz9,2020-0188,2021-11-12,13:32:00,15:06:47,NA,incomplete,false,true,NA,7,21,E25_Q1_ansR.png,right,NA,NA,NA,right,3269.69999998808,true,NA,NA,NA,NA,NA
YdCxsnz9,NA,NA,YdCxsnz9,2020-0188,2021-11-12,13:32:00,15:06:47,NA,incomplete,false,true,NA,7,22,E25_Q2_ansR.png,right,NA,NA,NA,right,1982.29999995232,true,NA,NA,NA,NA,NA
YdCxsnz9,NA,NA,YdCxsnz9,2020-0188,2021-11-12,13:32:00,15:06:47,NA,incomplete,false,true,NA,7,23,E25_Q10_ansR.png,right,NA,NA,NA,left,2240.59999996424,false,NA,NA,NA,NA,NA
YdCxsnz9,NA,NA,YdCxsnz9,2020-0188,2021-11-12,13:32:00,15:06:47,NA,incomplete,false,true,NA,7,24,E25_Q8_ansR.png,right,NA,NA,NA,right,1678.30000001192,true,NA,NA,NA,NA,NA
YdCxsnz9,NA,NA,YdCxsnz9,2020-0188,2021-11-12,13:32:00,15:06:47,NA,incomplete,false,true,NA,7,25,E25_Q4_ansL.png,left,NA,NA,NA,left,2511,true,NA,NA,NA,NA,NA
YdCxsnz9,NA,NA,YdCxsnz9,2020-0188,2021-11-12,13:32:00,15:06:47,NA,incomplete,false,true,NA,7,26,E25_Q6_ansL.png,left,NA,NA,NA,left,1756.89999997616,true,NA,NA,NA,NA,NA
YdCxsnz9,NA,NA,YdCxsnz9,2020-0188,2021-11-12,13:32:00,15:06:47,NA,incomplete,false,true,NA,7,27,E25_Q3_ansL.png,left,NA,NA,NA,left,2078.30000001192,true,NA,NA,NA,NA,NA
YdCxsnz9,NA,NA,YdCxsnz9,2020-0188,2021-11-12,13:32:00,15:06:47,NA,incomplete,false,true,NA,7,28,E25_Q5_ansL.png,left,NA,NA,NA,right,1982.10000002384,false,NA,NA,NA,NA,NA
YdCxsnz9,NA,NA,YdCxsnz9,2020-0188,2021-11-12,13:32:00,15:06:47,NA,incomplete,false,true,NA,7,29,E25_Q9_ansL.png,left,NA,NA,NA,left,2529.30000001192,true,NA,NA,NA,NA,NA
YdCxsnz9,NA,NA,YdCxsnz9,2020-0188,2021-11-12,13:32:00,15:06:47,NA,incomplete,false,NA,true,7,0,NA,left,E19_Q7_ansL.png,E9_Q10_ansR.png,between,NA,NaN,NA,left,2529.399999976158,1,3,1101
YdCxsnz9,NA,NA,YdCxsnz9,2020-0188,2021-11-12,13:32:00,15:06:47,NA,incomplete,false,NA,true,7,1,NA,left,E9_Q4_ansL.png,E9_Q9_ansL.png,within,NA,NaN,NA,left,3717.400000035763,1,0,1046.199999988079
YdCxsnz9,NA,NA,YdCxsnz9,2020-0188,2021-11-12,13:32:00,15:06:47,NA,incomplete,false,NA,true,7,2,NA,right,E9_Q6_ansL.png,E19_Q9_ansR.png,between,NA,NaN,NA,right,1772.199999988079,1,2,1294.5999999642372
YdCxsnz9,NA,NA,YdCxsnz9,2020-0188,2021-11-12,13:32:00,15:06:47,NA,incomplete,false,NA,true,7,3,NA,left,E25_Q2_ansR.png,E25_Q4_ansL.png,within,NA,NaN,NA,left,3763.399999976158,1,0,1410.8999999761581
YdCxsnz9,NA,NA,YdCxsnz9,2020-0188,2021-11-12,13:32:00,15:06:47,NA,incomplete,false,NA,true,7,4,NA,left,E25_Q1_ansR.png,E25_Q8_ansR.png,within,NA,NaN,NA,left,2185.400000035763,1,0,957.6999999880791
YdCxsnz9,NA,NA,YdCxsnz9,2020-0188,2021-11-12,13:32:00,15:06:47,NA,incomplete,false,NA,true,7,5,NA,right,E19_Q7_ansL.png,E19_Q2_ansL.png,within,NA,NaN,NA,right,2610.899999976158,1,0,1652.300000011921
YdCxsnz9,NA,NA,YdCxsnz9,2020-0188,2021-11-12,13:32:00,15:06:47,NA,incomplete,false,NA,true,7,6,NA,left,E25_Q7_ansR.png,E25_Q10_ansR.png,within,NA,NaN,NA,left,3942.800000011921,1,0,1861.300000011921
YdCxsnz9,NA,NA,YdCxsnz9,2020-0188,2021-11-12,13:32:00,15:06:47,NA,incomplete,false,NA,true,7,7,NA,left,E25_Q10_ansR.png,E25_Q6_ansL.png,within,NA,NaN,NA,left,3374.300000011921,1,0,1037.199999988079
YdCxsnz9,NA,NA,YdCxsnz9,2020-0188,2021-11-12,13:32:00,15:06:47,NA,incomplete,false,NA,true,7,8,NA,left,E9_Q5_ansL.png,E9_Q3_ansL.png,within,NA,NaN,NA,left,2179.600000023842,1,1,3617
YdCxsnz9,NA,NA,YdCxsnz9,2020-0188,2021-11-12,13:32:00,15:06:47,NA,incomplete,false,NA,true,7,9,NA,left,E9_Q9_ansL.png,E25_Q7_ansR.png,between,NA,NaN,NA,left,2339.5,1,2,915.6999999880791
YdCxsnz9,NA,NA,YdCxsnz9,2020-0188,2021-11-12,13:32:00,15:06:47,NA,incomplete,false,NA,true,7,10,NA,right,E9_Q8_ansR.png,E9_Q10_ansR.png,within,NA,NaN,NA,right,2937.699999988079,1,0,2125.399999976158
YdCxsnz9,NA,NA,YdCxsnz9,2020-0188,2021-11-12,13:32:00,15:06:47,NA,incomplete,false,NA,true,7,11,NA,right,E9_Q4_ansL.png,E9_Q6_ansL.png,within,NA,NaN,NA,right,4189.600000023842,1,0,4455.699999988079
YdCxsnz9,NA,NA,YdCxsnz9,2020-0188,2021-11-12,13:32:00,15:06:47,NA,incomplete,false,NA,true,7,12,NA,left,E25_Q6_ansL.png,E25_Q9_ansL.png,within,NA,NaN,NA,right,2674.300000011921,0,0,1149.1000000238419
YdCxsnz9,NA,NA,YdCxsnz9,2020-0188,2021-11-12,13:32:00,15:06:47,NA,incomplete,false,NA,true,7,13,NA,left,E19_Q10_ansL.png,E19_Q9_ansR.png,within,NA,NaN,NA,right,2163.599999964237,0,0,1858.8999999761581
YdCxsnz9,NA,NA,YdCxsnz9,2020-0188,2021-11-12,13:32:00,15:06:47,NA,incomplete,false,NA,true,7,14,NA,left,E9_Q1_ansR.png,E9_Q2_ansR.png,within,NA,NaN,NA,left,2195.800000011921,1,0,1014
YdCxsnz9,NA,NA,YdCxsnz9,2020-0188,2021-11-12,13:32:00,15:06:47,NA,incomplete,false,NA,true,7,15,NA,left,E25_Q4_ansL.png,E25_Q5_ansL.png,within,NA,NaN,NA,left,2586,1,0,1580.6000000238419
YdCxsnz9,NA,NA,YdCxsnz9,2020-0188,2021-11-12,13:32:00,15:06:47,NA,incomplete,false,NA,true,7,16,NA,left,E19_Q8_ansL.png,E19_Q1_ansL.png,within,NA,NaN,NA,left,1861.7000000476837,1,1,2490.899999976158
YdCxsnz9,NA,NA,YdCxsnz9,2020-0188,2021-11-12,13:32:00,15:06:47,NA,incomplete,false,NA,true,7,17,NA,left,E9_Q7_ansR.png,E9_Q1_ansR.png,within,NA,NaN,NA,left,2019.1000000238419,1,0,1029.300000011921
YdCxsnz9,NA,NA,YdCxsnz9,2020-0188,2021-11-12,13:32:00,15:06:47,NA,incomplete,false,NA,true,7,18,NA,right,E25_Q1_ansR.png,E9_Q2_ansR.png,between,NA,NaN,NA,right,2538.300000011921,1,2,783.1000000238419
YdCxsnz9,NA,NA,YdCxsnz9,2020-0188,2021-11-12,13:32:00,15:06:47,NA,incomplete,false,NA,true,7,19,NA,right,E9_Q5_ansL.png,E9_Q8_ansR.png,within,NA,NaN,NA,left,2024.300000011921,0,0,1182.300000011921
YdCxsnz9,NA,NA,YdCxsnz9,2020-0188,2021-11-12,13:32:00,15:06:47,NA,incomplete,false,NA,true,7,20,NA,right,E19_Q10_ansL.png,E19_Q4_ansR.png,within,NA,NaN,NA,right,3170,1,0,1499.4000000357628
YdCxsnz9,NA,NA,YdCxsnz9,2020-0188,2021-11-12,13:32:00,15:06:47,NA,incomplete,false,NA,true,7,21,NA,right,E25_Q2_ansR.png,E9_Q3_ansL.png,between,NA,NaN,NA,right,2075.099999964237,1,2,2361.099999964237
YdCxsnz9,NA,NA,YdCxsnz9,2020-0188,2021-11-12,13:32:00,15:06:47,NA,incomplete,false,NA,true,7,22,NA,left,E19_Q6_ansR.png,E9_Q7_ansR.png,between,NA,NaN,NA,left,2450.5,1,3,917
YdCxsnz9,NA,NA,YdCxsnz9,2020-0188,2021-11-12,13:32:00,15:06:47,NA,incomplete,false,NA,true,7,23,NA,right,E25_Q3_ansL.png,E25_Q8_ansR.png,within,NA,NaN,NA,left,2252,0,0,1053.199999988079
YdCxsnz9,NA,NA,YdCxsnz9,2020-0188,2021-11-12,13:32:00,15:06:47,NA,incomplete,false,NA,true,7,24,NA,left,E19_Q5_ansR.png,E19_Q6_ansR.png,within,NA,NaN,NA,left,3512.699999988079,1,0,1076.5999999642372
YdCxsnz9,NA,NA,YdCxsnz9,2020-0188,2021-11-12,13:32:00,15:06:47,NA,incomplete,false,NA,true,7,25,NA,right,E19_Q5_ansR.png,E19_Q1_ansL.png,within,NA,NaN,NA,left,2738.100000023842,0,0,1684.2999999523163
YdCxsnz9,NA,NA,YdCxsnz9,2020-0188,2021-11-12,13:32:00,15:06:47,NA,incomplete,false,NA,true,7,26,NA,left,E19_Q3_ansR.png,E19_Q2_ansL.png,within,NA,NaN,NA,left,1783.8999999761581,1,0,893.6000000238419
YdCxsnz9,NA,NA,YdCxsnz9,2020-0188,2021-11-12,13:32:00,15:06:47,NA,incomplete,false,true,NA,8,0,E32_Q5_ansR.png,right,NA,NA,NA,right,2330.5,true,NA,NA,NA,NA,NA
YdCxsnz9,NA,NA,YdCxsnz9,2020-0188,2021-11-12,13:32:00,15:06:47,NA,incomplete,false,true,NA,8,1,E32_Q8_ansL.png,left,NA,NA,NA,left,1273.40000003576,true,NA,NA,NA,NA,NA
YdCxsnz9,NA,NA,YdCxsnz9,2020-0188,2021-11-12,13:32:00,15:06:47,NA,incomplete,false,true,NA,8,2,E32_Q2_ansL.png,left,NA,NA,NA,left,1122.10000002384,true,NA,NA,NA,NA,NA
YdCxsnz9,NA,NA,YdCxsnz9,2020-0188,2021-11-12,13:32:00,15:06:47,NA,incomplete,false,true,NA,8,3,E32_Q9_ansR.png,right,NA,NA,NA,right,1038.80000001192,true,NA,NA,NA,NA,NA
YdCxsnz9,NA,NA,YdCxsnz9,2020-0188,2021-11-12,13:32:00,15:06:47,NA,incomplete,false,true,NA,8,4,E32_Q10_ansL.png,left,NA,NA,NA,left,1036.30000001192,true,NA,NA,NA,NA,NA
YdCxsnz9,NA,NA,YdCxsnz9,2020-0188,2021-11-12,13:32:00,15:06:47,NA,incomplete,false,true,NA,8,5,E32_Q4_ansR.png,right,NA,NA,NA,right,1347.80000001192,true,NA,NA,NA,NA,NA
YdCxsnz9,NA,NA,YdCxsnz9,2020-0188,2021-11-12,13:32:00,15:06:47,NA,incomplete,false,true,NA,8,6,E32_Q6_ansR.png,right,NA,NA,NA,right,1262.39999997616,true,NA,NA,NA,NA,NA
YdCxsnz9,NA,NA,YdCxsnz9,2020-0188,2021-11-12,13:32:00,15:06:47,NA,incomplete,false,true,NA,8,7,E32_Q3_ansR.png,right,NA,NA,NA,right,1248.80000001192,true,NA,NA,NA,NA,NA
YdCxsnz9,NA,NA,YdCxsnz9,2020-0188,2021-11-12,13:32:00,15:06:47,NA,incomplete,false,true,NA,8,8,E32_Q1_ansL.png,left,NA,NA,NA,left,932,true,NA,NA,NA,NA,NA
YdCxsnz9,NA,NA,YdCxsnz9,2020-0188,2021-11-12,13:32:00,15:06:47,NA,incomplete,false,true,NA,8,9,E32_Q7_ansL.png,left,NA,NA,NA,left,1480.89999997616,true,NA,NA,NA,NA,NA
YdCxsnz9,NA,NA,YdCxsnz9,2020-0188,2021-11-12,13:32:00,15:06:47,NA,incomplete,false,true,NA,8,10,E3_Q4_ansL.png,left,NA,NA,NA,left,2086.39999997616,true,NA,NA,NA,NA,NA
YdCxsnz9,NA,NA,YdCxsnz9,2020-0188,2021-11-12,13:32:00,15:06:47,NA,incomplete,false,true,NA,8,11,E3_Q6_ansR.png,right,NA,NA,NA,right,1366.30000001192,true,NA,NA,NA,NA,NA
YdCxsnz9,NA,NA,YdCxsnz9,2020-0188,2021-11-12,13:32:00,15:06:47,NA,incomplete,false,true,NA,8,12,E3_Q7_ansL.png,left,NA,NA,NA,left,1226.19999998808,true,NA,NA,NA,NA,NA
YdCxsnz9,NA,NA,YdCxsnz9,2020-0188,2021-11-12,13:32:00,15:06:47,NA,incomplete,false,true,NA,8,13,E3_Q1_ansR.png,right,NA,NA,NA,right,1353.59999996424,true,NA,NA,NA,NA,NA
YdCxsnz9,NA,NA,YdCxsnz9,2020-0188,2021-11-12,13:32:00,15:06:47,NA,incomplete,false,true,NA,8,14,E3_Q10_ansR.png,right,NA,NA,NA,right,1438.90000003576,true,NA,NA,NA,NA,NA
YdCxsnz9,NA,NA,YdCxsnz9,2020-0188,2021-11-12,13:32:00,15:06:47,NA,incomplete,false,true,NA,8,15,E3_Q8_ansL.png,left,NA,NA,NA,left,1749.90000003576,true,NA,NA,NA,NA,NA
YdCxsnz9,NA,NA,YdCxsnz9,2020-0188,2021-11-12,13:32:00,15:06:47,NA,incomplete,false,true,NA,8,16,E3_Q3_ansR.png,right,NA,NA,NA,right,1583.80000001192,true,NA,NA,NA,NA,NA
YdCxsnz9,NA,NA,YdCxsnz9,2020-0188,2021-11-12,13:32:00,15:06:47,NA,incomplete,false,true,NA,8,17,E3_Q9_ansL.png,left,NA,NA,NA,left,998.300000011921,true,NA,NA,NA,NA,NA
YdCxsnz9,NA,NA,YdCxsnz9,2020-0188,2021-11-12,13:32:00,15:06:47,NA,incomplete,false,true,NA,8,18,E3_Q2_ansL.png,left,NA,NA,NA,left,1347.89999997616,true,NA,NA,NA,NA,NA
YdCxsnz9,NA,NA,YdCxsnz9,2020-0188,2021-11-12,13:32:00,15:06:47,NA,incomplete,false,true,NA,8,19,E3_Q5_ansR.png,right,NA,NA,NA,right,1164.10000002384,true,NA,NA,NA,NA,NA
YdCxsnz9,NA,NA,YdCxsnz9,2020-0188,2021-11-12,13:32:00,15:06:47,NA,incomplete,false,true,NA,8,20,E33_Q4_ansR.png,right,NA,NA,NA,right,2112.60000002384,true,NA,NA,NA,NA,NA
YdCxsnz9,NA,NA,YdCxsnz9,2020-0188,2021-11-12,13:32:00,15:06:47,NA,incomplete,false,true,NA,8,21,E33_Q1_ansL.png,left,NA,NA,NA,left,1520.69999998808,true,NA,NA,NA,NA,NA
YdCxsnz9,NA,NA,YdCxsnz9,2020-0188,2021-11-12,13:32:00,15:06:47,NA,incomplete,false,true,NA,8,22,E33_Q6_ansR.png,right,NA,NA,NA,right,1493,true,NA,NA,NA,NA,NA
YdCxsnz9,NA,NA,YdCxsnz9,2020-0188,2021-11-12,13:32:00,15:06:47,NA,incomplete,false,true,NA,8,23,E33_Q5_ansR.png,right,NA,NA,NA,left,1454.19999998808,false,NA,NA,NA,NA,NA
YdCxsnz9,NA,NA,YdCxsnz9,2020-0188,2021-11-12,13:32:00,15:06:47,NA,incomplete,false,true,NA,8,24,E33_Q7_ansL.png,left,NA,NA,NA,right,2595,false,NA,NA,NA,NA,NA
YdCxsnz9,NA,NA,YdCxsnz9,2020-0188,2021-11-12,13:32:00,15:06:47,NA,incomplete,false,true,NA,8,25,E33_Q9_ansR.png,right,NA,NA,NA,right,1711,true,NA,NA,NA,NA,NA
YdCxsnz9,NA,NA,YdCxsnz9,2020-0188,2021-11-12,13:32:00,15:06:47,NA,incomplete,false,true,NA,8,26,E33_Q8_ansL.png,left,NA,NA,NA,right,1774.39999997616,false,NA,NA,NA,NA,NA
YdCxsnz9,NA,NA,YdCxsnz9,2020-0188,2021-11-12,13:32:00,15:06:47,NA,incomplete,false,true,NA,8,27,E33_Q2_ansL.png,left,NA,NA,NA,left,1953.5,true,NA,NA,NA,NA,NA
YdCxsnz9,NA,NA,YdCxsnz9,2020-0188,2021-11-12,13:32:00,15:06:47,NA,incomplete,false,true,NA,8,28,E33_Q10_ansL.png,left,NA,NA,NA,left,2614.30000001192,true,NA,NA,NA,NA,NA
YdCxsnz9,NA,NA,YdCxsnz9,2020-0188,2021-11-12,13:32:00,15:06:47,NA,incomplete,false,true,NA,8,29,E33_Q3_ansR.png,right,NA,NA,NA,right,2666.30000001192,true,NA,NA,NA,NA,NA
YdCxsnz9,NA,NA,YdCxsnz9,2020-0188,2021-11-12,13:32:00,15:06:47,NA,incomplete,false,NA,true,8,0,NA,left,E32_Q9_ansR.png,E32_Q6_ansR.png,within,NA,NaN,NA,left,2763.800000011921,1,0,950.5999999642372
YdCxsnz9,NA,NA,YdCxsnz9,2020-0188,2021-11-12,13:32:00,15:06:47,NA,incomplete,false,NA,true,8,1,NA,right,E33_Q7_ansL.png,E33_Q1_ansL.png,within,NA,NaN,NA,right,2223.399999976158,1,0,1358.5
YdCxsnz9,NA,NA,YdCxsnz9,2020-0188,2021-11-12,13:32:00,15:06:47,NA,incomplete,false,NA,true,8,2,NA,left,E3_Q3_ansR.png,E3_Q5_ansR.png,within,NA,NaN,NA,left,2891,1,0,2379.199999988079
YdCxsnz9,NA,NA,YdCxsnz9,2020-0188,2021-11-12,13:32:00,15:06:47,NA,incomplete,false,NA,true,8,3,NA,left,E3_Q5_ansR.png,E33_Q6_ansR.png,between,NA,NaN,NA,left,2140.199999988079,1,2,868.7000000476837
YdCxsnz9,NA,NA,YdCxsnz9,2020-0188,2021-11-12,13:32:00,15:06:47,NA,incomplete,false,NA,true,8,4,NA,left,E32_Q6_ansR.png,E32_Q7_ansL.png,within,NA,NaN,NA,left,2283.199999988079,1,0,1068.300000011921
YdCxsnz9,NA,NA,YdCxsnz9,2020-0188,2021-11-12,13:32:00,15:06:47,NA,incomplete,false,NA,true,8,5,NA,left,E33_Q5_ansR.png,E33_Q8_ansL.png,within,NA,NaN,NA,left,2211.7999999523163,1,0,1549.3999999761581
YdCxsnz9,NA,NA,YdCxsnz9,2020-0188,2021-11-12,13:32:00,15:06:47,NA,incomplete,false,NA,true,8,6,NA,right,E3_Q8_ansL.png,E3_Q7_ansL.png,within,NA,NaN,NA,left,4487.399999976158,0,0,1404.5
YdCxsnz9,NA,NA,YdCxsnz9,2020-0188,2021-11-12,13:32:00,15:06:47,NA,incomplete,false,NA,true,8,7,NA,right,E33_Q3_ansR.png,E33_Q8_ansL.png,within,NA,NaN,NA,right,2363.399999976158,1,0,1677.3999999761581
YdCxsnz9,NA,NA,YdCxsnz9,2020-0188,2021-11-12,13:32:00,15:06:47,NA,incomplete,false,NA,true,8,8,NA,right,E33_Q10_ansL.png,E33_Q9_ansR.png,within,NA,NaN,NA,right,1938.5,1,1,1308.199999988079
YdCxsnz9,NA,NA,YdCxsnz9,2020-0188,2021-11-12,13:32:00,15:06:47,NA,incomplete,false,NA,true,8,9,NA,left,E3_Q6_ansR.png,E3_Q10_ansR.png,within,NA,NaN,NA,left,4961.600000023842,1,0,2753.599999964237
YdCxsnz9,NA,NA,YdCxsnz9,2020-0188,2021-11-12,13:32:00,15:06:47,NA,incomplete,false,NA,true,8,10,NA,left,E3_Q10_ansR.png,E3_Q9_ansL.png,within,NA,NaN,NA,left,3001.100000023842,1,0,1173.699999988079
YdCxsnz9,NA,NA,YdCxsnz9,2020-0188,2021-11-12,13:32:00,15:06:47,NA,incomplete,false,NA,true,8,11,NA,right,E33_Q4_ansR.png,E3_Q9_ansL.png,between,NA,NaN,NA,right,3170.899999976158,1,2,967.3000000119209
YdCxsnz9,NA,NA,YdCxsnz9,2020-0188,2021-11-12,13:32:00,15:06:47,NA,incomplete,false,NA,true,8,12,NA,left,E33_Q4_ansR.png,E33_Q5_ansR.png,within,NA,NaN,NA,left,1821.300000011921,1,1,982.2999999523163
YdCxsnz9,NA,NA,YdCxsnz9,2020-0188,2021-11-12,13:32:00,15:06:47,NA,incomplete,false,NA,true,8,13,NA,left,E33_Q6_ansR.png,E33_Q9_ansR.png,within,NA,NaN,NA,left,2156.599999964237,1,1,998.3000000119209
YdCxsnz9,NA,NA,YdCxsnz9,2020-0188,2021-11-12,13:32:00,15:06:47,NA,incomplete,false,NA,true,8,14,NA,right,E3_Q7_ansL.png,E32_Q7_ansL.png,between,NA,NaN,NA,right,1765,1,3,972.5999999642372
YdCxsnz9,NA,NA,YdCxsnz9,2020-0188,2021-11-12,13:32:00,15:06:47,NA,incomplete,false,NA,true,8,15,NA,right,E32_Q1_ansL.png,E32_Q4_ansR.png,within,NA,NaN,NA,left,2044.5999999642372,0,0,1543.6000000238419
YdCxsnz9,NA,NA,YdCxsnz9,2020-0188,2021-11-12,13:32:00,15:06:47,NA,incomplete,false,NA,true,8,16,NA,left,E32_Q2_ansL.png,E32_Q4_ansR.png,within,NA,NaN,NA,left,2315.5,1,0,2646.100000023842
YdCxsnz9,NA,NA,YdCxsnz9,2020-0188,2021-11-12,13:32:00,15:06:47,NA,incomplete,false,NA,true,8,17,NA,right,E3_Q2_ansL.png,E3_Q8_ansL.png,within,NA,NaN,NA,left,2085,0,0,1310.5999999642372
YdCxsnz9,NA,NA,YdCxsnz9,2020-0188,2021-11-12,13:32:00,15:06:47,NA,incomplete,false,NA,true,8,18,NA,left,E3_Q1_ansR.png,E3_Q3_ansR.png,within,NA,NaN,NA,right,9498.699999988079,0,0,1165.300000011921
YdCxsnz9,NA,NA,YdCxsnz9,2020-0188,2021-11-12,13:32:00,15:06:47,NA,incomplete,false,NA,true,8,19,NA,right,E3_Q1_ansR.png,E3_Q4_ansL.png,within,NA,NaN,NA,right,2204,1,1,1457.1000000238419
YdCxsnz9,NA,NA,YdCxsnz9,2020-0188,2021-11-12,13:32:00,15:06:47,NA,incomplete,false,NA,true,8,20,NA,left,E32_Q10_ansL.png,E32_Q3_ansR.png,within,NA,NaN,NA,left,2761.699999988079,1,0,1573.3999999761581
YdCxsnz9,NA,NA,YdCxsnz9,2020-0188,2021-11-12,13:32:00,15:06:47,NA,incomplete,false,NA,true,8,21,NA,right,E32_Q10_ansL.png,E32_Q8_ansL.png,within,NA,NaN,NA,right,3018.300000011921,1,0,982.3999999761581
YdCxsnz9,NA,NA,YdCxsnz9,2020-0188,2021-11-12,13:32:00,15:06:47,NA,incomplete,false,NA,true,8,22,NA,right,E3_Q6_ansR.png,E32_Q1_ansL.png,between,NA,NaN,NA,right,1821.800000011921,1,3,1519.699999988079
YdCxsnz9,NA,NA,YdCxsnz9,2020-0188,2021-11-12,13:32:00,15:06:47,NA,incomplete,false,NA,true,8,23,NA,right,E3_Q4_ansL.png,E32_Q3_ansR.png,between,NA,NaN,NA,right,2959.5,1,3,888.6000000238419
YdCxsnz9,NA,NA,YdCxsnz9,2020-0188,2021-11-12,13:32:00,15:06:47,NA,incomplete,false,NA,true,8,24,NA,right,E33_Q1_ansL.png,E3_Q2_ansL.png,between,NA,NaN,NA,right,3890.900000035763,1,2,1788
YdCxsnz9,NA,NA,YdCxsnz9,2020-0188,2021-11-12,13:32:00,15:06:47,NA,incomplete,false,NA,true,8,25,NA,right,E32_Q9_ansR.png,E32_Q5_ansR.png,within,NA,NaN,NA,right,2266.900000035763,1,0,1041.0999999642372
YdCxsnz9,NA,NA,YdCxsnz9,2020-0188,2021-11-12,13:32:00,15:06:47,NA,incomplete,false,NA,true,8,26,NA,left,E33_Q7_ansL.png,E33_Q2_ansL.png,within,NA,NaN,NA,left,3358.699999988079,1,0,1317.300000011921
YdCxsnz9,NA,NA,YdCxsnz9,2020-0188,2021-11-12,13:32:00,15:06:47,NA,incomplete,false,true,NA,9,0,E8_Q3_ansL.png,left,NA,NA,NA,left,1456.40000003576,true,NA,NA,NA,NA,NA
YdCxsnz9,NA,NA,YdCxsnz9,2020-0188,2021-11-12,13:32:00,15:06:47,NA,incomplete,false,true,NA,9,1,E8_Q7_ansR.png,right,NA,NA,NA,right,1352,true,NA,NA,NA,NA,NA
YdCxsnz9,NA,NA,YdCxsnz9,2020-0188,2021-11-12,13:32:00,15:06:47,NA,incomplete,false,true,NA,9,2,E8_Q4_ansL.png,left,NA,NA,NA,left,1261.30000001192,true,NA,NA,NA,NA,NA
YdCxsnz9,NA,NA,YdCxsnz9,2020-0188,2021-11-12,13:32:00,15:06:47,NA,incomplete,false,true,NA,9,3,E8_Q5_ansL.png,left,NA,NA,NA,left,1877.5,true,NA,NA,NA,NA,NA
YdCxsnz9,NA,NA,YdCxsnz9,2020-0188,2021-11-12,13:32:00,15:06:47,NA,incomplete,false,true,NA,9,4,E8_Q10_ansR.png,right,NA,NA,NA,right,1180.80000001192,true,NA,NA,NA,NA,NA
YdCxsnz9,NA,NA,YdCxsnz9,2020-0188,2021-11-12,13:32:00,15:06:47,NA,incomplete,false,true,NA,9,5,E8_Q1_ansR.png,right,NA,NA,NA,right,1684.79999995232,true,NA,NA,NA,NA,NA
YdCxsnz9,NA,NA,YdCxsnz9,2020-0188,2021-11-12,13:32:00,15:06:47,NA,incomplete,false,true,NA,9,6,E8_Q2_ansR.png,right,NA,NA,NA,right,1527,true,NA,NA,NA,NA,NA
YdCxsnz9,NA,NA,YdCxsnz9,2020-0188,2021-11-12,13:32:00,15:06:47,NA,incomplete,false,true,NA,9,7,E8_Q9_ansL.png,left,NA,NA,NA,left,1194.39999997616,true,NA,NA,NA,NA,NA
YdCxsnz9,NA,NA,YdCxsnz9,2020-0188,2021-11-12,13:32:00,15:06:47,NA,incomplete,false,true,NA,9,8,E8_Q8_ansR.png,right,NA,NA,NA,right,1475.19999998808,true,NA,NA,NA,NA,NA
YdCxsnz9,NA,NA,YdCxsnz9,2020-0188,2021-11-12,13:32:00,15:06:47,NA,incomplete,false,true,NA,9,9,E8_Q6_ansL.png,left,NA,NA,NA,left,1949.5,true,NA,NA,NA,NA,NA
YdCxsnz9,NA,NA,YdCxsnz9,2020-0188,2021-11-12,13:32:00,15:06:47,NA,incomplete,false,true,NA,9,10,E18_Q5_ansR.png,right,NA,NA,NA,right,1843.70000004768,true,NA,NA,NA,NA,NA
YdCxsnz9,NA,NA,YdCxsnz9,2020-0188,2021-11-12,13:32:00,15:06:47,NA,incomplete,false,true,NA,9,11,E18_Q2_ansL.png,left,NA,NA,NA,left,1035.09999996424,true,NA,NA,NA,NA,NA
YdCxsnz9,NA,NA,YdCxsnz9,2020-0188,2021-11-12,13:32:00,15:06:47,NA,incomplete,false,true,NA,9,12,E18_Q3_ansR.png,right,NA,NA,NA,right,1362.20000004768,true,NA,NA,NA,NA,NA
YdCxsnz9,NA,NA,YdCxsnz9,2020-0188,2021-11-12,13:32:00,15:06:47,NA,incomplete,false,true,NA,9,13,E18_Q1_ansL.png,left,NA,NA,NA,left,1520.39999997616,true,NA,NA,NA,NA,NA
YdCxsnz9,NA,NA,YdCxsnz9,2020-0188,2021-11-12,13:32:00,15:06:47,NA,incomplete,false,true,NA,9,14,E18_Q10_ansL.png,left,NA,NA,NA,left,1543.80000001192,true,NA,NA,NA,NA,NA
YdCxsnz9,NA,NA,YdCxsnz9,2020-0188,2021-11-12,13:32:00,15:06:47,NA,incomplete,false,true,NA,9,15,E18_Q4_ansR.png,right,NA,NA,NA,right,1170.40000003576,true,NA,NA,NA,NA,NA
YdCxsnz9,NA,NA,YdCxsnz9,2020-0188,2021-11-12,13:32:00,15:06:47,NA,incomplete,false,true,NA,9,16,E18_Q6_ansR.png,right,NA,NA,NA,right,1427.39999997616,true,NA,NA,NA,NA,NA
YdCxsnz9,NA,NA,YdCxsnz9,2020-0188,2021-11-12,13:32:00,15:06:47,NA,incomplete,false,true,NA,9,17,E18_Q9_ansR.png,right,NA,NA,NA,right,1378.09999996424,true,NA,NA,NA,NA,NA
YdCxsnz9,NA,NA,YdCxsnz9,2020-0188,2021-11-12,13:32:00,15:06:47,NA,incomplete,false,true,NA,9,18,E18_Q8_ansL.png,left,NA,NA,NA,left,1420.70000004768,true,NA,NA,NA,NA,NA
YdCxsnz9,NA,NA,YdCxsnz9,2020-0188,2021-11-12,13:32:00,15:06:47,NA,incomplete,false,true,NA,9,19,E18_Q7_ansL.png,left,NA,NA,NA,left,1443.29999995232,true,NA,NA,NA,NA,NA
YdCxsnz9,NA,NA,YdCxsnz9,2020-0188,2021-11-12,13:32:00,15:06:47,NA,incomplete,false,true,NA,9,20,E23_Q2_ansL.png,left,NA,NA,NA,left,1692.80000001192,true,NA,NA,NA,NA,NA
YdCxsnz9,NA,NA,YdCxsnz9,2020-0188,2021-11-12,13:32:00,15:06:47,NA,incomplete,false,true,NA,9,21,E23_Q9_ansR.png,right,NA,NA,NA,right,1252.39999997616,true,NA,NA,NA,NA,NA
YdCxsnz9,NA,NA,YdCxsnz9,2020-0188,2021-11-12,13:32:00,15:06:47,NA,incomplete,false,true,NA,9,22,E23_Q8_ansL.png,left,NA,NA,NA,left,1340.89999997616,true,NA,NA,NA,NA,NA
YdCxsnz9,NA,NA,YdCxsnz9,2020-0188,2021-11-12,13:32:00,15:06:47,NA,incomplete,false,true,NA,9,23,E23_Q1_ansL.png,left,NA,NA,NA,left,1366.80000001192,true,NA,NA,NA,NA,NA
YdCxsnz9,NA,NA,YdCxsnz9,2020-0188,2021-11-12,13:32:00,15:06:47,NA,incomplete,false,true,NA,9,24,E23_Q4_ansR.png,right,NA,NA,NA,right,1226.79999995232,true,NA,NA,NA,NA,NA
YdCxsnz9,NA,NA,YdCxsnz9,2020-0188,2021-11-12,13:32:00,15:06:47,NA,incomplete,false,true,NA,9,25,E23_Q5_ansR.png,right,NA,NA,NA,right,1100.80000001192,true,NA,NA,NA,NA,NA
YdCxsnz9,NA,NA,YdCxsnz9,2020-0188,2021-11-12,13:32:00,15:06:47,NA,incomplete,false,true,NA,9,26,E23_Q3_ansR.png,right,NA,NA,NA,right,1835,true,NA,NA,NA,NA,NA
YdCxsnz9,NA,NA,YdCxsnz9,2020-0188,2021-11-12,13:32:00,15:06:47,NA,incomplete,false,true,NA,9,27,E23_Q7_ansL.png,left,NA,NA,NA,left,1434.30000001192,true,NA,NA,NA,NA,NA
YdCxsnz9,NA,NA,YdCxsnz9,2020-0188,2021-11-12,13:32:00,15:06:47,NA,incomplete,false,true,NA,9,28,E23_Q10_ansL.png,left,NA,NA,NA,left,1623.19999998808,true,NA,NA,NA,NA,NA
YdCxsnz9,NA,NA,YdCxsnz9,2020-0188,2021-11-12,13:32:00,15:06:47,NA,incomplete,false,true,NA,9,29,E23_Q6_ansR.png,right,NA,NA,NA,right,1389.30000001192,true,NA,NA,NA,NA,NA
YdCxsnz9,NA,NA,YdCxsnz9,2020-0188,2021-11-12,13:32:00,15:06:47,NA,incomplete,false,NA,true,9,0,NA,left,E23_Q8_ansL.png,E23_Q5_ansR.png,within,NA,NaN,NA,left,2300.199999988079,1,0,995.1000000238419
YdCxsnz9,NA,NA,YdCxsnz9,2020-0188,2021-11-12,13:32:00,15:06:47,NA,incomplete,false,NA,true,9,1,NA,left,E18_Q6_ansR.png,E18_Q7_ansL.png,within,NA,NaN,NA,left,2681.300000011921,1,0,1059.8999999761581
YdCxsnz9,NA,NA,YdCxsnz9,2020-0188,2021-11-12,13:32:00,15:06:47,NA,incomplete,false,NA,true,9,2,NA,right,E18_Q1_ansL.png,E18_Q5_ansR.png,within,NA,NaN,NA,right,1612.199999988079,1,1,1133.300000011921
YdCxsnz9,NA,NA,YdCxsnz9,2020-0188,2021-11-12,13:32:00,15:06:47,NA,incomplete,false,NA,true,9,3,NA,left,E8_Q2_ansR.png,E8_Q6_ansL.png,within,NA,NaN,NA,left,2371.5,1,0,2333.600000023842
YdCxsnz9,NA,NA,YdCxsnz9,2020-0188,2021-11-12,13:32:00,15:06:47,NA,incomplete,false,NA,true,9,4,NA,left,E8_Q7_ansR.png,E8_Q10_ansR.png,within,NA,NaN,NA,left,2235.2000000476837,1,1,1550.300000011921
YdCxsnz9,NA,NA,YdCxsnz9,2020-0188,2021-11-12,13:32:00,15:06:47,NA,incomplete,false,NA,true,9,5,NA,right,E23_Q3_ansR.png,E23_Q1_ansL.png,within,NA,NaN,NA,right,2554.199999988079,1,0,1588.300000011921
YdCxsnz9,NA,NA,YdCxsnz9,2020-0188,2021-11-12,13:32:00,15:06:47,NA,incomplete,false,NA,true,9,6,NA,right,E8_Q8_ansR.png,E8_Q1_ansR.png,within,NA,NaN,NA,right,2706.399999976158,1,0,1884.1000000238419
YdCxsnz9,NA,NA,YdCxsnz9,2020-0188,2021-11-12,13:32:00,15:06:47,NA,incomplete,false,NA,true,9,7,NA,left,E18_Q2_ansL.png,E18_Q10_ansL.png,within,NA,NaN,NA,left,2537,1,1,6317.399999976158
YdCxsnz9,NA,NA,YdCxsnz9,2020-0188,2021-11-12,13:32:00,15:06:47,NA,incomplete,false,NA,true,9,8,NA,right,E23_Q6_ansR.png,E23_Q3_ansR.png,within,NA,NaN,NA,left,3641.800000011921,0,0,1862.0999999642372
YdCxsnz9,NA,NA,YdCxsnz9,2020-0188,2021-11-12,13:32:00,15:06:47,NA,incomplete,false,NA,true,9,9,NA,right,E18_Q8_ansL.png,E18_Q4_ansR.png,within,NA,NaN,NA,left,3234.100000023842,0,0,1094.4000000357628
YdCxsnz9,NA,NA,YdCxsnz9,2020-0188,2021-11-12,13:32:00,15:06:47,NA,incomplete,false,NA,true,9,10,NA,left,E8_Q8_ansR.png,E18_Q2_ansL.png,between,NA,NaN,NA,right,2258.899999976158,0,1,3577.099999964237
YdCxsnz9,NA,NA,YdCxsnz9,2020-0188,2021-11-12,13:32:00,15:06:47,NA,incomplete,false,NA,true,9,11,NA,right,E18_Q3_ansR.png,E8_Q6_ansL.png,between,NA,NaN,NA,right,5545.300000011921,1,2,1045.1000000238419
