workerId,hitId,assignmentId,subject,studyid,exp_date,exp_start,exp_end,time_start,time_end,practice,encoding,memory,block,trial,stim,answer,left_image,right_image,condition,response,response_time,response_acc,order_response,order_response_time,order_acc,distance_response,distance_response_time
Yk7CMlvJ,NA,NA,Yk7CMlvJ,2020-0188,2021-09-21,10:26:07,11:30:56,NA,incomplete,true,true,NA,0,0,E25_Q3_ansL.png,left,NA,NA,NA,left,3194.89999999991,true,NA,NA,NA,NA,NA
Yk7CMlvJ,NA,NA,Yk7CMlvJ,2020-0188,2021-09-21,10:26:07,11:30:56,NA,incomplete,true,true,NA,0,1,E25_Q6_ansL.png,left,NA,NA,NA,left,2367.19999999972,true,NA,NA,NA,NA,NA
Yk7CMlvJ,NA,NA,Yk7CMlvJ,2020-0188,2021-09-21,10:26:07,11:30:56,NA,incomplete,true,true,NA,0,2,E25_Q7_ansR.png,right,NA,NA,NA,right,2952.69999999972,true,NA,NA,NA,NA,NA
Yk7CMlvJ,NA,NA,Yk7CMlvJ,2020-0188,2021-09-21,10:26:07,11:30:56,NA,incomplete,true,true,NA,0,3,E25_Q9_ansL.png,left,NA,NA,NA,left,1624.40000000037,true,NA,NA,NA,NA,NA
Yk7CMlvJ,NA,NA,Yk7CMlvJ,2020-0188,2021-09-21,10:26:07,11:30:56,NA,incomplete,true,true,NA,0,4,E25_Q10_ansR.png,right,NA,NA,NA,right,1667.20000000019,true,NA,NA,NA,NA,NA
Yk7CMlvJ,NA,NA,Yk7CMlvJ,2020-0188,2021-09-21,10:26:07,11:30:56,NA,incomplete,true,true,NA,0,5,E25_Q1_ansR.png,right,NA,NA,NA,right,1721.60000000009,true,NA,NA,NA,NA,NA
Yk7CMlvJ,NA,NA,Yk7CMlvJ,2020-0188,2021-09-21,10:26:07,11:30:56,NA,incomplete,true,true,NA,0,6,E25_Q8_ansR.png,right,NA,NA,NA,right,1580.20000000019,true,NA,NA,NA,NA,NA
Yk7CMlvJ,NA,NA,Yk7CMlvJ,2020-0188,2021-09-21,10:26:07,11:30:56,NA,incomplete,true,true,NA,0,7,E25_Q5_ansL.png,left,NA,NA,NA,left,2237.69999999972,true,NA,NA,NA,NA,NA
Yk7CMlvJ,NA,NA,Yk7CMlvJ,2020-0188,2021-09-21,10:26:07,11:30:56,NA,incomplete,true,true,NA,0,8,E25_Q2_ansR.png,right,NA,NA,NA,right,1094.29999999981,true,NA,NA,NA,NA,NA
Yk7CMlvJ,NA,NA,Yk7CMlvJ,2020-0188,2021-09-21,10:26:07,11:30:56,NA,incomplete,true,true,NA,0,9,E25_Q4_ansL.png,left,NA,NA,NA,left,2415.60000000009,true,NA,NA,NA,NA,NA
Yk7CMlvJ,NA,NA,Yk7CMlvJ,2020-0188,2021-09-21,10:26:07,11:30:56,NA,incomplete,true,true,NA,0,10,E19_Q3_ansR.png,right,NA,NA,NA,right,1785.5,true,NA,NA,NA,NA,NA
Yk7CMlvJ,NA,NA,Yk7CMlvJ,2020-0188,2021-09-21,10:26:07,11:30:56,NA,incomplete,true,true,NA,0,11,E19_Q8_ansL.png,left,NA,NA,NA,left,1146,true,NA,NA,NA,NA,NA
Yk7CMlvJ,NA,NA,Yk7CMlvJ,2020-0188,2021-09-21,10:26:07,11:30:56,NA,incomplete,true,true,NA,0,12,E19_Q2_ansL.png,left,NA,NA,NA,left,1035.10000000009,true,NA,NA,NA,NA,NA
Yk7CMlvJ,NA,NA,Yk7CMlvJ,2020-0188,2021-09-21,10:26:07,11:30:56,NA,incomplete,true,true,NA,0,13,E19_Q4_ansR.png,right,NA,NA,NA,right,2288.69999999972,true,NA,NA,NA,NA,NA
Yk7CMlvJ,NA,NA,Yk7CMlvJ,2020-0188,2021-09-21,10:26:07,11:30:56,NA,incomplete,true,true,NA,0,14,E19_Q5_ansR.png,right,NA,NA,NA,right,1201.79999999981,true,NA,NA,NA,NA,NA
Yk7CMlvJ,NA,NA,Yk7CMlvJ,2020-0188,2021-09-21,10:26:07,11:30:56,NA,incomplete,true,true,NA,0,15,E19_Q7_ansL.png,left,NA,NA,NA,left,1524.79999999981,true,NA,NA,NA,NA,NA
Yk7CMlvJ,NA,NA,Yk7CMlvJ,2020-0188,2021-09-21,10:26:07,11:30:56,NA,incomplete,true,true,NA,0,16,E19_Q10_ansL.png,left,NA,NA,NA,left,1336.30000000028,true,NA,NA,NA,NA,NA
Yk7CMlvJ,NA,NA,Yk7CMlvJ,2020-0188,2021-09-21,10:26:07,11:30:56,NA,incomplete,true,true,NA,0,17,E19_Q9_ansR.png,right,NA,NA,NA,right,1081.89999999991,true,NA,NA,NA,NA,NA
Yk7CMlvJ,NA,NA,Yk7CMlvJ,2020-0188,2021-09-21,10:26:07,11:30:56,NA,incomplete,true,true,NA,0,18,E19_Q1_ansL.png,left,NA,NA,NA,left,1041.20000000019,true,NA,NA,NA,NA,NA
Yk7CMlvJ,NA,NA,Yk7CMlvJ,2020-0188,2021-09-21,10:26:07,11:30:56,NA,incomplete,true,true,NA,0,19,E19_Q6_ansR.png,right,NA,NA,NA,right,1119.89999999991,true,NA,NA,NA,NA,NA
Yk7CMlvJ,NA,NA,Yk7CMlvJ,2020-0188,2021-09-21,10:26:07,11:30:56,NA,incomplete,true,true,NA,0,20,E18_Q8_ansL.png,left,NA,NA,NA,left,2202.40000000037,true,NA,NA,NA,NA,NA
Yk7CMlvJ,NA,NA,Yk7CMlvJ,2020-0188,2021-09-21,10:26:07,11:30:56,NA,incomplete,true,true,NA,0,21,E18_Q3_ansR.png,right,NA,NA,NA,right,1067.89999999991,true,NA,NA,NA,NA,NA
Yk7CMlvJ,NA,NA,Yk7CMlvJ,2020-0188,2021-09-21,10:26:07,11:30:56,NA,incomplete,true,true,NA,0,22,E18_Q2_ansL.png,left,NA,NA,NA,left,1057.79999999981,true,NA,NA,NA,NA,NA
Yk7CMlvJ,NA,NA,Yk7CMlvJ,2020-0188,2021-09-21,10:26:07,11:30:56,NA,incomplete,true,true,NA,0,23,E18_Q7_ansL.png,left,NA,NA,NA,left,1262.59999999963,true,NA,NA,NA,NA,NA
Yk7CMlvJ,NA,NA,Yk7CMlvJ,2020-0188,2021-09-21,10:26:07,11:30:56,NA,incomplete,true,true,NA,0,24,E18_Q6_ansR.png,right,NA,NA,NA,right,1076,true,NA,NA,NA,NA,NA
Yk7CMlvJ,NA,NA,Yk7CMlvJ,2020-0188,2021-09-21,10:26:07,11:30:56,NA,incomplete,true,true,NA,0,25,E18_Q10_ansL.png,left,NA,NA,NA,left,1460,true,NA,NA,NA,NA,NA
Yk7CMlvJ,NA,NA,Yk7CMlvJ,2020-0188,2021-09-21,10:26:07,11:30:56,NA,incomplete,true,true,NA,0,26,E18_Q5_ansR.png,right,NA,NA,NA,right,1073.60000000009,true,NA,NA,NA,NA,NA
Yk7CMlvJ,NA,NA,Yk7CMlvJ,2020-0188,2021-09-21,10:26:07,11:30:56,NA,incomplete,true,true,NA,0,27,E18_Q1_ansL.png,left,NA,NA,NA,left,967.299999999814,true,NA,NA,NA,NA,NA
Yk7CMlvJ,NA,NA,Yk7CMlvJ,2020-0188,2021-09-21,10:26:07,11:30:56,NA,incomplete,true,true,NA,0,28,E18_Q4_ansR.png,right,NA,NA,NA,right,1037.90000000037,true,NA,NA,NA,NA,NA
Yk7CMlvJ,NA,NA,Yk7CMlvJ,2020-0188,2021-09-21,10:26:07,11:30:56,NA,incomplete,true,true,NA,0,29,E18_Q9_ansR.png,right,NA,NA,NA,right,874.5,true,NA,NA,NA,NA,NA
Yk7CMlvJ,NA,NA,Yk7CMlvJ,2020-0188,2021-09-21,10:26:07,11:30:56,NA,incomplete,true,NA,true,0,0,NA,left,E19_Q2_ansL.png,E19_Q7_ansL.png,within,NA,NaN,NA,left,3759.2000000001863,1,1,4341.300000000279
Yk7CMlvJ,NA,NA,Yk7CMlvJ,2020-0188,2021-09-21,10:26:07,11:30:56,NA,incomplete,true,NA,true,0,1,NA,left,E19_Q6_ansR.png,E18_Q2_ansL.png,between,NA,NaN,NA,left,3184.2000000001863,1,2,3479.600000000093
Yk7CMlvJ,NA,NA,Yk7CMlvJ,2020-0188,2021-09-21,10:26:07,11:30:56,NA,incomplete,true,NA,true,0,2,NA,left,E19_Q1_ansL.png,E18_Q3_ansR.png,between,NA,NaN,NA,left,1808.5,1,2,3332
Yk7CMlvJ,NA,NA,Yk7CMlvJ,2020-0188,2021-09-21,10:26:07,11:30:56,NA,incomplete,true,NA,true,0,3,NA,right,E18_Q6_ansR.png,E18_Q3_ansR.png,within,NA,NaN,NA,left,3471.899999999907,0,0,1577.2000000001863
Yk7CMlvJ,NA,NA,Yk7CMlvJ,2020-0188,2021-09-21,10:26:07,11:30:56,NA,incomplete,true,NA,true,0,4,NA,left,E19_Q5_ansR.png,E19_Q9_ansR.png,within,NA,NaN,NA,right,3823.100000000093,0,0,5948.100000000093
Yk7CMlvJ,NA,NA,Yk7CMlvJ,2020-0188,2021-09-21,10:26:07,11:30:56,NA,incomplete,true,NA,true,0,5,NA,right,E25_Q2_ansR.png,E25_Q1_ansR.png,within,NA,NaN,NA,right,5533.399999999907,1,1,1373.5
Yk7CMlvJ,NA,NA,Yk7CMlvJ,2020-0188,2021-09-21,10:26:07,11:30:56,NA,incomplete,true,NA,true,0,6,NA,right,E19_Q6_ansR.png,E19_Q10_ansL.png,within,NA,NaN,NA,right,4678.800000000279,1,1,2527.5
Yk7CMlvJ,NA,NA,Yk7CMlvJ,2020-0188,2021-09-21,10:26:07,11:30:56,NA,incomplete,true,NA,true,0,7,NA,right,E19_Q8_ansL.png,E25_Q2_ansR.png,between,NA,NaN,NA,right,2026.2999999998137,1,3,1549.7000000001863
Yk7CMlvJ,NA,NA,Yk7CMlvJ,2020-0188,2021-09-21,10:26:07,11:30:56,NA,incomplete,true,NA,true,0,8,NA,right,E18_Q10_ansL.png,E18_Q2_ansL.png,within,NA,NaN,NA,left,4018.3000000002794,0,1,6017.5
Yk7CMlvJ,NA,NA,Yk7CMlvJ,2020-0188,2021-09-21,10:26:07,11:30:56,NA,incomplete,true,NA,true,0,9,NA,left,E18_Q6_ansR.png,E18_Q1_ansL.png,within,NA,NaN,NA,right,2107.3000000002794,0,1,1066.2000000001863
Yk7CMlvJ,NA,NA,Yk7CMlvJ,2020-0188,2021-09-21,10:26:07,11:30:56,NA,incomplete,true,NA,true,0,10,NA,left,E19_Q8_ansL.png,E19_Q5_ansR.png,within,NA,NaN,NA,left,1911.6000000000931,1,1,814.1000000000931
Yk7CMlvJ,NA,NA,Yk7CMlvJ,2020-0188,2021-09-21,10:26:07,11:30:56,NA,incomplete,true,NA,true,0,11,NA,right,E18_Q7_ansL.png,E18_Q8_ansL.png,within,NA,NaN,NA,right,3688.2000000001863,1,1,1811.4000000003725
Yk7CMlvJ,NA,NA,Yk7CMlvJ,2020-0188,2021-09-21,10:26:07,11:30:56,NA,incomplete,true,NA,true,0,12,NA,right,E25_Q10_ansR.png,E25_Q6_ansL.png,within,NA,NaN,NA,right,3851.899999999907,1,0,898.3999999999069
Yk7CMlvJ,NA,NA,Yk7CMlvJ,2020-0188,2021-09-21,10:26:07,11:30:56,NA,incomplete,true,NA,true,0,13,NA,right,E25_Q4_ansL.png,E25_Q8_ansR.png,within,NA,NaN,NA,right,2499.7999999998137,1,1,1426.8000000002794
Yk7CMlvJ,NA,NA,Yk7CMlvJ,2020-0188,2021-09-21,10:26:07,11:30:56,NA,incomplete,true,NA,true,0,14,NA,left,E25_Q9_ansL.png,E25_Q8_ansR.png,within,NA,NaN,NA,right,3344.2000000001863,0,1,963.2999999998137
Yk7CMlvJ,NA,NA,Yk7CMlvJ,2020-0188,2021-09-21,10:26:07,11:30:56,NA,incomplete,true,NA,true,0,15,NA,left,E25_Q7_ansR.png,E25_Q1_ansR.png,within,NA,NaN,NA,left,2392.399999999907,1,1,1753.6000000000931
Yk7CMlvJ,NA,NA,Yk7CMlvJ,2020-0188,2021-09-21,10:26:07,11:30:56,NA,incomplete,true,NA,true,0,16,NA,right,E25_Q5_ansL.png,E25_Q10_ansR.png,within,NA,NaN,NA,left,3279.5,0,0,2281.600000000093
Yk7CMlvJ,NA,NA,Yk7CMlvJ,2020-0188,2021-09-21,10:26:07,11:30:56,NA,incomplete,true,NA,true,0,17,NA,left,E25_Q5_ansL.png,E19_Q3_ansR.png,between,NA,NaN,NA,left,1405.1000000000931,1,2,1004.8999999999069
Yk7CMlvJ,NA,NA,Yk7CMlvJ,2020-0188,2021-09-21,10:26:07,11:30:56,NA,incomplete,true,NA,true,0,18,NA,right,E19_Q4_ansR.png,E19_Q3_ansR.png,within,NA,NaN,NA,right,3122.5999999996275,1,1,1954.6000000000931
Yk7CMlvJ,NA,NA,Yk7CMlvJ,2020-0188,2021-09-21,10:26:07,11:30:56,NA,incomplete,true,NA,true,0,19,NA,left,E19_Q9_ansR.png,E18_Q8_ansL.png,between,NA,NaN,NA,left,1568.7000000001863,1,2,867.6000000000931
Yk7CMlvJ,NA,NA,Yk7CMlvJ,2020-0188,2021-09-21,10:26:07,11:30:56,NA,incomplete,true,NA,true,0,20,NA,left,E18_Q7_ansL.png,E18_Q5_ansR.png,within,NA,NaN,NA,left,4019.5,1,0,1593.6000000000931
Yk7CMlvJ,NA,NA,Yk7CMlvJ,2020-0188,2021-09-21,10:26:07,11:30:56,NA,incomplete,true,NA,true,0,21,NA,left,E18_Q5_ansR.png,E18_Q9_ansR.png,within,NA,NaN,NA,right,3852.399999999907,0,0,1303.9000000003725
Yk7CMlvJ,NA,NA,Yk7CMlvJ,2020-0188,2021-09-21,10:26:07,11:30:56,NA,incomplete,true,NA,true,0,22,NA,left,E19_Q7_ansL.png,E19_Q1_ansL.png,within,NA,NaN,NA,right,3083.2999999998137,0,0,868.2000000001863
Yk7CMlvJ,NA,NA,Yk7CMlvJ,2020-0188,2021-09-21,10:26:07,11:30:56,NA,incomplete,true,NA,true,0,23,NA,left,E19_Q4_ansR.png,E19_Q10_ansL.png,within,NA,NaN,NA,right,2791.7000000001863,0,0,786.8000000002794
Yk7CMlvJ,NA,NA,Yk7CMlvJ,2020-0188,2021-09-21,10:26:07,11:30:56,NA,incomplete,true,NA,true,0,24,NA,left,E25_Q4_ansL.png,E19_Q2_ansL.png,between,NA,NaN,NA,left,1423,1,2,1232.7999999998137
Yk7CMlvJ,NA,NA,Yk7CMlvJ,2020-0188,2021-09-21,10:26:07,11:30:56,NA,incomplete,true,NA,true,0,25,NA,right,E25_Q9_ansL.png,E25_Q3_ansL.png,within,NA,NaN,NA,right,2419,1,0,867.6999999997206
Yk7CMlvJ,NA,NA,Yk7CMlvJ,2020-0188,2021-09-21,10:26:07,11:30:56,NA,incomplete,true,NA,true,0,26,NA,left,E18_Q10_ansL.png,E18_Q4_ansR.png,within,NA,NaN,NA,right,3486.7999999998137,0,1,2346
Yk7CMlvJ,NA,NA,Yk7CMlvJ,2020-0188,2021-09-21,10:26:07,11:30:56,NA,incomplete,false,true,NA,1,0,E7_Q7_ansL.png,left,NA,NA,NA,left,1779.20000000019,true,NA,NA,NA,NA,NA
Yk7CMlvJ,NA,NA,Yk7CMlvJ,2020-0188,2021-09-21,10:26:07,11:30:56,NA,incomplete,false,true,NA,1,1,E7_Q2_ansL.png,left,NA,NA,NA,left,1199.39999999991,true,NA,NA,NA,NA,NA
Yk7CMlvJ,NA,NA,Yk7CMlvJ,2020-0188,2021-09-21,10:26:07,11:30:56,NA,incomplete,false,true,NA,1,2,E7_Q6_ansR.png,right,NA,NA,NA,right,947.799999999814,true,NA,NA,NA,NA,NA
Yk7CMlvJ,NA,NA,Yk7CMlvJ,2020-0188,2021-09-21,10:26:07,11:30:56,NA,incomplete,false,true,NA,1,3,E7_Q5_ansR.png,right,NA,NA,NA,right,997.399999999907,true,NA,NA,NA,NA,NA
Yk7CMlvJ,NA,NA,Yk7CMlvJ,2020-0188,2021-09-21,10:26:07,11:30:56,NA,incomplete,false,true,NA,1,4,E7_Q10_ansR.png,right,NA,NA,NA,right,1301.39999999991,true,NA,NA,NA,NA,NA
Yk7CMlvJ,NA,NA,Yk7CMlvJ,2020-0188,2021-09-21,10:26:07,11:30:56,NA,incomplete,false,true,NA,1,5,E7_Q9_ansR.png,right,NA,NA,NA,right,1969.89999999991,true,NA,NA,NA,NA,NA
Yk7CMlvJ,NA,NA,Yk7CMlvJ,2020-0188,2021-09-21,10:26:07,11:30:56,NA,incomplete,false,true,NA,1,6,E7_Q4_ansR.png,right,NA,NA,NA,right,1229.20000000019,true,NA,NA,NA,NA,NA
Yk7CMlvJ,NA,NA,Yk7CMlvJ,2020-0188,2021-09-21,10:26:07,11:30:56,NA,incomplete,false,true,NA,1,7,E7_Q1_ansL.png,left,NA,NA,NA,left,968.300000000279,true,NA,NA,NA,NA,NA
Yk7CMlvJ,NA,NA,Yk7CMlvJ,2020-0188,2021-09-21,10:26:07,11:30:56,NA,incomplete,false,true,NA,1,8,E7_Q3_ansR.png,right,NA,NA,NA,right,1435.39999999991,true,NA,NA,NA,NA,NA
Yk7CMlvJ,NA,NA,Yk7CMlvJ,2020-0188,2021-09-21,10:26:07,11:30:56,NA,incomplete,false,true,NA,1,9,E7_Q8_ansL.png,left,NA,NA,NA,left,904.299999999814,true,NA,NA,NA,NA,NA
Yk7CMlvJ,NA,NA,Yk7CMlvJ,2020-0188,2021-09-21,10:26:07,11:30:56,NA,incomplete,false,true,NA,1,10,E20_Q7_ansL.png,left,NA,NA,NA,left,2459.09999999963,true,NA,NA,NA,NA,NA
Yk7CMlvJ,NA,NA,Yk7CMlvJ,2020-0188,2021-09-21,10:26:07,11:30:56,NA,incomplete,false,true,NA,1,11,E20_Q5_ansR.png,right,NA,NA,NA,right,2597.5,true,NA,NA,NA,NA,NA
Yk7CMlvJ,NA,NA,Yk7CMlvJ,2020-0188,2021-09-21,10:26:07,11:30:56,NA,incomplete,false,true,NA,1,12,E20_Q10_ansL.png,left,NA,NA,NA,left,2313.20000000019,true,NA,NA,NA,NA,NA
Yk7CMlvJ,NA,NA,Yk7CMlvJ,2020-0188,2021-09-21,10:26:07,11:30:56,NA,incomplete,false,true,NA,1,13,E20_Q4_ansR.png,right,NA,NA,NA,right,1061.40000000037,true,NA,NA,NA,NA,NA
Yk7CMlvJ,NA,NA,Yk7CMlvJ,2020-0188,2021-09-21,10:26:07,11:30:56,NA,incomplete,false,true,NA,1,14,E20_Q9_ansR.png,right,NA,NA,NA,right,1151.60000000009,true,NA,NA,NA,NA,NA
Yk7CMlvJ,NA,NA,Yk7CMlvJ,2020-0188,2021-09-21,10:26:07,11:30:56,NA,incomplete,false,true,NA,1,15,E20_Q1_ansL.png,left,NA,NA,NA,left,1378.89999999991,true,NA,NA,NA,NA,NA
Yk7CMlvJ,NA,NA,Yk7CMlvJ,2020-0188,2021-09-21,10:26:07,11:30:56,NA,incomplete,false,true,NA,1,16,E20_Q6_ansR.png,right,NA,NA,NA,right,1257.69999999972,true,NA,NA,NA,NA,NA
Yk7CMlvJ,NA,NA,Yk7CMlvJ,2020-0188,2021-09-21,10:26:07,11:30:56,NA,incomplete,false,true,NA,1,17,E20_Q3_ansR.png,right,NA,NA,NA,right,1304.80000000028,true,NA,NA,NA,NA,NA
Yk7CMlvJ,NA,NA,Yk7CMlvJ,2020-0188,2021-09-21,10:26:07,11:30:56,NA,incomplete,false,true,NA,1,18,E20_Q8_ansL.png,left,NA,NA,NA,left,1620.39999999991,true,NA,NA,NA,NA,NA
Yk7CMlvJ,NA,NA,Yk7CMlvJ,2020-0188,2021-09-21,10:26:07,11:30:56,NA,incomplete,false,true,NA,1,19,E20_Q2_ansL.png,left,NA,NA,NA,left,1555.89999999991,true,NA,NA,NA,NA,NA
Yk7CMlvJ,NA,NA,Yk7CMlvJ,2020-0188,2021-09-21,10:26:07,11:30:56,NA,incomplete,false,true,NA,1,20,E21_Q5_ansR.png,right,NA,NA,NA,right,1780.5,true,NA,NA,NA,NA,NA
Yk7CMlvJ,NA,NA,Yk7CMlvJ,2020-0188,2021-09-21,10:26:07,11:30:56,NA,incomplete,false,true,NA,1,21,E21_Q9_ansR.png,right,NA,NA,NA,right,1612.10000000009,true,NA,NA,NA,NA,NA
Yk7CMlvJ,NA,NA,Yk7CMlvJ,2020-0188,2021-09-21,10:26:07,11:30:56,NA,incomplete,false,true,NA,1,22,E21_Q2_ansL.png,left,NA,NA,NA,left,883.200000000186,true,NA,NA,NA,NA,NA
Yk7CMlvJ,NA,NA,Yk7CMlvJ,2020-0188,2021-09-21,10:26:07,11:30:56,NA,incomplete,false,true,NA,1,23,E21_Q10_ansL.png,left,NA,NA,NA,left,948.299999999814,true,NA,NA,NA,NA,NA
Yk7CMlvJ,NA,NA,Yk7CMlvJ,2020-0188,2021-09-21,10:26:07,11:30:56,NA,incomplete,false,true,NA,1,24,E21_Q7_ansL.png,left,NA,NA,NA,left,835.699999999721,true,NA,NA,NA,NA,NA
Yk7CMlvJ,NA,NA,Yk7CMlvJ,2020-0188,2021-09-21,10:26:07,11:30:56,NA,incomplete,false,true,NA,1,25,E21_Q6_ansR.png,right,NA,NA,NA,right,1102.10000000009,true,NA,NA,NA,NA,NA
Yk7CMlvJ,NA,NA,Yk7CMlvJ,2020-0188,2021-09-21,10:26:07,11:30:56,NA,incomplete,false,true,NA,1,26,E21_Q8_ansL.png,left,NA,NA,NA,left,816.600000000093,true,NA,NA,NA,NA,NA
Yk7CMlvJ,NA,NA,Yk7CMlvJ,2020-0188,2021-09-21,10:26:07,11:30:56,NA,incomplete,false,true,NA,1,27,E21_Q1_ansL.png,left,NA,NA,NA,left,1478.69999999972,true,NA,NA,NA,NA,NA
Yk7CMlvJ,NA,NA,Yk7CMlvJ,2020-0188,2021-09-21,10:26:07,11:30:56,NA,incomplete,false,true,NA,1,28,E21_Q3_ansR.png,right,NA,NA,NA,right,929.799999999814,true,NA,NA,NA,NA,NA
Yk7CMlvJ,NA,NA,Yk7CMlvJ,2020-0188,2021-09-21,10:26:07,11:30:56,NA,incomplete,false,true,NA,1,29,E21_Q4_ansR.png,right,NA,NA,NA,right,928.399999999907,true,NA,NA,NA,NA,NA
Yk7CMlvJ,NA,NA,Yk7CMlvJ,2020-0188,2021-09-21,10:26:07,11:30:56,NA,incomplete,false,NA,true,1,0,NA,right,E7_Q9_ansR.png,E7_Q6_ansR.png,within,NA,NaN,NA,left,2359,0,0,1060.7000000001863
Yk7CMlvJ,NA,NA,Yk7CMlvJ,2020-0188,2021-09-21,10:26:07,11:30:56,NA,incomplete,false,NA,true,1,1,NA,left,E21_Q7_ansL.png,E21_Q1_ansL.png,within,NA,NaN,NA,left,2788.100000000093,1,0,1210.4000000003725
Yk7CMlvJ,NA,NA,Yk7CMlvJ,2020-0188,2021-09-21,10:26:07,11:30:56,NA,incomplete,false,NA,true,1,2,NA,left,E21_Q10_ansL.png,E21_Q8_ansL.png,within,NA,NaN,NA,right,3047,0,1,3401.2999999998137
Yk7CMlvJ,NA,NA,Yk7CMlvJ,2020-0188,2021-09-21,10:26:07,11:30:56,NA,incomplete,false,NA,true,1,3,NA,left,E21_Q6_ansR.png,E21_Q3_ansR.png,within,NA,NaN,NA,right,4427.899999999907,0,1,1346.8000000002794
Yk7CMlvJ,NA,NA,Yk7CMlvJ,2020-0188,2021-09-21,10:26:07,11:30:56,NA,incomplete,false,NA,true,1,4,NA,right,E20_Q2_ansL.png,E20_Q6_ansR.png,within,NA,NaN,NA,right,5443,1,0,798.3999999999069
Yk7CMlvJ,NA,NA,Yk7CMlvJ,2020-0188,2021-09-21,10:26:07,11:30:56,NA,incomplete,false,NA,true,1,5,NA,left,E20_Q5_ansR.png,E20_Q9_ansR.png,within,NA,NaN,NA,left,2809,1,0,782.7000000001863
Yk7CMlvJ,NA,NA,Yk7CMlvJ,2020-0188,2021-09-21,10:26:07,11:30:56,NA,incomplete,false,NA,true,1,6,NA,right,E7_Q5_ansR.png,E7_Q7_ansL.png,within,NA,NaN,NA,right,1600.5999999996275,1,0,4938.399999999907
Yk7CMlvJ,NA,NA,Yk7CMlvJ,2020-0188,2021-09-21,10:26:07,11:30:56,NA,incomplete,false,NA,true,1,7,NA,right,E21_Q9_ansR.png,E20_Q8_ansL.png,between,NA,NaN,NA,right,3374.100000000093,1,2,1076
Yk7CMlvJ,NA,NA,Yk7CMlvJ,2020-0188,2021-09-21,10:26:07,11:30:56,NA,incomplete,false,NA,true,1,8,NA,left,E7_Q9_ansR.png,E7_Q3_ansR.png,within,NA,NaN,NA,left,2022.3999999999069,1,1,845.2999999998137
Yk7CMlvJ,NA,NA,Yk7CMlvJ,2020-0188,2021-09-21,10:26:07,11:30:56,NA,incomplete,false,NA,true,1,9,NA,left,E7_Q1_ansL.png,E20_Q7_ansL.png,between,NA,NaN,NA,left,1557.8000000002794,1,3,1940.2000000001863
Yk7CMlvJ,NA,NA,Yk7CMlvJ,2020-0188,2021-09-21,10:26:07,11:30:56,NA,incomplete,false,NA,true,1,10,NA,right,E20_Q1_ansL.png,E20_Q10_ansL.png,within,NA,NaN,NA,right,3546.7999999998137,1,1,1181.8999999999069
Yk7CMlvJ,NA,NA,Yk7CMlvJ,2020-0188,2021-09-21,10:26:07,11:30:56,NA,incomplete,false,NA,true,1,11,NA,left,E21_Q8_ansL.png,E21_Q4_ansR.png,within,NA,NaN,NA,left,2393.7000000001863,1,1,1041.7999999998137
Yk7CMlvJ,NA,NA,Yk7CMlvJ,2020-0188,2021-09-21,10:26:07,11:30:56,NA,incomplete,false,NA,true,1,12,NA,left,E7_Q5_ansR.png,E7_Q4_ansR.png,within,NA,NaN,NA,left,2381.7999999998137,1,1,1178.8999999999069
Yk7CMlvJ,NA,NA,Yk7CMlvJ,2020-0188,2021-09-21,10:26:07,11:30:56,NA,incomplete,false,NA,true,1,13,NA,right,E21_Q7_ansL.png,E21_Q9_ansR.png,within,NA,NaN,NA,right,1707.6999999997206,1,1,1505.3000000002794
Yk7CMlvJ,NA,NA,Yk7CMlvJ,2020-0188,2021-09-21,10:26:07,11:30:56,NA,incomplete,false,NA,true,1,14,NA,right,E7_Q1_ansL.png,E7_Q10_ansR.png,within,NA,NaN,NA,right,2754,1,1,935.3999999999069
Yk7CMlvJ,NA,NA,Yk7CMlvJ,2020-0188,2021-09-21,10:26:07,11:30:56,NA,incomplete,false,NA,true,1,15,NA,left,E21_Q2_ansL.png,E21_Q6_ansR.png,within,NA,NaN,NA,left,2268.2000000001863,1,1,746.8999999999069
Yk7CMlvJ,NA,NA,Yk7CMlvJ,2020-0188,2021-09-21,10:26:07,11:30:56,NA,incomplete,false,NA,true,1,16,NA,right,E20_Q3_ansR.png,E20_Q9_ansR.png,within,NA,NaN,NA,right,4428.100000000093,1,0,2087.2000000001863
Yk7CMlvJ,NA,NA,Yk7CMlvJ,2020-0188,2021-09-21,10:26:07,11:30:56,NA,incomplete,false,NA,true,1,17,NA,right,E20_Q6_ansR.png,E20_Q4_ansR.png,within,NA,NaN,NA,left,1835.3000000002794,0,1,1040.9000000003725
Yk7CMlvJ,NA,NA,Yk7CMlvJ,2020-0188,2021-09-21,10:26:07,11:30:56,NA,incomplete,false,NA,true,1,18,NA,right,E20_Q5_ansR.png,E7_Q3_ansR.png,between,NA,NaN,NA,right,1903.8999999999069,1,3,1452.2000000001863
Yk7CMlvJ,NA,NA,Yk7CMlvJ,2020-0188,2021-09-21,10:26:07,11:30:56,NA,incomplete,false,NA,true,1,19,NA,right,E7_Q10_ansR.png,E7_Q2_ansL.png,within,NA,NaN,NA,right,2866.0999999996275,1,0,1200.8999999999069
Yk7CMlvJ,NA,NA,Yk7CMlvJ,2020-0188,2021-09-21,10:26:07,11:30:56,NA,incomplete,false,NA,true,1,20,NA,left,E21_Q5_ansR.png,E21_Q10_ansL.png,within,NA,NaN,NA,left,2756.600000000093,1,1,1059.2000000001863
Yk7CMlvJ,NA,NA,Yk7CMlvJ,2020-0188,2021-09-21,10:26:07,11:30:56,NA,incomplete,false,NA,true,1,21,NA,left,E20_Q3_ansR.png,E21_Q5_ansR.png,between,NA,NaN,NA,right,2844.7999999998137,0,2,1306.8999999999069
Yk7CMlvJ,NA,NA,Yk7CMlvJ,2020-0188,2021-09-21,10:26:07,11:30:56,NA,incomplete,false,NA,true,1,22,NA,right,E20_Q4_ansR.png,E20_Q7_ansL.png,within,NA,NaN,NA,right,2763.8000000002794,1,1,1073.8000000002794
Yk7CMlvJ,NA,NA,Yk7CMlvJ,2020-0188,2021-09-21,10:26:07,11:30:56,NA,incomplete,false,NA,true,1,23,NA,left,E20_Q1_ansL.png,E20_Q8_ansL.png,within,NA,NaN,NA,left,3161.899999999907,1,1,1151.3999999999069
Yk7CMlvJ,NA,NA,Yk7CMlvJ,2020-0188,2021-09-21,10:26:07,11:30:56,NA,incomplete,false,NA,true,1,24,NA,right,E20_Q10_ansL.png,E7_Q8_ansL.png,between,NA,NaN,NA,right,1499.8999999999069,1,3,2698.600000000093
Yk7CMlvJ,NA,NA,Yk7CMlvJ,2020-0188,2021-09-21,10:26:07,11:30:56,NA,incomplete,false,NA,true,1,25,NA,right,E7_Q8_ansL.png,E7_Q4_ansR.png,within,NA,NaN,NA,right,3697,1,1,1165.6000000000931
Yk7CMlvJ,NA,NA,Yk7CMlvJ,2020-0188,2021-09-21,10:26:07,11:30:56,NA,incomplete,false,NA,true,1,26,NA,left,E20_Q2_ansL.png,E21_Q2_ansL.png,between,NA,NaN,NA,right,2034.6999999997206,0,2,2044.7000000001863
Yk7CMlvJ,NA,NA,Yk7CMlvJ,2020-0188,2021-09-21,10:26:07,11:30:56,NA,incomplete,false,true,NA,2,0,E29_Q6_ansR.png,right,NA,NA,NA,right,2201.20000000019,true,NA,NA,NA,NA,NA
Yk7CMlvJ,NA,NA,Yk7CMlvJ,2020-0188,2021-09-21,10:26:07,11:30:56,NA,incomplete,false,true,NA,2,1,E29_Q1_ansL.png,left,NA,NA,NA,left,1149.89999999991,true,NA,NA,NA,NA,NA
Yk7CMlvJ,NA,NA,Yk7CMlvJ,2020-0188,2021-09-21,10:26:07,11:30:56,NA,incomplete,false,true,NA,2,2,E29_Q3_ansR.png,right,NA,NA,NA,right,1269.89999999991,true,NA,NA,NA,NA,NA
Yk7CMlvJ,NA,NA,Yk7CMlvJ,2020-0188,2021-09-21,10:26:07,11:30:56,NA,incomplete,false,true,NA,2,3,E29_Q5_ansR.png,right,NA,NA,NA,right,1184.79999999981,true,NA,NA,NA,NA,NA
Yk7CMlvJ,NA,NA,Yk7CMlvJ,2020-0188,2021-09-21,10:26:07,11:30:56,NA,incomplete,false,true,NA,2,4,E29_Q4_ansR.png,right,NA,NA,NA,right,1867.20000000019,true,NA,NA,NA,NA,NA
Yk7CMlvJ,NA,NA,Yk7CMlvJ,2020-0188,2021-09-21,10:26:07,11:30:56,NA,incomplete,false,true,NA,2,5,E29_Q10_ansL.png,left,NA,NA,NA,left,1188.79999999981,true,NA,NA,NA,NA,NA
Yk7CMlvJ,NA,NA,Yk7CMlvJ,2020-0188,2021-09-21,10:26:07,11:30:56,NA,incomplete,false,true,NA,2,6,E29_Q7_ansL.png,left,NA,NA,NA,left,1196.60000000009,true,NA,NA,NA,NA,NA
Yk7CMlvJ,NA,NA,Yk7CMlvJ,2020-0188,2021-09-21,10:26:07,11:30:56,NA,incomplete,false,true,NA,2,7,E29_Q9_ansR.png,right,NA,NA,NA,right,1547.39999999991,true,NA,NA,NA,NA,NA
Yk7CMlvJ,NA,NA,Yk7CMlvJ,2020-0188,2021-09-21,10:26:07,11:30:56,NA,incomplete,false,true,NA,2,8,E29_Q2_ansL.png,left,NA,NA,NA,left,1994.29999999981,true,NA,NA,NA,NA,NA
Yk7CMlvJ,NA,NA,Yk7CMlvJ,2020-0188,2021-09-21,10:26:07,11:30:56,NA,incomplete,false,true,NA,2,9,E29_Q8_ansL.png,left,NA,NA,NA,left,1221.89999999991,true,NA,NA,NA,NA,NA
Yk7CMlvJ,NA,NA,Yk7CMlvJ,2020-0188,2021-09-21,10:26:07,11:30:56,NA,incomplete,false,true,NA,2,10,E13_Q5_ansR.png,right,NA,NA,NA,right,1430,true,NA,NA,NA,NA,NA
Yk7CMlvJ,NA,NA,Yk7CMlvJ,2020-0188,2021-09-21,10:26:07,11:30:56,NA,incomplete,false,true,NA,2,11,E13_Q6_ansR.png,right,NA,NA,NA,right,868.700000000186,true,NA,NA,NA,NA,NA
Yk7CMlvJ,NA,NA,Yk7CMlvJ,2020-0188,2021-09-21,10:26:07,11:30:56,NA,incomplete,false,true,NA,2,12,E13_Q3_ansR.png,right,NA,NA,NA,right,1253.5,true,NA,NA,NA,NA,NA
Yk7CMlvJ,NA,NA,Yk7CMlvJ,2020-0188,2021-09-21,10:26:07,11:30:56,NA,incomplete,false,true,NA,2,13,E13_Q7_ansL.png,left,NA,NA,NA,left,1447.89999999991,true,NA,NA,NA,NA,NA
Yk7CMlvJ,NA,NA,Yk7CMlvJ,2020-0188,2021-09-21,10:26:07,11:30:56,NA,incomplete,false,true,NA,2,14,E13_Q8_ansL.png,left,NA,NA,NA,left,1163.70000000019,true,NA,NA,NA,NA,NA
Yk7CMlvJ,NA,NA,Yk7CMlvJ,2020-0188,2021-09-21,10:26:07,11:30:56,NA,incomplete,false,true,NA,2,15,E13_Q10_ansL.png,left,NA,NA,NA,left,1432.20000000019,true,NA,NA,NA,NA,NA
Yk7CMlvJ,NA,NA,Yk7CMlvJ,2020-0188,2021-09-21,10:26:07,11:30:56,NA,incomplete,false,true,NA,2,16,E13_Q2_ansL.png,left,NA,NA,NA,left,1291.20000000019,true,NA,NA,NA,NA,NA
Yk7CMlvJ,NA,NA,Yk7CMlvJ,2020-0188,2021-09-21,10:26:07,11:30:56,NA,incomplete,false,true,NA,2,17,E13_Q9_ansR.png,right,NA,NA,NA,right,1202.10000000009,true,NA,NA,NA,NA,NA
Yk7CMlvJ,NA,NA,Yk7CMlvJ,2020-0188,2021-09-21,10:26:07,11:30:56,NA,incomplete,false,true,NA,2,18,E13_Q4_ansR.png,right,NA,NA,NA,right,1218.69999999972,true,NA,NA,NA,NA,NA
Yk7CMlvJ,NA,NA,Yk7CMlvJ,2020-0188,2021-09-21,10:26:07,11:30:56,NA,incomplete,false,true,NA,2,19,E13_Q1_ansL.png,left,NA,NA,NA,left,1521.40000000037,true,NA,NA,NA,NA,NA
Yk7CMlvJ,NA,NA,Yk7CMlvJ,2020-0188,2021-09-21,10:26:07,11:30:56,NA,incomplete,false,true,NA,2,20,E23_Q9_ansR.png,right,NA,NA,NA,right,2339.10000000009,true,NA,NA,NA,NA,NA
Yk7CMlvJ,NA,NA,Yk7CMlvJ,2020-0188,2021-09-21,10:26:07,11:30:56,NA,incomplete,false,true,NA,2,21,E23_Q3_ansR.png,right,NA,NA,NA,right,1147.5,true,NA,NA,NA,NA,NA
Yk7CMlvJ,NA,NA,Yk7CMlvJ,2020-0188,2021-09-21,10:26:07,11:30:56,NA,incomplete,false,true,NA,2,22,E23_Q8_ansL.png,left,NA,NA,NA,left,1033,true,NA,NA,NA,NA,NA
Yk7CMlvJ,NA,NA,Yk7CMlvJ,2020-0188,2021-09-21,10:26:07,11:30:56,NA,incomplete,false,true,NA,2,23,E23_Q4_ansR.png,right,NA,NA,NA,right,1028.5,true,NA,NA,NA,NA,NA
Yk7CMlvJ,NA,NA,Yk7CMlvJ,2020-0188,2021-09-21,10:26:07,11:30:56,NA,incomplete,false,true,NA,2,24,E23_Q6_ansR.png,right,NA,NA,NA,right,1174.20000000019,true,NA,NA,NA,NA,NA
Yk7CMlvJ,NA,NA,Yk7CMlvJ,2020-0188,2021-09-21,10:26:07,11:30:56,NA,incomplete,false,true,NA,2,25,E23_Q1_ansL.png,left,NA,NA,NA,left,1102.69999999972,true,NA,NA,NA,NA,NA
Yk7CMlvJ,NA,NA,Yk7CMlvJ,2020-0188,2021-09-21,10:26:07,11:30:56,NA,incomplete,false,true,NA,2,26,E23_Q10_ansL.png,left,NA,NA,NA,left,1175.80000000028,true,NA,NA,NA,NA,NA
Yk7CMlvJ,NA,NA,Yk7CMlvJ,2020-0188,2021-09-21,10:26:07,11:30:56,NA,incomplete,false,true,NA,2,27,E23_Q7_ansL.png,left,NA,NA,NA,left,1018.60000000009,true,NA,NA,NA,NA,NA
Yk7CMlvJ,NA,NA,Yk7CMlvJ,2020-0188,2021-09-21,10:26:07,11:30:56,NA,incomplete,false,true,NA,2,28,E23_Q2_ansL.png,left,NA,NA,NA,left,1074.29999999981,true,NA,NA,NA,NA,NA
Yk7CMlvJ,NA,NA,Yk7CMlvJ,2020-0188,2021-09-21,10:26:07,11:30:56,NA,incomplete,false,true,NA,2,29,E23_Q5_ansR.png,right,NA,NA,NA,right,929.399999999907,true,NA,NA,NA,NA,NA
Yk7CMlvJ,NA,NA,Yk7CMlvJ,2020-0188,2021-09-21,10:26:07,11:30:56,NA,incomplete,false,NA,true,2,0,NA,left,E13_Q9_ansR.png,E23_Q9_ansR.png,between,NA,NaN,NA,left,3388.4000000003725,1,2,1261.7999999998137
Yk7CMlvJ,NA,NA,Yk7CMlvJ,2020-0188,2021-09-21,10:26:07,11:30:56,NA,incomplete,false,NA,true,2,1,NA,left,E13_Q8_ansL.png,E13_Q9_ansR.png,within,NA,NaN,NA,left,4831.799999999814,1,1,879.4000000003725
Yk7CMlvJ,NA,NA,Yk7CMlvJ,2020-0188,2021-09-21,10:26:07,11:30:56,NA,incomplete,false,NA,true,2,2,NA,left,E29_Q1_ansL.png,E29_Q4_ansR.png,within,NA,NaN,NA,left,2636.2000000001863,1,1,836.2000000001863
Yk7CMlvJ,NA,NA,Yk7CMlvJ,2020-0188,2021-09-21,10:26:07,11:30:56,NA,incomplete,false,NA,true,2,3,NA,left,E13_Q3_ansR.png,E13_Q10_ansL.png,within,NA,NaN,NA,left,4246.5999999996275,1,1,908.1000000005588
Yk7CMlvJ,NA,NA,Yk7CMlvJ,2020-0188,2021-09-21,10:26:07,11:30:56,NA,incomplete,false,NA,true,2,4,NA,right,E29_Q5_ansR.png,E29_Q6_ansR.png,within,NA,NaN,NA,right,4452,1,0,948.7999999998137
Yk7CMlvJ,NA,NA,Yk7CMlvJ,2020-0188,2021-09-21,10:26:07,11:30:56,NA,incomplete,false,NA,true,2,5,NA,left,E29_Q5_ansR.png,E29_Q7_ansL.png,within,NA,NaN,NA,right,3157.2999999998137,0,0,1253.9000000003725
Yk7CMlvJ,NA,NA,Yk7CMlvJ,2020-0188,2021-09-21,10:26:07,11:30:56,NA,incomplete,false,NA,true,2,6,NA,left,E29_Q10_ansL.png,E29_Q2_ansL.png,within,NA,NaN,NA,left,2147.7000000001863,1,0,2692.0999999996275
Yk7CMlvJ,NA,NA,Yk7CMlvJ,2020-0188,2021-09-21,10:26:07,11:30:56,NA,incomplete,false,NA,true,2,7,NA,right,E23_Q6_ansR.png,E23_Q3_ansR.png,within,NA,NaN,NA,right,2441.9000000003725,1,1,1877.4000000003725
Yk7CMlvJ,NA,NA,Yk7CMlvJ,2020-0188,2021-09-21,10:26:07,11:30:56,NA,incomplete,false,NA,true,2,8,NA,right,E23_Q8_ansL.png,E13_Q1_ansL.png,between,NA,NaN,NA,right,2490.5,1,2,947.3000000007451
Yk7CMlvJ,NA,NA,Yk7CMlvJ,2020-0188,2021-09-21,10:26:07,11:30:56,NA,incomplete,false,NA,true,2,9,NA,right,E13_Q3_ansR.png,E29_Q8_ansL.png,between,NA,NaN,NA,right,1826.6000000005588,1,2,877.2000000001863
Yk7CMlvJ,NA,NA,Yk7CMlvJ,2020-0188,2021-09-21,10:26:07,11:30:56,NA,incomplete,false,NA,true,2,10,NA,left,E29_Q2_ansL.png,E13_Q6_ansR.png,between,NA,NaN,NA,left,2561.2000000001863,1,2,941.2000000001863
Yk7CMlvJ,NA,NA,Yk7CMlvJ,2020-0188,2021-09-21,10:26:07,11:30:56,NA,incomplete,false,NA,true,2,11,NA,right,E13_Q7_ansL.png,E13_Q5_ansR.png,within,NA,NaN,NA,right,2527.300000000745,1,0,2225.5
Yk7CMlvJ,NA,NA,Yk7CMlvJ,2020-0188,2021-09-21,10:26:07,11:30:56,NA,incomplete,false,NA,true,2,12,NA,right,E13_Q1_ansL.png,E13_Q2_ansL.png,within,NA,NaN,NA,right,2803.399999999441,1,0,1225.8999999994412
Yk7CMlvJ,NA,NA,Yk7CMlvJ,2020-0188,2021-09-21,10:26:07,11:30:56,NA,incomplete,false,NA,true,2,13,NA,left,E13_Q7_ansL.png,E13_Q2_ansL.png,within,NA,NaN,NA,right,2196.9000000003725,0,0,1112.5999999996275
Yk7CMlvJ,NA,NA,Yk7CMlvJ,2020-0188,2021-09-21,10:26:07,11:30:56,NA,incomplete,false,NA,true,2,14,NA,right,E29_Q10_ansL.png,E29_Q3_ansR.png,within,NA,NaN,NA,right,3156.2000000001863,1,0,1132.5
Yk7CMlvJ,NA,NA,Yk7CMlvJ,2020-0188,2021-09-21,10:26:07,11:30:56,NA,incomplete,false,NA,true,2,15,NA,left,E23_Q9_ansR.png,E23_Q4_ansR.png,within,NA,NaN,NA,left,3103.7999999998137,1,1,918.5
Yk7CMlvJ,NA,NA,Yk7CMlvJ,2020-0188,2021-09-21,10:26:07,11:30:56,NA,incomplete,false,NA,true,2,16,NA,left,E23_Q6_ansR.png,E23_Q7_ansL.png,within,NA,NaN,NA,right,2224.5999999996275,0,0,860.9000000003725
Yk7CMlvJ,NA,NA,Yk7CMlvJ,2020-0188,2021-09-21,10:26:07,11:30:56,NA,incomplete,false,NA,true,2,17,NA,left,E29_Q9_ansR.png,E13_Q5_ansR.png,between,NA,NaN,NA,left,1248.6000000005588,1,2,1022.5
Yk7CMlvJ,NA,NA,Yk7CMlvJ,2020-0188,2021-09-21,10:26:07,11:30:56,NA,incomplete,false,NA,true,2,18,NA,right,E23_Q1_ansL.png,E23_Q8_ansL.png,within,NA,NaN,NA,left,6322.700000000186,0,1,933.4000000003725
Yk7CMlvJ,NA,NA,Yk7CMlvJ,2020-0188,2021-09-21,10:26:07,11:30:56,NA,incomplete,false,NA,true,2,19,NA,right,E13_Q8_ansL.png,E13_Q6_ansR.png,within,NA,NaN,NA,right,2847.7999999998137,1,0,846.3999999994412
Yk7CMlvJ,NA,NA,Yk7CMlvJ,2020-0188,2021-09-21,10:26:07,11:30:56,NA,incomplete,false,NA,true,2,20,NA,right,E23_Q2_ansL.png,E23_Q1_ansL.png,within,NA,NaN,NA,right,2540.7999999998137,1,1,1140.9000000003725
Yk7CMlvJ,NA,NA,Yk7CMlvJ,2020-0188,2021-09-21,10:26:07,11:30:56,NA,incomplete,false,NA,true,2,21,NA,right,E23_Q10_ansL.png,E23_Q4_ansR.png,within,NA,NaN,NA,right,2048.2000000001863,1,1,1051.7000000001863
Yk7CMlvJ,NA,NA,Yk7CMlvJ,2020-0188,2021-09-21,10:26:07,11:30:56,NA,incomplete,false,NA,true,2,22,NA,right,E29_Q9_ansR.png,E29_Q4_ansR.png,within,NA,NaN,NA,right,1872,1,0,854
Yk7CMlvJ,NA,NA,Yk7CMlvJ,2020-0188,2021-09-21,10:26:07,11:30:56,NA,incomplete,false,NA,true,2,23,NA,left,E13_Q10_ansL.png,E13_Q4_ansR.png,within,NA,NaN,NA,left,3363.199999999255,1,1,904
Yk7CMlvJ,NA,NA,Yk7CMlvJ,2020-0188,2021-09-21,10:26:07,11:30:56,NA,incomplete,false,NA,true,2,24,NA,right,E29_Q8_ansL.png,E29_Q7_ansL.png,within,NA,NaN,NA,right,2177.9000000003725,1,0,992.6000000005588
Yk7CMlvJ,NA,NA,Yk7CMlvJ,2020-0188,2021-09-21,10:26:07,11:30:56,NA,incomplete,false,NA,true,2,25,NA,left,E23_Q10_ansL.png,E23_Q5_ansR.png,within,NA,NaN,NA,right,2331.7999999998137,0,1,977.7999999998137
Yk7CMlvJ,NA,NA,Yk7CMlvJ,2020-0188,2021-09-21,10:26:07,11:30:56,NA,incomplete,false,NA,true,2,26,NA,right,E23_Q3_ansR.png,E13_Q4_ansR.png,between,NA,NaN,NA,right,2880.7000000001863,1,2,959.4000000003725
Yk7CMlvJ,NA,NA,Yk7CMlvJ,2020-0188,2021-09-21,10:26:07,11:30:56,NA,incomplete,false,true,NA,3,0,E8_Q6_ansL.png,left,NA,NA,NA,left,1652.69999999925,true,NA,NA,NA,NA,NA
Yk7CMlvJ,NA,NA,Yk7CMlvJ,2020-0188,2021-09-21,10:26:07,11:30:56,NA,incomplete,false,true,NA,3,1,E8_Q3_ansL.png,left,NA,NA,NA,left,1356.70000000019,true,NA,NA,NA,NA,NA
Yk7CMlvJ,NA,NA,Yk7CMlvJ,2020-0188,2021-09-21,10:26:07,11:30:56,NA,incomplete,false,true,NA,3,2,E8_Q4_ansL.png,left,NA,NA,NA,left,1199.39999999944,true,NA,NA,NA,NA,NA
Yk7CMlvJ,NA,NA,Yk7CMlvJ,2020-0188,2021-09-21,10:26:07,11:30:56,NA,incomplete,false,true,NA,3,3,E8_Q10_ansR.png,right,NA,NA,NA,right,914.5,true,NA,NA,NA,NA,NA
Yk7CMlvJ,NA,NA,Yk7CMlvJ,2020-0188,2021-09-21,10:26:07,11:30:56,NA,incomplete,false,true,NA,3,4,E8_Q7_ansR.png,right,NA,NA,NA,right,1051.5,true,NA,NA,NA,NA,NA
Yk7CMlvJ,NA,NA,Yk7CMlvJ,2020-0188,2021-09-21,10:26:07,11:30:56,NA,incomplete,false,true,NA,3,5,E8_Q5_ansL.png,left,NA,NA,NA,left,1885.5,true,NA,NA,NA,NA,NA
Yk7CMlvJ,NA,NA,Yk7CMlvJ,2020-0188,2021-09-21,10:26:07,11:30:56,NA,incomplete,false,true,NA,3,6,E8_Q9_ansL.png,left,NA,NA,NA,left,1016.70000000019,true,NA,NA,NA,NA,NA
Yk7CMlvJ,NA,NA,Yk7CMlvJ,2020-0188,2021-09-21,10:26:07,11:30:56,NA,incomplete,false,true,NA,3,7,E8_Q8_ansR.png,right,NA,NA,NA,right,1045.29999999981,true,NA,NA,NA,NA,NA
Yk7CMlvJ,NA,NA,Yk7CMlvJ,2020-0188,2021-09-21,10:26:07,11:30:56,NA,incomplete,false,true,NA,3,8,E8_Q1_ansR.png,right,NA,NA,NA,right,1111.60000000056,true,NA,NA,NA,NA,NA
Yk7CMlvJ,NA,NA,Yk7CMlvJ,2020-0188,2021-09-21,10:26:07,11:30:56,NA,incomplete,false,true,NA,3,9,E8_Q2_ansR.png,right,NA,NA,NA,right,860.199999999255,true,NA,NA,NA,NA,NA
Yk7CMlvJ,NA,NA,Yk7CMlvJ,2020-0188,2021-09-21,10:26:07,11:30:56,NA,incomplete,false,true,NA,3,10,E27_Q7_ansL.png,left,NA,NA,NA,left,1449.59999999963,true,NA,NA,NA,NA,NA
Yk7CMlvJ,NA,NA,Yk7CMlvJ,2020-0188,2021-09-21,10:26:07,11:30:56,NA,incomplete,false,true,NA,3,11,E27_Q10_ansL.png,left,NA,NA,NA,left,1010.30000000075,true,NA,NA,NA,NA,NA
Yk7CMlvJ,NA,NA,Yk7CMlvJ,2020-0188,2021-09-21,10:26:07,11:30:56,NA,incomplete,false,true,NA,3,12,E27_Q4_ansR.png,right,NA,NA,NA,right,711.400000000373,true,NA,NA,NA,NA,NA
Yk7CMlvJ,NA,NA,Yk7CMlvJ,2020-0188,2021-09-21,10:26:07,11:30:56,NA,incomplete,false,true,NA,3,13,E27_Q5_ansR.png,right,NA,NA,NA,right,50.5,true,NA,NA,NA,NA,NA
Yk7CMlvJ,NA,NA,Yk7CMlvJ,2020-0188,2021-09-21,10:26:07,11:30:56,NA,incomplete,false,true,NA,3,14,E27_Q2_ansL.png,left,NA,NA,NA,left,1044.60000000056,true,NA,NA,NA,NA,NA
Yk7CMlvJ,NA,NA,Yk7CMlvJ,2020-0188,2021-09-21,10:26:07,11:30:56,NA,incomplete,false,true,NA,3,15,E27_Q6_ansR.png,right,NA,NA,NA,right,816.699999999255,true,NA,NA,NA,NA,NA
Yk7CMlvJ,NA,NA,Yk7CMlvJ,2020-0188,2021-09-21,10:26:07,11:30:56,NA,incomplete,false,true,NA,3,16,E27_Q9_ansR.png,right,NA,NA,NA,right,788.099999999627,true,NA,NA,NA,NA,NA
Yk7CMlvJ,NA,NA,Yk7CMlvJ,2020-0188,2021-09-21,10:26:07,11:30:56,NA,incomplete,false,true,NA,3,17,E27_Q1_ansL.png,left,NA,NA,NA,left,933.700000000186,true,NA,NA,NA,NA,NA
Yk7CMlvJ,NA,NA,Yk7CMlvJ,2020-0188,2021-09-21,10:26:07,11:30:56,NA,incomplete,false,true,NA,3,18,E27_Q3_ansR.png,right,NA,NA,NA,right,952.299999999814,true,NA,NA,NA,NA,NA
Yk7CMlvJ,NA,NA,Yk7CMlvJ,2020-0188,2021-09-21,10:26:07,11:30:56,NA,incomplete,false,true,NA,3,19,E27_Q8_ansL.png,left,NA,NA,NA,left,814.099999999627,true,NA,NA,NA,NA,NA
Yk7CMlvJ,NA,NA,Yk7CMlvJ,2020-0188,2021-09-21,10:26:07,11:30:56,NA,incomplete,false,true,NA,3,20,E4_Q2_ansL.png,left,NA,NA,NA,none,0,false,NA,NA,NA,NA,NA
Yk7CMlvJ,NA,NA,Yk7CMlvJ,2020-0188,2021-09-21,10:26:07,11:30:56,NA,incomplete,false,true,NA,3,21,E4_Q7_ansR.png,right,NA,NA,NA,right,1648.90000000037,true,NA,NA,NA,NA,NA
Yk7CMlvJ,NA,NA,Yk7CMlvJ,2020-0188,2021-09-21,10:26:07,11:30:56,NA,incomplete,false,true,NA,3,22,E4_Q3_ansL.png,left,NA,NA,NA,left,1516.20000000019,true,NA,NA,NA,NA,NA
Yk7CMlvJ,NA,NA,Yk7CMlvJ,2020-0188,2021-09-21,10:26:07,11:30:56,NA,incomplete,false,true,NA,3,23,E4_Q6_ansR.png,right,NA,NA,NA,right,1318.79999999981,true,NA,NA,NA,NA,NA
Yk7CMlvJ,NA,NA,Yk7CMlvJ,2020-0188,2021-09-21,10:26:07,11:30:56,NA,incomplete,false,true,NA,3,24,E4_Q4_ansL.png,left,NA,NA,NA,left,1701.89999999944,true,NA,NA,NA,NA,NA
Yk7CMlvJ,NA,NA,Yk7CMlvJ,2020-0188,2021-09-21,10:26:07,11:30:56,NA,incomplete,false,true,NA,3,25,E4_Q9_ansL.png,left,NA,NA,NA,left,1242.20000000019,true,NA,NA,NA,NA,NA
Yk7CMlvJ,NA,NA,Yk7CMlvJ,2020-0188,2021-09-21,10:26:07,11:30:56,NA,incomplete,false,true,NA,3,26,E4_Q8_ansR.png,right,NA,NA,NA,right,1696.09999999963,true,NA,NA,NA,NA,NA
Yk7CMlvJ,NA,NA,Yk7CMlvJ,2020-0188,2021-09-21,10:26:07,11:30:56,NA,incomplete,false,true,NA,3,27,E4_Q1_ansL.png,left,NA,NA,NA,left,996.100000000559,true,NA,NA,NA,NA,NA
Yk7CMlvJ,NA,NA,Yk7CMlvJ,2020-0188,2021-09-21,10:26:07,11:30:56,NA,incomplete,false,true,NA,3,28,E4_Q10_ansR.png,right,NA,NA,NA,right,105.700000000186,true,NA,NA,NA,NA,NA
Yk7CMlvJ,NA,NA,Yk7CMlvJ,2020-0188,2021-09-21,10:26:07,11:30:56,NA,incomplete,false,true,NA,3,29,E4_Q5_ansR.png,right,NA,NA,NA,right,1233,true,NA,NA,NA,NA,NA
Yk7CMlvJ,NA,NA,Yk7CMlvJ,2020-0188,2021-09-21,10:26:07,11:30:56,NA,incomplete,false,NA,true,3,0,NA,left,E4_Q7_ansR.png,E4_Q4_ansL.png,within,NA,NaN,NA,left,3521.5,1,0,869
Yk7CMlvJ,NA,NA,Yk7CMlvJ,2020-0188,2021-09-21,10:26:07,11:30:56,NA,incomplete,false,NA,true,3,1,NA,left,E8_Q7_ansR.png,E8_Q8_ansR.png,within,NA,NaN,NA,left,3350.2000000001863,1,0,864.7000000001863
Yk7CMlvJ,NA,NA,Yk7CMlvJ,2020-0188,2021-09-21,10:26:07,11:30:56,NA,incomplete,false,NA,true,3,2,NA,right,E27_Q4_ansR.png,E8_Q2_ansR.png,between,NA,NaN,NA,right,3946.2999999998137,1,2,990.5999999996275
Yk7CMlvJ,NA,NA,Yk7CMlvJ,2020-0188,2021-09-21,10:26:07,11:30:56,NA,incomplete,false,NA,true,3,3,NA,left,E27_Q1_ansL.png,E4_Q2_ansL.png,between,NA,NaN,NA,left,2590.199999999255,1,2,1159.2999999998137
Yk7CMlvJ,NA,NA,Yk7CMlvJ,2020-0188,2021-09-21,10:26:07,11:30:56,NA,incomplete,false,NA,true,3,4,NA,left,E27_Q3_ansR.png,E4_Q7_ansR.png,between,NA,NaN,NA,left,1290.5,1,2,864.4000000003725
Yk7CMlvJ,NA,NA,Yk7CMlvJ,2020-0188,2021-09-21,10:26:07,11:30:56,NA,incomplete,false,NA,true,3,5,NA,right,E27_Q3_ansR.png,E27_Q6_ansR.png,within,NA,NaN,NA,left,3418.5,0,0,1154.2999999998137
Yk7CMlvJ,NA,NA,Yk7CMlvJ,2020-0188,2021-09-21,10:26:07,11:30:56,NA,incomplete,false,NA,true,3,6,NA,right,E8_Q10_ansR.png,E8_Q6_ansL.png,within,NA,NaN,NA,right,1969.7000000001863,1,0,897.1999999992549
Yk7CMlvJ,NA,NA,Yk7CMlvJ,2020-0188,2021-09-21,10:26:07,11:30:56,NA,incomplete,false,NA,true,3,7,NA,right,E27_Q1_ansL.png,E27_Q2_ansL.png,within,NA,NaN,NA,right,2908.7999999998137,1,1,1160.0999999996275
Yk7CMlvJ,NA,NA,Yk7CMlvJ,2020-0188,2021-09-21,10:26:07,11:30:56,NA,incomplete,false,NA,true,3,8,NA,left,E4_Q4_ansL.png,E4_Q1_ansL.png,within,NA,NaN,NA,left,1991.5,1,0,1445.7000000001863
Yk7CMlvJ,NA,NA,Yk7CMlvJ,2020-0188,2021-09-21,10:26:07,11:30:56,NA,incomplete,false,NA,true,3,9,NA,right,E4_Q9_ansL.png,E4_Q3_ansL.png,within,NA,NaN,NA,right,4067.5999999996275,1,0,928.0999999996275
Yk7CMlvJ,NA,NA,Yk7CMlvJ,2020-0188,2021-09-21,10:26:07,11:30:56,NA,incomplete,false,NA,true,3,10,NA,right,E4_Q5_ansR.png,E4_Q8_ansR.png,within,NA,NaN,NA,right,4722.600000000559,1,0,761.5999999996275
Yk7CMlvJ,NA,NA,Yk7CMlvJ,2020-0188,2021-09-21,10:26:07,11:30:56,NA,incomplete,false,NA,true,3,11,NA,left,E27_Q9_ansR.png,E27_Q8_ansL.png,within,NA,NaN,NA,left,2530.2000000001863,1,0,1232.4000000003725
Yk7CMlvJ,NA,NA,Yk7CMlvJ,2020-0188,2021-09-21,10:26:07,11:30:56,NA,incomplete,false,NA,true,3,12,NA,right,E4_Q10_ansR.png,E4_Q9_ansL.png,within,NA,NaN,NA,right,7282.700000000186,1,0,1047.2999999998137
Yk7CMlvJ,NA,NA,Yk7CMlvJ,2020-0188,2021-09-21,10:26:07,11:30:56,NA,incomplete,false,NA,true,3,13,NA,right,E27_Q6_ansR.png,E27_Q4_ansR.png,within,NA,NaN,NA,right,1648.5,1,1,1650.4000000003725
Yk7CMlvJ,NA,NA,Yk7CMlvJ,2020-0188,2021-09-21,10:26:07,11:30:56,NA,incomplete,false,NA,true,3,14,NA,left,E8_Q4_ansL.png,E8_Q5_ansL.png,within,NA,NaN,NA,left,2247.300000000745,1,1,1033.2000000001863
Yk7CMlvJ,NA,NA,Yk7CMlvJ,2020-0188,2021-09-21,10:26:07,11:30:56,NA,incomplete,false,NA,true,3,15,NA,left,E8_Q5_ansL.png,E8_Q1_ansR.png,within,NA,NaN,NA,left,4157.4000000003725,1,1,1149
Yk7CMlvJ,NA,NA,Yk7CMlvJ,2020-0188,2021-09-21,10:26:07,11:30:56,NA,incomplete,false,NA,true,3,16,NA,right,E27_Q7_ansL.png,E8_Q8_ansR.png,between,NA,NaN,NA,right,2921.5,1,2,1019.7000000001863
Yk7CMlvJ,NA,NA,Yk7CMlvJ,2020-0188,2021-09-21,10:26:07,11:30:56,NA,incomplete,false,NA,true,3,17,NA,left,E27_Q10_ansL.png,E27_Q2_ansL.png,within,NA,NaN,NA,left,1549.5999999996275,1,1,1347.0999999996275
Yk7CMlvJ,NA,NA,Yk7CMlvJ,2020-0188,2021-09-21,10:26:07,11:30:56,NA,incomplete,false,NA,true,3,18,NA,left,E27_Q8_ansL.png,E4_Q3_ansL.png,between,NA,NaN,NA,left,1461.300000000745,1,2,1441.5
Yk7CMlvJ,NA,NA,Yk7CMlvJ,2020-0188,2021-09-21,10:26:07,11:30:56,NA,incomplete,false,NA,true,3,19,NA,left,E4_Q6_ansR.png,E4_Q8_ansR.png,within,NA,NaN,NA,left,2766.2000000001863,1,1,907.2000000001863
Yk7CMlvJ,NA,NA,Yk7CMlvJ,2020-0188,2021-09-21,10:26:07,11:30:56,NA,incomplete,false,NA,true,3,20,NA,right,E27_Q9_ansR.png,E27_Q5_ansR.png,within,NA,NaN,NA,right,9461.200000000186,1,0,875.2999999998137
Yk7CMlvJ,NA,NA,Yk7CMlvJ,2020-0188,2021-09-21,10:26:07,11:30:56,NA,incomplete,false,NA,true,3,21,NA,left,E8_Q1_ansR.png,E27_Q10_ansL.png,between,NA,NaN,NA,left,1868.2000000001863,1,2,1003.2999999998137
Yk7CMlvJ,NA,NA,Yk7CMlvJ,2020-0188,2021-09-21,10:26:07,11:30:56,NA,incomplete,false,NA,true,3,22,NA,right,E8_Q7_ansR.png,E8_Q3_ansL.png,within,NA,NaN,NA,right,1545.0999999996275,1,0,1433.1000000005588
Yk7CMlvJ,NA,NA,Yk7CMlvJ,2020-0188,2021-09-21,10:26:07,11:30:56,NA,incomplete,false,NA,true,3,23,NA,right,E8_Q2_ansR.png,E8_Q9_ansL.png,within,NA,NaN,NA,right,1759.5999999996275,1,0,834.5
Yk7CMlvJ,NA,NA,Yk7CMlvJ,2020-0188,2021-09-21,10:26:07,11:30:56,NA,incomplete,false,NA,true,3,24,NA,left,E8_Q10_ansR.png,E8_Q9_ansL.png,within,NA,NaN,NA,right,1834.2999999998137,0,1,1704.6000000005588
Yk7CMlvJ,NA,NA,Yk7CMlvJ,2020-0188,2021-09-21,10:26:07,11:30:56,NA,incomplete,false,NA,true,3,25,NA,left,E27_Q7_ansL.png,E27_Q5_ansR.png,within,NA,NaN,NA,left,3044.800000000745,1,0,845.5
Yk7CMlvJ,NA,NA,Yk7CMlvJ,2020-0188,2021-09-21,10:26:07,11:30:56,NA,incomplete,false,NA,true,3,26,NA,right,E4_Q6_ansR.png,E4_Q2_ansL.png,within,NA,NaN,NA,right,3204.9000000003725,1,1,927.3999999994412
Yk7CMlvJ,NA,NA,Yk7CMlvJ,2020-0188,2021-09-21,10:26:07,11:30:56,NA,incomplete,false,true,NA,4,0,E5_Q7_ansL.png,left,NA,NA,NA,left,1387.89999999944,true,NA,NA,NA,NA,NA
Yk7CMlvJ,NA,NA,Yk7CMlvJ,2020-0188,2021-09-21,10:26:07,11:30:56,NA,incomplete,false,true,NA,4,1,E5_Q10_ansR.png,right,NA,NA,NA,right,986.900000000373,true,NA,NA,NA,NA,NA
Yk7CMlvJ,NA,NA,Yk7CMlvJ,2020-0188,2021-09-21,10:26:07,11:30:56,NA,incomplete,false,true,NA,4,2,E5_Q6_ansR.png,right,NA,NA,NA,right,1335.40000000037,true,NA,NA,NA,NA,NA
Yk7CMlvJ,NA,NA,Yk7CMlvJ,2020-0188,2021-09-21,10:26:07,11:30:56,NA,incomplete,false,true,NA,4,3,E5_Q1_ansL.png,left,NA,NA,NA,left,747.900000000373,true,NA,NA,NA,NA,NA
Yk7CMlvJ,NA,NA,Yk7CMlvJ,2020-0188,2021-09-21,10:26:07,11:30:56,NA,incomplete,false,true,NA,4,4,E5_Q3_ansR.png,right,NA,NA,NA,right,1146.70000000019,true,NA,NA,NA,NA,NA
Yk7CMlvJ,NA,NA,Yk7CMlvJ,2020-0188,2021-09-21,10:26:07,11:30:56,NA,incomplete,false,true,NA,4,5,E5_Q2_ansL.png,left,NA,NA,NA,left,929.199999999255,true,NA,NA,NA,NA,NA
Yk7CMlvJ,NA,NA,Yk7CMlvJ,2020-0188,2021-09-21,10:26:07,11:30:56,NA,incomplete,false,true,NA,4,6,E5_Q5_ansR.png,right,NA,NA,NA,right,835.299999999814,true,NA,NA,NA,NA,NA
Yk7CMlvJ,NA,NA,Yk7CMlvJ,2020-0188,2021-09-21,10:26:07,11:30:56,NA,incomplete,false,true,NA,4,7,E5_Q9_ansR.png,right,NA,NA,NA,right,863.900000000373,true,NA,NA,NA,NA,NA
Yk7CMlvJ,NA,NA,Yk7CMlvJ,2020-0188,2021-09-21,10:26:07,11:30:56,NA,incomplete,false,true,NA,4,8,E5_Q8_ansL.png,left,NA,NA,NA,left,936.200000000186,true,NA,NA,NA,NA,NA
Yk7CMlvJ,NA,NA,Yk7CMlvJ,2020-0188,2021-09-21,10:26:07,11:30:56,NA,incomplete,false,true,NA,4,9,E5_Q4_ansR.png,right,NA,NA,NA,right,847.299999999814,true,NA,NA,NA,NA,NA
Yk7CMlvJ,NA,NA,Yk7CMlvJ,2020-0188,2021-09-21,10:26:07,11:30:56,NA,incomplete,false,true,NA,4,10,E6_Q3_ansR.png,right,NA,NA,NA,right,1368.60000000056,true,NA,NA,NA,NA,NA
Yk7CMlvJ,NA,NA,Yk7CMlvJ,2020-0188,2021-09-21,10:26:07,11:30:56,NA,incomplete,false,true,NA,4,11,E6_Q10_ansL.png,left,NA,NA,NA,left,1009.09999999963,true,NA,NA,NA,NA,NA
Yk7CMlvJ,NA,NA,Yk7CMlvJ,2020-0188,2021-09-21,10:26:07,11:30:56,NA,incomplete,false,true,NA,4,12,E6_Q1_ansL.png,left,NA,NA,NA,left,2512.29999999981,true,NA,NA,NA,NA,NA
Yk7CMlvJ,NA,NA,Yk7CMlvJ,2020-0188,2021-09-21,10:26:07,11:30:56,NA,incomplete,false,true,NA,4,13,E6_Q9_ansL.png,left,NA,NA,NA,left,1179.89999999944,true,NA,NA,NA,NA,NA
Yk7CMlvJ,NA,NA,Yk7CMlvJ,2020-0188,2021-09-21,10:26:07,11:30:56,NA,incomplete,false,true,NA,4,14,E6_Q8_ansL.png,left,NA,NA,NA,none,0,false,NA,NA,NA,NA,NA
Yk7CMlvJ,NA,NA,Yk7CMlvJ,2020-0188,2021-09-21,10:26:07,11:30:56,NA,incomplete,false,true,NA,4,15,E6_Q6_ansR.png,right,NA,NA,NA,right,2313.40000000037,true,NA,NA,NA,NA,NA
Yk7CMlvJ,NA,NA,Yk7CMlvJ,2020-0188,2021-09-21,10:26:07,11:30:56,NA,incomplete,false,true,NA,4,16,E6_Q4_ansR.png,right,NA,NA,NA,right,1834.70000000019,true,NA,NA,NA,NA,NA
Yk7CMlvJ,NA,NA,Yk7CMlvJ,2020-0188,2021-09-21,10:26:07,11:30:56,NA,incomplete,false,true,NA,4,17,E6_Q7_ansL.png,left,NA,NA,NA,left,1034.90000000037,true,NA,NA,NA,NA,NA
Yk7CMlvJ,NA,NA,Yk7CMlvJ,2020-0188,2021-09-21,10:26:07,11:30:56,NA,incomplete,false,true,NA,4,18,E6_Q2_ansL.png,left,NA,NA,NA,left,1069.09999999963,true,NA,NA,NA,NA,NA
Yk7CMlvJ,NA,NA,Yk7CMlvJ,2020-0188,2021-09-21,10:26:07,11:30:56,NA,incomplete,false,true,NA,4,19,E6_Q5_ansR.png,right,NA,NA,NA,none,0,false,NA,NA,NA,NA,NA
Yk7CMlvJ,NA,NA,Yk7CMlvJ,2020-0188,2021-09-21,10:26:07,11:30:56,NA,incomplete,false,true,NA,4,20,E30_Q3_ansL.png,left,NA,NA,NA,none,0,false,NA,NA,NA,NA,NA
Yk7CMlvJ,NA,NA,Yk7CMlvJ,2020-0188,2021-09-21,10:26:07,11:30:56,NA,incomplete,false,true,NA,4,21,E30_Q7_ansL.png,left,NA,NA,NA,none,0,false,NA,NA,NA,NA,NA
Yk7CMlvJ,NA,NA,Yk7CMlvJ,2020-0188,2021-09-21,10:26:07,11:30:56,NA,incomplete,false,true,NA,4,22,E30_Q4_ansL.png,left,NA,NA,NA,left,1577.60000000056,true,NA,NA,NA,NA,NA
Yk7CMlvJ,NA,NA,Yk7CMlvJ,2020-0188,2021-09-21,10:26:07,11:30:56,NA,incomplete,false,true,NA,4,23,E30_Q10_ansR.png,right,NA,NA,NA,right,2058.29999999981,true,NA,NA,NA,NA,NA
Yk7CMlvJ,NA,NA,Yk7CMlvJ,2020-0188,2021-09-21,10:26:07,11:30:56,NA,incomplete,false,true,NA,4,24,E30_Q1_ansL.png,left,NA,NA,NA,none,0,false,NA,NA,NA,NA,NA
Yk7CMlvJ,NA,NA,Yk7CMlvJ,2020-0188,2021-09-21,10:26:07,11:30:56,NA,incomplete,false,true,NA,4,25,E30_Q2_ansL.png,left,NA,NA,NA,left,1846.20000000019,true,NA,NA,NA,NA,NA
Yk7CMlvJ,NA,NA,Yk7CMlvJ,2020-0188,2021-09-21,10:26:07,11:30:56,NA,incomplete,false,true,NA,4,26,E30_Q6_ansR.png,right,NA,NA,NA,right,1643.79999999981,true,NA,NA,NA,NA,NA
Yk7CMlvJ,NA,NA,Yk7CMlvJ,2020-0188,2021-09-21,10:26:07,11:30:56,NA,incomplete,false,true,NA,4,27,E30_Q8_ansL.png,left,NA,NA,NA,right,1794.19999999925,false,NA,NA,NA,NA,NA
Yk7CMlvJ,NA,NA,Yk7CMlvJ,2020-0188,2021-09-21,10:26:07,11:30:56,NA,incomplete,false,true,NA,4,28,E30_Q9_ansL.png,left,NA,NA,NA,left,1641.59999999963,true,NA,NA,NA,NA,NA
Yk7CMlvJ,NA,NA,Yk7CMlvJ,2020-0188,2021-09-21,10:26:07,11:30:56,NA,incomplete,false,true,NA,4,29,E30_Q5_ansR.png,right,NA,NA,NA,right,2178.60000000056,true,NA,NA,NA,NA,NA
Yk7CMlvJ,NA,NA,Yk7CMlvJ,2020-0188,2021-09-21,10:26:07,11:30:56,NA,incomplete,false,NA,true,4,0,NA,right,E30_Q5_ansR.png,E30_Q6_ansR.png,within,NA,NaN,NA,left,4795.700000000186,0,0,923.9000000003725
Yk7CMlvJ,NA,NA,Yk7CMlvJ,2020-0188,2021-09-21,10:26:07,11:30:56,NA,incomplete,false,NA,true,4,1,NA,left,E6_Q8_ansL.png,E6_Q7_ansL.png,within,NA,NaN,NA,left,2739.7999999998137,1,0,787.3999999994412
Yk7CMlvJ,NA,NA,Yk7CMlvJ,2020-0188,2021-09-21,10:26:07,11:30:56,NA,incomplete,false,NA,true,4,2,NA,right,E30_Q3_ansL.png,E6_Q7_ansL.png,between,NA,NaN,NA,right,1010.1000000005588,1,2,987.2000000001863
Yk7CMlvJ,NA,NA,Yk7CMlvJ,2020-0188,2021-09-21,10:26:07,11:30:56,NA,incomplete,false,NA,true,4,3,NA,left,E5_Q8_ansL.png,E6_Q10_ansL.png,between,NA,NaN,NA,left,1220.7999999998137,1,3,1467.7999999998137
Yk7CMlvJ,NA,NA,Yk7CMlvJ,2020-0188,2021-09-21,10:26:07,11:30:56,NA,incomplete,false,NA,true,4,4,NA,left,E6_Q2_ansL.png,E30_Q7_ansL.png,between,NA,NaN,NA,left,1416,1,2,1004.9000000003725
Yk7CMlvJ,NA,NA,Yk7CMlvJ,2020-0188,2021-09-21,10:26:07,11:30:56,NA,incomplete,false,NA,true,4,5,NA,right,E30_Q10_ansR.png,E30_Q3_ansL.png,within,NA,NaN,NA,right,2972,1,0,1619.5
Yk7CMlvJ,NA,NA,Yk7CMlvJ,2020-0188,2021-09-21,10:26:07,11:30:56,NA,incomplete,false,NA,true,4,6,NA,right,E6_Q6_ansR.png,E6_Q1_ansL.png,within,NA,NaN,NA,left,2460.0999999996275,0,1,1462.5
Yk7CMlvJ,NA,NA,Yk7CMlvJ,2020-0188,2021-09-21,10:26:07,11:30:56,NA,incomplete,false,NA,true,4,7,NA,right,E30_Q9_ansL.png,E30_Q2_ansL.png,within,NA,NaN,NA,right,2747.5999999996275,1,1,979.7999999998137
Yk7CMlvJ,NA,NA,Yk7CMlvJ,2020-0188,2021-09-21,10:26:07,11:30:56,NA,incomplete,false,NA,true,4,8,NA,right,E5_Q1_ansL.png,E5_Q7_ansL.png,within,NA,NaN,NA,right,2865.0999999996275,1,0,1154.0999999996275
Yk7CMlvJ,NA,NA,Yk7CMlvJ,2020-0188,2021-09-21,10:26:07,11:30:56,NA,incomplete,false,NA,true,4,9,NA,left,E30_Q4_ansL.png,E30_Q2_ansL.png,within,NA,NaN,NA,left,3044.7000000001863,1,0,775
Yk7CMlvJ,NA,NA,Yk7CMlvJ,2020-0188,2021-09-21,10:26:07,11:30:56,NA,incomplete,false,NA,true,4,10,NA,left,E30_Q10_ansR.png,E30_Q6_ansR.png,within,NA,NaN,NA,left,2836.2999999998137,1,0,3173
Yk7CMlvJ,NA,NA,Yk7CMlvJ,2020-0188,2021-09-21,10:26:07,11:30:56,NA,incomplete,false,NA,true,4,11,NA,right,E6_Q2_ansL.png,E6_Q6_ansR.png,within,NA,NaN,NA,right,3551.9000000003725,1,1,1040.3999999994412
Yk7CMlvJ,NA,NA,Yk7CMlvJ,2020-0188,2021-09-21,10:26:07,11:30:56,NA,incomplete,false,NA,true,4,12,NA,left,E6_Q4_ansR.png,E6_Q5_ansR.png,within,NA,NaN,NA,right,3416.2999999998137,0,1,947
Yk7CMlvJ,NA,NA,Yk7CMlvJ,2020-0188,2021-09-21,10:26:07,11:30:56,NA,incomplete,false,NA,true,4,13,NA,right,E5_Q2_ansL.png,E5_Q6_ansR.png,within,NA,NaN,NA,right,1564.0999999996275,1,1,6761
Yk7CMlvJ,NA,NA,Yk7CMlvJ,2020-0188,2021-09-21,10:26:07,11:30:56,NA,incomplete,false,NA,true,4,14,NA,left,E6_Q3_ansR.png,E6_Q9_ansL.png,within,NA,NaN,NA,left,1830.2999999998137,1,1,804.4000000003725
Yk7CMlvJ,NA,NA,Yk7CMlvJ,2020-0188,2021-09-21,10:26:07,11:30:56,NA,incomplete,false,NA,true,4,15,NA,right,E5_Q3_ansR.png,E5_Q10_ansR.png,within,NA,NaN,NA,right,2765.899999999441,1,0,793.9000000003725
Yk7CMlvJ,NA,NA,Yk7CMlvJ,2020-0188,2021-09-21,10:26:07,11:30:56,NA,incomplete,false,NA,true,4,16,NA,left,E5_Q5_ansR.png,E5_Q4_ansR.png,within,NA,NaN,NA,left,1474.9000000003725,1,0,782.7000000001863
Yk7CMlvJ,NA,NA,Yk7CMlvJ,2020-0188,2021-09-21,10:26:07,11:30:56,NA,incomplete,false,NA,true,4,17,NA,right,E6_Q8_ansL.png,E6_Q10_ansL.png,within,NA,NaN,NA,right,1738.7999999998137,1,1,831.3999999994412
Yk7CMlvJ,NA,NA,Yk7CMlvJ,2020-0188,2021-09-21,10:26:07,11:30:56,NA,incomplete,false,NA,true,4,18,NA,left,E6_Q9_ansL.png,E6_Q4_ansR.png,within,NA,NaN,NA,left,2083.5999999996275,1,0,1551.7999999998137
Yk7CMlvJ,NA,NA,Yk7CMlvJ,2020-0188,2021-09-21,10:26:07,11:30:56,NA,incomplete,false,NA,true,4,19,NA,right,E5_Q9_ansR.png,E5_Q3_ansR.png,within,NA,NaN,NA,right,2291.7000000001863,1,1,1218.1000000005588
Yk7CMlvJ,NA,NA,Yk7CMlvJ,2020-0188,2021-09-21,10:26:07,11:30:56,NA,incomplete,false,NA,true,4,20,NA,left,E30_Q7_ansL.png,E30_Q1_ansL.png,within,NA,NaN,NA,right,11056,0,0,1317.7000000001863
Yk7CMlvJ,NA,NA,Yk7CMlvJ,2020-0188,2021-09-21,10:26:07,11:30:56,NA,incomplete,false,NA,true,4,21,NA,right,E30_Q4_ansL.png,E6_Q5_ansR.png,between,NA,NaN,NA,right,2136.7000000001863,1,2,841.2999999998137
Yk7CMlvJ,NA,NA,Yk7CMlvJ,2020-0188,2021-09-21,10:26:07,11:30:56,NA,incomplete,false,NA,true,4,22,NA,left,E5_Q2_ansL.png,E5_Q8_ansL.png,within,NA,NaN,NA,left,2285.399999999441,1,1,917.3999999994412
Yk7CMlvJ,NA,NA,Yk7CMlvJ,2020-0188,2021-09-21,10:26:07,11:30:56,NA,incomplete,false,NA,true,4,23,NA,left,E5_Q4_ansR.png,E6_Q1_ansL.png,between,NA,NaN,NA,left,1282.8999999994412,1,3,2292.100000000559
Yk7CMlvJ,NA,NA,Yk7CMlvJ,2020-0188,2021-09-21,10:26:07,11:30:56,NA,incomplete,false,NA,true,4,24,NA,right,E5_Q5_ansR.png,E5_Q1_ansL.png,within,NA,NaN,NA,right,1970.7000000001863,1,1,1141.5999999996275
Yk7CMlvJ,NA,NA,Yk7CMlvJ,2020-0188,2021-09-21,10:26:07,11:30:56,NA,incomplete,false,NA,true,4,25,NA,left,E5_Q9_ansR.png,E6_Q3_ansR.png,between,NA,NaN,NA,left,1475.7999999998137,1,3,3178.800000000745
Yk7CMlvJ,NA,NA,Yk7CMlvJ,2020-0188,2021-09-21,10:26:07,11:30:56,NA,incomplete,false,NA,true,4,26,NA,right,E30_Q8_ansL.png,E30_Q1_ansL.png,within,NA,NaN,NA,left,2546.699999999255,0,1,1055.3999999994412
Yk7CMlvJ,NA,NA,Yk7CMlvJ,2020-0188,2021-09-21,10:26:07,11:30:56,NA,incomplete,false,true,NA,5,0,E11_Q1_ansR.png,right,NA,NA,NA,right,1743.39999999944,true,NA,NA,NA,NA,NA
Yk7CMlvJ,NA,NA,Yk7CMlvJ,2020-0188,2021-09-21,10:26:07,11:30:56,NA,incomplete,false,true,NA,5,1,E11_Q4_ansL.png,left,NA,NA,NA,left,1718,true,NA,NA,NA,NA,NA
Yk7CMlvJ,NA,NA,Yk7CMlvJ,2020-0188,2021-09-21,10:26:07,11:30:56,NA,incomplete,false,true,NA,5,2,E11_Q3_ansL.png,left,NA,NA,NA,left,973.5,true,NA,NA,NA,NA,NA
Yk7CMlvJ,NA,NA,Yk7CMlvJ,2020-0188,2021-09-21,10:26:07,11:30:56,NA,incomplete,false,true,NA,5,3,E11_Q8_ansR.png,right,NA,NA,NA,right,1322,true,NA,NA,NA,NA,NA
Yk7CMlvJ,NA,NA,Yk7CMlvJ,2020-0188,2021-09-21,10:26:07,11:30:56,NA,incomplete,false,true,NA,5,4,E11_Q2_ansR.png,right,NA,NA,NA,right,1510.29999999981,true,NA,NA,NA,NA,NA
Yk7CMlvJ,NA,NA,Yk7CMlvJ,2020-0188,2021-09-21,10:26:07,11:30:56,NA,incomplete,false,true,NA,5,5,E11_Q7_ansR.png,right,NA,NA,NA,right,1093.59999999963,true,NA,NA,NA,NA,NA
Yk7CMlvJ,NA,NA,Yk7CMlvJ,2020-0188,2021-09-21,10:26:07,11:30:56,NA,incomplete,false,true,NA,5,6,E11_Q5_ansL.png,left,NA,NA,NA,left,1561.40000000037,true,NA,NA,NA,NA,NA
Yk7CMlvJ,NA,NA,Yk7CMlvJ,2020-0188,2021-09-21,10:26:07,11:30:56,NA,incomplete,false,true,NA,5,7,E11_Q6_ansL.png,left,NA,NA,NA,left,1951.20000000019,true,NA,NA,NA,NA,NA
Yk7CMlvJ,NA,NA,Yk7CMlvJ,2020-0188,2021-09-21,10:26:07,11:30:56,NA,incomplete,false,true,NA,5,8,E11_Q9_ansL.png,left,NA,NA,NA,left,3179.20000000019,true,NA,NA,NA,NA,NA
Yk7CMlvJ,NA,NA,Yk7CMlvJ,2020-0188,2021-09-21,10:26:07,11:30:56,NA,incomplete,false,true,NA,5,9,E11_Q10_ansR.png,right,NA,NA,NA,right,953,true,NA,NA,NA,NA,NA
Yk7CMlvJ,NA,NA,Yk7CMlvJ,2020-0188,2021-09-21,10:26:07,11:30:56,NA,incomplete,false,true,NA,5,10,E26_Q3_ansR.png,right,NA,NA,NA,right,1737.60000000056,true,NA,NA,NA,NA,NA
Yk7CMlvJ,NA,NA,Yk7CMlvJ,2020-0188,2021-09-21,10:26:07,11:30:56,NA,incomplete,false,true,NA,5,11,E26_Q8_ansL.png,left,NA,NA,NA,left,1757.59999999963,true,NA,NA,NA,NA,NA
Yk7CMlvJ,NA,NA,Yk7CMlvJ,2020-0188,2021-09-21,10:26:07,11:30:56,NA,incomplete,false,true,NA,5,12,E26_Q1_ansL.png,left,NA,NA,NA,left,1101.70000000019,true,NA,NA,NA,NA,NA
Yk7CMlvJ,NA,NA,Yk7CMlvJ,2020-0188,2021-09-21,10:26:07,11:30:56,NA,incomplete,false,true,NA,5,13,E26_Q4_ansR.png,right,NA,NA,NA,right,1264.40000000037,true,NA,NA,NA,NA,NA
Yk7CMlvJ,NA,NA,Yk7CMlvJ,2020-0188,2021-09-21,10:26:07,11:30:56,NA,incomplete,false,true,NA,5,14,E26_Q2_ansL.png,left,NA,NA,NA,left,931.599999999627,true,NA,NA,NA,NA,NA
Yk7CMlvJ,NA,NA,Yk7CMlvJ,2020-0188,2021-09-21,10:26:07,11:30:56,NA,incomplete,false,true,NA,5,15,E26_Q5_ansR.png,right,NA,NA,NA,right,1524.09999999963,true,NA,NA,NA,NA,NA
Yk7CMlvJ,NA,NA,Yk7CMlvJ,2020-0188,2021-09-21,10:26:07,11:30:56,NA,incomplete,false,true,NA,5,16,E26_Q9_ansR.png,right,NA,NA,NA,right,1042.70000000019,true,NA,NA,NA,NA,NA
Yk7CMlvJ,NA,NA,Yk7CMlvJ,2020-0188,2021-09-21,10:26:07,11:30:56,NA,incomplete,false,true,NA,5,17,E26_Q6_ansR.png,right,NA,NA,NA,right,513,true,NA,NA,NA,NA,NA
Yk7CMlvJ,NA,NA,Yk7CMlvJ,2020-0188,2021-09-21,10:26:07,11:30:56,NA,incomplete,false,true,NA,5,18,E26_Q10_ansL.png,left,NA,NA,NA,left,1060.5,true,NA,NA,NA,NA,NA
Yk7CMlvJ,NA,NA,Yk7CMlvJ,2020-0188,2021-09-21,10:26:07,11:30:56,NA,incomplete,false,true,NA,5,19,E26_Q7_ansL.png,left,NA,NA,NA,left,971.100000000559,true,NA,NA,NA,NA,NA
Yk7CMlvJ,NA,NA,Yk7CMlvJ,2020-0188,2021-09-21,10:26:07,11:30:56,NA,incomplete,false,true,NA,5,20,E12_Q4_ansR.png,right,NA,NA,NA,right,2885.79999999981,true,NA,NA,NA,NA,NA
Yk7CMlvJ,NA,NA,Yk7CMlvJ,2020-0188,2021-09-21,10:26:07,11:30:56,NA,incomplete,false,true,NA,5,21,E12_Q9_ansR.png,right,NA,NA,NA,right,975,true,NA,NA,NA,NA,NA
Yk7CMlvJ,NA,NA,Yk7CMlvJ,2020-0188,2021-09-21,10:26:07,11:30:56,NA,incomplete,false,true,NA,5,22,E12_Q10_ansL.png,left,NA,NA,NA,left,3445.10000000056,true,NA,NA,NA,NA,NA
Yk7CMlvJ,NA,NA,Yk7CMlvJ,2020-0188,2021-09-21,10:26:07,11:30:56,NA,incomplete,false,true,NA,5,23,E12_Q8_ansL.png,left,NA,NA,NA,none,0,false,NA,NA,NA,NA,NA
Yk7CMlvJ,NA,NA,Yk7CMlvJ,2020-0188,2021-09-21,10:26:07,11:30:56,NA,incomplete,false,true,NA,5,24,E12_Q3_ansR.png,right,NA,NA,NA,right,1298.39999999944,true,NA,NA,NA,NA,NA
Yk7CMlvJ,NA,NA,Yk7CMlvJ,2020-0188,2021-09-21,10:26:07,11:30:56,NA,incomplete,false,true,NA,5,25,E12_Q6_ansR.png,right,NA,NA,NA,right,1561.20000000019,true,NA,NA,NA,NA,NA
Yk7CMlvJ,NA,NA,Yk7CMlvJ,2020-0188,2021-09-21,10:26:07,11:30:56,NA,incomplete,false,true,NA,5,26,E12_Q7_ansL.png,left,NA,NA,NA,left,1558.70000000019,true,NA,NA,NA,NA,NA
Yk7CMlvJ,NA,NA,Yk7CMlvJ,2020-0188,2021-09-21,10:26:07,11:30:56,NA,incomplete,false,true,NA,5,27,E12_Q1_ansL.png,left,NA,NA,NA,none,0,false,NA,NA,NA,NA,NA
Yk7CMlvJ,NA,NA,Yk7CMlvJ,2020-0188,2021-09-21,10:26:07,11:30:56,NA,incomplete,false,true,NA,5,28,E12_Q2_ansL.png,left,NA,NA,NA,left,1523.70000000019,true,NA,NA,NA,NA,NA
Yk7CMlvJ,NA,NA,Yk7CMlvJ,2020-0188,2021-09-21,10:26:07,11:30:56,NA,incomplete,false,true,NA,5,29,E12_Q5_ansR.png,right,NA,NA,NA,left,3319,false,NA,NA,NA,NA,NA
Yk7CMlvJ,NA,NA,Yk7CMlvJ,2020-0188,2021-09-21,10:26:07,11:30:56,NA,incomplete,false,NA,true,5,0,NA,left,E11_Q3_ansL.png,E11_Q7_ansR.png,within,NA,NaN,NA,left,3380.100000000559,1,0,1038.0999999996275
Yk7CMlvJ,NA,NA,Yk7CMlvJ,2020-0188,2021-09-21,10:26:07,11:30:56,NA,incomplete,false,NA,true,5,1,NA,left,E26_Q2_ansL.png,E26_Q6_ansR.png,within,NA,NaN,NA,left,2030.9000000003725,1,1,973.5
Yk7CMlvJ,NA,NA,Yk7CMlvJ,2020-0188,2021-09-21,10:26:07,11:30:56,NA,incomplete,false,NA,true,5,2,NA,right,E12_Q1_ansL.png,E12_Q3_ansR.png,within,NA,NaN,NA,left,4936,0,0,795.6000000005588
Yk7CMlvJ,NA,NA,Yk7CMlvJ,2020-0188,2021-09-21,10:26:07,11:30:56,NA,incomplete,false,NA,true,5,3,NA,left,E12_Q4_ansR.png,E12_Q8_ansL.png,within,NA,NaN,NA,left,2382.4000000003725,1,0,1580.0999999996275
Yk7CMlvJ,NA,NA,Yk7CMlvJ,2020-0188,2021-09-21,10:26:07,11:30:56,NA,incomplete,false,NA,true,5,4,NA,left,E11_Q10_ansR.png,E26_Q1_ansL.png,between,NA,NaN,NA,left,2134.7000000001863,1,2,874.5999999996275
Yk7CMlvJ,NA,NA,Yk7CMlvJ,2020-0188,2021-09-21,10:26:07,11:30:56,NA,incomplete,false,NA,true,5,5,NA,left,E11_Q6_ansL.png,E26_Q3_ansR.png,between,NA,NaN,NA,left,2198.5999999996275,1,2,842.5
Yk7CMlvJ,NA,NA,Yk7CMlvJ,2020-0188,2021-09-21,10:26:07,11:30:56,NA,incomplete,false,NA,true,5,6,NA,left,E11_Q4_ansL.png,E11_Q2_ansR.png,within,NA,NaN,NA,left,5646.9000000003725,1,0,1094.1000000005588
Yk7CMlvJ,NA,NA,Yk7CMlvJ,2020-0188,2021-09-21,10:26:07,11:30:56,NA,incomplete,false,NA,true,5,7,NA,right,E12_Q3_ansR.png,E12_Q9_ansR.png,within,NA,NaN,NA,right,2078.5999999996275,1,0,818
Yk7CMlvJ,NA,NA,Yk7CMlvJ,2020-0188,2021-09-21,10:26:07,11:30:56,NA,incomplete,false,NA,true,5,8,NA,right,E11_Q6_ansL.png,E11_Q2_ansR.png,within,NA,NaN,NA,right,4801.700000000186,1,1,813.7999999998137
Yk7CMlvJ,NA,NA,Yk7CMlvJ,2020-0188,2021-09-21,10:26:07,11:30:56,NA,incomplete,false,NA,true,5,9,NA,right,E26_Q4_ansR.png,E26_Q3_ansR.png,within,NA,NaN,NA,right,2084.899999999441,1,1,912
Yk7CMlvJ,NA,NA,Yk7CMlvJ,2020-0188,2021-09-21,10:26:07,11:30:56,NA,incomplete,false,NA,true,5,10,NA,left,E12_Q10_ansL.png,E12_Q6_ansR.png,within,NA,NaN,NA,right,3085,0,0,799.7999999998137
Yk7CMlvJ,NA,NA,Yk7CMlvJ,2020-0188,2021-09-21,10:26:07,11:30:56,NA,incomplete,false,NA,true,5,11,NA,right,E26_Q9_ansR.png,E26_Q4_ansR.png,within,NA,NaN,NA,left,1581.9000000003725,0,0,784.9000000003725
Yk7CMlvJ,NA,NA,Yk7CMlvJ,2020-0188,2021-09-21,10:26:07,11:30:56,NA,incomplete,false,NA,true,5,12,NA,right,E26_Q7_ansL.png,E26_Q9_ansR.png,within,NA,NaN,NA,right,3680.4000000003725,1,1,1076.5
Yk7CMlvJ,NA,NA,Yk7CMlvJ,2020-0188,2021-09-21,10:26:07,11:30:56,NA,incomplete,false,NA,true,5,13,NA,left,E26_Q1_ansL.png,E26_Q5_ansR.png,within,NA,NaN,NA,left,2448.0999999996275,1,1,852.7000000001863
Yk7CMlvJ,NA,NA,Yk7CMlvJ,2020-0188,2021-09-21,10:26:07,11:30:56,NA,incomplete,false,NA,true,5,14,NA,left,E26_Q5_ansR.png,E26_Q10_ansL.png,within,NA,NaN,NA,left,5852,1,1,1075
Yk7CMlvJ,NA,NA,Yk7CMlvJ,2020-0188,2021-09-21,10:26:07,11:30:56,NA,incomplete,false,NA,true,5,15,NA,right,E12_Q9_ansR.png,E26_Q10_ansL.png,between,NA,NaN,NA,left,5313.100000000559,0,2,897.2999999998137
Yk7CMlvJ,NA,NA,Yk7CMlvJ,2020-0188,2021-09-21,10:26:07,11:30:56,NA,incomplete,false,NA,true,5,16,NA,left,E11_Q5_ansL.png,E11_Q10_ansR.png,within,NA,NaN,NA,left,4027.5999999996275,1,0,920.2000000001863
Yk7CMlvJ,NA,NA,Yk7CMlvJ,2020-0188,2021-09-21,10:26:07,11:30:56,NA,incomplete,false,NA,true,5,17,NA,right,E12_Q10_ansL.png,E26_Q7_ansL.png,between,NA,NaN,NA,left,1414.7000000001863,0,2,1463.0999999996275
Yk7CMlvJ,NA,NA,Yk7CMlvJ,2020-0188,2021-09-21,10:26:07,11:30:56,NA,incomplete,false,NA,true,5,18,NA,right,E11_Q9_ansL.png,E11_Q7_ansR.png,within,NA,NaN,NA,right,2614.2999999998137,1,1,3422.7000000001863
Yk7CMlvJ,NA,NA,Yk7CMlvJ,2020-0188,2021-09-21,10:26:07,11:30:56,NA,incomplete,false,NA,true,5,19,NA,left,E12_Q7_ansL.png,E12_Q5_ansR.png,within,NA,NaN,NA,right,3176.5,0,0,1004.7000000001863
Yk7CMlvJ,NA,NA,Yk7CMlvJ,2020-0188,2021-09-21,10:26:07,11:30:56,NA,incomplete,false,NA,true,5,20,NA,right,E26_Q8_ansL.png,E11_Q9_ansL.png,between,NA,NaN,NA,right,1582.2000000001863,1,3,846.8999999994412
Yk7CMlvJ,NA,NA,Yk7CMlvJ,2020-0188,2021-09-21,10:26:07,11:30:56,NA,incomplete,false,NA,true,5,21,NA,right,E11_Q8_ansR.png,E11_Q1_ansR.png,within,NA,NaN,NA,right,3818.2000000001863,1,0,896.8000000007451
Yk7CMlvJ,NA,NA,Yk7CMlvJ,2020-0188,2021-09-21,10:26:07,11:30:56,NA,incomplete,false,NA,true,5,22,NA,left,E11_Q8_ansR.png,E11_Q5_ansL.png,within,NA,NaN,NA,left,1579.8999999994412,1,0,847.7000000001863
Yk7CMlvJ,NA,NA,Yk7CMlvJ,2020-0188,2021-09-21,10:26:07,11:30:56,NA,incomplete,false,NA,true,5,23,NA,left,E12_Q6_ansR.png,E12_Q2_ansL.png,within,NA,NaN,NA,right,3803.600000000559,0,0,850.7000000001863
Yk7CMlvJ,NA,NA,Yk7CMlvJ,2020-0188,2021-09-21,10:26:07,11:30:56,NA,incomplete,false,NA,true,5,24,NA,right,E12_Q7_ansL.png,E12_Q8_ansL.png,within,NA,NaN,NA,left,3034,0,1,1597
Yk7CMlvJ,NA,NA,Yk7CMlvJ,2020-0188,2021-09-21,10:26:07,11:30:56,NA,incomplete,false,NA,true,5,25,NA,left,E26_Q6_ansR.png,E12_Q4_ansR.png,between,NA,NaN,NA,right,1297.800000000745,0,2,1242.5
Yk7CMlvJ,NA,NA,Yk7CMlvJ,2020-0188,2021-09-21,10:26:07,11:30:56,NA,incomplete,false,NA,true,5,26,NA,left,E26_Q8_ansL.png,E26_Q2_ansL.png,within,NA,NaN,NA,right,1522.7999999998137,0,0,871
Yk7CMlvJ,NA,NA,Yk7CMlvJ,2020-0188,2021-09-21,10:26:07,11:30:56,NA,incomplete,false,true,NA,6,0,E10_Q9_ansL.png,left,NA,NA,NA,left,3264.09999999963,true,NA,NA,NA,NA,NA
Yk7CMlvJ,NA,NA,Yk7CMlvJ,2020-0188,2021-09-21,10:26:07,11:30:56,NA,incomplete,false,true,NA,6,1,E10_Q5_ansR.png,right,NA,NA,NA,right,2419.20000000019,true,NA,NA,NA,NA,NA
Yk7CMlvJ,NA,NA,Yk7CMlvJ,2020-0188,2021-09-21,10:26:07,11:30:56,NA,incomplete,false,true,NA,6,2,E10_Q6_ansR.png,right,NA,NA,NA,right,2137.5,true,NA,NA,NA,NA,NA
Yk7CMlvJ,NA,NA,Yk7CMlvJ,2020-0188,2021-09-21,10:26:07,11:30:56,NA,incomplete,false,true,NA,6,3,E10_Q2_ansL.png,left,NA,NA,NA,left,2497.5,true,NA,NA,NA,NA,NA
Yk7CMlvJ,NA,NA,Yk7CMlvJ,2020-0188,2021-09-21,10:26:07,11:30:56,NA,incomplete,false,true,NA,6,4,E10_Q1_ansL.png,left,NA,NA,NA,left,3275.39999999944,true,NA,NA,NA,NA,NA
Yk7CMlvJ,NA,NA,Yk7CMlvJ,2020-0188,2021-09-21,10:26:07,11:30:56,NA,incomplete,false,true,NA,6,5,E10_Q7_ansR.png,right,NA,NA,NA,left,2843.5,false,NA,NA,NA,NA,NA
Yk7CMlvJ,NA,NA,Yk7CMlvJ,2020-0188,2021-09-21,10:26:07,11:30:56,NA,incomplete,false,true,NA,6,6,E10_Q3_ansL.png,left,NA,NA,NA,left,2945.29999999981,true,NA,NA,NA,NA,NA
Yk7CMlvJ,NA,NA,Yk7CMlvJ,2020-0188,2021-09-21,10:26:07,11:30:56,NA,incomplete,false,true,NA,6,7,E10_Q4_ansL.png,left,NA,NA,NA,left,3461.70000000019,true,NA,NA,NA,NA,NA
Yk7CMlvJ,NA,NA,Yk7CMlvJ,2020-0188,2021-09-21,10:26:07,11:30:56,NA,incomplete,false,true,NA,6,8,E10_Q10_ansR.png,right,NA,NA,NA,right,2163.29999999981,true,NA,NA,NA,NA,NA
Yk7CMlvJ,NA,NA,Yk7CMlvJ,2020-0188,2021-09-21,10:26:07,11:30:56,NA,incomplete,false,true,NA,6,9,E10_Q8_ansR.png,right,NA,NA,NA,right,2416.69999999925,true,NA,NA,NA,NA,NA
Yk7CMlvJ,NA,NA,Yk7CMlvJ,2020-0188,2021-09-21,10:26:07,11:30:56,NA,incomplete,false,true,NA,6,10,E15_Q5_ansR.png,right,NA,NA,NA,none,0,false,NA,NA,NA,NA,NA
Yk7CMlvJ,NA,NA,Yk7CMlvJ,2020-0188,2021-09-21,10:26:07,11:30:56,NA,incomplete,false,true,NA,6,11,E15_Q2_ansL.png,left,NA,NA,NA,none,0,false,NA,NA,NA,NA,NA
Yk7CMlvJ,NA,NA,Yk7CMlvJ,2020-0188,2021-09-21,10:26:07,11:30:56,NA,incomplete,false,true,NA,6,12,E15_Q6_ansR.png,right,NA,NA,NA,right,2659.80000000075,true,NA,NA,NA,NA,NA
Yk7CMlvJ,NA,NA,Yk7CMlvJ,2020-0188,2021-09-21,10:26:07,11:30:56,NA,incomplete,false,true,NA,6,13,E15_Q7_ansL.png,left,NA,NA,NA,right,1811.89999999944,false,NA,NA,NA,NA,NA
Yk7CMlvJ,NA,NA,Yk7CMlvJ,2020-0188,2021-09-21,10:26:07,11:30:56,NA,incomplete,false,true,NA,6,14,E15_Q8_ansL.png,left,NA,NA,NA,left,1452.70000000019,true,NA,NA,NA,NA,NA
Yk7CMlvJ,NA,NA,Yk7CMlvJ,2020-0188,2021-09-21,10:26:07,11:30:56,NA,incomplete,false,true,NA,6,15,E15_Q10_ansL.png,left,NA,NA,NA,left,1360.59999999963,true,NA,NA,NA,NA,NA
Yk7CMlvJ,NA,NA,Yk7CMlvJ,2020-0188,2021-09-21,10:26:07,11:30:56,NA,incomplete,false,true,NA,6,16,E15_Q1_ansL.png,left,NA,NA,NA,none,0,false,NA,NA,NA,NA,NA
Yk7CMlvJ,NA,NA,Yk7CMlvJ,2020-0188,2021-09-21,10:26:07,11:30:56,NA,incomplete,false,true,NA,6,17,E15_Q9_ansR.png,right,NA,NA,NA,left,2923.79999999981,false,NA,NA,NA,NA,NA
Yk7CMlvJ,NA,NA,Yk7CMlvJ,2020-0188,2021-09-21,10:26:07,11:30:56,NA,incomplete,false,true,NA,6,18,E15_Q3_ansR.png,right,NA,NA,NA,right,1954.5,true,NA,NA,NA,NA,NA
Yk7CMlvJ,NA,NA,Yk7CMlvJ,2020-0188,2021-09-21,10:26:07,11:30:56,NA,incomplete,false,true,NA,6,19,E15_Q4_ansR.png,right,NA,NA,NA,none,0,false,NA,NA,NA,NA,NA
Yk7CMlvJ,NA,NA,Yk7CMlvJ,2020-0188,2021-09-21,10:26:07,11:30:56,NA,incomplete,false,true,NA,6,20,E1_Q9_ansL.png,left,NA,NA,NA,left,1037.40000000037,true,NA,NA,NA,NA,NA
Yk7CMlvJ,NA,NA,Yk7CMlvJ,2020-0188,2021-09-21,10:26:07,11:30:56,NA,incomplete,false,true,NA,6,21,E1_Q6_ansR.png,right,NA,NA,NA,right,912.399999999441,true,NA,NA,NA,NA,NA
Yk7CMlvJ,NA,NA,Yk7CMlvJ,2020-0188,2021-09-21,10:26:07,11:30:56,NA,incomplete,false,true,NA,6,22,E1_Q8_ansR.png,right,NA,NA,NA,right,963.899999999441,true,NA,NA,NA,NA,NA
Yk7CMlvJ,NA,NA,Yk7CMlvJ,2020-0188,2021-09-21,10:26:07,11:30:56,NA,incomplete,false,true,NA,6,23,E1_Q10_ansR.png,right,NA,NA,NA,right,811.200000000186,true,NA,NA,NA,NA,NA
Yk7CMlvJ,NA,NA,Yk7CMlvJ,2020-0188,2021-09-21,10:26:07,11:30:56,NA,incomplete,false,true,NA,6,24,E1_Q7_ansL.png,left,NA,NA,NA,left,1101.70000000019,true,NA,NA,NA,NA,NA
Yk7CMlvJ,NA,NA,Yk7CMlvJ,2020-0188,2021-09-21,10:26:07,11:30:56,NA,incomplete,false,true,NA,6,25,E1_Q4_ansL.png,left,NA,NA,NA,right,669.299999999814,false,NA,NA,NA,NA,NA
Yk7CMlvJ,NA,NA,Yk7CMlvJ,2020-0188,2021-09-21,10:26:07,11:30:56,NA,incomplete,false,true,NA,6,26,E1_Q1_ansL.png,left,NA,NA,NA,left,1325.59999999963,true,NA,NA,NA,NA,NA
Yk7CMlvJ,NA,NA,Yk7CMlvJ,2020-0188,2021-09-21,10:26:07,11:30:56,NA,incomplete,false,true,NA,6,27,E1_Q2_ansL.png,left,NA,NA,NA,left,941.699999999255,true,NA,NA,NA,NA,NA
Yk7CMlvJ,NA,NA,Yk7CMlvJ,2020-0188,2021-09-21,10:26:07,11:30:56,NA,incomplete,false,true,NA,6,28,E1_Q3_ansR.png,right,NA,NA,NA,right,1328.09999999963,true,NA,NA,NA,NA,NA
Yk7CMlvJ,NA,NA,Yk7CMlvJ,2020-0188,2021-09-21,10:26:07,11:30:56,NA,incomplete,false,true,NA,6,29,E1_Q5_ansR.png,right,NA,NA,NA,right,1728.70000000019,true,NA,NA,NA,NA,NA
Yk7CMlvJ,NA,NA,Yk7CMlvJ,2020-0188,2021-09-21,10:26:07,11:30:56,NA,incomplete,false,NA,true,6,0,NA,right,E15_Q6_ansR.png,E10_Q8_ansR.png,between,NA,NaN,NA,right,2048.300000000745,1,2,2436.4000000003725
Yk7CMlvJ,NA,NA,Yk7CMlvJ,2020-0188,2021-09-21,10:26:07,11:30:56,NA,incomplete,false,NA,true,6,1,NA,left,E1_Q10_ansR.png,E1_Q1_ansL.png,within,NA,NaN,NA,right,3072.2999999998137,0,0,807.5
Yk7CMlvJ,NA,NA,Yk7CMlvJ,2020-0188,2021-09-21,10:26:07,11:30:56,NA,incomplete,false,NA,true,6,2,NA,right,E10_Q8_ansR.png,E10_Q3_ansL.png,within,NA,NaN,NA,right,3783.100000000559,1,0,781.9000000003725
Yk7CMlvJ,NA,NA,Yk7CMlvJ,2020-0188,2021-09-21,10:26:07,11:30:56,NA,incomplete,false,NA,true,6,3,NA,left,E1_Q7_ansL.png,E1_Q2_ansL.png,within,NA,NaN,NA,left,2454.5,1,0,773.9000000003725
Yk7CMlvJ,NA,NA,Yk7CMlvJ,2020-0188,2021-09-21,10:26:07,11:30:56,NA,incomplete,false,NA,true,6,4,NA,left,E10_Q7_ansR.png,E10_Q10_ansR.png,within,NA,NaN,NA,left,4283.399999999441,1,0,895.6999999992549
Yk7CMlvJ,NA,NA,Yk7CMlvJ,2020-0188,2021-09-21,10:26:07,11:30:56,NA,incomplete,false,NA,true,6,5,NA,right,E10_Q7_ansR.png,E10_Q6_ansR.png,within,NA,NaN,NA,right,2498.899999999441,1,0,1055
Yk7CMlvJ,NA,NA,Yk7CMlvJ,2020-0188,2021-09-21,10:26:07,11:30:56,NA,incomplete,false,NA,true,6,6,NA,left,E15_Q7_ansL.png,E15_Q1_ansL.png,within,NA,NaN,NA,left,5304.5999999996275,1,0,1351.199999999255
Yk7CMlvJ,NA,NA,Yk7CMlvJ,2020-0188,2021-09-21,10:26:07,11:30:56,NA,incomplete,false,NA,true,6,7,NA,left,E15_Q1_ansL.png,E15_Q4_ansR.png,within,NA,NaN,NA,left,3422.5999999996275,1,0,874.7999999998137
Yk7CMlvJ,NA,NA,Yk7CMlvJ,2020-0188,2021-09-21,10:26:07,11:30:56,NA,incomplete,false,NA,true,6,8,NA,left,E1_Q6_ansR.png,E1_Q7_ansL.png,within,NA,NaN,NA,right,2356.7000000001863,0,0,928.8999999994412
Yk7CMlvJ,NA,NA,Yk7CMlvJ,2020-0188,2021-09-21,10:26:07,11:30:56,NA,incomplete,false,NA,true,6,9,NA,left,E1_Q9_ansL.png,E1_Q10_ansR.png,within,NA,NaN,NA,left,1841.3999999994412,1,1,1005.5
Yk7CMlvJ,NA,NA,Yk7CMlvJ,2020-0188,2021-09-21,10:26:07,11:30:56,NA,incomplete,false,NA,true,6,10,NA,left,E10_Q5_ansR.png,E10_Q1_ansL.png,within,NA,NaN,NA,left,5572.799999999814,1,0,871.6000000005588
Yk7CMlvJ,NA,NA,Yk7CMlvJ,2020-0188,2021-09-21,10:26:07,11:30:56,NA,incomplete,false,NA,true,6,11,NA,right,E15_Q3_ansR.png,E15_Q10_ansL.png,within,NA,NaN,NA,right,1717.7000000001863,1,1,7439
Yk7CMlvJ,NA,NA,Yk7CMlvJ,2020-0188,2021-09-21,10:26:07,11:30:56,NA,incomplete,false,NA,true,6,12,NA,left,E1_Q1_ansL.png,E1_Q5_ansR.png,within,NA,NaN,NA,left,2305.899999999441,1,1,949.7999999998137
Yk7CMlvJ,NA,NA,Yk7CMlvJ,2020-0188,2021-09-21,10:26:07,11:30:56,NA,incomplete,false,NA,true,6,13,NA,left,E10_Q2_ansL.png,E10_Q3_ansL.png,within,NA,NaN,NA,left,5184.5,1,0,1046.7999999998137
Yk7CMlvJ,NA,NA,Yk7CMlvJ,2020-0188,2021-09-21,10:26:07,11:30:56,NA,incomplete,false,NA,true,6,14,NA,right,E15_Q10_ansL.png,E15_Q6_ansR.png,within,NA,NaN,NA,right,1585.9000000003725,1,0,1265.6000000005588
Yk7CMlvJ,NA,NA,Yk7CMlvJ,2020-0188,2021-09-21,10:26:07,11:30:56,NA,incomplete,false,NA,true,6,15,NA,right,E1_Q9_ansL.png,E15_Q9_ansR.png,between,NA,NaN,NA,right,1777.0999999996275,1,2,909.5
Yk7CMlvJ,NA,NA,Yk7CMlvJ,2020-0188,2021-09-21,10:26:07,11:30:56,NA,incomplete,false,NA,true,6,16,NA,right,E15_Q9_ansR.png,E15_Q8_ansL.png,within,NA,NaN,NA,right,2666.5,1,0,1042.5
Yk7CMlvJ,NA,NA,Yk7CMlvJ,2020-0188,2021-09-21,10:26:07,11:30:56,NA,incomplete,false,NA,true,6,17,NA,left,E10_Q10_ansR.png,E15_Q2_ansL.png,between,NA,NaN,NA,left,1273.9000000003725,1,2,5411.399999999441
Yk7CMlvJ,NA,NA,Yk7CMlvJ,2020-0188,2021-09-21,10:26:07,11:30:56,NA,incomplete,false,NA,true,6,18,NA,left,E15_Q2_ansL.png,E15_Q8_ansL.png,within,NA,NaN,NA,left,2012,1,0,1085.0999999996275
Yk7CMlvJ,NA,NA,Yk7CMlvJ,2020-0188,2021-09-21,10:26:07,11:30:56,NA,incomplete,false,NA,true,6,19,NA,left,E15_Q5_ansR.png,E15_Q7_ansL.png,within,NA,NaN,NA,left,1370.4000000003725,1,1,1200.0999999996275
Yk7CMlvJ,NA,NA,Yk7CMlvJ,2020-0188,2021-09-21,10:26:07,11:30:56,NA,incomplete,false,NA,true,6,20,NA,right,E15_Q5_ansR.png,E10_Q4_ansL.png,between,NA,NaN,NA,right,892.7999999998137,1,2,1139.1000000005588
Yk7CMlvJ,NA,NA,Yk7CMlvJ,2020-0188,2021-09-21,10:26:07,11:30:56,NA,incomplete,false,NA,true,6,21,NA,left,E15_Q3_ansR.png,E1_Q6_ansR.png,between,NA,NaN,NA,left,2629,1,2,1469.5999999996275
Yk7CMlvJ,NA,NA,Yk7CMlvJ,2020-0188,2021-09-21,10:26:07,11:30:56,NA,incomplete,false,NA,true,6,22,NA,right,E1_Q8_ansR.png,E15_Q4_ansR.png,between,NA,NaN,NA,right,2235.5,1,3,869.0999999996275
Yk7CMlvJ,NA,NA,Yk7CMlvJ,2020-0188,2021-09-21,10:26:07,11:30:56,NA,incomplete,false,NA,true,6,23,NA,left,E1_Q8_ansR.png,E1_Q4_ansL.png,within,NA,NaN,NA,right,7498.700000000186,0,1,1492.5
Yk7CMlvJ,NA,NA,Yk7CMlvJ,2020-0188,2021-09-21,10:26:07,11:30:56,NA,incomplete,false,NA,true,6,24,NA,right,E10_Q2_ansL.png,E10_Q9_ansL.png,within,NA,NaN,NA,right,4419.9000000003725,1,0,823.2000000001863
Yk7CMlvJ,NA,NA,Yk7CMlvJ,2020-0188,2021-09-21,10:26:07,11:30:56,NA,incomplete,false,NA,true,6,25,NA,right,E1_Q3_ansR.png,E1_Q4_ansL.png,within,NA,NaN,NA,right,1894.9000000003725,1,1,1060.0999999996275
Yk7CMlvJ,NA,NA,Yk7CMlvJ,2020-0188,2021-09-21,10:26:07,11:30:56,NA,incomplete,false,NA,true,6,26,NA,left,E10_Q1_ansL.png,E10_Q4_ansL.png,within,NA,NaN,NA,left,5814.399999999441,1,0,795.0999999996275
Yk7CMlvJ,NA,NA,Yk7CMlvJ,2020-0188,2021-09-21,10:26:07,11:30:56,NA,incomplete,false,true,NA,7,0,E16_Q6_ansL.png,left,NA,NA,NA,left,1112.29999999981,true,NA,NA,NA,NA,NA
Yk7CMlvJ,NA,NA,Yk7CMlvJ,2020-0188,2021-09-21,10:26:07,11:30:56,NA,incomplete,false,true,NA,7,1,E16_Q4_ansL.png,left,NA,NA,NA,left,1029.59999999963,true,NA,NA,NA,NA,NA
Yk7CMlvJ,NA,NA,Yk7CMlvJ,2020-0188,2021-09-21,10:26:07,11:30:56,NA,incomplete,false,true,NA,7,2,E16_Q8_ansR.png,right,NA,NA,NA,right,851.600000000559,true,NA,NA,NA,NA,NA
Yk7CMlvJ,NA,NA,Yk7CMlvJ,2020-0188,2021-09-21,10:26:07,11:30:56,NA,incomplete,false,true,NA,7,3,E16_Q7_ansR.png,right,NA,NA,NA,right,710.300000000745,true,NA,NA,NA,NA,NA
Yk7CMlvJ,NA,NA,Yk7CMlvJ,2020-0188,2021-09-21,10:26:07,11:30:56,NA,incomplete,false,true,NA,7,4,E16_Q10_ansR.png,right,NA,NA,NA,right,743.200000000186,true,NA,NA,NA,NA,NA
Yk7CMlvJ,NA,NA,Yk7CMlvJ,2020-0188,2021-09-21,10:26:07,11:30:56,NA,incomplete,false,true,NA,7,5,E16_Q1_ansR.png,right,NA,NA,NA,right,1159.79999999981,true,NA,NA,NA,NA,NA
Yk7CMlvJ,NA,NA,Yk7CMlvJ,2020-0188,2021-09-21,10:26:07,11:30:56,NA,incomplete,false,true,NA,7,6,E16_Q3_ansL.png,left,NA,NA,NA,left,2220.5,true,NA,NA,NA,NA,NA
Yk7CMlvJ,NA,NA,Yk7CMlvJ,2020-0188,2021-09-21,10:26:07,11:30:56,NA,incomplete,false,true,NA,7,7,E16_Q9_ansL.png,left,NA,NA,NA,left,752.5,true,NA,NA,NA,NA,NA
Yk7CMlvJ,NA,NA,Yk7CMlvJ,2020-0188,2021-09-21,10:26:07,11:30:56,NA,incomplete,false,true,NA,7,8,E16_Q5_ansL.png,left,NA,NA,NA,left,979.5,true,NA,NA,NA,NA,NA
Yk7CMlvJ,NA,NA,Yk7CMlvJ,2020-0188,2021-09-21,10:26:07,11:30:56,NA,incomplete,false,true,NA,7,9,E16_Q2_ansR.png,right,NA,NA,NA,right,1007.90000000037,true,NA,NA,NA,NA,NA
Yk7CMlvJ,NA,NA,Yk7CMlvJ,2020-0188,2021-09-21,10:26:07,11:30:56,NA,incomplete,false,true,NA,7,10,E14_Q5_ansR.png,right,NA,NA,NA,right,1719.10000000056,true,NA,NA,NA,NA,NA
Yk7CMlvJ,NA,NA,Yk7CMlvJ,2020-0188,2021-09-21,10:26:07,11:30:56,NA,incomplete,false,true,NA,7,11,E14_Q3_ansR.png,right,NA,NA,NA,right,1090.59999999963,true,NA,NA,NA,NA,NA
Yk7CMlvJ,NA,NA,Yk7CMlvJ,2020-0188,2021-09-21,10:26:07,11:30:56,NA,incomplete,false,true,NA,7,12,E14_Q9_ansR.png,right,NA,NA,NA,right,762.800000000745,true,NA,NA,NA,NA,NA
Yk7CMlvJ,NA,NA,Yk7CMlvJ,2020-0188,2021-09-21,10:26:07,11:30:56,NA,incomplete,false,true,NA,7,13,E14_Q4_ansR.png,right,NA,NA,NA,right,732.800000000745,true,NA,NA,NA,NA,NA
Yk7CMlvJ,NA,NA,Yk7CMlvJ,2020-0188,2021-09-21,10:26:07,11:30:56,NA,incomplete,false,true,NA,7,14,E14_Q1_ansL.png,left,NA,NA,NA,left,937.5,true,NA,NA,NA,NA,NA
Yk7CMlvJ,NA,NA,Yk7CMlvJ,2020-0188,2021-09-21,10:26:07,11:30:56,NA,incomplete,false,true,NA,7,15,E14_Q10_ansL.png,left,NA,NA,NA,left,1277.5,true,NA,NA,NA,NA,NA
Yk7CMlvJ,NA,NA,Yk7CMlvJ,2020-0188,2021-09-21,10:26:07,11:30:56,NA,incomplete,false,true,NA,7,16,E14_Q6_ansR.png,right,NA,NA,NA,right,853.099999999627,true,NA,NA,NA,NA,NA
Yk7CMlvJ,NA,NA,Yk7CMlvJ,2020-0188,2021-09-21,10:26:07,11:30:56,NA,incomplete,false,true,NA,7,17,E14_Q8_ansL.png,left,NA,NA,NA,none,0,false,NA,NA,NA,NA,NA
Yk7CMlvJ,NA,NA,Yk7CMlvJ,2020-0188,2021-09-21,10:26:07,11:30:56,NA,incomplete,false,true,NA,7,18,E14_Q7_ansL.png,left,NA,NA,NA,left,866.299999999814,true,NA,NA,NA,NA,NA
Yk7CMlvJ,NA,NA,Yk7CMlvJ,2020-0188,2021-09-21,10:26:07,11:30:56,NA,incomplete,false,true,NA,7,19,E14_Q2_ansL.png,left,NA,NA,NA,right,250.199999999255,false,NA,NA,NA,NA,NA
Yk7CMlvJ,NA,NA,Yk7CMlvJ,2020-0188,2021-09-21,10:26:07,11:30:56,NA,incomplete,false,true,NA,7,20,E17_Q5_ansR.png,right,NA,NA,NA,right,1077.70000000019,true,NA,NA,NA,NA,NA
Yk7CMlvJ,NA,NA,Yk7CMlvJ,2020-0188,2021-09-21,10:26:07,11:30:56,NA,incomplete,false,true,NA,7,21,E17_Q3_ansR.png,right,NA,NA,NA,right,1244.79999999981,true,NA,NA,NA,NA,NA
Yk7CMlvJ,NA,NA,Yk7CMlvJ,2020-0188,2021-09-21,10:26:07,11:30:56,NA,incomplete,false,true,NA,7,22,E17_Q8_ansL.png,left,NA,NA,NA,none,0,false,NA,NA,NA,NA,NA
Yk7CMlvJ,NA,NA,Yk7CMlvJ,2020-0188,2021-09-21,10:26:07,11:30:56,NA,incomplete,false,true,NA,7,23,E17_Q4_ansR.png,right,NA,NA,NA,right,1187.29999999981,true,NA,NA,NA,NA,NA
Yk7CMlvJ,NA,NA,Yk7CMlvJ,2020-0188,2021-09-21,10:26:07,11:30:56,NA,incomplete,false,true,NA,7,24,E17_Q6_ansR.png,right,NA,NA,NA,right,1019.79999999981,true,NA,NA,NA,NA,NA
Yk7CMlvJ,NA,NA,Yk7CMlvJ,2020-0188,2021-09-21,10:26:07,11:30:56,NA,incomplete,false,true,NA,7,25,E17_Q1_ansL.png,left,NA,NA,NA,right,1204,false,NA,NA,NA,NA,NA
Yk7CMlvJ,NA,NA,Yk7CMlvJ,2020-0188,2021-09-21,10:26:07,11:30:56,NA,incomplete,false,true,NA,7,26,E17_Q7_ansL.png,left,NA,NA,NA,left,1965.20000000019,true,NA,NA,NA,NA,NA
Yk7CMlvJ,NA,NA,Yk7CMlvJ,2020-0188,2021-09-21,10:26:07,11:30:56,NA,incomplete,false,true,NA,7,27,E17_Q10_ansL.png,left,NA,NA,NA,left,1018.70000000019,true,NA,NA,NA,NA,NA
Yk7CMlvJ,NA,NA,Yk7CMlvJ,2020-0188,2021-09-21,10:26:07,11:30:56,NA,incomplete,false,true,NA,7,28,E17_Q2_ansL.png,left,NA,NA,NA,left,3236.60000000056,true,NA,NA,NA,NA,NA
Yk7CMlvJ,NA,NA,Yk7CMlvJ,2020-0188,2021-09-21,10:26:07,11:30:56,NA,incomplete,false,true,NA,7,29,E17_Q9_ansR.png,right,NA,NA,NA,right,1218.59999999963,true,NA,NA,NA,NA,NA
Yk7CMlvJ,NA,NA,Yk7CMlvJ,2020-0188,2021-09-21,10:26:07,11:30:56,NA,incomplete,false,NA,true,7,0,NA,right,E14_Q1_ansL.png,E14_Q3_ansR.png,within,NA,NaN,NA,right,1823.6000000005588,1,0,979.7999999998137
Yk7CMlvJ,NA,NA,Yk7CMlvJ,2020-0188,2021-09-21,10:26:07,11:30:56,NA,incomplete,false,NA,true,7,1,NA,left,E17_Q4_ansR.png,E17_Q7_ansL.png,within,NA,NaN,NA,right,3323.5999999996275,0,0,1253.0999999996275
Yk7CMlvJ,NA,NA,Yk7CMlvJ,2020-0188,2021-09-21,10:26:07,11:30:56,NA,incomplete,false,NA,true,7,2,NA,left,E14_Q4_ansR.png,E14_Q6_ansR.png,within,NA,NaN,NA,left,3259.4000000003725,1,1,846.5
Yk7CMlvJ,NA,NA,Yk7CMlvJ,2020-0188,2021-09-21,10:26:07,11:30:56,NA,incomplete,false,NA,true,7,3,NA,left,E14_Q6_ansR.png,E14_Q2_ansL.png,within,NA,NaN,NA,right,1513,0,1,1081.5
Yk7CMlvJ,NA,NA,Yk7CMlvJ,2020-0188,2021-09-21,10:26:07,11:30:56,NA,incomplete,false,NA,true,7,4,NA,right,E14_Q10_ansL.png,E14_Q9_ansR.png,within,NA,NaN,NA,right,1539.2000000001863,1,1,891.5
Yk7CMlvJ,NA,NA,Yk7CMlvJ,2020-0188,2021-09-21,10:26:07,11:30:56,NA,incomplete,false,NA,true,7,5,NA,right,E17_Q9_ansR.png,E17_Q7_ansL.png,within,NA,NaN,NA,right,2874,1,0,1476.7999999998137
Yk7CMlvJ,NA,NA,Yk7CMlvJ,2020-0188,2021-09-21,10:26:07,11:30:56,NA,incomplete,false,NA,true,7,6,NA,right,E16_Q2_ansR.png,E16_Q3_ansL.png,within,NA,NaN,NA,left,2720.5999999996275,0,0,889.5
Yk7CMlvJ,NA,NA,Yk7CMlvJ,2020-0188,2021-09-21,10:26:07,11:30:56,NA,incomplete,false,NA,true,7,7,NA,right,E17_Q5_ansR.png,E14_Q8_ansL.png,between,NA,NaN,NA,right,1888.4000000003725,1,2,8146.700000000186
Yk7CMlvJ,NA,NA,Yk7CMlvJ,2020-0188,2021-09-21,10:26:07,11:30:56,NA,incomplete,false,NA,true,7,8,NA,left,E17_Q5_ansR.png,E17_Q4_ansR.png,within,NA,NaN,NA,right,2771,0,1,975.5
Yk7CMlvJ,NA,NA,Yk7CMlvJ,2020-0188,2021-09-21,10:26:07,11:30:56,NA,incomplete,false,NA,true,7,9,NA,left,E14_Q2_ansL.png,E17_Q8_ansL.png,between,NA,NaN,NA,left,1098.2000000001863,1,3,6832.700000000186
Yk7CMlvJ,NA,NA,Yk7CMlvJ,2020-0188,2021-09-21,10:26:07,11:30:56,NA,incomplete,false,NA,true,7,10,NA,right,E14_Q8_ansL.png,E14_Q1_ansL.png,within,NA,NaN,NA,right,2039.6000000005588,1,1,975.7000000001863
Yk7CMlvJ,NA,NA,Yk7CMlvJ,2020-0188,2021-09-21,10:26:07,11:30:56,NA,incomplete,false,NA,true,7,11,NA,right,E17_Q2_ansL.png,E17_Q1_ansL.png,within,NA,NaN,NA,right,2703.4000000003725,1,1,5016.5
Yk7CMlvJ,NA,NA,Yk7CMlvJ,2020-0188,2021-09-21,10:26:07,11:30:56,NA,incomplete,false,NA,true,7,12,NA,right,E17_Q6_ansR.png,E17_Q3_ansR.png,within,NA,NaN,NA,right,2494.5,1,1,2390.2000000001863
Yk7CMlvJ,NA,NA,Yk7CMlvJ,2020-0188,2021-09-21,10:26:07,11:30:56,NA,incomplete,false,NA,true,7,13,NA,right,E17_Q10_ansL.png,E17_Q6_ansR.png,within,NA,NaN,NA,right,2899.2000000001863,1,0,836.4000000003725
Yk7CMlvJ,NA,NA,Yk7CMlvJ,2020-0188,2021-09-21,10:26:07,11:30:56,NA,incomplete,false,NA,true,7,14,NA,left,E16_Q6_ansL.png,E16_Q7_ansR.png,within,NA,NaN,NA,left,1690,1,0,1013.7000000001863
Yk7CMlvJ,NA,NA,Yk7CMlvJ,2020-0188,2021-09-21,10:26:07,11:30:56,NA,incomplete,false,NA,true,7,15,NA,right,E16_Q1_ansR.png,E16_Q8_ansR.png,within,NA,NaN,NA,right,2154.100000000559,1,0,1018.5
Yk7CMlvJ,NA,NA,Yk7CMlvJ,2020-0188,2021-09-21,10:26:07,11:30:56,NA,incomplete,false,NA,true,7,16,NA,right,E14_Q3_ansR.png,E16_Q5_ansL.png,between,NA,NaN,NA,left,1236.2999999998137,0,2,1025.6000000005588
Yk7CMlvJ,NA,NA,Yk7CMlvJ,2020-0188,2021-09-21,10:26:07,11:30:56,NA,incomplete,false,NA,true,7,17,NA,right,E14_Q9_ansR.png,E16_Q2_ansR.png,between,NA,NaN,NA,left,1633.3999999994412,0,2,1119.1000000005588
Yk7CMlvJ,NA,NA,Yk7CMlvJ,2020-0188,2021-09-21,10:26:07,11:30:56,NA,incomplete,false,NA,true,7,18,NA,left,E16_Q7_ansR.png,E16_Q3_ansL.png,within,NA,NaN,NA,left,1852.7999999998137,1,1,1459.7999999998137
Yk7CMlvJ,NA,NA,Yk7CMlvJ,2020-0188,2021-09-21,10:26:07,11:30:56,NA,incomplete,false,NA,true,7,19,NA,left,E14_Q10_ansL.png,E14_Q7_ansL.png,within,NA,NaN,NA,left,2155.899999999441,1,1,811.0999999996275
Yk7CMlvJ,NA,NA,Yk7CMlvJ,2020-0188,2021-09-21,10:26:07,11:30:56,NA,incomplete,false,NA,true,7,20,NA,left,E16_Q10_ansR.png,E16_Q9_ansL.png,within,NA,NaN,NA,left,5250.0999999996275,1,1,998.3000000007451
Yk7CMlvJ,NA,NA,Yk7CMlvJ,2020-0188,2021-09-21,10:26:07,11:30:56,NA,incomplete,false,NA,true,7,21,NA,right,E14_Q4_ansR.png,E14_Q5_ansR.png,within,NA,NaN,NA,right,2679.9000000003725,1,1,993.2999999998137
Yk7CMlvJ,NA,NA,Yk7CMlvJ,2020-0188,2021-09-21,10:26:07,11:30:56,NA,incomplete,false,NA,true,7,22,NA,left,E16_Q4_ansL.png,E16_Q10_ansR.png,within,NA,NaN,NA,right,2007.6000000005588,0,1,2568.7000000001863
Yk7CMlvJ,NA,NA,Yk7CMlvJ,2020-0188,2021-09-21,10:26:07,11:30:56,NA,incomplete,false,NA,true,7,23,NA,right,E17_Q1_ansL.png,E17_Q8_ansL.png,within,NA,NaN,NA,left,2394.4000000003725,0,1,887.6000000005588
Yk7CMlvJ,NA,NA,Yk7CMlvJ,2020-0188,2021-09-21,10:26:07,11:30:56,NA,incomplete,false,NA,true,7,24,NA,right,E14_Q5_ansR.png,E16_Q9_ansL.png,between,NA,NaN,NA,left,1145.2999999998137,0,2,1916.800000000745
Yk7CMlvJ,NA,NA,Yk7CMlvJ,2020-0188,2021-09-21,10:26:07,11:30:56,NA,incomplete,false,NA,true,7,25,NA,right,E17_Q3_ansR.png,E14_Q7_ansL.png,between,NA,NaN,NA,right,1247.7999999998137,1,3,849.7000000001863
Yk7CMlvJ,NA,NA,Yk7CMlvJ,2020-0188,2021-09-21,10:26:07,11:30:56,NA,incomplete,false,NA,true,7,26,NA,right,E16_Q5_ansL.png,E16_Q1_ansR.png,within,NA,NaN,NA,left,1954.699999999255,0,1,1111.4000000003725
Yk7CMlvJ,NA,NA,Yk7CMlvJ,2020-0188,2021-09-21,10:26:07,11:30:56,NA,incomplete,false,true,NA,8,0,E2_Q5_ansL.png,left,NA,NA,NA,left,1507.79999999981,true,NA,NA,NA,NA,NA
Yk7CMlvJ,NA,NA,Yk7CMlvJ,2020-0188,2021-09-21,10:26:07,11:30:56,NA,incomplete,false,true,NA,8,1,E2_Q9_ansL.png,left,NA,NA,NA,left,1424.5,true,NA,NA,NA,NA,NA
Yk7CMlvJ,NA,NA,Yk7CMlvJ,2020-0188,2021-09-21,10:26:07,11:30:56,NA,incomplete,false,true,NA,8,2,E2_Q6_ansL.png,left,NA,NA,NA,left,1175.5,true,NA,NA,NA,NA,NA
Yk7CMlvJ,NA,NA,Yk7CMlvJ,2020-0188,2021-09-21,10:26:07,11:30:56,NA,incomplete,false,true,NA,8,3,E2_Q1_ansL.png,left,NA,NA,NA,left,1613.10000000056,true,NA,NA,NA,NA,NA
Yk7CMlvJ,NA,NA,Yk7CMlvJ,2020-0188,2021-09-21,10:26:07,11:30:56,NA,incomplete,false,true,NA,8,4,E2_Q2_ansR.png,right,NA,NA,NA,right,1081.29999999981,true,NA,NA,NA,NA,NA
Yk7CMlvJ,NA,NA,Yk7CMlvJ,2020-0188,2021-09-21,10:26:07,11:30:56,NA,incomplete,false,true,NA,8,5,E2_Q4_ansL.png,left,NA,NA,NA,left,1119.89999999944,true,NA,NA,NA,NA,NA
Yk7CMlvJ,NA,NA,Yk7CMlvJ,2020-0188,2021-09-21,10:26:07,11:30:56,NA,incomplete,false,true,NA,8,6,E2_Q10_ansL.png,left,NA,NA,NA,none,0,false,NA,NA,NA,NA,NA
Yk7CMlvJ,NA,NA,Yk7CMlvJ,2020-0188,2021-09-21,10:26:07,11:30:56,NA,incomplete,false,true,NA,8,7,E2_Q8_ansR.png,right,NA,NA,NA,right,2013.20000000019,true,NA,NA,NA,NA,NA
Yk7CMlvJ,NA,NA,Yk7CMlvJ,2020-0188,2021-09-21,10:26:07,11:30:56,NA,incomplete,false,true,NA,8,8,E2_Q7_ansR.png,right,NA,NA,NA,right,1655.29999999981,true,NA,NA,NA,NA,NA
Yk7CMlvJ,NA,NA,Yk7CMlvJ,2020-0188,2021-09-21,10:26:07,11:30:56,NA,incomplete,false,true,NA,8,9,E2_Q3_ansR.png,right,NA,NA,NA,right,3257.79999999981,true,NA,NA,NA,NA,NA
Yk7CMlvJ,NA,NA,Yk7CMlvJ,2020-0188,2021-09-21,10:26:07,11:30:56,NA,incomplete,false,true,NA,8,10,E31_Q8_ansR.png,right,NA,NA,NA,right,1818.39999999944,true,NA,NA,NA,NA,NA
Yk7CMlvJ,NA,NA,Yk7CMlvJ,2020-0188,2021-09-21,10:26:07,11:30:56,NA,incomplete,false,true,NA,8,11,E31_Q7_ansR.png,right,NA,NA,NA,right,723.799999999814,true,NA,NA,NA,NA,NA
Yk7CMlvJ,NA,NA,Yk7CMlvJ,2020-0188,2021-09-21,10:26:07,11:30:56,NA,incomplete,false,true,NA,8,12,E31_Q4_ansL.png,left,NA,NA,NA,right,1495.10000000056,false,NA,NA,NA,NA,NA
Yk7CMlvJ,NA,NA,Yk7CMlvJ,2020-0188,2021-09-21,10:26:07,11:30:56,NA,incomplete,false,true,NA,8,13,E31_Q5_ansL.png,left,NA,NA,NA,left,1087.5,true,NA,NA,NA,NA,NA
Yk7CMlvJ,NA,NA,Yk7CMlvJ,2020-0188,2021-09-21,10:26:07,11:30:56,NA,incomplete,false,true,NA,8,14,E31_Q1_ansR.png,right,NA,NA,NA,right,1319.70000000019,true,NA,NA,NA,NA,NA
Yk7CMlvJ,NA,NA,Yk7CMlvJ,2020-0188,2021-09-21,10:26:07,11:30:56,NA,incomplete,false,true,NA,8,15,E31_Q9_ansL.png,left,NA,NA,NA,left,1011.59999999963,true,NA,NA,NA,NA,NA
Yk7CMlvJ,NA,NA,Yk7CMlvJ,2020-0188,2021-09-21,10:26:07,11:30:56,NA,incomplete,false,true,NA,8,16,E31_Q10_ansR.png,right,NA,NA,NA,right,998,true,NA,NA,NA,NA,NA
Yk7CMlvJ,NA,NA,Yk7CMlvJ,2020-0188,2021-09-21,10:26:07,11:30:56,NA,incomplete,false,true,NA,8,17,E31_Q2_ansR.png,right,NA,NA,NA,right,969.400000000373,true,NA,NA,NA,NA,NA
Yk7CMlvJ,NA,NA,Yk7CMlvJ,2020-0188,2021-09-21,10:26:07,11:30:56,NA,incomplete,false,true,NA,8,18,E31_Q3_ansL.png,left,NA,NA,NA,left,829.100000000559,true,NA,NA,NA,NA,NA
Yk7CMlvJ,NA,NA,Yk7CMlvJ,2020-0188,2021-09-21,10:26:07,11:30:56,NA,incomplete,false,true,NA,8,19,E31_Q6_ansL.png,left,NA,NA,NA,right,1221.5,false,NA,NA,NA,NA,NA
Yk7CMlvJ,NA,NA,Yk7CMlvJ,2020-0188,2021-09-21,10:26:07,11:30:56,NA,incomplete,false,true,NA,8,20,E32_Q6_ansR.png,right,NA,NA,NA,right,29.9000000003725,true,NA,NA,NA,NA,NA
Yk7CMlvJ,NA,NA,Yk7CMlvJ,2020-0188,2021-09-21,10:26:07,11:30:56,NA,incomplete,false,true,NA,8,21,E32_Q2_ansL.png,left,NA,NA,NA,right,1068.29999999981,false,NA,NA,NA,NA,NA
Yk7CMlvJ,NA,NA,Yk7CMlvJ,2020-0188,2021-09-21,10:26:07,11:30:56,NA,incomplete,false,true,NA,8,22,E32_Q8_ansL.png,left,NA,NA,NA,left,1579.29999999981,true,NA,NA,NA,NA,NA
Yk7CMlvJ,NA,NA,Yk7CMlvJ,2020-0188,2021-09-21,10:26:07,11:30:56,NA,incomplete,false,true,NA,8,23,E32_Q7_ansL.png,left,NA,NA,NA,left,910.299999999814,true,NA,NA,NA,NA,NA
Yk7CMlvJ,NA,NA,Yk7CMlvJ,2020-0188,2021-09-21,10:26:07,11:30:56,NA,incomplete,false,true,NA,8,24,E32_Q1_ansL.png,left,NA,NA,NA,right,629.100000000559,false,NA,NA,NA,NA,NA
Yk7CMlvJ,NA,NA,Yk7CMlvJ,2020-0188,2021-09-21,10:26:07,11:30:56,NA,incomplete,false,true,NA,8,25,E32_Q3_ansR.png,right,NA,NA,NA,right,6.20000000018626,true,NA,NA,NA,NA,NA
Yk7CMlvJ,NA,NA,Yk7CMlvJ,2020-0188,2021-09-21,10:26:07,11:30:56,NA,incomplete,false,true,NA,8,26,E32_Q9_ansR.png,right,NA,NA,NA,right,857.399999999441,true,NA,NA,NA,NA,NA
Yk7CMlvJ,NA,NA,Yk7CMlvJ,2020-0188,2021-09-21,10:26:07,11:30:56,NA,incomplete,false,true,NA,8,27,E32_Q10_ansL.png,left,NA,NA,NA,none,0,false,NA,NA,NA,NA,NA
Yk7CMlvJ,NA,NA,Yk7CMlvJ,2020-0188,2021-09-21,10:26:07,11:30:56,NA,incomplete,false,true,NA,8,28,E32_Q4_ansR.png,right,NA,NA,NA,right,1179.39999999944,true,NA,NA,NA,NA,NA
Yk7CMlvJ,NA,NA,Yk7CMlvJ,2020-0188,2021-09-21,10:26:07,11:30:56,NA,incomplete,false,true,NA,8,29,E32_Q5_ansR.png,right,NA,NA,NA,right,1314.89999999944,true,NA,NA,NA,NA,NA
Yk7CMlvJ,NA,NA,Yk7CMlvJ,2020-0188,2021-09-21,10:26:07,11:30:56,NA,incomplete,false,NA,true,8,0,NA,right,E32_Q6_ansR.png,E31_Q2_ansR.png,between,NA,NaN,NA,right,1633.7000000001863,1,2,933.1000000005588
Yk7CMlvJ,NA,NA,Yk7CMlvJ,2020-0188,2021-09-21,10:26:07,11:30:56,NA,incomplete,false,NA,true,8,1,NA,right,E31_Q9_ansL.png,E31_Q4_ansL.png,within,NA,NaN,NA,left,3692.399999999441,0,0,830.5
Yk7CMlvJ,NA,NA,Yk7CMlvJ,2020-0188,2021-09-21,10:26:07,11:30:56,NA,incomplete,false,NA,true,8,2,NA,right,E31_Q3_ansL.png,E31_Q9_ansL.png,within,NA,NaN,NA,right,2262.7999999998137,1,0,819.5
Yk7CMlvJ,NA,NA,Yk7CMlvJ,2020-0188,2021-09-21,10:26:07,11:30:56,NA,incomplete,false,NA,true,8,3,NA,right,E31_Q1_ansR.png,E31_Q7_ansR.png,within,NA,NaN,NA,right,1335.2000000001863,1,1,860.5
Yk7CMlvJ,NA,NA,Yk7CMlvJ,2020-0188,2021-09-21,10:26:07,11:30:56,NA,incomplete,false,NA,true,8,4,NA,right,E32_Q3_ansR.png,E32_Q8_ansL.png,within,NA,NaN,NA,right,3206.2000000001863,1,1,1867.2000000001863
Yk7CMlvJ,NA,NA,Yk7CMlvJ,2020-0188,2021-09-21,10:26:07,11:30:56,NA,incomplete,false,NA,true,8,5,NA,left,E2_Q8_ansR.png,E31_Q8_ansR.png,between,NA,NaN,NA,left,1536.2000000001863,1,2,1083.7999999998137
Yk7CMlvJ,NA,NA,Yk7CMlvJ,2020-0188,2021-09-21,10:26:07,11:30:56,NA,incomplete,false,NA,true,8,6,NA,left,E31_Q10_ansR.png,E31_Q6_ansL.png,within,NA,NaN,NA,right,2185.2999999998137,0,1,2441.399999999441
Yk7CMlvJ,NA,NA,Yk7CMlvJ,2020-0188,2021-09-21,10:26:07,11:30:56,NA,incomplete,false,NA,true,8,7,NA,left,E2_Q4_ansL.png,E2_Q7_ansR.png,within,NA,NaN,NA,right,3152.0999999996275,0,0,816.1999999992549
Yk7CMlvJ,NA,NA,Yk7CMlvJ,2020-0188,2021-09-21,10:26:07,11:30:56,NA,incomplete,false,NA,true,8,8,NA,right,E2_Q8_ansR.png,E2_Q2_ansR.png,within,NA,NaN,NA,right,6056.9000000003725,1,0,906.9000000003725
Yk7CMlvJ,NA,NA,Yk7CMlvJ,2020-0188,2021-09-21,10:26:07,11:30:56,NA,incomplete,false,NA,true,8,9,NA,left,E31_Q3_ansL.png,E32_Q2_ansL.png,between,NA,NaN,NA,left,1759.6000000005588,1,2,1205.2999999998137
Yk7CMlvJ,NA,NA,Yk7CMlvJ,2020-0188,2021-09-21,10:26:07,11:30:56,NA,incomplete,false,NA,true,8,10,NA,right,E31_Q7_ansR.png,E2_Q7_ansR.png,between,NA,NaN,NA,right,5673.299999999814,1,2,1138.3999999994412
Yk7CMlvJ,NA,NA,Yk7CMlvJ,2020-0188,2021-09-21,10:26:07,11:30:56,NA,incomplete,false,NA,true,8,11,NA,right,E2_Q1_ansL.png,E2_Q5_ansL.png,within,NA,NaN,NA,right,1700.9000000003725,1,1,901.4000000003725
Yk7CMlvJ,NA,NA,Yk7CMlvJ,2020-0188,2021-09-21,10:26:07,11:30:56,NA,incomplete,false,NA,true,8,12,NA,right,E32_Q7_ansL.png,E32_Q6_ansR.png,within,NA,NaN,NA,right,2937.800000000745,1,1,11197
Yk7CMlvJ,NA,NA,Yk7CMlvJ,2020-0188,2021-09-21,10:26:07,11:30:56,NA,incomplete,false,NA,true,8,13,NA,right,E2_Q4_ansL.png,E2_Q6_ansL.png,within,NA,NaN,NA,right,1304.0999999996275,1,1,3992.5999999996275
Yk7CMlvJ,NA,NA,Yk7CMlvJ,2020-0188,2021-09-21,10:26:07,11:30:56,NA,incomplete,false,NA,true,8,14,NA,right,E2_Q10_ansL.png,E2_Q1_ansL.png,within,NA,NaN,NA,right,2182.5999999996275,1,1,989.2000000001863
Yk7CMlvJ,NA,NA,Yk7CMlvJ,2020-0188,2021-09-21,10:26:07,11:30:56,NA,incomplete,false,NA,true,8,15,NA,right,E31_Q10_ansR.png,E31_Q5_ansL.png,within,NA,NaN,NA,right,2939.2000000001863,1,0,1137.9000000003725
Yk7CMlvJ,NA,NA,Yk7CMlvJ,2020-0188,2021-09-21,10:26:07,11:30:56,NA,incomplete,false,NA,true,8,16,NA,right,E31_Q4_ansL.png,E2_Q3_ansR.png,between,NA,NaN,NA,right,1805.2000000001863,1,2,974.1000000005588
Yk7CMlvJ,NA,NA,Yk7CMlvJ,2020-0188,2021-09-21,10:26:07,11:30:56,NA,incomplete,false,NA,true,8,17,NA,left,E2_Q10_ansL.png,E2_Q3_ansR.png,within,NA,NaN,NA,left,2838.100000000559,1,0,1585.5999999996275
Yk7CMlvJ,NA,NA,Yk7CMlvJ,2020-0188,2021-09-21,10:26:07,11:30:56,NA,incomplete,false,NA,true,8,18,NA,right,E32_Q1_ansL.png,E32_Q2_ansL.png,within,NA,NaN,NA,left,2340.100000000559,0,1,1065.5
Yk7CMlvJ,NA,NA,Yk7CMlvJ,2020-0188,2021-09-21,10:26:07,11:30:56,NA,incomplete,false,NA,true,8,19,NA,left,E32_Q3_ansR.png,E32_Q4_ansR.png,within,NA,NaN,NA,left,2949.9000000003725,1,1,920.2999999998137
Yk7CMlvJ,NA,NA,Yk7CMlvJ,2020-0188,2021-09-21,10:26:07,11:30:56,NA,incomplete,false,NA,true,8,20,NA,right,E31_Q2_ansR.png,E31_Q1_ansR.png,within,NA,NaN,NA,right,1529.2000000001863,1,1,14702.900000000373
Yk7CMlvJ,NA,NA,Yk7CMlvJ,2020-0188,2021-09-21,10:26:07,11:30:56,NA,incomplete,false,NA,true,8,21,NA,left,E31_Q6_ansL.png,E32_Q8_ansL.png,between,NA,NaN,NA,left,1464.2999999998137,1,2,950.9000000003725
Yk7CMlvJ,NA,NA,Yk7CMlvJ,2020-0188,2021-09-21,10:26:07,11:30:56,NA,incomplete,false,NA,true,8,22,NA,right,E31_Q5_ansL.png,E31_Q8_ansR.png,within,NA,NaN,NA,right,2545.5,1,0,893.2999999998137
Yk7CMlvJ,NA,NA,Yk7CMlvJ,2020-0188,2021-09-21,10:26:07,11:30:56,NA,incomplete,false,NA,true,8,23,NA,left,E2_Q9_ansL.png,E2_Q2_ansR.png,within,NA,NaN,NA,left,1861,1,1,1083.1000000005588
Yk7CMlvJ,NA,NA,Yk7CMlvJ,2020-0188,2021-09-21,10:26:07,11:30:56,NA,incomplete,false,NA,true,8,24,NA,left,E32_Q1_ansL.png,E32_Q10_ansL.png,within,NA,NaN,NA,right,2180.2999999998137,0,1,805.7000000001863
Yk7CMlvJ,NA,NA,Yk7CMlvJ,2020-0188,2021-09-21,10:26:07,11:30:56,NA,incomplete,false,NA,true,8,25,NA,right,E32_Q9_ansR.png,E32_Q7_ansL.png,within,NA,NaN,NA,right,1433.5999999996275,1,1,1185.7999999998137
Yk7CMlvJ,NA,NA,Yk7CMlvJ,2020-0188,2021-09-21,10:26:07,11:30:56,NA,incomplete,false,NA,true,8,26,NA,right,E32_Q5_ansR.png,E32_Q9_ansR.png,within,NA,NaN,NA,right,2105.600000000559,1,1,960.1999999992549
Yk7CMlvJ,NA,NA,Yk7CMlvJ,2020-0188,2021-09-21,10:26:07,11:30:56,NA,incomplete,false,true,NA,9,0,E33_Q5_ansR.png,right,NA,NA,NA,left,1813.90000000037,false,NA,NA,NA,NA,NA
Yk7CMlvJ,NA,NA,Yk7CMlvJ,2020-0188,2021-09-21,10:26:07,11:30:56,NA,incomplete,false,true,NA,9,1,E33_Q6_ansR.png,right,NA,NA,NA,right,1247.10000000056,true,NA,NA,NA,NA,NA
Yk7CMlvJ,NA,NA,Yk7CMlvJ,2020-0188,2021-09-21,10:26:07,11:30:56,NA,incomplete,false,true,NA,9,2,E33_Q9_ansR.png,right,NA,NA,NA,right,1602,true,NA,NA,NA,NA,NA
Yk7CMlvJ,NA,NA,Yk7CMlvJ,2020-0188,2021-09-21,10:26:07,11:30:56,NA,incomplete,false,true,NA,9,3,E33_Q3_ansR.png,right,NA,NA,NA,right,1194.29999999981,true,NA,NA,NA,NA,NA
Yk7CMlvJ,NA,NA,Yk7CMlvJ,2020-0188,2021-09-21,10:26:07,11:30:56,NA,incomplete,false,true,NA,9,4,E33_Q7_ansL.png,left,NA,NA,NA,right,2165.60000000056,false,NA,NA,NA,NA,NA
Yk7CMlvJ,NA,NA,Yk7CMlvJ,2020-0188,2021-09-21,10:26:07,11:30:56,NA,incomplete,false,true,NA,9,5,E33_Q2_ansL.png,left,NA,NA,NA,left,1884.40000000037,true,NA,NA,NA,NA,NA
Yk7CMlvJ,NA,NA,Yk7CMlvJ,2020-0188,2021-09-21,10:26:07,11:30:56,NA,incomplete,false,true,NA,9,6,E33_Q1_ansL.png,left,NA,NA,NA,left,1451.60000000056,true,NA,NA,NA,NA,NA
Yk7CMlvJ,NA,NA,Yk7CMlvJ,2020-0188,2021-09-21,10:26:07,11:30:56,NA,incomplete,false,true,NA,9,7,E33_Q8_ansL.png,left,NA,NA,NA,left,1985.59999999963,true,NA,NA,NA,NA,NA
Yk7CMlvJ,NA,NA,Yk7CMlvJ,2020-0188,2021-09-21,10:26:07,11:30:56,NA,incomplete,false,true,NA,9,8,E33_Q10_ansL.png,left,NA,NA,NA,left,2124.5,true,NA,NA,NA,NA,NA
Yk7CMlvJ,NA,NA,Yk7CMlvJ,2020-0188,2021-09-21,10:26:07,11:30:56,NA,incomplete,false,true,NA,9,9,E33_Q4_ansR.png,right,NA,NA,NA,right,1152.40000000037,true,NA,NA,NA,NA,NA
Yk7CMlvJ,NA,NA,Yk7CMlvJ,2020-0188,2021-09-21,10:26:07,11:30:56,NA,incomplete,false,true,NA,9,10,E24_Q1_ansR.png,right,NA,NA,NA,right,2402.20000000019,true,NA,NA,NA,NA,NA
Yk7CMlvJ,NA,NA,Yk7CMlvJ,2020-0188,2021-09-21,10:26:07,11:30:56,NA,incomplete,false,true,NA,9,11,E24_Q5_ansL.png,left,NA,NA,NA,left,1269,true,NA,NA,NA,NA,NA
Yk7CMlvJ,NA,NA,Yk7CMlvJ,2020-0188,2021-09-21,10:26:07,11:30:56,NA,incomplete,false,true,NA,9,12,E24_Q2_ansR.png,right,NA,NA,NA,right,1580.19999999925,true,NA,NA,NA,NA,NA
Yk7CMlvJ,NA,NA,Yk7CMlvJ,2020-0188,2021-09-21,10:26:07,11:30:56,NA,incomplete,false,true,NA,9,13,E24_Q7_ansR.png,right,NA,NA,NA,right,30.0999999996275,true,NA,NA,NA,NA,NA
Yk7CMlvJ,NA,NA,Yk7CMlvJ,2020-0188,2021-09-21,10:26:07,11:30:56,NA,incomplete,false,true,NA,9,14,E24_Q8_ansR.png,right,NA,NA,NA,right,1013.89999999944,true,NA,NA,NA,NA,NA
Yk7CMlvJ,NA,NA,Yk7CMlvJ,2020-0188,2021-09-21,10:26:07,11:30:56,NA,incomplete,false,true,NA,9,15,E24_Q6_ansL.png,left,NA,NA,NA,left,965.400000000373,true,NA,NA,NA,NA,NA
Yk7CMlvJ,NA,NA,Yk7CMlvJ,2020-0188,2021-09-21,10:26:07,11:30:56,NA,incomplete,false,true,NA,9,16,E24_Q4_ansL.png,left,NA,NA,NA,left,1662.5,true,NA,NA,NA,NA,NA
Yk7CMlvJ,NA,NA,Yk7CMlvJ,2020-0188,2021-09-21,10:26:07,11:30:56,NA,incomplete,false,true,NA,9,17,E24_Q10_ansR.png,right,NA,NA,NA,right,979.200000000186,true,NA,NA,NA,NA,NA
Yk7CMlvJ,NA,NA,Yk7CMlvJ,2020-0188,2021-09-21,10:26:07,11:30:56,NA,incomplete,false,true,NA,9,18,E24_Q9_ansL.png,left,NA,NA,NA,left,1391.80000000075,true,NA,NA,NA,NA,NA
Yk7CMlvJ,NA,NA,Yk7CMlvJ,2020-0188,2021-09-21,10:26:07,11:30:56,NA,incomplete,false,true,NA,9,19,E24_Q3_ansL.png,left,NA,NA,NA,left,1377.39999999944,true,NA,NA,NA,NA,NA
Yk7CMlvJ,NA,NA,Yk7CMlvJ,2020-0188,2021-09-21,10:26:07,11:30:56,NA,incomplete,false,true,NA,9,20,E28_Q6_ansL.png,left,NA,NA,NA,left,1572.70000000019,true,NA,NA,NA,NA,NA
Yk7CMlvJ,NA,NA,Yk7CMlvJ,2020-0188,2021-09-21,10:26:07,11:30:56,NA,incomplete,false,true,NA,9,21,E28_Q4_ansL.png,left,NA,NA,NA,left,1388.19999999925,true,NA,NA,NA,NA,NA
Yk7CMlvJ,NA,NA,Yk7CMlvJ,2020-0188,2021-09-21,10:26:07,11:30:56,NA,incomplete,false,true,NA,9,22,E28_Q10_ansR.png,right,NA,NA,NA,right,1068.79999999981,true,NA,NA,NA,NA,NA
Yk7CMlvJ,NA,NA,Yk7CMlvJ,2020-0188,2021-09-21,10:26:07,11:30:56,NA,incomplete,false,true,NA,9,23,E28_Q2_ansR.png,right,NA,NA,NA,right,1181.5,true,NA,NA,NA,NA,NA
Yk7CMlvJ,NA,NA,Yk7CMlvJ,2020-0188,2021-09-21,10:26:07,11:30:56,NA,incomplete,false,true,NA,9,24,E28_Q3_ansL.png,left,NA,NA,NA,left,1121.20000000019,true,NA,NA,NA,NA,NA
Yk7CMlvJ,NA,NA,Yk7CMlvJ,2020-0188,2021-09-21,10:26:07,11:30:56,NA,incomplete,false,true,NA,9,25,E28_Q8_ansR.png,right,NA,NA,NA,right,904.5,true,NA,NA,NA,NA,NA
Yk7CMlvJ,NA,NA,Yk7CMlvJ,2020-0188,2021-09-21,10:26:07,11:30:56,NA,incomplete,false,true,NA,9,26,E28_Q1_ansR.png,right,NA,NA,NA,right,977.799999999814,true,NA,NA,NA,NA,NA
Yk7CMlvJ,NA,NA,Yk7CMlvJ,2020-0188,2021-09-21,10:26:07,11:30:56,NA,incomplete,false,true,NA,9,27,E28_Q9_ansL.png,left,NA,NA,NA,none,0,false,NA,NA,NA,NA,NA
Yk7CMlvJ,NA,NA,Yk7CMlvJ,2020-0188,2021-09-21,10:26:07,11:30:56,NA,incomplete,false,true,NA,9,28,E28_Q7_ansR.png,right,NA,NA,NA,right,1369.59999999963,true,NA,NA,NA,NA,NA
Yk7CMlvJ,NA,NA,Yk7CMlvJ,2020-0188,2021-09-21,10:26:07,11:30:56,NA,incomplete,false,true,NA,9,29,E28_Q5_ansL.png,left,NA,NA,NA,left,1034.60000000056,true,NA,NA,NA,NA,NA
Yk7CMlvJ,NA,NA,Yk7CMlvJ,2020-0188,2021-09-21,10:26:07,11:30:56,NA,incomplete,false,NA,true,9,0,NA,right,E24_Q3_ansL.png,E24_Q4_ansL.png,within,NA,NaN,NA,right,2909.0999999996275,1,0,784.5
Yk7CMlvJ,NA,NA,Yk7CMlvJ,2020-0188,2021-09-21,10:26:07,11:30:56,NA,incomplete,false,NA,true,9,1,NA,right,E33_Q2_ansL.png,E33_Q9_ansR.png,within,NA,NaN,NA,left,2931.9000000003725,0,1,789.5
Yk7CMlvJ,NA,NA,Yk7CMlvJ,2020-0188,2021-09-21,10:26:07,11:30:56,NA,incomplete,false,NA,true,9,2,NA,left,E24_Q8_ansR.png,E24_Q10_ansR.png,within,NA,NaN,NA,right,2848.0999999996275,0,0,968.5
Yk7CMlvJ,NA,NA,Yk7CMlvJ,2020-0188,2021-09-21,10:26:07,11:30:56,NA,incomplete,false,NA,true,9,3,NA,left,E28_Q1_ansR.png,E28_Q5_ansL.png,within,NA,NaN,NA,right,3261.0999999996275,0,0,890.6000000005588
Yk7CMlvJ,NA,NA,Yk7CMlvJ,2020-0188,2021-09-21,10:26:07,11:30:56,NA,incomplete,false,NA,true,9,4,NA,left,E24_Q3_ansL.png,E28_Q10_ansR.png,between,NA,NaN,NA,left,1734,1,2,1484.9000000003725
Yk7CMlvJ,NA,NA,Yk7CMlvJ,2020-0188,2021-09-21,10:26:07,11:30:56,NA,incomplete,false,NA,true,9,5,NA,left,E24_Q9_ansL.png,E28_Q4_ansL.png,between,NA,NaN,NA,left,1522.2000000001863,1,2,1006.2999999998137
Yk7CMlvJ,NA,NA,Yk7CMlvJ,2020-0188,2021-09-21,10:26:07,11:30:56,NA,incomplete,false,NA,true,9,6,NA,right,E24_Q1_ansR.png,E33_Q8_ansL.png,between,NA,NaN,NA,right,2602.5999999996275,1,2,1066.2000000001863
Yk7CMlvJ,NA,NA,Yk7CMlvJ,2020-0188,2021-09-21,10:26:07,11:30:56,NA,incomplete,false,NA,true,9,7,NA,left,E28_Q10_ansR.png,E28_Q8_ansR.png,within,NA,NaN,NA,left,2137.0999999996275,1,0,824
Yk7CMlvJ,NA,NA,Yk7CMlvJ,2020-0188,2021-09-21,10:26:07,11:30:56,NA,incomplete,false,NA,true,9,8,NA,right,E28_Q1_ansR.png,E28_Q2_ansR.png,within,NA,NaN,NA,right,1501,1,1,7656.299999999814
Yk7CMlvJ,NA,NA,Yk7CMlvJ,2020-0188,2021-09-21,10:26:07,11:30:56,NA,incomplete,false,NA,true,9,9,NA,left,E33_Q6_ansR.png,E33_Q7_ansL.png,within,NA,NaN,NA,left,4174.200000000186,1,0,897.4000000003725
Yk7CMlvJ,NA,NA,Yk7CMlvJ,2020-0188,2021-09-21,10:26:07,11:30:56,NA,incomplete,false,NA,true,9,10,NA,left,E33_Q4_ansR.png,E24_Q2_ansR.png,between,NA,NaN,NA,left,1538.7000000001863,1,2,871.2999999998137
Yk7CMlvJ,NA,NA,Yk7CMlvJ,2020-0188,2021-09-21,10:26:07,11:30:56,NA,incomplete,false,NA,true,9,11,NA,right,E24_Q4_ansL.png,E24_Q7_ansR.png,within,NA,NaN,NA,left,3602.9000000003725,0,1,1277
Yk7CMlvJ,NA,NA,Yk7CMlvJ,2020-0188,2021-09-21,10:26:07,11:30:56,NA,incomplete,false,NA,true,9,12,NA,right,E33_Q4_ansR.png,E33_Q1_ansL.png,within,NA,NaN,NA,right,1939.5,1,0,861.7000000001863
