workerId,hitId,assignmentId,subject,studyid,exp_date,exp_start,exp_end,time_start,time_end,practice,encoding,memory,block,trial,stim,answer,left_image,right_image,condition,response,response_time,response_acc,order_response,order_response_time,order_acc,distance_response,distance_response_time
ylgnlkuk,NA,NA,ylgnlkuk,2020-0188,2021-11-13,15:29:39,16:46:58,NA,incomplete,true,true,NA,0,0,E25_Q7_ansR.png,right,NA,NA,NA,none,0,false,NA,NA,NA,NA,NA
ylgnlkuk,NA,NA,ylgnlkuk,2020-0188,2021-11-13,15:29:39,16:46:58,NA,incomplete,true,true,NA,0,1,E25_Q1_ansR.png,right,NA,NA,NA,left,2156.30000000028,false,NA,NA,NA,NA,NA
ylgnlkuk,NA,NA,ylgnlkuk,2020-0188,2021-11-13,15:29:39,16:46:58,NA,incomplete,true,true,NA,0,2,E25_Q2_ansR.png,right,NA,NA,NA,right,1806,true,NA,NA,NA,NA,NA
ylgnlkuk,NA,NA,ylgnlkuk,2020-0188,2021-11-13,15:29:39,16:46:58,NA,incomplete,true,true,NA,0,3,E25_Q4_ansL.png,left,NA,NA,NA,left,3143,true,NA,NA,NA,NA,NA
ylgnlkuk,NA,NA,ylgnlkuk,2020-0188,2021-11-13,15:29:39,16:46:58,NA,incomplete,true,true,NA,0,4,E25_Q9_ansL.png,left,NA,NA,NA,none,0,false,NA,NA,NA,NA,NA
ylgnlkuk,NA,NA,ylgnlkuk,2020-0188,2021-11-13,15:29:39,16:46:58,NA,incomplete,true,true,NA,0,5,E25_Q10_ansR.png,right,NA,NA,NA,right,1453.29999999981,true,NA,NA,NA,NA,NA
ylgnlkuk,NA,NA,ylgnlkuk,2020-0188,2021-11-13,15:29:39,16:46:58,NA,incomplete,true,true,NA,0,6,E25_Q6_ansL.png,left,NA,NA,NA,left,1826.39999999991,true,NA,NA,NA,NA,NA
ylgnlkuk,NA,NA,ylgnlkuk,2020-0188,2021-11-13,15:29:39,16:46:58,NA,incomplete,true,true,NA,0,7,E25_Q8_ansR.png,right,NA,NA,NA,right,1347.39999999991,true,NA,NA,NA,NA,NA
ylgnlkuk,NA,NA,ylgnlkuk,2020-0188,2021-11-13,15:29:39,16:46:58,NA,incomplete,true,true,NA,0,8,E25_Q5_ansL.png,left,NA,NA,NA,left,2391.19999999972,true,NA,NA,NA,NA,NA
ylgnlkuk,NA,NA,ylgnlkuk,2020-0188,2021-11-13,15:29:39,16:46:58,NA,incomplete,true,true,NA,0,9,E25_Q3_ansL.png,left,NA,NA,NA,left,1888,true,NA,NA,NA,NA,NA
ylgnlkuk,NA,NA,ylgnlkuk,2020-0188,2021-11-13,15:29:39,16:46:58,NA,incomplete,true,true,NA,0,10,E5_Q9_ansR.png,right,NA,NA,NA,right,1548,true,NA,NA,NA,NA,NA
ylgnlkuk,NA,NA,ylgnlkuk,2020-0188,2021-11-13,15:29:39,16:46:58,NA,incomplete,true,true,NA,0,11,E5_Q10_ansR.png,right,NA,NA,NA,right,1569.60000000009,true,NA,NA,NA,NA,NA
ylgnlkuk,NA,NA,ylgnlkuk,2020-0188,2021-11-13,15:29:39,16:46:58,NA,incomplete,true,true,NA,0,12,E5_Q6_ansR.png,right,NA,NA,NA,right,944.100000000093,true,NA,NA,NA,NA,NA
ylgnlkuk,NA,NA,ylgnlkuk,2020-0188,2021-11-13,15:29:39,16:46:58,NA,incomplete,true,true,NA,0,13,E5_Q2_ansL.png,left,NA,NA,NA,left,1064.10000000009,true,NA,NA,NA,NA,NA
ylgnlkuk,NA,NA,ylgnlkuk,2020-0188,2021-11-13,15:29:39,16:46:58,NA,incomplete,true,true,NA,0,14,E5_Q8_ansL.png,left,NA,NA,NA,left,903.100000000093,true,NA,NA,NA,NA,NA
ylgnlkuk,NA,NA,ylgnlkuk,2020-0188,2021-11-13,15:29:39,16:46:58,NA,incomplete,true,true,NA,0,15,E5_Q3_ansR.png,right,NA,NA,NA,right,1271.5,true,NA,NA,NA,NA,NA
ylgnlkuk,NA,NA,ylgnlkuk,2020-0188,2021-11-13,15:29:39,16:46:58,NA,incomplete,true,true,NA,0,16,E5_Q4_ansR.png,right,NA,NA,NA,right,888.700000000186,true,NA,NA,NA,NA,NA
ylgnlkuk,NA,NA,ylgnlkuk,2020-0188,2021-11-13,15:29:39,16:46:58,NA,incomplete,true,true,NA,0,17,E5_Q5_ansR.png,right,NA,NA,NA,right,1026.59999999963,true,NA,NA,NA,NA,NA
ylgnlkuk,NA,NA,ylgnlkuk,2020-0188,2021-11-13,15:29:39,16:46:58,NA,incomplete,true,true,NA,0,18,E5_Q7_ansL.png,left,NA,NA,NA,left,1489.39999999991,true,NA,NA,NA,NA,NA
ylgnlkuk,NA,NA,ylgnlkuk,2020-0188,2021-11-13,15:29:39,16:46:58,NA,incomplete,true,true,NA,0,19,E5_Q1_ansL.png,left,NA,NA,NA,left,999.399999999907,true,NA,NA,NA,NA,NA
ylgnlkuk,NA,NA,ylgnlkuk,2020-0188,2021-11-13,15:29:39,16:46:58,NA,incomplete,true,true,NA,0,20,E16_Q7_ansR.png,right,NA,NA,NA,right,1263.89999999991,true,NA,NA,NA,NA,NA
ylgnlkuk,NA,NA,ylgnlkuk,2020-0188,2021-11-13,15:29:39,16:46:58,NA,incomplete,true,true,NA,0,21,E16_Q2_ansR.png,right,NA,NA,NA,right,1529.20000000019,true,NA,NA,NA,NA,NA
ylgnlkuk,NA,NA,ylgnlkuk,2020-0188,2021-11-13,15:29:39,16:46:58,NA,incomplete,true,true,NA,0,22,E16_Q5_ansL.png,left,NA,NA,NA,left,801.299999999814,true,NA,NA,NA,NA,NA
ylgnlkuk,NA,NA,ylgnlkuk,2020-0188,2021-11-13,15:29:39,16:46:58,NA,incomplete,true,true,NA,0,23,E16_Q10_ansR.png,right,NA,NA,NA,right,1129.19999999972,true,NA,NA,NA,NA,NA
ylgnlkuk,NA,NA,ylgnlkuk,2020-0188,2021-11-13,15:29:39,16:46:58,NA,incomplete,true,true,NA,0,24,E16_Q6_ansL.png,left,NA,NA,NA,left,1165,true,NA,NA,NA,NA,NA
ylgnlkuk,NA,NA,ylgnlkuk,2020-0188,2021-11-13,15:29:39,16:46:58,NA,incomplete,true,true,NA,0,25,E16_Q3_ansL.png,left,NA,NA,NA,left,1026.70000000019,true,NA,NA,NA,NA,NA
ylgnlkuk,NA,NA,ylgnlkuk,2020-0188,2021-11-13,15:29:39,16:46:58,NA,incomplete,true,true,NA,0,26,E16_Q4_ansL.png,left,NA,NA,NA,left,1000.60000000009,true,NA,NA,NA,NA,NA
ylgnlkuk,NA,NA,ylgnlkuk,2020-0188,2021-11-13,15:29:39,16:46:58,NA,incomplete,true,true,NA,0,27,E16_Q9_ansL.png,left,NA,NA,NA,left,727.300000000279,true,NA,NA,NA,NA,NA
ylgnlkuk,NA,NA,ylgnlkuk,2020-0188,2021-11-13,15:29:39,16:46:58,NA,incomplete,true,true,NA,0,28,E16_Q1_ansR.png,right,NA,NA,NA,right,873.300000000279,true,NA,NA,NA,NA,NA
ylgnlkuk,NA,NA,ylgnlkuk,2020-0188,2021-11-13,15:29:39,16:46:58,NA,incomplete,true,true,NA,0,29,E16_Q8_ansR.png,right,NA,NA,NA,right,1134.60000000009,true,NA,NA,NA,NA,NA
ylgnlkuk,NA,NA,ylgnlkuk,2020-0188,2021-11-13,15:29:39,16:46:58,NA,incomplete,true,NA,true,0,0,NA,right,E25_Q4_ansL.png,E25_Q7_ansR.png,within,NA,NaN,NA,right,4957.399999999907,1,1,3467.600000000093
ylgnlkuk,NA,NA,ylgnlkuk,2020-0188,2021-11-13,15:29:39,16:46:58,NA,incomplete,true,NA,true,0,1,NA,right,E5_Q6_ansR.png,E25_Q3_ansL.png,between,NA,NaN,NA,right,2195.399999999907,1,2,1173.6000000000931
ylgnlkuk,NA,NA,ylgnlkuk,2020-0188,2021-11-13,15:29:39,16:46:58,NA,incomplete,true,NA,true,0,2,NA,right,E5_Q1_ansL.png,E5_Q4_ansR.png,within,NA,NaN,NA,right,3362,1,0,2814.5
ylgnlkuk,NA,NA,ylgnlkuk,2020-0188,2021-11-13,15:29:39,16:46:58,NA,incomplete,true,NA,true,0,3,NA,left,E5_Q3_ansR.png,E5_Q7_ansL.png,within,NA,NaN,NA,left,3742.2000000001863,1,1,3166.899999999907
ylgnlkuk,NA,NA,ylgnlkuk,2020-0188,2021-11-13,15:29:39,16:46:58,NA,incomplete,true,NA,true,0,4,NA,left,E16_Q2_ansR.png,E16_Q6_ansL.png,within,NA,NaN,NA,left,2154.5,1,1,1638.7000000001863
ylgnlkuk,NA,NA,ylgnlkuk,2020-0188,2021-11-13,15:29:39,16:46:58,NA,incomplete,true,NA,true,0,5,NA,right,E5_Q9_ansR.png,E25_Q8_ansR.png,between,NA,NaN,NA,right,1490.1000000000931,1,3,2616.2999999998137
ylgnlkuk,NA,NA,ylgnlkuk,2020-0188,2021-11-13,15:29:39,16:46:58,NA,incomplete,true,NA,true,0,6,NA,left,E16_Q10_ansR.png,E16_Q4_ansL.png,within,NA,NaN,NA,right,4277.700000000186,0,0,2818.600000000093
ylgnlkuk,NA,NA,ylgnlkuk,2020-0188,2021-11-13,15:29:39,16:46:58,NA,incomplete,true,NA,true,0,7,NA,right,E5_Q2_ansL.png,E5_Q9_ansR.png,within,NA,NaN,NA,left,2904.100000000093,0,1,1108
ylgnlkuk,NA,NA,ylgnlkuk,2020-0188,2021-11-13,15:29:39,16:46:58,NA,incomplete,true,NA,true,0,8,NA,right,E5_Q10_ansR.png,E25_Q5_ansL.png,between,NA,NaN,NA,right,1222.7999999998137,1,2,2284.100000000093
ylgnlkuk,NA,NA,ylgnlkuk,2020-0188,2021-11-13,15:29:39,16:46:58,NA,incomplete,true,NA,true,0,9,NA,right,E5_Q3_ansR.png,E5_Q6_ansR.png,within,NA,NaN,NA,right,1295.7000000001863,1,1,1091.1000000000931
ylgnlkuk,NA,NA,ylgnlkuk,2020-0188,2021-11-13,15:29:39,16:46:58,NA,incomplete,true,NA,true,0,10,NA,right,E25_Q5_ansL.png,E25_Q10_ansR.png,within,NA,NaN,NA,left,2469.2999999998137,0,1,1140.2999999998137
ylgnlkuk,NA,NA,ylgnlkuk,2020-0188,2021-11-13,15:29:39,16:46:58,NA,incomplete,true,NA,true,0,11,NA,left,E25_Q1_ansR.png,E25_Q9_ansL.png,within,NA,NaN,NA,left,2088.5,1,0,1885.7999999998137
ylgnlkuk,NA,NA,ylgnlkuk,2020-0188,2021-11-13,15:29:39,16:46:58,NA,incomplete,true,NA,true,0,12,NA,right,E16_Q3_ansL.png,E16_Q5_ansL.png,within,NA,NaN,NA,left,3457.899999999907,0,1,1099.6000000000931
ylgnlkuk,NA,NA,ylgnlkuk,2020-0188,2021-11-13,15:29:39,16:46:58,NA,incomplete,true,NA,true,0,13,NA,left,E16_Q7_ansR.png,E16_Q10_ansR.png,within,NA,NaN,NA,right,3109.2999999998137,0,1,2730.7999999998137
ylgnlkuk,NA,NA,ylgnlkuk,2020-0188,2021-11-13,15:29:39,16:46:58,NA,incomplete,true,NA,true,0,14,NA,right,E25_Q10_ansR.png,E25_Q2_ansR.png,within,NA,NaN,NA,right,2250.7999999998137,1,1,1449
ylgnlkuk,NA,NA,ylgnlkuk,2020-0188,2021-11-13,15:29:39,16:46:58,NA,incomplete,true,NA,true,0,15,NA,left,E5_Q1_ansL.png,E16_Q5_ansL.png,between,NA,NaN,NA,left,3498.899999999907,1,2,2008.5
ylgnlkuk,NA,NA,ylgnlkuk,2020-0188,2021-11-13,15:29:39,16:46:58,NA,incomplete,true,NA,true,0,16,NA,left,E25_Q6_ansL.png,E25_Q3_ansL.png,within,NA,NaN,NA,left,2404.2999999998137,1,1,2446.9000000003725
ylgnlkuk,NA,NA,ylgnlkuk,2020-0188,2021-11-13,15:29:39,16:46:58,NA,incomplete,true,NA,true,0,17,NA,left,E5_Q7_ansL.png,E16_Q2_ansR.png,between,NA,NaN,NA,left,1296.5,1,2,2858.8000000002794
ylgnlkuk,NA,NA,ylgnlkuk,2020-0188,2021-11-13,15:29:39,16:46:58,NA,incomplete,true,NA,true,0,18,NA,left,E5_Q10_ansR.png,E5_Q8_ansL.png,within,NA,NaN,NA,left,2559.5,1,1,890.7000000001863
ylgnlkuk,NA,NA,ylgnlkuk,2020-0188,2021-11-13,15:29:39,16:46:58,NA,incomplete,true,NA,true,0,19,NA,left,E25_Q9_ansL.png,E25_Q8_ansR.png,within,NA,NaN,NA,left,3110.7000000001863,1,1,1116.3999999999069
ylgnlkuk,NA,NA,ylgnlkuk,2020-0188,2021-11-13,15:29:39,16:46:58,NA,incomplete,true,NA,true,0,20,NA,left,E25_Q4_ansL.png,E25_Q6_ansL.png,within,NA,NaN,NA,left,1466.3000000002794,1,1,946.5
ylgnlkuk,NA,NA,ylgnlkuk,2020-0188,2021-11-13,15:29:39,16:46:58,NA,incomplete,true,NA,true,0,21,NA,left,E5_Q5_ansR.png,E16_Q7_ansR.png,between,NA,NaN,NA,left,1514,1,1,1612.3000000002794
ylgnlkuk,NA,NA,ylgnlkuk,2020-0188,2021-11-13,15:29:39,16:46:58,NA,incomplete,true,NA,true,0,22,NA,right,E16_Q8_ansR.png,E16_Q4_ansL.png,within,NA,NaN,NA,right,3758.7999999998137,1,1,1684.1999999997206
ylgnlkuk,NA,NA,ylgnlkuk,2020-0188,2021-11-13,15:29:39,16:46:58,NA,incomplete,true,NA,true,0,23,NA,right,E16_Q1_ansR.png,E16_Q3_ansL.png,within,NA,NaN,NA,right,1821.6999999997206,1,0,2058.1999999997206
ylgnlkuk,NA,NA,ylgnlkuk,2020-0188,2021-11-13,15:29:39,16:46:58,NA,incomplete,true,NA,true,0,24,NA,right,E5_Q5_ansR.png,E5_Q8_ansL.png,within,NA,NaN,NA,right,3037.7000000001863,1,1,2347.7999999998137
ylgnlkuk,NA,NA,ylgnlkuk,2020-0188,2021-11-13,15:29:39,16:46:58,NA,incomplete,true,NA,true,0,25,NA,left,E16_Q6_ansL.png,E16_Q9_ansL.png,within,NA,NaN,NA,left,1855.2999999998137,1,1,2550.9000000003725
ylgnlkuk,NA,NA,ylgnlkuk,2020-0188,2021-11-13,15:29:39,16:46:58,NA,incomplete,true,NA,true,0,26,NA,right,E5_Q4_ansR.png,E5_Q2_ansL.png,within,NA,NaN,NA,right,4480.899999999907,1,0,1522.6999999997206
ylgnlkuk,NA,NA,ylgnlkuk,2020-0188,2021-11-13,15:29:39,16:46:58,NA,incomplete,false,true,NA,1,0,E32_Q4_ansR.png,right,NA,NA,NA,none,0,false,NA,NA,NA,NA,NA
ylgnlkuk,NA,NA,ylgnlkuk,2020-0188,2021-11-13,15:29:39,16:46:58,NA,incomplete,false,true,NA,1,1,E32_Q5_ansR.png,right,NA,NA,NA,right,1597.5,true,NA,NA,NA,NA,NA
ylgnlkuk,NA,NA,ylgnlkuk,2020-0188,2021-11-13,15:29:39,16:46:58,NA,incomplete,false,true,NA,1,2,E32_Q1_ansL.png,left,NA,NA,NA,left,1233.39999999991,true,NA,NA,NA,NA,NA
ylgnlkuk,NA,NA,ylgnlkuk,2020-0188,2021-11-13,15:29:39,16:46:58,NA,incomplete,false,true,NA,1,3,E32_Q9_ansR.png,right,NA,NA,NA,right,897.099999999627,true,NA,NA,NA,NA,NA
ylgnlkuk,NA,NA,ylgnlkuk,2020-0188,2021-11-13,15:29:39,16:46:58,NA,incomplete,false,true,NA,1,4,E32_Q7_ansL.png,left,NA,NA,NA,left,1726.70000000019,true,NA,NA,NA,NA,NA
ylgnlkuk,NA,NA,ylgnlkuk,2020-0188,2021-11-13,15:29:39,16:46:58,NA,incomplete,false,true,NA,1,5,E32_Q3_ansR.png,right,NA,NA,NA,right,1883.79999999981,true,NA,NA,NA,NA,NA
ylgnlkuk,NA,NA,ylgnlkuk,2020-0188,2021-11-13,15:29:39,16:46:58,NA,incomplete,false,true,NA,1,6,E32_Q8_ansL.png,left,NA,NA,NA,left,1132.70000000019,true,NA,NA,NA,NA,NA
ylgnlkuk,NA,NA,ylgnlkuk,2020-0188,2021-11-13,15:29:39,16:46:58,NA,incomplete,false,true,NA,1,7,E32_Q6_ansR.png,right,NA,NA,NA,right,1353.30000000028,true,NA,NA,NA,NA,NA
ylgnlkuk,NA,NA,ylgnlkuk,2020-0188,2021-11-13,15:29:39,16:46:58,NA,incomplete,false,true,NA,1,8,E32_Q10_ansL.png,left,NA,NA,NA,left,1014.89999999991,true,NA,NA,NA,NA,NA
ylgnlkuk,NA,NA,ylgnlkuk,2020-0188,2021-11-13,15:29:39,16:46:58,NA,incomplete,false,true,NA,1,9,E32_Q2_ansL.png,left,NA,NA,NA,left,1545.80000000028,true,NA,NA,NA,NA,NA
ylgnlkuk,NA,NA,ylgnlkuk,2020-0188,2021-11-13,15:29:39,16:46:58,NA,incomplete,false,true,NA,1,10,E21_Q1_ansL.png,left,NA,NA,NA,left,1391.89999999991,true,NA,NA,NA,NA,NA
ylgnlkuk,NA,NA,ylgnlkuk,2020-0188,2021-11-13,15:29:39,16:46:58,NA,incomplete,false,true,NA,1,11,E21_Q5_ansR.png,right,NA,NA,NA,right,1115.5,true,NA,NA,NA,NA,NA
ylgnlkuk,NA,NA,ylgnlkuk,2020-0188,2021-11-13,15:29:39,16:46:58,NA,incomplete,false,true,NA,1,12,E21_Q9_ansR.png,right,NA,NA,NA,right,1830.10000000009,true,NA,NA,NA,NA,NA
ylgnlkuk,NA,NA,ylgnlkuk,2020-0188,2021-11-13,15:29:39,16:46:58,NA,incomplete,false,true,NA,1,13,E21_Q10_ansL.png,left,NA,NA,NA,left,874.899999999907,true,NA,NA,NA,NA,NA
ylgnlkuk,NA,NA,ylgnlkuk,2020-0188,2021-11-13,15:29:39,16:46:58,NA,incomplete,false,true,NA,1,14,E21_Q8_ansL.png,left,NA,NA,NA,left,1482.29999999981,true,NA,NA,NA,NA,NA
ylgnlkuk,NA,NA,ylgnlkuk,2020-0188,2021-11-13,15:29:39,16:46:58,NA,incomplete,false,true,NA,1,15,E21_Q7_ansL.png,left,NA,NA,NA,left,964.600000000093,true,NA,NA,NA,NA,NA
ylgnlkuk,NA,NA,ylgnlkuk,2020-0188,2021-11-13,15:29:39,16:46:58,NA,incomplete,false,true,NA,1,16,E21_Q2_ansL.png,left,NA,NA,NA,left,1230.79999999981,true,NA,NA,NA,NA,NA
ylgnlkuk,NA,NA,ylgnlkuk,2020-0188,2021-11-13,15:29:39,16:46:58,NA,incomplete,false,true,NA,1,17,E21_Q3_ansR.png,right,NA,NA,NA,right,1428.80000000028,true,NA,NA,NA,NA,NA
ylgnlkuk,NA,NA,ylgnlkuk,2020-0188,2021-11-13,15:29:39,16:46:58,NA,incomplete,false,true,NA,1,18,E21_Q4_ansR.png,right,NA,NA,NA,right,859.600000000093,true,NA,NA,NA,NA,NA
ylgnlkuk,NA,NA,ylgnlkuk,2020-0188,2021-11-13,15:29:39,16:46:58,NA,incomplete,false,true,NA,1,19,E21_Q6_ansR.png,right,NA,NA,NA,right,934.299999999814,true,NA,NA,NA,NA,NA
ylgnlkuk,NA,NA,ylgnlkuk,2020-0188,2021-11-13,15:29:39,16:46:58,NA,incomplete,false,true,NA,1,20,E9_Q7_ansR.png,right,NA,NA,NA,right,1502.89999999991,true,NA,NA,NA,NA,NA
ylgnlkuk,NA,NA,ylgnlkuk,2020-0188,2021-11-13,15:29:39,16:46:58,NA,incomplete,false,true,NA,1,21,E9_Q6_ansL.png,left,NA,NA,NA,left,1641.39999999991,true,NA,NA,NA,NA,NA
ylgnlkuk,NA,NA,ylgnlkuk,2020-0188,2021-11-13,15:29:39,16:46:58,NA,incomplete,false,true,NA,1,22,E9_Q5_ansL.png,left,NA,NA,NA,left,644,true,NA,NA,NA,NA,NA
ylgnlkuk,NA,NA,ylgnlkuk,2020-0188,2021-11-13,15:29:39,16:46:58,NA,incomplete,false,true,NA,1,23,E9_Q10_ansR.png,right,NA,NA,NA,right,1540.79999999981,true,NA,NA,NA,NA,NA
ylgnlkuk,NA,NA,ylgnlkuk,2020-0188,2021-11-13,15:29:39,16:46:58,NA,incomplete,false,true,NA,1,24,E9_Q2_ansR.png,right,NA,NA,NA,right,1910.79999999981,true,NA,NA,NA,NA,NA
ylgnlkuk,NA,NA,ylgnlkuk,2020-0188,2021-11-13,15:29:39,16:46:58,NA,incomplete,false,true,NA,1,25,E9_Q3_ansL.png,left,NA,NA,NA,left,1178.80000000028,true,NA,NA,NA,NA,NA
ylgnlkuk,NA,NA,ylgnlkuk,2020-0188,2021-11-13,15:29:39,16:46:58,NA,incomplete,false,true,NA,1,26,E9_Q1_ansR.png,right,NA,NA,NA,right,1018.10000000009,true,NA,NA,NA,NA,NA
ylgnlkuk,NA,NA,ylgnlkuk,2020-0188,2021-11-13,15:29:39,16:46:58,NA,incomplete,false,true,NA,1,27,E9_Q4_ansL.png,left,NA,NA,NA,left,1165.70000000019,true,NA,NA,NA,NA,NA
ylgnlkuk,NA,NA,ylgnlkuk,2020-0188,2021-11-13,15:29:39,16:46:58,NA,incomplete,false,true,NA,1,28,E9_Q8_ansR.png,right,NA,NA,NA,right,1068.5,true,NA,NA,NA,NA,NA
ylgnlkuk,NA,NA,ylgnlkuk,2020-0188,2021-11-13,15:29:39,16:46:58,NA,incomplete,false,true,NA,1,29,E9_Q9_ansL.png,left,NA,NA,NA,left,1089.89999999991,true,NA,NA,NA,NA,NA
ylgnlkuk,NA,NA,ylgnlkuk,2020-0188,2021-11-13,15:29:39,16:46:58,NA,incomplete,false,NA,true,1,0,NA,left,E32_Q2_ansL.png,E21_Q9_ansR.png,between,NA,NaN,NA,left,1271.9000000003725,1,2,1100.8999999999069
ylgnlkuk,NA,NA,ylgnlkuk,2020-0188,2021-11-13,15:29:39,16:46:58,NA,incomplete,false,NA,true,1,1,NA,right,E9_Q4_ansL.png,E9_Q2_ansR.png,within,NA,NaN,NA,right,3037.7000000001863,1,1,792.7999999998137
ylgnlkuk,NA,NA,ylgnlkuk,2020-0188,2021-11-13,15:29:39,16:46:58,NA,incomplete,false,NA,true,1,2,NA,right,E9_Q5_ansL.png,E21_Q6_ansR.png,between,NA,NaN,NA,right,1360.8999999999069,1,2,1643.7000000001863
ylgnlkuk,NA,NA,ylgnlkuk,2020-0188,2021-11-13,15:29:39,16:46:58,NA,incomplete,false,NA,true,1,3,NA,left,E9_Q5_ansL.png,E9_Q3_ansL.png,within,NA,NaN,NA,left,2510.9000000003725,1,1,1529.9000000003725
ylgnlkuk,NA,NA,ylgnlkuk,2020-0188,2021-11-13,15:29:39,16:46:58,NA,incomplete,false,NA,true,1,4,NA,right,E9_Q10_ansR.png,E9_Q7_ansR.png,within,NA,NaN,NA,right,1571.7999999998137,1,1,1457.7000000001863
ylgnlkuk,NA,NA,ylgnlkuk,2020-0188,2021-11-13,15:29:39,16:46:58,NA,incomplete,false,NA,true,1,5,NA,left,E21_Q5_ansR.png,E21_Q8_ansL.png,within,NA,NaN,NA,right,2033.3999999999069,0,0,890.1999999997206
ylgnlkuk,NA,NA,ylgnlkuk,2020-0188,2021-11-13,15:29:39,16:46:58,NA,incomplete,false,NA,true,1,6,NA,left,E21_Q1_ansL.png,E21_Q10_ansL.png,within,NA,NaN,NA,left,3492.100000000093,1,0,2713
ylgnlkuk,NA,NA,ylgnlkuk,2020-0188,2021-11-13,15:29:39,16:46:58,NA,incomplete,false,NA,true,1,7,NA,right,E32_Q3_ansR.png,E32_Q1_ansL.png,within,NA,NaN,NA,right,1425.3999999999069,1,0,1003.8999999999069
ylgnlkuk,NA,NA,ylgnlkuk,2020-0188,2021-11-13,15:29:39,16:46:58,NA,incomplete,false,NA,true,1,8,NA,left,E21_Q2_ansL.png,E21_Q6_ansR.png,within,NA,NaN,NA,left,1320.3999999999069,1,1,3921.5999999996275
ylgnlkuk,NA,NA,ylgnlkuk,2020-0188,2021-11-13,15:29:39,16:46:58,NA,incomplete,false,NA,true,1,9,NA,left,E32_Q4_ansR.png,E32_Q9_ansR.png,within,NA,NaN,NA,left,1093.1000000000931,1,0,955.4000000003725
ylgnlkuk,NA,NA,ylgnlkuk,2020-0188,2021-11-13,15:29:39,16:46:58,NA,incomplete,false,NA,true,1,10,NA,left,E32_Q7_ansL.png,E32_Q6_ansR.png,within,NA,NaN,NA,left,1352.5,1,0,1052.3999999999069
ylgnlkuk,NA,NA,ylgnlkuk,2020-0188,2021-11-13,15:29:39,16:46:58,NA,incomplete,false,NA,true,1,11,NA,left,E32_Q8_ansL.png,E32_Q2_ansL.png,within,NA,NaN,NA,right,1571.5,0,0,1919.6000000000931
ylgnlkuk,NA,NA,ylgnlkuk,2020-0188,2021-11-13,15:29:39,16:46:58,NA,incomplete,false,NA,true,1,12,NA,left,E32_Q6_ansR.png,E21_Q1_ansL.png,between,NA,NaN,NA,left,3783.4000000003725,1,2,1758.6000000000931
ylgnlkuk,NA,NA,ylgnlkuk,2020-0188,2021-11-13,15:29:39,16:46:58,NA,incomplete,false,NA,true,1,13,NA,left,E32_Q9_ansR.png,E32_Q8_ansL.png,within,NA,NaN,NA,left,1190.7999999998137,1,1,2608.100000000093
ylgnlkuk,NA,NA,ylgnlkuk,2020-0188,2021-11-13,15:29:39,16:46:58,NA,incomplete,false,NA,true,1,14,NA,right,E9_Q8_ansR.png,E9_Q3_ansL.png,within,NA,NaN,NA,right,3330.100000000093,1,0,1944.8999999999069
ylgnlkuk,NA,NA,ylgnlkuk,2020-0188,2021-11-13,15:29:39,16:46:58,NA,incomplete,false,NA,true,1,15,NA,left,E32_Q5_ansR.png,E32_Q7_ansL.png,within,NA,NaN,NA,left,1206.8000000002794,1,0,1741.3000000002794
ylgnlkuk,NA,NA,ylgnlkuk,2020-0188,2021-11-13,15:29:39,16:46:58,NA,incomplete,false,NA,true,1,16,NA,left,E21_Q8_ansL.png,E21_Q3_ansR.png,within,NA,NaN,NA,left,1215,1,1,1295.5
ylgnlkuk,NA,NA,ylgnlkuk,2020-0188,2021-11-13,15:29:39,16:46:58,NA,incomplete,false,NA,true,1,17,NA,left,E32_Q10_ansL.png,E21_Q5_ansR.png,between,NA,NaN,NA,left,1240.2000000001863,1,3,1749.2999999998137
ylgnlkuk,NA,NA,ylgnlkuk,2020-0188,2021-11-13,15:29:39,16:46:58,NA,incomplete,false,NA,true,1,18,NA,left,E9_Q6_ansL.png,E9_Q2_ansR.png,within,NA,NaN,NA,left,1336.8999999999069,1,1,858.4000000003725
ylgnlkuk,NA,NA,ylgnlkuk,2020-0188,2021-11-13,15:29:39,16:46:58,NA,incomplete,false,NA,true,1,19,NA,right,E21_Q4_ansR.png,E21_Q7_ansL.png,within,NA,NaN,NA,left,4671,0,1,833.7000000001863
ylgnlkuk,NA,NA,ylgnlkuk,2020-0188,2021-11-13,15:29:39,16:46:58,NA,incomplete,false,NA,true,1,20,NA,right,E9_Q7_ansR.png,E21_Q3_ansR.png,between,NA,NaN,NA,right,6119.199999999721,1,2,1279.3999999999069
ylgnlkuk,NA,NA,ylgnlkuk,2020-0188,2021-11-13,15:29:39,16:46:58,NA,incomplete,false,NA,true,1,21,NA,right,E32_Q10_ansL.png,E32_Q3_ansR.png,within,NA,NaN,NA,right,2889.100000000093,1,1,1093.0999999996275
ylgnlkuk,NA,NA,ylgnlkuk,2020-0188,2021-11-13,15:29:39,16:46:58,NA,incomplete,false,NA,true,1,22,NA,right,E9_Q9_ansL.png,E9_Q1_ansR.png,within,NA,NaN,NA,right,2065.8000000002794,1,1,1092.6999999997206
ylgnlkuk,NA,NA,ylgnlkuk,2020-0188,2021-11-13,15:29:39,16:46:58,NA,incomplete,false,NA,true,1,23,NA,right,E21_Q7_ansL.png,E21_Q9_ansR.png,within,NA,NaN,NA,right,1340.3999999999069,1,1,1173.7000000001863
ylgnlkuk,NA,NA,ylgnlkuk,2020-0188,2021-11-13,15:29:39,16:46:58,NA,incomplete,false,NA,true,1,24,NA,right,E9_Q1_ansR.png,E9_Q10_ansR.png,within,NA,NaN,NA,right,1012.5999999996275,1,1,931.2000000001863
ylgnlkuk,NA,NA,ylgnlkuk,2020-0188,2021-11-13,15:29:39,16:46:58,NA,incomplete,false,NA,true,1,25,NA,right,E9_Q6_ansL.png,E21_Q4_ansR.png,between,NA,NaN,NA,right,2730.100000000093,1,2,2146.3000000002794
ylgnlkuk,NA,NA,ylgnlkuk,2020-0188,2021-11-13,15:29:39,16:46:58,NA,incomplete,false,NA,true,1,26,NA,right,E21_Q2_ansL.png,E21_Q10_ansL.png,within,NA,NaN,NA,right,1871.2000000001863,1,1,1020.0999999996275
ylgnlkuk,NA,NA,ylgnlkuk,2020-0188,2021-11-13,15:29:39,16:46:58,NA,incomplete,false,true,NA,2,0,E7_Q6_ansR.png,right,NA,NA,NA,right,2299.19999999972,true,NA,NA,NA,NA,NA
ylgnlkuk,NA,NA,ylgnlkuk,2020-0188,2021-11-13,15:29:39,16:46:58,NA,incomplete,false,true,NA,2,1,E7_Q10_ansR.png,right,NA,NA,NA,right,1254,true,NA,NA,NA,NA,NA
ylgnlkuk,NA,NA,ylgnlkuk,2020-0188,2021-11-13,15:29:39,16:46:58,NA,incomplete,false,true,NA,2,2,E7_Q2_ansL.png,left,NA,NA,NA,left,1482.79999999981,true,NA,NA,NA,NA,NA
ylgnlkuk,NA,NA,ylgnlkuk,2020-0188,2021-11-13,15:29:39,16:46:58,NA,incomplete,false,true,NA,2,3,E7_Q9_ansR.png,right,NA,NA,NA,right,871,true,NA,NA,NA,NA,NA
ylgnlkuk,NA,NA,ylgnlkuk,2020-0188,2021-11-13,15:29:39,16:46:58,NA,incomplete,false,true,NA,2,4,E7_Q4_ansR.png,right,NA,NA,NA,right,991.700000000186,true,NA,NA,NA,NA,NA
ylgnlkuk,NA,NA,ylgnlkuk,2020-0188,2021-11-13,15:29:39,16:46:58,NA,incomplete,false,true,NA,2,5,E7_Q7_ansL.png,left,NA,NA,NA,left,1115.89999999991,true,NA,NA,NA,NA,NA
ylgnlkuk,NA,NA,ylgnlkuk,2020-0188,2021-11-13,15:29:39,16:46:58,NA,incomplete,false,true,NA,2,6,E7_Q8_ansL.png,left,NA,NA,NA,left,1688.60000000009,true,NA,NA,NA,NA,NA
ylgnlkuk,NA,NA,ylgnlkuk,2020-0188,2021-11-13,15:29:39,16:46:58,NA,incomplete,false,true,NA,2,7,E7_Q5_ansR.png,right,NA,NA,NA,right,1417,true,NA,NA,NA,NA,NA
ylgnlkuk,NA,NA,ylgnlkuk,2020-0188,2021-11-13,15:29:39,16:46:58,NA,incomplete,false,true,NA,2,8,E7_Q3_ansR.png,right,NA,NA,NA,right,830.699999999721,true,NA,NA,NA,NA,NA
ylgnlkuk,NA,NA,ylgnlkuk,2020-0188,2021-11-13,15:29:39,16:46:58,NA,incomplete,false,true,NA,2,9,E7_Q1_ansL.png,left,NA,NA,NA,left,1260.20000000019,true,NA,NA,NA,NA,NA
ylgnlkuk,NA,NA,ylgnlkuk,2020-0188,2021-11-13,15:29:39,16:46:58,NA,incomplete,false,true,NA,2,10,E17_Q10_ansL.png,left,NA,NA,NA,left,1247.80000000028,true,NA,NA,NA,NA,NA
ylgnlkuk,NA,NA,ylgnlkuk,2020-0188,2021-11-13,15:29:39,16:46:58,NA,incomplete,false,true,NA,2,11,E17_Q6_ansR.png,right,NA,NA,NA,right,1943.70000000019,true,NA,NA,NA,NA,NA
ylgnlkuk,NA,NA,ylgnlkuk,2020-0188,2021-11-13,15:29:39,16:46:58,NA,incomplete,false,true,NA,2,12,E17_Q1_ansL.png,left,NA,NA,NA,left,971.199999999721,true,NA,NA,NA,NA,NA
ylgnlkuk,NA,NA,ylgnlkuk,2020-0188,2021-11-13,15:29:39,16:46:58,NA,incomplete,false,true,NA,2,13,E17_Q3_ansR.png,right,NA,NA,NA,right,1144.29999999981,true,NA,NA,NA,NA,NA
ylgnlkuk,NA,NA,ylgnlkuk,2020-0188,2021-11-13,15:29:39,16:46:58,NA,incomplete,false,true,NA,2,14,E17_Q5_ansR.png,right,NA,NA,NA,right,837.5,true,NA,NA,NA,NA,NA
ylgnlkuk,NA,NA,ylgnlkuk,2020-0188,2021-11-13,15:29:39,16:46:58,NA,incomplete,false,true,NA,2,15,E17_Q8_ansL.png,left,NA,NA,NA,left,1163.79999999981,true,NA,NA,NA,NA,NA
ylgnlkuk,NA,NA,ylgnlkuk,2020-0188,2021-11-13,15:29:39,16:46:58,NA,incomplete,false,true,NA,2,16,E17_Q7_ansL.png,left,NA,NA,NA,left,1097.20000000019,true,NA,NA,NA,NA,NA
ylgnlkuk,NA,NA,ylgnlkuk,2020-0188,2021-11-13,15:29:39,16:46:58,NA,incomplete,false,true,NA,2,17,E17_Q9_ansR.png,right,NA,NA,NA,right,695.100000000093,true,NA,NA,NA,NA,NA
ylgnlkuk,NA,NA,ylgnlkuk,2020-0188,2021-11-13,15:29:39,16:46:58,NA,incomplete,false,true,NA,2,18,E17_Q2_ansL.png,left,NA,NA,NA,left,1382.70000000019,true,NA,NA,NA,NA,NA
ylgnlkuk,NA,NA,ylgnlkuk,2020-0188,2021-11-13,15:29:39,16:46:58,NA,incomplete,false,true,NA,2,19,E17_Q4_ansR.png,right,NA,NA,NA,right,1004.30000000028,true,NA,NA,NA,NA,NA
ylgnlkuk,NA,NA,ylgnlkuk,2020-0188,2021-11-13,15:29:39,16:46:58,NA,incomplete,false,true,NA,2,20,E23_Q10_ansL.png,left,NA,NA,NA,left,3491,true,NA,NA,NA,NA,NA
ylgnlkuk,NA,NA,ylgnlkuk,2020-0188,2021-11-13,15:29:39,16:46:58,NA,incomplete,false,true,NA,2,21,E23_Q2_ansL.png,left,NA,NA,NA,right,986.899999999907,false,NA,NA,NA,NA,NA
ylgnlkuk,NA,NA,ylgnlkuk,2020-0188,2021-11-13,15:29:39,16:46:58,NA,incomplete,false,true,NA,2,22,E23_Q8_ansL.png,left,NA,NA,NA,left,1043,true,NA,NA,NA,NA,NA
ylgnlkuk,NA,NA,ylgnlkuk,2020-0188,2021-11-13,15:29:39,16:46:58,NA,incomplete,false,true,NA,2,23,E23_Q6_ansR.png,right,NA,NA,NA,right,1459.20000000019,true,NA,NA,NA,NA,NA
ylgnlkuk,NA,NA,ylgnlkuk,2020-0188,2021-11-13,15:29:39,16:46:58,NA,incomplete,false,true,NA,2,24,E23_Q7_ansL.png,left,NA,NA,NA,left,980.5,true,NA,NA,NA,NA,NA
ylgnlkuk,NA,NA,ylgnlkuk,2020-0188,2021-11-13,15:29:39,16:46:58,NA,incomplete,false,true,NA,2,25,E23_Q4_ansR.png,right,NA,NA,NA,right,2558.39999999991,true,NA,NA,NA,NA,NA
ylgnlkuk,NA,NA,ylgnlkuk,2020-0188,2021-11-13,15:29:39,16:46:58,NA,incomplete,false,true,NA,2,26,E23_Q3_ansR.png,right,NA,NA,NA,right,3015.19999999972,true,NA,NA,NA,NA,NA
ylgnlkuk,NA,NA,ylgnlkuk,2020-0188,2021-11-13,15:29:39,16:46:58,NA,incomplete,false,true,NA,2,27,E23_Q5_ansR.png,right,NA,NA,NA,right,1398.79999999981,true,NA,NA,NA,NA,NA
ylgnlkuk,NA,NA,ylgnlkuk,2020-0188,2021-11-13,15:29:39,16:46:58,NA,incomplete,false,true,NA,2,28,E23_Q9_ansR.png,right,NA,NA,NA,right,1089.10000000009,true,NA,NA,NA,NA,NA
ylgnlkuk,NA,NA,ylgnlkuk,2020-0188,2021-11-13,15:29:39,16:46:58,NA,incomplete,false,true,NA,2,29,E23_Q1_ansL.png,left,NA,NA,NA,left,2470.39999999991,true,NA,NA,NA,NA,NA
ylgnlkuk,NA,NA,ylgnlkuk,2020-0188,2021-11-13,15:29:39,16:46:58,NA,incomplete,false,NA,true,2,0,NA,right,E23_Q5_ansR.png,E23_Q7_ansL.png,within,NA,NaN,NA,left,2362.4000000003725,0,0,980
ylgnlkuk,NA,NA,ylgnlkuk,2020-0188,2021-11-13,15:29:39,16:46:58,NA,incomplete,false,NA,true,2,1,NA,right,E23_Q10_ansL.png,E17_Q9_ansR.png,between,NA,NaN,NA,right,1693,1,2,1920.5999999996275
ylgnlkuk,NA,NA,ylgnlkuk,2020-0188,2021-11-13,15:29:39,16:46:58,NA,incomplete,false,NA,true,2,2,NA,right,E23_Q1_ansL.png,E23_Q3_ansR.png,within,NA,NaN,NA,right,2179.800000000745,1,0,1540.0999999996275
ylgnlkuk,NA,NA,ylgnlkuk,2020-0188,2021-11-13,15:29:39,16:46:58,NA,incomplete,false,NA,true,2,3,NA,left,E7_Q5_ansR.png,E17_Q10_ansL.png,between,NA,NaN,NA,left,1401.5999999996275,1,2,907.2000000001863
ylgnlkuk,NA,NA,ylgnlkuk,2020-0188,2021-11-13,15:29:39,16:46:58,NA,incomplete,false,NA,true,2,4,NA,left,E7_Q2_ansL.png,E7_Q7_ansL.png,within,NA,NaN,NA,right,3241.5,0,0,1668.7999999998137
ylgnlkuk,NA,NA,ylgnlkuk,2020-0188,2021-11-13,15:29:39,16:46:58,NA,incomplete,false,NA,true,2,5,NA,left,E7_Q1_ansL.png,E17_Q1_ansL.png,between,NA,NaN,NA,left,3074.600000000559,1,1,1125.5999999996275
ylgnlkuk,NA,NA,ylgnlkuk,2020-0188,2021-11-13,15:29:39,16:46:58,NA,incomplete,false,NA,true,2,6,NA,left,E7_Q6_ansR.png,E7_Q9_ansR.png,within,NA,NaN,NA,left,2482.7000000001863,1,0,3322.5
ylgnlkuk,NA,NA,ylgnlkuk,2020-0188,2021-11-13,15:29:39,16:46:58,NA,incomplete,false,NA,true,2,7,NA,left,E17_Q8_ansL.png,E17_Q2_ansL.png,within,NA,NaN,NA,left,1847.2999999998137,1,1,1157.699999999255
ylgnlkuk,NA,NA,ylgnlkuk,2020-0188,2021-11-13,15:29:39,16:46:58,NA,incomplete,false,NA,true,2,8,NA,left,E17_Q6_ansR.png,E17_Q5_ansR.png,within,NA,NaN,NA,left,1272,1,0,2050
ylgnlkuk,NA,NA,ylgnlkuk,2020-0188,2021-11-13,15:29:39,16:46:58,NA,incomplete,false,NA,true,2,9,NA,left,E23_Q2_ansL.png,E23_Q7_ansL.png,within,NA,NaN,NA,left,1057.1000000005588,1,0,1580
ylgnlkuk,NA,NA,ylgnlkuk,2020-0188,2021-11-13,15:29:39,16:46:58,NA,incomplete,false,NA,true,2,10,NA,right,E23_Q6_ansR.png,E23_Q10_ansL.png,within,NA,NaN,NA,left,1847.8999999994412,0,0,964.3999999994412
ylgnlkuk,NA,NA,ylgnlkuk,2020-0188,2021-11-13,15:29:39,16:46:58,NA,incomplete,false,NA,true,2,11,NA,left,E7_Q4_ansR.png,E7_Q5_ansR.png,within,NA,NaN,NA,right,1814.6000000005588,0,1,2081.800000000745
ylgnlkuk,NA,NA,ylgnlkuk,2020-0188,2021-11-13,15:29:39,16:46:58,NA,incomplete,false,NA,true,2,12,NA,left,E23_Q4_ansR.png,E23_Q9_ansR.png,within,NA,NaN,NA,left,996.7999999998137,1,0,2243.7000000001863
ylgnlkuk,NA,NA,ylgnlkuk,2020-0188,2021-11-13,15:29:39,16:46:58,NA,incomplete,false,NA,true,2,13,NA,left,E17_Q3_ansR.png,E17_Q7_ansL.png,within,NA,NaN,NA,right,2580.7000000001863,0,1,1863.3999999994412
ylgnlkuk,NA,NA,ylgnlkuk,2020-0188,2021-11-13,15:29:39,16:46:58,NA,incomplete,false,NA,true,2,14,NA,right,E23_Q3_ansR.png,E23_Q6_ansR.png,within,NA,NaN,NA,right,2033,1,0,1174.0999999996275
ylgnlkuk,NA,NA,ylgnlkuk,2020-0188,2021-11-13,15:29:39,16:46:58,NA,incomplete,false,NA,true,2,15,NA,right,E7_Q1_ansL.png,E7_Q8_ansL.png,within,NA,NaN,NA,right,1336.6000000005588,1,1,1101.2000000001863
ylgnlkuk,NA,NA,ylgnlkuk,2020-0188,2021-11-13,15:29:39,16:46:58,NA,incomplete,false,NA,true,2,16,NA,left,E17_Q10_ansL.png,E17_Q3_ansR.png,within,NA,NaN,NA,left,1555.6000000005588,1,0,1936.2000000001863
ylgnlkuk,NA,NA,ylgnlkuk,2020-0188,2021-11-13,15:29:39,16:46:58,NA,incomplete,false,NA,true,2,17,NA,left,E17_Q4_ansR.png,E23_Q8_ansL.png,between,NA,NaN,NA,left,2828.300000000745,1,2,1563.9000000003725
ylgnlkuk,NA,NA,ylgnlkuk,2020-0188,2021-11-13,15:29:39,16:46:58,NA,incomplete,false,NA,true,2,18,NA,right,E17_Q4_ansR.png,E17_Q7_ansL.png,within,NA,NaN,NA,right,1684.5,1,1,1133.7000000001863
ylgnlkuk,NA,NA,ylgnlkuk,2020-0188,2021-11-13,15:29:39,16:46:58,NA,incomplete,false,NA,true,2,19,NA,right,E7_Q3_ansR.png,E7_Q7_ansL.png,within,NA,NaN,NA,right,1393.199999999255,1,1,1417.2999999998137
ylgnlkuk,NA,NA,ylgnlkuk,2020-0188,2021-11-13,15:29:39,16:46:58,NA,incomplete,false,NA,true,2,20,NA,left,E7_Q3_ansR.png,E17_Q6_ansR.png,between,NA,NaN,NA,left,1709.5999999996275,1,2,2332.4000000003725
ylgnlkuk,NA,NA,ylgnlkuk,2020-0188,2021-11-13,15:29:39,16:46:58,NA,incomplete,false,NA,true,2,21,NA,left,E17_Q1_ansL.png,E17_Q8_ansL.png,within,NA,NaN,NA,left,1571.3999999994412,1,1,2154.5
ylgnlkuk,NA,NA,ylgnlkuk,2020-0188,2021-11-13,15:29:39,16:46:58,NA,incomplete,false,NA,true,2,22,NA,right,E7_Q8_ansL.png,E7_Q9_ansR.png,within,NA,NaN,NA,left,1097.6000000005588,0,1,2356.899999999441
ylgnlkuk,NA,NA,ylgnlkuk,2020-0188,2021-11-13,15:29:39,16:46:58,NA,incomplete,false,NA,true,2,23,NA,right,E23_Q4_ansR.png,E23_Q8_ansL.png,within,NA,NaN,NA,right,1207.0999999996275,1,1,825.2999999998137
ylgnlkuk,NA,NA,ylgnlkuk,2020-0188,2021-11-13,15:29:39,16:46:58,NA,incomplete,false,NA,true,2,24,NA,left,E17_Q2_ansL.png,E23_Q2_ansL.png,between,NA,NaN,NA,left,2264,1,2,2397.7999999998137
ylgnlkuk,NA,NA,ylgnlkuk,2020-0188,2021-11-13,15:29:39,16:46:58,NA,incomplete,false,NA,true,2,25,NA,right,E7_Q4_ansR.png,E7_Q10_ansR.png,within,NA,NaN,NA,left,5209.700000000186,0,1,2097.699999999255
ylgnlkuk,NA,NA,ylgnlkuk,2020-0188,2021-11-13,15:29:39,16:46:58,NA,incomplete,false,NA,true,2,26,NA,left,E17_Q5_ansR.png,E17_Q9_ansR.png,within,NA,NaN,NA,left,1170.5999999996275,1,0,1376.8999999994412
ylgnlkuk,NA,NA,ylgnlkuk,2020-0188,2021-11-13,15:29:39,16:46:58,NA,incomplete,false,true,NA,3,0,E15_Q3_ansR.png,right,NA,NA,NA,right,2543.29999999981,true,NA,NA,NA,NA,NA
ylgnlkuk,NA,NA,ylgnlkuk,2020-0188,2021-11-13,15:29:39,16:46:58,NA,incomplete,false,true,NA,3,1,E15_Q9_ansR.png,right,NA,NA,NA,right,1267.20000000019,true,NA,NA,NA,NA,NA
ylgnlkuk,NA,NA,ylgnlkuk,2020-0188,2021-11-13,15:29:39,16:46:58,NA,incomplete,false,true,NA,3,2,E15_Q10_ansL.png,left,NA,NA,NA,left,1207.09999999963,true,NA,NA,NA,NA,NA
ylgnlkuk,NA,NA,ylgnlkuk,2020-0188,2021-11-13,15:29:39,16:46:58,NA,incomplete,false,true,NA,3,3,E15_Q5_ansR.png,right,NA,NA,NA,left,923.200000000186,false,NA,NA,NA,NA,NA
ylgnlkuk,NA,NA,ylgnlkuk,2020-0188,2021-11-13,15:29:39,16:46:58,NA,incomplete,false,true,NA,3,4,E15_Q2_ansL.png,left,NA,NA,NA,left,987.199999999255,true,NA,NA,NA,NA,NA
ylgnlkuk,NA,NA,ylgnlkuk,2020-0188,2021-11-13,15:29:39,16:46:58,NA,incomplete,false,true,NA,3,5,E15_Q8_ansL.png,left,NA,NA,NA,left,1153.60000000056,true,NA,NA,NA,NA,NA
ylgnlkuk,NA,NA,ylgnlkuk,2020-0188,2021-11-13,15:29:39,16:46:58,NA,incomplete,false,true,NA,3,6,E15_Q7_ansL.png,left,NA,NA,NA,left,1009.59999999963,true,NA,NA,NA,NA,NA
ylgnlkuk,NA,NA,ylgnlkuk,2020-0188,2021-11-13,15:29:39,16:46:58,NA,incomplete,false,true,NA,3,7,E15_Q6_ansR.png,right,NA,NA,NA,right,2128.19999999925,true,NA,NA,NA,NA,NA
ylgnlkuk,NA,NA,ylgnlkuk,2020-0188,2021-11-13,15:29:39,16:46:58,NA,incomplete,false,true,NA,3,8,E15_Q4_ansR.png,right,NA,NA,NA,right,1551.90000000037,true,NA,NA,NA,NA,NA
ylgnlkuk,NA,NA,ylgnlkuk,2020-0188,2021-11-13,15:29:39,16:46:58,NA,incomplete,false,true,NA,3,9,E15_Q1_ansL.png,left,NA,NA,NA,left,1117.70000000019,true,NA,NA,NA,NA,NA
ylgnlkuk,NA,NA,ylgnlkuk,2020-0188,2021-11-13,15:29:39,16:46:58,NA,incomplete,false,true,NA,3,10,E30_Q5_ansR.png,right,NA,NA,NA,right,2657.59999999963,true,NA,NA,NA,NA,NA
ylgnlkuk,NA,NA,ylgnlkuk,2020-0188,2021-11-13,15:29:39,16:46:58,NA,incomplete,false,true,NA,3,11,E30_Q2_ansL.png,left,NA,NA,NA,left,1652.30000000075,true,NA,NA,NA,NA,NA
ylgnlkuk,NA,NA,ylgnlkuk,2020-0188,2021-11-13,15:29:39,16:46:58,NA,incomplete,false,true,NA,3,12,E30_Q4_ansL.png,left,NA,NA,NA,left,1415.60000000056,true,NA,NA,NA,NA,NA
ylgnlkuk,NA,NA,ylgnlkuk,2020-0188,2021-11-13,15:29:39,16:46:58,NA,incomplete,false,true,NA,3,13,E30_Q6_ansR.png,right,NA,NA,NA,right,1571.39999999944,true,NA,NA,NA,NA,NA
ylgnlkuk,NA,NA,ylgnlkuk,2020-0188,2021-11-13,15:29:39,16:46:58,NA,incomplete,false,true,NA,3,14,E30_Q7_ansL.png,left,NA,NA,NA,right,2949.59999999963,false,NA,NA,NA,NA,NA
ylgnlkuk,NA,NA,ylgnlkuk,2020-0188,2021-11-13,15:29:39,16:46:58,NA,incomplete,false,true,NA,3,15,E30_Q10_ansR.png,right,NA,NA,NA,right,1994.40000000037,true,NA,NA,NA,NA,NA
ylgnlkuk,NA,NA,ylgnlkuk,2020-0188,2021-11-13,15:29:39,16:46:58,NA,incomplete,false,true,NA,3,16,E30_Q8_ansL.png,left,NA,NA,NA,right,2359.30000000075,false,NA,NA,NA,NA,NA
ylgnlkuk,NA,NA,ylgnlkuk,2020-0188,2021-11-13,15:29:39,16:46:58,NA,incomplete,false,true,NA,3,17,E30_Q9_ansL.png,left,NA,NA,NA,left,2980.20000000019,true,NA,NA,NA,NA,NA
ylgnlkuk,NA,NA,ylgnlkuk,2020-0188,2021-11-13,15:29:39,16:46:58,NA,incomplete,false,true,NA,3,18,E30_Q3_ansL.png,left,NA,NA,NA,left,3142.40000000037,true,NA,NA,NA,NA,NA
ylgnlkuk,NA,NA,ylgnlkuk,2020-0188,2021-11-13,15:29:39,16:46:58,NA,incomplete,false,true,NA,3,19,E30_Q1_ansL.png,left,NA,NA,NA,left,2834.80000000075,true,NA,NA,NA,NA,NA
ylgnlkuk,NA,NA,ylgnlkuk,2020-0188,2021-11-13,15:29:39,16:46:58,NA,incomplete,false,true,NA,3,20,E22_Q3_ansL.png,left,NA,NA,NA,left,1033.20000000019,true,NA,NA,NA,NA,NA
ylgnlkuk,NA,NA,ylgnlkuk,2020-0188,2021-11-13,15:29:39,16:46:58,NA,incomplete,false,true,NA,3,21,E22_Q1_ansR.png,right,NA,NA,NA,right,2368.70000000019,true,NA,NA,NA,NA,NA
ylgnlkuk,NA,NA,ylgnlkuk,2020-0188,2021-11-13,15:29:39,16:46:58,NA,incomplete,false,true,NA,3,22,E22_Q9_ansL.png,left,NA,NA,NA,left,1101.59999999963,true,NA,NA,NA,NA,NA
ylgnlkuk,NA,NA,ylgnlkuk,2020-0188,2021-11-13,15:29:39,16:46:58,NA,incomplete,false,true,NA,3,23,E22_Q6_ansL.png,left,NA,NA,NA,left,1197,true,NA,NA,NA,NA,NA
ylgnlkuk,NA,NA,ylgnlkuk,2020-0188,2021-11-13,15:29:39,16:46:58,NA,incomplete,false,true,NA,3,24,E22_Q5_ansL.png,left,NA,NA,NA,left,762,true,NA,NA,NA,NA,NA
ylgnlkuk,NA,NA,ylgnlkuk,2020-0188,2021-11-13,15:29:39,16:46:58,NA,incomplete,false,true,NA,3,25,E22_Q7_ansR.png,right,NA,NA,NA,right,1198.20000000019,true,NA,NA,NA,NA,NA
ylgnlkuk,NA,NA,ylgnlkuk,2020-0188,2021-11-13,15:29:39,16:46:58,NA,incomplete,false,true,NA,3,26,E22_Q4_ansL.png,left,NA,NA,NA,left,917.599999999627,true,NA,NA,NA,NA,NA
ylgnlkuk,NA,NA,ylgnlkuk,2020-0188,2021-11-13,15:29:39,16:46:58,NA,incomplete,false,true,NA,3,27,E22_Q10_ansR.png,right,NA,NA,NA,right,980.099999999627,true,NA,NA,NA,NA,NA
ylgnlkuk,NA,NA,ylgnlkuk,2020-0188,2021-11-13,15:29:39,16:46:58,NA,incomplete,false,true,NA,3,28,E22_Q8_ansR.png,right,NA,NA,NA,right,1755.5,true,NA,NA,NA,NA,NA
ylgnlkuk,NA,NA,ylgnlkuk,2020-0188,2021-11-13,15:29:39,16:46:58,NA,incomplete,false,true,NA,3,29,E22_Q2_ansR.png,right,NA,NA,NA,right,1115.89999999944,true,NA,NA,NA,NA,NA
ylgnlkuk,NA,NA,ylgnlkuk,2020-0188,2021-11-13,15:29:39,16:46:58,NA,incomplete,false,NA,true,3,0,NA,right,E15_Q1_ansL.png,E15_Q7_ansL.png,within,NA,NaN,NA,left,2141.2000000001863,0,0,1215.4000000003725
ylgnlkuk,NA,NA,ylgnlkuk,2020-0188,2021-11-13,15:29:39,16:46:58,NA,incomplete,false,NA,true,3,1,NA,left,E22_Q9_ansL.png,E22_Q7_ansR.png,within,NA,NaN,NA,left,1539.2999999998137,1,0,1425.5
ylgnlkuk,NA,NA,ylgnlkuk,2020-0188,2021-11-13,15:29:39,16:46:58,NA,incomplete,false,NA,true,3,2,NA,right,E22_Q2_ansR.png,E22_Q4_ansL.png,within,NA,NaN,NA,left,1608.6000000005588,0,0,1344.5999999996275
ylgnlkuk,NA,NA,ylgnlkuk,2020-0188,2021-11-13,15:29:39,16:46:58,NA,incomplete,false,NA,true,3,3,NA,right,E15_Q4_ansR.png,E15_Q8_ansL.png,within,NA,NaN,NA,left,1061.699999999255,0,1,1514.5
ylgnlkuk,NA,NA,ylgnlkuk,2020-0188,2021-11-13,15:29:39,16:46:58,NA,incomplete,false,NA,true,3,4,NA,left,E22_Q7_ansR.png,E22_Q8_ansR.png,within,NA,NaN,NA,left,1248.1000000005588,1,1,1685
ylgnlkuk,NA,NA,ylgnlkuk,2020-0188,2021-11-13,15:29:39,16:46:58,NA,incomplete,false,NA,true,3,5,NA,right,E30_Q8_ansL.png,E30_Q6_ansR.png,within,NA,NaN,NA,right,2568.5,1,0,1765.2000000001863
ylgnlkuk,NA,NA,ylgnlkuk,2020-0188,2021-11-13,15:29:39,16:46:58,NA,incomplete,false,NA,true,3,6,NA,right,E22_Q10_ansR.png,E22_Q5_ansL.png,within,NA,NaN,NA,right,1717.4000000003725,1,0,1960.2000000001863
ylgnlkuk,NA,NA,ylgnlkuk,2020-0188,2021-11-13,15:29:39,16:46:58,NA,incomplete,false,NA,true,3,7,NA,right,E30_Q1_ansL.png,E30_Q8_ansL.png,within,NA,NaN,NA,left,2438.5,0,0,1044.7000000001863
ylgnlkuk,NA,NA,ylgnlkuk,2020-0188,2021-11-13,15:29:39,16:46:58,NA,incomplete,false,NA,true,3,8,NA,left,E30_Q7_ansL.png,E30_Q9_ansL.png,within,NA,NaN,NA,left,1847.0999999996275,1,0,1806.800000000745
ylgnlkuk,NA,NA,ylgnlkuk,2020-0188,2021-11-13,15:29:39,16:46:58,NA,incomplete,false,NA,true,3,9,NA,right,E22_Q3_ansL.png,E30_Q9_ansL.png,between,NA,NaN,NA,right,3532.7999999998137,1,1,1440.7999999998137
ylgnlkuk,NA,NA,ylgnlkuk,2020-0188,2021-11-13,15:29:39,16:46:58,NA,incomplete,false,NA,true,3,10,NA,right,E15_Q8_ansL.png,E15_Q10_ansL.png,within,NA,NaN,NA,right,3402.9000000003725,1,1,1287.5999999996275
ylgnlkuk,NA,NA,ylgnlkuk,2020-0188,2021-11-13,15:29:39,16:46:58,NA,incomplete,false,NA,true,3,11,NA,left,E22_Q6_ansL.png,E22_Q4_ansL.png,within,NA,NaN,NA,right,2673.699999999255,0,1,1020
ylgnlkuk,NA,NA,ylgnlkuk,2020-0188,2021-11-13,15:29:39,16:46:58,NA,incomplete,false,NA,true,3,12,NA,right,E30_Q10_ansR.png,E30_Q4_ansL.png,within,NA,NaN,NA,right,2251.7000000001863,1,0,883
ylgnlkuk,NA,NA,ylgnlkuk,2020-0188,2021-11-13,15:29:39,16:46:58,NA,incomplete,false,NA,true,3,13,NA,left,E30_Q10_ansR.png,E30_Q3_ansL.png,within,NA,NaN,NA,right,2900.2000000001863,0,0,801.7000000001863
ylgnlkuk,NA,NA,ylgnlkuk,2020-0188,2021-11-13,15:29:39,16:46:58,NA,incomplete,false,NA,true,3,14,NA,right,E15_Q5_ansR.png,E15_Q3_ansR.png,within,NA,NaN,NA,right,1716.7000000001863,1,0,1279.199999999255
ylgnlkuk,NA,NA,ylgnlkuk,2020-0188,2021-11-13,15:29:39,16:46:58,NA,incomplete,false,NA,true,3,15,NA,right,E15_Q2_ansL.png,E15_Q9_ansR.png,within,NA,NaN,NA,right,1457.8999999994412,1,0,1207.7999999998137
ylgnlkuk,NA,NA,ylgnlkuk,2020-0188,2021-11-13,15:29:39,16:46:58,NA,incomplete,false,NA,true,3,16,NA,right,E22_Q9_ansL.png,E30_Q1_ansL.png,between,NA,NaN,NA,right,5152.799999999814,1,2,3143.2999999998137
ylgnlkuk,NA,NA,ylgnlkuk,2020-0188,2021-11-13,15:29:39,16:46:58,NA,incomplete,false,NA,true,3,17,NA,right,E30_Q4_ansL.png,E15_Q1_ansL.png,between,NA,NaN,NA,right,1924.300000000745,1,2,1862.699999999255
ylgnlkuk,NA,NA,ylgnlkuk,2020-0188,2021-11-13,15:29:39,16:46:58,NA,incomplete,false,NA,true,3,18,NA,left,E22_Q3_ansL.png,E22_Q6_ansL.png,within,NA,NaN,NA,left,3528.5999999996275,1,0,1773.5
ylgnlkuk,NA,NA,ylgnlkuk,2020-0188,2021-11-13,15:29:39,16:46:58,NA,incomplete,false,NA,true,3,19,NA,right,E30_Q6_ansR.png,E30_Q5_ansR.png,within,NA,NaN,NA,right,3224.399999999441,1,0,1910.9000000003725
ylgnlkuk,NA,NA,ylgnlkuk,2020-0188,2021-11-13,15:29:39,16:46:58,NA,incomplete,false,NA,true,3,20,NA,right,E30_Q5_ansR.png,E15_Q6_ansR.png,between,NA,NaN,NA,right,1271.5,1,2,1870.5
ylgnlkuk,NA,NA,ylgnlkuk,2020-0188,2021-11-13,15:29:39,16:46:58,NA,incomplete,false,NA,true,3,21,NA,left,E30_Q3_ansL.png,E22_Q1_ansR.png,between,NA,NaN,NA,left,4010.600000000559,1,1,1628.3999999994412
ylgnlkuk,NA,NA,ylgnlkuk,2020-0188,2021-11-13,15:29:39,16:46:58,NA,incomplete,false,NA,true,3,22,NA,left,E15_Q5_ansR.png,E15_Q7_ansL.png,within,NA,NaN,NA,left,3094.899999999441,1,0,2203.100000000559
ylgnlkuk,NA,NA,ylgnlkuk,2020-0188,2021-11-13,15:29:39,16:46:58,NA,incomplete,false,NA,true,3,23,NA,left,E30_Q2_ansL.png,E30_Q7_ansL.png,within,NA,NaN,NA,left,3030.2999999998137,1,0,1117.5
ylgnlkuk,NA,NA,ylgnlkuk,2020-0188,2021-11-13,15:29:39,16:46:58,NA,incomplete,false,NA,true,3,24,NA,right,E15_Q6_ansR.png,E15_Q2_ansL.png,within,NA,NaN,NA,right,1279.5999999996275,1,1,1700.2000000001863
ylgnlkuk,NA,NA,ylgnlkuk,2020-0188,2021-11-13,15:29:39,16:46:58,NA,incomplete,false,NA,true,3,25,NA,right,E22_Q5_ansL.png,E22_Q1_ansR.png,within,NA,NaN,NA,left,1547.9000000003725,0,1,1563
ylgnlkuk,NA,NA,ylgnlkuk,2020-0188,2021-11-13,15:29:39,16:46:58,NA,incomplete,false,NA,true,3,26,NA,left,E15_Q4_ansR.png,E30_Q2_ansL.png,between,NA,NaN,NA,left,3750.7000000001863,1,1,1612
ylgnlkuk,NA,NA,ylgnlkuk,2020-0188,2021-11-13,15:29:39,16:46:58,NA,incomplete,false,true,NA,4,0,E11_Q3_ansL.png,left,NA,NA,NA,left,2262.40000000037,true,NA,NA,NA,NA,NA
ylgnlkuk,NA,NA,ylgnlkuk,2020-0188,2021-11-13,15:29:39,16:46:58,NA,incomplete,false,true,NA,4,1,E11_Q10_ansR.png,right,NA,NA,NA,right,1105.70000000019,true,NA,NA,NA,NA,NA
ylgnlkuk,NA,NA,ylgnlkuk,2020-0188,2021-11-13,15:29:39,16:46:58,NA,incomplete,false,true,NA,4,2,E11_Q2_ansR.png,right,NA,NA,NA,right,936.700000000186,true,NA,NA,NA,NA,NA
ylgnlkuk,NA,NA,ylgnlkuk,2020-0188,2021-11-13,15:29:39,16:46:58,NA,incomplete,false,true,NA,4,3,E11_Q4_ansL.png,left,NA,NA,NA,left,1285.20000000019,true,NA,NA,NA,NA,NA
ylgnlkuk,NA,NA,ylgnlkuk,2020-0188,2021-11-13,15:29:39,16:46:58,NA,incomplete,false,true,NA,4,4,E11_Q6_ansL.png,left,NA,NA,NA,left,2616.20000000019,true,NA,NA,NA,NA,NA
ylgnlkuk,NA,NA,ylgnlkuk,2020-0188,2021-11-13,15:29:39,16:46:58,NA,incomplete,false,true,NA,4,5,E11_Q8_ansR.png,right,NA,NA,NA,right,1123.20000000019,true,NA,NA,NA,NA,NA
ylgnlkuk,NA,NA,ylgnlkuk,2020-0188,2021-11-13,15:29:39,16:46:58,NA,incomplete,false,true,NA,4,6,E11_Q9_ansL.png,left,NA,NA,NA,left,1092.09999999963,true,NA,NA,NA,NA,NA
ylgnlkuk,NA,NA,ylgnlkuk,2020-0188,2021-11-13,15:29:39,16:46:58,NA,incomplete,false,true,NA,4,7,E11_Q5_ansL.png,left,NA,NA,NA,left,1976.60000000056,true,NA,NA,NA,NA,NA
ylgnlkuk,NA,NA,ylgnlkuk,2020-0188,2021-11-13,15:29:39,16:46:58,NA,incomplete,false,true,NA,4,8,E11_Q1_ansR.png,right,NA,NA,NA,left,1001.5,false,NA,NA,NA,NA,NA
ylgnlkuk,NA,NA,ylgnlkuk,2020-0188,2021-11-13,15:29:39,16:46:58,NA,incomplete,false,true,NA,4,9,E11_Q7_ansR.png,right,NA,NA,NA,left,2852.29999999981,false,NA,NA,NA,NA,NA
ylgnlkuk,NA,NA,ylgnlkuk,2020-0188,2021-11-13,15:29:39,16:46:58,NA,incomplete,false,true,NA,4,10,E31_Q3_ansL.png,left,NA,NA,NA,left,2190.09999999963,true,NA,NA,NA,NA,NA
ylgnlkuk,NA,NA,ylgnlkuk,2020-0188,2021-11-13,15:29:39,16:46:58,NA,incomplete,false,true,NA,4,11,E31_Q10_ansR.png,right,NA,NA,NA,right,1035.79999999981,true,NA,NA,NA,NA,NA
ylgnlkuk,NA,NA,ylgnlkuk,2020-0188,2021-11-13,15:29:39,16:46:58,NA,incomplete,false,true,NA,4,12,E31_Q5_ansL.png,left,NA,NA,NA,left,1054.40000000037,true,NA,NA,NA,NA,NA
ylgnlkuk,NA,NA,ylgnlkuk,2020-0188,2021-11-13,15:29:39,16:46:58,NA,incomplete,false,true,NA,4,13,E31_Q4_ansL.png,left,NA,NA,NA,left,2363.20000000019,true,NA,NA,NA,NA,NA
ylgnlkuk,NA,NA,ylgnlkuk,2020-0188,2021-11-13,15:29:39,16:46:58,NA,incomplete,false,true,NA,4,14,E31_Q1_ansR.png,right,NA,NA,NA,right,1172.89999999944,true,NA,NA,NA,NA,NA
ylgnlkuk,NA,NA,ylgnlkuk,2020-0188,2021-11-13,15:29:39,16:46:58,NA,incomplete,false,true,NA,4,15,E31_Q6_ansL.png,left,NA,NA,NA,right,930.5,false,NA,NA,NA,NA,NA
ylgnlkuk,NA,NA,ylgnlkuk,2020-0188,2021-11-13,15:29:39,16:46:58,NA,incomplete,false,true,NA,4,16,E31_Q8_ansR.png,right,NA,NA,NA,right,1278.39999999944,true,NA,NA,NA,NA,NA
ylgnlkuk,NA,NA,ylgnlkuk,2020-0188,2021-11-13,15:29:39,16:46:58,NA,incomplete,false,true,NA,4,17,E31_Q2_ansR.png,right,NA,NA,NA,right,1347.89999999944,true,NA,NA,NA,NA,NA
ylgnlkuk,NA,NA,ylgnlkuk,2020-0188,2021-11-13,15:29:39,16:46:58,NA,incomplete,false,true,NA,4,18,E31_Q7_ansR.png,right,NA,NA,NA,right,2534.70000000019,true,NA,NA,NA,NA,NA
ylgnlkuk,NA,NA,ylgnlkuk,2020-0188,2021-11-13,15:29:39,16:46:58,NA,incomplete,false,true,NA,4,19,E31_Q9_ansL.png,left,NA,NA,NA,left,1202.60000000056,true,NA,NA,NA,NA,NA
ylgnlkuk,NA,NA,ylgnlkuk,2020-0188,2021-11-13,15:29:39,16:46:58,NA,incomplete,false,true,NA,4,20,E1_Q9_ansL.png,left,NA,NA,NA,left,1255.39999999944,true,NA,NA,NA,NA,NA
ylgnlkuk,NA,NA,ylgnlkuk,2020-0188,2021-11-13,15:29:39,16:46:58,NA,incomplete,false,true,NA,4,21,E1_Q7_ansL.png,left,NA,NA,NA,left,925,true,NA,NA,NA,NA,NA
ylgnlkuk,NA,NA,ylgnlkuk,2020-0188,2021-11-13,15:29:39,16:46:58,NA,incomplete,false,true,NA,4,22,E1_Q6_ansR.png,right,NA,NA,NA,right,808.200000000186,true,NA,NA,NA,NA,NA
ylgnlkuk,NA,NA,ylgnlkuk,2020-0188,2021-11-13,15:29:39,16:46:58,NA,incomplete,false,true,NA,4,23,E1_Q3_ansR.png,right,NA,NA,NA,right,1930.09999999963,true,NA,NA,NA,NA,NA
ylgnlkuk,NA,NA,ylgnlkuk,2020-0188,2021-11-13,15:29:39,16:46:58,NA,incomplete,false,true,NA,4,24,E1_Q4_ansL.png,left,NA,NA,NA,left,796.099999999627,true,NA,NA,NA,NA,NA
ylgnlkuk,NA,NA,ylgnlkuk,2020-0188,2021-11-13,15:29:39,16:46:58,NA,incomplete,false,true,NA,4,25,E1_Q8_ansR.png,right,NA,NA,NA,right,970,true,NA,NA,NA,NA,NA
ylgnlkuk,NA,NA,ylgnlkuk,2020-0188,2021-11-13,15:29:39,16:46:58,NA,incomplete,false,true,NA,4,26,E1_Q10_ansR.png,right,NA,NA,NA,right,1384,true,NA,NA,NA,NA,NA
ylgnlkuk,NA,NA,ylgnlkuk,2020-0188,2021-11-13,15:29:39,16:46:58,NA,incomplete,false,true,NA,4,27,E1_Q5_ansR.png,right,NA,NA,NA,right,1257.59999999963,true,NA,NA,NA,NA,NA
ylgnlkuk,NA,NA,ylgnlkuk,2020-0188,2021-11-13,15:29:39,16:46:58,NA,incomplete,false,true,NA,4,28,E1_Q2_ansL.png,left,NA,NA,NA,left,1462.5,true,NA,NA,NA,NA,NA
ylgnlkuk,NA,NA,ylgnlkuk,2020-0188,2021-11-13,15:29:39,16:46:58,NA,incomplete,false,true,NA,4,29,E1_Q1_ansL.png,left,NA,NA,NA,left,831,true,NA,NA,NA,NA,NA
ylgnlkuk,NA,NA,ylgnlkuk,2020-0188,2021-11-13,15:29:39,16:46:58,NA,incomplete,false,NA,true,4,0,NA,left,E31_Q2_ansR.png,E1_Q9_ansL.png,between,NA,NaN,NA,left,1531.0999999996275,1,1,1321.5
ylgnlkuk,NA,NA,ylgnlkuk,2020-0188,2021-11-13,15:29:39,16:46:58,NA,incomplete,false,NA,true,4,1,NA,left,E31_Q6_ansL.png,E31_Q7_ansR.png,within,NA,NaN,NA,right,3063,0,1,1020.9000000003725
ylgnlkuk,NA,NA,ylgnlkuk,2020-0188,2021-11-13,15:29:39,16:46:58,NA,incomplete,false,NA,true,4,2,NA,left,E31_Q7_ansR.png,E1_Q7_ansL.png,between,NA,NaN,NA,left,1473.2000000001863,1,2,3321.7999999998137
ylgnlkuk,NA,NA,ylgnlkuk,2020-0188,2021-11-13,15:29:39,16:46:58,NA,incomplete,false,NA,true,4,3,NA,right,E1_Q5_ansR.png,E1_Q4_ansL.png,within,NA,NaN,NA,right,1626.7999999998137,1,0,1020.2000000001863
ylgnlkuk,NA,NA,ylgnlkuk,2020-0188,2021-11-13,15:29:39,16:46:58,NA,incomplete,false,NA,true,4,4,NA,right,E11_Q6_ansL.png,E11_Q10_ansR.png,within,NA,NaN,NA,right,2364.2999999998137,1,0,3255.699999999255
ylgnlkuk,NA,NA,ylgnlkuk,2020-0188,2021-11-13,15:29:39,16:46:58,NA,incomplete,false,NA,true,4,5,NA,right,E31_Q3_ansL.png,E11_Q5_ansL.png,between,NA,NaN,NA,right,2664.100000000559,1,2,922.4000000003725
ylgnlkuk,NA,NA,ylgnlkuk,2020-0188,2021-11-13,15:29:39,16:46:58,NA,incomplete,false,NA,true,4,6,NA,left,E11_Q9_ansL.png,E11_Q7_ansR.png,within,NA,NaN,NA,right,2802,0,1,1598.4000000003725
ylgnlkuk,NA,NA,ylgnlkuk,2020-0188,2021-11-13,15:29:39,16:46:58,NA,incomplete,false,NA,true,4,7,NA,left,E1_Q10_ansR.png,E1_Q1_ansL.png,within,NA,NaN,NA,right,2001,0,0,1101.300000000745
ylgnlkuk,NA,NA,ylgnlkuk,2020-0188,2021-11-13,15:29:39,16:46:58,NA,incomplete,false,NA,true,4,8,NA,left,E1_Q7_ansL.png,E1_Q4_ansL.png,within,NA,NaN,NA,left,1895.300000000745,1,1,2421.4000000003725
ylgnlkuk,NA,NA,ylgnlkuk,2020-0188,2021-11-13,15:29:39,16:46:58,NA,incomplete,false,NA,true,4,9,NA,right,E1_Q10_ansR.png,E1_Q3_ansR.png,within,NA,NaN,NA,right,1246.7999999998137,1,0,1255.9000000003725
ylgnlkuk,NA,NA,ylgnlkuk,2020-0188,2021-11-13,15:29:39,16:46:58,NA,incomplete,false,NA,true,4,10,NA,right,E31_Q8_ansR.png,E31_Q4_ansL.png,within,NA,NaN,NA,right,2219.7999999998137,1,1,2608.5
ylgnlkuk,NA,NA,ylgnlkuk,2020-0188,2021-11-13,15:29:39,16:46:58,NA,incomplete,false,NA,true,4,11,NA,right,E11_Q5_ansL.png,E11_Q6_ansL.png,within,NA,NaN,NA,left,1895.800000000745,0,0,2934.5
ylgnlkuk,NA,NA,ylgnlkuk,2020-0188,2021-11-13,15:29:39,16:46:58,NA,incomplete,false,NA,true,4,12,NA,right,E31_Q9_ansL.png,E31_Q8_ansR.png,within,NA,NaN,NA,right,1587.1000000005588,1,1,1353.2999999998137
ylgnlkuk,NA,NA,ylgnlkuk,2020-0188,2021-11-13,15:29:39,16:46:58,NA,incomplete,false,NA,true,4,13,NA,left,E11_Q3_ansL.png,E11_Q4_ansL.png,within,NA,NaN,NA,left,963.0999999996275,1,0,1506.800000000745
ylgnlkuk,NA,NA,ylgnlkuk,2020-0188,2021-11-13,15:29:39,16:46:58,NA,incomplete,false,NA,true,4,14,NA,left,E11_Q1_ansR.png,E31_Q10_ansR.png,between,NA,NaN,NA,right,2892.800000000745,0,2,1895.5
ylgnlkuk,NA,NA,ylgnlkuk,2020-0188,2021-11-13,15:29:39,16:46:58,NA,incomplete,false,NA,true,4,15,NA,right,E31_Q1_ansR.png,E31_Q10_ansR.png,within,NA,NaN,NA,left,3150.2000000001863,0,1,963.2000000001863
ylgnlkuk,NA,NA,ylgnlkuk,2020-0188,2021-11-13,15:29:39,16:46:58,NA,incomplete,false,NA,true,4,16,NA,right,E1_Q6_ansR.png,E31_Q9_ansL.png,between,NA,NaN,NA,right,2936.5,1,2,1329.199999999255
ylgnlkuk,NA,NA,ylgnlkuk,2020-0188,2021-11-13,15:29:39,16:46:58,NA,incomplete,false,NA,true,4,17,NA,right,E31_Q4_ansL.png,E31_Q3_ansL.png,within,NA,NaN,NA,right,7105.700000000186,1,1,1773.8999999994412
ylgnlkuk,NA,NA,ylgnlkuk,2020-0188,2021-11-13,15:29:39,16:46:58,NA,incomplete,false,NA,true,4,18,NA,right,E1_Q3_ansR.png,E1_Q9_ansL.png,within,NA,NaN,NA,right,1684.5,1,1,1434.7999999998137
ylgnlkuk,NA,NA,ylgnlkuk,2020-0188,2021-11-13,15:29:39,16:46:58,NA,incomplete,false,NA,true,4,19,NA,left,E11_Q4_ansL.png,E11_Q9_ansL.png,within,NA,NaN,NA,left,1772.5,1,1,865.1000000005588
ylgnlkuk,NA,NA,ylgnlkuk,2020-0188,2021-11-13,15:29:39,16:46:58,NA,incomplete,false,NA,true,4,20,NA,right,E1_Q8_ansR.png,E1_Q6_ansR.png,within,NA,NaN,NA,left,3550.5,0,1,2332.899999999441
ylgnlkuk,NA,NA,ylgnlkuk,2020-0188,2021-11-13,15:29:39,16:46:58,NA,incomplete,false,NA,true,4,21,NA,right,E1_Q2_ansL.png,E1_Q8_ansR.png,within,NA,NaN,NA,right,1080.199999999255,1,1,3191.7999999998137
ylgnlkuk,NA,NA,ylgnlkuk,2020-0188,2021-11-13,15:29:39,16:46:58,NA,incomplete,false,NA,true,4,22,NA,left,E11_Q8_ansR.png,E11_Q1_ansR.png,within,NA,NaN,NA,left,1061.7999999998137,1,0,915
ylgnlkuk,NA,NA,ylgnlkuk,2020-0188,2021-11-13,15:29:39,16:46:58,NA,incomplete,false,NA,true,4,23,NA,right,E31_Q5_ansL.png,E11_Q7_ansR.png,between,NA,NaN,NA,right,2072.699999999255,1,2,1189
ylgnlkuk,NA,NA,ylgnlkuk,2020-0188,2021-11-13,15:29:39,16:46:58,NA,incomplete,false,NA,true,4,24,NA,left,E11_Q2_ansR.png,E11_Q8_ansR.png,within,NA,NaN,NA,left,1668.699999999255,1,0,1254.9000000003725
ylgnlkuk,NA,NA,ylgnlkuk,2020-0188,2021-11-13,15:29:39,16:46:58,NA,incomplete,false,NA,true,4,25,NA,right,E31_Q6_ansL.png,E31_Q5_ansL.png,within,NA,NaN,NA,left,1173.3999999994412,0,0,825.8999999994412
ylgnlkuk,NA,NA,ylgnlkuk,2020-0188,2021-11-13,15:29:39,16:46:58,NA,incomplete,false,NA,true,4,26,NA,right,E31_Q2_ansR.png,E31_Q1_ansR.png,within,NA,NaN,NA,right,1019.7000000001863,1,1,1182.3999999994412
ylgnlkuk,NA,NA,ylgnlkuk,2020-0188,2021-11-13,15:29:39,16:46:58,NA,incomplete,false,true,NA,5,0,E20_Q2_ansL.png,left,NA,NA,NA,left,2178.40000000037,true,NA,NA,NA,NA,NA
ylgnlkuk,NA,NA,ylgnlkuk,2020-0188,2021-11-13,15:29:39,16:46:58,NA,incomplete,false,true,NA,5,1,E20_Q5_ansR.png,right,NA,NA,NA,right,1662.20000000019,true,NA,NA,NA,NA,NA
ylgnlkuk,NA,NA,ylgnlkuk,2020-0188,2021-11-13,15:29:39,16:46:58,NA,incomplete,false,true,NA,5,2,E20_Q3_ansR.png,right,NA,NA,NA,left,1242.79999999981,false,NA,NA,NA,NA,NA
ylgnlkuk,NA,NA,ylgnlkuk,2020-0188,2021-11-13,15:29:39,16:46:58,NA,incomplete,false,true,NA,5,3,E20_Q7_ansL.png,left,NA,NA,NA,left,1195.59999999963,true,NA,NA,NA,NA,NA
ylgnlkuk,NA,NA,ylgnlkuk,2020-0188,2021-11-13,15:29:39,16:46:58,NA,incomplete,false,true,NA,5,4,E20_Q4_ansR.png,right,NA,NA,NA,right,2370.39999999944,true,NA,NA,NA,NA,NA
ylgnlkuk,NA,NA,ylgnlkuk,2020-0188,2021-11-13,15:29:39,16:46:58,NA,incomplete,false,true,NA,5,5,E20_Q1_ansL.png,left,NA,NA,NA,left,1805.90000000037,true,NA,NA,NA,NA,NA
ylgnlkuk,NA,NA,ylgnlkuk,2020-0188,2021-11-13,15:29:39,16:46:58,NA,incomplete,false,true,NA,5,6,E20_Q10_ansL.png,left,NA,NA,NA,right,1163,false,NA,NA,NA,NA,NA
ylgnlkuk,NA,NA,ylgnlkuk,2020-0188,2021-11-13,15:29:39,16:46:58,NA,incomplete,false,true,NA,5,7,E20_Q8_ansL.png,left,NA,NA,NA,left,1896.29999999981,true,NA,NA,NA,NA,NA
ylgnlkuk,NA,NA,ylgnlkuk,2020-0188,2021-11-13,15:29:39,16:46:58,NA,incomplete,false,true,NA,5,8,E20_Q9_ansR.png,right,NA,NA,NA,right,1398.60000000056,true,NA,NA,NA,NA,NA
ylgnlkuk,NA,NA,ylgnlkuk,2020-0188,2021-11-13,15:29:39,16:46:58,NA,incomplete,false,true,NA,5,9,E20_Q6_ansR.png,right,NA,NA,NA,right,1112.79999999981,true,NA,NA,NA,NA,NA
ylgnlkuk,NA,NA,ylgnlkuk,2020-0188,2021-11-13,15:29:39,16:46:58,NA,incomplete,false,true,NA,5,10,E19_Q9_ansR.png,right,NA,NA,NA,right,1663.79999999981,true,NA,NA,NA,NA,NA
ylgnlkuk,NA,NA,ylgnlkuk,2020-0188,2021-11-13,15:29:39,16:46:58,NA,incomplete,false,true,NA,5,11,E19_Q4_ansR.png,right,NA,NA,NA,right,854.700000000186,true,NA,NA,NA,NA,NA
ylgnlkuk,NA,NA,ylgnlkuk,2020-0188,2021-11-13,15:29:39,16:46:58,NA,incomplete,false,true,NA,5,12,E19_Q6_ansR.png,right,NA,NA,NA,right,1526.5,true,NA,NA,NA,NA,NA
ylgnlkuk,NA,NA,ylgnlkuk,2020-0188,2021-11-13,15:29:39,16:46:58,NA,incomplete,false,true,NA,5,13,E19_Q10_ansL.png,left,NA,NA,NA,left,1129.90000000037,true,NA,NA,NA,NA,NA
ylgnlkuk,NA,NA,ylgnlkuk,2020-0188,2021-11-13,15:29:39,16:46:58,NA,incomplete,false,true,NA,5,14,E19_Q5_ansR.png,right,NA,NA,NA,right,1205.29999999981,true,NA,NA,NA,NA,NA
ylgnlkuk,NA,NA,ylgnlkuk,2020-0188,2021-11-13,15:29:39,16:46:58,NA,incomplete,false,true,NA,5,15,E19_Q2_ansL.png,left,NA,NA,NA,left,1435,true,NA,NA,NA,NA,NA
ylgnlkuk,NA,NA,ylgnlkuk,2020-0188,2021-11-13,15:29:39,16:46:58,NA,incomplete,false,true,NA,5,16,E19_Q8_ansL.png,left,NA,NA,NA,left,1159.79999999981,true,NA,NA,NA,NA,NA
ylgnlkuk,NA,NA,ylgnlkuk,2020-0188,2021-11-13,15:29:39,16:46:58,NA,incomplete,false,true,NA,5,17,E19_Q7_ansL.png,left,NA,NA,NA,left,3017.69999999925,true,NA,NA,NA,NA,NA
ylgnlkuk,NA,NA,ylgnlkuk,2020-0188,2021-11-13,15:29:39,16:46:58,NA,incomplete,false,true,NA,5,18,E19_Q1_ansL.png,left,NA,NA,NA,left,983.899999999441,true,NA,NA,NA,NA,NA
ylgnlkuk,NA,NA,ylgnlkuk,2020-0188,2021-11-13,15:29:39,16:46:58,NA,incomplete,false,true,NA,5,19,E19_Q3_ansR.png,right,NA,NA,NA,right,2528.20000000019,true,NA,NA,NA,NA,NA
ylgnlkuk,NA,NA,ylgnlkuk,2020-0188,2021-11-13,15:29:39,16:46:58,NA,incomplete,false,true,NA,5,20,E12_Q2_ansL.png,left,NA,NA,NA,left,1267.70000000019,true,NA,NA,NA,NA,NA
ylgnlkuk,NA,NA,ylgnlkuk,2020-0188,2021-11-13,15:29:39,16:46:58,NA,incomplete,false,true,NA,5,21,E12_Q7_ansL.png,left,NA,NA,NA,left,1687.5,true,NA,NA,NA,NA,NA
ylgnlkuk,NA,NA,ylgnlkuk,2020-0188,2021-11-13,15:29:39,16:46:58,NA,incomplete,false,true,NA,5,22,E12_Q8_ansL.png,left,NA,NA,NA,left,1828.5,true,NA,NA,NA,NA,NA
ylgnlkuk,NA,NA,ylgnlkuk,2020-0188,2021-11-13,15:29:39,16:46:58,NA,incomplete,false,true,NA,5,23,E12_Q1_ansL.png,left,NA,NA,NA,left,1510.10000000056,true,NA,NA,NA,NA,NA
ylgnlkuk,NA,NA,ylgnlkuk,2020-0188,2021-11-13,15:29:39,16:46:58,NA,incomplete,false,true,NA,5,24,E12_Q6_ansR.png,right,NA,NA,NA,right,1012.59999999963,true,NA,NA,NA,NA,NA
ylgnlkuk,NA,NA,ylgnlkuk,2020-0188,2021-11-13,15:29:39,16:46:58,NA,incomplete,false,true,NA,5,25,E12_Q3_ansR.png,right,NA,NA,NA,right,1248.59999999963,true,NA,NA,NA,NA,NA
ylgnlkuk,NA,NA,ylgnlkuk,2020-0188,2021-11-13,15:29:39,16:46:58,NA,incomplete,false,true,NA,5,26,E12_Q4_ansR.png,right,NA,NA,NA,right,1009.40000000037,true,NA,NA,NA,NA,NA
ylgnlkuk,NA,NA,ylgnlkuk,2020-0188,2021-11-13,15:29:39,16:46:58,NA,incomplete,false,true,NA,5,27,E12_Q9_ansR.png,right,NA,NA,NA,right,1112.39999999944,true,NA,NA,NA,NA,NA
ylgnlkuk,NA,NA,ylgnlkuk,2020-0188,2021-11-13,15:29:39,16:46:58,NA,incomplete,false,true,NA,5,28,E12_Q5_ansR.png,right,NA,NA,NA,right,1738.29999999981,true,NA,NA,NA,NA,NA
ylgnlkuk,NA,NA,ylgnlkuk,2020-0188,2021-11-13,15:29:39,16:46:58,NA,incomplete,false,true,NA,5,29,E12_Q10_ansL.png,left,NA,NA,NA,left,1254.40000000037,true,NA,NA,NA,NA,NA
ylgnlkuk,NA,NA,ylgnlkuk,2020-0188,2021-11-13,15:29:39,16:46:58,NA,incomplete,false,NA,true,5,0,NA,right,E20_Q4_ansR.png,E20_Q5_ansR.png,within,NA,NaN,NA,right,1643.5,1,0,2226.7999999998137
ylgnlkuk,NA,NA,ylgnlkuk,2020-0188,2021-11-13,15:29:39,16:46:58,NA,incomplete,false,NA,true,5,1,NA,right,E20_Q9_ansR.png,E20_Q1_ansL.png,within,NA,NaN,NA,left,2909.2000000001863,0,1,1141
ylgnlkuk,NA,NA,ylgnlkuk,2020-0188,2021-11-13,15:29:39,16:46:58,NA,incomplete,false,NA,true,5,2,NA,right,E20_Q10_ansL.png,E20_Q7_ansL.png,within,NA,NaN,NA,right,1968.4000000003725,1,1,1409.1000000005588
ylgnlkuk,NA,NA,ylgnlkuk,2020-0188,2021-11-13,15:29:39,16:46:58,NA,incomplete,false,NA,true,5,3,NA,left,E19_Q8_ansL.png,E19_Q3_ansR.png,within,NA,NaN,NA,right,1934.9000000003725,0,1,2218.7999999998137
ylgnlkuk,NA,NA,ylgnlkuk,2020-0188,2021-11-13,15:29:39,16:46:58,NA,incomplete,false,NA,true,5,4,NA,left,E19_Q7_ansL.png,E12_Q2_ansL.png,between,NA,NaN,NA,left,2657.7000000001863,1,1,2793.899999999441
ylgnlkuk,NA,NA,ylgnlkuk,2020-0188,2021-11-13,15:29:39,16:46:58,NA,incomplete,false,NA,true,5,5,NA,right,E19_Q1_ansL.png,E19_Q2_ansL.png,within,NA,NaN,NA,right,1343.9000000003725,1,0,1835.5
ylgnlkuk,NA,NA,ylgnlkuk,2020-0188,2021-11-13,15:29:39,16:46:58,NA,incomplete,false,NA,true,5,6,NA,left,E12_Q3_ansR.png,E12_Q5_ansR.png,within,NA,NaN,NA,right,5766.899999999441,0,1,1733.2999999998137
ylgnlkuk,NA,NA,ylgnlkuk,2020-0188,2021-11-13,15:29:39,16:46:58,NA,incomplete,false,NA,true,5,7,NA,right,E19_Q6_ansR.png,E20_Q6_ansR.png,between,NA,NaN,NA,right,1472.7999999998137,1,2,1157.0999999996275
ylgnlkuk,NA,NA,ylgnlkuk,2020-0188,2021-11-13,15:29:39,16:46:58,NA,incomplete,false,NA,true,5,8,NA,right,E19_Q4_ansR.png,E20_Q9_ansR.png,between,NA,NaN,NA,right,2656.100000000559,1,2,1036.5999999996275
ylgnlkuk,NA,NA,ylgnlkuk,2020-0188,2021-11-13,15:29:39,16:46:58,NA,incomplete,false,NA,true,5,9,NA,left,E12_Q8_ansL.png,E12_Q3_ansR.png,within,NA,NaN,NA,left,1603.4000000003725,1,0,955
ylgnlkuk,NA,NA,ylgnlkuk,2020-0188,2021-11-13,15:29:39,16:46:58,NA,incomplete,false,NA,true,5,10,NA,right,E12_Q8_ansL.png,E19_Q3_ansR.png,between,NA,NaN,NA,right,5306.299999999814,1,1,1077
ylgnlkuk,NA,NA,ylgnlkuk,2020-0188,2021-11-13,15:29:39,16:46:58,NA,incomplete,false,NA,true,5,11,NA,right,E19_Q7_ansL.png,E19_Q5_ansR.png,within,NA,NaN,NA,left,3832.5,0,0,1084.0999999996275
ylgnlkuk,NA,NA,ylgnlkuk,2020-0188,2021-11-13,15:29:39,16:46:58,NA,incomplete,false,NA,true,5,12,NA,right,E12_Q10_ansL.png,E12_Q4_ansR.png,within,NA,NaN,NA,left,2170.699999999255,0,0,760.2000000001863
ylgnlkuk,NA,NA,ylgnlkuk,2020-0188,2021-11-13,15:29:39,16:46:58,NA,incomplete,false,NA,true,5,13,NA,right,E12_Q9_ansR.png,E12_Q6_ansR.png,within,NA,NaN,NA,right,2535.100000000559,1,1,1303.7000000001863
ylgnlkuk,NA,NA,ylgnlkuk,2020-0188,2021-11-13,15:29:39,16:46:58,NA,incomplete,false,NA,true,5,14,NA,right,E20_Q8_ansL.png,E20_Q4_ansR.png,within,NA,NaN,NA,right,2487.2999999998137,1,0,2810.7999999998137
ylgnlkuk,NA,NA,ylgnlkuk,2020-0188,2021-11-13,15:29:39,16:46:58,NA,incomplete,false,NA,true,5,15,NA,left,E20_Q3_ansR.png,E20_Q1_ansL.png,within,NA,NaN,NA,left,1902.8999999994412,1,0,3395.100000000559
ylgnlkuk,NA,NA,ylgnlkuk,2020-0188,2021-11-13,15:29:39,16:46:58,NA,incomplete,false,NA,true,5,16,NA,left,E19_Q1_ansL.png,E12_Q7_ansL.png,between,NA,NaN,NA,left,5477.199999999255,1,2,1514.2999999998137
ylgnlkuk,NA,NA,ylgnlkuk,2020-0188,2021-11-13,15:29:39,16:46:58,NA,incomplete,false,NA,true,5,17,NA,right,E19_Q10_ansL.png,E19_Q9_ansR.png,within,NA,NaN,NA,right,1870.6000000005588,1,1,2341.800000000745
ylgnlkuk,NA,NA,ylgnlkuk,2020-0188,2021-11-13,15:29:39,16:46:58,NA,incomplete,false,NA,true,5,18,NA,right,E19_Q5_ansR.png,E19_Q4_ansR.png,within,NA,NaN,NA,right,1392.6000000005588,1,1,1863
ylgnlkuk,NA,NA,ylgnlkuk,2020-0188,2021-11-13,15:29:39,16:46:58,NA,incomplete,false,NA,true,5,19,NA,right,E19_Q2_ansL.png,E19_Q6_ansR.png,within,NA,NaN,NA,left,6573,0,1,2259.2000000001863
ylgnlkuk,NA,NA,ylgnlkuk,2020-0188,2021-11-13,15:29:39,16:46:58,NA,incomplete,false,NA,true,5,20,NA,right,E20_Q6_ansR.png,E20_Q10_ansL.png,within,NA,NaN,NA,left,1319.7000000001863,0,1,1157.9000000003725
ylgnlkuk,NA,NA,ylgnlkuk,2020-0188,2021-11-13,15:29:39,16:46:58,NA,incomplete,false,NA,true,5,21,NA,left,E12_Q2_ansL.png,E12_Q1_ansL.png,within,NA,NaN,NA,left,4650,1,0,1003.2999999998137
ylgnlkuk,NA,NA,ylgnlkuk,2020-0188,2021-11-13,15:29:39,16:46:58,NA,incomplete,false,NA,true,5,22,NA,left,E19_Q10_ansL.png,E19_Q8_ansL.png,within,NA,NaN,NA,left,2130.100000000559,1,1,1107.9000000003725
ylgnlkuk,NA,NA,ylgnlkuk,2020-0188,2021-11-13,15:29:39,16:46:58,NA,incomplete,false,NA,true,5,23,NA,left,E12_Q1_ansL.png,E12_Q4_ansR.png,within,NA,NaN,NA,left,1789.7000000001863,1,1,1991
ylgnlkuk,NA,NA,ylgnlkuk,2020-0188,2021-11-13,15:29:39,16:46:58,NA,incomplete,false,NA,true,5,24,NA,right,E12_Q6_ansR.png,E12_Q7_ansL.png,within,NA,NaN,NA,right,2968.300000000745,1,1,1312.1000000005588
ylgnlkuk,NA,NA,ylgnlkuk,2020-0188,2021-11-13,15:29:39,16:46:58,NA,incomplete,false,NA,true,5,25,NA,left,E20_Q2_ansL.png,E20_Q7_ansL.png,within,NA,NaN,NA,left,2041.0999999996275,1,0,840.9000000003725
ylgnlkuk,NA,NA,ylgnlkuk,2020-0188,2021-11-13,15:29:39,16:46:58,NA,incomplete,false,NA,true,5,26,NA,right,E19_Q9_ansR.png,E20_Q8_ansL.png,between,NA,NaN,NA,left,947.2999999998137,0,1,1197.8999999994412
ylgnlkuk,NA,NA,ylgnlkuk,2020-0188,2021-11-13,15:29:39,16:46:58,NA,incomplete,false,true,NA,6,0,E28_Q1_ansR.png,right,NA,NA,NA,right,1932.70000000019,true,NA,NA,NA,NA,NA
ylgnlkuk,NA,NA,ylgnlkuk,2020-0188,2021-11-13,15:29:39,16:46:58,NA,incomplete,false,true,NA,6,1,E28_Q7_ansR.png,right,NA,NA,NA,right,1557.79999999981,true,NA,NA,NA,NA,NA
ylgnlkuk,NA,NA,ylgnlkuk,2020-0188,2021-11-13,15:29:39,16:46:58,NA,incomplete,false,true,NA,6,2,E28_Q3_ansL.png,left,NA,NA,NA,left,1584.90000000037,true,NA,NA,NA,NA,NA
ylgnlkuk,NA,NA,ylgnlkuk,2020-0188,2021-11-13,15:29:39,16:46:58,NA,incomplete,false,true,NA,6,3,E28_Q4_ansL.png,left,NA,NA,NA,left,1826.20000000019,true,NA,NA,NA,NA,NA
ylgnlkuk,NA,NA,ylgnlkuk,2020-0188,2021-11-13,15:29:39,16:46:58,NA,incomplete,false,true,NA,6,4,E28_Q9_ansL.png,left,NA,NA,NA,left,1975.40000000037,true,NA,NA,NA,NA,NA
ylgnlkuk,NA,NA,ylgnlkuk,2020-0188,2021-11-13,15:29:39,16:46:58,NA,incomplete,false,true,NA,6,5,E28_Q10_ansR.png,right,NA,NA,NA,right,1379.69999999925,true,NA,NA,NA,NA,NA
ylgnlkuk,NA,NA,ylgnlkuk,2020-0188,2021-11-13,15:29:39,16:46:58,NA,incomplete,false,true,NA,6,6,E28_Q5_ansL.png,left,NA,NA,NA,left,1720.60000000056,true,NA,NA,NA,NA,NA
ylgnlkuk,NA,NA,ylgnlkuk,2020-0188,2021-11-13,15:29:39,16:46:58,NA,incomplete,false,true,NA,6,7,E28_Q6_ansL.png,left,NA,NA,NA,left,1400,true,NA,NA,NA,NA,NA
ylgnlkuk,NA,NA,ylgnlkuk,2020-0188,2021-11-13,15:29:39,16:46:58,NA,incomplete,false,true,NA,6,8,E28_Q8_ansR.png,right,NA,NA,NA,right,1084.29999999981,true,NA,NA,NA,NA,NA
ylgnlkuk,NA,NA,ylgnlkuk,2020-0188,2021-11-13,15:29:39,16:46:58,NA,incomplete,false,true,NA,6,9,E28_Q2_ansR.png,right,NA,NA,NA,right,1985.40000000037,true,NA,NA,NA,NA,NA
ylgnlkuk,NA,NA,ylgnlkuk,2020-0188,2021-11-13,15:29:39,16:46:58,NA,incomplete,false,true,NA,6,10,E26_Q7_ansL.png,left,NA,NA,NA,left,2883.5,true,NA,NA,NA,NA,NA
ylgnlkuk,NA,NA,ylgnlkuk,2020-0188,2021-11-13,15:29:39,16:46:58,NA,incomplete,false,true,NA,6,11,E26_Q4_ansR.png,right,NA,NA,NA,right,1729.20000000019,true,NA,NA,NA,NA,NA
ylgnlkuk,NA,NA,ylgnlkuk,2020-0188,2021-11-13,15:29:39,16:46:58,NA,incomplete,false,true,NA,6,12,E26_Q2_ansL.png,left,NA,NA,NA,right,791.799999999814,false,NA,NA,NA,NA,NA
ylgnlkuk,NA,NA,ylgnlkuk,2020-0188,2021-11-13,15:29:39,16:46:58,NA,incomplete,false,true,NA,6,13,E26_Q8_ansL.png,left,NA,NA,NA,left,1706,true,NA,NA,NA,NA,NA
ylgnlkuk,NA,NA,ylgnlkuk,2020-0188,2021-11-13,15:29:39,16:46:58,NA,incomplete,false,true,NA,6,14,E26_Q9_ansR.png,right,NA,NA,NA,right,973.599999999627,true,NA,NA,NA,NA,NA
ylgnlkuk,NA,NA,ylgnlkuk,2020-0188,2021-11-13,15:29:39,16:46:58,NA,incomplete,false,true,NA,6,15,E26_Q3_ansR.png,right,NA,NA,NA,right,1551.90000000037,true,NA,NA,NA,NA,NA
ylgnlkuk,NA,NA,ylgnlkuk,2020-0188,2021-11-13,15:29:39,16:46:58,NA,incomplete,false,true,NA,6,16,E26_Q6_ansR.png,right,NA,NA,NA,right,1516.20000000019,true,NA,NA,NA,NA,NA
ylgnlkuk,NA,NA,ylgnlkuk,2020-0188,2021-11-13,15:29:39,16:46:58,NA,incomplete,false,true,NA,6,17,E26_Q10_ansL.png,left,NA,NA,NA,left,1660.90000000037,true,NA,NA,NA,NA,NA
ylgnlkuk,NA,NA,ylgnlkuk,2020-0188,2021-11-13,15:29:39,16:46:58,NA,incomplete,false,true,NA,6,18,E26_Q1_ansL.png,left,NA,NA,NA,left,2459.89999999944,true,NA,NA,NA,NA,NA
ylgnlkuk,NA,NA,ylgnlkuk,2020-0188,2021-11-13,15:29:39,16:46:58,NA,incomplete,false,true,NA,6,19,E26_Q5_ansR.png,right,NA,NA,NA,right,1291.5,true,NA,NA,NA,NA,NA
ylgnlkuk,NA,NA,ylgnlkuk,2020-0188,2021-11-13,15:29:39,16:46:58,NA,incomplete,false,true,NA,6,20,E24_Q6_ansL.png,left,NA,NA,NA,left,2054,true,NA,NA,NA,NA,NA
ylgnlkuk,NA,NA,ylgnlkuk,2020-0188,2021-11-13,15:29:39,16:46:58,NA,incomplete,false,true,NA,6,21,E24_Q3_ansL.png,left,NA,NA,NA,left,1827.09999999963,true,NA,NA,NA,NA,NA
ylgnlkuk,NA,NA,ylgnlkuk,2020-0188,2021-11-13,15:29:39,16:46:58,NA,incomplete,false,true,NA,6,22,E24_Q5_ansL.png,left,NA,NA,NA,left,2069.70000000019,true,NA,NA,NA,NA,NA
ylgnlkuk,NA,NA,ylgnlkuk,2020-0188,2021-11-13,15:29:39,16:46:58,NA,incomplete,false,true,NA,6,23,E24_Q10_ansR.png,right,NA,NA,NA,right,2882,true,NA,NA,NA,NA,NA
ylgnlkuk,NA,NA,ylgnlkuk,2020-0188,2021-11-13,15:29:39,16:46:58,NA,incomplete,false,true,NA,6,24,E24_Q9_ansL.png,left,NA,NA,NA,left,2230.20000000019,true,NA,NA,NA,NA,NA
ylgnlkuk,NA,NA,ylgnlkuk,2020-0188,2021-11-13,15:29:39,16:46:58,NA,incomplete,false,true,NA,6,25,E24_Q7_ansR.png,right,NA,NA,NA,right,1585.70000000019,true,NA,NA,NA,NA,NA
ylgnlkuk,NA,NA,ylgnlkuk,2020-0188,2021-11-13,15:29:39,16:46:58,NA,incomplete,false,true,NA,6,26,E24_Q1_ansR.png,right,NA,NA,NA,right,1643.79999999981,true,NA,NA,NA,NA,NA
ylgnlkuk,NA,NA,ylgnlkuk,2020-0188,2021-11-13,15:29:39,16:46:58,NA,incomplete,false,true,NA,6,27,E24_Q8_ansR.png,right,NA,NA,NA,right,1453.39999999944,true,NA,NA,NA,NA,NA
ylgnlkuk,NA,NA,ylgnlkuk,2020-0188,2021-11-13,15:29:39,16:46:58,NA,incomplete,false,true,NA,6,28,E24_Q4_ansL.png,left,NA,NA,NA,left,1577.59999999963,true,NA,NA,NA,NA,NA
ylgnlkuk,NA,NA,ylgnlkuk,2020-0188,2021-11-13,15:29:39,16:46:58,NA,incomplete,false,true,NA,6,29,E24_Q2_ansR.png,right,NA,NA,NA,none,0,false,NA,NA,NA,NA,NA
ylgnlkuk,NA,NA,ylgnlkuk,2020-0188,2021-11-13,15:29:39,16:46:58,NA,incomplete,false,NA,true,6,0,NA,left,E26_Q8_ansL.png,E26_Q6_ansR.png,within,NA,NaN,NA,left,2456.7999999998137,1,0,1498.1000000005588
ylgnlkuk,NA,NA,ylgnlkuk,2020-0188,2021-11-13,15:29:39,16:46:58,NA,incomplete,false,NA,true,6,1,NA,left,E28_Q1_ansR.png,E28_Q4_ansL.png,within,NA,NaN,NA,left,1110.0999999996275,1,0,1644.3999999994412
ylgnlkuk,NA,NA,ylgnlkuk,2020-0188,2021-11-13,15:29:39,16:46:58,NA,incomplete,false,NA,true,6,2,NA,left,E26_Q3_ansR.png,E26_Q1_ansL.png,within,NA,NaN,NA,right,1481.7999999998137,0,0,3208.2999999998137
ylgnlkuk,NA,NA,ylgnlkuk,2020-0188,2021-11-13,15:29:39,16:46:58,NA,incomplete,false,NA,true,6,3,NA,left,E28_Q6_ansL.png,E26_Q7_ansL.png,between,NA,NaN,NA,left,1433.1000000005588,1,2,1878.9000000003725
ylgnlkuk,NA,NA,ylgnlkuk,2020-0188,2021-11-13,15:29:39,16:46:58,NA,incomplete,false,NA,true,6,4,NA,left,E28_Q3_ansL.png,E28_Q10_ansR.png,within,NA,NaN,NA,right,5996.100000000559,0,1,2502.9000000003725
ylgnlkuk,NA,NA,ylgnlkuk,2020-0188,2021-11-13,15:29:39,16:46:58,NA,incomplete,false,NA,true,6,5,NA,right,E24_Q3_ansL.png,E26_Q1_ansL.png,between,NA,NaN,NA,left,1044.5,0,2,801.7999999998137
ylgnlkuk,NA,NA,ylgnlkuk,2020-0188,2021-11-13,15:29:39,16:46:58,NA,incomplete,false,NA,true,6,6,NA,right,E26_Q5_ansR.png,E26_Q6_ansR.png,within,NA,NaN,NA,right,1846.7000000001863,1,0,1076.9000000003725
ylgnlkuk,NA,NA,ylgnlkuk,2020-0188,2021-11-13,15:29:39,16:46:58,NA,incomplete,false,NA,true,6,7,NA,left,E26_Q4_ansR.png,E26_Q9_ansR.png,within,NA,NaN,NA,left,1351.9000000003725,1,1,1271.0999999996275
ylgnlkuk,NA,NA,ylgnlkuk,2020-0188,2021-11-13,15:29:39,16:46:58,NA,incomplete,false,NA,true,6,8,NA,right,E26_Q3_ansR.png,E26_Q2_ansL.png,within,NA,NaN,NA,right,2041.8999999994412,1,1,1190.1000000005588
ylgnlkuk,NA,NA,ylgnlkuk,2020-0188,2021-11-13,15:29:39,16:46:58,NA,incomplete,false,NA,true,6,9,NA,left,E24_Q1_ansR.png,E24_Q2_ansR.png,within,NA,NaN,NA,right,1425,0,0,3224.100000000559
ylgnlkuk,NA,NA,ylgnlkuk,2020-0188,2021-11-13,15:29:39,16:46:58,NA,incomplete,false,NA,true,6,10,NA,left,E26_Q5_ansR.png,E24_Q5_ansL.png,between,NA,NaN,NA,right,3025.2000000001863,0,2,1822
ylgnlkuk,NA,NA,ylgnlkuk,2020-0188,2021-11-13,15:29:39,16:46:58,NA,incomplete,false,NA,true,6,11,NA,right,E24_Q10_ansR.png,E24_Q6_ansL.png,within,NA,NaN,NA,left,1197.7999999998137,0,0,1117.7000000001863
ylgnlkuk,NA,NA,ylgnlkuk,2020-0188,2021-11-13,15:29:39,16:46:58,NA,incomplete,false,NA,true,6,12,NA,right,E24_Q1_ansR.png,E24_Q10_ansR.png,within,NA,NaN,NA,left,1862.1000000005588,0,1,1060.5999999996275
ylgnlkuk,NA,NA,ylgnlkuk,2020-0188,2021-11-13,15:29:39,16:46:58,NA,incomplete,false,NA,true,6,13,NA,right,E28_Q2_ansR.png,E28_Q5_ansL.png,within,NA,NaN,NA,right,2454.100000000559,1,1,1061.300000000745
ylgnlkuk,NA,NA,ylgnlkuk,2020-0188,2021-11-13,15:29:39,16:46:58,NA,incomplete,false,NA,true,6,14,NA,right,E28_Q5_ansL.png,E28_Q4_ansL.png,within,NA,NaN,NA,right,2591.4000000003725,1,1,1044.5999999996275
ylgnlkuk,NA,NA,ylgnlkuk,2020-0188,2021-11-13,15:29:39,16:46:58,NA,incomplete,false,NA,true,6,15,NA,right,E26_Q10_ansL.png,E26_Q9_ansR.png,within,NA,NaN,NA,left,4927.399999999441,0,1,1371.3999999994412
ylgnlkuk,NA,NA,ylgnlkuk,2020-0188,2021-11-13,15:29:39,16:46:58,NA,incomplete,false,NA,true,6,16,NA,right,E28_Q6_ansL.png,E28_Q9_ansL.png,within,NA,NaN,NA,left,2114.600000000559,0,1,3402.800000000745
ylgnlkuk,NA,NA,ylgnlkuk,2020-0188,2021-11-13,15:29:39,16:46:58,NA,incomplete,false,NA,true,6,17,NA,right,E24_Q9_ansL.png,E24_Q3_ansL.png,within,NA,NaN,NA,right,1351.2999999998137,1,1,890.4000000003725
ylgnlkuk,NA,NA,ylgnlkuk,2020-0188,2021-11-13,15:29:39,16:46:58,NA,incomplete,false,NA,true,6,18,NA,left,E26_Q7_ansL.png,E26_Q8_ansL.png,within,NA,NaN,NA,right,3409.5,0,1,1231.3999999994412
ylgnlkuk,NA,NA,ylgnlkuk,2020-0188,2021-11-13,15:29:39,16:46:58,NA,incomplete,false,NA,true,6,19,NA,right,E24_Q8_ansR.png,E24_Q9_ansL.png,within,NA,NaN,NA,left,1878.8999999994412,0,1,1110.5
ylgnlkuk,NA,NA,ylgnlkuk,2020-0188,2021-11-13,15:29:39,16:46:58,NA,incomplete,false,NA,true,6,20,NA,left,E28_Q2_ansR.png,E26_Q2_ansL.png,between,NA,NaN,NA,left,1481.0999999996275,1,2,3272
ylgnlkuk,NA,NA,ylgnlkuk,2020-0188,2021-11-13,15:29:39,16:46:58,NA,incomplete,false,NA,true,6,21,NA,left,E26_Q10_ansL.png,E24_Q6_ansL.png,between,NA,NaN,NA,left,3580.7000000001863,1,2,1797.2999999998137
ylgnlkuk,NA,NA,ylgnlkuk,2020-0188,2021-11-13,15:29:39,16:46:58,NA,incomplete,false,NA,true,6,22,NA,left,E24_Q7_ansR.png,E24_Q4_ansL.png,within,NA,NaN,NA,left,2697.7000000001863,1,1,938.7999999998137
ylgnlkuk,NA,NA,ylgnlkuk,2020-0188,2021-11-13,15:29:39,16:46:58,NA,incomplete,false,NA,true,6,23,NA,right,E24_Q7_ansR.png,E24_Q5_ansL.png,within,NA,NaN,NA,right,2649.0999999996275,1,1,1141.5
ylgnlkuk,NA,NA,ylgnlkuk,2020-0188,2021-11-13,15:29:39,16:46:58,NA,incomplete,false,NA,true,6,24,NA,right,E26_Q4_ansR.png,E28_Q8_ansR.png,between,NA,NaN,NA,right,1505.7999999998137,1,1,1481.2999999998137
ylgnlkuk,NA,NA,ylgnlkuk,2020-0188,2021-11-13,15:29:39,16:46:58,NA,incomplete,false,NA,true,6,25,NA,left,E28_Q10_ansR.png,E28_Q8_ansR.png,within,NA,NaN,NA,left,963.3999999994412,1,0,1295.7000000001863
ylgnlkuk,NA,NA,ylgnlkuk,2020-0188,2021-11-13,15:29:39,16:46:58,NA,incomplete,false,NA,true,6,26,NA,left,E28_Q7_ansR.png,E28_Q9_ansL.png,within,NA,NaN,NA,left,1247.0999999996275,1,0,1190.5999999996275
ylgnlkuk,NA,NA,ylgnlkuk,2020-0188,2021-11-13,15:29:39,16:46:58,NA,incomplete,false,true,NA,7,0,E14_Q1_ansL.png,left,NA,NA,NA,left,1812.70000000019,true,NA,NA,NA,NA,NA
ylgnlkuk,NA,NA,ylgnlkuk,2020-0188,2021-11-13,15:29:39,16:46:58,NA,incomplete,false,true,NA,7,1,E14_Q8_ansL.png,left,NA,NA,NA,right,1648.59999999963,false,NA,NA,NA,NA,NA
ylgnlkuk,NA,NA,ylgnlkuk,2020-0188,2021-11-13,15:29:39,16:46:58,NA,incomplete,false,true,NA,7,2,E14_Q7_ansL.png,left,NA,NA,NA,left,1104.40000000037,true,NA,NA,NA,NA,NA
ylgnlkuk,NA,NA,ylgnlkuk,2020-0188,2021-11-13,15:29:39,16:46:58,NA,incomplete,false,true,NA,7,3,E14_Q4_ansR.png,right,NA,NA,NA,right,1045.39999999944,true,NA,NA,NA,NA,NA
ylgnlkuk,NA,NA,ylgnlkuk,2020-0188,2021-11-13,15:29:39,16:46:58,NA,incomplete,false,true,NA,7,4,E14_Q6_ansR.png,right,NA,NA,NA,right,1123.59999999963,true,NA,NA,NA,NA,NA
ylgnlkuk,NA,NA,ylgnlkuk,2020-0188,2021-11-13,15:29:39,16:46:58,NA,incomplete,false,true,NA,7,5,E14_Q2_ansL.png,left,NA,NA,NA,left,1694.5,true,NA,NA,NA,NA,NA
ylgnlkuk,NA,NA,ylgnlkuk,2020-0188,2021-11-13,15:29:39,16:46:58,NA,incomplete,false,true,NA,7,6,E14_Q10_ansL.png,left,NA,NA,NA,left,1737,true,NA,NA,NA,NA,NA
ylgnlkuk,NA,NA,ylgnlkuk,2020-0188,2021-11-13,15:29:39,16:46:58,NA,incomplete,false,true,NA,7,7,E14_Q5_ansR.png,right,NA,NA,NA,right,1688.79999999981,true,NA,NA,NA,NA,NA
ylgnlkuk,NA,NA,ylgnlkuk,2020-0188,2021-11-13,15:29:39,16:46:58,NA,incomplete,false,true,NA,7,8,E14_Q3_ansR.png,right,NA,NA,NA,right,1117.10000000056,true,NA,NA,NA,NA,NA
ylgnlkuk,NA,NA,ylgnlkuk,2020-0188,2021-11-13,15:29:39,16:46:58,NA,incomplete,false,true,NA,7,9,E14_Q9_ansR.png,right,NA,NA,NA,right,1565.20000000019,true,NA,NA,NA,NA,NA
ylgnlkuk,NA,NA,ylgnlkuk,2020-0188,2021-11-13,15:29:39,16:46:58,NA,incomplete,false,true,NA,7,10,E3_Q3_ansR.png,right,NA,NA,NA,right,2176,true,NA,NA,NA,NA,NA
ylgnlkuk,NA,NA,ylgnlkuk,2020-0188,2021-11-13,15:29:39,16:46:58,NA,incomplete,false,true,NA,7,11,E3_Q4_ansL.png,left,NA,NA,NA,left,1610.30000000075,true,NA,NA,NA,NA,NA
ylgnlkuk,NA,NA,ylgnlkuk,2020-0188,2021-11-13,15:29:39,16:46:58,NA,incomplete,false,true,NA,7,12,E3_Q9_ansL.png,left,NA,NA,NA,left,1754.20000000019,true,NA,NA,NA,NA,NA
ylgnlkuk,NA,NA,ylgnlkuk,2020-0188,2021-11-13,15:29:39,16:46:58,NA,incomplete,false,true,NA,7,13,E3_Q6_ansR.png,right,NA,NA,NA,right,2246,true,NA,NA,NA,NA,NA
ylgnlkuk,NA,NA,ylgnlkuk,2020-0188,2021-11-13,15:29:39,16:46:58,NA,incomplete,false,true,NA,7,14,E3_Q7_ansL.png,left,NA,NA,NA,left,1562.89999999944,true,NA,NA,NA,NA,NA
ylgnlkuk,NA,NA,ylgnlkuk,2020-0188,2021-11-13,15:29:39,16:46:58,NA,incomplete,false,true,NA,7,15,E3_Q10_ansR.png,right,NA,NA,NA,right,1262.90000000037,true,NA,NA,NA,NA,NA
ylgnlkuk,NA,NA,ylgnlkuk,2020-0188,2021-11-13,15:29:39,16:46:58,NA,incomplete,false,true,NA,7,16,E3_Q1_ansR.png,right,NA,NA,NA,right,1701.09999999963,true,NA,NA,NA,NA,NA
ylgnlkuk,NA,NA,ylgnlkuk,2020-0188,2021-11-13,15:29:39,16:46:58,NA,incomplete,false,true,NA,7,17,E3_Q2_ansL.png,left,NA,NA,NA,left,2374.59999999963,true,NA,NA,NA,NA,NA
ylgnlkuk,NA,NA,ylgnlkuk,2020-0188,2021-11-13,15:29:39,16:46:58,NA,incomplete,false,true,NA,7,18,E3_Q5_ansR.png,right,NA,NA,NA,right,1085,true,NA,NA,NA,NA,NA
ylgnlkuk,NA,NA,ylgnlkuk,2020-0188,2021-11-13,15:29:39,16:46:58,NA,incomplete,false,true,NA,7,19,E3_Q8_ansL.png,left,NA,NA,NA,right,3016.5,false,NA,NA,NA,NA,NA
ylgnlkuk,NA,NA,ylgnlkuk,2020-0188,2021-11-13,15:29:39,16:46:58,NA,incomplete,false,true,NA,7,20,E6_Q7_ansL.png,left,NA,NA,NA,left,2078.20000000019,true,NA,NA,NA,NA,NA
ylgnlkuk,NA,NA,ylgnlkuk,2020-0188,2021-11-13,15:29:39,16:46:58,NA,incomplete,false,true,NA,7,21,E6_Q6_ansR.png,right,NA,NA,NA,right,2092.79999999981,true,NA,NA,NA,NA,NA
ylgnlkuk,NA,NA,ylgnlkuk,2020-0188,2021-11-13,15:29:39,16:46:58,NA,incomplete,false,true,NA,7,22,E6_Q1_ansL.png,left,NA,NA,NA,left,1709.20000000019,true,NA,NA,NA,NA,NA
ylgnlkuk,NA,NA,ylgnlkuk,2020-0188,2021-11-13,15:29:39,16:46:58,NA,incomplete,false,true,NA,7,23,E6_Q5_ansR.png,right,NA,NA,NA,right,1419.90000000037,true,NA,NA,NA,NA,NA
ylgnlkuk,NA,NA,ylgnlkuk,2020-0188,2021-11-13,15:29:39,16:46:58,NA,incomplete,false,true,NA,7,24,E6_Q3_ansR.png,right,NA,NA,NA,right,1881.70000000019,true,NA,NA,NA,NA,NA
ylgnlkuk,NA,NA,ylgnlkuk,2020-0188,2021-11-13,15:29:39,16:46:58,NA,incomplete,false,true,NA,7,25,E6_Q2_ansL.png,left,NA,NA,NA,left,2544.70000000019,true,NA,NA,NA,NA,NA
ylgnlkuk,NA,NA,ylgnlkuk,2020-0188,2021-11-13,15:29:39,16:46:58,NA,incomplete,false,true,NA,7,26,E6_Q10_ansL.png,left,NA,NA,NA,left,3029,true,NA,NA,NA,NA,NA
ylgnlkuk,NA,NA,ylgnlkuk,2020-0188,2021-11-13,15:29:39,16:46:58,NA,incomplete,false,true,NA,7,27,E6_Q9_ansL.png,left,NA,NA,NA,left,1015.59999999963,true,NA,NA,NA,NA,NA
ylgnlkuk,NA,NA,ylgnlkuk,2020-0188,2021-11-13,15:29:39,16:46:58,NA,incomplete,false,true,NA,7,28,E6_Q8_ansL.png,left,NA,NA,NA,none,0,false,NA,NA,NA,NA,NA
ylgnlkuk,NA,NA,ylgnlkuk,2020-0188,2021-11-13,15:29:39,16:46:58,NA,incomplete,false,true,NA,7,29,E6_Q4_ansR.png,right,NA,NA,NA,right,2249.5,true,NA,NA,NA,NA,NA
ylgnlkuk,NA,NA,ylgnlkuk,2020-0188,2021-11-13,15:29:39,16:46:58,NA,incomplete,false,NA,true,7,0,NA,right,E6_Q7_ansL.png,E3_Q2_ansL.png,between,NA,NaN,NA,right,1716.7000000001863,1,2,1838.9000000003725
ylgnlkuk,NA,NA,ylgnlkuk,2020-0188,2021-11-13,15:29:39,16:46:58,NA,incomplete,false,NA,true,7,1,NA,right,E3_Q8_ansL.png,E3_Q1_ansR.png,within,NA,NaN,NA,right,6802.5999999996275,1,0,1320.1000000005588
ylgnlkuk,NA,NA,ylgnlkuk,2020-0188,2021-11-13,15:29:39,16:46:58,NA,incomplete,false,NA,true,7,2,NA,left,E14_Q7_ansL.png,E14_Q2_ansL.png,within,NA,NaN,NA,left,2600.9000000003725,1,0,1181.7999999998137
ylgnlkuk,NA,NA,ylgnlkuk,2020-0188,2021-11-13,15:29:39,16:46:58,NA,incomplete,false,NA,true,7,3,NA,right,E3_Q4_ansL.png,E14_Q3_ansR.png,between,NA,NaN,NA,right,1474.4000000003725,1,2,922.8999999994412
ylgnlkuk,NA,NA,ylgnlkuk,2020-0188,2021-11-13,15:29:39,16:46:58,NA,incomplete,false,NA,true,7,4,NA,left,E3_Q10_ansR.png,E3_Q5_ansR.png,within,NA,NaN,NA,left,1725.1000000005588,1,1,1287.5999999996275
ylgnlkuk,NA,NA,ylgnlkuk,2020-0188,2021-11-13,15:29:39,16:46:58,NA,incomplete,false,NA,true,7,5,NA,left,E3_Q7_ansL.png,E3_Q2_ansL.png,within,NA,NaN,NA,left,5190.200000000186,1,1,1296
ylgnlkuk,NA,NA,ylgnlkuk,2020-0188,2021-11-13,15:29:39,16:46:58,NA,incomplete,false,NA,true,7,6,NA,right,E6_Q6_ansR.png,E3_Q5_ansR.png,between,NA,NaN,NA,right,1303.5999999996275,1,2,1960.7000000001863
ylgnlkuk,NA,NA,ylgnlkuk,2020-0188,2021-11-13,15:29:39,16:46:58,NA,incomplete,false,NA,true,7,7,NA,left,E14_Q10_ansL.png,E14_Q9_ansR.png,within,NA,NaN,NA,right,1523.300000000745,0,1,1036.9000000003725
ylgnlkuk,NA,NA,ylgnlkuk,2020-0188,2021-11-13,15:29:39,16:46:58,NA,incomplete,false,NA,true,7,8,NA,right,E14_Q4_ansR.png,E14_Q1_ansL.png,within,NA,NaN,NA,right,1867.3999999994412,1,1,1976.2999999998137
ylgnlkuk,NA,NA,ylgnlkuk,2020-0188,2021-11-13,15:29:39,16:46:58,NA,incomplete,false,NA,true,7,9,NA,left,E3_Q4_ansL.png,E3_Q7_ansL.png,within,NA,NaN,NA,left,1871.7000000001863,1,1,1335
ylgnlkuk,NA,NA,ylgnlkuk,2020-0188,2021-11-13,15:29:39,16:46:58,NA,incomplete,false,NA,true,7,10,NA,left,E14_Q8_ansL.png,E14_Q6_ansR.png,within,NA,NaN,NA,left,1328.2999999998137,1,1,1117.7000000001863
ylgnlkuk,NA,NA,ylgnlkuk,2020-0188,2021-11-13,15:29:39,16:46:58,NA,incomplete,false,NA,true,7,11,NA,left,E14_Q2_ansL.png,E14_Q3_ansR.png,within,NA,NaN,NA,left,2868.699999999255,1,1,1125.2999999998137
ylgnlkuk,NA,NA,ylgnlkuk,2020-0188,2021-11-13,15:29:39,16:46:58,NA,incomplete,false,NA,true,7,12,NA,right,E6_Q1_ansL.png,E3_Q8_ansL.png,between,NA,NaN,NA,right,1952.6000000005588,1,2,890.7000000001863
ylgnlkuk,NA,NA,ylgnlkuk,2020-0188,2021-11-13,15:29:39,16:46:58,NA,incomplete,false,NA,true,7,13,NA,left,E14_Q4_ansR.png,E14_Q10_ansL.png,within,NA,NaN,NA,left,810.5,1,1,923.3000000007451
ylgnlkuk,NA,NA,ylgnlkuk,2020-0188,2021-11-13,15:29:39,16:46:58,NA,incomplete,false,NA,true,7,14,NA,right,E6_Q3_ansR.png,E6_Q6_ansR.png,within,NA,NaN,NA,right,1194.0999999996275,1,1,1636.5
ylgnlkuk,NA,NA,ylgnlkuk,2020-0188,2021-11-13,15:29:39,16:46:58,NA,incomplete,false,NA,true,7,15,NA,left,E6_Q1_ansL.png,E6_Q2_ansL.png,within,NA,NaN,NA,left,1402,1,1,1044.7999999998137
ylgnlkuk,NA,NA,ylgnlkuk,2020-0188,2021-11-13,15:29:39,16:46:58,NA,incomplete,false,NA,true,7,16,NA,right,E6_Q5_ansR.png,E6_Q7_ansL.png,within,NA,NaN,NA,right,1506.5,1,1,2122.5999999996275
ylgnlkuk,NA,NA,ylgnlkuk,2020-0188,2021-11-13,15:29:39,16:46:58,NA,incomplete,false,NA,true,7,17,NA,right,E6_Q4_ansR.png,E6_Q10_ansL.png,within,NA,NaN,NA,right,1401.199999999255,1,0,1255.2000000001863
ylgnlkuk,NA,NA,ylgnlkuk,2020-0188,2021-11-13,15:29:39,16:46:58,NA,incomplete,false,NA,true,7,18,NA,left,E14_Q6_ansR.png,E14_Q5_ansR.png,within,NA,NaN,NA,right,1093.2999999998137,0,1,720.2999999998137
ylgnlkuk,NA,NA,ylgnlkuk,2020-0188,2021-11-13,15:29:39,16:46:58,NA,incomplete,false,NA,true,7,19,NA,right,E3_Q9_ansL.png,E14_Q9_ansR.png,between,NA,NaN,NA,right,1676.9000000003725,1,2,1830.300000000745
ylgnlkuk,NA,NA,ylgnlkuk,2020-0188,2021-11-13,15:29:39,16:46:58,NA,incomplete,false,NA,true,7,20,NA,left,E3_Q3_ansR.png,E3_Q6_ansR.png,within,NA,NaN,NA,right,1741.7000000001863,0,0,1766.3999999994412
ylgnlkuk,NA,NA,ylgnlkuk,2020-0188,2021-11-13,15:29:39,16:46:58,NA,incomplete,false,NA,true,7,21,NA,right,E6_Q9_ansL.png,E6_Q3_ansR.png,within,NA,NaN,NA,left,1122.2999999998137,0,0,1441.6000000005588
ylgnlkuk,NA,NA,ylgnlkuk,2020-0188,2021-11-13,15:29:39,16:46:58,NA,incomplete,false,NA,true,7,22,NA,left,E6_Q5_ansR.png,E6_Q10_ansL.png,within,NA,NaN,NA,left,2098.2999999998137,1,1,1623.6000000005588
ylgnlkuk,NA,NA,ylgnlkuk,2020-0188,2021-11-13,15:29:39,16:46:58,NA,incomplete,false,NA,true,7,23,NA,right,E3_Q1_ansR.png,E3_Q6_ansR.png,within,NA,NaN,NA,left,873.9000000003725,0,1,1044.4000000003725
ylgnlkuk,NA,NA,ylgnlkuk,2020-0188,2021-11-13,15:29:39,16:46:58,NA,incomplete,false,NA,true,7,24,NA,left,E3_Q9_ansL.png,E3_Q10_ansR.png,within,NA,NaN,NA,left,1498.5999999996275,1,1,890.9000000003725
ylgnlkuk,NA,NA,ylgnlkuk,2020-0188,2021-11-13,15:29:39,16:46:58,NA,incomplete,false,NA,true,7,25,NA,right,E6_Q8_ansL.png,E6_Q2_ansL.png,within,NA,NaN,NA,left,1493.0999999996275,0,1,1052.2000000001863
ylgnlkuk,NA,NA,ylgnlkuk,2020-0188,2021-11-13,15:29:39,16:46:58,NA,incomplete,false,NA,true,7,26,NA,right,E3_Q3_ansR.png,E14_Q5_ansR.png,between,NA,NaN,NA,right,1223,1,2,1109.2000000001863
ylgnlkuk,NA,NA,ylgnlkuk,2020-0188,2021-11-13,15:29:39,16:46:58,NA,incomplete,false,true,NA,8,0,E8_Q4_ansL.png,left,NA,NA,NA,left,2015.89999999944,true,NA,NA,NA,NA,NA
ylgnlkuk,NA,NA,ylgnlkuk,2020-0188,2021-11-13,15:29:39,16:46:58,NA,incomplete,false,true,NA,8,1,E8_Q2_ansR.png,right,NA,NA,NA,right,1588,true,NA,NA,NA,NA,NA
ylgnlkuk,NA,NA,ylgnlkuk,2020-0188,2021-11-13,15:29:39,16:46:58,NA,incomplete,false,true,NA,8,2,E8_Q8_ansR.png,right,NA,NA,NA,right,1275.20000000019,true,NA,NA,NA,NA,NA
ylgnlkuk,NA,NA,ylgnlkuk,2020-0188,2021-11-13,15:29:39,16:46:58,NA,incomplete,false,true,NA,8,3,E8_Q3_ansL.png,left,NA,NA,NA,left,991,true,NA,NA,NA,NA,NA
ylgnlkuk,NA,NA,ylgnlkuk,2020-0188,2021-11-13,15:29:39,16:46:58,NA,incomplete,false,true,NA,8,4,E8_Q5_ansL.png,left,NA,NA,NA,right,1217.20000000019,false,NA,NA,NA,NA,NA
ylgnlkuk,NA,NA,ylgnlkuk,2020-0188,2021-11-13,15:29:39,16:46:58,NA,incomplete,false,true,NA,8,5,E8_Q9_ansL.png,left,NA,NA,NA,left,1200.80000000075,true,NA,NA,NA,NA,NA
ylgnlkuk,NA,NA,ylgnlkuk,2020-0188,2021-11-13,15:29:39,16:46:58,NA,incomplete,false,true,NA,8,6,E8_Q10_ansR.png,right,NA,NA,NA,right,1326.79999999981,true,NA,NA,NA,NA,NA
ylgnlkuk,NA,NA,ylgnlkuk,2020-0188,2021-11-13,15:29:39,16:46:58,NA,incomplete,false,true,NA,8,7,E8_Q1_ansR.png,right,NA,NA,NA,right,1706.79999999981,true,NA,NA,NA,NA,NA
ylgnlkuk,NA,NA,ylgnlkuk,2020-0188,2021-11-13,15:29:39,16:46:58,NA,incomplete,false,true,NA,8,8,E8_Q6_ansL.png,left,NA,NA,NA,left,1232.59999999963,true,NA,NA,NA,NA,NA
ylgnlkuk,NA,NA,ylgnlkuk,2020-0188,2021-11-13,15:29:39,16:46:58,NA,incomplete,false,true,NA,8,9,E8_Q7_ansR.png,right,NA,NA,NA,right,1004.09999999963,true,NA,NA,NA,NA,NA
ylgnlkuk,NA,NA,ylgnlkuk,2020-0188,2021-11-13,15:29:39,16:46:58,NA,incomplete,false,true,NA,8,10,E33_Q5_ansR.png,right,NA,NA,NA,right,2437.79999999981,true,NA,NA,NA,NA,NA
ylgnlkuk,NA,NA,ylgnlkuk,2020-0188,2021-11-13,15:29:39,16:46:58,NA,incomplete,false,true,NA,8,11,E33_Q7_ansL.png,left,NA,NA,NA,none,0,false,NA,NA,NA,NA,NA
ylgnlkuk,NA,NA,ylgnlkuk,2020-0188,2021-11-13,15:29:39,16:46:58,NA,incomplete,false,true,NA,8,12,E33_Q4_ansR.png,right,NA,NA,NA,right,1404.09999999963,true,NA,NA,NA,NA,NA
ylgnlkuk,NA,NA,ylgnlkuk,2020-0188,2021-11-13,15:29:39,16:46:58,NA,incomplete,false,true,NA,8,13,E33_Q3_ansR.png,right,NA,NA,NA,right,2532.69999999925,true,NA,NA,NA,NA,NA
ylgnlkuk,NA,NA,ylgnlkuk,2020-0188,2021-11-13,15:29:39,16:46:58,NA,incomplete,false,true,NA,8,14,E33_Q8_ansL.png,left,NA,NA,NA,left,1730.20000000019,true,NA,NA,NA,NA,NA
ylgnlkuk,NA,NA,ylgnlkuk,2020-0188,2021-11-13,15:29:39,16:46:58,NA,incomplete,false,true,NA,8,15,E33_Q9_ansR.png,right,NA,NA,NA,right,1353.40000000037,true,NA,NA,NA,NA,NA
ylgnlkuk,NA,NA,ylgnlkuk,2020-0188,2021-11-13,15:29:39,16:46:58,NA,incomplete,false,true,NA,8,16,E33_Q2_ansL.png,left,NA,NA,NA,left,1755.10000000056,true,NA,NA,NA,NA,NA
ylgnlkuk,NA,NA,ylgnlkuk,2020-0188,2021-11-13,15:29:39,16:46:58,NA,incomplete,false,true,NA,8,17,E33_Q10_ansL.png,left,NA,NA,NA,left,2769,true,NA,NA,NA,NA,NA
ylgnlkuk,NA,NA,ylgnlkuk,2020-0188,2021-11-13,15:29:39,16:46:58,NA,incomplete,false,true,NA,8,18,E33_Q6_ansR.png,right,NA,NA,NA,right,2047.20000000019,true,NA,NA,NA,NA,NA
ylgnlkuk,NA,NA,ylgnlkuk,2020-0188,2021-11-13,15:29:39,16:46:58,NA,incomplete,false,true,NA,8,19,E33_Q1_ansL.png,left,NA,NA,NA,left,2603.39999999944,true,NA,NA,NA,NA,NA
ylgnlkuk,NA,NA,ylgnlkuk,2020-0188,2021-11-13,15:29:39,16:46:58,NA,incomplete,false,true,NA,8,20,E2_Q10_ansL.png,left,NA,NA,NA,left,1642,true,NA,NA,NA,NA,NA
ylgnlkuk,NA,NA,ylgnlkuk,2020-0188,2021-11-13,15:29:39,16:46:58,NA,incomplete,false,true,NA,8,21,E2_Q2_ansR.png,right,NA,NA,NA,right,1432.40000000037,true,NA,NA,NA,NA,NA
ylgnlkuk,NA,NA,ylgnlkuk,2020-0188,2021-11-13,15:29:39,16:46:58,NA,incomplete,false,true,NA,8,22,E2_Q3_ansR.png,right,NA,NA,NA,right,1223.79999999981,true,NA,NA,NA,NA,NA
ylgnlkuk,NA,NA,ylgnlkuk,2020-0188,2021-11-13,15:29:39,16:46:58,NA,incomplete,false,true,NA,8,23,E2_Q1_ansL.png,left,NA,NA,NA,left,1220.5,true,NA,NA,NA,NA,NA
ylgnlkuk,NA,NA,ylgnlkuk,2020-0188,2021-11-13,15:29:39,16:46:58,NA,incomplete,false,true,NA,8,24,E2_Q7_ansR.png,right,NA,NA,NA,right,2249.10000000056,true,NA,NA,NA,NA,NA
ylgnlkuk,NA,NA,ylgnlkuk,2020-0188,2021-11-13,15:29:39,16:46:58,NA,incomplete,false,true,NA,8,25,E2_Q5_ansL.png,left,NA,NA,NA,left,1537.79999999981,true,NA,NA,NA,NA,NA
ylgnlkuk,NA,NA,ylgnlkuk,2020-0188,2021-11-13,15:29:39,16:46:58,NA,incomplete,false,true,NA,8,26,E2_Q9_ansL.png,left,NA,NA,NA,left,2896.20000000019,true,NA,NA,NA,NA,NA
ylgnlkuk,NA,NA,ylgnlkuk,2020-0188,2021-11-13,15:29:39,16:46:58,NA,incomplete,false,true,NA,8,27,E2_Q6_ansL.png,left,NA,NA,NA,left,926.100000000559,true,NA,NA,NA,NA,NA
ylgnlkuk,NA,NA,ylgnlkuk,2020-0188,2021-11-13,15:29:39,16:46:58,NA,incomplete,false,true,NA,8,28,E2_Q8_ansR.png,right,NA,NA,NA,right,822.200000000186,true,NA,NA,NA,NA,NA
ylgnlkuk,NA,NA,ylgnlkuk,2020-0188,2021-11-13,15:29:39,16:46:58,NA,incomplete,false,true,NA,8,29,E2_Q4_ansL.png,left,NA,NA,NA,left,2676.79999999981,true,NA,NA,NA,NA,NA
ylgnlkuk,NA,NA,ylgnlkuk,2020-0188,2021-11-13,15:29:39,16:46:58,NA,incomplete,false,NA,true,8,0,NA,right,E8_Q1_ansR.png,E8_Q5_ansL.png,within,NA,NaN,NA,left,1077.2999999998137,0,0,1027.1000000005588
ylgnlkuk,NA,NA,ylgnlkuk,2020-0188,2021-11-13,15:29:39,16:46:58,NA,incomplete,false,NA,true,8,1,NA,right,E8_Q3_ansL.png,E8_Q4_ansL.png,within,NA,NaN,NA,right,1547.0999999996275,1,1,858.5
ylgnlkuk,NA,NA,ylgnlkuk,2020-0188,2021-11-13,15:29:39,16:46:58,NA,incomplete,false,NA,true,8,2,NA,right,E2_Q5_ansL.png,E2_Q3_ansR.png,within,NA,NaN,NA,left,3645.800000000745,0,0,1150.2999999998137
ylgnlkuk,NA,NA,ylgnlkuk,2020-0188,2021-11-13,15:29:39,16:46:58,NA,incomplete,false,NA,true,8,3,NA,left,E2_Q1_ansL.png,E2_Q9_ansL.png,within,NA,NaN,NA,left,964.3999999994412,1,1,777.3999999994412
ylgnlkuk,NA,NA,ylgnlkuk,2020-0188,2021-11-13,15:29:39,16:46:58,NA,incomplete,false,NA,true,8,4,NA,right,E2_Q4_ansL.png,E2_Q9_ansL.png,within,NA,NaN,NA,left,793.6000000005588,0,1,793.5
ylgnlkuk,NA,NA,ylgnlkuk,2020-0188,2021-11-13,15:29:39,16:46:58,NA,incomplete,false,NA,true,8,5,NA,right,E8_Q10_ansR.png,E8_Q3_ansL.png,within,NA,NaN,NA,right,1774.2999999998137,1,1,931.7999999998137
ylgnlkuk,NA,NA,ylgnlkuk,2020-0188,2021-11-13,15:29:39,16:46:58,NA,incomplete,false,NA,true,8,6,NA,right,E2_Q6_ansL.png,E2_Q7_ansR.png,within,NA,NaN,NA,left,2097.7000000001863,0,0,1598.8999999994412
ylgnlkuk,NA,NA,ylgnlkuk,2020-0188,2021-11-13,15:29:39,16:46:58,NA,incomplete,false,NA,true,8,7,NA,left,E8_Q6_ansL.png,E33_Q7_ansL.png,between,NA,NaN,NA,left,6465,1,2,3013.5
ylgnlkuk,NA,NA,ylgnlkuk,2020-0188,2021-11-13,15:29:39,16:46:58,NA,incomplete,false,NA,true,8,8,NA,right,E33_Q2_ansL.png,E33_Q3_ansR.png,within,NA,NaN,NA,right,3646.4000000003725,1,1,1133.7999999998137
ylgnlkuk,NA,NA,ylgnlkuk,2020-0188,2021-11-13,15:29:39,16:46:58,NA,incomplete,false,NA,true,8,9,NA,right,E8_Q5_ansL.png,E8_Q2_ansR.png,within,NA,NaN,NA,right,1158.3999999994412,1,1,1077.0999999996275
ylgnlkuk,NA,NA,ylgnlkuk,2020-0188,2021-11-13,15:29:39,16:46:58,NA,incomplete,false,NA,true,8,10,NA,left,E33_Q8_ansL.png,E33_Q10_ansL.png,within,NA,NaN,NA,left,4010.5999999996275,1,1,1044.4000000003725
ylgnlkuk,NA,NA,ylgnlkuk,2020-0188,2021-11-13,15:29:39,16:46:58,NA,incomplete,false,NA,true,8,11,NA,left,E33_Q5_ansR.png,E33_Q3_ansR.png,within,NA,NaN,NA,left,850,1,1,1060.2000000001863
ylgnlkuk,NA,NA,ylgnlkuk,2020-0188,2021-11-13,15:29:39,16:46:58,NA,incomplete,false,NA,true,8,12,NA,left,E8_Q8_ansR.png,E8_Q9_ansL.png,within,NA,NaN,NA,left,2349.600000000559,1,1,1452.8999999994412
ylgnlkuk,NA,NA,ylgnlkuk,2020-0188,2021-11-13,15:29:39,16:46:58,NA,incomplete,false,NA,true,8,13,NA,left,E8_Q9_ansL.png,E8_Q6_ansL.png,within,NA,NaN,NA,left,2195.5999999996275,1,0,882.3999999994412
ylgnlkuk,NA,NA,ylgnlkuk,2020-0188,2021-11-13,15:29:39,16:46:58,NA,incomplete,false,NA,true,8,14,NA,left,E8_Q10_ansR.png,E8_Q7_ansR.png,within,NA,NaN,NA,left,1798.0999999996275,1,1,1117.7999999998137
ylgnlkuk,NA,NA,ylgnlkuk,2020-0188,2021-11-13,15:29:39,16:46:58,NA,incomplete,false,NA,true,8,15,NA,left,E33_Q6_ansR.png,E2_Q2_ansR.png,between,NA,NaN,NA,left,2698,1,2,2122.800000000745
ylgnlkuk,NA,NA,ylgnlkuk,2020-0188,2021-11-13,15:29:39,16:46:58,NA,incomplete,false,NA,true,8,16,NA,right,E2_Q10_ansL.png,E33_Q10_ansL.png,between,NA,NaN,NA,right,3824.2000000001863,1,2,1530.2999999998137
ylgnlkuk,NA,NA,ylgnlkuk,2020-0188,2021-11-13,15:29:39,16:46:58,NA,incomplete,false,NA,true,8,17,NA,left,E33_Q7_ansL.png,E33_Q8_ansL.png,within,NA,NaN,NA,right,2567.600000000559,0,1,1254.7999999998137
ylgnlkuk,NA,NA,ylgnlkuk,2020-0188,2021-11-13,15:29:39,16:46:58,NA,incomplete,false,NA,true,8,18,NA,right,E33_Q9_ansR.png,E33_Q4_ansR.png,within,NA,NaN,NA,right,1636.0999999996275,1,1,1351.7999999998137
ylgnlkuk,NA,NA,ylgnlkuk,2020-0188,2021-11-13,15:29:39,16:46:58,NA,incomplete,false,NA,true,8,19,NA,left,E33_Q9_ansR.png,E33_Q6_ansR.png,within,NA,NaN,NA,right,1822.2000000001863,0,1,1059.7999999998137
ylgnlkuk,NA,NA,ylgnlkuk,2020-0188,2021-11-13,15:29:39,16:46:58,NA,incomplete,false,NA,true,8,20,NA,right,E2_Q7_ansR.png,E2_Q2_ansR.png,within,NA,NaN,NA,right,2016.7000000001863,1,1,1003.7000000001863
ylgnlkuk,NA,NA,ylgnlkuk,2020-0188,2021-11-13,15:29:39,16:46:58,NA,incomplete,false,NA,true,8,21,NA,left,E8_Q7_ansR.png,E33_Q4_ansR.png,between,NA,NaN,NA,left,1992.9000000003725,1,2,1764.7000000001863
ylgnlkuk,NA,NA,ylgnlkuk,2020-0188,2021-11-13,15:29:39,16:46:58,NA,incomplete,false,NA,true,8,22,NA,left,E33_Q2_ansL.png,E33_Q1_ansL.png,within,NA,NaN,NA,left,2739.5,1,0,1060.3999999994412
ylgnlkuk,NA,NA,ylgnlkuk,2020-0188,2021-11-13,15:29:39,16:46:58,NA,incomplete,false,NA,true,8,23,NA,right,E2_Q3_ansR.png,E33_Q1_ansL.png,between,NA,NaN,NA,right,1717.2999999998137,1,2,1004.0999999996275
ylgnlkuk,NA,NA,ylgnlkuk,2020-0188,2021-11-13,15:29:39,16:46:58,NA,incomplete,false,NA,true,8,24,NA,left,E2_Q10_ansL.png,E2_Q1_ansL.png,within,NA,NaN,NA,left,891,1,1,1019.7999999998137
ylgnlkuk,NA,NA,ylgnlkuk,2020-0188,2021-11-13,15:29:39,16:46:58,NA,incomplete,false,NA,true,8,25,NA,right,E2_Q8_ansR.png,E2_Q5_ansL.png,within,NA,NaN,NA,right,1822.5999999996275,1,1,2097.199999999255
ylgnlkuk,NA,NA,ylgnlkuk,2020-0188,2021-11-13,15:29:39,16:46:58,NA,incomplete,false,NA,true,8,26,NA,right,E33_Q5_ansR.png,E8_Q1_ansR.png,between,NA,NaN,NA,right,1709.2999999998137,1,2,3791.2999999998137
ylgnlkuk,NA,NA,ylgnlkuk,2020-0188,2021-11-13,15:29:39,16:46:58,NA,incomplete,false,true,NA,9,0,E10_Q7_ansR.png,right,NA,NA,NA,right,3472.5,true,NA,NA,NA,NA,NA
ylgnlkuk,NA,NA,ylgnlkuk,2020-0188,2021-11-13,15:29:39,16:46:58,NA,incomplete,false,true,NA,9,1,E10_Q1_ansL.png,left,NA,NA,NA,left,2675.69999999925,true,NA,NA,NA,NA,NA
ylgnlkuk,NA,NA,ylgnlkuk,2020-0188,2021-11-13,15:29:39,16:46:58,NA,incomplete,false,true,NA,9,2,E10_Q9_ansL.png,left,NA,NA,NA,left,2651.39999999944,true,NA,NA,NA,NA,NA
ylgnlkuk,NA,NA,ylgnlkuk,2020-0188,2021-11-13,15:29:39,16:46:58,NA,incomplete,false,true,NA,9,3,E10_Q10_ansR.png,right,NA,NA,NA,right,2633.29999999981,true,NA,NA,NA,NA,NA
ylgnlkuk,NA,NA,ylgnlkuk,2020-0188,2021-11-13,15:29:39,16:46:58,NA,incomplete,false,true,NA,9,4,E10_Q6_ansR.png,right,NA,NA,NA,right,2527.40000000037,true,NA,NA,NA,NA,NA
ylgnlkuk,NA,NA,ylgnlkuk,2020-0188,2021-11-13,15:29:39,16:46:58,NA,incomplete,false,true,NA,9,5,E10_Q3_ansL.png,left,NA,NA,NA,none,0,false,NA,NA,NA,NA,NA
ylgnlkuk,NA,NA,ylgnlkuk,2020-0188,2021-11-13,15:29:39,16:46:58,NA,incomplete,false,true,NA,9,6,E10_Q4_ansL.png,left,NA,NA,NA,none,0,false,NA,NA,NA,NA,NA
ylgnlkuk,NA,NA,ylgnlkuk,2020-0188,2021-11-13,15:29:39,16:46:58,NA,incomplete,false,true,NA,9,7,E10_Q5_ansR.png,right,NA,NA,NA,right,3177.29999999981,true,NA,NA,NA,NA,NA
ylgnlkuk,NA,NA,ylgnlkuk,2020-0188,2021-11-13,15:29:39,16:46:58,NA,incomplete,false,true,NA,9,8,E10_Q8_ansR.png,right,NA,NA,NA,left,3239.69999999925,false,NA,NA,NA,NA,NA
ylgnlkuk,NA,NA,ylgnlkuk,2020-0188,2021-11-13,15:29:39,16:46:58,NA,incomplete,false,true,NA,9,9,E10_Q2_ansL.png,left,NA,NA,NA,left,2581.09999999963,true,NA,NA,NA,NA,NA
ylgnlkuk,NA,NA,ylgnlkuk,2020-0188,2021-11-13,15:29:39,16:46:58,NA,incomplete,false,true,NA,9,10,E27_Q4_ansR.png,right,NA,NA,NA,right,1327.69999999925,true,NA,NA,NA,NA,NA
ylgnlkuk,NA,NA,ylgnlkuk,2020-0188,2021-11-13,15:29:39,16:46:58,NA,incomplete,false,true,NA,9,11,E27_Q10_ansL.png,left,NA,NA,NA,left,855.100000000559,true,NA,NA,NA,NA,NA
ylgnlkuk,NA,NA,ylgnlkuk,2020-0188,2021-11-13,15:29:39,16:46:58,NA,incomplete,false,true,NA,9,12,E27_Q8_ansL.png,left,NA,NA,NA,left,920,true,NA,NA,NA,NA,NA
ylgnlkuk,NA,NA,ylgnlkuk,2020-0188,2021-11-13,15:29:39,16:46:58,NA,incomplete,false,true,NA,9,13,E27_Q9_ansR.png,right,NA,NA,NA,right,1124.5,true,NA,NA,NA,NA,NA
ylgnlkuk,NA,NA,ylgnlkuk,2020-0188,2021-11-13,15:29:39,16:46:58,NA,incomplete,false,true,NA,9,14,E27_Q2_ansL.png,left,NA,NA,NA,left,979.599999999627,true,NA,NA,NA,NA,NA
ylgnlkuk,NA,NA,ylgnlkuk,2020-0188,2021-11-13,15:29:39,16:46:58,NA,incomplete,false,true,NA,9,15,E27_Q5_ansR.png,right,NA,NA,NA,right,924,true,NA,NA,NA,NA,NA
ylgnlkuk,NA,NA,ylgnlkuk,2020-0188,2021-11-13,15:29:39,16:46:58,NA,incomplete,false,true,NA,9,16,E27_Q7_ansL.png,left,NA,NA,NA,left,1391.60000000056,true,NA,NA,NA,NA,NA
ylgnlkuk,NA,NA,ylgnlkuk,2020-0188,2021-11-13,15:29:39,16:46:58,NA,incomplete,false,true,NA,9,17,E27_Q1_ansL.png,left,NA,NA,NA,left,1201.89999999944,true,NA,NA,NA,NA,NA
ylgnlkuk,NA,NA,ylgnlkuk,2020-0188,2021-11-13,15:29:39,16:46:58,NA,incomplete,false,true,NA,9,18,E27_Q3_ansR.png,right,NA,NA,NA,right,1171.20000000019,true,NA,NA,NA,NA,NA
ylgnlkuk,NA,NA,ylgnlkuk,2020-0188,2021-11-13,15:29:39,16:46:58,NA,incomplete,false,true,NA,9,19,E27_Q6_ansR.png,right,NA,NA,NA,right,1235.20000000019,true,NA,NA,NA,NA,NA
ylgnlkuk,NA,NA,ylgnlkuk,2020-0188,2021-11-13,15:29:39,16:46:58,NA,incomplete,false,true,NA,9,20,E13_Q3_ansR.png,right,NA,NA,NA,right,1743.5,true,NA,NA,NA,NA,NA
ylgnlkuk,NA,NA,ylgnlkuk,2020-0188,2021-11-13,15:29:39,16:46:58,NA,incomplete,false,true,NA,9,21,E13_Q4_ansR.png,right,NA,NA,NA,right,1584.30000000075,true,NA,NA,NA,NA,NA
ylgnlkuk,NA,NA,ylgnlkuk,2020-0188,2021-11-13,15:29:39,16:46:58,NA,incomplete,false,true,NA,9,22,E13_Q5_ansR.png,right,NA,NA,NA,right,1596,true,NA,NA,NA,NA,NA
ylgnlkuk,NA,NA,ylgnlkuk,2020-0188,2021-11-13,15:29:39,16:46:58,NA,incomplete,false,true,NA,9,23,E13_Q6_ansR.png,right,NA,NA,NA,right,1189.79999999981,true,NA,NA,NA,NA,NA
ylgnlkuk,NA,NA,ylgnlkuk,2020-0188,2021-11-13,15:29:39,16:46:58,NA,incomplete,false,true,NA,9,24,E13_Q9_ansR.png,right,NA,NA,NA,right,1246.79999999981,true,NA,NA,NA,NA,NA
ylgnlkuk,NA,NA,ylgnlkuk,2020-0188,2021-11-13,15:29:39,16:46:58,NA,incomplete,false,true,NA,9,25,E13_Q10_ansL.png,left,NA,NA,NA,left,1162.60000000056,true,NA,NA,NA,NA,NA
ylgnlkuk,NA,NA,ylgnlkuk,2020-0188,2021-11-13,15:29:39,16:46:58,NA,incomplete,false,true,NA,9,26,E13_Q8_ansL.png,left,NA,NA,NA,left,1051.60000000056,true,NA,NA,NA,NA,NA
ylgnlkuk,NA,NA,ylgnlkuk,2020-0188,2021-11-13,15:29:39,16:46:58,NA,incomplete,false,true,NA,9,27,E13_Q1_ansL.png,left,NA,NA,NA,left,3020.79999999981,true,NA,NA,NA,NA,NA
ylgnlkuk,NA,NA,ylgnlkuk,2020-0188,2021-11-13,15:29:39,16:46:58,NA,incomplete,false,true,NA,9,28,E13_Q2_ansL.png,left,NA,NA,NA,left,1813.29999999981,true,NA,NA,NA,NA,NA
ylgnlkuk,NA,NA,ylgnlkuk,2020-0188,2021-11-13,15:29:39,16:46:58,NA,incomplete,false,true,NA,9,29,E13_Q7_ansL.png,left,NA,NA,NA,left,1489.89999999944,true,NA,NA,NA,NA,NA
ylgnlkuk,NA,NA,ylgnlkuk,2020-0188,2021-11-13,15:29:39,16:46:58,NA,incomplete,false,NA,true,9,0,NA,left,E27_Q6_ansR.png,E13_Q5_ansR.png,between,NA,NaN,NA,left,2011.5999999996275,1,2,1018.9000000003725
ylgnlkuk,NA,NA,ylgnlkuk,2020-0188,2021-11-13,15:29:39,16:46:58,NA,incomplete,false,NA,true,9,1,NA,left,E27_Q5_ansR.png,E27_Q3_ansR.png,within,NA,NaN,NA,right,1319.5,0,1,1376.7000000001863
ylgnlkuk,NA,NA,ylgnlkuk,2020-0188,2021-11-13,15:29:39,16:46:58,NA,incomplete,false,NA,true,9,2,NA,left,E10_Q1_ansL.png,E10_Q6_ansR.png,within,NA,NaN,NA,right,3710.7999999998137,0,1,939.2999999998137
ylgnlkuk,NA,NA,ylgnlkuk,2020-0188,2021-11-13,15:29:39,16:46:58,NA,incomplete,false,NA,true,9,3,NA,right,E13_Q2_ansL.png,E13_Q10_ansL.png,within,NA,NaN,NA,right,1344.4000000003725,1,1,801.3999999994412
ylgnlkuk,NA,NA,ylgnlkuk,2020-0188,2021-11-13,15:29:39,16:46:58,NA,incomplete,false,NA,true,9,4,NA,left,E27_Q1_ansL.png,E13_Q3_ansR.png,between,NA,NaN,NA,left,1515.5999999996275,1,1,996.2999999998137
ylgnlkuk,NA,NA,ylgnlkuk,2020-0188,2021-11-13,15:29:39,16:46:58,NA,incomplete,false,NA,true,9,5,NA,left,E27_Q10_ansL.png,E27_Q2_ansL.png,within,NA,NaN,NA,left,1611.800000000745,1,1,1426.4000000003725
ylgnlkuk,NA,NA,ylgnlkuk,2020-0188,2021-11-13,15:29:39,16:46:58,NA,incomplete,false,NA,true,9,6,NA,left,E27_Q7_ansL.png,E27_Q6_ansR.png,within,NA,NaN,NA,left,1919.699999999255,1,1,882.1999999992549
ylgnlkuk,NA,NA,ylgnlkuk,2020-0188,2021-11-13,15:29:39,16:46:58,NA,incomplete,false,NA,true,9,7,NA,right,E27_Q5_ansR.png,E27_Q8_ansL.png,within,NA,NaN,NA,right,1109.3999999994412,1,1,1408.2999999998137
ylgnlkuk,NA,NA,ylgnlkuk,2020-0188,2021-11-13,15:29:39,16:46:58,NA,incomplete,false,NA,true,9,8,NA,left,E13_Q8_ansL.png,E13_Q7_ansL.png,within,NA,NaN,NA,left,2365.7999999998137,1,1,1214.6000000005588
ylgnlkuk,NA,NA,ylgnlkuk,2020-0188,2021-11-13,15:29:39,16:46:58,NA,incomplete,false,NA,true,9,9,NA,right,E27_Q1_ansL.png,E27_Q2_ansL.png,within,NA,NaN,NA,left,2244,0,1,1239.2000000001863
ylgnlkuk,NA,NA,ylgnlkuk,2020-0188,2021-11-13,15:29:39,16:46:58,NA,incomplete,false,NA,true,9,10,NA,left,E10_Q3_ansL.png,E10_Q8_ansR.png,within,NA,NaN,NA,left,1255.5999999996275,1,1,1554.9000000003725
ylgnlkuk,NA,NA,ylgnlkuk,2020-0188,2021-11-13,15:29:39,16:46:58,NA,incomplete,false,NA,true,9,11,NA,right,E10_Q4_ansL.png,E10_Q10_ansR.png,within,NA,NaN,NA,right,3678.5,1,1,1223
