workerId,hitId,assignmentId,subject,studyid,exp_date,exp_start,exp_end,time_start,time_end,practice,encoding,memory,block,trial,stim,answer,left_image,right_image,condition,response,response_time,response_acc,order_response,order_response_time,order_acc,distance_response,distance_response_time
YQcPt3B9,NA,NA,YQcPt3B9,2020-0188,2021-09-23,17:20:30,18:27:36,NA,incomplete,true,true,NA,0,0,E3_Q5_ansR.png,right,NA,NA,NA,right,2144.79999999702,true,NA,NA,NA,NA,NA
YQcPt3B9,NA,NA,YQcPt3B9,2020-0188,2021-09-23,17:20:30,18:27:36,NA,incomplete,true,true,NA,0,1,E3_Q7_ansL.png,left,NA,NA,NA,left,2871.80000001192,true,NA,NA,NA,NA,NA
YQcPt3B9,NA,NA,YQcPt3B9,2020-0188,2021-09-23,17:20:30,18:27:36,NA,incomplete,true,true,NA,0,2,E3_Q2_ansL.png,left,NA,NA,NA,left,2462.29999999702,true,NA,NA,NA,NA,NA
YQcPt3B9,NA,NA,YQcPt3B9,2020-0188,2021-09-23,17:20:30,18:27:36,NA,incomplete,true,true,NA,0,3,E3_Q8_ansL.png,left,NA,NA,NA,left,2306.59999999404,true,NA,NA,NA,NA,NA
YQcPt3B9,NA,NA,YQcPt3B9,2020-0188,2021-09-23,17:20:30,18:27:36,NA,incomplete,true,true,NA,0,4,E3_Q4_ansL.png,left,NA,NA,NA,left,2415.70000000298,true,NA,NA,NA,NA,NA
YQcPt3B9,NA,NA,YQcPt3B9,2020-0188,2021-09-23,17:20:30,18:27:36,NA,incomplete,true,true,NA,0,5,E3_Q10_ansR.png,right,NA,NA,NA,right,1633.5,true,NA,NA,NA,NA,NA
YQcPt3B9,NA,NA,YQcPt3B9,2020-0188,2021-09-23,17:20:30,18:27:36,NA,incomplete,true,true,NA,0,6,E3_Q9_ansL.png,left,NA,NA,NA,left,2567.79999999702,true,NA,NA,NA,NA,NA
YQcPt3B9,NA,NA,YQcPt3B9,2020-0188,2021-09-23,17:20:30,18:27:36,NA,incomplete,true,true,NA,0,7,E3_Q1_ansR.png,right,NA,NA,NA,right,2092.29999999702,true,NA,NA,NA,NA,NA
YQcPt3B9,NA,NA,YQcPt3B9,2020-0188,2021-09-23,17:20:30,18:27:36,NA,incomplete,true,true,NA,0,8,E3_Q6_ansR.png,right,NA,NA,NA,right,2419.39999999106,true,NA,NA,NA,NA,NA
YQcPt3B9,NA,NA,YQcPt3B9,2020-0188,2021-09-23,17:20:30,18:27:36,NA,incomplete,true,true,NA,0,9,E3_Q3_ansR.png,right,NA,NA,NA,right,1896.39999999106,true,NA,NA,NA,NA,NA
YQcPt3B9,NA,NA,YQcPt3B9,2020-0188,2021-09-23,17:20:30,18:27:36,NA,incomplete,true,true,NA,0,10,E14_Q10_ansL.png,left,NA,NA,NA,right,1547.60000000894,false,NA,NA,NA,NA,NA
YQcPt3B9,NA,NA,YQcPt3B9,2020-0188,2021-09-23,17:20:30,18:27:36,NA,incomplete,true,true,NA,0,11,E14_Q8_ansL.png,left,NA,NA,NA,right,1119.5,false,NA,NA,NA,NA,NA
YQcPt3B9,NA,NA,YQcPt3B9,2020-0188,2021-09-23,17:20:30,18:27:36,NA,incomplete,true,true,NA,0,12,E14_Q2_ansL.png,left,NA,NA,NA,left,2151.70000000298,true,NA,NA,NA,NA,NA
YQcPt3B9,NA,NA,YQcPt3B9,2020-0188,2021-09-23,17:20:30,18:27:36,NA,incomplete,true,true,NA,0,13,E14_Q1_ansL.png,left,NA,NA,NA,left,1140.70000000298,true,NA,NA,NA,NA,NA
YQcPt3B9,NA,NA,YQcPt3B9,2020-0188,2021-09-23,17:20:30,18:27:36,NA,incomplete,true,true,NA,0,14,E14_Q6_ansR.png,right,NA,NA,NA,right,1237.69999998808,true,NA,NA,NA,NA,NA
YQcPt3B9,NA,NA,YQcPt3B9,2020-0188,2021-09-23,17:20:30,18:27:36,NA,incomplete,true,true,NA,0,15,E14_Q4_ansR.png,right,NA,NA,NA,right,1556.70000000298,true,NA,NA,NA,NA,NA
YQcPt3B9,NA,NA,YQcPt3B9,2020-0188,2021-09-23,17:20:30,18:27:36,NA,incomplete,true,true,NA,0,16,E14_Q7_ansL.png,left,NA,NA,NA,left,2206.59999999404,true,NA,NA,NA,NA,NA
YQcPt3B9,NA,NA,YQcPt3B9,2020-0188,2021-09-23,17:20:30,18:27:36,NA,incomplete,true,true,NA,0,17,E14_Q3_ansR.png,right,NA,NA,NA,right,1238.10000000894,true,NA,NA,NA,NA,NA
YQcPt3B9,NA,NA,YQcPt3B9,2020-0188,2021-09-23,17:20:30,18:27:36,NA,incomplete,true,true,NA,0,18,E14_Q9_ansR.png,right,NA,NA,NA,right,1822,true,NA,NA,NA,NA,NA
YQcPt3B9,NA,NA,YQcPt3B9,2020-0188,2021-09-23,17:20:30,18:27:36,NA,incomplete,true,true,NA,0,19,E14_Q5_ansR.png,right,NA,NA,NA,right,1813.5,true,NA,NA,NA,NA,NA
YQcPt3B9,NA,NA,YQcPt3B9,2020-0188,2021-09-23,17:20:30,18:27:36,NA,incomplete,true,true,NA,0,20,E4_Q4_ansL.png,left,NA,NA,NA,left,2753,true,NA,NA,NA,NA,NA
YQcPt3B9,NA,NA,YQcPt3B9,2020-0188,2021-09-23,17:20:30,18:27:36,NA,incomplete,true,true,NA,0,21,E4_Q7_ansR.png,right,NA,NA,NA,right,1846,true,NA,NA,NA,NA,NA
YQcPt3B9,NA,NA,YQcPt3B9,2020-0188,2021-09-23,17:20:30,18:27:36,NA,incomplete,true,true,NA,0,22,E4_Q9_ansL.png,left,NA,NA,NA,left,1835.59999999404,true,NA,NA,NA,NA,NA
YQcPt3B9,NA,NA,YQcPt3B9,2020-0188,2021-09-23,17:20:30,18:27:36,NA,incomplete,true,true,NA,0,23,E4_Q5_ansR.png,right,NA,NA,NA,right,1464,true,NA,NA,NA,NA,NA
YQcPt3B9,NA,NA,YQcPt3B9,2020-0188,2021-09-23,17:20:30,18:27:36,NA,incomplete,true,true,NA,0,24,E4_Q6_ansR.png,right,NA,NA,NA,right,1850.70000000298,true,NA,NA,NA,NA,NA
YQcPt3B9,NA,NA,YQcPt3B9,2020-0188,2021-09-23,17:20:30,18:27:36,NA,incomplete,true,true,NA,0,25,E4_Q8_ansR.png,right,NA,NA,NA,right,1722.20000000298,true,NA,NA,NA,NA,NA
YQcPt3B9,NA,NA,YQcPt3B9,2020-0188,2021-09-23,17:20:30,18:27:36,NA,incomplete,true,true,NA,0,26,E4_Q10_ansR.png,right,NA,NA,NA,right,1511.69999998808,true,NA,NA,NA,NA,NA
YQcPt3B9,NA,NA,YQcPt3B9,2020-0188,2021-09-23,17:20:30,18:27:36,NA,incomplete,true,true,NA,0,27,E4_Q2_ansL.png,left,NA,NA,NA,left,1794.70000000298,true,NA,NA,NA,NA,NA
YQcPt3B9,NA,NA,YQcPt3B9,2020-0188,2021-09-23,17:20:30,18:27:36,NA,incomplete,true,true,NA,0,28,E4_Q3_ansL.png,left,NA,NA,NA,left,1874.09999999404,true,NA,NA,NA,NA,NA
YQcPt3B9,NA,NA,YQcPt3B9,2020-0188,2021-09-23,17:20:30,18:27:36,NA,incomplete,true,true,NA,0,29,E4_Q1_ansL.png,left,NA,NA,NA,left,1698.09999999404,true,NA,NA,NA,NA,NA
YQcPt3B9,NA,NA,YQcPt3B9,2020-0188,2021-09-23,17:20:30,18:27:36,NA,incomplete,true,NA,true,0,0,NA,left,E4_Q10_ansR.png,E4_Q1_ansL.png,within,NA,NaN,NA,left,4362.79999999702,1,1,5170
YQcPt3B9,NA,NA,YQcPt3B9,2020-0188,2021-09-23,17:20:30,18:27:36,NA,incomplete,true,NA,true,0,1,NA,right,E4_Q10_ansR.png,E4_Q5_ansR.png,within,NA,NaN,NA,left,3627.1000000089407,0,1,2051.4000000059605
YQcPt3B9,NA,NA,YQcPt3B9,2020-0188,2021-09-23,17:20:30,18:27:36,NA,incomplete,true,NA,true,0,2,NA,right,E3_Q8_ansL.png,E3_Q5_ansR.png,within,NA,NaN,NA,right,3463.800000011921,1,1,2462.3999999910593
YQcPt3B9,NA,NA,YQcPt3B9,2020-0188,2021-09-23,17:20:30,18:27:36,NA,incomplete,true,NA,true,0,3,NA,right,E14_Q7_ansL.png,E14_Q1_ansL.png,within,NA,NaN,NA,left,5402.9000000059605,0,1,1623.7000000029802
YQcPt3B9,NA,NA,YQcPt3B9,2020-0188,2021-09-23,17:20:30,18:27:36,NA,incomplete,true,NA,true,0,4,NA,right,E4_Q9_ansL.png,E14_Q5_ansR.png,between,NA,NaN,NA,left,5066.300000011921,0,2,1673.199999988079
YQcPt3B9,NA,NA,YQcPt3B9,2020-0188,2021-09-23,17:20:30,18:27:36,NA,incomplete,true,NA,true,0,5,NA,left,E4_Q9_ansL.png,E4_Q8_ansR.png,within,NA,NaN,NA,left,4843.29999999702,1,1,2083.5
YQcPt3B9,NA,NA,YQcPt3B9,2020-0188,2021-09-23,17:20:30,18:27:36,NA,incomplete,true,NA,true,0,6,NA,right,E3_Q6_ansR.png,E3_Q10_ansR.png,within,NA,NaN,NA,right,5602.899999991059,1,1,1976.0999999940395
YQcPt3B9,NA,NA,YQcPt3B9,2020-0188,2021-09-23,17:20:30,18:27:36,NA,incomplete,true,NA,true,0,7,NA,left,E3_Q2_ansL.png,E3_Q10_ansR.png,within,NA,NaN,NA,right,4332.5,0,1,1829.4000000059605
YQcPt3B9,NA,NA,YQcPt3B9,2020-0188,2021-09-23,17:20:30,18:27:36,NA,incomplete,true,NA,true,0,8,NA,right,E3_Q3_ansR.png,E3_Q9_ansL.png,within,NA,NaN,NA,left,3646.3999999910593,0,1,3347.7000000029802
YQcPt3B9,NA,NA,YQcPt3B9,2020-0188,2021-09-23,17:20:30,18:27:36,NA,incomplete,true,NA,true,0,9,NA,right,E14_Q10_ansL.png,E3_Q1_ansR.png,between,NA,NaN,NA,right,2428.5,1,3,1664.3999999910593
YQcPt3B9,NA,NA,YQcPt3B9,2020-0188,2021-09-23,17:20:30,18:27:36,NA,incomplete,true,NA,true,0,10,NA,left,E4_Q7_ansR.png,E4_Q6_ansR.png,within,NA,NaN,NA,left,4300.100000008941,1,1,2526.6000000089407
YQcPt3B9,NA,NA,YQcPt3B9,2020-0188,2021-09-23,17:20:30,18:27:36,NA,incomplete,true,NA,true,0,11,NA,left,E14_Q9_ansR.png,E4_Q7_ansR.png,between,NA,NaN,NA,left,3453.3999999910593,1,2,1878.2999999970198
YQcPt3B9,NA,NA,YQcPt3B9,2020-0188,2021-09-23,17:20:30,18:27:36,NA,incomplete,true,NA,true,0,12,NA,right,E14_Q4_ansR.png,E14_Q2_ansL.png,within,NA,NaN,NA,right,6296,1,1,1417.7999999970198
YQcPt3B9,NA,NA,YQcPt3B9,2020-0188,2021-09-23,17:20:30,18:27:36,NA,incomplete,true,NA,true,0,13,NA,right,E4_Q2_ansL.png,E4_Q6_ansR.png,within,NA,NaN,NA,right,2551.5,1,1,1926.4000000059605
YQcPt3B9,NA,NA,YQcPt3B9,2020-0188,2021-09-23,17:20:30,18:27:36,NA,incomplete,true,NA,true,0,14,NA,right,E14_Q6_ansR.png,E14_Q8_ansL.png,within,NA,NaN,NA,right,4304.5,1,1,1813.0999999940395
YQcPt3B9,NA,NA,YQcPt3B9,2020-0188,2021-09-23,17:20:30,18:27:36,NA,incomplete,true,NA,true,0,15,NA,left,E4_Q8_ansR.png,E4_Q3_ansL.png,within,NA,NaN,NA,left,6607.899999991059,1,1,1903.5
YQcPt3B9,NA,NA,YQcPt3B9,2020-0188,2021-09-23,17:20:30,18:27:36,NA,incomplete,true,NA,true,0,16,NA,right,E3_Q1_ansR.png,E3_Q4_ansL.png,within,NA,NaN,NA,left,3031.7999999970198,0,1,1459.5999999940395
YQcPt3B9,NA,NA,YQcPt3B9,2020-0188,2021-09-23,17:20:30,18:27:36,NA,incomplete,true,NA,true,0,17,NA,right,E14_Q9_ansR.png,E14_Q4_ansR.png,within,NA,NaN,NA,left,4382.70000000298,0,1,1517
YQcPt3B9,NA,NA,YQcPt3B9,2020-0188,2021-09-23,17:20:30,18:27:36,NA,incomplete,true,NA,true,0,18,NA,right,E14_Q1_ansL.png,E14_Q10_ansL.png,within,NA,NaN,NA,right,5564.5,1,1,1418.2999999970198
YQcPt3B9,NA,NA,YQcPt3B9,2020-0188,2021-09-23,17:20:30,18:27:36,NA,incomplete,true,NA,true,0,19,NA,left,E14_Q3_ansR.png,E4_Q4_ansL.png,between,NA,NaN,NA,left,2928.8999999910593,1,2,9431.70000000298
YQcPt3B9,NA,NA,YQcPt3B9,2020-0188,2021-09-23,17:20:30,18:27:36,NA,incomplete,true,NA,true,0,20,NA,right,E14_Q3_ansR.png,E14_Q6_ansR.png,within,NA,NaN,NA,right,5730.899999991059,1,1,1925.5999999940395
YQcPt3B9,NA,NA,YQcPt3B9,2020-0188,2021-09-23,17:20:30,18:27:36,NA,incomplete,true,NA,true,0,21,NA,left,E3_Q3_ansR.png,E14_Q2_ansL.png,between,NA,NaN,NA,left,2017.7999999970198,1,3,1549.1000000089407
YQcPt3B9,NA,NA,YQcPt3B9,2020-0188,2021-09-23,17:20:30,18:27:36,NA,incomplete,true,NA,true,0,22,NA,right,E3_Q4_ansL.png,E3_Q7_ansL.png,within,NA,NaN,NA,right,6073.79999999702,1,1,3954.1000000089407
YQcPt3B9,NA,NA,YQcPt3B9,2020-0188,2021-09-23,17:20:30,18:27:36,NA,incomplete,true,NA,true,0,23,NA,right,E14_Q8_ansL.png,E3_Q6_ansR.png,between,NA,NaN,NA,right,2511.2999999970198,1,3,1386.699999988079
YQcPt3B9,NA,NA,YQcPt3B9,2020-0188,2021-09-23,17:20:30,18:27:36,NA,incomplete,true,NA,true,0,24,NA,left,E14_Q7_ansL.png,E14_Q5_ansR.png,within,NA,NaN,NA,left,2938.7000000029802,1,1,2741.2000000029802
YQcPt3B9,NA,NA,YQcPt3B9,2020-0188,2021-09-23,17:20:30,18:27:36,NA,incomplete,true,NA,true,0,25,NA,right,E3_Q9_ansL.png,E3_Q8_ansL.png,within,NA,NaN,NA,right,10213.20000000298,1,1,2527.199999988079
YQcPt3B9,NA,NA,YQcPt3B9,2020-0188,2021-09-23,17:20:30,18:27:36,NA,incomplete,true,NA,true,0,26,NA,left,E4_Q4_ansL.png,E4_Q5_ansR.png,within,NA,NaN,NA,left,5531.899999991059,1,1,1614.5999999940395
YQcPt3B9,NA,NA,YQcPt3B9,2020-0188,2021-09-23,17:20:30,18:27:36,NA,incomplete,false,true,NA,1,0,E21_Q8_ansL.png,left,NA,NA,NA,left,1851.79999999702,true,NA,NA,NA,NA,NA
YQcPt3B9,NA,NA,YQcPt3B9,2020-0188,2021-09-23,17:20:30,18:27:36,NA,incomplete,false,true,NA,1,1,E21_Q9_ansR.png,right,NA,NA,NA,right,1117.59999999404,true,NA,NA,NA,NA,NA
YQcPt3B9,NA,NA,YQcPt3B9,2020-0188,2021-09-23,17:20:30,18:27:36,NA,incomplete,false,true,NA,1,2,E21_Q3_ansR.png,right,NA,NA,NA,right,1571.5,true,NA,NA,NA,NA,NA
YQcPt3B9,NA,NA,YQcPt3B9,2020-0188,2021-09-23,17:20:30,18:27:36,NA,incomplete,false,true,NA,1,3,E21_Q4_ansR.png,right,NA,NA,NA,right,1899.09999999404,true,NA,NA,NA,NA,NA
YQcPt3B9,NA,NA,YQcPt3B9,2020-0188,2021-09-23,17:20:30,18:27:36,NA,incomplete,false,true,NA,1,4,E21_Q7_ansL.png,left,NA,NA,NA,left,1272.59999999404,true,NA,NA,NA,NA,NA
YQcPt3B9,NA,NA,YQcPt3B9,2020-0188,2021-09-23,17:20:30,18:27:36,NA,incomplete,false,true,NA,1,5,E21_Q10_ansL.png,left,NA,NA,NA,left,986.59999999404,true,NA,NA,NA,NA,NA
YQcPt3B9,NA,NA,YQcPt3B9,2020-0188,2021-09-23,17:20:30,18:27:36,NA,incomplete,false,true,NA,1,6,E21_Q6_ansR.png,right,NA,NA,NA,right,1492.5,true,NA,NA,NA,NA,NA
YQcPt3B9,NA,NA,YQcPt3B9,2020-0188,2021-09-23,17:20:30,18:27:36,NA,incomplete,false,true,NA,1,7,E21_Q1_ansL.png,left,NA,NA,NA,left,1127.29999999702,true,NA,NA,NA,NA,NA
YQcPt3B9,NA,NA,YQcPt3B9,2020-0188,2021-09-23,17:20:30,18:27:36,NA,incomplete,false,true,NA,1,8,E21_Q5_ansR.png,right,NA,NA,NA,right,1093.79999999702,true,NA,NA,NA,NA,NA
YQcPt3B9,NA,NA,YQcPt3B9,2020-0188,2021-09-23,17:20:30,18:27:36,NA,incomplete,false,true,NA,1,9,E21_Q2_ansL.png,left,NA,NA,NA,left,2041.70000000298,true,NA,NA,NA,NA,NA
YQcPt3B9,NA,NA,YQcPt3B9,2020-0188,2021-09-23,17:20:30,18:27:36,NA,incomplete,false,true,NA,1,10,E22_Q3_ansL.png,left,NA,NA,NA,left,1648.5,true,NA,NA,NA,NA,NA
YQcPt3B9,NA,NA,YQcPt3B9,2020-0188,2021-09-23,17:20:30,18:27:36,NA,incomplete,false,true,NA,1,11,E22_Q9_ansL.png,left,NA,NA,NA,left,1428.70000000298,true,NA,NA,NA,NA,NA
YQcPt3B9,NA,NA,YQcPt3B9,2020-0188,2021-09-23,17:20:30,18:27:36,NA,incomplete,false,true,NA,1,12,E22_Q10_ansR.png,right,NA,NA,NA,right,1163.20000000298,true,NA,NA,NA,NA,NA
YQcPt3B9,NA,NA,YQcPt3B9,2020-0188,2021-09-23,17:20:30,18:27:36,NA,incomplete,false,true,NA,1,13,E22_Q4_ansL.png,left,NA,NA,NA,left,996.09999999404,true,NA,NA,NA,NA,NA
YQcPt3B9,NA,NA,YQcPt3B9,2020-0188,2021-09-23,17:20:30,18:27:36,NA,incomplete,false,true,NA,1,14,E22_Q8_ansR.png,right,NA,NA,NA,right,1112,true,NA,NA,NA,NA,NA
YQcPt3B9,NA,NA,YQcPt3B9,2020-0188,2021-09-23,17:20:30,18:27:36,NA,incomplete,false,true,NA,1,15,E22_Q2_ansR.png,right,NA,NA,NA,right,1629.39999999106,true,NA,NA,NA,NA,NA
YQcPt3B9,NA,NA,YQcPt3B9,2020-0188,2021-09-23,17:20:30,18:27:36,NA,incomplete,false,true,NA,1,16,E22_Q5_ansL.png,left,NA,NA,NA,left,1079.90000000596,true,NA,NA,NA,NA,NA
YQcPt3B9,NA,NA,YQcPt3B9,2020-0188,2021-09-23,17:20:30,18:27:36,NA,incomplete,false,true,NA,1,17,E22_Q1_ansR.png,right,NA,NA,NA,right,1231.10000000894,true,NA,NA,NA,NA,NA
YQcPt3B9,NA,NA,YQcPt3B9,2020-0188,2021-09-23,17:20:30,18:27:36,NA,incomplete,false,true,NA,1,18,E22_Q7_ansR.png,right,NA,NA,NA,right,1510.70000000298,true,NA,NA,NA,NA,NA
YQcPt3B9,NA,NA,YQcPt3B9,2020-0188,2021-09-23,17:20:30,18:27:36,NA,incomplete,false,true,NA,1,19,E22_Q6_ansL.png,left,NA,NA,NA,left,1454.60000000894,true,NA,NA,NA,NA,NA
YQcPt3B9,NA,NA,YQcPt3B9,2020-0188,2021-09-23,17:20:30,18:27:36,NA,incomplete,false,true,NA,1,20,E16_Q3_ansL.png,left,NA,NA,NA,left,2028.80000001192,true,NA,NA,NA,NA,NA
YQcPt3B9,NA,NA,YQcPt3B9,2020-0188,2021-09-23,17:20:30,18:27:36,NA,incomplete,false,true,NA,1,21,E16_Q4_ansL.png,left,NA,NA,NA,left,946,true,NA,NA,NA,NA,NA
YQcPt3B9,NA,NA,YQcPt3B9,2020-0188,2021-09-23,17:20:30,18:27:36,NA,incomplete,false,true,NA,1,22,E16_Q9_ansL.png,left,NA,NA,NA,left,1304.40000000596,true,NA,NA,NA,NA,NA
YQcPt3B9,NA,NA,YQcPt3B9,2020-0188,2021-09-23,17:20:30,18:27:36,NA,incomplete,false,true,NA,1,23,E16_Q7_ansR.png,right,NA,NA,NA,right,1012.29999999702,true,NA,NA,NA,NA,NA
YQcPt3B9,NA,NA,YQcPt3B9,2020-0188,2021-09-23,17:20:30,18:27:36,NA,incomplete,false,true,NA,1,24,E16_Q6_ansL.png,left,NA,NA,NA,left,1460.29999999702,true,NA,NA,NA,NA,NA
YQcPt3B9,NA,NA,YQcPt3B9,2020-0188,2021-09-23,17:20:30,18:27:36,NA,incomplete,false,true,NA,1,25,E16_Q1_ansR.png,right,NA,NA,NA,right,1245.59999999404,true,NA,NA,NA,NA,NA
YQcPt3B9,NA,NA,YQcPt3B9,2020-0188,2021-09-23,17:20:30,18:27:36,NA,incomplete,false,true,NA,1,26,E16_Q10_ansR.png,right,NA,NA,NA,right,2009.20000000298,true,NA,NA,NA,NA,NA
YQcPt3B9,NA,NA,YQcPt3B9,2020-0188,2021-09-23,17:20:30,18:27:36,NA,incomplete,false,true,NA,1,27,E16_Q8_ansR.png,right,NA,NA,NA,right,1190.70000000298,true,NA,NA,NA,NA,NA
YQcPt3B9,NA,NA,YQcPt3B9,2020-0188,2021-09-23,17:20:30,18:27:36,NA,incomplete,false,true,NA,1,28,E16_Q5_ansL.png,left,NA,NA,NA,left,1186.59999999404,true,NA,NA,NA,NA,NA
YQcPt3B9,NA,NA,YQcPt3B9,2020-0188,2021-09-23,17:20:30,18:27:36,NA,incomplete,false,true,NA,1,29,E16_Q2_ansR.png,right,NA,NA,NA,right,1467.90000000596,true,NA,NA,NA,NA,NA
YQcPt3B9,NA,NA,YQcPt3B9,2020-0188,2021-09-23,17:20:30,18:27:36,NA,incomplete,false,NA,true,1,0,NA,right,E16_Q10_ansR.png,E16_Q7_ansR.png,within,NA,NaN,NA,right,2757.5,1,1,2757.7000000029802
YQcPt3B9,NA,NA,YQcPt3B9,2020-0188,2021-09-23,17:20:30,18:27:36,NA,incomplete,false,NA,true,1,1,NA,left,E21_Q6_ansR.png,E21_Q2_ansL.png,within,NA,NaN,NA,left,3890.5999999940395,1,1,1053.3999999910593
YQcPt3B9,NA,NA,YQcPt3B9,2020-0188,2021-09-23,17:20:30,18:27:36,NA,incomplete,false,NA,true,1,2,NA,left,E21_Q10_ansL.png,E21_Q5_ansR.png,within,NA,NaN,NA,left,2207.2999999970198,1,1,1366.699999988079
YQcPt3B9,NA,NA,YQcPt3B9,2020-0188,2021-09-23,17:20:30,18:27:36,NA,incomplete,false,NA,true,1,3,NA,right,E22_Q1_ansR.png,E22_Q8_ansR.png,within,NA,NaN,NA,right,2881.1000000089407,1,1,1064.2000000029802
YQcPt3B9,NA,NA,YQcPt3B9,2020-0188,2021-09-23,17:20:30,18:27:36,NA,incomplete,false,NA,true,1,4,NA,right,E21_Q10_ansL.png,E21_Q3_ansR.png,within,NA,NaN,NA,right,2371.7999999970198,1,0,2822.0999999940395
YQcPt3B9,NA,NA,YQcPt3B9,2020-0188,2021-09-23,17:20:30,18:27:36,NA,incomplete,false,NA,true,1,5,NA,left,E21_Q8_ansL.png,E21_Q4_ansR.png,within,NA,NaN,NA,left,2265.5999999940395,1,0,2255.800000011921
YQcPt3B9,NA,NA,YQcPt3B9,2020-0188,2021-09-23,17:20:30,18:27:36,NA,incomplete,false,NA,true,1,6,NA,right,E21_Q6_ansR.png,E21_Q4_ansR.png,within,NA,NaN,NA,left,2025.4000000059605,0,0,3881.5
YQcPt3B9,NA,NA,YQcPt3B9,2020-0188,2021-09-23,17:20:30,18:27:36,NA,incomplete,false,NA,true,1,7,NA,right,E16_Q4_ansL.png,E22_Q7_ansR.png,between,NA,NaN,NA,right,4166.5,1,2,3249.5
YQcPt3B9,NA,NA,YQcPt3B9,2020-0188,2021-09-23,17:20:30,18:27:36,NA,incomplete,false,NA,true,1,8,NA,left,E22_Q10_ansR.png,E22_Q2_ansR.png,within,NA,NaN,NA,left,4530.100000008941,1,1,1427
YQcPt3B9,NA,NA,YQcPt3B9,2020-0188,2021-09-23,17:20:30,18:27:36,NA,incomplete,false,NA,true,1,9,NA,right,E22_Q10_ansR.png,E21_Q2_ansL.png,between,NA,NaN,NA,right,1982.1000000089407,1,2,1559.5999999940395
YQcPt3B9,NA,NA,YQcPt3B9,2020-0188,2021-09-23,17:20:30,18:27:36,NA,incomplete,false,NA,true,1,10,NA,right,E22_Q4_ansL.png,E22_Q3_ansL.png,within,NA,NaN,NA,right,3011.4000000059605,1,1,1394.9000000059605
YQcPt3B9,NA,NA,YQcPt3B9,2020-0188,2021-09-23,17:20:30,18:27:36,NA,incomplete,false,NA,true,1,11,NA,left,E16_Q10_ansR.png,E16_Q2_ansR.png,within,NA,NaN,NA,right,4899.79999999702,0,1,1282.9000000059605
YQcPt3B9,NA,NA,YQcPt3B9,2020-0188,2021-09-23,17:20:30,18:27:36,NA,incomplete,false,NA,true,1,12,NA,left,E22_Q4_ansL.png,E22_Q5_ansL.png,within,NA,NaN,NA,left,3797.5,1,1,1328.7000000029802
YQcPt3B9,NA,NA,YQcPt3B9,2020-0188,2021-09-23,17:20:30,18:27:36,NA,incomplete,false,NA,true,1,13,NA,right,E22_Q7_ansR.png,E22_Q2_ansR.png,within,NA,NaN,NA,right,2486.8999999910593,1,1,1567.800000011921
YQcPt3B9,NA,NA,YQcPt3B9,2020-0188,2021-09-23,17:20:30,18:27:36,NA,incomplete,false,NA,true,1,14,NA,right,E22_Q8_ansR.png,E22_Q9_ansL.png,within,NA,NaN,NA,right,4039.7000000029802,1,0,1098.2000000029802
YQcPt3B9,NA,NA,YQcPt3B9,2020-0188,2021-09-23,17:20:30,18:27:36,NA,incomplete,false,NA,true,1,15,NA,right,E16_Q8_ansR.png,E16_Q6_ansL.png,within,NA,NaN,NA,right,3323.7000000029802,1,1,1599.4000000059605
YQcPt3B9,NA,NA,YQcPt3B9,2020-0188,2021-09-23,17:20:30,18:27:36,NA,incomplete,false,NA,true,1,16,NA,right,E22_Q9_ansL.png,E21_Q5_ansR.png,between,NA,NaN,NA,right,2413.7999999970198,1,2,999.5
YQcPt3B9,NA,NA,YQcPt3B9,2020-0188,2021-09-23,17:20:30,18:27:36,NA,incomplete,false,NA,true,1,17,NA,left,E16_Q3_ansL.png,E16_Q7_ansR.png,within,NA,NaN,NA,left,3521.5,1,1,1501.0999999940395
YQcPt3B9,NA,NA,YQcPt3B9,2020-0188,2021-09-23,17:20:30,18:27:36,NA,incomplete,false,NA,true,1,18,NA,left,E16_Q1_ansR.png,E16_Q5_ansL.png,within,NA,NaN,NA,left,7287.600000008941,1,1,1295.5999999940395
YQcPt3B9,NA,NA,YQcPt3B9,2020-0188,2021-09-23,17:20:30,18:27:36,NA,incomplete,false,NA,true,1,19,NA,right,E21_Q1_ansL.png,E21_Q7_ansL.png,within,NA,NaN,NA,right,3468.4000000059605,1,1,1385.800000011921
YQcPt3B9,NA,NA,YQcPt3B9,2020-0188,2021-09-23,17:20:30,18:27:36,NA,incomplete,false,NA,true,1,20,NA,right,E21_Q7_ansL.png,E21_Q9_ansR.png,within,NA,NaN,NA,right,1295.2000000029802,1,1,1288
YQcPt3B9,NA,NA,YQcPt3B9,2020-0188,2021-09-23,17:20:30,18:27:36,NA,incomplete,false,NA,true,1,21,NA,left,E16_Q9_ansL.png,E16_Q1_ansR.png,within,NA,NaN,NA,right,3004.2000000029802,0,1,1213.4000000059605
YQcPt3B9,NA,NA,YQcPt3B9,2020-0188,2021-09-23,17:20:30,18:27:36,NA,incomplete,false,NA,true,1,22,NA,left,E16_Q4_ansL.png,E16_Q6_ansL.png,within,NA,NaN,NA,left,4014,1,1,935.5
YQcPt3B9,NA,NA,YQcPt3B9,2020-0188,2021-09-23,17:20:30,18:27:36,NA,incomplete,false,NA,true,1,23,NA,right,E22_Q6_ansL.png,E22_Q5_ansL.png,within,NA,NaN,NA,left,2264.7000000029802,0,1,1238.1000000089407
YQcPt3B9,NA,NA,YQcPt3B9,2020-0188,2021-09-23,17:20:30,18:27:36,NA,incomplete,false,NA,true,1,24,NA,left,E22_Q6_ansL.png,E16_Q9_ansL.png,between,NA,NaN,NA,left,4136,1,2,1098.7000000029802
YQcPt3B9,NA,NA,YQcPt3B9,2020-0188,2021-09-23,17:20:30,18:27:36,NA,incomplete,false,NA,true,1,25,NA,left,E22_Q1_ansR.png,E16_Q3_ansL.png,between,NA,NaN,NA,left,6608.5,1,2,2165.6000000089407
YQcPt3B9,NA,NA,YQcPt3B9,2020-0188,2021-09-23,17:20:30,18:27:36,NA,incomplete,false,NA,true,1,26,NA,right,E22_Q3_ansL.png,E21_Q1_ansL.png,between,NA,NaN,NA,right,2511.5,1,2,1912
YQcPt3B9,NA,NA,YQcPt3B9,2020-0188,2021-09-23,17:20:30,18:27:36,NA,incomplete,false,true,NA,2,0,E1_Q10_ansR.png,right,NA,NA,NA,right,1873,true,NA,NA,NA,NA,NA
YQcPt3B9,NA,NA,YQcPt3B9,2020-0188,2021-09-23,17:20:30,18:27:36,NA,incomplete,false,true,NA,2,1,E1_Q3_ansR.png,right,NA,NA,NA,right,1331.29999999702,true,NA,NA,NA,NA,NA
YQcPt3B9,NA,NA,YQcPt3B9,2020-0188,2021-09-23,17:20:30,18:27:36,NA,incomplete,false,true,NA,2,2,E1_Q6_ansR.png,right,NA,NA,NA,right,1712.09999999404,true,NA,NA,NA,NA,NA
YQcPt3B9,NA,NA,YQcPt3B9,2020-0188,2021-09-23,17:20:30,18:27:36,NA,incomplete,false,true,NA,2,3,E1_Q4_ansL.png,left,NA,NA,NA,left,1819.70000000298,true,NA,NA,NA,NA,NA
YQcPt3B9,NA,NA,YQcPt3B9,2020-0188,2021-09-23,17:20:30,18:27:36,NA,incomplete,false,true,NA,2,4,E1_Q9_ansL.png,left,NA,NA,NA,left,1453.60000000894,true,NA,NA,NA,NA,NA
YQcPt3B9,NA,NA,YQcPt3B9,2020-0188,2021-09-23,17:20:30,18:27:36,NA,incomplete,false,true,NA,2,5,E1_Q5_ansR.png,right,NA,NA,NA,right,1384.09999999404,true,NA,NA,NA,NA,NA
YQcPt3B9,NA,NA,YQcPt3B9,2020-0188,2021-09-23,17:20:30,18:27:36,NA,incomplete,false,true,NA,2,6,E1_Q1_ansL.png,left,NA,NA,NA,left,2188.40000000596,true,NA,NA,NA,NA,NA
YQcPt3B9,NA,NA,YQcPt3B9,2020-0188,2021-09-23,17:20:30,18:27:36,NA,incomplete,false,true,NA,2,7,E1_Q7_ansL.png,left,NA,NA,NA,left,1686.09999999404,true,NA,NA,NA,NA,NA
YQcPt3B9,NA,NA,YQcPt3B9,2020-0188,2021-09-23,17:20:30,18:27:36,NA,incomplete,false,true,NA,2,8,E1_Q2_ansL.png,left,NA,NA,NA,left,1684.09999999404,true,NA,NA,NA,NA,NA
YQcPt3B9,NA,NA,YQcPt3B9,2020-0188,2021-09-23,17:20:30,18:27:36,NA,incomplete,false,true,NA,2,9,E1_Q8_ansR.png,right,NA,NA,NA,right,1301.39999999106,true,NA,NA,NA,NA,NA
YQcPt3B9,NA,NA,YQcPt3B9,2020-0188,2021-09-23,17:20:30,18:27:36,NA,incomplete,false,true,NA,2,10,E28_Q3_ansL.png,left,NA,NA,NA,left,1654,true,NA,NA,NA,NA,NA
YQcPt3B9,NA,NA,YQcPt3B9,2020-0188,2021-09-23,17:20:30,18:27:36,NA,incomplete,false,true,NA,2,11,E28_Q4_ansL.png,left,NA,NA,NA,left,1197.90000000596,true,NA,NA,NA,NA,NA
YQcPt3B9,NA,NA,YQcPt3B9,2020-0188,2021-09-23,17:20:30,18:27:36,NA,incomplete,false,true,NA,2,12,E28_Q7_ansR.png,right,NA,NA,NA,right,1261.70000000298,true,NA,NA,NA,NA,NA
YQcPt3B9,NA,NA,YQcPt3B9,2020-0188,2021-09-23,17:20:30,18:27:36,NA,incomplete,false,true,NA,2,13,E28_Q10_ansR.png,right,NA,NA,NA,right,985.29999999702,true,NA,NA,NA,NA,NA
YQcPt3B9,NA,NA,YQcPt3B9,2020-0188,2021-09-23,17:20:30,18:27:36,NA,incomplete,false,true,NA,2,14,E28_Q8_ansR.png,right,NA,NA,NA,right,1284.19999998808,true,NA,NA,NA,NA,NA
YQcPt3B9,NA,NA,YQcPt3B9,2020-0188,2021-09-23,17:20:30,18:27:36,NA,incomplete,false,true,NA,2,15,E28_Q2_ansR.png,right,NA,NA,NA,right,1556.70000000298,true,NA,NA,NA,NA,NA
YQcPt3B9,NA,NA,YQcPt3B9,2020-0188,2021-09-23,17:20:30,18:27:36,NA,incomplete,false,true,NA,2,16,E28_Q5_ansL.png,left,NA,NA,NA,left,1808.10000000894,true,NA,NA,NA,NA,NA
YQcPt3B9,NA,NA,YQcPt3B9,2020-0188,2021-09-23,17:20:30,18:27:36,NA,incomplete,false,true,NA,2,17,E28_Q6_ansL.png,left,NA,NA,NA,left,1740.29999999702,true,NA,NA,NA,NA,NA
YQcPt3B9,NA,NA,YQcPt3B9,2020-0188,2021-09-23,17:20:30,18:27:36,NA,incomplete,false,true,NA,2,18,E28_Q1_ansR.png,right,NA,NA,NA,right,1669.60000000894,true,NA,NA,NA,NA,NA
YQcPt3B9,NA,NA,YQcPt3B9,2020-0188,2021-09-23,17:20:30,18:27:36,NA,incomplete,false,true,NA,2,19,E28_Q9_ansL.png,left,NA,NA,NA,right,1333.5,false,NA,NA,NA,NA,NA
YQcPt3B9,NA,NA,YQcPt3B9,2020-0188,2021-09-23,17:20:30,18:27:36,NA,incomplete,false,true,NA,2,20,E32_Q8_ansL.png,left,NA,NA,NA,left,2238.79999999702,true,NA,NA,NA,NA,NA
YQcPt3B9,NA,NA,YQcPt3B9,2020-0188,2021-09-23,17:20:30,18:27:36,NA,incomplete,false,true,NA,2,21,E32_Q9_ansR.png,right,NA,NA,NA,right,1903.40000000596,true,NA,NA,NA,NA,NA
YQcPt3B9,NA,NA,YQcPt3B9,2020-0188,2021-09-23,17:20:30,18:27:36,NA,incomplete,false,true,NA,2,22,E32_Q1_ansL.png,left,NA,NA,NA,left,2108.59999999404,true,NA,NA,NA,NA,NA
YQcPt3B9,NA,NA,YQcPt3B9,2020-0188,2021-09-23,17:20:30,18:27:36,NA,incomplete,false,true,NA,2,23,E32_Q3_ansR.png,right,NA,NA,NA,right,2479.5,true,NA,NA,NA,NA,NA
YQcPt3B9,NA,NA,YQcPt3B9,2020-0188,2021-09-23,17:20:30,18:27:36,NA,incomplete,false,true,NA,2,24,E32_Q5_ansR.png,right,NA,NA,NA,right,2821.09999999404,true,NA,NA,NA,NA,NA
YQcPt3B9,NA,NA,YQcPt3B9,2020-0188,2021-09-23,17:20:30,18:27:36,NA,incomplete,false,true,NA,2,25,E32_Q10_ansL.png,left,NA,NA,NA,left,1532.5,true,NA,NA,NA,NA,NA
YQcPt3B9,NA,NA,YQcPt3B9,2020-0188,2021-09-23,17:20:30,18:27:36,NA,incomplete,false,true,NA,2,26,E32_Q2_ansL.png,left,NA,NA,NA,left,1358.5,true,NA,NA,NA,NA,NA
YQcPt3B9,NA,NA,YQcPt3B9,2020-0188,2021-09-23,17:20:30,18:27:36,NA,incomplete,false,true,NA,2,27,E32_Q6_ansR.png,right,NA,NA,NA,right,1688.90000000596,true,NA,NA,NA,NA,NA
YQcPt3B9,NA,NA,YQcPt3B9,2020-0188,2021-09-23,17:20:30,18:27:36,NA,incomplete,false,true,NA,2,28,E32_Q7_ansL.png,left,NA,NA,NA,left,1904.29999999702,true,NA,NA,NA,NA,NA
YQcPt3B9,NA,NA,YQcPt3B9,2020-0188,2021-09-23,17:20:30,18:27:36,NA,incomplete,false,true,NA,2,29,E32_Q4_ansR.png,right,NA,NA,NA,right,2150.20000000298,true,NA,NA,NA,NA,NA
YQcPt3B9,NA,NA,YQcPt3B9,2020-0188,2021-09-23,17:20:30,18:27:36,NA,incomplete,false,NA,true,2,0,NA,right,E32_Q8_ansL.png,E28_Q6_ansL.png,between,NA,NaN,NA,right,2375.300000011921,1,2,1500.7999999970198
YQcPt3B9,NA,NA,YQcPt3B9,2020-0188,2021-09-23,17:20:30,18:27:36,NA,incomplete,false,NA,true,2,1,NA,right,E28_Q3_ansL.png,E1_Q7_ansL.png,between,NA,NaN,NA,right,2772.5999999940395,1,2,1383.7999999970198
YQcPt3B9,NA,NA,YQcPt3B9,2020-0188,2021-09-23,17:20:30,18:27:36,NA,incomplete,false,NA,true,2,2,NA,right,E1_Q4_ansL.png,E1_Q10_ansR.png,within,NA,NaN,NA,left,8376.699999988079,0,1,1238
YQcPt3B9,NA,NA,YQcPt3B9,2020-0188,2021-09-23,17:20:30,18:27:36,NA,incomplete,false,NA,true,2,3,NA,right,E28_Q5_ansL.png,E28_Q10_ansR.png,within,NA,NaN,NA,right,3999.8999999910593,1,1,1978.7999999970198
YQcPt3B9,NA,NA,YQcPt3B9,2020-0188,2021-09-23,17:20:30,18:27:36,NA,incomplete,false,NA,true,2,4,NA,left,E1_Q6_ansR.png,E1_Q5_ansR.png,within,NA,NaN,NA,left,6316,1,1,1320.0999999940395
YQcPt3B9,NA,NA,YQcPt3B9,2020-0188,2021-09-23,17:20:30,18:27:36,NA,incomplete,false,NA,true,2,5,NA,left,E1_Q4_ansL.png,E1_Q1_ansL.png,within,NA,NaN,NA,right,4246,0,1,1430.5
YQcPt3B9,NA,NA,YQcPt3B9,2020-0188,2021-09-23,17:20:30,18:27:36,NA,incomplete,false,NA,true,2,6,NA,right,E32_Q1_ansL.png,E28_Q9_ansL.png,between,NA,NaN,NA,right,2609.7000000029802,1,2,1035.3999999910593
YQcPt3B9,NA,NA,YQcPt3B9,2020-0188,2021-09-23,17:20:30,18:27:36,NA,incomplete,false,NA,true,2,7,NA,left,E28_Q4_ansL.png,E28_Q8_ansR.png,within,NA,NaN,NA,left,3077.699999988079,1,0,1008.5
YQcPt3B9,NA,NA,YQcPt3B9,2020-0188,2021-09-23,17:20:30,18:27:36,NA,incomplete,false,NA,true,2,8,NA,left,E28_Q3_ansL.png,E28_Q10_ansR.png,within,NA,NaN,NA,left,4417.5,1,0,1837.3999999910593
YQcPt3B9,NA,NA,YQcPt3B9,2020-0188,2021-09-23,17:20:30,18:27:36,NA,incomplete,false,NA,true,2,9,NA,right,E28_Q6_ansL.png,E28_Q8_ansR.png,within,NA,NaN,NA,right,2665.0999999940395,1,1,1582.8999999910593
YQcPt3B9,NA,NA,YQcPt3B9,2020-0188,2021-09-23,17:20:30,18:27:36,NA,incomplete,false,NA,true,2,10,NA,right,E32_Q4_ansR.png,E32_Q2_ansL.png,within,NA,NaN,NA,right,3374.2000000029802,1,1,1271
YQcPt3B9,NA,NA,YQcPt3B9,2020-0188,2021-09-23,17:20:30,18:27:36,NA,incomplete,false,NA,true,2,11,NA,right,E32_Q6_ansR.png,E32_Q5_ansR.png,within,NA,NaN,NA,left,3973.1000000089407,0,0,1271.1000000089407
YQcPt3B9,NA,NA,YQcPt3B9,2020-0188,2021-09-23,17:20:30,18:27:36,NA,incomplete,false,NA,true,2,12,NA,left,E1_Q9_ansL.png,E1_Q7_ansL.png,within,NA,NaN,NA,right,3235.2000000029802,0,1,5443.399999991059
YQcPt3B9,NA,NA,YQcPt3B9,2020-0188,2021-09-23,17:20:30,18:27:36,NA,incomplete,false,NA,true,2,13,NA,right,E28_Q4_ansL.png,E1_Q2_ansL.png,between,NA,NaN,NA,right,2288.7000000029802,1,2,1550.7999999970198
YQcPt3B9,NA,NA,YQcPt3B9,2020-0188,2021-09-23,17:20:30,18:27:36,NA,incomplete,false,NA,true,2,14,NA,left,E32_Q1_ansL.png,E32_Q10_ansL.png,within,NA,NaN,NA,left,5834.79999999702,1,1,1361.5
YQcPt3B9,NA,NA,YQcPt3B9,2020-0188,2021-09-23,17:20:30,18:27:36,NA,incomplete,false,NA,true,2,15,NA,left,E28_Q7_ansR.png,E28_Q2_ansR.png,within,NA,NaN,NA,left,2314.199999988079,1,1,1165.2999999970198
YQcPt3B9,NA,NA,YQcPt3B9,2020-0188,2021-09-23,17:20:30,18:27:36,NA,incomplete,false,NA,true,2,16,NA,left,E32_Q3_ansR.png,E32_Q2_ansL.png,within,NA,NaN,NA,right,3390.5,0,1,999.2999999970198
YQcPt3B9,NA,NA,YQcPt3B9,2020-0188,2021-09-23,17:20:30,18:27:36,NA,incomplete,false,NA,true,2,17,NA,right,E1_Q9_ansL.png,E1_Q3_ansR.png,within,NA,NaN,NA,right,2464.6000000089407,1,1,1321.199999988079
YQcPt3B9,NA,NA,YQcPt3B9,2020-0188,2021-09-23,17:20:30,18:27:36,NA,incomplete,false,NA,true,2,18,NA,right,E28_Q7_ansR.png,E1_Q8_ansR.png,between,NA,NaN,NA,right,2906.699999988079,1,2,3086.4000000059605
YQcPt3B9,NA,NA,YQcPt3B9,2020-0188,2021-09-23,17:20:30,18:27:36,NA,incomplete,false,NA,true,2,19,NA,left,E32_Q9_ansR.png,E32_Q5_ansR.png,within,NA,NaN,NA,right,8578.09999999404,0,1,1723
YQcPt3B9,NA,NA,YQcPt3B9,2020-0188,2021-09-23,17:20:30,18:27:36,NA,incomplete,false,NA,true,2,20,NA,left,E32_Q8_ansL.png,E32_Q3_ansR.png,within,NA,NaN,NA,left,1796.8999999910593,1,1,1066
YQcPt3B9,NA,NA,YQcPt3B9,2020-0188,2021-09-23,17:20:30,18:27:36,NA,incomplete,false,NA,true,2,21,NA,left,E32_Q10_ansL.png,E32_Q7_ansL.png,within,NA,NaN,NA,right,1936.2000000029802,0,1,1150.800000011921
YQcPt3B9,NA,NA,YQcPt3B9,2020-0188,2021-09-23,17:20:30,18:27:36,NA,incomplete,false,NA,true,2,22,NA,left,E28_Q5_ansL.png,E28_Q9_ansL.png,within,NA,NaN,NA,left,4301.79999999702,1,1,1233.7000000029802
YQcPt3B9,NA,NA,YQcPt3B9,2020-0188,2021-09-23,17:20:30,18:27:36,NA,incomplete,false,NA,true,2,23,NA,left,E1_Q1_ansL.png,E1_Q8_ansR.png,within,NA,NaN,NA,left,5205.600000008941,1,1,2765.5
YQcPt3B9,NA,NA,YQcPt3B9,2020-0188,2021-09-23,17:20:30,18:27:36,NA,incomplete,false,NA,true,2,24,NA,left,E28_Q1_ansR.png,E32_Q9_ansR.png,between,NA,NaN,NA,right,10040.79999999702,0,2,4680.20000000298
YQcPt3B9,NA,NA,YQcPt3B9,2020-0188,2021-09-23,17:20:30,18:27:36,NA,incomplete,false,NA,true,2,25,NA,right,E1_Q2_ansL.png,E1_Q5_ansR.png,within,NA,NaN,NA,right,2494.2000000029802,1,1,1196.7000000029802
YQcPt3B9,NA,NA,YQcPt3B9,2020-0188,2021-09-23,17:20:30,18:27:36,NA,incomplete,false,NA,true,2,26,NA,right,E28_Q1_ansR.png,E28_Q2_ansR.png,within,NA,NaN,NA,left,2674.9000000059605,0,1,1105.300000011921
YQcPt3B9,NA,NA,YQcPt3B9,2020-0188,2021-09-23,17:20:30,18:27:36,NA,incomplete,false,true,NA,3,0,E8_Q7_ansR.png,right,NA,NA,NA,right,1807,true,NA,NA,NA,NA,NA
YQcPt3B9,NA,NA,YQcPt3B9,2020-0188,2021-09-23,17:20:30,18:27:36,NA,incomplete,false,true,NA,3,1,E8_Q5_ansL.png,left,NA,NA,NA,right,1473.70000000298,false,NA,NA,NA,NA,NA
YQcPt3B9,NA,NA,YQcPt3B9,2020-0188,2021-09-23,17:20:30,18:27:36,NA,incomplete,false,true,NA,3,2,E8_Q4_ansL.png,left,NA,NA,NA,left,1384.5,true,NA,NA,NA,NA,NA
YQcPt3B9,NA,NA,YQcPt3B9,2020-0188,2021-09-23,17:20:30,18:27:36,NA,incomplete,false,true,NA,3,3,E8_Q9_ansL.png,left,NA,NA,NA,left,1057.40000000596,true,NA,NA,NA,NA,NA
YQcPt3B9,NA,NA,YQcPt3B9,2020-0188,2021-09-23,17:20:30,18:27:36,NA,incomplete,false,true,NA,3,4,E8_Q1_ansR.png,right,NA,NA,NA,right,1478.70000000298,true,NA,NA,NA,NA,NA
YQcPt3B9,NA,NA,YQcPt3B9,2020-0188,2021-09-23,17:20:30,18:27:36,NA,incomplete,false,true,NA,3,5,E8_Q2_ansR.png,right,NA,NA,NA,right,1696.60000000894,true,NA,NA,NA,NA,NA
YQcPt3B9,NA,NA,YQcPt3B9,2020-0188,2021-09-23,17:20:30,18:27:36,NA,incomplete,false,true,NA,3,6,E8_Q10_ansR.png,right,NA,NA,NA,right,1254.60000000894,true,NA,NA,NA,NA,NA
YQcPt3B9,NA,NA,YQcPt3B9,2020-0188,2021-09-23,17:20:30,18:27:36,NA,incomplete,false,true,NA,3,7,E8_Q3_ansL.png,left,NA,NA,NA,left,1979.70000000298,true,NA,NA,NA,NA,NA
YQcPt3B9,NA,NA,YQcPt3B9,2020-0188,2021-09-23,17:20:30,18:27:36,NA,incomplete,false,true,NA,3,8,E8_Q8_ansR.png,right,NA,NA,NA,right,1237.80000001192,true,NA,NA,NA,NA,NA
YQcPt3B9,NA,NA,YQcPt3B9,2020-0188,2021-09-23,17:20:30,18:27:36,NA,incomplete,false,true,NA,3,9,E8_Q6_ansL.png,left,NA,NA,NA,left,1353.20000000298,true,NA,NA,NA,NA,NA
YQcPt3B9,NA,NA,YQcPt3B9,2020-0188,2021-09-23,17:20:30,18:27:36,NA,incomplete,false,true,NA,3,10,E2_Q10_ansL.png,left,NA,NA,NA,left,1991.79999999702,true,NA,NA,NA,NA,NA
YQcPt3B9,NA,NA,YQcPt3B9,2020-0188,2021-09-23,17:20:30,18:27:36,NA,incomplete,false,true,NA,3,11,E2_Q5_ansL.png,left,NA,NA,NA,left,1972.60000000894,true,NA,NA,NA,NA,NA
YQcPt3B9,NA,NA,YQcPt3B9,2020-0188,2021-09-23,17:20:30,18:27:36,NA,incomplete,false,true,NA,3,12,E2_Q2_ansR.png,right,NA,NA,NA,right,1638.80000001192,true,NA,NA,NA,NA,NA
YQcPt3B9,NA,NA,YQcPt3B9,2020-0188,2021-09-23,17:20:30,18:27:36,NA,incomplete,false,true,NA,3,13,E2_Q1_ansL.png,left,NA,NA,NA,left,1400.79999999702,true,NA,NA,NA,NA,NA
YQcPt3B9,NA,NA,YQcPt3B9,2020-0188,2021-09-23,17:20:30,18:27:36,NA,incomplete,false,true,NA,3,14,E2_Q9_ansL.png,left,NA,NA,NA,left,3142.20000000298,true,NA,NA,NA,NA,NA
YQcPt3B9,NA,NA,YQcPt3B9,2020-0188,2021-09-23,17:20:30,18:27:36,NA,incomplete,false,true,NA,3,15,E2_Q3_ansR.png,right,NA,NA,NA,right,1300.5,true,NA,NA,NA,NA,NA
YQcPt3B9,NA,NA,YQcPt3B9,2020-0188,2021-09-23,17:20:30,18:27:36,NA,incomplete,false,true,NA,3,16,E2_Q4_ansL.png,left,NA,NA,NA,left,1256.59999999404,true,NA,NA,NA,NA,NA
YQcPt3B9,NA,NA,YQcPt3B9,2020-0188,2021-09-23,17:20:30,18:27:36,NA,incomplete,false,true,NA,3,17,E2_Q6_ansL.png,left,NA,NA,NA,left,1420.60000000894,true,NA,NA,NA,NA,NA
YQcPt3B9,NA,NA,YQcPt3B9,2020-0188,2021-09-23,17:20:30,18:27:36,NA,incomplete,false,true,NA,3,18,E2_Q7_ansR.png,right,NA,NA,NA,right,2345.90000000596,true,NA,NA,NA,NA,NA
YQcPt3B9,NA,NA,YQcPt3B9,2020-0188,2021-09-23,17:20:30,18:27:36,NA,incomplete,false,true,NA,3,19,E2_Q8_ansR.png,right,NA,NA,NA,right,2171.90000000596,true,NA,NA,NA,NA,NA
YQcPt3B9,NA,NA,YQcPt3B9,2020-0188,2021-09-23,17:20:30,18:27:36,NA,incomplete,false,true,NA,3,20,E19_Q1_ansL.png,left,NA,NA,NA,left,2283.5,true,NA,NA,NA,NA,NA
YQcPt3B9,NA,NA,YQcPt3B9,2020-0188,2021-09-23,17:20:30,18:27:36,NA,incomplete,false,true,NA,3,21,E19_Q5_ansR.png,right,NA,NA,NA,right,1252.29999999702,true,NA,NA,NA,NA,NA
YQcPt3B9,NA,NA,YQcPt3B9,2020-0188,2021-09-23,17:20:30,18:27:36,NA,incomplete,false,true,NA,3,22,E19_Q3_ansR.png,right,NA,NA,NA,right,3417.19999998808,true,NA,NA,NA,NA,NA
YQcPt3B9,NA,NA,YQcPt3B9,2020-0188,2021-09-23,17:20:30,18:27:36,NA,incomplete,false,true,NA,3,23,E19_Q7_ansL.png,left,NA,NA,NA,left,1420.20000000298,true,NA,NA,NA,NA,NA
YQcPt3B9,NA,NA,YQcPt3B9,2020-0188,2021-09-23,17:20:30,18:27:36,NA,incomplete,false,true,NA,3,24,E19_Q10_ansL.png,left,NA,NA,NA,left,1268,true,NA,NA,NA,NA,NA
YQcPt3B9,NA,NA,YQcPt3B9,2020-0188,2021-09-23,17:20:30,18:27:36,NA,incomplete,false,true,NA,3,25,E19_Q4_ansR.png,right,NA,NA,NA,right,1318.60000000894,true,NA,NA,NA,NA,NA
YQcPt3B9,NA,NA,YQcPt3B9,2020-0188,2021-09-23,17:20:30,18:27:36,NA,incomplete,false,true,NA,3,26,E19_Q2_ansL.png,left,NA,NA,NA,left,1358.09999999404,true,NA,NA,NA,NA,NA
YQcPt3B9,NA,NA,YQcPt3B9,2020-0188,2021-09-23,17:20:30,18:27:36,NA,incomplete,false,true,NA,3,27,E19_Q8_ansL.png,left,NA,NA,NA,left,2088.59999999404,true,NA,NA,NA,NA,NA
YQcPt3B9,NA,NA,YQcPt3B9,2020-0188,2021-09-23,17:20:30,18:27:36,NA,incomplete,false,true,NA,3,28,E19_Q6_ansR.png,right,NA,NA,NA,right,1839.70000000298,true,NA,NA,NA,NA,NA
YQcPt3B9,NA,NA,YQcPt3B9,2020-0188,2021-09-23,17:20:30,18:27:36,NA,incomplete,false,true,NA,3,29,E19_Q9_ansR.png,right,NA,NA,NA,right,1338,true,NA,NA,NA,NA,NA
YQcPt3B9,NA,NA,YQcPt3B9,2020-0188,2021-09-23,17:20:30,18:27:36,NA,incomplete,false,NA,true,3,0,NA,right,E2_Q6_ansL.png,E2_Q9_ansL.png,within,NA,NaN,NA,right,2661.5,1,1,1493.4000000059605
YQcPt3B9,NA,NA,YQcPt3B9,2020-0188,2021-09-23,17:20:30,18:27:36,NA,incomplete,false,NA,true,3,1,NA,left,E19_Q1_ansL.png,E19_Q7_ansL.png,within,NA,NaN,NA,left,2789.300000011921,1,1,1499.699999988079
YQcPt3B9,NA,NA,YQcPt3B9,2020-0188,2021-09-23,17:20:30,18:27:36,NA,incomplete,false,NA,true,3,2,NA,right,E8_Q6_ansL.png,E8_Q10_ansR.png,within,NA,NaN,NA,left,1951.2000000029802,0,1,1101.5
YQcPt3B9,NA,NA,YQcPt3B9,2020-0188,2021-09-23,17:20:30,18:27:36,NA,incomplete,false,NA,true,3,3,NA,right,E19_Q10_ansL.png,E19_Q5_ansR.png,within,NA,NaN,NA,right,4694.29999999702,1,1,1474.699999988079
YQcPt3B9,NA,NA,YQcPt3B9,2020-0188,2021-09-23,17:20:30,18:27:36,NA,incomplete,false,NA,true,3,4,NA,right,E2_Q3_ansR.png,E2_Q2_ansR.png,within,NA,NaN,NA,left,2550.6000000089407,0,1,1124.2000000029802
YQcPt3B9,NA,NA,YQcPt3B9,2020-0188,2021-09-23,17:20:30,18:27:36,NA,incomplete,false,NA,true,3,5,NA,right,E2_Q8_ansR.png,E2_Q4_ansL.png,within,NA,NaN,NA,right,5648.5,1,1,1115.0999999940395
YQcPt3B9,NA,NA,YQcPt3B9,2020-0188,2021-09-23,17:20:30,18:27:36,NA,incomplete,false,NA,true,3,6,NA,right,E8_Q8_ansR.png,E8_Q2_ansR.png,within,NA,NaN,NA,right,2892.7000000029802,1,1,1621.9000000059605
YQcPt3B9,NA,NA,YQcPt3B9,2020-0188,2021-09-23,17:20:30,18:27:36,NA,incomplete,false,NA,true,3,7,NA,left,E2_Q6_ansL.png,E19_Q1_ansL.png,between,NA,NaN,NA,left,3571.4000000059605,1,2,1706.9000000059605
YQcPt3B9,NA,NA,YQcPt3B9,2020-0188,2021-09-23,17:20:30,18:27:36,NA,incomplete,false,NA,true,3,8,NA,right,E2_Q1_ansL.png,E2_Q10_ansL.png,within,NA,NaN,NA,right,3232.8999999910593,1,0,1698.3999999910593
YQcPt3B9,NA,NA,YQcPt3B9,2020-0188,2021-09-23,17:20:30,18:27:36,NA,incomplete,false,NA,true,3,9,NA,right,E2_Q7_ansR.png,E2_Q3_ansR.png,within,NA,NaN,NA,right,2241.4000000059605,1,1,1362.0999999940395
YQcPt3B9,NA,NA,YQcPt3B9,2020-0188,2021-09-23,17:20:30,18:27:36,NA,incomplete,false,NA,true,3,10,NA,right,E2_Q5_ansL.png,E8_Q8_ansR.png,between,NA,NaN,NA,right,3727.2999999970198,1,2,1402.7999999970198
YQcPt3B9,NA,NA,YQcPt3B9,2020-0188,2021-09-23,17:20:30,18:27:36,NA,incomplete,false,NA,true,3,11,NA,right,E19_Q6_ansR.png,E19_Q4_ansR.png,within,NA,NaN,NA,right,5408.29999999702,1,1,1649.4000000059605
YQcPt3B9,NA,NA,YQcPt3B9,2020-0188,2021-09-23,17:20:30,18:27:36,NA,incomplete,false,NA,true,3,12,NA,right,E8_Q3_ansL.png,E8_Q1_ansR.png,within,NA,NaN,NA,left,3382,0,1,901.3999999910593
YQcPt3B9,NA,NA,YQcPt3B9,2020-0188,2021-09-23,17:20:30,18:27:36,NA,incomplete,false,NA,true,3,13,NA,left,E19_Q7_ansL.png,E19_Q2_ansL.png,within,NA,NaN,NA,left,4664.399999991059,1,0,2700.9000000059605
YQcPt3B9,NA,NA,YQcPt3B9,2020-0188,2021-09-23,17:20:30,18:27:36,NA,incomplete,false,NA,true,3,14,NA,left,E2_Q7_ansR.png,E19_Q5_ansR.png,between,NA,NaN,NA,left,4573.9000000059605,1,2,2552.699999988079
YQcPt3B9,NA,NA,YQcPt3B9,2020-0188,2021-09-23,17:20:30,18:27:36,NA,incomplete,false,NA,true,3,15,NA,right,E19_Q8_ansL.png,E19_Q10_ansL.png,within,NA,NaN,NA,right,2471.699999988079,1,1,2429
YQcPt3B9,NA,NA,YQcPt3B9,2020-0188,2021-09-23,17:20:30,18:27:36,NA,incomplete,false,NA,true,3,16,NA,left,E8_Q3_ansL.png,E2_Q10_ansL.png,between,NA,NaN,NA,left,5872.4000000059605,1,2,3234.7000000029802
YQcPt3B9,NA,NA,YQcPt3B9,2020-0188,2021-09-23,17:20:30,18:27:36,NA,incomplete,false,NA,true,3,17,NA,left,E8_Q9_ansL.png,E8_Q10_ansR.png,within,NA,NaN,NA,left,3497.2000000029802,1,1,1402.6000000089407
YQcPt3B9,NA,NA,YQcPt3B9,2020-0188,2021-09-23,17:20:30,18:27:36,NA,incomplete,false,NA,true,3,18,NA,left,E8_Q5_ansL.png,E8_Q1_ansR.png,within,NA,NaN,NA,left,1978.2000000029802,1,1,1438.9000000059605
YQcPt3B9,NA,NA,YQcPt3B9,2020-0188,2021-09-23,17:20:30,18:27:36,NA,incomplete,false,NA,true,3,19,NA,left,E8_Q4_ansL.png,E8_Q2_ansR.png,within,NA,NaN,NA,left,2027.0999999940395,1,1,1049
YQcPt3B9,NA,NA,YQcPt3B9,2020-0188,2021-09-23,17:20:30,18:27:36,NA,incomplete,false,NA,true,3,20,NA,right,E19_Q4_ansR.png,E19_Q3_ansR.png,within,NA,NaN,NA,right,3259.800000011921,1,1,950.3999999910593
YQcPt3B9,NA,NA,YQcPt3B9,2020-0188,2021-09-23,17:20:30,18:27:36,NA,incomplete,false,NA,true,3,21,NA,right,E2_Q4_ansL.png,E2_Q1_ansL.png,within,NA,NaN,NA,right,4556.29999999702,1,1,1543.0999999940395
YQcPt3B9,NA,NA,YQcPt3B9,2020-0188,2021-09-23,17:20:30,18:27:36,NA,incomplete,false,NA,true,3,22,NA,left,E2_Q5_ansL.png,E2_Q9_ansL.png,within,NA,NaN,NA,left,4952.5,1,1,1205.7000000029802
YQcPt3B9,NA,NA,YQcPt3B9,2020-0188,2021-09-23,17:20:30,18:27:36,NA,incomplete,false,NA,true,3,23,NA,right,E8_Q9_ansL.png,E8_Q7_ansR.png,within,NA,NaN,NA,right,2717.2000000029802,1,0,1181.5999999940395
YQcPt3B9,NA,NA,YQcPt3B9,2020-0188,2021-09-23,17:20:30,18:27:36,NA,incomplete,false,NA,true,3,24,NA,right,E2_Q2_ansR.png,E8_Q6_ansL.png,between,NA,NaN,NA,right,4344.5999999940395,1,2,1370.2999999970198
YQcPt3B9,NA,NA,YQcPt3B9,2020-0188,2021-09-23,17:20:30,18:27:36,NA,incomplete,false,NA,true,3,25,NA,left,E19_Q2_ansL.png,E19_Q9_ansR.png,within,NA,NaN,NA,left,2193.2000000029802,1,1,1082.1000000089407
YQcPt3B9,NA,NA,YQcPt3B9,2020-0188,2021-09-23,17:20:30,18:27:36,NA,incomplete,false,NA,true,3,26,NA,right,E19_Q3_ansR.png,E2_Q8_ansR.png,between,NA,NaN,NA,right,3062.4000000059605,1,2,893.1999999880791
YQcPt3B9,NA,NA,YQcPt3B9,2020-0188,2021-09-23,17:20:30,18:27:36,NA,incomplete,false,true,NA,4,0,E18_Q8_ansL.png,left,NA,NA,NA,left,2181.29999999702,true,NA,NA,NA,NA,NA
YQcPt3B9,NA,NA,YQcPt3B9,2020-0188,2021-09-23,17:20:30,18:27:36,NA,incomplete,false,true,NA,4,1,E18_Q4_ansR.png,right,NA,NA,NA,right,936,true,NA,NA,NA,NA,NA
YQcPt3B9,NA,NA,YQcPt3B9,2020-0188,2021-09-23,17:20:30,18:27:36,NA,incomplete,false,true,NA,4,2,E18_Q9_ansR.png,right,NA,NA,NA,right,1467.70000000298,true,NA,NA,NA,NA,NA
YQcPt3B9,NA,NA,YQcPt3B9,2020-0188,2021-09-23,17:20:30,18:27:36,NA,incomplete,false,true,NA,4,3,E18_Q5_ansR.png,right,NA,NA,NA,right,1200.59999999404,true,NA,NA,NA,NA,NA
YQcPt3B9,NA,NA,YQcPt3B9,2020-0188,2021-09-23,17:20:30,18:27:36,NA,incomplete,false,true,NA,4,4,E18_Q2_ansL.png,left,NA,NA,NA,left,1097.80000001192,true,NA,NA,NA,NA,NA
YQcPt3B9,NA,NA,YQcPt3B9,2020-0188,2021-09-23,17:20:30,18:27:36,NA,incomplete,false,true,NA,4,5,E18_Q10_ansL.png,left,NA,NA,NA,left,2059.70000000298,true,NA,NA,NA,NA,NA
YQcPt3B9,NA,NA,YQcPt3B9,2020-0188,2021-09-23,17:20:30,18:27:36,NA,incomplete,false,true,NA,4,6,E18_Q7_ansL.png,left,NA,NA,NA,left,1602.59999999404,true,NA,NA,NA,NA,NA
YQcPt3B9,NA,NA,YQcPt3B9,2020-0188,2021-09-23,17:20:30,18:27:36,NA,incomplete,false,true,NA,4,7,E18_Q1_ansL.png,left,NA,NA,NA,left,1316,true,NA,NA,NA,NA,NA
YQcPt3B9,NA,NA,YQcPt3B9,2020-0188,2021-09-23,17:20:30,18:27:36,NA,incomplete,false,true,NA,4,8,E18_Q3_ansR.png,right,NA,NA,NA,right,1667.79999999702,true,NA,NA,NA,NA,NA
YQcPt3B9,NA,NA,YQcPt3B9,2020-0188,2021-09-23,17:20:30,18:27:36,NA,incomplete,false,true,NA,4,9,E18_Q6_ansR.png,right,NA,NA,NA,right,1776.90000000596,true,NA,NA,NA,NA,NA
YQcPt3B9,NA,NA,YQcPt3B9,2020-0188,2021-09-23,17:20:30,18:27:36,NA,incomplete,false,true,NA,4,10,E23_Q1_ansL.png,left,NA,NA,NA,left,1512.5,true,NA,NA,NA,NA,NA
YQcPt3B9,NA,NA,YQcPt3B9,2020-0188,2021-09-23,17:20:30,18:27:36,NA,incomplete,false,true,NA,4,11,E23_Q5_ansR.png,right,NA,NA,NA,right,1023.59999999404,true,NA,NA,NA,NA,NA
YQcPt3B9,NA,NA,YQcPt3B9,2020-0188,2021-09-23,17:20:30,18:27:36,NA,incomplete,false,true,NA,4,12,E23_Q8_ansL.png,left,NA,NA,NA,left,2076.5,true,NA,NA,NA,NA,NA
YQcPt3B9,NA,NA,YQcPt3B9,2020-0188,2021-09-23,17:20:30,18:27:36,NA,incomplete,false,true,NA,4,13,E23_Q2_ansL.png,left,NA,NA,NA,left,2475.79999999702,true,NA,NA,NA,NA,NA
YQcPt3B9,NA,NA,YQcPt3B9,2020-0188,2021-09-23,17:20:30,18:27:36,NA,incomplete,false,true,NA,4,14,E23_Q3_ansR.png,right,NA,NA,NA,right,1571.79999999702,true,NA,NA,NA,NA,NA
YQcPt3B9,NA,NA,YQcPt3B9,2020-0188,2021-09-23,17:20:30,18:27:36,NA,incomplete,false,true,NA,4,15,E23_Q9_ansR.png,right,NA,NA,NA,right,1628.5,true,NA,NA,NA,NA,NA
YQcPt3B9,NA,NA,YQcPt3B9,2020-0188,2021-09-23,17:20:30,18:27:36,NA,incomplete,false,true,NA,4,16,E23_Q4_ansR.png,right,NA,NA,NA,right,1254.5,true,NA,NA,NA,NA,NA
YQcPt3B9,NA,NA,YQcPt3B9,2020-0188,2021-09-23,17:20:30,18:27:36,NA,incomplete,false,true,NA,4,17,E23_Q7_ansL.png,left,NA,NA,NA,left,1559.09999999404,true,NA,NA,NA,NA,NA
YQcPt3B9,NA,NA,YQcPt3B9,2020-0188,2021-09-23,17:20:30,18:27:36,NA,incomplete,false,true,NA,4,18,E23_Q10_ansL.png,left,NA,NA,NA,left,1557.79999999702,true,NA,NA,NA,NA,NA
YQcPt3B9,NA,NA,YQcPt3B9,2020-0188,2021-09-23,17:20:30,18:27:36,NA,incomplete,false,true,NA,4,19,E23_Q6_ansR.png,right,NA,NA,NA,right,1566.40000000596,true,NA,NA,NA,NA,NA
YQcPt3B9,NA,NA,YQcPt3B9,2020-0188,2021-09-23,17:20:30,18:27:36,NA,incomplete,false,true,NA,4,20,E13_Q2_ansL.png,left,NA,NA,NA,left,1767.20000000298,true,NA,NA,NA,NA,NA
YQcPt3B9,NA,NA,YQcPt3B9,2020-0188,2021-09-23,17:20:30,18:27:36,NA,incomplete,false,true,NA,4,21,E13_Q9_ansR.png,right,NA,NA,NA,right,1990.79999999702,true,NA,NA,NA,NA,NA
YQcPt3B9,NA,NA,YQcPt3B9,2020-0188,2021-09-23,17:20:30,18:27:36,NA,incomplete,false,true,NA,4,22,E13_Q5_ansR.png,right,NA,NA,NA,right,1780.79999999702,true,NA,NA,NA,NA,NA
YQcPt3B9,NA,NA,YQcPt3B9,2020-0188,2021-09-23,17:20:30,18:27:36,NA,incomplete,false,true,NA,4,23,E13_Q8_ansL.png,left,NA,NA,NA,left,1785.79999999702,true,NA,NA,NA,NA,NA
YQcPt3B9,NA,NA,YQcPt3B9,2020-0188,2021-09-23,17:20:30,18:27:36,NA,incomplete,false,true,NA,4,24,E13_Q3_ansR.png,right,NA,NA,NA,right,1632,true,NA,NA,NA,NA,NA
YQcPt3B9,NA,NA,YQcPt3B9,2020-0188,2021-09-23,17:20:30,18:27:36,NA,incomplete,false,true,NA,4,25,E13_Q6_ansR.png,right,NA,NA,NA,right,2430.5,true,NA,NA,NA,NA,NA
YQcPt3B9,NA,NA,YQcPt3B9,2020-0188,2021-09-23,17:20:30,18:27:36,NA,incomplete,false,true,NA,4,26,E13_Q10_ansL.png,left,NA,NA,NA,right,2135.40000000596,false,NA,NA,NA,NA,NA
YQcPt3B9,NA,NA,YQcPt3B9,2020-0188,2021-09-23,17:20:30,18:27:36,NA,incomplete,false,true,NA,4,27,E13_Q7_ansL.png,left,NA,NA,NA,left,2485.59999999404,true,NA,NA,NA,NA,NA
YQcPt3B9,NA,NA,YQcPt3B9,2020-0188,2021-09-23,17:20:30,18:27:36,NA,incomplete,false,true,NA,4,28,E13_Q1_ansL.png,left,NA,NA,NA,left,1939,true,NA,NA,NA,NA,NA
YQcPt3B9,NA,NA,YQcPt3B9,2020-0188,2021-09-23,17:20:30,18:27:36,NA,incomplete,false,true,NA,4,29,E13_Q4_ansR.png,right,NA,NA,NA,right,2322.70000000298,true,NA,NA,NA,NA,NA
YQcPt3B9,NA,NA,YQcPt3B9,2020-0188,2021-09-23,17:20:30,18:27:36,NA,incomplete,false,NA,true,4,0,NA,right,E23_Q1_ansL.png,E18_Q1_ansL.png,between,NA,NaN,NA,right,1633.5999999940395,1,2,1009.3999999910593
YQcPt3B9,NA,NA,YQcPt3B9,2020-0188,2021-09-23,17:20:30,18:27:36,NA,incomplete,false,NA,true,4,1,NA,right,E13_Q10_ansL.png,E13_Q8_ansL.png,within,NA,NaN,NA,right,1994.1000000089407,1,1,1303.0999999940395
YQcPt3B9,NA,NA,YQcPt3B9,2020-0188,2021-09-23,17:20:30,18:27:36,NA,incomplete,false,NA,true,4,2,NA,left,E18_Q7_ansL.png,E18_Q6_ansR.png,within,NA,NaN,NA,left,2816.5,1,1,1097.6000000089407
YQcPt3B9,NA,NA,YQcPt3B9,2020-0188,2021-09-23,17:20:30,18:27:36,NA,incomplete,false,NA,true,4,3,NA,right,E13_Q3_ansR.png,E13_Q9_ansR.png,within,NA,NaN,NA,right,1745.2999999970198,1,0,1127.5
YQcPt3B9,NA,NA,YQcPt3B9,2020-0188,2021-09-23,17:20:30,18:27:36,NA,incomplete,false,NA,true,4,4,NA,right,E18_Q1_ansL.png,E18_Q2_ansL.png,within,NA,NaN,NA,left,2068.8999999910593,0,1,1344.5999999940395
YQcPt3B9,NA,NA,YQcPt3B9,2020-0188,2021-09-23,17:20:30,18:27:36,NA,incomplete,false,NA,true,4,5,NA,left,E18_Q8_ansL.png,E18_Q5_ansR.png,within,NA,NaN,NA,left,1918.0999999940395,1,1,1123
YQcPt3B9,NA,NA,YQcPt3B9,2020-0188,2021-09-23,17:20:30,18:27:36,NA,incomplete,false,NA,true,4,6,NA,right,E13_Q1_ansL.png,E13_Q6_ansR.png,within,NA,NaN,NA,right,2477.6000000089407,1,0,1104.0999999940395
YQcPt3B9,NA,NA,YQcPt3B9,2020-0188,2021-09-23,17:20:30,18:27:36,NA,incomplete,false,NA,true,4,7,NA,left,E18_Q6_ansR.png,E23_Q8_ansL.png,between,NA,NaN,NA,left,4416.100000008941,1,2,1483.7000000029802
YQcPt3B9,NA,NA,YQcPt3B9,2020-0188,2021-09-23,17:20:30,18:27:36,NA,incomplete,false,NA,true,4,8,NA,left,E23_Q3_ansR.png,E23_Q7_ansL.png,within,NA,NaN,NA,left,4137.29999999702,1,1,1114.5999999940395
YQcPt3B9,NA,NA,YQcPt3B9,2020-0188,2021-09-23,17:20:30,18:27:36,NA,incomplete,false,NA,true,4,9,NA,left,E23_Q2_ansL.png,E23_Q4_ansR.png,within,NA,NaN,NA,left,4204.5,1,1,1370.5999999940395
YQcPt3B9,NA,NA,YQcPt3B9,2020-0188,2021-09-23,17:20:30,18:27:36,NA,incomplete,false,NA,true,4,10,NA,right,E13_Q2_ansL.png,E23_Q7_ansL.png,between,NA,NaN,NA,right,2303.9000000059605,1,2,869
YQcPt3B9,NA,NA,YQcPt3B9,2020-0188,2021-09-23,17:20:30,18:27:36,NA,incomplete,false,NA,true,4,11,NA,right,E13_Q5_ansR.png,E23_Q6_ansR.png,between,NA,NaN,NA,right,6537,1,2,1246.300000011921
YQcPt3B9,NA,NA,YQcPt3B9,2020-0188,2021-09-23,17:20:30,18:27:36,NA,incomplete,false,NA,true,4,12,NA,left,E13_Q10_ansL.png,E13_Q4_ansR.png,within,NA,NaN,NA,left,2676.1000000089407,1,1,1344.6000000089407
YQcPt3B9,NA,NA,YQcPt3B9,2020-0188,2021-09-23,17:20:30,18:27:36,NA,incomplete,false,NA,true,4,13,NA,left,E18_Q4_ansR.png,E18_Q2_ansL.png,within,NA,NaN,NA,left,1746.7999999970198,1,1,1025.199999988079
YQcPt3B9,NA,NA,YQcPt3B9,2020-0188,2021-09-23,17:20:30,18:27:36,NA,incomplete,false,NA,true,4,14,NA,right,E13_Q8_ansL.png,E13_Q2_ansL.png,within,NA,NaN,NA,right,1781.4000000059605,1,1,1024.5
YQcPt3B9,NA,NA,YQcPt3B9,2020-0188,2021-09-23,17:20:30,18:27:36,NA,incomplete,false,NA,true,4,15,NA,right,E18_Q3_ansR.png,E18_Q10_ansL.png,within,NA,NaN,NA,right,3259.4000000059605,1,1,1961.2000000029802
YQcPt3B9,NA,NA,YQcPt3B9,2020-0188,2021-09-23,17:20:30,18:27:36,NA,incomplete,false,NA,true,4,16,NA,right,E18_Q7_ansL.png,E18_Q5_ansR.png,within,NA,NaN,NA,right,3186.199999988079,1,1,1607.2000000029802
YQcPt3B9,NA,NA,YQcPt3B9,2020-0188,2021-09-23,17:20:30,18:27:36,NA,incomplete,false,NA,true,4,17,NA,right,E23_Q9_ansR.png,E23_Q8_ansL.png,within,NA,NaN,NA,left,2101,0,1,1065.8999999910593
YQcPt3B9,NA,NA,YQcPt3B9,2020-0188,2021-09-23,17:20:30,18:27:36,NA,incomplete,false,NA,true,4,18,NA,right,E23_Q10_ansL.png,E23_Q9_ansR.png,within,NA,NaN,NA,right,2318.2999999970198,1,1,1000.7000000029802
YQcPt3B9,NA,NA,YQcPt3B9,2020-0188,2021-09-23,17:20:30,18:27:36,NA,incomplete,false,NA,true,4,19,NA,right,E18_Q10_ansL.png,E18_Q9_ansR.png,within,NA,NaN,NA,right,3826.4000000059605,1,1,1036.2000000029802
YQcPt3B9,NA,NA,YQcPt3B9,2020-0188,2021-09-23,17:20:30,18:27:36,NA,incomplete,false,NA,true,4,20,NA,right,E23_Q3_ansR.png,E23_Q5_ansR.png,within,NA,NaN,NA,right,2649.9000000059605,1,1,1123.2000000029802
YQcPt3B9,NA,NA,YQcPt3B9,2020-0188,2021-09-23,17:20:30,18:27:36,NA,incomplete,false,NA,true,4,21,NA,right,E13_Q6_ansR.png,E13_Q5_ansR.png,within,NA,NaN,NA,right,2043.1000000089407,1,1,1517
YQcPt3B9,NA,NA,YQcPt3B9,2020-0188,2021-09-23,17:20:30,18:27:36,NA,incomplete,false,NA,true,4,22,NA,right,E13_Q7_ansL.png,E13_Q3_ansR.png,within,NA,NaN,NA,right,2658.300000011921,1,1,934.5999999940395
YQcPt3B9,NA,NA,YQcPt3B9,2020-0188,2021-09-23,17:20:30,18:27:36,NA,incomplete,false,NA,true,4,23,NA,right,E13_Q9_ansR.png,E23_Q10_ansL.png,between,NA,NaN,NA,right,2636.7999999970198,1,2,1574.9000000059605
YQcPt3B9,NA,NA,YQcPt3B9,2020-0188,2021-09-23,17:20:30,18:27:36,NA,incomplete,false,NA,true,4,24,NA,right,E23_Q6_ansR.png,E23_Q4_ansR.png,within,NA,NaN,NA,right,2429.2999999970198,1,1,1114.7999999970198
YQcPt3B9,NA,NA,YQcPt3B9,2020-0188,2021-09-23,17:20:30,18:27:36,NA,incomplete,false,NA,true,4,25,NA,right,E23_Q5_ansR.png,E18_Q3_ansR.png,between,NA,NaN,NA,right,2090.7000000029802,1,2,1551.0999999940395
YQcPt3B9,NA,NA,YQcPt3B9,2020-0188,2021-09-23,17:20:30,18:27:36,NA,incomplete,false,NA,true,4,26,NA,right,E23_Q2_ansL.png,E23_Q1_ansL.png,within,NA,NaN,NA,right,4636.899999991059,1,1,1024.5999999940395
YQcPt3B9,NA,NA,YQcPt3B9,2020-0188,2021-09-23,17:20:30,18:27:36,NA,incomplete,false,true,NA,5,0,E27_Q8_ansL.png,left,NA,NA,NA,left,1816.79999999702,true,NA,NA,NA,NA,NA
YQcPt3B9,NA,NA,YQcPt3B9,2020-0188,2021-09-23,17:20:30,18:27:36,NA,incomplete,false,true,NA,5,1,E27_Q3_ansR.png,right,NA,NA,NA,right,1188.20000000298,true,NA,NA,NA,NA,NA
YQcPt3B9,NA,NA,YQcPt3B9,2020-0188,2021-09-23,17:20:30,18:27:36,NA,incomplete,false,true,NA,5,2,E27_Q2_ansL.png,left,NA,NA,NA,left,2618,true,NA,NA,NA,NA,NA
YQcPt3B9,NA,NA,YQcPt3B9,2020-0188,2021-09-23,17:20:30,18:27:36,NA,incomplete,false,true,NA,5,3,E27_Q6_ansR.png,right,NA,NA,NA,right,1962,true,NA,NA,NA,NA,NA
YQcPt3B9,NA,NA,YQcPt3B9,2020-0188,2021-09-23,17:20:30,18:27:36,NA,incomplete,false,true,NA,5,4,E27_Q9_ansR.png,right,NA,NA,NA,right,2353.20000000298,true,NA,NA,NA,NA,NA
YQcPt3B9,NA,NA,YQcPt3B9,2020-0188,2021-09-23,17:20:30,18:27:36,NA,incomplete,false,true,NA,5,5,E27_Q7_ansL.png,left,NA,NA,NA,left,2700.40000000596,true,NA,NA,NA,NA,NA
YQcPt3B9,NA,NA,YQcPt3B9,2020-0188,2021-09-23,17:20:30,18:27:36,NA,incomplete,false,true,NA,5,6,E27_Q4_ansR.png,right,NA,NA,NA,right,2501.59999999404,true,NA,NA,NA,NA,NA
YQcPt3B9,NA,NA,YQcPt3B9,2020-0188,2021-09-23,17:20:30,18:27:36,NA,incomplete,false,true,NA,5,7,E27_Q10_ansL.png,left,NA,NA,NA,left,2127.79999999702,true,NA,NA,NA,NA,NA
YQcPt3B9,NA,NA,YQcPt3B9,2020-0188,2021-09-23,17:20:30,18:27:36,NA,incomplete,false,true,NA,5,8,E27_Q1_ansL.png,left,NA,NA,NA,left,1995.40000000596,true,NA,NA,NA,NA,NA
YQcPt3B9,NA,NA,YQcPt3B9,2020-0188,2021-09-23,17:20:30,18:27:36,NA,incomplete,false,true,NA,5,9,E27_Q5_ansR.png,right,NA,NA,NA,right,1617.39999999106,true,NA,NA,NA,NA,NA
YQcPt3B9,NA,NA,YQcPt3B9,2020-0188,2021-09-23,17:20:30,18:27:36,NA,incomplete,false,true,NA,5,10,E25_Q8_ansR.png,right,NA,NA,NA,right,2399.40000000596,true,NA,NA,NA,NA,NA
YQcPt3B9,NA,NA,YQcPt3B9,2020-0188,2021-09-23,17:20:30,18:27:36,NA,incomplete,false,true,NA,5,11,E25_Q1_ansR.png,right,NA,NA,NA,right,2465,true,NA,NA,NA,NA,NA
YQcPt3B9,NA,NA,YQcPt3B9,2020-0188,2021-09-23,17:20:30,18:27:36,NA,incomplete,false,true,NA,5,12,E25_Q5_ansL.png,left,NA,NA,NA,left,2604.20000000298,true,NA,NA,NA,NA,NA
YQcPt3B9,NA,NA,YQcPt3B9,2020-0188,2021-09-23,17:20:30,18:27:36,NA,incomplete,false,true,NA,5,13,E25_Q4_ansL.png,left,NA,NA,NA,left,2429.29999999702,true,NA,NA,NA,NA,NA
YQcPt3B9,NA,NA,YQcPt3B9,2020-0188,2021-09-23,17:20:30,18:27:36,NA,incomplete,false,true,NA,5,14,E25_Q9_ansL.png,left,NA,NA,NA,left,2284.79999999702,true,NA,NA,NA,NA,NA
YQcPt3B9,NA,NA,YQcPt3B9,2020-0188,2021-09-23,17:20:30,18:27:36,NA,incomplete,false,true,NA,5,15,E25_Q6_ansL.png,left,NA,NA,NA,left,2238.79999999702,true,NA,NA,NA,NA,NA
YQcPt3B9,NA,NA,YQcPt3B9,2020-0188,2021-09-23,17:20:30,18:27:36,NA,incomplete,false,true,NA,5,16,E25_Q3_ansL.png,left,NA,NA,NA,left,1688,true,NA,NA,NA,NA,NA
YQcPt3B9,NA,NA,YQcPt3B9,2020-0188,2021-09-23,17:20:30,18:27:36,NA,incomplete,false,true,NA,5,17,E25_Q10_ansR.png,right,NA,NA,NA,right,2489.70000000298,true,NA,NA,NA,NA,NA
YQcPt3B9,NA,NA,YQcPt3B9,2020-0188,2021-09-23,17:20:30,18:27:36,NA,incomplete,false,true,NA,5,18,E25_Q7_ansR.png,right,NA,NA,NA,right,1894.79999999702,true,NA,NA,NA,NA,NA
YQcPt3B9,NA,NA,YQcPt3B9,2020-0188,2021-09-23,17:20:30,18:27:36,NA,incomplete,false,true,NA,5,19,E25_Q2_ansR.png,right,NA,NA,NA,right,1662.70000000298,true,NA,NA,NA,NA,NA
YQcPt3B9,NA,NA,YQcPt3B9,2020-0188,2021-09-23,17:20:30,18:27:36,NA,incomplete,false,true,NA,5,20,E9_Q7_ansR.png,right,NA,NA,NA,right,2167.39999999106,true,NA,NA,NA,NA,NA
YQcPt3B9,NA,NA,YQcPt3B9,2020-0188,2021-09-23,17:20:30,18:27:36,NA,incomplete,false,true,NA,5,21,E9_Q1_ansR.png,right,NA,NA,NA,right,2022.39999999106,true,NA,NA,NA,NA,NA
YQcPt3B9,NA,NA,YQcPt3B9,2020-0188,2021-09-23,17:20:30,18:27:36,NA,incomplete,false,true,NA,5,22,E9_Q2_ansR.png,right,NA,NA,NA,right,1873.20000000298,true,NA,NA,NA,NA,NA
YQcPt3B9,NA,NA,YQcPt3B9,2020-0188,2021-09-23,17:20:30,18:27:36,NA,incomplete,false,true,NA,5,23,E9_Q10_ansR.png,right,NA,NA,NA,right,1657.80000001192,true,NA,NA,NA,NA,NA
YQcPt3B9,NA,NA,YQcPt3B9,2020-0188,2021-09-23,17:20:30,18:27:36,NA,incomplete,false,true,NA,5,24,E9_Q8_ansR.png,right,NA,NA,NA,right,1274.89999999106,true,NA,NA,NA,NA,NA
YQcPt3B9,NA,NA,YQcPt3B9,2020-0188,2021-09-23,17:20:30,18:27:36,NA,incomplete,false,true,NA,5,25,E9_Q9_ansL.png,left,NA,NA,NA,left,1452.60000000894,true,NA,NA,NA,NA,NA
YQcPt3B9,NA,NA,YQcPt3B9,2020-0188,2021-09-23,17:20:30,18:27:36,NA,incomplete,false,true,NA,5,26,E9_Q3_ansL.png,left,NA,NA,NA,left,1973.40000000596,true,NA,NA,NA,NA,NA
YQcPt3B9,NA,NA,YQcPt3B9,2020-0188,2021-09-23,17:20:30,18:27:36,NA,incomplete,false,true,NA,5,27,E9_Q5_ansL.png,left,NA,NA,NA,left,1821.89999999106,true,NA,NA,NA,NA,NA
YQcPt3B9,NA,NA,YQcPt3B9,2020-0188,2021-09-23,17:20:30,18:27:36,NA,incomplete,false,true,NA,5,28,E9_Q4_ansL.png,left,NA,NA,NA,left,2280.70000000298,true,NA,NA,NA,NA,NA
YQcPt3B9,NA,NA,YQcPt3B9,2020-0188,2021-09-23,17:20:30,18:27:36,NA,incomplete,false,true,NA,5,29,E9_Q6_ansL.png,left,NA,NA,NA,left,2332.69999998808,true,NA,NA,NA,NA,NA
YQcPt3B9,NA,NA,YQcPt3B9,2020-0188,2021-09-23,17:20:30,18:27:36,NA,incomplete,false,NA,true,5,0,NA,right,E27_Q1_ansL.png,E27_Q7_ansL.png,within,NA,NaN,NA,left,3242,0,1,1170.7000000029802
YQcPt3B9,NA,NA,YQcPt3B9,2020-0188,2021-09-23,17:20:30,18:27:36,NA,incomplete,false,NA,true,5,1,NA,right,E25_Q3_ansL.png,E25_Q4_ansL.png,within,NA,NaN,NA,right,2505.6000000089407,1,1,1147.2000000029802
YQcPt3B9,NA,NA,YQcPt3B9,2020-0188,2021-09-23,17:20:30,18:27:36,NA,incomplete,false,NA,true,5,2,NA,left,E25_Q5_ansL.png,E25_Q6_ansL.png,within,NA,NaN,NA,left,3965.300000011921,1,1,989.9000000059605
YQcPt3B9,NA,NA,YQcPt3B9,2020-0188,2021-09-23,17:20:30,18:27:36,NA,incomplete,false,NA,true,5,3,NA,right,E25_Q9_ansL.png,E25_Q1_ansR.png,within,NA,NaN,NA,right,2805.7999999970198,1,1,1170.5
YQcPt3B9,NA,NA,YQcPt3B9,2020-0188,2021-09-23,17:20:30,18:27:36,NA,incomplete,false,NA,true,5,4,NA,left,E9_Q9_ansL.png,E9_Q4_ansL.png,within,NA,NaN,NA,left,2288,1,1,1677.7999999970198
YQcPt3B9,NA,NA,YQcPt3B9,2020-0188,2021-09-23,17:20:30,18:27:36,NA,incomplete,false,NA,true,5,5,NA,left,E27_Q5_ansR.png,E25_Q5_ansL.png,between,NA,NaN,NA,right,2281.9000000059605,0,2,2184.9000000059605
YQcPt3B9,NA,NA,YQcPt3B9,2020-0188,2021-09-23,17:20:30,18:27:36,NA,incomplete,false,NA,true,5,6,NA,left,E9_Q2_ansR.png,E9_Q9_ansL.png,within,NA,NaN,NA,left,4491.79999999702,1,1,1632.2000000029802
YQcPt3B9,NA,NA,YQcPt3B9,2020-0188,2021-09-23,17:20:30,18:27:36,NA,incomplete,false,NA,true,5,7,NA,right,E9_Q3_ansL.png,E9_Q10_ansR.png,within,NA,NaN,NA,right,1895.5,1,1,876.5999999940395
YQcPt3B9,NA,NA,YQcPt3B9,2020-0188,2021-09-23,17:20:30,18:27:36,NA,incomplete,false,NA,true,5,8,NA,left,E9_Q3_ansL.png,E9_Q6_ansL.png,within,NA,NaN,NA,left,1634.0999999940395,1,1,1181.1000000089407
YQcPt3B9,NA,NA,YQcPt3B9,2020-0188,2021-09-23,17:20:30,18:27:36,NA,incomplete,false,NA,true,5,9,NA,right,E27_Q7_ansL.png,E27_Q2_ansL.png,within,NA,NaN,NA,right,1731.7000000029802,1,1,959
YQcPt3B9,NA,NA,YQcPt3B9,2020-0188,2021-09-23,17:20:30,18:27:36,NA,incomplete,false,NA,true,5,10,NA,right,E9_Q10_ansR.png,E9_Q7_ansR.png,within,NA,NaN,NA,right,2051.5,1,1,1332.2000000029802
YQcPt3B9,NA,NA,YQcPt3B9,2020-0188,2021-09-23,17:20:30,18:27:36,NA,incomplete,false,NA,true,5,11,NA,right,E27_Q6_ansR.png,E27_Q8_ansL.png,within,NA,NaN,NA,right,3005.2999999970198,1,1,1049.7999999970198
YQcPt3B9,NA,NA,YQcPt3B9,2020-0188,2021-09-23,17:20:30,18:27:36,NA,incomplete,false,NA,true,5,12,NA,left,E25_Q9_ansL.png,E25_Q10_ansR.png,within,NA,NaN,NA,left,2537.4000000059605,1,1,1534.0999999940395
YQcPt3B9,NA,NA,YQcPt3B9,2020-0188,2021-09-23,17:20:30,18:27:36,NA,incomplete,false,NA,true,5,13,NA,left,E25_Q2_ansR.png,E9_Q2_ansR.png,between,NA,NaN,NA,left,2594.8999999910593,1,2,1657.1000000089407
YQcPt3B9,NA,NA,YQcPt3B9,2020-0188,2021-09-23,17:20:30,18:27:36,NA,incomplete,false,NA,true,5,14,NA,left,E9_Q8_ansR.png,E9_Q5_ansL.png,within,NA,NaN,NA,left,3817.5999999940395,1,1,886.0999999940395
YQcPt3B9,NA,NA,YQcPt3B9,2020-0188,2021-09-23,17:20:30,18:27:36,NA,incomplete,false,NA,true,5,15,NA,right,E27_Q9_ansR.png,E27_Q3_ansR.png,within,NA,NaN,NA,right,2393.6000000089407,1,1,1105.2000000029802
YQcPt3B9,NA,NA,YQcPt3B9,2020-0188,2021-09-23,17:20:30,18:27:36,NA,incomplete,false,NA,true,5,16,NA,right,E9_Q8_ansR.png,E9_Q1_ansR.png,within,NA,NaN,NA,right,2576.9000000059605,1,1,1166
YQcPt3B9,NA,NA,YQcPt3B9,2020-0188,2021-09-23,17:20:30,18:27:36,NA,incomplete,false,NA,true,5,17,NA,left,E25_Q3_ansL.png,E25_Q2_ansR.png,within,NA,NaN,NA,left,2758.4000000059605,1,1,1804.8999999910593
YQcPt3B9,NA,NA,YQcPt3B9,2020-0188,2021-09-23,17:20:30,18:27:36,NA,incomplete,false,NA,true,5,18,NA,left,E27_Q1_ansL.png,E25_Q1_ansR.png,between,NA,NaN,NA,right,3246,0,2,877.2999999970198
YQcPt3B9,NA,NA,YQcPt3B9,2020-0188,2021-09-23,17:20:30,18:27:36,NA,incomplete,false,NA,true,5,19,NA,left,E27_Q4_ansR.png,E27_Q5_ansR.png,within,NA,NaN,NA,left,9065.5,1,1,2075.3999999910593
YQcPt3B9,NA,NA,YQcPt3B9,2020-0188,2021-09-23,17:20:30,18:27:36,NA,incomplete,false,NA,true,5,20,NA,right,E9_Q7_ansR.png,E25_Q10_ansR.png,between,NA,NaN,NA,right,4659.4000000059605,1,2,6397.79999999702
YQcPt3B9,NA,NA,YQcPt3B9,2020-0188,2021-09-23,17:20:30,18:27:36,NA,incomplete,false,NA,true,5,21,NA,left,E27_Q10_ansL.png,E25_Q8_ansR.png,between,NA,NaN,NA,right,3415.4000000059605,0,1,1066.8999999910593
YQcPt3B9,NA,NA,YQcPt3B9,2020-0188,2021-09-23,17:20:30,18:27:36,NA,incomplete,false,NA,true,5,22,NA,right,E27_Q10_ansL.png,E27_Q9_ansR.png,within,NA,NaN,NA,left,5536.5,0,1,2553.2999999970198
YQcPt3B9,NA,NA,YQcPt3B9,2020-0188,2021-09-23,17:20:30,18:27:36,NA,incomplete,false,NA,true,5,23,NA,left,E27_Q6_ansR.png,E27_Q4_ansR.png,within,NA,NaN,NA,left,2719.7000000029802,1,1,1411.7000000029802
YQcPt3B9,NA,NA,YQcPt3B9,2020-0188,2021-09-23,17:20:30,18:27:36,NA,incomplete,false,NA,true,5,24,NA,right,E25_Q7_ansR.png,E25_Q6_ansL.png,within,NA,NaN,NA,left,2344.7999999970198,0,1,1731.8999999910593
YQcPt3B9,NA,NA,YQcPt3B9,2020-0188,2021-09-23,17:20:30,18:27:36,NA,incomplete,false,NA,true,5,25,NA,right,E25_Q4_ansL.png,E25_Q8_ansR.png,within,NA,NaN,NA,left,1453,0,1,2351.7000000029802
YQcPt3B9,NA,NA,YQcPt3B9,2020-0188,2021-09-23,17:20:30,18:27:36,NA,incomplete,false,NA,true,5,26,NA,left,E25_Q7_ansR.png,E9_Q1_ansR.png,between,NA,NaN,NA,right,3536.1000000089407,0,1,1411.7000000029802
YQcPt3B9,NA,NA,YQcPt3B9,2020-0188,2021-09-23,17:20:30,18:27:36,NA,incomplete,false,true,NA,6,0,E17_Q8_ansL.png,left,NA,NA,NA,left,1289.79999999702,true,NA,NA,NA,NA,NA
YQcPt3B9,NA,NA,YQcPt3B9,2020-0188,2021-09-23,17:20:30,18:27:36,NA,incomplete,false,true,NA,6,1,E17_Q5_ansR.png,right,NA,NA,NA,right,2041.90000000596,true,NA,NA,NA,NA,NA
YQcPt3B9,NA,NA,YQcPt3B9,2020-0188,2021-09-23,17:20:30,18:27:36,NA,incomplete,false,true,NA,6,2,E17_Q4_ansR.png,right,NA,NA,NA,right,1990.80000001192,true,NA,NA,NA,NA,NA
YQcPt3B9,NA,NA,YQcPt3B9,2020-0188,2021-09-23,17:20:30,18:27:36,NA,incomplete,false,true,NA,6,3,E17_Q10_ansL.png,left,NA,NA,NA,left,1475.69999998808,true,NA,NA,NA,NA,NA
YQcPt3B9,NA,NA,YQcPt3B9,2020-0188,2021-09-23,17:20:30,18:27:36,NA,incomplete,false,true,NA,6,4,E17_Q3_ansR.png,right,NA,NA,NA,right,1595.20000000298,true,NA,NA,NA,NA,NA
YQcPt3B9,NA,NA,YQcPt3B9,2020-0188,2021-09-23,17:20:30,18:27:36,NA,incomplete,false,true,NA,6,5,E17_Q1_ansL.png,left,NA,NA,NA,left,1937.5,true,NA,NA,NA,NA,NA
YQcPt3B9,NA,NA,YQcPt3B9,2020-0188,2021-09-23,17:20:30,18:27:36,NA,incomplete,false,true,NA,6,6,E17_Q9_ansR.png,right,NA,NA,NA,right,2048.59999999404,true,NA,NA,NA,NA,NA
YQcPt3B9,NA,NA,YQcPt3B9,2020-0188,2021-09-23,17:20:30,18:27:36,NA,incomplete,false,true,NA,6,7,E17_Q7_ansL.png,left,NA,NA,NA,left,1704.20000000298,true,NA,NA,NA,NA,NA
YQcPt3B9,NA,NA,YQcPt3B9,2020-0188,2021-09-23,17:20:30,18:27:36,NA,incomplete,false,true,NA,6,8,E17_Q2_ansL.png,left,NA,NA,NA,left,1499.79999999702,true,NA,NA,NA,NA,NA
YQcPt3B9,NA,NA,YQcPt3B9,2020-0188,2021-09-23,17:20:30,18:27:36,NA,incomplete,false,true,NA,6,9,E17_Q6_ansR.png,right,NA,NA,NA,right,1536.70000000298,true,NA,NA,NA,NA,NA
YQcPt3B9,NA,NA,YQcPt3B9,2020-0188,2021-09-23,17:20:30,18:27:36,NA,incomplete,false,true,NA,6,10,E7_Q5_ansR.png,right,NA,NA,NA,right,1674,true,NA,NA,NA,NA,NA
YQcPt3B9,NA,NA,YQcPt3B9,2020-0188,2021-09-23,17:20:30,18:27:36,NA,incomplete,false,true,NA,6,11,E7_Q4_ansR.png,right,NA,NA,NA,right,1422.10000000894,true,NA,NA,NA,NA,NA
YQcPt3B9,NA,NA,YQcPt3B9,2020-0188,2021-09-23,17:20:30,18:27:36,NA,incomplete,false,true,NA,6,12,E7_Q8_ansL.png,left,NA,NA,NA,left,1296.20000000298,true,NA,NA,NA,NA,NA
YQcPt3B9,NA,NA,YQcPt3B9,2020-0188,2021-09-23,17:20:30,18:27:36,NA,incomplete,false,true,NA,6,13,E7_Q1_ansL.png,left,NA,NA,NA,left,2181.80000001192,true,NA,NA,NA,NA,NA
YQcPt3B9,NA,NA,YQcPt3B9,2020-0188,2021-09-23,17:20:30,18:27:36,NA,incomplete,false,true,NA,6,14,E7_Q10_ansR.png,right,NA,NA,NA,right,1993.79999999702,true,NA,NA,NA,NA,NA
YQcPt3B9,NA,NA,YQcPt3B9,2020-0188,2021-09-23,17:20:30,18:27:36,NA,incomplete,false,true,NA,6,15,E7_Q6_ansR.png,right,NA,NA,NA,right,1303.90000000596,true,NA,NA,NA,NA,NA
YQcPt3B9,NA,NA,YQcPt3B9,2020-0188,2021-09-23,17:20:30,18:27:36,NA,incomplete,false,true,NA,6,16,E7_Q7_ansL.png,left,NA,NA,NA,left,1568.79999999702,true,NA,NA,NA,NA,NA
YQcPt3B9,NA,NA,YQcPt3B9,2020-0188,2021-09-23,17:20:30,18:27:36,NA,incomplete,false,true,NA,6,17,E7_Q3_ansR.png,right,NA,NA,NA,right,1411.79999999702,true,NA,NA,NA,NA,NA
YQcPt3B9,NA,NA,YQcPt3B9,2020-0188,2021-09-23,17:20:30,18:27:36,NA,incomplete,false,true,NA,6,18,E7_Q9_ansR.png,right,NA,NA,NA,right,2074.5,true,NA,NA,NA,NA,NA
YQcPt3B9,NA,NA,YQcPt3B9,2020-0188,2021-09-23,17:20:30,18:27:36,NA,incomplete,false,true,NA,6,19,E7_Q2_ansL.png,left,NA,NA,NA,left,1476.90000000596,true,NA,NA,NA,NA,NA
YQcPt3B9,NA,NA,YQcPt3B9,2020-0188,2021-09-23,17:20:30,18:27:36,NA,incomplete,false,true,NA,6,20,E6_Q3_ansR.png,right,NA,NA,NA,right,1625.40000000596,true,NA,NA,NA,NA,NA
YQcPt3B9,NA,NA,YQcPt3B9,2020-0188,2021-09-23,17:20:30,18:27:36,NA,incomplete,false,true,NA,6,21,E6_Q10_ansL.png,left,NA,NA,NA,left,2157.79999999702,true,NA,NA,NA,NA,NA
YQcPt3B9,NA,NA,YQcPt3B9,2020-0188,2021-09-23,17:20:30,18:27:36,NA,incomplete,false,true,NA,6,22,E6_Q4_ansR.png,right,NA,NA,NA,right,1649.79999999702,true,NA,NA,NA,NA,NA
YQcPt3B9,NA,NA,YQcPt3B9,2020-0188,2021-09-23,17:20:30,18:27:36,NA,incomplete,false,true,NA,6,23,E6_Q7_ansL.png,left,NA,NA,NA,left,1563.5,true,NA,NA,NA,NA,NA
YQcPt3B9,NA,NA,YQcPt3B9,2020-0188,2021-09-23,17:20:30,18:27:36,NA,incomplete,false,true,NA,6,24,E6_Q6_ansR.png,right,NA,NA,NA,right,1756.59999999404,true,NA,NA,NA,NA,NA
YQcPt3B9,NA,NA,YQcPt3B9,2020-0188,2021-09-23,17:20:30,18:27:36,NA,incomplete,false,true,NA,6,25,E6_Q1_ansL.png,left,NA,NA,NA,left,2254.59999999404,true,NA,NA,NA,NA,NA
YQcPt3B9,NA,NA,YQcPt3B9,2020-0188,2021-09-23,17:20:30,18:27:36,NA,incomplete,false,true,NA,6,26,E6_Q5_ansR.png,right,NA,NA,NA,right,1788.30000001192,true,NA,NA,NA,NA,NA
YQcPt3B9,NA,NA,YQcPt3B9,2020-0188,2021-09-23,17:20:30,18:27:36,NA,incomplete,false,true,NA,6,27,E6_Q8_ansL.png,left,NA,NA,NA,left,2025.5,true,NA,NA,NA,NA,NA
YQcPt3B9,NA,NA,YQcPt3B9,2020-0188,2021-09-23,17:20:30,18:27:36,NA,incomplete,false,true,NA,6,28,E6_Q2_ansL.png,left,NA,NA,NA,left,2010.89999999106,true,NA,NA,NA,NA,NA
YQcPt3B9,NA,NA,YQcPt3B9,2020-0188,2021-09-23,17:20:30,18:27:36,NA,incomplete,false,true,NA,6,29,E6_Q9_ansL.png,left,NA,NA,NA,left,2270.09999999404,true,NA,NA,NA,NA,NA
YQcPt3B9,NA,NA,YQcPt3B9,2020-0188,2021-09-23,17:20:30,18:27:36,NA,incomplete,false,NA,true,6,0,NA,right,E7_Q4_ansR.png,E17_Q2_ansL.png,between,NA,NaN,NA,right,1988.2999999970198,1,2,1461.1000000089407
YQcPt3B9,NA,NA,YQcPt3B9,2020-0188,2021-09-23,17:20:30,18:27:36,NA,incomplete,false,NA,true,6,1,NA,right,E17_Q10_ansL.png,E17_Q8_ansL.png,within,NA,NaN,NA,right,2471.7000000029802,1,1,1061.0999999940395
YQcPt3B9,NA,NA,YQcPt3B9,2020-0188,2021-09-23,17:20:30,18:27:36,NA,incomplete,false,NA,true,6,2,NA,right,E17_Q2_ansL.png,E17_Q1_ansL.png,within,NA,NaN,NA,left,2258,0,1,934.5999999940395
YQcPt3B9,NA,NA,YQcPt3B9,2020-0188,2021-09-23,17:20:30,18:27:36,NA,incomplete,false,NA,true,6,3,NA,right,E7_Q8_ansL.png,E17_Q6_ansR.png,between,NA,NaN,NA,right,2388.5999999940395,1,2,1033.0999999940395
YQcPt3B9,NA,NA,YQcPt3B9,2020-0188,2021-09-23,17:20:30,18:27:36,NA,incomplete,false,NA,true,6,4,NA,left,E7_Q5_ansR.png,E7_Q1_ansL.png,within,NA,NaN,NA,left,2299.4000000059605,1,1,1098.0999999940395
YQcPt3B9,NA,NA,YQcPt3B9,2020-0188,2021-09-23,17:20:30,18:27:36,NA,incomplete,false,NA,true,6,5,NA,left,E6_Q3_ansR.png,E6_Q7_ansL.png,within,NA,NaN,NA,left,1321.5,1,1,1156.2999999970198
YQcPt3B9,NA,NA,YQcPt3B9,2020-0188,2021-09-23,17:20:30,18:27:36,NA,incomplete,false,NA,true,6,6,NA,right,E6_Q8_ansL.png,E6_Q6_ansR.png,within,NA,NaN,NA,left,1630.5,0,1,876.9000000059605
YQcPt3B9,NA,NA,YQcPt3B9,2020-0188,2021-09-23,17:20:30,18:27:36,NA,incomplete,false,NA,true,6,7,NA,left,E6_Q1_ansL.png,E6_Q2_ansL.png,within,NA,NaN,NA,left,1588.9000000059605,1,1,955.9000000059605
YQcPt3B9,NA,NA,YQcPt3B9,2020-0188,2021-09-23,17:20:30,18:27:36,NA,incomplete,false,NA,true,6,8,NA,left,E17_Q9_ansR.png,E17_Q6_ansR.png,within,NA,NaN,NA,left,1378.800000011921,1,1,891.1000000089407
YQcPt3B9,NA,NA,YQcPt3B9,2020-0188,2021-09-23,17:20:30,18:27:36,NA,incomplete,false,NA,true,6,9,NA,right,E6_Q6_ansR.png,E6_Q10_ansL.png,within,NA,NaN,NA,right,3570.4000000059605,1,1,1238.8999999910593
YQcPt3B9,NA,NA,YQcPt3B9,2020-0188,2021-09-23,17:20:30,18:27:36,NA,incomplete,false,NA,true,6,10,NA,right,E6_Q9_ansL.png,E6_Q5_ansR.png,within,NA,NaN,NA,left,2441.2000000029802,0,1,1468
YQcPt3B9,NA,NA,YQcPt3B9,2020-0188,2021-09-23,17:20:30,18:27:36,NA,incomplete,false,NA,true,6,11,NA,right,E7_Q2_ansL.png,E7_Q7_ansL.png,within,NA,NaN,NA,right,2269.5,1,1,869.9000000059605
YQcPt3B9,NA,NA,YQcPt3B9,2020-0188,2021-09-23,17:20:30,18:27:36,NA,incomplete,false,NA,true,6,12,NA,right,E6_Q1_ansL.png,E6_Q4_ansR.png,within,NA,NaN,NA,right,1650.0999999940395,1,1,1814
YQcPt3B9,NA,NA,YQcPt3B9,2020-0188,2021-09-23,17:20:30,18:27:36,NA,incomplete,false,NA,true,6,13,NA,right,E7_Q7_ansL.png,E7_Q1_ansL.png,within,NA,NaN,NA,right,1486.0999999940395,1,1,1813.5
YQcPt3B9,NA,NA,YQcPt3B9,2020-0188,2021-09-23,17:20:30,18:27:36,NA,incomplete,false,NA,true,6,14,NA,left,E6_Q7_ansL.png,E6_Q5_ansR.png,within,NA,NaN,NA,left,1470,1,1,906
YQcPt3B9,NA,NA,YQcPt3B9,2020-0188,2021-09-23,17:20:30,18:27:36,NA,incomplete,false,NA,true,6,15,NA,left,E7_Q4_ansR.png,E7_Q10_ansR.png,within,NA,NaN,NA,left,1353.7000000029802,1,1,1889.199999988079
YQcPt3B9,NA,NA,YQcPt3B9,2020-0188,2021-09-23,17:20:30,18:27:36,NA,incomplete,false,NA,true,6,16,NA,left,E17_Q3_ansR.png,E17_Q7_ansL.png,within,NA,NaN,NA,left,1412.2000000029802,1,1,970.6000000089407
YQcPt3B9,NA,NA,YQcPt3B9,2020-0188,2021-09-23,17:20:30,18:27:36,NA,incomplete,false,NA,true,6,17,NA,left,E17_Q4_ansR.png,E17_Q1_ansL.png,within,NA,NaN,NA,right,1272.2999999970198,0,1,2604
YQcPt3B9,NA,NA,YQcPt3B9,2020-0188,2021-09-23,17:20:30,18:27:36,NA,incomplete,false,NA,true,6,18,NA,right,E7_Q5_ansR.png,E17_Q7_ansL.png,between,NA,NaN,NA,right,2339.7999999970198,1,2,943.2000000029802
YQcPt3B9,NA,NA,YQcPt3B9,2020-0188,2021-09-23,17:20:30,18:27:36,NA,incomplete,false,NA,true,6,19,NA,right,E6_Q10_ansL.png,E7_Q9_ansR.png,between,NA,NaN,NA,right,5506.70000000298,1,2,3744.7999999970198
YQcPt3B9,NA,NA,YQcPt3B9,2020-0188,2021-09-23,17:20:30,18:27:36,NA,incomplete,false,NA,true,6,20,NA,left,E17_Q10_ansL.png,E17_Q9_ansR.png,within,NA,NaN,NA,left,1682.9000000059605,1,1,1053.1000000089407
YQcPt3B9,NA,NA,YQcPt3B9,2020-0188,2021-09-23,17:20:30,18:27:36,NA,incomplete,false,NA,true,6,21,NA,right,E7_Q3_ansR.png,E7_Q10_ansR.png,within,NA,NaN,NA,left,1396.0999999940395,0,1,1000.4000000059605
YQcPt3B9,NA,NA,YQcPt3B9,2020-0188,2021-09-23,17:20:30,18:27:36,NA,incomplete,false,NA,true,6,22,NA,left,E7_Q8_ansL.png,E7_Q6_ansR.png,within,NA,NaN,NA,left,1733.3999999910593,1,1,1160.6000000089407
YQcPt3B9,NA,NA,YQcPt3B9,2020-0188,2021-09-23,17:20:30,18:27:36,NA,incomplete,false,NA,true,6,23,NA,right,E6_Q3_ansR.png,E7_Q3_ansR.png,between,NA,NaN,NA,right,4671.20000000298,1,2,1312.2000000029802
YQcPt3B9,NA,NA,YQcPt3B9,2020-0188,2021-09-23,17:20:30,18:27:36,NA,incomplete,false,NA,true,6,24,NA,right,E17_Q3_ansR.png,E17_Q5_ansR.png,within,NA,NaN,NA,right,2036.2999999970198,1,1,2103.7000000029802
YQcPt3B9,NA,NA,YQcPt3B9,2020-0188,2021-09-23,17:20:30,18:27:36,NA,incomplete,false,NA,true,6,25,NA,right,E7_Q9_ansR.png,E7_Q6_ansR.png,within,NA,NaN,NA,right,2119.300000011921,1,1,1033.5
YQcPt3B9,NA,NA,YQcPt3B9,2020-0188,2021-09-23,17:20:30,18:27:36,NA,incomplete,false,NA,true,6,26,NA,left,E7_Q2_ansL.png,E6_Q4_ansR.png,between,NA,NaN,NA,left,2036.9000000059605,1,2,1994.6000000089407
YQcPt3B9,NA,NA,YQcPt3B9,2020-0188,2021-09-23,17:20:30,18:27:36,NA,incomplete,false,true,NA,7,0,E20_Q6_ansR.png,right,NA,NA,NA,right,2089,true,NA,NA,NA,NA,NA
YQcPt3B9,NA,NA,YQcPt3B9,2020-0188,2021-09-23,17:20:30,18:27:36,NA,incomplete,false,true,NA,7,1,E20_Q4_ansR.png,right,NA,NA,NA,right,2047,true,NA,NA,NA,NA,NA
YQcPt3B9,NA,NA,YQcPt3B9,2020-0188,2021-09-23,17:20:30,18:27:36,NA,incomplete,false,true,NA,7,2,E20_Q7_ansL.png,left,NA,NA,NA,left,1371.59999999404,true,NA,NA,NA,NA,NA
YQcPt3B9,NA,NA,YQcPt3B9,2020-0188,2021-09-23,17:20:30,18:27:36,NA,incomplete,false,true,NA,7,3,E20_Q1_ansL.png,left,NA,NA,NA,left,1368.89999999106,true,NA,NA,NA,NA,NA
YQcPt3B9,NA,NA,YQcPt3B9,2020-0188,2021-09-23,17:20:30,18:27:36,NA,incomplete,false,true,NA,7,4,E20_Q9_ansR.png,right,NA,NA,NA,right,1469.09999999404,true,NA,NA,NA,NA,NA
YQcPt3B9,NA,NA,YQcPt3B9,2020-0188,2021-09-23,17:20:30,18:27:36,NA,incomplete,false,true,NA,7,5,E20_Q8_ansL.png,left,NA,NA,NA,left,2683,true,NA,NA,NA,NA,NA
YQcPt3B9,NA,NA,YQcPt3B9,2020-0188,2021-09-23,17:20:30,18:27:36,NA,incomplete,false,true,NA,7,6,E20_Q10_ansL.png,left,NA,NA,NA,right,1515.20000000298,false,NA,NA,NA,NA,NA
YQcPt3B9,NA,NA,YQcPt3B9,2020-0188,2021-09-23,17:20:30,18:27:36,NA,incomplete,false,true,NA,7,7,E20_Q5_ansR.png,right,NA,NA,NA,right,1598,true,NA,NA,NA,NA,NA
YQcPt3B9,NA,NA,YQcPt3B9,2020-0188,2021-09-23,17:20:30,18:27:36,NA,incomplete,false,true,NA,7,8,E20_Q3_ansR.png,right,NA,NA,NA,right,1393.90000000596,true,NA,NA,NA,NA,NA
YQcPt3B9,NA,NA,YQcPt3B9,2020-0188,2021-09-23,17:20:30,18:27:36,NA,incomplete,false,true,NA,7,9,E20_Q2_ansL.png,left,NA,NA,NA,left,2639.40000000596,true,NA,NA,NA,NA,NA
YQcPt3B9,NA,NA,YQcPt3B9,2020-0188,2021-09-23,17:20:30,18:27:36,NA,incomplete,false,true,NA,7,10,E15_Q9_ansR.png,right,NA,NA,NA,right,3366.70000000298,true,NA,NA,NA,NA,NA
YQcPt3B9,NA,NA,YQcPt3B9,2020-0188,2021-09-23,17:20:30,18:27:36,NA,incomplete,false,true,NA,7,11,E15_Q6_ansR.png,right,NA,NA,NA,right,1736.90000000596,true,NA,NA,NA,NA,NA
YQcPt3B9,NA,NA,YQcPt3B9,2020-0188,2021-09-23,17:20:30,18:27:36,NA,incomplete,false,true,NA,7,12,E15_Q2_ansL.png,left,NA,NA,NA,left,1253.70000000298,true,NA,NA,NA,NA,NA
YQcPt3B9,NA,NA,YQcPt3B9,2020-0188,2021-09-23,17:20:30,18:27:36,NA,incomplete,false,true,NA,7,13,E15_Q5_ansR.png,right,NA,NA,NA,right,1464.09999999404,true,NA,NA,NA,NA,NA
YQcPt3B9,NA,NA,YQcPt3B9,2020-0188,2021-09-23,17:20:30,18:27:36,NA,incomplete,false,true,NA,7,14,E15_Q4_ansR.png,right,NA,NA,NA,left,1572.59999999404,false,NA,NA,NA,NA,NA
YQcPt3B9,NA,NA,YQcPt3B9,2020-0188,2021-09-23,17:20:30,18:27:36,NA,incomplete,false,true,NA,7,15,E15_Q7_ansL.png,left,NA,NA,NA,right,1046.40000000596,false,NA,NA,NA,NA,NA
YQcPt3B9,NA,NA,YQcPt3B9,2020-0188,2021-09-23,17:20:30,18:27:36,NA,incomplete,false,true,NA,7,16,E15_Q3_ansR.png,right,NA,NA,NA,right,1598.60000000894,true,NA,NA,NA,NA,NA
YQcPt3B9,NA,NA,YQcPt3B9,2020-0188,2021-09-23,17:20:30,18:27:36,NA,incomplete,false,true,NA,7,17,E15_Q8_ansL.png,left,NA,NA,NA,left,2124.90000000596,true,NA,NA,NA,NA,NA
YQcPt3B9,NA,NA,YQcPt3B9,2020-0188,2021-09-23,17:20:30,18:27:36,NA,incomplete,false,true,NA,7,18,E15_Q1_ansL.png,left,NA,NA,NA,left,2307,true,NA,NA,NA,NA,NA
YQcPt3B9,NA,NA,YQcPt3B9,2020-0188,2021-09-23,17:20:30,18:27:36,NA,incomplete,false,true,NA,7,19,E15_Q10_ansL.png,left,NA,NA,NA,left,2254.70000000298,true,NA,NA,NA,NA,NA
YQcPt3B9,NA,NA,YQcPt3B9,2020-0188,2021-09-23,17:20:30,18:27:36,NA,incomplete,false,true,NA,7,20,E33_Q8_ansL.png,left,NA,NA,NA,left,2368.29999999702,true,NA,NA,NA,NA,NA
YQcPt3B9,NA,NA,YQcPt3B9,2020-0188,2021-09-23,17:20:30,18:27:36,NA,incomplete,false,true,NA,7,21,E33_Q6_ansR.png,right,NA,NA,NA,right,2134.5,true,NA,NA,NA,NA,NA
YQcPt3B9,NA,NA,YQcPt3B9,2020-0188,2021-09-23,17:20:30,18:27:36,NA,incomplete,false,true,NA,7,22,E33_Q9_ansR.png,right,NA,NA,NA,right,2120,true,NA,NA,NA,NA,NA
YQcPt3B9,NA,NA,YQcPt3B9,2020-0188,2021-09-23,17:20:30,18:27:36,NA,incomplete,false,true,NA,7,23,E33_Q1_ansL.png,left,NA,NA,NA,left,2242,true,NA,NA,NA,NA,NA
YQcPt3B9,NA,NA,YQcPt3B9,2020-0188,2021-09-23,17:20:30,18:27:36,NA,incomplete,false,true,NA,7,24,E33_Q10_ansL.png,left,NA,NA,NA,none,0,false,NA,NA,NA,NA,NA
YQcPt3B9,NA,NA,YQcPt3B9,2020-0188,2021-09-23,17:20:30,18:27:36,NA,incomplete,false,true,NA,7,25,E33_Q3_ansR.png,right,NA,NA,NA,right,2743.90000000596,true,NA,NA,NA,NA,NA
YQcPt3B9,NA,NA,YQcPt3B9,2020-0188,2021-09-23,17:20:30,18:27:36,NA,incomplete,false,true,NA,7,26,E33_Q7_ansL.png,left,NA,NA,NA,left,2056.59999999404,true,NA,NA,NA,NA,NA
YQcPt3B9,NA,NA,YQcPt3B9,2020-0188,2021-09-23,17:20:30,18:27:36,NA,incomplete,false,true,NA,7,27,E33_Q2_ansL.png,left,NA,NA,NA,left,2054,true,NA,NA,NA,NA,NA
YQcPt3B9,NA,NA,YQcPt3B9,2020-0188,2021-09-23,17:20:30,18:27:36,NA,incomplete,false,true,NA,7,28,E33_Q5_ansR.png,right,NA,NA,NA,right,1862,true,NA,NA,NA,NA,NA
YQcPt3B9,NA,NA,YQcPt3B9,2020-0188,2021-09-23,17:20:30,18:27:36,NA,incomplete,false,true,NA,7,29,E33_Q4_ansR.png,right,NA,NA,NA,right,1610.59999999404,true,NA,NA,NA,NA,NA
YQcPt3B9,NA,NA,YQcPt3B9,2020-0188,2021-09-23,17:20:30,18:27:36,NA,incomplete,false,NA,true,7,0,NA,right,E15_Q2_ansL.png,E20_Q2_ansL.png,between,NA,NaN,NA,right,1888.7999999970198,1,2,1995.5999999940395
YQcPt3B9,NA,NA,YQcPt3B9,2020-0188,2021-09-23,17:20:30,18:27:36,NA,incomplete,false,NA,true,7,1,NA,right,E15_Q10_ansL.png,E15_Q3_ansR.png,within,NA,NaN,NA,right,1420.5999999940395,1,2,3811.4000000059605
YQcPt3B9,NA,NA,YQcPt3B9,2020-0188,2021-09-23,17:20:30,18:27:36,NA,incomplete,false,NA,true,7,2,NA,left,E20_Q1_ansL.png,E20_Q10_ansL.png,within,NA,NaN,NA,left,2595.5999999940395,1,1,968.2000000029802
YQcPt3B9,NA,NA,YQcPt3B9,2020-0188,2021-09-23,17:20:30,18:27:36,NA,incomplete,false,NA,true,7,3,NA,right,E33_Q6_ansR.png,E15_Q1_ansL.png,between,NA,NaN,NA,right,2146.5,1,2,1187.5999999940395
YQcPt3B9,NA,NA,YQcPt3B9,2020-0188,2021-09-23,17:20:30,18:27:36,NA,incomplete,false,NA,true,7,4,NA,right,E15_Q4_ansR.png,E15_Q6_ansR.png,within,NA,NaN,NA,right,4600.5,1,1,835.4000000059605
YQcPt3B9,NA,NA,YQcPt3B9,2020-0188,2021-09-23,17:20:30,18:27:36,NA,incomplete,false,NA,true,7,5,NA,right,E20_Q8_ansL.png,E20_Q7_ansL.png,within,NA,NaN,NA,left,2628,0,1,1066
YQcPt3B9,NA,NA,YQcPt3B9,2020-0188,2021-09-23,17:20:30,18:27:36,NA,incomplete,false,NA,true,7,6,NA,left,E20_Q9_ansR.png,E20_Q5_ansR.png,within,NA,NaN,NA,left,3037.2000000029802,1,1,843.8000000119209
YQcPt3B9,NA,NA,YQcPt3B9,2020-0188,2021-09-23,17:20:30,18:27:36,NA,incomplete,false,NA,true,7,7,NA,left,E20_Q4_ansR.png,E20_Q9_ansR.png,within,NA,NaN,NA,left,1822.5,1,1,1149.0999999940395
YQcPt3B9,NA,NA,YQcPt3B9,2020-0188,2021-09-23,17:20:30,18:27:36,NA,incomplete,false,NA,true,7,8,NA,left,E15_Q5_ansR.png,E15_Q3_ansR.png,within,NA,NaN,NA,right,2124.2999999970198,0,1,801.9000000059605
YQcPt3B9,NA,NA,YQcPt3B9,2020-0188,2021-09-23,17:20:30,18:27:36,NA,incomplete,false,NA,true,7,9,NA,right,E15_Q1_ansL.png,E15_Q7_ansL.png,within,NA,NaN,NA,left,1581.5,0,1,819.7000000029802
YQcPt3B9,NA,NA,YQcPt3B9,2020-0188,2021-09-23,17:20:30,18:27:36,NA,incomplete,false,NA,true,7,10,NA,left,E15_Q2_ansL.png,E15_Q7_ansL.png,within,NA,NaN,NA,left,1058.300000011921,1,2,3013.5999999940395
YQcPt3B9,NA,NA,YQcPt3B9,2020-0188,2021-09-23,17:20:30,18:27:36,NA,incomplete,false,NA,true,7,11,NA,left,E33_Q3_ansR.png,E33_Q5_ansR.png,within,NA,NaN,NA,left,3965.7000000029802,1,1,2119.1000000089407
YQcPt3B9,NA,NA,YQcPt3B9,2020-0188,2021-09-23,17:20:30,18:27:36,NA,incomplete,false,NA,true,7,12,NA,right,E33_Q7_ansL.png,E33_Q1_ansL.png,within,NA,NaN,NA,right,1946,1,1,1033.7000000029802
YQcPt3B9,NA,NA,YQcPt3B9,2020-0188,2021-09-23,17:20:30,18:27:36,NA,incomplete,false,NA,true,7,13,NA,left,E20_Q10_ansL.png,E20_Q2_ansL.png,within,NA,NaN,NA,left,1615.7000000029802,1,1,1131.7000000029802
YQcPt3B9,NA,NA,YQcPt3B9,2020-0188,2021-09-23,17:20:30,18:27:36,NA,incomplete,false,NA,true,7,14,NA,left,E20_Q8_ansL.png,E20_Q3_ansR.png,within,NA,NaN,NA,left,1223.3999999910593,1,1,901
YQcPt3B9,NA,NA,YQcPt3B9,2020-0188,2021-09-23,17:20:30,18:27:36,NA,incomplete,false,NA,true,7,15,NA,right,E15_Q9_ansR.png,E20_Q5_ansR.png,between,NA,NaN,NA,right,3178.9000000059605,1,3,3524.5
YQcPt3B9,NA,NA,YQcPt3B9,2020-0188,2021-09-23,17:20:30,18:27:36,NA,incomplete,false,NA,true,7,16,NA,left,E33_Q7_ansL.png,E33_Q4_ansR.png,within,NA,NaN,NA,left,3548.7999999970198,1,1,1098.8999999910593
YQcPt3B9,NA,NA,YQcPt3B9,2020-0188,2021-09-23,17:20:30,18:27:36,NA,incomplete,false,NA,true,7,17,NA,right,E15_Q8_ansL.png,E15_Q4_ansR.png,within,NA,NaN,NA,right,1806.2999999970198,1,2,1114.9000000059605
YQcPt3B9,NA,NA,YQcPt3B9,2020-0188,2021-09-23,17:20:30,18:27:36,NA,incomplete,false,NA,true,7,18,NA,right,E33_Q9_ansR.png,E15_Q10_ansL.png,between,NA,NaN,NA,right,8749.40000000596,1,2,4698
YQcPt3B9,NA,NA,YQcPt3B9,2020-0188,2021-09-23,17:20:30,18:27:36,NA,incomplete,false,NA,true,7,19,NA,right,E15_Q6_ansR.png,E20_Q3_ansR.png,between,NA,NaN,NA,right,2818.1000000089407,1,2,3415.9000000059605
YQcPt3B9,NA,NA,YQcPt3B9,2020-0188,2021-09-23,17:20:30,18:27:36,NA,incomplete,false,NA,true,7,20,NA,left,E33_Q10_ansL.png,E33_Q2_ansL.png,within,NA,NaN,NA,left,5475.5999999940395,1,1,1090.9000000059605
YQcPt3B9,NA,NA,YQcPt3B9,2020-0188,2021-09-23,17:20:30,18:27:36,NA,incomplete,false,NA,true,7,21,NA,right,E33_Q1_ansL.png,E33_Q8_ansL.png,within,NA,NaN,NA,right,2082.0999999940395,1,1,1147.7000000029802
YQcPt3B9,NA,NA,YQcPt3B9,2020-0188,2021-09-23,17:20:30,18:27:36,NA,incomplete,false,NA,true,7,22,NA,left,E33_Q6_ansR.png,E33_Q10_ansL.png,within,NA,NaN,NA,left,1323.5,1,1,916.5
YQcPt3B9,NA,NA,YQcPt3B9,2020-0188,2021-09-23,17:20:30,18:27:36,NA,incomplete,false,NA,true,7,23,NA,left,E15_Q9_ansR.png,E15_Q5_ansR.png,within,NA,NaN,NA,left,2073.2999999970198,1,1,1041.9000000059605
YQcPt3B9,NA,NA,YQcPt3B9,2020-0188,2021-09-23,17:20:30,18:27:36,NA,incomplete,false,NA,true,7,24,NA,left,E20_Q6_ansR.png,E20_Q1_ansL.png,within,NA,NaN,NA,left,1477.9000000059605,1,1,1042.4000000059605
YQcPt3B9,NA,NA,YQcPt3B9,2020-0188,2021-09-23,17:20:30,18:27:36,NA,incomplete,false,NA,true,7,25,NA,right,E33_Q3_ansR.png,E33_Q9_ansR.png,within,NA,NaN,NA,right,2303,1,1,986.2999999970198
YQcPt3B9,NA,NA,YQcPt3B9,2020-0188,2021-09-23,17:20:30,18:27:36,NA,incomplete,false,NA,true,7,26,NA,left,E15_Q8_ansL.png,E33_Q8_ansL.png,between,NA,NaN,NA,left,1207.0999999940395,1,2,917.6999999880791
YQcPt3B9,NA,NA,YQcPt3B9,2020-0188,2021-09-23,17:20:30,18:27:36,NA,incomplete,false,true,NA,8,0,E29_Q2_ansL.png,left,NA,NA,NA,left,2357.29999999702,true,NA,NA,NA,NA,NA
YQcPt3B9,NA,NA,YQcPt3B9,2020-0188,2021-09-23,17:20:30,18:27:36,NA,incomplete,false,true,NA,8,1,E29_Q5_ansR.png,right,NA,NA,NA,right,1133.90000000596,true,NA,NA,NA,NA,NA
YQcPt3B9,NA,NA,YQcPt3B9,2020-0188,2021-09-23,17:20:30,18:27:36,NA,incomplete,false,true,NA,8,2,E29_Q7_ansL.png,left,NA,NA,NA,left,1349.39999999106,true,NA,NA,NA,NA,NA
YQcPt3B9,NA,NA,YQcPt3B9,2020-0188,2021-09-23,17:20:30,18:27:36,NA,incomplete,false,true,NA,8,3,E29_Q10_ansL.png,left,NA,NA,NA,left,1310.20000000298,true,NA,NA,NA,NA,NA
YQcPt3B9,NA,NA,YQcPt3B9,2020-0188,2021-09-23,17:20:30,18:27:36,NA,incomplete,false,true,NA,8,4,E29_Q6_ansR.png,right,NA,NA,NA,right,1749.60000000894,true,NA,NA,NA,NA,NA
YQcPt3B9,NA,NA,YQcPt3B9,2020-0188,2021-09-23,17:20:30,18:27:36,NA,incomplete,false,true,NA,8,5,E29_Q9_ansR.png,right,NA,NA,NA,right,1193.19999998808,true,NA,NA,NA,NA,NA
YQcPt3B9,NA,NA,YQcPt3B9,2020-0188,2021-09-23,17:20:30,18:27:36,NA,incomplete,false,true,NA,8,6,E29_Q8_ansL.png,left,NA,NA,NA,left,1421.70000000298,true,NA,NA,NA,NA,NA
YQcPt3B9,NA,NA,YQcPt3B9,2020-0188,2021-09-23,17:20:30,18:27:36,NA,incomplete,false,true,NA,8,7,E29_Q1_ansL.png,left,NA,NA,NA,left,1873.10000000894,true,NA,NA,NA,NA,NA
YQcPt3B9,NA,NA,YQcPt3B9,2020-0188,2021-09-23,17:20:30,18:27:36,NA,incomplete,false,true,NA,8,8,E29_Q3_ansR.png,right,NA,NA,NA,right,2314.20000000298,true,NA,NA,NA,NA,NA
YQcPt3B9,NA,NA,YQcPt3B9,2020-0188,2021-09-23,17:20:30,18:27:36,NA,incomplete,false,true,NA,8,9,E29_Q4_ansR.png,right,NA,NA,NA,right,1421.40000000596,true,NA,NA,NA,NA,NA
YQcPt3B9,NA,NA,YQcPt3B9,2020-0188,2021-09-23,17:20:30,18:27:36,NA,incomplete,false,true,NA,8,10,E30_Q1_ansL.png,left,NA,NA,NA,left,2860,true,NA,NA,NA,NA,NA
YQcPt3B9,NA,NA,YQcPt3B9,2020-0188,2021-09-23,17:20:30,18:27:36,NA,incomplete,false,true,NA,8,11,E30_Q8_ansL.png,left,NA,NA,NA,right,2662.09999999404,false,NA,NA,NA,NA,NA
YQcPt3B9,NA,NA,YQcPt3B9,2020-0188,2021-09-23,17:20:30,18:27:36,NA,incomplete,false,true,NA,8,12,E30_Q6_ansR.png,right,NA,NA,NA,right,2158.40000000596,true,NA,NA,NA,NA,NA
YQcPt3B9,NA,NA,YQcPt3B9,2020-0188,2021-09-23,17:20:30,18:27:36,NA,incomplete,false,true,NA,8,13,E30_Q3_ansL.png,left,NA,NA,NA,left,3187.40000000596,true,NA,NA,NA,NA,NA
YQcPt3B9,NA,NA,YQcPt3B9,2020-0188,2021-09-23,17:20:30,18:27:36,NA,incomplete,false,true,NA,8,14,E30_Q5_ansR.png,right,NA,NA,NA,right,2008.29999999702,true,NA,NA,NA,NA,NA
YQcPt3B9,NA,NA,YQcPt3B9,2020-0188,2021-09-23,17:20:30,18:27:36,NA,incomplete,false,true,NA,8,15,E30_Q10_ansR.png,right,NA,NA,NA,right,1838.59999999404,true,NA,NA,NA,NA,NA
YQcPt3B9,NA,NA,YQcPt3B9,2020-0188,2021-09-23,17:20:30,18:27:36,NA,incomplete,false,true,NA,8,16,E30_Q9_ansL.png,left,NA,NA,NA,left,1952.10000000894,true,NA,NA,NA,NA,NA
YQcPt3B9,NA,NA,YQcPt3B9,2020-0188,2021-09-23,17:20:30,18:27:36,NA,incomplete,false,true,NA,8,17,E30_Q7_ansL.png,left,NA,NA,NA,right,1911.09999999404,false,NA,NA,NA,NA,NA
YQcPt3B9,NA,NA,YQcPt3B9,2020-0188,2021-09-23,17:20:30,18:27:36,NA,incomplete,false,true,NA,8,18,E30_Q2_ansL.png,left,NA,NA,NA,left,2124.10000000894,true,NA,NA,NA,NA,NA
YQcPt3B9,NA,NA,YQcPt3B9,2020-0188,2021-09-23,17:20:30,18:27:36,NA,incomplete,false,true,NA,8,19,E30_Q4_ansL.png,left,NA,NA,NA,left,2255.70000000298,true,NA,NA,NA,NA,NA
YQcPt3B9,NA,NA,YQcPt3B9,2020-0188,2021-09-23,17:20:30,18:27:36,NA,incomplete,false,true,NA,8,20,E12_Q1_ansL.png,left,NA,NA,NA,left,1773.40000000596,true,NA,NA,NA,NA,NA
YQcPt3B9,NA,NA,YQcPt3B9,2020-0188,2021-09-23,17:20:30,18:27:36,NA,incomplete,false,true,NA,8,21,E12_Q10_ansL.png,left,NA,NA,NA,left,1656.40000000596,true,NA,NA,NA,NA,NA
YQcPt3B9,NA,NA,YQcPt3B9,2020-0188,2021-09-23,17:20:30,18:27:36,NA,incomplete,false,true,NA,8,22,E12_Q4_ansR.png,right,NA,NA,NA,right,1844.79999999702,true,NA,NA,NA,NA,NA
YQcPt3B9,NA,NA,YQcPt3B9,2020-0188,2021-09-23,17:20:30,18:27:36,NA,incomplete,false,true,NA,8,23,E12_Q8_ansL.png,left,NA,NA,NA,left,1804.5,true,NA,NA,NA,NA,NA
YQcPt3B9,NA,NA,YQcPt3B9,2020-0188,2021-09-23,17:20:30,18:27:36,NA,incomplete,false,true,NA,8,24,E12_Q2_ansL.png,left,NA,NA,NA,left,2000.40000000596,true,NA,NA,NA,NA,NA
YQcPt3B9,NA,NA,YQcPt3B9,2020-0188,2021-09-23,17:20:30,18:27:36,NA,incomplete,false,true,NA,8,25,E12_Q7_ansL.png,left,NA,NA,NA,left,1703.20000000298,true,NA,NA,NA,NA,NA
YQcPt3B9,NA,NA,YQcPt3B9,2020-0188,2021-09-23,17:20:30,18:27:36,NA,incomplete,false,true,NA,8,26,E12_Q3_ansR.png,right,NA,NA,NA,right,2054.59999999404,true,NA,NA,NA,NA,NA
YQcPt3B9,NA,NA,YQcPt3B9,2020-0188,2021-09-23,17:20:30,18:27:36,NA,incomplete,false,true,NA,8,27,E12_Q6_ansR.png,right,NA,NA,NA,right,1970.19999998808,true,NA,NA,NA,NA,NA
YQcPt3B9,NA,NA,YQcPt3B9,2020-0188,2021-09-23,17:20:30,18:27:36,NA,incomplete,false,true,NA,8,28,E12_Q5_ansR.png,right,NA,NA,NA,right,2021.69999998808,true,NA,NA,NA,NA,NA
YQcPt3B9,NA,NA,YQcPt3B9,2020-0188,2021-09-23,17:20:30,18:27:36,NA,incomplete,false,true,NA,8,29,E12_Q9_ansR.png,right,NA,NA,NA,right,2239.39999999106,true,NA,NA,NA,NA,NA
YQcPt3B9,NA,NA,YQcPt3B9,2020-0188,2021-09-23,17:20:30,18:27:36,NA,incomplete,false,NA,true,8,0,NA,left,E12_Q2_ansL.png,E12_Q6_ansR.png,within,NA,NaN,NA,left,2730.5,1,1,942.0999999940395
YQcPt3B9,NA,NA,YQcPt3B9,2020-0188,2021-09-23,17:20:30,18:27:36,NA,incomplete,false,NA,true,8,1,NA,left,E29_Q9_ansR.png,E29_Q3_ansR.png,within,NA,NaN,NA,left,1632,1,1,990.0999999940395
YQcPt3B9,NA,NA,YQcPt3B9,2020-0188,2021-09-23,17:20:30,18:27:36,NA,incomplete,false,NA,true,8,2,NA,right,E29_Q10_ansL.png,E29_Q2_ansL.png,within,NA,NaN,NA,right,1270.2999999970198,1,1,1015
YQcPt3B9,NA,NA,YQcPt3B9,2020-0188,2021-09-23,17:20:30,18:27:36,NA,incomplete,false,NA,true,8,3,NA,left,E30_Q4_ansL.png,E12_Q4_ansR.png,between,NA,NaN,NA,left,2503.2000000029802,1,2,2024.5
YQcPt3B9,NA,NA,YQcPt3B9,2020-0188,2021-09-23,17:20:30,18:27:36,NA,incomplete,false,NA,true,8,4,NA,right,E30_Q5_ansR.png,E30_Q8_ansL.png,within,NA,NaN,NA,right,2633.5,1,1,1005.7999999970198
YQcPt3B9,NA,NA,YQcPt3B9,2020-0188,2021-09-23,17:20:30,18:27:36,NA,incomplete,false,NA,true,8,5,NA,left,E30_Q3_ansL.png,E30_Q9_ansL.png,within,NA,NaN,NA,left,1706.7000000029802,1,1,1055.0999999940395
YQcPt3B9,NA,NA,YQcPt3B9,2020-0188,2021-09-23,17:20:30,18:27:36,NA,incomplete,false,NA,true,8,6,NA,left,E29_Q6_ansR.png,E29_Q1_ansL.png,within,NA,NaN,NA,left,4420.79999999702,1,1,1630.9000000059605
YQcPt3B9,NA,NA,YQcPt3B9,2020-0188,2021-09-23,17:20:30,18:27:36,NA,incomplete,false,NA,true,8,7,NA,right,E29_Q9_ansR.png,E29_Q7_ansL.png,within,NA,NaN,NA,right,1632.199999988079,1,0,3258.9000000059605
YQcPt3B9,NA,NA,YQcPt3B9,2020-0188,2021-09-23,17:20:30,18:27:36,NA,incomplete,false,NA,true,8,8,NA,left,E12_Q7_ansL.png,E12_Q5_ansR.png,within,NA,NaN,NA,left,3965.7999999970198,1,1,1338.0999999940395
YQcPt3B9,NA,NA,YQcPt3B9,2020-0188,2021-09-23,17:20:30,18:27:36,NA,incomplete,false,NA,true,8,9,NA,left,E30_Q5_ansR.png,E30_Q7_ansL.png,within,NA,NaN,NA,left,5009.399999991059,1,1,877.2000000029802
YQcPt3B9,NA,NA,YQcPt3B9,2020-0188,2021-09-23,17:20:30,18:27:36,NA,incomplete,false,NA,true,8,10,NA,right,E29_Q6_ansR.png,E29_Q5_ansR.png,within,NA,NaN,NA,right,1305.6000000089407,1,1,1206.0999999940395
YQcPt3B9,NA,NA,YQcPt3B9,2020-0188,2021-09-23,17:20:30,18:27:36,NA,incomplete,false,NA,true,8,11,NA,right,E12_Q1_ansL.png,E30_Q7_ansL.png,between,NA,NaN,NA,right,2645,1,2,2463.4000000059605
YQcPt3B9,NA,NA,YQcPt3B9,2020-0188,2021-09-23,17:20:30,18:27:36,NA,incomplete,false,NA,true,8,12,NA,left,E29_Q1_ansL.png,E30_Q1_ansL.png,between,NA,NaN,NA,left,4794,1,2,1757
YQcPt3B9,NA,NA,YQcPt3B9,2020-0188,2021-09-23,17:20:30,18:27:36,NA,incomplete,false,NA,true,8,13,NA,right,E30_Q4_ansL.png,E30_Q9_ansL.png,within,NA,NaN,NA,right,4812.199999988079,1,1,1002.2000000029802
YQcPt3B9,NA,NA,YQcPt3B9,2020-0188,2021-09-23,17:20:30,18:27:36,NA,incomplete,false,NA,true,8,14,NA,left,E29_Q3_ansR.png,E30_Q8_ansL.png,between,NA,NaN,NA,left,3828.2000000029802,1,2,1201.3999999910593
YQcPt3B9,NA,NA,YQcPt3B9,2020-0188,2021-09-23,17:20:30,18:27:36,NA,incomplete,false,NA,true,8,15,NA,left,E30_Q6_ansR.png,E30_Q10_ansR.png,within,NA,NaN,NA,left,2743.5,1,1,3367.5
YQcPt3B9,NA,NA,YQcPt3B9,2020-0188,2021-09-23,17:20:30,18:27:36,NA,incomplete,false,NA,true,8,16,NA,left,E12_Q10_ansL.png,E12_Q2_ansL.png,within,NA,NaN,NA,left,1837.5999999940395,1,1,1148.0999999940395
YQcPt3B9,NA,NA,YQcPt3B9,2020-0188,2021-09-23,17:20:30,18:27:36,NA,incomplete,false,NA,true,8,17,NA,right,E30_Q2_ansL.png,E30_Q10_ansR.png,within,NA,NaN,NA,right,2175.2000000029802,1,1,1049.5
YQcPt3B9,NA,NA,YQcPt3B9,2020-0188,2021-09-23,17:20:30,18:27:36,NA,incomplete,false,NA,true,8,18,NA,right,E12_Q8_ansL.png,E12_Q1_ansL.png,within,NA,NaN,NA,left,3606.2999999970198,0,1,1395.7999999970198
YQcPt3B9,NA,NA,YQcPt3B9,2020-0188,2021-09-23,17:20:30,18:27:36,NA,incomplete,false,NA,true,8,19,NA,right,E12_Q9_ansR.png,E12_Q3_ansR.png,within,NA,NaN,NA,left,2422,0,1,1092.1000000089407
YQcPt3B9,NA,NA,YQcPt3B9,2020-0188,2021-09-23,17:20:30,18:27:36,NA,incomplete,false,NA,true,8,20,NA,right,E29_Q4_ansR.png,E29_Q8_ansL.png,within,NA,NaN,NA,left,2385.2999999970198,0,1,2159.2999999970198
YQcPt3B9,NA,NA,YQcPt3B9,2020-0188,2021-09-23,17:20:30,18:27:36,NA,incomplete,false,NA,true,8,21,NA,left,E29_Q4_ansR.png,E30_Q6_ansR.png,between,NA,NaN,NA,left,2595.3999999910593,1,2,1977.5
YQcPt3B9,NA,NA,YQcPt3B9,2020-0188,2021-09-23,17:20:30,18:27:36,NA,incomplete,false,NA,true,8,22,NA,right,E29_Q8_ansL.png,E29_Q10_ansL.png,within,NA,NaN,NA,right,5791.29999999702,1,1,927.7000000029802
YQcPt3B9,NA,NA,YQcPt3B9,2020-0188,2021-09-23,17:20:30,18:27:36,NA,incomplete,false,NA,true,8,23,NA,left,E30_Q2_ansL.png,E12_Q10_ansL.png,between,NA,NaN,NA,left,1699.9000000059605,1,2,1386.5999999940395
YQcPt3B9,NA,NA,YQcPt3B9,2020-0188,2021-09-23,17:20:30,18:27:36,NA,incomplete,false,NA,true,8,24,NA,left,E30_Q1_ansL.png,E30_Q3_ansL.png,within,NA,NaN,NA,left,2373.5,1,1,1649.5
YQcPt3B9,NA,NA,YQcPt3B9,2020-0188,2021-09-23,17:20:30,18:27:36,NA,incomplete,false,NA,true,8,25,NA,right,E12_Q3_ansR.png,E12_Q8_ansL.png,within,NA,NaN,NA,right,2652.7999999970198,1,1,976
YQcPt3B9,NA,NA,YQcPt3B9,2020-0188,2021-09-23,17:20:30,18:27:36,NA,incomplete,false,NA,true,8,26,NA,right,E12_Q7_ansL.png,E12_Q4_ansR.png,within,NA,NaN,NA,right,2249.4000000059605,1,1,1147.8999999910593
YQcPt3B9,NA,NA,YQcPt3B9,2020-0188,2021-09-23,17:20:30,18:27:36,NA,incomplete,false,true,NA,9,0,E24_Q1_ansR.png,right,NA,NA,NA,right,1704.79999999702,true,NA,NA,NA,NA,NA
YQcPt3B9,NA,NA,YQcPt3B9,2020-0188,2021-09-23,17:20:30,18:27:36,NA,incomplete,false,true,NA,9,1,E24_Q5_ansL.png,left,NA,NA,NA,left,2170.79999999702,true,NA,NA,NA,NA,NA
YQcPt3B9,NA,NA,YQcPt3B9,2020-0188,2021-09-23,17:20:30,18:27:36,NA,incomplete,false,true,NA,9,2,E24_Q6_ansL.png,left,NA,NA,NA,left,1996.20000000298,true,NA,NA,NA,NA,NA
YQcPt3B9,NA,NA,YQcPt3B9,2020-0188,2021-09-23,17:20:30,18:27:36,NA,incomplete,false,true,NA,9,3,E24_Q8_ansR.png,right,NA,NA,NA,right,1547.59999999404,true,NA,NA,NA,NA,NA
YQcPt3B9,NA,NA,YQcPt3B9,2020-0188,2021-09-23,17:20:30,18:27:36,NA,incomplete,false,true,NA,9,4,E24_Q9_ansL.png,left,NA,NA,NA,left,2126.59999999404,true,NA,NA,NA,NA,NA
YQcPt3B9,NA,NA,YQcPt3B9,2020-0188,2021-09-23,17:20:30,18:27:36,NA,incomplete,false,true,NA,9,5,E24_Q4_ansL.png,left,NA,NA,NA,left,1841.79999999702,true,NA,NA,NA,NA,NA
YQcPt3B9,NA,NA,YQcPt3B9,2020-0188,2021-09-23,17:20:30,18:27:36,NA,incomplete,false,true,NA,9,6,E24_Q10_ansR.png,right,NA,NA,NA,right,1873.60000000894,true,NA,NA,NA,NA,NA
YQcPt3B9,NA,NA,YQcPt3B9,2020-0188,2021-09-23,17:20:30,18:27:36,NA,incomplete,false,true,NA,9,7,E24_Q3_ansL.png,left,NA,NA,NA,left,1580.70000000298,true,NA,NA,NA,NA,NA
YQcPt3B9,NA,NA,YQcPt3B9,2020-0188,2021-09-23,17:20:30,18:27:36,NA,incomplete,false,true,NA,9,8,E24_Q7_ansR.png,right,NA,NA,NA,right,1867.39999999106,true,NA,NA,NA,NA,NA
YQcPt3B9,NA,NA,YQcPt3B9,2020-0188,2021-09-23,17:20:30,18:27:36,NA,incomplete,false,true,NA,9,9,E24_Q2_ansR.png,right,NA,NA,NA,right,2507.09999999404,true,NA,NA,NA,NA,NA
YQcPt3B9,NA,NA,YQcPt3B9,2020-0188,2021-09-23,17:20:30,18:27:36,NA,incomplete,false,true,NA,9,10,E10_Q10_ansR.png,right,NA,NA,NA,none,0,false,NA,NA,NA,NA,NA
YQcPt3B9,NA,NA,YQcPt3B9,2020-0188,2021-09-23,17:20:30,18:27:36,NA,incomplete,false,true,NA,9,11,E10_Q7_ansR.png,right,NA,NA,NA,right,2702.60000000894,true,NA,NA,NA,NA,NA
YQcPt3B9,NA,NA,YQcPt3B9,2020-0188,2021-09-23,17:20:30,18:27:36,NA,incomplete,false,true,NA,9,12,E10_Q4_ansL.png,left,NA,NA,NA,left,2252.5,true,NA,NA,NA,NA,NA
YQcPt3B9,NA,NA,YQcPt3B9,2020-0188,2021-09-23,17:20:30,18:27:36,NA,incomplete,false,true,NA,9,13,E10_Q9_ansL.png,left,NA,NA,NA,left,2440.40000000596,true,NA,NA,NA,NA,NA
YQcPt3B9,NA,NA,YQcPt3B9,2020-0188,2021-09-23,17:20:30,18:27:36,NA,incomplete,false,true,NA,9,14,E10_Q1_ansL.png,left,NA,NA,NA,left,2424.59999999404,true,NA,NA,NA,NA,NA
YQcPt3B9,NA,NA,YQcPt3B9,2020-0188,2021-09-23,17:20:30,18:27:36,NA,incomplete,false,true,NA,9,15,E10_Q2_ansL.png,left,NA,NA,NA,left,2429.20000000298,true,NA,NA,NA,NA,NA
YQcPt3B9,NA,NA,YQcPt3B9,2020-0188,2021-09-23,17:20:30,18:27:36,NA,incomplete,false,true,NA,9,16,E10_Q3_ansL.png,left,NA,NA,NA,right,2290.60000000894,false,NA,NA,NA,NA,NA
YQcPt3B9,NA,NA,YQcPt3B9,2020-0188,2021-09-23,17:20:30,18:27:36,NA,incomplete,false,true,NA,9,17,E10_Q8_ansR.png,right,NA,NA,NA,right,2819.29999999702,true,NA,NA,NA,NA,NA
YQcPt3B9,NA,NA,YQcPt3B9,2020-0188,2021-09-23,17:20:30,18:27:36,NA,incomplete,false,true,NA,9,18,E10_Q5_ansR.png,right,NA,NA,NA,right,2981.29999999702,true,NA,NA,NA,NA,NA
YQcPt3B9,NA,NA,YQcPt3B9,2020-0188,2021-09-23,17:20:30,18:27:36,NA,incomplete,false,true,NA,9,19,E10_Q6_ansR.png,right,NA,NA,NA,right,1944,true,NA,NA,NA,NA,NA
YQcPt3B9,NA,NA,YQcPt3B9,2020-0188,2021-09-23,17:20:30,18:27:36,NA,incomplete,false,true,NA,9,20,E11_Q8_ansR.png,right,NA,NA,NA,right,1894.89999999106,true,NA,NA,NA,NA,NA
YQcPt3B9,NA,NA,YQcPt3B9,2020-0188,2021-09-23,17:20:30,18:27:36,NA,incomplete,false,true,NA,9,21,E11_Q10_ansR.png,right,NA,NA,NA,right,1802.59999999404,true,NA,NA,NA,NA,NA
YQcPt3B9,NA,NA,YQcPt3B9,2020-0188,2021-09-23,17:20:30,18:27:36,NA,incomplete,false,true,NA,9,22,E11_Q2_ansR.png,right,NA,NA,NA,right,1801.60000000894,true,NA,NA,NA,NA,NA
YQcPt3B9,NA,NA,YQcPt3B9,2020-0188,2021-09-23,17:20:30,18:27:36,NA,incomplete,false,true,NA,9,23,E11_Q3_ansL.png,left,NA,NA,NA,left,2712.90000000596,true,NA,NA,NA,NA,NA
YQcPt3B9,NA,NA,YQcPt3B9,2020-0188,2021-09-23,17:20:30,18:27:36,NA,incomplete,false,true,NA,9,24,E11_Q4_ansL.png,left,NA,NA,NA,left,2951.09999999404,true,NA,NA,NA,NA,NA
YQcPt3B9,NA,NA,YQcPt3B9,2020-0188,2021-09-23,17:20:30,18:27:36,NA,incomplete,false,true,NA,9,25,E11_Q7_ansR.png,right,NA,NA,NA,right,1889.20000000298,true,NA,NA,NA,NA,NA
YQcPt3B9,NA,NA,YQcPt3B9,2020-0188,2021-09-23,17:20:30,18:27:36,NA,incomplete,false,true,NA,9,26,E11_Q9_ansL.png,left,NA,NA,NA,left,1780,true,NA,NA,NA,NA,NA
YQcPt3B9,NA,NA,YQcPt3B9,2020-0188,2021-09-23,17:20:30,18:27:36,NA,incomplete,false,true,NA,9,27,E11_Q5_ansL.png,left,NA,NA,NA,left,2212.40000000596,true,NA,NA,NA,NA,NA
YQcPt3B9,NA,NA,YQcPt3B9,2020-0188,2021-09-23,17:20:30,18:27:36,NA,incomplete,false,true,NA,9,28,E11_Q6_ansL.png,left,NA,NA,NA,left,1960.20000000298,true,NA,NA,NA,NA,NA
YQcPt3B9,NA,NA,YQcPt3B9,2020-0188,2021-09-23,17:20:30,18:27:36,NA,incomplete,false,true,NA,9,29,E11_Q1_ansR.png,right,NA,NA,NA,right,2032.40000000596,true,NA,NA,NA,NA,NA
YQcPt3B9,NA,NA,YQcPt3B9,2020-0188,2021-09-23,17:20:30,18:27:36,NA,incomplete,false,NA,true,9,0,NA,right,E11_Q8_ansR.png,E10_Q8_ansR.png,between,NA,NaN,NA,right,1477.6000000089407,1,2,5950.4000000059605
YQcPt3B9,NA,NA,YQcPt3B9,2020-0188,2021-09-23,17:20:30,18:27:36,NA,incomplete,false,NA,true,9,1,NA,right,E24_Q3_ansL.png,E24_Q9_ansL.png,within,NA,NaN,NA,right,3367.5999999940395,1,1,1091
YQcPt3B9,NA,NA,YQcPt3B9,2020-0188,2021-09-23,17:20:30,18:27:36,NA,incomplete,false,NA,true,9,2,NA,right,E11_Q3_ansL.png,E11_Q8_ansR.png,within,NA,NaN,NA,right,1566.2000000029802,1,1,1078.300000011921
YQcPt3B9,NA,NA,YQcPt3B9,2020-0188,2021-09-23,17:20:30,18:27:36,NA,incomplete,false,NA,true,9,3,NA,left,E24_Q1_ansR.png,E24_Q8_ansR.png,within,NA,NaN,NA,left,1421.0999999940395,1,1,933
YQcPt3B9,NA,NA,YQcPt3B9,2020-0188,2021-09-23,17:20:30,18:27:36,NA,incomplete,false,NA,true,9,4,NA,left,E24_Q5_ansL.png,E24_Q9_ansL.png,within,NA,NaN,NA,left,1763.300000011921,1,1,1065.6000000089407
YQcPt3B9,NA,NA,YQcPt3B9,2020-0188,2021-09-23,17:20:30,18:27:36,NA,incomplete,false,NA,true,9,5,NA,right,E11_Q5_ansL.png,E11_Q4_ansL.png,within,NA,NaN,NA,right,2643.1000000089407,1,1,794.5
YQcPt3B9,NA,NA,YQcPt3B9,2020-0188,2021-09-23,17:20:30,18:27:36,NA,incomplete,false,NA,true,9,6,NA,right,E11_Q1_ansR.png,E11_Q9_ansL.png,within,NA,NaN,NA,right,3005.9000000059605,1,1,1172.4000000059605
YQcPt3B9,NA,NA,YQcPt3B9,2020-0188,2021-09-23,17:20:30,18:27:36,NA,incomplete,false,NA,true,9,7,NA,left,E24_Q3_ansL.png,E10_Q10_ansR.png,between,NA,NaN,NA,left,2126.699999988079,1,2,3897.7999999970198
YQcPt3B9,NA,NA,YQcPt3B9,2020-0188,2021-09-23,17:20:30,18:27:36,NA,incomplete,false,NA,true,9,8,NA,right,E10_Q8_ansR.png,E10_Q1_ansL.png,within,NA,NaN,NA,right,2572.300000011921,1,1,2381.800000011921
YQcPt3B9,NA,NA,YQcPt3B9,2020-0188,2021-09-23,17:20:30,18:27:36,NA,incomplete,false,NA,true,9,9,NA,left,E10_Q3_ansL.png,E10_Q6_ansR.png,within,NA,NaN,NA,left,5709.5,1,1,1109.3999999910593
YQcPt3B9,NA,NA,YQcPt3B9,2020-0188,2021-09-23,17:20:30,18:27:36,NA,incomplete,false,NA,true,9,10,NA,left,E11_Q7_ansR.png,E11_Q6_ansL.png,within,NA,NaN,NA,left,4717.29999999702,1,1,1090.6000000089407
YQcPt3B9,NA,NA,YQcPt3B9,2020-0188,2021-09-23,17:20:30,18:27:36,NA,incomplete,false,NA,true,9,11,NA,right,E10_Q1_ansL.png,E10_Q7_ansR.png,within,NA,NaN,NA,right,1724.1000000089407,1,1,919
YQcPt3B9,NA,NA,YQcPt3B9,2020-0188,2021-09-23,17:20:30,18:27:36,NA,incomplete,false,NA,true,9,12,NA,right,E10_Q9_ansL.png,E10_Q10_ansR.png,within,NA,NaN,NA,right,2459.7000000029802,1,1,2398
