workerId,hitId,assignmentId,subject,studyid,exp_date,exp_start,exp_end,time_start,time_end,practice,encoding,memory,block,trial,event,stim,answer,label_left,label_right,left_image,right_image,condition,response,response_time,response_acc,order_response,order_response_time,order_acc,distance_response,distance_response_time
0E8F5Td3,NA,NA,0E8F5Td3,2020-0188,2021-09-26,15:10:12,16:03:09,NA,incomplete,true,true,NA,0,0,location,i_c_002.jpg,right,outdoor,indoor,NA,NA,NA,right,1423.20000004768,true,NA,NA,NA,NA,NA
0E8F5Td3,NA,NA,0E8F5Td3,2020-0188,2021-09-26,15:10:12,16:03:09,NA,incomplete,true,true,NA,0,1,location,i_s_012.jpg,left,indoor,outdoor,NA,NA,NA,left,1206.09999996424,true,NA,NA,NA,NA,NA
0E8F5Td3,NA,NA,0E8F5Td3,2020-0188,2021-09-26,15:10:12,16:03:09,NA,incomplete,true,true,NA,0,2,location,i_c_016.jpg,left,indoor,outdoor,NA,NA,NA,left,1220.30000001192,true,NA,NA,NA,NA,NA
0E8F5Td3,NA,NA,0E8F5Td3,2020-0188,2021-09-26,15:10:12,16:03:09,NA,incomplete,true,true,NA,0,3,location,i_c_020.jpg,left,indoor,outdoor,NA,NA,NA,left,909,true,NA,NA,NA,NA,NA
0E8F5Td3,NA,NA,0E8F5Td3,2020-0188,2021-09-26,15:10:12,16:03:09,NA,incomplete,true,true,NA,0,4,location,i_s_028.jpg,right,outdoor,indoor,NA,NA,NA,left,842,false,NA,NA,NA,NA,NA
0E8F5Td3,NA,NA,0E8F5Td3,2020-0188,2021-09-26,15:10:12,16:03:09,NA,incomplete,true,true,NA,0,5,building,i_s_017.jpg,right,cottage,skyscraper,NA,NA,NA,right,1903.59999996424,true,NA,NA,NA,NA,NA
0E8F5Td3,NA,NA,0E8F5Td3,2020-0188,2021-09-26,15:10:12,16:03:09,NA,incomplete,true,true,NA,0,6,building,i_c_015.jpg,right,skyscraper,cottage,NA,NA,NA,right,1287.29999995232,true,NA,NA,NA,NA,NA
0E8F5Td3,NA,NA,0E8F5Td3,2020-0188,2021-09-26,15:10:12,16:03:09,NA,incomplete,true,true,NA,0,7,building,i_c_011.jpg,right,skyscraper,cottage,NA,NA,NA,right,1198.5,true,NA,NA,NA,NA,NA
0E8F5Td3,NA,NA,0E8F5Td3,2020-0188,2021-09-26,15:10:12,16:03:09,NA,incomplete,true,true,NA,0,8,building,i_s_007.jpg,right,cottage,skyscraper,NA,NA,NA,right,1539.60000002384,true,NA,NA,NA,NA,NA
0E8F5Td3,NA,NA,0E8F5Td3,2020-0188,2021-09-26,15:10:12,16:03:09,NA,incomplete,true,true,NA,0,9,building,i_c_014.jpg,right,skyscraper,cottage,NA,NA,NA,right,1197.10000002384,true,NA,NA,NA,NA,NA
0E8F5Td3,NA,NA,0E8F5Td3,2020-0188,2021-09-26,15:10:12,16:03:09,NA,incomplete,true,true,NA,0,10,origin,m_l_009.jpg,right,natural,manmade,NA,NA,NA,right,1442.30000001192,true,NA,NA,NA,NA,NA
0E8F5Td3,NA,NA,0E8F5Td3,2020-0188,2021-09-26,15:10:12,16:03:09,NA,incomplete,true,true,NA,0,11,origin,n_s_014.jpg,right,manmade,natural,NA,NA,NA,right,1655.59999996424,true,NA,NA,NA,NA,NA
0E8F5Td3,NA,NA,0E8F5Td3,2020-0188,2021-09-26,15:10:12,16:03:09,NA,incomplete,true,true,NA,0,12,origin,n_s_005.jpg,right,manmade,natural,NA,NA,NA,right,2130.79999995232,true,NA,NA,NA,NA,NA
0E8F5Td3,NA,NA,0E8F5Td3,2020-0188,2021-09-26,15:10:12,16:03:09,NA,incomplete,true,true,NA,0,13,origin,m_s_013.jpg,right,natural,manmade,NA,NA,NA,right,1305.90000003576,true,NA,NA,NA,NA,NA
0E8F5Td3,NA,NA,0E8F5Td3,2020-0188,2021-09-26,15:10:12,16:03:09,NA,incomplete,true,true,NA,0,14,origin,m_l_005.jpg,left,manmade,natural,NA,NA,NA,left,1215.40000003576,true,NA,NA,NA,NA,NA
0E8F5Td3,NA,NA,0E8F5Td3,2020-0188,2021-09-26,15:10:12,16:03:09,NA,incomplete,true,true,NA,0,15,size,n_l_016.jpg,right,small,large,NA,NA,NA,right,1154.40000003576,true,NA,NA,NA,NA,NA
0E8F5Td3,NA,NA,0E8F5Td3,2020-0188,2021-09-26,15:10:12,16:03:09,NA,incomplete,true,true,NA,0,16,size,m_l_017.jpg,left,large,small,NA,NA,NA,right,3075.70000004768,false,NA,NA,NA,NA,NA
0E8F5Td3,NA,NA,0E8F5Td3,2020-0188,2021-09-26,15:10:12,16:03:09,NA,incomplete,true,true,NA,0,17,size,m_s_011.jpg,right,large,small,NA,NA,NA,right,1042,true,NA,NA,NA,NA,NA
0E8F5Td3,NA,NA,0E8F5Td3,2020-0188,2021-09-26,15:10:12,16:03:09,NA,incomplete,true,true,NA,0,18,size,n_s_011.jpg,right,large,small,NA,NA,NA,right,1187.40000003576,true,NA,NA,NA,NA,NA
0E8F5Td3,NA,NA,0E8F5Td3,2020-0188,2021-09-26,15:10:12,16:03:09,NA,incomplete,true,true,NA,0,19,size,m_l_002.jpg,left,large,small,NA,NA,NA,left,1083.30000001192,true,NA,NA,NA,NA,NA
0E8F5Td3,NA,NA,0E8F5Td3,2020-0188,2021-09-26,15:10:12,16:03:09,NA,incomplete,true,true,NA,0,20,abstractness,a_2_008.jpg,left,abstract,concrete,NA,NA,NA,left,2216,true,NA,NA,NA,NA,NA
0E8F5Td3,NA,NA,0E8F5Td3,2020-0188,2021-09-26,15:10:12,16:03:09,NA,incomplete,true,true,NA,0,21,abstractness,a_1_022.jpg,left,abstract,concrete,NA,NA,NA,right,2548.60000002384,false,NA,NA,NA,NA,NA
0E8F5Td3,NA,NA,0E8F5Td3,2020-0188,2021-09-26,15:10:12,16:03:09,NA,incomplete,true,true,NA,0,22,abstractness,c_1_021.jpg,left,concrete,abstract,NA,NA,NA,left,1733.59999996424,true,NA,NA,NA,NA,NA
0E8F5Td3,NA,NA,0E8F5Td3,2020-0188,2021-09-26,15:10:12,16:03:09,NA,incomplete,true,true,NA,0,23,abstractness,c_1_002.jpg,left,concrete,abstract,NA,NA,NA,left,1588.09999996424,true,NA,NA,NA,NA,NA
0E8F5Td3,NA,NA,0E8F5Td3,2020-0188,2021-09-26,15:10:12,16:03:09,NA,incomplete,true,true,NA,0,24,abstractness,c_1_023.jpg,right,abstract,concrete,NA,NA,NA,right,2621.30000001192,true,NA,NA,NA,NA,NA
0E8F5Td3,NA,NA,0E8F5Td3,2020-0188,2021-09-26,15:10:12,16:03:09,NA,incomplete,true,true,NA,0,25,syllable,c_1_003.jpg,right,1 syllable,2 syllables,NA,NA,NA,left,2210.60000002384,false,NA,NA,NA,NA,NA
0E8F5Td3,NA,NA,0E8F5Td3,2020-0188,2021-09-26,15:10:12,16:03:09,NA,incomplete,true,true,NA,0,26,syllable,c_1_027.jpg,right,2 syllables,1 syllable,NA,NA,NA,right,1191.60000002384,true,NA,NA,NA,NA,NA
0E8F5Td3,NA,NA,0E8F5Td3,2020-0188,2021-09-26,15:10:12,16:03:09,NA,incomplete,true,true,NA,0,27,syllable,c_2_017.jpg,right,2 syllables,1 syllable,NA,NA,NA,left,1434.69999998808,false,NA,NA,NA,NA,NA
0E8F5Td3,NA,NA,0E8F5Td3,2020-0188,2021-09-26,15:10:12,16:03:09,NA,incomplete,true,true,NA,0,28,syllable,a_2_023.jpg,right,1 syllable,2 syllables,NA,NA,NA,right,1513.89999997616,true,NA,NA,NA,NA,NA
0E8F5Td3,NA,NA,0E8F5Td3,2020-0188,2021-09-26,15:10:12,16:03:09,NA,incomplete,true,true,NA,0,29,syllable,c_2_021.jpg,right,1 syllable,2 syllables,NA,NA,NA,right,1223.69999998808,true,NA,NA,NA,NA,NA
0E8F5Td3,NA,NA,0E8F5Td3,2020-0188,2021-09-26,15:10:12,16:03:09,NA,incomplete,true,NA,true,0,0,NA,NA,right,NA,NA,m_s_013.jpg,m_l_009.jpg,within,NA,NaN,NA,right,2002.800000011921,1,0,4409.600000023842
0E8F5Td3,NA,NA,0E8F5Td3,2020-0188,2021-09-26,15:10:12,16:03:09,NA,incomplete,true,NA,true,0,1,NA,NA,left,NA,NA,c_1_002.jpg,c_1_027.jpg,between-small,NA,NaN,NA,left,4258,1,3,4111.099999964237
0E8F5Td3,NA,NA,0E8F5Td3,2020-0188,2021-09-26,15:10:12,16:03:09,NA,incomplete,true,NA,true,0,2,NA,NA,right,NA,NA,c_1_003.jpg,c_1_021.jpg,between-small,NA,NaN,NA,left,9110,0,3,1298.800000011921
0E8F5Td3,NA,NA,0E8F5Td3,2020-0188,2021-09-26,15:10:12,16:03:09,NA,incomplete,true,NA,true,0,3,NA,NA,left,NA,NA,n_s_011.jpg,a_1_022.jpg,between-big,NA,NaN,NA,left,3253.899999976158,1,1,1477.7000000476837
0E8F5Td3,NA,NA,0E8F5Td3,2020-0188,2021-09-26,15:10:12,16:03:09,NA,incomplete,true,NA,true,0,4,NA,NA,left,NA,NA,i_s_017.jpg,i_s_007.jpg,within,NA,NaN,NA,right,2647.2999999523163,0,1,1499.3999999761581
0E8F5Td3,NA,NA,0E8F5Td3,2020-0188,2021-09-26,15:10:12,16:03:09,NA,incomplete,true,NA,true,0,5,NA,NA,right,NA,NA,c_1_023.jpg,a_1_022.jpg,within,NA,NaN,NA,right,1542.699999988079,1,0,1257.5
0E8F5Td3,NA,NA,0E8F5Td3,2020-0188,2021-09-26,15:10:12,16:03:09,NA,incomplete,true,NA,true,0,6,NA,NA,left,NA,NA,i_c_002.jpg,i_c_020.jpg,within,NA,NaN,NA,right,3238.5,0,0,1240
0E8F5Td3,NA,NA,0E8F5Td3,2020-0188,2021-09-26,15:10:12,16:03:09,NA,incomplete,true,NA,true,0,7,NA,NA,right,NA,NA,m_l_002.jpg,m_l_017.jpg,within,NA,NaN,NA,right,1805.300000011921,1,1,1430.7999999523163
0E8F5Td3,NA,NA,0E8F5Td3,2020-0188,2021-09-26,15:10:12,16:03:09,NA,incomplete,true,NA,true,0,8,NA,NA,left,NA,NA,i_c_016.jpg,i_s_017.jpg,between-small,NA,NaN,NA,left,2391.800000011921,1,0,891.1999999880791
0E8F5Td3,NA,NA,0E8F5Td3,2020-0188,2021-09-26,15:10:12,16:03:09,NA,incomplete,true,NA,true,0,9,NA,NA,left,NA,NA,c_1_023.jpg,c_2_017.jpg,between-small,NA,NaN,NA,left,3310.899999976158,1,2,3875.899999976158
0E8F5Td3,NA,NA,0E8F5Td3,2020-0188,2021-09-26,15:10:12,16:03:09,NA,incomplete,true,NA,true,0,10,NA,NA,left,NA,NA,i_c_015.jpg,i_c_014.jpg,within,NA,NaN,NA,right,1950.5,0,0,1322.699999988079
0E8F5Td3,NA,NA,0E8F5Td3,2020-0188,2021-09-26,15:10:12,16:03:09,NA,incomplete,true,NA,true,0,11,NA,NA,right,NA,NA,i_c_011.jpg,i_s_028.jpg,between-small,NA,NaN,NA,right,2895.400000035763,1,0,1497.5
0E8F5Td3,NA,NA,0E8F5Td3,2020-0188,2021-09-26,15:10:12,16:03:09,NA,incomplete,true,NA,true,0,12,NA,NA,right,NA,NA,c_2_021.jpg,c_1_027.jpg,within,NA,NaN,NA,right,3318.7000000476837,1,0,2100.400000035763
0E8F5Td3,NA,NA,0E8F5Td3,2020-0188,2021-09-26,15:10:12,16:03:09,NA,incomplete,true,NA,true,0,13,NA,NA,left,NA,NA,m_s_013.jpg,m_l_017.jpg,between-small,NA,NaN,NA,right,2028.0999999642372,0,0,2055.800000011921
0E8F5Td3,NA,NA,0E8F5Td3,2020-0188,2021-09-26,15:10:12,16:03:09,NA,incomplete,true,NA,true,0,14,NA,NA,left,NA,NA,m_l_002.jpg,c_1_021.jpg,between-big,NA,NaN,NA,left,1323.6000000238419,1,3,1550.300000011921
0E8F5Td3,NA,NA,0E8F5Td3,2020-0188,2021-09-26,15:10:12,16:03:09,NA,incomplete,true,NA,true,0,15,NA,NA,left,NA,NA,m_s_011.jpg,a_2_008.jpg,between-big,NA,NaN,NA,left,1506.7000000476837,1,2,1126.699999988079
0E8F5Td3,NA,NA,0E8F5Td3,2020-0188,2021-09-26,15:10:12,16:03:09,NA,incomplete,true,NA,true,0,16,NA,NA,left,NA,NA,i_s_007.jpg,n_s_014.jpg,between-big,NA,NaN,NA,left,1753,1,3,1464.8999999761581
0E8F5Td3,NA,NA,0E8F5Td3,2020-0188,2021-09-26,15:10:12,16:03:09,NA,incomplete,true,NA,true,0,17,NA,NA,right,NA,NA,n_s_005.jpg,i_c_014.jpg,between-big,NA,NaN,NA,right,4033.699999988079,1,3,809.8000000119209
0E8F5Td3,NA,NA,0E8F5Td3,2020-0188,2021-09-26,15:10:12,16:03:09,NA,incomplete,true,NA,true,0,18,NA,NA,left,NA,NA,a_2_008.jpg,c_1_002.jpg,within,NA,NaN,NA,left,8976.699999988079,1,2,1010.8000000119209
0E8F5Td3,NA,NA,0E8F5Td3,2020-0188,2021-09-26,15:10:12,16:03:09,NA,incomplete,true,NA,true,0,19,NA,NA,right,NA,NA,a_2_023.jpg,c_1_003.jpg,within,NA,NaN,NA,right,1473.199999988079,1,1,1312.8999999761581
0E8F5Td3,NA,NA,0E8F5Td3,2020-0188,2021-09-26,15:10:12,16:03:09,NA,incomplete,true,NA,true,0,20,NA,NA,right,NA,NA,n_s_011.jpg,n_l_016.jpg,within,NA,NaN,NA,right,1095.8999999761581,1,0,1909
0E8F5Td3,NA,NA,0E8F5Td3,2020-0188,2021-09-26,15:10:12,16:03:09,NA,incomplete,true,NA,true,0,21,NA,NA,left,NA,NA,i_c_011.jpg,m_l_009.jpg,between-big,NA,NaN,NA,left,2992.300000011921,1,3,1076.199999988079
0E8F5Td3,NA,NA,0E8F5Td3,2020-0188,2021-09-26,15:10:12,16:03:09,NA,incomplete,true,NA,true,0,22,NA,NA,left,NA,NA,m_l_005.jpg,m_s_011.jpg,between-small,NA,NaN,NA,left,2776.300000011921,1,2,793.8000000119209
0E8F5Td3,NA,NA,0E8F5Td3,2020-0188,2021-09-26,15:10:12,16:03:09,NA,incomplete,true,NA,true,0,23,NA,NA,left,NA,NA,n_s_014.jpg,m_l_005.jpg,within,NA,NaN,NA,left,3611.800000011921,1,0,1348.0999999642372
0E8F5Td3,NA,NA,0E8F5Td3,2020-0188,2021-09-26,15:10:12,16:03:09,NA,incomplete,true,NA,true,0,24,NA,NA,right,NA,NA,i_s_028.jpg,i_s_012.jpg,within,NA,NaN,NA,left,5599.899999976158,0,0,993
0E8F5Td3,NA,NA,0E8F5Td3,2020-0188,2021-09-26,15:10:12,16:03:09,NA,incomplete,true,NA,true,0,25,NA,NA,right,NA,NA,i_c_015.jpg,i_c_020.jpg,between-small,NA,NaN,NA,right,2520.5,1,0,1577.300000011921
0E8F5Td3,NA,NA,0E8F5Td3,2020-0188,2021-09-26,15:10:12,16:03:09,NA,incomplete,true,NA,true,0,26,NA,NA,left,NA,NA,n_s_005.jpg,n_l_016.jpg,between-small,NA,NaN,NA,left,1202.300000011921,1,0,1528.5
0E8F5Td3,NA,NA,0E8F5Td3,2020-0188,2021-09-26,15:10:12,16:03:09,NA,incomplete,false,true,NA,1,0,building,i_c_001.jpg,right,skyscraper,cottage,NA,NA,NA,right,1608,true,NA,NA,NA,NA,NA
0E8F5Td3,NA,NA,0E8F5Td3,2020-0188,2021-09-26,15:10:12,16:03:09,NA,incomplete,false,true,NA,1,1,building,i_c_009.jpg,right,skyscraper,cottage,NA,NA,NA,right,1092.30000001192,true,NA,NA,NA,NA,NA
0E8F5Td3,NA,NA,0E8F5Td3,2020-0188,2021-09-26,15:10:12,16:03:09,NA,incomplete,false,true,NA,1,2,building,o_s_005.jpg,right,cottage,skyscraper,NA,NA,NA,right,1254.39999997616,true,NA,NA,NA,NA,NA
0E8F5Td3,NA,NA,0E8F5Td3,2020-0188,2021-09-26,15:10:12,16:03:09,NA,incomplete,false,true,NA,1,3,building,o_s_013.jpg,left,skyscraper,cottage,NA,NA,NA,left,1284.30000001192,true,NA,NA,NA,NA,NA
0E8F5Td3,NA,NA,0E8F5Td3,2020-0188,2021-09-26,15:10:12,16:03:09,NA,incomplete,false,true,NA,1,4,building,o_c_020.jpg,left,cottage,skyscraper,NA,NA,NA,left,942.400000035763,true,NA,NA,NA,NA,NA
0E8F5Td3,NA,NA,0E8F5Td3,2020-0188,2021-09-26,15:10:12,16:03:09,NA,incomplete,false,true,NA,1,5,location,i_c_021.jpg,left,indoor,outdoor,NA,NA,NA,left,1120.19999998808,true,NA,NA,NA,NA,NA
0E8F5Td3,NA,NA,0E8F5Td3,2020-0188,2021-09-26,15:10:12,16:03:09,NA,incomplete,false,true,NA,1,6,location,i_s_005.jpg,left,indoor,outdoor,NA,NA,NA,left,1501,true,NA,NA,NA,NA,NA
0E8F5Td3,NA,NA,0E8F5Td3,2020-0188,2021-09-26,15:10:12,16:03:09,NA,incomplete,false,true,NA,1,7,location,i_s_026.jpg,left,indoor,outdoor,NA,NA,NA,left,1191.59999996424,true,NA,NA,NA,NA,NA
0E8F5Td3,NA,NA,0E8F5Td3,2020-0188,2021-09-26,15:10:12,16:03:09,NA,incomplete,false,true,NA,1,8,location,i_c_023.jpg,left,indoor,outdoor,NA,NA,NA,left,2283.09999996424,true,NA,NA,NA,NA,NA
0E8F5Td3,NA,NA,0E8F5Td3,2020-0188,2021-09-26,15:10:12,16:03:09,NA,incomplete,false,true,NA,1,9,location,o_s_025.jpg,left,outdoor,indoor,NA,NA,NA,left,1715.90000003576,true,NA,NA,NA,NA,NA
0E8F5Td3,NA,NA,0E8F5Td3,2020-0188,2021-09-26,15:10:12,16:03:09,NA,incomplete,false,true,NA,1,10,origin,n_s_019.jpg,right,manmade,natural,NA,NA,NA,right,1225.5,true,NA,NA,NA,NA,NA
0E8F5Td3,NA,NA,0E8F5Td3,2020-0188,2021-09-26,15:10:12,16:03:09,NA,incomplete,false,true,NA,1,11,origin,m_l_022.jpg,left,manmade,natural,NA,NA,NA,left,1036.5,true,NA,NA,NA,NA,NA
0E8F5Td3,NA,NA,0E8F5Td3,2020-0188,2021-09-26,15:10:12,16:03:09,NA,incomplete,false,true,NA,1,12,origin,m_s_008.jpg,left,manmade,natural,NA,NA,NA,left,1573,true,NA,NA,NA,NA,NA
0E8F5Td3,NA,NA,0E8F5Td3,2020-0188,2021-09-26,15:10:12,16:03:09,NA,incomplete,false,true,NA,1,13,origin,n_s_002.jpg,left,natural,manmade,NA,NA,NA,left,1240.20000004768,true,NA,NA,NA,NA,NA
0E8F5Td3,NA,NA,0E8F5Td3,2020-0188,2021-09-26,15:10:12,16:03:09,NA,incomplete,false,true,NA,1,14,origin,n_l_006.jpg,right,manmade,natural,NA,NA,NA,right,1353.19999998808,true,NA,NA,NA,NA,NA
0E8F5Td3,NA,NA,0E8F5Td3,2020-0188,2021-09-26,15:10:12,16:03:09,NA,incomplete,false,true,NA,1,15,size,n_l_005.jpg,right,small,large,NA,NA,NA,right,1284.60000002384,true,NA,NA,NA,NA,NA
0E8F5Td3,NA,NA,0E8F5Td3,2020-0188,2021-09-26,15:10:12,16:03:09,NA,incomplete,false,true,NA,1,16,size,n_l_007.jpg,left,large,small,NA,NA,NA,right,3084.5,false,NA,NA,NA,NA,NA
0E8F5Td3,NA,NA,0E8F5Td3,2020-0188,2021-09-26,15:10:12,16:03:09,NA,incomplete,false,true,NA,1,17,size,m_s_009.jpg,left,small,large,NA,NA,NA,left,1145.69999998808,true,NA,NA,NA,NA,NA
0E8F5Td3,NA,NA,0E8F5Td3,2020-0188,2021-09-26,15:10:12,16:03:09,NA,incomplete,false,true,NA,1,18,size,n_l_020.jpg,right,small,large,NA,NA,NA,right,1137.89999997616,true,NA,NA,NA,NA,NA
0E8F5Td3,NA,NA,0E8F5Td3,2020-0188,2021-09-26,15:10:12,16:03:09,NA,incomplete,false,true,NA,1,19,size,m_s_025.jpg,right,large,small,NA,NA,NA,right,1199.5,true,NA,NA,NA,NA,NA
0E8F5Td3,NA,NA,0E8F5Td3,2020-0188,2021-09-26,15:10:12,16:03:09,NA,incomplete,false,true,NA,1,20,syllable,a_1_009.jpg,right,2 syllables,1 syllable,NA,NA,NA,right,1941.90000003576,true,NA,NA,NA,NA,NA
0E8F5Td3,NA,NA,0E8F5Td3,2020-0188,2021-09-26,15:10:12,16:03:09,NA,incomplete,false,true,NA,1,21,syllable,c_2_002.jpg,right,1 syllable,2 syllables,NA,NA,NA,right,1504.30000001192,true,NA,NA,NA,NA,NA
0E8F5Td3,NA,NA,0E8F5Td3,2020-0188,2021-09-26,15:10:12,16:03:09,NA,incomplete,false,true,NA,1,22,syllable,a_1_017.jpg,right,1 syllable,2 syllables,NA,NA,NA,left,2138.89999997616,false,NA,NA,NA,NA,NA
0E8F5Td3,NA,NA,0E8F5Td3,2020-0188,2021-09-26,15:10:12,16:03:09,NA,incomplete,false,true,NA,1,23,syllable,c_1_010.jpg,right,1 syllable,2 syllables,NA,NA,NA,left,1367.30000001192,false,NA,NA,NA,NA,NA
0E8F5Td3,NA,NA,0E8F5Td3,2020-0188,2021-09-26,15:10:12,16:03:09,NA,incomplete,false,true,NA,1,24,syllable,a_1_007.jpg,right,1 syllable,2 syllables,NA,NA,NA,left,1265.40000003576,false,NA,NA,NA,NA,NA
0E8F5Td3,NA,NA,0E8F5Td3,2020-0188,2021-09-26,15:10:12,16:03:09,NA,incomplete,false,true,NA,1,25,abstractness,a_1_004.jpg,left,abstract,concrete,NA,NA,NA,left,3279,true,NA,NA,NA,NA,NA
0E8F5Td3,NA,NA,0E8F5Td3,2020-0188,2021-09-26,15:10:12,16:03:09,NA,incomplete,false,true,NA,1,26,abstractness,c_2_028.jpg,right,abstract,concrete,NA,NA,NA,right,1391.19999998808,true,NA,NA,NA,NA,NA
0E8F5Td3,NA,NA,0E8F5Td3,2020-0188,2021-09-26,15:10:12,16:03:09,NA,incomplete,false,true,NA,1,27,abstractness,a_2_027.jpg,right,concrete,abstract,NA,NA,NA,right,1314.39999997616,true,NA,NA,NA,NA,NA
0E8F5Td3,NA,NA,0E8F5Td3,2020-0188,2021-09-26,15:10:12,16:03:09,NA,incomplete,false,true,NA,1,28,abstractness,a_1_011.jpg,right,concrete,abstract,NA,NA,NA,right,3269.39999997616,true,NA,NA,NA,NA,NA
0E8F5Td3,NA,NA,0E8F5Td3,2020-0188,2021-09-26,15:10:12,16:03:09,NA,incomplete,false,true,NA,1,29,abstractness,c_2_018.jpg,left,concrete,abstract,NA,NA,NA,left,998,true,NA,NA,NA,NA,NA
0E8F5Td3,NA,NA,0E8F5Td3,2020-0188,2021-09-26,15:10:12,16:03:09,NA,incomplete,false,NA,true,1,0,NA,NA,right,NA,NA,o_c_020.jpg,i_c_009.jpg,within,NA,NaN,NA,right,3861.100000023842,1,1,1872.1000000238419
0E8F5Td3,NA,NA,0E8F5Td3,2020-0188,2021-09-26,15:10:12,16:03:09,NA,incomplete,false,NA,true,1,1,NA,NA,right,NA,NA,m_s_009.jpg,n_l_006.jpg,between-small,NA,NaN,NA,right,2211.399999976158,1,1,3003.899999976158
0E8F5Td3,NA,NA,0E8F5Td3,2020-0188,2021-09-26,15:10:12,16:03:09,NA,incomplete,false,NA,true,1,2,NA,NA,left,NA,NA,i_c_001.jpg,o_s_013.jpg,within,NA,NaN,NA,right,1555.3999999761581,0,1,1008.1999999880791
0E8F5Td3,NA,NA,0E8F5Td3,2020-0188,2021-09-26,15:10:12,16:03:09,NA,incomplete,false,NA,true,1,3,NA,NA,left,NA,NA,i_s_005.jpg,o_s_025.jpg,within,NA,NaN,NA,right,1216.199999988079,0,1,1588.300000011921
0E8F5Td3,NA,NA,0E8F5Td3,2020-0188,2021-09-26,15:10:12,16:03:09,NA,incomplete,false,NA,true,1,4,NA,NA,right,NA,NA,i_s_026.jpg,o_c_020.jpg,between-small,NA,NaN,NA,right,2289,1,1,1383.6000000238419
0E8F5Td3,NA,NA,0E8F5Td3,2020-0188,2021-09-26,15:10:12,16:03:09,NA,incomplete,false,NA,true,1,5,NA,NA,right,NA,NA,m_l_022.jpg,i_c_023.jpg,between-big,NA,NaN,NA,right,1394,1,2,1521.199999988079
0E8F5Td3,NA,NA,0E8F5Td3,2020-0188,2021-09-26,15:10:12,16:03:09,NA,incomplete,false,NA,true,1,6,NA,NA,right,NA,NA,n_l_006.jpg,m_l_022.jpg,within,NA,NaN,NA,right,1022.8000000119209,1,0,1425
0E8F5Td3,NA,NA,0E8F5Td3,2020-0188,2021-09-26,15:10:12,16:03:09,NA,incomplete,false,NA,true,1,7,NA,NA,right,NA,NA,i_s_005.jpg,o_s_013.jpg,between-small,NA,NaN,NA,right,988.6999999880791,1,1,1540.1000000238419
0E8F5Td3,NA,NA,0E8F5Td3,2020-0188,2021-09-26,15:10:12,16:03:09,NA,incomplete,false,NA,true,1,8,NA,NA,left,NA,NA,a_1_009.jpg,c_1_010.jpg,within,NA,NaN,NA,left,4700.5,1,0,1086.6000000238419
0E8F5Td3,NA,NA,0E8F5Td3,2020-0188,2021-09-26,15:10:12,16:03:09,NA,incomplete,false,NA,true,1,9,NA,NA,right,NA,NA,i_c_021.jpg,o_s_005.jpg,between-small,NA,NaN,NA,right,725.4000000357628,1,1,873.1999999880791
0E8F5Td3,NA,NA,0E8F5Td3,2020-0188,2021-09-26,15:10:12,16:03:09,NA,incomplete,false,NA,true,1,10,NA,NA,right,NA,NA,a_1_004.jpg,a_1_017.jpg,between-small,NA,NaN,NA,left,3413.800000011921,0,1,866.1999999880791
0E8F5Td3,NA,NA,0E8F5Td3,2020-0188,2021-09-26,15:10:12,16:03:09,NA,incomplete,false,NA,true,1,11,NA,NA,right,NA,NA,a_1_007.jpg,c_2_002.jpg,within,NA,NaN,NA,right,3332.899999976158,1,0,1396
0E8F5Td3,NA,NA,0E8F5Td3,2020-0188,2021-09-26,15:10:12,16:03:09,NA,incomplete,false,NA,true,1,12,NA,NA,left,NA,NA,m_s_025.jpg,a_1_017.jpg,between-big,NA,NaN,NA,right,2932.400000035763,0,2,1370
0E8F5Td3,NA,NA,0E8F5Td3,2020-0188,2021-09-26,15:10:12,16:03:09,NA,incomplete,false,NA,true,1,13,NA,NA,right,NA,NA,a_2_027.jpg,a_1_007.jpg,between-small,NA,NaN,NA,right,3672.300000011921,1,1,1147.199999988079
0E8F5Td3,NA,NA,0E8F5Td3,2020-0188,2021-09-26,15:10:12,16:03:09,NA,incomplete,false,NA,true,1,14,NA,NA,right,NA,NA,n_l_005.jpg,m_s_008.jpg,between-small,NA,NaN,NA,right,2509.900000035763,1,1,6248.699999988079
0E8F5Td3,NA,NA,0E8F5Td3,2020-0188,2021-09-26,15:10:12,16:03:09,NA,incomplete,false,NA,true,1,15,NA,NA,right,NA,NA,n_s_019.jpg,i_s_026.jpg,between-big,NA,NaN,NA,right,1516.2000000476837,1,2,1802.3999999761581
0E8F5Td3,NA,NA,0E8F5Td3,2020-0188,2021-09-26,15:10:12,16:03:09,NA,incomplete,false,NA,true,1,16,NA,NA,right,NA,NA,c_2_018.jpg,c_2_028.jpg,within,NA,NaN,NA,right,1651.7000000476837,1,1,1266.0999999642372
0E8F5Td3,NA,NA,0E8F5Td3,2020-0188,2021-09-26,15:10:12,16:03:09,NA,incomplete,false,NA,true,1,17,NA,NA,left,NA,NA,i_c_021.jpg,i_c_023.jpg,within,NA,NaN,NA,right,1498.300000011921,0,1,1666.199999988079
0E8F5Td3,NA,NA,0E8F5Td3,2020-0188,2021-09-26,15:10:12,16:03:09,NA,incomplete,false,NA,true,1,18,NA,NA,right,NA,NA,c_2_002.jpg,n_l_020.jpg,between-big,NA,NaN,NA,left,1811.300000011921,0,2,789.6999999880791
0E8F5Td3,NA,NA,0E8F5Td3,2020-0188,2021-09-26,15:10:12,16:03:09,NA,incomplete,false,NA,true,1,19,NA,NA,right,NA,NA,n_s_002.jpg,n_s_019.jpg,within,NA,NaN,NA,left,1553.5999999642372,0,0,906.8000000119209
0E8F5Td3,NA,NA,0E8F5Td3,2020-0188,2021-09-26,15:10:12,16:03:09,NA,incomplete,false,NA,true,1,20,NA,NA,left,NA,NA,a_1_004.jpg,a_1_011.jpg,within,NA,NaN,NA,left,905.6999999880791,1,1,815.5
0E8F5Td3,NA,NA,0E8F5Td3,2020-0188,2021-09-26,15:10:12,16:03:09,NA,incomplete,false,NA,true,1,21,NA,NA,right,NA,NA,m_s_025.jpg,n_l_007.jpg,within,NA,NaN,NA,right,897.4000000357628,1,0,918.3999999761581
0E8F5Td3,NA,NA,0E8F5Td3,2020-0188,2021-09-26,15:10:12,16:03:09,NA,incomplete,false,NA,true,1,22,NA,NA,right,NA,NA,m_s_008.jpg,o_s_025.jpg,between-big,NA,NaN,NA,right,1179.6000000238419,1,3,1173.1000000238419
0E8F5Td3,NA,NA,0E8F5Td3,2020-0188,2021-09-26,15:10:12,16:03:09,NA,incomplete,false,NA,true,1,23,NA,NA,left,NA,NA,n_l_005.jpg,n_l_020.jpg,within,NA,NaN,NA,left,3239.600000023842,1,0,1252.6000000238419
0E8F5Td3,NA,NA,0E8F5Td3,2020-0188,2021-09-26,15:10:12,16:03:09,NA,incomplete,false,NA,true,1,24,NA,NA,left,NA,NA,c_1_010.jpg,c_2_028.jpg,between-small,NA,NaN,NA,right,2028.800000011921,0,1,1184.1000000238419
0E8F5Td3,NA,NA,0E8F5Td3,2020-0188,2021-09-26,15:10:12,16:03:09,NA,incomplete,false,NA,true,1,25,NA,NA,left,NA,NA,m_s_009.jpg,a_1_009.jpg,between-big,NA,NaN,NA,right,2351.2000000476837,0,1,4744.100000023842
0E8F5Td3,NA,NA,0E8F5Td3,2020-0188,2021-09-26,15:10:12,16:03:09,NA,incomplete,false,NA,true,1,26,NA,NA,left,NA,NA,n_s_002.jpg,n_l_007.jpg,between-small,NA,NaN,NA,right,5118.400000035763,0,1,1436
0E8F5Td3,NA,NA,0E8F5Td3,2020-0188,2021-09-26,15:10:12,16:03:09,NA,incomplete,false,true,NA,2,0,building,o_c_024.jpg,left,cottage,skyscraper,NA,NA,NA,left,1653.20000004768,true,NA,NA,NA,NA,NA
0E8F5Td3,NA,NA,0E8F5Td3,2020-0188,2021-09-26,15:10:12,16:03:09,NA,incomplete,false,true,NA,2,1,building,o_c_017.jpg,left,cottage,skyscraper,NA,NA,NA,left,956.699999988079,true,NA,NA,NA,NA,NA
0E8F5Td3,NA,NA,0E8F5Td3,2020-0188,2021-09-26,15:10:12,16:03:09,NA,incomplete,false,true,NA,2,2,building,i_s_019.jpg,right,cottage,skyscraper,NA,NA,NA,right,930.100000023842,true,NA,NA,NA,NA,NA
0E8F5Td3,NA,NA,0E8F5Td3,2020-0188,2021-09-26,15:10:12,16:03:09,NA,incomplete,false,true,NA,2,3,building,i_s_016.jpg,left,skyscraper,cottage,NA,NA,NA,left,1294,true,NA,NA,NA,NA,NA
0E8F5Td3,NA,NA,0E8F5Td3,2020-0188,2021-09-26,15:10:12,16:03:09,NA,incomplete,false,true,NA,2,4,building,o_c_023.jpg,right,skyscraper,cottage,NA,NA,NA,right,1438.60000002384,true,NA,NA,NA,NA,NA
0E8F5Td3,NA,NA,0E8F5Td3,2020-0188,2021-09-26,15:10:12,16:03:09,NA,incomplete,false,true,NA,2,5,location,o_c_010.jpg,left,outdoor,indoor,NA,NA,NA,left,1679.89999997616,true,NA,NA,NA,NA,NA
0E8F5Td3,NA,NA,0E8F5Td3,2020-0188,2021-09-26,15:10:12,16:03:09,NA,incomplete,false,true,NA,2,6,location,i_c_005.jpg,right,outdoor,indoor,NA,NA,NA,right,1558.19999998808,true,NA,NA,NA,NA,NA
0E8F5Td3,NA,NA,0E8F5Td3,2020-0188,2021-09-26,15:10:12,16:03:09,NA,incomplete,false,true,NA,2,7,location,o_s_020.jpg,left,outdoor,indoor,NA,NA,NA,left,2819.5,true,NA,NA,NA,NA,NA
0E8F5Td3,NA,NA,0E8F5Td3,2020-0188,2021-09-26,15:10:12,16:03:09,NA,incomplete,false,true,NA,2,8,location,i_s_001.jpg,left,indoor,outdoor,NA,NA,NA,left,2216.80000001192,true,NA,NA,NA,NA,NA
0E8F5Td3,NA,NA,0E8F5Td3,2020-0188,2021-09-26,15:10:12,16:03:09,NA,incomplete,false,true,NA,2,9,location,o_s_008.jpg,right,indoor,outdoor,NA,NA,NA,right,1425.59999996424,true,NA,NA,NA,NA,NA
0E8F5Td3,NA,NA,0E8F5Td3,2020-0188,2021-09-26,15:10:12,16:03:09,NA,incomplete,false,true,NA,2,10,syllable,a_1_021.jpg,right,1 syllable,2 syllables,NA,NA,NA,left,1371.10000002384,false,NA,NA,NA,NA,NA
0E8F5Td3,NA,NA,0E8F5Td3,2020-0188,2021-09-26,15:10:12,16:03:09,NA,incomplete,false,true,NA,2,11,syllable,c_1_025.jpg,right,2 syllables,1 syllable,NA,NA,NA,right,1161.5,true,NA,NA,NA,NA,NA
0E8F5Td3,NA,NA,0E8F5Td3,2020-0188,2021-09-26,15:10:12,16:03:09,NA,incomplete,false,true,NA,2,12,syllable,a_2_002.jpg,right,2 syllables,1 syllable,NA,NA,NA,left,1347.40000003576,false,NA,NA,NA,NA,NA
0E8F5Td3,NA,NA,0E8F5Td3,2020-0188,2021-09-26,15:10:12,16:03:09,NA,incomplete,false,true,NA,2,13,syllable,a_2_014.jpg,right,1 syllable,2 syllables,NA,NA,NA,right,1619.89999997616,true,NA,NA,NA,NA,NA
0E8F5Td3,NA,NA,0E8F5Td3,2020-0188,2021-09-26,15:10:12,16:03:09,NA,incomplete,false,true,NA,2,14,syllable,c_1_006.jpg,right,1 syllable,2 syllables,NA,NA,NA,left,1221.39999997616,false,NA,NA,NA,NA,NA
0E8F5Td3,NA,NA,0E8F5Td3,2020-0188,2021-09-26,15:10:12,16:03:09,NA,incomplete,false,true,NA,2,15,abstractness,a_2_024.jpg,right,concrete,abstract,NA,NA,NA,right,2515.5,true,NA,NA,NA,NA,NA
0E8F5Td3,NA,NA,0E8F5Td3,2020-0188,2021-09-26,15:10:12,16:03:09,NA,incomplete,false,true,NA,2,16,abstractness,c_2_015.jpg,left,concrete,abstract,NA,NA,NA,left,1758.70000004768,true,NA,NA,NA,NA,NA
0E8F5Td3,NA,NA,0E8F5Td3,2020-0188,2021-09-26,15:10:12,16:03:09,NA,incomplete,false,true,NA,2,17,abstractness,a_2_017.jpg,left,abstract,concrete,NA,NA,NA,left,1364.30000001192,true,NA,NA,NA,NA,NA
0E8F5Td3,NA,NA,0E8F5Td3,2020-0188,2021-09-26,15:10:12,16:03:09,NA,incomplete,false,true,NA,2,18,abstractness,c_1_026.jpg,left,concrete,abstract,NA,NA,NA,left,1424.40000003576,true,NA,NA,NA,NA,NA
0E8F5Td3,NA,NA,0E8F5Td3,2020-0188,2021-09-26,15:10:12,16:03:09,NA,incomplete,false,true,NA,2,19,abstractness,a_2_016.jpg,left,abstract,concrete,NA,NA,NA,left,1187.89999997616,true,NA,NA,NA,NA,NA
0E8F5Td3,NA,NA,0E8F5Td3,2020-0188,2021-09-26,15:10:12,16:03:09,NA,incomplete,false,true,NA,2,20,origin,m_l_003.jpg,left,manmade,natural,NA,NA,NA,left,1942.30000001192,true,NA,NA,NA,NA,NA
0E8F5Td3,NA,NA,0E8F5Td3,2020-0188,2021-09-26,15:10:12,16:03:09,NA,incomplete,false,true,NA,2,21,origin,n_s_008.jpg,right,manmade,natural,NA,NA,NA,right,2462,true,NA,NA,NA,NA,NA
0E8F5Td3,NA,NA,0E8F5Td3,2020-0188,2021-09-26,15:10:12,16:03:09,NA,incomplete,false,true,NA,2,22,origin,n_s_023.jpg,left,natural,manmade,NA,NA,NA,left,2076.10000002384,true,NA,NA,NA,NA,NA
0E8F5Td3,NA,NA,0E8F5Td3,2020-0188,2021-09-26,15:10:12,16:03:09,NA,incomplete,false,true,NA,2,23,origin,m_s_007.jpg,left,manmade,natural,NA,NA,NA,left,1252.90000003576,true,NA,NA,NA,NA,NA
0E8F5Td3,NA,NA,0E8F5Td3,2020-0188,2021-09-26,15:10:12,16:03:09,NA,incomplete,false,true,NA,2,24,origin,n_l_024.jpg,left,natural,manmade,NA,NA,NA,left,1302,true,NA,NA,NA,NA,NA
0E8F5Td3,NA,NA,0E8F5Td3,2020-0188,2021-09-26,15:10:12,16:03:09,NA,incomplete,false,true,NA,2,25,size,n_l_004.jpg,left,large,small,NA,NA,NA,left,1164.60000002384,true,NA,NA,NA,NA,NA
0E8F5Td3,NA,NA,0E8F5Td3,2020-0188,2021-09-26,15:10:12,16:03:09,NA,incomplete,false,true,NA,2,26,size,n_l_017.jpg,right,small,large,NA,NA,NA,right,1325.69999998808,true,NA,NA,NA,NA,NA
0E8F5Td3,NA,NA,0E8F5Td3,2020-0188,2021-09-26,15:10:12,16:03:09,NA,incomplete,false,true,NA,2,27,size,n_s_021.jpg,right,large,small,NA,NA,NA,right,1064,true,NA,NA,NA,NA,NA
0E8F5Td3,NA,NA,0E8F5Td3,2020-0188,2021-09-26,15:10:12,16:03:09,NA,incomplete,false,true,NA,2,28,size,m_s_028.jpg,right,large,small,NA,NA,NA,right,2276.10000002384,true,NA,NA,NA,NA,NA
0E8F5Td3,NA,NA,0E8F5Td3,2020-0188,2021-09-26,15:10:12,16:03:09,NA,incomplete,false,true,NA,2,29,size,m_l_014.jpg,right,small,large,NA,NA,NA,right,984.899999976158,true,NA,NA,NA,NA,NA
0E8F5Td3,NA,NA,0E8F5Td3,2020-0188,2021-09-26,15:10:12,16:03:09,NA,incomplete,false,NA,true,2,0,NA,NA,right,NA,NA,c_2_015.jpg,a_2_014.jpg,between-small,NA,NaN,NA,right,3824.399999976158,1,1,2033.199999988079
0E8F5Td3,NA,NA,0E8F5Td3,2020-0188,2021-09-26,15:10:12,16:03:09,NA,incomplete,false,NA,true,2,1,NA,NA,left,NA,NA,c_1_026.jpg,n_s_008.jpg,between-big,NA,NaN,NA,left,951.3999999761581,1,2,1810.3999999761581
0E8F5Td3,NA,NA,0E8F5Td3,2020-0188,2021-09-26,15:10:12,16:03:09,NA,incomplete,false,NA,true,2,2,NA,NA,left,NA,NA,c_2_015.jpg,a_2_016.jpg,within,NA,NaN,NA,right,3120.300000011921,0,1,1438.4000000357628
0E8F5Td3,NA,NA,0E8F5Td3,2020-0188,2021-09-26,15:10:12,16:03:09,NA,incomplete,false,NA,true,2,3,NA,NA,right,NA,NA,i_s_016.jpg,o_c_024.jpg,within,NA,NaN,NA,right,1483.800000011921,1,0,2783.7999999523163
0E8F5Td3,NA,NA,0E8F5Td3,2020-0188,2021-09-26,15:10:12,16:03:09,NA,incomplete,false,NA,true,2,4,NA,NA,right,NA,NA,n_s_021.jpg,n_l_024.jpg,between-small,NA,NaN,NA,right,1514.300000011921,1,0,905.6999999880791
0E8F5Td3,NA,NA,0E8F5Td3,2020-0188,2021-09-26,15:10:12,16:03:09,NA,incomplete,false,NA,true,2,5,NA,NA,left,NA,NA,o_c_010.jpg,i_s_001.jpg,within,NA,NaN,NA,left,1205.9000000357628,1,0,1251.9000000357628
0E8F5Td3,NA,NA,0E8F5Td3,2020-0188,2021-09-26,15:10:12,16:03:09,NA,incomplete,false,NA,true,2,6,NA,NA,left,NA,NA,m_s_007.jpg,n_l_017.jpg,between-small,NA,NaN,NA,left,3148.699999988079,1,1,1006.6000000238419
0E8F5Td3,NA,NA,0E8F5Td3,2020-0188,2021-09-26,15:10:12,16:03:09,NA,incomplete,false,NA,true,2,7,NA,NA,left,NA,NA,a_2_016.jpg,n_s_023.jpg,between-big,NA,NaN,NA,right,526,0,3,900.5
0E8F5Td3,NA,NA,0E8F5Td3,2020-0188,2021-09-26,15:10:12,16:03:09,NA,incomplete,false,NA,true,2,8,NA,NA,right,NA,NA,o_s_020.jpg,o_c_023.jpg,between-small,NA,NaN,NA,right,368.10000002384186,1,0,2551.400000035763
0E8F5Td3,NA,NA,0E8F5Td3,2020-0188,2021-09-26,15:10:12,16:03:09,NA,incomplete,false,NA,true,2,9,NA,NA,right,NA,NA,c_1_026.jpg,a_2_024.jpg,within,NA,NaN,NA,right,500.9000000357628,1,1,2012.5999999642372
0E8F5Td3,NA,NA,0E8F5Td3,2020-0188,2021-09-26,15:10:12,16:03:09,NA,incomplete,false,NA,true,2,10,NA,NA,left,NA,NA,i_s_001.jpg,c_1_025.jpg,between-big,NA,NaN,NA,right,690.7000000476837,0,1,1079.6000000238419
0E8F5Td3,NA,NA,0E8F5Td3,2020-0188,2021-09-26,15:10:12,16:03:09,NA,incomplete,false,NA,true,2,11,NA,NA,left,NA,NA,m_l_003.jpg,m_s_007.jpg,within,NA,NaN,NA,right,498,0,1,783.0999999642372
0E8F5Td3,NA,NA,0E8F5Td3,2020-0188,2021-09-26,15:10:12,16:03:09,NA,incomplete,false,NA,true,2,12,NA,NA,left,NA,NA,i_s_016.jpg,i_c_005.jpg,between-small,NA,NaN,NA,right,432,0,0,1280.8999999761581
0E8F5Td3,NA,NA,0E8F5Td3,2020-0188,2021-09-26,15:10:12,16:03:09,NA,incomplete,false,NA,true,2,13,NA,NA,left,NA,NA,o_c_017.jpg,o_c_023.jpg,within,NA,NaN,NA,right,442.69999998807907,0,0,2491.800000011921
0E8F5Td3,NA,NA,0E8F5Td3,2020-0188,2021-09-26,15:10:12,16:03:09,NA,incomplete,false,NA,true,2,14,NA,NA,left,NA,NA,i_s_019.jpg,o_c_010.jpg,between-small,NA,NaN,NA,right,388,0,0,925.6999999880791
0E8F5Td3,NA,NA,0E8F5Td3,2020-0188,2021-09-26,15:10:12,16:03:09,NA,incomplete,false,NA,true,2,15,NA,NA,right,NA,NA,c_1_006.jpg,c_1_025.jpg,within,NA,NaN,NA,right,516.9000000357628,1,1,2169.300000011921
0E8F5Td3,NA,NA,0E8F5Td3,2020-0188,2021-09-26,15:10:12,16:03:09,NA,incomplete,false,NA,true,2,16,NA,NA,right,NA,NA,a_2_002.jpg,o_s_008.jpg,between-big,NA,NaN,NA,right,453.19999998807907,1,3,1829.6000000238419
0E8F5Td3,NA,NA,0E8F5Td3,2020-0188,2021-09-26,15:10:12,16:03:09,NA,incomplete,false,NA,true,2,17,NA,NA,right,NA,NA,a_1_021.jpg,o_s_020.jpg,between-big,NA,NaN,NA,right,1082,1,2,982.1999999880791
0E8F5Td3,NA,NA,0E8F5Td3,2020-0188,2021-09-26,15:10:12,16:03:09,NA,incomplete,false,NA,true,2,18,NA,NA,left,NA,NA,a_1_021.jpg,a_2_014.jpg,within,NA,NaN,NA,right,444.4000000357628,0,1,1281.800000011921
0E8F5Td3,NA,NA,0E8F5Td3,2020-0188,2021-09-26,15:10:12,16:03:09,NA,incomplete,false,NA,true,2,19,NA,NA,left,NA,NA,i_c_005.jpg,o_s_008.jpg,within,NA,NaN,NA,right,453.0999999642372,0,0,1093.1000000238419
0E8F5Td3,NA,NA,0E8F5Td3,2020-0188,2021-09-26,15:10:12,16:03:09,NA,incomplete,false,NA,true,2,20,NA,NA,left,NA,NA,a_2_002.jpg,a_2_024.jpg,between-small,NA,NaN,NA,right,484.7000000476837,0,2,797.1999999880791
0E8F5Td3,NA,NA,0E8F5Td3,2020-0188,2021-09-26,15:10:12,16:03:09,NA,incomplete,false,NA,true,2,21,NA,NA,left,NA,NA,n_s_023.jpg,n_l_004.jpg,between-small,NA,NaN,NA,right,386.5,0,0,788.1999999880791
0E8F5Td3,NA,NA,0E8F5Td3,2020-0188,2021-09-26,15:10:12,16:03:09,NA,incomplete,false,NA,true,2,22,NA,NA,right,NA,NA,m_s_028.jpg,n_l_004.jpg,within,NA,NaN,NA,right,431.30000001192093,1,0,1019.6999999880791
0E8F5Td3,NA,NA,0E8F5Td3,2020-0188,2021-09-26,15:10:12,16:03:09,NA,incomplete,false,NA,true,2,23,NA,NA,right,NA,NA,m_l_014.jpg,n_l_017.jpg,within,NA,NaN,NA,right,1081.8999999761581,1,0,782.4000000357628
0E8F5Td3,NA,NA,0E8F5Td3,2020-0188,2021-09-26,15:10:12,16:03:09,NA,incomplete,false,NA,true,2,24,NA,NA,left,NA,NA,c_1_006.jpg,a_2_017.jpg,between-small,NA,NaN,NA,right,414,0,0,885.9000000357628
0E8F5Td3,NA,NA,0E8F5Td3,2020-0188,2021-09-26,15:10:12,16:03:09,NA,incomplete,false,NA,true,2,25,NA,NA,left,NA,NA,n_s_008.jpg,n_l_024.jpg,within,NA,NaN,NA,right,388.30000001192093,0,1,1348.3999999761581
0E8F5Td3,NA,NA,0E8F5Td3,2020-0188,2021-09-26,15:10:12,16:03:09,NA,incomplete,false,NA,true,2,26,NA,NA,right,NA,NA,m_l_003.jpg,a_2_017.jpg,between-big,NA,NaN,NA,right,379.60000002384186,1,1,710.3999999761581
0E8F5Td3,NA,NA,0E8F5Td3,2020-0188,2021-09-26,15:10:12,16:03:09,NA,incomplete,false,true,NA,3,0,origin,m_l_028.jpg,left,manmade,natural,NA,NA,NA,left,1223,true,NA,NA,NA,NA,NA
0E8F5Td3,NA,NA,0E8F5Td3,2020-0188,2021-09-26,15:10:12,16:03:09,NA,incomplete,false,true,NA,3,1,origin,m_l_020.jpg,left,manmade,natural,NA,NA,NA,left,998,true,NA,NA,NA,NA,NA
0E8F5Td3,NA,NA,0E8F5Td3,2020-0188,2021-09-26,15:10:12,16:03:09,NA,incomplete,false,true,NA,3,2,origin,n_l_011.jpg,left,natural,manmade,NA,NA,NA,left,1142.5,true,NA,NA,NA,NA,NA
0E8F5Td3,NA,NA,0E8F5Td3,2020-0188,2021-09-26,15:10:12,16:03:09,NA,incomplete,false,true,NA,3,3,origin,n_s_015.jpg,right,manmade,natural,NA,NA,NA,right,856.100000023842,true,NA,NA,NA,NA,NA
0E8F5Td3,NA,NA,0E8F5Td3,2020-0188,2021-09-26,15:10:12,16:03:09,NA,incomplete,false,true,NA,3,4,origin,m_l_001.jpg,right,natural,manmade,NA,NA,NA,right,1196.30000001192,true,NA,NA,NA,NA,NA
0E8F5Td3,NA,NA,0E8F5Td3,2020-0188,2021-09-26,15:10:12,16:03:09,NA,incomplete,false,true,NA,3,5,size,n_l_019.jpg,left,large,small,NA,NA,NA,right,1075.39999997616,false,NA,NA,NA,NA,NA
0E8F5Td3,NA,NA,0E8F5Td3,2020-0188,2021-09-26,15:10:12,16:03:09,NA,incomplete,false,true,NA,3,6,size,n_s_003.jpg,left,small,large,NA,NA,NA,right,994.900000035763,false,NA,NA,NA,NA,NA
0E8F5Td3,NA,NA,0E8F5Td3,2020-0188,2021-09-26,15:10:12,16:03:09,NA,incomplete,false,true,NA,3,7,size,m_l_004.jpg,left,large,small,NA,NA,NA,left,964.699999988079,true,NA,NA,NA,NA,NA
0E8F5Td3,NA,NA,0E8F5Td3,2020-0188,2021-09-26,15:10:12,16:03:09,NA,incomplete,false,true,NA,3,8,size,n_s_017.jpg,left,small,large,NA,NA,NA,left,915.5,true,NA,NA,NA,NA,NA
0E8F5Td3,NA,NA,0E8F5Td3,2020-0188,2021-09-26,15:10:12,16:03:09,NA,incomplete,false,true,NA,3,9,size,n_s_018.jpg,left,small,large,NA,NA,NA,left,553.100000023842,true,NA,NA,NA,NA,NA
0E8F5Td3,NA,NA,0E8F5Td3,2020-0188,2021-09-26,15:10:12,16:03:09,NA,incomplete,false,true,NA,3,10,building,i_s_023.jpg,right,cottage,skyscraper,NA,NA,NA,right,1685.40000003576,true,NA,NA,NA,NA,NA
0E8F5Td3,NA,NA,0E8F5Td3,2020-0188,2021-09-26,15:10:12,16:03:09,NA,incomplete,false,true,NA,3,11,building,i_c_024.jpg,left,cottage,skyscraper,NA,NA,NA,right,788.800000011921,false,NA,NA,NA,NA,NA
0E8F5Td3,NA,NA,0E8F5Td3,2020-0188,2021-09-26,15:10:12,16:03:09,NA,incomplete,false,true,NA,3,12,building,i_s_010.jpg,left,skyscraper,cottage,NA,NA,NA,left,782.199999988079,true,NA,NA,NA,NA,NA
0E8F5Td3,NA,NA,0E8F5Td3,2020-0188,2021-09-26,15:10:12,16:03:09,NA,incomplete,false,true,NA,3,13,building,i_c_025.jpg,right,skyscraper,cottage,NA,NA,NA,right,840.300000011921,true,NA,NA,NA,NA,NA
0E8F5Td3,NA,NA,0E8F5Td3,2020-0188,2021-09-26,15:10:12,16:03:09,NA,incomplete,false,true,NA,3,14,building,o_s_016.jpg,right,cottage,skyscraper,NA,NA,NA,right,1231,true,NA,NA,NA,NA,NA
0E8F5Td3,NA,NA,0E8F5Td3,2020-0188,2021-09-26,15:10:12,16:03:09,NA,incomplete,false,true,NA,3,15,location,o_c_026.jpg,left,outdoor,indoor,NA,NA,NA,left,2278.10000002384,true,NA,NA,NA,NA,NA
0E8F5Td3,NA,NA,0E8F5Td3,2020-0188,2021-09-26,15:10:12,16:03:09,NA,incomplete,false,true,NA,3,16,location,o_c_004.jpg,right,indoor,outdoor,NA,NA,NA,left,856.899999976158,false,NA,NA,NA,NA,NA
0E8F5Td3,NA,NA,0E8F5Td3,2020-0188,2021-09-26,15:10:12,16:03:09,NA,incomplete,false,true,NA,3,17,location,o_s_027.jpg,left,outdoor,indoor,NA,NA,NA,left,837.199999988079,true,NA,NA,NA,NA,NA
0E8F5Td3,NA,NA,0E8F5Td3,2020-0188,2021-09-26,15:10:12,16:03:09,NA,incomplete,false,true,NA,3,18,location,o_s_028.jpg,right,indoor,outdoor,NA,NA,NA,right,1608.69999998808,true,NA,NA,NA,NA,NA
0E8F5Td3,NA,NA,0E8F5Td3,2020-0188,2021-09-26,15:10:12,16:03:09,NA,incomplete,false,true,NA,3,19,location,o_c_001.jpg,right,indoor,outdoor,NA,NA,NA,right,1579.09999996424,true,NA,NA,NA,NA,NA
0E8F5Td3,NA,NA,0E8F5Td3,2020-0188,2021-09-26,15:10:12,16:03:09,NA,incomplete,false,true,NA,3,20,syllable,c_2_014.jpg,right,2 syllables,1 syllable,NA,NA,NA,left,2479.19999998808,false,NA,NA,NA,NA,NA
0E8F5Td3,NA,NA,0E8F5Td3,2020-0188,2021-09-26,15:10:12,16:03:09,NA,incomplete,false,true,NA,3,21,syllable,c_2_010.jpg,right,1 syllable,2 syllables,NA,NA,NA,right,2094.69999998808,true,NA,NA,NA,NA,NA
0E8F5Td3,NA,NA,0E8F5Td3,2020-0188,2021-09-26,15:10:12,16:03:09,NA,incomplete,false,true,NA,3,22,syllable,a_1_025.jpg,right,2 syllables,1 syllable,NA,NA,NA,right,952.400000035763,true,NA,NA,NA,NA,NA
0E8F5Td3,NA,NA,0E8F5Td3,2020-0188,2021-09-26,15:10:12,16:03:09,NA,incomplete,false,true,NA,3,23,syllable,c_1_024.jpg,right,1 syllable,2 syllables,NA,NA,NA,left,2632.89999997616,false,NA,NA,NA,NA,NA
0E8F5Td3,NA,NA,0E8F5Td3,2020-0188,2021-09-26,15:10:12,16:03:09,NA,incomplete,false,true,NA,3,24,syllable,a_1_013.jpg,right,1 syllable,2 syllables,NA,NA,NA,left,2147.90000003576,false,NA,NA,NA,NA,NA
0E8F5Td3,NA,NA,0E8F5Td3,2020-0188,2021-09-26,15:10:12,16:03:09,NA,incomplete,false,true,NA,3,25,abstractness,c_1_019.jpg,left,concrete,abstract,NA,NA,NA,left,2149.40000003576,true,NA,NA,NA,NA,NA
0E8F5Td3,NA,NA,0E8F5Td3,2020-0188,2021-09-26,15:10:12,16:03:09,NA,incomplete,false,true,NA,3,26,abstractness,a_1_012.jpg,right,concrete,abstract,NA,NA,NA,none,0,false,NA,NA,NA,NA,NA
0E8F5Td3,NA,NA,0E8F5Td3,2020-0188,2021-09-26,15:10:12,16:03:09,NA,incomplete,false,true,NA,3,27,abstractness,c_2_012.jpg,right,abstract,concrete,NA,NA,NA,right,1241.30000001192,true,NA,NA,NA,NA,NA
0E8F5Td3,NA,NA,0E8F5Td3,2020-0188,2021-09-26,15:10:12,16:03:09,NA,incomplete,false,true,NA,3,28,abstractness,a_2_011.jpg,left,abstract,concrete,NA,NA,NA,right,1701.89999997616,false,NA,NA,NA,NA,NA
0E8F5Td3,NA,NA,0E8F5Td3,2020-0188,2021-09-26,15:10:12,16:03:09,NA,incomplete,false,true,NA,3,29,abstractness,a_2_025.jpg,right,concrete,abstract,NA,NA,NA,left,1351.20000004768,false,NA,NA,NA,NA,NA
0E8F5Td3,NA,NA,0E8F5Td3,2020-0188,2021-09-26,15:10:12,16:03:09,NA,incomplete,false,NA,true,3,0,NA,NA,left,NA,NA,i_s_010.jpg,o_c_026.jpg,between-small,NA,NaN,NA,right,843.6999999880791,0,1,1082.199999988079
0E8F5Td3,NA,NA,0E8F5Td3,2020-0188,2021-09-26,15:10:12,16:03:09,NA,incomplete,false,NA,true,3,1,NA,NA,right,NA,NA,c_2_014.jpg,o_s_027.jpg,between-big,NA,NaN,NA,right,361.80000001192093,1,0,1030.800000011921
0E8F5Td3,NA,NA,0E8F5Td3,2020-0188,2021-09-26,15:10:12,16:03:09,NA,incomplete,false,NA,true,3,2,NA,NA,right,NA,NA,n_s_018.jpg,n_s_003.jpg,within,NA,NaN,NA,right,530.1000000238419,1,0,1914.800000011921
0E8F5Td3,NA,NA,0E8F5Td3,2020-0188,2021-09-26,15:10:12,16:03:09,NA,incomplete,false,NA,true,3,3,NA,NA,right,NA,NA,a_1_025.jpg,o_c_001.jpg,between-big,NA,NaN,NA,right,399.10000002384186,1,2,2538.099999964237
0E8F5Td3,NA,NA,0E8F5Td3,2020-0188,2021-09-26,15:10:12,16:03:09,NA,incomplete,false,NA,true,3,4,NA,NA,left,NA,NA,c_2_014.jpg,c_1_024.jpg,within,NA,NaN,NA,right,501.89999997615814,0,1,1946.5999999642372
0E8F5Td3,NA,NA,0E8F5Td3,2020-0188,2021-09-26,15:10:12,16:03:09,NA,incomplete,false,NA,true,3,5,NA,NA,left,NA,NA,n_l_019.jpg,n_s_017.jpg,within,NA,NaN,NA,right,461.30000001192093,0,0,1271.699999988079
0E8F5Td3,NA,NA,0E8F5Td3,2020-0188,2021-09-26,15:10:12,16:03:09,NA,incomplete,false,NA,true,3,6,NA,NA,right,NA,NA,o_c_001.jpg,o_c_004.jpg,within,NA,NaN,NA,right,588.1999999880791,1,1,862.8000000119209
0E8F5Td3,NA,NA,0E8F5Td3,2020-0188,2021-09-26,15:10:12,16:03:09,NA,incomplete,false,NA,true,3,7,NA,NA,left,NA,NA,a_1_013.jpg,c_2_012.jpg,between-small,NA,NaN,NA,right,860.8000000119209,0,2,6274.199999988079
0E8F5Td3,NA,NA,0E8F5Td3,2020-0188,2021-09-26,15:10:12,16:03:09,NA,incomplete,false,NA,true,3,8,NA,NA,left,NA,NA,n_s_018.jpg,i_s_010.jpg,between-big,NA,NaN,NA,right,386.80000001192093,0,2,1085.199999988079
0E8F5Td3,NA,NA,0E8F5Td3,2020-0188,2021-09-26,15:10:12,16:03:09,NA,incomplete,false,NA,true,3,9,NA,NA,right,NA,NA,o_s_027.jpg,o_s_016.jpg,between-small,NA,NaN,NA,right,1785.300000011921,1,0,1006.1000000238419
0E8F5Td3,NA,NA,0E8F5Td3,2020-0188,2021-09-26,15:10:12,16:03:09,NA,incomplete,false,NA,true,3,10,NA,NA,left,NA,NA,m_l_001.jpg,m_l_004.jpg,between-small,NA,NaN,NA,right,654.1999999880791,0,3,1560.699999988079
0E8F5Td3,NA,NA,0E8F5Td3,2020-0188,2021-09-26,15:10:12,16:03:09,NA,incomplete,false,NA,true,3,11,NA,NA,left,NA,NA,n_s_015.jpg,n_s_003.jpg,between-small,NA,NaN,NA,right,671.1000000238419,0,0,913.8000000119209
0E8F5Td3,NA,NA,0E8F5Td3,2020-0188,2021-09-26,15:10:12,16:03:09,NA,incomplete,false,NA,true,3,12,NA,NA,left,NA,NA,c_2_010.jpg,a_1_013.jpg,within,NA,NaN,NA,right,416.30000001192093,0,1,1185.5
0E8F5Td3,NA,NA,0E8F5Td3,2020-0188,2021-09-26,15:10:12,16:03:09,NA,incomplete,false,NA,true,3,13,NA,NA,left,NA,NA,o_c_026.jpg,o_s_028.jpg,within,NA,NaN,NA,right,391.19999998807907,0,0,1077.300000011921
0E8F5Td3,NA,NA,0E8F5Td3,2020-0188,2021-09-26,15:10:12,16:03:09,NA,incomplete,false,NA,true,3,14,NA,NA,right,NA,NA,n_s_015.jpg,m_l_028.jpg,within,NA,NaN,NA,right,405.5,1,1,2372.400000035763
0E8F5Td3,NA,NA,0E8F5Td3,2020-0188,2021-09-26,15:10:12,16:03:09,NA,incomplete,false,NA,true,3,15,NA,NA,right,NA,NA,i_c_024.jpg,n_s_017.jpg,between-big,NA,NaN,NA,right,595.3000000119209,1,3,1345.7999999523163
0E8F5Td3,NA,NA,0E8F5Td3,2020-0188,2021-09-26,15:10:12,16:03:09,NA,incomplete,false,NA,true,3,16,NA,NA,left,NA,NA,o_s_028.jpg,c_2_010.jpg,between-big,NA,NaN,NA,right,442.9000000357628,0,1,1026.199999988079
0E8F5Td3,NA,NA,0E8F5Td3,2020-0188,2021-09-26,15:10:12,16:03:09,NA,incomplete,false,NA,true,3,17,NA,NA,left,NA,NA,i_c_024.jpg,o_s_016.jpg,within,NA,NaN,NA,right,391.39999997615814,0,2,925.6000000238419
0E8F5Td3,NA,NA,0E8F5Td3,2020-0188,2021-09-26,15:10:12,16:03:09,NA,incomplete,false,NA,true,3,18,NA,NA,right,NA,NA,c_1_019.jpg,a_1_025.jpg,between-small,NA,NaN,NA,right,573.3000000119209,1,2,1043.3999999761581
0E8F5Td3,NA,NA,0E8F5Td3,2020-0188,2021-09-26,15:10:12,16:03:09,NA,incomplete,false,NA,true,3,19,NA,NA,right,NA,NA,i_s_023.jpg,m_l_004.jpg,between-big,NA,NaN,NA,right,415.80000001192093,1,1,1060.800000011921
0E8F5Td3,NA,NA,0E8F5Td3,2020-0188,2021-09-26,15:10:12,16:03:09,NA,incomplete,false,NA,true,3,20,NA,NA,left,NA,NA,n_l_011.jpg,n_l_019.jpg,between-small,NA,NaN,NA,right,856.3000000119209,0,1,1060.3999999761581
0E8F5Td3,NA,NA,0E8F5Td3,2020-0188,2021-09-26,15:10:12,16:03:09,NA,incomplete,false,NA,true,3,21,NA,NA,right,NA,NA,a_2_025.jpg,a_1_012.jpg,within,NA,NaN,NA,right,865.6000000238419,1,2,2354
0E8F5Td3,NA,NA,0E8F5Td3,2020-0188,2021-09-26,15:10:12,16:03:09,NA,incomplete,false,NA,true,3,22,NA,NA,left,NA,NA,m_l_020.jpg,m_l_001.jpg,within,NA,NaN,NA,right,3767.699999988079,0,3,1151.5
0E8F5Td3,NA,NA,0E8F5Td3,2020-0188,2021-09-26,15:10:12,16:03:09,NA,incomplete,false,NA,true,3,23,NA,NA,right,NA,NA,o_c_004.jpg,i_c_025.jpg,between-small,NA,NaN,NA,right,449,1,1,2135.400000035763
0E8F5Td3,NA,NA,0E8F5Td3,2020-0188,2021-09-26,15:10:12,16:03:09,NA,incomplete,false,NA,true,3,24,NA,NA,right,NA,NA,i_c_025.jpg,i_s_023.jpg,within,NA,NaN,NA,left,1402.2999999523163,0,2,1520.5
0E8F5Td3,NA,NA,0E8F5Td3,2020-0188,2021-09-26,15:10:12,16:03:09,NA,incomplete,false,NA,true,3,25,NA,NA,right,NA,NA,a_1_012.jpg,c_1_024.jpg,between-small,NA,NaN,NA,right,392.30000001192093,1,1,906.8000000119209
0E8F5Td3,NA,NA,0E8F5Td3,2020-0188,2021-09-26,15:10:12,16:03:09,NA,incomplete,false,NA,true,3,26,NA,NA,left,NA,NA,c_1_019.jpg,a_2_011.jpg,within,NA,NaN,NA,right,436.7000000476837,0,0,1224.1000000238419
0E8F5Td3,NA,NA,0E8F5Td3,2020-0188,2021-09-26,15:10:12,16:03:09,NA,incomplete,false,true,NA,4,0,building,o_s_012.jpg,right,cottage,skyscraper,NA,NA,NA,right,1118,true,NA,NA,NA,NA,NA
0E8F5Td3,NA,NA,0E8F5Td3,2020-0188,2021-09-26,15:10:12,16:03:09,NA,incomplete,false,true,NA,4,1,building,o_s_003.jpg,right,cottage,skyscraper,NA,NA,NA,right,913,true,NA,NA,NA,NA,NA
0E8F5Td3,NA,NA,0E8F5Td3,2020-0188,2021-09-26,15:10:12,16:03:09,NA,incomplete,false,true,NA,4,2,building,o_s_009.jpg,left,skyscraper,cottage,NA,NA,NA,left,1709,true,NA,NA,NA,NA,NA
0E8F5Td3,NA,NA,0E8F5Td3,2020-0188,2021-09-26,15:10:12,16:03:09,NA,incomplete,false,true,NA,4,3,building,i_c_007.jpg,right,skyscraper,cottage,NA,NA,NA,right,1436.29999995232,true,NA,NA,NA,NA,NA
0E8F5Td3,NA,NA,0E8F5Td3,2020-0188,2021-09-26,15:10:12,16:03:09,NA,incomplete,false,true,NA,4,4,building,i_c_003.jpg,right,skyscraper,cottage,NA,NA,NA,right,1206.40000003576,true,NA,NA,NA,NA,NA
0E8F5Td3,NA,NA,0E8F5Td3,2020-0188,2021-09-26,15:10:12,16:03:09,NA,incomplete,false,true,NA,4,5,location,i_s_013.jpg,left,indoor,outdoor,NA,NA,NA,left,1778.20000004768,true,NA,NA,NA,NA,NA
0E8F5Td3,NA,NA,0E8F5Td3,2020-0188,2021-09-26,15:10:12,16:03:09,NA,incomplete,false,true,NA,4,6,location,o_s_007.jpg,right,indoor,outdoor,NA,NA,NA,right,1789.89999997616,true,NA,NA,NA,NA,NA
0E8F5Td3,NA,NA,0E8F5Td3,2020-0188,2021-09-26,15:10:12,16:03:09,NA,incomplete,false,true,NA,4,7,location,o_s_006.jpg,right,indoor,outdoor,NA,NA,NA,right,1461.19999998808,true,NA,NA,NA,NA,NA
0E8F5Td3,NA,NA,0E8F5Td3,2020-0188,2021-09-26,15:10:12,16:03:09,NA,incomplete,false,true,NA,4,8,location,i_c_018.jpg,right,outdoor,indoor,NA,NA,NA,right,2120.29999995232,true,NA,NA,NA,NA,NA
0E8F5Td3,NA,NA,0E8F5Td3,2020-0188,2021-09-26,15:10:12,16:03:09,NA,incomplete,false,true,NA,4,9,location,o_s_001.jpg,right,indoor,outdoor,NA,NA,NA,right,2138.40000003576,true,NA,NA,NA,NA,NA
0E8F5Td3,NA,NA,0E8F5Td3,2020-0188,2021-09-26,15:10:12,16:03:09,NA,incomplete,false,true,NA,4,10,origin,m_s_024.jpg,left,manmade,natural,NA,NA,NA,left,1865,true,NA,NA,NA,NA,NA
0E8F5Td3,NA,NA,0E8F5Td3,2020-0188,2021-09-26,15:10:12,16:03:09,NA,incomplete,false,true,NA,4,11,origin,n_s_006.jpg,left,natural,manmade,NA,NA,NA,left,3116.79999995232,true,NA,NA,NA,NA,NA
0E8F5Td3,NA,NA,0E8F5Td3,2020-0188,2021-09-26,15:10:12,16:03:09,NA,incomplete,false,true,NA,4,12,origin,m_l_016.jpg,left,manmade,natural,NA,NA,NA,left,1475.59999996424,true,NA,NA,NA,NA,NA
0E8F5Td3,NA,NA,0E8F5Td3,2020-0188,2021-09-26,15:10:12,16:03:09,NA,incomplete,false,true,NA,4,13,origin,n_l_014.jpg,left,natural,manmade,NA,NA,NA,left,2335.89999997616,true,NA,NA,NA,NA,NA
0E8F5Td3,NA,NA,0E8F5Td3,2020-0188,2021-09-26,15:10:12,16:03:09,NA,incomplete,false,true,NA,4,14,origin,n_s_007.jpg,right,manmade,natural,NA,NA,NA,right,2335.69999998808,true,NA,NA,NA,NA,NA
0E8F5Td3,NA,NA,0E8F5Td3,2020-0188,2021-09-26,15:10:12,16:03:09,NA,incomplete,false,true,NA,4,15,size,m_l_015.jpg,right,small,large,NA,NA,NA,right,1373,true,NA,NA,NA,NA,NA
0E8F5Td3,NA,NA,0E8F5Td3,2020-0188,2021-09-26,15:10:12,16:03:09,NA,incomplete,false,true,NA,4,16,size,m_s_022.jpg,right,large,small,NA,NA,NA,right,1070.30000001192,true,NA,NA,NA,NA,NA
0E8F5Td3,NA,NA,0E8F5Td3,2020-0188,2021-09-26,15:10:12,16:03:09,NA,incomplete,false,true,NA,4,17,size,m_l_026.jpg,left,large,small,NA,NA,NA,left,931,true,NA,NA,NA,NA,NA
0E8F5Td3,NA,NA,0E8F5Td3,2020-0188,2021-09-26,15:10:12,16:03:09,NA,incomplete,false,true,NA,4,18,size,m_s_002.jpg,left,small,large,NA,NA,NA,left,1199.69999998808,true,NA,NA,NA,NA,NA
0E8F5Td3,NA,NA,0E8F5Td3,2020-0188,2021-09-26,15:10:12,16:03:09,NA,incomplete,false,true,NA,4,19,size,m_s_010.jpg,right,large,small,NA,NA,NA,right,1130.39999997616,true,NA,NA,NA,NA,NA
0E8F5Td3,NA,NA,0E8F5Td3,2020-0188,2021-09-26,15:10:12,16:03:09,NA,incomplete,false,true,NA,4,20,abstractness,a_2_026.jpg,left,abstract,concrete,NA,NA,NA,left,1488.5,true,NA,NA,NA,NA,NA
0E8F5Td3,NA,NA,0E8F5Td3,2020-0188,2021-09-26,15:10:12,16:03:09,NA,incomplete,false,true,NA,4,21,abstractness,c_2_001.jpg,left,concrete,abstract,NA,NA,NA,right,1747,false,NA,NA,NA,NA,NA
0E8F5Td3,NA,NA,0E8F5Td3,2020-0188,2021-09-26,15:10:12,16:03:09,NA,incomplete,false,true,NA,4,22,abstractness,a_1_006.jpg,left,abstract,concrete,NA,NA,NA,left,2376.29999995232,true,NA,NA,NA,NA,NA
0E8F5Td3,NA,NA,0E8F5Td3,2020-0188,2021-09-26,15:10:12,16:03:09,NA,incomplete,false,true,NA,4,23,abstractness,a_1_018.jpg,right,concrete,abstract,NA,NA,NA,left,2169.5,false,NA,NA,NA,NA,NA
0E8F5Td3,NA,NA,0E8F5Td3,2020-0188,2021-09-26,15:10:12,16:03:09,NA,incomplete,false,true,NA,4,24,abstractness,a_2_019.jpg,right,concrete,abstract,NA,NA,NA,left,2757.5,false,NA,NA,NA,NA,NA
0E8F5Td3,NA,NA,0E8F5Td3,2020-0188,2021-09-26,15:10:12,16:03:09,NA,incomplete,false,true,NA,4,25,syllable,c_2_024.jpg,right,2 syllables,1 syllable,NA,NA,NA,left,1819.29999995232,false,NA,NA,NA,NA,NA
0E8F5Td3,NA,NA,0E8F5Td3,2020-0188,2021-09-26,15:10:12,16:03:09,NA,incomplete,false,true,NA,4,26,syllable,c_1_007.jpg,right,2 syllables,1 syllable,NA,NA,NA,right,1672.19999998808,true,NA,NA,NA,NA,NA
0E8F5Td3,NA,NA,0E8F5Td3,2020-0188,2021-09-26,15:10:12,16:03:09,NA,incomplete,false,true,NA,4,27,syllable,a_1_005.jpg,right,2 syllables,1 syllable,NA,NA,NA,right,1762.69999998808,true,NA,NA,NA,NA,NA
0E8F5Td3,NA,NA,0E8F5Td3,2020-0188,2021-09-26,15:10:12,16:03:09,NA,incomplete,false,true,NA,4,28,syllable,c_2_007.jpg,right,1 syllable,2 syllables,NA,NA,NA,right,1309,true,NA,NA,NA,NA,NA
0E8F5Td3,NA,NA,0E8F5Td3,2020-0188,2021-09-26,15:10:12,16:03:09,NA,incomplete,false,true,NA,4,29,syllable,c_1_014.jpg,right,1 syllable,2 syllables,NA,NA,NA,left,2054.79999995232,false,NA,NA,NA,NA,NA
0E8F5Td3,NA,NA,0E8F5Td3,2020-0188,2021-09-26,15:10:12,16:03:09,NA,incomplete,false,NA,true,4,0,NA,NA,left,NA,NA,i_s_013.jpg,i_c_018.jpg,within,NA,NaN,NA,right,842.2999999523163,0,3,1137.199999988079
0E8F5Td3,NA,NA,0E8F5Td3,2020-0188,2021-09-26,15:10:12,16:03:09,NA,incomplete,false,NA,true,4,1,NA,NA,left,NA,NA,m_s_022.jpg,m_s_010.jpg,within,NA,NaN,NA,right,468.69999998807907,0,3,1615.9000000357628
0E8F5Td3,NA,NA,0E8F5Td3,2020-0188,2021-09-26,15:10:12,16:03:09,NA,incomplete,false,NA,true,4,2,NA,NA,left,NA,NA,c_2_024.jpg,c_2_007.jpg,within,NA,NaN,NA,left,645.0999999642372,1,1,789.8000000119209
0E8F5Td3,NA,NA,0E8F5Td3,2020-0188,2021-09-26,15:10:12,16:03:09,NA,incomplete,false,NA,true,4,3,NA,NA,right,NA,NA,c_2_024.jpg,a_1_006.jpg,between-small,NA,NaN,NA,right,392.10000002384186,1,2,1601.8999999761581
0E8F5Td3,NA,NA,0E8F5Td3,2020-0188,2021-09-26,15:10:12,16:03:09,NA,incomplete,false,NA,true,4,4,NA,NA,left,NA,NA,i_c_003.jpg,o_s_006.jpg,between-small,NA,NaN,NA,right,389.19999998807907,0,0,927.6000000238419
0E8F5Td3,NA,NA,0E8F5Td3,2020-0188,2021-09-26,15:10:12,16:03:09,NA,incomplete,false,NA,true,4,5,NA,NA,right,NA,NA,m_l_026.jpg,n_s_007.jpg,between-small,NA,NaN,NA,right,400.60000002384186,1,2,896.6000000238419
0E8F5Td3,NA,NA,0E8F5Td3,2020-0188,2021-09-26,15:10:12,16:03:09,NA,incomplete,false,NA,true,4,6,NA,NA,right,NA,NA,c_1_007.jpg,a_1_018.jpg,between-small,NA,NaN,NA,right,1396.199999988079,1,1,807.1999999880791
0E8F5Td3,NA,NA,0E8F5Td3,2020-0188,2021-09-26,15:10:12,16:03:09,NA,incomplete,false,NA,true,4,7,NA,NA,right,NA,NA,n_s_006.jpg,i_c_018.jpg,between-big,NA,NaN,NA,right,364.89999997615814,1,0,911.0999999642372
0E8F5Td3,NA,NA,0E8F5Td3,2020-0188,2021-09-26,15:10:12,16:03:09,NA,incomplete,false,NA,true,4,8,NA,NA,left,NA,NA,n_l_014.jpg,m_s_022.jpg,between-small,NA,NaN,NA,right,375.39999997615814,0,3,892.6999999880791
0E8F5Td3,NA,NA,0E8F5Td3,2020-0188,2021-09-26,15:10:12,16:03:09,NA,incomplete,false,NA,true,4,9,NA,NA,left,NA,NA,m_l_015.jpg,m_s_002.jpg,within,NA,NaN,NA,right,513.5,0,1,840.6000000238419
0E8F5Td3,NA,NA,0E8F5Td3,2020-0188,2021-09-26,15:10:12,16:03:09,NA,incomplete,false,NA,true,4,10,NA,NA,right,NA,NA,a_1_005.jpg,a_2_019.jpg,between-small,NA,NaN,NA,right,381.69999998807907,1,1,969.3999999761581
0E8F5Td3,NA,NA,0E8F5Td3,2020-0188,2021-09-26,15:10:12,16:03:09,NA,incomplete,false,NA,true,4,11,NA,NA,left,NA,NA,m_s_010.jpg,a_1_006.jpg,between-big,NA,NaN,NA,right,408.39999997615814,0,0,1193
0E8F5Td3,NA,NA,0E8F5Td3,2020-0188,2021-09-26,15:10:12,16:03:09,NA,incomplete,false,NA,true,4,12,NA,NA,left,NA,NA,o_s_009.jpg,i_s_013.jpg,between-small,NA,NaN,NA,right,382.30000001192093,0,2,1118.199999988079
0E8F5Td3,NA,NA,0E8F5Td3,2020-0188,2021-09-26,15:10:12,16:03:09,NA,incomplete,false,NA,true,4,13,NA,NA,left,NA,NA,i_c_007.jpg,o_s_007.jpg,between-small,NA,NaN,NA,right,369.60000002384186,0,3,1038.699999988079
0E8F5Td3,NA,NA,0E8F5Td3,2020-0188,2021-09-26,15:10:12,16:03:09,NA,incomplete,false,NA,true,4,14,NA,NA,left,NA,NA,m_s_024.jpg,n_l_014.jpg,within,NA,NaN,NA,right,401.5999999642372,0,3,857
0E8F5Td3,NA,NA,0E8F5Td3,2020-0188,2021-09-26,15:10:12,16:03:09,NA,incomplete,false,NA,true,4,15,NA,NA,right,NA,NA,m_l_016.jpg,o_s_001.jpg,between-big,NA,NaN,NA,right,363,1,1,915.1000000238419
0E8F5Td3,NA,NA,0E8F5Td3,2020-0188,2021-09-26,15:10:12,16:03:09,NA,incomplete,false,NA,true,4,16,NA,NA,left,NA,NA,c_2_001.jpg,a_2_019.jpg,within,NA,NaN,NA,right,1005.6999999880791,0,2,898.5
0E8F5Td3,NA,NA,0E8F5Td3,2020-0188,2021-09-26,15:10:12,16:03:09,NA,incomplete,false,NA,true,4,17,NA,NA,right,NA,NA,i_c_003.jpg,o_s_003.jpg,within,NA,NaN,NA,right,375.89999997615814,1,3,1926.5
0E8F5Td3,NA,NA,0E8F5Td3,2020-0188,2021-09-26,15:10:12,16:03:09,NA,incomplete,false,NA,true,4,18,NA,NA,left,NA,NA,o_s_007.jpg,o_s_001.jpg,within,NA,NaN,NA,right,789.3000000119209,0,0,1733.3999999761581
0E8F5Td3,NA,NA,0E8F5Td3,2020-0188,2021-09-26,15:10:12,16:03:09,NA,incomplete,false,NA,true,4,19,NA,NA,right,NA,NA,a_2_026.jpg,m_l_026.jpg,between-big,NA,NaN,NA,right,1433.1000000238419,1,2,917.1000000238419
0E8F5Td3,NA,NA,0E8F5Td3,2020-0188,2021-09-26,15:10:12,16:03:09,NA,incomplete,false,NA,true,4,20,NA,NA,right,NA,NA,n_s_007.jpg,n_s_006.jpg,within,NA,NaN,NA,right,549.6000000238419,1,0,972.8000000119209
0E8F5Td3,NA,NA,0E8F5Td3,2020-0188,2021-09-26,15:10:12,16:03:09,NA,incomplete,false,NA,true,4,21,NA,NA,left,NA,NA,a_2_026.jpg,a_1_018.jpg,within,NA,NaN,NA,right,493.4000000357628,0,2,1243
0E8F5Td3,NA,NA,0E8F5Td3,2020-0188,2021-09-26,15:10:12,16:03:09,NA,incomplete,false,NA,true,4,22,NA,NA,left,NA,NA,o_s_012.jpg,i_c_007.jpg,within,NA,NaN,NA,right,469.69999998807907,0,2,1224.199999988079
0E8F5Td3,NA,NA,0E8F5Td3,2020-0188,2021-09-26,15:10:12,16:03:09,NA,incomplete,false,NA,true,4,23,NA,NA,left,NA,NA,m_s_002.jpg,c_2_001.jpg,between-big,NA,NaN,NA,right,554.9000000357628,0,3,983.0999999642372
0E8F5Td3,NA,NA,0E8F5Td3,2020-0188,2021-09-26,15:10:12,16:03:09,NA,incomplete,false,NA,true,4,24,NA,NA,left,NA,NA,c_1_007.jpg,c_1_014.jpg,within,NA,NaN,NA,right,414.69999998807907,0,1,1332.6000000238419
0E8F5Td3,NA,NA,0E8F5Td3,2020-0188,2021-09-26,15:10:12,16:03:09,NA,incomplete,false,NA,true,4,25,NA,NA,left,NA,NA,o_s_006.jpg,m_s_024.jpg,between-big,NA,NaN,NA,left,1258.199999988079,1,0,1420.5
0E8F5Td3,NA,NA,0E8F5Td3,2020-0188,2021-09-26,15:10:12,16:03:09,NA,incomplete,false,NA,true,4,26,NA,NA,right,NA,NA,m_l_015.jpg,m_l_016.jpg,between-small,NA,NaN,NA,right,1111.300000011921,1,3,773.6999999880791
0E8F5Td3,NA,NA,0E8F5Td3,2020-0188,2021-09-26,15:10:12,16:03:09,NA,incomplete,false,true,NA,5,0,building,o_c_022.jpg,left,cottage,skyscraper,NA,NA,NA,left,1151.30000001192,true,NA,NA,NA,NA,NA
0E8F5Td3,NA,NA,0E8F5Td3,2020-0188,2021-09-26,15:10:12,16:03:09,NA,incomplete,false,true,NA,5,1,building,i_s_024.jpg,left,skyscraper,cottage,NA,NA,NA,left,922.600000023842,true,NA,NA,NA,NA,NA
0E8F5Td3,NA,NA,0E8F5Td3,2020-0188,2021-09-26,15:10:12,16:03:09,NA,incomplete,false,true,NA,5,2,building,o_s_010.jpg,right,cottage,skyscraper,NA,NA,NA,right,631.5,true,NA,NA,NA,NA,NA
0E8F5Td3,NA,NA,0E8F5Td3,2020-0188,2021-09-26,15:10:12,16:03:09,NA,incomplete,false,true,NA,5,3,building,i_c_006.jpg,left,cottage,skyscraper,NA,NA,NA,left,1037.80000001192,true,NA,NA,NA,NA,NA
0E8F5Td3,NA,NA,0E8F5Td3,2020-0188,2021-09-26,15:10:12,16:03:09,NA,incomplete,false,true,NA,5,4,building,i_s_022.jpg,left,skyscraper,cottage,NA,NA,NA,left,1199.89999997616,true,NA,NA,NA,NA,NA
0E8F5Td3,NA,NA,0E8F5Td3,2020-0188,2021-09-26,15:10:12,16:03:09,NA,incomplete,false,true,NA,5,5,location,i_s_002.jpg,right,outdoor,indoor,NA,NA,NA,left,2496,false,NA,NA,NA,NA,NA
0E8F5Td3,NA,NA,0E8F5Td3,2020-0188,2021-09-26,15:10:12,16:03:09,NA,incomplete,false,true,NA,5,6,location,o_c_021.jpg,right,indoor,outdoor,NA,NA,NA,right,2202.10000002384,true,NA,NA,NA,NA,NA
0E8F5Td3,NA,NA,0E8F5Td3,2020-0188,2021-09-26,15:10:12,16:03:09,NA,incomplete,false,true,NA,5,7,location,o_s_018.jpg,left,outdoor,indoor,NA,NA,NA,left,2203.40000003576,true,NA,NA,NA,NA,NA
0E8F5Td3,NA,NA,0E8F5Td3,2020-0188,2021-09-26,15:10:12,16:03:09,NA,incomplete,false,true,NA,5,8,location,i_c_028.jpg,right,outdoor,indoor,NA,NA,NA,right,1030.19999998808,true,NA,NA,NA,NA,NA
0E8F5Td3,NA,NA,0E8F5Td3,2020-0188,2021-09-26,15:10:12,16:03:09,NA,incomplete,false,true,NA,5,9,location,i_s_021.jpg,left,indoor,outdoor,NA,NA,NA,left,1621.5,true,NA,NA,NA,NA,NA
0E8F5Td3,NA,NA,0E8F5Td3,2020-0188,2021-09-26,15:10:12,16:03:09,NA,incomplete,false,true,NA,5,10,size,n_s_012.jpg,left,small,large,NA,NA,NA,left,1886.09999996424,true,NA,NA,NA,NA,NA
0E8F5Td3,NA,NA,0E8F5Td3,2020-0188,2021-09-26,15:10:12,16:03:09,NA,incomplete,false,true,NA,5,11,size,n_l_027.jpg,right,small,large,NA,NA,NA,right,951.099999964237,true,NA,NA,NA,NA,NA
0E8F5Td3,NA,NA,0E8F5Td3,2020-0188,2021-09-26,15:10:12,16:03:09,NA,incomplete,false,true,NA,5,12,size,m_l_019.jpg,left,large,small,NA,NA,NA,left,1210,true,NA,NA,NA,NA,NA
0E8F5Td3,NA,NA,0E8F5Td3,2020-0188,2021-09-26,15:10:12,16:03:09,NA,incomplete,false,true,NA,5,13,size,m_s_004.jpg,left,small,large,NA,NA,NA,left,1581.5,true,NA,NA,NA,NA,NA
0E8F5Td3,NA,NA,0E8F5Td3,2020-0188,2021-09-26,15:10:12,16:03:09,NA,incomplete,false,true,NA,5,14,size,n_l_023.jpg,left,large,small,NA,NA,NA,left,1562,true,NA,NA,NA,NA,NA
0E8F5Td3,NA,NA,0E8F5Td3,2020-0188,2021-09-26,15:10:12,16:03:09,NA,incomplete,false,true,NA,5,15,origin,m_l_021.jpg,left,manmade,natural,NA,NA,NA,right,1077,false,NA,NA,NA,NA,NA
0E8F5Td3,NA,NA,0E8F5Td3,2020-0188,2021-09-26,15:10:12,16:03:09,NA,incomplete,false,true,NA,5,16,origin,m_s_026.jpg,left,manmade,natural,NA,NA,NA,left,1979.69999998808,true,NA,NA,NA,NA,NA
0E8F5Td3,NA,NA,0E8F5Td3,2020-0188,2021-09-26,15:10:12,16:03:09,NA,incomplete,false,true,NA,5,17,origin,m_l_013.jpg,left,manmade,natural,NA,NA,NA,left,1595.10000002384,true,NA,NA,NA,NA,NA
0E8F5Td3,NA,NA,0E8F5Td3,2020-0188,2021-09-26,15:10:12,16:03:09,NA,incomplete,false,true,NA,5,18,origin,m_l_018.jpg,right,natural,manmade,NA,NA,NA,right,1341.60000002384,true,NA,NA,NA,NA,NA
0E8F5Td3,NA,NA,0E8F5Td3,2020-0188,2021-09-26,15:10:12,16:03:09,NA,incomplete,false,true,NA,5,19,origin,m_s_014.jpg,left,manmade,natural,NA,NA,NA,left,2660.30000001192,true,NA,NA,NA,NA,NA
0E8F5Td3,NA,NA,0E8F5Td3,2020-0188,2021-09-26,15:10:12,16:03:09,NA,incomplete,false,true,NA,5,20,syllable,c_2_008.jpg,right,2 syllables,1 syllable,NA,NA,NA,left,1267.5,false,NA,NA,NA,NA,NA
0E8F5Td3,NA,NA,0E8F5Td3,2020-0188,2021-09-26,15:10:12,16:03:09,NA,incomplete,false,true,NA,5,21,syllable,a_1_027.jpg,right,1 syllable,2 syllables,NA,NA,NA,left,1394.90000003576,false,NA,NA,NA,NA,NA
0E8F5Td3,NA,NA,0E8F5Td3,2020-0188,2021-09-26,15:10:12,16:03:09,NA,incomplete,false,true,NA,5,22,syllable,a_2_005.jpg,right,1 syllable,2 syllables,NA,NA,NA,right,1568.90000003576,true,NA,NA,NA,NA,NA
0E8F5Td3,NA,NA,0E8F5Td3,2020-0188,2021-09-26,15:10:12,16:03:09,NA,incomplete,false,true,NA,5,23,syllable,a_1_002.jpg,right,1 syllable,2 syllables,NA,NA,NA,left,1285.19999998808,false,NA,NA,NA,NA,NA
0E8F5Td3,NA,NA,0E8F5Td3,2020-0188,2021-09-26,15:10:12,16:03:09,NA,incomplete,false,true,NA,5,24,syllable,c_2_009.jpg,right,2 syllables,1 syllable,NA,NA,NA,right,330.199999988079,true,NA,NA,NA,NA,NA
0E8F5Td3,NA,NA,0E8F5Td3,2020-0188,2021-09-26,15:10:12,16:03:09,NA,incomplete,false,true,NA,5,25,abstractness,c_1_004.jpg,right,abstract,concrete,NA,NA,NA,right,425.200000047684,true,NA,NA,NA,NA,NA
0E8F5Td3,NA,NA,0E8F5Td3,2020-0188,2021-09-26,15:10:12,16:03:09,NA,incomplete,false,true,NA,5,26,abstractness,c_1_005.jpg,left,concrete,abstract,NA,NA,NA,right,358.400000035763,false,NA,NA,NA,NA,NA
0E8F5Td3,NA,NA,0E8F5Td3,2020-0188,2021-09-26,15:10:12,16:03:09,NA,incomplete,false,true,NA,5,27,abstractness,a_2_006.jpg,right,concrete,abstract,NA,NA,NA,right,540.199999988079,true,NA,NA,NA,NA,NA
0E8F5Td3,NA,NA,0E8F5Td3,2020-0188,2021-09-26,15:10:12,16:03:09,NA,incomplete,false,true,NA,5,28,abstractness,c_1_008.jpg,right,abstract,concrete,NA,NA,NA,right,362,true,NA,NA,NA,NA,NA
0E8F5Td3,NA,NA,0E8F5Td3,2020-0188,2021-09-26,15:10:12,16:03:09,NA,incomplete,false,true,NA,5,29,abstractness,c_1_018.jpg,right,abstract,concrete,NA,NA,NA,right,815.699999988079,true,NA,NA,NA,NA,NA
0E8F5Td3,NA,NA,0E8F5Td3,2020-0188,2021-09-26,15:10:12,16:03:09,NA,incomplete,false,NA,true,5,0,NA,NA,right,NA,NA,o_c_021.jpg,i_c_006.jpg,between-small,NA,NaN,NA,right,461.89999997615814,1,1,1519.199999988079
0E8F5Td3,NA,NA,0E8F5Td3,2020-0188,2021-09-26,15:10:12,16:03:09,NA,incomplete,false,NA,true,5,1,NA,NA,left,NA,NA,m_s_026.jpg,m_s_014.jpg,within,NA,NaN,NA,right,348.89999997615814,0,3,1444.9000000357628
0E8F5Td3,NA,NA,0E8F5Td3,2020-0188,2021-09-26,15:10:12,16:03:09,NA,incomplete,false,NA,true,5,2,NA,NA,right,NA,NA,o_s_018.jpg,i_s_022.jpg,between-small,NA,NaN,NA,right,1936.699999988079,1,0,1009.5999999642372
0E8F5Td3,NA,NA,0E8F5Td3,2020-0188,2021-09-26,15:10:12,16:03:09,NA,incomplete,false,NA,true,5,3,NA,NA,left,NA,NA,c_1_004.jpg,c_1_008.jpg,within,NA,NaN,NA,right,404.10000002384186,0,1,1378
0E8F5Td3,NA,NA,0E8F5Td3,2020-0188,2021-09-26,15:10:12,16:03:09,NA,incomplete,false,NA,true,5,4,NA,NA,left,NA,NA,i_s_002.jpg,i_c_028.jpg,within,NA,NaN,NA,right,372.60000002384186,0,0,930.1999999880791
0E8F5Td3,NA,NA,0E8F5Td3,2020-0188,2021-09-26,15:10:12,16:03:09,NA,incomplete,false,NA,true,5,5,NA,NA,left,NA,NA,n_l_023.jpg,m_l_013.jpg,between-small,NA,NaN,NA,right,430.5999999642372,0,0,2820.5
0E8F5Td3,NA,NA,0E8F5Td3,2020-0188,2021-09-26,15:10:12,16:03:09,NA,incomplete,false,NA,true,5,6,NA,NA,right,NA,NA,m_l_018.jpg,m_l_021.jpg,within,NA,NaN,NA,right,571.4000000357628,1,2,1150.3999999761581
0E8F5Td3,NA,NA,0E8F5Td3,2020-0188,2021-09-26,15:10:12,16:03:09,NA,incomplete,false,NA,true,5,7,NA,NA,left,NA,NA,a_2_005.jpg,c_1_004.jpg,between-small,NA,NaN,NA,right,569.8000000119209,0,2,1026.5
0E8F5Td3,NA,NA,0E8F5Td3,2020-0188,2021-09-26,15:10:12,16:03:09,NA,incomplete,false,NA,true,5,8,NA,NA,right,NA,NA,a_2_006.jpg,c_2_009.jpg,between-small,NA,NaN,NA,right,736.3000000119209,1,1,1585.199999988079
0E8F5Td3,NA,NA,0E8F5Td3,2020-0188,2021-09-26,15:10:12,16:03:09,NA,incomplete,false,NA,true,5,9,NA,NA,right,NA,NA,m_l_021.jpg,m_l_019.jpg,between-small,NA,NaN,NA,right,424.39999997615814,1,0,874.5999999642372
0E8F5Td3,NA,NA,0E8F5Td3,2020-0188,2021-09-26,15:10:12,16:03:09,NA,incomplete,false,NA,true,5,10,NA,NA,right,NA,NA,n_l_027.jpg,i_c_028.jpg,between-big,NA,NaN,NA,right,482.30000001192093,1,0,808.8999999761581
0E8F5Td3,NA,NA,0E8F5Td3,2020-0188,2021-09-26,15:10:12,16:03:09,NA,incomplete,false,NA,true,5,11,NA,NA,right,NA,NA,m_s_004.jpg,n_s_012.jpg,within,NA,NaN,NA,right,515.0999999642372,1,0,2411.400000035763
0E8F5Td3,NA,NA,0E8F5Td3,2020-0188,2021-09-26,15:10:12,16:03:09,NA,incomplete,false,NA,true,5,12,NA,NA,left,NA,NA,o_c_021.jpg,i_s_021.jpg,within,NA,NaN,NA,right,703.1999999880791,0,1,1479.9000000357628
0E8F5Td3,NA,NA,0E8F5Td3,2020-0188,2021-09-26,15:10:12,16:03:09,NA,incomplete,false,NA,true,5,13,NA,NA,left,NA,NA,o_s_010.jpg,i_s_002.jpg,between-small,NA,NaN,NA,right,1007.5,0,1,2550.899999976158
0E8F5Td3,NA,NA,0E8F5Td3,2020-0188,2021-09-26,15:10:12,16:03:09,NA,incomplete,false,NA,true,5,14,NA,NA,left,NA,NA,n_l_027.jpg,n_l_023.jpg,within,NA,NaN,NA,right,496.69999998807907,0,1,1177.300000011921
0E8F5Td3,NA,NA,0E8F5Td3,2020-0188,2021-09-26,15:10:12,16:03:09,NA,incomplete,false,NA,true,5,15,NA,NA,left,NA,NA,o_c_022.jpg,i_c_006.jpg,within,NA,NaN,NA,right,710.7000000476837,0,1,914.1000000238419
0E8F5Td3,NA,NA,0E8F5Td3,2020-0188,2021-09-26,15:10:12,16:03:09,NA,incomplete,false,NA,true,5,16,NA,NA,left,NA,NA,o_s_018.jpg,n_s_012.jpg,between-big,NA,NaN,NA,right,349.9000000357628,0,3,790.6999999880791
0E8F5Td3,NA,NA,0E8F5Td3,2020-0188,2021-09-26,15:10:12,16:03:09,NA,incomplete,false,NA,true,5,17,NA,NA,left,NA,NA,m_s_014.jpg,a_2_005.jpg,between-big,NA,NaN,NA,right,334.89999997615814,0,3,1340.5
0E8F5Td3,NA,NA,0E8F5Td3,2020-0188,2021-09-26,15:10:12,16:03:09,NA,incomplete,false,NA,true,5,18,NA,NA,left,NA,NA,i_s_021.jpg,m_l_019.jpg,between-big,NA,NaN,NA,right,391,0,2,1162
0E8F5Td3,NA,NA,0E8F5Td3,2020-0188,2021-09-26,15:10:12,16:03:09,NA,incomplete,false,NA,true,5,19,NA,NA,left,NA,NA,m_l_013.jpg,c_2_008.jpg,between-big,NA,NaN,NA,right,874,0,3,1632.300000011921
0E8F5Td3,NA,NA,0E8F5Td3,2020-0188,2021-09-26,15:10:12,16:03:09,NA,incomplete,false,NA,true,5,20,NA,NA,left,NA,NA,a_1_002.jpg,c_1_005.jpg,between-small,NA,NaN,NA,right,530.8999999761581,0,3,1406.1000000238419
0E8F5Td3,NA,NA,0E8F5Td3,2020-0188,2021-09-26,15:10:12,16:03:09,NA,incomplete,false,NA,true,5,21,NA,NA,right,NA,NA,a_1_002.jpg,c_2_008.jpg,within,NA,NaN,NA,right,601.1999999880791,1,2,1039.5
0E8F5Td3,NA,NA,0E8F5Td3,2020-0188,2021-09-26,15:10:12,16:03:09,NA,incomplete,false,NA,true,5,22,NA,NA,right,NA,NA,i_s_022.jpg,i_s_024.jpg,within,NA,NaN,NA,right,441.5,1,0,1013.0999999642372
0E8F5Td3,NA,NA,0E8F5Td3,2020-0188,2021-09-26,15:10:12,16:03:09,NA,incomplete,false,NA,true,5,23,NA,NA,left,NA,NA,a_1_027.jpg,c_2_009.jpg,within,NA,NaN,NA,right,424.80000001192093,0,0,1085.7999999523163
0E8F5Td3,NA,NA,0E8F5Td3,2020-0188,2021-09-26,15:10:12,16:03:09,NA,incomplete,false,NA,true,5,24,NA,NA,left,NA,NA,m_l_018.jpg,a_1_027.jpg,between-big,NA,NaN,NA,right,377.5999999642372,0,2,707.9000000357628
0E8F5Td3,NA,NA,0E8F5Td3,2020-0188,2021-09-26,15:10:12,16:03:09,NA,incomplete,false,NA,true,5,25,NA,NA,left,NA,NA,m_s_004.jpg,m_s_026.jpg,between-small,NA,NaN,NA,right,377.5,0,3,945.6999999880791
0E8F5Td3,NA,NA,0E8F5Td3,2020-0188,2021-09-26,15:10:12,16:03:09,NA,incomplete,false,NA,true,5,26,NA,NA,left,NA,NA,c_1_005.jpg,c_1_018.jpg,within,NA,NaN,NA,right,605,0,3,766.8999999761581
0E8F5Td3,NA,NA,0E8F5Td3,2020-0188,2021-09-26,15:10:12,16:03:09,NA,incomplete,false,true,NA,6,0,abstractness,c_1_012.jpg,left,concrete,abstract,NA,NA,NA,none,0,false,NA,NA,NA,NA,NA
0E8F5Td3,NA,NA,0E8F5Td3,2020-0188,2021-09-26,15:10:12,16:03:09,NA,incomplete,false,true,NA,6,1,abstractness,c_1_001.jpg,left,concrete,abstract,NA,NA,NA,none,0,false,NA,NA,NA,NA,NA
0E8F5Td3,NA,NA,0E8F5Td3,2020-0188,2021-09-26,15:10:12,16:03:09,NA,incomplete,false,true,NA,6,2,abstractness,c_1_009.jpg,left,concrete,abstract,NA,NA,NA,none,0,false,NA,NA,NA,NA,NA
0E8F5Td3,NA,NA,0E8F5Td3,2020-0188,2021-09-26,15:10:12,16:03:09,NA,incomplete,false,true,NA,6,3,abstractness,a_1_020.jpg,right,concrete,abstract,NA,NA,NA,none,0,false,NA,NA,NA,NA,NA
0E8F5Td3,NA,NA,0E8F5Td3,2020-0188,2021-09-26,15:10:12,16:03:09,NA,incomplete,false,true,NA,6,4,abstractness,a_2_012.jpg,left,abstract,concrete,NA,NA,NA,none,0,false,NA,NA,NA,NA,NA
0E8F5Td3,NA,NA,0E8F5Td3,2020-0188,2021-09-26,15:10:12,16:03:09,NA,incomplete,false,true,NA,6,5,syllable,a_1_015.jpg,right,1 syllable,2 syllables,NA,NA,NA,none,0,false,NA,NA,NA,NA,NA
0E8F5Td3,NA,NA,0E8F5Td3,2020-0188,2021-09-26,15:10:12,16:03:09,NA,incomplete,false,true,NA,6,6,syllable,a_1_008.jpg,right,2 syllables,1 syllable,NA,NA,NA,none,0,false,NA,NA,NA,NA,NA
0E8F5Td3,NA,NA,0E8F5Td3,2020-0188,2021-09-26,15:10:12,16:03:09,NA,incomplete,false,true,NA,6,7,syllable,a_1_016.jpg,right,2 syllables,1 syllable,NA,NA,NA,none,0,false,NA,NA,NA,NA,NA
0E8F5Td3,NA,NA,0E8F5Td3,2020-0188,2021-09-26,15:10:12,16:03:09,NA,incomplete,false,true,NA,6,8,syllable,a_1_003.jpg,right,2 syllables,1 syllable,NA,NA,NA,none,0,false,NA,NA,NA,NA,NA
0E8F5Td3,NA,NA,0E8F5Td3,2020-0188,2021-09-26,15:10:12,16:03:09,NA,incomplete,false,true,NA,6,9,syllable,a_2_001.jpg,right,2 syllables,1 syllable,NA,NA,NA,none,0,false,NA,NA,NA,NA,NA
0E8F5Td3,NA,NA,0E8F5Td3,2020-0188,2021-09-26,15:10:12,16:03:09,NA,incomplete,false,true,NA,6,10,origin,m_s_003.jpg,left,manmade,natural,NA,NA,NA,none,0,false,NA,NA,NA,NA,NA
0E8F5Td3,NA,NA,0E8F5Td3,2020-0188,2021-09-26,15:10:12,16:03:09,NA,incomplete,false,true,NA,6,11,origin,n_l_009.jpg,left,natural,manmade,NA,NA,NA,none,0,false,NA,NA,NA,NA,NA
0E8F5Td3,NA,NA,0E8F5Td3,2020-0188,2021-09-26,15:10:12,16:03:09,NA,incomplete,false,true,NA,6,12,origin,n_s_016.jpg,left,natural,manmade,NA,NA,NA,none,0,false,NA,NA,NA,NA,NA
0E8F5Td3,NA,NA,0E8F5Td3,2020-0188,2021-09-26,15:10:12,16:03:09,NA,incomplete,false,true,NA,6,13,origin,n_l_022.jpg,left,natural,manmade,NA,NA,NA,none,0,false,NA,NA,NA,NA,NA
0E8F5Td3,NA,NA,0E8F5Td3,2020-0188,2021-09-26,15:10:12,16:03:09,NA,incomplete,false,true,NA,6,14,origin,n_s_001.jpg,left,natural,manmade,NA,NA,NA,none,0,false,NA,NA,NA,NA,NA
0E8F5Td3,NA,NA,0E8F5Td3,2020-0188,2021-09-26,15:10:12,16:03:09,NA,incomplete,false,true,NA,6,15,size,n_l_010.jpg,right,small,large,NA,NA,NA,none,0,false,NA,NA,NA,NA,NA
0E8F5Td3,NA,NA,0E8F5Td3,2020-0188,2021-09-26,15:10:12,16:03:09,NA,incomplete,false,true,NA,6,16,size,m_s_017.jpg,right,large,small,NA,NA,NA,none,0,false,NA,NA,NA,NA,NA
0E8F5Td3,NA,NA,0E8F5Td3,2020-0188,2021-09-26,15:10:12,16:03:09,NA,incomplete,false,true,NA,6,17,size,m_s_012.jpg,right,large,small,NA,NA,NA,none,0,false,NA,NA,NA,NA,NA
0E8F5Td3,NA,NA,0E8F5Td3,2020-0188,2021-09-26,15:10:12,16:03:09,NA,incomplete,false,true,NA,6,18,size,n_l_001.jpg,right,small,large,NA,NA,NA,none,0,false,NA,NA,NA,NA,NA
0E8F5Td3,NA,NA,0E8F5Td3,2020-0188,2021-09-26,15:10:12,16:03:09,NA,incomplete,false,true,NA,6,19,size,m_s_005.jpg,right,large,small,NA,NA,NA,none,0,false,NA,NA,NA,NA,NA
0E8F5Td3,NA,NA,0E8F5Td3,2020-0188,2021-09-26,15:10:12,16:03:09,NA,incomplete,false,true,NA,6,20,location,i_s_008.jpg,right,outdoor,indoor,NA,NA,NA,none,0,false,NA,NA,NA,NA,NA
0E8F5Td3,NA,NA,0E8F5Td3,2020-0188,2021-09-26,15:10:12,16:03:09,NA,incomplete,false,true,NA,6,21,location,i_s_003.jpg,left,indoor,outdoor,NA,NA,NA,none,0,false,NA,NA,NA,NA,NA
0E8F5Td3,NA,NA,0E8F5Td3,2020-0188,2021-09-26,15:10:12,16:03:09,NA,incomplete,false,true,NA,6,22,location,o_s_014.jpg,right,indoor,outdoor,NA,NA,NA,none,0,false,NA,NA,NA,NA,NA
0E8F5Td3,NA,NA,0E8F5Td3,2020-0188,2021-09-26,15:10:12,16:03:09,NA,incomplete,false,true,NA,6,23,location,o_s_011.jpg,right,indoor,outdoor,NA,NA,NA,none,0,false,NA,NA,NA,NA,NA
0E8F5Td3,NA,NA,0E8F5Td3,2020-0188,2021-09-26,15:10:12,16:03:09,NA,incomplete,false,true,NA,6,24,location,o_c_011.jpg,left,outdoor,indoor,NA,NA,NA,none,0,false,NA,NA,NA,NA,NA
0E8F5Td3,NA,NA,0E8F5Td3,2020-0188,2021-09-26,15:10:12,16:03:09,NA,incomplete,false,true,NA,6,25,building,o_s_026.jpg,left,skyscraper,cottage,NA,NA,NA,none,0,false,NA,NA,NA,NA,NA
0E8F5Td3,NA,NA,0E8F5Td3,2020-0188,2021-09-26,15:10:12,16:03:09,NA,incomplete,false,true,NA,6,26,building,o_c_009.jpg,left,cottage,skyscraper,NA,NA,NA,none,0,false,NA,NA,NA,NA,NA
0E8F5Td3,NA,NA,0E8F5Td3,2020-0188,2021-09-26,15:10:12,16:03:09,NA,incomplete,false,true,NA,6,27,building,o_s_024.jpg,right,cottage,skyscraper,NA,NA,NA,none,0,false,NA,NA,NA,NA,NA
0E8F5Td3,NA,NA,0E8F5Td3,2020-0188,2021-09-26,15:10:12,16:03:09,NA,incomplete,false,true,NA,6,28,building,o_s_023.jpg,left,skyscraper,cottage,NA,NA,NA,none,0,false,NA,NA,NA,NA,NA
0E8F5Td3,NA,NA,0E8F5Td3,2020-0188,2021-09-26,15:10:12,16:03:09,NA,incomplete,false,true,NA,6,29,building,i_c_026.jpg,right,skyscraper,cottage,NA,NA,NA,none,0,false,NA,NA,NA,NA,NA
0E8F5Td3,NA,NA,0E8F5Td3,2020-0188,2021-09-26,15:10:12,16:03:09,NA,incomplete,false,NA,true,6,0,NA,NA,left,NA,NA,n_l_009.jpg,n_s_001.jpg,within,NA,NaN,NA,right,404.4000000357628,0,3,822.1999999880791
0E8F5Td3,NA,NA,0E8F5Td3,2020-0188,2021-09-26,15:10:12,16:03:09,NA,incomplete,false,NA,true,6,1,NA,NA,left,NA,NA,m_s_012.jpg,i_s_008.jpg,between-big,NA,NaN,NA,right,355.10000002384186,0,3,700.2000000476837
0E8F5Td3,NA,NA,0E8F5Td3,2020-0188,2021-09-26,15:10:12,16:03:09,NA,incomplete,false,NA,true,6,2,NA,NA,left,NA,NA,n_l_010.jpg,n_l_001.jpg,within,NA,NaN,NA,right,322.39999997615814,0,3,2810.2000000476837
0E8F5Td3,NA,NA,0E8F5Td3,2020-0188,2021-09-26,15:10:12,16:03:09,NA,incomplete,false,NA,true,6,3,NA,NA,right,NA,NA,m_s_003.jpg,a_1_016.jpg,between-big,NA,NaN,NA,right,424.10000002384186,1,3,923.4000000357628
0E8F5Td3,NA,NA,0E8F5Td3,2020-0188,2021-09-26,15:10:12,16:03:09,NA,incomplete,false,NA,true,6,4,NA,NA,right,NA,NA,a_1_008.jpg,a_1_020.jpg,between-small,NA,NaN,NA,right,441.89999997615814,1,3,924
0E8F5Td3,NA,NA,0E8F5Td3,2020-0188,2021-09-26,15:10:12,16:03:09,NA,incomplete,false,NA,true,6,5,NA,NA,right,NA,NA,n_l_022.jpg,m_s_003.jpg,within,NA,NaN,NA,right,376.5999999642372,1,3,824.8000000119209
0E8F5Td3,NA,NA,0E8F5Td3,2020-0188,2021-09-26,15:10:12,16:03:09,NA,incomplete,false,NA,true,6,6,NA,NA,left,NA,NA,a_1_015.jpg,a_1_003.jpg,within,NA,NaN,NA,right,400.80000001192093,0,3,1831
0E8F5Td3,NA,NA,0E8F5Td3,2020-0188,2021-09-26,15:10:12,16:03:09,NA,incomplete,false,NA,true,6,7,NA,NA,left,NA,NA,o_s_011.jpg,o_c_009.jpg,between-small,NA,NaN,NA,right,1145.800000011921,0,3,683.8999999761581
0E8F5Td3,NA,NA,0E8F5Td3,2020-0188,2021-09-26,15:10:12,16:03:09,NA,incomplete,false,NA,true,6,8,NA,NA,left,NA,NA,o_c_011.jpg,o_s_024.jpg,between-small,NA,NaN,NA,right,376.2000000476837,0,3,856.6000000238419
0E8F5Td3,NA,NA,0E8F5Td3,2020-0188,2021-09-26,15:10:12,16:03:09,NA,incomplete,false,NA,true,6,9,NA,NA,right,NA,NA,n_l_009.jpg,a_1_003.jpg,between-big,NA,NaN,NA,right,384,1,3,848
0E8F5Td3,NA,NA,0E8F5Td3,2020-0188,2021-09-26,15:10:12,16:03:09,NA,incomplete,false,NA,true,6,10,NA,NA,left,NA,NA,n_s_016.jpg,n_l_010.jpg,between-small,NA,NaN,NA,right,425,0,3,1286.5
0E8F5Td3,NA,NA,0E8F5Td3,2020-0188,2021-09-26,15:10:12,16:03:09,NA,incomplete,false,NA,true,6,11,NA,NA,right,NA,NA,m_s_012.jpg,n_s_001.jpg,between-small,NA,NaN,NA,right,444.10000002384186,1,2,783
0E8F5Td3,NA,NA,0E8F5Td3,2020-0188,2021-09-26,15:10:12,16:03:09,NA,incomplete,false,NA,true,6,12,NA,NA,right,NA,NA,m_s_017.jpg,n_l_022.jpg,between-small,NA,NaN,NA,right,367.30000001192093,1,3,1290.199999988079
0E8F5Td3,NA,NA,0E8F5Td3,2020-0188,2021-09-26,15:10:12,16:03:09,NA,incomplete,false,NA,true,6,13,NA,NA,right,NA,NA,n_s_016.jpg,a_2_001.jpg,between-big,NA,NaN,NA,right,384.5999999642372,1,3,840.5999999642372
0E8F5Td3,NA,NA,0E8F5Td3,2020-0188,2021-09-26,15:10:12,16:03:09,NA,incomplete,false,NA,true,6,14,NA,NA,right,NA,NA,a_1_016.jpg,a_2_012.jpg,between-small,NA,NaN,NA,right,399.5,1,3,979.3000000119209
0E8F5Td3,NA,NA,0E8F5Td3,2020-0188,2021-09-26,15:10:12,16:03:09,NA,incomplete,false,NA,true,6,15,NA,NA,left,NA,NA,i_s_008.jpg,o_s_011.jpg,within,NA,NaN,NA,right,378.4000000357628,0,3,1439
0E8F5Td3,NA,NA,0E8F5Td3,2020-0188,2021-09-26,15:10:12,16:03:09,NA,incomplete,false,NA,true,6,16,NA,NA,left,NA,NA,c_1_009.jpg,a_1_015.jpg,between-small,NA,NaN,NA,right,505.89999997615814,0,3,766.6000000238419
0E8F5Td3,NA,NA,0E8F5Td3,2020-0188,2021-09-26,15:10:12,16:03:09,NA,incomplete,false,NA,true,6,17,NA,NA,left,NA,NA,m_s_005.jpg,o_s_014.jpg,between-big,NA,NaN,NA,right,375.60000002384186,0,3,881.8000000119209
0E8F5Td3,NA,NA,0E8F5Td3,2020-0188,2021-09-26,15:10:12,16:03:09,NA,incomplete,false,NA,true,6,18,NA,NA,right,NA,NA,o_s_026.jpg,o_s_014.jpg,between-small,NA,NaN,NA,right,383.10000002384186,1,0,1165.3999999761581
0E8F5Td3,NA,NA,0E8F5Td3,2020-0188,2021-09-26,15:10:12,16:03:09,NA,incomplete,false,NA,true,6,19,NA,NA,left,NA,NA,o_c_009.jpg,i_c_026.jpg,within,NA,NaN,NA,right,400.9000000357628,0,2,1076.3999999761581
0E8F5Td3,NA,NA,0E8F5Td3,2020-0188,2021-09-26,15:10:12,16:03:09,NA,incomplete,false,NA,true,6,20,NA,NA,right,NA,NA,a_2_001.jpg,a_1_008.jpg,within,NA,NaN,NA,right,434,1,1,850.3999999761581
0E8F5Td3,NA,NA,0E8F5Td3,2020-0188,2021-09-26,15:10:12,16:03:09,NA,incomplete,false,NA,true,6,21,NA,NA,right,NA,NA,o_s_023.jpg,o_s_026.jpg,within,NA,NaN,NA,right,375.10000002384186,1,0,1043.800000011921
0E8F5Td3,NA,NA,0E8F5Td3,2020-0188,2021-09-26,15:10:12,16:03:09,NA,incomplete,false,NA,true,6,22,NA,NA,left,NA,NA,c_1_001.jpg,a_2_012.jpg,within,NA,NaN,NA,right,407.5,0,3,15079.399999976158
0E8F5Td3,NA,NA,0E8F5Td3,2020-0188,2021-09-26,15:10:12,16:03:09,NA,incomplete,false,NA,true,6,23,NA,NA,left,NA,NA,m_s_017.jpg,m_s_005.jpg,within,NA,NaN,NA,right,392.60000002384186,0,3,700.6000000238419
0E8F5Td3,NA,NA,0E8F5Td3,2020-0188,2021-09-26,15:10:12,16:03:09,NA,incomplete,false,NA,true,6,24,NA,NA,left,NA,NA,c_1_012.jpg,a_1_020.jpg,within,NA,NaN,NA,right,439.69999998807907,0,2,979.5
0E8F5Td3,NA,NA,0E8F5Td3,2020-0188,2021-09-26,15:10:12,16:03:09,NA,incomplete,false,NA,true,6,25,NA,NA,left,NA,NA,n_l_001.jpg,i_s_003.jpg,between-big,NA,NaN,NA,right,375.89999997615814,0,1,1871.5999999642372
0E8F5Td3,NA,NA,0E8F5Td3,2020-0188,2021-09-26,15:10:12,16:03:09,NA,incomplete,false,NA,true,6,26,NA,NA,left,NA,NA,i_s_003.jpg,o_c_011.jpg,within,NA,NaN,NA,right,350.9000000357628,0,0,766.8999999761581
0E8F5Td3,NA,NA,0E8F5Td3,2020-0188,2021-09-26,15:10:12,16:03:09,NA,incomplete,false,true,NA,7,0,building,o_c_007.jpg,right,skyscraper,cottage,NA,NA,NA,none,0,false,NA,NA,NA,NA,NA
0E8F5Td3,NA,NA,0E8F5Td3,2020-0188,2021-09-26,15:10:12,16:03:09,NA,incomplete,false,true,NA,7,1,building,o_s_015.jpg,right,cottage,skyscraper,NA,NA,NA,none,0,false,NA,NA,NA,NA,NA
0E8F5Td3,NA,NA,0E8F5Td3,2020-0188,2021-09-26,15:10:12,16:03:09,NA,incomplete,false,true,NA,7,2,building,i_c_019.jpg,right,skyscraper,cottage,NA,NA,NA,none,0,false,NA,NA,NA,NA,NA
0E8F5Td3,NA,NA,0E8F5Td3,2020-0188,2021-09-26,15:10:12,16:03:09,NA,incomplete,false,true,NA,7,3,building,i_s_025.jpg,right,cottage,skyscraper,NA,NA,NA,none,0,false,NA,NA,NA,NA,NA
0E8F5Td3,NA,NA,0E8F5Td3,2020-0188,2021-09-26,15:10:12,16:03:09,NA,incomplete,false,true,NA,7,4,building,o_c_008.jpg,right,skyscraper,cottage,NA,NA,NA,none,0,false,NA,NA,NA,NA,NA
0E8F5Td3,NA,NA,0E8F5Td3,2020-0188,2021-09-26,15:10:12,16:03:09,NA,incomplete,false,true,NA,7,5,location,o_c_002.jpg,left,outdoor,indoor,NA,NA,NA,none,0,false,NA,NA,NA,NA,NA
0E8F5Td3,NA,NA,0E8F5Td3,2020-0188,2021-09-26,15:10:12,16:03:09,NA,incomplete,false,true,NA,7,6,location,i_c_008.jpg,left,indoor,outdoor,NA,NA,NA,none,0,false,NA,NA,NA,NA,NA
0E8F5Td3,NA,NA,0E8F5Td3,2020-0188,2021-09-26,15:10:12,16:03:09,NA,incomplete,false,true,NA,7,7,location,o_s_002.jpg,left,outdoor,indoor,NA,NA,NA,none,0,false,NA,NA,NA,NA,NA
0E8F5Td3,NA,NA,0E8F5Td3,2020-0188,2021-09-26,15:10:12,16:03:09,NA,incomplete,false,true,NA,7,8,location,i_s_027.jpg,right,outdoor,indoor,NA,NA,NA,none,0,false,NA,NA,NA,NA,NA
0E8F5Td3,NA,NA,0E8F5Td3,2020-0188,2021-09-26,15:10:12,16:03:09,NA,incomplete,false,true,NA,7,9,location,i_c_012.jpg,right,outdoor,indoor,NA,NA,NA,none,0,false,NA,NA,NA,NA,NA
0E8F5Td3,NA,NA,0E8F5Td3,2020-0188,2021-09-26,15:10:12,16:03:09,NA,incomplete,false,true,NA,7,10,origin,n_l_008.jpg,left,natural,manmade,NA,NA,NA,none,0,false,NA,NA,NA,NA,NA
0E8F5Td3,NA,NA,0E8F5Td3,2020-0188,2021-09-26,15:10:12,16:03:09,NA,incomplete,false,true,NA,7,11,origin,n_s_026.jpg,left,natural,manmade,NA,NA,NA,none,0,false,NA,NA,NA,NA,NA
0E8F5Td3,NA,NA,0E8F5Td3,2020-0188,2021-09-26,15:10:12,16:03:09,NA,incomplete,false,true,NA,7,12,origin,n_s_022.jpg,left,natural,manmade,NA,NA,NA,none,0,false,NA,NA,NA,NA,NA
0E8F5Td3,NA,NA,0E8F5Td3,2020-0188,2021-09-26,15:10:12,16:03:09,NA,incomplete,false,true,NA,7,13,origin,m_l_006.jpg,right,natural,manmade,NA,NA,NA,none,0,false,NA,NA,NA,NA,NA
0E8F5Td3,NA,NA,0E8F5Td3,2020-0188,2021-09-26,15:10:12,16:03:09,NA,incomplete,false,true,NA,7,14,origin,n_l_026.jpg,left,natural,manmade,NA,NA,NA,none,0,false,NA,NA,NA,NA,NA
0E8F5Td3,NA,NA,0E8F5Td3,2020-0188,2021-09-26,15:10:12,16:03:09,NA,incomplete,false,true,NA,7,15,size,m_s_020.jpg,right,large,small,NA,NA,NA,none,0,false,NA,NA,NA,NA,NA
0E8F5Td3,NA,NA,0E8F5Td3,2020-0188,2021-09-26,15:10:12,16:03:09,NA,incomplete,false,true,NA,7,16,size,m_l_023.jpg,right,small,large,NA,NA,NA,none,0,false,NA,NA,NA,NA,NA
0E8F5Td3,NA,NA,0E8F5Td3,2020-0188,2021-09-26,15:10:12,16:03:09,NA,incomplete,false,true,NA,7,17,size,n_l_015.jpg,left,large,small,NA,NA,NA,none,0,false,NA,NA,NA,NA,NA
0E8F5Td3,NA,NA,0E8F5Td3,2020-0188,2021-09-26,15:10:12,16:03:09,NA,incomplete,false,true,NA,7,18,size,m_s_018.jpg,right,large,small,NA,NA,NA,none,0,false,NA,NA,NA,NA,NA
0E8F5Td3,NA,NA,0E8F5Td3,2020-0188,2021-09-26,15:10:12,16:03:09,NA,incomplete,false,true,NA,7,19,size,m_l_008.jpg,left,large,small,NA,NA,NA,none,0,false,NA,NA,NA,NA,NA
0E8F5Td3,NA,NA,0E8F5Td3,2020-0188,2021-09-26,15:10:12,16:03:09,NA,incomplete,false,true,NA,7,20,syllable,c_2_025.jpg,right,2 syllables,1 syllable,NA,NA,NA,none,0,false,NA,NA,NA,NA,NA
0E8F5Td3,NA,NA,0E8F5Td3,2020-0188,2021-09-26,15:10:12,16:03:09,NA,incomplete,false,true,NA,7,21,syllable,c_1_015.jpg,right,1 syllable,2 syllables,NA,NA,NA,none,0,false,NA,NA,NA,NA,NA
0E8F5Td3,NA,NA,0E8F5Td3,2020-0188,2021-09-26,15:10:12,16:03:09,NA,incomplete,false,true,NA,7,22,syllable,a_2_003.jpg,right,2 syllables,1 syllable,NA,NA,NA,none,0,false,NA,NA,NA,NA,NA
0E8F5Td3,NA,NA,0E8F5Td3,2020-0188,2021-09-26,15:10:12,16:03:09,NA,incomplete,false,true,NA,7,23,syllable,c_2_027.jpg,right,1 syllable,2 syllables,NA,NA,NA,none,0,false,NA,NA,NA,NA,NA
0E8F5Td3,NA,NA,0E8F5Td3,2020-0188,2021-09-26,15:10:12,16:03:09,NA,incomplete,false,true,NA,7,24,syllable,a_1_019.jpg,right,1 syllable,2 syllables,NA,NA,NA,none,0,false,NA,NA,NA,NA,NA
0E8F5Td3,NA,NA,0E8F5Td3,2020-0188,2021-09-26,15:10:12,16:03:09,NA,incomplete,false,true,NA,7,25,abstractness,c_1_013.jpg,left,concrete,abstract,NA,NA,NA,none,0,false,NA,NA,NA,NA,NA
0E8F5Td3,NA,NA,0E8F5Td3,2020-0188,2021-09-26,15:10:12,16:03:09,NA,incomplete,false,true,NA,7,26,abstractness,a_2_018.jpg,left,abstract,concrete,NA,NA,NA,none,0,false,NA,NA,NA,NA,NA
0E8F5Td3,NA,NA,0E8F5Td3,2020-0188,2021-09-26,15:10:12,16:03:09,NA,incomplete,false,true,NA,7,27,abstractness,a_2_015.jpg,left,abstract,concrete,NA,NA,NA,none,0,false,NA,NA,NA,NA,NA
0E8F5Td3,NA,NA,0E8F5Td3,2020-0188,2021-09-26,15:10:12,16:03:09,NA,incomplete,false,true,NA,7,28,abstractness,c_1_020.jpg,left,concrete,abstract,NA,NA,NA,none,0,false,NA,NA,NA,NA,NA
0E8F5Td3,NA,NA,0E8F5Td3,2020-0188,2021-09-26,15:10:12,16:03:09,NA,incomplete,false,true,NA,7,29,abstractness,c_2_011.jpg,left,concrete,abstract,NA,NA,NA,none,0,false,NA,NA,NA,NA,NA
0E8F5Td3,NA,NA,0E8F5Td3,2020-0188,2021-09-26,15:10:12,16:03:09,NA,incomplete,false,NA,true,7,0,NA,NA,left,NA,NA,n_s_022.jpg,m_s_020.jpg,between-small,NA,NaN,NA,right,421.10000002384186,0,3,913.3999999761581
0E8F5Td3,NA,NA,0E8F5Td3,2020-0188,2021-09-26,15:10:12,16:03:09,NA,incomplete,false,NA,true,7,1,NA,NA,right,NA,NA,a_2_015.jpg,a_1_019.jpg,between-small,NA,NaN,NA,right,1257.2000000476837,1,3,1267
0E8F5Td3,NA,NA,0E8F5Td3,2020-0188,2021-09-26,15:10:12,16:03:09,NA,incomplete,false,NA,true,7,2,NA,NA,right,NA,NA,m_l_008.jpg,m_l_023.jpg,within,NA,NaN,NA,right,356.60000002384186,1,3,902.7000000476837
0E8F5Td3,NA,NA,0E8F5Td3,2020-0188,2021-09-26,15:10:12,16:03:09,NA,incomplete,false,NA,true,7,3,NA,NA,right,NA,NA,c_2_025.jpg,n_l_015.jpg,between-big,NA,NaN,NA,right,365.5,1,3,645.1999999880791
0E8F5Td3,NA,NA,0E8F5Td3,2020-0188,2021-09-26,15:10:12,16:03:09,NA,incomplete,false,NA,true,7,4,NA,NA,left,NA,NA,i_c_019.jpg,o_c_002.jpg,between-small,NA,NaN,NA,right,1057,0,3,1162.3999999761581
0E8F5Td3,NA,NA,0E8F5Td3,2020-0188,2021-09-26,15:10:12,16:03:09,NA,incomplete,false,NA,true,7,5,NA,NA,left,NA,NA,o_s_002.jpg,n_l_008.jpg,between-big,NA,NaN,NA,right,391.89999997615814,0,3,1143
0E8F5Td3,NA,NA,0E8F5Td3,2020-0188,2021-09-26,15:10:12,16:03:09,NA,incomplete,false,NA,true,7,6,NA,NA,right,NA,NA,c_1_020.jpg,c_1_013.jpg,within,NA,NaN,NA,right,305.89999997615814,1,3,741.7999999523163
0E8F5Td3,NA,NA,0E8F5Td3,2020-0188,2021-09-26,15:10:12,16:03:09,NA,incomplete,false,NA,true,7,7,NA,NA,left,NA,NA,c_2_027.jpg,a_2_018.jpg,between-small,NA,NaN,NA,right,369.5,0,3,1513.3999999761581
0E8F5Td3,NA,NA,0E8F5Td3,2020-0188,2021-09-26,15:10:12,16:03:09,NA,incomplete,false,NA,true,7,8,NA,NA,right,NA,NA,c_1_013.jpg,a_2_003.jpg,between-small,NA,NaN,NA,right,367,1,3,946.5999999642372
0E8F5Td3,NA,NA,0E8F5Td3,2020-0188,2021-09-26,15:10:12,16:03:09,NA,incomplete,false,NA,true,7,9,NA,NA,right,NA,NA,i_c_012.jpg,i_c_008.jpg,within,NA,NaN,NA,right,358.9000000357628,1,3,734.4000000357628
0E8F5Td3,NA,NA,0E8F5Td3,2020-0188,2021-09-26,15:10:12,16:03:09,NA,incomplete,false,NA,true,7,10,NA,NA,right,NA,NA,c_2_027.jpg,c_2_025.jpg,within,NA,NaN,NA,right,423.9000000357628,1,3,815.9000000357628
0E8F5Td3,NA,NA,0E8F5Td3,2020-0188,2021-09-26,15:10:12,16:03:09,NA,incomplete,false,NA,true,7,11,NA,NA,right,NA,NA,i_s_025.jpg,o_c_007.jpg,within,NA,NaN,NA,right,374.5,1,3,808.9000000357628
0E8F5Td3,NA,NA,0E8F5Td3,2020-0188,2021-09-26,15:10:12,16:03:09,NA,incomplete,false,NA,true,7,12,NA,NA,right,NA,NA,a_2_003.jpg,m_l_008.jpg,between-big,NA,NaN,NA,right,351.10000002384186,1,3,792.6999999880791
0E8F5Td3,NA,NA,0E8F5Td3,2020-0188,2021-09-26,15:10:12,16:03:09,NA,incomplete,false,NA,true,7,13,NA,NA,right,NA,NA,c_2_011.jpg,a_2_018.jpg,within,NA,NaN,NA,right,391.19999998807907,1,3,709.5999999642372
0E8F5Td3,NA,NA,0E8F5Td3,2020-0188,2021-09-26,15:10:12,16:03:09,NA,incomplete,false,NA,true,7,14,NA,NA,left,NA,NA,o_s_015.jpg,o_c_008.jpg,within,NA,NaN,NA,right,343.69999998807907,0,3,784
0E8F5Td3,NA,NA,0E8F5Td3,2020-0188,2021-09-26,15:10:12,16:03:09,NA,incomplete,false,NA,true,7,15,NA,NA,right,NA,NA,i_c_008.jpg,i_s_025.jpg,between-small,NA,NaN,NA,right,337.30000001192093,1,3,1248.800000011921
0E8F5Td3,NA,NA,0E8F5Td3,2020-0188,2021-09-26,15:10:12,16:03:09,NA,incomplete,false,NA,true,7,16,NA,NA,left,NA,NA,o_c_002.jpg,i_s_027.jpg,within,NA,NaN,NA,right,327,0,3,1013.4000000357628
0E8F5Td3,NA,NA,0E8F5Td3,2020-0188,2021-09-26,15:10:12,16:03:09,NA,incomplete,false,NA,true,7,17,NA,NA,right,NA,NA,m_l_006.jpg,n_l_008.jpg,within,NA,NaN,NA,right,349.39999997615814,1,3,1553
0E8F5Td3,NA,NA,0E8F5Td3,2020-0188,2021-09-26,15:10:12,16:03:09,NA,incomplete,false,NA,true,7,18,NA,NA,right,NA,NA,a_1_019.jpg,c_1_015.jpg,within,NA,NaN,NA,right,587.6999999880791,1,3,747.1999999880791
0E8F5Td3,NA,NA,0E8F5Td3,2020-0188,2021-09-26,15:10:12,16:03:09,NA,incomplete,false,NA,true,7,19,NA,NA,left,NA,NA,n_s_026.jpg,n_l_026.jpg,within,NA,NaN,NA,right,375.39999997615814,0,3,1046.300000011921
0E8F5Td3,NA,NA,0E8F5Td3,2020-0188,2021-09-26,15:10:12,16:03:09,NA,incomplete,false,NA,true,7,20,NA,NA,left,NA,NA,m_l_006.jpg,m_l_023.jpg,between-small,NA,NaN,NA,right,325.60000002384186,0,3,1306.0999999642372
0E8F5Td3,NA,NA,0E8F5Td3,2020-0188,2021-09-26,15:10:12,16:03:09,NA,incomplete,false,NA,true,7,21,NA,NA,left,NA,NA,m_s_020.jpg,m_s_018.jpg,within,NA,NaN,NA,right,348.5,0,3,1479
0E8F5Td3,NA,NA,0E8F5Td3,2020-0188,2021-09-26,15:10:12,16:03:09,NA,incomplete,false,NA,true,7,22,NA,NA,right,NA,NA,n_s_022.jpg,i_c_012.jpg,between-big,NA,NaN,NA,right,367.89999997615814,1,3,791.5
0E8F5Td3,NA,NA,0E8F5Td3,2020-0188,2021-09-26,15:10:12,16:03:09,NA,incomplete,false,NA,true,7,23,NA,NA,left,NA,NA,n_l_026.jpg,n_l_015.jpg,between-small,NA,NaN,NA,right,382.80000001192093,0,3,1955.3999999761581
0E8F5Td3,NA,NA,0E8F5Td3,2020-0188,2021-09-26,15:10:12,16:03:09,NA,incomplete,false,NA,true,7,24,NA,NA,right,NA,NA,n_s_026.jpg,i_s_027.jpg,between-big,NA,NaN,NA,right,1021.6999999880791,1,3,751.1000000238419
0E8F5Td3,NA,NA,0E8F5Td3,2020-0188,2021-09-26,15:10:12,16:03:09,NA,incomplete,false,NA,true,7,25,NA,NA,right,NA,NA,c_1_015.jpg,m_s_018.jpg,between-big,NA,NaN,NA,right,359.19999998807907,1,3,863.9000000357628
0E8F5Td3,NA,NA,0E8F5Td3,2020-0188,2021-09-26,15:10:12,16:03:09,NA,incomplete,false,NA,true,7,26,NA,NA,left,NA,NA,o_c_008.jpg,o_s_002.jpg,between-small,NA,NaN,NA,right,409.5,0,3,2733.100000023842
0E8F5Td3,NA,NA,0E8F5Td3,2020-0188,2021-09-26,15:10:12,16:03:09,NA,incomplete,false,true,NA,8,0,building,o_c_015.jpg,right,skyscraper,cottage,NA,NA,NA,right,720.099999964237,true,NA,NA,NA,NA,NA
0E8F5Td3,NA,NA,0E8F5Td3,2020-0188,2021-09-26,15:10:12,16:03:09,NA,incomplete,false,true,NA,8,1,building,o_s_017.jpg,left,skyscraper,cottage,NA,NA,NA,none,0,false,NA,NA,NA,NA,NA
0E8F5Td3,NA,NA,0E8F5Td3,2020-0188,2021-09-26,15:10:12,16:03:09,NA,incomplete,false,true,NA,8,2,building,i_s_014.jpg,right,cottage,skyscraper,NA,NA,NA,none,0,false,NA,NA,NA,NA,NA
0E8F5Td3,NA,NA,0E8F5Td3,2020-0188,2021-09-26,15:10:12,16:03:09,NA,incomplete,false,true,NA,8,3,building,i_c_010.jpg,right,skyscraper,cottage,NA,NA,NA,none,0,false,NA,NA,NA,NA,NA
0E8F5Td3,NA,NA,0E8F5Td3,2020-0188,2021-09-26,15:10:12,16:03:09,NA,incomplete,false,true,NA,8,4,building,i_c_013.jpg,left,cottage,skyscraper,NA,NA,NA,none,0,false,NA,NA,NA,NA,NA
0E8F5Td3,NA,NA,0E8F5Td3,2020-0188,2021-09-26,15:10:12,16:03:09,NA,incomplete,false,true,NA,8,5,location,o_c_028.jpg,right,indoor,outdoor,NA,NA,NA,none,0,false,NA,NA,NA,NA,NA
0E8F5Td3,NA,NA,0E8F5Td3,2020-0188,2021-09-26,15:10:12,16:03:09,NA,incomplete,false,true,NA,8,6,location,o_c_019.jpg,left,outdoor,indoor,NA,NA,NA,none,0,false,NA,NA,NA,NA,NA
0E8F5Td3,NA,NA,0E8F5Td3,2020-0188,2021-09-26,15:10:12,16:03:09,NA,incomplete,false,true,NA,8,7,location,o_s_021.jpg,left,outdoor,indoor,NA,NA,NA,none,0,false,NA,NA,NA,NA,NA
0E8F5Td3,NA,NA,0E8F5Td3,2020-0188,2021-09-26,15:10:12,16:03:09,NA,incomplete,false,true,NA,8,8,location,i_s_018.jpg,left,indoor,outdoor,NA,NA,NA,none,0,false,NA,NA,NA,NA,NA
0E8F5Td3,NA,NA,0E8F5Td3,2020-0188,2021-09-26,15:10:12,16:03:09,NA,incomplete,false,true,NA,8,9,location,o_c_027.jpg,left,outdoor,indoor,NA,NA,NA,none,0,false,NA,NA,NA,NA,NA
0E8F5Td3,NA,NA,0E8F5Td3,2020-0188,2021-09-26,15:10:12,16:03:09,NA,incomplete,false,true,NA,8,10,origin,m_s_027.jpg,left,manmade,natural,NA,NA,NA,none,0,false,NA,NA,NA,NA,NA
0E8F5Td3,NA,NA,0E8F5Td3,2020-0188,2021-09-26,15:10:12,16:03:09,NA,incomplete,false,true,NA,8,11,origin,m_s_001.jpg,left,manmade,natural,NA,NA,NA,none,0,false,NA,NA,NA,NA,NA
0E8F5Td3,NA,NA,0E8F5Td3,2020-0188,2021-09-26,15:10:12,16:03:09,NA,incomplete,false,true,NA,8,12,origin,n_l_028.jpg,right,manmade,natural,NA,NA,NA,none,0,false,NA,NA,NA,NA,NA
0E8F5Td3,NA,NA,0E8F5Td3,2020-0188,2021-09-26,15:10:12,16:03:09,NA,incomplete,false,true,NA,8,13,origin,n_s_009.jpg,left,natural,manmade,NA,NA,NA,none,0,false,NA,NA,NA,NA,NA
0E8F5Td3,NA,NA,0E8F5Td3,2020-0188,2021-09-26,15:10:12,16:03:09,NA,incomplete,false,true,NA,8,14,origin,m_l_025.jpg,right,natural,manmade,NA,NA,NA,none,0,false,NA,NA,NA,NA,NA
0E8F5Td3,NA,NA,0E8F5Td3,2020-0188,2021-09-26,15:10:12,16:03:09,NA,incomplete,false,true,NA,8,15,size,n_s_010.jpg,left,small,large,NA,NA,NA,none,0,false,NA,NA,NA,NA,NA
0E8F5Td3,NA,NA,0E8F5Td3,2020-0188,2021-09-26,15:10:12,16:03:09,NA,incomplete,false,true,NA,8,16,size,m_l_010.jpg,left,large,small,NA,NA,NA,none,0,false,NA,NA,NA,NA,NA
0E8F5Td3,NA,NA,0E8F5Td3,2020-0188,2021-09-26,15:10:12,16:03:09,NA,incomplete,false,true,NA,8,17,size,n_l_012.jpg,right,small,large,NA,NA,NA,none,0,false,NA,NA,NA,NA,NA
0E8F5Td3,NA,NA,0E8F5Td3,2020-0188,2021-09-26,15:10:12,16:03:09,NA,incomplete,false,true,NA,8,18,size,n_s_020.jpg,left,small,large,NA,NA,NA,none,0,false,NA,NA,NA,NA,NA
0E8F5Td3,NA,NA,0E8F5Td3,2020-0188,2021-09-26,15:10:12,16:03:09,NA,incomplete,false,true,NA,8,19,size,n_s_013.jpg,right,large,small,NA,NA,NA,none,0,false,NA,NA,NA,NA,NA
0E8F5Td3,NA,NA,0E8F5Td3,2020-0188,2021-09-26,15:10:12,16:03:09,NA,incomplete,false,true,NA,8,20,abstractness,c_1_022.jpg,left,concrete,abstract,NA,NA,NA,none,0,false,NA,NA,NA,NA,NA
0E8F5Td3,NA,NA,0E8F5Td3,2020-0188,2021-09-26,15:10:12,16:03:09,NA,incomplete,false,true,NA,8,21,abstractness,a_1_026.jpg,left,abstract,concrete,NA,NA,NA,none,0,false,NA,NA,NA,NA,NA
0E8F5Td3,NA,NA,0E8F5Td3,2020-0188,2021-09-26,15:10:12,16:03:09,NA,incomplete,false,true,NA,8,22,abstractness,a_1_014.jpg,right,concrete,abstract,NA,NA,NA,none,0,false,NA,NA,NA,NA,NA
0E8F5Td3,NA,NA,0E8F5Td3,2020-0188,2021-09-26,15:10:12,16:03:09,NA,incomplete,false,true,NA,8,23,abstractness,c_1_011.jpg,left,concrete,abstract,NA,NA,NA,none,0,false,NA,NA,NA,NA,NA
0E8F5Td3,NA,NA,0E8F5Td3,2020-0188,2021-09-26,15:10:12,16:03:09,NA,incomplete,false,true,NA,8,24,abstractness,c_2_026.jpg,right,abstract,concrete,NA,NA,NA,none,0,false,NA,NA,NA,NA,NA
0E8F5Td3,NA,NA,0E8F5Td3,2020-0188,2021-09-26,15:10:12,16:03:09,NA,incomplete,false,true,NA,8,25,syllable,a_1_028.jpg,right,1 syllable,2 syllables,NA,NA,NA,none,0,false,NA,NA,NA,NA,NA
0E8F5Td3,NA,NA,0E8F5Td3,2020-0188,2021-09-26,15:10:12,16:03:09,NA,incomplete,false,true,NA,8,26,syllable,a_2_009.jpg,right,1 syllable,2 syllables,NA,NA,NA,none,0,false,NA,NA,NA,NA,NA
0E8F5Td3,NA,NA,0E8F5Td3,2020-0188,2021-09-26,15:10:12,16:03:09,NA,incomplete,false,true,NA,8,27,syllable,a_2_013.jpg,right,1 syllable,2 syllables,NA,NA,NA,none,0,false,NA,NA,NA,NA,NA
0E8F5Td3,NA,NA,0E8F5Td3,2020-0188,2021-09-26,15:10:12,16:03:09,NA,incomplete,false,true,NA,8,28,syllable,a_2_007.jpg,right,2 syllables,1 syllable,NA,NA,NA,none,0,false,NA,NA,NA,NA,NA
0E8F5Td3,NA,NA,0E8F5Td3,2020-0188,2021-09-26,15:10:12,16:03:09,NA,incomplete,false,true,NA,8,29,syllable,a_2_020.jpg,right,1 syllable,2 syllables,NA,NA,NA,none,0,false,NA,NA,NA,NA,NA
0E8F5Td3,NA,NA,0E8F5Td3,2020-0188,2021-09-26,15:10:12,16:03:09,NA,incomplete,false,NA,true,8,0,NA,NA,left,NA,NA,n_l_012.jpg,c_1_022.jpg,between-big,NA,NaN,NA,right,425,0,3,2755.2000000476837
0E8F5Td3,NA,NA,0E8F5Td3,2020-0188,2021-09-26,15:10:12,16:03:09,NA,incomplete,false,NA,true,8,1,NA,NA,left,NA,NA,a_1_028.jpg,a_2_007.jpg,within,NA,NaN,NA,right,333.10000002384186,0,3,2029.7000000476837
0E8F5Td3,NA,NA,0E8F5Td3,2020-0188,2021-09-26,15:10:12,16:03:09,NA,incomplete,false,NA,true,8,2,NA,NA,left,NA,NA,i_c_013.jpg,o_s_021.jpg,between-small,NA,NaN,NA,right,407.30000001192093,0,3,791.3000000119209
0E8F5Td3,NA,NA,0E8F5Td3,2020-0188,2021-09-26,15:10:12,16:03:09,NA,incomplete,false,NA,true,8,3,NA,NA,left,NA,NA,n_s_020.jpg,a_1_026.jpg,between-big,NA,NaN,NA,right,362.80000001192093,0,3,832.8000000119209
0E8F5Td3,NA,NA,0E8F5Td3,2020-0188,2021-09-26,15:10:12,16:03:09,NA,incomplete,false,NA,true,8,4,NA,NA,left,NA,NA,a_1_014.jpg,a_1_028.jpg,between-small,NA,NaN,NA,right,351.39999997615814,0,3,759.8000000119209
0E8F5Td3,NA,NA,0E8F5Td3,2020-0188,2021-09-26,15:10:12,16:03:09,NA,incomplete,false,NA,true,8,5,NA,NA,right,NA,NA,a_1_014.jpg,n_s_013.jpg,between-big,NA,NaN,NA,right,324.39999997615814,1,3,1593
0E8F5Td3,NA,NA,0E8F5Td3,2020-0188,2021-09-26,15:10:12,16:03:09,NA,incomplete,false,NA,true,8,6,NA,NA,left,NA,NA,o_c_015.jpg,i_c_010.jpg,within,NA,NaN,NA,right,352.10000002384186,0,3,1831.5
0E8F5Td3,NA,NA,0E8F5Td3,2020-0188,2021-09-26,15:10:12,16:03:09,NA,incomplete,false,NA,true,8,7,NA,NA,left,NA,NA,n_s_009.jpg,m_l_010.jpg,between-small,NA,NaN,NA,right,404.19999998807907,0,3,829.7000000476837
0E8F5Td3,NA,NA,0E8F5Td3,2020-0188,2021-09-26,15:10:12,16:03:09,NA,incomplete,false,NA,true,8,8,NA,NA,right,NA,NA,n_l_028.jpg,o_c_027.jpg,between-big,NA,NaN,NA,right,336.19999998807907,1,3,1209.300000011921
0E8F5Td3,NA,NA,0E8F5Td3,2020-0188,2021-09-26,15:10:12,16:03:09,NA,incomplete,false,NA,true,8,9,NA,NA,right,NA,NA,i_s_018.jpg,o_c_028.jpg,within,NA,NaN,NA,right,950.3999999761581,1,3,988.5999999642372
0E8F5Td3,NA,NA,0E8F5Td3,2020-0188,2021-09-26,15:10:12,16:03:09,NA,incomplete,false,NA,true,8,10,NA,NA,left,NA,NA,a_1_026.jpg,c_2_026.jpg,within,NA,NaN,NA,right,358,0,3,915.6999999880791
0E8F5Td3,NA,NA,0E8F5Td3,2020-0188,2021-09-26,15:10:12,16:03:09,NA,incomplete,false,NA,true,8,11,NA,NA,right,NA,NA,n_s_010.jpg,n_l_028.jpg,between-small,NA,NaN,NA,right,347.89999997615814,1,3,748.3000000119209
0E8F5Td3,NA,NA,0E8F5Td3,2020-0188,2021-09-26,15:10:12,16:03:09,NA,incomplete,false,NA,true,8,12,NA,NA,left,NA,NA,m_l_010.jpg,n_s_013.jpg,within,NA,NaN,NA,right,384.19999998807907,0,3,1477.2000000476837
0E8F5Td3,NA,NA,0E8F5Td3,2020-0188,2021-09-26,15:10:12,16:03:09,NA,incomplete,false,NA,true,8,13,NA,NA,right,NA,NA,o_c_019.jpg,i_c_010.jpg,between-small,NA,NaN,NA,right,354.5,1,3,1516
0E8F5Td3,NA,NA,0E8F5Td3,2020-0188,2021-09-26,15:10:12,16:03:09,NA,incomplete,false,NA,true,8,14,NA,NA,left,NA,NA,o_s_021.jpg,m_s_027.jpg,between-big,NA,NaN,NA,right,817.7999999523163,0,3,841.4000000357628
0E8F5Td3,NA,NA,0E8F5Td3,2020-0188,2021-09-26,15:10:12,16:03:09,NA,incomplete,false,NA,true,8,15,NA,NA,right,NA,NA,a_2_013.jpg,c_2_026.jpg,between-small,NA,NaN,NA,right,448.10000002384186,1,3,1092.800000011921
0E8F5Td3,NA,NA,0E8F5Td3,2020-0188,2021-09-26,15:10:12,16:03:09,NA,incomplete,false,NA,true,8,16,NA,NA,left,NA,NA,c_1_022.jpg,c_1_011.jpg,within,NA,NaN,NA,right,373.9000000357628,0,3,1165.6000000238419
0E8F5Td3,NA,NA,0E8F5Td3,2020-0188,2021-09-26,15:10:12,16:03:09,NA,incomplete,false,NA,true,8,17,NA,NA,right,NA,NA,m_s_001.jpg,i_s_018.jpg,between-big,NA,NaN,NA,right,329.69999998807907,1,3,1910.800000011921
0E8F5Td3,NA,NA,0E8F5Td3,2020-0188,2021-09-26,15:10:12,16:03:09,NA,incomplete,false,NA,true,8,18,NA,NA,left,NA,NA,n_s_010.jpg,n_s_020.jpg,within,NA,NaN,NA,right,335.69999998807907,0,3,876.1999999880791
0E8F5Td3,NA,NA,0E8F5Td3,2020-0188,2021-09-26,15:10:12,16:03:09,NA,incomplete,false,NA,true,8,19,NA,NA,right,NA,NA,n_s_009.jpg,m_s_027.jpg,within,NA,NaN,NA,right,354.30000001192093,1,3,801.3000000119209
0E8F5Td3,NA,NA,0E8F5Td3,2020-0188,2021-09-26,15:10:12,16:03:09,NA,incomplete,false,NA,true,8,20,NA,NA,right,NA,NA,m_l_025.jpg,m_s_001.jpg,within,NA,NaN,NA,right,335,1,3,756.8000000119209
0E8F5Td3,NA,NA,0E8F5Td3,2020-0188,2021-09-26,15:10:12,16:03:09,NA,incomplete,false,NA,true,8,21,NA,NA,left,NA,NA,a_2_009.jpg,a_2_020.jpg,within,NA,NaN,NA,right,366.5,0,3,1725.1000000238419
0E8F5Td3,NA,NA,0E8F5Td3,2020-0188,2021-09-26,15:10:12,16:03:09,NA,incomplete,false,NA,true,8,22,NA,NA,right,NA,NA,i_c_013.jpg,o_s_017.jpg,within,NA,NaN,NA,right,988.9000000357628,1,3,1163.699999988079
0E8F5Td3,NA,NA,0E8F5Td3,2020-0188,2021-09-26,15:10:12,16:03:09,NA,incomplete,false,NA,true,8,23,NA,NA,right,NA,NA,a_2_009.jpg,c_1_011.jpg,between-small,NA,NaN,NA,right,325.5,1,3,979.8999999761581
0E8F5Td3,NA,NA,0E8F5Td3,2020-0188,2021-09-26,15:10:12,16:03:09,NA,incomplete,false,NA,true,8,24,NA,NA,left,NA,NA,m_l_025.jpg,n_l_012.jpg,between-small,NA,NaN,NA,right,376,0,3,736.1000000238419
0E8F5Td3,NA,NA,0E8F5Td3,2020-0188,2021-09-26,15:10:12,16:03:09,NA,incomplete,false,NA,true,8,25,NA,NA,right,NA,NA,o_c_028.jpg,i_s_014.jpg,between-small,NA,NaN,NA,right,360.10000002384186,1,3,1699.699999988079
0E8F5Td3,NA,NA,0E8F5Td3,2020-0188,2021-09-26,15:10:12,16:03:09,NA,incomplete,false,NA,true,8,26,NA,NA,right,NA,NA,o_c_027.jpg,o_c_019.jpg,within,NA,NaN,NA,right,344.5999999642372,1,3,718.8000000119209
0E8F5Td3,NA,NA,0E8F5Td3,2020-0188,2021-09-26,15:10:12,16:03:09,NA,incomplete,false,true,NA,9,0,syllable,a_2_021.jpg,right,2 syllables,1 syllable,NA,NA,NA,none,0,false,NA,NA,NA,NA,NA
0E8F5Td3,NA,NA,0E8F5Td3,2020-0188,2021-09-26,15:10:12,16:03:09,NA,incomplete,false,true,NA,9,1,syllable,c_2_023.jpg,right,2 syllables,1 syllable,NA,NA,NA,none,0,false,NA,NA,NA,NA,NA
0E8F5Td3,NA,NA,0E8F5Td3,2020-0188,2021-09-26,15:10:12,16:03:09,NA,incomplete,false,true,NA,9,2,syllable,c_2_004.jpg,right,1 syllable,2 syllables,NA,NA,NA,none,0,false,NA,NA,NA,NA,NA
0E8F5Td3,NA,NA,0E8F5Td3,2020-0188,2021-09-26,15:10:12,16:03:09,NA,incomplete,false,true,NA,9,3,syllable,a_2_028.jpg,right,1 syllable,2 syllables,NA,NA,NA,none,0,false,NA,NA,NA,NA,NA
0E8F5Td3,NA,NA,0E8F5Td3,2020-0188,2021-09-26,15:10:12,16:03:09,NA,incomplete,false,true,NA,9,4,syllable,a_1_010.jpg,right,1 syllable,2 syllables,NA,NA,NA,none,0,false,NA,NA,NA,NA,NA
0E8F5Td3,NA,NA,0E8F5Td3,2020-0188,2021-09-26,15:10:12,16:03:09,NA,incomplete,false,true,NA,9,5,abstractness,c_2_019.jpg,left,concrete,abstract,NA,NA,NA,none,0,false,NA,NA,NA,NA,NA
0E8F5Td3,NA,NA,0E8F5Td3,2020-0188,2021-09-26,15:10:12,16:03:09,NA,incomplete,false,true,NA,9,6,abstractness,a_2_010.jpg,right,concrete,abstract,NA,NA,NA,none,0,false,NA,NA,NA,NA,NA
0E8F5Td3,NA,NA,0E8F5Td3,2020-0188,2021-09-26,15:10:12,16:03:09,NA,incomplete,false,true,NA,9,7,abstractness,c_1_028.jpg,right,abstract,concrete,NA,NA,NA,none,0,false,NA,NA,NA,NA,NA
