workerId,hitId,assignmentId,subject,studyid,exp_date,exp_start,exp_end,time_start,time_end,practice,encoding,memory,block,trial,event,stim,answer,label_left,label_right,left_image,right_image,condition,response,response_time,response_acc,order_response,order_response_time,order_acc,distance_response,distance_response_time
2C2JbOaz,NA,NA,2C2JbOaz,2020-0188,2021-09-26,11:25:10,12:33:37,NA,incomplete,true,true,NA,0,0,building,i_c_027.jpg,right,skyscraper,cottage,NA,NA,NA,right,1449.30000007153,true,NA,NA,NA,NA,NA
2C2JbOaz,NA,NA,2C2JbOaz,2020-0188,2021-09-26,11:25:10,12:33:37,NA,incomplete,true,true,NA,0,1,building,o_s_018.jpg,right,cottage,skyscraper,NA,NA,NA,right,1389.39999997616,true,NA,NA,NA,NA,NA
2C2JbOaz,NA,NA,2C2JbOaz,2020-0188,2021-09-26,11:25:10,12:33:37,NA,incomplete,true,true,NA,0,2,building,i_c_001.jpg,right,skyscraper,cottage,NA,NA,NA,right,876.200000047684,true,NA,NA,NA,NA,NA
2C2JbOaz,NA,NA,2C2JbOaz,2020-0188,2021-09-26,11:25:10,12:33:37,NA,incomplete,true,true,NA,0,3,building,i_s_011.jpg,right,cottage,skyscraper,NA,NA,NA,right,2061.89999997616,true,NA,NA,NA,NA,NA
2C2JbOaz,NA,NA,2C2JbOaz,2020-0188,2021-09-26,11:25:10,12:33:37,NA,incomplete,true,true,NA,0,4,building,o_c_017.jpg,right,skyscraper,cottage,NA,NA,NA,right,1240.39999997616,true,NA,NA,NA,NA,NA
2C2JbOaz,NA,NA,2C2JbOaz,2020-0188,2021-09-26,11:25:10,12:33:37,NA,incomplete,true,true,NA,0,5,location,i_s_010.jpg,left,indoor,outdoor,NA,NA,NA,left,1644.39999997616,true,NA,NA,NA,NA,NA
2C2JbOaz,NA,NA,2C2JbOaz,2020-0188,2021-09-26,11:25:10,12:33:37,NA,incomplete,true,true,NA,0,6,location,o_s_020.jpg,left,outdoor,indoor,NA,NA,NA,left,1233.10000002384,true,NA,NA,NA,NA,NA
2C2JbOaz,NA,NA,2C2JbOaz,2020-0188,2021-09-26,11:25:10,12:33:37,NA,incomplete,true,true,NA,0,7,location,i_c_015.jpg,left,indoor,outdoor,NA,NA,NA,left,1214.39999997616,true,NA,NA,NA,NA,NA
2C2JbOaz,NA,NA,2C2JbOaz,2020-0188,2021-09-26,11:25:10,12:33:37,NA,incomplete,true,true,NA,0,8,location,i_s_007.jpg,right,outdoor,indoor,NA,NA,NA,right,1227.19999992847,true,NA,NA,NA,NA,NA
2C2JbOaz,NA,NA,2C2JbOaz,2020-0188,2021-09-26,11:25:10,12:33:37,NA,incomplete,true,true,NA,0,9,location,o_s_007.jpg,right,indoor,outdoor,NA,NA,NA,right,1118.30000007153,true,NA,NA,NA,NA,NA
2C2JbOaz,NA,NA,2C2JbOaz,2020-0188,2021-09-26,11:25:10,12:33:37,NA,incomplete,true,true,NA,0,10,size,n_l_023.jpg,right,small,large,NA,NA,NA,right,1731.70000004768,true,NA,NA,NA,NA,NA
2C2JbOaz,NA,NA,2C2JbOaz,2020-0188,2021-09-26,11:25:10,12:33:37,NA,incomplete,true,true,NA,0,11,size,m_l_019.jpg,right,small,large,NA,NA,NA,right,1667.10000002384,true,NA,NA,NA,NA,NA
2C2JbOaz,NA,NA,2C2JbOaz,2020-0188,2021-09-26,11:25:10,12:33:37,NA,incomplete,true,true,NA,0,12,size,m_l_022.jpg,left,large,small,NA,NA,NA,right,1347.39999997616,false,NA,NA,NA,NA,NA
2C2JbOaz,NA,NA,2C2JbOaz,2020-0188,2021-09-26,11:25:10,12:33:37,NA,incomplete,true,true,NA,0,13,size,m_s_018.jpg,right,large,small,NA,NA,NA,right,1034.20000004768,true,NA,NA,NA,NA,NA
2C2JbOaz,NA,NA,2C2JbOaz,2020-0188,2021-09-26,11:25:10,12:33:37,NA,incomplete,true,true,NA,0,14,size,m_l_011.jpg,right,small,large,NA,NA,NA,left,1107.60000002384,false,NA,NA,NA,NA,NA
2C2JbOaz,NA,NA,2C2JbOaz,2020-0188,2021-09-26,11:25:10,12:33:37,NA,incomplete,true,true,NA,0,15,origin,n_s_022.jpg,right,manmade,natural,NA,NA,NA,right,1497.89999997616,true,NA,NA,NA,NA,NA
2C2JbOaz,NA,NA,2C2JbOaz,2020-0188,2021-09-26,11:25:10,12:33:37,NA,incomplete,true,true,NA,0,16,origin,n_s_020.jpg,left,natural,manmade,NA,NA,NA,left,2222,true,NA,NA,NA,NA,NA
2C2JbOaz,NA,NA,2C2JbOaz,2020-0188,2021-09-26,11:25:10,12:33:37,NA,incomplete,true,true,NA,0,17,origin,m_l_003.jpg,left,manmade,natural,NA,NA,NA,left,1039.20000004768,true,NA,NA,NA,NA,NA
2C2JbOaz,NA,NA,2C2JbOaz,2020-0188,2021-09-26,11:25:10,12:33:37,NA,incomplete,true,true,NA,0,18,origin,n_s_001.jpg,right,manmade,natural,NA,NA,NA,right,792.100000023842,true,NA,NA,NA,NA,NA
2C2JbOaz,NA,NA,2C2JbOaz,2020-0188,2021-09-26,11:25:10,12:33:37,NA,incomplete,true,true,NA,0,19,origin,m_l_016.jpg,left,manmade,natural,NA,NA,NA,left,999,true,NA,NA,NA,NA,NA
2C2JbOaz,NA,NA,2C2JbOaz,2020-0188,2021-09-26,11:25:10,12:33:37,NA,incomplete,true,true,NA,0,20,abstractness,c_2_010.jpg,left,concrete,abstract,NA,NA,NA,left,2541.70000004768,true,NA,NA,NA,NA,NA
2C2JbOaz,NA,NA,2C2JbOaz,2020-0188,2021-09-26,11:25:10,12:33:37,NA,incomplete,true,true,NA,0,21,abstractness,c_2_025.jpg,left,concrete,abstract,NA,NA,NA,left,2085.90000009537,true,NA,NA,NA,NA,NA
2C2JbOaz,NA,NA,2C2JbOaz,2020-0188,2021-09-26,11:25:10,12:33:37,NA,incomplete,true,true,NA,0,22,abstractness,a_1_014.jpg,left,abstract,concrete,NA,NA,NA,left,1388.69999992847,true,NA,NA,NA,NA,NA
2C2JbOaz,NA,NA,2C2JbOaz,2020-0188,2021-09-26,11:25:10,12:33:37,NA,incomplete,true,true,NA,0,23,abstractness,c_2_015.jpg,left,concrete,abstract,NA,NA,NA,left,1399.89999997616,true,NA,NA,NA,NA,NA
2C2JbOaz,NA,NA,2C2JbOaz,2020-0188,2021-09-26,11:25:10,12:33:37,NA,incomplete,true,true,NA,0,24,abstractness,a_2_011.jpg,left,abstract,concrete,NA,NA,NA,left,1947.39999997616,true,NA,NA,NA,NA,NA
2C2JbOaz,NA,NA,2C2JbOaz,2020-0188,2021-09-26,11:25:10,12:33:37,NA,incomplete,true,true,NA,0,25,syllable,c_1_008.jpg,right,2 syllables,1 syllable,NA,NA,NA,right,2019.19999992847,true,NA,NA,NA,NA,NA
2C2JbOaz,NA,NA,2C2JbOaz,2020-0188,2021-09-26,11:25:10,12:33:37,NA,incomplete,true,true,NA,0,26,syllable,c_2_024.jpg,right,2 syllables,1 syllable,NA,NA,NA,left,1348.5,false,NA,NA,NA,NA,NA
2C2JbOaz,NA,NA,2C2JbOaz,2020-0188,2021-09-26,11:25:10,12:33:37,NA,incomplete,true,true,NA,0,27,syllable,c_2_001.jpg,right,1 syllable,2 syllables,NA,NA,NA,right,1913.89999997616,true,NA,NA,NA,NA,NA
2C2JbOaz,NA,NA,2C2JbOaz,2020-0188,2021-09-26,11:25:10,12:33:37,NA,incomplete,true,true,NA,0,28,syllable,a_2_006.jpg,right,1 syllable,2 syllables,NA,NA,NA,right,1601.39999997616,true,NA,NA,NA,NA,NA
2C2JbOaz,NA,NA,2C2JbOaz,2020-0188,2021-09-26,11:25:10,12:33:37,NA,incomplete,true,true,NA,0,29,syllable,c_1_022.jpg,right,2 syllables,1 syllable,NA,NA,NA,right,1654,true,NA,NA,NA,NA,NA
2C2JbOaz,NA,NA,2C2JbOaz,2020-0188,2021-09-26,11:25:10,12:33:37,NA,incomplete,true,NA,true,0,0,NA,NA,right,NA,NA,n_l_023.jpg,i_c_015.jpg,between-big,NA,NaN,NA,right,3035.600000023842,1,1,6604.299999952316
2C2JbOaz,NA,NA,2C2JbOaz,2020-0188,2021-09-26,11:25:10,12:33:37,NA,incomplete,true,NA,true,0,1,NA,NA,right,NA,NA,m_s_018.jpg,n_l_023.jpg,within,NA,NaN,NA,right,1986.7999999523163,1,1,2589.2999999523163
2C2JbOaz,NA,NA,2C2JbOaz,2020-0188,2021-09-26,11:25:10,12:33:37,NA,incomplete,true,NA,true,0,2,NA,NA,left,NA,NA,m_l_019.jpg,m_l_011.jpg,within,NA,NaN,NA,left,2889.899999976158,1,0,1805.5
2C2JbOaz,NA,NA,2C2JbOaz,2020-0188,2021-09-26,11:25:10,12:33:37,NA,incomplete,true,NA,true,0,3,NA,NA,right,NA,NA,m_l_022.jpg,o_s_007.jpg,between-big,NA,NaN,NA,right,1830.3000000715256,1,2,1359.8999999761581
2C2JbOaz,NA,NA,2C2JbOaz,2020-0188,2021-09-26,11:25:10,12:33:37,NA,incomplete,true,NA,true,0,4,NA,NA,right,NA,NA,i_s_011.jpg,i_c_027.jpg,within,NA,NaN,NA,left,4085.100000023842,0,1,3062.7999999523163
2C2JbOaz,NA,NA,2C2JbOaz,2020-0188,2021-09-26,11:25:10,12:33:37,NA,incomplete,true,NA,true,0,5,NA,NA,right,NA,NA,m_l_019.jpg,i_s_007.jpg,between-big,NA,NaN,NA,right,1743.6000000238419,1,2,1123.5
2C2JbOaz,NA,NA,2C2JbOaz,2020-0188,2021-09-26,11:25:10,12:33:37,NA,incomplete,true,NA,true,0,6,NA,NA,right,NA,NA,o_s_007.jpg,o_s_020.jpg,within,NA,NaN,NA,right,2268.2999999523163,1,1,1441.3999999761581
2C2JbOaz,NA,NA,2C2JbOaz,2020-0188,2021-09-26,11:25:10,12:33:37,NA,incomplete,true,NA,true,0,7,NA,NA,left,NA,NA,a_2_011.jpg,c_2_001.jpg,between-small,NA,NaN,NA,left,5945.900000095367,1,1,1279.1999999284744
2C2JbOaz,NA,NA,2C2JbOaz,2020-0188,2021-09-26,11:25:10,12:33:37,NA,incomplete,true,NA,true,0,8,NA,NA,left,NA,NA,m_l_011.jpg,m_l_003.jpg,between-small,NA,NaN,NA,left,3155,1,2,1695.5
2C2JbOaz,NA,NA,2C2JbOaz,2020-0188,2021-09-26,11:25:10,12:33:37,NA,incomplete,true,NA,true,0,9,NA,NA,left,NA,NA,m_l_022.jpg,n_s_022.jpg,between-small,NA,NaN,NA,left,2157.7999999523163,1,2,1828.7000000476837
2C2JbOaz,NA,NA,2C2JbOaz,2020-0188,2021-09-26,11:25:10,12:33:37,NA,incomplete,true,NA,true,0,10,NA,NA,right,NA,NA,o_c_017.jpg,o_s_018.jpg,within,NA,NaN,NA,left,3125.6999999284744,0,2,1899.9000000953674
2C2JbOaz,NA,NA,2C2JbOaz,2020-0188,2021-09-26,11:25:10,12:33:37,NA,incomplete,true,NA,true,0,11,NA,NA,right,NA,NA,a_2_011.jpg,c_2_025.jpg,within,NA,NaN,NA,right,3302.399999976158,1,2,917.5
2C2JbOaz,NA,NA,2C2JbOaz,2020-0188,2021-09-26,11:25:10,12:33:37,NA,incomplete,true,NA,true,0,12,NA,NA,right,NA,NA,i_s_010.jpg,i_c_001.jpg,between-small,NA,NaN,NA,right,1651.6000000238419,1,1,1371.7000000476837
2C2JbOaz,NA,NA,2C2JbOaz,2020-0188,2021-09-26,11:25:10,12:33:37,NA,incomplete,true,NA,true,0,13,NA,NA,left,NA,NA,m_l_003.jpg,c_2_010.jpg,between-big,NA,NaN,NA,right,1896.3000000715256,0,2,2300.899999976158
2C2JbOaz,NA,NA,2C2JbOaz,2020-0188,2021-09-26,11:25:10,12:33:37,NA,incomplete,true,NA,true,0,14,NA,NA,right,NA,NA,i_c_015.jpg,o_c_017.jpg,between-small,NA,NaN,NA,left,1729.6999999284744,0,1,1121.3999999761581
2C2JbOaz,NA,NA,2C2JbOaz,2020-0188,2021-09-26,11:25:10,12:33:37,NA,incomplete,true,NA,true,0,15,NA,NA,right,NA,NA,a_1_014.jpg,m_l_016.jpg,between-big,NA,NaN,NA,right,1704.8999999761581,1,1,3655.7999999523163
2C2JbOaz,NA,NA,2C2JbOaz,2020-0188,2021-09-26,11:25:10,12:33:37,NA,incomplete,true,NA,true,0,16,NA,NA,right,NA,NA,n_s_001.jpg,n_s_022.jpg,within,NA,NaN,NA,right,1943.2000000476837,1,0,1489.2999999523163
2C2JbOaz,NA,NA,2C2JbOaz,2020-0188,2021-09-26,11:25:10,12:33:37,NA,incomplete,true,NA,true,0,17,NA,NA,right,NA,NA,c_2_015.jpg,c_2_010.jpg,within,NA,NaN,NA,right,2039.1000000238419,1,0,1119.5
2C2JbOaz,NA,NA,2C2JbOaz,2020-0188,2021-09-26,11:25:10,12:33:37,NA,incomplete,true,NA,true,0,18,NA,NA,right,NA,NA,c_1_022.jpg,c_2_024.jpg,within,NA,NaN,NA,right,2828,1,0,1067.8999999761581
2C2JbOaz,NA,NA,2C2JbOaz,2020-0188,2021-09-26,11:25:10,12:33:37,NA,incomplete,true,NA,true,0,19,NA,NA,left,NA,NA,m_s_018.jpg,n_s_020.jpg,between-small,NA,NaN,NA,left,2833.600000023842,1,2,1015
2C2JbOaz,NA,NA,2C2JbOaz,2020-0188,2021-09-26,11:25:10,12:33:37,NA,incomplete,true,NA,true,0,20,NA,NA,left,NA,NA,c_2_015.jpg,c_2_024.jpg,between-small,NA,NaN,NA,left,3773.9000000953674,1,2,1089.2999999523163
2C2JbOaz,NA,NA,2C2JbOaz,2020-0188,2021-09-26,11:25:10,12:33:37,NA,incomplete,true,NA,true,0,21,NA,NA,right,NA,NA,c_2_025.jpg,n_s_001.jpg,between-big,NA,NaN,NA,left,2090.2000000476837,0,2,2148.399999976158
2C2JbOaz,NA,NA,2C2JbOaz,2020-0188,2021-09-26,11:25:10,12:33:37,NA,incomplete,true,NA,true,0,22,NA,NA,left,NA,NA,i_s_011.jpg,o_s_020.jpg,between-small,NA,NaN,NA,left,2638.2999999523163,1,1,1363.3999999761581
2C2JbOaz,NA,NA,2C2JbOaz,2020-0188,2021-09-26,11:25:10,12:33:37,NA,incomplete,true,NA,true,0,23,NA,NA,left,NA,NA,a_1_014.jpg,c_1_008.jpg,between-small,NA,NaN,NA,left,3788.5999999046326,1,2,1049.2999999523163
2C2JbOaz,NA,NA,2C2JbOaz,2020-0188,2021-09-26,11:25:10,12:33:37,NA,incomplete,true,NA,true,0,24,NA,NA,left,NA,NA,n_s_020.jpg,m_l_016.jpg,within,NA,NaN,NA,left,4644.400000095367,1,1,1220.2999999523163
2C2JbOaz,NA,NA,2C2JbOaz,2020-0188,2021-09-26,11:25:10,12:33:37,NA,incomplete,true,NA,true,0,25,NA,NA,right,NA,NA,i_s_007.jpg,i_s_010.jpg,within,NA,NaN,NA,left,4003.100000023842,0,1,1004.7999999523163
2C2JbOaz,NA,NA,2C2JbOaz,2020-0188,2021-09-26,11:25:10,12:33:37,NA,incomplete,true,NA,true,0,26,NA,NA,left,NA,NA,c_1_008.jpg,a_2_006.jpg,within,NA,NaN,NA,left,2603.1999999284744,1,0,1086.1000000238419
2C2JbOaz,NA,NA,2C2JbOaz,2020-0188,2021-09-26,11:25:10,12:33:37,NA,incomplete,false,true,NA,1,0,abstractness,c_1_017.jpg,left,concrete,abstract,NA,NA,NA,right,3173.60000002384,false,NA,NA,NA,NA,NA
2C2JbOaz,NA,NA,2C2JbOaz,2020-0188,2021-09-26,11:25:10,12:33:37,NA,incomplete,false,true,NA,1,1,abstractness,a_1_003.jpg,left,abstract,concrete,NA,NA,NA,left,2920,true,NA,NA,NA,NA,NA
2C2JbOaz,NA,NA,2C2JbOaz,2020-0188,2021-09-26,11:25:10,12:33:37,NA,incomplete,false,true,NA,1,2,abstractness,a_2_025.jpg,right,concrete,abstract,NA,NA,NA,right,2322.89999997616,true,NA,NA,NA,NA,NA
2C2JbOaz,NA,NA,2C2JbOaz,2020-0188,2021-09-26,11:25:10,12:33:37,NA,incomplete,false,true,NA,1,3,abstractness,c_2_012.jpg,right,abstract,concrete,NA,NA,NA,right,1798.10000002384,true,NA,NA,NA,NA,NA
2C2JbOaz,NA,NA,2C2JbOaz,2020-0188,2021-09-26,11:25:10,12:33:37,NA,incomplete,false,true,NA,1,4,abstractness,c_1_009.jpg,left,concrete,abstract,NA,NA,NA,left,2949.39999997616,true,NA,NA,NA,NA,NA
2C2JbOaz,NA,NA,2C2JbOaz,2020-0188,2021-09-26,11:25:10,12:33:37,NA,incomplete,false,true,NA,1,5,syllable,a_1_023.jpg,right,2 syllables,1 syllable,NA,NA,NA,right,1822.79999995232,true,NA,NA,NA,NA,NA
2C2JbOaz,NA,NA,2C2JbOaz,2020-0188,2021-09-26,11:25:10,12:33:37,NA,incomplete,false,true,NA,1,6,syllable,a_2_004.jpg,right,2 syllables,1 syllable,NA,NA,NA,left,2480.90000009537,false,NA,NA,NA,NA,NA
2C2JbOaz,NA,NA,2C2JbOaz,2020-0188,2021-09-26,11:25:10,12:33:37,NA,incomplete,false,true,NA,1,7,syllable,a_1_007.jpg,right,2 syllables,1 syllable,NA,NA,NA,right,1252.80000007153,true,NA,NA,NA,NA,NA
2C2JbOaz,NA,NA,2C2JbOaz,2020-0188,2021-09-26,11:25:10,12:33:37,NA,incomplete,false,true,NA,1,8,syllable,c_1_015.jpg,right,2 syllables,1 syllable,NA,NA,NA,right,1739.10000002384,true,NA,NA,NA,NA,NA
2C2JbOaz,NA,NA,2C2JbOaz,2020-0188,2021-09-26,11:25:10,12:33:37,NA,incomplete,false,true,NA,1,9,syllable,a_2_010.jpg,right,1 syllable,2 syllables,NA,NA,NA,right,2168.79999995232,true,NA,NA,NA,NA,NA
2C2JbOaz,NA,NA,2C2JbOaz,2020-0188,2021-09-26,11:25:10,12:33:37,NA,incomplete,false,true,NA,1,10,location,i_c_017.jpg,right,outdoor,indoor,NA,NA,NA,right,1369.10000002384,true,NA,NA,NA,NA,NA
2C2JbOaz,NA,NA,2C2JbOaz,2020-0188,2021-09-26,11:25:10,12:33:37,NA,incomplete,false,true,NA,1,11,location,i_s_017.jpg,left,indoor,outdoor,NA,NA,NA,left,1306,true,NA,NA,NA,NA,NA
2C2JbOaz,NA,NA,2C2JbOaz,2020-0188,2021-09-26,11:25:10,12:33:37,NA,incomplete,false,true,NA,1,12,location,o_s_002.jpg,right,indoor,outdoor,NA,NA,NA,right,1048.20000004768,true,NA,NA,NA,NA,NA
2C2JbOaz,NA,NA,2C2JbOaz,2020-0188,2021-09-26,11:25:10,12:33:37,NA,incomplete,false,true,NA,1,13,location,o_s_026.jpg,right,indoor,outdoor,NA,NA,NA,right,1139.19999992847,true,NA,NA,NA,NA,NA
2C2JbOaz,NA,NA,2C2JbOaz,2020-0188,2021-09-26,11:25:10,12:33:37,NA,incomplete,false,true,NA,1,14,location,i_s_019.jpg,left,indoor,outdoor,NA,NA,NA,left,987.399999976158,true,NA,NA,NA,NA,NA
2C2JbOaz,NA,NA,2C2JbOaz,2020-0188,2021-09-26,11:25:10,12:33:37,NA,incomplete,false,true,NA,1,15,building,o_c_027.jpg,left,cottage,skyscraper,NA,NA,NA,left,1115.20000004768,true,NA,NA,NA,NA,NA
2C2JbOaz,NA,NA,2C2JbOaz,2020-0188,2021-09-26,11:25:10,12:33:37,NA,incomplete,false,true,NA,1,16,building,i_c_020.jpg,left,cottage,skyscraper,NA,NA,NA,left,1045.40000009537,true,NA,NA,NA,NA,NA
2C2JbOaz,NA,NA,2C2JbOaz,2020-0188,2021-09-26,11:25:10,12:33:37,NA,incomplete,false,true,NA,1,17,building,o_s_017.jpg,left,skyscraper,cottage,NA,NA,NA,left,1245.30000007153,true,NA,NA,NA,NA,NA
2C2JbOaz,NA,NA,2C2JbOaz,2020-0188,2021-09-26,11:25:10,12:33:37,NA,incomplete,false,true,NA,1,18,building,o_s_021.jpg,left,skyscraper,cottage,NA,NA,NA,left,1062,true,NA,NA,NA,NA,NA
2C2JbOaz,NA,NA,2C2JbOaz,2020-0188,2021-09-26,11:25:10,12:33:37,NA,incomplete,false,true,NA,1,19,building,o_c_024.jpg,left,cottage,skyscraper,NA,NA,NA,left,979,true,NA,NA,NA,NA,NA
2C2JbOaz,NA,NA,2C2JbOaz,2020-0188,2021-09-26,11:25:10,12:33:37,NA,incomplete,false,true,NA,1,20,size,m_l_018.jpg,right,small,large,NA,NA,NA,left,1006.39999997616,false,NA,NA,NA,NA,NA
2C2JbOaz,NA,NA,2C2JbOaz,2020-0188,2021-09-26,11:25:10,12:33:37,NA,incomplete,false,true,NA,1,21,size,n_l_019.jpg,left,large,small,NA,NA,NA,left,3229.30000007153,true,NA,NA,NA,NA,NA
2C2JbOaz,NA,NA,2C2JbOaz,2020-0188,2021-09-26,11:25:10,12:33:37,NA,incomplete,false,true,NA,1,22,size,m_s_001.jpg,left,small,large,NA,NA,NA,left,912.799999952316,true,NA,NA,NA,NA,NA
2C2JbOaz,NA,NA,2C2JbOaz,2020-0188,2021-09-26,11:25:10,12:33:37,NA,incomplete,false,true,NA,1,23,size,n_s_009.jpg,right,large,small,NA,NA,NA,right,1032.89999997616,true,NA,NA,NA,NA,NA
2C2JbOaz,NA,NA,2C2JbOaz,2020-0188,2021-09-26,11:25:10,12:33:37,NA,incomplete,false,true,NA,1,24,size,m_s_002.jpg,right,large,small,NA,NA,NA,right,1204.69999992847,true,NA,NA,NA,NA,NA
2C2JbOaz,NA,NA,2C2JbOaz,2020-0188,2021-09-26,11:25:10,12:33:37,NA,incomplete,false,true,NA,1,25,origin,n_l_009.jpg,right,manmade,natural,NA,NA,NA,right,1780,true,NA,NA,NA,NA,NA
2C2JbOaz,NA,NA,2C2JbOaz,2020-0188,2021-09-26,11:25:10,12:33:37,NA,incomplete,false,true,NA,1,26,origin,m_l_023.jpg,left,manmade,natural,NA,NA,NA,left,1168.10000002384,true,NA,NA,NA,NA,NA
2C2JbOaz,NA,NA,2C2JbOaz,2020-0188,2021-09-26,11:25:10,12:33:37,NA,incomplete,false,true,NA,1,27,origin,m_s_013.jpg,right,natural,manmade,NA,NA,NA,right,1298.29999995232,true,NA,NA,NA,NA,NA
2C2JbOaz,NA,NA,2C2JbOaz,2020-0188,2021-09-26,11:25:10,12:33:37,NA,incomplete,false,true,NA,1,28,origin,n_l_007.jpg,right,manmade,natural,NA,NA,NA,right,1090.10000002384,true,NA,NA,NA,NA,NA
2C2JbOaz,NA,NA,2C2JbOaz,2020-0188,2021-09-26,11:25:10,12:33:37,NA,incomplete,false,true,NA,1,29,origin,n_l_003.jpg,right,manmade,natural,NA,NA,NA,right,2162.30000007153,true,NA,NA,NA,NA,NA
2C2JbOaz,NA,NA,2C2JbOaz,2020-0188,2021-09-26,11:25:10,12:33:37,NA,incomplete,false,NA,true,1,0,NA,NA,left,NA,NA,n_l_009.jpg,n_l_007.jpg,within,NA,NaN,NA,left,2657.9000000953674,1,1,5054.5
2C2JbOaz,NA,NA,2C2JbOaz,2020-0188,2021-09-26,11:25:10,12:33:37,NA,incomplete,false,NA,true,1,1,NA,NA,right,NA,NA,i_s_019.jpg,i_s_017.jpg,within,NA,NaN,NA,right,3007,1,0,3043.5
2C2JbOaz,NA,NA,2C2JbOaz,2020-0188,2021-09-26,11:25:10,12:33:37,NA,incomplete,false,NA,true,1,2,NA,NA,right,NA,NA,i_s_017.jpg,c_1_015.jpg,between-big,NA,NaN,NA,right,1730.6000000238419,1,2,1551.3999999761581
2C2JbOaz,NA,NA,2C2JbOaz,2020-0188,2021-09-26,11:25:10,12:33:37,NA,incomplete,false,NA,true,1,3,NA,NA,left,NA,NA,a_2_004.jpg,a_2_010.jpg,within,NA,NaN,NA,left,4308.299999952316,1,0,948.1000000238419
2C2JbOaz,NA,NA,2C2JbOaz,2020-0188,2021-09-26,11:25:10,12:33:37,NA,incomplete,false,NA,true,1,4,NA,NA,right,NA,NA,n_l_019.jpg,o_s_021.jpg,between-big,NA,NaN,NA,right,1651.1999999284744,1,2,1041.3999999761581
2C2JbOaz,NA,NA,2C2JbOaz,2020-0188,2021-09-26,11:25:10,12:33:37,NA,incomplete,false,NA,true,1,5,NA,NA,left,NA,NA,o_s_017.jpg,m_l_018.jpg,between-big,NA,NaN,NA,left,4691.100000023842,1,1,1874
2C2JbOaz,NA,NA,2C2JbOaz,2020-0188,2021-09-26,11:25:10,12:33:37,NA,incomplete,false,NA,true,1,6,NA,NA,left,NA,NA,c_1_017.jpg,c_2_012.jpg,within,NA,NaN,NA,left,2535.600000023842,1,0,4065.4000000953674
2C2JbOaz,NA,NA,2C2JbOaz,2020-0188,2021-09-26,11:25:10,12:33:37,NA,incomplete,false,NA,true,1,7,NA,NA,left,NA,NA,m_s_001.jpg,n_l_009.jpg,between-small,NA,NaN,NA,left,6079.899999976158,1,0,2742.2000000476837
2C2JbOaz,NA,NA,2C2JbOaz,2020-0188,2021-09-26,11:25:10,12:33:37,NA,incomplete,false,NA,true,1,8,NA,NA,right,NA,NA,a_1_023.jpg,a_2_025.jpg,between-small,NA,NaN,NA,right,7285.299999952316,1,1,1732.2000000476837
2C2JbOaz,NA,NA,2C2JbOaz,2020-0188,2021-09-26,11:25:10,12:33:37,NA,incomplete,false,NA,true,1,9,NA,NA,left,NA,NA,m_l_023.jpg,n_l_003.jpg,within,NA,NaN,NA,left,1949.2999999523163,1,1,1795.3999999761581
2C2JbOaz,NA,NA,2C2JbOaz,2020-0188,2021-09-26,11:25:10,12:33:37,NA,incomplete,false,NA,true,1,10,NA,NA,right,NA,NA,o_s_002.jpg,a_2_010.jpg,between-big,NA,NaN,NA,right,2198.2999999523163,1,3,1113.8999999761581
2C2JbOaz,NA,NA,2C2JbOaz,2020-0188,2021-09-26,11:25:10,12:33:37,NA,incomplete,false,NA,true,1,11,NA,NA,left,NA,NA,o_c_027.jpg,o_s_021.jpg,within,NA,NaN,NA,left,2521.100000023842,1,1,1810.7000000476837
2C2JbOaz,NA,NA,2C2JbOaz,2020-0188,2021-09-26,11:25:10,12:33:37,NA,incomplete,false,NA,true,1,12,NA,NA,right,NA,NA,c_1_009.jpg,a_1_003.jpg,within,NA,NaN,NA,right,2129.3000000715256,1,0,1912.3000000715256
2C2JbOaz,NA,NA,2C2JbOaz,2020-0188,2021-09-26,11:25:10,12:33:37,NA,incomplete,false,NA,true,1,13,NA,NA,left,NA,NA,a_1_007.jpg,i_c_017.jpg,between-big,NA,NaN,NA,left,2353,1,1,1674.2000000476837
2C2JbOaz,NA,NA,2C2JbOaz,2020-0188,2021-09-26,11:25:10,12:33:37,NA,incomplete,false,NA,true,1,14,NA,NA,right,NA,NA,i_c_020.jpg,o_s_026.jpg,between-small,NA,NaN,NA,left,3804.899999976158,0,1,2045.1000000238419
2C2JbOaz,NA,NA,2C2JbOaz,2020-0188,2021-09-26,11:25:10,12:33:37,NA,incomplete,false,NA,true,1,15,NA,NA,right,NA,NA,a_2_004.jpg,c_2_012.jpg,between-small,NA,NaN,NA,left,4726.200000047684,0,0,1493.1000000238419
2C2JbOaz,NA,NA,2C2JbOaz,2020-0188,2021-09-26,11:25:10,12:33:37,NA,incomplete,false,NA,true,1,16,NA,NA,left,NA,NA,i_s_019.jpg,o_s_017.jpg,between-small,NA,NaN,NA,left,1473.2999999523163,1,3,1258.6000000238419
2C2JbOaz,NA,NA,2C2JbOaz,2020-0188,2021-09-26,11:25:10,12:33:37,NA,incomplete,false,NA,true,1,17,NA,NA,right,NA,NA,m_l_023.jpg,n_s_009.jpg,between-small,NA,NaN,NA,left,2253.8000000715256,0,2,1226.2999999523163
2C2JbOaz,NA,NA,2C2JbOaz,2020-0188,2021-09-26,11:25:10,12:33:37,NA,incomplete,false,NA,true,1,18,NA,NA,right,NA,NA,o_s_026.jpg,i_c_017.jpg,within,NA,NaN,NA,right,1514.5,1,2,958.6999999284744
2C2JbOaz,NA,NA,2C2JbOaz,2020-0188,2021-09-26,11:25:10,12:33:37,NA,incomplete,false,NA,true,1,19,NA,NA,left,NA,NA,a_1_023.jpg,c_1_015.jpg,within,NA,NaN,NA,right,3049.2999999523163,0,0,977.5999999046326
2C2JbOaz,NA,NA,2C2JbOaz,2020-0188,2021-09-26,11:25:10,12:33:37,NA,incomplete,false,NA,true,1,20,NA,NA,left,NA,NA,n_l_019.jpg,m_s_002.jpg,within,NA,NaN,NA,left,2096,1,1,1083.5
2C2JbOaz,NA,NA,2C2JbOaz,2020-0188,2021-09-26,11:25:10,12:33:37,NA,incomplete,false,NA,true,1,21,NA,NA,left,NA,NA,o_c_024.jpg,m_s_001.jpg,between-big,NA,NaN,NA,left,2404.2000000476837,1,2,1056.9000000953674
2C2JbOaz,NA,NA,2C2JbOaz,2020-0188,2021-09-26,11:25:10,12:33:37,NA,incomplete,false,NA,true,1,22,NA,NA,right,NA,NA,o_c_024.jpg,i_c_020.jpg,within,NA,NaN,NA,left,1987.1999999284744,0,1,2553
2C2JbOaz,NA,NA,2C2JbOaz,2020-0188,2021-09-26,11:25:10,12:33:37,NA,incomplete,false,NA,true,1,23,NA,NA,right,NA,NA,a_1_007.jpg,c_1_009.jpg,between-small,NA,NaN,NA,right,2786.399999976158,1,1,982.1000000238419
2C2JbOaz,NA,NA,2C2JbOaz,2020-0188,2021-09-26,11:25:10,12:33:37,NA,incomplete,false,NA,true,1,24,NA,NA,left,NA,NA,o_s_002.jpg,o_c_027.jpg,between-small,NA,NaN,NA,right,1169.5,0,1,1269.7999999523163
2C2JbOaz,NA,NA,2C2JbOaz,2020-0188,2021-09-26,11:25:10,12:33:37,NA,incomplete,false,NA,true,1,25,NA,NA,right,NA,NA,n_s_009.jpg,m_l_018.jpg,within,NA,NaN,NA,right,1664.2000000476837,1,1,1575.3000000715256
2C2JbOaz,NA,NA,2C2JbOaz,2020-0188,2021-09-26,11:25:10,12:33:37,NA,incomplete,false,NA,true,1,26,NA,NA,right,NA,NA,m_s_013.jpg,m_s_002.jpg,between-small,NA,NaN,NA,left,4638.600000023842,0,1,1343.6000000238419
2C2JbOaz,NA,NA,2C2JbOaz,2020-0188,2021-09-26,11:25:10,12:33:37,NA,incomplete,false,true,NA,2,0,syllable,c_1_014.jpg,right,2 syllables,1 syllable,NA,NA,NA,right,2702.5,true,NA,NA,NA,NA,NA
2C2JbOaz,NA,NA,2C2JbOaz,2020-0188,2021-09-26,11:25:10,12:33:37,NA,incomplete,false,true,NA,2,1,syllable,a_2_021.jpg,right,2 syllables,1 syllable,NA,NA,NA,left,3149.69999992847,false,NA,NA,NA,NA,NA
2C2JbOaz,NA,NA,2C2JbOaz,2020-0188,2021-09-26,11:25:10,12:33:37,NA,incomplete,false,true,NA,2,2,syllable,c_2_008.jpg,right,2 syllables,1 syllable,NA,NA,NA,left,2300.90000009537,false,NA,NA,NA,NA,NA
2C2JbOaz,NA,NA,2C2JbOaz,2020-0188,2021-09-26,11:25:10,12:33:37,NA,incomplete,false,true,NA,2,3,syllable,a_1_020.jpg,right,1 syllable,2 syllables,NA,NA,NA,left,2512.10000002384,false,NA,NA,NA,NA,NA
2C2JbOaz,NA,NA,2C2JbOaz,2020-0188,2021-09-26,11:25:10,12:33:37,NA,incomplete,false,true,NA,2,4,syllable,a_1_018.jpg,right,2 syllables,1 syllable,NA,NA,NA,right,1693.20000004768,true,NA,NA,NA,NA,NA
2C2JbOaz,NA,NA,2C2JbOaz,2020-0188,2021-09-26,11:25:10,12:33:37,NA,incomplete,false,true,NA,2,5,abstractness,a_1_016.jpg,right,concrete,abstract,NA,NA,NA,right,3288.89999997616,true,NA,NA,NA,NA,NA
2C2JbOaz,NA,NA,2C2JbOaz,2020-0188,2021-09-26,11:25:10,12:33:37,NA,incomplete,false,true,NA,2,6,abstractness,c_2_009.jpg,left,concrete,abstract,NA,NA,NA,left,2085.20000004768,true,NA,NA,NA,NA,NA
2C2JbOaz,NA,NA,2C2JbOaz,2020-0188,2021-09-26,11:25:10,12:33:37,NA,incomplete,false,true,NA,2,7,abstractness,c_1_002.jpg,left,concrete,abstract,NA,NA,NA,left,2658.19999992847,true,NA,NA,NA,NA,NA
2C2JbOaz,NA,NA,2C2JbOaz,2020-0188,2021-09-26,11:25:10,12:33:37,NA,incomplete,false,true,NA,2,8,abstractness,a_2_022.jpg,left,abstract,concrete,NA,NA,NA,left,2733.10000002384,true,NA,NA,NA,NA,NA
2C2JbOaz,NA,NA,2C2JbOaz,2020-0188,2021-09-26,11:25:10,12:33:37,NA,incomplete,false,true,NA,2,9,abstractness,c_2_018.jpg,right,abstract,concrete,NA,NA,NA,left,2781.70000004768,false,NA,NA,NA,NA,NA
2C2JbOaz,NA,NA,2C2JbOaz,2020-0188,2021-09-26,11:25:10,12:33:37,NA,incomplete,false,true,NA,2,10,building,o_s_028.jpg,left,skyscraper,cottage,NA,NA,NA,left,1274.69999992847,true,NA,NA,NA,NA,NA
2C2JbOaz,NA,NA,2C2JbOaz,2020-0188,2021-09-26,11:25:10,12:33:37,NA,incomplete,false,true,NA,2,11,building,o_s_005.jpg,right,cottage,skyscraper,NA,NA,NA,right,869.399999976158,true,NA,NA,NA,NA,NA
2C2JbOaz,NA,NA,2C2JbOaz,2020-0188,2021-09-26,11:25:10,12:33:37,NA,incomplete,false,true,NA,2,12,building,i_s_009.jpg,right,cottage,skyscraper,NA,NA,NA,right,2250.89999997616,true,NA,NA,NA,NA,NA
2C2JbOaz,NA,NA,2C2JbOaz,2020-0188,2021-09-26,11:25:10,12:33:37,NA,incomplete,false,true,NA,2,13,building,i_s_003.jpg,left,skyscraper,cottage,NA,NA,NA,left,2785.30000007153,true,NA,NA,NA,NA,NA
2C2JbOaz,NA,NA,2C2JbOaz,2020-0188,2021-09-26,11:25:10,12:33:37,NA,incomplete,false,true,NA,2,14,building,i_s_027.jpg,right,cottage,skyscraper,NA,NA,NA,right,1208.30000007153,true,NA,NA,NA,NA,NA
2C2JbOaz,NA,NA,2C2JbOaz,2020-0188,2021-09-26,11:25:10,12:33:37,NA,incomplete,false,true,NA,2,15,location,i_c_010.jpg,left,indoor,outdoor,NA,NA,NA,left,2051.5,true,NA,NA,NA,NA,NA
2C2JbOaz,NA,NA,2C2JbOaz,2020-0188,2021-09-26,11:25:10,12:33:37,NA,incomplete,false,true,NA,2,16,location,i_s_001.jpg,right,outdoor,indoor,NA,NA,NA,right,1222.10000002384,true,NA,NA,NA,NA,NA
2C2JbOaz,NA,NA,2C2JbOaz,2020-0188,2021-09-26,11:25:10,12:33:37,NA,incomplete,false,true,NA,2,17,location,o_c_018.jpg,left,outdoor,indoor,NA,NA,NA,left,1939.69999992847,true,NA,NA,NA,NA,NA
2C2JbOaz,NA,NA,2C2JbOaz,2020-0188,2021-09-26,11:25:10,12:33:37,NA,incomplete,false,true,NA,2,18,location,o_c_015.jpg,left,outdoor,indoor,NA,NA,NA,right,1080.60000002384,false,NA,NA,NA,NA,NA
2C2JbOaz,NA,NA,2C2JbOaz,2020-0188,2021-09-26,11:25:10,12:33:37,NA,incomplete,false,true,NA,2,19,location,i_s_014.jpg,right,outdoor,indoor,NA,NA,NA,right,1476.29999995232,true,NA,NA,NA,NA,NA
2C2JbOaz,NA,NA,2C2JbOaz,2020-0188,2021-09-26,11:25:10,12:33:37,NA,incomplete,false,true,NA,2,20,origin,n_s_026.jpg,left,natural,manmade,NA,NA,NA,left,1698.60000002384,true,NA,NA,NA,NA,NA
2C2JbOaz,NA,NA,2C2JbOaz,2020-0188,2021-09-26,11:25:10,12:33:37,NA,incomplete,false,true,NA,2,21,origin,m_s_019.jpg,left,manmade,natural,NA,NA,NA,left,1292.20000004768,true,NA,NA,NA,NA,NA
2C2JbOaz,NA,NA,2C2JbOaz,2020-0188,2021-09-26,11:25:10,12:33:37,NA,incomplete,false,true,NA,2,22,origin,n_s_016.jpg,right,manmade,natural,NA,NA,NA,right,1086.89999997616,true,NA,NA,NA,NA,NA
2C2JbOaz,NA,NA,2C2JbOaz,2020-0188,2021-09-26,11:25:10,12:33:37,NA,incomplete,false,true,NA,2,23,origin,m_l_025.jpg,right,natural,manmade,NA,NA,NA,right,949.799999952316,true,NA,NA,NA,NA,NA
2C2JbOaz,NA,NA,2C2JbOaz,2020-0188,2021-09-26,11:25:10,12:33:37,NA,incomplete,false,true,NA,2,24,origin,m_l_020.jpg,left,manmade,natural,NA,NA,NA,left,950.200000047684,true,NA,NA,NA,NA,NA
2C2JbOaz,NA,NA,2C2JbOaz,2020-0188,2021-09-26,11:25:10,12:33:37,NA,incomplete,false,true,NA,2,25,size,m_l_004.jpg,left,large,small,NA,NA,NA,right,1637.79999995232,false,NA,NA,NA,NA,NA
2C2JbOaz,NA,NA,2C2JbOaz,2020-0188,2021-09-26,11:25:10,12:33:37,NA,incomplete,false,true,NA,2,26,size,n_l_020.jpg,left,large,small,NA,NA,NA,right,1233.89999997616,false,NA,NA,NA,NA,NA
2C2JbOaz,NA,NA,2C2JbOaz,2020-0188,2021-09-26,11:25:10,12:33:37,NA,incomplete,false,true,NA,2,27,size,n_l_006.jpg,left,large,small,NA,NA,NA,right,1104,false,NA,NA,NA,NA,NA
2C2JbOaz,NA,NA,2C2JbOaz,2020-0188,2021-09-26,11:25:10,12:33:37,NA,incomplete,false,true,NA,2,28,size,n_s_004.jpg,right,large,small,NA,NA,NA,right,1006.69999992847,true,NA,NA,NA,NA,NA
2C2JbOaz,NA,NA,2C2JbOaz,2020-0188,2021-09-26,11:25:10,12:33:37,NA,incomplete,false,true,NA,2,29,size,m_s_020.jpg,left,small,large,NA,NA,NA,right,729.5,false,NA,NA,NA,NA,NA
2C2JbOaz,NA,NA,2C2JbOaz,2020-0188,2021-09-26,11:25:10,12:33:37,NA,incomplete,false,NA,true,2,0,NA,NA,left,NA,NA,a_1_016.jpg,a_2_022.jpg,within,NA,NaN,NA,left,6730.899999976158,1,0,2948.2999999523163
2C2JbOaz,NA,NA,2C2JbOaz,2020-0188,2021-09-26,11:25:10,12:33:37,NA,incomplete,false,NA,true,2,1,NA,NA,right,NA,NA,o_c_018.jpg,i_s_027.jpg,between-small,NA,NaN,NA,right,5635.600000023842,1,0,2505.8000000715256
2C2JbOaz,NA,NA,2C2JbOaz,2020-0188,2021-09-26,11:25:10,12:33:37,NA,incomplete,false,NA,true,2,2,NA,NA,left,NA,NA,i_s_003.jpg,i_s_001.jpg,between-small,NA,NaN,NA,left,7252.699999928474,1,1,1030.2999999523163
2C2JbOaz,NA,NA,2C2JbOaz,2020-0188,2021-09-26,11:25:10,12:33:37,NA,incomplete,false,NA,true,2,3,NA,NA,left,NA,NA,o_s_005.jpg,i_s_027.jpg,within,NA,NaN,NA,left,1278.0999999046326,1,1,1143.6000000238419
2C2JbOaz,NA,NA,2C2JbOaz,2020-0188,2021-09-26,11:25:10,12:33:37,NA,incomplete,false,NA,true,2,4,NA,NA,left,NA,NA,m_l_020.jpg,n_l_006.jpg,between-small,NA,NaN,NA,left,3171.5,1,1,2226.2999999523163
2C2JbOaz,NA,NA,2C2JbOaz,2020-0188,2021-09-26,11:25:10,12:33:37,NA,incomplete,false,NA,true,2,5,NA,NA,left,NA,NA,c_2_018.jpg,i_s_009.jpg,between-big,NA,NaN,NA,left,1944.2999999523163,1,2,1392.7999999523163
2C2JbOaz,NA,NA,2C2JbOaz,2020-0188,2021-09-26,11:25:10,12:33:37,NA,incomplete,false,NA,true,2,6,NA,NA,left,NA,NA,m_s_019.jpg,m_l_020.jpg,within,NA,NaN,NA,left,2162.399999976158,1,0,1111.3999999761581
2C2JbOaz,NA,NA,2C2JbOaz,2020-0188,2021-09-26,11:25:10,12:33:37,NA,incomplete,false,NA,true,2,7,NA,NA,left,NA,NA,a_2_022.jpg,o_s_005.jpg,between-big,NA,NaN,NA,left,1847.8999999761581,1,1,1217
2C2JbOaz,NA,NA,2C2JbOaz,2020-0188,2021-09-26,11:25:10,12:33:37,NA,incomplete,false,NA,true,2,8,NA,NA,right,NA,NA,m_s_019.jpg,o_c_015.jpg,between-big,NA,NaN,NA,right,1582.5,1,2,1405.8999999761581
2C2JbOaz,NA,NA,2C2JbOaz,2020-0188,2021-09-26,11:25:10,12:33:37,NA,incomplete,false,NA,true,2,9,NA,NA,left,NA,NA,o_s_028.jpg,i_s_003.jpg,within,NA,NaN,NA,left,2197.5,1,1,1455.2999999523163
2C2JbOaz,NA,NA,2C2JbOaz,2020-0188,2021-09-26,11:25:10,12:33:37,NA,incomplete,false,NA,true,2,10,NA,NA,right,NA,NA,m_s_020.jpg,n_l_020.jpg,within,NA,NaN,NA,right,1648.3999999761581,1,0,946.5
2C2JbOaz,NA,NA,2C2JbOaz,2020-0188,2021-09-26,11:25:10,12:33:37,NA,incomplete,false,NA,true,2,11,NA,NA,left,NA,NA,o_c_018.jpg,n_s_026.jpg,between-big,NA,NaN,NA,left,1472.3000000715256,1,3,997.8999999761581
2C2JbOaz,NA,NA,2C2JbOaz,2020-0188,2021-09-26,11:25:10,12:33:37,NA,incomplete,false,NA,true,2,12,NA,NA,left,NA,NA,c_1_014.jpg,a_1_020.jpg,within,NA,NaN,NA,left,3835,1,1,1201
2C2JbOaz,NA,NA,2C2JbOaz,2020-0188,2021-09-26,11:25:10,12:33:37,NA,incomplete,false,NA,true,2,13,NA,NA,left,NA,NA,i_s_009.jpg,i_c_010.jpg,between-small,NA,NaN,NA,right,1747,0,1,1328.6999999284744
2C2JbOaz,NA,NA,2C2JbOaz,2020-0188,2021-09-26,11:25:10,12:33:37,NA,incomplete,false,NA,true,2,14,NA,NA,right,NA,NA,i_s_014.jpg,i_s_001.jpg,within,NA,NaN,NA,right,1440.1000000238419,1,1,1126.1000000238419
2C2JbOaz,NA,NA,2C2JbOaz,2020-0188,2021-09-26,11:25:10,12:33:37,NA,incomplete,false,NA,true,2,15,NA,NA,right,NA,NA,m_l_004.jpg,n_s_016.jpg,between-small,NA,NaN,NA,right,3939.7999999523163,1,1,1184.1999999284744
2C2JbOaz,NA,NA,2C2JbOaz,2020-0188,2021-09-26,11:25:10,12:33:37,NA,incomplete,false,NA,true,2,16,NA,NA,right,NA,NA,n_l_020.jpg,m_l_025.jpg,between-small,NA,NaN,NA,right,2911.3000000715256,1,1,1278.4000000953674
2C2JbOaz,NA,NA,2C2JbOaz,2020-0188,2021-09-26,11:25:10,12:33:37,NA,incomplete,false,NA,true,2,17,NA,NA,left,NA,NA,a_2_021.jpg,a_1_018.jpg,within,NA,NaN,NA,right,2431.4000000953674,0,1,2377.5
2C2JbOaz,NA,NA,2C2JbOaz,2020-0188,2021-09-26,11:25:10,12:33:37,NA,incomplete,false,NA,true,2,18,NA,NA,right,NA,NA,c_2_018.jpg,c_2_009.jpg,within,NA,NaN,NA,right,4554.600000023842,1,1,1390
2C2JbOaz,NA,NA,2C2JbOaz,2020-0188,2021-09-26,11:25:10,12:33:37,NA,incomplete,false,NA,true,2,19,NA,NA,left,NA,NA,a_1_020.jpg,c_2_009.jpg,between-small,NA,NaN,NA,left,2625.399999976158,1,1,1560.7999999523163
2C2JbOaz,NA,NA,2C2JbOaz,2020-0188,2021-09-26,11:25:10,12:33:37,NA,incomplete,false,NA,true,2,20,NA,NA,left,NA,NA,m_l_004.jpg,n_s_004.jpg,within,NA,NaN,NA,left,1955.7999999523163,1,0,1037.7000000476837
2C2JbOaz,NA,NA,2C2JbOaz,2020-0188,2021-09-26,11:25:10,12:33:37,NA,incomplete,false,NA,true,2,21,NA,NA,left,NA,NA,i_s_014.jpg,n_s_016.jpg,between-big,NA,NaN,NA,left,1400.3000000715256,1,2,1389.3999999761581
2C2JbOaz,NA,NA,2C2JbOaz,2020-0188,2021-09-26,11:25:10,12:33:37,NA,incomplete,false,NA,true,2,22,NA,NA,left,NA,NA,c_1_002.jpg,o_s_028.jpg,between-big,NA,NaN,NA,left,1703.3000000715256,1,2,1032
2C2JbOaz,NA,NA,2C2JbOaz,2020-0188,2021-09-26,11:25:10,12:33:37,NA,incomplete,false,NA,true,2,23,NA,NA,left,NA,NA,i_c_010.jpg,o_c_015.jpg,within,NA,NaN,NA,left,1200.5,1,1,1128.4000000953674
2C2JbOaz,NA,NA,2C2JbOaz,2020-0188,2021-09-26,11:25:10,12:33:37,NA,incomplete,false,NA,true,2,24,NA,NA,left,NA,NA,n_s_026.jpg,m_l_025.jpg,within,NA,NaN,NA,left,2190.0999999046326,1,1,1383.7000000476837
2C2JbOaz,NA,NA,2C2JbOaz,2020-0188,2021-09-26,11:25:10,12:33:37,NA,incomplete,false,NA,true,2,25,NA,NA,right,NA,NA,a_1_016.jpg,c_2_008.jpg,between-small,NA,NaN,NA,left,1787.3999999761581,0,0,1480.1000000238419
2C2JbOaz,NA,NA,2C2JbOaz,2020-0188,2021-09-26,11:25:10,12:33:37,NA,incomplete,false,NA,true,2,26,NA,NA,left,NA,NA,a_1_018.jpg,c_1_002.jpg,between-small,NA,NaN,NA,left,2409.2000000476837,1,0,1048.1000000238419
2C2JbOaz,NA,NA,2C2JbOaz,2020-0188,2021-09-26,11:25:10,12:33:37,NA,incomplete,false,true,NA,3,0,building,o_c_013.jpg,left,cottage,skyscraper,NA,NA,NA,left,1747.89999997616,true,NA,NA,NA,NA,NA
2C2JbOaz,NA,NA,2C2JbOaz,2020-0188,2021-09-26,11:25:10,12:33:37,NA,incomplete,false,true,NA,3,1,building,i_s_021.jpg,left,skyscraper,cottage,NA,NA,NA,left,1629.10000002384,true,NA,NA,NA,NA,NA
2C2JbOaz,NA,NA,2C2JbOaz,2020-0188,2021-09-26,11:25:10,12:33:37,NA,incomplete,false,true,NA,3,2,building,i_s_018.jpg,right,cottage,skyscraper,NA,NA,NA,right,1570.79999995232,true,NA,NA,NA,NA,NA
2C2JbOaz,NA,NA,2C2JbOaz,2020-0188,2021-09-26,11:25:10,12:33:37,NA,incomplete,false,true,NA,3,3,building,o_s_006.jpg,left,skyscraper,cottage,NA,NA,NA,left,1159.5,true,NA,NA,NA,NA,NA
2C2JbOaz,NA,NA,2C2JbOaz,2020-0188,2021-09-26,11:25:10,12:33:37,NA,incomplete,false,true,NA,3,4,building,i_c_011.jpg,left,cottage,skyscraper,NA,NA,NA,left,918.799999952316,true,NA,NA,NA,NA,NA
2C2JbOaz,NA,NA,2C2JbOaz,2020-0188,2021-09-26,11:25:10,12:33:37,NA,incomplete,false,true,NA,3,5,location,i_c_009.jpg,left,indoor,outdoor,NA,NA,NA,left,2046.69999992847,true,NA,NA,NA,NA,NA
2C2JbOaz,NA,NA,2C2JbOaz,2020-0188,2021-09-26,11:25:10,12:33:37,NA,incomplete,false,true,NA,3,6,location,o_s_016.jpg,left,outdoor,indoor,NA,NA,NA,left,1084.69999992847,true,NA,NA,NA,NA,NA
2C2JbOaz,NA,NA,2C2JbOaz,2020-0188,2021-09-26,11:25:10,12:33:37,NA,incomplete,false,true,NA,3,7,location,o_s_011.jpg,left,outdoor,indoor,NA,NA,NA,left,1290.29999995232,true,NA,NA,NA,NA,NA
2C2JbOaz,NA,NA,2C2JbOaz,2020-0188,2021-09-26,11:25:10,12:33:37,NA,incomplete,false,true,NA,3,8,location,i_s_024.jpg,left,indoor,outdoor,NA,NA,NA,left,2111.39999997616,true,NA,NA,NA,NA,NA
2C2JbOaz,NA,NA,2C2JbOaz,2020-0188,2021-09-26,11:25:10,12:33:37,NA,incomplete,false,true,NA,3,9,location,o_s_009.jpg,left,outdoor,indoor,NA,NA,NA,left,1238.79999995232,true,NA,NA,NA,NA,NA
2C2JbOaz,NA,NA,2C2JbOaz,2020-0188,2021-09-26,11:25:10,12:33:37,NA,incomplete,false,true,NA,3,10,syllable,c_2_013.jpg,right,1 syllable,2 syllables,NA,NA,NA,right,1818.39999997616,true,NA,NA,NA,NA,NA
2C2JbOaz,NA,NA,2C2JbOaz,2020-0188,2021-09-26,11:25:10,12:33:37,NA,incomplete,false,true,NA,3,11,syllable,c_1_007.jpg,right,1 syllable,2 syllables,NA,NA,NA,left,1745.5,false,NA,NA,NA,NA,NA
2C2JbOaz,NA,NA,2C2JbOaz,2020-0188,2021-09-26,11:25:10,12:33:37,NA,incomplete,false,true,NA,3,12,syllable,c_1_027.jpg,right,2 syllables,1 syllable,NA,NA,NA,right,970.300000071526,true,NA,NA,NA,NA,NA
2C2JbOaz,NA,NA,2C2JbOaz,2020-0188,2021-09-26,11:25:10,12:33:37,NA,incomplete,false,true,NA,3,13,syllable,a_2_003.jpg,right,1 syllable,2 syllables,NA,NA,NA,right,1423.39999997616,true,NA,NA,NA,NA,NA
2C2JbOaz,NA,NA,2C2JbOaz,2020-0188,2021-09-26,11:25:10,12:33:37,NA,incomplete,false,true,NA,3,14,syllable,c_2_019.jpg,right,2 syllables,1 syllable,NA,NA,NA,left,1196.39999997616,false,NA,NA,NA,NA,NA
2C2JbOaz,NA,NA,2C2JbOaz,2020-0188,2021-09-26,11:25:10,12:33:37,NA,incomplete,false,true,NA,3,15,abstractness,c_1_016.jpg,right,abstract,concrete,NA,NA,NA,right,3277.29999995232,true,NA,NA,NA,NA,NA
2C2JbOaz,NA,NA,2C2JbOaz,2020-0188,2021-09-26,11:25:10,12:33:37,NA,incomplete,false,true,NA,3,16,abstractness,a_1_026.jpg,left,abstract,concrete,NA,NA,NA,right,3260.79999995232,false,NA,NA,NA,NA,NA
2C2JbOaz,NA,NA,2C2JbOaz,2020-0188,2021-09-26,11:25:10,12:33:37,NA,incomplete,false,true,NA,3,17,abstractness,c_1_004.jpg,right,abstract,concrete,NA,NA,NA,right,1562.20000004768,true,NA,NA,NA,NA,NA
2C2JbOaz,NA,NA,2C2JbOaz,2020-0188,2021-09-26,11:25:10,12:33:37,NA,incomplete,false,true,NA,3,18,abstractness,a_1_017.jpg,right,concrete,abstract,NA,NA,NA,none,0,false,NA,NA,NA,NA,NA
2C2JbOaz,NA,NA,2C2JbOaz,2020-0188,2021-09-26,11:25:10,12:33:37,NA,incomplete,false,true,NA,3,19,abstractness,a_2_012.jpg,left,abstract,concrete,NA,NA,NA,left,2123,true,NA,NA,NA,NA,NA
2C2JbOaz,NA,NA,2C2JbOaz,2020-0188,2021-09-26,11:25:10,12:33:37,NA,incomplete,false,true,NA,3,20,origin,n_l_026.jpg,left,natural,manmade,NA,NA,NA,left,2216.29999995232,true,NA,NA,NA,NA,NA
2C2JbOaz,NA,NA,2C2JbOaz,2020-0188,2021-09-26,11:25:10,12:33:37,NA,incomplete,false,true,NA,3,21,origin,n_l_025.jpg,left,natural,manmade,NA,NA,NA,left,1596.19999992847,true,NA,NA,NA,NA,NA
2C2JbOaz,NA,NA,2C2JbOaz,2020-0188,2021-09-26,11:25:10,12:33:37,NA,incomplete,false,true,NA,3,22,origin,n_l_008.jpg,right,manmade,natural,NA,NA,NA,right,1012,true,NA,NA,NA,NA,NA
2C2JbOaz,NA,NA,2C2JbOaz,2020-0188,2021-09-26,11:25:10,12:33:37,NA,incomplete,false,true,NA,3,23,origin,n_s_008.jpg,right,manmade,natural,NA,NA,NA,right,1670.20000004768,true,NA,NA,NA,NA,NA
2C2JbOaz,NA,NA,2C2JbOaz,2020-0188,2021-09-26,11:25:10,12:33:37,NA,incomplete,false,true,NA,3,24,origin,n_s_003.jpg,right,manmade,natural,NA,NA,NA,right,1501.60000002384,true,NA,NA,NA,NA,NA
2C2JbOaz,NA,NA,2C2JbOaz,2020-0188,2021-09-26,11:25:10,12:33:37,NA,incomplete,false,true,NA,3,25,size,m_s_028.jpg,left,small,large,NA,NA,NA,left,952.699999928474,true,NA,NA,NA,NA,NA
2C2JbOaz,NA,NA,2C2JbOaz,2020-0188,2021-09-26,11:25:10,12:33:37,NA,incomplete,false,true,NA,3,26,size,m_s_008.jpg,left,small,large,NA,NA,NA,left,897.400000095367,true,NA,NA,NA,NA,NA
2C2JbOaz,NA,NA,2C2JbOaz,2020-0188,2021-09-26,11:25:10,12:33:37,NA,incomplete,false,true,NA,3,27,size,n_l_004.jpg,right,small,large,NA,NA,NA,right,2022.60000002384,true,NA,NA,NA,NA,NA
2C2JbOaz,NA,NA,2C2JbOaz,2020-0188,2021-09-26,11:25:10,12:33:37,NA,incomplete,false,true,NA,3,28,size,m_l_002.jpg,left,large,small,NA,NA,NA,right,2183.10000002384,false,NA,NA,NA,NA,NA
2C2JbOaz,NA,NA,2C2JbOaz,2020-0188,2021-09-26,11:25:10,12:33:37,NA,incomplete,false,true,NA,3,29,size,n_s_025.jpg,left,small,large,NA,NA,NA,left,1581.20000004768,true,NA,NA,NA,NA,NA
2C2JbOaz,NA,NA,2C2JbOaz,2020-0188,2021-09-26,11:25:10,12:33:37,NA,incomplete,false,NA,true,3,0,NA,NA,right,NA,NA,c_2_013.jpg,o_s_011.jpg,between-big,NA,NaN,NA,right,3478.7000000476837,1,2,1688.3999999761581
2C2JbOaz,NA,NA,2C2JbOaz,2020-0188,2021-09-26,11:25:10,12:33:37,NA,incomplete,false,NA,true,3,1,NA,NA,right,NA,NA,i_s_024.jpg,i_c_009.jpg,within,NA,NaN,NA,right,4652.100000023842,1,0,1023.3999999761581
2C2JbOaz,NA,NA,2C2JbOaz,2020-0188,2021-09-26,11:25:10,12:33:37,NA,incomplete,false,NA,true,3,2,NA,NA,right,NA,NA,m_s_028.jpg,n_l_008.jpg,between-small,NA,NaN,NA,right,3129.5,1,0,2215.899999976158
2C2JbOaz,NA,NA,2C2JbOaz,2020-0188,2021-09-26,11:25:10,12:33:37,NA,incomplete,false,NA,true,3,3,NA,NA,right,NA,NA,n_l_026.jpg,c_1_004.jpg,between-big,NA,NaN,NA,right,1690.1000000238419,1,3,1230.7000000476837
2C2JbOaz,NA,NA,2C2JbOaz,2020-0188,2021-09-26,11:25:10,12:33:37,NA,incomplete,false,NA,true,3,4,NA,NA,left,NA,NA,n_l_026.jpg,n_s_008.jpg,within,NA,NaN,NA,left,3881.2999999523163,1,0,1232
2C2JbOaz,NA,NA,2C2JbOaz,2020-0188,2021-09-26,11:25:10,12:33:37,NA,incomplete,false,NA,true,3,5,NA,NA,left,NA,NA,m_s_008.jpg,n_s_025.jpg,within,NA,NaN,NA,left,3114.2000000476837,1,0,1247.4000000953674
2C2JbOaz,NA,NA,2C2JbOaz,2020-0188,2021-09-26,11:25:10,12:33:37,NA,incomplete,false,NA,true,3,6,NA,NA,left,NA,NA,n_l_025.jpg,n_s_003.jpg,within,NA,NaN,NA,left,1905.5,1,0,1264.6000000238419
2C2JbOaz,NA,NA,2C2JbOaz,2020-0188,2021-09-26,11:25:10,12:33:37,NA,incomplete,false,NA,true,3,7,NA,NA,right,NA,NA,a_1_017.jpg,c_1_016.jpg,within,NA,NaN,NA,right,2385.600000023842,1,0,973.7000000476837
2C2JbOaz,NA,NA,2C2JbOaz,2020-0188,2021-09-26,11:25:10,12:33:37,NA,incomplete,false,NA,true,3,8,NA,NA,left,NA,NA,a_2_012.jpg,n_l_008.jpg,between-big,NA,NaN,NA,left,2216.899999976158,1,3,884.1000000238419
2C2JbOaz,NA,NA,2C2JbOaz,2020-0188,2021-09-26,11:25:10,12:33:37,NA,incomplete,false,NA,true,3,9,NA,NA,right,NA,NA,o_s_006.jpg,o_c_013.jpg,within,NA,NaN,NA,left,1648.7000000476837,0,1,3128.899999976158
2C2JbOaz,NA,NA,2C2JbOaz,2020-0188,2021-09-26,11:25:10,12:33:37,NA,incomplete,false,NA,true,3,10,NA,NA,right,NA,NA,i_c_011.jpg,i_s_021.jpg,within,NA,NaN,NA,left,1849.8999999761581,0,0,2828.100000023842
2C2JbOaz,NA,NA,2C2JbOaz,2020-0188,2021-09-26,11:25:10,12:33:37,NA,incomplete,false,NA,true,3,11,NA,NA,right,NA,NA,n_l_025.jpg,a_1_017.jpg,between-big,NA,NaN,NA,right,1679.6000000238419,1,3,2472
2C2JbOaz,NA,NA,2C2JbOaz,2020-0188,2021-09-26,11:25:10,12:33:37,NA,incomplete,false,NA,true,3,12,NA,NA,left,NA,NA,c_2_013.jpg,a_2_003.jpg,within,NA,NaN,NA,left,9217.5,1,0,1436.2000000476837
2C2JbOaz,NA,NA,2C2JbOaz,2020-0188,2021-09-26,11:25:10,12:33:37,NA,incomplete,false,NA,true,3,13,NA,NA,right,NA,NA,c_1_007.jpg,i_s_024.jpg,between-big,NA,NaN,NA,right,2953,1,1,1288.1000000238419
2C2JbOaz,NA,NA,2C2JbOaz,2020-0188,2021-09-26,11:25:10,12:33:37,NA,incomplete,false,NA,true,3,14,NA,NA,right,NA,NA,c_1_016.jpg,c_1_027.jpg,between-small,NA,NaN,NA,left,2952.2999999523163,0,0,1087.2000000476837
2C2JbOaz,NA,NA,2C2JbOaz,2020-0188,2021-09-26,11:25:10,12:33:37,NA,incomplete,false,NA,true,3,15,NA,NA,left,NA,NA,a_2_003.jpg,a_1_026.jpg,between-small,NA,NaN,NA,left,3017.7999999523163,1,0,3290.0999999046326
2C2JbOaz,NA,NA,2C2JbOaz,2020-0188,2021-09-26,11:25:10,12:33:37,NA,incomplete,false,NA,true,3,16,NA,NA,right,NA,NA,c_1_027.jpg,o_s_009.jpg,between-big,NA,NaN,NA,right,1926.6000000238419,1,2,2609.7000000476837
2C2JbOaz,NA,NA,2C2JbOaz,2020-0188,2021-09-26,11:25:10,12:33:37,NA,incomplete,false,NA,true,3,17,NA,NA,left,NA,NA,i_c_011.jpg,o_s_011.jpg,between-small,NA,NaN,NA,right,2000.7999999523163,0,0,1023.3000000715256
2C2JbOaz,NA,NA,2C2JbOaz,2020-0188,2021-09-26,11:25:10,12:33:37,NA,incomplete,false,NA,true,3,18,NA,NA,left,NA,NA,i_s_018.jpg,i_c_009.jpg,between-small,NA,NaN,NA,right,1708.1000000238419,0,0,2176.600000023842
2C2JbOaz,NA,NA,2C2JbOaz,2020-0188,2021-09-26,11:25:10,12:33:37,NA,incomplete,false,NA,true,3,19,NA,NA,left,NA,NA,m_s_028.jpg,m_l_002.jpg,within,NA,NaN,NA,left,2087.7999999523163,1,0,1809.0999999046326
2C2JbOaz,NA,NA,2C2JbOaz,2020-0188,2021-09-26,11:25:10,12:33:37,NA,incomplete,false,NA,true,3,20,NA,NA,left,NA,NA,o_s_006.jpg,o_s_016.jpg,between-small,NA,NaN,NA,left,1480.2000000476837,1,1,1144.2999999523163
2C2JbOaz,NA,NA,2C2JbOaz,2020-0188,2021-09-26,11:25:10,12:33:37,NA,incomplete,false,NA,true,3,21,NA,NA,left,NA,NA,o_s_016.jpg,o_s_009.jpg,within,NA,NaN,NA,right,4244.299999952316,0,0,1055.2000000476837
2C2JbOaz,NA,NA,2C2JbOaz,2020-0188,2021-09-26,11:25:10,12:33:37,NA,incomplete,false,NA,true,3,22,NA,NA,right,NA,NA,a_2_012.jpg,a_1_026.jpg,within,NA,NaN,NA,right,4064.5,1,0,1072.3999999761581
2C2JbOaz,NA,NA,2C2JbOaz,2020-0188,2021-09-26,11:25:10,12:33:37,NA,incomplete,false,NA,true,3,23,NA,NA,right,NA,NA,m_s_008.jpg,n_s_008.jpg,between-small,NA,NaN,NA,left,2641.5,0,0,1795
2C2JbOaz,NA,NA,2C2JbOaz,2020-0188,2021-09-26,11:25:10,12:33:37,NA,incomplete,false,NA,true,3,24,NA,NA,left,NA,NA,c_1_007.jpg,c_2_019.jpg,within,NA,NaN,NA,left,3400.9000000953674,1,0,1013.7000000476837
2C2JbOaz,NA,NA,2C2JbOaz,2020-0188,2021-09-26,11:25:10,12:33:37,NA,incomplete,false,NA,true,3,25,NA,NA,left,NA,NA,n_s_003.jpg,n_l_004.jpg,between-small,NA,NaN,NA,right,1199.3999999761581,0,0,1760
2C2JbOaz,NA,NA,2C2JbOaz,2020-0188,2021-09-26,11:25:10,12:33:37,NA,incomplete,false,NA,true,3,26,NA,NA,left,NA,NA,c_2_019.jpg,c_1_004.jpg,between-small,NA,NaN,NA,right,2090.1999999284744,0,0,2193.2000000476837
2C2JbOaz,NA,NA,2C2JbOaz,2020-0188,2021-09-26,11:25:10,12:33:37,NA,incomplete,false,true,NA,4,0,abstractness,a_2_015.jpg,right,concrete,abstract,NA,NA,NA,right,3023.39999997616,true,NA,NA,NA,NA,NA
2C2JbOaz,NA,NA,2C2JbOaz,2020-0188,2021-09-26,11:25:10,12:33:37,NA,incomplete,false,true,NA,4,1,abstractness,c_2_006.jpg,left,concrete,abstract,NA,NA,NA,none,0,false,NA,NA,NA,NA,NA
2C2JbOaz,NA,NA,2C2JbOaz,2020-0188,2021-09-26,11:25:10,12:33:37,NA,incomplete,false,true,NA,4,2,abstractness,a_1_013.jpg,left,abstract,concrete,NA,NA,NA,left,2864.5,true,NA,NA,NA,NA,NA
2C2JbOaz,NA,NA,2C2JbOaz,2020-0188,2021-09-26,11:25:10,12:33:37,NA,incomplete,false,true,NA,4,3,abstractness,a_2_027.jpg,left,abstract,concrete,NA,NA,NA,left,1598.09999990463,true,NA,NA,NA,NA,NA
2C2JbOaz,NA,NA,2C2JbOaz,2020-0188,2021-09-26,11:25:10,12:33:37,NA,incomplete,false,true,NA,4,4,abstractness,a_1_010.jpg,left,abstract,concrete,NA,NA,NA,left,1892.60000002384,true,NA,NA,NA,NA,NA
2C2JbOaz,NA,NA,2C2JbOaz,2020-0188,2021-09-26,11:25:10,12:33:37,NA,incomplete,false,true,NA,4,5,syllable,a_2_018.jpg,right,2 syllables,1 syllable,NA,NA,NA,left,2619.70000004768,false,NA,NA,NA,NA,NA
2C2JbOaz,NA,NA,2C2JbOaz,2020-0188,2021-09-26,11:25:10,12:33:37,NA,incomplete,false,true,NA,4,6,syllable,a_1_027.jpg,right,1 syllable,2 syllables,NA,NA,NA,left,1609.80000007153,false,NA,NA,NA,NA,NA
2C2JbOaz,NA,NA,2C2JbOaz,2020-0188,2021-09-26,11:25:10,12:33:37,NA,incomplete,false,true,NA,4,7,syllable,a_1_005.jpg,right,1 syllable,2 syllables,NA,NA,NA,left,1108.89999997616,false,NA,NA,NA,NA,NA
2C2JbOaz,NA,NA,2C2JbOaz,2020-0188,2021-09-26,11:25:10,12:33:37,NA,incomplete,false,true,NA,4,8,syllable,c_2_027.jpg,right,1 syllable,2 syllables,NA,NA,NA,right,1454.10000002384,true,NA,NA,NA,NA,NA
2C2JbOaz,NA,NA,2C2JbOaz,2020-0188,2021-09-26,11:25:10,12:33:37,NA,incomplete,false,true,NA,4,9,syllable,c_1_025.jpg,right,2 syllables,1 syllable,NA,NA,NA,right,1910.10000002384,true,NA,NA,NA,NA,NA
2C2JbOaz,NA,NA,2C2JbOaz,2020-0188,2021-09-26,11:25:10,12:33:37,NA,incomplete,false,true,NA,4,10,building,o_c_002.jpg,right,skyscraper,cottage,NA,NA,NA,right,1006.5,true,NA,NA,NA,NA,NA
2C2JbOaz,NA,NA,2C2JbOaz,2020-0188,2021-09-26,11:25:10,12:33:37,NA,incomplete,false,true,NA,4,11,building,i_s_004.jpg,left,skyscraper,cottage,NA,NA,NA,left,1306.30000007153,true,NA,NA,NA,NA,NA
2C2JbOaz,NA,NA,2C2JbOaz,2020-0188,2021-09-26,11:25:10,12:33:37,NA,incomplete,false,true,NA,4,12,building,o_c_011.jpg,left,cottage,skyscraper,NA,NA,NA,left,779.299999952316,true,NA,NA,NA,NA,NA
2C2JbOaz,NA,NA,2C2JbOaz,2020-0188,2021-09-26,11:25:10,12:33:37,NA,incomplete,false,true,NA,4,13,building,o_s_012.jpg,right,cottage,skyscraper,NA,NA,NA,right,849.600000023842,true,NA,NA,NA,NA,NA
2C2JbOaz,NA,NA,2C2JbOaz,2020-0188,2021-09-26,11:25:10,12:33:37,NA,incomplete,false,true,NA,4,14,building,i_c_018.jpg,left,cottage,skyscraper,NA,NA,NA,left,781.199999928474,true,NA,NA,NA,NA,NA
2C2JbOaz,NA,NA,2C2JbOaz,2020-0188,2021-09-26,11:25:10,12:33:37,NA,incomplete,false,true,NA,4,15,location,o_s_003.jpg,left,outdoor,indoor,NA,NA,NA,left,1919,true,NA,NA,NA,NA,NA
2C2JbOaz,NA,NA,2C2JbOaz,2020-0188,2021-09-26,11:25:10,12:33:37,NA,incomplete,false,true,NA,4,16,location,i_c_026.jpg,right,outdoor,indoor,NA,NA,NA,right,1413,true,NA,NA,NA,NA,NA
2C2JbOaz,NA,NA,2C2JbOaz,2020-0188,2021-09-26,11:25:10,12:33:37,NA,incomplete,false,true,NA,4,17,location,i_s_013.jpg,right,outdoor,indoor,NA,NA,NA,right,1319,true,NA,NA,NA,NA,NA
2C2JbOaz,NA,NA,2C2JbOaz,2020-0188,2021-09-26,11:25:10,12:33:37,NA,incomplete,false,true,NA,4,18,location,i_s_016.jpg,left,indoor,outdoor,NA,NA,NA,left,1857.80000007153,true,NA,NA,NA,NA,NA
2C2JbOaz,NA,NA,2C2JbOaz,2020-0188,2021-09-26,11:25:10,12:33:37,NA,incomplete,false,true,NA,4,19,location,i_c_008.jpg,left,indoor,outdoor,NA,NA,NA,left,1529,true,NA,NA,NA,NA,NA
2C2JbOaz,NA,NA,2C2JbOaz,2020-0188,2021-09-26,11:25:10,12:33:37,NA,incomplete,false,true,NA,4,20,size,m_s_027.jpg,left,small,large,NA,NA,NA,left,1024.29999995232,true,NA,NA,NA,NA,NA
2C2JbOaz,NA,NA,2C2JbOaz,2020-0188,2021-09-26,11:25:10,12:33:37,NA,incomplete,false,true,NA,4,21,size,m_l_009.jpg,right,small,large,NA,NA,NA,left,1213.60000002384,false,NA,NA,NA,NA,NA
2C2JbOaz,NA,NA,2C2JbOaz,2020-0188,2021-09-26,11:25:10,12:33:37,NA,incomplete,false,true,NA,4,22,size,n_s_005.jpg,right,large,small,NA,NA,NA,right,937.600000023842,true,NA,NA,NA,NA,NA
2C2JbOaz,NA,NA,2C2JbOaz,2020-0188,2021-09-26,11:25:10,12:33:37,NA,incomplete,false,true,NA,4,23,size,m_s_023.jpg,right,large,small,NA,NA,NA,right,1016.60000002384,true,NA,NA,NA,NA,NA
2C2JbOaz,NA,NA,2C2JbOaz,2020-0188,2021-09-26,11:25:10,12:33:37,NA,incomplete,false,true,NA,4,24,size,m_s_016.jpg,left,small,large,NA,NA,NA,left,1080.39999997616,true,NA,NA,NA,NA,NA
2C2JbOaz,NA,NA,2C2JbOaz,2020-0188,2021-09-26,11:25:10,12:33:37,NA,incomplete,false,true,NA,4,25,origin,m_s_017.jpg,right,natural,manmade,NA,NA,NA,right,1271.89999997616,true,NA,NA,NA,NA,NA
2C2JbOaz,NA,NA,2C2JbOaz,2020-0188,2021-09-26,11:25:10,12:33:37,NA,incomplete,false,true,NA,4,26,origin,n_s_021.jpg,right,manmade,natural,NA,NA,NA,right,1000.39999997616,true,NA,NA,NA,NA,NA
2C2JbOaz,NA,NA,2C2JbOaz,2020-0188,2021-09-26,11:25:10,12:33:37,NA,incomplete,false,true,NA,4,27,origin,n_s_028.jpg,right,manmade,natural,NA,NA,NA,right,1074.10000002384,true,NA,NA,NA,NA,NA
2C2JbOaz,NA,NA,2C2JbOaz,2020-0188,2021-09-26,11:25:10,12:33:37,NA,incomplete,false,true,NA,4,28,origin,m_l_001.jpg,right,natural,manmade,NA,NA,NA,right,1089.60000002384,true,NA,NA,NA,NA,NA
2C2JbOaz,NA,NA,2C2JbOaz,2020-0188,2021-09-26,11:25:10,12:33:37,NA,incomplete,false,true,NA,4,29,origin,m_l_026.jpg,left,manmade,natural,NA,NA,NA,left,923.700000047684,true,NA,NA,NA,NA,NA
2C2JbOaz,NA,NA,2C2JbOaz,2020-0188,2021-09-26,11:25:10,12:33:37,NA,incomplete,false,NA,true,4,0,NA,NA,right,NA,NA,n_s_028.jpg,m_s_016.jpg,between-small,NA,NaN,NA,right,3993.7000000476837,1,1,1709.3999999761581
2C2JbOaz,NA,NA,2C2JbOaz,2020-0188,2021-09-26,11:25:10,12:33:37,NA,incomplete,false,NA,true,4,1,NA,NA,right,NA,NA,o_c_011.jpg,c_1_025.jpg,between-big,NA,NaN,NA,right,1679.3999999761581,1,1,1207.6999999284744
2C2JbOaz,NA,NA,2C2JbOaz,2020-0188,2021-09-26,11:25:10,12:33:37,NA,incomplete,false,NA,true,4,2,NA,NA,right,NA,NA,a_2_027.jpg,a_2_015.jpg,within,NA,NaN,NA,right,2673.1999999284744,1,1,2922.100000023842
2C2JbOaz,NA,NA,2C2JbOaz,2020-0188,2021-09-26,11:25:10,12:33:37,NA,incomplete,false,NA,true,4,3,NA,NA,left,NA,NA,a_1_027.jpg,c_1_025.jpg,within,NA,NaN,NA,left,5772.100000023842,1,0,2096.899999976158
2C2JbOaz,NA,NA,2C2JbOaz,2020-0188,2021-09-26,11:25:10,12:33:37,NA,incomplete,false,NA,true,4,4,NA,NA,right,NA,NA,o_c_002.jpg,a_1_005.jpg,between-big,NA,NaN,NA,right,1720,1,1,1079.0999999046326
2C2JbOaz,NA,NA,2C2JbOaz,2020-0188,2021-09-26,11:25:10,12:33:37,NA,incomplete,false,NA,true,4,5,NA,NA,right,NA,NA,i_s_016.jpg,o_s_003.jpg,within,NA,NaN,NA,right,3651.5999999046326,1,0,1735.2999999523163
2C2JbOaz,NA,NA,2C2JbOaz,2020-0188,2021-09-26,11:25:10,12:33:37,NA,incomplete,false,NA,true,4,6,NA,NA,left,NA,NA,o_c_002.jpg,o_s_012.jpg,within,NA,NaN,NA,right,1576.3999999761581,0,1,4470.299999952316
2C2JbOaz,NA,NA,2C2JbOaz,2020-0188,2021-09-26,11:25:10,12:33:37,NA,incomplete,false,NA,true,4,7,NA,NA,left,NA,NA,m_l_009.jpg,m_s_016.jpg,within,NA,NaN,NA,left,2594.600000023842,1,0,1454.6000000238419
2C2JbOaz,NA,NA,2C2JbOaz,2020-0188,2021-09-26,11:25:10,12:33:37,NA,incomplete,false,NA,true,4,8,NA,NA,left,NA,NA,i_c_018.jpg,i_s_013.jpg,between-small,NA,NaN,NA,left,2456.5,1,1,1711.8000000715256
2C2JbOaz,NA,NA,2C2JbOaz,2020-0188,2021-09-26,11:25:10,12:33:37,NA,incomplete,false,NA,true,4,9,NA,NA,left,NA,NA,a_2_027.jpg,a_1_027.jpg,between-small,NA,NaN,NA,left,2655.100000023842,1,1,1836
2C2JbOaz,NA,NA,2C2JbOaz,2020-0188,2021-09-26,11:25:10,12:33:37,NA,incomplete,false,NA,true,4,10,NA,NA,left,NA,NA,m_s_023.jpg,n_s_021.jpg,between-small,NA,NaN,NA,left,4347,1,1,1236.7999999523163
2C2JbOaz,NA,NA,2C2JbOaz,2020-0188,2021-09-26,11:25:10,12:33:37,NA,incomplete,false,NA,true,4,11,NA,NA,right,NA,NA,m_s_027.jpg,i_s_013.jpg,between-big,NA,NaN,NA,right,2761,1,2,782.5999999046326
2C2JbOaz,NA,NA,2C2JbOaz,2020-0188,2021-09-26,11:25:10,12:33:37,NA,incomplete,false,NA,true,4,12,NA,NA,left,NA,NA,i_s_004.jpg,i_c_018.jpg,within,NA,NaN,NA,left,4841.799999952316,1,0,1545.3999999761581
2C2JbOaz,NA,NA,2C2JbOaz,2020-0188,2021-09-26,11:25:10,12:33:37,NA,incomplete,false,NA,true,4,13,NA,NA,right,NA,NA,m_l_001.jpg,m_s_017.jpg,within,NA,NaN,NA,right,4936.5,1,0,1478.8999999761581
2C2JbOaz,NA,NA,2C2JbOaz,2020-0188,2021-09-26,11:25:10,12:33:37,NA,incomplete,false,NA,true,4,14,NA,NA,right,NA,NA,c_2_027.jpg,a_2_018.jpg,within,NA,NaN,NA,right,2815.7000000476837,1,0,1213.8000000715256
2C2JbOaz,NA,NA,2C2JbOaz,2020-0188,2021-09-26,11:25:10,12:33:37,NA,incomplete,false,NA,true,4,15,NA,NA,right,NA,NA,m_l_026.jpg,n_s_021.jpg,within,NA,NaN,NA,right,2271.2000000476837,1,0,2047.1000000238419
2C2JbOaz,NA,NA,2C2JbOaz,2020-0188,2021-09-26,11:25:10,12:33:37,NA,incomplete,false,NA,true,4,16,NA,NA,left,NA,NA,o_s_012.jpg,i_c_026.jpg,between-small,NA,NaN,NA,left,1321.2999999523163,1,1,995.8999999761581
2C2JbOaz,NA,NA,2C2JbOaz,2020-0188,2021-09-26,11:25:10,12:33:37,NA,incomplete,false,NA,true,4,17,NA,NA,right,NA,NA,m_s_017.jpg,n_s_005.jpg,between-small,NA,NaN,NA,right,1362,1,2,4000.5
2C2JbOaz,NA,NA,2C2JbOaz,2020-0188,2021-09-26,11:25:10,12:33:37,NA,incomplete,false,NA,true,4,18,NA,NA,right,NA,NA,i_s_004.jpg,c_2_027.jpg,between-big,NA,NaN,NA,right,2407.7000000476837,1,2,1560.2999999523163
2C2JbOaz,NA,NA,2C2JbOaz,2020-0188,2021-09-26,11:25:10,12:33:37,NA,incomplete,false,NA,true,4,19,NA,NA,right,NA,NA,a_1_005.jpg,a_1_010.jpg,between-small,NA,NaN,NA,right,2470.2999999523163,1,1,1310.5
2C2JbOaz,NA,NA,2C2JbOaz,2020-0188,2021-09-26,11:25:10,12:33:37,NA,incomplete,false,NA,true,4,20,NA,NA,right,NA,NA,i_c_008.jpg,i_c_026.jpg,within,NA,NaN,NA,right,2232.1999999284744,1,1,1186.8000000715256
2C2JbOaz,NA,NA,2C2JbOaz,2020-0188,2021-09-26,11:25:10,12:33:37,NA,incomplete,false,NA,true,4,21,NA,NA,left,NA,NA,a_1_013.jpg,a_2_018.jpg,between-small,NA,NaN,NA,left,1964.3000000715256,1,2,1615.6000000238419
2C2JbOaz,NA,NA,2C2JbOaz,2020-0188,2021-09-26,11:25:10,12:33:37,NA,incomplete,false,NA,true,4,22,NA,NA,right,NA,NA,n_s_005.jpg,i_c_008.jpg,between-big,NA,NaN,NA,right,1557.5,1,2,1231.3000000715256
2C2JbOaz,NA,NA,2C2JbOaz,2020-0188,2021-09-26,11:25:10,12:33:37,NA,incomplete,false,NA,true,4,23,NA,NA,right,NA,NA,m_s_023.jpg,m_s_027.jpg,within,NA,NaN,NA,right,1638.2000000476837,1,0,3375.5
2C2JbOaz,NA,NA,2C2JbOaz,2020-0188,2021-09-26,11:25:10,12:33:37,NA,incomplete,false,NA,true,4,24,NA,NA,right,NA,NA,m_l_009.jpg,i_s_016.jpg,between-big,NA,NaN,NA,right,1699.6000000238419,1,2,1316
2C2JbOaz,NA,NA,2C2JbOaz,2020-0188,2021-09-26,11:25:10,12:33:37,NA,incomplete,false,NA,true,4,25,NA,NA,right,NA,NA,a_1_010.jpg,c_2_006.jpg,within,NA,NaN,NA,right,1573.7000000476837,1,0,3817.0999999046326
2C2JbOaz,NA,NA,2C2JbOaz,2020-0188,2021-09-26,11:25:10,12:33:37,NA,incomplete,false,NA,true,4,26,NA,NA,right,NA,NA,o_s_003.jpg,o_c_011.jpg,between-small,NA,NaN,NA,right,2280.5,1,1,1103.7999999523163
2C2JbOaz,NA,NA,2C2JbOaz,2020-0188,2021-09-26,11:25:10,12:33:37,NA,incomplete,false,true,NA,5,0,syllable,c_1_001.jpg,right,1 syllable,2 syllables,NA,NA,NA,left,2003.79999995232,false,NA,NA,NA,NA,NA
2C2JbOaz,NA,NA,2C2JbOaz,2020-0188,2021-09-26,11:25:10,12:33:37,NA,incomplete,false,true,NA,5,1,syllable,c_1_018.jpg,right,2 syllables,1 syllable,NA,NA,NA,right,1304.29999995232,true,NA,NA,NA,NA,NA
2C2JbOaz,NA,NA,2C2JbOaz,2020-0188,2021-09-26,11:25:10,12:33:37,NA,incomplete,false,true,NA,5,2,syllable,a_1_001.jpg,right,1 syllable,2 syllables,NA,NA,NA,left,1174.10000002384,false,NA,NA,NA,NA,NA
2C2JbOaz,NA,NA,2C2JbOaz,2020-0188,2021-09-26,11:25:10,12:33:37,NA,incomplete,false,true,NA,5,3,syllable,a_2_014.jpg,right,1 syllable,2 syllables,NA,NA,NA,right,1241.29999995232,true,NA,NA,NA,NA,NA
2C2JbOaz,NA,NA,2C2JbOaz,2020-0188,2021-09-26,11:25:10,12:33:37,NA,incomplete,false,true,NA,5,4,syllable,c_2_007.jpg,right,1 syllable,2 syllables,NA,NA,NA,right,1396.5,true,NA,NA,NA,NA,NA
2C2JbOaz,NA,NA,2C2JbOaz,2020-0188,2021-09-26,11:25:10,12:33:37,NA,incomplete,false,true,NA,5,5,abstractness,c_2_011.jpg,right,abstract,concrete,NA,NA,NA,right,2327.89999997616,true,NA,NA,NA,NA,NA
2C2JbOaz,NA,NA,2C2JbOaz,2020-0188,2021-09-26,11:25:10,12:33:37,NA,incomplete,false,true,NA,5,6,abstractness,c_1_024.jpg,left,concrete,abstract,NA,NA,NA,left,1812.89999997616,true,NA,NA,NA,NA,NA
2C2JbOaz,NA,NA,2C2JbOaz,2020-0188,2021-09-26,11:25:10,12:33:37,NA,incomplete,false,true,NA,5,7,abstractness,a_2_023.jpg,right,concrete,abstract,NA,NA,NA,right,2442.29999995232,true,NA,NA,NA,NA,NA
2C2JbOaz,NA,NA,2C2JbOaz,2020-0188,2021-09-26,11:25:10,12:33:37,NA,incomplete,false,true,NA,5,8,abstractness,c_1_011.jpg,right,abstract,concrete,NA,NA,NA,right,2406.5,true,NA,NA,NA,NA,NA
2C2JbOaz,NA,NA,2C2JbOaz,2020-0188,2021-09-26,11:25:10,12:33:37,NA,incomplete,false,true,NA,5,9,abstractness,c_1_021.jpg,right,abstract,concrete,NA,NA,NA,right,1141.19999992847,true,NA,NA,NA,NA,NA
2C2JbOaz,NA,NA,2C2JbOaz,2020-0188,2021-09-26,11:25:10,12:33:37,NA,incomplete,false,true,NA,5,10,building,i_s_015.jpg,right,cottage,skyscraper,NA,NA,NA,right,1391,true,NA,NA,NA,NA,NA
2C2JbOaz,NA,NA,2C2JbOaz,2020-0188,2021-09-26,11:25:10,12:33:37,NA,incomplete,false,true,NA,5,11,building,i_c_024.jpg,right,skyscraper,cottage,NA,NA,NA,right,995.100000023842,true,NA,NA,NA,NA,NA
2C2JbOaz,NA,NA,2C2JbOaz,2020-0188,2021-09-26,11:25:10,12:33:37,NA,incomplete,false,true,NA,5,12,building,o_c_010.jpg,right,skyscraper,cottage,NA,NA,NA,right,1140.19999992847,true,NA,NA,NA,NA,NA
2C2JbOaz,NA,NA,2C2JbOaz,2020-0188,2021-09-26,11:25:10,12:33:37,NA,incomplete,false,true,NA,5,13,building,i_c_021.jpg,left,cottage,skyscraper,NA,NA,NA,left,814.700000047684,true,NA,NA,NA,NA,NA
2C2JbOaz,NA,NA,2C2JbOaz,2020-0188,2021-09-26,11:25:10,12:33:37,NA,incomplete,false,true,NA,5,14,building,i_c_003.jpg,left,cottage,skyscraper,NA,NA,NA,left,748.799999952316,true,NA,NA,NA,NA,NA
2C2JbOaz,NA,NA,2C2JbOaz,2020-0188,2021-09-26,11:25:10,12:33:37,NA,incomplete,false,true,NA,5,15,location,o_c_023.jpg,right,indoor,outdoor,NA,NA,NA,right,1593.59999990463,true,NA,NA,NA,NA,NA
2C2JbOaz,NA,NA,2C2JbOaz,2020-0188,2021-09-26,11:25:10,12:33:37,NA,incomplete,false,true,NA,5,16,location,o_s_001.jpg,right,indoor,outdoor,NA,NA,NA,right,1982.10000002384,true,NA,NA,NA,NA,NA
2C2JbOaz,NA,NA,2C2JbOaz,2020-0188,2021-09-26,11:25:10,12:33:37,NA,incomplete,false,true,NA,5,17,location,i_s_020.jpg,left,indoor,outdoor,NA,NA,NA,left,1668,true,NA,NA,NA,NA,NA
2C2JbOaz,NA,NA,2C2JbOaz,2020-0188,2021-09-26,11:25:10,12:33:37,NA,incomplete,false,true,NA,5,18,location,i_c_012.jpg,right,outdoor,indoor,NA,NA,NA,right,1271.39999997616,true,NA,NA,NA,NA,NA
2C2JbOaz,NA,NA,2C2JbOaz,2020-0188,2021-09-26,11:25:10,12:33:37,NA,incomplete,false,true,NA,5,19,location,o_s_015.jpg,left,outdoor,indoor,NA,NA,NA,left,1737.20000004768,true,NA,NA,NA,NA,NA
2C2JbOaz,NA,NA,2C2JbOaz,2020-0188,2021-09-26,11:25:10,12:33:37,NA,incomplete,false,true,NA,5,20,origin,n_l_024.jpg,left,natural,manmade,NA,NA,NA,left,1603.79999995232,true,NA,NA,NA,NA,NA
2C2JbOaz,NA,NA,2C2JbOaz,2020-0188,2021-09-26,11:25:10,12:33:37,NA,incomplete,false,true,NA,5,21,origin,n_s_014.jpg,left,natural,manmade,NA,NA,NA,left,1408.70000004768,true,NA,NA,NA,NA,NA
2C2JbOaz,NA,NA,2C2JbOaz,2020-0188,2021-09-26,11:25:10,12:33:37,NA,incomplete,false,true,NA,5,22,origin,m_l_008.jpg,left,manmade,natural,NA,NA,NA,left,1000.5,true,NA,NA,NA,NA,NA
2C2JbOaz,NA,NA,2C2JbOaz,2020-0188,2021-09-26,11:25:10,12:33:37,NA,incomplete,false,true,NA,5,23,origin,n_l_010.jpg,right,manmade,natural,NA,NA,NA,right,1053.89999997616,true,NA,NA,NA,NA,NA
2C2JbOaz,NA,NA,2C2JbOaz,2020-0188,2021-09-26,11:25:10,12:33:37,NA,incomplete,false,true,NA,5,24,origin,n_l_015.jpg,left,natural,manmade,NA,NA,NA,left,1083.40000009537,true,NA,NA,NA,NA,NA
2C2JbOaz,NA,NA,2C2JbOaz,2020-0188,2021-09-26,11:25:10,12:33:37,NA,incomplete,false,true,NA,5,25,size,m_s_005.jpg,left,small,large,NA,NA,NA,left,1317.29999995232,true,NA,NA,NA,NA,NA
2C2JbOaz,NA,NA,2C2JbOaz,2020-0188,2021-09-26,11:25:10,12:33:37,NA,incomplete,false,true,NA,5,26,size,n_s_010.jpg,right,large,small,NA,NA,NA,right,906,true,NA,NA,NA,NA,NA
2C2JbOaz,NA,NA,2C2JbOaz,2020-0188,2021-09-26,11:25:10,12:33:37,NA,incomplete,false,true,NA,5,27,size,m_s_014.jpg,left,small,large,NA,NA,NA,left,831,true,NA,NA,NA,NA,NA
2C2JbOaz,NA,NA,2C2JbOaz,2020-0188,2021-09-26,11:25:10,12:33:37,NA,incomplete,false,true,NA,5,28,size,n_l_021.jpg,right,small,large,NA,NA,NA,left,1447.20000004768,false,NA,NA,NA,NA,NA
2C2JbOaz,NA,NA,2C2JbOaz,2020-0188,2021-09-26,11:25:10,12:33:37,NA,incomplete,false,true,NA,5,29,size,m_s_025.jpg,left,small,large,NA,NA,NA,left,758.799999952316,true,NA,NA,NA,NA,NA
2C2JbOaz,NA,NA,2C2JbOaz,2020-0188,2021-09-26,11:25:10,12:33:37,NA,incomplete,false,NA,true,5,0,NA,NA,left,NA,NA,c_2_007.jpg,a_2_023.jpg,between-small,NA,NaN,NA,left,4540.100000023842,1,1,2784.5
2C2JbOaz,NA,NA,2C2JbOaz,2020-0188,2021-09-26,11:25:10,12:33:37,NA,incomplete,false,NA,true,5,1,NA,NA,left,NA,NA,i_c_012.jpg,n_s_014.jpg,between-big,NA,NaN,NA,left,2940.2999999523163,1,2,1229.8999999761581
2C2JbOaz,NA,NA,2C2JbOaz,2020-0188,2021-09-26,11:25:10,12:33:37,NA,incomplete,false,NA,true,5,2,NA,NA,left,NA,NA,c_1_021.jpg,o_c_010.jpg,between-big,NA,NaN,NA,left,1620.5,1,1,1975.9000000953674
2C2JbOaz,NA,NA,2C2JbOaz,2020-0188,2021-09-26,11:25:10,12:33:37,NA,incomplete,false,NA,true,5,3,NA,NA,left,NA,NA,c_1_024.jpg,c_1_021.jpg,within,NA,NaN,NA,left,3751.2000000476837,1,0,1245.8000000715256
2C2JbOaz,NA,NA,2C2JbOaz,2020-0188,2021-09-26,11:25:10,12:33:37,NA,incomplete,false,NA,true,5,4,NA,NA,right,NA,NA,o_c_023.jpg,o_c_010.jpg,between-small,NA,NaN,NA,right,1592.8999999761581,1,1,1354.7999999523163
2C2JbOaz,NA,NA,2C2JbOaz,2020-0188,2021-09-26,11:25:10,12:33:37,NA,incomplete,false,NA,true,5,5,NA,NA,right,NA,NA,n_l_015.jpg,n_s_014.jpg,within,NA,NaN,NA,right,2610.4000000953674,1,0,2043.1000000238419
2C2JbOaz,NA,NA,2C2JbOaz,2020-0188,2021-09-26,11:25:10,12:33:37,NA,incomplete,false,NA,true,5,6,NA,NA,left,NA,NA,c_1_001.jpg,a_2_014.jpg,within,NA,NaN,NA,left,2767.3000000715256,1,0,1491.7999999523163
2C2JbOaz,NA,NA,2C2JbOaz,2020-0188,2021-09-26,11:25:10,12:33:37,NA,incomplete,false,NA,true,5,7,NA,NA,left,NA,NA,n_s_010.jpg,m_s_025.jpg,within,NA,NaN,NA,left,2318.7000000476837,1,0,1290
2C2JbOaz,NA,NA,2C2JbOaz,2020-0188,2021-09-26,11:25:10,12:33:37,NA,incomplete,false,NA,true,5,8,NA,NA,right,NA,NA,i_c_003.jpg,i_c_024.jpg,within,NA,NaN,NA,right,4308,1,1,1316.6000000238419
2C2JbOaz,NA,NA,2C2JbOaz,2020-0188,2021-09-26,11:25:10,12:33:37,NA,incomplete,false,NA,true,5,9,NA,NA,right,NA,NA,i_s_015.jpg,a_2_023.jpg,between-big,NA,NaN,NA,right,1871.7999999523163,1,1,1154.7999999523163
2C2JbOaz,NA,NA,2C2JbOaz,2020-0188,2021-09-26,11:25:10,12:33:37,NA,incomplete,false,NA,true,5,10,NA,NA,right,NA,NA,c_2_011.jpg,a_1_001.jpg,between-small,NA,NaN,NA,right,1928.2000000476837,1,1,1082.1999999284744
2C2JbOaz,NA,NA,2C2JbOaz,2020-0188,2021-09-26,11:25:10,12:33:37,NA,incomplete,false,NA,true,5,11,NA,NA,left,NA,NA,n_l_015.jpg,m_s_014.jpg,between-small,NA,NaN,NA,left,2476.399999976158,1,1,2518
2C2JbOaz,NA,NA,2C2JbOaz,2020-0188,2021-09-26,11:25:10,12:33:37,NA,incomplete,false,NA,true,5,12,NA,NA,left,NA,NA,o_c_023.jpg,i_c_012.jpg,within,NA,NaN,NA,right,2620.8000000715256,0,1,1471.1999999284744
2C2JbOaz,NA,NA,2C2JbOaz,2020-0188,2021-09-26,11:25:10,12:33:37,NA,incomplete,false,NA,true,5,13,NA,NA,right,NA,NA,m_s_005.jpg,m_l_008.jpg,between-small,NA,NaN,NA,right,3599,1,1,1497.6000000238419
2C2JbOaz,NA,NA,2C2JbOaz,2020-0188,2021-09-26,11:25:10,12:33:37,NA,incomplete,false,NA,true,5,14,NA,NA,right,NA,NA,i_s_020.jpg,i_c_003.jpg,between-small,NA,NaN,NA,right,1478.7000000476837,1,1,1300.7000000476837
2C2JbOaz,NA,NA,2C2JbOaz,2020-0188,2021-09-26,11:25:10,12:33:37,NA,incomplete,false,NA,true,5,15,NA,NA,right,NA,NA,o_s_001.jpg,i_c_021.jpg,between-small,NA,NaN,NA,right,6502.800000071526,1,1,1709.3999999761581
2C2JbOaz,NA,NA,2C2JbOaz,2020-0188,2021-09-26,11:25:10,12:33:37,NA,incomplete,false,NA,true,5,16,NA,NA,right,NA,NA,i_c_021.jpg,i_s_015.jpg,within,NA,NaN,NA,right,4728.5,1,1,1275.1999999284744
2C2JbOaz,NA,NA,2C2JbOaz,2020-0188,2021-09-26,11:25:10,12:33:37,NA,incomplete,false,NA,true,5,17,NA,NA,left,NA,NA,o_s_001.jpg,o_s_015.jpg,within,NA,NaN,NA,left,2832.100000023842,1,1,1698.8999999761581
2C2JbOaz,NA,NA,2C2JbOaz,2020-0188,2021-09-26,11:25:10,12:33:37,NA,incomplete,false,NA,true,5,18,NA,NA,left,NA,NA,m_s_005.jpg,n_l_021.jpg,within,NA,NaN,NA,left,4602.299999952316,1,0,1051.7000000476837
2C2JbOaz,NA,NA,2C2JbOaz,2020-0188,2021-09-26,11:25:10,12:33:37,NA,incomplete,false,NA,true,5,19,NA,NA,right,NA,NA,n_s_010.jpg,n_l_010.jpg,between-small,NA,NaN,NA,right,7422.899999976158,1,1,2511.3000000715256
2C2JbOaz,NA,NA,2C2JbOaz,2020-0188,2021-09-26,11:25:10,12:33:37,NA,incomplete,false,NA,true,5,20,NA,NA,right,NA,NA,c_2_007.jpg,c_1_018.jpg,within,NA,NaN,NA,right,3233,1,0,1103.8999999761581
2C2JbOaz,NA,NA,2C2JbOaz,2020-0188,2021-09-26,11:25:10,12:33:37,NA,incomplete,false,NA,true,5,21,NA,NA,left,NA,NA,c_1_011.jpg,i_c_024.jpg,between-big,NA,NaN,NA,left,5600.599999904633,1,1,1174.1999999284744
2C2JbOaz,NA,NA,2C2JbOaz,2020-0188,2021-09-26,11:25:10,12:33:37,NA,incomplete,false,NA,true,5,22,NA,NA,left,NA,NA,o_s_015.jpg,m_l_008.jpg,between-big,NA,NaN,NA,left,1973.8000000715256,1,2,1198.2999999523163
2C2JbOaz,NA,NA,2C2JbOaz,2020-0188,2021-09-26,11:25:10,12:33:37,NA,incomplete,false,NA,true,5,23,NA,NA,right,NA,NA,n_l_024.jpg,i_s_020.jpg,between-big,NA,NaN,NA,right,1905.3999999761581,1,2,1599.7999999523163
2C2JbOaz,NA,NA,2C2JbOaz,2020-0188,2021-09-26,11:25:10,12:33:37,NA,incomplete,false,NA,true,5,24,NA,NA,right,NA,NA,c_1_024.jpg,a_2_014.jpg,between-small,NA,NaN,NA,right,2206.4000000953674,1,0,1164.1000000238419
2C2JbOaz,NA,NA,2C2JbOaz,2020-0188,2021-09-26,11:25:10,12:33:37,NA,incomplete,false,NA,true,5,25,NA,NA,right,NA,NA,c_1_011.jpg,c_2_011.jpg,within,NA,NaN,NA,right,1868.5,1,0,1346.1000000238419
2C2JbOaz,NA,NA,2C2JbOaz,2020-0188,2021-09-26,11:25:10,12:33:37,NA,incomplete,false,NA,true,5,26,NA,NA,right,NA,NA,n_l_010.jpg,n_l_024.jpg,within,NA,NaN,NA,right,1588.4000000953674,1,1,2202.600000023842
2C2JbOaz,NA,NA,2C2JbOaz,2020-0188,2021-09-26,11:25:10,12:33:37,NA,incomplete,false,true,NA,6,0,syllable,a_2_020.jpg,right,1 syllable,2 syllables,NA,NA,NA,none,0,false,NA,NA,NA,NA,NA
2C2JbOaz,NA,NA,2C2JbOaz,2020-0188,2021-09-26,11:25:10,12:33:37,NA,incomplete,false,true,NA,6,1,syllable,c_2_023.jpg,right,2 syllables,1 syllable,NA,NA,NA,right,2608.79999995232,true,NA,NA,NA,NA,NA
2C2JbOaz,NA,NA,2C2JbOaz,2020-0188,2021-09-26,11:25:10,12:33:37,NA,incomplete,false,true,NA,6,2,syllable,a_1_002.jpg,right,2 syllables,1 syllable,NA,NA,NA,right,1971.70000004768,true,NA,NA,NA,NA,NA
2C2JbOaz,NA,NA,2C2JbOaz,2020-0188,2021-09-26,11:25:10,12:33:37,NA,incomplete,false,true,NA,6,3,syllable,a_1_012.jpg,right,2 syllables,1 syllable,NA,NA,NA,right,908.699999928474,true,NA,NA,NA,NA,NA
2C2JbOaz,NA,NA,2C2JbOaz,2020-0188,2021-09-26,11:25:10,12:33:37,NA,incomplete,false,true,NA,6,4,syllable,a_1_004.jpg,right,1 syllable,2 syllables,NA,NA,NA,left,1032.59999990463,false,NA,NA,NA,NA,NA
2C2JbOaz,NA,NA,2C2JbOaz,2020-0188,2021-09-26,11:25:10,12:33:37,NA,incomplete,false,true,NA,6,5,abstractness,a_2_013.jpg,left,abstract,concrete,NA,NA,NA,left,2215.5,true,NA,NA,NA,NA,NA
2C2JbOaz,NA,NA,2C2JbOaz,2020-0188,2021-09-26,11:25:10,12:33:37,NA,incomplete,false,true,NA,6,6,abstractness,a_2_019.jpg,right,concrete,abstract,NA,NA,NA,right,2379.80000007153,true,NA,NA,NA,NA,NA
2C2JbOaz,NA,NA,2C2JbOaz,2020-0188,2021-09-26,11:25:10,12:33:37,NA,incomplete,false,true,NA,6,7,abstractness,c_2_016.jpg,left,concrete,abstract,NA,NA,NA,left,1979.69999992847,true,NA,NA,NA,NA,NA
2C2JbOaz,NA,NA,2C2JbOaz,2020-0188,2021-09-26,11:25:10,12:33:37,NA,incomplete,false,true,NA,6,8,abstractness,a_2_005.jpg,right,concrete,abstract,NA,NA,NA,right,1689.69999992847,true,NA,NA,NA,NA,NA
2C2JbOaz,NA,NA,2C2JbOaz,2020-0188,2021-09-26,11:25:10,12:33:37,NA,incomplete,false,true,NA,6,9,abstractness,c_2_002.jpg,left,concrete,abstract,NA,NA,NA,left,1734.60000002384,true,NA,NA,NA,NA,NA
2C2JbOaz,NA,NA,2C2JbOaz,2020-0188,2021-09-26,11:25:10,12:33:37,NA,incomplete,false,true,NA,6,10,location,i_c_023.jpg,left,indoor,outdoor,NA,NA,NA,left,1647.30000007153,true,NA,NA,NA,NA,NA
2C2JbOaz,NA,NA,2C2JbOaz,2020-0188,2021-09-26,11:25:10,12:33:37,NA,incomplete,false,true,NA,6,11,location,o_s_004.jpg,left,outdoor,indoor,NA,NA,NA,left,1042.80000007153,true,NA,NA,NA,NA,NA
2C2JbOaz,NA,NA,2C2JbOaz,2020-0188,2021-09-26,11:25:10,12:33:37,NA,incomplete,false,true,NA,6,12,location,i_s_023.jpg,left,indoor,outdoor,NA,NA,NA,left,1188,true,NA,NA,NA,NA,NA
2C2JbOaz,NA,NA,2C2JbOaz,2020-0188,2021-09-26,11:25:10,12:33:37,NA,incomplete,false,true,NA,6,13,location,o_c_020.jpg,left,outdoor,indoor,NA,NA,NA,left,1586.90000009537,true,NA,NA,NA,NA,NA
2C2JbOaz,NA,NA,2C2JbOaz,2020-0188,2021-09-26,11:25:10,12:33:37,NA,incomplete,false,true,NA,6,14,location,i_s_026.jpg,right,outdoor,indoor,NA,NA,NA,right,1484.80000007153,true,NA,NA,NA,NA,NA
2C2JbOaz,NA,NA,2C2JbOaz,2020-0188,2021-09-26,11:25:10,12:33:37,NA,incomplete,false,true,NA,6,15,building,o_s_027.jpg,right,cottage,skyscraper,NA,NA,NA,right,1079.10000002384,true,NA,NA,NA,NA,NA
2C2JbOaz,NA,NA,2C2JbOaz,2020-0188,2021-09-26,11:25:10,12:33:37,NA,incomplete,false,true,NA,6,16,building,o_c_025.jpg,left,cottage,skyscraper,NA,NA,NA,left,899,true,NA,NA,NA,NA,NA
2C2JbOaz,NA,NA,2C2JbOaz,2020-0188,2021-09-26,11:25:10,12:33:37,NA,incomplete,false,true,NA,6,17,building,i_c_022.jpg,right,skyscraper,cottage,NA,NA,NA,right,1075.5,true,NA,NA,NA,NA,NA
2C2JbOaz,NA,NA,2C2JbOaz,2020-0188,2021-09-26,11:25:10,12:33:37,NA,incomplete,false,true,NA,6,18,building,o_s_013.jpg,left,skyscraper,cottage,NA,NA,NA,left,932.899999976158,true,NA,NA,NA,NA,NA
2C2JbOaz,NA,NA,2C2JbOaz,2020-0188,2021-09-26,11:25:10,12:33:37,NA,incomplete,false,true,NA,6,19,building,o_c_012.jpg,right,skyscraper,cottage,NA,NA,NA,right,1140.5,true,NA,NA,NA,NA,NA
2C2JbOaz,NA,NA,2C2JbOaz,2020-0188,2021-09-26,11:25:10,12:33:37,NA,incomplete,false,true,NA,6,20,size,m_l_006.jpg,right,small,large,NA,NA,NA,left,2045.39999997616,false,NA,NA,NA,NA,NA
2C2JbOaz,NA,NA,2C2JbOaz,2020-0188,2021-09-26,11:25:10,12:33:37,NA,incomplete,false,true,NA,6,21,size,m_l_021.jpg,left,large,small,NA,NA,NA,right,965.299999952316,false,NA,NA,NA,NA,NA
2C2JbOaz,NA,NA,2C2JbOaz,2020-0188,2021-09-26,11:25:10,12:33:37,NA,incomplete,false,true,NA,6,22,size,n_l_027.jpg,left,large,small,NA,NA,NA,left,1091.89999997616,true,NA,NA,NA,NA,NA
2C2JbOaz,NA,NA,2C2JbOaz,2020-0188,2021-09-26,11:25:10,12:33:37,NA,incomplete,false,true,NA,6,23,size,n_s_024.jpg,left,small,large,NA,NA,NA,left,975.5,true,NA,NA,NA,NA,NA
2C2JbOaz,NA,NA,2C2JbOaz,2020-0188,2021-09-26,11:25:10,12:33:37,NA,incomplete,false,true,NA,6,24,size,m_s_004.jpg,left,small,large,NA,NA,NA,left,720,true,NA,NA,NA,NA,NA
2C2JbOaz,NA,NA,2C2JbOaz,2020-0188,2021-09-26,11:25:10,12:33:37,NA,incomplete,false,true,NA,6,25,origin,n_l_028.jpg,right,manmade,natural,NA,NA,NA,right,1121.60000002384,true,NA,NA,NA,NA,NA
2C2JbOaz,NA,NA,2C2JbOaz,2020-0188,2021-09-26,11:25:10,12:33:37,NA,incomplete,false,true,NA,6,26,origin,n_s_012.jpg,left,natural,manmade,NA,NA,NA,left,987.200000047684,true,NA,NA,NA,NA,NA
2C2JbOaz,NA,NA,2C2JbOaz,2020-0188,2021-09-26,11:25:10,12:33:37,NA,incomplete,false,true,NA,6,27,origin,m_l_015.jpg,right,natural,manmade,NA,NA,NA,right,964.200000047684,true,NA,NA,NA,NA,NA
2C2JbOaz,NA,NA,2C2JbOaz,2020-0188,2021-09-26,11:25:10,12:33:37,NA,incomplete,false,true,NA,6,28,origin,n_s_011.jpg,right,manmade,natural,NA,NA,NA,right,1071.79999995232,true,NA,NA,NA,NA,NA
2C2JbOaz,NA,NA,2C2JbOaz,2020-0188,2021-09-26,11:25:10,12:33:37,NA,incomplete,false,true,NA,6,29,origin,n_l_022.jpg,left,natural,manmade,NA,NA,NA,left,918,true,NA,NA,NA,NA,NA
2C2JbOaz,NA,NA,2C2JbOaz,2020-0188,2021-09-26,11:25:10,12:33:37,NA,incomplete,false,NA,true,6,0,NA,NA,left,NA,NA,a_2_013.jpg,a_2_005.jpg,within,NA,NaN,NA,left,2339.5,1,1,1138.7999999523163
2C2JbOaz,NA,NA,2C2JbOaz,2020-0188,2021-09-26,11:25:10,12:33:37,NA,incomplete,false,NA,true,6,1,NA,NA,left,NA,NA,a_1_012.jpg,a_2_019.jpg,between-small,NA,NaN,NA,left,2451.100000023842,1,1,1181.6000000238419
2C2JbOaz,NA,NA,2C2JbOaz,2020-0188,2021-09-26,11:25:10,12:33:37,NA,incomplete,false,NA,true,6,2,NA,NA,right,NA,NA,n_s_011.jpg,n_l_028.jpg,within,NA,NaN,NA,right,2349.2999999523163,1,0,1822.4000000953674
2C2JbOaz,NA,NA,2C2JbOaz,2020-0188,2021-09-26,11:25:10,12:33:37,NA,incomplete,false,NA,true,6,3,NA,NA,right,NA,NA,n_s_012.jpg,n_s_024.jpg,between-small,NA,NaN,NA,right,5464.200000047684,1,1,1716.8999999761581
2C2JbOaz,NA,NA,2C2JbOaz,2020-0188,2021-09-26,11:25:10,12:33:37,NA,incomplete,false,NA,true,6,4,NA,NA,right,NA,NA,o_s_027.jpg,i_s_023.jpg,between-small,NA,NaN,NA,right,4158.599999904633,1,1,1566.2999999523163
2C2JbOaz,NA,NA,2C2JbOaz,2020-0188,2021-09-26,11:25:10,12:33:37,NA,incomplete,false,NA,true,6,5,NA,NA,right,NA,NA,c_2_016.jpg,a_1_004.jpg,between-small,NA,NaN,NA,right,4323.699999928474,1,1,1121.7000000476837
2C2JbOaz,NA,NA,2C2JbOaz,2020-0188,2021-09-26,11:25:10,12:33:37,NA,incomplete,false,NA,true,6,6,NA,NA,right,NA,NA,o_c_012.jpg,o_c_025.jpg,within,NA,NaN,NA,left,5992.100000023842,0,1,1351
2C2JbOaz,NA,NA,2C2JbOaz,2020-0188,2021-09-26,11:25:10,12:33:37,NA,incomplete,false,NA,true,6,7,NA,NA,left,NA,NA,o_s_027.jpg,o_s_013.jpg,within,NA,NaN,NA,right,2635.100000023842,0,0,995.7999999523163
2C2JbOaz,NA,NA,2C2JbOaz,2020-0188,2021-09-26,11:25:10,12:33:37,NA,incomplete,false,NA,true,6,8,NA,NA,right,NA,NA,i_s_026.jpg,o_s_004.jpg,within,NA,NaN,NA,right,1216.8999999761581,1,1,2156.5
2C2JbOaz,NA,NA,2C2JbOaz,2020-0188,2021-09-26,11:25:10,12:33:37,NA,incomplete,false,NA,true,6,9,NA,NA,right,NA,NA,i_c_023.jpg,c_2_016.jpg,between-big,NA,NaN,NA,right,3183.5,1,1,1129.3999999761581
2C2JbOaz,NA,NA,2C2JbOaz,2020-0188,2021-09-26,11:25:10,12:33:37,NA,incomplete,false,NA,true,6,10,NA,NA,left,NA,NA,a_2_005.jpg,o_s_004.jpg,between-big,NA,NaN,NA,left,979.6999999284744,1,2,2178.600000023842
2C2JbOaz,NA,NA,2C2JbOaz,2020-0188,2021-09-26,11:25:10,12:33:37,NA,incomplete,false,NA,true,6,11,NA,NA,left,NA,NA,i_s_026.jpg,i_c_022.jpg,between-small,NA,NaN,NA,left,1765.2999999523163,1,2,3365.7999999523163
2C2JbOaz,NA,NA,2C2JbOaz,2020-0188,2021-09-26,11:25:10,12:33:37,NA,incomplete,false,NA,true,6,12,NA,NA,left,NA,NA,o_c_020.jpg,o_c_025.jpg,between-small,NA,NaN,NA,left,5308.200000047684,1,1,1321.3999999761581
2C2JbOaz,NA,NA,2C2JbOaz,2020-0188,2021-09-26,11:25:10,12:33:37,NA,incomplete,false,NA,true,6,13,NA,NA,left,NA,NA,m_l_021.jpg,m_s_004.jpg,within,NA,NaN,NA,left,3811.7999999523163,1,0,1150.7000000476837
2C2JbOaz,NA,NA,2C2JbOaz,2020-0188,2021-09-26,11:25:10,12:33:37,NA,incomplete,false,NA,true,6,14,NA,NA,right,NA,NA,m_l_021.jpg,o_s_013.jpg,between-big,NA,NaN,NA,right,1077.1000000238419,1,2,1814.6000000238419
2C2JbOaz,NA,NA,2C2JbOaz,2020-0188,2021-09-26,11:25:10,12:33:37,NA,incomplete,false,NA,true,6,15,NA,NA,right,NA,NA,a_1_004.jpg,c_2_023.jpg,within,NA,NaN,NA,right,2455.2999999523163,1,0,1297.5
2C2JbOaz,NA,NA,2C2JbOaz,2020-0188,2021-09-26,11:25:10,12:33:37,NA,incomplete,false,NA,true,6,16,NA,NA,left,NA,NA,a_2_019.jpg,c_2_002.jpg,within,NA,NaN,NA,left,2704.899999976158,1,0,1163.5999999046326
2C2JbOaz,NA,NA,2C2JbOaz,2020-0188,2021-09-26,11:25:10,12:33:37,NA,incomplete,false,NA,true,6,17,NA,NA,right,NA,NA,o_c_020.jpg,i_c_023.jpg,within,NA,NaN,NA,right,1211.2000000476837,1,1,1960.1000000238419
2C2JbOaz,NA,NA,2C2JbOaz,2020-0188,2021-09-26,11:25:10,12:33:37,NA,incomplete,false,NA,true,6,18,NA,NA,left,NA,NA,m_l_006.jpg,n_s_024.jpg,within,NA,NaN,NA,left,2636.5,1,1,1064.6000000238419
2C2JbOaz,NA,NA,2C2JbOaz,2020-0188,2021-09-26,11:25:10,12:33:37,NA,incomplete,false,NA,true,6,19,NA,NA,left,NA,NA,c_2_002.jpg,i_s_023.jpg,between-big,NA,NaN,NA,left,1617.4000000953674,1,2,1131
2C2JbOaz,NA,NA,2C2JbOaz,2020-0188,2021-09-26,11:25:10,12:33:37,NA,incomplete,false,NA,true,6,20,NA,NA,left,NA,NA,m_s_004.jpg,m_l_015.jpg,between-small,NA,NaN,NA,left,1937.1000000238419,1,2,1309.5
2C2JbOaz,NA,NA,2C2JbOaz,2020-0188,2021-09-26,11:25:10,12:33:37,NA,incomplete,false,NA,true,6,21,NA,NA,left,NA,NA,n_s_012.jpg,n_l_022.jpg,within,NA,NaN,NA,left,6047.100000023842,1,0,1031.6000000238419
2C2JbOaz,NA,NA,2C2JbOaz,2020-0188,2021-09-26,11:25:10,12:33:37,NA,incomplete,false,NA,true,6,22,NA,NA,left,NA,NA,a_1_002.jpg,a_2_013.jpg,between-small,NA,NaN,NA,right,1396,0,0,1257.5
2C2JbOaz,NA,NA,2C2JbOaz,2020-0188,2021-09-26,11:25:10,12:33:37,NA,incomplete,false,NA,true,6,23,NA,NA,left,NA,NA,o_c_012.jpg,n_l_027.jpg,between-big,NA,NaN,NA,left,2418.9000000953674,1,3,1997.4000000953674
2C2JbOaz,NA,NA,2C2JbOaz,2020-0188,2021-09-26,11:25:10,12:33:37,NA,incomplete,false,NA,true,6,24,NA,NA,right,NA,NA,n_l_028.jpg,n_l_027.jpg,between-small,NA,NaN,NA,right,3411.7000000476837,1,1,1977.6000000238419
2C2JbOaz,NA,NA,2C2JbOaz,2020-0188,2021-09-26,11:25:10,12:33:37,NA,incomplete,false,NA,true,6,25,NA,NA,left,NA,NA,a_2_020.jpg,a_1_012.jpg,within,NA,NaN,NA,left,2792.0999999046326,1,0,1701.3000000715256
2C2JbOaz,NA,NA,2C2JbOaz,2020-0188,2021-09-26,11:25:10,12:33:37,NA,incomplete,false,NA,true,6,26,NA,NA,right,NA,NA,m_l_006.jpg,i_c_022.jpg,between-big,NA,NaN,NA,right,1184.0999999046326,1,2,1120.7999999523163
2C2JbOaz,NA,NA,2C2JbOaz,2020-0188,2021-09-26,11:25:10,12:33:37,NA,incomplete,false,true,NA,7,0,location,i_s_002.jpg,right,outdoor,indoor,NA,NA,NA,right,2361.5,true,NA,NA,NA,NA,NA
2C2JbOaz,NA,NA,2C2JbOaz,2020-0188,2021-09-26,11:25:10,12:33:37,NA,incomplete,false,true,NA,7,1,location,o_s_019.jpg,left,outdoor,indoor,NA,NA,NA,left,1244,true,NA,NA,NA,NA,NA
2C2JbOaz,NA,NA,2C2JbOaz,2020-0188,2021-09-26,11:25:10,12:33:37,NA,incomplete,false,true,NA,7,2,location,o_c_021.jpg,right,indoor,outdoor,NA,NA,NA,right,1466.20000004768,true,NA,NA,NA,NA,NA
2C2JbOaz,NA,NA,2C2JbOaz,2020-0188,2021-09-26,11:25:10,12:33:37,NA,incomplete,false,true,NA,7,3,location,i_s_012.jpg,left,indoor,outdoor,NA,NA,NA,left,717.199999928474,true,NA,NA,NA,NA,NA
2C2JbOaz,NA,NA,2C2JbOaz,2020-0188,2021-09-26,11:25:10,12:33:37,NA,incomplete,false,true,NA,7,4,location,o_c_006.jpg,right,indoor,outdoor,NA,NA,NA,right,1258.20000004768,true,NA,NA,NA,NA,NA
2C2JbOaz,NA,NA,2C2JbOaz,2020-0188,2021-09-26,11:25:10,12:33:37,NA,incomplete,false,true,NA,7,5,building,o_s_010.jpg,right,cottage,skyscraper,NA,NA,NA,right,1103.79999995232,true,NA,NA,NA,NA,NA
2C2JbOaz,NA,NA,2C2JbOaz,2020-0188,2021-09-26,11:25:10,12:33:37,NA,incomplete,false,true,NA,7,6,building,i_s_022.jpg,left,skyscraper,cottage,NA,NA,NA,left,1119.09999990463,true,NA,NA,NA,NA,NA
2C2JbOaz,NA,NA,2C2JbOaz,2020-0188,2021-09-26,11:25:10,12:33:37,NA,incomplete,false,true,NA,7,7,building,o_s_023.jpg,right,cottage,skyscraper,NA,NA,NA,right,961.399999976158,true,NA,NA,NA,NA,NA
2C2JbOaz,NA,NA,2C2JbOaz,2020-0188,2021-09-26,11:25:10,12:33:37,NA,incomplete,false,true,NA,7,8,building,i_c_016.jpg,right,skyscraper,cottage,NA,NA,NA,right,1516.89999997616,true,NA,NA,NA,NA,NA
2C2JbOaz,NA,NA,2C2JbOaz,2020-0188,2021-09-26,11:25:10,12:33:37,NA,incomplete,false,true,NA,7,9,building,i_c_002.jpg,left,cottage,skyscraper,NA,NA,NA,left,884.100000023842,true,NA,NA,NA,NA,NA
2C2JbOaz,NA,NA,2C2JbOaz,2020-0188,2021-09-26,11:25:10,12:33:37,NA,incomplete,false,true,NA,7,10,abstractness,c_1_019.jpg,left,concrete,abstract,NA,NA,NA,left,2340.70000004768,true,NA,NA,NA,NA,NA
2C2JbOaz,NA,NA,2C2JbOaz,2020-0188,2021-09-26,11:25:10,12:33:37,NA,incomplete,false,true,NA,7,11,abstractness,a_1_025.jpg,right,concrete,abstract,NA,NA,NA,right,1984.29999995232,true,NA,NA,NA,NA,NA
2C2JbOaz,NA,NA,2C2JbOaz,2020-0188,2021-09-26,11:25:10,12:33:37,NA,incomplete,false,true,NA,7,12,abstractness,a_2_016.jpg,left,abstract,concrete,NA,NA,NA,left,1708.10000002384,true,NA,NA,NA,NA,NA
2C2JbOaz,NA,NA,2C2JbOaz,2020-0188,2021-09-26,11:25:10,12:33:37,NA,incomplete,false,true,NA,7,13,abstractness,a_2_024.jpg,right,concrete,abstract,NA,NA,NA,right,2383.5,true,NA,NA,NA,NA,NA
2C2JbOaz,NA,NA,2C2JbOaz,2020-0188,2021-09-26,11:25:10,12:33:37,NA,incomplete,false,true,NA,7,14,abstractness,c_2_004.jpg,right,abstract,concrete,NA,NA,NA,right,2335.90000009537,true,NA,NA,NA,NA,NA
2C2JbOaz,NA,NA,2C2JbOaz,2020-0188,2021-09-26,11:25:10,12:33:37,NA,incomplete,false,true,NA,7,15,syllable,c_1_023.jpg,right,1 syllable,2 syllables,NA,NA,NA,left,2680.70000004768,false,NA,NA,NA,NA,NA
2C2JbOaz,NA,NA,2C2JbOaz,2020-0188,2021-09-26,11:25:10,12:33:37,NA,incomplete,false,true,NA,7,16,syllable,c_1_026.jpg,right,2 syllables,1 syllable,NA,NA,NA,right,1240.09999990463,true,NA,NA,NA,NA,NA
2C2JbOaz,NA,NA,2C2JbOaz,2020-0188,2021-09-26,11:25:10,12:33:37,NA,incomplete,false,true,NA,7,17,syllable,a_1_006.jpg,right,2 syllables,1 syllable,NA,NA,NA,right,2654.39999997616,true,NA,NA,NA,NA,NA
2C2JbOaz,NA,NA,2C2JbOaz,2020-0188,2021-09-26,11:25:10,12:33:37,NA,incomplete,false,true,NA,7,18,syllable,c_1_003.jpg,right,2 syllables,1 syllable,NA,NA,NA,right,1229,true,NA,NA,NA,NA,NA
2C2JbOaz,NA,NA,2C2JbOaz,2020-0188,2021-09-26,11:25:10,12:33:37,NA,incomplete,false,true,NA,7,19,syllable,a_2_008.jpg,right,1 syllable,2 syllables,NA,NA,NA,right,1306.19999992847,true,NA,NA,NA,NA,NA
2C2JbOaz,NA,NA,2C2JbOaz,2020-0188,2021-09-26,11:25:10,12:33:37,NA,incomplete,false,true,NA,7,20,size,n_s_007.jpg,right,large,small,NA,NA,NA,right,1954.40000009537,true,NA,NA,NA,NA,NA
2C2JbOaz,NA,NA,2C2JbOaz,2020-0188,2021-09-26,11:25:10,12:33:37,NA,incomplete,false,true,NA,7,21,size,m_l_017.jpg,left,large,small,NA,NA,NA,right,1081.5,false,NA,NA,NA,NA,NA
2C2JbOaz,NA,NA,2C2JbOaz,2020-0188,2021-09-26,11:25:10,12:33:37,NA,incomplete,false,true,NA,7,22,size,m_l_027.jpg,left,large,small,NA,NA,NA,left,1212.89999997616,true,NA,NA,NA,NA,NA
2C2JbOaz,NA,NA,2C2JbOaz,2020-0188,2021-09-26,11:25:10,12:33:37,NA,incomplete,false,true,NA,7,23,size,m_l_010.jpg,right,small,large,NA,NA,NA,left,1405.80000007153,false,NA,NA,NA,NA,NA
2C2JbOaz,NA,NA,2C2JbOaz,2020-0188,2021-09-26,11:25:10,12:33:37,NA,incomplete,false,true,NA,7,24,size,m_s_026.jpg,left,small,large,NA,NA,NA,left,1365.30000007153,true,NA,NA,NA,NA,NA
2C2JbOaz,NA,NA,2C2JbOaz,2020-0188,2021-09-26,11:25:10,12:33:37,NA,incomplete,false,true,NA,7,25,origin,m_s_006.jpg,left,manmade,natural,NA,NA,NA,left,1859.80000007153,true,NA,NA,NA,NA,NA
2C2JbOaz,NA,NA,2C2JbOaz,2020-0188,2021-09-26,11:25:10,12:33:37,NA,incomplete,false,true,NA,7,26,origin,n_l_014.jpg,left,natural,manmade,NA,NA,NA,left,1325,true,NA,NA,NA,NA,NA
2C2JbOaz,NA,NA,2C2JbOaz,2020-0188,2021-09-26,11:25:10,12:33:37,NA,incomplete,false,true,NA,7,27,origin,n_s_027.jpg,left,natural,manmade,NA,NA,NA,left,2123.79999995232,true,NA,NA,NA,NA,NA
2C2JbOaz,NA,NA,2C2JbOaz,2020-0188,2021-09-26,11:25:10,12:33:37,NA,incomplete,false,true,NA,7,28,origin,m_s_015.jpg,left,manmade,natural,NA,NA,NA,left,1123.10000002384,true,NA,NA,NA,NA,NA
2C2JbOaz,NA,NA,2C2JbOaz,2020-0188,2021-09-26,11:25:10,12:33:37,NA,incomplete,false,true,NA,7,29,origin,n_l_005.jpg,left,natural,manmade,NA,NA,NA,left,1032.5,true,NA,NA,NA,NA,NA
2C2JbOaz,NA,NA,2C2JbOaz,2020-0188,2021-09-26,11:25:10,12:33:37,NA,incomplete,false,NA,true,7,0,NA,NA,right,NA,NA,a_1_025.jpg,i_c_016.jpg,between-big,NA,NaN,NA,right,3932.5,1,1,1781.5
2C2JbOaz,NA,NA,2C2JbOaz,2020-0188,2021-09-26,11:25:10,12:33:37,NA,incomplete,false,NA,true,7,1,NA,NA,right,NA,NA,m_l_010.jpg,n_s_007.jpg,within,NA,NaN,NA,right,2351.6999999284744,1,0,1172.6999999284744
2C2JbOaz,NA,NA,2C2JbOaz,2020-0188,2021-09-26,11:25:10,12:33:37,NA,incomplete,false,NA,true,7,2,NA,NA,left,NA,NA,m_s_026.jpg,n_s_027.jpg,between-small,NA,NaN,NA,left,2504.600000023842,1,1,1732.2000000476837
2C2JbOaz,NA,NA,2C2JbOaz,2020-0188,2021-09-26,11:25:10,12:33:37,NA,incomplete,false,NA,true,7,3,NA,NA,left,NA,NA,a_1_006.jpg,n_s_007.jpg,between-big,NA,NaN,NA,left,1485.8000000715256,1,3,863.3999999761581
2C2JbOaz,NA,NA,2C2JbOaz,2020-0188,2021-09-26,11:25:10,12:33:37,NA,incomplete,false,NA,true,7,4,NA,NA,left,NA,NA,i_s_012.jpg,i_s_022.jpg,between-small,NA,NaN,NA,left,3931.5,1,1,1176.1000000238419
2C2JbOaz,NA,NA,2C2JbOaz,2020-0188,2021-09-26,11:25:10,12:33:37,NA,incomplete,false,NA,true,7,5,NA,NA,right,NA,NA,c_1_026.jpg,a_2_024.jpg,between-small,NA,NaN,NA,right,3572.2000000476837,1,1,1065.1999999284744
2C2JbOaz,NA,NA,2C2JbOaz,2020-0188,2021-09-26,11:25:10,12:33:37,NA,incomplete,false,NA,true,7,6,NA,NA,right,NA,NA,a_2_024.jpg,c_1_019.jpg,within,NA,NaN,NA,right,2687.5,1,0,1202.4000000953674
2C2JbOaz,NA,NA,2C2JbOaz,2020-0188,2021-09-26,11:25:10,12:33:37,NA,incomplete,false,NA,true,7,7,NA,NA,left,NA,NA,o_s_010.jpg,i_c_016.jpg,within,NA,NaN,NA,left,4069.7999999523163,1,0,1146.9000000953674
2C2JbOaz,NA,NA,2C2JbOaz,2020-0188,2021-09-26,11:25:10,12:33:37,NA,incomplete,false,NA,true,7,8,NA,NA,right,NA,NA,i_c_002.jpg,i_s_022.jpg,within,NA,NaN,NA,right,5030.599999904633,1,1,1250
2C2JbOaz,NA,NA,2C2JbOaz,2020-0188,2021-09-26,11:25:10,12:33:37,NA,incomplete,false,NA,true,7,9,NA,NA,right,NA,NA,c_2_004.jpg,a_1_025.jpg,within,NA,NaN,NA,right,2705.100000023842,1,0,1032.7000000476837
2C2JbOaz,NA,NA,2C2JbOaz,2020-0188,2021-09-26,11:25:10,12:33:37,NA,incomplete,false,NA,true,7,10,NA,NA,left,NA,NA,o_s_023.jpg,c_1_019.jpg,between-big,NA,NaN,NA,left,2203.7000000476837,1,2,2196.8000000715256
2C2JbOaz,NA,NA,2C2JbOaz,2020-0188,2021-09-26,11:25:10,12:33:37,NA,incomplete,false,NA,true,7,11,NA,NA,right,NA,NA,o_s_023.jpg,o_c_006.jpg,between-small,NA,NaN,NA,right,1312.1999999284744,1,1,1817.2000000476837
2C2JbOaz,NA,NA,2C2JbOaz,2020-0188,2021-09-26,11:25:10,12:33:37,NA,incomplete,false,NA,true,7,12,NA,NA,right,NA,NA,c_1_003.jpg,c_1_023.jpg,within,NA,NaN,NA,right,5701.5,1,1,2755.100000023842
2C2JbOaz,NA,NA,2C2JbOaz,2020-0188,2021-09-26,11:25:10,12:33:37,NA,incomplete,false,NA,true,7,13,NA,NA,right,NA,NA,m_l_017.jpg,c_1_003.jpg,between-big,NA,NaN,NA,right,2514,1,1,1131.3000000715256
2C2JbOaz,NA,NA,2C2JbOaz,2020-0188,2021-09-26,11:25:10,12:33:37,NA,incomplete,false,NA,true,7,14,NA,NA,left,NA,NA,m_l_017.jpg,m_s_026.jpg,within,NA,NaN,NA,right,1340.1000000238419,0,0,1268
2C2JbOaz,NA,NA,2C2JbOaz,2020-0188,2021-09-26,11:25:10,12:33:37,NA,incomplete,false,NA,true,7,15,NA,NA,left,NA,NA,o_s_019.jpg,o_c_006.jpg,within,NA,NaN,NA,left,2419.100000023842,1,0,1220.7999999523163
2C2JbOaz,NA,NA,2C2JbOaz,2020-0188,2021-09-26,11:25:10,12:33:37,NA,incomplete,false,NA,true,7,16,NA,NA,right,NA,NA,m_s_006.jpg,m_l_027.jpg,between-small,NA,NaN,NA,right,3106.7000000476837,1,2,2861
2C2JbOaz,NA,NA,2C2JbOaz,2020-0188,2021-09-26,11:25:10,12:33:37,NA,incomplete,false,NA,true,7,17,NA,NA,left,NA,NA,c_1_026.jpg,a_2_008.jpg,within,NA,NaN,NA,left,2510.1999999284744,1,0,1815.5
2C2JbOaz,NA,NA,2C2JbOaz,2020-0188,2021-09-26,11:25:10,12:33:37,NA,incomplete,false,NA,true,7,18,NA,NA,left,NA,NA,m_s_006.jpg,m_s_015.jpg,within,NA,NaN,NA,left,3295.6999999284744,1,0,1090.8999999761581
2C2JbOaz,NA,NA,2C2JbOaz,2020-0188,2021-09-26,11:25:10,12:33:37,NA,incomplete,false,NA,true,7,19,NA,NA,right,NA,NA,c_1_023.jpg,a_2_016.jpg,between-small,NA,NaN,NA,right,2489.1999999284744,1,1,1332.2999999523163
2C2JbOaz,NA,NA,2C2JbOaz,2020-0188,2021-09-26,11:25:10,12:33:37,NA,incomplete,false,NA,true,7,20,NA,NA,right,NA,NA,a_1_006.jpg,c_2_004.jpg,between-small,NA,NaN,NA,right,2510.9000000953674,1,1,1570.8999999761581
2C2JbOaz,NA,NA,2C2JbOaz,2020-0188,2021-09-26,11:25:10,12:33:37,NA,incomplete,false,NA,true,7,21,NA,NA,left,NA,NA,i_s_002.jpg,i_s_012.jpg,within,NA,NaN,NA,right,1823.1000000238419,0,1,985
2C2JbOaz,NA,NA,2C2JbOaz,2020-0188,2021-09-26,11:25:10,12:33:37,NA,incomplete,false,NA,true,7,22,NA,NA,left,NA,NA,i_c_002.jpg,a_2_016.jpg,between-big,NA,NaN,NA,left,1657.5,1,2,988
2C2JbOaz,NA,NA,2C2JbOaz,2020-0188,2021-09-26,11:25:10,12:33:37,NA,incomplete,false,NA,true,7,23,NA,NA,right,NA,NA,n_l_005.jpg,n_l_014.jpg,within,NA,NaN,NA,left,1155.2000000476837,0,1,984.9000000953674
2C2JbOaz,NA,NA,2C2JbOaz,2020-0188,2021-09-26,11:25:10,12:33:37,NA,incomplete,false,NA,true,7,24,NA,NA,left,NA,NA,m_l_010.jpg,n_l_014.jpg,between-small,NA,NaN,NA,left,1008.7999999523163,1,2,1710.1999999284744
2C2JbOaz,NA,NA,2C2JbOaz,2020-0188,2021-09-26,11:25:10,12:33:37,NA,incomplete,false,NA,true,7,25,NA,NA,left,NA,NA,a_2_008.jpg,m_l_027.jpg,between-big,NA,NaN,NA,left,3136.0999999046326,1,1,948.5
2C2JbOaz,NA,NA,2C2JbOaz,2020-0188,2021-09-26,11:25:10,12:33:37,NA,incomplete,false,NA,true,7,26,NA,NA,right,NA,NA,o_s_010.jpg,o_c_021.jpg,between-small,NA,NaN,NA,right,3011.399999976158,1,1,1244.8000000715256
2C2JbOaz,NA,NA,2C2JbOaz,2020-0188,2021-09-26,11:25:10,12:33:37,NA,incomplete,false,true,NA,8,0,size,n_s_002.jpg,right,large,small,NA,NA,NA,right,1509.79999995232,true,NA,NA,NA,NA,NA
2C2JbOaz,NA,NA,2C2JbOaz,2020-0188,2021-09-26,11:25:10,12:33:37,NA,incomplete,false,true,NA,8,1,size,m_l_014.jpg,right,small,large,NA,NA,NA,left,1808.89999997616,false,NA,NA,NA,NA,NA
2C2JbOaz,NA,NA,2C2JbOaz,2020-0188,2021-09-26,11:25:10,12:33:37,NA,incomplete,false,true,NA,8,2,size,n_l_012.jpg,right,small,large,NA,NA,NA,right,1638.59999990463,true,NA,NA,NA,NA,NA
2C2JbOaz,NA,NA,2C2JbOaz,2020-0188,2021-09-26,11:25:10,12:33:37,NA,incomplete,false,true,NA,8,3,size,m_s_011.jpg,left,small,large,NA,NA,NA,left,1212,true,NA,NA,NA,NA,NA
2C2JbOaz,NA,NA,2C2JbOaz,2020-0188,2021-09-26,11:25:10,12:33:37,NA,incomplete,false,true,NA,8,4,size,n_l_001.jpg,right,small,large,NA,NA,NA,right,1150.20000004768,true,NA,NA,NA,NA,NA
2C2JbOaz,NA,NA,2C2JbOaz,2020-0188,2021-09-26,11:25:10,12:33:37,NA,incomplete,false,true,NA,8,5,origin,m_s_010.jpg,right,natural,manmade,NA,NA,NA,right,1675.5,true,NA,NA,NA,NA,NA
2C2JbOaz,NA,NA,2C2JbOaz,2020-0188,2021-09-26,11:25:10,12:33:37,NA,incomplete,false,true,NA,8,6,origin,n_s_023.jpg,left,natural,manmade,NA,NA,NA,left,1056.70000004768,true,NA,NA,NA,NA,NA
2C2JbOaz,NA,NA,2C2JbOaz,2020-0188,2021-09-26,11:25:10,12:33:37,NA,incomplete,false,true,NA,8,7,origin,n_l_017.jpg,left,natural,manmade,NA,NA,NA,left,1239.29999995232,true,NA,NA,NA,NA,NA
2C2JbOaz,NA,NA,2C2JbOaz,2020-0188,2021-09-26,11:25:10,12:33:37,NA,incomplete,false,true,NA,8,8,origin,n_l_002.jpg,left,natural,manmade,NA,NA,NA,left,1624.5,true,NA,NA,NA,NA,NA
2C2JbOaz,NA,NA,2C2JbOaz,2020-0188,2021-09-26,11:25:10,12:33:37,NA,incomplete,false,true,NA,8,9,origin,n_s_019.jpg,right,manmade,natural,NA,NA,NA,right,1730.79999995232,true,NA,NA,NA,NA,NA
2C2JbOaz,NA,NA,2C2JbOaz,2020-0188,2021-09-26,11:25:10,12:33:37,NA,incomplete,false,true,NA,8,10,abstractness,a_1_021.jpg,right,concrete,abstract,NA,NA,NA,right,2610.89999997616,true,NA,NA,NA,NA,NA
2C2JbOaz,NA,NA,2C2JbOaz,2020-0188,2021-09-26,11:25:10,12:33:37,NA,incomplete,false,true,NA,8,11,abstractness,c_1_013.jpg,right,abstract,concrete,NA,NA,NA,right,2160.10000002384,true,NA,NA,NA,NA,NA
2C2JbOaz,NA,NA,2C2JbOaz,2020-0188,2021-09-26,11:25:10,12:33:37,NA,incomplete,false,true,NA,8,12,abstractness,a_1_008.jpg,left,abstract,concrete,NA,NA,NA,left,1472.39999997616,true,NA,NA,NA,NA,NA
2C2JbOaz,NA,NA,2C2JbOaz,2020-0188,2021-09-26,11:25:10,12:33:37,NA,incomplete,false,true,NA,8,13,abstractness,c_1_005.jpg,right,abstract,concrete,NA,NA,NA,right,1155.70000004768,true,NA,NA,NA,NA,NA
2C2JbOaz,NA,NA,2C2JbOaz,2020-0188,2021-09-26,11:25:10,12:33:37,NA,incomplete,false,true,NA,8,14,abstractness,c_2_014.jpg,right,abstract,concrete,NA,NA,NA,right,2046.09999990463,true,NA,NA,NA,NA,NA
2C2JbOaz,NA,NA,2C2JbOaz,2020-0188,2021-09-26,11:25:10,12:33:37,NA,incomplete,false,true,NA,8,15,syllable,c_1_020.jpg,right,2 syllables,1 syllable,NA,NA,NA,right,2427.5,true,NA,NA,NA,NA,NA
2C2JbOaz,NA,NA,2C2JbOaz,2020-0188,2021-09-26,11:25:10,12:33:37,NA,incomplete,false,true,NA,8,16,syllable,a_2_001.jpg,right,1 syllable,2 syllables,NA,NA,NA,right,1930.5,true,NA,NA,NA,NA,NA
2C2JbOaz,NA,NA,2C2JbOaz,2020-0188,2021-09-26,11:25:10,12:33:37,NA,incomplete,false,true,NA,8,17,syllable,a_2_009.jpg,right,1 syllable,2 syllables,NA,NA,NA,right,1859.39999997616,true,NA,NA,NA,NA,NA
2C2JbOaz,NA,NA,2C2JbOaz,2020-0188,2021-09-26,11:25:10,12:33:37,NA,incomplete,false,true,NA,8,18,syllable,c_2_003.jpg,right,1 syllable,2 syllables,NA,NA,NA,right,1122.29999995232,true,NA,NA,NA,NA,NA
2C2JbOaz,NA,NA,2C2JbOaz,2020-0188,2021-09-26,11:25:10,12:33:37,NA,incomplete,false,true,NA,8,19,syllable,a_2_028.jpg,right,1 syllable,2 syllables,NA,NA,NA,right,1059.19999992847,true,NA,NA,NA,NA,NA
2C2JbOaz,NA,NA,2C2JbOaz,2020-0188,2021-09-26,11:25:10,12:33:37,NA,incomplete,false,true,NA,8,20,building,i_c_005.jpg,left,cottage,skyscraper,NA,NA,NA,left,1877.69999992847,true,NA,NA,NA,NA,NA
2C2JbOaz,NA,NA,2C2JbOaz,2020-0188,2021-09-26,11:25:10,12:33:37,NA,incomplete,false,true,NA,8,21,building,i_s_028.jpg,right,cottage,skyscraper,NA,NA,NA,right,823.700000047684,true,NA,NA,NA,NA,NA
2C2JbOaz,NA,NA,2C2JbOaz,2020-0188,2021-09-26,11:25:10,12:33:37,NA,incomplete,false,true,NA,8,22,building,o_c_022.jpg,right,skyscraper,cottage,NA,NA,NA,right,1395.89999997616,true,NA,NA,NA,NA,NA
2C2JbOaz,NA,NA,2C2JbOaz,2020-0188,2021-09-26,11:25:10,12:33:37,NA,incomplete,false,true,NA,8,23,building,o_c_028.jpg,left,cottage,skyscraper,NA,NA,NA,left,1049.80000007153,true,NA,NA,NA,NA,NA
2C2JbOaz,NA,NA,2C2JbOaz,2020-0188,2021-09-26,11:25:10,12:33:37,NA,incomplete,false,true,NA,8,24,building,o_s_024.jpg,left,skyscraper,cottage,NA,NA,NA,right,829.300000071526,false,NA,NA,NA,NA,NA
2C2JbOaz,NA,NA,2C2JbOaz,2020-0188,2021-09-26,11:25:10,12:33:37,NA,incomplete,false,true,NA,8,25,location,i_s_006.jpg,right,outdoor,indoor,NA,NA,NA,right,1675,true,NA,NA,NA,NA,NA
2C2JbOaz,NA,NA,2C2JbOaz,2020-0188,2021-09-26,11:25:10,12:33:37,NA,incomplete,false,true,NA,8,26,location,o_c_007.jpg,right,indoor,outdoor,NA,NA,NA,right,1201,true,NA,NA,NA,NA,NA
2C2JbOaz,NA,NA,2C2JbOaz,2020-0188,2021-09-26,11:25:10,12:33:37,NA,incomplete,false,true,NA,8,27,location,i_c_028.jpg,left,indoor,outdoor,NA,NA,NA,left,1296.10000002384,true,NA,NA,NA,NA,NA
2C2JbOaz,NA,NA,2C2JbOaz,2020-0188,2021-09-26,11:25:10,12:33:37,NA,incomplete,false,true,NA,8,28,location,o_c_005.jpg,right,indoor,outdoor,NA,NA,NA,right,1138.59999990463,true,NA,NA,NA,NA,NA
2C2JbOaz,NA,NA,2C2JbOaz,2020-0188,2021-09-26,11:25:10,12:33:37,NA,incomplete,false,true,NA,8,29,location,i_c_007.jpg,right,outdoor,indoor,NA,NA,NA,right,1147.29999995232,true,NA,NA,NA,NA,NA
2C2JbOaz,NA,NA,2C2JbOaz,2020-0188,2021-09-26,11:25:10,12:33:37,NA,incomplete,false,NA,true,8,0,NA,NA,right,NA,NA,i_s_006.jpg,o_c_022.jpg,between-small,NA,NaN,NA,right,2747.3000000715256,1,1,1714.2000000476837
2C2JbOaz,NA,NA,2C2JbOaz,2020-0188,2021-09-26,11:25:10,12:33:37,NA,incomplete,false,NA,true,8,1,NA,NA,left,NA,NA,n_s_023.jpg,n_s_019.jpg,within,NA,NaN,NA,left,2729.5,1,0,1161.1000000238419
2C2JbOaz,NA,NA,2C2JbOaz,2020-0188,2021-09-26,11:25:10,12:33:37,NA,incomplete,false,NA,true,8,2,NA,NA,right,NA,NA,c_1_013.jpg,n_l_002.jpg,between-big,NA,NaN,NA,right,3788.7000000476837,1,1,1185.6000000238419
2C2JbOaz,NA,NA,2C2JbOaz,2020-0188,2021-09-26,11:25:10,12:33:37,NA,incomplete,false,NA,true,8,3,NA,NA,left,NA,NA,m_l_014.jpg,n_l_001.jpg,within,NA,NaN,NA,left,1868.8999999761581,1,0,954.3000000715256
2C2JbOaz,NA,NA,2C2JbOaz,2020-0188,2021-09-26,11:25:10,12:33:37,NA,incomplete,false,NA,true,8,4,NA,NA,left,NA,NA,n_s_002.jpg,m_s_011.jpg,within,NA,NaN,NA,left,2591.3000000715256,1,0,1114
2C2JbOaz,NA,NA,2C2JbOaz,2020-0188,2021-09-26,11:25:10,12:33:37,NA,incomplete,false,NA,true,8,5,NA,NA,right,NA,NA,a_1_021.jpg,n_l_017.jpg,between-big,NA,NaN,NA,right,1919.5,1,1,1041.2000000476837
2C2JbOaz,NA,NA,2C2JbOaz,2020-0188,2021-09-26,11:25:10,12:33:37,NA,incomplete,false,NA,true,8,6,NA,NA,right,NA,NA,n_l_017.jpg,n_l_001.jpg,between-small,NA,NaN,NA,left,7351.800000071526,0,1,1009.0999999046326
2C2JbOaz,NA,NA,2C2JbOaz,2020-0188,2021-09-26,11:25:10,12:33:37,NA,incomplete,false,NA,true,8,7,NA,NA,left,NA,NA,m_s_011.jpg,n_s_023.jpg,between-small,NA,NaN,NA,left,2501.899999976158,1,1,914.7999999523163
2C2JbOaz,NA,NA,2C2JbOaz,2020-0188,2021-09-26,11:25:10,12:33:37,NA,incomplete,false,NA,true,8,8,NA,NA,left,NA,NA,o_s_024.jpg,i_c_028.jpg,between-small,NA,NaN,NA,left,1801.8999999761581,1,1,967.1999999284744
2C2JbOaz,NA,NA,2C2JbOaz,2020-0188,2021-09-26,11:25:10,12:33:37,NA,incomplete,false,NA,true,8,9,NA,NA,left,NA,NA,i_s_006.jpg,o_c_005.jpg,within,NA,NaN,NA,left,2151,1,0,975.8000000715256
2C2JbOaz,NA,NA,2C2JbOaz,2020-0188,2021-09-26,11:25:10,12:33:37,NA,incomplete,false,NA,true,8,10,NA,NA,right,NA,NA,i_c_007.jpg,o_c_007.jpg,within,NA,NaN,NA,left,6986.300000071526,0,1,1234.6000000238419
2C2JbOaz,NA,NA,2C2JbOaz,2020-0188,2021-09-26,11:25:10,12:33:37,NA,incomplete,false,NA,true,8,11,NA,NA,left,NA,NA,c_2_014.jpg,a_2_009.jpg,between-small,NA,NaN,NA,left,18324.700000047684,1,2,2921.1999999284744
2C2JbOaz,NA,NA,2C2JbOaz,2020-0188,2021-09-26,11:25:10,12:33:37,NA,incomplete,false,NA,true,8,12,NA,NA,right,NA,NA,c_1_020.jpg,a_1_008.jpg,between-small,NA,NaN,NA,right,2312.4000000953674,1,2,2689.3000000715256
2C2JbOaz,NA,NA,2C2JbOaz,2020-0188,2021-09-26,11:25:10,12:33:37,NA,incomplete,false,NA,true,8,13,NA,NA,left,NA,NA,c_1_020.jpg,c_2_003.jpg,within,NA,NaN,NA,left,6367.899999976158,1,0,1498.2999999523163
2C2JbOaz,NA,NA,2C2JbOaz,2020-0188,2021-09-26,11:25:10,12:33:37,NA,incomplete,false,NA,true,8,14,NA,NA,left,NA,NA,c_1_013.jpg,c_2_014.jpg,within,NA,NaN,NA,left,2970.6999999284744,1,0,1699.7999999523163
2C2JbOaz,NA,NA,2C2JbOaz,2020-0188,2021-09-26,11:25:10,12:33:37,NA,incomplete,false,NA,true,8,15,NA,NA,left,NA,NA,n_l_012.jpg,m_s_010.jpg,between-small,NA,NaN,NA,left,7672.399999976158,1,1,1746.1000000238419
2C2JbOaz,NA,NA,2C2JbOaz,2020-0188,2021-09-26,11:25:10,12:33:37,NA,incomplete,false,NA,true,8,16,NA,NA,left,NA,NA,c_2_003.jpg,i_s_028.jpg,between-big,NA,NaN,NA,left,5133.899999976158,1,2,1705.7999999523163
2C2JbOaz,NA,NA,2C2JbOaz,2020-0188,2021-09-26,11:25:10,12:33:37,NA,incomplete,false,NA,true,8,17,NA,NA,right,NA,NA,a_2_028.jpg,a_2_001.jpg,within,NA,NaN,NA,right,4434,1,0,1539.6000000238419
2C2JbOaz,NA,NA,2C2JbOaz,2020-0188,2021-09-26,11:25:10,12:33:37,NA,incomplete,false,NA,true,8,18,NA,NA,left,NA,NA,a_1_021.jpg,c_1_005.jpg,within,NA,NaN,NA,left,2789.100000023842,1,0,1199.1000000238419
2C2JbOaz,NA,NA,2C2JbOaz,2020-0188,2021-09-26,11:25:10,12:33:37,NA,incomplete,false,NA,true,8,19,NA,NA,right,NA,NA,o_c_028.jpg,i_c_005.jpg,within,NA,NaN,NA,left,1145.2999999523163,0,0,2441.100000023842
2C2JbOaz,NA,NA,2C2JbOaz,2020-0188,2021-09-26,11:25:10,12:33:37,NA,incomplete,false,NA,true,8,20,NA,NA,right,NA,NA,o_c_007.jpg,o_c_028.jpg,between-small,NA,NaN,NA,right,1569.6000000238419,1,1,3856.8000000715256
2C2JbOaz,NA,NA,2C2JbOaz,2020-0188,2021-09-26,11:25:10,12:33:37,NA,incomplete,false,NA,true,8,21,NA,NA,left,NA,NA,n_s_019.jpg,a_1_008.jpg,between-big,NA,NaN,NA,left,1604.4000000953674,1,2,1305.0999999046326
2C2JbOaz,NA,NA,2C2JbOaz,2020-0188,2021-09-26,11:25:10,12:33:37,NA,incomplete,false,NA,true,8,22,NA,NA,left,NA,NA,a_2_009.jpg,i_c_005.jpg,between-big,NA,NaN,NA,left,2070.7000000476837,1,2,1696.1000000238419
2C2JbOaz,NA,NA,2C2JbOaz,2020-0188,2021-09-26,11:25:10,12:33:37,NA,incomplete,false,NA,true,8,23,NA,NA,left,NA,NA,a_2_028.jpg,o_c_022.jpg,between-big,NA,NaN,NA,left,926.5,1,1,1027.1000000238419
2C2JbOaz,NA,NA,2C2JbOaz,2020-0188,2021-09-26,11:25:10,12:33:37,NA,incomplete,false,NA,true,8,24,NA,NA,left,NA,NA,c_1_005.jpg,a_2_001.jpg,between-small,NA,NaN,NA,left,2547.1999999284744,1,1,2182.7000000476837
2C2JbOaz,NA,NA,2C2JbOaz,2020-0188,2021-09-26,11:25:10,12:33:37,NA,incomplete,false,NA,true,8,25,NA,NA,right,NA,NA,o_s_024.jpg,i_s_028.jpg,within,NA,NaN,NA,left,5728.299999952316,0,1,2079.7000000476837
2C2JbOaz,NA,NA,2C2JbOaz,2020-0188,2021-09-26,11:25:10,12:33:37,NA,incomplete,false,NA,true,8,26,NA,NA,right,NA,NA,n_l_002.jpg,m_s_010.jpg,within,NA,NaN,NA,right,3295,1,0,1768
2C2JbOaz,NA,NA,2C2JbOaz,2020-0188,2021-09-26,11:25:10,12:33:37,NA,incomplete,false,true,NA,9,0,building,i_s_025.jpg,right,cottage,skyscraper,NA,NA,NA,right,1924.60000002384,true,NA,NA,NA,NA,NA
