workerId,hitId,assignmentId,subject,studyid,exp_date,exp_start,exp_end,time_start,time_end,practice,encoding,memory,block,trial,event,stim,answer,label_left,label_right,left_image,right_image,condition,response,response_time,response_acc,order_response,order_response_time,order_acc,distance_response,distance_response_time
61mwLWHX,NA,NA,61mwLWHX,2020-0188,2021-09-26,16:23:39,17:31:52,NA,incomplete,true,true,NA,0,0,abstractness,a_1_023.jpg,right,concrete,abstract,NA,NA,NA,right,2916,true,NA,NA,NA,NA,NA
61mwLWHX,NA,NA,61mwLWHX,2020-0188,2021-09-26,16:23:39,17:31:52,NA,incomplete,true,true,NA,0,1,abstractness,c_1_007.jpg,right,abstract,concrete,NA,NA,NA,right,2190,true,NA,NA,NA,NA,NA
61mwLWHX,NA,NA,61mwLWHX,2020-0188,2021-09-26,16:23:39,17:31:52,NA,incomplete,true,true,NA,0,2,abstractness,a_2_011.jpg,right,concrete,abstract,NA,NA,NA,right,1616,true,NA,NA,NA,NA,NA
61mwLWHX,NA,NA,61mwLWHX,2020-0188,2021-09-26,16:23:39,17:31:52,NA,incomplete,true,true,NA,0,3,abstractness,c_2_027.jpg,right,abstract,concrete,NA,NA,NA,right,1212,true,NA,NA,NA,NA,NA
61mwLWHX,NA,NA,61mwLWHX,2020-0188,2021-09-26,16:23:39,17:31:52,NA,incomplete,true,true,NA,0,4,abstractness,a_1_025.jpg,right,concrete,abstract,NA,NA,NA,right,2309,true,NA,NA,NA,NA,NA
61mwLWHX,NA,NA,61mwLWHX,2020-0188,2021-09-26,16:23:39,17:31:52,NA,incomplete,true,true,NA,0,5,syllable,c_1_020.jpg,right,1 syllable,2 syllables,NA,NA,NA,left,1915,false,NA,NA,NA,NA,NA
61mwLWHX,NA,NA,61mwLWHX,2020-0188,2021-09-26,16:23:39,17:31:52,NA,incomplete,true,true,NA,0,6,syllable,a_1_020.jpg,right,1 syllable,2 syllables,NA,NA,NA,left,1465,false,NA,NA,NA,NA,NA
61mwLWHX,NA,NA,61mwLWHX,2020-0188,2021-09-26,16:23:39,17:31:52,NA,incomplete,true,true,NA,0,7,syllable,a_1_005.jpg,right,2 syllables,1 syllable,NA,NA,NA,right,1134,true,NA,NA,NA,NA,NA
61mwLWHX,NA,NA,61mwLWHX,2020-0188,2021-09-26,16:23:39,17:31:52,NA,incomplete,true,true,NA,0,8,syllable,c_1_015.jpg,right,1 syllable,2 syllables,NA,NA,NA,left,1236.00000000001,false,NA,NA,NA,NA,NA
61mwLWHX,NA,NA,61mwLWHX,2020-0188,2021-09-26,16:23:39,17:31:52,NA,incomplete,true,true,NA,0,9,syllable,c_1_001.jpg,right,2 syllables,1 syllable,NA,NA,NA,right,1282.99999999999,true,NA,NA,NA,NA,NA
61mwLWHX,NA,NA,61mwLWHX,2020-0188,2021-09-26,16:23:39,17:31:52,NA,incomplete,true,true,NA,0,10,size,n_l_010.jpg,right,small,large,NA,NA,NA,right,1153,true,NA,NA,NA,NA,NA
61mwLWHX,NA,NA,61mwLWHX,2020-0188,2021-09-26,16:23:39,17:31:52,NA,incomplete,true,true,NA,0,11,size,m_s_014.jpg,left,small,large,NA,NA,NA,left,1250,true,NA,NA,NA,NA,NA
61mwLWHX,NA,NA,61mwLWHX,2020-0188,2021-09-26,16:23:39,17:31:52,NA,incomplete,true,true,NA,0,12,size,n_l_006.jpg,left,large,small,NA,NA,NA,left,1694,true,NA,NA,NA,NA,NA
61mwLWHX,NA,NA,61mwLWHX,2020-0188,2021-09-26,16:23:39,17:31:52,NA,incomplete,true,true,NA,0,13,size,m_l_005.jpg,right,small,large,NA,NA,NA,left,1846,false,NA,NA,NA,NA,NA
61mwLWHX,NA,NA,61mwLWHX,2020-0188,2021-09-26,16:23:39,17:31:52,NA,incomplete,true,true,NA,0,14,size,m_l_027.jpg,left,large,small,NA,NA,NA,left,1169,true,NA,NA,NA,NA,NA
61mwLWHX,NA,NA,61mwLWHX,2020-0188,2021-09-26,16:23:39,17:31:52,NA,incomplete,true,true,NA,0,15,origin,n_s_028.jpg,right,manmade,natural,NA,NA,NA,none,0,false,NA,NA,NA,NA,NA
61mwLWHX,NA,NA,61mwLWHX,2020-0188,2021-09-26,16:23:39,17:31:52,NA,incomplete,true,true,NA,0,16,origin,m_l_010.jpg,left,manmade,natural,NA,NA,NA,left,2014,true,NA,NA,NA,NA,NA
61mwLWHX,NA,NA,61mwLWHX,2020-0188,2021-09-26,16:23:39,17:31:52,NA,incomplete,true,true,NA,0,17,origin,n_s_002.jpg,right,manmade,natural,NA,NA,NA,right,1868,true,NA,NA,NA,NA,NA
61mwLWHX,NA,NA,61mwLWHX,2020-0188,2021-09-26,16:23:39,17:31:52,NA,incomplete,true,true,NA,0,18,origin,n_s_011.jpg,right,manmade,natural,NA,NA,NA,right,1209,true,NA,NA,NA,NA,NA
61mwLWHX,NA,NA,61mwLWHX,2020-0188,2021-09-26,16:23:39,17:31:52,NA,incomplete,true,true,NA,0,19,origin,n_l_014.jpg,right,manmade,natural,NA,NA,NA,right,1674,true,NA,NA,NA,NA,NA
61mwLWHX,NA,NA,61mwLWHX,2020-0188,2021-09-26,16:23:39,17:31:52,NA,incomplete,true,true,NA,0,20,building,o_c_005.jpg,left,cottage,skyscraper,NA,NA,NA,left,1315,true,NA,NA,NA,NA,NA
61mwLWHX,NA,NA,61mwLWHX,2020-0188,2021-09-26,16:23:39,17:31:52,NA,incomplete,true,true,NA,0,21,building,i_s_005.jpg,left,skyscraper,cottage,NA,NA,NA,left,1940.99999999999,true,NA,NA,NA,NA,NA
61mwLWHX,NA,NA,61mwLWHX,2020-0188,2021-09-26,16:23:39,17:31:52,NA,incomplete,true,true,NA,0,22,building,i_s_013.jpg,left,skyscraper,cottage,NA,NA,NA,left,1081.00000000001,true,NA,NA,NA,NA,NA
61mwLWHX,NA,NA,61mwLWHX,2020-0188,2021-09-26,16:23:39,17:31:52,NA,incomplete,true,true,NA,0,23,building,i_c_018.jpg,left,cottage,skyscraper,NA,NA,NA,left,1226.99999999999,true,NA,NA,NA,NA,NA
61mwLWHX,NA,NA,61mwLWHX,2020-0188,2021-09-26,16:23:39,17:31:52,NA,incomplete,true,true,NA,0,24,building,o_c_019.jpg,right,skyscraper,cottage,NA,NA,NA,right,1060,true,NA,NA,NA,NA,NA
61mwLWHX,NA,NA,61mwLWHX,2020-0188,2021-09-26,16:23:39,17:31:52,NA,incomplete,true,true,NA,0,25,location,o_s_023.jpg,right,indoor,outdoor,NA,NA,NA,right,1346,true,NA,NA,NA,NA,NA
61mwLWHX,NA,NA,61mwLWHX,2020-0188,2021-09-26,16:23:39,17:31:52,NA,incomplete,true,true,NA,0,26,location,o_c_016.jpg,right,indoor,outdoor,NA,NA,NA,right,1535,true,NA,NA,NA,NA,NA
61mwLWHX,NA,NA,61mwLWHX,2020-0188,2021-09-26,16:23:39,17:31:52,NA,incomplete,true,true,NA,0,27,location,o_s_012.jpg,right,indoor,outdoor,NA,NA,NA,right,1770.99999999997,true,NA,NA,NA,NA,NA
61mwLWHX,NA,NA,61mwLWHX,2020-0188,2021-09-26,16:23:39,17:31:52,NA,incomplete,true,true,NA,0,28,location,o_c_002.jpg,right,indoor,outdoor,NA,NA,NA,right,1135.99999999997,true,NA,NA,NA,NA,NA
61mwLWHX,NA,NA,61mwLWHX,2020-0188,2021-09-26,16:23:39,17:31:52,NA,incomplete,true,true,NA,0,29,location,o_s_014.jpg,left,outdoor,indoor,NA,NA,NA,left,1024,true,NA,NA,NA,NA,NA
61mwLWHX,NA,NA,61mwLWHX,2020-0188,2021-09-26,16:23:39,17:31:52,NA,incomplete,true,NA,true,0,0,NA,NA,left,NA,NA,m_s_014.jpg,m_l_027.jpg,within,NA,NaN,NA,right,4525,0,1,4583
61mwLWHX,NA,NA,61mwLWHX,2020-0188,2021-09-26,16:23:39,17:31:52,NA,incomplete,true,NA,true,0,1,NA,NA,left,NA,NA,n_l_006.jpg,n_s_028.jpg,between-small,NA,NaN,NA,left,3020.000000000029,1,2,3780
61mwLWHX,NA,NA,61mwLWHX,2020-0188,2021-09-26,16:23:39,17:31:52,NA,incomplete,true,NA,true,0,2,NA,NA,left,NA,NA,m_l_010.jpg,n_l_014.jpg,within,NA,NaN,NA,left,3182,1,2,3172
61mwLWHX,NA,NA,61mwLWHX,2020-0188,2021-09-26,16:23:39,17:31:52,NA,incomplete,true,NA,true,0,3,NA,NA,left,NA,NA,c_2_027.jpg,a_1_020.jpg,between-small,NA,NaN,NA,right,7992,0,0,2354
61mwLWHX,NA,NA,61mwLWHX,2020-0188,2021-09-26,16:23:39,17:31:52,NA,incomplete,true,NA,true,0,4,NA,NA,left,NA,NA,c_1_020.jpg,c_1_015.jpg,within,NA,NaN,NA,right,2226,0,2,1886
61mwLWHX,NA,NA,61mwLWHX,2020-0188,2021-09-26,16:23:39,17:31:52,NA,incomplete,true,NA,true,0,5,NA,NA,left,NA,NA,n_s_011.jpg,i_s_005.jpg,between-big,NA,NaN,NA,right,4784,0,2,1125
61mwLWHX,NA,NA,61mwLWHX,2020-0188,2021-09-26,16:23:39,17:31:52,NA,incomplete,true,NA,true,0,6,NA,NA,right,NA,NA,o_c_016.jpg,i_c_018.jpg,between-small,NA,NaN,NA,right,1699.000000000029,1,3,955
61mwLWHX,NA,NA,61mwLWHX,2020-0188,2021-09-26,16:23:39,17:31:52,NA,incomplete,true,NA,true,0,7,NA,NA,left,NA,NA,n_l_010.jpg,m_l_005.jpg,within,NA,NaN,NA,left,2792,1,2,2525.000000000029
61mwLWHX,NA,NA,61mwLWHX,2020-0188,2021-09-26,16:23:39,17:31:52,NA,incomplete,true,NA,true,0,8,NA,NA,right,NA,NA,c_2_027.jpg,a_1_023.jpg,within,NA,NaN,NA,right,2274,1,2,3286
61mwLWHX,NA,NA,61mwLWHX,2020-0188,2021-09-26,16:23:39,17:31:52,NA,incomplete,true,NA,true,0,9,NA,NA,right,NA,NA,n_l_006.jpg,c_1_001.jpg,between-big,NA,NaN,NA,right,36606,1,1,1246.9999999999418
61mwLWHX,NA,NA,61mwLWHX,2020-0188,2021-09-26,16:23:39,17:31:52,NA,incomplete,true,NA,true,0,10,NA,NA,right,NA,NA,n_l_010.jpg,a_1_005.jpg,between-big,NA,NaN,NA,right,3822,1,2,1642
61mwLWHX,NA,NA,61mwLWHX,2020-0188,2021-09-26,16:23:39,17:31:52,NA,incomplete,true,NA,true,0,11,NA,NA,right,NA,NA,n_s_011.jpg,n_s_028.jpg,within,NA,NaN,NA,left,2614,0,2,1432
61mwLWHX,NA,NA,61mwLWHX,2020-0188,2021-09-26,16:23:39,17:31:52,NA,incomplete,true,NA,true,0,12,NA,NA,right,NA,NA,o_s_014.jpg,o_c_016.jpg,within,NA,NaN,NA,right,3189,1,2,986
61mwLWHX,NA,NA,61mwLWHX,2020-0188,2021-09-26,16:23:39,17:31:52,NA,incomplete,true,NA,true,0,13,NA,NA,left,NA,NA,i_s_013.jpg,o_s_023.jpg,between-small,NA,NaN,NA,right,1416,0,2,1149
61mwLWHX,NA,NA,61mwLWHX,2020-0188,2021-09-26,16:23:39,17:31:52,NA,incomplete,true,NA,true,0,14,NA,NA,left,NA,NA,a_2_011.jpg,c_1_020.jpg,between-small,NA,NaN,NA,left,6858,1,1,2073
61mwLWHX,NA,NA,61mwLWHX,2020-0188,2021-09-26,16:23:39,17:31:52,NA,incomplete,true,NA,true,0,15,NA,NA,right,NA,NA,n_s_002.jpg,m_l_027.jpg,between-small,NA,NaN,NA,right,2186,1,2,1797
61mwLWHX,NA,NA,61mwLWHX,2020-0188,2021-09-26,16:23:39,17:31:52,NA,incomplete,true,NA,true,0,16,NA,NA,left,NA,NA,a_1_020.jpg,c_1_001.jpg,within,NA,NaN,NA,right,2436.999999999942,0,1,2679
61mwLWHX,NA,NA,61mwLWHX,2020-0188,2021-09-26,16:23:39,17:31:52,NA,incomplete,true,NA,true,0,17,NA,NA,left,NA,NA,n_l_014.jpg,i_s_013.jpg,between-big,NA,NaN,NA,left,3854,1,2,1481
61mwLWHX,NA,NA,61mwLWHX,2020-0188,2021-09-26,16:23:39,17:31:52,NA,incomplete,true,NA,true,0,18,NA,NA,right,NA,NA,a_1_005.jpg,a_1_025.jpg,between-small,NA,NaN,NA,left,1011,0,1,3715
61mwLWHX,NA,NA,61mwLWHX,2020-0188,2021-09-26,16:23:39,17:31:52,NA,incomplete,true,NA,true,0,19,NA,NA,right,NA,NA,m_s_014.jpg,c_1_015.jpg,between-big,NA,NaN,NA,right,3181,1,2,1360
61mwLWHX,NA,NA,61mwLWHX,2020-0188,2021-09-26,16:23:39,17:31:52,NA,incomplete,true,NA,true,0,20,NA,NA,right,NA,NA,o_s_012.jpg,o_c_019.jpg,between-small,NA,NaN,NA,right,1465,1,2,1360
61mwLWHX,NA,NA,61mwLWHX,2020-0188,2021-09-26,16:23:39,17:31:52,NA,incomplete,true,NA,true,0,21,NA,NA,right,NA,NA,o_c_002.jpg,o_s_023.jpg,within,NA,NaN,NA,right,4483.999999999942,1,2,1392
61mwLWHX,NA,NA,61mwLWHX,2020-0188,2021-09-26,16:23:39,17:31:52,NA,incomplete,true,NA,true,0,22,NA,NA,left,NA,NA,o_c_005.jpg,i_c_018.jpg,within,NA,NaN,NA,right,2452.999999999942,0,2,2178
61mwLWHX,NA,NA,61mwLWHX,2020-0188,2021-09-26,16:23:39,17:31:52,NA,incomplete,true,NA,true,0,23,NA,NA,right,NA,NA,o_c_019.jpg,i_s_005.jpg,within,NA,NaN,NA,right,2864,1,2,1295
61mwLWHX,NA,NA,61mwLWHX,2020-0188,2021-09-26,16:23:39,17:31:52,NA,incomplete,true,NA,true,0,24,NA,NA,left,NA,NA,m_l_005.jpg,m_l_010.jpg,between-small,NA,NaN,NA,left,2850,1,2,1094.0000000000582
61mwLWHX,NA,NA,61mwLWHX,2020-0188,2021-09-26,16:23:39,17:31:52,NA,incomplete,true,NA,true,0,25,NA,NA,right,NA,NA,a_1_025.jpg,c_1_007.jpg,within,NA,NaN,NA,left,1829,0,1,2663
61mwLWHX,NA,NA,61mwLWHX,2020-0188,2021-09-26,16:23:39,17:31:52,NA,incomplete,true,NA,true,0,26,NA,NA,left,NA,NA,n_s_002.jpg,o_c_005.jpg,between-big,NA,NaN,NA,left,1295,1,1,1636
61mwLWHX,NA,NA,61mwLWHX,2020-0188,2021-09-26,16:23:39,17:31:52,NA,incomplete,false,true,NA,1,0,syllable,a_2_027.jpg,right,1 syllable,2 syllables,NA,NA,NA,right,2243,true,NA,NA,NA,NA,NA
61mwLWHX,NA,NA,61mwLWHX,2020-0188,2021-09-26,16:23:39,17:31:52,NA,incomplete,false,true,NA,1,1,syllable,c_1_011.jpg,right,1 syllable,2 syllables,NA,NA,NA,left,1620,false,NA,NA,NA,NA,NA
61mwLWHX,NA,NA,61mwLWHX,2020-0188,2021-09-26,16:23:39,17:31:52,NA,incomplete,false,true,NA,1,2,syllable,c_2_017.jpg,right,1 syllable,2 syllables,NA,NA,NA,right,1365.99999999994,true,NA,NA,NA,NA,NA
61mwLWHX,NA,NA,61mwLWHX,2020-0188,2021-09-26,16:23:39,17:31:52,NA,incomplete,false,true,NA,1,3,syllable,a_1_010.jpg,right,1 syllable,2 syllables,NA,NA,NA,left,1001,false,NA,NA,NA,NA,NA
61mwLWHX,NA,NA,61mwLWHX,2020-0188,2021-09-26,16:23:39,17:31:52,NA,incomplete,false,true,NA,1,4,syllable,c_2_019.jpg,right,1 syllable,2 syllables,NA,NA,NA,right,1251.00000000006,true,NA,NA,NA,NA,NA
61mwLWHX,NA,NA,61mwLWHX,2020-0188,2021-09-26,16:23:39,17:31:52,NA,incomplete,false,true,NA,1,5,abstractness,c_1_013.jpg,right,abstract,concrete,NA,NA,NA,left,1536,false,NA,NA,NA,NA,NA
61mwLWHX,NA,NA,61mwLWHX,2020-0188,2021-09-26,16:23:39,17:31:52,NA,incomplete,false,true,NA,1,6,abstractness,a_2_016.jpg,left,abstract,concrete,NA,NA,NA,left,1455,true,NA,NA,NA,NA,NA
61mwLWHX,NA,NA,61mwLWHX,2020-0188,2021-09-26,16:23:39,17:31:52,NA,incomplete,false,true,NA,1,7,abstractness,a_1_008.jpg,right,concrete,abstract,NA,NA,NA,right,1615.00000000006,true,NA,NA,NA,NA,NA
61mwLWHX,NA,NA,61mwLWHX,2020-0188,2021-09-26,16:23:39,17:31:52,NA,incomplete,false,true,NA,1,8,abstractness,c_2_003.jpg,left,concrete,abstract,NA,NA,NA,left,1209,true,NA,NA,NA,NA,NA
61mwLWHX,NA,NA,61mwLWHX,2020-0188,2021-09-26,16:23:39,17:31:52,NA,incomplete,false,true,NA,1,9,abstractness,a_2_009.jpg,left,abstract,concrete,NA,NA,NA,left,2439,true,NA,NA,NA,NA,NA
61mwLWHX,NA,NA,61mwLWHX,2020-0188,2021-09-26,16:23:39,17:31:52,NA,incomplete,false,true,NA,1,10,location,i_c_003.jpg,right,outdoor,indoor,NA,NA,NA,right,1852,true,NA,NA,NA,NA,NA
61mwLWHX,NA,NA,61mwLWHX,2020-0188,2021-09-26,16:23:39,17:31:52,NA,incomplete,false,true,NA,1,11,location,i_s_016.jpg,left,indoor,outdoor,NA,NA,NA,left,1149,true,NA,NA,NA,NA,NA
61mwLWHX,NA,NA,61mwLWHX,2020-0188,2021-09-26,16:23:39,17:31:52,NA,incomplete,false,true,NA,1,12,location,o_s_004.jpg,right,indoor,outdoor,NA,NA,NA,left,1086.99999999994,false,NA,NA,NA,NA,NA
61mwLWHX,NA,NA,61mwLWHX,2020-0188,2021-09-26,16:23:39,17:31:52,NA,incomplete,false,true,NA,1,13,location,i_s_020.jpg,left,indoor,outdoor,NA,NA,NA,left,1263.00000000006,true,NA,NA,NA,NA,NA
61mwLWHX,NA,NA,61mwLWHX,2020-0188,2021-09-26,16:23:39,17:31:52,NA,incomplete,false,true,NA,1,14,location,i_c_027.jpg,right,outdoor,indoor,NA,NA,NA,right,2142,true,NA,NA,NA,NA,NA
61mwLWHX,NA,NA,61mwLWHX,2020-0188,2021-09-26,16:23:39,17:31:52,NA,incomplete,false,true,NA,1,15,building,o_s_024.jpg,left,skyscraper,cottage,NA,NA,NA,left,2623,true,NA,NA,NA,NA,NA
61mwLWHX,NA,NA,61mwLWHX,2020-0188,2021-09-26,16:23:39,17:31:52,NA,incomplete,false,true,NA,1,16,building,i_c_002.jpg,left,cottage,skyscraper,NA,NA,NA,right,998.000000000116,false,NA,NA,NA,NA,NA
61mwLWHX,NA,NA,61mwLWHX,2020-0188,2021-09-26,16:23:39,17:31:52,NA,incomplete,false,true,NA,1,17,building,o_c_010.jpg,right,skyscraper,cottage,NA,NA,NA,right,890.000000000116,true,NA,NA,NA,NA,NA
61mwLWHX,NA,NA,61mwLWHX,2020-0188,2021-09-26,16:23:39,17:31:52,NA,incomplete,false,true,NA,1,18,building,i_s_004.jpg,right,cottage,skyscraper,NA,NA,NA,right,1155,true,NA,NA,NA,NA,NA
61mwLWHX,NA,NA,61mwLWHX,2020-0188,2021-09-26,16:23:39,17:31:52,NA,incomplete,false,true,NA,1,19,building,i_s_014.jpg,right,cottage,skyscraper,NA,NA,NA,right,1068,true,NA,NA,NA,NA,NA
61mwLWHX,NA,NA,61mwLWHX,2020-0188,2021-09-26,16:23:39,17:31:52,NA,incomplete,false,true,NA,1,20,size,n_l_017.jpg,left,large,small,NA,NA,NA,left,1481.00000000012,true,NA,NA,NA,NA,NA
61mwLWHX,NA,NA,61mwLWHX,2020-0188,2021-09-26,16:23:39,17:31:52,NA,incomplete,false,true,NA,1,21,size,n_s_026.jpg,right,large,small,NA,NA,NA,right,1495,true,NA,NA,NA,NA,NA
61mwLWHX,NA,NA,61mwLWHX,2020-0188,2021-09-26,16:23:39,17:31:52,NA,incomplete,false,true,NA,1,22,size,n_s_004.jpg,right,large,small,NA,NA,NA,left,1525,false,NA,NA,NA,NA,NA
61mwLWHX,NA,NA,61mwLWHX,2020-0188,2021-09-26,16:23:39,17:31:52,NA,incomplete,false,true,NA,1,23,size,m_s_023.jpg,right,large,small,NA,NA,NA,right,1731.99999999988,true,NA,NA,NA,NA,NA
61mwLWHX,NA,NA,61mwLWHX,2020-0188,2021-09-26,16:23:39,17:31:52,NA,incomplete,false,true,NA,1,24,size,n_l_020.jpg,right,small,large,NA,NA,NA,right,1292,true,NA,NA,NA,NA,NA
61mwLWHX,NA,NA,61mwLWHX,2020-0188,2021-09-26,16:23:39,17:31:52,NA,incomplete,false,true,NA,1,25,origin,n_l_016.jpg,left,natural,manmade,NA,NA,NA,left,1115,true,NA,NA,NA,NA,NA
61mwLWHX,NA,NA,61mwLWHX,2020-0188,2021-09-26,16:23:39,17:31:52,NA,incomplete,false,true,NA,1,26,origin,n_s_018.jpg,right,manmade,natural,NA,NA,NA,right,1863,true,NA,NA,NA,NA,NA
61mwLWHX,NA,NA,61mwLWHX,2020-0188,2021-09-26,16:23:39,17:31:52,NA,incomplete,false,true,NA,1,27,origin,m_s_003.jpg,right,natural,manmade,NA,NA,NA,right,1435,true,NA,NA,NA,NA,NA
61mwLWHX,NA,NA,61mwLWHX,2020-0188,2021-09-26,16:23:39,17:31:52,NA,incomplete,false,true,NA,1,28,origin,m_l_014.jpg,left,manmade,natural,NA,NA,NA,left,1873,true,NA,NA,NA,NA,NA
61mwLWHX,NA,NA,61mwLWHX,2020-0188,2021-09-26,16:23:39,17:31:52,NA,incomplete,false,true,NA,1,29,origin,m_s_016.jpg,left,manmade,natural,NA,NA,NA,left,1629,true,NA,NA,NA,NA,NA
61mwLWHX,NA,NA,61mwLWHX,2020-0188,2021-09-26,16:23:39,17:31:52,NA,incomplete,false,NA,true,1,0,NA,NA,left,NA,NA,a_1_008.jpg,i_c_003.jpg,between-big,NA,NaN,NA,left,2687,1,2,1826
61mwLWHX,NA,NA,61mwLWHX,2020-0188,2021-09-26,16:23:39,17:31:52,NA,incomplete,false,NA,true,1,1,NA,NA,left,NA,NA,n_s_018.jpg,m_s_016.jpg,within,NA,NaN,NA,left,2243,1,2,1116.0000000001164
61mwLWHX,NA,NA,61mwLWHX,2020-0188,2021-09-26,16:23:39,17:31:52,NA,incomplete,false,NA,true,1,2,NA,NA,right,NA,NA,n_l_017.jpg,o_c_010.jpg,between-big,NA,NaN,NA,right,2662,1,2,3893.0000000001164
61mwLWHX,NA,NA,61mwLWHX,2020-0188,2021-09-26,16:23:39,17:31:52,NA,incomplete,false,NA,true,1,3,NA,NA,right,NA,NA,m_s_003.jpg,n_l_020.jpg,between-small,NA,NaN,NA,right,7201,1,1,1519.9999999998836
61mwLWHX,NA,NA,61mwLWHX,2020-0188,2021-09-26,16:23:39,17:31:52,NA,incomplete,false,NA,true,1,4,NA,NA,left,NA,NA,n_l_017.jpg,m_s_023.jpg,within,NA,NaN,NA,right,1966,0,1,2001
61mwLWHX,NA,NA,61mwLWHX,2020-0188,2021-09-26,16:23:39,17:31:52,NA,incomplete,false,NA,true,1,5,NA,NA,right,NA,NA,n_s_018.jpg,m_s_023.jpg,between-small,NA,NaN,NA,left,2161,0,1,1269
61mwLWHX,NA,NA,61mwLWHX,2020-0188,2021-09-26,16:23:39,17:31:52,NA,incomplete,false,NA,true,1,6,NA,NA,right,NA,NA,i_c_027.jpg,i_s_016.jpg,within,NA,NaN,NA,left,3077,0,1,3043
61mwLWHX,NA,NA,61mwLWHX,2020-0188,2021-09-26,16:23:39,17:31:52,NA,incomplete,false,NA,true,1,7,NA,NA,left,NA,NA,c_2_017.jpg,c_1_013.jpg,between-small,NA,NaN,NA,right,2775,0,1,3204.9999999998836
61mwLWHX,NA,NA,61mwLWHX,2020-0188,2021-09-26,16:23:39,17:31:52,NA,incomplete,false,NA,true,1,8,NA,NA,left,NA,NA,n_s_004.jpg,n_l_016.jpg,between-small,NA,NaN,NA,left,1255,1,0,1279
61mwLWHX,NA,NA,61mwLWHX,2020-0188,2021-09-26,16:23:39,17:31:52,NA,incomplete,false,NA,true,1,9,NA,NA,right,NA,NA,i_s_014.jpg,i_c_002.jpg,within,NA,NaN,NA,left,2048,0,1,1522.0000000001164
61mwLWHX,NA,NA,61mwLWHX,2020-0188,2021-09-26,16:23:39,17:31:52,NA,incomplete,false,NA,true,1,10,NA,NA,left,NA,NA,c_2_003.jpg,i_s_016.jpg,between-big,NA,NaN,NA,left,2970.0000000001164,1,2,1359
61mwLWHX,NA,NA,61mwLWHX,2020-0188,2021-09-26,16:23:39,17:31:52,NA,incomplete,false,NA,true,1,11,NA,NA,right,NA,NA,c_2_003.jpg,c_1_013.jpg,within,NA,NaN,NA,left,1288,0,1,2266
61mwLWHX,NA,NA,61mwLWHX,2020-0188,2021-09-26,16:23:39,17:31:52,NA,incomplete,false,NA,true,1,12,NA,NA,right,NA,NA,a_2_009.jpg,a_2_016.jpg,within,NA,NaN,NA,left,5793,0,1,3286
61mwLWHX,NA,NA,61mwLWHX,2020-0188,2021-09-26,16:23:39,17:31:52,NA,incomplete,false,NA,true,1,13,NA,NA,left,NA,NA,c_2_019.jpg,a_1_008.jpg,between-small,NA,NaN,NA,left,3764,1,1,1174
61mwLWHX,NA,NA,61mwLWHX,2020-0188,2021-09-26,16:23:39,17:31:52,NA,incomplete,false,NA,true,1,14,NA,NA,right,NA,NA,i_s_004.jpg,o_s_024.jpg,within,NA,NaN,NA,right,3520,1,1,1204.0000000001164
61mwLWHX,NA,NA,61mwLWHX,2020-0188,2021-09-26,16:23:39,17:31:52,NA,incomplete,false,NA,true,1,15,NA,NA,left,NA,NA,c_1_011.jpg,c_2_019.jpg,within,NA,NaN,NA,left,1804.9999999998836,1,1,1457
61mwLWHX,NA,NA,61mwLWHX,2020-0188,2021-09-26,16:23:39,17:31:52,NA,incomplete,false,NA,true,1,16,NA,NA,left,NA,NA,i_c_027.jpg,o_c_010.jpg,between-small,NA,NaN,NA,left,882,1,1,954.9999999998836
61mwLWHX,NA,NA,61mwLWHX,2020-0188,2021-09-26,16:23:39,17:31:52,NA,incomplete,false,NA,true,1,17,NA,NA,left,NA,NA,a_1_010.jpg,a_2_016.jpg,between-small,NA,NaN,NA,left,769,1,1,1020.0000000001164
61mwLWHX,NA,NA,61mwLWHX,2020-0188,2021-09-26,16:23:39,17:31:52,NA,incomplete,false,NA,true,1,18,NA,NA,left,NA,NA,n_l_016.jpg,m_l_014.jpg,within,NA,NaN,NA,right,1618.0000000001164,0,2,1774
61mwLWHX,NA,NA,61mwLWHX,2020-0188,2021-09-26,16:23:39,17:31:52,NA,incomplete,false,NA,true,1,19,NA,NA,right,NA,NA,n_l_020.jpg,n_s_026.jpg,within,NA,NaN,NA,left,1117,0,0,1061
61mwLWHX,NA,NA,61mwLWHX,2020-0188,2021-09-26,16:23:39,17:31:52,NA,incomplete,false,NA,true,1,20,NA,NA,right,NA,NA,o_s_004.jpg,a_2_009.jpg,between-big,NA,NaN,NA,right,1773,1,1,1958.0000000001164
61mwLWHX,NA,NA,61mwLWHX,2020-0188,2021-09-26,16:23:39,17:31:52,NA,incomplete,false,NA,true,1,21,NA,NA,right,NA,NA,a_1_010.jpg,a_2_027.jpg,within,NA,NaN,NA,left,1150,0,1,1674
61mwLWHX,NA,NA,61mwLWHX,2020-0188,2021-09-26,16:23:39,17:31:52,NA,incomplete,false,NA,true,1,22,NA,NA,left,NA,NA,i_s_014.jpg,n_s_004.jpg,between-big,NA,NaN,NA,left,970,1,2,2922
61mwLWHX,NA,NA,61mwLWHX,2020-0188,2021-09-26,16:23:39,17:31:52,NA,incomplete,false,NA,true,1,23,NA,NA,left,NA,NA,i_s_020.jpg,i_c_002.jpg,between-small,NA,NaN,NA,left,3642,1,2,1562
61mwLWHX,NA,NA,61mwLWHX,2020-0188,2021-09-26,16:23:39,17:31:52,NA,incomplete,false,NA,true,1,24,NA,NA,right,NA,NA,o_s_024.jpg,o_s_004.jpg,between-small,NA,NaN,NA,left,1181,0,2,1723
61mwLWHX,NA,NA,61mwLWHX,2020-0188,2021-09-26,16:23:39,17:31:52,NA,incomplete,false,NA,true,1,25,NA,NA,right,NA,NA,n_s_026.jpg,i_s_004.jpg,between-big,NA,NaN,NA,left,923.9999999998836,0,2,3587
61mwLWHX,NA,NA,61mwLWHX,2020-0188,2021-09-26,16:23:39,17:31:52,NA,incomplete,false,NA,true,1,26,NA,NA,left,NA,NA,i_c_003.jpg,i_s_020.jpg,within,NA,NaN,NA,right,5575,0,1,2081
61mwLWHX,NA,NA,61mwLWHX,2020-0188,2021-09-26,16:23:39,17:31:52,NA,incomplete,false,true,NA,2,0,building,o_c_001.jpg,left,cottage,skyscraper,NA,NA,NA,left,1877,true,NA,NA,NA,NA,NA
61mwLWHX,NA,NA,61mwLWHX,2020-0188,2021-09-26,16:23:39,17:31:52,NA,incomplete,false,true,NA,2,1,building,i_c_016.jpg,left,cottage,skyscraper,NA,NA,NA,left,1570,true,NA,NA,NA,NA,NA
61mwLWHX,NA,NA,61mwLWHX,2020-0188,2021-09-26,16:23:39,17:31:52,NA,incomplete,false,true,NA,2,2,building,i_s_026.jpg,left,skyscraper,cottage,NA,NA,NA,left,2262,true,NA,NA,NA,NA,NA
61mwLWHX,NA,NA,61mwLWHX,2020-0188,2021-09-26,16:23:39,17:31:52,NA,incomplete,false,true,NA,2,3,building,o_s_018.jpg,right,cottage,skyscraper,NA,NA,NA,left,1340.00000000012,false,NA,NA,NA,NA,NA
61mwLWHX,NA,NA,61mwLWHX,2020-0188,2021-09-26,16:23:39,17:31:52,NA,incomplete,false,true,NA,2,4,building,o_s_001.jpg,right,cottage,skyscraper,NA,NA,NA,left,1326,false,NA,NA,NA,NA,NA
61mwLWHX,NA,NA,61mwLWHX,2020-0188,2021-09-26,16:23:39,17:31:52,NA,incomplete,false,true,NA,2,5,location,o_s_017.jpg,right,indoor,outdoor,NA,NA,NA,right,1423,true,NA,NA,NA,NA,NA
61mwLWHX,NA,NA,61mwLWHX,2020-0188,2021-09-26,16:23:39,17:31:52,NA,incomplete,false,true,NA,2,6,location,i_s_022.jpg,left,indoor,outdoor,NA,NA,NA,left,1484.00000000012,true,NA,NA,NA,NA,NA
61mwLWHX,NA,NA,61mwLWHX,2020-0188,2021-09-26,16:23:39,17:31:52,NA,incomplete,false,true,NA,2,7,location,o_c_024.jpg,right,indoor,outdoor,NA,NA,NA,right,2642,true,NA,NA,NA,NA,NA
61mwLWHX,NA,NA,61mwLWHX,2020-0188,2021-09-26,16:23:39,17:31:52,NA,incomplete,false,true,NA,2,8,location,o_c_006.jpg,right,indoor,outdoor,NA,NA,NA,right,1032,true,NA,NA,NA,NA,NA
61mwLWHX,NA,NA,61mwLWHX,2020-0188,2021-09-26,16:23:39,17:31:52,NA,incomplete,false,true,NA,2,9,location,i_s_027.jpg,left,indoor,outdoor,NA,NA,NA,left,2107,true,NA,NA,NA,NA,NA
61mwLWHX,NA,NA,61mwLWHX,2020-0188,2021-09-26,16:23:39,17:31:52,NA,incomplete,false,true,NA,2,10,origin,m_l_007.jpg,right,natural,manmade,NA,NA,NA,right,1259,true,NA,NA,NA,NA,NA
61mwLWHX,NA,NA,61mwLWHX,2020-0188,2021-09-26,16:23:39,17:31:52,NA,incomplete,false,true,NA,2,11,origin,m_l_011.jpg,right,natural,manmade,NA,NA,NA,right,786,true,NA,NA,NA,NA,NA
61mwLWHX,NA,NA,61mwLWHX,2020-0188,2021-09-26,16:23:39,17:31:52,NA,incomplete,false,true,NA,2,12,origin,m_s_025.jpg,left,manmade,natural,NA,NA,NA,left,1736,true,NA,NA,NA,NA,NA
61mwLWHX,NA,NA,61mwLWHX,2020-0188,2021-09-26,16:23:39,17:31:52,NA,incomplete,false,true,NA,2,13,origin,n_s_010.jpg,right,manmade,natural,NA,NA,NA,right,2054.99999999988,true,NA,NA,NA,NA,NA
61mwLWHX,NA,NA,61mwLWHX,2020-0188,2021-09-26,16:23:39,17:31:52,NA,incomplete,false,true,NA,2,14,origin,m_l_016.jpg,left,manmade,natural,NA,NA,NA,left,1135,true,NA,NA,NA,NA,NA
61mwLWHX,NA,NA,61mwLWHX,2020-0188,2021-09-26,16:23:39,17:31:52,NA,incomplete,false,true,NA,2,15,size,n_s_016.jpg,right,large,small,NA,NA,NA,right,2025,true,NA,NA,NA,NA,NA
61mwLWHX,NA,NA,61mwLWHX,2020-0188,2021-09-26,16:23:39,17:31:52,NA,incomplete,false,true,NA,2,16,size,m_s_002.jpg,right,large,small,NA,NA,NA,right,1901,true,NA,NA,NA,NA,NA
61mwLWHX,NA,NA,61mwLWHX,2020-0188,2021-09-26,16:23:39,17:31:52,NA,incomplete,false,true,NA,2,17,size,n_s_027.jpg,left,small,large,NA,NA,NA,right,2720,false,NA,NA,NA,NA,NA
61mwLWHX,NA,NA,61mwLWHX,2020-0188,2021-09-26,16:23:39,17:31:52,NA,incomplete,false,true,NA,2,18,size,n_s_003.jpg,left,small,large,NA,NA,NA,left,1316,true,NA,NA,NA,NA,NA
61mwLWHX,NA,NA,61mwLWHX,2020-0188,2021-09-26,16:23:39,17:31:52,NA,incomplete,false,true,NA,2,19,size,m_s_026.jpg,left,small,large,NA,NA,NA,left,2225,true,NA,NA,NA,NA,NA
61mwLWHX,NA,NA,61mwLWHX,2020-0188,2021-09-26,16:23:39,17:31:52,NA,incomplete,false,true,NA,2,20,abstractness,a_2_010.jpg,right,concrete,abstract,NA,NA,NA,right,1400,true,NA,NA,NA,NA,NA
61mwLWHX,NA,NA,61mwLWHX,2020-0188,2021-09-26,16:23:39,17:31:52,NA,incomplete,false,true,NA,2,21,abstractness,c_1_010.jpg,left,concrete,abstract,NA,NA,NA,left,2329,true,NA,NA,NA,NA,NA
61mwLWHX,NA,NA,61mwLWHX,2020-0188,2021-09-26,16:23:39,17:31:52,NA,incomplete,false,true,NA,2,22,abstractness,c_2_028.jpg,left,concrete,abstract,NA,NA,NA,left,2505,true,NA,NA,NA,NA,NA
61mwLWHX,NA,NA,61mwLWHX,2020-0188,2021-09-26,16:23:39,17:31:52,NA,incomplete,false,true,NA,2,23,abstractness,c_1_019.jpg,left,concrete,abstract,NA,NA,NA,left,1672,true,NA,NA,NA,NA,NA
61mwLWHX,NA,NA,61mwLWHX,2020-0188,2021-09-26,16:23:39,17:31:52,NA,incomplete,false,true,NA,2,24,abstractness,c_1_025.jpg,right,abstract,concrete,NA,NA,NA,right,1954,true,NA,NA,NA,NA,NA
61mwLWHX,NA,NA,61mwLWHX,2020-0188,2021-09-26,16:23:39,17:31:52,NA,incomplete,false,true,NA,2,25,syllable,a_2_003.jpg,right,2 syllables,1 syllable,NA,NA,NA,left,2323,false,NA,NA,NA,NA,NA
61mwLWHX,NA,NA,61mwLWHX,2020-0188,2021-09-26,16:23:39,17:31:52,NA,incomplete,false,true,NA,2,26,syllable,c_2_010.jpg,right,2 syllables,1 syllable,NA,NA,NA,left,1392.00000000012,false,NA,NA,NA,NA,NA
61mwLWHX,NA,NA,61mwLWHX,2020-0188,2021-09-26,16:23:39,17:31:52,NA,incomplete,false,true,NA,2,27,syllable,a_1_017.jpg,right,2 syllables,1 syllable,NA,NA,NA,right,1865,true,NA,NA,NA,NA,NA
61mwLWHX,NA,NA,61mwLWHX,2020-0188,2021-09-26,16:23:39,17:31:52,NA,incomplete,false,true,NA,2,28,syllable,a_1_004.jpg,right,1 syllable,2 syllables,NA,NA,NA,left,2209,false,NA,NA,NA,NA,NA
61mwLWHX,NA,NA,61mwLWHX,2020-0188,2021-09-26,16:23:39,17:31:52,NA,incomplete,false,true,NA,2,29,syllable,a_2_002.jpg,right,2 syllables,1 syllable,NA,NA,NA,right,1812,true,NA,NA,NA,NA,NA
61mwLWHX,NA,NA,61mwLWHX,2020-0188,2021-09-26,16:23:39,17:31:52,NA,incomplete,false,NA,true,2,0,NA,NA,right,NA,NA,c_1_010.jpg,n_s_003.jpg,between-big,NA,NaN,NA,right,2015,1,2,2023
61mwLWHX,NA,NA,61mwLWHX,2020-0188,2021-09-26,16:23:39,17:31:52,NA,incomplete,false,NA,true,2,1,NA,NA,right,NA,NA,m_l_016.jpg,m_l_011.jpg,within,NA,NaN,NA,left,3277,0,1,1125
61mwLWHX,NA,NA,61mwLWHX,2020-0188,2021-09-26,16:23:39,17:31:52,NA,incomplete,false,NA,true,2,2,NA,NA,left,NA,NA,c_1_019.jpg,c_2_010.jpg,between-small,NA,NaN,NA,left,3918,1,1,954
61mwLWHX,NA,NA,61mwLWHX,2020-0188,2021-09-26,16:23:39,17:31:52,NA,incomplete,false,NA,true,2,3,NA,NA,right,NA,NA,a_2_003.jpg,c_2_028.jpg,between-small,NA,NaN,NA,right,1939.9999999998836,1,1,1465
61mwLWHX,NA,NA,61mwLWHX,2020-0188,2021-09-26,16:23:39,17:31:52,NA,incomplete,false,NA,true,2,4,NA,NA,right,NA,NA,m_l_011.jpg,o_c_006.jpg,between-big,NA,NaN,NA,right,5840.999999999884,1,2,817
61mwLWHX,NA,NA,61mwLWHX,2020-0188,2021-09-26,16:23:39,17:31:52,NA,incomplete,false,NA,true,2,5,NA,NA,left,NA,NA,m_s_002.jpg,m_s_026.jpg,within,NA,NaN,NA,left,2113,1,1,1336
61mwLWHX,NA,NA,61mwLWHX,2020-0188,2021-09-26,16:23:39,17:31:52,NA,incomplete,false,NA,true,2,6,NA,NA,right,NA,NA,a_2_010.jpg,n_s_027.jpg,between-big,NA,NaN,NA,right,2534.0000000001164,1,2,1958.0000000001164
61mwLWHX,NA,NA,61mwLWHX,2020-0188,2021-09-26,16:23:39,17:31:52,NA,incomplete,false,NA,true,2,7,NA,NA,right,NA,NA,c_2_028.jpg,m_s_026.jpg,between-big,NA,NaN,NA,left,5433,0,2,2088
61mwLWHX,NA,NA,61mwLWHX,2020-0188,2021-09-26,16:23:39,17:31:52,NA,incomplete,false,NA,true,2,8,NA,NA,right,NA,NA,a_1_004.jpg,a_2_003.jpg,within,NA,NaN,NA,right,3228.9999999998836,1,2,1374
61mwLWHX,NA,NA,61mwLWHX,2020-0188,2021-09-26,16:23:39,17:31:52,NA,incomplete,false,NA,true,2,9,NA,NA,left,NA,NA,o_s_018.jpg,i_s_022.jpg,between-small,NA,NaN,NA,left,3068,1,1,2081
61mwLWHX,NA,NA,61mwLWHX,2020-0188,2021-09-26,16:23:39,17:31:52,NA,incomplete,false,NA,true,2,10,NA,NA,left,NA,NA,o_s_017.jpg,o_c_006.jpg,within,NA,NaN,NA,left,1942,1,1,1272
61mwLWHX,NA,NA,61mwLWHX,2020-0188,2021-09-26,16:23:39,17:31:52,NA,incomplete,false,NA,true,2,11,NA,NA,left,NA,NA,m_l_007.jpg,n_s_010.jpg,within,NA,NaN,NA,left,898,1,1,2250
61mwLWHX,NA,NA,61mwLWHX,2020-0188,2021-09-26,16:23:39,17:31:52,NA,incomplete,false,NA,true,2,12,NA,NA,right,NA,NA,n_s_027.jpg,m_l_016.jpg,between-small,NA,NaN,NA,left,1351,0,1,1035
61mwLWHX,NA,NA,61mwLWHX,2020-0188,2021-09-26,16:23:39,17:31:52,NA,incomplete,false,NA,true,2,13,NA,NA,right,NA,NA,i_s_027.jpg,i_s_022.jpg,within,NA,NaN,NA,left,2289.999999999767,0,1,2453
61mwLWHX,NA,NA,61mwLWHX,2020-0188,2021-09-26,16:23:39,17:31:52,NA,incomplete,false,NA,true,2,14,NA,NA,left,NA,NA,o_s_001.jpg,o_c_024.jpg,between-small,NA,NaN,NA,left,2582,1,1,1633.0000000002328
61mwLWHX,NA,NA,61mwLWHX,2020-0188,2021-09-26,16:23:39,17:31:52,NA,incomplete,false,NA,true,2,15,NA,NA,right,NA,NA,n_s_003.jpg,n_s_016.jpg,within,NA,NaN,NA,right,1093,1,1,1100
61mwLWHX,NA,NA,61mwLWHX,2020-0188,2021-09-26,16:23:39,17:31:52,NA,incomplete,false,NA,true,2,16,NA,NA,left,NA,NA,i_s_026.jpg,o_s_017.jpg,between-small,NA,NaN,NA,left,1569.0000000002328,1,1,897
61mwLWHX,NA,NA,61mwLWHX,2020-0188,2021-09-26,16:23:39,17:31:52,NA,incomplete,false,NA,true,2,17,NA,NA,right,NA,NA,c_1_019.jpg,a_2_010.jpg,within,NA,NaN,NA,left,1157,0,1,1741
61mwLWHX,NA,NA,61mwLWHX,2020-0188,2021-09-26,16:23:39,17:31:52,NA,incomplete,false,NA,true,2,18,NA,NA,left,NA,NA,m_s_025.jpg,n_s_016.jpg,between-small,NA,NaN,NA,right,1020,0,1,1205.0000000002328
61mwLWHX,NA,NA,61mwLWHX,2020-0188,2021-09-26,16:23:39,17:31:52,NA,incomplete,false,NA,true,2,19,NA,NA,left,NA,NA,i_c_016.jpg,o_s_001.jpg,within,NA,NaN,NA,right,2452,0,2,3197.000000000233
61mwLWHX,NA,NA,61mwLWHX,2020-0188,2021-09-26,16:23:39,17:31:52,NA,incomplete,false,NA,true,2,20,NA,NA,left,NA,NA,c_1_010.jpg,c_1_025.jpg,within,NA,NaN,NA,right,1319,0,1,1060
61mwLWHX,NA,NA,61mwLWHX,2020-0188,2021-09-26,16:23:39,17:31:52,NA,incomplete,false,NA,true,2,21,NA,NA,right,NA,NA,a_2_002.jpg,c_2_010.jpg,within,NA,NaN,NA,right,3077.999999999767,1,2,1749
61mwLWHX,NA,NA,61mwLWHX,2020-0188,2021-09-26,16:23:39,17:31:52,NA,incomplete,false,NA,true,2,22,NA,NA,left,NA,NA,o_c_024.jpg,m_l_007.jpg,between-big,NA,NaN,NA,right,7721,0,2,1901
61mwLWHX,NA,NA,61mwLWHX,2020-0188,2021-09-26,16:23:39,17:31:52,NA,incomplete,false,NA,true,2,23,NA,NA,left,NA,NA,i_s_027.jpg,m_s_025.jpg,between-big,NA,NaN,NA,right,1537,0,2,1213
61mwLWHX,NA,NA,61mwLWHX,2020-0188,2021-09-26,16:23:39,17:31:52,NA,incomplete,false,NA,true,2,24,NA,NA,right,NA,NA,a_1_017.jpg,c_1_025.jpg,between-small,NA,NaN,NA,left,2170.000000000233,0,2,936.9999999997672
61mwLWHX,NA,NA,61mwLWHX,2020-0188,2021-09-26,16:23:39,17:31:52,NA,incomplete,false,NA,true,2,25,NA,NA,left,NA,NA,n_s_010.jpg,m_s_002.jpg,between-small,NA,NaN,NA,right,1458,0,1,2235
61mwLWHX,NA,NA,61mwLWHX,2020-0188,2021-09-26,16:23:39,17:31:52,NA,incomplete,false,NA,true,2,26,NA,NA,left,NA,NA,o_c_001.jpg,o_s_018.jpg,within,NA,NaN,NA,right,1036,0,2,1513
61mwLWHX,NA,NA,61mwLWHX,2020-0188,2021-09-26,16:23:39,17:31:52,NA,incomplete,false,true,NA,3,0,location,i_c_020.jpg,right,outdoor,indoor,NA,NA,NA,right,1648,true,NA,NA,NA,NA,NA
61mwLWHX,NA,NA,61mwLWHX,2020-0188,2021-09-26,16:23:39,17:31:52,NA,incomplete,false,true,NA,3,1,location,i_c_025.jpg,right,outdoor,indoor,NA,NA,NA,right,1116,true,NA,NA,NA,NA,NA
61mwLWHX,NA,NA,61mwLWHX,2020-0188,2021-09-26,16:23:39,17:31:52,NA,incomplete,false,true,NA,3,2,location,o_c_026.jpg,left,outdoor,indoor,NA,NA,NA,left,1156.99999999977,true,NA,NA,NA,NA,NA
61mwLWHX,NA,NA,61mwLWHX,2020-0188,2021-09-26,16:23:39,17:31:52,NA,incomplete,false,true,NA,3,3,location,o_s_021.jpg,left,outdoor,indoor,NA,NA,NA,left,2000,true,NA,NA,NA,NA,NA
61mwLWHX,NA,NA,61mwLWHX,2020-0188,2021-09-26,16:23:39,17:31:52,NA,incomplete,false,true,NA,3,4,location,i_c_023.jpg,left,indoor,outdoor,NA,NA,NA,right,1769.99999999977,false,NA,NA,NA,NA,NA
61mwLWHX,NA,NA,61mwLWHX,2020-0188,2021-09-26,16:23:39,17:31:52,NA,incomplete,false,true,NA,3,5,building,o_c_027.jpg,right,skyscraper,cottage,NA,NA,NA,right,1230,true,NA,NA,NA,NA,NA
61mwLWHX,NA,NA,61mwLWHX,2020-0188,2021-09-26,16:23:39,17:31:52,NA,incomplete,false,true,NA,3,6,building,o_s_008.jpg,left,skyscraper,cottage,NA,NA,NA,left,1284.99999999977,true,NA,NA,NA,NA,NA
61mwLWHX,NA,NA,61mwLWHX,2020-0188,2021-09-26,16:23:39,17:31:52,NA,incomplete,false,true,NA,3,7,building,o_s_006.jpg,right,cottage,skyscraper,NA,NA,NA,right,1966,true,NA,NA,NA,NA,NA
61mwLWHX,NA,NA,61mwLWHX,2020-0188,2021-09-26,16:23:39,17:31:52,NA,incomplete,false,true,NA,3,8,building,i_c_010.jpg,right,skyscraper,cottage,NA,NA,NA,right,2415,true,NA,NA,NA,NA,NA
61mwLWHX,NA,NA,61mwLWHX,2020-0188,2021-09-26,16:23:39,17:31:52,NA,incomplete,false,true,NA,3,9,building,i_s_002.jpg,left,skyscraper,cottage,NA,NA,NA,left,3364,true,NA,NA,NA,NA,NA
61mwLWHX,NA,NA,61mwLWHX,2020-0188,2021-09-26,16:23:39,17:31:52,NA,incomplete,false,true,NA,3,10,syllable,a_2_018.jpg,right,2 syllables,1 syllable,NA,NA,NA,right,1533.99999999977,true,NA,NA,NA,NA,NA
61mwLWHX,NA,NA,61mwLWHX,2020-0188,2021-09-26,16:23:39,17:31:52,NA,incomplete,false,true,NA,3,11,syllable,c_2_020.jpg,right,1 syllable,2 syllables,NA,NA,NA,right,1960,true,NA,NA,NA,NA,NA
61mwLWHX,NA,NA,61mwLWHX,2020-0188,2021-09-26,16:23:39,17:31:52,NA,incomplete,false,true,NA,3,12,syllable,c_2_014.jpg,right,2 syllables,1 syllable,NA,NA,NA,left,1966,false,NA,NA,NA,NA,NA
61mwLWHX,NA,NA,61mwLWHX,2020-0188,2021-09-26,16:23:39,17:31:52,NA,incomplete,false,true,NA,3,13,syllable,c_2_007.jpg,right,2 syllables,1 syllable,NA,NA,NA,right,2905.99999999977,true,NA,NA,NA,NA,NA
61mwLWHX,NA,NA,61mwLWHX,2020-0188,2021-09-26,16:23:39,17:31:52,NA,incomplete,false,true,NA,3,14,syllable,c_2_026.jpg,right,2 syllables,1 syllable,NA,NA,NA,left,1491,false,NA,NA,NA,NA,NA
61mwLWHX,NA,NA,61mwLWHX,2020-0188,2021-09-26,16:23:39,17:31:52,NA,incomplete,false,true,NA,3,15,abstractness,a_2_006.jpg,left,abstract,concrete,NA,NA,NA,left,3020,true,NA,NA,NA,NA,NA
61mwLWHX,NA,NA,61mwLWHX,2020-0188,2021-09-26,16:23:39,17:31:52,NA,incomplete,false,true,NA,3,16,abstractness,a_1_003.jpg,left,abstract,concrete,NA,NA,NA,left,1276,true,NA,NA,NA,NA,NA
61mwLWHX,NA,NA,61mwLWHX,2020-0188,2021-09-26,16:23:39,17:31:52,NA,incomplete,false,true,NA,3,17,abstractness,a_2_025.jpg,left,abstract,concrete,NA,NA,NA,left,3175,true,NA,NA,NA,NA,NA
61mwLWHX,NA,NA,61mwLWHX,2020-0188,2021-09-26,16:23:39,17:31:52,NA,incomplete,false,true,NA,3,18,abstractness,c_2_005.jpg,right,abstract,concrete,NA,NA,NA,right,1193,true,NA,NA,NA,NA,NA
61mwLWHX,NA,NA,61mwLWHX,2020-0188,2021-09-26,16:23:39,17:31:52,NA,incomplete,false,true,NA,3,19,abstractness,c_1_024.jpg,right,abstract,concrete,NA,NA,NA,right,1857.00000000023,true,NA,NA,NA,NA,NA
61mwLWHX,NA,NA,61mwLWHX,2020-0188,2021-09-26,16:23:39,17:31:52,NA,incomplete,false,true,NA,3,20,origin,n_s_005.jpg,right,manmade,natural,NA,NA,NA,right,1379,true,NA,NA,NA,NA,NA
61mwLWHX,NA,NA,61mwLWHX,2020-0188,2021-09-26,16:23:39,17:31:52,NA,incomplete,false,true,NA,3,21,origin,n_l_005.jpg,left,natural,manmade,NA,NA,NA,left,2381,true,NA,NA,NA,NA,NA
61mwLWHX,NA,NA,61mwLWHX,2020-0188,2021-09-26,16:23:39,17:31:52,NA,incomplete,false,true,NA,3,22,origin,m_s_018.jpg,right,natural,manmade,NA,NA,NA,right,1929,true,NA,NA,NA,NA,NA
61mwLWHX,NA,NA,61mwLWHX,2020-0188,2021-09-26,16:23:39,17:31:52,NA,incomplete,false,true,NA,3,23,origin,n_s_009.jpg,left,natural,manmade,NA,NA,NA,left,1797,true,NA,NA,NA,NA,NA
61mwLWHX,NA,NA,61mwLWHX,2020-0188,2021-09-26,16:23:39,17:31:52,NA,incomplete,false,true,NA,3,24,origin,m_l_021.jpg,right,natural,manmade,NA,NA,NA,right,2627,true,NA,NA,NA,NA,NA
61mwLWHX,NA,NA,61mwLWHX,2020-0188,2021-09-26,16:23:39,17:31:52,NA,incomplete,false,true,NA,3,25,size,m_l_023.jpg,left,large,small,NA,NA,NA,right,2048,false,NA,NA,NA,NA,NA
61mwLWHX,NA,NA,61mwLWHX,2020-0188,2021-09-26,16:23:39,17:31:52,NA,incomplete,false,true,NA,3,26,size,n_l_024.jpg,left,large,small,NA,NA,NA,left,2012,true,NA,NA,NA,NA,NA
61mwLWHX,NA,NA,61mwLWHX,2020-0188,2021-09-26,16:23:39,17:31:52,NA,incomplete,false,true,NA,3,27,size,n_s_015.jpg,right,large,small,NA,NA,NA,none,0,false,NA,NA,NA,NA,NA
61mwLWHX,NA,NA,61mwLWHX,2020-0188,2021-09-26,16:23:39,17:31:52,NA,incomplete,false,true,NA,3,28,size,n_l_009.jpg,left,large,small,NA,NA,NA,left,1982.99999999977,true,NA,NA,NA,NA,NA
61mwLWHX,NA,NA,61mwLWHX,2020-0188,2021-09-26,16:23:39,17:31:52,NA,incomplete,false,true,NA,3,29,size,n_l_022.jpg,left,large,small,NA,NA,NA,left,1498,true,NA,NA,NA,NA,NA
61mwLWHX,NA,NA,61mwLWHX,2020-0188,2021-09-26,16:23:39,17:31:52,NA,incomplete,false,NA,true,3,0,NA,NA,left,NA,NA,i_c_025.jpg,i_c_023.jpg,within,NA,NaN,NA,left,2064,1,1,1149
61mwLWHX,NA,NA,61mwLWHX,2020-0188,2021-09-26,16:23:39,17:31:52,NA,incomplete,false,NA,true,3,1,NA,NA,left,NA,NA,i_c_020.jpg,o_s_021.jpg,within,NA,NaN,NA,left,2257,1,1,1335
61mwLWHX,NA,NA,61mwLWHX,2020-0188,2021-09-26,16:23:39,17:31:52,NA,incomplete,false,NA,true,3,2,NA,NA,left,NA,NA,o_s_008.jpg,i_s_002.jpg,within,NA,NaN,NA,left,2323,1,0,2647
61mwLWHX,NA,NA,61mwLWHX,2020-0188,2021-09-26,16:23:39,17:31:52,NA,incomplete,false,NA,true,3,3,NA,NA,right,NA,NA,n_s_005.jpg,a_2_025.jpg,between-big,NA,NaN,NA,right,3595,1,2,1072
61mwLWHX,NA,NA,61mwLWHX,2020-0188,2021-09-26,16:23:39,17:31:52,NA,incomplete,false,NA,true,3,4,NA,NA,left,NA,NA,n_l_005.jpg,m_l_021.jpg,within,NA,NaN,NA,right,1570,0,2,1084
61mwLWHX,NA,NA,61mwLWHX,2020-0188,2021-09-26,16:23:39,17:31:52,NA,incomplete,false,NA,true,3,5,NA,NA,right,NA,NA,n_l_022.jpg,n_l_024.jpg,within,NA,NaN,NA,right,1115,1,2,915
61mwLWHX,NA,NA,61mwLWHX,2020-0188,2021-09-26,16:23:39,17:31:52,NA,incomplete,false,NA,true,3,6,NA,NA,right,NA,NA,o_s_006.jpg,i_c_023.jpg,between-small,NA,NaN,NA,left,1270,0,2,979
61mwLWHX,NA,NA,61mwLWHX,2020-0188,2021-09-26,16:23:39,17:31:52,NA,incomplete,false,NA,true,3,7,NA,NA,right,NA,NA,m_l_023.jpg,m_s_018.jpg,between-small,NA,NaN,NA,left,1278,0,1,1641
61mwLWHX,NA,NA,61mwLWHX,2020-0188,2021-09-26,16:23:39,17:31:52,NA,incomplete,false,NA,true,3,8,NA,NA,left,NA,NA,i_c_010.jpg,c_2_020.jpg,between-big,NA,NaN,NA,right,1845,0,1,825
61mwLWHX,NA,NA,61mwLWHX,2020-0188,2021-09-26,16:23:39,17:31:52,NA,incomplete,false,NA,true,3,9,NA,NA,left,NA,NA,o_s_021.jpg,o_s_008.jpg,between-small,NA,NaN,NA,left,3147,1,1,1441
61mwLWHX,NA,NA,61mwLWHX,2020-0188,2021-09-26,16:23:39,17:31:52,NA,incomplete,false,NA,true,3,10,NA,NA,right,NA,NA,c_2_014.jpg,i_s_002.jpg,between-big,NA,NaN,NA,left,800.9999999997672,0,1,1537
61mwLWHX,NA,NA,61mwLWHX,2020-0188,2021-09-26,16:23:39,17:31:52,NA,incomplete,false,NA,true,3,11,NA,NA,right,NA,NA,a_2_025.jpg,c_2_026.jpg,between-small,NA,NaN,NA,left,874,0,1,2168
61mwLWHX,NA,NA,61mwLWHX,2020-0188,2021-09-26,16:23:39,17:31:52,NA,incomplete,false,NA,true,3,12,NA,NA,right,NA,NA,n_l_009.jpg,m_l_023.jpg,within,NA,NaN,NA,left,1028,0,1,2079
61mwLWHX,NA,NA,61mwLWHX,2020-0188,2021-09-26,16:23:39,17:31:52,NA,incomplete,false,NA,true,3,13,NA,NA,left,NA,NA,c_2_014.jpg,a_2_006.jpg,between-small,NA,NaN,NA,right,1708,0,1,1100
61mwLWHX,NA,NA,61mwLWHX,2020-0188,2021-09-26,16:23:39,17:31:52,NA,incomplete,false,NA,true,3,14,NA,NA,right,NA,NA,c_2_005.jpg,a_2_006.jpg,within,NA,NaN,NA,right,1513,1,1,849
61mwLWHX,NA,NA,61mwLWHX,2020-0188,2021-09-26,16:23:39,17:31:52,NA,incomplete,false,NA,true,3,15,NA,NA,left,NA,NA,o_c_026.jpg,o_c_027.jpg,between-small,NA,NaN,NA,left,1488,1,1,978
61mwLWHX,NA,NA,61mwLWHX,2020-0188,2021-09-26,16:23:39,17:31:52,NA,incomplete,false,NA,true,3,16,NA,NA,right,NA,NA,a_1_003.jpg,c_2_007.jpg,between-small,NA,NaN,NA,left,1215,0,1,1449
61mwLWHX,NA,NA,61mwLWHX,2020-0188,2021-09-26,16:23:39,17:31:52,NA,incomplete,false,NA,true,3,17,NA,NA,left,NA,NA,o_c_027.jpg,i_c_010.jpg,within,NA,NaN,NA,left,1578,1,1,1344
61mwLWHX,NA,NA,61mwLWHX,2020-0188,2021-09-26,16:23:39,17:31:52,NA,incomplete,false,NA,true,3,18,NA,NA,left,NA,NA,a_1_003.jpg,c_1_024.jpg,within,NA,NaN,NA,left,898,1,1,2322.000000000233
61mwLWHX,NA,NA,61mwLWHX,2020-0188,2021-09-26,16:23:39,17:31:52,NA,incomplete,false,NA,true,3,19,NA,NA,right,NA,NA,n_s_009.jpg,n_s_005.jpg,within,NA,NaN,NA,left,1254,0,1,2080
61mwLWHX,NA,NA,61mwLWHX,2020-0188,2021-09-26,16:23:39,17:31:52,NA,incomplete,false,NA,true,3,20,NA,NA,left,NA,NA,c_2_020.jpg,c_2_026.jpg,within,NA,NaN,NA,left,883,1,0,2033
61mwLWHX,NA,NA,61mwLWHX,2020-0188,2021-09-26,16:23:39,17:31:52,NA,incomplete,false,NA,true,3,21,NA,NA,left,NA,NA,c_1_024.jpg,m_s_018.jpg,between-big,NA,NaN,NA,left,1084,1,2,1423.9999999997672
61mwLWHX,NA,NA,61mwLWHX,2020-0188,2021-09-26,16:23:39,17:31:52,NA,incomplete,false,NA,true,3,22,NA,NA,right,NA,NA,n_s_015.jpg,m_l_021.jpg,between-small,NA,NaN,NA,left,849,0,2,1383
61mwLWHX,NA,NA,61mwLWHX,2020-0188,2021-09-26,16:23:39,17:31:52,NA,incomplete,false,NA,true,3,23,NA,NA,left,NA,NA,a_2_018.jpg,c_2_007.jpg,within,NA,NaN,NA,right,2315,0,1,1238
61mwLWHX,NA,NA,61mwLWHX,2020-0188,2021-09-26,16:23:39,17:31:52,NA,incomplete,false,NA,true,3,24,NA,NA,left,NA,NA,n_s_009.jpg,n_l_024.jpg,between-small,NA,NaN,NA,left,758.9999999997672,1,1,1206.0000000002328
61mwLWHX,NA,NA,61mwLWHX,2020-0188,2021-09-26,16:23:39,17:31:52,NA,incomplete,false,NA,true,3,25,NA,NA,left,NA,NA,c_2_005.jpg,n_l_005.jpg,between-big,NA,NaN,NA,left,769,1,1,1140.9999999997672
61mwLWHX,NA,NA,61mwLWHX,2020-0188,2021-09-26,16:23:39,17:31:52,NA,incomplete,false,NA,true,3,26,NA,NA,right,NA,NA,a_2_018.jpg,o_s_006.jpg,between-big,NA,NaN,NA,left,728,0,2,2288.999999999767
61mwLWHX,NA,NA,61mwLWHX,2020-0188,2021-09-26,16:23:39,17:31:52,NA,incomplete,false,true,NA,4,0,building,i_s_019.jpg,left,skyscraper,cottage,NA,NA,NA,left,2542,true,NA,NA,NA,NA,NA
61mwLWHX,NA,NA,61mwLWHX,2020-0188,2021-09-26,16:23:39,17:31:52,NA,incomplete,false,true,NA,4,1,building,o_c_013.jpg,right,skyscraper,cottage,NA,NA,NA,right,1251.00000000023,true,NA,NA,NA,NA,NA
61mwLWHX,NA,NA,61mwLWHX,2020-0188,2021-09-26,16:23:39,17:31:52,NA,incomplete,false,true,NA,4,2,building,o_s_016.jpg,left,skyscraper,cottage,NA,NA,NA,left,1768,true,NA,NA,NA,NA,NA
61mwLWHX,NA,NA,61mwLWHX,2020-0188,2021-09-26,16:23:39,17:31:52,NA,incomplete,false,true,NA,4,3,building,o_s_003.jpg,left,skyscraper,cottage,NA,NA,NA,left,1183,true,NA,NA,NA,NA,NA
61mwLWHX,NA,NA,61mwLWHX,2020-0188,2021-09-26,16:23:39,17:31:52,NA,incomplete,false,true,NA,4,4,building,i_c_009.jpg,left,cottage,skyscraper,NA,NA,NA,right,565,false,NA,NA,NA,NA,NA
61mwLWHX,NA,NA,61mwLWHX,2020-0188,2021-09-26,16:23:39,17:31:52,NA,incomplete,false,true,NA,4,5,location,i_c_006.jpg,right,outdoor,indoor,NA,NA,NA,left,1608,false,NA,NA,NA,NA,NA
61mwLWHX,NA,NA,61mwLWHX,2020-0188,2021-09-26,16:23:39,17:31:52,NA,incomplete,false,true,NA,4,6,location,i_s_021.jpg,right,outdoor,indoor,NA,NA,NA,right,1532,true,NA,NA,NA,NA,NA
61mwLWHX,NA,NA,61mwLWHX,2020-0188,2021-09-26,16:23:39,17:31:52,NA,incomplete,false,true,NA,4,7,location,o_c_008.jpg,right,indoor,outdoor,NA,NA,NA,right,1870.00000000023,true,NA,NA,NA,NA,NA
61mwLWHX,NA,NA,61mwLWHX,2020-0188,2021-09-26,16:23:39,17:31:52,NA,incomplete,false,true,NA,4,8,location,i_c_001.jpg,left,indoor,outdoor,NA,NA,NA,left,1867.99999999977,true,NA,NA,NA,NA,NA
61mwLWHX,NA,NA,61mwLWHX,2020-0188,2021-09-26,16:23:39,17:31:52,NA,incomplete,false,true,NA,4,9,location,o_c_025.jpg,left,outdoor,indoor,NA,NA,NA,right,1992,false,NA,NA,NA,NA,NA
61mwLWHX,NA,NA,61mwLWHX,2020-0188,2021-09-26,16:23:39,17:31:52,NA,incomplete,false,true,NA,4,10,abstractness,c_1_016.jpg,right,abstract,concrete,NA,NA,NA,right,2297.00000000023,true,NA,NA,NA,NA,NA
61mwLWHX,NA,NA,61mwLWHX,2020-0188,2021-09-26,16:23:39,17:31:52,NA,incomplete,false,true,NA,4,11,abstractness,c_2_016.jpg,left,concrete,abstract,NA,NA,NA,left,2496,true,NA,NA,NA,NA,NA
61mwLWHX,NA,NA,61mwLWHX,2020-0188,2021-09-26,16:23:39,17:31:52,NA,incomplete,false,true,NA,4,12,abstractness,a_1_026.jpg,left,abstract,concrete,NA,NA,NA,left,1482,true,NA,NA,NA,NA,NA
61mwLWHX,NA,NA,61mwLWHX,2020-0188,2021-09-26,16:23:39,17:31:52,NA,incomplete,false,true,NA,4,13,abstractness,c_2_012.jpg,left,concrete,abstract,NA,NA,NA,right,2686,false,NA,NA,NA,NA,NA
61mwLWHX,NA,NA,61mwLWHX,2020-0188,2021-09-26,16:23:39,17:31:52,NA,incomplete,false,true,NA,4,14,abstractness,c_1_004.jpg,left,concrete,abstract,NA,NA,NA,none,0,false,NA,NA,NA,NA,NA
61mwLWHX,NA,NA,61mwLWHX,2020-0188,2021-09-26,16:23:39,17:31:52,NA,incomplete,false,true,NA,4,15,syllable,c_1_023.jpg,right,2 syllables,1 syllable,NA,NA,NA,right,1803,true,NA,NA,NA,NA,NA
61mwLWHX,NA,NA,61mwLWHX,2020-0188,2021-09-26,16:23:39,17:31:52,NA,incomplete,false,true,NA,4,16,syllable,a_1_028.jpg,right,2 syllables,1 syllable,NA,NA,NA,right,2861.99999999977,true,NA,NA,NA,NA,NA
61mwLWHX,NA,NA,61mwLWHX,2020-0188,2021-09-26,16:23:39,17:31:52,NA,incomplete,false,true,NA,4,17,syllable,c_2_008.jpg,right,2 syllables,1 syllable,NA,NA,NA,left,1327,false,NA,NA,NA,NA,NA
61mwLWHX,NA,NA,61mwLWHX,2020-0188,2021-09-26,16:23:39,17:31:52,NA,incomplete,false,true,NA,4,18,syllable,a_1_002.jpg,right,2 syllables,1 syllable,NA,NA,NA,right,1191,true,NA,NA,NA,NA,NA
61mwLWHX,NA,NA,61mwLWHX,2020-0188,2021-09-26,16:23:39,17:31:52,NA,incomplete,false,true,NA,4,19,syllable,c_2_011.jpg,right,1 syllable,2 syllables,NA,NA,NA,right,1659,true,NA,NA,NA,NA,NA
61mwLWHX,NA,NA,61mwLWHX,2020-0188,2021-09-26,16:23:39,17:31:52,NA,incomplete,false,true,NA,4,20,size,n_l_015.jpg,left,large,small,NA,NA,NA,left,1441,true,NA,NA,NA,NA,NA
61mwLWHX,NA,NA,61mwLWHX,2020-0188,2021-09-26,16:23:39,17:31:52,NA,incomplete,false,true,NA,4,21,size,n_l_027.jpg,left,large,small,NA,NA,NA,left,1977,true,NA,NA,NA,NA,NA
61mwLWHX,NA,NA,61mwLWHX,2020-0188,2021-09-26,16:23:39,17:31:52,NA,incomplete,false,true,NA,4,22,size,n_s_025.jpg,left,small,large,NA,NA,NA,left,1951.00000000023,true,NA,NA,NA,NA,NA
61mwLWHX,NA,NA,61mwLWHX,2020-0188,2021-09-26,16:23:39,17:31:52,NA,incomplete,false,true,NA,4,23,size,n_s_006.jpg,right,large,small,NA,NA,NA,right,2357,true,NA,NA,NA,NA,NA
61mwLWHX,NA,NA,61mwLWHX,2020-0188,2021-09-26,16:23:39,17:31:52,NA,incomplete,false,true,NA,4,24,size,m_s_017.jpg,left,small,large,NA,NA,NA,left,1719,true,NA,NA,NA,NA,NA
61mwLWHX,NA,NA,61mwLWHX,2020-0188,2021-09-26,16:23:39,17:31:52,NA,incomplete,false,true,NA,4,25,origin,m_l_017.jpg,right,natural,manmade,NA,NA,NA,right,2323,true,NA,NA,NA,NA,NA
61mwLWHX,NA,NA,61mwLWHX,2020-0188,2021-09-26,16:23:39,17:31:52,NA,incomplete,false,true,NA,4,26,origin,m_s_006.jpg,left,manmade,natural,NA,NA,NA,left,2143,true,NA,NA,NA,NA,NA
61mwLWHX,NA,NA,61mwLWHX,2020-0188,2021-09-26,16:23:39,17:31:52,NA,incomplete,false,true,NA,4,27,origin,n_s_013.jpg,right,manmade,natural,NA,NA,NA,right,2535.00000000023,true,NA,NA,NA,NA,NA
61mwLWHX,NA,NA,61mwLWHX,2020-0188,2021-09-26,16:23:39,17:31:52,NA,incomplete,false,true,NA,4,28,origin,m_s_005.jpg,left,manmade,natural,NA,NA,NA,left,3302.99999999977,true,NA,NA,NA,NA,NA
61mwLWHX,NA,NA,61mwLWHX,2020-0188,2021-09-26,16:23:39,17:31:52,NA,incomplete,false,true,NA,4,29,origin,n_s_022.jpg,right,manmade,natural,NA,NA,NA,right,1240,true,NA,NA,NA,NA,NA
61mwLWHX,NA,NA,61mwLWHX,2020-0188,2021-09-26,16:23:39,17:31:52,NA,incomplete,false,NA,true,4,0,NA,NA,right,NA,NA,a_1_028.jpg,c_2_012.jpg,between-small,NA,NaN,NA,left,1552,0,1,1213
61mwLWHX,NA,NA,61mwLWHX,2020-0188,2021-09-26,16:23:39,17:31:52,NA,incomplete,false,NA,true,4,1,NA,NA,left,NA,NA,c_2_016.jpg,c_1_004.jpg,within,NA,NaN,NA,left,882.0000000002328,1,1,1642
61mwLWHX,NA,NA,61mwLWHX,2020-0188,2021-09-26,16:23:39,17:31:52,NA,incomplete,false,NA,true,4,2,NA,NA,left,NA,NA,i_s_019.jpg,o_s_003.jpg,within,NA,NaN,NA,left,1504,1,1,1813.0000000002328
61mwLWHX,NA,NA,61mwLWHX,2020-0188,2021-09-26,16:23:39,17:31:52,NA,incomplete,false,NA,true,4,3,NA,NA,right,NA,NA,n_l_015.jpg,c_2_008.jpg,between-big,NA,NaN,NA,right,914,1,2,2553
61mwLWHX,NA,NA,61mwLWHX,2020-0188,2021-09-26,16:23:39,17:31:52,NA,incomplete,false,NA,true,4,4,NA,NA,right,NA,NA,c_1_016.jpg,o_c_008.jpg,between-big,NA,NaN,NA,left,1173,0,2,1035.0000000002328
61mwLWHX,NA,NA,61mwLWHX,2020-0188,2021-09-26,16:23:39,17:31:52,NA,incomplete,false,NA,true,4,5,NA,NA,left,NA,NA,m_l_017.jpg,m_s_005.jpg,within,NA,NaN,NA,left,1343,1,1,2249
61mwLWHX,NA,NA,61mwLWHX,2020-0188,2021-09-26,16:23:39,17:31:52,NA,incomplete,false,NA,true,4,6,NA,NA,left,NA,NA,i_c_001.jpg,c_2_016.jpg,between-big,NA,NaN,NA,left,3687,1,2,3738.999999999767
61mwLWHX,NA,NA,61mwLWHX,2020-0188,2021-09-26,16:23:39,17:31:52,NA,incomplete,false,NA,true,4,7,NA,NA,right,NA,NA,a_1_026.jpg,o_c_025.jpg,between-big,NA,NaN,NA,left,2386.000000000233,0,2,2681
61mwLWHX,NA,NA,61mwLWHX,2020-0188,2021-09-26,16:23:39,17:31:52,NA,incomplete,false,NA,true,4,8,NA,NA,right,NA,NA,i_c_001.jpg,i_c_006.jpg,within,NA,NaN,NA,left,979,0,1,2145.000000000233
61mwLWHX,NA,NA,61mwLWHX,2020-0188,2021-09-26,16:23:39,17:31:52,NA,incomplete,false,NA,true,4,9,NA,NA,left,NA,NA,m_s_006.jpg,n_s_022.jpg,within,NA,NaN,NA,left,896,1,1,2193
61mwLWHX,NA,NA,61mwLWHX,2020-0188,2021-09-26,16:23:39,17:31:52,NA,incomplete,false,NA,true,4,10,NA,NA,left,NA,NA,a_1_002.jpg,n_l_027.jpg,between-big,NA,NaN,NA,left,842.0000000002328,1,2,1683.0000000002328
61mwLWHX,NA,NA,61mwLWHX,2020-0188,2021-09-26,16:23:39,17:31:52,NA,incomplete,false,NA,true,4,11,NA,NA,right,NA,NA,c_2_012.jpg,c_1_016.jpg,within,NA,NaN,NA,right,1245,1,1,3447.000000000233
61mwLWHX,NA,NA,61mwLWHX,2020-0188,2021-09-26,16:23:39,17:31:52,NA,incomplete,false,NA,true,4,12,NA,NA,left,NA,NA,n_s_006.jpg,m_s_006.jpg,between-small,NA,NaN,NA,left,833.9999999997672,1,1,1408.0000000002328
61mwLWHX,NA,NA,61mwLWHX,2020-0188,2021-09-26,16:23:39,17:31:52,NA,incomplete,false,NA,true,4,13,NA,NA,right,NA,NA,n_s_006.jpg,n_l_015.jpg,within,NA,NaN,NA,left,1222,0,1,1821
61mwLWHX,NA,NA,61mwLWHX,2020-0188,2021-09-26,16:23:39,17:31:52,NA,incomplete,false,NA,true,4,14,NA,NA,right,NA,NA,o_c_008.jpg,i_c_009.jpg,between-small,NA,NaN,NA,left,1173,0,1,1117
61mwLWHX,NA,NA,61mwLWHX,2020-0188,2021-09-26,16:23:39,17:31:52,NA,incomplete,false,NA,true,4,15,NA,NA,left,NA,NA,n_l_027.jpg,m_s_017.jpg,within,NA,NaN,NA,left,2156,1,1,1684
61mwLWHX,NA,NA,61mwLWHX,2020-0188,2021-09-26,16:23:39,17:31:52,NA,incomplete,false,NA,true,4,16,NA,NA,left,NA,NA,c_2_011.jpg,n_s_025.jpg,between-big,NA,NaN,NA,left,688,1,2,1925.0000000002328
61mwLWHX,NA,NA,61mwLWHX,2020-0188,2021-09-26,16:23:39,17:31:52,NA,incomplete,false,NA,true,4,17,NA,NA,right,NA,NA,c_1_023.jpg,a_1_026.jpg,between-small,NA,NaN,NA,right,1447,1,1,1042
61mwLWHX,NA,NA,61mwLWHX,2020-0188,2021-09-26,16:23:39,17:31:52,NA,incomplete,false,NA,true,4,18,NA,NA,left,NA,NA,o_c_013.jpg,i_c_009.jpg,within,NA,NaN,NA,left,760,1,1,976.9999999997672
61mwLWHX,NA,NA,61mwLWHX,2020-0188,2021-09-26,16:23:39,17:31:52,NA,incomplete,false,NA,true,4,19,NA,NA,right,NA,NA,c_2_011.jpg,a_1_028.jpg,within,NA,NaN,NA,right,1335,1,1,1294.9999999997672
61mwLWHX,NA,NA,61mwLWHX,2020-0188,2021-09-26,16:23:39,17:31:52,NA,incomplete,false,NA,true,4,20,NA,NA,left,NA,NA,m_s_017.jpg,n_s_013.jpg,between-small,NA,NaN,NA,right,873,0,1,3213
61mwLWHX,NA,NA,61mwLWHX,2020-0188,2021-09-26,16:23:39,17:31:52,NA,incomplete,false,NA,true,4,21,NA,NA,right,NA,NA,c_2_008.jpg,c_1_004.jpg,between-small,NA,NaN,NA,left,954,0,1,1392
61mwLWHX,NA,NA,61mwLWHX,2020-0188,2021-09-26,16:23:39,17:31:52,NA,incomplete,false,NA,true,4,22,NA,NA,left,NA,NA,n_s_025.jpg,m_l_017.jpg,between-small,NA,NaN,NA,left,801,1,1,1149
61mwLWHX,NA,NA,61mwLWHX,2020-0188,2021-09-26,16:23:39,17:31:52,NA,incomplete,false,NA,true,4,23,NA,NA,left,NA,NA,o_s_003.jpg,i_s_021.jpg,between-small,NA,NaN,NA,left,883,1,1,1561
61mwLWHX,NA,NA,61mwLWHX,2020-0188,2021-09-26,16:23:39,17:31:52,NA,incomplete,false,NA,true,4,24,NA,NA,right,NA,NA,o_c_025.jpg,i_s_021.jpg,within,NA,NaN,NA,left,728,0,1,2686.999999999767
61mwLWHX,NA,NA,61mwLWHX,2020-0188,2021-09-26,16:23:39,17:31:52,NA,incomplete,false,NA,true,4,25,NA,NA,left,NA,NA,c_1_023.jpg,a_1_002.jpg,within,NA,NaN,NA,right,1172.0000000002328,0,1,898
61mwLWHX,NA,NA,61mwLWHX,2020-0188,2021-09-26,16:23:39,17:31:52,NA,incomplete,false,NA,true,4,26,NA,NA,left,NA,NA,o_s_016.jpg,i_c_006.jpg,between-small,NA,NaN,NA,right,1488,0,1,1213.9999999997672
61mwLWHX,NA,NA,61mwLWHX,2020-0188,2021-09-26,16:23:39,17:31:52,NA,incomplete,false,true,NA,5,0,size,m_l_009.jpg,left,large,small,NA,NA,NA,left,987,true,NA,NA,NA,NA,NA
61mwLWHX,NA,NA,61mwLWHX,2020-0188,2021-09-26,16:23:39,17:31:52,NA,incomplete,false,true,NA,5,1,size,m_l_001.jpg,left,large,small,NA,NA,NA,left,1807.99999999977,true,NA,NA,NA,NA,NA
61mwLWHX,NA,NA,61mwLWHX,2020-0188,2021-09-26,16:23:39,17:31:52,NA,incomplete,false,true,NA,5,2,size,n_s_024.jpg,right,large,small,NA,NA,NA,right,1057,true,NA,NA,NA,NA,NA
61mwLWHX,NA,NA,61mwLWHX,2020-0188,2021-09-26,16:23:39,17:31:52,NA,incomplete,false,true,NA,5,3,size,n_s_020.jpg,left,small,large,NA,NA,NA,left,1324,true,NA,NA,NA,NA,NA
61mwLWHX,NA,NA,61mwLWHX,2020-0188,2021-09-26,16:23:39,17:31:52,NA,incomplete,false,true,NA,5,4,size,n_l_018.jpg,right,small,large,NA,NA,NA,right,2308,true,NA,NA,NA,NA,NA
61mwLWHX,NA,NA,61mwLWHX,2020-0188,2021-09-26,16:23:39,17:31:52,NA,incomplete,false,true,NA,5,5,origin,m_s_007.jpg,right,natural,manmade,NA,NA,NA,right,2460,true,NA,NA,NA,NA,NA
61mwLWHX,NA,NA,61mwLWHX,2020-0188,2021-09-26,16:23:39,17:31:52,NA,incomplete,false,true,NA,5,6,origin,m_l_022.jpg,right,natural,manmade,NA,NA,NA,right,1342,true,NA,NA,NA,NA,NA
61mwLWHX,NA,NA,61mwLWHX,2020-0188,2021-09-26,16:23:39,17:31:52,NA,incomplete,false,true,NA,5,7,origin,n_s_008.jpg,left,natural,manmade,NA,NA,NA,left,1599,true,NA,NA,NA,NA,NA
61mwLWHX,NA,NA,61mwLWHX,2020-0188,2021-09-26,16:23:39,17:31:52,NA,incomplete,false,true,NA,5,8,origin,m_s_028.jpg,right,natural,manmade,NA,NA,NA,right,1692,true,NA,NA,NA,NA,NA
61mwLWHX,NA,NA,61mwLWHX,2020-0188,2021-09-26,16:23:39,17:31:52,NA,incomplete,false,true,NA,5,9,origin,m_s_009.jpg,right,natural,manmade,NA,NA,NA,right,2441,true,NA,NA,NA,NA,NA
61mwLWHX,NA,NA,61mwLWHX,2020-0188,2021-09-26,16:23:39,17:31:52,NA,incomplete,false,true,NA,5,10,abstractness,c_1_022.jpg,right,abstract,concrete,NA,NA,NA,right,2074.99999999977,true,NA,NA,NA,NA,NA
61mwLWHX,NA,NA,61mwLWHX,2020-0188,2021-09-26,16:23:39,17:31:52,NA,incomplete,false,true,NA,5,11,abstractness,a_2_024.jpg,right,concrete,abstract,NA,NA,NA,right,1473.99999999953,true,NA,NA,NA,NA,NA
61mwLWHX,NA,NA,61mwLWHX,2020-0188,2021-09-26,16:23:39,17:31:52,NA,incomplete,false,true,NA,5,12,abstractness,a_2_004.jpg,right,concrete,abstract,NA,NA,NA,left,3086.00000000023,false,NA,NA,NA,NA,NA
61mwLWHX,NA,NA,61mwLWHX,2020-0188,2021-09-26,16:23:39,17:31:52,NA,incomplete,false,true,NA,5,13,abstractness,a_1_021.jpg,left,abstract,concrete,NA,NA,NA,left,1413,true,NA,NA,NA,NA,NA
61mwLWHX,NA,NA,61mwLWHX,2020-0188,2021-09-26,16:23:39,17:31:52,NA,incomplete,false,true,NA,5,14,abstractness,c_1_006.jpg,right,abstract,concrete,NA,NA,NA,right,1380,true,NA,NA,NA,NA,NA
61mwLWHX,NA,NA,61mwLWHX,2020-0188,2021-09-26,16:23:39,17:31:52,NA,incomplete,false,true,NA,5,15,syllable,c_1_014.jpg,right,2 syllables,1 syllable,NA,NA,NA,right,2640,true,NA,NA,NA,NA,NA
61mwLWHX,NA,NA,61mwLWHX,2020-0188,2021-09-26,16:23:39,17:31:52,NA,incomplete,false,true,NA,5,16,syllable,a_1_024.jpg,right,2 syllables,1 syllable,NA,NA,NA,right,2120.99999999953,true,NA,NA,NA,NA,NA
61mwLWHX,NA,NA,61mwLWHX,2020-0188,2021-09-26,16:23:39,17:31:52,NA,incomplete,false,true,NA,5,17,syllable,c_2_022.jpg,right,1 syllable,2 syllables,NA,NA,NA,right,2531.99999999953,true,NA,NA,NA,NA,NA
61mwLWHX,NA,NA,61mwLWHX,2020-0188,2021-09-26,16:23:39,17:31:52,NA,incomplete,false,true,NA,5,18,syllable,c_2_025.jpg,right,1 syllable,2 syllables,NA,NA,NA,right,2166.00000000023,true,NA,NA,NA,NA,NA
61mwLWHX,NA,NA,61mwLWHX,2020-0188,2021-09-26,16:23:39,17:31:52,NA,incomplete,false,true,NA,5,19,syllable,a_2_026.jpg,right,1 syllable,2 syllables,NA,NA,NA,right,1641,true,NA,NA,NA,NA,NA
61mwLWHX,NA,NA,61mwLWHX,2020-0188,2021-09-26,16:23:39,17:31:52,NA,incomplete,false,true,NA,5,20,building,o_s_011.jpg,right,cottage,skyscraper,NA,NA,NA,right,1558,true,NA,NA,NA,NA,NA
61mwLWHX,NA,NA,61mwLWHX,2020-0188,2021-09-26,16:23:39,17:31:52,NA,incomplete,false,true,NA,5,21,building,i_c_026.jpg,right,skyscraper,cottage,NA,NA,NA,left,2007.00000000047,false,NA,NA,NA,NA,NA
61mwLWHX,NA,NA,61mwLWHX,2020-0188,2021-09-26,16:23:39,17:31:52,NA,incomplete,false,true,NA,5,22,building,o_s_019.jpg,left,skyscraper,cottage,NA,NA,NA,left,1358.00000000047,true,NA,NA,NA,NA,NA
61mwLWHX,NA,NA,61mwLWHX,2020-0188,2021-09-26,16:23:39,17:31:52,NA,incomplete,false,true,NA,5,23,building,o_s_013.jpg,right,cottage,skyscraper,NA,NA,NA,right,1504,true,NA,NA,NA,NA,NA
61mwLWHX,NA,NA,61mwLWHX,2020-0188,2021-09-26,16:23:39,17:31:52,NA,incomplete,false,true,NA,5,24,building,o_s_005.jpg,left,skyscraper,cottage,NA,NA,NA,left,1388,true,NA,NA,NA,NA,NA
61mwLWHX,NA,NA,61mwLWHX,2020-0188,2021-09-26,16:23:39,17:31:52,NA,incomplete,false,true,NA,5,25,location,i_c_024.jpg,left,indoor,outdoor,NA,NA,NA,left,1458.00000000047,true,NA,NA,NA,NA,NA
61mwLWHX,NA,NA,61mwLWHX,2020-0188,2021-09-26,16:23:39,17:31:52,NA,incomplete,false,true,NA,5,26,location,i_c_021.jpg,left,indoor,outdoor,NA,NA,NA,left,2240,true,NA,NA,NA,NA,NA
61mwLWHX,NA,NA,61mwLWHX,2020-0188,2021-09-26,16:23:39,17:31:52,NA,incomplete,false,true,NA,5,27,location,i_c_014.jpg,left,indoor,outdoor,NA,NA,NA,left,1049,true,NA,NA,NA,NA,NA
61mwLWHX,NA,NA,61mwLWHX,2020-0188,2021-09-26,16:23:39,17:31:52,NA,incomplete,false,true,NA,5,28,location,i_s_008.jpg,left,indoor,outdoor,NA,NA,NA,left,1285,true,NA,NA,NA,NA,NA
61mwLWHX,NA,NA,61mwLWHX,2020-0188,2021-09-26,16:23:39,17:31:52,NA,incomplete,false,true,NA,5,29,location,i_s_028.jpg,left,indoor,outdoor,NA,NA,NA,left,1704,true,NA,NA,NA,NA,NA
61mwLWHX,NA,NA,61mwLWHX,2020-0188,2021-09-26,16:23:39,17:31:52,NA,incomplete,false,NA,true,5,0,NA,NA,left,NA,NA,n_s_020.jpg,m_l_022.jpg,between-small,NA,NaN,NA,left,1092,1,1,1423
61mwLWHX,NA,NA,61mwLWHX,2020-0188,2021-09-26,16:23:39,17:31:52,NA,incomplete,false,NA,true,5,1,NA,NA,left,NA,NA,o_s_019.jpg,i_c_024.jpg,between-small,NA,NaN,NA,right,1812,0,1,2202
61mwLWHX,NA,NA,61mwLWHX,2020-0188,2021-09-26,16:23:39,17:31:52,NA,incomplete,false,NA,true,5,2,NA,NA,right,NA,NA,a_1_021.jpg,c_1_022.jpg,within,NA,NaN,NA,right,2443,1,1,1109
61mwLWHX,NA,NA,61mwLWHX,2020-0188,2021-09-26,16:23:39,17:31:52,NA,incomplete,false,NA,true,5,3,NA,NA,right,NA,NA,a_2_026.jpg,a_1_024.jpg,within,NA,NaN,NA,right,3424,1,1,3324.9999999995343
61mwLWHX,NA,NA,61mwLWHX,2020-0188,2021-09-26,16:23:39,17:31:52,NA,incomplete,false,NA,true,5,4,NA,NA,left,NA,NA,n_s_024.jpg,m_s_007.jpg,between-small,NA,NaN,NA,left,1644,1,1,1230
61mwLWHX,NA,NA,61mwLWHX,2020-0188,2021-09-26,16:23:39,17:31:52,NA,incomplete,false,NA,true,5,5,NA,NA,left,NA,NA,c_1_006.jpg,c_2_022.jpg,between-small,NA,NaN,NA,left,784,1,1,4176
61mwLWHX,NA,NA,61mwLWHX,2020-0188,2021-09-26,16:23:39,17:31:52,NA,incomplete,false,NA,true,5,6,NA,NA,right,NA,NA,a_2_024.jpg,m_s_028.jpg,between-big,NA,NaN,NA,left,1861,0,2,10442
61mwLWHX,NA,NA,61mwLWHX,2020-0188,2021-09-26,16:23:39,17:31:52,NA,incomplete,false,NA,true,5,7,NA,NA,right,NA,NA,o_s_019.jpg,a_2_026.jpg,between-big,NA,NaN,NA,right,1302,1,2,1367
61mwLWHX,NA,NA,61mwLWHX,2020-0188,2021-09-26,16:23:39,17:31:52,NA,incomplete,false,NA,true,5,8,NA,NA,left,NA,NA,n_s_008.jpg,c_1_022.jpg,between-big,NA,NaN,NA,left,2808,1,2,906
61mwLWHX,NA,NA,61mwLWHX,2020-0188,2021-09-26,16:23:39,17:31:52,NA,incomplete,false,NA,true,5,9,NA,NA,right,NA,NA,m_s_028.jpg,m_s_007.jpg,within,NA,NaN,NA,left,818,0,1,865
61mwLWHX,NA,NA,61mwLWHX,2020-0188,2021-09-26,16:23:39,17:31:52,NA,incomplete,false,NA,true,5,10,NA,NA,left,NA,NA,o_s_005.jpg,i_c_014.jpg,between-small,NA,NaN,NA,left,767,1,1,873.0000000004657
61mwLWHX,NA,NA,61mwLWHX,2020-0188,2021-09-26,16:23:39,17:31:52,NA,incomplete,false,NA,true,5,11,NA,NA,right,NA,NA,i_c_021.jpg,o_s_013.jpg,between-small,NA,NaN,NA,left,728,0,1,801
61mwLWHX,NA,NA,61mwLWHX,2020-0188,2021-09-26,16:23:39,17:31:52,NA,incomplete,false,NA,true,5,12,NA,NA,right,NA,NA,o_s_011.jpg,c_2_022.jpg,between-big,NA,NaN,NA,right,1351,1,2,938.0000000004657
61mwLWHX,NA,NA,61mwLWHX,2020-0188,2021-09-26,16:23:39,17:31:52,NA,incomplete,false,NA,true,5,13,NA,NA,right,NA,NA,i_s_028.jpg,i_c_021.jpg,within,NA,NaN,NA,left,1285,0,2,1295
61mwLWHX,NA,NA,61mwLWHX,2020-0188,2021-09-26,16:23:39,17:31:52,NA,incomplete,false,NA,true,5,14,NA,NA,left,NA,NA,a_1_021.jpg,a_1_024.jpg,between-small,NA,NaN,NA,left,582,1,1,808
61mwLWHX,NA,NA,61mwLWHX,2020-0188,2021-09-26,16:23:39,17:31:52,NA,incomplete,false,NA,true,5,15,NA,NA,right,NA,NA,c_1_014.jpg,a_2_004.jpg,between-small,NA,NaN,NA,left,486,0,1,1174
61mwLWHX,NA,NA,61mwLWHX,2020-0188,2021-09-26,16:23:39,17:31:52,NA,incomplete,false,NA,true,5,16,NA,NA,right,NA,NA,c_1_006.jpg,a_2_024.jpg,within,NA,NaN,NA,right,1084,1,1,1228.9999999995343
61mwLWHX,NA,NA,61mwLWHX,2020-0188,2021-09-26,16:23:39,17:31:52,NA,incomplete,false,NA,true,5,17,NA,NA,left,NA,NA,m_l_022.jpg,m_s_009.jpg,within,NA,NaN,NA,right,1243,0,1,1749
61mwLWHX,NA,NA,61mwLWHX,2020-0188,2021-09-26,16:23:39,17:31:52,NA,incomplete,false,NA,true,5,18,NA,NA,left,NA,NA,m_l_009.jpg,n_s_020.jpg,within,NA,NaN,NA,left,898,1,1,1757.0000000004657
61mwLWHX,NA,NA,61mwLWHX,2020-0188,2021-09-26,16:23:39,17:31:52,NA,incomplete,false,NA,true,5,19,NA,NA,right,NA,NA,o_s_013.jpg,o_s_011.jpg,within,NA,NaN,NA,left,798.0000000004657,0,1,3142
61mwLWHX,NA,NA,61mwLWHX,2020-0188,2021-09-26,16:23:39,17:31:52,NA,incomplete,false,NA,true,5,20,NA,NA,right,NA,NA,o_s_005.jpg,i_c_026.jpg,within,NA,NaN,NA,left,704,0,1,866
61mwLWHX,NA,NA,61mwLWHX,2020-0188,2021-09-26,16:23:39,17:31:52,NA,incomplete,false,NA,true,5,21,NA,NA,right,NA,NA,n_s_008.jpg,n_l_018.jpg,between-small,NA,NaN,NA,left,639,0,1,759.0000000004657
61mwLWHX,NA,NA,61mwLWHX,2020-0188,2021-09-26,16:23:39,17:31:52,NA,incomplete,false,NA,true,5,22,NA,NA,right,NA,NA,c_2_025.jpg,c_1_014.jpg,within,NA,NaN,NA,left,1602,0,1,1854
61mwLWHX,NA,NA,61mwLWHX,2020-0188,2021-09-26,16:23:39,17:31:52,NA,incomplete,false,NA,true,5,23,NA,NA,right,NA,NA,i_c_026.jpg,c_2_025.jpg,between-big,NA,NaN,NA,left,801,0,1,2056
61mwLWHX,NA,NA,61mwLWHX,2020-0188,2021-09-26,16:23:39,17:31:52,NA,incomplete,false,NA,true,5,24,NA,NA,left,NA,NA,i_c_024.jpg,i_s_008.jpg,within,NA,NaN,NA,left,630,1,2,1019.0000000004657
61mwLWHX,NA,NA,61mwLWHX,2020-0188,2021-09-26,16:23:39,17:31:52,NA,incomplete,false,NA,true,5,25,NA,NA,left,NA,NA,m_s_009.jpg,a_2_004.jpg,between-big,NA,NaN,NA,left,615,1,0,1974
61mwLWHX,NA,NA,61mwLWHX,2020-0188,2021-09-26,16:23:39,17:31:52,NA,incomplete,false,NA,true,5,26,NA,NA,left,NA,NA,m_l_001.jpg,n_l_018.jpg,within,NA,NaN,NA,right,857,0,1,1616
61mwLWHX,NA,NA,61mwLWHX,2020-0188,2021-09-26,16:23:39,17:31:52,NA,incomplete,false,true,NA,6,0,building,o_c_020.jpg,left,cottage,skyscraper,NA,NA,NA,left,1478.99999999953,true,NA,NA,NA,NA,NA
61mwLWHX,NA,NA,61mwLWHX,2020-0188,2021-09-26,16:23:39,17:31:52,NA,incomplete,false,true,NA,6,1,building,o_c_017.jpg,left,cottage,skyscraper,NA,NA,NA,left,842,true,NA,NA,NA,NA,NA
61mwLWHX,NA,NA,61mwLWHX,2020-0188,2021-09-26,16:23:39,17:31:52,NA,incomplete,false,true,NA,6,2,building,o_c_028.jpg,right,skyscraper,cottage,NA,NA,NA,left,1281,false,NA,NA,NA,NA,NA
61mwLWHX,NA,NA,61mwLWHX,2020-0188,2021-09-26,16:23:39,17:31:52,NA,incomplete,false,true,NA,6,3,building,o_s_002.jpg,right,cottage,skyscraper,NA,NA,NA,right,1160,true,NA,NA,NA,NA,NA
61mwLWHX,NA,NA,61mwLWHX,2020-0188,2021-09-26,16:23:39,17:31:52,NA,incomplete,false,true,NA,6,4,building,i_s_001.jpg,left,skyscraper,cottage,NA,NA,NA,left,2074,true,NA,NA,NA,NA,NA
61mwLWHX,NA,NA,61mwLWHX,2020-0188,2021-09-26,16:23:39,17:31:52,NA,incomplete,false,true,NA,6,5,location,i_c_028.jpg,left,indoor,outdoor,NA,NA,NA,left,1518,true,NA,NA,NA,NA,NA
61mwLWHX,NA,NA,61mwLWHX,2020-0188,2021-09-26,16:23:39,17:31:52,NA,incomplete,false,true,NA,6,6,location,i_c_004.jpg,left,indoor,outdoor,NA,NA,NA,left,1789,true,NA,NA,NA,NA,NA
61mwLWHX,NA,NA,61mwLWHX,2020-0188,2021-09-26,16:23:39,17:31:52,NA,incomplete,false,true,NA,6,7,location,i_c_008.jpg,left,indoor,outdoor,NA,NA,NA,left,2357,true,NA,NA,NA,NA,NA
61mwLWHX,NA,NA,61mwLWHX,2020-0188,2021-09-26,16:23:39,17:31:52,NA,incomplete,false,true,NA,6,8,location,o_s_010.jpg,right,indoor,outdoor,NA,NA,NA,right,1462,true,NA,NA,NA,NA,NA
61mwLWHX,NA,NA,61mwLWHX,2020-0188,2021-09-26,16:23:39,17:31:52,NA,incomplete,false,true,NA,6,9,location,o_c_022.jpg,left,outdoor,indoor,NA,NA,NA,left,1586,true,NA,NA,NA,NA,NA
61mwLWHX,NA,NA,61mwLWHX,2020-0188,2021-09-26,16:23:39,17:31:52,NA,incomplete,false,true,NA,6,10,origin,m_l_008.jpg,left,manmade,natural,NA,NA,NA,left,2052.00000000047,true,NA,NA,NA,NA,NA
61mwLWHX,NA,NA,61mwLWHX,2020-0188,2021-09-26,16:23:39,17:31:52,NA,incomplete,false,true,NA,6,11,origin,m_s_021.jpg,right,natural,manmade,NA,NA,NA,right,2319.00000000047,true,NA,NA,NA,NA,NA
61mwLWHX,NA,NA,61mwLWHX,2020-0188,2021-09-26,16:23:39,17:31:52,NA,incomplete,false,true,NA,6,12,origin,m_l_028.jpg,right,natural,manmade,NA,NA,NA,right,1693,true,NA,NA,NA,NA,NA
61mwLWHX,NA,NA,61mwLWHX,2020-0188,2021-09-26,16:23:39,17:31:52,NA,incomplete,false,true,NA,6,13,origin,m_s_010.jpg,right,natural,manmade,NA,NA,NA,right,1439.99999999953,true,NA,NA,NA,NA,NA
61mwLWHX,NA,NA,61mwLWHX,2020-0188,2021-09-26,16:23:39,17:31:52,NA,incomplete,false,true,NA,6,14,origin,n_l_011.jpg,left,natural,manmade,NA,NA,NA,left,1556,true,NA,NA,NA,NA,NA
61mwLWHX,NA,NA,61mwLWHX,2020-0188,2021-09-26,16:23:39,17:31:52,NA,incomplete,false,true,NA,6,15,size,n_l_028.jpg,right,small,large,NA,NA,NA,right,1818,true,NA,NA,NA,NA,NA
61mwLWHX,NA,NA,61mwLWHX,2020-0188,2021-09-26,16:23:39,17:31:52,NA,incomplete,false,true,NA,6,16,size,m_s_022.jpg,left,small,large,NA,NA,NA,left,1351,true,NA,NA,NA,NA,NA
61mwLWHX,NA,NA,61mwLWHX,2020-0188,2021-09-26,16:23:39,17:31:52,NA,incomplete,false,true,NA,6,17,size,m_s_019.jpg,right,large,small,NA,NA,NA,right,1610,true,NA,NA,NA,NA,NA
61mwLWHX,NA,NA,61mwLWHX,2020-0188,2021-09-26,16:23:39,17:31:52,NA,incomplete,false,true,NA,6,18,size,m_l_019.jpg,right,small,large,NA,NA,NA,right,1624,true,NA,NA,NA,NA,NA
61mwLWHX,NA,NA,61mwLWHX,2020-0188,2021-09-26,16:23:39,17:31:52,NA,incomplete,false,true,NA,6,19,size,n_s_014.jpg,right,large,small,NA,NA,NA,left,1632,false,NA,NA,NA,NA,NA
61mwLWHX,NA,NA,61mwLWHX,2020-0188,2021-09-26,16:23:39,17:31:52,NA,incomplete,false,true,NA,6,20,syllable,a_2_014.jpg,right,2 syllables,1 syllable,NA,NA,NA,left,2290,false,NA,NA,NA,NA,NA
61mwLWHX,NA,NA,61mwLWHX,2020-0188,2021-09-26,16:23:39,17:31:52,NA,incomplete,false,true,NA,6,21,syllable,c_1_021.jpg,right,2 syllables,1 syllable,NA,NA,NA,right,1617,true,NA,NA,NA,NA,NA
61mwLWHX,NA,NA,61mwLWHX,2020-0188,2021-09-26,16:23:39,17:31:52,NA,incomplete,false,true,NA,6,22,syllable,a_2_013.jpg,right,2 syllables,1 syllable,NA,NA,NA,left,1516,false,NA,NA,NA,NA,NA
61mwLWHX,NA,NA,61mwLWHX,2020-0188,2021-09-26,16:23:39,17:31:52,NA,incomplete,false,true,NA,6,23,syllable,c_1_009.jpg,right,1 syllable,2 syllables,NA,NA,NA,left,2077,false,NA,NA,NA,NA,NA
61mwLWHX,NA,NA,61mwLWHX,2020-0188,2021-09-26,16:23:39,17:31:52,NA,incomplete,false,true,NA,6,24,syllable,c_2_004.jpg,right,2 syllables,1 syllable,NA,NA,NA,left,1494,false,NA,NA,NA,NA,NA
61mwLWHX,NA,NA,61mwLWHX,2020-0188,2021-09-26,16:23:39,17:31:52,NA,incomplete,false,true,NA,6,25,abstractness,c_2_009.jpg,right,abstract,concrete,NA,NA,NA,left,2897,false,NA,NA,NA,NA,NA
61mwLWHX,NA,NA,61mwLWHX,2020-0188,2021-09-26,16:23:39,17:31:52,NA,incomplete,false,true,NA,6,26,abstractness,c_1_003.jpg,right,abstract,concrete,NA,NA,NA,right,1786,true,NA,NA,NA,NA,NA
61mwLWHX,NA,NA,61mwLWHX,2020-0188,2021-09-26,16:23:39,17:31:52,NA,incomplete,false,true,NA,6,27,abstractness,a_1_007.jpg,right,concrete,abstract,NA,NA,NA,right,1295,true,NA,NA,NA,NA,NA
61mwLWHX,NA,NA,61mwLWHX,2020-0188,2021-09-26,16:23:39,17:31:52,NA,incomplete,false,true,NA,6,28,abstractness,a_1_011.jpg,right,concrete,abstract,NA,NA,NA,right,2354,true,NA,NA,NA,NA,NA
61mwLWHX,NA,NA,61mwLWHX,2020-0188,2021-09-26,16:23:39,17:31:52,NA,incomplete,false,true,NA,6,29,abstractness,a_1_009.jpg,right,concrete,abstract,NA,NA,NA,right,2354,true,NA,NA,NA,NA,NA
61mwLWHX,NA,NA,61mwLWHX,2020-0188,2021-09-26,16:23:39,17:31:52,NA,incomplete,false,NA,true,6,0,NA,NA,right,NA,NA,n_s_014.jpg,m_s_022.jpg,within,NA,NaN,NA,right,1342,1,1,834
61mwLWHX,NA,NA,61mwLWHX,2020-0188,2021-09-26,16:23:39,17:31:52,NA,incomplete,false,NA,true,6,1,NA,NA,left,NA,NA,c_2_004.jpg,a_1_007.jpg,between-small,NA,NaN,NA,right,4265,0,1,849
61mwLWHX,NA,NA,61mwLWHX,2020-0188,2021-09-26,16:23:39,17:31:52,NA,incomplete,false,NA,true,6,2,NA,NA,right,NA,NA,c_1_021.jpg,m_l_019.jpg,between-big,NA,NaN,NA,left,2657.0000000004657,0,2,1003
61mwLWHX,NA,NA,61mwLWHX,2020-0188,2021-09-26,16:23:39,17:31:52,NA,incomplete,false,NA,true,6,3,NA,NA,right,NA,NA,c_2_009.jpg,a_2_013.jpg,between-small,NA,NaN,NA,right,2469,1,1,1561
61mwLWHX,NA,NA,61mwLWHX,2020-0188,2021-09-26,16:23:39,17:31:52,NA,incomplete,false,NA,true,6,4,NA,NA,left,NA,NA,i_s_001.jpg,i_c_008.jpg,between-small,NA,NaN,NA,left,6363.000000000466,1,1,987
61mwLWHX,NA,NA,61mwLWHX,2020-0188,2021-09-26,16:23:39,17:31:52,NA,incomplete,false,NA,true,6,5,NA,NA,right,NA,NA,n_l_028.jpg,m_l_028.jpg,between-small,NA,NaN,NA,left,704,0,1,1398.0000000004657
61mwLWHX,NA,NA,61mwLWHX,2020-0188,2021-09-26,16:23:39,17:31:52,NA,incomplete,false,NA,true,6,6,NA,NA,right,NA,NA,a_1_009.jpg,c_1_003.jpg,within,NA,NaN,NA,right,2322,1,1,825
61mwLWHX,NA,NA,61mwLWHX,2020-0188,2021-09-26,16:23:39,17:31:52,NA,incomplete,false,NA,true,6,7,NA,NA,left,NA,NA,n_l_028.jpg,m_l_019.jpg,within,NA,NaN,NA,left,1739,1,1,954
61mwLWHX,NA,NA,61mwLWHX,2020-0188,2021-09-26,16:23:39,17:31:52,NA,incomplete,false,NA,true,6,8,NA,NA,left,NA,NA,i_c_008.jpg,m_l_008.jpg,between-big,NA,NaN,NA,left,727,1,1,2143
61mwLWHX,NA,NA,61mwLWHX,2020-0188,2021-09-26,16:23:39,17:31:52,NA,incomplete,false,NA,true,6,9,NA,NA,left,NA,NA,m_s_021.jpg,n_l_011.jpg,within,NA,NaN,NA,left,737,1,1,1789
61mwLWHX,NA,NA,61mwLWHX,2020-0188,2021-09-26,16:23:39,17:31:52,NA,incomplete,false,NA,true,6,10,NA,NA,right,NA,NA,o_s_002.jpg,o_c_020.jpg,within,NA,NaN,NA,left,873.9999999995343,0,1,1092
61mwLWHX,NA,NA,61mwLWHX,2020-0188,2021-09-26,16:23:39,17:31:52,NA,incomplete,false,NA,true,6,11,NA,NA,left,NA,NA,i_c_028.jpg,o_s_010.jpg,within,NA,NaN,NA,right,1740,0,1,914
61mwLWHX,NA,NA,61mwLWHX,2020-0188,2021-09-26,16:23:39,17:31:52,NA,incomplete,false,NA,true,6,12,NA,NA,left,NA,NA,o_c_028.jpg,i_c_028.jpg,between-small,NA,NaN,NA,left,1141,1,1,913
61mwLWHX,NA,NA,61mwLWHX,2020-0188,2021-09-26,16:23:39,17:31:52,NA,incomplete,false,NA,true,6,13,NA,NA,left,NA,NA,o_s_002.jpg,i_c_004.jpg,between-small,NA,NaN,NA,left,574.0000000004657,1,1,914
61mwLWHX,NA,NA,61mwLWHX,2020-0188,2021-09-26,16:23:39,17:31:52,NA,incomplete,false,NA,true,6,14,NA,NA,right,NA,NA,m_l_028.jpg,o_c_022.jpg,between-big,NA,NaN,NA,left,623,0,2,1464
61mwLWHX,NA,NA,61mwLWHX,2020-0188,2021-09-26,16:23:39,17:31:52,NA,incomplete,false,NA,true,6,15,NA,NA,left,NA,NA,n_l_011.jpg,m_s_019.jpg,between-small,NA,NaN,NA,right,1262.0000000004657,0,1,2866
61mwLWHX,NA,NA,61mwLWHX,2020-0188,2021-09-26,16:23:39,17:31:52,NA,incomplete,false,NA,true,6,16,NA,NA,right,NA,NA,c_2_004.jpg,c_1_021.jpg,within,NA,NaN,NA,right,2986,1,1,994.0000000004657
61mwLWHX,NA,NA,61mwLWHX,2020-0188,2021-09-26,16:23:39,17:31:52,NA,incomplete,false,NA,true,6,17,NA,NA,left,NA,NA,c_1_009.jpg,c_1_003.jpg,between-small,NA,NaN,NA,left,1051,1,1,995.0000000004657
61mwLWHX,NA,NA,61mwLWHX,2020-0188,2021-09-26,16:23:39,17:31:52,NA,incomplete,false,NA,true,6,18,NA,NA,left,NA,NA,m_s_019.jpg,a_2_014.jpg,between-big,NA,NaN,NA,right,1852.9999999995343,0,2,922
61mwLWHX,NA,NA,61mwLWHX,2020-0188,2021-09-26,16:23:39,17:31:52,NA,incomplete,false,NA,true,6,19,NA,NA,left,NA,NA,i_c_004.jpg,o_c_022.jpg,within,NA,NaN,NA,left,833,1,1,1659.0000000004657
61mwLWHX,NA,NA,61mwLWHX,2020-0188,2021-09-26,16:23:39,17:31:52,NA,incomplete,false,NA,true,6,20,NA,NA,left,NA,NA,n_s_014.jpg,a_2_013.jpg,between-big,NA,NaN,NA,right,1173,0,2,1457.0000000004657
61mwLWHX,NA,NA,61mwLWHX,2020-0188,2021-09-26,16:23:39,17:31:52,NA,incomplete,false,NA,true,6,21,NA,NA,right,NA,NA,a_1_011.jpg,c_2_009.jpg,within,NA,NaN,NA,right,3561,1,1,2459
61mwLWHX,NA,NA,61mwLWHX,2020-0188,2021-09-26,16:23:39,17:31:52,NA,incomplete,false,NA,true,6,22,NA,NA,left,NA,NA,m_l_008.jpg,m_s_010.jpg,within,NA,NaN,NA,left,897,1,1,994
61mwLWHX,NA,NA,61mwLWHX,2020-0188,2021-09-26,16:23:39,17:31:52,NA,incomplete,false,NA,true,6,23,NA,NA,right,NA,NA,m_s_021.jpg,o_s_010.jpg,between-big,NA,NaN,NA,right,1431.9999999995343,1,1,1837
61mwLWHX,NA,NA,61mwLWHX,2020-0188,2021-09-26,16:23:39,17:31:52,NA,incomplete,false,NA,true,6,24,NA,NA,left,NA,NA,o_c_017.jpg,i_s_001.jpg,within,NA,NaN,NA,left,881,1,1,1001.9999999995343
61mwLWHX,NA,NA,61mwLWHX,2020-0188,2021-09-26,16:23:39,17:31:52,NA,incomplete,false,NA,true,6,25,NA,NA,right,NA,NA,m_s_022.jpg,m_s_010.jpg,between-small,NA,NaN,NA,left,605.9999999995343,0,1,1020
61mwLWHX,NA,NA,61mwLWHX,2020-0188,2021-09-26,16:23:39,17:31:52,NA,incomplete,false,NA,true,6,26,NA,NA,right,NA,NA,c_1_009.jpg,a_2_014.jpg,within,NA,NaN,NA,right,807,1,1,1489
61mwLWHX,NA,NA,61mwLWHX,2020-0188,2021-09-26,16:23:39,17:31:52,NA,incomplete,false,true,NA,7,0,syllable,c_2_013.jpg,right,1 syllable,2 syllables,NA,NA,NA,right,2712,true,NA,NA,NA,NA,NA
61mwLWHX,NA,NA,61mwLWHX,2020-0188,2021-09-26,16:23:39,17:31:52,NA,incomplete,false,true,NA,7,1,syllable,a_2_008.jpg,right,2 syllables,1 syllable,NA,NA,NA,left,1746,false,NA,NA,NA,NA,NA
61mwLWHX,NA,NA,61mwLWHX,2020-0188,2021-09-26,16:23:39,17:31:52,NA,incomplete,false,true,NA,7,2,syllable,a_2_023.jpg,right,2 syllables,1 syllable,NA,NA,NA,left,1263,false,NA,NA,NA,NA,NA
61mwLWHX,NA,NA,61mwLWHX,2020-0188,2021-09-26,16:23:39,17:31:52,NA,incomplete,false,true,NA,7,3,syllable,a_2_001.jpg,right,2 syllables,1 syllable,NA,NA,NA,left,2670,false,NA,NA,NA,NA,NA
61mwLWHX,NA,NA,61mwLWHX,2020-0188,2021-09-26,16:23:39,17:31:52,NA,incomplete,false,true,NA,7,4,syllable,c_2_002.jpg,right,2 syllables,1 syllable,NA,NA,NA,left,1955.00000000047,false,NA,NA,NA,NA,NA
61mwLWHX,NA,NA,61mwLWHX,2020-0188,2021-09-26,16:23:39,17:31:52,NA,incomplete,false,true,NA,7,5,abstractness,a_1_001.jpg,right,concrete,abstract,NA,NA,NA,right,1972,true,NA,NA,NA,NA,NA
61mwLWHX,NA,NA,61mwLWHX,2020-0188,2021-09-26,16:23:39,17:31:52,NA,incomplete,false,true,NA,7,6,abstractness,a_1_015.jpg,right,concrete,abstract,NA,NA,NA,right,2185.00000000047,true,NA,NA,NA,NA,NA
61mwLWHX,NA,NA,61mwLWHX,2020-0188,2021-09-26,16:23:39,17:31:52,NA,incomplete,false,true,NA,7,7,abstractness,c_1_028.jpg,left,concrete,abstract,NA,NA,NA,right,2827,false,NA,NA,NA,NA,NA
61mwLWHX,NA,NA,61mwLWHX,2020-0188,2021-09-26,16:23:39,17:31:52,NA,incomplete,false,true,NA,7,8,abstractness,c_2_015.jpg,left,concrete,abstract,NA,NA,NA,left,1890,true,NA,NA,NA,NA,NA
61mwLWHX,NA,NA,61mwLWHX,2020-0188,2021-09-26,16:23:39,17:31:52,NA,incomplete,false,true,NA,7,9,abstractness,c_1_008.jpg,right,abstract,concrete,NA,NA,NA,right,2377,true,NA,NA,NA,NA,NA
61mwLWHX,NA,NA,61mwLWHX,2020-0188,2021-09-26,16:23:39,17:31:52,NA,incomplete,false,true,NA,7,10,size,m_l_012.jpg,left,large,small,NA,NA,NA,left,1318,true,NA,NA,NA,NA,NA
61mwLWHX,NA,NA,61mwLWHX,2020-0188,2021-09-26,16:23:39,17:31:52,NA,incomplete,false,true,NA,7,11,size,m_s_013.jpg,left,small,large,NA,NA,NA,left,1898.00000000047,true,NA,NA,NA,NA,NA
61mwLWHX,NA,NA,61mwLWHX,2020-0188,2021-09-26,16:23:39,17:31:52,NA,incomplete,false,true,NA,7,12,size,m_l_024.jpg,right,small,large,NA,NA,NA,right,1667,true,NA,NA,NA,NA,NA
61mwLWHX,NA,NA,61mwLWHX,2020-0188,2021-09-26,16:23:39,17:31:52,NA,incomplete,false,true,NA,7,13,size,n_l_025.jpg,right,small,large,NA,NA,NA,right,1338,true,NA,NA,NA,NA,NA
61mwLWHX,NA,NA,61mwLWHX,2020-0188,2021-09-26,16:23:39,17:31:52,NA,incomplete,false,true,NA,7,14,size,n_l_002.jpg,right,small,large,NA,NA,NA,right,2254,true,NA,NA,NA,NA,NA
61mwLWHX,NA,NA,61mwLWHX,2020-0188,2021-09-26,16:23:39,17:31:52,NA,incomplete,false,true,NA,7,15,origin,n_s_023.jpg,left,natural,manmade,NA,NA,NA,left,1468.00000000047,true,NA,NA,NA,NA,NA
61mwLWHX,NA,NA,61mwLWHX,2020-0188,2021-09-26,16:23:39,17:31:52,NA,incomplete,false,true,NA,7,16,origin,m_l_026.jpg,left,manmade,natural,NA,NA,NA,left,2204,true,NA,NA,NA,NA,NA
61mwLWHX,NA,NA,61mwLWHX,2020-0188,2021-09-26,16:23:39,17:31:52,NA,incomplete,false,true,NA,7,17,origin,n_l_021.jpg,left,natural,manmade,NA,NA,NA,left,1877,true,NA,NA,NA,NA,NA
61mwLWHX,NA,NA,61mwLWHX,2020-0188,2021-09-26,16:23:39,17:31:52,NA,incomplete,false,true,NA,7,18,origin,n_s_007.jpg,left,natural,manmade,NA,NA,NA,left,1702,true,NA,NA,NA,NA,NA
61mwLWHX,NA,NA,61mwLWHX,2020-0188,2021-09-26,16:23:39,17:31:52,NA,incomplete,false,true,NA,7,19,origin,n_l_019.jpg,left,natural,manmade,NA,NA,NA,left,1120,true,NA,NA,NA,NA,NA
61mwLWHX,NA,NA,61mwLWHX,2020-0188,2021-09-26,16:23:39,17:31:52,NA,incomplete,false,true,NA,7,20,location,i_s_024.jpg,left,indoor,outdoor,NA,NA,NA,left,1547,true,NA,NA,NA,NA,NA
61mwLWHX,NA,NA,61mwLWHX,2020-0188,2021-09-26,16:23:39,17:31:52,NA,incomplete,false,true,NA,7,21,location,o_s_025.jpg,left,outdoor,indoor,NA,NA,NA,left,1219,true,NA,NA,NA,NA,NA
61mwLWHX,NA,NA,61mwLWHX,2020-0188,2021-09-26,16:23:39,17:31:52,NA,incomplete,false,true,NA,7,22,location,o_s_028.jpg,left,outdoor,indoor,NA,NA,NA,left,1158.00000000047,true,NA,NA,NA,NA,NA
61mwLWHX,NA,NA,61mwLWHX,2020-0188,2021-09-26,16:23:39,17:31:52,NA,incomplete,false,true,NA,7,23,location,i_s_003.jpg,right,outdoor,indoor,NA,NA,NA,right,1194,true,NA,NA,NA,NA,NA
61mwLWHX,NA,NA,61mwLWHX,2020-0188,2021-09-26,16:23:39,17:31:52,NA,incomplete,false,true,NA,7,24,location,o_c_007.jpg,right,indoor,outdoor,NA,NA,NA,right,1476,true,NA,NA,NA,NA,NA
61mwLWHX,NA,NA,61mwLWHX,2020-0188,2021-09-26,16:23:39,17:31:52,NA,incomplete,false,true,NA,7,25,building,i_s_015.jpg,right,cottage,skyscraper,NA,NA,NA,right,1406,true,NA,NA,NA,NA,NA
61mwLWHX,NA,NA,61mwLWHX,2020-0188,2021-09-26,16:23:39,17:31:52,NA,incomplete,false,true,NA,7,26,building,o_c_015.jpg,left,cottage,skyscraper,NA,NA,NA,left,968.999999999534,true,NA,NA,NA,NA,NA
61mwLWHX,NA,NA,61mwLWHX,2020-0188,2021-09-26,16:23:39,17:31:52,NA,incomplete,false,true,NA,7,27,building,o_c_014.jpg,left,cottage,skyscraper,NA,NA,NA,left,1142.00000000047,true,NA,NA,NA,NA,NA
61mwLWHX,NA,NA,61mwLWHX,2020-0188,2021-09-26,16:23:39,17:31:52,NA,incomplete,false,true,NA,7,28,building,o_s_020.jpg,left,skyscraper,cottage,NA,NA,NA,left,2868.99999999953,true,NA,NA,NA,NA,NA
61mwLWHX,NA,NA,61mwLWHX,2020-0188,2021-09-26,16:23:39,17:31:52,NA,incomplete,false,true,NA,7,29,building,i_s_018.jpg,left,skyscraper,cottage,NA,NA,NA,left,1615,true,NA,NA,NA,NA,NA
61mwLWHX,NA,NA,61mwLWHX,2020-0188,2021-09-26,16:23:39,17:31:52,NA,incomplete,false,NA,true,7,0,NA,NA,left,NA,NA,c_2_002.jpg,c_1_028.jpg,between-small,NA,NaN,NA,right,2881,0,1,1043
61mwLWHX,NA,NA,61mwLWHX,2020-0188,2021-09-26,16:23:39,17:31:52,NA,incomplete,false,NA,true,7,1,NA,NA,right,NA,NA,c_2_015.jpg,a_1_001.jpg,within,NA,NaN,NA,left,1463.0000000004657,0,1,2355
61mwLWHX,NA,NA,61mwLWHX,2020-0188,2021-09-26,16:23:39,17:31:52,NA,incomplete,false,NA,true,7,2,NA,NA,left,NA,NA,i_s_024.jpg,i_s_003.jpg,within,NA,NaN,NA,left,2062,1,1,995.9999999995343
61mwLWHX,NA,NA,61mwLWHX,2020-0188,2021-09-26,16:23:39,17:31:52,NA,incomplete,false,NA,true,7,3,NA,NA,right,NA,NA,n_l_021.jpg,n_l_002.jpg,between-small,NA,NaN,NA,right,2023,1,1,980
61mwLWHX,NA,NA,61mwLWHX,2020-0188,2021-09-26,16:23:39,17:31:52,NA,incomplete,false,NA,true,7,4,NA,NA,left,NA,NA,c_1_028.jpg,m_l_012.jpg,between-big,NA,NaN,NA,left,1514,1,1,1213
61mwLWHX,NA,NA,61mwLWHX,2020-0188,2021-09-26,16:23:39,17:31:52,NA,incomplete,false,NA,true,7,5,NA,NA,right,NA,NA,m_l_026.jpg,n_l_025.jpg,between-small,NA,NaN,NA,right,1585,1,1,937
61mwLWHX,NA,NA,61mwLWHX,2020-0188,2021-09-26,16:23:39,17:31:52,NA,incomplete,false,NA,true,7,6,NA,NA,right,NA,NA,i_s_024.jpg,n_l_021.jpg,between-big,NA,NaN,NA,left,4505,0,1,1180
61mwLWHX,NA,NA,61mwLWHX,2020-0188,2021-09-26,16:23:39,17:31:52,NA,incomplete,false,NA,true,7,7,NA,NA,left,NA,NA,o_c_007.jpg,o_c_014.jpg,between-small,NA,NaN,NA,left,783,1,1,1456.0000000004657
61mwLWHX,NA,NA,61mwLWHX,2020-0188,2021-09-26,16:23:39,17:31:52,NA,incomplete,false,NA,true,7,8,NA,NA,left,NA,NA,c_2_013.jpg,a_2_001.jpg,within,NA,NaN,NA,left,1940.9999999995343,1,1,1788
61mwLWHX,NA,NA,61mwLWHX,2020-0188,2021-09-26,16:23:39,17:31:52,NA,incomplete,false,NA,true,7,9,NA,NA,left,NA,NA,m_l_024.jpg,n_s_023.jpg,between-small,NA,NaN,NA,right,2755,0,0,1449
61mwLWHX,NA,NA,61mwLWHX,2020-0188,2021-09-26,16:23:39,17:31:52,NA,incomplete,false,NA,true,7,10,NA,NA,left,NA,NA,n_s_007.jpg,o_s_025.jpg,between-big,NA,NaN,NA,right,7609,0,2,1634
61mwLWHX,NA,NA,61mwLWHX,2020-0188,2021-09-26,16:23:39,17:31:52,NA,incomplete,false,NA,true,7,11,NA,NA,left,NA,NA,c_1_008.jpg,m_l_024.jpg,between-big,NA,NaN,NA,left,823,1,2,979
61mwLWHX,NA,NA,61mwLWHX,2020-0188,2021-09-26,16:23:39,17:31:52,NA,incomplete,false,NA,true,7,12,NA,NA,right,NA,NA,i_s_018.jpg,o_c_015.jpg,within,NA,NaN,NA,left,2168,0,2,1464
61mwLWHX,NA,NA,61mwLWHX,2020-0188,2021-09-26,16:23:39,17:31:52,NA,incomplete,false,NA,true,7,13,NA,NA,left,NA,NA,o_s_025.jpg,o_c_007.jpg,within,NA,NaN,NA,left,1642,1,1,1173
61mwLWHX,NA,NA,61mwLWHX,2020-0188,2021-09-26,16:23:39,17:31:52,NA,incomplete,false,NA,true,7,14,NA,NA,left,NA,NA,m_l_012.jpg,n_l_025.jpg,within,NA,NaN,NA,right,1796,0,1,1052.0000000004657
61mwLWHX,NA,NA,61mwLWHX,2020-0188,2021-09-26,16:23:39,17:31:52,NA,incomplete,false,NA,true,7,15,NA,NA,left,NA,NA,a_1_015.jpg,c_1_008.jpg,within,NA,NaN,NA,left,1018.9999999995343,1,1,1003
61mwLWHX,NA,NA,61mwLWHX,2020-0188,2021-09-26,16:23:39,17:31:52,NA,incomplete,false,NA,true,7,16,NA,NA,left,NA,NA,a_2_023.jpg,a_1_001.jpg,between-small,NA,NaN,NA,left,759.9999999995343,1,1,1625
61mwLWHX,NA,NA,61mwLWHX,2020-0188,2021-09-26,16:23:39,17:31:52,NA,incomplete,false,NA,true,7,17,NA,NA,right,NA,NA,n_l_002.jpg,m_s_013.jpg,within,NA,NaN,NA,left,833,0,1,1724
61mwLWHX,NA,NA,61mwLWHX,2020-0188,2021-09-26,16:23:39,17:31:52,NA,incomplete,false,NA,true,7,18,NA,NA,left,NA,NA,a_2_008.jpg,c_2_002.jpg,within,NA,NaN,NA,left,841,1,1,1341.9999999995343
61mwLWHX,NA,NA,61mwLWHX,2020-0188,2021-09-26,16:23:39,17:31:52,NA,incomplete,false,NA,true,7,19,NA,NA,right,NA,NA,o_s_020.jpg,i_s_015.jpg,within,NA,NaN,NA,left,711,0,1,1125
61mwLWHX,NA,NA,61mwLWHX,2020-0188,2021-09-26,16:23:39,17:31:52,NA,incomplete,false,NA,true,7,20,NA,NA,right,NA,NA,o_s_028.jpg,n_l_019.jpg,between-big,NA,NaN,NA,right,1059,1,1,906.0000000004657
61mwLWHX,NA,NA,61mwLWHX,2020-0188,2021-09-26,16:23:39,17:31:52,NA,incomplete,false,NA,true,7,21,NA,NA,right,NA,NA,n_l_019.jpg,m_l_026.jpg,within,NA,NaN,NA,left,679,0,1,849.0000000004657
61mwLWHX,NA,NA,61mwLWHX,2020-0188,2021-09-26,16:23:39,17:31:52,NA,incomplete,false,NA,true,7,22,NA,NA,left,NA,NA,i_s_003.jpg,o_c_015.jpg,between-small,NA,NaN,NA,right,1384,0,1,1351
61mwLWHX,NA,NA,61mwLWHX,2020-0188,2021-09-26,16:23:39,17:31:52,NA,incomplete,false,NA,true,7,23,NA,NA,left,NA,NA,c_2_015.jpg,m_s_013.jpg,between-big,NA,NaN,NA,left,1037.0000000004657,1,2,768
61mwLWHX,NA,NA,61mwLWHX,2020-0188,2021-09-26,16:23:39,17:31:52,NA,incomplete,false,NA,true,7,24,NA,NA,right,NA,NA,n_s_007.jpg,n_s_023.jpg,within,NA,NaN,NA,right,1036,1,1,2677
61mwLWHX,NA,NA,61mwLWHX,2020-0188,2021-09-26,16:23:39,17:31:52,NA,incomplete,false,NA,true,7,25,NA,NA,right,NA,NA,i_s_015.jpg,o_s_028.jpg,between-small,NA,NaN,NA,left,728,0,2,1254
61mwLWHX,NA,NA,61mwLWHX,2020-0188,2021-09-26,16:23:39,17:31:52,NA,incomplete,false,NA,true,7,26,NA,NA,right,NA,NA,a_1_015.jpg,a_2_001.jpg,between-small,NA,NaN,NA,left,720,0,1,1384
61mwLWHX,NA,NA,61mwLWHX,2020-0188,2021-09-26,16:23:39,17:31:52,NA,incomplete,false,true,NA,8,0,syllable,c_2_023.jpg,right,1 syllable,2 syllables,NA,NA,NA,right,1660,true,NA,NA,NA,NA,NA
61mwLWHX,NA,NA,61mwLWHX,2020-0188,2021-09-26,16:23:39,17:31:52,NA,incomplete,false,true,NA,8,1,syllable,a_2_021.jpg,right,2 syllables,1 syllable,NA,NA,NA,left,1506,false,NA,NA,NA,NA,NA
61mwLWHX,NA,NA,61mwLWHX,2020-0188,2021-09-26,16:23:39,17:31:52,NA,incomplete,false,true,NA,8,2,syllable,a_1_019.jpg,right,1 syllable,2 syllables,NA,NA,NA,left,1217,false,NA,NA,NA,NA,NA
61mwLWHX,NA,NA,61mwLWHX,2020-0188,2021-09-26,16:23:39,17:31:52,NA,incomplete,false,true,NA,8,3,syllable,a_1_018.jpg,right,2 syllables,1 syllable,NA,NA,NA,right,1838,true,NA,NA,NA,NA,NA
61mwLWHX,NA,NA,61mwLWHX,2020-0188,2021-09-26,16:23:39,17:31:52,NA,incomplete,false,true,NA,8,4,syllable,a_2_017.jpg,right,2 syllables,1 syllable,NA,NA,NA,left,1735,false,NA,NA,NA,NA,NA
61mwLWHX,NA,NA,61mwLWHX,2020-0188,2021-09-26,16:23:39,17:31:52,NA,incomplete,false,true,NA,8,5,abstractness,a_1_014.jpg,left,abstract,concrete,NA,NA,NA,left,2309,true,NA,NA,NA,NA,NA
61mwLWHX,NA,NA,61mwLWHX,2020-0188,2021-09-26,16:23:39,17:31:52,NA,incomplete,false,true,NA,8,6,abstractness,c_1_002.jpg,right,abstract,concrete,NA,NA,NA,left,2150,false,NA,NA,NA,NA,NA
61mwLWHX,NA,NA,61mwLWHX,2020-0188,2021-09-26,16:23:39,17:31:52,NA,incomplete,false,true,NA,8,7,abstractness,a_2_012.jpg,right,concrete,abstract,NA,NA,NA,right,2082,true,NA,NA,NA,NA,NA
61mwLWHX,NA,NA,61mwLWHX,2020-0188,2021-09-26,16:23:39,17:31:52,NA,incomplete,false,true,NA,8,8,abstractness,c_2_021.jpg,right,abstract,concrete,NA,NA,NA,right,1383,true,NA,NA,NA,NA,NA
61mwLWHX,NA,NA,61mwLWHX,2020-0188,2021-09-26,16:23:39,17:31:52,NA,incomplete,false,true,NA,8,9,abstractness,c_2_001.jpg,left,concrete,abstract,NA,NA,NA,left,1890,true,NA,NA,NA,NA,NA
61mwLWHX,NA,NA,61mwLWHX,2020-0188,2021-09-26,16:23:39,17:31:52,NA,incomplete,false,true,NA,8,10,origin,n_s_019.jpg,right,manmade,natural,NA,NA,NA,right,1246.99999999953,true,NA,NA,NA,NA,NA
61mwLWHX,NA,NA,61mwLWHX,2020-0188,2021-09-26,16:23:39,17:31:52,NA,incomplete,false,true,NA,8,11,origin,m_s_001.jpg,left,manmade,natural,NA,NA,NA,left,1687,true,NA,NA,NA,NA,NA
61mwLWHX,NA,NA,61mwLWHX,2020-0188,2021-09-26,16:23:39,17:31:52,NA,incomplete,false,true,NA,8,12,origin,n_s_001.jpg,left,natural,manmade,NA,NA,NA,left,2914,true,NA,NA,NA,NA,NA
61mwLWHX,NA,NA,61mwLWHX,2020-0188,2021-09-26,16:23:39,17:31:52,NA,incomplete,false,true,NA,8,13,origin,m_l_018.jpg,right,natural,manmade,NA,NA,NA,right,1259,true,NA,NA,NA,NA,NA
61mwLWHX,NA,NA,61mwLWHX,2020-0188,2021-09-26,16:23:39,17:31:52,NA,incomplete,false,true,NA,8,14,origin,n_s_012.jpg,right,manmade,natural,NA,NA,NA,right,1307,true,NA,NA,NA,NA,NA
61mwLWHX,NA,NA,61mwLWHX,2020-0188,2021-09-26,16:23:39,17:31:52,NA,incomplete,false,true,NA,8,15,size,m_l_004.jpg,right,small,large,NA,NA,NA,right,2754,true,NA,NA,NA,NA,NA
61mwLWHX,NA,NA,61mwLWHX,2020-0188,2021-09-26,16:23:39,17:31:52,NA,incomplete,false,true,NA,8,16,size,n_l_023.jpg,right,small,large,NA,NA,NA,right,957,true,NA,NA,NA,NA,NA
61mwLWHX,NA,NA,61mwLWHX,2020-0188,2021-09-26,16:23:39,17:31:52,NA,incomplete,false,true,NA,8,17,size,n_s_017.jpg,right,large,small,NA,NA,NA,right,1711,true,NA,NA,NA,NA,NA
61mwLWHX,NA,NA,61mwLWHX,2020-0188,2021-09-26,16:23:39,17:31:52,NA,incomplete,false,true,NA,8,18,size,m_s_008.jpg,left,small,large,NA,NA,NA,left,1553,true,NA,NA,NA,NA,NA
61mwLWHX,NA,NA,61mwLWHX,2020-0188,2021-09-26,16:23:39,17:31:52,NA,incomplete,false,true,NA,8,19,size,n_l_007.jpg,right,small,large,NA,NA,NA,right,1624,true,NA,NA,NA,NA,NA
61mwLWHX,NA,NA,61mwLWHX,2020-0188,2021-09-26,16:23:39,17:31:52,NA,incomplete,false,true,NA,8,20,building,i_s_010.jpg,right,cottage,skyscraper,NA,NA,NA,right,2349.00000000047,true,NA,NA,NA,NA,NA
61mwLWHX,NA,NA,61mwLWHX,2020-0188,2021-09-26,16:23:39,17:31:52,NA,incomplete,false,true,NA,8,21,building,i_c_005.jpg,right,skyscraper,cottage,NA,NA,NA,right,1292,true,NA,NA,NA,NA,NA
61mwLWHX,NA,NA,61mwLWHX,2020-0188,2021-09-26,16:23:39,17:31:52,NA,incomplete,false,true,NA,8,22,building,o_c_012.jpg,left,cottage,skyscraper,NA,NA,NA,left,2037,true,NA,NA,NA,NA,NA
61mwLWHX,NA,NA,61mwLWHX,2020-0188,2021-09-26,16:23:39,17:31:52,NA,incomplete,false,true,NA,8,23,building,o_s_015.jpg,left,skyscraper,cottage,NA,NA,NA,left,2095,true,NA,NA,NA,NA,NA
61mwLWHX,NA,NA,61mwLWHX,2020-0188,2021-09-26,16:23:39,17:31:52,NA,incomplete,false,true,NA,8,24,building,i_c_019.jpg,right,skyscraper,cottage,NA,NA,NA,right,2001,true,NA,NA,NA,NA,NA
61mwLWHX,NA,NA,61mwLWHX,2020-0188,2021-09-26,16:23:39,17:31:52,NA,incomplete,false,true,NA,8,25,location,o_c_011.jpg,right,indoor,outdoor,NA,NA,NA,right,1734,true,NA,NA,NA,NA,NA
61mwLWHX,NA,NA,61mwLWHX,2020-0188,2021-09-26,16:23:39,17:31:52,NA,incomplete,false,true,NA,8,26,location,i_s_007.jpg,left,indoor,outdoor,NA,NA,NA,left,1897,true,NA,NA,NA,NA,NA
61mwLWHX,NA,NA,61mwLWHX,2020-0188,2021-09-26,16:23:39,17:31:52,NA,incomplete,false,true,NA,8,27,location,i_c_013.jpg,left,indoor,outdoor,NA,NA,NA,left,2859.99999999953,true,NA,NA,NA,NA,NA
61mwLWHX,NA,NA,61mwLWHX,2020-0188,2021-09-26,16:23:39,17:31:52,NA,incomplete,false,true,NA,8,28,location,i_c_007.jpg,left,indoor,outdoor,NA,NA,NA,left,1284,true,NA,NA,NA,NA,NA
61mwLWHX,NA,NA,61mwLWHX,2020-0188,2021-09-26,16:23:39,17:31:52,NA,incomplete,false,true,NA,8,29,location,i_c_011.jpg,right,outdoor,indoor,NA,NA,NA,right,1816,true,NA,NA,NA,NA,NA
61mwLWHX,NA,NA,61mwLWHX,2020-0188,2021-09-26,16:23:39,17:31:52,NA,incomplete,false,NA,true,8,0,NA,NA,left,NA,NA,a_2_017.jpg,a_2_012.jpg,between-small,NA,NaN,NA,right,2832,0,1,1431
61mwLWHX,NA,NA,61mwLWHX,2020-0188,2021-09-26,16:23:39,17:31:52,NA,incomplete,false,NA,true,8,1,NA,NA,left,NA,NA,o_c_012.jpg,o_c_011.jpg,between-small,NA,NaN,NA,left,1084,1,1,831.9999999995343
61mwLWHX,NA,NA,61mwLWHX,2020-0188,2021-09-26,16:23:39,17:31:52,NA,incomplete,false,NA,true,8,2,NA,NA,left,NA,NA,a_2_021.jpg,a_2_017.jpg,within,NA,NaN,NA,right,5106,0,1,1294
61mwLWHX,NA,NA,61mwLWHX,2020-0188,2021-09-26,16:23:39,17:31:52,NA,incomplete,false,NA,true,8,3,NA,NA,right,NA,NA,m_s_008.jpg,m_l_004.jpg,within,NA,NaN,NA,left,1156,0,1,3115
61mwLWHX,NA,NA,61mwLWHX,2020-0188,2021-09-26,16:23:39,17:31:52,NA,incomplete,false,NA,true,8,4,NA,NA,right,NA,NA,a_1_018.jpg,c_2_023.jpg,within,NA,NaN,NA,left,3301.9999999995343,0,1,1018.9999999995343
61mwLWHX,NA,NA,61mwLWHX,2020-0188,2021-09-26,16:23:39,17:31:52,NA,incomplete,false,NA,true,8,5,NA,NA,right,NA,NA,m_l_018.jpg,n_s_019.jpg,within,NA,NaN,NA,right,3619,1,1,1230
61mwLWHX,NA,NA,61mwLWHX,2020-0188,2021-09-26,16:23:39,17:31:52,NA,incomplete,false,NA,true,8,6,NA,NA,right,NA,NA,m_l_004.jpg,n_s_001.jpg,between-small,NA,NaN,NA,left,1886,0,2,841
61mwLWHX,NA,NA,61mwLWHX,2020-0188,2021-09-26,16:23:39,17:31:52,NA,incomplete,false,NA,true,8,7,NA,NA,left,NA,NA,c_2_021.jpg,m_s_001.jpg,between-big,NA,NaN,NA,left,755.0000000004657,1,2,3455.0000000004657
61mwLWHX,NA,NA,61mwLWHX,2020-0188,2021-09-26,16:23:39,17:31:52,NA,incomplete,false,NA,true,8,8,NA,NA,right,NA,NA,i_c_007.jpg,o_c_011.jpg,within,NA,NaN,NA,left,1481,0,1,2242
61mwLWHX,NA,NA,61mwLWHX,2020-0188,2021-09-26,16:23:39,17:31:52,NA,incomplete,false,NA,true,8,9,NA,NA,right,NA,NA,i_c_011.jpg,i_s_007.jpg,within,NA,NaN,NA,left,898,0,1,1019
61mwLWHX,NA,NA,61mwLWHX,2020-0188,2021-09-26,16:23:39,17:31:52,NA,incomplete,false,NA,true,8,10,NA,NA,left,NA,NA,n_s_017.jpg,i_s_010.jpg,between-big,NA,NaN,NA,left,744,1,2,3002
61mwLWHX,NA,NA,61mwLWHX,2020-0188,2021-09-26,16:23:39,17:31:52,NA,incomplete,false,NA,true,8,11,NA,NA,right,NA,NA,i_c_013.jpg,i_c_019.jpg,between-small,NA,NaN,NA,left,857,0,1,930
61mwLWHX,NA,NA,61mwLWHX,2020-0188,2021-09-26,16:23:39,17:31:52,NA,incomplete,false,NA,true,8,12,NA,NA,right,NA,NA,o_s_015.jpg,i_s_010.jpg,within,NA,NaN,NA,left,896,0,1,977.9999999995343
61mwLWHX,NA,NA,61mwLWHX,2020-0188,2021-09-26,16:23:39,17:31:52,NA,incomplete,false,NA,true,8,13,NA,NA,right,NA,NA,n_l_007.jpg,n_l_023.jpg,within,NA,NaN,NA,right,1472,1,1,1245.0000000004657
61mwLWHX,NA,NA,61mwLWHX,2020-0188,2021-09-26,16:23:39,17:31:52,NA,incomplete,false,NA,true,8,14,NA,NA,right,NA,NA,n_s_017.jpg,n_s_012.jpg,between-small,NA,NaN,NA,right,3431,1,2,2355
61mwLWHX,NA,NA,61mwLWHX,2020-0188,2021-09-26,16:23:39,17:31:52,NA,incomplete,false,NA,true,8,15,NA,NA,right,NA,NA,a_1_014.jpg,a_1_019.jpg,between-small,NA,NaN,NA,left,808,0,1,1253
61mwLWHX,NA,NA,61mwLWHX,2020-0188,2021-09-26,16:23:39,17:31:52,NA,incomplete,false,NA,true,8,16,NA,NA,right,NA,NA,n_s_012.jpg,m_s_001.jpg,within,NA,NaN,NA,left,736,0,1,816
61mwLWHX,NA,NA,61mwLWHX,2020-0188,2021-09-26,16:23:39,17:31:52,NA,incomplete,false,NA,true,8,17,NA,NA,left,NA,NA,m_l_018.jpg,n_l_023.jpg,between-small,NA,NaN,NA,right,4945,0,1,1803.0000000004657
61mwLWHX,NA,NA,61mwLWHX,2020-0188,2021-09-26,16:23:39,17:31:52,NA,incomplete,false,NA,true,8,18,NA,NA,right,NA,NA,c_2_021.jpg,a_1_014.jpg,within,NA,NaN,NA,left,2207.9999999995343,0,1,1188.9999999995343
61mwLWHX,NA,NA,61mwLWHX,2020-0188,2021-09-26,16:23:39,17:31:52,NA,incomplete,false,NA,true,8,19,NA,NA,right,NA,NA,o_c_012.jpg,n_l_007.jpg,between-big,NA,NaN,NA,left,1076,0,1,873.0000000004657
61mwLWHX,NA,NA,61mwLWHX,2020-0188,2021-09-26,16:23:39,17:31:52,NA,incomplete,false,NA,true,8,20,NA,NA,right,NA,NA,i_c_005.jpg,m_s_008.jpg,between-big,NA,NaN,NA,right,1489,1,1,1335.0000000004657
61mwLWHX,NA,NA,61mwLWHX,2020-0188,2021-09-26,16:23:39,17:31:52,NA,incomplete,false,NA,true,8,21,NA,NA,right,NA,NA,i_c_019.jpg,i_c_005.jpg,within,NA,NaN,NA,right,1084,1,1,2063
61mwLWHX,NA,NA,61mwLWHX,2020-0188,2021-09-26,16:23:39,17:31:52,NA,incomplete,false,NA,true,8,22,NA,NA,right,NA,NA,i_s_007.jpg,o_s_015.jpg,between-small,NA,NaN,NA,right,1180,1,1,1456
61mwLWHX,NA,NA,61mwLWHX,2020-0188,2021-09-26,16:23:39,17:31:52,NA,incomplete,false,NA,true,8,23,NA,NA,right,NA,NA,c_2_001.jpg,c_1_002.jpg,within,NA,NaN,NA,left,5556,0,1,1147.0000000004657
61mwLWHX,NA,NA,61mwLWHX,2020-0188,2021-09-26,16:23:39,17:31:52,NA,incomplete,false,NA,true,8,24,NA,NA,left,NA,NA,a_2_012.jpg,n_s_019.jpg,between-big,NA,NaN,NA,left,1546,1,2,814.9999999995343
61mwLWHX,NA,NA,61mwLWHX,2020-0188,2021-09-26,16:23:39,17:31:52,NA,incomplete,false,NA,true,8,25,NA,NA,right,NA,NA,n_s_001.jpg,c_2_001.jpg,between-big,NA,NaN,NA,right,1156,1,2,897.9999999995343
61mwLWHX,NA,NA,61mwLWHX,2020-0188,2021-09-26,16:23:39,17:31:52,NA,incomplete,false,NA,true,8,26,NA,NA,left,NA,NA,a_1_018.jpg,c_1_002.jpg,between-small,NA,NaN,NA,right,4464,0,1,1075
61mwLWHX,NA,NA,61mwLWHX,2020-0188,2021-09-26,16:23:39,17:31:52,NA,incomplete,false,true,NA,9,0,origin,n_l_008.jpg,left,natural,manmade,NA,NA,NA,right,1072,false,NA,NA,NA,NA,NA
61mwLWHX,NA,NA,61mwLWHX,2020-0188,2021-09-26,16:23:39,17:31:52,NA,incomplete,false,true,NA,9,1,origin,m_l_003.jpg,left,manmade,natural,NA,NA,NA,left,1574,true,NA,NA,NA,NA,NA
61mwLWHX,NA,NA,61mwLWHX,2020-0188,2021-09-26,16:23:39,17:31:52,NA,incomplete,false,true,NA,9,2,origin,n_l_026.jpg,right,manmade,natural,NA,NA,NA,left,2039,false,NA,NA,NA,NA,NA
61mwLWHX,NA,NA,61mwLWHX,2020-0188,2021-09-26,16:23:39,17:31:52,NA,incomplete,false,true,NA,9,3,origin,n_l_003.jpg,left,natural,manmade,NA,NA,NA,left,2674,true,NA,NA,NA,NA,NA
61mwLWHX,NA,NA,61mwLWHX,2020-0188,2021-09-26,16:23:39,17:31:52,NA,incomplete,false,true,NA,9,4,origin,n_l_012.jpg,left,natural,manmade,NA,NA,NA,left,2841.00000000047,true,NA,NA,NA,NA,NA
61mwLWHX,NA,NA,61mwLWHX,2020-0188,2021-09-26,16:23:39,17:31:52,NA,incomplete,false,true,NA,9,5,size,m_l_025.jpg,right,small,large,NA,NA,NA,right,1690.99999999953,true,NA,NA,NA,NA,NA
61mwLWHX,NA,NA,61mwLWHX,2020-0188,2021-09-26,16:23:39,17:31:52,NA,incomplete,false,true,NA,9,6,size,m_s_015.jpg,right,large,small,NA,NA,NA,right,1687.00000000047,true,NA,NA,NA,NA,NA
61mwLWHX,NA,NA,61mwLWHX,2020-0188,2021-09-26,16:23:39,17:31:52,NA,incomplete,false,true,NA,9,7,size,n_l_001.jpg,left,large,small,NA,NA,NA,left,1201,true,NA,NA,NA,NA,NA
61mwLWHX,NA,NA,61mwLWHX,2020-0188,2021-09-26,16:23:39,17:31:52,NA,incomplete,false,true,NA,9,8,size,m_s_024.jpg,left,small,large,NA,NA,NA,left,1108,true,NA,NA,NA,NA,NA
61mwLWHX,NA,NA,61mwLWHX,2020-0188,2021-09-26,16:23:39,17:31:52,NA,incomplete,false,true,NA,9,9,size,m_s_012.jpg,right,large,small,NA,NA,NA,right,1491,true,NA,NA,NA,NA,NA
61mwLWHX,NA,NA,61mwLWHX,2020-0188,2021-09-26,16:23:39,17:31:52,NA,incomplete,false,true,NA,9,10,syllable,a_2_028.jpg,right,1 syllable,2 syllables,NA,NA,NA,left,2100,false,NA,NA,NA,NA,NA
61mwLWHX,NA,NA,61mwLWHX,2020-0188,2021-09-26,16:23:39,17:31:52,NA,incomplete,false,true,NA,9,11,syllable,c_2_018.jpg,right,2 syllables,1 syllable,NA,NA,NA,right,1651,true,NA,NA,NA,NA,NA
61mwLWHX,NA,NA,61mwLWHX,2020-0188,2021-09-26,16:23:39,17:31:52,NA,incomplete,false,true,NA,9,12,syllable,a_2_015.jpg,right,1 syllable,2 syllables,NA,NA,NA,right,1298,true,NA,NA,NA,NA,NA
61mwLWHX,NA,NA,61mwLWHX,2020-0188,2021-09-26,16:23:39,17:31:52,NA,incomplete,false,true,NA,9,13,syllable,a_2_020.jpg,right,2 syllables,1 syllable,NA,NA,NA,left,1419.99999999953,false,NA,NA,NA,NA,NA
61mwLWHX,NA,NA,61mwLWHX,2020-0188,2021-09-26,16:23:39,17:31:52,NA,incomplete,false,true,NA,9,14,syllable,a_1_016.jpg,right,1 syllable,2 syllables,NA,NA,NA,left,1228,false,NA,NA,NA,NA,NA
61mwLWHX,NA,NA,61mwLWHX,2020-0188,2021-09-26,16:23:39,17:31:52,NA,incomplete,false,true,NA,9,15,abstractness,c_1_027.jpg,left,concrete,abstract,NA,NA,NA,right,2403,false,NA,NA,NA,NA,NA
61mwLWHX,NA,NA,61mwLWHX,2020-0188,2021-09-26,16:23:39,17:31:52,NA,incomplete,false,true,NA,9,16,abstractness,a_1_006.jpg,left,abstract,concrete,NA,NA,NA,left,1127,true,NA,NA,NA,NA,NA
61mwLWHX,NA,NA,61mwLWHX,2020-0188,2021-09-26,16:23:39,17:31:52,NA,incomplete,false,true,NA,9,17,abstractness,a_2_007.jpg,right,concrete,abstract,NA,NA,NA,right,2907.99999999953,true,NA,NA,NA,NA,NA
61mwLWHX,NA,NA,61mwLWHX,2020-0188,2021-09-26,16:23:39,17:31:52,NA,incomplete,false,true,NA,9,18,abstractness,a_2_022.jpg,right,concrete,abstract,NA,NA,NA,right,1883,true,NA,NA,NA,NA,NA
61mwLWHX,NA,NA,61mwLWHX,2020-0188,2021-09-26,16:23:39,17:31:52,NA,incomplete,false,true,NA,9,19,abstractness,c_1_018.jpg,left,concrete,abstract,NA,NA,NA,left,2320.00000000047,true,NA,NA,NA,NA,NA
61mwLWHX,NA,NA,61mwLWHX,2020-0188,2021-09-26,16:23:39,17:31:52,NA,incomplete,false,true,NA,9,20,location,i_s_025.jpg,left,indoor,outdoor,NA,NA,NA,left,2378,true,NA,NA,NA,NA,NA
61mwLWHX,NA,NA,61mwLWHX,2020-0188,2021-09-26,16:23:39,17:31:52,NA,incomplete,false,true,NA,9,21,location,o_s_009.jpg,right,indoor,outdoor,NA,NA,NA,left,2038,false,NA,NA,NA,NA,NA
61mwLWHX,NA,NA,61mwLWHX,2020-0188,2021-09-26,16:23:39,17:31:52,NA,incomplete,false,true,NA,9,22,location,i_s_017.jpg,left,indoor,outdoor,NA,NA,NA,left,2337,true,NA,NA,NA,NA,NA
61mwLWHX,NA,NA,61mwLWHX,2020-0188,2021-09-26,16:23:39,17:31:52,NA,incomplete,false,true,NA,9,23,location,i_s_011.jpg,left,indoor,outdoor,NA,NA,NA,left,912,true,NA,NA,NA,NA,NA
61mwLWHX,NA,NA,61mwLWHX,2020-0188,2021-09-26,16:23:39,17:31:52,NA,incomplete,false,true,NA,9,24,location,o_c_021.jpg,left,outdoor,indoor,NA,NA,NA,left,2596,true,NA,NA,NA,NA,NA
61mwLWHX,NA,NA,61mwLWHX,2020-0188,2021-09-26,16:23:39,17:31:52,NA,incomplete,false,true,NA,9,25,building,i_s_006.jpg,right,cottage,skyscraper,NA,NA,NA,right,2559,true,NA,NA,NA,NA,NA
61mwLWHX,NA,NA,61mwLWHX,2020-0188,2021-09-26,16:23:39,17:31:52,NA,incomplete,false,true,NA,9,26,building,i_c_015.jpg,right,skyscraper,cottage,NA,NA,NA,right,1371.00000000047,true,NA,NA,NA,NA,NA
61mwLWHX,NA,NA,61mwLWHX,2020-0188,2021-09-26,16:23:39,17:31:52,NA,incomplete,false,true,NA,9,27,building,o_s_022.jpg,right,cottage,skyscraper,NA,NA,NA,right,1783.99999999953,true,NA,NA,NA,NA,NA
61mwLWHX,NA,NA,61mwLWHX,2020-0188,2021-09-26,16:23:39,17:31:52,NA,incomplete,false,true,NA,9,28,building,i_s_023.jpg,right,cottage,skyscraper,NA,NA,NA,right,2243,true,NA,NA,NA,NA,NA
61mwLWHX,NA,NA,61mwLWHX,2020-0188,2021-09-26,16:23:39,17:31:52,NA,incomplete,false,true,NA,9,29,building,i_c_012.jpg,right,skyscraper,cottage,NA,NA,NA,right,2236.99999999953,true,NA,NA,NA,NA,NA
61mwLWHX,NA,NA,61mwLWHX,2020-0188,2021-09-26,16:23:39,17:31:52,NA,incomplete,false,NA,true,9,0,NA,NA,right,NA,NA,c_1_018.jpg,a_1_006.jpg,within,NA,NaN,NA,left,2167.9999999995343,0,1,833.0000000004657
61mwLWHX,NA,NA,61mwLWHX,2020-0188,2021-09-26,16:23:39,17:31:52,NA,incomplete,false,NA,true,9,1,NA,NA,right,NA,NA,a_1_016.jpg,c_2_018.jpg,within,NA,NaN,NA,left,2127,0,1,1074
61mwLWHX,NA,NA,61mwLWHX,2020-0188,2021-09-26,16:23:39,17:31:52,NA,incomplete,false,NA,true,9,2,NA,NA,right,NA,NA,i_s_011.jpg,i_s_025.jpg,within,NA,NaN,NA,right,1228.9999999995343,1,1,808
61mwLWHX,NA,NA,61mwLWHX,2020-0188,2021-09-26,16:23:39,17:31:52,NA,incomplete,false,NA,true,9,3,NA,NA,left,NA,NA,a_2_020.jpg,a_1_006.jpg,between-small,NA,NaN,NA,left,1764,1,1,777
61mwLWHX,NA,NA,61mwLWHX,2020-0188,2021-09-26,16:23:39,17:31:52,NA,incomplete,false,NA,true,9,4,NA,NA,right,NA,NA,n_l_003.jpg,n_l_008.jpg,within,NA,NaN,NA,left,679.9999999995343,0,2,1780
