workerId,hitId,assignmentId,subject,studyid,exp_date,exp_start,exp_end,time_start,time_end,practice,encoding,memory,block,trial,event,stim,answer,label_left,label_right,left_image,right_image,condition,response,response_time,response_acc,order_response,order_response_time,order_acc,distance_response,distance_response_time
9RQ73bnn,NA,NA,9RQ73bnn,2020-0188,2021-11-01,22:46:27,23:42:15,NA,incomplete,true,true,NA,0,0,building,i_s_023.jpg,right,cottage,skyscraper,NA,NA,NA,left,2173.00000000001,false,NA,NA,NA,NA,NA
9RQ73bnn,NA,NA,9RQ73bnn,2020-0188,2021-11-01,22:46:27,23:42:15,NA,incomplete,true,true,NA,0,1,building,o_s_021.jpg,left,skyscraper,cottage,NA,NA,NA,left,1195,true,NA,NA,NA,NA,NA
9RQ73bnn,NA,NA,9RQ73bnn,2020-0188,2021-11-01,22:46:27,23:42:15,NA,incomplete,true,true,NA,0,2,building,i_c_004.jpg,left,cottage,skyscraper,NA,NA,NA,left,1162,true,NA,NA,NA,NA,NA
9RQ73bnn,NA,NA,9RQ73bnn,2020-0188,2021-11-01,22:46:27,23:42:15,NA,incomplete,true,true,NA,0,3,building,o_s_026.jpg,left,skyscraper,cottage,NA,NA,NA,right,1176,false,NA,NA,NA,NA,NA
9RQ73bnn,NA,NA,9RQ73bnn,2020-0188,2021-11-01,22:46:27,23:42:15,NA,incomplete,true,true,NA,0,4,building,o_s_017.jpg,right,cottage,skyscraper,NA,NA,NA,right,1120,true,NA,NA,NA,NA,NA
9RQ73bnn,NA,NA,9RQ73bnn,2020-0188,2021-11-01,22:46:27,23:42:15,NA,incomplete,true,true,NA,0,5,location,i_c_023.jpg,right,outdoor,indoor,NA,NA,NA,right,1732,true,NA,NA,NA,NA,NA
9RQ73bnn,NA,NA,9RQ73bnn,2020-0188,2021-11-01,22:46:27,23:42:15,NA,incomplete,true,true,NA,0,6,location,i_s_013.jpg,left,indoor,outdoor,NA,NA,NA,left,1519.99999999999,true,NA,NA,NA,NA,NA
9RQ73bnn,NA,NA,9RQ73bnn,2020-0188,2021-11-01,22:46:27,23:42:15,NA,incomplete,true,true,NA,0,7,location,i_s_018.jpg,left,indoor,outdoor,NA,NA,NA,left,1113,true,NA,NA,NA,NA,NA
9RQ73bnn,NA,NA,9RQ73bnn,2020-0188,2021-11-01,22:46:27,23:42:15,NA,incomplete,true,true,NA,0,8,location,o_s_008.jpg,left,outdoor,indoor,NA,NA,NA,left,1314,true,NA,NA,NA,NA,NA
9RQ73bnn,NA,NA,9RQ73bnn,2020-0188,2021-11-01,22:46:27,23:42:15,NA,incomplete,true,true,NA,0,9,location,i_c_021.jpg,right,outdoor,indoor,NA,NA,NA,right,1379,true,NA,NA,NA,NA,NA
9RQ73bnn,NA,NA,9RQ73bnn,2020-0188,2021-11-01,22:46:27,23:42:15,NA,incomplete,true,true,NA,0,10,origin,m_l_006.jpg,left,manmade,natural,NA,NA,NA,left,1770,true,NA,NA,NA,NA,NA
9RQ73bnn,NA,NA,9RQ73bnn,2020-0188,2021-11-01,22:46:27,23:42:15,NA,incomplete,true,true,NA,0,11,origin,n_l_024.jpg,right,manmade,natural,NA,NA,NA,right,1230,true,NA,NA,NA,NA,NA
9RQ73bnn,NA,NA,9RQ73bnn,2020-0188,2021-11-01,22:46:27,23:42:15,NA,incomplete,true,true,NA,0,12,origin,m_l_028.jpg,left,manmade,natural,NA,NA,NA,left,1303,true,NA,NA,NA,NA,NA
9RQ73bnn,NA,NA,9RQ73bnn,2020-0188,2021-11-01,22:46:27,23:42:15,NA,incomplete,true,true,NA,0,13,origin,n_l_008.jpg,left,natural,manmade,NA,NA,NA,right,1495,false,NA,NA,NA,NA,NA
9RQ73bnn,NA,NA,9RQ73bnn,2020-0188,2021-11-01,22:46:27,23:42:15,NA,incomplete,true,true,NA,0,14,origin,m_s_005.jpg,right,natural,manmade,NA,NA,NA,right,1370.00000000003,true,NA,NA,NA,NA,NA
9RQ73bnn,NA,NA,9RQ73bnn,2020-0188,2021-11-01,22:46:27,23:42:15,NA,incomplete,true,true,NA,0,15,size,n_s_026.jpg,left,small,large,NA,NA,NA,left,1392,true,NA,NA,NA,NA,NA
9RQ73bnn,NA,NA,9RQ73bnn,2020-0188,2021-11-01,22:46:27,23:42:15,NA,incomplete,true,true,NA,0,16,size,m_s_016.jpg,right,large,small,NA,NA,NA,right,1465,true,NA,NA,NA,NA,NA
9RQ73bnn,NA,NA,9RQ73bnn,2020-0188,2021-11-01,22:46:27,23:42:15,NA,incomplete,true,true,NA,0,17,size,m_l_002.jpg,right,small,large,NA,NA,NA,right,1221,true,NA,NA,NA,NA,NA
9RQ73bnn,NA,NA,9RQ73bnn,2020-0188,2021-11-01,22:46:27,23:42:15,NA,incomplete,true,true,NA,0,18,size,m_l_013.jpg,left,large,small,NA,NA,NA,left,1272,true,NA,NA,NA,NA,NA
9RQ73bnn,NA,NA,9RQ73bnn,2020-0188,2021-11-01,22:46:27,23:42:15,NA,incomplete,true,true,NA,0,19,size,m_s_003.jpg,left,small,large,NA,NA,NA,left,1078,true,NA,NA,NA,NA,NA
9RQ73bnn,NA,NA,9RQ73bnn,2020-0188,2021-11-01,22:46:27,23:42:15,NA,incomplete,true,true,NA,0,20,syllable,c_1_028.jpg,right,2 syllables,1 syllable,NA,NA,NA,right,1623.99999999997,true,NA,NA,NA,NA,NA
9RQ73bnn,NA,NA,9RQ73bnn,2020-0188,2021-11-01,22:46:27,23:42:15,NA,incomplete,true,true,NA,0,21,syllable,c_1_004.jpg,right,2 syllables,1 syllable,NA,NA,NA,right,1352,true,NA,NA,NA,NA,NA
9RQ73bnn,NA,NA,9RQ73bnn,2020-0188,2021-11-01,22:46:27,23:42:15,NA,incomplete,true,true,NA,0,22,syllable,a_1_018.jpg,right,2 syllables,1 syllable,NA,NA,NA,right,1345,true,NA,NA,NA,NA,NA
9RQ73bnn,NA,NA,9RQ73bnn,2020-0188,2021-11-01,22:46:27,23:42:15,NA,incomplete,true,true,NA,0,23,syllable,a_1_003.jpg,right,1 syllable,2 syllables,NA,NA,NA,left,1445,false,NA,NA,NA,NA,NA
9RQ73bnn,NA,NA,9RQ73bnn,2020-0188,2021-11-01,22:46:27,23:42:15,NA,incomplete,true,true,NA,0,24,syllable,a_1_009.jpg,right,1 syllable,2 syllables,NA,NA,NA,left,1484,false,NA,NA,NA,NA,NA
9RQ73bnn,NA,NA,9RQ73bnn,2020-0188,2021-11-01,22:46:27,23:42:15,NA,incomplete,true,true,NA,0,25,abstractness,c_2_003.jpg,left,concrete,abstract,NA,NA,NA,left,1714.00000000003,true,NA,NA,NA,NA,NA
9RQ73bnn,NA,NA,9RQ73bnn,2020-0188,2021-11-01,22:46:27,23:42:15,NA,incomplete,true,true,NA,0,26,abstractness,c_2_026.jpg,left,concrete,abstract,NA,NA,NA,left,1611.99999999997,true,NA,NA,NA,NA,NA
9RQ73bnn,NA,NA,9RQ73bnn,2020-0188,2021-11-01,22:46:27,23:42:15,NA,incomplete,true,true,NA,0,27,abstractness,a_2_014.jpg,left,abstract,concrete,NA,NA,NA,left,2310.00000000003,true,NA,NA,NA,NA,NA
9RQ73bnn,NA,NA,9RQ73bnn,2020-0188,2021-11-01,22:46:27,23:42:15,NA,incomplete,true,true,NA,0,28,abstractness,a_2_026.jpg,right,concrete,abstract,NA,NA,NA,right,1615,true,NA,NA,NA,NA,NA
9RQ73bnn,NA,NA,9RQ73bnn,2020-0188,2021-11-01,22:46:27,23:42:15,NA,incomplete,true,true,NA,0,29,abstractness,a_2_007.jpg,right,concrete,abstract,NA,NA,NA,right,1611.99999999997,true,NA,NA,NA,NA,NA
9RQ73bnn,NA,NA,9RQ73bnn,2020-0188,2021-11-01,22:46:27,23:42:15,NA,incomplete,true,NA,true,0,0,NA,NA,right,NA,NA,a_2_014.jpg,a_1_009.jpg,between-small,NA,NaN,NA,right,6678,1,2,3660.000000000058
9RQ73bnn,NA,NA,9RQ73bnn,2020-0188,2021-11-01,22:46:27,23:42:15,NA,incomplete,true,NA,true,0,1,NA,NA,right,NA,NA,c_1_028.jpg,m_l_002.jpg,between-big,NA,NaN,NA,right,3901,1,1,1916
9RQ73bnn,NA,NA,9RQ73bnn,2020-0188,2021-11-01,22:46:27,23:42:15,NA,incomplete,true,NA,true,0,2,NA,NA,left,NA,NA,o_s_008.jpg,n_l_024.jpg,between-big,NA,NaN,NA,left,1557,1,2,2675
9RQ73bnn,NA,NA,9RQ73bnn,2020-0188,2021-11-01,22:46:27,23:42:15,NA,incomplete,true,NA,true,0,3,NA,NA,left,NA,NA,i_s_013.jpg,i_c_021.jpg,within,NA,NaN,NA,right,5682,0,1,1874
9RQ73bnn,NA,NA,9RQ73bnn,2020-0188,2021-11-01,22:46:27,23:42:15,NA,incomplete,true,NA,true,0,4,NA,NA,left,NA,NA,m_l_013.jpg,c_1_004.jpg,between-big,NA,NaN,NA,left,2030,1,3,2185.999999999942
9RQ73bnn,NA,NA,9RQ73bnn,2020-0188,2021-11-01,22:46:27,23:42:15,NA,incomplete,true,NA,true,0,5,NA,NA,left,NA,NA,c_1_004.jpg,a_1_009.jpg,within,NA,NaN,NA,left,1712,1,3,3222
9RQ73bnn,NA,NA,9RQ73bnn,2020-0188,2021-11-01,22:46:27,23:42:15,NA,incomplete,true,NA,true,0,6,NA,NA,right,NA,NA,n_l_008.jpg,m_l_006.jpg,within,NA,NaN,NA,right,2072,1,0,1810
9RQ73bnn,NA,NA,9RQ73bnn,2020-0188,2021-11-01,22:46:27,23:42:15,NA,incomplete,true,NA,true,0,7,NA,NA,left,NA,NA,o_s_021.jpg,o_s_017.jpg,within,NA,NaN,NA,left,4070.000000000058,1,0,2112
9RQ73bnn,NA,NA,9RQ73bnn,2020-0188,2021-11-01,22:46:27,23:42:15,NA,incomplete,true,NA,true,0,8,NA,NA,right,NA,NA,o_s_008.jpg,i_c_023.jpg,within,NA,NaN,NA,right,1844,1,0,1703
9RQ73bnn,NA,NA,9RQ73bnn,2020-0188,2021-11-01,22:46:27,23:42:15,NA,incomplete,true,NA,true,0,9,NA,NA,left,NA,NA,o_s_017.jpg,i_s_018.jpg,between-small,NA,NaN,NA,left,1794,1,1,1311.9999999999418
9RQ73bnn,NA,NA,9RQ73bnn,2020-0188,2021-11-01,22:46:27,23:42:15,NA,incomplete,true,NA,true,0,10,NA,NA,right,NA,NA,m_l_028.jpg,i_c_021.jpg,between-big,NA,NaN,NA,right,1524,1,2,1590
9RQ73bnn,NA,NA,9RQ73bnn,2020-0188,2021-11-01,22:46:27,23:42:15,NA,incomplete,true,NA,true,0,11,NA,NA,right,NA,NA,c_2_003.jpg,a_1_018.jpg,between-small,NA,NaN,NA,left,8418,0,1,2097
9RQ73bnn,NA,NA,9RQ73bnn,2020-0188,2021-11-01,22:46:27,23:42:15,NA,incomplete,true,NA,true,0,12,NA,NA,right,NA,NA,o_s_026.jpg,i_s_023.jpg,within,NA,NaN,NA,left,3818.000000000058,0,1,1441
9RQ73bnn,NA,NA,9RQ73bnn,2020-0188,2021-11-01,22:46:27,23:42:15,NA,incomplete,true,NA,true,0,13,NA,NA,right,NA,NA,a_2_026.jpg,c_2_003.jpg,within,NA,NaN,NA,right,1934,1,2,953
9RQ73bnn,NA,NA,9RQ73bnn,2020-0188,2021-11-01,22:46:27,23:42:15,NA,incomplete,true,NA,true,0,14,NA,NA,left,NA,NA,i_c_004.jpg,i_c_023.jpg,between-small,NA,NaN,NA,right,2707,0,1,1297.0000000000582
9RQ73bnn,NA,NA,9RQ73bnn,2020-0188,2021-11-01,22:46:27,23:42:15,NA,incomplete,true,NA,true,0,15,NA,NA,left,NA,NA,c_1_028.jpg,a_1_003.jpg,within,NA,NaN,NA,left,2397,1,1,1043
9RQ73bnn,NA,NA,9RQ73bnn,2020-0188,2021-11-01,22:46:27,23:42:15,NA,incomplete,true,NA,true,0,16,NA,NA,left,NA,NA,c_2_026.jpg,a_2_007.jpg,within,NA,NaN,NA,left,2366,1,1,879
9RQ73bnn,NA,NA,9RQ73bnn,2020-0188,2021-11-01,22:46:27,23:42:15,NA,incomplete,true,NA,true,0,17,NA,NA,left,NA,NA,i_s_018.jpg,m_l_006.jpg,between-big,NA,NaN,NA,left,1451,1,2,960.9999999999418
9RQ73bnn,NA,NA,9RQ73bnn,2020-0188,2021-11-01,22:46:27,23:42:15,NA,incomplete,true,NA,true,0,18,NA,NA,right,NA,NA,m_l_013.jpg,n_s_026.jpg,within,NA,NaN,NA,right,2395.999999999942,1,1,1433
9RQ73bnn,NA,NA,9RQ73bnn,2020-0188,2021-11-01,22:46:27,23:42:15,NA,incomplete,true,NA,true,0,19,NA,NA,right,NA,NA,n_s_026.jpg,m_l_028.jpg,between-small,NA,NaN,NA,left,1566,0,1,2830.000000000058
9RQ73bnn,NA,NA,9RQ73bnn,2020-0188,2021-11-01,22:46:27,23:42:15,NA,incomplete,true,NA,true,0,20,NA,NA,left,NA,NA,n_l_024.jpg,m_s_005.jpg,within,NA,NaN,NA,right,1679,0,1,806
9RQ73bnn,NA,NA,9RQ73bnn,2020-0188,2021-11-01,22:46:27,23:42:15,NA,incomplete,true,NA,true,0,21,NA,NA,right,NA,NA,m_s_016.jpg,n_l_008.jpg,between-small,NA,NaN,NA,right,3905,1,2,1579
9RQ73bnn,NA,NA,9RQ73bnn,2020-0188,2021-11-01,22:46:27,23:42:15,NA,incomplete,true,NA,true,0,22,NA,NA,left,NA,NA,o_s_026.jpg,i_s_013.jpg,between-small,NA,NaN,NA,left,1541,1,1,977
9RQ73bnn,NA,NA,9RQ73bnn,2020-0188,2021-11-01,22:46:27,23:42:15,NA,incomplete,true,NA,true,0,23,NA,NA,right,NA,NA,a_1_018.jpg,m_s_003.jpg,between-big,NA,NaN,NA,right,2029.9999999999418,1,1,1597
9RQ73bnn,NA,NA,9RQ73bnn,2020-0188,2021-11-01,22:46:27,23:42:15,NA,incomplete,true,NA,true,0,24,NA,NA,right,NA,NA,m_l_002.jpg,m_s_005.jpg,between-small,NA,NaN,NA,left,6875,0,2,1057.0000000000582
9RQ73bnn,NA,NA,9RQ73bnn,2020-0188,2021-11-01,22:46:27,23:42:15,NA,incomplete,true,NA,true,0,25,NA,NA,left,NA,NA,a_1_003.jpg,c_2_026.jpg,between-small,NA,NaN,NA,right,806.0000000000582,0,1,2078
9RQ73bnn,NA,NA,9RQ73bnn,2020-0188,2021-11-01,22:46:27,23:42:15,NA,incomplete,true,NA,true,0,26,NA,NA,left,NA,NA,m_s_016.jpg,m_s_003.jpg,within,NA,NaN,NA,right,825,0,0,1755
9RQ73bnn,NA,NA,9RQ73bnn,2020-0188,2021-11-01,22:46:27,23:42:15,NA,incomplete,false,true,NA,1,0,origin,n_l_009.jpg,left,natural,manmade,NA,NA,NA,left,1763,true,NA,NA,NA,NA,NA
9RQ73bnn,NA,NA,9RQ73bnn,2020-0188,2021-11-01,22:46:27,23:42:15,NA,incomplete,false,true,NA,1,1,origin,n_s_015.jpg,left,natural,manmade,NA,NA,NA,left,1738,true,NA,NA,NA,NA,NA
9RQ73bnn,NA,NA,9RQ73bnn,2020-0188,2021-11-01,22:46:27,23:42:15,NA,incomplete,false,true,NA,1,2,origin,m_s_013.jpg,left,manmade,natural,NA,NA,NA,left,1572,true,NA,NA,NA,NA,NA
9RQ73bnn,NA,NA,9RQ73bnn,2020-0188,2021-11-01,22:46:27,23:42:15,NA,incomplete,false,true,NA,1,3,origin,m_l_018.jpg,left,manmade,natural,NA,NA,NA,left,2111,true,NA,NA,NA,NA,NA
9RQ73bnn,NA,NA,9RQ73bnn,2020-0188,2021-11-01,22:46:27,23:42:15,NA,incomplete,false,true,NA,1,4,origin,n_l_013.jpg,left,natural,manmade,NA,NA,NA,left,1111,true,NA,NA,NA,NA,NA
9RQ73bnn,NA,NA,9RQ73bnn,2020-0188,2021-11-01,22:46:27,23:42:15,NA,incomplete,false,true,NA,1,5,size,n_s_028.jpg,left,small,large,NA,NA,NA,left,1598,true,NA,NA,NA,NA,NA
9RQ73bnn,NA,NA,9RQ73bnn,2020-0188,2021-11-01,22:46:27,23:42:15,NA,incomplete,false,true,NA,1,6,size,m_l_001.jpg,right,small,large,NA,NA,NA,right,1246,true,NA,NA,NA,NA,NA
9RQ73bnn,NA,NA,9RQ73bnn,2020-0188,2021-11-01,22:46:27,23:42:15,NA,incomplete,false,true,NA,1,7,size,m_s_009.jpg,left,small,large,NA,NA,NA,left,1292,true,NA,NA,NA,NA,NA
9RQ73bnn,NA,NA,9RQ73bnn,2020-0188,2021-11-01,22:46:27,23:42:15,NA,incomplete,false,true,NA,1,8,size,m_s_004.jpg,left,small,large,NA,NA,NA,left,935,true,NA,NA,NA,NA,NA
9RQ73bnn,NA,NA,9RQ73bnn,2020-0188,2021-11-01,22:46:27,23:42:15,NA,incomplete,false,true,NA,1,9,size,m_s_025.jpg,right,large,small,NA,NA,NA,right,1395.99999999994,true,NA,NA,NA,NA,NA
9RQ73bnn,NA,NA,9RQ73bnn,2020-0188,2021-11-01,22:46:27,23:42:15,NA,incomplete,false,true,NA,1,10,abstractness,a_2_028.jpg,right,concrete,abstract,NA,NA,NA,right,1848.99999999994,true,NA,NA,NA,NA,NA
9RQ73bnn,NA,NA,9RQ73bnn,2020-0188,2021-11-01,22:46:27,23:42:15,NA,incomplete,false,true,NA,1,11,abstractness,c_1_019.jpg,right,abstract,concrete,NA,NA,NA,right,1380,true,NA,NA,NA,NA,NA
9RQ73bnn,NA,NA,9RQ73bnn,2020-0188,2021-11-01,22:46:27,23:42:15,NA,incomplete,false,true,NA,1,12,abstractness,c_1_021.jpg,left,concrete,abstract,NA,NA,NA,left,1405.00000000006,true,NA,NA,NA,NA,NA
9RQ73bnn,NA,NA,9RQ73bnn,2020-0188,2021-11-01,22:46:27,23:42:15,NA,incomplete,false,true,NA,1,13,abstractness,c_2_027.jpg,right,abstract,concrete,NA,NA,NA,right,1555.00000000006,true,NA,NA,NA,NA,NA
9RQ73bnn,NA,NA,9RQ73bnn,2020-0188,2021-11-01,22:46:27,23:42:15,NA,incomplete,false,true,NA,1,14,abstractness,c_1_002.jpg,left,concrete,abstract,NA,NA,NA,left,1231,true,NA,NA,NA,NA,NA
9RQ73bnn,NA,NA,9RQ73bnn,2020-0188,2021-11-01,22:46:27,23:42:15,NA,incomplete,false,true,NA,1,15,syllable,c_1_025.jpg,right,2 syllables,1 syllable,NA,NA,NA,right,1467,true,NA,NA,NA,NA,NA
9RQ73bnn,NA,NA,9RQ73bnn,2020-0188,2021-11-01,22:46:27,23:42:15,NA,incomplete,false,true,NA,1,16,syllable,c_2_017.jpg,right,2 syllables,1 syllable,NA,NA,NA,left,1544,false,NA,NA,NA,NA,NA
9RQ73bnn,NA,NA,9RQ73bnn,2020-0188,2021-11-01,22:46:27,23:42:15,NA,incomplete,false,true,NA,1,17,syllable,c_2_022.jpg,right,2 syllables,1 syllable,NA,NA,NA,right,1122.99999999994,true,NA,NA,NA,NA,NA
9RQ73bnn,NA,NA,9RQ73bnn,2020-0188,2021-11-01,22:46:27,23:42:15,NA,incomplete,false,true,NA,1,18,syllable,c_1_018.jpg,right,2 syllables,1 syllable,NA,NA,NA,right,1049.00000000012,true,NA,NA,NA,NA,NA
9RQ73bnn,NA,NA,9RQ73bnn,2020-0188,2021-11-01,22:46:27,23:42:15,NA,incomplete,false,true,NA,1,19,syllable,a_1_027.jpg,right,1 syllable,2 syllables,NA,NA,NA,left,1323,false,NA,NA,NA,NA,NA
9RQ73bnn,NA,NA,9RQ73bnn,2020-0188,2021-11-01,22:46:27,23:42:15,NA,incomplete,false,true,NA,1,20,building,i_s_025.jpg,right,cottage,skyscraper,NA,NA,NA,right,2189,true,NA,NA,NA,NA,NA
9RQ73bnn,NA,NA,9RQ73bnn,2020-0188,2021-11-01,22:46:27,23:42:15,NA,incomplete,false,true,NA,1,21,building,i_s_007.jpg,left,skyscraper,cottage,NA,NA,NA,left,1399,true,NA,NA,NA,NA,NA
9RQ73bnn,NA,NA,9RQ73bnn,2020-0188,2021-11-01,22:46:27,23:42:15,NA,incomplete,false,true,NA,1,22,building,o_c_024.jpg,right,skyscraper,cottage,NA,NA,NA,right,1289,true,NA,NA,NA,NA,NA
9RQ73bnn,NA,NA,9RQ73bnn,2020-0188,2021-11-01,22:46:27,23:42:15,NA,incomplete,false,true,NA,1,23,building,i_c_015.jpg,right,skyscraper,cottage,NA,NA,NA,right,1507,true,NA,NA,NA,NA,NA
9RQ73bnn,NA,NA,9RQ73bnn,2020-0188,2021-11-01,22:46:27,23:42:15,NA,incomplete,false,true,NA,1,24,building,o_c_018.jpg,right,skyscraper,cottage,NA,NA,NA,right,1336,true,NA,NA,NA,NA,NA
9RQ73bnn,NA,NA,9RQ73bnn,2020-0188,2021-11-01,22:46:27,23:42:15,NA,incomplete,false,true,NA,1,25,location,o_c_009.jpg,left,outdoor,indoor,NA,NA,NA,left,1640,true,NA,NA,NA,NA,NA
9RQ73bnn,NA,NA,9RQ73bnn,2020-0188,2021-11-01,22:46:27,23:42:15,NA,incomplete,false,true,NA,1,26,location,o_s_009.jpg,left,outdoor,indoor,NA,NA,NA,left,987,true,NA,NA,NA,NA,NA
9RQ73bnn,NA,NA,9RQ73bnn,2020-0188,2021-11-01,22:46:27,23:42:15,NA,incomplete,false,true,NA,1,27,location,o_c_014.jpg,right,indoor,outdoor,NA,NA,NA,right,1343,true,NA,NA,NA,NA,NA
9RQ73bnn,NA,NA,9RQ73bnn,2020-0188,2021-11-01,22:46:27,23:42:15,NA,incomplete,false,true,NA,1,28,location,o_c_021.jpg,right,indoor,outdoor,NA,NA,NA,right,1137,true,NA,NA,NA,NA,NA
9RQ73bnn,NA,NA,9RQ73bnn,2020-0188,2021-11-01,22:46:27,23:42:15,NA,incomplete,false,true,NA,1,29,location,i_c_005.jpg,right,outdoor,indoor,NA,NA,NA,right,1473,true,NA,NA,NA,NA,NA
9RQ73bnn,NA,NA,9RQ73bnn,2020-0188,2021-11-01,22:46:27,23:42:15,NA,incomplete,false,NA,true,1,0,NA,NA,left,NA,NA,m_s_004.jpg,c_1_019.jpg,between-big,NA,NaN,NA,left,4308,1,2,1769
9RQ73bnn,NA,NA,9RQ73bnn,2020-0188,2021-11-01,22:46:27,23:42:15,NA,incomplete,false,NA,true,1,1,NA,NA,left,NA,NA,m_l_001.jpg,m_s_025.jpg,within,NA,NaN,NA,left,1949,1,1,913
9RQ73bnn,NA,NA,9RQ73bnn,2020-0188,2021-11-01,22:46:27,23:42:15,NA,incomplete,false,NA,true,1,2,NA,NA,right,NA,NA,m_l_001.jpg,m_l_018.jpg,between-small,NA,NaN,NA,left,5002,0,1,1223
9RQ73bnn,NA,NA,9RQ73bnn,2020-0188,2021-11-01,22:46:27,23:42:15,NA,incomplete,false,NA,true,1,3,NA,NA,left,NA,NA,c_1_018.jpg,i_s_007.jpg,between-big,NA,NaN,NA,right,2440.0000000001164,0,2,1245.9999999998836
9RQ73bnn,NA,NA,9RQ73bnn,2020-0188,2021-11-01,22:46:27,23:42:15,NA,incomplete,false,NA,true,1,4,NA,NA,right,NA,NA,m_l_018.jpg,n_l_009.jpg,within,NA,NaN,NA,right,2545,1,2,1099.0000000001164
9RQ73bnn,NA,NA,9RQ73bnn,2020-0188,2021-11-01,22:46:27,23:42:15,NA,incomplete,false,NA,true,1,5,NA,NA,right,NA,NA,i_c_005.jpg,o_s_009.jpg,within,NA,NaN,NA,right,4135,1,2,1946.0000000001164
9RQ73bnn,NA,NA,9RQ73bnn,2020-0188,2021-11-01,22:46:27,23:42:15,NA,incomplete,false,NA,true,1,6,NA,NA,left,NA,NA,n_s_015.jpg,n_l_013.jpg,within,NA,NaN,NA,left,1793.0000000001164,1,1,2267
9RQ73bnn,NA,NA,9RQ73bnn,2020-0188,2021-11-01,22:46:27,23:42:15,NA,incomplete,false,NA,true,1,7,NA,NA,right,NA,NA,c_2_017.jpg,c_2_027.jpg,between-small,NA,NaN,NA,left,2172,0,1,1075
9RQ73bnn,NA,NA,9RQ73bnn,2020-0188,2021-11-01,22:46:27,23:42:15,NA,incomplete,false,NA,true,1,8,NA,NA,right,NA,NA,m_s_004.jpg,n_s_028.jpg,within,NA,NaN,NA,right,2129,1,1,962
9RQ73bnn,NA,NA,9RQ73bnn,2020-0188,2021-11-01,22:46:27,23:42:15,NA,incomplete,false,NA,true,1,9,NA,NA,right,NA,NA,o_c_024.jpg,a_1_027.jpg,between-big,NA,NaN,NA,right,2450.0000000001164,1,2,813.9999999998836
9RQ73bnn,NA,NA,9RQ73bnn,2020-0188,2021-11-01,22:46:27,23:42:15,NA,incomplete,false,NA,true,1,10,NA,NA,right,NA,NA,c_2_027.jpg,a_2_028.jpg,within,NA,NaN,NA,right,2155.9999999998836,1,1,979
9RQ73bnn,NA,NA,9RQ73bnn,2020-0188,2021-11-01,22:46:27,23:42:15,NA,incomplete,false,NA,true,1,11,NA,NA,right,NA,NA,m_s_009.jpg,n_l_013.jpg,between-small,NA,NaN,NA,left,2069,0,1,2014
9RQ73bnn,NA,NA,9RQ73bnn,2020-0188,2021-11-01,22:46:27,23:42:15,NA,incomplete,false,NA,true,1,12,NA,NA,left,NA,NA,c_2_017.jpg,a_1_027.jpg,within,NA,NaN,NA,left,2681,1,1,1361
9RQ73bnn,NA,NA,9RQ73bnn,2020-0188,2021-11-01,22:46:27,23:42:15,NA,incomplete,false,NA,true,1,13,NA,NA,right,NA,NA,n_s_028.jpg,m_s_013.jpg,between-small,NA,NaN,NA,left,1622,0,2,3891
9RQ73bnn,NA,NA,9RQ73bnn,2020-0188,2021-11-01,22:46:27,23:42:15,NA,incomplete,false,NA,true,1,14,NA,NA,right,NA,NA,i_s_025.jpg,c_2_022.jpg,between-big,NA,NaN,NA,right,3607.0000000001164,1,2,1974
9RQ73bnn,NA,NA,9RQ73bnn,2020-0188,2021-11-01,22:46:27,23:42:15,NA,incomplete,false,NA,true,1,15,NA,NA,right,NA,NA,o_c_014.jpg,o_c_018.jpg,between-small,NA,NaN,NA,right,1403,1,2,1409.0000000001164
9RQ73bnn,NA,NA,9RQ73bnn,2020-0188,2021-11-01,22:46:27,23:42:15,NA,incomplete,false,NA,true,1,16,NA,NA,left,NA,NA,m_s_025.jpg,c_1_021.jpg,between-big,NA,NaN,NA,left,1018,1,2,1606
9RQ73bnn,NA,NA,9RQ73bnn,2020-0188,2021-11-01,22:46:27,23:42:15,NA,incomplete,false,NA,true,1,17,NA,NA,left,NA,NA,m_s_009.jpg,a_2_028.jpg,between-big,NA,NaN,NA,left,3681.0000000001164,1,2,2128
9RQ73bnn,NA,NA,9RQ73bnn,2020-0188,2021-11-01,22:46:27,23:42:15,NA,incomplete,false,NA,true,1,18,NA,NA,right,NA,NA,o_c_021.jpg,o_c_009.jpg,within,NA,NaN,NA,right,2439,1,2,943
9RQ73bnn,NA,NA,9RQ73bnn,2020-0188,2021-11-01,22:46:27,23:42:15,NA,incomplete,false,NA,true,1,19,NA,NA,left,NA,NA,c_1_019.jpg,c_1_002.jpg,within,NA,NaN,NA,left,2078,1,2,1165.9999999998836
9RQ73bnn,NA,NA,9RQ73bnn,2020-0188,2021-11-01,22:46:27,23:42:15,NA,incomplete,false,NA,true,1,20,NA,NA,right,NA,NA,c_1_025.jpg,c_1_021.jpg,between-small,NA,NaN,NA,right,1811,1,1,1337
9RQ73bnn,NA,NA,9RQ73bnn,2020-0188,2021-11-01,22:46:27,23:42:15,NA,incomplete,false,NA,true,1,21,NA,NA,right,NA,NA,o_c_018.jpg,i_s_007.jpg,within,NA,NaN,NA,right,1124,1,1,1175
9RQ73bnn,NA,NA,9RQ73bnn,2020-0188,2021-11-01,22:46:27,23:42:15,NA,incomplete,false,NA,true,1,22,NA,NA,right,NA,NA,c_2_022.jpg,c_1_002.jpg,between-small,NA,NaN,NA,left,1018.9999999998836,0,1,2308
9RQ73bnn,NA,NA,9RQ73bnn,2020-0188,2021-11-01,22:46:27,23:42:15,NA,incomplete,false,NA,true,1,23,NA,NA,left,NA,NA,o_c_024.jpg,o_c_009.jpg,between-small,NA,NaN,NA,right,465.0000000001164,0,1,1875
9RQ73bnn,NA,NA,9RQ73bnn,2020-0188,2021-11-01,22:46:27,23:42:15,NA,incomplete,false,NA,true,1,24,NA,NA,left,NA,NA,i_s_025.jpg,i_c_015.jpg,within,NA,NaN,NA,right,3067,0,1,1460
9RQ73bnn,NA,NA,9RQ73bnn,2020-0188,2021-11-01,22:46:27,23:42:15,NA,incomplete,false,NA,true,1,25,NA,NA,right,NA,NA,o_s_009.jpg,i_c_015.jpg,between-small,NA,NaN,NA,left,3791,0,2,944
9RQ73bnn,NA,NA,9RQ73bnn,2020-0188,2021-11-01,22:46:27,23:42:15,NA,incomplete,false,NA,true,1,26,NA,NA,left,NA,NA,c_1_025.jpg,c_1_018.jpg,within,NA,NaN,NA,right,1679,0,1,1941
9RQ73bnn,NA,NA,9RQ73bnn,2020-0188,2021-11-01,22:46:27,23:42:15,NA,incomplete,false,true,NA,2,0,location,o_s_015.jpg,right,indoor,outdoor,NA,NA,NA,right,1418,true,NA,NA,NA,NA,NA
9RQ73bnn,NA,NA,9RQ73bnn,2020-0188,2021-11-01,22:46:27,23:42:15,NA,incomplete,false,true,NA,2,1,location,o_c_004.jpg,left,outdoor,indoor,NA,NA,NA,left,1278,true,NA,NA,NA,NA,NA
9RQ73bnn,NA,NA,9RQ73bnn,2020-0188,2021-11-01,22:46:27,23:42:15,NA,incomplete,false,true,NA,2,2,location,o_c_011.jpg,right,indoor,outdoor,NA,NA,NA,right,1435,true,NA,NA,NA,NA,NA
9RQ73bnn,NA,NA,9RQ73bnn,2020-0188,2021-11-01,22:46:27,23:42:15,NA,incomplete,false,true,NA,2,3,location,i_s_020.jpg,left,indoor,outdoor,NA,NA,NA,left,1331,true,NA,NA,NA,NA,NA
9RQ73bnn,NA,NA,9RQ73bnn,2020-0188,2021-11-01,22:46:27,23:42:15,NA,incomplete,false,true,NA,2,4,location,i_c_003.jpg,left,indoor,outdoor,NA,NA,NA,left,2183,true,NA,NA,NA,NA,NA
9RQ73bnn,NA,NA,9RQ73bnn,2020-0188,2021-11-01,22:46:27,23:42:15,NA,incomplete,false,true,NA,2,5,building,i_s_017.jpg,right,cottage,skyscraper,NA,NA,NA,right,1886,true,NA,NA,NA,NA,NA
9RQ73bnn,NA,NA,9RQ73bnn,2020-0188,2021-11-01,22:46:27,23:42:15,NA,incomplete,false,true,NA,2,6,building,i_s_002.jpg,right,cottage,skyscraper,NA,NA,NA,right,2398,true,NA,NA,NA,NA,NA
9RQ73bnn,NA,NA,9RQ73bnn,2020-0188,2021-11-01,22:46:27,23:42:15,NA,incomplete,false,true,NA,2,7,building,o_c_027.jpg,left,cottage,skyscraper,NA,NA,NA,left,1229,true,NA,NA,NA,NA,NA
9RQ73bnn,NA,NA,9RQ73bnn,2020-0188,2021-11-01,22:46:27,23:42:15,NA,incomplete,false,true,NA,2,8,building,o_s_014.jpg,right,cottage,skyscraper,NA,NA,NA,right,1147.00000000012,true,NA,NA,NA,NA,NA
9RQ73bnn,NA,NA,9RQ73bnn,2020-0188,2021-11-01,22:46:27,23:42:15,NA,incomplete,false,true,NA,2,9,building,o_s_025.jpg,left,skyscraper,cottage,NA,NA,NA,left,1385,true,NA,NA,NA,NA,NA
9RQ73bnn,NA,NA,9RQ73bnn,2020-0188,2021-11-01,22:46:27,23:42:15,NA,incomplete,false,true,NA,2,10,syllable,c_2_013.jpg,right,2 syllables,1 syllable,NA,NA,NA,left,2236,false,NA,NA,NA,NA,NA
9RQ73bnn,NA,NA,9RQ73bnn,2020-0188,2021-11-01,22:46:27,23:42:15,NA,incomplete,false,true,NA,2,11,syllable,a_1_010.jpg,right,1 syllable,2 syllables,NA,NA,NA,left,1349,false,NA,NA,NA,NA,NA
9RQ73bnn,NA,NA,9RQ73bnn,2020-0188,2021-11-01,22:46:27,23:42:15,NA,incomplete,false,true,NA,2,12,syllable,a_2_025.jpg,right,2 syllables,1 syllable,NA,NA,NA,left,1838.99999999988,false,NA,NA,NA,NA,NA
9RQ73bnn,NA,NA,9RQ73bnn,2020-0188,2021-11-01,22:46:27,23:42:15,NA,incomplete,false,true,NA,2,13,syllable,a_2_022.jpg,right,1 syllable,2 syllables,NA,NA,NA,right,1427,true,NA,NA,NA,NA,NA
9RQ73bnn,NA,NA,9RQ73bnn,2020-0188,2021-11-01,22:46:27,23:42:15,NA,incomplete,false,true,NA,2,14,syllable,a_2_012.jpg,right,2 syllables,1 syllable,NA,NA,NA,left,1593,false,NA,NA,NA,NA,NA
9RQ73bnn,NA,NA,9RQ73bnn,2020-0188,2021-11-01,22:46:27,23:42:15,NA,incomplete,false,true,NA,2,15,abstractness,a_2_027.jpg,left,abstract,concrete,NA,NA,NA,left,2701.00000000012,true,NA,NA,NA,NA,NA
9RQ73bnn,NA,NA,9RQ73bnn,2020-0188,2021-11-01,22:46:27,23:42:15,NA,incomplete,false,true,NA,2,16,abstractness,a_2_015.jpg,left,abstract,concrete,NA,NA,NA,left,1808,true,NA,NA,NA,NA,NA
9RQ73bnn,NA,NA,9RQ73bnn,2020-0188,2021-11-01,22:46:27,23:42:15,NA,incomplete,false,true,NA,2,17,abstractness,a_1_028.jpg,left,abstract,concrete,NA,NA,NA,right,1961,false,NA,NA,NA,NA,NA
9RQ73bnn,NA,NA,9RQ73bnn,2020-0188,2021-11-01,22:46:27,23:42:15,NA,incomplete,false,true,NA,2,18,abstractness,c_2_002.jpg,left,concrete,abstract,NA,NA,NA,left,1424.99999999988,true,NA,NA,NA,NA,NA
9RQ73bnn,NA,NA,9RQ73bnn,2020-0188,2021-11-01,22:46:27,23:42:15,NA,incomplete,false,true,NA,2,19,abstractness,c_1_023.jpg,right,abstract,concrete,NA,NA,NA,right,1624,true,NA,NA,NA,NA,NA
9RQ73bnn,NA,NA,9RQ73bnn,2020-0188,2021-11-01,22:46:27,23:42:15,NA,incomplete,false,true,NA,2,20,size,n_s_019.jpg,right,large,small,NA,NA,NA,right,1881,true,NA,NA,NA,NA,NA
9RQ73bnn,NA,NA,9RQ73bnn,2020-0188,2021-11-01,22:46:27,23:42:15,NA,incomplete,false,true,NA,2,21,size,n_s_009.jpg,right,large,small,NA,NA,NA,right,1271,true,NA,NA,NA,NA,NA
9RQ73bnn,NA,NA,9RQ73bnn,2020-0188,2021-11-01,22:46:27,23:42:15,NA,incomplete,false,true,NA,2,22,size,m_l_025.jpg,left,large,small,NA,NA,NA,left,988,true,NA,NA,NA,NA,NA
9RQ73bnn,NA,NA,9RQ73bnn,2020-0188,2021-11-01,22:46:27,23:42:15,NA,incomplete,false,true,NA,2,23,size,n_s_001.jpg,left,small,large,NA,NA,NA,left,1558.00000000012,true,NA,NA,NA,NA,NA
9RQ73bnn,NA,NA,9RQ73bnn,2020-0188,2021-11-01,22:46:27,23:42:15,NA,incomplete,false,true,NA,2,24,size,n_s_017.jpg,left,small,large,NA,NA,NA,left,1369,true,NA,NA,NA,NA,NA
9RQ73bnn,NA,NA,9RQ73bnn,2020-0188,2021-11-01,22:46:27,23:42:15,NA,incomplete,false,true,NA,2,25,origin,n_s_004.jpg,left,natural,manmade,NA,NA,NA,left,1586,true,NA,NA,NA,NA,NA
9RQ73bnn,NA,NA,9RQ73bnn,2020-0188,2021-11-01,22:46:27,23:42:15,NA,incomplete,false,true,NA,2,26,origin,n_l_011.jpg,left,natural,manmade,NA,NA,NA,left,1242,true,NA,NA,NA,NA,NA
9RQ73bnn,NA,NA,9RQ73bnn,2020-0188,2021-11-01,22:46:27,23:42:15,NA,incomplete,false,true,NA,2,27,origin,m_s_006.jpg,left,manmade,natural,NA,NA,NA,left,1543,true,NA,NA,NA,NA,NA
9RQ73bnn,NA,NA,9RQ73bnn,2020-0188,2021-11-01,22:46:27,23:42:15,NA,incomplete,false,true,NA,2,28,origin,m_l_015.jpg,right,natural,manmade,NA,NA,NA,right,1270.99999999988,true,NA,NA,NA,NA,NA
9RQ73bnn,NA,NA,9RQ73bnn,2020-0188,2021-11-01,22:46:27,23:42:15,NA,incomplete,false,true,NA,2,29,origin,n_l_001.jpg,left,natural,manmade,NA,NA,NA,left,1201,true,NA,NA,NA,NA,NA
9RQ73bnn,NA,NA,9RQ73bnn,2020-0188,2021-11-01,22:46:27,23:42:15,NA,incomplete,false,NA,true,2,0,NA,NA,left,NA,NA,m_l_025.jpg,n_s_004.jpg,between-small,NA,NaN,NA,right,8842,0,2,927
9RQ73bnn,NA,NA,9RQ73bnn,2020-0188,2021-11-01,22:46:27,23:42:15,NA,incomplete,false,NA,true,2,1,NA,NA,right,NA,NA,a_1_028.jpg,a_2_012.jpg,between-small,NA,NaN,NA,right,3662,1,2,985
9RQ73bnn,NA,NA,9RQ73bnn,2020-0188,2021-11-01,22:46:27,23:42:15,NA,incomplete,false,NA,true,2,2,NA,NA,left,NA,NA,a_1_028.jpg,n_s_019.jpg,between-big,NA,NaN,NA,left,6011,1,2,994
9RQ73bnn,NA,NA,9RQ73bnn,2020-0188,2021-11-01,22:46:27,23:42:15,NA,incomplete,false,NA,true,2,3,NA,NA,right,NA,NA,a_2_025.jpg,o_s_025.jpg,between-big,NA,NaN,NA,right,3434,1,2,1402
9RQ73bnn,NA,NA,9RQ73bnn,2020-0188,2021-11-01,22:46:27,23:42:15,NA,incomplete,false,NA,true,2,4,NA,NA,right,NA,NA,n_s_001.jpg,n_s_019.jpg,within,NA,NaN,NA,left,2781,0,1,1077
9RQ73bnn,NA,NA,9RQ73bnn,2020-0188,2021-11-01,22:46:27,23:42:15,NA,incomplete,false,NA,true,2,5,NA,NA,left,NA,NA,a_2_022.jpg,a_2_015.jpg,between-small,NA,NaN,NA,left,3492,1,2,1609.0000000001164
9RQ73bnn,NA,NA,9RQ73bnn,2020-0188,2021-11-01,22:46:27,23:42:15,NA,incomplete,false,NA,true,2,6,NA,NA,right,NA,NA,i_c_003.jpg,o_c_004.jpg,within,NA,NaN,NA,left,6241,0,1,1493
9RQ73bnn,NA,NA,9RQ73bnn,2020-0188,2021-11-01,22:46:27,23:42:15,NA,incomplete,false,NA,true,2,7,NA,NA,right,NA,NA,m_l_015.jpg,n_s_004.jpg,within,NA,NaN,NA,left,1165,0,1,798
9RQ73bnn,NA,NA,9RQ73bnn,2020-0188,2021-11-01,22:46:27,23:42:15,NA,incomplete,false,NA,true,2,8,NA,NA,left,NA,NA,i_s_020.jpg,i_s_002.jpg,between-small,NA,NaN,NA,right,3936.0000000001164,0,1,1150
9RQ73bnn,NA,NA,9RQ73bnn,2020-0188,2021-11-01,22:46:27,23:42:15,NA,incomplete,false,NA,true,2,9,NA,NA,right,NA,NA,i_s_017.jpg,o_c_011.jpg,between-small,NA,NaN,NA,left,2366,0,1,4845
9RQ73bnn,NA,NA,9RQ73bnn,2020-0188,2021-11-01,22:46:27,23:42:15,NA,incomplete,false,NA,true,2,10,NA,NA,right,NA,NA,c_1_023.jpg,a_2_015.jpg,within,NA,NaN,NA,left,1019,0,2,1580
9RQ73bnn,NA,NA,9RQ73bnn,2020-0188,2021-11-01,22:46:27,23:42:15,NA,incomplete,false,NA,true,2,11,NA,NA,right,NA,NA,i_s_020.jpg,o_s_015.jpg,within,NA,NaN,NA,left,1433.9999999998836,0,2,2151.0000000001164
9RQ73bnn,NA,NA,9RQ73bnn,2020-0188,2021-11-01,22:46:27,23:42:15,NA,incomplete,false,NA,true,2,12,NA,NA,right,NA,NA,o_c_027.jpg,i_c_003.jpg,between-small,NA,NaN,NA,right,3614,1,1,4152.999999999884
9RQ73bnn,NA,NA,9RQ73bnn,2020-0188,2021-11-01,22:46:27,23:42:15,NA,incomplete,false,NA,true,2,13,NA,NA,left,NA,NA,a_2_027.jpg,c_2_002.jpg,within,NA,NaN,NA,right,706,0,2,1076
9RQ73bnn,NA,NA,9RQ73bnn,2020-0188,2021-11-01,22:46:27,23:42:15,NA,incomplete,false,NA,true,2,14,NA,NA,left,NA,NA,i_s_002.jpg,o_s_025.jpg,within,NA,NaN,NA,left,439,1,1,757
9RQ73bnn,NA,NA,9RQ73bnn,2020-0188,2021-11-01,22:46:27,23:42:15,NA,incomplete,false,NA,true,2,15,NA,NA,right,NA,NA,m_l_025.jpg,c_1_023.jpg,between-big,NA,NaN,NA,left,570,0,2,1391
9RQ73bnn,NA,NA,9RQ73bnn,2020-0188,2021-11-01,22:46:27,23:42:15,NA,incomplete,false,NA,true,2,16,NA,NA,left,NA,NA,i_s_017.jpg,o_s_014.jpg,within,NA,NaN,NA,left,594,1,1,886
9RQ73bnn,NA,NA,9RQ73bnn,2020-0188,2021-11-01,22:46:27,23:42:15,NA,incomplete,false,NA,true,2,17,NA,NA,right,NA,NA,n_l_001.jpg,n_l_011.jpg,within,NA,NaN,NA,right,536.0000000001164,1,1,961
9RQ73bnn,NA,NA,9RQ73bnn,2020-0188,2021-11-01,22:46:27,23:42:15,NA,incomplete,false,NA,true,2,18,NA,NA,right,NA,NA,a_2_027.jpg,a_2_025.jpg,between-small,NA,NaN,NA,left,3856,0,1,1827
9RQ73bnn,NA,NA,9RQ73bnn,2020-0188,2021-11-01,22:46:27,23:42:15,NA,incomplete,false,NA,true,2,19,NA,NA,right,NA,NA,m_s_006.jpg,n_s_017.jpg,between-small,NA,NaN,NA,left,676,0,2,1686
9RQ73bnn,NA,NA,9RQ73bnn,2020-0188,2021-11-01,22:46:27,23:42:15,NA,incomplete,false,NA,true,2,20,NA,NA,left,NA,NA,c_2_013.jpg,a_2_022.jpg,within,NA,NaN,NA,left,651,1,1,757
9RQ73bnn,NA,NA,9RQ73bnn,2020-0188,2021-11-01,22:46:27,23:42:15,NA,incomplete,false,NA,true,2,21,NA,NA,left,NA,NA,o_c_027.jpg,c_2_013.jpg,between-big,NA,NaN,NA,right,1258.0000000001164,0,2,1646.9999999998836
9RQ73bnn,NA,NA,9RQ73bnn,2020-0188,2021-11-01,22:46:27,23:42:15,NA,incomplete,false,NA,true,2,22,NA,NA,right,NA,NA,n_l_011.jpg,n_s_001.jpg,between-small,NA,NaN,NA,left,731,0,1,952
9RQ73bnn,NA,NA,9RQ73bnn,2020-0188,2021-11-01,22:46:27,23:42:15,NA,incomplete,false,NA,true,2,23,NA,NA,right,NA,NA,a_2_012.jpg,a_1_010.jpg,within,NA,NaN,NA,left,904,0,2,1573
9RQ73bnn,NA,NA,9RQ73bnn,2020-0188,2021-11-01,22:46:27,23:42:15,NA,incomplete,false,NA,true,2,24,NA,NA,left,NA,NA,c_2_002.jpg,n_s_009.jpg,between-big,NA,NaN,NA,left,3327,1,1,3993.9999999998836
9RQ73bnn,NA,NA,9RQ73bnn,2020-0188,2021-11-01,22:46:27,23:42:15,NA,incomplete,false,NA,true,2,25,NA,NA,left,NA,NA,n_s_009.jpg,n_s_017.jpg,within,NA,NaN,NA,left,2683.9999999998836,1,1,1907.9999999998836
9RQ73bnn,NA,NA,9RQ73bnn,2020-0188,2021-11-01,22:46:27,23:42:15,NA,incomplete,false,NA,true,2,26,NA,NA,left,NA,NA,o_s_014.jpg,a_1_010.jpg,between-big,NA,NaN,NA,left,1198,1,2,1680
9RQ73bnn,NA,NA,9RQ73bnn,2020-0188,2021-11-01,22:46:27,23:42:15,NA,incomplete,false,true,NA,3,0,building,i_s_011.jpg,left,skyscraper,cottage,NA,NA,NA,left,1525,true,NA,NA,NA,NA,NA
9RQ73bnn,NA,NA,9RQ73bnn,2020-0188,2021-11-01,22:46:27,23:42:15,NA,incomplete,false,true,NA,3,1,building,o_c_019.jpg,left,cottage,skyscraper,NA,NA,NA,left,2477,true,NA,NA,NA,NA,NA
9RQ73bnn,NA,NA,9RQ73bnn,2020-0188,2021-11-01,22:46:27,23:42:15,NA,incomplete,false,true,NA,3,2,building,i_s_010.jpg,left,skyscraper,cottage,NA,NA,NA,left,1694,true,NA,NA,NA,NA,NA
9RQ73bnn,NA,NA,9RQ73bnn,2020-0188,2021-11-01,22:46:27,23:42:15,NA,incomplete,false,true,NA,3,3,building,o_c_008.jpg,right,skyscraper,cottage,NA,NA,NA,right,1427,true,NA,NA,NA,NA,NA
9RQ73bnn,NA,NA,9RQ73bnn,2020-0188,2021-11-01,22:46:27,23:42:15,NA,incomplete,false,true,NA,3,4,building,o_c_010.jpg,left,cottage,skyscraper,NA,NA,NA,left,1548,true,NA,NA,NA,NA,NA
9RQ73bnn,NA,NA,9RQ73bnn,2020-0188,2021-11-01,22:46:27,23:42:15,NA,incomplete,false,true,NA,3,5,location,i_s_028.jpg,right,outdoor,indoor,NA,NA,NA,right,1521,true,NA,NA,NA,NA,NA
9RQ73bnn,NA,NA,9RQ73bnn,2020-0188,2021-11-01,22:46:27,23:42:15,NA,incomplete,false,true,NA,3,6,location,o_s_022.jpg,left,outdoor,indoor,NA,NA,NA,left,1548,true,NA,NA,NA,NA,NA
9RQ73bnn,NA,NA,9RQ73bnn,2020-0188,2021-11-01,22:46:27,23:42:15,NA,incomplete,false,true,NA,3,7,location,i_s_022.jpg,left,indoor,outdoor,NA,NA,NA,left,2264,true,NA,NA,NA,NA,NA
9RQ73bnn,NA,NA,9RQ73bnn,2020-0188,2021-11-01,22:46:27,23:42:15,NA,incomplete,false,true,NA,3,8,location,i_c_014.jpg,left,indoor,outdoor,NA,NA,NA,left,1301,true,NA,NA,NA,NA,NA
9RQ73bnn,NA,NA,9RQ73bnn,2020-0188,2021-11-01,22:46:27,23:42:15,NA,incomplete,false,true,NA,3,9,location,i_c_006.jpg,left,indoor,outdoor,NA,NA,NA,left,2012,true,NA,NA,NA,NA,NA
9RQ73bnn,NA,NA,9RQ73bnn,2020-0188,2021-11-01,22:46:27,23:42:15,NA,incomplete,false,true,NA,3,10,syllable,a_2_013.jpg,right,1 syllable,2 syllables,NA,NA,NA,right,2688.99999999977,true,NA,NA,NA,NA,NA
9RQ73bnn,NA,NA,9RQ73bnn,2020-0188,2021-11-01,22:46:27,23:42:15,NA,incomplete,false,true,NA,3,11,syllable,a_1_019.jpg,right,2 syllables,1 syllable,NA,NA,NA,right,1316,true,NA,NA,NA,NA,NA
9RQ73bnn,NA,NA,9RQ73bnn,2020-0188,2021-11-01,22:46:27,23:42:15,NA,incomplete,false,true,NA,3,12,syllable,c_1_017.jpg,right,1 syllable,2 syllables,NA,NA,NA,left,1041,false,NA,NA,NA,NA,NA
9RQ73bnn,NA,NA,9RQ73bnn,2020-0188,2021-11-01,22:46:27,23:42:15,NA,incomplete,false,true,NA,3,13,syllable,c_1_024.jpg,right,2 syllables,1 syllable,NA,NA,NA,right,1200.00000000023,true,NA,NA,NA,NA,NA
9RQ73bnn,NA,NA,9RQ73bnn,2020-0188,2021-11-01,22:46:27,23:42:15,NA,incomplete,false,true,NA,3,14,syllable,c_2_019.jpg,right,1 syllable,2 syllables,NA,NA,NA,right,1845,true,NA,NA,NA,NA,NA
9RQ73bnn,NA,NA,9RQ73bnn,2020-0188,2021-11-01,22:46:27,23:42:15,NA,incomplete,false,true,NA,3,15,abstractness,a_1_023.jpg,left,abstract,concrete,NA,NA,NA,left,2399.00000000023,true,NA,NA,NA,NA,NA
9RQ73bnn,NA,NA,9RQ73bnn,2020-0188,2021-11-01,22:46:27,23:42:15,NA,incomplete,false,true,NA,3,16,abstractness,a_1_006.jpg,right,concrete,abstract,NA,NA,NA,right,1687,true,NA,NA,NA,NA,NA
9RQ73bnn,NA,NA,9RQ73bnn,2020-0188,2021-11-01,22:46:27,23:42:15,NA,incomplete,false,true,NA,3,17,abstractness,a_1_026.jpg,right,concrete,abstract,NA,NA,NA,right,1689,true,NA,NA,NA,NA,NA
9RQ73bnn,NA,NA,9RQ73bnn,2020-0188,2021-11-01,22:46:27,23:42:15,NA,incomplete,false,true,NA,3,18,abstractness,a_2_011.jpg,left,abstract,concrete,NA,NA,NA,left,1152.00000000023,true,NA,NA,NA,NA,NA
9RQ73bnn,NA,NA,9RQ73bnn,2020-0188,2021-11-01,22:46:27,23:42:15,NA,incomplete,false,true,NA,3,19,abstractness,a_1_012.jpg,left,abstract,concrete,NA,NA,NA,left,1115,true,NA,NA,NA,NA,NA
9RQ73bnn,NA,NA,9RQ73bnn,2020-0188,2021-11-01,22:46:27,23:42:15,NA,incomplete,false,true,NA,3,20,origin,n_s_023.jpg,left,natural,manmade,NA,NA,NA,left,1675,true,NA,NA,NA,NA,NA
9RQ73bnn,NA,NA,9RQ73bnn,2020-0188,2021-11-01,22:46:27,23:42:15,NA,incomplete,false,true,NA,3,21,origin,n_s_025.jpg,left,natural,manmade,NA,NA,NA,left,1369,true,NA,NA,NA,NA,NA
9RQ73bnn,NA,NA,9RQ73bnn,2020-0188,2021-11-01,22:46:27,23:42:15,NA,incomplete,false,true,NA,3,22,origin,m_l_023.jpg,right,natural,manmade,NA,NA,NA,right,1021,true,NA,NA,NA,NA,NA
9RQ73bnn,NA,NA,9RQ73bnn,2020-0188,2021-11-01,22:46:27,23:42:15,NA,incomplete,false,true,NA,3,23,origin,n_s_021.jpg,left,natural,manmade,NA,NA,NA,left,852.000000000233,true,NA,NA,NA,NA,NA
9RQ73bnn,NA,NA,9RQ73bnn,2020-0188,2021-11-01,22:46:27,23:42:15,NA,incomplete,false,true,NA,3,24,origin,n_l_023.jpg,right,manmade,natural,NA,NA,NA,right,1306,true,NA,NA,NA,NA,NA
9RQ73bnn,NA,NA,9RQ73bnn,2020-0188,2021-11-01,22:46:27,23:42:15,NA,incomplete,false,true,NA,3,25,size,n_s_013.jpg,left,small,large,NA,NA,NA,left,1902,true,NA,NA,NA,NA,NA
9RQ73bnn,NA,NA,9RQ73bnn,2020-0188,2021-11-01,22:46:27,23:42:15,NA,incomplete,false,true,NA,3,26,size,m_s_001.jpg,right,large,small,NA,NA,NA,right,1442,true,NA,NA,NA,NA,NA
9RQ73bnn,NA,NA,9RQ73bnn,2020-0188,2021-11-01,22:46:27,23:42:15,NA,incomplete,false,true,NA,3,27,size,n_l_018.jpg,right,small,large,NA,NA,NA,right,1134,true,NA,NA,NA,NA,NA
9RQ73bnn,NA,NA,9RQ73bnn,2020-0188,2021-11-01,22:46:27,23:42:15,NA,incomplete,false,true,NA,3,28,size,n_l_015.jpg,right,small,large,NA,NA,NA,right,1282,true,NA,NA,NA,NA,NA
9RQ73bnn,NA,NA,9RQ73bnn,2020-0188,2021-11-01,22:46:27,23:42:15,NA,incomplete,false,true,NA,3,29,size,n_l_022.jpg,left,large,small,NA,NA,NA,left,1286,true,NA,NA,NA,NA,NA
9RQ73bnn,NA,NA,9RQ73bnn,2020-0188,2021-11-01,22:46:27,23:42:15,NA,incomplete,false,NA,true,3,0,NA,NA,left,NA,NA,a_1_023.jpg,a_2_011.jpg,within,NA,NaN,NA,right,2405,0,1,1012
9RQ73bnn,NA,NA,9RQ73bnn,2020-0188,2021-11-01,22:46:27,23:42:15,NA,incomplete,false,NA,true,3,1,NA,NA,right,NA,NA,n_s_013.jpg,m_l_023.jpg,between-small,NA,NaN,NA,left,1091.9999999997672,0,1,1475
9RQ73bnn,NA,NA,9RQ73bnn,2020-0188,2021-11-01,22:46:27,23:42:15,NA,incomplete,false,NA,true,3,2,NA,NA,left,NA,NA,a_1_019.jpg,c_2_019.jpg,within,NA,NaN,NA,right,1999,0,1,863
9RQ73bnn,NA,NA,9RQ73bnn,2020-0188,2021-11-01,22:46:27,23:42:15,NA,incomplete,false,NA,true,3,3,NA,NA,left,NA,NA,n_s_023.jpg,n_s_021.jpg,within,NA,NaN,NA,left,1760,1,1,2195
9RQ73bnn,NA,NA,9RQ73bnn,2020-0188,2021-11-01,22:46:27,23:42:15,NA,incomplete,false,NA,true,3,4,NA,NA,left,NA,NA,o_c_008.jpg,o_s_022.jpg,between-small,NA,NaN,NA,right,1278,0,1,888
9RQ73bnn,NA,NA,9RQ73bnn,2020-0188,2021-11-01,22:46:27,23:42:15,NA,incomplete,false,NA,true,3,5,NA,NA,left,NA,NA,c_2_019.jpg,a_1_026.jpg,between-small,NA,NaN,NA,left,897,1,1,1557
9RQ73bnn,NA,NA,9RQ73bnn,2020-0188,2021-11-01,22:46:27,23:42:15,NA,incomplete,false,NA,true,3,6,NA,NA,right,NA,NA,o_c_008.jpg,i_s_011.jpg,within,NA,NaN,NA,right,1786,1,1,1059
9RQ73bnn,NA,NA,9RQ73bnn,2020-0188,2021-11-01,22:46:27,23:42:15,NA,incomplete,false,NA,true,3,7,NA,NA,left,NA,NA,o_s_022.jpg,i_c_006.jpg,within,NA,NaN,NA,left,1033,1,1,961
9RQ73bnn,NA,NA,9RQ73bnn,2020-0188,2021-11-01,22:46:27,23:42:15,NA,incomplete,false,NA,true,3,8,NA,NA,left,NA,NA,o_c_010.jpg,i_s_022.jpg,between-small,NA,NaN,NA,right,3401,0,1,2927
9RQ73bnn,NA,NA,9RQ73bnn,2020-0188,2021-11-01,22:46:27,23:42:15,NA,incomplete,false,NA,true,3,9,NA,NA,right,NA,NA,a_1_019.jpg,i_c_014.jpg,between-big,NA,NaN,NA,right,1123.9999999997672,1,2,1562
9RQ73bnn,NA,NA,9RQ73bnn,2020-0188,2021-11-01,22:46:27,23:42:15,NA,incomplete,false,NA,true,3,10,NA,NA,left,NA,NA,i_c_006.jpg,c_1_017.jpg,between-big,NA,NaN,NA,left,1019,1,2,1663
9RQ73bnn,NA,NA,9RQ73bnn,2020-0188,2021-11-01,22:46:27,23:42:15,NA,incomplete,false,NA,true,3,11,NA,NA,right,NA,NA,o_c_010.jpg,o_c_019.jpg,within,NA,NaN,NA,left,3425.000000000233,0,1,1100.0000000002328
9RQ73bnn,NA,NA,9RQ73bnn,2020-0188,2021-11-01,22:46:27,23:42:15,NA,incomplete,false,NA,true,3,12,NA,NA,right,NA,NA,a_2_013.jpg,i_s_022.jpg,between-big,NA,NaN,NA,right,845,1,2,1256
9RQ73bnn,NA,NA,9RQ73bnn,2020-0188,2021-11-01,22:46:27,23:42:15,NA,incomplete,false,NA,true,3,13,NA,NA,left,NA,NA,n_s_021.jpg,m_s_001.jpg,between-small,NA,NaN,NA,right,3025,0,2,1132
9RQ73bnn,NA,NA,9RQ73bnn,2020-0188,2021-11-01,22:46:27,23:42:15,NA,incomplete,false,NA,true,3,14,NA,NA,right,NA,NA,n_s_025.jpg,a_2_011.jpg,between-big,NA,NaN,NA,left,865,0,1,986
9RQ73bnn,NA,NA,9RQ73bnn,2020-0188,2021-11-01,22:46:27,23:42:15,NA,incomplete,false,NA,true,3,15,NA,NA,left,NA,NA,n_s_025.jpg,n_l_023.jpg,within,NA,NaN,NA,left,2218,1,1,970
9RQ73bnn,NA,NA,9RQ73bnn,2020-0188,2021-11-01,22:46:27,23:42:15,NA,incomplete,false,NA,true,3,16,NA,NA,right,NA,NA,n_l_022.jpg,m_s_001.jpg,within,NA,NaN,NA,left,1194,0,1,865
9RQ73bnn,NA,NA,9RQ73bnn,2020-0188,2021-11-01,22:46:27,23:42:15,NA,incomplete,false,NA,true,3,17,NA,NA,right,NA,NA,c_1_024.jpg,a_2_013.jpg,within,NA,NaN,NA,left,953,0,1,1034
9RQ73bnn,NA,NA,9RQ73bnn,2020-0188,2021-11-01,22:46:27,23:42:15,NA,incomplete,false,NA,true,3,18,NA,NA,right,NA,NA,a_1_012.jpg,a_1_006.jpg,within,NA,NaN,NA,right,625,1,2,976.9999999997672
9RQ73bnn,NA,NA,9RQ73bnn,2020-0188,2021-11-01,22:46:27,23:42:15,NA,incomplete,false,NA,true,3,19,NA,NA,left,NA,NA,i_s_028.jpg,i_c_014.jpg,within,NA,NaN,NA,left,1932,1,1,1728
9RQ73bnn,NA,NA,9RQ73bnn,2020-0188,2021-11-01,22:46:27,23:42:15,NA,incomplete,false,NA,true,3,20,NA,NA,left,NA,NA,a_1_012.jpg,m_l_023.jpg,between-big,NA,NaN,NA,right,685,0,1,1312
9RQ73bnn,NA,NA,9RQ73bnn,2020-0188,2021-11-01,22:46:27,23:42:15,NA,incomplete,false,NA,true,3,21,NA,NA,right,NA,NA,a_1_006.jpg,c_1_024.jpg,between-small,NA,NaN,NA,left,546,0,2,1035
9RQ73bnn,NA,NA,9RQ73bnn,2020-0188,2021-11-01,22:46:27,23:42:15,NA,incomplete,false,NA,true,3,22,NA,NA,left,NA,NA,n_l_023.jpg,n_l_018.jpg,between-small,NA,NaN,NA,left,592,1,1,766
9RQ73bnn,NA,NA,9RQ73bnn,2020-0188,2021-11-01,22:46:27,23:42:15,NA,incomplete,false,NA,true,3,23,NA,NA,right,NA,NA,a_1_023.jpg,c_1_017.jpg,between-small,NA,NaN,NA,right,731.9999999997672,1,1,2406.000000000233
9RQ73bnn,NA,NA,9RQ73bnn,2020-0188,2021-11-01,22:46:27,23:42:15,NA,incomplete,false,NA,true,3,24,NA,NA,left,NA,NA,a_1_026.jpg,n_s_023.jpg,between-big,NA,NaN,NA,right,895,0,1,2124
9RQ73bnn,NA,NA,9RQ73bnn,2020-0188,2021-11-01,22:46:27,23:42:15,NA,incomplete,false,NA,true,3,25,NA,NA,left,NA,NA,i_s_010.jpg,i_s_028.jpg,between-small,NA,NaN,NA,left,725,1,1,1187
9RQ73bnn,NA,NA,9RQ73bnn,2020-0188,2021-11-01,22:46:27,23:42:15,NA,incomplete,false,NA,true,3,26,NA,NA,left,NA,NA,n_s_013.jpg,n_l_015.jpg,within,NA,NaN,NA,left,676,1,2,1011.0000000002328
9RQ73bnn,NA,NA,9RQ73bnn,2020-0188,2021-11-01,22:46:27,23:42:15,NA,incomplete,false,true,NA,4,0,location,o_s_006.jpg,left,outdoor,indoor,NA,NA,NA,left,1315,true,NA,NA,NA,NA,NA
9RQ73bnn,NA,NA,9RQ73bnn,2020-0188,2021-11-01,22:46:27,23:42:15,NA,incomplete,false,true,NA,4,1,location,i_c_019.jpg,right,outdoor,indoor,NA,NA,NA,right,1536,true,NA,NA,NA,NA,NA
9RQ73bnn,NA,NA,9RQ73bnn,2020-0188,2021-11-01,22:46:27,23:42:15,NA,incomplete,false,true,NA,4,2,location,o_s_002.jpg,right,indoor,outdoor,NA,NA,NA,left,1099,false,NA,NA,NA,NA,NA
9RQ73bnn,NA,NA,9RQ73bnn,2020-0188,2021-11-01,22:46:27,23:42:15,NA,incomplete,false,true,NA,4,3,location,i_c_013.jpg,right,outdoor,indoor,NA,NA,NA,right,1140,true,NA,NA,NA,NA,NA
9RQ73bnn,NA,NA,9RQ73bnn,2020-0188,2021-11-01,22:46:27,23:42:15,NA,incomplete,false,true,NA,4,4,location,i_c_010.jpg,left,indoor,outdoor,NA,NA,NA,left,1239,true,NA,NA,NA,NA,NA
9RQ73bnn,NA,NA,9RQ73bnn,2020-0188,2021-11-01,22:46:27,23:42:15,NA,incomplete,false,true,NA,4,5,building,i_s_015.jpg,right,cottage,skyscraper,NA,NA,NA,right,1438,true,NA,NA,NA,NA,NA
9RQ73bnn,NA,NA,9RQ73bnn,2020-0188,2021-11-01,22:46:27,23:42:15,NA,incomplete,false,true,NA,4,6,building,i_c_009.jpg,left,cottage,skyscraper,NA,NA,NA,left,1433,true,NA,NA,NA,NA,NA
9RQ73bnn,NA,NA,9RQ73bnn,2020-0188,2021-11-01,22:46:27,23:42:15,NA,incomplete,false,true,NA,4,7,building,o_s_024.jpg,left,skyscraper,cottage,NA,NA,NA,left,2563,true,NA,NA,NA,NA,NA
9RQ73bnn,NA,NA,9RQ73bnn,2020-0188,2021-11-01,22:46:27,23:42:15,NA,incomplete,false,true,NA,4,8,building,o_s_007.jpg,left,skyscraper,cottage,NA,NA,NA,left,1429,true,NA,NA,NA,NA,NA
9RQ73bnn,NA,NA,9RQ73bnn,2020-0188,2021-11-01,22:46:27,23:42:15,NA,incomplete,false,true,NA,4,9,building,o_c_017.jpg,left,cottage,skyscraper,NA,NA,NA,left,1645,true,NA,NA,NA,NA,NA
9RQ73bnn,NA,NA,9RQ73bnn,2020-0188,2021-11-01,22:46:27,23:42:15,NA,incomplete,false,true,NA,4,10,origin,m_l_021.jpg,left,manmade,natural,NA,NA,NA,left,1400.00000000023,true,NA,NA,NA,NA,NA
9RQ73bnn,NA,NA,9RQ73bnn,2020-0188,2021-11-01,22:46:27,23:42:15,NA,incomplete,false,true,NA,4,11,origin,n_l_005.jpg,right,manmade,natural,NA,NA,NA,right,1611,true,NA,NA,NA,NA,NA
9RQ73bnn,NA,NA,9RQ73bnn,2020-0188,2021-11-01,22:46:27,23:42:15,NA,incomplete,false,true,NA,4,12,origin,n_s_011.jpg,left,natural,manmade,NA,NA,NA,left,1599,true,NA,NA,NA,NA,NA
9RQ73bnn,NA,NA,9RQ73bnn,2020-0188,2021-11-01,22:46:27,23:42:15,NA,incomplete,false,true,NA,4,13,origin,m_s_011.jpg,left,manmade,natural,NA,NA,NA,left,2095,true,NA,NA,NA,NA,NA
9RQ73bnn,NA,NA,9RQ73bnn,2020-0188,2021-11-01,22:46:27,23:42:15,NA,incomplete,false,true,NA,4,14,origin,m_s_017.jpg,left,manmade,natural,NA,NA,NA,left,1902,true,NA,NA,NA,NA,NA
9RQ73bnn,NA,NA,9RQ73bnn,2020-0188,2021-11-01,22:46:27,23:42:15,NA,incomplete,false,true,NA,4,15,size,n_s_020.jpg,left,small,large,NA,NA,NA,left,1919,true,NA,NA,NA,NA,NA
9RQ73bnn,NA,NA,9RQ73bnn,2020-0188,2021-11-01,22:46:27,23:42:15,NA,incomplete,false,true,NA,4,16,size,m_l_022.jpg,left,large,small,NA,NA,NA,left,1819,true,NA,NA,NA,NA,NA
9RQ73bnn,NA,NA,9RQ73bnn,2020-0188,2021-11-01,22:46:27,23:42:15,NA,incomplete,false,true,NA,4,17,size,m_l_004.jpg,right,small,large,NA,NA,NA,right,1127,true,NA,NA,NA,NA,NA
9RQ73bnn,NA,NA,9RQ73bnn,2020-0188,2021-11-01,22:46:27,23:42:15,NA,incomplete,false,true,NA,4,18,size,n_l_002.jpg,right,small,large,NA,NA,NA,right,1209,true,NA,NA,NA,NA,NA
9RQ73bnn,NA,NA,9RQ73bnn,2020-0188,2021-11-01,22:46:27,23:42:15,NA,incomplete,false,true,NA,4,19,size,n_l_016.jpg,left,large,small,NA,NA,NA,left,1102,true,NA,NA,NA,NA,NA
9RQ73bnn,NA,NA,9RQ73bnn,2020-0188,2021-11-01,22:46:27,23:42:15,NA,incomplete,false,true,NA,4,20,syllable,c_2_015.jpg,right,1 syllable,2 syllables,NA,NA,NA,right,1553,true,NA,NA,NA,NA,NA
9RQ73bnn,NA,NA,9RQ73bnn,2020-0188,2021-11-01,22:46:27,23:42:15,NA,incomplete,false,true,NA,4,21,syllable,c_1_026.jpg,right,1 syllable,2 syllables,NA,NA,NA,left,1276,false,NA,NA,NA,NA,NA
9RQ73bnn,NA,NA,9RQ73bnn,2020-0188,2021-11-01,22:46:27,23:42:15,NA,incomplete,false,true,NA,4,22,syllable,c_1_015.jpg,right,1 syllable,2 syllables,NA,NA,NA,left,1218.99999999977,false,NA,NA,NA,NA,NA
9RQ73bnn,NA,NA,9RQ73bnn,2020-0188,2021-11-01,22:46:27,23:42:15,NA,incomplete,false,true,NA,4,23,syllable,c_2_001.jpg,right,2 syllables,1 syllable,NA,NA,NA,left,1304,false,NA,NA,NA,NA,NA
9RQ73bnn,NA,NA,9RQ73bnn,2020-0188,2021-11-01,22:46:27,23:42:15,NA,incomplete,false,true,NA,4,24,syllable,a_2_006.jpg,right,2 syllables,1 syllable,NA,NA,NA,left,1600.99999999977,false,NA,NA,NA,NA,NA
9RQ73bnn,NA,NA,9RQ73bnn,2020-0188,2021-11-01,22:46:27,23:42:15,NA,incomplete,false,true,NA,4,25,abstractness,c_2_018.jpg,right,abstract,concrete,NA,NA,NA,right,3419.00000000023,true,NA,NA,NA,NA,NA
9RQ73bnn,NA,NA,9RQ73bnn,2020-0188,2021-11-01,22:46:27,23:42:15,NA,incomplete,false,true,NA,4,26,abstractness,a_1_013.jpg,right,concrete,abstract,NA,NA,NA,left,2320,false,NA,NA,NA,NA,NA
9RQ73bnn,NA,NA,9RQ73bnn,2020-0188,2021-11-01,22:46:27,23:42:15,NA,incomplete,false,true,NA,4,27,abstractness,c_1_012.jpg,left,concrete,abstract,NA,NA,NA,left,2433.99999999977,true,NA,NA,NA,NA,NA
9RQ73bnn,NA,NA,9RQ73bnn,2020-0188,2021-11-01,22:46:27,23:42:15,NA,incomplete,false,true,NA,4,28,abstractness,c_1_020.jpg,left,concrete,abstract,NA,NA,NA,left,2036,true,NA,NA,NA,NA,NA
9RQ73bnn,NA,NA,9RQ73bnn,2020-0188,2021-11-01,22:46:27,23:42:15,NA,incomplete,false,true,NA,4,29,abstractness,a_1_020.jpg,right,concrete,abstract,NA,NA,NA,right,1367,true,NA,NA,NA,NA,NA
9RQ73bnn,NA,NA,9RQ73bnn,2020-0188,2021-11-01,22:46:27,23:42:15,NA,incomplete,false,NA,true,4,0,NA,NA,right,NA,NA,n_l_002.jpg,n_s_020.jpg,within,NA,NaN,NA,right,3894,1,2,1206
9RQ73bnn,NA,NA,9RQ73bnn,2020-0188,2021-11-01,22:46:27,23:42:15,NA,incomplete,false,NA,true,4,1,NA,NA,left,NA,NA,i_c_009.jpg,o_c_017.jpg,within,NA,NaN,NA,left,2347,1,1,847
9RQ73bnn,NA,NA,9RQ73bnn,2020-0188,2021-11-01,22:46:27,23:42:15,NA,incomplete,false,NA,true,4,2,NA,NA,right,NA,NA,m_l_021.jpg,o_s_024.jpg,between-big,NA,NaN,NA,right,1653,1,2,1009.9999999997672
9RQ73bnn,NA,NA,9RQ73bnn,2020-0188,2021-11-01,22:46:27,23:42:15,NA,incomplete,false,NA,true,4,3,NA,NA,left,NA,NA,n_l_002.jpg,c_1_026.jpg,between-big,NA,NaN,NA,left,2470,1,1,1385
9RQ73bnn,NA,NA,9RQ73bnn,2020-0188,2021-11-01,22:46:27,23:42:15,NA,incomplete,false,NA,true,4,4,NA,NA,right,NA,NA,i_s_015.jpg,o_s_002.jpg,between-small,NA,NaN,NA,left,2454,0,1,2806.000000000233
9RQ73bnn,NA,NA,9RQ73bnn,2020-0188,2021-11-01,22:46:27,23:42:15,NA,incomplete,false,NA,true,4,5,NA,NA,left,NA,NA,a_2_006.jpg,c_1_012.jpg,between-small,NA,NaN,NA,left,3735,1,2,1777
9RQ73bnn,NA,NA,9RQ73bnn,2020-0188,2021-11-01,22:46:27,23:42:15,NA,incomplete,false,NA,true,4,6,NA,NA,right,NA,NA,i_c_013.jpg,o_s_006.jpg,within,NA,NaN,NA,left,2837,0,2,1053
9RQ73bnn,NA,NA,9RQ73bnn,2020-0188,2021-11-01,22:46:27,23:42:15,NA,incomplete,false,NA,true,4,7,NA,NA,right,NA,NA,c_2_015.jpg,m_l_004.jpg,between-big,NA,NaN,NA,right,2414,1,2,2324.000000000233
9RQ73bnn,NA,NA,9RQ73bnn,2020-0188,2021-11-01,22:46:27,23:42:15,NA,incomplete,false,NA,true,4,8,NA,NA,left,NA,NA,i_c_010.jpg,o_s_024.jpg,between-small,NA,NaN,NA,left,1278,1,1,945
9RQ73bnn,NA,NA,9RQ73bnn,2020-0188,2021-11-01,22:46:27,23:42:15,NA,incomplete,false,NA,true,4,9,NA,NA,left,NA,NA,m_s_011.jpg,m_l_022.jpg,between-small,NA,NaN,NA,left,798,1,2,741
9RQ73bnn,NA,NA,9RQ73bnn,2020-0188,2021-11-01,22:46:27,23:42:15,NA,incomplete,false,NA,true,4,10,NA,NA,right,NA,NA,n_s_020.jpg,n_s_011.jpg,between-small,NA,NaN,NA,left,904,0,1,1369
9RQ73bnn,NA,NA,9RQ73bnn,2020-0188,2021-11-01,22:46:27,23:42:15,NA,incomplete,false,NA,true,4,11,NA,NA,right,NA,NA,c_1_015.jpg,n_l_016.jpg,between-big,NA,NaN,NA,right,1255.0000000002328,1,2,781
9RQ73bnn,NA,NA,9RQ73bnn,2020-0188,2021-11-01,22:46:27,23:42:15,NA,incomplete,false,NA,true,4,12,NA,NA,right,NA,NA,a_1_013.jpg,c_2_001.jpg,between-small,NA,NaN,NA,right,1075,1,1,961
9RQ73bnn,NA,NA,9RQ73bnn,2020-0188,2021-11-01,22:46:27,23:42:15,NA,incomplete,false,NA,true,4,13,NA,NA,left,NA,NA,i_c_019.jpg,i_c_010.jpg,within,NA,NaN,NA,right,2762,0,1,1653
9RQ73bnn,NA,NA,9RQ73bnn,2020-0188,2021-11-01,22:46:27,23:42:15,NA,incomplete,false,NA,true,4,14,NA,NA,right,NA,NA,n_l_016.jpg,m_l_022.jpg,within,NA,NaN,NA,left,1200,0,2,1844
9RQ73bnn,NA,NA,9RQ73bnn,2020-0188,2021-11-01,22:46:27,23:42:15,NA,incomplete,false,NA,true,4,15,NA,NA,left,NA,NA,c_2_015.jpg,c_2_001.jpg,within,NA,NaN,NA,right,2022,0,1,1125
9RQ73bnn,NA,NA,9RQ73bnn,2020-0188,2021-11-01,22:46:27,23:42:15,NA,incomplete,false,NA,true,4,16,NA,NA,left,NA,NA,i_s_015.jpg,o_s_007.jpg,within,NA,NaN,NA,left,3313,1,1,814.9999999997672
9RQ73bnn,NA,NA,9RQ73bnn,2020-0188,2021-11-01,22:46:27,23:42:15,NA,incomplete,false,NA,true,4,17,NA,NA,right,NA,NA,a_1_020.jpg,a_1_013.jpg,within,NA,NaN,NA,right,1319,1,1,781
9RQ73bnn,NA,NA,9RQ73bnn,2020-0188,2021-11-01,22:46:27,23:42:15,NA,incomplete,false,NA,true,4,18,NA,NA,right,NA,NA,c_1_020.jpg,c_2_018.jpg,within,NA,NaN,NA,left,579,0,2,993
9RQ73bnn,NA,NA,9RQ73bnn,2020-0188,2021-11-01,22:46:27,23:42:15,NA,incomplete,false,NA,true,4,19,NA,NA,right,NA,NA,n_l_005.jpg,o_s_007.jpg,between-big,NA,NaN,NA,right,416.00000000023283,1,1,1067
9RQ73bnn,NA,NA,9RQ73bnn,2020-0188,2021-11-01,22:46:27,23:42:15,NA,incomplete,false,NA,true,4,20,NA,NA,left,NA,NA,n_l_005.jpg,m_s_017.jpg,within,NA,NaN,NA,left,1221,1,1,813
9RQ73bnn,NA,NA,9RQ73bnn,2020-0188,2021-11-01,22:46:27,23:42:15,NA,incomplete,false,NA,true,4,21,NA,NA,left,NA,NA,i_c_013.jpg,i_c_009.jpg,between-small,NA,NaN,NA,left,1663,1,0,1109
9RQ73bnn,NA,NA,9RQ73bnn,2020-0188,2021-11-01,22:46:27,23:42:15,NA,incomplete,false,NA,true,4,22,NA,NA,right,NA,NA,c_2_018.jpg,c_1_015.jpg,between-small,NA,NaN,NA,left,920,0,1,789
9RQ73bnn,NA,NA,9RQ73bnn,2020-0188,2021-11-01,22:46:27,23:42:15,NA,incomplete,false,NA,true,4,23,NA,NA,left,NA,NA,m_l_021.jpg,m_s_011.jpg,within,NA,NaN,NA,left,1721.9999999997672,1,1,1459.0000000002328
9RQ73bnn,NA,NA,9RQ73bnn,2020-0188,2021-11-01,22:46:27,23:42:15,NA,incomplete,false,NA,true,4,24,NA,NA,right,NA,NA,a_2_006.jpg,c_1_026.jpg,within,NA,NaN,NA,left,1191,0,1,1614.9999999997672
9RQ73bnn,NA,NA,9RQ73bnn,2020-0188,2021-11-01,22:46:27,23:42:15,NA,incomplete,false,NA,true,4,25,NA,NA,left,NA,NA,m_s_017.jpg,m_l_004.jpg,between-small,NA,NaN,NA,left,2137,1,1,767
9RQ73bnn,NA,NA,9RQ73bnn,2020-0188,2021-11-01,22:46:27,23:42:15,NA,incomplete,false,NA,true,4,26,NA,NA,left,NA,NA,o_c_017.jpg,n_s_011.jpg,between-big,NA,NaN,NA,left,764,1,2,1059
9RQ73bnn,NA,NA,9RQ73bnn,2020-0188,2021-11-01,22:46:27,23:42:15,NA,incomplete,false,true,NA,5,0,origin,n_l_003.jpg,left,natural,manmade,NA,NA,NA,left,1897,true,NA,NA,NA,NA,NA
9RQ73bnn,NA,NA,9RQ73bnn,2020-0188,2021-11-01,22:46:27,23:42:15,NA,incomplete,false,true,NA,5,1,origin,n_l_017.jpg,right,manmade,natural,NA,NA,NA,right,1348.99999999977,true,NA,NA,NA,NA,NA
9RQ73bnn,NA,NA,9RQ73bnn,2020-0188,2021-11-01,22:46:27,23:42:15,NA,incomplete,false,true,NA,5,2,origin,m_s_008.jpg,left,manmade,natural,NA,NA,NA,left,2452,true,NA,NA,NA,NA,NA
9RQ73bnn,NA,NA,9RQ73bnn,2020-0188,2021-11-01,22:46:27,23:42:15,NA,incomplete,false,true,NA,5,3,origin,n_l_026.jpg,left,natural,manmade,NA,NA,NA,left,1938,true,NA,NA,NA,NA,NA
9RQ73bnn,NA,NA,9RQ73bnn,2020-0188,2021-11-01,22:46:27,23:42:15,NA,incomplete,false,true,NA,5,4,origin,m_l_027.jpg,left,manmade,natural,NA,NA,NA,left,1270,true,NA,NA,NA,NA,NA
9RQ73bnn,NA,NA,9RQ73bnn,2020-0188,2021-11-01,22:46:27,23:42:15,NA,incomplete,false,true,NA,5,5,size,m_s_018.jpg,left,small,large,NA,NA,NA,left,1443.99999999977,true,NA,NA,NA,NA,NA
9RQ73bnn,NA,NA,9RQ73bnn,2020-0188,2021-11-01,22:46:27,23:42:15,NA,incomplete,false,true,NA,5,6,size,m_s_022.jpg,right,large,small,NA,NA,NA,right,1357,true,NA,NA,NA,NA,NA
9RQ73bnn,NA,NA,9RQ73bnn,2020-0188,2021-11-01,22:46:27,23:42:15,NA,incomplete,false,true,NA,5,7,size,n_s_022.jpg,left,small,large,NA,NA,NA,left,1254.00000000023,true,NA,NA,NA,NA,NA
9RQ73bnn,NA,NA,9RQ73bnn,2020-0188,2021-11-01,22:46:27,23:42:15,NA,incomplete,false,true,NA,5,8,size,m_s_015.jpg,right,large,small,NA,NA,NA,right,1325,true,NA,NA,NA,NA,NA
9RQ73bnn,NA,NA,9RQ73bnn,2020-0188,2021-11-01,22:46:27,23:42:15,NA,incomplete,false,true,NA,5,9,size,n_l_006.jpg,right,small,large,NA,NA,NA,right,1315.99999999977,true,NA,NA,NA,NA,NA
9RQ73bnn,NA,NA,9RQ73bnn,2020-0188,2021-11-01,22:46:27,23:42:15,NA,incomplete,false,true,NA,5,10,syllable,c_1_027.jpg,right,1 syllable,2 syllables,NA,NA,NA,left,1530,false,NA,NA,NA,NA,NA
9RQ73bnn,NA,NA,9RQ73bnn,2020-0188,2021-11-01,22:46:27,23:42:15,NA,incomplete,false,true,NA,5,11,syllable,c_1_022.jpg,right,1 syllable,2 syllables,NA,NA,NA,left,1581,false,NA,NA,NA,NA,NA
9RQ73bnn,NA,NA,9RQ73bnn,2020-0188,2021-11-01,22:46:27,23:42:15,NA,incomplete,false,true,NA,5,12,syllable,a_2_024.jpg,right,1 syllable,2 syllables,NA,NA,NA,right,1331,true,NA,NA,NA,NA,NA
9RQ73bnn,NA,NA,9RQ73bnn,2020-0188,2021-11-01,22:46:27,23:42:15,NA,incomplete,false,true,NA,5,13,syllable,c_2_014.jpg,right,2 syllables,1 syllable,NA,NA,NA,left,1542,false,NA,NA,NA,NA,NA
9RQ73bnn,NA,NA,9RQ73bnn,2020-0188,2021-11-01,22:46:27,23:42:15,NA,incomplete,false,true,NA,5,14,syllable,a_2_016.jpg,right,1 syllable,2 syllables,NA,NA,NA,right,1135,true,NA,NA,NA,NA,NA
9RQ73bnn,NA,NA,9RQ73bnn,2020-0188,2021-11-01,22:46:27,23:42:15,NA,incomplete,false,true,NA,5,15,abstractness,a_1_025.jpg,right,concrete,abstract,NA,NA,NA,right,1865,true,NA,NA,NA,NA,NA
9RQ73bnn,NA,NA,9RQ73bnn,2020-0188,2021-11-01,22:46:27,23:42:15,NA,incomplete,false,true,NA,5,16,abstractness,a_2_017.jpg,left,abstract,concrete,NA,NA,NA,left,1467,true,NA,NA,NA,NA,NA
9RQ73bnn,NA,NA,9RQ73bnn,2020-0188,2021-11-01,22:46:27,23:42:15,NA,incomplete,false,true,NA,5,17,abstractness,a_2_009.jpg,left,abstract,concrete,NA,NA,NA,left,1968,true,NA,NA,NA,NA,NA
9RQ73bnn,NA,NA,9RQ73bnn,2020-0188,2021-11-01,22:46:27,23:42:15,NA,incomplete,false,true,NA,5,18,abstractness,a_2_001.jpg,left,abstract,concrete,NA,NA,NA,left,1229,true,NA,NA,NA,NA,NA
9RQ73bnn,NA,NA,9RQ73bnn,2020-0188,2021-11-01,22:46:27,23:42:15,NA,incomplete,false,true,NA,5,19,abstractness,a_1_002.jpg,right,concrete,abstract,NA,NA,NA,right,2031,true,NA,NA,NA,NA,NA
9RQ73bnn,NA,NA,9RQ73bnn,2020-0188,2021-11-01,22:46:27,23:42:15,NA,incomplete,false,true,NA,5,20,location,i_c_028.jpg,right,outdoor,indoor,NA,NA,NA,right,2047,true,NA,NA,NA,NA,NA
9RQ73bnn,NA,NA,9RQ73bnn,2020-0188,2021-11-01,22:46:27,23:42:15,NA,incomplete,false,true,NA,5,21,location,o_c_016.jpg,right,indoor,outdoor,NA,NA,NA,right,1673,true,NA,NA,NA,NA,NA
9RQ73bnn,NA,NA,9RQ73bnn,2020-0188,2021-11-01,22:46:27,23:42:15,NA,incomplete,false,true,NA,5,22,location,o_s_023.jpg,right,indoor,outdoor,NA,NA,NA,right,1279,true,NA,NA,NA,NA,NA
9RQ73bnn,NA,NA,9RQ73bnn,2020-0188,2021-11-01,22:46:27,23:42:15,NA,incomplete,false,true,NA,5,23,location,o_s_004.jpg,left,outdoor,indoor,NA,NA,NA,left,1135,true,NA,NA,NA,NA,NA
9RQ73bnn,NA,NA,9RQ73bnn,2020-0188,2021-11-01,22:46:27,23:42:15,NA,incomplete,false,true,NA,5,24,location,o_c_013.jpg,right,indoor,outdoor,NA,NA,NA,right,1269,true,NA,NA,NA,NA,NA
9RQ73bnn,NA,NA,9RQ73bnn,2020-0188,2021-11-01,22:46:27,23:42:15,NA,incomplete,false,true,NA,5,25,building,i_c_007.jpg,right,skyscraper,cottage,NA,NA,NA,right,1523.99999999977,true,NA,NA,NA,NA,NA
9RQ73bnn,NA,NA,9RQ73bnn,2020-0188,2021-11-01,22:46:27,23:42:15,NA,incomplete,false,true,NA,5,26,building,i_s_016.jpg,right,cottage,skyscraper,NA,NA,NA,right,1848,true,NA,NA,NA,NA,NA
9RQ73bnn,NA,NA,9RQ73bnn,2020-0188,2021-11-01,22:46:27,23:42:15,NA,incomplete,false,true,NA,5,27,building,o_s_012.jpg,right,cottage,skyscraper,NA,NA,NA,right,1363.99999999977,true,NA,NA,NA,NA,NA
9RQ73bnn,NA,NA,9RQ73bnn,2020-0188,2021-11-01,22:46:27,23:42:15,NA,incomplete,false,true,NA,5,28,building,o_s_016.jpg,left,skyscraper,cottage,NA,NA,NA,left,1097,true,NA,NA,NA,NA,NA
9RQ73bnn,NA,NA,9RQ73bnn,2020-0188,2021-11-01,22:46:27,23:42:15,NA,incomplete,false,true,NA,5,29,building,i_s_006.jpg,right,cottage,skyscraper,NA,NA,NA,right,1535.00000000023,true,NA,NA,NA,NA,NA
9RQ73bnn,NA,NA,9RQ73bnn,2020-0188,2021-11-01,22:46:27,23:42:15,NA,incomplete,false,NA,true,5,0,NA,NA,right,NA,NA,n_s_022.jpg,m_l_027.jpg,between-small,NA,NaN,NA,right,4233.000000000233,1,2,724
9RQ73bnn,NA,NA,9RQ73bnn,2020-0188,2021-11-01,22:46:27,23:42:15,NA,incomplete,false,NA,true,5,1,NA,NA,left,NA,NA,n_l_026.jpg,m_s_022.jpg,between-small,NA,NaN,NA,left,1116,1,1,1563
9RQ73bnn,NA,NA,9RQ73bnn,2020-0188,2021-11-01,22:46:27,23:42:15,NA,incomplete,false,NA,true,5,2,NA,NA,right,NA,NA,c_2_014.jpg,c_1_027.jpg,within,NA,NaN,NA,left,3782.000000000233,0,1,1646
9RQ73bnn,NA,NA,9RQ73bnn,2020-0188,2021-11-01,22:46:27,23:42:15,NA,incomplete,false,NA,true,5,3,NA,NA,left,NA,NA,o_s_004.jpg,i_s_016.jpg,between-small,NA,NaN,NA,right,2266,0,1,1166
9RQ73bnn,NA,NA,9RQ73bnn,2020-0188,2021-11-01,22:46:27,23:42:15,NA,incomplete,false,NA,true,5,4,NA,NA,left,NA,NA,a_2_017.jpg,a_1_002.jpg,within,NA,NaN,NA,right,1873,0,1,1131.0000000002328
9RQ73bnn,NA,NA,9RQ73bnn,2020-0188,2021-11-01,22:46:27,23:42:15,NA,incomplete,false,NA,true,5,5,NA,NA,right,NA,NA,a_2_016.jpg,c_1_022.jpg,within,NA,NaN,NA,left,1556.9999999997672,0,1,1253.0000000002328
9RQ73bnn,NA,NA,9RQ73bnn,2020-0188,2021-11-01,22:46:27,23:42:15,NA,incomplete,false,NA,true,5,6,NA,NA,left,NA,NA,i_s_016.jpg,i_s_006.jpg,within,NA,NaN,NA,right,6608.000000000233,0,1,986.0000000002328
9RQ73bnn,NA,NA,9RQ73bnn,2020-0188,2021-11-01,22:46:27,23:42:15,NA,incomplete,false,NA,true,5,7,NA,NA,left,NA,NA,m_s_008.jpg,m_s_018.jpg,between-small,NA,NaN,NA,left,1450,1,1,888
9RQ73bnn,NA,NA,9RQ73bnn,2020-0188,2021-11-01,22:46:27,23:42:15,NA,incomplete,false,NA,true,5,8,NA,NA,right,NA,NA,o_c_016.jpg,a_2_001.jpg,between-big,NA,NaN,NA,right,2431,1,2,838
9RQ73bnn,NA,NA,9RQ73bnn,2020-0188,2021-11-01,22:46:27,23:42:15,NA,incomplete,false,NA,true,5,9,NA,NA,right,NA,NA,a_2_001.jpg,a_1_025.jpg,within,NA,NaN,NA,left,840,0,1,1703
9RQ73bnn,NA,NA,9RQ73bnn,2020-0188,2021-11-01,22:46:27,23:42:15,NA,incomplete,false,NA,true,5,10,NA,NA,left,NA,NA,o_s_023.jpg,i_c_007.jpg,between-small,NA,NaN,NA,right,2634,0,1,1745
9RQ73bnn,NA,NA,9RQ73bnn,2020-0188,2021-11-01,22:46:27,23:42:15,NA,incomplete,false,NA,true,5,11,NA,NA,right,NA,NA,o_s_023.jpg,a_1_002.jpg,between-big,NA,NaN,NA,right,1762,1,2,1857.9999999997672
9RQ73bnn,NA,NA,9RQ73bnn,2020-0188,2021-11-01,22:46:27,23:42:15,NA,incomplete,false,NA,true,5,12,NA,NA,left,NA,NA,o_c_016.jpg,o_c_013.jpg,within,NA,NaN,NA,left,2945,1,1,1108
9RQ73bnn,NA,NA,9RQ73bnn,2020-0188,2021-11-01,22:46:27,23:42:15,NA,incomplete,false,NA,true,5,13,NA,NA,left,NA,NA,i_c_028.jpg,o_s_004.jpg,within,NA,NaN,NA,left,1947.9999999997672,1,1,2275
9RQ73bnn,NA,NA,9RQ73bnn,2020-0188,2021-11-01,22:46:27,23:42:15,NA,incomplete,false,NA,true,5,14,NA,NA,left,NA,NA,n_l_003.jpg,n_l_026.jpg,within,NA,NaN,NA,left,1221,1,1,929.0000000002328
9RQ73bnn,NA,NA,9RQ73bnn,2020-0188,2021-11-01,22:46:27,23:42:15,NA,incomplete,false,NA,true,5,15,NA,NA,left,NA,NA,o_c_013.jpg,o_s_012.jpg,between-small,NA,NaN,NA,left,2625,1,1,831.0000000002328
9RQ73bnn,NA,NA,9RQ73bnn,2020-0188,2021-11-01,22:46:27,23:42:15,NA,incomplete,false,NA,true,5,16,NA,NA,left,NA,NA,a_2_024.jpg,a_1_025.jpg,between-small,NA,NaN,NA,left,894,1,1,1001
9RQ73bnn,NA,NA,9RQ73bnn,2020-0188,2021-11-01,22:46:27,23:42:15,NA,incomplete,false,NA,true,5,17,NA,NA,right,NA,NA,c_1_022.jpg,m_s_015.jpg,between-big,NA,NaN,NA,right,1108.0000000002328,1,2,1050
9RQ73bnn,NA,NA,9RQ73bnn,2020-0188,2021-11-01,22:46:27,23:42:15,NA,incomplete,false,NA,true,5,18,NA,NA,left,NA,NA,m_s_018.jpg,m_s_015.jpg,within,NA,NaN,NA,left,749,1,1,757
9RQ73bnn,NA,NA,9RQ73bnn,2020-0188,2021-11-01,22:46:27,23:42:15,NA,incomplete,false,NA,true,5,19,NA,NA,right,NA,NA,a_2_024.jpg,n_l_006.jpg,between-big,NA,NaN,NA,right,1026,1,1,1133
9RQ73bnn,NA,NA,9RQ73bnn,2020-0188,2021-11-01,22:46:27,23:42:15,NA,incomplete,false,NA,true,5,20,NA,NA,left,NA,NA,n_s_022.jpg,c_1_027.jpg,between-big,NA,NaN,NA,left,1141,1,1,2348
9RQ73bnn,NA,NA,9RQ73bnn,2020-0188,2021-11-01,22:46:27,23:42:15,NA,incomplete,false,NA,true,5,21,NA,NA,right,NA,NA,o_s_016.jpg,i_c_007.jpg,within,NA,NaN,NA,right,1694,1,1,830
9RQ73bnn,NA,NA,9RQ73bnn,2020-0188,2021-11-01,22:46:27,23:42:15,NA,incomplete,false,NA,true,5,22,NA,NA,right,NA,NA,m_l_027.jpg,n_l_017.jpg,within,NA,NaN,NA,right,1092,1,1,969
9RQ73bnn,NA,NA,9RQ73bnn,2020-0188,2021-11-01,22:46:27,23:42:15,NA,incomplete,false,NA,true,5,23,NA,NA,left,NA,NA,m_s_022.jpg,n_l_006.jpg,within,NA,NaN,NA,right,1034,0,1,1124
9RQ73bnn,NA,NA,9RQ73bnn,2020-0188,2021-11-01,22:46:27,23:42:15,NA,incomplete,false,NA,true,5,24,NA,NA,right,NA,NA,i_c_028.jpg,a_2_009.jpg,between-big,NA,NaN,NA,right,1328,1,2,1427
9RQ73bnn,NA,NA,9RQ73bnn,2020-0188,2021-11-01,22:46:27,23:42:15,NA,incomplete,false,NA,true,5,25,NA,NA,left,NA,NA,a_2_016.jpg,a_2_009.jpg,between-small,NA,NaN,NA,left,1004,1,2,2120.999999999767
9RQ73bnn,NA,NA,9RQ73bnn,2020-0188,2021-11-01,22:46:27,23:42:15,NA,incomplete,false,NA,true,5,26,NA,NA,right,NA,NA,a_2_017.jpg,c_2_014.jpg,between-small,NA,NaN,NA,right,1819,1,1,1011
9RQ73bnn,NA,NA,9RQ73bnn,2020-0188,2021-11-01,22:46:27,23:42:15,NA,incomplete,false,true,NA,6,0,building,o_c_028.jpg,right,skyscraper,cottage,NA,NA,NA,right,2899.00000000023,true,NA,NA,NA,NA,NA
9RQ73bnn,NA,NA,9RQ73bnn,2020-0188,2021-11-01,22:46:27,23:42:15,NA,incomplete,false,true,NA,6,1,building,o_c_020.jpg,right,skyscraper,cottage,NA,NA,NA,right,1817.00000000023,true,NA,NA,NA,NA,NA
9RQ73bnn,NA,NA,9RQ73bnn,2020-0188,2021-11-01,22:46:27,23:42:15,NA,incomplete,false,true,NA,6,2,building,i_s_024.jpg,right,cottage,skyscraper,NA,NA,NA,right,1131.99999999977,true,NA,NA,NA,NA,NA
9RQ73bnn,NA,NA,9RQ73bnn,2020-0188,2021-11-01,22:46:27,23:42:15,NA,incomplete,false,true,NA,6,3,building,o_c_001.jpg,right,skyscraper,cottage,NA,NA,NA,right,1042.00000000023,true,NA,NA,NA,NA,NA
9RQ73bnn,NA,NA,9RQ73bnn,2020-0188,2021-11-01,22:46:27,23:42:15,NA,incomplete,false,true,NA,6,4,building,i_s_001.jpg,right,cottage,skyscraper,NA,NA,NA,right,1034,true,NA,NA,NA,NA,NA
9RQ73bnn,NA,NA,9RQ73bnn,2020-0188,2021-11-01,22:46:27,23:42:15,NA,incomplete,false,true,NA,6,5,location,o_s_013.jpg,right,indoor,outdoor,NA,NA,NA,left,1846,false,NA,NA,NA,NA,NA
9RQ73bnn,NA,NA,9RQ73bnn,2020-0188,2021-11-01,22:46:27,23:42:15,NA,incomplete,false,true,NA,6,6,location,o_c_026.jpg,right,indoor,outdoor,NA,NA,NA,right,1587.99999999977,true,NA,NA,NA,NA,NA
9RQ73bnn,NA,NA,9RQ73bnn,2020-0188,2021-11-01,22:46:27,23:42:15,NA,incomplete,false,true,NA,6,7,location,i_s_019.jpg,left,indoor,outdoor,NA,NA,NA,left,2228,true,NA,NA,NA,NA,NA
9RQ73bnn,NA,NA,9RQ73bnn,2020-0188,2021-11-01,22:46:27,23:42:15,NA,incomplete,false,true,NA,6,8,location,o_c_025.jpg,left,outdoor,indoor,NA,NA,NA,left,1398,true,NA,NA,NA,NA,NA
9RQ73bnn,NA,NA,9RQ73bnn,2020-0188,2021-11-01,22:46:27,23:42:15,NA,incomplete,false,true,NA,6,9,location,o_s_003.jpg,right,indoor,outdoor,NA,NA,NA,right,1419,true,NA,NA,NA,NA,NA
9RQ73bnn,NA,NA,9RQ73bnn,2020-0188,2021-11-01,22:46:27,23:42:15,NA,incomplete,false,true,NA,6,10,abstractness,a_2_019.jpg,right,concrete,abstract,NA,NA,NA,right,2659,true,NA,NA,NA,NA,NA
9RQ73bnn,NA,NA,9RQ73bnn,2020-0188,2021-11-01,22:46:27,23:42:15,NA,incomplete,false,true,NA,6,11,abstractness,a_1_016.jpg,right,concrete,abstract,NA,NA,NA,right,2006,true,NA,NA,NA,NA,NA
9RQ73bnn,NA,NA,9RQ73bnn,2020-0188,2021-11-01,22:46:27,23:42:15,NA,incomplete,false,true,NA,6,12,abstractness,c_2_005.jpg,left,concrete,abstract,NA,NA,NA,left,2207.00000000023,true,NA,NA,NA,NA,NA
9RQ73bnn,NA,NA,9RQ73bnn,2020-0188,2021-11-01,22:46:27,23:42:15,NA,incomplete,false,true,NA,6,13,abstractness,a_1_004.jpg,left,abstract,concrete,NA,NA,NA,left,1644,true,NA,NA,NA,NA,NA
9RQ73bnn,NA,NA,9RQ73bnn,2020-0188,2021-11-01,22:46:27,23:42:15,NA,incomplete,false,true,NA,6,14,abstractness,c_2_016.jpg,right,abstract,concrete,NA,NA,NA,right,1921,true,NA,NA,NA,NA,NA
9RQ73bnn,NA,NA,9RQ73bnn,2020-0188,2021-11-01,22:46:27,23:42:15,NA,incomplete,false,true,NA,6,15,syllable,a_2_004.jpg,right,2 syllables,1 syllable,NA,NA,NA,left,1342,false,NA,NA,NA,NA,NA
9RQ73bnn,NA,NA,9RQ73bnn,2020-0188,2021-11-01,22:46:27,23:42:15,NA,incomplete,false,true,NA,6,16,syllable,c_1_009.jpg,right,2 syllables,1 syllable,NA,NA,NA,right,1390,true,NA,NA,NA,NA,NA
9RQ73bnn,NA,NA,9RQ73bnn,2020-0188,2021-11-01,22:46:27,23:42:15,NA,incomplete,false,true,NA,6,17,syllable,a_2_018.jpg,right,1 syllable,2 syllables,NA,NA,NA,left,879,false,NA,NA,NA,NA,NA
9RQ73bnn,NA,NA,9RQ73bnn,2020-0188,2021-11-01,22:46:27,23:42:15,NA,incomplete,false,true,NA,6,18,syllable,c_1_003.jpg,right,1 syllable,2 syllables,NA,NA,NA,left,868.999999999767,false,NA,NA,NA,NA,NA
9RQ73bnn,NA,NA,9RQ73bnn,2020-0188,2021-11-01,22:46:27,23:42:15,NA,incomplete,false,true,NA,6,19,syllable,c_2_021.jpg,right,2 syllables,1 syllable,NA,NA,NA,left,1308,false,NA,NA,NA,NA,NA
9RQ73bnn,NA,NA,9RQ73bnn,2020-0188,2021-11-01,22:46:27,23:42:15,NA,incomplete,false,true,NA,6,20,origin,m_s_020.jpg,left,manmade,natural,NA,NA,NA,left,2274,true,NA,NA,NA,NA,NA
9RQ73bnn,NA,NA,9RQ73bnn,2020-0188,2021-11-01,22:46:27,23:42:15,NA,incomplete,false,true,NA,6,21,origin,n_l_004.jpg,left,natural,manmade,NA,NA,NA,left,1263.00000000023,true,NA,NA,NA,NA,NA
9RQ73bnn,NA,NA,9RQ73bnn,2020-0188,2021-11-01,22:46:27,23:42:15,NA,incomplete,false,true,NA,6,22,origin,m_l_003.jpg,left,manmade,natural,NA,NA,NA,left,2063,true,NA,NA,NA,NA,NA
9RQ73bnn,NA,NA,9RQ73bnn,2020-0188,2021-11-01,22:46:27,23:42:15,NA,incomplete,false,true,NA,6,23,origin,m_s_007.jpg,right,natural,manmade,NA,NA,NA,right,1241.99999999977,true,NA,NA,NA,NA,NA
9RQ73bnn,NA,NA,9RQ73bnn,2020-0188,2021-11-01,22:46:27,23:42:15,NA,incomplete,false,true,NA,6,24,origin,m_s_027.jpg,left,manmade,natural,NA,NA,NA,left,1277,true,NA,NA,NA,NA,NA
9RQ73bnn,NA,NA,9RQ73bnn,2020-0188,2021-11-01,22:46:27,23:42:15,NA,incomplete,false,true,NA,6,25,size,m_l_011.jpg,right,small,large,NA,NA,NA,right,1472.99999999977,true,NA,NA,NA,NA,NA
9RQ73bnn,NA,NA,9RQ73bnn,2020-0188,2021-11-01,22:46:27,23:42:15,NA,incomplete,false,true,NA,6,26,size,n_l_010.jpg,right,small,large,NA,NA,NA,right,1188.00000000023,true,NA,NA,NA,NA,NA
9RQ73bnn,NA,NA,9RQ73bnn,2020-0188,2021-11-01,22:46:27,23:42:15,NA,incomplete,false,true,NA,6,27,size,n_s_027.jpg,right,large,small,NA,NA,NA,right,1415.99999999953,true,NA,NA,NA,NA,NA
9RQ73bnn,NA,NA,9RQ73bnn,2020-0188,2021-11-01,22:46:27,23:42:15,NA,incomplete,false,true,NA,6,28,size,m_l_014.jpg,left,large,small,NA,NA,NA,left,826.999999999767,true,NA,NA,NA,NA,NA
9RQ73bnn,NA,NA,9RQ73bnn,2020-0188,2021-11-01,22:46:27,23:42:15,NA,incomplete,false,true,NA,6,29,size,n_l_025.jpg,left,large,small,NA,NA,NA,left,837,true,NA,NA,NA,NA,NA
9RQ73bnn,NA,NA,9RQ73bnn,2020-0188,2021-11-01,22:46:27,23:42:15,NA,incomplete,false,NA,true,6,0,NA,NA,right,NA,NA,c_1_009.jpg,a_1_004.jpg,between-small,NA,NaN,NA,left,1929.0000000002328,0,1,1320.0000000002328
9RQ73bnn,NA,NA,9RQ73bnn,2020-0188,2021-11-01,22:46:27,23:42:15,NA,incomplete,false,NA,true,6,1,NA,NA,right,NA,NA,a_2_019.jpg,i_s_019.jpg,between-big,NA,NaN,NA,right,1681,1,2,1425.9999999997672
9RQ73bnn,NA,NA,9RQ73bnn,2020-0188,2021-11-01,22:46:27,23:42:15,NA,incomplete,false,NA,true,6,2,NA,NA,left,NA,NA,o_s_013.jpg,o_c_025.jpg,within,NA,NaN,NA,left,3410.000000000233,1,1,896.0000000002328
9RQ73bnn,NA,NA,9RQ73bnn,2020-0188,2021-11-01,22:46:27,23:42:15,NA,incomplete,false,NA,true,6,3,NA,NA,right,NA,NA,m_s_027.jpg,n_l_004.jpg,within,NA,NaN,NA,right,1882.9999999997672,1,1,977.0000000004657
9RQ73bnn,NA,NA,9RQ73bnn,2020-0188,2021-11-01,22:46:27,23:42:15,NA,incomplete,false,NA,true,6,4,NA,NA,left,NA,NA,i_s_001.jpg,i_s_019.jpg,between-small,NA,NaN,NA,right,2192.999999999767,0,1,1020
9RQ73bnn,NA,NA,9RQ73bnn,2020-0188,2021-11-01,22:46:27,23:42:15,NA,incomplete,false,NA,true,6,5,NA,NA,left,NA,NA,o_c_028.jpg,o_c_001.jpg,within,NA,NaN,NA,left,1375.9999999997672,1,1,1899
9RQ73bnn,NA,NA,9RQ73bnn,2020-0188,2021-11-01,22:46:27,23:42:15,NA,incomplete,false,NA,true,6,6,NA,NA,left,NA,NA,a_1_016.jpg,c_2_016.jpg,within,NA,NaN,NA,left,1458,1,1,855
9RQ73bnn,NA,NA,9RQ73bnn,2020-0188,2021-11-01,22:46:27,23:42:15,NA,incomplete,false,NA,true,6,7,NA,NA,right,NA,NA,o_s_013.jpg,i_s_024.jpg,between-small,NA,NaN,NA,left,1084,0,1,898
9RQ73bnn,NA,NA,9RQ73bnn,2020-0188,2021-11-01,22:46:27,23:42:15,NA,incomplete,false,NA,true,6,8,NA,NA,right,NA,NA,o_c_026.jpg,o_c_001.jpg,between-small,NA,NaN,NA,left,1537,0,1,855
9RQ73bnn,NA,NA,9RQ73bnn,2020-0188,2021-11-01,22:46:27,23:42:15,NA,incomplete,false,NA,true,6,9,NA,NA,right,NA,NA,m_l_003.jpg,c_2_021.jpg,between-big,NA,NaN,NA,left,1421,0,2,1386
9RQ73bnn,NA,NA,9RQ73bnn,2020-0188,2021-11-01,22:46:27,23:42:15,NA,incomplete,false,NA,true,6,10,NA,NA,right,NA,NA,c_1_003.jpg,a_2_004.jpg,within,NA,NaN,NA,left,1964,0,1,781
9RQ73bnn,NA,NA,9RQ73bnn,2020-0188,2021-11-01,22:46:27,23:42:15,NA,incomplete,false,NA,true,6,11,NA,NA,right,NA,NA,i_s_001.jpg,o_c_020.jpg,within,NA,NaN,NA,left,1412,0,1,823
9RQ73bnn,NA,NA,9RQ73bnn,2020-0188,2021-11-01,22:46:27,23:42:15,NA,incomplete,false,NA,true,6,12,NA,NA,right,NA,NA,m_l_014.jpg,m_l_011.jpg,within,NA,NaN,NA,left,2096,0,1,954
9RQ73bnn,NA,NA,9RQ73bnn,2020-0188,2021-11-01,22:46:27,23:42:15,NA,incomplete,false,NA,true,6,13,NA,NA,left,NA,NA,o_c_025.jpg,a_1_016.jpg,between-big,NA,NaN,NA,left,1025.9999999995343,1,2,1402.0000000004657
9RQ73bnn,NA,NA,9RQ73bnn,2020-0188,2021-11-01,22:46:27,23:42:15,NA,incomplete,false,NA,true,6,14,NA,NA,left,NA,NA,m_s_007.jpg,n_l_010.jpg,between-small,NA,NaN,NA,right,1427,0,1,1157
9RQ73bnn,NA,NA,9RQ73bnn,2020-0188,2021-11-01,22:46:27,23:42:15,NA,incomplete,false,NA,true,6,15,NA,NA,right,NA,NA,a_1_004.jpg,a_2_019.jpg,within,NA,NaN,NA,left,913,0,1,2079.0000000004657
9RQ73bnn,NA,NA,9RQ73bnn,2020-0188,2021-11-01,22:46:27,23:42:15,NA,incomplete,false,NA,true,6,16,NA,NA,right,NA,NA,a_2_018.jpg,c_2_016.jpg,between-small,NA,NaN,NA,right,1963,1,1,856
9RQ73bnn,NA,NA,9RQ73bnn,2020-0188,2021-11-01,22:46:27,23:42:15,NA,incomplete,false,NA,true,6,17,NA,NA,right,NA,NA,m_s_020.jpg,a_2_018.jpg,between-big,NA,NaN,NA,left,578,0,1,1467
9RQ73bnn,NA,NA,9RQ73bnn,2020-0188,2021-11-01,22:46:27,23:42:15,NA,incomplete,false,NA,true,6,18,NA,NA,left,NA,NA,c_2_005.jpg,a_2_004.jpg,between-small,NA,NaN,NA,left,855,1,1,1288
9RQ73bnn,NA,NA,9RQ73bnn,2020-0188,2021-11-01,22:46:27,23:42:15,NA,incomplete,false,NA,true,6,19,NA,NA,left,NA,NA,m_s_027.jpg,n_s_027.jpg,between-small,NA,NaN,NA,right,1083,0,1,1140
9RQ73bnn,NA,NA,9RQ73bnn,2020-0188,2021-11-01,22:46:27,23:42:15,NA,incomplete,false,NA,true,6,20,NA,NA,right,NA,NA,c_2_021.jpg,c_1_009.jpg,within,NA,NaN,NA,right,1800,1,1,1070
9RQ73bnn,NA,NA,9RQ73bnn,2020-0188,2021-11-01,22:46:27,23:42:15,NA,incomplete,false,NA,true,6,21,NA,NA,right,NA,NA,m_l_011.jpg,m_l_003.jpg,between-small,NA,NaN,NA,left,1136,0,1,904
9RQ73bnn,NA,NA,9RQ73bnn,2020-0188,2021-11-01,22:46:27,23:42:15,NA,incomplete,false,NA,true,6,22,NA,NA,right,NA,NA,m_s_007.jpg,m_s_020.jpg,within,NA,NaN,NA,left,709,0,1,841
9RQ73bnn,NA,NA,9RQ73bnn,2020-0188,2021-11-01,22:46:27,23:42:15,NA,incomplete,false,NA,true,6,23,NA,NA,left,NA,NA,c_1_003.jpg,n_l_004.jpg,between-big,NA,NaN,NA,right,1304,0,1,1706
9RQ73bnn,NA,NA,9RQ73bnn,2020-0188,2021-11-01,22:46:27,23:42:15,NA,incomplete,false,NA,true,6,24,NA,NA,right,NA,NA,c_2_005.jpg,o_s_003.jpg,between-big,NA,NaN,NA,right,1504.0000000004657,1,2,1255
9RQ73bnn,NA,NA,9RQ73bnn,2020-0188,2021-11-01,22:46:27,23:42:15,NA,incomplete,false,NA,true,6,25,NA,NA,left,NA,NA,o_c_026.jpg,o_s_003.jpg,within,NA,NaN,NA,right,1761,0,1,1148
9RQ73bnn,NA,NA,9RQ73bnn,2020-0188,2021-11-01,22:46:27,23:42:15,NA,incomplete,false,NA,true,6,26,NA,NA,right,NA,NA,n_l_025.jpg,n_l_010.jpg,within,NA,NaN,NA,left,766,0,1,1965
9RQ73bnn,NA,NA,9RQ73bnn,2020-0188,2021-11-01,22:46:27,23:42:15,NA,incomplete,false,true,NA,7,0,syllable,c_2_011.jpg,right,2 syllables,1 syllable,NA,NA,NA,left,1439,false,NA,NA,NA,NA,NA
9RQ73bnn,NA,NA,9RQ73bnn,2020-0188,2021-11-01,22:46:27,23:42:15,NA,incomplete,false,true,NA,7,1,syllable,c_1_010.jpg,right,1 syllable,2 syllables,NA,NA,NA,left,1005,false,NA,NA,NA,NA,NA
9RQ73bnn,NA,NA,9RQ73bnn,2020-0188,2021-11-01,22:46:27,23:42:15,NA,incomplete,false,true,NA,7,2,syllable,a_1_011.jpg,right,2 syllables,1 syllable,NA,NA,NA,right,1608,true,NA,NA,NA,NA,NA
9RQ73bnn,NA,NA,9RQ73bnn,2020-0188,2021-11-01,22:46:27,23:42:15,NA,incomplete,false,true,NA,7,3,syllable,c_2_009.jpg,right,1 syllable,2 syllables,NA,NA,NA,right,1378.99999999953,true,NA,NA,NA,NA,NA
9RQ73bnn,NA,NA,9RQ73bnn,2020-0188,2021-11-01,22:46:27,23:42:15,NA,incomplete,false,true,NA,7,4,syllable,c_2_023.jpg,right,1 syllable,2 syllables,NA,NA,NA,right,1474.00000000047,true,NA,NA,NA,NA,NA
9RQ73bnn,NA,NA,9RQ73bnn,2020-0188,2021-11-01,22:46:27,23:42:15,NA,incomplete,false,true,NA,7,5,abstractness,a_2_003.jpg,right,concrete,abstract,NA,NA,NA,right,3192,true,NA,NA,NA,NA,NA
9RQ73bnn,NA,NA,9RQ73bnn,2020-0188,2021-11-01,22:46:27,23:42:15,NA,incomplete,false,true,NA,7,6,abstractness,c_1_014.jpg,right,abstract,concrete,NA,NA,NA,right,2372,true,NA,NA,NA,NA,NA
9RQ73bnn,NA,NA,9RQ73bnn,2020-0188,2021-11-01,22:46:27,23:42:15,NA,incomplete,false,true,NA,7,7,abstractness,c_1_013.jpg,left,concrete,abstract,NA,NA,NA,left,1821,true,NA,NA,NA,NA,NA
9RQ73bnn,NA,NA,9RQ73bnn,2020-0188,2021-11-01,22:46:27,23:42:15,NA,incomplete,false,true,NA,7,8,abstractness,c_1_008.jpg,right,abstract,concrete,NA,NA,NA,right,1401.99999999953,true,NA,NA,NA,NA,NA
9RQ73bnn,NA,NA,9RQ73bnn,2020-0188,2021-11-01,22:46:27,23:42:15,NA,incomplete,false,true,NA,7,9,abstractness,a_1_007.jpg,left,abstract,concrete,NA,NA,NA,left,2046.99999999953,true,NA,NA,NA,NA,NA
9RQ73bnn,NA,NA,9RQ73bnn,2020-0188,2021-11-01,22:46:27,23:42:15,NA,incomplete,false,true,NA,7,10,building,i_c_008.jpg,right,skyscraper,cottage,NA,NA,NA,right,2509,true,NA,NA,NA,NA,NA
9RQ73bnn,NA,NA,9RQ73bnn,2020-0188,2021-11-01,22:46:27,23:42:15,NA,incomplete,false,true,NA,7,11,building,o_c_023.jpg,right,skyscraper,cottage,NA,NA,NA,right,1550,true,NA,NA,NA,NA,NA
9RQ73bnn,NA,NA,9RQ73bnn,2020-0188,2021-11-01,22:46:27,23:42:15,NA,incomplete,false,true,NA,7,12,building,o_c_012.jpg,right,skyscraper,cottage,NA,NA,NA,right,1791,true,NA,NA,NA,NA,NA
9RQ73bnn,NA,NA,9RQ73bnn,2020-0188,2021-11-01,22:46:27,23:42:15,NA,incomplete,false,true,NA,7,13,building,i_c_001.jpg,right,skyscraper,cottage,NA,NA,NA,right,1426,true,NA,NA,NA,NA,NA
9RQ73bnn,NA,NA,9RQ73bnn,2020-0188,2021-11-01,22:46:27,23:42:15,NA,incomplete,false,true,NA,7,14,building,o_s_010.jpg,right,cottage,skyscraper,NA,NA,NA,right,1161,true,NA,NA,NA,NA,NA
9RQ73bnn,NA,NA,9RQ73bnn,2020-0188,2021-11-01,22:46:27,23:42:15,NA,incomplete,false,true,NA,7,15,location,i_c_027.jpg,left,indoor,outdoor,NA,NA,NA,left,916,true,NA,NA,NA,NA,NA
9RQ73bnn,NA,NA,9RQ73bnn,2020-0188,2021-11-01,22:46:27,23:42:15,NA,incomplete,false,true,NA,7,16,location,i_s_004.jpg,right,outdoor,indoor,NA,NA,NA,right,1046,true,NA,NA,NA,NA,NA
9RQ73bnn,NA,NA,9RQ73bnn,2020-0188,2021-11-01,22:46:27,23:42:15,NA,incomplete,false,true,NA,7,17,location,o_s_027.jpg,right,indoor,outdoor,NA,NA,NA,left,1284,false,NA,NA,NA,NA,NA
9RQ73bnn,NA,NA,9RQ73bnn,2020-0188,2021-11-01,22:46:27,23:42:15,NA,incomplete,false,true,NA,7,18,location,i_c_025.jpg,right,outdoor,indoor,NA,NA,NA,right,1283,true,NA,NA,NA,NA,NA
9RQ73bnn,NA,NA,9RQ73bnn,2020-0188,2021-11-01,22:46:27,23:42:15,NA,incomplete,false,true,NA,7,19,location,i_c_024.jpg,left,indoor,outdoor,NA,NA,NA,left,908,true,NA,NA,NA,NA,NA
9RQ73bnn,NA,NA,9RQ73bnn,2020-0188,2021-11-01,22:46:27,23:42:15,NA,incomplete,false,true,NA,7,20,size,m_l_016.jpg,left,large,small,NA,NA,NA,left,1328,true,NA,NA,NA,NA,NA
9RQ73bnn,NA,NA,9RQ73bnn,2020-0188,2021-11-01,22:46:27,23:42:15,NA,incomplete,false,true,NA,7,21,size,m_s_024.jpg,left,small,large,NA,NA,NA,left,994,true,NA,NA,NA,NA,NA
9RQ73bnn,NA,NA,9RQ73bnn,2020-0188,2021-11-01,22:46:27,23:42:15,NA,incomplete,false,true,NA,7,22,size,n_s_018.jpg,right,large,small,NA,NA,NA,right,1015,true,NA,NA,NA,NA,NA
9RQ73bnn,NA,NA,9RQ73bnn,2020-0188,2021-11-01,22:46:27,23:42:15,NA,incomplete,false,true,NA,7,23,size,m_l_019.jpg,right,small,large,NA,NA,NA,right,1164,true,NA,NA,NA,NA,NA
9RQ73bnn,NA,NA,9RQ73bnn,2020-0188,2021-11-01,22:46:27,23:42:15,NA,incomplete,false,true,NA,7,24,size,m_s_010.jpg,right,large,small,NA,NA,NA,right,1031,true,NA,NA,NA,NA,NA
9RQ73bnn,NA,NA,9RQ73bnn,2020-0188,2021-11-01,22:46:27,23:42:15,NA,incomplete,false,true,NA,7,25,origin,n_l_014.jpg,left,natural,manmade,NA,NA,NA,left,1522,true,NA,NA,NA,NA,NA
9RQ73bnn,NA,NA,9RQ73bnn,2020-0188,2021-11-01,22:46:27,23:42:15,NA,incomplete,false,true,NA,7,26,origin,n_l_012.jpg,right,manmade,natural,NA,NA,NA,right,1740,true,NA,NA,NA,NA,NA
9RQ73bnn,NA,NA,9RQ73bnn,2020-0188,2021-11-01,22:46:27,23:42:15,NA,incomplete,false,true,NA,7,27,origin,n_s_016.jpg,left,natural,manmade,NA,NA,NA,left,752.999999999534,true,NA,NA,NA,NA,NA
9RQ73bnn,NA,NA,9RQ73bnn,2020-0188,2021-11-01,22:46:27,23:42:15,NA,incomplete,false,true,NA,7,28,origin,m_s_021.jpg,left,manmade,natural,NA,NA,NA,left,1576.99999999953,true,NA,NA,NA,NA,NA
9RQ73bnn,NA,NA,9RQ73bnn,2020-0188,2021-11-01,22:46:27,23:42:15,NA,incomplete,false,true,NA,7,29,origin,n_l_028.jpg,right,manmade,natural,NA,NA,NA,right,1222,true,NA,NA,NA,NA,NA
9RQ73bnn,NA,NA,9RQ73bnn,2020-0188,2021-11-01,22:46:27,23:42:15,NA,incomplete,false,NA,true,7,0,NA,NA,left,NA,NA,a_1_011.jpg,a_2_003.jpg,between-small,NA,NaN,NA,left,3801.0000000004657,1,1,831.9999999995343
9RQ73bnn,NA,NA,9RQ73bnn,2020-0188,2021-11-01,22:46:27,23:42:15,NA,incomplete,false,NA,true,7,1,NA,NA,left,NA,NA,i_s_004.jpg,i_c_024.jpg,within,NA,NaN,NA,left,1523.9999999995343,1,1,1044.0000000004657
9RQ73bnn,NA,NA,9RQ73bnn,2020-0188,2021-11-01,22:46:27,23:42:15,NA,incomplete,false,NA,true,7,2,NA,NA,left,NA,NA,c_2_011.jpg,c_2_009.jpg,within,NA,NaN,NA,left,1232,1,1,813
9RQ73bnn,NA,NA,9RQ73bnn,2020-0188,2021-11-01,22:46:27,23:42:15,NA,incomplete,false,NA,true,7,3,NA,NA,right,NA,NA,n_l_014.jpg,n_s_018.jpg,between-small,NA,NaN,NA,right,4806,1,2,1476
9RQ73bnn,NA,NA,9RQ73bnn,2020-0188,2021-11-01,22:46:27,23:42:15,NA,incomplete,false,NA,true,7,4,NA,NA,right,NA,NA,i_c_027.jpg,o_c_012.jpg,between-small,NA,NaN,NA,left,969.9999999995343,0,1,1020
9RQ73bnn,NA,NA,9RQ73bnn,2020-0188,2021-11-01,22:46:27,23:42:15,NA,incomplete,false,NA,true,7,5,NA,NA,left,NA,NA,c_2_023.jpg,c_1_013.jpg,between-small,NA,NaN,NA,left,759,1,2,1344
9RQ73bnn,NA,NA,9RQ73bnn,2020-0188,2021-11-01,22:46:27,23:42:15,NA,incomplete,false,NA,true,7,6,NA,NA,right,NA,NA,c_2_023.jpg,c_1_010.jpg,within,NA,NaN,NA,left,856,0,1,798
9RQ73bnn,NA,NA,9RQ73bnn,2020-0188,2021-11-01,22:46:27,23:42:15,NA,incomplete,false,NA,true,7,7,NA,NA,left,NA,NA,i_c_008.jpg,i_c_001.jpg,within,NA,NaN,NA,left,1059.9999999995343,1,1,857
9RQ73bnn,NA,NA,9RQ73bnn,2020-0188,2021-11-01,22:46:27,23:42:15,NA,incomplete,false,NA,true,7,8,NA,NA,right,NA,NA,o_s_027.jpg,o_s_010.jpg,between-small,NA,NaN,NA,right,732,1,1,1059
9RQ73bnn,NA,NA,9RQ73bnn,2020-0188,2021-11-01,22:46:27,23:42:15,NA,incomplete,false,NA,true,7,9,NA,NA,left,NA,NA,n_l_014.jpg,m_s_021.jpg,within,NA,NaN,NA,left,1475,1,1,806
9RQ73bnn,NA,NA,9RQ73bnn,2020-0188,2021-11-01,22:46:27,23:42:15,NA,incomplete,false,NA,true,7,10,NA,NA,left,NA,NA,n_l_012.jpg,n_l_028.jpg,within,NA,NaN,NA,right,1753,0,2,1102
9RQ73bnn,NA,NA,9RQ73bnn,2020-0188,2021-11-01,22:46:27,23:42:15,NA,incomplete,false,NA,true,7,11,NA,NA,right,NA,NA,i_s_004.jpg,i_c_001.jpg,between-small,NA,NaN,NA,left,1255,0,1,954
9RQ73bnn,NA,NA,9RQ73bnn,2020-0188,2021-11-01,22:46:27,23:42:15,NA,incomplete,false,NA,true,7,12,NA,NA,left,NA,NA,m_s_024.jpg,m_s_010.jpg,within,NA,NaN,NA,left,2937,1,1,1468
9RQ73bnn,NA,NA,9RQ73bnn,2020-0188,2021-11-01,22:46:27,23:42:15,NA,incomplete,false,NA,true,7,13,NA,NA,left,NA,NA,c_1_008.jpg,o_c_023.jpg,between-big,NA,NaN,NA,right,3210,0,1,896
9RQ73bnn,NA,NA,9RQ73bnn,2020-0188,2021-11-01,22:46:27,23:42:15,NA,incomplete,false,NA,true,7,14,NA,NA,right,NA,NA,o_s_010.jpg,o_c_023.jpg,within,NA,NaN,NA,left,675,0,1,1842.9999999995343
9RQ73bnn,NA,NA,9RQ73bnn,2020-0188,2021-11-01,22:46:27,23:42:15,NA,incomplete,false,NA,true,7,15,NA,NA,left,NA,NA,i_c_027.jpg,i_c_025.jpg,within,NA,NaN,NA,left,659.0000000004657,1,1,806
9RQ73bnn,NA,NA,9RQ73bnn,2020-0188,2021-11-01,22:46:27,23:42:15,NA,incomplete,false,NA,true,7,16,NA,NA,left,NA,NA,a_1_007.jpg,o_c_012.jpg,between-big,NA,NaN,NA,left,831,1,1,921
9RQ73bnn,NA,NA,9RQ73bnn,2020-0188,2021-11-01,22:46:27,23:42:15,NA,incomplete,false,NA,true,7,17,NA,NA,left,NA,NA,m_l_016.jpg,m_l_019.jpg,within,NA,NaN,NA,left,1411,1,1,1043
9RQ73bnn,NA,NA,9RQ73bnn,2020-0188,2021-11-01,22:46:27,23:42:15,NA,incomplete,false,NA,true,7,18,NA,NA,right,NA,NA,n_s_018.jpg,i_c_024.jpg,between-big,NA,NaN,NA,left,1256,0,2,1337
9RQ73bnn,NA,NA,9RQ73bnn,2020-0188,2021-11-01,22:46:27,23:42:15,NA,incomplete,false,NA,true,7,19,NA,NA,right,NA,NA,c_1_014.jpg,c_2_009.jpg,between-small,NA,NaN,NA,right,1018,1,1,978
9RQ73bnn,NA,NA,9RQ73bnn,2020-0188,2021-11-01,22:46:27,23:42:15,NA,incomplete,false,NA,true,7,20,NA,NA,right,NA,NA,c_1_008.jpg,a_2_003.jpg,within,NA,NaN,NA,left,488,0,2,2822
9RQ73bnn,NA,NA,9RQ73bnn,2020-0188,2021-11-01,22:46:27,23:42:15,NA,incomplete,false,NA,true,7,21,NA,NA,left,NA,NA,c_1_013.jpg,i_c_008.jpg,between-big,NA,NaN,NA,left,544,1,1,1190
9RQ73bnn,NA,NA,9RQ73bnn,2020-0188,2021-11-01,22:46:27,23:42:15,NA,incomplete,false,NA,true,7,22,NA,NA,right,NA,NA,a_1_007.jpg,c_1_014.jpg,within,NA,NaN,NA,right,1010,1,1,1368
9RQ73bnn,NA,NA,9RQ73bnn,2020-0188,2021-11-01,22:46:27,23:42:15,NA,incomplete,false,NA,true,7,23,NA,NA,right,NA,NA,m_l_016.jpg,o_s_027.jpg,between-big,NA,NaN,NA,left,441,0,2,1059
9RQ73bnn,NA,NA,9RQ73bnn,2020-0188,2021-11-01,22:46:27,23:42:15,NA,incomplete,false,NA,true,7,24,NA,NA,left,NA,NA,m_s_010.jpg,n_s_016.jpg,between-small,NA,NaN,NA,left,638,1,1,831
9RQ73bnn,NA,NA,9RQ73bnn,2020-0188,2021-11-01,22:46:27,23:42:15,NA,incomplete,false,NA,true,7,25,NA,NA,right,NA,NA,m_s_024.jpg,i_c_025.jpg,between-big,NA,NaN,NA,left,489,0,2,1108
9RQ73bnn,NA,NA,9RQ73bnn,2020-0188,2021-11-01,22:46:27,23:42:15,NA,incomplete,false,NA,true,7,26,NA,NA,left,NA,NA,m_l_019.jpg,n_l_012.jpg,between-small,NA,NaN,NA,left,682.0000000004657,1,2,2063
9RQ73bnn,NA,NA,9RQ73bnn,2020-0188,2021-11-01,22:46:27,23:42:15,NA,incomplete,false,true,NA,8,0,building,i_s_012.jpg,left,skyscraper,cottage,NA,NA,NA,left,1364,true,NA,NA,NA,NA,NA
9RQ73bnn,NA,NA,9RQ73bnn,2020-0188,2021-11-01,22:46:27,23:42:15,NA,incomplete,false,true,NA,8,1,building,i_c_022.jpg,right,skyscraper,cottage,NA,NA,NA,left,1094,false,NA,NA,NA,NA,NA
9RQ73bnn,NA,NA,9RQ73bnn,2020-0188,2021-11-01,22:46:27,23:42:15,NA,incomplete,false,true,NA,8,2,building,o_c_005.jpg,left,cottage,skyscraper,NA,NA,NA,left,1729,true,NA,NA,NA,NA,NA
9RQ73bnn,NA,NA,9RQ73bnn,2020-0188,2021-11-01,22:46:27,23:42:15,NA,incomplete,false,true,NA,8,3,building,i_s_008.jpg,left,skyscraper,cottage,NA,NA,NA,left,1389,true,NA,NA,NA,NA,NA
9RQ73bnn,NA,NA,9RQ73bnn,2020-0188,2021-11-01,22:46:27,23:42:15,NA,incomplete,false,true,NA,8,4,building,i_c_026.jpg,right,skyscraper,cottage,NA,NA,NA,right,1308,true,NA,NA,NA,NA,NA
9RQ73bnn,NA,NA,9RQ73bnn,2020-0188,2021-11-01,22:46:27,23:42:15,NA,incomplete,false,true,NA,8,5,location,i_s_005.jpg,left,indoor,outdoor,NA,NA,NA,left,1255,true,NA,NA,NA,NA,NA
9RQ73bnn,NA,NA,9RQ73bnn,2020-0188,2021-11-01,22:46:27,23:42:15,NA,incomplete,false,true,NA,8,6,location,i_c_011.jpg,right,outdoor,indoor,NA,NA,NA,right,1373,true,NA,NA,NA,NA,NA
9RQ73bnn,NA,NA,9RQ73bnn,2020-0188,2021-11-01,22:46:27,23:42:15,NA,incomplete,false,true,NA,8,7,location,o_c_015.jpg,right,indoor,outdoor,NA,NA,NA,right,1202,true,NA,NA,NA,NA,NA
9RQ73bnn,NA,NA,9RQ73bnn,2020-0188,2021-11-01,22:46:27,23:42:15,NA,incomplete,false,true,NA,8,8,location,i_s_021.jpg,left,indoor,outdoor,NA,NA,NA,left,1167,true,NA,NA,NA,NA,NA
9RQ73bnn,NA,NA,9RQ73bnn,2020-0188,2021-11-01,22:46:27,23:42:15,NA,incomplete,false,true,NA,8,9,location,o_s_005.jpg,left,outdoor,indoor,NA,NA,NA,left,1396,true,NA,NA,NA,NA,NA
9RQ73bnn,NA,NA,9RQ73bnn,2020-0188,2021-11-01,22:46:27,23:42:15,NA,incomplete,false,true,NA,8,10,origin,m_s_023.jpg,right,natural,manmade,NA,NA,NA,right,1965,true,NA,NA,NA,NA,NA
9RQ73bnn,NA,NA,9RQ73bnn,2020-0188,2021-11-01,22:46:27,23:42:15,NA,incomplete,false,true,NA,8,11,origin,m_l_007.jpg,left,manmade,natural,NA,NA,NA,left,1906,true,NA,NA,NA,NA,NA
9RQ73bnn,NA,NA,9RQ73bnn,2020-0188,2021-11-01,22:46:27,23:42:15,NA,incomplete,false,true,NA,8,12,origin,n_s_005.jpg,left,natural,manmade,NA,NA,NA,left,1274,true,NA,NA,NA,NA,NA
9RQ73bnn,NA,NA,9RQ73bnn,2020-0188,2021-11-01,22:46:27,23:42:15,NA,incomplete,false,true,NA,8,13,origin,m_s_014.jpg,right,natural,manmade,NA,NA,NA,right,1302,true,NA,NA,NA,NA,NA
9RQ73bnn,NA,NA,9RQ73bnn,2020-0188,2021-11-01,22:46:27,23:42:15,NA,incomplete,false,true,NA,8,14,origin,m_l_020.jpg,left,manmade,natural,NA,NA,NA,left,790.999999999534,true,NA,NA,NA,NA,NA
9RQ73bnn,NA,NA,9RQ73bnn,2020-0188,2021-11-01,22:46:27,23:42:15,NA,incomplete,false,true,NA,8,15,size,m_s_026.jpg,left,small,large,NA,NA,NA,left,1131,true,NA,NA,NA,NA,NA
9RQ73bnn,NA,NA,9RQ73bnn,2020-0188,2021-11-01,22:46:27,23:42:15,NA,incomplete,false,true,NA,8,16,size,n_l_007.jpg,left,large,small,NA,NA,NA,left,1526,true,NA,NA,NA,NA,NA
9RQ73bnn,NA,NA,9RQ73bnn,2020-0188,2021-11-01,22:46:27,23:42:15,NA,incomplete,false,true,NA,8,17,size,m_l_009.jpg,left,large,small,NA,NA,NA,left,1544,true,NA,NA,NA,NA,NA
9RQ73bnn,NA,NA,9RQ73bnn,2020-0188,2021-11-01,22:46:27,23:42:15,NA,incomplete,false,true,NA,8,18,size,m_l_012.jpg,right,small,large,NA,NA,NA,right,1117,true,NA,NA,NA,NA,NA
9RQ73bnn,NA,NA,9RQ73bnn,2020-0188,2021-11-01,22:46:27,23:42:15,NA,incomplete,false,true,NA,8,19,size,n_s_008.jpg,right,large,small,NA,NA,NA,right,1301,true,NA,NA,NA,NA,NA
9RQ73bnn,NA,NA,9RQ73bnn,2020-0188,2021-11-01,22:46:27,23:42:15,NA,incomplete,false,true,NA,8,20,syllable,a_1_015.jpg,right,1 syllable,2 syllables,NA,NA,NA,left,1457,false,NA,NA,NA,NA,NA
9RQ73bnn,NA,NA,9RQ73bnn,2020-0188,2021-11-01,22:46:27,23:42:15,NA,incomplete,false,true,NA,8,21,syllable,c_1_016.jpg,right,2 syllables,1 syllable,NA,NA,NA,right,1656,true,NA,NA,NA,NA,NA
9RQ73bnn,NA,NA,9RQ73bnn,2020-0188,2021-11-01,22:46:27,23:42:15,NA,incomplete,false,true,NA,8,22,syllable,a_2_002.jpg,right,1 syllable,2 syllables,NA,NA,NA,left,1920,false,NA,NA,NA,NA,NA
9RQ73bnn,NA,NA,9RQ73bnn,2020-0188,2021-11-01,22:46:27,23:42:15,NA,incomplete,false,true,NA,8,23,syllable,c_1_001.jpg,right,2 syllables,1 syllable,NA,NA,NA,right,1621,true,NA,NA,NA,NA,NA
9RQ73bnn,NA,NA,9RQ73bnn,2020-0188,2021-11-01,22:46:27,23:42:15,NA,incomplete,false,true,NA,8,24,syllable,a_2_010.jpg,right,2 syllables,1 syllable,NA,NA,NA,left,679,false,NA,NA,NA,NA,NA
9RQ73bnn,NA,NA,9RQ73bnn,2020-0188,2021-11-01,22:46:27,23:42:15,NA,incomplete,false,true,NA,8,25,abstractness,a_1_022.jpg,right,concrete,abstract,NA,NA,NA,right,2966,true,NA,NA,NA,NA,NA
9RQ73bnn,NA,NA,9RQ73bnn,2020-0188,2021-11-01,22:46:27,23:42:15,NA,incomplete,false,true,NA,8,26,abstractness,c_2_012.jpg,left,concrete,abstract,NA,NA,NA,left,2428,true,NA,NA,NA,NA,NA
9RQ73bnn,NA,NA,9RQ73bnn,2020-0188,2021-11-01,22:46:27,23:42:15,NA,incomplete,false,true,NA,8,27,abstractness,a_1_001.jpg,right,concrete,abstract,NA,NA,NA,left,2411,false,NA,NA,NA,NA,NA
9RQ73bnn,NA,NA,9RQ73bnn,2020-0188,2021-11-01,22:46:27,23:42:15,NA,incomplete,false,true,NA,8,28,abstractness,c_2_004.jpg,left,concrete,abstract,NA,NA,NA,left,1709,true,NA,NA,NA,NA,NA
9RQ73bnn,NA,NA,9RQ73bnn,2020-0188,2021-11-01,22:46:27,23:42:15,NA,incomplete,false,true,NA,8,29,abstractness,c_2_025.jpg,right,abstract,concrete,NA,NA,NA,right,1455,true,NA,NA,NA,NA,NA
9RQ73bnn,NA,NA,9RQ73bnn,2020-0188,2021-11-01,22:46:27,23:42:15,NA,incomplete,false,NA,true,8,0,NA,NA,right,NA,NA,m_l_020.jpg,m_l_007.jpg,within,NA,NaN,NA,right,1883,1,1,789.0000000004657
9RQ73bnn,NA,NA,9RQ73bnn,2020-0188,2021-11-01,22:46:27,23:42:15,NA,incomplete,false,NA,true,8,1,NA,NA,left,NA,NA,o_s_005.jpg,n_s_005.jpg,between-big,NA,NaN,NA,left,1489,1,2,1694.9999999995343
9RQ73bnn,NA,NA,9RQ73bnn,2020-0188,2021-11-01,22:46:27,23:42:15,NA,incomplete,false,NA,true,8,2,NA,NA,right,NA,NA,n_s_008.jpg,n_l_007.jpg,within,NA,NaN,NA,left,2015,0,1,1020
9RQ73bnn,NA,NA,9RQ73bnn,2020-0188,2021-11-01,22:46:27,23:42:15,NA,incomplete,false,NA,true,8,3,NA,NA,left,NA,NA,a_1_022.jpg,c_2_004.jpg,within,NA,NaN,NA,left,1948,1,1,802.9999999995343
9RQ73bnn,NA,NA,9RQ73bnn,2020-0188,2021-11-01,22:46:27,23:42:15,NA,incomplete,false,NA,true,8,4,NA,NA,right,NA,NA,i_s_021.jpg,i_s_005.jpg,within,NA,NaN,NA,left,1288,0,1,708
9RQ73bnn,NA,NA,9RQ73bnn,2020-0188,2021-11-01,22:46:27,23:42:15,NA,incomplete,false,NA,true,8,5,NA,NA,left,NA,NA,i_s_008.jpg,i_c_011.jpg,between-small,NA,NaN,NA,right,2242,0,1,959
9RQ73bnn,NA,NA,9RQ73bnn,2020-0188,2021-11-01,22:46:27,23:42:15,NA,incomplete,false,NA,true,8,6,NA,NA,left,NA,NA,n_s_005.jpg,m_s_026.jpg,between-small,NA,NaN,NA,left,1400,1,1,1246.0000000004657
9RQ73bnn,NA,NA,9RQ73bnn,2020-0188,2021-11-01,22:46:27,23:42:15,NA,incomplete,false,NA,true,8,7,NA,NA,right,NA,NA,a_2_010.jpg,c_1_016.jpg,within,NA,NaN,NA,left,806,0,1,1035
9RQ73bnn,NA,NA,9RQ73bnn,2020-0188,2021-11-01,22:46:27,23:42:15,NA,incomplete,false,NA,true,8,8,NA,NA,left,NA,NA,i_c_022.jpg,i_c_026.jpg,within,NA,NaN,NA,left,814.0000000004657,1,1,978
9RQ73bnn,NA,NA,9RQ73bnn,2020-0188,2021-11-01,22:46:27,23:42:15,NA,incomplete,false,NA,true,8,9,NA,NA,left,NA,NA,c_2_012.jpg,c_2_025.jpg,within,NA,NaN,NA,left,739,1,1,1028
9RQ73bnn,NA,NA,9RQ73bnn,2020-0188,2021-11-01,22:46:27,23:42:15,NA,incomplete,false,NA,true,8,10,NA,NA,right,NA,NA,i_s_005.jpg,o_c_005.jpg,between-small,NA,NaN,NA,left,642,0,1,786.0000000004657
9RQ73bnn,NA,NA,9RQ73bnn,2020-0188,2021-11-01,22:46:27,23:42:15,NA,incomplete,false,NA,true,8,11,NA,NA,left,NA,NA,o_c_015.jpg,m_s_023.jpg,between-big,NA,NaN,NA,left,1436,1,2,3554
9RQ73bnn,NA,NA,9RQ73bnn,2020-0188,2021-11-01,22:46:27,23:42:15,NA,incomplete,false,NA,true,8,12,NA,NA,right,NA,NA,c_2_012.jpg,c_1_001.jpg,between-small,NA,NaN,NA,left,870.9999999995343,0,1,889
9RQ73bnn,NA,NA,9RQ73bnn,2020-0188,2021-11-01,22:46:27,23:42:15,NA,incomplete,false,NA,true,8,13,NA,NA,left,NA,NA,a_1_015.jpg,c_1_001.jpg,within,NA,NaN,NA,right,865,0,1,1148
9RQ73bnn,NA,NA,9RQ73bnn,2020-0188,2021-11-01,22:46:27,23:42:15,NA,incomplete,false,NA,true,8,14,NA,NA,right,NA,NA,m_l_012.jpg,m_s_026.jpg,within,NA,NaN,NA,left,807,0,1,945
9RQ73bnn,NA,NA,9RQ73bnn,2020-0188,2021-11-01,22:46:27,23:42:15,NA,incomplete,false,NA,true,8,15,NA,NA,left,NA,NA,m_l_009.jpg,a_1_015.jpg,between-big,NA,NaN,NA,left,651,1,2,3246
9RQ73bnn,NA,NA,9RQ73bnn,2020-0188,2021-11-01,22:46:27,23:42:15,NA,incomplete,false,NA,true,8,16,NA,NA,right,NA,NA,m_l_007.jpg,i_s_021.jpg,between-big,NA,NaN,NA,right,1175,1,2,814
9RQ73bnn,NA,NA,9RQ73bnn,2020-0188,2021-11-01,22:46:27,23:42:15,NA,incomplete,false,NA,true,8,17,NA,NA,left,NA,NA,i_s_012.jpg,i_s_008.jpg,within,NA,NaN,NA,left,898.0000000004657,1,1,928
9RQ73bnn,NA,NA,9RQ73bnn,2020-0188,2021-11-01,22:46:27,23:42:15,NA,incomplete,false,NA,true,8,18,NA,NA,right,NA,NA,o_c_015.jpg,i_c_026.jpg,between-small,NA,NaN,NA,left,839,0,1,1198
9RQ73bnn,NA,NA,9RQ73bnn,2020-0188,2021-11-01,22:46:27,23:42:15,NA,incomplete,false,NA,true,8,19,NA,NA,right,NA,NA,c_1_016.jpg,m_l_012.jpg,between-big,NA,NaN,NA,right,985,1,2,1909
9RQ73bnn,NA,NA,9RQ73bnn,2020-0188,2021-11-01,22:46:27,23:42:15,NA,incomplete,false,NA,true,8,20,NA,NA,right,NA,NA,n_l_007.jpg,m_s_014.jpg,between-small,NA,NaN,NA,left,1451,0,1,816
9RQ73bnn,NA,NA,9RQ73bnn,2020-0188,2021-11-01,22:46:27,23:42:15,NA,incomplete,false,NA,true,8,21,NA,NA,right,NA,NA,a_2_002.jpg,n_s_008.jpg,between-big,NA,NaN,NA,right,822.9999999995343,1,1,1410
9RQ73bnn,NA,NA,9RQ73bnn,2020-0188,2021-11-01,22:46:27,23:42:15,NA,incomplete,false,NA,true,8,22,NA,NA,left,NA,NA,m_s_023.jpg,m_s_014.jpg,within,NA,NaN,NA,left,831.0000000004657,1,1,872.0000000004657
9RQ73bnn,NA,NA,9RQ73bnn,2020-0188,2021-11-01,22:46:27,23:42:15,NA,incomplete,false,NA,true,8,23,NA,NA,right,NA,NA,a_1_001.jpg,a_2_010.jpg,between-small,NA,NaN,NA,right,790.9999999995343,1,1,814
9RQ73bnn,NA,NA,9RQ73bnn,2020-0188,2021-11-01,22:46:27,23:42:15,NA,incomplete,false,NA,true,8,24,NA,NA,right,NA,NA,m_l_009.jpg,m_l_020.jpg,between-small,NA,NaN,NA,right,1687,1,1,830
9RQ73bnn,NA,NA,9RQ73bnn,2020-0188,2021-11-01,22:46:27,23:42:15,NA,incomplete,false,NA,true,8,25,NA,NA,left,NA,NA,i_c_011.jpg,o_s_005.jpg,within,NA,NaN,NA,right,2749,0,1,986
9RQ73bnn,NA,NA,9RQ73bnn,2020-0188,2021-11-01,22:46:27,23:42:15,NA,incomplete,false,NA,true,8,26,NA,NA,right,NA,NA,a_1_022.jpg,a_2_002.jpg,between-small,NA,NaN,NA,left,799,0,1,1256
9RQ73bnn,NA,NA,9RQ73bnn,2020-0188,2021-11-01,22:46:27,23:42:15,NA,incomplete,false,true,NA,9,0,size,m_s_012.jpg,right,large,small,NA,NA,NA,right,1182,true,NA,NA,NA,NA,NA
9RQ73bnn,NA,NA,9RQ73bnn,2020-0188,2021-11-01,22:46:27,23:42:15,NA,incomplete,false,true,NA,9,1,size,m_l_024.jpg,left,large,small,NA,NA,NA,left,1251,true,NA,NA,NA,NA,NA
9RQ73bnn,NA,NA,9RQ73bnn,2020-0188,2021-11-01,22:46:27,23:42:15,NA,incomplete,false,true,NA,9,2,size,m_s_028.jpg,right,large,small,NA,NA,NA,right,1150,true,NA,NA,NA,NA,NA
9RQ73bnn,NA,NA,9RQ73bnn,2020-0188,2021-11-01,22:46:27,23:42:15,NA,incomplete,false,true,NA,9,3,size,m_l_008.jpg,left,large,small,NA,NA,NA,left,1382,true,NA,NA,NA,NA,NA
9RQ73bnn,NA,NA,9RQ73bnn,2020-0188,2021-11-01,22:46:27,23:42:15,NA,incomplete,false,true,NA,9,4,size,n_s_007.jpg,left,small,large,NA,NA,NA,left,1063,true,NA,NA,NA,NA,NA
9RQ73bnn,NA,NA,9RQ73bnn,2020-0188,2021-11-01,22:46:27,23:42:15,NA,incomplete,false,true,NA,9,5,origin,n_s_010.jpg,left,natural,manmade,NA,NA,NA,left,1857,true,NA,NA,NA,NA,NA
9RQ73bnn,NA,NA,9RQ73bnn,2020-0188,2021-11-01,22:46:27,23:42:15,NA,incomplete,false,true,NA,9,6,origin,n_l_020.jpg,right,manmade,natural,NA,NA,NA,right,1619.00000000047,true,NA,NA,NA,NA,NA
9RQ73bnn,NA,NA,9RQ73bnn,2020-0188,2021-11-01,22:46:27,23:42:15,NA,incomplete,false,true,NA,9,7,origin,n_s_002.jpg,left,natural,manmade,NA,NA,NA,left,1052,true,NA,NA,NA,NA,NA
9RQ73bnn,NA,NA,9RQ73bnn,2020-0188,2021-11-01,22:46:27,23:42:15,NA,incomplete,false,true,NA,9,8,origin,n_l_027.jpg,left,natural,manmade,NA,NA,NA,left,1184,true,NA,NA,NA,NA,NA
9RQ73bnn,NA,NA,9RQ73bnn,2020-0188,2021-11-01,22:46:27,23:42:15,NA,incomplete,false,true,NA,9,9,origin,m_s_002.jpg,left,manmade,natural,NA,NA,NA,left,2327,true,NA,NA,NA,NA,NA
9RQ73bnn,NA,NA,9RQ73bnn,2020-0188,2021-11-01,22:46:27,23:42:15,NA,incomplete,false,true,NA,9,10,syllable,c_1_011.jpg,right,2 syllables,1 syllable,NA,NA,NA,right,1417,true,NA,NA,NA,NA,NA
9RQ73bnn,NA,NA,9RQ73bnn,2020-0188,2021-11-01,22:46:27,23:42:15,NA,incomplete,false,true,NA,9,11,syllable,a_2_021.jpg,right,1 syllable,2 syllables,NA,NA,NA,right,1619,true,NA,NA,NA,NA,NA
9RQ73bnn,NA,NA,9RQ73bnn,2020-0188,2021-11-01,22:46:27,23:42:15,NA,incomplete,false,true,NA,9,12,syllable,a_1_017.jpg,right,2 syllables,1 syllable,NA,NA,NA,right,1370,true,NA,NA,NA,NA,NA
9RQ73bnn,NA,NA,9RQ73bnn,2020-0188,2021-11-01,22:46:27,23:42:15,NA,incomplete,false,true,NA,9,13,syllable,c_2_024.jpg,right,1 syllable,2 syllables,NA,NA,NA,left,730,false,NA,NA,NA,NA,NA
9RQ73bnn,NA,NA,9RQ73bnn,2020-0188,2021-11-01,22:46:27,23:42:15,NA,incomplete,false,true,NA,9,14,syllable,c_1_006.jpg,right,1 syllable,2 syllables,NA,NA,NA,left,1167,false,NA,NA,NA,NA,NA
9RQ73bnn,NA,NA,9RQ73bnn,2020-0188,2021-11-01,22:46:27,23:42:15,NA,incomplete,false,true,NA,9,15,abstractness,c_2_007.jpg,right,abstract,concrete,NA,NA,NA,right,2113,true,NA,NA,NA,NA,NA
9RQ73bnn,NA,NA,9RQ73bnn,2020-0188,2021-11-01,22:46:27,23:42:15,NA,incomplete,false,true,NA,9,16,abstractness,a_2_020.jpg,right,concrete,abstract,NA,NA,NA,right,2147,true,NA,NA,NA,NA,NA
9RQ73bnn,NA,NA,9RQ73bnn,2020-0188,2021-11-01,22:46:27,23:42:15,NA,incomplete,false,true,NA,9,17,abstractness,c_2_028.jpg,left,concrete,abstract,NA,NA,NA,left,1236.99999999953,true,NA,NA,NA,NA,NA
9RQ73bnn,NA,NA,9RQ73bnn,2020-0188,2021-11-01,22:46:27,23:42:15,NA,incomplete,false,true,NA,9,18,abstractness,c_2_020.jpg,right,abstract,concrete,NA,NA,NA,right,2020,true,NA,NA,NA,NA,NA
9RQ73bnn,NA,NA,9RQ73bnn,2020-0188,2021-11-01,22:46:27,23:42:15,NA,incomplete,false,true,NA,9,19,abstractness,a_1_005.jpg,right,concrete,abstract,NA,NA,NA,right,1091,true,NA,NA,NA,NA,NA
9RQ73bnn,NA,NA,9RQ73bnn,2020-0188,2021-11-01,22:46:27,23:42:15,NA,incomplete,false,true,NA,9,20,building,i_c_018.jpg,left,cottage,skyscraper,NA,NA,NA,left,1536.00000000047,true,NA,NA,NA,NA,NA
9RQ73bnn,NA,NA,9RQ73bnn,2020-0188,2021-11-01,22:46:27,23:42:15,NA,incomplete,false,true,NA,9,21,building,i_c_002.jpg,left,cottage,skyscraper,NA,NA,NA,left,1544,true,NA,NA,NA,NA,NA
9RQ73bnn,NA,NA,9RQ73bnn,2020-0188,2021-11-01,22:46:27,23:42:15,NA,incomplete,false,true,NA,9,22,building,o_c_007.jpg,left,cottage,skyscraper,NA,NA,NA,left,1792,true,NA,NA,NA,NA,NA
9RQ73bnn,NA,NA,9RQ73bnn,2020-0188,2021-11-01,22:46:27,23:42:15,NA,incomplete,false,true,NA,9,23,building,o_s_019.jpg,left,skyscraper,cottage,NA,NA,NA,left,1556,true,NA,NA,NA,NA,NA
9RQ73bnn,NA,NA,9RQ73bnn,2020-0188,2021-11-01,22:46:27,23:42:15,NA,incomplete,false,true,NA,9,24,building,o_s_020.jpg,right,cottage,skyscraper,NA,NA,NA,right,2509,true,NA,NA,NA,NA,NA
9RQ73bnn,NA,NA,9RQ73bnn,2020-0188,2021-11-01,22:46:27,23:42:15,NA,incomplete,false,true,NA,9,25,location,o_c_003.jpg,right,indoor,outdoor,NA,NA,NA,right,1800,true,NA,NA,NA,NA,NA
9RQ73bnn,NA,NA,9RQ73bnn,2020-0188,2021-11-01,22:46:27,23:42:15,NA,incomplete,false,true,NA,9,26,location,o_s_011.jpg,left,outdoor,indoor,NA,NA,NA,left,1139,true,NA,NA,NA,NA,NA
9RQ73bnn,NA,NA,9RQ73bnn,2020-0188,2021-11-01,22:46:27,23:42:15,NA,incomplete,false,true,NA,9,27,location,o_c_002.jpg,right,indoor,outdoor,NA,NA,NA,right,1086,true,NA,NA,NA,NA,NA
9RQ73bnn,NA,NA,9RQ73bnn,2020-0188,2021-11-01,22:46:27,23:42:15,NA,incomplete,false,true,NA,9,28,location,o_s_018.jpg,left,outdoor,indoor,NA,NA,NA,left,987,true,NA,NA,NA,NA,NA
9RQ73bnn,NA,NA,9RQ73bnn,2020-0188,2021-11-01,22:46:27,23:42:15,NA,incomplete,false,true,NA,9,29,location,i_c_020.jpg,left,indoor,outdoor,NA,NA,NA,left,1071,true,NA,NA,NA,NA,NA
9RQ73bnn,NA,NA,9RQ73bnn,2020-0188,2021-11-01,22:46:27,23:42:15,NA,incomplete,false,NA,true,9,0,NA,NA,left,NA,NA,o_s_019.jpg,o_s_011.jpg,between-small,NA,NaN,NA,right,3744,0,1,1687
9RQ73bnn,NA,NA,9RQ73bnn,2020-0188,2021-11-01,22:46:27,23:42:15,NA,incomplete,false,NA,true,9,1,NA,NA,right,NA,NA,o_s_018.jpg,o_c_003.jpg,within,NA,NaN,NA,right,2242,1,1,1916
9RQ73bnn,NA,NA,9RQ73bnn,2020-0188,2021-11-01,22:46:27,23:42:15,NA,incomplete,false,NA,true,9,2,NA,NA,right,NA,NA,a_2_020.jpg,c_2_024.jpg,between-small,NA,NaN,NA,left,710.0000000004657,0,1,856
9RQ73bnn,NA,NA,9RQ73bnn,2020-0188,2021-11-01,22:46:27,23:42:15,NA,incomplete,false,NA,true,9,3,NA,NA,left,NA,NA,n_s_002.jpg,c_1_011.jpg,between-big,NA,NaN,NA,left,716,1,2,904
9RQ73bnn,NA,NA,9RQ73bnn,2020-0188,2021-11-01,22:46:27,23:42:15,NA,incomplete,false,NA,true,9,4,NA,NA,right,NA,NA,o_s_020.jpg,i_c_002.jpg,within,NA,NaN,NA,right,3166,1,1,2234
9RQ73bnn,NA,NA,9RQ73bnn,2020-0188,2021-11-01,22:46:27,23:42:15,NA,incomplete,false,NA,true,9,5,NA,NA,right,NA,NA,c_2_007.jpg,a_1_017.jpg,between-small,NA,NaN,NA,left,823,0,1,848
