workerId,hitId,assignmentId,subject,studyid,exp_date,exp_start,exp_end,time_start,time_end,practice,encoding,memory,block,trial,event,stim,answer,label_left,label_right,left_image,right_image,condition,response,response_time,response_acc,order_response,order_response_time,order_acc,distance_response,distance_response_time
adr1gRxH,NA,NA,adr1gRxH,2020-0188,2021-09-26,14:28:51,16:08:47,NA,incomplete,true,true,NA,0,0,abstractness,c_2_026.jpg,left,concrete,abstract,NA,NA,NA,left,2914,true,NA,NA,NA,NA,NA
adr1gRxH,NA,NA,adr1gRxH,2020-0188,2021-09-26,14:28:51,16:08:47,NA,incomplete,true,true,NA,0,1,abstractness,a_1_028.jpg,left,abstract,concrete,NA,NA,NA,left,2103,true,NA,NA,NA,NA,NA
adr1gRxH,NA,NA,adr1gRxH,2020-0188,2021-09-26,14:28:51,16:08:47,NA,incomplete,true,true,NA,0,2,abstractness,a_1_015.jpg,right,concrete,abstract,NA,NA,NA,right,2403,true,NA,NA,NA,NA,NA
adr1gRxH,NA,NA,adr1gRxH,2020-0188,2021-09-26,14:28:51,16:08:47,NA,incomplete,true,true,NA,0,3,abstractness,a_1_023.jpg,left,abstract,concrete,NA,NA,NA,left,1631,true,NA,NA,NA,NA,NA
adr1gRxH,NA,NA,adr1gRxH,2020-0188,2021-09-26,14:28:51,16:08:47,NA,incomplete,true,true,NA,0,4,abstractness,c_1_027.jpg,right,abstract,concrete,NA,NA,NA,right,1219,true,NA,NA,NA,NA,NA
adr1gRxH,NA,NA,adr1gRxH,2020-0188,2021-09-26,14:28:51,16:08:47,NA,incomplete,true,true,NA,0,5,syllable,c_2_004.jpg,right,1 syllable,2 syllables,NA,NA,NA,right,2156,true,NA,NA,NA,NA,NA
adr1gRxH,NA,NA,adr1gRxH,2020-0188,2021-09-26,14:28:51,16:08:47,NA,incomplete,true,true,NA,0,6,syllable,a_1_003.jpg,right,2 syllables,1 syllable,NA,NA,NA,right,2031,true,NA,NA,NA,NA,NA
adr1gRxH,NA,NA,adr1gRxH,2020-0188,2021-09-26,14:28:51,16:08:47,NA,incomplete,true,true,NA,0,7,syllable,a_1_002.jpg,right,1 syllable,2 syllables,NA,NA,NA,left,1641,false,NA,NA,NA,NA,NA
adr1gRxH,NA,NA,adr1gRxH,2020-0188,2021-09-26,14:28:51,16:08:47,NA,incomplete,true,true,NA,0,8,syllable,a_2_016.jpg,right,1 syllable,2 syllables,NA,NA,NA,right,1379.99999999997,true,NA,NA,NA,NA,NA
adr1gRxH,NA,NA,adr1gRxH,2020-0188,2021-09-26,14:28:51,16:08:47,NA,incomplete,true,true,NA,0,9,syllable,a_2_027.jpg,right,2 syllables,1 syllable,NA,NA,NA,left,1553.00000000003,false,NA,NA,NA,NA,NA
adr1gRxH,NA,NA,adr1gRxH,2020-0188,2021-09-26,14:28:51,16:08:47,NA,incomplete,true,true,NA,0,10,size,n_s_028.jpg,left,small,large,NA,NA,NA,left,1480,true,NA,NA,NA,NA,NA
adr1gRxH,NA,NA,adr1gRxH,2020-0188,2021-09-26,14:28:51,16:08:47,NA,incomplete,true,true,NA,0,11,size,n_l_009.jpg,left,large,small,NA,NA,NA,left,1264,true,NA,NA,NA,NA,NA
adr1gRxH,NA,NA,adr1gRxH,2020-0188,2021-09-26,14:28:51,16:08:47,NA,incomplete,true,true,NA,0,12,size,n_l_018.jpg,right,small,large,NA,NA,NA,right,1407.00000000003,true,NA,NA,NA,NA,NA
adr1gRxH,NA,NA,adr1gRxH,2020-0188,2021-09-26,14:28:51,16:08:47,NA,incomplete,true,true,NA,0,13,size,n_l_008.jpg,left,large,small,NA,NA,NA,left,940,true,NA,NA,NA,NA,NA
adr1gRxH,NA,NA,adr1gRxH,2020-0188,2021-09-26,14:28:51,16:08:47,NA,incomplete,true,true,NA,0,14,size,m_s_010.jpg,right,large,small,NA,NA,NA,right,1237,true,NA,NA,NA,NA,NA
adr1gRxH,NA,NA,adr1gRxH,2020-0188,2021-09-26,14:28:51,16:08:47,NA,incomplete,true,true,NA,0,15,origin,n_l_022.jpg,right,manmade,natural,NA,NA,NA,right,1580,true,NA,NA,NA,NA,NA
adr1gRxH,NA,NA,adr1gRxH,2020-0188,2021-09-26,14:28:51,16:08:47,NA,incomplete,true,true,NA,0,16,origin,m_l_015.jpg,right,natural,manmade,NA,NA,NA,right,998.999999999971,true,NA,NA,NA,NA,NA
adr1gRxH,NA,NA,adr1gRxH,2020-0188,2021-09-26,14:28:51,16:08:47,NA,incomplete,true,true,NA,0,17,origin,m_s_009.jpg,left,manmade,natural,NA,NA,NA,right,1400,false,NA,NA,NA,NA,NA
adr1gRxH,NA,NA,adr1gRxH,2020-0188,2021-09-26,14:28:51,16:08:47,NA,incomplete,true,true,NA,0,18,origin,m_l_025.jpg,right,natural,manmade,NA,NA,NA,right,1316,true,NA,NA,NA,NA,NA
adr1gRxH,NA,NA,adr1gRxH,2020-0188,2021-09-26,14:28:51,16:08:47,NA,incomplete,true,true,NA,0,19,origin,n_s_024.jpg,right,manmade,natural,NA,NA,NA,right,1210.00000000003,true,NA,NA,NA,NA,NA
adr1gRxH,NA,NA,adr1gRxH,2020-0188,2021-09-26,14:28:51,16:08:47,NA,incomplete,true,true,NA,0,20,building,i_c_003.jpg,left,cottage,skyscraper,NA,NA,NA,left,1301.99999999997,true,NA,NA,NA,NA,NA
adr1gRxH,NA,NA,adr1gRxH,2020-0188,2021-09-26,14:28:51,16:08:47,NA,incomplete,true,true,NA,0,21,building,i_c_014.jpg,left,cottage,skyscraper,NA,NA,NA,left,939,true,NA,NA,NA,NA,NA
adr1gRxH,NA,NA,adr1gRxH,2020-0188,2021-09-26,14:28:51,16:08:47,NA,incomplete,true,true,NA,0,22,building,i_s_023.jpg,left,skyscraper,cottage,NA,NA,NA,left,1641,true,NA,NA,NA,NA,NA
adr1gRxH,NA,NA,adr1gRxH,2020-0188,2021-09-26,14:28:51,16:08:47,NA,incomplete,true,true,NA,0,23,building,i_s_008.jpg,left,skyscraper,cottage,NA,NA,NA,left,1054,true,NA,NA,NA,NA,NA
adr1gRxH,NA,NA,adr1gRxH,2020-0188,2021-09-26,14:28:51,16:08:47,NA,incomplete,true,true,NA,0,24,building,o_s_015.jpg,left,skyscraper,cottage,NA,NA,NA,left,958,true,NA,NA,NA,NA,NA
adr1gRxH,NA,NA,adr1gRxH,2020-0188,2021-09-26,14:28:51,16:08:47,NA,incomplete,true,true,NA,0,25,location,o_c_008.jpg,right,indoor,outdoor,NA,NA,NA,right,1327.99999999997,true,NA,NA,NA,NA,NA
adr1gRxH,NA,NA,adr1gRxH,2020-0188,2021-09-26,14:28:51,16:08:47,NA,incomplete,true,true,NA,0,26,location,i_c_004.jpg,right,outdoor,indoor,NA,NA,NA,right,1107.00000000003,true,NA,NA,NA,NA,NA
adr1gRxH,NA,NA,adr1gRxH,2020-0188,2021-09-26,14:28:51,16:08:47,NA,incomplete,true,true,NA,0,27,location,i_s_012.jpg,left,indoor,outdoor,NA,NA,NA,left,1037,true,NA,NA,NA,NA,NA
adr1gRxH,NA,NA,adr1gRxH,2020-0188,2021-09-26,14:28:51,16:08:47,NA,incomplete,true,true,NA,0,28,location,o_c_001.jpg,right,indoor,outdoor,NA,NA,NA,right,1097,true,NA,NA,NA,NA,NA
adr1gRxH,NA,NA,adr1gRxH,2020-0188,2021-09-26,14:28:51,16:08:47,NA,incomplete,true,true,NA,0,29,location,o_c_012.jpg,left,outdoor,indoor,NA,NA,NA,left,1160,true,NA,NA,NA,NA,NA
adr1gRxH,NA,NA,adr1gRxH,2020-0188,2021-09-26,14:28:51,16:08:47,NA,incomplete,true,NA,true,0,0,NA,NA,left,NA,NA,n_s_028.jpg,n_l_008.jpg,within,NA,NaN,NA,left,3183,1,1,7643
adr1gRxH,NA,NA,adr1gRxH,2020-0188,2021-09-26,14:28:51,16:08:47,NA,incomplete,true,NA,true,0,1,NA,NA,left,NA,NA,i_s_008.jpg,i_c_004.jpg,between-small,NA,NaN,NA,left,8362,1,0,1260
adr1gRxH,NA,NA,adr1gRxH,2020-0188,2021-09-26,14:28:51,16:08:47,NA,incomplete,true,NA,true,0,2,NA,NA,right,NA,NA,o_c_001.jpg,o_c_008.jpg,within,NA,NaN,NA,right,4163.999999999942,1,1,800
adr1gRxH,NA,NA,adr1gRxH,2020-0188,2021-09-26,14:28:51,16:08:47,NA,incomplete,true,NA,true,0,3,NA,NA,left,NA,NA,o_s_015.jpg,i_s_012.jpg,between-small,NA,NaN,NA,right,2197,0,1,1120
adr1gRxH,NA,NA,adr1gRxH,2020-0188,2021-09-26,14:28:51,16:08:47,NA,incomplete,true,NA,true,0,4,NA,NA,right,NA,NA,m_s_009.jpg,m_s_010.jpg,between-small,NA,NaN,NA,right,7036,1,2,2102
adr1gRxH,NA,NA,adr1gRxH,2020-0188,2021-09-26,14:28:51,16:08:47,NA,incomplete,true,NA,true,0,5,NA,NA,left,NA,NA,a_1_028.jpg,c_1_027.jpg,within,NA,NaN,NA,left,6539,1,0,3498
adr1gRxH,NA,NA,adr1gRxH,2020-0188,2021-09-26,14:28:51,16:08:47,NA,incomplete,true,NA,true,0,6,NA,NA,left,NA,NA,n_l_022.jpg,m_l_025.jpg,within,NA,NaN,NA,left,2714.999999999942,1,1,1598
adr1gRxH,NA,NA,adr1gRxH,2020-0188,2021-09-26,14:28:51,16:08:47,NA,incomplete,true,NA,true,0,7,NA,NA,left,NA,NA,i_c_004.jpg,o_c_012.jpg,within,NA,NaN,NA,left,6638.000000000058,1,0,3459.000000000058
adr1gRxH,NA,NA,adr1gRxH,2020-0188,2021-09-26,14:28:51,16:08:47,NA,incomplete,true,NA,true,0,8,NA,NA,right,NA,NA,a_2_016.jpg,c_2_004.jpg,within,NA,NaN,NA,left,2843.000000000058,0,0,2356
adr1gRxH,NA,NA,adr1gRxH,2020-0188,2021-09-26,14:28:51,16:08:47,NA,incomplete,true,NA,true,0,9,NA,NA,left,NA,NA,n_l_018.jpg,n_l_022.jpg,between-small,NA,NaN,NA,left,3698,1,2,1949.0000000000582
adr1gRxH,NA,NA,adr1gRxH,2020-0188,2021-09-26,14:28:51,16:08:47,NA,incomplete,true,NA,true,0,10,NA,NA,left,NA,NA,n_s_024.jpg,i_s_023.jpg,between-big,NA,NaN,NA,left,2147,1,2,2094
adr1gRxH,NA,NA,adr1gRxH,2020-0188,2021-09-26,14:28:51,16:08:47,NA,incomplete,true,NA,true,0,11,NA,NA,right,NA,NA,c_2_004.jpg,a_1_015.jpg,between-small,NA,NaN,NA,left,6032,0,0,1135
adr1gRxH,NA,NA,adr1gRxH,2020-0188,2021-09-26,14:28:51,16:08:47,NA,incomplete,true,NA,true,0,12,NA,NA,right,NA,NA,n_l_009.jpg,a_2_016.jpg,between-big,NA,NaN,NA,right,3203,1,2,5039
adr1gRxH,NA,NA,adr1gRxH,2020-0188,2021-09-26,14:28:51,16:08:47,NA,incomplete,true,NA,true,0,13,NA,NA,left,NA,NA,m_l_025.jpg,i_c_014.jpg,between-big,NA,NaN,NA,left,4145.000000000058,1,2,1316.0000000000582
adr1gRxH,NA,NA,adr1gRxH,2020-0188,2021-09-26,14:28:51,16:08:47,NA,incomplete,true,NA,true,0,14,NA,NA,left,NA,NA,m_s_009.jpg,i_c_003.jpg,between-big,NA,NaN,NA,left,2066,1,2,2132
adr1gRxH,NA,NA,adr1gRxH,2020-0188,2021-09-26,14:28:51,16:08:47,NA,incomplete,true,NA,true,0,15,NA,NA,right,NA,NA,n_s_028.jpg,a_1_002.jpg,between-big,NA,NaN,NA,right,5375,1,2,831
adr1gRxH,NA,NA,adr1gRxH,2020-0188,2021-09-26,14:28:51,16:08:47,NA,incomplete,true,NA,true,0,16,NA,NA,right,NA,NA,n_l_018.jpg,a_2_027.jpg,between-big,NA,NaN,NA,right,2291,1,2,1582.0000000000582
adr1gRxH,NA,NA,adr1gRxH,2020-0188,2021-09-26,14:28:51,16:08:47,NA,incomplete,true,NA,true,0,17,NA,NA,left,NA,NA,a_1_023.jpg,a_1_003.jpg,between-small,NA,NaN,NA,right,2370,0,0,1077
adr1gRxH,NA,NA,adr1gRxH,2020-0188,2021-09-26,14:28:51,16:08:47,NA,incomplete,true,NA,true,0,18,NA,NA,left,NA,NA,i_c_014.jpg,o_s_015.jpg,within,NA,NaN,NA,left,2738,1,0,2206
adr1gRxH,NA,NA,adr1gRxH,2020-0188,2021-09-26,14:28:51,16:08:47,NA,incomplete,true,NA,true,0,19,NA,NA,left,NA,NA,m_l_015.jpg,n_s_024.jpg,within,NA,NaN,NA,right,3002,0,2,966.9999999999418
adr1gRxH,NA,NA,adr1gRxH,2020-0188,2021-09-26,14:28:51,16:08:47,NA,incomplete,true,NA,true,0,20,NA,NA,right,NA,NA,m_l_015.jpg,n_l_008.jpg,between-small,NA,NaN,NA,right,2020,1,3,711.0000000000582
adr1gRxH,NA,NA,adr1gRxH,2020-0188,2021-09-26,14:28:51,16:08:47,NA,incomplete,true,NA,true,0,21,NA,NA,left,NA,NA,a_1_003.jpg,a_2_027.jpg,within,NA,NaN,NA,right,3408,0,0,1420
adr1gRxH,NA,NA,adr1gRxH,2020-0188,2021-09-26,14:28:51,16:08:47,NA,incomplete,true,NA,true,0,22,NA,NA,left,NA,NA,i_s_023.jpg,o_c_008.jpg,between-small,NA,NaN,NA,right,2483.000000000058,0,1,3331
adr1gRxH,NA,NA,adr1gRxH,2020-0188,2021-09-26,14:28:51,16:08:47,NA,incomplete,true,NA,true,0,23,NA,NA,left,NA,NA,c_1_027.jpg,a_1_002.jpg,between-small,NA,NaN,NA,left,1813,1,0,2037
adr1gRxH,NA,NA,adr1gRxH,2020-0188,2021-09-26,14:28:51,16:08:47,NA,incomplete,true,NA,true,0,24,NA,NA,right,NA,NA,m_s_010.jpg,n_l_009.jpg,within,NA,NaN,NA,right,4390,1,0,1861
adr1gRxH,NA,NA,adr1gRxH,2020-0188,2021-09-26,14:28:51,16:08:47,NA,incomplete,true,NA,true,0,25,NA,NA,left,NA,NA,i_c_003.jpg,i_s_008.jpg,within,NA,NaN,NA,right,1996.9999999998836,0,1,1445
adr1gRxH,NA,NA,adr1gRxH,2020-0188,2021-09-26,14:28:51,16:08:47,NA,incomplete,true,NA,true,0,26,NA,NA,right,NA,NA,a_1_023.jpg,c_2_026.jpg,within,NA,NaN,NA,right,3814.9999999998836,1,0,783
adr1gRxH,NA,NA,adr1gRxH,2020-0188,2021-09-26,14:28:51,16:08:47,NA,incomplete,false,true,NA,1,0,building,o_s_008.jpg,right,cottage,skyscraper,NA,NA,NA,right,2802,true,NA,NA,NA,NA,NA
adr1gRxH,NA,NA,adr1gRxH,2020-0188,2021-09-26,14:28:51,16:08:47,NA,incomplete,false,true,NA,1,1,building,o_c_021.jpg,right,skyscraper,cottage,NA,NA,NA,left,2055,false,NA,NA,NA,NA,NA
adr1gRxH,NA,NA,adr1gRxH,2020-0188,2021-09-26,14:28:51,16:08:47,NA,incomplete,false,true,NA,1,2,building,i_c_011.jpg,right,skyscraper,cottage,NA,NA,NA,right,1025,true,NA,NA,NA,NA,NA
adr1gRxH,NA,NA,adr1gRxH,2020-0188,2021-09-26,14:28:51,16:08:47,NA,incomplete,false,true,NA,1,3,building,i_s_020.jpg,right,cottage,skyscraper,NA,NA,NA,right,1154,true,NA,NA,NA,NA,NA
adr1gRxH,NA,NA,adr1gRxH,2020-0188,2021-09-26,14:28:51,16:08:47,NA,incomplete,false,true,NA,1,4,building,o_s_025.jpg,right,cottage,skyscraper,NA,NA,NA,right,1368,true,NA,NA,NA,NA,NA
adr1gRxH,NA,NA,adr1gRxH,2020-0188,2021-09-26,14:28:51,16:08:47,NA,incomplete,false,true,NA,1,5,location,i_s_002.jpg,right,outdoor,indoor,NA,NA,NA,right,1745,true,NA,NA,NA,NA,NA
adr1gRxH,NA,NA,adr1gRxH,2020-0188,2021-09-26,14:28:51,16:08:47,NA,incomplete,false,true,NA,1,6,location,i_s_019.jpg,left,indoor,outdoor,NA,NA,NA,left,1450.00000000012,true,NA,NA,NA,NA,NA
adr1gRxH,NA,NA,adr1gRxH,2020-0188,2021-09-26,14:28:51,16:08:47,NA,incomplete,false,true,NA,1,7,location,o_c_005.jpg,left,outdoor,indoor,NA,NA,NA,left,1230.99999999988,true,NA,NA,NA,NA,NA
adr1gRxH,NA,NA,adr1gRxH,2020-0188,2021-09-26,14:28:51,16:08:47,NA,incomplete,false,true,NA,1,8,location,o_s_013.jpg,left,outdoor,indoor,NA,NA,NA,left,2006.00000000012,true,NA,NA,NA,NA,NA
adr1gRxH,NA,NA,adr1gRxH,2020-0188,2021-09-26,14:28:51,16:08:47,NA,incomplete,false,true,NA,1,9,location,o_c_024.jpg,right,indoor,outdoor,NA,NA,NA,right,1800,true,NA,NA,NA,NA,NA
adr1gRxH,NA,NA,adr1gRxH,2020-0188,2021-09-26,14:28:51,16:08:47,NA,incomplete,false,true,NA,1,10,syllable,c_1_025.jpg,right,2 syllables,1 syllable,NA,NA,NA,right,1825,true,NA,NA,NA,NA,NA
adr1gRxH,NA,NA,adr1gRxH,2020-0188,2021-09-26,14:28:51,16:08:47,NA,incomplete,false,true,NA,1,11,syllable,a_2_011.jpg,right,1 syllable,2 syllables,NA,NA,NA,right,1139.99999999988,true,NA,NA,NA,NA,NA
adr1gRxH,NA,NA,adr1gRxH,2020-0188,2021-09-26,14:28:51,16:08:47,NA,incomplete,false,true,NA,1,12,syllable,c_2_013.jpg,right,1 syllable,2 syllables,NA,NA,NA,right,1138,true,NA,NA,NA,NA,NA
adr1gRxH,NA,NA,adr1gRxH,2020-0188,2021-09-26,14:28:51,16:08:47,NA,incomplete,false,true,NA,1,13,syllable,a_2_026.jpg,right,2 syllables,1 syllable,NA,NA,NA,left,1048,false,NA,NA,NA,NA,NA
adr1gRxH,NA,NA,adr1gRxH,2020-0188,2021-09-26,14:28:51,16:08:47,NA,incomplete,false,true,NA,1,14,syllable,a_1_014.jpg,right,2 syllables,1 syllable,NA,NA,NA,right,1204,true,NA,NA,NA,NA,NA
adr1gRxH,NA,NA,adr1gRxH,2020-0188,2021-09-26,14:28:51,16:08:47,NA,incomplete,false,true,NA,1,15,abstractness,a_1_005.jpg,right,concrete,abstract,NA,NA,NA,right,3476,true,NA,NA,NA,NA,NA
adr1gRxH,NA,NA,adr1gRxH,2020-0188,2021-09-26,14:28:51,16:08:47,NA,incomplete,false,true,NA,1,16,abstractness,a_1_010.jpg,left,abstract,concrete,NA,NA,NA,left,2409,true,NA,NA,NA,NA,NA
adr1gRxH,NA,NA,adr1gRxH,2020-0188,2021-09-26,14:28:51,16:08:47,NA,incomplete,false,true,NA,1,17,abstractness,c_2_019.jpg,right,abstract,concrete,NA,NA,NA,right,1207.99999999988,true,NA,NA,NA,NA,NA
adr1gRxH,NA,NA,adr1gRxH,2020-0188,2021-09-26,14:28:51,16:08:47,NA,incomplete,false,true,NA,1,18,abstractness,c_2_010.jpg,left,concrete,abstract,NA,NA,NA,left,1223,true,NA,NA,NA,NA,NA
adr1gRxH,NA,NA,adr1gRxH,2020-0188,2021-09-26,14:28:51,16:08:47,NA,incomplete,false,true,NA,1,19,abstractness,a_2_007.jpg,left,abstract,concrete,NA,NA,NA,left,1621,true,NA,NA,NA,NA,NA
adr1gRxH,NA,NA,adr1gRxH,2020-0188,2021-09-26,14:28:51,16:08:47,NA,incomplete,false,true,NA,1,20,origin,m_l_012.jpg,right,natural,manmade,NA,NA,NA,right,1405,true,NA,NA,NA,NA,NA
adr1gRxH,NA,NA,adr1gRxH,2020-0188,2021-09-26,14:28:51,16:08:47,NA,incomplete,false,true,NA,1,21,origin,n_s_009.jpg,left,natural,manmade,NA,NA,NA,left,1666,true,NA,NA,NA,NA,NA
adr1gRxH,NA,NA,adr1gRxH,2020-0188,2021-09-26,14:28:51,16:08:47,NA,incomplete,false,true,NA,1,22,origin,m_s_003.jpg,right,natural,manmade,NA,NA,NA,right,985.000000000116,true,NA,NA,NA,NA,NA
adr1gRxH,NA,NA,adr1gRxH,2020-0188,2021-09-26,14:28:51,16:08:47,NA,incomplete,false,true,NA,1,23,origin,m_l_026.jpg,left,manmade,natural,NA,NA,NA,left,1023,true,NA,NA,NA,NA,NA
adr1gRxH,NA,NA,adr1gRxH,2020-0188,2021-09-26,14:28:51,16:08:47,NA,incomplete,false,true,NA,1,24,origin,n_s_026.jpg,left,natural,manmade,NA,NA,NA,right,1465,false,NA,NA,NA,NA,NA
adr1gRxH,NA,NA,adr1gRxH,2020-0188,2021-09-26,14:28:51,16:08:47,NA,incomplete,false,true,NA,1,25,size,m_s_022.jpg,right,large,small,NA,NA,NA,right,1609,true,NA,NA,NA,NA,NA
adr1gRxH,NA,NA,adr1gRxH,2020-0188,2021-09-26,14:28:51,16:08:47,NA,incomplete,false,true,NA,1,26,size,m_l_028.jpg,right,small,large,NA,NA,NA,right,1465,true,NA,NA,NA,NA,NA
adr1gRxH,NA,NA,adr1gRxH,2020-0188,2021-09-26,14:28:51,16:08:47,NA,incomplete,false,true,NA,1,27,size,n_l_024.jpg,left,large,small,NA,NA,NA,right,2275,false,NA,NA,NA,NA,NA
adr1gRxH,NA,NA,adr1gRxH,2020-0188,2021-09-26,14:28:51,16:08:47,NA,incomplete,false,true,NA,1,28,size,n_l_025.jpg,right,small,large,NA,NA,NA,right,1077,true,NA,NA,NA,NA,NA
adr1gRxH,NA,NA,adr1gRxH,2020-0188,2021-09-26,14:28:51,16:08:47,NA,incomplete,false,true,NA,1,29,size,m_l_027.jpg,left,large,small,NA,NA,NA,left,1130,true,NA,NA,NA,NA,NA
adr1gRxH,NA,NA,adr1gRxH,2020-0188,2021-09-26,14:28:51,16:08:47,NA,incomplete,false,NA,true,1,0,NA,NA,right,NA,NA,c_2_013.jpg,o_c_024.jpg,between-big,NA,NaN,NA,right,2450,1,3,4169
adr1gRxH,NA,NA,adr1gRxH,2020-0188,2021-09-26,14:28:51,16:08:47,NA,incomplete,false,NA,true,1,1,NA,NA,left,NA,NA,c_2_010.jpg,n_s_009.jpg,between-big,NA,NaN,NA,left,2978,1,2,1809
adr1gRxH,NA,NA,adr1gRxH,2020-0188,2021-09-26,14:28:51,16:08:47,NA,incomplete,false,NA,true,1,2,NA,NA,left,NA,NA,i_s_002.jpg,o_s_013.jpg,within,NA,NaN,NA,left,2125,1,2,2179
adr1gRxH,NA,NA,adr1gRxH,2020-0188,2021-09-26,14:28:51,16:08:47,NA,incomplete,false,NA,true,1,3,NA,NA,left,NA,NA,m_l_012.jpg,m_l_026.jpg,within,NA,NaN,NA,right,4001,0,1,2427.0000000001164
adr1gRxH,NA,NA,adr1gRxH,2020-0188,2021-09-26,14:28:51,16:08:47,NA,incomplete,false,NA,true,1,4,NA,NA,left,NA,NA,a_1_005.jpg,c_2_010.jpg,within,NA,NaN,NA,right,4017,0,1,983
adr1gRxH,NA,NA,adr1gRxH,2020-0188,2021-09-26,14:28:51,16:08:47,NA,incomplete,false,NA,true,1,5,NA,NA,left,NA,NA,c_1_025.jpg,a_2_026.jpg,within,NA,NaN,NA,right,4895,0,1,814.0000000001164
adr1gRxH,NA,NA,adr1gRxH,2020-0188,2021-09-26,14:28:51,16:08:47,NA,incomplete,false,NA,true,1,6,NA,NA,left,NA,NA,a_2_011.jpg,a_1_014.jpg,within,NA,NaN,NA,right,2499,0,0,1743
adr1gRxH,NA,NA,adr1gRxH,2020-0188,2021-09-26,14:28:51,16:08:47,NA,incomplete,false,NA,true,1,7,NA,NA,right,NA,NA,c_2_019.jpg,a_1_014.jpg,between-small,NA,NaN,NA,right,2163.0000000001164,1,1,855
adr1gRxH,NA,NA,adr1gRxH,2020-0188,2021-09-26,14:28:51,16:08:47,NA,incomplete,false,NA,true,1,8,NA,NA,right,NA,NA,n_s_026.jpg,n_s_009.jpg,within,NA,NaN,NA,right,4623,1,0,759.0000000001164
adr1gRxH,NA,NA,adr1gRxH,2020-0188,2021-09-26,14:28:51,16:08:47,NA,incomplete,false,NA,true,1,9,NA,NA,right,NA,NA,i_s_002.jpg,i_c_011.jpg,between-small,NA,NaN,NA,right,2587,1,0,1189.9999999998836
adr1gRxH,NA,NA,adr1gRxH,2020-0188,2021-09-26,14:28:51,16:08:47,NA,incomplete,false,NA,true,1,10,NA,NA,left,NA,NA,m_l_026.jpg,m_l_028.jpg,between-small,NA,NaN,NA,left,1764,1,1,1071
adr1gRxH,NA,NA,adr1gRxH,2020-0188,2021-09-26,14:28:51,16:08:47,NA,incomplete,false,NA,true,1,11,NA,NA,right,NA,NA,m_l_027.jpg,m_l_028.jpg,within,NA,NaN,NA,right,4174,1,0,1262
adr1gRxH,NA,NA,adr1gRxH,2020-0188,2021-09-26,14:28:51,16:08:47,NA,incomplete,false,NA,true,1,12,NA,NA,left,NA,NA,o_s_008.jpg,i_s_020.jpg,within,NA,NaN,NA,left,4263.000000000116,1,1,1214.9999999998836
adr1gRxH,NA,NA,adr1gRxH,2020-0188,2021-09-26,14:28:51,16:08:47,NA,incomplete,false,NA,true,1,13,NA,NA,left,NA,NA,c_2_019.jpg,m_l_012.jpg,between-big,NA,NaN,NA,left,3323,1,2,1422
adr1gRxH,NA,NA,adr1gRxH,2020-0188,2021-09-26,14:28:51,16:08:47,NA,incomplete,false,NA,true,1,14,NA,NA,right,NA,NA,n_l_024.jpg,n_s_026.jpg,between-small,NA,NaN,NA,right,2180,1,2,1518
adr1gRxH,NA,NA,adr1gRxH,2020-0188,2021-09-26,14:28:51,16:08:47,NA,incomplete,false,NA,true,1,15,NA,NA,left,NA,NA,i_s_019.jpg,o_c_024.jpg,within,NA,NaN,NA,left,4225.000000000116,1,0,1566
adr1gRxH,NA,NA,adr1gRxH,2020-0188,2021-09-26,14:28:51,16:08:47,NA,incomplete,false,NA,true,1,16,NA,NA,right,NA,NA,c_1_025.jpg,o_c_005.jpg,between-big,NA,NaN,NA,right,1556,1,1,935
adr1gRxH,NA,NA,adr1gRxH,2020-0188,2021-09-26,14:28:51,16:08:47,NA,incomplete,false,NA,true,1,17,NA,NA,left,NA,NA,a_2_026.jpg,a_1_010.jpg,between-small,NA,NaN,NA,right,2097.0000000001164,0,1,1653
adr1gRxH,NA,NA,adr1gRxH,2020-0188,2021-09-26,14:28:51,16:08:47,NA,incomplete,false,NA,true,1,18,NA,NA,right,NA,NA,a_2_011.jpg,o_s_013.jpg,between-big,NA,NaN,NA,right,3767.0000000001164,1,2,1541
adr1gRxH,NA,NA,adr1gRxH,2020-0188,2021-09-26,14:28:51,16:08:47,NA,incomplete,false,NA,true,1,19,NA,NA,right,NA,NA,o_s_025.jpg,o_c_021.jpg,within,NA,NaN,NA,left,2404,0,1,1111
adr1gRxH,NA,NA,adr1gRxH,2020-0188,2021-09-26,14:28:51,16:08:47,NA,incomplete,false,NA,true,1,20,NA,NA,right,NA,NA,m_s_022.jpg,m_s_003.jpg,between-small,NA,NaN,NA,right,1652,1,1,1670
adr1gRxH,NA,NA,adr1gRxH,2020-0188,2021-09-26,14:28:51,16:08:47,NA,incomplete,false,NA,true,1,21,NA,NA,right,NA,NA,a_1_005.jpg,c_2_013.jpg,between-small,NA,NaN,NA,right,1501.0000000001164,1,1,839
adr1gRxH,NA,NA,adr1gRxH,2020-0188,2021-09-26,14:28:51,16:08:47,NA,incomplete,false,NA,true,1,22,NA,NA,right,NA,NA,n_l_025.jpg,m_s_022.jpg,within,NA,NaN,NA,left,3267,0,1,1418.9999999998836
adr1gRxH,NA,NA,adr1gRxH,2020-0188,2021-09-26,14:28:51,16:08:47,NA,incomplete,false,NA,true,1,23,NA,NA,left,NA,NA,a_2_007.jpg,m_s_003.jpg,between-big,NA,NaN,NA,right,1087,0,1,1412
adr1gRxH,NA,NA,adr1gRxH,2020-0188,2021-09-26,14:28:51,16:08:47,NA,incomplete,false,NA,true,1,24,NA,NA,right,NA,NA,o_c_005.jpg,o_s_025.jpg,between-small,NA,NaN,NA,right,1618,1,1,1711
adr1gRxH,NA,NA,adr1gRxH,2020-0188,2021-09-26,14:28:51,16:08:47,NA,incomplete,false,NA,true,1,25,NA,NA,left,NA,NA,a_1_010.jpg,a_2_007.jpg,within,NA,NaN,NA,right,3015,0,1,1422
adr1gRxH,NA,NA,adr1gRxH,2020-0188,2021-09-26,14:28:51,16:08:47,NA,incomplete,false,NA,true,1,26,NA,NA,right,NA,NA,i_s_019.jpg,i_s_020.jpg,between-small,NA,NaN,NA,left,1789,0,0,2075.9999999998836
adr1gRxH,NA,NA,adr1gRxH,2020-0188,2021-09-26,14:28:51,16:08:47,NA,incomplete,false,true,NA,2,0,building,i_s_001.jpg,left,skyscraper,cottage,NA,NA,NA,left,2179,true,NA,NA,NA,NA,NA
adr1gRxH,NA,NA,adr1gRxH,2020-0188,2021-09-26,14:28:51,16:08:47,NA,incomplete,false,true,NA,2,1,building,i_c_005.jpg,left,cottage,skyscraper,NA,NA,NA,left,1951,true,NA,NA,NA,NA,NA
adr1gRxH,NA,NA,adr1gRxH,2020-0188,2021-09-26,14:28:51,16:08:47,NA,incomplete,false,true,NA,2,2,building,i_c_028.jpg,left,cottage,skyscraper,NA,NA,NA,left,1012,true,NA,NA,NA,NA,NA
adr1gRxH,NA,NA,adr1gRxH,2020-0188,2021-09-26,14:28:51,16:08:47,NA,incomplete,false,true,NA,2,3,building,o_c_013.jpg,right,skyscraper,cottage,NA,NA,NA,right,1456,true,NA,NA,NA,NA,NA
adr1gRxH,NA,NA,adr1gRxH,2020-0188,2021-09-26,14:28:51,16:08:47,NA,incomplete,false,true,NA,2,4,building,i_s_015.jpg,right,cottage,skyscraper,NA,NA,NA,right,1049.00000000012,true,NA,NA,NA,NA,NA
adr1gRxH,NA,NA,adr1gRxH,2020-0188,2021-09-26,14:28:51,16:08:47,NA,incomplete,false,true,NA,2,5,location,i_c_022.jpg,right,outdoor,indoor,NA,NA,NA,right,1312,true,NA,NA,NA,NA,NA
adr1gRxH,NA,NA,adr1gRxH,2020-0188,2021-09-26,14:28:51,16:08:47,NA,incomplete,false,true,NA,2,6,location,o_c_020.jpg,left,outdoor,indoor,NA,NA,NA,left,1109,true,NA,NA,NA,NA,NA
adr1gRxH,NA,NA,adr1gRxH,2020-0188,2021-09-26,14:28:51,16:08:47,NA,incomplete,false,true,NA,2,7,location,i_c_016.jpg,left,indoor,outdoor,NA,NA,NA,left,1184,true,NA,NA,NA,NA,NA
adr1gRxH,NA,NA,adr1gRxH,2020-0188,2021-09-26,14:28:51,16:08:47,NA,incomplete,false,true,NA,2,8,location,o_c_003.jpg,right,indoor,outdoor,NA,NA,NA,right,1027,true,NA,NA,NA,NA,NA
adr1gRxH,NA,NA,adr1gRxH,2020-0188,2021-09-26,14:28:51,16:08:47,NA,incomplete,false,true,NA,2,9,location,o_s_024.jpg,left,outdoor,indoor,NA,NA,NA,left,1147,true,NA,NA,NA,NA,NA
adr1gRxH,NA,NA,adr1gRxH,2020-0188,2021-09-26,14:28:51,16:08:47,NA,incomplete,false,true,NA,2,10,origin,n_s_007.jpg,left,natural,manmade,NA,NA,NA,left,1547,true,NA,NA,NA,NA,NA
adr1gRxH,NA,NA,adr1gRxH,2020-0188,2021-09-26,14:28:51,16:08:47,NA,incomplete,false,true,NA,2,11,origin,m_l_017.jpg,left,manmade,natural,NA,NA,NA,left,1247,true,NA,NA,NA,NA,NA
adr1gRxH,NA,NA,adr1gRxH,2020-0188,2021-09-26,14:28:51,16:08:47,NA,incomplete,false,true,NA,2,12,origin,m_l_020.jpg,left,manmade,natural,NA,NA,NA,left,1544.00000000012,true,NA,NA,NA,NA,NA
adr1gRxH,NA,NA,adr1gRxH,2020-0188,2021-09-26,14:28:51,16:08:47,NA,incomplete,false,true,NA,2,13,origin,m_l_007.jpg,right,natural,manmade,NA,NA,NA,right,1266,true,NA,NA,NA,NA,NA
adr1gRxH,NA,NA,adr1gRxH,2020-0188,2021-09-26,14:28:51,16:08:47,NA,incomplete,false,true,NA,2,14,origin,n_l_005.jpg,right,manmade,natural,NA,NA,NA,right,1500.99999999988,true,NA,NA,NA,NA,NA
adr1gRxH,NA,NA,adr1gRxH,2020-0188,2021-09-26,14:28:51,16:08:47,NA,incomplete,false,true,NA,2,15,size,m_s_028.jpg,right,large,small,NA,NA,NA,right,1097.99999999988,true,NA,NA,NA,NA,NA
adr1gRxH,NA,NA,adr1gRxH,2020-0188,2021-09-26,14:28:51,16:08:47,NA,incomplete,false,true,NA,2,16,size,m_s_017.jpg,right,large,small,NA,NA,NA,right,1505,true,NA,NA,NA,NA,NA
adr1gRxH,NA,NA,adr1gRxH,2020-0188,2021-09-26,14:28:51,16:08:47,NA,incomplete,false,true,NA,2,17,size,n_s_002.jpg,right,large,small,NA,NA,NA,right,1167,true,NA,NA,NA,NA,NA
adr1gRxH,NA,NA,adr1gRxH,2020-0188,2021-09-26,14:28:51,16:08:47,NA,incomplete,false,true,NA,2,18,size,n_s_018.jpg,left,small,large,NA,NA,NA,right,1145,false,NA,NA,NA,NA,NA
adr1gRxH,NA,NA,adr1gRxH,2020-0188,2021-09-26,14:28:51,16:08:47,NA,incomplete,false,true,NA,2,19,size,m_l_010.jpg,left,large,small,NA,NA,NA,right,1302,false,NA,NA,NA,NA,NA
adr1gRxH,NA,NA,adr1gRxH,2020-0188,2021-09-26,14:28:51,16:08:47,NA,incomplete,false,true,NA,2,20,abstractness,a_1_004.jpg,left,abstract,concrete,NA,NA,NA,left,1338,true,NA,NA,NA,NA,NA
adr1gRxH,NA,NA,adr1gRxH,2020-0188,2021-09-26,14:28:51,16:08:47,NA,incomplete,false,true,NA,2,21,abstractness,a_1_024.jpg,left,abstract,concrete,NA,NA,NA,left,1091,true,NA,NA,NA,NA,NA
adr1gRxH,NA,NA,adr1gRxH,2020-0188,2021-09-26,14:28:51,16:08:47,NA,incomplete,false,true,NA,2,22,abstractness,c_2_002.jpg,right,abstract,concrete,NA,NA,NA,right,1214,true,NA,NA,NA,NA,NA
adr1gRxH,NA,NA,adr1gRxH,2020-0188,2021-09-26,14:28:51,16:08:47,NA,incomplete,false,true,NA,2,23,abstractness,a_2_003.jpg,right,concrete,abstract,NA,NA,NA,right,1218,true,NA,NA,NA,NA,NA
adr1gRxH,NA,NA,adr1gRxH,2020-0188,2021-09-26,14:28:51,16:08:47,NA,incomplete,false,true,NA,2,24,abstractness,c_1_012.jpg,left,concrete,abstract,NA,NA,NA,left,1442,true,NA,NA,NA,NA,NA
adr1gRxH,NA,NA,adr1gRxH,2020-0188,2021-09-26,14:28:51,16:08:47,NA,incomplete,false,true,NA,2,25,syllable,c_1_022.jpg,right,1 syllable,2 syllables,NA,NA,NA,left,1498,false,NA,NA,NA,NA,NA
adr1gRxH,NA,NA,adr1gRxH,2020-0188,2021-09-26,14:28:51,16:08:47,NA,incomplete,false,true,NA,2,26,syllable,a_1_018.jpg,right,1 syllable,2 syllables,NA,NA,NA,left,997,false,NA,NA,NA,NA,NA
adr1gRxH,NA,NA,adr1gRxH,2020-0188,2021-09-26,14:28:51,16:08:47,NA,incomplete,false,true,NA,2,27,syllable,c_2_006.jpg,right,1 syllable,2 syllables,NA,NA,NA,right,1380.99999999988,true,NA,NA,NA,NA,NA
adr1gRxH,NA,NA,adr1gRxH,2020-0188,2021-09-26,14:28:51,16:08:47,NA,incomplete,false,true,NA,2,28,syllable,c_1_002.jpg,right,1 syllable,2 syllables,NA,NA,NA,left,1672,false,NA,NA,NA,NA,NA
adr1gRxH,NA,NA,adr1gRxH,2020-0188,2021-09-26,14:28:51,16:08:47,NA,incomplete,false,true,NA,2,29,syllable,a_1_013.jpg,right,2 syllables,1 syllable,NA,NA,NA,right,1343.00000000012,true,NA,NA,NA,NA,NA
adr1gRxH,NA,NA,adr1gRxH,2020-0188,2021-09-26,14:28:51,16:08:47,NA,incomplete,false,NA,true,2,0,NA,NA,right,NA,NA,m_l_017.jpg,o_c_003.jpg,between-big,NA,NaN,NA,right,3288,1,1,1013.9999999998836
adr1gRxH,NA,NA,adr1gRxH,2020-0188,2021-09-26,14:28:51,16:08:47,NA,incomplete,false,NA,true,2,1,NA,NA,right,NA,NA,m_l_007.jpg,n_s_007.jpg,within,NA,NaN,NA,left,3035.0000000001164,0,1,1159
adr1gRxH,NA,NA,adr1gRxH,2020-0188,2021-09-26,14:28:51,16:08:47,NA,incomplete,false,NA,true,2,2,NA,NA,left,NA,NA,m_s_028.jpg,n_s_018.jpg,within,NA,NaN,NA,right,1230,0,2,2387.000000000233
adr1gRxH,NA,NA,adr1gRxH,2020-0188,2021-09-26,14:28:51,16:08:47,NA,incomplete,false,NA,true,2,3,NA,NA,right,NA,NA,c_1_012.jpg,a_1_024.jpg,within,NA,NaN,NA,right,1811.0000000002328,1,0,1693
adr1gRxH,NA,NA,adr1gRxH,2020-0188,2021-09-26,14:28:51,16:08:47,NA,incomplete,false,NA,true,2,4,NA,NA,left,NA,NA,m_s_017.jpg,m_l_010.jpg,within,NA,NaN,NA,right,1915,0,1,1237.0000000002328
adr1gRxH,NA,NA,adr1gRxH,2020-0188,2021-09-26,14:28:51,16:08:47,NA,incomplete,false,NA,true,2,5,NA,NA,left,NA,NA,n_s_018.jpg,a_1_024.jpg,between-big,NA,NaN,NA,left,3138,1,0,1062.0000000002328
adr1gRxH,NA,NA,adr1gRxH,2020-0188,2021-09-26,14:28:51,16:08:47,NA,incomplete,false,NA,true,2,6,NA,NA,left,NA,NA,i_c_022.jpg,o_c_003.jpg,within,NA,NaN,NA,right,1716,0,0,1333.0000000002328
adr1gRxH,NA,NA,adr1gRxH,2020-0188,2021-09-26,14:28:51,16:08:47,NA,incomplete,false,NA,true,2,7,NA,NA,left,NA,NA,i_s_015.jpg,i_c_016.jpg,between-small,NA,NaN,NA,right,1429,0,0,1685
adr1gRxH,NA,NA,adr1gRxH,2020-0188,2021-09-26,14:28:51,16:08:47,NA,incomplete,false,NA,true,2,8,NA,NA,left,NA,NA,c_1_022.jpg,c_1_002.jpg,within,NA,NaN,NA,right,1687,0,0,1111
adr1gRxH,NA,NA,adr1gRxH,2020-0188,2021-09-26,14:28:51,16:08:47,NA,incomplete,false,NA,true,2,9,NA,NA,right,NA,NA,m_s_017.jpg,m_l_007.jpg,between-small,NA,NaN,NA,right,1301,1,0,1262
adr1gRxH,NA,NA,adr1gRxH,2020-0188,2021-09-26,14:28:51,16:08:47,NA,incomplete,false,NA,true,2,10,NA,NA,left,NA,NA,a_1_018.jpg,a_1_013.jpg,within,NA,NaN,NA,left,2246,1,0,1422
adr1gRxH,NA,NA,adr1gRxH,2020-0188,2021-09-26,14:28:51,16:08:47,NA,incomplete,false,NA,true,2,11,NA,NA,left,NA,NA,m_l_017.jpg,n_l_005.jpg,within,NA,NaN,NA,left,1893,1,0,887
adr1gRxH,NA,NA,adr1gRxH,2020-0188,2021-09-26,14:28:51,16:08:47,NA,incomplete,false,NA,true,2,12,NA,NA,right,NA,NA,c_2_006.jpg,c_1_012.jpg,between-small,NA,NaN,NA,left,3500,0,0,1552
adr1gRxH,NA,NA,adr1gRxH,2020-0188,2021-09-26,14:28:51,16:08:47,NA,incomplete,false,NA,true,2,13,NA,NA,left,NA,NA,i_c_016.jpg,n_s_007.jpg,between-big,NA,NaN,NA,right,1204.9999999997672,0,2,1748.9999999997672
adr1gRxH,NA,NA,adr1gRxH,2020-0188,2021-09-26,14:28:51,16:08:47,NA,incomplete,false,NA,true,2,14,NA,NA,left,NA,NA,m_l_010.jpg,c_2_002.jpg,between-big,NA,NaN,NA,right,1325,0,2,959
adr1gRxH,NA,NA,adr1gRxH,2020-0188,2021-09-26,14:28:51,16:08:47,NA,incomplete,false,NA,true,2,15,NA,NA,right,NA,NA,i_c_022.jpg,i_c_028.jpg,between-small,NA,NaN,NA,right,2364,1,0,1102
adr1gRxH,NA,NA,adr1gRxH,2020-0188,2021-09-26,14:28:51,16:08:47,NA,incomplete,false,NA,true,2,16,NA,NA,right,NA,NA,o_s_024.jpg,o_c_020.jpg,within,NA,NaN,NA,left,3154,0,1,1414
adr1gRxH,NA,NA,adr1gRxH,2020-0188,2021-09-26,14:28:51,16:08:47,NA,incomplete,false,NA,true,2,17,NA,NA,right,NA,NA,o_c_020.jpg,o_c_013.jpg,between-small,NA,NaN,NA,right,1262,1,1,1381
adr1gRxH,NA,NA,adr1gRxH,2020-0188,2021-09-26,14:28:51,16:08:47,NA,incomplete,false,NA,true,2,18,NA,NA,right,NA,NA,a_1_018.jpg,a_2_003.jpg,between-small,NA,NaN,NA,right,1262,1,0,1005.9999999997672
adr1gRxH,NA,NA,adr1gRxH,2020-0188,2021-09-26,14:28:51,16:08:47,NA,incomplete,false,NA,true,2,19,NA,NA,left,NA,NA,n_s_002.jpg,a_1_004.jpg,between-big,NA,NaN,NA,right,1548,0,1,1333
adr1gRxH,NA,NA,adr1gRxH,2020-0188,2021-09-26,14:28:51,16:08:47,NA,incomplete,false,NA,true,2,20,NA,NA,right,NA,NA,i_s_015.jpg,i_c_005.jpg,within,NA,NaN,NA,left,2188,0,0,1476
adr1gRxH,NA,NA,adr1gRxH,2020-0188,2021-09-26,14:28:51,16:08:47,NA,incomplete,false,NA,true,2,21,NA,NA,left,NA,NA,n_l_005.jpg,n_s_002.jpg,between-small,NA,NaN,NA,right,1213,0,2,1988
adr1gRxH,NA,NA,adr1gRxH,2020-0188,2021-09-26,14:28:51,16:08:47,NA,incomplete,false,NA,true,2,22,NA,NA,right,NA,NA,m_s_028.jpg,m_l_020.jpg,between-small,NA,NaN,NA,left,2628,0,1,950
adr1gRxH,NA,NA,adr1gRxH,2020-0188,2021-09-26,14:28:51,16:08:47,NA,incomplete,false,NA,true,2,23,NA,NA,right,NA,NA,a_2_003.jpg,a_1_004.jpg,within,NA,NaN,NA,right,1516,1,0,2315.999999999767
adr1gRxH,NA,NA,adr1gRxH,2020-0188,2021-09-26,14:28:51,16:08:47,NA,incomplete,false,NA,true,2,24,NA,NA,left,NA,NA,o_s_024.jpg,m_l_020.jpg,between-big,NA,NaN,NA,right,1562,0,2,2068
adr1gRxH,NA,NA,adr1gRxH,2020-0188,2021-09-26,14:28:51,16:08:47,NA,incomplete,false,NA,true,2,25,NA,NA,right,NA,NA,c_1_022.jpg,c_2_002.jpg,between-small,NA,NaN,NA,right,2386,1,2,1486
adr1gRxH,NA,NA,adr1gRxH,2020-0188,2021-09-26,14:28:51,16:08:47,NA,incomplete,false,NA,true,2,26,NA,NA,right,NA,NA,o_c_013.jpg,i_s_001.jpg,within,NA,NaN,NA,right,1220,1,2,4856
adr1gRxH,NA,NA,adr1gRxH,2020-0188,2021-09-26,14:28:51,16:08:47,NA,incomplete,false,true,NA,3,0,size,n_l_016.jpg,left,large,small,NA,NA,NA,left,1656.99999999977,true,NA,NA,NA,NA,NA
adr1gRxH,NA,NA,adr1gRxH,2020-0188,2021-09-26,14:28:51,16:08:47,NA,incomplete,false,true,NA,3,1,size,n_s_010.jpg,right,large,small,NA,NA,NA,right,1093.99999999977,true,NA,NA,NA,NA,NA
adr1gRxH,NA,NA,adr1gRxH,2020-0188,2021-09-26,14:28:51,16:08:47,NA,incomplete,false,true,NA,3,2,size,m_s_008.jpg,left,small,large,NA,NA,NA,left,1215,true,NA,NA,NA,NA,NA
adr1gRxH,NA,NA,adr1gRxH,2020-0188,2021-09-26,14:28:51,16:08:47,NA,incomplete,false,true,NA,3,3,size,n_l_021.jpg,right,small,large,NA,NA,NA,right,1314,true,NA,NA,NA,NA,NA
adr1gRxH,NA,NA,adr1gRxH,2020-0188,2021-09-26,14:28:51,16:08:47,NA,incomplete,false,true,NA,3,4,size,n_s_008.jpg,left,small,large,NA,NA,NA,left,1109,true,NA,NA,NA,NA,NA
adr1gRxH,NA,NA,adr1gRxH,2020-0188,2021-09-26,14:28:51,16:08:47,NA,incomplete,false,true,NA,3,5,origin,n_s_020.jpg,left,natural,manmade,NA,NA,NA,left,2172,true,NA,NA,NA,NA,NA
adr1gRxH,NA,NA,adr1gRxH,2020-0188,2021-09-26,14:28:51,16:08:47,NA,incomplete,false,true,NA,3,6,origin,n_l_002.jpg,left,natural,manmade,NA,NA,NA,left,2095,true,NA,NA,NA,NA,NA
adr1gRxH,NA,NA,adr1gRxH,2020-0188,2021-09-26,14:28:51,16:08:47,NA,incomplete,false,true,NA,3,7,origin,m_l_001.jpg,right,natural,manmade,NA,NA,NA,right,1171,true,NA,NA,NA,NA,NA
adr1gRxH,NA,NA,adr1gRxH,2020-0188,2021-09-26,14:28:51,16:08:47,NA,incomplete,false,true,NA,3,8,origin,n_l_011.jpg,left,natural,manmade,NA,NA,NA,left,1806,true,NA,NA,NA,NA,NA
adr1gRxH,NA,NA,adr1gRxH,2020-0188,2021-09-26,14:28:51,16:08:47,NA,incomplete,false,true,NA,3,9,origin,n_s_019.jpg,right,manmade,natural,NA,NA,NA,right,1529,true,NA,NA,NA,NA,NA
adr1gRxH,NA,NA,adr1gRxH,2020-0188,2021-09-26,14:28:51,16:08:47,NA,incomplete,false,true,NA,3,10,syllable,c_2_021.jpg,right,2 syllables,1 syllable,NA,NA,NA,left,1489,false,NA,NA,NA,NA,NA
adr1gRxH,NA,NA,adr1gRxH,2020-0188,2021-09-26,14:28:51,16:08:47,NA,incomplete,false,true,NA,3,11,syllable,c_2_014.jpg,right,1 syllable,2 syllables,NA,NA,NA,right,2261,true,NA,NA,NA,NA,NA
adr1gRxH,NA,NA,adr1gRxH,2020-0188,2021-09-26,14:28:51,16:08:47,NA,incomplete,false,true,NA,3,12,syllable,a_2_008.jpg,right,2 syllables,1 syllable,NA,NA,NA,left,1226.99999999977,false,NA,NA,NA,NA,NA
adr1gRxH,NA,NA,adr1gRxH,2020-0188,2021-09-26,14:28:51,16:08:47,NA,incomplete,false,true,NA,3,13,syllable,c_2_018.jpg,right,1 syllable,2 syllables,NA,NA,NA,right,1488.00000000023,true,NA,NA,NA,NA,NA
adr1gRxH,NA,NA,adr1gRxH,2020-0188,2021-09-26,14:28:51,16:08:47,NA,incomplete,false,true,NA,3,14,syllable,a_2_014.jpg,right,1 syllable,2 syllables,NA,NA,NA,right,1281,true,NA,NA,NA,NA,NA
adr1gRxH,NA,NA,adr1gRxH,2020-0188,2021-09-26,14:28:51,16:08:47,NA,incomplete,false,true,NA,3,15,abstractness,a_2_013.jpg,right,concrete,abstract,NA,NA,NA,none,0,false,NA,NA,NA,NA,NA
adr1gRxH,NA,NA,adr1gRxH,2020-0188,2021-09-26,14:28:51,16:08:47,NA,incomplete,false,true,NA,3,16,abstractness,a_2_006.jpg,right,concrete,abstract,NA,NA,NA,right,1957,true,NA,NA,NA,NA,NA
adr1gRxH,NA,NA,adr1gRxH,2020-0188,2021-09-26,14:28:51,16:08:47,NA,incomplete,false,true,NA,3,17,abstractness,a_1_017.jpg,right,concrete,abstract,NA,NA,NA,right,2233,true,NA,NA,NA,NA,NA
adr1gRxH,NA,NA,adr1gRxH,2020-0188,2021-09-26,14:28:51,16:08:47,NA,incomplete,false,true,NA,3,18,abstractness,c_2_025.jpg,left,concrete,abstract,NA,NA,NA,right,2369,false,NA,NA,NA,NA,NA
adr1gRxH,NA,NA,adr1gRxH,2020-0188,2021-09-26,14:28:51,16:08:47,NA,incomplete,false,true,NA,3,19,abstractness,c_1_014.jpg,left,concrete,abstract,NA,NA,NA,left,1243.99999999977,true,NA,NA,NA,NA,NA
adr1gRxH,NA,NA,adr1gRxH,2020-0188,2021-09-26,14:28:51,16:08:47,NA,incomplete,false,true,NA,3,20,building,o_c_007.jpg,left,cottage,skyscraper,NA,NA,NA,left,1202,true,NA,NA,NA,NA,NA
adr1gRxH,NA,NA,adr1gRxH,2020-0188,2021-09-26,14:28:51,16:08:47,NA,incomplete,false,true,NA,3,21,building,o_s_026.jpg,right,cottage,skyscraper,NA,NA,NA,right,1194,true,NA,NA,NA,NA,NA
adr1gRxH,NA,NA,adr1gRxH,2020-0188,2021-09-26,14:28:51,16:08:47,NA,incomplete,false,true,NA,3,22,building,i_c_007.jpg,left,cottage,skyscraper,NA,NA,NA,left,785,true,NA,NA,NA,NA,NA
adr1gRxH,NA,NA,adr1gRxH,2020-0188,2021-09-26,14:28:51,16:08:47,NA,incomplete,false,true,NA,3,23,building,o_c_028.jpg,right,skyscraper,cottage,NA,NA,NA,right,1104,true,NA,NA,NA,NA,NA
adr1gRxH,NA,NA,adr1gRxH,2020-0188,2021-09-26,14:28:51,16:08:47,NA,incomplete,false,true,NA,3,24,building,o_s_020.jpg,left,skyscraper,cottage,NA,NA,NA,left,1077,true,NA,NA,NA,NA,NA
adr1gRxH,NA,NA,adr1gRxH,2020-0188,2021-09-26,14:28:51,16:08:47,NA,incomplete,false,true,NA,3,25,location,o_c_002.jpg,right,indoor,outdoor,NA,NA,NA,right,1574,true,NA,NA,NA,NA,NA
adr1gRxH,NA,NA,adr1gRxH,2020-0188,2021-09-26,14:28:51,16:08:47,NA,incomplete,false,true,NA,3,26,location,o_s_027.jpg,left,outdoor,indoor,NA,NA,NA,left,1351,true,NA,NA,NA,NA,NA
adr1gRxH,NA,NA,adr1gRxH,2020-0188,2021-09-26,14:28:51,16:08:47,NA,incomplete,false,true,NA,3,27,location,i_s_007.jpg,left,indoor,outdoor,NA,NA,NA,left,1643,true,NA,NA,NA,NA,NA
adr1gRxH,NA,NA,adr1gRxH,2020-0188,2021-09-26,14:28:51,16:08:47,NA,incomplete,false,true,NA,3,28,location,i_s_021.jpg,left,indoor,outdoor,NA,NA,NA,left,1099,true,NA,NA,NA,NA,NA
adr1gRxH,NA,NA,adr1gRxH,2020-0188,2021-09-26,14:28:51,16:08:47,NA,incomplete,false,true,NA,3,29,location,i_c_020.jpg,right,outdoor,indoor,NA,NA,NA,right,1628,true,NA,NA,NA,NA,NA
adr1gRxH,NA,NA,adr1gRxH,2020-0188,2021-09-26,14:28:51,16:08:47,NA,incomplete,false,NA,true,3,0,NA,NA,left,NA,NA,c_2_021.jpg,c_2_018.jpg,within,NA,NaN,NA,left,2820.000000000233,1,1,1293
adr1gRxH,NA,NA,adr1gRxH,2020-0188,2021-09-26,14:28:51,16:08:47,NA,incomplete,false,NA,true,3,1,NA,NA,left,NA,NA,c_1_014.jpg,i_c_007.jpg,between-big,NA,NaN,NA,left,3816,1,1,1214
adr1gRxH,NA,NA,adr1gRxH,2020-0188,2021-09-26,14:28:51,16:08:47,NA,incomplete,false,NA,true,3,2,NA,NA,right,NA,NA,i_s_021.jpg,o_c_002.jpg,within,NA,NaN,NA,right,2719,1,0,1029
adr1gRxH,NA,NA,adr1gRxH,2020-0188,2021-09-26,14:28:51,16:08:47,NA,incomplete,false,NA,true,3,3,NA,NA,left,NA,NA,n_s_008.jpg,m_l_001.jpg,between-small,NA,NaN,NA,left,1646,1,2,896
adr1gRxH,NA,NA,adr1gRxH,2020-0188,2021-09-26,14:28:51,16:08:47,NA,incomplete,false,NA,true,3,4,NA,NA,left,NA,NA,o_c_028.jpg,o_s_027.jpg,between-small,NA,NaN,NA,left,6995,1,1,1444
adr1gRxH,NA,NA,adr1gRxH,2020-0188,2021-09-26,14:28:51,16:08:47,NA,incomplete,false,NA,true,3,5,NA,NA,right,NA,NA,o_s_026.jpg,c_2_025.jpg,between-big,NA,NaN,NA,right,2633,1,2,2531.000000000233
adr1gRxH,NA,NA,adr1gRxH,2020-0188,2021-09-26,14:28:51,16:08:47,NA,incomplete,false,NA,true,3,6,NA,NA,right,NA,NA,o_c_007.jpg,a_1_017.jpg,between-big,NA,NaN,NA,right,1947,1,2,1151
adr1gRxH,NA,NA,adr1gRxH,2020-0188,2021-09-26,14:28:51,16:08:47,NA,incomplete,false,NA,true,3,7,NA,NA,left,NA,NA,n_s_010.jpg,n_s_008.jpg,within,NA,NaN,NA,right,1365,0,2,878.9999999997672
adr1gRxH,NA,NA,adr1gRxH,2020-0188,2021-09-26,14:28:51,16:08:47,NA,incomplete,false,NA,true,3,8,NA,NA,right,NA,NA,c_2_014.jpg,n_l_011.jpg,between-big,NA,NaN,NA,right,1587,1,2,807
adr1gRxH,NA,NA,adr1gRxH,2020-0188,2021-09-26,14:28:51,16:08:47,NA,incomplete,false,NA,true,3,9,NA,NA,right,NA,NA,a_2_006.jpg,c_2_018.jpg,between-small,NA,NaN,NA,right,2387.999999999767,1,2,2259
adr1gRxH,NA,NA,adr1gRxH,2020-0188,2021-09-26,14:28:51,16:08:47,NA,incomplete,false,NA,true,3,10,NA,NA,right,NA,NA,c_2_021.jpg,m_l_001.jpg,between-big,NA,NaN,NA,left,2595,0,1,1693
adr1gRxH,NA,NA,adr1gRxH,2020-0188,2021-09-26,14:28:51,16:08:47,NA,incomplete,false,NA,true,3,11,NA,NA,left,NA,NA,i_c_007.jpg,o_c_002.jpg,between-small,NA,NaN,NA,left,1822,1,1,1117
adr1gRxH,NA,NA,adr1gRxH,2020-0188,2021-09-26,14:28:51,16:08:47,NA,incomplete,false,NA,true,3,12,NA,NA,right,NA,NA,a_2_008.jpg,n_s_019.jpg,between-big,NA,NaN,NA,right,2756,1,1,950
adr1gRxH,NA,NA,adr1gRxH,2020-0188,2021-09-26,14:28:51,16:08:47,NA,incomplete,false,NA,true,3,13,NA,NA,right,NA,NA,n_s_019.jpg,n_l_002.jpg,within,NA,NaN,NA,right,2387,1,1,1039
adr1gRxH,NA,NA,adr1gRxH,2020-0188,2021-09-26,14:28:51,16:08:47,NA,incomplete,false,NA,true,3,14,NA,NA,right,NA,NA,a_1_017.jpg,a_2_014.jpg,between-small,NA,NaN,NA,right,1429,1,1,1285.9999999997672
adr1gRxH,NA,NA,adr1gRxH,2020-0188,2021-09-26,14:28:51,16:08:47,NA,incomplete,false,NA,true,3,15,NA,NA,right,NA,NA,o_s_020.jpg,o_s_026.jpg,within,NA,NaN,NA,right,2665,1,2,1031
adr1gRxH,NA,NA,adr1gRxH,2020-0188,2021-09-26,14:28:51,16:08:47,NA,incomplete,false,NA,true,3,16,NA,NA,right,NA,NA,i_c_020.jpg,o_s_027.jpg,within,NA,NaN,NA,right,1248,1,1,847
adr1gRxH,NA,NA,adr1gRxH,2020-0188,2021-09-26,14:28:51,16:08:47,NA,incomplete,false,NA,true,3,17,NA,NA,left,NA,NA,o_s_020.jpg,i_s_007.jpg,between-small,NA,NaN,NA,left,2765.000000000233,1,1,1533.0000000002328
adr1gRxH,NA,NA,adr1gRxH,2020-0188,2021-09-26,14:28:51,16:08:47,NA,incomplete,false,NA,true,3,18,NA,NA,left,NA,NA,n_l_016.jpg,n_l_021.jpg,within,NA,NaN,NA,left,3131,1,0,919
adr1gRxH,NA,NA,adr1gRxH,2020-0188,2021-09-26,14:28:51,16:08:47,NA,incomplete,false,NA,true,3,19,NA,NA,right,NA,NA,a_2_014.jpg,c_2_014.jpg,within,NA,NaN,NA,right,2443,1,1,1054
adr1gRxH,NA,NA,adr1gRxH,2020-0188,2021-09-26,14:28:51,16:08:47,NA,incomplete,false,NA,true,3,20,NA,NA,right,NA,NA,n_l_002.jpg,n_l_021.jpg,between-small,NA,NaN,NA,left,2260.000000000233,0,1,1317
adr1gRxH,NA,NA,adr1gRxH,2020-0188,2021-09-26,14:28:51,16:08:47,NA,incomplete,false,NA,true,3,21,NA,NA,left,NA,NA,a_2_013.jpg,c_2_025.jpg,within,NA,NaN,NA,right,1333,0,0,1302
adr1gRxH,NA,NA,adr1gRxH,2020-0188,2021-09-26,14:28:51,16:08:47,NA,incomplete,false,NA,true,3,22,NA,NA,right,NA,NA,a_2_013.jpg,a_2_008.jpg,between-small,NA,NaN,NA,right,1149.9999999997672,1,0,823
adr1gRxH,NA,NA,adr1gRxH,2020-0188,2021-09-26,14:28:51,16:08:47,NA,incomplete,false,NA,true,3,23,NA,NA,left,NA,NA,n_s_020.jpg,n_l_011.jpg,within,NA,NaN,NA,right,942,0,1,1702.9999999997672
adr1gRxH,NA,NA,adr1gRxH,2020-0188,2021-09-26,14:28:51,16:08:47,NA,incomplete,false,NA,true,3,24,NA,NA,left,NA,NA,o_c_007.jpg,o_c_028.jpg,within,NA,NaN,NA,right,1915,0,1,2228.999999999767
adr1gRxH,NA,NA,adr1gRxH,2020-0188,2021-09-26,14:28:51,16:08:47,NA,incomplete,false,NA,true,3,25,NA,NA,left,NA,NA,m_s_008.jpg,n_s_020.jpg,between-small,NA,NaN,NA,left,2011,1,0,1149
adr1gRxH,NA,NA,adr1gRxH,2020-0188,2021-09-26,14:28:51,16:08:47,NA,incomplete,false,NA,true,3,26,NA,NA,right,NA,NA,c_1_014.jpg,a_2_006.jpg,within,NA,NaN,NA,left,1764,0,1,686
adr1gRxH,NA,NA,adr1gRxH,2020-0188,2021-09-26,14:28:51,16:08:47,NA,incomplete,false,true,NA,4,0,origin,n_s_005.jpg,right,manmade,natural,NA,NA,NA,right,2180.99999999977,true,NA,NA,NA,NA,NA
adr1gRxH,NA,NA,adr1gRxH,2020-0188,2021-09-26,14:28:51,16:08:47,NA,incomplete,false,true,NA,4,1,origin,n_l_001.jpg,right,manmade,natural,NA,NA,NA,right,1245,true,NA,NA,NA,NA,NA
adr1gRxH,NA,NA,adr1gRxH,2020-0188,2021-09-26,14:28:51,16:08:47,NA,incomplete,false,true,NA,4,2,origin,m_l_014.jpg,left,manmade,natural,NA,NA,NA,left,1080,true,NA,NA,NA,NA,NA
adr1gRxH,NA,NA,adr1gRxH,2020-0188,2021-09-26,14:28:51,16:08:47,NA,incomplete,false,true,NA,4,3,origin,n_l_017.jpg,right,manmade,natural,NA,NA,NA,right,957,true,NA,NA,NA,NA,NA
adr1gRxH,NA,NA,adr1gRxH,2020-0188,2021-09-26,14:28:51,16:08:47,NA,incomplete,false,true,NA,4,4,origin,n_s_021.jpg,right,manmade,natural,NA,NA,NA,right,791,true,NA,NA,NA,NA,NA
adr1gRxH,NA,NA,adr1gRxH,2020-0188,2021-09-26,14:28:51,16:08:47,NA,incomplete,false,true,NA,4,5,size,m_s_023.jpg,right,large,small,NA,NA,NA,right,1296,true,NA,NA,NA,NA,NA
adr1gRxH,NA,NA,adr1gRxH,2020-0188,2021-09-26,14:28:51,16:08:47,NA,incomplete,false,true,NA,4,6,size,n_l_010.jpg,left,large,small,NA,NA,NA,left,1317.99999999977,true,NA,NA,NA,NA,NA
adr1gRxH,NA,NA,adr1gRxH,2020-0188,2021-09-26,14:28:51,16:08:47,NA,incomplete,false,true,NA,4,7,size,n_s_011.jpg,left,small,large,NA,NA,NA,left,1420,true,NA,NA,NA,NA,NA
adr1gRxH,NA,NA,adr1gRxH,2020-0188,2021-09-26,14:28:51,16:08:47,NA,incomplete,false,true,NA,4,8,size,n_l_023.jpg,right,small,large,NA,NA,NA,right,1134,true,NA,NA,NA,NA,NA
adr1gRxH,NA,NA,adr1gRxH,2020-0188,2021-09-26,14:28:51,16:08:47,NA,incomplete,false,true,NA,4,9,size,m_s_013.jpg,left,small,large,NA,NA,NA,left,1643,true,NA,NA,NA,NA,NA
adr1gRxH,NA,NA,adr1gRxH,2020-0188,2021-09-26,14:28:51,16:08:47,NA,incomplete,false,true,NA,4,10,building,o_s_007.jpg,right,cottage,skyscraper,NA,NA,NA,right,1227.00000000023,true,NA,NA,NA,NA,NA
adr1gRxH,NA,NA,adr1gRxH,2020-0188,2021-09-26,14:28:51,16:08:47,NA,incomplete,false,true,NA,4,11,building,o_s_012.jpg,right,cottage,skyscraper,NA,NA,NA,right,1247,true,NA,NA,NA,NA,NA
adr1gRxH,NA,NA,adr1gRxH,2020-0188,2021-09-26,14:28:51,16:08:47,NA,incomplete,false,true,NA,4,12,building,o_s_009.jpg,right,cottage,skyscraper,NA,NA,NA,right,2124,true,NA,NA,NA,NA,NA
adr1gRxH,NA,NA,adr1gRxH,2020-0188,2021-09-26,14:28:51,16:08:47,NA,incomplete,false,true,NA,4,13,building,o_s_010.jpg,right,cottage,skyscraper,NA,NA,NA,right,1240,true,NA,NA,NA,NA,NA
adr1gRxH,NA,NA,adr1gRxH,2020-0188,2021-09-26,14:28:51,16:08:47,NA,incomplete,false,true,NA,4,14,building,i_s_027.jpg,right,cottage,skyscraper,NA,NA,NA,right,1625.99999999977,true,NA,NA,NA,NA,NA
adr1gRxH,NA,NA,adr1gRxH,2020-0188,2021-09-26,14:28:51,16:08:47,NA,incomplete,false,true,NA,4,15,location,i_s_003.jpg,right,outdoor,indoor,NA,NA,NA,right,1635,true,NA,NA,NA,NA,NA
adr1gRxH,NA,NA,adr1gRxH,2020-0188,2021-09-26,14:28:51,16:08:47,NA,incomplete,false,true,NA,4,16,location,o_s_017.jpg,left,outdoor,indoor,NA,NA,NA,left,1502,true,NA,NA,NA,NA,NA
adr1gRxH,NA,NA,adr1gRxH,2020-0188,2021-09-26,14:28:51,16:08:47,NA,incomplete,false,true,NA,4,17,location,i_c_015.jpg,left,indoor,outdoor,NA,NA,NA,left,1435,true,NA,NA,NA,NA,NA
adr1gRxH,NA,NA,adr1gRxH,2020-0188,2021-09-26,14:28:51,16:08:47,NA,incomplete,false,true,NA,4,18,location,i_s_006.jpg,right,outdoor,indoor,NA,NA,NA,right,1428,true,NA,NA,NA,NA,NA
adr1gRxH,NA,NA,adr1gRxH,2020-0188,2021-09-26,14:28:51,16:08:47,NA,incomplete,false,true,NA,4,19,location,i_c_027.jpg,right,outdoor,indoor,NA,NA,NA,right,1000,true,NA,NA,NA,NA,NA
adr1gRxH,NA,NA,adr1gRxH,2020-0188,2021-09-26,14:28:51,16:08:47,NA,incomplete,false,true,NA,4,20,syllable,c_2_028.jpg,right,2 syllables,1 syllable,NA,NA,NA,left,1621,false,NA,NA,NA,NA,NA
adr1gRxH,NA,NA,adr1gRxH,2020-0188,2021-09-26,14:28:51,16:08:47,NA,incomplete,false,true,NA,4,21,syllable,a_1_022.jpg,right,1 syllable,2 syllables,NA,NA,NA,left,1291.00000000023,false,NA,NA,NA,NA,NA
adr1gRxH,NA,NA,adr1gRxH,2020-0188,2021-09-26,14:28:51,16:08:47,NA,incomplete,false,true,NA,4,22,syllable,a_1_009.jpg,right,1 syllable,2 syllables,NA,NA,NA,left,2557,false,NA,NA,NA,NA,NA
adr1gRxH,NA,NA,adr1gRxH,2020-0188,2021-09-26,14:28:51,16:08:47,NA,incomplete,false,true,NA,4,23,syllable,c_2_016.jpg,right,1 syllable,2 syllables,NA,NA,NA,right,1127.00000000023,true,NA,NA,NA,NA,NA
adr1gRxH,NA,NA,adr1gRxH,2020-0188,2021-09-26,14:28:51,16:08:47,NA,incomplete,false,true,NA,4,24,syllable,c_1_010.jpg,right,1 syllable,2 syllables,NA,NA,NA,left,1059,false,NA,NA,NA,NA,NA
adr1gRxH,NA,NA,adr1gRxH,2020-0188,2021-09-26,14:28:51,16:08:47,NA,incomplete,false,true,NA,4,25,abstractness,c_2_015.jpg,left,concrete,abstract,NA,NA,NA,left,1989,true,NA,NA,NA,NA,NA
adr1gRxH,NA,NA,adr1gRxH,2020-0188,2021-09-26,14:28:51,16:08:47,NA,incomplete,false,true,NA,4,26,abstractness,a_2_025.jpg,right,concrete,abstract,NA,NA,NA,right,1222,true,NA,NA,NA,NA,NA
adr1gRxH,NA,NA,adr1gRxH,2020-0188,2021-09-26,14:28:51,16:08:47,NA,incomplete,false,true,NA,4,27,abstractness,a_2_012.jpg,left,abstract,concrete,NA,NA,NA,left,1658,true,NA,NA,NA,NA,NA
adr1gRxH,NA,NA,adr1gRxH,2020-0188,2021-09-26,14:28:51,16:08:47,NA,incomplete,false,true,NA,4,28,abstractness,c_2_024.jpg,right,abstract,concrete,NA,NA,NA,right,1484.00000000023,true,NA,NA,NA,NA,NA
adr1gRxH,NA,NA,adr1gRxH,2020-0188,2021-09-26,14:28:51,16:08:47,NA,incomplete,false,true,NA,4,29,abstractness,c_1_005.jpg,right,abstract,concrete,NA,NA,NA,right,1751,true,NA,NA,NA,NA,NA
adr1gRxH,NA,NA,adr1gRxH,2020-0188,2021-09-26,14:28:51,16:08:47,NA,incomplete,false,NA,true,4,0,NA,NA,right,NA,NA,i_s_006.jpg,i_s_003.jpg,within,NA,NaN,NA,right,4382,1,0,772.9999999997672
adr1gRxH,NA,NA,adr1gRxH,2020-0188,2021-09-26,14:28:51,16:08:47,NA,incomplete,false,NA,true,4,1,NA,NA,left,NA,NA,n_s_021.jpg,n_s_011.jpg,between-small,NA,NaN,NA,left,2623,1,1,846
adr1gRxH,NA,NA,adr1gRxH,2020-0188,2021-09-26,14:28:51,16:08:47,NA,incomplete,false,NA,true,4,2,NA,NA,right,NA,NA,a_2_012.jpg,c_1_010.jpg,between-small,NA,NaN,NA,right,4201,1,1,901.0000000002328
adr1gRxH,NA,NA,adr1gRxH,2020-0188,2021-09-26,14:28:51,16:08:47,NA,incomplete,false,NA,true,4,3,NA,NA,right,NA,NA,i_c_027.jpg,o_s_017.jpg,within,NA,NaN,NA,left,3194,0,0,1574
adr1gRxH,NA,NA,adr1gRxH,2020-0188,2021-09-26,14:28:51,16:08:47,NA,incomplete,false,NA,true,4,4,NA,NA,right,NA,NA,c_2_028.jpg,i_c_015.jpg,between-big,NA,NaN,NA,right,1780,1,2,831
adr1gRxH,NA,NA,adr1gRxH,2020-0188,2021-09-26,14:28:51,16:08:47,NA,incomplete,false,NA,true,4,5,NA,NA,left,NA,NA,a_1_022.jpg,c_1_010.jpg,within,NA,NaN,NA,left,2787,1,0,1956
adr1gRxH,NA,NA,adr1gRxH,2020-0188,2021-09-26,14:28:51,16:08:47,NA,incomplete,false,NA,true,4,6,NA,NA,right,NA,NA,c_2_024.jpg,c_2_015.jpg,within,NA,NaN,NA,right,3912,1,0,1284
adr1gRxH,NA,NA,adr1gRxH,2020-0188,2021-09-26,14:28:51,16:08:47,NA,incomplete,false,NA,true,4,7,NA,NA,left,NA,NA,n_s_011.jpg,o_s_007.jpg,between-big,NA,NaN,NA,left,2299,1,2,773
adr1gRxH,NA,NA,adr1gRxH,2020-0188,2021-09-26,14:28:51,16:08:47,NA,incomplete,false,NA,true,4,8,NA,NA,left,NA,NA,a_2_025.jpg,c_1_005.jpg,within,NA,NaN,NA,right,1820,0,1,1531
adr1gRxH,NA,NA,adr1gRxH,2020-0188,2021-09-26,14:28:51,16:08:47,NA,incomplete,false,NA,true,4,9,NA,NA,left,NA,NA,m_s_023.jpg,n_l_023.jpg,within,NA,NaN,NA,left,2667,1,0,1613.0000000002328
adr1gRxH,NA,NA,adr1gRxH,2020-0188,2021-09-26,14:28:51,16:08:47,NA,incomplete,false,NA,true,4,10,NA,NA,right,NA,NA,m_s_023.jpg,m_l_014.jpg,between-small,NA,NaN,NA,right,3977,1,1,831
adr1gRxH,NA,NA,adr1gRxH,2020-0188,2021-09-26,14:28:51,16:08:47,NA,incomplete,false,NA,true,4,11,NA,NA,right,NA,NA,a_1_022.jpg,i_s_006.jpg,between-big,NA,NaN,NA,right,2666.000000000233,1,2,1350
adr1gRxH,NA,NA,adr1gRxH,2020-0188,2021-09-26,14:28:51,16:08:47,NA,incomplete,false,NA,true,4,12,NA,NA,left,NA,NA,o_s_009.jpg,i_s_003.jpg,between-small,NA,NaN,NA,right,2089.999999999767,0,1,1103
adr1gRxH,NA,NA,adr1gRxH,2020-0188,2021-09-26,14:28:51,16:08:47,NA,incomplete,false,NA,true,4,13,NA,NA,right,NA,NA,m_s_013.jpg,n_l_010.jpg,within,NA,NaN,NA,right,3346,1,0,1277
adr1gRxH,NA,NA,adr1gRxH,2020-0188,2021-09-26,14:28:51,16:08:47,NA,incomplete,false,NA,true,4,14,NA,NA,left,NA,NA,n_l_001.jpg,n_s_021.jpg,within,NA,NaN,NA,left,3290.000000000233,1,0,1224
adr1gRxH,NA,NA,adr1gRxH,2020-0188,2021-09-26,14:28:51,16:08:47,NA,incomplete,false,NA,true,4,15,NA,NA,left,NA,NA,n_l_023.jpg,o_s_012.jpg,between-big,NA,NaN,NA,left,1858,1,2,1245
adr1gRxH,NA,NA,adr1gRxH,2020-0188,2021-09-26,14:28:51,16:08:47,NA,incomplete,false,NA,true,4,16,NA,NA,left,NA,NA,i_s_027.jpg,i_c_015.jpg,between-small,NA,NaN,NA,left,1190.0000000002328,1,1,839
adr1gRxH,NA,NA,adr1gRxH,2020-0188,2021-09-26,14:28:51,16:08:47,NA,incomplete,false,NA,true,4,17,NA,NA,right,NA,NA,o_s_017.jpg,o_s_010.jpg,between-small,NA,NaN,NA,left,2444,0,1,760
adr1gRxH,NA,NA,adr1gRxH,2020-0188,2021-09-26,14:28:51,16:08:47,NA,incomplete,false,NA,true,4,18,NA,NA,left,NA,NA,o_s_007.jpg,o_s_010.jpg,within,NA,NaN,NA,left,2389,1,0,1240
adr1gRxH,NA,NA,adr1gRxH,2020-0188,2021-09-26,14:28:51,16:08:47,NA,incomplete,false,NA,true,4,19,NA,NA,left,NA,NA,o_s_012.jpg,i_s_027.jpg,within,NA,NaN,NA,right,2036,0,1,822
adr1gRxH,NA,NA,adr1gRxH,2020-0188,2021-09-26,14:28:51,16:08:47,NA,incomplete,false,NA,true,4,20,NA,NA,left,NA,NA,n_s_005.jpg,n_l_017.jpg,within,NA,NaN,NA,left,2818,1,1,1245.9999999997672
adr1gRxH,NA,NA,adr1gRxH,2020-0188,2021-09-26,14:28:51,16:08:47,NA,incomplete,false,NA,true,4,21,NA,NA,right,NA,NA,c_2_015.jpg,a_1_009.jpg,between-small,NA,NaN,NA,right,1268,1,0,1038
adr1gRxH,NA,NA,adr1gRxH,2020-0188,2021-09-26,14:28:51,16:08:47,NA,incomplete,false,NA,true,4,22,NA,NA,left,NA,NA,c_2_016.jpg,a_2_025.jpg,between-small,NA,NaN,NA,left,919,1,1,1191
adr1gRxH,NA,NA,adr1gRxH,2020-0188,2021-09-26,14:28:51,16:08:47,NA,incomplete,false,NA,true,4,23,NA,NA,left,NA,NA,c_2_028.jpg,c_2_016.jpg,within,NA,NaN,NA,left,2707,1,1,1462
adr1gRxH,NA,NA,adr1gRxH,2020-0188,2021-09-26,14:28:51,16:08:47,NA,incomplete,false,NA,true,4,24,NA,NA,left,NA,NA,n_l_017.jpg,n_l_010.jpg,between-small,NA,NaN,NA,left,2132.999999999767,1,1,1118
adr1gRxH,NA,NA,adr1gRxH,2020-0188,2021-09-26,14:28:51,16:08:47,NA,incomplete,false,NA,true,4,25,NA,NA,right,NA,NA,a_1_009.jpg,i_c_027.jpg,between-big,NA,NaN,NA,right,1702,1,1,1198
adr1gRxH,NA,NA,adr1gRxH,2020-0188,2021-09-26,14:28:51,16:08:47,NA,incomplete,false,NA,true,4,26,NA,NA,right,NA,NA,o_s_009.jpg,m_s_013.jpg,between-big,NA,NaN,NA,right,1076,1,2,2251
adr1gRxH,NA,NA,adr1gRxH,2020-0188,2021-09-26,14:28:51,16:08:47,NA,incomplete,false,true,NA,5,0,location,i_c_024.jpg,right,outdoor,indoor,NA,NA,NA,right,1749,true,NA,NA,NA,NA,NA
adr1gRxH,NA,NA,adr1gRxH,2020-0188,2021-09-26,14:28:51,16:08:47,NA,incomplete,false,true,NA,5,1,location,i_s_009.jpg,left,indoor,outdoor,NA,NA,NA,left,1127,true,NA,NA,NA,NA,NA
adr1gRxH,NA,NA,adr1gRxH,2020-0188,2021-09-26,14:28:51,16:08:47,NA,incomplete,false,true,NA,5,2,location,i_c_008.jpg,left,indoor,outdoor,NA,NA,NA,left,903,true,NA,NA,NA,NA,NA
adr1gRxH,NA,NA,adr1gRxH,2020-0188,2021-09-26,14:28:51,16:08:47,NA,incomplete,false,true,NA,5,3,location,o_c_027.jpg,left,outdoor,indoor,NA,NA,NA,left,1682,true,NA,NA,NA,NA,NA
adr1gRxH,NA,NA,adr1gRxH,2020-0188,2021-09-26,14:28:51,16:08:47,NA,incomplete,false,true,NA,5,4,location,i_c_012.jpg,left,indoor,outdoor,NA,NA,NA,left,1770,true,NA,NA,NA,NA,NA
adr1gRxH,NA,NA,adr1gRxH,2020-0188,2021-09-26,14:28:51,16:08:47,NA,incomplete,false,true,NA,5,5,building,o_c_019.jpg,left,cottage,skyscraper,NA,NA,NA,left,1213.99999999977,true,NA,NA,NA,NA,NA
adr1gRxH,NA,NA,adr1gRxH,2020-0188,2021-09-26,14:28:51,16:08:47,NA,incomplete,false,true,NA,5,6,building,o_s_002.jpg,left,skyscraper,cottage,NA,NA,NA,left,1316,true,NA,NA,NA,NA,NA
adr1gRxH,NA,NA,adr1gRxH,2020-0188,2021-09-26,14:28:51,16:08:47,NA,incomplete,false,true,NA,5,7,building,o_s_003.jpg,left,skyscraper,cottage,NA,NA,NA,left,1258,true,NA,NA,NA,NA,NA
adr1gRxH,NA,NA,adr1gRxH,2020-0188,2021-09-26,14:28:51,16:08:47,NA,incomplete,false,true,NA,5,8,building,i_s_028.jpg,right,cottage,skyscraper,NA,NA,NA,right,1919,true,NA,NA,NA,NA,NA
adr1gRxH,NA,NA,adr1gRxH,2020-0188,2021-09-26,14:28:51,16:08:47,NA,incomplete,false,true,NA,5,9,building,i_s_013.jpg,right,cottage,skyscraper,NA,NA,NA,right,2014,true,NA,NA,NA,NA,NA
adr1gRxH,NA,NA,adr1gRxH,2020-0188,2021-09-26,14:28:51,16:08:47,NA,incomplete,false,true,NA,5,10,origin,n_s_017.jpg,left,natural,manmade,NA,NA,NA,left,1023.99999999977,true,NA,NA,NA,NA,NA
adr1gRxH,NA,NA,adr1gRxH,2020-0188,2021-09-26,14:28:51,16:08:47,NA,incomplete,false,true,NA,5,11,origin,n_l_003.jpg,right,manmade,natural,NA,NA,NA,left,2834.99999999977,false,NA,NA,NA,NA,NA
adr1gRxH,NA,NA,adr1gRxH,2020-0188,2021-09-26,14:28:51,16:08:47,NA,incomplete,false,true,NA,5,12,origin,m_s_015.jpg,right,natural,manmade,NA,NA,NA,right,1760.00000000023,true,NA,NA,NA,NA,NA
adr1gRxH,NA,NA,adr1gRxH,2020-0188,2021-09-26,14:28:51,16:08:47,NA,incomplete,false,true,NA,5,13,origin,m_s_012.jpg,left,manmade,natural,NA,NA,NA,left,1168,true,NA,NA,NA,NA,NA
adr1gRxH,NA,NA,adr1gRxH,2020-0188,2021-09-26,14:28:51,16:08:47,NA,incomplete,false,true,NA,5,14,origin,n_l_020.jpg,right,manmade,natural,NA,NA,NA,right,1049,true,NA,NA,NA,NA,NA
adr1gRxH,NA,NA,adr1gRxH,2020-0188,2021-09-26,14:28:51,16:08:47,NA,incomplete,false,true,NA,5,15,size,m_s_005.jpg,right,large,small,NA,NA,NA,right,2580,true,NA,NA,NA,NA,NA
adr1gRxH,NA,NA,adr1gRxH,2020-0188,2021-09-26,14:28:51,16:08:47,NA,incomplete,false,true,NA,5,16,size,n_s_027.jpg,right,large,small,NA,NA,NA,right,1307,true,NA,NA,NA,NA,NA
adr1gRxH,NA,NA,adr1gRxH,2020-0188,2021-09-26,14:28:51,16:08:47,NA,incomplete,false,true,NA,5,17,size,m_l_016.jpg,right,small,large,NA,NA,NA,right,1141,true,NA,NA,NA,NA,NA
adr1gRxH,NA,NA,adr1gRxH,2020-0188,2021-09-26,14:28:51,16:08:47,NA,incomplete,false,true,NA,5,18,size,n_l_012.jpg,left,large,small,NA,NA,NA,left,1164,true,NA,NA,NA,NA,NA
adr1gRxH,NA,NA,adr1gRxH,2020-0188,2021-09-26,14:28:51,16:08:47,NA,incomplete,false,true,NA,5,19,size,m_l_003.jpg,left,large,small,NA,NA,NA,left,1208,true,NA,NA,NA,NA,NA
adr1gRxH,NA,NA,adr1gRxH,2020-0188,2021-09-26,14:28:51,16:08:47,NA,incomplete,false,true,NA,5,20,syllable,a_1_007.jpg,right,2 syllables,1 syllable,NA,NA,NA,right,1396,true,NA,NA,NA,NA,NA
adr1gRxH,NA,NA,adr1gRxH,2020-0188,2021-09-26,14:28:51,16:08:47,NA,incomplete,false,true,NA,5,21,syllable,c_1_017.jpg,right,2 syllables,1 syllable,NA,NA,NA,right,1007,true,NA,NA,NA,NA,NA
adr1gRxH,NA,NA,adr1gRxH,2020-0188,2021-09-26,14:28:51,16:08:47,NA,incomplete,false,true,NA,5,22,syllable,c_1_023.jpg,right,1 syllable,2 syllables,NA,NA,NA,left,867,false,NA,NA,NA,NA,NA
adr1gRxH,NA,NA,adr1gRxH,2020-0188,2021-09-26,14:28:51,16:08:47,NA,incomplete,false,true,NA,5,23,syllable,c_1_016.jpg,right,1 syllable,2 syllables,NA,NA,NA,left,885,false,NA,NA,NA,NA,NA
adr1gRxH,NA,NA,adr1gRxH,2020-0188,2021-09-26,14:28:51,16:08:47,NA,incomplete,false,true,NA,5,24,syllable,c_1_013.jpg,right,2 syllables,1 syllable,NA,NA,NA,right,1028,true,NA,NA,NA,NA,NA
adr1gRxH,NA,NA,adr1gRxH,2020-0188,2021-09-26,14:28:51,16:08:47,NA,incomplete,false,true,NA,5,25,abstractness,c_2_005.jpg,right,abstract,concrete,NA,NA,NA,left,2657.00000000023,false,NA,NA,NA,NA,NA
adr1gRxH,NA,NA,adr1gRxH,2020-0188,2021-09-26,14:28:51,16:08:47,NA,incomplete,false,true,NA,5,26,abstractness,c_1_009.jpg,right,abstract,concrete,NA,NA,NA,right,2628.00000000023,true,NA,NA,NA,NA,NA
adr1gRxH,NA,NA,adr1gRxH,2020-0188,2021-09-26,14:28:51,16:08:47,NA,incomplete,false,true,NA,5,27,abstractness,c_1_008.jpg,left,concrete,abstract,NA,NA,NA,left,966.999999999767,true,NA,NA,NA,NA,NA
adr1gRxH,NA,NA,adr1gRxH,2020-0188,2021-09-26,14:28:51,16:08:47,NA,incomplete,false,true,NA,5,28,abstractness,c_2_009.jpg,left,concrete,abstract,NA,NA,NA,left,1166.99999999977,true,NA,NA,NA,NA,NA
adr1gRxH,NA,NA,adr1gRxH,2020-0188,2021-09-26,14:28:51,16:08:47,NA,incomplete,false,true,NA,5,29,abstractness,c_1_028.jpg,right,abstract,concrete,NA,NA,NA,right,1725.99999999977,true,NA,NA,NA,NA,NA
adr1gRxH,NA,NA,adr1gRxH,2020-0188,2021-09-26,14:28:51,16:08:47,NA,incomplete,false,NA,true,5,0,NA,NA,right,NA,NA,m_l_016.jpg,n_l_020.jpg,between-small,NA,NaN,NA,right,2883,1,1,790.0000000002328
adr1gRxH,NA,NA,adr1gRxH,2020-0188,2021-09-26,14:28:51,16:08:47,NA,incomplete,false,NA,true,5,1,NA,NA,right,NA,NA,c_1_017.jpg,n_l_012.jpg,between-big,NA,NaN,NA,right,2124,1,2,2003
adr1gRxH,NA,NA,adr1gRxH,2020-0188,2021-09-26,14:28:51,16:08:47,NA,incomplete,false,NA,true,5,2,NA,NA,right,NA,NA,c_1_028.jpg,c_1_009.jpg,within,NA,NaN,NA,right,1181,1,0,758.0000000002328
adr1gRxH,NA,NA,adr1gRxH,2020-0188,2021-09-26,14:28:51,16:08:47,NA,incomplete,false,NA,true,5,3,NA,NA,left,NA,NA,o_s_003.jpg,n_s_017.jpg,between-big,NA,NaN,NA,left,3355.000000000233,1,2,936
adr1gRxH,NA,NA,adr1gRxH,2020-0188,2021-09-26,14:28:51,16:08:47,NA,incomplete,false,NA,true,5,4,NA,NA,right,NA,NA,c_1_009.jpg,c_1_016.jpg,between-small,NA,NaN,NA,right,1222,1,0,861.0000000002328
adr1gRxH,NA,NA,adr1gRxH,2020-0188,2021-09-26,14:28:51,16:08:47,NA,incomplete,false,NA,true,5,5,NA,NA,right,NA,NA,o_s_003.jpg,i_c_012.jpg,between-small,NA,NaN,NA,right,4296.000000000233,1,1,1165.0000000002328
adr1gRxH,NA,NA,adr1gRxH,2020-0188,2021-09-26,14:28:51,16:08:47,NA,incomplete,false,NA,true,5,6,NA,NA,left,NA,NA,m_l_016.jpg,a_1_007.jpg,between-big,NA,NaN,NA,left,3019,1,3,1213
adr1gRxH,NA,NA,adr1gRxH,2020-0188,2021-09-26,14:28:51,16:08:47,NA,incomplete,false,NA,true,5,7,NA,NA,left,NA,NA,m_s_015.jpg,m_s_005.jpg,between-small,NA,NaN,NA,right,1957,0,1,975.9999999997672
adr1gRxH,NA,NA,adr1gRxH,2020-0188,2021-09-26,14:28:51,16:08:47,NA,incomplete,false,NA,true,5,8,NA,NA,right,NA,NA,n_s_027.jpg,m_s_012.jpg,between-small,NA,NaN,NA,left,3314,0,0,1012.9999999997672
adr1gRxH,NA,NA,adr1gRxH,2020-0188,2021-09-26,14:28:51,16:08:47,NA,incomplete,false,NA,true,5,9,NA,NA,right,NA,NA,c_1_013.jpg,c_1_017.jpg,within,NA,NaN,NA,left,2651,0,0,1333
adr1gRxH,NA,NA,adr1gRxH,2020-0188,2021-09-26,14:28:51,16:08:47,NA,incomplete,false,NA,true,5,10,NA,NA,right,NA,NA,c_2_009.jpg,c_2_005.jpg,within,NA,NaN,NA,left,2498,0,0,1550
adr1gRxH,NA,NA,adr1gRxH,2020-0188,2021-09-26,14:28:51,16:08:47,NA,incomplete,false,NA,true,5,11,NA,NA,right,NA,NA,n_l_003.jpg,i_s_028.jpg,between-big,NA,NaN,NA,right,3416.999999999767,1,2,805
adr1gRxH,NA,NA,adr1gRxH,2020-0188,2021-09-26,14:28:51,16:08:47,NA,incomplete,false,NA,true,5,12,NA,NA,left,NA,NA,n_s_027.jpg,m_l_003.jpg,within,NA,NaN,NA,right,1103,0,0,758
adr1gRxH,NA,NA,adr1gRxH,2020-0188,2021-09-26,14:28:51,16:08:47,NA,incomplete,false,NA,true,5,13,NA,NA,right,NA,NA,c_1_023.jpg,m_l_003.jpg,between-big,NA,NaN,NA,right,1052,1,2,1053
adr1gRxH,NA,NA,adr1gRxH,2020-0188,2021-09-26,14:28:51,16:08:47,NA,incomplete,false,NA,true,5,14,NA,NA,right,NA,NA,i_c_012.jpg,i_s_009.jpg,within,NA,NaN,NA,right,2461,1,0,1119
adr1gRxH,NA,NA,adr1gRxH,2020-0188,2021-09-26,14:28:51,16:08:47,NA,incomplete,false,NA,true,5,15,NA,NA,left,NA,NA,i_c_024.jpg,o_c_027.jpg,within,NA,NaN,NA,right,1446,0,1,782.9999999997672
adr1gRxH,NA,NA,adr1gRxH,2020-0188,2021-09-26,14:28:51,16:08:47,NA,incomplete,false,NA,true,5,16,NA,NA,left,NA,NA,o_c_019.jpg,i_s_028.jpg,within,NA,NaN,NA,right,1244,0,1,1405.9999999997672
adr1gRxH,NA,NA,adr1gRxH,2020-0188,2021-09-26,14:28:51,16:08:47,NA,incomplete,false,NA,true,5,17,NA,NA,left,NA,NA,a_1_007.jpg,c_1_016.jpg,within,NA,NaN,NA,right,966.9999999997672,0,1,1244
adr1gRxH,NA,NA,adr1gRxH,2020-0188,2021-09-26,14:28:51,16:08:47,NA,incomplete,false,NA,true,5,18,NA,NA,right,NA,NA,c_2_005.jpg,c_1_023.jpg,between-small,NA,NaN,NA,right,1045,1,1,694
adr1gRxH,NA,NA,adr1gRxH,2020-0188,2021-09-26,14:28:51,16:08:47,NA,incomplete,false,NA,true,5,19,NA,NA,right,NA,NA,m_s_012.jpg,n_s_017.jpg,within,NA,NaN,NA,right,1021,1,1,870
adr1gRxH,NA,NA,adr1gRxH,2020-0188,2021-09-26,14:28:51,16:08:47,NA,incomplete,false,NA,true,5,20,NA,NA,right,NA,NA,n_l_020.jpg,n_l_003.jpg,within,NA,NaN,NA,right,1282.9999999997672,1,1,1326.0000000002328
adr1gRxH,NA,NA,adr1gRxH,2020-0188,2021-09-26,14:28:51,16:08:47,NA,incomplete,false,NA,true,5,21,NA,NA,left,NA,NA,o_c_027.jpg,o_s_002.jpg,between-small,NA,NaN,NA,right,1388.9999999997672,0,1,2108
adr1gRxH,NA,NA,adr1gRxH,2020-0188,2021-09-26,14:28:51,16:08:47,NA,incomplete,false,NA,true,5,22,NA,NA,left,NA,NA,o_s_002.jpg,i_s_013.jpg,within,NA,NaN,NA,right,1022.0000000002328,0,1,1087
adr1gRxH,NA,NA,adr1gRxH,2020-0188,2021-09-26,14:28:51,16:08:47,NA,incomplete,false,NA,true,5,23,NA,NA,left,NA,NA,i_s_013.jpg,m_s_015.jpg,between-big,NA,NaN,NA,right,1205,0,2,1142
adr1gRxH,NA,NA,adr1gRxH,2020-0188,2021-09-26,14:28:51,16:08:47,NA,incomplete,false,NA,true,5,24,NA,NA,right,NA,NA,c_1_008.jpg,c_1_013.jpg,between-small,NA,NaN,NA,right,932,1,1,1596.0000000002328
adr1gRxH,NA,NA,adr1gRxH,2020-0188,2021-09-26,14:28:51,16:08:47,NA,incomplete,false,NA,true,5,25,NA,NA,right,NA,NA,o_c_019.jpg,i_c_008.jpg,between-small,NA,NaN,NA,right,878.0000000002328,1,1,3545.999999999767
adr1gRxH,NA,NA,adr1gRxH,2020-0188,2021-09-26,14:28:51,16:08:47,NA,incomplete,false,NA,true,5,26,NA,NA,left,NA,NA,m_s_005.jpg,n_l_012.jpg,within,NA,NaN,NA,left,1677.9999999997672,1,1,1980
adr1gRxH,NA,NA,adr1gRxH,2020-0188,2021-09-26,14:28:51,16:08:47,NA,incomplete,false,true,NA,6,0,building,o_s_005.jpg,right,cottage,skyscraper,NA,NA,NA,right,1727,true,NA,NA,NA,NA,NA
adr1gRxH,NA,NA,adr1gRxH,2020-0188,2021-09-26,14:28:51,16:08:47,NA,incomplete,false,true,NA,6,1,building,o_c_014.jpg,left,cottage,skyscraper,NA,NA,NA,left,853,true,NA,NA,NA,NA,NA
adr1gRxH,NA,NA,adr1gRxH,2020-0188,2021-09-26,14:28:51,16:08:47,NA,incomplete,false,true,NA,6,2,building,o_s_022.jpg,right,cottage,skyscraper,NA,NA,NA,right,887.999999999534,true,NA,NA,NA,NA,NA
adr1gRxH,NA,NA,adr1gRxH,2020-0188,2021-09-26,14:28:51,16:08:47,NA,incomplete,false,true,NA,6,3,building,i_c_025.jpg,right,skyscraper,cottage,NA,NA,NA,left,1167.99999999953,false,NA,NA,NA,NA,NA
adr1gRxH,NA,NA,adr1gRxH,2020-0188,2021-09-26,14:28:51,16:08:47,NA,incomplete,false,true,NA,6,4,building,o_s_006.jpg,left,skyscraper,cottage,NA,NA,NA,left,845.999999999534,true,NA,NA,NA,NA,NA
adr1gRxH,NA,NA,adr1gRxH,2020-0188,2021-09-26,14:28:51,16:08:47,NA,incomplete,false,true,NA,6,5,location,i_s_018.jpg,left,indoor,outdoor,NA,NA,NA,left,1258.00000000047,true,NA,NA,NA,NA,NA
adr1gRxH,NA,NA,adr1gRxH,2020-0188,2021-09-26,14:28:51,16:08:47,NA,incomplete,false,true,NA,6,6,location,i_c_017.jpg,left,indoor,outdoor,NA,NA,NA,left,1065.00000000047,true,NA,NA,NA,NA,NA
adr1gRxH,NA,NA,adr1gRxH,2020-0188,2021-09-26,14:28:51,16:08:47,NA,incomplete,false,true,NA,6,7,location,i_s_004.jpg,left,indoor,outdoor,NA,NA,NA,left,1150,true,NA,NA,NA,NA,NA
adr1gRxH,NA,NA,adr1gRxH,2020-0188,2021-09-26,14:28:51,16:08:47,NA,incomplete,false,true,NA,6,8,location,o_c_009.jpg,left,outdoor,indoor,NA,NA,NA,left,1660.99999999953,true,NA,NA,NA,NA,NA
adr1gRxH,NA,NA,adr1gRxH,2020-0188,2021-09-26,14:28:51,16:08:47,NA,incomplete,false,true,NA,6,9,location,i_s_017.jpg,right,outdoor,indoor,NA,NA,NA,right,1264,true,NA,NA,NA,NA,NA
adr1gRxH,NA,NA,adr1gRxH,2020-0188,2021-09-26,14:28:51,16:08:47,NA,incomplete,false,true,NA,6,10,size,m_l_002.jpg,left,large,small,NA,NA,NA,left,2172,true,NA,NA,NA,NA,NA
adr1gRxH,NA,NA,adr1gRxH,2020-0188,2021-09-26,14:28:51,16:08:47,NA,incomplete,false,true,NA,6,11,size,m_s_014.jpg,left,small,large,NA,NA,NA,left,1206.00000000047,true,NA,NA,NA,NA,NA
adr1gRxH,NA,NA,adr1gRxH,2020-0188,2021-09-26,14:28:51,16:08:47,NA,incomplete,false,true,NA,6,12,size,n_l_015.jpg,left,large,small,NA,NA,NA,left,1251,true,NA,NA,NA,NA,NA
adr1gRxH,NA,NA,adr1gRxH,2020-0188,2021-09-26,14:28:51,16:08:47,NA,incomplete,false,true,NA,6,13,size,n_s_001.jpg,right,large,small,NA,NA,NA,right,1346,true,NA,NA,NA,NA,NA
adr1gRxH,NA,NA,adr1gRxH,2020-0188,2021-09-26,14:28:51,16:08:47,NA,incomplete,false,true,NA,6,14,size,m_s_019.jpg,right,large,small,NA,NA,NA,right,1463,true,NA,NA,NA,NA,NA
adr1gRxH,NA,NA,adr1gRxH,2020-0188,2021-09-26,14:28:51,16:08:47,NA,incomplete,false,true,NA,6,15,origin,m_s_011.jpg,left,manmade,natural,NA,NA,NA,left,1436.99999999953,true,NA,NA,NA,NA,NA
adr1gRxH,NA,NA,adr1gRxH,2020-0188,2021-09-26,14:28:51,16:08:47,NA,incomplete,false,true,NA,6,16,origin,m_s_007.jpg,right,natural,manmade,NA,NA,NA,right,1148.99999999953,true,NA,NA,NA,NA,NA
adr1gRxH,NA,NA,adr1gRxH,2020-0188,2021-09-26,14:28:51,16:08:47,NA,incomplete,false,true,NA,6,17,origin,m_s_004.jpg,right,natural,manmade,NA,NA,NA,right,970,true,NA,NA,NA,NA,NA
adr1gRxH,NA,NA,adr1gRxH,2020-0188,2021-09-26,14:28:51,16:08:47,NA,incomplete,false,true,NA,6,18,origin,n_s_012.jpg,left,natural,manmade,NA,NA,NA,left,1180,true,NA,NA,NA,NA,NA
adr1gRxH,NA,NA,adr1gRxH,2020-0188,2021-09-26,14:28:51,16:08:47,NA,incomplete,false,true,NA,6,19,origin,n_s_015.jpg,left,natural,manmade,NA,NA,NA,left,910,true,NA,NA,NA,NA,NA
adr1gRxH,NA,NA,adr1gRxH,2020-0188,2021-09-26,14:28:51,16:08:47,NA,incomplete,false,true,NA,6,20,abstractness,c_2_007.jpg,left,concrete,abstract,NA,NA,NA,left,1950,true,NA,NA,NA,NA,NA
adr1gRxH,NA,NA,adr1gRxH,2020-0188,2021-09-26,14:28:51,16:08:47,NA,incomplete,false,true,NA,6,21,abstractness,a_2_019.jpg,left,abstract,concrete,NA,NA,NA,left,1438,true,NA,NA,NA,NA,NA
adr1gRxH,NA,NA,adr1gRxH,2020-0188,2021-09-26,14:28:51,16:08:47,NA,incomplete,false,true,NA,6,22,abstractness,c_2_001.jpg,right,abstract,concrete,NA,NA,NA,right,1295,true,NA,NA,NA,NA,NA
adr1gRxH,NA,NA,adr1gRxH,2020-0188,2021-09-26,14:28:51,16:08:47,NA,incomplete,false,true,NA,6,23,abstractness,a_1_026.jpg,left,abstract,concrete,NA,NA,NA,left,1088,true,NA,NA,NA,NA,NA
adr1gRxH,NA,NA,adr1gRxH,2020-0188,2021-09-26,14:28:51,16:08:47,NA,incomplete,false,true,NA,6,24,abstractness,c_2_027.jpg,left,concrete,abstract,NA,NA,NA,left,1644,true,NA,NA,NA,NA,NA
adr1gRxH,NA,NA,adr1gRxH,2020-0188,2021-09-26,14:28:51,16:08:47,NA,incomplete,false,true,NA,6,25,syllable,a_1_011.jpg,right,1 syllable,2 syllables,NA,NA,NA,left,1199,false,NA,NA,NA,NA,NA
adr1gRxH,NA,NA,adr1gRxH,2020-0188,2021-09-26,14:28:51,16:08:47,NA,incomplete,false,true,NA,6,26,syllable,c_1_006.jpg,right,2 syllables,1 syllable,NA,NA,NA,right,1231,true,NA,NA,NA,NA,NA
adr1gRxH,NA,NA,adr1gRxH,2020-0188,2021-09-26,14:28:51,16:08:47,NA,incomplete,false,true,NA,6,27,syllable,a_1_020.jpg,right,2 syllables,1 syllable,NA,NA,NA,right,1167,true,NA,NA,NA,NA,NA
adr1gRxH,NA,NA,adr1gRxH,2020-0188,2021-09-26,14:28:51,16:08:47,NA,incomplete,false,true,NA,6,28,syllable,a_2_021.jpg,right,1 syllable,2 syllables,NA,NA,NA,right,1092.00000000047,true,NA,NA,NA,NA,NA
adr1gRxH,NA,NA,adr1gRxH,2020-0188,2021-09-26,14:28:51,16:08:47,NA,incomplete,false,true,NA,6,29,syllable,c_2_020.jpg,right,1 syllable,2 syllables,NA,NA,NA,right,1388,true,NA,NA,NA,NA,NA
adr1gRxH,NA,NA,adr1gRxH,2020-0188,2021-09-26,14:28:51,16:08:47,NA,incomplete,false,NA,true,6,0,NA,NA,right,NA,NA,i_c_025.jpg,o_s_005.jpg,within,NA,NaN,NA,right,2251,1,1,1166
adr1gRxH,NA,NA,adr1gRxH,2020-0188,2021-09-26,14:28:51,16:08:47,NA,incomplete,false,NA,true,6,1,NA,NA,left,NA,NA,o_s_006.jpg,i_s_004.jpg,between-small,NA,NaN,NA,left,1675,1,1,743
adr1gRxH,NA,NA,adr1gRxH,2020-0188,2021-09-26,14:28:51,16:08:47,NA,incomplete,false,NA,true,6,2,NA,NA,right,NA,NA,n_l_015.jpg,i_s_017.jpg,between-big,NA,NaN,NA,right,2794,1,1,694
adr1gRxH,NA,NA,adr1gRxH,2020-0188,2021-09-26,14:28:51,16:08:47,NA,incomplete,false,NA,true,6,3,NA,NA,right,NA,NA,i_s_018.jpg,o_s_022.jpg,between-small,NA,NaN,NA,left,1565,0,0,1024
adr1gRxH,NA,NA,adr1gRxH,2020-0188,2021-09-26,14:28:51,16:08:47,NA,incomplete,false,NA,true,6,4,NA,NA,left,NA,NA,i_c_025.jpg,i_c_017.jpg,between-small,NA,NaN,NA,right,1219.9999999995343,0,0,1086
adr1gRxH,NA,NA,adr1gRxH,2020-0188,2021-09-26,14:28:51,16:08:47,NA,incomplete,false,NA,true,6,5,NA,NA,right,NA,NA,o_s_006.jpg,o_c_014.jpg,within,NA,NaN,NA,right,918.9999999995343,1,1,830
adr1gRxH,NA,NA,adr1gRxH,2020-0188,2021-09-26,14:28:51,16:08:47,NA,incomplete,false,NA,true,6,6,NA,NA,right,NA,NA,c_2_027.jpg,a_2_019.jpg,within,NA,NaN,NA,right,1023,1,1,1342
adr1gRxH,NA,NA,adr1gRxH,2020-0188,2021-09-26,14:28:51,16:08:47,NA,incomplete,false,NA,true,6,7,NA,NA,left,NA,NA,m_s_004.jpg,c_2_007.jpg,between-big,NA,NaN,NA,left,1964,1,2,1445.0000000004657
adr1gRxH,NA,NA,adr1gRxH,2020-0188,2021-09-26,14:28:51,16:08:47,NA,incomplete,false,NA,true,6,8,NA,NA,left,NA,NA,n_l_015.jpg,m_s_011.jpg,between-small,NA,NaN,NA,right,1104,0,0,903
adr1gRxH,NA,NA,adr1gRxH,2020-0188,2021-09-26,14:28:51,16:08:47,NA,incomplete,false,NA,true,6,9,NA,NA,left,NA,NA,i_s_004.jpg,m_l_002.jpg,between-big,NA,NaN,NA,left,3667,1,1,1269
adr1gRxH,NA,NA,adr1gRxH,2020-0188,2021-09-26,14:28:51,16:08:47,NA,incomplete,false,NA,true,6,10,NA,NA,right,NA,NA,a_2_021.jpg,a_1_011.jpg,within,NA,NaN,NA,right,1238,1,0,2117.0000000004657
adr1gRxH,NA,NA,adr1gRxH,2020-0188,2021-09-26,14:28:51,16:08:47,NA,incomplete,false,NA,true,6,11,NA,NA,right,NA,NA,n_s_001.jpg,m_l_002.jpg,within,NA,NaN,NA,right,798.9999999995343,1,1,759
adr1gRxH,NA,NA,adr1gRxH,2020-0188,2021-09-26,14:28:51,16:08:47,NA,incomplete,false,NA,true,6,12,NA,NA,right,NA,NA,a_2_019.jpg,n_s_012.jpg,between-big,NA,NaN,NA,right,2235,1,1,1565
adr1gRxH,NA,NA,adr1gRxH,2020-0188,2021-09-26,14:28:51,16:08:47,NA,incomplete,false,NA,true,6,13,NA,NA,right,NA,NA,c_1_006.jpg,a_1_026.jpg,between-small,NA,NaN,NA,right,1693,1,1,790
adr1gRxH,NA,NA,adr1gRxH,2020-0188,2021-09-26,14:28:51,16:08:47,NA,incomplete,false,NA,true,6,14,NA,NA,right,NA,NA,o_c_009.jpg,i_s_018.jpg,within,NA,NaN,NA,right,708,1,2,1551
adr1gRxH,NA,NA,adr1gRxH,2020-0188,2021-09-26,14:28:51,16:08:47,NA,incomplete,false,NA,true,6,15,NA,NA,right,NA,NA,c_2_001.jpg,n_s_015.jpg,between-big,NA,NaN,NA,right,829,1,2,1252
adr1gRxH,NA,NA,adr1gRxH,2020-0188,2021-09-26,14:28:51,16:08:47,NA,incomplete,false,NA,true,6,16,NA,NA,left,NA,NA,m_s_007.jpg,n_s_015.jpg,within,NA,NaN,NA,right,3473,0,1,1310.9999999995343
adr1gRxH,NA,NA,adr1gRxH,2020-0188,2021-09-26,14:28:51,16:08:47,NA,incomplete,false,NA,true,6,17,NA,NA,right,NA,NA,a_1_026.jpg,c_2_007.jpg,within,NA,NaN,NA,right,1100,1,1,894
adr1gRxH,NA,NA,adr1gRxH,2020-0188,2021-09-26,14:28:51,16:08:47,NA,incomplete,false,NA,true,6,18,NA,NA,right,NA,NA,c_2_020.jpg,c_1_006.jpg,within,NA,NaN,NA,right,1068,1,1,2189
adr1gRxH,NA,NA,adr1gRxH,2020-0188,2021-09-26,14:28:51,16:08:47,NA,incomplete,false,NA,true,6,19,NA,NA,left,NA,NA,c_2_001.jpg,a_1_011.jpg,between-small,NA,NaN,NA,right,1589.0000000004657,0,1,742
adr1gRxH,NA,NA,adr1gRxH,2020-0188,2021-09-26,14:28:51,16:08:47,NA,incomplete,false,NA,true,6,20,NA,NA,left,NA,NA,n_s_001.jpg,m_s_007.jpg,between-small,NA,NaN,NA,right,1229,0,1,2310
adr1gRxH,NA,NA,adr1gRxH,2020-0188,2021-09-26,14:28:51,16:08:47,NA,incomplete,false,NA,true,6,21,NA,NA,left,NA,NA,m_s_011.jpg,n_s_012.jpg,within,NA,NaN,NA,right,846,0,1,902
adr1gRxH,NA,NA,adr1gRxH,2020-0188,2021-09-26,14:28:51,16:08:47,NA,incomplete,false,NA,true,6,22,NA,NA,right,NA,NA,a_1_020.jpg,c_2_027.jpg,between-small,NA,NaN,NA,right,902,1,1,778
adr1gRxH,NA,NA,adr1gRxH,2020-0188,2021-09-26,14:28:51,16:08:47,NA,incomplete,false,NA,true,6,23,NA,NA,right,NA,NA,m_s_014.jpg,o_c_009.jpg,between-big,NA,NaN,NA,right,1102,1,2,1262.0000000004657
adr1gRxH,NA,NA,adr1gRxH,2020-0188,2021-09-26,14:28:51,16:08:47,NA,incomplete,false,NA,true,6,24,NA,NA,right,NA,NA,m_s_019.jpg,m_s_014.jpg,within,NA,NaN,NA,right,910,1,1,1088
adr1gRxH,NA,NA,adr1gRxH,2020-0188,2021-09-26,14:28:51,16:08:47,NA,incomplete,false,NA,true,6,25,NA,NA,left,NA,NA,i_c_017.jpg,i_s_017.jpg,within,NA,NaN,NA,right,1164.0000000004657,0,1,623
adr1gRxH,NA,NA,adr1gRxH,2020-0188,2021-09-26,14:28:51,16:08:47,NA,incomplete,false,NA,true,6,26,NA,NA,right,NA,NA,m_s_004.jpg,m_s_019.jpg,between-small,NA,NaN,NA,right,678,1,0,1031
adr1gRxH,NA,NA,adr1gRxH,2020-0188,2021-09-26,14:28:51,16:08:47,NA,incomplete,false,true,NA,7,0,size,n_l_004.jpg,left,large,small,NA,NA,NA,left,1225,true,NA,NA,NA,NA,NA
adr1gRxH,NA,NA,adr1gRxH,2020-0188,2021-09-26,14:28:51,16:08:47,NA,incomplete,false,true,NA,7,1,size,n_l_007.jpg,right,small,large,NA,NA,NA,right,993,true,NA,NA,NA,NA,NA
adr1gRxH,NA,NA,adr1gRxH,2020-0188,2021-09-26,14:28:51,16:08:47,NA,incomplete,false,true,NA,7,2,size,m_l_009.jpg,right,small,large,NA,NA,NA,right,1402,true,NA,NA,NA,NA,NA
adr1gRxH,NA,NA,adr1gRxH,2020-0188,2021-09-26,14:28:51,16:08:47,NA,incomplete,false,true,NA,7,3,size,n_s_006.jpg,left,small,large,NA,NA,NA,left,1358,true,NA,NA,NA,NA,NA
adr1gRxH,NA,NA,adr1gRxH,2020-0188,2021-09-26,14:28:51,16:08:47,NA,incomplete,false,true,NA,7,4,size,m_l_023.jpg,right,small,large,NA,NA,NA,right,1556,true,NA,NA,NA,NA,NA
adr1gRxH,NA,NA,adr1gRxH,2020-0188,2021-09-26,14:28:51,16:08:47,NA,incomplete,false,true,NA,7,5,origin,m_l_008.jpg,left,manmade,natural,NA,NA,NA,left,1818,true,NA,NA,NA,NA,NA
adr1gRxH,NA,NA,adr1gRxH,2020-0188,2021-09-26,14:28:51,16:08:47,NA,incomplete,false,true,NA,7,6,origin,m_l_011.jpg,right,natural,manmade,NA,NA,NA,right,1630,true,NA,NA,NA,NA,NA
adr1gRxH,NA,NA,adr1gRxH,2020-0188,2021-09-26,14:28:51,16:08:47,NA,incomplete,false,true,NA,7,7,origin,m_s_024.jpg,right,natural,manmade,NA,NA,NA,right,1134,true,NA,NA,NA,NA,NA
adr1gRxH,NA,NA,adr1gRxH,2020-0188,2021-09-26,14:28:51,16:08:47,NA,incomplete,false,true,NA,7,8,origin,n_l_019.jpg,right,manmade,natural,NA,NA,NA,right,1568,true,NA,NA,NA,NA,NA
adr1gRxH,NA,NA,adr1gRxH,2020-0188,2021-09-26,14:28:51,16:08:47,NA,incomplete,false,true,NA,7,9,origin,m_l_006.jpg,right,natural,manmade,NA,NA,NA,right,1047,true,NA,NA,NA,NA,NA
adr1gRxH,NA,NA,adr1gRxH,2020-0188,2021-09-26,14:28:51,16:08:47,NA,incomplete,false,true,NA,7,10,building,i_c_019.jpg,right,skyscraper,cottage,NA,NA,NA,right,1522,true,NA,NA,NA,NA,NA
adr1gRxH,NA,NA,adr1gRxH,2020-0188,2021-09-26,14:28:51,16:08:47,NA,incomplete,false,true,NA,7,11,building,o_s_014.jpg,left,skyscraper,cottage,NA,NA,NA,left,878,true,NA,NA,NA,NA,NA
adr1gRxH,NA,NA,adr1gRxH,2020-0188,2021-09-26,14:28:51,16:08:47,NA,incomplete,false,true,NA,7,12,building,o_c_015.jpg,right,skyscraper,cottage,NA,NA,NA,right,1077,true,NA,NA,NA,NA,NA
adr1gRxH,NA,NA,adr1gRxH,2020-0188,2021-09-26,14:28:51,16:08:47,NA,incomplete,false,true,NA,7,13,building,i_c_026.jpg,left,cottage,skyscraper,NA,NA,NA,left,1017,true,NA,NA,NA,NA,NA
adr1gRxH,NA,NA,adr1gRxH,2020-0188,2021-09-26,14:28:51,16:08:47,NA,incomplete,false,true,NA,7,14,building,i_c_021.jpg,left,cottage,skyscraper,NA,NA,NA,left,872,true,NA,NA,NA,NA,NA
adr1gRxH,NA,NA,adr1gRxH,2020-0188,2021-09-26,14:28:51,16:08:47,NA,incomplete,false,true,NA,7,15,location,i_c_002.jpg,left,indoor,outdoor,NA,NA,NA,left,1421,true,NA,NA,NA,NA,NA
adr1gRxH,NA,NA,adr1gRxH,2020-0188,2021-09-26,14:28:51,16:08:47,NA,incomplete,false,true,NA,7,16,location,o_s_023.jpg,right,indoor,outdoor,NA,NA,NA,right,1215,true,NA,NA,NA,NA,NA
adr1gRxH,NA,NA,adr1gRxH,2020-0188,2021-09-26,14:28:51,16:08:47,NA,incomplete,false,true,NA,7,17,location,i_s_025.jpg,right,outdoor,indoor,NA,NA,NA,left,1286,false,NA,NA,NA,NA,NA
adr1gRxH,NA,NA,adr1gRxH,2020-0188,2021-09-26,14:28:51,16:08:47,NA,incomplete,false,true,NA,7,18,location,i_s_014.jpg,right,outdoor,indoor,NA,NA,NA,right,1135,true,NA,NA,NA,NA,NA
adr1gRxH,NA,NA,adr1gRxH,2020-0188,2021-09-26,14:28:51,16:08:47,NA,incomplete,false,true,NA,7,19,location,i_c_013.jpg,right,outdoor,indoor,NA,NA,NA,right,915,true,NA,NA,NA,NA,NA
adr1gRxH,NA,NA,adr1gRxH,2020-0188,2021-09-26,14:28:51,16:08:47,NA,incomplete,false,true,NA,7,20,syllable,c_2_003.jpg,right,1 syllable,2 syllables,NA,NA,NA,right,1777,true,NA,NA,NA,NA,NA
adr1gRxH,NA,NA,adr1gRxH,2020-0188,2021-09-26,14:28:51,16:08:47,NA,incomplete,false,true,NA,7,21,syllable,a_2_005.jpg,right,1 syllable,2 syllables,NA,NA,NA,right,1350.99999999953,true,NA,NA,NA,NA,NA
adr1gRxH,NA,NA,adr1gRxH,2020-0188,2021-09-26,14:28:51,16:08:47,NA,incomplete,false,true,NA,7,22,syllable,a_2_004.jpg,right,2 syllables,1 syllable,NA,NA,NA,left,1186,false,NA,NA,NA,NA,NA
adr1gRxH,NA,NA,adr1gRxH,2020-0188,2021-09-26,14:28:51,16:08:47,NA,incomplete,false,true,NA,7,23,syllable,a_1_008.jpg,right,2 syllables,1 syllable,NA,NA,NA,right,1056.99999999953,true,NA,NA,NA,NA,NA
adr1gRxH,NA,NA,adr1gRxH,2020-0188,2021-09-26,14:28:51,16:08:47,NA,incomplete,false,true,NA,7,24,syllable,c_1_007.jpg,right,2 syllables,1 syllable,NA,NA,NA,right,1479.00000000047,true,NA,NA,NA,NA,NA
adr1gRxH,NA,NA,adr1gRxH,2020-0188,2021-09-26,14:28:51,16:08:47,NA,incomplete,false,true,NA,7,25,abstractness,c_1_003.jpg,left,concrete,abstract,NA,NA,NA,left,1840.99999999907,true,NA,NA,NA,NA,NA
adr1gRxH,NA,NA,adr1gRxH,2020-0188,2021-09-26,14:28:51,16:08:47,NA,incomplete,false,true,NA,7,26,abstractness,a_1_019.jpg,right,concrete,abstract,NA,NA,NA,right,1610.99999999953,true,NA,NA,NA,NA,NA
adr1gRxH,NA,NA,adr1gRxH,2020-0188,2021-09-26,14:28:51,16:08:47,NA,incomplete,false,true,NA,7,27,abstractness,a_2_017.jpg,left,abstract,concrete,NA,NA,NA,left,2200.00000000093,true,NA,NA,NA,NA,NA
adr1gRxH,NA,NA,adr1gRxH,2020-0188,2021-09-26,14:28:51,16:08:47,NA,incomplete,false,true,NA,7,28,abstractness,a_2_015.jpg,right,concrete,abstract,NA,NA,NA,right,1559.00000000047,true,NA,NA,NA,NA,NA
adr1gRxH,NA,NA,adr1gRxH,2020-0188,2021-09-26,14:28:51,16:08:47,NA,incomplete,false,true,NA,7,29,abstractness,c_1_024.jpg,left,concrete,abstract,NA,NA,NA,left,1314.00000000047,true,NA,NA,NA,NA,NA
adr1gRxH,NA,NA,adr1gRxH,2020-0188,2021-09-26,14:28:51,16:08:47,NA,incomplete,false,NA,true,7,0,NA,NA,left,NA,NA,m_l_009.jpg,m_l_008.jpg,between-small,NA,NaN,NA,left,5613.000000000466,1,1,1061.0000000004657
adr1gRxH,NA,NA,adr1gRxH,2020-0188,2021-09-26,14:28:51,16:08:47,NA,incomplete,false,NA,true,7,1,NA,NA,right,NA,NA,m_l_006.jpg,m_l_011.jpg,within,NA,NaN,NA,right,1829,1,1,853
adr1gRxH,NA,NA,adr1gRxH,2020-0188,2021-09-26,14:28:51,16:08:47,NA,incomplete,false,NA,true,7,2,NA,NA,left,NA,NA,i_c_026.jpg,o_s_023.jpg,between-small,NA,NaN,NA,right,2234.9999999990687,0,1,1647
adr1gRxH,NA,NA,adr1gRxH,2020-0188,2021-09-26,14:28:51,16:08:47,NA,incomplete,false,NA,true,7,3,NA,NA,left,NA,NA,o_s_014.jpg,i_c_021.jpg,within,NA,NaN,NA,left,1509,1,1,959
adr1gRxH,NA,NA,adr1gRxH,2020-0188,2021-09-26,14:28:51,16:08:47,NA,incomplete,false,NA,true,7,4,NA,NA,left,NA,NA,m_l_008.jpg,n_l_019.jpg,within,NA,NaN,NA,right,815,0,1,30904
adr1gRxH,NA,NA,adr1gRxH,2020-0188,2021-09-26,14:28:51,16:08:47,NA,incomplete,false,NA,true,7,5,NA,NA,left,NA,NA,n_l_007.jpg,m_l_023.jpg,within,NA,NaN,NA,left,2284,1,0,1062.0000000009313
adr1gRxH,NA,NA,adr1gRxH,2020-0188,2021-09-26,14:28:51,16:08:47,NA,incomplete,false,NA,true,7,6,NA,NA,right,NA,NA,c_2_003.jpg,i_s_025.jpg,between-big,NA,NaN,NA,right,1300.9999999990687,1,3,894
adr1gRxH,NA,NA,adr1gRxH,2020-0188,2021-09-26,14:28:51,16:08:47,NA,incomplete,false,NA,true,7,7,NA,NA,left,NA,NA,n_l_019.jpg,o_s_014.jpg,between-big,NA,NaN,NA,left,2356,1,2,877
adr1gRxH,NA,NA,adr1gRxH,2020-0188,2021-09-26,14:28:51,16:08:47,NA,incomplete,false,NA,true,7,8,NA,NA,left,NA,NA,i_c_002.jpg,i_s_014.jpg,within,NA,NaN,NA,left,2442,1,1,783
adr1gRxH,NA,NA,adr1gRxH,2020-0188,2021-09-26,14:28:51,16:08:47,NA,incomplete,false,NA,true,7,9,NA,NA,right,NA,NA,c_1_024.jpg,a_1_019.jpg,within,NA,NaN,NA,right,837,1,1,831
adr1gRxH,NA,NA,adr1gRxH,2020-0188,2021-09-26,14:28:51,16:08:47,NA,incomplete,false,NA,true,7,10,NA,NA,right,NA,NA,a_1_008.jpg,c_2_003.jpg,within,NA,NaN,NA,right,734,1,1,998
adr1gRxH,NA,NA,adr1gRxH,2020-0188,2021-09-26,14:28:51,16:08:47,NA,incomplete,false,NA,true,7,11,NA,NA,left,NA,NA,o_c_015.jpg,i_c_002.jpg,between-small,NA,NaN,NA,right,983,0,1,821.0000000009313
adr1gRxH,NA,NA,adr1gRxH,2020-0188,2021-09-26,14:28:51,16:08:47,NA,incomplete,false,NA,true,7,12,NA,NA,left,NA,NA,c_1_007.jpg,a_2_017.jpg,between-small,NA,NaN,NA,right,1198,0,1,751
adr1gRxH,NA,NA,adr1gRxH,2020-0188,2021-09-26,14:28:51,16:08:47,NA,incomplete,false,NA,true,7,13,NA,NA,left,NA,NA,i_s_014.jpg,a_2_005.jpg,between-big,NA,NaN,NA,left,2419,1,2,949
adr1gRxH,NA,NA,adr1gRxH,2020-0188,2021-09-26,14:28:51,16:08:47,NA,incomplete,false,NA,true,7,14,NA,NA,right,NA,NA,i_s_025.jpg,i_c_021.jpg,between-small,NA,NaN,NA,left,2196,0,1,1317
adr1gRxH,NA,NA,adr1gRxH,2020-0188,2021-09-26,14:28:51,16:08:47,NA,incomplete,false,NA,true,7,15,NA,NA,left,NA,NA,n_l_004.jpg,n_s_006.jpg,within,NA,NaN,NA,left,1485.9999999990687,1,0,830
adr1gRxH,NA,NA,adr1gRxH,2020-0188,2021-09-26,14:28:51,16:08:47,NA,incomplete,false,NA,true,7,16,NA,NA,right,NA,NA,m_l_011.jpg,n_s_006.jpg,between-small,NA,NaN,NA,right,1134,1,0,737
adr1gRxH,NA,NA,adr1gRxH,2020-0188,2021-09-26,14:28:51,16:08:47,NA,incomplete,false,NA,true,7,17,NA,NA,right,NA,NA,a_1_019.jpg,a_1_008.jpg,between-small,NA,NaN,NA,right,1208,1,1,768
adr1gRxH,NA,NA,adr1gRxH,2020-0188,2021-09-26,14:28:51,16:08:47,NA,incomplete,false,NA,true,7,18,NA,NA,left,NA,NA,m_l_006.jpg,o_c_015.jpg,between-big,NA,NaN,NA,left,1909,1,2,2043
adr1gRxH,NA,NA,adr1gRxH,2020-0188,2021-09-26,14:28:51,16:08:47,NA,incomplete,false,NA,true,7,19,NA,NA,right,NA,NA,c_1_007.jpg,a_2_005.jpg,within,NA,NaN,NA,left,2237,0,1,926
adr1gRxH,NA,NA,adr1gRxH,2020-0188,2021-09-26,14:28:51,16:08:47,NA,incomplete,false,NA,true,7,20,NA,NA,left,NA,NA,i_c_019.jpg,i_c_026.jpg,within,NA,NaN,NA,right,918,0,1,983
adr1gRxH,NA,NA,adr1gRxH,2020-0188,2021-09-26,14:28:51,16:08:47,NA,incomplete,false,NA,true,7,21,NA,NA,left,NA,NA,a_2_004.jpg,c_1_003.jpg,between-small,NA,NaN,NA,right,1676,0,1,910
adr1gRxH,NA,NA,adr1gRxH,2020-0188,2021-09-26,14:28:51,16:08:47,NA,incomplete,false,NA,true,7,22,NA,NA,left,NA,NA,o_s_023.jpg,i_c_013.jpg,within,NA,NaN,NA,left,1788,1,1,687
adr1gRxH,NA,NA,adr1gRxH,2020-0188,2021-09-26,14:28:51,16:08:47,NA,incomplete,false,NA,true,7,23,NA,NA,left,NA,NA,c_1_003.jpg,a_2_015.jpg,within,NA,NaN,NA,right,1046,0,1,1005
adr1gRxH,NA,NA,adr1gRxH,2020-0188,2021-09-26,14:28:51,16:08:47,NA,incomplete,false,NA,true,7,24,NA,NA,right,NA,NA,a_2_004.jpg,i_c_013.jpg,between-big,NA,NaN,NA,right,782,1,1,704
adr1gRxH,NA,NA,adr1gRxH,2020-0188,2021-09-26,14:28:51,16:08:47,NA,incomplete,false,NA,true,7,25,NA,NA,left,NA,NA,m_l_023.jpg,m_s_024.jpg,between-small,NA,NaN,NA,right,1214,0,1,1845.0000000009313
adr1gRxH,NA,NA,adr1gRxH,2020-0188,2021-09-26,14:28:51,16:08:47,NA,incomplete,false,NA,true,7,26,NA,NA,right,NA,NA,i_c_019.jpg,m_s_024.jpg,between-big,NA,NaN,NA,right,1157,1,2,925
adr1gRxH,NA,NA,adr1gRxH,2020-0188,2021-09-26,14:28:51,16:08:47,NA,incomplete,false,true,NA,8,0,origin,m_l_018.jpg,left,manmade,natural,NA,NA,NA,left,1559,true,NA,NA,NA,NA,NA
adr1gRxH,NA,NA,adr1gRxH,2020-0188,2021-09-26,14:28:51,16:08:47,NA,incomplete,false,true,NA,8,1,origin,m_s_018.jpg,left,manmade,natural,NA,NA,NA,left,1575,true,NA,NA,NA,NA,NA
adr1gRxH,NA,NA,adr1gRxH,2020-0188,2021-09-26,14:28:51,16:08:47,NA,incomplete,false,true,NA,8,2,origin,m_s_025.jpg,right,natural,manmade,NA,NA,NA,right,1266,true,NA,NA,NA,NA,NA
adr1gRxH,NA,NA,adr1gRxH,2020-0188,2021-09-26,14:28:51,16:08:47,NA,incomplete,false,true,NA,8,3,origin,m_l_004.jpg,left,manmade,natural,NA,NA,NA,left,1018,true,NA,NA,NA,NA,NA
adr1gRxH,NA,NA,adr1gRxH,2020-0188,2021-09-26,14:28:51,16:08:47,NA,incomplete,false,true,NA,8,4,origin,m_l_022.jpg,right,natural,manmade,NA,NA,NA,right,2081,true,NA,NA,NA,NA,NA
adr1gRxH,NA,NA,adr1gRxH,2020-0188,2021-09-26,14:28:51,16:08:47,NA,incomplete,false,true,NA,8,5,size,n_s_023.jpg,right,large,small,NA,NA,NA,right,1461,true,NA,NA,NA,NA,NA
adr1gRxH,NA,NA,adr1gRxH,2020-0188,2021-09-26,14:28:51,16:08:47,NA,incomplete,false,true,NA,8,6,size,n_s_014.jpg,right,large,small,NA,NA,NA,right,2208,true,NA,NA,NA,NA,NA
adr1gRxH,NA,NA,adr1gRxH,2020-0188,2021-09-26,14:28:51,16:08:47,NA,incomplete,false,true,NA,8,7,size,m_l_013.jpg,right,small,large,NA,NA,NA,right,1489,true,NA,NA,NA,NA,NA
adr1gRxH,NA,NA,adr1gRxH,2020-0188,2021-09-26,14:28:51,16:08:47,NA,incomplete,false,true,NA,8,8,size,m_s_001.jpg,left,small,large,NA,NA,NA,left,1844,true,NA,NA,NA,NA,NA
adr1gRxH,NA,NA,adr1gRxH,2020-0188,2021-09-26,14:28:51,16:08:47,NA,incomplete,false,true,NA,8,9,size,n_l_028.jpg,left,large,small,NA,NA,NA,right,812,false,NA,NA,NA,NA,NA
adr1gRxH,NA,NA,adr1gRxH,2020-0188,2021-09-26,14:28:51,16:08:47,NA,incomplete,false,true,NA,8,10,abstractness,a_1_027.jpg,left,abstract,concrete,NA,NA,NA,left,1982,true,NA,NA,NA,NA,NA
adr1gRxH,NA,NA,adr1gRxH,2020-0188,2021-09-26,14:28:51,16:08:47,NA,incomplete,false,true,NA,8,11,abstractness,c_2_017.jpg,right,abstract,concrete,NA,NA,NA,right,1479.99999999907,true,NA,NA,NA,NA,NA
adr1gRxH,NA,NA,adr1gRxH,2020-0188,2021-09-26,14:28:51,16:08:47,NA,incomplete,false,true,NA,8,12,abstractness,a_1_012.jpg,left,abstract,concrete,NA,NA,NA,left,1676,true,NA,NA,NA,NA,NA
adr1gRxH,NA,NA,adr1gRxH,2020-0188,2021-09-26,14:28:51,16:08:47,NA,incomplete,false,true,NA,8,13,abstractness,c_1_004.jpg,left,concrete,abstract,NA,NA,NA,left,1327,true,NA,NA,NA,NA,NA
adr1gRxH,NA,NA,adr1gRxH,2020-0188,2021-09-26,14:28:51,16:08:47,NA,incomplete,false,true,NA,8,14,abstractness,a_1_006.jpg,right,concrete,abstract,NA,NA,NA,right,1371.99999999907,true,NA,NA,NA,NA,NA
adr1gRxH,NA,NA,adr1gRxH,2020-0188,2021-09-26,14:28:51,16:08:47,NA,incomplete,false,true,NA,8,15,syllable,c_1_021.jpg,right,2 syllables,1 syllable,NA,NA,NA,right,1528.99999999907,true,NA,NA,NA,NA,NA
adr1gRxH,NA,NA,adr1gRxH,2020-0188,2021-09-26,14:28:51,16:08:47,NA,incomplete,false,true,NA,8,16,syllable,a_2_022.jpg,right,2 syllables,1 syllable,NA,NA,NA,left,987,false,NA,NA,NA,NA,NA
adr1gRxH,NA,NA,adr1gRxH,2020-0188,2021-09-26,14:28:51,16:08:47,NA,incomplete,false,true,NA,8,17,syllable,a_1_021.jpg,right,1 syllable,2 syllables,NA,NA,NA,left,1310,false,NA,NA,NA,NA,NA
adr1gRxH,NA,NA,adr1gRxH,2020-0188,2021-09-26,14:28:51,16:08:47,NA,incomplete,false,true,NA,8,18,syllable,c_1_015.jpg,right,2 syllables,1 syllable,NA,NA,NA,right,1450,true,NA,NA,NA,NA,NA
adr1gRxH,NA,NA,adr1gRxH,2020-0188,2021-09-26,14:28:51,16:08:47,NA,incomplete,false,true,NA,8,19,syllable,c_2_023.jpg,right,1 syllable,2 syllables,NA,NA,NA,right,1385.00000000093,true,NA,NA,NA,NA,NA
adr1gRxH,NA,NA,adr1gRxH,2020-0188,2021-09-26,14:28:51,16:08:47,NA,incomplete,false,true,NA,8,20,location,o_c_016.jpg,left,outdoor,indoor,NA,NA,NA,left,1367.00000000093,true,NA,NA,NA,NA,NA
adr1gRxH,NA,NA,adr1gRxH,2020-0188,2021-09-26,14:28:51,16:08:47,NA,incomplete,false,true,NA,8,21,location,i_s_005.jpg,right,outdoor,indoor,NA,NA,NA,right,1446,true,NA,NA,NA,NA,NA
adr1gRxH,NA,NA,adr1gRxH,2020-0188,2021-09-26,14:28:51,16:08:47,NA,incomplete,false,true,NA,8,22,location,i_s_026.jpg,left,indoor,outdoor,NA,NA,NA,left,984.999999999069,true,NA,NA,NA,NA,NA
adr1gRxH,NA,NA,adr1gRxH,2020-0188,2021-09-26,14:28:51,16:08:47,NA,incomplete,false,true,NA,8,23,location,o_s_004.jpg,right,indoor,outdoor,NA,NA,NA,right,1021,true,NA,NA,NA,NA,NA
adr1gRxH,NA,NA,adr1gRxH,2020-0188,2021-09-26,14:28:51,16:08:47,NA,incomplete,false,true,NA,8,24,location,o_c_010.jpg,left,outdoor,indoor,NA,NA,NA,left,1040,true,NA,NA,NA,NA,NA
adr1gRxH,NA,NA,adr1gRxH,2020-0188,2021-09-26,14:28:51,16:08:47,NA,incomplete,false,true,NA,8,25,building,i_c_023.jpg,left,cottage,skyscraper,NA,NA,NA,left,1501.99999999907,true,NA,NA,NA,NA,NA
adr1gRxH,NA,NA,adr1gRxH,2020-0188,2021-09-26,14:28:51,16:08:47,NA,incomplete,false,true,NA,8,26,building,i_s_016.jpg,left,skyscraper,cottage,NA,NA,NA,right,1644,false,NA,NA,NA,NA,NA
adr1gRxH,NA,NA,adr1gRxH,2020-0188,2021-09-26,14:28:51,16:08:47,NA,incomplete,false,true,NA,8,27,building,o_s_019.jpg,right,cottage,skyscraper,NA,NA,NA,right,1428,true,NA,NA,NA,NA,NA
adr1gRxH,NA,NA,adr1gRxH,2020-0188,2021-09-26,14:28:51,16:08:47,NA,incomplete,false,true,NA,8,28,building,i_c_009.jpg,right,skyscraper,cottage,NA,NA,NA,right,1226,true,NA,NA,NA,NA,NA
adr1gRxH,NA,NA,adr1gRxH,2020-0188,2021-09-26,14:28:51,16:08:47,NA,incomplete,false,true,NA,8,29,building,o_s_018.jpg,left,skyscraper,cottage,NA,NA,NA,left,975.999999999069,true,NA,NA,NA,NA,NA
adr1gRxH,NA,NA,adr1gRxH,2020-0188,2021-09-26,14:28:51,16:08:47,NA,incomplete,false,NA,true,8,0,NA,NA,left,NA,NA,i_s_016.jpg,o_s_018.jpg,within,NA,NaN,NA,right,2499,0,1,926.0000000009313
adr1gRxH,NA,NA,adr1gRxH,2020-0188,2021-09-26,14:28:51,16:08:47,NA,incomplete,false,NA,true,8,1,NA,NA,right,NA,NA,c_1_004.jpg,a_1_027.jpg,within,NA,NaN,NA,right,870,1,1,1102
adr1gRxH,NA,NA,adr1gRxH,2020-0188,2021-09-26,14:28:51,16:08:47,NA,incomplete,false,NA,true,8,2,NA,NA,left,NA,NA,m_l_004.jpg,n_s_014.jpg,between-small,NA,NaN,NA,right,2250,0,1,740
adr1gRxH,NA,NA,adr1gRxH,2020-0188,2021-09-26,14:28:51,16:08:47,NA,incomplete,false,NA,true,8,3,NA,NA,left,NA,NA,a_1_021.jpg,o_c_016.jpg,between-big,NA,NaN,NA,right,2498,0,2,1398
adr1gRxH,NA,NA,adr1gRxH,2020-0188,2021-09-26,14:28:51,16:08:47,NA,incomplete,false,NA,true,8,4,NA,NA,right,NA,NA,m_l_013.jpg,m_l_022.jpg,between-small,NA,NaN,NA,right,974,1,0,1446
adr1gRxH,NA,NA,adr1gRxH,2020-0188,2021-09-26,14:28:51,16:08:47,NA,incomplete,false,NA,true,8,5,NA,NA,right,NA,NA,c_2_017.jpg,m_s_001.jpg,between-big,NA,NaN,NA,right,1070,1,2,830
adr1gRxH,NA,NA,adr1gRxH,2020-0188,2021-09-26,14:28:51,16:08:47,NA,incomplete,false,NA,true,8,6,NA,NA,left,NA,NA,c_1_015.jpg,i_s_005.jpg,between-big,NA,NaN,NA,right,1484,0,2,1949.0000000009313
adr1gRxH,NA,NA,adr1gRxH,2020-0188,2021-09-26,14:28:51,16:08:47,NA,incomplete,false,NA,true,8,7,NA,NA,right,NA,NA,o_s_004.jpg,o_c_016.jpg,within,NA,NaN,NA,right,1126,1,1,1102
adr1gRxH,NA,NA,adr1gRxH,2020-0188,2021-09-26,14:28:51,16:08:47,NA,incomplete,false,NA,true,8,8,NA,NA,right,NA,NA,o_c_010.jpg,i_s_005.jpg,within,NA,NaN,NA,right,869.0000000009313,1,1,792.0000000009313
adr1gRxH,NA,NA,adr1gRxH,2020-0188,2021-09-26,14:28:51,16:08:47,NA,incomplete,false,NA,true,8,9,NA,NA,right,NA,NA,n_l_028.jpg,n_s_014.jpg,within,NA,NaN,NA,right,767,1,2,793
adr1gRxH,NA,NA,adr1gRxH,2020-0188,2021-09-26,14:28:51,16:08:47,NA,incomplete,false,NA,true,8,10,NA,NA,left,NA,NA,m_l_013.jpg,a_1_027.jpg,between-big,NA,NaN,NA,left,1773,1,1,973.9999999990687
adr1gRxH,NA,NA,adr1gRxH,2020-0188,2021-09-26,14:28:51,16:08:47,NA,incomplete,false,NA,true,8,11,NA,NA,right,NA,NA,i_s_026.jpg,c_2_023.jpg,between-big,NA,NaN,NA,left,1765.0000000009313,0,2,845
adr1gRxH,NA,NA,adr1gRxH,2020-0188,2021-09-26,14:28:51,16:08:47,NA,incomplete,false,NA,true,8,12,NA,NA,right,NA,NA,a_1_021.jpg,a_1_006.jpg,between-small,NA,NaN,NA,right,1005,1,1,864
adr1gRxH,NA,NA,adr1gRxH,2020-0188,2021-09-26,14:28:51,16:08:47,NA,incomplete,false,NA,true,8,13,NA,NA,left,NA,NA,i_s_026.jpg,i_c_023.jpg,between-small,NA,NaN,NA,right,935,0,1,1318
adr1gRxH,NA,NA,adr1gRxH,2020-0188,2021-09-26,14:28:51,16:08:47,NA,incomplete,false,NA,true,8,14,NA,NA,left,NA,NA,n_s_023.jpg,m_s_001.jpg,within,NA,NaN,NA,left,1884,1,1,998
adr1gRxH,NA,NA,adr1gRxH,2020-0188,2021-09-26,14:28:51,16:08:47,NA,incomplete,false,NA,true,8,15,NA,NA,right,NA,NA,c_1_015.jpg,c_1_021.jpg,within,NA,NaN,NA,right,900.9999999990687,1,1,1510
adr1gRxH,NA,NA,adr1gRxH,2020-0188,2021-09-26,14:28:51,16:08:47,NA,incomplete,false,NA,true,8,16,NA,NA,left,NA,NA,c_2_017.jpg,a_1_006.jpg,within,NA,NaN,NA,right,1908,0,1,758
adr1gRxH,NA,NA,adr1gRxH,2020-0188,2021-09-26,14:28:51,16:08:47,NA,incomplete,false,NA,true,8,17,NA,NA,right,NA,NA,c_2_023.jpg,a_2_022.jpg,within,NA,NaN,NA,right,2940,1,1,784
adr1gRxH,NA,NA,adr1gRxH,2020-0188,2021-09-26,14:28:51,16:08:47,NA,incomplete,false,NA,true,8,18,NA,NA,right,NA,NA,c_1_021.jpg,a_1_012.jpg,between-small,NA,NaN,NA,right,711,1,2,672
adr1gRxH,NA,NA,adr1gRxH,2020-0188,2021-09-26,14:28:51,16:08:47,NA,incomplete,false,NA,true,8,19,NA,NA,right,NA,NA,n_s_023.jpg,m_s_025.jpg,between-small,NA,NaN,NA,right,1178.9999999990687,1,1,937
adr1gRxH,NA,NA,adr1gRxH,2020-0188,2021-09-26,14:28:51,16:08:47,NA,incomplete,false,NA,true,8,20,NA,NA,right,NA,NA,o_s_019.jpg,o_c_010.jpg,between-small,NA,NaN,NA,left,2340,0,1,662
adr1gRxH,NA,NA,adr1gRxH,2020-0188,2021-09-26,14:28:51,16:08:47,NA,incomplete,false,NA,true,8,21,NA,NA,left,NA,NA,i_c_023.jpg,i_c_009.jpg,within,NA,NaN,NA,right,1461,0,1,829
adr1gRxH,NA,NA,adr1gRxH,2020-0188,2021-09-26,14:28:51,16:08:47,NA,incomplete,false,NA,true,8,22,NA,NA,left,NA,NA,o_s_004.jpg,i_s_016.jpg,between-small,NA,NaN,NA,right,1013.9999999990687,0,1,708.9999999990687
adr1gRxH,NA,NA,adr1gRxH,2020-0188,2021-09-26,14:28:51,16:08:47,NA,incomplete,false,NA,true,8,23,NA,NA,left,NA,NA,m_l_018.jpg,m_l_004.jpg,within,NA,NaN,NA,right,703,0,1,1174
adr1gRxH,NA,NA,adr1gRxH,2020-0188,2021-09-26,14:28:51,16:08:47,NA,incomplete,false,NA,true,8,24,NA,NA,right,NA,NA,a_1_012.jpg,n_l_028.jpg,between-big,NA,NaN,NA,right,1325,1,1,1318
adr1gRxH,NA,NA,adr1gRxH,2020-0188,2021-09-26,14:28:51,16:08:47,NA,incomplete,false,NA,true,8,25,NA,NA,left,NA,NA,m_s_018.jpg,m_l_022.jpg,within,NA,NaN,NA,right,695,0,0,1645.0000000009313
adr1gRxH,NA,NA,adr1gRxH,2020-0188,2021-09-26,14:28:51,16:08:47,NA,incomplete,false,NA,true,8,26,NA,NA,right,NA,NA,a_2_022.jpg,c_1_004.jpg,between-small,NA,NaN,NA,right,760,1,1,2516
adr1gRxH,NA,NA,adr1gRxH,2020-0188,2021-09-26,14:28:51,16:08:47,NA,incomplete,false,true,NA,9,0,size,m_s_006.jpg,right,large,small,NA,NA,NA,right,1765,true,NA,NA,NA,NA,NA
adr1gRxH,NA,NA,adr1gRxH,2020-0188,2021-09-26,14:28:51,16:08:47,NA,incomplete,false,true,NA,9,1,size,n_s_003.jpg,left,small,large,NA,NA,NA,left,1676,true,NA,NA,NA,NA,NA
adr1gRxH,NA,NA,adr1gRxH,2020-0188,2021-09-26,14:28:51,16:08:47,NA,incomplete,false,true,NA,9,2,size,n_l_013.jpg,right,small,large,NA,NA,NA,right,1133.00000000093,true,NA,NA,NA,NA,NA
adr1gRxH,NA,NA,adr1gRxH,2020-0188,2021-09-26,14:28:51,16:08:47,NA,incomplete,false,true,NA,9,3,size,m_l_021.jpg,right,small,large,NA,NA,NA,right,2083,true,NA,NA,NA,NA,NA
adr1gRxH,NA,NA,adr1gRxH,2020-0188,2021-09-26,14:28:51,16:08:47,NA,incomplete,false,true,NA,9,4,size,m_s_021.jpg,right,large,small,NA,NA,NA,right,2077,true,NA,NA,NA,NA,NA
adr1gRxH,NA,NA,adr1gRxH,2020-0188,2021-09-26,14:28:51,16:08:47,NA,incomplete,false,true,NA,9,5,origin,n_s_025.jpg,left,natural,manmade,NA,NA,NA,left,1770,true,NA,NA,NA,NA,NA
adr1gRxH,NA,NA,adr1gRxH,2020-0188,2021-09-26,14:28:51,16:08:47,NA,incomplete,false,true,NA,9,6,origin,n_l_026.jpg,right,manmade,natural,NA,NA,NA,right,1682,true,NA,NA,NA,NA,NA
adr1gRxH,NA,NA,adr1gRxH,2020-0188,2021-09-26,14:28:51,16:08:47,NA,incomplete,false,true,NA,9,7,origin,n_l_014.jpg,left,natural,manmade,NA,NA,NA,left,1228,true,NA,NA,NA,NA,NA
adr1gRxH,NA,NA,adr1gRxH,2020-0188,2021-09-26,14:28:51,16:08:47,NA,incomplete,false,true,NA,9,8,origin,m_s_026.jpg,right,natural,manmade,NA,NA,NA,right,2338.99999999907,true,NA,NA,NA,NA,NA
adr1gRxH,NA,NA,adr1gRxH,2020-0188,2021-09-26,14:28:51,16:08:47,NA,incomplete,false,true,NA,9,9,origin,m_l_019.jpg,left,manmade,natural,NA,NA,NA,left,1662,true,NA,NA,NA,NA,NA
adr1gRxH,NA,NA,adr1gRxH,2020-0188,2021-09-26,14:28:51,16:08:47,NA,incomplete,false,true,NA,9,10,building,o_c_026.jpg,left,cottage,skyscraper,NA,NA,NA,left,1462,true,NA,NA,NA,NA,NA
adr1gRxH,NA,NA,adr1gRxH,2020-0188,2021-09-26,14:28:51,16:08:47,NA,incomplete,false,true,NA,9,11,building,o_s_001.jpg,right,cottage,skyscraper,NA,NA,NA,right,1046,true,NA,NA,NA,NA,NA
adr1gRxH,NA,NA,adr1gRxH,2020-0188,2021-09-26,14:28:51,16:08:47,NA,incomplete,false,true,NA,9,12,building,i_s_022.jpg,right,cottage,skyscraper,NA,NA,NA,right,1509,true,NA,NA,NA,NA,NA
adr1gRxH,NA,NA,adr1gRxH,2020-0188,2021-09-26,14:28:51,16:08:47,NA,incomplete,false,true,NA,9,13,building,o_c_004.jpg,right,skyscraper,cottage,NA,NA,NA,right,653,true,NA,NA,NA,NA,NA
adr1gRxH,NA,NA,adr1gRxH,2020-0188,2021-09-26,14:28:51,16:08:47,NA,incomplete,false,true,NA,9,14,building,o_s_021.jpg,right,cottage,skyscraper,NA,NA,NA,right,1003,true,NA,NA,NA,NA,NA
adr1gRxH,NA,NA,adr1gRxH,2020-0188,2021-09-26,14:28:51,16:08:47,NA,incomplete,false,true,NA,9,15,location,o_s_011.jpg,left,outdoor,indoor,NA,NA,NA,left,1366,true,NA,NA,NA,NA,NA
adr1gRxH,NA,NA,adr1gRxH,2020-0188,2021-09-26,14:28:51,16:08:47,NA,incomplete,false,true,NA,9,16,location,i_s_010.jpg,right,outdoor,indoor,NA,NA,NA,right,1459,true,NA,NA,NA,NA,NA
adr1gRxH,NA,NA,adr1gRxH,2020-0188,2021-09-26,14:28:51,16:08:47,NA,incomplete,false,true,NA,9,17,location,o_c_006.jpg,right,indoor,outdoor,NA,NA,NA,right,1140.99999999907,true,NA,NA,NA,NA,NA
adr1gRxH,NA,NA,adr1gRxH,2020-0188,2021-09-26,14:28:51,16:08:47,NA,incomplete,false,true,NA,9,18,location,o_c_017.jpg,right,indoor,outdoor,NA,NA,NA,right,1063,true,NA,NA,NA,NA,NA
adr1gRxH,NA,NA,adr1gRxH,2020-0188,2021-09-26,14:28:51,16:08:47,NA,incomplete,false,true,NA,9,19,location,i_c_010.jpg,left,indoor,outdoor,NA,NA,NA,left,1087,true,NA,NA,NA,NA,NA
adr1gRxH,NA,NA,adr1gRxH,2020-0188,2021-09-26,14:28:51,16:08:47,NA,incomplete,false,true,NA,9,20,syllable,c_1_018.jpg,right,2 syllables,1 syllable,NA,NA,NA,right,1282,true,NA,NA,NA,NA,NA
adr1gRxH,NA,NA,adr1gRxH,2020-0188,2021-09-26,14:28:51,16:08:47,NA,incomplete,false,true,NA,9,21,syllable,a_2_002.jpg,right,2 syllables,1 syllable,NA,NA,NA,left,1048,false,NA,NA,NA,NA,NA
adr1gRxH,NA,NA,adr1gRxH,2020-0188,2021-09-26,14:28:51,16:08:47,NA,incomplete,false,true,NA,9,22,syllable,a_2_024.jpg,right,1 syllable,2 syllables,NA,NA,NA,right,1665,true,NA,NA,NA,NA,NA
adr1gRxH,NA,NA,adr1gRxH,2020-0188,2021-09-26,14:28:51,16:08:47,NA,incomplete,false,true,NA,9,23,syllable,a_2_018.jpg,right,1 syllable,2 syllables,NA,NA,NA,right,1096,true,NA,NA,NA,NA,NA
adr1gRxH,NA,NA,adr1gRxH,2020-0188,2021-09-26,14:28:51,16:08:47,NA,incomplete,false,true,NA,9,24,syllable,a_2_001.jpg,right,1 syllable,2 syllables,NA,NA,NA,right,1157,true,NA,NA,NA,NA,NA
adr1gRxH,NA,NA,adr1gRxH,2020-0188,2021-09-26,14:28:51,16:08:47,NA,incomplete,false,true,NA,9,25,abstractness,c_2_008.jpg,right,abstract,concrete,NA,NA,NA,right,1722,true,NA,NA,NA,NA,NA
adr1gRxH,NA,NA,adr1gRxH,2020-0188,2021-09-26,14:28:51,16:08:47,NA,incomplete,false,true,NA,9,26,abstractness,a_2_010.jpg,left,abstract,concrete,NA,NA,NA,right,1727,false,NA,NA,NA,NA,NA
adr1gRxH,NA,NA,adr1gRxH,2020-0188,2021-09-26,14:28:51,16:08:47,NA,incomplete,false,true,NA,9,27,abstractness,a_1_001.jpg,right,concrete,abstract,NA,NA,NA,right,1158,true,NA,NA,NA,NA,NA
adr1gRxH,NA,NA,adr1gRxH,2020-0188,2021-09-26,14:28:51,16:08:47,NA,incomplete,false,true,NA,9,28,abstractness,a_2_009.jpg,left,abstract,concrete,NA,NA,NA,left,1954,true,NA,NA,NA,NA,NA
adr1gRxH,NA,NA,adr1gRxH,2020-0188,2021-09-26,14:28:51,16:08:47,NA,incomplete,false,true,NA,9,29,abstractness,a_2_028.jpg,right,concrete,abstract,NA,NA,NA,right,1281,true,NA,NA,NA,NA,NA
adr1gRxH,NA,NA,adr1gRxH,2020-0188,2021-09-26,14:28:51,16:08:47,NA,incomplete,false,NA,true,9,0,NA,NA,right,NA,NA,o_c_017.jpg,o_s_011.jpg,within,NA,NaN,NA,right,2644,1,1,1117
adr1gRxH,NA,NA,adr1gRxH,2020-0188,2021-09-26,14:28:51,16:08:47,NA,incomplete,false,NA,true,9,1,NA,NA,right,NA,NA,o_c_004.jpg,o_c_026.jpg,within,NA,NaN,NA,right,2291,1,1,687
adr1gRxH,NA,NA,adr1gRxH,2020-0188,2021-09-26,14:28:51,16:08:47,NA,incomplete,false,NA,true,9,2,NA,NA,right,NA,NA,o_c_006.jpg,o_s_021.jpg,between-small,NA,NaN,NA,right,1133,1,1,1320
adr1gRxH,NA,NA,adr1gRxH,2020-0188,2021-09-26,14:28:51,16:08:47,NA,incomplete,false,NA,true,9,3,NA,NA,left,NA,NA,o_c_006.jpg,c_1_018.jpg,between-big,NA,NaN,NA,left,1690,1,2,950
