workerId,hitId,assignmentId,subject,studyid,exp_date,exp_start,exp_end,time_start,time_end,practice,encoding,memory,block,trial,event,stim,answer,label_left,label_right,left_image,right_image,condition,response,response_time,response_acc,order_response,order_response_time,order_acc,distance_response,distance_response_time
avjhouki,NA,NA,avjhouki,2020-0188,2021-10-04,12:38:02,21:51:06,NA,incomplete,true,true,NA,0,0,building,o_c_026.jpg,right,skyscraper,cottage,NA,NA,NA,right,2578.09999999404,true,NA,NA,NA,NA,NA
avjhouki,NA,NA,avjhouki,2020-0188,2021-10-04,12:38:02,21:51:06,NA,incomplete,true,true,NA,0,1,building,o_s_022.jpg,left,skyscraper,cottage,NA,NA,NA,left,1202.20000000298,true,NA,NA,NA,NA,NA
avjhouki,NA,NA,avjhouki,2020-0188,2021-10-04,12:38:02,21:51:06,NA,incomplete,true,true,NA,0,2,building,o_c_021.jpg,right,skyscraper,cottage,NA,NA,NA,right,1436.5,true,NA,NA,NA,NA,NA
avjhouki,NA,NA,avjhouki,2020-0188,2021-10-04,12:38:02,21:51:06,NA,incomplete,true,true,NA,0,3,building,i_s_009.jpg,right,cottage,skyscraper,NA,NA,NA,right,1523.39999999851,true,NA,NA,NA,NA,NA
avjhouki,NA,NA,avjhouki,2020-0188,2021-10-04,12:38:02,21:51:06,NA,incomplete,true,true,NA,0,4,building,i_s_028.jpg,left,skyscraper,cottage,NA,NA,NA,left,1476.19999999553,true,NA,NA,NA,NA,NA
avjhouki,NA,NA,avjhouki,2020-0188,2021-10-04,12:38:02,21:51:06,NA,incomplete,true,true,NA,0,5,location,i_s_019.jpg,left,indoor,outdoor,NA,NA,NA,left,2050.29999999702,true,NA,NA,NA,NA,NA
avjhouki,NA,NA,avjhouki,2020-0188,2021-10-04,12:38:02,21:51:06,NA,incomplete,true,true,NA,0,6,location,o_c_028.jpg,right,indoor,outdoor,NA,NA,NA,right,1945.59999999404,true,NA,NA,NA,NA,NA
avjhouki,NA,NA,avjhouki,2020-0188,2021-10-04,12:38:02,21:51:06,NA,incomplete,true,true,NA,0,7,location,i_c_013.jpg,left,indoor,outdoor,NA,NA,NA,left,1048.89999999851,true,NA,NA,NA,NA,NA
avjhouki,NA,NA,avjhouki,2020-0188,2021-10-04,12:38:02,21:51:06,NA,incomplete,true,true,NA,0,8,location,o_s_018.jpg,left,outdoor,indoor,NA,NA,NA,left,1487.5,true,NA,NA,NA,NA,NA
avjhouki,NA,NA,avjhouki,2020-0188,2021-10-04,12:38:02,21:51:06,NA,incomplete,true,true,NA,0,9,location,o_s_016.jpg,right,indoor,outdoor,NA,NA,NA,right,1122.60000000149,true,NA,NA,NA,NA,NA
avjhouki,NA,NA,avjhouki,2020-0188,2021-10-04,12:38:02,21:51:06,NA,incomplete,true,true,NA,0,10,size,n_s_018.jpg,left,small,large,NA,NA,NA,left,1348.19999999553,true,NA,NA,NA,NA,NA
avjhouki,NA,NA,avjhouki,2020-0188,2021-10-04,12:38:02,21:51:06,NA,incomplete,true,true,NA,0,11,size,n_s_027.jpg,left,small,large,NA,NA,NA,left,1266.20000000298,true,NA,NA,NA,NA,NA
avjhouki,NA,NA,avjhouki,2020-0188,2021-10-04,12:38:02,21:51:06,NA,incomplete,true,true,NA,0,12,size,m_s_018.jpg,right,large,small,NA,NA,NA,right,1216.39999999851,true,NA,NA,NA,NA,NA
avjhouki,NA,NA,avjhouki,2020-0188,2021-10-04,12:38:02,21:51:06,NA,incomplete,true,true,NA,0,13,size,m_s_017.jpg,right,large,small,NA,NA,NA,right,1166.39999999851,true,NA,NA,NA,NA,NA
avjhouki,NA,NA,avjhouki,2020-0188,2021-10-04,12:38:02,21:51:06,NA,incomplete,true,true,NA,0,14,size,n_s_021.jpg,right,large,small,NA,NA,NA,right,906.60000000149,true,NA,NA,NA,NA,NA
avjhouki,NA,NA,avjhouki,2020-0188,2021-10-04,12:38:02,21:51:06,NA,incomplete,true,true,NA,0,15,origin,n_l_019.jpg,right,manmade,natural,NA,NA,NA,right,1517.39999999851,true,NA,NA,NA,NA,NA
avjhouki,NA,NA,avjhouki,2020-0188,2021-10-04,12:38:02,21:51:06,NA,incomplete,true,true,NA,0,16,origin,n_l_028.jpg,left,natural,manmade,NA,NA,NA,left,1242.29999999702,true,NA,NA,NA,NA,NA
avjhouki,NA,NA,avjhouki,2020-0188,2021-10-04,12:38:02,21:51:06,NA,incomplete,true,true,NA,0,17,origin,m_l_002.jpg,left,manmade,natural,NA,NA,NA,left,1269.89999999851,true,NA,NA,NA,NA,NA
avjhouki,NA,NA,avjhouki,2020-0188,2021-10-04,12:38:02,21:51:06,NA,incomplete,true,true,NA,0,18,origin,m_l_015.jpg,right,natural,manmade,NA,NA,NA,right,1456.30000000447,true,NA,NA,NA,NA,NA
avjhouki,NA,NA,avjhouki,2020-0188,2021-10-04,12:38:02,21:51:06,NA,incomplete,true,true,NA,0,19,origin,m_l_007.jpg,left,manmade,natural,NA,NA,NA,left,1579.19999999553,true,NA,NA,NA,NA,NA
avjhouki,NA,NA,avjhouki,2020-0188,2021-10-04,12:38:02,21:51:06,NA,incomplete,true,true,NA,0,20,abstractness,c_2_015.jpg,right,abstract,concrete,NA,NA,NA,right,1723.70000000298,true,NA,NA,NA,NA,NA
avjhouki,NA,NA,avjhouki,2020-0188,2021-10-04,12:38:02,21:51:06,NA,incomplete,true,true,NA,0,21,abstractness,a_2_026.jpg,left,abstract,concrete,NA,NA,NA,left,2186,true,NA,NA,NA,NA,NA
avjhouki,NA,NA,avjhouki,2020-0188,2021-10-04,12:38:02,21:51:06,NA,incomplete,true,true,NA,0,22,abstractness,a_2_019.jpg,left,abstract,concrete,NA,NA,NA,left,1548,true,NA,NA,NA,NA,NA
avjhouki,NA,NA,avjhouki,2020-0188,2021-10-04,12:38:02,21:51:06,NA,incomplete,true,true,NA,0,23,abstractness,c_1_005.jpg,left,concrete,abstract,NA,NA,NA,left,1481.10000000149,true,NA,NA,NA,NA,NA
avjhouki,NA,NA,avjhouki,2020-0188,2021-10-04,12:38:02,21:51:06,NA,incomplete,true,true,NA,0,24,abstractness,a_2_011.jpg,left,abstract,concrete,NA,NA,NA,left,1492.29999999702,true,NA,NA,NA,NA,NA
avjhouki,NA,NA,avjhouki,2020-0188,2021-10-04,12:38:02,21:51:06,NA,incomplete,true,true,NA,0,25,syllable,c_1_027.jpg,right,1 syllable,2 syllables,NA,NA,NA,left,2257.69999999553,false,NA,NA,NA,NA,NA
avjhouki,NA,NA,avjhouki,2020-0188,2021-10-04,12:38:02,21:51:06,NA,incomplete,true,true,NA,0,26,syllable,c_1_004.jpg,right,2 syllables,1 syllable,NA,NA,NA,left,2351.39999999851,false,NA,NA,NA,NA,NA
avjhouki,NA,NA,avjhouki,2020-0188,2021-10-04,12:38:02,21:51:06,NA,incomplete,true,true,NA,0,27,syllable,c_2_007.jpg,right,1 syllable,2 syllables,NA,NA,NA,right,1794.5,true,NA,NA,NA,NA,NA
avjhouki,NA,NA,avjhouki,2020-0188,2021-10-04,12:38:02,21:51:06,NA,incomplete,true,true,NA,0,28,syllable,a_1_016.jpg,right,1 syllable,2 syllables,NA,NA,NA,left,2176.80000000447,false,NA,NA,NA,NA,NA
avjhouki,NA,NA,avjhouki,2020-0188,2021-10-04,12:38:02,21:51:06,NA,incomplete,true,true,NA,0,29,syllable,a_2_003.jpg,right,2 syllables,1 syllable,NA,NA,NA,left,2132.40000000596,false,NA,NA,NA,NA,NA
avjhouki,NA,NA,avjhouki,2020-0188,2021-10-04,12:38:02,21:51:06,NA,incomplete,true,NA,true,0,0,NA,NA,right,NA,NA,m_l_007.jpg,n_l_028.jpg,within,NA,NaN,NA,right,4550.0999999940395,1,2,9254.20000000298
avjhouki,NA,NA,avjhouki,2020-0188,2021-10-04,12:38:02,21:51:06,NA,incomplete,true,NA,true,0,1,NA,NA,left,NA,NA,m_l_007.jpg,a_2_019.jpg,between-big,NA,NaN,NA,left,4703.70000000298,1,2,4687.89999999851
avjhouki,NA,NA,avjhouki,2020-0188,2021-10-04,12:38:02,21:51:06,NA,incomplete,true,NA,true,0,2,NA,NA,left,NA,NA,c_1_027.jpg,a_1_016.jpg,within,NA,NaN,NA,left,2759.39999999851,1,0,5169.89999999851
avjhouki,NA,NA,avjhouki,2020-0188,2021-10-04,12:38:02,21:51:06,NA,incomplete,true,NA,true,0,3,NA,NA,right,NA,NA,m_s_018.jpg,o_s_016.jpg,between-big,NA,NaN,NA,right,2670.10000000149,1,2,1608.3999999985099
avjhouki,NA,NA,avjhouki,2020-0188,2021-10-04,12:38:02,21:51:06,NA,incomplete,true,NA,true,0,4,NA,NA,left,NA,NA,m_l_015.jpg,a_2_026.jpg,between-big,NA,NaN,NA,left,5030.79999999702,1,2,2677.7999999970198
avjhouki,NA,NA,avjhouki,2020-0188,2021-10-04,12:38:02,21:51:06,NA,incomplete,true,NA,true,0,5,NA,NA,right,NA,NA,n_l_019.jpg,m_s_018.jpg,between-small,NA,NaN,NA,right,4703.5,1,1,3316
avjhouki,NA,NA,avjhouki,2020-0188,2021-10-04,12:38:02,21:51:06,NA,incomplete,true,NA,true,0,6,NA,NA,right,NA,NA,a_2_011.jpg,a_2_026.jpg,within,NA,NaN,NA,left,2833.1999999955297,0,0,1984
avjhouki,NA,NA,avjhouki,2020-0188,2021-10-04,12:38:02,21:51:06,NA,incomplete,true,NA,true,0,7,NA,NA,right,NA,NA,c_2_007.jpg,a_2_011.jpg,between-small,NA,NaN,NA,left,2710.2000000029802,0,1,2906.6999999955297
avjhouki,NA,NA,avjhouki,2020-0188,2021-10-04,12:38:02,21:51:06,NA,incomplete,true,NA,true,0,8,NA,NA,right,NA,NA,i_s_009.jpg,o_c_026.jpg,within,NA,NaN,NA,right,2742.5,1,1,4858.5
avjhouki,NA,NA,avjhouki,2020-0188,2021-10-04,12:38:02,21:51:06,NA,incomplete,true,NA,true,0,9,NA,NA,left,NA,NA,n_s_027.jpg,n_s_021.jpg,within,NA,NaN,NA,left,2735.2999999970198,1,0,2498.7000000029802
avjhouki,NA,NA,avjhouki,2020-0188,2021-10-04,12:38:02,21:51:06,NA,incomplete,true,NA,true,0,10,NA,NA,left,NA,NA,c_2_015.jpg,c_1_005.jpg,within,NA,NaN,NA,left,4042,1,1,1740.6000000014901
avjhouki,NA,NA,avjhouki,2020-0188,2021-10-04,12:38:02,21:51:06,NA,incomplete,true,NA,true,0,11,NA,NA,right,NA,NA,i_c_013.jpg,i_s_028.jpg,between-small,NA,NaN,NA,left,2988.2999999970198,0,1,5559.89999999851
avjhouki,NA,NA,avjhouki,2020-0188,2021-10-04,12:38:02,21:51:06,NA,incomplete,true,NA,true,0,12,NA,NA,left,NA,NA,n_s_018.jpg,m_s_017.jpg,within,NA,NaN,NA,right,4884.70000000298,0,1,1909.5
avjhouki,NA,NA,avjhouki,2020-0188,2021-10-04,12:38:02,21:51:06,NA,incomplete,true,NA,true,0,13,NA,NA,right,NA,NA,n_s_018.jpg,i_c_013.jpg,between-big,NA,NaN,NA,right,2433.39999999851,1,1,18442.70000000298
avjhouki,NA,NA,avjhouki,2020-0188,2021-10-04,12:38:02,21:51:06,NA,incomplete,true,NA,true,0,14,NA,NA,right,NA,NA,a_2_003.jpg,c_1_004.jpg,within,NA,NaN,NA,left,11794.19999999553,0,1,3690.3000000044703
avjhouki,NA,NA,avjhouki,2020-0188,2021-10-04,12:38:02,21:51:06,NA,incomplete,true,NA,true,0,15,NA,NA,right,NA,NA,o_c_028.jpg,i_s_009.jpg,between-small,NA,NaN,NA,right,12889.20000000298,1,1,2955.7999999970198
avjhouki,NA,NA,avjhouki,2020-0188,2021-10-04,12:38:02,21:51:06,NA,incomplete,true,NA,true,0,16,NA,NA,right,NA,NA,c_1_027.jpg,a_2_019.jpg,between-small,NA,NaN,NA,right,4251.5,1,1,3020.89999999851
avjhouki,NA,NA,avjhouki,2020-0188,2021-10-04,12:38:02,21:51:06,NA,incomplete,true,NA,true,0,17,NA,NA,left,NA,NA,o_c_021.jpg,i_s_019.jpg,between-small,NA,NaN,NA,right,2899.2000000029802,0,2,4450
avjhouki,NA,NA,avjhouki,2020-0188,2021-10-04,12:38:02,21:51:06,NA,incomplete,true,NA,true,0,18,NA,NA,left,NA,NA,i_s_019.jpg,o_s_018.jpg,within,NA,NaN,NA,right,3535.60000000149,0,2,7055.70000000298
avjhouki,NA,NA,avjhouki,2020-0188,2021-10-04,12:38:02,21:51:06,NA,incomplete,true,NA,true,0,19,NA,NA,left,NA,NA,o_c_028.jpg,o_s_016.jpg,within,NA,NaN,NA,right,4589.10000000149,0,1,2538
avjhouki,NA,NA,avjhouki,2020-0188,2021-10-04,12:38:02,21:51:06,NA,incomplete,true,NA,true,0,20,NA,NA,right,NA,NA,n_s_027.jpg,o_s_018.jpg,between-big,NA,NaN,NA,left,3339.3000000044703,0,2,2636.39999999851
avjhouki,NA,NA,avjhouki,2020-0188,2021-10-04,12:38:02,21:51:06,NA,incomplete,true,NA,true,0,21,NA,NA,right,NA,NA,m_l_015.jpg,n_l_019.jpg,within,NA,NaN,NA,right,4091.2000000029802,1,1,3764.60000000149
avjhouki,NA,NA,avjhouki,2020-0188,2021-10-04,12:38:02,21:51:06,NA,incomplete,true,NA,true,0,22,NA,NA,right,NA,NA,c_2_015.jpg,m_l_002.jpg,between-big,NA,NaN,NA,right,2840.5999999940395,1,2,6190.60000000149
avjhouki,NA,NA,avjhouki,2020-0188,2021-10-04,12:38:02,21:51:06,NA,incomplete,true,NA,true,0,23,NA,NA,right,NA,NA,c_1_004.jpg,c_1_005.jpg,between-small,NA,NaN,NA,right,2106.60000000149,1,2,9933.40000000596
avjhouki,NA,NA,avjhouki,2020-0188,2021-10-04,12:38:02,21:51:06,NA,incomplete,true,NA,true,0,24,NA,NA,left,NA,NA,m_s_017.jpg,n_l_028.jpg,between-small,NA,NaN,NA,left,56955.19999999553,1,0,4142.30000000447
avjhouki,NA,NA,avjhouki,2020-0188,2021-10-04,12:38:02,21:51:06,NA,incomplete,true,NA,true,0,25,NA,NA,right,NA,NA,i_s_028.jpg,o_s_022.jpg,within,NA,NaN,NA,left,57459.5,0,1,3845.60000000149
avjhouki,NA,NA,avjhouki,2020-0188,2021-10-04,12:38:02,21:51:06,NA,incomplete,true,NA,true,0,26,NA,NA,left,NA,NA,n_s_021.jpg,m_l_002.jpg,between-small,NA,NaN,NA,left,4975.39999999851,1,1,1561
avjhouki,NA,NA,avjhouki,2020-0188,2021-10-04,12:38:02,21:51:06,NA,incomplete,false,true,NA,1,0,abstractness,c_1_016.jpg,left,concrete,abstract,NA,NA,NA,left,2225.5,true,NA,NA,NA,NA,NA
avjhouki,NA,NA,avjhouki,2020-0188,2021-10-04,12:38:02,21:51:06,NA,incomplete,false,true,NA,1,1,abstractness,c_2_012.jpg,left,concrete,abstract,NA,NA,NA,left,1187.39999999851,true,NA,NA,NA,NA,NA
avjhouki,NA,NA,avjhouki,2020-0188,2021-10-04,12:38:02,21:51:06,NA,incomplete,false,true,NA,1,2,abstractness,a_1_021.jpg,left,abstract,concrete,NA,NA,NA,left,2512.79999999702,true,NA,NA,NA,NA,NA
avjhouki,NA,NA,avjhouki,2020-0188,2021-10-04,12:38:02,21:51:06,NA,incomplete,false,true,NA,1,3,abstractness,a_2_004.jpg,right,concrete,abstract,NA,NA,NA,right,2397.89999999851,true,NA,NA,NA,NA,NA
avjhouki,NA,NA,avjhouki,2020-0188,2021-10-04,12:38:02,21:51:06,NA,incomplete,false,true,NA,1,4,abstractness,a_2_010.jpg,left,abstract,concrete,NA,NA,NA,left,1569.10000000149,true,NA,NA,NA,NA,NA
avjhouki,NA,NA,avjhouki,2020-0188,2021-10-04,12:38:02,21:51:06,NA,incomplete,false,true,NA,1,5,syllable,c_2_009.jpg,right,1 syllable,2 syllables,NA,NA,NA,right,2326.70000000298,true,NA,NA,NA,NA,NA
avjhouki,NA,NA,avjhouki,2020-0188,2021-10-04,12:38:02,21:51:06,NA,incomplete,false,true,NA,1,6,syllable,a_1_002.jpg,right,1 syllable,2 syllables,NA,NA,NA,left,1837.69999999553,false,NA,NA,NA,NA,NA
avjhouki,NA,NA,avjhouki,2020-0188,2021-10-04,12:38:02,21:51:06,NA,incomplete,false,true,NA,1,7,syllable,c_2_013.jpg,right,2 syllables,1 syllable,NA,NA,NA,left,1684.10000000149,false,NA,NA,NA,NA,NA
avjhouki,NA,NA,avjhouki,2020-0188,2021-10-04,12:38:02,21:51:06,NA,incomplete,false,true,NA,1,8,syllable,c_2_006.jpg,right,1 syllable,2 syllables,NA,NA,NA,right,1809.09999999404,true,NA,NA,NA,NA,NA
avjhouki,NA,NA,avjhouki,2020-0188,2021-10-04,12:38:02,21:51:06,NA,incomplete,false,true,NA,1,9,syllable,c_2_017.jpg,right,1 syllable,2 syllables,NA,NA,NA,right,1723.69999999553,true,NA,NA,NA,NA,NA
avjhouki,NA,NA,avjhouki,2020-0188,2021-10-04,12:38:02,21:51:06,NA,incomplete,false,true,NA,1,10,origin,m_l_008.jpg,left,manmade,natural,NA,NA,NA,left,3154.5,true,NA,NA,NA,NA,NA
avjhouki,NA,NA,avjhouki,2020-0188,2021-10-04,12:38:02,21:51:06,NA,incomplete,false,true,NA,1,11,origin,m_s_005.jpg,left,manmade,natural,NA,NA,NA,left,2746.10000000149,true,NA,NA,NA,NA,NA
avjhouki,NA,NA,avjhouki,2020-0188,2021-10-04,12:38:02,21:51:06,NA,incomplete,false,true,NA,1,12,origin,m_s_009.jpg,left,manmade,natural,NA,NA,NA,left,1042.10000000149,true,NA,NA,NA,NA,NA
avjhouki,NA,NA,avjhouki,2020-0188,2021-10-04,12:38:02,21:51:06,NA,incomplete,false,true,NA,1,13,origin,n_l_022.jpg,right,manmade,natural,NA,NA,NA,right,1169.19999999553,true,NA,NA,NA,NA,NA
avjhouki,NA,NA,avjhouki,2020-0188,2021-10-04,12:38:02,21:51:06,NA,incomplete,false,true,NA,1,14,origin,n_l_027.jpg,left,natural,manmade,NA,NA,NA,left,1483.39999999851,true,NA,NA,NA,NA,NA
avjhouki,NA,NA,avjhouki,2020-0188,2021-10-04,12:38:02,21:51:06,NA,incomplete,false,true,NA,1,15,size,n_s_007.jpg,right,large,small,NA,NA,NA,right,2074.69999999553,true,NA,NA,NA,NA,NA
avjhouki,NA,NA,avjhouki,2020-0188,2021-10-04,12:38:02,21:51:06,NA,incomplete,false,true,NA,1,16,size,m_s_027.jpg,right,large,small,NA,NA,NA,right,1449.39999999851,true,NA,NA,NA,NA,NA
avjhouki,NA,NA,avjhouki,2020-0188,2021-10-04,12:38:02,21:51:06,NA,incomplete,false,true,NA,1,17,size,n_l_017.jpg,left,large,small,NA,NA,NA,left,1280.89999999851,true,NA,NA,NA,NA,NA
avjhouki,NA,NA,avjhouki,2020-0188,2021-10-04,12:38:02,21:51:06,NA,incomplete,false,true,NA,1,18,size,n_s_004.jpg,right,large,small,NA,NA,NA,right,1525,true,NA,NA,NA,NA,NA
avjhouki,NA,NA,avjhouki,2020-0188,2021-10-04,12:38:02,21:51:06,NA,incomplete,false,true,NA,1,19,size,m_s_011.jpg,right,large,small,NA,NA,NA,right,1309.10000000149,true,NA,NA,NA,NA,NA
avjhouki,NA,NA,avjhouki,2020-0188,2021-10-04,12:38:02,21:51:06,NA,incomplete,false,true,NA,1,20,location,o_c_018.jpg,left,outdoor,indoor,NA,NA,NA,left,1922.10000000149,true,NA,NA,NA,NA,NA
avjhouki,NA,NA,avjhouki,2020-0188,2021-10-04,12:38:02,21:51:06,NA,incomplete,false,true,NA,1,21,location,i_c_015.jpg,right,outdoor,indoor,NA,NA,NA,right,1456.5,true,NA,NA,NA,NA,NA
avjhouki,NA,NA,avjhouki,2020-0188,2021-10-04,12:38:02,21:51:06,NA,incomplete,false,true,NA,1,22,location,o_s_027.jpg,right,indoor,outdoor,NA,NA,NA,right,1505.5,true,NA,NA,NA,NA,NA
avjhouki,NA,NA,avjhouki,2020-0188,2021-10-04,12:38:02,21:51:06,NA,incomplete,false,true,NA,1,23,location,i_c_001.jpg,left,indoor,outdoor,NA,NA,NA,left,968.80000000447,true,NA,NA,NA,NA,NA
avjhouki,NA,NA,avjhouki,2020-0188,2021-10-04,12:38:02,21:51:06,NA,incomplete,false,true,NA,1,24,location,o_s_020.jpg,right,indoor,outdoor,NA,NA,NA,right,1236,true,NA,NA,NA,NA,NA
avjhouki,NA,NA,avjhouki,2020-0188,2021-10-04,12:38:02,21:51:06,NA,incomplete,false,true,NA,1,25,building,i_s_027.jpg,right,cottage,skyscraper,NA,NA,NA,right,2078,true,NA,NA,NA,NA,NA
avjhouki,NA,NA,avjhouki,2020-0188,2021-10-04,12:38:02,21:51:06,NA,incomplete,false,true,NA,1,26,building,o_c_008.jpg,right,skyscraper,cottage,NA,NA,NA,right,1451.69999999553,true,NA,NA,NA,NA,NA
avjhouki,NA,NA,avjhouki,2020-0188,2021-10-04,12:38:02,21:51:06,NA,incomplete,false,true,NA,1,27,building,o_c_027.jpg,right,skyscraper,cottage,NA,NA,NA,right,1543.20000000298,true,NA,NA,NA,NA,NA
avjhouki,NA,NA,avjhouki,2020-0188,2021-10-04,12:38:02,21:51:06,NA,incomplete,false,true,NA,1,28,building,o_s_008.jpg,left,skyscraper,cottage,NA,NA,NA,left,1567.70000000298,true,NA,NA,NA,NA,NA
avjhouki,NA,NA,avjhouki,2020-0188,2021-10-04,12:38:02,21:51:06,NA,incomplete,false,true,NA,1,29,building,i_s_022.jpg,right,cottage,skyscraper,NA,NA,NA,right,1892.29999999702,true,NA,NA,NA,NA,NA
avjhouki,NA,NA,avjhouki,2020-0188,2021-10-04,12:38:02,21:51:06,NA,incomplete,false,NA,true,1,0,NA,NA,right,NA,NA,i_s_022.jpg,o_c_008.jpg,within,NA,NaN,NA,right,4385.20000000298,1,3,3812.10000000149
avjhouki,NA,NA,avjhouki,2020-0188,2021-10-04,12:38:02,21:51:06,NA,incomplete,false,NA,true,1,1,NA,NA,left,NA,NA,o_c_018.jpg,i_c_001.jpg,within,NA,NaN,NA,left,4999.39999999851,1,2,2122.3000000044703
avjhouki,NA,NA,avjhouki,2020-0188,2021-10-04,12:38:02,21:51:06,NA,incomplete,false,NA,true,1,2,NA,NA,right,NA,NA,o_c_018.jpg,n_l_017.jpg,between-big,NA,NaN,NA,right,2188.10000000149,1,2,1720.6999999955297
avjhouki,NA,NA,avjhouki,2020-0188,2021-10-04,12:38:02,21:51:06,NA,incomplete,false,NA,true,1,3,NA,NA,right,NA,NA,n_s_004.jpg,n_s_007.jpg,within,NA,NaN,NA,right,1927.4000000059605,1,1,7290.10000000149
avjhouki,NA,NA,avjhouki,2020-0188,2021-10-04,12:38:02,21:51:06,NA,incomplete,false,NA,true,1,4,NA,NA,left,NA,NA,a_2_004.jpg,a_1_002.jpg,between-small,NA,NaN,NA,left,5645.60000000149,1,1,4116.39999999851
avjhouki,NA,NA,avjhouki,2020-0188,2021-10-04,12:38:02,21:51:06,NA,incomplete,false,NA,true,1,5,NA,NA,left,NA,NA,c_2_013.jpg,m_l_008.jpg,between-big,NA,NaN,NA,right,3348,0,1,2035.1000000014901
avjhouki,NA,NA,avjhouki,2020-0188,2021-10-04,12:38:02,21:51:06,NA,incomplete,false,NA,true,1,6,NA,NA,left,NA,NA,m_s_005.jpg,n_l_027.jpg,within,NA,NaN,NA,right,2401.39999999851,0,1,3439
avjhouki,NA,NA,avjhouki,2020-0188,2021-10-04,12:38:02,21:51:06,NA,incomplete,false,NA,true,1,7,NA,NA,left,NA,NA,m_s_009.jpg,n_s_007.jpg,between-small,NA,NaN,NA,left,3667,1,1,7597.80000000447
avjhouki,NA,NA,avjhouki,2020-0188,2021-10-04,12:38:02,21:51:06,NA,incomplete,false,NA,true,1,8,NA,NA,right,NA,NA,c_2_009.jpg,a_1_021.jpg,between-small,NA,NaN,NA,left,16024.89999999851,0,1,3095.7999999970198
avjhouki,NA,NA,avjhouki,2020-0188,2021-10-04,12:38:02,21:51:06,NA,incomplete,false,NA,true,1,9,NA,NA,right,NA,NA,m_s_009.jpg,c_2_017.jpg,between-big,NA,NaN,NA,left,2866.7000000029802,0,2,2646.89999999851
avjhouki,NA,NA,avjhouki,2020-0188,2021-10-04,12:38:02,21:51:06,NA,incomplete,false,NA,true,1,10,NA,NA,left,NA,NA,n_l_027.jpg,n_l_017.jpg,between-small,NA,NaN,NA,left,2196.3000000044703,1,1,61086.29999999702
avjhouki,NA,NA,avjhouki,2020-0188,2021-10-04,12:38:02,21:51:06,NA,incomplete,false,NA,true,1,11,NA,NA,right,NA,NA,o_s_008.jpg,i_s_027.jpg,within,NA,NaN,NA,right,2968.5,1,1,1682.1000000014901
avjhouki,NA,NA,avjhouki,2020-0188,2021-10-04,12:38:02,21:51:06,NA,incomplete,false,NA,true,1,12,NA,NA,left,NA,NA,i_c_001.jpg,o_c_008.jpg,between-small,NA,NaN,NA,right,4182.60000000149,0,1,1535.5
avjhouki,NA,NA,avjhouki,2020-0188,2021-10-04,12:38:02,21:51:06,NA,incomplete,false,NA,true,1,13,NA,NA,right,NA,NA,c_2_013.jpg,a_2_010.jpg,between-small,NA,NaN,NA,left,2376.4000000059605,0,1,1649.6999999955297
avjhouki,NA,NA,avjhouki,2020-0188,2021-10-04,12:38:02,21:51:06,NA,incomplete,false,NA,true,1,14,NA,NA,right,NA,NA,o_s_020.jpg,i_c_015.jpg,within,NA,NaN,NA,left,4991.5,0,1,1697.6000000014901
avjhouki,NA,NA,avjhouki,2020-0188,2021-10-04,12:38:02,21:51:06,NA,incomplete,false,NA,true,1,15,NA,NA,right,NA,NA,m_s_005.jpg,c_2_006.jpg,between-big,NA,NaN,NA,left,2344.2000000029802,0,2,2964.7999999970198
avjhouki,NA,NA,avjhouki,2020-0188,2021-10-04,12:38:02,21:51:06,NA,incomplete,false,NA,true,1,16,NA,NA,left,NA,NA,c_1_016.jpg,a_2_004.jpg,within,NA,NaN,NA,left,2662.1999999955297,1,2,1493.6999999955297
avjhouki,NA,NA,avjhouki,2020-0188,2021-10-04,12:38:02,21:51:06,NA,incomplete,false,NA,true,1,17,NA,NA,left,NA,NA,m_s_011.jpg,o_s_027.jpg,between-big,NA,NaN,NA,left,4787.70000000298,1,2,5183.5
avjhouki,NA,NA,avjhouki,2020-0188,2021-10-04,12:38:02,21:51:06,NA,incomplete,false,NA,true,1,18,NA,NA,left,NA,NA,m_l_008.jpg,n_l_022.jpg,within,NA,NaN,NA,left,3389,1,2,1852.5
avjhouki,NA,NA,avjhouki,2020-0188,2021-10-04,12:38:02,21:51:06,NA,incomplete,false,NA,true,1,19,NA,NA,right,NA,NA,o_c_027.jpg,o_s_020.jpg,between-small,NA,NaN,NA,left,3545,0,1,1713.8000000044703
avjhouki,NA,NA,avjhouki,2020-0188,2021-10-04,12:38:02,21:51:06,NA,incomplete,false,NA,true,1,20,NA,NA,left,NA,NA,n_s_004.jpg,i_c_015.jpg,between-big,NA,NaN,NA,right,4712.5999999940395,0,2,4999.39999999851
avjhouki,NA,NA,avjhouki,2020-0188,2021-10-04,12:38:02,21:51:06,NA,incomplete,false,NA,true,1,21,NA,NA,left,NA,NA,c_2_012.jpg,a_2_010.jpg,within,NA,NaN,NA,left,2327.7000000029802,1,2,1109.8999999985099
avjhouki,NA,NA,avjhouki,2020-0188,2021-10-04,12:38:02,21:51:06,NA,incomplete,false,NA,true,1,22,NA,NA,left,NA,NA,n_l_022.jpg,m_s_027.jpg,between-small,NA,NaN,NA,right,2023.7000000029802,0,2,3561.39999999851
avjhouki,NA,NA,avjhouki,2020-0188,2021-10-04,12:38:02,21:51:06,NA,incomplete,false,NA,true,1,23,NA,NA,left,NA,NA,m_s_027.jpg,m_s_011.jpg,within,NA,NaN,NA,right,3553.10000000149,0,1,2206.2999999970198
avjhouki,NA,NA,avjhouki,2020-0188,2021-10-04,12:38:02,21:51:06,NA,incomplete,false,NA,true,1,24,NA,NA,left,NA,NA,c_2_009.jpg,c_2_006.jpg,within,NA,NaN,NA,right,6413,0,2,2049.5
avjhouki,NA,NA,avjhouki,2020-0188,2021-10-04,12:38:02,21:51:06,NA,incomplete,false,NA,true,1,25,NA,NA,right,NA,NA,i_s_027.jpg,o_s_027.jpg,between-small,NA,NaN,NA,right,2450.5,1,2,2180.10000000149
avjhouki,NA,NA,avjhouki,2020-0188,2021-10-04,12:38:02,21:51:06,NA,incomplete,false,NA,true,1,26,NA,NA,left,NA,NA,a_1_002.jpg,c_2_017.jpg,within,NA,NaN,NA,left,5468.5,1,2,3161.10000000149
avjhouki,NA,NA,avjhouki,2020-0188,2021-10-04,12:38:02,21:51:06,NA,incomplete,false,true,NA,2,0,building,i_s_004.jpg,left,skyscraper,cottage,NA,NA,NA,left,2157,true,NA,NA,NA,NA,NA
avjhouki,NA,NA,avjhouki,2020-0188,2021-10-04,12:38:02,21:51:06,NA,incomplete,false,true,NA,2,1,building,i_s_010.jpg,left,skyscraper,cottage,NA,NA,NA,left,1151,true,NA,NA,NA,NA,NA
avjhouki,NA,NA,avjhouki,2020-0188,2021-10-04,12:38:02,21:51:06,NA,incomplete,false,true,NA,2,2,building,i_c_021.jpg,left,cottage,skyscraper,NA,NA,NA,left,1733.80000000447,true,NA,NA,NA,NA,NA
avjhouki,NA,NA,avjhouki,2020-0188,2021-10-04,12:38:02,21:51:06,NA,incomplete,false,true,NA,2,3,building,o_s_021.jpg,left,skyscraper,cottage,NA,NA,NA,left,1161.39999999851,true,NA,NA,NA,NA,NA
avjhouki,NA,NA,avjhouki,2020-0188,2021-10-04,12:38:02,21:51:06,NA,incomplete,false,true,NA,2,4,building,i_c_016.jpg,right,skyscraper,cottage,NA,NA,NA,right,1532.10000000149,true,NA,NA,NA,NA,NA
avjhouki,NA,NA,avjhouki,2020-0188,2021-10-04,12:38:02,21:51:06,NA,incomplete,false,true,NA,2,5,location,i_s_023.jpg,right,outdoor,indoor,NA,NA,NA,right,1849.29999999702,true,NA,NA,NA,NA,NA
avjhouki,NA,NA,avjhouki,2020-0188,2021-10-04,12:38:02,21:51:06,NA,incomplete,false,true,NA,2,6,location,i_s_014.jpg,left,indoor,outdoor,NA,NA,NA,left,1692.5,true,NA,NA,NA,NA,NA
avjhouki,NA,NA,avjhouki,2020-0188,2021-10-04,12:38:02,21:51:06,NA,incomplete,false,true,NA,2,7,location,o_s_028.jpg,left,outdoor,indoor,NA,NA,NA,left,1214.60000000149,true,NA,NA,NA,NA,NA
avjhouki,NA,NA,avjhouki,2020-0188,2021-10-04,12:38:02,21:51:06,NA,incomplete,false,true,NA,2,8,location,o_c_013.jpg,left,outdoor,indoor,NA,NA,NA,left,1377,true,NA,NA,NA,NA,NA
avjhouki,NA,NA,avjhouki,2020-0188,2021-10-04,12:38:02,21:51:06,NA,incomplete,false,true,NA,2,9,location,o_s_005.jpg,left,outdoor,indoor,NA,NA,NA,left,1318.10000000149,true,NA,NA,NA,NA,NA
avjhouki,NA,NA,avjhouki,2020-0188,2021-10-04,12:38:02,21:51:06,NA,incomplete,false,true,NA,2,10,size,n_s_010.jpg,left,small,large,NA,NA,NA,left,1703.5,true,NA,NA,NA,NA,NA
avjhouki,NA,NA,avjhouki,2020-0188,2021-10-04,12:38:02,21:51:06,NA,incomplete,false,true,NA,2,11,size,n_s_013.jpg,left,small,large,NA,NA,NA,left,1132.5,true,NA,NA,NA,NA,NA
avjhouki,NA,NA,avjhouki,2020-0188,2021-10-04,12:38:02,21:51:06,NA,incomplete,false,true,NA,2,12,size,n_s_026.jpg,right,large,small,NA,NA,NA,right,1410.89999999851,true,NA,NA,NA,NA,NA
avjhouki,NA,NA,avjhouki,2020-0188,2021-10-04,12:38:02,21:51:06,NA,incomplete,false,true,NA,2,13,size,n_s_005.jpg,left,small,large,NA,NA,NA,left,1122.89999999851,true,NA,NA,NA,NA,NA
avjhouki,NA,NA,avjhouki,2020-0188,2021-10-04,12:38:02,21:51:06,NA,incomplete,false,true,NA,2,14,size,m_l_021.jpg,left,large,small,NA,NA,NA,right,1284.70000000298,false,NA,NA,NA,NA,NA
avjhouki,NA,NA,avjhouki,2020-0188,2021-10-04,12:38:02,21:51:06,NA,incomplete,false,true,NA,2,15,origin,m_s_025.jpg,left,manmade,natural,NA,NA,NA,left,2499.10000000149,true,NA,NA,NA,NA,NA
avjhouki,NA,NA,avjhouki,2020-0188,2021-10-04,12:38:02,21:51:06,NA,incomplete,false,true,NA,2,16,origin,m_l_012.jpg,right,natural,manmade,NA,NA,NA,right,1892.89999999851,true,NA,NA,NA,NA,NA
avjhouki,NA,NA,avjhouki,2020-0188,2021-10-04,12:38:02,21:51:06,NA,incomplete,false,true,NA,2,17,origin,m_s_024.jpg,right,natural,manmade,NA,NA,NA,right,2550.89999999851,true,NA,NA,NA,NA,NA
avjhouki,NA,NA,avjhouki,2020-0188,2021-10-04,12:38:02,21:51:06,NA,incomplete,false,true,NA,2,18,origin,n_s_028.jpg,left,natural,manmade,NA,NA,NA,left,1396.5,true,NA,NA,NA,NA,NA
avjhouki,NA,NA,avjhouki,2020-0188,2021-10-04,12:38:02,21:51:06,NA,incomplete,false,true,NA,2,19,origin,m_s_008.jpg,left,manmade,natural,NA,NA,NA,left,1919,true,NA,NA,NA,NA,NA
avjhouki,NA,NA,avjhouki,2020-0188,2021-10-04,12:38:02,21:51:06,NA,incomplete,false,true,NA,2,20,syllable,a_1_004.jpg,right,1 syllable,2 syllables,NA,NA,NA,left,2122.79999999702,false,NA,NA,NA,NA,NA
avjhouki,NA,NA,avjhouki,2020-0188,2021-10-04,12:38:02,21:51:06,NA,incomplete,false,true,NA,2,21,syllable,c_1_017.jpg,right,2 syllables,1 syllable,NA,NA,NA,right,2114.10000000149,true,NA,NA,NA,NA,NA
avjhouki,NA,NA,avjhouki,2020-0188,2021-10-04,12:38:02,21:51:06,NA,incomplete,false,true,NA,2,22,syllable,a_1_025.jpg,right,1 syllable,2 syllables,NA,NA,NA,left,1890.09999999404,false,NA,NA,NA,NA,NA
avjhouki,NA,NA,avjhouki,2020-0188,2021-10-04,12:38:02,21:51:06,NA,incomplete,false,true,NA,2,23,syllable,c_1_018.jpg,right,2 syllables,1 syllable,NA,NA,NA,right,1236,true,NA,NA,NA,NA,NA
avjhouki,NA,NA,avjhouki,2020-0188,2021-10-04,12:38:02,21:51:06,NA,incomplete,false,true,NA,2,24,syllable,c_1_003.jpg,right,2 syllables,1 syllable,NA,NA,NA,right,1133.20000000298,true,NA,NA,NA,NA,NA
avjhouki,NA,NA,avjhouki,2020-0188,2021-10-04,12:38:02,21:51:06,NA,incomplete,false,true,NA,2,25,abstractness,c_1_001.jpg,left,concrete,abstract,NA,NA,NA,left,2352.59999999404,true,NA,NA,NA,NA,NA
avjhouki,NA,NA,avjhouki,2020-0188,2021-10-04,12:38:02,21:51:06,NA,incomplete,false,true,NA,2,26,abstractness,c_2_016.jpg,left,concrete,abstract,NA,NA,NA,left,2447.10000000149,true,NA,NA,NA,NA,NA
avjhouki,NA,NA,avjhouki,2020-0188,2021-10-04,12:38:02,21:51:06,NA,incomplete,false,true,NA,2,27,abstractness,c_2_010.jpg,left,concrete,abstract,NA,NA,NA,left,2238.79999999702,true,NA,NA,NA,NA,NA
avjhouki,NA,NA,avjhouki,2020-0188,2021-10-04,12:38:02,21:51:06,NA,incomplete,false,true,NA,2,28,abstractness,c_2_026.jpg,right,abstract,concrete,NA,NA,NA,right,1950,true,NA,NA,NA,NA,NA
avjhouki,NA,NA,avjhouki,2020-0188,2021-10-04,12:38:02,21:51:06,NA,incomplete,false,true,NA,2,29,abstractness,c_1_012.jpg,left,concrete,abstract,NA,NA,NA,left,1560.10000000149,true,NA,NA,NA,NA,NA
avjhouki,NA,NA,avjhouki,2020-0188,2021-10-04,12:38:02,21:51:06,NA,incomplete,false,NA,true,2,0,NA,NA,left,NA,NA,n_s_026.jpg,m_s_025.jpg,between-small,NA,NaN,NA,left,2879.7000000029802,1,1,2171.10000000149
avjhouki,NA,NA,avjhouki,2020-0188,2021-10-04,12:38:02,21:51:06,NA,incomplete,false,NA,true,2,1,NA,NA,left,NA,NA,o_s_021.jpg,i_s_014.jpg,between-small,NA,NaN,NA,right,3309.2999999970198,0,1,2355.5
avjhouki,NA,NA,avjhouki,2020-0188,2021-10-04,12:38:02,21:51:06,NA,incomplete,false,NA,true,2,2,NA,NA,right,NA,NA,o_c_013.jpg,i_s_023.jpg,within,NA,NaN,NA,right,3479.7000000029802,1,1,1396
avjhouki,NA,NA,avjhouki,2020-0188,2021-10-04,12:38:02,21:51:06,NA,incomplete,false,NA,true,2,3,NA,NA,left,NA,NA,o_s_005.jpg,n_s_026.jpg,between-big,NA,NaN,NA,right,3046.60000000149,0,2,1682.2999999970198
avjhouki,NA,NA,avjhouki,2020-0188,2021-10-04,12:38:02,21:51:06,NA,incomplete,false,NA,true,2,4,NA,NA,right,NA,NA,c_1_017.jpg,n_s_028.jpg,between-big,NA,NaN,NA,right,2678.7999999970198,1,2,1907.7999999970198
avjhouki,NA,NA,avjhouki,2020-0188,2021-10-04,12:38:02,21:51:06,NA,incomplete,false,NA,true,2,5,NA,NA,right,NA,NA,n_s_010.jpg,o_s_028.jpg,between-big,NA,NaN,NA,left,1886.3000000044703,0,2,1542.3999999985099
avjhouki,NA,NA,avjhouki,2020-0188,2021-10-04,12:38:02,21:51:06,NA,incomplete,false,NA,true,2,6,NA,NA,right,NA,NA,m_s_024.jpg,m_l_021.jpg,between-small,NA,NaN,NA,left,2434.4000000059605,0,1,2286.60000000149
avjhouki,NA,NA,avjhouki,2020-0188,2021-10-04,12:38:02,21:51:06,NA,incomplete,false,NA,true,2,7,NA,NA,left,NA,NA,m_s_024.jpg,a_1_004.jpg,between-big,NA,NaN,NA,left,8236.09999999404,1,2,2122.39999999851
avjhouki,NA,NA,avjhouki,2020-0188,2021-10-04,12:38:02,21:51:06,NA,incomplete,false,NA,true,2,8,NA,NA,right,NA,NA,i_s_023.jpg,i_c_021.jpg,between-small,NA,NaN,NA,right,2082.39999999851,1,1,1609.2000000029802
avjhouki,NA,NA,avjhouki,2020-0188,2021-10-04,12:38:02,21:51:06,NA,incomplete,false,NA,true,2,9,NA,NA,right,NA,NA,c_1_003.jpg,c_1_017.jpg,within,NA,NaN,NA,left,5294.9000000059605,0,1,1771.7000000029802
avjhouki,NA,NA,avjhouki,2020-0188,2021-10-04,12:38:02,21:51:06,NA,incomplete,false,NA,true,2,10,NA,NA,left,NA,NA,i_s_004.jpg,o_s_021.jpg,within,NA,NaN,NA,left,4572.5,1,1,1616.5
avjhouki,NA,NA,avjhouki,2020-0188,2021-10-04,12:38:02,21:51:06,NA,incomplete,false,NA,true,2,11,NA,NA,left,NA,NA,n_s_005.jpg,m_l_012.jpg,between-small,NA,NaN,NA,left,3365.2000000029802,1,1,1485.3999999985099
avjhouki,NA,NA,avjhouki,2020-0188,2021-10-04,12:38:02,21:51:06,NA,incomplete,false,NA,true,2,12,NA,NA,left,NA,NA,n_s_013.jpg,m_l_021.jpg,within,NA,NaN,NA,left,2176.7000000029802,1,1,3634.8000000044703
avjhouki,NA,NA,avjhouki,2020-0188,2021-10-04,12:38:02,21:51:06,NA,incomplete,false,NA,true,2,13,NA,NA,left,NA,NA,a_1_025.jpg,c_1_001.jpg,between-small,NA,NaN,NA,right,3283.39999999851,0,1,1568.1000000014901
avjhouki,NA,NA,avjhouki,2020-0188,2021-10-04,12:38:02,21:51:06,NA,incomplete,false,NA,true,2,14,NA,NA,left,NA,NA,i_s_014.jpg,o_s_005.jpg,within,NA,NaN,NA,left,2139.2999999970198,1,1,1347
avjhouki,NA,NA,avjhouki,2020-0188,2021-10-04,12:38:02,21:51:06,NA,incomplete,false,NA,true,2,15,NA,NA,right,NA,NA,n_s_013.jpg,o_c_013.jpg,between-big,NA,NaN,NA,right,2793,1,2,3904.8000000044703
avjhouki,NA,NA,avjhouki,2020-0188,2021-10-04,12:38:02,21:51:06,NA,incomplete,false,NA,true,2,16,NA,NA,left,NA,NA,c_1_003.jpg,c_2_010.jpg,between-small,NA,NaN,NA,right,2217.7999999970198,0,1,2957.10000000149
avjhouki,NA,NA,avjhouki,2020-0188,2021-10-04,12:38:02,21:51:06,NA,incomplete,false,NA,true,2,17,NA,NA,right,NA,NA,c_2_026.jpg,c_1_001.jpg,within,NA,NaN,NA,right,2042.3999999985099,1,1,1338.8999999985099
avjhouki,NA,NA,avjhouki,2020-0188,2021-10-04,12:38:02,21:51:06,NA,incomplete,false,NA,true,2,18,NA,NA,left,NA,NA,m_s_008.jpg,a_1_025.jpg,between-big,NA,NaN,NA,left,2433.6999999955297,1,2,1698.1000000014901
avjhouki,NA,NA,avjhouki,2020-0188,2021-10-04,12:38:02,21:51:06,NA,incomplete,false,NA,true,2,19,NA,NA,right,NA,NA,n_s_005.jpg,n_s_010.jpg,within,NA,NaN,NA,left,2523.7000000029802,0,1,1191.7000000029802
avjhouki,NA,NA,avjhouki,2020-0188,2021-10-04,12:38:02,21:51:06,NA,incomplete,false,NA,true,2,20,NA,NA,right,NA,NA,i_c_016.jpg,i_s_010.jpg,within,NA,NaN,NA,left,3399,0,1,1984.3999999985099
avjhouki,NA,NA,avjhouki,2020-0188,2021-10-04,12:38:02,21:51:06,NA,incomplete,false,NA,true,2,21,NA,NA,right,NA,NA,c_1_012.jpg,c_2_016.jpg,within,NA,NaN,NA,right,4944.10000000149,1,1,3936.5
avjhouki,NA,NA,avjhouki,2020-0188,2021-10-04,12:38:02,21:51:06,NA,incomplete,false,NA,true,2,22,NA,NA,right,NA,NA,c_1_018.jpg,a_1_004.jpg,within,NA,NaN,NA,right,4928,1,1,3473.39999999851
avjhouki,NA,NA,avjhouki,2020-0188,2021-10-04,12:38:02,21:51:06,NA,incomplete,false,NA,true,2,23,NA,NA,right,NA,NA,m_s_008.jpg,m_l_012.jpg,within,NA,NaN,NA,left,2132.89999999851,0,1,2426.5
avjhouki,NA,NA,avjhouki,2020-0188,2021-10-04,12:38:02,21:51:06,NA,incomplete,false,NA,true,2,24,NA,NA,left,NA,NA,c_1_018.jpg,c_2_016.jpg,between-small,NA,NaN,NA,right,3278.2999999970198,0,1,12460.30000000447
avjhouki,NA,NA,avjhouki,2020-0188,2021-10-04,12:38:02,21:51:06,NA,incomplete,false,NA,true,2,25,NA,NA,right,NA,NA,n_s_028.jpg,m_s_025.jpg,within,NA,NaN,NA,right,2162.89999999851,1,1,1452.8999999985099
avjhouki,NA,NA,avjhouki,2020-0188,2021-10-04,12:38:02,21:51:06,NA,incomplete,false,NA,true,2,26,NA,NA,left,NA,NA,i_c_016.jpg,o_s_028.jpg,between-small,NA,NaN,NA,left,6473.30000000447,1,1,2296.10000000149
avjhouki,NA,NA,avjhouki,2020-0188,2021-10-04,12:38:02,21:51:06,NA,incomplete,false,true,NA,3,0,size,m_l_027.jpg,right,small,large,NA,NA,NA,right,2153.20000000298,true,NA,NA,NA,NA,NA
avjhouki,NA,NA,avjhouki,2020-0188,2021-10-04,12:38:02,21:51:06,NA,incomplete,false,true,NA,3,1,size,n_s_014.jpg,left,small,large,NA,NA,NA,left,2276.39999999851,true,NA,NA,NA,NA,NA
avjhouki,NA,NA,avjhouki,2020-0188,2021-10-04,12:38:02,21:51:06,NA,incomplete,false,true,NA,3,2,size,n_s_024.jpg,right,large,small,NA,NA,NA,right,1495.79999999702,true,NA,NA,NA,NA,NA
avjhouki,NA,NA,avjhouki,2020-0188,2021-10-04,12:38:02,21:51:06,NA,incomplete,false,true,NA,3,3,size,n_l_004.jpg,right,small,large,NA,NA,NA,right,2297.5,true,NA,NA,NA,NA,NA
avjhouki,NA,NA,avjhouki,2020-0188,2021-10-04,12:38:02,21:51:06,NA,incomplete,false,true,NA,3,4,size,n_l_012.jpg,right,small,large,NA,NA,NA,right,1849.69999999553,true,NA,NA,NA,NA,NA
avjhouki,NA,NA,avjhouki,2020-0188,2021-10-04,12:38:02,21:51:06,NA,incomplete,false,true,NA,3,5,origin,m_l_016.jpg,right,natural,manmade,NA,NA,NA,right,2277.70000000298,true,NA,NA,NA,NA,NA
avjhouki,NA,NA,avjhouki,2020-0188,2021-10-04,12:38:02,21:51:06,NA,incomplete,false,true,NA,3,6,origin,m_l_013.jpg,left,manmade,natural,NA,NA,NA,left,2293.39999999851,true,NA,NA,NA,NA,NA
avjhouki,NA,NA,avjhouki,2020-0188,2021-10-04,12:38:02,21:51:06,NA,incomplete,false,true,NA,3,7,origin,n_l_002.jpg,right,manmade,natural,NA,NA,NA,right,1343.80000000447,true,NA,NA,NA,NA,NA
avjhouki,NA,NA,avjhouki,2020-0188,2021-10-04,12:38:02,21:51:06,NA,incomplete,false,true,NA,3,8,origin,m_s_028.jpg,left,manmade,natural,NA,NA,NA,left,1608,true,NA,NA,NA,NA,NA
avjhouki,NA,NA,avjhouki,2020-0188,2021-10-04,12:38:02,21:51:06,NA,incomplete,false,true,NA,3,9,origin,m_l_017.jpg,right,natural,manmade,NA,NA,NA,right,976.29999999702,true,NA,NA,NA,NA,NA
avjhouki,NA,NA,avjhouki,2020-0188,2021-10-04,12:38:02,21:51:06,NA,incomplete,false,true,NA,3,10,location,o_s_026.jpg,right,indoor,outdoor,NA,NA,NA,right,1367.5,true,NA,NA,NA,NA,NA
avjhouki,NA,NA,avjhouki,2020-0188,2021-10-04,12:38:02,21:51:06,NA,incomplete,false,true,NA,3,11,location,i_c_006.jpg,right,outdoor,indoor,NA,NA,NA,right,1706.89999999851,true,NA,NA,NA,NA,NA
avjhouki,NA,NA,avjhouki,2020-0188,2021-10-04,12:38:02,21:51:06,NA,incomplete,false,true,NA,3,12,location,o_s_007.jpg,left,outdoor,indoor,NA,NA,NA,left,1308.89999999851,true,NA,NA,NA,NA,NA
avjhouki,NA,NA,avjhouki,2020-0188,2021-10-04,12:38:02,21:51:06,NA,incomplete,false,true,NA,3,13,location,i_s_024.jpg,left,indoor,outdoor,NA,NA,NA,left,1183.69999999553,true,NA,NA,NA,NA,NA
avjhouki,NA,NA,avjhouki,2020-0188,2021-10-04,12:38:02,21:51:06,NA,incomplete,false,true,NA,3,14,location,o_c_017.jpg,right,indoor,outdoor,NA,NA,NA,right,1742.79999999702,true,NA,NA,NA,NA,NA
avjhouki,NA,NA,avjhouki,2020-0188,2021-10-04,12:38:02,21:51:06,NA,incomplete,false,true,NA,3,15,building,o_s_010.jpg,right,cottage,skyscraper,NA,NA,NA,right,1438.80000000447,true,NA,NA,NA,NA,NA
avjhouki,NA,NA,avjhouki,2020-0188,2021-10-04,12:38:02,21:51:06,NA,incomplete,false,true,NA,3,16,building,i_c_026.jpg,left,cottage,skyscraper,NA,NA,NA,left,1338.20000000298,true,NA,NA,NA,NA,NA
avjhouki,NA,NA,avjhouki,2020-0188,2021-10-04,12:38:02,21:51:06,NA,incomplete,false,true,NA,3,17,building,o_c_005.jpg,left,cottage,skyscraper,NA,NA,NA,left,1163.89999999851,true,NA,NA,NA,NA,NA
avjhouki,NA,NA,avjhouki,2020-0188,2021-10-04,12:38:02,21:51:06,NA,incomplete,false,true,NA,3,18,building,i_s_016.jpg,left,skyscraper,cottage,NA,NA,NA,left,1156.09999999404,true,NA,NA,NA,NA,NA
avjhouki,NA,NA,avjhouki,2020-0188,2021-10-04,12:38:02,21:51:06,NA,incomplete,false,true,NA,3,19,building,i_c_027.jpg,right,skyscraper,cottage,NA,NA,NA,right,1318.79999999702,true,NA,NA,NA,NA,NA
avjhouki,NA,NA,avjhouki,2020-0188,2021-10-04,12:38:02,21:51:06,NA,incomplete,false,true,NA,3,20,abstractness,a_1_014.jpg,right,concrete,abstract,NA,NA,NA,right,1762.29999999702,true,NA,NA,NA,NA,NA
avjhouki,NA,NA,avjhouki,2020-0188,2021-10-04,12:38:02,21:51:06,NA,incomplete,false,true,NA,3,21,abstractness,a_1_013.jpg,right,concrete,abstract,NA,NA,NA,right,1495.69999999553,true,NA,NA,NA,NA,NA
avjhouki,NA,NA,avjhouki,2020-0188,2021-10-04,12:38:02,21:51:06,NA,incomplete,false,true,NA,3,22,abstractness,c_1_013.jpg,left,concrete,abstract,NA,NA,NA,left,1939.20000000298,true,NA,NA,NA,NA,NA
avjhouki,NA,NA,avjhouki,2020-0188,2021-10-04,12:38:02,21:51:06,NA,incomplete,false,true,NA,3,23,abstractness,a_1_010.jpg,right,concrete,abstract,NA,NA,NA,right,1242.20000000298,true,NA,NA,NA,NA,NA
avjhouki,NA,NA,avjhouki,2020-0188,2021-10-04,12:38:02,21:51:06,NA,incomplete,false,true,NA,3,24,abstractness,a_2_027.jpg,left,abstract,concrete,NA,NA,NA,left,1377.59999999404,true,NA,NA,NA,NA,NA
avjhouki,NA,NA,avjhouki,2020-0188,2021-10-04,12:38:02,21:51:06,NA,incomplete,false,true,NA,3,25,syllable,c_1_026.jpg,right,2 syllables,1 syllable,NA,NA,NA,right,1698.5,true,NA,NA,NA,NA,NA
avjhouki,NA,NA,avjhouki,2020-0188,2021-10-04,12:38:02,21:51:06,NA,incomplete,false,true,NA,3,26,syllable,a_1_026.jpg,right,2 syllables,1 syllable,NA,NA,NA,right,2209.10000000149,true,NA,NA,NA,NA,NA
avjhouki,NA,NA,avjhouki,2020-0188,2021-10-04,12:38:02,21:51:06,NA,incomplete,false,true,NA,3,27,syllable,c_1_025.jpg,right,2 syllables,1 syllable,NA,NA,NA,right,1007.40000000596,true,NA,NA,NA,NA,NA
avjhouki,NA,NA,avjhouki,2020-0188,2021-10-04,12:38:02,21:51:06,NA,incomplete,false,true,NA,3,28,syllable,a_2_001.jpg,right,2 syllables,1 syllable,NA,NA,NA,left,1598.10000000149,false,NA,NA,NA,NA,NA
avjhouki,NA,NA,avjhouki,2020-0188,2021-10-04,12:38:02,21:51:06,NA,incomplete,false,true,NA,3,29,syllable,c_1_002.jpg,right,1 syllable,2 syllables,NA,NA,NA,right,2155.90000000596,true,NA,NA,NA,NA,NA
avjhouki,NA,NA,avjhouki,2020-0188,2021-10-04,12:38:02,21:51:06,NA,incomplete,false,NA,true,3,0,NA,NA,left,NA,NA,m_l_013.jpg,m_l_017.jpg,within,NA,NaN,NA,left,2505.9000000059605,1,1,1492.3999999985099
avjhouki,NA,NA,avjhouki,2020-0188,2021-10-04,12:38:02,21:51:06,NA,incomplete,false,NA,true,3,1,NA,NA,right,NA,NA,o_s_007.jpg,m_l_017.jpg,between-big,NA,NaN,NA,right,2244.2000000029802,1,1,1339.9000000059605
avjhouki,NA,NA,avjhouki,2020-0188,2021-10-04,12:38:02,21:51:06,NA,incomplete,false,NA,true,3,2,NA,NA,left,NA,NA,a_1_014.jpg,a_1_010.jpg,within,NA,NaN,NA,left,3740.5,1,0,1233.6999999955297
avjhouki,NA,NA,avjhouki,2020-0188,2021-10-04,12:38:02,21:51:06,NA,incomplete,false,NA,true,3,3,NA,NA,right,NA,NA,m_l_016.jpg,n_s_024.jpg,between-small,NA,NaN,NA,right,1583.6000000014901,1,1,1878.3000000044703
avjhouki,NA,NA,avjhouki,2020-0188,2021-10-04,12:38:02,21:51:06,NA,incomplete,false,NA,true,3,4,NA,NA,left,NA,NA,i_c_027.jpg,c_1_013.jpg,between-big,NA,NaN,NA,left,5556.19999999553,1,2,1150.6000000014901
avjhouki,NA,NA,avjhouki,2020-0188,2021-10-04,12:38:02,21:51:06,NA,incomplete,false,NA,true,3,5,NA,NA,right,NA,NA,m_l_013.jpg,n_l_004.jpg,between-small,NA,NaN,NA,right,4320.60000000149,1,2,2000.3000000044703
avjhouki,NA,NA,avjhouki,2020-0188,2021-10-04,12:38:02,21:51:06,NA,incomplete,false,NA,true,3,6,NA,NA,right,NA,NA,i_c_027.jpg,i_c_026.jpg,within,NA,NaN,NA,right,5057.5,1,1,1730.6999999955297
avjhouki,NA,NA,avjhouki,2020-0188,2021-10-04,12:38:02,21:51:06,NA,incomplete,false,NA,true,3,7,NA,NA,right,NA,NA,n_l_002.jpg,n_l_012.jpg,between-small,NA,NaN,NA,right,2048.7000000029802,1,1,1224.5
avjhouki,NA,NA,avjhouki,2020-0188,2021-10-04,12:38:02,21:51:06,NA,incomplete,false,NA,true,3,8,NA,NA,right,NA,NA,a_1_026.jpg,a_1_010.jpg,between-small,NA,NaN,NA,right,1871.2000000029802,1,1,1567.6999999955297
avjhouki,NA,NA,avjhouki,2020-0188,2021-10-04,12:38:02,21:51:06,NA,incomplete,false,NA,true,3,9,NA,NA,right,NA,NA,c_1_026.jpg,c_1_013.jpg,between-small,NA,NaN,NA,right,66461.20000000298,1,1,1796.7000000029802
avjhouki,NA,NA,avjhouki,2020-0188,2021-10-04,12:38:02,21:51:06,NA,incomplete,false,NA,true,3,10,NA,NA,right,NA,NA,c_1_002.jpg,a_1_026.jpg,within,NA,NaN,NA,left,2499.39999999851,0,2,3221
avjhouki,NA,NA,avjhouki,2020-0188,2021-10-04,12:38:02,21:51:06,NA,incomplete,false,NA,true,3,11,NA,NA,left,NA,NA,a_1_013.jpg,a_2_027.jpg,within,NA,NaN,NA,left,4215,1,1,1241.1999999955297
avjhouki,NA,NA,avjhouki,2020-0188,2021-10-04,12:38:02,21:51:06,NA,incomplete,false,NA,true,3,12,NA,NA,right,NA,NA,i_s_024.jpg,o_s_026.jpg,within,NA,NaN,NA,left,3398.7000000029802,0,1,2621
avjhouki,NA,NA,avjhouki,2020-0188,2021-10-04,12:38:02,21:51:06,NA,incomplete,false,NA,true,3,13,NA,NA,right,NA,NA,a_2_001.jpg,c_1_026.jpg,within,NA,NaN,NA,right,3202.2999999970198,1,1,1428.8999999985099
avjhouki,NA,NA,avjhouki,2020-0188,2021-10-04,12:38:02,21:51:06,NA,incomplete,false,NA,true,3,14,NA,NA,left,NA,NA,m_s_028.jpg,i_c_006.jpg,between-big,NA,NaN,NA,right,3665.9000000059605,0,3,1682.6999999955297
avjhouki,NA,NA,avjhouki,2020-0188,2021-10-04,12:38:02,21:51:06,NA,incomplete,false,NA,true,3,15,NA,NA,right,NA,NA,i_s_016.jpg,o_s_010.jpg,within,NA,NaN,NA,right,3553.89999999851,1,2,1683.7000000029802
avjhouki,NA,NA,avjhouki,2020-0188,2021-10-04,12:38:02,21:51:06,NA,incomplete,false,NA,true,3,16,NA,NA,left,NA,NA,m_l_016.jpg,m_s_028.jpg,within,NA,NaN,NA,left,1911.7000000029802,1,1,1559.2999999970198
avjhouki,NA,NA,avjhouki,2020-0188,2021-10-04,12:38:02,21:51:06,NA,incomplete,false,NA,true,3,17,NA,NA,left,NA,NA,i_c_006.jpg,o_c_017.jpg,within,NA,NaN,NA,right,4134.10000000149,0,1,2743.8000000044703
avjhouki,NA,NA,avjhouki,2020-0188,2021-10-04,12:38:02,21:51:06,NA,incomplete,false,NA,true,3,18,NA,NA,right,NA,NA,o_s_010.jpg,o_s_007.jpg,between-small,NA,NaN,NA,right,5210.29999999702,1,1,5171.4000000059605
avjhouki,NA,NA,avjhouki,2020-0188,2021-10-04,12:38:02,21:51:06,NA,incomplete,false,NA,true,3,19,NA,NA,left,NA,NA,o_c_017.jpg,o_c_005.jpg,between-small,NA,NaN,NA,right,5514.60000000149,0,1,5565.20000000298
avjhouki,NA,NA,avjhouki,2020-0188,2021-10-04,12:38:02,21:51:06,NA,incomplete,false,NA,true,3,20,NA,NA,left,NA,NA,n_l_002.jpg,o_s_026.jpg,between-big,NA,NaN,NA,right,23506.20000000298,0,2,50635.69999999553
avjhouki,NA,NA,avjhouki,2020-0188,2021-10-04,12:38:02,21:51:06,NA,incomplete,false,NA,true,3,21,NA,NA,left,NA,NA,i_s_024.jpg,i_c_026.jpg,between-small,NA,NaN,NA,left,5433.60000000149,1,1,1706
avjhouki,NA,NA,avjhouki,2020-0188,2021-10-04,12:38:02,21:51:06,NA,incomplete,false,NA,true,3,22,NA,NA,left,NA,NA,a_2_027.jpg,c_1_025.jpg,between-small,NA,NaN,NA,left,2581.3000000044703,1,1,1739.7000000029802
avjhouki,NA,NA,avjhouki,2020-0188,2021-10-04,12:38:02,21:51:06,NA,incomplete,false,NA,true,3,23,NA,NA,left,NA,NA,o_c_005.jpg,a_1_014.jpg,between-big,NA,NaN,NA,left,2523.89999999851,1,1,1486
avjhouki,NA,NA,avjhouki,2020-0188,2021-10-04,12:38:02,21:51:06,NA,incomplete,false,NA,true,3,24,NA,NA,right,NA,NA,n_l_012.jpg,n_s_014.jpg,within,NA,NaN,NA,left,2344.8000000044703,0,1,1813.2999999970198
avjhouki,NA,NA,avjhouki,2020-0188,2021-10-04,12:38:02,21:51:06,NA,incomplete,false,NA,true,3,25,NA,NA,left,NA,NA,m_l_027.jpg,n_l_004.jpg,within,NA,NaN,NA,right,1943.8999999985099,0,2,1246.8999999985099
avjhouki,NA,NA,avjhouki,2020-0188,2021-10-04,12:38:02,21:51:06,NA,incomplete,false,NA,true,3,26,NA,NA,right,NA,NA,a_1_013.jpg,i_s_016.jpg,between-big,NA,NaN,NA,right,2409.5,1,2,2319.3000000044703
avjhouki,NA,NA,avjhouki,2020-0188,2021-10-04,12:38:02,21:51:06,NA,incomplete,false,true,NA,4,0,abstractness,c_1_028.jpg,right,abstract,concrete,NA,NA,NA,right,2772.39999999851,true,NA,NA,NA,NA,NA
avjhouki,NA,NA,avjhouki,2020-0188,2021-10-04,12:38:02,21:51:06,NA,incomplete,false,true,NA,4,1,abstractness,a_2_009.jpg,right,concrete,abstract,NA,NA,NA,right,2994.79999999702,true,NA,NA,NA,NA,NA
avjhouki,NA,NA,avjhouki,2020-0188,2021-10-04,12:38:02,21:51:06,NA,incomplete,false,true,NA,4,2,abstractness,c_2_020.jpg,left,concrete,abstract,NA,NA,NA,left,1131.60000000149,true,NA,NA,NA,NA,NA
avjhouki,NA,NA,avjhouki,2020-0188,2021-10-04,12:38:02,21:51:06,NA,incomplete,false,true,NA,4,3,abstractness,a_2_002.jpg,left,abstract,concrete,NA,NA,NA,left,1231.40000000596,true,NA,NA,NA,NA,NA
avjhouki,NA,NA,avjhouki,2020-0188,2021-10-04,12:38:02,21:51:06,NA,incomplete,false,true,NA,4,4,abstractness,c_1_009.jpg,right,abstract,concrete,NA,NA,NA,right,1716.39999999851,true,NA,NA,NA,NA,NA
avjhouki,NA,NA,avjhouki,2020-0188,2021-10-04,12:38:02,21:51:06,NA,incomplete,false,true,NA,4,5,syllable,a_2_025.jpg,right,1 syllable,2 syllables,NA,NA,NA,right,1736.29999999702,true,NA,NA,NA,NA,NA
avjhouki,NA,NA,avjhouki,2020-0188,2021-10-04,12:38:02,21:51:06,NA,incomplete,false,true,NA,4,6,syllable,c_2_022.jpg,right,1 syllable,2 syllables,NA,NA,NA,right,1813,true,NA,NA,NA,NA,NA
avjhouki,NA,NA,avjhouki,2020-0188,2021-10-04,12:38:02,21:51:06,NA,incomplete,false,true,NA,4,7,syllable,a_2_013.jpg,right,2 syllables,1 syllable,NA,NA,NA,left,1267,false,NA,NA,NA,NA,NA
avjhouki,NA,NA,avjhouki,2020-0188,2021-10-04,12:38:02,21:51:06,NA,incomplete,false,true,NA,4,8,syllable,a_2_020.jpg,right,1 syllable,2 syllables,NA,NA,NA,right,1599.89999999851,true,NA,NA,NA,NA,NA
avjhouki,NA,NA,avjhouki,2020-0188,2021-10-04,12:38:02,21:51:06,NA,incomplete,false,true,NA,4,9,syllable,c_2_004.jpg,right,2 syllables,1 syllable,NA,NA,NA,left,1782.80000000447,false,NA,NA,NA,NA,NA
avjhouki,NA,NA,avjhouki,2020-0188,2021-10-04,12:38:02,21:51:06,NA,incomplete,false,true,NA,4,10,location,o_c_011.jpg,left,outdoor,indoor,NA,NA,NA,left,2017.60000000149,true,NA,NA,NA,NA,NA
avjhouki,NA,NA,avjhouki,2020-0188,2021-10-04,12:38:02,21:51:06,NA,incomplete,false,true,NA,4,11,location,i_s_017.jpg,right,outdoor,indoor,NA,NA,NA,right,1362.39999999851,true,NA,NA,NA,NA,NA
avjhouki,NA,NA,avjhouki,2020-0188,2021-10-04,12:38:02,21:51:06,NA,incomplete,false,true,NA,4,12,location,o_c_014.jpg,left,outdoor,indoor,NA,NA,NA,left,1641.39999999851,true,NA,NA,NA,NA,NA
avjhouki,NA,NA,avjhouki,2020-0188,2021-10-04,12:38:02,21:51:06,NA,incomplete,false,true,NA,4,13,location,o_c_020.jpg,left,outdoor,indoor,NA,NA,NA,left,1024.59999999404,true,NA,NA,NA,NA,NA
avjhouki,NA,NA,avjhouki,2020-0188,2021-10-04,12:38:02,21:51:06,NA,incomplete,false,true,NA,4,14,location,i_c_019.jpg,left,indoor,outdoor,NA,NA,NA,left,1333.79999999702,true,NA,NA,NA,NA,NA
avjhouki,NA,NA,avjhouki,2020-0188,2021-10-04,12:38:02,21:51:06,NA,incomplete,false,true,NA,4,15,building,i_c_007.jpg,right,skyscraper,cottage,NA,NA,NA,right,1905.19999999553,true,NA,NA,NA,NA,NA
avjhouki,NA,NA,avjhouki,2020-0188,2021-10-04,12:38:02,21:51:06,NA,incomplete,false,true,NA,4,16,building,i_s_007.jpg,left,skyscraper,cottage,NA,NA,NA,left,1007.60000000149,true,NA,NA,NA,NA,NA
avjhouki,NA,NA,avjhouki,2020-0188,2021-10-04,12:38:02,21:51:06,NA,incomplete,false,true,NA,4,17,building,i_s_006.jpg,right,cottage,skyscraper,NA,NA,NA,right,2066.89999999851,true,NA,NA,NA,NA,NA
avjhouki,NA,NA,avjhouki,2020-0188,2021-10-04,12:38:02,21:51:06,NA,incomplete,false,true,NA,4,18,building,i_c_023.jpg,left,cottage,skyscraper,NA,NA,NA,left,2702.79999999702,true,NA,NA,NA,NA,NA
avjhouki,NA,NA,avjhouki,2020-0188,2021-10-04,12:38:02,21:51:06,NA,incomplete,false,true,NA,4,19,building,o_c_004.jpg,left,cottage,skyscraper,NA,NA,NA,left,942.79999999702,true,NA,NA,NA,NA,NA
avjhouki,NA,NA,avjhouki,2020-0188,2021-10-04,12:38:02,21:51:06,NA,incomplete,false,true,NA,4,20,origin,n_l_025.jpg,right,manmade,natural,NA,NA,NA,right,1399.5,true,NA,NA,NA,NA,NA
avjhouki,NA,NA,avjhouki,2020-0188,2021-10-04,12:38:02,21:51:06,NA,incomplete,false,true,NA,4,21,origin,n_s_002.jpg,right,manmade,natural,NA,NA,NA,right,1297.5,true,NA,NA,NA,NA,NA
avjhouki,NA,NA,avjhouki,2020-0188,2021-10-04,12:38:02,21:51:06,NA,incomplete,false,true,NA,4,22,origin,m_s_010.jpg,right,natural,manmade,NA,NA,NA,right,996.30000000447,true,NA,NA,NA,NA,NA
avjhouki,NA,NA,avjhouki,2020-0188,2021-10-04,12:38:02,21:51:06,NA,incomplete,false,true,NA,4,23,origin,n_s_012.jpg,right,manmade,natural,NA,NA,NA,right,920.39999999851,true,NA,NA,NA,NA,NA
avjhouki,NA,NA,avjhouki,2020-0188,2021-10-04,12:38:02,21:51:06,NA,incomplete,false,true,NA,4,24,origin,n_l_011.jpg,right,manmade,natural,NA,NA,NA,right,1813.40000000596,true,NA,NA,NA,NA,NA
avjhouki,NA,NA,avjhouki,2020-0188,2021-10-04,12:38:02,21:51:06,NA,incomplete,false,true,NA,4,25,size,n_l_007.jpg,right,small,large,NA,NA,NA,right,1873.89999999851,true,NA,NA,NA,NA,NA
avjhouki,NA,NA,avjhouki,2020-0188,2021-10-04,12:38:02,21:51:06,NA,incomplete,false,true,NA,4,26,size,n_l_015.jpg,right,small,large,NA,NA,NA,right,1323.70000000298,true,NA,NA,NA,NA,NA
avjhouki,NA,NA,avjhouki,2020-0188,2021-10-04,12:38:02,21:51:06,NA,incomplete,false,true,NA,4,27,size,m_s_026.jpg,right,large,small,NA,NA,NA,right,1894.39999999851,true,NA,NA,NA,NA,NA
avjhouki,NA,NA,avjhouki,2020-0188,2021-10-04,12:38:02,21:51:06,NA,incomplete,false,true,NA,4,28,size,n_s_023.jpg,right,large,small,NA,NA,NA,right,1078.90000000596,true,NA,NA,NA,NA,NA
avjhouki,NA,NA,avjhouki,2020-0188,2021-10-04,12:38:02,21:51:06,NA,incomplete,false,true,NA,4,29,size,m_l_020.jpg,left,large,small,NA,NA,NA,right,1192.90000000596,false,NA,NA,NA,NA,NA
avjhouki,NA,NA,avjhouki,2020-0188,2021-10-04,12:38:02,21:51:06,NA,incomplete,false,NA,true,4,0,NA,NA,left,NA,NA,a_2_009.jpg,c_1_009.jpg,within,NA,NaN,NA,left,5774.79999999702,1,3,1427.3999999985099
avjhouki,NA,NA,avjhouki,2020-0188,2021-10-04,12:38:02,21:51:06,NA,incomplete,false,NA,true,4,1,NA,NA,right,NA,NA,o_c_020.jpg,o_c_011.jpg,within,NA,NaN,NA,right,4428.19999999553,1,1,1353.2000000029802
avjhouki,NA,NA,avjhouki,2020-0188,2021-10-04,12:38:02,21:51:06,NA,incomplete,false,NA,true,4,2,NA,NA,left,NA,NA,i_c_007.jpg,i_c_023.jpg,within,NA,NaN,NA,left,2899.89999999851,1,1,2434
avjhouki,NA,NA,avjhouki,2020-0188,2021-10-04,12:38:02,21:51:06,NA,incomplete,false,NA,true,4,3,NA,NA,left,NA,NA,n_l_007.jpg,n_s_023.jpg,within,NA,NaN,NA,right,2720.60000000149,0,1,1786.5
avjhouki,NA,NA,avjhouki,2020-0188,2021-10-04,12:38:02,21:51:06,NA,incomplete,false,NA,true,4,4,NA,NA,right,NA,NA,n_l_015.jpg,n_s_012.jpg,between-small,NA,NaN,NA,right,2638,1,0,1559.5
avjhouki,NA,NA,avjhouki,2020-0188,2021-10-04,12:38:02,21:51:06,NA,incomplete,false,NA,true,4,5,NA,NA,right,NA,NA,i_s_007.jpg,o_c_020.jpg,between-small,NA,NaN,NA,left,2827.89999999851,0,1,2034.1000000014901
avjhouki,NA,NA,avjhouki,2020-0188,2021-10-04,12:38:02,21:51:06,NA,incomplete,false,NA,true,4,6,NA,NA,left,NA,NA,i_c_023.jpg,n_s_002.jpg,between-big,NA,NaN,NA,right,2851.39999999851,0,1,1814.1000000014901
avjhouki,NA,NA,avjhouki,2020-0188,2021-10-04,12:38:02,21:51:06,NA,incomplete,false,NA,true,4,7,NA,NA,left,NA,NA,n_l_025.jpg,n_s_012.jpg,within,NA,NaN,NA,left,4739.60000000149,1,1,1551.3999999985099
avjhouki,NA,NA,avjhouki,2020-0188,2021-10-04,12:38:02,21:51:06,NA,incomplete,false,NA,true,4,8,NA,NA,left,NA,NA,i_c_019.jpg,i_s_006.jpg,between-small,NA,NaN,NA,left,2090.2000000029802,1,1,1495.8999999985099
avjhouki,NA,NA,avjhouki,2020-0188,2021-10-04,12:38:02,21:51:06,NA,incomplete,false,NA,true,4,9,NA,NA,left,NA,NA,c_1_009.jpg,a_2_013.jpg,between-small,NA,NaN,NA,left,2948.7999999970198,1,1,1747
avjhouki,NA,NA,avjhouki,2020-0188,2021-10-04,12:38:02,21:51:06,NA,incomplete,false,NA,true,4,10,NA,NA,right,NA,NA,n_l_011.jpg,n_s_002.jpg,within,NA,NaN,NA,right,3756.2999999970198,1,0,2721
avjhouki,NA,NA,avjhouki,2020-0188,2021-10-04,12:38:02,21:51:06,NA,incomplete,false,NA,true,4,11,NA,NA,right,NA,NA,o_c_014.jpg,c_2_004.jpg,between-big,NA,NaN,NA,left,3529.1999999955297,0,3,4624.29999999702
avjhouki,NA,NA,avjhouki,2020-0188,2021-10-04,12:38:02,21:51:06,NA,incomplete,false,NA,true,4,12,NA,NA,left,NA,NA,i_s_007.jpg,o_c_004.jpg,within,NA,NaN,NA,right,3191.8000000044703,0,1,1895.6999999955297
avjhouki,NA,NA,avjhouki,2020-0188,2021-10-04,12:38:02,21:51:06,NA,incomplete,false,NA,true,4,13,NA,NA,right,NA,NA,c_2_022.jpg,a_2_002.jpg,between-small,NA,NaN,NA,left,3789.60000000149,0,1,1591.8999999985099
avjhouki,NA,NA,avjhouki,2020-0188,2021-10-04,12:38:02,21:51:06,NA,incomplete,false,NA,true,4,14,NA,NA,left,NA,NA,n_l_011.jpg,m_s_026.jpg,between-small,NA,NaN,NA,right,1880.6000000014901,0,1,1608.2999999970198
avjhouki,NA,NA,avjhouki,2020-0188,2021-10-04,12:38:02,21:51:06,NA,incomplete,false,NA,true,4,15,NA,NA,right,NA,NA,i_c_007.jpg,o_c_014.jpg,between-small,NA,NaN,NA,left,3409.10000000149,0,1,1504.0999999940395
avjhouki,NA,NA,avjhouki,2020-0188,2021-10-04,12:38:02,21:51:06,NA,incomplete,false,NA,true,4,16,NA,NA,right,NA,NA,m_l_020.jpg,n_l_015.jpg,within,NA,NaN,NA,right,1747.5,1,2,2395.60000000149
avjhouki,NA,NA,avjhouki,2020-0188,2021-10-04,12:38:02,21:51:06,NA,incomplete,false,NA,true,4,17,NA,NA,left,NA,NA,a_2_025.jpg,a_2_020.jpg,within,NA,NaN,NA,left,1937.1000000014901,1,1,1478.3000000044703
avjhouki,NA,NA,avjhouki,2020-0188,2021-10-04,12:38:02,21:51:06,NA,incomplete,false,NA,true,4,18,NA,NA,right,NA,NA,a_2_025.jpg,c_2_020.jpg,between-small,NA,NaN,NA,right,2528.7999999970198,1,2,1412.1999999955297
avjhouki,NA,NA,avjhouki,2020-0188,2021-10-04,12:38:02,21:51:06,NA,incomplete,false,NA,true,4,19,NA,NA,left,NA,NA,i_s_017.jpg,i_c_019.jpg,within,NA,NaN,NA,right,2727.10000000149,0,1,2662.7999999970198
avjhouki,NA,NA,avjhouki,2020-0188,2021-10-04,12:38:02,21:51:06,NA,incomplete,false,NA,true,4,20,NA,NA,left,NA,NA,a_2_020.jpg,i_s_017.jpg,between-big,NA,NaN,NA,right,48614.80000000447,0,2,1475.2999999970198
avjhouki,NA,NA,avjhouki,2020-0188,2021-10-04,12:38:02,21:51:06,NA,incomplete,false,NA,true,4,21,NA,NA,right,NA,NA,n_l_025.jpg,i_s_006.jpg,between-big,NA,NaN,NA,left,1658.4000000059605,0,2,2883.8000000044703
avjhouki,NA,NA,avjhouki,2020-0188,2021-10-04,12:38:02,21:51:06,NA,incomplete,false,NA,true,4,22,NA,NA,right,NA,NA,o_c_011.jpg,a_2_013.jpg,between-big,NA,NaN,NA,left,4600.60000000149,0,2,1648.8000000044703
avjhouki,NA,NA,avjhouki,2020-0188,2021-10-04,12:38:02,21:51:06,NA,incomplete,false,NA,true,4,23,NA,NA,right,NA,NA,a_2_002.jpg,c_1_028.jpg,within,NA,NaN,NA,left,2606.1999999955297,0,2,2041.5
avjhouki,NA,NA,avjhouki,2020-0188,2021-10-04,12:38:02,21:51:06,NA,incomplete,false,NA,true,4,24,NA,NA,left,NA,NA,c_2_022.jpg,c_2_004.jpg,within,NA,NaN,NA,left,2082.7999999970198,1,2,1101.8000000044703
avjhouki,NA,NA,avjhouki,2020-0188,2021-10-04,12:38:02,21:51:06,NA,incomplete,false,NA,true,4,25,NA,NA,right,NA,NA,n_l_007.jpg,m_s_010.jpg,between-small,NA,NaN,NA,right,3096.2000000029802,1,1,2238.6999999955297
avjhouki,NA,NA,avjhouki,2020-0188,2021-10-04,12:38:02,21:51:06,NA,incomplete,false,NA,true,4,26,NA,NA,right,NA,NA,m_s_010.jpg,o_c_004.jpg,between-big,NA,NaN,NA,left,4338.60000000149,0,2,2089.9000000059605
avjhouki,NA,NA,avjhouki,2020-0188,2021-10-04,12:38:02,21:51:06,NA,incomplete,false,true,NA,5,0,origin,n_l_014.jpg,right,manmade,natural,NA,NA,NA,right,1860.39999999851,true,NA,NA,NA,NA,NA
avjhouki,NA,NA,avjhouki,2020-0188,2021-10-04,12:38:02,21:51:06,NA,incomplete,false,true,NA,5,1,origin,n_l_016.jpg,right,manmade,natural,NA,NA,NA,right,1468.29999999702,true,NA,NA,NA,NA,NA
avjhouki,NA,NA,avjhouki,2020-0188,2021-10-04,12:38:02,21:51:06,NA,incomplete,false,true,NA,5,2,origin,n_s_006.jpg,right,manmade,natural,NA,NA,NA,right,1453.09999999404,true,NA,NA,NA,NA,NA
avjhouki,NA,NA,avjhouki,2020-0188,2021-10-04,12:38:02,21:51:06,NA,incomplete,false,true,NA,5,3,origin,m_s_003.jpg,right,natural,manmade,NA,NA,NA,right,1899,true,NA,NA,NA,NA,NA
avjhouki,NA,NA,avjhouki,2020-0188,2021-10-04,12:38:02,21:51:06,NA,incomplete,false,true,NA,5,4,origin,n_s_019.jpg,left,natural,manmade,NA,NA,NA,left,1322.60000000149,true,NA,NA,NA,NA,NA
avjhouki,NA,NA,avjhouki,2020-0188,2021-10-04,12:38:02,21:51:06,NA,incomplete,false,true,NA,5,5,size,m_s_016.jpg,right,large,small,NA,NA,NA,right,1259.70000000298,true,NA,NA,NA,NA,NA
avjhouki,NA,NA,avjhouki,2020-0188,2021-10-04,12:38:02,21:51:06,NA,incomplete,false,true,NA,5,6,size,m_s_023.jpg,left,small,large,NA,NA,NA,left,1139.20000000298,true,NA,NA,NA,NA,NA
avjhouki,NA,NA,avjhouki,2020-0188,2021-10-04,12:38:02,21:51:06,NA,incomplete,false,true,NA,5,7,size,n_l_024.jpg,left,large,small,NA,NA,NA,left,1813,true,NA,NA,NA,NA,NA
avjhouki,NA,NA,avjhouki,2020-0188,2021-10-04,12:38:02,21:51:06,NA,incomplete,false,true,NA,5,8,size,m_s_006.jpg,right,large,small,NA,NA,NA,right,1468.59999999404,true,NA,NA,NA,NA,NA
avjhouki,NA,NA,avjhouki,2020-0188,2021-10-04,12:38:02,21:51:06,NA,incomplete,false,true,NA,5,9,size,n_l_001.jpg,left,large,small,NA,NA,NA,left,1636.80000000447,true,NA,NA,NA,NA,NA
avjhouki,NA,NA,avjhouki,2020-0188,2021-10-04,12:38:02,21:51:06,NA,incomplete,false,true,NA,5,10,syllable,c_2_008.jpg,right,2 syllables,1 syllable,NA,NA,NA,left,2996.39999999851,false,NA,NA,NA,NA,NA
avjhouki,NA,NA,avjhouki,2020-0188,2021-10-04,12:38:02,21:51:06,NA,incomplete,false,true,NA,5,11,syllable,c_2_021.jpg,right,1 syllable,2 syllables,NA,NA,NA,right,1905.40000000596,true,NA,NA,NA,NA,NA
avjhouki,NA,NA,avjhouki,2020-0188,2021-10-04,12:38:02,21:51:06,NA,incomplete,false,true,NA,5,12,syllable,a_1_020.jpg,right,2 syllables,1 syllable,NA,NA,NA,right,1474.10000000149,true,NA,NA,NA,NA,NA
avjhouki,NA,NA,avjhouki,2020-0188,2021-10-04,12:38:02,21:51:06,NA,incomplete,false,true,NA,5,13,syllable,c_2_011.jpg,right,2 syllables,1 syllable,NA,NA,NA,left,1639.19999999553,false,NA,NA,NA,NA,NA
avjhouki,NA,NA,avjhouki,2020-0188,2021-10-04,12:38:02,21:51:06,NA,incomplete,false,true,NA,5,14,syllable,a_2_008.jpg,right,2 syllables,1 syllable,NA,NA,NA,left,1616,false,NA,NA,NA,NA,NA
avjhouki,NA,NA,avjhouki,2020-0188,2021-10-04,12:38:02,21:51:06,NA,incomplete,false,true,NA,5,15,abstractness,a_1_008.jpg,right,concrete,abstract,NA,NA,NA,right,2579.30000000447,true,NA,NA,NA,NA,NA
avjhouki,NA,NA,avjhouki,2020-0188,2021-10-04,12:38:02,21:51:06,NA,incomplete,false,true,NA,5,16,abstractness,a_2_018.jpg,left,abstract,concrete,NA,NA,NA,left,2134.89999999851,true,NA,NA,NA,NA,NA
avjhouki,NA,NA,avjhouki,2020-0188,2021-10-04,12:38:02,21:51:06,NA,incomplete,false,true,NA,5,17,abstractness,a_1_024.jpg,right,concrete,abstract,NA,NA,NA,right,1979.30000000447,true,NA,NA,NA,NA,NA
avjhouki,NA,NA,avjhouki,2020-0188,2021-10-04,12:38:02,21:51:06,NA,incomplete,false,true,NA,5,18,abstractness,c_1_020.jpg,left,concrete,abstract,NA,NA,NA,left,1709,true,NA,NA,NA,NA,NA
avjhouki,NA,NA,avjhouki,2020-0188,2021-10-04,12:38:02,21:51:06,NA,incomplete,false,true,NA,5,19,abstractness,a_2_024.jpg,right,concrete,abstract,NA,NA,NA,right,2543.5,true,NA,NA,NA,NA,NA
avjhouki,NA,NA,avjhouki,2020-0188,2021-10-04,12:38:02,21:51:06,NA,incomplete,false,true,NA,5,20,building,i_c_017.jpg,left,cottage,skyscraper,NA,NA,NA,left,1738.20000000298,true,NA,NA,NA,NA,NA
avjhouki,NA,NA,avjhouki,2020-0188,2021-10-04,12:38:02,21:51:06,NA,incomplete,false,true,NA,5,21,building,o_c_010.jpg,right,skyscraper,cottage,NA,NA,NA,right,1493.80000000447,true,NA,NA,NA,NA,NA
avjhouki,NA,NA,avjhouki,2020-0188,2021-10-04,12:38:02,21:51:06,NA,incomplete,false,true,NA,5,22,building,i_c_003.jpg,right,skyscraper,cottage,NA,NA,NA,right,976.90000000596,true,NA,NA,NA,NA,NA
avjhouki,NA,NA,avjhouki,2020-0188,2021-10-04,12:38:02,21:51:06,NA,incomplete,false,true,NA,5,23,building,o_c_009.jpg,right,skyscraper,cottage,NA,NA,NA,right,811,true,NA,NA,NA,NA,NA
avjhouki,NA,NA,avjhouki,2020-0188,2021-10-04,12:38:02,21:51:06,NA,incomplete,false,true,NA,5,24,building,i_s_003.jpg,left,skyscraper,cottage,NA,NA,NA,left,1880.39999999851,true,NA,NA,NA,NA,NA
avjhouki,NA,NA,avjhouki,2020-0188,2021-10-04,12:38:02,21:51:06,NA,incomplete,false,true,NA,5,25,location,i_c_024.jpg,left,indoor,outdoor,NA,NA,NA,left,2408.30000000447,true,NA,NA,NA,NA,NA
avjhouki,NA,NA,avjhouki,2020-0188,2021-10-04,12:38:02,21:51:06,NA,incomplete,false,true,NA,5,26,location,o_s_019.jpg,left,outdoor,indoor,NA,NA,NA,left,1690.90000000596,true,NA,NA,NA,NA,NA
avjhouki,NA,NA,avjhouki,2020-0188,2021-10-04,12:38:02,21:51:06,NA,incomplete,false,true,NA,5,27,location,o_c_003.jpg,right,indoor,outdoor,NA,NA,NA,right,2089.79999999702,true,NA,NA,NA,NA,NA
avjhouki,NA,NA,avjhouki,2020-0188,2021-10-04,12:38:02,21:51:06,NA,incomplete,false,true,NA,5,28,location,o_s_011.jpg,right,indoor,outdoor,NA,NA,NA,right,1662.10000000149,true,NA,NA,NA,NA,NA
avjhouki,NA,NA,avjhouki,2020-0188,2021-10-04,12:38:02,21:51:06,NA,incomplete,false,true,NA,5,29,location,o_s_012.jpg,left,outdoor,indoor,NA,NA,NA,left,1662.79999999702,true,NA,NA,NA,NA,NA
avjhouki,NA,NA,avjhouki,2020-0188,2021-10-04,12:38:02,21:51:06,NA,incomplete,false,NA,true,5,0,NA,NA,right,NA,NA,a_1_020.jpg,n_l_001.jpg,between-big,NA,NaN,NA,right,42405.70000000298,1,2,4330.60000000149
avjhouki,NA,NA,avjhouki,2020-0188,2021-10-04,12:38:02,21:51:06,NA,incomplete,false,NA,true,5,1,NA,NA,right,NA,NA,n_l_001.jpg,m_s_023.jpg,within,NA,NaN,NA,right,2857.7000000029802,1,2,1590.7000000029802
avjhouki,NA,NA,avjhouki,2020-0188,2021-10-04,12:38:02,21:51:06,NA,incomplete,false,NA,true,5,2,NA,NA,right,NA,NA,a_2_008.jpg,c_2_021.jpg,within,NA,NaN,NA,right,3560.89999999851,1,1,3644.10000000149
avjhouki,NA,NA,avjhouki,2020-0188,2021-10-04,12:38:02,21:51:06,NA,incomplete,false,NA,true,5,3,NA,NA,right,NA,NA,o_c_009.jpg,i_c_017.jpg,within,NA,NaN,NA,right,3338.2000000029802,1,1,4375.10000000149
avjhouki,NA,NA,avjhouki,2020-0188,2021-10-04,12:38:02,21:51:06,NA,incomplete,false,NA,true,5,4,NA,NA,right,NA,NA,a_1_024.jpg,a_2_008.jpg,between-small,NA,NaN,NA,left,3039.9000000059605,0,2,1577
avjhouki,NA,NA,avjhouki,2020-0188,2021-10-04,12:38:02,21:51:06,NA,incomplete,false,NA,true,5,5,NA,NA,left,NA,NA,n_l_014.jpg,m_s_003.jpg,within,NA,NaN,NA,left,27917.89999999851,1,1,2258.5
avjhouki,NA,NA,avjhouki,2020-0188,2021-10-04,12:38:02,21:51:06,NA,incomplete,false,NA,true,5,6,NA,NA,right,NA,NA,o_c_010.jpg,c_1_020.jpg,between-big,NA,NaN,NA,left,2426.60000000149,0,1,3647.3000000044703
avjhouki,NA,NA,avjhouki,2020-0188,2021-10-04,12:38:02,21:51:06,NA,incomplete,false,NA,true,5,7,NA,NA,left,NA,NA,o_c_009.jpg,o_s_019.jpg,between-small,NA,NaN,NA,left,3186.2000000029802,1,1,1542.1000000014901
avjhouki,NA,NA,avjhouki,2020-0188,2021-10-04,12:38:02,21:51:06,NA,incomplete,false,NA,true,5,8,NA,NA,left,NA,NA,n_l_024.jpg,c_2_008.jpg,between-big,NA,NaN,NA,left,4640.89999999851,1,1,2638.10000000149
avjhouki,NA,NA,avjhouki,2020-0188,2021-10-04,12:38:02,21:51:06,NA,incomplete,false,NA,true,5,9,NA,NA,right,NA,NA,o_s_012.jpg,o_s_019.jpg,within,NA,NaN,NA,left,2907.7999999970198,0,1,1471
avjhouki,NA,NA,avjhouki,2020-0188,2021-10-04,12:38:02,21:51:06,NA,incomplete,false,NA,true,5,10,NA,NA,left,NA,NA,a_2_024.jpg,i_c_003.jpg,between-big,NA,NaN,NA,right,3791.3000000044703,0,1,1485.5
avjhouki,NA,NA,avjhouki,2020-0188,2021-10-04,12:38:02,21:51:06,NA,incomplete,false,NA,true,5,11,NA,NA,left,NA,NA,n_s_019.jpg,n_l_024.jpg,between-small,NA,NaN,NA,right,1413.1999999955297,0,1,2132.4000000059605
avjhouki,NA,NA,avjhouki,2020-0188,2021-10-04,12:38:02,21:51:06,NA,incomplete,false,NA,true,5,12,NA,NA,right,NA,NA,i_s_003.jpg,o_c_010.jpg,within,NA,NaN,NA,left,2901.2000000029802,0,1,1592.8999999985099
avjhouki,NA,NA,avjhouki,2020-0188,2021-10-04,12:38:02,21:51:06,NA,incomplete,false,NA,true,5,13,NA,NA,right,NA,NA,c_1_020.jpg,a_1_008.jpg,within,NA,NaN,NA,right,3580.89999999851,1,1,1862.6000000014901
avjhouki,NA,NA,avjhouki,2020-0188,2021-10-04,12:38:02,21:51:06,NA,incomplete,false,NA,true,5,14,NA,NA,left,NA,NA,a_2_018.jpg,a_2_024.jpg,within,NA,NaN,NA,right,3938.39999999851,0,1,1797.6000000014901
avjhouki,NA,NA,avjhouki,2020-0188,2021-10-04,12:38:02,21:51:06,NA,incomplete,false,NA,true,5,15,NA,NA,left,NA,NA,c_2_008.jpg,c_2_011.jpg,within,NA,NaN,NA,left,29054.5,1,1,1633.8000000044703
avjhouki,NA,NA,avjhouki,2020-0188,2021-10-04,12:38:02,21:51:06,NA,incomplete,false,NA,true,5,16,NA,NA,right,NA,NA,i_c_024.jpg,i_c_003.jpg,between-small,NA,NaN,NA,right,3039.2999999970198,1,1,4754.5
avjhouki,NA,NA,avjhouki,2020-0188,2021-10-04,12:38:02,21:51:06,NA,incomplete,false,NA,true,5,17,NA,NA,right,NA,NA,n_s_019.jpg,n_l_016.jpg,within,NA,NaN,NA,right,2451.5,1,2,2205.89999999851
avjhouki,NA,NA,avjhouki,2020-0188,2021-10-04,12:38:02,21:51:06,NA,incomplete,false,NA,true,5,18,NA,NA,left,NA,NA,n_s_006.jpg,m_s_016.jpg,between-small,NA,NaN,NA,right,30739.80000000447,0,1,2295
avjhouki,NA,NA,avjhouki,2020-0188,2021-10-04,12:38:02,21:51:06,NA,incomplete,false,NA,true,5,19,NA,NA,right,NA,NA,a_2_018.jpg,c_2_011.jpg,between-small,NA,NaN,NA,left,4414.39999999851,0,1,4879
avjhouki,NA,NA,avjhouki,2020-0188,2021-10-04,12:38:02,21:51:06,NA,incomplete,false,NA,true,5,20,NA,NA,left,NA,NA,a_1_024.jpg,i_c_017.jpg,between-big,NA,NaN,NA,right,5173.20000000298,0,2,3506.39999999851
avjhouki,NA,NA,avjhouki,2020-0188,2021-10-04,12:38:02,21:51:06,NA,incomplete,false,NA,true,5,21,NA,NA,left,NA,NA,a_1_020.jpg,a_1_008.jpg,between-small,NA,NaN,NA,right,2050.39999999851,0,1,2247.7999999970198
avjhouki,NA,NA,avjhouki,2020-0188,2021-10-04,12:38:02,21:51:06,NA,incomplete,false,NA,true,5,22,NA,NA,left,NA,NA,i_c_024.jpg,o_s_011.jpg,within,NA,NaN,NA,right,3039.6999999955297,0,1,1631.1000000014901
avjhouki,NA,NA,avjhouki,2020-0188,2021-10-04,12:38:02,21:51:06,NA,incomplete,false,NA,true,5,23,NA,NA,left,NA,NA,m_s_006.jpg,c_2_021.jpg,between-big,NA,NaN,NA,left,3097.5,1,2,2737.60000000149
avjhouki,NA,NA,avjhouki,2020-0188,2021-10-04,12:38:02,21:51:06,NA,incomplete,false,NA,true,5,24,NA,NA,left,NA,NA,m_s_016.jpg,m_s_006.jpg,within,NA,NaN,NA,right,1951.8000000044703,0,2,3456
avjhouki,NA,NA,avjhouki,2020-0188,2021-10-04,12:38:02,21:51:06,NA,incomplete,false,NA,true,5,25,NA,NA,right,NA,NA,m_s_023.jpg,m_s_003.jpg,between-small,NA,NaN,NA,right,3350,1,1,1560.5
avjhouki,NA,NA,avjhouki,2020-0188,2021-10-04,12:38:02,21:51:06,NA,incomplete,false,NA,true,5,26,NA,NA,left,NA,NA,i_s_003.jpg,o_c_003.jpg,between-small,NA,NaN,NA,right,2197.1999999955297,0,1,1598.1000000014901
avjhouki,NA,NA,avjhouki,2020-0188,2021-10-04,12:38:02,21:51:06,NA,incomplete,false,true,NA,6,0,building,o_s_003.jpg,right,cottage,skyscraper,NA,NA,NA,right,1942.10000000149,true,NA,NA,NA,NA,NA
avjhouki,NA,NA,avjhouki,2020-0188,2021-10-04,12:38:02,21:51:06,NA,incomplete,false,true,NA,6,1,building,o_s_014.jpg,left,skyscraper,cottage,NA,NA,NA,left,1316.5,true,NA,NA,NA,NA,NA
avjhouki,NA,NA,avjhouki,2020-0188,2021-10-04,12:38:02,21:51:06,NA,incomplete,false,true,NA,6,2,building,o_c_002.jpg,right,skyscraper,cottage,NA,NA,NA,right,1121.19999999553,true,NA,NA,NA,NA,NA
avjhouki,NA,NA,avjhouki,2020-0188,2021-10-04,12:38:02,21:51:06,NA,incomplete,false,true,NA,6,3,building,i_s_002.jpg,right,cottage,skyscraper,NA,NA,NA,right,1770.10000000149,true,NA,NA,NA,NA,NA
avjhouki,NA,NA,avjhouki,2020-0188,2021-10-04,12:38:02,21:51:06,NA,incomplete,false,true,NA,6,4,building,o_c_007.jpg,left,cottage,skyscraper,NA,NA,NA,left,1285.30000000447,true,NA,NA,NA,NA,NA
avjhouki,NA,NA,avjhouki,2020-0188,2021-10-04,12:38:02,21:51:06,NA,incomplete,false,true,NA,6,5,location,o_s_013.jpg,left,outdoor,indoor,NA,NA,NA,left,1391.89999999851,true,NA,NA,NA,NA,NA
avjhouki,NA,NA,avjhouki,2020-0188,2021-10-04,12:38:02,21:51:06,NA,incomplete,false,true,NA,6,6,location,i_s_026.jpg,right,outdoor,indoor,NA,NA,NA,none,0,false,NA,NA,NA,NA,NA
avjhouki,NA,NA,avjhouki,2020-0188,2021-10-04,12:38:02,21:51:06,NA,incomplete,false,true,NA,6,7,location,i_c_004.jpg,left,indoor,outdoor,NA,NA,NA,left,2961.19999999553,true,NA,NA,NA,NA,NA
avjhouki,NA,NA,avjhouki,2020-0188,2021-10-04,12:38:02,21:51:06,NA,incomplete,false,true,NA,6,8,location,i_s_008.jpg,right,outdoor,indoor,NA,NA,NA,right,1487.89999999851,true,NA,NA,NA,NA,NA
avjhouki,NA,NA,avjhouki,2020-0188,2021-10-04,12:38:02,21:51:06,NA,incomplete,false,true,NA,6,9,location,i_c_002.jpg,left,indoor,outdoor,NA,NA,NA,left,1473.20000000298,true,NA,NA,NA,NA,NA
avjhouki,NA,NA,avjhouki,2020-0188,2021-10-04,12:38:02,21:51:06,NA,incomplete,false,true,NA,6,10,abstractness,a_2_014.jpg,right,concrete,abstract,NA,NA,NA,right,2068.89999999851,true,NA,NA,NA,NA,NA
avjhouki,NA,NA,avjhouki,2020-0188,2021-10-04,12:38:02,21:51:06,NA,incomplete,false,true,NA,6,11,abstractness,a_2_005.jpg,left,abstract,concrete,NA,NA,NA,left,1326.79999999702,true,NA,NA,NA,NA,NA
avjhouki,NA,NA,avjhouki,2020-0188,2021-10-04,12:38:02,21:51:06,NA,incomplete,false,true,NA,6,12,abstractness,a_1_027.jpg,left,abstract,concrete,NA,NA,NA,left,1835.19999999553,true,NA,NA,NA,NA,NA
avjhouki,NA,NA,avjhouki,2020-0188,2021-10-04,12:38:02,21:51:06,NA,incomplete,false,true,NA,6,13,abstractness,a_1_023.jpg,right,concrete,abstract,NA,NA,NA,right,2773.79999999702,true,NA,NA,NA,NA,NA
avjhouki,NA,NA,avjhouki,2020-0188,2021-10-04,12:38:02,21:51:06,NA,incomplete,false,true,NA,6,14,abstractness,c_2_027.jpg,left,concrete,abstract,NA,NA,NA,left,2240.90000000596,true,NA,NA,NA,NA,NA
avjhouki,NA,NA,avjhouki,2020-0188,2021-10-04,12:38:02,21:51:06,NA,incomplete,false,true,NA,6,15,syllable,c_2_005.jpg,right,2 syllables,1 syllable,NA,NA,NA,left,1744.20000000298,false,NA,NA,NA,NA,NA
avjhouki,NA,NA,avjhouki,2020-0188,2021-10-04,12:38:02,21:51:06,NA,incomplete,false,true,NA,6,16,syllable,c_1_011.jpg,right,2 syllables,1 syllable,NA,NA,NA,right,1080.39999999851,true,NA,NA,NA,NA,NA
avjhouki,NA,NA,avjhouki,2020-0188,2021-10-04,12:38:02,21:51:06,NA,incomplete,false,true,NA,6,17,syllable,a_1_006.jpg,right,2 syllables,1 syllable,NA,NA,NA,right,2028.60000000149,true,NA,NA,NA,NA,NA
avjhouki,NA,NA,avjhouki,2020-0188,2021-10-04,12:38:02,21:51:06,NA,incomplete,false,true,NA,6,18,syllable,a_1_001.jpg,right,1 syllable,2 syllables,NA,NA,NA,left,1273.60000000149,false,NA,NA,NA,NA,NA
avjhouki,NA,NA,avjhouki,2020-0188,2021-10-04,12:38:02,21:51:06,NA,incomplete,false,true,NA,6,19,syllable,a_1_022.jpg,right,2 syllables,1 syllable,NA,NA,NA,right,1140.70000000298,true,NA,NA,NA,NA,NA
avjhouki,NA,NA,avjhouki,2020-0188,2021-10-04,12:38:02,21:51:06,NA,incomplete,false,true,NA,6,20,origin,m_s_020.jpg,left,manmade,natural,NA,NA,NA,left,1830.39999999851,true,NA,NA,NA,NA,NA
avjhouki,NA,NA,avjhouki,2020-0188,2021-10-04,12:38:02,21:51:06,NA,incomplete,false,true,NA,6,21,origin,m_l_011.jpg,right,natural,manmade,NA,NA,NA,right,1925.69999999553,true,NA,NA,NA,NA,NA
avjhouki,NA,NA,avjhouki,2020-0188,2021-10-04,12:38:02,21:51:06,NA,incomplete,false,true,NA,6,22,origin,n_l_018.jpg,left,natural,manmade,NA,NA,NA,left,1355.39999999851,true,NA,NA,NA,NA,NA
avjhouki,NA,NA,avjhouki,2020-0188,2021-10-04,12:38:02,21:51:06,NA,incomplete,false,true,NA,6,23,origin,n_s_011.jpg,right,manmade,natural,NA,NA,NA,right,1156.70000000298,true,NA,NA,NA,NA,NA
avjhouki,NA,NA,avjhouki,2020-0188,2021-10-04,12:38:02,21:51:06,NA,incomplete,false,true,NA,6,24,origin,m_l_028.jpg,left,manmade,natural,NA,NA,NA,left,1091.69999999553,true,NA,NA,NA,NA,NA
avjhouki,NA,NA,avjhouki,2020-0188,2021-10-04,12:38:02,21:51:06,NA,incomplete,false,true,NA,6,25,size,m_l_003.jpg,left,large,small,NA,NA,NA,right,1437.39999999851,false,NA,NA,NA,NA,NA
avjhouki,NA,NA,avjhouki,2020-0188,2021-10-04,12:38:02,21:51:06,NA,incomplete,false,true,NA,6,26,size,n_l_023.jpg,left,large,small,NA,NA,NA,left,1089.5,true,NA,NA,NA,NA,NA
avjhouki,NA,NA,avjhouki,2020-0188,2021-10-04,12:38:02,21:51:06,NA,incomplete,false,true,NA,6,27,size,m_s_007.jpg,left,small,large,NA,NA,NA,left,1044.19999999553,true,NA,NA,NA,NA,NA
avjhouki,NA,NA,avjhouki,2020-0188,2021-10-04,12:38:02,21:51:06,NA,incomplete,false,true,NA,6,28,size,n_l_013.jpg,left,large,small,NA,NA,NA,left,1915,true,NA,NA,NA,NA,NA
avjhouki,NA,NA,avjhouki,2020-0188,2021-10-04,12:38:02,21:51:06,NA,incomplete,false,true,NA,6,29,size,n_s_025.jpg,left,small,large,NA,NA,NA,left,951,true,NA,NA,NA,NA,NA
avjhouki,NA,NA,avjhouki,2020-0188,2021-10-04,12:38:02,21:51:06,NA,incomplete,false,NA,true,6,0,NA,NA,left,NA,NA,o_c_007.jpg,i_c_004.jpg,between-small,NA,NaN,NA,right,6097.60000000149,0,2,1633.2000000029802
avjhouki,NA,NA,avjhouki,2020-0188,2021-10-04,12:38:02,21:51:06,NA,incomplete,false,NA,true,6,1,NA,NA,left,NA,NA,o_s_014.jpg,o_c_007.jpg,within,NA,NaN,NA,left,4072.10000000149,1,2,1347
avjhouki,NA,NA,avjhouki,2020-0188,2021-10-04,12:38:02,21:51:06,NA,incomplete,false,NA,true,6,2,NA,NA,right,NA,NA,n_s_025.jpg,n_l_023.jpg,within,NA,NaN,NA,right,4419.60000000149,1,1,1641.8999999985099
avjhouki,NA,NA,avjhouki,2020-0188,2021-10-04,12:38:02,21:51:06,NA,incomplete,false,NA,true,6,3,NA,NA,right,NA,NA,m_l_028.jpg,m_l_011.jpg,within,NA,NaN,NA,left,2737.60000000149,0,0,1657.7999999970198
avjhouki,NA,NA,avjhouki,2020-0188,2021-10-04,12:38:02,21:51:06,NA,incomplete,false,NA,true,6,4,NA,NA,left,NA,NA,a_1_023.jpg,c_1_011.jpg,between-small,NA,NaN,NA,right,3733.6999999955297,0,1,1404.8999999985099
avjhouki,NA,NA,avjhouki,2020-0188,2021-10-04,12:38:02,21:51:06,NA,incomplete,false,NA,true,6,5,NA,NA,right,NA,NA,m_l_003.jpg,n_l_018.jpg,between-small,NA,NaN,NA,left,4829.70000000298,0,1,1510.7000000029802
avjhouki,NA,NA,avjhouki,2020-0188,2021-10-04,12:38:02,21:51:06,NA,incomplete,false,NA,true,6,6,NA,NA,left,NA,NA,o_c_002.jpg,o_s_013.jpg,between-small,NA,NaN,NA,right,2996.7999999970198,0,1,1159.7000000029802
avjhouki,NA,NA,avjhouki,2020-0188,2021-10-04,12:38:02,21:51:06,NA,incomplete,false,NA,true,6,7,NA,NA,right,NA,NA,c_2_005.jpg,a_1_027.jpg,between-small,NA,NaN,NA,right,2925,1,1,1758.1000000014901
avjhouki,NA,NA,avjhouki,2020-0188,2021-10-04,12:38:02,21:51:06,NA,incomplete,false,NA,true,6,8,NA,NA,right,NA,NA,i_s_002.jpg,o_s_003.jpg,within,NA,NaN,NA,left,2785.7999999970198,0,1,1306.2999999970198
avjhouki,NA,NA,avjhouki,2020-0188,2021-10-04,12:38:02,21:51:06,NA,incomplete,false,NA,true,6,9,NA,NA,right,NA,NA,m_s_020.jpg,a_1_006.jpg,between-big,NA,NaN,NA,left,4649.70000000298,0,1,2475.89999999851
avjhouki,NA,NA,avjhouki,2020-0188,2021-10-04,12:38:02,21:51:06,NA,incomplete,false,NA,true,6,10,NA,NA,left,NA,NA,m_l_028.jpg,m_s_007.jpg,between-small,NA,NaN,NA,left,2687.5,1,1,1355.1999999955297
avjhouki,NA,NA,avjhouki,2020-0188,2021-10-04,12:38:02,21:51:06,NA,incomplete,false,NA,true,6,11,NA,NA,left,NA,NA,n_s_011.jpg,n_l_023.jpg,between-small,NA,NaN,NA,right,3039.10000000149,0,1,1247.5
avjhouki,NA,NA,avjhouki,2020-0188,2021-10-04,12:38:02,21:51:06,NA,incomplete,false,NA,true,6,12,NA,NA,right,NA,NA,a_1_006.jpg,c_2_027.jpg,between-small,NA,NaN,NA,right,2262.89999999851,1,2,2205.7999999970198
avjhouki,NA,NA,avjhouki,2020-0188,2021-10-04,12:38:02,21:51:06,NA,incomplete,false,NA,true,6,13,NA,NA,left,NA,NA,a_2_005.jpg,c_2_027.jpg,within,NA,NaN,NA,right,7190.39999999851,0,1,13247.39999999851
avjhouki,NA,NA,avjhouki,2020-0188,2021-10-04,12:38:02,21:51:06,NA,incomplete,false,NA,true,6,14,NA,NA,left,NA,NA,i_c_002.jpg,a_1_027.jpg,between-big,NA,NaN,NA,left,4534.30000000447,1,1,1805.2999999970198
avjhouki,NA,NA,avjhouki,2020-0188,2021-10-04,12:38:02,21:51:06,NA,incomplete,false,NA,true,6,15,NA,NA,left,NA,NA,m_l_003.jpg,n_l_013.jpg,within,NA,NaN,NA,left,3839.5999999940395,1,1,1281.7999999970198
avjhouki,NA,NA,avjhouki,2020-0188,2021-10-04,12:38:02,21:51:06,NA,incomplete,false,NA,true,6,16,NA,NA,left,NA,NA,i_c_004.jpg,a_2_014.jpg,between-big,NA,NaN,NA,right,2728,0,1,1688.1000000014901
avjhouki,NA,NA,avjhouki,2020-0188,2021-10-04,12:38:02,21:51:06,NA,incomplete,false,NA,true,6,17,NA,NA,right,NA,NA,a_1_022.jpg,c_1_011.jpg,within,NA,NaN,NA,right,3733.2000000029802,1,1,4059.2999999970198
avjhouki,NA,NA,avjhouki,2020-0188,2021-10-04,12:38:02,21:51:06,NA,incomplete,false,NA,true,6,18,NA,NA,right,NA,NA,n_l_018.jpg,a_1_022.jpg,between-big,NA,NaN,NA,right,6831.69999999553,1,1,1388.3999999985099
avjhouki,NA,NA,avjhouki,2020-0188,2021-10-04,12:38:02,21:51:06,NA,incomplete,false,NA,true,6,19,NA,NA,left,NA,NA,i_s_026.jpg,i_c_002.jpg,within,NA,NaN,NA,right,3527.3000000044703,0,2,1748.2999999970198
avjhouki,NA,NA,avjhouki,2020-0188,2021-10-04,12:38:02,21:51:06,NA,incomplete,false,NA,true,6,20,NA,NA,left,NA,NA,a_1_001.jpg,m_l_011.jpg,between-big,NA,NaN,NA,right,2205.60000000149,0,1,1353.6999999955297
avjhouki,NA,NA,avjhouki,2020-0188,2021-10-04,12:38:02,21:51:06,NA,incomplete,false,NA,true,6,21,NA,NA,left,NA,NA,i_s_008.jpg,a_2_005.jpg,between-big,NA,NaN,NA,left,3186.2999999970198,1,1,1347.5
avjhouki,NA,NA,avjhouki,2020-0188,2021-10-04,12:38:02,21:51:06,NA,incomplete,false,NA,true,6,22,NA,NA,right,NA,NA,a_1_001.jpg,c_2_005.jpg,within,NA,NaN,NA,right,1673.6999999955297,1,1,2387
avjhouki,NA,NA,avjhouki,2020-0188,2021-10-04,12:38:02,21:51:06,NA,incomplete,false,NA,true,6,23,NA,NA,right,NA,NA,a_1_023.jpg,a_2_014.jpg,within,NA,NaN,NA,right,1707.1000000014901,1,1,1608
avjhouki,NA,NA,avjhouki,2020-0188,2021-10-04,12:38:02,21:51:06,NA,incomplete,false,NA,true,6,24,NA,NA,left,NA,NA,i_s_002.jpg,i_s_026.jpg,between-small,NA,NaN,NA,right,2328.5,0,1,1134.7999999970198
avjhouki,NA,NA,avjhouki,2020-0188,2021-10-04,12:38:02,21:51:06,NA,incomplete,false,NA,true,6,25,NA,NA,right,NA,NA,i_s_008.jpg,o_s_013.jpg,within,NA,NaN,NA,left,3805.89999999851,0,1,3367
avjhouki,NA,NA,avjhouki,2020-0188,2021-10-04,12:38:02,21:51:06,NA,incomplete,false,NA,true,6,26,NA,NA,right,NA,NA,n_s_011.jpg,m_s_020.jpg,within,NA,NaN,NA,left,2450.39999999851,0,1,2106.1999999955297
avjhouki,NA,NA,avjhouki,2020-0188,2021-10-04,12:38:02,21:51:06,NA,incomplete,false,true,NA,7,0,size,n_s_008.jpg,right,large,small,NA,NA,NA,none,0,false,NA,NA,NA,NA,NA
avjhouki,NA,NA,avjhouki,2020-0188,2021-10-04,12:38:02,21:51:06,NA,incomplete,false,true,NA,7,1,size,n_l_026.jpg,right,small,large,NA,NA,NA,none,0,false,NA,NA,NA,NA,NA
avjhouki,NA,NA,avjhouki,2020-0188,2021-10-04,12:38:02,21:51:06,NA,incomplete,false,true,NA,7,2,size,m_l_026.jpg,right,small,large,NA,NA,NA,right,1580.60000000149,true,NA,NA,NA,NA,NA
avjhouki,NA,NA,avjhouki,2020-0188,2021-10-04,12:38:02,21:51:06,NA,incomplete,false,true,NA,7,3,size,m_s_015.jpg,right,large,small,NA,NA,NA,left,1359.29999999702,false,NA,NA,NA,NA,NA
avjhouki,NA,NA,avjhouki,2020-0188,2021-10-04,12:38:02,21:51:06,NA,incomplete,false,true,NA,7,4,size,n_l_003.jpg,right,small,large,NA,NA,NA,left,814.19999999553,false,NA,NA,NA,NA,NA
avjhouki,NA,NA,avjhouki,2020-0188,2021-10-04,12:38:02,21:51:06,NA,incomplete,false,true,NA,7,5,origin,m_l_001.jpg,right,natural,manmade,NA,NA,NA,right,1635.90000000596,true,NA,NA,NA,NA,NA
avjhouki,NA,NA,avjhouki,2020-0188,2021-10-04,12:38:02,21:51:06,NA,incomplete,false,true,NA,7,6,origin,m_l_004.jpg,right,natural,manmade,NA,NA,NA,right,1370.20000000298,true,NA,NA,NA,NA,NA
avjhouki,NA,NA,avjhouki,2020-0188,2021-10-04,12:38:02,21:51:06,NA,incomplete,false,true,NA,7,7,origin,n_s_001.jpg,left,natural,manmade,NA,NA,NA,left,1572.79999999702,true,NA,NA,NA,NA,NA
avjhouki,NA,NA,avjhouki,2020-0188,2021-10-04,12:38:02,21:51:06,NA,incomplete,false,true,NA,7,8,origin,m_s_013.jpg,left,manmade,natural,NA,NA,NA,left,2027.79999999702,true,NA,NA,NA,NA,NA
avjhouki,NA,NA,avjhouki,2020-0188,2021-10-04,12:38:02,21:51:06,NA,incomplete,false,true,NA,7,9,origin,n_l_009.jpg,left,natural,manmade,NA,NA,NA,left,1271.60000000149,true,NA,NA,NA,NA,NA
avjhouki,NA,NA,avjhouki,2020-0188,2021-10-04,12:38:02,21:51:06,NA,incomplete,false,true,NA,7,10,building,i_c_028.jpg,right,skyscraper,cottage,NA,NA,NA,right,1057.19999999553,true,NA,NA,NA,NA,NA
avjhouki,NA,NA,avjhouki,2020-0188,2021-10-04,12:38:02,21:51:06,NA,incomplete,false,true,NA,7,11,building,o_c_001.jpg,right,skyscraper,cottage,NA,NA,NA,right,1356.70000000298,true,NA,NA,NA,NA,NA
avjhouki,NA,NA,avjhouki,2020-0188,2021-10-04,12:38:02,21:51:06,NA,incomplete,false,true,NA,7,12,building,o_c_006.jpg,left,cottage,skyscraper,NA,NA,NA,left,1210.29999999702,true,NA,NA,NA,NA,NA
avjhouki,NA,NA,avjhouki,2020-0188,2021-10-04,12:38:02,21:51:06,NA,incomplete,false,true,NA,7,13,building,o_s_017.jpg,right,cottage,skyscraper,NA,NA,NA,right,1022.5,true,NA,NA,NA,NA,NA
avjhouki,NA,NA,avjhouki,2020-0188,2021-10-04,12:38:02,21:51:06,NA,incomplete,false,true,NA,7,14,building,o_s_004.jpg,right,cottage,skyscraper,NA,NA,NA,right,2288.10000000149,true,NA,NA,NA,NA,NA
avjhouki,NA,NA,avjhouki,2020-0188,2021-10-04,12:38:02,21:51:06,NA,incomplete,false,true,NA,7,15,location,i_c_022.jpg,left,indoor,outdoor,NA,NA,NA,left,1325.5,true,NA,NA,NA,NA,NA
avjhouki,NA,NA,avjhouki,2020-0188,2021-10-04,12:38:02,21:51:06,NA,incomplete,false,true,NA,7,16,location,o_s_023.jpg,right,indoor,outdoor,NA,NA,NA,right,1412.10000000149,true,NA,NA,NA,NA,NA
avjhouki,NA,NA,avjhouki,2020-0188,2021-10-04,12:38:02,21:51:06,NA,incomplete,false,true,NA,7,17,location,o_s_009.jpg,left,outdoor,indoor,NA,NA,NA,left,1784.30000000447,true,NA,NA,NA,NA,NA
avjhouki,NA,NA,avjhouki,2020-0188,2021-10-04,12:38:02,21:51:06,NA,incomplete,false,true,NA,7,18,location,i_s_021.jpg,left,indoor,outdoor,NA,NA,NA,left,1666,true,NA,NA,NA,NA,NA
avjhouki,NA,NA,avjhouki,2020-0188,2021-10-04,12:38:02,21:51:06,NA,incomplete,false,true,NA,7,19,location,o_c_023.jpg,right,indoor,outdoor,NA,NA,NA,right,1275.39999999851,true,NA,NA,NA,NA,NA
avjhouki,NA,NA,avjhouki,2020-0188,2021-10-04,12:38:02,21:51:06,NA,incomplete,false,true,NA,7,20,syllable,a_1_005.jpg,right,1 syllable,2 syllables,NA,NA,NA,left,3032.79999999702,false,NA,NA,NA,NA,NA
avjhouki,NA,NA,avjhouki,2020-0188,2021-10-04,12:38:02,21:51:06,NA,incomplete,false,true,NA,7,21,syllable,c_2_018.jpg,right,2 syllables,1 syllable,NA,NA,NA,left,1505.70000000298,false,NA,NA,NA,NA,NA
avjhouki,NA,NA,avjhouki,2020-0188,2021-10-04,12:38:02,21:51:06,NA,incomplete,false,true,NA,7,22,syllable,a_2_017.jpg,right,1 syllable,2 syllables,NA,NA,NA,right,2708.89999999851,true,NA,NA,NA,NA,NA
avjhouki,NA,NA,avjhouki,2020-0188,2021-10-04,12:38:02,21:51:06,NA,incomplete,false,true,NA,7,23,syllable,a_2_023.jpg,right,2 syllables,1 syllable,NA,NA,NA,left,1206.70000000298,false,NA,NA,NA,NA,NA
avjhouki,NA,NA,avjhouki,2020-0188,2021-10-04,12:38:02,21:51:06,NA,incomplete,false,true,NA,7,24,syllable,a_2_022.jpg,right,2 syllables,1 syllable,NA,NA,NA,left,1342.89999999851,false,NA,NA,NA,NA,NA
avjhouki,NA,NA,avjhouki,2020-0188,2021-10-04,12:38:02,21:51:06,NA,incomplete,false,true,NA,7,25,abstractness,a_2_006.jpg,left,abstract,concrete,NA,NA,NA,left,2108.59999999404,true,NA,NA,NA,NA,NA
avjhouki,NA,NA,avjhouki,2020-0188,2021-10-04,12:38:02,21:51:06,NA,incomplete,false,true,NA,7,26,abstractness,c_1_008.jpg,right,abstract,concrete,NA,NA,NA,right,1541.19999999553,true,NA,NA,NA,NA,NA
avjhouki,NA,NA,avjhouki,2020-0188,2021-10-04,12:38:02,21:51:06,NA,incomplete,false,true,NA,7,27,abstractness,a_1_018.jpg,right,concrete,abstract,NA,NA,NA,right,2199.39999999851,true,NA,NA,NA,NA,NA
avjhouki,NA,NA,avjhouki,2020-0188,2021-10-04,12:38:02,21:51:06,NA,incomplete,false,true,NA,7,28,abstractness,c_1_022.jpg,right,abstract,concrete,NA,NA,NA,right,1754.79999999702,true,NA,NA,NA,NA,NA
avjhouki,NA,NA,avjhouki,2020-0188,2021-10-04,12:38:02,21:51:06,NA,incomplete,false,true,NA,7,29,abstractness,c_2_019.jpg,left,concrete,abstract,NA,NA,NA,left,1658.30000000447,true,NA,NA,NA,NA,NA
avjhouki,NA,NA,avjhouki,2020-0188,2021-10-04,12:38:02,21:51:06,NA,incomplete,false,NA,true,7,0,NA,NA,right,NA,NA,o_s_017.jpg,i_c_028.jpg,within,NA,NaN,NA,right,3006.6999999955297,1,1,1712
avjhouki,NA,NA,avjhouki,2020-0188,2021-10-04,12:38:02,21:51:06,NA,incomplete,false,NA,true,7,1,NA,NA,left,NA,NA,o_s_017.jpg,o_s_023.jpg,between-small,NA,NaN,NA,left,2472.0999999940395,1,1,1291.1000000014901
avjhouki,NA,NA,avjhouki,2020-0188,2021-10-04,12:38:02,21:51:06,NA,incomplete,false,NA,true,7,2,NA,NA,right,NA,NA,a_1_018.jpg,a_2_022.jpg,between-small,NA,NaN,NA,left,3243.2000000029802,0,1,10292.5
avjhouki,NA,NA,avjhouki,2020-0188,2021-10-04,12:38:02,21:51:06,NA,incomplete,false,NA,true,7,3,NA,NA,left,NA,NA,a_2_023.jpg,c_1_008.jpg,between-small,NA,NaN,NA,right,1550.7999999970198,0,1,15397.19999999553
avjhouki,NA,NA,avjhouki,2020-0188,2021-10-04,12:38:02,21:51:06,NA,incomplete,false,NA,true,7,4,NA,NA,right,NA,NA,a_2_006.jpg,a_2_017.jpg,between-small,NA,NaN,NA,right,2785,1,1,3995.4000000059605
avjhouki,NA,NA,avjhouki,2020-0188,2021-10-04,12:38:02,21:51:06,NA,incomplete,false,NA,true,7,5,NA,NA,left,NA,NA,m_l_004.jpg,n_l_009.jpg,within,NA,NaN,NA,left,3079.2000000029802,1,1,1053.2000000029802
avjhouki,NA,NA,avjhouki,2020-0188,2021-10-04,12:38:02,21:51:06,NA,incomplete,false,NA,true,7,6,NA,NA,left,NA,NA,n_s_008.jpg,m_s_015.jpg,within,NA,NaN,NA,right,2164.4000000059605,0,3,2793.3000000044703
avjhouki,NA,NA,avjhouki,2020-0188,2021-10-04,12:38:02,21:51:06,NA,incomplete,false,NA,true,7,7,NA,NA,right,NA,NA,o_c_006.jpg,n_l_009.jpg,between-big,NA,NaN,NA,right,8556.80000000447,1,2,3950.9000000059605
avjhouki,NA,NA,avjhouki,2020-0188,2021-10-04,12:38:02,21:51:06,NA,incomplete,false,NA,true,7,8,NA,NA,left,NA,NA,n_l_026.jpg,n_l_003.jpg,within,NA,NaN,NA,right,5389.60000000149,0,3,2457.89999999851
avjhouki,NA,NA,avjhouki,2020-0188,2021-10-04,12:38:02,21:51:06,NA,incomplete,false,NA,true,7,9,NA,NA,right,NA,NA,i_c_028.jpg,n_s_001.jpg,between-big,NA,NaN,NA,left,2710.60000000149,0,2,2089.4000000059605
avjhouki,NA,NA,avjhouki,2020-0188,2021-10-04,12:38:02,21:51:06,NA,incomplete,false,NA,true,7,10,NA,NA,right,NA,NA,a_2_017.jpg,o_c_023.jpg,between-big,NA,NaN,NA,right,3790.89999999851,1,1,2670.5
avjhouki,NA,NA,avjhouki,2020-0188,2021-10-04,12:38:02,21:51:06,NA,incomplete,false,NA,true,7,11,NA,NA,left,NA,NA,m_l_001.jpg,m_s_013.jpg,within,NA,NaN,NA,left,2900.7999999970198,1,1,1110.1999999955297
avjhouki,NA,NA,avjhouki,2020-0188,2021-10-04,12:38:02,21:51:06,NA,incomplete,false,NA,true,7,12,NA,NA,left,NA,NA,o_c_001.jpg,o_s_004.jpg,within,NA,NaN,NA,left,16570.79999999702,1,1,2285.89999999851
avjhouki,NA,NA,avjhouki,2020-0188,2021-10-04,12:38:02,21:51:06,NA,incomplete,false,NA,true,7,13,NA,NA,right,NA,NA,m_l_004.jpg,m_s_015.jpg,between-small,NA,NaN,NA,right,3315.7000000029802,1,1,1428.8999999985099
avjhouki,NA,NA,avjhouki,2020-0188,2021-10-04,12:38:02,21:51:06,NA,incomplete,false,NA,true,7,14,NA,NA,left,NA,NA,m_s_013.jpg,o_c_001.jpg,between-big,NA,NaN,NA,left,1683.2000000029802,1,1,1396.8999999985099
avjhouki,NA,NA,avjhouki,2020-0188,2021-10-04,12:38:02,21:51:06,NA,incomplete,false,NA,true,7,15,NA,NA,left,NA,NA,a_2_006.jpg,c_1_022.jpg,within,NA,NaN,NA,right,11284.30000000447,0,1,1290.3999999985099
avjhouki,NA,NA,avjhouki,2020-0188,2021-10-04,12:38:02,21:51:06,NA,incomplete,false,NA,true,7,16,NA,NA,right,NA,NA,n_s_001.jpg,n_l_003.jpg,between-small,NA,NaN,NA,left,1404.6999999955297,0,1,1519.3999999985099
avjhouki,NA,NA,avjhouki,2020-0188,2021-10-04,12:38:02,21:51:06,NA,incomplete,false,NA,true,7,17,NA,NA,right,NA,NA,a_2_022.jpg,c_2_018.jpg,within,NA,NaN,NA,left,2434.5,0,1,1427.8999999985099
avjhouki,NA,NA,avjhouki,2020-0188,2021-10-04,12:38:02,21:51:06,NA,incomplete,false,NA,true,7,18,NA,NA,right,NA,NA,i_c_022.jpg,o_c_006.jpg,between-small,NA,NaN,NA,left,2067,0,1,1420.3999999985099
avjhouki,NA,NA,avjhouki,2020-0188,2021-10-04,12:38:02,21:51:06,NA,incomplete,false,NA,true,7,19,NA,NA,right,NA,NA,a_1_005.jpg,o_s_009.jpg,between-big,NA,NaN,NA,right,1774,1,1,1567.7999999970198
avjhouki,NA,NA,avjhouki,2020-0188,2021-10-04,12:38:02,21:51:06,NA,incomplete,false,NA,true,7,20,NA,NA,left,NA,NA,i_s_021.jpg,c_2_018.jpg,between-big,NA,NaN,NA,left,963.1999999955297,1,1,1910.8999999985099
avjhouki,NA,NA,avjhouki,2020-0188,2021-10-04,12:38:02,21:51:06,NA,incomplete,false,NA,true,7,21,NA,NA,right,NA,NA,o_c_023.jpg,o_s_023.jpg,within,NA,NaN,NA,right,1667.6999999955297,1,1,1599.5
avjhouki,NA,NA,avjhouki,2020-0188,2021-10-04,12:38:02,21:51:06,NA,incomplete,false,NA,true,7,22,NA,NA,left,NA,NA,a_1_005.jpg,a_2_023.jpg,within,NA,NaN,NA,left,1429.8999999985099,1,1,3537.39999999851
avjhouki,NA,NA,avjhouki,2020-0188,2021-10-04,12:38:02,21:51:06,NA,incomplete,false,NA,true,7,23,NA,NA,right,NA,NA,o_s_009.jpg,o_s_004.jpg,between-small,NA,NaN,NA,right,947.2999999970198,1,1,1036.8000000044703
avjhouki,NA,NA,avjhouki,2020-0188,2021-10-04,12:38:02,21:51:06,NA,incomplete,false,NA,true,7,24,NA,NA,right,NA,NA,c_2_019.jpg,c_1_008.jpg,within,NA,NaN,NA,right,3881.2999999970198,1,1,1425.8999999985099
avjhouki,NA,NA,avjhouki,2020-0188,2021-10-04,12:38:02,21:51:06,NA,incomplete,false,NA,true,7,25,NA,NA,left,NA,NA,m_l_026.jpg,m_l_001.jpg,between-small,NA,NaN,NA,right,1273.8999999985099,0,3,1297.5
avjhouki,NA,NA,avjhouki,2020-0188,2021-10-04,12:38:02,21:51:06,NA,incomplete,false,NA,true,7,26,NA,NA,right,NA,NA,i_s_021.jpg,i_c_022.jpg,within,NA,NaN,NA,left,1225.2000000029802,0,1,3798.3000000044703
avjhouki,NA,NA,avjhouki,2020-0188,2021-10-04,12:38:02,21:51:06,NA,incomplete,false,true,NA,8,0,origin,n_l_005.jpg,left,natural,manmade,NA,NA,NA,left,1286.70000000298,true,NA,NA,NA,NA,NA
avjhouki,NA,NA,avjhouki,2020-0188,2021-10-04,12:38:02,21:51:06,NA,incomplete,false,true,NA,8,1,origin,m_l_006.jpg,left,manmade,natural,NA,NA,NA,left,1586.80000000447,true,NA,NA,NA,NA,NA
avjhouki,NA,NA,avjhouki,2020-0188,2021-10-04,12:38:02,21:51:06,NA,incomplete,false,true,NA,8,2,origin,m_s_019.jpg,right,natural,manmade,NA,NA,NA,right,1095.19999999553,true,NA,NA,NA,NA,NA
avjhouki,NA,NA,avjhouki,2020-0188,2021-10-04,12:38:02,21:51:06,NA,incomplete,false,true,NA,8,3,origin,n_s_022.jpg,right,manmade,natural,NA,NA,NA,right,1448.89999999851,true,NA,NA,NA,NA,NA
avjhouki,NA,NA,avjhouki,2020-0188,2021-10-04,12:38:02,21:51:06,NA,incomplete,false,true,NA,8,4,origin,n_s_009.jpg,left,natural,manmade,NA,NA,NA,left,1116.89999999851,true,NA,NA,NA,NA,NA
avjhouki,NA,NA,avjhouki,2020-0188,2021-10-04,12:38:02,21:51:06,NA,incomplete,false,true,NA,8,5,size,m_l_024.jpg,left,large,small,NA,NA,NA,right,2561.5,false,NA,NA,NA,NA,NA
avjhouki,NA,NA,avjhouki,2020-0188,2021-10-04,12:38:02,21:51:06,NA,incomplete,false,true,NA,8,6,size,n_l_006.jpg,left,large,small,NA,NA,NA,right,1689.69999999553,false,NA,NA,NA,NA,NA
avjhouki,NA,NA,avjhouki,2020-0188,2021-10-04,12:38:02,21:51:06,NA,incomplete,false,true,NA,8,7,size,n_s_020.jpg,right,large,small,NA,NA,NA,right,973.70000000298,true,NA,NA,NA,NA,NA
avjhouki,NA,NA,avjhouki,2020-0188,2021-10-04,12:38:02,21:51:06,NA,incomplete,false,true,NA,8,8,size,m_l_025.jpg,left,large,small,NA,NA,NA,left,1605.60000000149,true,NA,NA,NA,NA,NA
avjhouki,NA,NA,avjhouki,2020-0188,2021-10-04,12:38:02,21:51:06,NA,incomplete,false,true,NA,8,9,size,m_l_018.jpg,left,large,small,NA,NA,NA,right,1924.20000000298,false,NA,NA,NA,NA,NA
avjhouki,NA,NA,avjhouki,2020-0188,2021-10-04,12:38:02,21:51:06,NA,incomplete,false,true,NA,8,10,building,o_c_024.jpg,right,skyscraper,cottage,NA,NA,NA,right,2210.39999999851,true,NA,NA,NA,NA,NA
avjhouki,NA,NA,avjhouki,2020-0188,2021-10-04,12:38:02,21:51:06,NA,incomplete,false,true,NA,8,11,building,o_s_025.jpg,left,skyscraper,cottage,NA,NA,NA,left,1640.29999999702,true,NA,NA,NA,NA,NA
avjhouki,NA,NA,avjhouki,2020-0188,2021-10-04,12:38:02,21:51:06,NA,incomplete,false,true,NA,8,12,building,i_c_025.jpg,left,cottage,skyscraper,NA,NA,NA,left,1207,true,NA,NA,NA,NA,NA
avjhouki,NA,NA,avjhouki,2020-0188,2021-10-04,12:38:02,21:51:06,NA,incomplete,false,true,NA,8,13,building,i_c_020.jpg,right,skyscraper,cottage,NA,NA,NA,right,1212,true,NA,NA,NA,NA,NA
avjhouki,NA,NA,avjhouki,2020-0188,2021-10-04,12:38:02,21:51:06,NA,incomplete,false,true,NA,8,14,building,o_s_015.jpg,left,skyscraper,cottage,NA,NA,NA,left,2066.5,true,NA,NA,NA,NA,NA
avjhouki,NA,NA,avjhouki,2020-0188,2021-10-04,12:38:02,21:51:06,NA,incomplete,false,true,NA,8,15,location,i_s_015.jpg,left,indoor,outdoor,NA,NA,NA,left,1212.80000000447,true,NA,NA,NA,NA,NA
avjhouki,NA,NA,avjhouki,2020-0188,2021-10-04,12:38:02,21:51:06,NA,incomplete,false,true,NA,8,16,location,i_c_010.jpg,right,outdoor,indoor,NA,NA,NA,right,1344.10000000149,true,NA,NA,NA,NA,NA
avjhouki,NA,NA,avjhouki,2020-0188,2021-10-04,12:38:02,21:51:06,NA,incomplete,false,true,NA,8,17,location,i_s_018.jpg,right,outdoor,indoor,NA,NA,NA,right,867,true,NA,NA,NA,NA,NA
avjhouki,NA,NA,avjhouki,2020-0188,2021-10-04,12:38:02,21:51:06,NA,incomplete,false,true,NA,8,18,location,i_s_020.jpg,left,indoor,outdoor,NA,NA,NA,left,1541.60000000149,true,NA,NA,NA,NA,NA
avjhouki,NA,NA,avjhouki,2020-0188,2021-10-04,12:38:02,21:51:06,NA,incomplete,false,true,NA,8,19,location,i_c_008.jpg,left,indoor,outdoor,NA,NA,NA,left,1391.39999999851,true,NA,NA,NA,NA,NA
avjhouki,NA,NA,avjhouki,2020-0188,2021-10-04,12:38:02,21:51:06,NA,incomplete,false,true,NA,8,20,syllable,a_2_016.jpg,right,1 syllable,2 syllables,NA,NA,NA,right,1444.29999999702,true,NA,NA,NA,NA,NA
avjhouki,NA,NA,avjhouki,2020-0188,2021-10-04,12:38:02,21:51:06,NA,incomplete,false,true,NA,8,21,syllable,a_1_003.jpg,right,1 syllable,2 syllables,NA,NA,NA,left,1716.30000000447,false,NA,NA,NA,NA,NA
avjhouki,NA,NA,avjhouki,2020-0188,2021-10-04,12:38:02,21:51:06,NA,incomplete,false,true,NA,8,22,syllable,c_2_001.jpg,right,1 syllable,2 syllables,NA,NA,NA,right,1516.69999999553,true,NA,NA,NA,NA,NA
avjhouki,NA,NA,avjhouki,2020-0188,2021-10-04,12:38:02,21:51:06,NA,incomplete,false,true,NA,8,23,syllable,a_1_019.jpg,right,2 syllables,1 syllable,NA,NA,NA,right,904.60000000149,true,NA,NA,NA,NA,NA
avjhouki,NA,NA,avjhouki,2020-0188,2021-10-04,12:38:02,21:51:06,NA,incomplete,false,true,NA,8,24,syllable,c_1_014.jpg,right,2 syllables,1 syllable,NA,NA,NA,right,1073.39999999851,true,NA,NA,NA,NA,NA
avjhouki,NA,NA,avjhouki,2020-0188,2021-10-04,12:38:02,21:51:06,NA,incomplete,false,true,NA,8,25,abstractness,a_2_012.jpg,right,concrete,abstract,NA,NA,NA,right,2030.20000000298,true,NA,NA,NA,NA,NA
avjhouki,NA,NA,avjhouki,2020-0188,2021-10-04,12:38:02,21:51:06,NA,incomplete,false,true,NA,8,26,abstractness,c_1_021.jpg,right,abstract,concrete,NA,NA,NA,right,1516.70000000298,true,NA,NA,NA,NA,NA
avjhouki,NA,NA,avjhouki,2020-0188,2021-10-04,12:38:02,21:51:06,NA,incomplete,false,true,NA,8,27,abstractness,a_1_028.jpg,right,concrete,abstract,NA,NA,NA,left,2199.20000000298,false,NA,NA,NA,NA,NA
avjhouki,NA,NA,avjhouki,2020-0188,2021-10-04,12:38:02,21:51:06,NA,incomplete,false,true,NA,8,28,abstractness,c_1_006.jpg,left,concrete,abstract,NA,NA,NA,left,1487.90000000596,true,NA,NA,NA,NA,NA
avjhouki,NA,NA,avjhouki,2020-0188,2021-10-04,12:38:02,21:51:06,NA,incomplete,false,true,NA,8,29,abstractness,a_1_009.jpg,left,abstract,concrete,NA,NA,NA,left,2542.39999999851,true,NA,NA,NA,NA,NA
avjhouki,NA,NA,avjhouki,2020-0188,2021-10-04,12:38:02,21:51:06,NA,incomplete,false,NA,true,8,0,NA,NA,right,NA,NA,a_2_016.jpg,i_s_018.jpg,between-big,NA,NaN,NA,right,2498.10000000149,1,1,1510.8999999985099
avjhouki,NA,NA,avjhouki,2020-0188,2021-10-04,12:38:02,21:51:06,NA,incomplete,false,NA,true,8,1,NA,NA,right,NA,NA,n_s_009.jpg,m_l_006.jpg,within,NA,NaN,NA,right,2238.7000000029802,1,0,1142.1000000014901
avjhouki,NA,NA,avjhouki,2020-0188,2021-10-04,12:38:02,21:51:06,NA,incomplete,false,NA,true,8,2,NA,NA,left,NA,NA,n_l_006.jpg,m_l_018.jpg,within,NA,NaN,NA,right,2204.89999999851,0,1,1648.8999999985099
avjhouki,NA,NA,avjhouki,2020-0188,2021-10-04,12:38:02,21:51:06,NA,incomplete,false,NA,true,8,3,NA,NA,left,NA,NA,n_s_020.jpg,o_c_024.jpg,between-big,NA,NaN,NA,left,3250.7000000029802,1,1,1620.3999999985099
avjhouki,NA,NA,avjhouki,2020-0188,2021-10-04,12:38:02,21:51:06,NA,incomplete,false,NA,true,8,4,NA,NA,right,NA,NA,i_c_025.jpg,m_l_018.jpg,between-big,NA,NaN,NA,right,2743.60000000149,1,1,1444.3000000044703
avjhouki,NA,NA,avjhouki,2020-0188,2021-10-04,12:38:02,21:51:06,NA,incomplete,false,NA,true,8,5,NA,NA,right,NA,NA,a_1_009.jpg,c_1_021.jpg,within,NA,NaN,NA,left,3047.8000000044703,0,1,1804.7000000029802
avjhouki,NA,NA,avjhouki,2020-0188,2021-10-04,12:38:02,21:51:06,NA,incomplete,false,NA,true,8,6,NA,NA,right,NA,NA,i_s_015.jpg,i_c_025.jpg,between-small,NA,NaN,NA,right,1174.3999999985099,1,0,2017
avjhouki,NA,NA,avjhouki,2020-0188,2021-10-04,12:38:02,21:51:06,NA,incomplete,false,NA,true,8,7,NA,NA,right,NA,NA,a_1_003.jpg,i_s_020.jpg,between-big,NA,NaN,NA,right,2761,1,1,1453.4000000059605
avjhouki,NA,NA,avjhouki,2020-0188,2021-10-04,12:38:02,21:51:06,NA,incomplete,false,NA,true,8,8,NA,NA,right,NA,NA,c_1_006.jpg,a_2_012.jpg,within,NA,NaN,NA,left,1552.5,0,1,1845.3000000044703
avjhouki,NA,NA,avjhouki,2020-0188,2021-10-04,12:38:02,21:51:06,NA,incomplete,false,NA,true,8,9,NA,NA,left,NA,NA,m_l_025.jpg,o_s_025.jpg,between-big,NA,NaN,NA,right,3382.5999999940395,0,1,2990.5
avjhouki,NA,NA,avjhouki,2020-0188,2021-10-04,12:38:02,21:51:06,NA,incomplete,false,NA,true,8,10,NA,NA,left,NA,NA,n_l_005.jpg,n_s_022.jpg,within,NA,NaN,NA,left,5067,1,1,1388
avjhouki,NA,NA,avjhouki,2020-0188,2021-10-04,12:38:02,21:51:06,NA,incomplete,false,NA,true,8,11,NA,NA,left,NA,NA,o_c_024.jpg,i_c_020.jpg,within,NA,NaN,NA,right,2679.5,0,1,1436.7000000029802
avjhouki,NA,NA,avjhouki,2020-0188,2021-10-04,12:38:02,21:51:06,NA,incomplete,false,NA,true,8,12,NA,NA,right,NA,NA,c_1_021.jpg,a_1_019.jpg,between-small,NA,NaN,NA,right,1232.8999999985099,1,1,1886.9000000059605
avjhouki,NA,NA,avjhouki,2020-0188,2021-10-04,12:38:02,21:51:06,NA,incomplete,false,NA,true,8,13,NA,NA,right,NA,NA,o_s_015.jpg,o_s_025.jpg,within,NA,NaN,NA,left,3571,0,1,2532.10000000149
avjhouki,NA,NA,avjhouki,2020-0188,2021-10-04,12:38:02,21:51:06,NA,incomplete,false,NA,true,8,14,NA,NA,left,NA,NA,i_c_010.jpg,i_c_008.jpg,within,NA,NaN,NA,right,2989.2000000029802,0,1,2099.2999999970198
avjhouki,NA,NA,avjhouki,2020-0188,2021-10-04,12:38:02,21:51:06,NA,incomplete,false,NA,true,8,15,NA,NA,right,NA,NA,i_s_018.jpg,o_s_015.jpg,between-small,NA,NaN,NA,left,1667.1000000014901,0,1,1821.7000000029802
avjhouki,NA,NA,avjhouki,2020-0188,2021-10-04,12:38:02,21:51:06,NA,incomplete,false,NA,true,8,16,NA,NA,left,NA,NA,m_l_024.jpg,m_l_025.jpg,within,NA,NaN,NA,left,7451,1,0,2761.39999999851
avjhouki,NA,NA,avjhouki,2020-0188,2021-10-04,12:38:02,21:51:06,NA,incomplete,false,NA,true,8,17,NA,NA,right,NA,NA,i_s_020.jpg,i_s_015.jpg,within,NA,NaN,NA,right,4256,1,1,1477.3999999985099
avjhouki,NA,NA,avjhouki,2020-0188,2021-10-04,12:38:02,21:51:06,NA,incomplete,false,NA,true,8,18,NA,NA,right,NA,NA,a_1_028.jpg,c_1_014.jpg,between-small,NA,NaN,NA,left,2344.89999999851,0,1,3774.0999999940395
avjhouki,NA,NA,avjhouki,2020-0188,2021-10-04,12:38:02,21:51:06,NA,incomplete,false,NA,true,8,19,NA,NA,right,NA,NA,n_l_006.jpg,n_s_022.jpg,between-small,NA,NaN,NA,right,5196.5,1,1,1304
avjhouki,NA,NA,avjhouki,2020-0188,2021-10-04,12:38:02,21:51:06,NA,incomplete,false,NA,true,8,20,NA,NA,left,NA,NA,c_2_001.jpg,a_2_012.jpg,between-small,NA,NaN,NA,left,3398.89999999851,1,1,2643.89999999851
avjhouki,NA,NA,avjhouki,2020-0188,2021-10-04,12:38:02,21:51:06,NA,incomplete,false,NA,true,8,21,NA,NA,right,NA,NA,c_2_001.jpg,i_c_008.jpg,between-big,NA,NaN,NA,right,8779.5,1,1,1558.8000000044703
avjhouki,NA,NA,avjhouki,2020-0188,2021-10-04,12:38:02,21:51:06,NA,incomplete,false,NA,true,8,22,NA,NA,right,NA,NA,c_1_014.jpg,a_1_003.jpg,within,NA,NaN,NA,left,1232.7000000029802,0,1,1896.2000000029802
avjhouki,NA,NA,avjhouki,2020-0188,2021-10-04,12:38:02,21:51:06,NA,incomplete,false,NA,true,8,23,NA,NA,right,NA,NA,m_l_024.jpg,m_s_019.jpg,between-small,NA,NaN,NA,right,938.5999999940395,1,0,2180.5
avjhouki,NA,NA,avjhouki,2020-0188,2021-10-04,12:38:02,21:51:06,NA,incomplete,false,NA,true,8,24,NA,NA,right,NA,NA,i_c_010.jpg,i_c_020.jpg,between-small,NA,NaN,NA,right,1208.6999999955297,1,1,2009.7999999970198
avjhouki,NA,NA,avjhouki,2020-0188,2021-10-04,12:38:02,21:51:06,NA,incomplete,false,NA,true,8,25,NA,NA,right,NA,NA,a_1_019.jpg,a_2_016.jpg,within,NA,NaN,NA,left,1584.3999999985099,0,1,1437.7000000029802
avjhouki,NA,NA,avjhouki,2020-0188,2021-10-04,12:38:02,21:51:06,NA,incomplete,false,NA,true,8,26,NA,NA,left,NA,NA,n_s_009.jpg,n_s_020.jpg,between-small,NA,NaN,NA,right,987.7999999970198,0,1,1118.1999999955297
avjhouki,NA,NA,avjhouki,2020-0188,2021-10-04,12:38:02,21:51:06,NA,incomplete,false,true,NA,9,0,syllable,a_1_007.jpg,right,1 syllable,2 syllables,NA,NA,NA,left,2491.60000000149,false,NA,NA,NA,NA,NA
avjhouki,NA,NA,avjhouki,2020-0188,2021-10-04,12:38:02,21:51:06,NA,incomplete,false,true,NA,9,1,syllable,a_1_011.jpg,right,2 syllables,1 syllable,NA,NA,NA,right,1512.30000000447,true,NA,NA,NA,NA,NA
