workerId,hitId,assignmentId,subject,studyid,exp_date,exp_start,exp_end,time_start,time_end,practice,encoding,memory,block,trial,event,stim,answer,label_left,label_right,left_image,right_image,condition,response,response_time,response_acc,order_response,order_response_time,order_acc,distance_response,distance_response_time
BqFjXC1O,NA,NA,BqFjXC1O,2020-0188,2021-09-26,13:30:53,14:59:55,NA,incomplete,true,true,NA,0,0,abstractness,c_2_027.jpg,left,concrete,abstract,NA,NA,NA,left,2000,true,NA,NA,NA,NA,NA
BqFjXC1O,NA,NA,BqFjXC1O,2020-0188,2021-09-26,13:30:53,14:59:55,NA,incomplete,true,true,NA,0,1,abstractness,c_2_021.jpg,left,concrete,abstract,NA,NA,NA,left,1846.69999999925,true,NA,NA,NA,NA,NA
BqFjXC1O,NA,NA,BqFjXC1O,2020-0188,2021-09-26,13:30:53,14:59:55,NA,incomplete,true,true,NA,0,2,abstractness,c_2_015.jpg,left,concrete,abstract,NA,NA,NA,left,1756,true,NA,NA,NA,NA,NA
BqFjXC1O,NA,NA,BqFjXC1O,2020-0188,2021-09-26,13:30:53,14:59:55,NA,incomplete,true,true,NA,0,3,abstractness,c_2_009.jpg,right,abstract,concrete,NA,NA,NA,right,2288.69999999925,true,NA,NA,NA,NA,NA
BqFjXC1O,NA,NA,BqFjXC1O,2020-0188,2021-09-26,13:30:53,14:59:55,NA,incomplete,true,true,NA,0,4,abstractness,a_1_003.jpg,left,abstract,concrete,NA,NA,NA,left,1525.29999999702,true,NA,NA,NA,NA,NA
BqFjXC1O,NA,NA,BqFjXC1O,2020-0188,2021-09-26,13:30:53,14:59:55,NA,incomplete,true,true,NA,0,5,syllable,c_1_013.jpg,right,2 syllables,1 syllable,NA,NA,NA,right,1769,true,NA,NA,NA,NA,NA
BqFjXC1O,NA,NA,BqFjXC1O,2020-0188,2021-09-26,13:30:53,14:59:55,NA,incomplete,true,true,NA,0,6,syllable,c_2_019.jpg,right,2 syllables,1 syllable,NA,NA,NA,left,1296.69999999925,false,NA,NA,NA,NA,NA
BqFjXC1O,NA,NA,BqFjXC1O,2020-0188,2021-09-26,13:30:53,14:59:55,NA,incomplete,true,true,NA,0,7,syllable,c_2_007.jpg,right,2 syllables,1 syllable,NA,NA,NA,right,2249.90000000224,true,NA,NA,NA,NA,NA
BqFjXC1O,NA,NA,BqFjXC1O,2020-0188,2021-09-26,13:30:53,14:59:55,NA,incomplete,true,true,NA,0,8,syllable,c_2_001.jpg,right,2 syllables,1 syllable,NA,NA,NA,left,1261.69999999925,false,NA,NA,NA,NA,NA
BqFjXC1O,NA,NA,BqFjXC1O,2020-0188,2021-09-26,13:30:53,14:59:55,NA,incomplete,true,true,NA,0,9,syllable,a_2_004.jpg,right,2 syllables,1 syllable,NA,NA,NA,left,2211.19999999925,false,NA,NA,NA,NA,NA
BqFjXC1O,NA,NA,BqFjXC1O,2020-0188,2021-09-26,13:30:53,14:59:55,NA,incomplete,true,true,NA,0,10,location,i_s_011.jpg,right,outdoor,indoor,NA,NA,NA,right,1876.80000000075,true,NA,NA,NA,NA,NA
BqFjXC1O,NA,NA,BqFjXC1O,2020-0188,2021-09-26,13:30:53,14:59:55,NA,incomplete,true,true,NA,0,11,location,i_c_027.jpg,right,outdoor,indoor,NA,NA,NA,right,1401.89999999851,true,NA,NA,NA,NA,NA
BqFjXC1O,NA,NA,BqFjXC1O,2020-0188,2021-09-26,13:30:53,14:59:55,NA,incomplete,true,true,NA,0,12,location,o_c_016.jpg,left,outdoor,indoor,NA,NA,NA,left,1531,true,NA,NA,NA,NA,NA
BqFjXC1O,NA,NA,BqFjXC1O,2020-0188,2021-09-26,13:30:53,14:59:55,NA,incomplete,true,true,NA,0,13,location,i_c_003.jpg,right,outdoor,indoor,NA,NA,NA,right,1268.20000000298,true,NA,NA,NA,NA,NA
BqFjXC1O,NA,NA,BqFjXC1O,2020-0188,2021-09-26,13:30:53,14:59:55,NA,incomplete,true,true,NA,0,14,location,i_c_009.jpg,right,outdoor,indoor,NA,NA,NA,right,1048.80000000075,true,NA,NA,NA,NA,NA
BqFjXC1O,NA,NA,BqFjXC1O,2020-0188,2021-09-26,13:30:53,14:59:55,NA,incomplete,true,true,NA,0,15,building,o_c_012.jpg,left,cottage,skyscraper,NA,NA,NA,left,1958.09999999776,true,NA,NA,NA,NA,NA
BqFjXC1O,NA,NA,BqFjXC1O,2020-0188,2021-09-26,13:30:53,14:59:55,NA,incomplete,true,true,NA,0,16,building,o_c_018.jpg,left,cottage,skyscraper,NA,NA,NA,left,1974.10000000149,true,NA,NA,NA,NA,NA
BqFjXC1O,NA,NA,BqFjXC1O,2020-0188,2021-09-26,13:30:53,14:59:55,NA,incomplete,true,true,NA,0,17,building,i_c_004.jpg,left,cottage,skyscraper,NA,NA,NA,left,1461.19999999925,true,NA,NA,NA,NA,NA
BqFjXC1O,NA,NA,BqFjXC1O,2020-0188,2021-09-26,13:30:53,14:59:55,NA,incomplete,true,true,NA,0,18,building,i_s_007.jpg,left,skyscraper,cottage,NA,NA,NA,left,1756,true,NA,NA,NA,NA,NA
BqFjXC1O,NA,NA,BqFjXC1O,2020-0188,2021-09-26,13:30:53,14:59:55,NA,incomplete,true,true,NA,0,19,building,o_s_016.jpg,left,skyscraper,cottage,NA,NA,NA,left,1468.30000000075,true,NA,NA,NA,NA,NA
BqFjXC1O,NA,NA,BqFjXC1O,2020-0188,2021-09-26,13:30:53,14:59:55,NA,incomplete,true,true,NA,0,20,origin,m_l_009.jpg,left,manmade,natural,NA,NA,NA,left,1731.69999999925,true,NA,NA,NA,NA,NA
BqFjXC1O,NA,NA,BqFjXC1O,2020-0188,2021-09-26,13:30:53,14:59:55,NA,incomplete,true,true,NA,0,21,origin,m_l_025.jpg,right,natural,manmade,NA,NA,NA,right,1568.69999999925,true,NA,NA,NA,NA,NA
BqFjXC1O,NA,NA,BqFjXC1O,2020-0188,2021-09-26,13:30:53,14:59:55,NA,incomplete,true,true,NA,0,22,origin,n_l_007.jpg,right,manmade,natural,NA,NA,NA,right,2059.30000000075,true,NA,NA,NA,NA,NA
BqFjXC1O,NA,NA,BqFjXC1O,2020-0188,2021-09-26,13:30:53,14:59:55,NA,incomplete,true,true,NA,0,23,origin,m_s_018.jpg,right,natural,manmade,NA,NA,NA,right,1228.89999999851,true,NA,NA,NA,NA,NA
BqFjXC1O,NA,NA,BqFjXC1O,2020-0188,2021-09-26,13:30:53,14:59:55,NA,incomplete,true,true,NA,0,24,origin,m_l_024.jpg,left,manmade,natural,NA,NA,NA,left,1384.80000000075,true,NA,NA,NA,NA,NA
BqFjXC1O,NA,NA,BqFjXC1O,2020-0188,2021-09-26,13:30:53,14:59:55,NA,incomplete,true,true,NA,0,25,size,n_s_005.jpg,right,large,small,NA,NA,NA,right,2261.69999999925,true,NA,NA,NA,NA,NA
BqFjXC1O,NA,NA,BqFjXC1O,2020-0188,2021-09-26,13:30:53,14:59:55,NA,incomplete,true,true,NA,0,26,size,n_s_013.jpg,right,large,small,NA,NA,NA,right,1010.90000000224,true,NA,NA,NA,NA,NA
BqFjXC1O,NA,NA,BqFjXC1O,2020-0188,2021-09-26,13:30:53,14:59:55,NA,incomplete,true,true,NA,0,27,size,m_l_010.jpg,left,large,small,NA,NA,NA,left,1165.69999999925,true,NA,NA,NA,NA,NA
BqFjXC1O,NA,NA,BqFjXC1O,2020-0188,2021-09-26,13:30:53,14:59:55,NA,incomplete,true,true,NA,0,28,size,m_s_002.jpg,left,small,large,NA,NA,NA,left,1311.19999999925,true,NA,NA,NA,NA,NA
BqFjXC1O,NA,NA,BqFjXC1O,2020-0188,2021-09-26,13:30:53,14:59:55,NA,incomplete,true,true,NA,0,29,size,m_s_026.jpg,right,large,small,NA,NA,NA,right,1204.10000000149,true,NA,NA,NA,NA,NA
BqFjXC1O,NA,NA,BqFjXC1O,2020-0188,2021-09-26,13:30:53,14:59:55,NA,incomplete,true,NA,true,0,0,NA,NA,left,NA,NA,o_s_016.jpg,n_l_007.jpg,between-big,NA,NaN,NA,left,5000.699999999255,1,1,5065.199999999255
BqFjXC1O,NA,NA,BqFjXC1O,2020-0188,2021-09-26,13:30:53,14:59:55,NA,incomplete,true,NA,true,0,1,NA,NA,right,NA,NA,i_s_011.jpg,c_2_007.jpg,between-big,NA,NaN,NA,right,4443.900000002235,1,3,3568.900000002235
BqFjXC1O,NA,NA,BqFjXC1O,2020-0188,2021-09-26,13:30:53,14:59:55,NA,incomplete,true,NA,true,0,2,NA,NA,right,NA,NA,c_2_009.jpg,c_2_027.jpg,within,NA,NaN,NA,left,17419.5,0,1,2697.10000000149
BqFjXC1O,NA,NA,BqFjXC1O,2020-0188,2021-09-26,13:30:53,14:59:55,NA,incomplete,true,NA,true,0,3,NA,NA,left,NA,NA,m_l_024.jpg,m_l_010.jpg,between-small,NA,NaN,NA,left,3700.5,1,2,2414.60000000149
BqFjXC1O,NA,NA,BqFjXC1O,2020-0188,2021-09-26,13:30:53,14:59:55,NA,incomplete,true,NA,true,0,4,NA,NA,right,NA,NA,m_l_009.jpg,i_c_004.jpg,between-big,NA,NaN,NA,right,3157,1,3,1137.199999999255
BqFjXC1O,NA,NA,BqFjXC1O,2020-0188,2021-09-26,13:30:53,14:59:55,NA,incomplete,true,NA,true,0,5,NA,NA,right,NA,NA,m_l_024.jpg,m_l_025.jpg,within,NA,NaN,NA,right,2777.800000000745,1,1,6060.300000000745
BqFjXC1O,NA,NA,BqFjXC1O,2020-0188,2021-09-26,13:30:53,14:59:55,NA,incomplete,true,NA,true,0,6,NA,NA,left,NA,NA,c_2_001.jpg,i_c_027.jpg,between-big,NA,NaN,NA,left,2640.39999999851,1,2,2461.800000000745
BqFjXC1O,NA,NA,BqFjXC1O,2020-0188,2021-09-26,13:30:53,14:59:55,NA,incomplete,true,NA,true,0,7,NA,NA,left,NA,NA,i_s_007.jpg,m_l_025.jpg,between-big,NA,NaN,NA,left,6814.800000000745,1,1,1823.5
BqFjXC1O,NA,NA,BqFjXC1O,2020-0188,2021-09-26,13:30:53,14:59:55,NA,incomplete,true,NA,true,0,8,NA,NA,right,NA,NA,n_s_013.jpg,m_s_018.jpg,between-small,NA,NaN,NA,left,4498,0,0,1751.8999999985099
BqFjXC1O,NA,NA,BqFjXC1O,2020-0188,2021-09-26,13:30:53,14:59:55,NA,incomplete,true,NA,true,0,9,NA,NA,left,NA,NA,c_1_013.jpg,c_2_001.jpg,within,NA,NaN,NA,left,3269.5,1,0,2130.2999999970198
BqFjXC1O,NA,NA,BqFjXC1O,2020-0188,2021-09-26,13:30:53,14:59:55,NA,incomplete,true,NA,true,0,10,NA,NA,left,NA,NA,i_c_009.jpg,i_c_004.jpg,between-small,NA,NaN,NA,left,3237.5,1,0,1194
BqFjXC1O,NA,NA,BqFjXC1O,2020-0188,2021-09-26,13:30:53,14:59:55,NA,incomplete,true,NA,true,0,11,NA,NA,left,NA,NA,n_l_007.jpg,n_s_005.jpg,between-small,NA,NaN,NA,left,4577.89999999851,1,2,1549
BqFjXC1O,NA,NA,BqFjXC1O,2020-0188,2021-09-26,13:30:53,14:59:55,NA,incomplete,true,NA,true,0,12,NA,NA,left,NA,NA,i_c_027.jpg,i_c_009.jpg,within,NA,NaN,NA,right,5501,0,0,1856.699999999255
BqFjXC1O,NA,NA,BqFjXC1O,2020-0188,2021-09-26,13:30:53,14:59:55,NA,incomplete,true,NA,true,0,13,NA,NA,right,NA,NA,c_2_019.jpg,c_2_009.jpg,between-small,NA,NaN,NA,right,16275.699999999255,1,1,8585.599999997765
BqFjXC1O,NA,NA,BqFjXC1O,2020-0188,2021-09-26,13:30:53,14:59:55,NA,incomplete,true,NA,true,0,14,NA,NA,left,NA,NA,n_s_013.jpg,m_s_026.jpg,within,NA,NaN,NA,left,2744.699999999255,1,1,1080.699999999255
BqFjXC1O,NA,NA,BqFjXC1O,2020-0188,2021-09-26,13:30:53,14:59:55,NA,incomplete,true,NA,true,0,15,NA,NA,right,NA,NA,m_s_018.jpg,m_l_009.jpg,within,NA,NaN,NA,right,2252.89999999851,1,2,1702.8999999985099
BqFjXC1O,NA,NA,BqFjXC1O,2020-0188,2021-09-26,13:30:53,14:59:55,NA,incomplete,true,NA,true,0,16,NA,NA,right,NA,NA,c_1_013.jpg,c_2_015.jpg,between-small,NA,NaN,NA,left,2323.60000000149,0,1,1113.8999999985099
BqFjXC1O,NA,NA,BqFjXC1O,2020-0188,2021-09-26,13:30:53,14:59:55,NA,incomplete,true,NA,true,0,17,NA,NA,left,NA,NA,i_s_011.jpg,i_c_003.jpg,within,NA,NaN,NA,left,2664.39999999851,1,2,1112.6000000014901
BqFjXC1O,NA,NA,BqFjXC1O,2020-0188,2021-09-26,13:30:53,14:59:55,NA,incomplete,true,NA,true,0,18,NA,NA,right,NA,NA,a_1_003.jpg,c_2_021.jpg,within,NA,NaN,NA,left,4127.10000000149,0,1,1007.3000000007451
BqFjXC1O,NA,NA,BqFjXC1O,2020-0188,2021-09-26,13:30:53,14:59:55,NA,incomplete,true,NA,true,0,19,NA,NA,right,NA,NA,o_c_018.jpg,i_c_003.jpg,between-small,NA,NaN,NA,left,3230.699999999255,0,2,1217.1000000014901
BqFjXC1O,NA,NA,BqFjXC1O,2020-0188,2021-09-26,13:30:53,14:59:55,NA,incomplete,true,NA,true,0,20,NA,NA,right,NA,NA,m_s_002.jpg,n_s_005.jpg,within,NA,NaN,NA,right,2655.89999999851,1,0,3061.60000000149
BqFjXC1O,NA,NA,BqFjXC1O,2020-0188,2021-09-26,13:30:53,14:59:55,NA,incomplete,true,NA,true,0,21,NA,NA,left,NA,NA,c_2_019.jpg,a_2_004.jpg,within,NA,NaN,NA,right,1929.300000000745,0,0,4835.60000000149
BqFjXC1O,NA,NA,BqFjXC1O,2020-0188,2021-09-26,13:30:53,14:59:55,NA,incomplete,true,NA,true,0,22,NA,NA,right,NA,NA,i_s_007.jpg,o_c_012.jpg,within,NA,NaN,NA,right,2859.39999999851,1,0,2211.7000000029802
BqFjXC1O,NA,NA,BqFjXC1O,2020-0188,2021-09-26,13:30:53,14:59:55,NA,incomplete,true,NA,true,0,23,NA,NA,left,NA,NA,a_2_004.jpg,o_c_016.jpg,between-big,NA,NaN,NA,left,3392.199999999255,1,1,1032.4000000022352
BqFjXC1O,NA,NA,BqFjXC1O,2020-0188,2021-09-26,13:30:53,14:59:55,NA,incomplete,true,NA,true,0,24,NA,NA,left,NA,NA,o_c_016.jpg,o_c_012.jpg,between-small,NA,NaN,NA,right,4383,0,0,1751.300000000745
BqFjXC1O,NA,NA,BqFjXC1O,2020-0188,2021-09-26,13:30:53,14:59:55,NA,incomplete,true,NA,true,0,25,NA,NA,right,NA,NA,o_s_016.jpg,o_c_018.jpg,within,NA,NaN,NA,right,2083.699999999255,1,0,1977.2999999970198
BqFjXC1O,NA,NA,BqFjXC1O,2020-0188,2021-09-26,13:30:53,14:59:55,NA,incomplete,true,NA,true,0,26,NA,NA,right,NA,NA,c_2_007.jpg,a_1_003.jpg,between-small,NA,NaN,NA,left,4827.79999999702,0,1,13463.400000002235
BqFjXC1O,NA,NA,BqFjXC1O,2020-0188,2021-09-26,13:30:53,14:59:55,NA,incomplete,false,true,NA,1,0,syllable,a_1_027.jpg,right,2 syllables,1 syllable,NA,NA,NA,right,2899.10000000149,true,NA,NA,NA,NA,NA
BqFjXC1O,NA,NA,BqFjXC1O,2020-0188,2021-09-26,13:30:53,14:59:55,NA,incomplete,false,true,NA,1,1,syllable,a_2_002.jpg,right,2 syllables,1 syllable,NA,NA,NA,left,1762.80000000075,false,NA,NA,NA,NA,NA
BqFjXC1O,NA,NA,BqFjXC1O,2020-0188,2021-09-26,13:30:53,14:59:55,NA,incomplete,false,true,NA,1,2,syllable,a_1_008.jpg,right,2 syllables,1 syllable,NA,NA,NA,right,1029.30000000075,true,NA,NA,NA,NA,NA
BqFjXC1O,NA,NA,BqFjXC1O,2020-0188,2021-09-26,13:30:53,14:59:55,NA,incomplete,false,true,NA,1,3,syllable,a_1_016.jpg,right,1 syllable,2 syllables,NA,NA,NA,left,1398.5,false,NA,NA,NA,NA,NA
BqFjXC1O,NA,NA,BqFjXC1O,2020-0188,2021-09-26,13:30:53,14:59:55,NA,incomplete,false,true,NA,1,4,syllable,c_1_023.jpg,right,1 syllable,2 syllables,NA,NA,NA,left,1119.89999999851,false,NA,NA,NA,NA,NA
BqFjXC1O,NA,NA,BqFjXC1O,2020-0188,2021-09-26,13:30:53,14:59:55,NA,incomplete,false,true,NA,1,5,abstractness,a_2_023.jpg,left,abstract,concrete,NA,NA,NA,left,2535.69999999925,true,NA,NA,NA,NA,NA
BqFjXC1O,NA,NA,BqFjXC1O,2020-0188,2021-09-26,13:30:53,14:59:55,NA,incomplete,false,true,NA,1,6,abstractness,c_1_011.jpg,right,abstract,concrete,NA,NA,NA,right,2581,true,NA,NA,NA,NA,NA
BqFjXC1O,NA,NA,BqFjXC1O,2020-0188,2021-09-26,13:30:53,14:59:55,NA,incomplete,false,true,NA,1,7,abstractness,c_2_022.jpg,left,concrete,abstract,NA,NA,NA,left,2285.89999999851,true,NA,NA,NA,NA,NA
BqFjXC1O,NA,NA,BqFjXC1O,2020-0188,2021-09-26,13:30:53,14:59:55,NA,incomplete,false,true,NA,1,8,abstractness,a_1_014.jpg,right,concrete,abstract,NA,NA,NA,right,1331.39999999851,true,NA,NA,NA,NA,NA
BqFjXC1O,NA,NA,BqFjXC1O,2020-0188,2021-09-26,13:30:53,14:59:55,NA,incomplete,false,true,NA,1,9,abstractness,a_1_018.jpg,left,abstract,concrete,NA,NA,NA,left,2427.69999999925,true,NA,NA,NA,NA,NA
BqFjXC1O,NA,NA,BqFjXC1O,2020-0188,2021-09-26,13:30:53,14:59:55,NA,incomplete,false,true,NA,1,10,size,m_l_004.jpg,left,large,small,NA,NA,NA,left,2000.60000000149,true,NA,NA,NA,NA,NA
BqFjXC1O,NA,NA,BqFjXC1O,2020-0188,2021-09-26,13:30:53,14:59:55,NA,incomplete,false,true,NA,1,11,size,n_s_004.jpg,left,small,large,NA,NA,NA,left,1548.19999999925,true,NA,NA,NA,NA,NA
BqFjXC1O,NA,NA,BqFjXC1O,2020-0188,2021-09-26,13:30:53,14:59:55,NA,incomplete,false,true,NA,1,12,size,n_l_015.jpg,left,large,small,NA,NA,NA,left,1482.10000000149,true,NA,NA,NA,NA,NA
BqFjXC1O,NA,NA,BqFjXC1O,2020-0188,2021-09-26,13:30:53,14:59:55,NA,incomplete,false,true,NA,1,13,size,m_s_019.jpg,right,large,small,NA,NA,NA,right,1648.59999999776,true,NA,NA,NA,NA,NA
BqFjXC1O,NA,NA,BqFjXC1O,2020-0188,2021-09-26,13:30:53,14:59:55,NA,incomplete,false,true,NA,1,14,size,m_s_008.jpg,left,small,large,NA,NA,NA,left,1864.59999999776,true,NA,NA,NA,NA,NA
BqFjXC1O,NA,NA,BqFjXC1O,2020-0188,2021-09-26,13:30:53,14:59:55,NA,incomplete,false,true,NA,1,15,origin,m_l_011.jpg,left,manmade,natural,NA,NA,NA,left,1795.59999999776,true,NA,NA,NA,NA,NA
BqFjXC1O,NA,NA,BqFjXC1O,2020-0188,2021-09-26,13:30:53,14:59:55,NA,incomplete,false,true,NA,1,16,origin,n_s_003.jpg,right,manmade,natural,NA,NA,NA,right,1857.29999999702,true,NA,NA,NA,NA,NA
BqFjXC1O,NA,NA,BqFjXC1O,2020-0188,2021-09-26,13:30:53,14:59:55,NA,incomplete,false,true,NA,1,17,origin,m_s_020.jpg,right,natural,manmade,NA,NA,NA,right,1265.40000000224,true,NA,NA,NA,NA,NA
BqFjXC1O,NA,NA,BqFjXC1O,2020-0188,2021-09-26,13:30:53,14:59:55,NA,incomplete,false,true,NA,1,18,origin,n_l_009.jpg,right,manmade,natural,NA,NA,NA,right,1490.40000000224,true,NA,NA,NA,NA,NA
BqFjXC1O,NA,NA,BqFjXC1O,2020-0188,2021-09-26,13:30:53,14:59:55,NA,incomplete,false,true,NA,1,19,origin,n_l_010.jpg,left,natural,manmade,NA,NA,NA,left,1391,true,NA,NA,NA,NA,NA
BqFjXC1O,NA,NA,BqFjXC1O,2020-0188,2021-09-26,13:30:53,14:59:55,NA,incomplete,false,true,NA,1,20,location,o_c_026.jpg,right,indoor,outdoor,NA,NA,NA,right,2117.80000000075,true,NA,NA,NA,NA,NA
BqFjXC1O,NA,NA,BqFjXC1O,2020-0188,2021-09-26,13:30:53,14:59:55,NA,incomplete,false,true,NA,1,21,location,i_s_012.jpg,left,indoor,outdoor,NA,NA,NA,left,1234.60000000149,true,NA,NA,NA,NA,NA
BqFjXC1O,NA,NA,BqFjXC1O,2020-0188,2021-09-26,13:30:53,14:59:55,NA,incomplete,false,true,NA,1,22,location,i_s_019.jpg,right,outdoor,indoor,NA,NA,NA,right,1681.19999999925,true,NA,NA,NA,NA,NA
BqFjXC1O,NA,NA,BqFjXC1O,2020-0188,2021-09-26,13:30:53,14:59:55,NA,incomplete,false,true,NA,1,23,location,i_c_016.jpg,right,outdoor,indoor,NA,NA,NA,right,1836,true,NA,NA,NA,NA,NA
BqFjXC1O,NA,NA,BqFjXC1O,2020-0188,2021-09-26,13:30:53,14:59:55,NA,incomplete,false,true,NA,1,24,location,i_s_004.jpg,right,outdoor,indoor,NA,NA,NA,right,1286.90000000224,true,NA,NA,NA,NA,NA
BqFjXC1O,NA,NA,BqFjXC1O,2020-0188,2021-09-26,13:30:53,14:59:55,NA,incomplete,false,true,NA,1,25,building,o_c_005.jpg,right,skyscraper,cottage,NA,NA,NA,right,1349.89999999851,true,NA,NA,NA,NA,NA
BqFjXC1O,NA,NA,BqFjXC1O,2020-0188,2021-09-26,13:30:53,14:59:55,NA,incomplete,false,true,NA,1,26,building,i_c_015.jpg,right,skyscraper,cottage,NA,NA,NA,right,1348.10000000149,true,NA,NA,NA,NA,NA
BqFjXC1O,NA,NA,BqFjXC1O,2020-0188,2021-09-26,13:30:53,14:59:55,NA,incomplete,false,true,NA,1,27,building,o_s_023.jpg,left,skyscraper,cottage,NA,NA,NA,left,1122.19999999925,true,NA,NA,NA,NA,NA
BqFjXC1O,NA,NA,BqFjXC1O,2020-0188,2021-09-26,13:30:53,14:59:55,NA,incomplete,false,true,NA,1,28,building,i_s_013.jpg,left,skyscraper,cottage,NA,NA,NA,left,1510.40000000224,true,NA,NA,NA,NA,NA
BqFjXC1O,NA,NA,BqFjXC1O,2020-0188,2021-09-26,13:30:53,14:59:55,NA,incomplete,false,true,NA,1,29,building,o_c_011.jpg,left,cottage,skyscraper,NA,NA,NA,left,1607.19999999925,true,NA,NA,NA,NA,NA
BqFjXC1O,NA,NA,BqFjXC1O,2020-0188,2021-09-26,13:30:53,14:59:55,NA,incomplete,false,NA,true,1,0,NA,NA,left,NA,NA,n_l_010.jpg,i_s_019.jpg,between-big,NA,NaN,NA,left,6064.10000000149,1,1,2839.800000000745
BqFjXC1O,NA,NA,BqFjXC1O,2020-0188,2021-09-26,13:30:53,14:59:55,NA,incomplete,false,NA,true,1,1,NA,NA,left,NA,NA,a_1_014.jpg,n_s_004.jpg,between-big,NA,NaN,NA,left,1902.4000000022352,1,3,1837.5
BqFjXC1O,NA,NA,BqFjXC1O,2020-0188,2021-09-26,13:30:53,14:59:55,NA,incomplete,false,NA,true,1,2,NA,NA,left,NA,NA,a_1_018.jpg,n_l_015.jpg,between-big,NA,NaN,NA,left,2855.699999999255,1,2,1199.5
BqFjXC1O,NA,NA,BqFjXC1O,2020-0188,2021-09-26,13:30:53,14:59:55,NA,incomplete,false,NA,true,1,3,NA,NA,left,NA,NA,i_c_015.jpg,o_c_011.jpg,within,NA,NaN,NA,right,9276.300000000745,0,1,1166.5999999977648
BqFjXC1O,NA,NA,BqFjXC1O,2020-0188,2021-09-26,13:30:53,14:59:55,NA,incomplete,false,NA,true,1,4,NA,NA,right,NA,NA,m_s_008.jpg,n_s_004.jpg,within,NA,NaN,NA,left,3784.300000000745,0,1,1045.5999999977648
BqFjXC1O,NA,NA,BqFjXC1O,2020-0188,2021-09-26,13:30:53,14:59:55,NA,incomplete,false,NA,true,1,5,NA,NA,right,NA,NA,n_s_003.jpg,m_s_019.jpg,between-small,NA,NaN,NA,left,4195.10000000149,0,0,1240.699999999255
BqFjXC1O,NA,NA,BqFjXC1O,2020-0188,2021-09-26,13:30:53,14:59:55,NA,incomplete,false,NA,true,1,6,NA,NA,left,NA,NA,m_s_008.jpg,m_s_020.jpg,between-small,NA,NaN,NA,right,5749,0,0,1847.800000000745
BqFjXC1O,NA,NA,BqFjXC1O,2020-0188,2021-09-26,13:30:53,14:59:55,NA,incomplete,false,NA,true,1,7,NA,NA,right,NA,NA,c_1_023.jpg,a_2_002.jpg,within,NA,NaN,NA,left,4866.60000000149,0,0,1598.699999999255
BqFjXC1O,NA,NA,BqFjXC1O,2020-0188,2021-09-26,13:30:53,14:59:55,NA,incomplete,false,NA,true,1,8,NA,NA,right,NA,NA,i_s_012.jpg,n_l_009.jpg,between-big,NA,NaN,NA,right,6136.70000000298,1,2,3367.39999999851
BqFjXC1O,NA,NA,BqFjXC1O,2020-0188,2021-09-26,13:30:53,14:59:55,NA,incomplete,false,NA,true,1,9,NA,NA,left,NA,NA,c_1_023.jpg,c_2_022.jpg,between-small,NA,NaN,NA,left,4240.199999999255,1,1,4369.199999999255
BqFjXC1O,NA,NA,BqFjXC1O,2020-0188,2021-09-26,13:30:53,14:59:55,NA,incomplete,false,NA,true,1,10,NA,NA,left,NA,NA,m_s_020.jpg,o_c_026.jpg,between-big,NA,NaN,NA,left,7486.300000000745,1,2,2269.300000000745
BqFjXC1O,NA,NA,BqFjXC1O,2020-0188,2021-09-26,13:30:53,14:59:55,NA,incomplete,false,NA,true,1,11,NA,NA,left,NA,NA,m_l_004.jpg,m_s_019.jpg,within,NA,NaN,NA,left,2179.300000000745,1,1,1136.800000000745
BqFjXC1O,NA,NA,BqFjXC1O,2020-0188,2021-09-26,13:30:53,14:59:55,NA,incomplete,false,NA,true,1,12,NA,NA,right,NA,NA,m_l_011.jpg,n_l_015.jpg,between-small,NA,NaN,NA,left,3833.2999999970198,0,2,9972.60000000149
BqFjXC1O,NA,NA,BqFjXC1O,2020-0188,2021-09-26,13:30:53,14:59:55,NA,incomplete,false,NA,true,1,13,NA,NA,right,NA,NA,a_1_016.jpg,a_1_027.jpg,within,NA,NaN,NA,left,4819,0,1,2139.89999999851
BqFjXC1O,NA,NA,BqFjXC1O,2020-0188,2021-09-26,13:30:53,14:59:55,NA,incomplete,false,NA,true,1,14,NA,NA,right,NA,NA,n_l_009.jpg,m_l_011.jpg,within,NA,NaN,NA,right,11191.60000000149,1,0,1816.3999999985099
BqFjXC1O,NA,NA,BqFjXC1O,2020-0188,2021-09-26,13:30:53,14:59:55,NA,incomplete,false,NA,true,1,15,NA,NA,right,NA,NA,a_1_014.jpg,a_2_023.jpg,within,NA,NaN,NA,right,6242.300000000745,1,0,1170.3999999985099
BqFjXC1O,NA,NA,BqFjXC1O,2020-0188,2021-09-26,13:30:53,14:59:55,NA,incomplete,false,NA,true,1,16,NA,NA,left,NA,NA,a_1_016.jpg,c_1_011.jpg,between-small,NA,NaN,NA,right,5587.5,0,0,1954
BqFjXC1O,NA,NA,BqFjXC1O,2020-0188,2021-09-26,13:30:53,14:59:55,NA,incomplete,false,NA,true,1,17,NA,NA,right,NA,NA,i_s_004.jpg,i_s_012.jpg,within,NA,NaN,NA,right,3651.39999999851,1,1,5994.199999999255
BqFjXC1O,NA,NA,BqFjXC1O,2020-0188,2021-09-26,13:30:53,14:59:55,NA,incomplete,false,NA,true,1,18,NA,NA,left,NA,NA,i_c_016.jpg,i_c_015.jpg,between-small,NA,NaN,NA,left,3763.60000000149,1,0,3043.89999999851
BqFjXC1O,NA,NA,BqFjXC1O,2020-0188,2021-09-26,13:30:53,14:59:55,NA,incomplete,false,NA,true,1,19,NA,NA,left,NA,NA,o_c_026.jpg,i_c_016.jpg,within,NA,NaN,NA,right,2309.300000000745,0,3,1896.9000000022352
BqFjXC1O,NA,NA,BqFjXC1O,2020-0188,2021-09-26,13:30:53,14:59:55,NA,incomplete,false,NA,true,1,20,NA,NA,left,NA,NA,i_s_004.jpg,o_s_023.jpg,between-small,NA,NaN,NA,right,2882.60000000149,0,1,1818.5999999977648
BqFjXC1O,NA,NA,BqFjXC1O,2020-0188,2021-09-26,13:30:53,14:59:55,NA,incomplete,false,NA,true,1,21,NA,NA,left,NA,NA,c_2_022.jpg,m_l_004.jpg,between-big,NA,NaN,NA,left,2422.39999999851,1,2,967.5999999977648
BqFjXC1O,NA,NA,BqFjXC1O,2020-0188,2021-09-26,13:30:53,14:59:55,NA,incomplete,false,NA,true,1,22,NA,NA,left,NA,NA,c_1_011.jpg,a_1_018.jpg,within,NA,NaN,NA,left,2608.2000000029802,1,2,983.3999999985099
BqFjXC1O,NA,NA,BqFjXC1O,2020-0188,2021-09-26,13:30:53,14:59:55,NA,incomplete,false,NA,true,1,23,NA,NA,right,NA,NA,i_s_013.jpg,o_c_005.jpg,within,NA,NaN,NA,right,2421.89999999851,1,3,1516.199999999255
BqFjXC1O,NA,NA,BqFjXC1O,2020-0188,2021-09-26,13:30:53,14:59:55,NA,incomplete,false,NA,true,1,24,NA,NA,right,NA,NA,a_2_023.jpg,a_1_008.jpg,between-small,NA,NaN,NA,right,7310.699999999255,1,2,2422
BqFjXC1O,NA,NA,BqFjXC1O,2020-0188,2021-09-26,13:30:53,14:59:55,NA,incomplete,false,NA,true,1,25,NA,NA,right,NA,NA,n_l_010.jpg,n_s_003.jpg,within,NA,NaN,NA,right,4560.89999999851,1,0,2446
BqFjXC1O,NA,NA,BqFjXC1O,2020-0188,2021-09-26,13:30:53,14:59:55,NA,incomplete,false,NA,true,1,26,NA,NA,right,NA,NA,o_c_005.jpg,i_s_019.jpg,between-small,NA,NaN,NA,right,2536.800000000745,1,2,2405.800000000745
BqFjXC1O,NA,NA,BqFjXC1O,2020-0188,2021-09-26,13:30:53,14:59:55,NA,incomplete,false,true,NA,2,0,location,o_s_022.jpg,right,indoor,outdoor,NA,NA,NA,right,1556.29999999702,true,NA,NA,NA,NA,NA
BqFjXC1O,NA,NA,BqFjXC1O,2020-0188,2021-09-26,13:30:53,14:59:55,NA,incomplete,false,true,NA,2,1,location,o_s_009.jpg,right,indoor,outdoor,NA,NA,NA,right,1092.30000000075,true,NA,NA,NA,NA,NA
BqFjXC1O,NA,NA,BqFjXC1O,2020-0188,2021-09-26,13:30:53,14:59:55,NA,incomplete,false,true,NA,2,2,location,o_c_010.jpg,right,indoor,outdoor,NA,NA,NA,right,1756.80000000075,true,NA,NA,NA,NA,NA
BqFjXC1O,NA,NA,BqFjXC1O,2020-0188,2021-09-26,13:30:53,14:59:55,NA,incomplete,false,true,NA,2,3,location,i_s_028.jpg,left,indoor,outdoor,NA,NA,NA,left,1298.40000000224,true,NA,NA,NA,NA,NA
BqFjXC1O,NA,NA,BqFjXC1O,2020-0188,2021-09-26,13:30:53,14:59:55,NA,incomplete,false,true,NA,2,4,location,i_s_016.jpg,left,indoor,outdoor,NA,NA,NA,left,1576.89999999851,true,NA,NA,NA,NA,NA
BqFjXC1O,NA,NA,BqFjXC1O,2020-0188,2021-09-26,13:30:53,14:59:55,NA,incomplete,false,true,NA,2,5,building,o_c_024.jpg,right,skyscraper,cottage,NA,NA,NA,right,1551.59999999776,true,NA,NA,NA,NA,NA
BqFjXC1O,NA,NA,BqFjXC1O,2020-0188,2021-09-26,13:30:53,14:59:55,NA,incomplete,false,true,NA,2,6,building,o_s_004.jpg,left,skyscraper,cottage,NA,NA,NA,left,1474.59999999776,true,NA,NA,NA,NA,NA
BqFjXC1O,NA,NA,BqFjXC1O,2020-0188,2021-09-26,13:30:53,14:59:55,NA,incomplete,false,true,NA,2,7,building,i_c_026.jpg,right,skyscraper,cottage,NA,NA,NA,right,1349.5,true,NA,NA,NA,NA,NA
BqFjXC1O,NA,NA,BqFjXC1O,2020-0188,2021-09-26,13:30:53,14:59:55,NA,incomplete,false,true,NA,2,8,building,i_c_022.jpg,left,cottage,skyscraper,NA,NA,NA,left,1264.59999999776,true,NA,NA,NA,NA,NA
BqFjXC1O,NA,NA,BqFjXC1O,2020-0188,2021-09-26,13:30:53,14:59:55,NA,incomplete,false,true,NA,2,9,building,i_s_024.jpg,right,cottage,skyscraper,NA,NA,NA,right,997.199999999255,true,NA,NA,NA,NA,NA
BqFjXC1O,NA,NA,BqFjXC1O,2020-0188,2021-09-26,13:30:53,14:59:55,NA,incomplete,false,true,NA,2,10,size,m_l_013.jpg,right,small,large,NA,NA,NA,right,2026.80000000075,true,NA,NA,NA,NA,NA
BqFjXC1O,NA,NA,BqFjXC1O,2020-0188,2021-09-26,13:30:53,14:59:55,NA,incomplete,false,true,NA,2,11,size,m_s_023.jpg,left,small,large,NA,NA,NA,left,1124.19999999925,true,NA,NA,NA,NA,NA
BqFjXC1O,NA,NA,BqFjXC1O,2020-0188,2021-09-26,13:30:53,14:59:55,NA,incomplete,false,true,NA,2,12,size,n_s_011.jpg,left,small,large,NA,NA,NA,left,1550.89999999851,true,NA,NA,NA,NA,NA
BqFjXC1O,NA,NA,BqFjXC1O,2020-0188,2021-09-26,13:30:53,14:59:55,NA,incomplete,false,true,NA,2,13,size,n_l_023.jpg,left,large,small,NA,NA,NA,left,1345.80000000075,true,NA,NA,NA,NA,NA
BqFjXC1O,NA,NA,BqFjXC1O,2020-0188,2021-09-26,13:30:53,14:59:55,NA,incomplete,false,true,NA,2,14,size,m_s_005.jpg,right,large,small,NA,NA,NA,right,2085,true,NA,NA,NA,NA,NA
BqFjXC1O,NA,NA,BqFjXC1O,2020-0188,2021-09-26,13:30:53,14:59:55,NA,incomplete,false,true,NA,2,15,origin,m_l_003.jpg,left,manmade,natural,NA,NA,NA,left,1579.70000000298,true,NA,NA,NA,NA,NA
BqFjXC1O,NA,NA,BqFjXC1O,2020-0188,2021-09-26,13:30:53,14:59:55,NA,incomplete,false,true,NA,2,16,origin,n_s_027.jpg,right,manmade,natural,NA,NA,NA,right,2321,true,NA,NA,NA,NA,NA
BqFjXC1O,NA,NA,BqFjXC1O,2020-0188,2021-09-26,13:30:53,14:59:55,NA,incomplete,false,true,NA,2,17,origin,n_l_021.jpg,left,natural,manmade,NA,NA,NA,left,1577.5,true,NA,NA,NA,NA,NA
BqFjXC1O,NA,NA,BqFjXC1O,2020-0188,2021-09-26,13:30:53,14:59:55,NA,incomplete,false,true,NA,2,18,origin,m_s_027.jpg,left,manmade,natural,NA,NA,NA,left,1899.29999999702,true,NA,NA,NA,NA,NA
BqFjXC1O,NA,NA,BqFjXC1O,2020-0188,2021-09-26,13:30:53,14:59:55,NA,incomplete,false,true,NA,2,19,origin,m_l_001.jpg,right,natural,manmade,NA,NA,NA,right,1356.80000000075,true,NA,NA,NA,NA,NA
BqFjXC1O,NA,NA,BqFjXC1O,2020-0188,2021-09-26,13:30:53,14:59:55,NA,incomplete,false,true,NA,2,20,syllable,c_2_010.jpg,right,2 syllables,1 syllable,NA,NA,NA,left,1993.89999999851,false,NA,NA,NA,NA,NA
BqFjXC1O,NA,NA,BqFjXC1O,2020-0188,2021-09-26,13:30:53,14:59:55,NA,incomplete,false,true,NA,2,21,syllable,a_2_003.jpg,right,1 syllable,2 syllables,NA,NA,NA,right,1838.29999999702,true,NA,NA,NA,NA,NA
BqFjXC1O,NA,NA,BqFjXC1O,2020-0188,2021-09-26,13:30:53,14:59:55,NA,incomplete,false,true,NA,2,22,syllable,a_2_007.jpg,right,1 syllable,2 syllables,NA,NA,NA,right,1107.30000000075,true,NA,NA,NA,NA,NA
BqFjXC1O,NA,NA,BqFjXC1O,2020-0188,2021-09-26,13:30:53,14:59:55,NA,incomplete,false,true,NA,2,23,syllable,c_1_020.jpg,right,1 syllable,2 syllables,NA,NA,NA,left,1023.5,false,NA,NA,NA,NA,NA
BqFjXC1O,NA,NA,BqFjXC1O,2020-0188,2021-09-26,13:30:53,14:59:55,NA,incomplete,false,true,NA,2,24,syllable,c_2_020.jpg,right,2 syllables,1 syllable,NA,NA,NA,left,1605,false,NA,NA,NA,NA,NA
BqFjXC1O,NA,NA,BqFjXC1O,2020-0188,2021-09-26,13:30:53,14:59:55,NA,incomplete,false,true,NA,2,25,abstractness,a_1_012.jpg,right,concrete,abstract,NA,NA,NA,right,2580.69999999925,true,NA,NA,NA,NA,NA
BqFjXC1O,NA,NA,BqFjXC1O,2020-0188,2021-09-26,13:30:53,14:59:55,NA,incomplete,false,true,NA,2,26,abstractness,c_2_023.jpg,left,concrete,abstract,NA,NA,NA,left,1217.30000000075,true,NA,NA,NA,NA,NA
BqFjXC1O,NA,NA,BqFjXC1O,2020-0188,2021-09-26,13:30:53,14:59:55,NA,incomplete,false,true,NA,2,27,abstractness,c_1_017.jpg,right,abstract,concrete,NA,NA,NA,right,1785.59999999776,true,NA,NA,NA,NA,NA
BqFjXC1O,NA,NA,BqFjXC1O,2020-0188,2021-09-26,13:30:53,14:59:55,NA,incomplete,false,true,NA,2,28,abstractness,a_1_019.jpg,right,concrete,abstract,NA,NA,NA,right,1622.10000000149,true,NA,NA,NA,NA,NA
BqFjXC1O,NA,NA,BqFjXC1O,2020-0188,2021-09-26,13:30:53,14:59:55,NA,incomplete,false,true,NA,2,29,abstractness,a_1_022.jpg,right,concrete,abstract,NA,NA,NA,right,1840.39999999851,true,NA,NA,NA,NA,NA
BqFjXC1O,NA,NA,BqFjXC1O,2020-0188,2021-09-26,13:30:53,14:59:55,NA,incomplete,false,NA,true,2,0,NA,NA,right,NA,NA,i_s_016.jpg,o_s_009.jpg,within,NA,NaN,NA,right,2242.10000000149,1,1,1054.3999999985099
BqFjXC1O,NA,NA,BqFjXC1O,2020-0188,2021-09-26,13:30:53,14:59:55,NA,incomplete,false,NA,true,2,1,NA,NA,right,NA,NA,m_s_027.jpg,m_l_003.jpg,within,NA,NaN,NA,right,3486.89999999851,1,2,1522.199999999255
BqFjXC1O,NA,NA,BqFjXC1O,2020-0188,2021-09-26,13:30:53,14:59:55,NA,incomplete,false,NA,true,2,2,NA,NA,left,NA,NA,n_l_023.jpg,n_s_027.jpg,between-small,NA,NaN,NA,left,4076.39999999851,1,1,1054.300000000745
BqFjXC1O,NA,NA,BqFjXC1O,2020-0188,2021-09-26,13:30:53,14:59:55,NA,incomplete,false,NA,true,2,3,NA,NA,right,NA,NA,i_s_024.jpg,o_s_004.jpg,within,NA,NaN,NA,left,3576.699999999255,0,1,1439.0999999977648
BqFjXC1O,NA,NA,BqFjXC1O,2020-0188,2021-09-26,13:30:53,14:59:55,NA,incomplete,false,NA,true,2,4,NA,NA,right,NA,NA,c_2_023.jpg,c_1_020.jpg,between-small,NA,NaN,NA,right,5658.29999999702,1,1,822.3000000007451
BqFjXC1O,NA,NA,BqFjXC1O,2020-0188,2021-09-26,13:30:53,14:59:55,NA,incomplete,false,NA,true,2,5,NA,NA,left,NA,NA,i_s_016.jpg,i_c_026.jpg,between-small,NA,NaN,NA,left,4540.900000002235,1,0,864.2999999970198
BqFjXC1O,NA,NA,BqFjXC1O,2020-0188,2021-09-26,13:30:53,14:59:55,NA,incomplete,false,NA,true,2,6,NA,NA,left,NA,NA,i_s_028.jpg,o_s_004.jpg,between-small,NA,NaN,NA,left,2325,1,0,1396.1000000014901
BqFjXC1O,NA,NA,BqFjXC1O,2020-0188,2021-09-26,13:30:53,14:59:55,NA,incomplete,false,NA,true,2,7,NA,NA,right,NA,NA,c_1_020.jpg,c_2_010.jpg,within,NA,NaN,NA,right,3892.5,1,1,1056.7000000029802
BqFjXC1O,NA,NA,BqFjXC1O,2020-0188,2021-09-26,13:30:53,14:59:55,NA,incomplete,false,NA,true,2,8,NA,NA,right,NA,NA,m_s_023.jpg,i_c_022.jpg,between-big,NA,NaN,NA,right,2211.10000000149,1,1,1128.8999999985099
BqFjXC1O,NA,NA,BqFjXC1O,2020-0188,2021-09-26,13:30:53,14:59:55,NA,incomplete,false,NA,true,2,9,NA,NA,left,NA,NA,c_2_023.jpg,a_1_022.jpg,within,NA,NaN,NA,right,6701.900000002235,0,0,1969.6000000014901
BqFjXC1O,NA,NA,BqFjXC1O,2020-0188,2021-09-26,13:30:53,14:59:55,NA,incomplete,false,NA,true,2,10,NA,NA,right,NA,NA,n_l_021.jpg,m_s_005.jpg,between-small,NA,NaN,NA,right,7266,1,2,1000.2000000029802
BqFjXC1O,NA,NA,BqFjXC1O,2020-0188,2021-09-26,13:30:53,14:59:55,NA,incomplete,false,NA,true,2,11,NA,NA,right,NA,NA,m_l_003.jpg,n_s_011.jpg,between-small,NA,NaN,NA,right,10066.89999999851,1,2,1031.5
BqFjXC1O,NA,NA,BqFjXC1O,2020-0188,2021-09-26,13:30:53,14:59:55,NA,incomplete,false,NA,true,2,12,NA,NA,right,NA,NA,m_s_005.jpg,m_s_023.jpg,within,NA,NaN,NA,right,2025.8999999985099,1,1,1095.3999999985099
BqFjXC1O,NA,NA,BqFjXC1O,2020-0188,2021-09-26,13:30:53,14:59:55,NA,incomplete,false,NA,true,2,13,NA,NA,left,NA,NA,o_c_010.jpg,o_c_024.jpg,between-small,NA,NaN,NA,left,3173,1,1,1436.3999999985099
BqFjXC1O,NA,NA,BqFjXC1O,2020-0188,2021-09-26,13:30:53,14:59:55,NA,incomplete,false,NA,true,2,14,NA,NA,left,NA,NA,c_2_020.jpg,c_1_017.jpg,between-small,NA,NaN,NA,left,2737.800000000745,1,3,1460.6000000014901
BqFjXC1O,NA,NA,BqFjXC1O,2020-0188,2021-09-26,13:30:53,14:59:55,NA,incomplete,false,NA,true,2,15,NA,NA,left,NA,NA,m_s_027.jpg,a_2_003.jpg,between-big,NA,NaN,NA,left,5508.5,1,2,798.7999999970198
BqFjXC1O,NA,NA,BqFjXC1O,2020-0188,2021-09-26,13:30:53,14:59:55,NA,incomplete,false,NA,true,2,16,NA,NA,left,NA,NA,i_c_026.jpg,m_l_013.jpg,between-big,NA,NaN,NA,left,2656.60000000149,1,2,927.2999999970198
BqFjXC1O,NA,NA,BqFjXC1O,2020-0188,2021-09-26,13:30:53,14:59:55,NA,incomplete,false,NA,true,2,17,NA,NA,right,NA,NA,i_c_022.jpg,o_c_024.jpg,within,NA,NaN,NA,left,4586.699999999255,0,1,1314.699999999255
BqFjXC1O,NA,NA,BqFjXC1O,2020-0188,2021-09-26,13:30:53,14:59:55,NA,incomplete,false,NA,true,2,18,NA,NA,left,NA,NA,m_l_013.jpg,n_l_023.jpg,within,NA,NaN,NA,left,6808.20000000298,1,0,1800.8999999985099
BqFjXC1O,NA,NA,BqFjXC1O,2020-0188,2021-09-26,13:30:53,14:59:55,NA,incomplete,false,NA,true,2,19,NA,NA,left,NA,NA,n_l_021.jpg,c_2_010.jpg,between-big,NA,NaN,NA,left,4940.60000000149,1,1,1347.800000000745
BqFjXC1O,NA,NA,BqFjXC1O,2020-0188,2021-09-26,13:30:53,14:59:55,NA,incomplete,false,NA,true,2,20,NA,NA,right,NA,NA,i_s_028.jpg,o_s_022.jpg,within,NA,NaN,NA,right,3795.10000000149,1,0,2858.199999999255
BqFjXC1O,NA,NA,BqFjXC1O,2020-0188,2021-09-26,13:30:53,14:59:55,NA,incomplete,false,NA,true,2,21,NA,NA,right,NA,NA,c_2_020.jpg,a_2_003.jpg,within,NA,NaN,NA,right,8382.10000000149,1,2,1177.6000000014901
BqFjXC1O,NA,NA,BqFjXC1O,2020-0188,2021-09-26,13:30:53,14:59:55,NA,incomplete,false,NA,true,2,22,NA,NA,right,NA,NA,n_s_011.jpg,i_s_024.jpg,between-big,NA,NaN,NA,right,2025.5999999977648,1,3,1127.800000000745
BqFjXC1O,NA,NA,BqFjXC1O,2020-0188,2021-09-26,13:30:53,14:59:55,NA,incomplete,false,NA,true,2,23,NA,NA,right,NA,NA,a_1_012.jpg,a_2_007.jpg,between-small,NA,NaN,NA,right,6607.89999999851,1,1,1815.1000000014901
BqFjXC1O,NA,NA,BqFjXC1O,2020-0188,2021-09-26,13:30:53,14:59:55,NA,incomplete,false,NA,true,2,24,NA,NA,right,NA,NA,m_l_001.jpg,n_s_027.jpg,within,NA,NaN,NA,left,2155.39999999851,0,2,2106.7000000029802
BqFjXC1O,NA,NA,BqFjXC1O,2020-0188,2021-09-26,13:30:53,14:59:55,NA,incomplete,false,NA,true,2,25,NA,NA,left,NA,NA,m_l_001.jpg,a_2_007.jpg,between-big,NA,NaN,NA,left,1953.7999999970198,1,3,1516.7999999970198
BqFjXC1O,NA,NA,BqFjXC1O,2020-0188,2021-09-26,13:30:53,14:59:55,NA,incomplete,false,NA,true,2,26,NA,NA,left,NA,NA,a_1_012.jpg,a_1_019.jpg,within,NA,NaN,NA,right,2971.099999997765,0,0,1412.800000000745
BqFjXC1O,NA,NA,BqFjXC1O,2020-0188,2021-09-26,13:30:53,14:59:55,NA,incomplete,false,true,NA,3,0,syllable,c_1_005.jpg,right,1 syllable,2 syllables,NA,NA,NA,left,2042.39999999851,false,NA,NA,NA,NA,NA
BqFjXC1O,NA,NA,BqFjXC1O,2020-0188,2021-09-26,13:30:53,14:59:55,NA,incomplete,false,true,NA,3,1,syllable,c_2_028.jpg,right,2 syllables,1 syllable,NA,NA,NA,left,2253.30000000075,false,NA,NA,NA,NA,NA
BqFjXC1O,NA,NA,BqFjXC1O,2020-0188,2021-09-26,13:30:53,14:59:55,NA,incomplete,false,true,NA,3,2,syllable,a_2_028.jpg,right,1 syllable,2 syllables,NA,NA,NA,right,1269,true,NA,NA,NA,NA,NA
BqFjXC1O,NA,NA,BqFjXC1O,2020-0188,2021-09-26,13:30:53,14:59:55,NA,incomplete,false,true,NA,3,3,syllable,c_1_004.jpg,right,1 syllable,2 syllables,NA,NA,NA,left,1531.40000000224,false,NA,NA,NA,NA,NA
BqFjXC1O,NA,NA,BqFjXC1O,2020-0188,2021-09-26,13:30:53,14:59:55,NA,incomplete,false,true,NA,3,4,syllable,a_2_009.jpg,right,2 syllables,1 syllable,NA,NA,NA,left,2115.80000000075,false,NA,NA,NA,NA,NA
BqFjXC1O,NA,NA,BqFjXC1O,2020-0188,2021-09-26,13:30:53,14:59:55,NA,incomplete,false,true,NA,3,5,abstractness,a_2_008.jpg,left,abstract,concrete,NA,NA,NA,left,3062.19999999925,true,NA,NA,NA,NA,NA
BqFjXC1O,NA,NA,BqFjXC1O,2020-0188,2021-09-26,13:30:53,14:59:55,NA,incomplete,false,true,NA,3,6,abstractness,c_1_021.jpg,right,abstract,concrete,NA,NA,NA,right,2163.09999999776,true,NA,NA,NA,NA,NA
BqFjXC1O,NA,NA,BqFjXC1O,2020-0188,2021-09-26,13:30:53,14:59:55,NA,incomplete,false,true,NA,3,7,abstractness,a_2_027.jpg,left,abstract,concrete,NA,NA,NA,left,2021.30000000075,true,NA,NA,NA,NA,NA
BqFjXC1O,NA,NA,BqFjXC1O,2020-0188,2021-09-26,13:30:53,14:59:55,NA,incomplete,false,true,NA,3,8,abstractness,c_2_025.jpg,left,concrete,abstract,NA,NA,NA,left,1498.5,true,NA,NA,NA,NA,NA
BqFjXC1O,NA,NA,BqFjXC1O,2020-0188,2021-09-26,13:30:53,14:59:55,NA,incomplete,false,true,NA,3,9,abstractness,a_1_013.jpg,left,abstract,concrete,NA,NA,NA,left,1813.20000000298,true,NA,NA,NA,NA,NA
BqFjXC1O,NA,NA,BqFjXC1O,2020-0188,2021-09-26,13:30:53,14:59:55,NA,incomplete,false,true,NA,3,10,origin,n_l_019.jpg,right,manmade,natural,NA,NA,NA,right,1294.19999999925,true,NA,NA,NA,NA,NA
BqFjXC1O,NA,NA,BqFjXC1O,2020-0188,2021-09-26,13:30:53,14:59:55,NA,incomplete,false,true,NA,3,11,origin,m_s_012.jpg,right,natural,manmade,NA,NA,NA,right,1743.09999999776,true,NA,NA,NA,NA,NA
BqFjXC1O,NA,NA,BqFjXC1O,2020-0188,2021-09-26,13:30:53,14:59:55,NA,incomplete,false,true,NA,3,12,origin,n_l_024.jpg,right,manmade,natural,NA,NA,NA,right,1396.60000000149,true,NA,NA,NA,NA,NA
BqFjXC1O,NA,NA,BqFjXC1O,2020-0188,2021-09-26,13:30:53,14:59:55,NA,incomplete,false,true,NA,3,13,origin,n_s_024.jpg,right,manmade,natural,NA,NA,NA,right,1098.79999999702,true,NA,NA,NA,NA,NA
BqFjXC1O,NA,NA,BqFjXC1O,2020-0188,2021-09-26,13:30:53,14:59:55,NA,incomplete,false,true,NA,3,14,origin,n_s_009.jpg,left,natural,manmade,NA,NA,NA,left,1421.60000000149,true,NA,NA,NA,NA,NA
BqFjXC1O,NA,NA,BqFjXC1O,2020-0188,2021-09-26,13:30:53,14:59:55,NA,incomplete,false,true,NA,3,15,size,n_l_004.jpg,left,large,small,NA,NA,NA,left,1734.30000000075,true,NA,NA,NA,NA,NA
BqFjXC1O,NA,NA,BqFjXC1O,2020-0188,2021-09-26,13:30:53,14:59:55,NA,incomplete,false,true,NA,3,16,size,m_s_004.jpg,left,small,large,NA,NA,NA,left,1571.10000000149,true,NA,NA,NA,NA,NA
BqFjXC1O,NA,NA,BqFjXC1O,2020-0188,2021-09-26,13:30:53,14:59:55,NA,incomplete,false,true,NA,3,17,size,n_l_014.jpg,left,large,small,NA,NA,NA,left,1182.30000000075,true,NA,NA,NA,NA,NA
BqFjXC1O,NA,NA,BqFjXC1O,2020-0188,2021-09-26,13:30:53,14:59:55,NA,incomplete,false,true,NA,3,18,size,n_l_017.jpg,left,large,small,NA,NA,NA,left,1335.30000000075,true,NA,NA,NA,NA,NA
BqFjXC1O,NA,NA,BqFjXC1O,2020-0188,2021-09-26,13:30:53,14:59:55,NA,incomplete,false,true,NA,3,19,size,m_l_018.jpg,right,small,large,NA,NA,NA,right,1504.59999999776,true,NA,NA,NA,NA,NA
BqFjXC1O,NA,NA,BqFjXC1O,2020-0188,2021-09-26,13:30:53,14:59:55,NA,incomplete,false,true,NA,3,20,location,o_c_028.jpg,left,outdoor,indoor,NA,NA,NA,left,1988.40000000224,true,NA,NA,NA,NA,NA
BqFjXC1O,NA,NA,BqFjXC1O,2020-0188,2021-09-26,13:30:53,14:59:55,NA,incomplete,false,true,NA,3,21,location,i_c_002.jpg,left,indoor,outdoor,NA,NA,NA,left,1549.5,true,NA,NA,NA,NA,NA
BqFjXC1O,NA,NA,BqFjXC1O,2020-0188,2021-09-26,13:30:53,14:59:55,NA,incomplete,false,true,NA,3,22,location,o_c_007.jpg,left,outdoor,indoor,NA,NA,NA,left,1660.19999999925,true,NA,NA,NA,NA,NA
BqFjXC1O,NA,NA,BqFjXC1O,2020-0188,2021-09-26,13:30:53,14:59:55,NA,incomplete,false,true,NA,3,23,location,o_s_021.jpg,left,outdoor,indoor,NA,NA,NA,left,1284.69999999925,true,NA,NA,NA,NA,NA
BqFjXC1O,NA,NA,BqFjXC1O,2020-0188,2021-09-26,13:30:53,14:59:55,NA,incomplete,false,true,NA,3,24,location,i_s_021.jpg,left,indoor,outdoor,NA,NA,NA,left,1473.69999999925,true,NA,NA,NA,NA,NA
BqFjXC1O,NA,NA,BqFjXC1O,2020-0188,2021-09-26,13:30:53,14:59:55,NA,incomplete,false,true,NA,3,25,building,i_s_022.jpg,left,skyscraper,cottage,NA,NA,NA,left,1532.20000000298,true,NA,NA,NA,NA,NA
BqFjXC1O,NA,NA,BqFjXC1O,2020-0188,2021-09-26,13:30:53,14:59:55,NA,incomplete,false,true,NA,3,26,building,o_c_020.jpg,right,skyscraper,cottage,NA,NA,NA,right,1645.60000000149,true,NA,NA,NA,NA,NA
BqFjXC1O,NA,NA,BqFjXC1O,2020-0188,2021-09-26,13:30:53,14:59:55,NA,incomplete,false,true,NA,3,27,building,o_s_024.jpg,right,cottage,skyscraper,NA,NA,NA,right,1964.19999999925,true,NA,NA,NA,NA,NA
BqFjXC1O,NA,NA,BqFjXC1O,2020-0188,2021-09-26,13:30:53,14:59:55,NA,incomplete,false,true,NA,3,28,building,o_c_013.jpg,left,cottage,skyscraper,NA,NA,NA,left,1184.69999999925,true,NA,NA,NA,NA,NA
BqFjXC1O,NA,NA,BqFjXC1O,2020-0188,2021-09-26,13:30:53,14:59:55,NA,incomplete,false,true,NA,3,29,building,i_s_002.jpg,left,skyscraper,cottage,NA,NA,NA,left,1465,true,NA,NA,NA,NA,NA
BqFjXC1O,NA,NA,BqFjXC1O,2020-0188,2021-09-26,13:30:53,14:59:55,NA,incomplete,false,NA,true,3,0,NA,NA,right,NA,NA,o_c_013.jpg,i_s_022.jpg,within,NA,NaN,NA,right,6623,1,1,1991.699999999255
BqFjXC1O,NA,NA,BqFjXC1O,2020-0188,2021-09-26,13:30:53,14:59:55,NA,incomplete,false,NA,true,3,1,NA,NA,left,NA,NA,i_c_002.jpg,i_s_021.jpg,within,NA,NaN,NA,left,3520.5,1,2,1999.5
BqFjXC1O,NA,NA,BqFjXC1O,2020-0188,2021-09-26,13:30:53,14:59:55,NA,incomplete,false,NA,true,3,2,NA,NA,right,NA,NA,i_c_002.jpg,n_l_017.jpg,between-big,NA,NaN,NA,right,2887.39999999851,1,2,9462.39999999851
BqFjXC1O,NA,NA,BqFjXC1O,2020-0188,2021-09-26,13:30:53,14:59:55,NA,incomplete,false,NA,true,3,3,NA,NA,left,NA,NA,o_s_021.jpg,o_c_020.jpg,between-small,NA,NaN,NA,left,2583.7999999970198,1,2,3247.199999999255
BqFjXC1O,NA,NA,BqFjXC1O,2020-0188,2021-09-26,13:30:53,14:59:55,NA,incomplete,false,NA,true,3,4,NA,NA,left,NA,NA,a_1_013.jpg,n_l_024.jpg,between-big,NA,NaN,NA,left,3084,1,2,1081.2000000029802
BqFjXC1O,NA,NA,BqFjXC1O,2020-0188,2021-09-26,13:30:53,14:59:55,NA,incomplete,false,NA,true,3,5,NA,NA,right,NA,NA,a_2_008.jpg,a_2_028.jpg,between-small,NA,NaN,NA,left,3126,0,0,2851.89999999851
BqFjXC1O,NA,NA,BqFjXC1O,2020-0188,2021-09-26,13:30:53,14:59:55,NA,incomplete,false,NA,true,3,6,NA,NA,right,NA,NA,i_s_002.jpg,o_c_020.jpg,within,NA,NaN,NA,right,3205.099999997765,1,1,1153.5
BqFjXC1O,NA,NA,BqFjXC1O,2020-0188,2021-09-26,13:30:53,14:59:55,NA,incomplete,false,NA,true,3,7,NA,NA,right,NA,NA,n_l_004.jpg,n_l_024.jpg,between-small,NA,NaN,NA,left,16434,0,2,1290.1000000014901
BqFjXC1O,NA,NA,BqFjXC1O,2020-0188,2021-09-26,13:30:53,14:59:55,NA,incomplete,false,NA,true,3,8,NA,NA,right,NA,NA,n_l_014.jpg,n_s_009.jpg,between-small,NA,NaN,NA,right,7830.39999999851,1,2,1895.8999999985099
BqFjXC1O,NA,NA,BqFjXC1O,2020-0188,2021-09-26,13:30:53,14:59:55,NA,incomplete,false,NA,true,3,9,NA,NA,left,NA,NA,o_c_007.jpg,i_s_022.jpg,between-small,NA,NaN,NA,left,4928.89999999851,1,3,1920
BqFjXC1O,NA,NA,BqFjXC1O,2020-0188,2021-09-26,13:30:53,14:59:55,NA,incomplete,false,NA,true,3,10,NA,NA,left,NA,NA,a_2_008.jpg,c_2_025.jpg,within,NA,NaN,NA,right,2469.89999999851,0,1,862.6000000014901
BqFjXC1O,NA,NA,BqFjXC1O,2020-0188,2021-09-26,13:30:53,14:59:55,NA,incomplete,false,NA,true,3,11,NA,NA,right,NA,NA,c_1_004.jpg,c_1_005.jpg,within,NA,NaN,NA,right,5616.800000000745,1,0,1152.800000000745
BqFjXC1O,NA,NA,BqFjXC1O,2020-0188,2021-09-26,13:30:53,14:59:55,NA,incomplete,false,NA,true,3,12,NA,NA,left,NA,NA,i_s_021.jpg,o_s_024.jpg,between-small,NA,NaN,NA,left,7164,1,0,1444.800000000745
BqFjXC1O,NA,NA,BqFjXC1O,2020-0188,2021-09-26,13:30:53,14:59:55,NA,incomplete,false,NA,true,3,13,NA,NA,right,NA,NA,a_2_009.jpg,c_2_028.jpg,within,NA,NaN,NA,right,2906.199999999255,1,1,1919.5999999977648
BqFjXC1O,NA,NA,BqFjXC1O,2020-0188,2021-09-26,13:30:53,14:59:55,NA,incomplete,false,NA,true,3,14,NA,NA,left,NA,NA,a_2_027.jpg,n_l_019.jpg,between-big,NA,NaN,NA,left,1879.3999999985099,1,1,1984.9000000022352
BqFjXC1O,NA,NA,BqFjXC1O,2020-0188,2021-09-26,13:30:53,14:59:55,NA,incomplete,false,NA,true,3,15,NA,NA,right,NA,NA,o_s_021.jpg,o_c_028.jpg,within,NA,NaN,NA,right,2170.199999999255,1,3,1144.1000000014901
BqFjXC1O,NA,NA,BqFjXC1O,2020-0188,2021-09-26,13:30:53,14:59:55,NA,incomplete,false,NA,true,3,16,NA,NA,left,NA,NA,a_2_009.jpg,a_2_027.jpg,between-small,NA,NaN,NA,left,4278.199999999255,1,1,820.1999999992549
BqFjXC1O,NA,NA,BqFjXC1O,2020-0188,2021-09-26,13:30:53,14:59:55,NA,incomplete,false,NA,true,3,17,NA,NA,left,NA,NA,c_2_025.jpg,m_s_012.jpg,between-big,NA,NaN,NA,left,1937.5,1,2,1411.800000000745
BqFjXC1O,NA,NA,BqFjXC1O,2020-0188,2021-09-26,13:30:53,14:59:55,NA,incomplete,false,NA,true,3,18,NA,NA,right,NA,NA,n_s_024.jpg,n_l_019.jpg,within,NA,NaN,NA,right,2711.099999997765,1,0,1257.6000000014901
BqFjXC1O,NA,NA,BqFjXC1O,2020-0188,2021-09-26,13:30:53,14:59:55,NA,incomplete,false,NA,true,3,19,NA,NA,left,NA,NA,n_l_014.jpg,o_c_028.jpg,between-big,NA,NaN,NA,right,1911.2999999970198,0,1,8465.300000000745
BqFjXC1O,NA,NA,BqFjXC1O,2020-0188,2021-09-26,13:30:53,14:59:55,NA,incomplete,false,NA,true,3,20,NA,NA,left,NA,NA,n_s_024.jpg,m_s_004.jpg,between-small,NA,NaN,NA,right,1853.5999999977648,0,2,1394.8999999985099
BqFjXC1O,NA,NA,BqFjXC1O,2020-0188,2021-09-26,13:30:53,14:59:55,NA,incomplete,false,NA,true,3,21,NA,NA,left,NA,NA,m_s_004.jpg,m_l_018.jpg,within,NA,NaN,NA,left,2663,1,0,1112.800000000745
BqFjXC1O,NA,NA,BqFjXC1O,2020-0188,2021-09-26,13:30:53,14:59:55,NA,incomplete,false,NA,true,3,22,NA,NA,left,NA,NA,c_1_004.jpg,c_1_021.jpg,between-small,NA,NaN,NA,right,5693.800000000745,0,0,1145.699999999255
BqFjXC1O,NA,NA,BqFjXC1O,2020-0188,2021-09-26,13:30:53,14:59:55,NA,incomplete,false,NA,true,3,23,NA,NA,right,NA,NA,o_c_007.jpg,m_l_018.jpg,between-big,NA,NaN,NA,right,2245.39999999851,1,2,1750.800000000745
BqFjXC1O,NA,NA,BqFjXC1O,2020-0188,2021-09-26,13:30:53,14:59:55,NA,incomplete,false,NA,true,3,24,NA,NA,right,NA,NA,n_s_009.jpg,m_s_012.jpg,within,NA,NaN,NA,right,3739.10000000149,1,0,1145.3999999985099
BqFjXC1O,NA,NA,BqFjXC1O,2020-0188,2021-09-26,13:30:53,14:59:55,NA,incomplete,false,NA,true,3,25,NA,NA,left,NA,NA,n_l_004.jpg,n_l_017.jpg,within,NA,NaN,NA,left,2955.60000000149,1,1,2300.60000000149
BqFjXC1O,NA,NA,BqFjXC1O,2020-0188,2021-09-26,13:30:53,14:59:55,NA,incomplete,false,NA,true,3,26,NA,NA,right,NA,NA,a_1_013.jpg,c_1_021.jpg,within,NA,NaN,NA,left,5831.5,0,0,862
BqFjXC1O,NA,NA,BqFjXC1O,2020-0188,2021-09-26,13:30:53,14:59:55,NA,incomplete,false,true,NA,4,0,location,o_s_008.jpg,right,indoor,outdoor,NA,NA,NA,right,1712,true,NA,NA,NA,NA,NA
BqFjXC1O,NA,NA,BqFjXC1O,2020-0188,2021-09-26,13:30:53,14:59:55,NA,incomplete,false,true,NA,4,1,location,i_s_017.jpg,left,indoor,outdoor,NA,NA,NA,left,979.5,true,NA,NA,NA,NA,NA
BqFjXC1O,NA,NA,BqFjXC1O,2020-0188,2021-09-26,13:30:53,14:59:55,NA,incomplete,false,true,NA,4,2,location,o_c_009.jpg,right,indoor,outdoor,NA,NA,NA,right,1750.89999999851,true,NA,NA,NA,NA,NA
BqFjXC1O,NA,NA,BqFjXC1O,2020-0188,2021-09-26,13:30:53,14:59:55,NA,incomplete,false,true,NA,4,3,location,i_c_005.jpg,right,outdoor,indoor,NA,NA,NA,right,1863.09999999776,true,NA,NA,NA,NA,NA
BqFjXC1O,NA,NA,BqFjXC1O,2020-0188,2021-09-26,13:30:53,14:59:55,NA,incomplete,false,true,NA,4,4,location,i_c_011.jpg,right,outdoor,indoor,NA,NA,NA,right,1358.30000000075,true,NA,NA,NA,NA,NA
BqFjXC1O,NA,NA,BqFjXC1O,2020-0188,2021-09-26,13:30:53,14:59:55,NA,incomplete,false,true,NA,4,5,building,o_s_006.jpg,left,skyscraper,cottage,NA,NA,NA,left,1301.09999999776,true,NA,NA,NA,NA,NA
BqFjXC1O,NA,NA,BqFjXC1O,2020-0188,2021-09-26,13:30:53,14:59:55,NA,incomplete,false,true,NA,4,6,building,o_s_017.jpg,left,skyscraper,cottage,NA,NA,NA,left,1510.69999999925,true,NA,NA,NA,NA,NA
BqFjXC1O,NA,NA,BqFjXC1O,2020-0188,2021-09-26,13:30:53,14:59:55,NA,incomplete,false,true,NA,4,7,building,o_c_022.jpg,right,skyscraper,cottage,NA,NA,NA,right,1293.30000000075,true,NA,NA,NA,NA,NA
BqFjXC1O,NA,NA,BqFjXC1O,2020-0188,2021-09-26,13:30:53,14:59:55,NA,incomplete,false,true,NA,4,8,building,i_s_010.jpg,right,cottage,skyscraper,NA,NA,NA,right,1653,true,NA,NA,NA,NA,NA
BqFjXC1O,NA,NA,BqFjXC1O,2020-0188,2021-09-26,13:30:53,14:59:55,NA,incomplete,false,true,NA,4,9,building,i_c_013.jpg,right,skyscraper,cottage,NA,NA,NA,right,1580.89999999851,true,NA,NA,NA,NA,NA
BqFjXC1O,NA,NA,BqFjXC1O,2020-0188,2021-09-26,13:30:53,14:59:55,NA,incomplete,false,true,NA,4,10,origin,n_s_006.jpg,right,manmade,natural,NA,NA,NA,right,1300.69999999925,true,NA,NA,NA,NA,NA
BqFjXC1O,NA,NA,BqFjXC1O,2020-0188,2021-09-26,13:30:53,14:59:55,NA,incomplete,false,true,NA,4,11,origin,n_l_008.jpg,left,natural,manmade,NA,NA,NA,left,1237.89999999851,true,NA,NA,NA,NA,NA
BqFjXC1O,NA,NA,BqFjXC1O,2020-0188,2021-09-26,13:30:53,14:59:55,NA,incomplete,false,true,NA,4,12,origin,n_s_020.jpg,left,natural,manmade,NA,NA,NA,left,2043.60000000149,true,NA,NA,NA,NA,NA
BqFjXC1O,NA,NA,BqFjXC1O,2020-0188,2021-09-26,13:30:53,14:59:55,NA,incomplete,false,true,NA,4,13,origin,m_l_021.jpg,right,natural,manmade,NA,NA,NA,right,1486.5,true,NA,NA,NA,NA,NA
BqFjXC1O,NA,NA,BqFjXC1O,2020-0188,2021-09-26,13:30:53,14:59:55,NA,incomplete,false,true,NA,4,14,origin,m_l_005.jpg,left,manmade,natural,NA,NA,NA,left,1287.80000000075,true,NA,NA,NA,NA,NA
BqFjXC1O,NA,NA,BqFjXC1O,2020-0188,2021-09-26,13:30:53,14:59:55,NA,incomplete,false,true,NA,4,15,size,n_s_007.jpg,left,small,large,NA,NA,NA,left,1769.19999999925,true,NA,NA,NA,NA,NA
BqFjXC1O,NA,NA,BqFjXC1O,2020-0188,2021-09-26,13:30:53,14:59:55,NA,incomplete,false,true,NA,4,16,size,m_s_025.jpg,right,large,small,NA,NA,NA,right,1258.40000000224,true,NA,NA,NA,NA,NA
BqFjXC1O,NA,NA,BqFjXC1O,2020-0188,2021-09-26,13:30:53,14:59:55,NA,incomplete,false,true,NA,4,17,size,m_s_022.jpg,left,small,large,NA,NA,NA,left,1507.39999999851,true,NA,NA,NA,NA,NA
BqFjXC1O,NA,NA,BqFjXC1O,2020-0188,2021-09-26,13:30:53,14:59:55,NA,incomplete,false,true,NA,4,18,size,n_s_016.jpg,left,small,large,NA,NA,NA,left,1386.79999999702,true,NA,NA,NA,NA,NA
BqFjXC1O,NA,NA,BqFjXC1O,2020-0188,2021-09-26,13:30:53,14:59:55,NA,incomplete,false,true,NA,4,19,size,n_s_008.jpg,right,large,small,NA,NA,NA,right,1883.10000000149,true,NA,NA,NA,NA,NA
BqFjXC1O,NA,NA,BqFjXC1O,2020-0188,2021-09-26,13:30:53,14:59:55,NA,incomplete,false,true,NA,4,20,abstractness,c_1_025.jpg,right,abstract,concrete,NA,NA,NA,right,2140.5,true,NA,NA,NA,NA,NA
BqFjXC1O,NA,NA,BqFjXC1O,2020-0188,2021-09-26,13:30:53,14:59:55,NA,incomplete,false,true,NA,4,21,abstractness,c_2_017.jpg,right,abstract,concrete,NA,NA,NA,right,1957.39999999851,true,NA,NA,NA,NA,NA
BqFjXC1O,NA,NA,BqFjXC1O,2020-0188,2021-09-26,13:30:53,14:59:55,NA,incomplete,false,true,NA,4,22,abstractness,a_2_025.jpg,right,concrete,abstract,NA,NA,NA,right,1292.60000000149,true,NA,NA,NA,NA,NA
BqFjXC1O,NA,NA,BqFjXC1O,2020-0188,2021-09-26,13:30:53,14:59:55,NA,incomplete,false,true,NA,4,23,abstractness,c_1_007.jpg,left,concrete,abstract,NA,NA,NA,left,1475.90000000224,true,NA,NA,NA,NA,NA
BqFjXC1O,NA,NA,BqFjXC1O,2020-0188,2021-09-26,13:30:53,14:59:55,NA,incomplete,false,true,NA,4,24,abstractness,c_2_013.jpg,right,abstract,concrete,NA,NA,NA,right,1883.5,true,NA,NA,NA,NA,NA
BqFjXC1O,NA,NA,BqFjXC1O,2020-0188,2021-09-26,13:30:53,14:59:55,NA,incomplete,false,true,NA,4,25,syllable,a_1_025.jpg,right,2 syllables,1 syllable,NA,NA,NA,right,1468.90000000224,true,NA,NA,NA,NA,NA
BqFjXC1O,NA,NA,BqFjXC1O,2020-0188,2021-09-26,13:30:53,14:59:55,NA,incomplete,false,true,NA,4,26,syllable,c_1_027.jpg,right,2 syllables,1 syllable,NA,NA,NA,right,1005.60000000149,true,NA,NA,NA,NA,NA
BqFjXC1O,NA,NA,BqFjXC1O,2020-0188,2021-09-26,13:30:53,14:59:55,NA,incomplete,false,true,NA,4,27,syllable,a_1_004.jpg,right,1 syllable,2 syllables,NA,NA,NA,left,1048.89999999851,false,NA,NA,NA,NA,NA
BqFjXC1O,NA,NA,BqFjXC1O,2020-0188,2021-09-26,13:30:53,14:59:55,NA,incomplete,false,true,NA,4,28,syllable,c_1_001.jpg,right,1 syllable,2 syllables,NA,NA,NA,left,1107.60000000149,false,NA,NA,NA,NA,NA
BqFjXC1O,NA,NA,BqFjXC1O,2020-0188,2021-09-26,13:30:53,14:59:55,NA,incomplete,false,true,NA,4,29,syllable,a_2_014.jpg,right,2 syllables,1 syllable,NA,NA,NA,left,1505.30000000075,false,NA,NA,NA,NA,NA
BqFjXC1O,NA,NA,BqFjXC1O,2020-0188,2021-09-26,13:30:53,14:59:55,NA,incomplete,false,NA,true,4,0,NA,NA,right,NA,NA,n_s_006.jpg,o_c_022.jpg,between-big,NA,NaN,NA,right,2453.300000000745,1,1,2071.300000000745
BqFjXC1O,NA,NA,BqFjXC1O,2020-0188,2021-09-26,13:30:53,14:59:55,NA,incomplete,false,NA,true,4,1,NA,NA,left,NA,NA,n_l_008.jpg,m_l_005.jpg,within,NA,NaN,NA,left,3202.699999999255,1,0,1396.2999999970198
BqFjXC1O,NA,NA,BqFjXC1O,2020-0188,2021-09-26,13:30:53,14:59:55,NA,incomplete,false,NA,true,4,2,NA,NA,left,NA,NA,o_c_009.jpg,o_s_006.jpg,between-small,NA,NaN,NA,left,3536.300000000745,1,1,951.1000000014901
BqFjXC1O,NA,NA,BqFjXC1O,2020-0188,2021-09-26,13:30:53,14:59:55,NA,incomplete,false,NA,true,4,3,NA,NA,left,NA,NA,a_1_025.jpg,c_1_001.jpg,within,NA,NaN,NA,left,6613.10000000149,1,1,1395.300000000745
BqFjXC1O,NA,NA,BqFjXC1O,2020-0188,2021-09-26,13:30:53,14:59:55,NA,incomplete,false,NA,true,4,4,NA,NA,left,NA,NA,i_c_013.jpg,n_s_020.jpg,between-big,NA,NaN,NA,left,4248.300000000745,1,2,1275.2999999970198
BqFjXC1O,NA,NA,BqFjXC1O,2020-0188,2021-09-26,13:30:53,14:59:55,NA,incomplete,false,NA,true,4,5,NA,NA,right,NA,NA,i_s_010.jpg,o_s_006.jpg,within,NA,NaN,NA,left,2785.39999999851,0,0,870.6000000014901
BqFjXC1O,NA,NA,BqFjXC1O,2020-0188,2021-09-26,13:30:53,14:59:55,NA,incomplete,false,NA,true,4,6,NA,NA,right,NA,NA,m_s_022.jpg,m_l_005.jpg,between-small,NA,NaN,NA,right,6227.20000000298,1,1,1912.4000000022352
BqFjXC1O,NA,NA,BqFjXC1O,2020-0188,2021-09-26,13:30:53,14:59:55,NA,incomplete,false,NA,true,4,7,NA,NA,right,NA,NA,c_1_027.jpg,c_1_007.jpg,between-small,NA,NaN,NA,right,3717.099999997765,1,1,1670.800000000745
BqFjXC1O,NA,NA,BqFjXC1O,2020-0188,2021-09-26,13:30:53,14:59:55,NA,incomplete,false,NA,true,4,8,NA,NA,right,NA,NA,o_c_022.jpg,i_c_011.jpg,between-small,NA,NaN,NA,right,3415.199999999255,1,1,1185.699999999255
BqFjXC1O,NA,NA,BqFjXC1O,2020-0188,2021-09-26,13:30:53,14:59:55,NA,incomplete,false,NA,true,4,9,NA,NA,right,NA,NA,c_2_017.jpg,n_s_016.jpg,between-big,NA,NaN,NA,right,2154.89999999851,1,2,7523.199999999255
BqFjXC1O,NA,NA,BqFjXC1O,2020-0188,2021-09-26,13:30:53,14:59:55,NA,incomplete,false,NA,true,4,10,NA,NA,right,NA,NA,a_1_004.jpg,c_2_013.jpg,between-small,NA,NaN,NA,left,3196.89999999851,0,1,3003.89999999851
BqFjXC1O,NA,NA,BqFjXC1O,2020-0188,2021-09-26,13:30:53,14:59:55,NA,incomplete,false,NA,true,4,11,NA,NA,right,NA,NA,m_s_025.jpg,m_l_021.jpg,between-small,NA,NaN,NA,left,2608.800000000745,0,2,951.5999999977648
BqFjXC1O,NA,NA,BqFjXC1O,2020-0188,2021-09-26,13:30:53,14:59:55,NA,incomplete,false,NA,true,4,12,NA,NA,left,NA,NA,n_s_006.jpg,m_l_021.jpg,within,NA,NaN,NA,left,4295.5,1,1,1073.300000000745
BqFjXC1O,NA,NA,BqFjXC1O,2020-0188,2021-09-26,13:30:53,14:59:55,NA,incomplete,false,NA,true,4,13,NA,NA,right,NA,NA,a_1_025.jpg,a_2_025.jpg,between-small,NA,NaN,NA,right,9276.400000002235,1,1,3044.300000000745
BqFjXC1O,NA,NA,BqFjXC1O,2020-0188,2021-09-26,13:30:53,14:59:55,NA,incomplete,false,NA,true,4,14,NA,NA,right,NA,NA,n_l_008.jpg,i_s_010.jpg,between-big,NA,NaN,NA,right,1856.5999999977648,1,2,967.3999999985099
BqFjXC1O,NA,NA,BqFjXC1O,2020-0188,2021-09-26,13:30:53,14:59:55,NA,incomplete,false,NA,true,4,15,NA,NA,right,NA,NA,i_c_013.jpg,o_s_017.jpg,within,NA,NaN,NA,right,2672.10000000149,1,3,2534.89999999851
BqFjXC1O,NA,NA,BqFjXC1O,2020-0188,2021-09-26,13:30:53,14:59:55,NA,incomplete,false,NA,true,4,16,NA,NA,left,NA,NA,i_c_005.jpg,o_s_017.jpg,between-small,NA,NaN,NA,left,6771.199999999255,1,1,1420.2000000029802
BqFjXC1O,NA,NA,BqFjXC1O,2020-0188,2021-09-26,13:30:53,14:59:55,NA,incomplete,false,NA,true,4,17,NA,NA,left,NA,NA,i_s_017.jpg,i_c_011.jpg,within,NA,NaN,NA,left,2422.2000000029802,1,1,2268.39999999851
BqFjXC1O,NA,NA,BqFjXC1O,2020-0188,2021-09-26,13:30:53,14:59:55,NA,incomplete,false,NA,true,4,18,NA,NA,right,NA,NA,i_c_005.jpg,o_s_008.jpg,within,NA,NaN,NA,right,3804.300000000745,1,2,934.6000000014901
BqFjXC1O,NA,NA,BqFjXC1O,2020-0188,2021-09-26,13:30:53,14:59:55,NA,incomplete,false,NA,true,4,19,NA,NA,left,NA,NA,n_s_020.jpg,n_s_007.jpg,between-small,NA,NaN,NA,left,6735.900000002235,1,0,2493.800000000745
BqFjXC1O,NA,NA,BqFjXC1O,2020-0188,2021-09-26,13:30:53,14:59:55,NA,incomplete,false,NA,true,4,20,NA,NA,right,NA,NA,a_2_025.jpg,n_s_008.jpg,between-big,NA,NaN,NA,right,1814.3999999985099,1,3,3536.300000000745
BqFjXC1O,NA,NA,BqFjXC1O,2020-0188,2021-09-26,13:30:53,14:59:55,NA,incomplete,false,NA,true,4,21,NA,NA,right,NA,NA,n_s_016.jpg,n_s_007.jpg,within,NA,NaN,NA,right,4094,1,0,1405.3999999985099
BqFjXC1O,NA,NA,BqFjXC1O,2020-0188,2021-09-26,13:30:53,14:59:55,NA,incomplete,false,NA,true,4,22,NA,NA,left,NA,NA,m_s_025.jpg,n_s_008.jpg,within,NA,NaN,NA,right,10872,0,0,1436.6000000014901
BqFjXC1O,NA,NA,BqFjXC1O,2020-0188,2021-09-26,13:30:53,14:59:55,NA,incomplete,false,NA,true,4,23,NA,NA,right,NA,NA,c_2_013.jpg,c_2_017.jpg,within,NA,NaN,NA,right,4102.599999997765,1,1,1196.0999999977648
BqFjXC1O,NA,NA,BqFjXC1O,2020-0188,2021-09-26,13:30:53,14:59:55,NA,incomplete,false,NA,true,4,24,NA,NA,left,NA,NA,m_s_022.jpg,c_1_025.jpg,between-big,NA,NaN,NA,left,2211.10000000149,1,3,1492.3999999985099
BqFjXC1O,NA,NA,BqFjXC1O,2020-0188,2021-09-26,13:30:53,14:59:55,NA,incomplete,false,NA,true,4,25,NA,NA,left,NA,NA,c_1_025.jpg,c_1_007.jpg,within,NA,NaN,NA,left,2954.800000000745,1,0,3221.89999999851
BqFjXC1O,NA,NA,BqFjXC1O,2020-0188,2021-09-26,13:30:53,14:59:55,NA,incomplete,false,NA,true,4,26,NA,NA,right,NA,NA,a_2_014.jpg,c_1_027.jpg,within,NA,NaN,NA,right,4100.10000000149,1,1,1436
BqFjXC1O,NA,NA,BqFjXC1O,2020-0188,2021-09-26,13:30:53,14:59:55,NA,incomplete,false,true,NA,5,0,building,o_s_013.jpg,right,cottage,skyscraper,NA,NA,NA,right,1276.09999999776,true,NA,NA,NA,NA,NA
BqFjXC1O,NA,NA,BqFjXC1O,2020-0188,2021-09-26,13:30:53,14:59:55,NA,incomplete,false,true,NA,5,1,building,i_c_023.jpg,left,cottage,skyscraper,NA,NA,NA,left,1271.89999999851,true,NA,NA,NA,NA,NA
BqFjXC1O,NA,NA,BqFjXC1O,2020-0188,2021-09-26,13:30:53,14:59:55,NA,incomplete,false,true,NA,5,2,building,i_s_027.jpg,right,cottage,skyscraper,NA,NA,NA,right,1439.80000000075,true,NA,NA,NA,NA,NA
BqFjXC1O,NA,NA,BqFjXC1O,2020-0188,2021-09-26,13:30:53,14:59:55,NA,incomplete,false,true,NA,5,3,building,i_c_012.jpg,left,cottage,skyscraper,NA,NA,NA,left,1117.5,true,NA,NA,NA,NA,NA
BqFjXC1O,NA,NA,BqFjXC1O,2020-0188,2021-09-26,13:30:53,14:59:55,NA,incomplete,false,true,NA,5,4,building,o_s_018.jpg,right,cottage,skyscraper,NA,NA,NA,right,1092.19999999925,true,NA,NA,NA,NA,NA
BqFjXC1O,NA,NA,BqFjXC1O,2020-0188,2021-09-26,13:30:53,14:59:55,NA,incomplete,false,true,NA,5,5,location,i_s_018.jpg,right,outdoor,indoor,NA,NA,NA,right,1353.39999999851,true,NA,NA,NA,NA,NA
BqFjXC1O,NA,NA,BqFjXC1O,2020-0188,2021-09-26,13:30:53,14:59:55,NA,incomplete,false,true,NA,5,6,location,o_c_017.jpg,right,indoor,outdoor,NA,NA,NA,right,1503.80000000075,true,NA,NA,NA,NA,NA
BqFjXC1O,NA,NA,BqFjXC1O,2020-0188,2021-09-26,13:30:53,14:59:55,NA,incomplete,false,true,NA,5,7,location,o_s_025.jpg,right,indoor,outdoor,NA,NA,NA,right,1532,true,NA,NA,NA,NA,NA
BqFjXC1O,NA,NA,BqFjXC1O,2020-0188,2021-09-26,13:30:53,14:59:55,NA,incomplete,false,true,NA,5,8,location,i_c_007.jpg,left,indoor,outdoor,NA,NA,NA,left,1812.69999999925,true,NA,NA,NA,NA,NA
BqFjXC1O,NA,NA,BqFjXC1O,2020-0188,2021-09-26,13:30:53,14:59:55,NA,incomplete,false,true,NA,5,9,location,o_c_002.jpg,right,indoor,outdoor,NA,NA,NA,right,1873.69999999925,true,NA,NA,NA,NA,NA
BqFjXC1O,NA,NA,BqFjXC1O,2020-0188,2021-09-26,13:30:53,14:59:55,NA,incomplete,false,true,NA,5,10,size,m_l_020.jpg,left,large,small,NA,NA,NA,left,1505,true,NA,NA,NA,NA,NA
BqFjXC1O,NA,NA,BqFjXC1O,2020-0188,2021-09-26,13:30:53,14:59:55,NA,incomplete,false,true,NA,5,11,size,m_l_016.jpg,right,small,large,NA,NA,NA,right,1342.39999999851,true,NA,NA,NA,NA,NA
BqFjXC1O,NA,NA,BqFjXC1O,2020-0188,2021-09-26,13:30:53,14:59:55,NA,incomplete,false,true,NA,5,12,size,n_s_010.jpg,right,large,small,NA,NA,NA,right,1530,true,NA,NA,NA,NA,NA
BqFjXC1O,NA,NA,BqFjXC1O,2020-0188,2021-09-26,13:30:53,14:59:55,NA,incomplete,false,true,NA,5,13,size,m_s_024.jpg,left,small,large,NA,NA,NA,left,1503,true,NA,NA,NA,NA,NA
BqFjXC1O,NA,NA,BqFjXC1O,2020-0188,2021-09-26,13:30:53,14:59:55,NA,incomplete,false,true,NA,5,14,size,n_s_001.jpg,left,small,large,NA,NA,NA,left,1008.89999999851,true,NA,NA,NA,NA,NA
BqFjXC1O,NA,NA,BqFjXC1O,2020-0188,2021-09-26,13:30:53,14:59:55,NA,incomplete,false,true,NA,5,15,origin,m_l_022.jpg,right,natural,manmade,NA,NA,NA,right,1628.5,true,NA,NA,NA,NA,NA
BqFjXC1O,NA,NA,BqFjXC1O,2020-0188,2021-09-26,13:30:53,14:59:55,NA,incomplete,false,true,NA,5,16,origin,n_s_022.jpg,left,natural,manmade,NA,NA,NA,left,1246.30000000075,true,NA,NA,NA,NA,NA
BqFjXC1O,NA,NA,BqFjXC1O,2020-0188,2021-09-26,13:30:53,14:59:55,NA,incomplete,false,true,NA,5,17,origin,m_s_009.jpg,right,natural,manmade,NA,NA,NA,right,1179.30000000075,true,NA,NA,NA,NA,NA
BqFjXC1O,NA,NA,BqFjXC1O,2020-0188,2021-09-26,13:30:53,14:59:55,NA,incomplete,false,true,NA,5,18,origin,n_l_012.jpg,left,natural,manmade,NA,NA,NA,left,1356.10000000149,true,NA,NA,NA,NA,NA
BqFjXC1O,NA,NA,BqFjXC1O,2020-0188,2021-09-26,13:30:53,14:59:55,NA,incomplete,false,true,NA,5,19,origin,m_s_021.jpg,left,manmade,natural,NA,NA,NA,left,1761.80000000075,true,NA,NA,NA,NA,NA
BqFjXC1O,NA,NA,BqFjXC1O,2020-0188,2021-09-26,13:30:53,14:59:55,NA,incomplete,false,true,NA,5,20,syllable,a_1_017.jpg,right,2 syllables,1 syllable,NA,NA,NA,right,1755.80000000075,true,NA,NA,NA,NA,NA
BqFjXC1O,NA,NA,BqFjXC1O,2020-0188,2021-09-26,13:30:53,14:59:55,NA,incomplete,false,true,NA,5,21,syllable,c_1_026.jpg,right,2 syllables,1 syllable,NA,NA,NA,right,1454.80000000075,true,NA,NA,NA,NA,NA
BqFjXC1O,NA,NA,BqFjXC1O,2020-0188,2021-09-26,13:30:53,14:59:55,NA,incomplete,false,true,NA,5,22,syllable,c_2_024.jpg,right,1 syllable,2 syllables,NA,NA,NA,left,1352.19999999925,false,NA,NA,NA,NA,NA
BqFjXC1O,NA,NA,BqFjXC1O,2020-0188,2021-09-26,13:30:53,14:59:55,NA,incomplete,false,true,NA,5,23,syllable,c_1_014.jpg,right,2 syllables,1 syllable,NA,NA,NA,right,1514.10000000149,true,NA,NA,NA,NA,NA
BqFjXC1O,NA,NA,BqFjXC1O,2020-0188,2021-09-26,13:30:53,14:59:55,NA,incomplete,false,true,NA,5,24,syllable,a_2_017.jpg,right,2 syllables,1 syllable,NA,NA,NA,left,1915.5,false,NA,NA,NA,NA,NA
BqFjXC1O,NA,NA,BqFjXC1O,2020-0188,2021-09-26,13:30:53,14:59:55,NA,incomplete,false,true,NA,5,25,abstractness,c_1_010.jpg,left,concrete,abstract,NA,NA,NA,left,1876.90000000224,true,NA,NA,NA,NA,NA
BqFjXC1O,NA,NA,BqFjXC1O,2020-0188,2021-09-26,13:30:53,14:59:55,NA,incomplete,false,true,NA,5,26,abstractness,c_1_008.jpg,right,abstract,concrete,NA,NA,NA,right,1542.5,true,NA,NA,NA,NA,NA
BqFjXC1O,NA,NA,BqFjXC1O,2020-0188,2021-09-26,13:30:53,14:59:55,NA,incomplete,false,true,NA,5,27,abstractness,a_1_007.jpg,right,concrete,abstract,NA,NA,NA,right,1749.80000000075,true,NA,NA,NA,NA,NA
BqFjXC1O,NA,NA,BqFjXC1O,2020-0188,2021-09-26,13:30:53,14:59:55,NA,incomplete,false,true,NA,5,28,abstractness,a_1_024.jpg,left,abstract,concrete,NA,NA,NA,left,1745.39999999851,true,NA,NA,NA,NA,NA
BqFjXC1O,NA,NA,BqFjXC1O,2020-0188,2021-09-26,13:30:53,14:59:55,NA,incomplete,false,true,NA,5,29,abstractness,a_2_006.jpg,right,concrete,abstract,NA,NA,NA,right,2558.39999999851,true,NA,NA,NA,NA,NA
BqFjXC1O,NA,NA,BqFjXC1O,2020-0188,2021-09-26,13:30:53,14:59:55,NA,incomplete,false,NA,true,5,0,NA,NA,right,NA,NA,i_s_018.jpg,i_s_027.jpg,between-small,NA,NaN,NA,right,12591.699999999255,1,0,1201.0999999977648
BqFjXC1O,NA,NA,BqFjXC1O,2020-0188,2021-09-26,13:30:53,14:59:55,NA,incomplete,false,NA,true,5,1,NA,NA,right,NA,NA,i_c_012.jpg,o_s_013.jpg,within,NA,NaN,NA,right,2220.900000002235,1,1,3440.5
BqFjXC1O,NA,NA,BqFjXC1O,2020-0188,2021-09-26,13:30:53,14:59:55,NA,incomplete,false,NA,true,5,2,NA,NA,left,NA,NA,m_s_009.jpg,a_1_017.jpg,between-big,NA,NaN,NA,left,2657.5,1,1,2842.2999999970198
BqFjXC1O,NA,NA,BqFjXC1O,2020-0188,2021-09-26,13:30:53,14:59:55,NA,incomplete,false,NA,true,5,3,NA,NA,left,NA,NA,c_2_024.jpg,c_1_010.jpg,between-small,NA,NaN,NA,left,3230.199999999255,1,1,1420.8999999985099
BqFjXC1O,NA,NA,BqFjXC1O,2020-0188,2021-09-26,13:30:53,14:59:55,NA,incomplete,false,NA,true,5,4,NA,NA,right,NA,NA,a_1_007.jpg,a_2_017.jpg,between-small,NA,NaN,NA,right,9155.599999997765,1,2,1048.2999999970198
BqFjXC1O,NA,NA,BqFjXC1O,2020-0188,2021-09-26,13:30:53,14:59:55,NA,incomplete,false,NA,true,5,5,NA,NA,left,NA,NA,i_c_012.jpg,o_c_017.jpg,between-small,NA,NaN,NA,left,6235,1,0,1775.699999999255
BqFjXC1O,NA,NA,BqFjXC1O,2020-0188,2021-09-26,13:30:53,14:59:55,NA,incomplete,false,NA,true,5,6,NA,NA,left,NA,NA,i_s_018.jpg,i_c_007.jpg,within,NA,NaN,NA,left,5089.5,1,0,2229.5
BqFjXC1O,NA,NA,BqFjXC1O,2020-0188,2021-09-26,13:30:53,14:59:55,NA,incomplete,false,NA,true,5,7,NA,NA,left,NA,NA,m_s_021.jpg,c_2_024.jpg,between-big,NA,NaN,NA,left,2963.89999999851,1,3,949.1999999992549
BqFjXC1O,NA,NA,BqFjXC1O,2020-0188,2021-09-26,13:30:53,14:59:55,NA,incomplete,false,NA,true,5,8,NA,NA,left,NA,NA,m_l_020.jpg,m_s_024.jpg,within,NA,NaN,NA,left,2267.800000000745,1,0,2802.39999999851
BqFjXC1O,NA,NA,BqFjXC1O,2020-0188,2021-09-26,13:30:53,14:59:55,NA,incomplete,false,NA,true,5,9,NA,NA,right,NA,NA,n_s_022.jpg,m_s_024.jpg,between-small,NA,NaN,NA,left,5111.39999999851,0,2,1920.800000000745
BqFjXC1O,NA,NA,BqFjXC1O,2020-0188,2021-09-26,13:30:53,14:59:55,NA,incomplete,false,NA,true,5,10,NA,NA,right,NA,NA,n_s_010.jpg,o_c_002.jpg,between-big,NA,NaN,NA,right,3890.89999999851,1,2,1307.300000000745
BqFjXC1O,NA,NA,BqFjXC1O,2020-0188,2021-09-26,13:30:53,14:59:55,NA,incomplete,false,NA,true,5,11,NA,NA,right,NA,NA,m_s_021.jpg,n_s_022.jpg,within,NA,NaN,NA,left,8098,0,0,3247.300000000745
BqFjXC1O,NA,NA,BqFjXC1O,2020-0188,2021-09-26,13:30:53,14:59:55,NA,incomplete,false,NA,true,5,12,NA,NA,left,NA,NA,a_1_017.jpg,c_1_014.jpg,within,NA,NaN,NA,left,9385.699999999255,1,0,1137.199999999255
BqFjXC1O,NA,NA,BqFjXC1O,2020-0188,2021-09-26,13:30:53,14:59:55,NA,incomplete,false,NA,true,5,13,NA,NA,left,NA,NA,c_1_008.jpg,a_2_006.jpg,within,NA,NaN,NA,right,12191.70000000298,0,0,1428.7999999970198
BqFjXC1O,NA,NA,BqFjXC1O,2020-0188,2021-09-26,13:30:53,14:59:55,NA,incomplete,false,NA,true,5,14,NA,NA,left,NA,NA,c_1_026.jpg,a_2_017.jpg,within,NA,NaN,NA,left,4119.29999999702,1,0,1177.3999999985099
BqFjXC1O,NA,NA,BqFjXC1O,2020-0188,2021-09-26,13:30:53,14:59:55,NA,incomplete,false,NA,true,5,15,NA,NA,left,NA,NA,o_s_025.jpg,m_l_020.jpg,between-big,NA,NaN,NA,left,2131.39999999851,1,2,2430.5
BqFjXC1O,NA,NA,BqFjXC1O,2020-0188,2021-09-26,13:30:53,14:59:55,NA,incomplete,false,NA,true,5,16,NA,NA,right,NA,NA,m_l_022.jpg,n_s_010.jpg,between-small,NA,NaN,NA,left,2623.10000000149,0,1,846.1000000014901
BqFjXC1O,NA,NA,BqFjXC1O,2020-0188,2021-09-26,13:30:53,14:59:55,NA,incomplete,false,NA,true,5,17,NA,NA,right,NA,NA,c_1_008.jpg,c_1_014.jpg,between-small,NA,NaN,NA,right,4749,1,1,2082.5
BqFjXC1O,NA,NA,BqFjXC1O,2020-0188,2021-09-26,13:30:53,14:59:55,NA,incomplete,false,NA,true,5,18,NA,NA,left,NA,NA,i_c_023.jpg,o_s_018.jpg,within,NA,NaN,NA,left,4143.39999999851,1,0,1145.1000000014901
BqFjXC1O,NA,NA,BqFjXC1O,2020-0188,2021-09-26,13:30:53,14:59:55,NA,incomplete,false,NA,true,5,19,NA,NA,right,NA,NA,m_l_016.jpg,i_c_007.jpg,between-big,NA,NaN,NA,right,2090.800000000745,1,2,1434.5999999977648
BqFjXC1O,NA,NA,BqFjXC1O,2020-0188,2021-09-26,13:30:53,14:59:55,NA,incomplete,false,NA,true,5,20,NA,NA,right,NA,NA,o_s_025.jpg,o_s_018.jpg,between-small,NA,NaN,NA,right,9063.400000002235,1,1,1984.699999999255
BqFjXC1O,NA,NA,BqFjXC1O,2020-0188,2021-09-26,13:30:53,14:59:55,NA,incomplete,false,NA,true,5,21,NA,NA,right,NA,NA,c_1_026.jpg,n_l_012.jpg,between-big,NA,NaN,NA,right,2122.39999999851,1,2,854.5
BqFjXC1O,NA,NA,BqFjXC1O,2020-0188,2021-09-26,13:30:53,14:59:55,NA,incomplete,false,NA,true,5,22,NA,NA,right,NA,NA,n_l_012.jpg,m_l_022.jpg,within,NA,NaN,NA,right,2980,1,1,1832.300000000745
BqFjXC1O,NA,NA,BqFjXC1O,2020-0188,2021-09-26,13:30:53,14:59:55,NA,incomplete,false,NA,true,5,23,NA,NA,right,NA,NA,n_s_001.jpg,m_l_016.jpg,within,NA,NaN,NA,left,3391.699999999255,0,0,1330.800000000745
BqFjXC1O,NA,NA,BqFjXC1O,2020-0188,2021-09-26,13:30:53,14:59:55,NA,incomplete,false,NA,true,5,24,NA,NA,right,NA,NA,a_1_024.jpg,c_1_010.jpg,within,NA,NaN,NA,left,4813.70000000298,0,0,905.2000000029802
BqFjXC1O,NA,NA,BqFjXC1O,2020-0188,2021-09-26,13:30:53,14:59:55,NA,incomplete,false,NA,true,5,25,NA,NA,left,NA,NA,o_c_017.jpg,o_c_002.jpg,within,NA,NaN,NA,right,8478.89999999851,0,0,943.2000000029802
BqFjXC1O,NA,NA,BqFjXC1O,2020-0188,2021-09-26,13:30:53,14:59:55,NA,incomplete,false,NA,true,5,26,NA,NA,right,NA,NA,m_s_009.jpg,n_s_001.jpg,between-small,NA,NaN,NA,left,2599.800000000745,0,1,1080.7999999970198
BqFjXC1O,NA,NA,BqFjXC1O,2020-0188,2021-09-26,13:30:53,14:59:55,NA,incomplete,false,true,NA,6,0,syllable,c_2_004.jpg,right,2 syllables,1 syllable,NA,NA,NA,left,2061.19999999925,false,NA,NA,NA,NA,NA
BqFjXC1O,NA,NA,BqFjXC1O,2020-0188,2021-09-26,13:30:53,14:59:55,NA,incomplete,false,true,NA,6,1,syllable,a_1_015.jpg,right,2 syllables,1 syllable,NA,NA,NA,right,1418.10000000149,true,NA,NA,NA,NA,NA
BqFjXC1O,NA,NA,BqFjXC1O,2020-0188,2021-09-26,13:30:53,14:59:55,NA,incomplete,false,true,NA,6,2,syllable,a_2_001.jpg,right,1 syllable,2 syllables,NA,NA,NA,right,1343.90000000224,true,NA,NA,NA,NA,NA
BqFjXC1O,NA,NA,BqFjXC1O,2020-0188,2021-09-26,13:30:53,14:59:55,NA,incomplete,false,true,NA,6,3,syllable,a_2_005.jpg,right,2 syllables,1 syllable,NA,NA,NA,left,1531.09999999776,false,NA,NA,NA,NA,NA
BqFjXC1O,NA,NA,BqFjXC1O,2020-0188,2021-09-26,13:30:53,14:59:55,NA,incomplete,false,true,NA,6,4,syllable,c_1_006.jpg,right,2 syllables,1 syllable,NA,NA,NA,right,1313.5,true,NA,NA,NA,NA,NA
BqFjXC1O,NA,NA,BqFjXC1O,2020-0188,2021-09-26,13:30:53,14:59:55,NA,incomplete,false,true,NA,6,5,abstractness,c_2_005.jpg,left,concrete,abstract,NA,NA,NA,left,1804.5,true,NA,NA,NA,NA,NA
BqFjXC1O,NA,NA,BqFjXC1O,2020-0188,2021-09-26,13:30:53,14:59:55,NA,incomplete,false,true,NA,6,6,abstractness,a_1_001.jpg,left,abstract,concrete,NA,NA,NA,left,1607.59999999776,true,NA,NA,NA,NA,NA
BqFjXC1O,NA,NA,BqFjXC1O,2020-0188,2021-09-26,13:30:53,14:59:55,NA,incomplete,false,true,NA,6,7,abstractness,c_1_016.jpg,left,concrete,abstract,NA,NA,NA,left,1850.5,true,NA,NA,NA,NA,NA
BqFjXC1O,NA,NA,BqFjXC1O,2020-0188,2021-09-26,13:30:53,14:59:55,NA,incomplete,false,true,NA,6,8,abstractness,c_2_012.jpg,right,abstract,concrete,NA,NA,NA,right,2474.09999999776,true,NA,NA,NA,NA,NA
BqFjXC1O,NA,NA,BqFjXC1O,2020-0188,2021-09-26,13:30:53,14:59:55,NA,incomplete,false,true,NA,6,9,abstractness,a_1_009.jpg,right,concrete,abstract,NA,NA,NA,right,2311.80000000075,true,NA,NA,NA,NA,NA
BqFjXC1O,NA,NA,BqFjXC1O,2020-0188,2021-09-26,13:30:53,14:59:55,NA,incomplete,false,true,NA,6,10,origin,m_s_015.jpg,left,manmade,natural,NA,NA,NA,left,1355.69999999925,true,NA,NA,NA,NA,NA
BqFjXC1O,NA,NA,BqFjXC1O,2020-0188,2021-09-26,13:30:53,14:59:55,NA,incomplete,false,true,NA,6,11,origin,n_s_014.jpg,right,manmade,natural,NA,NA,NA,right,1178.09999999776,true,NA,NA,NA,NA,NA
BqFjXC1O,NA,NA,BqFjXC1O,2020-0188,2021-09-26,13:30:53,14:59:55,NA,incomplete,false,true,NA,6,12,origin,m_s_011.jpg,right,natural,manmade,NA,NA,NA,right,1203.30000000075,true,NA,NA,NA,NA,NA
BqFjXC1O,NA,NA,BqFjXC1O,2020-0188,2021-09-26,13:30:53,14:59:55,NA,incomplete,false,true,NA,6,13,origin,n_l_005.jpg,left,natural,manmade,NA,NA,NA,left,1432.19999999925,true,NA,NA,NA,NA,NA
BqFjXC1O,NA,NA,BqFjXC1O,2020-0188,2021-09-26,13:30:53,14:59:55,NA,incomplete,false,true,NA,6,14,origin,n_l_002.jpg,right,manmade,natural,NA,NA,NA,right,1138,true,NA,NA,NA,NA,NA
BqFjXC1O,NA,NA,BqFjXC1O,2020-0188,2021-09-26,13:30:53,14:59:55,NA,incomplete,false,true,NA,6,15,size,m_l_006.jpg,right,small,large,NA,NA,NA,right,1555,true,NA,NA,NA,NA,NA
BqFjXC1O,NA,NA,BqFjXC1O,2020-0188,2021-09-26,13:30:53,14:59:55,NA,incomplete,false,true,NA,6,16,size,n_l_013.jpg,right,small,large,NA,NA,NA,right,1260,true,NA,NA,NA,NA,NA
BqFjXC1O,NA,NA,BqFjXC1O,2020-0188,2021-09-26,13:30:53,14:59:55,NA,incomplete,false,true,NA,6,17,size,n_l_022.jpg,left,large,small,NA,NA,NA,left,1115,true,NA,NA,NA,NA,NA
BqFjXC1O,NA,NA,BqFjXC1O,2020-0188,2021-09-26,13:30:53,14:59:55,NA,incomplete,false,true,NA,6,18,size,n_s_021.jpg,right,large,small,NA,NA,NA,right,1405.5,true,NA,NA,NA,NA,NA
BqFjXC1O,NA,NA,BqFjXC1O,2020-0188,2021-09-26,13:30:53,14:59:55,NA,incomplete,false,true,NA,6,19,size,n_s_017.jpg,right,large,small,NA,NA,NA,right,1723.79999999702,true,NA,NA,NA,NA,NA
BqFjXC1O,NA,NA,BqFjXC1O,2020-0188,2021-09-26,13:30:53,14:59:55,NA,incomplete,false,true,NA,6,20,building,o_s_015.jpg,right,cottage,skyscraper,NA,NA,NA,right,1293.19999999925,true,NA,NA,NA,NA,NA
BqFjXC1O,NA,NA,BqFjXC1O,2020-0188,2021-09-26,13:30:53,14:59:55,NA,incomplete,false,true,NA,6,21,building,o_s_019.jpg,left,skyscraper,cottage,NA,NA,NA,left,1464.19999999925,true,NA,NA,NA,NA,NA
BqFjXC1O,NA,NA,BqFjXC1O,2020-0188,2021-09-26,13:30:53,14:59:55,NA,incomplete,false,true,NA,6,22,building,o_c_027.jpg,left,cottage,skyscraper,NA,NA,NA,left,1541.89999999851,true,NA,NA,NA,NA,NA
BqFjXC1O,NA,NA,BqFjXC1O,2020-0188,2021-09-26,13:30:53,14:59:55,NA,incomplete,false,true,NA,6,23,building,o_c_023.jpg,left,cottage,skyscraper,NA,NA,NA,left,949,true,NA,NA,NA,NA,NA
BqFjXC1O,NA,NA,BqFjXC1O,2020-0188,2021-09-26,13:30:53,14:59:55,NA,incomplete,false,true,NA,6,24,building,o_s_002.jpg,right,cottage,skyscraper,NA,NA,NA,right,1871,true,NA,NA,NA,NA,NA
BqFjXC1O,NA,NA,BqFjXC1O,2020-0188,2021-09-26,13:30:53,14:59:55,NA,incomplete,false,true,NA,6,25,location,i_c_019.jpg,right,outdoor,indoor,NA,NA,NA,right,1851.80000000075,true,NA,NA,NA,NA,NA
BqFjXC1O,NA,NA,BqFjXC1O,2020-0188,2021-09-26,13:30:53,14:59:55,NA,incomplete,false,true,NA,6,26,location,o_c_003.jpg,right,indoor,outdoor,NA,NA,NA,right,1853.30000000075,true,NA,NA,NA,NA,NA
BqFjXC1O,NA,NA,BqFjXC1O,2020-0188,2021-09-26,13:30:53,14:59:55,NA,incomplete,false,true,NA,6,27,location,o_s_027.jpg,left,outdoor,indoor,NA,NA,NA,left,1323.19999999925,true,NA,NA,NA,NA,NA
BqFjXC1O,NA,NA,BqFjXC1O,2020-0188,2021-09-26,13:30:53,14:59:55,NA,incomplete,false,true,NA,6,28,location,i_s_020.jpg,left,indoor,outdoor,NA,NA,NA,left,1518.60000000149,true,NA,NA,NA,NA,NA
BqFjXC1O,NA,NA,BqFjXC1O,2020-0188,2021-09-26,13:30:53,14:59:55,NA,incomplete,false,true,NA,6,29,location,i_c_028.jpg,right,outdoor,indoor,NA,NA,NA,right,1268.40000000224,true,NA,NA,NA,NA,NA
BqFjXC1O,NA,NA,BqFjXC1O,2020-0188,2021-09-26,13:30:53,14:59:55,NA,incomplete,false,NA,true,6,0,NA,NA,left,NA,NA,a_2_005.jpg,a_1_001.jpg,between-small,NA,NaN,NA,left,2394.60000000149,1,1,885.4000000022352
BqFjXC1O,NA,NA,BqFjXC1O,2020-0188,2021-09-26,13:30:53,14:59:55,NA,incomplete,false,NA,true,6,1,NA,NA,right,NA,NA,i_s_020.jpg,i_c_019.jpg,within,NA,NaN,NA,right,3211.400000002235,1,1,1703.5
BqFjXC1O,NA,NA,BqFjXC1O,2020-0188,2021-09-26,13:30:53,14:59:55,NA,incomplete,false,NA,true,6,2,NA,NA,left,NA,NA,c_1_016.jpg,m_s_015.jpg,between-big,NA,NaN,NA,left,1847.699999999255,1,1,3714.800000000745
BqFjXC1O,NA,NA,BqFjXC1O,2020-0188,2021-09-26,13:30:53,14:59:55,NA,incomplete,false,NA,true,6,3,NA,NA,left,NA,NA,c_2_012.jpg,n_s_014.jpg,between-big,NA,NaN,NA,left,1500.7999999970198,1,2,1331.1000000014901
BqFjXC1O,NA,NA,BqFjXC1O,2020-0188,2021-09-26,13:30:53,14:59:55,NA,incomplete,false,NA,true,6,4,NA,NA,right,NA,NA,c_1_006.jpg,a_1_015.jpg,within,NA,NaN,NA,right,4235.39999999851,1,1,1031.699999999255
BqFjXC1O,NA,NA,BqFjXC1O,2020-0188,2021-09-26,13:30:53,14:59:55,NA,incomplete,false,NA,true,6,5,NA,NA,right,NA,NA,n_s_017.jpg,n_l_013.jpg,within,NA,NaN,NA,right,2349.10000000149,1,0,1799.199999999255
BqFjXC1O,NA,NA,BqFjXC1O,2020-0188,2021-09-26,13:30:53,14:59:55,NA,incomplete,false,NA,true,6,6,NA,NA,right,NA,NA,n_l_013.jpg,n_l_005.jpg,between-small,NA,NaN,NA,left,9236,0,0,1009
BqFjXC1O,NA,NA,BqFjXC1O,2020-0188,2021-09-26,13:30:53,14:59:55,NA,incomplete,false,NA,true,6,7,NA,NA,right,NA,NA,o_s_027.jpg,o_s_002.jpg,between-small,NA,NaN,NA,right,2535.10000000149,1,2,1056.5
BqFjXC1O,NA,NA,BqFjXC1O,2020-0188,2021-09-26,13:30:53,14:59:55,NA,incomplete,false,NA,true,6,8,NA,NA,right,NA,NA,o_s_015.jpg,n_l_022.jpg,between-big,NA,NaN,NA,right,2066.699999999255,1,2,1015.6999999992549
BqFjXC1O,NA,NA,BqFjXC1O,2020-0188,2021-09-26,13:30:53,14:59:55,NA,incomplete,false,NA,true,6,9,NA,NA,right,NA,NA,n_l_002.jpg,n_s_014.jpg,within,NA,NaN,NA,right,3124.800000000745,1,1,1023.5999999977648
BqFjXC1O,NA,NA,BqFjXC1O,2020-0188,2021-09-26,13:30:53,14:59:55,NA,incomplete,false,NA,true,6,10,NA,NA,right,NA,NA,i_c_019.jpg,o_c_027.jpg,between-small,NA,NaN,NA,right,2340.89999999851,1,1,992
BqFjXC1O,NA,NA,BqFjXC1O,2020-0188,2021-09-26,13:30:53,14:59:55,NA,incomplete,false,NA,true,6,11,NA,NA,left,NA,NA,o_c_023.jpg,o_c_003.jpg,between-small,NA,NaN,NA,left,2964.199999999255,1,1,976
BqFjXC1O,NA,NA,BqFjXC1O,2020-0188,2021-09-26,13:30:53,14:59:55,NA,incomplete,false,NA,true,6,12,NA,NA,right,NA,NA,o_c_023.jpg,o_s_015.jpg,within,NA,NaN,NA,left,2203.300000000745,0,1,4846.20000000298
BqFjXC1O,NA,NA,BqFjXC1O,2020-0188,2021-09-26,13:30:53,14:59:55,NA,incomplete,false,NA,true,6,13,NA,NA,right,NA,NA,m_l_006.jpg,m_s_011.jpg,between-small,NA,NaN,NA,right,4624,1,1,911.4000000022352
BqFjXC1O,NA,NA,BqFjXC1O,2020-0188,2021-09-26,13:30:53,14:59:55,NA,incomplete,false,NA,true,6,14,NA,NA,right,NA,NA,c_1_016.jpg,c_1_006.jpg,between-small,NA,NaN,NA,right,4476.699999999255,1,0,983.1999999992549
BqFjXC1O,NA,NA,BqFjXC1O,2020-0188,2021-09-26,13:30:53,14:59:55,NA,incomplete,false,NA,true,6,15,NA,NA,left,NA,NA,o_s_019.jpg,o_s_002.jpg,within,NA,NaN,NA,left,7844.800000000745,1,1,1670.699999999255
BqFjXC1O,NA,NA,BqFjXC1O,2020-0188,2021-09-26,13:30:53,14:59:55,NA,incomplete,false,NA,true,6,16,NA,NA,right,NA,NA,o_s_019.jpg,n_s_021.jpg,between-big,NA,NaN,NA,right,1590.300000000745,1,3,813.8000000007451
BqFjXC1O,NA,NA,BqFjXC1O,2020-0188,2021-09-26,13:30:53,14:59:55,NA,incomplete,false,NA,true,6,17,NA,NA,left,NA,NA,a_2_001.jpg,c_2_005.jpg,between-small,NA,NaN,NA,left,6073.900000002235,1,0,5492
BqFjXC1O,NA,NA,BqFjXC1O,2020-0188,2021-09-26,13:30:53,14:59:55,NA,incomplete,false,NA,true,6,18,NA,NA,right,NA,NA,n_l_005.jpg,m_s_015.jpg,within,NA,NaN,NA,right,3601.60000000149,1,1,897.8000000007451
BqFjXC1O,NA,NA,BqFjXC1O,2020-0188,2021-09-26,13:30:53,14:59:55,NA,incomplete,false,NA,true,6,19,NA,NA,left,NA,NA,c_2_005.jpg,c_2_012.jpg,within,NA,NaN,NA,right,2067.2000000029802,0,1,1088.5
BqFjXC1O,NA,NA,BqFjXC1O,2020-0188,2021-09-26,13:30:53,14:59:55,NA,incomplete,false,NA,true,6,20,NA,NA,left,NA,NA,n_l_002.jpg,n_l_022.jpg,between-small,NA,NaN,NA,left,11203.10000000149,1,0,2437.89999999851
BqFjXC1O,NA,NA,BqFjXC1O,2020-0188,2021-09-26,13:30:53,14:59:55,NA,incomplete,false,NA,true,6,21,NA,NA,right,NA,NA,i_c_028.jpg,o_c_003.jpg,within,NA,NaN,NA,right,2680.10000000149,1,1,1154.9000000022352
BqFjXC1O,NA,NA,BqFjXC1O,2020-0188,2021-09-26,13:30:53,14:59:55,NA,incomplete,false,NA,true,6,22,NA,NA,left,NA,NA,n_s_017.jpg,o_c_027.jpg,between-big,NA,NaN,NA,left,1798.9000000022352,1,3,1063.4000000022352
BqFjXC1O,NA,NA,BqFjXC1O,2020-0188,2021-09-26,13:30:53,14:59:55,NA,incomplete,false,NA,true,6,23,NA,NA,right,NA,NA,a_2_005.jpg,c_2_004.jpg,within,NA,NaN,NA,right,2066.2000000029802,1,1,1994.199999999255
BqFjXC1O,NA,NA,BqFjXC1O,2020-0188,2021-09-26,13:30:53,14:59:55,NA,incomplete,false,NA,true,6,24,NA,NA,left,NA,NA,a_1_001.jpg,a_1_009.jpg,within,NA,NaN,NA,left,4199.39999999851,1,0,1104.699999999255
BqFjXC1O,NA,NA,BqFjXC1O,2020-0188,2021-09-26,13:30:53,14:59:55,NA,incomplete,false,NA,true,6,25,NA,NA,left,NA,NA,a_1_009.jpg,m_s_011.jpg,between-big,NA,NaN,NA,left,1533.800000000745,1,1,1089
BqFjXC1O,NA,NA,BqFjXC1O,2020-0188,2021-09-26,13:30:53,14:59:55,NA,incomplete,false,NA,true,6,26,NA,NA,left,NA,NA,m_l_006.jpg,n_s_021.jpg,within,NA,NaN,NA,left,24422.10000000149,1,0,1168.6000000014901
BqFjXC1O,NA,NA,BqFjXC1O,2020-0188,2021-09-26,13:30:53,14:59:55,NA,incomplete,false,true,NA,7,0,size,m_l_028.jpg,right,small,large,NA,NA,NA,right,1179.70000000298,true,NA,NA,NA,NA,NA
BqFjXC1O,NA,NA,BqFjXC1O,2020-0188,2021-09-26,13:30:53,14:59:55,NA,incomplete,false,true,NA,7,1,size,m_l_002.jpg,right,small,large,NA,NA,NA,right,932,true,NA,NA,NA,NA,NA
BqFjXC1O,NA,NA,BqFjXC1O,2020-0188,2021-09-26,13:30:53,14:59:55,NA,incomplete,false,true,NA,7,2,size,m_l_023.jpg,left,large,small,NA,NA,NA,left,2420.30000000075,true,NA,NA,NA,NA,NA
BqFjXC1O,NA,NA,BqFjXC1O,2020-0188,2021-09-26,13:30:53,14:59:55,NA,incomplete,false,true,NA,7,3,size,m_l_026.jpg,left,large,small,NA,NA,NA,left,1466.30000000075,true,NA,NA,NA,NA,NA
BqFjXC1O,NA,NA,BqFjXC1O,2020-0188,2021-09-26,13:30:53,14:59:55,NA,incomplete,false,true,NA,7,4,size,m_s_016.jpg,right,large,small,NA,NA,NA,right,928.400000002235,true,NA,NA,NA,NA,NA
BqFjXC1O,NA,NA,BqFjXC1O,2020-0188,2021-09-26,13:30:53,14:59:55,NA,incomplete,false,true,NA,7,5,origin,n_l_003.jpg,right,manmade,natural,NA,NA,NA,right,1318.89999999851,true,NA,NA,NA,NA,NA
BqFjXC1O,NA,NA,BqFjXC1O,2020-0188,2021-09-26,13:30:53,14:59:55,NA,incomplete,false,true,NA,7,6,origin,n_l_028.jpg,right,manmade,natural,NA,NA,NA,right,1135.09999999776,true,NA,NA,NA,NA,NA
BqFjXC1O,NA,NA,BqFjXC1O,2020-0188,2021-09-26,13:30:53,14:59:55,NA,incomplete,false,true,NA,7,7,origin,m_l_014.jpg,right,natural,manmade,NA,NA,NA,right,1307.89999999851,true,NA,NA,NA,NA,NA
BqFjXC1O,NA,NA,BqFjXC1O,2020-0188,2021-09-26,13:30:53,14:59:55,NA,incomplete,false,true,NA,7,8,origin,m_s_017.jpg,left,manmade,natural,NA,NA,NA,left,1489.29999999702,true,NA,NA,NA,NA,NA
BqFjXC1O,NA,NA,BqFjXC1O,2020-0188,2021-09-26,13:30:53,14:59:55,NA,incomplete,false,true,NA,7,9,origin,n_l_006.jpg,right,manmade,natural,NA,NA,NA,right,1447.39999999851,true,NA,NA,NA,NA,NA
BqFjXC1O,NA,NA,BqFjXC1O,2020-0188,2021-09-26,13:30:53,14:59:55,NA,incomplete,false,true,NA,7,10,syllable,a_1_020.jpg,right,1 syllable,2 syllables,NA,NA,NA,left,1687.19999999925,false,NA,NA,NA,NA,NA
BqFjXC1O,NA,NA,BqFjXC1O,2020-0188,2021-09-26,13:30:53,14:59:55,NA,incomplete,false,true,NA,7,11,syllable,c_1_015.jpg,right,2 syllables,1 syllable,NA,NA,NA,right,1467.09999999776,true,NA,NA,NA,NA,NA
BqFjXC1O,NA,NA,BqFjXC1O,2020-0188,2021-09-26,13:30:53,14:59:55,NA,incomplete,false,true,NA,7,12,syllable,a_1_011.jpg,right,2 syllables,1 syllable,NA,NA,NA,right,1557.30000000075,true,NA,NA,NA,NA,NA
BqFjXC1O,NA,NA,BqFjXC1O,2020-0188,2021-09-26,13:30:53,14:59:55,NA,incomplete,false,true,NA,7,13,syllable,a_2_022.jpg,right,2 syllables,1 syllable,NA,NA,NA,left,1220.10000000149,false,NA,NA,NA,NA,NA
BqFjXC1O,NA,NA,BqFjXC1O,2020-0188,2021-09-26,13:30:53,14:59:55,NA,incomplete,false,true,NA,7,14,syllable,c_2_011.jpg,right,2 syllables,1 syllable,NA,NA,NA,left,1530.69999999925,false,NA,NA,NA,NA,NA
BqFjXC1O,NA,NA,BqFjXC1O,2020-0188,2021-09-26,13:30:53,14:59:55,NA,incomplete,false,true,NA,7,15,abstractness,a_2_019.jpg,left,abstract,concrete,NA,NA,NA,left,2674.10000000149,true,NA,NA,NA,NA,NA
BqFjXC1O,NA,NA,BqFjXC1O,2020-0188,2021-09-26,13:30:53,14:59:55,NA,incomplete,false,true,NA,7,16,abstractness,c_2_016.jpg,left,concrete,abstract,NA,NA,NA,left,2179.69999999925,true,NA,NA,NA,NA,NA
BqFjXC1O,NA,NA,BqFjXC1O,2020-0188,2021-09-26,13:30:53,14:59:55,NA,incomplete,false,true,NA,7,17,abstractness,c_2_026.jpg,right,abstract,concrete,NA,NA,NA,right,1964.89999999851,true,NA,NA,NA,NA,NA
BqFjXC1O,NA,NA,BqFjXC1O,2020-0188,2021-09-26,13:30:53,14:59:55,NA,incomplete,false,true,NA,7,18,abstractness,c_2_014.jpg,left,concrete,abstract,NA,NA,NA,left,1479.79999999702,true,NA,NA,NA,NA,NA
BqFjXC1O,NA,NA,BqFjXC1O,2020-0188,2021-09-26,13:30:53,14:59:55,NA,incomplete,false,true,NA,7,19,abstractness,a_2_021.jpg,left,abstract,concrete,NA,NA,NA,left,1754.09999999776,true,NA,NA,NA,NA,NA
BqFjXC1O,NA,NA,BqFjXC1O,2020-0188,2021-09-26,13:30:53,14:59:55,NA,incomplete,false,true,NA,7,20,building,i_s_009.jpg,right,cottage,skyscraper,NA,NA,NA,right,1541.89999999851,true,NA,NA,NA,NA,NA
BqFjXC1O,NA,NA,BqFjXC1O,2020-0188,2021-09-26,13:30:53,14:59:55,NA,incomplete,false,true,NA,7,21,building,o_c_008.jpg,left,cottage,skyscraper,NA,NA,NA,left,1028.20000000298,true,NA,NA,NA,NA,NA
BqFjXC1O,NA,NA,BqFjXC1O,2020-0188,2021-09-26,13:30:53,14:59:55,NA,incomplete,false,true,NA,7,22,building,o_c_006.jpg,right,skyscraper,cottage,NA,NA,NA,right,1022.90000000224,true,NA,NA,NA,NA,NA
BqFjXC1O,NA,NA,BqFjXC1O,2020-0188,2021-09-26,13:30:53,14:59:55,NA,incomplete,false,true,NA,7,23,building,i_c_010.jpg,left,cottage,skyscraper,NA,NA,NA,left,1154.60000000149,true,NA,NA,NA,NA,NA
BqFjXC1O,NA,NA,BqFjXC1O,2020-0188,2021-09-26,13:30:53,14:59:55,NA,incomplete,false,true,NA,7,24,building,o_s_012.jpg,left,skyscraper,cottage,NA,NA,NA,left,1536.60000000149,true,NA,NA,NA,NA,NA
BqFjXC1O,NA,NA,BqFjXC1O,2020-0188,2021-09-26,13:30:53,14:59:55,NA,incomplete,false,true,NA,7,25,location,o_s_011.jpg,left,outdoor,indoor,NA,NA,NA,left,1626.19999999925,true,NA,NA,NA,NA,NA
BqFjXC1O,NA,NA,BqFjXC1O,2020-0188,2021-09-26,13:30:53,14:59:55,NA,incomplete,false,true,NA,7,26,location,i_c_021.jpg,left,indoor,outdoor,NA,NA,NA,left,1388.80000000075,true,NA,NA,NA,NA,NA
BqFjXC1O,NA,NA,BqFjXC1O,2020-0188,2021-09-26,13:30:53,14:59:55,NA,incomplete,false,true,NA,7,27,location,o_s_001.jpg,left,outdoor,indoor,NA,NA,NA,left,1519.5,true,NA,NA,NA,NA,NA
BqFjXC1O,NA,NA,BqFjXC1O,2020-0188,2021-09-26,13:30:53,14:59:55,NA,incomplete,false,true,NA,7,28,location,i_s_026.jpg,right,outdoor,indoor,NA,NA,NA,right,1385.80000000075,true,NA,NA,NA,NA,NA
BqFjXC1O,NA,NA,BqFjXC1O,2020-0188,2021-09-26,13:30:53,14:59:55,NA,incomplete,false,true,NA,7,29,location,o_c_001.jpg,right,indoor,outdoor,NA,NA,NA,left,1506.69999999925,false,NA,NA,NA,NA,NA
BqFjXC1O,NA,NA,BqFjXC1O,2020-0188,2021-09-26,13:30:53,14:59:55,NA,incomplete,false,NA,true,7,0,NA,NA,left,NA,NA,o_s_012.jpg,o_s_001.jpg,between-small,NA,NaN,NA,left,2709.10000000149,1,0,1231.699999999255
BqFjXC1O,NA,NA,BqFjXC1O,2020-0188,2021-09-26,13:30:53,14:59:55,NA,incomplete,false,NA,true,7,1,NA,NA,left,NA,NA,m_s_016.jpg,m_l_014.jpg,between-small,NA,NaN,NA,left,2338.800000000745,1,1,2324.10000000149
BqFjXC1O,NA,NA,BqFjXC1O,2020-0188,2021-09-26,13:30:53,14:59:55,NA,incomplete,false,NA,true,7,2,NA,NA,left,NA,NA,o_s_011.jpg,i_s_026.jpg,within,NA,NaN,NA,left,3728.599999997765,1,1,1340.699999999255
BqFjXC1O,NA,NA,BqFjXC1O,2020-0188,2021-09-26,13:30:53,14:59:55,NA,incomplete,false,NA,true,7,3,NA,NA,left,NA,NA,c_2_026.jpg,i_s_009.jpg,between-big,NA,NaN,NA,left,2020.1000000014901,1,3,1524.5999999977648
BqFjXC1O,NA,NA,BqFjXC1O,2020-0188,2021-09-26,13:30:53,14:59:55,NA,incomplete,false,NA,true,7,4,NA,NA,left,NA,NA,a_1_011.jpg,a_2_019.jpg,between-small,NA,NaN,NA,left,4191.10000000149,1,1,862
BqFjXC1O,NA,NA,BqFjXC1O,2020-0188,2021-09-26,13:30:53,14:59:55,NA,incomplete,false,NA,true,7,5,NA,NA,left,NA,NA,c_1_015.jpg,c_2_011.jpg,within,NA,NaN,NA,left,3036,1,0,1057.6000000014901
BqFjXC1O,NA,NA,BqFjXC1O,2020-0188,2021-09-26,13:30:53,14:59:55,NA,incomplete,false,NA,true,7,6,NA,NA,left,NA,NA,m_l_014.jpg,a_1_020.jpg,between-big,NA,NaN,NA,left,9564.199999999255,1,0,1808.0999999977648
BqFjXC1O,NA,NA,BqFjXC1O,2020-0188,2021-09-26,13:30:53,14:59:55,NA,incomplete,false,NA,true,7,7,NA,NA,right,NA,NA,m_s_017.jpg,n_l_003.jpg,within,NA,NaN,NA,right,4135.699999999255,1,0,1201.7999999970198
BqFjXC1O,NA,NA,BqFjXC1O,2020-0188,2021-09-26,13:30:53,14:59:55,NA,incomplete,false,NA,true,7,8,NA,NA,right,NA,NA,a_2_022.jpg,a_1_020.jpg,within,NA,NaN,NA,left,5525.60000000149,0,2,1677.8999999985099
BqFjXC1O,NA,NA,BqFjXC1O,2020-0188,2021-09-26,13:30:53,14:59:55,NA,incomplete,false,NA,true,7,9,NA,NA,left,NA,NA,o_c_006.jpg,o_s_011.jpg,between-small,NA,NaN,NA,right,3083.800000000745,0,1,1525.5
BqFjXC1O,NA,NA,BqFjXC1O,2020-0188,2021-09-26,13:30:53,14:59:55,NA,incomplete,false,NA,true,7,10,NA,NA,left,NA,NA,i_c_010.jpg,i_c_021.jpg,between-small,NA,NaN,NA,left,3739.199999999255,1,1,1095.5
BqFjXC1O,NA,NA,BqFjXC1O,2020-0188,2021-09-26,13:30:53,14:59:55,NA,incomplete,false,NA,true,7,11,NA,NA,left,NA,NA,i_s_009.jpg,i_c_010.jpg,within,NA,NaN,NA,left,2316.60000000149,1,0,2857.599999997765
BqFjXC1O,NA,NA,BqFjXC1O,2020-0188,2021-09-26,13:30:53,14:59:55,NA,incomplete,false,NA,true,7,12,NA,NA,right,NA,NA,m_l_026.jpg,m_l_028.jpg,within,NA,NaN,NA,right,1516.699999999255,1,0,1564.9000000022352
BqFjXC1O,NA,NA,BqFjXC1O,2020-0188,2021-09-26,13:30:53,14:59:55,NA,incomplete,false,NA,true,7,13,NA,NA,left,NA,NA,c_2_016.jpg,a_2_021.jpg,within,NA,NaN,NA,left,5017.599999997765,1,0,2526.60000000149
BqFjXC1O,NA,NA,BqFjXC1O,2020-0188,2021-09-26,13:30:53,14:59:55,NA,incomplete,false,NA,true,7,14,NA,NA,left,NA,NA,o_c_008.jpg,o_s_012.jpg,within,NA,NaN,NA,right,4845.699999999255,0,0,1128.8999999985099
BqFjXC1O,NA,NA,BqFjXC1O,2020-0188,2021-09-26,13:30:53,14:59:55,NA,incomplete,false,NA,true,7,15,NA,NA,left,NA,NA,a_2_021.jpg,o_c_006.jpg,between-big,NA,NaN,NA,left,1727.300000000745,1,2,1363.1000000014901
BqFjXC1O,NA,NA,BqFjXC1O,2020-0188,2021-09-26,13:30:53,14:59:55,NA,incomplete,false,NA,true,7,16,NA,NA,right,NA,NA,c_2_016.jpg,a_2_022.jpg,between-small,NA,NaN,NA,right,4449.699999999255,1,2,990.8999999985099
BqFjXC1O,NA,NA,BqFjXC1O,2020-0188,2021-09-26,13:30:53,14:59:55,NA,incomplete,false,NA,true,7,17,NA,NA,right,NA,NA,o_c_008.jpg,c_2_014.jpg,between-big,NA,NaN,NA,right,1378.5,1,3,900.8000000007451
BqFjXC1O,NA,NA,BqFjXC1O,2020-0188,2021-09-26,13:30:53,14:59:55,NA,incomplete,false,NA,true,7,18,NA,NA,right,NA,NA,m_s_016.jpg,m_l_002.jpg,within,NA,NaN,NA,right,1589.300000000745,1,1,5259.39999999851
BqFjXC1O,NA,NA,BqFjXC1O,2020-0188,2021-09-26,13:30:53,14:59:55,NA,incomplete,false,NA,true,7,19,NA,NA,right,NA,NA,c_1_015.jpg,m_s_017.jpg,between-big,NA,NaN,NA,left,2703.89999999851,0,2,1064.8999999985099
BqFjXC1O,NA,NA,BqFjXC1O,2020-0188,2021-09-26,13:30:53,14:59:55,NA,incomplete,false,NA,true,7,20,NA,NA,left,NA,NA,i_c_021.jpg,o_c_001.jpg,within,NA,NaN,NA,right,3614.800000000745,0,1,1136.5999999977648
BqFjXC1O,NA,NA,BqFjXC1O,2020-0188,2021-09-26,13:30:53,14:59:55,NA,incomplete,false,NA,true,7,21,NA,NA,left,NA,NA,m_l_026.jpg,n_l_028.jpg,between-small,NA,NaN,NA,left,2244.2999999970198,1,2,1436.199999999255
BqFjXC1O,NA,NA,BqFjXC1O,2020-0188,2021-09-26,13:30:53,14:59:55,NA,incomplete,false,NA,true,7,22,NA,NA,right,NA,NA,n_l_003.jpg,m_l_023.jpg,between-small,NA,NaN,NA,right,3907.5,1,1,1177.199999999255
BqFjXC1O,NA,NA,BqFjXC1O,2020-0188,2021-09-26,13:30:53,14:59:55,NA,incomplete,false,NA,true,7,23,NA,NA,right,NA,NA,c_2_014.jpg,a_2_019.jpg,within,NA,NaN,NA,right,4239.39999999851,1,1,2575.2999999970198
BqFjXC1O,NA,NA,BqFjXC1O,2020-0188,2021-09-26,13:30:53,14:59:55,NA,incomplete,false,NA,true,7,24,NA,NA,left,NA,NA,n_l_028.jpg,n_l_006.jpg,within,NA,NaN,NA,left,3270.2000000029802,1,1,1509.5
BqFjXC1O,NA,NA,BqFjXC1O,2020-0188,2021-09-26,13:30:53,14:59:55,NA,incomplete,false,NA,true,7,25,NA,NA,left,NA,NA,c_2_011.jpg,c_2_026.jpg,between-small,NA,NaN,NA,left,2074.699999999255,1,2,1387.8999999985099
BqFjXC1O,NA,NA,BqFjXC1O,2020-0188,2021-09-26,13:30:53,14:59:55,NA,incomplete,false,NA,true,7,26,NA,NA,left,NA,NA,n_l_006.jpg,a_1_011.jpg,between-big,NA,NaN,NA,right,1541.199999999255,0,2,1040.1000000014901
BqFjXC1O,NA,NA,BqFjXC1O,2020-0188,2021-09-26,13:30:53,14:59:55,NA,incomplete,false,true,NA,8,0,syllable,a_2_010.jpg,right,2 syllables,1 syllable,NA,NA,NA,left,2216.30000000075,false,NA,NA,NA,NA,NA
BqFjXC1O,NA,NA,BqFjXC1O,2020-0188,2021-09-26,13:30:53,14:59:55,NA,incomplete,false,true,NA,8,1,syllable,c_1_024.jpg,right,1 syllable,2 syllables,NA,NA,NA,left,1395.19999999925,false,NA,NA,NA,NA,NA
BqFjXC1O,NA,NA,BqFjXC1O,2020-0188,2021-09-26,13:30:53,14:59:55,NA,incomplete,false,true,NA,8,2,syllable,c_1_028.jpg,right,1 syllable,2 syllables,NA,NA,NA,left,987.5,false,NA,NA,NA,NA,NA
BqFjXC1O,NA,NA,BqFjXC1O,2020-0188,2021-09-26,13:30:53,14:59:55,NA,incomplete,false,true,NA,8,3,syllable,c_1_002.jpg,right,2 syllables,1 syllable,NA,NA,NA,right,1837.89999999851,true,NA,NA,NA,NA,NA
BqFjXC1O,NA,NA,BqFjXC1O,2020-0188,2021-09-26,13:30:53,14:59:55,NA,incomplete,false,true,NA,8,4,syllable,c_2_002.jpg,right,1 syllable,2 syllables,NA,NA,NA,right,1514.39999999851,true,NA,NA,NA,NA,NA
BqFjXC1O,NA,NA,BqFjXC1O,2020-0188,2021-09-26,13:30:53,14:59:55,NA,incomplete,false,true,NA,8,5,abstractness,a_1_023.jpg,right,concrete,abstract,NA,NA,NA,right,2229.80000000075,true,NA,NA,NA,NA,NA
BqFjXC1O,NA,NA,BqFjXC1O,2020-0188,2021-09-26,13:30:53,14:59:55,NA,incomplete,false,true,NA,8,6,abstractness,a_2_012.jpg,left,abstract,concrete,NA,NA,NA,left,2219.29999999702,true,NA,NA,NA,NA,NA
BqFjXC1O,NA,NA,BqFjXC1O,2020-0188,2021-09-26,13:30:53,14:59:55,NA,incomplete,false,true,NA,8,7,abstractness,c_2_008.jpg,right,abstract,concrete,NA,NA,NA,right,1480,true,NA,NA,NA,NA,NA
BqFjXC1O,NA,NA,BqFjXC1O,2020-0188,2021-09-26,13:30:53,14:59:55,NA,incomplete,false,true,NA,8,8,abstractness,c_1_012.jpg,left,concrete,abstract,NA,NA,NA,left,1980.39999999851,true,NA,NA,NA,NA,NA
BqFjXC1O,NA,NA,BqFjXC1O,2020-0188,2021-09-26,13:30:53,14:59:55,NA,incomplete,false,true,NA,8,9,abstractness,a_2_015.jpg,left,abstract,concrete,NA,NA,NA,left,1626.30000000075,true,NA,NA,NA,NA,NA
BqFjXC1O,NA,NA,BqFjXC1O,2020-0188,2021-09-26,13:30:53,14:59:55,NA,incomplete,false,true,NA,8,10,origin,m_s_010.jpg,left,manmade,natural,NA,NA,NA,left,1649.39999999851,true,NA,NA,NA,NA,NA
BqFjXC1O,NA,NA,BqFjXC1O,2020-0188,2021-09-26,13:30:53,14:59:55,NA,incomplete,false,true,NA,8,11,origin,n_s_019.jpg,left,natural,manmade,NA,NA,NA,left,1292.30000000075,true,NA,NA,NA,NA,NA
BqFjXC1O,NA,NA,BqFjXC1O,2020-0188,2021-09-26,13:30:53,14:59:55,NA,incomplete,false,true,NA,8,12,origin,n_s_025.jpg,right,manmade,natural,NA,NA,NA,right,1201.90000000224,true,NA,NA,NA,NA,NA
BqFjXC1O,NA,NA,BqFjXC1O,2020-0188,2021-09-26,13:30:53,14:59:55,NA,incomplete,false,true,NA,8,13,origin,m_s_003.jpg,right,natural,manmade,NA,NA,NA,right,1662.5,true,NA,NA,NA,NA,NA
BqFjXC1O,NA,NA,BqFjXC1O,2020-0188,2021-09-26,13:30:53,14:59:55,NA,incomplete,false,true,NA,8,14,origin,m_s_006.jpg,left,manmade,natural,NA,NA,NA,left,1464.19999999925,true,NA,NA,NA,NA,NA
BqFjXC1O,NA,NA,BqFjXC1O,2020-0188,2021-09-26,13:30:53,14:59:55,NA,incomplete,false,true,NA,8,15,size,n_s_012.jpg,right,large,small,NA,NA,NA,right,1492.59999999776,true,NA,NA,NA,NA,NA
BqFjXC1O,NA,NA,BqFjXC1O,2020-0188,2021-09-26,13:30:53,14:59:55,NA,incomplete,false,true,NA,8,16,size,n_l_025.jpg,right,small,large,NA,NA,NA,right,1224.30000000075,true,NA,NA,NA,NA,NA
BqFjXC1O,NA,NA,BqFjXC1O,2020-0188,2021-09-26,13:30:53,14:59:55,NA,incomplete,false,true,NA,8,17,size,n_s_015.jpg,left,small,large,NA,NA,NA,left,1275.5,true,NA,NA,NA,NA,NA
BqFjXC1O,NA,NA,BqFjXC1O,2020-0188,2021-09-26,13:30:53,14:59:55,NA,incomplete,false,true,NA,8,18,size,n_l_018.jpg,left,large,small,NA,NA,NA,left,1489,true,NA,NA,NA,NA,NA
BqFjXC1O,NA,NA,BqFjXC1O,2020-0188,2021-09-26,13:30:53,14:59:55,NA,incomplete,false,true,NA,8,19,size,n_s_023.jpg,left,small,large,NA,NA,NA,left,1253.30000000075,true,NA,NA,NA,NA,NA
BqFjXC1O,NA,NA,BqFjXC1O,2020-0188,2021-09-26,13:30:53,14:59:55,NA,incomplete,false,true,NA,8,20,location,o_c_014.jpg,left,outdoor,indoor,NA,NA,NA,left,1342.80000000075,true,NA,NA,NA,NA,NA
BqFjXC1O,NA,NA,BqFjXC1O,2020-0188,2021-09-26,13:30:53,14:59:55,NA,incomplete,false,true,NA,8,21,location,i_s_005.jpg,left,indoor,outdoor,NA,NA,NA,left,2099.69999999925,true,NA,NA,NA,NA,NA
BqFjXC1O,NA,NA,BqFjXC1O,2020-0188,2021-09-26,13:30:53,14:59:55,NA,incomplete,false,true,NA,8,22,location,i_c_006.jpg,right,outdoor,indoor,NA,NA,NA,right,1044.30000000075,true,NA,NA,NA,NA,NA
BqFjXC1O,NA,NA,BqFjXC1O,2020-0188,2021-09-26,13:30:53,14:59:55,NA,incomplete,false,true,NA,8,23,location,i_c_020.jpg,right,outdoor,indoor,NA,NA,NA,right,872.89999999851,true,NA,NA,NA,NA,NA
BqFjXC1O,NA,NA,BqFjXC1O,2020-0188,2021-09-26,13:30:53,14:59:55,NA,incomplete,false,true,NA,8,24,location,o_c_004.jpg,left,outdoor,indoor,NA,NA,NA,left,1114.69999999925,true,NA,NA,NA,NA,NA
BqFjXC1O,NA,NA,BqFjXC1O,2020-0188,2021-09-26,13:30:53,14:59:55,NA,incomplete,false,true,NA,8,25,building,i_c_001.jpg,left,cottage,skyscraper,NA,NA,NA,left,1327.10000000149,true,NA,NA,NA,NA,NA
BqFjXC1O,NA,NA,BqFjXC1O,2020-0188,2021-09-26,13:30:53,14:59:55,NA,incomplete,false,true,NA,8,26,building,i_s_015.jpg,left,skyscraper,cottage,NA,NA,NA,left,1435.59999999776,true,NA,NA,NA,NA,NA
BqFjXC1O,NA,NA,BqFjXC1O,2020-0188,2021-09-26,13:30:53,14:59:55,NA,incomplete,false,true,NA,8,27,building,o_s_005.jpg,left,skyscraper,cottage,NA,NA,NA,left,1483.19999999925,true,NA,NA,NA,NA,NA
BqFjXC1O,NA,NA,BqFjXC1O,2020-0188,2021-09-26,13:30:53,14:59:55,NA,incomplete,false,true,NA,8,28,building,i_s_025.jpg,right,cottage,skyscraper,NA,NA,NA,right,1663.39999999851,true,NA,NA,NA,NA,NA
BqFjXC1O,NA,NA,BqFjXC1O,2020-0188,2021-09-26,13:30:53,14:59:55,NA,incomplete,false,true,NA,8,29,building,i_s_008.jpg,left,skyscraper,cottage,NA,NA,NA,left,1834.80000000075,true,NA,NA,NA,NA,NA
BqFjXC1O,NA,NA,BqFjXC1O,2020-0188,2021-09-26,13:30:53,14:59:55,NA,incomplete,false,NA,true,8,0,NA,NA,right,NA,NA,n_s_012.jpg,n_s_025.jpg,between-small,NA,NaN,NA,left,8445.10000000149,0,1,1143.300000000745
BqFjXC1O,NA,NA,BqFjXC1O,2020-0188,2021-09-26,13:30:53,14:59:55,NA,incomplete,false,NA,true,8,1,NA,NA,left,NA,NA,i_c_001.jpg,i_s_025.jpg,within,NA,NaN,NA,left,2575.699999999255,1,1,1112
BqFjXC1O,NA,NA,BqFjXC1O,2020-0188,2021-09-26,13:30:53,14:59:55,NA,incomplete,false,NA,true,8,2,NA,NA,right,NA,NA,o_s_005.jpg,o_c_004.jpg,between-small,NA,NaN,NA,right,2799.60000000149,1,0,1285.300000000745
BqFjXC1O,NA,NA,BqFjXC1O,2020-0188,2021-09-26,13:30:53,14:59:55,NA,incomplete,false,NA,true,8,3,NA,NA,left,NA,NA,a_2_012.jpg,a_2_015.jpg,within,NA,NaN,NA,right,27707.300000000745,0,1,1015.6999999992549
BqFjXC1O,NA,NA,BqFjXC1O,2020-0188,2021-09-26,13:30:53,14:59:55,NA,incomplete,false,NA,true,8,4,NA,NA,left,NA,NA,i_s_015.jpg,i_s_008.jpg,within,NA,NaN,NA,left,5793.300000000745,1,0,1419.6000000014901
BqFjXC1O,NA,NA,BqFjXC1O,2020-0188,2021-09-26,13:30:53,14:59:55,NA,incomplete,false,NA,true,8,5,NA,NA,right,NA,NA,c_2_008.jpg,c_2_002.jpg,between-small,NA,NaN,NA,right,3093.699999999255,1,1,1606.699999999255
BqFjXC1O,NA,NA,BqFjXC1O,2020-0188,2021-09-26,13:30:53,14:59:55,NA,incomplete,false,NA,true,8,6,NA,NA,left,NA,NA,a_2_010.jpg,c_1_002.jpg,within,NA,NaN,NA,right,2502.5,0,1,1088.5
BqFjXC1O,NA,NA,BqFjXC1O,2020-0188,2021-09-26,13:30:53,14:59:55,NA,incomplete,false,NA,true,8,7,NA,NA,right,NA,NA,a_2_012.jpg,c_1_002.jpg,between-small,NA,NaN,NA,right,1881.199999999255,1,0,1516.800000000745
BqFjXC1O,NA,NA,BqFjXC1O,2020-0188,2021-09-26,13:30:53,14:59:55,NA,incomplete,false,NA,true,8,8,NA,NA,right,NA,NA,i_c_001.jpg,i_c_006.jpg,between-small,NA,NaN,NA,left,4310.199999999255,0,1,1010.0999999977648
BqFjXC1O,NA,NA,BqFjXC1O,2020-0188,2021-09-26,13:30:53,14:59:55,NA,incomplete,false,NA,true,8,9,NA,NA,right,NA,NA,i_s_015.jpg,i_c_020.jpg,between-small,NA,NaN,NA,left,8879.89999999851,0,1,1024.0999999977648
BqFjXC1O,NA,NA,BqFjXC1O,2020-0188,2021-09-26,13:30:53,14:59:55,NA,incomplete,false,NA,true,8,10,NA,NA,left,NA,NA,c_2_008.jpg,m_s_010.jpg,between-big,NA,NaN,NA,left,2520.10000000149,1,0,2349.699999999255
BqFjXC1O,NA,NA,BqFjXC1O,2020-0188,2021-09-26,13:30:53,14:59:55,NA,incomplete,false,NA,true,8,11,NA,NA,left,NA,NA,m_s_003.jpg,n_l_025.jpg,between-small,NA,NaN,NA,right,1629.8999999985099,0,2,3084.10000000149
BqFjXC1O,NA,NA,BqFjXC1O,2020-0188,2021-09-26,13:30:53,14:59:55,NA,incomplete,false,NA,true,8,12,NA,NA,right,NA,NA,i_c_020.jpg,o_c_014.jpg,within,NA,NaN,NA,right,2955,1,2,2324.300000000745
BqFjXC1O,NA,NA,BqFjXC1O,2020-0188,2021-09-26,13:30:53,14:59:55,NA,incomplete,false,NA,true,8,13,NA,NA,right,NA,NA,n_s_023.jpg,n_l_025.jpg,within,NA,NaN,NA,left,2019.2999999970198,0,0,1416.1000000014901
BqFjXC1O,NA,NA,BqFjXC1O,2020-0188,2021-09-26,13:30:53,14:59:55,NA,incomplete,false,NA,true,8,14,NA,NA,right,NA,NA,a_1_023.jpg,c_1_028.jpg,between-small,NA,NaN,NA,right,3294,1,0,2084.199999999255
BqFjXC1O,NA,NA,BqFjXC1O,2020-0188,2021-09-26,13:30:53,14:59:55,NA,incomplete,false,NA,true,8,15,NA,NA,right,NA,NA,n_s_019.jpg,c_1_012.jpg,between-big,NA,NaN,NA,right,1678.699999999255,1,1,1162.4000000022352
BqFjXC1O,NA,NA,BqFjXC1O,2020-0188,2021-09-26,13:30:53,14:59:55,NA,incomplete,false,NA,true,8,16,NA,NA,right,NA,NA,n_s_025.jpg,a_2_015.jpg,between-big,NA,NaN,NA,right,3085.199999999255,1,2,1452.3999999985099
BqFjXC1O,NA,NA,BqFjXC1O,2020-0188,2021-09-26,13:30:53,14:59:55,NA,incomplete,false,NA,true,8,17,NA,NA,right,NA,NA,n_s_015.jpg,m_s_006.jpg,between-small,NA,NaN,NA,left,11454.800000000745,0,0,2114.89999999851
BqFjXC1O,NA,NA,BqFjXC1O,2020-0188,2021-09-26,13:30:53,14:59:55,NA,incomplete,false,NA,true,8,18,NA,NA,right,NA,NA,i_c_006.jpg,n_s_023.jpg,between-big,NA,NaN,NA,right,1290.300000000745,1,3,749.5
BqFjXC1O,NA,NA,BqFjXC1O,2020-0188,2021-09-26,13:30:53,14:59:55,NA,incomplete,false,NA,true,8,19,NA,NA,right,NA,NA,c_2_002.jpg,c_1_024.jpg,within,NA,NaN,NA,right,2170.800000000745,1,1,2195.099999997765
BqFjXC1O,NA,NA,BqFjXC1O,2020-0188,2021-09-26,13:30:53,14:59:55,NA,incomplete,false,NA,true,8,20,NA,NA,right,NA,NA,c_1_012.jpg,a_1_023.jpg,within,NA,NaN,NA,right,2454.300000000745,1,1,1606.199999999255
BqFjXC1O,NA,NA,BqFjXC1O,2020-0188,2021-09-26,13:30:53,14:59:55,NA,incomplete,false,NA,true,8,21,NA,NA,left,NA,NA,n_s_019.jpg,m_s_006.jpg,within,NA,NaN,NA,left,1864.699999999255,1,1,870.1000000014901
BqFjXC1O,NA,NA,BqFjXC1O,2020-0188,2021-09-26,13:30:53,14:59:55,NA,incomplete,false,NA,true,8,22,NA,NA,right,NA,NA,m_s_003.jpg,m_s_010.jpg,within,NA,NaN,NA,right,1589.2000000029802,1,2,1072.0999999977648
BqFjXC1O,NA,NA,BqFjXC1O,2020-0188,2021-09-26,13:30:53,14:59:55,NA,incomplete,false,NA,true,8,23,NA,NA,right,NA,NA,i_s_005.jpg,n_l_018.jpg,between-big,NA,NaN,NA,right,1338.5,1,3,894.6999999992549
BqFjXC1O,NA,NA,BqFjXC1O,2020-0188,2021-09-26,13:30:53,14:59:55,NA,incomplete,false,NA,true,8,24,NA,NA,right,NA,NA,o_c_004.jpg,i_s_005.jpg,within,NA,NaN,NA,left,2195.300000000745,0,1,2001.5999999977648
BqFjXC1O,NA,NA,BqFjXC1O,2020-0188,2021-09-26,13:30:53,14:59:55,NA,incomplete,false,NA,true,8,25,NA,NA,left,NA,NA,n_s_012.jpg,n_l_018.jpg,within,NA,NaN,NA,left,2496.300000000745,1,2,959.1999999992549
BqFjXC1O,NA,NA,BqFjXC1O,2020-0188,2021-09-26,13:30:53,14:59:55,NA,incomplete,false,NA,true,8,26,NA,NA,left,NA,NA,n_s_015.jpg,o_c_014.jpg,between-big,NA,NaN,NA,left,1630.9000000022352,1,2,968
BqFjXC1O,NA,NA,BqFjXC1O,2020-0188,2021-09-26,13:30:53,14:59:55,NA,incomplete,false,true,NA,9,0,syllable,a_1_028.jpg,right,1 syllable,2 syllables,NA,NA,NA,left,1817.39999999851,false,NA,NA,NA,NA,NA
BqFjXC1O,NA,NA,BqFjXC1O,2020-0188,2021-09-26,13:30:53,14:59:55,NA,incomplete,false,true,NA,9,1,syllable,c_2_018.jpg,right,1 syllable,2 syllables,NA,NA,NA,right,1400.5,true,NA,NA,NA,NA,NA
