workerId,hitId,assignmentId,subject,studyid,exp_date,exp_start,exp_end,time_start,time_end,practice,encoding,memory,block,trial,event,stim,answer,label_left,label_right,left_image,right_image,condition,response,response_time,response_acc,order_response,order_response_time,order_acc,distance_response,distance_response_time
cbp6c6g5,NA,NA,cbp6c6g5,2020-0188,2021-10-05,11:37:11,13:49:02,NA,incomplete,true,true,NA,0,0,origin,n_l_007.jpg,left,natural,manmade,NA,NA,NA,left,1072,true,NA,NA,NA,NA,NA
cbp6c6g5,NA,NA,cbp6c6g5,2020-0188,2021-10-05,11:37:11,13:49:02,NA,incomplete,true,true,NA,0,1,origin,m_s_025.jpg,right,natural,manmade,NA,NA,NA,right,1501.00000000001,true,NA,NA,NA,NA,NA
cbp6c6g5,NA,NA,cbp6c6g5,2020-0188,2021-10-05,11:37:11,13:49:02,NA,incomplete,true,true,NA,0,2,origin,m_l_022.jpg,left,manmade,natural,NA,NA,NA,left,1225.99999999999,true,NA,NA,NA,NA,NA
cbp6c6g5,NA,NA,cbp6c6g5,2020-0188,2021-10-05,11:37:11,13:49:02,NA,incomplete,true,true,NA,0,3,origin,n_s_025.jpg,left,natural,manmade,NA,NA,NA,left,1113,true,NA,NA,NA,NA,NA
cbp6c6g5,NA,NA,cbp6c6g5,2020-0188,2021-10-05,11:37:11,13:49:02,NA,incomplete,true,true,NA,0,4,origin,n_l_024.jpg,right,manmade,natural,NA,NA,NA,right,2707.99999999999,true,NA,NA,NA,NA,NA
cbp6c6g5,NA,NA,cbp6c6g5,2020-0188,2021-10-05,11:37:11,13:49:02,NA,incomplete,true,true,NA,0,5,size,m_s_020.jpg,left,small,large,NA,NA,NA,left,1710,true,NA,NA,NA,NA,NA
cbp6c6g5,NA,NA,cbp6c6g5,2020-0188,2021-10-05,11:37:11,13:49:02,NA,incomplete,true,true,NA,0,6,size,n_s_014.jpg,left,small,large,NA,NA,NA,left,1246,true,NA,NA,NA,NA,NA
cbp6c6g5,NA,NA,cbp6c6g5,2020-0188,2021-10-05,11:37:11,13:49:02,NA,incomplete,true,true,NA,0,7,size,m_l_004.jpg,left,large,small,NA,NA,NA,right,2061,false,NA,NA,NA,NA,NA
cbp6c6g5,NA,NA,cbp6c6g5,2020-0188,2021-10-05,11:37:11,13:49:02,NA,incomplete,true,true,NA,0,8,size,n_l_002.jpg,left,large,small,NA,NA,NA,left,1094,true,NA,NA,NA,NA,NA
cbp6c6g5,NA,NA,cbp6c6g5,2020-0188,2021-10-05,11:37:11,13:49:02,NA,incomplete,true,true,NA,0,9,size,n_l_028.jpg,right,small,large,NA,NA,NA,right,1444,true,NA,NA,NA,NA,NA
cbp6c6g5,NA,NA,cbp6c6g5,2020-0188,2021-10-05,11:37:11,13:49:02,NA,incomplete,true,true,NA,0,10,building,o_c_007.jpg,left,cottage,skyscraper,NA,NA,NA,left,1354,true,NA,NA,NA,NA,NA
cbp6c6g5,NA,NA,cbp6c6g5,2020-0188,2021-10-05,11:37:11,13:49:02,NA,incomplete,true,true,NA,0,11,building,o_s_021.jpg,left,skyscraper,cottage,NA,NA,NA,left,1411.00000000001,true,NA,NA,NA,NA,NA
cbp6c6g5,NA,NA,cbp6c6g5,2020-0188,2021-10-05,11:37:11,13:49:02,NA,incomplete,true,true,NA,0,12,building,o_c_028.jpg,right,skyscraper,cottage,NA,NA,NA,right,1478,true,NA,NA,NA,NA,NA
cbp6c6g5,NA,NA,cbp6c6g5,2020-0188,2021-10-05,11:37:11,13:49:02,NA,incomplete,true,true,NA,0,13,building,o_c_003.jpg,left,cottage,skyscraper,NA,NA,NA,left,1244,true,NA,NA,NA,NA,NA
cbp6c6g5,NA,NA,cbp6c6g5,2020-0188,2021-10-05,11:37:11,13:49:02,NA,incomplete,true,true,NA,0,14,building,i_s_026.jpg,left,skyscraper,cottage,NA,NA,NA,left,1674,true,NA,NA,NA,NA,NA
cbp6c6g5,NA,NA,cbp6c6g5,2020-0188,2021-10-05,11:37:11,13:49:02,NA,incomplete,true,true,NA,0,15,location,i_c_008.jpg,left,indoor,outdoor,NA,NA,NA,left,1671,true,NA,NA,NA,NA,NA
cbp6c6g5,NA,NA,cbp6c6g5,2020-0188,2021-10-05,11:37:11,13:49:02,NA,incomplete,true,true,NA,0,16,location,i_s_013.jpg,right,outdoor,indoor,NA,NA,NA,right,1349.99999999999,true,NA,NA,NA,NA,NA
cbp6c6g5,NA,NA,cbp6c6g5,2020-0188,2021-10-05,11:37:11,13:49:02,NA,incomplete,true,true,NA,0,17,location,i_c_023.jpg,left,indoor,outdoor,NA,NA,NA,left,1614.99999999999,true,NA,NA,NA,NA,NA
cbp6c6g5,NA,NA,cbp6c6g5,2020-0188,2021-10-05,11:37:11,13:49:02,NA,incomplete,true,true,NA,0,18,location,o_s_023.jpg,left,outdoor,indoor,NA,NA,NA,left,1453,true,NA,NA,NA,NA,NA
cbp6c6g5,NA,NA,cbp6c6g5,2020-0188,2021-10-05,11:37:11,13:49:02,NA,incomplete,true,true,NA,0,19,location,o_s_009.jpg,left,outdoor,indoor,NA,NA,NA,left,1321,true,NA,NA,NA,NA,NA
cbp6c6g5,NA,NA,cbp6c6g5,2020-0188,2021-10-05,11:37:11,13:49:02,NA,incomplete,true,true,NA,0,20,syllable,a_1_006.jpg,right,2 syllables,1 syllable,NA,NA,NA,right,1562,true,NA,NA,NA,NA,NA
cbp6c6g5,NA,NA,cbp6c6g5,2020-0188,2021-10-05,11:37:11,13:49:02,NA,incomplete,true,true,NA,0,21,syllable,a_2_021.jpg,right,2 syllables,1 syllable,NA,NA,NA,left,1216,false,NA,NA,NA,NA,NA
cbp6c6g5,NA,NA,cbp6c6g5,2020-0188,2021-10-05,11:37:11,13:49:02,NA,incomplete,true,true,NA,0,22,syllable,a_2_020.jpg,right,1 syllable,2 syllables,NA,NA,NA,right,1790.99999999997,true,NA,NA,NA,NA,NA
cbp6c6g5,NA,NA,cbp6c6g5,2020-0188,2021-10-05,11:37:11,13:49:02,NA,incomplete,true,true,NA,0,23,syllable,c_1_018.jpg,right,1 syllable,2 syllables,NA,NA,NA,left,1194,false,NA,NA,NA,NA,NA
cbp6c6g5,NA,NA,cbp6c6g5,2020-0188,2021-10-05,11:37:11,13:49:02,NA,incomplete,true,true,NA,0,24,syllable,a_1_002.jpg,right,1 syllable,2 syllables,NA,NA,NA,left,1176,false,NA,NA,NA,NA,NA
cbp6c6g5,NA,NA,cbp6c6g5,2020-0188,2021-10-05,11:37:11,13:49:02,NA,incomplete,true,true,NA,0,25,abstractness,c_2_008.jpg,right,abstract,concrete,NA,NA,NA,right,2049.99999999997,true,NA,NA,NA,NA,NA
cbp6c6g5,NA,NA,cbp6c6g5,2020-0188,2021-10-05,11:37:11,13:49:02,NA,incomplete,true,true,NA,0,26,abstractness,c_2_006.jpg,right,abstract,concrete,NA,NA,NA,right,2150.99999999997,true,NA,NA,NA,NA,NA
cbp6c6g5,NA,NA,cbp6c6g5,2020-0188,2021-10-05,11:37:11,13:49:02,NA,incomplete,true,true,NA,0,27,abstractness,c_1_009.jpg,left,concrete,abstract,NA,NA,NA,left,1150.99999999997,true,NA,NA,NA,NA,NA
cbp6c6g5,NA,NA,cbp6c6g5,2020-0188,2021-10-05,11:37:11,13:49:02,NA,incomplete,true,true,NA,0,28,abstractness,c_2_026.jpg,right,abstract,concrete,NA,NA,NA,right,1272.99999999997,true,NA,NA,NA,NA,NA
cbp6c6g5,NA,NA,cbp6c6g5,2020-0188,2021-10-05,11:37:11,13:49:02,NA,incomplete,true,true,NA,0,29,abstractness,c_1_004.jpg,right,abstract,concrete,NA,NA,NA,right,1384,true,NA,NA,NA,NA,NA
cbp6c6g5,NA,NA,cbp6c6g5,2020-0188,2021-10-05,11:37:11,13:49:02,NA,incomplete,true,NA,true,0,0,NA,NA,left,NA,NA,m_l_004.jpg,o_c_007.jpg,between-big,NA,NaN,NA,left,3995,1,1,2087
cbp6c6g5,NA,NA,cbp6c6g5,2020-0188,2021-10-05,11:37:11,13:49:02,NA,incomplete,true,NA,true,0,1,NA,NA,left,NA,NA,a_2_021.jpg,a_1_002.jpg,within,NA,NaN,NA,left,1314,1,0,1711
cbp6c6g5,NA,NA,cbp6c6g5,2020-0188,2021-10-05,11:37:11,13:49:02,NA,incomplete,true,NA,true,0,2,NA,NA,right,NA,NA,n_s_025.jpg,n_l_007.jpg,within,NA,NaN,NA,right,3866,1,1,1443
cbp6c6g5,NA,NA,cbp6c6g5,2020-0188,2021-10-05,11:37:11,13:49:02,NA,incomplete,true,NA,true,0,3,NA,NA,right,NA,NA,i_c_008.jpg,o_c_028.jpg,between-small,NA,NaN,NA,right,2988,1,1,1934
cbp6c6g5,NA,NA,cbp6c6g5,2020-0188,2021-10-05,11:37:11,13:49:02,NA,incomplete,true,NA,true,0,4,NA,NA,left,NA,NA,n_l_002.jpg,o_s_021.jpg,between-big,NA,NaN,NA,left,870,1,2,977
cbp6c6g5,NA,NA,cbp6c6g5,2020-0188,2021-10-05,11:37:11,13:49:02,NA,incomplete,true,NA,true,0,5,NA,NA,right,NA,NA,n_l_028.jpg,n_s_014.jpg,within,NA,NaN,NA,right,2263,1,1,1130.0000000000582
cbp6c6g5,NA,NA,cbp6c6g5,2020-0188,2021-10-05,11:37:11,13:49:02,NA,incomplete,true,NA,true,0,6,NA,NA,right,NA,NA,a_2_021.jpg,o_s_023.jpg,between-big,NA,NaN,NA,left,3469,0,1,1568
cbp6c6g5,NA,NA,cbp6c6g5,2020-0188,2021-10-05,11:37:11,13:49:02,NA,incomplete,true,NA,true,0,7,NA,NA,right,NA,NA,n_l_024.jpg,m_s_025.jpg,within,NA,NaN,NA,right,1868,1,1,1106
cbp6c6g5,NA,NA,cbp6c6g5,2020-0188,2021-10-05,11:37:11,13:49:02,NA,incomplete,true,NA,true,0,8,NA,NA,right,NA,NA,o_c_003.jpg,o_c_007.jpg,within,NA,NaN,NA,right,9726,1,1,946
cbp6c6g5,NA,NA,cbp6c6g5,2020-0188,2021-10-05,11:37:11,13:49:02,NA,incomplete,true,NA,true,0,9,NA,NA,right,NA,NA,o_s_023.jpg,i_c_008.jpg,within,NA,NaN,NA,right,2326,1,1,1855.0000000000582
cbp6c6g5,NA,NA,cbp6c6g5,2020-0188,2021-10-05,11:37:11,13:49:02,NA,incomplete,true,NA,true,0,10,NA,NA,left,NA,NA,n_l_028.jpg,o_c_028.jpg,between-big,NA,NaN,NA,left,1947,1,1,1020.9999999999418
cbp6c6g5,NA,NA,cbp6c6g5,2020-0188,2021-10-05,11:37:11,13:49:02,NA,incomplete,true,NA,true,0,11,NA,NA,left,NA,NA,a_1_002.jpg,c_1_009.jpg,between-small,NA,NaN,NA,right,3658,0,2,2049
cbp6c6g5,NA,NA,cbp6c6g5,2020-0188,2021-10-05,11:37:11,13:49:02,NA,incomplete,true,NA,true,0,12,NA,NA,left,NA,NA,i_s_026.jpg,i_c_023.jpg,between-small,NA,NaN,NA,left,6024,1,1,1013
cbp6c6g5,NA,NA,cbp6c6g5,2020-0188,2021-10-05,11:37:11,13:49:02,NA,incomplete,true,NA,true,0,13,NA,NA,right,NA,NA,n_s_014.jpg,n_s_025.jpg,between-small,NA,NaN,NA,left,896,0,1,2223
cbp6c6g5,NA,NA,cbp6c6g5,2020-0188,2021-10-05,11:37:11,13:49:02,NA,incomplete,true,NA,true,0,14,NA,NA,right,NA,NA,i_s_026.jpg,o_s_021.jpg,within,NA,NaN,NA,left,1790,0,2,1249
cbp6c6g5,NA,NA,cbp6c6g5,2020-0188,2021-10-05,11:37:11,13:49:02,NA,incomplete,true,NA,true,0,15,NA,NA,right,NA,NA,m_l_004.jpg,n_l_024.jpg,between-small,NA,NaN,NA,left,1030,0,1,1145
cbp6c6g5,NA,NA,cbp6c6g5,2020-0188,2021-10-05,11:37:11,13:49:02,NA,incomplete,true,NA,true,0,16,NA,NA,left,NA,NA,c_2_008.jpg,c_2_026.jpg,within,NA,NaN,NA,left,1868.0000000000582,1,1,929
cbp6c6g5,NA,NA,cbp6c6g5,2020-0188,2021-10-05,11:37:11,13:49:02,NA,incomplete,true,NA,true,0,17,NA,NA,left,NA,NA,m_s_020.jpg,n_l_002.jpg,within,NA,NaN,NA,left,11311,1,2,1334.0000000000582
cbp6c6g5,NA,NA,cbp6c6g5,2020-0188,2021-10-05,11:37:11,13:49:02,NA,incomplete,true,NA,true,0,18,NA,NA,right,NA,NA,a_2_020.jpg,o_s_009.jpg,between-big,NA,NaN,NA,left,5534.000000000058,0,2,1193.0000000000582
cbp6c6g5,NA,NA,cbp6c6g5,2020-0188,2021-10-05,11:37:11,13:49:02,NA,incomplete,true,NA,true,0,19,NA,NA,left,NA,NA,c_2_006.jpg,c_1_004.jpg,within,NA,NaN,NA,left,15077,1,1,993
cbp6c6g5,NA,NA,cbp6c6g5,2020-0188,2021-10-05,11:37:11,13:49:02,NA,incomplete,true,NA,true,0,20,NA,NA,left,NA,NA,c_1_018.jpg,c_2_006.jpg,between-small,NA,NaN,NA,left,8039,1,1,1491
cbp6c6g5,NA,NA,cbp6c6g5,2020-0188,2021-10-05,11:37:11,13:49:02,NA,incomplete,true,NA,true,0,21,NA,NA,right,NA,NA,o_s_009.jpg,i_s_013.jpg,within,NA,NaN,NA,right,2552,1,1,909.9999999999418
cbp6c6g5,NA,NA,cbp6c6g5,2020-0188,2021-10-05,11:37:11,13:49:02,NA,incomplete,true,NA,true,0,22,NA,NA,right,NA,NA,c_1_018.jpg,a_1_006.jpg,within,NA,NaN,NA,left,5109.000000000058,0,1,1033
cbp6c6g5,NA,NA,cbp6c6g5,2020-0188,2021-10-05,11:37:11,13:49:02,NA,incomplete,true,NA,true,0,23,NA,NA,right,NA,NA,m_s_020.jpg,m_l_022.jpg,between-small,NA,NaN,NA,left,3875,0,1,2792
cbp6c6g5,NA,NA,cbp6c6g5,2020-0188,2021-10-05,11:37:11,13:49:02,NA,incomplete,true,NA,true,0,24,NA,NA,right,NA,NA,c_2_008.jpg,a_2_020.jpg,between-small,NA,NaN,NA,left,1150.0000000000582,0,1,1746
cbp6c6g5,NA,NA,cbp6c6g5,2020-0188,2021-10-05,11:37:11,13:49:02,NA,incomplete,true,NA,true,0,25,NA,NA,right,NA,NA,a_1_006.jpg,i_c_023.jpg,between-big,NA,NaN,NA,right,1614,1,1,894.9999999999418
cbp6c6g5,NA,NA,cbp6c6g5,2020-0188,2021-10-05,11:37:11,13:49:02,NA,incomplete,true,NA,true,0,26,NA,NA,left,NA,NA,o_c_003.jpg,i_s_013.jpg,between-small,NA,NaN,NA,left,828,1,1,1544.9999999999418
cbp6c6g5,NA,NA,cbp6c6g5,2020-0188,2021-10-05,11:37:11,13:49:02,NA,incomplete,false,true,NA,1,0,building,i_c_002.jpg,left,cottage,skyscraper,NA,NA,NA,left,2000,true,NA,NA,NA,NA,NA
cbp6c6g5,NA,NA,cbp6c6g5,2020-0188,2021-10-05,11:37:11,13:49:02,NA,incomplete,false,true,NA,1,1,building,i_c_001.jpg,right,skyscraper,cottage,NA,NA,NA,right,1276,true,NA,NA,NA,NA,NA
cbp6c6g5,NA,NA,cbp6c6g5,2020-0188,2021-10-05,11:37:11,13:49:02,NA,incomplete,false,true,NA,1,2,building,i_c_006.jpg,left,cottage,skyscraper,NA,NA,NA,left,928.999999999884,true,NA,NA,NA,NA,NA
cbp6c6g5,NA,NA,cbp6c6g5,2020-0188,2021-10-05,11:37:11,13:49:02,NA,incomplete,false,true,NA,1,3,building,o_s_019.jpg,left,skyscraper,cottage,NA,NA,NA,left,1287,true,NA,NA,NA,NA,NA
cbp6c6g5,NA,NA,cbp6c6g5,2020-0188,2021-10-05,11:37:11,13:49:02,NA,incomplete,false,true,NA,1,4,building,o_s_003.jpg,left,skyscraper,cottage,NA,NA,NA,left,1100,true,NA,NA,NA,NA,NA
cbp6c6g5,NA,NA,cbp6c6g5,2020-0188,2021-10-05,11:37:11,13:49:02,NA,incomplete,false,true,NA,1,5,location,i_s_008.jpg,right,outdoor,indoor,NA,NA,NA,right,1720,true,NA,NA,NA,NA,NA
cbp6c6g5,NA,NA,cbp6c6g5,2020-0188,2021-10-05,11:37:11,13:49:02,NA,incomplete,false,true,NA,1,6,location,o_s_020.jpg,left,outdoor,indoor,NA,NA,NA,left,1082,true,NA,NA,NA,NA,NA
cbp6c6g5,NA,NA,cbp6c6g5,2020-0188,2021-10-05,11:37:11,13:49:02,NA,incomplete,false,true,NA,1,7,location,o_c_010.jpg,right,indoor,outdoor,NA,NA,NA,right,1327,true,NA,NA,NA,NA,NA
cbp6c6g5,NA,NA,cbp6c6g5,2020-0188,2021-10-05,11:37:11,13:49:02,NA,incomplete,false,true,NA,1,8,location,o_c_001.jpg,right,indoor,outdoor,NA,NA,NA,right,2304,true,NA,NA,NA,NA,NA
cbp6c6g5,NA,NA,cbp6c6g5,2020-0188,2021-10-05,11:37:11,13:49:02,NA,incomplete,false,true,NA,1,9,location,i_c_011.jpg,right,outdoor,indoor,NA,NA,NA,right,1460,true,NA,NA,NA,NA,NA
cbp6c6g5,NA,NA,cbp6c6g5,2020-0188,2021-10-05,11:37:11,13:49:02,NA,incomplete,false,true,NA,1,10,abstractness,a_2_007.jpg,right,concrete,abstract,NA,NA,NA,right,2408,true,NA,NA,NA,NA,NA
cbp6c6g5,NA,NA,cbp6c6g5,2020-0188,2021-10-05,11:37:11,13:49:02,NA,incomplete,false,true,NA,1,11,abstractness,a_1_018.jpg,right,concrete,abstract,NA,NA,NA,right,2494,true,NA,NA,NA,NA,NA
cbp6c6g5,NA,NA,cbp6c6g5,2020-0188,2021-10-05,11:37:11,13:49:02,NA,incomplete,false,true,NA,1,12,abstractness,c_2_022.jpg,right,abstract,concrete,NA,NA,NA,right,1475,true,NA,NA,NA,NA,NA
cbp6c6g5,NA,NA,cbp6c6g5,2020-0188,2021-10-05,11:37:11,13:49:02,NA,incomplete,false,true,NA,1,13,abstractness,c_1_019.jpg,right,abstract,concrete,NA,NA,NA,right,1507,true,NA,NA,NA,NA,NA
cbp6c6g5,NA,NA,cbp6c6g5,2020-0188,2021-10-05,11:37:11,13:49:02,NA,incomplete,false,true,NA,1,14,abstractness,a_1_013.jpg,left,abstract,concrete,NA,NA,NA,left,2383,true,NA,NA,NA,NA,NA
cbp6c6g5,NA,NA,cbp6c6g5,2020-0188,2021-10-05,11:37:11,13:49:02,NA,incomplete,false,true,NA,1,15,syllable,a_2_023.jpg,right,2 syllables,1 syllable,NA,NA,NA,left,1390,false,NA,NA,NA,NA,NA
cbp6c6g5,NA,NA,cbp6c6g5,2020-0188,2021-10-05,11:37:11,13:49:02,NA,incomplete,false,true,NA,1,16,syllable,c_1_011.jpg,right,1 syllable,2 syllables,NA,NA,NA,left,916,false,NA,NA,NA,NA,NA
cbp6c6g5,NA,NA,cbp6c6g5,2020-0188,2021-10-05,11:37:11,13:49:02,NA,incomplete,false,true,NA,1,17,syllable,c_1_014.jpg,right,2 syllables,1 syllable,NA,NA,NA,right,1620,true,NA,NA,NA,NA,NA
cbp6c6g5,NA,NA,cbp6c6g5,2020-0188,2021-10-05,11:37:11,13:49:02,NA,incomplete,false,true,NA,1,18,syllable,c_2_017.jpg,right,2 syllables,1 syllable,NA,NA,NA,left,828,false,NA,NA,NA,NA,NA
cbp6c6g5,NA,NA,cbp6c6g5,2020-0188,2021-10-05,11:37:11,13:49:02,NA,incomplete,false,true,NA,1,19,syllable,c_1_003.jpg,right,2 syllables,1 syllable,NA,NA,NA,right,1433.99999999988,true,NA,NA,NA,NA,NA
cbp6c6g5,NA,NA,cbp6c6g5,2020-0188,2021-10-05,11:37:11,13:49:02,NA,incomplete,false,true,NA,1,20,origin,n_l_027.jpg,right,manmade,natural,NA,NA,NA,right,1235.99999999988,true,NA,NA,NA,NA,NA
cbp6c6g5,NA,NA,cbp6c6g5,2020-0188,2021-10-05,11:37:11,13:49:02,NA,incomplete,false,true,NA,1,21,origin,m_s_009.jpg,left,manmade,natural,NA,NA,NA,left,1264.99999999988,true,NA,NA,NA,NA,NA
cbp6c6g5,NA,NA,cbp6c6g5,2020-0188,2021-10-05,11:37:11,13:49:02,NA,incomplete,false,true,NA,1,22,origin,m_l_018.jpg,right,natural,manmade,NA,NA,NA,right,1315,true,NA,NA,NA,NA,NA
cbp6c6g5,NA,NA,cbp6c6g5,2020-0188,2021-10-05,11:37:11,13:49:02,NA,incomplete,false,true,NA,1,23,origin,n_s_004.jpg,left,natural,manmade,NA,NA,NA,left,1313,true,NA,NA,NA,NA,NA
cbp6c6g5,NA,NA,cbp6c6g5,2020-0188,2021-10-05,11:37:11,13:49:02,NA,incomplete,false,true,NA,1,24,origin,m_s_003.jpg,right,natural,manmade,NA,NA,NA,right,1771,true,NA,NA,NA,NA,NA
cbp6c6g5,NA,NA,cbp6c6g5,2020-0188,2021-10-05,11:37:11,13:49:02,NA,incomplete,false,true,NA,1,25,size,m_s_028.jpg,right,large,small,NA,NA,NA,right,1408,true,NA,NA,NA,NA,NA
cbp6c6g5,NA,NA,cbp6c6g5,2020-0188,2021-10-05,11:37:11,13:49:02,NA,incomplete,false,true,NA,1,26,size,m_l_020.jpg,right,small,large,NA,NA,NA,left,1742.99999999988,false,NA,NA,NA,NA,NA
cbp6c6g5,NA,NA,cbp6c6g5,2020-0188,2021-10-05,11:37:11,13:49:02,NA,incomplete,false,true,NA,1,27,size,m_l_006.jpg,left,large,small,NA,NA,NA,right,1793,false,NA,NA,NA,NA,NA
cbp6c6g5,NA,NA,cbp6c6g5,2020-0188,2021-10-05,11:37:11,13:49:02,NA,incomplete,false,true,NA,1,28,size,n_l_021.jpg,left,large,small,NA,NA,NA,right,2266,false,NA,NA,NA,NA,NA
cbp6c6g5,NA,NA,cbp6c6g5,2020-0188,2021-10-05,11:37:11,13:49:02,NA,incomplete,false,true,NA,1,29,size,m_l_013.jpg,left,large,small,NA,NA,NA,left,1804,true,NA,NA,NA,NA,NA
cbp6c6g5,NA,NA,cbp6c6g5,2020-0188,2021-10-05,11:37:11,13:49:02,NA,incomplete,false,NA,true,1,0,NA,NA,right,NA,NA,c_1_011.jpg,c_1_019.jpg,between-small,NA,NaN,NA,left,1209.0000000001164,0,1,1414
cbp6c6g5,NA,NA,cbp6c6g5,2020-0188,2021-10-05,11:37:11,13:49:02,NA,incomplete,false,NA,true,1,1,NA,NA,left,NA,NA,m_l_020.jpg,m_l_013.jpg,within,NA,NaN,NA,left,2982,1,0,2108
cbp6c6g5,NA,NA,cbp6c6g5,2020-0188,2021-10-05,11:37:11,13:49:02,NA,incomplete,false,NA,true,1,2,NA,NA,left,NA,NA,o_s_003.jpg,o_c_010.jpg,between-small,NA,NaN,NA,left,1837,1,2,2078
cbp6c6g5,NA,NA,cbp6c6g5,2020-0188,2021-10-05,11:37:11,13:49:02,NA,incomplete,false,NA,true,1,3,NA,NA,left,NA,NA,n_s_004.jpg,m_l_020.jpg,between-small,NA,NaN,NA,left,1956,1,0,1697
cbp6c6g5,NA,NA,cbp6c6g5,2020-0188,2021-10-05,11:37:11,13:49:02,NA,incomplete,false,NA,true,1,4,NA,NA,left,NA,NA,a_1_013.jpg,c_1_014.jpg,between-small,NA,NaN,NA,left,1930,1,0,2349.9999999998836
cbp6c6g5,NA,NA,cbp6c6g5,2020-0188,2021-10-05,11:37:11,13:49:02,NA,incomplete,false,NA,true,1,5,NA,NA,left,NA,NA,n_l_027.jpg,n_s_004.jpg,within,NA,NaN,NA,left,888.0000000001164,1,1,2117.9999999998836
cbp6c6g5,NA,NA,cbp6c6g5,2020-0188,2021-10-05,11:37:11,13:49:02,NA,incomplete,false,NA,true,1,6,NA,NA,right,NA,NA,o_s_020.jpg,o_s_019.jpg,between-small,NA,NaN,NA,right,1974.0000000002328,1,1,1474
cbp6c6g5,NA,NA,cbp6c6g5,2020-0188,2021-10-05,11:37:11,13:49:02,NA,incomplete,false,NA,true,1,7,NA,NA,left,NA,NA,o_c_010.jpg,a_2_007.jpg,between-big,NA,NaN,NA,left,1565,1,1,2190.999999999767
cbp6c6g5,NA,NA,cbp6c6g5,2020-0188,2021-10-05,11:37:11,13:49:02,NA,incomplete,false,NA,true,1,8,NA,NA,right,NA,NA,o_c_001.jpg,i_s_008.jpg,within,NA,NaN,NA,right,4313.999999999884,1,1,1441
cbp6c6g5,NA,NA,cbp6c6g5,2020-0188,2021-10-05,11:37:11,13:49:02,NA,incomplete,false,NA,true,1,9,NA,NA,right,NA,NA,n_l_021.jpg,m_s_028.jpg,within,NA,NaN,NA,left,744,0,1,1443.9999999997672
cbp6c6g5,NA,NA,cbp6c6g5,2020-0188,2021-10-05,11:37:11,13:49:02,NA,incomplete,false,NA,true,1,10,NA,NA,left,NA,NA,i_c_001.jpg,o_s_003.jpg,within,NA,NaN,NA,right,1245,0,2,912
cbp6c6g5,NA,NA,cbp6c6g5,2020-0188,2021-10-05,11:37:11,13:49:02,NA,incomplete,false,NA,true,1,11,NA,NA,left,NA,NA,c_2_022.jpg,a_2_023.jpg,between-small,NA,NaN,NA,left,2198,1,1,1313.9999999997672
cbp6c6g5,NA,NA,cbp6c6g5,2020-0188,2021-10-05,11:37:11,13:49:02,NA,incomplete,false,NA,true,1,12,NA,NA,left,NA,NA,i_c_011.jpg,c_2_022.jpg,between-big,NA,NaN,NA,left,911,1,1,993
cbp6c6g5,NA,NA,cbp6c6g5,2020-0188,2021-10-05,11:37:11,13:49:02,NA,incomplete,false,NA,true,1,13,NA,NA,right,NA,NA,m_s_003.jpg,m_s_009.jpg,within,NA,NaN,NA,right,1814,1,0,1161
cbp6c6g5,NA,NA,cbp6c6g5,2020-0188,2021-10-05,11:37:11,13:49:02,NA,incomplete,false,NA,true,1,14,NA,NA,left,NA,NA,i_c_006.jpg,i_s_008.jpg,between-small,NA,NaN,NA,left,976,1,2,1409
cbp6c6g5,NA,NA,cbp6c6g5,2020-0188,2021-10-05,11:37:11,13:49:02,NA,incomplete,false,NA,true,1,15,NA,NA,right,NA,NA,m_s_009.jpg,c_2_017.jpg,between-big,NA,NaN,NA,left,2418,0,1,1053
cbp6c6g5,NA,NA,cbp6c6g5,2020-0188,2021-10-05,11:37:11,13:49:02,NA,incomplete,false,NA,true,1,16,NA,NA,left,NA,NA,o_c_001.jpg,a_1_018.jpg,between-big,NA,NaN,NA,left,745,1,2,4586
cbp6c6g5,NA,NA,cbp6c6g5,2020-0188,2021-10-05,11:37:11,13:49:02,NA,incomplete,false,NA,true,1,17,NA,NA,left,NA,NA,a_1_018.jpg,a_1_013.jpg,within,NA,NaN,NA,right,7870,0,1,2034
cbp6c6g5,NA,NA,cbp6c6g5,2020-0188,2021-10-05,11:37:11,13:49:02,NA,incomplete,false,NA,true,1,18,NA,NA,left,NA,NA,m_s_003.jpg,m_l_006.jpg,between-small,NA,NaN,NA,right,1846,0,1,1862
cbp6c6g5,NA,NA,cbp6c6g5,2020-0188,2021-10-05,11:37:11,13:49:02,NA,incomplete,false,NA,true,1,19,NA,NA,right,NA,NA,c_2_017.jpg,a_2_023.jpg,within,NA,NaN,NA,left,1265,0,2,1161
cbp6c6g5,NA,NA,cbp6c6g5,2020-0188,2021-10-05,11:37:11,13:49:02,NA,incomplete,false,NA,true,1,20,NA,NA,left,NA,NA,i_c_002.jpg,o_s_019.jpg,within,NA,NaN,NA,left,3059,1,0,1321.0000000002328
cbp6c6g5,NA,NA,cbp6c6g5,2020-0188,2021-10-05,11:37:11,13:49:02,NA,incomplete,false,NA,true,1,21,NA,NA,right,NA,NA,m_s_028.jpg,m_l_018.jpg,between-small,NA,NaN,NA,left,931,0,1,1966
cbp6c6g5,NA,NA,cbp6c6g5,2020-0188,2021-10-05,11:37:11,13:49:02,NA,incomplete,false,NA,true,1,22,NA,NA,right,NA,NA,m_l_018.jpg,c_1_003.jpg,between-big,NA,NaN,NA,left,1307.0000000002328,0,1,2302
cbp6c6g5,NA,NA,cbp6c6g5,2020-0188,2021-10-05,11:37:11,13:49:02,NA,incomplete,false,NA,true,1,23,NA,NA,right,NA,NA,c_1_019.jpg,a_2_007.jpg,within,NA,NaN,NA,right,3801,1,2,872.0000000002328
cbp6c6g5,NA,NA,cbp6c6g5,2020-0188,2021-10-05,11:37:11,13:49:02,NA,incomplete,false,NA,true,1,24,NA,NA,left,NA,NA,o_s_020.jpg,i_c_011.jpg,within,NA,NaN,NA,left,6367.999999999767,1,0,1649
cbp6c6g5,NA,NA,cbp6c6g5,2020-0188,2021-10-05,11:37:11,13:49:02,NA,incomplete,false,NA,true,1,25,NA,NA,left,NA,NA,c_1_011.jpg,c_1_003.jpg,within,NA,NaN,NA,left,1726,1,1,1168
cbp6c6g5,NA,NA,cbp6c6g5,2020-0188,2021-10-05,11:37:11,13:49:02,NA,incomplete,false,NA,true,1,26,NA,NA,right,NA,NA,n_l_027.jpg,c_1_014.jpg,between-big,NA,NaN,NA,left,833,0,1,872
cbp6c6g5,NA,NA,cbp6c6g5,2020-0188,2021-10-05,11:37:11,13:49:02,NA,incomplete,false,true,NA,2,0,abstractness,c_2_021.jpg,right,abstract,concrete,NA,NA,NA,right,1943,true,NA,NA,NA,NA,NA
cbp6c6g5,NA,NA,cbp6c6g5,2020-0188,2021-10-05,11:37:11,13:49:02,NA,incomplete,false,true,NA,2,1,abstractness,a_1_010.jpg,right,concrete,abstract,NA,NA,NA,right,1989,true,NA,NA,NA,NA,NA
cbp6c6g5,NA,NA,cbp6c6g5,2020-0188,2021-10-05,11:37:11,13:49:02,NA,incomplete,false,true,NA,2,2,abstractness,a_2_014.jpg,right,concrete,abstract,NA,NA,NA,right,1375,true,NA,NA,NA,NA,NA
cbp6c6g5,NA,NA,cbp6c6g5,2020-0188,2021-10-05,11:37:11,13:49:02,NA,incomplete,false,true,NA,2,3,abstractness,c_1_006.jpg,left,concrete,abstract,NA,NA,NA,left,1749,true,NA,NA,NA,NA,NA
cbp6c6g5,NA,NA,cbp6c6g5,2020-0188,2021-10-05,11:37:11,13:49:02,NA,incomplete,false,true,NA,2,4,abstractness,a_2_003.jpg,left,abstract,concrete,NA,NA,NA,right,1084,false,NA,NA,NA,NA,NA
cbp6c6g5,NA,NA,cbp6c6g5,2020-0188,2021-10-05,11:37:11,13:49:02,NA,incomplete,false,true,NA,2,5,syllable,a_2_025.jpg,right,1 syllable,2 syllables,NA,NA,NA,right,1932,true,NA,NA,NA,NA,NA
cbp6c6g5,NA,NA,cbp6c6g5,2020-0188,2021-10-05,11:37:11,13:49:02,NA,incomplete,false,true,NA,2,6,syllable,a_2_026.jpg,right,1 syllable,2 syllables,NA,NA,NA,right,1210,true,NA,NA,NA,NA,NA
cbp6c6g5,NA,NA,cbp6c6g5,2020-0188,2021-10-05,11:37:11,13:49:02,NA,incomplete,false,true,NA,2,7,syllable,c_1_027.jpg,right,2 syllables,1 syllable,NA,NA,NA,left,1829,false,NA,NA,NA,NA,NA
cbp6c6g5,NA,NA,cbp6c6g5,2020-0188,2021-10-05,11:37:11,13:49:02,NA,incomplete,false,true,NA,2,8,syllable,c_2_003.jpg,right,2 syllables,1 syllable,NA,NA,NA,left,1260,false,NA,NA,NA,NA,NA
cbp6c6g5,NA,NA,cbp6c6g5,2020-0188,2021-10-05,11:37:11,13:49:02,NA,incomplete,false,true,NA,2,9,syllable,c_1_023.jpg,right,1 syllable,2 syllables,NA,NA,NA,left,895,false,NA,NA,NA,NA,NA
cbp6c6g5,NA,NA,cbp6c6g5,2020-0188,2021-10-05,11:37:11,13:49:02,NA,incomplete,false,true,NA,2,10,size,m_l_008.jpg,right,small,large,NA,NA,NA,left,1148,false,NA,NA,NA,NA,NA
cbp6c6g5,NA,NA,cbp6c6g5,2020-0188,2021-10-05,11:37:11,13:49:02,NA,incomplete,false,true,NA,2,11,size,m_s_026.jpg,left,small,large,NA,NA,NA,left,813,true,NA,NA,NA,NA,NA
cbp6c6g5,NA,NA,cbp6c6g5,2020-0188,2021-10-05,11:37:11,13:49:02,NA,incomplete,false,true,NA,2,12,size,n_s_006.jpg,left,small,large,NA,NA,NA,left,1273,true,NA,NA,NA,NA,NA
cbp6c6g5,NA,NA,cbp6c6g5,2020-0188,2021-10-05,11:37:11,13:49:02,NA,incomplete,false,true,NA,2,13,size,m_s_001.jpg,right,large,small,NA,NA,NA,right,1854,true,NA,NA,NA,NA,NA
cbp6c6g5,NA,NA,cbp6c6g5,2020-0188,2021-10-05,11:37:11,13:49:02,NA,incomplete,false,true,NA,2,14,size,m_l_016.jpg,left,large,small,NA,NA,NA,left,1873,true,NA,NA,NA,NA,NA
cbp6c6g5,NA,NA,cbp6c6g5,2020-0188,2021-10-05,11:37:11,13:49:02,NA,incomplete,false,true,NA,2,15,origin,n_l_016.jpg,right,manmade,natural,NA,NA,NA,right,1156.99999999977,true,NA,NA,NA,NA,NA
cbp6c6g5,NA,NA,cbp6c6g5,2020-0188,2021-10-05,11:37:11,13:49:02,NA,incomplete,false,true,NA,2,16,origin,m_l_028.jpg,left,manmade,natural,NA,NA,NA,left,3103.99999999977,true,NA,NA,NA,NA,NA
cbp6c6g5,NA,NA,cbp6c6g5,2020-0188,2021-10-05,11:37:11,13:49:02,NA,incomplete,false,true,NA,2,17,origin,m_l_019.jpg,left,manmade,natural,NA,NA,NA,none,0,false,NA,NA,NA,NA,NA
cbp6c6g5,NA,NA,cbp6c6g5,2020-0188,2021-10-05,11:37:11,13:49:02,NA,incomplete,false,true,NA,2,18,origin,n_s_027.jpg,left,natural,manmade,NA,NA,NA,left,1139,true,NA,NA,NA,NA,NA
cbp6c6g5,NA,NA,cbp6c6g5,2020-0188,2021-10-05,11:37:11,13:49:02,NA,incomplete,false,true,NA,2,19,origin,m_s_022.jpg,left,manmade,natural,NA,NA,NA,left,1074,true,NA,NA,NA,NA,NA
cbp6c6g5,NA,NA,cbp6c6g5,2020-0188,2021-10-05,11:37:11,13:49:02,NA,incomplete,false,true,NA,2,20,location,i_s_021.jpg,left,indoor,outdoor,NA,NA,NA,left,1072,true,NA,NA,NA,NA,NA
cbp6c6g5,NA,NA,cbp6c6g5,2020-0188,2021-10-05,11:37:11,13:49:02,NA,incomplete,false,true,NA,2,21,location,i_s_002.jpg,left,indoor,outdoor,NA,NA,NA,left,925,true,NA,NA,NA,NA,NA
cbp6c6g5,NA,NA,cbp6c6g5,2020-0188,2021-10-05,11:37:11,13:49:02,NA,incomplete,false,true,NA,2,22,location,o_c_016.jpg,left,outdoor,indoor,NA,NA,NA,left,1439,true,NA,NA,NA,NA,NA
cbp6c6g5,NA,NA,cbp6c6g5,2020-0188,2021-10-05,11:37:11,13:49:02,NA,incomplete,false,true,NA,2,23,location,o_s_012.jpg,left,outdoor,indoor,NA,NA,NA,left,979,true,NA,NA,NA,NA,NA
cbp6c6g5,NA,NA,cbp6c6g5,2020-0188,2021-10-05,11:37:11,13:49:02,NA,incomplete,false,true,NA,2,24,location,i_c_027.jpg,right,outdoor,indoor,NA,NA,NA,right,1141,true,NA,NA,NA,NA,NA
cbp6c6g5,NA,NA,cbp6c6g5,2020-0188,2021-10-05,11:37:11,13:49:02,NA,incomplete,false,true,NA,2,25,building,o_c_021.jpg,right,skyscraper,cottage,NA,NA,NA,right,1762,true,NA,NA,NA,NA,NA
cbp6c6g5,NA,NA,cbp6c6g5,2020-0188,2021-10-05,11:37:11,13:49:02,NA,incomplete,false,true,NA,2,26,building,o_c_009.jpg,left,cottage,skyscraper,NA,NA,NA,left,931,true,NA,NA,NA,NA,NA
cbp6c6g5,NA,NA,cbp6c6g5,2020-0188,2021-10-05,11:37:11,13:49:02,NA,incomplete,false,true,NA,2,27,building,o_s_011.jpg,left,skyscraper,cottage,NA,NA,NA,left,1310,true,NA,NA,NA,NA,NA
cbp6c6g5,NA,NA,cbp6c6g5,2020-0188,2021-10-05,11:37:11,13:49:02,NA,incomplete,false,true,NA,2,28,building,i_s_023.jpg,right,cottage,skyscraper,NA,NA,NA,right,1673,true,NA,NA,NA,NA,NA
cbp6c6g5,NA,NA,cbp6c6g5,2020-0188,2021-10-05,11:37:11,13:49:02,NA,incomplete,false,true,NA,2,29,building,i_c_009.jpg,right,skyscraper,cottage,NA,NA,NA,left,1164,false,NA,NA,NA,NA,NA
cbp6c6g5,NA,NA,cbp6c6g5,2020-0188,2021-10-05,11:37:11,13:49:02,NA,incomplete,false,NA,true,2,0,NA,NA,right,NA,NA,i_c_009.jpg,o_c_009.jpg,within,NA,NaN,NA,left,1865,0,1,1377
cbp6c6g5,NA,NA,cbp6c6g5,2020-0188,2021-10-05,11:37:11,13:49:02,NA,incomplete,false,NA,true,2,1,NA,NA,right,NA,NA,m_l_028.jpg,m_s_001.jpg,between-small,NA,NaN,NA,left,2523,0,1,849
cbp6c6g5,NA,NA,cbp6c6g5,2020-0188,2021-10-05,11:37:11,13:49:02,NA,incomplete,false,NA,true,2,2,NA,NA,left,NA,NA,a_2_025.jpg,c_2_003.jpg,within,NA,NaN,NA,left,744,1,0,1198
cbp6c6g5,NA,NA,cbp6c6g5,2020-0188,2021-10-05,11:37:11,13:49:02,NA,incomplete,false,NA,true,2,3,NA,NA,right,NA,NA,c_1_027.jpg,a_2_003.jpg,between-small,NA,NaN,NA,right,2346,1,1,784
cbp6c6g5,NA,NA,cbp6c6g5,2020-0188,2021-10-05,11:37:11,13:49:02,NA,incomplete,false,NA,true,2,4,NA,NA,right,NA,NA,m_l_008.jpg,c_1_027.jpg,between-big,NA,NaN,NA,right,1606,1,2,1177
cbp6c6g5,NA,NA,cbp6c6g5,2020-0188,2021-10-05,11:37:11,13:49:02,NA,incomplete,false,NA,true,2,5,NA,NA,left,NA,NA,n_l_016.jpg,n_s_027.jpg,within,NA,NaN,NA,left,1326,1,0,1521
cbp6c6g5,NA,NA,cbp6c6g5,2020-0188,2021-10-05,11:37:11,13:49:02,NA,incomplete,false,NA,true,2,6,NA,NA,right,NA,NA,c_1_023.jpg,a_2_026.jpg,within,NA,NaN,NA,left,1085,0,1,1429.0000000002328
cbp6c6g5,NA,NA,cbp6c6g5,2020-0188,2021-10-05,11:37:11,13:49:02,NA,incomplete,false,NA,true,2,7,NA,NA,left,NA,NA,i_s_002.jpg,i_c_027.jpg,within,NA,NaN,NA,right,1617.0000000002328,0,1,1053.0000000002328
cbp6c6g5,NA,NA,cbp6c6g5,2020-0188,2021-10-05,11:37:11,13:49:02,NA,incomplete,false,NA,true,2,8,NA,NA,right,NA,NA,m_s_026.jpg,c_2_003.jpg,between-big,NA,NaN,NA,left,6950.999999999767,0,1,45971
cbp6c6g5,NA,NA,cbp6c6g5,2020-0188,2021-10-05,11:37:11,13:49:02,NA,incomplete,false,NA,true,2,9,NA,NA,left,NA,NA,a_1_010.jpg,a_2_003.jpg,within,NA,NaN,NA,left,1263,1,1,1033
cbp6c6g5,NA,NA,cbp6c6g5,2020-0188,2021-10-05,11:37:11,13:49:02,NA,incomplete,false,NA,true,2,10,NA,NA,right,NA,NA,i_s_023.jpg,o_c_021.jpg,within,NA,NaN,NA,right,37917,1,1,3464
cbp6c6g5,NA,NA,cbp6c6g5,2020-0188,2021-10-05,11:37:11,13:49:02,NA,incomplete,false,NA,true,2,11,NA,NA,left,NA,NA,o_c_016.jpg,o_c_021.jpg,between-small,NA,NaN,NA,left,959,1,1,1552.9999999997672
cbp6c6g5,NA,NA,cbp6c6g5,2020-0188,2021-10-05,11:37:11,13:49:02,NA,incomplete,false,NA,true,2,12,NA,NA,left,NA,NA,i_s_021.jpg,o_s_012.jpg,within,NA,NaN,NA,left,2294.999999999767,1,1,944
cbp6c6g5,NA,NA,cbp6c6g5,2020-0188,2021-10-05,11:37:11,13:49:02,NA,incomplete,false,NA,true,2,13,NA,NA,right,NA,NA,n_l_016.jpg,n_s_006.jpg,between-small,NA,NaN,NA,right,3744.000000000233,1,1,1418
cbp6c6g5,NA,NA,cbp6c6g5,2020-0188,2021-10-05,11:37:11,13:49:02,NA,incomplete,false,NA,true,2,14,NA,NA,left,NA,NA,c_1_023.jpg,n_s_006.jpg,between-big,NA,NaN,NA,left,673,1,1,961
cbp6c6g5,NA,NA,cbp6c6g5,2020-0188,2021-10-05,11:37:11,13:49:02,NA,incomplete,false,NA,true,2,15,NA,NA,left,NA,NA,m_l_016.jpg,m_l_019.jpg,between-small,NA,NaN,NA,left,32676.999999999767,1,1,1154
cbp6c6g5,NA,NA,cbp6c6g5,2020-0188,2021-10-05,11:37:11,13:49:02,NA,incomplete,false,NA,true,2,16,NA,NA,left,NA,NA,o_s_012.jpg,o_c_009.jpg,between-small,NA,NaN,NA,right,2446,0,2,1261
cbp6c6g5,NA,NA,cbp6c6g5,2020-0188,2021-10-05,11:37:11,13:49:02,NA,incomplete,false,NA,true,2,17,NA,NA,left,NA,NA,i_c_027.jpg,o_s_011.jpg,between-small,NA,NaN,NA,left,640,1,1,1233
cbp6c6g5,NA,NA,cbp6c6g5,2020-0188,2021-10-05,11:37:11,13:49:02,NA,incomplete,false,NA,true,2,18,NA,NA,right,NA,NA,i_s_021.jpg,m_l_019.jpg,between-big,NA,NaN,NA,left,1833,0,1,1261
cbp6c6g5,NA,NA,cbp6c6g5,2020-0188,2021-10-05,11:37:11,13:49:02,NA,incomplete,false,NA,true,2,19,NA,NA,left,NA,NA,n_s_027.jpg,i_s_002.jpg,between-big,NA,NaN,NA,left,640,1,1,2811
cbp6c6g5,NA,NA,cbp6c6g5,2020-0188,2021-10-05,11:37:11,13:49:02,NA,incomplete,false,NA,true,2,20,NA,NA,left,NA,NA,m_l_008.jpg,m_s_001.jpg,within,NA,NaN,NA,left,3752,1,1,1057
cbp6c6g5,NA,NA,cbp6c6g5,2020-0188,2021-10-05,11:37:11,13:49:02,NA,incomplete,false,NA,true,2,21,NA,NA,right,NA,NA,a_2_025.jpg,a_2_014.jpg,between-small,NA,NaN,NA,right,107658,1,1,1477.0000000002328
cbp6c6g5,NA,NA,cbp6c6g5,2020-0188,2021-10-05,11:37:11,13:49:02,NA,incomplete,false,NA,true,2,22,NA,NA,right,NA,NA,m_s_022.jpg,m_l_028.jpg,within,NA,NaN,NA,left,1241,0,1,1033
cbp6c6g5,NA,NA,cbp6c6g5,2020-0188,2021-10-05,11:37:11,13:49:02,NA,incomplete,false,NA,true,2,23,NA,NA,left,NA,NA,m_s_022.jpg,o_c_016.jpg,between-big,NA,NaN,NA,right,1385,0,1,1441
cbp6c6g5,NA,NA,cbp6c6g5,2020-0188,2021-10-05,11:37:11,13:49:02,NA,incomplete,false,NA,true,2,24,NA,NA,right,NA,NA,c_1_006.jpg,c_2_021.jpg,within,NA,NaN,NA,left,928,0,1,1810
cbp6c6g5,NA,NA,cbp6c6g5,2020-0188,2021-10-05,11:37:11,13:49:02,NA,incomplete,false,NA,true,2,25,NA,NA,right,NA,NA,a_2_026.jpg,c_1_006.jpg,between-small,NA,NaN,NA,right,4135.999999999767,1,1,1017
cbp6c6g5,NA,NA,cbp6c6g5,2020-0188,2021-10-05,11:37:11,13:49:02,NA,incomplete,false,NA,true,2,26,NA,NA,left,NA,NA,m_s_026.jpg,m_l_016.jpg,within,NA,NaN,NA,left,1104.9999999997672,1,1,1229
cbp6c6g5,NA,NA,cbp6c6g5,2020-0188,2021-10-05,11:37:11,13:49:02,NA,incomplete,false,true,NA,3,0,location,i_s_014.jpg,right,outdoor,indoor,NA,NA,NA,right,2284.00000000023,true,NA,NA,NA,NA,NA
cbp6c6g5,NA,NA,cbp6c6g5,2020-0188,2021-10-05,11:37:11,13:49:02,NA,incomplete,false,true,NA,3,1,location,i_c_014.jpg,right,outdoor,indoor,NA,NA,NA,right,963.000000000233,true,NA,NA,NA,NA,NA
cbp6c6g5,NA,NA,cbp6c6g5,2020-0188,2021-10-05,11:37:11,13:49:02,NA,incomplete,false,true,NA,3,2,location,o_c_011.jpg,right,indoor,outdoor,NA,NA,NA,right,1710,true,NA,NA,NA,NA,NA
cbp6c6g5,NA,NA,cbp6c6g5,2020-0188,2021-10-05,11:37:11,13:49:02,NA,incomplete,false,true,NA,3,3,location,o_c_006.jpg,right,indoor,outdoor,NA,NA,NA,right,2900.00000000023,true,NA,NA,NA,NA,NA
cbp6c6g5,NA,NA,cbp6c6g5,2020-0188,2021-10-05,11:37:11,13:49:02,NA,incomplete,false,true,NA,3,4,location,o_s_007.jpg,right,indoor,outdoor,NA,NA,NA,right,1481,true,NA,NA,NA,NA,NA
cbp6c6g5,NA,NA,cbp6c6g5,2020-0188,2021-10-05,11:37:11,13:49:02,NA,incomplete,false,true,NA,3,5,building,i_s_017.jpg,left,skyscraper,cottage,NA,NA,NA,left,1065,true,NA,NA,NA,NA,NA
cbp6c6g5,NA,NA,cbp6c6g5,2020-0188,2021-10-05,11:37:11,13:49:02,NA,incomplete,false,true,NA,3,6,building,i_s_004.jpg,left,skyscraper,cottage,NA,NA,NA,left,1360,true,NA,NA,NA,NA,NA
cbp6c6g5,NA,NA,cbp6c6g5,2020-0188,2021-10-05,11:37:11,13:49:02,NA,incomplete,false,true,NA,3,7,building,i_c_010.jpg,right,skyscraper,cottage,NA,NA,NA,right,1070,true,NA,NA,NA,NA,NA
cbp6c6g5,NA,NA,cbp6c6g5,2020-0188,2021-10-05,11:37:11,13:49:02,NA,incomplete,false,true,NA,3,8,building,o_c_017.jpg,left,cottage,skyscraper,NA,NA,NA,left,2252,true,NA,NA,NA,NA,NA
cbp6c6g5,NA,NA,cbp6c6g5,2020-0188,2021-10-05,11:37:11,13:49:02,NA,incomplete,false,true,NA,3,9,building,i_c_004.jpg,right,skyscraper,cottage,NA,NA,NA,right,2644,true,NA,NA,NA,NA,NA
cbp6c6g5,NA,NA,cbp6c6g5,2020-0188,2021-10-05,11:37:11,13:49:02,NA,incomplete,false,true,NA,3,10,origin,n_s_028.jpg,right,manmade,natural,NA,NA,NA,left,1566,false,NA,NA,NA,NA,NA
cbp6c6g5,NA,NA,cbp6c6g5,2020-0188,2021-10-05,11:37:11,13:49:02,NA,incomplete,false,true,NA,3,11,origin,m_l_024.jpg,right,natural,manmade,NA,NA,NA,right,1294,true,NA,NA,NA,NA,NA
cbp6c6g5,NA,NA,cbp6c6g5,2020-0188,2021-10-05,11:37:11,13:49:02,NA,incomplete,false,true,NA,3,12,origin,n_s_012.jpg,left,natural,manmade,NA,NA,NA,left,1623,true,NA,NA,NA,NA,NA
cbp6c6g5,NA,NA,cbp6c6g5,2020-0188,2021-10-05,11:37:11,13:49:02,NA,incomplete,false,true,NA,3,13,origin,m_s_010.jpg,left,manmade,natural,NA,NA,NA,left,1084,true,NA,NA,NA,NA,NA
cbp6c6g5,NA,NA,cbp6c6g5,2020-0188,2021-10-05,11:37:11,13:49:02,NA,incomplete,false,true,NA,3,14,origin,m_s_014.jpg,right,natural,manmade,NA,NA,NA,right,1484,true,NA,NA,NA,NA,NA
cbp6c6g5,NA,NA,cbp6c6g5,2020-0188,2021-10-05,11:37:11,13:49:02,NA,incomplete,false,true,NA,3,15,size,n_s_023.jpg,right,large,small,NA,NA,NA,right,1422,true,NA,NA,NA,NA,NA
cbp6c6g5,NA,NA,cbp6c6g5,2020-0188,2021-10-05,11:37:11,13:49:02,NA,incomplete,false,true,NA,3,16,size,n_s_010.jpg,right,large,small,NA,NA,NA,right,1366,true,NA,NA,NA,NA,NA
cbp6c6g5,NA,NA,cbp6c6g5,2020-0188,2021-10-05,11:37:11,13:49:02,NA,incomplete,false,true,NA,3,17,size,n_s_018.jpg,left,small,large,NA,NA,NA,left,1756,true,NA,NA,NA,NA,NA
cbp6c6g5,NA,NA,cbp6c6g5,2020-0188,2021-10-05,11:37:11,13:49:02,NA,incomplete,false,true,NA,3,18,size,n_s_011.jpg,left,small,large,NA,NA,NA,left,946,true,NA,NA,NA,NA,NA
cbp6c6g5,NA,NA,cbp6c6g5,2020-0188,2021-10-05,11:37:11,13:49:02,NA,incomplete,false,true,NA,3,19,size,n_l_026.jpg,left,large,small,NA,NA,NA,right,1961,false,NA,NA,NA,NA,NA
cbp6c6g5,NA,NA,cbp6c6g5,2020-0188,2021-10-05,11:37:11,13:49:02,NA,incomplete,false,true,NA,3,20,syllable,a_2_005.jpg,right,1 syllable,2 syllables,NA,NA,NA,right,1593,true,NA,NA,NA,NA,NA
cbp6c6g5,NA,NA,cbp6c6g5,2020-0188,2021-10-05,11:37:11,13:49:02,NA,incomplete,false,true,NA,3,21,syllable,c_2_018.jpg,right,2 syllables,1 syllable,NA,NA,NA,left,1100,false,NA,NA,NA,NA,NA
cbp6c6g5,NA,NA,cbp6c6g5,2020-0188,2021-10-05,11:37:11,13:49:02,NA,incomplete,false,true,NA,3,22,syllable,a_1_014.jpg,right,2 syllables,1 syllable,NA,NA,NA,right,905,true,NA,NA,NA,NA,NA
cbp6c6g5,NA,NA,cbp6c6g5,2020-0188,2021-10-05,11:37:11,13:49:02,NA,incomplete,false,true,NA,3,23,syllable,a_1_011.jpg,right,2 syllables,1 syllable,NA,NA,NA,right,1538,true,NA,NA,NA,NA,NA
cbp6c6g5,NA,NA,cbp6c6g5,2020-0188,2021-10-05,11:37:11,13:49:02,NA,incomplete,false,true,NA,3,24,syllable,c_2_011.jpg,right,2 syllables,1 syllable,NA,NA,NA,left,833,false,NA,NA,NA,NA,NA
cbp6c6g5,NA,NA,cbp6c6g5,2020-0188,2021-10-05,11:37:11,13:49:02,NA,incomplete,false,true,NA,3,25,abstractness,a_1_020.jpg,right,concrete,abstract,NA,NA,NA,right,2091,true,NA,NA,NA,NA,NA
cbp6c6g5,NA,NA,cbp6c6g5,2020-0188,2021-10-05,11:37:11,13:49:02,NA,incomplete,false,true,NA,3,26,abstractness,c_1_002.jpg,right,abstract,concrete,NA,NA,NA,right,2171,true,NA,NA,NA,NA,NA
cbp6c6g5,NA,NA,cbp6c6g5,2020-0188,2021-10-05,11:37:11,13:49:02,NA,incomplete,false,true,NA,3,27,abstractness,a_1_015.jpg,right,concrete,abstract,NA,NA,NA,left,2143,false,NA,NA,NA,NA,NA
cbp6c6g5,NA,NA,cbp6c6g5,2020-0188,2021-10-05,11:37:11,13:49:02,NA,incomplete,false,true,NA,3,28,abstractness,c_1_007.jpg,left,concrete,abstract,NA,NA,NA,left,1050,true,NA,NA,NA,NA,NA
cbp6c6g5,NA,NA,cbp6c6g5,2020-0188,2021-10-05,11:37:11,13:49:02,NA,incomplete,false,true,NA,3,29,abstractness,c_1_020.jpg,right,abstract,concrete,NA,NA,NA,right,1639,true,NA,NA,NA,NA,NA
cbp6c6g5,NA,NA,cbp6c6g5,2020-0188,2021-10-05,11:37:11,13:49:02,NA,incomplete,false,NA,true,3,0,NA,NA,right,NA,NA,n_s_010.jpg,m_s_010.jpg,between-small,NA,NaN,NA,right,3095,1,1,1262
cbp6c6g5,NA,NA,cbp6c6g5,2020-0188,2021-10-05,11:37:11,13:49:02,NA,incomplete,false,NA,true,3,1,NA,NA,left,NA,NA,i_s_017.jpg,o_c_017.jpg,within,NA,NaN,NA,right,2731,0,1,1265
cbp6c6g5,NA,NA,cbp6c6g5,2020-0188,2021-10-05,11:37:11,13:49:02,NA,incomplete,false,NA,true,3,2,NA,NA,left,NA,NA,m_l_024.jpg,m_s_014.jpg,within,NA,NaN,NA,right,10192,0,1,1489
cbp6c6g5,NA,NA,cbp6c6g5,2020-0188,2021-10-05,11:37:11,13:49:02,NA,incomplete,false,NA,true,3,3,NA,NA,right,NA,NA,a_2_005.jpg,n_s_018.jpg,between-big,NA,NaN,NA,right,1246,1,1,3176
cbp6c6g5,NA,NA,cbp6c6g5,2020-0188,2021-10-05,11:37:11,13:49:02,NA,incomplete,false,NA,true,3,4,NA,NA,right,NA,NA,c_1_002.jpg,a_1_011.jpg,between-small,NA,NaN,NA,left,1108,0,1,2923
cbp6c6g5,NA,NA,cbp6c6g5,2020-0188,2021-10-05,11:37:11,13:49:02,NA,incomplete,false,NA,true,3,5,NA,NA,left,NA,NA,o_c_017.jpg,m_l_024.jpg,between-big,NA,NaN,NA,left,705,1,1,1457
cbp6c6g5,NA,NA,cbp6c6g5,2020-0188,2021-10-05,11:37:11,13:49:02,NA,incomplete,false,NA,true,3,6,NA,NA,right,NA,NA,a_1_015.jpg,c_2_011.jpg,between-small,NA,NaN,NA,left,920,0,1,2423
cbp6c6g5,NA,NA,cbp6c6g5,2020-0188,2021-10-05,11:37:11,13:49:02,NA,incomplete,false,NA,true,3,7,NA,NA,left,NA,NA,i_c_010.jpg,n_s_028.jpg,between-big,NA,NaN,NA,left,3455,1,1,1690
cbp6c6g5,NA,NA,cbp6c6g5,2020-0188,2021-10-05,11:37:11,13:49:02,NA,incomplete,false,NA,true,3,8,NA,NA,left,NA,NA,n_s_028.jpg,m_s_010.jpg,within,NA,NaN,NA,right,1056,0,1,3151
cbp6c6g5,NA,NA,cbp6c6g5,2020-0188,2021-10-05,11:37:11,13:49:02,NA,incomplete,false,NA,true,3,9,NA,NA,left,NA,NA,n_s_011.jpg,c_2_018.jpg,between-big,NA,NaN,NA,right,2351,0,2,1097
cbp6c6g5,NA,NA,cbp6c6g5,2020-0188,2021-10-05,11:37:11,13:49:02,NA,incomplete,false,NA,true,3,10,NA,NA,left,NA,NA,o_c_011.jpg,i_s_017.jpg,between-small,NA,NaN,NA,left,4216,1,1,2314
cbp6c6g5,NA,NA,cbp6c6g5,2020-0188,2021-10-05,11:37:11,13:49:02,NA,incomplete,false,NA,true,3,11,NA,NA,left,NA,NA,a_2_005.jpg,a_1_011.jpg,within,NA,NaN,NA,right,4850,0,2,1361
cbp6c6g5,NA,NA,cbp6c6g5,2020-0188,2021-10-05,11:37:11,13:49:02,NA,incomplete,false,NA,true,3,12,NA,NA,right,NA,NA,a_1_020.jpg,a_1_014.jpg,between-small,NA,NaN,NA,left,1121,0,1,2935
cbp6c6g5,NA,NA,cbp6c6g5,2020-0188,2021-10-05,11:37:11,13:49:02,NA,incomplete,false,NA,true,3,13,NA,NA,right,NA,NA,i_c_010.jpg,o_s_007.jpg,between-small,NA,NaN,NA,left,1434,0,1,1068
cbp6c6g5,NA,NA,cbp6c6g5,2020-0188,2021-10-05,11:37:11,13:49:02,NA,incomplete,false,NA,true,3,14,NA,NA,right,NA,NA,n_l_026.jpg,n_s_010.jpg,within,NA,NaN,NA,right,9472,1,1,2746.0000000004657
cbp6c6g5,NA,NA,cbp6c6g5,2020-0188,2021-10-05,11:37:11,13:49:02,NA,incomplete,false,NA,true,3,15,NA,NA,right,NA,NA,n_s_012.jpg,i_c_004.jpg,between-big,NA,NaN,NA,right,2875,1,2,3729
cbp6c6g5,NA,NA,cbp6c6g5,2020-0188,2021-10-05,11:37:11,13:49:02,NA,incomplete,false,NA,true,3,16,NA,NA,left,NA,NA,i_s_004.jpg,i_c_004.jpg,within,NA,NaN,NA,right,4809,0,1,1025
cbp6c6g5,NA,NA,cbp6c6g5,2020-0188,2021-10-05,11:37:11,13:49:02,NA,incomplete,false,NA,true,3,17,NA,NA,right,NA,NA,n_s_018.jpg,m_s_014.jpg,between-small,NA,NaN,NA,right,6675,1,2,1262
cbp6c6g5,NA,NA,cbp6c6g5,2020-0188,2021-10-05,11:37:11,13:49:02,NA,incomplete,false,NA,true,3,18,NA,NA,right,NA,NA,o_s_007.jpg,i_c_014.jpg,within,NA,NaN,NA,right,8965,1,1,2374
cbp6c6g5,NA,NA,cbp6c6g5,2020-0188,2021-10-05,11:37:11,13:49:02,NA,incomplete,false,NA,true,3,19,NA,NA,left,NA,NA,a_1_020.jpg,c_1_007.jpg,within,NA,NaN,NA,left,28652.999999999534,1,1,1397
cbp6c6g5,NA,NA,cbp6c6g5,2020-0188,2021-10-05,11:37:11,13:49:02,NA,incomplete,false,NA,true,3,20,NA,NA,left,NA,NA,o_c_006.jpg,i_s_004.jpg,between-small,NA,NaN,NA,right,2646,0,1,1514
cbp6c6g5,NA,NA,cbp6c6g5,2020-0188,2021-10-05,11:37:11,13:49:02,NA,incomplete,false,NA,true,3,21,NA,NA,right,NA,NA,c_1_020.jpg,c_1_002.jpg,within,NA,NaN,NA,left,885.0000000004657,0,1,2457.9999999995343
cbp6c6g5,NA,NA,cbp6c6g5,2020-0188,2021-10-05,11:37:11,13:49:02,NA,incomplete,false,NA,true,3,22,NA,NA,left,NA,NA,i_s_014.jpg,o_c_006.jpg,within,NA,NaN,NA,left,905,1,1,1258
cbp6c6g5,NA,NA,cbp6c6g5,2020-0188,2021-10-05,11:37:11,13:49:02,NA,incomplete,false,NA,true,3,23,NA,NA,right,NA,NA,c_2_011.jpg,c_2_018.jpg,within,NA,NaN,NA,left,864,0,1,2382
cbp6c6g5,NA,NA,cbp6c6g5,2020-0188,2021-10-05,11:37:11,13:49:02,NA,incomplete,false,NA,true,3,24,NA,NA,right,NA,NA,n_s_011.jpg,n_s_023.jpg,within,NA,NaN,NA,right,2902,1,1,1050
cbp6c6g5,NA,NA,cbp6c6g5,2020-0188,2021-10-05,11:37:11,13:49:02,NA,incomplete,false,NA,true,3,25,NA,NA,right,NA,NA,n_s_023.jpg,n_s_012.jpg,between-small,NA,NaN,NA,left,1165,0,1,1978
cbp6c6g5,NA,NA,cbp6c6g5,2020-0188,2021-10-05,11:37:11,13:49:02,NA,incomplete,false,NA,true,3,26,NA,NA,right,NA,NA,a_1_014.jpg,n_l_026.jpg,between-big,NA,NaN,NA,left,2927,0,2,1526
cbp6c6g5,NA,NA,cbp6c6g5,2020-0188,2021-10-05,11:37:11,13:49:02,NA,incomplete,false,true,NA,4,0,size,n_l_003.jpg,right,small,large,NA,NA,NA,left,1814.00000000047,false,NA,NA,NA,NA,NA
cbp6c6g5,NA,NA,cbp6c6g5,2020-0188,2021-10-05,11:37:11,13:49:02,NA,incomplete,false,true,NA,4,1,size,m_l_014.jpg,left,large,small,NA,NA,NA,left,1965,true,NA,NA,NA,NA,NA
cbp6c6g5,NA,NA,cbp6c6g5,2020-0188,2021-10-05,11:37:11,13:49:02,NA,incomplete,false,true,NA,4,2,size,m_l_021.jpg,right,small,large,NA,NA,NA,left,1313.99999999953,false,NA,NA,NA,NA,NA
cbp6c6g5,NA,NA,cbp6c6g5,2020-0188,2021-10-05,11:37:11,13:49:02,NA,incomplete,false,true,NA,4,3,size,n_s_003.jpg,left,small,large,NA,NA,NA,left,896,true,NA,NA,NA,NA,NA
cbp6c6g5,NA,NA,cbp6c6g5,2020-0188,2021-10-05,11:37:11,13:49:02,NA,incomplete,false,true,NA,4,4,size,m_s_023.jpg,left,small,large,NA,NA,NA,left,1122,true,NA,NA,NA,NA,NA
cbp6c6g5,NA,NA,cbp6c6g5,2020-0188,2021-10-05,11:37:11,13:49:02,NA,incomplete,false,true,NA,4,5,origin,n_s_005.jpg,left,natural,manmade,NA,NA,NA,left,1794.00000000047,true,NA,NA,NA,NA,NA
cbp6c6g5,NA,NA,cbp6c6g5,2020-0188,2021-10-05,11:37:11,13:49:02,NA,incomplete,false,true,NA,4,6,origin,m_s_008.jpg,left,manmade,natural,NA,NA,NA,left,1559,true,NA,NA,NA,NA,NA
cbp6c6g5,NA,NA,cbp6c6g5,2020-0188,2021-10-05,11:37:11,13:49:02,NA,incomplete,false,true,NA,4,7,origin,n_l_001.jpg,right,manmade,natural,NA,NA,NA,right,1183.99999999953,true,NA,NA,NA,NA,NA
cbp6c6g5,NA,NA,cbp6c6g5,2020-0188,2021-10-05,11:37:11,13:49:02,NA,incomplete,false,true,NA,4,8,origin,m_l_027.jpg,right,natural,manmade,NA,NA,NA,right,1397,true,NA,NA,NA,NA,NA
cbp6c6g5,NA,NA,cbp6c6g5,2020-0188,2021-10-05,11:37:11,13:49:02,NA,incomplete,false,true,NA,4,9,origin,m_s_012.jpg,left,manmade,natural,NA,NA,NA,left,1588,true,NA,NA,NA,NA,NA
cbp6c6g5,NA,NA,cbp6c6g5,2020-0188,2021-10-05,11:37:11,13:49:02,NA,incomplete,false,true,NA,4,10,abstractness,c_2_014.jpg,right,abstract,concrete,NA,NA,NA,right,1633,true,NA,NA,NA,NA,NA
cbp6c6g5,NA,NA,cbp6c6g5,2020-0188,2021-10-05,11:37:11,13:49:02,NA,incomplete,false,true,NA,4,11,abstractness,a_1_025.jpg,right,concrete,abstract,NA,NA,NA,left,1200,false,NA,NA,NA,NA,NA
cbp6c6g5,NA,NA,cbp6c6g5,2020-0188,2021-10-05,11:37:11,13:49:02,NA,incomplete,false,true,NA,4,12,abstractness,c_2_019.jpg,right,abstract,concrete,NA,NA,NA,right,1400,true,NA,NA,NA,NA,NA
cbp6c6g5,NA,NA,cbp6c6g5,2020-0188,2021-10-05,11:37:11,13:49:02,NA,incomplete,false,true,NA,4,13,abstractness,a_2_012.jpg,left,abstract,concrete,NA,NA,NA,left,1299,true,NA,NA,NA,NA,NA
cbp6c6g5,NA,NA,cbp6c6g5,2020-0188,2021-10-05,11:37:11,13:49:02,NA,incomplete,false,true,NA,4,14,abstractness,c_2_024.jpg,left,concrete,abstract,NA,NA,NA,left,1855,true,NA,NA,NA,NA,NA
cbp6c6g5,NA,NA,cbp6c6g5,2020-0188,2021-10-05,11:37:11,13:49:02,NA,incomplete,false,true,NA,4,15,syllable,a_2_008.jpg,right,2 syllables,1 syllable,NA,NA,NA,left,1443,false,NA,NA,NA,NA,NA
cbp6c6g5,NA,NA,cbp6c6g5,2020-0188,2021-10-05,11:37:11,13:49:02,NA,incomplete,false,true,NA,4,16,syllable,a_1_008.jpg,right,2 syllables,1 syllable,NA,NA,NA,left,1669.00000000047,false,NA,NA,NA,NA,NA
cbp6c6g5,NA,NA,cbp6c6g5,2020-0188,2021-10-05,11:37:11,13:49:02,NA,incomplete,false,true,NA,4,17,syllable,a_2_028.jpg,right,1 syllable,2 syllables,NA,NA,NA,right,1110,true,NA,NA,NA,NA,NA
cbp6c6g5,NA,NA,cbp6c6g5,2020-0188,2021-10-05,11:37:11,13:49:02,NA,incomplete,false,true,NA,4,18,syllable,a_2_022.jpg,right,2 syllables,1 syllable,NA,NA,NA,left,1159.99999999953,false,NA,NA,NA,NA,NA
cbp6c6g5,NA,NA,cbp6c6g5,2020-0188,2021-10-05,11:37:11,13:49:02,NA,incomplete,false,true,NA,4,19,syllable,c_1_016.jpg,right,1 syllable,2 syllables,NA,NA,NA,left,1736,false,NA,NA,NA,NA,NA
cbp6c6g5,NA,NA,cbp6c6g5,2020-0188,2021-10-05,11:37:11,13:49:02,NA,incomplete,false,true,NA,4,20,location,o_c_008.jpg,left,outdoor,indoor,NA,NA,NA,left,2109,true,NA,NA,NA,NA,NA
cbp6c6g5,NA,NA,cbp6c6g5,2020-0188,2021-10-05,11:37:11,13:49:02,NA,incomplete,false,true,NA,4,21,location,i_s_001.jpg,left,indoor,outdoor,NA,NA,NA,left,2241,true,NA,NA,NA,NA,NA
cbp6c6g5,NA,NA,cbp6c6g5,2020-0188,2021-10-05,11:37:11,13:49:02,NA,incomplete,false,true,NA,4,22,location,o_s_026.jpg,right,indoor,outdoor,NA,NA,NA,right,1934,true,NA,NA,NA,NA,NA
cbp6c6g5,NA,NA,cbp6c6g5,2020-0188,2021-10-05,11:37:11,13:49:02,NA,incomplete,false,true,NA,4,23,location,i_c_018.jpg,left,indoor,outdoor,NA,NA,NA,left,1590,true,NA,NA,NA,NA,NA
cbp6c6g5,NA,NA,cbp6c6g5,2020-0188,2021-10-05,11:37:11,13:49:02,NA,incomplete,false,true,NA,4,24,location,i_c_024.jpg,right,outdoor,indoor,NA,NA,NA,right,1301.00000000047,true,NA,NA,NA,NA,NA
cbp6c6g5,NA,NA,cbp6c6g5,2020-0188,2021-10-05,11:37:11,13:49:02,NA,incomplete,false,true,NA,4,25,building,i_c_007.jpg,left,cottage,skyscraper,NA,NA,NA,left,1272,true,NA,NA,NA,NA,NA
cbp6c6g5,NA,NA,cbp6c6g5,2020-0188,2021-10-05,11:37:11,13:49:02,NA,incomplete,false,true,NA,4,26,building,i_c_015.jpg,right,skyscraper,cottage,NA,NA,NA,right,2295,true,NA,NA,NA,NA,NA
cbp6c6g5,NA,NA,cbp6c6g5,2020-0188,2021-10-05,11:37:11,13:49:02,NA,incomplete,false,true,NA,4,27,building,o_c_024.jpg,right,skyscraper,cottage,NA,NA,NA,left,1341,false,NA,NA,NA,NA,NA
cbp6c6g5,NA,NA,cbp6c6g5,2020-0188,2021-10-05,11:37:11,13:49:02,NA,incomplete,false,true,NA,4,28,building,i_c_012.jpg,left,cottage,skyscraper,NA,NA,NA,left,1022,true,NA,NA,NA,NA,NA
cbp6c6g5,NA,NA,cbp6c6g5,2020-0188,2021-10-05,11:37:11,13:49:02,NA,incomplete,false,true,NA,4,29,building,i_s_019.jpg,left,skyscraper,cottage,NA,NA,NA,left,1040,true,NA,NA,NA,NA,NA
cbp6c6g5,NA,NA,cbp6c6g5,2020-0188,2021-10-05,11:37:11,13:49:02,NA,incomplete,false,NA,true,4,0,NA,NA,left,NA,NA,i_c_018.jpg,i_c_015.jpg,between-small,NA,NaN,NA,right,4459,0,1,2747.9999999995343
cbp6c6g5,NA,NA,cbp6c6g5,2020-0188,2021-10-05,11:37:11,13:49:02,NA,incomplete,false,NA,true,4,1,NA,NA,right,NA,NA,i_s_019.jpg,i_c_015.jpg,within,NA,NaN,NA,right,1502,1,1,1066
cbp6c6g5,NA,NA,cbp6c6g5,2020-0188,2021-10-05,11:37:11,13:49:02,NA,incomplete,false,NA,true,4,2,NA,NA,left,NA,NA,a_2_008.jpg,a_2_022.jpg,within,NA,NaN,NA,left,653,1,1,873
cbp6c6g5,NA,NA,cbp6c6g5,2020-0188,2021-10-05,11:37:11,13:49:02,NA,incomplete,false,NA,true,4,3,NA,NA,left,NA,NA,a_1_008.jpg,c_1_016.jpg,within,NA,NaN,NA,right,551,0,1,865
cbp6c6g5,NA,NA,cbp6c6g5,2020-0188,2021-10-05,11:37:11,13:49:02,NA,incomplete,false,NA,true,4,4,NA,NA,right,NA,NA,m_s_012.jpg,m_s_008.jpg,within,NA,NaN,NA,left,777,0,1,828
cbp6c6g5,NA,NA,cbp6c6g5,2020-0188,2021-10-05,11:37:11,13:49:02,NA,incomplete,false,NA,true,4,5,NA,NA,right,NA,NA,i_c_018.jpg,o_c_008.jpg,within,NA,NaN,NA,left,657,0,1,1286
cbp6c6g5,NA,NA,cbp6c6g5,2020-0188,2021-10-05,11:37:11,13:49:02,NA,incomplete,false,NA,true,4,6,NA,NA,right,NA,NA,a_1_025.jpg,m_l_027.jpg,between-big,NA,NaN,NA,right,4571,1,1,1018
cbp6c6g5,NA,NA,cbp6c6g5,2020-0188,2021-10-05,11:37:11,13:49:02,NA,incomplete,false,NA,true,4,7,NA,NA,right,NA,NA,i_c_012.jpg,i_c_007.jpg,within,NA,NaN,NA,left,732.9999999995343,0,1,1130
cbp6c6g5,NA,NA,cbp6c6g5,2020-0188,2021-10-05,11:37:11,13:49:02,NA,incomplete,false,NA,true,4,8,NA,NA,right,NA,NA,a_2_028.jpg,c_2_024.jpg,between-small,NA,NaN,NA,left,829,0,1,1041
cbp6c6g5,NA,NA,cbp6c6g5,2020-0188,2021-10-05,11:37:11,13:49:02,NA,incomplete,false,NA,true,4,9,NA,NA,left,NA,NA,c_1_016.jpg,o_s_026.jpg,between-big,NA,NaN,NA,right,885,0,1,2279
cbp6c6g5,NA,NA,cbp6c6g5,2020-0188,2021-10-05,11:37:11,13:49:02,NA,incomplete,false,NA,true,4,10,NA,NA,left,NA,NA,m_l_021.jpg,n_s_005.jpg,between-small,NA,NaN,NA,left,616,1,1,1146
cbp6c6g5,NA,NA,cbp6c6g5,2020-0188,2021-10-05,11:37:11,13:49:02,NA,incomplete,false,NA,true,4,11,NA,NA,left,NA,NA,n_l_003.jpg,n_s_003.jpg,within,NA,NaN,NA,right,2696,0,1,1026
cbp6c6g5,NA,NA,cbp6c6g5,2020-0188,2021-10-05,11:37:11,13:49:02,NA,incomplete,false,NA,true,4,12,NA,NA,left,NA,NA,a_1_025.jpg,c_2_024.jpg,within,NA,NaN,NA,left,548,1,1,1818
cbp6c6g5,NA,NA,cbp6c6g5,2020-0188,2021-10-05,11:37:11,13:49:02,NA,incomplete,false,NA,true,4,13,NA,NA,right,NA,NA,i_s_001.jpg,a_2_022.jpg,between-big,NA,NaN,NA,right,512.9999999995343,1,2,752.9999999995343
cbp6c6g5,NA,NA,cbp6c6g5,2020-0188,2021-10-05,11:37:11,13:49:02,NA,incomplete,false,NA,true,4,14,NA,NA,right,NA,NA,o_c_008.jpg,a_2_028.jpg,between-big,NA,NaN,NA,left,495.99999999953434,0,2,2250.9999999995343
cbp6c6g5,NA,NA,cbp6c6g5,2020-0188,2021-10-05,11:37:11,13:49:02,NA,incomplete,false,NA,true,4,15,NA,NA,left,NA,NA,n_l_001.jpg,c_2_014.jpg,between-big,NA,NaN,NA,right,2103,0,1,1274
cbp6c6g5,NA,NA,cbp6c6g5,2020-0188,2021-10-05,11:37:11,13:49:02,NA,incomplete,false,NA,true,4,16,NA,NA,right,NA,NA,i_c_007.jpg,o_s_026.jpg,between-small,NA,NaN,NA,left,600,0,1,2114.9999999995343
cbp6c6g5,NA,NA,cbp6c6g5,2020-0188,2021-10-05,11:37:11,13:49:02,NA,incomplete,false,NA,true,4,17,NA,NA,right,NA,NA,i_c_024.jpg,i_s_001.jpg,within,NA,NaN,NA,left,583,0,1,873
cbp6c6g5,NA,NA,cbp6c6g5,2020-0188,2021-10-05,11:37:11,13:49:02,NA,incomplete,false,NA,true,4,18,NA,NA,left,NA,NA,m_s_012.jpg,c_2_019.jpg,between-big,NA,NaN,NA,left,648,1,2,2704
cbp6c6g5,NA,NA,cbp6c6g5,2020-0188,2021-10-05,11:37:11,13:49:02,NA,incomplete,false,NA,true,4,19,NA,NA,right,NA,NA,a_2_012.jpg,c_2_014.jpg,within,NA,NaN,NA,left,504,0,1,2715
cbp6c6g5,NA,NA,cbp6c6g5,2020-0188,2021-10-05,11:37:11,13:49:02,NA,incomplete,false,NA,true,4,20,NA,NA,left,NA,NA,n_s_005.jpg,m_l_027.jpg,within,NA,NaN,NA,left,480,1,1,1320
cbp6c6g5,NA,NA,cbp6c6g5,2020-0188,2021-10-05,11:37:11,13:49:02,NA,incomplete,false,NA,true,4,21,NA,NA,right,NA,NA,m_s_023.jpg,m_l_014.jpg,within,NA,NaN,NA,right,542.9999999995343,1,1,1698
cbp6c6g5,NA,NA,cbp6c6g5,2020-0188,2021-10-05,11:37:11,13:49:02,NA,incomplete,false,NA,true,4,22,NA,NA,right,NA,NA,a_2_008.jpg,c_2_019.jpg,between-small,NA,NaN,NA,left,520,0,1,2777
cbp6c6g5,NA,NA,cbp6c6g5,2020-0188,2021-10-05,11:37:11,13:49:02,NA,incomplete,false,NA,true,4,23,NA,NA,left,NA,NA,i_c_024.jpg,o_c_024.jpg,between-small,NA,NaN,NA,left,512.0000000004657,1,1,1499
cbp6c6g5,NA,NA,cbp6c6g5,2020-0188,2021-10-05,11:37:11,13:49:02,NA,incomplete,false,NA,true,4,24,NA,NA,left,NA,NA,m_s_023.jpg,n_l_001.jpg,between-small,NA,NaN,NA,left,485,1,1,917.0000000004657
cbp6c6g5,NA,NA,cbp6c6g5,2020-0188,2021-10-05,11:37:11,13:49:02,NA,incomplete,false,NA,true,4,25,NA,NA,left,NA,NA,n_s_003.jpg,m_s_008.jpg,between-small,NA,NaN,NA,right,481,0,2,2708
cbp6c6g5,NA,NA,cbp6c6g5,2020-0188,2021-10-05,11:37:11,13:49:02,NA,incomplete,false,NA,true,4,26,NA,NA,right,NA,NA,a_1_008.jpg,a_2_012.jpg,between-small,NA,NaN,NA,left,593.9999999995343,0,1,1417
cbp6c6g5,NA,NA,cbp6c6g5,2020-0188,2021-10-05,11:37:11,13:49:02,NA,incomplete,false,true,NA,5,0,origin,n_l_009.jpg,left,natural,manmade,NA,NA,NA,left,1340,true,NA,NA,NA,NA,NA
cbp6c6g5,NA,NA,cbp6c6g5,2020-0188,2021-10-05,11:37:11,13:49:02,NA,incomplete,false,true,NA,5,1,origin,n_l_010.jpg,right,manmade,natural,NA,NA,NA,right,1192,true,NA,NA,NA,NA,NA
cbp6c6g5,NA,NA,cbp6c6g5,2020-0188,2021-10-05,11:37:11,13:49:02,NA,incomplete,false,true,NA,5,2,origin,n_s_017.jpg,right,manmade,natural,NA,NA,NA,right,1364,true,NA,NA,NA,NA,NA
cbp6c6g5,NA,NA,cbp6c6g5,2020-0188,2021-10-05,11:37:11,13:49:02,NA,incomplete,false,true,NA,5,3,origin,m_s_016.jpg,left,manmade,natural,NA,NA,NA,left,1599.00000000047,true,NA,NA,NA,NA,NA
cbp6c6g5,NA,NA,cbp6c6g5,2020-0188,2021-10-05,11:37:11,13:49:02,NA,incomplete,false,true,NA,5,4,origin,n_s_021.jpg,right,manmade,natural,NA,NA,NA,right,2393.99999999953,true,NA,NA,NA,NA,NA
cbp6c6g5,NA,NA,cbp6c6g5,2020-0188,2021-10-05,11:37:11,13:49:02,NA,incomplete,false,true,NA,5,5,size,n_l_025.jpg,right,small,large,NA,NA,NA,right,1180.00000000047,true,NA,NA,NA,NA,NA
cbp6c6g5,NA,NA,cbp6c6g5,2020-0188,2021-10-05,11:37:11,13:49:02,NA,incomplete,false,true,NA,5,6,size,m_l_026.jpg,right,small,large,NA,NA,NA,right,1599.00000000047,true,NA,NA,NA,NA,NA
cbp6c6g5,NA,NA,cbp6c6g5,2020-0188,2021-10-05,11:37:11,13:49:02,NA,incomplete,false,true,NA,5,7,size,n_l_012.jpg,left,large,small,NA,NA,NA,right,1238.99999999953,false,NA,NA,NA,NA,NA
cbp6c6g5,NA,NA,cbp6c6g5,2020-0188,2021-10-05,11:37:11,13:49:02,NA,incomplete,false,true,NA,5,8,size,m_s_021.jpg,right,large,small,NA,NA,NA,right,1252,true,NA,NA,NA,NA,NA
cbp6c6g5,NA,NA,cbp6c6g5,2020-0188,2021-10-05,11:37:11,13:49:02,NA,incomplete,false,true,NA,5,9,size,m_s_018.jpg,right,large,small,NA,NA,NA,right,1040,true,NA,NA,NA,NA,NA
cbp6c6g5,NA,NA,cbp6c6g5,2020-0188,2021-10-05,11:37:11,13:49:02,NA,incomplete,false,true,NA,5,10,location,o_s_018.jpg,left,outdoor,indoor,NA,NA,NA,left,1696,true,NA,NA,NA,NA,NA
cbp6c6g5,NA,NA,cbp6c6g5,2020-0188,2021-10-05,11:37:11,13:49:02,NA,incomplete,false,true,NA,5,11,location,o_s_025.jpg,right,indoor,outdoor,NA,NA,NA,right,2224,true,NA,NA,NA,NA,NA
cbp6c6g5,NA,NA,cbp6c6g5,2020-0188,2021-10-05,11:37:11,13:49:02,NA,incomplete,false,true,NA,5,12,location,i_s_020.jpg,right,outdoor,indoor,NA,NA,NA,right,1911,true,NA,NA,NA,NA,NA
cbp6c6g5,NA,NA,cbp6c6g5,2020-0188,2021-10-05,11:37:11,13:49:02,NA,incomplete,false,true,NA,5,13,location,o_s_022.jpg,left,outdoor,indoor,NA,NA,NA,left,1842,true,NA,NA,NA,NA,NA
cbp6c6g5,NA,NA,cbp6c6g5,2020-0188,2021-10-05,11:37:11,13:49:02,NA,incomplete,false,true,NA,5,14,location,o_s_013.jpg,left,outdoor,indoor,NA,NA,NA,left,1320,true,NA,NA,NA,NA,NA
cbp6c6g5,NA,NA,cbp6c6g5,2020-0188,2021-10-05,11:37:11,13:49:02,NA,incomplete,false,true,NA,5,15,building,i_s_016.jpg,left,skyscraper,cottage,NA,NA,NA,left,2104.00000000047,true,NA,NA,NA,NA,NA
cbp6c6g5,NA,NA,cbp6c6g5,2020-0188,2021-10-05,11:37:11,13:49:02,NA,incomplete,false,true,NA,5,16,building,o_c_027.jpg,right,skyscraper,cottage,NA,NA,NA,left,1393,false,NA,NA,NA,NA,NA
cbp6c6g5,NA,NA,cbp6c6g5,2020-0188,2021-10-05,11:37:11,13:49:02,NA,incomplete,false,true,NA,5,17,building,i_c_016.jpg,left,cottage,skyscraper,NA,NA,NA,left,920,true,NA,NA,NA,NA,NA
cbp6c6g5,NA,NA,cbp6c6g5,2020-0188,2021-10-05,11:37:11,13:49:02,NA,incomplete,false,true,NA,5,18,building,i_s_025.jpg,right,cottage,skyscraper,NA,NA,NA,right,3181,true,NA,NA,NA,NA,NA
cbp6c6g5,NA,NA,cbp6c6g5,2020-0188,2021-10-05,11:37:11,13:49:02,NA,incomplete,false,true,NA,5,19,building,i_s_006.jpg,left,skyscraper,cottage,NA,NA,NA,left,1209.99999999953,true,NA,NA,NA,NA,NA
cbp6c6g5,NA,NA,cbp6c6g5,2020-0188,2021-10-05,11:37:11,13:49:02,NA,incomplete,false,true,NA,5,20,abstractness,c_2_012.jpg,left,concrete,abstract,NA,NA,NA,left,2519.00000000047,true,NA,NA,NA,NA,NA
cbp6c6g5,NA,NA,cbp6c6g5,2020-0188,2021-10-05,11:37:11,13:49:02,NA,incomplete,false,true,NA,5,21,abstractness,a_2_015.jpg,left,abstract,concrete,NA,NA,NA,right,3078,false,NA,NA,NA,NA,NA
cbp6c6g5,NA,NA,cbp6c6g5,2020-0188,2021-10-05,11:37:11,13:49:02,NA,incomplete,false,true,NA,5,22,abstractness,c_2_010.jpg,right,abstract,concrete,NA,NA,NA,right,1169,true,NA,NA,NA,NA,NA
cbp6c6g5,NA,NA,cbp6c6g5,2020-0188,2021-10-05,11:37:11,13:49:02,NA,incomplete,false,true,NA,5,23,abstractness,c_2_023.jpg,right,abstract,concrete,NA,NA,NA,right,1483,true,NA,NA,NA,NA,NA
cbp6c6g5,NA,NA,cbp6c6g5,2020-0188,2021-10-05,11:37:11,13:49:02,NA,incomplete,false,true,NA,5,24,abstractness,c_2_027.jpg,right,abstract,concrete,NA,NA,NA,right,2215,true,NA,NA,NA,NA,NA
cbp6c6g5,NA,NA,cbp6c6g5,2020-0188,2021-10-05,11:37:11,13:49:02,NA,incomplete,false,true,NA,5,25,syllable,c_1_024.jpg,right,2 syllables,1 syllable,NA,NA,NA,right,2303,true,NA,NA,NA,NA,NA
cbp6c6g5,NA,NA,cbp6c6g5,2020-0188,2021-10-05,11:37:11,13:49:02,NA,incomplete,false,true,NA,5,26,syllable,c_1_025.jpg,right,2 syllables,1 syllable,NA,NA,NA,right,1671.00000000047,true,NA,NA,NA,NA,NA
cbp6c6g5,NA,NA,cbp6c6g5,2020-0188,2021-10-05,11:37:11,13:49:02,NA,incomplete,false,true,NA,5,27,syllable,c_1_008.jpg,right,1 syllable,2 syllables,NA,NA,NA,left,965,false,NA,NA,NA,NA,NA
cbp6c6g5,NA,NA,cbp6c6g5,2020-0188,2021-10-05,11:37:11,13:49:02,NA,incomplete,false,true,NA,5,28,syllable,a_2_017.jpg,right,2 syllables,1 syllable,NA,NA,NA,left,1043.00000000047,false,NA,NA,NA,NA,NA
cbp6c6g5,NA,NA,cbp6c6g5,2020-0188,2021-10-05,11:37:11,13:49:02,NA,incomplete,false,true,NA,5,29,syllable,c_2_028.jpg,right,2 syllables,1 syllable,NA,NA,NA,left,860,false,NA,NA,NA,NA,NA
cbp6c6g5,NA,NA,cbp6c6g5,2020-0188,2021-10-05,11:37:11,13:49:02,NA,incomplete,false,NA,true,5,0,NA,NA,right,NA,NA,n_l_012.jpg,n_s_021.jpg,between-small,NA,NaN,NA,left,4978,0,1,1373
cbp6c6g5,NA,NA,cbp6c6g5,2020-0188,2021-10-05,11:37:11,13:49:02,NA,incomplete,false,NA,true,5,1,NA,NA,left,NA,NA,o_s_013.jpg,i_c_016.jpg,between-small,NA,NaN,NA,left,783,1,1,1069
cbp6c6g5,NA,NA,cbp6c6g5,2020-0188,2021-10-05,11:37:11,13:49:02,NA,incomplete,false,NA,true,5,2,NA,NA,right,NA,NA,c_1_008.jpg,c_2_027.jpg,between-small,NA,NaN,NA,left,567,0,1,2086
cbp6c6g5,NA,NA,cbp6c6g5,2020-0188,2021-10-05,11:37:11,13:49:02,NA,incomplete,false,NA,true,5,3,NA,NA,right,NA,NA,o_s_025.jpg,m_s_021.jpg,between-big,NA,NaN,NA,right,1049,1,1,1749
cbp6c6g5,NA,NA,cbp6c6g5,2020-0188,2021-10-05,11:37:11,13:49:02,NA,incomplete,false,NA,true,5,4,NA,NA,right,NA,NA,a_2_017.jpg,c_1_024.jpg,within,NA,NaN,NA,left,848,0,1,841
cbp6c6g5,NA,NA,cbp6c6g5,2020-0188,2021-10-05,11:37:11,13:49:02,NA,incomplete,false,NA,true,5,5,NA,NA,left,NA,NA,o_s_025.jpg,o_s_013.jpg,within,NA,NaN,NA,right,512,0,1,1185
cbp6c6g5,NA,NA,cbp6c6g5,2020-0188,2021-10-05,11:37:11,13:49:02,NA,incomplete,false,NA,true,5,6,NA,NA,right,NA,NA,i_s_016.jpg,i_s_020.jpg,between-small,NA,NaN,NA,left,629,0,1,1978
cbp6c6g5,NA,NA,cbp6c6g5,2020-0188,2021-10-05,11:37:11,13:49:02,NA,incomplete,false,NA,true,5,7,NA,NA,right,NA,NA,c_1_025.jpg,c_2_023.jpg,between-small,NA,NaN,NA,left,544,0,1,1881
cbp6c6g5,NA,NA,cbp6c6g5,2020-0188,2021-10-05,11:37:11,13:49:02,NA,incomplete,false,NA,true,5,8,NA,NA,right,NA,NA,i_s_025.jpg,i_s_016.jpg,within,NA,NaN,NA,left,552,0,1,905
cbp6c6g5,NA,NA,cbp6c6g5,2020-0188,2021-10-05,11:37:11,13:49:02,NA,incomplete,false,NA,true,5,9,NA,NA,left,NA,NA,n_l_025.jpg,m_s_021.jpg,within,NA,NaN,NA,left,661,1,2,1457
cbp6c6g5,NA,NA,cbp6c6g5,2020-0188,2021-10-05,11:37:11,13:49:02,NA,incomplete,false,NA,true,5,10,NA,NA,right,NA,NA,m_s_016.jpg,n_l_009.jpg,within,NA,NaN,NA,right,1109,1,1,1426
cbp6c6g5,NA,NA,cbp6c6g5,2020-0188,2021-10-05,11:37:11,13:49:02,NA,incomplete,false,NA,true,5,11,NA,NA,left,NA,NA,o_c_027.jpg,i_s_006.jpg,within,NA,NaN,NA,left,10579,1,1,985
cbp6c6g5,NA,NA,cbp6c6g5,2020-0188,2021-10-05,11:37:11,13:49:02,NA,incomplete,false,NA,true,5,12,NA,NA,left,NA,NA,i_s_025.jpg,a_2_015.jpg,between-big,NA,NaN,NA,left,592,1,1,2319
cbp6c6g5,NA,NA,cbp6c6g5,2020-0188,2021-10-05,11:37:11,13:49:02,NA,incomplete,false,NA,true,5,13,NA,NA,right,NA,NA,c_1_024.jpg,c_2_010.jpg,between-small,NA,NaN,NA,right,1210,1,1,1069
cbp6c6g5,NA,NA,cbp6c6g5,2020-0188,2021-10-05,11:37:11,13:49:02,NA,incomplete,false,NA,true,5,14,NA,NA,left,NA,NA,n_l_012.jpg,o_s_018.jpg,between-big,NA,NaN,NA,right,1392,0,1,781
cbp6c6g5,NA,NA,cbp6c6g5,2020-0188,2021-10-05,11:37:11,13:49:02,NA,incomplete,false,NA,true,5,15,NA,NA,right,NA,NA,c_2_028.jpg,c_1_025.jpg,within,NA,NaN,NA,left,641,0,1,1073
cbp6c6g5,NA,NA,cbp6c6g5,2020-0188,2021-10-05,11:37:11,13:49:02,NA,incomplete,false,NA,true,5,16,NA,NA,right,NA,NA,n_l_025.jpg,n_s_017.jpg,between-small,NA,NaN,NA,left,1385,0,1,849
cbp6c6g5,NA,NA,cbp6c6g5,2020-0188,2021-10-05,11:37:11,13:49:02,NA,incomplete,false,NA,true,5,17,NA,NA,right,NA,NA,c_2_023.jpg,c_2_012.jpg,within,NA,NaN,NA,left,648.0000000009313,0,1,1217
cbp6c6g5,NA,NA,cbp6c6g5,2020-0188,2021-10-05,11:37:11,13:49:02,NA,incomplete,false,NA,true,5,18,NA,NA,left,NA,NA,a_2_015.jpg,c_2_027.jpg,within,NA,NaN,NA,left,692,1,1,800
cbp6c6g5,NA,NA,cbp6c6g5,2020-0188,2021-10-05,11:37:11,13:49:02,NA,incomplete,false,NA,true,5,19,NA,NA,left,NA,NA,m_l_026.jpg,m_s_018.jpg,within,NA,NaN,NA,right,1045,0,0,1770
cbp6c6g5,NA,NA,cbp6c6g5,2020-0188,2021-10-05,11:37:11,13:49:02,NA,incomplete,false,NA,true,5,20,NA,NA,right,NA,NA,o_c_027.jpg,o_s_022.jpg,between-small,NA,NaN,NA,left,1709.0000000009313,0,1,1788
cbp6c6g5,NA,NA,cbp6c6g5,2020-0188,2021-10-05,11:37:11,13:49:02,NA,incomplete,false,NA,true,5,21,NA,NA,left,NA,NA,o_s_018.jpg,o_s_022.jpg,within,NA,NaN,NA,left,551,1,1,1626
cbp6c6g5,NA,NA,cbp6c6g5,2020-0188,2021-10-05,11:37:11,13:49:02,NA,incomplete,false,NA,true,5,22,NA,NA,right,NA,NA,c_2_010.jpg,i_s_006.jpg,between-big,NA,NaN,NA,right,55278,1,1,1718.0000000009313
cbp6c6g5,NA,NA,cbp6c6g5,2020-0188,2021-10-05,11:37:11,13:49:02,NA,incomplete,false,NA,true,5,23,NA,NA,left,NA,NA,i_c_016.jpg,c_2_012.jpg,between-big,NA,NaN,NA,left,705,1,1,1020
cbp6c6g5,NA,NA,cbp6c6g5,2020-0188,2021-10-05,11:37:11,13:49:02,NA,incomplete,false,NA,true,5,24,NA,NA,right,NA,NA,n_s_021.jpg,n_l_010.jpg,within,NA,NaN,NA,left,633.0000000009313,0,1,1009
cbp6c6g5,NA,NA,cbp6c6g5,2020-0188,2021-10-05,11:37:11,13:49:02,NA,incomplete,false,NA,true,5,25,NA,NA,right,NA,NA,m_l_026.jpg,m_s_016.jpg,between-small,NA,NaN,NA,right,953,1,1,912.9999999990687
cbp6c6g5,NA,NA,cbp6c6g5,2020-0188,2021-10-05,11:37:11,13:49:02,NA,incomplete,false,NA,true,5,26,NA,NA,left,NA,NA,m_s_018.jpg,i_s_020.jpg,between-big,NA,NaN,NA,left,538,1,1,881
cbp6c6g5,NA,NA,cbp6c6g5,2020-0188,2021-10-05,11:37:11,13:49:02,NA,incomplete,false,true,NA,6,0,size,m_l_009.jpg,left,large,small,NA,NA,NA,left,1787,true,NA,NA,NA,NA,NA
cbp6c6g5,NA,NA,cbp6c6g5,2020-0188,2021-10-05,11:37:11,13:49:02,NA,incomplete,false,true,NA,6,1,size,n_s_007.jpg,right,large,small,NA,NA,NA,right,1010,true,NA,NA,NA,NA,NA
cbp6c6g5,NA,NA,cbp6c6g5,2020-0188,2021-10-05,11:37:11,13:49:02,NA,incomplete,false,true,NA,6,2,size,n_l_017.jpg,left,large,small,NA,NA,NA,left,888,true,NA,NA,NA,NA,NA
cbp6c6g5,NA,NA,cbp6c6g5,2020-0188,2021-10-05,11:37:11,13:49:02,NA,incomplete,false,true,NA,6,3,size,n_l_019.jpg,right,small,large,NA,NA,NA,left,1483,false,NA,NA,NA,NA,NA
cbp6c6g5,NA,NA,cbp6c6g5,2020-0188,2021-10-05,11:37:11,13:49:02,NA,incomplete,false,true,NA,6,4,size,m_l_007.jpg,right,small,large,NA,NA,NA,left,1417.99999999907,false,NA,NA,NA,NA,NA
cbp6c6g5,NA,NA,cbp6c6g5,2020-0188,2021-10-05,11:37:11,13:49:02,NA,incomplete,false,true,NA,6,5,origin,n_s_016.jpg,right,manmade,natural,NA,NA,NA,right,1976.99999999907,true,NA,NA,NA,NA,NA
cbp6c6g5,NA,NA,cbp6c6g5,2020-0188,2021-10-05,11:37:11,13:49:02,NA,incomplete,false,true,NA,6,6,origin,m_s_013.jpg,right,natural,manmade,NA,NA,NA,right,1351.00000000093,true,NA,NA,NA,NA,NA
cbp6c6g5,NA,NA,cbp6c6g5,2020-0188,2021-10-05,11:37:11,13:49:02,NA,incomplete,false,true,NA,6,7,origin,m_l_002.jpg,left,manmade,natural,NA,NA,NA,left,1862,true,NA,NA,NA,NA,NA
cbp6c6g5,NA,NA,cbp6c6g5,2020-0188,2021-10-05,11:37:11,13:49:02,NA,incomplete,false,true,NA,6,8,origin,n_s_002.jpg,left,natural,manmade,NA,NA,NA,left,1288,true,NA,NA,NA,NA,NA
cbp6c6g5,NA,NA,cbp6c6g5,2020-0188,2021-10-05,11:37:11,13:49:02,NA,incomplete,false,true,NA,6,9,origin,m_s_024.jpg,right,natural,manmade,NA,NA,NA,right,1350,true,NA,NA,NA,NA,NA
cbp6c6g5,NA,NA,cbp6c6g5,2020-0188,2021-10-05,11:37:11,13:49:02,NA,incomplete,false,true,NA,6,10,abstractness,a_2_019.jpg,right,concrete,abstract,NA,NA,NA,left,2222,false,NA,NA,NA,NA,NA
cbp6c6g5,NA,NA,cbp6c6g5,2020-0188,2021-10-05,11:37:11,13:49:02,NA,incomplete,false,true,NA,6,11,abstractness,c_1_022.jpg,left,concrete,abstract,NA,NA,NA,left,1279,true,NA,NA,NA,NA,NA
cbp6c6g5,NA,NA,cbp6c6g5,2020-0188,2021-10-05,11:37:11,13:49:02,NA,incomplete,false,true,NA,6,12,abstractness,a_2_018.jpg,left,abstract,concrete,NA,NA,NA,left,1141,true,NA,NA,NA,NA,NA
cbp6c6g5,NA,NA,cbp6c6g5,2020-0188,2021-10-05,11:37:11,13:49:02,NA,incomplete,false,true,NA,6,13,abstractness,a_1_021.jpg,left,abstract,concrete,NA,NA,NA,none,0,false,NA,NA,NA,NA,NA
cbp6c6g5,NA,NA,cbp6c6g5,2020-0188,2021-10-05,11:37:11,13:49:02,NA,incomplete,false,true,NA,6,14,abstractness,a_2_002.jpg,right,concrete,abstract,NA,NA,NA,right,1241,true,NA,NA,NA,NA,NA
cbp6c6g5,NA,NA,cbp6c6g5,2020-0188,2021-10-05,11:37:11,13:49:02,NA,incomplete,false,true,NA,6,15,syllable,a_2_011.jpg,right,2 syllables,1 syllable,NA,NA,NA,left,1212.99999999907,false,NA,NA,NA,NA,NA
cbp6c6g5,NA,NA,cbp6c6g5,2020-0188,2021-10-05,11:37:11,13:49:02,NA,incomplete,false,true,NA,6,16,syllable,a_1_001.jpg,right,1 syllable,2 syllables,NA,NA,NA,left,939,false,NA,NA,NA,NA,NA
cbp6c6g5,NA,NA,cbp6c6g5,2020-0188,2021-10-05,11:37:11,13:49:02,NA,incomplete,false,true,NA,6,17,syllable,a_2_004.jpg,right,2 syllables,1 syllable,NA,NA,NA,left,1229,false,NA,NA,NA,NA,NA
cbp6c6g5,NA,NA,cbp6c6g5,2020-0188,2021-10-05,11:37:11,13:49:02,NA,incomplete,false,true,NA,6,18,syllable,a_2_006.jpg,right,2 syllables,1 syllable,NA,NA,NA,left,877,false,NA,NA,NA,NA,NA
cbp6c6g5,NA,NA,cbp6c6g5,2020-0188,2021-10-05,11:37:11,13:49:02,NA,incomplete,false,true,NA,6,19,syllable,c_1_012.jpg,right,2 syllables,1 syllable,NA,NA,NA,right,1352,true,NA,NA,NA,NA,NA
cbp6c6g5,NA,NA,cbp6c6g5,2020-0188,2021-10-05,11:37:11,13:49:02,NA,incomplete,false,true,NA,6,20,building,i_c_013.jpg,left,cottage,skyscraper,NA,NA,NA,left,1644,true,NA,NA,NA,NA,NA
cbp6c6g5,NA,NA,cbp6c6g5,2020-0188,2021-10-05,11:37:11,13:49:02,NA,incomplete,false,true,NA,6,21,building,i_s_009.jpg,right,cottage,skyscraper,NA,NA,NA,right,1696,true,NA,NA,NA,NA,NA
cbp6c6g5,NA,NA,cbp6c6g5,2020-0188,2021-10-05,11:37:11,13:49:02,NA,incomplete,false,true,NA,6,22,building,o_s_028.jpg,right,cottage,skyscraper,NA,NA,NA,right,2595,true,NA,NA,NA,NA,NA
cbp6c6g5,NA,NA,cbp6c6g5,2020-0188,2021-10-05,11:37:11,13:49:02,NA,incomplete,false,true,NA,6,23,building,o_c_013.jpg,right,skyscraper,cottage,NA,NA,NA,right,1421,true,NA,NA,NA,NA,NA
cbp6c6g5,NA,NA,cbp6c6g5,2020-0188,2021-10-05,11:37:11,13:49:02,NA,incomplete,false,true,NA,6,24,building,o_s_027.jpg,left,skyscraper,cottage,NA,NA,NA,left,1953,true,NA,NA,NA,NA,NA
cbp6c6g5,NA,NA,cbp6c6g5,2020-0188,2021-10-05,11:37:11,13:49:02,NA,incomplete,false,true,NA,6,25,location,i_c_003.jpg,right,outdoor,indoor,NA,NA,NA,right,1991,true,NA,NA,NA,NA,NA
cbp6c6g5,NA,NA,cbp6c6g5,2020-0188,2021-10-05,11:37:11,13:49:02,NA,incomplete,false,true,NA,6,26,location,o_c_018.jpg,left,outdoor,indoor,NA,NA,NA,left,2471.00000000093,true,NA,NA,NA,NA,NA
cbp6c6g5,NA,NA,cbp6c6g5,2020-0188,2021-10-05,11:37:11,13:49:02,NA,incomplete,false,true,NA,6,27,location,i_s_003.jpg,left,indoor,outdoor,NA,NA,NA,left,1113,true,NA,NA,NA,NA,NA
cbp6c6g5,NA,NA,cbp6c6g5,2020-0188,2021-10-05,11:37:11,13:49:02,NA,incomplete,false,true,NA,6,28,location,o_s_024.jpg,right,indoor,outdoor,NA,NA,NA,right,2245,true,NA,NA,NA,NA,NA
cbp6c6g5,NA,NA,cbp6c6g5,2020-0188,2021-10-05,11:37:11,13:49:02,NA,incomplete,false,true,NA,6,29,location,o_c_023.jpg,right,indoor,outdoor,NA,NA,NA,right,1995.00000000093,true,NA,NA,NA,NA,NA
cbp6c6g5,NA,NA,cbp6c6g5,2020-0188,2021-10-05,11:37:11,13:49:02,NA,incomplete,false,NA,true,6,0,NA,NA,left,NA,NA,o_c_018.jpg,o_c_023.jpg,within,NA,NaN,NA,right,2165,0,1,1049
cbp6c6g5,NA,NA,cbp6c6g5,2020-0188,2021-10-05,11:37:11,13:49:02,NA,incomplete,false,NA,true,6,1,NA,NA,right,NA,NA,o_s_024.jpg,i_c_003.jpg,within,NA,NaN,NA,left,3888,0,0,888.9999999990687
cbp6c6g5,NA,NA,cbp6c6g5,2020-0188,2021-10-05,11:37:11,13:49:02,NA,incomplete,false,NA,true,6,2,NA,NA,left,NA,NA,c_1_012.jpg,o_s_028.jpg,between-big,NA,NaN,NA,left,808,1,2,1177
cbp6c6g5,NA,NA,cbp6c6g5,2020-0188,2021-10-05,11:37:11,13:49:02,NA,incomplete,false,NA,true,6,3,NA,NA,right,NA,NA,i_c_003.jpg,o_s_028.jpg,between-small,NA,NaN,NA,right,3611,1,1,928.9999999990687
cbp6c6g5,NA,NA,cbp6c6g5,2020-0188,2021-10-05,11:37:11,13:49:02,NA,incomplete,false,NA,true,6,4,NA,NA,left,NA,NA,m_l_007.jpg,m_l_002.jpg,between-small,NA,NaN,NA,right,1803,0,0,3888
cbp6c6g5,NA,NA,cbp6c6g5,2020-0188,2021-10-05,11:37:11,13:49:02,NA,incomplete,false,NA,true,6,5,NA,NA,right,NA,NA,m_l_007.jpg,n_s_007.jpg,within,NA,NaN,NA,right,1041,1,0,1469
cbp6c6g5,NA,NA,cbp6c6g5,2020-0188,2021-10-05,11:37:11,13:49:02,NA,incomplete,false,NA,true,6,6,NA,NA,right,NA,NA,a_1_021.jpg,a_2_019.jpg,within,NA,NaN,NA,left,19794,0,0,1089
cbp6c6g5,NA,NA,cbp6c6g5,2020-0188,2021-10-05,11:37:11,13:49:02,NA,incomplete,false,NA,true,6,7,NA,NA,right,NA,NA,i_s_009.jpg,a_2_006.jpg,between-big,NA,NaN,NA,left,760,0,0,960.9999999990687
cbp6c6g5,NA,NA,cbp6c6g5,2020-0188,2021-10-05,11:37:11,13:49:02,NA,incomplete,false,NA,true,6,8,NA,NA,right,NA,NA,i_c_013.jpg,a_2_004.jpg,between-big,NA,NaN,NA,right,6028.999999999069,1,0,2355
cbp6c6g5,NA,NA,cbp6c6g5,2020-0188,2021-10-05,11:37:11,13:49:02,NA,incomplete,false,NA,true,6,9,NA,NA,right,NA,NA,n_l_019.jpg,m_l_009.jpg,within,NA,NaN,NA,left,2250,0,0,1084
cbp6c6g5,NA,NA,cbp6c6g5,2020-0188,2021-10-05,11:37:11,13:49:02,NA,incomplete,false,NA,true,6,10,NA,NA,right,NA,NA,a_2_011.jpg,a_2_018.jpg,between-small,NA,NaN,NA,right,1523,1,0,917.0000000009313
cbp6c6g5,NA,NA,cbp6c6g5,2020-0188,2021-10-05,11:37:11,13:49:02,NA,incomplete,false,NA,true,6,11,NA,NA,right,NA,NA,a_2_006.jpg,a_2_011.jpg,within,NA,NaN,NA,left,575,0,0,1742
cbp6c6g5,NA,NA,cbp6c6g5,2020-0188,2021-10-05,11:37:11,13:49:02,NA,incomplete,false,NA,true,6,12,NA,NA,left,NA,NA,a_2_002.jpg,a_2_004.jpg,between-small,NA,NaN,NA,left,519.9999999990687,1,0,2511
cbp6c6g5,NA,NA,cbp6c6g5,2020-0188,2021-10-05,11:37:11,13:49:02,NA,incomplete,false,NA,true,6,13,NA,NA,left,NA,NA,a_1_001.jpg,c_1_012.jpg,within,NA,NaN,NA,left,1290,1,0,1869
cbp6c6g5,NA,NA,cbp6c6g5,2020-0188,2021-10-05,11:37:11,13:49:02,NA,incomplete,false,NA,true,6,14,NA,NA,left,NA,NA,n_s_016.jpg,n_s_002.jpg,within,NA,NaN,NA,left,6687,1,0,712
cbp6c6g5,NA,NA,cbp6c6g5,2020-0188,2021-10-05,11:37:11,13:49:02,NA,incomplete,false,NA,true,6,15,NA,NA,left,NA,NA,i_s_009.jpg,o_s_027.jpg,within,NA,NaN,NA,right,2685,0,0,2074
cbp6c6g5,NA,NA,cbp6c6g5,2020-0188,2021-10-05,11:37:11,13:49:02,NA,incomplete,false,NA,true,6,16,NA,NA,left,NA,NA,o_s_027.jpg,i_s_003.jpg,between-small,NA,NaN,NA,left,553,1,1,832
cbp6c6g5,NA,NA,cbp6c6g5,2020-0188,2021-10-05,11:37:11,13:49:02,NA,incomplete,false,NA,true,6,17,NA,NA,left,NA,NA,n_l_017.jpg,n_s_016.jpg,between-small,NA,NaN,NA,left,648,1,2,1212
cbp6c6g5,NA,NA,cbp6c6g5,2020-0188,2021-10-05,11:37:11,13:49:02,NA,incomplete,false,NA,true,6,18,NA,NA,left,NA,NA,m_l_002.jpg,a_2_019.jpg,between-big,NA,NaN,NA,left,1292,1,0,2735
cbp6c6g5,NA,NA,cbp6c6g5,2020-0188,2021-10-05,11:37:11,13:49:02,NA,incomplete,false,NA,true,6,19,NA,NA,right,NA,NA,o_c_018.jpg,o_c_013.jpg,between-small,NA,NaN,NA,left,916,0,0,1803
cbp6c6g5,NA,NA,cbp6c6g5,2020-0188,2021-10-05,11:37:11,13:49:02,NA,incomplete,false,NA,true,6,20,NA,NA,right,NA,NA,m_s_013.jpg,n_l_019.jpg,between-small,NA,NaN,NA,left,621,0,1,2707
cbp6c6g5,NA,NA,cbp6c6g5,2020-0188,2021-10-05,11:37:11,13:49:02,NA,incomplete,false,NA,true,6,21,NA,NA,left,NA,NA,n_s_002.jpg,c_1_022.jpg,between-big,NA,NaN,NA,right,52052,0,1,909
cbp6c6g5,NA,NA,cbp6c6g5,2020-0188,2021-10-05,11:37:11,13:49:02,NA,incomplete,false,NA,true,6,22,NA,NA,left,NA,NA,m_s_024.jpg,a_2_018.jpg,between-big,NA,NaN,NA,right,1361,0,0,1589
cbp6c6g5,NA,NA,cbp6c6g5,2020-0188,2021-10-05,11:37:11,13:49:02,NA,incomplete,false,NA,true,6,23,NA,NA,left,NA,NA,a_1_021.jpg,a_1_001.jpg,between-small,NA,NaN,NA,left,991.9999999990687,1,1,1718
cbp6c6g5,NA,NA,cbp6c6g5,2020-0188,2021-10-05,11:37:11,13:49:02,NA,incomplete,false,NA,true,6,24,NA,NA,right,NA,NA,a_2_002.jpg,c_1_022.jpg,within,NA,NaN,NA,left,6295,0,1,2470
cbp6c6g5,NA,NA,cbp6c6g5,2020-0188,2021-10-05,11:37:11,13:49:02,NA,incomplete,false,NA,true,6,25,NA,NA,right,NA,NA,o_c_013.jpg,i_c_013.jpg,within,NA,NaN,NA,left,593,0,0,850
cbp6c6g5,NA,NA,cbp6c6g5,2020-0188,2021-10-05,11:37:11,13:49:02,NA,incomplete,false,NA,true,6,26,NA,NA,left,NA,NA,m_s_013.jpg,m_s_024.jpg,within,NA,NaN,NA,left,9331,1,1,1176.9999999990687
cbp6c6g5,NA,NA,cbp6c6g5,2020-0188,2021-10-05,11:37:11,13:49:02,NA,incomplete,false,true,NA,7,0,syllable,a_1_012.jpg,right,2 syllables,1 syllable,NA,NA,NA,right,1983,true,NA,NA,NA,NA,NA
cbp6c6g5,NA,NA,cbp6c6g5,2020-0188,2021-10-05,11:37:11,13:49:02,NA,incomplete,false,true,NA,7,1,syllable,c_1_017.jpg,right,2 syllables,1 syllable,NA,NA,NA,right,989,true,NA,NA,NA,NA,NA
cbp6c6g5,NA,NA,cbp6c6g5,2020-0188,2021-10-05,11:37:11,13:49:02,NA,incomplete,false,true,NA,7,2,syllable,a_1_022.jpg,right,2 syllables,1 syllable,NA,NA,NA,none,0,false,NA,NA,NA,NA,NA
cbp6c6g5,NA,NA,cbp6c6g5,2020-0188,2021-10-05,11:37:11,13:49:02,NA,incomplete,false,true,NA,7,3,syllable,c_1_028.jpg,right,1 syllable,2 syllables,NA,NA,NA,left,771,false,NA,NA,NA,NA,NA
cbp6c6g5,NA,NA,cbp6c6g5,2020-0188,2021-10-05,11:37:11,13:49:02,NA,incomplete,false,true,NA,7,4,syllable,c_2_002.jpg,right,1 syllable,2 syllables,NA,NA,NA,right,1669,true,NA,NA,NA,NA,NA
cbp6c6g5,NA,NA,cbp6c6g5,2020-0188,2021-10-05,11:37:11,13:49:02,NA,incomplete,false,true,NA,7,5,abstractness,c_1_026.jpg,left,concrete,abstract,NA,NA,NA,left,1357,true,NA,NA,NA,NA,NA
cbp6c6g5,NA,NA,cbp6c6g5,2020-0188,2021-10-05,11:37:11,13:49:02,NA,incomplete,false,true,NA,7,6,abstractness,a_1_007.jpg,left,abstract,concrete,NA,NA,NA,left,2249,true,NA,NA,NA,NA,NA
cbp6c6g5,NA,NA,cbp6c6g5,2020-0188,2021-10-05,11:37:11,13:49:02,NA,incomplete,false,true,NA,7,7,abstractness,a_1_003.jpg,left,abstract,concrete,NA,NA,NA,none,0,false,NA,NA,NA,NA,NA
cbp6c6g5,NA,NA,cbp6c6g5,2020-0188,2021-10-05,11:37:11,13:49:02,NA,incomplete,false,true,NA,7,8,abstractness,c_1_005.jpg,left,concrete,abstract,NA,NA,NA,left,1438.00000000093,true,NA,NA,NA,NA,NA
cbp6c6g5,NA,NA,cbp6c6g5,2020-0188,2021-10-05,11:37:11,13:49:02,NA,incomplete,false,true,NA,7,9,abstractness,a_1_028.jpg,left,abstract,concrete,NA,NA,NA,left,1998,true,NA,NA,NA,NA,NA
cbp6c6g5,NA,NA,cbp6c6g5,2020-0188,2021-10-05,11:37:11,13:49:02,NA,incomplete,false,true,NA,7,10,origin,m_l_023.jpg,right,natural,manmade,NA,NA,NA,right,1111,true,NA,NA,NA,NA,NA
cbp6c6g5,NA,NA,cbp6c6g5,2020-0188,2021-10-05,11:37:11,13:49:02,NA,incomplete,false,true,NA,7,11,origin,m_s_019.jpg,right,natural,manmade,NA,NA,NA,right,1344,true,NA,NA,NA,NA,NA
cbp6c6g5,NA,NA,cbp6c6g5,2020-0188,2021-10-05,11:37:11,13:49:02,NA,incomplete,false,true,NA,7,12,origin,n_l_013.jpg,left,natural,manmade,NA,NA,NA,left,905.999999999069,true,NA,NA,NA,NA,NA
cbp6c6g5,NA,NA,cbp6c6g5,2020-0188,2021-10-05,11:37:11,13:49:02,NA,incomplete,false,true,NA,7,13,origin,n_l_011.jpg,right,manmade,natural,NA,NA,NA,right,1559,true,NA,NA,NA,NA,NA
cbp6c6g5,NA,NA,cbp6c6g5,2020-0188,2021-10-05,11:37:11,13:49:02,NA,incomplete,false,true,NA,7,14,origin,m_l_001.jpg,right,natural,manmade,NA,NA,NA,right,2536,true,NA,NA,NA,NA,NA
cbp6c6g5,NA,NA,cbp6c6g5,2020-0188,2021-10-05,11:37:11,13:49:02,NA,incomplete,false,true,NA,7,15,size,m_s_005.jpg,right,large,small,NA,NA,NA,right,1662,true,NA,NA,NA,NA,NA
cbp6c6g5,NA,NA,cbp6c6g5,2020-0188,2021-10-05,11:37:11,13:49:02,NA,incomplete,false,true,NA,7,16,size,n_s_015.jpg,left,small,large,NA,NA,NA,left,1320,true,NA,NA,NA,NA,NA
cbp6c6g5,NA,NA,cbp6c6g5,2020-0188,2021-10-05,11:37:11,13:49:02,NA,incomplete,false,true,NA,7,17,size,n_s_013.jpg,left,small,large,NA,NA,NA,left,1738.99999999907,true,NA,NA,NA,NA,NA
cbp6c6g5,NA,NA,cbp6c6g5,2020-0188,2021-10-05,11:37:11,13:49:02,NA,incomplete,false,true,NA,7,18,size,m_l_005.jpg,left,large,small,NA,NA,NA,right,1656.99999999907,false,NA,NA,NA,NA,NA
cbp6c6g5,NA,NA,cbp6c6g5,2020-0188,2021-10-05,11:37:11,13:49:02,NA,incomplete,false,true,NA,7,19,size,n_s_026.jpg,right,large,small,NA,NA,NA,right,1921.99999999907,true,NA,NA,NA,NA,NA
cbp6c6g5,NA,NA,cbp6c6g5,2020-0188,2021-10-05,11:37:11,13:49:02,NA,incomplete,false,true,NA,7,20,building,o_s_008.jpg,right,cottage,skyscraper,NA,NA,NA,right,1396.99999999907,true,NA,NA,NA,NA,NA
cbp6c6g5,NA,NA,cbp6c6g5,2020-0188,2021-10-05,11:37:11,13:49:02,NA,incomplete,false,true,NA,7,21,building,o_c_004.jpg,left,cottage,skyscraper,NA,NA,NA,left,2178,true,NA,NA,NA,NA,NA
cbp6c6g5,NA,NA,cbp6c6g5,2020-0188,2021-10-05,11:37:11,13:49:02,NA,incomplete,false,true,NA,7,22,building,i_c_019.jpg,left,cottage,skyscraper,NA,NA,NA,left,1431,true,NA,NA,NA,NA,NA
cbp6c6g5,NA,NA,cbp6c6g5,2020-0188,2021-10-05,11:37:11,13:49:02,NA,incomplete,false,true,NA,7,23,building,o_s_016.jpg,left,skyscraper,cottage,NA,NA,NA,left,2096.99999999907,true,NA,NA,NA,NA,NA
cbp6c6g5,NA,NA,cbp6c6g5,2020-0188,2021-10-05,11:37:11,13:49:02,NA,incomplete,false,true,NA,7,24,building,o_s_002.jpg,left,skyscraper,cottage,NA,NA,NA,left,1042,true,NA,NA,NA,NA,NA
cbp6c6g5,NA,NA,cbp6c6g5,2020-0188,2021-10-05,11:37:11,13:49:02,NA,incomplete,false,true,NA,7,25,location,o_s_017.jpg,left,outdoor,indoor,NA,NA,NA,left,2091,true,NA,NA,NA,NA,NA
cbp6c6g5,NA,NA,cbp6c6g5,2020-0188,2021-10-05,11:37:11,13:49:02,NA,incomplete,false,true,NA,7,26,location,o_c_005.jpg,left,outdoor,indoor,NA,NA,NA,left,1897,true,NA,NA,NA,NA,NA
cbp6c6g5,NA,NA,cbp6c6g5,2020-0188,2021-10-05,11:37:11,13:49:02,NA,incomplete,false,true,NA,7,27,location,o_c_002.jpg,right,indoor,outdoor,NA,NA,NA,right,1149,true,NA,NA,NA,NA,NA
cbp6c6g5,NA,NA,cbp6c6g5,2020-0188,2021-10-05,11:37:11,13:49:02,NA,incomplete,false,true,NA,7,28,location,o_c_022.jpg,right,indoor,outdoor,NA,NA,NA,right,1355,true,NA,NA,NA,NA,NA
cbp6c6g5,NA,NA,cbp6c6g5,2020-0188,2021-10-05,11:37:11,13:49:02,NA,incomplete,false,true,NA,7,29,location,i_c_028.jpg,right,outdoor,indoor,NA,NA,NA,right,1546,true,NA,NA,NA,NA,NA
cbp6c6g5,NA,NA,cbp6c6g5,2020-0188,2021-10-05,11:37:11,13:49:02,NA,incomplete,false,NA,true,7,0,NA,NA,right,NA,NA,o_s_017.jpg,i_c_019.jpg,between-small,NA,NaN,NA,right,1084,1,0,2475
cbp6c6g5,NA,NA,cbp6c6g5,2020-0188,2021-10-05,11:37:11,13:49:02,NA,incomplete,false,NA,true,7,1,NA,NA,left,NA,NA,a_1_012.jpg,c_1_028.jpg,within,NA,NaN,NA,left,550,1,1,1087.0000000009313
cbp6c6g5,NA,NA,cbp6c6g5,2020-0188,2021-10-05,11:37:11,13:49:02,NA,incomplete,false,NA,true,7,2,NA,NA,right,NA,NA,a_1_003.jpg,c_2_002.jpg,between-small,NA,NaN,NA,left,636,0,1,1360
cbp6c6g5,NA,NA,cbp6c6g5,2020-0188,2021-10-05,11:37:11,13:49:02,NA,incomplete,false,NA,true,7,3,NA,NA,right,NA,NA,a_1_028.jpg,a_1_007.jpg,within,NA,NaN,NA,right,651,1,0,2227
cbp6c6g5,NA,NA,cbp6c6g5,2020-0188,2021-10-05,11:37:11,13:49:02,NA,incomplete,false,NA,true,7,4,NA,NA,right,NA,NA,a_1_007.jpg,c_1_028.jpg,between-small,NA,NaN,NA,left,570,0,1,1978
cbp6c6g5,NA,NA,cbp6c6g5,2020-0188,2021-10-05,11:37:11,13:49:02,NA,incomplete,false,NA,true,7,5,NA,NA,right,NA,NA,n_l_011.jpg,m_l_023.jpg,within,NA,NaN,NA,right,1118.0000000009313,1,1,842
cbp6c6g5,NA,NA,cbp6c6g5,2020-0188,2021-10-05,11:37:11,13:49:02,NA,incomplete,false,NA,true,7,6,NA,NA,right,NA,NA,n_l_013.jpg,a_1_028.jpg,between-big,NA,NaN,NA,left,513.0000000009313,0,0,880
cbp6c6g5,NA,NA,cbp6c6g5,2020-0188,2021-10-05,11:37:11,13:49:02,NA,incomplete,false,NA,true,7,7,NA,NA,right,NA,NA,n_s_013.jpg,m_l_001.jpg,between-small,NA,NaN,NA,left,643,0,1,1384
cbp6c6g5,NA,NA,cbp6c6g5,2020-0188,2021-10-05,11:37:11,13:49:02,NA,incomplete,false,NA,true,7,8,NA,NA,right,NA,NA,o_c_005.jpg,o_s_016.jpg,between-small,NA,NaN,NA,left,560,0,1,1442
cbp6c6g5,NA,NA,cbp6c6g5,2020-0188,2021-10-05,11:37:11,13:49:02,NA,incomplete,false,NA,true,7,9,NA,NA,left,NA,NA,o_c_005.jpg,i_c_028.jpg,within,NA,NaN,NA,left,703,1,1,992
cbp6c6g5,NA,NA,cbp6c6g5,2020-0188,2021-10-05,11:37:11,13:49:02,NA,incomplete,false,NA,true,7,10,NA,NA,left,NA,NA,n_l_011.jpg,n_s_015.jpg,between-small,NA,NaN,NA,right,2711,0,1,777
cbp6c6g5,NA,NA,cbp6c6g5,2020-0188,2021-10-05,11:37:11,13:49:02,NA,incomplete,false,NA,true,7,11,NA,NA,left,NA,NA,m_s_019.jpg,m_l_001.jpg,within,NA,NaN,NA,left,575,1,1,753
cbp6c6g5,NA,NA,cbp6c6g5,2020-0188,2021-10-05,11:37:11,13:49:02,NA,incomplete,false,NA,true,7,12,NA,NA,left,NA,NA,o_s_017.jpg,o_c_022.jpg,within,NA,NaN,NA,right,1236,0,1,1313
cbp6c6g5,NA,NA,cbp6c6g5,2020-0188,2021-10-05,11:37:11,13:49:02,NA,incomplete,false,NA,true,7,13,NA,NA,left,NA,NA,m_s_005.jpg,m_l_005.jpg,within,NA,NaN,NA,left,513,1,1,1052
cbp6c6g5,NA,NA,cbp6c6g5,2020-0188,2021-10-05,11:37:11,13:49:02,NA,incomplete,false,NA,true,7,14,NA,NA,left,NA,NA,m_l_005.jpg,o_c_004.jpg,between-big,NA,NaN,NA,right,1313,0,1,1152
cbp6c6g5,NA,NA,cbp6c6g5,2020-0188,2021-10-05,11:37:11,13:49:02,NA,incomplete,false,NA,true,7,15,NA,NA,right,NA,NA,m_l_023.jpg,a_1_003.jpg,between-big,NA,NaN,NA,left,585,0,1,1121.0000000009313
cbp6c6g5,NA,NA,cbp6c6g5,2020-0188,2021-10-05,11:37:11,13:49:02,NA,incomplete,false,NA,true,7,16,NA,NA,right,NA,NA,n_s_026.jpg,n_s_015.jpg,within,NA,NaN,NA,left,3392.0000000009313,0,1,852
cbp6c6g5,NA,NA,cbp6c6g5,2020-0188,2021-10-05,11:37:11,13:49:02,NA,incomplete,false,NA,true,7,17,NA,NA,left,NA,NA,o_s_008.jpg,o_s_016.jpg,within,NA,NaN,NA,right,1193.0000000009313,0,1,977.0000000009313
cbp6c6g5,NA,NA,cbp6c6g5,2020-0188,2021-10-05,11:37:11,13:49:02,NA,incomplete,false,NA,true,7,18,NA,NA,left,NA,NA,n_s_013.jpg,o_s_008.jpg,between-big,NA,NaN,NA,left,545,1,1,1113
cbp6c6g5,NA,NA,cbp6c6g5,2020-0188,2021-10-05,11:37:11,13:49:02,NA,incomplete,false,NA,true,7,19,NA,NA,right,NA,NA,c_1_005.jpg,c_1_026.jpg,within,NA,NaN,NA,left,925,0,1,927
cbp6c6g5,NA,NA,cbp6c6g5,2020-0188,2021-10-05,11:37:11,13:49:02,NA,incomplete,false,NA,true,7,20,NA,NA,left,NA,NA,o_c_004.jpg,o_s_002.jpg,within,NA,NaN,NA,right,1575,0,1,848
cbp6c6g5,NA,NA,cbp6c6g5,2020-0188,2021-10-05,11:37:11,13:49:02,NA,incomplete,false,NA,true,7,21,NA,NA,right,NA,NA,m_s_019.jpg,c_1_005.jpg,between-big,NA,NaN,NA,left,576,0,1,1745
cbp6c6g5,NA,NA,cbp6c6g5,2020-0188,2021-10-05,11:37:11,13:49:02,NA,incomplete,false,NA,true,7,22,NA,NA,left,NA,NA,c_1_017.jpg,c_2_002.jpg,within,NA,NaN,NA,left,2030,1,1,1882
cbp6c6g5,NA,NA,cbp6c6g5,2020-0188,2021-10-05,11:37:11,13:49:02,NA,incomplete,false,NA,true,7,23,NA,NA,right,NA,NA,o_c_002.jpg,o_s_002.jpg,between-small,NA,NaN,NA,left,2323,0,1,871
cbp6c6g5,NA,NA,cbp6c6g5,2020-0188,2021-10-05,11:37:11,13:49:02,NA,incomplete,false,NA,true,7,24,NA,NA,left,NA,NA,n_s_026.jpg,i_c_019.jpg,between-big,NA,NaN,NA,left,1336,1,1,872
cbp6c6g5,NA,NA,cbp6c6g5,2020-0188,2021-10-05,11:37:11,13:49:02,NA,incomplete,false,NA,true,7,25,NA,NA,right,NA,NA,m_s_005.jpg,n_l_013.jpg,between-small,NA,NaN,NA,right,665,1,1,1498.0000000009313
cbp6c6g5,NA,NA,cbp6c6g5,2020-0188,2021-10-05,11:37:11,13:49:02,NA,incomplete,false,NA,true,7,26,NA,NA,left,NA,NA,a_1_022.jpg,c_1_026.jpg,between-small,NA,NaN,NA,left,828.0000000009313,1,1,1690
cbp6c6g5,NA,NA,cbp6c6g5,2020-0188,2021-10-05,11:37:11,13:49:02,NA,incomplete,false,true,NA,8,0,origin,n_l_004.jpg,right,manmade,natural,NA,NA,NA,right,1242,true,NA,NA,NA,NA,NA
cbp6c6g5,NA,NA,cbp6c6g5,2020-0188,2021-10-05,11:37:11,13:49:02,NA,incomplete,false,true,NA,8,1,origin,n_l_022.jpg,right,manmade,natural,NA,NA,NA,right,1136,true,NA,NA,NA,NA,NA
cbp6c6g5,NA,NA,cbp6c6g5,2020-0188,2021-10-05,11:37:11,13:49:02,NA,incomplete,false,true,NA,8,2,origin,n_s_020.jpg,right,manmade,natural,NA,NA,NA,right,1268,true,NA,NA,NA,NA,NA
cbp6c6g5,NA,NA,cbp6c6g5,2020-0188,2021-10-05,11:37:11,13:49:02,NA,incomplete,false,true,NA,8,3,origin,n_l_023.jpg,right,manmade,natural,NA,NA,NA,right,1793,true,NA,NA,NA,NA,NA
cbp6c6g5,NA,NA,cbp6c6g5,2020-0188,2021-10-05,11:37:11,13:49:02,NA,incomplete,false,true,NA,8,4,origin,n_l_018.jpg,left,natural,manmade,NA,NA,NA,left,1663,true,NA,NA,NA,NA,NA
cbp6c6g5,NA,NA,cbp6c6g5,2020-0188,2021-10-05,11:37:11,13:49:02,NA,incomplete,false,true,NA,8,5,size,n_l_014.jpg,left,large,small,NA,NA,NA,left,1481,true,NA,NA,NA,NA,NA
cbp6c6g5,NA,NA,cbp6c6g5,2020-0188,2021-10-05,11:37:11,13:49:02,NA,incomplete,false,true,NA,8,6,size,n_l_020.jpg,right,small,large,NA,NA,NA,right,1578,true,NA,NA,NA,NA,NA
cbp6c6g5,NA,NA,cbp6c6g5,2020-0188,2021-10-05,11:37:11,13:49:02,NA,incomplete,false,true,NA,8,7,size,m_l_003.jpg,right,small,large,NA,NA,NA,right,1462,true,NA,NA,NA,NA,NA
cbp6c6g5,NA,NA,cbp6c6g5,2020-0188,2021-10-05,11:37:11,13:49:02,NA,incomplete,false,true,NA,8,8,size,n_s_024.jpg,right,large,small,NA,NA,NA,right,1247,true,NA,NA,NA,NA,NA
cbp6c6g5,NA,NA,cbp6c6g5,2020-0188,2021-10-05,11:37:11,13:49:02,NA,incomplete,false,true,NA,8,9,size,m_s_017.jpg,right,large,small,NA,NA,NA,right,935,true,NA,NA,NA,NA,NA
cbp6c6g5,NA,NA,cbp6c6g5,2020-0188,2021-10-05,11:37:11,13:49:02,NA,incomplete,false,true,NA,8,10,syllable,c_2_007.jpg,right,1 syllable,2 syllables,NA,NA,NA,right,1507.99999999907,true,NA,NA,NA,NA,NA
cbp6c6g5,NA,NA,cbp6c6g5,2020-0188,2021-10-05,11:37:11,13:49:02,NA,incomplete,false,true,NA,8,11,syllable,a_1_005.jpg,right,1 syllable,2 syllables,NA,NA,NA,right,1997,true,NA,NA,NA,NA,NA
cbp6c6g5,NA,NA,cbp6c6g5,2020-0188,2021-10-05,11:37:11,13:49:02,NA,incomplete,false,true,NA,8,12,syllable,a_1_004.jpg,right,1 syllable,2 syllables,NA,NA,NA,left,1089,false,NA,NA,NA,NA,NA
cbp6c6g5,NA,NA,cbp6c6g5,2020-0188,2021-10-05,11:37:11,13:49:02,NA,incomplete,false,true,NA,8,13,syllable,c_1_015.jpg,right,1 syllable,2 syllables,NA,NA,NA,left,806,false,NA,NA,NA,NA,NA
cbp6c6g5,NA,NA,cbp6c6g5,2020-0188,2021-10-05,11:37:11,13:49:02,NA,incomplete,false,true,NA,8,14,syllable,a_2_013.jpg,right,1 syllable,2 syllables,NA,NA,NA,left,2894.00000000093,false,NA,NA,NA,NA,NA
cbp6c6g5,NA,NA,cbp6c6g5,2020-0188,2021-10-05,11:37:11,13:49:02,NA,incomplete,false,true,NA,8,15,abstractness,c_2_001.jpg,left,concrete,abstract,NA,NA,NA,left,2559,true,NA,NA,NA,NA,NA
cbp6c6g5,NA,NA,cbp6c6g5,2020-0188,2021-10-05,11:37:11,13:49:02,NA,incomplete,false,true,NA,8,16,abstractness,a_1_024.jpg,left,abstract,concrete,NA,NA,NA,left,2487,true,NA,NA,NA,NA,NA
cbp6c6g5,NA,NA,cbp6c6g5,2020-0188,2021-10-05,11:37:11,13:49:02,NA,incomplete,false,true,NA,8,17,abstractness,a_2_027.jpg,right,concrete,abstract,NA,NA,NA,right,1978,true,NA,NA,NA,NA,NA
cbp6c6g5,NA,NA,cbp6c6g5,2020-0188,2021-10-05,11:37:11,13:49:02,NA,incomplete,false,true,NA,8,18,abstractness,a_2_010.jpg,right,concrete,abstract,NA,NA,NA,right,2010.00000000093,true,NA,NA,NA,NA,NA
cbp6c6g5,NA,NA,cbp6c6g5,2020-0188,2021-10-05,11:37:11,13:49:02,NA,incomplete,false,true,NA,8,19,abstractness,c_1_013.jpg,right,abstract,concrete,NA,NA,NA,right,1491,true,NA,NA,NA,NA,NA
cbp6c6g5,NA,NA,cbp6c6g5,2020-0188,2021-10-05,11:37:11,13:49:02,NA,incomplete,false,true,NA,8,20,building,i_s_027.jpg,left,skyscraper,cottage,NA,NA,NA,left,1870,true,NA,NA,NA,NA,NA
cbp6c6g5,NA,NA,cbp6c6g5,2020-0188,2021-10-05,11:37:11,13:49:02,NA,incomplete,false,true,NA,8,21,building,i_s_005.jpg,left,skyscraper,cottage,NA,NA,NA,left,1539,true,NA,NA,NA,NA,NA
cbp6c6g5,NA,NA,cbp6c6g5,2020-0188,2021-10-05,11:37:11,13:49:02,NA,incomplete,false,true,NA,8,22,building,i_s_022.jpg,right,cottage,skyscraper,NA,NA,NA,right,1557,true,NA,NA,NA,NA,NA
cbp6c6g5,NA,NA,cbp6c6g5,2020-0188,2021-10-05,11:37:11,13:49:02,NA,incomplete,false,true,NA,8,23,building,o_s_015.jpg,left,skyscraper,cottage,NA,NA,NA,left,1757,true,NA,NA,NA,NA,NA
cbp6c6g5,NA,NA,cbp6c6g5,2020-0188,2021-10-05,11:37:11,13:49:02,NA,incomplete,false,true,NA,8,24,building,i_c_022.jpg,right,skyscraper,cottage,NA,NA,NA,right,1172,true,NA,NA,NA,NA,NA
cbp6c6g5,NA,NA,cbp6c6g5,2020-0188,2021-10-05,11:37:11,13:49:02,NA,incomplete,false,true,NA,8,25,location,i_c_005.jpg,left,indoor,outdoor,NA,NA,NA,left,2061,true,NA,NA,NA,NA,NA
cbp6c6g5,NA,NA,cbp6c6g5,2020-0188,2021-10-05,11:37:11,13:49:02,NA,incomplete,false,true,NA,8,26,location,i_c_021.jpg,left,indoor,outdoor,NA,NA,NA,left,653.999999999069,true,NA,NA,NA,NA,NA
cbp6c6g5,NA,NA,cbp6c6g5,2020-0188,2021-10-05,11:37:11,13:49:02,NA,incomplete,false,true,NA,8,27,location,o_c_026.jpg,left,outdoor,indoor,NA,NA,NA,left,981.000000000931,true,NA,NA,NA,NA,NA
cbp6c6g5,NA,NA,cbp6c6g5,2020-0188,2021-10-05,11:37:11,13:49:02,NA,incomplete,false,true,NA,8,28,location,i_s_024.jpg,left,indoor,outdoor,NA,NA,NA,left,1854,true,NA,NA,NA,NA,NA
cbp6c6g5,NA,NA,cbp6c6g5,2020-0188,2021-10-05,11:37:11,13:49:02,NA,incomplete,false,true,NA,8,29,location,o_c_020.jpg,right,indoor,outdoor,NA,NA,NA,right,1636.00000000093,true,NA,NA,NA,NA,NA
cbp6c6g5,NA,NA,cbp6c6g5,2020-0188,2021-10-05,11:37:11,13:49:02,NA,incomplete,false,NA,true,8,0,NA,NA,left,NA,NA,n_l_014.jpg,n_s_024.jpg,within,NA,NaN,NA,left,1545,1,1,1394
cbp6c6g5,NA,NA,cbp6c6g5,2020-0188,2021-10-05,11:37:11,13:49:02,NA,incomplete,false,NA,true,8,1,NA,NA,right,NA,NA,n_l_023.jpg,n_l_004.jpg,within,NA,NaN,NA,right,2303,1,1,1330
cbp6c6g5,NA,NA,cbp6c6g5,2020-0188,2021-10-05,11:37:11,13:49:02,NA,incomplete,false,NA,true,8,2,NA,NA,left,NA,NA,a_1_004.jpg,c_2_001.jpg,between-small,NA,NaN,NA,right,1493.0000000009313,0,0,2832
cbp6c6g5,NA,NA,cbp6c6g5,2020-0188,2021-10-05,11:37:11,13:49:02,NA,incomplete,false,NA,true,8,3,NA,NA,right,NA,NA,i_s_027.jpg,a_2_027.jpg,between-big,NA,NaN,NA,left,1755,0,1,1565.9999999990687
cbp6c6g5,NA,NA,cbp6c6g5,2020-0188,2021-10-05,11:37:11,13:49:02,NA,incomplete,false,NA,true,8,4,NA,NA,right,NA,NA,a_1_005.jpg,n_s_024.jpg,between-big,NA,NaN,NA,left,649.0000000009313,0,1,1445
cbp6c6g5,NA,NA,cbp6c6g5,2020-0188,2021-10-05,11:37:11,13:49:02,NA,incomplete,false,NA,true,8,5,NA,NA,left,NA,NA,i_s_022.jpg,i_c_005.jpg,between-small,NA,NaN,NA,left,513,1,1,794.0000000009313
cbp6c6g5,NA,NA,cbp6c6g5,2020-0188,2021-10-05,11:37:11,13:49:02,NA,incomplete,false,NA,true,8,6,NA,NA,left,NA,NA,a_2_013.jpg,a_2_027.jpg,between-small,NA,NaN,NA,right,562.9999999990687,0,1,1249
cbp6c6g5,NA,NA,cbp6c6g5,2020-0188,2021-10-05,11:37:11,13:49:02,NA,incomplete,false,NA,true,8,7,NA,NA,left,NA,NA,c_2_001.jpg,a_2_010.jpg,within,NA,NaN,NA,left,528,1,0,2475
cbp6c6g5,NA,NA,cbp6c6g5,2020-0188,2021-10-05,11:37:11,13:49:02,NA,incomplete,false,NA,true,8,8,NA,NA,right,NA,NA,o_c_026.jpg,i_c_022.jpg,between-small,NA,NaN,NA,left,885,0,1,2078
cbp6c6g5,NA,NA,cbp6c6g5,2020-0188,2021-10-05,11:37:11,13:49:02,NA,incomplete,false,NA,true,8,9,NA,NA,right,NA,NA,a_2_013.jpg,a_1_005.jpg,within,NA,NaN,NA,left,616,0,1,769
cbp6c6g5,NA,NA,cbp6c6g5,2020-0188,2021-10-05,11:37:11,13:49:02,NA,incomplete,false,NA,true,8,10,NA,NA,right,NA,NA,o_s_015.jpg,i_s_027.jpg,within,NA,NaN,NA,left,509,0,1,904
cbp6c6g5,NA,NA,cbp6c6g5,2020-0188,2021-10-05,11:37:11,13:49:02,NA,incomplete,false,NA,true,8,11,NA,NA,right,NA,NA,c_1_015.jpg,c_2_007.jpg,within,NA,NaN,NA,left,539,0,1,1281
cbp6c6g5,NA,NA,cbp6c6g5,2020-0188,2021-10-05,11:37:11,13:49:02,NA,incomplete,false,NA,true,8,12,NA,NA,left,NA,NA,o_s_015.jpg,i_c_021.jpg,between-small,NA,NaN,NA,right,895,0,1,1290
cbp6c6g5,NA,NA,cbp6c6g5,2020-0188,2021-10-05,11:37:11,13:49:02,NA,incomplete,false,NA,true,8,13,NA,NA,left,NA,NA,i_c_021.jpg,o_c_020.jpg,within,NA,NaN,NA,left,3649.0000000009313,1,1,848
cbp6c6g5,NA,NA,cbp6c6g5,2020-0188,2021-10-05,11:37:11,13:49:02,NA,incomplete,false,NA,true,8,14,NA,NA,right,NA,NA,n_l_020.jpg,n_l_023.jpg,between-small,NA,NaN,NA,left,1248,0,1,1075
cbp6c6g5,NA,NA,cbp6c6g5,2020-0188,2021-10-05,11:37:11,13:49:02,NA,incomplete,false,NA,true,8,15,NA,NA,right,NA,NA,i_s_022.jpg,c_1_013.jpg,between-big,NA,NaN,NA,left,546.9999999990687,0,1,2226
cbp6c6g5,NA,NA,cbp6c6g5,2020-0188,2021-10-05,11:37:11,13:49:02,NA,incomplete,false,NA,true,8,16,NA,NA,left,NA,NA,m_s_017.jpg,a_1_004.jpg,between-big,NA,NaN,NA,right,2331,0,0,2807.0000000009313
cbp6c6g5,NA,NA,cbp6c6g5,2020-0188,2021-10-05,11:37:11,13:49:02,NA,incomplete,false,NA,true,8,17,NA,NA,left,NA,NA,n_l_022.jpg,n_l_018.jpg,within,NA,NaN,NA,left,536,1,1,740
cbp6c6g5,NA,NA,cbp6c6g5,2020-0188,2021-10-05,11:37:11,13:49:02,NA,incomplete,false,NA,true,8,18,NA,NA,left,NA,NA,i_s_005.jpg,i_c_022.jpg,within,NA,NaN,NA,left,534,1,1,777
cbp6c6g5,NA,NA,cbp6c6g5,2020-0188,2021-10-05,11:37:11,13:49:02,NA,incomplete,false,NA,true,8,19,NA,NA,right,NA,NA,a_1_024.jpg,c_1_015.jpg,between-small,NA,NaN,NA,left,1180,0,1,774
cbp6c6g5,NA,NA,cbp6c6g5,2020-0188,2021-10-05,11:37:11,13:49:02,NA,incomplete,false,NA,true,8,20,NA,NA,right,NA,NA,n_l_014.jpg,n_s_020.jpg,between-small,NA,NaN,NA,left,535,0,1,1297.9999999990687
cbp6c6g5,NA,NA,cbp6c6g5,2020-0188,2021-10-05,11:37:11,13:49:02,NA,incomplete,false,NA,true,8,21,NA,NA,right,NA,NA,m_l_003.jpg,n_l_018.jpg,between-small,NA,NaN,NA,right,577,1,1,1918
cbp6c6g5,NA,NA,cbp6c6g5,2020-0188,2021-10-05,11:37:11,13:49:02,NA,incomplete,false,NA,true,8,22,NA,NA,left,NA,NA,a_1_024.jpg,c_1_013.jpg,within,NA,NaN,NA,left,527.0000000009313,1,1,832
cbp6c6g5,NA,NA,cbp6c6g5,2020-0188,2021-10-05,11:37:11,13:49:02,NA,incomplete,false,NA,true,8,23,NA,NA,right,NA,NA,c_2_007.jpg,m_l_003.jpg,between-big,NA,NaN,NA,left,1883,0,1,1074
cbp6c6g5,NA,NA,cbp6c6g5,2020-0188,2021-10-05,11:37:11,13:49:02,NA,incomplete,false,NA,true,8,24,NA,NA,right,NA,NA,i_s_005.jpg,a_2_010.jpg,between-big,NA,NaN,NA,right,1097,1,1,824
cbp6c6g5,NA,NA,cbp6c6g5,2020-0188,2021-10-05,11:37:11,13:49:02,NA,incomplete,false,NA,true,8,25,NA,NA,right,NA,NA,i_s_024.jpg,i_c_005.jpg,within,NA,NaN,NA,left,539,0,1,1722
cbp6c6g5,NA,NA,cbp6c6g5,2020-0188,2021-10-05,11:37:11,13:49:02,NA,incomplete,false,NA,true,8,26,NA,NA,right,NA,NA,m_s_017.jpg,n_l_020.jpg,within,NA,NaN,NA,left,1529,0,1,2113.9999999990687
cbp6c6g5,NA,NA,cbp6c6g5,2020-0188,2021-10-05,11:37:11,13:49:02,NA,incomplete,false,true,NA,9,0,origin,m_l_017.jpg,right,natural,manmade,NA,NA,NA,right,1880,true,NA,NA,NA,NA,NA
cbp6c6g5,NA,NA,cbp6c6g5,2020-0188,2021-10-05,11:37:11,13:49:02,NA,incomplete,false,true,NA,9,1,origin,m_s_004.jpg,right,natural,manmade,NA,NA,NA,right,1191,true,NA,NA,NA,NA,NA
cbp6c6g5,NA,NA,cbp6c6g5,2020-0188,2021-10-05,11:37:11,13:49:02,NA,incomplete,false,true,NA,9,2,origin,n_l_015.jpg,right,manmade,natural,NA,NA,NA,right,1267.00000000093,true,NA,NA,NA,NA,NA
cbp6c6g5,NA,NA,cbp6c6g5,2020-0188,2021-10-05,11:37:11,13:49:02,NA,incomplete,false,true,NA,9,3,origin,m_l_010.jpg,left,manmade,natural,NA,NA,NA,left,1169,true,NA,NA,NA,NA,NA
cbp6c6g5,NA,NA,cbp6c6g5,2020-0188,2021-10-05,11:37:11,13:49:02,NA,incomplete,false,true,NA,9,4,origin,n_s_008.jpg,left,natural,manmade,NA,NA,NA,left,765,true,NA,NA,NA,NA,NA
cbp6c6g5,NA,NA,cbp6c6g5,2020-0188,2021-10-05,11:37:11,13:49:02,NA,incomplete,false,true,NA,9,5,size,n_s_022.jpg,right,large,small,NA,NA,NA,right,1183,true,NA,NA,NA,NA,NA
cbp6c6g5,NA,NA,cbp6c6g5,2020-0188,2021-10-05,11:37:11,13:49:02,NA,incomplete,false,true,NA,9,6,size,n_s_001.jpg,right,large,small,NA,NA,NA,right,844.999999999069,true,NA,NA,NA,NA,NA
cbp6c6g5,NA,NA,cbp6c6g5,2020-0188,2021-10-05,11:37:11,13:49:02,NA,incomplete,false,true,NA,9,7,size,n_s_019.jpg,right,large,small,NA,NA,NA,right,1016.00000000093,true,NA,NA,NA,NA,NA
cbp6c6g5,NA,NA,cbp6c6g5,2020-0188,2021-10-05,11:37:11,13:49:02,NA,incomplete,false,true,NA,9,8,size,m_l_015.jpg,right,small,large,NA,NA,NA,right,1979,true,NA,NA,NA,NA,NA
cbp6c6g5,NA,NA,cbp6c6g5,2020-0188,2021-10-05,11:37:11,13:49:02,NA,incomplete,false,true,NA,9,9,size,n_l_005.jpg,left,large,small,NA,NA,NA,left,1219,true,NA,NA,NA,NA,NA
cbp6c6g5,NA,NA,cbp6c6g5,2020-0188,2021-10-05,11:37:11,13:49:02,NA,incomplete,false,true,NA,9,10,abstractness,c_2_025.jpg,right,abstract,concrete,NA,NA,NA,right,1333,true,NA,NA,NA,NA,NA
cbp6c6g5,NA,NA,cbp6c6g5,2020-0188,2021-10-05,11:37:11,13:49:02,NA,incomplete,false,true,NA,9,11,abstractness,a_2_024.jpg,right,concrete,abstract,NA,NA,NA,right,2415,true,NA,NA,NA,NA,NA
cbp6c6g5,NA,NA,cbp6c6g5,2020-0188,2021-10-05,11:37:11,13:49:02,NA,incomplete,false,true,NA,9,12,abstractness,c_1_001.jpg,right,abstract,concrete,NA,NA,NA,left,2265,false,NA,NA,NA,NA,NA
cbp6c6g5,NA,NA,cbp6c6g5,2020-0188,2021-10-05,11:37:11,13:49:02,NA,incomplete,false,true,NA,9,13,abstractness,c_2_005.jpg,left,concrete,abstract,NA,NA,NA,left,2457.99999999907,true,NA,NA,NA,NA,NA
cbp6c6g5,NA,NA,cbp6c6g5,2020-0188,2021-10-05,11:37:11,13:49:02,NA,incomplete,false,true,NA,9,14,abstractness,c_2_016.jpg,right,abstract,concrete,NA,NA,NA,right,1913,true,NA,NA,NA,NA,NA
cbp6c6g5,NA,NA,cbp6c6g5,2020-0188,2021-10-05,11:37:11,13:49:02,NA,incomplete,false,true,NA,9,15,syllable,a_2_016.jpg,right,1 syllable,2 syllables,NA,NA,NA,right,1759,true,NA,NA,NA,NA,NA
cbp6c6g5,NA,NA,cbp6c6g5,2020-0188,2021-10-05,11:37:11,13:49:02,NA,incomplete,false,true,NA,9,16,syllable,c_2_020.jpg,right,1 syllable,2 syllables,NA,NA,NA,right,2390.99999999907,true,NA,NA,NA,NA,NA
cbp6c6g5,NA,NA,cbp6c6g5,2020-0188,2021-10-05,11:37:11,13:49:02,NA,incomplete,false,true,NA,9,17,syllable,a_2_001.jpg,right,2 syllables,1 syllable,NA,NA,NA,left,1276,false,NA,NA,NA,NA,NA
cbp6c6g5,NA,NA,cbp6c6g5,2020-0188,2021-10-05,11:37:11,13:49:02,NA,incomplete,false,true,NA,9,18,syllable,c_2_013.jpg,right,1 syllable,2 syllables,NA,NA,NA,right,1279,true,NA,NA,NA,NA,NA
cbp6c6g5,NA,NA,cbp6c6g5,2020-0188,2021-10-05,11:37:11,13:49:02,NA,incomplete,false,true,NA,9,19,syllable,c_1_010.jpg,right,2 syllables,1 syllable,NA,NA,NA,left,1012,false,NA,NA,NA,NA,NA
cbp6c6g5,NA,NA,cbp6c6g5,2020-0188,2021-10-05,11:37:11,13:49:02,NA,incomplete,false,true,NA,9,20,building,o_s_005.jpg,left,skyscraper,cottage,NA,NA,NA,left,1544,true,NA,NA,NA,NA,NA
cbp6c6g5,NA,NA,cbp6c6g5,2020-0188,2021-10-05,11:37:11,13:49:02,NA,incomplete,false,true,NA,9,21,building,o_c_025.jpg,right,skyscraper,cottage,NA,NA,NA,right,945,true,NA,NA,NA,NA,NA
cbp6c6g5,NA,NA,cbp6c6g5,2020-0188,2021-10-05,11:37:11,13:49:02,NA,incomplete,false,true,NA,9,22,building,i_s_028.jpg,left,skyscraper,cottage,NA,NA,NA,left,1139,true,NA,NA,NA,NA,NA
cbp6c6g5,NA,NA,cbp6c6g5,2020-0188,2021-10-05,11:37:11,13:49:02,NA,incomplete,false,true,NA,9,23,building,o_c_019.jpg,left,cottage,skyscraper,NA,NA,NA,left,789.000000000931,true,NA,NA,NA,NA,NA
cbp6c6g5,NA,NA,cbp6c6g5,2020-0188,2021-10-05,11:37:11,13:49:02,NA,incomplete,false,true,NA,9,24,building,i_c_026.jpg,right,skyscraper,cottage,NA,NA,NA,right,1004.00000000093,true,NA,NA,NA,NA,NA
cbp6c6g5,NA,NA,cbp6c6g5,2020-0188,2021-10-05,11:37:11,13:49:02,NA,incomplete,false,true,NA,9,25,location,i_s_010.jpg,left,indoor,outdoor,NA,NA,NA,left,1345,true,NA,NA,NA,NA,NA
cbp6c6g5,NA,NA,cbp6c6g5,2020-0188,2021-10-05,11:37:11,13:49:02,NA,incomplete,false,true,NA,9,26,location,i_s_011.jpg,right,outdoor,indoor,NA,NA,NA,right,1672,true,NA,NA,NA,NA,NA
cbp6c6g5,NA,NA,cbp6c6g5,2020-0188,2021-10-05,11:37:11,13:49:02,NA,incomplete,false,true,NA,9,27,location,o_c_015.jpg,right,indoor,outdoor,NA,NA,NA,right,1175.00000000093,true,NA,NA,NA,NA,NA
cbp6c6g5,NA,NA,cbp6c6g5,2020-0188,2021-10-05,11:37:11,13:49:02,NA,incomplete,false,true,NA,9,28,location,o_s_001.jpg,left,outdoor,indoor,NA,NA,NA,left,1537,true,NA,NA,NA,NA,NA
cbp6c6g5,NA,NA,cbp6c6g5,2020-0188,2021-10-05,11:37:11,13:49:02,NA,incomplete,false,true,NA,9,29,location,o_c_012.jpg,left,outdoor,indoor,NA,NA,NA,left,2492,true,NA,NA,NA,NA,NA
cbp6c6g5,NA,NA,cbp6c6g5,2020-0188,2021-10-05,11:37:11,13:49:02,NA,incomplete,false,NA,true,9,0,NA,NA,right,NA,NA,o_s_001.jpg,i_s_010.jpg,within,NA,NaN,NA,right,2278,1,1,1081.0000000009313
cbp6c6g5,NA,NA,cbp6c6g5,2020-0188,2021-10-05,11:37:11,13:49:02,NA,incomplete,false,NA,true,9,1,NA,NA,right,NA,NA,c_1_010.jpg,c_2_020.jpg,within,NA,NaN,NA,left,625,0,1,871.9999999990687
cbp6c6g5,NA,NA,cbp6c6g5,2020-0188,2021-10-05,11:37:11,13:49:02,NA,incomplete,false,NA,true,9,2,NA,NA,left,NA,NA,c_2_005.jpg,c_2_020.jpg,between-small,NA,NaN,NA,left,661,1,1,793
cbp6c6g5,NA,NA,cbp6c6g5,2020-0188,2021-10-05,11:37:11,13:49:02,NA,incomplete,false,NA,true,9,3,NA,NA,left,NA,NA,o_c_025.jpg,i_c_026.jpg,within,NA,NaN,NA,left,509,1,1,1814
cbp6c6g5,NA,NA,cbp6c6g5,2020-0188,2021-10-05,11:37:11,13:49:02,NA,incomplete,false,NA,true,9,4,NA,NA,right,NA,NA,i_s_011.jpg,o_c_019.jpg,between-small,NA,NaN,NA,left,639,0,1,3285
cbp6c6g5,NA,NA,cbp6c6g5,2020-0188,2021-10-05,11:37:11,13:49:02,NA,incomplete,false,NA,true,9,5,NA,NA,right,NA,NA,o_c_012.jpg,i_s_011.jpg,within,NA,NaN,NA,left,1714,0,1,1516
cbp6c6g5,NA,NA,cbp6c6g5,2020-0188,2021-10-05,11:37:11,13:49:02,NA,incomplete,false,NA,true,9,6,NA,NA,left,NA,NA,m_s_004.jpg,n_s_008.jpg,within,NA,NaN,NA,left,1095.9999999990687,1,0,1916
