workerId,hitId,assignmentId,subject,studyid,exp_date,exp_start,exp_end,time_start,time_end,practice,encoding,memory,block,trial,event,stim,answer,label_left,label_right,left_image,right_image,condition,response,response_time,response_acc,order_response,order_response_time,order_acc,distance_response,distance_response_time
CotpEnby,NA,NA,CotpEnby,2020-0188,2021-10-05,10:59:52,12:59:39,NA,incomplete,true,true,NA,0,0,location,i_s_011.jpg,right,outdoor,indoor,NA,NA,NA,right,1915.79999999993,true,NA,NA,NA,NA,NA
CotpEnby,NA,NA,CotpEnby,2020-0188,2021-10-05,10:59:52,12:59:39,NA,incomplete,true,true,NA,0,1,location,i_s_027.jpg,left,indoor,outdoor,NA,NA,NA,left,1778.19999999995,true,NA,NA,NA,NA,NA
CotpEnby,NA,NA,CotpEnby,2020-0188,2021-10-05,10:59:52,12:59:39,NA,incomplete,true,true,NA,0,2,location,o_c_017.jpg,right,indoor,outdoor,NA,NA,NA,right,1120.80000000005,true,NA,NA,NA,NA,NA
CotpEnby,NA,NA,CotpEnby,2020-0188,2021-10-05,10:59:52,12:59:39,NA,incomplete,true,true,NA,0,3,location,o_c_015.jpg,left,outdoor,indoor,NA,NA,NA,left,1149.90000000002,true,NA,NA,NA,NA,NA
CotpEnby,NA,NA,CotpEnby,2020-0188,2021-10-05,10:59:52,12:59:39,NA,incomplete,true,true,NA,0,4,location,i_c_005.jpg,right,outdoor,indoor,NA,NA,NA,left,769.400000000023,false,NA,NA,NA,NA,NA
CotpEnby,NA,NA,CotpEnby,2020-0188,2021-10-05,10:59:52,12:59:39,NA,incomplete,true,true,NA,0,5,building,o_s_003.jpg,right,cottage,skyscraper,NA,NA,NA,right,1261.59999999998,true,NA,NA,NA,NA,NA
CotpEnby,NA,NA,CotpEnby,2020-0188,2021-10-05,10:59:52,12:59:39,NA,incomplete,true,true,NA,0,6,building,o_s_015.jpg,right,cottage,skyscraper,NA,NA,NA,right,1414,true,NA,NA,NA,NA,NA
CotpEnby,NA,NA,CotpEnby,2020-0188,2021-10-05,10:59:52,12:59:39,NA,incomplete,true,true,NA,0,7,building,i_c_025.jpg,right,skyscraper,cottage,NA,NA,NA,right,1061.69999999995,true,NA,NA,NA,NA,NA
CotpEnby,NA,NA,CotpEnby,2020-0188,2021-10-05,10:59:52,12:59:39,NA,incomplete,true,true,NA,0,8,building,o_c_014.jpg,right,skyscraper,cottage,NA,NA,NA,right,1473.19999999995,true,NA,NA,NA,NA,NA
CotpEnby,NA,NA,CotpEnby,2020-0188,2021-10-05,10:59:52,12:59:39,NA,incomplete,true,true,NA,0,9,building,i_s_023.jpg,right,cottage,skyscraper,NA,NA,NA,right,1400.59999999998,true,NA,NA,NA,NA,NA
CotpEnby,NA,NA,CotpEnby,2020-0188,2021-10-05,10:59:52,12:59:39,NA,incomplete,true,true,NA,0,10,abstractness,a_2_026.jpg,left,abstract,concrete,NA,NA,NA,left,1836.40000000002,true,NA,NA,NA,NA,NA
CotpEnby,NA,NA,CotpEnby,2020-0188,2021-10-05,10:59:52,12:59:39,NA,incomplete,true,true,NA,0,11,abstractness,a_1_028.jpg,right,concrete,abstract,NA,NA,NA,right,2178.90000000002,true,NA,NA,NA,NA,NA
CotpEnby,NA,NA,CotpEnby,2020-0188,2021-10-05,10:59:52,12:59:39,NA,incomplete,true,true,NA,0,12,abstractness,a_2_013.jpg,left,abstract,concrete,NA,NA,NA,right,2284.80000000005,false,NA,NA,NA,NA,NA
CotpEnby,NA,NA,CotpEnby,2020-0188,2021-10-05,10:59:52,12:59:39,NA,incomplete,true,true,NA,0,13,abstractness,a_2_024.jpg,left,abstract,concrete,NA,NA,NA,right,2060.69999999995,false,NA,NA,NA,NA,NA
CotpEnby,NA,NA,CotpEnby,2020-0188,2021-10-05,10:59:52,12:59:39,NA,incomplete,true,true,NA,0,14,abstractness,a_2_002.jpg,right,concrete,abstract,NA,NA,NA,left,1998.5,false,NA,NA,NA,NA,NA
CotpEnby,NA,NA,CotpEnby,2020-0188,2021-10-05,10:59:52,12:59:39,NA,incomplete,true,true,NA,0,15,syllable,a_2_005.jpg,right,1 syllable,2 syllables,NA,NA,NA,right,1238.09999999998,true,NA,NA,NA,NA,NA
CotpEnby,NA,NA,CotpEnby,2020-0188,2021-10-05,10:59:52,12:59:39,NA,incomplete,true,true,NA,0,16,syllable,c_1_016.jpg,right,1 syllable,2 syllables,NA,NA,NA,left,3472.40000000002,false,NA,NA,NA,NA,NA
CotpEnby,NA,NA,CotpEnby,2020-0188,2021-10-05,10:59:52,12:59:39,NA,incomplete,true,true,NA,0,17,syllable,c_2_018.jpg,right,1 syllable,2 syllables,NA,NA,NA,right,1202.19999999995,true,NA,NA,NA,NA,NA
CotpEnby,NA,NA,CotpEnby,2020-0188,2021-10-05,10:59:52,12:59:39,NA,incomplete,true,true,NA,0,18,syllable,c_1_008.jpg,right,1 syllable,2 syllables,NA,NA,NA,left,731.099999999977,false,NA,NA,NA,NA,NA
CotpEnby,NA,NA,CotpEnby,2020-0188,2021-10-05,10:59:52,12:59:39,NA,incomplete,true,true,NA,0,19,syllable,c_2_027.jpg,right,1 syllable,2 syllables,NA,NA,NA,right,1337.80000000005,true,NA,NA,NA,NA,NA
CotpEnby,NA,NA,CotpEnby,2020-0188,2021-10-05,10:59:52,12:59:39,NA,incomplete,true,true,NA,0,20,origin,n_s_016.jpg,left,natural,manmade,NA,NA,NA,left,1262.69999999995,true,NA,NA,NA,NA,NA
CotpEnby,NA,NA,CotpEnby,2020-0188,2021-10-05,10:59:52,12:59:39,NA,incomplete,true,true,NA,0,21,origin,m_s_024.jpg,left,manmade,natural,NA,NA,NA,left,1017.40000000002,true,NA,NA,NA,NA,NA
CotpEnby,NA,NA,CotpEnby,2020-0188,2021-10-05,10:59:52,12:59:39,NA,incomplete,true,true,NA,0,22,origin,n_s_008.jpg,right,manmade,natural,NA,NA,NA,right,1551,true,NA,NA,NA,NA,NA
CotpEnby,NA,NA,CotpEnby,2020-0188,2021-10-05,10:59:52,12:59:39,NA,incomplete,true,true,NA,0,23,origin,n_l_022.jpg,right,manmade,natural,NA,NA,NA,right,2440.90000000002,true,NA,NA,NA,NA,NA
CotpEnby,NA,NA,CotpEnby,2020-0188,2021-10-05,10:59:52,12:59:39,NA,incomplete,true,true,NA,0,24,origin,n_s_009.jpg,right,manmade,natural,NA,NA,NA,right,1159.39999999991,true,NA,NA,NA,NA,NA
CotpEnby,NA,NA,CotpEnby,2020-0188,2021-10-05,10:59:52,12:59:39,NA,incomplete,true,true,NA,0,25,size,n_s_013.jpg,right,large,small,NA,NA,NA,right,866.300000000047,true,NA,NA,NA,NA,NA
CotpEnby,NA,NA,CotpEnby,2020-0188,2021-10-05,10:59:52,12:59:39,NA,incomplete,true,true,NA,0,26,size,m_l_028.jpg,left,large,small,NA,NA,NA,left,955.5,true,NA,NA,NA,NA,NA
CotpEnby,NA,NA,CotpEnby,2020-0188,2021-10-05,10:59:52,12:59:39,NA,incomplete,true,true,NA,0,27,size,n_l_003.jpg,left,large,small,NA,NA,NA,left,1013.80000000005,true,NA,NA,NA,NA,NA
CotpEnby,NA,NA,CotpEnby,2020-0188,2021-10-05,10:59:52,12:59:39,NA,incomplete,true,true,NA,0,28,size,m_l_022.jpg,left,large,small,NA,NA,NA,left,974.600000000093,true,NA,NA,NA,NA,NA
CotpEnby,NA,NA,CotpEnby,2020-0188,2021-10-05,10:59:52,12:59:39,NA,incomplete,true,true,NA,0,29,size,n_l_025.jpg,right,small,large,NA,NA,NA,right,963.900000000023,true,NA,NA,NA,NA,NA
CotpEnby,NA,NA,CotpEnby,2020-0188,2021-10-05,10:59:52,12:59:39,NA,incomplete,true,NA,true,0,0,NA,NA,left,NA,NA,i_c_025.jpg,a_2_026.jpg,between-big,NA,NaN,NA,left,1141.8000000000466,1,3,4073.1999999999534
CotpEnby,NA,NA,CotpEnby,2020-0188,2021-10-05,10:59:52,12:59:39,NA,incomplete,true,NA,true,0,1,NA,NA,right,NA,NA,m_l_022.jpg,n_s_013.jpg,within,NA,NaN,NA,right,1357.4000000000233,1,1,1486.7999999999302
CotpEnby,NA,NA,CotpEnby,2020-0188,2021-10-05,10:59:52,12:59:39,NA,incomplete,true,NA,true,0,2,NA,NA,left,NA,NA,o_s_015.jpg,i_s_023.jpg,within,NA,NaN,NA,left,787.7999999999302,1,0,2660.70000000007
CotpEnby,NA,NA,CotpEnby,2020-0188,2021-10-05,10:59:52,12:59:39,NA,incomplete,true,NA,true,0,3,NA,NA,right,NA,NA,c_1_008.jpg,a_2_005.jpg,within,NA,NaN,NA,left,2935.5999999999767,0,1,3222.79999999993
CotpEnby,NA,NA,CotpEnby,2020-0188,2021-10-05,10:59:52,12:59:39,NA,incomplete,true,NA,true,0,4,NA,NA,left,NA,NA,c_1_008.jpg,m_s_024.jpg,between-big,NA,NaN,NA,right,884.4000000000233,0,1,1671
CotpEnby,NA,NA,CotpEnby,2020-0188,2021-10-05,10:59:52,12:59:39,NA,incomplete,true,NA,true,0,5,NA,NA,right,NA,NA,c_2_018.jpg,a_2_002.jpg,between-small,NA,NaN,NA,left,1189.6999999999534,0,1,1074.8000000000466
CotpEnby,NA,NA,CotpEnby,2020-0188,2021-10-05,10:59:52,12:59:39,NA,incomplete,true,NA,true,0,6,NA,NA,right,NA,NA,a_2_024.jpg,a_2_026.jpg,within,NA,NaN,NA,right,3392.5999999999767,1,0,1044.5999999999767
CotpEnby,NA,NA,CotpEnby,2020-0188,2021-10-05,10:59:52,12:59:39,NA,incomplete,true,NA,true,0,7,NA,NA,left,NA,NA,n_l_022.jpg,m_l_028.jpg,between-small,NA,NaN,NA,left,1796.1999999999534,1,1,1181.3000000000466
CotpEnby,NA,NA,CotpEnby,2020-0188,2021-10-05,10:59:52,12:59:39,NA,incomplete,true,NA,true,0,8,NA,NA,right,NA,NA,c_2_027.jpg,c_1_016.jpg,within,NA,NaN,NA,left,1149.1999999999534,0,0,1261.5
CotpEnby,NA,NA,CotpEnby,2020-0188,2021-10-05,10:59:52,12:59:39,NA,incomplete,true,NA,true,0,9,NA,NA,right,NA,NA,o_c_015.jpg,i_s_011.jpg,within,NA,NaN,NA,right,1390.1999999999534,1,1,1052.6000000000931
CotpEnby,NA,NA,CotpEnby,2020-0188,2021-10-05,10:59:52,12:59:39,NA,incomplete,true,NA,true,0,10,NA,NA,left,NA,NA,o_c_015.jpg,o_s_015.jpg,between-small,NA,NaN,NA,left,2966.5999999999767,1,1,980.2999999999302
CotpEnby,NA,NA,CotpEnby,2020-0188,2021-10-05,10:59:52,12:59:39,NA,incomplete,true,NA,true,0,11,NA,NA,left,NA,NA,o_s_003.jpg,o_c_014.jpg,within,NA,NaN,NA,right,1414,0,1,1134.4000000000233
CotpEnby,NA,NA,CotpEnby,2020-0188,2021-10-05,10:59:52,12:59:39,NA,incomplete,true,NA,true,0,12,NA,NA,left,NA,NA,m_l_028.jpg,n_l_025.jpg,within,NA,NaN,NA,left,998,1,0,787
CotpEnby,NA,NA,CotpEnby,2020-0188,2021-10-05,10:59:52,12:59:39,NA,incomplete,true,NA,true,0,13,NA,NA,right,NA,NA,o_s_003.jpg,o_c_017.jpg,between-small,NA,NaN,NA,right,1116.5999999999767,1,1,1004.0999999999767
CotpEnby,NA,NA,CotpEnby,2020-0188,2021-10-05,10:59:52,12:59:39,NA,incomplete,true,NA,true,0,14,NA,NA,right,NA,NA,n_s_013.jpg,n_s_008.jpg,between-small,NA,NaN,NA,left,852,0,1,1189.5999999999767
CotpEnby,NA,NA,CotpEnby,2020-0188,2021-10-05,10:59:52,12:59:39,NA,incomplete,true,NA,true,0,15,NA,NA,right,NA,NA,n_s_009.jpg,m_s_024.jpg,within,NA,NaN,NA,left,3970.9000000000233,0,0,1116.9000000000233
CotpEnby,NA,NA,CotpEnby,2020-0188,2021-10-05,10:59:52,12:59:39,NA,incomplete,true,NA,true,0,16,NA,NA,left,NA,NA,c_2_027.jpg,n_s_008.jpg,between-big,NA,NaN,NA,right,1020.4000000000233,0,1,1085
CotpEnby,NA,NA,CotpEnby,2020-0188,2021-10-05,10:59:52,12:59:39,NA,incomplete,true,NA,true,0,17,NA,NA,right,NA,NA,i_c_025.jpg,i_c_005.jpg,between-small,NA,NaN,NA,left,683.2000000000698,0,1,1028.2999999999302
CotpEnby,NA,NA,CotpEnby,2020-0188,2021-10-05,10:59:52,12:59:39,NA,incomplete,true,NA,true,0,18,NA,NA,right,NA,NA,a_2_013.jpg,i_s_023.jpg,between-big,NA,NaN,NA,right,1301.8000000000466,1,3,1687.5999999999767
CotpEnby,NA,NA,CotpEnby,2020-0188,2021-10-05,10:59:52,12:59:39,NA,incomplete,true,NA,true,0,19,NA,NA,left,NA,NA,c_2_018.jpg,n_s_016.jpg,between-big,NA,NaN,NA,right,1341.8000000000466,0,2,947.3000000000466
CotpEnby,NA,NA,CotpEnby,2020-0188,2021-10-05,10:59:52,12:59:39,NA,incomplete,true,NA,true,0,20,NA,NA,left,NA,NA,i_s_027.jpg,i_c_005.jpg,within,NA,NaN,NA,left,761.2000000000698,1,1,1046.0999999999767
CotpEnby,NA,NA,CotpEnby,2020-0188,2021-10-05,10:59:52,12:59:39,NA,incomplete,true,NA,true,0,21,NA,NA,right,NA,NA,n_l_003.jpg,n_s_009.jpg,between-small,NA,NaN,NA,right,1230.6999999999534,1,1,866
CotpEnby,NA,NA,CotpEnby,2020-0188,2021-10-05,10:59:52,12:59:39,NA,incomplete,true,NA,true,0,22,NA,NA,left,NA,NA,a_2_024.jpg,c_1_016.jpg,between-small,NA,NaN,NA,right,2966,0,1,3158.899999999907
CotpEnby,NA,NA,CotpEnby,2020-0188,2021-10-05,10:59:52,12:59:39,NA,incomplete,true,NA,true,0,23,NA,NA,left,NA,NA,o_c_014.jpg,a_1_028.jpg,between-big,NA,NaN,NA,left,1262.0999999999767,1,3,1671.6999999999534
CotpEnby,NA,NA,CotpEnby,2020-0188,2021-10-05,10:59:52,12:59:39,NA,incomplete,true,NA,true,0,24,NA,NA,left,NA,NA,a_1_028.jpg,a_2_002.jpg,within,NA,NaN,NA,left,1672.0999999999767,1,0,1188.5
CotpEnby,NA,NA,CotpEnby,2020-0188,2021-10-05,10:59:52,12:59:39,NA,incomplete,true,NA,true,0,25,NA,NA,left,NA,NA,a_2_013.jpg,a_2_005.jpg,between-small,NA,NaN,NA,left,957.2999999999302,1,1,1084.3999999999069
CotpEnby,NA,NA,CotpEnby,2020-0188,2021-10-05,10:59:52,12:59:39,NA,incomplete,true,NA,true,0,26,NA,NA,right,NA,NA,n_l_022.jpg,n_s_016.jpg,within,NA,NaN,NA,right,1061,1,1,1068.4000000000233
CotpEnby,NA,NA,CotpEnby,2020-0188,2021-10-05,10:59:52,12:59:39,NA,incomplete,false,true,NA,1,0,size,m_s_002.jpg,right,large,small,NA,NA,NA,right,1762.5,true,NA,NA,NA,NA,NA
CotpEnby,NA,NA,CotpEnby,2020-0188,2021-10-05,10:59:52,12:59:39,NA,incomplete,false,true,NA,1,1,size,m_l_010.jpg,left,large,small,NA,NA,NA,left,732.900000000023,true,NA,NA,NA,NA,NA
CotpEnby,NA,NA,CotpEnby,2020-0188,2021-10-05,10:59:52,12:59:39,NA,incomplete,false,true,NA,1,2,size,m_s_027.jpg,left,small,large,NA,NA,NA,left,1058.79999999993,true,NA,NA,NA,NA,NA
CotpEnby,NA,NA,CotpEnby,2020-0188,2021-10-05,10:59:52,12:59:39,NA,incomplete,false,true,NA,1,3,size,m_s_021.jpg,left,small,large,NA,NA,NA,left,631.300000000047,true,NA,NA,NA,NA,NA
CotpEnby,NA,NA,CotpEnby,2020-0188,2021-10-05,10:59:52,12:59:39,NA,incomplete,false,true,NA,1,4,size,n_l_008.jpg,right,small,large,NA,NA,NA,right,1000.29999999993,true,NA,NA,NA,NA,NA
CotpEnby,NA,NA,CotpEnby,2020-0188,2021-10-05,10:59:52,12:59:39,NA,incomplete,false,true,NA,1,5,origin,n_l_004.jpg,right,manmade,natural,NA,NA,NA,right,2197.20000000007,true,NA,NA,NA,NA,NA
CotpEnby,NA,NA,CotpEnby,2020-0188,2021-10-05,10:59:52,12:59:39,NA,incomplete,false,true,NA,1,6,origin,n_l_006.jpg,left,natural,manmade,NA,NA,NA,left,1691.5,true,NA,NA,NA,NA,NA
CotpEnby,NA,NA,CotpEnby,2020-0188,2021-10-05,10:59:52,12:59:39,NA,incomplete,false,true,NA,1,7,origin,n_l_013.jpg,left,natural,manmade,NA,NA,NA,left,1177.69999999995,true,NA,NA,NA,NA,NA
CotpEnby,NA,NA,CotpEnby,2020-0188,2021-10-05,10:59:52,12:59:39,NA,incomplete,false,true,NA,1,8,origin,n_s_011.jpg,left,natural,manmade,NA,NA,NA,left,856.599999999977,true,NA,NA,NA,NA,NA
CotpEnby,NA,NA,CotpEnby,2020-0188,2021-10-05,10:59:52,12:59:39,NA,incomplete,false,true,NA,1,9,origin,m_l_023.jpg,left,manmade,natural,NA,NA,NA,left,1359.19999999995,true,NA,NA,NA,NA,NA
CotpEnby,NA,NA,CotpEnby,2020-0188,2021-10-05,10:59:52,12:59:39,NA,incomplete,false,true,NA,1,10,abstractness,a_2_007.jpg,left,abstract,concrete,NA,NA,NA,left,2147.79999999993,true,NA,NA,NA,NA,NA
CotpEnby,NA,NA,CotpEnby,2020-0188,2021-10-05,10:59:52,12:59:39,NA,incomplete,false,true,NA,1,11,abstractness,c_1_022.jpg,right,abstract,concrete,NA,NA,NA,right,1339.20000000007,true,NA,NA,NA,NA,NA
CotpEnby,NA,NA,CotpEnby,2020-0188,2021-10-05,10:59:52,12:59:39,NA,incomplete,false,true,NA,1,12,abstractness,a_1_015.jpg,right,concrete,abstract,NA,NA,NA,right,1977.69999999995,true,NA,NA,NA,NA,NA
CotpEnby,NA,NA,CotpEnby,2020-0188,2021-10-05,10:59:52,12:59:39,NA,incomplete,false,true,NA,1,13,abstractness,c_2_024.jpg,right,abstract,concrete,NA,NA,NA,left,1455.20000000007,false,NA,NA,NA,NA,NA
CotpEnby,NA,NA,CotpEnby,2020-0188,2021-10-05,10:59:52,12:59:39,NA,incomplete,false,true,NA,1,14,abstractness,a_1_024.jpg,left,abstract,concrete,NA,NA,NA,none,0,false,NA,NA,NA,NA,NA
CotpEnby,NA,NA,CotpEnby,2020-0188,2021-10-05,10:59:52,12:59:39,NA,incomplete,false,true,NA,1,15,syllable,a_1_016.jpg,right,2 syllables,1 syllable,NA,NA,NA,right,2443.19999999995,true,NA,NA,NA,NA,NA
CotpEnby,NA,NA,CotpEnby,2020-0188,2021-10-05,10:59:52,12:59:39,NA,incomplete,false,true,NA,1,16,syllable,c_2_020.jpg,right,1 syllable,2 syllables,NA,NA,NA,right,1509.10000000009,true,NA,NA,NA,NA,NA
CotpEnby,NA,NA,CotpEnby,2020-0188,2021-10-05,10:59:52,12:59:39,NA,incomplete,false,true,NA,1,17,syllable,c_2_003.jpg,right,1 syllable,2 syllables,NA,NA,NA,right,1291.09999999998,true,NA,NA,NA,NA,NA
CotpEnby,NA,NA,CotpEnby,2020-0188,2021-10-05,10:59:52,12:59:39,NA,incomplete,false,true,NA,1,18,syllable,a_2_004.jpg,right,1 syllable,2 syllables,NA,NA,NA,right,1053.90000000002,true,NA,NA,NA,NA,NA
CotpEnby,NA,NA,CotpEnby,2020-0188,2021-10-05,10:59:52,12:59:39,NA,incomplete,false,true,NA,1,19,syllable,a_1_001.jpg,right,1 syllable,2 syllables,NA,NA,NA,left,756.5,false,NA,NA,NA,NA,NA
CotpEnby,NA,NA,CotpEnby,2020-0188,2021-10-05,10:59:52,12:59:39,NA,incomplete,false,true,NA,1,20,location,i_s_016.jpg,right,outdoor,indoor,NA,NA,NA,left,1550.90000000002,false,NA,NA,NA,NA,NA
CotpEnby,NA,NA,CotpEnby,2020-0188,2021-10-05,10:59:52,12:59:39,NA,incomplete,false,true,NA,1,21,location,o_s_013.jpg,left,outdoor,indoor,NA,NA,NA,left,1657.89999999991,true,NA,NA,NA,NA,NA
CotpEnby,NA,NA,CotpEnby,2020-0188,2021-10-05,10:59:52,12:59:39,NA,incomplete,false,true,NA,1,22,location,o_s_023.jpg,left,outdoor,indoor,NA,NA,NA,left,1173.5,true,NA,NA,NA,NA,NA
CotpEnby,NA,NA,CotpEnby,2020-0188,2021-10-05,10:59:52,12:59:39,NA,incomplete,false,true,NA,1,23,location,o_c_011.jpg,right,indoor,outdoor,NA,NA,NA,right,1532.5,true,NA,NA,NA,NA,NA
CotpEnby,NA,NA,CotpEnby,2020-0188,2021-10-05,10:59:52,12:59:39,NA,incomplete,false,true,NA,1,24,location,i_s_015.jpg,left,indoor,outdoor,NA,NA,NA,left,1121.79999999993,true,NA,NA,NA,NA,NA
CotpEnby,NA,NA,CotpEnby,2020-0188,2021-10-05,10:59:52,12:59:39,NA,incomplete,false,true,NA,1,25,building,i_c_009.jpg,left,cottage,skyscraper,NA,NA,NA,left,1044.30000000005,true,NA,NA,NA,NA,NA
CotpEnby,NA,NA,CotpEnby,2020-0188,2021-10-05,10:59:52,12:59:39,NA,incomplete,false,true,NA,1,26,building,i_s_021.jpg,right,cottage,skyscraper,NA,NA,NA,right,980.79999999993,true,NA,NA,NA,NA,NA
CotpEnby,NA,NA,CotpEnby,2020-0188,2021-10-05,10:59:52,12:59:39,NA,incomplete,false,true,NA,1,27,building,o_c_022.jpg,right,skyscraper,cottage,NA,NA,NA,right,1277.5,true,NA,NA,NA,NA,NA
CotpEnby,NA,NA,CotpEnby,2020-0188,2021-10-05,10:59:52,12:59:39,NA,incomplete,false,true,NA,1,28,building,o_c_028.jpg,right,skyscraper,cottage,NA,NA,NA,right,1456.79999999993,true,NA,NA,NA,NA,NA
CotpEnby,NA,NA,CotpEnby,2020-0188,2021-10-05,10:59:52,12:59:39,NA,incomplete,false,true,NA,1,29,building,o_s_008.jpg,right,cottage,skyscraper,NA,NA,NA,right,3119.20000000007,true,NA,NA,NA,NA,NA
CotpEnby,NA,NA,CotpEnby,2020-0188,2021-10-05,10:59:52,12:59:39,NA,incomplete,false,NA,true,1,0,NA,NA,left,NA,NA,a_1_024.jpg,c_2_003.jpg,between-small,NA,NaN,NA,left,4451.59999999986,1,1,1737.2999999998137
CotpEnby,NA,NA,CotpEnby,2020-0188,2021-10-05,10:59:52,12:59:39,NA,incomplete,false,NA,true,1,1,NA,NA,left,NA,NA,n_l_008.jpg,n_l_013.jpg,between-small,NA,NaN,NA,left,760.1999999999534,1,0,875.6999999999534
CotpEnby,NA,NA,CotpEnby,2020-0188,2021-10-05,10:59:52,12:59:39,NA,incomplete,false,NA,true,1,2,NA,NA,left,NA,NA,c_2_003.jpg,i_s_016.jpg,between-big,NA,NaN,NA,left,2742.5,1,2,1616.8999999999069
CotpEnby,NA,NA,CotpEnby,2020-0188,2021-10-05,10:59:52,12:59:39,NA,incomplete,false,NA,true,1,3,NA,NA,left,NA,NA,n_l_006.jpg,m_l_023.jpg,within,NA,NaN,NA,right,1747.8000000000466,0,1,940.8000000000466
CotpEnby,NA,NA,CotpEnby,2020-0188,2021-10-05,10:59:52,12:59:39,NA,incomplete,false,NA,true,1,4,NA,NA,left,NA,NA,i_c_009.jpg,o_c_028.jpg,within,NA,NaN,NA,left,924.5,1,1,1591.6999999999534
CotpEnby,NA,NA,CotpEnby,2020-0188,2021-10-05,10:59:52,12:59:39,NA,incomplete,false,NA,true,1,5,NA,NA,right,NA,NA,o_s_008.jpg,i_s_021.jpg,within,NA,NaN,NA,left,829.1999999999534,0,1,1078.6999999999534
CotpEnby,NA,NA,CotpEnby,2020-0188,2021-10-05,10:59:52,12:59:39,NA,incomplete,false,NA,true,1,6,NA,NA,right,NA,NA,n_l_006.jpg,m_s_021.jpg,between-small,NA,NaN,NA,left,1255.8999999999069,0,1,11018.699999999953
CotpEnby,NA,NA,CotpEnby,2020-0188,2021-10-05,10:59:52,12:59:39,NA,incomplete,false,NA,true,1,7,NA,NA,left,NA,NA,o_c_011.jpg,i_s_021.jpg,between-small,NA,NaN,NA,right,1688.6999999999534,0,1,2941.5999999998603
CotpEnby,NA,NA,CotpEnby,2020-0188,2021-10-05,10:59:52,12:59:39,NA,incomplete,false,NA,true,1,8,NA,NA,left,NA,NA,a_2_004.jpg,o_s_013.jpg,between-big,NA,NaN,NA,right,1484.1000000000931,0,1,1229.5
CotpEnby,NA,NA,CotpEnby,2020-0188,2021-10-05,10:59:52,12:59:39,NA,incomplete,false,NA,true,1,9,NA,NA,right,NA,NA,a_2_004.jpg,a_1_016.jpg,within,NA,NaN,NA,right,1878.1000000000931,1,1,851.5
CotpEnby,NA,NA,CotpEnby,2020-0188,2021-10-05,10:59:52,12:59:39,NA,incomplete,false,NA,true,1,10,NA,NA,left,NA,NA,o_s_023.jpg,i_c_009.jpg,between-small,NA,NaN,NA,right,1235.5,0,1,1004.6000000000931
CotpEnby,NA,NA,CotpEnby,2020-0188,2021-10-05,10:59:52,12:59:39,NA,incomplete,false,NA,true,1,11,NA,NA,right,NA,NA,a_1_015.jpg,m_l_023.jpg,between-big,NA,NaN,NA,right,851.3999999999069,1,2,948
CotpEnby,NA,NA,CotpEnby,2020-0188,2021-10-05,10:59:52,12:59:39,NA,incomplete,false,NA,true,1,12,NA,NA,left,NA,NA,o_s_013.jpg,i_s_015.jpg,within,NA,NaN,NA,right,1170.4000000001397,0,1,1163.4000000001397
CotpEnby,NA,NA,CotpEnby,2020-0188,2021-10-05,10:59:52,12:59:39,NA,incomplete,false,NA,true,1,13,NA,NA,left,NA,NA,m_s_002.jpg,m_s_021.jpg,within,NA,NaN,NA,left,5997.799999999814,1,2,1206.6000000000931
CotpEnby,NA,NA,CotpEnby,2020-0188,2021-10-05,10:59:52,12:59:39,NA,incomplete,false,NA,true,1,14,NA,NA,left,NA,NA,n_s_011.jpg,c_1_022.jpg,between-big,NA,NaN,NA,left,66659.90000000014,1,2,1005.8999999999069
CotpEnby,NA,NA,CotpEnby,2020-0188,2021-10-05,10:59:52,12:59:39,NA,incomplete,false,NA,true,1,15,NA,NA,right,NA,NA,o_c_011.jpg,i_s_016.jpg,within,NA,NaN,NA,right,1585,1,1,3468.5
CotpEnby,NA,NA,CotpEnby,2020-0188,2021-10-05,10:59:52,12:59:39,NA,incomplete,false,NA,true,1,16,NA,NA,left,NA,NA,n_l_013.jpg,a_2_007.jpg,between-big,NA,NaN,NA,right,37474,0,1,1615.5
CotpEnby,NA,NA,CotpEnby,2020-0188,2021-10-05,10:59:52,12:59:39,NA,incomplete,false,NA,true,1,17,NA,NA,left,NA,NA,a_1_001.jpg,o_s_023.jpg,between-big,NA,NaN,NA,right,724.2000000001863,0,1,1848.6999999999534
CotpEnby,NA,NA,CotpEnby,2020-0188,2021-10-05,10:59:52,12:59:39,NA,incomplete,false,NA,true,1,18,NA,NA,right,NA,NA,a_1_016.jpg,a_1_015.jpg,between-small,NA,NaN,NA,right,2950,1,0,1776.8000000000466
CotpEnby,NA,NA,CotpEnby,2020-0188,2021-10-05,10:59:52,12:59:39,NA,incomplete,false,NA,true,1,19,NA,NA,left,NA,NA,a_2_007.jpg,c_2_024.jpg,within,NA,NaN,NA,right,1993.7000000001863,0,0,2467.5
CotpEnby,NA,NA,CotpEnby,2020-0188,2021-10-05,10:59:52,12:59:39,NA,incomplete,false,NA,true,1,20,NA,NA,left,NA,NA,m_l_010.jpg,n_l_008.jpg,within,NA,NaN,NA,right,958.8000000000466,0,0,1251.9000000001397
CotpEnby,NA,NA,CotpEnby,2020-0188,2021-10-05,10:59:52,12:59:39,NA,incomplete,false,NA,true,1,21,NA,NA,right,NA,NA,c_2_020.jpg,c_2_024.jpg,between-small,NA,NaN,NA,right,1485,1,0,1172.8999999999069
CotpEnby,NA,NA,CotpEnby,2020-0188,2021-10-05,10:59:52,12:59:39,NA,incomplete,false,NA,true,1,22,NA,NA,right,NA,NA,n_l_004.jpg,m_s_027.jpg,between-small,NA,NaN,NA,right,1816.1999999999534,1,1,1061.3999999999069
CotpEnby,NA,NA,CotpEnby,2020-0188,2021-10-05,10:59:52,12:59:39,NA,incomplete,false,NA,true,1,23,NA,NA,right,NA,NA,o_c_022.jpg,i_s_015.jpg,between-small,NA,NaN,NA,right,2210.3000000000466,1,1,1423.3999999999069
CotpEnby,NA,NA,CotpEnby,2020-0188,2021-10-05,10:59:52,12:59:39,NA,incomplete,false,NA,true,1,24,NA,NA,left,NA,NA,c_2_020.jpg,a_1_001.jpg,within,NA,NaN,NA,left,891.8000000000466,1,2,2653.5
CotpEnby,NA,NA,CotpEnby,2020-0188,2021-10-05,10:59:52,12:59:39,NA,incomplete,false,NA,true,1,25,NA,NA,left,NA,NA,c_1_022.jpg,a_1_024.jpg,within,NA,NaN,NA,left,1171.5,1,0,941.8999999999069
CotpEnby,NA,NA,CotpEnby,2020-0188,2021-10-05,10:59:52,12:59:39,NA,incomplete,false,NA,true,1,26,NA,NA,right,NA,NA,n_s_011.jpg,n_l_004.jpg,within,NA,NaN,NA,left,1695.8999999999069,0,1,971.8000000000466
CotpEnby,NA,NA,CotpEnby,2020-0188,2021-10-05,10:59:52,12:59:39,NA,incomplete,false,true,NA,2,0,location,o_c_013.jpg,right,indoor,outdoor,NA,NA,NA,right,1284.89999999991,true,NA,NA,NA,NA,NA
CotpEnby,NA,NA,CotpEnby,2020-0188,2021-10-05,10:59:52,12:59:39,NA,incomplete,false,true,NA,2,1,location,o_s_024.jpg,left,outdoor,indoor,NA,NA,NA,left,923.5,true,NA,NA,NA,NA,NA
CotpEnby,NA,NA,CotpEnby,2020-0188,2021-10-05,10:59:52,12:59:39,NA,incomplete,false,true,NA,2,2,location,i_c_021.jpg,left,indoor,outdoor,NA,NA,NA,left,2663.69999999995,true,NA,NA,NA,NA,NA
CotpEnby,NA,NA,CotpEnby,2020-0188,2021-10-05,10:59:52,12:59:39,NA,incomplete,false,true,NA,2,3,location,i_c_001.jpg,right,outdoor,indoor,NA,NA,NA,none,0,false,NA,NA,NA,NA,NA
CotpEnby,NA,NA,CotpEnby,2020-0188,2021-10-05,10:59:52,12:59:39,NA,incomplete,false,true,NA,2,4,location,i_c_020.jpg,right,outdoor,indoor,NA,NA,NA,left,2257.89999999991,false,NA,NA,NA,NA,NA
CotpEnby,NA,NA,CotpEnby,2020-0188,2021-10-05,10:59:52,12:59:39,NA,incomplete,false,true,NA,2,5,building,o_s_007.jpg,right,cottage,skyscraper,NA,NA,NA,none,0,false,NA,NA,NA,NA,NA
CotpEnby,NA,NA,CotpEnby,2020-0188,2021-10-05,10:59:52,12:59:39,NA,incomplete,false,true,NA,2,6,building,i_s_006.jpg,right,cottage,skyscraper,NA,NA,NA,none,0,false,NA,NA,NA,NA,NA
CotpEnby,NA,NA,CotpEnby,2020-0188,2021-10-05,10:59:52,12:59:39,NA,incomplete,false,true,NA,2,7,building,i_c_004.jpg,left,cottage,skyscraper,NA,NA,NA,none,0,false,NA,NA,NA,NA,NA
CotpEnby,NA,NA,CotpEnby,2020-0188,2021-10-05,10:59:52,12:59:39,NA,incomplete,false,true,NA,2,8,building,i_s_008.jpg,left,skyscraper,cottage,NA,NA,NA,none,0,false,NA,NA,NA,NA,NA
CotpEnby,NA,NA,CotpEnby,2020-0188,2021-10-05,10:59:52,12:59:39,NA,incomplete,false,true,NA,2,9,building,i_s_022.jpg,right,cottage,skyscraper,NA,NA,NA,none,0,false,NA,NA,NA,NA,NA
CotpEnby,NA,NA,CotpEnby,2020-0188,2021-10-05,10:59:52,12:59:39,NA,incomplete,false,true,NA,2,10,syllable,a_2_019.jpg,right,2 syllables,1 syllable,NA,NA,NA,left,1141.40000000014,false,NA,NA,NA,NA,NA
CotpEnby,NA,NA,CotpEnby,2020-0188,2021-10-05,10:59:52,12:59:39,NA,incomplete,false,true,NA,2,11,syllable,a_1_013.jpg,right,2 syllables,1 syllable,NA,NA,NA,right,713.399999999907,true,NA,NA,NA,NA,NA
CotpEnby,NA,NA,CotpEnby,2020-0188,2021-10-05,10:59:52,12:59:39,NA,incomplete,false,true,NA,2,12,syllable,c_2_017.jpg,right,2 syllables,1 syllable,NA,NA,NA,left,2466.5,false,NA,NA,NA,NA,NA
CotpEnby,NA,NA,CotpEnby,2020-0188,2021-10-05,10:59:52,12:59:39,NA,incomplete,false,true,NA,2,13,syllable,a_2_016.jpg,right,2 syllables,1 syllable,NA,NA,NA,left,1594.39999999991,false,NA,NA,NA,NA,NA
CotpEnby,NA,NA,CotpEnby,2020-0188,2021-10-05,10:59:52,12:59:39,NA,incomplete,false,true,NA,2,14,syllable,c_2_014.jpg,right,1 syllable,2 syllables,NA,NA,NA,right,1181.30000000005,true,NA,NA,NA,NA,NA
CotpEnby,NA,NA,CotpEnby,2020-0188,2021-10-05,10:59:52,12:59:39,NA,incomplete,false,true,NA,2,15,abstractness,a_2_025.jpg,right,concrete,abstract,NA,NA,NA,right,1102.40000000014,true,NA,NA,NA,NA,NA
CotpEnby,NA,NA,CotpEnby,2020-0188,2021-10-05,10:59:52,12:59:39,NA,incomplete,false,true,NA,2,16,abstractness,a_2_020.jpg,left,abstract,concrete,NA,NA,NA,left,2898.79999999981,true,NA,NA,NA,NA,NA
CotpEnby,NA,NA,CotpEnby,2020-0188,2021-10-05,10:59:52,12:59:39,NA,incomplete,false,true,NA,2,17,abstractness,a_1_019.jpg,left,abstract,concrete,NA,NA,NA,right,3255.19999999995,false,NA,NA,NA,NA,NA
CotpEnby,NA,NA,CotpEnby,2020-0188,2021-10-05,10:59:52,12:59:39,NA,incomplete,false,true,NA,2,18,abstractness,c_1_020.jpg,left,concrete,abstract,NA,NA,NA,left,3393.69999999995,true,NA,NA,NA,NA,NA
CotpEnby,NA,NA,CotpEnby,2020-0188,2021-10-05,10:59:52,12:59:39,NA,incomplete,false,true,NA,2,19,abstractness,a_1_010.jpg,left,abstract,concrete,NA,NA,NA,left,1819.10000000009,true,NA,NA,NA,NA,NA
CotpEnby,NA,NA,CotpEnby,2020-0188,2021-10-05,10:59:52,12:59:39,NA,incomplete,false,true,NA,2,20,origin,n_s_010.jpg,left,natural,manmade,NA,NA,NA,left,850.699999999953,true,NA,NA,NA,NA,NA
CotpEnby,NA,NA,CotpEnby,2020-0188,2021-10-05,10:59:52,12:59:39,NA,incomplete,false,true,NA,2,21,origin,m_l_025.jpg,left,manmade,natural,NA,NA,NA,left,1661.30000000005,true,NA,NA,NA,NA,NA
CotpEnby,NA,NA,CotpEnby,2020-0188,2021-10-05,10:59:52,12:59:39,NA,incomplete,false,true,NA,2,22,origin,m_l_020.jpg,right,natural,manmade,NA,NA,NA,right,1397.5,true,NA,NA,NA,NA,NA
CotpEnby,NA,NA,CotpEnby,2020-0188,2021-10-05,10:59:52,12:59:39,NA,incomplete,false,true,NA,2,23,origin,m_l_008.jpg,right,natural,manmade,NA,NA,NA,right,2118.69999999995,true,NA,NA,NA,NA,NA
CotpEnby,NA,NA,CotpEnby,2020-0188,2021-10-05,10:59:52,12:59:39,NA,incomplete,false,true,NA,2,24,origin,n_l_011.jpg,right,manmade,natural,NA,NA,NA,right,1727.5,true,NA,NA,NA,NA,NA
CotpEnby,NA,NA,CotpEnby,2020-0188,2021-10-05,10:59:52,12:59:39,NA,incomplete,false,true,NA,2,25,size,n_l_020.jpg,right,small,large,NA,NA,NA,right,2443.40000000014,true,NA,NA,NA,NA,NA
CotpEnby,NA,NA,CotpEnby,2020-0188,2021-10-05,10:59:52,12:59:39,NA,incomplete,false,true,NA,2,26,size,n_l_010.jpg,right,small,large,NA,NA,NA,right,1494.19999999995,true,NA,NA,NA,NA,NA
CotpEnby,NA,NA,CotpEnby,2020-0188,2021-10-05,10:59:52,12:59:39,NA,incomplete,false,true,NA,2,27,size,n_s_002.jpg,left,small,large,NA,NA,NA,left,826.5,true,NA,NA,NA,NA,NA
CotpEnby,NA,NA,CotpEnby,2020-0188,2021-10-05,10:59:52,12:59:39,NA,incomplete,false,true,NA,2,28,size,m_s_001.jpg,left,small,large,NA,NA,NA,left,1986.30000000005,true,NA,NA,NA,NA,NA
CotpEnby,NA,NA,CotpEnby,2020-0188,2021-10-05,10:59:52,12:59:39,NA,incomplete,false,true,NA,2,29,size,m_l_024.jpg,right,small,large,NA,NA,NA,right,1445.60000000009,true,NA,NA,NA,NA,NA
CotpEnby,NA,NA,CotpEnby,2020-0188,2021-10-05,10:59:52,12:59:39,NA,incomplete,false,NA,true,2,0,NA,NA,right,NA,NA,m_l_024.jpg,n_l_010.jpg,within,NA,NaN,NA,right,1976,1,1,1575
CotpEnby,NA,NA,CotpEnby,2020-0188,2021-10-05,10:59:52,12:59:39,NA,incomplete,false,NA,true,2,1,NA,NA,right,NA,NA,a_2_025.jpg,c_2_017.jpg,between-small,NA,NaN,NA,left,789.8000000000466,0,1,1062.0999999998603
CotpEnby,NA,NA,CotpEnby,2020-0188,2021-10-05,10:59:52,12:59:39,NA,incomplete,false,NA,true,2,2,NA,NA,left,NA,NA,a_2_019.jpg,a_2_016.jpg,within,NA,NaN,NA,right,570.5999999998603,0,1,1598.1999999999534
CotpEnby,NA,NA,CotpEnby,2020-0188,2021-10-05,10:59:52,12:59:39,NA,incomplete,false,NA,true,2,3,NA,NA,right,NA,NA,n_l_020.jpg,m_l_020.jpg,between-small,NA,NaN,NA,left,4668.199999999953,0,1,1219.8000000000466
CotpEnby,NA,NA,CotpEnby,2020-0188,2021-10-05,10:59:52,12:59:39,NA,incomplete,false,NA,true,2,4,NA,NA,right,NA,NA,a_2_020.jpg,a_2_016.jpg,between-small,NA,NaN,NA,left,2580.899999999907,0,1,1654.8999999999069
CotpEnby,NA,NA,CotpEnby,2020-0188,2021-10-05,10:59:52,12:59:39,NA,incomplete,false,NA,true,2,5,NA,NA,left,NA,NA,o_s_007.jpg,i_s_008.jpg,within,NA,NaN,NA,left,1559,1,1,1164.8999999999069
CotpEnby,NA,NA,CotpEnby,2020-0188,2021-10-05,10:59:52,12:59:39,NA,incomplete,false,NA,true,2,6,NA,NA,right,NA,NA,o_s_007.jpg,i_c_021.jpg,between-small,NA,NaN,NA,right,1237.6000000000931,1,1,1413.8999999999069
CotpEnby,NA,NA,CotpEnby,2020-0188,2021-10-05,10:59:52,12:59:39,NA,incomplete,false,NA,true,2,7,NA,NA,left,NA,NA,a_2_025.jpg,c_1_020.jpg,within,NA,NaN,NA,right,1382.1000000000931,0,1,1141.5999999998603
CotpEnby,NA,NA,CotpEnby,2020-0188,2021-10-05,10:59:52,12:59:39,NA,incomplete,false,NA,true,2,8,NA,NA,right,NA,NA,c_2_014.jpg,a_1_013.jpg,within,NA,NaN,NA,right,1603.3000000000466,1,1,1285
CotpEnby,NA,NA,CotpEnby,2020-0188,2021-10-05,10:59:52,12:59:39,NA,incomplete,false,NA,true,2,9,NA,NA,left,NA,NA,m_l_025.jpg,n_l_011.jpg,within,NA,NaN,NA,right,1320.3999999999069,0,2,1441.2999999998137
CotpEnby,NA,NA,CotpEnby,2020-0188,2021-10-05,10:59:52,12:59:39,NA,incomplete,false,NA,true,2,10,NA,NA,left,NA,NA,i_c_020.jpg,i_c_004.jpg,between-small,NA,NaN,NA,right,1325.3999999999069,0,1,1335.8000000000466
CotpEnby,NA,NA,CotpEnby,2020-0188,2021-10-05,10:59:52,12:59:39,NA,incomplete,false,NA,true,2,11,NA,NA,right,NA,NA,i_c_020.jpg,o_s_024.jpg,within,NA,NaN,NA,right,1374,1,2,1554.5
CotpEnby,NA,NA,CotpEnby,2020-0188,2021-10-05,10:59:52,12:59:39,NA,incomplete,false,NA,true,2,12,NA,NA,left,NA,NA,i_c_004.jpg,a_2_019.jpg,between-big,NA,NaN,NA,left,1510.5,1,1,1358.5
CotpEnby,NA,NA,CotpEnby,2020-0188,2021-10-05,10:59:52,12:59:39,NA,incomplete,false,NA,true,2,13,NA,NA,right,NA,NA,c_2_017.jpg,i_s_022.jpg,between-big,NA,NaN,NA,right,819.5,1,2,987.8000000000466
CotpEnby,NA,NA,CotpEnby,2020-0188,2021-10-05,10:59:52,12:59:39,NA,incomplete,false,NA,true,2,14,NA,NA,left,NA,NA,a_1_010.jpg,m_l_020.jpg,between-big,NA,NaN,NA,right,2780,0,1,1022.1999999999534
CotpEnby,NA,NA,CotpEnby,2020-0188,2021-10-05,10:59:52,12:59:39,NA,incomplete,false,NA,true,2,15,NA,NA,right,NA,NA,m_l_008.jpg,n_s_010.jpg,within,NA,NaN,NA,right,825.8000000000466,1,1,1068.3999999999069
CotpEnby,NA,NA,CotpEnby,2020-0188,2021-10-05,10:59:52,12:59:39,NA,incomplete,false,NA,true,2,16,NA,NA,right,NA,NA,n_s_010.jpg,a_1_019.jpg,between-big,NA,NaN,NA,right,795.6000000000931,1,1,1470.1000000000931
CotpEnby,NA,NA,CotpEnby,2020-0188,2021-10-05,10:59:52,12:59:39,NA,incomplete,false,NA,true,2,17,NA,NA,left,NA,NA,c_1_020.jpg,m_l_025.jpg,between-big,NA,NaN,NA,right,771.6999999999534,0,2,1108.8000000000466
CotpEnby,NA,NA,CotpEnby,2020-0188,2021-10-05,10:59:52,12:59:39,NA,incomplete,false,NA,true,2,18,NA,NA,right,NA,NA,n_l_010.jpg,m_l_008.jpg,between-small,NA,NaN,NA,left,2081.3000000000466,0,1,1052.2000000001863
CotpEnby,NA,NA,CotpEnby,2020-0188,2021-10-05,10:59:52,12:59:39,NA,incomplete,false,NA,true,2,19,NA,NA,right,NA,NA,i_c_001.jpg,o_c_013.jpg,within,NA,NaN,NA,right,795.6000000000931,1,1,1221.1000000000931
CotpEnby,NA,NA,CotpEnby,2020-0188,2021-10-05,10:59:52,12:59:39,NA,incomplete,false,NA,true,2,20,NA,NA,right,NA,NA,i_s_006.jpg,i_c_001.jpg,between-small,NA,NaN,NA,left,1353.8000000000466,0,1,2174.9000000001397
CotpEnby,NA,NA,CotpEnby,2020-0188,2021-10-05,10:59:52,12:59:39,NA,incomplete,false,NA,true,2,21,NA,NA,left,NA,NA,c_2_014.jpg,a_1_019.jpg,between-small,NA,NaN,NA,right,739.9000000001397,0,1,2220.3000000000466
CotpEnby,NA,NA,CotpEnby,2020-0188,2021-10-05,10:59:52,12:59:39,NA,incomplete,false,NA,true,2,22,NA,NA,right,NA,NA,m_s_001.jpg,n_l_020.jpg,within,NA,NaN,NA,right,724,1,1,1099.3999999999069
CotpEnby,NA,NA,CotpEnby,2020-0188,2021-10-05,10:59:52,12:59:39,NA,incomplete,false,NA,true,2,23,NA,NA,right,NA,NA,a_1_013.jpg,i_s_008.jpg,between-big,NA,NaN,NA,right,754.6000000000931,1,1,1669.5
CotpEnby,NA,NA,CotpEnby,2020-0188,2021-10-05,10:59:52,12:59:39,NA,incomplete,false,NA,true,2,24,NA,NA,right,NA,NA,a_1_010.jpg,a_2_020.jpg,within,NA,NaN,NA,right,739.3999999999069,1,1,1189.8999999999069
CotpEnby,NA,NA,CotpEnby,2020-0188,2021-10-05,10:59:52,12:59:39,NA,incomplete,false,NA,true,2,25,NA,NA,left,NA,NA,i_s_006.jpg,i_s_022.jpg,within,NA,NaN,NA,left,812.6999999999534,1,1,1277.6999999999534
CotpEnby,NA,NA,CotpEnby,2020-0188,2021-10-05,10:59:52,12:59:39,NA,incomplete,false,NA,true,2,26,NA,NA,right,NA,NA,n_s_002.jpg,n_l_011.jpg,between-small,NA,NaN,NA,right,899.5,1,3,1349.3000000000466
CotpEnby,NA,NA,CotpEnby,2020-0188,2021-10-05,10:59:52,12:59:39,NA,incomplete,false,true,NA,3,0,location,o_c_024.jpg,right,indoor,outdoor,NA,NA,NA,right,2527.29999999981,true,NA,NA,NA,NA,NA
CotpEnby,NA,NA,CotpEnby,2020-0188,2021-10-05,10:59:52,12:59:39,NA,incomplete,false,true,NA,3,1,location,i_s_012.jpg,left,indoor,outdoor,NA,NA,NA,left,1629.80000000005,true,NA,NA,NA,NA,NA
CotpEnby,NA,NA,CotpEnby,2020-0188,2021-10-05,10:59:52,12:59:39,NA,incomplete,false,true,NA,3,2,location,o_s_006.jpg,right,indoor,outdoor,NA,NA,NA,right,1207.80000000005,true,NA,NA,NA,NA,NA
CotpEnby,NA,NA,CotpEnby,2020-0188,2021-10-05,10:59:52,12:59:39,NA,incomplete,false,true,NA,3,3,location,i_c_015.jpg,right,outdoor,indoor,NA,NA,NA,right,993.59999999986,true,NA,NA,NA,NA,NA
CotpEnby,NA,NA,CotpEnby,2020-0188,2021-10-05,10:59:52,12:59:39,NA,incomplete,false,true,NA,3,4,location,o_c_016.jpg,right,indoor,outdoor,NA,NA,NA,right,3254.19999999995,true,NA,NA,NA,NA,NA
CotpEnby,NA,NA,CotpEnby,2020-0188,2021-10-05,10:59:52,12:59:39,NA,incomplete,false,true,NA,3,5,building,i_c_010.jpg,right,skyscraper,cottage,NA,NA,NA,right,1540.69999999995,true,NA,NA,NA,NA,NA
CotpEnby,NA,NA,CotpEnby,2020-0188,2021-10-05,10:59:52,12:59:39,NA,incomplete,false,true,NA,3,6,building,o_s_018.jpg,right,cottage,skyscraper,NA,NA,NA,right,1037.5,true,NA,NA,NA,NA,NA
CotpEnby,NA,NA,CotpEnby,2020-0188,2021-10-05,10:59:52,12:59:39,NA,incomplete,false,true,NA,3,7,building,o_s_019.jpg,right,cottage,skyscraper,NA,NA,NA,right,1734.30000000005,true,NA,NA,NA,NA,NA
CotpEnby,NA,NA,CotpEnby,2020-0188,2021-10-05,10:59:52,12:59:39,NA,incomplete,false,true,NA,3,8,building,i_c_007.jpg,left,cottage,skyscraper,NA,NA,NA,left,1531.10000000009,true,NA,NA,NA,NA,NA
CotpEnby,NA,NA,CotpEnby,2020-0188,2021-10-05,10:59:52,12:59:39,NA,incomplete,false,true,NA,3,9,building,o_c_008.jpg,right,skyscraper,cottage,NA,NA,NA,right,1461.5,true,NA,NA,NA,NA,NA
CotpEnby,NA,NA,CotpEnby,2020-0188,2021-10-05,10:59:52,12:59:39,NA,incomplete,false,true,NA,3,10,syllable,a_2_001.jpg,right,2 syllables,1 syllable,NA,NA,NA,left,1895.80000000005,false,NA,NA,NA,NA,NA
CotpEnby,NA,NA,CotpEnby,2020-0188,2021-10-05,10:59:52,12:59:39,NA,incomplete,false,true,NA,3,11,syllable,c_1_017.jpg,right,1 syllable,2 syllables,NA,NA,NA,left,1402.40000000014,false,NA,NA,NA,NA,NA
CotpEnby,NA,NA,CotpEnby,2020-0188,2021-10-05,10:59:52,12:59:39,NA,incomplete,false,true,NA,3,12,syllable,c_1_007.jpg,right,1 syllable,2 syllables,NA,NA,NA,left,1843.29999999981,false,NA,NA,NA,NA,NA
CotpEnby,NA,NA,CotpEnby,2020-0188,2021-10-05,10:59:52,12:59:39,NA,incomplete,false,true,NA,3,13,syllable,a_1_021.jpg,right,1 syllable,2 syllables,NA,NA,NA,left,2295.19999999995,false,NA,NA,NA,NA,NA
CotpEnby,NA,NA,CotpEnby,2020-0188,2021-10-05,10:59:52,12:59:39,NA,incomplete,false,true,NA,3,14,syllable,c_2_006.jpg,right,1 syllable,2 syllables,NA,NA,NA,right,1771,true,NA,NA,NA,NA,NA
CotpEnby,NA,NA,CotpEnby,2020-0188,2021-10-05,10:59:52,12:59:39,NA,incomplete,false,true,NA,3,15,abstractness,c_2_010.jpg,left,concrete,abstract,NA,NA,NA,right,1418,false,NA,NA,NA,NA,NA
CotpEnby,NA,NA,CotpEnby,2020-0188,2021-10-05,10:59:52,12:59:39,NA,incomplete,false,true,NA,3,16,abstractness,c_1_010.jpg,left,concrete,abstract,NA,NA,NA,left,1716.69999999995,true,NA,NA,NA,NA,NA
CotpEnby,NA,NA,CotpEnby,2020-0188,2021-10-05,10:59:52,12:59:39,NA,incomplete,false,true,NA,3,17,abstractness,c_2_013.jpg,left,concrete,abstract,NA,NA,NA,none,0,false,NA,NA,NA,NA,NA
CotpEnby,NA,NA,CotpEnby,2020-0188,2021-10-05,10:59:52,12:59:39,NA,incomplete,false,true,NA,3,18,abstractness,c_1_015.jpg,left,concrete,abstract,NA,NA,NA,none,0,false,NA,NA,NA,NA,NA
CotpEnby,NA,NA,CotpEnby,2020-0188,2021-10-05,10:59:52,12:59:39,NA,incomplete,false,true,NA,3,19,abstractness,c_1_002.jpg,left,concrete,abstract,NA,NA,NA,none,0,false,NA,NA,NA,NA,NA
CotpEnby,NA,NA,CotpEnby,2020-0188,2021-10-05,10:59:52,12:59:39,NA,incomplete,false,true,NA,3,20,size,n_l_021.jpg,left,large,small,NA,NA,NA,none,0,false,NA,NA,NA,NA,NA
CotpEnby,NA,NA,CotpEnby,2020-0188,2021-10-05,10:59:52,12:59:39,NA,incomplete,false,true,NA,3,21,size,m_l_017.jpg,left,large,small,NA,NA,NA,left,3451.40000000014,true,NA,NA,NA,NA,NA
CotpEnby,NA,NA,CotpEnby,2020-0188,2021-10-05,10:59:52,12:59:39,NA,incomplete,false,true,NA,3,22,size,m_s_023.jpg,left,small,large,NA,NA,NA,left,935,true,NA,NA,NA,NA,NA
CotpEnby,NA,NA,CotpEnby,2020-0188,2021-10-05,10:59:52,12:59:39,NA,incomplete,false,true,NA,3,23,size,n_l_028.jpg,right,small,large,NA,NA,NA,right,1263.10000000009,true,NA,NA,NA,NA,NA
CotpEnby,NA,NA,CotpEnby,2020-0188,2021-10-05,10:59:52,12:59:39,NA,incomplete,false,true,NA,3,24,size,m_s_025.jpg,left,small,large,NA,NA,NA,left,981.100000000093,true,NA,NA,NA,NA,NA
CotpEnby,NA,NA,CotpEnby,2020-0188,2021-10-05,10:59:52,12:59:39,NA,incomplete,false,true,NA,3,25,origin,n_s_023.jpg,right,manmade,natural,NA,NA,NA,right,1302.10000000009,true,NA,NA,NA,NA,NA
CotpEnby,NA,NA,CotpEnby,2020-0188,2021-10-05,10:59:52,12:59:39,NA,incomplete,false,true,NA,3,26,origin,m_s_007.jpg,left,manmade,natural,NA,NA,NA,left,1991.10000000009,true,NA,NA,NA,NA,NA
CotpEnby,NA,NA,CotpEnby,2020-0188,2021-10-05,10:59:52,12:59:39,NA,incomplete,false,true,NA,3,27,origin,m_l_011.jpg,right,natural,manmade,NA,NA,NA,right,2138.30000000005,true,NA,NA,NA,NA,NA
CotpEnby,NA,NA,CotpEnby,2020-0188,2021-10-05,10:59:52,12:59:39,NA,incomplete,false,true,NA,3,28,origin,m_s_003.jpg,right,natural,manmade,NA,NA,NA,right,1183.40000000014,true,NA,NA,NA,NA,NA
CotpEnby,NA,NA,CotpEnby,2020-0188,2021-10-05,10:59:52,12:59:39,NA,incomplete,false,true,NA,3,29,origin,m_s_014.jpg,right,natural,manmade,NA,NA,NA,right,2503.40000000014,true,NA,NA,NA,NA,NA
CotpEnby,NA,NA,CotpEnby,2020-0188,2021-10-05,10:59:52,12:59:39,NA,incomplete,false,NA,true,3,0,NA,NA,right,NA,NA,m_l_011.jpg,m_s_025.jpg,between-small,NA,NaN,NA,left,1790.6000000000931,0,2,2098
CotpEnby,NA,NA,CotpEnby,2020-0188,2021-10-05,10:59:52,12:59:39,NA,incomplete,false,NA,true,3,1,NA,NA,left,NA,NA,c_1_017.jpg,c_2_006.jpg,within,NA,NaN,NA,right,1187.6999999997206,0,1,1681.8999999999069
CotpEnby,NA,NA,CotpEnby,2020-0188,2021-10-05,10:59:52,12:59:39,NA,incomplete,false,NA,true,3,2,NA,NA,left,NA,NA,m_s_023.jpg,n_s_023.jpg,between-small,NA,NaN,NA,right,708.3999999999069,0,2,3890.399999999907
CotpEnby,NA,NA,CotpEnby,2020-0188,2021-10-05,10:59:52,12:59:39,NA,incomplete,false,NA,true,3,3,NA,NA,left,NA,NA,o_s_006.jpg,i_c_010.jpg,between-small,NA,NaN,NA,left,1149.2999999998137,1,1,1220.7000000001863
CotpEnby,NA,NA,CotpEnby,2020-0188,2021-10-05,10:59:52,12:59:39,NA,incomplete,false,NA,true,3,4,NA,NA,left,NA,NA,o_s_019.jpg,a_2_001.jpg,between-big,NA,NaN,NA,left,51929.30000000028,1,1,1434.4000000003725
CotpEnby,NA,NA,CotpEnby,2020-0188,2021-10-05,10:59:52,12:59:39,NA,incomplete,false,NA,true,3,5,NA,NA,left,NA,NA,i_c_010.jpg,i_c_007.jpg,within,NA,NaN,NA,right,594.6999999997206,0,2,1031.6000000000931
CotpEnby,NA,NA,CotpEnby,2020-0188,2021-10-05,10:59:52,12:59:39,NA,incomplete,false,NA,true,3,6,NA,NA,left,NA,NA,m_l_017.jpg,m_s_025.jpg,within,NA,NaN,NA,right,634.4000000003725,0,0,1949.0999999996275
CotpEnby,NA,NA,CotpEnby,2020-0188,2021-10-05,10:59:52,12:59:39,NA,incomplete,false,NA,true,3,7,NA,NA,left,NA,NA,o_c_016.jpg,o_s_019.jpg,between-small,NA,NaN,NA,right,1438,0,2,1052.3999999999069
CotpEnby,NA,NA,CotpEnby,2020-0188,2021-10-05,10:59:52,12:59:39,NA,incomplete,false,NA,true,3,8,NA,NA,right,NA,NA,o_c_008.jpg,o_s_018.jpg,within,NA,NaN,NA,right,612.3000000002794,1,2,1975.8000000002794
CotpEnby,NA,NA,CotpEnby,2020-0188,2021-10-05,10:59:52,12:59:39,NA,incomplete,false,NA,true,3,9,NA,NA,right,NA,NA,m_s_003.jpg,n_s_023.jpg,within,NA,NaN,NA,right,1675.8000000002794,1,0,1116.5
CotpEnby,NA,NA,CotpEnby,2020-0188,2021-10-05,10:59:52,12:59:39,NA,incomplete,false,NA,true,3,10,NA,NA,left,NA,NA,c_1_010.jpg,c_1_002.jpg,within,NA,NaN,NA,left,1653.5,1,1,1432.2000000001863
CotpEnby,NA,NA,CotpEnby,2020-0188,2021-10-05,10:59:52,12:59:39,NA,incomplete,false,NA,true,3,11,NA,NA,right,NA,NA,c_1_015.jpg,c_2_010.jpg,within,NA,NaN,NA,right,860.0999999996275,1,1,1215.3999999999069
CotpEnby,NA,NA,CotpEnby,2020-0188,2021-10-05,10:59:52,12:59:39,NA,incomplete,false,NA,true,3,12,NA,NA,right,NA,NA,m_s_007.jpg,n_l_028.jpg,between-small,NA,NaN,NA,right,1941.6999999997206,1,2,1478.2000000001863
CotpEnby,NA,NA,CotpEnby,2020-0188,2021-10-05,10:59:52,12:59:39,NA,incomplete,false,NA,true,3,13,NA,NA,right,NA,NA,c_1_010.jpg,a_1_021.jpg,between-small,NA,NaN,NA,left,1257.7000000001863,0,2,1213.3999999999069
CotpEnby,NA,NA,CotpEnby,2020-0188,2021-10-05,10:59:52,12:59:39,NA,incomplete,false,NA,true,3,14,NA,NA,left,NA,NA,m_s_007.jpg,m_s_014.jpg,within,NA,NaN,NA,left,2821.5,1,0,1020.1000000000931
CotpEnby,NA,NA,CotpEnby,2020-0188,2021-10-05,10:59:52,12:59:39,NA,incomplete,false,NA,true,3,15,NA,NA,right,NA,NA,c_2_010.jpg,c_1_007.jpg,between-small,NA,NaN,NA,right,899.5,1,1,1608
CotpEnby,NA,NA,CotpEnby,2020-0188,2021-10-05,10:59:52,12:59:39,NA,incomplete,false,NA,true,3,16,NA,NA,left,NA,NA,i_c_015.jpg,o_s_018.jpg,between-small,NA,NaN,NA,left,1194,1,1,1993.1000000000931
CotpEnby,NA,NA,CotpEnby,2020-0188,2021-10-05,10:59:52,12:59:39,NA,incomplete,false,NA,true,3,17,NA,NA,left,NA,NA,c_2_013.jpg,n_l_021.jpg,between-big,NA,NaN,NA,right,1018.7999999998137,0,3,1018.5
CotpEnby,NA,NA,CotpEnby,2020-0188,2021-10-05,10:59:52,12:59:39,NA,incomplete,false,NA,true,3,18,NA,NA,left,NA,NA,a_2_001.jpg,a_1_021.jpg,within,NA,NaN,NA,right,1044.7999999998137,0,1,1222.5
CotpEnby,NA,NA,CotpEnby,2020-0188,2021-10-05,10:59:52,12:59:39,NA,incomplete,false,NA,true,3,19,NA,NA,left,NA,NA,c_1_015.jpg,m_l_017.jpg,between-big,NA,NaN,NA,right,713.8999999999069,0,1,1574.3999999999069
CotpEnby,NA,NA,CotpEnby,2020-0188,2021-10-05,10:59:52,12:59:39,NA,incomplete,false,NA,true,3,20,NA,NA,left,NA,NA,c_1_002.jpg,m_s_023.jpg,between-big,NA,NaN,NA,right,787.7000000001863,0,1,1131.8000000002794
CotpEnby,NA,NA,CotpEnby,2020-0188,2021-10-05,10:59:52,12:59:39,NA,incomplete,false,NA,true,3,21,NA,NA,left,NA,NA,o_c_008.jpg,c_1_007.jpg,between-big,NA,NaN,NA,left,819.2999999998137,1,3,2004.5
CotpEnby,NA,NA,CotpEnby,2020-0188,2021-10-05,10:59:52,12:59:39,NA,incomplete,false,NA,true,3,22,NA,NA,right,NA,NA,o_c_016.jpg,i_s_012.jpg,within,NA,NaN,NA,right,1004.1000000000931,1,1,2635.600000000093
CotpEnby,NA,NA,CotpEnby,2020-0188,2021-10-05,10:59:52,12:59:39,NA,incomplete,false,NA,true,3,23,NA,NA,left,NA,NA,i_c_007.jpg,c_1_017.jpg,between-big,NA,NaN,NA,left,1241.2999999998137,1,1,1655.0999999996275
CotpEnby,NA,NA,CotpEnby,2020-0188,2021-10-05,10:59:52,12:59:39,NA,incomplete,false,NA,true,3,24,NA,NA,right,NA,NA,i_c_015.jpg,o_c_024.jpg,within,NA,NaN,NA,right,714.6999999997206,1,1,1528
CotpEnby,NA,NA,CotpEnby,2020-0188,2021-10-05,10:59:52,12:59:39,NA,incomplete,false,NA,true,3,25,NA,NA,right,NA,NA,n_l_028.jpg,n_l_021.jpg,within,NA,NaN,NA,left,1483.7000000001863,0,2,1429.6999999997206
CotpEnby,NA,NA,CotpEnby,2020-0188,2021-10-05,10:59:52,12:59:39,NA,incomplete,false,NA,true,3,26,NA,NA,right,NA,NA,c_2_013.jpg,c_2_006.jpg,between-small,NA,NaN,NA,right,3884.5,1,1,1229
CotpEnby,NA,NA,CotpEnby,2020-0188,2021-10-05,10:59:52,12:59:39,NA,incomplete,false,true,NA,4,0,syllable,c_2_022.jpg,right,2 syllables,1 syllable,NA,NA,NA,right,1294.60000000009,true,NA,NA,NA,NA,NA
CotpEnby,NA,NA,CotpEnby,2020-0188,2021-10-05,10:59:52,12:59:39,NA,incomplete,false,true,NA,4,1,syllable,c_2_016.jpg,right,2 syllables,1 syllable,NA,NA,NA,left,1027.5,false,NA,NA,NA,NA,NA
CotpEnby,NA,NA,CotpEnby,2020-0188,2021-10-05,10:59:52,12:59:39,NA,incomplete,false,true,NA,4,2,syllable,a_1_008.jpg,right,1 syllable,2 syllables,NA,NA,NA,left,1119.10000000009,false,NA,NA,NA,NA,NA
CotpEnby,NA,NA,CotpEnby,2020-0188,2021-10-05,10:59:52,12:59:39,NA,incomplete,false,true,NA,4,3,syllable,c_2_015.jpg,right,1 syllable,2 syllables,NA,NA,NA,right,1172.70000000019,true,NA,NA,NA,NA,NA
CotpEnby,NA,NA,CotpEnby,2020-0188,2021-10-05,10:59:52,12:59:39,NA,incomplete,false,true,NA,4,4,syllable,c_1_003.jpg,right,2 syllables,1 syllable,NA,NA,NA,right,1115.60000000009,true,NA,NA,NA,NA,NA
CotpEnby,NA,NA,CotpEnby,2020-0188,2021-10-05,10:59:52,12:59:39,NA,incomplete,false,true,NA,4,5,abstractness,a_1_006.jpg,right,concrete,abstract,NA,NA,NA,right,872,true,NA,NA,NA,NA,NA
CotpEnby,NA,NA,CotpEnby,2020-0188,2021-10-05,10:59:52,12:59:39,NA,incomplete,false,true,NA,4,6,abstractness,a_2_008.jpg,right,concrete,abstract,NA,NA,NA,right,1659.5,true,NA,NA,NA,NA,NA
CotpEnby,NA,NA,CotpEnby,2020-0188,2021-10-05,10:59:52,12:59:39,NA,incomplete,false,true,NA,4,7,abstractness,c_1_001.jpg,right,abstract,concrete,NA,NA,NA,right,2413.90000000037,true,NA,NA,NA,NA,NA
CotpEnby,NA,NA,CotpEnby,2020-0188,2021-10-05,10:59:52,12:59:39,NA,incomplete,false,true,NA,4,8,abstractness,c_2_021.jpg,right,abstract,concrete,NA,NA,NA,right,1027.60000000009,true,NA,NA,NA,NA,NA
CotpEnby,NA,NA,CotpEnby,2020-0188,2021-10-05,10:59:52,12:59:39,NA,incomplete,false,true,NA,4,9,abstractness,a_1_002.jpg,right,concrete,abstract,NA,NA,NA,right,2626.5,true,NA,NA,NA,NA,NA
CotpEnby,NA,NA,CotpEnby,2020-0188,2021-10-05,10:59:52,12:59:39,NA,incomplete,false,true,NA,4,10,origin,m_l_005.jpg,left,manmade,natural,NA,NA,NA,left,1019.10000000009,true,NA,NA,NA,NA,NA
CotpEnby,NA,NA,CotpEnby,2020-0188,2021-10-05,10:59:52,12:59:39,NA,incomplete,false,true,NA,4,11,origin,n_l_009.jpg,left,natural,manmade,NA,NA,NA,left,1245.30000000028,true,NA,NA,NA,NA,NA
CotpEnby,NA,NA,CotpEnby,2020-0188,2021-10-05,10:59:52,12:59:39,NA,incomplete,false,true,NA,4,12,origin,n_l_026.jpg,right,manmade,natural,NA,NA,NA,left,2128.10000000009,false,NA,NA,NA,NA,NA
CotpEnby,NA,NA,CotpEnby,2020-0188,2021-10-05,10:59:52,12:59:39,NA,incomplete,false,true,NA,4,13,origin,n_s_019.jpg,left,natural,manmade,NA,NA,NA,left,1711.79999999981,true,NA,NA,NA,NA,NA
CotpEnby,NA,NA,CotpEnby,2020-0188,2021-10-05,10:59:52,12:59:39,NA,incomplete,false,true,NA,4,14,origin,n_l_015.jpg,right,manmade,natural,NA,NA,NA,right,2174.10000000009,true,NA,NA,NA,NA,NA
CotpEnby,NA,NA,CotpEnby,2020-0188,2021-10-05,10:59:52,12:59:39,NA,incomplete,false,true,NA,4,15,size,m_s_015.jpg,right,large,small,NA,NA,NA,right,1180.79999999981,true,NA,NA,NA,NA,NA
CotpEnby,NA,NA,CotpEnby,2020-0188,2021-10-05,10:59:52,12:59:39,NA,incomplete,false,true,NA,4,16,size,n_l_014.jpg,right,small,large,NA,NA,NA,right,1203.5,true,NA,NA,NA,NA,NA
CotpEnby,NA,NA,CotpEnby,2020-0188,2021-10-05,10:59:52,12:59:39,NA,incomplete,false,true,NA,4,17,size,m_l_006.jpg,left,large,small,NA,NA,NA,left,1379.39999999991,true,NA,NA,NA,NA,NA
CotpEnby,NA,NA,CotpEnby,2020-0188,2021-10-05,10:59:52,12:59:39,NA,incomplete,false,true,NA,4,18,size,n_s_022.jpg,right,large,small,NA,NA,NA,right,1232.59999999963,true,NA,NA,NA,NA,NA
CotpEnby,NA,NA,CotpEnby,2020-0188,2021-10-05,10:59:52,12:59:39,NA,incomplete,false,true,NA,4,19,size,m_l_015.jpg,right,small,large,NA,NA,NA,left,1260.10000000009,false,NA,NA,NA,NA,NA
CotpEnby,NA,NA,CotpEnby,2020-0188,2021-10-05,10:59:52,12:59:39,NA,incomplete,false,true,NA,4,20,building,o_c_004.jpg,left,cottage,skyscraper,NA,NA,NA,left,1358.60000000009,true,NA,NA,NA,NA,NA
CotpEnby,NA,NA,CotpEnby,2020-0188,2021-10-05,10:59:52,12:59:39,NA,incomplete,false,true,NA,4,21,building,i_s_004.jpg,left,skyscraper,cottage,NA,NA,NA,left,1370.60000000009,true,NA,NA,NA,NA,NA
CotpEnby,NA,NA,CotpEnby,2020-0188,2021-10-05,10:59:52,12:59:39,NA,incomplete,false,true,NA,4,22,building,i_c_013.jpg,right,skyscraper,cottage,NA,NA,NA,right,1622.20000000019,true,NA,NA,NA,NA,NA
CotpEnby,NA,NA,CotpEnby,2020-0188,2021-10-05,10:59:52,12:59:39,NA,incomplete,false,true,NA,4,23,building,i_s_014.jpg,left,skyscraper,cottage,NA,NA,NA,left,1595.29999999981,true,NA,NA,NA,NA,NA
CotpEnby,NA,NA,CotpEnby,2020-0188,2021-10-05,10:59:52,12:59:39,NA,incomplete,false,true,NA,4,24,building,o_c_002.jpg,left,cottage,skyscraper,NA,NA,NA,right,2568.10000000009,false,NA,NA,NA,NA,NA
CotpEnby,NA,NA,CotpEnby,2020-0188,2021-10-05,10:59:52,12:59:39,NA,incomplete,false,true,NA,4,25,location,o_s_005.jpg,left,outdoor,indoor,NA,NA,NA,left,2008.70000000019,true,NA,NA,NA,NA,NA
CotpEnby,NA,NA,CotpEnby,2020-0188,2021-10-05,10:59:52,12:59:39,NA,incomplete,false,true,NA,4,26,location,o_s_021.jpg,left,outdoor,indoor,NA,NA,NA,left,1533.89999999991,true,NA,NA,NA,NA,NA
CotpEnby,NA,NA,CotpEnby,2020-0188,2021-10-05,10:59:52,12:59:39,NA,incomplete,false,true,NA,4,27,location,o_s_022.jpg,left,outdoor,indoor,NA,NA,NA,left,1559.5,true,NA,NA,NA,NA,NA
CotpEnby,NA,NA,CotpEnby,2020-0188,2021-10-05,10:59:52,12:59:39,NA,incomplete,false,true,NA,4,28,location,o_c_019.jpg,right,indoor,outdoor,NA,NA,NA,right,1153,true,NA,NA,NA,NA,NA
CotpEnby,NA,NA,CotpEnby,2020-0188,2021-10-05,10:59:52,12:59:39,NA,incomplete,false,true,NA,4,29,location,o_s_010.jpg,right,indoor,outdoor,NA,NA,NA,right,1633.5,true,NA,NA,NA,NA,NA
CotpEnby,NA,NA,CotpEnby,2020-0188,2021-10-05,10:59:52,12:59:39,NA,incomplete,false,NA,true,4,0,NA,NA,left,NA,NA,o_c_004.jpg,i_s_014.jpg,within,NA,NaN,NA,left,5744.800000000279,1,1,1912.5
CotpEnby,NA,NA,CotpEnby,2020-0188,2021-10-05,10:59:52,12:59:39,NA,incomplete,false,NA,true,4,1,NA,NA,right,NA,NA,o_s_021.jpg,i_s_014.jpg,between-small,NA,NaN,NA,right,1471,1,2,1133
CotpEnby,NA,NA,CotpEnby,2020-0188,2021-10-05,10:59:52,12:59:39,NA,incomplete,false,NA,true,4,2,NA,NA,left,NA,NA,a_1_008.jpg,a_1_006.jpg,between-small,NA,NaN,NA,left,1053.3000000002794,1,1,1670.8999999999069
CotpEnby,NA,NA,CotpEnby,2020-0188,2021-10-05,10:59:52,12:59:39,NA,incomplete,false,NA,true,4,3,NA,NA,left,NA,NA,o_s_005.jpg,o_c_019.jpg,within,NA,NaN,NA,right,1494.6000000000931,0,1,2893.2000000001863
CotpEnby,NA,NA,CotpEnby,2020-0188,2021-10-05,10:59:52,12:59:39,NA,incomplete,false,NA,true,4,4,NA,NA,left,NA,NA,m_l_005.jpg,n_s_019.jpg,within,NA,NaN,NA,left,3030.2999999998137,1,0,1100.3999999999069
CotpEnby,NA,NA,CotpEnby,2020-0188,2021-10-05,10:59:52,12:59:39,NA,incomplete,false,NA,true,4,5,NA,NA,right,NA,NA,i_s_004.jpg,n_s_022.jpg,between-big,NA,NaN,NA,left,2153.9000000003725,0,1,1140.3000000002794
CotpEnby,NA,NA,CotpEnby,2020-0188,2021-10-05,10:59:52,12:59:39,NA,incomplete,false,NA,true,4,6,NA,NA,right,NA,NA,m_l_006.jpg,n_l_015.jpg,between-small,NA,NaN,NA,left,3022.7999999998137,0,0,1054
CotpEnby,NA,NA,CotpEnby,2020-0188,2021-10-05,10:59:52,12:59:39,NA,incomplete,false,NA,true,4,7,NA,NA,left,NA,NA,c_2_022.jpg,c_2_015.jpg,within,NA,NaN,NA,right,1366.3999999999069,0,1,1121.1000000000931
CotpEnby,NA,NA,CotpEnby,2020-0188,2021-10-05,10:59:52,12:59:39,NA,incomplete,false,NA,true,4,8,NA,NA,right,NA,NA,n_l_014.jpg,n_s_019.jpg,between-small,NA,NaN,NA,right,2108.5,1,1,1021.8000000002794
CotpEnby,NA,NA,CotpEnby,2020-0188,2021-10-05,10:59:52,12:59:39,NA,incomplete,false,NA,true,4,9,NA,NA,left,NA,NA,m_s_015.jpg,n_s_022.jpg,within,NA,NaN,NA,right,1885.2999999998137,0,1,1324.7000000001863
CotpEnby,NA,NA,CotpEnby,2020-0188,2021-10-05,10:59:52,12:59:39,NA,incomplete,false,NA,true,4,10,NA,NA,right,NA,NA,m_s_015.jpg,n_l_026.jpg,between-small,NA,NaN,NA,left,1263.6999999997206,0,1,1080.6000000000931
CotpEnby,NA,NA,CotpEnby,2020-0188,2021-10-05,10:59:52,12:59:39,NA,incomplete,false,NA,true,4,11,NA,NA,left,NA,NA,c_1_001.jpg,m_l_005.jpg,between-big,NA,NaN,NA,left,1191.1000000000931,1,2,1651.2000000001863
CotpEnby,NA,NA,CotpEnby,2020-0188,2021-10-05,10:59:52,12:59:39,NA,incomplete,false,NA,true,4,12,NA,NA,left,NA,NA,n_l_009.jpg,n_l_015.jpg,within,NA,NaN,NA,right,3180.100000000093,0,1,1992.5
CotpEnby,NA,NA,CotpEnby,2020-0188,2021-10-05,10:59:52,12:59:39,NA,incomplete,false,NA,true,4,13,NA,NA,left,NA,NA,c_2_015.jpg,a_2_008.jpg,between-small,NA,NaN,NA,right,1937,0,0,2118.7999999998137
CotpEnby,NA,NA,CotpEnby,2020-0188,2021-10-05,10:59:52,12:59:39,NA,incomplete,false,NA,true,4,14,NA,NA,left,NA,NA,n_l_014.jpg,m_l_015.jpg,within,NA,NaN,NA,right,3180.600000000093,0,1,1156.8999999999069
CotpEnby,NA,NA,CotpEnby,2020-0188,2021-10-05,10:59:52,12:59:39,NA,incomplete,false,NA,true,4,15,NA,NA,right,NA,NA,i_c_013.jpg,m_l_015.jpg,between-big,NA,NaN,NA,right,2022.5,1,1,1310
CotpEnby,NA,NA,CotpEnby,2020-0188,2021-10-05,10:59:52,12:59:39,NA,incomplete,false,NA,true,4,16,NA,NA,right,NA,NA,n_l_026.jpg,a_1_002.jpg,between-big,NA,NaN,NA,right,1438.2999999998137,1,2,1188.8999999999069
CotpEnby,NA,NA,CotpEnby,2020-0188,2021-10-05,10:59:52,12:59:39,NA,incomplete,false,NA,true,4,17,NA,NA,right,NA,NA,a_1_002.jpg,a_2_008.jpg,within,NA,NaN,NA,left,1269.7000000001863,0,1,1366
CotpEnby,NA,NA,CotpEnby,2020-0188,2021-10-05,10:59:52,12:59:39,NA,incomplete,false,NA,true,4,18,NA,NA,left,NA,NA,c_2_021.jpg,n_l_009.jpg,between-big,NA,NaN,NA,left,1547.6000000000931,1,2,811.2999999998137
CotpEnby,NA,NA,CotpEnby,2020-0188,2021-10-05,10:59:52,12:59:39,NA,incomplete,false,NA,true,4,19,NA,NA,right,NA,NA,c_1_001.jpg,c_1_003.jpg,between-small,NA,NaN,NA,left,780.6999999997206,0,0,2149.600000000093
CotpEnby,NA,NA,CotpEnby,2020-0188,2021-10-05,10:59:52,12:59:39,NA,incomplete,false,NA,true,4,20,NA,NA,left,NA,NA,o_c_002.jpg,o_s_022.jpg,between-small,NA,NaN,NA,right,719.1000000000931,0,1,1093
CotpEnby,NA,NA,CotpEnby,2020-0188,2021-10-05,10:59:52,12:59:39,NA,incomplete,false,NA,true,4,21,NA,NA,right,NA,NA,c_2_021.jpg,a_1_006.jpg,within,NA,NaN,NA,left,679,0,0,1518
CotpEnby,NA,NA,CotpEnby,2020-0188,2021-10-05,10:59:52,12:59:39,NA,incomplete,false,NA,true,4,22,NA,NA,left,NA,NA,i_s_004.jpg,o_c_002.jpg,within,NA,NaN,NA,right,870.3999999999069,0,1,1119
CotpEnby,NA,NA,CotpEnby,2020-0188,2021-10-05,10:59:52,12:59:39,NA,incomplete,false,NA,true,4,23,NA,NA,right,NA,NA,c_1_003.jpg,c_2_016.jpg,within,NA,NaN,NA,left,714.8999999999069,0,0,2117.2999999998137
CotpEnby,NA,NA,CotpEnby,2020-0188,2021-10-05,10:59:52,12:59:39,NA,incomplete,false,NA,true,4,24,NA,NA,right,NA,NA,o_s_010.jpg,o_s_021.jpg,within,NA,NaN,NA,left,755.7000000001863,0,1,1112.7999999998137
CotpEnby,NA,NA,CotpEnby,2020-0188,2021-10-05,10:59:52,12:59:39,NA,incomplete,false,NA,true,4,25,NA,NA,right,NA,NA,o_s_005.jpg,i_c_013.jpg,between-small,NA,NaN,NA,right,634.9000000003725,1,1,1212.6000000000931
CotpEnby,NA,NA,CotpEnby,2020-0188,2021-10-05,10:59:52,12:59:39,NA,incomplete,false,NA,true,4,26,NA,NA,left,NA,NA,m_l_006.jpg,o_c_004.jpg,between-big,NA,NaN,NA,right,1679.9000000003725,0,2,957.2000000001863
CotpEnby,NA,NA,CotpEnby,2020-0188,2021-10-05,10:59:52,12:59:39,NA,incomplete,false,true,NA,5,0,syllable,c_2_001.jpg,right,1 syllable,2 syllables,NA,NA,NA,right,2444.89999999991,true,NA,NA,NA,NA,NA
CotpEnby,NA,NA,CotpEnby,2020-0188,2021-10-05,10:59:52,12:59:39,NA,incomplete,false,true,NA,5,1,syllable,a_1_005.jpg,right,2 syllables,1 syllable,NA,NA,NA,right,1247.10000000009,true,NA,NA,NA,NA,NA
CotpEnby,NA,NA,CotpEnby,2020-0188,2021-10-05,10:59:52,12:59:39,NA,incomplete,false,true,NA,5,2,syllable,a_1_007.jpg,right,1 syllable,2 syllables,NA,NA,NA,left,1295.10000000009,false,NA,NA,NA,NA,NA
CotpEnby,NA,NA,CotpEnby,2020-0188,2021-10-05,10:59:52,12:59:39,NA,incomplete,false,true,NA,5,3,syllable,a_2_018.jpg,right,2 syllables,1 syllable,NA,NA,NA,left,1091.79999999981,false,NA,NA,NA,NA,NA
CotpEnby,NA,NA,CotpEnby,2020-0188,2021-10-05,10:59:52,12:59:39,NA,incomplete,false,true,NA,5,4,syllable,c_1_025.jpg,right,1 syllable,2 syllables,NA,NA,NA,left,895,false,NA,NA,NA,NA,NA
CotpEnby,NA,NA,CotpEnby,2020-0188,2021-10-05,10:59:52,12:59:39,NA,incomplete,false,true,NA,5,5,abstractness,c_2_008.jpg,left,concrete,abstract,NA,NA,NA,left,1435.09999999963,true,NA,NA,NA,NA,NA
CotpEnby,NA,NA,CotpEnby,2020-0188,2021-10-05,10:59:52,12:59:39,NA,incomplete,false,true,NA,5,6,abstractness,a_1_009.jpg,right,concrete,abstract,NA,NA,NA,left,1673.5,false,NA,NA,NA,NA,NA
CotpEnby,NA,NA,CotpEnby,2020-0188,2021-10-05,10:59:52,12:59:39,NA,incomplete,false,true,NA,5,7,abstractness,a_2_003.jpg,left,abstract,concrete,NA,NA,NA,left,1653.89999999991,true,NA,NA,NA,NA,NA
CotpEnby,NA,NA,CotpEnby,2020-0188,2021-10-05,10:59:52,12:59:39,NA,incomplete,false,true,NA,5,8,abstractness,c_2_028.jpg,right,abstract,concrete,NA,NA,NA,right,1171.69999999972,true,NA,NA,NA,NA,NA
CotpEnby,NA,NA,CotpEnby,2020-0188,2021-10-05,10:59:52,12:59:39,NA,incomplete,false,true,NA,5,9,abstractness,a_2_010.jpg,left,abstract,concrete,NA,NA,NA,left,1976.19999999972,true,NA,NA,NA,NA,NA
CotpEnby,NA,NA,CotpEnby,2020-0188,2021-10-05,10:59:52,12:59:39,NA,incomplete,false,true,NA,5,10,size,n_l_023.jpg,right,small,large,NA,NA,NA,right,980.899999999907,true,NA,NA,NA,NA,NA
CotpEnby,NA,NA,CotpEnby,2020-0188,2021-10-05,10:59:52,12:59:39,NA,incomplete,false,true,NA,5,11,size,m_l_001.jpg,right,small,large,NA,NA,NA,right,986.299999999814,true,NA,NA,NA,NA,NA
CotpEnby,NA,NA,CotpEnby,2020-0188,2021-10-05,10:59:52,12:59:39,NA,incomplete,false,true,NA,5,12,size,n_s_014.jpg,left,small,large,NA,NA,NA,left,1096.70000000019,true,NA,NA,NA,NA,NA
CotpEnby,NA,NA,CotpEnby,2020-0188,2021-10-05,10:59:52,12:59:39,NA,incomplete,false,true,NA,5,13,size,m_l_027.jpg,left,large,small,NA,NA,NA,left,1279.20000000019,true,NA,NA,NA,NA,NA
CotpEnby,NA,NA,CotpEnby,2020-0188,2021-10-05,10:59:52,12:59:39,NA,incomplete,false,true,NA,5,14,size,n_l_007.jpg,right,small,large,NA,NA,NA,left,1600.69999999972,false,NA,NA,NA,NA,NA
CotpEnby,NA,NA,CotpEnby,2020-0188,2021-10-05,10:59:52,12:59:39,NA,incomplete,false,true,NA,5,15,origin,n_s_021.jpg,right,manmade,natural,NA,NA,NA,right,1110.5,true,NA,NA,NA,NA,NA
CotpEnby,NA,NA,CotpEnby,2020-0188,2021-10-05,10:59:52,12:59:39,NA,incomplete,false,true,NA,5,16,origin,m_s_022.jpg,left,manmade,natural,NA,NA,NA,left,2531.29999999981,true,NA,NA,NA,NA,NA
CotpEnby,NA,NA,CotpEnby,2020-0188,2021-10-05,10:59:52,12:59:39,NA,incomplete,false,true,NA,5,17,origin,m_l_021.jpg,right,natural,manmade,NA,NA,NA,right,3430.29999999981,true,NA,NA,NA,NA,NA
CotpEnby,NA,NA,CotpEnby,2020-0188,2021-10-05,10:59:52,12:59:39,NA,incomplete,false,true,NA,5,18,origin,n_l_024.jpg,left,natural,manmade,NA,NA,NA,left,1833,true,NA,NA,NA,NA,NA
CotpEnby,NA,NA,CotpEnby,2020-0188,2021-10-05,10:59:52,12:59:39,NA,incomplete,false,true,NA,5,19,origin,n_l_012.jpg,left,natural,manmade,NA,NA,NA,left,1017.39999999991,true,NA,NA,NA,NA,NA
CotpEnby,NA,NA,CotpEnby,2020-0188,2021-10-05,10:59:52,12:59:39,NA,incomplete,false,true,NA,5,20,location,i_s_026.jpg,right,outdoor,indoor,NA,NA,NA,right,2392.40000000037,true,NA,NA,NA,NA,NA
CotpEnby,NA,NA,CotpEnby,2020-0188,2021-10-05,10:59:52,12:59:39,NA,incomplete,false,true,NA,5,21,location,i_s_010.jpg,left,indoor,outdoor,NA,NA,NA,left,1698.70000000019,true,NA,NA,NA,NA,NA
CotpEnby,NA,NA,CotpEnby,2020-0188,2021-10-05,10:59:52,12:59:39,NA,incomplete,false,true,NA,5,22,location,o_s_012.jpg,right,indoor,outdoor,NA,NA,NA,left,2852.79999999981,false,NA,NA,NA,NA,NA
CotpEnby,NA,NA,CotpEnby,2020-0188,2021-10-05,10:59:52,12:59:39,NA,incomplete,false,true,NA,5,23,location,o_s_027.jpg,left,outdoor,indoor,NA,NA,NA,right,1748.69999999972,false,NA,NA,NA,NA,NA
CotpEnby,NA,NA,CotpEnby,2020-0188,2021-10-05,10:59:52,12:59:39,NA,incomplete,false,true,NA,5,24,location,i_s_013.jpg,left,indoor,outdoor,NA,NA,NA,left,909.300000000279,true,NA,NA,NA,NA,NA
CotpEnby,NA,NA,CotpEnby,2020-0188,2021-10-05,10:59:52,12:59:39,NA,incomplete,false,true,NA,5,25,building,i_s_024.jpg,left,skyscraper,cottage,NA,NA,NA,left,1646.40000000037,true,NA,NA,NA,NA,NA
CotpEnby,NA,NA,CotpEnby,2020-0188,2021-10-05,10:59:52,12:59:39,NA,incomplete,false,true,NA,5,26,building,i_c_006.jpg,left,cottage,skyscraper,NA,NA,NA,left,880.699999999721,true,NA,NA,NA,NA,NA
CotpEnby,NA,NA,CotpEnby,2020-0188,2021-10-05,10:59:52,12:59:39,NA,incomplete,false,true,NA,5,27,building,o_s_026.jpg,right,cottage,skyscraper,NA,NA,NA,right,1793.79999999981,true,NA,NA,NA,NA,NA
CotpEnby,NA,NA,CotpEnby,2020-0188,2021-10-05,10:59:52,12:59:39,NA,incomplete,false,true,NA,5,28,building,i_s_020.jpg,left,skyscraper,cottage,NA,NA,NA,left,1428.5,true,NA,NA,NA,NA,NA
CotpEnby,NA,NA,CotpEnby,2020-0188,2021-10-05,10:59:52,12:59:39,NA,incomplete,false,true,NA,5,29,building,i_c_002.jpg,right,skyscraper,cottage,NA,NA,NA,right,1775.40000000037,true,NA,NA,NA,NA,NA
CotpEnby,NA,NA,CotpEnby,2020-0188,2021-10-05,10:59:52,12:59:39,NA,incomplete,false,NA,true,5,0,NA,NA,right,NA,NA,o_s_012.jpg,n_l_012.jpg,between-big,NA,NaN,NA,right,1500.8000000002794,1,2,1718.6999999997206
CotpEnby,NA,NA,CotpEnby,2020-0188,2021-10-05,10:59:52,12:59:39,NA,incomplete,false,NA,true,5,1,NA,NA,left,NA,NA,a_2_018.jpg,a_1_009.jpg,between-small,NA,NaN,NA,left,903.3999999999069,1,2,1751
CotpEnby,NA,NA,CotpEnby,2020-0188,2021-10-05,10:59:52,12:59:39,NA,incomplete,false,NA,true,5,2,NA,NA,right,NA,NA,n_l_012.jpg,m_s_022.jpg,within,NA,NaN,NA,left,1452.6000000000931,0,2,1623
CotpEnby,NA,NA,CotpEnby,2020-0188,2021-10-05,10:59:52,12:59:39,NA,incomplete,false,NA,true,5,3,NA,NA,left,NA,NA,i_c_006.jpg,i_c_002.jpg,within,NA,NaN,NA,right,787.2999999998137,0,2,973.5999999996275
CotpEnby,NA,NA,CotpEnby,2020-0188,2021-10-05,10:59:52,12:59:39,NA,incomplete,false,NA,true,5,4,NA,NA,right,NA,NA,c_2_028.jpg,c_2_008.jpg,within,NA,NaN,NA,right,1896.8999999999069,1,2,1013.7000000001863
CotpEnby,NA,NA,CotpEnby,2020-0188,2021-10-05,10:59:52,12:59:39,NA,incomplete,false,NA,true,5,5,NA,NA,right,NA,NA,i_s_024.jpg,o_s_012.jpg,between-small,NA,NaN,NA,right,2848.899999999907,1,1,1083.2999999998137
CotpEnby,NA,NA,CotpEnby,2020-0188,2021-10-05,10:59:52,12:59:39,NA,incomplete,false,NA,true,5,6,NA,NA,right,NA,NA,n_l_024.jpg,n_s_021.jpg,within,NA,NaN,NA,right,715.1000000000931,1,2,2539.100000000093
CotpEnby,NA,NA,CotpEnby,2020-0188,2021-10-05,10:59:52,12:59:39,NA,incomplete,false,NA,true,5,7,NA,NA,left,NA,NA,a_2_010.jpg,n_s_014.jpg,between-big,NA,NaN,NA,left,2532.1999999997206,1,1,1178.1999999997206
CotpEnby,NA,NA,CotpEnby,2020-0188,2021-10-05,10:59:52,12:59:39,NA,incomplete,false,NA,true,5,8,NA,NA,left,NA,NA,n_l_023.jpg,m_l_027.jpg,within,NA,NaN,NA,left,1918.2000000001863,1,2,1406.2999999998137
CotpEnby,NA,NA,CotpEnby,2020-0188,2021-10-05,10:59:52,12:59:39,NA,incomplete,false,NA,true,5,9,NA,NA,right,NA,NA,a_2_018.jpg,c_2_001.jpg,within,NA,NaN,NA,right,1356.6000000000931,1,0,2363.2000000001863
CotpEnby,NA,NA,CotpEnby,2020-0188,2021-10-05,10:59:52,12:59:39,NA,incomplete,false,NA,true,5,10,NA,NA,right,NA,NA,o_s_027.jpg,i_s_026.jpg,within,NA,NaN,NA,right,662.0999999996275,1,1,1082.7999999998137
CotpEnby,NA,NA,CotpEnby,2020-0188,2021-10-05,10:59:52,12:59:39,NA,incomplete,false,NA,true,5,11,NA,NA,left,NA,NA,n_l_007.jpg,m_l_021.jpg,between-small,NA,NaN,NA,left,1699.5,1,0,1245
CotpEnby,NA,NA,CotpEnby,2020-0188,2021-10-05,10:59:52,12:59:39,NA,incomplete,false,NA,true,5,12,NA,NA,left,NA,NA,i_s_024.jpg,i_s_020.jpg,within,NA,NaN,NA,right,614.5,0,1,1083.6000000000931
CotpEnby,NA,NA,CotpEnby,2020-0188,2021-10-05,10:59:52,12:59:39,NA,incomplete,false,NA,true,5,13,NA,NA,right,NA,NA,n_l_023.jpg,a_2_003.jpg,between-big,NA,NaN,NA,right,690.8999999999069,1,1,1172.8999999999069
CotpEnby,NA,NA,CotpEnby,2020-0188,2021-10-05,10:59:52,12:59:39,NA,incomplete,false,NA,true,5,14,NA,NA,right,NA,NA,i_c_006.jpg,o_s_027.jpg,between-small,NA,NaN,NA,right,648.6999999997206,1,1,1896.7000000001863
CotpEnby,NA,NA,CotpEnby,2020-0188,2021-10-05,10:59:52,12:59:39,NA,incomplete,false,NA,true,5,15,NA,NA,left,NA,NA,m_l_021.jpg,i_s_026.jpg,between-big,NA,NaN,NA,right,721,0,1,2096.6999999997206
CotpEnby,NA,NA,CotpEnby,2020-0188,2021-10-05,10:59:52,12:59:39,NA,incomplete,false,NA,true,5,16,NA,NA,right,NA,NA,o_s_026.jpg,i_s_013.jpg,between-small,NA,NaN,NA,right,949.5,1,2,3069.5
CotpEnby,NA,NA,CotpEnby,2020-0188,2021-10-05,10:59:52,12:59:39,NA,incomplete,false,NA,true,5,17,NA,NA,left,NA,NA,a_1_007.jpg,c_2_008.jpg,between-small,NA,NaN,NA,right,2346.399999999907,0,1,1003.3000000002794
CotpEnby,NA,NA,CotpEnby,2020-0188,2021-10-05,10:59:52,12:59:39,NA,incomplete,false,NA,true,5,18,NA,NA,left,NA,NA,a_1_009.jpg,a_2_010.jpg,within,NA,NaN,NA,left,988.6999999997206,1,0,1448
CotpEnby,NA,NA,CotpEnby,2020-0188,2021-10-05,10:59:52,12:59:39,NA,incomplete,false,NA,true,5,19,NA,NA,left,NA,NA,a_1_005.jpg,c_1_025.jpg,within,NA,NaN,NA,right,778.6999999997206,0,0,1919.6999999997206
CotpEnby,NA,NA,CotpEnby,2020-0188,2021-10-05,10:59:52,12:59:39,NA,incomplete,false,NA,true,5,20,NA,NA,right,NA,NA,i_s_013.jpg,i_s_010.jpg,within,NA,NaN,NA,right,708.8000000002794,1,2,1492.8000000002794
CotpEnby,NA,NA,CotpEnby,2020-0188,2021-10-05,10:59:52,12:59:39,NA,incomplete,false,NA,true,5,21,NA,NA,left,NA,NA,c_1_025.jpg,a_2_003.jpg,between-small,NA,NaN,NA,left,811.2000000001863,1,1,1091.6000000000931
CotpEnby,NA,NA,CotpEnby,2020-0188,2021-10-05,10:59:52,12:59:39,NA,incomplete,false,NA,true,5,22,NA,NA,left,NA,NA,c_2_028.jpg,m_l_001.jpg,between-big,NA,NaN,NA,right,771.3000000002794,0,1,1960.5
CotpEnby,NA,NA,CotpEnby,2020-0188,2021-10-05,10:59:52,12:59:39,NA,incomplete,false,NA,true,5,23,NA,NA,left,NA,NA,n_l_024.jpg,i_s_010.jpg,between-big,NA,NaN,NA,left,1994.7999999998137,1,3,1277.7999999998137
CotpEnby,NA,NA,CotpEnby,2020-0188,2021-10-05,10:59:52,12:59:39,NA,incomplete,false,NA,true,5,24,NA,NA,left,NA,NA,m_l_027.jpg,m_s_022.jpg,between-small,NA,NaN,NA,right,761.6000000000931,0,2,1703.7000000001863
CotpEnby,NA,NA,CotpEnby,2020-0188,2021-10-05,10:59:52,12:59:39,NA,incomplete,false,NA,true,5,25,NA,NA,left,NA,NA,n_s_014.jpg,n_s_021.jpg,between-small,NA,NaN,NA,left,2195.2000000001863,1,0,1192.8999999999069
CotpEnby,NA,NA,CotpEnby,2020-0188,2021-10-05,10:59:52,12:59:39,NA,incomplete,false,NA,true,5,26,NA,NA,right,NA,NA,n_l_007.jpg,m_l_001.jpg,within,NA,NaN,NA,right,819,1,1,1100.3000000002794
CotpEnby,NA,NA,CotpEnby,2020-0188,2021-10-05,10:59:52,12:59:39,NA,incomplete,false,true,NA,6,0,abstractness,c_2_005.jpg,right,abstract,concrete,NA,NA,NA,none,0,false,NA,NA,NA,NA,NA
CotpEnby,NA,NA,CotpEnby,2020-0188,2021-10-05,10:59:52,12:59:39,NA,incomplete,false,true,NA,6,1,abstractness,c_2_025.jpg,left,concrete,abstract,NA,NA,NA,right,3102.70000000019,false,NA,NA,NA,NA,NA
CotpEnby,NA,NA,CotpEnby,2020-0188,2021-10-05,10:59:52,12:59:39,NA,incomplete,false,true,NA,6,2,abstractness,a_1_023.jpg,left,abstract,concrete,NA,NA,NA,right,2279.30000000028,false,NA,NA,NA,NA,NA
CotpEnby,NA,NA,CotpEnby,2020-0188,2021-10-05,10:59:52,12:59:39,NA,incomplete,false,true,NA,6,3,abstractness,a_2_017.jpg,left,abstract,concrete,NA,NA,NA,right,3068.70000000019,false,NA,NA,NA,NA,NA
CotpEnby,NA,NA,CotpEnby,2020-0188,2021-10-05,10:59:52,12:59:39,NA,incomplete,false,true,NA,6,4,abstractness,a_2_012.jpg,right,concrete,abstract,NA,NA,NA,right,3049.39999999991,true,NA,NA,NA,NA,NA
CotpEnby,NA,NA,CotpEnby,2020-0188,2021-10-05,10:59:52,12:59:39,NA,incomplete,false,true,NA,6,5,syllable,a_2_027.jpg,right,1 syllable,2 syllables,NA,NA,NA,right,1510.09999999963,true,NA,NA,NA,NA,NA
CotpEnby,NA,NA,CotpEnby,2020-0188,2021-10-05,10:59:52,12:59:39,NA,incomplete,false,true,NA,6,6,syllable,a_1_020.jpg,right,2 syllables,1 syllable,NA,NA,NA,right,1801.69999999972,true,NA,NA,NA,NA,NA
CotpEnby,NA,NA,CotpEnby,2020-0188,2021-10-05,10:59:52,12:59:39,NA,incomplete,false,true,NA,6,7,syllable,c_2_011.jpg,right,2 syllables,1 syllable,NA,NA,NA,left,1639.09999999963,false,NA,NA,NA,NA,NA
CotpEnby,NA,NA,CotpEnby,2020-0188,2021-10-05,10:59:52,12:59:39,NA,incomplete,false,true,NA,6,8,syllable,c_1_011.jpg,right,1 syllable,2 syllables,NA,NA,NA,left,1686.10000000009,false,NA,NA,NA,NA,NA
CotpEnby,NA,NA,CotpEnby,2020-0188,2021-10-05,10:59:52,12:59:39,NA,incomplete,false,true,NA,6,9,syllable,c_1_019.jpg,right,1 syllable,2 syllables,NA,NA,NA,left,1624.5,false,NA,NA,NA,NA,NA
CotpEnby,NA,NA,CotpEnby,2020-0188,2021-10-05,10:59:52,12:59:39,NA,incomplete,false,true,NA,6,10,size,m_l_013.jpg,right,small,large,NA,NA,NA,left,2685.89999999991,false,NA,NA,NA,NA,NA
CotpEnby,NA,NA,CotpEnby,2020-0188,2021-10-05,10:59:52,12:59:39,NA,incomplete,false,true,NA,6,11,size,m_l_012.jpg,left,large,small,NA,NA,NA,left,1705.40000000037,true,NA,NA,NA,NA,NA
CotpEnby,NA,NA,CotpEnby,2020-0188,2021-10-05,10:59:52,12:59:39,NA,incomplete,false,true,NA,6,12,size,n_s_025.jpg,right,large,small,NA,NA,NA,right,1473.10000000009,true,NA,NA,NA,NA,NA
CotpEnby,NA,NA,CotpEnby,2020-0188,2021-10-05,10:59:52,12:59:39,NA,incomplete,false,true,NA,6,13,size,m_s_018.jpg,right,large,small,NA,NA,NA,right,1278.20000000019,true,NA,NA,NA,NA,NA
CotpEnby,NA,NA,CotpEnby,2020-0188,2021-10-05,10:59:52,12:59:39,NA,incomplete,false,true,NA,6,14,size,m_s_012.jpg,left,small,large,NA,NA,NA,left,1571.79999999981,true,NA,NA,NA,NA,NA
CotpEnby,NA,NA,CotpEnby,2020-0188,2021-10-05,10:59:52,12:59:39,NA,incomplete,false,true,NA,6,15,origin,m_s_005.jpg,left,manmade,natural,NA,NA,NA,left,1158.19999999972,true,NA,NA,NA,NA,NA
CotpEnby,NA,NA,CotpEnby,2020-0188,2021-10-05,10:59:52,12:59:39,NA,incomplete,false,true,NA,6,16,origin,n_s_012.jpg,left,natural,manmade,NA,NA,NA,left,1684.79999999981,true,NA,NA,NA,NA,NA
CotpEnby,NA,NA,CotpEnby,2020-0188,2021-10-05,10:59:52,12:59:39,NA,incomplete,false,true,NA,6,17,origin,n_s_005.jpg,left,natural,manmade,NA,NA,NA,left,2827.39999999991,true,NA,NA,NA,NA,NA
CotpEnby,NA,NA,CotpEnby,2020-0188,2021-10-05,10:59:52,12:59:39,NA,incomplete,false,true,NA,6,18,origin,m_s_019.jpg,left,manmade,natural,NA,NA,NA,left,1207.69999999972,true,NA,NA,NA,NA,NA
CotpEnby,NA,NA,CotpEnby,2020-0188,2021-10-05,10:59:52,12:59:39,NA,incomplete,false,true,NA,6,19,origin,m_s_009.jpg,right,natural,manmade,NA,NA,NA,right,1403.69999999972,true,NA,NA,NA,NA,NA
CotpEnby,NA,NA,CotpEnby,2020-0188,2021-10-05,10:59:52,12:59:39,NA,incomplete,false,true,NA,6,20,location,i_c_028.jpg,right,outdoor,indoor,NA,NA,NA,right,1341.5,true,NA,NA,NA,NA,NA
CotpEnby,NA,NA,CotpEnby,2020-0188,2021-10-05,10:59:52,12:59:39,NA,incomplete,false,true,NA,6,21,location,i_s_025.jpg,right,outdoor,indoor,NA,NA,NA,right,897.399999999907,true,NA,NA,NA,NA,NA
CotpEnby,NA,NA,CotpEnby,2020-0188,2021-10-05,10:59:52,12:59:39,NA,incomplete,false,true,NA,6,22,location,o_s_017.jpg,right,indoor,outdoor,NA,NA,NA,right,1178.89999999991,true,NA,NA,NA,NA,NA
CotpEnby,NA,NA,CotpEnby,2020-0188,2021-10-05,10:59:52,12:59:39,NA,incomplete,false,true,NA,6,23,location,o_s_028.jpg,right,indoor,outdoor,NA,NA,NA,right,1101.70000000019,true,NA,NA,NA,NA,NA
CotpEnby,NA,NA,CotpEnby,2020-0188,2021-10-05,10:59:52,12:59:39,NA,incomplete,false,true,NA,6,24,location,i_s_017.jpg,right,outdoor,indoor,NA,NA,NA,right,1976.60000000009,true,NA,NA,NA,NA,NA
CotpEnby,NA,NA,CotpEnby,2020-0188,2021-10-05,10:59:52,12:59:39,NA,incomplete,false,true,NA,6,25,building,o_c_003.jpg,left,cottage,skyscraper,NA,NA,NA,left,1087.60000000009,true,NA,NA,NA,NA,NA
CotpEnby,NA,NA,CotpEnby,2020-0188,2021-10-05,10:59:52,12:59:39,NA,incomplete,false,true,NA,6,26,building,o_s_002.jpg,right,cottage,skyscraper,NA,NA,NA,right,1389.89999999991,true,NA,NA,NA,NA,NA
CotpEnby,NA,NA,CotpEnby,2020-0188,2021-10-05,10:59:52,12:59:39,NA,incomplete,false,true,NA,6,27,building,i_s_009.jpg,right,cottage,skyscraper,NA,NA,NA,left,1543.40000000037,false,NA,NA,NA,NA,NA
CotpEnby,NA,NA,CotpEnby,2020-0188,2021-10-05,10:59:52,12:59:39,NA,incomplete,false,true,NA,6,28,building,o_c_012.jpg,right,skyscraper,cottage,NA,NA,NA,right,1413.59999999963,true,NA,NA,NA,NA,NA
CotpEnby,NA,NA,CotpEnby,2020-0188,2021-10-05,10:59:52,12:59:39,NA,incomplete,false,true,NA,6,29,building,o_s_020.jpg,left,skyscraper,cottage,NA,NA,NA,right,170,false,NA,NA,NA,NA,NA
CotpEnby,NA,NA,CotpEnby,2020-0188,2021-10-05,10:59:52,12:59:39,NA,incomplete,false,NA,true,6,0,NA,NA,right,NA,NA,i_s_017.jpg,i_s_025.jpg,within,NA,NaN,NA,left,1162,0,2,1385.7999999998137
CotpEnby,NA,NA,CotpEnby,2020-0188,2021-10-05,10:59:52,12:59:39,NA,incomplete,false,NA,true,6,1,NA,NA,left,NA,NA,m_l_013.jpg,m_s_018.jpg,within,NA,NaN,NA,left,2043.1000000000931,1,2,1084.5999999996275
CotpEnby,NA,NA,CotpEnby,2020-0188,2021-10-05,10:59:52,12:59:39,NA,incomplete,false,NA,true,6,2,NA,NA,right,NA,NA,i_s_025.jpg,m_s_019.jpg,between-big,NA,NaN,NA,right,658.7000000001863,1,2,1228.6000000000931
CotpEnby,NA,NA,CotpEnby,2020-0188,2021-10-05,10:59:52,12:59:39,NA,incomplete,false,NA,true,6,3,NA,NA,right,NA,NA,a_2_027.jpg,a_1_023.jpg,between-small,NA,NaN,NA,right,2484,1,1,2431.600000000093
CotpEnby,NA,NA,CotpEnby,2020-0188,2021-10-05,10:59:52,12:59:39,NA,incomplete,false,NA,true,6,4,NA,NA,left,NA,NA,c_1_011.jpg,m_l_012.jpg,between-big,NA,NaN,NA,left,1405.5,1,3,1222.4000000003725
CotpEnby,NA,NA,CotpEnby,2020-0188,2021-10-05,10:59:52,12:59:39,NA,incomplete,false,NA,true,6,5,NA,NA,right,NA,NA,n_s_012.jpg,m_s_018.jpg,between-small,NA,NaN,NA,left,4111.0999999996275,0,2,1052.3000000002794
CotpEnby,NA,NA,CotpEnby,2020-0188,2021-10-05,10:59:52,12:59:39,NA,incomplete,false,NA,true,6,6,NA,NA,right,NA,NA,c_1_019.jpg,a_1_020.jpg,within,NA,NaN,NA,right,794.8000000002794,1,2,1100.5999999996275
CotpEnby,NA,NA,CotpEnby,2020-0188,2021-10-05,10:59:52,12:59:39,NA,incomplete,false,NA,true,6,7,NA,NA,left,NA,NA,n_s_025.jpg,m_s_005.jpg,between-small,NA,NaN,NA,left,774.3000000002794,1,1,2185.899999999907
CotpEnby,NA,NA,CotpEnby,2020-0188,2021-10-05,10:59:52,12:59:39,NA,incomplete,false,NA,true,6,8,NA,NA,left,NA,NA,o_s_017.jpg,o_c_003.jpg,between-small,NA,NaN,NA,right,638.6000000000931,0,3,1904.6000000000931
CotpEnby,NA,NA,CotpEnby,2020-0188,2021-10-05,10:59:52,12:59:39,NA,incomplete,false,NA,true,6,9,NA,NA,right,NA,NA,o_s_020.jpg,o_s_002.jpg,within,NA,NaN,NA,left,594.2000000001863,0,1,1179.5
CotpEnby,NA,NA,CotpEnby,2020-0188,2021-10-05,10:59:52,12:59:39,NA,incomplete,false,NA,true,6,10,NA,NA,left,NA,NA,i_c_028.jpg,o_s_028.jpg,within,NA,NaN,NA,right,558.3000000002794,0,1,1156.2999999998137
CotpEnby,NA,NA,CotpEnby,2020-0188,2021-10-05,10:59:52,12:59:39,NA,incomplete,false,NA,true,6,11,NA,NA,left,NA,NA,c_2_011.jpg,m_l_013.jpg,between-big,NA,NaN,NA,right,2222,0,3,1140.6000000000931
CotpEnby,NA,NA,CotpEnby,2020-0188,2021-10-05,10:59:52,12:59:39,NA,incomplete,false,NA,true,6,12,NA,NA,left,NA,NA,a_2_027.jpg,c_1_011.jpg,within,NA,NaN,NA,right,1262.6000000000931,0,1,1552.6999999997206
CotpEnby,NA,NA,CotpEnby,2020-0188,2021-10-05,10:59:52,12:59:39,NA,incomplete,false,NA,true,6,13,NA,NA,left,NA,NA,m_s_005.jpg,m_s_019.jpg,within,NA,NaN,NA,left,731.5,1,2,1124.7999999998137
CotpEnby,NA,NA,CotpEnby,2020-0188,2021-10-05,10:59:52,12:59:39,NA,incomplete,false,NA,true,6,14,NA,NA,right,NA,NA,a_2_012.jpg,c_2_025.jpg,within,NA,NaN,NA,right,698.9000000003725,1,2,1213.1000000000931
CotpEnby,NA,NA,CotpEnby,2020-0188,2021-10-05,10:59:52,12:59:39,NA,incomplete,false,NA,true,6,15,NA,NA,right,NA,NA,i_s_009.jpg,i_s_017.jpg,between-small,NA,NaN,NA,left,660.6999999997206,0,2,1141.1000000000931
CotpEnby,NA,NA,CotpEnby,2020-0188,2021-10-05,10:59:52,12:59:39,NA,incomplete,false,NA,true,6,16,NA,NA,left,NA,NA,n_s_005.jpg,i_c_028.jpg,between-big,NA,NaN,NA,left,2350.899999999907,1,3,1327.2999999998137
CotpEnby,NA,NA,CotpEnby,2020-0188,2021-10-05,10:59:52,12:59:39,NA,incomplete,false,NA,true,6,17,NA,NA,left,NA,NA,a_2_012.jpg,c_2_011.jpg,between-small,NA,NaN,NA,right,2266.2000000001863,0,2,1602.6999999997206
CotpEnby,NA,NA,CotpEnby,2020-0188,2021-10-05,10:59:52,12:59:39,NA,incomplete,false,NA,true,6,18,NA,NA,right,NA,NA,n_s_025.jpg,c_1_019.jpg,between-big,NA,NaN,NA,left,787.9000000003725,0,1,1176.7999999998137
CotpEnby,NA,NA,CotpEnby,2020-0188,2021-10-05,10:59:52,12:59:39,NA,incomplete,false,NA,true,6,19,NA,NA,right,NA,NA,a_2_017.jpg,c_2_005.jpg,within,NA,NaN,NA,right,961.6000000000931,1,3,1116.7000000001863
CotpEnby,NA,NA,CotpEnby,2020-0188,2021-10-05,10:59:52,12:59:39,NA,incomplete,false,NA,true,6,20,NA,NA,left,NA,NA,n_s_012.jpg,m_s_009.jpg,within,NA,NaN,NA,left,667,1,1,1189.6000000000931
CotpEnby,NA,NA,CotpEnby,2020-0188,2021-10-05,10:59:52,12:59:39,NA,incomplete,false,NA,true,6,21,NA,NA,left,NA,NA,m_l_012.jpg,m_s_012.jpg,within,NA,NaN,NA,right,619.5,0,2,1461.8999999999069
CotpEnby,NA,NA,CotpEnby,2020-0188,2021-10-05,10:59:52,12:59:39,NA,incomplete,false,NA,true,6,22,NA,NA,right,NA,NA,o_s_002.jpg,o_s_028.jpg,between-small,NA,NaN,NA,right,1842.1999999997206,1,0,3408
CotpEnby,NA,NA,CotpEnby,2020-0188,2021-10-05,10:59:52,12:59:39,NA,incomplete,false,NA,true,6,23,NA,NA,right,NA,NA,n_s_005.jpg,m_s_012.jpg,between-small,NA,NaN,NA,left,857.5,0,1,1414.1000000000931
CotpEnby,NA,NA,CotpEnby,2020-0188,2021-10-05,10:59:52,12:59:39,NA,incomplete,false,NA,true,6,24,NA,NA,left,NA,NA,o_c_003.jpg,o_c_012.jpg,within,NA,NaN,NA,right,606.6000000000931,0,2,6942.800000000279
CotpEnby,NA,NA,CotpEnby,2020-0188,2021-10-05,10:59:52,12:59:39,NA,incomplete,false,NA,true,6,25,NA,NA,left,NA,NA,a_2_017.jpg,a_1_020.jpg,between-small,NA,NaN,NA,left,658.5,1,2,1508
CotpEnby,NA,NA,CotpEnby,2020-0188,2021-10-05,10:59:52,12:59:39,NA,incomplete,false,NA,true,6,26,NA,NA,right,NA,NA,o_s_017.jpg,m_s_009.jpg,between-big,NA,NaN,NA,right,875.7999999998137,1,3,1713.3999999999069
CotpEnby,NA,NA,CotpEnby,2020-0188,2021-10-05,10:59:52,12:59:39,NA,incomplete,false,true,NA,7,0,size,m_l_019.jpg,left,large,small,NA,NA,NA,left,3289.79999999981,true,NA,NA,NA,NA,NA
CotpEnby,NA,NA,CotpEnby,2020-0188,2021-10-05,10:59:52,12:59:39,NA,incomplete,false,true,NA,7,1,size,m_s_016.jpg,right,large,small,NA,NA,NA,right,1543.39999999991,true,NA,NA,NA,NA,NA
CotpEnby,NA,NA,CotpEnby,2020-0188,2021-10-05,10:59:52,12:59:39,NA,incomplete,false,true,NA,7,2,size,n_l_016.jpg,right,small,large,NA,NA,NA,right,1704.10000000009,true,NA,NA,NA,NA,NA
CotpEnby,NA,NA,CotpEnby,2020-0188,2021-10-05,10:59:52,12:59:39,NA,incomplete,false,true,NA,7,3,size,m_l_007.jpg,right,small,large,NA,NA,NA,right,2696.29999999981,true,NA,NA,NA,NA,NA
CotpEnby,NA,NA,CotpEnby,2020-0188,2021-10-05,10:59:52,12:59:39,NA,incomplete,false,true,NA,7,4,size,n_l_017.jpg,right,small,large,NA,NA,NA,right,1675.09999999963,true,NA,NA,NA,NA,NA
CotpEnby,NA,NA,CotpEnby,2020-0188,2021-10-05,10:59:52,12:59:39,NA,incomplete,false,true,NA,7,5,origin,n_s_003.jpg,right,manmade,natural,NA,NA,NA,right,2296.5,true,NA,NA,NA,NA,NA
CotpEnby,NA,NA,CotpEnby,2020-0188,2021-10-05,10:59:52,12:59:39,NA,incomplete,false,true,NA,7,6,origin,m_s_010.jpg,left,manmade,natural,NA,NA,NA,left,1699.39999999991,true,NA,NA,NA,NA,NA
CotpEnby,NA,NA,CotpEnby,2020-0188,2021-10-05,10:59:52,12:59:39,NA,incomplete,false,true,NA,7,7,origin,n_l_002.jpg,right,manmade,natural,NA,NA,NA,left,2475.79999999981,false,NA,NA,NA,NA,NA
CotpEnby,NA,NA,CotpEnby,2020-0188,2021-10-05,10:59:52,12:59:39,NA,incomplete,false,true,NA,7,8,origin,m_s_017.jpg,left,manmade,natural,NA,NA,NA,left,860.799999999814,true,NA,NA,NA,NA,NA
CotpEnby,NA,NA,CotpEnby,2020-0188,2021-10-05,10:59:52,12:59:39,NA,incomplete,false,true,NA,7,9,origin,n_l_001.jpg,left,natural,manmade,NA,NA,NA,left,1097,true,NA,NA,NA,NA,NA
CotpEnby,NA,NA,CotpEnby,2020-0188,2021-10-05,10:59:52,12:59:39,NA,incomplete,false,true,NA,7,10,syllable,c_1_004.jpg,right,2 syllables,1 syllable,NA,NA,NA,right,1279.39999999991,true,NA,NA,NA,NA,NA
CotpEnby,NA,NA,CotpEnby,2020-0188,2021-10-05,10:59:52,12:59:39,NA,incomplete,false,true,NA,7,11,syllable,a_1_004.jpg,right,1 syllable,2 syllables,NA,NA,NA,left,1010.70000000019,false,NA,NA,NA,NA,NA
CotpEnby,NA,NA,CotpEnby,2020-0188,2021-10-05,10:59:52,12:59:39,NA,incomplete,false,true,NA,7,12,syllable,c_1_018.jpg,right,1 syllable,2 syllables,NA,NA,NA,left,1117.10000000009,false,NA,NA,NA,NA,NA
CotpEnby,NA,NA,CotpEnby,2020-0188,2021-10-05,10:59:52,12:59:39,NA,incomplete,false,true,NA,7,13,syllable,a_1_018.jpg,right,2 syllables,1 syllable,NA,NA,NA,right,1263.70000000019,true,NA,NA,NA,NA,NA
CotpEnby,NA,NA,CotpEnby,2020-0188,2021-10-05,10:59:52,12:59:39,NA,incomplete,false,true,NA,7,14,syllable,c_2_004.jpg,right,1 syllable,2 syllables,NA,NA,NA,right,1611.5,true,NA,NA,NA,NA,NA
CotpEnby,NA,NA,CotpEnby,2020-0188,2021-10-05,10:59:52,12:59:39,NA,incomplete,false,true,NA,7,15,abstractness,c_2_019.jpg,left,concrete,abstract,NA,NA,NA,left,1589.60000000009,true,NA,NA,NA,NA,NA
CotpEnby,NA,NA,CotpEnby,2020-0188,2021-10-05,10:59:52,12:59:39,NA,incomplete,false,true,NA,7,16,abstractness,c_1_028.jpg,right,abstract,concrete,NA,NA,NA,right,1992,true,NA,NA,NA,NA,NA
CotpEnby,NA,NA,CotpEnby,2020-0188,2021-10-05,10:59:52,12:59:39,NA,incomplete,false,true,NA,7,17,abstractness,a_2_014.jpg,right,concrete,abstract,NA,NA,NA,right,2122.09999999963,true,NA,NA,NA,NA,NA
CotpEnby,NA,NA,CotpEnby,2020-0188,2021-10-05,10:59:52,12:59:39,NA,incomplete,false,true,NA,7,18,abstractness,a_1_017.jpg,left,abstract,concrete,NA,NA,NA,left,1795.20000000019,true,NA,NA,NA,NA,NA
CotpEnby,NA,NA,CotpEnby,2020-0188,2021-10-05,10:59:52,12:59:39,NA,incomplete,false,true,NA,7,19,abstractness,a_2_009.jpg,right,concrete,abstract,NA,NA,NA,right,1735.89999999991,true,NA,NA,NA,NA,NA
CotpEnby,NA,NA,CotpEnby,2020-0188,2021-10-05,10:59:52,12:59:39,NA,incomplete,false,true,NA,7,20,building,i_c_011.jpg,left,cottage,skyscraper,NA,NA,NA,left,2023.10000000009,true,NA,NA,NA,NA,NA
CotpEnby,NA,NA,CotpEnby,2020-0188,2021-10-05,10:59:52,12:59:39,NA,incomplete,false,true,NA,7,21,building,i_c_019.jpg,left,cottage,skyscraper,NA,NA,NA,left,886.299999999814,true,NA,NA,NA,NA,NA
CotpEnby,NA,NA,CotpEnby,2020-0188,2021-10-05,10:59:52,12:59:39,NA,incomplete,false,true,NA,7,22,building,i_c_022.jpg,right,skyscraper,cottage,NA,NA,NA,right,1270.30000000028,true,NA,NA,NA,NA,NA
CotpEnby,NA,NA,CotpEnby,2020-0188,2021-10-05,10:59:52,12:59:39,NA,incomplete,false,true,NA,7,23,building,i_c_016.jpg,left,cottage,skyscraper,NA,NA,NA,left,1811.5,true,NA,NA,NA,NA,NA
CotpEnby,NA,NA,CotpEnby,2020-0188,2021-10-05,10:59:52,12:59:39,NA,incomplete,false,true,NA,7,24,building,o_c_001.jpg,right,skyscraper,cottage,NA,NA,NA,right,1509.29999999981,true,NA,NA,NA,NA,NA
CotpEnby,NA,NA,CotpEnby,2020-0188,2021-10-05,10:59:52,12:59:39,NA,incomplete,false,true,NA,7,25,location,o_s_001.jpg,right,indoor,outdoor,NA,NA,NA,right,1293.10000000009,true,NA,NA,NA,NA,NA
CotpEnby,NA,NA,CotpEnby,2020-0188,2021-10-05,10:59:52,12:59:39,NA,incomplete,false,true,NA,7,26,location,o_c_010.jpg,right,indoor,outdoor,NA,NA,NA,right,1161.89999999991,true,NA,NA,NA,NA,NA
CotpEnby,NA,NA,CotpEnby,2020-0188,2021-10-05,10:59:52,12:59:39,NA,incomplete,false,true,NA,7,27,location,o_s_004.jpg,right,indoor,outdoor,NA,NA,NA,right,1536.40000000037,true,NA,NA,NA,NA,NA
CotpEnby,NA,NA,CotpEnby,2020-0188,2021-10-05,10:59:52,12:59:39,NA,incomplete,false,true,NA,7,28,location,i_c_017.jpg,right,outdoor,indoor,NA,NA,NA,right,1366.89999999991,true,NA,NA,NA,NA,NA
CotpEnby,NA,NA,CotpEnby,2020-0188,2021-10-05,10:59:52,12:59:39,NA,incomplete,false,true,NA,7,29,location,o_c_009.jpg,left,outdoor,indoor,NA,NA,NA,left,1603.39999999991,true,NA,NA,NA,NA,NA
CotpEnby,NA,NA,CotpEnby,2020-0188,2021-10-05,10:59:52,12:59:39,NA,incomplete,false,NA,true,7,0,NA,NA,left,NA,NA,c_1_004.jpg,a_1_018.jpg,within,NA,NaN,NA,left,2437,1,2,1274
CotpEnby,NA,NA,CotpEnby,2020-0188,2021-10-05,10:59:52,12:59:39,NA,incomplete,false,NA,true,7,1,NA,NA,left,NA,NA,i_c_019.jpg,o_c_001.jpg,within,NA,NaN,NA,right,592.2000000001863,0,1,1157.5
CotpEnby,NA,NA,CotpEnby,2020-0188,2021-10-05,10:59:52,12:59:39,NA,incomplete,false,NA,true,7,2,NA,NA,left,NA,NA,a_1_017.jpg,i_c_019.jpg,between-big,NA,NaN,NA,left,602.0999999996275,1,3,1341.5
CotpEnby,NA,NA,CotpEnby,2020-0188,2021-10-05,10:59:52,12:59:39,NA,incomplete,false,NA,true,7,3,NA,NA,left,NA,NA,n_s_003.jpg,m_s_017.jpg,within,NA,NaN,NA,right,634.5999999996275,0,0,1357.0999999996275
CotpEnby,NA,NA,CotpEnby,2020-0188,2021-10-05,10:59:52,12:59:39,NA,incomplete,false,NA,true,7,4,NA,NA,left,NA,NA,a_2_014.jpg,i_c_011.jpg,between-big,NA,NaN,NA,left,2627.5,1,2,1036
CotpEnby,NA,NA,CotpEnby,2020-0188,2021-10-05,10:59:52,12:59:39,NA,incomplete,false,NA,true,7,5,NA,NA,left,NA,NA,c_2_004.jpg,a_2_014.jpg,between-small,NA,NaN,NA,right,1890.3999999994412,0,0,1735.5999999996275
CotpEnby,NA,NA,CotpEnby,2020-0188,2021-10-05,10:59:52,12:59:39,NA,incomplete,false,NA,true,7,6,NA,NA,left,NA,NA,a_1_018.jpg,c_1_028.jpg,between-small,NA,NaN,NA,right,1550.5,0,1,1385.7000000001863
CotpEnby,NA,NA,CotpEnby,2020-0188,2021-10-05,10:59:52,12:59:39,NA,incomplete,false,NA,true,7,7,NA,NA,right,NA,NA,n_l_002.jpg,n_l_017.jpg,between-small,NA,NaN,NA,right,932.0999999996275,1,2,3154.4000000003725
CotpEnby,NA,NA,CotpEnby,2020-0188,2021-10-05,10:59:52,12:59:39,NA,incomplete,false,NA,true,7,8,NA,NA,right,NA,NA,m_s_010.jpg,m_l_007.jpg,between-small,NA,NaN,NA,left,974.8000000007451,0,1,1293.8999999994412
CotpEnby,NA,NA,CotpEnby,2020-0188,2021-10-05,10:59:52,12:59:39,NA,incomplete,false,NA,true,7,9,NA,NA,left,NA,NA,m_s_017.jpg,a_1_004.jpg,between-big,NA,NaN,NA,left,1179.9000000003725,1,2,1679.5999999996275
CotpEnby,NA,NA,CotpEnby,2020-0188,2021-10-05,10:59:52,12:59:39,NA,incomplete,false,NA,true,7,10,NA,NA,left,NA,NA,i_c_022.jpg,o_s_001.jpg,between-small,NA,NaN,NA,right,1341.5,0,2,1160.5
CotpEnby,NA,NA,CotpEnby,2020-0188,2021-10-05,10:59:52,12:59:39,NA,incomplete,false,NA,true,7,11,NA,NA,left,NA,NA,i_c_016.jpg,o_c_010.jpg,between-small,NA,NaN,NA,right,1447.7999999998137,0,1,2189.9000000003725
CotpEnby,NA,NA,CotpEnby,2020-0188,2021-10-05,10:59:52,12:59:39,NA,incomplete,false,NA,true,7,12,NA,NA,right,NA,NA,c_2_004.jpg,a_1_004.jpg,within,NA,NaN,NA,left,682.6000000005588,0,2,1518.5999999996275
CotpEnby,NA,NA,CotpEnby,2020-0188,2021-10-05,10:59:52,12:59:39,NA,incomplete,false,NA,true,7,13,NA,NA,right,NA,NA,o_c_009.jpg,o_c_010.jpg,within,NA,NaN,NA,right,860,1,1,1392.7000000001863
CotpEnby,NA,NA,CotpEnby,2020-0188,2021-10-05,10:59:52,12:59:39,NA,incomplete,false,NA,true,7,14,NA,NA,right,NA,NA,a_1_017.jpg,c_2_019.jpg,within,NA,NaN,NA,left,1225,0,2,1004.1000000005588
CotpEnby,NA,NA,CotpEnby,2020-0188,2021-10-05,10:59:52,12:59:39,NA,incomplete,false,NA,true,7,15,NA,NA,left,NA,NA,n_l_002.jpg,c_1_004.jpg,between-big,NA,NaN,NA,left,1015.1999999992549,1,1,2869.100000000559
CotpEnby,NA,NA,CotpEnby,2020-0188,2021-10-05,10:59:52,12:59:39,NA,incomplete,false,NA,true,7,16,NA,NA,left,NA,NA,c_1_028.jpg,a_2_009.jpg,within,NA,NaN,NA,right,5991.5,0,2,1646.7999999998137
CotpEnby,NA,NA,CotpEnby,2020-0188,2021-10-05,10:59:52,12:59:39,NA,incomplete,false,NA,true,7,17,NA,NA,left,NA,NA,c_1_018.jpg,c_2_019.jpg,between-small,NA,NaN,NA,left,38980.5,1,2,1543.2999999998137
CotpEnby,NA,NA,CotpEnby,2020-0188,2021-10-05,10:59:52,12:59:39,NA,incomplete,false,NA,true,7,18,NA,NA,right,NA,NA,n_l_017.jpg,m_s_016.jpg,within,NA,NaN,NA,right,739.4000000003725,1,2,1799.9000000003725
CotpEnby,NA,NA,CotpEnby,2020-0188,2021-10-05,10:59:52,12:59:39,NA,incomplete,false,NA,true,7,19,NA,NA,right,NA,NA,m_l_007.jpg,m_l_019.jpg,within,NA,NaN,NA,right,963.5,1,1,1623.2999999998137
CotpEnby,NA,NA,CotpEnby,2020-0188,2021-10-05,10:59:52,12:59:39,NA,incomplete,false,NA,true,7,20,NA,NA,left,NA,NA,i_c_011.jpg,i_c_016.jpg,within,NA,NaN,NA,left,1276.7999999998137,1,2,933.7999999998137
CotpEnby,NA,NA,CotpEnby,2020-0188,2021-10-05,10:59:52,12:59:39,NA,incomplete,false,NA,true,7,21,NA,NA,left,NA,NA,a_2_009.jpg,i_c_022.jpg,between-big,NA,NaN,NA,right,9735,0,1,1381.7000000001863
CotpEnby,NA,NA,CotpEnby,2020-0188,2021-10-05,10:59:52,12:59:39,NA,incomplete,false,NA,true,7,22,NA,NA,right,NA,NA,n_l_001.jpg,m_s_010.jpg,within,NA,NaN,NA,right,649.5,1,2,1190.7999999998137
CotpEnby,NA,NA,CotpEnby,2020-0188,2021-10-05,10:59:52,12:59:39,NA,incomplete,false,NA,true,7,23,NA,NA,right,NA,NA,c_1_018.jpg,n_l_001.jpg,between-big,NA,NaN,NA,left,828,0,2,2091.600000000559
CotpEnby,NA,NA,CotpEnby,2020-0188,2021-10-05,10:59:52,12:59:39,NA,incomplete,false,NA,true,7,24,NA,NA,left,NA,NA,o_s_001.jpg,i_c_017.jpg,within,NA,NaN,NA,right,619,0,2,1125.699999999255
CotpEnby,NA,NA,CotpEnby,2020-0188,2021-10-05,10:59:52,12:59:39,NA,incomplete,false,NA,true,7,25,NA,NA,right,NA,NA,o_s_004.jpg,o_c_001.jpg,between-small,NA,NaN,NA,right,38172.200000000186,1,1,2068
CotpEnby,NA,NA,CotpEnby,2020-0188,2021-10-05,10:59:52,12:59:39,NA,incomplete,false,NA,true,7,26,NA,NA,right,NA,NA,n_s_003.jpg,n_l_016.jpg,between-small,NA,NaN,NA,left,682.9000000003725,0,2,1301.5999999996275
CotpEnby,NA,NA,CotpEnby,2020-0188,2021-10-05,10:59:52,12:59:39,NA,incomplete,false,true,NA,8,0,location,i_s_018.jpg,right,outdoor,indoor,NA,NA,NA,right,2235.5,true,NA,NA,NA,NA,NA
CotpEnby,NA,NA,CotpEnby,2020-0188,2021-10-05,10:59:52,12:59:39,NA,incomplete,false,true,NA,8,1,location,i_c_014.jpg,left,indoor,outdoor,NA,NA,NA,left,1261.10000000056,true,NA,NA,NA,NA,NA
CotpEnby,NA,NA,CotpEnby,2020-0188,2021-10-05,10:59:52,12:59:39,NA,incomplete,false,true,NA,8,2,location,i_c_003.jpg,right,outdoor,indoor,NA,NA,NA,right,1020.5,true,NA,NA,NA,NA,NA
CotpEnby,NA,NA,CotpEnby,2020-0188,2021-10-05,10:59:52,12:59:39,NA,incomplete,false,true,NA,8,3,location,i_c_012.jpg,right,outdoor,indoor,NA,NA,NA,right,1765.89999999944,true,NA,NA,NA,NA,NA
CotpEnby,NA,NA,CotpEnby,2020-0188,2021-10-05,10:59:52,12:59:39,NA,incomplete,false,true,NA,8,4,location,i_c_026.jpg,left,indoor,outdoor,NA,NA,NA,left,1390.59999999963,true,NA,NA,NA,NA,NA
CotpEnby,NA,NA,CotpEnby,2020-0188,2021-10-05,10:59:52,12:59:39,NA,incomplete,false,true,NA,8,5,building,o_s_009.jpg,right,cottage,skyscraper,NA,NA,NA,right,1833.5,true,NA,NA,NA,NA,NA
CotpEnby,NA,NA,CotpEnby,2020-0188,2021-10-05,10:59:52,12:59:39,NA,incomplete,false,true,NA,8,6,building,i_s_019.jpg,right,cottage,skyscraper,NA,NA,NA,right,1190.5,true,NA,NA,NA,NA,NA
CotpEnby,NA,NA,CotpEnby,2020-0188,2021-10-05,10:59:52,12:59:39,NA,incomplete,false,true,NA,8,7,building,o_c_026.jpg,left,cottage,skyscraper,NA,NA,NA,left,1080.79999999981,true,NA,NA,NA,NA,NA
CotpEnby,NA,NA,CotpEnby,2020-0188,2021-10-05,10:59:52,12:59:39,NA,incomplete,false,true,NA,8,8,building,o_c_021.jpg,right,skyscraper,cottage,NA,NA,NA,right,1130.69999999925,true,NA,NA,NA,NA,NA
CotpEnby,NA,NA,CotpEnby,2020-0188,2021-10-05,10:59:52,12:59:39,NA,incomplete,false,true,NA,8,9,building,i_s_002.jpg,right,cottage,skyscraper,NA,NA,NA,right,1541.80000000075,true,NA,NA,NA,NA,NA
CotpEnby,NA,NA,CotpEnby,2020-0188,2021-10-05,10:59:52,12:59:39,NA,incomplete,false,true,NA,8,10,syllable,a_1_027.jpg,right,2 syllables,1 syllable,NA,NA,NA,right,1020.19999999925,true,NA,NA,NA,NA,NA
CotpEnby,NA,NA,CotpEnby,2020-0188,2021-10-05,10:59:52,12:59:39,NA,incomplete,false,true,NA,8,11,syllable,a_2_006.jpg,right,2 syllables,1 syllable,NA,NA,NA,left,1085.09999999963,false,NA,NA,NA,NA,NA
CotpEnby,NA,NA,CotpEnby,2020-0188,2021-10-05,10:59:52,12:59:39,NA,incomplete,false,true,NA,8,12,syllable,a_2_023.jpg,right,1 syllable,2 syllables,NA,NA,NA,right,994.5,true,NA,NA,NA,NA,NA
CotpEnby,NA,NA,CotpEnby,2020-0188,2021-10-05,10:59:52,12:59:39,NA,incomplete,false,true,NA,8,13,syllable,a_2_028.jpg,right,1 syllable,2 syllables,NA,NA,NA,right,1124.20000000019,true,NA,NA,NA,NA,NA
CotpEnby,NA,NA,CotpEnby,2020-0188,2021-10-05,10:59:52,12:59:39,NA,incomplete,false,true,NA,8,14,syllable,c_1_027.jpg,right,1 syllable,2 syllables,NA,NA,NA,left,854.699999999255,false,NA,NA,NA,NA,NA
CotpEnby,NA,NA,CotpEnby,2020-0188,2021-10-05,10:59:52,12:59:39,NA,incomplete,false,true,NA,8,15,abstractness,c_1_014.jpg,right,abstract,concrete,NA,NA,NA,right,1579.89999999944,true,NA,NA,NA,NA,NA
CotpEnby,NA,NA,CotpEnby,2020-0188,2021-10-05,10:59:52,12:59:39,NA,incomplete,false,true,NA,8,16,abstractness,a_1_003.jpg,left,abstract,concrete,NA,NA,NA,right,1224.39999999944,false,NA,NA,NA,NA,NA
CotpEnby,NA,NA,CotpEnby,2020-0188,2021-10-05,10:59:52,12:59:39,NA,incomplete,false,true,NA,8,17,abstractness,a_1_012.jpg,right,concrete,abstract,NA,NA,NA,left,2282.09999999963,false,NA,NA,NA,NA,NA
CotpEnby,NA,NA,CotpEnby,2020-0188,2021-10-05,10:59:52,12:59:39,NA,incomplete,false,true,NA,8,18,abstractness,a_1_011.jpg,left,abstract,concrete,NA,NA,NA,right,2934.70000000019,false,NA,NA,NA,NA,NA
CotpEnby,NA,NA,CotpEnby,2020-0188,2021-10-05,10:59:52,12:59:39,NA,incomplete,false,true,NA,8,19,abstractness,c_2_012.jpg,left,concrete,abstract,NA,NA,NA,left,2017.5,true,NA,NA,NA,NA,NA
CotpEnby,NA,NA,CotpEnby,2020-0188,2021-10-05,10:59:52,12:59:39,NA,incomplete,false,true,NA,8,20,origin,n_l_019.jpg,right,manmade,natural,NA,NA,NA,right,1236.89999999944,true,NA,NA,NA,NA,NA
CotpEnby,NA,NA,CotpEnby,2020-0188,2021-10-05,10:59:52,12:59:39,NA,incomplete,false,true,NA,8,21,origin,n_s_027.jpg,left,natural,manmade,NA,NA,NA,left,1725.90000000037,true,NA,NA,NA,NA,NA
CotpEnby,NA,NA,CotpEnby,2020-0188,2021-10-05,10:59:52,12:59:39,NA,incomplete,false,true,NA,8,22,origin,m_s_004.jpg,left,manmade,natural,NA,NA,NA,left,1105.79999999981,true,NA,NA,NA,NA,NA
CotpEnby,NA,NA,CotpEnby,2020-0188,2021-10-05,10:59:52,12:59:39,NA,incomplete,false,true,NA,8,23,origin,n_l_027.jpg,right,manmade,natural,NA,NA,NA,right,884.799999999814,true,NA,NA,NA,NA,NA
CotpEnby,NA,NA,CotpEnby,2020-0188,2021-10-05,10:59:52,12:59:39,NA,incomplete,false,true,NA,8,24,origin,n_s_007.jpg,left,natural,manmade,NA,NA,NA,left,1215.20000000019,true,NA,NA,NA,NA,NA
CotpEnby,NA,NA,CotpEnby,2020-0188,2021-10-05,10:59:52,12:59:39,NA,incomplete,false,true,NA,8,25,size,m_l_009.jpg,right,small,large,NA,NA,NA,right,1854.5,true,NA,NA,NA,NA,NA
CotpEnby,NA,NA,CotpEnby,2020-0188,2021-10-05,10:59:52,12:59:39,NA,incomplete,false,true,NA,8,26,size,n_s_017.jpg,left,small,large,NA,NA,NA,left,1006.70000000019,true,NA,NA,NA,NA,NA
CotpEnby,NA,NA,CotpEnby,2020-0188,2021-10-05,10:59:52,12:59:39,NA,incomplete,false,true,NA,8,27,size,n_l_005.jpg,left,large,small,NA,NA,NA,right,852.899999999441,false,NA,NA,NA,NA,NA
CotpEnby,NA,NA,CotpEnby,2020-0188,2021-10-05,10:59:52,12:59:39,NA,incomplete,false,true,NA,8,28,size,m_s_013.jpg,left,small,large,NA,NA,NA,left,1073.09999999963,true,NA,NA,NA,NA,NA
CotpEnby,NA,NA,CotpEnby,2020-0188,2021-10-05,10:59:52,12:59:39,NA,incomplete,false,true,NA,8,29,size,m_s_006.jpg,right,large,small,NA,NA,NA,right,1191.29999999981,true,NA,NA,NA,NA,NA
CotpEnby,NA,NA,CotpEnby,2020-0188,2021-10-05,10:59:52,12:59:39,NA,incomplete,false,NA,true,8,0,NA,NA,left,NA,NA,c_1_027.jpg,a_1_012.jpg,between-small,NA,NaN,NA,left,2771.7000000001863,1,1,1134
CotpEnby,NA,NA,CotpEnby,2020-0188,2021-10-05,10:59:52,12:59:39,NA,incomplete,false,NA,true,8,1,NA,NA,left,NA,NA,o_s_009.jpg,o_c_021.jpg,within,NA,NaN,NA,right,695.2999999998137,0,0,2998.300000000745
CotpEnby,NA,NA,CotpEnby,2020-0188,2021-10-05,10:59:52,12:59:39,NA,incomplete,false,NA,true,8,2,NA,NA,right,NA,NA,a_2_006.jpg,o_c_021.jpg,between-big,NA,NaN,NA,left,804.7000000001863,0,2,1366.4000000003725
CotpEnby,NA,NA,CotpEnby,2020-0188,2021-10-05,10:59:52,12:59:39,NA,incomplete,false,NA,true,8,3,NA,NA,right,NA,NA,a_2_028.jpg,a_1_027.jpg,within,NA,NaN,NA,left,1208,0,1,1576.2000000001863
CotpEnby,NA,NA,CotpEnby,2020-0188,2021-10-05,10:59:52,12:59:39,NA,incomplete,false,NA,true,8,4,NA,NA,left,NA,NA,a_1_003.jpg,c_2_012.jpg,within,NA,NaN,NA,left,1846.2000000001863,1,0,2206
CotpEnby,NA,NA,CotpEnby,2020-0188,2021-10-05,10:59:52,12:59:39,NA,incomplete,false,NA,true,8,5,NA,NA,left,NA,NA,a_2_006.jpg,c_1_027.jpg,within,NA,NaN,NA,right,1041.5,0,0,2559.600000000559
CotpEnby,NA,NA,CotpEnby,2020-0188,2021-10-05,10:59:52,12:59:39,NA,incomplete,false,NA,true,8,6,NA,NA,right,NA,NA,a_2_023.jpg,i_s_002.jpg,between-big,NA,NaN,NA,left,2832.5999999996275,0,1,1045.5
CotpEnby,NA,NA,CotpEnby,2020-0188,2021-10-05,10:59:52,12:59:39,NA,incomplete,false,NA,true,8,7,NA,NA,right,NA,NA,n_l_027.jpg,n_l_019.jpg,within,NA,NaN,NA,right,1753.3999999994412,1,0,1404.1000000005588
CotpEnby,NA,NA,CotpEnby,2020-0188,2021-10-05,10:59:52,12:59:39,NA,incomplete,false,NA,true,8,8,NA,NA,right,NA,NA,n_s_017.jpg,n_l_027.jpg,between-small,NA,NaN,NA,right,1293.3999999994412,1,1,1065.699999999255
CotpEnby,NA,NA,CotpEnby,2020-0188,2021-10-05,10:59:52,12:59:39,NA,incomplete,false,NA,true,8,9,NA,NA,left,NA,NA,a_1_012.jpg,n_l_019.jpg,between-big,NA,NaN,NA,left,1665.5,1,1,1193.800000000745
CotpEnby,NA,NA,CotpEnby,2020-0188,2021-10-05,10:59:52,12:59:39,NA,incomplete,false,NA,true,8,10,NA,NA,right,NA,NA,a_1_003.jpg,a_2_028.jpg,between-small,NA,NaN,NA,left,837.3999999994412,0,0,1551.7000000001863
CotpEnby,NA,NA,CotpEnby,2020-0188,2021-10-05,10:59:52,12:59:39,NA,incomplete,false,NA,true,8,11,NA,NA,left,NA,NA,i_c_003.jpg,o_s_009.jpg,between-small,NA,NaN,NA,left,1393.0999999996275,1,1,1239.2999999998137
CotpEnby,NA,NA,CotpEnby,2020-0188,2021-10-05,10:59:52,12:59:39,NA,incomplete,false,NA,true,8,12,NA,NA,right,NA,NA,i_c_012.jpg,i_s_018.jpg,within,NA,NaN,NA,right,647.1000000005588,1,2,1068.9000000003725
CotpEnby,NA,NA,CotpEnby,2020-0188,2021-10-05,10:59:52,12:59:39,NA,incomplete,false,NA,true,8,13,NA,NA,left,NA,NA,i_c_026.jpg,o_c_026.jpg,between-small,NA,NaN,NA,right,1680.0999999996275,0,1,1383.2999999998137
CotpEnby,NA,NA,CotpEnby,2020-0188,2021-10-05,10:59:52,12:59:39,NA,incomplete,false,NA,true,8,14,NA,NA,left,NA,NA,a_1_011.jpg,n_s_027.jpg,between-big,NA,NaN,NA,left,1247.2000000001863,1,2,1086.9000000003725
CotpEnby,NA,NA,CotpEnby,2020-0188,2021-10-05,10:59:52,12:59:39,NA,incomplete,false,NA,true,8,15,NA,NA,right,NA,NA,i_s_019.jpg,i_c_012.jpg,between-small,NA,NaN,NA,left,810.1000000005588,0,1,1142.5
CotpEnby,NA,NA,CotpEnby,2020-0188,2021-10-05,10:59:52,12:59:39,NA,incomplete,false,NA,true,8,16,NA,NA,right,NA,NA,a_1_027.jpg,o_c_026.jpg,between-big,NA,NaN,NA,right,31371.700000000186,1,1,1316.7000000001863
CotpEnby,NA,NA,CotpEnby,2020-0188,2021-10-05,10:59:52,12:59:39,NA,incomplete,false,NA,true,8,17,NA,NA,left,NA,NA,i_c_014.jpg,i_c_026.jpg,within,NA,NaN,NA,left,736.2999999998137,1,2,1164.5
CotpEnby,NA,NA,CotpEnby,2020-0188,2021-10-05,10:59:52,12:59:39,NA,incomplete,false,NA,true,8,18,NA,NA,left,NA,NA,a_2_023.jpg,c_1_014.jpg,between-small,NA,NaN,NA,right,1900.2999999998137,0,2,1099.199999999255
CotpEnby,NA,NA,CotpEnby,2020-0188,2021-10-05,10:59:52,12:59:39,NA,incomplete,false,NA,true,8,19,NA,NA,left,NA,NA,n_s_007.jpg,n_l_005.jpg,between-small,NA,NaN,NA,left,872.2000000001863,1,1,1414
CotpEnby,NA,NA,CotpEnby,2020-0188,2021-10-05,10:59:52,12:59:39,NA,incomplete,false,NA,true,8,20,NA,NA,right,NA,NA,m_s_004.jpg,c_2_012.jpg,between-big,NA,NaN,NA,left,698.7999999998137,0,2,2299.7000000001863
CotpEnby,NA,NA,CotpEnby,2020-0188,2021-10-05,10:59:52,12:59:39,NA,incomplete,false,NA,true,8,21,NA,NA,left,NA,NA,m_s_004.jpg,m_l_009.jpg,between-small,NA,NaN,NA,left,1398.300000000745,1,2,995.2000000001863
CotpEnby,NA,NA,CotpEnby,2020-0188,2021-10-05,10:59:52,12:59:39,NA,incomplete,false,NA,true,8,22,NA,NA,left,NA,NA,c_1_014.jpg,a_1_011.jpg,within,NA,NaN,NA,right,1632.2999999998137,0,0,1044.5999999996275
CotpEnby,NA,NA,CotpEnby,2020-0188,2021-10-05,10:59:52,12:59:39,NA,incomplete,false,NA,true,8,23,NA,NA,left,NA,NA,n_s_017.jpg,m_s_006.jpg,within,NA,NaN,NA,left,2291.5999999996275,1,1,1017.7999999998137
CotpEnby,NA,NA,CotpEnby,2020-0188,2021-10-05,10:59:52,12:59:39,NA,incomplete,false,NA,true,8,24,NA,NA,left,NA,NA,n_s_027.jpg,n_s_007.jpg,within,NA,NaN,NA,left,865.8999999994412,1,0,1075
CotpEnby,NA,NA,CotpEnby,2020-0188,2021-10-05,10:59:52,12:59:39,NA,incomplete,false,NA,true,8,25,NA,NA,right,NA,NA,i_s_002.jpg,i_s_019.jpg,within,NA,NaN,NA,left,797.3999999994412,0,2,1035.7000000001863
CotpEnby,NA,NA,CotpEnby,2020-0188,2021-10-05,10:59:52,12:59:39,NA,incomplete,false,NA,true,8,26,NA,NA,right,NA,NA,m_s_013.jpg,m_l_009.jpg,within,NA,NaN,NA,left,1928.7000000001863,0,0,1259.6000000005588
CotpEnby,NA,NA,CotpEnby,2020-0188,2021-10-05,10:59:52,12:59:39,NA,incomplete,false,true,NA,9,0,location,o_c_020.jpg,left,outdoor,indoor,NA,NA,NA,left,2208.59999999963,true,NA,NA,NA,NA,NA
CotpEnby,NA,NA,CotpEnby,2020-0188,2021-10-05,10:59:52,12:59:39,NA,incomplete,false,true,NA,9,1,location,o_c_027.jpg,left,outdoor,indoor,NA,NA,NA,left,2161.20000000019,true,NA,NA,NA,NA,NA
CotpEnby,NA,NA,CotpEnby,2020-0188,2021-10-05,10:59:52,12:59:39,NA,incomplete,false,true,NA,9,2,location,i_c_023.jpg,right,outdoor,indoor,NA,NA,NA,right,1230.60000000056,true,NA,NA,NA,NA,NA
CotpEnby,NA,NA,CotpEnby,2020-0188,2021-10-05,10:59:52,12:59:39,NA,incomplete,false,true,NA,9,3,location,i_s_001.jpg,left,indoor,outdoor,NA,NA,NA,left,2011.90000000037,true,NA,NA,NA,NA,NA
