workerId,hitId,assignmentId,subject,studyid,exp_date,exp_start,exp_end,time_start,time_end,practice,encoding,memory,block,trial,event,stim,answer,label_left,label_right,left_image,right_image,condition,response,response_time,response_acc,order_response,order_response_time,order_acc,distance_response,distance_response_time
guK4ipsb,NA,NA,guK4ipsb,2020-0188,2021-11-02,19:49:53,21:09:28,NA,incomplete,true,true,NA,0,0,location,o_c_007.jpg,left,outdoor,indoor,NA,NA,NA,left,1474.79999999888,true,NA,NA,NA,NA,NA
guK4ipsb,NA,NA,guK4ipsb,2020-0188,2021-11-02,19:49:53,21:09:28,NA,incomplete,true,true,NA,0,1,location,i_c_016.jpg,right,outdoor,indoor,NA,NA,NA,right,1629.59999999963,true,NA,NA,NA,NA,NA
guK4ipsb,NA,NA,guK4ipsb,2020-0188,2021-11-02,19:49:53,21:09:28,NA,incomplete,true,true,NA,0,2,location,i_s_020.jpg,right,outdoor,indoor,NA,NA,NA,right,2644,true,NA,NA,NA,NA,NA
guK4ipsb,NA,NA,guK4ipsb,2020-0188,2021-11-02,19:49:53,21:09:28,NA,incomplete,true,true,NA,0,3,location,o_c_010.jpg,right,indoor,outdoor,NA,NA,NA,right,2097.69999999925,true,NA,NA,NA,NA,NA
guK4ipsb,NA,NA,guK4ipsb,2020-0188,2021-11-02,19:49:53,21:09:28,NA,incomplete,true,true,NA,0,4,location,i_c_005.jpg,right,outdoor,indoor,NA,NA,NA,right,1843,true,NA,NA,NA,NA,NA
guK4ipsb,NA,NA,guK4ipsb,2020-0188,2021-11-02,19:49:53,21:09:28,NA,incomplete,true,true,NA,0,5,building,i_s_013.jpg,left,skyscraper,cottage,NA,NA,NA,left,2235.69999999925,true,NA,NA,NA,NA,NA
guK4ipsb,NA,NA,guK4ipsb,2020-0188,2021-11-02,19:49:53,21:09:28,NA,incomplete,true,true,NA,0,6,building,o_s_023.jpg,left,skyscraper,cottage,NA,NA,NA,left,1704.79999999888,true,NA,NA,NA,NA,NA
guK4ipsb,NA,NA,guK4ipsb,2020-0188,2021-11-02,19:49:53,21:09:28,NA,incomplete,true,true,NA,0,7,building,o_s_008.jpg,right,cottage,skyscraper,NA,NA,NA,right,1499.80000000075,true,NA,NA,NA,NA,NA
guK4ipsb,NA,NA,guK4ipsb,2020-0188,2021-11-02,19:49:53,21:09:28,NA,incomplete,true,true,NA,0,8,building,i_c_015.jpg,left,cottage,skyscraper,NA,NA,NA,left,1053.5,true,NA,NA,NA,NA,NA
guK4ipsb,NA,NA,guK4ipsb,2020-0188,2021-11-02,19:49:53,21:09:28,NA,incomplete,true,true,NA,0,9,building,i_c_003.jpg,right,skyscraper,cottage,NA,NA,NA,left,1469.20000000112,false,NA,NA,NA,NA,NA
guK4ipsb,NA,NA,guK4ipsb,2020-0188,2021-11-02,19:49:53,21:09:28,NA,incomplete,true,true,NA,0,10,abstractness,a_2_026.jpg,left,abstract,concrete,NA,NA,NA,left,2755.40000000037,true,NA,NA,NA,NA,NA
guK4ipsb,NA,NA,guK4ipsb,2020-0188,2021-11-02,19:49:53,21:09:28,NA,incomplete,true,true,NA,0,11,abstractness,c_1_021.jpg,left,concrete,abstract,NA,NA,NA,left,1644.29999999888,true,NA,NA,NA,NA,NA
guK4ipsb,NA,NA,guK4ipsb,2020-0188,2021-11-02,19:49:53,21:09:28,NA,incomplete,true,true,NA,0,12,abstractness,a_1_027.jpg,right,concrete,abstract,NA,NA,NA,right,1375.40000000037,true,NA,NA,NA,NA,NA
guK4ipsb,NA,NA,guK4ipsb,2020-0188,2021-11-02,19:49:53,21:09:28,NA,incomplete,true,true,NA,0,13,abstractness,a_2_012.jpg,right,concrete,abstract,NA,NA,NA,right,1536.70000000112,true,NA,NA,NA,NA,NA
guK4ipsb,NA,NA,guK4ipsb,2020-0188,2021-11-02,19:49:53,21:09:28,NA,incomplete,true,true,NA,0,14,abstractness,c_2_011.jpg,right,abstract,concrete,NA,NA,NA,right,1483,true,NA,NA,NA,NA,NA
guK4ipsb,NA,NA,guK4ipsb,2020-0188,2021-11-02,19:49:53,21:09:28,NA,incomplete,true,true,NA,0,15,syllable,c_2_007.jpg,right,1 syllable,2 syllables,NA,NA,NA,right,1677.5,true,NA,NA,NA,NA,NA
guK4ipsb,NA,NA,guK4ipsb,2020-0188,2021-11-02,19:49:53,21:09:28,NA,incomplete,true,true,NA,0,16,syllable,c_2_002.jpg,right,2 syllables,1 syllable,NA,NA,NA,left,1621.89999999851,false,NA,NA,NA,NA,NA
guK4ipsb,NA,NA,guK4ipsb,2020-0188,2021-11-02,19:49:53,21:09:28,NA,incomplete,true,true,NA,0,17,syllable,a_1_019.jpg,right,2 syllables,1 syllable,NA,NA,NA,right,1960.39999999851,true,NA,NA,NA,NA,NA
guK4ipsb,NA,NA,guK4ipsb,2020-0188,2021-11-02,19:49:53,21:09:28,NA,incomplete,true,true,NA,0,18,syllable,c_2_024.jpg,right,2 syllables,1 syllable,NA,NA,NA,left,1048,false,NA,NA,NA,NA,NA
guK4ipsb,NA,NA,guK4ipsb,2020-0188,2021-11-02,19:49:53,21:09:28,NA,incomplete,true,true,NA,0,19,syllable,c_1_019.jpg,right,1 syllable,2 syllables,NA,NA,NA,left,1367.30000000075,false,NA,NA,NA,NA,NA
guK4ipsb,NA,NA,guK4ipsb,2020-0188,2021-11-02,19:49:53,21:09:28,NA,incomplete,true,true,NA,0,20,origin,n_s_028.jpg,right,manmade,natural,NA,NA,NA,right,1751.5,true,NA,NA,NA,NA,NA
guK4ipsb,NA,NA,guK4ipsb,2020-0188,2021-11-02,19:49:53,21:09:28,NA,incomplete,true,true,NA,0,21,origin,m_s_017.jpg,right,natural,manmade,NA,NA,NA,right,2273.59999999963,true,NA,NA,NA,NA,NA
guK4ipsb,NA,NA,guK4ipsb,2020-0188,2021-11-02,19:49:53,21:09:28,NA,incomplete,true,true,NA,0,22,origin,n_l_025.jpg,left,natural,manmade,NA,NA,NA,left,1260.30000000075,true,NA,NA,NA,NA,NA
guK4ipsb,NA,NA,guK4ipsb,2020-0188,2021-11-02,19:49:53,21:09:28,NA,incomplete,true,true,NA,0,23,origin,n_s_001.jpg,left,natural,manmade,NA,NA,NA,left,1438.79999999888,true,NA,NA,NA,NA,NA
guK4ipsb,NA,NA,guK4ipsb,2020-0188,2021-11-02,19:49:53,21:09:28,NA,incomplete,true,true,NA,0,24,origin,m_l_002.jpg,right,natural,manmade,NA,NA,NA,right,1562.5,true,NA,NA,NA,NA,NA
guK4ipsb,NA,NA,guK4ipsb,2020-0188,2021-11-02,19:49:53,21:09:28,NA,incomplete,true,true,NA,0,25,size,m_l_023.jpg,left,large,small,NA,NA,NA,left,2193.40000000037,true,NA,NA,NA,NA,NA
guK4ipsb,NA,NA,guK4ipsb,2020-0188,2021-11-02,19:49:53,21:09:28,NA,incomplete,true,true,NA,0,26,size,n_l_012.jpg,left,large,small,NA,NA,NA,left,1790.90000000037,true,NA,NA,NA,NA,NA
guK4ipsb,NA,NA,guK4ipsb,2020-0188,2021-11-02,19:49:53,21:09:28,NA,incomplete,true,true,NA,0,27,size,m_s_020.jpg,left,small,large,NA,NA,NA,left,1579,true,NA,NA,NA,NA,NA
guK4ipsb,NA,NA,guK4ipsb,2020-0188,2021-11-02,19:49:53,21:09:28,NA,incomplete,true,true,NA,0,28,size,n_s_015.jpg,right,large,small,NA,NA,NA,right,1304.10000000149,true,NA,NA,NA,NA,NA
guK4ipsb,NA,NA,guK4ipsb,2020-0188,2021-11-02,19:49:53,21:09:28,NA,incomplete,true,true,NA,0,29,size,m_l_022.jpg,left,large,small,NA,NA,NA,left,1096.5,true,NA,NA,NA,NA,NA
guK4ipsb,NA,NA,guK4ipsb,2020-0188,2021-11-02,19:49:53,21:09:28,NA,incomplete,true,NA,true,0,0,NA,NA,left,NA,NA,i_c_016.jpg,i_c_005.jpg,within,NA,NaN,NA,left,4567,1,1,3886.5999999996275
guK4ipsb,NA,NA,guK4ipsb,2020-0188,2021-11-02,19:49:53,21:09:28,NA,incomplete,true,NA,true,0,1,NA,NA,left,NA,NA,n_s_028.jpg,n_s_001.jpg,within,NA,NaN,NA,left,3140.2999999988824,1,1,1676.199999999255
guK4ipsb,NA,NA,guK4ipsb,2020-0188,2021-11-02,19:49:53,21:09:28,NA,incomplete,true,NA,true,0,2,NA,NA,left,NA,NA,n_l_012.jpg,m_l_022.jpg,within,NA,NaN,NA,left,4705,1,1,2760.4000000003725
guK4ipsb,NA,NA,guK4ipsb,2020-0188,2021-11-02,19:49:53,21:09:28,NA,incomplete,true,NA,true,0,3,NA,NA,right,NA,NA,n_l_025.jpg,c_1_019.jpg,between-big,NA,NaN,NA,right,6117.199999999255,1,2,1012.4000000003725
guK4ipsb,NA,NA,guK4ipsb,2020-0188,2021-11-02,19:49:53,21:09:28,NA,incomplete,true,NA,true,0,4,NA,NA,left,NA,NA,i_s_013.jpg,i_c_015.jpg,within,NA,NaN,NA,left,2733.800000000745,1,1,956.5999999996275
guK4ipsb,NA,NA,guK4ipsb,2020-0188,2021-11-02,19:49:53,21:09:28,NA,incomplete,true,NA,true,0,5,NA,NA,left,NA,NA,o_s_023.jpg,i_c_003.jpg,within,NA,NaN,NA,left,4923.800000000745,1,0,1720.7000000011176
guK4ipsb,NA,NA,guK4ipsb,2020-0188,2021-11-02,19:49:53,21:09:28,NA,incomplete,true,NA,true,0,6,NA,NA,left,NA,NA,c_2_011.jpg,a_1_019.jpg,between-small,NA,NaN,NA,left,6302.89999999851,1,2,1695.5999999996275
guK4ipsb,NA,NA,guK4ipsb,2020-0188,2021-11-02,19:49:53,21:09:28,NA,incomplete,true,NA,true,0,7,NA,NA,left,NA,NA,o_c_010.jpg,o_s_023.jpg,between-small,NA,NaN,NA,left,8426.5,1,2,1832
guK4ipsb,NA,NA,guK4ipsb,2020-0188,2021-11-02,19:49:53,21:09:28,NA,incomplete,true,NA,true,0,8,NA,NA,right,NA,NA,c_2_024.jpg,c_2_007.jpg,within,NA,NaN,NA,right,7144.200000001118,1,0,1077.300000000745
guK4ipsb,NA,NA,guK4ipsb,2020-0188,2021-11-02,19:49:53,21:09:28,NA,incomplete,true,NA,true,0,9,NA,NA,left,NA,NA,a_1_027.jpg,c_2_007.jpg,between-small,NA,NaN,NA,left,5006.5999999996275,1,1,1660.9000000003725
guK4ipsb,NA,NA,guK4ipsb,2020-0188,2021-11-02,19:49:53,21:09:28,NA,incomplete,true,NA,true,0,10,NA,NA,left,NA,NA,o_c_007.jpg,o_c_010.jpg,within,NA,NaN,NA,right,6514.699999999255,0,2,3634.0999999996275
guK4ipsb,NA,NA,guK4ipsb,2020-0188,2021-11-02,19:49:53,21:09:28,NA,incomplete,true,NA,true,0,11,NA,NA,left,NA,NA,n_l_025.jpg,m_l_023.jpg,between-small,NA,NaN,NA,left,3884.2999999988824,1,2,1036.9000000003725
guK4ipsb,NA,NA,guK4ipsb,2020-0188,2021-11-02,19:49:53,21:09:28,NA,incomplete,true,NA,true,0,12,NA,NA,right,NA,NA,n_l_012.jpg,n_s_001.jpg,between-small,NA,NaN,NA,right,4631.0999999996275,1,2,1438.2999999988824
guK4ipsb,NA,NA,guK4ipsb,2020-0188,2021-11-02,19:49:53,21:09:28,NA,incomplete,true,NA,true,0,13,NA,NA,right,NA,NA,i_s_013.jpg,i_s_020.jpg,between-small,NA,NaN,NA,right,3073.0999999996275,1,1,1077.699999999255
guK4ipsb,NA,NA,guK4ipsb,2020-0188,2021-11-02,19:49:53,21:09:28,NA,incomplete,true,NA,true,0,14,NA,NA,right,NA,NA,m_s_017.jpg,c_2_024.jpg,between-big,NA,NaN,NA,left,5295.800000000745,0,2,933.1999999992549
guK4ipsb,NA,NA,guK4ipsb,2020-0188,2021-11-02,19:49:53,21:09:28,NA,incomplete,true,NA,true,0,15,NA,NA,right,NA,NA,a_2_012.jpg,a_2_026.jpg,within,NA,NaN,NA,right,8094.5999999996275,1,1,1791.0999999996275
guK4ipsb,NA,NA,guK4ipsb,2020-0188,2021-11-02,19:49:53,21:09:28,NA,incomplete,true,NA,true,0,16,NA,NA,left,NA,NA,m_l_023.jpg,n_s_015.jpg,within,NA,NaN,NA,right,4592,0,2,1971.0999999996275
guK4ipsb,NA,NA,guK4ipsb,2020-0188,2021-11-02,19:49:53,21:09:28,NA,incomplete,true,NA,true,0,17,NA,NA,right,NA,NA,c_2_002.jpg,a_2_012.jpg,between-small,NA,NaN,NA,right,4435.60000000149,1,1,1264.2999999988824
guK4ipsb,NA,NA,guK4ipsb,2020-0188,2021-11-02,19:49:53,21:09:28,NA,incomplete,true,NA,true,0,18,NA,NA,right,NA,NA,a_2_026.jpg,o_s_008.jpg,between-big,NA,NaN,NA,right,2871.5,1,3,1572.800000000745
guK4ipsb,NA,NA,guK4ipsb,2020-0188,2021-11-02,19:49:53,21:09:28,NA,incomplete,true,NA,true,0,19,NA,NA,right,NA,NA,a_1_027.jpg,i_c_003.jpg,between-big,NA,NaN,NA,right,2595.5999999996275,1,3,1742.5999999996275
guK4ipsb,NA,NA,guK4ipsb,2020-0188,2021-11-02,19:49:53,21:09:28,NA,incomplete,true,NA,true,0,20,NA,NA,left,NA,NA,i_c_005.jpg,o_s_008.jpg,between-small,NA,NaN,NA,left,4525.200000001118,1,1,1054.2000000011176
guK4ipsb,NA,NA,guK4ipsb,2020-0188,2021-11-02,19:49:53,21:09:28,NA,incomplete,true,NA,true,0,21,NA,NA,left,NA,NA,i_c_015.jpg,c_1_021.jpg,between-big,NA,NaN,NA,left,2263.2999999988824,1,2,809.7999999988824
guK4ipsb,NA,NA,guK4ipsb,2020-0188,2021-11-02,19:49:53,21:09:28,NA,incomplete,true,NA,true,0,22,NA,NA,left,NA,NA,m_l_002.jpg,m_s_020.jpg,between-small,NA,NaN,NA,left,5094.799999998882,1,1,1338.9000000003725
guK4ipsb,NA,NA,guK4ipsb,2020-0188,2021-11-02,19:49:53,21:09:28,NA,incomplete,true,NA,true,0,23,NA,NA,right,NA,NA,m_l_002.jpg,m_s_017.jpg,within,NA,NaN,NA,right,4761.199999999255,1,0,1005.5
guK4ipsb,NA,NA,guK4ipsb,2020-0188,2021-11-02,19:49:53,21:09:28,NA,incomplete,true,NA,true,0,24,NA,NA,right,NA,NA,c_1_019.jpg,c_2_002.jpg,within,NA,NaN,NA,left,8373.599999999627,0,0,1069.4000000003725
guK4ipsb,NA,NA,guK4ipsb,2020-0188,2021-11-02,19:49:53,21:09:28,NA,incomplete,true,NA,true,0,25,NA,NA,left,NA,NA,a_1_019.jpg,n_s_028.jpg,between-big,NA,NaN,NA,right,3577.2999999988824,0,1,1321.5999999996275
guK4ipsb,NA,NA,guK4ipsb,2020-0188,2021-11-02,19:49:53,21:09:28,NA,incomplete,true,NA,true,0,26,NA,NA,left,NA,NA,c_1_021.jpg,c_2_011.jpg,within,NA,NaN,NA,left,3569.0999999996275,1,1,1207.199999999255
guK4ipsb,NA,NA,guK4ipsb,2020-0188,2021-11-02,19:49:53,21:09:28,NA,incomplete,false,true,NA,1,0,origin,m_s_007.jpg,left,manmade,natural,NA,NA,NA,left,1960.89999999851,true,NA,NA,NA,NA,NA
guK4ipsb,NA,NA,guK4ipsb,2020-0188,2021-11-02,19:49:53,21:09:28,NA,incomplete,false,true,NA,1,1,origin,m_l_014.jpg,right,natural,manmade,NA,NA,NA,right,1579.19999999925,true,NA,NA,NA,NA,NA
guK4ipsb,NA,NA,guK4ipsb,2020-0188,2021-11-02,19:49:53,21:09:28,NA,incomplete,false,true,NA,1,2,origin,n_s_019.jpg,right,manmade,natural,NA,NA,NA,right,1257.89999999851,true,NA,NA,NA,NA,NA
guK4ipsb,NA,NA,guK4ipsb,2020-0188,2021-11-02,19:49:53,21:09:28,NA,incomplete,false,true,NA,1,3,origin,n_l_020.jpg,left,natural,manmade,NA,NA,NA,left,1583.09999999963,true,NA,NA,NA,NA,NA
guK4ipsb,NA,NA,guK4ipsb,2020-0188,2021-11-02,19:49:53,21:09:28,NA,incomplete,false,true,NA,1,4,origin,n_l_001.jpg,left,natural,manmade,NA,NA,NA,left,1996.10000000149,true,NA,NA,NA,NA,NA
guK4ipsb,NA,NA,guK4ipsb,2020-0188,2021-11-02,19:49:53,21:09:28,NA,incomplete,false,true,NA,1,5,size,m_l_010.jpg,right,small,large,NA,NA,NA,right,1994.79999999888,true,NA,NA,NA,NA,NA
guK4ipsb,NA,NA,guK4ipsb,2020-0188,2021-11-02,19:49:53,21:09:28,NA,incomplete,false,true,NA,1,6,size,m_l_016.jpg,left,large,small,NA,NA,NA,left,1310.30000000075,true,NA,NA,NA,NA,NA
guK4ipsb,NA,NA,guK4ipsb,2020-0188,2021-11-02,19:49:53,21:09:28,NA,incomplete,false,true,NA,1,7,size,n_l_011.jpg,left,large,small,NA,NA,NA,left,1176.90000000037,true,NA,NA,NA,NA,NA
guK4ipsb,NA,NA,guK4ipsb,2020-0188,2021-11-02,19:49:53,21:09:28,NA,incomplete,false,true,NA,1,8,size,n_l_005.jpg,left,large,small,NA,NA,NA,left,1264.19999999925,true,NA,NA,NA,NA,NA
guK4ipsb,NA,NA,guK4ipsb,2020-0188,2021-11-02,19:49:53,21:09:28,NA,incomplete,false,true,NA,1,9,size,n_l_002.jpg,right,small,large,NA,NA,NA,right,1798.79999999888,true,NA,NA,NA,NA,NA
guK4ipsb,NA,NA,guK4ipsb,2020-0188,2021-11-02,19:49:53,21:09:28,NA,incomplete,false,true,NA,1,10,building,i_c_013.jpg,right,skyscraper,cottage,NA,NA,NA,right,1455.30000000075,true,NA,NA,NA,NA,NA
guK4ipsb,NA,NA,guK4ipsb,2020-0188,2021-11-02,19:49:53,21:09:28,NA,incomplete,false,true,NA,1,11,building,i_s_002.jpg,left,skyscraper,cottage,NA,NA,NA,left,1536.09999999963,true,NA,NA,NA,NA,NA
guK4ipsb,NA,NA,guK4ipsb,2020-0188,2021-11-02,19:49:53,21:09:28,NA,incomplete,false,true,NA,1,12,building,i_s_011.jpg,right,cottage,skyscraper,NA,NA,NA,right,1044.30000000075,true,NA,NA,NA,NA,NA
guK4ipsb,NA,NA,guK4ipsb,2020-0188,2021-11-02,19:49:53,21:09:28,NA,incomplete,false,true,NA,1,13,building,i_c_010.jpg,left,cottage,skyscraper,NA,NA,NA,left,1621.80000000075,true,NA,NA,NA,NA,NA
guK4ipsb,NA,NA,guK4ipsb,2020-0188,2021-11-02,19:49:53,21:09:28,NA,incomplete,false,true,NA,1,14,building,o_s_018.jpg,right,cottage,skyscraper,NA,NA,NA,right,893.300000000745,true,NA,NA,NA,NA,NA
guK4ipsb,NA,NA,guK4ipsb,2020-0188,2021-11-02,19:49:53,21:09:28,NA,incomplete,false,true,NA,1,15,location,o_c_019.jpg,left,outdoor,indoor,NA,NA,NA,left,1623.40000000037,true,NA,NA,NA,NA,NA
guK4ipsb,NA,NA,guK4ipsb,2020-0188,2021-11-02,19:49:53,21:09:28,NA,incomplete,false,true,NA,1,16,location,i_s_027.jpg,left,indoor,outdoor,NA,NA,NA,left,1749.90000000037,true,NA,NA,NA,NA,NA
guK4ipsb,NA,NA,guK4ipsb,2020-0188,2021-11-02,19:49:53,21:09:28,NA,incomplete,false,true,NA,1,17,location,i_s_006.jpg,right,outdoor,indoor,NA,NA,NA,right,1397,true,NA,NA,NA,NA,NA
guK4ipsb,NA,NA,guK4ipsb,2020-0188,2021-11-02,19:49:53,21:09:28,NA,incomplete,false,true,NA,1,18,location,i_c_028.jpg,left,indoor,outdoor,NA,NA,NA,left,1363.40000000037,true,NA,NA,NA,NA,NA
guK4ipsb,NA,NA,guK4ipsb,2020-0188,2021-11-02,19:49:53,21:09:28,NA,incomplete,false,true,NA,1,19,location,i_s_014.jpg,right,outdoor,indoor,NA,NA,NA,right,1722.89999999851,true,NA,NA,NA,NA,NA
guK4ipsb,NA,NA,guK4ipsb,2020-0188,2021-11-02,19:49:53,21:09:28,NA,incomplete,false,true,NA,1,20,syllable,c_1_018.jpg,right,2 syllables,1 syllable,NA,NA,NA,right,1551.19999999925,true,NA,NA,NA,NA,NA
guK4ipsb,NA,NA,guK4ipsb,2020-0188,2021-11-02,19:49:53,21:09:28,NA,incomplete,false,true,NA,1,21,syllable,c_1_005.jpg,right,1 syllable,2 syllables,NA,NA,NA,left,1515.5,false,NA,NA,NA,NA,NA
guK4ipsb,NA,NA,guK4ipsb,2020-0188,2021-11-02,19:49:53,21:09:28,NA,incomplete,false,true,NA,1,22,syllable,c_2_023.jpg,right,2 syllables,1 syllable,NA,NA,NA,left,1329,false,NA,NA,NA,NA,NA
guK4ipsb,NA,NA,guK4ipsb,2020-0188,2021-11-02,19:49:53,21:09:28,NA,incomplete,false,true,NA,1,23,syllable,c_1_006.jpg,right,1 syllable,2 syllables,NA,NA,NA,left,1297.10000000149,false,NA,NA,NA,NA,NA
guK4ipsb,NA,NA,guK4ipsb,2020-0188,2021-11-02,19:49:53,21:09:28,NA,incomplete,false,true,NA,1,24,syllable,c_1_003.jpg,right,2 syllables,1 syllable,NA,NA,NA,right,1235,true,NA,NA,NA,NA,NA
guK4ipsb,NA,NA,guK4ipsb,2020-0188,2021-11-02,19:49:53,21:09:28,NA,incomplete,false,true,NA,1,25,abstractness,c_1_027.jpg,right,abstract,concrete,NA,NA,NA,right,2052.19999999925,true,NA,NA,NA,NA,NA
guK4ipsb,NA,NA,guK4ipsb,2020-0188,2021-11-02,19:49:53,21:09:28,NA,incomplete,false,true,NA,1,26,abstractness,c_2_022.jpg,right,abstract,concrete,NA,NA,NA,right,1939.70000000112,true,NA,NA,NA,NA,NA
guK4ipsb,NA,NA,guK4ipsb,2020-0188,2021-11-02,19:49:53,21:09:28,NA,incomplete,false,true,NA,1,27,abstractness,c_1_014.jpg,right,abstract,concrete,NA,NA,NA,right,1424.09999999963,true,NA,NA,NA,NA,NA
guK4ipsb,NA,NA,guK4ipsb,2020-0188,2021-11-02,19:49:53,21:09:28,NA,incomplete,false,true,NA,1,28,abstractness,c_1_002.jpg,left,concrete,abstract,NA,NA,NA,left,1618,true,NA,NA,NA,NA,NA
guK4ipsb,NA,NA,guK4ipsb,2020-0188,2021-11-02,19:49:53,21:09:28,NA,incomplete,false,true,NA,1,29,abstractness,c_1_026.jpg,left,concrete,abstract,NA,NA,NA,left,1152.60000000149,true,NA,NA,NA,NA,NA
guK4ipsb,NA,NA,guK4ipsb,2020-0188,2021-11-02,19:49:53,21:09:28,NA,incomplete,false,NA,true,1,0,NA,NA,right,NA,NA,c_1_002.jpg,c_1_027.jpg,within,NA,NaN,NA,right,5740.4000000003725,1,0,1547.300000000745
guK4ipsb,NA,NA,guK4ipsb,2020-0188,2021-11-02,19:49:53,21:09:28,NA,incomplete,false,NA,true,1,1,NA,NA,right,NA,NA,i_s_006.jpg,o_s_018.jpg,between-small,NA,NaN,NA,right,3509.4000000003725,1,1,994.9000000003725
guK4ipsb,NA,NA,guK4ipsb,2020-0188,2021-11-02,19:49:53,21:09:28,NA,incomplete,false,NA,true,1,2,NA,NA,left,NA,NA,i_s_011.jpg,o_c_019.jpg,between-small,NA,NaN,NA,right,6798.0999999996275,0,0,1848.2999999988824
guK4ipsb,NA,NA,guK4ipsb,2020-0188,2021-11-02,19:49:53,21:09:28,NA,incomplete,false,NA,true,1,3,NA,NA,right,NA,NA,i_s_002.jpg,n_l_005.jpg,between-big,NA,NaN,NA,right,2003,1,2,1775.2999999988824
guK4ipsb,NA,NA,guK4ipsb,2020-0188,2021-11-02,19:49:53,21:09:28,NA,incomplete,false,NA,true,1,4,NA,NA,right,NA,NA,i_c_010.jpg,i_c_013.jpg,within,NA,NaN,NA,right,2279.300000000745,1,0,1014.8000000007451
guK4ipsb,NA,NA,guK4ipsb,2020-0188,2021-11-02,19:49:53,21:09:28,NA,incomplete,false,NA,true,1,5,NA,NA,left,NA,NA,i_c_010.jpg,i_s_027.jpg,between-small,NA,NaN,NA,left,2966.60000000149,1,0,1849.4000000003725
guK4ipsb,NA,NA,guK4ipsb,2020-0188,2021-11-02,19:49:53,21:09:28,NA,incomplete,false,NA,true,1,6,NA,NA,left,NA,NA,n_l_011.jpg,i_c_013.jpg,between-big,NA,NaN,NA,left,1687,1,2,5181.0999999996275
guK4ipsb,NA,NA,guK4ipsb,2020-0188,2021-11-02,19:49:53,21:09:28,NA,incomplete,false,NA,true,1,7,NA,NA,left,NA,NA,c_1_006.jpg,c_2_022.jpg,between-small,NA,NaN,NA,right,2513.699999999255,0,0,1910.300000000745
guK4ipsb,NA,NA,guK4ipsb,2020-0188,2021-11-02,19:49:53,21:09:28,NA,incomplete,false,NA,true,1,8,NA,NA,left,NA,NA,c_2_022.jpg,c_1_026.jpg,within,NA,NaN,NA,left,2838.0999999996275,1,0,2134.9000000003725
guK4ipsb,NA,NA,guK4ipsb,2020-0188,2021-11-02,19:49:53,21:09:28,NA,incomplete,false,NA,true,1,9,NA,NA,right,NA,NA,n_l_011.jpg,n_l_001.jpg,between-small,NA,NaN,NA,right,2181,1,0,1086.0999999996275
guK4ipsb,NA,NA,guK4ipsb,2020-0188,2021-11-02,19:49:53,21:09:28,NA,incomplete,false,NA,true,1,10,NA,NA,left,NA,NA,i_s_014.jpg,c_2_023.jpg,between-big,NA,NaN,NA,left,1945.7000000011176,1,2,1579.699999999255
guK4ipsb,NA,NA,guK4ipsb,2020-0188,2021-11-02,19:49:53,21:09:28,NA,incomplete,false,NA,true,1,11,NA,NA,right,NA,NA,n_l_002.jpg,m_l_016.jpg,within,NA,NaN,NA,right,2877.4000000003725,1,1,3520.300000000745
guK4ipsb,NA,NA,guK4ipsb,2020-0188,2021-11-02,19:49:53,21:09:28,NA,incomplete,false,NA,true,1,12,NA,NA,right,NA,NA,i_c_028.jpg,o_c_019.jpg,within,NA,NaN,NA,right,1969.199999999255,1,0,1697.300000000745
guK4ipsb,NA,NA,guK4ipsb,2020-0188,2021-11-02,19:49:53,21:09:28,NA,incomplete,false,NA,true,1,13,NA,NA,right,NA,NA,c_1_005.jpg,i_c_028.jpg,between-big,NA,NaN,NA,right,1717.4000000003725,1,2,1334.300000000745
guK4ipsb,NA,NA,guK4ipsb,2020-0188,2021-11-02,19:49:53,21:09:28,NA,incomplete,false,NA,true,1,14,NA,NA,left,NA,NA,n_l_002.jpg,i_s_011.jpg,between-big,NA,NaN,NA,left,2329,1,2,1012
guK4ipsb,NA,NA,guK4ipsb,2020-0188,2021-11-02,19:49:53,21:09:28,NA,incomplete,false,NA,true,1,15,NA,NA,left,NA,NA,i_s_002.jpg,o_s_018.jpg,within,NA,NaN,NA,right,2296.5999999996275,0,1,1182.7999999988824
guK4ipsb,NA,NA,guK4ipsb,2020-0188,2021-11-02,19:49:53,21:09:28,NA,incomplete,false,NA,true,1,16,NA,NA,left,NA,NA,c_1_018.jpg,c_1_006.jpg,within,NA,NaN,NA,left,2190.0999999996275,1,0,1156.7000000011176
guK4ipsb,NA,NA,guK4ipsb,2020-0188,2021-11-02,19:49:53,21:09:28,NA,incomplete,false,NA,true,1,17,NA,NA,right,NA,NA,m_l_010.jpg,n_s_019.jpg,between-small,NA,NaN,NA,right,5297.5999999996275,1,1,1019.2999999988824
guK4ipsb,NA,NA,guK4ipsb,2020-0188,2021-11-02,19:49:53,21:09:28,NA,incomplete,false,NA,true,1,18,NA,NA,left,NA,NA,c_1_005.jpg,c_1_003.jpg,within,NA,NaN,NA,right,6297.89999999851,0,1,2059.199999999255
guK4ipsb,NA,NA,guK4ipsb,2020-0188,2021-11-02,19:49:53,21:09:28,NA,incomplete,false,NA,true,1,19,NA,NA,left,NA,NA,m_l_014.jpg,n_l_001.jpg,within,NA,NaN,NA,left,2049.9000000003725,1,1,1165
guK4ipsb,NA,NA,guK4ipsb,2020-0188,2021-11-02,19:49:53,21:09:28,NA,incomplete,false,NA,true,1,20,NA,NA,left,NA,NA,m_s_007.jpg,n_l_020.jpg,within,NA,NaN,NA,left,5093.9000000003725,1,1,1856
guK4ipsb,NA,NA,guK4ipsb,2020-0188,2021-11-02,19:49:53,21:09:28,NA,incomplete,false,NA,true,1,21,NA,NA,left,NA,NA,i_s_006.jpg,c_1_018.jpg,between-big,NA,NaN,NA,left,3749.699999999255,1,2,1725.5999999996275
guK4ipsb,NA,NA,guK4ipsb,2020-0188,2021-11-02,19:49:53,21:09:28,NA,incomplete,false,NA,true,1,22,NA,NA,left,NA,NA,n_l_020.jpg,m_l_016.jpg,between-small,NA,NaN,NA,left,1815.3999999985099,1,1,1669
guK4ipsb,NA,NA,guK4ipsb,2020-0188,2021-11-02,19:49:53,21:09:28,NA,incomplete,false,NA,true,1,23,NA,NA,left,NA,NA,m_l_010.jpg,n_l_005.jpg,within,NA,NaN,NA,left,2116.60000000149,1,1,1134.0999999996275
guK4ipsb,NA,NA,guK4ipsb,2020-0188,2021-11-02,19:49:53,21:09:28,NA,incomplete,false,NA,true,1,24,NA,NA,left,NA,NA,c_1_003.jpg,c_1_014.jpg,between-small,NA,NaN,NA,right,2285.5999999996275,0,1,1531.0999999996275
guK4ipsb,NA,NA,guK4ipsb,2020-0188,2021-11-02,19:49:53,21:09:28,NA,incomplete,false,NA,true,1,25,NA,NA,left,NA,NA,c_2_023.jpg,c_1_027.jpg,between-small,NA,NaN,NA,right,2569,0,1,1061.300000000745
guK4ipsb,NA,NA,guK4ipsb,2020-0188,2021-11-02,19:49:53,21:09:28,NA,incomplete,false,NA,true,1,26,NA,NA,right,NA,NA,i_s_014.jpg,i_s_027.jpg,within,NA,NaN,NA,left,3001.2999999988824,0,1,1148.7999999988824
guK4ipsb,NA,NA,guK4ipsb,2020-0188,2021-11-02,19:49:53,21:09:28,NA,incomplete,false,true,NA,2,0,syllable,c_1_017.jpg,right,1 syllable,2 syllables,NA,NA,NA,left,3471,false,NA,NA,NA,NA,NA
guK4ipsb,NA,NA,guK4ipsb,2020-0188,2021-11-02,19:49:53,21:09:28,NA,incomplete,false,true,NA,2,1,syllable,a_1_009.jpg,right,2 syllables,1 syllable,NA,NA,NA,right,2090.19999999925,true,NA,NA,NA,NA,NA
guK4ipsb,NA,NA,guK4ipsb,2020-0188,2021-11-02,19:49:53,21:09:28,NA,incomplete,false,true,NA,2,2,syllable,c_2_018.jpg,right,2 syllables,1 syllable,NA,NA,NA,left,1317,false,NA,NA,NA,NA,NA
guK4ipsb,NA,NA,guK4ipsb,2020-0188,2021-11-02,19:49:53,21:09:28,NA,incomplete,false,true,NA,2,3,syllable,a_2_016.jpg,right,2 syllables,1 syllable,NA,NA,NA,left,1229.20000000112,false,NA,NA,NA,NA,NA
guK4ipsb,NA,NA,guK4ipsb,2020-0188,2021-11-02,19:49:53,21:09:28,NA,incomplete,false,true,NA,2,4,syllable,c_1_004.jpg,right,1 syllable,2 syllables,NA,NA,NA,left,1084.5,false,NA,NA,NA,NA,NA
guK4ipsb,NA,NA,guK4ipsb,2020-0188,2021-11-02,19:49:53,21:09:28,NA,incomplete,false,true,NA,2,5,abstractness,c_2_020.jpg,right,abstract,concrete,NA,NA,NA,right,2258.30000000075,true,NA,NA,NA,NA,NA
guK4ipsb,NA,NA,guK4ipsb,2020-0188,2021-11-02,19:49:53,21:09:28,NA,incomplete,false,true,NA,2,6,abstractness,a_2_019.jpg,left,abstract,concrete,NA,NA,NA,left,2169.79999999888,true,NA,NA,NA,NA,NA
guK4ipsb,NA,NA,guK4ipsb,2020-0188,2021-11-02,19:49:53,21:09:28,NA,incomplete,false,true,NA,2,7,abstractness,a_2_028.jpg,right,concrete,abstract,NA,NA,NA,right,1576.20000000112,true,NA,NA,NA,NA,NA
guK4ipsb,NA,NA,guK4ipsb,2020-0188,2021-11-02,19:49:53,21:09:28,NA,incomplete,false,true,NA,2,8,abstractness,c_2_006.jpg,left,concrete,abstract,NA,NA,NA,left,1917.29999999888,true,NA,NA,NA,NA,NA
guK4ipsb,NA,NA,guK4ipsb,2020-0188,2021-11-02,19:49:53,21:09:28,NA,incomplete,false,true,NA,2,9,abstractness,c_2_004.jpg,right,abstract,concrete,NA,NA,NA,right,1316.40000000037,true,NA,NA,NA,NA,NA
guK4ipsb,NA,NA,guK4ipsb,2020-0188,2021-11-02,19:49:53,21:09:28,NA,incomplete,false,true,NA,2,10,origin,m_l_017.jpg,left,manmade,natural,NA,NA,NA,left,1556.69999999925,true,NA,NA,NA,NA,NA
guK4ipsb,NA,NA,guK4ipsb,2020-0188,2021-11-02,19:49:53,21:09:28,NA,incomplete,false,true,NA,2,11,origin,n_l_010.jpg,right,manmade,natural,NA,NA,NA,right,1697.80000000075,true,NA,NA,NA,NA,NA
guK4ipsb,NA,NA,guK4ipsb,2020-0188,2021-11-02,19:49:53,21:09:28,NA,incomplete,false,true,NA,2,12,origin,n_s_026.jpg,left,natural,manmade,NA,NA,NA,left,2578.59999999963,true,NA,NA,NA,NA,NA
guK4ipsb,NA,NA,guK4ipsb,2020-0188,2021-11-02,19:49:53,21:09:28,NA,incomplete,false,true,NA,2,13,origin,m_s_012.jpg,right,natural,manmade,NA,NA,NA,right,1346.30000000075,true,NA,NA,NA,NA,NA
guK4ipsb,NA,NA,guK4ipsb,2020-0188,2021-11-02,19:49:53,21:09:28,NA,incomplete,false,true,NA,2,14,origin,n_l_026.jpg,left,natural,manmade,NA,NA,NA,left,1551.59999999963,true,NA,NA,NA,NA,NA
guK4ipsb,NA,NA,guK4ipsb,2020-0188,2021-11-02,19:49:53,21:09:28,NA,incomplete,false,true,NA,2,15,size,n_s_002.jpg,right,large,small,NA,NA,NA,right,1575.30000000075,true,NA,NA,NA,NA,NA
guK4ipsb,NA,NA,guK4ipsb,2020-0188,2021-11-02,19:49:53,21:09:28,NA,incomplete,false,true,NA,2,16,size,n_s_009.jpg,left,small,large,NA,NA,NA,left,1358.20000000112,true,NA,NA,NA,NA,NA
guK4ipsb,NA,NA,guK4ipsb,2020-0188,2021-11-02,19:49:53,21:09:28,NA,incomplete,false,true,NA,2,17,size,n_s_012.jpg,right,large,small,NA,NA,NA,right,1252.5,true,NA,NA,NA,NA,NA
guK4ipsb,NA,NA,guK4ipsb,2020-0188,2021-11-02,19:49:53,21:09:28,NA,incomplete,false,true,NA,2,18,size,m_l_024.jpg,left,large,small,NA,NA,NA,left,2172.69999999925,true,NA,NA,NA,NA,NA
guK4ipsb,NA,NA,guK4ipsb,2020-0188,2021-11-02,19:49:53,21:09:28,NA,incomplete,false,true,NA,2,19,size,m_s_009.jpg,left,small,large,NA,NA,NA,left,1407.59999999963,true,NA,NA,NA,NA,NA
guK4ipsb,NA,NA,guK4ipsb,2020-0188,2021-11-02,19:49:53,21:09:28,NA,incomplete,false,true,NA,2,20,location,o_s_015.jpg,left,outdoor,indoor,NA,NA,NA,left,1621.30000000075,true,NA,NA,NA,NA,NA
guK4ipsb,NA,NA,guK4ipsb,2020-0188,2021-11-02,19:49:53,21:09:28,NA,incomplete,false,true,NA,2,21,location,o_c_027.jpg,right,indoor,outdoor,NA,NA,NA,right,1507.60000000149,true,NA,NA,NA,NA,NA
guK4ipsb,NA,NA,guK4ipsb,2020-0188,2021-11-02,19:49:53,21:09:28,NA,incomplete,false,true,NA,2,22,location,o_c_012.jpg,left,outdoor,indoor,NA,NA,NA,left,1766.90000000037,true,NA,NA,NA,NA,NA
guK4ipsb,NA,NA,guK4ipsb,2020-0188,2021-11-02,19:49:53,21:09:28,NA,incomplete,false,true,NA,2,23,location,i_s_023.jpg,left,indoor,outdoor,NA,NA,NA,left,1788.79999999888,true,NA,NA,NA,NA,NA
guK4ipsb,NA,NA,guK4ipsb,2020-0188,2021-11-02,19:49:53,21:09:28,NA,incomplete,false,true,NA,2,24,location,o_c_026.jpg,left,outdoor,indoor,NA,NA,NA,left,1539,true,NA,NA,NA,NA,NA
guK4ipsb,NA,NA,guK4ipsb,2020-0188,2021-11-02,19:49:53,21:09:28,NA,incomplete,false,true,NA,2,25,building,o_s_016.jpg,right,cottage,skyscraper,NA,NA,NA,right,1761.79999999888,true,NA,NA,NA,NA,NA
guK4ipsb,NA,NA,guK4ipsb,2020-0188,2021-11-02,19:49:53,21:09:28,NA,incomplete,false,true,NA,2,26,building,o_c_011.jpg,right,skyscraper,cottage,NA,NA,NA,right,1730.60000000149,true,NA,NA,NA,NA,NA
guK4ipsb,NA,NA,guK4ipsb,2020-0188,2021-11-02,19:49:53,21:09:28,NA,incomplete,false,true,NA,2,27,building,o_c_017.jpg,right,skyscraper,cottage,NA,NA,NA,right,1665.09999999963,true,NA,NA,NA,NA,NA
guK4ipsb,NA,NA,guK4ipsb,2020-0188,2021-11-02,19:49:53,21:09:28,NA,incomplete,false,true,NA,2,28,building,o_c_001.jpg,left,cottage,skyscraper,NA,NA,NA,left,1337,true,NA,NA,NA,NA,NA
guK4ipsb,NA,NA,guK4ipsb,2020-0188,2021-11-02,19:49:53,21:09:28,NA,incomplete,false,true,NA,2,29,building,i_c_017.jpg,right,skyscraper,cottage,NA,NA,NA,right,1420,true,NA,NA,NA,NA,NA
guK4ipsb,NA,NA,guK4ipsb,2020-0188,2021-11-02,19:49:53,21:09:28,NA,incomplete,false,NA,true,2,0,NA,NA,right,NA,NA,o_c_011.jpg,i_s_023.jpg,between-small,NA,NaN,NA,right,4843.5,1,1,1037.5
guK4ipsb,NA,NA,guK4ipsb,2020-0188,2021-11-02,19:49:53,21:09:28,NA,incomplete,false,NA,true,2,1,NA,NA,left,NA,NA,a_2_016.jpg,a_2_019.jpg,between-small,NA,NaN,NA,right,3723.800000000745,0,1,1403
guK4ipsb,NA,NA,guK4ipsb,2020-0188,2021-11-02,19:49:53,21:09:28,NA,incomplete,false,NA,true,2,2,NA,NA,left,NA,NA,c_1_017.jpg,a_2_016.jpg,within,NA,NaN,NA,right,3476.9000000003725,0,1,2115.9000000003725
guK4ipsb,NA,NA,guK4ipsb,2020-0188,2021-11-02,19:49:53,21:09:28,NA,incomplete,false,NA,true,2,3,NA,NA,right,NA,NA,c_2_006.jpg,c_2_020.jpg,within,NA,NaN,NA,right,3380.5,1,0,1222.0999999996275
guK4ipsb,NA,NA,guK4ipsb,2020-0188,2021-11-02,19:49:53,21:09:28,NA,incomplete,false,NA,true,2,4,NA,NA,left,NA,NA,n_s_009.jpg,m_s_009.jpg,within,NA,NaN,NA,left,3543.2999999988824,1,1,1306.800000000745
guK4ipsb,NA,NA,guK4ipsb,2020-0188,2021-11-02,19:49:53,21:09:28,NA,incomplete,false,NA,true,2,5,NA,NA,left,NA,NA,n_s_026.jpg,n_s_002.jpg,between-small,NA,NaN,NA,right,2025.800000000745,0,1,1240
guK4ipsb,NA,NA,guK4ipsb,2020-0188,2021-11-02,19:49:53,21:09:28,NA,incomplete,false,NA,true,2,6,NA,NA,left,NA,NA,a_1_009.jpg,c_1_004.jpg,within,NA,NaN,NA,left,2375.800000000745,1,1,1070.5999999996275
guK4ipsb,NA,NA,guK4ipsb,2020-0188,2021-11-02,19:49:53,21:09:28,NA,incomplete,false,NA,true,2,7,NA,NA,right,NA,NA,n_l_026.jpg,n_l_010.jpg,within,NA,NaN,NA,right,5993.300000000745,1,1,1573.199999999255
guK4ipsb,NA,NA,guK4ipsb,2020-0188,2021-11-02,19:49:53,21:09:28,NA,incomplete,false,NA,true,2,8,NA,NA,right,NA,NA,m_l_017.jpg,a_2_028.jpg,between-big,NA,NaN,NA,right,3551,1,2,1230.800000000745
guK4ipsb,NA,NA,guK4ipsb,2020-0188,2021-11-02,19:49:53,21:09:28,NA,incomplete,false,NA,true,2,9,NA,NA,left,NA,NA,m_l_024.jpg,o_c_027.jpg,between-big,NA,NaN,NA,right,3731.5,0,1,2246.699999999255
guK4ipsb,NA,NA,guK4ipsb,2020-0188,2021-11-02,19:49:53,21:09:28,NA,incomplete,false,NA,true,2,10,NA,NA,right,NA,NA,m_l_024.jpg,n_s_002.jpg,within,NA,NaN,NA,right,2716.10000000149,1,1,1681.699999999255
guK4ipsb,NA,NA,guK4ipsb,2020-0188,2021-11-02,19:49:53,21:09:28,NA,incomplete,false,NA,true,2,11,NA,NA,right,NA,NA,o_c_001.jpg,o_s_016.jpg,within,NA,NaN,NA,left,5034.300000000745,0,2,1157.9000000003725
guK4ipsb,NA,NA,guK4ipsb,2020-0188,2021-11-02,19:49:53,21:09:28,NA,incomplete,false,NA,true,2,12,NA,NA,right,NA,NA,o_c_012.jpg,m_s_009.jpg,between-big,NA,NaN,NA,right,1539.5999999996275,1,2,1191
guK4ipsb,NA,NA,guK4ipsb,2020-0188,2021-11-02,19:49:53,21:09:28,NA,incomplete,false,NA,true,2,13,NA,NA,left,NA,NA,a_2_019.jpg,c_2_004.jpg,within,NA,NaN,NA,left,2903.9000000003725,1,1,1776.2999999988824
guK4ipsb,NA,NA,guK4ipsb,2020-0188,2021-11-02,19:49:53,21:09:28,NA,incomplete,false,NA,true,2,14,NA,NA,right,NA,NA,o_s_015.jpg,n_s_012.jpg,between-big,NA,NaN,NA,right,6657.699999999255,1,2,1069.1000000014901
guK4ipsb,NA,NA,guK4ipsb,2020-0188,2021-11-02,19:49:53,21:09:28,NA,incomplete,false,NA,true,2,15,NA,NA,right,NA,NA,o_c_017.jpg,o_c_026.jpg,between-small,NA,NaN,NA,right,2179.5,1,1,892.0999999996275
guK4ipsb,NA,NA,guK4ipsb,2020-0188,2021-11-02,19:49:53,21:09:28,NA,incomplete,false,NA,true,2,16,NA,NA,left,NA,NA,o_c_012.jpg,o_s_016.jpg,between-small,NA,NaN,NA,left,1914.6000000014901,1,1,1392.7999999988824
guK4ipsb,NA,NA,guK4ipsb,2020-0188,2021-11-02,19:49:53,21:09:28,NA,incomplete,false,NA,true,2,17,NA,NA,left,NA,NA,m_s_012.jpg,n_s_009.jpg,between-small,NA,NaN,NA,left,2003.2999999988824,1,1,1362.5
guK4ipsb,NA,NA,guK4ipsb,2020-0188,2021-11-02,19:49:53,21:09:28,NA,incomplete,false,NA,true,2,18,NA,NA,right,NA,NA,i_c_017.jpg,o_c_011.jpg,within,NA,NaN,NA,right,2292.7999999988824,1,1,1524.5999999996275
guK4ipsb,NA,NA,guK4ipsb,2020-0188,2021-11-02,19:49:53,21:09:28,NA,incomplete,false,NA,true,2,19,NA,NA,right,NA,NA,n_s_026.jpg,c_2_004.jpg,between-big,NA,NaN,NA,right,2132.4000000003725,1,2,899.8000000007451
guK4ipsb,NA,NA,guK4ipsb,2020-0188,2021-11-02,19:49:53,21:09:28,NA,incomplete,false,NA,true,2,20,NA,NA,right,NA,NA,o_c_026.jpg,o_c_027.jpg,within,NA,NaN,NA,left,2206.4000000003725,0,1,2683.4000000003725
guK4ipsb,NA,NA,guK4ipsb,2020-0188,2021-11-02,19:49:53,21:09:28,NA,incomplete,false,NA,true,2,21,NA,NA,right,NA,NA,c_2_020.jpg,c_2_018.jpg,between-small,NA,NaN,NA,left,2499,0,0,1491.800000000745
guK4ipsb,NA,NA,guK4ipsb,2020-0188,2021-11-02,19:49:53,21:09:28,NA,incomplete,false,NA,true,2,22,NA,NA,left,NA,NA,c_1_004.jpg,a_2_028.jpg,between-small,NA,NaN,NA,right,3333.199999999255,0,1,1079.300000000745
guK4ipsb,NA,NA,guK4ipsb,2020-0188,2021-11-02,19:49:53,21:09:28,NA,incomplete,false,NA,true,2,23,NA,NA,left,NA,NA,c_2_006.jpg,n_l_010.jpg,between-big,NA,NaN,NA,left,1978.800000000745,1,2,784.5
guK4ipsb,NA,NA,guK4ipsb,2020-0188,2021-11-02,19:49:53,21:09:28,NA,incomplete,false,NA,true,2,24,NA,NA,left,NA,NA,m_l_017.jpg,m_s_012.jpg,within,NA,NaN,NA,left,2432.0999999996275,1,1,952.5
guK4ipsb,NA,NA,guK4ipsb,2020-0188,2021-11-02,19:49:53,21:09:28,NA,incomplete,false,NA,true,2,25,NA,NA,right,NA,NA,i_s_023.jpg,o_s_015.jpg,within,NA,NaN,NA,right,1758.199999999255,1,1,1054.6000000014901
guK4ipsb,NA,NA,guK4ipsb,2020-0188,2021-11-02,19:49:53,21:09:28,NA,incomplete,false,NA,true,2,26,NA,NA,left,NA,NA,n_l_026.jpg,n_s_012.jpg,between-small,NA,NaN,NA,left,2563.5999999996275,1,1,956.9000000003725
guK4ipsb,NA,NA,guK4ipsb,2020-0188,2021-11-02,19:49:53,21:09:28,NA,incomplete,false,true,NA,3,0,origin,n_l_018.jpg,right,manmade,natural,NA,NA,NA,right,1414.09999999963,true,NA,NA,NA,NA,NA
guK4ipsb,NA,NA,guK4ipsb,2020-0188,2021-11-02,19:49:53,21:09:28,NA,incomplete,false,true,NA,3,1,origin,m_l_027.jpg,right,natural,manmade,NA,NA,NA,right,1536.19999999925,true,NA,NA,NA,NA,NA
guK4ipsb,NA,NA,guK4ipsb,2020-0188,2021-11-02,19:49:53,21:09:28,NA,incomplete,false,true,NA,3,2,origin,m_s_016.jpg,right,natural,manmade,NA,NA,NA,right,1239.40000000037,true,NA,NA,NA,NA,NA
guK4ipsb,NA,NA,guK4ipsb,2020-0188,2021-11-02,19:49:53,21:09:28,NA,incomplete,false,true,NA,3,3,origin,m_s_008.jpg,left,manmade,natural,NA,NA,NA,left,1245.59999999963,true,NA,NA,NA,NA,NA
guK4ipsb,NA,NA,guK4ipsb,2020-0188,2021-11-02,19:49:53,21:09:28,NA,incomplete,false,true,NA,3,4,origin,m_s_011.jpg,right,natural,manmade,NA,NA,NA,right,1746.5,true,NA,NA,NA,NA,NA
guK4ipsb,NA,NA,guK4ipsb,2020-0188,2021-11-02,19:49:53,21:09:28,NA,incomplete,false,true,NA,3,5,size,m_l_007.jpg,left,large,small,NA,NA,NA,left,1794,true,NA,NA,NA,NA,NA
guK4ipsb,NA,NA,guK4ipsb,2020-0188,2021-11-02,19:49:53,21:09:28,NA,incomplete,false,true,NA,3,6,size,n_l_006.jpg,left,large,small,NA,NA,NA,left,1363.90000000037,true,NA,NA,NA,NA,NA
guK4ipsb,NA,NA,guK4ipsb,2020-0188,2021-11-02,19:49:53,21:09:28,NA,incomplete,false,true,NA,3,7,size,m_s_018.jpg,left,small,large,NA,NA,NA,left,1391.59999999963,true,NA,NA,NA,NA,NA
guK4ipsb,NA,NA,guK4ipsb,2020-0188,2021-11-02,19:49:53,21:09:28,NA,incomplete,false,true,NA,3,8,size,m_l_015.jpg,right,small,large,NA,NA,NA,right,2396.29999999888,true,NA,NA,NA,NA,NA
guK4ipsb,NA,NA,guK4ipsb,2020-0188,2021-11-02,19:49:53,21:09:28,NA,incomplete,false,true,NA,3,9,size,m_l_020.jpg,left,large,small,NA,NA,NA,left,1904.59999999963,true,NA,NA,NA,NA,NA
guK4ipsb,NA,NA,guK4ipsb,2020-0188,2021-11-02,19:49:53,21:09:28,NA,incomplete,false,true,NA,3,10,location,o_s_024.jpg,left,outdoor,indoor,NA,NA,NA,left,1488.29999999888,true,NA,NA,NA,NA,NA
guK4ipsb,NA,NA,guK4ipsb,2020-0188,2021-11-02,19:49:53,21:09:28,NA,incomplete,false,true,NA,3,11,location,i_s_001.jpg,right,outdoor,indoor,NA,NA,NA,right,1006.40000000037,true,NA,NA,NA,NA,NA
guK4ipsb,NA,NA,guK4ipsb,2020-0188,2021-11-02,19:49:53,21:09:28,NA,incomplete,false,true,NA,3,12,location,o_c_009.jpg,left,outdoor,indoor,NA,NA,NA,left,1565.09999999963,true,NA,NA,NA,NA,NA
guK4ipsb,NA,NA,guK4ipsb,2020-0188,2021-11-02,19:49:53,21:09:28,NA,incomplete,false,true,NA,3,13,location,o_s_027.jpg,left,outdoor,indoor,NA,NA,NA,left,1261.09999999963,true,NA,NA,NA,NA,NA
guK4ipsb,NA,NA,guK4ipsb,2020-0188,2021-11-02,19:49:53,21:09:28,NA,incomplete,false,true,NA,3,14,location,o_c_025.jpg,left,outdoor,indoor,NA,NA,NA,left,897.099999999627,true,NA,NA,NA,NA,NA
guK4ipsb,NA,NA,guK4ipsb,2020-0188,2021-11-02,19:49:53,21:09:28,NA,incomplete,false,true,NA,3,15,building,i_c_002.jpg,right,skyscraper,cottage,NA,NA,NA,right,1526.80000000075,true,NA,NA,NA,NA,NA
guK4ipsb,NA,NA,guK4ipsb,2020-0188,2021-11-02,19:49:53,21:09:28,NA,incomplete,false,true,NA,3,16,building,i_c_007.jpg,right,skyscraper,cottage,NA,NA,NA,right,1098.79999999888,true,NA,NA,NA,NA,NA
guK4ipsb,NA,NA,guK4ipsb,2020-0188,2021-11-02,19:49:53,21:09:28,NA,incomplete,false,true,NA,3,17,building,o_s_020.jpg,right,cottage,skyscraper,NA,NA,NA,right,1553.30000000075,true,NA,NA,NA,NA,NA
guK4ipsb,NA,NA,guK4ipsb,2020-0188,2021-11-02,19:49:53,21:09:28,NA,incomplete,false,true,NA,3,18,building,o_s_028.jpg,right,cottage,skyscraper,NA,NA,NA,right,2165.29999999888,true,NA,NA,NA,NA,NA
guK4ipsb,NA,NA,guK4ipsb,2020-0188,2021-11-02,19:49:53,21:09:28,NA,incomplete,false,true,NA,3,19,building,o_c_008.jpg,left,cottage,skyscraper,NA,NA,NA,left,958.200000001118,true,NA,NA,NA,NA,NA
guK4ipsb,NA,NA,guK4ipsb,2020-0188,2021-11-02,19:49:53,21:09:28,NA,incomplete,false,true,NA,3,20,abstractness,c_1_025.jpg,right,abstract,concrete,NA,NA,NA,right,1684,true,NA,NA,NA,NA,NA
guK4ipsb,NA,NA,guK4ipsb,2020-0188,2021-11-02,19:49:53,21:09:28,NA,incomplete,false,true,NA,3,21,abstractness,a_1_012.jpg,right,concrete,abstract,NA,NA,NA,right,2096.70000000112,true,NA,NA,NA,NA,NA
guK4ipsb,NA,NA,guK4ipsb,2020-0188,2021-11-02,19:49:53,21:09:28,NA,incomplete,false,true,NA,3,22,abstractness,c_2_015.jpg,right,abstract,concrete,NA,NA,NA,right,1106.09999999963,true,NA,NA,NA,NA,NA
guK4ipsb,NA,NA,guK4ipsb,2020-0188,2021-11-02,19:49:53,21:09:28,NA,incomplete,false,true,NA,3,23,abstractness,c_1_010.jpg,left,concrete,abstract,NA,NA,NA,left,1506.59999999963,true,NA,NA,NA,NA,NA
guK4ipsb,NA,NA,guK4ipsb,2020-0188,2021-11-02,19:49:53,21:09:28,NA,incomplete,false,true,NA,3,24,abstractness,a_2_013.jpg,left,abstract,concrete,NA,NA,NA,left,1438.60000000149,true,NA,NA,NA,NA,NA
guK4ipsb,NA,NA,guK4ipsb,2020-0188,2021-11-02,19:49:53,21:09:28,NA,incomplete,false,true,NA,3,25,syllable,a_2_017.jpg,right,1 syllable,2 syllables,NA,NA,NA,right,2197.5,true,NA,NA,NA,NA,NA
guK4ipsb,NA,NA,guK4ipsb,2020-0188,2021-11-02,19:49:53,21:09:28,NA,incomplete,false,true,NA,3,26,syllable,a_1_017.jpg,right,2 syllables,1 syllable,NA,NA,NA,right,1129.19999999925,true,NA,NA,NA,NA,NA
guK4ipsb,NA,NA,guK4ipsb,2020-0188,2021-11-02,19:49:53,21:09:28,NA,incomplete,false,true,NA,3,27,syllable,a_2_014.jpg,right,1 syllable,2 syllables,NA,NA,NA,right,1148.09999999963,true,NA,NA,NA,NA,NA
guK4ipsb,NA,NA,guK4ipsb,2020-0188,2021-11-02,19:49:53,21:09:28,NA,incomplete,false,true,NA,3,28,syllable,a_1_014.jpg,right,1 syllable,2 syllables,NA,NA,NA,left,1097.89999999851,false,NA,NA,NA,NA,NA
guK4ipsb,NA,NA,guK4ipsb,2020-0188,2021-11-02,19:49:53,21:09:28,NA,incomplete,false,true,NA,3,29,syllable,c_2_025.jpg,right,2 syllables,1 syllable,NA,NA,NA,left,1278.10000000149,false,NA,NA,NA,NA,NA
guK4ipsb,NA,NA,guK4ipsb,2020-0188,2021-11-02,19:49:53,21:09:28,NA,incomplete,false,NA,true,3,0,NA,NA,right,NA,NA,n_l_006.jpg,m_s_008.jpg,between-small,NA,NaN,NA,left,5039.9000000003725,0,0,1093.5
guK4ipsb,NA,NA,guK4ipsb,2020-0188,2021-11-02,19:49:53,21:09:28,NA,incomplete,false,NA,true,3,1,NA,NA,left,NA,NA,o_c_008.jpg,c_2_015.jpg,between-big,NA,NaN,NA,left,4437.299999998882,1,1,2182.60000000149
guK4ipsb,NA,NA,guK4ipsb,2020-0188,2021-11-02,19:49:53,21:09:28,NA,incomplete,false,NA,true,3,2,NA,NA,right,NA,NA,i_c_002.jpg,o_c_009.jpg,between-small,NA,NaN,NA,right,2942.5999999996275,1,1,1045.800000000745
guK4ipsb,NA,NA,guK4ipsb,2020-0188,2021-11-02,19:49:53,21:09:28,NA,incomplete,false,NA,true,3,3,NA,NA,left,NA,NA,m_l_007.jpg,m_l_015.jpg,within,NA,NaN,NA,left,1889.3999999985099,1,1,1068.199999999255
guK4ipsb,NA,NA,guK4ipsb,2020-0188,2021-11-02,19:49:53,21:09:28,NA,incomplete,false,NA,true,3,4,NA,NA,right,NA,NA,o_s_027.jpg,o_s_024.jpg,within,NA,NaN,NA,left,2391.300000000745,0,1,1524.9000000003725
guK4ipsb,NA,NA,guK4ipsb,2020-0188,2021-11-02,19:49:53,21:09:28,NA,incomplete,false,NA,true,3,5,NA,NA,left,NA,NA,m_s_018.jpg,o_s_024.jpg,between-big,NA,NaN,NA,left,1587.699999999255,1,2,1653.0999999996275
guK4ipsb,NA,NA,guK4ipsb,2020-0188,2021-11-02,19:49:53,21:09:28,NA,incomplete,false,NA,true,3,6,NA,NA,left,NA,NA,i_c_002.jpg,o_s_028.jpg,within,NA,NaN,NA,left,2634.199999999255,1,0,2531.0999999996275
guK4ipsb,NA,NA,guK4ipsb,2020-0188,2021-11-02,19:49:53,21:09:28,NA,incomplete,false,NA,true,3,7,NA,NA,right,NA,NA,o_c_008.jpg,i_c_007.jpg,within,NA,NaN,NA,right,5445.4000000003725,1,1,1677.5999999996275
guK4ipsb,NA,NA,guK4ipsb,2020-0188,2021-11-02,19:49:53,21:09:28,NA,incomplete,false,NA,true,3,8,NA,NA,left,NA,NA,m_s_016.jpg,m_l_007.jpg,between-small,NA,NaN,NA,left,1459.5,1,1,1185.7999999988824
guK4ipsb,NA,NA,guK4ipsb,2020-0188,2021-11-02,19:49:53,21:09:28,NA,incomplete,false,NA,true,3,9,NA,NA,left,NA,NA,c_2_015.jpg,a_2_017.jpg,between-small,NA,NaN,NA,left,6827.700000001118,1,1,3153.89999999851
guK4ipsb,NA,NA,guK4ipsb,2020-0188,2021-11-02,19:49:53,21:09:28,NA,incomplete,false,NA,true,3,10,NA,NA,left,NA,NA,a_1_012.jpg,a_2_013.jpg,within,NA,NaN,NA,left,3348.199999999255,1,0,939.5
guK4ipsb,NA,NA,guK4ipsb,2020-0188,2021-11-02,19:49:53,21:09:28,NA,incomplete,false,NA,true,3,11,NA,NA,left,NA,NA,c_1_025.jpg,c_1_010.jpg,within,NA,NaN,NA,left,3479.0999999996275,1,0,1011.0999999996275
guK4ipsb,NA,NA,guK4ipsb,2020-0188,2021-11-02,19:49:53,21:09:28,NA,incomplete,false,NA,true,3,12,NA,NA,left,NA,NA,n_l_018.jpg,m_s_008.jpg,within,NA,NaN,NA,right,1307.4000000003725,0,0,3412.699999999255
guK4ipsb,NA,NA,guK4ipsb,2020-0188,2021-11-02,19:49:53,21:09:28,NA,incomplete,false,NA,true,3,13,NA,NA,left,NA,NA,a_1_017.jpg,c_2_025.jpg,within,NA,NaN,NA,left,2390.9000000003725,1,0,1159.4000000003725
guK4ipsb,NA,NA,guK4ipsb,2020-0188,2021-11-02,19:49:53,21:09:28,NA,incomplete,false,NA,true,3,14,NA,NA,right,NA,NA,m_s_018.jpg,m_s_011.jpg,between-small,NA,NaN,NA,left,3064.2000000011176,0,1,1143.5999999996275
guK4ipsb,NA,NA,guK4ipsb,2020-0188,2021-11-02,19:49:53,21:09:28,NA,incomplete,false,NA,true,3,15,NA,NA,left,NA,NA,i_s_001.jpg,o_c_025.jpg,within,NA,NaN,NA,left,2424.5,1,1,1013.1999999992549
guK4ipsb,NA,NA,guK4ipsb,2020-0188,2021-11-02,19:49:53,21:09:28,NA,incomplete,false,NA,true,3,16,NA,NA,left,NA,NA,m_l_027.jpg,m_s_011.jpg,within,NA,NaN,NA,left,2050.7000000011176,1,2,1158.0999999996275
guK4ipsb,NA,NA,guK4ipsb,2020-0188,2021-11-02,19:49:53,21:09:28,NA,incomplete,false,NA,true,3,17,NA,NA,right,NA,NA,a_1_012.jpg,o_s_028.jpg,between-big,NA,NaN,NA,right,1895,1,2,1742.699999999255
guK4ipsb,NA,NA,guK4ipsb,2020-0188,2021-11-02,19:49:53,21:09:28,NA,incomplete,false,NA,true,3,18,NA,NA,left,NA,NA,n_l_006.jpg,m_l_020.jpg,within,NA,NaN,NA,left,4209.299999998882,1,2,2838.699999999255
guK4ipsb,NA,NA,guK4ipsb,2020-0188,2021-11-02,19:49:53,21:09:28,NA,incomplete,false,NA,true,3,19,NA,NA,right,NA,NA,a_1_017.jpg,c_1_010.jpg,between-small,NA,NaN,NA,left,2983.7000000011176,0,2,1589.4000000003725
guK4ipsb,NA,NA,guK4ipsb,2020-0188,2021-11-02,19:49:53,21:09:28,NA,incomplete,false,NA,true,3,20,NA,NA,left,NA,NA,a_2_013.jpg,a_2_014.jpg,between-small,NA,NaN,NA,right,4395,0,2,1078.1000000014901
guK4ipsb,NA,NA,guK4ipsb,2020-0188,2021-11-02,19:49:53,21:09:28,NA,incomplete,false,NA,true,3,21,NA,NA,left,NA,NA,a_2_017.jpg,a_1_014.jpg,within,NA,NaN,NA,right,3152.60000000149,0,1,1077.800000000745
guK4ipsb,NA,NA,guK4ipsb,2020-0188,2021-11-02,19:49:53,21:09:28,NA,incomplete,false,NA,true,3,22,NA,NA,right,NA,NA,i_s_001.jpg,m_l_015.jpg,between-big,NA,NaN,NA,right,2593.800000000745,1,2,1093.300000000745
guK4ipsb,NA,NA,guK4ipsb,2020-0188,2021-11-02,19:49:53,21:09:28,NA,incomplete,false,NA,true,3,23,NA,NA,left,NA,NA,m_l_020.jpg,o_c_009.jpg,between-big,NA,NaN,NA,left,1668,1,2,922.5
guK4ipsb,NA,NA,guK4ipsb,2020-0188,2021-11-02,19:49:53,21:09:28,NA,incomplete,false,NA,true,3,24,NA,NA,left,NA,NA,o_s_027.jpg,i_c_007.jpg,between-small,NA,NaN,NA,left,2740.10000000149,1,1,1346.7999999988824
guK4ipsb,NA,NA,guK4ipsb,2020-0188,2021-11-02,19:49:53,21:09:28,NA,incomplete,false,NA,true,3,25,NA,NA,right,NA,NA,c_1_025.jpg,o_s_020.jpg,between-big,NA,NaN,NA,right,2532.10000000149,1,3,924.7999999988824
guK4ipsb,NA,NA,guK4ipsb,2020-0188,2021-11-02,19:49:53,21:09:28,NA,incomplete,false,NA,true,3,26,NA,NA,right,NA,NA,o_s_020.jpg,o_c_025.jpg,between-small,NA,NaN,NA,left,2141.300000000745,0,1,1029
guK4ipsb,NA,NA,guK4ipsb,2020-0188,2021-11-02,19:49:53,21:09:28,NA,incomplete,false,true,NA,4,0,size,n_s_018.jpg,left,small,large,NA,NA,NA,left,1472.69999999925,true,NA,NA,NA,NA,NA
guK4ipsb,NA,NA,guK4ipsb,2020-0188,2021-11-02,19:49:53,21:09:28,NA,incomplete,false,true,NA,4,1,size,n_s_014.jpg,right,large,small,NA,NA,NA,right,1271.30000000075,true,NA,NA,NA,NA,NA
guK4ipsb,NA,NA,guK4ipsb,2020-0188,2021-11-02,19:49:53,21:09:28,NA,incomplete,false,true,NA,4,2,size,m_s_027.jpg,left,small,large,NA,NA,NA,left,1057,true,NA,NA,NA,NA,NA
guK4ipsb,NA,NA,guK4ipsb,2020-0188,2021-11-02,19:49:53,21:09:28,NA,incomplete,false,true,NA,4,3,size,n_s_003.jpg,left,small,large,NA,NA,NA,left,1064.09999999963,true,NA,NA,NA,NA,NA
guK4ipsb,NA,NA,guK4ipsb,2020-0188,2021-11-02,19:49:53,21:09:28,NA,incomplete,false,true,NA,4,4,size,n_s_004.jpg,right,large,small,NA,NA,NA,right,1036.39999999851,true,NA,NA,NA,NA,NA
guK4ipsb,NA,NA,guK4ipsb,2020-0188,2021-11-02,19:49:53,21:09:28,NA,incomplete,false,true,NA,4,5,origin,m_l_013.jpg,left,manmade,natural,NA,NA,NA,left,1359.89999999851,true,NA,NA,NA,NA,NA
guK4ipsb,NA,NA,guK4ipsb,2020-0188,2021-11-02,19:49:53,21:09:28,NA,incomplete,false,true,NA,4,6,origin,m_s_010.jpg,right,natural,manmade,NA,NA,NA,right,1583,true,NA,NA,NA,NA,NA
guK4ipsb,NA,NA,guK4ipsb,2020-0188,2021-11-02,19:49:53,21:09:28,NA,incomplete,false,true,NA,4,7,origin,m_s_024.jpg,left,manmade,natural,NA,NA,NA,left,1327.90000000037,true,NA,NA,NA,NA,NA
guK4ipsb,NA,NA,guK4ipsb,2020-0188,2021-11-02,19:49:53,21:09:28,NA,incomplete,false,true,NA,4,8,origin,m_l_001.jpg,left,manmade,natural,NA,NA,NA,left,1730.19999999925,true,NA,NA,NA,NA,NA
guK4ipsb,NA,NA,guK4ipsb,2020-0188,2021-11-02,19:49:53,21:09:28,NA,incomplete,false,true,NA,4,9,origin,m_s_001.jpg,right,natural,manmade,NA,NA,NA,right,1399.90000000037,true,NA,NA,NA,NA,NA
guK4ipsb,NA,NA,guK4ipsb,2020-0188,2021-11-02,19:49:53,21:09:28,NA,incomplete,false,true,NA,4,10,abstractness,a_2_011.jpg,right,concrete,abstract,NA,NA,NA,right,1875.30000000075,true,NA,NA,NA,NA,NA
guK4ipsb,NA,NA,guK4ipsb,2020-0188,2021-11-02,19:49:53,21:09:28,NA,incomplete,false,true,NA,4,11,abstractness,c_1_009.jpg,right,abstract,concrete,NA,NA,NA,right,1104.80000000075,true,NA,NA,NA,NA,NA
guK4ipsb,NA,NA,guK4ipsb,2020-0188,2021-11-02,19:49:53,21:09:28,NA,incomplete,false,true,NA,4,12,abstractness,c_1_023.jpg,left,concrete,abstract,NA,NA,NA,left,1716.70000000112,true,NA,NA,NA,NA,NA
guK4ipsb,NA,NA,guK4ipsb,2020-0188,2021-11-02,19:49:53,21:09:28,NA,incomplete,false,true,NA,4,13,abstractness,a_1_023.jpg,left,abstract,concrete,NA,NA,NA,left,1989.40000000037,true,NA,NA,NA,NA,NA
guK4ipsb,NA,NA,guK4ipsb,2020-0188,2021-11-02,19:49:53,21:09:28,NA,incomplete,false,true,NA,4,14,abstractness,a_2_006.jpg,right,concrete,abstract,NA,NA,NA,right,1363.80000000075,true,NA,NA,NA,NA,NA
guK4ipsb,NA,NA,guK4ipsb,2020-0188,2021-11-02,19:49:53,21:09:28,NA,incomplete,false,true,NA,4,15,syllable,a_1_028.jpg,right,1 syllable,2 syllables,NA,NA,NA,left,1324.5,false,NA,NA,NA,NA,NA
guK4ipsb,NA,NA,guK4ipsb,2020-0188,2021-11-02,19:49:53,21:09:28,NA,incomplete,false,true,NA,4,16,syllable,a_1_025.jpg,right,2 syllables,1 syllable,NA,NA,NA,right,1357.30000000075,true,NA,NA,NA,NA,NA
guK4ipsb,NA,NA,guK4ipsb,2020-0188,2021-11-02,19:49:53,21:09:28,NA,incomplete,false,true,NA,4,17,syllable,a_1_016.jpg,right,2 syllables,1 syllable,NA,NA,NA,right,1086.29999999888,true,NA,NA,NA,NA,NA
guK4ipsb,NA,NA,guK4ipsb,2020-0188,2021-11-02,19:49:53,21:09:28,NA,incomplete,false,true,NA,4,18,syllable,a_2_010.jpg,right,2 syllables,1 syllable,NA,NA,NA,left,1333.90000000037,false,NA,NA,NA,NA,NA
guK4ipsb,NA,NA,guK4ipsb,2020-0188,2021-11-02,19:49:53,21:09:28,NA,incomplete,false,true,NA,4,19,syllable,c_2_026.jpg,right,2 syllables,1 syllable,NA,NA,NA,left,1254.5,false,NA,NA,NA,NA,NA
guK4ipsb,NA,NA,guK4ipsb,2020-0188,2021-11-02,19:49:53,21:09:28,NA,incomplete,false,true,NA,4,20,building,i_s_016.jpg,right,cottage,skyscraper,NA,NA,NA,right,1263,true,NA,NA,NA,NA,NA
guK4ipsb,NA,NA,guK4ipsb,2020-0188,2021-11-02,19:49:53,21:09:28,NA,incomplete,false,true,NA,4,21,building,i_c_014.jpg,left,cottage,skyscraper,NA,NA,NA,left,1447,true,NA,NA,NA,NA,NA
guK4ipsb,NA,NA,guK4ipsb,2020-0188,2021-11-02,19:49:53,21:09:28,NA,incomplete,false,true,NA,4,22,building,i_c_027.jpg,right,skyscraper,cottage,NA,NA,NA,right,1533.39999999851,true,NA,NA,NA,NA,NA
guK4ipsb,NA,NA,guK4ipsb,2020-0188,2021-11-02,19:49:53,21:09:28,NA,incomplete,false,true,NA,4,23,building,o_s_010.jpg,left,skyscraper,cottage,NA,NA,NA,left,1111.19999999925,true,NA,NA,NA,NA,NA
guK4ipsb,NA,NA,guK4ipsb,2020-0188,2021-11-02,19:49:53,21:09:28,NA,incomplete,false,true,NA,4,24,building,i_s_026.jpg,right,cottage,skyscraper,NA,NA,NA,right,1310.59999999963,true,NA,NA,NA,NA,NA
guK4ipsb,NA,NA,guK4ipsb,2020-0188,2021-11-02,19:49:53,21:09:28,NA,incomplete,false,true,NA,4,25,location,i_c_006.jpg,right,outdoor,indoor,NA,NA,NA,right,1547.09999999963,true,NA,NA,NA,NA,NA
guK4ipsb,NA,NA,guK4ipsb,2020-0188,2021-11-02,19:49:53,21:09:28,NA,incomplete,false,true,NA,4,26,location,o_s_026.jpg,left,outdoor,indoor,NA,NA,NA,left,1649,true,NA,NA,NA,NA,NA
guK4ipsb,NA,NA,guK4ipsb,2020-0188,2021-11-02,19:49:53,21:09:28,NA,incomplete,false,true,NA,4,27,location,o_c_015.jpg,right,indoor,outdoor,NA,NA,NA,right,1501.89999999851,true,NA,NA,NA,NA,NA
guK4ipsb,NA,NA,guK4ipsb,2020-0188,2021-11-02,19:49:53,21:09:28,NA,incomplete,false,true,NA,4,28,location,o_c_022.jpg,right,indoor,outdoor,NA,NA,NA,right,1387,true,NA,NA,NA,NA,NA
guK4ipsb,NA,NA,guK4ipsb,2020-0188,2021-11-02,19:49:53,21:09:28,NA,incomplete,false,true,NA,4,29,location,i_c_021.jpg,right,outdoor,indoor,NA,NA,NA,right,2143.5,true,NA,NA,NA,NA,NA
guK4ipsb,NA,NA,guK4ipsb,2020-0188,2021-11-02,19:49:53,21:09:28,NA,incomplete,false,NA,true,4,0,NA,NA,left,NA,NA,n_s_003.jpg,m_s_010.jpg,between-small,NA,NaN,NA,left,2246,1,1,1264.4000000003725
guK4ipsb,NA,NA,guK4ipsb,2020-0188,2021-11-02,19:49:53,21:09:28,NA,incomplete,false,NA,true,4,1,NA,NA,right,NA,NA,i_s_016.jpg,a_1_016.jpg,between-big,NA,NaN,NA,right,8331.900000000373,1,2,883
guK4ipsb,NA,NA,guK4ipsb,2020-0188,2021-11-02,19:49:53,21:09:28,NA,incomplete,false,NA,true,4,2,NA,NA,right,NA,NA,m_s_024.jpg,n_s_004.jpg,between-small,NA,NaN,NA,right,2440.9000000003725,1,0,1166.199999999255
guK4ipsb,NA,NA,guK4ipsb,2020-0188,2021-11-02,19:49:53,21:09:28,NA,incomplete,false,NA,true,4,3,NA,NA,left,NA,NA,m_s_010.jpg,m_s_001.jpg,within,NA,NaN,NA,left,3522.5,1,0,1029.5
guK4ipsb,NA,NA,guK4ipsb,2020-0188,2021-11-02,19:49:53,21:09:28,NA,incomplete,false,NA,true,4,4,NA,NA,left,NA,NA,a_2_010.jpg,i_c_014.jpg,between-big,NA,NaN,NA,left,3260.5999999996275,1,1,1676.2999999988824
guK4ipsb,NA,NA,guK4ipsb,2020-0188,2021-11-02,19:49:53,21:09:28,NA,incomplete,false,NA,true,4,5,NA,NA,left,NA,NA,n_s_018.jpg,n_s_003.jpg,within,NA,NaN,NA,left,2820.2000000011176,1,0,1004.8000000007451
guK4ipsb,NA,NA,guK4ipsb,2020-0188,2021-11-02,19:49:53,21:09:28,NA,incomplete,false,NA,true,4,6,NA,NA,right,NA,NA,i_c_027.jpg,c_2_026.jpg,between-big,NA,NaN,NA,right,1969.4000000003725,1,2,889.7999999988824
guK4ipsb,NA,NA,guK4ipsb,2020-0188,2021-11-02,19:49:53,21:09:28,NA,incomplete,false,NA,true,4,7,NA,NA,left,NA,NA,m_s_027.jpg,m_l_013.jpg,between-small,NA,NaN,NA,right,3575.199999999255,0,1,1532.8999999985099
guK4ipsb,NA,NA,guK4ipsb,2020-0188,2021-11-02,19:49:53,21:09:28,NA,incomplete,false,NA,true,4,8,NA,NA,left,NA,NA,n_s_014.jpg,n_s_004.jpg,within,NA,NaN,NA,left,9654.5,1,1,1736.199999999255
guK4ipsb,NA,NA,guK4ipsb,2020-0188,2021-11-02,19:49:53,21:09:28,NA,incomplete,false,NA,true,4,9,NA,NA,left,NA,NA,i_c_027.jpg,i_c_006.jpg,between-small,NA,NaN,NA,left,2390.7999999988824,1,0,2099.89999999851
guK4ipsb,NA,NA,guK4ipsb,2020-0188,2021-11-02,19:49:53,21:09:28,NA,incomplete,false,NA,true,4,10,NA,NA,left,NA,NA,a_1_028.jpg,a_2_010.jpg,within,NA,NaN,NA,right,14036.900000000373,0,1,1798.0999999996275
guK4ipsb,NA,NA,guK4ipsb,2020-0188,2021-11-02,19:49:53,21:09:28,NA,incomplete,false,NA,true,4,11,NA,NA,right,NA,NA,c_2_026.jpg,a_1_025.jpg,within,NA,NaN,NA,left,4093.2000000011176,0,0,1126.4000000003725
guK4ipsb,NA,NA,guK4ipsb,2020-0188,2021-11-02,19:49:53,21:09:28,NA,incomplete,false,NA,true,4,12,NA,NA,right,NA,NA,o_s_010.jpg,i_s_016.jpg,within,NA,NaN,NA,left,1979.5,0,1,1474.699999999255
guK4ipsb,NA,NA,guK4ipsb,2020-0188,2021-11-02,19:49:53,21:09:28,NA,incomplete,false,NA,true,4,13,NA,NA,left,NA,NA,a_1_023.jpg,a_1_025.jpg,between-small,NA,NaN,NA,left,2416.9000000003725,1,0,1735
guK4ipsb,NA,NA,guK4ipsb,2020-0188,2021-11-02,19:49:53,21:09:28,NA,incomplete,false,NA,true,4,14,NA,NA,left,NA,NA,m_l_013.jpg,m_l_001.jpg,within,NA,NaN,NA,right,3085.9000000003725,0,0,1905.699999999255
guK4ipsb,NA,NA,guK4ipsb,2020-0188,2021-11-02,19:49:53,21:09:28,NA,incomplete,false,NA,true,4,15,NA,NA,left,NA,NA,c_1_023.jpg,a_1_028.jpg,between-small,NA,NaN,NA,left,2012.300000000745,1,1,2546.5999999996275
guK4ipsb,NA,NA,guK4ipsb,2020-0188,2021-11-02,19:49:53,21:09:28,NA,incomplete,false,NA,true,4,16,NA,NA,right,NA,NA,o_c_022.jpg,i_c_006.jpg,within,NA,NaN,NA,left,7624.4000000003725,0,0,1192.5999999996275
guK4ipsb,NA,NA,guK4ipsb,2020-0188,2021-11-02,19:49:53,21:09:28,NA,incomplete,false,NA,true,4,17,NA,NA,right,NA,NA,c_1_009.jpg,m_l_001.jpg,between-big,NA,NaN,NA,right,1842.4000000003725,1,2,1742.7000000011176
guK4ipsb,NA,NA,guK4ipsb,2020-0188,2021-11-02,19:49:53,21:09:28,NA,incomplete,false,NA,true,4,18,NA,NA,right,NA,NA,o_c_015.jpg,i_s_026.jpg,between-small,NA,NaN,NA,left,4063.0999999996275,0,1,1483.2999999988824
guK4ipsb,NA,NA,guK4ipsb,2020-0188,2021-11-02,19:49:53,21:09:28,NA,incomplete,false,NA,true,4,19,NA,NA,right,NA,NA,i_c_021.jpg,o_s_026.jpg,within,NA,NaN,NA,left,3123.300000000745,0,0,1411.300000000745
guK4ipsb,NA,NA,guK4ipsb,2020-0188,2021-11-02,19:49:53,21:09:28,NA,incomplete,false,NA,true,4,20,NA,NA,right,NA,NA,c_1_023.jpg,m_s_001.jpg,between-big,NA,NaN,NA,right,1370.199999999255,1,1,2870.9000000003725
guK4ipsb,NA,NA,guK4ipsb,2020-0188,2021-11-02,19:49:53,21:09:28,NA,incomplete,false,NA,true,4,21,NA,NA,right,NA,NA,a_1_023.jpg,a_2_011.jpg,within,NA,NaN,NA,left,1717.800000000745,0,1,1312.0999999996275
guK4ipsb,NA,NA,guK4ipsb,2020-0188,2021-11-02,19:49:53,21:09:28,NA,incomplete,false,NA,true,4,22,NA,NA,right,NA,NA,o_s_026.jpg,o_s_010.jpg,between-small,NA,NaN,NA,right,2290.800000000745,1,1,1154.9000000003725
guK4ipsb,NA,NA,guK4ipsb,2020-0188,2021-11-02,19:49:53,21:09:28,NA,incomplete,false,NA,true,4,23,NA,NA,left,NA,NA,c_1_009.jpg,a_2_006.jpg,within,NA,NaN,NA,right,1482.4000000003725,0,1,1004.5999999996275
guK4ipsb,NA,NA,guK4ipsb,2020-0188,2021-11-02,19:49:53,21:09:28,NA,incomplete,false,NA,true,4,24,NA,NA,left,NA,NA,i_c_014.jpg,i_s_026.jpg,within,NA,NaN,NA,left,3040.699999999255,1,1,1029
guK4ipsb,NA,NA,guK4ipsb,2020-0188,2021-11-02,19:49:53,21:09:28,NA,incomplete,false,NA,true,4,25,NA,NA,left,NA,NA,a_2_006.jpg,a_1_016.jpg,between-small,NA,NaN,NA,right,3194.0999999996275,0,1,921.7000000011176
guK4ipsb,NA,NA,guK4ipsb,2020-0188,2021-11-02,19:49:53,21:09:28,NA,incomplete,false,NA,true,4,26,NA,NA,left,NA,NA,m_s_024.jpg,a_2_011.jpg,between-big,NA,NaN,NA,left,1703.800000000745,1,2,1314
guK4ipsb,NA,NA,guK4ipsb,2020-0188,2021-11-02,19:49:53,21:09:28,NA,incomplete,false,true,NA,5,0,origin,n_l_027.jpg,left,natural,manmade,NA,NA,NA,left,1612.30000000075,true,NA,NA,NA,NA,NA
guK4ipsb,NA,NA,guK4ipsb,2020-0188,2021-11-02,19:49:53,21:09:28,NA,incomplete,false,true,NA,5,1,origin,m_l_006.jpg,right,natural,manmade,NA,NA,NA,right,1195.5,true,NA,NA,NA,NA,NA
guK4ipsb,NA,NA,guK4ipsb,2020-0188,2021-11-02,19:49:53,21:09:28,NA,incomplete,false,true,NA,5,2,origin,n_l_008.jpg,right,manmade,natural,NA,NA,NA,right,1283.70000000112,true,NA,NA,NA,NA,NA
guK4ipsb,NA,NA,guK4ipsb,2020-0188,2021-11-02,19:49:53,21:09:28,NA,incomplete,false,true,NA,5,3,origin,n_l_022.jpg,left,natural,manmade,NA,NA,NA,left,1500.80000000075,true,NA,NA,NA,NA,NA
guK4ipsb,NA,NA,guK4ipsb,2020-0188,2021-11-02,19:49:53,21:09:28,NA,incomplete,false,true,NA,5,4,origin,m_s_025.jpg,left,manmade,natural,NA,NA,NA,left,1480.60000000149,true,NA,NA,NA,NA,NA
guK4ipsb,NA,NA,guK4ipsb,2020-0188,2021-11-02,19:49:53,21:09:28,NA,incomplete,false,true,NA,5,5,size,n_s_027.jpg,right,large,small,NA,NA,NA,right,1434.59999999963,true,NA,NA,NA,NA,NA
guK4ipsb,NA,NA,guK4ipsb,2020-0188,2021-11-02,19:49:53,21:09:28,NA,incomplete,false,true,NA,5,6,size,m_l_003.jpg,left,large,small,NA,NA,NA,left,1584.29999999888,true,NA,NA,NA,NA,NA
guK4ipsb,NA,NA,guK4ipsb,2020-0188,2021-11-02,19:49:53,21:09:28,NA,incomplete,false,true,NA,5,7,size,m_s_019.jpg,right,large,small,NA,NA,NA,right,1490.59999999963,true,NA,NA,NA,NA,NA
guK4ipsb,NA,NA,guK4ipsb,2020-0188,2021-11-02,19:49:53,21:09:28,NA,incomplete,false,true,NA,5,8,size,m_l_009.jpg,left,large,small,NA,NA,NA,left,1502.69999999925,true,NA,NA,NA,NA,NA
guK4ipsb,NA,NA,guK4ipsb,2020-0188,2021-11-02,19:49:53,21:09:28,NA,incomplete,false,true,NA,5,9,size,n_s_005.jpg,left,small,large,NA,NA,NA,left,2025.19999999925,true,NA,NA,NA,NA,NA
guK4ipsb,NA,NA,guK4ipsb,2020-0188,2021-11-02,19:49:53,21:09:28,NA,incomplete,false,true,NA,5,10,syllable,c_2_027.jpg,right,1 syllable,2 syllables,NA,NA,NA,right,1477.20000000112,true,NA,NA,NA,NA,NA
guK4ipsb,NA,NA,guK4ipsb,2020-0188,2021-11-02,19:49:53,21:09:28,NA,incomplete,false,true,NA,5,11,syllable,a_2_002.jpg,right,1 syllable,2 syllables,NA,NA,NA,right,1313.09999999963,true,NA,NA,NA,NA,NA
guK4ipsb,NA,NA,guK4ipsb,2020-0188,2021-11-02,19:49:53,21:09:28,NA,incomplete,false,true,NA,5,12,syllable,c_1_016.jpg,right,2 syllables,1 syllable,NA,NA,NA,right,1926.69999999925,true,NA,NA,NA,NA,NA
guK4ipsb,NA,NA,guK4ipsb,2020-0188,2021-11-02,19:49:53,21:09:28,NA,incomplete,false,true,NA,5,13,syllable,c_1_007.jpg,right,1 syllable,2 syllables,NA,NA,NA,left,3324.90000000037,false,NA,NA,NA,NA,NA
guK4ipsb,NA,NA,guK4ipsb,2020-0188,2021-11-02,19:49:53,21:09:28,NA,incomplete,false,true,NA,5,14,syllable,c_1_001.jpg,right,2 syllables,1 syllable,NA,NA,NA,right,1516.20000000112,true,NA,NA,NA,NA,NA
guK4ipsb,NA,NA,guK4ipsb,2020-0188,2021-11-02,19:49:53,21:09:28,NA,incomplete,false,true,NA,5,15,abstractness,c_1_022.jpg,left,concrete,abstract,NA,NA,NA,left,2107.30000000075,true,NA,NA,NA,NA,NA
guK4ipsb,NA,NA,guK4ipsb,2020-0188,2021-11-02,19:49:53,21:09:28,NA,incomplete,false,true,NA,5,16,abstractness,c_1_020.jpg,right,abstract,concrete,NA,NA,NA,right,2232.80000000075,true,NA,NA,NA,NA,NA
guK4ipsb,NA,NA,guK4ipsb,2020-0188,2021-11-02,19:49:53,21:09:28,NA,incomplete,false,true,NA,5,17,abstractness,c_2_016.jpg,left,concrete,abstract,NA,NA,NA,left,2089.80000000075,true,NA,NA,NA,NA,NA
guK4ipsb,NA,NA,guK4ipsb,2020-0188,2021-11-02,19:49:53,21:09:28,NA,incomplete,false,true,NA,5,18,abstractness,a_1_003.jpg,right,concrete,abstract,NA,NA,NA,right,2262.5,true,NA,NA,NA,NA,NA
guK4ipsb,NA,NA,guK4ipsb,2020-0188,2021-11-02,19:49:53,21:09:28,NA,incomplete,false,true,NA,5,19,abstractness,c_2_009.jpg,left,concrete,abstract,NA,NA,NA,none,0,false,NA,NA,NA,NA,NA
guK4ipsb,NA,NA,guK4ipsb,2020-0188,2021-11-02,19:49:53,21:09:28,NA,incomplete,false,true,NA,5,20,building,o_s_002.jpg,right,cottage,skyscraper,NA,NA,NA,right,1789.20000000112,true,NA,NA,NA,NA,NA
guK4ipsb,NA,NA,guK4ipsb,2020-0188,2021-11-02,19:49:53,21:09:28,NA,incomplete,false,true,NA,5,21,building,i_s_018.jpg,left,skyscraper,cottage,NA,NA,NA,left,2150,true,NA,NA,NA,NA,NA
guK4ipsb,NA,NA,guK4ipsb,2020-0188,2021-11-02,19:49:53,21:09:28,NA,incomplete,false,true,NA,5,22,building,o_c_021.jpg,right,skyscraper,cottage,NA,NA,NA,right,1703.69999999925,true,NA,NA,NA,NA,NA
guK4ipsb,NA,NA,guK4ipsb,2020-0188,2021-11-02,19:49:53,21:09:28,NA,incomplete,false,true,NA,5,23,building,o_s_025.jpg,left,skyscraper,cottage,NA,NA,NA,left,1074.79999999888,true,NA,NA,NA,NA,NA
guK4ipsb,NA,NA,guK4ipsb,2020-0188,2021-11-02,19:49:53,21:09:28,NA,incomplete,false,true,NA,5,24,building,o_s_004.jpg,right,cottage,skyscraper,NA,NA,NA,right,1165.69999999925,true,NA,NA,NA,NA,NA
guK4ipsb,NA,NA,guK4ipsb,2020-0188,2021-11-02,19:49:53,21:09:28,NA,incomplete,false,true,NA,5,25,location,o_c_006.jpg,left,outdoor,indoor,NA,NA,NA,left,1497.59999999963,true,NA,NA,NA,NA,NA
guK4ipsb,NA,NA,guK4ipsb,2020-0188,2021-11-02,19:49:53,21:09:28,NA,incomplete,false,true,NA,5,26,location,i_s_021.jpg,left,indoor,outdoor,NA,NA,NA,left,1280.90000000037,true,NA,NA,NA,NA,NA
guK4ipsb,NA,NA,guK4ipsb,2020-0188,2021-11-02,19:49:53,21:09:28,NA,incomplete,false,true,NA,5,27,location,i_s_028.jpg,right,outdoor,indoor,NA,NA,NA,right,1373.89999999851,true,NA,NA,NA,NA,NA
guK4ipsb,NA,NA,guK4ipsb,2020-0188,2021-11-02,19:49:53,21:09:28,NA,incomplete,false,true,NA,5,28,location,o_s_022.jpg,left,outdoor,indoor,NA,NA,NA,left,1360.59999999963,true,NA,NA,NA,NA,NA
guK4ipsb,NA,NA,guK4ipsb,2020-0188,2021-11-02,19:49:53,21:09:28,NA,incomplete,false,true,NA,5,29,location,i_s_025.jpg,right,outdoor,indoor,NA,NA,NA,right,1393,true,NA,NA,NA,NA,NA
guK4ipsb,NA,NA,guK4ipsb,2020-0188,2021-11-02,19:49:53,21:09:28,NA,incomplete,false,NA,true,5,0,NA,NA,left,NA,NA,o_s_004.jpg,i_s_028.jpg,between-small,NA,NaN,NA,left,4596.0999999996275,1,0,1150.9000000003725
guK4ipsb,NA,NA,guK4ipsb,2020-0188,2021-11-02,19:49:53,21:09:28,NA,incomplete,false,NA,true,5,1,NA,NA,right,NA,NA,o_s_025.jpg,o_s_002.jpg,within,NA,NaN,NA,right,3839.699999999255,1,0,1101.7999999988824
guK4ipsb,NA,NA,guK4ipsb,2020-0188,2021-11-02,19:49:53,21:09:28,NA,incomplete,false,NA,true,5,2,NA,NA,left,NA,NA,m_s_019.jpg,c_2_027.jpg,between-big,NA,NaN,NA,left,1678.2000000011176,1,2,1670.300000000745
guK4ipsb,NA,NA,guK4ipsb,2020-0188,2021-11-02,19:49:53,21:09:28,NA,incomplete,false,NA,true,5,3,NA,NA,left,NA,NA,c_2_009.jpg,o_c_021.jpg,between-big,NA,NaN,NA,left,4073.800000000745,1,2,2155.5999999996275
guK4ipsb,NA,NA,guK4ipsb,2020-0188,2021-11-02,19:49:53,21:09:28,NA,incomplete,false,NA,true,5,4,NA,NA,right,NA,NA,o_s_004.jpg,i_s_018.jpg,within,NA,NaN,NA,right,3779.7999999988824,1,0,1030.300000000745
guK4ipsb,NA,NA,guK4ipsb,2020-0188,2021-11-02,19:49:53,21:09:28,NA,incomplete,false,NA,true,5,5,NA,NA,right,NA,NA,c_1_007.jpg,c_2_027.jpg,within,NA,NaN,NA,left,2281.300000000745,0,1,874.2000000011176
guK4ipsb,NA,NA,guK4ipsb,2020-0188,2021-11-02,19:49:53,21:09:28,NA,incomplete,false,NA,true,5,6,NA,NA,right,NA,NA,i_s_025.jpg,i_s_021.jpg,within,NA,NaN,NA,right,3268.5,1,1,1271.5
guK4ipsb,NA,NA,guK4ipsb,2020-0188,2021-11-02,19:49:53,21:09:28,NA,incomplete,false,NA,true,5,7,NA,NA,left,NA,NA,c_1_020.jpg,c_2_009.jpg,within,NA,NaN,NA,left,2645.0999999996275,1,2,4405.5999999996275
guK4ipsb,NA,NA,guK4ipsb,2020-0188,2021-11-02,19:49:53,21:09:28,NA,incomplete,false,NA,true,5,8,NA,NA,left,NA,NA,m_s_025.jpg,m_s_019.jpg,between-small,NA,NaN,NA,left,3114.0999999996275,1,1,1418.5999999996275
guK4ipsb,NA,NA,guK4ipsb,2020-0188,2021-11-02,19:49:53,21:09:28,NA,incomplete,false,NA,true,5,9,NA,NA,left,NA,NA,n_s_005.jpg,c_1_016.jpg,between-big,NA,NaN,NA,left,2586.300000000745,1,2,1126
guK4ipsb,NA,NA,guK4ipsb,2020-0188,2021-11-02,19:49:53,21:09:28,NA,incomplete,false,NA,true,5,10,NA,NA,right,NA,NA,o_s_002.jpg,c_2_016.jpg,between-big,NA,NaN,NA,left,2148.89999999851,0,1,2131.5999999996275
guK4ipsb,NA,NA,guK4ipsb,2020-0188,2021-11-02,19:49:53,21:09:28,NA,incomplete,false,NA,true,5,11,NA,NA,left,NA,NA,o_s_025.jpg,i_s_021.jpg,between-small,NA,NaN,NA,left,5481,1,1,1028.199999999255
guK4ipsb,NA,NA,guK4ipsb,2020-0188,2021-11-02,19:49:53,21:09:28,NA,incomplete,false,NA,true,5,12,NA,NA,right,NA,NA,o_s_022.jpg,o_c_006.jpg,within,NA,NaN,NA,left,6425.4000000003725,0,1,1085.2000000011176
guK4ipsb,NA,NA,guK4ipsb,2020-0188,2021-11-02,19:49:53,21:09:28,NA,incomplete,false,NA,true,5,13,NA,NA,left,NA,NA,a_1_003.jpg,i_s_018.jpg,between-big,NA,NaN,NA,left,2351.5,1,2,1369.300000000745
guK4ipsb,NA,NA,guK4ipsb,2020-0188,2021-11-02,19:49:53,21:09:28,NA,incomplete,false,NA,true,5,14,NA,NA,right,NA,NA,m_s_025.jpg,m_l_006.jpg,within,NA,NaN,NA,right,2441.800000000745,1,0,2294.2999999988824
guK4ipsb,NA,NA,guK4ipsb,2020-0188,2021-11-02,19:49:53,21:09:28,NA,incomplete,false,NA,true,5,15,NA,NA,left,NA,NA,c_1_022.jpg,a_1_003.jpg,within,NA,NaN,NA,right,1628.4000000003725,0,0,1313.5
guK4ipsb,NA,NA,guK4ipsb,2020-0188,2021-11-02,19:49:53,21:09:28,NA,incomplete,false,NA,true,5,16,NA,NA,right,NA,NA,c_1_022.jpg,c_1_016.jpg,between-small,NA,NaN,NA,right,1767.5,1,0,1377.9000000003725
guK4ipsb,NA,NA,guK4ipsb,2020-0188,2021-11-02,19:49:53,21:09:28,NA,incomplete,false,NA,true,5,17,NA,NA,left,NA,NA,c_1_007.jpg,c_1_020.jpg,between-small,NA,NaN,NA,right,3374.199999999255,0,0,849.9000000003725
guK4ipsb,NA,NA,guK4ipsb,2020-0188,2021-11-02,19:49:53,21:09:28,NA,incomplete,false,NA,true,5,18,NA,NA,left,NA,NA,m_l_009.jpg,a_2_002.jpg,between-big,NA,NaN,NA,left,2462.60000000149,1,2,1159.7000000011176
guK4ipsb,NA,NA,guK4ipsb,2020-0188,2021-11-02,19:49:53,21:09:28,NA,incomplete,false,NA,true,5,19,NA,NA,left,NA,NA,c_1_001.jpg,c_2_016.jpg,between-small,NA,NaN,NA,left,2856.300000000745,1,1,1150
guK4ipsb,NA,NA,guK4ipsb,2020-0188,2021-11-02,19:49:53,21:09:28,NA,incomplete,false,NA,true,5,20,NA,NA,right,NA,NA,n_l_022.jpg,n_l_027.jpg,within,NA,NaN,NA,right,1540.1000000014901,1,0,2538.7999999988824
guK4ipsb,NA,NA,guK4ipsb,2020-0188,2021-11-02,19:49:53,21:09:28,NA,incomplete,false,NA,true,5,21,NA,NA,right,NA,NA,m_l_003.jpg,n_l_022.jpg,between-small,NA,NaN,NA,right,3016.7000000011176,1,1,1280.5999999996275
guK4ipsb,NA,NA,guK4ipsb,2020-0188,2021-11-02,19:49:53,21:09:28,NA,incomplete,false,NA,true,5,22,NA,NA,right,NA,NA,n_s_027.jpg,n_l_008.jpg,between-small,NA,NaN,NA,right,4469.5999999996275,1,0,1092.7999999988824
guK4ipsb,NA,NA,guK4ipsb,2020-0188,2021-11-02,19:49:53,21:09:28,NA,incomplete,false,NA,true,5,23,NA,NA,left,NA,NA,n_s_027.jpg,m_l_009.jpg,within,NA,NaN,NA,left,2174.4000000003725,1,0,2571
guK4ipsb,NA,NA,guK4ipsb,2020-0188,2021-11-02,19:49:53,21:09:28,NA,incomplete,false,NA,true,5,24,NA,NA,left,NA,NA,a_2_002.jpg,c_1_001.jpg,within,NA,NaN,NA,left,3487.4000000003725,1,1,1735.199999999255
guK4ipsb,NA,NA,guK4ipsb,2020-0188,2021-11-02,19:49:53,21:09:28,NA,incomplete,false,NA,true,5,25,NA,NA,left,NA,NA,m_l_003.jpg,n_s_005.jpg,within,NA,NaN,NA,right,1556.5,0,1,940.3000000007451
guK4ipsb,NA,NA,guK4ipsb,2020-0188,2021-11-02,19:49:53,21:09:28,NA,incomplete,false,NA,true,5,26,NA,NA,right,NA,NA,o_c_006.jpg,o_c_021.jpg,between-small,NA,NaN,NA,left,2975.9000000003725,0,1,972.5999999996275
guK4ipsb,NA,NA,guK4ipsb,2020-0188,2021-11-02,19:49:53,21:09:28,NA,incomplete,false,true,NA,6,0,building,o_c_013.jpg,left,cottage,skyscraper,NA,NA,NA,left,1252.69999999925,true,NA,NA,NA,NA,NA
guK4ipsb,NA,NA,guK4ipsb,2020-0188,2021-11-02,19:49:53,21:09:28,NA,incomplete,false,true,NA,6,1,building,i_c_012.jpg,right,skyscraper,cottage,NA,NA,NA,right,1072.90000000037,true,NA,NA,NA,NA,NA
guK4ipsb,NA,NA,guK4ipsb,2020-0188,2021-11-02,19:49:53,21:09:28,NA,incomplete,false,true,NA,6,2,building,i_s_007.jpg,right,cottage,skyscraper,NA,NA,NA,right,1150.90000000037,true,NA,NA,NA,NA,NA
guK4ipsb,NA,NA,guK4ipsb,2020-0188,2021-11-02,19:49:53,21:09:28,NA,incomplete,false,true,NA,6,3,building,i_c_026.jpg,left,cottage,skyscraper,NA,NA,NA,left,997.700000001118,true,NA,NA,NA,NA,NA
guK4ipsb,NA,NA,guK4ipsb,2020-0188,2021-11-02,19:49:53,21:09:28,NA,incomplete,false,true,NA,6,4,building,o_s_019.jpg,right,cottage,skyscraper,NA,NA,NA,right,915.099999999627,true,NA,NA,NA,NA,NA
guK4ipsb,NA,NA,guK4ipsb,2020-0188,2021-11-02,19:49:53,21:09:28,NA,incomplete,false,true,NA,6,5,location,o_c_014.jpg,left,outdoor,indoor,NA,NA,NA,left,1261.10000000149,true,NA,NA,NA,NA,NA
guK4ipsb,NA,NA,guK4ipsb,2020-0188,2021-11-02,19:49:53,21:09:28,NA,incomplete,false,true,NA,6,6,location,o_s_011.jpg,left,outdoor,indoor,NA,NA,NA,left,962.10000000149,true,NA,NA,NA,NA,NA
guK4ipsb,NA,NA,guK4ipsb,2020-0188,2021-11-02,19:49:53,21:09:28,NA,incomplete,false,true,NA,6,7,location,i_s_003.jpg,left,indoor,outdoor,NA,NA,NA,left,1347.20000000112,true,NA,NA,NA,NA,NA
guK4ipsb,NA,NA,guK4ipsb,2020-0188,2021-11-02,19:49:53,21:09:28,NA,incomplete,false,true,NA,6,8,location,o_c_003.jpg,left,outdoor,indoor,NA,NA,NA,left,952.099999999627,true,NA,NA,NA,NA,NA
guK4ipsb,NA,NA,guK4ipsb,2020-0188,2021-11-02,19:49:53,21:09:28,NA,incomplete,false,true,NA,6,9,location,o_c_002.jpg,left,outdoor,indoor,NA,NA,NA,left,1229.89999999851,true,NA,NA,NA,NA,NA
guK4ipsb,NA,NA,guK4ipsb,2020-0188,2021-11-02,19:49:53,21:09:28,NA,incomplete,false,true,NA,6,10,syllable,c_2_005.jpg,right,2 syllables,1 syllable,NA,NA,NA,left,1173.59999999963,false,NA,NA,NA,NA,NA
guK4ipsb,NA,NA,guK4ipsb,2020-0188,2021-11-02,19:49:53,21:09:28,NA,incomplete,false,true,NA,6,11,syllable,a_2_018.jpg,right,2 syllables,1 syllable,NA,NA,NA,left,1116.29999999888,false,NA,NA,NA,NA,NA
guK4ipsb,NA,NA,guK4ipsb,2020-0188,2021-11-02,19:49:53,21:09:28,NA,incomplete,false,true,NA,6,12,syllable,a_1_005.jpg,right,1 syllable,2 syllables,NA,NA,NA,left,1046.90000000037,false,NA,NA,NA,NA,NA
guK4ipsb,NA,NA,guK4ipsb,2020-0188,2021-11-02,19:49:53,21:09:28,NA,incomplete,false,true,NA,6,13,syllable,c_1_024.jpg,right,2 syllables,1 syllable,NA,NA,NA,right,1060.09999999963,true,NA,NA,NA,NA,NA
guK4ipsb,NA,NA,guK4ipsb,2020-0188,2021-11-02,19:49:53,21:09:28,NA,incomplete,false,true,NA,6,14,syllable,c_1_028.jpg,right,1 syllable,2 syllables,NA,NA,NA,left,1034.90000000037,false,NA,NA,NA,NA,NA
guK4ipsb,NA,NA,guK4ipsb,2020-0188,2021-11-02,19:49:53,21:09:28,NA,incomplete,false,true,NA,6,15,abstractness,a_1_015.jpg,right,concrete,abstract,NA,NA,NA,right,1922.89999999851,true,NA,NA,NA,NA,NA
guK4ipsb,NA,NA,guK4ipsb,2020-0188,2021-11-02,19:49:53,21:09:28,NA,incomplete,false,true,NA,6,16,abstractness,a_1_018.jpg,left,abstract,concrete,NA,NA,NA,left,2203.29999999888,true,NA,NA,NA,NA,NA
guK4ipsb,NA,NA,guK4ipsb,2020-0188,2021-11-02,19:49:53,21:09:28,NA,incomplete,false,true,NA,6,17,abstractness,c_2_013.jpg,left,concrete,abstract,NA,NA,NA,left,1186.59999999963,true,NA,NA,NA,NA,NA
guK4ipsb,NA,NA,guK4ipsb,2020-0188,2021-11-02,19:49:53,21:09:28,NA,incomplete,false,true,NA,6,18,abstractness,a_2_004.jpg,right,concrete,abstract,NA,NA,NA,left,1309.80000000075,false,NA,NA,NA,NA,NA
guK4ipsb,NA,NA,guK4ipsb,2020-0188,2021-11-02,19:49:53,21:09:28,NA,incomplete,false,true,NA,6,19,abstractness,c_1_012.jpg,left,concrete,abstract,NA,NA,NA,left,1528.20000000112,true,NA,NA,NA,NA,NA
guK4ipsb,NA,NA,guK4ipsb,2020-0188,2021-11-02,19:49:53,21:09:28,NA,incomplete,false,true,NA,6,20,origin,n_l_015.jpg,left,natural,manmade,NA,NA,NA,left,1450,true,NA,NA,NA,NA,NA
guK4ipsb,NA,NA,guK4ipsb,2020-0188,2021-11-02,19:49:53,21:09:28,NA,incomplete,false,true,NA,6,21,origin,n_l_021.jpg,right,manmade,natural,NA,NA,NA,right,1514.90000000037,true,NA,NA,NA,NA,NA
guK4ipsb,NA,NA,guK4ipsb,2020-0188,2021-11-02,19:49:53,21:09:28,NA,incomplete,false,true,NA,6,22,origin,n_s_006.jpg,right,manmade,natural,NA,NA,NA,right,2372,true,NA,NA,NA,NA,NA
guK4ipsb,NA,NA,guK4ipsb,2020-0188,2021-11-02,19:49:53,21:09:28,NA,incomplete,false,true,NA,6,23,origin,n_l_004.jpg,right,manmade,natural,NA,NA,NA,right,1751.5,true,NA,NA,NA,NA,NA
guK4ipsb,NA,NA,guK4ipsb,2020-0188,2021-11-02,19:49:53,21:09:28,NA,incomplete,false,true,NA,6,24,origin,n_s_010.jpg,right,manmade,natural,NA,NA,NA,right,1518.59999999963,true,NA,NA,NA,NA,NA
guK4ipsb,NA,NA,guK4ipsb,2020-0188,2021-11-02,19:49:53,21:09:28,NA,incomplete,false,true,NA,6,25,size,n_s_008.jpg,left,small,large,NA,NA,NA,left,1156.90000000037,true,NA,NA,NA,NA,NA
guK4ipsb,NA,NA,guK4ipsb,2020-0188,2021-11-02,19:49:53,21:09:28,NA,incomplete,false,true,NA,6,26,size,m_s_021.jpg,left,small,large,NA,NA,NA,left,1955.59999999963,true,NA,NA,NA,NA,NA
guK4ipsb,NA,NA,guK4ipsb,2020-0188,2021-11-02,19:49:53,21:09:28,NA,incomplete,false,true,NA,6,27,size,n_l_016.jpg,left,large,small,NA,NA,NA,left,1756.5,true,NA,NA,NA,NA,NA
guK4ipsb,NA,NA,guK4ipsb,2020-0188,2021-11-02,19:49:53,21:09:28,NA,incomplete,false,true,NA,6,28,size,m_s_013.jpg,left,small,large,NA,NA,NA,left,1125.5,true,NA,NA,NA,NA,NA
guK4ipsb,NA,NA,guK4ipsb,2020-0188,2021-11-02,19:49:53,21:09:28,NA,incomplete,false,true,NA,6,29,size,n_s_017.jpg,right,large,small,NA,NA,NA,right,1233,true,NA,NA,NA,NA,NA
guK4ipsb,NA,NA,guK4ipsb,2020-0188,2021-11-02,19:49:53,21:09:28,NA,incomplete,false,NA,true,6,0,NA,NA,left,NA,NA,m_s_021.jpg,n_s_017.jpg,within,NA,NaN,NA,right,11674.699999999255,0,1,1612.7000000011176
guK4ipsb,NA,NA,guK4ipsb,2020-0188,2021-11-02,19:49:53,21:09:28,NA,incomplete,false,NA,true,6,1,NA,NA,right,NA,NA,n_s_010.jpg,n_l_021.jpg,within,NA,NaN,NA,right,3625.300000000745,1,0,1271.2999999988824
guK4ipsb,NA,NA,guK4ipsb,2020-0188,2021-11-02,19:49:53,21:09:28,NA,incomplete,false,NA,true,6,2,NA,NA,left,NA,NA,o_c_013.jpg,i_c_026.jpg,within,NA,NaN,NA,right,5390.9000000003725,0,1,1806.300000000745
guK4ipsb,NA,NA,guK4ipsb,2020-0188,2021-11-02,19:49:53,21:09:28,NA,incomplete,false,NA,true,6,3,NA,NA,right,NA,NA,n_l_021.jpg,a_2_004.jpg,between-big,NA,NaN,NA,right,6220.799999998882,1,2,1312.199999999255
guK4ipsb,NA,NA,guK4ipsb,2020-0188,2021-11-02,19:49:53,21:09:28,NA,incomplete,false,NA,true,6,4,NA,NA,left,NA,NA,o_c_014.jpg,o_c_003.jpg,within,NA,NaN,NA,left,2335.800000000745,1,0,1174.8999999985099
guK4ipsb,NA,NA,guK4ipsb,2020-0188,2021-11-02,19:49:53,21:09:28,NA,incomplete,false,NA,true,6,5,NA,NA,right,NA,NA,c_1_028.jpg,a_2_018.jpg,within,NA,NaN,NA,right,4308.5,1,1,1370.9000000003725
guK4ipsb,NA,NA,guK4ipsb,2020-0188,2021-11-02,19:49:53,21:09:28,NA,incomplete,false,NA,true,6,6,NA,NA,left,NA,NA,n_l_015.jpg,n_l_004.jpg,within,NA,NaN,NA,left,3204.4000000003725,1,2,1416
guK4ipsb,NA,NA,guK4ipsb,2020-0188,2021-11-02,19:49:53,21:09:28,NA,incomplete,false,NA,true,6,7,NA,NA,right,NA,NA,n_s_006.jpg,c_1_012.jpg,between-big,NA,NaN,NA,left,2141.2000000011176,0,2,1044.8999999985099
guK4ipsb,NA,NA,guK4ipsb,2020-0188,2021-11-02,19:49:53,21:09:28,NA,incomplete,false,NA,true,6,8,NA,NA,left,NA,NA,n_s_010.jpg,n_l_016.jpg,between-small,NA,NaN,NA,left,2473.7999999988824,1,2,1029.5
guK4ipsb,NA,NA,guK4ipsb,2020-0188,2021-11-02,19:49:53,21:09:28,NA,incomplete,false,NA,true,6,9,NA,NA,left,NA,NA,c_1_024.jpg,a_1_018.jpg,between-small,NA,NaN,NA,right,2319.5,0,1,2383.800000000745
guK4ipsb,NA,NA,guK4ipsb,2020-0188,2021-11-02,19:49:53,21:09:28,NA,incomplete,false,NA,true,6,10,NA,NA,left,NA,NA,i_s_003.jpg,c_2_005.jpg,between-big,NA,NaN,NA,left,5271.5,1,1,2149.300000000745
guK4ipsb,NA,NA,guK4ipsb,2020-0188,2021-11-02,19:49:53,21:09:28,NA,incomplete,false,NA,true,6,11,NA,NA,right,NA,NA,m_s_013.jpg,n_s_008.jpg,within,NA,NaN,NA,right,5898.699999999255,1,1,3024.699999999255
guK4ipsb,NA,NA,guK4ipsb,2020-0188,2021-11-02,19:49:53,21:09:28,NA,incomplete,false,NA,true,6,12,NA,NA,left,NA,NA,a_1_005.jpg,a_1_015.jpg,between-small,NA,NaN,NA,right,2099.5999999996275,0,1,1323.4000000003725
guK4ipsb,NA,NA,guK4ipsb,2020-0188,2021-11-02,19:49:53,21:09:28,NA,incomplete,false,NA,true,6,13,NA,NA,right,NA,NA,c_2_013.jpg,c_1_028.jpg,between-small,NA,NaN,NA,left,2131.5,0,1,2196.0999999996275
guK4ipsb,NA,NA,guK4ipsb,2020-0188,2021-11-02,19:49:53,21:09:28,NA,incomplete,false,NA,true,6,14,NA,NA,left,NA,NA,o_s_011.jpg,o_c_002.jpg,within,NA,NaN,NA,left,2685,1,1,1393.5999999996275
guK4ipsb,NA,NA,guK4ipsb,2020-0188,2021-11-02,19:49:53,21:09:28,NA,incomplete,false,NA,true,6,15,NA,NA,right,NA,NA,o_s_011.jpg,i_c_026.jpg,between-small,NA,NaN,NA,left,2635.89999999851,0,1,1101.5999999996275
guK4ipsb,NA,NA,guK4ipsb,2020-0188,2021-11-02,19:49:53,21:09:28,NA,incomplete,false,NA,true,6,16,NA,NA,left,NA,NA,c_2_005.jpg,c_1_024.jpg,within,NA,NaN,NA,left,1792.800000000745,1,1,1093
guK4ipsb,NA,NA,guK4ipsb,2020-0188,2021-11-02,19:49:53,21:09:28,NA,incomplete,false,NA,true,6,17,NA,NA,right,NA,NA,a_2_004.jpg,a_1_015.jpg,within,NA,NaN,NA,left,2180.2999999988824,0,1,1808.199999999255
guK4ipsb,NA,NA,guK4ipsb,2020-0188,2021-11-02,19:49:53,21:09:28,NA,incomplete,false,NA,true,6,18,NA,NA,left,NA,NA,a_1_018.jpg,c_1_012.jpg,within,NA,NaN,NA,right,1427.7000000011176,0,1,1085.3999999985099
guK4ipsb,NA,NA,guK4ipsb,2020-0188,2021-11-02,19:49:53,21:09:28,NA,incomplete,false,NA,true,6,19,NA,NA,left,NA,NA,o_c_003.jpg,a_2_018.jpg,between-big,NA,NaN,NA,left,1831.0999999996275,1,1,858.2999999988824
guK4ipsb,NA,NA,guK4ipsb,2020-0188,2021-11-02,19:49:53,21:09:28,NA,incomplete,false,NA,true,6,20,NA,NA,left,NA,NA,i_c_012.jpg,o_s_019.jpg,within,NA,NaN,NA,left,1953.5,1,1,1686.0999999996275
guK4ipsb,NA,NA,guK4ipsb,2020-0188,2021-11-02,19:49:53,21:09:28,NA,incomplete,false,NA,true,6,21,NA,NA,left,NA,NA,c_2_013.jpg,n_l_015.jpg,between-big,NA,NaN,NA,right,1417.9000000003725,0,1,915.1999999992549
guK4ipsb,NA,NA,guK4ipsb,2020-0188,2021-11-02,19:49:53,21:09:28,NA,incomplete,false,NA,true,6,22,NA,NA,left,NA,NA,n_l_004.jpg,m_s_021.jpg,between-small,NA,NaN,NA,right,1994.2999999988824,0,1,1004.8000000007451
guK4ipsb,NA,NA,guK4ipsb,2020-0188,2021-11-02,19:49:53,21:09:28,NA,incomplete,false,NA,true,6,23,NA,NA,right,NA,NA,a_1_005.jpg,o_c_002.jpg,between-big,NA,NaN,NA,right,2528.60000000149,1,1,1094.9000000003725
guK4ipsb,NA,NA,guK4ipsb,2020-0188,2021-11-02,19:49:53,21:09:28,NA,incomplete,false,NA,true,6,24,NA,NA,left,NA,NA,o_s_019.jpg,i_s_003.jpg,between-small,NA,NaN,NA,left,5895.5999999996275,1,2,1288.7000000011176
guK4ipsb,NA,NA,guK4ipsb,2020-0188,2021-11-02,19:49:53,21:09:28,NA,incomplete,false,NA,true,6,25,NA,NA,left,NA,NA,i_s_007.jpg,o_c_014.jpg,between-small,NA,NaN,NA,left,2837.699999999255,1,2,1848.9000000003725
guK4ipsb,NA,NA,guK4ipsb,2020-0188,2021-11-02,19:49:53,21:09:28,NA,incomplete,false,NA,true,6,26,NA,NA,right,NA,NA,n_s_008.jpg,n_s_006.jpg,between-small,NA,NaN,NA,right,1819.300000000745,1,1,983.5
guK4ipsb,NA,NA,guK4ipsb,2020-0188,2021-11-02,19:49:53,21:09:28,NA,incomplete,false,true,NA,7,0,origin,m_s_003.jpg,right,natural,manmade,NA,NA,NA,right,1705.80000000075,true,NA,NA,NA,NA,NA
guK4ipsb,NA,NA,guK4ipsb,2020-0188,2021-11-02,19:49:53,21:09:28,NA,incomplete,false,true,NA,7,1,origin,n_l_003.jpg,left,natural,manmade,NA,NA,NA,left,1417.90000000037,true,NA,NA,NA,NA,NA
guK4ipsb,NA,NA,guK4ipsb,2020-0188,2021-11-02,19:49:53,21:09:28,NA,incomplete,false,true,NA,7,2,origin,m_s_023.jpg,right,natural,manmade,NA,NA,NA,right,1686.19999999925,true,NA,NA,NA,NA,NA
guK4ipsb,NA,NA,guK4ipsb,2020-0188,2021-11-02,19:49:53,21:09:28,NA,incomplete,false,true,NA,7,3,origin,m_s_006.jpg,right,natural,manmade,NA,NA,NA,right,2354.69999999925,true,NA,NA,NA,NA,NA
guK4ipsb,NA,NA,guK4ipsb,2020-0188,2021-11-02,19:49:53,21:09:28,NA,incomplete,false,true,NA,7,4,origin,n_s_021.jpg,left,natural,manmade,NA,NA,NA,left,1458.5,true,NA,NA,NA,NA,NA
guK4ipsb,NA,NA,guK4ipsb,2020-0188,2021-11-02,19:49:53,21:09:28,NA,incomplete,false,true,NA,7,5,size,n_l_023.jpg,left,large,small,NA,NA,NA,left,1986.80000000075,true,NA,NA,NA,NA,NA
guK4ipsb,NA,NA,guK4ipsb,2020-0188,2021-11-02,19:49:53,21:09:28,NA,incomplete,false,true,NA,7,6,size,n_s_022.jpg,left,small,large,NA,NA,NA,left,1523,true,NA,NA,NA,NA,NA
guK4ipsb,NA,NA,guK4ipsb,2020-0188,2021-11-02,19:49:53,21:09:28,NA,incomplete,false,true,NA,7,7,size,n_s_013.jpg,left,small,large,NA,NA,NA,left,1334.09999999963,true,NA,NA,NA,NA,NA
guK4ipsb,NA,NA,guK4ipsb,2020-0188,2021-11-02,19:49:53,21:09:28,NA,incomplete,false,true,NA,7,8,size,n_l_019.jpg,left,large,small,NA,NA,NA,left,1975.79999999888,true,NA,NA,NA,NA,NA
guK4ipsb,NA,NA,guK4ipsb,2020-0188,2021-11-02,19:49:53,21:09:28,NA,incomplete,false,true,NA,7,9,size,n_s_011.jpg,left,small,large,NA,NA,NA,left,2444.09999999963,true,NA,NA,NA,NA,NA
guK4ipsb,NA,NA,guK4ipsb,2020-0188,2021-11-02,19:49:53,21:09:28,NA,incomplete,false,true,NA,7,10,syllable,c_2_001.jpg,right,2 syllables,1 syllable,NA,NA,NA,left,1190.5,false,NA,NA,NA,NA,NA
guK4ipsb,NA,NA,guK4ipsb,2020-0188,2021-11-02,19:49:53,21:09:28,NA,incomplete,false,true,NA,7,11,syllable,a_1_026.jpg,right,2 syllables,1 syllable,NA,NA,NA,right,1845.90000000037,true,NA,NA,NA,NA,NA
guK4ipsb,NA,NA,guK4ipsb,2020-0188,2021-11-02,19:49:53,21:09:28,NA,incomplete,false,true,NA,7,12,syllable,c_2_012.jpg,right,2 syllables,1 syllable,NA,NA,NA,left,1429.09999999963,false,NA,NA,NA,NA,NA
guK4ipsb,NA,NA,guK4ipsb,2020-0188,2021-11-02,19:49:53,21:09:28,NA,incomplete,false,true,NA,7,13,syllable,a_2_023.jpg,right,1 syllable,2 syllables,NA,NA,NA,right,1205.5,true,NA,NA,NA,NA,NA
guK4ipsb,NA,NA,guK4ipsb,2020-0188,2021-11-02,19:49:53,21:09:28,NA,incomplete,false,true,NA,7,14,syllable,c_2_028.jpg,right,1 syllable,2 syllables,NA,NA,NA,right,1215.40000000037,true,NA,NA,NA,NA,NA
guK4ipsb,NA,NA,guK4ipsb,2020-0188,2021-11-02,19:49:53,21:09:28,NA,incomplete,false,true,NA,7,15,abstractness,a_1_020.jpg,right,concrete,abstract,NA,NA,NA,right,1568.80000000075,true,NA,NA,NA,NA,NA
guK4ipsb,NA,NA,guK4ipsb,2020-0188,2021-11-02,19:49:53,21:09:28,NA,incomplete,false,true,NA,7,16,abstractness,a_2_027.jpg,left,abstract,concrete,NA,NA,NA,left,1845.40000000037,true,NA,NA,NA,NA,NA
guK4ipsb,NA,NA,guK4ipsb,2020-0188,2021-11-02,19:49:53,21:09:28,NA,incomplete,false,true,NA,7,17,abstractness,a_1_021.jpg,right,concrete,abstract,NA,NA,NA,right,1576.09999999963,true,NA,NA,NA,NA,NA
guK4ipsb,NA,NA,guK4ipsb,2020-0188,2021-11-02,19:49:53,21:09:28,NA,incomplete,false,true,NA,7,18,abstractness,a_2_009.jpg,right,concrete,abstract,NA,NA,NA,right,1990.80000000075,true,NA,NA,NA,NA,NA
guK4ipsb,NA,NA,guK4ipsb,2020-0188,2021-11-02,19:49:53,21:09:28,NA,incomplete,false,true,NA,7,19,abstractness,a_2_005.jpg,right,concrete,abstract,NA,NA,NA,right,1687.10000000149,true,NA,NA,NA,NA,NA
guK4ipsb,NA,NA,guK4ipsb,2020-0188,2021-11-02,19:49:53,21:09:28,NA,incomplete,false,true,NA,7,20,location,o_s_017.jpg,left,outdoor,indoor,NA,NA,NA,left,1568.09999999963,true,NA,NA,NA,NA,NA
guK4ipsb,NA,NA,guK4ipsb,2020-0188,2021-11-02,19:49:53,21:09:28,NA,incomplete,false,true,NA,7,21,location,o_c_028.jpg,right,indoor,outdoor,NA,NA,NA,right,2528.09999999963,true,NA,NA,NA,NA,NA
guK4ipsb,NA,NA,guK4ipsb,2020-0188,2021-11-02,19:49:53,21:09:28,NA,incomplete,false,true,NA,7,22,location,i_s_015.jpg,left,indoor,outdoor,NA,NA,NA,left,1623.70000000112,true,NA,NA,NA,NA,NA
guK4ipsb,NA,NA,guK4ipsb,2020-0188,2021-11-02,19:49:53,21:09:28,NA,incomplete,false,true,NA,7,23,location,i_c_001.jpg,left,indoor,outdoor,NA,NA,NA,left,1748.59999999963,true,NA,NA,NA,NA,NA
guK4ipsb,NA,NA,guK4ipsb,2020-0188,2021-11-02,19:49:53,21:09:28,NA,incomplete,false,true,NA,7,24,location,i_s_008.jpg,left,indoor,outdoor,NA,NA,NA,left,1460.19999999925,true,NA,NA,NA,NA,NA
guK4ipsb,NA,NA,guK4ipsb,2020-0188,2021-11-02,19:49:53,21:09:28,NA,incomplete,false,true,NA,7,25,building,o_c_004.jpg,left,cottage,skyscraper,NA,NA,NA,left,1681.90000000037,true,NA,NA,NA,NA,NA
guK4ipsb,NA,NA,guK4ipsb,2020-0188,2021-11-02,19:49:53,21:09:28,NA,incomplete,false,true,NA,7,26,building,i_c_008.jpg,right,skyscraper,cottage,NA,NA,NA,right,1687.39999999851,true,NA,NA,NA,NA,NA
guK4ipsb,NA,NA,guK4ipsb,2020-0188,2021-11-02,19:49:53,21:09:28,NA,incomplete,false,true,NA,7,27,building,i_s_024.jpg,right,cottage,skyscraper,NA,NA,NA,right,2227.79999999888,true,NA,NA,NA,NA,NA
guK4ipsb,NA,NA,guK4ipsb,2020-0188,2021-11-02,19:49:53,21:09:28,NA,incomplete,false,true,NA,7,28,building,o_s_005.jpg,left,skyscraper,cottage,NA,NA,NA,left,1546.09999999963,true,NA,NA,NA,NA,NA
guK4ipsb,NA,NA,guK4ipsb,2020-0188,2021-11-02,19:49:53,21:09:28,NA,incomplete,false,true,NA,7,29,building,o_c_005.jpg,left,cottage,skyscraper,NA,NA,NA,left,1490.59999999963,true,NA,NA,NA,NA,NA
guK4ipsb,NA,NA,guK4ipsb,2020-0188,2021-11-02,19:49:53,21:09:28,NA,incomplete,false,NA,true,7,0,NA,NA,left,NA,NA,i_s_015.jpg,o_c_004.jpg,between-small,NA,NaN,NA,left,2836.0999999996275,1,2,1451.4000000003725
guK4ipsb,NA,NA,guK4ipsb,2020-0188,2021-11-02,19:49:53,21:09:28,NA,incomplete,false,NA,true,7,1,NA,NA,left,NA,NA,i_c_001.jpg,i_c_008.jpg,between-small,NA,NaN,NA,right,1815.7000000011176,0,1,1401
guK4ipsb,NA,NA,guK4ipsb,2020-0188,2021-11-02,19:49:53,21:09:28,NA,incomplete,false,NA,true,7,2,NA,NA,right,NA,NA,a_2_023.jpg,c_2_001.jpg,within,NA,NaN,NA,left,4485.9000000003725,0,0,2252.0999999996275
guK4ipsb,NA,NA,guK4ipsb,2020-0188,2021-11-02,19:49:53,21:09:28,NA,incomplete,false,NA,true,7,3,NA,NA,right,NA,NA,n_l_023.jpg,m_s_023.jpg,between-small,NA,NaN,NA,left,2782.2000000011176,0,2,1447.4000000003725
guK4ipsb,NA,NA,guK4ipsb,2020-0188,2021-11-02,19:49:53,21:09:28,NA,incomplete,false,NA,true,7,4,NA,NA,left,NA,NA,c_2_028.jpg,a_1_021.jpg,between-small,NA,NaN,NA,right,2139.2999999988824,0,1,2073.2999999988824
guK4ipsb,NA,NA,guK4ipsb,2020-0188,2021-11-02,19:49:53,21:09:28,NA,incomplete,false,NA,true,7,5,NA,NA,left,NA,NA,n_l_023.jpg,n_l_019.jpg,within,NA,NaN,NA,left,2164.699999999255,1,0,1896.7999999988824
guK4ipsb,NA,NA,guK4ipsb,2020-0188,2021-11-02,19:49:53,21:09:28,NA,incomplete,false,NA,true,7,6,NA,NA,right,NA,NA,n_s_021.jpg,n_l_003.jpg,within,NA,NaN,NA,left,1852.4000000003725,0,0,1468.199999999255
guK4ipsb,NA,NA,guK4ipsb,2020-0188,2021-11-02,19:49:53,21:09:28,NA,incomplete,false,NA,true,7,7,NA,NA,right,NA,NA,n_s_011.jpg,n_s_022.jpg,within,NA,NaN,NA,left,2657.5999999996275,0,1,865.5999999996275
guK4ipsb,NA,NA,guK4ipsb,2020-0188,2021-11-02,19:49:53,21:09:28,NA,incomplete,false,NA,true,7,8,NA,NA,left,NA,NA,n_l_019.jpg,a_1_026.jpg,between-big,NA,NaN,NA,left,5684.4000000003725,1,1,1027.7999999988824
guK4ipsb,NA,NA,guK4ipsb,2020-0188,2021-11-02,19:49:53,21:09:28,NA,incomplete,false,NA,true,7,9,NA,NA,left,NA,NA,o_c_004.jpg,o_s_005.jpg,within,NA,NaN,NA,right,2757.5,0,1,1231.699999999255
guK4ipsb,NA,NA,guK4ipsb,2020-0188,2021-11-02,19:49:53,21:09:28,NA,incomplete,false,NA,true,7,10,NA,NA,right,NA,NA,a_1_020.jpg,c_2_012.jpg,between-small,NA,NaN,NA,right,6518.300000000745,1,1,1199.5
guK4ipsb,NA,NA,guK4ipsb,2020-0188,2021-11-02,19:49:53,21:09:28,NA,incomplete,false,NA,true,7,11,NA,NA,right,NA,NA,m_s_006.jpg,m_s_003.jpg,within,NA,NaN,NA,right,4473.5,1,0,1191.5
guK4ipsb,NA,NA,guK4ipsb,2020-0188,2021-11-02,19:49:53,21:09:28,NA,incomplete,false,NA,true,7,12,NA,NA,left,NA,NA,a_2_027.jpg,a_2_005.jpg,within,NA,NaN,NA,left,31885.5,1,1,1010.6000000014901
guK4ipsb,NA,NA,guK4ipsb,2020-0188,2021-11-02,19:49:53,21:09:28,NA,incomplete,false,NA,true,7,13,NA,NA,right,NA,NA,o_c_028.jpg,a_2_009.jpg,between-big,NA,NaN,NA,right,5098.5,1,1,1004.6999999992549
guK4ipsb,NA,NA,guK4ipsb,2020-0188,2021-11-02,19:49:53,21:09:28,NA,incomplete,false,NA,true,7,14,NA,NA,left,NA,NA,a_2_005.jpg,i_s_015.jpg,between-big,NA,NaN,NA,right,1579.800000000745,0,2,1669.2999999988824
guK4ipsb,NA,NA,guK4ipsb,2020-0188,2021-11-02,19:49:53,21:09:28,NA,incomplete,false,NA,true,7,15,NA,NA,right,NA,NA,i_c_001.jpg,o_s_017.jpg,within,NA,NaN,NA,left,2932,0,1,924.0999999996275
guK4ipsb,NA,NA,guK4ipsb,2020-0188,2021-11-02,19:49:53,21:09:28,NA,incomplete,false,NA,true,7,16,NA,NA,left,NA,NA,a_1_026.jpg,c_2_028.jpg,within,NA,NaN,NA,right,1609.9000000003725,0,1,1848.0999999996275
guK4ipsb,NA,NA,guK4ipsb,2020-0188,2021-11-02,19:49:53,21:09:28,NA,incomplete,false,NA,true,7,17,NA,NA,left,NA,NA,n_s_021.jpg,n_s_013.jpg,between-small,NA,NaN,NA,left,2311,1,1,3733.800000000745
guK4ipsb,NA,NA,guK4ipsb,2020-0188,2021-11-02,19:49:53,21:09:28,NA,incomplete,false,NA,true,7,18,NA,NA,left,NA,NA,a_1_020.jpg,a_2_009.jpg,within,NA,NaN,NA,right,1443.0999999996275,0,1,1272.3999999985099
guK4ipsb,NA,NA,guK4ipsb,2020-0188,2021-11-02,19:49:53,21:09:28,NA,incomplete,false,NA,true,7,19,NA,NA,right,NA,NA,n_s_022.jpg,m_s_006.jpg,between-small,NA,NaN,NA,right,1508.1000000014901,1,2,1110.300000000745
guK4ipsb,NA,NA,guK4ipsb,2020-0188,2021-11-02,19:49:53,21:09:28,NA,incomplete,false,NA,true,7,20,NA,NA,right,NA,NA,a_2_027.jpg,a_2_023.jpg,between-small,NA,NaN,NA,right,1418.6000000014901,1,1,1874
guK4ipsb,NA,NA,guK4ipsb,2020-0188,2021-11-02,19:49:53,21:09:28,NA,incomplete,false,NA,true,7,21,NA,NA,right,NA,NA,o_s_017.jpg,a_1_021.jpg,between-big,NA,NaN,NA,right,2853.39999999851,1,2,930.6999999992549
guK4ipsb,NA,NA,guK4ipsb,2020-0188,2021-11-02,19:49:53,21:09:28,NA,incomplete,false,NA,true,7,22,NA,NA,left,NA,NA,i_s_008.jpg,i_s_024.jpg,between-small,NA,NaN,NA,right,3438.199999999255,0,1,1622
guK4ipsb,NA,NA,guK4ipsb,2020-0188,2021-11-02,19:49:53,21:09:28,NA,incomplete,false,NA,true,7,23,NA,NA,right,NA,NA,o_c_005.jpg,i_c_008.jpg,within,NA,NaN,NA,right,2327.4000000003725,1,1,1613.4000000003725
guK4ipsb,NA,NA,guK4ipsb,2020-0188,2021-11-02,19:49:53,21:09:28,NA,incomplete,false,NA,true,7,24,NA,NA,left,NA,NA,n_s_011.jpg,c_2_012.jpg,between-big,NA,NaN,NA,left,2498.10000000149,1,2,1245
guK4ipsb,NA,NA,guK4ipsb,2020-0188,2021-11-02,19:49:53,21:09:28,NA,incomplete,false,NA,true,7,25,NA,NA,left,NA,NA,n_s_013.jpg,c_2_001.jpg,between-big,NA,NaN,NA,left,1628.5,1,2,1263.699999999255
guK4ipsb,NA,NA,guK4ipsb,2020-0188,2021-11-02,19:49:53,21:09:28,NA,incomplete,false,NA,true,7,26,NA,NA,left,NA,NA,o_c_028.jpg,i_s_008.jpg,within,NA,NaN,NA,left,2251.9000000003725,1,2,1304.699999999255
guK4ipsb,NA,NA,guK4ipsb,2020-0188,2021-11-02,19:49:53,21:09:28,NA,incomplete,false,true,NA,8,0,origin,m_l_005.jpg,left,manmade,natural,NA,NA,NA,left,1397.09999999963,true,NA,NA,NA,NA,NA
guK4ipsb,NA,NA,guK4ipsb,2020-0188,2021-11-02,19:49:53,21:09:28,NA,incomplete,false,true,NA,8,1,origin,m_l_008.jpg,right,natural,manmade,NA,NA,NA,right,1293.59999999963,true,NA,NA,NA,NA,NA
guK4ipsb,NA,NA,guK4ipsb,2020-0188,2021-11-02,19:49:53,21:09:28,NA,incomplete,false,true,NA,8,2,origin,n_l_028.jpg,right,manmade,natural,NA,NA,NA,right,1701,true,NA,NA,NA,NA,NA
guK4ipsb,NA,NA,guK4ipsb,2020-0188,2021-11-02,19:49:53,21:09:28,NA,incomplete,false,true,NA,8,3,origin,m_s_026.jpg,right,natural,manmade,NA,NA,NA,right,1816.5,true,NA,NA,NA,NA,NA
guK4ipsb,NA,NA,guK4ipsb,2020-0188,2021-11-02,19:49:53,21:09:28,NA,incomplete,false,true,NA,8,4,origin,m_l_004.jpg,right,natural,manmade,NA,NA,NA,right,2224.40000000037,true,NA,NA,NA,NA,NA
guK4ipsb,NA,NA,guK4ipsb,2020-0188,2021-11-02,19:49:53,21:09:28,NA,incomplete,false,true,NA,8,5,size,m_l_019.jpg,right,small,large,NA,NA,NA,right,1809,true,NA,NA,NA,NA,NA
guK4ipsb,NA,NA,guK4ipsb,2020-0188,2021-11-02,19:49:53,21:09:28,NA,incomplete,false,true,NA,8,6,size,m_l_012.jpg,left,large,small,NA,NA,NA,left,1616.29999999888,true,NA,NA,NA,NA,NA
guK4ipsb,NA,NA,guK4ipsb,2020-0188,2021-11-02,19:49:53,21:09:28,NA,incomplete,false,true,NA,8,7,size,m_l_021.jpg,right,small,large,NA,NA,NA,right,2295.09999999963,true,NA,NA,NA,NA,NA
guK4ipsb,NA,NA,guK4ipsb,2020-0188,2021-11-02,19:49:53,21:09:28,NA,incomplete,false,true,NA,8,8,size,m_s_028.jpg,right,large,small,NA,NA,NA,right,2655,true,NA,NA,NA,NA,NA
guK4ipsb,NA,NA,guK4ipsb,2020-0188,2021-11-02,19:49:53,21:09:28,NA,incomplete,false,true,NA,8,9,size,n_l_024.jpg,right,small,large,NA,NA,NA,right,2859.69999999925,true,NA,NA,NA,NA,NA
guK4ipsb,NA,NA,guK4ipsb,2020-0188,2021-11-02,19:49:53,21:09:28,NA,incomplete,false,true,NA,8,10,abstractness,c_2_019.jpg,left,concrete,abstract,NA,NA,NA,left,2439.20000000112,true,NA,NA,NA,NA,NA
guK4ipsb,NA,NA,guK4ipsb,2020-0188,2021-11-02,19:49:53,21:09:28,NA,incomplete,false,true,NA,8,11,abstractness,a_1_008.jpg,right,concrete,abstract,NA,NA,NA,right,1438.60000000149,true,NA,NA,NA,NA,NA
guK4ipsb,NA,NA,guK4ipsb,2020-0188,2021-11-02,19:49:53,21:09:28,NA,incomplete,false,true,NA,8,12,abstractness,c_2_008.jpg,left,concrete,abstract,NA,NA,NA,left,2240.80000000075,true,NA,NA,NA,NA,NA
guK4ipsb,NA,NA,guK4ipsb,2020-0188,2021-11-02,19:49:53,21:09:28,NA,incomplete,false,true,NA,8,13,abstractness,a_2_003.jpg,left,abstract,concrete,NA,NA,NA,left,1866.69999999925,true,NA,NA,NA,NA,NA
guK4ipsb,NA,NA,guK4ipsb,2020-0188,2021-11-02,19:49:53,21:09:28,NA,incomplete,false,true,NA,8,14,abstractness,a_2_024.jpg,right,concrete,abstract,NA,NA,NA,right,1367.5,true,NA,NA,NA,NA,NA
guK4ipsb,NA,NA,guK4ipsb,2020-0188,2021-11-02,19:49:53,21:09:28,NA,incomplete,false,true,NA,8,15,syllable,a_2_008.jpg,right,2 syllables,1 syllable,NA,NA,NA,left,1857,false,NA,NA,NA,NA,NA
guK4ipsb,NA,NA,guK4ipsb,2020-0188,2021-11-02,19:49:53,21:09:28,NA,incomplete,false,true,NA,8,16,syllable,c_1_011.jpg,right,2 syllables,1 syllable,NA,NA,NA,right,2879.69999999925,true,NA,NA,NA,NA,NA
guK4ipsb,NA,NA,guK4ipsb,2020-0188,2021-11-02,19:49:53,21:09:28,NA,incomplete,false,true,NA,8,17,syllable,a_1_004.jpg,right,1 syllable,2 syllables,NA,NA,NA,left,1164.60000000149,false,NA,NA,NA,NA,NA
guK4ipsb,NA,NA,guK4ipsb,2020-0188,2021-11-02,19:49:53,21:09:28,NA,incomplete,false,true,NA,8,18,syllable,c_2_021.jpg,right,2 syllables,1 syllable,NA,NA,NA,left,1563.19999999925,false,NA,NA,NA,NA,NA
guK4ipsb,NA,NA,guK4ipsb,2020-0188,2021-11-02,19:49:53,21:09:28,NA,incomplete,false,true,NA,8,19,syllable,a_1_006.jpg,right,2 syllables,1 syllable,NA,NA,NA,right,2189.20000000112,true,NA,NA,NA,NA,NA
guK4ipsb,NA,NA,guK4ipsb,2020-0188,2021-11-02,19:49:53,21:09:28,NA,incomplete,false,true,NA,8,20,location,i_c_019.jpg,right,outdoor,indoor,NA,NA,NA,right,1732.40000000037,true,NA,NA,NA,NA,NA
guK4ipsb,NA,NA,guK4ipsb,2020-0188,2021-11-02,19:49:53,21:09:28,NA,incomplete,false,true,NA,8,21,location,i_c_024.jpg,left,indoor,outdoor,NA,NA,NA,left,1886.80000000075,true,NA,NA,NA,NA,NA
guK4ipsb,NA,NA,guK4ipsb,2020-0188,2021-11-02,19:49:53,21:09:28,NA,incomplete,false,true,NA,8,22,location,i_c_011.jpg,right,outdoor,indoor,NA,NA,NA,right,1255,true,NA,NA,NA,NA,NA
guK4ipsb,NA,NA,guK4ipsb,2020-0188,2021-11-02,19:49:53,21:09:28,NA,incomplete,false,true,NA,8,23,location,i_c_025.jpg,right,outdoor,indoor,NA,NA,NA,right,930.099999999627,true,NA,NA,NA,NA,NA
guK4ipsb,NA,NA,guK4ipsb,2020-0188,2021-11-02,19:49:53,21:09:28,NA,incomplete,false,true,NA,8,24,location,i_c_020.jpg,right,outdoor,indoor,NA,NA,NA,right,769.799999998882,true,NA,NA,NA,NA,NA
guK4ipsb,NA,NA,guK4ipsb,2020-0188,2021-11-02,19:49:53,21:09:28,NA,incomplete,false,true,NA,8,25,building,i_s_005.jpg,right,cottage,skyscraper,NA,NA,NA,right,1526.90000000037,true,NA,NA,NA,NA,NA
guK4ipsb,NA,NA,guK4ipsb,2020-0188,2021-11-02,19:49:53,21:09:28,NA,incomplete,false,true,NA,8,26,building,o_s_014.jpg,right,cottage,skyscraper,NA,NA,NA,right,881.900000000373,true,NA,NA,NA,NA,NA
guK4ipsb,NA,NA,guK4ipsb,2020-0188,2021-11-02,19:49:53,21:09:28,NA,incomplete,false,true,NA,8,27,building,o_s_021.jpg,left,skyscraper,cottage,NA,NA,NA,left,2278.29999999888,true,NA,NA,NA,NA,NA
guK4ipsb,NA,NA,guK4ipsb,2020-0188,2021-11-02,19:49:53,21:09:28,NA,incomplete,false,true,NA,8,28,building,o_c_018.jpg,left,cottage,skyscraper,NA,NA,NA,left,1499.80000000075,true,NA,NA,NA,NA,NA
guK4ipsb,NA,NA,guK4ipsb,2020-0188,2021-11-02,19:49:53,21:09:28,NA,incomplete,false,true,NA,8,29,building,o_c_023.jpg,left,cottage,skyscraper,NA,NA,NA,left,1486.69999999925,true,NA,NA,NA,NA,NA
guK4ipsb,NA,NA,guK4ipsb,2020-0188,2021-11-02,19:49:53,21:09:28,NA,incomplete,false,NA,true,8,0,NA,NA,left,NA,NA,n_l_024.jpg,c_2_008.jpg,between-big,NA,NaN,NA,left,1872.9000000003725,1,2,1620.5
guK4ipsb,NA,NA,guK4ipsb,2020-0188,2021-11-02,19:49:53,21:09:28,NA,incomplete,false,NA,true,8,1,NA,NA,right,NA,NA,o_s_021.jpg,i_c_020.jpg,between-small,NA,NaN,NA,right,3535.300000000745,1,0,1053.0999999996275
guK4ipsb,NA,NA,guK4ipsb,2020-0188,2021-11-02,19:49:53,21:09:28,NA,incomplete,false,NA,true,8,2,NA,NA,right,NA,NA,m_s_028.jpg,m_l_019.jpg,within,NA,NaN,NA,left,2577.4000000003725,0,0,1800
guK4ipsb,NA,NA,guK4ipsb,2020-0188,2021-11-02,19:49:53,21:09:28,NA,incomplete,false,NA,true,8,3,NA,NA,right,NA,NA,c_2_021.jpg,a_2_008.jpg,within,NA,NaN,NA,right,1937,1,0,1418.1000000014901
guK4ipsb,NA,NA,guK4ipsb,2020-0188,2021-11-02,19:49:53,21:09:28,NA,incomplete,false,NA,true,8,4,NA,NA,left,NA,NA,m_l_021.jpg,c_2_019.jpg,between-big,NA,NaN,NA,left,2301.699999999255,1,1,1265.300000000745
guK4ipsb,NA,NA,guK4ipsb,2020-0188,2021-11-02,19:49:53,21:09:28,NA,incomplete,false,NA,true,8,5,NA,NA,right,NA,NA,a_1_006.jpg,c_1_011.jpg,within,NA,NaN,NA,right,1800.5999999996275,1,0,1091.800000000745
guK4ipsb,NA,NA,guK4ipsb,2020-0188,2021-11-02,19:49:53,21:09:28,NA,incomplete,false,NA,true,8,6,NA,NA,left,NA,NA,m_l_008.jpg,m_l_004.jpg,within,NA,NaN,NA,left,3284,1,2,1871.300000000745
guK4ipsb,NA,NA,guK4ipsb,2020-0188,2021-11-02,19:49:53,21:09:28,NA,incomplete,false,NA,true,8,7,NA,NA,right,NA,NA,a_1_008.jpg,m_s_028.jpg,between-big,NA,NaN,NA,right,1215.699999999255,1,1,1134.800000000745
guK4ipsb,NA,NA,guK4ipsb,2020-0188,2021-11-02,19:49:53,21:09:28,NA,incomplete,false,NA,true,8,8,NA,NA,left,NA,NA,m_l_005.jpg,m_s_026.jpg,within,NA,NaN,NA,left,2862.0999999996275,1,1,1004.6000000014901
guK4ipsb,NA,NA,guK4ipsb,2020-0188,2021-11-02,19:49:53,21:09:28,NA,incomplete,false,NA,true,8,9,NA,NA,left,NA,NA,m_s_026.jpg,m_l_012.jpg,between-small,NA,NaN,NA,left,2919.2000000011176,1,1,1548.2000000011176
guK4ipsb,NA,NA,guK4ipsb,2020-0188,2021-11-02,19:49:53,21:09:28,NA,incomplete,false,NA,true,8,10,NA,NA,right,NA,NA,i_c_025.jpg,i_c_019.jpg,within,NA,NaN,NA,left,2880.4000000003725,0,1,1143.199999999255
guK4ipsb,NA,NA,guK4ipsb,2020-0188,2021-11-02,19:49:53,21:09:28,NA,incomplete,false,NA,true,8,11,NA,NA,left,NA,NA,c_2_019.jpg,a_2_003.jpg,within,NA,NaN,NA,left,2497.5,1,1,851.3000000007451
guK4ipsb,NA,NA,guK4ipsb,2020-0188,2021-11-02,19:49:53,21:09:28,NA,incomplete,false,NA,true,8,12,NA,NA,left,NA,NA,i_c_024.jpg,i_c_020.jpg,within,NA,NaN,NA,left,2651.7999999988824,1,0,1967.7000000011176
guK4ipsb,NA,NA,guK4ipsb,2020-0188,2021-11-02,19:49:53,21:09:28,NA,incomplete,false,NA,true,8,13,NA,NA,right,NA,NA,i_c_011.jpg,a_1_006.jpg,between-big,NA,NaN,NA,right,2416.0999999996275,1,2,2227.7999999988824
guK4ipsb,NA,NA,guK4ipsb,2020-0188,2021-11-02,19:49:53,21:09:28,NA,incomplete,false,NA,true,8,14,NA,NA,left,NA,NA,m_l_004.jpg,m_l_021.jpg,between-small,NA,NaN,NA,right,3130.4000000003725,0,2,1293.2999999988824
guK4ipsb,NA,NA,guK4ipsb,2020-0188,2021-11-02,19:49:53,21:09:28,NA,incomplete,false,NA,true,8,15,NA,NA,right,NA,NA,m_l_019.jpg,n_l_028.jpg,between-small,NA,NaN,NA,right,1977.1000000014901,1,2,996.0999999996275
guK4ipsb,NA,NA,guK4ipsb,2020-0188,2021-11-02,19:49:53,21:09:28,NA,incomplete,false,NA,true,8,16,NA,NA,left,NA,NA,i_c_025.jpg,o_s_014.jpg,between-small,NA,NaN,NA,left,2253.2999999988824,1,2,1863.800000000745
guK4ipsb,NA,NA,guK4ipsb,2020-0188,2021-11-02,19:49:53,21:09:28,NA,incomplete,false,NA,true,8,17,NA,NA,right,NA,NA,c_1_011.jpg,a_2_003.jpg,between-small,NA,NaN,NA,left,1767.9000000003725,0,2,1377.800000000745
guK4ipsb,NA,NA,guK4ipsb,2020-0188,2021-11-02,19:49:53,21:09:28,NA,incomplete,false,NA,true,8,18,NA,NA,right,NA,NA,a_1_004.jpg,a_2_024.jpg,between-small,NA,NaN,NA,left,2075.0999999996275,0,2,1247.5
guK4ipsb,NA,NA,guK4ipsb,2020-0188,2021-11-02,19:49:53,21:09:28,NA,incomplete,false,NA,true,8,19,NA,NA,left,NA,NA,c_2_021.jpg,i_c_024.jpg,between-big,NA,NaN,NA,left,4586.800000000745,1,2,2140.5
guK4ipsb,NA,NA,guK4ipsb,2020-0188,2021-11-02,19:49:53,21:09:28,NA,incomplete,false,NA,true,8,20,NA,NA,left,NA,NA,a_1_008.jpg,a_2_024.jpg,within,NA,NaN,NA,left,2776.0999999996275,1,1,1133.5999999996275
guK4ipsb,NA,NA,guK4ipsb,2020-0188,2021-11-02,19:49:53,21:09:28,NA,incomplete,false,NA,true,8,21,NA,NA,right,NA,NA,n_l_024.jpg,m_l_012.jpg,within,NA,NaN,NA,left,2466.4000000003725,0,2,1976.5999999996275
guK4ipsb,NA,NA,guK4ipsb,2020-0188,2021-11-02,19:49:53,21:09:28,NA,incomplete,false,NA,true,8,22,NA,NA,right,NA,NA,i_c_019.jpg,a_1_004.jpg,between-big,NA,NaN,NA,right,2090.5999999996275,1,2,1174.199999999255
guK4ipsb,NA,NA,guK4ipsb,2020-0188,2021-11-02,19:49:53,21:09:28,NA,incomplete,false,NA,true,8,23,NA,NA,right,NA,NA,o_c_023.jpg,o_s_014.jpg,within,NA,NaN,NA,left,2465.5999999996275,0,2,1045.199999999255
guK4ipsb,NA,NA,guK4ipsb,2020-0188,2021-11-02,19:49:53,21:09:28,NA,incomplete,false,NA,true,8,24,NA,NA,left,NA,NA,i_s_005.jpg,o_c_018.jpg,within,NA,NaN,NA,left,2659.0999999996275,1,1,1280.5
guK4ipsb,NA,NA,guK4ipsb,2020-0188,2021-11-02,19:49:53,21:09:28,NA,incomplete,false,NA,true,8,25,NA,NA,left,NA,NA,i_c_011.jpg,i_s_005.jpg,between-small,NA,NaN,NA,left,5408.9000000003725,1,2,1296.4000000003725
guK4ipsb,NA,NA,guK4ipsb,2020-0188,2021-11-02,19:49:53,21:09:28,NA,incomplete,false,NA,true,8,26,NA,NA,right,NA,NA,a_2_008.jpg,c_2_008.jpg,between-small,NA,NaN,NA,right,1857.5999999996275,1,1,1206.5999999996275
guK4ipsb,NA,NA,guK4ipsb,2020-0188,2021-11-02,19:49:53,21:09:28,NA,incomplete,false,true,NA,9,0,origin,m_l_018.jpg,right,natural,manmade,NA,NA,NA,right,1538,true,NA,NA,NA,NA,NA
guK4ipsb,NA,NA,guK4ipsb,2020-0188,2021-11-02,19:49:53,21:09:28,NA,incomplete,false,true,NA,9,1,origin,m_s_004.jpg,right,natural,manmade,NA,NA,NA,right,1089.79999999888,true,NA,NA,NA,NA,NA
