workerId,hitId,assignmentId,subject,studyid,exp_date,exp_start,exp_end,time_start,time_end,practice,encoding,memory,block,trial,event,stim,answer,label_left,label_right,left_image,right_image,condition,response,response_time,response_acc,order_response,order_response_time,order_acc,distance_response,distance_response_time
GVBIbhGM,NA,NA,GVBIbhGM,2020-0188,2021-10-04,19:42:56,20:56:45,NA,incomplete,true,true,NA,0,0,size,n_s_011.jpg,right,large,small,NA,NA,NA,right,1396.69999998808,true,NA,NA,NA,NA,NA
GVBIbhGM,NA,NA,GVBIbhGM,2020-0188,2021-10-04,19:42:56,20:56:45,NA,incomplete,true,true,NA,0,1,size,n_s_010.jpg,right,large,small,NA,NA,NA,right,1391.5,true,NA,NA,NA,NA,NA
GVBIbhGM,NA,NA,GVBIbhGM,2020-0188,2021-10-04,19:42:56,20:56:45,NA,incomplete,true,true,NA,0,2,size,m_l_025.jpg,right,small,large,NA,NA,NA,right,1811.80000001192,true,NA,NA,NA,NA,NA
GVBIbhGM,NA,NA,GVBIbhGM,2020-0188,2021-10-04,19:42:56,20:56:45,NA,incomplete,true,true,NA,0,3,size,m_l_002.jpg,right,small,large,NA,NA,NA,left,1824.40000003576,false,NA,NA,NA,NA,NA
GVBIbhGM,NA,NA,GVBIbhGM,2020-0188,2021-10-04,19:42:56,20:56:45,NA,incomplete,true,true,NA,0,4,size,n_l_027.jpg,right,small,large,NA,NA,NA,right,1182.80000001192,true,NA,NA,NA,NA,NA
GVBIbhGM,NA,NA,GVBIbhGM,2020-0188,2021-10-04,19:42:56,20:56:45,NA,incomplete,true,true,NA,0,5,origin,n_l_021.jpg,left,natural,manmade,NA,NA,NA,left,2108.10000002384,true,NA,NA,NA,NA,NA
GVBIbhGM,NA,NA,GVBIbhGM,2020-0188,2021-10-04,19:42:56,20:56:45,NA,incomplete,true,true,NA,0,6,origin,n_l_006.jpg,left,natural,manmade,NA,NA,NA,left,1315.90000003576,true,NA,NA,NA,NA,NA
GVBIbhGM,NA,NA,GVBIbhGM,2020-0188,2021-10-04,19:42:56,20:56:45,NA,incomplete,true,true,NA,0,7,origin,n_s_004.jpg,left,natural,manmade,NA,NA,NA,left,1845.5,true,NA,NA,NA,NA,NA
GVBIbhGM,NA,NA,GVBIbhGM,2020-0188,2021-10-04,19:42:56,20:56:45,NA,incomplete,true,true,NA,0,8,origin,n_l_017.jpg,right,manmade,natural,NA,NA,NA,right,1813.5,true,NA,NA,NA,NA,NA
GVBIbhGM,NA,NA,GVBIbhGM,2020-0188,2021-10-04,19:42:56,20:56:45,NA,incomplete,true,true,NA,0,9,origin,n_l_013.jpg,right,manmade,natural,NA,NA,NA,right,1635.40000003576,true,NA,NA,NA,NA,NA
GVBIbhGM,NA,NA,GVBIbhGM,2020-0188,2021-10-04,19:42:56,20:56:45,NA,incomplete,true,true,NA,0,10,building,i_c_001.jpg,left,cottage,skyscraper,NA,NA,NA,left,1226.10000002384,true,NA,NA,NA,NA,NA
GVBIbhGM,NA,NA,GVBIbhGM,2020-0188,2021-10-04,19:42:56,20:56:45,NA,incomplete,true,true,NA,0,11,building,i_c_026.jpg,left,cottage,skyscraper,NA,NA,NA,left,1862.80000001192,true,NA,NA,NA,NA,NA
GVBIbhGM,NA,NA,GVBIbhGM,2020-0188,2021-10-04,19:42:56,20:56:45,NA,incomplete,true,true,NA,0,12,building,i_s_008.jpg,right,cottage,skyscraper,NA,NA,NA,right,1270.89999997616,true,NA,NA,NA,NA,NA
GVBIbhGM,NA,NA,GVBIbhGM,2020-0188,2021-10-04,19:42:56,20:56:45,NA,incomplete,true,true,NA,0,13,building,i_c_016.jpg,left,cottage,skyscraper,NA,NA,NA,left,866.800000011921,true,NA,NA,NA,NA,NA
GVBIbhGM,NA,NA,GVBIbhGM,2020-0188,2021-10-04,19:42:56,20:56:45,NA,incomplete,true,true,NA,0,14,building,o_c_012.jpg,right,skyscraper,cottage,NA,NA,NA,left,1124.69999998808,false,NA,NA,NA,NA,NA
GVBIbhGM,NA,NA,GVBIbhGM,2020-0188,2021-10-04,19:42:56,20:56:45,NA,incomplete,true,true,NA,0,15,location,o_s_011.jpg,left,outdoor,indoor,NA,NA,NA,left,1767.19999998808,true,NA,NA,NA,NA,NA
GVBIbhGM,NA,NA,GVBIbhGM,2020-0188,2021-10-04,19:42:56,20:56:45,NA,incomplete,true,true,NA,0,16,location,i_c_028.jpg,left,indoor,outdoor,NA,NA,NA,left,1615.80000001192,true,NA,NA,NA,NA,NA
GVBIbhGM,NA,NA,GVBIbhGM,2020-0188,2021-10-04,19:42:56,20:56:45,NA,incomplete,true,true,NA,0,17,location,o_s_009.jpg,right,indoor,outdoor,NA,NA,NA,right,1026,true,NA,NA,NA,NA,NA
GVBIbhGM,NA,NA,GVBIbhGM,2020-0188,2021-10-04,19:42:56,20:56:45,NA,incomplete,true,true,NA,0,18,location,o_c_005.jpg,left,outdoor,indoor,NA,NA,NA,left,1551.60000002384,true,NA,NA,NA,NA,NA
GVBIbhGM,NA,NA,GVBIbhGM,2020-0188,2021-10-04,19:42:56,20:56:45,NA,incomplete,true,true,NA,0,19,location,i_s_006.jpg,right,outdoor,indoor,NA,NA,NA,right,1365.40000003576,true,NA,NA,NA,NA,NA
GVBIbhGM,NA,NA,GVBIbhGM,2020-0188,2021-10-04,19:42:56,20:56:45,NA,incomplete,true,true,NA,0,20,abstractness,a_2_025.jpg,right,concrete,abstract,NA,NA,NA,right,1756.30000001192,true,NA,NA,NA,NA,NA
GVBIbhGM,NA,NA,GVBIbhGM,2020-0188,2021-10-04,19:42:56,20:56:45,NA,incomplete,true,true,NA,0,21,abstractness,a_2_020.jpg,left,abstract,concrete,NA,NA,NA,left,2417.39999997616,true,NA,NA,NA,NA,NA
GVBIbhGM,NA,NA,GVBIbhGM,2020-0188,2021-10-04,19:42:56,20:56:45,NA,incomplete,true,true,NA,0,22,abstractness,c_1_013.jpg,left,concrete,abstract,NA,NA,NA,left,1386.59999996424,true,NA,NA,NA,NA,NA
GVBIbhGM,NA,NA,GVBIbhGM,2020-0188,2021-10-04,19:42:56,20:56:45,NA,incomplete,true,true,NA,0,23,abstractness,c_1_027.jpg,right,abstract,concrete,NA,NA,NA,left,1564.19999998808,false,NA,NA,NA,NA,NA
GVBIbhGM,NA,NA,GVBIbhGM,2020-0188,2021-10-04,19:42:56,20:56:45,NA,incomplete,true,true,NA,0,24,abstractness,a_2_009.jpg,right,concrete,abstract,NA,NA,NA,right,2132,true,NA,NA,NA,NA,NA
GVBIbhGM,NA,NA,GVBIbhGM,2020-0188,2021-10-04,19:42:56,20:56:45,NA,incomplete,true,true,NA,0,25,syllable,c_2_017.jpg,right,2 syllables,1 syllable,NA,NA,NA,left,1557,false,NA,NA,NA,NA,NA
GVBIbhGM,NA,NA,GVBIbhGM,2020-0188,2021-10-04,19:42:56,20:56:45,NA,incomplete,true,true,NA,0,26,syllable,a_1_018.jpg,right,1 syllable,2 syllables,NA,NA,NA,left,997.699999988079,false,NA,NA,NA,NA,NA
GVBIbhGM,NA,NA,GVBIbhGM,2020-0188,2021-10-04,19:42:56,20:56:45,NA,incomplete,true,true,NA,0,27,syllable,a_1_026.jpg,right,2 syllables,1 syllable,NA,NA,NA,right,1012,true,NA,NA,NA,NA,NA
GVBIbhGM,NA,NA,GVBIbhGM,2020-0188,2021-10-04,19:42:56,20:56:45,NA,incomplete,true,true,NA,0,28,syllable,c_1_024.jpg,right,2 syllables,1 syllable,NA,NA,NA,right,878.400000035763,true,NA,NA,NA,NA,NA
GVBIbhGM,NA,NA,GVBIbhGM,2020-0188,2021-10-04,19:42:56,20:56:45,NA,incomplete,true,true,NA,0,29,syllable,a_1_002.jpg,right,2 syllables,1 syllable,NA,NA,NA,right,893.200000047684,true,NA,NA,NA,NA,NA
GVBIbhGM,NA,NA,GVBIbhGM,2020-0188,2021-10-04,19:42:56,20:56:45,NA,incomplete,true,NA,true,0,0,NA,NA,right,NA,NA,n_l_021.jpg,m_l_025.jpg,between-small,NA,NaN,NA,right,10821.399999976158,1,1,4426.800000011921
GVBIbhGM,NA,NA,GVBIbhGM,2020-0188,2021-10-04,19:42:56,20:56:45,NA,incomplete,true,NA,true,0,1,NA,NA,right,NA,NA,c_2_017.jpg,c_1_013.jpg,between-small,NA,NaN,NA,right,4359.800000011921,1,1,1817.800000011921
GVBIbhGM,NA,NA,GVBIbhGM,2020-0188,2021-10-04,19:42:56,20:56:45,NA,incomplete,true,NA,true,0,2,NA,NA,left,NA,NA,n_l_006.jpg,n_l_013.jpg,within,NA,NaN,NA,right,4810.199999988079,0,1,1409.0999999642372
GVBIbhGM,NA,NA,GVBIbhGM,2020-0188,2021-10-04,19:42:56,20:56:45,NA,incomplete,true,NA,true,0,3,NA,NA,left,NA,NA,a_2_009.jpg,a_1_026.jpg,between-small,NA,NaN,NA,left,4144.199999988079,1,1,1262.5
GVBIbhGM,NA,NA,GVBIbhGM,2020-0188,2021-10-04,19:42:56,20:56:45,NA,incomplete,true,NA,true,0,4,NA,NA,right,NA,NA,i_s_008.jpg,n_l_013.jpg,between-big,NA,NaN,NA,right,4038.099999964237,1,2,2212
GVBIbhGM,NA,NA,GVBIbhGM,2020-0188,2021-10-04,19:42:56,20:56:45,NA,incomplete,true,NA,true,0,5,NA,NA,left,NA,NA,n_l_017.jpg,i_c_026.jpg,between-big,NA,NaN,NA,left,3051.199999988079,1,2,2067.399999976158
GVBIbhGM,NA,NA,GVBIbhGM,2020-0188,2021-10-04,19:42:56,20:56:45,NA,incomplete,true,NA,true,0,6,NA,NA,left,NA,NA,c_1_027.jpg,a_1_018.jpg,between-small,NA,NaN,NA,left,3606.399999976158,1,1,1065.5999999642372
GVBIbhGM,NA,NA,GVBIbhGM,2020-0188,2021-10-04,19:42:56,20:56:45,NA,incomplete,true,NA,true,0,7,NA,NA,left,NA,NA,c_2_017.jpg,c_1_024.jpg,within,NA,NaN,NA,left,4304.800000011921,1,0,1418.5
GVBIbhGM,NA,NA,GVBIbhGM,2020-0188,2021-10-04,19:42:56,20:56:45,NA,incomplete,true,NA,true,0,8,NA,NA,right,NA,NA,m_l_002.jpg,n_s_011.jpg,within,NA,NaN,NA,left,2326.399999976158,0,1,1335.800000011921
GVBIbhGM,NA,NA,GVBIbhGM,2020-0188,2021-10-04,19:42:56,20:56:45,NA,incomplete,true,NA,true,0,9,NA,NA,right,NA,NA,n_l_017.jpg,n_l_021.jpg,within,NA,NaN,NA,right,2575.5,1,0,1590.1000000238419
GVBIbhGM,NA,NA,GVBIbhGM,2020-0188,2021-10-04,19:42:56,20:56:45,NA,incomplete,true,NA,true,0,10,NA,NA,left,NA,NA,a_1_018.jpg,a_1_002.jpg,within,NA,NaN,NA,left,3240.300000011921,1,0,1558.0999999642372
GVBIbhGM,NA,NA,GVBIbhGM,2020-0188,2021-10-04,19:42:56,20:56:45,NA,incomplete,true,NA,true,0,11,NA,NA,right,NA,NA,i_c_028.jpg,i_c_016.jpg,between-small,NA,NaN,NA,right,7526.099999964237,1,1,1180.6000000238419
GVBIbhGM,NA,NA,GVBIbhGM,2020-0188,2021-10-04,19:42:56,20:56:45,NA,incomplete,true,NA,true,0,12,NA,NA,right,NA,NA,o_c_005.jpg,o_s_011.jpg,within,NA,NaN,NA,left,4849.900000035763,0,1,2546.2999999523163
GVBIbhGM,NA,NA,GVBIbhGM,2020-0188,2021-10-04,19:42:56,20:56:45,NA,incomplete,true,NA,true,0,13,NA,NA,left,NA,NA,n_s_010.jpg,n_l_027.jpg,within,NA,NaN,NA,left,5678.800000011921,1,0,1040.8999999761581
GVBIbhGM,NA,NA,GVBIbhGM,2020-0188,2021-10-04,19:42:56,20:56:45,NA,incomplete,true,NA,true,0,14,NA,NA,right,NA,NA,i_s_006.jpg,i_c_028.jpg,within,NA,NaN,NA,right,3233,1,1,1524.5
GVBIbhGM,NA,NA,GVBIbhGM,2020-0188,2021-10-04,19:42:56,20:56:45,NA,incomplete,true,NA,true,0,15,NA,NA,left,NA,NA,o_c_005.jpg,a_2_020.jpg,between-big,NA,NaN,NA,left,5449.699999988079,1,1,1470.800000011921
GVBIbhGM,NA,NA,GVBIbhGM,2020-0188,2021-10-04,19:42:56,20:56:45,NA,incomplete,true,NA,true,0,16,NA,NA,right,NA,NA,n_l_006.jpg,m_l_002.jpg,between-small,NA,NaN,NA,right,2190.199999988079,1,1,1788
GVBIbhGM,NA,NA,GVBIbhGM,2020-0188,2021-10-04,19:42:56,20:56:45,NA,incomplete,true,NA,true,0,17,NA,NA,left,NA,NA,o_s_009.jpg,a_2_025.jpg,between-big,NA,NaN,NA,left,2725.699999988079,1,2,2469.800000011921
GVBIbhGM,NA,NA,GVBIbhGM,2020-0188,2021-10-04,19:42:56,20:56:45,NA,incomplete,true,NA,true,0,18,NA,NA,left,NA,NA,i_c_001.jpg,i_c_016.jpg,within,NA,NaN,NA,left,4653.100000023842,1,1,2739.899999976158
GVBIbhGM,NA,NA,GVBIbhGM,2020-0188,2021-10-04,19:42:56,20:56:45,NA,incomplete,true,NA,true,0,19,NA,NA,right,NA,NA,c_1_013.jpg,i_s_006.jpg,between-big,NA,NaN,NA,right,3793.300000011921,1,2,1632.1000000238419
GVBIbhGM,NA,NA,GVBIbhGM,2020-0188,2021-10-04,19:42:56,20:56:45,NA,incomplete,true,NA,true,0,20,NA,NA,left,NA,NA,n_s_004.jpg,i_c_001.jpg,between-big,NA,NaN,NA,left,4186.899999976158,1,2,4212.799999952316
GVBIbhGM,NA,NA,GVBIbhGM,2020-0188,2021-10-04,19:42:56,20:56:45,NA,incomplete,true,NA,true,0,21,NA,NA,left,NA,NA,i_s_008.jpg,o_s_011.jpg,between-small,NA,NaN,NA,right,5087.899999976158,0,1,2305
GVBIbhGM,NA,NA,GVBIbhGM,2020-0188,2021-10-04,19:42:56,20:56:45,NA,incomplete,true,NA,true,0,22,NA,NA,left,NA,NA,i_c_026.jpg,o_c_012.jpg,within,NA,NaN,NA,right,4352.199999988079,0,1,1599.2000000476837
GVBIbhGM,NA,NA,GVBIbhGM,2020-0188,2021-10-04,19:42:56,20:56:45,NA,incomplete,true,NA,true,0,23,NA,NA,left,NA,NA,o_c_012.jpg,o_s_009.jpg,between-small,NA,NaN,NA,right,4912.300000011921,0,0,1574.1000000238419
GVBIbhGM,NA,NA,GVBIbhGM,2020-0188,2021-10-04,19:42:56,20:56:45,NA,incomplete,true,NA,true,0,24,NA,NA,right,NA,NA,c_1_027.jpg,a_2_025.jpg,within,NA,NaN,NA,right,4488.300000011921,1,0,1731
GVBIbhGM,NA,NA,GVBIbhGM,2020-0188,2021-10-04,19:42:56,20:56:45,NA,incomplete,true,NA,true,0,25,NA,NA,left,NA,NA,a_2_020.jpg,a_2_009.jpg,within,NA,NaN,NA,left,6508.300000011921,1,0,1341.5999999642372
GVBIbhGM,NA,NA,GVBIbhGM,2020-0188,2021-10-04,19:42:56,20:56:45,NA,incomplete,true,NA,true,0,26,NA,NA,left,NA,NA,n_l_027.jpg,n_s_004.jpg,between-small,NA,NaN,NA,right,5769.900000035763,0,1,1435.5999999642372
GVBIbhGM,NA,NA,GVBIbhGM,2020-0188,2021-10-04,19:42:56,20:56:45,NA,incomplete,false,true,NA,1,0,size,m_l_022.jpg,left,large,small,NA,NA,NA,right,2298.30000001192,false,NA,NA,NA,NA,NA
GVBIbhGM,NA,NA,GVBIbhGM,2020-0188,2021-10-04,19:42:56,20:56:45,NA,incomplete,false,true,NA,1,1,size,m_s_023.jpg,left,small,large,NA,NA,NA,left,1055.30000001192,true,NA,NA,NA,NA,NA
GVBIbhGM,NA,NA,GVBIbhGM,2020-0188,2021-10-04,19:42:56,20:56:45,NA,incomplete,false,true,NA,1,2,size,n_l_014.jpg,left,large,small,NA,NA,NA,left,1613.19999998808,true,NA,NA,NA,NA,NA
GVBIbhGM,NA,NA,GVBIbhGM,2020-0188,2021-10-04,19:42:56,20:56:45,NA,incomplete,false,true,NA,1,3,size,n_s_018.jpg,left,small,large,NA,NA,NA,left,1064,true,NA,NA,NA,NA,NA
GVBIbhGM,NA,NA,GVBIbhGM,2020-0188,2021-10-04,19:42:56,20:56:45,NA,incomplete,false,true,NA,1,4,size,n_l_026.jpg,left,large,small,NA,NA,NA,left,2359,true,NA,NA,NA,NA,NA
GVBIbhGM,NA,NA,GVBIbhGM,2020-0188,2021-10-04,19:42:56,20:56:45,NA,incomplete,false,true,NA,1,5,origin,n_l_024.jpg,left,natural,manmade,NA,NA,NA,left,1594.09999996424,true,NA,NA,NA,NA,NA
GVBIbhGM,NA,NA,GVBIbhGM,2020-0188,2021-10-04,19:42:56,20:56:45,NA,incomplete,false,true,NA,1,6,origin,m_l_027.jpg,right,natural,manmade,NA,NA,NA,right,719.600000023842,true,NA,NA,NA,NA,NA
GVBIbhGM,NA,NA,GVBIbhGM,2020-0188,2021-10-04,19:42:56,20:56:45,NA,incomplete,false,true,NA,1,7,origin,n_s_025.jpg,right,manmade,natural,NA,NA,NA,right,1413.60000002384,true,NA,NA,NA,NA,NA
GVBIbhGM,NA,NA,GVBIbhGM,2020-0188,2021-10-04,19:42:56,20:56:45,NA,incomplete,false,true,NA,1,8,origin,n_s_017.jpg,left,natural,manmade,NA,NA,NA,left,1259.19999998808,true,NA,NA,NA,NA,NA
GVBIbhGM,NA,NA,GVBIbhGM,2020-0188,2021-10-04,19:42:56,20:56:45,NA,incomplete,false,true,NA,1,9,origin,m_s_019.jpg,right,natural,manmade,NA,NA,NA,right,1114,true,NA,NA,NA,NA,NA
GVBIbhGM,NA,NA,GVBIbhGM,2020-0188,2021-10-04,19:42:56,20:56:45,NA,incomplete,false,true,NA,1,10,building,o_c_013.jpg,right,skyscraper,cottage,NA,NA,NA,right,1392.5,true,NA,NA,NA,NA,NA
GVBIbhGM,NA,NA,GVBIbhGM,2020-0188,2021-10-04,19:42:56,20:56:45,NA,incomplete,false,true,NA,1,11,building,o_s_020.jpg,right,cottage,skyscraper,NA,NA,NA,right,1104.79999995232,true,NA,NA,NA,NA,NA
GVBIbhGM,NA,NA,GVBIbhGM,2020-0188,2021-10-04,19:42:56,20:56:45,NA,incomplete,false,true,NA,1,12,building,i_s_013.jpg,left,skyscraper,cottage,NA,NA,NA,left,1460,true,NA,NA,NA,NA,NA
GVBIbhGM,NA,NA,GVBIbhGM,2020-0188,2021-10-04,19:42:56,20:56:45,NA,incomplete,false,true,NA,1,13,building,i_s_004.jpg,right,cottage,skyscraper,NA,NA,NA,right,948.100000023842,true,NA,NA,NA,NA,NA
GVBIbhGM,NA,NA,GVBIbhGM,2020-0188,2021-10-04,19:42:56,20:56:45,NA,incomplete,false,true,NA,1,14,building,o_c_009.jpg,left,cottage,skyscraper,NA,NA,NA,left,761.5,true,NA,NA,NA,NA,NA
GVBIbhGM,NA,NA,GVBIbhGM,2020-0188,2021-10-04,19:42:56,20:56:45,NA,incomplete,false,true,NA,1,15,location,o_s_016.jpg,left,outdoor,indoor,NA,NA,NA,left,1645.39999997616,true,NA,NA,NA,NA,NA
GVBIbhGM,NA,NA,GVBIbhGM,2020-0188,2021-10-04,19:42:56,20:56:45,NA,incomplete,false,true,NA,1,16,location,o_c_026.jpg,right,indoor,outdoor,NA,NA,NA,right,1844.80000001192,true,NA,NA,NA,NA,NA
GVBIbhGM,NA,NA,GVBIbhGM,2020-0188,2021-10-04,19:42:56,20:56:45,NA,incomplete,false,true,NA,1,17,location,o_c_008.jpg,right,indoor,outdoor,NA,NA,NA,right,1186.40000003576,true,NA,NA,NA,NA,NA
GVBIbhGM,NA,NA,GVBIbhGM,2020-0188,2021-10-04,19:42:56,20:56:45,NA,incomplete,false,true,NA,1,18,location,i_c_025.jpg,left,indoor,outdoor,NA,NA,NA,left,696.700000047684,true,NA,NA,NA,NA,NA
GVBIbhGM,NA,NA,GVBIbhGM,2020-0188,2021-10-04,19:42:56,20:56:45,NA,incomplete,false,true,NA,1,19,location,o_c_018.jpg,left,outdoor,indoor,NA,NA,NA,left,752.899999976158,true,NA,NA,NA,NA,NA
GVBIbhGM,NA,NA,GVBIbhGM,2020-0188,2021-10-04,19:42:56,20:56:45,NA,incomplete,false,true,NA,1,20,abstractness,a_2_006.jpg,left,abstract,concrete,NA,NA,NA,left,2165.5,true,NA,NA,NA,NA,NA
GVBIbhGM,NA,NA,GVBIbhGM,2020-0188,2021-10-04,19:42:56,20:56:45,NA,incomplete,false,true,NA,1,21,abstractness,c_1_023.jpg,right,abstract,concrete,NA,NA,NA,right,1473,true,NA,NA,NA,NA,NA
GVBIbhGM,NA,NA,GVBIbhGM,2020-0188,2021-10-04,19:42:56,20:56:45,NA,incomplete,false,true,NA,1,22,abstractness,a_2_019.jpg,left,abstract,concrete,NA,NA,NA,left,2432.30000001192,true,NA,NA,NA,NA,NA
GVBIbhGM,NA,NA,GVBIbhGM,2020-0188,2021-10-04,19:42:56,20:56:45,NA,incomplete,false,true,NA,1,23,abstractness,a_2_012.jpg,left,abstract,concrete,NA,NA,NA,left,1056,true,NA,NA,NA,NA,NA
GVBIbhGM,NA,NA,GVBIbhGM,2020-0188,2021-10-04,19:42:56,20:56:45,NA,incomplete,false,true,NA,1,24,abstractness,c_2_027.jpg,left,concrete,abstract,NA,NA,NA,left,2034.79999995232,true,NA,NA,NA,NA,NA
GVBIbhGM,NA,NA,GVBIbhGM,2020-0188,2021-10-04,19:42:56,20:56:45,NA,incomplete,false,true,NA,1,25,syllable,c_2_013.jpg,right,1 syllable,2 syllables,NA,NA,NA,right,1510.89999997616,true,NA,NA,NA,NA,NA
GVBIbhGM,NA,NA,GVBIbhGM,2020-0188,2021-10-04,19:42:56,20:56:45,NA,incomplete,false,true,NA,1,26,syllable,a_1_007.jpg,right,1 syllable,2 syllables,NA,NA,NA,left,1229.90000003576,false,NA,NA,NA,NA,NA
GVBIbhGM,NA,NA,GVBIbhGM,2020-0188,2021-10-04,19:42:56,20:56:45,NA,incomplete,false,true,NA,1,27,syllable,c_1_016.jpg,right,2 syllables,1 syllable,NA,NA,NA,right,1218.69999998808,true,NA,NA,NA,NA,NA
GVBIbhGM,NA,NA,GVBIbhGM,2020-0188,2021-10-04,19:42:56,20:56:45,NA,incomplete,false,true,NA,1,28,syllable,c_2_021.jpg,right,2 syllables,1 syllable,NA,NA,NA,left,817.799999952316,false,NA,NA,NA,NA,NA
GVBIbhGM,NA,NA,GVBIbhGM,2020-0188,2021-10-04,19:42:56,20:56:45,NA,incomplete,false,true,NA,1,29,syllable,c_2_022.jpg,right,1 syllable,2 syllables,NA,NA,NA,right,1414.60000002384,true,NA,NA,NA,NA,NA
GVBIbhGM,NA,NA,GVBIbhGM,2020-0188,2021-10-04,19:42:56,20:56:45,NA,incomplete,false,NA,true,1,0,NA,NA,right,NA,NA,c_1_023.jpg,i_c_025.jpg,between-big,NA,NaN,NA,right,4804,1,2,805.8000000119209
GVBIbhGM,NA,NA,GVBIbhGM,2020-0188,2021-10-04,19:42:56,20:56:45,NA,incomplete,false,NA,true,1,1,NA,NA,left,NA,NA,i_s_004.jpg,o_c_026.jpg,between-small,NA,NaN,NA,right,6693.300000011921,0,0,1388.699999988079
GVBIbhGM,NA,NA,GVBIbhGM,2020-0188,2021-10-04,19:42:56,20:56:45,NA,incomplete,false,NA,true,1,2,NA,NA,right,NA,NA,n_l_024.jpg,n_l_014.jpg,between-small,NA,NaN,NA,right,4570.399999976158,1,1,1191.6000000238419
GVBIbhGM,NA,NA,GVBIbhGM,2020-0188,2021-10-04,19:42:56,20:56:45,NA,incomplete,false,NA,true,1,3,NA,NA,left,NA,NA,o_c_009.jpg,o_c_008.jpg,between-small,NA,NaN,NA,left,3479.900000035763,1,1,1623.8999999761581
GVBIbhGM,NA,NA,GVBIbhGM,2020-0188,2021-10-04,19:42:56,20:56:45,NA,incomplete,false,NA,true,1,4,NA,NA,right,NA,NA,i_s_013.jpg,m_s_019.jpg,between-big,NA,NaN,NA,left,2430.800000011921,0,1,1667.7999999523163
GVBIbhGM,NA,NA,GVBIbhGM,2020-0188,2021-10-04,19:42:56,20:56:45,NA,incomplete,false,NA,true,1,5,NA,NA,left,NA,NA,a_2_006.jpg,a_2_012.jpg,within,NA,NaN,NA,left,5809.700000047684,1,0,2403.100000023842
GVBIbhGM,NA,NA,GVBIbhGM,2020-0188,2021-10-04,19:42:56,20:56:45,NA,incomplete,false,NA,true,1,6,NA,NA,right,NA,NA,n_s_025.jpg,n_l_026.jpg,between-small,NA,NaN,NA,right,5023,1,1,1435.5
GVBIbhGM,NA,NA,GVBIbhGM,2020-0188,2021-10-04,19:42:56,20:56:45,NA,incomplete,false,NA,true,1,7,NA,NA,right,NA,NA,n_s_017.jpg,n_l_024.jpg,within,NA,NaN,NA,right,6133.699999988079,1,1,1057.300000011921
GVBIbhGM,NA,NA,GVBIbhGM,2020-0188,2021-10-04,19:42:56,20:56:45,NA,incomplete,false,NA,true,1,8,NA,NA,right,NA,NA,m_s_019.jpg,m_l_027.jpg,within,NA,NaN,NA,right,3029.599999964237,1,0,1262.800000011921
GVBIbhGM,NA,NA,GVBIbhGM,2020-0188,2021-10-04,19:42:56,20:56:45,NA,incomplete,false,NA,true,1,9,NA,NA,left,NA,NA,n_s_018.jpg,m_l_027.jpg,between-small,NA,NaN,NA,left,3110.600000023842,1,0,1769.800000011921
GVBIbhGM,NA,NA,GVBIbhGM,2020-0188,2021-10-04,19:42:56,20:56:45,NA,incomplete,false,NA,true,1,10,NA,NA,left,NA,NA,o_s_016.jpg,i_c_025.jpg,within,NA,NaN,NA,right,5530.300000011921,0,0,829.0999999642372
GVBIbhGM,NA,NA,GVBIbhGM,2020-0188,2021-10-04,19:42:56,20:56:45,NA,incomplete,false,NA,true,1,11,NA,NA,right,NA,NA,c_2_013.jpg,a_2_019.jpg,between-small,NA,NaN,NA,right,6546.800000011921,1,1,1684.3999999761581
GVBIbhGM,NA,NA,GVBIbhGM,2020-0188,2021-10-04,19:42:56,20:56:45,NA,incomplete,false,NA,true,1,12,NA,NA,right,NA,NA,n_s_018.jpg,m_l_022.jpg,within,NA,NaN,NA,right,2053.199999988079,1,0,1047.2999999523163
GVBIbhGM,NA,NA,GVBIbhGM,2020-0188,2021-10-04,19:42:56,20:56:45,NA,incomplete,false,NA,true,1,13,NA,NA,left,NA,NA,o_c_018.jpg,a_2_019.jpg,between-big,NA,NaN,NA,left,2266,1,1,1376.699999988079
GVBIbhGM,NA,NA,GVBIbhGM,2020-0188,2021-10-04,19:42:56,20:56:45,NA,incomplete,false,NA,true,1,14,NA,NA,left,NA,NA,c_2_013.jpg,c_2_021.jpg,within,NA,NaN,NA,left,4889.5,1,0,2510.599999964237
GVBIbhGM,NA,NA,GVBIbhGM,2020-0188,2021-10-04,19:42:56,20:56:45,NA,incomplete,false,NA,true,1,15,NA,NA,right,NA,NA,i_s_004.jpg,o_c_013.jpg,within,NA,NaN,NA,right,5531.399999976158,1,1,1101.7000000476837
GVBIbhGM,NA,NA,GVBIbhGM,2020-0188,2021-10-04,19:42:56,20:56:45,NA,incomplete,false,NA,true,1,16,NA,NA,left,NA,NA,n_s_017.jpg,o_s_020.jpg,between-big,NA,NaN,NA,left,1878.5,1,2,894.3999999761581
GVBIbhGM,NA,NA,GVBIbhGM,2020-0188,2021-10-04,19:42:56,20:56:45,NA,incomplete,false,NA,true,1,17,NA,NA,left,NA,NA,a_1_007.jpg,c_2_022.jpg,within,NA,NaN,NA,left,3405.5,1,0,874.6999999880791
GVBIbhGM,NA,NA,GVBIbhGM,2020-0188,2021-10-04,19:42:56,20:56:45,NA,incomplete,false,NA,true,1,18,NA,NA,right,NA,NA,c_2_027.jpg,c_1_023.jpg,within,NA,NaN,NA,left,2570.199999988079,0,1,1294
GVBIbhGM,NA,NA,GVBIbhGM,2020-0188,2021-10-04,19:42:56,20:56:45,NA,incomplete,false,NA,true,1,19,NA,NA,left,NA,NA,n_s_025.jpg,o_c_013.jpg,between-big,NA,NaN,NA,left,1786.199999988079,1,1,1995.3999999761581
GVBIbhGM,NA,NA,GVBIbhGM,2020-0188,2021-10-04,19:42:56,20:56:45,NA,incomplete,false,NA,true,1,20,NA,NA,right,NA,NA,o_c_018.jpg,o_c_026.jpg,within,NA,NaN,NA,left,5325.699999988079,0,0,1062.5999999642372
GVBIbhGM,NA,NA,GVBIbhGM,2020-0188,2021-10-04,19:42:56,20:56:45,NA,incomplete,false,NA,true,1,21,NA,NA,left,NA,NA,c_2_027.jpg,c_1_016.jpg,between-small,NA,NaN,NA,right,4677.100000023842,0,0,898.8999999761581
GVBIbhGM,NA,NA,GVBIbhGM,2020-0188,2021-10-04,19:42:56,20:56:45,NA,incomplete,false,NA,true,1,22,NA,NA,right,NA,NA,o_c_009.jpg,o_s_020.jpg,within,NA,NaN,NA,left,4095.399999976158,0,1,1260.800000011921
GVBIbhGM,NA,NA,GVBIbhGM,2020-0188,2021-10-04,19:42:56,20:56:45,NA,incomplete,false,NA,true,1,23,NA,NA,left,NA,NA,o_c_008.jpg,a_2_006.jpg,between-big,NA,NaN,NA,left,1945,1,2,3011.7999999523163
GVBIbhGM,NA,NA,GVBIbhGM,2020-0188,2021-10-04,19:42:56,20:56:45,NA,incomplete,false,NA,true,1,24,NA,NA,right,NA,NA,a_1_007.jpg,a_2_012.jpg,between-small,NA,NaN,NA,right,2313.099999964237,1,1,1346.7000000476837
GVBIbhGM,NA,NA,GVBIbhGM,2020-0188,2021-10-04,19:42:56,20:56:45,NA,incomplete,false,NA,true,1,25,NA,NA,right,NA,NA,n_l_026.jpg,m_s_023.jpg,within,NA,NaN,NA,right,4580.699999988079,1,0,1837.699999988079
GVBIbhGM,NA,NA,GVBIbhGM,2020-0188,2021-10-04,19:42:56,20:56:45,NA,incomplete,false,NA,true,1,26,NA,NA,left,NA,NA,i_s_013.jpg,o_s_016.jpg,between-small,NA,NaN,NA,left,3325.899999976158,1,1,1455.800000011921
GVBIbhGM,NA,NA,GVBIbhGM,2020-0188,2021-10-04,19:42:56,20:56:45,NA,incomplete,false,true,NA,2,0,size,n_l_025.jpg,right,small,large,NA,NA,NA,right,1677.90000003576,true,NA,NA,NA,NA,NA
GVBIbhGM,NA,NA,GVBIbhGM,2020-0188,2021-10-04,19:42:56,20:56:45,NA,incomplete,false,true,NA,2,1,size,m_s_020.jpg,left,small,large,NA,NA,NA,left,1644,true,NA,NA,NA,NA,NA
GVBIbhGM,NA,NA,GVBIbhGM,2020-0188,2021-10-04,19:42:56,20:56:45,NA,incomplete,false,true,NA,2,2,size,n_l_003.jpg,right,small,large,NA,NA,NA,left,2001.5,false,NA,NA,NA,NA,NA
GVBIbhGM,NA,NA,GVBIbhGM,2020-0188,2021-10-04,19:42:56,20:56:45,NA,incomplete,false,true,NA,2,3,size,n_l_012.jpg,left,large,small,NA,NA,NA,right,2023.90000003576,false,NA,NA,NA,NA,NA
GVBIbhGM,NA,NA,GVBIbhGM,2020-0188,2021-10-04,19:42:56,20:56:45,NA,incomplete,false,true,NA,2,4,size,n_s_024.jpg,right,large,small,NA,NA,NA,right,1718.10000002384,true,NA,NA,NA,NA,NA
GVBIbhGM,NA,NA,GVBIbhGM,2020-0188,2021-10-04,19:42:56,20:56:45,NA,incomplete,false,true,NA,2,5,origin,m_s_004.jpg,right,natural,manmade,NA,NA,NA,right,1426.89999997616,true,NA,NA,NA,NA,NA
GVBIbhGM,NA,NA,GVBIbhGM,2020-0188,2021-10-04,19:42:56,20:56:45,NA,incomplete,false,true,NA,2,6,origin,m_s_016.jpg,left,manmade,natural,NA,NA,NA,left,1084.69999998808,true,NA,NA,NA,NA,NA
GVBIbhGM,NA,NA,GVBIbhGM,2020-0188,2021-10-04,19:42:56,20:56:45,NA,incomplete,false,true,NA,2,7,origin,m_l_010.jpg,left,manmade,natural,NA,NA,NA,left,1879.60000002384,true,NA,NA,NA,NA,NA
GVBIbhGM,NA,NA,GVBIbhGM,2020-0188,2021-10-04,19:42:56,20:56:45,NA,incomplete,false,true,NA,2,8,origin,n_l_002.jpg,right,manmade,natural,NA,NA,NA,right,1268.90000003576,true,NA,NA,NA,NA,NA
GVBIbhGM,NA,NA,GVBIbhGM,2020-0188,2021-10-04,19:42:56,20:56:45,NA,incomplete,false,true,NA,2,9,origin,m_s_024.jpg,right,natural,manmade,NA,NA,NA,right,1404.39999997616,true,NA,NA,NA,NA,NA
GVBIbhGM,NA,NA,GVBIbhGM,2020-0188,2021-10-04,19:42:56,20:56:45,NA,incomplete,false,true,NA,2,10,syllable,a_1_012.jpg,right,1 syllable,2 syllables,NA,NA,NA,left,2081.40000003576,false,NA,NA,NA,NA,NA
GVBIbhGM,NA,NA,GVBIbhGM,2020-0188,2021-10-04,19:42:56,20:56:45,NA,incomplete,false,true,NA,2,11,syllable,a_2_014.jpg,right,1 syllable,2 syllables,NA,NA,NA,right,1022.39999997616,true,NA,NA,NA,NA,NA
GVBIbhGM,NA,NA,GVBIbhGM,2020-0188,2021-10-04,19:42:56,20:56:45,NA,incomplete,false,true,NA,2,12,syllable,a_1_008.jpg,right,1 syllable,2 syllables,NA,NA,NA,left,1784.69999998808,false,NA,NA,NA,NA,NA
GVBIbhGM,NA,NA,GVBIbhGM,2020-0188,2021-10-04,19:42:56,20:56:45,NA,incomplete,false,true,NA,2,13,syllable,c_1_022.jpg,right,2 syllables,1 syllable,NA,NA,NA,right,1245.20000004768,true,NA,NA,NA,NA,NA
GVBIbhGM,NA,NA,GVBIbhGM,2020-0188,2021-10-04,19:42:56,20:56:45,NA,incomplete,false,true,NA,2,14,syllable,a_1_025.jpg,right,1 syllable,2 syllables,NA,NA,NA,left,805,false,NA,NA,NA,NA,NA
GVBIbhGM,NA,NA,GVBIbhGM,2020-0188,2021-10-04,19:42:56,20:56:45,NA,incomplete,false,true,NA,2,15,abstractness,c_2_005.jpg,left,concrete,abstract,NA,NA,NA,left,1971.30000001192,true,NA,NA,NA,NA,NA
GVBIbhGM,NA,NA,GVBIbhGM,2020-0188,2021-10-04,19:42:56,20:56:45,NA,incomplete,false,true,NA,2,16,abstractness,a_2_004.jpg,left,abstract,concrete,NA,NA,NA,left,2375.09999996424,true,NA,NA,NA,NA,NA
GVBIbhGM,NA,NA,GVBIbhGM,2020-0188,2021-10-04,19:42:56,20:56:45,NA,incomplete,false,true,NA,2,17,abstractness,a_1_021.jpg,right,concrete,abstract,NA,NA,NA,right,2280.20000004768,true,NA,NA,NA,NA,NA
GVBIbhGM,NA,NA,GVBIbhGM,2020-0188,2021-10-04,19:42:56,20:56:45,NA,incomplete,false,true,NA,2,18,abstractness,c_2_002.jpg,left,concrete,abstract,NA,NA,NA,left,2192.90000003576,true,NA,NA,NA,NA,NA
GVBIbhGM,NA,NA,GVBIbhGM,2020-0188,2021-10-04,19:42:56,20:56:45,NA,incomplete,false,true,NA,2,19,abstractness,c_2_023.jpg,right,abstract,concrete,NA,NA,NA,right,1482.30000001192,true,NA,NA,NA,NA,NA
GVBIbhGM,NA,NA,GVBIbhGM,2020-0188,2021-10-04,19:42:56,20:56:45,NA,incomplete,false,true,NA,2,20,location,o_c_023.jpg,left,outdoor,indoor,NA,NA,NA,left,1267.19999998808,true,NA,NA,NA,NA,NA
GVBIbhGM,NA,NA,GVBIbhGM,2020-0188,2021-10-04,19:42:56,20:56:45,NA,incomplete,false,true,NA,2,21,location,i_s_021.jpg,right,outdoor,indoor,NA,NA,NA,right,1483.39999997616,true,NA,NA,NA,NA,NA
GVBIbhGM,NA,NA,GVBIbhGM,2020-0188,2021-10-04,19:42:56,20:56:45,NA,incomplete,false,true,NA,2,22,location,i_s_015.jpg,right,outdoor,indoor,NA,NA,NA,right,1698,true,NA,NA,NA,NA,NA
GVBIbhGM,NA,NA,GVBIbhGM,2020-0188,2021-10-04,19:42:56,20:56:45,NA,incomplete,false,true,NA,2,23,location,i_s_001.jpg,right,outdoor,indoor,NA,NA,NA,right,1200,true,NA,NA,NA,NA,NA
GVBIbhGM,NA,NA,GVBIbhGM,2020-0188,2021-10-04,19:42:56,20:56:45,NA,incomplete,false,true,NA,2,24,location,i_c_019.jpg,right,outdoor,indoor,NA,NA,NA,right,1108.5,true,NA,NA,NA,NA,NA
GVBIbhGM,NA,NA,GVBIbhGM,2020-0188,2021-10-04,19:42:56,20:56:45,NA,incomplete,false,true,NA,2,25,building,i_c_009.jpg,left,cottage,skyscraper,NA,NA,NA,left,1199.79999995232,true,NA,NA,NA,NA,NA
GVBIbhGM,NA,NA,GVBIbhGM,2020-0188,2021-10-04,19:42:56,20:56:45,NA,incomplete,false,true,NA,2,26,building,o_s_022.jpg,right,cottage,skyscraper,NA,NA,NA,right,1148.80000001192,true,NA,NA,NA,NA,NA
GVBIbhGM,NA,NA,GVBIbhGM,2020-0188,2021-10-04,19:42:56,20:56:45,NA,incomplete,false,true,NA,2,27,building,i_c_005.jpg,left,cottage,skyscraper,NA,NA,NA,left,1931.80000001192,true,NA,NA,NA,NA,NA
GVBIbhGM,NA,NA,GVBIbhGM,2020-0188,2021-10-04,19:42:56,20:56:45,NA,incomplete,false,true,NA,2,28,building,i_s_026.jpg,left,skyscraper,cottage,NA,NA,NA,left,1574.80000001192,true,NA,NA,NA,NA,NA
GVBIbhGM,NA,NA,GVBIbhGM,2020-0188,2021-10-04,19:42:56,20:56:45,NA,incomplete,false,true,NA,2,29,building,o_c_028.jpg,left,cottage,skyscraper,NA,NA,NA,left,1150.70000004768,true,NA,NA,NA,NA,NA
GVBIbhGM,NA,NA,GVBIbhGM,2020-0188,2021-10-04,19:42:56,20:56:45,NA,incomplete,false,NA,true,2,0,NA,NA,right,NA,NA,c_1_022.jpg,a_1_012.jpg,within,NA,NaN,NA,right,3858.300000011921,1,0,1499.5
GVBIbhGM,NA,NA,GVBIbhGM,2020-0188,2021-10-04,19:42:56,20:56:45,NA,incomplete,false,NA,true,2,1,NA,NA,left,NA,NA,i_c_009.jpg,i_s_026.jpg,within,NA,NaN,NA,left,8922.199999988079,1,1,1534.2000000476837
GVBIbhGM,NA,NA,GVBIbhGM,2020-0188,2021-10-04,19:42:56,20:56:45,NA,incomplete,false,NA,true,2,2,NA,NA,right,NA,NA,m_s_004.jpg,n_l_003.jpg,between-small,NA,NaN,NA,right,4661,1,1,935.2000000476837
GVBIbhGM,NA,NA,GVBIbhGM,2020-0188,2021-10-04,19:42:56,20:56:45,NA,incomplete,false,NA,true,2,3,NA,NA,right,NA,NA,c_2_023.jpg,a_2_004.jpg,within,NA,NaN,NA,left,5441.600000023842,0,1,1205.5
GVBIbhGM,NA,NA,GVBIbhGM,2020-0188,2021-10-04,19:42:56,20:56:45,NA,incomplete,false,NA,true,2,4,NA,NA,left,NA,NA,a_1_008.jpg,c_2_005.jpg,between-small,NA,NaN,NA,left,3208.699999988079,1,0,1313.5999999642372
GVBIbhGM,NA,NA,GVBIbhGM,2020-0188,2021-10-04,19:42:56,20:56:45,NA,incomplete,false,NA,true,2,5,NA,NA,right,NA,NA,m_l_010.jpg,n_s_024.jpg,between-small,NA,NaN,NA,right,4778.5,1,1,1080.2000000476837
GVBIbhGM,NA,NA,GVBIbhGM,2020-0188,2021-10-04,19:42:56,20:56:45,NA,incomplete,false,NA,true,2,6,NA,NA,left,NA,NA,n_l_002.jpg,a_2_014.jpg,between-big,NA,NaN,NA,right,2966,0,2,1468.5
GVBIbhGM,NA,NA,GVBIbhGM,2020-0188,2021-10-04,19:42:56,20:56:45,NA,incomplete,false,NA,true,2,7,NA,NA,right,NA,NA,n_l_012.jpg,n_l_025.jpg,within,NA,NaN,NA,right,3503.300000011921,1,0,1531.3999999761581
GVBIbhGM,NA,NA,GVBIbhGM,2020-0188,2021-10-04,19:42:56,20:56:45,NA,incomplete,false,NA,true,2,8,NA,NA,right,NA,NA,a_2_004.jpg,c_1_022.jpg,between-small,NA,NaN,NA,right,4813.199999988079,1,1,982.2000000476837
GVBIbhGM,NA,NA,GVBIbhGM,2020-0188,2021-10-04,19:42:56,20:56:45,NA,incomplete,false,NA,true,2,9,NA,NA,left,NA,NA,m_s_024.jpg,a_1_008.jpg,between-big,NA,NaN,NA,left,2715.899999976158,1,1,952.1999999880791
GVBIbhGM,NA,NA,GVBIbhGM,2020-0188,2021-10-04,19:42:56,20:56:45,NA,incomplete,false,NA,true,2,10,NA,NA,left,NA,NA,m_s_004.jpg,n_l_002.jpg,within,NA,NaN,NA,left,3604.900000035763,1,0,1624.3999999761581
GVBIbhGM,NA,NA,GVBIbhGM,2020-0188,2021-10-04,19:42:56,20:56:45,NA,incomplete,false,NA,true,2,11,NA,NA,left,NA,NA,c_2_005.jpg,c_2_002.jpg,within,NA,NaN,NA,left,3579.300000011921,1,1,1485.1000000238419
GVBIbhGM,NA,NA,GVBIbhGM,2020-0188,2021-10-04,19:42:56,20:56:45,NA,incomplete,false,NA,true,2,12,NA,NA,right,NA,NA,i_c_005.jpg,i_c_019.jpg,between-small,NA,NaN,NA,right,2765.800000011921,1,1,1314.0999999642372
GVBIbhGM,NA,NA,GVBIbhGM,2020-0188,2021-10-04,19:42:56,20:56:45,NA,incomplete,false,NA,true,2,13,NA,NA,left,NA,NA,m_s_020.jpg,n_s_024.jpg,within,NA,NaN,NA,left,2748.699999988079,1,0,1025.199999988079
GVBIbhGM,NA,NA,GVBIbhGM,2020-0188,2021-10-04,19:42:56,20:56:45,NA,incomplete,false,NA,true,2,14,NA,NA,left,NA,NA,c_2_023.jpg,i_s_015.jpg,between-big,NA,NaN,NA,left,7579.199999988079,1,1,1024.9000000357628
GVBIbhGM,NA,NA,GVBIbhGM,2020-0188,2021-10-04,19:42:56,20:56:45,NA,incomplete,false,NA,true,2,15,NA,NA,left,NA,NA,i_s_021.jpg,i_c_019.jpg,within,NA,NaN,NA,right,7479.199999988079,0,0,1048.8999999761581
GVBIbhGM,NA,NA,GVBIbhGM,2020-0188,2021-10-04,19:42:56,20:56:45,NA,incomplete,false,NA,true,2,16,NA,NA,right,NA,NA,m_s_016.jpg,n_l_012.jpg,between-small,NA,NaN,NA,right,2116.800000011921,1,1,949.4000000357628
GVBIbhGM,NA,NA,GVBIbhGM,2020-0188,2021-10-04,19:42:56,20:56:45,NA,incomplete,false,NA,true,2,17,NA,NA,left,NA,NA,a_1_025.jpg,a_1_021.jpg,between-small,NA,NaN,NA,left,7324.400000035763,1,1,2249.5
GVBIbhGM,NA,NA,GVBIbhGM,2020-0188,2021-10-04,19:42:56,20:56:45,NA,incomplete,false,NA,true,2,18,NA,NA,right,NA,NA,o_c_023.jpg,a_1_021.jpg,between-big,NA,NaN,NA,left,3152.399999976158,0,1,1462.4000000357628
GVBIbhGM,NA,NA,GVBIbhGM,2020-0188,2021-10-04,19:42:56,20:56:45,NA,incomplete,false,NA,true,2,19,NA,NA,right,NA,NA,m_s_024.jpg,m_s_016.jpg,within,NA,NaN,NA,left,10720.300000011921,0,0,1819.6000000238419
GVBIbhGM,NA,NA,GVBIbhGM,2020-0188,2021-10-04,19:42:56,20:56:45,NA,incomplete,false,NA,true,2,20,NA,NA,left,NA,NA,a_2_014.jpg,a_1_025.jpg,within,NA,NaN,NA,right,7740.300000011921,0,0,1253.2000000476837
GVBIbhGM,NA,NA,GVBIbhGM,2020-0188,2021-10-04,19:42:56,20:56:45,NA,incomplete,false,NA,true,2,21,NA,NA,left,NA,NA,i_s_001.jpg,o_s_022.jpg,between-small,NA,NaN,NA,right,7073.600000023842,0,1,1054.800000011921
GVBIbhGM,NA,NA,GVBIbhGM,2020-0188,2021-10-04,19:42:56,20:56:45,NA,incomplete,false,NA,true,2,22,NA,NA,left,NA,NA,o_c_023.jpg,i_s_001.jpg,within,NA,NaN,NA,left,2684.300000011921,1,1,749.7000000476837
GVBIbhGM,NA,NA,GVBIbhGM,2020-0188,2021-10-04,19:42:56,20:56:45,NA,incomplete,false,NA,true,2,23,NA,NA,right,NA,NA,a_1_012.jpg,m_l_010.jpg,between-big,NA,NaN,NA,right,1841.1000000238419,1,1,2185.899999976158
GVBIbhGM,NA,NA,GVBIbhGM,2020-0188,2021-10-04,19:42:56,20:56:45,NA,incomplete,false,NA,true,2,24,NA,NA,right,NA,NA,o_c_028.jpg,o_s_022.jpg,within,NA,NaN,NA,right,2675.5,1,1,2845.699999988079
GVBIbhGM,NA,NA,GVBIbhGM,2020-0188,2021-10-04,19:42:56,20:56:45,NA,incomplete,false,NA,true,2,25,NA,NA,left,NA,NA,i_s_015.jpg,i_c_009.jpg,between-small,NA,NaN,NA,left,2421.399999976158,1,0,2051.2000000476837
GVBIbhGM,NA,NA,GVBIbhGM,2020-0188,2021-10-04,19:42:56,20:56:45,NA,incomplete,false,NA,true,2,26,NA,NA,right,NA,NA,i_s_021.jpg,c_2_002.jpg,between-big,NA,NaN,NA,right,3423.5,1,1,1325.2000000476837
GVBIbhGM,NA,NA,GVBIbhGM,2020-0188,2021-10-04,19:42:56,20:56:45,NA,incomplete,false,true,NA,3,0,abstractness,c_2_026.jpg,right,abstract,concrete,NA,NA,NA,right,2088.89999997616,true,NA,NA,NA,NA,NA
GVBIbhGM,NA,NA,GVBIbhGM,2020-0188,2021-10-04,19:42:56,20:56:45,NA,incomplete,false,true,NA,3,1,abstractness,a_1_024.jpg,right,concrete,abstract,NA,NA,NA,right,2667,true,NA,NA,NA,NA,NA
GVBIbhGM,NA,NA,GVBIbhGM,2020-0188,2021-10-04,19:42:56,20:56:45,NA,incomplete,false,true,NA,3,2,abstractness,a_2_011.jpg,left,abstract,concrete,NA,NA,NA,left,1416.5,true,NA,NA,NA,NA,NA
GVBIbhGM,NA,NA,GVBIbhGM,2020-0188,2021-10-04,19:42:56,20:56:45,NA,incomplete,false,true,NA,3,3,abstractness,a_1_011.jpg,left,abstract,concrete,NA,NA,NA,right,1894.39999997616,false,NA,NA,NA,NA,NA
GVBIbhGM,NA,NA,GVBIbhGM,2020-0188,2021-10-04,19:42:56,20:56:45,NA,incomplete,false,true,NA,3,4,abstractness,a_2_003.jpg,right,concrete,abstract,NA,NA,NA,right,1717.5,true,NA,NA,NA,NA,NA
GVBIbhGM,NA,NA,GVBIbhGM,2020-0188,2021-10-04,19:42:56,20:56:45,NA,incomplete,false,true,NA,3,5,syllable,a_2_013.jpg,right,1 syllable,2 syllables,NA,NA,NA,right,1725.89999997616,true,NA,NA,NA,NA,NA
GVBIbhGM,NA,NA,GVBIbhGM,2020-0188,2021-10-04,19:42:56,20:56:45,NA,incomplete,false,true,NA,3,6,syllable,c_2_003.jpg,right,2 syllables,1 syllable,NA,NA,NA,left,1010.30000001192,false,NA,NA,NA,NA,NA
GVBIbhGM,NA,NA,GVBIbhGM,2020-0188,2021-10-04,19:42:56,20:56:45,NA,incomplete,false,true,NA,3,7,syllable,c_2_012.jpg,right,2 syllables,1 syllable,NA,NA,NA,left,921.399999976158,false,NA,NA,NA,NA,NA
GVBIbhGM,NA,NA,GVBIbhGM,2020-0188,2021-10-04,19:42:56,20:56:45,NA,incomplete,false,true,NA,3,8,syllable,a_2_007.jpg,right,1 syllable,2 syllables,NA,NA,NA,right,1032.10000002384,true,NA,NA,NA,NA,NA
GVBIbhGM,NA,NA,GVBIbhGM,2020-0188,2021-10-04,19:42:56,20:56:45,NA,incomplete,false,true,NA,3,9,syllable,a_1_013.jpg,right,2 syllables,1 syllable,NA,NA,NA,right,1245.60000002384,true,NA,NA,NA,NA,NA
GVBIbhGM,NA,NA,GVBIbhGM,2020-0188,2021-10-04,19:42:56,20:56:45,NA,incomplete,false,true,NA,3,10,building,i_s_014.jpg,right,cottage,skyscraper,NA,NA,NA,right,1715.19999998808,true,NA,NA,NA,NA,NA
GVBIbhGM,NA,NA,GVBIbhGM,2020-0188,2021-10-04,19:42:56,20:56:45,NA,incomplete,false,true,NA,3,11,building,o_c_004.jpg,right,skyscraper,cottage,NA,NA,NA,right,2163,true,NA,NA,NA,NA,NA
GVBIbhGM,NA,NA,GVBIbhGM,2020-0188,2021-10-04,19:42:56,20:56:45,NA,incomplete,false,true,NA,3,12,building,o_c_024.jpg,left,cottage,skyscraper,NA,NA,NA,left,1755,true,NA,NA,NA,NA,NA
GVBIbhGM,NA,NA,GVBIbhGM,2020-0188,2021-10-04,19:42:56,20:56:45,NA,incomplete,false,true,NA,3,13,building,i_s_005.jpg,left,skyscraper,cottage,NA,NA,NA,left,1919.19999998808,true,NA,NA,NA,NA,NA
GVBIbhGM,NA,NA,GVBIbhGM,2020-0188,2021-10-04,19:42:56,20:56:45,NA,incomplete,false,true,NA,3,14,building,o_s_005.jpg,right,cottage,skyscraper,NA,NA,NA,right,1312.09999996424,true,NA,NA,NA,NA,NA
GVBIbhGM,NA,NA,GVBIbhGM,2020-0188,2021-10-04,19:42:56,20:56:45,NA,incomplete,false,true,NA,3,15,location,o_s_015.jpg,left,outdoor,indoor,NA,NA,NA,left,1946.69999998808,true,NA,NA,NA,NA,NA
GVBIbhGM,NA,NA,GVBIbhGM,2020-0188,2021-10-04,19:42:56,20:56:45,NA,incomplete,false,true,NA,3,16,location,o_s_024.jpg,right,indoor,outdoor,NA,NA,NA,right,2037.80000001192,true,NA,NA,NA,NA,NA
GVBIbhGM,NA,NA,GVBIbhGM,2020-0188,2021-10-04,19:42:56,20:56:45,NA,incomplete,false,true,NA,3,17,location,o_c_022.jpg,right,indoor,outdoor,NA,NA,NA,right,2246.5,true,NA,NA,NA,NA,NA
GVBIbhGM,NA,NA,GVBIbhGM,2020-0188,2021-10-04,19:42:56,20:56:45,NA,incomplete,false,true,NA,3,18,location,o_s_026.jpg,left,outdoor,indoor,NA,NA,NA,left,2163.59999996424,true,NA,NA,NA,NA,NA
GVBIbhGM,NA,NA,GVBIbhGM,2020-0188,2021-10-04,19:42:56,20:56:45,NA,incomplete,false,true,NA,3,19,location,i_c_003.jpg,right,outdoor,indoor,NA,NA,NA,right,1523.60000002384,true,NA,NA,NA,NA,NA
GVBIbhGM,NA,NA,GVBIbhGM,2020-0188,2021-10-04,19:42:56,20:56:45,NA,incomplete,false,true,NA,3,20,origin,n_l_010.jpg,right,manmade,natural,NA,NA,NA,right,1441,true,NA,NA,NA,NA,NA
GVBIbhGM,NA,NA,GVBIbhGM,2020-0188,2021-10-04,19:42:56,20:56:45,NA,incomplete,false,true,NA,3,21,origin,n_s_007.jpg,right,manmade,natural,NA,NA,NA,right,1196,true,NA,NA,NA,NA,NA
GVBIbhGM,NA,NA,GVBIbhGM,2020-0188,2021-10-04,19:42:56,20:56:45,NA,incomplete,false,true,NA,3,22,origin,m_s_017.jpg,right,natural,manmade,NA,NA,NA,right,1494.19999998808,true,NA,NA,NA,NA,NA
GVBIbhGM,NA,NA,GVBIbhGM,2020-0188,2021-10-04,19:42:56,20:56:45,NA,incomplete,false,true,NA,3,23,origin,n_l_011.jpg,left,natural,manmade,NA,NA,NA,left,1257.59999996424,true,NA,NA,NA,NA,NA
GVBIbhGM,NA,NA,GVBIbhGM,2020-0188,2021-10-04,19:42:56,20:56:45,NA,incomplete,false,true,NA,3,24,origin,m_s_028.jpg,right,natural,manmade,NA,NA,NA,right,1189.5,true,NA,NA,NA,NA,NA
GVBIbhGM,NA,NA,GVBIbhGM,2020-0188,2021-10-04,19:42:56,20:56:45,NA,incomplete,false,true,NA,3,25,size,n_l_022.jpg,left,large,small,NA,NA,NA,left,1458.39999997616,true,NA,NA,NA,NA,NA
GVBIbhGM,NA,NA,GVBIbhGM,2020-0188,2021-10-04,19:42:56,20:56:45,NA,incomplete,false,true,NA,3,26,size,n_s_006.jpg,right,large,small,NA,NA,NA,right,1125,true,NA,NA,NA,NA,NA
GVBIbhGM,NA,NA,GVBIbhGM,2020-0188,2021-10-04,19:42:56,20:56:45,NA,incomplete,false,true,NA,3,27,size,n_s_001.jpg,right,large,small,NA,NA,NA,right,1183.09999996424,true,NA,NA,NA,NA,NA
GVBIbhGM,NA,NA,GVBIbhGM,2020-0188,2021-10-04,19:42:56,20:56:45,NA,incomplete,false,true,NA,3,28,size,n_l_023.jpg,left,large,small,NA,NA,NA,left,1011.19999998808,true,NA,NA,NA,NA,NA
GVBIbhGM,NA,NA,GVBIbhGM,2020-0188,2021-10-04,19:42:56,20:56:45,NA,incomplete,false,true,NA,3,29,size,m_l_023.jpg,right,small,large,NA,NA,NA,left,1524.60000002384,false,NA,NA,NA,NA,NA
GVBIbhGM,NA,NA,GVBIbhGM,2020-0188,2021-10-04,19:42:56,20:56:45,NA,incomplete,false,NA,true,3,0,NA,NA,right,NA,NA,n_s_006.jpg,n_l_011.jpg,between-small,NA,NaN,NA,right,9038,1,1,1081.199999988079
GVBIbhGM,NA,NA,GVBIbhGM,2020-0188,2021-10-04,19:42:56,20:56:45,NA,incomplete,false,NA,true,3,1,NA,NA,left,NA,NA,c_2_026.jpg,a_1_011.jpg,within,NA,NaN,NA,left,4497.199999988079,1,0,1876.0999999642372
GVBIbhGM,NA,NA,GVBIbhGM,2020-0188,2021-10-04,19:42:56,20:56:45,NA,incomplete,false,NA,true,3,2,NA,NA,right,NA,NA,o_s_015.jpg,o_c_024.jpg,between-small,NA,NaN,NA,right,11138.699999988079,1,0,993.8000000119209
GVBIbhGM,NA,NA,GVBIbhGM,2020-0188,2021-10-04,19:42:56,20:56:45,NA,incomplete,false,NA,true,3,3,NA,NA,left,NA,NA,a_2_011.jpg,a_2_013.jpg,between-small,NA,NaN,NA,left,2727.100000023842,1,1,1499.9000000357628
GVBIbhGM,NA,NA,GVBIbhGM,2020-0188,2021-10-04,19:42:56,20:56:45,NA,incomplete,false,NA,true,3,4,NA,NA,right,NA,NA,c_2_012.jpg,a_2_003.jpg,between-small,NA,NaN,NA,right,2123.199999988079,1,1,2792
GVBIbhGM,NA,NA,GVBIbhGM,2020-0188,2021-10-04,19:42:56,20:56:45,NA,incomplete,false,NA,true,3,5,NA,NA,right,NA,NA,m_s_017.jpg,i_c_003.jpg,between-big,NA,NaN,NA,left,11531.699999988079,0,2,1544.3999999761581
GVBIbhGM,NA,NA,GVBIbhGM,2020-0188,2021-10-04,19:42:56,20:56:45,NA,incomplete,false,NA,true,3,6,NA,NA,left,NA,NA,a_1_011.jpg,c_2_003.jpg,between-small,NA,NaN,NA,left,2441.699999988079,1,0,2246.2999999523163
GVBIbhGM,NA,NA,GVBIbhGM,2020-0188,2021-10-04,19:42:56,20:56:45,NA,incomplete,false,NA,true,3,7,NA,NA,right,NA,NA,o_s_005.jpg,o_c_004.jpg,within,NA,NaN,NA,left,7756.5,0,1,883.3999999761581
GVBIbhGM,NA,NA,GVBIbhGM,2020-0188,2021-10-04,19:42:56,20:56:45,NA,incomplete,false,NA,true,3,8,NA,NA,right,NA,NA,n_l_022.jpg,m_s_017.jpg,between-small,NA,NaN,NA,left,2354.600000023842,0,0,1389.1000000238419
GVBIbhGM,NA,NA,GVBIbhGM,2020-0188,2021-10-04,19:42:56,20:56:45,NA,incomplete,false,NA,true,3,9,NA,NA,right,NA,NA,i_s_005.jpg,i_s_014.jpg,within,NA,NaN,NA,right,6228,1,1,1243.5
GVBIbhGM,NA,NA,GVBIbhGM,2020-0188,2021-10-04,19:42:56,20:56:45,NA,incomplete,false,NA,true,3,10,NA,NA,right,NA,NA,m_s_028.jpg,n_s_007.jpg,within,NA,NaN,NA,right,2928.800000011921,1,1,1010.5
GVBIbhGM,NA,NA,GVBIbhGM,2020-0188,2021-10-04,19:42:56,20:56:45,NA,incomplete,false,NA,true,3,11,NA,NA,right,NA,NA,n_l_010.jpg,o_c_022.jpg,between-big,NA,NaN,NA,left,3101.100000023842,0,1,952.0999999642372
GVBIbhGM,NA,NA,GVBIbhGM,2020-0188,2021-10-04,19:42:56,20:56:45,NA,incomplete,false,NA,true,3,12,NA,NA,right,NA,NA,o_c_024.jpg,a_1_013.jpg,between-big,NA,NaN,NA,right,3176.300000011921,1,2,1602.199999988079
GVBIbhGM,NA,NA,GVBIbhGM,2020-0188,2021-10-04,19:42:56,20:56:45,NA,incomplete,false,NA,true,3,13,NA,NA,right,NA,NA,i_s_014.jpg,c_2_012.jpg,between-big,NA,NaN,NA,right,3315.800000011921,1,2,1284.5
GVBIbhGM,NA,NA,GVBIbhGM,2020-0188,2021-10-04,19:42:56,20:56:45,NA,incomplete,false,NA,true,3,14,NA,NA,right,NA,NA,o_s_026.jpg,o_s_015.jpg,within,NA,NaN,NA,right,5991,1,0,2699.300000011921
GVBIbhGM,NA,NA,GVBIbhGM,2020-0188,2021-10-04,19:42:56,20:56:45,NA,incomplete,false,NA,true,3,15,NA,NA,right,NA,NA,a_1_013.jpg,c_2_003.jpg,within,NA,NaN,NA,right,3517.599999964237,1,1,1288.5
GVBIbhGM,NA,NA,GVBIbhGM,2020-0188,2021-10-04,19:42:56,20:56:45,NA,incomplete,false,NA,true,3,16,NA,NA,right,NA,NA,n_s_001.jpg,m_s_028.jpg,between-small,NA,NaN,NA,left,1879.1000000238419,0,0,1540.5
GVBIbhGM,NA,NA,GVBIbhGM,2020-0188,2021-10-04,19:42:56,20:56:45,NA,incomplete,false,NA,true,3,17,NA,NA,right,NA,NA,m_l_023.jpg,n_s_006.jpg,within,NA,NaN,NA,right,3701.2000000476837,1,0,977.5
GVBIbhGM,NA,NA,GVBIbhGM,2020-0188,2021-10-04,19:42:56,20:56:45,NA,incomplete,false,NA,true,3,18,NA,NA,right,NA,NA,a_2_003.jpg,a_1_024.jpg,within,NA,NaN,NA,left,2317.2000000476837,0,0,1153.199999988079
GVBIbhGM,NA,NA,GVBIbhGM,2020-0188,2021-10-04,19:42:56,20:56:45,NA,incomplete,false,NA,true,3,19,NA,NA,left,NA,NA,i_s_005.jpg,o_s_024.jpg,between-small,NA,NaN,NA,left,6851.599999964237,1,1,828
GVBIbhGM,NA,NA,GVBIbhGM,2020-0188,2021-10-04,19:42:56,20:56:45,NA,incomplete,false,NA,true,3,20,NA,NA,right,NA,NA,n_l_023.jpg,n_l_022.jpg,within,NA,NaN,NA,right,1678.699999988079,1,1,942.5
GVBIbhGM,NA,NA,GVBIbhGM,2020-0188,2021-10-04,19:42:56,20:56:45,NA,incomplete,false,NA,true,3,21,NA,NA,left,NA,NA,n_l_010.jpg,n_l_011.jpg,within,NA,NaN,NA,right,1528.800000011921,0,0,2983.800000011921
GVBIbhGM,NA,NA,GVBIbhGM,2020-0188,2021-10-04,19:42:56,20:56:45,NA,incomplete,false,NA,true,3,22,NA,NA,left,NA,NA,a_2_013.jpg,a_2_007.jpg,within,NA,NaN,NA,left,4106.5,1,1,849.1000000238419
GVBIbhGM,NA,NA,GVBIbhGM,2020-0188,2021-10-04,19:42:56,20:56:45,NA,incomplete,false,NA,true,3,23,NA,NA,right,NA,NA,o_c_022.jpg,o_s_005.jpg,between-small,NA,NaN,NA,left,2405.5,0,0,1139.5
GVBIbhGM,NA,NA,GVBIbhGM,2020-0188,2021-10-04,19:42:56,20:56:45,NA,incomplete,false,NA,true,3,24,NA,NA,right,NA,NA,i_c_003.jpg,o_s_024.jpg,within,NA,NaN,NA,left,6482.5,0,1,1050.699999988079
GVBIbhGM,NA,NA,GVBIbhGM,2020-0188,2021-10-04,19:42:56,20:56:45,NA,incomplete,false,NA,true,3,25,NA,NA,left,NA,NA,a_2_007.jpg,o_c_004.jpg,between-big,NA,NaN,NA,right,2755.600000023842,0,2,1188.0999999642372
GVBIbhGM,NA,NA,GVBIbhGM,2020-0188,2021-10-04,19:42:56,20:56:45,NA,incomplete,false,NA,true,3,26,NA,NA,right,NA,NA,n_s_007.jpg,o_s_026.jpg,between-big,NA,NaN,NA,left,2844.5,0,2,1413
GVBIbhGM,NA,NA,GVBIbhGM,2020-0188,2021-10-04,19:42:56,20:56:45,NA,incomplete,false,true,NA,4,0,location,i_s_022.jpg,right,outdoor,indoor,NA,NA,NA,right,1887.39999997616,true,NA,NA,NA,NA,NA
GVBIbhGM,NA,NA,GVBIbhGM,2020-0188,2021-10-04,19:42:56,20:56:45,NA,incomplete,false,true,NA,4,1,location,i_c_024.jpg,left,indoor,outdoor,NA,NA,NA,left,1263.10000002384,true,NA,NA,NA,NA,NA
GVBIbhGM,NA,NA,GVBIbhGM,2020-0188,2021-10-04,19:42:56,20:56:45,NA,incomplete,false,true,NA,4,2,location,o_s_006.jpg,right,indoor,outdoor,NA,NA,NA,right,1641.29999995232,true,NA,NA,NA,NA,NA
GVBIbhGM,NA,NA,GVBIbhGM,2020-0188,2021-10-04,19:42:56,20:56:45,NA,incomplete,false,true,NA,4,3,location,o_c_016.jpg,left,outdoor,indoor,NA,NA,NA,left,1527.30000001192,true,NA,NA,NA,NA,NA
GVBIbhGM,NA,NA,GVBIbhGM,2020-0188,2021-10-04,19:42:56,20:56:45,NA,incomplete,false,true,NA,4,4,location,o_c_006.jpg,right,indoor,outdoor,NA,NA,NA,right,1046.19999998808,true,NA,NA,NA,NA,NA
GVBIbhGM,NA,NA,GVBIbhGM,2020-0188,2021-10-04,19:42:56,20:56:45,NA,incomplete,false,true,NA,4,5,building,o_s_018.jpg,right,cottage,skyscraper,NA,NA,NA,right,1402.10000002384,true,NA,NA,NA,NA,NA
GVBIbhGM,NA,NA,GVBIbhGM,2020-0188,2021-10-04,19:42:56,20:56:45,NA,incomplete,false,true,NA,4,6,building,o_s_021.jpg,right,cottage,skyscraper,NA,NA,NA,right,2677.30000001192,true,NA,NA,NA,NA,NA
GVBIbhGM,NA,NA,GVBIbhGM,2020-0188,2021-10-04,19:42:56,20:56:45,NA,incomplete,false,true,NA,4,7,building,o_s_012.jpg,right,cottage,skyscraper,NA,NA,NA,right,1505.80000001192,true,NA,NA,NA,NA,NA
GVBIbhGM,NA,NA,GVBIbhGM,2020-0188,2021-10-04,19:42:56,20:56:45,NA,incomplete,false,true,NA,4,8,building,i_s_027.jpg,left,skyscraper,cottage,NA,NA,NA,left,1492.09999996424,true,NA,NA,NA,NA,NA
GVBIbhGM,NA,NA,GVBIbhGM,2020-0188,2021-10-04,19:42:56,20:56:45,NA,incomplete,false,true,NA,4,9,building,i_s_010.jpg,right,cottage,skyscraper,NA,NA,NA,right,1076.5,true,NA,NA,NA,NA,NA
GVBIbhGM,NA,NA,GVBIbhGM,2020-0188,2021-10-04,19:42:56,20:56:45,NA,incomplete,false,true,NA,4,10,syllable,c_2_019.jpg,right,2 syllables,1 syllable,NA,NA,NA,left,1751,false,NA,NA,NA,NA,NA
GVBIbhGM,NA,NA,GVBIbhGM,2020-0188,2021-10-04,19:42:56,20:56:45,NA,incomplete,false,true,NA,4,11,syllable,c_1_011.jpg,right,1 syllable,2 syllables,NA,NA,NA,left,814.799999952316,false,NA,NA,NA,NA,NA
GVBIbhGM,NA,NA,GVBIbhGM,2020-0188,2021-10-04,19:42:56,20:56:45,NA,incomplete,false,true,NA,4,12,syllable,c_2_016.jpg,right,1 syllable,2 syllables,NA,NA,NA,right,1081.5,true,NA,NA,NA,NA,NA
GVBIbhGM,NA,NA,GVBIbhGM,2020-0188,2021-10-04,19:42:56,20:56:45,NA,incomplete,false,true,NA,4,13,syllable,c_1_002.jpg,right,1 syllable,2 syllables,NA,NA,NA,right,1535.10000002384,true,NA,NA,NA,NA,NA
GVBIbhGM,NA,NA,GVBIbhGM,2020-0188,2021-10-04,19:42:56,20:56:45,NA,incomplete,false,true,NA,4,14,syllable,c_2_011.jpg,right,1 syllable,2 syllables,NA,NA,NA,right,944,true,NA,NA,NA,NA,NA
GVBIbhGM,NA,NA,GVBIbhGM,2020-0188,2021-10-04,19:42:56,20:56:45,NA,incomplete,false,true,NA,4,15,abstractness,c_1_012.jpg,right,abstract,concrete,NA,NA,NA,right,1561.5,true,NA,NA,NA,NA,NA
GVBIbhGM,NA,NA,GVBIbhGM,2020-0188,2021-10-04,19:42:56,20:56:45,NA,incomplete,false,true,NA,4,16,abstractness,a_1_020.jpg,right,concrete,abstract,NA,NA,NA,left,2243.09999996424,false,NA,NA,NA,NA,NA
GVBIbhGM,NA,NA,GVBIbhGM,2020-0188,2021-10-04,19:42:56,20:56:45,NA,incomplete,false,true,NA,4,17,abstractness,a_2_026.jpg,left,abstract,concrete,NA,NA,NA,left,1692.60000002384,true,NA,NA,NA,NA,NA
GVBIbhGM,NA,NA,GVBIbhGM,2020-0188,2021-10-04,19:42:56,20:56:45,NA,incomplete,false,true,NA,4,18,abstractness,c_1_007.jpg,left,concrete,abstract,NA,NA,NA,left,2493.39999997616,true,NA,NA,NA,NA,NA
GVBIbhGM,NA,NA,GVBIbhGM,2020-0188,2021-10-04,19:42:56,20:56:45,NA,incomplete,false,true,NA,4,19,abstractness,a_1_001.jpg,left,abstract,concrete,NA,NA,NA,left,2096,true,NA,NA,NA,NA,NA
GVBIbhGM,NA,NA,GVBIbhGM,2020-0188,2021-10-04,19:42:56,20:56:45,NA,incomplete,false,true,NA,4,20,size,n_s_008.jpg,left,small,large,NA,NA,NA,left,2364.09999996424,true,NA,NA,NA,NA,NA
GVBIbhGM,NA,NA,GVBIbhGM,2020-0188,2021-10-04,19:42:56,20:56:45,NA,incomplete,false,true,NA,4,21,size,m_s_021.jpg,left,small,large,NA,NA,NA,left,1401.40000003576,true,NA,NA,NA,NA,NA
GVBIbhGM,NA,NA,GVBIbhGM,2020-0188,2021-10-04,19:42:56,20:56:45,NA,incomplete,false,true,NA,4,22,size,m_l_006.jpg,left,large,small,NA,NA,NA,left,1946.69999998808,true,NA,NA,NA,NA,NA
GVBIbhGM,NA,NA,GVBIbhGM,2020-0188,2021-10-04,19:42:56,20:56:45,NA,incomplete,false,true,NA,4,23,size,m_l_016.jpg,left,large,small,NA,NA,NA,left,924.399999976158,true,NA,NA,NA,NA,NA
GVBIbhGM,NA,NA,GVBIbhGM,2020-0188,2021-10-04,19:42:56,20:56:45,NA,incomplete,false,true,NA,4,24,size,m_l_005.jpg,right,small,large,NA,NA,NA,right,1066.69999998808,true,NA,NA,NA,NA,NA
GVBIbhGM,NA,NA,GVBIbhGM,2020-0188,2021-10-04,19:42:56,20:56:45,NA,incomplete,false,true,NA,4,25,origin,n_l_007.jpg,left,natural,manmade,NA,NA,NA,left,3320.39999997616,true,NA,NA,NA,NA,NA
GVBIbhGM,NA,NA,GVBIbhGM,2020-0188,2021-10-04,19:42:56,20:56:45,NA,incomplete,false,true,NA,4,26,origin,n_s_021.jpg,left,natural,manmade,NA,NA,NA,left,2901.30000001192,true,NA,NA,NA,NA,NA
GVBIbhGM,NA,NA,GVBIbhGM,2020-0188,2021-10-04,19:42:56,20:56:45,NA,incomplete,false,true,NA,4,27,origin,n_s_022.jpg,right,manmade,natural,NA,NA,NA,right,2013.30000001192,true,NA,NA,NA,NA,NA
GVBIbhGM,NA,NA,GVBIbhGM,2020-0188,2021-10-04,19:42:56,20:56:45,NA,incomplete,false,true,NA,4,28,origin,n_s_020.jpg,left,natural,manmade,NA,NA,NA,left,2099.40000003576,true,NA,NA,NA,NA,NA
GVBIbhGM,NA,NA,GVBIbhGM,2020-0188,2021-10-04,19:42:56,20:56:45,NA,incomplete,false,true,NA,4,29,origin,m_l_015.jpg,left,manmade,natural,NA,NA,NA,left,2314.60000002384,true,NA,NA,NA,NA,NA
GVBIbhGM,NA,NA,GVBIbhGM,2020-0188,2021-10-04,19:42:56,20:56:45,NA,incomplete,false,NA,true,4,0,NA,NA,right,NA,NA,a_1_020.jpg,c_1_002.jpg,between-small,NA,NaN,NA,right,5573.700000047684,1,1,1574.300000011921
GVBIbhGM,NA,NA,GVBIbhGM,2020-0188,2021-10-04,19:42:56,20:56:45,NA,incomplete,false,NA,true,4,1,NA,NA,left,NA,NA,o_c_006.jpg,o_s_012.jpg,between-small,NA,NaN,NA,left,8429.699999988079,1,1,1090.1000000238419
GVBIbhGM,NA,NA,GVBIbhGM,2020-0188,2021-10-04,19:42:56,20:56:45,NA,incomplete,false,NA,true,4,2,NA,NA,right,NA,NA,o_s_018.jpg,o_s_006.jpg,between-small,NA,NaN,NA,right,3618.900000035763,1,1,2295.600000023842
GVBIbhGM,NA,NA,GVBIbhGM,2020-0188,2021-10-04,19:42:56,20:56:45,NA,incomplete,false,NA,true,4,3,NA,NA,left,NA,NA,m_l_016.jpg,n_s_021.jpg,between-small,NA,NaN,NA,left,13567.800000011921,1,1,1074.5
GVBIbhGM,NA,NA,GVBIbhGM,2020-0188,2021-10-04,19:42:56,20:56:45,NA,incomplete,false,NA,true,4,4,NA,NA,right,NA,NA,i_s_010.jpg,o_s_021.jpg,within,NA,NaN,NA,right,7471.800000011921,1,0,1047.800000011921
GVBIbhGM,NA,NA,GVBIbhGM,2020-0188,2021-10-04,19:42:56,20:56:45,NA,incomplete,false,NA,true,4,5,NA,NA,left,NA,NA,o_c_016.jpg,o_s_021.jpg,between-small,NA,NaN,NA,right,5285.5,0,0,910.3000000119209
GVBIbhGM,NA,NA,GVBIbhGM,2020-0188,2021-10-04,19:42:56,20:56:45,NA,incomplete,false,NA,true,4,6,NA,NA,right,NA,NA,i_s_027.jpg,o_s_018.jpg,within,NA,NaN,NA,left,7059.399999976158,0,0,1468.5
GVBIbhGM,NA,NA,GVBIbhGM,2020-0188,2021-10-04,19:42:56,20:56:45,NA,incomplete,false,NA,true,4,7,NA,NA,right,NA,NA,n_s_008.jpg,a_2_026.jpg,between-big,NA,NaN,NA,right,5081.699999988079,1,1,762.6999999880791
GVBIbhGM,NA,NA,GVBIbhGM,2020-0188,2021-10-04,19:42:56,20:56:45,NA,incomplete,false,NA,true,4,8,NA,NA,right,NA,NA,m_l_016.jpg,n_s_008.jpg,within,NA,NaN,NA,right,2492.600000023842,1,0,1203.6000000238419
GVBIbhGM,NA,NA,GVBIbhGM,2020-0188,2021-10-04,19:42:56,20:56:45,NA,incomplete,false,NA,true,4,9,NA,NA,left,NA,NA,a_1_020.jpg,a_1_001.jpg,within,NA,NaN,NA,left,2585.900000035763,1,0,951.2000000476837
GVBIbhGM,NA,NA,GVBIbhGM,2020-0188,2021-10-04,19:42:56,20:56:45,NA,incomplete,false,NA,true,4,10,NA,NA,left,NA,NA,c_2_011.jpg,a_2_026.jpg,between-small,NA,NaN,NA,right,2134.5,0,1,2011.7999999523163
GVBIbhGM,NA,NA,GVBIbhGM,2020-0188,2021-10-04,19:42:56,20:56:45,NA,incomplete,false,NA,true,4,11,NA,NA,left,NA,NA,m_l_005.jpg,n_s_022.jpg,between-small,NA,NaN,NA,left,5441.300000011921,1,1,761
GVBIbhGM,NA,NA,GVBIbhGM,2020-0188,2021-10-04,19:42:56,20:56:45,NA,incomplete,false,NA,true,4,12,NA,NA,left,NA,NA,i_s_027.jpg,c_1_011.jpg,between-big,NA,NaN,NA,left,5785.099999964237,1,2,1785.300000011921
GVBIbhGM,NA,NA,GVBIbhGM,2020-0188,2021-10-04,19:42:56,20:56:45,NA,incomplete,false,NA,true,4,13,NA,NA,left,NA,NA,c_1_011.jpg,c_2_011.jpg,within,NA,NaN,NA,right,3069.899999976158,0,1,1107.8999999761581
GVBIbhGM,NA,NA,GVBIbhGM,2020-0188,2021-10-04,19:42:56,20:56:45,NA,incomplete,false,NA,true,4,14,NA,NA,left,NA,NA,o_s_012.jpg,c_2_019.jpg,between-big,NA,NaN,NA,left,2483.5,1,1,1408.800000011921
GVBIbhGM,NA,NA,GVBIbhGM,2020-0188,2021-10-04,19:42:56,20:56:45,NA,incomplete,false,NA,true,4,15,NA,NA,left,NA,NA,a_1_001.jpg,m_l_006.jpg,between-big,NA,NaN,NA,left,2585.5,1,1,982.5
GVBIbhGM,NA,NA,GVBIbhGM,2020-0188,2021-10-04,19:42:56,20:56:45,NA,incomplete,false,NA,true,4,16,NA,NA,left,NA,NA,c_2_019.jpg,c_1_002.jpg,within,NA,NaN,NA,right,3817.5,0,0,696.6999999880791
GVBIbhGM,NA,NA,GVBIbhGM,2020-0188,2021-10-04,19:42:56,20:56:45,NA,incomplete,false,NA,true,4,17,NA,NA,left,NA,NA,i_s_010.jpg,c_2_016.jpg,between-big,NA,NaN,NA,left,1534.3999999761581,1,1,1344.9000000357628
GVBIbhGM,NA,NA,GVBIbhGM,2020-0188,2021-10-04,19:42:56,20:56:45,NA,incomplete,false,NA,true,4,18,NA,NA,left,NA,NA,n_l_007.jpg,n_s_020.jpg,within,NA,NaN,NA,left,5301,1,0,1879.1000000238419
GVBIbhGM,NA,NA,GVBIbhGM,2020-0188,2021-10-04,19:42:56,20:56:45,NA,incomplete,false,NA,true,4,19,NA,NA,left,NA,NA,n_s_021.jpg,m_l_015.jpg,within,NA,NaN,NA,left,5057.200000047684,1,0,1043.300000011921
GVBIbhGM,NA,NA,GVBIbhGM,2020-0188,2021-10-04,19:42:56,20:56:45,NA,incomplete,false,NA,true,4,20,NA,NA,left,NA,NA,i_s_022.jpg,o_c_016.jpg,within,NA,NaN,NA,left,4070.599999964237,1,0,984.8000000119209
GVBIbhGM,NA,NA,GVBIbhGM,2020-0188,2021-10-04,19:42:56,20:56:45,NA,incomplete,false,NA,true,4,21,NA,NA,right,NA,NA,o_c_006.jpg,i_c_024.jpg,within,NA,NaN,NA,right,6017.600000023842,1,1,1261.7999999523163
GVBIbhGM,NA,NA,GVBIbhGM,2020-0188,2021-10-04,19:42:56,20:56:45,NA,incomplete,false,NA,true,4,22,NA,NA,left,NA,NA,c_2_016.jpg,c_1_012.jpg,between-small,NA,NaN,NA,right,2454.699999988079,0,2,3070
GVBIbhGM,NA,NA,GVBIbhGM,2020-0188,2021-10-04,19:42:56,20:56:45,NA,incomplete,false,NA,true,4,23,NA,NA,right,NA,NA,m_s_021.jpg,c_1_007.jpg,between-big,NA,NaN,NA,right,1747.3999999761581,1,1,949.3000000119209
GVBIbhGM,NA,NA,GVBIbhGM,2020-0188,2021-10-04,19:42:56,20:56:45,NA,incomplete,false,NA,true,4,24,NA,NA,left,NA,NA,m_l_006.jpg,n_l_007.jpg,between-small,NA,NaN,NA,right,2300.399999976158,0,1,1357.800000011921
GVBIbhGM,NA,NA,GVBIbhGM,2020-0188,2021-10-04,19:42:56,20:56:45,NA,incomplete,false,NA,true,4,25,NA,NA,right,NA,NA,c_1_007.jpg,c_1_012.jpg,within,NA,NaN,NA,right,1567.300000011921,1,1,1673.3999999761581
GVBIbhGM,NA,NA,GVBIbhGM,2020-0188,2021-10-04,19:42:56,20:56:45,NA,incomplete,false,NA,true,4,26,NA,NA,left,NA,NA,m_s_021.jpg,m_l_005.jpg,within,NA,NaN,NA,right,1398,0,1,2251.099999964237
GVBIbhGM,NA,NA,GVBIbhGM,2020-0188,2021-10-04,19:42:56,20:56:45,NA,incomplete,false,true,NA,5,0,size,m_s_011.jpg,right,large,small,NA,NA,NA,right,1311.10000002384,true,NA,NA,NA,NA,NA
GVBIbhGM,NA,NA,GVBIbhGM,2020-0188,2021-10-04,19:42:56,20:56:45,NA,incomplete,false,true,NA,5,1,size,m_l_003.jpg,left,large,small,NA,NA,NA,right,1281,false,NA,NA,NA,NA,NA
GVBIbhGM,NA,NA,GVBIbhGM,2020-0188,2021-10-04,19:42:56,20:56:45,NA,incomplete,false,true,NA,5,2,size,n_s_003.jpg,left,small,large,NA,NA,NA,left,1099.5,true,NA,NA,NA,NA,NA
GVBIbhGM,NA,NA,GVBIbhGM,2020-0188,2021-10-04,19:42:56,20:56:45,NA,incomplete,false,true,NA,5,3,size,m_l_021.jpg,right,small,large,NA,NA,NA,left,1241.80000001192,false,NA,NA,NA,NA,NA
GVBIbhGM,NA,NA,GVBIbhGM,2020-0188,2021-10-04,19:42:56,20:56:45,NA,incomplete,false,true,NA,5,4,size,m_s_012.jpg,right,large,small,NA,NA,NA,right,1574.30000001192,true,NA,NA,NA,NA,NA
GVBIbhGM,NA,NA,GVBIbhGM,2020-0188,2021-10-04,19:42:56,20:56:45,NA,incomplete,false,true,NA,5,5,origin,m_l_012.jpg,left,manmade,natural,NA,NA,NA,left,2453.69999998808,true,NA,NA,NA,NA,NA
GVBIbhGM,NA,NA,GVBIbhGM,2020-0188,2021-10-04,19:42:56,20:56:45,NA,incomplete,false,true,NA,5,6,origin,n_s_019.jpg,right,manmade,natural,NA,NA,NA,right,3249.30000001192,true,NA,NA,NA,NA,NA
GVBIbhGM,NA,NA,GVBIbhGM,2020-0188,2021-10-04,19:42:56,20:56:45,NA,incomplete,false,true,NA,5,7,origin,m_s_026.jpg,left,manmade,natural,NA,NA,NA,left,828.399999976158,true,NA,NA,NA,NA,NA
GVBIbhGM,NA,NA,GVBIbhGM,2020-0188,2021-10-04,19:42:56,20:56:45,NA,incomplete,false,true,NA,5,8,origin,m_l_020.jpg,left,manmade,natural,NA,NA,NA,left,3076.19999998808,true,NA,NA,NA,NA,NA
GVBIbhGM,NA,NA,GVBIbhGM,2020-0188,2021-10-04,19:42:56,20:56:45,NA,incomplete,false,true,NA,5,9,origin,n_l_019.jpg,left,natural,manmade,NA,NA,NA,left,1498.80000001192,true,NA,NA,NA,NA,NA
GVBIbhGM,NA,NA,GVBIbhGM,2020-0188,2021-10-04,19:42:56,20:56:45,NA,incomplete,false,true,NA,5,10,location,o_c_021.jpg,left,outdoor,indoor,NA,NA,NA,left,1625.40000003576,true,NA,NA,NA,NA,NA
GVBIbhGM,NA,NA,GVBIbhGM,2020-0188,2021-10-04,19:42:56,20:56:45,NA,incomplete,false,true,NA,5,11,location,o_c_014.jpg,right,indoor,outdoor,NA,NA,NA,right,1476,true,NA,NA,NA,NA,NA
GVBIbhGM,NA,NA,GVBIbhGM,2020-0188,2021-10-04,19:42:56,20:56:45,NA,incomplete,false,true,NA,5,12,location,i_c_015.jpg,left,indoor,outdoor,NA,NA,NA,left,1281.30000001192,true,NA,NA,NA,NA,NA
GVBIbhGM,NA,NA,GVBIbhGM,2020-0188,2021-10-04,19:42:56,20:56:45,NA,incomplete,false,true,NA,5,13,location,i_c_023.jpg,right,outdoor,indoor,NA,NA,NA,right,1427.80000001192,true,NA,NA,NA,NA,NA
GVBIbhGM,NA,NA,GVBIbhGM,2020-0188,2021-10-04,19:42:56,20:56:45,NA,incomplete,false,true,NA,5,14,location,i_s_025.jpg,right,outdoor,indoor,NA,NA,NA,right,1207.89999997616,true,NA,NA,NA,NA,NA
GVBIbhGM,NA,NA,GVBIbhGM,2020-0188,2021-10-04,19:42:56,20:56:45,NA,incomplete,false,true,NA,5,15,building,o_s_017.jpg,left,skyscraper,cottage,NA,NA,NA,left,2313.30000001192,true,NA,NA,NA,NA,NA
GVBIbhGM,NA,NA,GVBIbhGM,2020-0188,2021-10-04,19:42:56,20:56:45,NA,incomplete,false,true,NA,5,16,building,o_s_008.jpg,right,cottage,skyscraper,NA,NA,NA,right,1780.89999997616,true,NA,NA,NA,NA,NA
GVBIbhGM,NA,NA,GVBIbhGM,2020-0188,2021-10-04,19:42:56,20:56:45,NA,incomplete,false,true,NA,5,17,building,o_s_001.jpg,right,cottage,skyscraper,NA,NA,NA,right,1079.30000001192,true,NA,NA,NA,NA,NA
GVBIbhGM,NA,NA,GVBIbhGM,2020-0188,2021-10-04,19:42:56,20:56:45,NA,incomplete,false,true,NA,5,18,building,i_c_012.jpg,right,skyscraper,cottage,NA,NA,NA,left,1832.5,false,NA,NA,NA,NA,NA
GVBIbhGM,NA,NA,GVBIbhGM,2020-0188,2021-10-04,19:42:56,20:56:45,NA,incomplete,false,true,NA,5,19,building,i_s_016.jpg,left,skyscraper,cottage,NA,NA,NA,left,2832.69999998808,true,NA,NA,NA,NA,NA
GVBIbhGM,NA,NA,GVBIbhGM,2020-0188,2021-10-04,19:42:56,20:56:45,NA,incomplete,false,true,NA,5,20,syllable,c_1_014.jpg,right,2 syllables,1 syllable,NA,NA,NA,right,1738.5,true,NA,NA,NA,NA,NA
GVBIbhGM,NA,NA,GVBIbhGM,2020-0188,2021-10-04,19:42:56,20:56:45,NA,incomplete,false,true,NA,5,21,syllable,c_1_020.jpg,right,2 syllables,1 syllable,NA,NA,NA,right,1028.20000004768,true,NA,NA,NA,NA,NA
GVBIbhGM,NA,NA,GVBIbhGM,2020-0188,2021-10-04,19:42:56,20:56:45,NA,incomplete,false,true,NA,5,22,syllable,a_2_027.jpg,right,2 syllables,1 syllable,NA,NA,NA,left,1146.5,false,NA,NA,NA,NA,NA
GVBIbhGM,NA,NA,GVBIbhGM,2020-0188,2021-10-04,19:42:56,20:56:45,NA,incomplete,false,true,NA,5,23,syllable,a_1_014.jpg,right,2 syllables,1 syllable,NA,NA,NA,right,1169.29999995232,true,NA,NA,NA,NA,NA
GVBIbhGM,NA,NA,GVBIbhGM,2020-0188,2021-10-04,19:42:56,20:56:45,NA,incomplete,false,true,NA,5,24,syllable,a_1_027.jpg,right,2 syllables,1 syllable,NA,NA,NA,right,886.300000011921,true,NA,NA,NA,NA,NA
GVBIbhGM,NA,NA,GVBIbhGM,2020-0188,2021-10-04,19:42:56,20:56:45,NA,incomplete,false,true,NA,5,25,abstractness,c_1_017.jpg,right,abstract,concrete,NA,NA,NA,right,1749.80000001192,true,NA,NA,NA,NA,NA
GVBIbhGM,NA,NA,GVBIbhGM,2020-0188,2021-10-04,19:42:56,20:56:45,NA,incomplete,false,true,NA,5,26,abstractness,c_2_010.jpg,right,abstract,concrete,NA,NA,NA,right,1677.70000004768,true,NA,NA,NA,NA,NA
GVBIbhGM,NA,NA,GVBIbhGM,2020-0188,2021-10-04,19:42:56,20:56:45,NA,incomplete,false,true,NA,5,27,abstractness,a_2_008.jpg,left,abstract,concrete,NA,NA,NA,left,1291.70000004768,true,NA,NA,NA,NA,NA
GVBIbhGM,NA,NA,GVBIbhGM,2020-0188,2021-10-04,19:42:56,20:56:45,NA,incomplete,false,true,NA,5,28,abstractness,c_2_007.jpg,left,concrete,abstract,NA,NA,NA,right,1733.59999996424,false,NA,NA,NA,NA,NA
GVBIbhGM,NA,NA,GVBIbhGM,2020-0188,2021-10-04,19:42:56,20:56:45,NA,incomplete,false,true,NA,5,29,abstractness,a_2_024.jpg,right,concrete,abstract,NA,NA,NA,right,1354.60000002384,true,NA,NA,NA,NA,NA
GVBIbhGM,NA,NA,GVBIbhGM,2020-0188,2021-10-04,19:42:56,20:56:45,NA,incomplete,false,NA,true,5,0,NA,NA,right,NA,NA,i_c_015.jpg,n_l_019.jpg,between-big,NA,NaN,NA,right,4373.599999964237,1,1,1435.800000011921
GVBIbhGM,NA,NA,GVBIbhGM,2020-0188,2021-10-04,19:42:56,20:56:45,NA,incomplete,false,NA,true,5,1,NA,NA,left,NA,NA,o_s_017.jpg,i_c_012.jpg,within,NA,NaN,NA,right,10824.200000047684,0,1,1137.699999988079
GVBIbhGM,NA,NA,GVBIbhGM,2020-0188,2021-10-04,19:42:56,20:56:45,NA,incomplete,false,NA,true,5,2,NA,NA,left,NA,NA,c_2_010.jpg,a_2_024.jpg,within,NA,NaN,NA,left,4336.199999988079,1,0,1101
GVBIbhGM,NA,NA,GVBIbhGM,2020-0188,2021-10-04,19:42:56,20:56:45,NA,incomplete,false,NA,true,5,3,NA,NA,left,NA,NA,c_1_020.jpg,a_1_027.jpg,within,NA,NaN,NA,left,5121,1,0,1998.4000000357628
GVBIbhGM,NA,NA,GVBIbhGM,2020-0188,2021-10-04,19:42:56,20:56:45,NA,incomplete,false,NA,true,5,4,NA,NA,left,NA,NA,m_s_026.jpg,o_c_021.jpg,between-big,NA,NaN,NA,left,4379.800000011921,1,1,1782.800000011921
GVBIbhGM,NA,NA,GVBIbhGM,2020-0188,2021-10-04,19:42:56,20:56:45,NA,incomplete,false,NA,true,5,5,NA,NA,right,NA,NA,a_1_014.jpg,c_1_014.jpg,within,NA,NaN,NA,left,4727.200000047684,0,0,966.1999999880791
GVBIbhGM,NA,NA,GVBIbhGM,2020-0188,2021-10-04,19:42:56,20:56:45,NA,incomplete,false,NA,true,5,6,NA,NA,right,NA,NA,c_1_020.jpg,i_c_012.jpg,between-big,NA,NaN,NA,left,7049,0,1,1990
GVBIbhGM,NA,NA,GVBIbhGM,2020-0188,2021-10-04,19:42:56,20:56:45,NA,incomplete,false,NA,true,5,7,NA,NA,right,NA,NA,m_s_026.jpg,m_s_012.jpg,between-small,NA,NaN,NA,right,4172.199999988079,1,1,1179.699999988079
GVBIbhGM,NA,NA,GVBIbhGM,2020-0188,2021-10-04,19:42:56,20:56:45,NA,incomplete,false,NA,true,5,8,NA,NA,right,NA,NA,i_s_016.jpg,o_s_008.jpg,within,NA,NaN,NA,left,5815,0,1,1222.3999999761581
GVBIbhGM,NA,NA,GVBIbhGM,2020-0188,2021-10-04,19:42:56,20:56:45,NA,incomplete,false,NA,true,5,9,NA,NA,right,NA,NA,i_c_023.jpg,o_c_021.jpg,within,NA,NaN,NA,left,7041.399999976158,0,1,835.8999999761581
GVBIbhGM,NA,NA,GVBIbhGM,2020-0188,2021-10-04,19:42:56,20:56:45,NA,incomplete,false,NA,true,5,10,NA,NA,right,NA,NA,n_l_019.jpg,n_s_019.jpg,within,NA,NaN,NA,left,9763.800000011921,0,1,2034.199999988079
GVBIbhGM,NA,NA,GVBIbhGM,2020-0188,2021-10-04,19:42:56,20:56:45,NA,incomplete,false,NA,true,5,11,NA,NA,left,NA,NA,o_c_014.jpg,i_s_025.jpg,within,NA,NaN,NA,right,7697.800000011921,0,0,1045.3999999761581
GVBIbhGM,NA,NA,GVBIbhGM,2020-0188,2021-10-04,19:42:56,20:56:45,NA,incomplete,false,NA,true,5,12,NA,NA,left,NA,NA,a_2_027.jpg,c_1_017.jpg,between-small,NA,NaN,NA,left,4208.600000023842,1,0,1240.1000000238419
GVBIbhGM,NA,NA,GVBIbhGM,2020-0188,2021-10-04,19:42:56,20:56:45,NA,incomplete,false,NA,true,5,13,NA,NA,right,NA,NA,c_2_010.jpg,a_1_014.jpg,between-small,NA,NaN,NA,right,4352.100000023842,1,1,2551.900000035763
GVBIbhGM,NA,NA,GVBIbhGM,2020-0188,2021-10-04,19:42:56,20:56:45,NA,incomplete,false,NA,true,5,14,NA,NA,left,NA,NA,a_1_027.jpg,a_2_008.jpg,between-small,NA,NaN,NA,left,3511.600000023842,1,1,1976.6000000238419
GVBIbhGM,NA,NA,GVBIbhGM,2020-0188,2021-10-04,19:42:56,20:56:45,NA,incomplete,false,NA,true,5,15,NA,NA,right,NA,NA,m_l_012.jpg,n_s_003.jpg,between-small,NA,NaN,NA,right,4102.199999988079,1,1,1788.699999988079
GVBIbhGM,NA,NA,GVBIbhGM,2020-0188,2021-10-04,19:42:56,20:56:45,NA,incomplete,false,NA,true,5,16,NA,NA,left,NA,NA,m_l_003.jpg,m_s_012.jpg,within,NA,NaN,NA,left,2157.5,1,0,761.3000000119209
GVBIbhGM,NA,NA,GVBIbhGM,2020-0188,2021-10-04,19:42:56,20:56:45,NA,incomplete,false,NA,true,5,17,NA,NA,right,NA,NA,n_s_019.jpg,m_l_021.jpg,between-small,NA,NaN,NA,right,4676.899999976158,1,1,743.3999999761581
GVBIbhGM,NA,NA,GVBIbhGM,2020-0188,2021-10-04,19:42:56,20:56:45,NA,incomplete,false,NA,true,5,18,NA,NA,right,NA,NA,o_s_017.jpg,i_c_015.jpg,between-small,NA,NaN,NA,right,5153.199999988079,1,1,836.1000000238419
GVBIbhGM,NA,NA,GVBIbhGM,2020-0188,2021-10-04,19:42:56,20:56:45,NA,incomplete,false,NA,true,5,19,NA,NA,left,NA,NA,m_s_011.jpg,m_l_021.jpg,within,NA,NaN,NA,left,5073,1,0,1039.300000011921
GVBIbhGM,NA,NA,GVBIbhGM,2020-0188,2021-10-04,19:42:56,20:56:45,NA,incomplete,false,NA,true,5,20,NA,NA,left,NA,NA,i_s_016.jpg,a_2_027.jpg,between-big,NA,NaN,NA,left,2315.5,1,2,840.7999999523163
GVBIbhGM,NA,NA,GVBIbhGM,2020-0188,2021-10-04,19:42:56,20:56:45,NA,incomplete,false,NA,true,5,21,NA,NA,left,NA,NA,i_s_025.jpg,o_s_001.jpg,between-small,NA,NaN,NA,left,4092.300000011921,1,1,862.1999999880791
GVBIbhGM,NA,NA,GVBIbhGM,2020-0188,2021-10-04,19:42:56,20:56:45,NA,incomplete,false,NA,true,5,22,NA,NA,right,NA,NA,c_2_007.jpg,c_1_017.jpg,within,NA,NaN,NA,right,5924.800000011921,1,1,1492.9000000357628
GVBIbhGM,NA,NA,GVBIbhGM,2020-0188,2021-10-04,19:42:56,20:56:45,NA,incomplete,false,NA,true,5,23,NA,NA,right,NA,NA,m_l_020.jpg,m_l_012.jpg,within,NA,NaN,NA,right,4282.599999964237,1,1,1573.9000000357628
GVBIbhGM,NA,NA,GVBIbhGM,2020-0188,2021-10-04,19:42:56,20:56:45,NA,incomplete,false,NA,true,5,24,NA,NA,left,NA,NA,m_l_020.jpg,o_c_014.jpg,between-big,NA,NaN,NA,left,2917.899999976158,1,1,1552.1000000238419
GVBIbhGM,NA,NA,GVBIbhGM,2020-0188,2021-10-04,19:42:56,20:56:45,NA,incomplete,false,NA,true,5,25,NA,NA,left,NA,NA,o_s_001.jpg,c_1_014.jpg,between-big,NA,NaN,NA,left,1968.800000011921,1,2,3001.699999988079
GVBIbhGM,NA,NA,GVBIbhGM,2020-0188,2021-10-04,19:42:56,20:56:45,NA,incomplete,false,NA,true,5,26,NA,NA,right,NA,NA,o_s_008.jpg,i_c_023.jpg,between-small,NA,NaN,NA,right,4340.300000011921,1,1,949.1000000238419
GVBIbhGM,NA,NA,GVBIbhGM,2020-0188,2021-10-04,19:42:56,20:56:45,NA,incomplete,false,true,NA,6,0,size,n_s_015.jpg,left,small,large,NA,NA,NA,left,1216.29999995232,true,NA,NA,NA,NA,NA
GVBIbhGM,NA,NA,GVBIbhGM,2020-0188,2021-10-04,19:42:56,20:56:45,NA,incomplete,false,true,NA,6,1,size,m_s_009.jpg,left,small,large,NA,NA,NA,left,1726.80000001192,true,NA,NA,NA,NA,NA
GVBIbhGM,NA,NA,GVBIbhGM,2020-0188,2021-10-04,19:42:56,20:56:45,NA,incomplete,false,true,NA,6,2,size,m_l_007.jpg,right,small,large,NA,NA,NA,right,2196.59999996424,true,NA,NA,NA,NA,NA
GVBIbhGM,NA,NA,GVBIbhGM,2020-0188,2021-10-04,19:42:56,20:56:45,NA,incomplete,false,true,NA,6,3,size,n_l_001.jpg,left,large,small,NA,NA,NA,left,942.199999988079,true,NA,NA,NA,NA,NA
GVBIbhGM,NA,NA,GVBIbhGM,2020-0188,2021-10-04,19:42:56,20:56:45,NA,incomplete,false,true,NA,6,4,size,m_s_010.jpg,right,large,small,NA,NA,NA,right,1261.20000004768,true,NA,NA,NA,NA,NA
GVBIbhGM,NA,NA,GVBIbhGM,2020-0188,2021-10-04,19:42:56,20:56:45,NA,incomplete,false,true,NA,6,5,origin,n_s_012.jpg,right,manmade,natural,NA,NA,NA,right,1339.5,true,NA,NA,NA,NA,NA
GVBIbhGM,NA,NA,GVBIbhGM,2020-0188,2021-10-04,19:42:56,20:56:45,NA,incomplete,false,true,NA,6,6,origin,m_s_003.jpg,left,manmade,natural,NA,NA,NA,left,2077.80000001192,true,NA,NA,NA,NA,NA
GVBIbhGM,NA,NA,GVBIbhGM,2020-0188,2021-10-04,19:42:56,20:56:45,NA,incomplete,false,true,NA,6,7,origin,n_l_015.jpg,right,manmade,natural,NA,NA,NA,right,1123.30000001192,true,NA,NA,NA,NA,NA
GVBIbhGM,NA,NA,GVBIbhGM,2020-0188,2021-10-04,19:42:56,20:56:45,NA,incomplete,false,true,NA,6,8,origin,n_l_009.jpg,left,natural,manmade,NA,NA,NA,left,2439.5,true,NA,NA,NA,NA,NA
GVBIbhGM,NA,NA,GVBIbhGM,2020-0188,2021-10-04,19:42:56,20:56:45,NA,incomplete,false,true,NA,6,9,origin,n_s_014.jpg,left,natural,manmade,NA,NA,NA,left,1259.80000001192,true,NA,NA,NA,NA,NA
GVBIbhGM,NA,NA,GVBIbhGM,2020-0188,2021-10-04,19:42:56,20:56:45,NA,incomplete,false,true,NA,6,10,syllable,c_1_015.jpg,right,2 syllables,1 syllable,NA,NA,NA,right,1378.89999997616,true,NA,NA,NA,NA,NA
GVBIbhGM,NA,NA,GVBIbhGM,2020-0188,2021-10-04,19:42:56,20:56:45,NA,incomplete,false,true,NA,6,11,syllable,c_1_001.jpg,right,1 syllable,2 syllables,NA,NA,NA,left,2209.90000003576,false,NA,NA,NA,NA,NA
GVBIbhGM,NA,NA,GVBIbhGM,2020-0188,2021-10-04,19:42:56,20:56:45,NA,incomplete,false,true,NA,6,12,syllable,c_2_018.jpg,right,1 syllable,2 syllables,NA,NA,NA,right,932.300000011921,true,NA,NA,NA,NA,NA
GVBIbhGM,NA,NA,GVBIbhGM,2020-0188,2021-10-04,19:42:56,20:56:45,NA,incomplete,false,true,NA,6,13,syllable,a_1_028.jpg,right,2 syllables,1 syllable,NA,NA,NA,right,1071.60000002384,true,NA,NA,NA,NA,NA
GVBIbhGM,NA,NA,GVBIbhGM,2020-0188,2021-10-04,19:42:56,20:56:45,NA,incomplete,false,true,NA,6,14,syllable,a_2_015.jpg,right,1 syllable,2 syllables,NA,NA,NA,right,3343.5,true,NA,NA,NA,NA,NA
GVBIbhGM,NA,NA,GVBIbhGM,2020-0188,2021-10-04,19:42:56,20:56:45,NA,incomplete,false,true,NA,6,15,abstractness,c_1_010.jpg,left,concrete,abstract,NA,NA,NA,left,2377,true,NA,NA,NA,NA,NA
GVBIbhGM,NA,NA,GVBIbhGM,2020-0188,2021-10-04,19:42:56,20:56:45,NA,incomplete,false,true,NA,6,16,abstractness,a_1_010.jpg,right,concrete,abstract,NA,NA,NA,right,1880,true,NA,NA,NA,NA,NA
GVBIbhGM,NA,NA,GVBIbhGM,2020-0188,2021-10-04,19:42:56,20:56:45,NA,incomplete,false,true,NA,6,17,abstractness,a_1_016.jpg,left,abstract,concrete,NA,NA,NA,left,1700,true,NA,NA,NA,NA,NA
GVBIbhGM,NA,NA,GVBIbhGM,2020-0188,2021-10-04,19:42:56,20:56:45,NA,incomplete,false,true,NA,6,18,abstractness,a_2_001.jpg,left,abstract,concrete,NA,NA,NA,left,2226.40000003576,true,NA,NA,NA,NA,NA
GVBIbhGM,NA,NA,GVBIbhGM,2020-0188,2021-10-04,19:42:56,20:56:45,NA,incomplete,false,true,NA,6,19,abstractness,a_2_018.jpg,right,concrete,abstract,NA,NA,NA,left,3371.09999996424,false,NA,NA,NA,NA,NA
GVBIbhGM,NA,NA,GVBIbhGM,2020-0188,2021-10-04,19:42:56,20:56:45,NA,incomplete,false,true,NA,6,20,location,i_s_024.jpg,left,indoor,outdoor,NA,NA,NA,left,1595.19999998808,true,NA,NA,NA,NA,NA
GVBIbhGM,NA,NA,GVBIbhGM,2020-0188,2021-10-04,19:42:56,20:56:45,NA,incomplete,false,true,NA,6,21,location,i_s_009.jpg,left,indoor,outdoor,NA,NA,NA,left,1334.09999996424,true,NA,NA,NA,NA,NA
GVBIbhGM,NA,NA,GVBIbhGM,2020-0188,2021-10-04,19:42:56,20:56:45,NA,incomplete,false,true,NA,6,22,location,i_s_019.jpg,left,indoor,outdoor,NA,NA,NA,left,1401.89999997616,true,NA,NA,NA,NA,NA
GVBIbhGM,NA,NA,GVBIbhGM,2020-0188,2021-10-04,19:42:56,20:56:45,NA,incomplete,false,true,NA,6,23,location,i_c_027.jpg,right,outdoor,indoor,NA,NA,NA,right,1361.69999998808,true,NA,NA,NA,NA,NA
GVBIbhGM,NA,NA,GVBIbhGM,2020-0188,2021-10-04,19:42:56,20:56:45,NA,incomplete,false,true,NA,6,24,location,o_c_007.jpg,right,indoor,outdoor,NA,NA,NA,right,1329.30000001192,true,NA,NA,NA,NA,NA
GVBIbhGM,NA,NA,GVBIbhGM,2020-0188,2021-10-04,19:42:56,20:56:45,NA,incomplete,false,true,NA,6,25,building,o_s_028.jpg,left,skyscraper,cottage,NA,NA,NA,left,1866.5,true,NA,NA,NA,NA,NA
GVBIbhGM,NA,NA,GVBIbhGM,2020-0188,2021-10-04,19:42:56,20:56:45,NA,incomplete,false,true,NA,6,26,building,i_s_017.jpg,left,skyscraper,cottage,NA,NA,NA,left,2256.60000002384,true,NA,NA,NA,NA,NA
GVBIbhGM,NA,NA,GVBIbhGM,2020-0188,2021-10-04,19:42:56,20:56:45,NA,incomplete,false,true,NA,6,27,building,o_s_002.jpg,right,cottage,skyscraper,NA,NA,NA,right,1251,true,NA,NA,NA,NA,NA
GVBIbhGM,NA,NA,GVBIbhGM,2020-0188,2021-10-04,19:42:56,20:56:45,NA,incomplete,false,true,NA,6,28,building,i_c_021.jpg,left,cottage,skyscraper,NA,NA,NA,left,1193.90000003576,true,NA,NA,NA,NA,NA
GVBIbhGM,NA,NA,GVBIbhGM,2020-0188,2021-10-04,19:42:56,20:56:45,NA,incomplete,false,true,NA,6,29,building,o_s_027.jpg,left,skyscraper,cottage,NA,NA,NA,left,822.900000035763,true,NA,NA,NA,NA,NA
GVBIbhGM,NA,NA,GVBIbhGM,2020-0188,2021-10-04,19:42:56,20:56:45,NA,incomplete,false,NA,true,6,0,NA,NA,left,NA,NA,m_s_009.jpg,m_s_010.jpg,within,NA,NaN,NA,left,2945,1,0,892.6000000238419
GVBIbhGM,NA,NA,GVBIbhGM,2020-0188,2021-10-04,19:42:56,20:56:45,NA,incomplete,false,NA,true,6,1,NA,NA,right,NA,NA,i_s_017.jpg,i_c_027.jpg,between-small,NA,NaN,NA,right,2467.400000035763,1,1,893
GVBIbhGM,NA,NA,GVBIbhGM,2020-0188,2021-10-04,19:42:56,20:56:45,NA,incomplete,false,NA,true,6,2,NA,NA,right,NA,NA,n_l_001.jpg,n_s_015.jpg,within,NA,NaN,NA,right,2643.199999988079,1,0,1871.5999999642372
GVBIbhGM,NA,NA,GVBIbhGM,2020-0188,2021-10-04,19:42:56,20:56:45,NA,incomplete,false,NA,true,6,3,NA,NA,left,NA,NA,a_2_018.jpg,i_s_019.jpg,between-big,NA,NaN,NA,left,6079.800000011921,1,1,927.8999999761581
GVBIbhGM,NA,NA,GVBIbhGM,2020-0188,2021-10-04,19:42:56,20:56:45,NA,incomplete,false,NA,true,6,4,NA,NA,left,NA,NA,n_l_001.jpg,m_s_003.jpg,between-small,NA,NaN,NA,left,2527,1,1,926
GVBIbhGM,NA,NA,GVBIbhGM,2020-0188,2021-10-04,19:42:56,20:56:45,NA,incomplete,false,NA,true,6,5,NA,NA,right,NA,NA,n_l_015.jpg,m_s_010.jpg,between-small,NA,NaN,NA,right,1976,1,1,819.0999999642372
GVBIbhGM,NA,NA,GVBIbhGM,2020-0188,2021-10-04,19:42:56,20:56:45,NA,incomplete,false,NA,true,6,6,NA,NA,right,NA,NA,a_1_028.jpg,c_1_015.jpg,within,NA,NaN,NA,left,3613.399999976158,0,0,860.3000000119209
GVBIbhGM,NA,NA,GVBIbhGM,2020-0188,2021-10-04,19:42:56,20:56:45,NA,incomplete,false,NA,true,6,7,NA,NA,left,NA,NA,m_l_007.jpg,n_s_012.jpg,between-small,NA,NaN,NA,left,3183.5,1,1,876.7000000476837
GVBIbhGM,NA,NA,GVBIbhGM,2020-0188,2021-10-04,19:42:56,20:56:45,NA,incomplete,false,NA,true,6,8,NA,NA,left,NA,NA,m_s_003.jpg,n_s_014.jpg,within,NA,NaN,NA,left,3225.899999976158,1,0,1114.199999988079
GVBIbhGM,NA,NA,GVBIbhGM,2020-0188,2021-10-04,19:42:56,20:56:45,NA,incomplete,false,NA,true,6,9,NA,NA,left,NA,NA,i_s_024.jpg,i_c_027.jpg,within,NA,NaN,NA,left,3508.7999999523163,1,0,915.1000000238419
GVBIbhGM,NA,NA,GVBIbhGM,2020-0188,2021-10-04,19:42:56,20:56:45,NA,incomplete,false,NA,true,6,10,NA,NA,right,NA,NA,o_s_027.jpg,i_s_017.jpg,within,NA,NaN,NA,right,5670.699999988079,1,0,925.8999999761581
GVBIbhGM,NA,NA,GVBIbhGM,2020-0188,2021-10-04,19:42:56,20:56:45,NA,incomplete,false,NA,true,6,11,NA,NA,left,NA,NA,o_s_028.jpg,i_c_021.jpg,within,NA,NaN,NA,right,5588.300000011921,0,1,1737.5
GVBIbhGM,NA,NA,GVBIbhGM,2020-0188,2021-10-04,19:42:56,20:56:45,NA,incomplete,false,NA,true,6,12,NA,NA,left,NA,NA,a_2_015.jpg,a_1_016.jpg,between-small,NA,NaN,NA,left,7334.600000023842,1,2,1124
GVBIbhGM,NA,NA,GVBIbhGM,2020-0188,2021-10-04,19:42:56,20:56:45,NA,incomplete,false,NA,true,6,13,NA,NA,right,NA,NA,a_2_001.jpg,c_1_010.jpg,within,NA,NaN,NA,right,3178.199999988079,1,0,876.5
GVBIbhGM,NA,NA,GVBIbhGM,2020-0188,2021-10-04,19:42:56,20:56:45,NA,incomplete,false,NA,true,6,14,NA,NA,left,NA,NA,n_s_014.jpg,c_2_018.jpg,between-big,NA,NaN,NA,left,2962.599999964237,1,2,4800.400000035763
GVBIbhGM,NA,NA,GVBIbhGM,2020-0188,2021-10-04,19:42:56,20:56:45,NA,incomplete,false,NA,true,6,15,NA,NA,right,NA,NA,o_c_007.jpg,i_s_009.jpg,within,NA,NaN,NA,right,5489.699999988079,1,0,1196.699999988079
GVBIbhGM,NA,NA,GVBIbhGM,2020-0188,2021-10-04,19:42:56,20:56:45,NA,incomplete,false,NA,true,6,16,NA,NA,left,NA,NA,a_1_010.jpg,a_2_018.jpg,within,NA,NaN,NA,left,3804.2000000476837,1,2,1494.4000000357628
GVBIbhGM,NA,NA,GVBIbhGM,2020-0188,2021-10-04,19:42:56,20:56:45,NA,incomplete,false,NA,true,6,17,NA,NA,right,NA,NA,i_s_024.jpg,a_1_016.jpg,between-big,NA,NaN,NA,left,2223,0,1,1005
GVBIbhGM,NA,NA,GVBIbhGM,2020-0188,2021-10-04,19:42:56,20:56:45,NA,incomplete,false,NA,true,6,18,NA,NA,left,NA,NA,n_l_009.jpg,c_1_001.jpg,between-big,NA,NaN,NA,left,2230.5,1,2,3060
GVBIbhGM,NA,NA,GVBIbhGM,2020-0188,2021-10-04,19:42:56,20:56:45,NA,incomplete,false,NA,true,6,19,NA,NA,right,NA,NA,a_2_015.jpg,c_1_001.jpg,within,NA,NaN,NA,left,2723.800000011921,0,0,1364.1000000238419
GVBIbhGM,NA,NA,GVBIbhGM,2020-0188,2021-10-04,19:42:56,20:56:45,NA,incomplete,false,NA,true,6,20,NA,NA,right,NA,NA,c_1_015.jpg,n_l_015.jpg,between-big,NA,NaN,NA,right,2913.199999988079,1,1,761.5999999642372
GVBIbhGM,NA,NA,GVBIbhGM,2020-0188,2021-10-04,19:42:56,20:56:45,NA,incomplete,false,NA,true,6,21,NA,NA,left,NA,NA,a_1_028.jpg,a_1_010.jpg,between-small,NA,NaN,NA,left,3191.199999988079,1,0,687.6999999880791
GVBIbhGM,NA,NA,GVBIbhGM,2020-0188,2021-10-04,19:42:56,20:56:45,NA,incomplete,false,NA,true,6,22,NA,NA,left,NA,NA,n_s_012.jpg,n_l_009.jpg,within,NA,NaN,NA,right,6606.399999976158,0,0,1042.9000000357628
GVBIbhGM,NA,NA,GVBIbhGM,2020-0188,2021-10-04,19:42:56,20:56:45,NA,incomplete,false,NA,true,6,23,NA,NA,left,NA,NA,o_c_007.jpg,o_s_002.jpg,between-small,NA,NaN,NA,left,5843,1,1,2395.300000011921
GVBIbhGM,NA,NA,GVBIbhGM,2020-0188,2021-10-04,19:42:56,20:56:45,NA,incomplete,false,NA,true,6,24,NA,NA,right,NA,NA,o_s_028.jpg,i_s_019.jpg,between-small,NA,NaN,NA,left,10084.300000011921,0,0,1497.6000000238419
GVBIbhGM,NA,NA,GVBIbhGM,2020-0188,2021-10-04,19:42:56,20:56:45,NA,incomplete,false,NA,true,6,25,NA,NA,left,NA,NA,a_2_001.jpg,i_s_009.jpg,between-big,NA,NaN,NA,right,3365,0,2,1049
GVBIbhGM,NA,NA,GVBIbhGM,2020-0188,2021-10-04,19:42:56,20:56:45,NA,incomplete,false,NA,true,6,26,NA,NA,left,NA,NA,c_2_018.jpg,c_1_010.jpg,between-small,NA,NaN,NA,left,2715,1,2,1019.7999999523163
GVBIbhGM,NA,NA,GVBIbhGM,2020-0188,2021-10-04,19:42:56,20:56:45,NA,incomplete,false,true,NA,7,0,location,i_s_023.jpg,right,outdoor,indoor,NA,NA,NA,right,2113.30000001192,true,NA,NA,NA,NA,NA
GVBIbhGM,NA,NA,GVBIbhGM,2020-0188,2021-10-04,19:42:56,20:56:45,NA,incomplete,false,true,NA,7,1,location,o_c_015.jpg,left,outdoor,indoor,NA,NA,NA,left,1193.19999998808,true,NA,NA,NA,NA,NA
GVBIbhGM,NA,NA,GVBIbhGM,2020-0188,2021-10-04,19:42:56,20:56:45,NA,incomplete,false,true,NA,7,2,location,i_c_017.jpg,right,outdoor,indoor,NA,NA,NA,right,1165.30000001192,true,NA,NA,NA,NA,NA
GVBIbhGM,NA,NA,GVBIbhGM,2020-0188,2021-10-04,19:42:56,20:56:45,NA,incomplete,false,true,NA,7,3,location,i_s_003.jpg,right,outdoor,indoor,NA,NA,NA,right,1002.10000002384,true,NA,NA,NA,NA,NA
GVBIbhGM,NA,NA,GVBIbhGM,2020-0188,2021-10-04,19:42:56,20:56:45,NA,incomplete,false,true,NA,7,4,location,i_c_008.jpg,right,outdoor,indoor,NA,NA,NA,right,1042.80000001192,true,NA,NA,NA,NA,NA
GVBIbhGM,NA,NA,GVBIbhGM,2020-0188,2021-10-04,19:42:56,20:56:45,NA,incomplete,false,true,NA,7,5,building,i_s_002.jpg,left,skyscraper,cottage,NA,NA,NA,left,1388.30000001192,true,NA,NA,NA,NA,NA
GVBIbhGM,NA,NA,GVBIbhGM,2020-0188,2021-10-04,19:42:56,20:56:45,NA,incomplete,false,true,NA,7,6,building,o_c_003.jpg,left,cottage,skyscraper,NA,NA,NA,left,2020.10000002384,true,NA,NA,NA,NA,NA
GVBIbhGM,NA,NA,GVBIbhGM,2020-0188,2021-10-04,19:42:56,20:56:45,NA,incomplete,false,true,NA,7,7,building,i_c_002.jpg,right,skyscraper,cottage,NA,NA,NA,right,1245.5,true,NA,NA,NA,NA,NA
GVBIbhGM,NA,NA,GVBIbhGM,2020-0188,2021-10-04,19:42:56,20:56:45,NA,incomplete,false,true,NA,7,8,building,o_s_025.jpg,right,cottage,skyscraper,NA,NA,NA,right,1278.30000001192,true,NA,NA,NA,NA,NA
GVBIbhGM,NA,NA,GVBIbhGM,2020-0188,2021-10-04,19:42:56,20:56:45,NA,incomplete,false,true,NA,7,9,building,i_c_014.jpg,right,skyscraper,cottage,NA,NA,NA,right,1532.30000001192,true,NA,NA,NA,NA,NA
GVBIbhGM,NA,NA,GVBIbhGM,2020-0188,2021-10-04,19:42:56,20:56:45,NA,incomplete,false,true,NA,7,10,origin,n_l_028.jpg,right,manmade,natural,NA,NA,NA,right,2067.80000001192,true,NA,NA,NA,NA,NA
GVBIbhGM,NA,NA,GVBIbhGM,2020-0188,2021-10-04,19:42:56,20:56:45,NA,incomplete,false,true,NA,7,11,origin,n_l_018.jpg,right,manmade,natural,NA,NA,NA,right,1470.10000002384,true,NA,NA,NA,NA,NA
GVBIbhGM,NA,NA,GVBIbhGM,2020-0188,2021-10-04,19:42:56,20:56:45,NA,incomplete,false,true,NA,7,12,origin,m_s_001.jpg,left,manmade,natural,NA,NA,NA,left,1423.5,true,NA,NA,NA,NA,NA
GVBIbhGM,NA,NA,GVBIbhGM,2020-0188,2021-10-04,19:42:56,20:56:45,NA,incomplete,false,true,NA,7,13,origin,n_l_008.jpg,left,natural,manmade,NA,NA,NA,left,2433.19999998808,true,NA,NA,NA,NA,NA
GVBIbhGM,NA,NA,GVBIbhGM,2020-0188,2021-10-04,19:42:56,20:56:45,NA,incomplete,false,true,NA,7,14,origin,m_s_027.jpg,left,manmade,natural,NA,NA,NA,left,1107,true,NA,NA,NA,NA,NA
GVBIbhGM,NA,NA,GVBIbhGM,2020-0188,2021-10-04,19:42:56,20:56:45,NA,incomplete,false,true,NA,7,15,size,n_s_002.jpg,left,small,large,NA,NA,NA,left,1462.89999997616,true,NA,NA,NA,NA,NA
GVBIbhGM,NA,NA,GVBIbhGM,2020-0188,2021-10-04,19:42:56,20:56:45,NA,incomplete,false,true,NA,7,16,size,m_s_008.jpg,right,large,small,NA,NA,NA,right,1507.90000003576,true,NA,NA,NA,NA,NA
GVBIbhGM,NA,NA,GVBIbhGM,2020-0188,2021-10-04,19:42:56,20:56:45,NA,incomplete,false,true,NA,7,17,size,m_s_022.jpg,right,large,small,NA,NA,NA,right,1033,true,NA,NA,NA,NA,NA
GVBIbhGM,NA,NA,GVBIbhGM,2020-0188,2021-10-04,19:42:56,20:56:45,NA,incomplete,false,true,NA,7,18,size,m_s_014.jpg,left,small,large,NA,NA,NA,left,1138.69999998808,true,NA,NA,NA,NA,NA
GVBIbhGM,NA,NA,GVBIbhGM,2020-0188,2021-10-04,19:42:56,20:56:45,NA,incomplete,false,true,NA,7,19,size,m_l_026.jpg,right,small,large,NA,NA,NA,right,1174.10000002384,true,NA,NA,NA,NA,NA
GVBIbhGM,NA,NA,GVBIbhGM,2020-0188,2021-10-04,19:42:56,20:56:45,NA,incomplete,false,true,NA,7,20,abstractness,c_1_028.jpg,left,concrete,abstract,NA,NA,NA,left,1912.10000002384,true,NA,NA,NA,NA,NA
GVBIbhGM,NA,NA,GVBIbhGM,2020-0188,2021-10-04,19:42:56,20:56:45,NA,incomplete,false,true,NA,7,21,abstractness,c_1_026.jpg,left,concrete,abstract,NA,NA,NA,left,1301.59999996424,true,NA,NA,NA,NA,NA
GVBIbhGM,NA,NA,GVBIbhGM,2020-0188,2021-10-04,19:42:56,20:56:45,NA,incomplete,false,true,NA,7,22,abstractness,c_2_025.jpg,left,concrete,abstract,NA,NA,NA,left,1473.09999996424,true,NA,NA,NA,NA,NA
GVBIbhGM,NA,NA,GVBIbhGM,2020-0188,2021-10-04,19:42:56,20:56:45,NA,incomplete,false,true,NA,7,23,abstractness,a_2_028.jpg,left,abstract,concrete,NA,NA,NA,left,1314.5,true,NA,NA,NA,NA,NA
GVBIbhGM,NA,NA,GVBIbhGM,2020-0188,2021-10-04,19:42:56,20:56:45,NA,incomplete,false,true,NA,7,24,abstractness,c_1_018.jpg,left,concrete,abstract,NA,NA,NA,left,1668.5,true,NA,NA,NA,NA,NA
GVBIbhGM,NA,NA,GVBIbhGM,2020-0188,2021-10-04,19:42:56,20:56:45,NA,incomplete,false,true,NA,7,25,syllable,c_2_024.jpg,right,2 syllables,1 syllable,NA,NA,NA,left,2456.40000003576,false,NA,NA,NA,NA,NA
GVBIbhGM,NA,NA,GVBIbhGM,2020-0188,2021-10-04,19:42:56,20:56:45,NA,incomplete,false,true,NA,7,26,syllable,c_1_025.jpg,right,1 syllable,2 syllables,NA,NA,NA,left,1026.89999997616,false,NA,NA,NA,NA,NA
GVBIbhGM,NA,NA,GVBIbhGM,2020-0188,2021-10-04,19:42:56,20:56:45,NA,incomplete,false,true,NA,7,27,syllable,a_2_017.jpg,right,2 syllables,1 syllable,NA,NA,NA,left,1599,false,NA,NA,NA,NA,NA
GVBIbhGM,NA,NA,GVBIbhGM,2020-0188,2021-10-04,19:42:56,20:56:45,NA,incomplete,false,true,NA,7,28,syllable,a_2_005.jpg,right,2 syllables,1 syllable,NA,NA,NA,left,1062.30000001192,false,NA,NA,NA,NA,NA
GVBIbhGM,NA,NA,GVBIbhGM,2020-0188,2021-10-04,19:42:56,20:56:45,NA,incomplete,false,true,NA,7,29,syllable,a_2_022.jpg,right,2 syllables,1 syllable,NA,NA,NA,left,1295.90000003576,false,NA,NA,NA,NA,NA
GVBIbhGM,NA,NA,GVBIbhGM,2020-0188,2021-10-04,19:42:56,20:56:45,NA,incomplete,false,NA,true,7,0,NA,NA,left,NA,NA,i_c_008.jpg,i_c_002.jpg,between-small,NA,NaN,NA,left,8566.199999988079,1,0,1016.8999999761581
GVBIbhGM,NA,NA,GVBIbhGM,2020-0188,2021-10-04,19:42:56,20:56:45,NA,incomplete,false,NA,true,7,1,NA,NA,left,NA,NA,a_2_028.jpg,c_1_025.jpg,between-small,NA,NaN,NA,left,3307.5,1,1,1042.7000000476837
GVBIbhGM,NA,NA,GVBIbhGM,2020-0188,2021-10-04,19:42:56,20:56:45,NA,incomplete,false,NA,true,7,2,NA,NA,left,NA,NA,c_2_025.jpg,c_2_024.jpg,between-small,NA,NaN,NA,left,2370.800000011921,1,1,1703.5
GVBIbhGM,NA,NA,GVBIbhGM,2020-0188,2021-10-04,19:42:56,20:56:45,NA,incomplete,false,NA,true,7,3,NA,NA,right,NA,NA,n_l_028.jpg,i_c_002.jpg,between-big,NA,NaN,NA,right,4295.399999976158,1,2,2558.699999988079
GVBIbhGM,NA,NA,GVBIbhGM,2020-0188,2021-10-04,19:42:56,20:56:45,NA,incomplete,false,NA,true,7,4,NA,NA,right,NA,NA,o_s_025.jpg,i_s_002.jpg,within,NA,NaN,NA,right,8443.299999952316,1,0,1322.699999988079
GVBIbhGM,NA,NA,GVBIbhGM,2020-0188,2021-10-04,19:42:56,20:56:45,NA,incomplete,false,NA,true,7,5,NA,NA,left,NA,NA,c_1_026.jpg,c_1_018.jpg,within,NA,NaN,NA,right,2730.600000023842,0,0,1488.699999988079
GVBIbhGM,NA,NA,GVBIbhGM,2020-0188,2021-10-04,19:42:56,20:56:45,NA,incomplete,false,NA,true,7,6,NA,NA,left,NA,NA,n_s_002.jpg,m_s_014.jpg,within,NA,NaN,NA,left,2472.199999988079,1,0,974.6000000238419
GVBIbhGM,NA,NA,GVBIbhGM,2020-0188,2021-10-04,19:42:56,20:56:45,NA,incomplete,false,NA,true,7,7,NA,NA,left,NA,NA,c_1_028.jpg,a_2_028.jpg,within,NA,NaN,NA,left,2757.100000023842,1,0,1085.4000000357628
GVBIbhGM,NA,NA,GVBIbhGM,2020-0188,2021-10-04,19:42:56,20:56:45,NA,incomplete,false,NA,true,7,8,NA,NA,right,NA,NA,a_2_022.jpg,c_1_025.jpg,within,NA,NaN,NA,right,4338.300000011921,1,0,761.8000000119209
GVBIbhGM,NA,NA,GVBIbhGM,2020-0188,2021-10-04,19:42:56,20:56:45,NA,incomplete,false,NA,true,7,9,NA,NA,left,NA,NA,i_c_017.jpg,i_s_002.jpg,between-small,NA,NaN,NA,left,2724.2000000476837,1,1,948
GVBIbhGM,NA,NA,GVBIbhGM,2020-0188,2021-10-04,19:42:56,20:56:45,NA,incomplete,false,NA,true,7,10,NA,NA,right,NA,NA,c_1_026.jpg,m_s_014.jpg,between-big,NA,NaN,NA,right,2233.399999976158,1,1,2344.2000000476837
GVBIbhGM,NA,NA,GVBIbhGM,2020-0188,2021-10-04,19:42:56,20:56:45,NA,incomplete,false,NA,true,7,11,NA,NA,left,NA,NA,m_s_001.jpg,n_s_002.jpg,between-small,NA,NaN,NA,left,6304,1,1,995.3000000119209
GVBIbhGM,NA,NA,GVBIbhGM,2020-0188,2021-10-04,19:42:56,20:56:45,NA,incomplete,false,NA,true,7,12,NA,NA,right,NA,NA,m_s_001.jpg,i_c_014.jpg,between-big,NA,NaN,NA,right,1981,1,1,1494.699999988079
GVBIbhGM,NA,NA,GVBIbhGM,2020-0188,2021-10-04,19:42:56,20:56:45,NA,incomplete,false,NA,true,7,13,NA,NA,right,NA,NA,m_s_027.jpg,n_l_018.jpg,within,NA,NaN,NA,left,6814.5,0,0,959.2000000476837
GVBIbhGM,NA,NA,GVBIbhGM,2020-0188,2021-10-04,19:42:56,20:56:45,NA,incomplete,false,NA,true,7,14,NA,NA,right,NA,NA,m_s_022.jpg,m_s_027.jpg,between-small,NA,NaN,NA,right,6877.899999976158,1,0,1098.6000000238419
GVBIbhGM,NA,NA,GVBIbhGM,2020-0188,2021-10-04,19:42:56,20:56:45,NA,incomplete,false,NA,true,7,15,NA,NA,left,NA,NA,c_2_024.jpg,a_2_005.jpg,within,NA,NaN,NA,left,6204.199999988079,1,2,885
GVBIbhGM,NA,NA,GVBIbhGM,2020-0188,2021-10-04,19:42:56,20:56:45,NA,incomplete,false,NA,true,7,16,NA,NA,left,NA,NA,i_s_003.jpg,o_c_003.jpg,between-small,NA,NaN,NA,left,4217.699999988079,1,0,891.1000000238419
GVBIbhGM,NA,NA,GVBIbhGM,2020-0188,2021-10-04,19:42:56,20:56:45,NA,incomplete,false,NA,true,7,17,NA,NA,right,NA,NA,i_s_003.jpg,i_s_023.jpg,within,NA,NaN,NA,right,3926.399999976158,1,1,956.5
GVBIbhGM,NA,NA,GVBIbhGM,2020-0188,2021-10-04,19:42:56,20:56:45,NA,incomplete,false,NA,true,7,18,NA,NA,right,NA,NA,m_l_026.jpg,m_s_008.jpg,within,NA,NaN,NA,right,3162.5,1,0,761.5
GVBIbhGM,NA,NA,GVBIbhGM,2020-0188,2021-10-04,19:42:56,20:56:45,NA,incomplete,false,NA,true,7,19,NA,NA,left,NA,NA,o_c_003.jpg,i_c_014.jpg,within,NA,NaN,NA,right,2863.399999976158,0,0,1353.5
GVBIbhGM,NA,NA,GVBIbhGM,2020-0188,2021-10-04,19:42:56,20:56:45,NA,incomplete,false,NA,true,7,20,NA,NA,right,NA,NA,c_2_025.jpg,m_l_026.jpg,between-big,NA,NaN,NA,right,5952.199999988079,1,1,1457.7000000476837
GVBIbhGM,NA,NA,GVBIbhGM,2020-0188,2021-10-04,19:42:56,20:56:45,NA,incomplete,false,NA,true,7,21,NA,NA,right,NA,NA,m_s_008.jpg,n_l_008.jpg,between-small,NA,NaN,NA,right,4942.599999964237,1,1,1384.300000011921
GVBIbhGM,NA,NA,GVBIbhGM,2020-0188,2021-10-04,19:42:56,20:56:45,NA,incomplete,false,NA,true,7,22,NA,NA,right,NA,NA,i_c_008.jpg,o_c_015.jpg,within,NA,NaN,NA,left,2113.599999964237,0,0,810
GVBIbhGM,NA,NA,GVBIbhGM,2020-0188,2021-10-04,19:42:56,20:56:45,NA,incomplete,false,NA,true,7,23,NA,NA,left,NA,NA,n_l_028.jpg,n_l_008.jpg,within,NA,NaN,NA,left,3898.100000023842,1,0,993.6999999880791
GVBIbhGM,NA,NA,GVBIbhGM,2020-0188,2021-10-04,19:42:56,20:56:45,NA,incomplete,false,NA,true,7,24,NA,NA,right,NA,NA,c_1_028.jpg,m_s_022.jpg,between-big,NA,NaN,NA,right,1828.800000011921,1,1,967.6999999880791
GVBIbhGM,NA,NA,GVBIbhGM,2020-0188,2021-10-04,19:42:56,20:56:45,NA,incomplete,false,NA,true,7,25,NA,NA,right,NA,NA,a_2_017.jpg,c_1_018.jpg,between-small,NA,NaN,NA,right,2362.300000011921,1,2,1304.1000000238419
GVBIbhGM,NA,NA,GVBIbhGM,2020-0188,2021-10-04,19:42:56,20:56:45,NA,incomplete,false,NA,true,7,26,NA,NA,right,NA,NA,n_l_018.jpg,o_s_025.jpg,between-big,NA,NaN,NA,right,3454.199999988079,1,1,1082.199999988079
GVBIbhGM,NA,NA,GVBIbhGM,2020-0188,2021-10-04,19:42:56,20:56:45,NA,incomplete,false,true,NA,8,0,location,o_c_001.jpg,left,outdoor,indoor,NA,NA,NA,left,1199.30000001192,true,NA,NA,NA,NA,NA
GVBIbhGM,NA,NA,GVBIbhGM,2020-0188,2021-10-04,19:42:56,20:56:45,NA,incomplete,false,true,NA,8,1,location,o_s_004.jpg,left,outdoor,indoor,NA,NA,NA,left,864.899999976158,true,NA,NA,NA,NA,NA
GVBIbhGM,NA,NA,GVBIbhGM,2020-0188,2021-10-04,19:42:56,20:56:45,NA,incomplete,false,true,NA,8,2,location,o_c_025.jpg,right,indoor,outdoor,NA,NA,NA,right,1243,true,NA,NA,NA,NA,NA
GVBIbhGM,NA,NA,GVBIbhGM,2020-0188,2021-10-04,19:42:56,20:56:45,NA,incomplete,false,true,NA,8,3,location,i_c_004.jpg,right,outdoor,indoor,NA,NA,NA,right,1133.69999998808,true,NA,NA,NA,NA,NA
GVBIbhGM,NA,NA,GVBIbhGM,2020-0188,2021-10-04,19:42:56,20:56:45,NA,incomplete,false,true,NA,8,4,location,o_s_007.jpg,right,indoor,outdoor,NA,NA,NA,right,964.5,true,NA,NA,NA,NA,NA
GVBIbhGM,NA,NA,GVBIbhGM,2020-0188,2021-10-04,19:42:56,20:56:45,NA,incomplete,false,true,NA,8,5,building,o_c_002.jpg,left,cottage,skyscraper,NA,NA,NA,left,905.399999976158,true,NA,NA,NA,NA,NA
GVBIbhGM,NA,NA,GVBIbhGM,2020-0188,2021-10-04,19:42:56,20:56:45,NA,incomplete,false,true,NA,8,6,building,o_s_014.jpg,left,skyscraper,cottage,NA,NA,NA,left,1065.79999995232,true,NA,NA,NA,NA,NA
GVBIbhGM,NA,NA,GVBIbhGM,2020-0188,2021-10-04,19:42:56,20:56:45,NA,incomplete,false,true,NA,8,7,building,i_s_028.jpg,left,skyscraper,cottage,NA,NA,NA,left,1512.89999997616,true,NA,NA,NA,NA,NA
GVBIbhGM,NA,NA,GVBIbhGM,2020-0188,2021-10-04,19:42:56,20:56:45,NA,incomplete,false,true,NA,8,8,building,o_s_013.jpg,right,cottage,skyscraper,NA,NA,NA,right,1099.69999998808,true,NA,NA,NA,NA,NA
GVBIbhGM,NA,NA,GVBIbhGM,2020-0188,2021-10-04,19:42:56,20:56:45,NA,incomplete,false,true,NA,8,9,building,i_c_022.jpg,right,skyscraper,cottage,NA,NA,NA,right,1202.60000002384,true,NA,NA,NA,NA,NA
GVBIbhGM,NA,NA,GVBIbhGM,2020-0188,2021-10-04,19:42:56,20:56:45,NA,incomplete,false,true,NA,8,10,size,m_s_018.jpg,right,large,small,NA,NA,NA,right,1373.30000001192,true,NA,NA,NA,NA,NA
GVBIbhGM,NA,NA,GVBIbhGM,2020-0188,2021-10-04,19:42:56,20:56:45,NA,incomplete,false,true,NA,8,11,size,m_l_013.jpg,right,small,large,NA,NA,NA,left,2017.69999998808,false,NA,NA,NA,NA,NA
GVBIbhGM,NA,NA,GVBIbhGM,2020-0188,2021-10-04,19:42:56,20:56:45,NA,incomplete,false,true,NA,8,12,size,m_s_025.jpg,left,small,large,NA,NA,NA,left,1000.90000003576,true,NA,NA,NA,NA,NA
GVBIbhGM,NA,NA,GVBIbhGM,2020-0188,2021-10-04,19:42:56,20:56:45,NA,incomplete,false,true,NA,8,13,size,m_s_002.jpg,left,small,large,NA,NA,NA,left,1763,true,NA,NA,NA,NA,NA
GVBIbhGM,NA,NA,GVBIbhGM,2020-0188,2021-10-04,19:42:56,20:56:45,NA,incomplete,false,true,NA,8,14,size,m_s_013.jpg,left,small,large,NA,NA,NA,left,911.900000035763,true,NA,NA,NA,NA,NA
GVBIbhGM,NA,NA,GVBIbhGM,2020-0188,2021-10-04,19:42:56,20:56:45,NA,incomplete,false,true,NA,8,15,origin,m_l_001.jpg,right,natural,manmade,NA,NA,NA,right,1649.80000001192,true,NA,NA,NA,NA,NA
GVBIbhGM,NA,NA,GVBIbhGM,2020-0188,2021-10-04,19:42:56,20:56:45,NA,incomplete,false,true,NA,8,16,origin,m_l_014.jpg,right,natural,manmade,NA,NA,NA,right,1113.60000002384,true,NA,NA,NA,NA,NA
GVBIbhGM,NA,NA,GVBIbhGM,2020-0188,2021-10-04,19:42:56,20:56:45,NA,incomplete,false,true,NA,8,17,origin,m_l_017.jpg,right,natural,manmade,NA,NA,NA,right,1154.19999998808,true,NA,NA,NA,NA,NA
GVBIbhGM,NA,NA,GVBIbhGM,2020-0188,2021-10-04,19:42:56,20:56:45,NA,incomplete,false,true,NA,8,18,origin,m_s_005.jpg,left,manmade,natural,NA,NA,NA,left,2725.90000003576,true,NA,NA,NA,NA,NA
GVBIbhGM,NA,NA,GVBIbhGM,2020-0188,2021-10-04,19:42:56,20:56:45,NA,incomplete,false,true,NA,8,19,origin,n_s_023.jpg,right,manmade,natural,NA,NA,NA,right,1403.69999998808,true,NA,NA,NA,NA,NA
GVBIbhGM,NA,NA,GVBIbhGM,2020-0188,2021-10-04,19:42:56,20:56:45,NA,incomplete,false,true,NA,8,20,abstractness,a_1_023.jpg,left,abstract,concrete,NA,NA,NA,left,2550.5,true,NA,NA,NA,NA,NA
GVBIbhGM,NA,NA,GVBIbhGM,2020-0188,2021-10-04,19:42:56,20:56:45,NA,incomplete,false,true,NA,8,21,abstractness,c_2_015.jpg,right,abstract,concrete,NA,NA,NA,left,2587.19999998808,false,NA,NA,NA,NA,NA
GVBIbhGM,NA,NA,GVBIbhGM,2020-0188,2021-10-04,19:42:56,20:56:45,NA,incomplete,false,true,NA,8,22,abstractness,a_2_010.jpg,left,abstract,concrete,NA,NA,NA,left,1040.69999998808,true,NA,NA,NA,NA,NA
GVBIbhGM,NA,NA,GVBIbhGM,2020-0188,2021-10-04,19:42:56,20:56:45,NA,incomplete,false,true,NA,8,23,abstractness,a_1_004.jpg,left,abstract,concrete,NA,NA,NA,left,1385.5,true,NA,NA,NA,NA,NA
GVBIbhGM,NA,NA,GVBIbhGM,2020-0188,2021-10-04,19:42:56,20:56:45,NA,incomplete,false,true,NA,8,24,abstractness,c_2_004.jpg,left,concrete,abstract,NA,NA,NA,left,1791.90000003576,true,NA,NA,NA,NA,NA
GVBIbhGM,NA,NA,GVBIbhGM,2020-0188,2021-10-04,19:42:56,20:56:45,NA,incomplete,false,true,NA,8,25,syllable,a_2_016.jpg,right,1 syllable,2 syllables,NA,NA,NA,right,1670.09999996424,true,NA,NA,NA,NA,NA
GVBIbhGM,NA,NA,GVBIbhGM,2020-0188,2021-10-04,19:42:56,20:56:45,NA,incomplete,false,true,NA,8,26,syllable,a_1_003.jpg,right,1 syllable,2 syllables,NA,NA,NA,left,1100.30000001192,false,NA,NA,NA,NA,NA
GVBIbhGM,NA,NA,GVBIbhGM,2020-0188,2021-10-04,19:42:56,20:56:45,NA,incomplete,false,true,NA,8,27,syllable,a_1_022.jpg,right,2 syllables,1 syllable,NA,NA,NA,right,844.5,true,NA,NA,NA,NA,NA
GVBIbhGM,NA,NA,GVBIbhGM,2020-0188,2021-10-04,19:42:56,20:56:45,NA,incomplete,false,true,NA,8,28,syllable,c_1_019.jpg,right,1 syllable,2 syllables,NA,NA,NA,left,656,false,NA,NA,NA,NA,NA
GVBIbhGM,NA,NA,GVBIbhGM,2020-0188,2021-10-04,19:42:56,20:56:45,NA,incomplete,false,true,NA,8,29,syllable,a_2_002.jpg,right,1 syllable,2 syllables,NA,NA,NA,right,1082,true,NA,NA,NA,NA,NA
GVBIbhGM,NA,NA,GVBIbhGM,2020-0188,2021-10-04,19:42:56,20:56:45,NA,incomplete,false,NA,true,8,0,NA,NA,left,NA,NA,i_c_004.jpg,o_s_014.jpg,between-small,NA,NaN,NA,left,3744.300000011921,1,1,660
GVBIbhGM,NA,NA,GVBIbhGM,2020-0188,2021-10-04,19:42:56,20:56:45,NA,incomplete,false,NA,true,8,1,NA,NA,right,NA,NA,m_l_014.jpg,m_s_002.jpg,between-small,NA,NaN,NA,left,6842.200000047684,0,1,728.8999999761581
GVBIbhGM,NA,NA,GVBIbhGM,2020-0188,2021-10-04,19:42:56,20:56:45,NA,incomplete,false,NA,true,8,2,NA,NA,right,NA,NA,a_2_016.jpg,a_2_010.jpg,between-small,NA,NaN,NA,right,4809.400000035763,1,1,997.6999999880791
GVBIbhGM,NA,NA,GVBIbhGM,2020-0188,2021-10-04,19:42:56,20:56:45,NA,incomplete,false,NA,true,8,3,NA,NA,left,NA,NA,m_l_013.jpg,m_s_013.jpg,within,NA,NaN,NA,left,8161.300000011921,1,0,665.2000000476837
GVBIbhGM,NA,NA,GVBIbhGM,2020-0188,2021-10-04,19:42:56,20:56:45,NA,incomplete,false,NA,true,8,4,NA,NA,right,NA,NA,m_s_005.jpg,m_l_001.jpg,within,NA,NaN,NA,left,3897.899999976158,0,0,999.7999999523163
GVBIbhGM,NA,NA,GVBIbhGM,2020-0188,2021-10-04,19:42:56,20:56:45,NA,incomplete,false,NA,true,8,5,NA,NA,left,NA,NA,a_1_004.jpg,a_1_003.jpg,between-small,NA,NaN,NA,left,3209.100000023842,1,1,1076
GVBIbhGM,NA,NA,GVBIbhGM,2020-0188,2021-10-04,19:42:56,20:56:45,NA,incomplete,false,NA,true,8,6,NA,NA,left,NA,NA,o_s_013.jpg,m_l_013.jpg,between-big,NA,NaN,NA,left,2850.899999976158,1,1,860.5999999642372
GVBIbhGM,NA,NA,GVBIbhGM,2020-0188,2021-10-04,19:42:56,20:56:45,NA,incomplete,false,NA,true,8,7,NA,NA,right,NA,NA,a_1_023.jpg,m_l_017.jpg,between-big,NA,NaN,NA,right,2529.699999988079,1,2,1591.800000011921
GVBIbhGM,NA,NA,GVBIbhGM,2020-0188,2021-10-04,19:42:56,20:56:45,NA,incomplete,false,NA,true,8,8,NA,NA,right,NA,NA,i_c_004.jpg,o_c_001.jpg,within,NA,NaN,NA,left,7505.5,0,1,869.3000000119209
GVBIbhGM,NA,NA,GVBIbhGM,2020-0188,2021-10-04,19:42:56,20:56:45,NA,incomplete,false,NA,true,8,9,NA,NA,left,NA,NA,a_1_023.jpg,a_1_004.jpg,within,NA,NaN,NA,left,3898.300000011921,1,0,1019.6999999880791
GVBIbhGM,NA,NA,GVBIbhGM,2020-0188,2021-10-04,19:42:56,20:56:45,NA,incomplete,false,NA,true,8,10,NA,NA,left,NA,NA,i_s_028.jpg,m_s_018.jpg,between-big,NA,NaN,NA,left,3627.899999976158,1,2,1116.6000000238419
GVBIbhGM,NA,NA,GVBIbhGM,2020-0188,2021-10-04,19:42:56,20:56:45,NA,incomplete,false,NA,true,8,11,NA,NA,right,NA,NA,i_c_022.jpg,o_s_014.jpg,within,NA,NaN,NA,left,3035.899999976158,0,1,1583.699999988079
GVBIbhGM,NA,NA,GVBIbhGM,2020-0188,2021-10-04,19:42:56,20:56:45,NA,incomplete,false,NA,true,8,12,NA,NA,right,NA,NA,n_s_023.jpg,m_l_014.jpg,within,NA,NaN,NA,left,3084.7999999523163,0,1,880
GVBIbhGM,NA,NA,GVBIbhGM,2020-0188,2021-10-04,19:42:56,20:56:45,NA,incomplete,false,NA,true,8,13,NA,NA,left,NA,NA,o_s_007.jpg,i_s_028.jpg,between-small,NA,NaN,NA,left,5425,1,1,1410.300000011921
GVBIbhGM,NA,NA,GVBIbhGM,2020-0188,2021-10-04,19:42:56,20:56:45,NA,incomplete,false,NA,true,8,14,NA,NA,left,NA,NA,n_s_023.jpg,a_2_010.jpg,between-big,NA,NaN,NA,left,9404.699999988079,1,2,841.6000000238419
GVBIbhGM,NA,NA,GVBIbhGM,2020-0188,2021-10-04,19:42:56,20:56:45,NA,incomplete,false,NA,true,8,15,NA,NA,right,NA,NA,c_2_015.jpg,m_s_005.jpg,between-big,NA,NaN,NA,left,4357.699999988079,0,1,1195.199999988079
GVBIbhGM,NA,NA,GVBIbhGM,2020-0188,2021-10-04,19:42:56,20:56:45,NA,incomplete,false,NA,true,8,16,NA,NA,right,NA,NA,m_l_017.jpg,m_s_013.jpg,between-small,NA,NaN,NA,left,2764.300000011921,0,3,3405.2000000476837
GVBIbhGM,NA,NA,GVBIbhGM,2020-0188,2021-10-04,19:42:56,20:56:45,NA,incomplete,false,NA,true,8,17,NA,NA,right,NA,NA,c_1_019.jpg,a_2_016.jpg,within,NA,NaN,NA,left,5489.899999976158,0,0,950.5
GVBIbhGM,NA,NA,GVBIbhGM,2020-0188,2021-10-04,19:42:56,20:56:45,NA,incomplete,false,NA,true,8,18,NA,NA,right,NA,NA,m_s_025.jpg,i_c_022.jpg,between-big,NA,NaN,NA,right,1969,1,2,783.3999999761581
GVBIbhGM,NA,NA,GVBIbhGM,2020-0188,2021-10-04,19:42:56,20:56:45,NA,incomplete,false,NA,true,8,19,NA,NA,left,NA,NA,m_s_025.jpg,m_l_001.jpg,between-small,NA,NaN,NA,right,3723.300000011921,0,1,1271.199999988079
GVBIbhGM,NA,NA,GVBIbhGM,2020-0188,2021-10-04,19:42:56,20:56:45,NA,incomplete,false,NA,true,8,20,NA,NA,right,NA,NA,a_2_002.jpg,a_1_003.jpg,within,NA,NaN,NA,right,4217.5,1,0,859.3000000119209
GVBIbhGM,NA,NA,GVBIbhGM,2020-0188,2021-10-04,19:42:56,20:56:45,NA,incomplete,false,NA,true,8,21,NA,NA,left,NA,NA,o_c_025.jpg,o_c_002.jpg,between-small,NA,NaN,NA,left,6391.899999976158,1,1,1147.8999999761581
GVBIbhGM,NA,NA,GVBIbhGM,2020-0188,2021-10-04,19:42:56,20:56:45,NA,incomplete,false,NA,true,8,22,NA,NA,left,NA,NA,o_c_002.jpg,o_s_013.jpg,within,NA,NaN,NA,right,4036.699999988079,0,0,1188.300000011921
GVBIbhGM,NA,NA,GVBIbhGM,2020-0188,2021-10-04,19:42:56,20:56:45,NA,incomplete,false,NA,true,8,23,NA,NA,right,NA,NA,a_1_022.jpg,c_2_004.jpg,between-small,NA,NaN,NA,right,3495.600000023842,1,1,1153.800000011921
GVBIbhGM,NA,NA,GVBIbhGM,2020-0188,2021-10-04,19:42:56,20:56:45,NA,incomplete,false,NA,true,8,24,NA,NA,left,NA,NA,o_s_004.jpg,o_s_007.jpg,within,NA,NaN,NA,left,5502.900000035763,1,1,1965.300000011921
GVBIbhGM,NA,NA,GVBIbhGM,2020-0188,2021-10-04,19:42:56,20:56:45,NA,incomplete,false,NA,true,8,25,NA,NA,right,NA,NA,m_s_002.jpg,m_s_018.jpg,within,NA,NaN,NA,right,2739.600000023842,1,1,975.3000000119209
GVBIbhGM,NA,NA,GVBIbhGM,2020-0188,2021-10-04,19:42:56,20:56:45,NA,incomplete,false,NA,true,8,26,NA,NA,right,NA,NA,c_2_004.jpg,c_2_015.jpg,within,NA,NaN,NA,right,1229.4000000357628,1,1,1021.6000000238419
GVBIbhGM,NA,NA,GVBIbhGM,2020-0188,2021-10-04,19:42:56,20:56:45,NA,incomplete,false,true,NA,9,0,location,i_s_011.jpg,left,indoor,outdoor,NA,NA,NA,left,1364,true,NA,NA,NA,NA,NA
GVBIbhGM,NA,NA,GVBIbhGM,2020-0188,2021-10-04,19:42:56,20:56:45,NA,incomplete,false,true,NA,9,1,location,i_c_006.jpg,left,indoor,outdoor,NA,NA,NA,left,971.600000023842,true,NA,NA,NA,NA,NA
GVBIbhGM,NA,NA,GVBIbhGM,2020-0188,2021-10-04,19:42:56,20:56:45,NA,incomplete,false,true,NA,9,2,location,o_s_023.jpg,left,outdoor,indoor,NA,NA,NA,left,1783.69999998808,true,NA,NA,NA,NA,NA
GVBIbhGM,NA,NA,GVBIbhGM,2020-0188,2021-10-04,19:42:56,20:56:45,NA,incomplete,false,true,NA,9,3,location,o_c_027.jpg,right,indoor,outdoor,NA,NA,NA,right,1852.69999998808,true,NA,NA,NA,NA,NA
