workerId,hitId,assignmentId,subject,studyid,exp_date,exp_start,exp_end,time_start,time_end,practice,encoding,memory,block,trial,event,stim,answer,label_left,label_right,left_image,right_image,condition,response,response_time,response_acc,order_response,order_response_time,order_acc,distance_response,distance_response_time
JI68sQzO,NA,NA,JI68sQzO,2020-0188,2021-10-04,15:16:55,16:16:21,NA,incomplete,true,true,NA,0,0,syllable,c_1_008.jpg,right,2 syllables,1 syllable,NA,NA,NA,right,1440.19999992847,true,NA,NA,NA,NA,NA
JI68sQzO,NA,NA,JI68sQzO,2020-0188,2021-10-04,15:16:55,16:16:21,NA,incomplete,true,true,NA,0,1,syllable,a_1_005.jpg,right,1 syllable,2 syllables,NA,NA,NA,left,1831.5,false,NA,NA,NA,NA,NA
JI68sQzO,NA,NA,JI68sQzO,2020-0188,2021-10-04,15:16:55,16:16:21,NA,incomplete,true,true,NA,0,2,syllable,a_1_001.jpg,right,1 syllable,2 syllables,NA,NA,NA,left,956.100000023842,false,NA,NA,NA,NA,NA
JI68sQzO,NA,NA,JI68sQzO,2020-0188,2021-10-04,15:16:55,16:16:21,NA,incomplete,true,true,NA,0,3,syllable,c_1_028.jpg,right,2 syllables,1 syllable,NA,NA,NA,right,1444.29999995232,true,NA,NA,NA,NA,NA
JI68sQzO,NA,NA,JI68sQzO,2020-0188,2021-10-04,15:16:55,16:16:21,NA,incomplete,true,true,NA,0,4,syllable,a_1_028.jpg,right,2 syllables,1 syllable,NA,NA,NA,right,1517,true,NA,NA,NA,NA,NA
JI68sQzO,NA,NA,JI68sQzO,2020-0188,2021-10-04,15:16:55,16:16:21,NA,incomplete,true,true,NA,0,5,abstractness,a_2_006.jpg,right,concrete,abstract,NA,NA,NA,right,1769.30000007153,true,NA,NA,NA,NA,NA
JI68sQzO,NA,NA,JI68sQzO,2020-0188,2021-10-04,15:16:55,16:16:21,NA,incomplete,true,true,NA,0,6,abstractness,a_1_004.jpg,left,abstract,concrete,NA,NA,NA,left,1781.39999997616,true,NA,NA,NA,NA,NA
JI68sQzO,NA,NA,JI68sQzO,2020-0188,2021-10-04,15:16:55,16:16:21,NA,incomplete,true,true,NA,0,7,abstractness,a_2_001.jpg,right,concrete,abstract,NA,NA,NA,left,1406,false,NA,NA,NA,NA,NA
JI68sQzO,NA,NA,JI68sQzO,2020-0188,2021-10-04,15:16:55,16:16:21,NA,incomplete,true,true,NA,0,8,abstractness,a_1_020.jpg,left,abstract,concrete,NA,NA,NA,left,1303.89999997616,true,NA,NA,NA,NA,NA
JI68sQzO,NA,NA,JI68sQzO,2020-0188,2021-10-04,15:16:55,16:16:21,NA,incomplete,true,true,NA,0,9,abstractness,c_1_004.jpg,left,concrete,abstract,NA,NA,NA,left,1214.5,true,NA,NA,NA,NA,NA
JI68sQzO,NA,NA,JI68sQzO,2020-0188,2021-10-04,15:16:55,16:16:21,NA,incomplete,true,true,NA,0,10,origin,m_l_021.jpg,right,natural,manmade,NA,NA,NA,right,960.800000071526,true,NA,NA,NA,NA,NA
JI68sQzO,NA,NA,JI68sQzO,2020-0188,2021-10-04,15:16:55,16:16:21,NA,incomplete,true,true,NA,0,11,origin,m_l_015.jpg,left,manmade,natural,NA,NA,NA,left,1436.39999997616,true,NA,NA,NA,NA,NA
JI68sQzO,NA,NA,JI68sQzO,2020-0188,2021-10-04,15:16:55,16:16:21,NA,incomplete,true,true,NA,0,12,origin,n_l_005.jpg,left,natural,manmade,NA,NA,NA,left,968.600000023842,true,NA,NA,NA,NA,NA
JI68sQzO,NA,NA,JI68sQzO,2020-0188,2021-10-04,15:16:55,16:16:21,NA,incomplete,true,true,NA,0,13,origin,m_l_019.jpg,left,manmade,natural,NA,NA,NA,left,1165.70000004768,true,NA,NA,NA,NA,NA
JI68sQzO,NA,NA,JI68sQzO,2020-0188,2021-10-04,15:16:55,16:16:21,NA,incomplete,true,true,NA,0,14,origin,n_s_022.jpg,left,natural,manmade,NA,NA,NA,left,1413.30000007153,true,NA,NA,NA,NA,NA
JI68sQzO,NA,NA,JI68sQzO,2020-0188,2021-10-04,15:16:55,16:16:21,NA,incomplete,true,true,NA,0,15,size,m_l_022.jpg,right,small,large,NA,NA,NA,right,1587.60000002384,true,NA,NA,NA,NA,NA
JI68sQzO,NA,NA,JI68sQzO,2020-0188,2021-10-04,15:16:55,16:16:21,NA,incomplete,true,true,NA,0,16,size,n_s_011.jpg,left,small,large,NA,NA,NA,left,2004.39999997616,true,NA,NA,NA,NA,NA
JI68sQzO,NA,NA,JI68sQzO,2020-0188,2021-10-04,15:16:55,16:16:21,NA,incomplete,true,true,NA,0,17,size,m_s_006.jpg,right,large,small,NA,NA,NA,right,991.100000023842,true,NA,NA,NA,NA,NA
JI68sQzO,NA,NA,JI68sQzO,2020-0188,2021-10-04,15:16:55,16:16:21,NA,incomplete,true,true,NA,0,18,size,n_s_002.jpg,right,large,small,NA,NA,NA,right,980.399999976158,true,NA,NA,NA,NA,NA
JI68sQzO,NA,NA,JI68sQzO,2020-0188,2021-10-04,15:16:55,16:16:21,NA,incomplete,true,true,NA,0,19,size,m_s_019.jpg,right,large,small,NA,NA,NA,right,1341.40000009537,true,NA,NA,NA,NA,NA
JI68sQzO,NA,NA,JI68sQzO,2020-0188,2021-10-04,15:16:55,16:16:21,NA,incomplete,true,true,NA,0,20,building,o_s_018.jpg,left,skyscraper,cottage,NA,NA,NA,left,1106.30000007153,true,NA,NA,NA,NA,NA
JI68sQzO,NA,NA,JI68sQzO,2020-0188,2021-10-04,15:16:55,16:16:21,NA,incomplete,true,true,NA,0,21,building,o_s_015.jpg,left,skyscraper,cottage,NA,NA,NA,left,1030.39999997616,true,NA,NA,NA,NA,NA
JI68sQzO,NA,NA,JI68sQzO,2020-0188,2021-10-04,15:16:55,16:16:21,NA,incomplete,true,true,NA,0,22,building,i_s_010.jpg,right,cottage,skyscraper,NA,NA,NA,right,974.099999904633,true,NA,NA,NA,NA,NA
JI68sQzO,NA,NA,JI68sQzO,2020-0188,2021-10-04,15:16:55,16:16:21,NA,incomplete,true,true,NA,0,23,building,o_c_011.jpg,left,cottage,skyscraper,NA,NA,NA,left,948.099999904633,true,NA,NA,NA,NA,NA
JI68sQzO,NA,NA,JI68sQzO,2020-0188,2021-10-04,15:16:55,16:16:21,NA,incomplete,true,true,NA,0,24,building,o_s_002.jpg,left,skyscraper,cottage,NA,NA,NA,left,990.899999976158,true,NA,NA,NA,NA,NA
JI68sQzO,NA,NA,JI68sQzO,2020-0188,2021-10-04,15:16:55,16:16:21,NA,incomplete,true,true,NA,0,25,location,o_s_024.jpg,left,outdoor,indoor,NA,NA,NA,left,1089.39999997616,true,NA,NA,NA,NA,NA
JI68sQzO,NA,NA,JI68sQzO,2020-0188,2021-10-04,15:16:55,16:16:21,NA,incomplete,true,true,NA,0,26,location,o_c_009.jpg,left,outdoor,indoor,NA,NA,NA,left,946.200000047684,true,NA,NA,NA,NA,NA
JI68sQzO,NA,NA,JI68sQzO,2020-0188,2021-10-04,15:16:55,16:16:21,NA,incomplete,true,true,NA,0,27,location,o_c_018.jpg,left,outdoor,indoor,NA,NA,NA,left,1052.59999990463,true,NA,NA,NA,NA,NA
JI68sQzO,NA,NA,JI68sQzO,2020-0188,2021-10-04,15:16:55,16:16:21,NA,incomplete,true,true,NA,0,28,location,i_s_008.jpg,right,outdoor,indoor,NA,NA,NA,right,940.900000095367,true,NA,NA,NA,NA,NA
JI68sQzO,NA,NA,JI68sQzO,2020-0188,2021-10-04,15:16:55,16:16:21,NA,incomplete,true,true,NA,0,29,location,o_s_022.jpg,right,indoor,outdoor,NA,NA,NA,right,955.700000047684,true,NA,NA,NA,NA,NA
JI68sQzO,NA,NA,JI68sQzO,2020-0188,2021-10-04,15:16:55,16:16:21,NA,incomplete,true,NA,true,0,0,NA,NA,right,NA,NA,m_l_015.jpg,a_1_020.jpg,between-big,NA,NaN,NA,right,2147.5,1,0,1254.6999999284744
JI68sQzO,NA,NA,JI68sQzO,2020-0188,2021-10-04,15:16:55,16:16:21,NA,incomplete,true,NA,true,0,1,NA,NA,right,NA,NA,m_l_022.jpg,n_l_005.jpg,between-small,NA,NaN,NA,left,2033.5,0,1,1360.9000000953674
JI68sQzO,NA,NA,JI68sQzO,2020-0188,2021-10-04,15:16:55,16:16:21,NA,incomplete,true,NA,true,0,2,NA,NA,left,NA,NA,m_s_006.jpg,o_s_018.jpg,between-big,NA,NaN,NA,left,1037.3000000715256,1,1,1258.3000000715256
JI68sQzO,NA,NA,JI68sQzO,2020-0188,2021-10-04,15:16:55,16:16:21,NA,incomplete,true,NA,true,0,3,NA,NA,left,NA,NA,m_l_015.jpg,n_s_022.jpg,within,NA,NaN,NA,left,1360.1000000238419,1,1,1190.8999999761581
JI68sQzO,NA,NA,JI68sQzO,2020-0188,2021-10-04,15:16:55,16:16:21,NA,incomplete,true,NA,true,0,4,NA,NA,right,NA,NA,o_c_018.jpg,o_s_002.jpg,between-small,NA,NaN,NA,right,2447.600000023842,1,1,1392.7999999523163
JI68sQzO,NA,NA,JI68sQzO,2020-0188,2021-10-04,15:16:55,16:16:21,NA,incomplete,true,NA,true,0,5,NA,NA,right,NA,NA,i_s_010.jpg,m_s_019.jpg,between-big,NA,NaN,NA,left,1279.5,0,2,1117.1000000238419
JI68sQzO,NA,NA,JI68sQzO,2020-0188,2021-10-04,15:16:55,16:16:21,NA,incomplete,true,NA,true,0,6,NA,NA,left,NA,NA,i_s_010.jpg,o_s_024.jpg,between-small,NA,NaN,NA,right,1879.3999999761581,0,1,1879.5
JI68sQzO,NA,NA,JI68sQzO,2020-0188,2021-10-04,15:16:55,16:16:21,NA,incomplete,true,NA,true,0,7,NA,NA,left,NA,NA,o_c_009.jpg,o_s_022.jpg,within,NA,NaN,NA,left,915.1999999284744,1,1,1303.7000000476837
JI68sQzO,NA,NA,JI68sQzO,2020-0188,2021-10-04,15:16:55,16:16:21,NA,incomplete,true,NA,true,0,8,NA,NA,left,NA,NA,o_s_024.jpg,i_s_008.jpg,within,NA,NaN,NA,right,1294.2000000476837,0,1,1132.1999999284744
JI68sQzO,NA,NA,JI68sQzO,2020-0188,2021-10-04,15:16:55,16:16:21,NA,incomplete,true,NA,true,0,9,NA,NA,right,NA,NA,o_c_009.jpg,o_c_011.jpg,between-small,NA,NaN,NA,left,1207.1000000238419,0,2,1084.7000000476837
JI68sQzO,NA,NA,JI68sQzO,2020-0188,2021-10-04,15:16:55,16:16:21,NA,incomplete,true,NA,true,0,10,NA,NA,left,NA,NA,m_l_021.jpg,m_l_019.jpg,within,NA,NaN,NA,left,947.1000000238419,1,1,1384.7000000476837
JI68sQzO,NA,NA,JI68sQzO,2020-0188,2021-10-04,15:16:55,16:16:21,NA,incomplete,true,NA,true,0,11,NA,NA,right,NA,NA,m_s_019.jpg,n_s_011.jpg,within,NA,NaN,NA,left,2470.9000000953674,0,0,914.8999999761581
JI68sQzO,NA,NA,JI68sQzO,2020-0188,2021-10-04,15:16:55,16:16:21,NA,incomplete,true,NA,true,0,12,NA,NA,right,NA,NA,o_c_011.jpg,o_s_018.jpg,within,NA,NaN,NA,right,2997.899999976158,1,2,1031.2999999523163
JI68sQzO,NA,NA,JI68sQzO,2020-0188,2021-10-04,15:16:55,16:16:21,NA,incomplete,true,NA,true,0,13,NA,NA,left,NA,NA,c_1_004.jpg,n_l_005.jpg,between-big,NA,NaN,NA,left,1158.1000000238419,1,1,1174.7000000476837
JI68sQzO,NA,NA,JI68sQzO,2020-0188,2021-10-04,15:16:55,16:16:21,NA,incomplete,true,NA,true,0,14,NA,NA,right,NA,NA,a_2_001.jpg,a_1_028.jpg,between-small,NA,NaN,NA,left,1101.7999999523163,0,1,1483.1000000238419
JI68sQzO,NA,NA,JI68sQzO,2020-0188,2021-10-04,15:16:55,16:16:21,NA,incomplete,true,NA,true,0,15,NA,NA,right,NA,NA,o_s_002.jpg,o_s_015.jpg,within,NA,NaN,NA,right,2884.7000000476837,1,1,850.1000000238419
JI68sQzO,NA,NA,JI68sQzO,2020-0188,2021-10-04,15:16:55,16:16:21,NA,incomplete,true,NA,true,0,16,NA,NA,right,NA,NA,a_1_028.jpg,a_1_005.jpg,within,NA,NaN,NA,right,2203.899999976158,1,1,1595
JI68sQzO,NA,NA,JI68sQzO,2020-0188,2021-10-04,15:16:55,16:16:21,NA,incomplete,true,NA,true,0,17,NA,NA,right,NA,NA,m_s_006.jpg,n_s_022.jpg,between-small,NA,NaN,NA,left,2406.399999976158,0,1,979.6000000238419
JI68sQzO,NA,NA,JI68sQzO,2020-0188,2021-10-04,15:16:55,16:16:21,NA,incomplete,true,NA,true,0,18,NA,NA,right,NA,NA,n_s_011.jpg,m_l_019.jpg,between-small,NA,NaN,NA,right,1733.8000000715256,1,1,1018.8999999761581
JI68sQzO,NA,NA,JI68sQzO,2020-0188,2021-10-04,15:16:55,16:16:21,NA,incomplete,true,NA,true,0,19,NA,NA,right,NA,NA,o_s_015.jpg,n_s_002.jpg,between-big,NA,NaN,NA,right,1839.3000000715256,1,2,1506.3000000715256
JI68sQzO,NA,NA,JI68sQzO,2020-0188,2021-10-04,15:16:55,16:16:21,NA,incomplete,true,NA,true,0,20,NA,NA,left,NA,NA,c_1_028.jpg,a_1_004.jpg,between-small,NA,NaN,NA,left,817.1000000238419,1,0,1833.3000000715256
JI68sQzO,NA,NA,JI68sQzO,2020-0188,2021-10-04,15:16:55,16:16:21,NA,incomplete,true,NA,true,0,21,NA,NA,right,NA,NA,a_2_006.jpg,a_1_001.jpg,between-small,NA,NaN,NA,left,2681.2999999523163,0,1,1741.6000000238419
JI68sQzO,NA,NA,JI68sQzO,2020-0188,2021-10-04,15:16:55,16:16:21,NA,incomplete,true,NA,true,0,22,NA,NA,left,NA,NA,a_2_006.jpg,a_1_020.jpg,within,NA,NaN,NA,left,874.6000000238419,1,1,1101.6999999284744
JI68sQzO,NA,NA,JI68sQzO,2020-0188,2021-10-04,15:16:55,16:16:21,NA,incomplete,true,NA,true,0,23,NA,NA,left,NA,NA,a_1_004.jpg,c_1_004.jpg,within,NA,NaN,NA,right,558.9000000953674,0,1,1985.2000000476837
JI68sQzO,NA,NA,JI68sQzO,2020-0188,2021-10-04,15:16:55,16:16:21,NA,incomplete,true,NA,true,0,24,NA,NA,left,NA,NA,m_l_022.jpg,n_s_002.jpg,within,NA,NaN,NA,left,1425.7000000476837,1,2,849.8000000715256
JI68sQzO,NA,NA,JI68sQzO,2020-0188,2021-10-04,15:16:55,16:16:21,NA,incomplete,true,NA,true,0,25,NA,NA,right,NA,NA,c_1_028.jpg,c_1_008.jpg,within,NA,NaN,NA,right,1271,1,0,1498.6999999284744
JI68sQzO,NA,NA,JI68sQzO,2020-0188,2021-10-04,15:16:55,16:16:21,NA,incomplete,true,NA,true,0,26,NA,NA,right,NA,NA,m_l_021.jpg,a_2_001.jpg,between-big,NA,NaN,NA,left,793.7999999523163,0,1,2746.6999999284744
JI68sQzO,NA,NA,JI68sQzO,2020-0188,2021-10-04,15:16:55,16:16:21,NA,incomplete,false,true,NA,1,0,building,i_s_022.jpg,left,skyscraper,cottage,NA,NA,NA,left,1571.70000004768,true,NA,NA,NA,NA,NA
JI68sQzO,NA,NA,JI68sQzO,2020-0188,2021-10-04,15:16:55,16:16:21,NA,incomplete,false,true,NA,1,1,building,i_s_015.jpg,left,skyscraper,cottage,NA,NA,NA,left,1711.10000002384,true,NA,NA,NA,NA,NA
JI68sQzO,NA,NA,JI68sQzO,2020-0188,2021-10-04,15:16:55,16:16:21,NA,incomplete,false,true,NA,1,2,building,o_s_026.jpg,right,cottage,skyscraper,NA,NA,NA,right,1595.70000004768,true,NA,NA,NA,NA,NA
JI68sQzO,NA,NA,JI68sQzO,2020-0188,2021-10-04,15:16:55,16:16:21,NA,incomplete,false,true,NA,1,3,building,i_s_009.jpg,left,skyscraper,cottage,NA,NA,NA,left,1362.09999990463,true,NA,NA,NA,NA,NA
JI68sQzO,NA,NA,JI68sQzO,2020-0188,2021-10-04,15:16:55,16:16:21,NA,incomplete,false,true,NA,1,4,building,o_s_012.jpg,left,skyscraper,cottage,NA,NA,NA,left,825.299999952316,true,NA,NA,NA,NA,NA
JI68sQzO,NA,NA,JI68sQzO,2020-0188,2021-10-04,15:16:55,16:16:21,NA,incomplete,false,true,NA,1,5,location,i_s_002.jpg,left,indoor,outdoor,NA,NA,NA,left,1274.5,true,NA,NA,NA,NA,NA
JI68sQzO,NA,NA,JI68sQzO,2020-0188,2021-10-04,15:16:55,16:16:21,NA,incomplete,false,true,NA,1,6,location,i_c_009.jpg,left,indoor,outdoor,NA,NA,NA,left,1545.80000007153,true,NA,NA,NA,NA,NA
JI68sQzO,NA,NA,JI68sQzO,2020-0188,2021-10-04,15:16:55,16:16:21,NA,incomplete,false,true,NA,1,7,location,i_c_019.jpg,right,outdoor,indoor,NA,NA,NA,right,1416.79999995232,true,NA,NA,NA,NA,NA
JI68sQzO,NA,NA,JI68sQzO,2020-0188,2021-10-04,15:16:55,16:16:21,NA,incomplete,false,true,NA,1,8,location,i_s_025.jpg,right,outdoor,indoor,NA,NA,NA,right,1467.60000002384,true,NA,NA,NA,NA,NA
JI68sQzO,NA,NA,JI68sQzO,2020-0188,2021-10-04,15:16:55,16:16:21,NA,incomplete,false,true,NA,1,9,location,i_s_012.jpg,left,indoor,outdoor,NA,NA,NA,left,1511.60000002384,true,NA,NA,NA,NA,NA
JI68sQzO,NA,NA,JI68sQzO,2020-0188,2021-10-04,15:16:55,16:16:21,NA,incomplete,false,true,NA,1,10,origin,n_s_009.jpg,left,natural,manmade,NA,NA,NA,left,1203.40000009537,true,NA,NA,NA,NA,NA
JI68sQzO,NA,NA,JI68sQzO,2020-0188,2021-10-04,15:16:55,16:16:21,NA,incomplete,false,true,NA,1,11,origin,n_l_012.jpg,right,manmade,natural,NA,NA,NA,right,1136.5,true,NA,NA,NA,NA,NA
JI68sQzO,NA,NA,JI68sQzO,2020-0188,2021-10-04,15:16:55,16:16:21,NA,incomplete,false,true,NA,1,12,origin,n_s_016.jpg,right,manmade,natural,NA,NA,NA,right,978.199999928474,true,NA,NA,NA,NA,NA
JI68sQzO,NA,NA,JI68sQzO,2020-0188,2021-10-04,15:16:55,16:16:21,NA,incomplete,false,true,NA,1,13,origin,m_l_003.jpg,left,manmade,natural,NA,NA,NA,left,2677.10000002384,true,NA,NA,NA,NA,NA
JI68sQzO,NA,NA,JI68sQzO,2020-0188,2021-10-04,15:16:55,16:16:21,NA,incomplete,false,true,NA,1,14,origin,n_s_012.jpg,left,natural,manmade,NA,NA,NA,left,1811.70000004768,true,NA,NA,NA,NA,NA
JI68sQzO,NA,NA,JI68sQzO,2020-0188,2021-10-04,15:16:55,16:16:21,NA,incomplete,false,true,NA,1,15,size,m_l_004.jpg,left,large,small,NA,NA,NA,left,1782.10000002384,true,NA,NA,NA,NA,NA
JI68sQzO,NA,NA,JI68sQzO,2020-0188,2021-10-04,15:16:55,16:16:21,NA,incomplete,false,true,NA,1,16,size,n_l_019.jpg,left,large,small,NA,NA,NA,left,1747.29999995232,true,NA,NA,NA,NA,NA
JI68sQzO,NA,NA,JI68sQzO,2020-0188,2021-10-04,15:16:55,16:16:21,NA,incomplete,false,true,NA,1,17,size,n_l_025.jpg,right,small,large,NA,NA,NA,right,1002.10000002384,true,NA,NA,NA,NA,NA
JI68sQzO,NA,NA,JI68sQzO,2020-0188,2021-10-04,15:16:55,16:16:21,NA,incomplete,false,true,NA,1,18,size,m_s_005.jpg,left,small,large,NA,NA,NA,left,1922.5,true,NA,NA,NA,NA,NA
JI68sQzO,NA,NA,JI68sQzO,2020-0188,2021-10-04,15:16:55,16:16:21,NA,incomplete,false,true,NA,1,19,size,n_l_014.jpg,right,small,large,NA,NA,NA,right,903.100000023842,true,NA,NA,NA,NA,NA
JI68sQzO,NA,NA,JI68sQzO,2020-0188,2021-10-04,15:16:55,16:16:21,NA,incomplete,false,true,NA,1,20,syllable,a_1_003.jpg,right,1 syllable,2 syllables,NA,NA,NA,left,1357.19999992847,false,NA,NA,NA,NA,NA
JI68sQzO,NA,NA,JI68sQzO,2020-0188,2021-10-04,15:16:55,16:16:21,NA,incomplete,false,true,NA,1,21,syllable,c_2_014.jpg,right,1 syllable,2 syllables,NA,NA,NA,right,1794.89999997616,true,NA,NA,NA,NA,NA
JI68sQzO,NA,NA,JI68sQzO,2020-0188,2021-10-04,15:16:55,16:16:21,NA,incomplete,false,true,NA,1,22,syllable,c_2_022.jpg,right,2 syllables,1 syllable,NA,NA,NA,left,1564.39999997616,false,NA,NA,NA,NA,NA
JI68sQzO,NA,NA,JI68sQzO,2020-0188,2021-10-04,15:16:55,16:16:21,NA,incomplete,false,true,NA,1,23,syllable,c_1_020.jpg,right,2 syllables,1 syllable,NA,NA,NA,right,2721.10000002384,true,NA,NA,NA,NA,NA
JI68sQzO,NA,NA,JI68sQzO,2020-0188,2021-10-04,15:16:55,16:16:21,NA,incomplete,false,true,NA,1,24,syllable,a_1_008.jpg,right,1 syllable,2 syllables,NA,NA,NA,right,2208.19999992847,true,NA,NA,NA,NA,NA
JI68sQzO,NA,NA,JI68sQzO,2020-0188,2021-10-04,15:16:55,16:16:21,NA,incomplete,false,true,NA,1,25,abstractness,a_2_026.jpg,right,concrete,abstract,NA,NA,NA,right,1811.19999992847,true,NA,NA,NA,NA,NA
JI68sQzO,NA,NA,JI68sQzO,2020-0188,2021-10-04,15:16:55,16:16:21,NA,incomplete,false,true,NA,1,26,abstractness,c_1_017.jpg,left,concrete,abstract,NA,NA,NA,left,1160.89999997616,true,NA,NA,NA,NA,NA
JI68sQzO,NA,NA,JI68sQzO,2020-0188,2021-10-04,15:16:55,16:16:21,NA,incomplete,false,true,NA,1,27,abstractness,c_1_016.jpg,left,concrete,abstract,NA,NA,NA,left,1204.79999995232,true,NA,NA,NA,NA,NA
JI68sQzO,NA,NA,JI68sQzO,2020-0188,2021-10-04,15:16:55,16:16:21,NA,incomplete,false,true,NA,1,28,abstractness,a_1_024.jpg,right,concrete,abstract,NA,NA,NA,right,1404.09999990463,true,NA,NA,NA,NA,NA
JI68sQzO,NA,NA,JI68sQzO,2020-0188,2021-10-04,15:16:55,16:16:21,NA,incomplete,false,true,NA,1,29,abstractness,a_2_008.jpg,right,concrete,abstract,NA,NA,NA,right,1481.5,true,NA,NA,NA,NA,NA
JI68sQzO,NA,NA,JI68sQzO,2020-0188,2021-10-04,15:16:55,16:16:21,NA,incomplete,false,NA,true,1,0,NA,NA,left,NA,NA,i_s_012.jpg,n_s_016.jpg,between-big,NA,NaN,NA,left,2981.8000000715256,1,2,2016.8999999761581
JI68sQzO,NA,NA,JI68sQzO,2020-0188,2021-10-04,15:16:55,16:16:21,NA,incomplete,false,NA,true,1,1,NA,NA,right,NA,NA,m_l_003.jpg,n_s_009.jpg,within,NA,NaN,NA,right,1749.3999999761581,1,1,2512
JI68sQzO,NA,NA,JI68sQzO,2020-0188,2021-10-04,15:16:55,16:16:21,NA,incomplete,false,NA,true,1,2,NA,NA,left,NA,NA,c_2_022.jpg,a_2_026.jpg,between-small,NA,NaN,NA,left,2292.2000000476837,1,1,1450.0999999046326
JI68sQzO,NA,NA,JI68sQzO,2020-0188,2021-10-04,15:16:55,16:16:21,NA,incomplete,false,NA,true,1,3,NA,NA,right,NA,NA,a_2_008.jpg,c_1_017.jpg,within,NA,NaN,NA,right,1223.4000000953674,1,2,2195.7000000476837
JI68sQzO,NA,NA,JI68sQzO,2020-0188,2021-10-04,15:16:55,16:16:21,NA,incomplete,false,NA,true,1,4,NA,NA,right,NA,NA,i_s_009.jpg,i_s_022.jpg,within,NA,NaN,NA,right,2325,1,1,1295.7000000476837
JI68sQzO,NA,NA,JI68sQzO,2020-0188,2021-10-04,15:16:55,16:16:21,NA,incomplete,false,NA,true,1,5,NA,NA,left,NA,NA,m_l_003.jpg,n_l_019.jpg,between-small,NA,NaN,NA,right,1636,0,1,1967.7000000476837
JI68sQzO,NA,NA,JI68sQzO,2020-0188,2021-10-04,15:16:55,16:16:21,NA,incomplete,false,NA,true,1,6,NA,NA,right,NA,NA,a_1_003.jpg,n_l_025.jpg,between-big,NA,NaN,NA,left,3159.2999999523163,0,1,1113.2000000476837
JI68sQzO,NA,NA,JI68sQzO,2020-0188,2021-10-04,15:16:55,16:16:21,NA,incomplete,false,NA,true,1,7,NA,NA,left,NA,NA,o_s_012.jpg,i_c_019.jpg,between-small,NA,NaN,NA,left,1190.1000000238419,1,1,1222.2999999523163
JI68sQzO,NA,NA,JI68sQzO,2020-0188,2021-10-04,15:16:55,16:16:21,NA,incomplete,false,NA,true,1,8,NA,NA,right,NA,NA,c_1_020.jpg,a_1_003.jpg,within,NA,NaN,NA,left,2052.899999976158,0,1,1076.5999999046326
JI68sQzO,NA,NA,JI68sQzO,2020-0188,2021-10-04,15:16:55,16:16:21,NA,incomplete,false,NA,true,1,9,NA,NA,left,NA,NA,i_c_019.jpg,n_s_009.jpg,between-big,NA,NaN,NA,left,1781.9000000953674,1,2,1044.6000000238419
JI68sQzO,NA,NA,JI68sQzO,2020-0188,2021-10-04,15:16:55,16:16:21,NA,incomplete,false,NA,true,1,10,NA,NA,left,NA,NA,n_l_014.jpg,c_2_022.jpg,between-big,NA,NaN,NA,left,1247.1000000238419,1,1,2754.399999976158
JI68sQzO,NA,NA,JI68sQzO,2020-0188,2021-10-04,15:16:55,16:16:21,NA,incomplete,false,NA,true,1,11,NA,NA,left,NA,NA,i_s_015.jpg,o_s_012.jpg,within,NA,NaN,NA,left,1425.3999999761581,1,1,1166.8000000715256
JI68sQzO,NA,NA,JI68sQzO,2020-0188,2021-10-04,15:16:55,16:16:21,NA,incomplete,false,NA,true,1,12,NA,NA,left,NA,NA,i_s_009.jpg,i_c_009.jpg,between-small,NA,NaN,NA,left,1684.7999999523163,1,1,1255.3999999761581
JI68sQzO,NA,NA,JI68sQzO,2020-0188,2021-10-04,15:16:55,16:16:21,NA,incomplete,false,NA,true,1,13,NA,NA,left,NA,NA,c_2_014.jpg,a_1_008.jpg,within,NA,NaN,NA,right,1134.1999999284744,0,1,1125.8000000715256
JI68sQzO,NA,NA,JI68sQzO,2020-0188,2021-10-04,15:16:55,16:16:21,NA,incomplete,false,NA,true,1,14,NA,NA,left,NA,NA,n_l_019.jpg,n_l_014.jpg,within,NA,NaN,NA,left,582.8999999761581,1,2,1676.6999999284744
JI68sQzO,NA,NA,JI68sQzO,2020-0188,2021-10-04,15:16:55,16:16:21,NA,incomplete,false,NA,true,1,15,NA,NA,right,NA,NA,a_1_024.jpg,a_2_026.jpg,within,NA,NaN,NA,left,1020.1000000238419,0,1,1538.7000000476837
JI68sQzO,NA,NA,JI68sQzO,2020-0188,2021-10-04,15:16:55,16:16:21,NA,incomplete,false,NA,true,1,16,NA,NA,left,NA,NA,m_l_004.jpg,m_s_005.jpg,within,NA,NaN,NA,left,1683,1,1,1303.3999999761581
JI68sQzO,NA,NA,JI68sQzO,2020-0188,2021-10-04,15:16:55,16:16:21,NA,incomplete,false,NA,true,1,17,NA,NA,right,NA,NA,c_2_014.jpg,m_s_005.jpg,between-big,NA,NaN,NA,right,2016.6000000238419,1,1,1319.6000000238419
JI68sQzO,NA,NA,JI68sQzO,2020-0188,2021-10-04,15:16:55,16:16:21,NA,incomplete,false,NA,true,1,18,NA,NA,left,NA,NA,o_s_026.jpg,i_s_002.jpg,between-small,NA,NaN,NA,left,1514.6000000238419,1,1,1133.2999999523163
JI68sQzO,NA,NA,JI68sQzO,2020-0188,2021-10-04,15:16:55,16:16:21,NA,incomplete,false,NA,true,1,19,NA,NA,left,NA,NA,n_l_012.jpg,n_s_012.jpg,within,NA,NaN,NA,right,1644.2999999523163,0,1,2236
JI68sQzO,NA,NA,JI68sQzO,2020-0188,2021-10-04,15:16:55,16:16:21,NA,incomplete,false,NA,true,1,20,NA,NA,right,NA,NA,n_l_012.jpg,i_s_025.jpg,between-big,NA,NaN,NA,right,1322.7999999523163,1,2,1117.6000000238419
JI68sQzO,NA,NA,JI68sQzO,2020-0188,2021-10-04,15:16:55,16:16:21,NA,incomplete,false,NA,true,1,21,NA,NA,right,NA,NA,i_s_025.jpg,i_s_002.jpg,within,NA,NaN,NA,left,4389.200000047684,0,1,955.6000000238419
JI68sQzO,NA,NA,JI68sQzO,2020-0188,2021-10-04,15:16:55,16:16:21,NA,incomplete,false,NA,true,1,22,NA,NA,left,NA,NA,n_s_012.jpg,n_l_025.jpg,between-small,NA,NaN,NA,right,1563.3999999761581,0,2,1643.5999999046326
JI68sQzO,NA,NA,JI68sQzO,2020-0188,2021-10-04,15:16:55,16:16:21,NA,incomplete,false,NA,true,1,23,NA,NA,left,NA,NA,i_c_009.jpg,i_s_012.jpg,within,NA,NaN,NA,left,1101.7000000476837,1,1,1028.3999999761581
JI68sQzO,NA,NA,JI68sQzO,2020-0188,2021-10-04,15:16:55,16:16:21,NA,incomplete,false,NA,true,1,24,NA,NA,right,NA,NA,c_1_016.jpg,a_1_008.jpg,between-small,NA,NaN,NA,left,849.6000000238419,0,1,2097.399999976158
JI68sQzO,NA,NA,JI68sQzO,2020-0188,2021-10-04,15:16:55,16:16:21,NA,incomplete,false,NA,true,1,25,NA,NA,right,NA,NA,c_1_017.jpg,c_1_020.jpg,between-small,NA,NaN,NA,left,1361.1000000238419,0,1,1514
JI68sQzO,NA,NA,JI68sQzO,2020-0188,2021-10-04,15:16:55,16:16:21,NA,incomplete,false,NA,true,1,26,NA,NA,right,NA,NA,m_l_004.jpg,n_s_016.jpg,between-small,NA,NaN,NA,right,1661.1000000238419,1,1,1295.6000000238419
JI68sQzO,NA,NA,JI68sQzO,2020-0188,2021-10-04,15:16:55,16:16:21,NA,incomplete,false,true,NA,2,0,building,i_s_018.jpg,right,cottage,skyscraper,NA,NA,NA,right,1835.30000007153,true,NA,NA,NA,NA,NA
JI68sQzO,NA,NA,JI68sQzO,2020-0188,2021-10-04,15:16:55,16:16:21,NA,incomplete,false,true,NA,2,1,building,o_s_010.jpg,left,skyscraper,cottage,NA,NA,NA,left,1401.79999995232,true,NA,NA,NA,NA,NA
JI68sQzO,NA,NA,JI68sQzO,2020-0188,2021-10-04,15:16:55,16:16:21,NA,incomplete,false,true,NA,2,2,building,i_c_023.jpg,right,skyscraper,cottage,NA,NA,NA,right,1501.60000002384,true,NA,NA,NA,NA,NA
JI68sQzO,NA,NA,JI68sQzO,2020-0188,2021-10-04,15:16:55,16:16:21,NA,incomplete,false,true,NA,2,3,building,o_s_019.jpg,right,cottage,skyscraper,NA,NA,NA,right,1260.10000002384,true,NA,NA,NA,NA,NA
JI68sQzO,NA,NA,JI68sQzO,2020-0188,2021-10-04,15:16:55,16:16:21,NA,incomplete,false,true,NA,2,4,building,o_c_028.jpg,left,cottage,skyscraper,NA,NA,NA,left,1091.19999992847,true,NA,NA,NA,NA,NA
JI68sQzO,NA,NA,JI68sQzO,2020-0188,2021-10-04,15:16:55,16:16:21,NA,incomplete,false,true,NA,2,5,location,i_c_001.jpg,left,indoor,outdoor,NA,NA,NA,left,1179,true,NA,NA,NA,NA,NA
JI68sQzO,NA,NA,JI68sQzO,2020-0188,2021-10-04,15:16:55,16:16:21,NA,incomplete,false,true,NA,2,6,location,i_s_006.jpg,right,outdoor,indoor,NA,NA,NA,right,1236.60000002384,true,NA,NA,NA,NA,NA
JI68sQzO,NA,NA,JI68sQzO,2020-0188,2021-10-04,15:16:55,16:16:21,NA,incomplete,false,true,NA,2,7,location,i_s_024.jpg,left,indoor,outdoor,NA,NA,NA,left,1396.89999997616,true,NA,NA,NA,NA,NA
JI68sQzO,NA,NA,JI68sQzO,2020-0188,2021-10-04,15:16:55,16:16:21,NA,incomplete,false,true,NA,2,8,location,o_c_007.jpg,left,outdoor,indoor,NA,NA,NA,left,2514.5,true,NA,NA,NA,NA,NA
JI68sQzO,NA,NA,JI68sQzO,2020-0188,2021-10-04,15:16:55,16:16:21,NA,incomplete,false,true,NA,2,9,location,i_c_015.jpg,right,outdoor,indoor,NA,NA,NA,right,1192.29999995232,true,NA,NA,NA,NA,NA
JI68sQzO,NA,NA,JI68sQzO,2020-0188,2021-10-04,15:16:55,16:16:21,NA,incomplete,false,true,NA,2,10,syllable,c_2_003.jpg,right,1 syllable,2 syllables,NA,NA,NA,right,1217.60000002384,true,NA,NA,NA,NA,NA
JI68sQzO,NA,NA,JI68sQzO,2020-0188,2021-10-04,15:16:55,16:16:21,NA,incomplete,false,true,NA,2,11,syllable,a_1_006.jpg,right,1 syllable,2 syllables,NA,NA,NA,left,1281.5,false,NA,NA,NA,NA,NA
JI68sQzO,NA,NA,JI68sQzO,2020-0188,2021-10-04,15:16:55,16:16:21,NA,incomplete,false,true,NA,2,12,syllable,a_1_026.jpg,right,2 syllables,1 syllable,NA,NA,NA,right,1152.5,true,NA,NA,NA,NA,NA
JI68sQzO,NA,NA,JI68sQzO,2020-0188,2021-10-04,15:16:55,16:16:21,NA,incomplete,false,true,NA,2,13,syllable,a_2_002.jpg,right,2 syllables,1 syllable,NA,NA,NA,left,1862.5,false,NA,NA,NA,NA,NA
JI68sQzO,NA,NA,JI68sQzO,2020-0188,2021-10-04,15:16:55,16:16:21,NA,incomplete,false,true,NA,2,14,syllable,c_1_019.jpg,right,1 syllable,2 syllables,NA,NA,NA,left,1596.60000002384,false,NA,NA,NA,NA,NA
JI68sQzO,NA,NA,JI68sQzO,2020-0188,2021-10-04,15:16:55,16:16:21,NA,incomplete,false,true,NA,2,15,abstractness,a_2_016.jpg,left,abstract,concrete,NA,NA,NA,left,2635.19999992847,true,NA,NA,NA,NA,NA
JI68sQzO,NA,NA,JI68sQzO,2020-0188,2021-10-04,15:16:55,16:16:21,NA,incomplete,false,true,NA,2,16,abstractness,a_1_014.jpg,left,abstract,concrete,NA,NA,NA,left,1550.30000007153,true,NA,NA,NA,NA,NA
JI68sQzO,NA,NA,JI68sQzO,2020-0188,2021-10-04,15:16:55,16:16:21,NA,incomplete,false,true,NA,2,17,abstractness,c_2_018.jpg,left,concrete,abstract,NA,NA,NA,left,1712.29999995232,true,NA,NA,NA,NA,NA
JI68sQzO,NA,NA,JI68sQzO,2020-0188,2021-10-04,15:16:55,16:16:21,NA,incomplete,false,true,NA,2,18,abstractness,a_2_009.jpg,left,abstract,concrete,NA,NA,NA,right,2135.70000004768,false,NA,NA,NA,NA,NA
JI68sQzO,NA,NA,JI68sQzO,2020-0188,2021-10-04,15:16:55,16:16:21,NA,incomplete,false,true,NA,2,19,abstractness,c_2_024.jpg,right,abstract,concrete,NA,NA,NA,right,1710.40000009537,true,NA,NA,NA,NA,NA
JI68sQzO,NA,NA,JI68sQzO,2020-0188,2021-10-04,15:16:55,16:16:21,NA,incomplete,false,true,NA,2,20,origin,n_s_024.jpg,left,natural,manmade,NA,NA,NA,left,1148.80000007153,true,NA,NA,NA,NA,NA
JI68sQzO,NA,NA,JI68sQzO,2020-0188,2021-10-04,15:16:55,16:16:21,NA,incomplete,false,true,NA,2,21,origin,m_s_022.jpg,right,natural,manmade,NA,NA,NA,right,1633.19999992847,true,NA,NA,NA,NA,NA
JI68sQzO,NA,NA,JI68sQzO,2020-0188,2021-10-04,15:16:55,16:16:21,NA,incomplete,false,true,NA,2,22,origin,m_s_012.jpg,left,manmade,natural,NA,NA,NA,left,1234.79999995232,true,NA,NA,NA,NA,NA
JI68sQzO,NA,NA,JI68sQzO,2020-0188,2021-10-04,15:16:55,16:16:21,NA,incomplete,false,true,NA,2,23,origin,n_s_001.jpg,left,natural,manmade,NA,NA,NA,left,1237.29999995232,true,NA,NA,NA,NA,NA
JI68sQzO,NA,NA,JI68sQzO,2020-0188,2021-10-04,15:16:55,16:16:21,NA,incomplete,false,true,NA,2,24,origin,m_s_021.jpg,left,manmade,natural,NA,NA,NA,left,1105.89999997616,true,NA,NA,NA,NA,NA
JI68sQzO,NA,NA,JI68sQzO,2020-0188,2021-10-04,15:16:55,16:16:21,NA,incomplete,false,true,NA,2,25,size,n_s_023.jpg,right,large,small,NA,NA,NA,none,0,false,NA,NA,NA,NA,NA
JI68sQzO,NA,NA,JI68sQzO,2020-0188,2021-10-04,15:16:55,16:16:21,NA,incomplete,false,true,NA,2,26,size,m_l_001.jpg,right,small,large,NA,NA,NA,right,1075.20000004768,true,NA,NA,NA,NA,NA
JI68sQzO,NA,NA,JI68sQzO,2020-0188,2021-10-04,15:16:55,16:16:21,NA,incomplete,false,true,NA,2,27,size,m_l_010.jpg,right,small,large,NA,NA,NA,right,1151.79999995232,true,NA,NA,NA,NA,NA
JI68sQzO,NA,NA,JI68sQzO,2020-0188,2021-10-04,15:16:55,16:16:21,NA,incomplete,false,true,NA,2,28,size,m_l_006.jpg,right,small,large,NA,NA,NA,right,2000,true,NA,NA,NA,NA,NA
JI68sQzO,NA,NA,JI68sQzO,2020-0188,2021-10-04,15:16:55,16:16:21,NA,incomplete,false,true,NA,2,29,size,n_l_026.jpg,right,small,large,NA,NA,NA,right,1998.10000002384,true,NA,NA,NA,NA,NA
JI68sQzO,NA,NA,JI68sQzO,2020-0188,2021-10-04,15:16:55,16:16:21,NA,incomplete,false,NA,true,2,0,NA,NA,right,NA,NA,a_1_014.jpg,a_2_002.jpg,between-small,NA,NaN,NA,right,2714.100000023842,1,1,2146.600000023842
JI68sQzO,NA,NA,JI68sQzO,2020-0188,2021-10-04,15:16:55,16:16:21,NA,incomplete,false,NA,true,2,1,NA,NA,left,NA,NA,i_s_024.jpg,c_2_003.jpg,between-big,NA,NaN,NA,left,1417.5,1,2,888.5
JI68sQzO,NA,NA,JI68sQzO,2020-0188,2021-10-04,15:16:55,16:16:21,NA,incomplete,false,NA,true,2,2,NA,NA,right,NA,NA,m_l_010.jpg,m_s_021.jpg,between-small,NA,NaN,NA,left,1302.2999999523163,0,2,1239.9000000953674
JI68sQzO,NA,NA,JI68sQzO,2020-0188,2021-10-04,15:16:55,16:16:21,NA,incomplete,false,NA,true,2,3,NA,NA,left,NA,NA,n_s_001.jpg,m_l_001.jpg,between-small,NA,NaN,NA,right,1773.7999999523163,0,1,1271.2000000476837
JI68sQzO,NA,NA,JI68sQzO,2020-0188,2021-10-04,15:16:55,16:16:21,NA,incomplete,false,NA,true,2,4,NA,NA,right,NA,NA,a_2_016.jpg,a_1_026.jpg,between-small,NA,NaN,NA,left,1157.5,0,1,962.3999999761581
JI68sQzO,NA,NA,JI68sQzO,2020-0188,2021-10-04,15:16:55,16:16:21,NA,incomplete,false,NA,true,2,5,NA,NA,right,NA,NA,c_2_018.jpg,c_1_019.jpg,between-small,NA,NaN,NA,right,1855.5,1,2,962.8000000715256
JI68sQzO,NA,NA,JI68sQzO,2020-0188,2021-10-04,15:16:55,16:16:21,NA,incomplete,false,NA,true,2,6,NA,NA,right,NA,NA,i_c_015.jpg,i_s_006.jpg,within,NA,NaN,NA,left,1636.1000000238419,0,1,947.6000000238419
JI68sQzO,NA,NA,JI68sQzO,2020-0188,2021-10-04,15:16:55,16:16:21,NA,incomplete,false,NA,true,2,7,NA,NA,right,NA,NA,m_s_022.jpg,a_2_009.jpg,between-big,NA,NaN,NA,left,931.7000000476837,0,1,1441.1999999284744
JI68sQzO,NA,NA,JI68sQzO,2020-0188,2021-10-04,15:16:55,16:16:21,NA,incomplete,false,NA,true,2,8,NA,NA,right,NA,NA,c_2_024.jpg,a_1_014.jpg,within,NA,NaN,NA,left,2463.100000023842,0,1,1700.7999999523163
JI68sQzO,NA,NA,JI68sQzO,2020-0188,2021-10-04,15:16:55,16:16:21,NA,incomplete,false,NA,true,2,9,NA,NA,left,NA,NA,m_s_022.jpg,m_s_021.jpg,within,NA,NaN,NA,left,2487.100000023842,1,1,1101.2000000476837
JI68sQzO,NA,NA,JI68sQzO,2020-0188,2021-10-04,15:16:55,16:16:21,NA,incomplete,false,NA,true,2,10,NA,NA,left,NA,NA,i_c_023.jpg,i_c_001.jpg,between-small,NA,NaN,NA,left,1782.0999999046326,1,1,907
JI68sQzO,NA,NA,JI68sQzO,2020-0188,2021-10-04,15:16:55,16:16:21,NA,incomplete,false,NA,true,2,11,NA,NA,left,NA,NA,n_s_023.jpg,m_l_006.jpg,within,NA,NaN,NA,left,1547.2999999523163,1,0,857.8999999761581
JI68sQzO,NA,NA,JI68sQzO,2020-0188,2021-10-04,15:16:55,16:16:21,NA,incomplete,false,NA,true,2,12,NA,NA,left,NA,NA,c_2_024.jpg,m_s_012.jpg,between-big,NA,NaN,NA,right,1692.3000000715256,0,1,1052.4000000953674
JI68sQzO,NA,NA,JI68sQzO,2020-0188,2021-10-04,15:16:55,16:16:21,NA,incomplete,false,NA,true,2,13,NA,NA,left,NA,NA,o_s_010.jpg,o_c_028.jpg,within,NA,NaN,NA,left,1320.2000000476837,1,0,1352
JI68sQzO,NA,NA,JI68sQzO,2020-0188,2021-10-04,15:16:55,16:16:21,NA,incomplete,false,NA,true,2,14,NA,NA,right,NA,NA,o_s_019.jpg,i_s_018.jpg,within,NA,NaN,NA,left,1295.9000000953674,0,1,1295.8000000715256
JI68sQzO,NA,NA,JI68sQzO,2020-0188,2021-10-04,15:16:55,16:16:21,NA,incomplete,false,NA,true,2,15,NA,NA,right,NA,NA,i_s_024.jpg,o_c_028.jpg,between-small,NA,NaN,NA,left,1491.3999999761581,0,2,1409.1999999284744
JI68sQzO,NA,NA,JI68sQzO,2020-0188,2021-10-04,15:16:55,16:16:21,NA,incomplete,false,NA,true,2,16,NA,NA,right,NA,NA,a_1_006.jpg,o_c_007.jpg,between-big,NA,NaN,NA,right,1886.7000000476837,1,2,1133.3000000715256
JI68sQzO,NA,NA,JI68sQzO,2020-0188,2021-10-04,15:16:55,16:16:21,NA,incomplete,false,NA,true,2,17,NA,NA,left,NA,NA,i_c_015.jpg,a_1_026.jpg,between-big,NA,NaN,NA,left,2219.399999976158,1,2,2243.899999976158
JI68sQzO,NA,NA,JI68sQzO,2020-0188,2021-10-04,15:16:55,16:16:21,NA,incomplete,false,NA,true,2,18,NA,NA,right,NA,NA,o_c_007.jpg,i_c_001.jpg,within,NA,NaN,NA,left,2568,0,1,987.6000000238419
JI68sQzO,NA,NA,JI68sQzO,2020-0188,2021-10-04,15:16:55,16:16:21,NA,incomplete,false,NA,true,2,19,NA,NA,right,NA,NA,a_2_002.jpg,c_2_003.jpg,within,NA,NaN,NA,left,906.6999999284744,0,1,1109.1000000238419
JI68sQzO,NA,NA,JI68sQzO,2020-0188,2021-10-04,15:16:55,16:16:21,NA,incomplete,false,NA,true,2,20,NA,NA,left,NA,NA,m_s_012.jpg,n_s_023.jpg,between-small,NA,NaN,NA,left,810.1000000238419,1,1,2381.5
JI68sQzO,NA,NA,JI68sQzO,2020-0188,2021-10-04,15:16:55,16:16:21,NA,incomplete,false,NA,true,2,21,NA,NA,right,NA,NA,c_1_019.jpg,a_1_006.jpg,within,NA,NaN,NA,left,4618.5,0,1,970.8999999761581
JI68sQzO,NA,NA,JI68sQzO,2020-0188,2021-10-04,15:16:55,16:16:21,NA,incomplete,false,NA,true,2,22,NA,NA,right,NA,NA,n_s_001.jpg,n_s_024.jpg,within,NA,NaN,NA,right,1206.8000000715256,1,1,850.3999999761581
JI68sQzO,NA,NA,JI68sQzO,2020-0188,2021-10-04,15:16:55,16:16:21,NA,incomplete,false,NA,true,2,23,NA,NA,left,NA,NA,a_2_016.jpg,a_2_009.jpg,within,NA,NaN,NA,left,1303.8999999761581,1,1,1052.6000000238419
JI68sQzO,NA,NA,JI68sQzO,2020-0188,2021-10-04,15:16:55,16:16:21,NA,incomplete,false,NA,true,2,24,NA,NA,left,NA,NA,m_l_001.jpg,n_l_026.jpg,within,NA,NaN,NA,left,1038.3999999761581,1,1,1773.7999999523163
JI68sQzO,NA,NA,JI68sQzO,2020-0188,2021-10-04,15:16:55,16:16:21,NA,incomplete,false,NA,true,2,25,NA,NA,right,NA,NA,n_s_024.jpg,c_2_018.jpg,between-big,NA,NaN,NA,left,1886.7999999523163,0,1,1045.6000000238419
JI68sQzO,NA,NA,JI68sQzO,2020-0188,2021-10-04,15:16:55,16:16:21,NA,incomplete,false,NA,true,2,26,NA,NA,right,NA,NA,i_s_006.jpg,o_s_019.jpg,between-small,NA,NaN,NA,right,1482.1999999284744,1,1,955
JI68sQzO,NA,NA,JI68sQzO,2020-0188,2021-10-04,15:16:55,16:16:21,NA,incomplete,false,true,NA,3,0,origin,m_s_007.jpg,left,manmade,natural,NA,NA,NA,left,2585.39999997616,true,NA,NA,NA,NA,NA
JI68sQzO,NA,NA,JI68sQzO,2020-0188,2021-10-04,15:16:55,16:16:21,NA,incomplete,false,true,NA,3,1,origin,n_s_006.jpg,left,natural,manmade,NA,NA,NA,left,1617.89999997616,true,NA,NA,NA,NA,NA
JI68sQzO,NA,NA,JI68sQzO,2020-0188,2021-10-04,15:16:55,16:16:21,NA,incomplete,false,true,NA,3,2,origin,m_s_002.jpg,right,natural,manmade,NA,NA,NA,right,1353.39999997616,true,NA,NA,NA,NA,NA
JI68sQzO,NA,NA,JI68sQzO,2020-0188,2021-10-04,15:16:55,16:16:21,NA,incomplete,false,true,NA,3,3,origin,n_s_003.jpg,right,manmade,natural,NA,NA,NA,right,1398.70000004768,true,NA,NA,NA,NA,NA
JI68sQzO,NA,NA,JI68sQzO,2020-0188,2021-10-04,15:16:55,16:16:21,NA,incomplete,false,true,NA,3,4,origin,n_l_011.jpg,left,natural,manmade,NA,NA,NA,left,1453.20000004768,true,NA,NA,NA,NA,NA
JI68sQzO,NA,NA,JI68sQzO,2020-0188,2021-10-04,15:16:55,16:16:21,NA,incomplete,false,true,NA,3,5,size,n_l_020.jpg,left,large,small,NA,NA,NA,left,1887.29999995232,true,NA,NA,NA,NA,NA
JI68sQzO,NA,NA,JI68sQzO,2020-0188,2021-10-04,15:16:55,16:16:21,NA,incomplete,false,true,NA,3,6,size,m_l_027.jpg,left,large,small,NA,NA,NA,left,1563.89999997616,true,NA,NA,NA,NA,NA
JI68sQzO,NA,NA,JI68sQzO,2020-0188,2021-10-04,15:16:55,16:16:21,NA,incomplete,false,true,NA,3,7,size,m_s_014.jpg,left,small,large,NA,NA,NA,left,1644.60000002384,true,NA,NA,NA,NA,NA
JI68sQzO,NA,NA,JI68sQzO,2020-0188,2021-10-04,15:16:55,16:16:21,NA,incomplete,false,true,NA,3,8,size,m_l_005.jpg,left,large,small,NA,NA,NA,left,2426.19999992847,true,NA,NA,NA,NA,NA
JI68sQzO,NA,NA,JI68sQzO,2020-0188,2021-10-04,15:16:55,16:16:21,NA,incomplete,false,true,NA,3,9,size,n_l_016.jpg,left,large,small,NA,NA,NA,left,1655.80000007153,true,NA,NA,NA,NA,NA
JI68sQzO,NA,NA,JI68sQzO,2020-0188,2021-10-04,15:16:55,16:16:21,NA,incomplete,false,true,NA,3,10,building,o_c_014.jpg,left,cottage,skyscraper,NA,NA,NA,left,1703.19999992847,true,NA,NA,NA,NA,NA
JI68sQzO,NA,NA,JI68sQzO,2020-0188,2021-10-04,15:16:55,16:16:21,NA,incomplete,false,true,NA,3,11,building,o_s_005.jpg,right,cottage,skyscraper,NA,NA,NA,right,1604.39999997616,true,NA,NA,NA,NA,NA
JI68sQzO,NA,NA,JI68sQzO,2020-0188,2021-10-04,15:16:55,16:16:21,NA,incomplete,false,true,NA,3,12,building,i_c_012.jpg,left,cottage,skyscraper,NA,NA,NA,left,1566.79999995232,true,NA,NA,NA,NA,NA
JI68sQzO,NA,NA,JI68sQzO,2020-0188,2021-10-04,15:16:55,16:16:21,NA,incomplete,false,true,NA,3,13,building,i_c_016.jpg,right,skyscraper,cottage,NA,NA,NA,right,1144.80000007153,true,NA,NA,NA,NA,NA
JI68sQzO,NA,NA,JI68sQzO,2020-0188,2021-10-04,15:16:55,16:16:21,NA,incomplete,false,true,NA,3,14,building,o_s_008.jpg,left,skyscraper,cottage,NA,NA,NA,left,1490.19999992847,true,NA,NA,NA,NA,NA
JI68sQzO,NA,NA,JI68sQzO,2020-0188,2021-10-04,15:16:55,16:16:21,NA,incomplete,false,true,NA,3,15,location,i_c_022.jpg,right,outdoor,indoor,NA,NA,NA,right,2123.39999997616,true,NA,NA,NA,NA,NA
JI68sQzO,NA,NA,JI68sQzO,2020-0188,2021-10-04,15:16:55,16:16:21,NA,incomplete,false,true,NA,3,16,location,o_c_022.jpg,left,outdoor,indoor,NA,NA,NA,left,1936,true,NA,NA,NA,NA,NA
JI68sQzO,NA,NA,JI68sQzO,2020-0188,2021-10-04,15:16:55,16:16:21,NA,incomplete,false,true,NA,3,17,location,i_s_016.jpg,left,indoor,outdoor,NA,NA,NA,left,2424.5,true,NA,NA,NA,NA,NA
JI68sQzO,NA,NA,JI68sQzO,2020-0188,2021-10-04,15:16:55,16:16:21,NA,incomplete,false,true,NA,3,18,location,i_s_001.jpg,right,outdoor,indoor,NA,NA,NA,right,2279.40000009537,true,NA,NA,NA,NA,NA
JI68sQzO,NA,NA,JI68sQzO,2020-0188,2021-10-04,15:16:55,16:16:21,NA,incomplete,false,true,NA,3,19,location,o_c_003.jpg,left,outdoor,indoor,NA,NA,NA,left,1708,true,NA,NA,NA,NA,NA
JI68sQzO,NA,NA,JI68sQzO,2020-0188,2021-10-04,15:16:55,16:16:21,NA,incomplete,false,true,NA,3,20,syllable,a_1_023.jpg,right,1 syllable,2 syllables,NA,NA,NA,left,1423.10000002384,false,NA,NA,NA,NA,NA
JI68sQzO,NA,NA,JI68sQzO,2020-0188,2021-10-04,15:16:55,16:16:21,NA,incomplete,false,true,NA,3,21,syllable,a_2_025.jpg,right,1 syllable,2 syllables,NA,NA,NA,right,1411.79999995232,true,NA,NA,NA,NA,NA
JI68sQzO,NA,NA,JI68sQzO,2020-0188,2021-10-04,15:16:55,16:16:21,NA,incomplete,false,true,NA,3,22,syllable,c_2_015.jpg,right,2 syllables,1 syllable,NA,NA,NA,left,1526.80000007153,false,NA,NA,NA,NA,NA
JI68sQzO,NA,NA,JI68sQzO,2020-0188,2021-10-04,15:16:55,16:16:21,NA,incomplete,false,true,NA,3,23,syllable,c_2_027.jpg,right,2 syllables,1 syllable,NA,NA,NA,left,1532.5,false,NA,NA,NA,NA,NA
JI68sQzO,NA,NA,JI68sQzO,2020-0188,2021-10-04,15:16:55,16:16:21,NA,incomplete,false,true,NA,3,24,syllable,c_2_025.jpg,right,2 syllables,1 syllable,NA,NA,NA,left,1537.5,false,NA,NA,NA,NA,NA
JI68sQzO,NA,NA,JI68sQzO,2020-0188,2021-10-04,15:16:55,16:16:21,NA,incomplete,false,true,NA,3,25,abstractness,c_1_001.jpg,left,concrete,abstract,NA,NA,NA,left,2642,true,NA,NA,NA,NA,NA
JI68sQzO,NA,NA,JI68sQzO,2020-0188,2021-10-04,15:16:55,16:16:21,NA,incomplete,false,true,NA,3,26,abstractness,a_2_003.jpg,right,concrete,abstract,NA,NA,NA,right,2090.90000009537,true,NA,NA,NA,NA,NA
JI68sQzO,NA,NA,JI68sQzO,2020-0188,2021-10-04,15:16:55,16:16:21,NA,incomplete,false,true,NA,3,27,abstractness,a_2_011.jpg,left,abstract,concrete,NA,NA,NA,left,2689.80000007153,true,NA,NA,NA,NA,NA
JI68sQzO,NA,NA,JI68sQzO,2020-0188,2021-10-04,15:16:55,16:16:21,NA,incomplete,false,true,NA,3,28,abstractness,c_2_013.jpg,left,concrete,abstract,NA,NA,NA,left,1973,true,NA,NA,NA,NA,NA
JI68sQzO,NA,NA,JI68sQzO,2020-0188,2021-10-04,15:16:55,16:16:21,NA,incomplete,false,true,NA,3,29,abstractness,a_1_015.jpg,right,concrete,abstract,NA,NA,NA,right,2256.40000009537,true,NA,NA,NA,NA,NA
JI68sQzO,NA,NA,JI68sQzO,2020-0188,2021-10-04,15:16:55,16:16:21,NA,incomplete,false,NA,true,3,0,NA,NA,right,NA,NA,c_2_015.jpg,o_c_003.jpg,between-big,NA,NaN,NA,right,4519.5,1,2,1570.3999999761581
JI68sQzO,NA,NA,JI68sQzO,2020-0188,2021-10-04,15:16:55,16:16:21,NA,incomplete,false,NA,true,3,1,NA,NA,left,NA,NA,n_s_003.jpg,m_l_027.jpg,between-small,NA,NaN,NA,left,1838,1,0,1579.5
JI68sQzO,NA,NA,JI68sQzO,2020-0188,2021-10-04,15:16:55,16:16:21,NA,incomplete,false,NA,true,3,2,NA,NA,left,NA,NA,c_2_027.jpg,a_2_003.jpg,between-small,NA,NaN,NA,left,1457.7000000476837,1,1,1790.3999999761581
JI68sQzO,NA,NA,JI68sQzO,2020-0188,2021-10-04,15:16:55,16:16:21,NA,incomplete,false,NA,true,3,3,NA,NA,left,NA,NA,o_c_014.jpg,i_c_016.jpg,within,NA,NaN,NA,left,1474.5,1,1,1247.2000000476837
JI68sQzO,NA,NA,JI68sQzO,2020-0188,2021-10-04,15:16:55,16:16:21,NA,incomplete,false,NA,true,3,4,NA,NA,right,NA,NA,a_1_015.jpg,a_2_003.jpg,within,NA,NaN,NA,right,2260.399999976158,1,2,1085
JI68sQzO,NA,NA,JI68sQzO,2020-0188,2021-10-04,15:16:55,16:16:21,NA,incomplete,false,NA,true,3,5,NA,NA,left,NA,NA,i_s_001.jpg,a_2_025.jpg,between-big,NA,NaN,NA,left,1174.8999999761581,1,2,1618.1000000238419
JI68sQzO,NA,NA,JI68sQzO,2020-0188,2021-10-04,15:16:55,16:16:21,NA,incomplete,false,NA,true,3,6,NA,NA,right,NA,NA,a_1_023.jpg,i_s_016.jpg,between-big,NA,NaN,NA,right,1441.6999999284744,1,2,1344.3999999761581
JI68sQzO,NA,NA,JI68sQzO,2020-0188,2021-10-04,15:16:55,16:16:21,NA,incomplete,false,NA,true,3,7,NA,NA,right,NA,NA,i_s_001.jpg,i_c_022.jpg,within,NA,NaN,NA,left,1464.7999999523163,0,1,1547.3999999761581
JI68sQzO,NA,NA,JI68sQzO,2020-0188,2021-10-04,15:16:55,16:16:21,NA,incomplete,false,NA,true,3,8,NA,NA,left,NA,NA,m_l_027.jpg,n_l_016.jpg,within,NA,NaN,NA,left,1587.4000000953674,1,1,1012.3999999761581
JI68sQzO,NA,NA,JI68sQzO,2020-0188,2021-10-04,15:16:55,16:16:21,NA,incomplete,false,NA,true,3,9,NA,NA,left,NA,NA,n_l_016.jpg,i_c_012.jpg,between-big,NA,NaN,NA,left,3370.4000000953674,1,2,1481.6999999284744
JI68sQzO,NA,NA,JI68sQzO,2020-0188,2021-10-04,15:16:55,16:16:21,NA,incomplete,false,NA,true,3,10,NA,NA,left,NA,NA,c_2_025.jpg,a_2_011.jpg,between-small,NA,NaN,NA,left,2551.8000000715256,1,1,1312.3999999761581
JI68sQzO,NA,NA,JI68sQzO,2020-0188,2021-10-04,15:16:55,16:16:21,NA,incomplete,false,NA,true,3,11,NA,NA,right,NA,NA,i_s_016.jpg,o_s_008.jpg,between-small,NA,NaN,NA,left,857.7000000476837,0,1,1595.3999999761581
JI68sQzO,NA,NA,JI68sQzO,2020-0188,2021-10-04,15:16:55,16:16:21,NA,incomplete,false,NA,true,3,12,NA,NA,left,NA,NA,c_2_015.jpg,c_1_001.jpg,between-small,NA,NaN,NA,right,655.2000000476837,0,1,1603.7000000476837
JI68sQzO,NA,NA,JI68sQzO,2020-0188,2021-10-04,15:16:55,16:16:21,NA,incomplete,false,NA,true,3,13,NA,NA,right,NA,NA,c_2_025.jpg,a_2_025.jpg,within,NA,NaN,NA,right,889.3999999761581,1,1,1134
JI68sQzO,NA,NA,JI68sQzO,2020-0188,2021-10-04,15:16:55,16:16:21,NA,incomplete,false,NA,true,3,14,NA,NA,right,NA,NA,m_s_014.jpg,n_l_011.jpg,between-small,NA,NaN,NA,right,2730.5999999046326,1,0,1060.8999999761581
JI68sQzO,NA,NA,JI68sQzO,2020-0188,2021-10-04,15:16:55,16:16:21,NA,incomplete,false,NA,true,3,15,NA,NA,right,NA,NA,n_s_003.jpg,m_s_007.jpg,within,NA,NaN,NA,left,1320,0,2,2414
JI68sQzO,NA,NA,JI68sQzO,2020-0188,2021-10-04,15:16:55,16:16:21,NA,incomplete,false,NA,true,3,16,NA,NA,left,NA,NA,n_s_006.jpg,n_l_011.jpg,within,NA,NaN,NA,right,1360.7999999523163,0,2,1677.2000000476837
JI68sQzO,NA,NA,JI68sQzO,2020-0188,2021-10-04,15:16:55,16:16:21,NA,incomplete,false,NA,true,3,17,NA,NA,left,NA,NA,n_l_020.jpg,m_l_005.jpg,within,NA,NaN,NA,right,1676.2999999523163,0,2,1271.5
JI68sQzO,NA,NA,JI68sQzO,2020-0188,2021-10-04,15:16:55,16:16:21,NA,incomplete,false,NA,true,3,18,NA,NA,left,NA,NA,c_1_001.jpg,c_2_013.jpg,within,NA,NaN,NA,right,3605,0,1,2299.9000000953674
JI68sQzO,NA,NA,JI68sQzO,2020-0188,2021-10-04,15:16:55,16:16:21,NA,incomplete,false,NA,true,3,19,NA,NA,left,NA,NA,m_l_005.jpg,o_s_005.jpg,between-big,NA,NaN,NA,left,809.8000000715256,1,1,1222.5
JI68sQzO,NA,NA,JI68sQzO,2020-0188,2021-10-04,15:16:55,16:16:21,NA,incomplete,false,NA,true,3,20,NA,NA,right,NA,NA,o_s_008.jpg,o_s_005.jpg,within,NA,NaN,NA,right,793.5,1,0,1434
JI68sQzO,NA,NA,JI68sQzO,2020-0188,2021-10-04,15:16:55,16:16:21,NA,incomplete,false,NA,true,3,21,NA,NA,left,NA,NA,m_s_014.jpg,o_c_014.jpg,between-big,NA,NaN,NA,left,2146.7999999523163,1,1,1052.3999999761581
JI68sQzO,NA,NA,JI68sQzO,2020-0188,2021-10-04,15:16:55,16:16:21,NA,incomplete,false,NA,true,3,22,NA,NA,right,NA,NA,o_c_022.jpg,i_c_016.jpg,between-small,NA,NaN,NA,left,1482.5,0,2,1676.8999999761581
JI68sQzO,NA,NA,JI68sQzO,2020-0188,2021-10-04,15:16:55,16:16:21,NA,incomplete,false,NA,true,3,23,NA,NA,left,NA,NA,a_1_023.jpg,c_2_027.jpg,within,NA,NaN,NA,right,1733.3999999761581,0,2,2041.5
JI68sQzO,NA,NA,JI68sQzO,2020-0188,2021-10-04,15:16:55,16:16:21,NA,incomplete,false,NA,true,3,24,NA,NA,left,NA,NA,i_c_012.jpg,i_c_022.jpg,between-small,NA,NaN,NA,left,939.2000000476837,1,2,1049.7999999523163
JI68sQzO,NA,NA,JI68sQzO,2020-0188,2021-10-04,15:16:55,16:16:21,NA,incomplete,false,NA,true,3,25,NA,NA,left,NA,NA,m_s_002.jpg,n_l_020.jpg,between-small,NA,NaN,NA,right,1941.5999999046326,0,0,1862.6999999284744
JI68sQzO,NA,NA,JI68sQzO,2020-0188,2021-10-04,15:16:55,16:16:21,NA,incomplete,false,NA,true,3,26,NA,NA,left,NA,NA,o_c_022.jpg,o_c_003.jpg,within,NA,NaN,NA,right,1750.5,0,1,1117.1999999284744
JI68sQzO,NA,NA,JI68sQzO,2020-0188,2021-10-04,15:16:55,16:16:21,NA,incomplete,false,true,NA,4,0,origin,n_l_024.jpg,left,natural,manmade,NA,NA,NA,left,1422.30000007153,true,NA,NA,NA,NA,NA
JI68sQzO,NA,NA,JI68sQzO,2020-0188,2021-10-04,15:16:55,16:16:21,NA,incomplete,false,true,NA,4,1,origin,n_l_017.jpg,right,manmade,natural,NA,NA,NA,right,1472.10000002384,true,NA,NA,NA,NA,NA
JI68sQzO,NA,NA,JI68sQzO,2020-0188,2021-10-04,15:16:55,16:16:21,NA,incomplete,false,true,NA,4,2,origin,n_s_007.jpg,left,natural,manmade,NA,NA,NA,left,1646.19999992847,true,NA,NA,NA,NA,NA
JI68sQzO,NA,NA,JI68sQzO,2020-0188,2021-10-04,15:16:55,16:16:21,NA,incomplete,false,true,NA,4,3,origin,n_s_026.jpg,left,natural,manmade,NA,NA,NA,left,1473.29999995232,true,NA,NA,NA,NA,NA
JI68sQzO,NA,NA,JI68sQzO,2020-0188,2021-10-04,15:16:55,16:16:21,NA,incomplete,false,true,NA,4,4,origin,m_l_016.jpg,left,manmade,natural,NA,NA,NA,left,1048.80000007153,true,NA,NA,NA,NA,NA
JI68sQzO,NA,NA,JI68sQzO,2020-0188,2021-10-04,15:16:55,16:16:21,NA,incomplete,false,true,NA,4,5,size,m_s_009.jpg,left,small,large,NA,NA,NA,left,1460.90000009537,true,NA,NA,NA,NA,NA
JI68sQzO,NA,NA,JI68sQzO,2020-0188,2021-10-04,15:16:55,16:16:21,NA,incomplete,false,true,NA,4,6,size,n_l_006.jpg,right,small,large,NA,NA,NA,right,1270.89999997616,true,NA,NA,NA,NA,NA
JI68sQzO,NA,NA,JI68sQzO,2020-0188,2021-10-04,15:16:55,16:16:21,NA,incomplete,false,true,NA,4,7,size,m_l_024.jpg,left,large,small,NA,NA,NA,right,1982.5,false,NA,NA,NA,NA,NA
JI68sQzO,NA,NA,JI68sQzO,2020-0188,2021-10-04,15:16:55,16:16:21,NA,incomplete,false,true,NA,4,8,size,n_l_021.jpg,right,small,large,NA,NA,NA,right,2196.5,true,NA,NA,NA,NA,NA
JI68sQzO,NA,NA,JI68sQzO,2020-0188,2021-10-04,15:16:55,16:16:21,NA,incomplete,false,true,NA,4,9,size,n_s_027.jpg,left,small,large,NA,NA,NA,left,1389.80000007153,true,NA,NA,NA,NA,NA
JI68sQzO,NA,NA,JI68sQzO,2020-0188,2021-10-04,15:16:55,16:16:21,NA,incomplete,false,true,NA,4,10,location,i_c_018.jpg,left,indoor,outdoor,NA,NA,NA,left,1388.20000004768,true,NA,NA,NA,NA,NA
JI68sQzO,NA,NA,JI68sQzO,2020-0188,2021-10-04,15:16:55,16:16:21,NA,incomplete,false,true,NA,4,11,location,i_s_020.jpg,left,indoor,outdoor,NA,NA,NA,left,1377.90000009537,true,NA,NA,NA,NA,NA
JI68sQzO,NA,NA,JI68sQzO,2020-0188,2021-10-04,15:16:55,16:16:21,NA,incomplete,false,true,NA,4,12,location,o_c_024.jpg,right,indoor,outdoor,NA,NA,NA,right,1659,true,NA,NA,NA,NA,NA
JI68sQzO,NA,NA,JI68sQzO,2020-0188,2021-10-04,15:16:55,16:16:21,NA,incomplete,false,true,NA,4,13,location,i_s_003.jpg,right,outdoor,indoor,NA,NA,NA,right,1515.10000002384,true,NA,NA,NA,NA,NA
JI68sQzO,NA,NA,JI68sQzO,2020-0188,2021-10-04,15:16:55,16:16:21,NA,incomplete,false,true,NA,4,14,location,o_s_006.jpg,left,outdoor,indoor,NA,NA,NA,left,1154.59999990463,true,NA,NA,NA,NA,NA
JI68sQzO,NA,NA,JI68sQzO,2020-0188,2021-10-04,15:16:55,16:16:21,NA,incomplete,false,true,NA,4,15,building,o_s_004.jpg,right,cottage,skyscraper,NA,NA,NA,right,1531.29999995232,true,NA,NA,NA,NA,NA
JI68sQzO,NA,NA,JI68sQzO,2020-0188,2021-10-04,15:16:55,16:16:21,NA,incomplete,false,true,NA,4,16,building,o_c_025.jpg,left,cottage,skyscraper,NA,NA,NA,left,1292.19999992847,true,NA,NA,NA,NA,NA
JI68sQzO,NA,NA,JI68sQzO,2020-0188,2021-10-04,15:16:55,16:16:21,NA,incomplete,false,true,NA,4,17,building,o_c_006.jpg,left,cottage,skyscraper,NA,NA,NA,left,1334.20000004768,true,NA,NA,NA,NA,NA
JI68sQzO,NA,NA,JI68sQzO,2020-0188,2021-10-04,15:16:55,16:16:21,NA,incomplete,false,true,NA,4,18,building,i_c_027.jpg,left,cottage,skyscraper,NA,NA,NA,left,1304,true,NA,NA,NA,NA,NA
JI68sQzO,NA,NA,JI68sQzO,2020-0188,2021-10-04,15:16:55,16:16:21,NA,incomplete,false,true,NA,4,19,building,i_c_011.jpg,left,cottage,skyscraper,NA,NA,NA,left,1147.60000002384,true,NA,NA,NA,NA,NA
JI68sQzO,NA,NA,JI68sQzO,2020-0188,2021-10-04,15:16:55,16:16:21,NA,incomplete,false,true,NA,4,20,syllable,c_1_023.jpg,right,2 syllables,1 syllable,NA,NA,NA,right,1467.70000004768,true,NA,NA,NA,NA,NA
JI68sQzO,NA,NA,JI68sQzO,2020-0188,2021-10-04,15:16:55,16:16:21,NA,incomplete,false,true,NA,4,21,syllable,a_1_027.jpg,right,1 syllable,2 syllables,NA,NA,NA,left,1378.30000007153,false,NA,NA,NA,NA,NA
JI68sQzO,NA,NA,JI68sQzO,2020-0188,2021-10-04,15:16:55,16:16:21,NA,incomplete,false,true,NA,4,22,syllable,c_2_023.jpg,right,1 syllable,2 syllables,NA,NA,NA,left,1629.19999992847,false,NA,NA,NA,NA,NA
JI68sQzO,NA,NA,JI68sQzO,2020-0188,2021-10-04,15:16:55,16:16:21,NA,incomplete,false,true,NA,4,23,syllable,c_1_003.jpg,right,1 syllable,2 syllables,NA,NA,NA,left,854.400000095367,false,NA,NA,NA,NA,NA
JI68sQzO,NA,NA,JI68sQzO,2020-0188,2021-10-04,15:16:55,16:16:21,NA,incomplete,false,true,NA,4,24,syllable,a_1_019.jpg,right,1 syllable,2 syllables,NA,NA,NA,left,890.800000071526,false,NA,NA,NA,NA,NA
JI68sQzO,NA,NA,JI68sQzO,2020-0188,2021-10-04,15:16:55,16:16:21,NA,incomplete,false,true,NA,4,25,abstractness,c_1_022.jpg,left,concrete,abstract,NA,NA,NA,left,1887.39999997616,true,NA,NA,NA,NA,NA
JI68sQzO,NA,NA,JI68sQzO,2020-0188,2021-10-04,15:16:55,16:16:21,NA,incomplete,false,true,NA,4,26,abstractness,c_2_007.jpg,right,abstract,concrete,NA,NA,NA,right,949.5,true,NA,NA,NA,NA,NA
JI68sQzO,NA,NA,JI68sQzO,2020-0188,2021-10-04,15:16:55,16:16:21,NA,incomplete,false,true,NA,4,27,abstractness,a_2_022.jpg,left,abstract,concrete,NA,NA,NA,left,1055.5,true,NA,NA,NA,NA,NA
JI68sQzO,NA,NA,JI68sQzO,2020-0188,2021-10-04,15:16:55,16:16:21,NA,incomplete,false,true,NA,4,28,abstractness,c_2_006.jpg,right,abstract,concrete,NA,NA,NA,right,1044.10000002384,true,NA,NA,NA,NA,NA
JI68sQzO,NA,NA,JI68sQzO,2020-0188,2021-10-04,15:16:55,16:16:21,NA,incomplete,false,true,NA,4,29,abstractness,c_1_014.jpg,left,concrete,abstract,NA,NA,NA,left,1192.39999997616,true,NA,NA,NA,NA,NA
JI68sQzO,NA,NA,JI68sQzO,2020-0188,2021-10-04,15:16:55,16:16:21,NA,incomplete,false,NA,true,4,0,NA,NA,left,NA,NA,o_c_006.jpg,c_1_023.jpg,between-big,NA,NaN,NA,left,2802.0999999046326,1,2,1505.1000000238419
JI68sQzO,NA,NA,JI68sQzO,2020-0188,2021-10-04,15:16:55,16:16:21,NA,incomplete,false,NA,true,4,1,NA,NA,right,NA,NA,i_c_027.jpg,o_s_004.jpg,within,NA,NaN,NA,right,3823.399999976158,1,1,1522.2000000476837
JI68sQzO,NA,NA,JI68sQzO,2020-0188,2021-10-04,15:16:55,16:16:21,NA,incomplete,false,NA,true,4,2,NA,NA,left,NA,NA,m_s_009.jpg,n_l_021.jpg,within,NA,NaN,NA,left,1167.7999999523163,1,1,1037.1000000238419
JI68sQzO,NA,NA,JI68sQzO,2020-0188,2021-10-04,15:16:55,16:16:21,NA,incomplete,false,NA,true,4,3,NA,NA,right,NA,NA,o_s_004.jpg,o_c_024.jpg,between-small,NA,NaN,NA,left,1758,0,1,1343.7999999523163
JI68sQzO,NA,NA,JI68sQzO,2020-0188,2021-10-04,15:16:55,16:16:21,NA,incomplete,false,NA,true,4,4,NA,NA,left,NA,NA,a_1_019.jpg,a_2_022.jpg,between-small,NA,NaN,NA,left,1449.7000000476837,1,1,1839.2000000476837
JI68sQzO,NA,NA,JI68sQzO,2020-0188,2021-10-04,15:16:55,16:16:21,NA,incomplete,false,NA,true,4,5,NA,NA,left,NA,NA,m_l_024.jpg,i_c_018.jpg,between-big,NA,NaN,NA,left,1547.1000000238419,1,2,2017
JI68sQzO,NA,NA,JI68sQzO,2020-0188,2021-10-04,15:16:55,16:16:21,NA,incomplete,false,NA,true,4,6,NA,NA,right,NA,NA,o_c_025.jpg,i_s_003.jpg,between-small,NA,NaN,NA,right,1741.4000000953674,1,1,1100.8000000715256
JI68sQzO,NA,NA,JI68sQzO,2020-0188,2021-10-04,15:16:55,16:16:21,NA,incomplete,false,NA,true,4,7,NA,NA,right,NA,NA,a_1_027.jpg,i_c_027.jpg,between-big,NA,NaN,NA,left,1043.8000000715256,0,1,1012
JI68sQzO,NA,NA,JI68sQzO,2020-0188,2021-10-04,15:16:55,16:16:21,NA,incomplete,false,NA,true,4,8,NA,NA,left,NA,NA,o_c_025.jpg,i_c_011.jpg,within,NA,NaN,NA,left,1482.3999999761581,1,1,1271.6999999284744
JI68sQzO,NA,NA,JI68sQzO,2020-0188,2021-10-04,15:16:55,16:16:21,NA,incomplete,false,NA,true,4,9,NA,NA,right,NA,NA,i_s_003.jpg,i_c_018.jpg,within,NA,NaN,NA,right,2657.2999999523163,1,1,1158
JI68sQzO,NA,NA,JI68sQzO,2020-0188,2021-10-04,15:16:55,16:16:21,NA,incomplete,false,NA,true,4,10,NA,NA,left,NA,NA,n_l_024.jpg,n_s_026.jpg,within,NA,NaN,NA,left,1449.2999999523163,1,2,1184.8999999761581
JI68sQzO,NA,NA,JI68sQzO,2020-0188,2021-10-04,15:16:55,16:16:21,NA,incomplete,false,NA,true,4,11,NA,NA,right,NA,NA,a_1_019.jpg,a_1_027.jpg,within,NA,NaN,NA,left,1133.6999999284744,0,2,963.2999999523163
JI68sQzO,NA,NA,JI68sQzO,2020-0188,2021-10-04,15:16:55,16:16:21,NA,incomplete,false,NA,true,4,12,NA,NA,right,NA,NA,c_1_022.jpg,c_2_023.jpg,between-small,NA,NaN,NA,left,1028.5,0,0,1497.8999999761581
JI68sQzO,NA,NA,JI68sQzO,2020-0188,2021-10-04,15:16:55,16:16:21,NA,incomplete,false,NA,true,4,13,NA,NA,right,NA,NA,o_c_024.jpg,n_s_027.jpg,between-big,NA,NaN,NA,left,1028.5,0,2,1012.3999999761581
JI68sQzO,NA,NA,JI68sQzO,2020-0188,2021-10-04,15:16:55,16:16:21,NA,incomplete,false,NA,true,4,14,NA,NA,right,NA,NA,c_2_023.jpg,i_c_011.jpg,between-big,NA,NaN,NA,right,1442.2999999523163,1,2,2203.2000000476837
JI68sQzO,NA,NA,JI68sQzO,2020-0188,2021-10-04,15:16:55,16:16:21,NA,incomplete,false,NA,true,4,15,NA,NA,left,NA,NA,n_l_021.jpg,i_s_020.jpg,between-big,NA,NaN,NA,left,857.8999999761581,1,2,996.3000000715256
JI68sQzO,NA,NA,JI68sQzO,2020-0188,2021-10-04,15:16:55,16:16:21,NA,incomplete,false,NA,true,4,16,NA,NA,right,NA,NA,c_2_006.jpg,c_1_022.jpg,within,NA,NaN,NA,right,3322.100000023842,1,1,1139.0999999046326
JI68sQzO,NA,NA,JI68sQzO,2020-0188,2021-10-04,15:16:55,16:16:21,NA,incomplete,false,NA,true,4,17,NA,NA,right,NA,NA,m_l_024.jpg,m_l_016.jpg,between-small,NA,NaN,NA,left,939.2999999523163,0,0,1628
JI68sQzO,NA,NA,JI68sQzO,2020-0188,2021-10-04,15:16:55,16:16:21,NA,incomplete,false,NA,true,4,18,NA,NA,right,NA,NA,c_1_003.jpg,c_1_023.jpg,within,NA,NaN,NA,left,1400.6000000238419,0,1,941.2999999523163
JI68sQzO,NA,NA,JI68sQzO,2020-0188,2021-10-04,15:16:55,16:16:21,NA,incomplete,false,NA,true,4,19,NA,NA,right,NA,NA,m_s_009.jpg,n_s_007.jpg,between-small,NA,NaN,NA,left,1692.8000000715256,0,1,1034.2999999523163
JI68sQzO,NA,NA,JI68sQzO,2020-0188,2021-10-04,15:16:55,16:16:21,NA,incomplete,false,NA,true,4,20,NA,NA,left,NA,NA,c_1_003.jpg,c_2_007.jpg,between-small,NA,NaN,NA,right,2115.8000000715256,0,2,1068.8999999761581
JI68sQzO,NA,NA,JI68sQzO,2020-0188,2021-10-04,15:16:55,16:16:21,NA,incomplete,false,NA,true,4,21,NA,NA,left,NA,NA,o_s_006.jpg,o_c_006.jpg,between-small,NA,NaN,NA,right,2859.4000000953674,0,0,1271.7000000476837
JI68sQzO,NA,NA,JI68sQzO,2020-0188,2021-10-04,15:16:55,16:16:21,NA,incomplete,false,NA,true,4,22,NA,NA,left,NA,NA,n_l_017.jpg,m_l_016.jpg,within,NA,NaN,NA,right,2299.899999976158,0,1,1185.8999999761581
JI68sQzO,NA,NA,JI68sQzO,2020-0188,2021-10-04,15:16:55,16:16:21,NA,incomplete,false,NA,true,4,23,NA,NA,right,NA,NA,n_l_006.jpg,n_s_026.jpg,between-small,NA,NaN,NA,left,1133.7999999523163,0,0,1408.5
JI68sQzO,NA,NA,JI68sQzO,2020-0188,2021-10-04,15:16:55,16:16:21,NA,incomplete,false,NA,true,4,24,NA,NA,right,NA,NA,c_1_014.jpg,c_2_007.jpg,within,NA,NaN,NA,left,1057,0,2,995
JI68sQzO,NA,NA,JI68sQzO,2020-0188,2021-10-04,15:16:55,16:16:21,NA,incomplete,false,NA,true,4,25,NA,NA,right,NA,NA,o_s_006.jpg,i_s_020.jpg,within,NA,NaN,NA,right,2737.5,1,1,1105
JI68sQzO,NA,NA,JI68sQzO,2020-0188,2021-10-04,15:16:55,16:16:21,NA,incomplete,false,NA,true,4,26,NA,NA,right,NA,NA,n_s_027.jpg,n_l_006.jpg,within,NA,NaN,NA,right,1085.4000000953674,1,1,1294.6000000238419
JI68sQzO,NA,NA,JI68sQzO,2020-0188,2021-10-04,15:16:55,16:16:21,NA,incomplete,false,true,NA,5,0,building,o_s_007.jpg,left,skyscraper,cottage,NA,NA,NA,left,1435.60000002384,true,NA,NA,NA,NA,NA
JI68sQzO,NA,NA,JI68sQzO,2020-0188,2021-10-04,15:16:55,16:16:21,NA,incomplete,false,true,NA,5,1,building,o_s_021.jpg,left,skyscraper,cottage,NA,NA,NA,left,1771.29999995232,true,NA,NA,NA,NA,NA
JI68sQzO,NA,NA,JI68sQzO,2020-0188,2021-10-04,15:16:55,16:16:21,NA,incomplete,false,true,NA,5,2,building,i_s_028.jpg,right,cottage,skyscraper,NA,NA,NA,right,2064.30000007153,true,NA,NA,NA,NA,NA
JI68sQzO,NA,NA,JI68sQzO,2020-0188,2021-10-04,15:16:55,16:16:21,NA,incomplete,false,true,NA,5,3,building,i_c_021.jpg,left,cottage,skyscraper,NA,NA,NA,left,1525.20000004768,true,NA,NA,NA,NA,NA
JI68sQzO,NA,NA,JI68sQzO,2020-0188,2021-10-04,15:16:55,16:16:21,NA,incomplete,false,true,NA,5,4,building,o_c_001.jpg,left,cottage,skyscraper,NA,NA,NA,left,1741.79999995232,true,NA,NA,NA,NA,NA
JI68sQzO,NA,NA,JI68sQzO,2020-0188,2021-10-04,15:16:55,16:16:21,NA,incomplete,false,true,NA,5,5,location,i_s_027.jpg,left,indoor,outdoor,NA,NA,NA,left,1800.5,true,NA,NA,NA,NA,NA
JI68sQzO,NA,NA,JI68sQzO,2020-0188,2021-10-04,15:16:55,16:16:21,NA,incomplete,false,true,NA,5,6,location,o_c_021.jpg,left,outdoor,indoor,NA,NA,NA,left,2472,true,NA,NA,NA,NA,NA
JI68sQzO,NA,NA,JI68sQzO,2020-0188,2021-10-04,15:16:55,16:16:21,NA,incomplete,false,true,NA,5,7,location,i_s_023.jpg,right,outdoor,indoor,NA,NA,NA,right,2110.80000007153,true,NA,NA,NA,NA,NA
JI68sQzO,NA,NA,JI68sQzO,2020-0188,2021-10-04,15:16:55,16:16:21,NA,incomplete,false,true,NA,5,8,location,o_c_015.jpg,right,indoor,outdoor,NA,NA,NA,right,2438.20000004768,true,NA,NA,NA,NA,NA
JI68sQzO,NA,NA,JI68sQzO,2020-0188,2021-10-04,15:16:55,16:16:21,NA,incomplete,false,true,NA,5,9,location,o_c_010.jpg,left,outdoor,indoor,NA,NA,NA,left,1879.5,true,NA,NA,NA,NA,NA
JI68sQzO,NA,NA,JI68sQzO,2020-0188,2021-10-04,15:16:55,16:16:21,NA,incomplete,false,true,NA,5,10,syllable,a_2_024.jpg,right,1 syllable,2 syllables,NA,NA,NA,right,1431.19999992847,true,NA,NA,NA,NA,NA
JI68sQzO,NA,NA,JI68sQzO,2020-0188,2021-10-04,15:16:55,16:16:21,NA,incomplete,false,true,NA,5,11,syllable,a_1_016.jpg,right,1 syllable,2 syllables,NA,NA,NA,left,1122.19999992847,false,NA,NA,NA,NA,NA
JI68sQzO,NA,NA,JI68sQzO,2020-0188,2021-10-04,15:16:55,16:16:21,NA,incomplete,false,true,NA,5,12,syllable,a_1_018.jpg,right,1 syllable,2 syllables,NA,NA,NA,left,1655.70000004768,false,NA,NA,NA,NA,NA
JI68sQzO,NA,NA,JI68sQzO,2020-0188,2021-10-04,15:16:55,16:16:21,NA,incomplete,false,true,NA,5,13,syllable,a_2_027.jpg,right,2 syllables,1 syllable,NA,NA,NA,left,2924.5,false,NA,NA,NA,NA,NA
JI68sQzO,NA,NA,JI68sQzO,2020-0188,2021-10-04,15:16:55,16:16:21,NA,incomplete,false,true,NA,5,14,syllable,c_1_018.jpg,right,1 syllable,2 syllables,NA,NA,NA,left,971.600000023842,false,NA,NA,NA,NA,NA
JI68sQzO,NA,NA,JI68sQzO,2020-0188,2021-10-04,15:16:55,16:16:21,NA,incomplete,false,true,NA,5,15,abstractness,c_1_006.jpg,left,concrete,abstract,NA,NA,NA,left,2065.10000002384,true,NA,NA,NA,NA,NA
JI68sQzO,NA,NA,JI68sQzO,2020-0188,2021-10-04,15:16:55,16:16:21,NA,incomplete,false,true,NA,5,16,abstractness,c_2_021.jpg,right,abstract,concrete,NA,NA,NA,right,1682.5,true,NA,NA,NA,NA,NA
JI68sQzO,NA,NA,JI68sQzO,2020-0188,2021-10-04,15:16:55,16:16:21,NA,incomplete,false,true,NA,5,17,abstractness,c_1_002.jpg,right,abstract,concrete,NA,NA,NA,right,1322.90000009537,true,NA,NA,NA,NA,NA
JI68sQzO,NA,NA,JI68sQzO,2020-0188,2021-10-04,15:16:55,16:16:21,NA,incomplete,false,true,NA,5,18,abstractness,a_1_022.jpg,left,abstract,concrete,NA,NA,NA,left,2210,true,NA,NA,NA,NA,NA
JI68sQzO,NA,NA,JI68sQzO,2020-0188,2021-10-04,15:16:55,16:16:21,NA,incomplete,false,true,NA,5,19,abstractness,c_2_019.jpg,left,concrete,abstract,NA,NA,NA,left,2267.20000004768,true,NA,NA,NA,NA,NA
JI68sQzO,NA,NA,JI68sQzO,2020-0188,2021-10-04,15:16:55,16:16:21,NA,incomplete,false,true,NA,5,20,origin,n_s_015.jpg,left,natural,manmade,NA,NA,NA,left,1513.10000002384,true,NA,NA,NA,NA,NA
JI68sQzO,NA,NA,JI68sQzO,2020-0188,2021-10-04,15:16:55,16:16:21,NA,incomplete,false,true,NA,5,21,origin,m_s_025.jpg,right,natural,manmade,NA,NA,NA,left,1223,false,NA,NA,NA,NA,NA
JI68sQzO,NA,NA,JI68sQzO,2020-0188,2021-10-04,15:16:55,16:16:21,NA,incomplete,false,true,NA,5,22,origin,n_s_004.jpg,right,manmade,natural,NA,NA,NA,right,1407.39999997616,true,NA,NA,NA,NA,NA
JI68sQzO,NA,NA,JI68sQzO,2020-0188,2021-10-04,15:16:55,16:16:21,NA,incomplete,false,true,NA,5,23,origin,m_l_007.jpg,right,natural,manmade,NA,NA,NA,right,1853.70000004768,true,NA,NA,NA,NA,NA
JI68sQzO,NA,NA,JI68sQzO,2020-0188,2021-10-04,15:16:55,16:16:21,NA,incomplete,false,true,NA,5,24,origin,n_l_007.jpg,right,manmade,natural,NA,NA,NA,right,994.100000023842,true,NA,NA,NA,NA,NA
JI68sQzO,NA,NA,JI68sQzO,2020-0188,2021-10-04,15:16:55,16:16:21,NA,incomplete,false,true,NA,5,25,size,m_l_009.jpg,left,large,small,NA,NA,NA,left,2257.5,true,NA,NA,NA,NA,NA
JI68sQzO,NA,NA,JI68sQzO,2020-0188,2021-10-04,15:16:55,16:16:21,NA,incomplete,false,true,NA,5,26,size,m_s_024.jpg,left,small,large,NA,NA,NA,left,1150.5,true,NA,NA,NA,NA,NA
JI68sQzO,NA,NA,JI68sQzO,2020-0188,2021-10-04,15:16:55,16:16:21,NA,incomplete,false,true,NA,5,27,size,n_s_025.jpg,right,large,small,NA,NA,NA,right,1300,true,NA,NA,NA,NA,NA
JI68sQzO,NA,NA,JI68sQzO,2020-0188,2021-10-04,15:16:55,16:16:21,NA,incomplete,false,true,NA,5,28,size,n_l_028.jpg,left,large,small,NA,NA,NA,left,1846.20000004768,true,NA,NA,NA,NA,NA
JI68sQzO,NA,NA,JI68sQzO,2020-0188,2021-10-04,15:16:55,16:16:21,NA,incomplete,false,true,NA,5,29,size,n_s_005.jpg,right,large,small,NA,NA,NA,right,821.099999904633,true,NA,NA,NA,NA,NA
JI68sQzO,NA,NA,JI68sQzO,2020-0188,2021-10-04,15:16:55,16:16:21,NA,incomplete,false,NA,true,5,0,NA,NA,right,NA,NA,o_c_001.jpg,o_s_021.jpg,within,NA,NaN,NA,right,2658.6999999284744,1,0,1537.7999999523163
JI68sQzO,NA,NA,JI68sQzO,2020-0188,2021-10-04,15:16:55,16:16:21,NA,incomplete,false,NA,true,5,1,NA,NA,left,NA,NA,n_s_015.jpg,m_l_007.jpg,within,NA,NaN,NA,left,1448.8999999761581,1,1,1326.7999999523163
JI68sQzO,NA,NA,JI68sQzO,2020-0188,2021-10-04,15:16:55,16:16:21,NA,incomplete,false,NA,true,5,2,NA,NA,left,NA,NA,m_s_025.jpg,n_l_007.jpg,within,NA,NaN,NA,right,1945,0,0,1538.2999999523163
JI68sQzO,NA,NA,JI68sQzO,2020-0188,2021-10-04,15:16:55,16:16:21,NA,incomplete,false,NA,true,5,3,NA,NA,right,NA,NA,c_2_019.jpg,c_2_021.jpg,within,NA,NaN,NA,right,2290.2000000476837,1,1,1565
JI68sQzO,NA,NA,JI68sQzO,2020-0188,2021-10-04,15:16:55,16:16:21,NA,incomplete,false,NA,true,5,4,NA,NA,right,NA,NA,o_c_010.jpg,o_c_021.jpg,within,NA,NaN,NA,left,1343.6999999284744,0,1,1351.7000000476837
JI68sQzO,NA,NA,JI68sQzO,2020-0188,2021-10-04,15:16:55,16:16:21,NA,incomplete,false,NA,true,5,5,NA,NA,right,NA,NA,n_s_005.jpg,m_s_024.jpg,within,NA,NaN,NA,left,2455.100000023842,0,1,1166.3000000715256
JI68sQzO,NA,NA,JI68sQzO,2020-0188,2021-10-04,15:16:55,16:16:21,NA,incomplete,false,NA,true,5,6,NA,NA,left,NA,NA,i_c_021.jpg,o_c_021.jpg,between-small,NA,NaN,NA,left,1628.3999999761581,1,1,1360.2999999523163
JI68sQzO,NA,NA,JI68sQzO,2020-0188,2021-10-04,15:16:55,16:16:21,NA,incomplete,false,NA,true,5,7,NA,NA,right,NA,NA,a_1_022.jpg,c_1_006.jpg,within,NA,NaN,NA,right,1684.8000000715256,1,0,1223.1999999284744
JI68sQzO,NA,NA,JI68sQzO,2020-0188,2021-10-04,15:16:55,16:16:21,NA,incomplete,false,NA,true,5,8,NA,NA,left,NA,NA,o_c_015.jpg,a_1_016.jpg,between-big,NA,NaN,NA,left,1562.6000000238419,1,2,2640
JI68sQzO,NA,NA,JI68sQzO,2020-0188,2021-10-04,15:16:55,16:16:21,NA,incomplete,false,NA,true,5,9,NA,NA,right,NA,NA,c_1_006.jpg,a_1_018.jpg,between-small,NA,NaN,NA,left,979.5,0,1,1206.7000000476837
JI68sQzO,NA,NA,JI68sQzO,2020-0188,2021-10-04,15:16:55,16:16:21,NA,incomplete,false,NA,true,5,10,NA,NA,left,NA,NA,a_1_016.jpg,c_1_018.jpg,within,NA,NaN,NA,left,1992.7999999523163,1,1,1295.3000000715256
JI68sQzO,NA,NA,JI68sQzO,2020-0188,2021-10-04,15:16:55,16:16:21,NA,incomplete,false,NA,true,5,11,NA,NA,left,NA,NA,i_s_027.jpg,o_c_015.jpg,within,NA,NaN,NA,left,1295.7000000476837,1,1,1392.6999999284744
JI68sQzO,NA,NA,JI68sQzO,2020-0188,2021-10-04,15:16:55,16:16:21,NA,incomplete,false,NA,true,5,12,NA,NA,left,NA,NA,c_1_002.jpg,n_s_015.jpg,between-big,NA,NaN,NA,left,2528,1,2,1039
JI68sQzO,NA,NA,JI68sQzO,2020-0188,2021-10-04,15:16:55,16:16:21,NA,incomplete,false,NA,true,5,13,NA,NA,right,NA,NA,n_l_028.jpg,m_l_009.jpg,within,NA,NaN,NA,left,834.2999999523163,0,1,1361
JI68sQzO,NA,NA,JI68sQzO,2020-0188,2021-10-04,15:16:55,16:16:21,NA,incomplete,false,NA,true,5,14,NA,NA,left,NA,NA,c_1_018.jpg,c_1_002.jpg,between-small,NA,NaN,NA,left,2196.100000023842,1,1,1555
JI68sQzO,NA,NA,JI68sQzO,2020-0188,2021-10-04,15:16:55,16:16:21,NA,incomplete,false,NA,true,5,15,NA,NA,left,NA,NA,a_2_024.jpg,a_2_027.jpg,within,NA,NaN,NA,left,980.4000000953674,1,1,1230.7000000476837
JI68sQzO,NA,NA,JI68sQzO,2020-0188,2021-10-04,15:16:55,16:16:21,NA,incomplete,false,NA,true,5,16,NA,NA,right,NA,NA,a_2_024.jpg,i_s_023.jpg,between-big,NA,NaN,NA,right,882.2999999523163,1,1,1515
JI68sQzO,NA,NA,JI68sQzO,2020-0188,2021-10-04,15:16:55,16:16:21,NA,incomplete,false,NA,true,5,17,NA,NA,right,NA,NA,m_s_025.jpg,a_1_022.jpg,between-big,NA,NaN,NA,left,948.2000000476837,0,2,1068.3999999761581
JI68sQzO,NA,NA,JI68sQzO,2020-0188,2021-10-04,15:16:55,16:16:21,NA,incomplete,false,NA,true,5,18,NA,NA,right,NA,NA,n_s_025.jpg,n_l_007.jpg,between-small,NA,NaN,NA,right,1611.8999999761581,1,1,1269.8999999761581
JI68sQzO,NA,NA,JI68sQzO,2020-0188,2021-10-04,15:16:55,16:16:21,NA,incomplete,false,NA,true,5,19,NA,NA,right,NA,NA,i_s_023.jpg,o_c_001.jpg,between-small,NA,NaN,NA,right,3102.8000000715256,1,1,1011.8999999761581
JI68sQzO,NA,NA,JI68sQzO,2020-0188,2021-10-04,15:16:55,16:16:21,NA,incomplete,false,NA,true,5,20,NA,NA,left,NA,NA,n_s_004.jpg,m_l_009.jpg,between-small,NA,NaN,NA,right,2186.7999999523163,0,2,1157.6000000238419
JI68sQzO,NA,NA,JI68sQzO,2020-0188,2021-10-04,15:16:55,16:16:21,NA,incomplete,false,NA,true,5,21,NA,NA,right,NA,NA,a_1_018.jpg,o_c_010.jpg,between-big,NA,NaN,NA,right,1449.2999999523163,1,1,988
JI68sQzO,NA,NA,JI68sQzO,2020-0188,2021-10-04,15:16:55,16:16:21,NA,incomplete,false,NA,true,5,22,NA,NA,right,NA,NA,i_s_027.jpg,i_s_028.jpg,between-small,NA,NaN,NA,left,1084.5,0,1,1205.7000000476837
JI68sQzO,NA,NA,JI68sQzO,2020-0188,2021-10-04,15:16:55,16:16:21,NA,incomplete,false,NA,true,5,23,NA,NA,right,NA,NA,c_2_021.jpg,a_2_027.jpg,between-small,NA,NaN,NA,left,728.1999999284744,0,1,1102
JI68sQzO,NA,NA,JI68sQzO,2020-0188,2021-10-04,15:16:55,16:16:21,NA,incomplete,false,NA,true,5,24,NA,NA,right,NA,NA,n_s_004.jpg,c_2_019.jpg,between-big,NA,NaN,NA,left,786,0,1,1384.2999999523163
JI68sQzO,NA,NA,JI68sQzO,2020-0188,2021-10-04,15:16:55,16:16:21,NA,incomplete,false,NA,true,5,25,NA,NA,left,NA,NA,m_l_007.jpg,m_s_024.jpg,between-small,NA,NaN,NA,right,2512.1999999284744,0,2,972.2999999523163
JI68sQzO,NA,NA,JI68sQzO,2020-0188,2021-10-04,15:16:55,16:16:21,NA,incomplete,false,NA,true,5,26,NA,NA,right,NA,NA,i_c_021.jpg,o_s_007.jpg,within,NA,NaN,NA,left,1571.6000000238419,0,1,1044.2000000476837
JI68sQzO,NA,NA,JI68sQzO,2020-0188,2021-10-04,15:16:55,16:16:21,NA,incomplete,false,true,NA,6,0,size,m_s_001.jpg,right,large,small,NA,NA,NA,right,1881.10000002384,true,NA,NA,NA,NA,NA
JI68sQzO,NA,NA,JI68sQzO,2020-0188,2021-10-04,15:16:55,16:16:21,NA,incomplete,false,true,NA,6,1,size,n_l_027.jpg,right,small,large,NA,NA,NA,right,1499.30000007153,true,NA,NA,NA,NA,NA
JI68sQzO,NA,NA,JI68sQzO,2020-0188,2021-10-04,15:16:55,16:16:21,NA,incomplete,false,true,NA,6,2,size,m_s_004.jpg,left,small,large,NA,NA,NA,left,2146.89999997616,true,NA,NA,NA,NA,NA
JI68sQzO,NA,NA,JI68sQzO,2020-0188,2021-10-04,15:16:55,16:16:21,NA,incomplete,false,true,NA,6,3,size,m_s_010.jpg,left,small,large,NA,NA,NA,left,2365.5,true,NA,NA,NA,NA,NA
JI68sQzO,NA,NA,JI68sQzO,2020-0188,2021-10-04,15:16:55,16:16:21,NA,incomplete,false,true,NA,6,4,size,m_l_012.jpg,left,large,small,NA,NA,NA,left,1754.89999997616,true,NA,NA,NA,NA,NA
JI68sQzO,NA,NA,JI68sQzO,2020-0188,2021-10-04,15:16:55,16:16:21,NA,incomplete,false,true,NA,6,5,origin,n_l_001.jpg,left,natural,manmade,NA,NA,NA,left,2389.20000004768,true,NA,NA,NA,NA,NA
JI68sQzO,NA,NA,JI68sQzO,2020-0188,2021-10-04,15:16:55,16:16:21,NA,incomplete,false,true,NA,6,6,origin,n_s_017.jpg,left,natural,manmade,NA,NA,NA,left,1860.89999997616,true,NA,NA,NA,NA,NA
JI68sQzO,NA,NA,JI68sQzO,2020-0188,2021-10-04,15:16:55,16:16:21,NA,incomplete,false,true,NA,6,7,origin,m_s_016.jpg,right,natural,manmade,NA,NA,NA,right,1763.79999995232,true,NA,NA,NA,NA,NA
JI68sQzO,NA,NA,JI68sQzO,2020-0188,2021-10-04,15:16:55,16:16:21,NA,incomplete,false,true,NA,6,8,origin,n_s_021.jpg,left,natural,manmade,NA,NA,NA,left,2150.5,true,NA,NA,NA,NA,NA
JI68sQzO,NA,NA,JI68sQzO,2020-0188,2021-10-04,15:16:55,16:16:21,NA,incomplete,false,true,NA,6,9,origin,m_s_008.jpg,left,manmade,natural,NA,NA,NA,left,2048.69999992847,true,NA,NA,NA,NA,NA
JI68sQzO,NA,NA,JI68sQzO,2020-0188,2021-10-04,15:16:55,16:16:21,NA,incomplete,false,true,NA,6,10,building,o_c_012.jpg,right,skyscraper,cottage,NA,NA,NA,right,1880.79999995232,true,NA,NA,NA,NA,NA
JI68sQzO,NA,NA,JI68sQzO,2020-0188,2021-10-04,15:16:55,16:16:21,NA,incomplete,false,true,NA,6,11,building,o_c_013.jpg,right,skyscraper,cottage,NA,NA,NA,right,2042.20000004768,true,NA,NA,NA,NA,NA
JI68sQzO,NA,NA,JI68sQzO,2020-0188,2021-10-04,15:16:55,16:16:21,NA,incomplete,false,true,NA,6,12,building,o_c_027.jpg,left,cottage,skyscraper,NA,NA,NA,left,2199.60000002384,true,NA,NA,NA,NA,NA
JI68sQzO,NA,NA,JI68sQzO,2020-0188,2021-10-04,15:16:55,16:16:21,NA,incomplete,false,true,NA,6,13,building,o_s_009.jpg,right,cottage,skyscraper,NA,NA,NA,right,1814.20000004768,true,NA,NA,NA,NA,NA
JI68sQzO,NA,NA,JI68sQzO,2020-0188,2021-10-04,15:16:55,16:16:21,NA,incomplete,false,true,NA,6,14,building,i_s_026.jpg,right,cottage,skyscraper,NA,NA,NA,right,1722.29999995232,true,NA,NA,NA,NA,NA
JI68sQzO,NA,NA,JI68sQzO,2020-0188,2021-10-04,15:16:55,16:16:21,NA,incomplete,false,true,NA,6,15,location,o_c_002.jpg,left,outdoor,indoor,NA,NA,NA,left,1919,true,NA,NA,NA,NA,NA
JI68sQzO,NA,NA,JI68sQzO,2020-0188,2021-10-04,15:16:55,16:16:21,NA,incomplete,false,true,NA,6,16,location,o_s_027.jpg,left,outdoor,indoor,NA,NA,NA,left,1820.80000007153,true,NA,NA,NA,NA,NA
JI68sQzO,NA,NA,JI68sQzO,2020-0188,2021-10-04,15:16:55,16:16:21,NA,incomplete,false,true,NA,6,17,location,i_c_028.jpg,left,indoor,outdoor,NA,NA,NA,left,1781.5,true,NA,NA,NA,NA,NA
JI68sQzO,NA,NA,JI68sQzO,2020-0188,2021-10-04,15:16:55,16:16:21,NA,incomplete,false,true,NA,6,18,location,o_c_020.jpg,left,outdoor,indoor,NA,NA,NA,left,2020.79999995232,true,NA,NA,NA,NA,NA
JI68sQzO,NA,NA,JI68sQzO,2020-0188,2021-10-04,15:16:55,16:16:21,NA,incomplete,false,true,NA,6,19,location,i_c_008.jpg,left,indoor,outdoor,NA,NA,NA,left,2061.60000002384,true,NA,NA,NA,NA,NA
JI68sQzO,NA,NA,JI68sQzO,2020-0188,2021-10-04,15:16:55,16:16:21,NA,incomplete,false,true,NA,6,20,syllable,c_1_005.jpg,right,1 syllable,2 syllables,NA,NA,NA,left,2049.69999992847,false,NA,NA,NA,NA,NA
JI68sQzO,NA,NA,JI68sQzO,2020-0188,2021-10-04,15:16:55,16:16:21,NA,incomplete,false,true,NA,6,21,syllable,c_1_009.jpg,right,2 syllables,1 syllable,NA,NA,NA,right,1846.19999992847,true,NA,NA,NA,NA,NA
JI68sQzO,NA,NA,JI68sQzO,2020-0188,2021-10-04,15:16:55,16:16:21,NA,incomplete,false,true,NA,6,22,syllable,a_2_019.jpg,right,2 syllables,1 syllable,NA,NA,NA,left,1722.60000002384,false,NA,NA,NA,NA,NA
JI68sQzO,NA,NA,JI68sQzO,2020-0188,2021-10-04,15:16:55,16:16:21,NA,incomplete,false,true,NA,6,23,syllable,c_2_028.jpg,right,2 syllables,1 syllable,NA,NA,NA,left,3225.89999997616,false,NA,NA,NA,NA,NA
JI68sQzO,NA,NA,JI68sQzO,2020-0188,2021-10-04,15:16:55,16:16:21,NA,incomplete,false,true,NA,6,24,syllable,c_1_024.jpg,right,1 syllable,2 syllables,NA,NA,NA,left,2683.10000002384,false,NA,NA,NA,NA,NA
JI68sQzO,NA,NA,JI68sQzO,2020-0188,2021-10-04,15:16:55,16:16:21,NA,incomplete,false,true,NA,6,25,abstractness,a_1_017.jpg,left,abstract,concrete,NA,NA,NA,left,1738,true,NA,NA,NA,NA,NA
JI68sQzO,NA,NA,JI68sQzO,2020-0188,2021-10-04,15:16:55,16:16:21,NA,incomplete,false,true,NA,6,26,abstractness,c_2_009.jpg,left,concrete,abstract,NA,NA,NA,left,2126.70000004768,true,NA,NA,NA,NA,NA
JI68sQzO,NA,NA,JI68sQzO,2020-0188,2021-10-04,15:16:55,16:16:21,NA,incomplete,false,true,NA,6,27,abstractness,c_1_013.jpg,left,concrete,abstract,NA,NA,NA,left,1741.30000007153,true,NA,NA,NA,NA,NA
JI68sQzO,NA,NA,JI68sQzO,2020-0188,2021-10-04,15:16:55,16:16:21,NA,incomplete,false,true,NA,6,28,abstractness,c_1_007.jpg,left,concrete,abstract,NA,NA,NA,left,1956.69999992847,true,NA,NA,NA,NA,NA
JI68sQzO,NA,NA,JI68sQzO,2020-0188,2021-10-04,15:16:55,16:16:21,NA,incomplete,false,true,NA,6,29,abstractness,a_2_012.jpg,right,concrete,abstract,NA,NA,NA,right,1279.90000009537,true,NA,NA,NA,NA,NA
JI68sQzO,NA,NA,JI68sQzO,2020-0188,2021-10-04,15:16:55,16:16:21,NA,incomplete,false,NA,true,6,0,NA,NA,left,NA,NA,n_s_021.jpg,o_c_013.jpg,between-big,NA,NaN,NA,left,1605.8999999761581,1,2,2089.2999999523163
JI68sQzO,NA,NA,JI68sQzO,2020-0188,2021-10-04,15:16:55,16:16:21,NA,incomplete,false,NA,true,6,1,NA,NA,right,NA,NA,o_c_002.jpg,o_c_027.jpg,between-small,NA,NaN,NA,right,1982.6000000238419,1,2,1021.7000000476837
JI68sQzO,NA,NA,JI68sQzO,2020-0188,2021-10-04,15:16:55,16:16:21,NA,incomplete,false,NA,true,6,2,NA,NA,left,NA,NA,o_s_009.jpg,o_s_027.jpg,between-small,NA,NaN,NA,left,1619.3999999761581,1,1,1101.5
JI68sQzO,NA,NA,JI68sQzO,2020-0188,2021-10-04,15:16:55,16:16:21,NA,incomplete,false,NA,true,6,3,NA,NA,left,NA,NA,n_l_001.jpg,n_s_021.jpg,within,NA,NaN,NA,left,1223.9000000953674,1,1,1174.4000000953674
JI68sQzO,NA,NA,JI68sQzO,2020-0188,2021-10-04,15:16:55,16:16:21,NA,incomplete,false,NA,true,6,4,NA,NA,left,NA,NA,o_c_013.jpg,i_s_026.jpg,within,NA,NaN,NA,left,1604.6999999284744,1,1,1068.3999999761581
JI68sQzO,NA,NA,JI68sQzO,2020-0188,2021-10-04,15:16:55,16:16:21,NA,incomplete,false,NA,true,6,5,NA,NA,left,NA,NA,i_s_026.jpg,i_c_028.jpg,between-small,NA,NaN,NA,left,1676.3000000715256,1,2,1919.6000000238419
JI68sQzO,NA,NA,JI68sQzO,2020-0188,2021-10-04,15:16:55,16:16:21,NA,incomplete,false,NA,true,6,6,NA,NA,left,NA,NA,c_1_009.jpg,c_1_024.jpg,within,NA,NaN,NA,left,1345,1,1,1150.2000000476837
JI68sQzO,NA,NA,JI68sQzO,2020-0188,2021-10-04,15:16:55,16:16:21,NA,incomplete,false,NA,true,6,7,NA,NA,left,NA,NA,m_s_004.jpg,n_l_001.jpg,between-small,NA,NaN,NA,left,2415.100000023842,1,1,2397.6999999284744
JI68sQzO,NA,NA,JI68sQzO,2020-0188,2021-10-04,15:16:55,16:16:21,NA,incomplete,false,NA,true,6,8,NA,NA,left,NA,NA,o_s_027.jpg,i_c_008.jpg,within,NA,NaN,NA,left,1409.5,1,1,1401.4000000953674
JI68sQzO,NA,NA,JI68sQzO,2020-0188,2021-10-04,15:16:55,16:16:21,NA,incomplete,false,NA,true,6,9,NA,NA,right,NA,NA,m_s_016.jpg,m_l_012.jpg,between-small,NA,NaN,NA,left,3397.600000023842,0,1,1571.1000000238419
JI68sQzO,NA,NA,JI68sQzO,2020-0188,2021-10-04,15:16:55,16:16:21,NA,incomplete,false,NA,true,6,10,NA,NA,left,NA,NA,m_s_001.jpg,m_s_010.jpg,within,NA,NaN,NA,left,923.2999999523163,1,0,1911
JI68sQzO,NA,NA,JI68sQzO,2020-0188,2021-10-04,15:16:55,16:16:21,NA,incomplete,false,NA,true,6,11,NA,NA,right,NA,NA,o_c_012.jpg,m_s_016.jpg,between-big,NA,NaN,NA,right,1546.1000000238419,1,2,1828.3999999761581
JI68sQzO,NA,NA,JI68sQzO,2020-0188,2021-10-04,15:16:55,16:16:21,NA,incomplete,false,NA,true,6,12,NA,NA,right,NA,NA,a_2_012.jpg,c_2_009.jpg,within,NA,NaN,NA,right,3127.600000023842,1,2,1984.3000000715256
JI68sQzO,NA,NA,JI68sQzO,2020-0188,2021-10-04,15:16:55,16:16:21,NA,incomplete,false,NA,true,6,13,NA,NA,right,NA,NA,a_2_019.jpg,i_c_008.jpg,between-big,NA,NaN,NA,right,1425.1999999284744,1,2,1847.2999999523163
JI68sQzO,NA,NA,JI68sQzO,2020-0188,2021-10-04,15:16:55,16:16:21,NA,incomplete,false,NA,true,6,14,NA,NA,right,NA,NA,c_1_007.jpg,a_1_017.jpg,within,NA,NaN,NA,left,1879.2999999523163,0,1,1531.5
JI68sQzO,NA,NA,JI68sQzO,2020-0188,2021-10-04,15:16:55,16:16:21,NA,incomplete,false,NA,true,6,15,NA,NA,left,NA,NA,m_s_010.jpg,n_s_017.jpg,between-small,NA,NaN,NA,left,955.7999999523163,1,1,1011.7000000476837
JI68sQzO,NA,NA,JI68sQzO,2020-0188,2021-10-04,15:16:55,16:16:21,NA,incomplete,false,NA,true,6,16,NA,NA,left,NA,NA,o_c_002.jpg,o_c_020.jpg,within,NA,NaN,NA,left,2365.9000000953674,1,1,1109.6000000238419
JI68sQzO,NA,NA,JI68sQzO,2020-0188,2021-10-04,15:16:55,16:16:21,NA,incomplete,false,NA,true,6,17,NA,NA,right,NA,NA,m_s_008.jpg,n_s_017.jpg,within,NA,NaN,NA,right,1831.1000000238419,1,0,2567
JI68sQzO,NA,NA,JI68sQzO,2020-0188,2021-10-04,15:16:55,16:16:21,NA,incomplete,false,NA,true,6,18,NA,NA,left,NA,NA,n_l_027.jpg,m_l_012.jpg,within,NA,NaN,NA,left,1028.3999999761581,1,1,1181.6000000238419
JI68sQzO,NA,NA,JI68sQzO,2020-0188,2021-10-04,15:16:55,16:16:21,NA,incomplete,false,NA,true,6,19,NA,NA,left,NA,NA,o_c_012.jpg,o_s_009.jpg,within,NA,NaN,NA,left,1342.2999999523163,1,1,1304.2000000476837
JI68sQzO,NA,NA,JI68sQzO,2020-0188,2021-10-04,15:16:55,16:16:21,NA,incomplete,false,NA,true,6,20,NA,NA,right,NA,NA,c_2_028.jpg,c_1_005.jpg,within,NA,NaN,NA,right,1652.1000000238419,1,1,1150.2000000476837
JI68sQzO,NA,NA,JI68sQzO,2020-0188,2021-10-04,15:16:55,16:16:21,NA,incomplete,false,NA,true,6,21,NA,NA,left,NA,NA,c_1_024.jpg,c_1_013.jpg,between-small,NA,NaN,NA,left,915.1000000238419,1,1,1117.2000000476837
JI68sQzO,NA,NA,JI68sQzO,2020-0188,2021-10-04,15:16:55,16:16:21,NA,incomplete,false,NA,true,6,22,NA,NA,right,NA,NA,c_2_009.jpg,c_2_028.jpg,between-small,NA,NaN,NA,right,4440.300000071526,1,1,1570.6000000238419
JI68sQzO,NA,NA,JI68sQzO,2020-0188,2021-10-04,15:16:55,16:16:21,NA,incomplete,false,NA,true,6,23,NA,NA,right,NA,NA,o_c_027.jpg,m_s_008.jpg,between-big,NA,NaN,NA,right,1368.2999999523163,1,1,890.1000000238419
JI68sQzO,NA,NA,JI68sQzO,2020-0188,2021-10-04,15:16:55,16:16:21,NA,incomplete,false,NA,true,6,24,NA,NA,right,NA,NA,c_1_005.jpg,i_c_028.jpg,between-big,NA,NaN,NA,right,1766.3999999761581,1,2,1473.6999999284744
JI68sQzO,NA,NA,JI68sQzO,2020-0188,2021-10-04,15:16:55,16:16:21,NA,incomplete,false,NA,true,6,25,NA,NA,right,NA,NA,c_1_009.jpg,o_c_020.jpg,between-big,NA,NaN,NA,right,1684.7000000476837,1,2,1093.8000000715256
JI68sQzO,NA,NA,JI68sQzO,2020-0188,2021-10-04,15:16:55,16:16:21,NA,incomplete,false,NA,true,6,26,NA,NA,left,NA,NA,a_2_019.jpg,a_1_017.jpg,between-small,NA,NaN,NA,left,1270.5,1,2,1133.2999999523163
JI68sQzO,NA,NA,JI68sQzO,2020-0188,2021-10-04,15:16:55,16:16:21,NA,incomplete,false,true,NA,7,0,location,i_s_007.jpg,right,outdoor,indoor,NA,NA,NA,right,1570.10000002384,true,NA,NA,NA,NA,NA
JI68sQzO,NA,NA,JI68sQzO,2020-0188,2021-10-04,15:16:55,16:16:21,NA,incomplete,false,true,NA,7,1,location,o_c_008.jpg,left,outdoor,indoor,NA,NA,NA,left,2014.59999990463,true,NA,NA,NA,NA,NA
JI68sQzO,NA,NA,JI68sQzO,2020-0188,2021-10-04,15:16:55,16:16:21,NA,incomplete,false,true,NA,7,2,location,o_c_019.jpg,right,indoor,outdoor,NA,NA,NA,right,1986.89999997616,true,NA,NA,NA,NA,NA
JI68sQzO,NA,NA,JI68sQzO,2020-0188,2021-10-04,15:16:55,16:16:21,NA,incomplete,false,true,NA,7,3,location,i_c_010.jpg,left,indoor,outdoor,NA,NA,NA,left,2085.5,true,NA,NA,NA,NA,NA
JI68sQzO,NA,NA,JI68sQzO,2020-0188,2021-10-04,15:16:55,16:16:21,NA,incomplete,false,true,NA,7,4,location,i_c_003.jpg,right,outdoor,indoor,NA,NA,NA,right,2822.19999992847,true,NA,NA,NA,NA,NA
JI68sQzO,NA,NA,JI68sQzO,2020-0188,2021-10-04,15:16:55,16:16:21,NA,incomplete,false,true,NA,7,5,building,o_c_023.jpg,left,cottage,skyscraper,NA,NA,NA,left,1779.39999997616,true,NA,NA,NA,NA,NA
JI68sQzO,NA,NA,JI68sQzO,2020-0188,2021-10-04,15:16:55,16:16:21,NA,incomplete,false,true,NA,7,6,building,o_s_014.jpg,right,cottage,skyscraper,NA,NA,NA,right,1394.19999992847,true,NA,NA,NA,NA,NA
JI68sQzO,NA,NA,JI68sQzO,2020-0188,2021-10-04,15:16:55,16:16:21,NA,incomplete,false,true,NA,7,7,building,o_s_023.jpg,left,skyscraper,cottage,NA,NA,NA,left,1804.20000004768,true,NA,NA,NA,NA,NA
JI68sQzO,NA,NA,JI68sQzO,2020-0188,2021-10-04,15:16:55,16:16:21,NA,incomplete,false,true,NA,7,8,building,o_c_004.jpg,left,cottage,skyscraper,NA,NA,NA,left,1775.10000002384,true,NA,NA,NA,NA,NA
JI68sQzO,NA,NA,JI68sQzO,2020-0188,2021-10-04,15:16:55,16:16:21,NA,incomplete,false,true,NA,7,9,building,i_s_005.jpg,right,cottage,skyscraper,NA,NA,NA,right,1982.19999992847,true,NA,NA,NA,NA,NA
JI68sQzO,NA,NA,JI68sQzO,2020-0188,2021-10-04,15:16:55,16:16:21,NA,incomplete,false,true,NA,7,10,size,m_s_020.jpg,right,large,small,NA,NA,NA,right,1454.19999992847,true,NA,NA,NA,NA,NA
JI68sQzO,NA,NA,JI68sQzO,2020-0188,2021-10-04,15:16:55,16:16:21,NA,incomplete,false,true,NA,7,11,size,n_s_018.jpg,right,large,small,NA,NA,NA,right,1344.30000007153,true,NA,NA,NA,NA,NA
JI68sQzO,NA,NA,JI68sQzO,2020-0188,2021-10-04,15:16:55,16:16:21,NA,incomplete,false,true,NA,7,12,size,m_l_018.jpg,left,large,small,NA,NA,NA,left,1692.39999997616,true,NA,NA,NA,NA,NA
JI68sQzO,NA,NA,JI68sQzO,2020-0188,2021-10-04,15:16:55,16:16:21,NA,incomplete,false,true,NA,7,13,size,n_l_018.jpg,right,small,large,NA,NA,NA,right,1792.20000004768,true,NA,NA,NA,NA,NA
JI68sQzO,NA,NA,JI68sQzO,2020-0188,2021-10-04,15:16:55,16:16:21,NA,incomplete,false,true,NA,7,14,size,m_s_027.jpg,right,large,small,NA,NA,NA,right,1392.70000004768,true,NA,NA,NA,NA,NA
JI68sQzO,NA,NA,JI68sQzO,2020-0188,2021-10-04,15:16:55,16:16:21,NA,incomplete,false,true,NA,7,15,origin,m_l_008.jpg,right,natural,manmade,NA,NA,NA,right,1863,true,NA,NA,NA,NA,NA
JI68sQzO,NA,NA,JI68sQzO,2020-0188,2021-10-04,15:16:55,16:16:21,NA,incomplete,false,true,NA,7,16,origin,m_s_018.jpg,left,manmade,natural,NA,NA,NA,left,2048.40000009537,true,NA,NA,NA,NA,NA
JI68sQzO,NA,NA,JI68sQzO,2020-0188,2021-10-04,15:16:55,16:16:21,NA,incomplete,false,true,NA,7,17,origin,m_s_011.jpg,right,natural,manmade,NA,NA,NA,right,1966.29999995232,true,NA,NA,NA,NA,NA
JI68sQzO,NA,NA,JI68sQzO,2020-0188,2021-10-04,15:16:55,16:16:21,NA,incomplete,false,true,NA,7,18,origin,n_s_014.jpg,right,manmade,natural,NA,NA,NA,right,1219.20000004768,true,NA,NA,NA,NA,NA
JI68sQzO,NA,NA,JI68sQzO,2020-0188,2021-10-04,15:16:55,16:16:21,NA,incomplete,false,true,NA,7,19,origin,m_l_013.jpg,right,natural,manmade,NA,NA,NA,right,1612.89999997616,true,NA,NA,NA,NA,NA
JI68sQzO,NA,NA,JI68sQzO,2020-0188,2021-10-04,15:16:55,16:16:21,NA,incomplete,false,true,NA,7,20,syllable,a_2_004.jpg,right,1 syllable,2 syllables,NA,NA,NA,right,1564.60000002384,true,NA,NA,NA,NA,NA
JI68sQzO,NA,NA,JI68sQzO,2020-0188,2021-10-04,15:16:55,16:16:21,NA,incomplete,false,true,NA,7,21,syllable,c_2_005.jpg,right,2 syllables,1 syllable,NA,NA,NA,left,1635.20000004768,false,NA,NA,NA,NA,NA
JI68sQzO,NA,NA,JI68sQzO,2020-0188,2021-10-04,15:16:55,16:16:21,NA,incomplete,false,true,NA,7,22,syllable,a_2_014.jpg,right,2 syllables,1 syllable,NA,NA,NA,left,1745.10000002384,false,NA,NA,NA,NA,NA
JI68sQzO,NA,NA,JI68sQzO,2020-0188,2021-10-04,15:16:55,16:16:21,NA,incomplete,false,true,NA,7,23,syllable,a_1_011.jpg,right,1 syllable,2 syllables,NA,NA,NA,left,1660.5,false,NA,NA,NA,NA,NA
JI68sQzO,NA,NA,JI68sQzO,2020-0188,2021-10-04,15:16:55,16:16:21,NA,incomplete,false,true,NA,7,24,syllable,c_2_020.jpg,right,1 syllable,2 syllables,NA,NA,NA,right,1383.20000004768,true,NA,NA,NA,NA,NA
JI68sQzO,NA,NA,JI68sQzO,2020-0188,2021-10-04,15:16:55,16:16:21,NA,incomplete,false,true,NA,7,25,abstractness,c_1_021.jpg,right,abstract,concrete,NA,NA,NA,right,2686.80000007153,true,NA,NA,NA,NA,NA
JI68sQzO,NA,NA,JI68sQzO,2020-0188,2021-10-04,15:16:55,16:16:21,NA,incomplete,false,true,NA,7,26,abstractness,c_1_027.jpg,right,abstract,concrete,NA,NA,NA,right,2890.5,true,NA,NA,NA,NA,NA
JI68sQzO,NA,NA,JI68sQzO,2020-0188,2021-10-04,15:16:55,16:16:21,NA,incomplete,false,true,NA,7,27,abstractness,c_1_011.jpg,left,concrete,abstract,NA,NA,NA,right,2300.60000002384,false,NA,NA,NA,NA,NA
JI68sQzO,NA,NA,JI68sQzO,2020-0188,2021-10-04,15:16:55,16:16:21,NA,incomplete,false,true,NA,7,28,abstractness,c_1_026.jpg,right,abstract,concrete,NA,NA,NA,right,1853.5,true,NA,NA,NA,NA,NA
JI68sQzO,NA,NA,JI68sQzO,2020-0188,2021-10-04,15:16:55,16:16:21,NA,incomplete,false,true,NA,7,29,abstractness,c_1_012.jpg,right,abstract,concrete,NA,NA,NA,right,2420.5,true,NA,NA,NA,NA,NA
JI68sQzO,NA,NA,JI68sQzO,2020-0188,2021-10-04,15:16:55,16:16:21,NA,incomplete,false,NA,true,7,0,NA,NA,left,NA,NA,n_s_018.jpg,m_s_027.jpg,within,NA,NaN,NA,right,2347.2000000476837,0,1,987.1000000238419
JI68sQzO,NA,NA,JI68sQzO,2020-0188,2021-10-04,15:16:55,16:16:21,NA,incomplete,false,NA,true,7,1,NA,NA,right,NA,NA,o_s_023.jpg,i_c_003.jpg,between-small,NA,NaN,NA,left,1213.7000000476837,0,1,1383.3000000715256
JI68sQzO,NA,NA,JI68sQzO,2020-0188,2021-10-04,15:16:55,16:16:21,NA,incomplete,false,NA,true,7,2,NA,NA,left,NA,NA,o_c_023.jpg,o_c_004.jpg,within,NA,NaN,NA,left,1635.2999999523163,1,2,2235.1999999284744
JI68sQzO,NA,NA,JI68sQzO,2020-0188,2021-10-04,15:16:55,16:16:21,NA,incomplete,false,NA,true,7,3,NA,NA,left,NA,NA,i_c_010.jpg,o_s_014.jpg,between-small,NA,NaN,NA,right,2469.899999976158,0,1,1221.5
JI68sQzO,NA,NA,JI68sQzO,2020-0188,2021-10-04,15:16:55,16:16:21,NA,incomplete,false,NA,true,7,4,NA,NA,right,NA,NA,c_1_027.jpg,a_1_011.jpg,between-small,NA,NaN,NA,left,1491.1000000238419,0,1,1117.1999999284744
JI68sQzO,NA,NA,JI68sQzO,2020-0188,2021-10-04,15:16:55,16:16:21,NA,incomplete,false,NA,true,7,5,NA,NA,right,NA,NA,i_s_005.jpg,o_s_014.jpg,within,NA,NaN,NA,right,1223.6000000238419,1,1,1068.7999999523163
JI68sQzO,NA,NA,JI68sQzO,2020-0188,2021-10-04,15:16:55,16:16:21,NA,incomplete,false,NA,true,7,6,NA,NA,left,NA,NA,o_c_019.jpg,o_c_023.jpg,between-small,NA,NaN,NA,right,1320.6000000238419,0,1,2220.100000023842
JI68sQzO,NA,NA,JI68sQzO,2020-0188,2021-10-04,15:16:55,16:16:21,NA,incomplete,false,NA,true,7,7,NA,NA,right,NA,NA,c_1_021.jpg,a_2_014.jpg,between-small,NA,NaN,NA,left,2017.3000000715256,0,0,1311.5
JI68sQzO,NA,NA,JI68sQzO,2020-0188,2021-10-04,15:16:55,16:16:21,NA,incomplete,false,NA,true,7,8,NA,NA,left,NA,NA,a_2_004.jpg,a_1_011.jpg,within,NA,NaN,NA,right,1765.9000000953674,0,1,1214.3999999761581
JI68sQzO,NA,NA,JI68sQzO,2020-0188,2021-10-04,15:16:55,16:16:21,NA,incomplete,false,NA,true,7,9,NA,NA,left,NA,NA,i_s_005.jpg,m_l_018.jpg,between-big,NA,NaN,NA,left,1384.6000000238419,1,1,1133.1000000238419
JI68sQzO,NA,NA,JI68sQzO,2020-0188,2021-10-04,15:16:55,16:16:21,NA,incomplete,false,NA,true,7,10,NA,NA,left,NA,NA,m_l_008.jpg,n_s_014.jpg,within,NA,NaN,NA,left,1612,1,0,882.5999999046326
JI68sQzO,NA,NA,JI68sQzO,2020-0188,2021-10-04,15:16:55,16:16:21,NA,incomplete,false,NA,true,7,11,NA,NA,right,NA,NA,a_2_014.jpg,m_l_013.jpg,between-big,NA,NaN,NA,right,1166.2000000476837,1,2,1271.5
JI68sQzO,NA,NA,JI68sQzO,2020-0188,2021-10-04,15:16:55,16:16:21,NA,incomplete,false,NA,true,7,12,NA,NA,right,NA,NA,c_1_012.jpg,c_1_027.jpg,within,NA,NaN,NA,right,1507.1000000238419,1,2,1481.8999999761581
JI68sQzO,NA,NA,JI68sQzO,2020-0188,2021-10-04,15:16:55,16:16:21,NA,incomplete,false,NA,true,7,13,NA,NA,left,NA,NA,o_c_004.jpg,n_s_018.jpg,between-big,NA,NaN,NA,right,1376.7999999523163,0,1,1117.3999999761581
JI68sQzO,NA,NA,JI68sQzO,2020-0188,2021-10-04,15:16:55,16:16:21,NA,incomplete,false,NA,true,7,14,NA,NA,right,NA,NA,c_1_026.jpg,c_1_021.jpg,within,NA,NaN,NA,left,1230.9000000953674,0,2,1011.7000000476837
JI68sQzO,NA,NA,JI68sQzO,2020-0188,2021-10-04,15:16:55,16:16:21,NA,incomplete,false,NA,true,7,15,NA,NA,right,NA,NA,c_1_011.jpg,c_2_020.jpg,between-small,NA,NaN,NA,left,3296.399999976158,0,1,1165.2999999523163
JI68sQzO,NA,NA,JI68sQzO,2020-0188,2021-10-04,15:16:55,16:16:21,NA,incomplete,false,NA,true,7,16,NA,NA,left,NA,NA,m_s_011.jpg,a_2_004.jpg,between-big,NA,NaN,NA,left,1157.9000000953674,1,2,2082
JI68sQzO,NA,NA,JI68sQzO,2020-0188,2021-10-04,15:16:55,16:16:21,NA,incomplete,false,NA,true,7,17,NA,NA,left,NA,NA,n_s_014.jpg,c_2_005.jpg,between-big,NA,NaN,NA,right,2284.4000000953674,0,2,1352.3999999761581
JI68sQzO,NA,NA,JI68sQzO,2020-0188,2021-10-04,15:16:55,16:16:21,NA,incomplete,false,NA,true,7,18,NA,NA,left,NA,NA,m_l_018.jpg,m_l_008.jpg,between-small,NA,NaN,NA,left,1847.1000000238419,1,1,1092.8999999761581
JI68sQzO,NA,NA,JI68sQzO,2020-0188,2021-10-04,15:16:55,16:16:21,NA,incomplete,false,NA,true,7,19,NA,NA,right,NA,NA,i_c_003.jpg,o_c_008.jpg,within,NA,NaN,NA,left,2041.1999999284744,0,2,1197.7000000476837
JI68sQzO,NA,NA,JI68sQzO,2020-0188,2021-10-04,15:16:55,16:16:21,NA,incomplete,false,NA,true,7,20,NA,NA,right,NA,NA,c_2_020.jpg,c_2_005.jpg,within,NA,NaN,NA,right,3176.3000000715256,1,2,1205.7999999523163
JI68sQzO,NA,NA,JI68sQzO,2020-0188,2021-10-04,15:16:55,16:16:21,NA,incomplete,false,NA,true,7,21,NA,NA,left,NA,NA,m_s_027.jpg,m_s_011.jpg,between-small,NA,NaN,NA,left,1119,1,1,2446.2999999523163
JI68sQzO,NA,NA,JI68sQzO,2020-0188,2021-10-04,15:16:55,16:16:21,NA,incomplete,false,NA,true,7,22,NA,NA,left,NA,NA,m_s_020.jpg,n_l_018.jpg,within,NA,NaN,NA,right,736.7000000476837,0,1,2600.1999999284744
JI68sQzO,NA,NA,JI68sQzO,2020-0188,2021-10-04,15:16:55,16:16:21,NA,incomplete,false,NA,true,7,23,NA,NA,right,NA,NA,m_s_018.jpg,n_l_018.jpg,between-small,NA,NaN,NA,right,1352.7000000476837,1,2,1141.8999999761581
JI68sQzO,NA,NA,JI68sQzO,2020-0188,2021-10-04,15:16:55,16:16:21,NA,incomplete,false,NA,true,7,24,NA,NA,right,NA,NA,m_s_020.jpg,o_s_023.jpg,between-big,NA,NaN,NA,right,2049.600000023842,1,2,1138.7999999523163
JI68sQzO,NA,NA,JI68sQzO,2020-0188,2021-10-04,15:16:55,16:16:21,NA,incomplete,false,NA,true,7,25,NA,NA,left,NA,NA,i_s_007.jpg,i_c_010.jpg,within,NA,NaN,NA,left,3890.1999999284744,1,0,1897.2000000476837
JI68sQzO,NA,NA,JI68sQzO,2020-0188,2021-10-04,15:16:55,16:16:21,NA,incomplete,false,NA,true,7,26,NA,NA,left,NA,NA,m_s_018.jpg,m_l_013.jpg,within,NA,NaN,NA,right,1279.0999999046326,0,1,1109.2000000476837
JI68sQzO,NA,NA,JI68sQzO,2020-0188,2021-10-04,15:16:55,16:16:21,NA,incomplete,false,true,NA,8,0,building,i_s_004.jpg,left,skyscraper,cottage,NA,NA,NA,left,1587.60000002384,true,NA,NA,NA,NA,NA
JI68sQzO,NA,NA,JI68sQzO,2020-0188,2021-10-04,15:16:55,16:16:21,NA,incomplete,false,true,NA,8,1,building,i_c_004.jpg,left,cottage,skyscraper,NA,NA,NA,right,1172.5,false,NA,NA,NA,NA,NA
JI68sQzO,NA,NA,JI68sQzO,2020-0188,2021-10-04,15:16:55,16:16:21,NA,incomplete,false,true,NA,8,2,building,i_c_007.jpg,left,cottage,skyscraper,NA,NA,NA,left,1380.80000007153,true,NA,NA,NA,NA,NA
JI68sQzO,NA,NA,JI68sQzO,2020-0188,2021-10-04,15:16:55,16:16:21,NA,incomplete,false,true,NA,8,3,building,i_s_021.jpg,right,cottage,skyscraper,NA,NA,NA,right,915.100000023842,true,NA,NA,NA,NA,NA
JI68sQzO,NA,NA,JI68sQzO,2020-0188,2021-10-04,15:16:55,16:16:21,NA,incomplete,false,true,NA,8,4,building,i_c_025.jpg,left,cottage,skyscraper,NA,NA,NA,left,970,true,NA,NA,NA,NA,NA
JI68sQzO,NA,NA,JI68sQzO,2020-0188,2021-10-04,15:16:55,16:16:21,NA,incomplete,false,true,NA,8,5,location,o_c_026.jpg,right,indoor,outdoor,NA,NA,NA,right,1758.10000002384,true,NA,NA,NA,NA,NA
JI68sQzO,NA,NA,JI68sQzO,2020-0188,2021-10-04,15:16:55,16:16:21,NA,incomplete,false,true,NA,8,6,location,i_c_020.jpg,right,outdoor,indoor,NA,NA,NA,right,1684.70000004768,true,NA,NA,NA,NA,NA
JI68sQzO,NA,NA,JI68sQzO,2020-0188,2021-10-04,15:16:55,16:16:21,NA,incomplete,false,true,NA,8,7,location,i_c_006.jpg,right,outdoor,indoor,NA,NA,NA,right,2142.5,true,NA,NA,NA,NA,NA
JI68sQzO,NA,NA,JI68sQzO,2020-0188,2021-10-04,15:16:55,16:16:21,NA,incomplete,false,true,NA,8,8,location,i_c_026.jpg,right,outdoor,indoor,NA,NA,NA,right,1712.40000009537,true,NA,NA,NA,NA,NA
JI68sQzO,NA,NA,JI68sQzO,2020-0188,2021-10-04,15:16:55,16:16:21,NA,incomplete,false,true,NA,8,9,location,o_s_011.jpg,right,indoor,outdoor,NA,NA,NA,right,1955.29999995232,true,NA,NA,NA,NA,NA
JI68sQzO,NA,NA,JI68sQzO,2020-0188,2021-10-04,15:16:55,16:16:21,NA,incomplete,false,true,NA,8,10,syllable,a_2_021.jpg,right,1 syllable,2 syllables,NA,NA,NA,right,1667.40000009537,true,NA,NA,NA,NA,NA
JI68sQzO,NA,NA,JI68sQzO,2020-0188,2021-10-04,15:16:55,16:16:21,NA,incomplete,false,true,NA,8,11,syllable,a_1_012.jpg,right,2 syllables,1 syllable,NA,NA,NA,right,1719.80000007153,true,NA,NA,NA,NA,NA
JI68sQzO,NA,NA,JI68sQzO,2020-0188,2021-10-04,15:16:55,16:16:21,NA,incomplete,false,true,NA,8,12,syllable,c_2_004.jpg,right,1 syllable,2 syllables,NA,NA,NA,right,1617.10000002384,true,NA,NA,NA,NA,NA
JI68sQzO,NA,NA,JI68sQzO,2020-0188,2021-10-04,15:16:55,16:16:21,NA,incomplete,false,true,NA,8,13,syllable,a_1_013.jpg,right,1 syllable,2 syllables,NA,NA,NA,left,1766.89999997616,false,NA,NA,NA,NA,NA
JI68sQzO,NA,NA,JI68sQzO,2020-0188,2021-10-04,15:16:55,16:16:21,NA,incomplete,false,true,NA,8,14,syllable,c_2_012.jpg,right,1 syllable,2 syllables,NA,NA,NA,right,1409.80000007153,true,NA,NA,NA,NA,NA
JI68sQzO,NA,NA,JI68sQzO,2020-0188,2021-10-04,15:16:55,16:16:21,NA,incomplete,false,true,NA,8,15,abstractness,a_2_023.jpg,left,abstract,concrete,NA,NA,NA,left,2908.79999995232,true,NA,NA,NA,NA,NA
JI68sQzO,NA,NA,JI68sQzO,2020-0188,2021-10-04,15:16:55,16:16:21,NA,incomplete,false,true,NA,8,16,abstractness,a_1_021.jpg,left,abstract,concrete,NA,NA,NA,left,1732.39999997616,true,NA,NA,NA,NA,NA
JI68sQzO,NA,NA,JI68sQzO,2020-0188,2021-10-04,15:16:55,16:16:21,NA,incomplete,false,true,NA,8,17,abstractness,c_2_010.jpg,right,abstract,concrete,NA,NA,NA,right,2157.5,true,NA,NA,NA,NA,NA
JI68sQzO,NA,NA,JI68sQzO,2020-0188,2021-10-04,15:16:55,16:16:21,NA,incomplete,false,true,NA,8,18,abstractness,c_2_001.jpg,left,concrete,abstract,NA,NA,NA,left,2602.19999992847,true,NA,NA,NA,NA,NA
JI68sQzO,NA,NA,JI68sQzO,2020-0188,2021-10-04,15:16:55,16:16:21,NA,incomplete,false,true,NA,8,19,abstractness,c_2_011.jpg,left,concrete,abstract,NA,NA,NA,left,2150.09999990463,true,NA,NA,NA,NA,NA
JI68sQzO,NA,NA,JI68sQzO,2020-0188,2021-10-04,15:16:55,16:16:21,NA,incomplete,false,true,NA,8,20,size,m_s_013.jpg,right,large,small,NA,NA,NA,right,1451.39999997616,true,NA,NA,NA,NA,NA
JI68sQzO,NA,NA,JI68sQzO,2020-0188,2021-10-04,15:16:55,16:16:21,NA,incomplete,false,true,NA,8,21,size,n_l_009.jpg,left,large,small,NA,NA,NA,left,1477.40000009537,true,NA,NA,NA,NA,NA
JI68sQzO,NA,NA,JI68sQzO,2020-0188,2021-10-04,15:16:55,16:16:21,NA,incomplete,false,true,NA,8,22,size,n_l_015.jpg,right,small,large,NA,NA,NA,right,1461.60000002384,true,NA,NA,NA,NA,NA
JI68sQzO,NA,NA,JI68sQzO,2020-0188,2021-10-04,15:16:55,16:16:21,NA,incomplete,false,true,NA,8,23,size,n_l_008.jpg,left,large,small,NA,NA,NA,left,1549.69999992847,true,NA,NA,NA,NA,NA
JI68sQzO,NA,NA,JI68sQzO,2020-0188,2021-10-04,15:16:55,16:16:21,NA,incomplete,false,true,NA,8,24,size,n_l_023.jpg,right,small,large,NA,NA,NA,right,1955.60000002384,true,NA,NA,NA,NA,NA
JI68sQzO,NA,NA,JI68sQzO,2020-0188,2021-10-04,15:16:55,16:16:21,NA,incomplete,false,true,NA,8,25,origin,n_l_004.jpg,left,natural,manmade,NA,NA,NA,left,1633.79999995232,true,NA,NA,NA,NA,NA
JI68sQzO,NA,NA,JI68sQzO,2020-0188,2021-10-04,15:16:55,16:16:21,NA,incomplete,false,true,NA,8,26,origin,n_l_013.jpg,right,manmade,natural,NA,NA,NA,right,2229.69999992847,true,NA,NA,NA,NA,NA
JI68sQzO,NA,NA,JI68sQzO,2020-0188,2021-10-04,15:16:55,16:16:21,NA,incomplete,false,true,NA,8,27,origin,n_l_003.jpg,right,manmade,natural,NA,NA,NA,right,1547.60000002384,true,NA,NA,NA,NA,NA
JI68sQzO,NA,NA,JI68sQzO,2020-0188,2021-10-04,15:16:55,16:16:21,NA,incomplete,false,true,NA,8,28,origin,m_s_003.jpg,left,manmade,natural,NA,NA,NA,left,2279.90000009537,true,NA,NA,NA,NA,NA
JI68sQzO,NA,NA,JI68sQzO,2020-0188,2021-10-04,15:16:55,16:16:21,NA,incomplete,false,true,NA,8,29,origin,m_l_020.jpg,left,manmade,natural,NA,NA,NA,left,3280.59999990463,true,NA,NA,NA,NA,NA
JI68sQzO,NA,NA,JI68sQzO,2020-0188,2021-10-04,15:16:55,16:16:21,NA,incomplete,false,NA,true,8,0,NA,NA,right,NA,NA,n_l_003.jpg,n_l_023.jpg,between-small,NA,NaN,NA,right,2313.600000023842,1,1,1156.7999999523163
JI68sQzO,NA,NA,JI68sQzO,2020-0188,2021-10-04,15:16:55,16:16:21,NA,incomplete,false,NA,true,8,1,NA,NA,left,NA,NA,i_c_025.jpg,i_c_006.jpg,between-small,NA,NaN,NA,left,1703.1000000238419,1,0,1360
JI68sQzO,NA,NA,JI68sQzO,2020-0188,2021-10-04,15:16:55,16:16:21,NA,incomplete,false,NA,true,8,2,NA,NA,right,NA,NA,m_s_013.jpg,c_2_010.jpg,between-big,NA,NaN,NA,left,1276.1000000238419,0,1,1180.8000000715256
JI68sQzO,NA,NA,JI68sQzO,2020-0188,2021-10-04,15:16:55,16:16:21,NA,incomplete,false,NA,true,8,3,NA,NA,right,NA,NA,n_l_008.jpg,m_s_013.jpg,within,NA,NaN,NA,left,1254.2999999523163,0,0,1415.6999999284744
JI68sQzO,NA,NA,JI68sQzO,2020-0188,2021-10-04,15:16:55,16:16:21,NA,incomplete,false,NA,true,8,4,NA,NA,left,NA,NA,i_c_006.jpg,a_2_021.jpg,between-big,NA,NaN,NA,left,1281.8000000715256,1,2,1003.3000000715256
JI68sQzO,NA,NA,JI68sQzO,2020-0188,2021-10-04,15:16:55,16:16:21,NA,incomplete,false,NA,true,8,5,NA,NA,left,NA,NA,c_2_001.jpg,n_l_009.jpg,between-big,NA,NaN,NA,left,1221,1,1,1238.4000000953674
JI68sQzO,NA,NA,JI68sQzO,2020-0188,2021-10-04,15:16:55,16:16:21,NA,incomplete,false,NA,true,8,6,NA,NA,left,NA,NA,i_c_020.jpg,o_s_011.jpg,within,NA,NaN,NA,left,1166.1000000238419,1,1,1199.3000000715256
JI68sQzO,NA,NA,JI68sQzO,2020-0188,2021-10-04,15:16:55,16:16:21,NA,incomplete,false,NA,true,8,7,NA,NA,left,NA,NA,i_c_007.jpg,o_c_026.jpg,between-small,NA,NaN,NA,left,2317.6999999284744,1,1,1215.1000000238419
JI68sQzO,NA,NA,JI68sQzO,2020-0188,2021-10-04,15:16:55,16:16:21,NA,incomplete,false,NA,true,8,8,NA,NA,right,NA,NA,a_2_023.jpg,c_2_004.jpg,between-small,NA,NaN,NA,left,1644.5,0,1,1181.7999999523163
JI68sQzO,NA,NA,JI68sQzO,2020-0188,2021-10-04,15:16:55,16:16:21,NA,incomplete,false,NA,true,8,9,NA,NA,left,NA,NA,a_1_021.jpg,c_2_011.jpg,within,NA,NaN,NA,left,1700.1000000238419,1,0,1994.7000000476837
JI68sQzO,NA,NA,JI68sQzO,2020-0188,2021-10-04,15:16:55,16:16:21,NA,incomplete,false,NA,true,8,10,NA,NA,right,NA,NA,a_1_013.jpg,a_2_021.jpg,within,NA,NaN,NA,left,972.6000000238419,0,1,1336.1999999284744
JI68sQzO,NA,NA,JI68sQzO,2020-0188,2021-10-04,15:16:55,16:16:21,NA,incomplete,false,NA,true,8,11,NA,NA,left,NA,NA,i_s_004.jpg,i_s_021.jpg,within,NA,NaN,NA,left,1790.2999999523163,1,1,1530.3000000715256
JI68sQzO,NA,NA,JI68sQzO,2020-0188,2021-10-04,15:16:55,16:16:21,NA,incomplete,false,NA,true,8,12,NA,NA,left,NA,NA,n_l_009.jpg,n_l_023.jpg,within,NA,NaN,NA,left,1287.6999999284744,1,1,1174
JI68sQzO,NA,NA,JI68sQzO,2020-0188,2021-10-04,15:16:55,16:16:21,NA,incomplete,false,NA,true,8,13,NA,NA,left,NA,NA,i_c_026.jpg,a_1_012.jpg,between-big,NA,NaN,NA,left,1181.7999999523163,1,1,1384.2000000476837
JI68sQzO,NA,NA,JI68sQzO,2020-0188,2021-10-04,15:16:55,16:16:21,NA,incomplete,false,NA,true,8,14,NA,NA,right,NA,NA,m_s_003.jpg,n_l_004.jpg,within,NA,NaN,NA,right,1279.6999999284744,1,0,1619.5
JI68sQzO,NA,NA,JI68sQzO,2020-0188,2021-10-04,15:16:55,16:16:21,NA,incomplete,false,NA,true,8,15,NA,NA,left,NA,NA,a_2_023.jpg,c_2_001.jpg,within,NA,NaN,NA,left,890.6999999284744,1,1,1239.7000000476837
JI68sQzO,NA,NA,JI68sQzO,2020-0188,2021-10-04,15:16:55,16:16:21,NA,incomplete,false,NA,true,8,16,NA,NA,right,NA,NA,i_c_026.jpg,o_c_026.jpg,within,NA,NaN,NA,right,1360.5,1,1,1255.3000000715256
JI68sQzO,NA,NA,JI68sQzO,2020-0188,2021-10-04,15:16:55,16:16:21,NA,incomplete,false,NA,true,8,17,NA,NA,left,NA,NA,o_s_011.jpg,c_2_004.jpg,between-big,NA,NaN,NA,left,1036.7000000476837,1,1,947.3000000715256
JI68sQzO,NA,NA,JI68sQzO,2020-0188,2021-10-04,15:16:55,16:16:21,NA,incomplete,false,NA,true,8,18,NA,NA,right,NA,NA,n_l_013.jpg,n_l_008.jpg,between-small,NA,NaN,NA,right,1085.2000000476837,1,1,2478.899999976158
JI68sQzO,NA,NA,JI68sQzO,2020-0188,2021-10-04,15:16:55,16:16:21,NA,incomplete,false,NA,true,8,19,NA,NA,left,NA,NA,n_l_013.jpg,m_l_020.jpg,within,NA,NaN,NA,left,1069.5,1,0,1280.3999999761581
JI68sQzO,NA,NA,JI68sQzO,2020-0188,2021-10-04,15:16:55,16:16:21,NA,incomplete,false,NA,true,8,20,NA,NA,left,NA,NA,a_1_012.jpg,c_2_012.jpg,within,NA,NaN,NA,left,817.7000000476837,1,1,1968.5
JI68sQzO,NA,NA,JI68sQzO,2020-0188,2021-10-04,15:16:55,16:16:21,NA,incomplete,false,NA,true,8,21,NA,NA,right,NA,NA,n_l_015.jpg,c_2_011.jpg,between-big,NA,NaN,NA,left,964,0,1,1076.7000000476837
JI68sQzO,NA,NA,JI68sQzO,2020-0188,2021-10-04,15:16:55,16:16:21,NA,incomplete,false,NA,true,8,22,NA,NA,right,NA,NA,n_l_004.jpg,n_l_015.jpg,between-small,NA,NaN,NA,right,631.5,1,1,1117.8000000715256
JI68sQzO,NA,NA,JI68sQzO,2020-0188,2021-10-04,15:16:55,16:16:21,NA,incomplete,false,NA,true,8,23,NA,NA,right,NA,NA,c_2_010.jpg,c_2_012.jpg,between-small,NA,NaN,NA,left,799.2999999523163,0,1,1359.8999999761581
JI68sQzO,NA,NA,JI68sQzO,2020-0188,2021-10-04,15:16:55,16:16:21,NA,incomplete,false,NA,true,8,24,NA,NA,left,NA,NA,a_1_013.jpg,a_1_021.jpg,between-small,NA,NaN,NA,right,688.3000000715256,0,1,1935.8999999761581
JI68sQzO,NA,NA,JI68sQzO,2020-0188,2021-10-04,15:16:55,16:16:21,NA,incomplete,false,NA,true,8,25,NA,NA,right,NA,NA,i_c_025.jpg,i_c_004.jpg,within,NA,NaN,NA,left,1215.5,0,1,1687
JI68sQzO,NA,NA,JI68sQzO,2020-0188,2021-10-04,15:16:55,16:16:21,NA,incomplete,false,NA,true,8,26,NA,NA,left,NA,NA,i_s_021.jpg,i_c_020.jpg,between-small,NA,NaN,NA,right,809.8999999761581,0,1,1352.5
JI68sQzO,NA,NA,JI68sQzO,2020-0188,2021-10-04,15:16:55,16:16:21,NA,incomplete,false,true,NA,9,0,origin,n_s_028.jpg,right,manmade,natural,NA,NA,NA,right,1581.29999995232,true,NA,NA,NA,NA,NA
