workerId,hitId,assignmentId,subject,studyid,exp_date,exp_start,exp_end,time_start,time_end,practice,encoding,memory,block,trial,event,stim,answer,label_left,label_right,left_image,right_image,condition,response,response_time,response_acc,order_response,order_response_time,order_acc,distance_response,distance_response_time
jqKePArS,NA,NA,jqKePArS,2020-0188,2021-09-27,15:06:36,16:04:04,NA,incomplete,true,true,NA,0,0,origin,n_s_023.jpg,right,manmade,natural,NA,NA,NA,right,1206.00000000001,true,NA,NA,NA,NA,NA
jqKePArS,NA,NA,jqKePArS,2020-0188,2021-09-27,15:06:36,16:04:04,NA,incomplete,true,true,NA,0,1,origin,n_l_015.jpg,right,manmade,natural,NA,NA,NA,right,985,true,NA,NA,NA,NA,NA
jqKePArS,NA,NA,jqKePArS,2020-0188,2021-09-27,15:06:36,16:04:04,NA,incomplete,true,true,NA,0,2,origin,m_l_018.jpg,left,manmade,natural,NA,NA,NA,left,954.000000000015,true,NA,NA,NA,NA,NA
jqKePArS,NA,NA,jqKePArS,2020-0188,2021-09-27,15:06:36,16:04:04,NA,incomplete,true,true,NA,0,3,origin,n_l_025.jpg,left,natural,manmade,NA,NA,NA,right,646,false,NA,NA,NA,NA,NA
jqKePArS,NA,NA,jqKePArS,2020-0188,2021-09-27,15:06:36,16:04:04,NA,incomplete,true,true,NA,0,4,origin,n_l_023.jpg,left,natural,manmade,NA,NA,NA,left,1181,true,NA,NA,NA,NA,NA
jqKePArS,NA,NA,jqKePArS,2020-0188,2021-09-27,15:06:36,16:04:04,NA,incomplete,true,true,NA,0,5,size,m_s_009.jpg,left,small,large,NA,NA,NA,left,2300,true,NA,NA,NA,NA,NA
jqKePArS,NA,NA,jqKePArS,2020-0188,2021-09-27,15:06:36,16:04:04,NA,incomplete,true,true,NA,0,6,size,n_s_002.jpg,left,small,large,NA,NA,NA,left,1068.99999999999,true,NA,NA,NA,NA,NA
jqKePArS,NA,NA,jqKePArS,2020-0188,2021-09-27,15:06:36,16:04:04,NA,incomplete,true,true,NA,0,7,size,n_s_013.jpg,left,small,large,NA,NA,NA,left,1437,true,NA,NA,NA,NA,NA
jqKePArS,NA,NA,jqKePArS,2020-0188,2021-09-27,15:06:36,16:04:04,NA,incomplete,true,true,NA,0,8,size,m_l_019.jpg,left,large,small,NA,NA,NA,right,1276,false,NA,NA,NA,NA,NA
jqKePArS,NA,NA,jqKePArS,2020-0188,2021-09-27,15:06:36,16:04:04,NA,incomplete,true,true,NA,0,9,size,m_l_017.jpg,right,small,large,NA,NA,NA,left,2231,false,NA,NA,NA,NA,NA
jqKePArS,NA,NA,jqKePArS,2020-0188,2021-09-27,15:06:36,16:04:04,NA,incomplete,true,true,NA,0,10,building,o_s_003.jpg,left,skyscraper,cottage,NA,NA,NA,left,1721,true,NA,NA,NA,NA,NA
jqKePArS,NA,NA,jqKePArS,2020-0188,2021-09-27,15:06:36,16:04:04,NA,incomplete,true,true,NA,0,11,building,i_c_009.jpg,right,skyscraper,cottage,NA,NA,NA,right,1361,true,NA,NA,NA,NA,NA
jqKePArS,NA,NA,jqKePArS,2020-0188,2021-09-27,15:06:36,16:04:04,NA,incomplete,true,true,NA,0,12,building,i_c_028.jpg,left,cottage,skyscraper,NA,NA,NA,left,1221.99999999997,true,NA,NA,NA,NA,NA
jqKePArS,NA,NA,jqKePArS,2020-0188,2021-09-27,15:06:36,16:04:04,NA,incomplete,true,true,NA,0,13,building,i_c_015.jpg,left,cottage,skyscraper,NA,NA,NA,left,1836,true,NA,NA,NA,NA,NA
jqKePArS,NA,NA,jqKePArS,2020-0188,2021-09-27,15:06:36,16:04:04,NA,incomplete,true,true,NA,0,14,building,o_c_018.jpg,right,skyscraper,cottage,NA,NA,NA,right,1572,true,NA,NA,NA,NA,NA
jqKePArS,NA,NA,jqKePArS,2020-0188,2021-09-27,15:06:36,16:04:04,NA,incomplete,true,true,NA,0,15,location,i_s_011.jpg,left,indoor,outdoor,NA,NA,NA,left,1443.00000000003,true,NA,NA,NA,NA,NA
jqKePArS,NA,NA,jqKePArS,2020-0188,2021-09-27,15:06:36,16:04:04,NA,incomplete,true,true,NA,0,16,location,o_c_027.jpg,left,outdoor,indoor,NA,NA,NA,left,2163,true,NA,NA,NA,NA,NA
jqKePArS,NA,NA,jqKePArS,2020-0188,2021-09-27,15:06:36,16:04:04,NA,incomplete,true,true,NA,0,17,location,i_s_018.jpg,left,indoor,outdoor,NA,NA,NA,left,1177,true,NA,NA,NA,NA,NA
jqKePArS,NA,NA,jqKePArS,2020-0188,2021-09-27,15:06:36,16:04:04,NA,incomplete,true,true,NA,0,18,location,o_s_026.jpg,left,outdoor,indoor,NA,NA,NA,left,2077,true,NA,NA,NA,NA,NA
jqKePArS,NA,NA,jqKePArS,2020-0188,2021-09-27,15:06:36,16:04:04,NA,incomplete,true,true,NA,0,19,location,o_c_024.jpg,left,outdoor,indoor,NA,NA,NA,left,1471.99999999997,true,NA,NA,NA,NA,NA
jqKePArS,NA,NA,jqKePArS,2020-0188,2021-09-27,15:06:36,16:04:04,NA,incomplete,true,true,NA,0,20,syllable,a_2_009.jpg,right,2 syllables,1 syllable,NA,NA,NA,left,1953,false,NA,NA,NA,NA,NA
jqKePArS,NA,NA,jqKePArS,2020-0188,2021-09-27,15:06:36,16:04:04,NA,incomplete,true,true,NA,0,21,syllable,a_1_019.jpg,right,1 syllable,2 syllables,NA,NA,NA,left,1568,false,NA,NA,NA,NA,NA
jqKePArS,NA,NA,jqKePArS,2020-0188,2021-09-27,15:06:36,16:04:04,NA,incomplete,true,true,NA,0,22,syllable,c_1_006.jpg,right,2 syllables,1 syllable,NA,NA,NA,right,1324,true,NA,NA,NA,NA,NA
jqKePArS,NA,NA,jqKePArS,2020-0188,2021-09-27,15:06:36,16:04:04,NA,incomplete,true,true,NA,0,23,syllable,a_2_001.jpg,right,2 syllables,1 syllable,NA,NA,NA,left,1606,false,NA,NA,NA,NA,NA
jqKePArS,NA,NA,jqKePArS,2020-0188,2021-09-27,15:06:36,16:04:04,NA,incomplete,true,true,NA,0,24,syllable,a_2_025.jpg,right,1 syllable,2 syllables,NA,NA,NA,right,1481,true,NA,NA,NA,NA,NA
jqKePArS,NA,NA,jqKePArS,2020-0188,2021-09-27,15:06:36,16:04:04,NA,incomplete,true,true,NA,0,25,abstractness,a_2_018.jpg,left,abstract,concrete,NA,NA,NA,left,1909,true,NA,NA,NA,NA,NA
jqKePArS,NA,NA,jqKePArS,2020-0188,2021-09-27,15:06:36,16:04:04,NA,incomplete,true,true,NA,0,26,abstractness,c_2_024.jpg,left,concrete,abstract,NA,NA,NA,left,1479,true,NA,NA,NA,NA,NA
jqKePArS,NA,NA,jqKePArS,2020-0188,2021-09-27,15:06:36,16:04:04,NA,incomplete,true,true,NA,0,27,abstractness,c_1_019.jpg,left,concrete,abstract,NA,NA,NA,left,2084,true,NA,NA,NA,NA,NA
jqKePArS,NA,NA,jqKePArS,2020-0188,2021-09-27,15:06:36,16:04:04,NA,incomplete,true,true,NA,0,28,abstractness,c_2_010.jpg,left,concrete,abstract,NA,NA,NA,left,1349,true,NA,NA,NA,NA,NA
jqKePArS,NA,NA,jqKePArS,2020-0188,2021-09-27,15:06:36,16:04:04,NA,incomplete,true,true,NA,0,29,abstractness,a_1_001.jpg,left,abstract,concrete,NA,NA,NA,left,1551,true,NA,NA,NA,NA,NA
jqKePArS,NA,NA,jqKePArS,2020-0188,2021-09-27,15:06:36,16:04:04,NA,incomplete,true,NA,true,0,0,NA,NA,right,NA,NA,m_l_017.jpg,n_s_002.jpg,within,NA,NaN,NA,left,1964.999999999971,0,1,5422
jqKePArS,NA,NA,jqKePArS,2020-0188,2021-09-27,15:06:36,16:04:04,NA,incomplete,true,NA,true,0,1,NA,NA,right,NA,NA,i_c_028.jpg,m_l_017.jpg,between-big,NA,NaN,NA,right,5917,1,2,5322
jqKePArS,NA,NA,jqKePArS,2020-0188,2021-09-27,15:06:36,16:04:04,NA,incomplete,true,NA,true,0,2,NA,NA,left,NA,NA,i_c_015.jpg,o_c_027.jpg,between-small,NA,NaN,NA,left,2951,1,1,4335
jqKePArS,NA,NA,jqKePArS,2020-0188,2021-09-27,15:06:36,16:04:04,NA,incomplete,true,NA,true,0,3,NA,NA,right,NA,NA,a_1_001.jpg,c_2_024.jpg,within,NA,NaN,NA,right,6168,1,0,3191
jqKePArS,NA,NA,jqKePArS,2020-0188,2021-09-27,15:06:36,16:04:04,NA,incomplete,true,NA,true,0,4,NA,NA,right,NA,NA,o_c_018.jpg,i_c_009.jpg,within,NA,NaN,NA,right,3162.999999999942,1,0,2294
jqKePArS,NA,NA,jqKePArS,2020-0188,2021-09-27,15:06:36,16:04:04,NA,incomplete,true,NA,true,0,5,NA,NA,left,NA,NA,a_2_018.jpg,c_2_010.jpg,within,NA,NaN,NA,left,4023,1,0,2862
jqKePArS,NA,NA,jqKePArS,2020-0188,2021-09-27,15:06:36,16:04:04,NA,incomplete,true,NA,true,0,6,NA,NA,left,NA,NA,i_s_011.jpg,o_s_026.jpg,within,NA,NaN,NA,right,3400,0,1,1688
jqKePArS,NA,NA,jqKePArS,2020-0188,2021-09-27,15:06:36,16:04:04,NA,incomplete,true,NA,true,0,7,NA,NA,left,NA,NA,a_2_009.jpg,a_2_001.jpg,within,NA,NaN,NA,right,3658,0,0,2264.999999999942
jqKePArS,NA,NA,jqKePArS,2020-0188,2021-09-27,15:06:36,16:04:04,NA,incomplete,true,NA,true,0,8,NA,NA,right,NA,NA,a_2_018.jpg,c_1_006.jpg,between-small,NA,NaN,NA,right,3402.000000000058,1,0,2891
jqKePArS,NA,NA,jqKePArS,2020-0188,2021-09-27,15:06:36,16:04:04,NA,incomplete,true,NA,true,0,9,NA,NA,right,NA,NA,o_c_024.jpg,o_c_027.jpg,within,NA,NaN,NA,right,2975,1,1,1141
jqKePArS,NA,NA,jqKePArS,2020-0188,2021-09-27,15:06:36,16:04:04,NA,incomplete,true,NA,true,0,10,NA,NA,right,NA,NA,c_2_024.jpg,a_2_001.jpg,between-small,NA,NaN,NA,left,2183,0,0,1483.9999999999418
jqKePArS,NA,NA,jqKePArS,2020-0188,2021-09-27,15:06:36,16:04:04,NA,incomplete,true,NA,true,0,11,NA,NA,right,NA,NA,c_1_019.jpg,a_2_025.jpg,between-small,NA,NaN,NA,left,1700,0,0,2228.000000000058
jqKePArS,NA,NA,jqKePArS,2020-0188,2021-09-27,15:06:36,16:04:04,NA,incomplete,true,NA,true,0,12,NA,NA,left,NA,NA,o_c_024.jpg,c_1_006.jpg,between-big,NA,NaN,NA,left,1866,1,1,1342
jqKePArS,NA,NA,jqKePArS,2020-0188,2021-09-27,15:06:36,16:04:04,NA,incomplete,true,NA,true,0,13,NA,NA,right,NA,NA,a_2_025.jpg,a_1_019.jpg,within,NA,NaN,NA,right,2264,1,1,1968.9999999999418
jqKePArS,NA,NA,jqKePArS,2020-0188,2021-09-27,15:06:36,16:04:04,NA,incomplete,true,NA,true,0,14,NA,NA,left,NA,NA,i_s_018.jpg,a_2_009.jpg,between-big,NA,NaN,NA,right,4319,0,3,2498
jqKePArS,NA,NA,jqKePArS,2020-0188,2021-09-27,15:06:36,16:04:04,NA,incomplete,true,NA,true,0,15,NA,NA,left,NA,NA,m_l_018.jpg,m_s_009.jpg,between-small,NA,NaN,NA,left,2849,1,2,1447
jqKePArS,NA,NA,jqKePArS,2020-0188,2021-09-27,15:06:36,16:04:04,NA,incomplete,true,NA,true,0,16,NA,NA,right,NA,NA,i_s_011.jpg,i_c_028.jpg,between-small,NA,NaN,NA,left,3210.999999999942,0,2,3726
jqKePArS,NA,NA,jqKePArS,2020-0188,2021-09-27,15:06:36,16:04:04,NA,incomplete,true,NA,true,0,17,NA,NA,left,NA,NA,o_s_026.jpg,a_1_019.jpg,between-big,NA,NaN,NA,left,1953.9999999999418,1,3,1623
jqKePArS,NA,NA,jqKePArS,2020-0188,2021-09-27,15:06:36,16:04:04,NA,incomplete,true,NA,true,0,18,NA,NA,right,NA,NA,i_c_009.jpg,m_l_019.jpg,between-big,NA,NaN,NA,right,1662,1,3,1244
jqKePArS,NA,NA,jqKePArS,2020-0188,2021-09-27,15:06:36,16:04:04,NA,incomplete,true,NA,true,0,19,NA,NA,right,NA,NA,i_c_015.jpg,o_s_003.jpg,within,NA,NaN,NA,right,2396.999999999942,1,2,1854
jqKePArS,NA,NA,jqKePArS,2020-0188,2021-09-27,15:06:36,16:04:04,NA,incomplete,true,NA,true,0,20,NA,NA,right,NA,NA,n_l_025.jpg,n_s_023.jpg,within,NA,NaN,NA,right,1722,1,1,1306
jqKePArS,NA,NA,jqKePArS,2020-0188,2021-09-27,15:06:36,16:04:04,NA,incomplete,true,NA,true,0,21,NA,NA,left,NA,NA,n_s_013.jpg,o_s_003.jpg,between-big,NA,NaN,NA,left,1704,1,1,1881
jqKePArS,NA,NA,jqKePArS,2020-0188,2021-09-27,15:06:36,16:04:04,NA,incomplete,true,NA,true,0,22,NA,NA,left,NA,NA,o_c_018.jpg,i_s_018.jpg,between-small,NA,NaN,NA,left,4296,1,1,3727
jqKePArS,NA,NA,jqKePArS,2020-0188,2021-09-27,15:06:36,16:04:04,NA,incomplete,true,NA,true,0,23,NA,NA,right,NA,NA,n_l_023.jpg,n_l_015.jpg,within,NA,NaN,NA,left,3719,0,0,1667
jqKePArS,NA,NA,jqKePArS,2020-0188,2021-09-27,15:06:36,16:04:04,NA,incomplete,true,NA,true,0,24,NA,NA,left,NA,NA,n_l_025.jpg,n_s_002.jpg,between-small,NA,NaN,NA,left,3757,1,1,1021.0000000000582
jqKePArS,NA,NA,jqKePArS,2020-0188,2021-09-27,15:06:36,16:04:04,NA,incomplete,true,NA,true,0,25,NA,NA,right,NA,NA,n_s_013.jpg,n_l_023.jpg,between-small,NA,NaN,NA,right,1457,1,1,1630
jqKePArS,NA,NA,jqKePArS,2020-0188,2021-09-27,15:06:36,16:04:04,NA,incomplete,true,NA,true,0,26,NA,NA,left,NA,NA,m_s_009.jpg,m_l_019.jpg,within,NA,NaN,NA,right,1482,0,1,1980
jqKePArS,NA,NA,jqKePArS,2020-0188,2021-09-27,15:06:36,16:04:04,NA,incomplete,false,true,NA,1,0,origin,n_l_017.jpg,left,natural,manmade,NA,NA,NA,left,1632.00000000006,true,NA,NA,NA,NA,NA
jqKePArS,NA,NA,jqKePArS,2020-0188,2021-09-27,15:06:36,16:04:04,NA,incomplete,false,true,NA,1,1,origin,n_s_026.jpg,left,natural,manmade,NA,NA,NA,left,1601.99999999994,true,NA,NA,NA,NA,NA
jqKePArS,NA,NA,jqKePArS,2020-0188,2021-09-27,15:06:36,16:04:04,NA,incomplete,false,true,NA,1,2,origin,m_s_016.jpg,left,manmade,natural,NA,NA,NA,left,1230.00000000006,true,NA,NA,NA,NA,NA
jqKePArS,NA,NA,jqKePArS,2020-0188,2021-09-27,15:06:36,16:04:04,NA,incomplete,false,true,NA,1,3,origin,n_s_016.jpg,left,natural,manmade,NA,NA,NA,left,1100,true,NA,NA,NA,NA,NA
jqKePArS,NA,NA,jqKePArS,2020-0188,2021-09-27,15:06:36,16:04:04,NA,incomplete,false,true,NA,1,4,origin,m_s_001.jpg,left,manmade,natural,NA,NA,NA,left,2090.00000000006,true,NA,NA,NA,NA,NA
jqKePArS,NA,NA,jqKePArS,2020-0188,2021-09-27,15:06:36,16:04:04,NA,incomplete,false,true,NA,1,5,size,m_l_025.jpg,left,large,small,NA,NA,NA,left,1379,true,NA,NA,NA,NA,NA
jqKePArS,NA,NA,jqKePArS,2020-0188,2021-09-27,15:06:36,16:04:04,NA,incomplete,false,true,NA,1,6,size,n_s_009.jpg,right,large,small,NA,NA,NA,right,3203.99999999988,true,NA,NA,NA,NA,NA
jqKePArS,NA,NA,jqKePArS,2020-0188,2021-09-27,15:06:36,16:04:04,NA,incomplete,false,true,NA,1,7,size,m_s_017.jpg,left,small,large,NA,NA,NA,left,1682,true,NA,NA,NA,NA,NA
jqKePArS,NA,NA,jqKePArS,2020-0188,2021-09-27,15:06:36,16:04:04,NA,incomplete,false,true,NA,1,8,size,n_s_017.jpg,left,small,large,NA,NA,NA,left,1640,true,NA,NA,NA,NA,NA
jqKePArS,NA,NA,jqKePArS,2020-0188,2021-09-27,15:06:36,16:04:04,NA,incomplete,false,true,NA,1,9,size,n_s_018.jpg,right,large,small,NA,NA,NA,right,1350,true,NA,NA,NA,NA,NA
jqKePArS,NA,NA,jqKePArS,2020-0188,2021-09-27,15:06:36,16:04:04,NA,incomplete,false,true,NA,1,10,location,o_c_009.jpg,right,indoor,outdoor,NA,NA,NA,right,1991,true,NA,NA,NA,NA,NA
jqKePArS,NA,NA,jqKePArS,2020-0188,2021-09-27,15:06:36,16:04:04,NA,incomplete,false,true,NA,1,11,location,o_s_001.jpg,right,indoor,outdoor,NA,NA,NA,right,1210,true,NA,NA,NA,NA,NA
jqKePArS,NA,NA,jqKePArS,2020-0188,2021-09-27,15:06:36,16:04:04,NA,incomplete,false,true,NA,1,12,location,i_s_026.jpg,left,indoor,outdoor,NA,NA,NA,left,1947.99999999988,true,NA,NA,NA,NA,NA
jqKePArS,NA,NA,jqKePArS,2020-0188,2021-09-27,15:06:36,16:04:04,NA,incomplete,false,true,NA,1,13,location,o_s_012.jpg,right,indoor,outdoor,NA,NA,NA,right,1198,true,NA,NA,NA,NA,NA
jqKePArS,NA,NA,jqKePArS,2020-0188,2021-09-27,15:06:36,16:04:04,NA,incomplete,false,true,NA,1,14,location,i_c_022.jpg,left,indoor,outdoor,NA,NA,NA,left,1520,true,NA,NA,NA,NA,NA
jqKePArS,NA,NA,jqKePArS,2020-0188,2021-09-27,15:06:36,16:04:04,NA,incomplete,false,true,NA,1,15,building,o_c_026.jpg,left,cottage,skyscraper,NA,NA,NA,left,1574,true,NA,NA,NA,NA,NA
jqKePArS,NA,NA,jqKePArS,2020-0188,2021-09-27,15:06:36,16:04:04,NA,incomplete,false,true,NA,1,16,building,o_c_011.jpg,left,cottage,skyscraper,NA,NA,NA,left,1186.99999999988,true,NA,NA,NA,NA,NA
jqKePArS,NA,NA,jqKePArS,2020-0188,2021-09-27,15:06:36,16:04:04,NA,incomplete,false,true,NA,1,17,building,i_c_013.jpg,left,cottage,skyscraper,NA,NA,NA,left,1668,true,NA,NA,NA,NA,NA
jqKePArS,NA,NA,jqKePArS,2020-0188,2021-09-27,15:06:36,16:04:04,NA,incomplete,false,true,NA,1,18,building,i_c_003.jpg,right,skyscraper,cottage,NA,NA,NA,right,1200,true,NA,NA,NA,NA,NA
jqKePArS,NA,NA,jqKePArS,2020-0188,2021-09-27,15:06:36,16:04:04,NA,incomplete,false,true,NA,1,19,building,i_c_024.jpg,left,cottage,skyscraper,NA,NA,NA,left,2442,true,NA,NA,NA,NA,NA
jqKePArS,NA,NA,jqKePArS,2020-0188,2021-09-27,15:06:36,16:04:04,NA,incomplete,false,true,NA,1,20,syllable,c_1_011.jpg,right,1 syllable,2 syllables,NA,NA,NA,left,1536.99999999988,false,NA,NA,NA,NA,NA
jqKePArS,NA,NA,jqKePArS,2020-0188,2021-09-27,15:06:36,16:04:04,NA,incomplete,false,true,NA,1,21,syllable,a_2_008.jpg,right,2 syllables,1 syllable,NA,NA,NA,left,2249,false,NA,NA,NA,NA,NA
jqKePArS,NA,NA,jqKePArS,2020-0188,2021-09-27,15:06:36,16:04:04,NA,incomplete,false,true,NA,1,22,syllable,a_1_012.jpg,right,2 syllables,1 syllable,NA,NA,NA,right,1472,true,NA,NA,NA,NA,NA
jqKePArS,NA,NA,jqKePArS,2020-0188,2021-09-27,15:06:36,16:04:04,NA,incomplete,false,true,NA,1,23,syllable,a_2_004.jpg,right,1 syllable,2 syllables,NA,NA,NA,right,2394,true,NA,NA,NA,NA,NA
jqKePArS,NA,NA,jqKePArS,2020-0188,2021-09-27,15:06:36,16:04:04,NA,incomplete,false,true,NA,1,24,syllable,c_2_028.jpg,right,2 syllables,1 syllable,NA,NA,NA,left,1740,false,NA,NA,NA,NA,NA
jqKePArS,NA,NA,jqKePArS,2020-0188,2021-09-27,15:06:36,16:04:04,NA,incomplete,false,true,NA,1,25,abstractness,a_1_024.jpg,left,abstract,concrete,NA,NA,NA,left,2679.00000000012,true,NA,NA,NA,NA,NA
jqKePArS,NA,NA,jqKePArS,2020-0188,2021-09-27,15:06:36,16:04:04,NA,incomplete,false,true,NA,1,26,abstractness,a_1_007.jpg,left,abstract,concrete,NA,NA,NA,left,2862.00000000012,true,NA,NA,NA,NA,NA
jqKePArS,NA,NA,jqKePArS,2020-0188,2021-09-27,15:06:36,16:04:04,NA,incomplete,false,true,NA,1,27,abstractness,c_2_001.jpg,right,abstract,concrete,NA,NA,NA,right,1570,true,NA,NA,NA,NA,NA
jqKePArS,NA,NA,jqKePArS,2020-0188,2021-09-27,15:06:36,16:04:04,NA,incomplete,false,true,NA,1,28,abstractness,c_1_017.jpg,right,abstract,concrete,NA,NA,NA,right,904,true,NA,NA,NA,NA,NA
jqKePArS,NA,NA,jqKePArS,2020-0188,2021-09-27,15:06:36,16:04:04,NA,incomplete,false,true,NA,1,29,abstractness,c_2_020.jpg,left,concrete,abstract,NA,NA,NA,left,2233,true,NA,NA,NA,NA,NA
jqKePArS,NA,NA,jqKePArS,2020-0188,2021-09-27,15:06:36,16:04:04,NA,incomplete,false,NA,true,1,0,NA,NA,right,NA,NA,c_1_017.jpg,a_1_024.jpg,within,NA,NaN,NA,right,11576,1,1,2377.9999999998836
jqKePArS,NA,NA,jqKePArS,2020-0188,2021-09-27,15:06:36,16:04:04,NA,incomplete,false,NA,true,1,1,NA,NA,left,NA,NA,o_c_011.jpg,i_c_024.jpg,within,NA,NaN,NA,left,1409,1,1,2590
jqKePArS,NA,NA,jqKePArS,2020-0188,2021-09-27,15:06:36,16:04:04,NA,incomplete,false,NA,true,1,2,NA,NA,left,NA,NA,c_1_011.jpg,a_2_004.jpg,within,NA,NaN,NA,left,1880,1,2,7292
jqKePArS,NA,NA,jqKePArS,2020-0188,2021-09-27,15:06:36,16:04:04,NA,incomplete,false,NA,true,1,3,NA,NA,left,NA,NA,i_c_022.jpg,i_c_013.jpg,between-small,NA,NaN,NA,left,2908,1,1,1993.9999999998836
jqKePArS,NA,NA,jqKePArS,2020-0188,2021-09-27,15:06:36,16:04:04,NA,incomplete,false,NA,true,1,4,NA,NA,right,NA,NA,n_s_018.jpg,n_s_009.jpg,within,NA,NaN,NA,right,1998,1,0,2818
jqKePArS,NA,NA,jqKePArS,2020-0188,2021-09-27,15:06:36,16:04:04,NA,incomplete,false,NA,true,1,5,NA,NA,right,NA,NA,c_1_011.jpg,i_c_013.jpg,between-big,NA,NaN,NA,right,2726,1,2,2315.9999999998836
jqKePArS,NA,NA,jqKePArS,2020-0188,2021-09-27,15:06:36,16:04:04,NA,incomplete,false,NA,true,1,6,NA,NA,right,NA,NA,a_1_024.jpg,a_1_012.jpg,between-small,NA,NaN,NA,right,1708,1,2,1849
jqKePArS,NA,NA,jqKePArS,2020-0188,2021-09-27,15:06:36,16:04:04,NA,incomplete,false,NA,true,1,7,NA,NA,left,NA,NA,c_2_028.jpg,c_2_001.jpg,between-small,NA,NaN,NA,left,3057,1,2,1620
jqKePArS,NA,NA,jqKePArS,2020-0188,2021-09-27,15:06:36,16:04:04,NA,incomplete,false,NA,true,1,8,NA,NA,left,NA,NA,m_s_016.jpg,m_l_025.jpg,between-small,NA,NaN,NA,left,4765,1,2,2378.0000000001164
jqKePArS,NA,NA,jqKePArS,2020-0188,2021-09-27,15:06:36,16:04:04,NA,incomplete,false,NA,true,1,9,NA,NA,right,NA,NA,o_c_011.jpg,o_s_012.jpg,between-small,NA,NaN,NA,right,4817.999999999884,1,1,2035
jqKePArS,NA,NA,jqKePArS,2020-0188,2021-09-27,15:06:36,16:04:04,NA,incomplete,false,NA,true,1,10,NA,NA,right,NA,NA,o_s_012.jpg,o_c_009.jpg,within,NA,NaN,NA,right,2345,1,2,5401
jqKePArS,NA,NA,jqKePArS,2020-0188,2021-09-27,15:06:36,16:04:04,NA,incomplete,false,NA,true,1,11,NA,NA,right,NA,NA,n_s_009.jpg,n_s_016.jpg,between-small,NA,NaN,NA,right,3558,1,2,4095.0000000001164
jqKePArS,NA,NA,jqKePArS,2020-0188,2021-09-27,15:06:36,16:04:04,NA,incomplete,false,NA,true,1,12,NA,NA,left,NA,NA,i_c_024.jpg,a_1_012.jpg,between-big,NA,NaN,NA,left,8141.999999999884,1,2,1587
jqKePArS,NA,NA,jqKePArS,2020-0188,2021-09-27,15:06:36,16:04:04,NA,incomplete,false,NA,true,1,13,NA,NA,left,NA,NA,i_c_003.jpg,a_2_008.jpg,between-big,NA,NaN,NA,left,3357,1,2,951
jqKePArS,NA,NA,jqKePArS,2020-0188,2021-09-27,15:06:36,16:04:04,NA,incomplete,false,NA,true,1,14,NA,NA,left,NA,NA,o_s_001.jpg,i_c_022.jpg,within,NA,NaN,NA,right,4669,0,2,1317
jqKePArS,NA,NA,jqKePArS,2020-0188,2021-09-27,15:06:36,16:04:04,NA,incomplete,false,NA,true,1,15,NA,NA,left,NA,NA,m_l_025.jpg,n_s_017.jpg,within,NA,NaN,NA,left,4213,1,2,1899
jqKePArS,NA,NA,jqKePArS,2020-0188,2021-09-27,15:06:36,16:04:04,NA,incomplete,false,NA,true,1,16,NA,NA,left,NA,NA,i_s_026.jpg,o_c_026.jpg,between-small,NA,NaN,NA,left,5790.999999999884,1,2,2527.0000000001164
jqKePArS,NA,NA,jqKePArS,2020-0188,2021-09-27,15:06:36,16:04:04,NA,incomplete,false,NA,true,1,17,NA,NA,right,NA,NA,a_1_007.jpg,a_2_004.jpg,between-small,NA,NaN,NA,right,3678,1,2,1497
jqKePArS,NA,NA,jqKePArS,2020-0188,2021-09-27,15:06:36,16:04:04,NA,incomplete,false,NA,true,1,18,NA,NA,right,NA,NA,c_2_028.jpg,a_2_008.jpg,within,NA,NaN,NA,left,1185,0,2,2002
jqKePArS,NA,NA,jqKePArS,2020-0188,2021-09-27,15:06:36,16:04:04,NA,incomplete,false,NA,true,1,19,NA,NA,left,NA,NA,n_l_017.jpg,n_s_016.jpg,within,NA,NaN,NA,left,1668,1,0,1767
jqKePArS,NA,NA,jqKePArS,2020-0188,2021-09-27,15:06:36,16:04:04,NA,incomplete,false,NA,true,1,20,NA,NA,right,NA,NA,m_s_001.jpg,n_s_026.jpg,within,NA,NaN,NA,right,2125,1,0,1743
jqKePArS,NA,NA,jqKePArS,2020-0188,2021-09-27,15:06:36,16:04:04,NA,incomplete,false,NA,true,1,21,NA,NA,left,NA,NA,n_s_017.jpg,o_s_001.jpg,between-big,NA,NaN,NA,left,1810.0000000001164,1,2,1326
jqKePArS,NA,NA,jqKePArS,2020-0188,2021-09-27,15:06:36,16:04:04,NA,incomplete,false,NA,true,1,22,NA,NA,right,NA,NA,i_s_026.jpg,n_s_018.jpg,between-big,NA,NaN,NA,right,1361,1,2,1920.0000000001164
jqKePArS,NA,NA,jqKePArS,2020-0188,2021-09-27,15:06:36,16:04:04,NA,incomplete,false,NA,true,1,23,NA,NA,left,NA,NA,o_c_026.jpg,i_c_003.jpg,within,NA,NaN,NA,left,1586,1,2,1439
jqKePArS,NA,NA,jqKePArS,2020-0188,2021-09-27,15:06:36,16:04:04,NA,incomplete,false,NA,true,1,24,NA,NA,right,NA,NA,o_c_009.jpg,m_s_017.jpg,between-big,NA,NaN,NA,right,3398,1,2,1214
jqKePArS,NA,NA,jqKePArS,2020-0188,2021-09-27,15:06:36,16:04:04,NA,incomplete,false,NA,true,1,25,NA,NA,right,NA,NA,c_2_020.jpg,a_1_007.jpg,within,NA,NaN,NA,right,2803,1,2,2544.0000000001164
jqKePArS,NA,NA,jqKePArS,2020-0188,2021-09-27,15:06:36,16:04:04,NA,incomplete,false,NA,true,1,26,NA,NA,right,NA,NA,m_s_017.jpg,m_s_001.jpg,between-small,NA,NaN,NA,right,2548,1,2,2018
jqKePArS,NA,NA,jqKePArS,2020-0188,2021-09-27,15:06:36,16:04:04,NA,incomplete,false,true,NA,2,0,location,i_c_004.jpg,left,indoor,outdoor,NA,NA,NA,left,1457,true,NA,NA,NA,NA,NA
jqKePArS,NA,NA,jqKePArS,2020-0188,2021-09-27,15:06:36,16:04:04,NA,incomplete,false,true,NA,2,1,location,i_c_007.jpg,right,outdoor,indoor,NA,NA,NA,left,1783,false,NA,NA,NA,NA,NA
jqKePArS,NA,NA,jqKePArS,2020-0188,2021-09-27,15:06:36,16:04:04,NA,incomplete,false,true,NA,2,2,location,i_s_012.jpg,right,outdoor,indoor,NA,NA,NA,right,1598,true,NA,NA,NA,NA,NA
jqKePArS,NA,NA,jqKePArS,2020-0188,2021-09-27,15:06:36,16:04:04,NA,incomplete,false,true,NA,2,3,location,o_c_007.jpg,right,indoor,outdoor,NA,NA,NA,right,1101,true,NA,NA,NA,NA,NA
jqKePArS,NA,NA,jqKePArS,2020-0188,2021-09-27,15:06:36,16:04:04,NA,incomplete,false,true,NA,2,4,location,o_s_002.jpg,left,outdoor,indoor,NA,NA,NA,left,1321,true,NA,NA,NA,NA,NA
jqKePArS,NA,NA,jqKePArS,2020-0188,2021-09-27,15:06:36,16:04:04,NA,incomplete,false,true,NA,2,5,building,i_c_025.jpg,left,cottage,skyscraper,NA,NA,NA,left,1617.00000000012,true,NA,NA,NA,NA,NA
jqKePArS,NA,NA,jqKePArS,2020-0188,2021-09-27,15:06:36,16:04:04,NA,incomplete,false,true,NA,2,6,building,o_c_028.jpg,left,cottage,skyscraper,NA,NA,NA,left,1587,true,NA,NA,NA,NA,NA
jqKePArS,NA,NA,jqKePArS,2020-0188,2021-09-27,15:06:36,16:04:04,NA,incomplete,false,true,NA,2,7,building,i_c_023.jpg,left,cottage,skyscraper,NA,NA,NA,left,1072,true,NA,NA,NA,NA,NA
jqKePArS,NA,NA,jqKePArS,2020-0188,2021-09-27,15:06:36,16:04:04,NA,incomplete,false,true,NA,2,8,building,o_s_022.jpg,left,skyscraper,cottage,NA,NA,NA,left,1489,true,NA,NA,NA,NA,NA
jqKePArS,NA,NA,jqKePArS,2020-0188,2021-09-27,15:06:36,16:04:04,NA,incomplete,false,true,NA,2,9,building,i_c_026.jpg,right,skyscraper,cottage,NA,NA,NA,right,1743.00000000012,true,NA,NA,NA,NA,NA
jqKePArS,NA,NA,jqKePArS,2020-0188,2021-09-27,15:06:36,16:04:04,NA,incomplete,false,true,NA,2,10,abstractness,a_1_023.jpg,left,abstract,concrete,NA,NA,NA,left,2543,true,NA,NA,NA,NA,NA
jqKePArS,NA,NA,jqKePArS,2020-0188,2021-09-27,15:06:36,16:04:04,NA,incomplete,false,true,NA,2,11,abstractness,a_2_003.jpg,right,concrete,abstract,NA,NA,NA,right,1790,true,NA,NA,NA,NA,NA
jqKePArS,NA,NA,jqKePArS,2020-0188,2021-09-27,15:06:36,16:04:04,NA,incomplete,false,true,NA,2,12,abstractness,a_2_028.jpg,right,concrete,abstract,NA,NA,NA,left,514,false,NA,NA,NA,NA,NA
jqKePArS,NA,NA,jqKePArS,2020-0188,2021-09-27,15:06:36,16:04:04,NA,incomplete,false,true,NA,2,13,abstractness,c_2_015.jpg,right,abstract,concrete,NA,NA,NA,left,404,false,NA,NA,NA,NA,NA
jqKePArS,NA,NA,jqKePArS,2020-0188,2021-09-27,15:06:36,16:04:04,NA,incomplete,false,true,NA,2,14,abstractness,c_1_013.jpg,right,abstract,concrete,NA,NA,NA,right,332,true,NA,NA,NA,NA,NA
jqKePArS,NA,NA,jqKePArS,2020-0188,2021-09-27,15:06:36,16:04:04,NA,incomplete,false,true,NA,2,15,syllable,a_2_023.jpg,right,1 syllable,2 syllables,NA,NA,NA,right,1476,true,NA,NA,NA,NA,NA
jqKePArS,NA,NA,jqKePArS,2020-0188,2021-09-27,15:06:36,16:04:04,NA,incomplete,false,true,NA,2,16,syllable,a_2_007.jpg,right,1 syllable,2 syllables,NA,NA,NA,right,1223.99999999988,true,NA,NA,NA,NA,NA
jqKePArS,NA,NA,jqKePArS,2020-0188,2021-09-27,15:06:36,16:04:04,NA,incomplete,false,true,NA,2,17,syllable,a_2_026.jpg,right,2 syllables,1 syllable,NA,NA,NA,left,1227.99999999988,false,NA,NA,NA,NA,NA
jqKePArS,NA,NA,jqKePArS,2020-0188,2021-09-27,15:06:36,16:04:04,NA,incomplete,false,true,NA,2,18,syllable,a_1_006.jpg,right,1 syllable,2 syllables,NA,NA,NA,left,1468,false,NA,NA,NA,NA,NA
jqKePArS,NA,NA,jqKePArS,2020-0188,2021-09-27,15:06:36,16:04:04,NA,incomplete,false,true,NA,2,19,syllable,a_1_005.jpg,right,2 syllables,1 syllable,NA,NA,NA,right,1137,true,NA,NA,NA,NA,NA
jqKePArS,NA,NA,jqKePArS,2020-0188,2021-09-27,15:06:36,16:04:04,NA,incomplete,false,true,NA,2,20,origin,m_l_026.jpg,right,natural,manmade,NA,NA,NA,right,1628,true,NA,NA,NA,NA,NA
jqKePArS,NA,NA,jqKePArS,2020-0188,2021-09-27,15:06:36,16:04:04,NA,incomplete,false,true,NA,2,21,origin,m_l_016.jpg,right,natural,manmade,NA,NA,NA,right,1949,true,NA,NA,NA,NA,NA
jqKePArS,NA,NA,jqKePArS,2020-0188,2021-09-27,15:06:36,16:04:04,NA,incomplete,false,true,NA,2,22,origin,m_s_008.jpg,right,natural,manmade,NA,NA,NA,right,1121.99999999988,true,NA,NA,NA,NA,NA
jqKePArS,NA,NA,jqKePArS,2020-0188,2021-09-27,15:06:36,16:04:04,NA,incomplete,false,true,NA,2,23,origin,n_l_007.jpg,right,manmade,natural,NA,NA,NA,right,2216.00000000012,true,NA,NA,NA,NA,NA
jqKePArS,NA,NA,jqKePArS,2020-0188,2021-09-27,15:06:36,16:04:04,NA,incomplete,false,true,NA,2,24,origin,n_l_002.jpg,left,natural,manmade,NA,NA,NA,left,1100,true,NA,NA,NA,NA,NA
jqKePArS,NA,NA,jqKePArS,2020-0188,2021-09-27,15:06:36,16:04:04,NA,incomplete,false,true,NA,2,25,size,n_l_026.jpg,right,small,large,NA,NA,NA,right,2502,true,NA,NA,NA,NA,NA
jqKePArS,NA,NA,jqKePArS,2020-0188,2021-09-27,15:06:36,16:04:04,NA,incomplete,false,true,NA,2,26,size,m_s_019.jpg,right,large,small,NA,NA,NA,right,1475,true,NA,NA,NA,NA,NA
jqKePArS,NA,NA,jqKePArS,2020-0188,2021-09-27,15:06:36,16:04:04,NA,incomplete,false,true,NA,2,27,size,n_l_005.jpg,left,large,small,NA,NA,NA,left,1104.99999999988,true,NA,NA,NA,NA,NA
jqKePArS,NA,NA,jqKePArS,2020-0188,2021-09-27,15:06:36,16:04:04,NA,incomplete,false,true,NA,2,28,size,m_s_023.jpg,left,small,large,NA,NA,NA,left,1864,true,NA,NA,NA,NA,NA
jqKePArS,NA,NA,jqKePArS,2020-0188,2021-09-27,15:06:36,16:04:04,NA,incomplete,false,true,NA,2,29,size,n_s_004.jpg,left,small,large,NA,NA,NA,left,735.000000000116,true,NA,NA,NA,NA,NA
jqKePArS,NA,NA,jqKePArS,2020-0188,2021-09-27,15:06:36,16:04:04,NA,incomplete,false,NA,true,2,0,NA,NA,right,NA,NA,m_s_023.jpg,n_l_026.jpg,within,NA,NaN,NA,right,1242.9999999998836,1,2,1499
jqKePArS,NA,NA,jqKePArS,2020-0188,2021-09-27,15:06:36,16:04:04,NA,incomplete,false,NA,true,2,1,NA,NA,right,NA,NA,o_c_007.jpg,i_c_004.jpg,within,NA,NaN,NA,right,2127,1,2,1509
jqKePArS,NA,NA,jqKePArS,2020-0188,2021-09-27,15:06:36,16:04:04,NA,incomplete,false,NA,true,2,2,NA,NA,right,NA,NA,a_1_005.jpg,a_2_007.jpg,within,NA,NaN,NA,left,1062.0000000001164,0,1,1074
jqKePArS,NA,NA,jqKePArS,2020-0188,2021-09-27,15:06:36,16:04:04,NA,incomplete,false,NA,true,2,3,NA,NA,right,NA,NA,m_l_016.jpg,a_1_006.jpg,between-big,NA,NaN,NA,left,1536.9999999998836,0,2,1109.9999999997672
jqKePArS,NA,NA,jqKePArS,2020-0188,2021-09-27,15:06:36,16:04:04,NA,incomplete,false,NA,true,2,4,NA,NA,left,NA,NA,a_1_023.jpg,c_2_015.jpg,within,NA,NaN,NA,left,1142,1,2,2167
jqKePArS,NA,NA,jqKePArS,2020-0188,2021-09-27,15:06:36,16:04:04,NA,incomplete,false,NA,true,2,5,NA,NA,left,NA,NA,i_c_007.jpg,o_s_002.jpg,within,NA,NaN,NA,right,4757,0,1,1814
jqKePArS,NA,NA,jqKePArS,2020-0188,2021-09-27,15:06:36,16:04:04,NA,incomplete,false,NA,true,2,6,NA,NA,left,NA,NA,o_c_028.jpg,i_c_026.jpg,within,NA,NaN,NA,left,1147,1,1,1082
jqKePArS,NA,NA,jqKePArS,2020-0188,2021-09-27,15:06:36,16:04:04,NA,incomplete,false,NA,true,2,7,NA,NA,right,NA,NA,c_1_013.jpg,a_2_003.jpg,within,NA,NaN,NA,left,4421,0,2,1955.9999999997672
jqKePArS,NA,NA,jqKePArS,2020-0188,2021-09-27,15:06:36,16:04:04,NA,incomplete,false,NA,true,2,8,NA,NA,left,NA,NA,n_l_007.jpg,m_s_019.jpg,between-small,NA,NaN,NA,left,3226,1,2,1232
jqKePArS,NA,NA,jqKePArS,2020-0188,2021-09-27,15:06:36,16:04:04,NA,incomplete,false,NA,true,2,9,NA,NA,left,NA,NA,a_1_005.jpg,m_s_008.jpg,between-big,NA,NaN,NA,right,983.0000000002328,0,2,1086
jqKePArS,NA,NA,jqKePArS,2020-0188,2021-09-27,15:06:36,16:04:04,NA,incomplete,false,NA,true,2,10,NA,NA,left,NA,NA,o_s_022.jpg,a_2_003.jpg,between-big,NA,NaN,NA,left,1003,1,2,2151
jqKePArS,NA,NA,jqKePArS,2020-0188,2021-09-27,15:06:36,16:04:04,NA,incomplete,false,NA,true,2,11,NA,NA,right,NA,NA,o_c_028.jpg,o_c_007.jpg,between-small,NA,NaN,NA,right,1073,1,2,1106.9999999997672
jqKePArS,NA,NA,jqKePArS,2020-0188,2021-09-27,15:06:36,16:04:04,NA,incomplete,false,NA,true,2,12,NA,NA,right,NA,NA,a_2_028.jpg,i_c_026.jpg,between-big,NA,NaN,NA,right,1440,1,2,3029
jqKePArS,NA,NA,jqKePArS,2020-0188,2021-09-27,15:06:36,16:04:04,NA,incomplete,false,NA,true,2,13,NA,NA,right,NA,NA,o_s_022.jpg,i_c_025.jpg,within,NA,NaN,NA,left,723.9999999997672,0,2,2700.000000000233
jqKePArS,NA,NA,jqKePArS,2020-0188,2021-09-27,15:06:36,16:04:04,NA,incomplete,false,NA,true,2,14,NA,NA,left,NA,NA,c_1_013.jpg,a_2_026.jpg,between-small,NA,NaN,NA,right,657.0000000002328,0,1,1496.9999999997672
jqKePArS,NA,NA,jqKePArS,2020-0188,2021-09-27,15:06:36,16:04:04,NA,incomplete,false,NA,true,2,15,NA,NA,right,NA,NA,a_1_006.jpg,a_2_023.jpg,within,NA,NaN,NA,left,816,0,2,1368
jqKePArS,NA,NA,jqKePArS,2020-0188,2021-09-27,15:06:36,16:04:04,NA,incomplete,false,NA,true,2,16,NA,NA,left,NA,NA,n_l_002.jpg,n_l_005.jpg,between-small,NA,NaN,NA,left,6255,1,2,1321
jqKePArS,NA,NA,jqKePArS,2020-0188,2021-09-27,15:06:36,16:04:04,NA,incomplete,false,NA,true,2,17,NA,NA,right,NA,NA,a_2_023.jpg,a_2_028.jpg,between-small,NA,NaN,NA,right,1463,1,2,964.9999999997672
jqKePArS,NA,NA,jqKePArS,2020-0188,2021-09-27,15:06:36,16:04:04,NA,incomplete,false,NA,true,2,18,NA,NA,right,NA,NA,n_s_004.jpg,m_s_019.jpg,within,NA,NaN,NA,right,842.0000000002328,1,0,1565
jqKePArS,NA,NA,jqKePArS,2020-0188,2021-09-27,15:06:36,16:04:04,NA,incomplete,false,NA,true,2,19,NA,NA,left,NA,NA,a_2_026.jpg,m_l_026.jpg,between-big,NA,NaN,NA,right,1056,0,2,2714
jqKePArS,NA,NA,jqKePArS,2020-0188,2021-09-27,15:06:36,16:04:04,NA,incomplete,false,NA,true,2,20,NA,NA,left,NA,NA,c_2_015.jpg,a_2_007.jpg,between-small,NA,NaN,NA,left,980,1,1,1359.0000000002328
jqKePArS,NA,NA,jqKePArS,2020-0188,2021-09-27,15:06:36,16:04:04,NA,incomplete,false,NA,true,2,21,NA,NA,right,NA,NA,i_c_025.jpg,i_s_012.jpg,between-small,NA,NaN,NA,right,802,1,1,1223
jqKePArS,NA,NA,jqKePArS,2020-0188,2021-09-27,15:06:36,16:04:04,NA,incomplete,false,NA,true,2,22,NA,NA,left,NA,NA,m_l_026.jpg,n_l_007.jpg,within,NA,NaN,NA,right,663,0,1,1411
jqKePArS,NA,NA,jqKePArS,2020-0188,2021-09-27,15:06:36,16:04:04,NA,incomplete,false,NA,true,2,23,NA,NA,left,NA,NA,m_s_008.jpg,n_l_026.jpg,between-small,NA,NaN,NA,left,1013,1,2,2440.000000000233
jqKePArS,NA,NA,jqKePArS,2020-0188,2021-09-27,15:06:36,16:04:04,NA,incomplete,false,NA,true,2,24,NA,NA,right,NA,NA,i_c_023.jpg,o_s_002.jpg,between-small,NA,NaN,NA,left,1212,0,2,2328.999999999767
jqKePArS,NA,NA,jqKePArS,2020-0188,2021-09-27,15:06:36,16:04:04,NA,incomplete,false,NA,true,2,25,NA,NA,left,NA,NA,m_l_016.jpg,n_l_002.jpg,within,NA,NaN,NA,right,2192,0,2,2148
jqKePArS,NA,NA,jqKePArS,2020-0188,2021-09-27,15:06:36,16:04:04,NA,incomplete,false,NA,true,2,26,NA,NA,right,NA,NA,a_1_023.jpg,i_c_023.jpg,between-big,NA,NaN,NA,right,763,1,2,993
jqKePArS,NA,NA,jqKePArS,2020-0188,2021-09-27,15:06:36,16:04:04,NA,incomplete,false,true,NA,3,0,syllable,c_2_004.jpg,right,2 syllables,1 syllable,NA,NA,NA,left,1894,false,NA,NA,NA,NA,NA
jqKePArS,NA,NA,jqKePArS,2020-0188,2021-09-27,15:06:36,16:04:04,NA,incomplete,false,true,NA,3,1,syllable,c_2_005.jpg,right,2 syllables,1 syllable,NA,NA,NA,left,1091,false,NA,NA,NA,NA,NA
jqKePArS,NA,NA,jqKePArS,2020-0188,2021-09-27,15:06:36,16:04:04,NA,incomplete,false,true,NA,3,2,syllable,a_2_010.jpg,right,1 syllable,2 syllables,NA,NA,NA,right,2692,true,NA,NA,NA,NA,NA
jqKePArS,NA,NA,jqKePArS,2020-0188,2021-09-27,15:06:36,16:04:04,NA,incomplete,false,true,NA,3,3,syllable,c_1_027.jpg,right,1 syllable,2 syllables,NA,NA,NA,left,758.000000000233,false,NA,NA,NA,NA,NA
jqKePArS,NA,NA,jqKePArS,2020-0188,2021-09-27,15:06:36,16:04:04,NA,incomplete,false,true,NA,3,4,syllable,c_1_014.jpg,right,2 syllables,1 syllable,NA,NA,NA,right,1501,true,NA,NA,NA,NA,NA
jqKePArS,NA,NA,jqKePArS,2020-0188,2021-09-27,15:06:36,16:04:04,NA,incomplete,false,true,NA,3,5,abstractness,a_2_016.jpg,left,abstract,concrete,NA,NA,NA,left,2254,true,NA,NA,NA,NA,NA
jqKePArS,NA,NA,jqKePArS,2020-0188,2021-09-27,15:06:36,16:04:04,NA,incomplete,false,true,NA,3,6,abstractness,a_1_009.jpg,left,abstract,concrete,NA,NA,NA,left,2063,true,NA,NA,NA,NA,NA
jqKePArS,NA,NA,jqKePArS,2020-0188,2021-09-27,15:06:36,16:04:04,NA,incomplete,false,true,NA,3,7,abstractness,c_2_016.jpg,left,concrete,abstract,NA,NA,NA,left,1213,true,NA,NA,NA,NA,NA
jqKePArS,NA,NA,jqKePArS,2020-0188,2021-09-27,15:06:36,16:04:04,NA,incomplete,false,true,NA,3,8,abstractness,c_1_009.jpg,right,abstract,concrete,NA,NA,NA,right,841.000000000233,true,NA,NA,NA,NA,NA
jqKePArS,NA,NA,jqKePArS,2020-0188,2021-09-27,15:06:36,16:04:04,NA,incomplete,false,true,NA,3,9,abstractness,a_1_003.jpg,left,abstract,concrete,NA,NA,NA,none,0,false,NA,NA,NA,NA,NA
jqKePArS,NA,NA,jqKePArS,2020-0188,2021-09-27,15:06:36,16:04:04,NA,incomplete,false,true,NA,3,10,origin,m_l_015.jpg,left,manmade,natural,NA,NA,NA,left,1093.00000000023,true,NA,NA,NA,NA,NA
jqKePArS,NA,NA,jqKePArS,2020-0188,2021-09-27,15:06:36,16:04:04,NA,incomplete,false,true,NA,3,11,origin,m_l_021.jpg,right,natural,manmade,NA,NA,NA,right,1112,true,NA,NA,NA,NA,NA
jqKePArS,NA,NA,jqKePArS,2020-0188,2021-09-27,15:06:36,16:04:04,NA,incomplete,false,true,NA,3,12,origin,m_l_014.jpg,left,manmade,natural,NA,NA,NA,left,2048,true,NA,NA,NA,NA,NA
jqKePArS,NA,NA,jqKePArS,2020-0188,2021-09-27,15:06:36,16:04:04,NA,incomplete,false,true,NA,3,13,origin,m_s_018.jpg,right,natural,manmade,NA,NA,NA,right,1312,true,NA,NA,NA,NA,NA
jqKePArS,NA,NA,jqKePArS,2020-0188,2021-09-27,15:06:36,16:04:04,NA,incomplete,false,true,NA,3,14,origin,m_l_011.jpg,left,manmade,natural,NA,NA,NA,left,2510,true,NA,NA,NA,NA,NA
jqKePArS,NA,NA,jqKePArS,2020-0188,2021-09-27,15:06:36,16:04:04,NA,incomplete,false,true,NA,3,15,size,n_l_016.jpg,left,large,small,NA,NA,NA,left,1326,true,NA,NA,NA,NA,NA
jqKePArS,NA,NA,jqKePArS,2020-0188,2021-09-27,15:06:36,16:04:04,NA,incomplete,false,true,NA,3,16,size,n_l_021.jpg,left,large,small,NA,NA,NA,left,2059,true,NA,NA,NA,NA,NA
jqKePArS,NA,NA,jqKePArS,2020-0188,2021-09-27,15:06:36,16:04:04,NA,incomplete,false,true,NA,3,17,size,m_l_013.jpg,left,large,small,NA,NA,NA,left,1096,true,NA,NA,NA,NA,NA
jqKePArS,NA,NA,jqKePArS,2020-0188,2021-09-27,15:06:36,16:04:04,NA,incomplete,false,true,NA,3,18,size,n_l_001.jpg,left,large,small,NA,NA,NA,left,990,true,NA,NA,NA,NA,NA
jqKePArS,NA,NA,jqKePArS,2020-0188,2021-09-27,15:06:36,16:04:04,NA,incomplete,false,true,NA,3,19,size,n_s_024.jpg,left,small,large,NA,NA,NA,left,1429,true,NA,NA,NA,NA,NA
jqKePArS,NA,NA,jqKePArS,2020-0188,2021-09-27,15:06:36,16:04:04,NA,incomplete,false,true,NA,3,20,building,o_c_003.jpg,right,skyscraper,cottage,NA,NA,NA,right,1336.99999999977,true,NA,NA,NA,NA,NA
jqKePArS,NA,NA,jqKePArS,2020-0188,2021-09-27,15:06:36,16:04:04,NA,incomplete,false,true,NA,3,21,building,i_s_007.jpg,left,skyscraper,cottage,NA,NA,NA,left,1792.00000000023,true,NA,NA,NA,NA,NA
jqKePArS,NA,NA,jqKePArS,2020-0188,2021-09-27,15:06:36,16:04:04,NA,incomplete,false,true,NA,3,22,building,i_s_003.jpg,right,cottage,skyscraper,NA,NA,NA,right,1489,true,NA,NA,NA,NA,NA
jqKePArS,NA,NA,jqKePArS,2020-0188,2021-09-27,15:06:36,16:04:04,NA,incomplete,false,true,NA,3,23,building,o_s_020.jpg,left,skyscraper,cottage,NA,NA,NA,left,1193.99999999977,true,NA,NA,NA,NA,NA
jqKePArS,NA,NA,jqKePArS,2020-0188,2021-09-27,15:06:36,16:04:04,NA,incomplete,false,true,NA,3,24,building,i_s_002.jpg,left,skyscraper,cottage,NA,NA,NA,left,1066,true,NA,NA,NA,NA,NA
jqKePArS,NA,NA,jqKePArS,2020-0188,2021-09-27,15:06:36,16:04:04,NA,incomplete,false,true,NA,3,25,location,i_s_027.jpg,right,outdoor,indoor,NA,NA,NA,right,1779,true,NA,NA,NA,NA,NA
jqKePArS,NA,NA,jqKePArS,2020-0188,2021-09-27,15:06:36,16:04:04,NA,incomplete,false,true,NA,3,26,location,o_c_017.jpg,right,indoor,outdoor,NA,NA,NA,right,1650,true,NA,NA,NA,NA,NA
jqKePArS,NA,NA,jqKePArS,2020-0188,2021-09-27,15:06:36,16:04:04,NA,incomplete,false,true,NA,3,27,location,o_c_008.jpg,left,outdoor,indoor,NA,NA,NA,left,1422.00000000023,true,NA,NA,NA,NA,NA
jqKePArS,NA,NA,jqKePArS,2020-0188,2021-09-27,15:06:36,16:04:04,NA,incomplete,false,true,NA,3,28,location,o_c_012.jpg,left,outdoor,indoor,NA,NA,NA,left,1243,true,NA,NA,NA,NA,NA
jqKePArS,NA,NA,jqKePArS,2020-0188,2021-09-27,15:06:36,16:04:04,NA,incomplete,false,true,NA,3,29,location,o_s_007.jpg,left,outdoor,indoor,NA,NA,NA,left,1139,true,NA,NA,NA,NA,NA
jqKePArS,NA,NA,jqKePArS,2020-0188,2021-09-27,15:06:36,16:04:04,NA,incomplete,false,NA,true,3,0,NA,NA,right,NA,NA,o_c_012.jpg,i_s_027.jpg,within,NA,NaN,NA,left,1508,0,2,1127.9999999997672
jqKePArS,NA,NA,jqKePArS,2020-0188,2021-09-27,15:06:36,16:04:04,NA,incomplete,false,NA,true,3,1,NA,NA,left,NA,NA,m_l_015.jpg,m_s_018.jpg,within,NA,NaN,NA,left,1244,1,1,1175
jqKePArS,NA,NA,jqKePArS,2020-0188,2021-09-27,15:06:36,16:04:04,NA,incomplete,false,NA,true,3,2,NA,NA,right,NA,NA,n_l_021.jpg,m_s_018.jpg,between-small,NA,NaN,NA,left,3018.000000000233,0,1,1003.9999999997672
jqKePArS,NA,NA,jqKePArS,2020-0188,2021-09-27,15:06:36,16:04:04,NA,incomplete,false,NA,true,3,3,NA,NA,left,NA,NA,c_1_014.jpg,c_2_016.jpg,between-small,NA,NaN,NA,left,1620,1,1,2241
jqKePArS,NA,NA,jqKePArS,2020-0188,2021-09-27,15:06:36,16:04:04,NA,incomplete,false,NA,true,3,4,NA,NA,left,NA,NA,c_2_004.jpg,c_1_027.jpg,within,NA,NaN,NA,right,799,0,0,2036.0000000002328
jqKePArS,NA,NA,jqKePArS,2020-0188,2021-09-27,15:06:36,16:04:04,NA,incomplete,false,NA,true,3,5,NA,NA,right,NA,NA,c_1_014.jpg,c_2_005.jpg,within,NA,NaN,NA,left,3203,0,1,1992
jqKePArS,NA,NA,jqKePArS,2020-0188,2021-09-27,15:06:36,16:04:04,NA,incomplete,false,NA,true,3,6,NA,NA,left,NA,NA,a_2_010.jpg,a_2_016.jpg,between-small,NA,NaN,NA,right,1917,0,1,1350
jqKePArS,NA,NA,jqKePArS,2020-0188,2021-09-27,15:06:36,16:04:04,NA,incomplete,false,NA,true,3,7,NA,NA,right,NA,NA,m_l_011.jpg,m_l_021.jpg,within,NA,NaN,NA,right,2392,1,0,2185
jqKePArS,NA,NA,jqKePArS,2020-0188,2021-09-27,15:06:36,16:04:04,NA,incomplete,false,NA,true,3,8,NA,NA,left,NA,NA,c_1_027.jpg,a_1_009.jpg,between-small,NA,NaN,NA,right,5056,0,1,1426
jqKePArS,NA,NA,jqKePArS,2020-0188,2021-09-27,15:06:36,16:04:04,NA,incomplete,false,NA,true,3,9,NA,NA,right,NA,NA,o_c_003.jpg,m_l_013.jpg,between-big,NA,NaN,NA,right,2241,1,2,1746
jqKePArS,NA,NA,jqKePArS,2020-0188,2021-09-27,15:06:36,16:04:04,NA,incomplete,false,NA,true,3,10,NA,NA,left,NA,NA,o_s_020.jpg,o_c_017.jpg,between-small,NA,NaN,NA,right,2145.000000000233,0,2,990
jqKePArS,NA,NA,jqKePArS,2020-0188,2021-09-27,15:06:36,16:04:04,NA,incomplete,false,NA,true,3,11,NA,NA,right,NA,NA,m_l_014.jpg,a_1_003.jpg,between-big,NA,NaN,NA,left,1050.9999999997672,0,2,1459.0000000002328
jqKePArS,NA,NA,jqKePArS,2020-0188,2021-09-27,15:06:36,16:04:04,NA,incomplete,false,NA,true,3,12,NA,NA,right,NA,NA,o_c_008.jpg,i_s_002.jpg,between-small,NA,NaN,NA,right,2260.999999999767,1,2,1434
jqKePArS,NA,NA,jqKePArS,2020-0188,2021-09-27,15:06:36,16:04:04,NA,incomplete,false,NA,true,3,13,NA,NA,right,NA,NA,m_l_015.jpg,c_2_016.jpg,between-big,NA,NaN,NA,right,3119,1,2,1543
jqKePArS,NA,NA,jqKePArS,2020-0188,2021-09-27,15:06:36,16:04:04,NA,incomplete,false,NA,true,3,14,NA,NA,left,NA,NA,n_l_001.jpg,i_s_007.jpg,between-big,NA,NaN,NA,left,3629,1,2,1186.9999999997672
jqKePArS,NA,NA,jqKePArS,2020-0188,2021-09-27,15:06:36,16:04:04,NA,incomplete,false,NA,true,3,15,NA,NA,right,NA,NA,n_l_001.jpg,n_l_016.jpg,within,NA,NaN,NA,left,4622,0,1,2173
jqKePArS,NA,NA,jqKePArS,2020-0188,2021-09-27,15:06:36,16:04:04,NA,incomplete,false,NA,true,3,16,NA,NA,right,NA,NA,m_l_013.jpg,m_l_011.jpg,between-small,NA,NaN,NA,left,1504,0,1,2231
jqKePArS,NA,NA,jqKePArS,2020-0188,2021-09-27,15:06:36,16:04:04,NA,incomplete,false,NA,true,3,17,NA,NA,right,NA,NA,n_s_024.jpg,n_l_021.jpg,within,NA,NaN,NA,right,3861,1,1,2083
jqKePArS,NA,NA,jqKePArS,2020-0188,2021-09-27,15:06:36,16:04:04,NA,incomplete,false,NA,true,3,18,NA,NA,left,NA,NA,o_c_017.jpg,o_s_007.jpg,within,NA,NaN,NA,right,1135,0,2,1736
jqKePArS,NA,NA,jqKePArS,2020-0188,2021-09-27,15:06:36,16:04:04,NA,incomplete,false,NA,true,3,19,NA,NA,right,NA,NA,i_s_003.jpg,n_s_024.jpg,between-big,NA,NaN,NA,right,2087,1,2,1929
jqKePArS,NA,NA,jqKePArS,2020-0188,2021-09-27,15:06:36,16:04:04,NA,incomplete,false,NA,true,3,20,NA,NA,right,NA,NA,a_1_003.jpg,a_1_009.jpg,within,NA,NaN,NA,right,3199,1,1,1558
jqKePArS,NA,NA,jqKePArS,2020-0188,2021-09-27,15:06:36,16:04:04,NA,incomplete,false,NA,true,3,21,NA,NA,left,NA,NA,a_2_016.jpg,c_1_009.jpg,within,NA,NaN,NA,right,2174.000000000233,0,1,1108.0000000002328
jqKePArS,NA,NA,jqKePArS,2020-0188,2021-09-27,15:06:36,16:04:04,NA,incomplete,false,NA,true,3,22,NA,NA,left,NA,NA,o_c_003.jpg,o_s_020.jpg,within,NA,NaN,NA,right,1580,0,2,1563
jqKePArS,NA,NA,jqKePArS,2020-0188,2021-09-27,15:06:36,16:04:04,NA,incomplete,false,NA,true,3,23,NA,NA,left,NA,NA,c_1_009.jpg,m_l_021.jpg,between-big,NA,NaN,NA,left,1559,1,2,1713
jqKePArS,NA,NA,jqKePArS,2020-0188,2021-09-27,15:06:36,16:04:04,NA,incomplete,false,NA,true,3,24,NA,NA,right,NA,NA,n_l_016.jpg,m_l_014.jpg,between-small,NA,NaN,NA,left,1136,0,2,1148
jqKePArS,NA,NA,jqKePArS,2020-0188,2021-09-27,15:06:36,16:04:04,NA,incomplete,false,NA,true,3,25,NA,NA,right,NA,NA,i_s_027.jpg,i_s_003.jpg,between-small,NA,NaN,NA,right,831,1,1,1026.9999999997672
jqKePArS,NA,NA,jqKePArS,2020-0188,2021-09-27,15:06:36,16:04:04,NA,incomplete,false,NA,true,3,26,NA,NA,left,NA,NA,i_s_007.jpg,i_s_002.jpg,within,NA,NaN,NA,right,743,0,2,924
jqKePArS,NA,NA,jqKePArS,2020-0188,2021-09-27,15:06:36,16:04:04,NA,incomplete,false,true,NA,4,0,location,i_c_014.jpg,left,indoor,outdoor,NA,NA,NA,left,1554.99999999977,true,NA,NA,NA,NA,NA
jqKePArS,NA,NA,jqKePArS,2020-0188,2021-09-27,15:06:36,16:04:04,NA,incomplete,false,true,NA,4,1,location,i_c_005.jpg,left,indoor,outdoor,NA,NA,NA,left,1695,true,NA,NA,NA,NA,NA
jqKePArS,NA,NA,jqKePArS,2020-0188,2021-09-27,15:06:36,16:04:04,NA,incomplete,false,true,NA,4,2,location,o_c_004.jpg,right,indoor,outdoor,NA,NA,NA,left,1191.00000000023,false,NA,NA,NA,NA,NA
jqKePArS,NA,NA,jqKePArS,2020-0188,2021-09-27,15:06:36,16:04:04,NA,incomplete,false,true,NA,4,3,location,i_s_016.jpg,right,outdoor,indoor,NA,NA,NA,left,1532,false,NA,NA,NA,NA,NA
jqKePArS,NA,NA,jqKePArS,2020-0188,2021-09-27,15:06:36,16:04:04,NA,incomplete,false,true,NA,4,4,location,o_c_002.jpg,right,indoor,outdoor,NA,NA,NA,right,1203,true,NA,NA,NA,NA,NA
jqKePArS,NA,NA,jqKePArS,2020-0188,2021-09-27,15:06:36,16:04:04,NA,incomplete,false,true,NA,4,5,building,o_s_009.jpg,left,skyscraper,cottage,NA,NA,NA,left,1988,true,NA,NA,NA,NA,NA
jqKePArS,NA,NA,jqKePArS,2020-0188,2021-09-27,15:06:36,16:04:04,NA,incomplete,false,true,NA,4,6,building,o_s_017.jpg,right,cottage,skyscraper,NA,NA,NA,right,2110,true,NA,NA,NA,NA,NA
jqKePArS,NA,NA,jqKePArS,2020-0188,2021-09-27,15:06:36,16:04:04,NA,incomplete,false,true,NA,4,7,building,i_c_021.jpg,right,skyscraper,cottage,NA,NA,NA,right,1448,true,NA,NA,NA,NA,NA
jqKePArS,NA,NA,jqKePArS,2020-0188,2021-09-27,15:06:36,16:04:04,NA,incomplete,false,true,NA,4,8,building,o_c_025.jpg,right,skyscraper,cottage,NA,NA,NA,right,1118.99999999977,true,NA,NA,NA,NA,NA
jqKePArS,NA,NA,jqKePArS,2020-0188,2021-09-27,15:06:36,16:04:04,NA,incomplete,false,true,NA,4,9,building,o_s_015.jpg,right,cottage,skyscraper,NA,NA,NA,right,1441,true,NA,NA,NA,NA,NA
jqKePArS,NA,NA,jqKePArS,2020-0188,2021-09-27,15:06:36,16:04:04,NA,incomplete,false,true,NA,4,10,abstractness,c_1_016.jpg,left,concrete,abstract,NA,NA,NA,left,2214,true,NA,NA,NA,NA,NA
jqKePArS,NA,NA,jqKePArS,2020-0188,2021-09-27,15:06:36,16:04:04,NA,incomplete,false,true,NA,4,11,abstractness,a_2_021.jpg,left,abstract,concrete,NA,NA,NA,left,1882,true,NA,NA,NA,NA,NA
jqKePArS,NA,NA,jqKePArS,2020-0188,2021-09-27,15:06:36,16:04:04,NA,incomplete,false,true,NA,4,12,abstractness,a_2_002.jpg,left,abstract,concrete,NA,NA,NA,left,1424,true,NA,NA,NA,NA,NA
jqKePArS,NA,NA,jqKePArS,2020-0188,2021-09-27,15:06:36,16:04:04,NA,incomplete,false,true,NA,4,13,abstractness,a_1_014.jpg,right,concrete,abstract,NA,NA,NA,right,1952,true,NA,NA,NA,NA,NA
jqKePArS,NA,NA,jqKePArS,2020-0188,2021-09-27,15:06:36,16:04:04,NA,incomplete,false,true,NA,4,14,abstractness,a_2_011.jpg,left,abstract,concrete,NA,NA,NA,right,2300,false,NA,NA,NA,NA,NA
jqKePArS,NA,NA,jqKePArS,2020-0188,2021-09-27,15:06:36,16:04:04,NA,incomplete,false,true,NA,4,15,syllable,a_1_002.jpg,right,1 syllable,2 syllables,NA,NA,NA,left,1557,false,NA,NA,NA,NA,NA
jqKePArS,NA,NA,jqKePArS,2020-0188,2021-09-27,15:06:36,16:04:04,NA,incomplete,false,true,NA,4,16,syllable,c_1_012.jpg,right,1 syllable,2 syllables,NA,NA,NA,left,1087.99999999977,false,NA,NA,NA,NA,NA
jqKePArS,NA,NA,jqKePArS,2020-0188,2021-09-27,15:06:36,16:04:04,NA,incomplete,false,true,NA,4,17,syllable,a_1_008.jpg,right,1 syllable,2 syllables,NA,NA,NA,left,985,false,NA,NA,NA,NA,NA
jqKePArS,NA,NA,jqKePArS,2020-0188,2021-09-27,15:06:36,16:04:04,NA,incomplete,false,true,NA,4,18,syllable,c_2_006.jpg,right,1 syllable,2 syllables,NA,NA,NA,left,841.999999999767,false,NA,NA,NA,NA,NA
jqKePArS,NA,NA,jqKePArS,2020-0188,2021-09-27,15:06:36,16:04:04,NA,incomplete,false,true,NA,4,19,syllable,c_1_018.jpg,right,2 syllables,1 syllable,NA,NA,NA,right,1138,true,NA,NA,NA,NA,NA
jqKePArS,NA,NA,jqKePArS,2020-0188,2021-09-27,15:06:36,16:04:04,NA,incomplete,false,true,NA,4,20,size,m_s_024.jpg,left,small,large,NA,NA,NA,left,1491,true,NA,NA,NA,NA,NA
jqKePArS,NA,NA,jqKePArS,2020-0188,2021-09-27,15:06:36,16:04:04,NA,incomplete,false,true,NA,4,21,size,n_l_027.jpg,left,large,small,NA,NA,NA,left,1418,true,NA,NA,NA,NA,NA
jqKePArS,NA,NA,jqKePArS,2020-0188,2021-09-27,15:06:36,16:04:04,NA,incomplete,false,true,NA,4,22,size,m_l_006.jpg,left,large,small,NA,NA,NA,left,1123,true,NA,NA,NA,NA,NA
jqKePArS,NA,NA,jqKePArS,2020-0188,2021-09-27,15:06:36,16:04:04,NA,incomplete,false,true,NA,4,23,size,m_s_028.jpg,right,large,small,NA,NA,NA,right,1356,true,NA,NA,NA,NA,NA
jqKePArS,NA,NA,jqKePArS,2020-0188,2021-09-27,15:06:36,16:04:04,NA,incomplete,false,true,NA,4,24,size,n_s_014.jpg,left,small,large,NA,NA,NA,left,1497.00000000023,true,NA,NA,NA,NA,NA
jqKePArS,NA,NA,jqKePArS,2020-0188,2021-09-27,15:06:36,16:04:04,NA,incomplete,false,true,NA,4,25,origin,m_l_007.jpg,right,natural,manmade,NA,NA,NA,right,1728,true,NA,NA,NA,NA,NA
jqKePArS,NA,NA,jqKePArS,2020-0188,2021-09-27,15:06:36,16:04:04,NA,incomplete,false,true,NA,4,26,origin,m_s_027.jpg,right,natural,manmade,NA,NA,NA,right,1285.99999999977,true,NA,NA,NA,NA,NA
jqKePArS,NA,NA,jqKePArS,2020-0188,2021-09-27,15:06:36,16:04:04,NA,incomplete,false,true,NA,4,27,origin,n_s_027.jpg,left,natural,manmade,NA,NA,NA,left,1148.00000000023,true,NA,NA,NA,NA,NA
jqKePArS,NA,NA,jqKePArS,2020-0188,2021-09-27,15:06:36,16:04:04,NA,incomplete,false,true,NA,4,28,origin,n_s_003.jpg,left,natural,manmade,NA,NA,NA,left,1147,true,NA,NA,NA,NA,NA
jqKePArS,NA,NA,jqKePArS,2020-0188,2021-09-27,15:06:36,16:04:04,NA,incomplete,false,true,NA,4,29,origin,n_l_028.jpg,left,natural,manmade,NA,NA,NA,left,892,true,NA,NA,NA,NA,NA
jqKePArS,NA,NA,jqKePArS,2020-0188,2021-09-27,15:06:36,16:04:04,NA,incomplete,false,NA,true,4,0,NA,NA,left,NA,NA,n_s_014.jpg,n_s_027.jpg,between-small,NA,NaN,NA,left,4398,1,1,1875
jqKePArS,NA,NA,jqKePArS,2020-0188,2021-09-27,15:06:36,16:04:04,NA,incomplete,false,NA,true,4,1,NA,NA,left,NA,NA,m_s_027.jpg,n_l_028.jpg,within,NA,NaN,NA,left,815,1,2,890.0000000002328
jqKePArS,NA,NA,jqKePArS,2020-0188,2021-09-27,15:06:36,16:04:04,NA,incomplete,false,NA,true,4,2,NA,NA,right,NA,NA,o_s_009.jpg,o_c_004.jpg,between-small,NA,NaN,NA,left,940,0,1,1302
jqKePArS,NA,NA,jqKePArS,2020-0188,2021-09-27,15:06:36,16:04:04,NA,incomplete,false,NA,true,4,3,NA,NA,right,NA,NA,m_s_028.jpg,m_s_024.jpg,within,NA,NaN,NA,right,1983.0000000002328,1,1,817
jqKePArS,NA,NA,jqKePArS,2020-0188,2021-09-27,15:06:36,16:04:04,NA,incomplete,false,NA,true,4,4,NA,NA,left,NA,NA,m_s_028.jpg,m_s_027.jpg,between-small,NA,NaN,NA,left,1264,1,1,1039
jqKePArS,NA,NA,jqKePArS,2020-0188,2021-09-27,15:06:36,16:04:04,NA,incomplete,false,NA,true,4,5,NA,NA,left,NA,NA,c_1_016.jpg,a_1_014.jpg,within,NA,NaN,NA,left,1566.0000000002328,1,0,1718
jqKePArS,NA,NA,jqKePArS,2020-0188,2021-09-27,15:06:36,16:04:04,NA,incomplete,false,NA,true,4,6,NA,NA,right,NA,NA,o_s_015.jpg,o_s_017.jpg,within,NA,NaN,NA,right,2079,1,1,1057
jqKePArS,NA,NA,jqKePArS,2020-0188,2021-09-27,15:06:36,16:04:04,NA,incomplete,false,NA,true,4,7,NA,NA,left,NA,NA,c_1_018.jpg,m_l_006.jpg,between-big,NA,NaN,NA,left,2573,1,2,1387.0000000002328
jqKePArS,NA,NA,jqKePArS,2020-0188,2021-09-27,15:06:36,16:04:04,NA,incomplete,false,NA,true,4,8,NA,NA,right,NA,NA,c_1_012.jpg,a_1_014.jpg,between-small,NA,NaN,NA,right,1553,1,2,1150
jqKePArS,NA,NA,jqKePArS,2020-0188,2021-09-27,15:06:36,16:04:04,NA,incomplete,false,NA,true,4,9,NA,NA,right,NA,NA,c_2_006.jpg,a_1_002.jpg,within,NA,NaN,NA,left,1723,0,2,1411.0000000002328
jqKePArS,NA,NA,jqKePArS,2020-0188,2021-09-27,15:06:36,16:04:04,NA,incomplete,false,NA,true,4,10,NA,NA,left,NA,NA,a_2_021.jpg,a_2_011.jpg,within,NA,NaN,NA,left,1505.0000000002328,1,0,1920
jqKePArS,NA,NA,jqKePArS,2020-0188,2021-09-27,15:06:36,16:04:04,NA,incomplete,false,NA,true,4,11,NA,NA,right,NA,NA,m_l_007.jpg,m_l_006.jpg,between-small,NA,NaN,NA,left,1882,0,2,918
jqKePArS,NA,NA,jqKePArS,2020-0188,2021-09-27,15:06:36,16:04:04,NA,incomplete,false,NA,true,4,12,NA,NA,right,NA,NA,o_c_025.jpg,o_s_009.jpg,within,NA,NaN,NA,right,2381,1,1,1518
jqKePArS,NA,NA,jqKePArS,2020-0188,2021-09-27,15:06:36,16:04:04,NA,incomplete,false,NA,true,4,13,NA,NA,left,NA,NA,m_l_007.jpg,n_s_003.jpg,within,NA,NaN,NA,left,2228,1,2,1773
jqKePArS,NA,NA,jqKePArS,2020-0188,2021-09-27,15:06:36,16:04:04,NA,incomplete,false,NA,true,4,14,NA,NA,left,NA,NA,o_c_025.jpg,a_2_021.jpg,between-big,NA,NaN,NA,right,3071.000000000233,0,2,2517.000000000233
jqKePArS,NA,NA,jqKePArS,2020-0188,2021-09-27,15:06:36,16:04:04,NA,incomplete,false,NA,true,4,15,NA,NA,left,NA,NA,i_c_005.jpg,o_c_002.jpg,within,NA,NaN,NA,left,1846,1,2,1306
jqKePArS,NA,NA,jqKePArS,2020-0188,2021-09-27,15:06:36,16:04:04,NA,incomplete,false,NA,true,4,16,NA,NA,left,NA,NA,i_c_014.jpg,i_s_016.jpg,within,NA,NaN,NA,right,1039,0,1,1445
jqKePArS,NA,NA,jqKePArS,2020-0188,2021-09-27,15:06:36,16:04:04,NA,incomplete,false,NA,true,4,17,NA,NA,left,NA,NA,c_2_006.jpg,n_l_027.jpg,between-big,NA,NaN,NA,left,1001,1,2,1415
jqKePArS,NA,NA,jqKePArS,2020-0188,2021-09-27,15:06:36,16:04:04,NA,incomplete,false,NA,true,4,18,NA,NA,right,NA,NA,a_1_008.jpg,a_2_011.jpg,between-small,NA,NaN,NA,right,930,1,2,1034.0000000002328
jqKePArS,NA,NA,jqKePArS,2020-0188,2021-09-27,15:06:36,16:04:04,NA,incomplete,false,NA,true,4,19,NA,NA,right,NA,NA,o_s_017.jpg,i_s_016.jpg,between-small,NA,NaN,NA,left,1220,0,2,1643
jqKePArS,NA,NA,jqKePArS,2020-0188,2021-09-27,15:06:36,16:04:04,NA,incomplete,false,NA,true,4,20,NA,NA,left,NA,NA,a_1_008.jpg,m_s_024.jpg,between-big,NA,NaN,NA,left,1644,1,2,1751
jqKePArS,NA,NA,jqKePArS,2020-0188,2021-09-27,15:06:36,16:04:04,NA,incomplete,false,NA,true,4,21,NA,NA,left,NA,NA,o_s_015.jpg,a_2_002.jpg,between-big,NA,NaN,NA,right,879.9999999997672,0,2,1007
jqKePArS,NA,NA,jqKePArS,2020-0188,2021-09-27,15:06:36,16:04:04,NA,incomplete,false,NA,true,4,22,NA,NA,left,NA,NA,c_1_012.jpg,c_1_018.jpg,within,NA,NaN,NA,right,1083,0,1,1431
jqKePArS,NA,NA,jqKePArS,2020-0188,2021-09-27,15:06:36,16:04:04,NA,incomplete,false,NA,true,4,23,NA,NA,right,NA,NA,i_c_021.jpg,o_c_002.jpg,between-small,NA,NaN,NA,right,1764,1,1,2121
jqKePArS,NA,NA,jqKePArS,2020-0188,2021-09-27,15:06:36,16:04:04,NA,incomplete,false,NA,true,4,24,NA,NA,right,NA,NA,a_1_002.jpg,a_2_002.jpg,between-small,NA,NaN,NA,right,988,1,2,1820
jqKePArS,NA,NA,jqKePArS,2020-0188,2021-09-27,15:06:36,16:04:04,NA,incomplete,false,NA,true,4,25,NA,NA,left,NA,NA,i_c_021.jpg,c_1_016.jpg,between-big,NA,NaN,NA,right,1887,0,2,1441.9999999997672
jqKePArS,NA,NA,jqKePArS,2020-0188,2021-09-27,15:06:36,16:04:04,NA,incomplete,false,NA,true,4,26,NA,NA,right,NA,NA,n_s_014.jpg,n_l_027.jpg,within,NA,NaN,NA,left,1222,0,2,1202
jqKePArS,NA,NA,jqKePArS,2020-0188,2021-09-27,15:06:36,16:04:04,NA,incomplete,false,true,NA,5,0,size,m_l_024.jpg,right,small,large,NA,NA,NA,right,1891,true,NA,NA,NA,NA,NA
jqKePArS,NA,NA,jqKePArS,2020-0188,2021-09-27,15:06:36,16:04:04,NA,incomplete,false,true,NA,5,1,size,m_l_008.jpg,right,small,large,NA,NA,NA,right,1097.00000000023,true,NA,NA,NA,NA,NA
jqKePArS,NA,NA,jqKePArS,2020-0188,2021-09-27,15:06:36,16:04:04,NA,incomplete,false,true,NA,5,2,size,n_l_008.jpg,left,large,small,NA,NA,NA,left,1151,true,NA,NA,NA,NA,NA
jqKePArS,NA,NA,jqKePArS,2020-0188,2021-09-27,15:06:36,16:04:04,NA,incomplete,false,true,NA,5,3,size,m_s_004.jpg,right,large,small,NA,NA,NA,right,1318,true,NA,NA,NA,NA,NA
jqKePArS,NA,NA,jqKePArS,2020-0188,2021-09-27,15:06:36,16:04:04,NA,incomplete,false,true,NA,5,4,size,n_s_019.jpg,left,small,large,NA,NA,NA,left,1114,true,NA,NA,NA,NA,NA
jqKePArS,NA,NA,jqKePArS,2020-0188,2021-09-27,15:06:36,16:04:04,NA,incomplete,false,true,NA,5,5,origin,m_s_025.jpg,left,manmade,natural,NA,NA,NA,right,1449.99999999977,false,NA,NA,NA,NA,NA
jqKePArS,NA,NA,jqKePArS,2020-0188,2021-09-27,15:06:36,16:04:04,NA,incomplete,false,true,NA,5,6,origin,m_s_010.jpg,left,manmade,natural,NA,NA,NA,left,1238.00000000023,true,NA,NA,NA,NA,NA
jqKePArS,NA,NA,jqKePArS,2020-0188,2021-09-27,15:06:36,16:04:04,NA,incomplete,false,true,NA,5,7,origin,m_l_003.jpg,right,natural,manmade,NA,NA,NA,right,1105,true,NA,NA,NA,NA,NA
jqKePArS,NA,NA,jqKePArS,2020-0188,2021-09-27,15:06:36,16:04:04,NA,incomplete,false,true,NA,5,8,origin,m_s_021.jpg,left,manmade,natural,NA,NA,NA,left,914.999999999767,true,NA,NA,NA,NA,NA
jqKePArS,NA,NA,jqKePArS,2020-0188,2021-09-27,15:06:36,16:04:04,NA,incomplete,false,true,NA,5,9,origin,m_l_022.jpg,left,manmade,natural,NA,NA,NA,left,1223,true,NA,NA,NA,NA,NA
jqKePArS,NA,NA,jqKePArS,2020-0188,2021-09-27,15:06:36,16:04:04,NA,incomplete,false,true,NA,5,10,location,o_c_021.jpg,right,indoor,outdoor,NA,NA,NA,right,1598,true,NA,NA,NA,NA,NA
jqKePArS,NA,NA,jqKePArS,2020-0188,2021-09-27,15:06:36,16:04:04,NA,incomplete,false,true,NA,5,11,location,o_s_025.jpg,left,outdoor,indoor,NA,NA,NA,left,1378.00000000023,true,NA,NA,NA,NA,NA
jqKePArS,NA,NA,jqKePArS,2020-0188,2021-09-27,15:06:36,16:04:04,NA,incomplete,false,true,NA,5,12,location,i_s_013.jpg,right,outdoor,indoor,NA,NA,NA,left,2072.99999999977,false,NA,NA,NA,NA,NA
jqKePArS,NA,NA,jqKePArS,2020-0188,2021-09-27,15:06:36,16:04:04,NA,incomplete,false,true,NA,5,13,location,i_c_011.jpg,right,outdoor,indoor,NA,NA,NA,right,1610.00000000023,true,NA,NA,NA,NA,NA
jqKePArS,NA,NA,jqKePArS,2020-0188,2021-09-27,15:06:36,16:04:04,NA,incomplete,false,true,NA,5,14,location,i_c_012.jpg,right,outdoor,indoor,NA,NA,NA,right,1118,true,NA,NA,NA,NA,NA
jqKePArS,NA,NA,jqKePArS,2020-0188,2021-09-27,15:06:36,16:04:04,NA,incomplete,false,true,NA,5,15,building,o_c_006.jpg,right,skyscraper,cottage,NA,NA,NA,right,1477,true,NA,NA,NA,NA,NA
jqKePArS,NA,NA,jqKePArS,2020-0188,2021-09-27,15:06:36,16:04:04,NA,incomplete,false,true,NA,5,16,building,i_c_016.jpg,right,skyscraper,cottage,NA,NA,NA,right,1123,true,NA,NA,NA,NA,NA
jqKePArS,NA,NA,jqKePArS,2020-0188,2021-09-27,15:06:36,16:04:04,NA,incomplete,false,true,NA,5,17,building,o_s_021.jpg,left,skyscraper,cottage,NA,NA,NA,left,997,true,NA,NA,NA,NA,NA
jqKePArS,NA,NA,jqKePArS,2020-0188,2021-09-27,15:06:36,16:04:04,NA,incomplete,false,true,NA,5,18,building,o_s_016.jpg,right,cottage,skyscraper,NA,NA,NA,right,1435.99999999977,true,NA,NA,NA,NA,NA
jqKePArS,NA,NA,jqKePArS,2020-0188,2021-09-27,15:06:36,16:04:04,NA,incomplete,false,true,NA,5,19,building,o_c_013.jpg,left,cottage,skyscraper,NA,NA,NA,left,1419,true,NA,NA,NA,NA,NA
jqKePArS,NA,NA,jqKePArS,2020-0188,2021-09-27,15:06:36,16:04:04,NA,incomplete,false,true,NA,5,20,syllable,c_2_014.jpg,right,1 syllable,2 syllables,NA,NA,NA,right,1669,true,NA,NA,NA,NA,NA
jqKePArS,NA,NA,jqKePArS,2020-0188,2021-09-27,15:06:36,16:04:04,NA,incomplete,false,true,NA,5,21,syllable,c_2_023.jpg,right,2 syllables,1 syllable,NA,NA,NA,left,1130,false,NA,NA,NA,NA,NA
jqKePArS,NA,NA,jqKePArS,2020-0188,2021-09-27,15:06:36,16:04:04,NA,incomplete,false,true,NA,5,22,syllable,a_1_021.jpg,right,2 syllables,1 syllable,NA,NA,NA,right,1795.00000000023,true,NA,NA,NA,NA,NA
jqKePArS,NA,NA,jqKePArS,2020-0188,2021-09-27,15:06:36,16:04:04,NA,incomplete,false,true,NA,5,23,syllable,a_2_013.jpg,right,1 syllable,2 syllables,NA,NA,NA,right,1971,true,NA,NA,NA,NA,NA
jqKePArS,NA,NA,jqKePArS,2020-0188,2021-09-27,15:06:36,16:04:04,NA,incomplete,false,true,NA,5,24,syllable,c_1_026.jpg,right,2 syllables,1 syllable,NA,NA,NA,right,1640,true,NA,NA,NA,NA,NA
jqKePArS,NA,NA,jqKePArS,2020-0188,2021-09-27,15:06:36,16:04:04,NA,incomplete,false,true,NA,5,25,abstractness,c_1_015.jpg,left,concrete,abstract,NA,NA,NA,left,1522,true,NA,NA,NA,NA,NA
jqKePArS,NA,NA,jqKePArS,2020-0188,2021-09-27,15:06:36,16:04:04,NA,incomplete,false,true,NA,5,26,abstractness,c_1_004.jpg,right,abstract,concrete,NA,NA,NA,right,1108,true,NA,NA,NA,NA,NA
jqKePArS,NA,NA,jqKePArS,2020-0188,2021-09-27,15:06:36,16:04:04,NA,incomplete,false,true,NA,5,27,abstractness,a_1_011.jpg,left,abstract,concrete,NA,NA,NA,right,1830,false,NA,NA,NA,NA,NA
jqKePArS,NA,NA,jqKePArS,2020-0188,2021-09-27,15:06:36,16:04:04,NA,incomplete,false,true,NA,5,28,abstractness,a_2_024.jpg,right,concrete,abstract,NA,NA,NA,right,2340,true,NA,NA,NA,NA,NA
jqKePArS,NA,NA,jqKePArS,2020-0188,2021-09-27,15:06:36,16:04:04,NA,incomplete,false,true,NA,5,29,abstractness,a_2_022.jpg,right,concrete,abstract,NA,NA,NA,left,1557.00000000023,false,NA,NA,NA,NA,NA
jqKePArS,NA,NA,jqKePArS,2020-0188,2021-09-27,15:06:36,16:04:04,NA,incomplete,false,NA,true,5,0,NA,NA,right,NA,NA,i_c_012.jpg,o_s_025.jpg,within,NA,NaN,NA,right,2696,1,1,1981
jqKePArS,NA,NA,jqKePArS,2020-0188,2021-09-27,15:06:36,16:04:04,NA,incomplete,false,NA,true,5,1,NA,NA,left,NA,NA,a_2_013.jpg,c_1_004.jpg,between-small,NA,NaN,NA,left,1363,1,2,755
jqKePArS,NA,NA,jqKePArS,2020-0188,2021-09-27,15:06:36,16:04:04,NA,incomplete,false,NA,true,5,2,NA,NA,right,NA,NA,n_s_019.jpg,m_l_008.jpg,within,NA,NaN,NA,right,525,1,1,2280
jqKePArS,NA,NA,jqKePArS,2020-0188,2021-09-27,15:06:36,16:04:04,NA,incomplete,false,NA,true,5,3,NA,NA,right,NA,NA,m_s_021.jpg,m_s_025.jpg,within,NA,NaN,NA,right,1750,1,1,1625
jqKePArS,NA,NA,jqKePArS,2020-0188,2021-09-27,15:06:36,16:04:04,NA,incomplete,false,NA,true,5,4,NA,NA,left,NA,NA,a_1_021.jpg,c_1_015.jpg,between-small,NA,NaN,NA,left,1709,1,2,2452
jqKePArS,NA,NA,jqKePArS,2020-0188,2021-09-27,15:06:36,16:04:04,NA,incomplete,false,NA,true,5,5,NA,NA,right,NA,NA,m_l_003.jpg,n_s_019.jpg,between-small,NA,NaN,NA,right,874,1,2,1060
jqKePArS,NA,NA,jqKePArS,2020-0188,2021-09-27,15:06:36,16:04:04,NA,incomplete,false,NA,true,5,6,NA,NA,left,NA,NA,o_s_016.jpg,c_2_023.jpg,between-big,NA,NaN,NA,right,770,0,3,2876
jqKePArS,NA,NA,jqKePArS,2020-0188,2021-09-27,15:06:36,16:04:04,NA,incomplete,false,NA,true,5,7,NA,NA,right,NA,NA,a_2_013.jpg,c_2_014.jpg,within,NA,NaN,NA,right,1416,1,3,1574
jqKePArS,NA,NA,jqKePArS,2020-0188,2021-09-27,15:06:36,16:04:04,NA,incomplete,false,NA,true,5,8,NA,NA,right,NA,NA,m_s_010.jpg,m_s_004.jpg,between-small,NA,NaN,NA,right,613,1,3,799
jqKePArS,NA,NA,jqKePArS,2020-0188,2021-09-27,15:06:36,16:04:04,NA,incomplete,false,NA,true,5,9,NA,NA,left,NA,NA,c_2_023.jpg,c_1_026.jpg,within,NA,NaN,NA,right,692.9999999997672,0,3,1010.9999999997672
jqKePArS,NA,NA,jqKePArS,2020-0188,2021-09-27,15:06:36,16:04:04,NA,incomplete,false,NA,true,5,10,NA,NA,right,NA,NA,o_s_025.jpg,m_s_021.jpg,between-big,NA,NaN,NA,right,583,1,3,2894
jqKePArS,NA,NA,jqKePArS,2020-0188,2021-09-27,15:06:36,16:04:04,NA,incomplete,false,NA,true,5,11,NA,NA,left,NA,NA,m_s_010.jpg,m_l_022.jpg,within,NA,NaN,NA,right,804,0,3,1626.0000000002328
jqKePArS,NA,NA,jqKePArS,2020-0188,2021-09-27,15:06:36,16:04:04,NA,incomplete,false,NA,true,5,12,NA,NA,right,NA,NA,o_s_021.jpg,i_c_012.jpg,between-small,NA,NaN,NA,right,576,1,3,1673
jqKePArS,NA,NA,jqKePArS,2020-0188,2021-09-27,15:06:36,16:04:04,NA,incomplete,false,NA,true,5,13,NA,NA,left,NA,NA,i_c_016.jpg,o_c_013.jpg,within,NA,NaN,NA,right,633,0,3,962
jqKePArS,NA,NA,jqKePArS,2020-0188,2021-09-27,15:06:36,16:04:04,NA,incomplete,false,NA,true,5,14,NA,NA,left,NA,NA,o_c_021.jpg,i_c_011.jpg,within,NA,NaN,NA,right,638,0,3,1067.9999999997672
jqKePArS,NA,NA,jqKePArS,2020-0188,2021-09-27,15:06:36,16:04:04,NA,incomplete,false,NA,true,5,15,NA,NA,left,NA,NA,c_1_004.jpg,a_2_022.jpg,within,NA,NaN,NA,right,709,0,3,1246
jqKePArS,NA,NA,jqKePArS,2020-0188,2021-09-27,15:06:36,16:04:04,NA,incomplete,false,NA,true,5,16,NA,NA,right,NA,NA,i_s_013.jpg,m_l_022.jpg,between-big,NA,NaN,NA,right,523.0000000002328,1,3,1358
jqKePArS,NA,NA,jqKePArS,2020-0188,2021-09-27,15:06:36,16:04:04,NA,incomplete,false,NA,true,5,17,NA,NA,right,NA,NA,o_c_021.jpg,m_l_003.jpg,between-big,NA,NaN,NA,right,618.0000000002328,1,3,983
jqKePArS,NA,NA,jqKePArS,2020-0188,2021-09-27,15:06:36,16:04:04,NA,incomplete,false,NA,true,5,18,NA,NA,left,NA,NA,o_s_021.jpg,c_2_014.jpg,between-big,NA,NaN,NA,right,599.0000000002328,0,3,2105
jqKePArS,NA,NA,jqKePArS,2020-0188,2021-09-27,15:06:36,16:04:04,NA,incomplete,false,NA,true,5,19,NA,NA,right,NA,NA,o_s_016.jpg,o_c_006.jpg,within,NA,NaN,NA,right,659,1,3,1974
jqKePArS,NA,NA,jqKePArS,2020-0188,2021-09-27,15:06:36,16:04:04,NA,incomplete,false,NA,true,5,20,NA,NA,left,NA,NA,i_c_011.jpg,i_c_016.jpg,between-small,NA,NaN,NA,right,692,0,3,1229.9999999997672
jqKePArS,NA,NA,jqKePArS,2020-0188,2021-09-27,15:06:36,16:04:04,NA,incomplete,false,NA,true,5,21,NA,NA,right,NA,NA,o_c_006.jpg,i_s_013.jpg,between-small,NA,NaN,NA,right,882.9999999997672,1,3,1374
jqKePArS,NA,NA,jqKePArS,2020-0188,2021-09-27,15:06:36,16:04:04,NA,incomplete,false,NA,true,5,22,NA,NA,right,NA,NA,m_s_004.jpg,m_l_024.jpg,within,NA,NaN,NA,right,873,1,3,1009
jqKePArS,NA,NA,jqKePArS,2020-0188,2021-09-27,15:06:36,16:04:04,NA,incomplete,false,NA,true,5,23,NA,NA,left,NA,NA,n_l_008.jpg,m_s_025.jpg,between-small,NA,NaN,NA,right,631.0000000002328,0,3,1362
jqKePArS,NA,NA,jqKePArS,2020-0188,2021-09-27,15:06:36,16:04:04,NA,incomplete,false,NA,true,5,24,NA,NA,left,NA,NA,c_1_015.jpg,a_2_024.jpg,within,NA,NaN,NA,right,739.0000000002328,0,3,1302
jqKePArS,NA,NA,jqKePArS,2020-0188,2021-09-27,15:06:36,16:04:04,NA,incomplete,false,NA,true,5,25,NA,NA,right,NA,NA,a_1_011.jpg,c_1_026.jpg,between-small,NA,NaN,NA,right,595,1,3,1392
jqKePArS,NA,NA,jqKePArS,2020-0188,2021-09-27,15:06:36,16:04:04,NA,incomplete,false,NA,true,5,26,NA,NA,right,NA,NA,a_1_021.jpg,o_c_013.jpg,between-big,NA,NaN,NA,right,532,1,3,1578.9999999997672
jqKePArS,NA,NA,jqKePArS,2020-0188,2021-09-27,15:06:36,16:04:04,NA,incomplete,false,true,NA,6,0,abstractness,a_2_012.jpg,right,concrete,abstract,NA,NA,NA,right,1717,true,NA,NA,NA,NA,NA
jqKePArS,NA,NA,jqKePArS,2020-0188,2021-09-27,15:06:36,16:04:04,NA,incomplete,false,true,NA,6,1,abstractness,c_1_022.jpg,left,concrete,abstract,NA,NA,NA,left,1288.99999999977,true,NA,NA,NA,NA,NA
jqKePArS,NA,NA,jqKePArS,2020-0188,2021-09-27,15:06:36,16:04:04,NA,incomplete,false,true,NA,6,2,abstractness,a_1_026.jpg,right,concrete,abstract,NA,NA,NA,right,1503.00000000023,true,NA,NA,NA,NA,NA
jqKePArS,NA,NA,jqKePArS,2020-0188,2021-09-27,15:06:36,16:04:04,NA,incomplete,false,true,NA,6,3,abstractness,a_1_028.jpg,left,abstract,concrete,NA,NA,NA,left,2539.00000000023,true,NA,NA,NA,NA,NA
jqKePArS,NA,NA,jqKePArS,2020-0188,2021-09-27,15:06:36,16:04:04,NA,incomplete,false,true,NA,6,4,abstractness,c_1_020.jpg,left,concrete,abstract,NA,NA,NA,left,1329.00000000023,true,NA,NA,NA,NA,NA
jqKePArS,NA,NA,jqKePArS,2020-0188,2021-09-27,15:06:36,16:04:04,NA,incomplete,false,true,NA,6,5,syllable,c_1_003.jpg,right,2 syllables,1 syllable,NA,NA,NA,right,1255.00000000023,true,NA,NA,NA,NA,NA
jqKePArS,NA,NA,jqKePArS,2020-0188,2021-09-27,15:06:36,16:04:04,NA,incomplete,false,true,NA,6,6,syllable,c_2_008.jpg,right,2 syllables,1 syllable,NA,NA,NA,left,1398.99999999977,false,NA,NA,NA,NA,NA
jqKePArS,NA,NA,jqKePArS,2020-0188,2021-09-27,15:06:36,16:04:04,NA,incomplete,false,true,NA,6,7,syllable,a_1_025.jpg,right,1 syllable,2 syllables,NA,NA,NA,left,1327.00000000023,false,NA,NA,NA,NA,NA
jqKePArS,NA,NA,jqKePArS,2020-0188,2021-09-27,15:06:36,16:04:04,NA,incomplete,false,true,NA,6,8,syllable,a_1_016.jpg,right,2 syllables,1 syllable,NA,NA,NA,right,1134.99999999977,true,NA,NA,NA,NA,NA
jqKePArS,NA,NA,jqKePArS,2020-0188,2021-09-27,15:06:36,16:04:04,NA,incomplete,false,true,NA,6,9,syllable,c_1_007.jpg,right,1 syllable,2 syllables,NA,NA,NA,left,1276.99999999953,false,NA,NA,NA,NA,NA
jqKePArS,NA,NA,jqKePArS,2020-0188,2021-09-27,15:06:36,16:04:04,NA,incomplete,false,true,NA,6,10,location,o_c_001.jpg,left,outdoor,indoor,NA,NA,NA,left,2173,true,NA,NA,NA,NA,NA
jqKePArS,NA,NA,jqKePArS,2020-0188,2021-09-27,15:06:36,16:04:04,NA,incomplete,false,true,NA,6,11,location,i_s_008.jpg,right,outdoor,indoor,NA,NA,NA,right,1328,true,NA,NA,NA,NA,NA
jqKePArS,NA,NA,jqKePArS,2020-0188,2021-09-27,15:06:36,16:04:04,NA,incomplete,false,true,NA,6,12,location,i_s_009.jpg,left,indoor,outdoor,NA,NA,NA,left,1072,true,NA,NA,NA,NA,NA
jqKePArS,NA,NA,jqKePArS,2020-0188,2021-09-27,15:06:36,16:04:04,NA,incomplete,false,true,NA,6,13,location,o_s_018.jpg,left,outdoor,indoor,NA,NA,NA,left,1107,true,NA,NA,NA,NA,NA
jqKePArS,NA,NA,jqKePArS,2020-0188,2021-09-27,15:06:36,16:04:04,NA,incomplete,false,true,NA,6,14,location,i_s_023.jpg,left,indoor,outdoor,NA,NA,NA,left,1668,true,NA,NA,NA,NA,NA
jqKePArS,NA,NA,jqKePArS,2020-0188,2021-09-27,15:06:36,16:04:04,NA,incomplete,false,true,NA,6,15,building,i_s_017.jpg,right,cottage,skyscraper,NA,NA,NA,right,1129,true,NA,NA,NA,NA,NA
jqKePArS,NA,NA,jqKePArS,2020-0188,2021-09-27,15:06:36,16:04:04,NA,incomplete,false,true,NA,6,16,building,i_c_020.jpg,right,skyscraper,cottage,NA,NA,NA,right,1590,true,NA,NA,NA,NA,NA
jqKePArS,NA,NA,jqKePArS,2020-0188,2021-09-27,15:06:36,16:04:04,NA,incomplete,false,true,NA,6,17,building,o_s_006.jpg,left,skyscraper,cottage,NA,NA,NA,left,1192,true,NA,NA,NA,NA,NA
jqKePArS,NA,NA,jqKePArS,2020-0188,2021-09-27,15:06:36,16:04:04,NA,incomplete,false,true,NA,6,18,building,i_c_027.jpg,left,cottage,skyscraper,NA,NA,NA,left,1100,true,NA,NA,NA,NA,NA
jqKePArS,NA,NA,jqKePArS,2020-0188,2021-09-27,15:06:36,16:04:04,NA,incomplete,false,true,NA,6,19,building,i_s_020.jpg,left,skyscraper,cottage,NA,NA,NA,left,1199,true,NA,NA,NA,NA,NA
jqKePArS,NA,NA,jqKePArS,2020-0188,2021-09-27,15:06:36,16:04:04,NA,incomplete,false,true,NA,6,20,origin,m_l_004.jpg,right,natural,manmade,NA,NA,NA,right,2126,true,NA,NA,NA,NA,NA
jqKePArS,NA,NA,jqKePArS,2020-0188,2021-09-27,15:06:36,16:04:04,NA,incomplete,false,true,NA,6,21,origin,m_l_002.jpg,left,manmade,natural,NA,NA,NA,left,1293,true,NA,NA,NA,NA,NA
jqKePArS,NA,NA,jqKePArS,2020-0188,2021-09-27,15:06:36,16:04:04,NA,incomplete,false,true,NA,6,22,origin,n_s_015.jpg,left,natural,manmade,NA,NA,NA,left,1197,true,NA,NA,NA,NA,NA
jqKePArS,NA,NA,jqKePArS,2020-0188,2021-09-27,15:06:36,16:04:04,NA,incomplete,false,true,NA,6,23,origin,m_s_005.jpg,left,manmade,natural,NA,NA,NA,left,1503,true,NA,NA,NA,NA,NA
jqKePArS,NA,NA,jqKePArS,2020-0188,2021-09-27,15:06:36,16:04:04,NA,incomplete,false,true,NA,6,24,origin,n_l_018.jpg,right,manmade,natural,NA,NA,NA,right,1139,true,NA,NA,NA,NA,NA
jqKePArS,NA,NA,jqKePArS,2020-0188,2021-09-27,15:06:36,16:04:04,NA,incomplete,false,true,NA,6,25,size,m_l_001.jpg,right,small,large,NA,NA,NA,right,1149,true,NA,NA,NA,NA,NA
jqKePArS,NA,NA,jqKePArS,2020-0188,2021-09-27,15:06:36,16:04:04,NA,incomplete,false,true,NA,6,26,size,n_s_025.jpg,right,large,small,NA,NA,NA,right,1310,true,NA,NA,NA,NA,NA
jqKePArS,NA,NA,jqKePArS,2020-0188,2021-09-27,15:06:36,16:04:04,NA,incomplete,false,true,NA,6,27,size,m_l_020.jpg,right,small,large,NA,NA,NA,right,1233,true,NA,NA,NA,NA,NA
jqKePArS,NA,NA,jqKePArS,2020-0188,2021-09-27,15:06:36,16:04:04,NA,incomplete,false,true,NA,6,28,size,m_s_002.jpg,left,small,large,NA,NA,NA,left,924.000000000466,true,NA,NA,NA,NA,NA
jqKePArS,NA,NA,jqKePArS,2020-0188,2021-09-27,15:06:36,16:04:04,NA,incomplete,false,true,NA,6,29,size,m_l_023.jpg,right,small,large,NA,NA,NA,right,1692,true,NA,NA,NA,NA,NA
jqKePArS,NA,NA,jqKePArS,2020-0188,2021-09-27,15:06:36,16:04:04,NA,incomplete,false,NA,true,6,0,NA,NA,left,NA,NA,a_1_028.jpg,c_2_008.jpg,between-small,NA,NaN,NA,left,2581,1,3,1944
jqKePArS,NA,NA,jqKePArS,2020-0188,2021-09-27,15:06:36,16:04:04,NA,incomplete,false,NA,true,6,1,NA,NA,left,NA,NA,o_s_006.jpg,m_l_004.jpg,between-big,NA,NaN,NA,right,544.0000000004657,0,3,1613.0000000004657
jqKePArS,NA,NA,jqKePArS,2020-0188,2021-09-27,15:06:36,16:04:04,NA,incomplete,false,NA,true,6,2,NA,NA,right,NA,NA,a_1_025.jpg,c_1_020.jpg,between-small,NA,NaN,NA,right,525,1,3,1190
jqKePArS,NA,NA,jqKePArS,2020-0188,2021-09-27,15:06:36,16:04:04,NA,incomplete,false,NA,true,6,3,NA,NA,left,NA,NA,a_1_016.jpg,i_s_008.jpg,between-big,NA,NaN,NA,right,476.99999999953434,0,3,1070
jqKePArS,NA,NA,jqKePArS,2020-0188,2021-09-27,15:06:36,16:04:04,NA,incomplete,false,NA,true,6,4,NA,NA,right,NA,NA,c_1_020.jpg,c_1_022.jpg,within,NA,NaN,NA,right,585,1,3,1684.9999999995343
jqKePArS,NA,NA,jqKePArS,2020-0188,2021-09-27,15:06:36,16:04:04,NA,incomplete,false,NA,true,6,5,NA,NA,right,NA,NA,m_s_005.jpg,m_l_004.jpg,within,NA,NaN,NA,right,522,1,3,1362
jqKePArS,NA,NA,jqKePArS,2020-0188,2021-09-27,15:06:36,16:04:04,NA,incomplete,false,NA,true,6,6,NA,NA,left,NA,NA,m_s_005.jpg,n_s_025.jpg,between-small,NA,NaN,NA,right,585,0,3,1100
jqKePArS,NA,NA,jqKePArS,2020-0188,2021-09-27,15:06:36,16:04:04,NA,incomplete,false,NA,true,6,7,NA,NA,right,NA,NA,n_s_015.jpg,i_s_020.jpg,between-big,NA,NaN,NA,right,514,1,3,1386
jqKePArS,NA,NA,jqKePArS,2020-0188,2021-09-27,15:06:36,16:04:04,NA,incomplete,false,NA,true,6,8,NA,NA,right,NA,NA,o_c_001.jpg,a_1_025.jpg,between-big,NA,NaN,NA,right,560.0000000004657,1,3,1063
jqKePArS,NA,NA,jqKePArS,2020-0188,2021-09-27,15:06:36,16:04:04,NA,incomplete,false,NA,true,6,9,NA,NA,right,NA,NA,i_c_027.jpg,i_s_017.jpg,within,NA,NaN,NA,right,512,1,3,1211
jqKePArS,NA,NA,jqKePArS,2020-0188,2021-09-27,15:06:36,16:04:04,NA,incomplete,false,NA,true,6,10,NA,NA,right,NA,NA,c_1_007.jpg,c_2_008.jpg,within,NA,NaN,NA,right,546,1,3,1699.9999999995343
jqKePArS,NA,NA,jqKePArS,2020-0188,2021-09-27,15:06:36,16:04:04,NA,incomplete,false,NA,true,6,11,NA,NA,left,NA,NA,m_l_002.jpg,n_l_018.jpg,within,NA,NaN,NA,right,601,0,3,1000
jqKePArS,NA,NA,jqKePArS,2020-0188,2021-09-27,15:06:36,16:04:04,NA,incomplete,false,NA,true,6,12,NA,NA,left,NA,NA,i_c_020.jpg,i_s_020.jpg,within,NA,NaN,NA,right,542,0,3,876.0000000004657
jqKePArS,NA,NA,jqKePArS,2020-0188,2021-09-27,15:06:36,16:04:04,NA,incomplete,false,NA,true,6,13,NA,NA,left,NA,NA,i_s_023.jpg,o_s_006.jpg,between-small,NA,NaN,NA,right,525,0,3,1487
jqKePArS,NA,NA,jqKePArS,2020-0188,2021-09-27,15:06:36,16:04:04,NA,incomplete,false,NA,true,6,14,NA,NA,left,NA,NA,o_c_001.jpg,o_s_018.jpg,within,NA,NaN,NA,right,648.0000000004657,0,3,870
jqKePArS,NA,NA,jqKePArS,2020-0188,2021-09-27,15:06:36,16:04:04,NA,incomplete,false,NA,true,6,15,NA,NA,right,NA,NA,i_s_017.jpg,i_s_009.jpg,between-small,NA,NaN,NA,right,724.0000000004657,1,3,1170
jqKePArS,NA,NA,jqKePArS,2020-0188,2021-09-27,15:06:36,16:04:04,NA,incomplete,false,NA,true,6,16,NA,NA,right,NA,NA,m_l_023.jpg,n_s_025.jpg,within,NA,NaN,NA,right,678,1,3,2277
jqKePArS,NA,NA,jqKePArS,2020-0188,2021-09-27,15:06:36,16:04:04,NA,incomplete,false,NA,true,6,17,NA,NA,right,NA,NA,a_1_016.jpg,c_1_003.jpg,within,NA,NaN,NA,right,627,1,3,1437
jqKePArS,NA,NA,jqKePArS,2020-0188,2021-09-27,15:06:36,16:04:04,NA,incomplete,false,NA,true,6,18,NA,NA,right,NA,NA,i_s_023.jpg,i_s_008.jpg,within,NA,NaN,NA,right,545,1,3,1019
jqKePArS,NA,NA,jqKePArS,2020-0188,2021-09-27,15:06:36,16:04:04,NA,incomplete,false,NA,true,6,19,NA,NA,right,NA,NA,m_l_001.jpg,n_s_015.jpg,between-small,NA,NaN,NA,right,558,1,3,1195
jqKePArS,NA,NA,jqKePArS,2020-0188,2021-09-27,15:06:36,16:04:04,NA,incomplete,false,NA,true,6,20,NA,NA,left,NA,NA,i_c_027.jpg,m_l_002.jpg,between-big,NA,NaN,NA,right,658,0,3,1122
jqKePArS,NA,NA,jqKePArS,2020-0188,2021-09-27,15:06:36,16:04:04,NA,incomplete,false,NA,true,6,21,NA,NA,right,NA,NA,m_s_002.jpg,m_l_001.jpg,within,NA,NaN,NA,right,510.00000000046566,1,3,1236
jqKePArS,NA,NA,jqKePArS,2020-0188,2021-09-27,15:06:36,16:04:04,NA,incomplete,false,NA,true,6,22,NA,NA,right,NA,NA,i_c_020.jpg,o_s_018.jpg,between-small,NA,NaN,NA,right,549,1,3,1924
jqKePArS,NA,NA,jqKePArS,2020-0188,2021-09-27,15:06:36,16:04:04,NA,incomplete,false,NA,true,6,23,NA,NA,right,NA,NA,a_1_028.jpg,a_2_012.jpg,within,NA,NaN,NA,right,817,1,3,1154
jqKePArS,NA,NA,jqKePArS,2020-0188,2021-09-27,15:06:36,16:04:04,NA,incomplete,false,NA,true,6,24,NA,NA,left,NA,NA,n_l_018.jpg,m_l_020.jpg,between-small,NA,NaN,NA,right,652.0000000004657,0,3,1057
jqKePArS,NA,NA,jqKePArS,2020-0188,2021-09-27,15:06:36,16:04:04,NA,incomplete,false,NA,true,6,25,NA,NA,right,NA,NA,c_1_003.jpg,a_1_026.jpg,between-small,NA,NaN,NA,right,565,1,3,1174
jqKePArS,NA,NA,jqKePArS,2020-0188,2021-09-27,15:06:36,16:04:04,NA,incomplete,false,NA,true,6,26,NA,NA,left,NA,NA,c_1_007.jpg,i_s_009.jpg,between-big,NA,NaN,NA,right,626,0,3,935
jqKePArS,NA,NA,jqKePArS,2020-0188,2021-09-27,15:06:36,16:04:04,NA,incomplete,false,true,NA,7,0,abstractness,c_1_008.jpg,left,concrete,abstract,NA,NA,NA,none,0,false,NA,NA,NA,NA,NA
jqKePArS,NA,NA,jqKePArS,2020-0188,2021-09-27,15:06:36,16:04:04,NA,incomplete,false,true,NA,7,1,abstractness,c_2_019.jpg,right,abstract,concrete,NA,NA,NA,right,1174,true,NA,NA,NA,NA,NA
jqKePArS,NA,NA,jqKePArS,2020-0188,2021-09-27,15:06:36,16:04:04,NA,incomplete,false,true,NA,7,2,abstractness,c_1_002.jpg,right,abstract,concrete,NA,NA,NA,right,1442.99999999953,true,NA,NA,NA,NA,NA
jqKePArS,NA,NA,jqKePArS,2020-0188,2021-09-27,15:06:36,16:04:04,NA,incomplete,false,true,NA,7,3,abstractness,c_1_010.jpg,left,concrete,abstract,NA,NA,NA,none,0,false,NA,NA,NA,NA,NA
jqKePArS,NA,NA,jqKePArS,2020-0188,2021-09-27,15:06:36,16:04:04,NA,incomplete,false,true,NA,7,4,abstractness,a_2_019.jpg,right,concrete,abstract,NA,NA,NA,right,2217,true,NA,NA,NA,NA,NA
jqKePArS,NA,NA,jqKePArS,2020-0188,2021-09-27,15:06:36,16:04:04,NA,incomplete,false,true,NA,7,5,syllable,c_1_025.jpg,right,1 syllable,2 syllables,NA,NA,NA,none,0,false,NA,NA,NA,NA,NA
jqKePArS,NA,NA,jqKePArS,2020-0188,2021-09-27,15:06:36,16:04:04,NA,incomplete,false,true,NA,7,6,syllable,c_1_005.jpg,right,1 syllable,2 syllables,NA,NA,NA,none,0,false,NA,NA,NA,NA,NA
jqKePArS,NA,NA,jqKePArS,2020-0188,2021-09-27,15:06:36,16:04:04,NA,incomplete,false,true,NA,7,7,syllable,c_2_011.jpg,right,1 syllable,2 syllables,NA,NA,NA,right,2838,true,NA,NA,NA,NA,NA
jqKePArS,NA,NA,jqKePArS,2020-0188,2021-09-27,15:06:36,16:04:04,NA,incomplete,false,true,NA,7,8,syllable,a_1_017.jpg,right,1 syllable,2 syllables,NA,NA,NA,left,2269,false,NA,NA,NA,NA,NA
jqKePArS,NA,NA,jqKePArS,2020-0188,2021-09-27,15:06:36,16:04:04,NA,incomplete,false,true,NA,7,9,syllable,a_2_027.jpg,right,1 syllable,2 syllables,NA,NA,NA,left,2488,false,NA,NA,NA,NA,NA
jqKePArS,NA,NA,jqKePArS,2020-0188,2021-09-27,15:06:36,16:04:04,NA,incomplete,false,true,NA,7,10,origin,m_s_026.jpg,right,natural,manmade,NA,NA,NA,right,2278,true,NA,NA,NA,NA,NA
jqKePArS,NA,NA,jqKePArS,2020-0188,2021-09-27,15:06:36,16:04:04,NA,incomplete,false,true,NA,7,11,origin,n_s_011.jpg,left,natural,manmade,NA,NA,NA,left,1526,true,NA,NA,NA,NA,NA
jqKePArS,NA,NA,jqKePArS,2020-0188,2021-09-27,15:06:36,16:04:04,NA,incomplete,false,true,NA,7,12,origin,n_l_022.jpg,right,manmade,natural,NA,NA,NA,right,1016.99999999953,true,NA,NA,NA,NA,NA
jqKePArS,NA,NA,jqKePArS,2020-0188,2021-09-27,15:06:36,16:04:04,NA,incomplete,false,true,NA,7,13,origin,m_l_027.jpg,left,manmade,natural,NA,NA,NA,left,1633,true,NA,NA,NA,NA,NA
jqKePArS,NA,NA,jqKePArS,2020-0188,2021-09-27,15:06:36,16:04:04,NA,incomplete,false,true,NA,7,14,origin,n_s_006.jpg,left,natural,manmade,NA,NA,NA,left,1302,true,NA,NA,NA,NA,NA
jqKePArS,NA,NA,jqKePArS,2020-0188,2021-09-27,15:06:36,16:04:04,NA,incomplete,false,true,NA,7,15,size,m_l_028.jpg,left,large,small,NA,NA,NA,left,1547,true,NA,NA,NA,NA,NA
jqKePArS,NA,NA,jqKePArS,2020-0188,2021-09-27,15:06:36,16:04:04,NA,incomplete,false,true,NA,7,16,size,m_l_009.jpg,right,small,large,NA,NA,NA,right,1236,true,NA,NA,NA,NA,NA
jqKePArS,NA,NA,jqKePArS,2020-0188,2021-09-27,15:06:36,16:04:04,NA,incomplete,false,true,NA,7,17,size,m_s_006.jpg,left,small,large,NA,NA,NA,left,1161,true,NA,NA,NA,NA,NA
jqKePArS,NA,NA,jqKePArS,2020-0188,2021-09-27,15:06:36,16:04:04,NA,incomplete,false,true,NA,7,18,size,n_l_003.jpg,left,large,small,NA,NA,NA,left,1467,true,NA,NA,NA,NA,NA
jqKePArS,NA,NA,jqKePArS,2020-0188,2021-09-27,15:06:36,16:04:04,NA,incomplete,false,true,NA,7,19,size,n_l_010.jpg,right,small,large,NA,NA,NA,right,1142,true,NA,NA,NA,NA,NA
jqKePArS,NA,NA,jqKePArS,2020-0188,2021-09-27,15:06:36,16:04:04,NA,incomplete,false,true,NA,7,20,building,i_s_001.jpg,left,skyscraper,cottage,NA,NA,NA,left,2488,true,NA,NA,NA,NA,NA
jqKePArS,NA,NA,jqKePArS,2020-0188,2021-09-27,15:06:36,16:04:04,NA,incomplete,false,true,NA,7,21,building,i_s_019.jpg,right,cottage,skyscraper,NA,NA,NA,right,1676,true,NA,NA,NA,NA,NA
jqKePArS,NA,NA,jqKePArS,2020-0188,2021-09-27,15:06:36,16:04:04,NA,incomplete,false,true,NA,7,22,building,i_c_019.jpg,left,cottage,skyscraper,NA,NA,NA,left,1424,true,NA,NA,NA,NA,NA
jqKePArS,NA,NA,jqKePArS,2020-0188,2021-09-27,15:06:36,16:04:04,NA,incomplete,false,true,NA,7,23,building,o_c_016.jpg,right,skyscraper,cottage,NA,NA,NA,right,1625,true,NA,NA,NA,NA,NA
jqKePArS,NA,NA,jqKePArS,2020-0188,2021-09-27,15:06:36,16:04:04,NA,incomplete,false,true,NA,7,24,building,i_s_004.jpg,right,cottage,skyscraper,NA,NA,NA,right,1206.99999999953,true,NA,NA,NA,NA,NA
jqKePArS,NA,NA,jqKePArS,2020-0188,2021-09-27,15:06:36,16:04:04,NA,incomplete,false,true,NA,7,25,location,i_s_015.jpg,left,indoor,outdoor,NA,NA,NA,left,2003,true,NA,NA,NA,NA,NA
jqKePArS,NA,NA,jqKePArS,2020-0188,2021-09-27,15:06:36,16:04:04,NA,incomplete,false,true,NA,7,26,location,i_s_028.jpg,right,outdoor,indoor,NA,NA,NA,right,2529,true,NA,NA,NA,NA,NA
jqKePArS,NA,NA,jqKePArS,2020-0188,2021-09-27,15:06:36,16:04:04,NA,incomplete,false,true,NA,7,27,location,i_s_025.jpg,left,indoor,outdoor,NA,NA,NA,left,2405,true,NA,NA,NA,NA,NA
jqKePArS,NA,NA,jqKePArS,2020-0188,2021-09-27,15:06:36,16:04:04,NA,incomplete,false,true,NA,7,28,location,o_s_004.jpg,right,indoor,outdoor,NA,NA,NA,right,2410,true,NA,NA,NA,NA,NA
jqKePArS,NA,NA,jqKePArS,2020-0188,2021-09-27,15:06:36,16:04:04,NA,incomplete,false,true,NA,7,29,location,i_s_014.jpg,right,outdoor,indoor,NA,NA,NA,right,2661,true,NA,NA,NA,NA,NA
jqKePArS,NA,NA,jqKePArS,2020-0188,2021-09-27,15:06:36,16:04:04,NA,incomplete,false,NA,true,7,0,NA,NA,right,NA,NA,c_1_025.jpg,c_1_002.jpg,between-small,NA,NaN,NA,right,768,1,3,1579
jqKePArS,NA,NA,jqKePArS,2020-0188,2021-09-27,15:06:36,16:04:04,NA,incomplete,false,NA,true,7,1,NA,NA,right,NA,NA,c_1_010.jpg,c_1_008.jpg,within,NA,NaN,NA,right,516,1,3,998
jqKePArS,NA,NA,jqKePArS,2020-0188,2021-09-27,15:06:36,16:04:04,NA,incomplete,false,NA,true,7,2,NA,NA,right,NA,NA,n_s_006.jpg,n_s_011.jpg,within,NA,NaN,NA,right,493,1,3,831.0000000004657
jqKePArS,NA,NA,jqKePArS,2020-0188,2021-09-27,15:06:36,16:04:04,NA,incomplete,false,NA,true,7,3,NA,NA,right,NA,NA,o_c_016.jpg,i_s_001.jpg,within,NA,NaN,NA,right,494,1,3,749
jqKePArS,NA,NA,jqKePArS,2020-0188,2021-09-27,15:06:36,16:04:04,NA,incomplete,false,NA,true,7,4,NA,NA,left,NA,NA,c_1_025.jpg,a_1_017.jpg,within,NA,NaN,NA,right,533,0,3,1487
jqKePArS,NA,NA,jqKePArS,2020-0188,2021-09-27,15:06:36,16:04:04,NA,incomplete,false,NA,true,7,5,NA,NA,left,NA,NA,n_s_006.jpg,m_s_006.jpg,between-small,NA,NaN,NA,right,511,0,3,975.0000000004657
jqKePArS,NA,NA,jqKePArS,2020-0188,2021-09-27,15:06:36,16:04:04,NA,incomplete,false,NA,true,7,6,NA,NA,left,NA,NA,c_2_019.jpg,a_2_019.jpg,within,NA,NaN,NA,right,484,0,3,1076
jqKePArS,NA,NA,jqKePArS,2020-0188,2021-09-27,15:06:36,16:04:04,NA,incomplete,false,NA,true,7,7,NA,NA,right,NA,NA,i_s_014.jpg,i_s_028.jpg,within,NA,NaN,NA,right,519,1,3,940
jqKePArS,NA,NA,jqKePArS,2020-0188,2021-09-27,15:06:36,16:04:04,NA,incomplete,false,NA,true,7,8,NA,NA,left,NA,NA,c_1_010.jpg,c_1_005.jpg,between-small,NA,NaN,NA,right,543,0,3,1024
jqKePArS,NA,NA,jqKePArS,2020-0188,2021-09-27,15:06:36,16:04:04,NA,incomplete,false,NA,true,7,9,NA,NA,left,NA,NA,o_c_016.jpg,i_s_028.jpg,between-small,NA,NaN,NA,right,601,0,3,943
jqKePArS,NA,NA,jqKePArS,2020-0188,2021-09-27,15:06:36,16:04:04,NA,incomplete,false,NA,true,7,10,NA,NA,right,NA,NA,m_l_027.jpg,m_s_026.jpg,within,NA,NaN,NA,right,526,1,3,994
jqKePArS,NA,NA,jqKePArS,2020-0188,2021-09-27,15:06:36,16:04:04,NA,incomplete,false,NA,true,7,11,NA,NA,right,NA,NA,n_s_011.jpg,a_1_017.jpg,between-big,NA,NaN,NA,right,588.9999999995343,1,3,1687
jqKePArS,NA,NA,jqKePArS,2020-0188,2021-09-27,15:06:36,16:04:04,NA,incomplete,false,NA,true,7,12,NA,NA,right,NA,NA,m_l_009.jpg,m_l_027.jpg,between-small,NA,NaN,NA,right,519,1,3,1142
jqKePArS,NA,NA,jqKePArS,2020-0188,2021-09-27,15:06:36,16:04:04,NA,incomplete,false,NA,true,7,13,NA,NA,right,NA,NA,i_s_004.jpg,i_s_019.jpg,within,NA,NaN,NA,right,547,1,3,1048
jqKePArS,NA,NA,jqKePArS,2020-0188,2021-09-27,15:06:36,16:04:04,NA,incomplete,false,NA,true,7,14,NA,NA,left,NA,NA,i_c_019.jpg,i_s_015.jpg,between-small,NA,NaN,NA,right,570.9999999995343,0,3,1031.9999999995343
jqKePArS,NA,NA,jqKePArS,2020-0188,2021-09-27,15:06:36,16:04:04,NA,incomplete,false,NA,true,7,15,NA,NA,left,NA,NA,n_l_010.jpg,i_c_019.jpg,between-big,NA,NaN,NA,right,537,0,3,1971
jqKePArS,NA,NA,jqKePArS,2020-0188,2021-09-27,15:06:36,16:04:04,NA,incomplete,false,NA,true,7,16,NA,NA,left,NA,NA,m_l_009.jpg,n_l_010.jpg,within,NA,NaN,NA,right,561.9999999995343,0,3,1254.9999999995343
jqKePArS,NA,NA,jqKePArS,2020-0188,2021-09-27,15:06:36,16:04:04,NA,incomplete,false,NA,true,7,17,NA,NA,left,NA,NA,n_l_022.jpg,m_l_028.jpg,between-small,NA,NaN,NA,right,634,0,3,1121.9999999995343
jqKePArS,NA,NA,jqKePArS,2020-0188,2021-09-27,15:06:36,16:04:04,NA,incomplete,false,NA,true,7,18,NA,NA,left,NA,NA,n_l_003.jpg,i_s_019.jpg,between-big,NA,NaN,NA,right,588.9999999995343,0,3,1195
jqKePArS,NA,NA,jqKePArS,2020-0188,2021-09-27,15:06:36,16:04:04,NA,incomplete,false,NA,true,7,19,NA,NA,left,NA,NA,c_2_011.jpg,m_s_026.jpg,between-big,NA,NaN,NA,right,649.9999999995343,0,3,1233
jqKePArS,NA,NA,jqKePArS,2020-0188,2021-09-27,15:06:36,16:04:04,NA,incomplete,false,NA,true,7,20,NA,NA,left,NA,NA,a_2_019.jpg,c_2_011.jpg,between-small,NA,NaN,NA,right,495,0,3,1293.0000000004657
jqKePArS,NA,NA,jqKePArS,2020-0188,2021-09-27,15:06:36,16:04:04,NA,incomplete,false,NA,true,7,21,NA,NA,right,NA,NA,n_l_022.jpg,a_2_027.jpg,between-big,NA,NaN,NA,right,519,1,3,1177
jqKePArS,NA,NA,jqKePArS,2020-0188,2021-09-27,15:06:36,16:04:04,NA,incomplete,false,NA,true,7,22,NA,NA,left,NA,NA,i_s_015.jpg,o_s_004.jpg,within,NA,NaN,NA,right,491,0,3,1060
jqKePArS,NA,NA,jqKePArS,2020-0188,2021-09-27,15:06:36,16:04:04,NA,incomplete,false,NA,true,7,23,NA,NA,left,NA,NA,i_s_004.jpg,i_s_025.jpg,between-small,NA,NaN,NA,right,523,0,3,1063
jqKePArS,NA,NA,jqKePArS,2020-0188,2021-09-27,15:06:36,16:04:04,NA,incomplete,false,NA,true,7,24,NA,NA,left,NA,NA,m_s_006.jpg,i_s_001.jpg,between-big,NA,NaN,NA,right,1185.0000000004657,0,3,1296
jqKePArS,NA,NA,jqKePArS,2020-0188,2021-09-27,15:06:36,16:04:04,NA,incomplete,false,NA,true,7,25,NA,NA,left,NA,NA,m_l_028.jpg,n_l_003.jpg,within,NA,NaN,NA,right,554.9999999995343,0,3,1706
jqKePArS,NA,NA,jqKePArS,2020-0188,2021-09-27,15:06:36,16:04:04,NA,incomplete,false,NA,true,7,26,NA,NA,left,NA,NA,c_1_005.jpg,a_2_027.jpg,within,NA,NaN,NA,right,615,0,3,1008
jqKePArS,NA,NA,jqKePArS,2020-0188,2021-09-27,15:06:36,16:04:04,NA,incomplete,false,true,NA,8,0,origin,n_l_014.jpg,right,manmade,natural,NA,NA,NA,right,1347,true,NA,NA,NA,NA,NA
jqKePArS,NA,NA,jqKePArS,2020-0188,2021-09-27,15:06:36,16:04:04,NA,incomplete,false,true,NA,8,1,origin,m_s_011.jpg,right,natural,manmade,NA,NA,NA,right,1333,true,NA,NA,NA,NA,NA
jqKePArS,NA,NA,jqKePArS,2020-0188,2021-09-27,15:06:36,16:04:04,NA,incomplete,false,true,NA,8,2,origin,n_l_020.jpg,right,manmade,natural,NA,NA,NA,right,1074,true,NA,NA,NA,NA,NA
jqKePArS,NA,NA,jqKePArS,2020-0188,2021-09-27,15:06:36,16:04:04,NA,incomplete,false,true,NA,8,3,origin,m_s_015.jpg,left,manmade,natural,NA,NA,NA,left,1261,true,NA,NA,NA,NA,NA
jqKePArS,NA,NA,jqKePArS,2020-0188,2021-09-27,15:06:36,16:04:04,NA,incomplete,false,true,NA,8,4,origin,n_s_021.jpg,left,natural,manmade,NA,NA,NA,left,965,true,NA,NA,NA,NA,NA
jqKePArS,NA,NA,jqKePArS,2020-0188,2021-09-27,15:06:36,16:04:04,NA,incomplete,false,true,NA,8,5,size,m_s_003.jpg,right,large,small,NA,NA,NA,right,1442,true,NA,NA,NA,NA,NA
jqKePArS,NA,NA,jqKePArS,2020-0188,2021-09-27,15:06:36,16:04:04,NA,incomplete,false,true,NA,8,6,size,n_s_022.jpg,right,large,small,NA,NA,NA,right,1456,true,NA,NA,NA,NA,NA
jqKePArS,NA,NA,jqKePArS,2020-0188,2021-09-27,15:06:36,16:04:04,NA,incomplete,false,true,NA,8,7,size,n_s_020.jpg,right,large,small,NA,NA,NA,right,1085,true,NA,NA,NA,NA,NA
jqKePArS,NA,NA,jqKePArS,2020-0188,2021-09-27,15:06:36,16:04:04,NA,incomplete,false,true,NA,8,8,size,n_s_010.jpg,right,large,small,NA,NA,NA,right,932,true,NA,NA,NA,NA,NA
jqKePArS,NA,NA,jqKePArS,2020-0188,2021-09-27,15:06:36,16:04:04,NA,incomplete,false,true,NA,8,9,size,n_s_008.jpg,right,large,small,NA,NA,NA,right,1298.99999999953,true,NA,NA,NA,NA,NA
jqKePArS,NA,NA,jqKePArS,2020-0188,2021-09-27,15:06:36,16:04:04,NA,incomplete,false,true,NA,8,10,building,o_c_020.jpg,left,cottage,skyscraper,NA,NA,NA,left,1130,true,NA,NA,NA,NA,NA
jqKePArS,NA,NA,jqKePArS,2020-0188,2021-09-27,15:06:36,16:04:04,NA,incomplete,false,true,NA,8,11,building,i_s_006.jpg,right,cottage,skyscraper,NA,NA,NA,right,1065,true,NA,NA,NA,NA,NA
jqKePArS,NA,NA,jqKePArS,2020-0188,2021-09-27,15:06:36,16:04:04,NA,incomplete,false,true,NA,8,12,building,i_s_022.jpg,left,skyscraper,cottage,NA,NA,NA,left,1353,true,NA,NA,NA,NA,NA
jqKePArS,NA,NA,jqKePArS,2020-0188,2021-09-27,15:06:36,16:04:04,NA,incomplete,false,true,NA,8,13,building,o_s_008.jpg,left,skyscraper,cottage,NA,NA,NA,left,1060,true,NA,NA,NA,NA,NA
jqKePArS,NA,NA,jqKePArS,2020-0188,2021-09-27,15:06:36,16:04:04,NA,incomplete,false,true,NA,8,14,building,o_c_005.jpg,left,cottage,skyscraper,NA,NA,NA,left,1546,true,NA,NA,NA,NA,NA
jqKePArS,NA,NA,jqKePArS,2020-0188,2021-09-27,15:06:36,16:04:04,NA,incomplete,false,true,NA,8,15,location,o_s_028.jpg,left,outdoor,indoor,NA,NA,NA,left,1795,true,NA,NA,NA,NA,NA
jqKePArS,NA,NA,jqKePArS,2020-0188,2021-09-27,15:06:36,16:04:04,NA,incomplete,false,true,NA,8,16,location,o_s_013.jpg,right,indoor,outdoor,NA,NA,NA,right,1149.99999999953,true,NA,NA,NA,NA,NA
jqKePArS,NA,NA,jqKePArS,2020-0188,2021-09-27,15:06:36,16:04:04,NA,incomplete,false,true,NA,8,17,location,i_s_024.jpg,right,outdoor,indoor,NA,NA,NA,right,1355,true,NA,NA,NA,NA,NA
jqKePArS,NA,NA,jqKePArS,2020-0188,2021-09-27,15:06:36,16:04:04,NA,incomplete,false,true,NA,8,18,location,o_c_010.jpg,left,outdoor,indoor,NA,NA,NA,left,1064,true,NA,NA,NA,NA,NA
jqKePArS,NA,NA,jqKePArS,2020-0188,2021-09-27,15:06:36,16:04:04,NA,incomplete,false,true,NA,8,19,location,o_s_027.jpg,left,outdoor,indoor,NA,NA,NA,left,1547,true,NA,NA,NA,NA,NA
jqKePArS,NA,NA,jqKePArS,2020-0188,2021-09-27,15:06:36,16:04:04,NA,incomplete,false,true,NA,8,20,syllable,a_2_020.jpg,right,2 syllables,1 syllable,NA,NA,NA,left,1947,false,NA,NA,NA,NA,NA
jqKePArS,NA,NA,jqKePArS,2020-0188,2021-09-27,15:06:36,16:04:04,NA,incomplete,false,true,NA,8,21,syllable,c_2_003.jpg,right,2 syllables,1 syllable,NA,NA,NA,left,1200,false,NA,NA,NA,NA,NA
jqKePArS,NA,NA,jqKePArS,2020-0188,2021-09-27,15:06:36,16:04:04,NA,incomplete,false,true,NA,8,22,syllable,a_1_020.jpg,right,2 syllables,1 syllable,NA,NA,NA,right,974,true,NA,NA,NA,NA,NA
jqKePArS,NA,NA,jqKePArS,2020-0188,2021-09-27,15:06:36,16:04:04,NA,incomplete,false,true,NA,8,23,syllable,c_2_026.jpg,right,2 syllables,1 syllable,NA,NA,NA,left,953,false,NA,NA,NA,NA,NA
jqKePArS,NA,NA,jqKePArS,2020-0188,2021-09-27,15:06:36,16:04:04,NA,incomplete,false,true,NA,8,24,syllable,a_1_015.jpg,right,2 syllables,1 syllable,NA,NA,NA,right,1697.99999999953,true,NA,NA,NA,NA,NA
jqKePArS,NA,NA,jqKePArS,2020-0188,2021-09-27,15:06:36,16:04:04,NA,incomplete,false,true,NA,8,25,abstractness,c_2_017.jpg,right,abstract,concrete,NA,NA,NA,right,3249,true,NA,NA,NA,NA,NA
jqKePArS,NA,NA,jqKePArS,2020-0188,2021-09-27,15:06:36,16:04:04,NA,incomplete,false,true,NA,8,26,abstractness,c_1_001.jpg,right,abstract,concrete,NA,NA,NA,right,1257,true,NA,NA,NA,NA,NA
jqKePArS,NA,NA,jqKePArS,2020-0188,2021-09-27,15:06:36,16:04:04,NA,incomplete,false,true,NA,8,27,abstractness,c_1_028.jpg,right,abstract,concrete,NA,NA,NA,right,1375,true,NA,NA,NA,NA,NA
jqKePArS,NA,NA,jqKePArS,2020-0188,2021-09-27,15:06:36,16:04:04,NA,incomplete,false,true,NA,8,28,abstractness,c_2_027.jpg,left,concrete,abstract,NA,NA,NA,left,1331,true,NA,NA,NA,NA,NA
jqKePArS,NA,NA,jqKePArS,2020-0188,2021-09-27,15:06:36,16:04:04,NA,incomplete,false,true,NA,8,29,abstractness,c_2_002.jpg,right,abstract,concrete,NA,NA,NA,right,1586,true,NA,NA,NA,NA,NA
jqKePArS,NA,NA,jqKePArS,2020-0188,2021-09-27,15:06:36,16:04:04,NA,incomplete,false,NA,true,8,0,NA,NA,left,NA,NA,m_s_011.jpg,n_s_021.jpg,within,NA,NaN,NA,right,1767,0,3,986
jqKePArS,NA,NA,jqKePArS,2020-0188,2021-09-27,15:06:36,16:04:04,NA,incomplete,false,NA,true,8,1,NA,NA,left,NA,NA,o_c_020.jpg,o_s_008.jpg,within,NA,NaN,NA,right,499,0,3,853
jqKePArS,NA,NA,jqKePArS,2020-0188,2021-09-27,15:06:36,16:04:04,NA,incomplete,false,NA,true,8,2,NA,NA,right,NA,NA,c_2_003.jpg,o_c_010.jpg,between-big,NA,NaN,NA,right,557.0000000004657,1,3,901.0000000004657
jqKePArS,NA,NA,jqKePArS,2020-0188,2021-09-27,15:06:36,16:04:04,NA,incomplete,false,NA,true,8,3,NA,NA,right,NA,NA,m_s_003.jpg,n_l_020.jpg,between-small,NA,NaN,NA,right,611,1,3,1308
jqKePArS,NA,NA,jqKePArS,2020-0188,2021-09-27,15:06:36,16:04:04,NA,incomplete,false,NA,true,8,4,NA,NA,right,NA,NA,c_2_017.jpg,a_1_020.jpg,between-small,NA,NaN,NA,right,596,1,3,961
jqKePArS,NA,NA,jqKePArS,2020-0188,2021-09-27,15:06:36,16:04:04,NA,incomplete,false,NA,true,8,5,NA,NA,right,NA,NA,i_s_022.jpg,n_s_008.jpg,between-big,NA,NaN,NA,right,486.99999999953434,1,3,1044
jqKePArS,NA,NA,jqKePArS,2020-0188,2021-09-27,15:06:36,16:04:04,NA,incomplete,false,NA,true,8,6,NA,NA,left,NA,NA,i_s_024.jpg,a_2_020.jpg,between-big,NA,NaN,NA,right,439,0,3,1085
jqKePArS,NA,NA,jqKePArS,2020-0188,2021-09-27,15:06:36,16:04:04,NA,incomplete,false,NA,true,8,7,NA,NA,right,NA,NA,c_1_028.jpg,a_1_015.jpg,between-small,NA,NaN,NA,right,541,1,3,897.9999999995343
jqKePArS,NA,NA,jqKePArS,2020-0188,2021-09-27,15:06:36,16:04:04,NA,incomplete,false,NA,true,8,8,NA,NA,left,NA,NA,o_s_027.jpg,a_1_020.jpg,between-big,NA,NaN,NA,right,504.99999999953434,0,3,1038
jqKePArS,NA,NA,jqKePArS,2020-0188,2021-09-27,15:06:36,16:04:04,NA,incomplete,false,NA,true,8,9,NA,NA,right,NA,NA,o_c_020.jpg,n_s_020.jpg,between-big,NA,NaN,NA,right,495,1,3,947
jqKePArS,NA,NA,jqKePArS,2020-0188,2021-09-27,15:06:36,16:04:04,NA,incomplete,false,NA,true,8,10,NA,NA,right,NA,NA,o_s_028.jpg,i_s_022.jpg,between-small,NA,NaN,NA,right,449.99999999953434,1,3,963
jqKePArS,NA,NA,jqKePArS,2020-0188,2021-09-27,15:06:36,16:04:04,NA,incomplete,false,NA,true,8,11,NA,NA,right,NA,NA,n_s_010.jpg,m_s_003.jpg,within,NA,NaN,NA,right,514.0000000004657,1,3,986
jqKePArS,NA,NA,jqKePArS,2020-0188,2021-09-27,15:06:36,16:04:04,NA,incomplete,false,NA,true,8,12,NA,NA,left,NA,NA,o_s_008.jpg,o_s_013.jpg,between-small,NA,NaN,NA,right,463,0,3,888
jqKePArS,NA,NA,jqKePArS,2020-0188,2021-09-27,15:06:36,16:04:04,NA,incomplete,false,NA,true,8,13,NA,NA,left,NA,NA,o_c_005.jpg,i_s_024.jpg,between-small,NA,NaN,NA,right,537,0,3,932
jqKePArS,NA,NA,jqKePArS,2020-0188,2021-09-27,15:06:36,16:04:04,NA,incomplete,false,NA,true,8,14,NA,NA,right,NA,NA,c_2_026.jpg,a_2_020.jpg,within,NA,NaN,NA,right,504,1,3,978
jqKePArS,NA,NA,jqKePArS,2020-0188,2021-09-27,15:06:36,16:04:04,NA,incomplete,false,NA,true,8,15,NA,NA,right,NA,NA,o_s_027.jpg,o_s_013.jpg,within,NA,NaN,NA,right,452,1,3,1908
jqKePArS,NA,NA,jqKePArS,2020-0188,2021-09-27,15:06:36,16:04:04,NA,incomplete,false,NA,true,8,16,NA,NA,right,NA,NA,m_s_015.jpg,n_l_014.jpg,within,NA,NaN,NA,right,601,1,3,1120
jqKePArS,NA,NA,jqKePArS,2020-0188,2021-09-27,15:06:36,16:04:04,NA,incomplete,false,NA,true,8,17,NA,NA,left,NA,NA,o_s_028.jpg,o_c_010.jpg,within,NA,NaN,NA,right,508,0,3,1187
jqKePArS,NA,NA,jqKePArS,2020-0188,2021-09-27,15:06:36,16:04:04,NA,incomplete,false,NA,true,8,18,NA,NA,left,NA,NA,c_2_003.jpg,a_1_015.jpg,within,NA,NaN,NA,right,554,0,3,967
jqKePArS,NA,NA,jqKePArS,2020-0188,2021-09-27,15:06:36,16:04:04,NA,incomplete,false,NA,true,8,19,NA,NA,right,NA,NA,c_2_002.jpg,c_1_001.jpg,within,NA,NaN,NA,right,541,1,3,1108
jqKePArS,NA,NA,jqKePArS,2020-0188,2021-09-27,15:06:36,16:04:04,NA,incomplete,false,NA,true,8,20,NA,NA,left,NA,NA,c_2_026.jpg,c_1_001.jpg,between-small,NA,NaN,NA,right,519,0,3,913
jqKePArS,NA,NA,jqKePArS,2020-0188,2021-09-27,15:06:36,16:04:04,NA,incomplete,false,NA,true,8,21,NA,NA,left,NA,NA,i_s_006.jpg,o_c_005.jpg,within,NA,NaN,NA,right,466,0,3,960
jqKePArS,NA,NA,jqKePArS,2020-0188,2021-09-27,15:06:36,16:04:04,NA,incomplete,false,NA,true,8,22,NA,NA,left,NA,NA,n_s_022.jpg,n_s_008.jpg,within,NA,NaN,NA,right,516,0,3,2762
jqKePArS,NA,NA,jqKePArS,2020-0188,2021-09-27,15:06:36,16:04:04,NA,incomplete,false,NA,true,8,23,NA,NA,left,NA,NA,m_s_015.jpg,n_s_022.jpg,between-small,NA,NaN,NA,right,576,0,3,1300
jqKePArS,NA,NA,jqKePArS,2020-0188,2021-09-27,15:06:36,16:04:04,NA,incomplete,false,NA,true,8,24,NA,NA,right,NA,NA,i_s_006.jpg,n_s_010.jpg,between-big,NA,NaN,NA,right,511,1,3,915
jqKePArS,NA,NA,jqKePArS,2020-0188,2021-09-27,15:06:36,16:04:04,NA,incomplete,false,NA,true,8,25,NA,NA,left,NA,NA,n_s_021.jpg,n_s_020.jpg,between-small,NA,NaN,NA,right,488.99999999953434,0,3,1010
jqKePArS,NA,NA,jqKePArS,2020-0188,2021-09-27,15:06:36,16:04:04,NA,incomplete,false,NA,true,8,26,NA,NA,right,NA,NA,c_2_027.jpg,c_2_017.jpg,within,NA,NaN,NA,right,1435,1,3,1050.9999999995343
jqKePArS,NA,NA,jqKePArS,2020-0188,2021-09-27,15:06:36,16:04:04,NA,incomplete,false,true,NA,9,0,location,i_c_010.jpg,left,indoor,outdoor,NA,NA,NA,left,1236,true,NA,NA,NA,NA,NA
jqKePArS,NA,NA,jqKePArS,2020-0188,2021-09-27,15:06:36,16:04:04,NA,incomplete,false,true,NA,9,1,location,o_c_014.jpg,right,indoor,outdoor,NA,NA,NA,right,1754,true,NA,NA,NA,NA,NA
jqKePArS,NA,NA,jqKePArS,2020-0188,2021-09-27,15:06:36,16:04:04,NA,incomplete,false,true,NA,9,2,location,o_s_014.jpg,right,indoor,outdoor,NA,NA,NA,right,1260,true,NA,NA,NA,NA,NA
jqKePArS,NA,NA,jqKePArS,2020-0188,2021-09-27,15:06:36,16:04:04,NA,incomplete,false,true,NA,9,3,location,i_c_002.jpg,left,indoor,outdoor,NA,NA,NA,left,967,true,NA,NA,NA,NA,NA
jqKePArS,NA,NA,jqKePArS,2020-0188,2021-09-27,15:06:36,16:04:04,NA,incomplete,false,true,NA,9,4,location,i_s_005.jpg,left,indoor,outdoor,NA,NA,NA,left,1089,true,NA,NA,NA,NA,NA
jqKePArS,NA,NA,jqKePArS,2020-0188,2021-09-27,15:06:36,16:04:04,NA,incomplete,false,true,NA,9,5,building,o_s_024.jpg,right,cottage,skyscraper,NA,NA,NA,right,1074.00000000047,true,NA,NA,NA,NA,NA
jqKePArS,NA,NA,jqKePArS,2020-0188,2021-09-27,15:06:36,16:04:04,NA,incomplete,false,true,NA,9,6,building,o_s_023.jpg,right,cottage,skyscraper,NA,NA,NA,right,1260,true,NA,NA,NA,NA,NA
jqKePArS,NA,NA,jqKePArS,2020-0188,2021-09-27,15:06:36,16:04:04,NA,incomplete,false,true,NA,9,7,building,i_s_021.jpg,right,cottage,skyscraper,NA,NA,NA,right,1805,true,NA,NA,NA,NA,NA
jqKePArS,NA,NA,jqKePArS,2020-0188,2021-09-27,15:06:36,16:04:04,NA,incomplete,false,true,NA,9,8,building,i_c_008.jpg,right,skyscraper,cottage,NA,NA,NA,left,969,false,NA,NA,NA,NA,NA
jqKePArS,NA,NA,jqKePArS,2020-0188,2021-09-27,15:06:36,16:04:04,NA,incomplete,false,true,NA,9,9,building,i_c_018.jpg,right,skyscraper,cottage,NA,NA,NA,right,1097.00000000047,true,NA,NA,NA,NA,NA
jqKePArS,NA,NA,jqKePArS,2020-0188,2021-09-27,15:06:36,16:04:04,NA,incomplete,false,true,NA,9,10,origin,n_l_012.jpg,right,manmade,natural,NA,NA,NA,left,1359.99999999953,false,NA,NA,NA,NA,NA
jqKePArS,NA,NA,jqKePArS,2020-0188,2021-09-27,15:06:36,16:04:04,NA,incomplete,false,true,NA,9,11,origin,m_l_005.jpg,right,natural,manmade,NA,NA,NA,right,1359,true,NA,NA,NA,NA,NA
jqKePArS,NA,NA,jqKePArS,2020-0188,2021-09-27,15:06:36,16:04:04,NA,incomplete,false,true,NA,9,12,origin,n_l_013.jpg,right,manmade,natural,NA,NA,NA,right,1135,true,NA,NA,NA,NA,NA
jqKePArS,NA,NA,jqKePArS,2020-0188,2021-09-27,15:06:36,16:04:04,NA,incomplete,false,true,NA,9,13,origin,m_s_022.jpg,right,natural,manmade,NA,NA,NA,right,1558,true,NA,NA,NA,NA,NA
jqKePArS,NA,NA,jqKePArS,2020-0188,2021-09-27,15:06:36,16:04:04,NA,incomplete,false,true,NA,9,14,origin,n_s_007.jpg,right,manmade,natural,NA,NA,NA,right,1058,true,NA,NA,NA,NA,NA
jqKePArS,NA,NA,jqKePArS,2020-0188,2021-09-27,15:06:36,16:04:04,NA,incomplete,false,true,NA,9,15,size,n_s_005.jpg,right,large,small,NA,NA,NA,right,1351,true,NA,NA,NA,NA,NA
jqKePArS,NA,NA,jqKePArS,2020-0188,2021-09-27,15:06:36,16:04:04,NA,incomplete,false,true,NA,9,16,size,n_l_011.jpg,right,small,large,NA,NA,NA,right,1020,true,NA,NA,NA,NA,NA
jqKePArS,NA,NA,jqKePArS,2020-0188,2021-09-27,15:06:36,16:04:04,NA,incomplete,false,true,NA,9,17,size,m_s_014.jpg,right,large,small,NA,NA,NA,right,1651,true,NA,NA,NA,NA,NA
jqKePArS,NA,NA,jqKePArS,2020-0188,2021-09-27,15:06:36,16:04:04,NA,incomplete,false,true,NA,9,18,size,n_s_012.jpg,right,large,small,NA,NA,NA,right,1233,true,NA,NA,NA,NA,NA
jqKePArS,NA,NA,jqKePArS,2020-0188,2021-09-27,15:06:36,16:04:04,NA,incomplete,false,true,NA,9,19,size,m_s_012.jpg,left,small,large,NA,NA,NA,left,1155.99999999953,true,NA,NA,NA,NA,NA
jqKePArS,NA,NA,jqKePArS,2020-0188,2021-09-27,15:06:36,16:04:04,NA,incomplete,false,true,NA,9,20,syllable,a_1_018.jpg,right,1 syllable,2 syllables,NA,NA,NA,left,1683,false,NA,NA,NA,NA,NA
jqKePArS,NA,NA,jqKePArS,2020-0188,2021-09-27,15:06:36,16:04:04,NA,incomplete,false,true,NA,9,21,syllable,c_2_022.jpg,right,2 syllables,1 syllable,NA,NA,NA,left,3195,false,NA,NA,NA,NA,NA
jqKePArS,NA,NA,jqKePArS,2020-0188,2021-09-27,15:06:36,16:04:04,NA,incomplete,false,true,NA,9,22,syllable,c_2_021.jpg,right,1 syllable,2 syllables,NA,NA,NA,right,1158,true,NA,NA,NA,NA,NA
jqKePArS,NA,NA,jqKePArS,2020-0188,2021-09-27,15:06:36,16:04:04,NA,incomplete,false,true,NA,9,23,syllable,a_2_017.jpg,right,2 syllables,1 syllable,NA,NA,NA,right,2852,true,NA,NA,NA,NA,NA
jqKePArS,NA,NA,jqKePArS,2020-0188,2021-09-27,15:06:36,16:04:04,NA,incomplete,false,true,NA,9,24,syllable,a_1_022.jpg,right,2 syllables,1 syllable,NA,NA,NA,right,1971,true,NA,NA,NA,NA,NA
jqKePArS,NA,NA,jqKePArS,2020-0188,2021-09-27,15:06:36,16:04:04,NA,incomplete,false,true,NA,9,25,abstractness,a_2_006.jpg,left,abstract,concrete,NA,NA,NA,right,2752,false,NA,NA,NA,NA,NA
jqKePArS,NA,NA,jqKePArS,2020-0188,2021-09-27,15:06:36,16:04:04,NA,incomplete,false,true,NA,9,26,abstractness,c_1_024.jpg,left,concrete,abstract,NA,NA,NA,left,1825,true,NA,NA,NA,NA,NA
jqKePArS,NA,NA,jqKePArS,2020-0188,2021-09-27,15:06:36,16:04:04,NA,incomplete,false,true,NA,9,27,abstractness,c_2_012.jpg,right,abstract,concrete,NA,NA,NA,right,1911,true,NA,NA,NA,NA,NA
jqKePArS,NA,NA,jqKePArS,2020-0188,2021-09-27,15:06:36,16:04:04,NA,incomplete,false,true,NA,9,28,abstractness,c_2_007.jpg,left,concrete,abstract,NA,NA,NA,left,1291.00000000047,true,NA,NA,NA,NA,NA
jqKePArS,NA,NA,jqKePArS,2020-0188,2021-09-27,15:06:36,16:04:04,NA,incomplete,false,true,NA,9,29,abstractness,a_2_015.jpg,left,abstract,concrete,NA,NA,NA,right,1905,false,NA,NA,NA,NA,NA
jqKePArS,NA,NA,jqKePArS,2020-0188,2021-09-27,15:06:36,16:04:04,NA,incomplete,false,NA,true,9,0,NA,NA,right,NA,NA,i_s_021.jpg,i_s_005.jpg,between-small,NA,NaN,NA,right,498,1,3,1411
jqKePArS,NA,NA,jqKePArS,2020-0188,2021-09-27,15:06:36,16:04:04,NA,incomplete,false,NA,true,9,1,NA,NA,left,NA,NA,n_s_007.jpg,m_s_014.jpg,between-small,NA,NaN,NA,right,505.00000000046566,0,3,958
jqKePArS,NA,NA,jqKePArS,2020-0188,2021-09-27,15:06:36,16:04:04,NA,incomplete,false,NA,true,9,2,NA,NA,left,NA,NA,c_2_022.jpg,a_1_022.jpg,within,NA,NaN,NA,right,469,0,3,846.9999999995343
jqKePArS,NA,NA,jqKePArS,2020-0188,2021-09-27,15:06:36,16:04:04,NA,incomplete,false,NA,true,9,3,NA,NA,right,NA,NA,c_2_021.jpg,m_s_012.jpg,between-big,NA,NaN,NA,right,545,1,3,889.9999999995343
