workerId,hitId,assignmentId,subject,studyid,exp_date,exp_start,exp_end,time_start,time_end,practice,encoding,memory,block,trial,event,stim,answer,label_left,label_right,left_image,right_image,condition,response,response_time,response_acc,order_response,order_response_time,order_acc,distance_response,distance_response_time
kD6Jie5t,NA,NA,kD6Jie5t,2020-0188,2021-10-04,21:42:55,23:01:54,NA,incomplete,true,true,NA,0,0,abstractness,c_2_026.jpg,right,abstract,concrete,NA,NA,NA,right,2739.20000000112,true,NA,NA,NA,NA,NA
kD6Jie5t,NA,NA,kD6Jie5t,2020-0188,2021-10-04,21:42:55,23:01:54,NA,incomplete,true,true,NA,0,1,abstractness,c_2_025.jpg,left,concrete,abstract,NA,NA,NA,left,1392.69999999925,true,NA,NA,NA,NA,NA
kD6Jie5t,NA,NA,kD6Jie5t,2020-0188,2021-10-04,21:42:55,23:01:54,NA,incomplete,true,true,NA,0,2,abstractness,a_2_026.jpg,left,abstract,concrete,NA,NA,NA,left,2933,true,NA,NA,NA,NA,NA
kD6Jie5t,NA,NA,kD6Jie5t,2020-0188,2021-10-04,21:42:55,23:01:54,NA,incomplete,true,true,NA,0,3,abstractness,c_1_004.jpg,left,concrete,abstract,NA,NA,NA,left,1273.79999999888,true,NA,NA,NA,NA,NA
kD6Jie5t,NA,NA,kD6Jie5t,2020-0188,2021-10-04,21:42:55,23:01:54,NA,incomplete,true,true,NA,0,4,abstractness,a_1_014.jpg,left,abstract,concrete,NA,NA,NA,right,1850.40000000037,false,NA,NA,NA,NA,NA
kD6Jie5t,NA,NA,kD6Jie5t,2020-0188,2021-10-04,21:42:55,23:01:54,NA,incomplete,true,true,NA,0,5,syllable,a_2_011.jpg,right,1 syllable,2 syllables,NA,NA,NA,none,0,false,NA,NA,NA,NA,NA
kD6Jie5t,NA,NA,kD6Jie5t,2020-0188,2021-10-04,21:42:55,23:01:54,NA,incomplete,true,true,NA,0,6,syllable,a_1_015.jpg,right,2 syllables,1 syllable,NA,NA,NA,right,2138.89999999851,true,NA,NA,NA,NA,NA
kD6Jie5t,NA,NA,kD6Jie5t,2020-0188,2021-10-04,21:42:55,23:01:54,NA,incomplete,true,true,NA,0,7,syllable,c_1_018.jpg,right,2 syllables,1 syllable,NA,NA,NA,left,2195.5,false,NA,NA,NA,NA,NA
kD6Jie5t,NA,NA,kD6Jie5t,2020-0188,2021-10-04,21:42:55,23:01:54,NA,incomplete,true,true,NA,0,8,syllable,a_1_008.jpg,right,1 syllable,2 syllables,NA,NA,NA,left,2239.80000000075,false,NA,NA,NA,NA,NA
kD6Jie5t,NA,NA,kD6Jie5t,2020-0188,2021-10-04,21:42:55,23:01:54,NA,incomplete,true,true,NA,0,9,syllable,c_2_020.jpg,right,1 syllable,2 syllables,NA,NA,NA,none,0,false,NA,NA,NA,NA,NA
kD6Jie5t,NA,NA,kD6Jie5t,2020-0188,2021-10-04,21:42:55,23:01:54,NA,incomplete,true,true,NA,0,10,origin,n_s_016.jpg,right,manmade,natural,NA,NA,NA,right,2175.30000000075,true,NA,NA,NA,NA,NA
kD6Jie5t,NA,NA,kD6Jie5t,2020-0188,2021-10-04,21:42:55,23:01:54,NA,incomplete,true,true,NA,0,11,origin,n_s_021.jpg,right,manmade,natural,NA,NA,NA,right,1072.90000000037,true,NA,NA,NA,NA,NA
kD6Jie5t,NA,NA,kD6Jie5t,2020-0188,2021-10-04,21:42:55,23:01:54,NA,incomplete,true,true,NA,0,12,origin,m_s_017.jpg,right,natural,manmade,NA,NA,NA,right,1053.79999999888,true,NA,NA,NA,NA,NA
kD6Jie5t,NA,NA,kD6Jie5t,2020-0188,2021-10-04,21:42:55,23:01:54,NA,incomplete,true,true,NA,0,13,origin,n_l_014.jpg,right,manmade,natural,NA,NA,NA,right,986.099999999627,true,NA,NA,NA,NA,NA
kD6Jie5t,NA,NA,kD6Jie5t,2020-0188,2021-10-04,21:42:55,23:01:54,NA,incomplete,true,true,NA,0,14,origin,m_l_001.jpg,left,manmade,natural,NA,NA,NA,left,1126.79999999888,true,NA,NA,NA,NA,NA
kD6Jie5t,NA,NA,kD6Jie5t,2020-0188,2021-10-04,21:42:55,23:01:54,NA,incomplete,true,true,NA,0,15,size,n_s_025.jpg,left,small,large,NA,NA,NA,left,2089,true,NA,NA,NA,NA,NA
kD6Jie5t,NA,NA,kD6Jie5t,2020-0188,2021-10-04,21:42:55,23:01:54,NA,incomplete,true,true,NA,0,16,size,n_l_027.jpg,left,large,small,NA,NA,NA,left,1734.29999999888,true,NA,NA,NA,NA,NA
kD6Jie5t,NA,NA,kD6Jie5t,2020-0188,2021-10-04,21:42:55,23:01:54,NA,incomplete,true,true,NA,0,17,size,m_s_018.jpg,right,large,small,NA,NA,NA,right,2291.19999999925,true,NA,NA,NA,NA,NA
kD6Jie5t,NA,NA,kD6Jie5t,2020-0188,2021-10-04,21:42:55,23:01:54,NA,incomplete,true,true,NA,0,18,size,m_s_002.jpg,left,small,large,NA,NA,NA,left,1330.90000000037,true,NA,NA,NA,NA,NA
kD6Jie5t,NA,NA,kD6Jie5t,2020-0188,2021-10-04,21:42:55,23:01:54,NA,incomplete,true,true,NA,0,19,size,m_s_008.jpg,left,small,large,NA,NA,NA,left,1076.90000000037,true,NA,NA,NA,NA,NA
kD6Jie5t,NA,NA,kD6Jie5t,2020-0188,2021-10-04,21:42:55,23:01:54,NA,incomplete,true,true,NA,0,20,building,i_c_007.jpg,right,skyscraper,cottage,NA,NA,NA,right,1467.80000000075,true,NA,NA,NA,NA,NA
kD6Jie5t,NA,NA,kD6Jie5t,2020-0188,2021-10-04,21:42:55,23:01:54,NA,incomplete,true,true,NA,0,21,building,o_s_014.jpg,left,skyscraper,cottage,NA,NA,NA,left,1839.40000000037,true,NA,NA,NA,NA,NA
kD6Jie5t,NA,NA,kD6Jie5t,2020-0188,2021-10-04,21:42:55,23:01:54,NA,incomplete,true,true,NA,0,22,building,i_c_016.jpg,left,cottage,skyscraper,NA,NA,NA,left,1250,true,NA,NA,NA,NA,NA
kD6Jie5t,NA,NA,kD6Jie5t,2020-0188,2021-10-04,21:42:55,23:01:54,NA,incomplete,true,true,NA,0,23,building,i_s_008.jpg,right,cottage,skyscraper,NA,NA,NA,right,1099,true,NA,NA,NA,NA,NA
kD6Jie5t,NA,NA,kD6Jie5t,2020-0188,2021-10-04,21:42:55,23:01:54,NA,incomplete,true,true,NA,0,24,building,i_c_001.jpg,right,skyscraper,cottage,NA,NA,NA,right,1231.5,true,NA,NA,NA,NA,NA
kD6Jie5t,NA,NA,kD6Jie5t,2020-0188,2021-10-04,21:42:55,23:01:54,NA,incomplete,true,true,NA,0,25,location,o_c_015.jpg,right,indoor,outdoor,NA,NA,NA,right,2251,true,NA,NA,NA,NA,NA
kD6Jie5t,NA,NA,kD6Jie5t,2020-0188,2021-10-04,21:42:55,23:01:54,NA,incomplete,true,true,NA,0,26,location,o_c_006.jpg,left,outdoor,indoor,NA,NA,NA,left,1350.29999999888,true,NA,NA,NA,NA,NA
kD6Jie5t,NA,NA,kD6Jie5t,2020-0188,2021-10-04,21:42:55,23:01:54,NA,incomplete,true,true,NA,0,27,location,i_c_004.jpg,right,outdoor,indoor,NA,NA,NA,right,1239.69999999925,true,NA,NA,NA,NA,NA
kD6Jie5t,NA,NA,kD6Jie5t,2020-0188,2021-10-04,21:42:55,23:01:54,NA,incomplete,true,true,NA,0,28,location,i_s_022.jpg,left,indoor,outdoor,NA,NA,NA,left,2269.09999999963,true,NA,NA,NA,NA,NA
kD6Jie5t,NA,NA,kD6Jie5t,2020-0188,2021-10-04,21:42:55,23:01:54,NA,incomplete,true,true,NA,0,29,location,i_s_010.jpg,left,indoor,outdoor,NA,NA,NA,left,1110.5,true,NA,NA,NA,NA,NA
kD6Jie5t,NA,NA,kD6Jie5t,2020-0188,2021-10-04,21:42:55,23:01:54,NA,incomplete,true,NA,true,0,0,NA,NA,right,NA,NA,i_c_016.jpg,m_s_008.jpg,between-big,NA,NaN,NA,right,12298.699999999255,1,2,3360.2999999988824
kD6Jie5t,NA,NA,kD6Jie5t,2020-0188,2021-10-04,21:42:55,23:01:54,NA,incomplete,true,NA,true,0,1,NA,NA,right,NA,NA,n_s_016.jpg,c_1_018.jpg,between-big,NA,NaN,NA,left,3463.89999999851,0,1,1791.3999999985099
kD6Jie5t,NA,NA,kD6Jie5t,2020-0188,2021-10-04,21:42:55,23:01:54,NA,incomplete,true,NA,true,0,2,NA,NA,right,NA,NA,a_1_014.jpg,c_2_025.jpg,within,NA,NaN,NA,right,13844,1,0,2030.199999999255
kD6Jie5t,NA,NA,kD6Jie5t,2020-0188,2021-10-04,21:42:55,23:01:54,NA,incomplete,true,NA,true,0,3,NA,NA,right,NA,NA,n_s_021.jpg,a_1_008.jpg,between-big,NA,NaN,NA,left,3306.39999999851,0,1,1826.0999999996275
kD6Jie5t,NA,NA,kD6Jie5t,2020-0188,2021-10-04,21:42:55,23:01:54,NA,incomplete,true,NA,true,0,4,NA,NA,right,NA,NA,n_l_027.jpg,n_l_014.jpg,between-small,NA,NaN,NA,right,2116.5999999996275,1,2,1953.5
kD6Jie5t,NA,NA,kD6Jie5t,2020-0188,2021-10-04,21:42:55,23:01:54,NA,incomplete,true,NA,true,0,5,NA,NA,right,NA,NA,i_c_004.jpg,i_c_001.jpg,between-small,NA,NaN,NA,right,4209.10000000149,1,2,2167.4000000003725
kD6Jie5t,NA,NA,kD6Jie5t,2020-0188,2021-10-04,21:42:55,23:01:54,NA,incomplete,true,NA,true,0,6,NA,NA,left,NA,NA,c_1_004.jpg,a_1_015.jpg,between-small,NA,NaN,NA,right,5084.699999999255,0,1,2422.0999999996275
kD6Jie5t,NA,NA,kD6Jie5t,2020-0188,2021-10-04,21:42:55,23:01:54,NA,incomplete,true,NA,true,0,7,NA,NA,left,NA,NA,a_1_015.jpg,c_2_020.jpg,within,NA,NaN,NA,right,2440.0999999996275,0,2,5583.5
kD6Jie5t,NA,NA,kD6Jie5t,2020-0188,2021-10-04,21:42:55,23:01:54,NA,incomplete,true,NA,true,0,8,NA,NA,left,NA,NA,n_s_021.jpg,m_l_001.jpg,within,NA,NaN,NA,right,1667.800000000745,0,2,2572.4000000003725
kD6Jie5t,NA,NA,kD6Jie5t,2020-0188,2021-10-04,21:42:55,23:01:54,NA,incomplete,true,NA,true,0,9,NA,NA,right,NA,NA,a_1_008.jpg,a_2_011.jpg,within,NA,NaN,NA,left,2988.4000000003725,0,2,1546.7999999988824
kD6Jie5t,NA,NA,kD6Jie5t,2020-0188,2021-10-04,21:42:55,23:01:54,NA,incomplete,true,NA,true,0,10,NA,NA,right,NA,NA,m_s_002.jpg,n_s_025.jpg,within,NA,NaN,NA,right,2817.9000000003725,1,1,2865.300000000745
kD6Jie5t,NA,NA,kD6Jie5t,2020-0188,2021-10-04,21:42:55,23:01:54,NA,incomplete,true,NA,true,0,11,NA,NA,left,NA,NA,n_s_016.jpg,n_l_014.jpg,within,NA,NaN,NA,left,6037.800000000745,1,2,2325.4000000003725
kD6Jie5t,NA,NA,kD6Jie5t,2020-0188,2021-10-04,21:42:55,23:01:54,NA,incomplete,true,NA,true,0,12,NA,NA,left,NA,NA,c_2_020.jpg,m_s_017.jpg,between-big,NA,NaN,NA,left,3643.10000000149,1,2,807.4000000003725
kD6Jie5t,NA,NA,kD6Jie5t,2020-0188,2021-10-04,21:42:55,23:01:54,NA,incomplete,true,NA,true,0,13,NA,NA,right,NA,NA,i_s_008.jpg,i_c_007.jpg,within,NA,NaN,NA,right,3050.7000000011176,1,1,5081.4000000003725
kD6Jie5t,NA,NA,kD6Jie5t,2020-0188,2021-10-04,21:42:55,23:01:54,NA,incomplete,true,NA,true,0,14,NA,NA,right,NA,NA,o_c_006.jpg,i_s_008.jpg,between-small,NA,NaN,NA,right,6391.5,1,2,1685.199999999255
kD6Jie5t,NA,NA,kD6Jie5t,2020-0188,2021-10-04,21:42:55,23:01:54,NA,incomplete,true,NA,true,0,15,NA,NA,left,NA,NA,a_1_014.jpg,c_1_018.jpg,between-small,NA,NaN,NA,right,2690.800000000745,0,2,4063.5
kD6Jie5t,NA,NA,kD6Jie5t,2020-0188,2021-10-04,21:42:55,23:01:54,NA,incomplete,true,NA,true,0,16,NA,NA,left,NA,NA,m_s_017.jpg,n_s_025.jpg,between-small,NA,NaN,NA,right,1525.5,0,3,2552.5999999996275
kD6Jie5t,NA,NA,kD6Jie5t,2020-0188,2021-10-04,21:42:55,23:01:54,NA,incomplete,true,NA,true,0,17,NA,NA,left,NA,NA,n_l_027.jpg,m_s_008.jpg,within,NA,NaN,NA,right,1920.7999999988824,0,3,3014.199999999255
kD6Jie5t,NA,NA,kD6Jie5t,2020-0188,2021-10-04,21:42:55,23:01:54,NA,incomplete,true,NA,true,0,18,NA,NA,left,NA,NA,m_l_001.jpg,m_s_018.jpg,between-small,NA,NaN,NA,right,4643.5,0,2,2870.4000000003725
kD6Jie5t,NA,NA,kD6Jie5t,2020-0188,2021-10-04,21:42:55,23:01:54,NA,incomplete,true,NA,true,0,19,NA,NA,left,NA,NA,a_2_026.jpg,a_2_011.jpg,between-small,NA,NaN,NA,left,4654.699999999255,1,1,2154.199999999255
kD6Jie5t,NA,NA,kD6Jie5t,2020-0188,2021-10-04,21:42:55,23:01:54,NA,incomplete,true,NA,true,0,20,NA,NA,left,NA,NA,o_c_006.jpg,i_s_010.jpg,within,NA,NaN,NA,left,9891,1,1,1771.5999999996275
kD6Jie5t,NA,NA,kD6Jie5t,2020-0188,2021-10-04,21:42:55,23:01:54,NA,incomplete,true,NA,true,0,21,NA,NA,right,NA,NA,i_c_007.jpg,m_s_018.jpg,between-big,NA,NaN,NA,right,2335,1,2,1484.7999999988824
kD6Jie5t,NA,NA,kD6Jie5t,2020-0188,2021-10-04,21:42:55,23:01:54,NA,incomplete,true,NA,true,0,22,NA,NA,right,NA,NA,o_s_014.jpg,m_s_002.jpg,between-big,NA,NaN,NA,right,3392.699999999255,1,3,3127.5
kD6Jie5t,NA,NA,kD6Jie5t,2020-0188,2021-10-04,21:42:55,23:01:54,NA,incomplete,true,NA,true,0,23,NA,NA,left,NA,NA,c_2_026.jpg,c_1_004.jpg,within,NA,NaN,NA,right,1868.7999999988824,0,2,1003.5999999996275
kD6Jie5t,NA,NA,kD6Jie5t,2020-0188,2021-10-04,21:42:55,23:01:54,NA,incomplete,true,NA,true,0,24,NA,NA,left,NA,NA,i_c_016.jpg,o_c_015.jpg,between-small,NA,NaN,NA,left,4154.799999998882,1,2,2512.5
kD6Jie5t,NA,NA,kD6Jie5t,2020-0188,2021-10-04,21:42:55,23:01:54,NA,incomplete,true,NA,true,0,25,NA,NA,right,NA,NA,i_s_022.jpg,o_c_015.jpg,within,NA,NaN,NA,right,2483.7000000011176,1,0,1874.699999999255
kD6Jie5t,NA,NA,kD6Jie5t,2020-0188,2021-10-04,21:42:55,23:01:54,NA,incomplete,true,NA,true,0,26,NA,NA,right,NA,NA,i_c_001.jpg,o_s_014.jpg,within,NA,NaN,NA,left,2000,0,2,2714.4000000003725
kD6Jie5t,NA,NA,kD6Jie5t,2020-0188,2021-10-04,21:42:55,23:01:54,NA,incomplete,false,true,NA,1,0,origin,n_l_018.jpg,right,manmade,natural,NA,NA,NA,right,1902.59999999963,true,NA,NA,NA,NA,NA
kD6Jie5t,NA,NA,kD6Jie5t,2020-0188,2021-10-04,21:42:55,23:01:54,NA,incomplete,false,true,NA,1,1,origin,m_l_004.jpg,left,manmade,natural,NA,NA,NA,left,1006,true,NA,NA,NA,NA,NA
kD6Jie5t,NA,NA,kD6Jie5t,2020-0188,2021-10-04,21:42:55,23:01:54,NA,incomplete,false,true,NA,1,2,origin,m_s_009.jpg,right,natural,manmade,NA,NA,NA,right,1290.90000000037,true,NA,NA,NA,NA,NA
kD6Jie5t,NA,NA,kD6Jie5t,2020-0188,2021-10-04,21:42:55,23:01:54,NA,incomplete,false,true,NA,1,3,origin,n_l_008.jpg,right,manmade,natural,NA,NA,NA,left,1363.39999999851,false,NA,NA,NA,NA,NA
kD6Jie5t,NA,NA,kD6Jie5t,2020-0188,2021-10-04,21:42:55,23:01:54,NA,incomplete,false,true,NA,1,4,origin,n_s_003.jpg,right,manmade,natural,NA,NA,NA,right,2264,true,NA,NA,NA,NA,NA
kD6Jie5t,NA,NA,kD6Jie5t,2020-0188,2021-10-04,21:42:55,23:01:54,NA,incomplete,false,true,NA,1,5,size,m_l_022.jpg,right,small,large,NA,NA,NA,right,1924.29999999888,true,NA,NA,NA,NA,NA
kD6Jie5t,NA,NA,kD6Jie5t,2020-0188,2021-10-04,21:42:55,23:01:54,NA,incomplete,false,true,NA,1,6,size,m_l_006.jpg,right,small,large,NA,NA,NA,right,1728,true,NA,NA,NA,NA,NA
kD6Jie5t,NA,NA,kD6Jie5t,2020-0188,2021-10-04,21:42:55,23:01:54,NA,incomplete,false,true,NA,1,7,size,m_s_025.jpg,left,small,large,NA,NA,NA,left,1916.20000000112,true,NA,NA,NA,NA,NA
kD6Jie5t,NA,NA,kD6Jie5t,2020-0188,2021-10-04,21:42:55,23:01:54,NA,incomplete,false,true,NA,1,8,size,m_l_014.jpg,left,large,small,NA,NA,NA,left,1549,true,NA,NA,NA,NA,NA
kD6Jie5t,NA,NA,kD6Jie5t,2020-0188,2021-10-04,21:42:55,23:01:54,NA,incomplete,false,true,NA,1,9,size,n_l_019.jpg,left,large,small,NA,NA,NA,left,1035.09999999963,true,NA,NA,NA,NA,NA
kD6Jie5t,NA,NA,kD6Jie5t,2020-0188,2021-10-04,21:42:55,23:01:54,NA,incomplete,false,true,NA,1,10,building,o_s_008.jpg,left,skyscraper,cottage,NA,NA,NA,left,1349.30000000075,true,NA,NA,NA,NA,NA
kD6Jie5t,NA,NA,kD6Jie5t,2020-0188,2021-10-04,21:42:55,23:01:54,NA,incomplete,false,true,NA,1,11,building,i_c_013.jpg,right,skyscraper,cottage,NA,NA,NA,right,1319.20000000112,true,NA,NA,NA,NA,NA
kD6Jie5t,NA,NA,kD6Jie5t,2020-0188,2021-10-04,21:42:55,23:01:54,NA,incomplete,false,true,NA,1,12,building,o_c_009.jpg,left,cottage,skyscraper,NA,NA,NA,left,1271.5,true,NA,NA,NA,NA,NA
kD6Jie5t,NA,NA,kD6Jie5t,2020-0188,2021-10-04,21:42:55,23:01:54,NA,incomplete,false,true,NA,1,13,building,o_c_022.jpg,right,skyscraper,cottage,NA,NA,NA,right,1435.5,true,NA,NA,NA,NA,NA
kD6Jie5t,NA,NA,kD6Jie5t,2020-0188,2021-10-04,21:42:55,23:01:54,NA,incomplete,false,true,NA,1,14,building,i_c_023.jpg,right,skyscraper,cottage,NA,NA,NA,right,945.099999999627,true,NA,NA,NA,NA,NA
kD6Jie5t,NA,NA,kD6Jie5t,2020-0188,2021-10-04,21:42:55,23:01:54,NA,incomplete,false,true,NA,1,15,location,o_s_023.jpg,left,outdoor,indoor,NA,NA,NA,left,1582.40000000037,true,NA,NA,NA,NA,NA
kD6Jie5t,NA,NA,kD6Jie5t,2020-0188,2021-10-04,21:42:55,23:01:54,NA,incomplete,false,true,NA,1,16,location,i_c_018.jpg,right,outdoor,indoor,NA,NA,NA,right,1029,true,NA,NA,NA,NA,NA
kD6Jie5t,NA,NA,kD6Jie5t,2020-0188,2021-10-04,21:42:55,23:01:54,NA,incomplete,false,true,NA,1,17,location,o_s_007.jpg,left,outdoor,indoor,NA,NA,NA,left,1330.30000000075,true,NA,NA,NA,NA,NA
kD6Jie5t,NA,NA,kD6Jie5t,2020-0188,2021-10-04,21:42:55,23:01:54,NA,incomplete,false,true,NA,1,18,location,o_c_016.jpg,left,outdoor,indoor,NA,NA,NA,left,1941.30000000075,true,NA,NA,NA,NA,NA
kD6Jie5t,NA,NA,kD6Jie5t,2020-0188,2021-10-04,21:42:55,23:01:54,NA,incomplete,false,true,NA,1,19,location,i_s_012.jpg,right,outdoor,indoor,NA,NA,NA,right,1222.80000000075,true,NA,NA,NA,NA,NA
kD6Jie5t,NA,NA,kD6Jie5t,2020-0188,2021-10-04,21:42:55,23:01:54,NA,incomplete,false,true,NA,1,20,abstractness,a_2_025.jpg,right,concrete,abstract,NA,NA,NA,right,2268.40000000037,true,NA,NA,NA,NA,NA
kD6Jie5t,NA,NA,kD6Jie5t,2020-0188,2021-10-04,21:42:55,23:01:54,NA,incomplete,false,true,NA,1,21,abstractness,a_1_006.jpg,left,abstract,concrete,NA,NA,NA,left,1932.79999999888,true,NA,NA,NA,NA,NA
kD6Jie5t,NA,NA,kD6Jie5t,2020-0188,2021-10-04,21:42:55,23:01:54,NA,incomplete,false,true,NA,1,22,abstractness,c_1_013.jpg,left,concrete,abstract,NA,NA,NA,left,1922.90000000037,true,NA,NA,NA,NA,NA
kD6Jie5t,NA,NA,kD6Jie5t,2020-0188,2021-10-04,21:42:55,23:01:54,NA,incomplete,false,true,NA,1,23,abstractness,a_2_027.jpg,right,concrete,abstract,NA,NA,NA,right,1218,true,NA,NA,NA,NA,NA
kD6Jie5t,NA,NA,kD6Jie5t,2020-0188,2021-10-04,21:42:55,23:01:54,NA,incomplete,false,true,NA,1,24,abstractness,c_2_006.jpg,left,concrete,abstract,NA,NA,NA,left,1121.79999999888,true,NA,NA,NA,NA,NA
kD6Jie5t,NA,NA,kD6Jie5t,2020-0188,2021-10-04,21:42:55,23:01:54,NA,incomplete,false,true,NA,1,25,syllable,a_2_018.jpg,right,2 syllables,1 syllable,NA,NA,NA,right,3052.59999999963,true,NA,NA,NA,NA,NA
kD6Jie5t,NA,NA,kD6Jie5t,2020-0188,2021-10-04,21:42:55,23:01:54,NA,incomplete,false,true,NA,1,26,syllable,c_1_001.jpg,right,2 syllables,1 syllable,NA,NA,NA,right,1356.69999999925,true,NA,NA,NA,NA,NA
kD6Jie5t,NA,NA,kD6Jie5t,2020-0188,2021-10-04,21:42:55,23:01:54,NA,incomplete,false,true,NA,1,27,syllable,c_1_014.jpg,right,1 syllable,2 syllables,NA,NA,NA,left,1673.09999999963,false,NA,NA,NA,NA,NA
kD6Jie5t,NA,NA,kD6Jie5t,2020-0188,2021-10-04,21:42:55,23:01:54,NA,incomplete,false,true,NA,1,28,syllable,a_2_014.jpg,right,2 syllables,1 syllable,NA,NA,NA,left,1172.5,false,NA,NA,NA,NA,NA
kD6Jie5t,NA,NA,kD6Jie5t,2020-0188,2021-10-04,21:42:55,23:01:54,NA,incomplete,false,true,NA,1,29,syllable,c_1_026.jpg,right,2 syllables,1 syllable,NA,NA,NA,right,1914.69999999925,true,NA,NA,NA,NA,NA
kD6Jie5t,NA,NA,kD6Jie5t,2020-0188,2021-10-04,21:42:55,23:01:54,NA,incomplete,false,NA,true,1,0,NA,NA,right,NA,NA,a_2_025.jpg,o_s_007.jpg,between-big,NA,NaN,NA,right,2729.5,1,2,1062.5999999996275
kD6Jie5t,NA,NA,kD6Jie5t,2020-0188,2021-10-04,21:42:55,23:01:54,NA,incomplete,false,NA,true,1,1,NA,NA,left,NA,NA,m_l_022.jpg,m_l_014.jpg,within,NA,NaN,NA,left,2949.5999999996275,1,2,3193.4000000003725
kD6Jie5t,NA,NA,kD6Jie5t,2020-0188,2021-10-04,21:42:55,23:01:54,NA,incomplete,false,NA,true,1,2,NA,NA,left,NA,NA,a_2_025.jpg,a_2_027.jpg,within,NA,NaN,NA,left,2267.800000000745,1,1,1313.199999999255
kD6Jie5t,NA,NA,kD6Jie5t,2020-0188,2021-10-04,21:42:55,23:01:54,NA,incomplete,false,NA,true,1,3,NA,NA,right,NA,NA,o_c_016.jpg,o_s_023.jpg,within,NA,NaN,NA,right,1740.199999999255,1,0,1650.5999999996275
kD6Jie5t,NA,NA,kD6Jie5t,2020-0188,2021-10-04,21:42:55,23:01:54,NA,incomplete,false,NA,true,1,4,NA,NA,right,NA,NA,n_s_003.jpg,m_l_004.jpg,within,NA,NaN,NA,right,5805.5,1,0,1044.8999999985099
kD6Jie5t,NA,NA,kD6Jie5t,2020-0188,2021-10-04,21:42:55,23:01:54,NA,incomplete,false,NA,true,1,5,NA,NA,left,NA,NA,i_c_018.jpg,i_s_012.jpg,within,NA,NaN,NA,left,1955.800000000745,1,1,1707.4000000003725
kD6Jie5t,NA,NA,kD6Jie5t,2020-0188,2021-10-04,21:42:55,23:01:54,NA,incomplete,false,NA,true,1,6,NA,NA,right,NA,NA,n_l_019.jpg,m_l_006.jpg,within,NA,NaN,NA,right,2824.7999999988824,1,0,3246.699999999255
kD6Jie5t,NA,NA,kD6Jie5t,2020-0188,2021-10-04,21:42:55,23:01:54,NA,incomplete,false,NA,true,1,7,NA,NA,left,NA,NA,m_s_009.jpg,m_l_022.jpg,between-small,NA,NaN,NA,left,1854.2000000011176,1,2,1641.5
kD6Jie5t,NA,NA,kD6Jie5t,2020-0188,2021-10-04,21:42:55,23:01:54,NA,incomplete,false,NA,true,1,8,NA,NA,right,NA,NA,m_s_025.jpg,n_s_003.jpg,between-small,NA,NaN,NA,right,2523.699999999255,1,2,1150.2999999988824
kD6Jie5t,NA,NA,kD6Jie5t,2020-0188,2021-10-04,21:42:55,23:01:54,NA,incomplete,false,NA,true,1,9,NA,NA,right,NA,NA,o_c_009.jpg,n_l_019.jpg,between-big,NA,NaN,NA,left,1702.7000000011176,0,2,907.5
kD6Jie5t,NA,NA,kD6Jie5t,2020-0188,2021-10-04,21:42:55,23:01:54,NA,incomplete,false,NA,true,1,10,NA,NA,left,NA,NA,a_2_018.jpg,a_2_014.jpg,within,NA,NaN,NA,left,2131.800000000745,1,0,1263.5
kD6Jie5t,NA,NA,kD6Jie5t,2020-0188,2021-10-04,21:42:55,23:01:54,NA,incomplete,false,NA,true,1,11,NA,NA,right,NA,NA,c_1_001.jpg,a_2_027.jpg,between-small,NA,NaN,NA,left,3437.5,0,2,2486.300000000745
kD6Jie5t,NA,NA,kD6Jie5t,2020-0188,2021-10-04,21:42:55,23:01:54,NA,incomplete,false,NA,true,1,12,NA,NA,right,NA,NA,m_l_006.jpg,n_l_008.jpg,between-small,NA,NaN,NA,right,3377.5,1,2,1289.199999999255
kD6Jie5t,NA,NA,kD6Jie5t,2020-0188,2021-10-04,21:42:55,23:01:54,NA,incomplete,false,NA,true,1,13,NA,NA,right,NA,NA,i_c_023.jpg,i_c_013.jpg,within,NA,NaN,NA,left,5134,0,2,948.5
kD6Jie5t,NA,NA,kD6Jie5t,2020-0188,2021-10-04,21:42:55,23:01:54,NA,incomplete,false,NA,true,1,14,NA,NA,left,NA,NA,o_c_016.jpg,a_1_006.jpg,between-big,NA,NaN,NA,left,2416.699999999255,1,2,1899.2999999988824
kD6Jie5t,NA,NA,kD6Jie5t,2020-0188,2021-10-04,21:42:55,23:01:54,NA,incomplete,false,NA,true,1,15,NA,NA,left,NA,NA,i_c_023.jpg,o_s_007.jpg,between-small,NA,NaN,NA,left,6074.5999999996275,1,2,1838.199999999255
kD6Jie5t,NA,NA,kD6Jie5t,2020-0188,2021-10-04,21:42:55,23:01:54,NA,incomplete,false,NA,true,1,16,NA,NA,right,NA,NA,c_1_026.jpg,c_1_001.jpg,within,NA,NaN,NA,left,2860.5,0,2,2422.300000000745
kD6Jie5t,NA,NA,kD6Jie5t,2020-0188,2021-10-04,21:42:55,23:01:54,NA,incomplete,false,NA,true,1,17,NA,NA,right,NA,NA,c_1_014.jpg,c_2_006.jpg,between-small,NA,NaN,NA,right,5147.200000001118,1,1,1064.199999999255
kD6Jie5t,NA,NA,kD6Jie5t,2020-0188,2021-10-04,21:42:55,23:01:54,NA,incomplete,false,NA,true,1,18,NA,NA,right,NA,NA,o_c_022.jpg,o_s_008.jpg,within,NA,NaN,NA,right,2967.2999999988824,1,2,1784.5
kD6Jie5t,NA,NA,kD6Jie5t,2020-0188,2021-10-04,21:42:55,23:01:54,NA,incomplete,false,NA,true,1,19,NA,NA,right,NA,NA,o_s_023.jpg,o_c_009.jpg,between-small,NA,NaN,NA,right,1711.699999999255,1,2,1537.699999999255
kD6Jie5t,NA,NA,kD6Jie5t,2020-0188,2021-10-04,21:42:55,23:01:54,NA,incomplete,false,NA,true,1,20,NA,NA,left,NA,NA,c_1_013.jpg,a_2_018.jpg,between-small,NA,NaN,NA,right,8363.799999998882,0,3,1568.5
kD6Jie5t,NA,NA,kD6Jie5t,2020-0188,2021-10-04,21:42:55,23:01:54,NA,incomplete,false,NA,true,1,21,NA,NA,right,NA,NA,c_1_013.jpg,i_s_012.jpg,between-big,NA,NaN,NA,right,1951.4000000003725,1,3,2162.0999999996275
kD6Jie5t,NA,NA,kD6Jie5t,2020-0188,2021-10-04,21:42:55,23:01:54,NA,incomplete,false,NA,true,1,22,NA,NA,left,NA,NA,n_l_018.jpg,n_l_008.jpg,within,NA,NaN,NA,left,2069.300000000745,1,3,2216.5
kD6Jie5t,NA,NA,kD6Jie5t,2020-0188,2021-10-04,21:42:55,23:01:54,NA,incomplete,false,NA,true,1,23,NA,NA,left,NA,NA,o_c_022.jpg,i_c_018.jpg,between-small,NA,NaN,NA,right,2928.7999999988824,0,2,707.8000000007451
kD6Jie5t,NA,NA,kD6Jie5t,2020-0188,2021-10-04,21:42:55,23:01:54,NA,incomplete,false,NA,true,1,24,NA,NA,right,NA,NA,c_2_006.jpg,a_1_006.jpg,within,NA,NaN,NA,right,2552.2000000011176,1,2,1801.5
kD6Jie5t,NA,NA,kD6Jie5t,2020-0188,2021-10-04,21:42:55,23:01:54,NA,incomplete,false,NA,true,1,25,NA,NA,right,NA,NA,o_s_008.jpg,m_s_025.jpg,between-big,NA,NaN,NA,right,1389.9000000003725,1,2,4239.300000000745
kD6Jie5t,NA,NA,kD6Jie5t,2020-0188,2021-10-04,21:42:55,23:01:54,NA,incomplete,false,NA,true,1,26,NA,NA,left,NA,NA,m_l_014.jpg,i_c_013.jpg,between-big,NA,NaN,NA,left,1146.800000000745,1,2,1561.199999999255
kD6Jie5t,NA,NA,kD6Jie5t,2020-0188,2021-10-04,21:42:55,23:01:54,NA,incomplete,false,true,NA,2,0,size,n_l_021.jpg,right,small,large,NA,NA,NA,right,1845,true,NA,NA,NA,NA,NA
kD6Jie5t,NA,NA,kD6Jie5t,2020-0188,2021-10-04,21:42:55,23:01:54,NA,incomplete,false,true,NA,2,1,size,m_l_012.jpg,left,large,small,NA,NA,NA,left,1192.59999999963,true,NA,NA,NA,NA,NA
kD6Jie5t,NA,NA,kD6Jie5t,2020-0188,2021-10-04,21:42:55,23:01:54,NA,incomplete,false,true,NA,2,2,size,m_l_018.jpg,right,small,large,NA,NA,NA,right,1121.40000000037,true,NA,NA,NA,NA,NA
kD6Jie5t,NA,NA,kD6Jie5t,2020-0188,2021-10-04,21:42:55,23:01:54,NA,incomplete,false,true,NA,2,3,size,m_s_014.jpg,right,large,small,NA,NA,NA,right,1248.69999999925,true,NA,NA,NA,NA,NA
kD6Jie5t,NA,NA,kD6Jie5t,2020-0188,2021-10-04,21:42:55,23:01:54,NA,incomplete,false,true,NA,2,4,size,n_s_028.jpg,left,small,large,NA,NA,NA,left,2056,true,NA,NA,NA,NA,NA
kD6Jie5t,NA,NA,kD6Jie5t,2020-0188,2021-10-04,21:42:55,23:01:54,NA,incomplete,false,true,NA,2,5,origin,m_l_025.jpg,right,natural,manmade,NA,NA,NA,right,1802.30000000075,true,NA,NA,NA,NA,NA
kD6Jie5t,NA,NA,kD6Jie5t,2020-0188,2021-10-04,21:42:55,23:01:54,NA,incomplete,false,true,NA,2,6,origin,m_l_010.jpg,right,natural,manmade,NA,NA,NA,right,1077.40000000037,true,NA,NA,NA,NA,NA
kD6Jie5t,NA,NA,kD6Jie5t,2020-0188,2021-10-04,21:42:55,23:01:54,NA,incomplete,false,true,NA,2,7,origin,n_l_001.jpg,left,natural,manmade,NA,NA,NA,left,1045.90000000037,true,NA,NA,NA,NA,NA
kD6Jie5t,NA,NA,kD6Jie5t,2020-0188,2021-10-04,21:42:55,23:01:54,NA,incomplete,false,true,NA,2,8,origin,m_l_003.jpg,left,manmade,natural,NA,NA,NA,right,2066.09999999963,false,NA,NA,NA,NA,NA
kD6Jie5t,NA,NA,kD6Jie5t,2020-0188,2021-10-04,21:42:55,23:01:54,NA,incomplete,false,true,NA,2,9,origin,m_s_012.jpg,right,natural,manmade,NA,NA,NA,right,1138.09999999963,true,NA,NA,NA,NA,NA
kD6Jie5t,NA,NA,kD6Jie5t,2020-0188,2021-10-04,21:42:55,23:01:54,NA,incomplete,false,true,NA,2,10,abstractness,c_2_014.jpg,right,abstract,concrete,NA,NA,NA,right,2378.29999999888,true,NA,NA,NA,NA,NA
kD6Jie5t,NA,NA,kD6Jie5t,2020-0188,2021-10-04,21:42:55,23:01:54,NA,incomplete,false,true,NA,2,11,abstractness,a_1_017.jpg,left,abstract,concrete,NA,NA,NA,right,2081.19999999925,false,NA,NA,NA,NA,NA
kD6Jie5t,NA,NA,kD6Jie5t,2020-0188,2021-10-04,21:42:55,23:01:54,NA,incomplete,false,true,NA,2,12,abstractness,c_2_022.jpg,right,abstract,concrete,NA,NA,NA,right,1410.20000000112,true,NA,NA,NA,NA,NA
kD6Jie5t,NA,NA,kD6Jie5t,2020-0188,2021-10-04,21:42:55,23:01:54,NA,incomplete,false,true,NA,2,13,abstractness,c_1_022.jpg,right,abstract,concrete,NA,NA,NA,right,1717.39999999851,true,NA,NA,NA,NA,NA
kD6Jie5t,NA,NA,kD6Jie5t,2020-0188,2021-10-04,21:42:55,23:01:54,NA,incomplete,false,true,NA,2,14,abstractness,a_2_006.jpg,left,abstract,concrete,NA,NA,NA,right,1604.30000000075,false,NA,NA,NA,NA,NA
kD6Jie5t,NA,NA,kD6Jie5t,2020-0188,2021-10-04,21:42:55,23:01:54,NA,incomplete,false,true,NA,2,15,syllable,c_1_024.jpg,right,2 syllables,1 syllable,NA,NA,NA,right,2277.5,true,NA,NA,NA,NA,NA
kD6Jie5t,NA,NA,kD6Jie5t,2020-0188,2021-10-04,21:42:55,23:01:54,NA,incomplete,false,true,NA,2,16,syllable,a_1_007.jpg,right,2 syllables,1 syllable,NA,NA,NA,right,984.89999999851,true,NA,NA,NA,NA,NA
kD6Jie5t,NA,NA,kD6Jie5t,2020-0188,2021-10-04,21:42:55,23:01:54,NA,incomplete,false,true,NA,2,17,syllable,a_1_002.jpg,right,2 syllables,1 syllable,NA,NA,NA,right,1574.59999999963,true,NA,NA,NA,NA,NA
kD6Jie5t,NA,NA,kD6Jie5t,2020-0188,2021-10-04,21:42:55,23:01:54,NA,incomplete,false,true,NA,2,18,syllable,a_2_015.jpg,right,2 syllables,1 syllable,NA,NA,NA,left,2054.39999999851,false,NA,NA,NA,NA,NA
kD6Jie5t,NA,NA,kD6Jie5t,2020-0188,2021-10-04,21:42:55,23:01:54,NA,incomplete,false,true,NA,2,19,syllable,a_1_026.jpg,right,1 syllable,2 syllables,NA,NA,NA,left,1728.59999999963,false,NA,NA,NA,NA,NA
kD6Jie5t,NA,NA,kD6Jie5t,2020-0188,2021-10-04,21:42:55,23:01:54,NA,incomplete,false,true,NA,2,20,location,i_s_007.jpg,right,outdoor,indoor,NA,NA,NA,right,1769.20000000112,true,NA,NA,NA,NA,NA
kD6Jie5t,NA,NA,kD6Jie5t,2020-0188,2021-10-04,21:42:55,23:01:54,NA,incomplete,false,true,NA,2,21,location,o_c_020.jpg,right,indoor,outdoor,NA,NA,NA,right,1454.90000000037,true,NA,NA,NA,NA,NA
kD6Jie5t,NA,NA,kD6Jie5t,2020-0188,2021-10-04,21:42:55,23:01:54,NA,incomplete,false,true,NA,2,22,location,i_s_026.jpg,left,indoor,outdoor,NA,NA,NA,left,972.599999999627,true,NA,NA,NA,NA,NA
kD6Jie5t,NA,NA,kD6Jie5t,2020-0188,2021-10-04,21:42:55,23:01:54,NA,incomplete,false,true,NA,2,23,location,o_s_019.jpg,left,outdoor,indoor,NA,NA,NA,left,1328,true,NA,NA,NA,NA,NA
kD6Jie5t,NA,NA,kD6Jie5t,2020-0188,2021-10-04,21:42:55,23:01:54,NA,incomplete,false,true,NA,2,24,location,i_c_025.jpg,right,outdoor,indoor,NA,NA,NA,right,1323,true,NA,NA,NA,NA,NA
kD6Jie5t,NA,NA,kD6Jie5t,2020-0188,2021-10-04,21:42:55,23:01:54,NA,incomplete,false,true,NA,2,25,building,o_s_012.jpg,left,skyscraper,cottage,NA,NA,NA,left,1218.70000000112,true,NA,NA,NA,NA,NA
kD6Jie5t,NA,NA,kD6Jie5t,2020-0188,2021-10-04,21:42:55,23:01:54,NA,incomplete,false,true,NA,2,26,building,i_c_005.jpg,right,skyscraper,cottage,NA,NA,NA,right,1728.39999999851,true,NA,NA,NA,NA,NA
kD6Jie5t,NA,NA,kD6Jie5t,2020-0188,2021-10-04,21:42:55,23:01:54,NA,incomplete,false,true,NA,2,27,building,o_s_021.jpg,left,skyscraper,cottage,NA,NA,NA,left,1167,true,NA,NA,NA,NA,NA
kD6Jie5t,NA,NA,kD6Jie5t,2020-0188,2021-10-04,21:42:55,23:01:54,NA,incomplete,false,true,NA,2,28,building,i_c_022.jpg,right,skyscraper,cottage,NA,NA,NA,right,1707.29999999888,true,NA,NA,NA,NA,NA
kD6Jie5t,NA,NA,kD6Jie5t,2020-0188,2021-10-04,21:42:55,23:01:54,NA,incomplete,false,true,NA,2,29,building,o_c_021.jpg,left,cottage,skyscraper,NA,NA,NA,left,1045.40000000037,true,NA,NA,NA,NA,NA
kD6Jie5t,NA,NA,kD6Jie5t,2020-0188,2021-10-04,21:42:55,23:01:54,NA,incomplete,false,NA,true,2,0,NA,NA,right,NA,NA,o_s_012.jpg,i_s_026.jpg,between-small,NA,NaN,NA,right,1952.9000000003725,1,2,695.6999999992549
kD6Jie5t,NA,NA,kD6Jie5t,2020-0188,2021-10-04,21:42:55,23:01:54,NA,incomplete,false,NA,true,2,1,NA,NA,right,NA,NA,m_s_014.jpg,n_l_021.jpg,within,NA,NaN,NA,right,1271.5999999996275,1,1,701.5999999996275
kD6Jie5t,NA,NA,kD6Jie5t,2020-0188,2021-10-04,21:42:55,23:01:54,NA,incomplete,false,NA,true,2,2,NA,NA,left,NA,NA,c_2_022.jpg,c_1_024.jpg,between-small,NA,NaN,NA,right,6026.199999999255,0,0,1392.7000000011176
kD6Jie5t,NA,NA,kD6Jie5t,2020-0188,2021-10-04,21:42:55,23:01:54,NA,incomplete,false,NA,true,2,3,NA,NA,left,NA,NA,n_l_001.jpg,c_2_014.jpg,between-big,NA,NaN,NA,right,2266.7999999988824,0,2,2471.7000000011176
kD6Jie5t,NA,NA,kD6Jie5t,2020-0188,2021-10-04,21:42:55,23:01:54,NA,incomplete,false,NA,true,2,4,NA,NA,right,NA,NA,i_c_022.jpg,o_s_012.jpg,within,NA,NaN,NA,right,2731.800000000745,1,2,1797.5999999996275
kD6Jie5t,NA,NA,kD6Jie5t,2020-0188,2021-10-04,21:42:55,23:01:54,NA,incomplete,false,NA,true,2,5,NA,NA,right,NA,NA,m_s_012.jpg,m_l_010.jpg,within,NA,NaN,NA,right,3672.300000000745,1,0,1184.5999999996275
kD6Jie5t,NA,NA,kD6Jie5t,2020-0188,2021-10-04,21:42:55,23:01:54,NA,incomplete,false,NA,true,2,6,NA,NA,right,NA,NA,n_l_001.jpg,n_s_028.jpg,between-small,NA,NaN,NA,right,3071.4000000003725,1,2,1005.7999999988824
kD6Jie5t,NA,NA,kD6Jie5t,2020-0188,2021-10-04,21:42:55,23:01:54,NA,incomplete,false,NA,true,2,7,NA,NA,right,NA,NA,a_1_002.jpg,a_2_006.jpg,between-small,NA,NaN,NA,left,2517.9000000003725,0,1,1207.5
kD6Jie5t,NA,NA,kD6Jie5t,2020-0188,2021-10-04,21:42:55,23:01:54,NA,incomplete,false,NA,true,2,8,NA,NA,right,NA,NA,o_s_019.jpg,i_s_007.jpg,within,NA,NaN,NA,right,4974.799999998882,1,0,1421.9000000003725
kD6Jie5t,NA,NA,kD6Jie5t,2020-0188,2021-10-04,21:42:55,23:01:54,NA,incomplete,false,NA,true,2,9,NA,NA,left,NA,NA,i_c_005.jpg,o_c_021.jpg,within,NA,NaN,NA,left,2998.60000000149,1,2,1223.5999999996275
kD6Jie5t,NA,NA,kD6Jie5t,2020-0188,2021-10-04,21:42:55,23:01:54,NA,incomplete,false,NA,true,2,10,NA,NA,right,NA,NA,i_s_026.jpg,a_1_026.jpg,between-big,NA,NaN,NA,left,13411.699999999255,0,2,1231.800000000745
kD6Jie5t,NA,NA,kD6Jie5t,2020-0188,2021-10-04,21:42:55,23:01:54,NA,incomplete,false,NA,true,2,11,NA,NA,right,NA,NA,o_s_021.jpg,i_c_025.jpg,between-small,NA,NaN,NA,right,3998.5999999996275,1,0,1969.800000000745
kD6Jie5t,NA,NA,kD6Jie5t,2020-0188,2021-10-04,21:42:55,23:01:54,NA,incomplete,false,NA,true,2,12,NA,NA,left,NA,NA,a_1_017.jpg,a_2_006.jpg,within,NA,NaN,NA,right,5900.60000000149,0,0,1585.5
kD6Jie5t,NA,NA,kD6Jie5t,2020-0188,2021-10-04,21:42:55,23:01:54,NA,incomplete,false,NA,true,2,13,NA,NA,right,NA,NA,a_1_026.jpg,a_1_007.jpg,within,NA,NaN,NA,right,2160.4000000003725,1,2,2075.300000000745
kD6Jie5t,NA,NA,kD6Jie5t,2020-0188,2021-10-04,21:42:55,23:01:54,NA,incomplete,false,NA,true,2,14,NA,NA,right,NA,NA,m_l_010.jpg,m_s_014.jpg,between-small,NA,NaN,NA,right,3312.699999999255,1,3,798.4000000003725
kD6Jie5t,NA,NA,kD6Jie5t,2020-0188,2021-10-04,21:42:55,23:01:54,NA,incomplete,false,NA,true,2,15,NA,NA,right,NA,NA,a_2_015.jpg,c_1_024.jpg,within,NA,NaN,NA,right,2745.199999999255,1,2,1143.5
kD6Jie5t,NA,NA,kD6Jie5t,2020-0188,2021-10-04,21:42:55,23:01:54,NA,incomplete,false,NA,true,2,16,NA,NA,right,NA,NA,n_s_028.jpg,m_l_012.jpg,within,NA,NaN,NA,left,1292.4000000003725,0,2,996.3999999985099
kD6Jie5t,NA,NA,kD6Jie5t,2020-0188,2021-10-04,21:42:55,23:01:54,NA,incomplete,false,NA,true,2,17,NA,NA,left,NA,NA,c_2_014.jpg,c_1_022.jpg,within,NA,NaN,NA,right,2328.60000000149,0,2,959.5999999996275
kD6Jie5t,NA,NA,kD6Jie5t,2020-0188,2021-10-04,21:42:55,23:01:54,NA,incomplete,false,NA,true,2,18,NA,NA,right,NA,NA,m_l_003.jpg,m_l_025.jpg,within,NA,NaN,NA,right,4821.699999999255,1,2,886.5
kD6Jie5t,NA,NA,kD6Jie5t,2020-0188,2021-10-04,21:42:55,23:01:54,NA,incomplete,false,NA,true,2,19,NA,NA,left,NA,NA,m_l_003.jpg,a_1_017.jpg,between-big,NA,NaN,NA,left,1982.6000000014901,1,2,612.5999999996275
kD6Jie5t,NA,NA,kD6Jie5t,2020-0188,2021-10-04,21:42:55,23:01:54,NA,incomplete,false,NA,true,2,20,NA,NA,right,NA,NA,i_s_007.jpg,a_1_002.jpg,between-big,NA,NaN,NA,left,4884.0999999996275,0,2,1168.9000000003725
kD6Jie5t,NA,NA,kD6Jie5t,2020-0188,2021-10-04,21:42:55,23:01:54,NA,incomplete,false,NA,true,2,21,NA,NA,left,NA,NA,m_l_018.jpg,m_l_025.jpg,between-small,NA,NaN,NA,left,2520.5999999996275,1,3,1341.5
kD6Jie5t,NA,NA,kD6Jie5t,2020-0188,2021-10-04,21:42:55,23:01:54,NA,incomplete,false,NA,true,2,22,NA,NA,right,NA,NA,a_1_007.jpg,c_1_022.jpg,between-small,NA,NaN,NA,right,6223,1,2,3273.4000000003725
kD6Jie5t,NA,NA,kD6Jie5t,2020-0188,2021-10-04,21:42:55,23:01:54,NA,incomplete,false,NA,true,2,23,NA,NA,left,NA,NA,a_2_015.jpg,o_c_020.jpg,between-big,NA,NaN,NA,right,1900.699999999255,0,2,2257.0999999996275
kD6Jie5t,NA,NA,kD6Jie5t,2020-0188,2021-10-04,21:42:55,23:01:54,NA,incomplete,false,NA,true,2,24,NA,NA,left,NA,NA,o_s_019.jpg,i_c_005.jpg,between-small,NA,NaN,NA,right,3250.39999999851,0,1,2857.0999999996275
kD6Jie5t,NA,NA,kD6Jie5t,2020-0188,2021-10-04,21:42:55,23:01:54,NA,incomplete,false,NA,true,2,25,NA,NA,left,NA,NA,o_c_020.jpg,i_c_025.jpg,within,NA,NaN,NA,left,15754.799999998882,1,2,1589.199999999255
kD6Jie5t,NA,NA,kD6Jie5t,2020-0188,2021-10-04,21:42:55,23:01:54,NA,incomplete,false,NA,true,2,26,NA,NA,right,NA,NA,c_2_022.jpg,m_s_012.jpg,between-big,NA,NaN,NA,right,1207.5999999996275,1,1,1341.0999999996275
kD6Jie5t,NA,NA,kD6Jie5t,2020-0188,2021-10-04,21:42:55,23:01:54,NA,incomplete,false,true,NA,3,0,abstractness,a_1_012.jpg,left,abstract,concrete,NA,NA,NA,left,2780.29999999888,true,NA,NA,NA,NA,NA
kD6Jie5t,NA,NA,kD6Jie5t,2020-0188,2021-10-04,21:42:55,23:01:54,NA,incomplete,false,true,NA,3,1,abstractness,c_1_016.jpg,right,abstract,concrete,NA,NA,NA,right,1246,true,NA,NA,NA,NA,NA
kD6Jie5t,NA,NA,kD6Jie5t,2020-0188,2021-10-04,21:42:55,23:01:54,NA,incomplete,false,true,NA,3,2,abstractness,a_1_018.jpg,left,abstract,concrete,NA,NA,NA,left,2115.69999999925,true,NA,NA,NA,NA,NA
kD6Jie5t,NA,NA,kD6Jie5t,2020-0188,2021-10-04,21:42:55,23:01:54,NA,incomplete,false,true,NA,3,3,abstractness,c_2_013.jpg,right,abstract,concrete,NA,NA,NA,right,2879.5,true,NA,NA,NA,NA,NA
kD6Jie5t,NA,NA,kD6Jie5t,2020-0188,2021-10-04,21:42:55,23:01:54,NA,incomplete,false,true,NA,3,4,abstractness,a_1_019.jpg,right,concrete,abstract,NA,NA,NA,right,1447.09999999963,true,NA,NA,NA,NA,NA
kD6Jie5t,NA,NA,kD6Jie5t,2020-0188,2021-10-04,21:42:55,23:01:54,NA,incomplete,false,true,NA,3,5,syllable,c_1_017.jpg,right,1 syllable,2 syllables,NA,NA,NA,right,2558.39999999851,true,NA,NA,NA,NA,NA
kD6Jie5t,NA,NA,kD6Jie5t,2020-0188,2021-10-04,21:42:55,23:01:54,NA,incomplete,false,true,NA,3,6,syllable,a_1_028.jpg,right,1 syllable,2 syllables,NA,NA,NA,left,1233.40000000037,false,NA,NA,NA,NA,NA
kD6Jie5t,NA,NA,kD6Jie5t,2020-0188,2021-10-04,21:42:55,23:01:54,NA,incomplete,false,true,NA,3,7,syllable,a_1_003.jpg,right,2 syllables,1 syllable,NA,NA,NA,right,2172.5,true,NA,NA,NA,NA,NA
kD6Jie5t,NA,NA,kD6Jie5t,2020-0188,2021-10-04,21:42:55,23:01:54,NA,incomplete,false,true,NA,3,8,syllable,c_2_010.jpg,right,1 syllable,2 syllables,NA,NA,NA,right,1464.59999999963,true,NA,NA,NA,NA,NA
kD6Jie5t,NA,NA,kD6Jie5t,2020-0188,2021-10-04,21:42:55,23:01:54,NA,incomplete,false,true,NA,3,9,syllable,c_1_027.jpg,right,1 syllable,2 syllables,NA,NA,NA,left,1406.19999999925,false,NA,NA,NA,NA,NA
kD6Jie5t,NA,NA,kD6Jie5t,2020-0188,2021-10-04,21:42:55,23:01:54,NA,incomplete,false,true,NA,3,10,origin,m_l_026.jpg,left,manmade,natural,NA,NA,NA,left,1332.40000000037,true,NA,NA,NA,NA,NA
kD6Jie5t,NA,NA,kD6Jie5t,2020-0188,2021-10-04,21:42:55,23:01:54,NA,incomplete,false,true,NA,3,11,origin,n_s_008.jpg,right,manmade,natural,NA,NA,NA,right,1273,true,NA,NA,NA,NA,NA
kD6Jie5t,NA,NA,kD6Jie5t,2020-0188,2021-10-04,21:42:55,23:01:54,NA,incomplete,false,true,NA,3,12,origin,m_l_021.jpg,left,manmade,natural,NA,NA,NA,left,1192.5,true,NA,NA,NA,NA,NA
kD6Jie5t,NA,NA,kD6Jie5t,2020-0188,2021-10-04,21:42:55,23:01:54,NA,incomplete,false,true,NA,3,13,origin,n_s_009.jpg,left,natural,manmade,NA,NA,NA,left,2418.29999999888,true,NA,NA,NA,NA,NA
kD6Jie5t,NA,NA,kD6Jie5t,2020-0188,2021-10-04,21:42:55,23:01:54,NA,incomplete,false,true,NA,3,14,origin,n_l_011.jpg,right,manmade,natural,NA,NA,NA,right,1501.5,true,NA,NA,NA,NA,NA
kD6Jie5t,NA,NA,kD6Jie5t,2020-0188,2021-10-04,21:42:55,23:01:54,NA,incomplete,false,true,NA,3,15,size,n_s_005.jpg,right,large,small,NA,NA,NA,right,1795,true,NA,NA,NA,NA,NA
kD6Jie5t,NA,NA,kD6Jie5t,2020-0188,2021-10-04,21:42:55,23:01:54,NA,incomplete,false,true,NA,3,16,size,m_l_016.jpg,right,small,large,NA,NA,NA,right,1369.09999999963,true,NA,NA,NA,NA,NA
kD6Jie5t,NA,NA,kD6Jie5t,2020-0188,2021-10-04,21:42:55,23:01:54,NA,incomplete,false,true,NA,3,17,size,m_s_005.jpg,right,large,small,NA,NA,NA,right,2214.90000000037,true,NA,NA,NA,NA,NA
kD6Jie5t,NA,NA,kD6Jie5t,2020-0188,2021-10-04,21:42:55,23:01:54,NA,incomplete,false,true,NA,3,18,size,m_l_008.jpg,right,small,large,NA,NA,NA,right,1423.19999999925,true,NA,NA,NA,NA,NA
kD6Jie5t,NA,NA,kD6Jie5t,2020-0188,2021-10-04,21:42:55,23:01:54,NA,incomplete,false,true,NA,3,19,size,m_s_010.jpg,left,small,large,NA,NA,NA,left,1142.40000000037,true,NA,NA,NA,NA,NA
kD6Jie5t,NA,NA,kD6Jie5t,2020-0188,2021-10-04,21:42:55,23:01:54,NA,incomplete,false,true,NA,3,20,location,o_s_024.jpg,left,outdoor,indoor,NA,NA,NA,left,1452.30000000075,true,NA,NA,NA,NA,NA
kD6Jie5t,NA,NA,kD6Jie5t,2020-0188,2021-10-04,21:42:55,23:01:54,NA,incomplete,false,true,NA,3,21,location,i_c_014.jpg,right,outdoor,indoor,NA,NA,NA,right,2105.70000000112,true,NA,NA,NA,NA,NA
kD6Jie5t,NA,NA,kD6Jie5t,2020-0188,2021-10-04,21:42:55,23:01:54,NA,incomplete,false,true,NA,3,22,location,i_c_012.jpg,right,outdoor,indoor,NA,NA,NA,right,822.699999999255,true,NA,NA,NA,NA,NA
kD6Jie5t,NA,NA,kD6Jie5t,2020-0188,2021-10-04,21:42:55,23:01:54,NA,incomplete,false,true,NA,3,23,location,i_c_028.jpg,right,outdoor,indoor,NA,NA,NA,right,1687.80000000075,true,NA,NA,NA,NA,NA
kD6Jie5t,NA,NA,kD6Jie5t,2020-0188,2021-10-04,21:42:55,23:01:54,NA,incomplete,false,true,NA,3,24,location,o_s_003.jpg,left,outdoor,indoor,NA,NA,NA,left,1307.10000000149,true,NA,NA,NA,NA,NA
kD6Jie5t,NA,NA,kD6Jie5t,2020-0188,2021-10-04,21:42:55,23:01:54,NA,incomplete,false,true,NA,3,25,building,i_c_009.jpg,left,cottage,skyscraper,NA,NA,NA,left,1420.20000000112,true,NA,NA,NA,NA,NA
kD6Jie5t,NA,NA,kD6Jie5t,2020-0188,2021-10-04,21:42:55,23:01:54,NA,incomplete,false,true,NA,3,26,building,o_c_023.jpg,right,skyscraper,cottage,NA,NA,NA,right,1670.09999999963,true,NA,NA,NA,NA,NA
kD6Jie5t,NA,NA,kD6Jie5t,2020-0188,2021-10-04,21:42:55,23:01:54,NA,incomplete,false,true,NA,3,27,building,i_s_018.jpg,right,cottage,skyscraper,NA,NA,NA,right,1874.90000000037,true,NA,NA,NA,NA,NA
kD6Jie5t,NA,NA,kD6Jie5t,2020-0188,2021-10-04,21:42:55,23:01:54,NA,incomplete,false,true,NA,3,28,building,o_s_002.jpg,right,cottage,skyscraper,NA,NA,NA,right,1115.09999999963,true,NA,NA,NA,NA,NA
kD6Jie5t,NA,NA,kD6Jie5t,2020-0188,2021-10-04,21:42:55,23:01:54,NA,incomplete,false,true,NA,3,29,building,o_c_025.jpg,left,cottage,skyscraper,NA,NA,NA,left,1053.70000000112,true,NA,NA,NA,NA,NA
kD6Jie5t,NA,NA,kD6Jie5t,2020-0188,2021-10-04,21:42:55,23:01:54,NA,incomplete,false,NA,true,3,0,NA,NA,right,NA,NA,m_l_008.jpg,n_s_005.jpg,within,NA,NaN,NA,right,1404.4000000003725,1,1,2011.699999999255
kD6Jie5t,NA,NA,kD6Jie5t,2020-0188,2021-10-04,21:42:55,23:01:54,NA,incomplete,false,NA,true,3,1,NA,NA,left,NA,NA,i_c_012.jpg,i_c_009.jpg,between-small,NA,NaN,NA,right,1757.300000000745,0,2,3447.5
kD6Jie5t,NA,NA,kD6Jie5t,2020-0188,2021-10-04,21:42:55,23:01:54,NA,incomplete,false,NA,true,3,2,NA,NA,left,NA,NA,i_c_014.jpg,o_s_003.jpg,within,NA,NaN,NA,right,1417.3999999985099,0,2,1408.5
kD6Jie5t,NA,NA,kD6Jie5t,2020-0188,2021-10-04,21:42:55,23:01:54,NA,incomplete,false,NA,true,3,3,NA,NA,right,NA,NA,n_s_008.jpg,c_2_010.jpg,between-big,NA,NaN,NA,left,1411.5999999996275,0,2,949.2999999988824
kD6Jie5t,NA,NA,kD6Jie5t,2020-0188,2021-10-04,21:42:55,23:01:54,NA,incomplete,false,NA,true,3,4,NA,NA,left,NA,NA,m_s_010.jpg,i_c_012.jpg,between-big,NA,NaN,NA,right,2426.7000000011176,0,2,1129.199999999255
kD6Jie5t,NA,NA,kD6Jie5t,2020-0188,2021-10-04,21:42:55,23:01:54,NA,incomplete,false,NA,true,3,5,NA,NA,right,NA,NA,o_s_002.jpg,i_c_009.jpg,within,NA,NaN,NA,right,2456.10000000149,1,2,1104.5
kD6Jie5t,NA,NA,kD6Jie5t,2020-0188,2021-10-04,21:42:55,23:01:54,NA,incomplete,false,NA,true,3,6,NA,NA,left,NA,NA,m_s_005.jpg,o_s_024.jpg,between-big,NA,NaN,NA,right,1755.5,0,2,996.6999999992549
kD6Jie5t,NA,NA,kD6Jie5t,2020-0188,2021-10-04,21:42:55,23:01:54,NA,incomplete,false,NA,true,3,7,NA,NA,left,NA,NA,n_s_008.jpg,n_l_011.jpg,within,NA,NaN,NA,left,22256.099999999627,1,1,2304.2000000011176
kD6Jie5t,NA,NA,kD6Jie5t,2020-0188,2021-10-04,21:42:55,23:01:54,NA,incomplete,false,NA,true,3,8,NA,NA,left,NA,NA,c_1_016.jpg,a_1_019.jpg,within,NA,NaN,NA,left,2908.5999999996275,1,1,798.4000000003725
kD6Jie5t,NA,NA,kD6Jie5t,2020-0188,2021-10-04,21:42:55,23:01:54,NA,incomplete,false,NA,true,3,9,NA,NA,left,NA,NA,m_l_021.jpg,n_s_005.jpg,between-small,NA,NaN,NA,right,1243.1000000014901,0,1,2361.5
kD6Jie5t,NA,NA,kD6Jie5t,2020-0188,2021-10-04,21:42:55,23:01:54,NA,incomplete,false,NA,true,3,10,NA,NA,left,NA,NA,n_s_009.jpg,m_l_016.jpg,between-small,NA,NaN,NA,right,1787.199999999255,0,2,2578.4000000003725
kD6Jie5t,NA,NA,kD6Jie5t,2020-0188,2021-10-04,21:42:55,23:01:54,NA,incomplete,false,NA,true,3,11,NA,NA,right,NA,NA,c_2_013.jpg,a_1_012.jpg,within,NA,NaN,NA,left,4931.699999999255,0,1,1394.199999999255
kD6Jie5t,NA,NA,kD6Jie5t,2020-0188,2021-10-04,21:42:55,23:01:54,NA,incomplete,false,NA,true,3,12,NA,NA,right,NA,NA,c_1_017.jpg,a_1_018.jpg,between-small,NA,NaN,NA,right,3019.7999999988824,1,2,2802.0999999996275
kD6Jie5t,NA,NA,kD6Jie5t,2020-0188,2021-10-04,21:42:55,23:01:54,NA,incomplete,false,NA,true,3,13,NA,NA,right,NA,NA,m_s_010.jpg,m_l_016.jpg,within,NA,NaN,NA,left,3944.300000000745,0,1,2400.5
kD6Jie5t,NA,NA,kD6Jie5t,2020-0188,2021-10-04,21:42:55,23:01:54,NA,incomplete,false,NA,true,3,14,NA,NA,right,NA,NA,o_c_023.jpg,i_c_028.jpg,between-small,NA,NaN,NA,right,1680.9000000003725,1,1,4039.10000000149
kD6Jie5t,NA,NA,kD6Jie5t,2020-0188,2021-10-04,21:42:55,23:01:54,NA,incomplete,false,NA,true,3,15,NA,NA,right,NA,NA,n_s_009.jpg,m_l_026.jpg,within,NA,NaN,NA,right,2325.7999999988824,1,3,873.9000000003725
kD6Jie5t,NA,NA,kD6Jie5t,2020-0188,2021-10-04,21:42:55,23:01:54,NA,incomplete,false,NA,true,3,16,NA,NA,right,NA,NA,i_c_014.jpg,m_l_008.jpg,between-big,NA,NaN,NA,right,1823.5,1,2,789.5
kD6Jie5t,NA,NA,kD6Jie5t,2020-0188,2021-10-04,21:42:55,23:01:54,NA,incomplete,false,NA,true,3,17,NA,NA,right,NA,NA,m_s_005.jpg,n_l_011.jpg,between-small,NA,NaN,NA,left,910.7999999988824,0,2,1111.5
kD6Jie5t,NA,NA,kD6Jie5t,2020-0188,2021-10-04,21:42:55,23:01:54,NA,incomplete,false,NA,true,3,18,NA,NA,right,NA,NA,c_2_010.jpg,c_1_017.jpg,within,NA,NaN,NA,right,3018.5,1,1,1198.2000000011176
kD6Jie5t,NA,NA,kD6Jie5t,2020-0188,2021-10-04,21:42:55,23:01:54,NA,incomplete,false,NA,true,3,19,NA,NA,right,NA,NA,i_c_028.jpg,o_s_024.jpg,within,NA,NaN,NA,right,3712.5,1,2,1095.5999999996275
kD6Jie5t,NA,NA,kD6Jie5t,2020-0188,2021-10-04,21:42:55,23:01:54,NA,incomplete,false,NA,true,3,20,NA,NA,right,NA,NA,a_1_003.jpg,a_1_019.jpg,between-small,NA,NaN,NA,right,2694.7999999988824,1,1,1021.8000000007451
kD6Jie5t,NA,NA,kD6Jie5t,2020-0188,2021-10-04,21:42:55,23:01:54,NA,incomplete,false,NA,true,3,21,NA,NA,right,NA,NA,a_1_028.jpg,c_2_013.jpg,between-small,NA,NaN,NA,left,5337.89999999851,0,2,1039.5999999996275
kD6Jie5t,NA,NA,kD6Jie5t,2020-0188,2021-10-04,21:42:55,23:01:54,NA,incomplete,false,NA,true,3,22,NA,NA,right,NA,NA,o_c_025.jpg,o_c_023.jpg,within,NA,NaN,NA,right,2240.7999999988824,1,2,5485.39999999851
kD6Jie5t,NA,NA,kD6Jie5t,2020-0188,2021-10-04,21:42:55,23:01:54,NA,incomplete,false,NA,true,3,23,NA,NA,right,NA,NA,m_l_021.jpg,c_1_027.jpg,between-big,NA,NaN,NA,left,1938.7000000011176,0,1,1960.5
kD6Jie5t,NA,NA,kD6Jie5t,2020-0188,2021-10-04,21:42:55,23:01:54,NA,incomplete,false,NA,true,3,24,NA,NA,right,NA,NA,i_s_018.jpg,o_s_003.jpg,between-small,NA,NaN,NA,right,1407.699999999255,1,2,917.5
kD6Jie5t,NA,NA,kD6Jie5t,2020-0188,2021-10-04,21:42:55,23:01:54,NA,incomplete,false,NA,true,3,25,NA,NA,left,NA,NA,a_1_003.jpg,m_l_026.jpg,between-big,NA,NaN,NA,right,1361.2999999988824,0,2,1808.300000000745
kD6Jie5t,NA,NA,kD6Jie5t,2020-0188,2021-10-04,21:42:55,23:01:54,NA,incomplete,false,NA,true,3,26,NA,NA,left,NA,NA,a_1_028.jpg,c_1_027.jpg,within,NA,NaN,NA,right,1464.5999999996275,0,2,1187.8999999985099
kD6Jie5t,NA,NA,kD6Jie5t,2020-0188,2021-10-04,21:42:55,23:01:54,NA,incomplete,false,true,NA,4,0,building,o_s_016.jpg,left,skyscraper,cottage,NA,NA,NA,left,1187.60000000149,true,NA,NA,NA,NA,NA
kD6Jie5t,NA,NA,kD6Jie5t,2020-0188,2021-10-04,21:42:55,23:01:54,NA,incomplete,false,true,NA,4,1,building,i_s_013.jpg,right,cottage,skyscraper,NA,NA,NA,right,1038.59999999963,true,NA,NA,NA,NA,NA
kD6Jie5t,NA,NA,kD6Jie5t,2020-0188,2021-10-04,21:42:55,23:01:54,NA,incomplete,false,true,NA,4,2,building,o_s_022.jpg,right,cottage,skyscraper,NA,NA,NA,right,974.800000000745,true,NA,NA,NA,NA,NA
kD6Jie5t,NA,NA,kD6Jie5t,2020-0188,2021-10-04,21:42:55,23:01:54,NA,incomplete,false,true,NA,4,3,building,o_c_001.jpg,left,cottage,skyscraper,NA,NA,NA,left,1025.90000000037,true,NA,NA,NA,NA,NA
kD6Jie5t,NA,NA,kD6Jie5t,2020-0188,2021-10-04,21:42:55,23:01:54,NA,incomplete,false,true,NA,4,4,building,o_c_011.jpg,left,cottage,skyscraper,NA,NA,NA,left,1062.40000000037,true,NA,NA,NA,NA,NA
kD6Jie5t,NA,NA,kD6Jie5t,2020-0188,2021-10-04,21:42:55,23:01:54,NA,incomplete,false,true,NA,4,5,location,i_c_024.jpg,right,outdoor,indoor,NA,NA,NA,right,1485.5,true,NA,NA,NA,NA,NA
kD6Jie5t,NA,NA,kD6Jie5t,2020-0188,2021-10-04,21:42:55,23:01:54,NA,incomplete,false,true,NA,4,6,location,o_s_028.jpg,left,outdoor,indoor,NA,NA,NA,left,1248.09999999963,true,NA,NA,NA,NA,NA
kD6Jie5t,NA,NA,kD6Jie5t,2020-0188,2021-10-04,21:42:55,23:01:54,NA,incomplete,false,true,NA,4,7,location,o_c_008.jpg,left,outdoor,indoor,NA,NA,NA,left,1227.20000000112,true,NA,NA,NA,NA,NA
kD6Jie5t,NA,NA,kD6Jie5t,2020-0188,2021-10-04,21:42:55,23:01:54,NA,incomplete,false,true,NA,4,8,location,i_c_020.jpg,left,indoor,outdoor,NA,NA,NA,left,1391.5,true,NA,NA,NA,NA,NA
kD6Jie5t,NA,NA,kD6Jie5t,2020-0188,2021-10-04,21:42:55,23:01:54,NA,incomplete,false,true,NA,4,9,location,i_c_006.jpg,right,outdoor,indoor,NA,NA,NA,right,1401.70000000112,true,NA,NA,NA,NA,NA
kD6Jie5t,NA,NA,kD6Jie5t,2020-0188,2021-10-04,21:42:55,23:01:54,NA,incomplete,false,true,NA,4,10,origin,m_s_028.jpg,left,manmade,natural,NA,NA,NA,left,1215.20000000112,true,NA,NA,NA,NA,NA
kD6Jie5t,NA,NA,kD6Jie5t,2020-0188,2021-10-04,21:42:55,23:01:54,NA,incomplete,false,true,NA,4,11,origin,m_l_013.jpg,left,manmade,natural,NA,NA,NA,left,1643.30000000075,true,NA,NA,NA,NA,NA
kD6Jie5t,NA,NA,kD6Jie5t,2020-0188,2021-10-04,21:42:55,23:01:54,NA,incomplete,false,true,NA,4,12,origin,n_s_024.jpg,left,natural,manmade,NA,NA,NA,left,1594,true,NA,NA,NA,NA,NA
kD6Jie5t,NA,NA,kD6Jie5t,2020-0188,2021-10-04,21:42:55,23:01:54,NA,incomplete,false,true,NA,4,13,origin,n_s_004.jpg,left,natural,manmade,NA,NA,NA,left,1156,true,NA,NA,NA,NA,NA
kD6Jie5t,NA,NA,kD6Jie5t,2020-0188,2021-10-04,21:42:55,23:01:54,NA,incomplete,false,true,NA,4,14,origin,m_s_006.jpg,left,manmade,natural,NA,NA,NA,left,1543.79999999888,true,NA,NA,NA,NA,NA
kD6Jie5t,NA,NA,kD6Jie5t,2020-0188,2021-10-04,21:42:55,23:01:54,NA,incomplete,false,true,NA,4,15,size,n_l_006.jpg,left,large,small,NA,NA,NA,left,1804.60000000149,true,NA,NA,NA,NA,NA
kD6Jie5t,NA,NA,kD6Jie5t,2020-0188,2021-10-04,21:42:55,23:01:54,NA,incomplete,false,true,NA,4,16,size,n_s_006.jpg,right,large,small,NA,NA,NA,right,1736.79999999888,true,NA,NA,NA,NA,NA
kD6Jie5t,NA,NA,kD6Jie5t,2020-0188,2021-10-04,21:42:55,23:01:54,NA,incomplete,false,true,NA,4,17,size,n_s_019.jpg,left,small,large,NA,NA,NA,left,1254.90000000037,true,NA,NA,NA,NA,NA
kD6Jie5t,NA,NA,kD6Jie5t,2020-0188,2021-10-04,21:42:55,23:01:54,NA,incomplete,false,true,NA,4,18,size,m_s_019.jpg,left,small,large,NA,NA,NA,left,1244,true,NA,NA,NA,NA,NA
kD6Jie5t,NA,NA,kD6Jie5t,2020-0188,2021-10-04,21:42:55,23:01:54,NA,incomplete,false,true,NA,4,19,size,n_l_026.jpg,right,small,large,NA,NA,NA,right,2089.5,true,NA,NA,NA,NA,NA
kD6Jie5t,NA,NA,kD6Jie5t,2020-0188,2021-10-04,21:42:55,23:01:54,NA,incomplete,false,true,NA,4,20,syllable,a_2_007.jpg,right,1 syllable,2 syllables,NA,NA,NA,right,1625.09999999963,true,NA,NA,NA,NA,NA
kD6Jie5t,NA,NA,kD6Jie5t,2020-0188,2021-10-04,21:42:55,23:01:54,NA,incomplete,false,true,NA,4,21,syllable,a_1_024.jpg,right,2 syllables,1 syllable,NA,NA,NA,right,1986.5,true,NA,NA,NA,NA,NA
kD6Jie5t,NA,NA,kD6Jie5t,2020-0188,2021-10-04,21:42:55,23:01:54,NA,incomplete,false,true,NA,4,22,syllable,c_2_024.jpg,right,1 syllable,2 syllables,NA,NA,NA,right,1545.79999999888,true,NA,NA,NA,NA,NA
kD6Jie5t,NA,NA,kD6Jie5t,2020-0188,2021-10-04,21:42:55,23:01:54,NA,incomplete,false,true,NA,4,23,syllable,c_1_005.jpg,right,1 syllable,2 syllables,NA,NA,NA,left,2023.5,false,NA,NA,NA,NA,NA
kD6Jie5t,NA,NA,kD6Jie5t,2020-0188,2021-10-04,21:42:55,23:01:54,NA,incomplete,false,true,NA,4,24,syllable,a_1_022.jpg,right,2 syllables,1 syllable,NA,NA,NA,right,1499.09999999963,true,NA,NA,NA,NA,NA
kD6Jie5t,NA,NA,kD6Jie5t,2020-0188,2021-10-04,21:42:55,23:01:54,NA,incomplete,false,true,NA,4,25,abstractness,a_2_001.jpg,right,concrete,abstract,NA,NA,NA,right,2304.30000000075,true,NA,NA,NA,NA,NA
kD6Jie5t,NA,NA,kD6Jie5t,2020-0188,2021-10-04,21:42:55,23:01:54,NA,incomplete,false,true,NA,4,26,abstractness,c_1_006.jpg,right,abstract,concrete,NA,NA,NA,right,1251.80000000075,true,NA,NA,NA,NA,NA
kD6Jie5t,NA,NA,kD6Jie5t,2020-0188,2021-10-04,21:42:55,23:01:54,NA,incomplete,false,true,NA,4,27,abstractness,c_1_008.jpg,right,abstract,concrete,NA,NA,NA,right,1944.90000000037,true,NA,NA,NA,NA,NA
kD6Jie5t,NA,NA,kD6Jie5t,2020-0188,2021-10-04,21:42:55,23:01:54,NA,incomplete,false,true,NA,4,28,abstractness,a_2_012.jpg,left,abstract,concrete,NA,NA,NA,right,2128,false,NA,NA,NA,NA,NA
kD6Jie5t,NA,NA,kD6Jie5t,2020-0188,2021-10-04,21:42:55,23:01:54,NA,incomplete,false,true,NA,4,29,abstractness,c_1_025.jpg,right,abstract,concrete,NA,NA,NA,right,2626.69999999925,true,NA,NA,NA,NA,NA
kD6Jie5t,NA,NA,kD6Jie5t,2020-0188,2021-10-04,21:42:55,23:01:54,NA,incomplete,false,NA,true,4,0,NA,NA,left,NA,NA,i_c_006.jpg,n_s_024.jpg,between-big,NA,NaN,NA,left,10676,1,2,898.6999999992549
kD6Jie5t,NA,NA,kD6Jie5t,2020-0188,2021-10-04,21:42:55,23:01:54,NA,incomplete,false,NA,true,4,1,NA,NA,right,NA,NA,c_1_025.jpg,c_1_006.jpg,within,NA,NaN,NA,right,1644.3999999985099,1,1,1502.5
kD6Jie5t,NA,NA,kD6Jie5t,2020-0188,2021-10-04,21:42:55,23:01:54,NA,incomplete,false,NA,true,4,2,NA,NA,right,NA,NA,c_1_006.jpg,c_1_005.jpg,between-small,NA,NaN,NA,right,2482.699999999255,1,1,879.4000000003725
kD6Jie5t,NA,NA,kD6Jie5t,2020-0188,2021-10-04,21:42:55,23:01:54,NA,incomplete,false,NA,true,4,3,NA,NA,left,NA,NA,n_s_006.jpg,n_l_026.jpg,within,NA,NaN,NA,left,3855.89999999851,1,1,2572.5999999996275
kD6Jie5t,NA,NA,kD6Jie5t,2020-0188,2021-10-04,21:42:55,23:01:54,NA,incomplete,false,NA,true,4,4,NA,NA,right,NA,NA,a_2_001.jpg,c_2_024.jpg,between-small,NA,NaN,NA,right,4214.5999999996275,1,1,2674.2999999988824
kD6Jie5t,NA,NA,kD6Jie5t,2020-0188,2021-10-04,21:42:55,23:01:54,NA,incomplete,false,NA,true,4,5,NA,NA,right,NA,NA,m_s_019.jpg,n_l_006.jpg,within,NA,NaN,NA,right,1388.7999999988824,1,1,2241.199999999255
kD6Jie5t,NA,NA,kD6Jie5t,2020-0188,2021-10-04,21:42:55,23:01:54,NA,incomplete,false,NA,true,4,6,NA,NA,right,NA,NA,n_s_019.jpg,m_s_006.jpg,between-small,NA,NaN,NA,left,2384.5,0,1,2241.5
kD6Jie5t,NA,NA,kD6Jie5t,2020-0188,2021-10-04,21:42:55,23:01:54,NA,incomplete,false,NA,true,4,7,NA,NA,right,NA,NA,a_2_012.jpg,a_2_001.jpg,within,NA,NaN,NA,right,3159.800000000745,1,1,2777.5
kD6Jie5t,NA,NA,kD6Jie5t,2020-0188,2021-10-04,21:42:55,23:01:54,NA,incomplete,false,NA,true,4,8,NA,NA,right,NA,NA,i_c_024.jpg,o_s_022.jpg,between-small,NA,NaN,NA,right,1982.8999999985099,1,1,1251.800000000745
kD6Jie5t,NA,NA,kD6Jie5t,2020-0188,2021-10-04,21:42:55,23:01:54,NA,incomplete,false,NA,true,4,9,NA,NA,left,NA,NA,o_c_008.jpg,m_s_028.jpg,between-big,NA,NaN,NA,left,4479.299999998882,1,2,1171.4000000003725
kD6Jie5t,NA,NA,kD6Jie5t,2020-0188,2021-10-04,21:42:55,23:01:54,NA,incomplete,false,NA,true,4,10,NA,NA,right,NA,NA,c_1_008.jpg,a_1_022.jpg,between-small,NA,NaN,NA,left,5431.4000000003725,0,1,2810.4000000003725
kD6Jie5t,NA,NA,kD6Jie5t,2020-0188,2021-10-04,21:42:55,23:01:54,NA,incomplete,false,NA,true,4,11,NA,NA,left,NA,NA,a_1_024.jpg,a_1_022.jpg,within,NA,NaN,NA,right,3073.10000000149,0,2,1017.8000000007451
kD6Jie5t,NA,NA,kD6Jie5t,2020-0188,2021-10-04,21:42:55,23:01:54,NA,incomplete,false,NA,true,4,12,NA,NA,left,NA,NA,i_c_020.jpg,m_l_013.jpg,between-big,NA,NaN,NA,right,4534.4000000003725,0,2,2109.4000000003725
kD6Jie5t,NA,NA,kD6Jie5t,2020-0188,2021-10-04,21:42:55,23:01:54,NA,incomplete,false,NA,true,4,13,NA,NA,left,NA,NA,m_l_013.jpg,m_s_006.jpg,within,NA,NaN,NA,left,2037.8999999985099,1,1,1634.0999999996275
kD6Jie5t,NA,NA,kD6Jie5t,2020-0188,2021-10-04,21:42:55,23:01:54,NA,incomplete,false,NA,true,4,14,NA,NA,right,NA,NA,o_c_008.jpg,o_c_011.jpg,between-small,NA,NaN,NA,right,1995.199999999255,1,1,1025.5999999996275
kD6Jie5t,NA,NA,kD6Jie5t,2020-0188,2021-10-04,21:42:55,23:01:54,NA,incomplete,false,NA,true,4,15,NA,NA,left,NA,NA,n_s_024.jpg,n_l_006.jpg,between-small,NA,NaN,NA,left,5064.5999999996275,1,2,2242.60000000149
kD6Jie5t,NA,NA,kD6Jie5t,2020-0188,2021-10-04,21:42:55,23:01:54,NA,incomplete,false,NA,true,4,16,NA,NA,right,NA,NA,o_c_001.jpg,o_s_016.jpg,within,NA,NaN,NA,right,2599.0999999996275,1,0,3063.5999999996275
kD6Jie5t,NA,NA,kD6Jie5t,2020-0188,2021-10-04,21:42:55,23:01:54,NA,incomplete,false,NA,true,4,17,NA,NA,right,NA,NA,o_s_028.jpg,o_c_001.jpg,between-small,NA,NaN,NA,right,2147.10000000149,1,2,2334.60000000149
kD6Jie5t,NA,NA,kD6Jie5t,2020-0188,2021-10-04,21:42:55,23:01:54,NA,incomplete,false,NA,true,4,18,NA,NA,right,NA,NA,n_s_006.jpg,n_s_004.jpg,between-small,NA,NaN,NA,left,5873.199999999255,0,1,1419.5999999996275
kD6Jie5t,NA,NA,kD6Jie5t,2020-0188,2021-10-04,21:42:55,23:01:54,NA,incomplete,false,NA,true,4,19,NA,NA,right,NA,NA,c_1_005.jpg,a_2_007.jpg,within,NA,NaN,NA,right,3068.5999999996275,1,1,690.3999999985099
kD6Jie5t,NA,NA,kD6Jie5t,2020-0188,2021-10-04,21:42:55,23:01:54,NA,incomplete,false,NA,true,4,20,NA,NA,right,NA,NA,i_c_020.jpg,i_c_024.jpg,within,NA,NaN,NA,left,1634.699999999255,0,1,1592.6000000014901
kD6Jie5t,NA,NA,kD6Jie5t,2020-0188,2021-10-04,21:42:55,23:01:54,NA,incomplete,false,NA,true,4,21,NA,NA,left,NA,NA,n_l_026.jpg,c_2_024.jpg,between-big,NA,NaN,NA,left,2683.5999999996275,1,1,952.3999999985099
kD6Jie5t,NA,NA,kD6Jie5t,2020-0188,2021-10-04,21:42:55,23:01:54,NA,incomplete,false,NA,true,4,22,NA,NA,left,NA,NA,n_s_019.jpg,a_2_007.jpg,between-big,NA,NaN,NA,left,1625,1,3,1358.4000000003725
kD6Jie5t,NA,NA,kD6Jie5t,2020-0188,2021-10-04,21:42:55,23:01:54,NA,incomplete,false,NA,true,4,23,NA,NA,left,NA,NA,m_s_028.jpg,n_s_004.jpg,within,NA,NaN,NA,left,1999.4000000003725,1,2,841
kD6Jie5t,NA,NA,kD6Jie5t,2020-0188,2021-10-04,21:42:55,23:01:54,NA,incomplete,false,NA,true,4,24,NA,NA,left,NA,NA,o_s_028.jpg,i_c_006.jpg,within,NA,NaN,NA,left,980.1999999992549,1,1,1660.5
kD6Jie5t,NA,NA,kD6Jie5t,2020-0188,2021-10-04,21:42:55,23:01:54,NA,incomplete,false,NA,true,4,25,NA,NA,right,NA,NA,o_c_011.jpg,i_s_013.jpg,within,NA,NaN,NA,right,1612.7000000011176,1,0,1274
kD6Jie5t,NA,NA,kD6Jie5t,2020-0188,2021-10-04,21:42:55,23:01:54,NA,incomplete,false,NA,true,4,26,NA,NA,right,NA,NA,a_1_024.jpg,m_s_019.jpg,between-big,NA,NaN,NA,right,1085.9000000003725,1,1,2522
kD6Jie5t,NA,NA,kD6Jie5t,2020-0188,2021-10-04,21:42:55,23:01:54,NA,incomplete,false,true,NA,5,0,abstractness,a_2_013.jpg,right,concrete,abstract,NA,NA,NA,right,2568.69999999925,true,NA,NA,NA,NA,NA
kD6Jie5t,NA,NA,kD6Jie5t,2020-0188,2021-10-04,21:42:55,23:01:54,NA,incomplete,false,true,NA,5,1,abstractness,a_1_013.jpg,right,concrete,abstract,NA,NA,NA,right,2262.29999999888,true,NA,NA,NA,NA,NA
kD6Jie5t,NA,NA,kD6Jie5t,2020-0188,2021-10-04,21:42:55,23:01:54,NA,incomplete,false,true,NA,5,2,abstractness,c_2_009.jpg,right,abstract,concrete,NA,NA,NA,right,1918,true,NA,NA,NA,NA,NA
kD6Jie5t,NA,NA,kD6Jie5t,2020-0188,2021-10-04,21:42:55,23:01:54,NA,incomplete,false,true,NA,5,3,abstractness,c_1_011.jpg,left,concrete,abstract,NA,NA,NA,left,1894.29999999888,true,NA,NA,NA,NA,NA
kD6Jie5t,NA,NA,kD6Jie5t,2020-0188,2021-10-04,21:42:55,23:01:54,NA,incomplete,false,true,NA,5,4,abstractness,c_1_021.jpg,right,abstract,concrete,NA,NA,NA,right,1312.40000000224,true,NA,NA,NA,NA,NA
kD6Jie5t,NA,NA,kD6Jie5t,2020-0188,2021-10-04,21:42:55,23:01:54,NA,incomplete,false,true,NA,5,5,syllable,c_2_016.jpg,right,2 syllables,1 syllable,NA,NA,NA,right,2778.90000000224,true,NA,NA,NA,NA,NA
kD6Jie5t,NA,NA,kD6Jie5t,2020-0188,2021-10-04,21:42:55,23:01:54,NA,incomplete,false,true,NA,5,6,syllable,c_1_023.jpg,right,1 syllable,2 syllables,NA,NA,NA,left,2561.10000000149,false,NA,NA,NA,NA,NA
kD6Jie5t,NA,NA,kD6Jie5t,2020-0188,2021-10-04,21:42:55,23:01:54,NA,incomplete,false,true,NA,5,7,syllable,c_1_015.jpg,right,1 syllable,2 syllables,NA,NA,NA,left,1670.80000000075,false,NA,NA,NA,NA,NA
kD6Jie5t,NA,NA,kD6Jie5t,2020-0188,2021-10-04,21:42:55,23:01:54,NA,incomplete,false,true,NA,5,8,syllable,c_1_007.jpg,right,2 syllables,1 syllable,NA,NA,NA,left,1630.80000000075,false,NA,NA,NA,NA,NA
kD6Jie5t,NA,NA,kD6Jie5t,2020-0188,2021-10-04,21:42:55,23:01:54,NA,incomplete,false,true,NA,5,9,syllable,c_2_018.jpg,right,1 syllable,2 syllables,NA,NA,NA,right,1581.90000000224,true,NA,NA,NA,NA,NA
kD6Jie5t,NA,NA,kD6Jie5t,2020-0188,2021-10-04,21:42:55,23:01:54,NA,incomplete,false,true,NA,5,10,size,m_l_007.jpg,left,large,small,NA,NA,NA,left,1485.30000000075,true,NA,NA,NA,NA,NA
kD6Jie5t,NA,NA,kD6Jie5t,2020-0188,2021-10-04,21:42:55,23:01:54,NA,incomplete,false,true,NA,5,11,size,n_l_010.jpg,right,small,large,NA,NA,NA,right,1650.09999999776,true,NA,NA,NA,NA,NA
kD6Jie5t,NA,NA,kD6Jie5t,2020-0188,2021-10-04,21:42:55,23:01:54,NA,incomplete,false,true,NA,5,12,size,n_s_017.jpg,right,large,small,NA,NA,NA,right,916.5,true,NA,NA,NA,NA,NA
kD6Jie5t,NA,NA,kD6Jie5t,2020-0188,2021-10-04,21:42:55,23:01:54,NA,incomplete,false,true,NA,5,13,size,m_s_021.jpg,left,small,large,NA,NA,NA,left,2562.30000000075,true,NA,NA,NA,NA,NA
kD6Jie5t,NA,NA,kD6Jie5t,2020-0188,2021-10-04,21:42:55,23:01:54,NA,incomplete,false,true,NA,5,14,size,n_s_002.jpg,left,small,large,NA,NA,NA,left,1070.89999999851,true,NA,NA,NA,NA,NA
kD6Jie5t,NA,NA,kD6Jie5t,2020-0188,2021-10-04,21:42:55,23:01:54,NA,incomplete,false,true,NA,5,15,origin,n_l_024.jpg,left,natural,manmade,NA,NA,NA,left,2604.5,true,NA,NA,NA,NA,NA
kD6Jie5t,NA,NA,kD6Jie5t,2020-0188,2021-10-04,21:42:55,23:01:54,NA,incomplete,false,true,NA,5,16,origin,m_s_011.jpg,left,manmade,natural,NA,NA,NA,left,1505,true,NA,NA,NA,NA,NA
kD6Jie5t,NA,NA,kD6Jie5t,2020-0188,2021-10-04,21:42:55,23:01:54,NA,incomplete,false,true,NA,5,17,origin,n_l_013.jpg,left,natural,manmade,NA,NA,NA,left,1143.30000000075,true,NA,NA,NA,NA,NA
kD6Jie5t,NA,NA,kD6Jie5t,2020-0188,2021-10-04,21:42:55,23:01:54,NA,incomplete,false,true,NA,5,18,origin,n_l_003.jpg,right,manmade,natural,NA,NA,NA,right,2688.19999999925,true,NA,NA,NA,NA,NA
kD6Jie5t,NA,NA,kD6Jie5t,2020-0188,2021-10-04,21:42:55,23:01:54,NA,incomplete,false,true,NA,5,19,origin,n_s_022.jpg,right,manmade,natural,NA,NA,NA,right,1748.69999999925,true,NA,NA,NA,NA,NA
kD6Jie5t,NA,NA,kD6Jie5t,2020-0188,2021-10-04,21:42:55,23:01:54,NA,incomplete,false,true,NA,5,20,location,o_s_011.jpg,left,outdoor,indoor,NA,NA,NA,left,1570.19999999925,true,NA,NA,NA,NA,NA
kD6Jie5t,NA,NA,kD6Jie5t,2020-0188,2021-10-04,21:42:55,23:01:54,NA,incomplete,false,true,NA,5,21,location,i_c_027.jpg,right,outdoor,indoor,NA,NA,NA,right,1088.30000000075,true,NA,NA,NA,NA,NA
kD6Jie5t,NA,NA,kD6Jie5t,2020-0188,2021-10-04,21:42:55,23:01:54,NA,incomplete,false,true,NA,5,22,location,i_s_014.jpg,left,indoor,outdoor,NA,NA,NA,left,1190.69999999925,true,NA,NA,NA,NA,NA
kD6Jie5t,NA,NA,kD6Jie5t,2020-0188,2021-10-04,21:42:55,23:01:54,NA,incomplete,false,true,NA,5,23,location,i_c_017.jpg,left,indoor,outdoor,NA,NA,NA,left,1502.70000000298,true,NA,NA,NA,NA,NA
kD6Jie5t,NA,NA,kD6Jie5t,2020-0188,2021-10-04,21:42:55,23:01:54,NA,incomplete,false,true,NA,5,24,location,o_c_019.jpg,left,outdoor,indoor,NA,NA,NA,left,1535.79999999702,true,NA,NA,NA,NA,NA
kD6Jie5t,NA,NA,kD6Jie5t,2020-0188,2021-10-04,21:42:55,23:01:54,NA,incomplete,false,true,NA,5,25,building,i_s_001.jpg,right,cottage,skyscraper,NA,NA,NA,right,1147.09999999776,true,NA,NA,NA,NA,NA
kD6Jie5t,NA,NA,kD6Jie5t,2020-0188,2021-10-04,21:42:55,23:01:54,NA,incomplete,false,true,NA,5,26,building,i_c_019.jpg,right,skyscraper,cottage,NA,NA,NA,right,1590.89999999851,true,NA,NA,NA,NA,NA
kD6Jie5t,NA,NA,kD6Jie5t,2020-0188,2021-10-04,21:42:55,23:01:54,NA,incomplete,false,true,NA,5,27,building,i_s_005.jpg,left,skyscraper,cottage,NA,NA,NA,right,695.5,false,NA,NA,NA,NA,NA
kD6Jie5t,NA,NA,kD6Jie5t,2020-0188,2021-10-04,21:42:55,23:01:54,NA,incomplete,false,true,NA,5,28,building,i_s_024.jpg,right,cottage,skyscraper,NA,NA,NA,right,861.599999997765,true,NA,NA,NA,NA,NA
kD6Jie5t,NA,NA,kD6Jie5t,2020-0188,2021-10-04,21:42:55,23:01:54,NA,incomplete,false,true,NA,5,29,building,o_c_010.jpg,left,cottage,skyscraper,NA,NA,NA,left,1452.29999999702,true,NA,NA,NA,NA,NA
kD6Jie5t,NA,NA,kD6Jie5t,2020-0188,2021-10-04,21:42:55,23:01:54,NA,incomplete,false,NA,true,5,0,NA,NA,right,NA,NA,c_2_018.jpg,c_1_023.jpg,within,NA,NaN,NA,left,1287.6000000014901,0,1,1236
kD6Jie5t,NA,NA,kD6Jie5t,2020-0188,2021-10-04,21:42:55,23:01:54,NA,incomplete,false,NA,true,5,1,NA,NA,right,NA,NA,c_1_015.jpg,c_1_021.jpg,between-small,NA,NaN,NA,right,2568.599999997765,1,2,1113.6000000014901
kD6Jie5t,NA,NA,kD6Jie5t,2020-0188,2021-10-04,21:42:55,23:01:54,NA,incomplete,false,NA,true,5,2,NA,NA,left,NA,NA,o_s_011.jpg,i_c_017.jpg,within,NA,NaN,NA,left,2153.800000000745,1,1,1517.199999999255
kD6Jie5t,NA,NA,kD6Jie5t,2020-0188,2021-10-04,21:42:55,23:01:54,NA,incomplete,false,NA,true,5,3,NA,NA,right,NA,NA,n_l_013.jpg,n_s_002.jpg,between-small,NA,NaN,NA,right,1959.4000000022352,1,2,1140.5
kD6Jie5t,NA,NA,kD6Jie5t,2020-0188,2021-10-04,21:42:55,23:01:54,NA,incomplete,false,NA,true,5,4,NA,NA,right,NA,NA,c_2_016.jpg,c_2_009.jpg,between-small,NA,NaN,NA,left,2094,0,0,1127
kD6Jie5t,NA,NA,kD6Jie5t,2020-0188,2021-10-04,21:42:55,23:01:54,NA,incomplete,false,NA,true,5,5,NA,NA,left,NA,NA,a_2_013.jpg,c_1_011.jpg,within,NA,NaN,NA,left,1733.8999999985099,1,0,1305.2999999970198
kD6Jie5t,NA,NA,kD6Jie5t,2020-0188,2021-10-04,21:42:55,23:01:54,NA,incomplete,false,NA,true,5,6,NA,NA,right,NA,NA,n_s_002.jpg,n_l_010.jpg,within,NA,NaN,NA,left,1604.8999999985099,0,2,1871.6000000014901
kD6Jie5t,NA,NA,kD6Jie5t,2020-0188,2021-10-04,21:42:55,23:01:54,NA,incomplete,false,NA,true,5,7,NA,NA,right,NA,NA,c_1_007.jpg,c_2_016.jpg,within,NA,NaN,NA,right,1285.4000000022352,1,2,744.8000000007451
kD6Jie5t,NA,NA,kD6Jie5t,2020-0188,2021-10-04,21:42:55,23:01:54,NA,incomplete,false,NA,true,5,8,NA,NA,left,NA,NA,c_1_015.jpg,m_l_007.jpg,between-big,NA,NaN,NA,right,2064.599999997765,0,2,1623.7999999970198
kD6Jie5t,NA,NA,kD6Jie5t,2020-0188,2021-10-04,21:42:55,23:01:54,NA,incomplete,false,NA,true,5,9,NA,NA,left,NA,NA,i_s_014.jpg,i_s_001.jpg,between-small,NA,NaN,NA,right,6042.89999999851,0,1,5143.60000000149
kD6Jie5t,NA,NA,kD6Jie5t,2020-0188,2021-10-04,21:42:55,23:01:54,NA,incomplete,false,NA,true,5,10,NA,NA,right,NA,NA,n_l_010.jpg,c_1_007.jpg,between-big,NA,NaN,NA,right,1095.5,1,2,3168.39999999851
kD6Jie5t,NA,NA,kD6Jie5t,2020-0188,2021-10-04,21:42:55,23:01:54,NA,incomplete,false,NA,true,5,11,NA,NA,right,NA,NA,i_s_014.jpg,n_s_022.jpg,between-big,NA,NaN,NA,right,6806.800000000745,1,2,1428.3999999985099
kD6Jie5t,NA,NA,kD6Jie5t,2020-0188,2021-10-04,21:42:55,23:01:54,NA,incomplete,false,NA,true,5,12,NA,NA,right,NA,NA,c_1_023.jpg,c_1_011.jpg,between-small,NA,NaN,NA,right,1276,1,2,1750.5
kD6Jie5t,NA,NA,kD6Jie5t,2020-0188,2021-10-04,21:42:55,23:01:54,NA,incomplete,false,NA,true,5,13,NA,NA,left,NA,NA,n_l_024.jpg,n_l_003.jpg,within,NA,NaN,NA,left,4190.800000000745,1,2,638.1999999992549
kD6Jie5t,NA,NA,kD6Jie5t,2020-0188,2021-10-04,21:42:55,23:01:54,NA,incomplete,false,NA,true,5,14,NA,NA,left,NA,NA,m_s_011.jpg,n_s_022.jpg,within,NA,NaN,NA,left,3003.800000000745,1,2,1392.4000000022352
kD6Jie5t,NA,NA,kD6Jie5t,2020-0188,2021-10-04,21:42:55,23:01:54,NA,incomplete,false,NA,true,5,15,NA,NA,right,NA,NA,i_s_024.jpg,i_s_001.jpg,within,NA,NaN,NA,left,5108.900000002235,0,2,916.3000000007451
kD6Jie5t,NA,NA,kD6Jie5t,2020-0188,2021-10-04,21:42:55,23:01:54,NA,incomplete,false,NA,true,5,16,NA,NA,left,NA,NA,i_c_027.jpg,o_c_019.jpg,within,NA,NaN,NA,left,8675.60000000149,1,1,1418.800000000745
kD6Jie5t,NA,NA,kD6Jie5t,2020-0188,2021-10-04,21:42:55,23:01:54,NA,incomplete,false,NA,true,5,17,NA,NA,right,NA,NA,i_c_019.jpg,i_c_017.jpg,between-small,NA,NaN,NA,right,16680.10000000149,1,2,2099.39999999851
kD6Jie5t,NA,NA,kD6Jie5t,2020-0188,2021-10-04,21:42:55,23:01:54,NA,incomplete,false,NA,true,5,18,NA,NA,right,NA,NA,o_c_010.jpg,i_c_019.jpg,within,NA,NaN,NA,left,1240.800000000745,0,2,1042.5
kD6Jie5t,NA,NA,kD6Jie5t,2020-0188,2021-10-04,21:42:55,23:01:54,NA,incomplete,false,NA,true,5,19,NA,NA,left,NA,NA,m_l_007.jpg,m_s_021.jpg,within,NA,NaN,NA,right,1106,0,1,2325.199999999255
kD6Jie5t,NA,NA,kD6Jie5t,2020-0188,2021-10-04,21:42:55,23:01:54,NA,incomplete,false,NA,true,5,20,NA,NA,right,NA,NA,i_s_005.jpg,o_c_019.jpg,between-small,NA,NaN,NA,right,2291.800000000745,1,2,936.1999999992549
kD6Jie5t,NA,NA,kD6Jie5t,2020-0188,2021-10-04,21:42:55,23:01:54,NA,incomplete,false,NA,true,5,21,NA,NA,left,NA,NA,n_s_017.jpg,n_l_024.jpg,between-small,NA,NaN,NA,left,892.9000000022352,1,2,979.4000000022352
kD6Jie5t,NA,NA,kD6Jie5t,2020-0188,2021-10-04,21:42:55,23:01:54,NA,incomplete,false,NA,true,5,22,NA,NA,right,NA,NA,c_1_021.jpg,a_1_013.jpg,within,NA,NaN,NA,left,993.9000000022352,0,1,1622.300000000745
kD6Jie5t,NA,NA,kD6Jie5t,2020-0188,2021-10-04,21:42:55,23:01:54,NA,incomplete,false,NA,true,5,23,NA,NA,left,NA,NA,m_s_021.jpg,m_s_011.jpg,between-small,NA,NaN,NA,left,921,1,2,974.4000000022352
kD6Jie5t,NA,NA,kD6Jie5t,2020-0188,2021-10-04,21:42:55,23:01:54,NA,incomplete,false,NA,true,5,24,NA,NA,right,NA,NA,o_s_011.jpg,n_l_013.jpg,between-big,NA,NaN,NA,left,925.6999999992549,0,2,897.8999999985099
kD6Jie5t,NA,NA,kD6Jie5t,2020-0188,2021-10-04,21:42:55,23:01:54,NA,incomplete,false,NA,true,5,25,NA,NA,right,NA,NA,n_s_017.jpg,c_2_018.jpg,between-big,NA,NaN,NA,left,6025.89999999851,0,2,1038.5999999977648
kD6Jie5t,NA,NA,kD6Jie5t,2020-0188,2021-10-04,21:42:55,23:01:54,NA,incomplete,false,NA,true,5,26,NA,NA,right,NA,NA,i_c_027.jpg,n_l_003.jpg,between-big,NA,NaN,NA,right,1388.8999999985099,1,2,1045.1000000014901
kD6Jie5t,NA,NA,kD6Jie5t,2020-0188,2021-10-04,21:42:55,23:01:54,NA,incomplete,false,true,NA,6,0,building,o_c_026.jpg,right,skyscraper,cottage,NA,NA,NA,right,1541,true,NA,NA,NA,NA,NA
kD6Jie5t,NA,NA,kD6Jie5t,2020-0188,2021-10-04,21:42:55,23:01:54,NA,incomplete,false,true,NA,6,1,building,i_s_004.jpg,right,cottage,skyscraper,NA,NA,NA,right,1319.5,true,NA,NA,NA,NA,NA
kD6Jie5t,NA,NA,kD6Jie5t,2020-0188,2021-10-04,21:42:55,23:01:54,NA,incomplete,false,true,NA,6,2,building,o_s_005.jpg,right,cottage,skyscraper,NA,NA,NA,right,2138.80000000075,true,NA,NA,NA,NA,NA
kD6Jie5t,NA,NA,kD6Jie5t,2020-0188,2021-10-04,21:42:55,23:01:54,NA,incomplete,false,true,NA,6,3,building,o_c_002.jpg,right,skyscraper,cottage,NA,NA,NA,right,1507.69999999925,true,NA,NA,NA,NA,NA
kD6Jie5t,NA,NA,kD6Jie5t,2020-0188,2021-10-04,21:42:55,23:01:54,NA,incomplete,false,true,NA,6,4,building,o_c_014.jpg,left,cottage,skyscraper,NA,NA,NA,left,1189.60000000149,true,NA,NA,NA,NA,NA
kD6Jie5t,NA,NA,kD6Jie5t,2020-0188,2021-10-04,21:42:55,23:01:54,NA,incomplete,false,true,NA,6,5,location,i_s_011.jpg,left,indoor,outdoor,NA,NA,NA,left,1890.69999999925,true,NA,NA,NA,NA,NA
kD6Jie5t,NA,NA,kD6Jie5t,2020-0188,2021-10-04,21:42:55,23:01:54,NA,incomplete,false,true,NA,6,6,location,o_c_024.jpg,left,outdoor,indoor,NA,NA,NA,left,1340.80000000075,true,NA,NA,NA,NA,NA
kD6Jie5t,NA,NA,kD6Jie5t,2020-0188,2021-10-04,21:42:55,23:01:54,NA,incomplete,false,true,NA,6,7,location,i_s_027.jpg,left,indoor,outdoor,NA,NA,NA,left,2530.89999999851,true,NA,NA,NA,NA,NA
kD6Jie5t,NA,NA,kD6Jie5t,2020-0188,2021-10-04,21:42:55,23:01:54,NA,incomplete,false,true,NA,6,8,location,o_s_017.jpg,right,indoor,outdoor,NA,NA,NA,right,1200.60000000149,true,NA,NA,NA,NA,NA
kD6Jie5t,NA,NA,kD6Jie5t,2020-0188,2021-10-04,21:42:55,23:01:54,NA,incomplete,false,true,NA,6,9,location,i_s_017.jpg,right,outdoor,indoor,NA,NA,NA,right,2066.5,true,NA,NA,NA,NA,NA
kD6Jie5t,NA,NA,kD6Jie5t,2020-0188,2021-10-04,21:42:55,23:01:54,NA,incomplete,false,true,NA,6,10,origin,m_l_023.jpg,right,natural,manmade,NA,NA,NA,right,1025.10000000149,true,NA,NA,NA,NA,NA
kD6Jie5t,NA,NA,kD6Jie5t,2020-0188,2021-10-04,21:42:55,23:01:54,NA,incomplete,false,true,NA,6,11,origin,m_s_024.jpg,right,natural,manmade,NA,NA,NA,right,1298.30000000075,true,NA,NA,NA,NA,NA
kD6Jie5t,NA,NA,kD6Jie5t,2020-0188,2021-10-04,21:42:55,23:01:54,NA,incomplete,false,true,NA,6,12,origin,m_l_020.jpg,left,manmade,natural,NA,NA,NA,left,1400.69999999925,true,NA,NA,NA,NA,NA
kD6Jie5t,NA,NA,kD6Jie5t,2020-0188,2021-10-04,21:42:55,23:01:54,NA,incomplete,false,true,NA,6,13,origin,m_l_019.jpg,right,natural,manmade,NA,NA,NA,right,1229.80000000075,true,NA,NA,NA,NA,NA
kD6Jie5t,NA,NA,kD6Jie5t,2020-0188,2021-10-04,21:42:55,23:01:54,NA,incomplete,false,true,NA,6,14,origin,n_s_020.jpg,left,natural,manmade,NA,NA,NA,left,2476.69999999925,true,NA,NA,NA,NA,NA
kD6Jie5t,NA,NA,kD6Jie5t,2020-0188,2021-10-04,21:42:55,23:01:54,NA,incomplete,false,true,NA,6,15,size,n_l_016.jpg,right,small,large,NA,NA,NA,right,2617.10000000149,true,NA,NA,NA,NA,NA
kD6Jie5t,NA,NA,kD6Jie5t,2020-0188,2021-10-04,21:42:55,23:01:54,NA,incomplete,false,true,NA,6,16,size,m_l_002.jpg,left,large,small,NA,NA,NA,left,2091.60000000149,true,NA,NA,NA,NA,NA
kD6Jie5t,NA,NA,kD6Jie5t,2020-0188,2021-10-04,21:42:55,23:01:54,NA,incomplete,false,true,NA,6,17,size,n_s_012.jpg,right,large,small,NA,NA,NA,right,1936.39999999851,true,NA,NA,NA,NA,NA
kD6Jie5t,NA,NA,kD6Jie5t,2020-0188,2021-10-04,21:42:55,23:01:54,NA,incomplete,false,true,NA,6,18,size,m_s_026.jpg,left,small,large,NA,NA,NA,left,1483.69999999925,true,NA,NA,NA,NA,NA
kD6Jie5t,NA,NA,kD6Jie5t,2020-0188,2021-10-04,21:42:55,23:01:54,NA,incomplete,false,true,NA,6,19,size,n_l_028.jpg,left,large,small,NA,NA,NA,left,1198.79999999702,true,NA,NA,NA,NA,NA
kD6Jie5t,NA,NA,kD6Jie5t,2020-0188,2021-10-04,21:42:55,23:01:54,NA,incomplete,false,true,NA,6,20,abstractness,a_1_021.jpg,left,abstract,concrete,NA,NA,NA,left,2430.10000000149,true,NA,NA,NA,NA,NA
kD6Jie5t,NA,NA,kD6Jie5t,2020-0188,2021-10-04,21:42:55,23:01:54,NA,incomplete,false,true,NA,6,21,abstractness,c_2_007.jpg,right,abstract,concrete,NA,NA,NA,right,2251,true,NA,NA,NA,NA,NA
kD6Jie5t,NA,NA,kD6Jie5t,2020-0188,2021-10-04,21:42:55,23:01:54,NA,incomplete,false,true,NA,6,22,abstractness,a_1_004.jpg,right,concrete,abstract,NA,NA,NA,right,1612.19999999925,true,NA,NA,NA,NA,NA
kD6Jie5t,NA,NA,kD6Jie5t,2020-0188,2021-10-04,21:42:55,23:01:54,NA,incomplete,false,true,NA,6,23,abstractness,a_1_005.jpg,right,concrete,abstract,NA,NA,NA,right,1343.80000000075,true,NA,NA,NA,NA,NA
kD6Jie5t,NA,NA,kD6Jie5t,2020-0188,2021-10-04,21:42:55,23:01:54,NA,incomplete,false,true,NA,6,24,abstractness,c_1_019.jpg,left,concrete,abstract,NA,NA,NA,left,1475.19999999925,true,NA,NA,NA,NA,NA
kD6Jie5t,NA,NA,kD6Jie5t,2020-0188,2021-10-04,21:42:55,23:01:54,NA,incomplete,false,true,NA,6,25,syllable,a_2_016.jpg,right,2 syllables,1 syllable,NA,NA,NA,left,1958.19999999925,false,NA,NA,NA,NA,NA
kD6Jie5t,NA,NA,kD6Jie5t,2020-0188,2021-10-04,21:42:55,23:01:54,NA,incomplete,false,true,NA,6,26,syllable,c_2_019.jpg,right,2 syllables,1 syllable,NA,NA,NA,left,1052.30000000075,false,NA,NA,NA,NA,NA
kD6Jie5t,NA,NA,kD6Jie5t,2020-0188,2021-10-04,21:42:55,23:01:54,NA,incomplete,false,true,NA,6,27,syllable,c_2_023.jpg,right,2 syllables,1 syllable,NA,NA,NA,left,1464.09999999776,false,NA,NA,NA,NA,NA
kD6Jie5t,NA,NA,kD6Jie5t,2020-0188,2021-10-04,21:42:55,23:01:54,NA,incomplete,false,true,NA,6,28,syllable,a_2_010.jpg,right,1 syllable,2 syllables,NA,NA,NA,right,2367.69999999925,true,NA,NA,NA,NA,NA
kD6Jie5t,NA,NA,kD6Jie5t,2020-0188,2021-10-04,21:42:55,23:01:54,NA,incomplete,false,true,NA,6,29,syllable,a_2_019.jpg,right,1 syllable,2 syllables,NA,NA,NA,right,2007.19999999925,true,NA,NA,NA,NA,NA
kD6Jie5t,NA,NA,kD6Jie5t,2020-0188,2021-10-04,21:42:55,23:01:54,NA,incomplete,false,NA,true,6,0,NA,NA,left,NA,NA,a_1_021.jpg,a_1_005.jpg,within,NA,NaN,NA,left,9884.599999997765,1,0,1407.199999999255
kD6Jie5t,NA,NA,kD6Jie5t,2020-0188,2021-10-04,21:42:55,23:01:54,NA,incomplete,false,NA,true,6,1,NA,NA,left,NA,NA,o_c_002.jpg,o_c_024.jpg,between-small,NA,NaN,NA,left,4748.20000000298,1,1,1244.9000000022352
kD6Jie5t,NA,NA,kD6Jie5t,2020-0188,2021-10-04,21:42:55,23:01:54,NA,incomplete,false,NA,true,6,2,NA,NA,left,NA,NA,o_c_024.jpg,i_s_017.jpg,within,NA,NaN,NA,left,1455.800000000745,1,1,1380.3999999985099
kD6Jie5t,NA,NA,kD6Jie5t,2020-0188,2021-10-04,21:42:55,23:01:54,NA,incomplete,false,NA,true,6,3,NA,NA,left,NA,NA,n_l_016.jpg,m_s_026.jpg,within,NA,NaN,NA,left,1305,1,1,1776.5
kD6Jie5t,NA,NA,kD6Jie5t,2020-0188,2021-10-04,21:42:55,23:01:54,NA,incomplete,false,NA,true,6,4,NA,NA,left,NA,NA,c_2_007.jpg,c_1_019.jpg,within,NA,NaN,NA,left,1319.0999999977648,1,1,1006.4000000022352
kD6Jie5t,NA,NA,kD6Jie5t,2020-0188,2021-10-04,21:42:55,23:01:54,NA,incomplete,false,NA,true,6,5,NA,NA,right,NA,NA,a_2_019.jpg,c_2_019.jpg,within,NA,NaN,NA,right,1965.5,1,1,680.5999999977648
kD6Jie5t,NA,NA,kD6Jie5t,2020-0188,2021-10-04,21:42:55,23:01:54,NA,incomplete,false,NA,true,6,6,NA,NA,left,NA,NA,m_l_019.jpg,m_l_002.jpg,between-small,NA,NaN,NA,left,1829.5,1,2,862.5999999977648
kD6Jie5t,NA,NA,kD6Jie5t,2020-0188,2021-10-04,21:42:55,23:01:54,NA,incomplete,false,NA,true,6,7,NA,NA,right,NA,NA,m_l_020.jpg,i_s_017.jpg,between-big,NA,NaN,NA,right,1538.3999999985099,1,2,532.1999999992549
kD6Jie5t,NA,NA,kD6Jie5t,2020-0188,2021-10-04,21:42:55,23:01:54,NA,incomplete,false,NA,true,6,8,NA,NA,left,NA,NA,o_s_017.jpg,m_s_024.jpg,between-big,NA,NaN,NA,right,2749.89999999851,0,2,2252.5
kD6Jie5t,NA,NA,kD6Jie5t,2020-0188,2021-10-04,21:42:55,23:01:54,NA,incomplete,false,NA,true,6,9,NA,NA,right,NA,NA,n_s_012.jpg,n_s_020.jpg,between-small,NA,NaN,NA,left,2743.699999999255,0,2,886.1999999992549
kD6Jie5t,NA,NA,kD6Jie5t,2020-0188,2021-10-04,21:42:55,23:01:54,NA,incomplete,false,NA,true,6,10,NA,NA,left,NA,NA,n_l_028.jpg,a_1_004.jpg,between-big,NA,NaN,NA,right,2217.5,0,2,1025.5999999977648
kD6Jie5t,NA,NA,kD6Jie5t,2020-0188,2021-10-04,21:42:55,23:01:54,NA,incomplete,false,NA,true,6,11,NA,NA,right,NA,NA,o_c_002.jpg,o_c_026.jpg,within,NA,NaN,NA,left,2101.800000000745,0,2,1227.1000000014901
kD6Jie5t,NA,NA,kD6Jie5t,2020-0188,2021-10-04,21:42:55,23:01:54,NA,incomplete,false,NA,true,6,12,NA,NA,left,NA,NA,m_s_026.jpg,c_2_007.jpg,between-big,NA,NaN,NA,left,1864.1000000014901,1,1,1568.800000000745
kD6Jie5t,NA,NA,kD6Jie5t,2020-0188,2021-10-04,21:42:55,23:01:54,NA,incomplete,false,NA,true,6,13,NA,NA,right,NA,NA,a_2_010.jpg,a_2_016.jpg,within,NA,NaN,NA,left,20940.800000000745,0,1,1142.5
kD6Jie5t,NA,NA,kD6Jie5t,2020-0188,2021-10-04,21:42:55,23:01:54,NA,incomplete,false,NA,true,6,14,NA,NA,right,NA,NA,a_2_016.jpg,a_1_004.jpg,between-small,NA,NaN,NA,left,1205.6000000014901,0,1,2150.5
kD6Jie5t,NA,NA,kD6Jie5t,2020-0188,2021-10-04,21:42:55,23:01:54,NA,incomplete,false,NA,true,6,15,NA,NA,right,NA,NA,o_c_014.jpg,i_s_004.jpg,within,NA,NaN,NA,right,3287.699999999255,1,2,1390.5
kD6Jie5t,NA,NA,kD6Jie5t,2020-0188,2021-10-04,21:42:55,23:01:54,NA,incomplete,false,NA,true,6,16,NA,NA,right,NA,NA,n_l_016.jpg,m_l_020.jpg,between-small,NA,NaN,NA,right,998.9000000022352,1,2,1171.300000000745
kD6Jie5t,NA,NA,kD6Jie5t,2020-0188,2021-10-04,21:42:55,23:01:54,NA,incomplete,false,NA,true,6,17,NA,NA,left,NA,NA,i_s_011.jpg,o_s_017.jpg,within,NA,NaN,NA,left,1395.8999999985099,1,2,812.9000000022352
kD6Jie5t,NA,NA,kD6Jie5t,2020-0188,2021-10-04,21:42:55,23:01:54,NA,incomplete,false,NA,true,6,18,NA,NA,right,NA,NA,i_s_027.jpg,o_c_014.jpg,between-small,NA,NaN,NA,left,1251.8999999985099,0,2,737.5
kD6Jie5t,NA,NA,kD6Jie5t,2020-0188,2021-10-04,21:42:55,23:01:54,NA,incomplete,false,NA,true,6,19,NA,NA,right,NA,NA,c_2_019.jpg,a_1_005.jpg,between-small,NA,NaN,NA,right,1239.800000000745,1,1,2425
kD6Jie5t,NA,NA,kD6Jie5t,2020-0188,2021-10-04,21:42:55,23:01:54,NA,incomplete,false,NA,true,6,20,NA,NA,right,NA,NA,n_l_028.jpg,m_l_002.jpg,within,NA,NaN,NA,right,1408.699999999255,1,2,1221.3999999985099
kD6Jie5t,NA,NA,kD6Jie5t,2020-0188,2021-10-04,21:42:55,23:01:54,NA,incomplete,false,NA,true,6,21,NA,NA,left,NA,NA,o_s_005.jpg,i_s_011.jpg,between-small,NA,NaN,NA,left,1503.800000000745,1,2,4125.400000002235
kD6Jie5t,NA,NA,kD6Jie5t,2020-0188,2021-10-04,21:42:55,23:01:54,NA,incomplete,false,NA,true,6,22,NA,NA,right,NA,NA,n_s_020.jpg,m_s_024.jpg,within,NA,NaN,NA,right,2851.699999999255,1,2,987.5
kD6Jie5t,NA,NA,kD6Jie5t,2020-0188,2021-10-04,21:42:55,23:01:54,NA,incomplete,false,NA,true,6,23,NA,NA,right,NA,NA,c_2_023.jpg,c_1_019.jpg,between-small,NA,NaN,NA,left,2135.699999999255,0,2,2131.5
kD6Jie5t,NA,NA,kD6Jie5t,2020-0188,2021-10-04,21:42:55,23:01:54,NA,incomplete,false,NA,true,6,24,NA,NA,right,NA,NA,m_l_023.jpg,i_s_027.jpg,between-big,NA,NaN,NA,left,1660.6000000014901,0,2,3142.400000002235
kD6Jie5t,NA,NA,kD6Jie5t,2020-0188,2021-10-04,21:42:55,23:01:54,NA,incomplete,false,NA,true,6,25,NA,NA,right,NA,NA,a_1_021.jpg,n_s_012.jpg,between-big,NA,NaN,NA,right,1150.2999999970198,1,2,1462.2000000029802
kD6Jie5t,NA,NA,kD6Jie5t,2020-0188,2021-10-04,21:42:55,23:01:54,NA,incomplete,false,NA,true,6,26,NA,NA,left,NA,NA,m_l_023.jpg,m_l_019.jpg,within,NA,NaN,NA,left,907,1,1,1993.6000000014901
kD6Jie5t,NA,NA,kD6Jie5t,2020-0188,2021-10-04,21:42:55,23:01:54,NA,incomplete,false,true,NA,7,0,origin,n_l_002.jpg,left,natural,manmade,NA,NA,NA,left,1567.89999999851,true,NA,NA,NA,NA,NA
kD6Jie5t,NA,NA,kD6Jie5t,2020-0188,2021-10-04,21:42:55,23:01:54,NA,incomplete,false,true,NA,7,1,origin,n_s_014.jpg,left,natural,manmade,NA,NA,NA,left,1231.19999999925,true,NA,NA,NA,NA,NA
kD6Jie5t,NA,NA,kD6Jie5t,2020-0188,2021-10-04,21:42:55,23:01:54,NA,incomplete,false,true,NA,7,2,origin,m_l_009.jpg,left,manmade,natural,NA,NA,NA,left,2004.29999999702,true,NA,NA,NA,NA,NA
kD6Jie5t,NA,NA,kD6Jie5t,2020-0188,2021-10-04,21:42:55,23:01:54,NA,incomplete,false,true,NA,7,3,origin,n_l_009.jpg,right,manmade,natural,NA,NA,NA,right,1318,true,NA,NA,NA,NA,NA
kD6Jie5t,NA,NA,kD6Jie5t,2020-0188,2021-10-04,21:42:55,23:01:54,NA,incomplete,false,true,NA,7,4,origin,n_s_023.jpg,left,natural,manmade,NA,NA,NA,left,1440.69999999925,true,NA,NA,NA,NA,NA
kD6Jie5t,NA,NA,kD6Jie5t,2020-0188,2021-10-04,21:42:55,23:01:54,NA,incomplete,false,true,NA,7,5,size,m_s_022.jpg,left,small,large,NA,NA,NA,left,2397.59999999776,true,NA,NA,NA,NA,NA
kD6Jie5t,NA,NA,kD6Jie5t,2020-0188,2021-10-04,21:42:55,23:01:54,NA,incomplete,false,true,NA,7,6,size,m_l_005.jpg,right,small,large,NA,NA,NA,right,2673.40000000224,true,NA,NA,NA,NA,NA
kD6Jie5t,NA,NA,kD6Jie5t,2020-0188,2021-10-04,21:42:55,23:01:54,NA,incomplete,false,true,NA,7,7,size,n_s_001.jpg,left,small,large,NA,NA,NA,left,1546,true,NA,NA,NA,NA,NA
kD6Jie5t,NA,NA,kD6Jie5t,2020-0188,2021-10-04,21:42:55,23:01:54,NA,incomplete,false,true,NA,7,8,size,n_l_020.jpg,left,large,small,NA,NA,NA,right,1047.09999999776,false,NA,NA,NA,NA,NA
kD6Jie5t,NA,NA,kD6Jie5t,2020-0188,2021-10-04,21:42:55,23:01:54,NA,incomplete,false,true,NA,7,9,size,m_s_003.jpg,right,large,small,NA,NA,NA,right,1477.60000000149,true,NA,NA,NA,NA,NA
kD6Jie5t,NA,NA,kD6Jie5t,2020-0188,2021-10-04,21:42:55,23:01:54,NA,incomplete,false,true,NA,7,10,syllable,c_2_003.jpg,right,1 syllable,2 syllables,NA,NA,NA,right,2783.5,true,NA,NA,NA,NA,NA
kD6Jie5t,NA,NA,kD6Jie5t,2020-0188,2021-10-04,21:42:55,23:01:54,NA,incomplete,false,true,NA,7,11,syllable,a_1_016.jpg,right,1 syllable,2 syllables,NA,NA,NA,left,1011.09999999776,false,NA,NA,NA,NA,NA
kD6Jie5t,NA,NA,kD6Jie5t,2020-0188,2021-10-04,21:42:55,23:01:54,NA,incomplete,false,true,NA,7,12,syllable,a_2_022.jpg,right,1 syllable,2 syllables,NA,NA,NA,right,2439.80000000075,true,NA,NA,NA,NA,NA
kD6Jie5t,NA,NA,kD6Jie5t,2020-0188,2021-10-04,21:42:55,23:01:54,NA,incomplete,false,true,NA,7,13,syllable,a_1_010.jpg,right,2 syllables,1 syllable,NA,NA,NA,right,2034.60000000149,true,NA,NA,NA,NA,NA
kD6Jie5t,NA,NA,kD6Jie5t,2020-0188,2021-10-04,21:42:55,23:01:54,NA,incomplete,false,true,NA,7,14,syllable,c_1_020.jpg,right,1 syllable,2 syllables,NA,NA,NA,right,2687.09999999776,true,NA,NA,NA,NA,NA
kD6Jie5t,NA,NA,kD6Jie5t,2020-0188,2021-10-04,21:42:55,23:01:54,NA,incomplete,false,true,NA,7,15,abstractness,c_2_015.jpg,right,abstract,concrete,NA,NA,NA,right,2990.5,true,NA,NA,NA,NA,NA
kD6Jie5t,NA,NA,kD6Jie5t,2020-0188,2021-10-04,21:42:55,23:01:54,NA,incomplete,false,true,NA,7,16,abstractness,a_2_020.jpg,right,concrete,abstract,NA,NA,NA,right,1830.69999999925,true,NA,NA,NA,NA,NA
kD6Jie5t,NA,NA,kD6Jie5t,2020-0188,2021-10-04,21:42:55,23:01:54,NA,incomplete,false,true,NA,7,17,abstractness,a_2_021.jpg,left,abstract,concrete,NA,NA,NA,left,1709.09999999776,true,NA,NA,NA,NA,NA
kD6Jie5t,NA,NA,kD6Jie5t,2020-0188,2021-10-04,21:42:55,23:01:54,NA,incomplete,false,true,NA,7,18,abstractness,a_1_001.jpg,left,abstract,concrete,NA,NA,NA,left,1858.5,true,NA,NA,NA,NA,NA
kD6Jie5t,NA,NA,kD6Jie5t,2020-0188,2021-10-04,21:42:55,23:01:54,NA,incomplete,false,true,NA,7,19,abstractness,a_1_011.jpg,left,abstract,concrete,NA,NA,NA,left,2204,true,NA,NA,NA,NA,NA
kD6Jie5t,NA,NA,kD6Jie5t,2020-0188,2021-10-04,21:42:55,23:01:54,NA,incomplete,false,true,NA,7,20,building,i_c_010.jpg,left,cottage,skyscraper,NA,NA,NA,left,1174.10000000149,true,NA,NA,NA,NA,NA
kD6Jie5t,NA,NA,kD6Jie5t,2020-0188,2021-10-04,21:42:55,23:01:54,NA,incomplete,false,true,NA,7,21,building,o_c_004.jpg,right,skyscraper,cottage,NA,NA,NA,right,1662,true,NA,NA,NA,NA,NA
kD6Jie5t,NA,NA,kD6Jie5t,2020-0188,2021-10-04,21:42:55,23:01:54,NA,incomplete,false,true,NA,7,22,building,i_s_028.jpg,right,cottage,skyscraper,NA,NA,NA,right,935.199999999255,true,NA,NA,NA,NA,NA
kD6Jie5t,NA,NA,kD6Jie5t,2020-0188,2021-10-04,21:42:55,23:01:54,NA,incomplete,false,true,NA,7,23,building,o_c_003.jpg,left,cottage,skyscraper,NA,NA,NA,left,1135.09999999776,true,NA,NA,NA,NA,NA
kD6Jie5t,NA,NA,kD6Jie5t,2020-0188,2021-10-04,21:42:55,23:01:54,NA,incomplete,false,true,NA,7,24,building,o_c_013.jpg,left,cottage,skyscraper,NA,NA,NA,left,1764.30000000075,true,NA,NA,NA,NA,NA
kD6Jie5t,NA,NA,kD6Jie5t,2020-0188,2021-10-04,21:42:55,23:01:54,NA,incomplete,false,true,NA,7,25,location,i_s_006.jpg,left,indoor,outdoor,NA,NA,NA,left,1126.5,true,NA,NA,NA,NA,NA
kD6Jie5t,NA,NA,kD6Jie5t,2020-0188,2021-10-04,21:42:55,23:01:54,NA,incomplete,false,true,NA,7,26,location,i_s_021.jpg,right,outdoor,indoor,NA,NA,NA,right,3407.40000000224,true,NA,NA,NA,NA,NA
kD6Jie5t,NA,NA,kD6Jie5t,2020-0188,2021-10-04,21:42:55,23:01:54,NA,incomplete,false,true,NA,7,27,location,o_s_001.jpg,right,indoor,outdoor,NA,NA,NA,right,1418.89999999851,true,NA,NA,NA,NA,NA
kD6Jie5t,NA,NA,kD6Jie5t,2020-0188,2021-10-04,21:42:55,23:01:54,NA,incomplete,false,true,NA,7,28,location,o_s_009.jpg,left,outdoor,indoor,NA,NA,NA,left,1787.80000000075,true,NA,NA,NA,NA,NA
kD6Jie5t,NA,NA,kD6Jie5t,2020-0188,2021-10-04,21:42:55,23:01:54,NA,incomplete,false,true,NA,7,29,location,o_s_026.jpg,right,indoor,outdoor,NA,NA,NA,right,1607.79999999702,true,NA,NA,NA,NA,NA
kD6Jie5t,NA,NA,kD6Jie5t,2020-0188,2021-10-04,21:42:55,23:01:54,NA,incomplete,false,NA,true,7,0,NA,NA,right,NA,NA,o_c_013.jpg,o_c_004.jpg,within,NA,NaN,NA,right,1188.300000000745,1,1,1601.4000000022352
kD6Jie5t,NA,NA,kD6Jie5t,2020-0188,2021-10-04,21:42:55,23:01:54,NA,incomplete,false,NA,true,7,1,NA,NA,left,NA,NA,n_s_001.jpg,c_2_003.jpg,between-big,NA,NaN,NA,left,1721.699999999255,1,2,1345.2000000029802
kD6Jie5t,NA,NA,kD6Jie5t,2020-0188,2021-10-04,21:42:55,23:01:54,NA,incomplete,false,NA,true,7,2,NA,NA,right,NA,NA,a_1_011.jpg,a_2_020.jpg,within,NA,NaN,NA,right,1534.3999999985099,1,1,855.5999999977648
kD6Jie5t,NA,NA,kD6Jie5t,2020-0188,2021-10-04,21:42:55,23:01:54,NA,incomplete,false,NA,true,7,3,NA,NA,right,NA,NA,i_c_010.jpg,a_2_021.jpg,between-big,NA,NaN,NA,left,1028.7000000029802,0,2,1043.3999999985099
kD6Jie5t,NA,NA,kD6Jie5t,2020-0188,2021-10-04,21:42:55,23:01:54,NA,incomplete,false,NA,true,7,4,NA,NA,right,NA,NA,a_2_020.jpg,a_1_010.jpg,between-small,NA,NaN,NA,left,1438.4000000022352,0,2,1681.5
kD6Jie5t,NA,NA,kD6Jie5t,2020-0188,2021-10-04,21:42:55,23:01:54,NA,incomplete,false,NA,true,7,5,NA,NA,left,NA,NA,a_1_001.jpg,o_c_004.jpg,between-big,NA,NaN,NA,right,1347.0999999977648,0,2,1357.300000000745
kD6Jie5t,NA,NA,kD6Jie5t,2020-0188,2021-10-04,21:42:55,23:01:54,NA,incomplete,false,NA,true,7,6,NA,NA,left,NA,NA,i_c_010.jpg,o_c_003.jpg,within,NA,NaN,NA,left,3744.89999999851,1,1,1126.300000000745
kD6Jie5t,NA,NA,kD6Jie5t,2020-0188,2021-10-04,21:42:55,23:01:54,NA,incomplete,false,NA,true,7,7,NA,NA,right,NA,NA,i_s_021.jpg,o_c_003.jpg,between-small,NA,NaN,NA,right,1295,1,2,1705.5
kD6Jie5t,NA,NA,kD6Jie5t,2020-0188,2021-10-04,21:42:55,23:01:54,NA,incomplete,false,NA,true,7,8,NA,NA,right,NA,NA,n_s_023.jpg,n_s_014.jpg,within,NA,NaN,NA,right,969.7000000029802,1,1,1310.0999999977648
kD6Jie5t,NA,NA,kD6Jie5t,2020-0188,2021-10-04,21:42:55,23:01:54,NA,incomplete,false,NA,true,7,9,NA,NA,left,NA,NA,i_s_006.jpg,o_s_009.jpg,within,NA,NaN,NA,left,2114.800000000745,1,0,1302.699999999255
kD6Jie5t,NA,NA,kD6Jie5t,2020-0188,2021-10-04,21:42:55,23:01:54,NA,incomplete,false,NA,true,7,10,NA,NA,right,NA,NA,m_l_005.jpg,n_l_009.jpg,between-small,NA,NaN,NA,right,2402.89999999851,1,1,2198.60000000149
kD6Jie5t,NA,NA,kD6Jie5t,2020-0188,2021-10-04,21:42:55,23:01:54,NA,incomplete,false,NA,true,7,11,NA,NA,left,NA,NA,c_1_020.jpg,a_2_021.jpg,between-small,NA,NaN,NA,left,7267.39999999851,1,1,702.5
kD6Jie5t,NA,NA,kD6Jie5t,2020-0188,2021-10-04,21:42:55,23:01:54,NA,incomplete,false,NA,true,7,12,NA,NA,left,NA,NA,m_s_003.jpg,a_2_022.jpg,between-big,NA,NaN,NA,left,1031.300000000745,1,1,1587.6000000014901
kD6Jie5t,NA,NA,kD6Jie5t,2020-0188,2021-10-04,21:42:55,23:01:54,NA,incomplete,false,NA,true,7,13,NA,NA,left,NA,NA,c_2_003.jpg,a_1_010.jpg,within,NA,NaN,NA,right,1655.699999999255,0,1,2336.39999999851
kD6Jie5t,NA,NA,kD6Jie5t,2020-0188,2021-10-04,21:42:55,23:01:54,NA,incomplete,false,NA,true,7,14,NA,NA,left,NA,NA,o_c_013.jpg,o_s_001.jpg,between-small,NA,NaN,NA,left,1649.1000000014901,1,1,2140.5
kD6Jie5t,NA,NA,kD6Jie5t,2020-0188,2021-10-04,21:42:55,23:01:54,NA,incomplete,false,NA,true,7,15,NA,NA,right,NA,NA,n_s_001.jpg,n_s_023.jpg,between-small,NA,NaN,NA,left,7363.699999999255,0,1,1246.300000000745
kD6Jie5t,NA,NA,kD6Jie5t,2020-0188,2021-10-04,21:42:55,23:01:54,NA,incomplete,false,NA,true,7,16,NA,NA,right,NA,NA,m_s_022.jpg,m_l_009.jpg,between-small,NA,NaN,NA,right,2005.5999999977648,1,1,4101.199999999255
kD6Jie5t,NA,NA,kD6Jie5t,2020-0188,2021-10-04,21:42:55,23:01:54,NA,incomplete,false,NA,true,7,17,NA,NA,left,NA,NA,n_l_002.jpg,n_l_009.jpg,within,NA,NaN,NA,left,2928.400000002235,1,1,1807.5999999977648
kD6Jie5t,NA,NA,kD6Jie5t,2020-0188,2021-10-04,21:42:55,23:01:54,NA,incomplete,false,NA,true,7,18,NA,NA,right,NA,NA,c_1_020.jpg,a_1_016.jpg,within,NA,NaN,NA,left,9592.60000000149,0,1,1026.0999999977648
kD6Jie5t,NA,NA,kD6Jie5t,2020-0188,2021-10-04,21:42:55,23:01:54,NA,incomplete,false,NA,true,7,19,NA,NA,right,NA,NA,i_s_006.jpg,i_s_028.jpg,between-small,NA,NaN,NA,right,1603,1,0,5203.5
kD6Jie5t,NA,NA,kD6Jie5t,2020-0188,2021-10-04,21:42:55,23:01:54,NA,incomplete,false,NA,true,7,20,NA,NA,right,NA,NA,n_l_020.jpg,m_s_022.jpg,within,NA,NaN,NA,right,2173.60000000149,1,3,902.8000000007451
kD6Jie5t,NA,NA,kD6Jie5t,2020-0188,2021-10-04,21:42:55,23:01:54,NA,incomplete,false,NA,true,7,21,NA,NA,left,NA,NA,c_2_015.jpg,a_1_001.jpg,within,NA,NaN,NA,left,6978.39999999851,1,2,1499.2000000029802
kD6Jie5t,NA,NA,kD6Jie5t,2020-0188,2021-10-04,21:42:55,23:01:54,NA,incomplete,false,NA,true,7,22,NA,NA,left,NA,NA,a_2_022.jpg,c_2_015.jpg,between-small,NA,NaN,NA,right,1687.800000000745,0,1,2556.89999999851
kD6Jie5t,NA,NA,kD6Jie5t,2020-0188,2021-10-04,21:42:55,23:01:54,NA,incomplete,false,NA,true,7,23,NA,NA,right,NA,NA,a_1_016.jpg,n_l_020.jpg,between-big,NA,NaN,NA,right,3352.5,1,2,1543.5
kD6Jie5t,NA,NA,kD6Jie5t,2020-0188,2021-10-04,21:42:55,23:01:54,NA,incomplete,false,NA,true,7,24,NA,NA,left,NA,NA,a_1_011.jpg,i_s_028.jpg,between-big,NA,NaN,NA,right,1604.699999999255,0,2,6293.599999997765
kD6Jie5t,NA,NA,kD6Jie5t,2020-0188,2021-10-04,21:42:55,23:01:54,NA,incomplete,false,NA,true,7,25,NA,NA,right,NA,NA,o_s_026.jpg,i_s_021.jpg,within,NA,NaN,NA,right,10670.800000000745,1,1,3015.699999999255
kD6Jie5t,NA,NA,kD6Jie5t,2020-0188,2021-10-04,21:42:55,23:01:54,NA,incomplete,false,NA,true,7,26,NA,NA,left,NA,NA,m_l_005.jpg,m_s_003.jpg,within,NA,NaN,NA,left,1246.7999999970198,1,1,1055.7000000029802
kD6Jie5t,NA,NA,kD6Jie5t,2020-0188,2021-10-04,21:42:55,23:01:54,NA,incomplete,false,true,NA,8,0,building,o_c_007.jpg,left,cottage,skyscraper,NA,NA,NA,left,1495.5,true,NA,NA,NA,NA,NA
kD6Jie5t,NA,NA,kD6Jie5t,2020-0188,2021-10-04,21:42:55,23:01:54,NA,incomplete,false,true,NA,8,1,building,o_s_010.jpg,left,skyscraper,cottage,NA,NA,NA,left,1233.5,true,NA,NA,NA,NA,NA
kD6Jie5t,NA,NA,kD6Jie5t,2020-0188,2021-10-04,21:42:55,23:01:54,NA,incomplete,false,true,NA,8,2,building,o_s_027.jpg,left,skyscraper,cottage,NA,NA,NA,left,1185.70000000298,true,NA,NA,NA,NA,NA
kD6Jie5t,NA,NA,kD6Jie5t,2020-0188,2021-10-04,21:42:55,23:01:54,NA,incomplete,false,true,NA,8,3,building,i_c_015.jpg,left,cottage,skyscraper,NA,NA,NA,left,1448.5,true,NA,NA,NA,NA,NA
kD6Jie5t,NA,NA,kD6Jie5t,2020-0188,2021-10-04,21:42:55,23:01:54,NA,incomplete,false,true,NA,8,4,building,o_c_028.jpg,right,skyscraper,cottage,NA,NA,NA,none,0,false,NA,NA,NA,NA,NA
kD6Jie5t,NA,NA,kD6Jie5t,2020-0188,2021-10-04,21:42:55,23:01:54,NA,incomplete,false,true,NA,8,5,location,i_s_009.jpg,right,outdoor,indoor,NA,NA,NA,none,0,false,NA,NA,NA,NA,NA
kD6Jie5t,NA,NA,kD6Jie5t,2020-0188,2021-10-04,21:42:55,23:01:54,NA,incomplete,false,true,NA,8,6,location,i_c_008.jpg,right,outdoor,indoor,NA,NA,NA,left,1927.29999999702,false,NA,NA,NA,NA,NA
kD6Jie5t,NA,NA,kD6Jie5t,2020-0188,2021-10-04,21:42:55,23:01:54,NA,incomplete,false,true,NA,8,7,location,i_s_023.jpg,right,outdoor,indoor,NA,NA,NA,none,0,false,NA,NA,NA,NA,NA
kD6Jie5t,NA,NA,kD6Jie5t,2020-0188,2021-10-04,21:42:55,23:01:54,NA,incomplete,false,true,NA,8,8,location,i_c_011.jpg,left,indoor,outdoor,NA,NA,NA,left,1997,true,NA,NA,NA,NA,NA
kD6Jie5t,NA,NA,kD6Jie5t,2020-0188,2021-10-04,21:42:55,23:01:54,NA,incomplete,false,true,NA,8,9,location,o_s_020.jpg,left,outdoor,indoor,NA,NA,NA,left,2878.40000000224,true,NA,NA,NA,NA,NA
kD6Jie5t,NA,NA,kD6Jie5t,2020-0188,2021-10-04,21:42:55,23:01:54,NA,incomplete,false,true,NA,8,10,origin,n_l_023.jpg,left,natural,manmade,NA,NA,NA,left,1178.19999999925,true,NA,NA,NA,NA,NA
kD6Jie5t,NA,NA,kD6Jie5t,2020-0188,2021-10-04,21:42:55,23:01:54,NA,incomplete,false,true,NA,8,11,origin,m_s_020.jpg,right,natural,manmade,NA,NA,NA,right,2234.69999999925,true,NA,NA,NA,NA,NA
kD6Jie5t,NA,NA,kD6Jie5t,2020-0188,2021-10-04,21:42:55,23:01:54,NA,incomplete,false,true,NA,8,12,origin,m_s_013.jpg,right,natural,manmade,NA,NA,NA,right,1273.5,true,NA,NA,NA,NA,NA
kD6Jie5t,NA,NA,kD6Jie5t,2020-0188,2021-10-04,21:42:55,23:01:54,NA,incomplete,false,true,NA,8,13,origin,m_l_011.jpg,left,manmade,natural,NA,NA,NA,left,2001.39999999851,true,NA,NA,NA,NA,NA
kD6Jie5t,NA,NA,kD6Jie5t,2020-0188,2021-10-04,21:42:55,23:01:54,NA,incomplete,false,true,NA,8,14,origin,n_l_025.jpg,right,manmade,natural,NA,NA,NA,right,1160.30000000075,true,NA,NA,NA,NA,NA
kD6Jie5t,NA,NA,kD6Jie5t,2020-0188,2021-10-04,21:42:55,23:01:54,NA,incomplete,false,true,NA,8,15,size,n_l_012.jpg,left,large,small,NA,NA,NA,left,1419.29999999702,true,NA,NA,NA,NA,NA
kD6Jie5t,NA,NA,kD6Jie5t,2020-0188,2021-10-04,21:42:55,23:01:54,NA,incomplete,false,true,NA,8,16,size,n_s_013.jpg,left,small,large,NA,NA,NA,left,1199,true,NA,NA,NA,NA,NA
kD6Jie5t,NA,NA,kD6Jie5t,2020-0188,2021-10-04,21:42:55,23:01:54,NA,incomplete,false,true,NA,8,17,size,m_s_016.jpg,left,small,large,NA,NA,NA,left,1178.90000000224,true,NA,NA,NA,NA,NA
kD6Jie5t,NA,NA,kD6Jie5t,2020-0188,2021-10-04,21:42:55,23:01:54,NA,incomplete,false,true,NA,8,18,size,n_l_004.jpg,left,large,small,NA,NA,NA,left,882.800000000745,true,NA,NA,NA,NA,NA
kD6Jie5t,NA,NA,kD6Jie5t,2020-0188,2021-10-04,21:42:55,23:01:54,NA,incomplete,false,true,NA,8,19,size,n_s_015.jpg,left,small,large,NA,NA,NA,left,1124.5,true,NA,NA,NA,NA,NA
kD6Jie5t,NA,NA,kD6Jie5t,2020-0188,2021-10-04,21:42:55,23:01:54,NA,incomplete,false,true,NA,8,20,syllable,c_2_028.jpg,right,2 syllables,1 syllable,NA,NA,NA,right,2497.19999999925,true,NA,NA,NA,NA,NA
kD6Jie5t,NA,NA,kD6Jie5t,2020-0188,2021-10-04,21:42:55,23:01:54,NA,incomplete,false,true,NA,8,21,syllable,a_2_024.jpg,right,2 syllables,1 syllable,NA,NA,NA,left,2652.39999999851,false,NA,NA,NA,NA,NA
kD6Jie5t,NA,NA,kD6Jie5t,2020-0188,2021-10-04,21:42:55,23:01:54,NA,incomplete,false,true,NA,8,22,syllable,c_2_012.jpg,right,2 syllables,1 syllable,NA,NA,NA,left,912.699999999255,false,NA,NA,NA,NA,NA
kD6Jie5t,NA,NA,kD6Jie5t,2020-0188,2021-10-04,21:42:55,23:01:54,NA,incomplete,false,true,NA,8,23,syllable,c_2_021.jpg,right,2 syllables,1 syllable,NA,NA,NA,left,1284.19999999925,false,NA,NA,NA,NA,NA
kD6Jie5t,NA,NA,kD6Jie5t,2020-0188,2021-10-04,21:42:55,23:01:54,NA,incomplete,false,true,NA,8,24,syllable,c_2_002.jpg,right,2 syllables,1 syllable,NA,NA,NA,right,2004.79999999702,true,NA,NA,NA,NA,NA
kD6Jie5t,NA,NA,kD6Jie5t,2020-0188,2021-10-04,21:42:55,23:01:54,NA,incomplete,false,true,NA,8,25,abstractness,a_2_003.jpg,right,concrete,abstract,NA,NA,NA,none,0,false,NA,NA,NA,NA,NA
kD6Jie5t,NA,NA,kD6Jie5t,2020-0188,2021-10-04,21:42:55,23:01:54,NA,incomplete,false,true,NA,8,26,abstractness,c_1_002.jpg,left,concrete,abstract,NA,NA,NA,none,0,false,NA,NA,NA,NA,NA
kD6Jie5t,NA,NA,kD6Jie5t,2020-0188,2021-10-04,21:42:55,23:01:54,NA,incomplete,false,true,NA,8,27,abstractness,a_2_009.jpg,left,abstract,concrete,NA,NA,NA,left,3302.19999999925,true,NA,NA,NA,NA,NA
kD6Jie5t,NA,NA,kD6Jie5t,2020-0188,2021-10-04,21:42:55,23:01:54,NA,incomplete,false,true,NA,8,28,abstractness,a_1_020.jpg,left,abstract,concrete,NA,NA,NA,right,1451.5,false,NA,NA,NA,NA,NA
kD6Jie5t,NA,NA,kD6Jie5t,2020-0188,2021-10-04,21:42:55,23:01:54,NA,incomplete,false,true,NA,8,29,abstractness,c_2_027.jpg,left,concrete,abstract,NA,NA,NA,left,1421.69999999925,true,NA,NA,NA,NA,NA
kD6Jie5t,NA,NA,kD6Jie5t,2020-0188,2021-10-04,21:42:55,23:01:54,NA,incomplete,false,NA,true,8,0,NA,NA,right,NA,NA,c_2_002.jpg,a_2_024.jpg,within,NA,NaN,NA,left,1720.3999999985099,0,1,1210.5
kD6Jie5t,NA,NA,kD6Jie5t,2020-0188,2021-10-04,21:42:55,23:01:54,NA,incomplete,false,NA,true,8,1,NA,NA,left,NA,NA,n_l_004.jpg,a_2_024.jpg,between-big,NA,NaN,NA,right,1264.699999999255,0,2,991.1999999992549
kD6Jie5t,NA,NA,kD6Jie5t,2020-0188,2021-10-04,21:42:55,23:01:54,NA,incomplete,false,NA,true,8,2,NA,NA,right,NA,NA,c_2_027.jpg,c_1_002.jpg,within,NA,NaN,NA,right,1045.800000000745,1,1,1897.5
kD6Jie5t,NA,NA,kD6Jie5t,2020-0188,2021-10-04,21:42:55,23:01:54,NA,incomplete,false,NA,true,8,3,NA,NA,left,NA,NA,c_2_002.jpg,a_2_009.jpg,between-small,NA,NaN,NA,right,4967.39999999851,0,1,1398.699999999255
kD6Jie5t,NA,NA,kD6Jie5t,2020-0188,2021-10-04,21:42:55,23:01:54,NA,incomplete,false,NA,true,8,4,NA,NA,right,NA,NA,n_l_012.jpg,m_s_013.jpg,between-small,NA,NaN,NA,left,3830.7999999970198,0,0,2149.400000002235
kD6Jie5t,NA,NA,kD6Jie5t,2020-0188,2021-10-04,21:42:55,23:01:54,NA,incomplete,false,NA,true,8,5,NA,NA,right,NA,NA,i_c_008.jpg,i_c_015.jpg,between-small,NA,NaN,NA,right,2203.699999999255,1,1,1017.4000000022352
kD6Jie5t,NA,NA,kD6Jie5t,2020-0188,2021-10-04,21:42:55,23:01:54,NA,incomplete,false,NA,true,8,6,NA,NA,right,NA,NA,m_s_013.jpg,o_s_020.jpg,between-big,NA,NaN,NA,right,1078.800000000745,1,2,625.9000000022352
kD6Jie5t,NA,NA,kD6Jie5t,2020-0188,2021-10-04,21:42:55,23:01:54,NA,incomplete,false,NA,true,8,7,NA,NA,left,NA,NA,i_c_008.jpg,o_s_020.jpg,within,NA,NaN,NA,left,879.9000000022352,1,2,1316
kD6Jie5t,NA,NA,kD6Jie5t,2020-0188,2021-10-04,21:42:55,23:01:54,NA,incomplete,false,NA,true,8,8,NA,NA,right,NA,NA,i_s_023.jpg,o_c_028.jpg,between-small,NA,NaN,NA,right,5826.800000000745,1,1,821.5999999977648
kD6Jie5t,NA,NA,kD6Jie5t,2020-0188,2021-10-04,21:42:55,23:01:54,NA,incomplete,false,NA,true,8,9,NA,NA,right,NA,NA,n_l_004.jpg,n_l_012.jpg,within,NA,NaN,NA,right,1572.8999999985099,1,2,5942
kD6Jie5t,NA,NA,kD6Jie5t,2020-0188,2021-10-04,21:42:55,23:01:54,NA,incomplete,false,NA,true,8,10,NA,NA,left,NA,NA,m_s_020.jpg,n_l_025.jpg,within,NA,NaN,NA,right,1149,0,0,1462.5
kD6Jie5t,NA,NA,kD6Jie5t,2020-0188,2021-10-04,21:42:55,23:01:54,NA,incomplete,false,NA,true,8,11,NA,NA,left,NA,NA,c_2_012.jpg,a_2_003.jpg,between-small,NA,NaN,NA,left,2056.699999999255,1,2,1978.6000000014901
kD6Jie5t,NA,NA,kD6Jie5t,2020-0188,2021-10-04,21:42:55,23:01:54,NA,incomplete,false,NA,true,8,12,NA,NA,right,NA,NA,c_2_012.jpg,n_s_015.jpg,between-big,NA,NaN,NA,right,872.7000000029802,1,2,819
kD6Jie5t,NA,NA,kD6Jie5t,2020-0188,2021-10-04,21:42:55,23:01:54,NA,incomplete,false,NA,true,8,13,NA,NA,right,NA,NA,i_c_015.jpg,o_c_007.jpg,within,NA,NaN,NA,right,1277,1,1,854.5999999977648
kD6Jie5t,NA,NA,kD6Jie5t,2020-0188,2021-10-04,21:42:55,23:01:54,NA,incomplete,false,NA,true,8,14,NA,NA,right,NA,NA,m_s_020.jpg,i_c_011.jpg,between-big,NA,NaN,NA,right,867.8999999985099,1,2,1203.3999999985099
kD6Jie5t,NA,NA,kD6Jie5t,2020-0188,2021-10-04,21:42:55,23:01:54,NA,incomplete,false,NA,true,8,15,NA,NA,right,NA,NA,a_1_020.jpg,a_2_003.jpg,within,NA,NaN,NA,right,2561.300000000745,1,1,2969.800000000745
kD6Jie5t,NA,NA,kD6Jie5t,2020-0188,2021-10-04,21:42:55,23:01:54,NA,incomplete,false,NA,true,8,16,NA,NA,left,NA,NA,o_s_027.jpg,i_s_009.jpg,between-small,NA,NaN,NA,left,4591.900000002235,1,3,1230.5
kD6Jie5t,NA,NA,kD6Jie5t,2020-0188,2021-10-04,21:42:55,23:01:54,NA,incomplete,false,NA,true,8,17,NA,NA,right,NA,NA,n_l_023.jpg,i_s_023.jpg,between-big,NA,NaN,NA,left,2792.699999999255,0,1,1266.6000000014901
kD6Jie5t,NA,NA,kD6Jie5t,2020-0188,2021-10-04,21:42:55,23:01:54,NA,incomplete,false,NA,true,8,18,NA,NA,right,NA,NA,c_1_002.jpg,c_2_021.jpg,between-small,NA,NaN,NA,right,1718.3999999985099,1,2,1233.800000000745
kD6Jie5t,NA,NA,kD6Jie5t,2020-0188,2021-10-04,21:42:55,23:01:54,NA,incomplete,false,NA,true,8,19,NA,NA,left,NA,NA,m_l_011.jpg,n_s_013.jpg,between-small,NA,NaN,NA,right,1035,0,2,1699.800000000745
kD6Jie5t,NA,NA,kD6Jie5t,2020-0188,2021-10-04,21:42:55,23:01:54,NA,incomplete,false,NA,true,8,20,NA,NA,right,NA,NA,o_c_028.jpg,o_s_010.jpg,within,NA,NaN,NA,right,1738,1,2,1081.300000000745
kD6Jie5t,NA,NA,kD6Jie5t,2020-0188,2021-10-04,21:42:55,23:01:54,NA,incomplete,false,NA,true,8,21,NA,NA,left,NA,NA,n_s_013.jpg,n_s_015.jpg,within,NA,NaN,NA,right,1421,0,1,3771.599999997765
kD6Jie5t,NA,NA,kD6Jie5t,2020-0188,2021-10-04,21:42:55,23:01:54,NA,incomplete,false,NA,true,8,22,NA,NA,right,NA,NA,i_c_011.jpg,i_s_009.jpg,within,NA,NaN,NA,left,993,0,2,945.5
kD6Jie5t,NA,NA,kD6Jie5t,2020-0188,2021-10-04,21:42:55,23:01:54,NA,incomplete,false,NA,true,8,23,NA,NA,right,NA,NA,c_2_028.jpg,m_s_016.jpg,between-big,NA,NaN,NA,right,1144.199999999255,1,2,816.1999999992549
kD6Jie5t,NA,NA,kD6Jie5t,2020-0188,2021-10-04,21:42:55,23:01:54,NA,incomplete,false,NA,true,8,24,NA,NA,right,NA,NA,m_s_016.jpg,n_l_025.jpg,between-small,NA,NaN,NA,left,1180.300000000745,0,1,1834.699999999255
kD6Jie5t,NA,NA,kD6Jie5t,2020-0188,2021-10-04,21:42:55,23:01:54,NA,incomplete,false,NA,true,8,25,NA,NA,left,NA,NA,c_2_028.jpg,c_2_021.jpg,within,NA,NaN,NA,left,1556.800000000745,1,2,1052.5
kD6Jie5t,NA,NA,kD6Jie5t,2020-0188,2021-10-04,21:42:55,23:01:54,NA,incomplete,false,NA,true,8,26,NA,NA,left,NA,NA,n_l_023.jpg,m_l_011.jpg,within,NA,NaN,NA,left,876.8000000007451,1,2,1650.6000000014901
kD6Jie5t,NA,NA,kD6Jie5t,2020-0188,2021-10-04,21:42:55,23:01:54,NA,incomplete,false,true,NA,9,0,location,o_c_017.jpg,right,indoor,outdoor,NA,NA,NA,right,1823,true,NA,NA,NA,NA,NA
kD6Jie5t,NA,NA,kD6Jie5t,2020-0188,2021-10-04,21:42:55,23:01:54,NA,incomplete,false,true,NA,9,1,location,o_c_018.jpg,right,indoor,outdoor,NA,NA,NA,right,1641.89999999851,true,NA,NA,NA,NA,NA
kD6Jie5t,NA,NA,kD6Jie5t,2020-0188,2021-10-04,21:42:55,23:01:54,NA,incomplete,false,true,NA,9,2,location,o_s_004.jpg,right,indoor,outdoor,NA,NA,NA,left,1129.30000000075,false,NA,NA,NA,NA,NA
kD6Jie5t,NA,NA,kD6Jie5t,2020-0188,2021-10-04,21:42:55,23:01:54,NA,incomplete,false,true,NA,9,3,location,i_c_021.jpg,left,indoor,outdoor,NA,NA,NA,left,1461.30000000075,true,NA,NA,NA,NA,NA
