workerId,hitId,assignmentId,subject,studyid,exp_date,exp_start,exp_end,time_start,time_end,practice,encoding,memory,block,trial,event,stim,answer,label_left,label_right,left_image,right_image,condition,response,response_time,response_acc,order_response,order_response_time,order_acc,distance_response,distance_response_time
KquWi7bb,NA,NA,KquWi7bb,2020-0188,2021-09-27,13:59:46,15:03:14,NA,incomplete,true,true,NA,0,0,origin,m_l_002.jpg,right,natural,manmade,NA,NA,NA,right,1246.29999999981,true,NA,NA,NA,NA,NA
KquWi7bb,NA,NA,KquWi7bb,2020-0188,2021-09-27,13:59:46,15:03:14,NA,incomplete,true,true,NA,0,1,origin,m_l_018.jpg,left,manmade,natural,NA,NA,NA,left,1455.20000000019,true,NA,NA,NA,NA,NA
KquWi7bb,NA,NA,KquWi7bb,2020-0188,2021-09-27,13:59:46,15:03:14,NA,incomplete,true,true,NA,0,2,origin,m_s_009.jpg,right,natural,manmade,NA,NA,NA,right,1176.60000000056,true,NA,NA,NA,NA,NA
KquWi7bb,NA,NA,KquWi7bb,2020-0188,2021-09-27,13:59:46,15:03:14,NA,incomplete,true,true,NA,0,3,origin,m_s_001.jpg,left,manmade,natural,NA,NA,NA,left,1032,true,NA,NA,NA,NA,NA
KquWi7bb,NA,NA,KquWi7bb,2020-0188,2021-09-27,13:59:46,15:03:14,NA,incomplete,true,true,NA,0,4,origin,n_l_009.jpg,left,natural,manmade,NA,NA,NA,left,1104.20000000019,true,NA,NA,NA,NA,NA
KquWi7bb,NA,NA,KquWi7bb,2020-0188,2021-09-27,13:59:46,15:03:14,NA,incomplete,true,true,NA,0,5,size,n_l_004.jpg,right,small,large,NA,NA,NA,right,2305.79999999981,true,NA,NA,NA,NA,NA
KquWi7bb,NA,NA,KquWi7bb,2020-0188,2021-09-27,13:59:46,15:03:14,NA,incomplete,true,true,NA,0,6,size,m_s_015.jpg,right,large,small,NA,NA,NA,right,1273.09999999963,true,NA,NA,NA,NA,NA
KquWi7bb,NA,NA,KquWi7bb,2020-0188,2021-09-27,13:59:46,15:03:14,NA,incomplete,true,true,NA,0,7,size,m_s_017.jpg,left,small,large,NA,NA,NA,left,1765.60000000056,true,NA,NA,NA,NA,NA
KquWi7bb,NA,NA,KquWi7bb,2020-0188,2021-09-27,13:59:46,15:03:14,NA,incomplete,true,true,NA,0,8,size,m_s_006.jpg,left,small,large,NA,NA,NA,left,1153.90000000037,true,NA,NA,NA,NA,NA
KquWi7bb,NA,NA,KquWi7bb,2020-0188,2021-09-27,13:59:46,15:03:14,NA,incomplete,true,true,NA,0,9,size,m_l_014.jpg,left,large,small,NA,NA,NA,left,1753.19999999925,true,NA,NA,NA,NA,NA
KquWi7bb,NA,NA,KquWi7bb,2020-0188,2021-09-27,13:59:46,15:03:14,NA,incomplete,true,true,NA,0,10,syllable,c_2_024.jpg,right,2 syllables,1 syllable,NA,NA,NA,left,1696.5,false,NA,NA,NA,NA,NA
KquWi7bb,NA,NA,KquWi7bb,2020-0188,2021-09-27,13:59:46,15:03:14,NA,incomplete,true,true,NA,0,11,syllable,a_1_009.jpg,right,2 syllables,1 syllable,NA,NA,NA,right,1104.5,true,NA,NA,NA,NA,NA
KquWi7bb,NA,NA,KquWi7bb,2020-0188,2021-09-27,13:59:46,15:03:14,NA,incomplete,true,true,NA,0,12,syllable,c_1_009.jpg,right,2 syllables,1 syllable,NA,NA,NA,right,3127.20000000019,true,NA,NA,NA,NA,NA
KquWi7bb,NA,NA,KquWi7bb,2020-0188,2021-09-27,13:59:46,15:03:14,NA,incomplete,true,true,NA,0,13,syllable,c_1_016.jpg,right,2 syllables,1 syllable,NA,NA,NA,right,780.899999999441,true,NA,NA,NA,NA,NA
KquWi7bb,NA,NA,KquWi7bb,2020-0188,2021-09-27,13:59:46,15:03:14,NA,incomplete,true,true,NA,0,14,syllable,c_1_024.jpg,right,1 syllable,2 syllables,NA,NA,NA,left,1342.10000000056,false,NA,NA,NA,NA,NA
KquWi7bb,NA,NA,KquWi7bb,2020-0188,2021-09-27,13:59:46,15:03:14,NA,incomplete,true,true,NA,0,15,abstractness,a_2_005.jpg,right,concrete,abstract,NA,NA,NA,right,2918.10000000056,true,NA,NA,NA,NA,NA
KquWi7bb,NA,NA,KquWi7bb,2020-0188,2021-09-27,13:59:46,15:03:14,NA,incomplete,true,true,NA,0,16,abstractness,c_2_010.jpg,left,concrete,abstract,NA,NA,NA,left,1430.09999999963,true,NA,NA,NA,NA,NA
KquWi7bb,NA,NA,KquWi7bb,2020-0188,2021-09-27,13:59:46,15:03:14,NA,incomplete,true,true,NA,0,17,abstractness,a_2_017.jpg,left,abstract,concrete,NA,NA,NA,left,1732.60000000056,true,NA,NA,NA,NA,NA
KquWi7bb,NA,NA,KquWi7bb,2020-0188,2021-09-27,13:59:46,15:03:14,NA,incomplete,true,true,NA,0,18,abstractness,c_1_021.jpg,left,concrete,abstract,NA,NA,NA,left,1564.29999999981,true,NA,NA,NA,NA,NA
KquWi7bb,NA,NA,KquWi7bb,2020-0188,2021-09-27,13:59:46,15:03:14,NA,incomplete,true,true,NA,0,19,abstractness,a_1_001.jpg,right,concrete,abstract,NA,NA,NA,right,1184,true,NA,NA,NA,NA,NA
KquWi7bb,NA,NA,KquWi7bb,2020-0188,2021-09-27,13:59:46,15:03:14,NA,incomplete,true,true,NA,0,20,location,o_c_019.jpg,right,indoor,outdoor,NA,NA,NA,right,1751.90000000037,true,NA,NA,NA,NA,NA
KquWi7bb,NA,NA,KquWi7bb,2020-0188,2021-09-27,13:59:46,15:03:14,NA,incomplete,true,true,NA,0,21,location,i_s_020.jpg,left,indoor,outdoor,NA,NA,NA,left,1232.20000000019,true,NA,NA,NA,NA,NA
KquWi7bb,NA,NA,KquWi7bb,2020-0188,2021-09-27,13:59:46,15:03:14,NA,incomplete,true,true,NA,0,22,location,o_s_003.jpg,left,outdoor,indoor,NA,NA,NA,left,1164.40000000037,true,NA,NA,NA,NA,NA
KquWi7bb,NA,NA,KquWi7bb,2020-0188,2021-09-27,13:59:46,15:03:14,NA,incomplete,true,true,NA,0,23,location,o_c_007.jpg,right,indoor,outdoor,NA,NA,NA,right,1704.40000000037,true,NA,NA,NA,NA,NA
KquWi7bb,NA,NA,KquWi7bb,2020-0188,2021-09-27,13:59:46,15:03:14,NA,incomplete,true,true,NA,0,24,location,o_c_021.jpg,left,outdoor,indoor,NA,NA,NA,left,1376.29999999981,true,NA,NA,NA,NA,NA
KquWi7bb,NA,NA,KquWi7bb,2020-0188,2021-09-27,13:59:46,15:03:14,NA,incomplete,true,true,NA,0,25,building,i_s_007.jpg,left,skyscraper,cottage,NA,NA,NA,left,1954,true,NA,NA,NA,NA,NA
KquWi7bb,NA,NA,KquWi7bb,2020-0188,2021-09-27,13:59:46,15:03:14,NA,incomplete,true,true,NA,0,26,building,i_c_015.jpg,right,skyscraper,cottage,NA,NA,NA,right,941,true,NA,NA,NA,NA,NA
KquWi7bb,NA,NA,KquWi7bb,2020-0188,2021-09-27,13:59:46,15:03:14,NA,incomplete,true,true,NA,0,27,building,o_s_005.jpg,right,cottage,skyscraper,NA,NA,NA,right,1310.79999999981,true,NA,NA,NA,NA,NA
KquWi7bb,NA,NA,KquWi7bb,2020-0188,2021-09-27,13:59:46,15:03:14,NA,incomplete,true,true,NA,0,28,building,o_s_006.jpg,right,cottage,skyscraper,NA,NA,NA,right,1204.39999999944,true,NA,NA,NA,NA,NA
KquWi7bb,NA,NA,KquWi7bb,2020-0188,2021-09-27,13:59:46,15:03:14,NA,incomplete,true,true,NA,0,29,building,o_s_028.jpg,left,skyscraper,cottage,NA,NA,NA,left,1116.29999999981,true,NA,NA,NA,NA,NA
KquWi7bb,NA,NA,KquWi7bb,2020-0188,2021-09-27,13:59:46,15:03:14,NA,incomplete,true,NA,true,0,0,NA,NA,left,NA,NA,c_2_010.jpg,a_1_001.jpg,within,NA,NaN,NA,left,4737.200000000186,1,1,5587.299999999814
KquWi7bb,NA,NA,KquWi7bb,2020-0188,2021-09-27,13:59:46,15:03:14,NA,incomplete,true,NA,true,0,1,NA,NA,right,NA,NA,m_s_017.jpg,n_l_009.jpg,between-small,NA,NaN,NA,right,2052.2000000001863,1,2,1170.7000000001863
KquWi7bb,NA,NA,KquWi7bb,2020-0188,2021-09-27,13:59:46,15:03:14,NA,incomplete,true,NA,true,0,2,NA,NA,left,NA,NA,a_2_017.jpg,o_c_019.jpg,between-big,NA,NaN,NA,left,1393.199999999255,1,1,3145.5999999996275
KquWi7bb,NA,NA,KquWi7bb,2020-0188,2021-09-27,13:59:46,15:03:14,NA,incomplete,true,NA,true,0,3,NA,NA,right,NA,NA,i_s_020.jpg,c_1_021.jpg,between-big,NA,NaN,NA,left,2387.5,0,2,1230
KquWi7bb,NA,NA,KquWi7bb,2020-0188,2021-09-27,13:59:46,15:03:14,NA,incomplete,true,NA,true,0,4,NA,NA,right,NA,NA,o_c_021.jpg,i_s_020.jpg,within,NA,NaN,NA,left,2738.199999999255,0,1,1645.4000000003725
KquWi7bb,NA,NA,KquWi7bb,2020-0188,2021-09-27,13:59:46,15:03:14,NA,incomplete,true,NA,true,0,5,NA,NA,left,NA,NA,a_1_001.jpg,o_s_003.jpg,between-big,NA,NaN,NA,left,14169.799999999814,1,1,1847.2000000001863
KquWi7bb,NA,NA,KquWi7bb,2020-0188,2021-09-27,13:59:46,15:03:14,NA,incomplete,true,NA,true,0,6,NA,NA,right,NA,NA,o_s_028.jpg,i_c_015.jpg,within,NA,NaN,NA,right,2021.5999999996275,1,0,1921.9000000003725
KquWi7bb,NA,NA,KquWi7bb,2020-0188,2021-09-27,13:59:46,15:03:14,NA,incomplete,true,NA,true,0,7,NA,NA,left,NA,NA,o_c_007.jpg,i_c_015.jpg,between-small,NA,NaN,NA,right,1956.4000000003725,0,1,1075.5
KquWi7bb,NA,NA,KquWi7bb,2020-0188,2021-09-27,13:59:46,15:03:14,NA,incomplete,true,NA,true,0,8,NA,NA,left,NA,NA,m_l_014.jpg,c_1_009.jpg,between-big,NA,NaN,NA,right,1604.2000000001863,0,1,1330.7999999998137
KquWi7bb,NA,NA,KquWi7bb,2020-0188,2021-09-27,13:59:46,15:03:14,NA,incomplete,true,NA,true,0,9,NA,NA,right,NA,NA,o_s_006.jpg,i_s_007.jpg,within,NA,NaN,NA,right,2401.2999999998137,1,1,2927
KquWi7bb,NA,NA,KquWi7bb,2020-0188,2021-09-27,13:59:46,15:03:14,NA,incomplete,true,NA,true,0,10,NA,NA,left,NA,NA,c_1_009.jpg,a_2_005.jpg,between-small,NA,NaN,NA,left,1564,1,2,2794.5
KquWi7bb,NA,NA,KquWi7bb,2020-0188,2021-09-27,13:59:46,15:03:14,NA,incomplete,true,NA,true,0,11,NA,NA,right,NA,NA,o_c_007.jpg,o_c_019.jpg,within,NA,NaN,NA,right,1540.0999999996275,1,2,1646.4000000003725
KquWi7bb,NA,NA,KquWi7bb,2020-0188,2021-09-27,13:59:46,15:03:14,NA,incomplete,true,NA,true,0,12,NA,NA,right,NA,NA,m_s_015.jpg,m_s_001.jpg,between-small,NA,NaN,NA,left,2745.699999999255,0,1,1311
KquWi7bb,NA,NA,KquWi7bb,2020-0188,2021-09-27,13:59:46,15:03:14,NA,incomplete,true,NA,true,0,13,NA,NA,left,NA,NA,m_s_017.jpg,c_2_024.jpg,between-big,NA,NaN,NA,right,1539.1000000005588,0,1,1380
KquWi7bb,NA,NA,KquWi7bb,2020-0188,2021-09-27,13:59:46,15:03:14,NA,incomplete,true,NA,true,0,14,NA,NA,right,NA,NA,c_1_016.jpg,c_2_024.jpg,within,NA,NaN,NA,left,4187.799999999814,0,2,1186.7000000001863
KquWi7bb,NA,NA,KquWi7bb,2020-0188,2021-09-27,13:59:46,15:03:14,NA,incomplete,true,NA,true,0,15,NA,NA,right,NA,NA,c_2_010.jpg,c_1_016.jpg,between-small,NA,NaN,NA,left,2875,0,1,1093.7999999998137
KquWi7bb,NA,NA,KquWi7bb,2020-0188,2021-09-27,13:59:46,15:03:14,NA,incomplete,true,NA,true,0,16,NA,NA,right,NA,NA,a_1_009.jpg,m_s_006.jpg,between-big,NA,NaN,NA,right,2171.2000000001863,1,1,1333.5999999996275
KquWi7bb,NA,NA,KquWi7bb,2020-0188,2021-09-27,13:59:46,15:03:14,NA,incomplete,true,NA,true,0,17,NA,NA,right,NA,NA,c_1_024.jpg,a_1_009.jpg,within,NA,NaN,NA,right,1269.5,1,2,3292
KquWi7bb,NA,NA,KquWi7bb,2020-0188,2021-09-27,13:59:46,15:03:14,NA,incomplete,true,NA,true,0,18,NA,NA,left,NA,NA,m_l_002.jpg,m_s_001.jpg,within,NA,NaN,NA,left,2998.5,1,1,1553.6000000005588
KquWi7bb,NA,NA,KquWi7bb,2020-0188,2021-09-27,13:59:46,15:03:14,NA,incomplete,true,NA,true,0,19,NA,NA,left,NA,NA,a_2_005.jpg,c_1_021.jpg,within,NA,NaN,NA,right,1074.699999999255,0,1,1148
KquWi7bb,NA,NA,KquWi7bb,2020-0188,2021-09-27,13:59:46,15:03:14,NA,incomplete,true,NA,true,0,20,NA,NA,left,NA,NA,m_s_015.jpg,m_l_014.jpg,within,NA,NaN,NA,left,7479.100000000559,1,0,2486.5999999996275
KquWi7bb,NA,NA,KquWi7bb,2020-0188,2021-09-27,13:59:46,15:03:14,NA,incomplete,true,NA,true,0,21,NA,NA,left,NA,NA,c_1_024.jpg,a_2_017.jpg,between-small,NA,NaN,NA,right,1319.1000000005588,0,1,2015.5
KquWi7bb,NA,NA,KquWi7bb,2020-0188,2021-09-27,13:59:46,15:03:14,NA,incomplete,true,NA,true,0,22,NA,NA,right,NA,NA,n_l_004.jpg,m_s_009.jpg,between-small,NA,NaN,NA,right,2309.7000000001863,1,1,993.8999999994412
KquWi7bb,NA,NA,KquWi7bb,2020-0188,2021-09-27,13:59:46,15:03:14,NA,incomplete,true,NA,true,0,23,NA,NA,right,NA,NA,o_s_005.jpg,o_c_021.jpg,between-small,NA,NaN,NA,left,3397.600000000559,0,1,1282.2999999998137
KquWi7bb,NA,NA,KquWi7bb,2020-0188,2021-09-27,13:59:46,15:03:14,NA,incomplete,true,NA,true,0,24,NA,NA,left,NA,NA,o_s_003.jpg,i_s_007.jpg,between-small,NA,NaN,NA,right,1411.1000000005588,0,1,1506.7999999998137
KquWi7bb,NA,NA,KquWi7bb,2020-0188,2021-09-27,13:59:46,15:03:14,NA,incomplete,true,NA,true,0,25,NA,NA,right,NA,NA,n_l_009.jpg,m_l_018.jpg,within,NA,NaN,NA,right,2024.4000000003725,1,1,1196.699999999255
KquWi7bb,NA,NA,KquWi7bb,2020-0188,2021-09-27,13:59:46,15:03:14,NA,incomplete,true,NA,true,0,26,NA,NA,left,NA,NA,n_l_004.jpg,m_s_006.jpg,within,NA,NaN,NA,left,1409.0999999996275,1,1,1417.3999999994412
KquWi7bb,NA,NA,KquWi7bb,2020-0188,2021-09-27,13:59:46,15:03:14,NA,incomplete,false,true,NA,1,0,abstractness,c_1_011.jpg,right,abstract,concrete,NA,NA,NA,right,1554,true,NA,NA,NA,NA,NA
KquWi7bb,NA,NA,KquWi7bb,2020-0188,2021-09-27,13:59:46,15:03:14,NA,incomplete,false,true,NA,1,1,abstractness,a_2_012.jpg,right,concrete,abstract,NA,NA,NA,right,1442.29999999981,true,NA,NA,NA,NA,NA
KquWi7bb,NA,NA,KquWi7bb,2020-0188,2021-09-27,13:59:46,15:03:14,NA,incomplete,false,true,NA,1,2,abstractness,a_1_020.jpg,left,abstract,concrete,NA,NA,NA,left,1508.89999999944,true,NA,NA,NA,NA,NA
KquWi7bb,NA,NA,KquWi7bb,2020-0188,2021-09-27,13:59:46,15:03:14,NA,incomplete,false,true,NA,1,3,abstractness,c_1_007.jpg,right,abstract,concrete,NA,NA,NA,right,1398.59999999963,true,NA,NA,NA,NA,NA
KquWi7bb,NA,NA,KquWi7bb,2020-0188,2021-09-27,13:59:46,15:03:14,NA,incomplete,false,true,NA,1,4,abstractness,a_1_003.jpg,right,concrete,abstract,NA,NA,NA,right,1536.39999999944,true,NA,NA,NA,NA,NA
KquWi7bb,NA,NA,KquWi7bb,2020-0188,2021-09-27,13:59:46,15:03:14,NA,incomplete,false,true,NA,1,5,syllable,a_2_026.jpg,right,2 syllables,1 syllable,NA,NA,NA,left,1506.09999999963,false,NA,NA,NA,NA,NA
KquWi7bb,NA,NA,KquWi7bb,2020-0188,2021-09-27,13:59:46,15:03:14,NA,incomplete,false,true,NA,1,6,syllable,c_1_013.jpg,right,2 syllables,1 syllable,NA,NA,NA,right,1123.40000000037,true,NA,NA,NA,NA,NA
KquWi7bb,NA,NA,KquWi7bb,2020-0188,2021-09-27,13:59:46,15:03:14,NA,incomplete,false,true,NA,1,7,syllable,c_1_027.jpg,right,2 syllables,1 syllable,NA,NA,NA,right,2407.90000000037,true,NA,NA,NA,NA,NA
KquWi7bb,NA,NA,KquWi7bb,2020-0188,2021-09-27,13:59:46,15:03:14,NA,incomplete,false,true,NA,1,8,syllable,c_2_008.jpg,right,2 syllables,1 syllable,NA,NA,NA,left,1008.5,false,NA,NA,NA,NA,NA
KquWi7bb,NA,NA,KquWi7bb,2020-0188,2021-09-27,13:59:46,15:03:14,NA,incomplete,false,true,NA,1,9,syllable,a_1_005.jpg,right,1 syllable,2 syllables,NA,NA,NA,left,1272.70000000019,false,NA,NA,NA,NA,NA
KquWi7bb,NA,NA,KquWi7bb,2020-0188,2021-09-27,13:59:46,15:03:14,NA,incomplete,false,true,NA,1,10,origin,m_l_012.jpg,right,natural,manmade,NA,NA,NA,right,1691,true,NA,NA,NA,NA,NA
KquWi7bb,NA,NA,KquWi7bb,2020-0188,2021-09-27,13:59:46,15:03:14,NA,incomplete,false,true,NA,1,11,origin,m_s_022.jpg,left,manmade,natural,NA,NA,NA,left,1102,true,NA,NA,NA,NA,NA
KquWi7bb,NA,NA,KquWi7bb,2020-0188,2021-09-27,13:59:46,15:03:14,NA,incomplete,false,true,NA,1,12,origin,m_l_003.jpg,right,natural,manmade,NA,NA,NA,right,1783.90000000037,true,NA,NA,NA,NA,NA
KquWi7bb,NA,NA,KquWi7bb,2020-0188,2021-09-27,13:59:46,15:03:14,NA,incomplete,false,true,NA,1,13,origin,n_s_003.jpg,left,natural,manmade,NA,NA,NA,left,1090.59999999963,true,NA,NA,NA,NA,NA
KquWi7bb,NA,NA,KquWi7bb,2020-0188,2021-09-27,13:59:46,15:03:14,NA,incomplete,false,true,NA,1,14,origin,m_s_016.jpg,left,manmade,natural,NA,NA,NA,left,1119.60000000056,true,NA,NA,NA,NA,NA
KquWi7bb,NA,NA,KquWi7bb,2020-0188,2021-09-27,13:59:46,15:03:14,NA,incomplete,false,true,NA,1,15,size,n_s_019.jpg,left,small,large,NA,NA,NA,left,1620.29999999981,true,NA,NA,NA,NA,NA
KquWi7bb,NA,NA,KquWi7bb,2020-0188,2021-09-27,13:59:46,15:03:14,NA,incomplete,false,true,NA,1,16,size,n_l_026.jpg,left,large,small,NA,NA,NA,left,1547.40000000037,true,NA,NA,NA,NA,NA
KquWi7bb,NA,NA,KquWi7bb,2020-0188,2021-09-27,13:59:46,15:03:14,NA,incomplete,false,true,NA,1,17,size,m_l_015.jpg,right,small,large,NA,NA,NA,right,962.299999999814,true,NA,NA,NA,NA,NA
KquWi7bb,NA,NA,KquWi7bb,2020-0188,2021-09-27,13:59:46,15:03:14,NA,incomplete,false,true,NA,1,18,size,n_l_023.jpg,left,large,small,NA,NA,NA,left,1050.40000000037,true,NA,NA,NA,NA,NA
KquWi7bb,NA,NA,KquWi7bb,2020-0188,2021-09-27,13:59:46,15:03:14,NA,incomplete,false,true,NA,1,19,size,m_l_013.jpg,right,small,large,NA,NA,NA,right,2765,true,NA,NA,NA,NA,NA
KquWi7bb,NA,NA,KquWi7bb,2020-0188,2021-09-27,13:59:46,15:03:14,NA,incomplete,false,true,NA,1,20,building,o_s_016.jpg,left,skyscraper,cottage,NA,NA,NA,left,1338.5,true,NA,NA,NA,NA,NA
KquWi7bb,NA,NA,KquWi7bb,2020-0188,2021-09-27,13:59:46,15:03:14,NA,incomplete,false,true,NA,1,21,building,o_c_013.jpg,left,cottage,skyscraper,NA,NA,NA,left,3007.79999999981,true,NA,NA,NA,NA,NA
KquWi7bb,NA,NA,KquWi7bb,2020-0188,2021-09-27,13:59:46,15:03:14,NA,incomplete,false,true,NA,1,22,building,i_s_026.jpg,right,cottage,skyscraper,NA,NA,NA,right,931,true,NA,NA,NA,NA,NA
KquWi7bb,NA,NA,KquWi7bb,2020-0188,2021-09-27,13:59:46,15:03:14,NA,incomplete,false,true,NA,1,23,building,o_s_013.jpg,left,skyscraper,cottage,NA,NA,NA,left,1095.89999999944,true,NA,NA,NA,NA,NA
KquWi7bb,NA,NA,KquWi7bb,2020-0188,2021-09-27,13:59:46,15:03:14,NA,incomplete,false,true,NA,1,24,building,i_s_001.jpg,right,cottage,skyscraper,NA,NA,NA,right,1157.20000000019,true,NA,NA,NA,NA,NA
KquWi7bb,NA,NA,KquWi7bb,2020-0188,2021-09-27,13:59:46,15:03:14,NA,incomplete,false,true,NA,1,25,location,o_s_011.jpg,left,outdoor,indoor,NA,NA,NA,left,1433.10000000056,true,NA,NA,NA,NA,NA
KquWi7bb,NA,NA,KquWi7bb,2020-0188,2021-09-27,13:59:46,15:03:14,NA,incomplete,false,true,NA,1,26,location,i_s_005.jpg,left,indoor,outdoor,NA,NA,NA,left,1716.20000000019,true,NA,NA,NA,NA,NA
KquWi7bb,NA,NA,KquWi7bb,2020-0188,2021-09-27,13:59:46,15:03:14,NA,incomplete,false,true,NA,1,27,location,o_s_023.jpg,left,outdoor,indoor,NA,NA,NA,left,1807.10000000056,true,NA,NA,NA,NA,NA
KquWi7bb,NA,NA,KquWi7bb,2020-0188,2021-09-27,13:59:46,15:03:14,NA,incomplete,false,true,NA,1,28,location,i_s_015.jpg,left,indoor,outdoor,NA,NA,NA,left,1754.29999999981,true,NA,NA,NA,NA,NA
KquWi7bb,NA,NA,KquWi7bb,2020-0188,2021-09-27,13:59:46,15:03:14,NA,incomplete,false,true,NA,1,29,location,i_c_008.jpg,left,indoor,outdoor,NA,NA,NA,left,1848.5,true,NA,NA,NA,NA,NA
KquWi7bb,NA,NA,KquWi7bb,2020-0188,2021-09-27,13:59:46,15:03:14,NA,incomplete,false,NA,true,1,0,NA,NA,right,NA,NA,i_c_008.jpg,i_s_005.jpg,within,NA,NaN,NA,right,3176.0999999996275,1,1,1312.2000000001863
KquWi7bb,NA,NA,KquWi7bb,2020-0188,2021-09-27,13:59:46,15:03:14,NA,incomplete,false,NA,true,1,1,NA,NA,right,NA,NA,c_1_013.jpg,c_1_007.jpg,between-small,NA,NaN,NA,right,3110.2999999998137,1,2,1289.0999999996275
KquWi7bb,NA,NA,KquWi7bb,2020-0188,2021-09-27,13:59:46,15:03:14,NA,incomplete,false,NA,true,1,2,NA,NA,right,NA,NA,c_2_008.jpg,a_2_026.jpg,within,NA,NaN,NA,right,2379.199999999255,1,1,1532.4000000003725
KquWi7bb,NA,NA,KquWi7bb,2020-0188,2021-09-27,13:59:46,15:03:14,NA,incomplete,false,NA,true,1,3,NA,NA,right,NA,NA,m_l_015.jpg,m_s_016.jpg,between-small,NA,NaN,NA,right,2648.5999999996275,1,1,985.9000000003725
KquWi7bb,NA,NA,KquWi7bb,2020-0188,2021-09-27,13:59:46,15:03:14,NA,incomplete,false,NA,true,1,4,NA,NA,left,NA,NA,n_l_026.jpg,m_l_013.jpg,within,NA,NaN,NA,left,2801.600000000559,1,0,1315.5999999996275
KquWi7bb,NA,NA,KquWi7bb,2020-0188,2021-09-27,13:59:46,15:03:14,NA,incomplete,false,NA,true,1,5,NA,NA,right,NA,NA,n_l_026.jpg,n_s_003.jpg,between-small,NA,NaN,NA,left,1938.5,0,1,1058
KquWi7bb,NA,NA,KquWi7bb,2020-0188,2021-09-27,13:59:46,15:03:14,NA,incomplete,false,NA,true,1,6,NA,NA,left,NA,NA,m_l_012.jpg,n_s_003.jpg,within,NA,NaN,NA,left,1450.7999999998137,1,1,854.2999999998137
KquWi7bb,NA,NA,KquWi7bb,2020-0188,2021-09-27,13:59:46,15:03:14,NA,incomplete,false,NA,true,1,7,NA,NA,right,NA,NA,i_s_015.jpg,o_s_011.jpg,within,NA,NaN,NA,right,3419.7999999998137,1,1,1768.5
KquWi7bb,NA,NA,KquWi7bb,2020-0188,2021-09-27,13:59:46,15:03:14,NA,incomplete,false,NA,true,1,8,NA,NA,right,NA,NA,o_s_011.jpg,i_s_026.jpg,between-small,NA,NaN,NA,right,1498.5,1,1,1098.5999999996275
KquWi7bb,NA,NA,KquWi7bb,2020-0188,2021-09-27,13:59:46,15:03:14,NA,incomplete,false,NA,true,1,9,NA,NA,right,NA,NA,a_1_003.jpg,a_2_012.jpg,within,NA,NaN,NA,right,5310.0999999996275,1,1,1007.9000000003725
KquWi7bb,NA,NA,KquWi7bb,2020-0188,2021-09-27,13:59:46,15:03:14,NA,incomplete,false,NA,true,1,10,NA,NA,right,NA,NA,a_1_005.jpg,c_1_013.jpg,within,NA,NaN,NA,right,1221.7999999998137,1,0,1400.7000000001863
KquWi7bb,NA,NA,KquWi7bb,2020-0188,2021-09-27,13:59:46,15:03:14,NA,incomplete,false,NA,true,1,11,NA,NA,right,NA,NA,i_s_001.jpg,o_c_013.jpg,within,NA,NaN,NA,right,2115.4000000003725,1,0,1497.5
KquWi7bb,NA,NA,KquWi7bb,2020-0188,2021-09-27,13:59:46,15:03:14,NA,incomplete,false,NA,true,1,12,NA,NA,right,NA,NA,o_s_023.jpg,i_s_001.jpg,between-small,NA,NaN,NA,left,1211,0,1,1228.699999999255
KquWi7bb,NA,NA,KquWi7bb,2020-0188,2021-09-27,13:59:46,15:03:14,NA,incomplete,false,NA,true,1,13,NA,NA,right,NA,NA,o_c_013.jpg,n_l_023.jpg,between-big,NA,NaN,NA,right,3230,1,2,792.1000000005588
KquWi7bb,NA,NA,KquWi7bb,2020-0188,2021-09-27,13:59:46,15:03:14,NA,incomplete,false,NA,true,1,14,NA,NA,right,NA,NA,i_s_005.jpg,o_s_013.jpg,between-small,NA,NaN,NA,right,1041.7999999998137,1,1,968.1000000005588
KquWi7bb,NA,NA,KquWi7bb,2020-0188,2021-09-27,13:59:46,15:03:14,NA,incomplete,false,NA,true,1,15,NA,NA,left,NA,NA,m_l_003.jpg,n_s_019.jpg,between-small,NA,NaN,NA,right,1725.5,0,1,1033.800000000745
KquWi7bb,NA,NA,KquWi7bb,2020-0188,2021-09-27,13:59:46,15:03:14,NA,incomplete,false,NA,true,1,16,NA,NA,right,NA,NA,m_s_022.jpg,c_2_008.jpg,between-big,NA,NaN,NA,left,1149.2999999998137,0,2,2512.7000000001863
KquWi7bb,NA,NA,KquWi7bb,2020-0188,2021-09-27,13:59:46,15:03:14,NA,incomplete,false,NA,true,1,17,NA,NA,right,NA,NA,o_s_013.jpg,o_s_016.jpg,within,NA,NaN,NA,right,3195.4000000003725,1,1,1021.5999999996275
KquWi7bb,NA,NA,KquWi7bb,2020-0188,2021-09-27,13:59:46,15:03:14,NA,incomplete,false,NA,true,1,18,NA,NA,right,NA,NA,m_s_016.jpg,m_s_022.jpg,within,NA,NaN,NA,right,969,1,2,1223.5999999996275
KquWi7bb,NA,NA,KquWi7bb,2020-0188,2021-09-27,13:59:46,15:03:14,NA,incomplete,false,NA,true,1,19,NA,NA,left,NA,NA,c_1_027.jpg,m_l_012.jpg,between-big,NA,NaN,NA,left,1140.5,1,2,1511.7999999998137
KquWi7bb,NA,NA,KquWi7bb,2020-0188,2021-09-27,13:59:46,15:03:14,NA,incomplete,false,NA,true,1,20,NA,NA,left,NA,NA,a_1_003.jpg,c_1_027.jpg,between-small,NA,NaN,NA,left,1261.7000000001863,1,1,876.7999999998137
KquWi7bb,NA,NA,KquWi7bb,2020-0188,2021-09-27,13:59:46,15:03:14,NA,incomplete,false,NA,true,1,21,NA,NA,left,NA,NA,m_l_015.jpg,o_s_016.jpg,between-big,NA,NaN,NA,left,2158.5,1,2,1769.7000000001863
KquWi7bb,NA,NA,KquWi7bb,2020-0188,2021-09-27,13:59:46,15:03:14,NA,incomplete,false,NA,true,1,22,NA,NA,left,NA,NA,a_1_005.jpg,m_l_003.jpg,between-big,NA,NaN,NA,left,3782,1,2,1417.1000000005588
KquWi7bb,NA,NA,KquWi7bb,2020-0188,2021-09-27,13:59:46,15:03:14,NA,incomplete,false,NA,true,1,23,NA,NA,left,NA,NA,c_1_011.jpg,c_1_007.jpg,within,NA,NaN,NA,right,839.1999999992549,0,1,4017
KquWi7bb,NA,NA,KquWi7bb,2020-0188,2021-09-27,13:59:46,15:03:14,NA,incomplete,false,NA,true,1,24,NA,NA,left,NA,NA,a_1_020.jpg,a_2_026.jpg,between-small,NA,NaN,NA,left,1884.5999999996275,1,2,1026.5
KquWi7bb,NA,NA,KquWi7bb,2020-0188,2021-09-27,13:59:46,15:03:14,NA,incomplete,false,NA,true,1,25,NA,NA,left,NA,NA,m_l_013.jpg,i_s_026.jpg,between-big,NA,NaN,NA,right,1130.2000000001863,0,1,1187.6000000005588
KquWi7bb,NA,NA,KquWi7bb,2020-0188,2021-09-27,13:59:46,15:03:14,NA,incomplete,false,NA,true,1,26,NA,NA,right,NA,NA,n_l_023.jpg,n_s_019.jpg,within,NA,NaN,NA,right,953.2999999998137,1,1,882.7000000001863
KquWi7bb,NA,NA,KquWi7bb,2020-0188,2021-09-27,13:59:46,15:03:14,NA,incomplete,false,true,NA,2,0,origin,m_s_018.jpg,left,manmade,natural,NA,NA,NA,left,1792.70000000019,true,NA,NA,NA,NA,NA
KquWi7bb,NA,NA,KquWi7bb,2020-0188,2021-09-27,13:59:46,15:03:14,NA,incomplete,false,true,NA,2,1,origin,n_s_011.jpg,right,manmade,natural,NA,NA,NA,right,1316.70000000019,true,NA,NA,NA,NA,NA
KquWi7bb,NA,NA,KquWi7bb,2020-0188,2021-09-27,13:59:46,15:03:14,NA,incomplete,false,true,NA,2,2,origin,n_s_015.jpg,right,manmade,natural,NA,NA,NA,right,1138.30000000075,true,NA,NA,NA,NA,NA
KquWi7bb,NA,NA,KquWi7bb,2020-0188,2021-09-27,13:59:46,15:03:14,NA,incomplete,false,true,NA,2,3,origin,m_s_011.jpg,right,natural,manmade,NA,NA,NA,right,1516,true,NA,NA,NA,NA,NA
KquWi7bb,NA,NA,KquWi7bb,2020-0188,2021-09-27,13:59:46,15:03:14,NA,incomplete,false,true,NA,2,4,origin,n_l_002.jpg,right,manmade,natural,NA,NA,NA,right,1134.5,true,NA,NA,NA,NA,NA
KquWi7bb,NA,NA,KquWi7bb,2020-0188,2021-09-27,13:59:46,15:03:14,NA,incomplete,false,true,NA,2,5,size,m_s_003.jpg,right,large,small,NA,NA,NA,right,1475.09999999963,true,NA,NA,NA,NA,NA
KquWi7bb,NA,NA,KquWi7bb,2020-0188,2021-09-27,13:59:46,15:03:14,NA,incomplete,false,true,NA,2,6,size,m_s_007.jpg,left,small,large,NA,NA,NA,left,2678.20000000019,true,NA,NA,NA,NA,NA
KquWi7bb,NA,NA,KquWi7bb,2020-0188,2021-09-27,13:59:46,15:03:14,NA,incomplete,false,true,NA,2,7,size,n_l_014.jpg,right,small,large,NA,NA,NA,right,1313.70000000019,true,NA,NA,NA,NA,NA
KquWi7bb,NA,NA,KquWi7bb,2020-0188,2021-09-27,13:59:46,15:03:14,NA,incomplete,false,true,NA,2,8,size,m_l_026.jpg,right,small,large,NA,NA,NA,right,1249.59999999963,true,NA,NA,NA,NA,NA
KquWi7bb,NA,NA,KquWi7bb,2020-0188,2021-09-27,13:59:46,15:03:14,NA,incomplete,false,true,NA,2,9,size,m_l_023.jpg,right,small,large,NA,NA,NA,right,1794.60000000056,true,NA,NA,NA,NA,NA
KquWi7bb,NA,NA,KquWi7bb,2020-0188,2021-09-27,13:59:46,15:03:14,NA,incomplete,false,true,NA,2,10,location,i_s_011.jpg,left,indoor,outdoor,NA,NA,NA,left,1560.5,true,NA,NA,NA,NA,NA
KquWi7bb,NA,NA,KquWi7bb,2020-0188,2021-09-27,13:59:46,15:03:14,NA,incomplete,false,true,NA,2,11,location,i_s_009.jpg,left,indoor,outdoor,NA,NA,NA,left,1315.90000000037,true,NA,NA,NA,NA,NA
KquWi7bb,NA,NA,KquWi7bb,2020-0188,2021-09-27,13:59:46,15:03:14,NA,incomplete,false,true,NA,2,12,location,i_s_006.jpg,left,indoor,outdoor,NA,NA,NA,left,1170.10000000056,true,NA,NA,NA,NA,NA
KquWi7bb,NA,NA,KquWi7bb,2020-0188,2021-09-27,13:59:46,15:03:14,NA,incomplete,false,true,NA,2,13,location,o_s_015.jpg,left,outdoor,indoor,NA,NA,NA,left,1485.19999999925,true,NA,NA,NA,NA,NA
KquWi7bb,NA,NA,KquWi7bb,2020-0188,2021-09-27,13:59:46,15:03:14,NA,incomplete,false,true,NA,2,14,location,o_c_011.jpg,right,indoor,outdoor,NA,NA,NA,right,1107.79999999981,true,NA,NA,NA,NA,NA
KquWi7bb,NA,NA,KquWi7bb,2020-0188,2021-09-27,13:59:46,15:03:14,NA,incomplete,false,true,NA,2,15,building,o_s_021.jpg,right,cottage,skyscraper,NA,NA,NA,right,1387.20000000019,true,NA,NA,NA,NA,NA
KquWi7bb,NA,NA,KquWi7bb,2020-0188,2021-09-27,13:59:46,15:03:14,NA,incomplete,false,true,NA,2,16,building,o_c_016.jpg,right,skyscraper,cottage,NA,NA,NA,right,1168.40000000037,true,NA,NA,NA,NA,NA
KquWi7bb,NA,NA,KquWi7bb,2020-0188,2021-09-27,13:59:46,15:03:14,NA,incomplete,false,true,NA,2,17,building,i_c_027.jpg,left,cottage,skyscraper,NA,NA,NA,left,1363.09999999963,true,NA,NA,NA,NA,NA
KquWi7bb,NA,NA,KquWi7bb,2020-0188,2021-09-27,13:59:46,15:03:14,NA,incomplete,false,true,NA,2,18,building,o_s_010.jpg,right,cottage,skyscraper,NA,NA,NA,right,1208.90000000037,true,NA,NA,NA,NA,NA
KquWi7bb,NA,NA,KquWi7bb,2020-0188,2021-09-27,13:59:46,15:03:14,NA,incomplete,false,true,NA,2,19,building,i_c_005.jpg,right,skyscraper,cottage,NA,NA,NA,right,1182.09999999963,true,NA,NA,NA,NA,NA
KquWi7bb,NA,NA,KquWi7bb,2020-0188,2021-09-27,13:59:46,15:03:14,NA,incomplete,false,true,NA,2,20,abstractness,c_2_027.jpg,right,abstract,concrete,NA,NA,NA,right,1811.89999999944,true,NA,NA,NA,NA,NA
KquWi7bb,NA,NA,KquWi7bb,2020-0188,2021-09-27,13:59:46,15:03:14,NA,incomplete,false,true,NA,2,21,abstractness,c_1_002.jpg,right,abstract,concrete,NA,NA,NA,right,1279.79999999981,true,NA,NA,NA,NA,NA
KquWi7bb,NA,NA,KquWi7bb,2020-0188,2021-09-27,13:59:46,15:03:14,NA,incomplete,false,true,NA,2,22,abstractness,a_2_022.jpg,right,concrete,abstract,NA,NA,NA,right,2199.70000000019,true,NA,NA,NA,NA,NA
KquWi7bb,NA,NA,KquWi7bb,2020-0188,2021-09-27,13:59:46,15:03:14,NA,incomplete,false,true,NA,2,23,abstractness,a_1_022.jpg,right,concrete,abstract,NA,NA,NA,right,1824.20000000019,true,NA,NA,NA,NA,NA
KquWi7bb,NA,NA,KquWi7bb,2020-0188,2021-09-27,13:59:46,15:03:14,NA,incomplete,false,true,NA,2,24,abstractness,c_2_023.jpg,right,abstract,concrete,NA,NA,NA,right,1467.5,true,NA,NA,NA,NA,NA
KquWi7bb,NA,NA,KquWi7bb,2020-0188,2021-09-27,13:59:46,15:03:14,NA,incomplete,false,true,NA,2,25,syllable,c_2_021.jpg,right,1 syllable,2 syllables,NA,NA,NA,right,1782.10000000056,true,NA,NA,NA,NA,NA
KquWi7bb,NA,NA,KquWi7bb,2020-0188,2021-09-27,13:59:46,15:03:14,NA,incomplete,false,true,NA,2,26,syllable,a_1_021.jpg,right,1 syllable,2 syllables,NA,NA,NA,left,1218.09999999963,false,NA,NA,NA,NA,NA
KquWi7bb,NA,NA,KquWi7bb,2020-0188,2021-09-27,13:59:46,15:03:14,NA,incomplete,false,true,NA,2,27,syllable,a_2_004.jpg,right,2 syllables,1 syllable,NA,NA,NA,left,1539.29999999981,false,NA,NA,NA,NA,NA
KquWi7bb,NA,NA,KquWi7bb,2020-0188,2021-09-27,13:59:46,15:03:14,NA,incomplete,false,true,NA,2,28,syllable,c_1_012.jpg,right,1 syllable,2 syllables,NA,NA,NA,left,1368.70000000019,false,NA,NA,NA,NA,NA
KquWi7bb,NA,NA,KquWi7bb,2020-0188,2021-09-27,13:59:46,15:03:14,NA,incomplete,false,true,NA,2,29,syllable,c_2_012.jpg,right,2 syllables,1 syllable,NA,NA,NA,left,1177.40000000037,false,NA,NA,NA,NA,NA
KquWi7bb,NA,NA,KquWi7bb,2020-0188,2021-09-27,13:59:46,15:03:14,NA,incomplete,false,NA,true,2,0,NA,NA,right,NA,NA,c_2_027.jpg,i_c_027.jpg,between-big,NA,NaN,NA,left,3269.800000000745,0,2,1921.7999999998137
KquWi7bb,NA,NA,KquWi7bb,2020-0188,2021-09-27,13:59:46,15:03:14,NA,incomplete,false,NA,true,2,1,NA,NA,right,NA,NA,c_1_002.jpg,o_s_010.jpg,between-big,NA,NaN,NA,left,2142.9000000003725,0,1,2393.7000000001863
KquWi7bb,NA,NA,KquWi7bb,2020-0188,2021-09-27,13:59:46,15:03:14,NA,incomplete,false,NA,true,2,2,NA,NA,left,NA,NA,o_s_015.jpg,o_c_016.jpg,between-small,NA,NaN,NA,left,2379.2999999998137,1,1,1115
KquWi7bb,NA,NA,KquWi7bb,2020-0188,2021-09-27,13:59:46,15:03:14,NA,incomplete,false,NA,true,2,3,NA,NA,right,NA,NA,o_s_021.jpg,i_s_006.jpg,between-small,NA,NaN,NA,right,1563.6000000005588,1,1,1042.2000000001863
KquWi7bb,NA,NA,KquWi7bb,2020-0188,2021-09-27,13:59:46,15:03:14,NA,incomplete,false,NA,true,2,4,NA,NA,left,NA,NA,n_l_014.jpg,i_s_011.jpg,between-big,NA,NaN,NA,left,1246.800000000745,1,1,1474.2999999998137
KquWi7bb,NA,NA,KquWi7bb,2020-0188,2021-09-27,13:59:46,15:03:14,NA,incomplete,false,NA,true,2,5,NA,NA,left,NA,NA,i_s_011.jpg,o_s_015.jpg,within,NA,NaN,NA,left,1857.4000000003725,1,2,1388.7999999998137
KquWi7bb,NA,NA,KquWi7bb,2020-0188,2021-09-27,13:59:46,15:03:14,NA,incomplete,false,NA,true,2,6,NA,NA,right,NA,NA,c_2_012.jpg,a_1_021.jpg,within,NA,NaN,NA,right,1784.5,1,1,2003
KquWi7bb,NA,NA,KquWi7bb,2020-0188,2021-09-27,13:59:46,15:03:14,NA,incomplete,false,NA,true,2,7,NA,NA,left,NA,NA,m_s_007.jpg,m_l_023.jpg,within,NA,NaN,NA,left,1718.5999999996275,1,1,1228.8999999994412
KquWi7bb,NA,NA,KquWi7bb,2020-0188,2021-09-27,13:59:46,15:03:14,NA,incomplete,false,NA,true,2,8,NA,NA,left,NA,NA,n_s_015.jpg,m_s_003.jpg,between-small,NA,NaN,NA,right,1547.699999999255,0,1,2484.5
KquWi7bb,NA,NA,KquWi7bb,2020-0188,2021-09-27,13:59:46,15:03:14,NA,incomplete,false,NA,true,2,9,NA,NA,right,NA,NA,m_s_011.jpg,m_s_018.jpg,within,NA,NaN,NA,right,1825.4000000003725,1,0,1728
KquWi7bb,NA,NA,KquWi7bb,2020-0188,2021-09-27,13:59:46,15:03:14,NA,incomplete,false,NA,true,2,10,NA,NA,right,NA,NA,a_1_021.jpg,a_1_022.jpg,between-small,NA,NaN,NA,left,2212.5999999996275,0,0,1236.3999999994412
KquWi7bb,NA,NA,KquWi7bb,2020-0188,2021-09-27,13:59:46,15:03:14,NA,incomplete,false,NA,true,2,11,NA,NA,left,NA,NA,m_l_026.jpg,i_s_009.jpg,between-big,NA,NaN,NA,left,1979.7999999998137,1,2,2231.600000000559
KquWi7bb,NA,NA,KquWi7bb,2020-0188,2021-09-27,13:59:46,15:03:14,NA,incomplete,false,NA,true,2,12,NA,NA,left,NA,NA,i_c_005.jpg,a_2_022.jpg,between-big,NA,NaN,NA,right,1018.6000000005588,0,2,1323.7999999998137
KquWi7bb,NA,NA,KquWi7bb,2020-0188,2021-09-27,13:59:46,15:03:14,NA,incomplete,false,NA,true,2,13,NA,NA,left,NA,NA,c_2_023.jpg,a_2_004.jpg,between-small,NA,NaN,NA,right,1035.6000000005588,0,1,971
KquWi7bb,NA,NA,KquWi7bb,2020-0188,2021-09-27,13:59:46,15:03:14,NA,incomplete,false,NA,true,2,14,NA,NA,left,NA,NA,o_c_011.jpg,i_c_027.jpg,between-small,NA,NaN,NA,right,891.7999999998137,0,1,3028.899999999441
KquWi7bb,NA,NA,KquWi7bb,2020-0188,2021-09-27,13:59:46,15:03:14,NA,incomplete,false,NA,true,2,15,NA,NA,left,NA,NA,m_s_011.jpg,m_s_007.jpg,between-small,NA,NaN,NA,left,2208.7000000001863,1,2,1180.8999999994412
KquWi7bb,NA,NA,KquWi7bb,2020-0188,2021-09-27,13:59:46,15:03:14,NA,incomplete,false,NA,true,2,16,NA,NA,left,NA,NA,i_s_009.jpg,o_c_011.jpg,within,NA,NaN,NA,left,1563.7999999998137,1,1,1050.7000000001863
KquWi7bb,NA,NA,KquWi7bb,2020-0188,2021-09-27,13:59:46,15:03:14,NA,incomplete,false,NA,true,2,17,NA,NA,right,NA,NA,i_s_006.jpg,m_l_023.jpg,between-big,NA,NaN,NA,right,1307.9000000003725,1,2,2289
KquWi7bb,NA,NA,KquWi7bb,2020-0188,2021-09-27,13:59:46,15:03:14,NA,incomplete,false,NA,true,2,18,NA,NA,left,NA,NA,o_c_016.jpg,i_c_005.jpg,within,NA,NaN,NA,left,3193.5999999996275,1,2,1188.6000000005588
KquWi7bb,NA,NA,KquWi7bb,2020-0188,2021-09-27,13:59:46,15:03:14,NA,incomplete,false,NA,true,2,19,NA,NA,left,NA,NA,c_1_002.jpg,c_2_023.jpg,within,NA,NaN,NA,right,1076.7000000001863,0,1,1319.9000000003725
KquWi7bb,NA,NA,KquWi7bb,2020-0188,2021-09-27,13:59:46,15:03:14,NA,incomplete,false,NA,true,2,20,NA,NA,right,NA,NA,a_1_022.jpg,c_2_027.jpg,within,NA,NaN,NA,right,1190.300000000745,1,1,992.5999999996275
KquWi7bb,NA,NA,KquWi7bb,2020-0188,2021-09-27,13:59:46,15:03:14,NA,incomplete,false,NA,true,2,21,NA,NA,right,NA,NA,n_l_014.jpg,n_l_002.jpg,between-small,NA,NaN,NA,left,1450.7999999998137,0,1,1369.7000000001863
KquWi7bb,NA,NA,KquWi7bb,2020-0188,2021-09-27,13:59:46,15:03:14,NA,incomplete,false,NA,true,2,22,NA,NA,right,NA,NA,c_1_012.jpg,c_2_021.jpg,within,NA,NaN,NA,right,1766.2000000001863,1,1,1533.4000000003725
KquWi7bb,NA,NA,KquWi7bb,2020-0188,2021-09-27,13:59:46,15:03:14,NA,incomplete,false,NA,true,2,23,NA,NA,left,NA,NA,n_s_011.jpg,n_l_002.jpg,within,NA,NaN,NA,left,1384.7999999998137,1,1,1294.5999999996275
KquWi7bb,NA,NA,KquWi7bb,2020-0188,2021-09-27,13:59:46,15:03:14,NA,incomplete,false,NA,true,2,24,NA,NA,right,NA,NA,o_s_010.jpg,o_s_021.jpg,within,NA,NaN,NA,right,932.0999999996275,1,1,1408.5999999996275
KquWi7bb,NA,NA,KquWi7bb,2020-0188,2021-09-27,13:59:46,15:03:14,NA,incomplete,false,NA,true,2,25,NA,NA,right,NA,NA,m_l_026.jpg,m_s_003.jpg,within,NA,NaN,NA,right,1956.5,1,1,1607.4000000003725
KquWi7bb,NA,NA,KquWi7bb,2020-0188,2021-09-27,13:59:46,15:03:14,NA,incomplete,false,NA,true,2,26,NA,NA,left,NA,NA,a_2_022.jpg,c_2_021.jpg,between-small,NA,NaN,NA,right,3584.9000000003725,0,0,1128.5
KquWi7bb,NA,NA,KquWi7bb,2020-0188,2021-09-27,13:59:46,15:03:14,NA,incomplete,false,true,NA,3,0,location,o_s_025.jpg,right,indoor,outdoor,NA,NA,NA,right,1540.09999999963,true,NA,NA,NA,NA,NA
KquWi7bb,NA,NA,KquWi7bb,2020-0188,2021-09-27,13:59:46,15:03:14,NA,incomplete,false,true,NA,3,1,location,o_c_018.jpg,left,outdoor,indoor,NA,NA,NA,left,1743.79999999981,true,NA,NA,NA,NA,NA
KquWi7bb,NA,NA,KquWi7bb,2020-0188,2021-09-27,13:59:46,15:03:14,NA,incomplete,false,true,NA,3,2,location,i_c_006.jpg,right,outdoor,indoor,NA,NA,NA,right,1284.59999999963,true,NA,NA,NA,NA,NA
KquWi7bb,NA,NA,KquWi7bb,2020-0188,2021-09-27,13:59:46,15:03:14,NA,incomplete,false,true,NA,3,3,location,o_c_003.jpg,left,outdoor,indoor,NA,NA,NA,left,2025.69999999925,true,NA,NA,NA,NA,NA
KquWi7bb,NA,NA,KquWi7bb,2020-0188,2021-09-27,13:59:46,15:03:14,NA,incomplete,false,true,NA,3,4,location,i_c_020.jpg,left,indoor,outdoor,NA,NA,NA,left,2709.09999999963,true,NA,NA,NA,NA,NA
KquWi7bb,NA,NA,KquWi7bb,2020-0188,2021-09-27,13:59:46,15:03:14,NA,incomplete,false,true,NA,3,5,building,o_c_008.jpg,right,skyscraper,cottage,NA,NA,NA,right,1826.29999999981,true,NA,NA,NA,NA,NA
KquWi7bb,NA,NA,KquWi7bb,2020-0188,2021-09-27,13:59:46,15:03:14,NA,incomplete,false,true,NA,3,6,building,o_s_020.jpg,left,skyscraper,cottage,NA,NA,NA,left,1521.19999999925,true,NA,NA,NA,NA,NA
KquWi7bb,NA,NA,KquWi7bb,2020-0188,2021-09-27,13:59:46,15:03:14,NA,incomplete,false,true,NA,3,7,building,o_c_002.jpg,right,skyscraper,cottage,NA,NA,NA,right,1248.10000000056,true,NA,NA,NA,NA,NA
KquWi7bb,NA,NA,KquWi7bb,2020-0188,2021-09-27,13:59:46,15:03:14,NA,incomplete,false,true,NA,3,8,building,o_c_022.jpg,left,cottage,skyscraper,NA,NA,NA,left,1622.5,true,NA,NA,NA,NA,NA
KquWi7bb,NA,NA,KquWi7bb,2020-0188,2021-09-27,13:59:46,15:03:14,NA,incomplete,false,true,NA,3,9,building,o_c_028.jpg,right,skyscraper,cottage,NA,NA,NA,right,1402.29999999981,true,NA,NA,NA,NA,NA
KquWi7bb,NA,NA,KquWi7bb,2020-0188,2021-09-27,13:59:46,15:03:14,NA,incomplete,false,true,NA,3,10,abstractness,c_1_006.jpg,right,abstract,concrete,NA,NA,NA,right,2093.19999999925,true,NA,NA,NA,NA,NA
KquWi7bb,NA,NA,KquWi7bb,2020-0188,2021-09-27,13:59:46,15:03:14,NA,incomplete,false,true,NA,3,11,abstractness,a_2_020.jpg,left,abstract,concrete,NA,NA,NA,left,1945.5,true,NA,NA,NA,NA,NA
KquWi7bb,NA,NA,KquWi7bb,2020-0188,2021-09-27,13:59:46,15:03:14,NA,incomplete,false,true,NA,3,12,abstractness,a_2_003.jpg,right,concrete,abstract,NA,NA,NA,right,2304.79999999981,true,NA,NA,NA,NA,NA
KquWi7bb,NA,NA,KquWi7bb,2020-0188,2021-09-27,13:59:46,15:03:14,NA,incomplete,false,true,NA,3,13,abstractness,c_1_023.jpg,right,abstract,concrete,NA,NA,NA,right,1510.89999999944,true,NA,NA,NA,NA,NA
KquWi7bb,NA,NA,KquWi7bb,2020-0188,2021-09-27,13:59:46,15:03:14,NA,incomplete,false,true,NA,3,14,abstractness,a_2_009.jpg,right,concrete,abstract,NA,NA,NA,right,2471.19999999925,true,NA,NA,NA,NA,NA
KquWi7bb,NA,NA,KquWi7bb,2020-0188,2021-09-27,13:59:46,15:03:14,NA,incomplete,false,true,NA,3,15,syllable,a_1_010.jpg,right,2 syllables,1 syllable,NA,NA,NA,right,1433.29999999981,true,NA,NA,NA,NA,NA
KquWi7bb,NA,NA,KquWi7bb,2020-0188,2021-09-27,13:59:46,15:03:14,NA,incomplete,false,true,NA,3,16,syllable,a_2_014.jpg,right,1 syllable,2 syllables,NA,NA,NA,right,1685.70000000019,true,NA,NA,NA,NA,NA
KquWi7bb,NA,NA,KquWi7bb,2020-0188,2021-09-27,13:59:46,15:03:14,NA,incomplete,false,true,NA,3,17,syllable,a_2_013.jpg,right,1 syllable,2 syllables,NA,NA,NA,right,1439.5,true,NA,NA,NA,NA,NA
KquWi7bb,NA,NA,KquWi7bb,2020-0188,2021-09-27,13:59:46,15:03:14,NA,incomplete,false,true,NA,3,18,syllable,c_1_008.jpg,right,2 syllables,1 syllable,NA,NA,NA,right,1024.59999999963,true,NA,NA,NA,NA,NA
KquWi7bb,NA,NA,KquWi7bb,2020-0188,2021-09-27,13:59:46,15:03:14,NA,incomplete,false,true,NA,3,19,syllable,c_1_018.jpg,right,2 syllables,1 syllable,NA,NA,NA,right,1310.5,true,NA,NA,NA,NA,NA
KquWi7bb,NA,NA,KquWi7bb,2020-0188,2021-09-27,13:59:46,15:03:14,NA,incomplete,false,true,NA,3,20,origin,n_s_014.jpg,left,natural,manmade,NA,NA,NA,left,1705.40000000037,true,NA,NA,NA,NA,NA
KquWi7bb,NA,NA,KquWi7bb,2020-0188,2021-09-27,13:59:46,15:03:14,NA,incomplete,false,true,NA,3,21,origin,n_s_010.jpg,left,natural,manmade,NA,NA,NA,left,1445.60000000056,true,NA,NA,NA,NA,NA
KquWi7bb,NA,NA,KquWi7bb,2020-0188,2021-09-27,13:59:46,15:03:14,NA,incomplete,false,true,NA,3,22,origin,n_l_016.jpg,right,manmade,natural,NA,NA,NA,right,1083,true,NA,NA,NA,NA,NA
KquWi7bb,NA,NA,KquWi7bb,2020-0188,2021-09-27,13:59:46,15:03:14,NA,incomplete,false,true,NA,3,23,origin,m_s_026.jpg,left,manmade,natural,NA,NA,NA,left,2527.40000000037,true,NA,NA,NA,NA,NA
KquWi7bb,NA,NA,KquWi7bb,2020-0188,2021-09-27,13:59:46,15:03:14,NA,incomplete,false,true,NA,3,24,origin,m_l_008.jpg,left,manmade,natural,NA,NA,NA,left,1313,true,NA,NA,NA,NA,NA
KquWi7bb,NA,NA,KquWi7bb,2020-0188,2021-09-27,13:59:46,15:03:14,NA,incomplete,false,true,NA,3,25,size,n_s_023.jpg,right,large,small,NA,NA,NA,right,1640.89999999944,true,NA,NA,NA,NA,NA
KquWi7bb,NA,NA,KquWi7bb,2020-0188,2021-09-27,13:59:46,15:03:14,NA,incomplete,false,true,NA,3,26,size,n_l_027.jpg,right,small,large,NA,NA,NA,right,2021.70000000019,true,NA,NA,NA,NA,NA
KquWi7bb,NA,NA,KquWi7bb,2020-0188,2021-09-27,13:59:46,15:03:14,NA,incomplete,false,true,NA,3,27,size,m_l_009.jpg,right,small,large,NA,NA,NA,right,1515.79999999981,true,NA,NA,NA,NA,NA
KquWi7bb,NA,NA,KquWi7bb,2020-0188,2021-09-27,13:59:46,15:03:14,NA,incomplete,false,true,NA,3,28,size,m_l_004.jpg,left,large,small,NA,NA,NA,left,1726.89999999944,true,NA,NA,NA,NA,NA
KquWi7bb,NA,NA,KquWi7bb,2020-0188,2021-09-27,13:59:46,15:03:14,NA,incomplete,false,true,NA,3,29,size,n_s_026.jpg,right,large,small,NA,NA,NA,right,1719,true,NA,NA,NA,NA,NA
KquWi7bb,NA,NA,KquWi7bb,2020-0188,2021-09-27,13:59:46,15:03:14,NA,incomplete,false,NA,true,3,0,NA,NA,left,NA,NA,o_s_025.jpg,o_c_003.jpg,within,NA,NaN,NA,left,2151.0999999996275,1,1,1031.3999999994412
KquWi7bb,NA,NA,KquWi7bb,2020-0188,2021-09-27,13:59:46,15:03:14,NA,incomplete,false,NA,true,3,1,NA,NA,left,NA,NA,a_2_013.jpg,n_s_014.jpg,between-big,NA,NaN,NA,left,2548.899999999441,1,1,910.5
KquWi7bb,NA,NA,KquWi7bb,2020-0188,2021-09-27,13:59:46,15:03:14,NA,incomplete,false,NA,true,3,2,NA,NA,left,NA,NA,n_s_014.jpg,m_s_026.jpg,within,NA,NaN,NA,left,2747.2000000001863,1,1,1326
KquWi7bb,NA,NA,KquWi7bb,2020-0188,2021-09-27,13:59:46,15:03:14,NA,incomplete,false,NA,true,3,3,NA,NA,right,NA,NA,c_1_006.jpg,o_c_002.jpg,between-big,NA,NaN,NA,right,2043.2999999998137,1,2,1670.9000000003725
KquWi7bb,NA,NA,KquWi7bb,2020-0188,2021-09-27,13:59:46,15:03:14,NA,incomplete,false,NA,true,3,4,NA,NA,left,NA,NA,o_c_022.jpg,a_2_020.jpg,between-big,NA,NaN,NA,right,2867.0999999996275,0,2,2329.5
KquWi7bb,NA,NA,KquWi7bb,2020-0188,2021-09-27,13:59:46,15:03:14,NA,incomplete,false,NA,true,3,5,NA,NA,right,NA,NA,o_c_002.jpg,i_c_020.jpg,between-small,NA,NaN,NA,right,1106.5,1,2,1212
KquWi7bb,NA,NA,KquWi7bb,2020-0188,2021-09-27,13:59:46,15:03:14,NA,incomplete,false,NA,true,3,6,NA,NA,right,NA,NA,a_2_009.jpg,a_2_020.jpg,within,NA,NaN,NA,right,2402,1,0,1167.0999999996275
KquWi7bb,NA,NA,KquWi7bb,2020-0188,2021-09-27,13:59:46,15:03:14,NA,incomplete,false,NA,true,3,7,NA,NA,right,NA,NA,o_c_022.jpg,o_c_008.jpg,within,NA,NaN,NA,right,5446.200000000186,1,1,975
KquWi7bb,NA,NA,KquWi7bb,2020-0188,2021-09-27,13:59:46,15:03:14,NA,incomplete,false,NA,true,3,8,NA,NA,left,NA,NA,c_1_006.jpg,c_1_023.jpg,within,NA,NaN,NA,left,6319.100000000559,1,0,1661.5999999996275
KquWi7bb,NA,NA,KquWi7bb,2020-0188,2021-09-27,13:59:46,15:03:14,NA,incomplete,false,NA,true,3,9,NA,NA,left,NA,NA,a_1_010.jpg,c_1_008.jpg,within,NA,NaN,NA,left,2054.100000000559,1,1,980.7000000001863
KquWi7bb,NA,NA,KquWi7bb,2020-0188,2021-09-27,13:59:46,15:03:14,NA,incomplete,false,NA,true,3,10,NA,NA,right,NA,NA,o_s_020.jpg,o_c_003.jpg,between-small,NA,NaN,NA,left,1416.800000000745,0,1,1001.9000000003725
KquWi7bb,NA,NA,KquWi7bb,2020-0188,2021-09-27,13:59:46,15:03:14,NA,incomplete,false,NA,true,3,11,NA,NA,right,NA,NA,n_l_027.jpg,m_s_026.jpg,between-small,NA,NaN,NA,right,2118.0999999996275,1,1,1468.5999999996275
KquWi7bb,NA,NA,KquWi7bb,2020-0188,2021-09-27,13:59:46,15:03:14,NA,incomplete,false,NA,true,3,12,NA,NA,left,NA,NA,m_l_008.jpg,m_l_009.jpg,between-small,NA,NaN,NA,right,2485.5999999996275,0,1,1394.5
KquWi7bb,NA,NA,KquWi7bb,2020-0188,2021-09-27,13:59:46,15:03:14,NA,incomplete,false,NA,true,3,13,NA,NA,left,NA,NA,n_s_023.jpg,m_l_004.jpg,within,NA,NaN,NA,left,1849.4000000003725,1,1,1644
KquWi7bb,NA,NA,KquWi7bb,2020-0188,2021-09-27,13:59:46,15:03:14,NA,incomplete,false,NA,true,3,14,NA,NA,right,NA,NA,a_2_013.jpg,a_2_009.jpg,between-small,NA,NaN,NA,right,2094.600000000559,1,2,2014.2999999998137
KquWi7bb,NA,NA,KquWi7bb,2020-0188,2021-09-27,13:59:46,15:03:14,NA,incomplete,false,NA,true,3,15,NA,NA,left,NA,NA,a_2_014.jpg,c_1_018.jpg,within,NA,NaN,NA,right,2052.7999999998137,0,0,1042.1000000005588
KquWi7bb,NA,NA,KquWi7bb,2020-0188,2021-09-27,13:59:46,15:03:14,NA,incomplete,false,NA,true,3,16,NA,NA,left,NA,NA,n_s_010.jpg,m_l_008.jpg,within,NA,NaN,NA,left,1596.0999999996275,1,2,1134.2999999998137
KquWi7bb,NA,NA,KquWi7bb,2020-0188,2021-09-27,13:59:46,15:03:14,NA,incomplete,false,NA,true,3,17,NA,NA,left,NA,NA,i_c_006.jpg,o_c_008.jpg,between-small,NA,NaN,NA,right,1800.3999999994412,0,1,1890.3999999994412
KquWi7bb,NA,NA,KquWi7bb,2020-0188,2021-09-27,13:59:46,15:03:14,NA,incomplete,false,NA,true,3,18,NA,NA,left,NA,NA,o_c_018.jpg,i_c_020.jpg,within,NA,NaN,NA,right,1628.3999999994412,0,1,2151
KquWi7bb,NA,NA,KquWi7bb,2020-0188,2021-09-27,13:59:46,15:03:14,NA,incomplete,false,NA,true,3,19,NA,NA,left,NA,NA,o_s_020.jpg,o_c_028.jpg,within,NA,NaN,NA,left,2568.7999999998137,1,1,2289.699999999255
KquWi7bb,NA,NA,KquWi7bb,2020-0188,2021-09-27,13:59:46,15:03:14,NA,incomplete,false,NA,true,3,20,NA,NA,right,NA,NA,a_2_014.jpg,c_1_023.jpg,between-small,NA,NaN,NA,left,1972.2999999998137,0,2,1897.800000000745
KquWi7bb,NA,NA,KquWi7bb,2020-0188,2021-09-27,13:59:46,15:03:14,NA,incomplete,false,NA,true,3,21,NA,NA,left,NA,NA,a_2_003.jpg,a_1_010.jpg,between-small,NA,NaN,NA,left,1772.1000000005588,1,1,1448.9000000003725
KquWi7bb,NA,NA,KquWi7bb,2020-0188,2021-09-27,13:59:46,15:03:14,NA,incomplete,false,NA,true,3,22,NA,NA,left,NA,NA,o_c_028.jpg,a_2_003.jpg,between-big,NA,NaN,NA,left,1225.0999999996275,1,2,1090.7999999998137
KquWi7bb,NA,NA,KquWi7bb,2020-0188,2021-09-27,13:59:46,15:03:14,NA,incomplete,false,NA,true,3,23,NA,NA,left,NA,NA,c_1_018.jpg,n_l_016.jpg,between-big,NA,NaN,NA,left,1695.4000000003725,1,2,1533.3999999994412
KquWi7bb,NA,NA,KquWi7bb,2020-0188,2021-09-27,13:59:46,15:03:14,NA,incomplete,false,NA,true,3,24,NA,NA,left,NA,NA,c_1_008.jpg,n_s_010.jpg,between-big,NA,NaN,NA,right,2740,0,2,1518.5
KquWi7bb,NA,NA,KquWi7bb,2020-0188,2021-09-27,13:59:46,15:03:14,NA,incomplete,false,NA,true,3,25,NA,NA,right,NA,NA,n_s_026.jpg,n_l_027.jpg,within,NA,NaN,NA,right,1905.7000000001863,1,0,2403.2000000001863
KquWi7bb,NA,NA,KquWi7bb,2020-0188,2021-09-27,13:59:46,15:03:14,NA,incomplete,false,NA,true,3,26,NA,NA,left,NA,NA,n_l_016.jpg,n_s_023.jpg,between-small,NA,NaN,NA,right,1044.5,0,2,1160
KquWi7bb,NA,NA,KquWi7bb,2020-0188,2021-09-27,13:59:46,15:03:14,NA,incomplete,false,true,NA,4,0,building,o_c_001.jpg,right,skyscraper,cottage,NA,NA,NA,right,1226.19999999925,true,NA,NA,NA,NA,NA
KquWi7bb,NA,NA,KquWi7bb,2020-0188,2021-09-27,13:59:46,15:03:14,NA,incomplete,false,true,NA,4,1,building,i_c_019.jpg,left,cottage,skyscraper,NA,NA,NA,left,1269.5,true,NA,NA,NA,NA,NA
KquWi7bb,NA,NA,KquWi7bb,2020-0188,2021-09-27,13:59:46,15:03:14,NA,incomplete,false,true,NA,4,2,building,i_s_002.jpg,right,cottage,skyscraper,NA,NA,NA,right,1706.5,true,NA,NA,NA,NA,NA
KquWi7bb,NA,NA,KquWi7bb,2020-0188,2021-09-27,13:59:46,15:03:14,NA,incomplete,false,true,NA,4,3,building,i_s_019.jpg,right,cottage,skyscraper,NA,NA,NA,right,1408.09999999963,true,NA,NA,NA,NA,NA
KquWi7bb,NA,NA,KquWi7bb,2020-0188,2021-09-27,13:59:46,15:03:14,NA,incomplete,false,true,NA,4,4,building,o_s_009.jpg,left,skyscraper,cottage,NA,NA,NA,left,2060.5,true,NA,NA,NA,NA,NA
KquWi7bb,NA,NA,KquWi7bb,2020-0188,2021-09-27,13:59:46,15:03:14,NA,incomplete,false,true,NA,4,5,location,o_c_014.jpg,right,indoor,outdoor,NA,NA,NA,right,1699.10000000056,true,NA,NA,NA,NA,NA
KquWi7bb,NA,NA,KquWi7bb,2020-0188,2021-09-27,13:59:46,15:03:14,NA,incomplete,false,true,NA,4,6,location,i_s_024.jpg,left,indoor,outdoor,NA,NA,NA,left,1903.5,true,NA,NA,NA,NA,NA
KquWi7bb,NA,NA,KquWi7bb,2020-0188,2021-09-27,13:59:46,15:03:14,NA,incomplete,false,true,NA,4,7,location,o_c_026.jpg,right,indoor,outdoor,NA,NA,NA,right,2185.29999999981,true,NA,NA,NA,NA,NA
KquWi7bb,NA,NA,KquWi7bb,2020-0188,2021-09-27,13:59:46,15:03:14,NA,incomplete,false,true,NA,4,8,location,o_s_024.jpg,left,outdoor,indoor,NA,NA,NA,left,1585.70000000019,true,NA,NA,NA,NA,NA
KquWi7bb,NA,NA,KquWi7bb,2020-0188,2021-09-27,13:59:46,15:03:14,NA,incomplete,false,true,NA,4,9,location,o_c_020.jpg,right,indoor,outdoor,NA,NA,NA,right,1235,true,NA,NA,NA,NA,NA
KquWi7bb,NA,NA,KquWi7bb,2020-0188,2021-09-27,13:59:46,15:03:14,NA,incomplete,false,true,NA,4,10,origin,n_s_022.jpg,right,manmade,natural,NA,NA,NA,right,1120,true,NA,NA,NA,NA,NA
KquWi7bb,NA,NA,KquWi7bb,2020-0188,2021-09-27,13:59:46,15:03:14,NA,incomplete,false,true,NA,4,11,origin,n_l_005.jpg,right,manmade,natural,NA,NA,NA,right,1040.79999999981,true,NA,NA,NA,NA,NA
KquWi7bb,NA,NA,KquWi7bb,2020-0188,2021-09-27,13:59:46,15:03:14,NA,incomplete,false,true,NA,4,12,origin,m_l_006.jpg,left,manmade,natural,NA,NA,NA,left,1336.70000000019,true,NA,NA,NA,NA,NA
KquWi7bb,NA,NA,KquWi7bb,2020-0188,2021-09-27,13:59:46,15:03:14,NA,incomplete,false,true,NA,4,13,origin,m_s_028.jpg,right,natural,manmade,NA,NA,NA,right,1448,true,NA,NA,NA,NA,NA
KquWi7bb,NA,NA,KquWi7bb,2020-0188,2021-09-27,13:59:46,15:03:14,NA,incomplete,false,true,NA,4,14,origin,n_s_005.jpg,right,manmade,natural,NA,NA,NA,right,1517.40000000037,true,NA,NA,NA,NA,NA
KquWi7bb,NA,NA,KquWi7bb,2020-0188,2021-09-27,13:59:46,15:03:14,NA,incomplete,false,true,NA,4,15,size,n_s_012.jpg,left,small,large,NA,NA,NA,left,1494.79999999981,true,NA,NA,NA,NA,NA
KquWi7bb,NA,NA,KquWi7bb,2020-0188,2021-09-27,13:59:46,15:03:14,NA,incomplete,false,true,NA,4,16,size,m_l_017.jpg,right,small,large,NA,NA,NA,right,1275.40000000037,true,NA,NA,NA,NA,NA
KquWi7bb,NA,NA,KquWi7bb,2020-0188,2021-09-27,13:59:46,15:03:14,NA,incomplete,false,true,NA,4,17,size,m_s_020.jpg,right,large,small,NA,NA,NA,right,1704.20000000019,true,NA,NA,NA,NA,NA
KquWi7bb,NA,NA,KquWi7bb,2020-0188,2021-09-27,13:59:46,15:03:14,NA,incomplete,false,true,NA,4,18,size,m_s_027.jpg,left,small,large,NA,NA,NA,left,2747.5,true,NA,NA,NA,NA,NA
KquWi7bb,NA,NA,KquWi7bb,2020-0188,2021-09-27,13:59:46,15:03:14,NA,incomplete,false,true,NA,4,19,size,n_l_013.jpg,right,small,large,NA,NA,NA,right,1280.5,true,NA,NA,NA,NA,NA
KquWi7bb,NA,NA,KquWi7bb,2020-0188,2021-09-27,13:59:46,15:03:14,NA,incomplete,false,true,NA,4,20,abstractness,a_2_015.jpg,right,concrete,abstract,NA,NA,NA,right,1729.60000000056,true,NA,NA,NA,NA,NA
KquWi7bb,NA,NA,KquWi7bb,2020-0188,2021-09-27,13:59:46,15:03:14,NA,incomplete,false,true,NA,4,21,abstractness,a_1_025.jpg,right,concrete,abstract,NA,NA,NA,right,2217.80000000075,true,NA,NA,NA,NA,NA
KquWi7bb,NA,NA,KquWi7bb,2020-0188,2021-09-27,13:59:46,15:03:14,NA,incomplete,false,true,NA,4,22,abstractness,a_1_013.jpg,left,abstract,concrete,NA,NA,NA,left,2080.20000000019,true,NA,NA,NA,NA,NA
KquWi7bb,NA,NA,KquWi7bb,2020-0188,2021-09-27,13:59:46,15:03:14,NA,incomplete,false,true,NA,4,23,abstractness,c_2_015.jpg,right,abstract,concrete,NA,NA,NA,right,1540.29999999981,true,NA,NA,NA,NA,NA
KquWi7bb,NA,NA,KquWi7bb,2020-0188,2021-09-27,13:59:46,15:03:14,NA,incomplete,false,true,NA,4,24,abstractness,a_2_006.jpg,left,abstract,concrete,NA,NA,NA,left,2610.90000000037,true,NA,NA,NA,NA,NA
KquWi7bb,NA,NA,KquWi7bb,2020-0188,2021-09-27,13:59:46,15:03:14,NA,incomplete,false,true,NA,4,25,syllable,a_1_026.jpg,right,2 syllables,1 syllable,NA,NA,NA,right,1516,true,NA,NA,NA,NA,NA
KquWi7bb,NA,NA,KquWi7bb,2020-0188,2021-09-27,13:59:46,15:03:14,NA,incomplete,false,true,NA,4,26,syllable,a_1_012.jpg,right,2 syllables,1 syllable,NA,NA,NA,right,998.200000000186,true,NA,NA,NA,NA,NA
KquWi7bb,NA,NA,KquWi7bb,2020-0188,2021-09-27,13:59:46,15:03:14,NA,incomplete,false,true,NA,4,27,syllable,c_2_017.jpg,right,2 syllables,1 syllable,NA,NA,NA,left,2302.60000000056,false,NA,NA,NA,NA,NA
KquWi7bb,NA,NA,KquWi7bb,2020-0188,2021-09-27,13:59:46,15:03:14,NA,incomplete,false,true,NA,4,28,syllable,c_1_017.jpg,right,2 syllables,1 syllable,NA,NA,NA,right,1340.79999999981,true,NA,NA,NA,NA,NA
KquWi7bb,NA,NA,KquWi7bb,2020-0188,2021-09-27,13:59:46,15:03:14,NA,incomplete,false,true,NA,4,29,syllable,a_2_028.jpg,right,1 syllable,2 syllables,NA,NA,NA,right,1352.39999999944,true,NA,NA,NA,NA,NA
KquWi7bb,NA,NA,KquWi7bb,2020-0188,2021-09-27,13:59:46,15:03:14,NA,incomplete,false,NA,true,4,0,NA,NA,right,NA,NA,n_s_012.jpg,m_l_006.jpg,between-small,NA,NaN,NA,right,1210.300000000745,1,2,1740.3999999994412
KquWi7bb,NA,NA,KquWi7bb,2020-0188,2021-09-27,13:59:46,15:03:14,NA,incomplete,false,NA,true,4,1,NA,NA,right,NA,NA,m_l_006.jpg,o_c_020.jpg,between-big,NA,NaN,NA,right,916.1000000005588,1,2,1359
KquWi7bb,NA,NA,KquWi7bb,2020-0188,2021-09-27,13:59:46,15:03:14,NA,incomplete,false,NA,true,4,2,NA,NA,left,NA,NA,m_s_028.jpg,m_l_017.jpg,between-small,NA,NaN,NA,left,3105.2999999998137,1,1,1310.7000000001863
KquWi7bb,NA,NA,KquWi7bb,2020-0188,2021-09-27,13:59:46,15:03:14,NA,incomplete,false,NA,true,4,3,NA,NA,left,NA,NA,a_1_013.jpg,a_1_026.jpg,between-small,NA,NaN,NA,right,3559.399999999441,0,1,917.9000000003725
KquWi7bb,NA,NA,KquWi7bb,2020-0188,2021-09-27,13:59:46,15:03:14,NA,incomplete,false,NA,true,4,4,NA,NA,left,NA,NA,o_c_001.jpg,i_s_019.jpg,within,NA,NaN,NA,left,2259.2000000001863,1,2,1954.4000000003725
KquWi7bb,NA,NA,KquWi7bb,2020-0188,2021-09-27,13:59:46,15:03:14,NA,incomplete,false,NA,true,4,5,NA,NA,left,NA,NA,a_1_012.jpg,a_2_028.jpg,within,NA,NaN,NA,left,2163.9000000003725,1,1,1278.2000000001863
KquWi7bb,NA,NA,KquWi7bb,2020-0188,2021-09-27,13:59:46,15:03:14,NA,incomplete,false,NA,true,4,6,NA,NA,left,NA,NA,i_c_019.jpg,o_s_009.jpg,within,NA,NaN,NA,left,1743.9000000003725,1,1,983.4000000003725
KquWi7bb,NA,NA,KquWi7bb,2020-0188,2021-09-27,13:59:46,15:03:14,NA,incomplete,false,NA,true,4,7,NA,NA,right,NA,NA,n_s_022.jpg,o_c_026.jpg,between-big,NA,NaN,NA,right,1294.9000000003725,1,2,1155.4000000003725
KquWi7bb,NA,NA,KquWi7bb,2020-0188,2021-09-27,13:59:46,15:03:14,NA,incomplete,false,NA,true,4,8,NA,NA,left,NA,NA,n_l_013.jpg,a_1_013.jpg,between-big,NA,NaN,NA,left,1562.4000000003725,1,2,925
KquWi7bb,NA,NA,KquWi7bb,2020-0188,2021-09-27,13:59:46,15:03:14,NA,incomplete,false,NA,true,4,9,NA,NA,right,NA,NA,m_s_020.jpg,n_s_005.jpg,between-small,NA,NaN,NA,left,1155.7999999998137,0,1,2515.7000000001863
KquWi7bb,NA,NA,KquWi7bb,2020-0188,2021-09-27,13:59:46,15:03:14,NA,incomplete,false,NA,true,4,10,NA,NA,right,NA,NA,c_2_017.jpg,a_2_006.jpg,between-small,NA,NaN,NA,right,2088.100000000559,1,1,927.5999999996275
KquWi7bb,NA,NA,KquWi7bb,2020-0188,2021-09-27,13:59:46,15:03:14,NA,incomplete,false,NA,true,4,11,NA,NA,left,NA,NA,n_s_022.jpg,m_s_028.jpg,within,NA,NaN,NA,right,1000.3999999994412,0,2,2394.9000000003725
KquWi7bb,NA,NA,KquWi7bb,2020-0188,2021-09-27,13:59:46,15:03:14,NA,incomplete,false,NA,true,4,12,NA,NA,right,NA,NA,n_l_013.jpg,m_l_017.jpg,within,NA,NaN,NA,right,1084.1000000005588,1,2,788.6999999992549
KquWi7bb,NA,NA,KquWi7bb,2020-0188,2021-09-27,13:59:46,15:03:14,NA,incomplete,false,NA,true,4,13,NA,NA,right,NA,NA,a_2_006.jpg,a_1_025.jpg,within,NA,NaN,NA,right,1678.4000000003725,1,1,1526.7999999998137
KquWi7bb,NA,NA,KquWi7bb,2020-0188,2021-09-27,13:59:46,15:03:14,NA,incomplete,false,NA,true,4,14,NA,NA,left,NA,NA,n_s_012.jpg,m_s_027.jpg,within,NA,NaN,NA,right,1724,0,1,1115.4000000003725
KquWi7bb,NA,NA,KquWi7bb,2020-0188,2021-09-27,13:59:46,15:03:14,NA,incomplete,false,NA,true,4,15,NA,NA,right,NA,NA,o_c_026.jpg,o_s_009.jpg,between-small,NA,NaN,NA,right,1336.1000000005588,1,0,1253.7000000001863
KquWi7bb,NA,NA,KquWi7bb,2020-0188,2021-09-27,13:59:46,15:03:14,NA,incomplete,false,NA,true,4,16,NA,NA,left,NA,NA,i_s_002.jpg,o_c_014.jpg,between-small,NA,NaN,NA,right,1995.5,0,1,1066.0999999996275
KquWi7bb,NA,NA,KquWi7bb,2020-0188,2021-09-27,13:59:46,15:03:14,NA,incomplete,false,NA,true,4,17,NA,NA,right,NA,NA,a_2_015.jpg,m_s_020.jpg,between-big,NA,NaN,NA,right,1793.3999999994412,1,1,3377.5
KquWi7bb,NA,NA,KquWi7bb,2020-0188,2021-09-27,13:59:46,15:03:14,NA,incomplete,false,NA,true,4,18,NA,NA,right,NA,NA,o_c_020.jpg,i_s_024.jpg,within,NA,NaN,NA,left,2150.5999999996275,0,1,1448.9000000003725
KquWi7bb,NA,NA,KquWi7bb,2020-0188,2021-09-27,13:59:46,15:03:14,NA,incomplete,false,NA,true,4,19,NA,NA,right,NA,NA,c_1_017.jpg,a_1_026.jpg,within,NA,NaN,NA,left,1799.3999999994412,0,0,1262.2000000001863
KquWi7bb,NA,NA,KquWi7bb,2020-0188,2021-09-27,13:59:46,15:03:14,NA,incomplete,false,NA,true,4,20,NA,NA,right,NA,NA,a_1_025.jpg,m_s_027.jpg,between-big,NA,NaN,NA,right,1811,1,2,2508.2999999998137
KquWi7bb,NA,NA,KquWi7bb,2020-0188,2021-09-27,13:59:46,15:03:14,NA,incomplete,false,NA,true,4,21,NA,NA,right,NA,NA,n_l_005.jpg,o_s_024.jpg,between-big,NA,NaN,NA,right,1801.2999999998137,1,2,2900.7999999998137
KquWi7bb,NA,NA,KquWi7bb,2020-0188,2021-09-27,13:59:46,15:03:14,NA,incomplete,false,NA,true,4,22,NA,NA,right,NA,NA,i_s_024.jpg,i_s_019.jpg,between-small,NA,NaN,NA,left,1995.8999999994412,0,1,1720
KquWi7bb,NA,NA,KquWi7bb,2020-0188,2021-09-27,13:59:46,15:03:14,NA,incomplete,false,NA,true,4,23,NA,NA,right,NA,NA,c_2_015.jpg,a_2_015.jpg,within,NA,NaN,NA,left,3122,0,2,2728.4000000003725
KquWi7bb,NA,NA,KquWi7bb,2020-0188,2021-09-27,13:59:46,15:03:14,NA,incomplete,false,NA,true,4,24,NA,NA,right,NA,NA,a_1_012.jpg,c_2_015.jpg,between-small,NA,NaN,NA,right,1440.699999999255,1,1,2093.600000000559
KquWi7bb,NA,NA,KquWi7bb,2020-0188,2021-09-27,13:59:46,15:03:14,NA,incomplete,false,NA,true,4,25,NA,NA,right,NA,NA,o_s_024.jpg,o_c_014.jpg,within,NA,NaN,NA,right,2861.199999999255,1,1,1076.7999999988824
KquWi7bb,NA,NA,KquWi7bb,2020-0188,2021-09-27,13:59:46,15:03:14,NA,incomplete,false,NA,true,4,26,NA,NA,left,NA,NA,n_l_005.jpg,n_s_005.jpg,within,NA,NaN,NA,left,1422.300000000745,1,1,1664.7000000011176
KquWi7bb,NA,NA,KquWi7bb,2020-0188,2021-09-27,13:59:46,15:03:14,NA,incomplete,false,true,NA,5,0,syllable,a_1_004.jpg,right,2 syllables,1 syllable,NA,NA,NA,right,1750.19999999925,true,NA,NA,NA,NA,NA
KquWi7bb,NA,NA,KquWi7bb,2020-0188,2021-09-27,13:59:46,15:03:14,NA,incomplete,false,true,NA,5,1,syllable,a_2_002.jpg,right,1 syllable,2 syllables,NA,NA,NA,right,1382.80000000075,true,NA,NA,NA,NA,NA
KquWi7bb,NA,NA,KquWi7bb,2020-0188,2021-09-27,13:59:46,15:03:14,NA,incomplete,false,true,NA,5,2,syllable,c_2_018.jpg,right,2 syllables,1 syllable,NA,NA,NA,left,1778.09999999963,false,NA,NA,NA,NA,NA
KquWi7bb,NA,NA,KquWi7bb,2020-0188,2021-09-27,13:59:46,15:03:14,NA,incomplete,false,true,NA,5,3,syllable,a_2_010.jpg,right,1 syllable,2 syllables,NA,NA,NA,right,1400,true,NA,NA,NA,NA,NA
KquWi7bb,NA,NA,KquWi7bb,2020-0188,2021-09-27,13:59:46,15:03:14,NA,incomplete,false,true,NA,5,4,syllable,a_2_019.jpg,right,1 syllable,2 syllables,NA,NA,NA,right,888.300000000745,true,NA,NA,NA,NA,NA
KquWi7bb,NA,NA,KquWi7bb,2020-0188,2021-09-27,13:59:46,15:03:14,NA,incomplete,false,true,NA,5,5,abstractness,a_1_007.jpg,right,concrete,abstract,NA,NA,NA,right,1540.19999999925,true,NA,NA,NA,NA,NA
KquWi7bb,NA,NA,KquWi7bb,2020-0188,2021-09-27,13:59:46,15:03:14,NA,incomplete,false,true,NA,5,6,abstractness,a_1_015.jpg,left,abstract,concrete,NA,NA,NA,left,1923.69999999925,true,NA,NA,NA,NA,NA
KquWi7bb,NA,NA,KquWi7bb,2020-0188,2021-09-27,13:59:46,15:03:14,NA,incomplete,false,true,NA,5,7,abstractness,c_1_004.jpg,left,concrete,abstract,NA,NA,NA,left,2372.30000000075,true,NA,NA,NA,NA,NA
KquWi7bb,NA,NA,KquWi7bb,2020-0188,2021-09-27,13:59:46,15:03:14,NA,incomplete,false,true,NA,5,8,abstractness,a_1_016.jpg,right,concrete,abstract,NA,NA,NA,right,2026.20000000112,true,NA,NA,NA,NA,NA
KquWi7bb,NA,NA,KquWi7bb,2020-0188,2021-09-27,13:59:46,15:03:14,NA,incomplete,false,true,NA,5,9,abstractness,c_1_014.jpg,left,concrete,abstract,NA,NA,NA,left,2221.79999999888,true,NA,NA,NA,NA,NA
KquWi7bb,NA,NA,KquWi7bb,2020-0188,2021-09-27,13:59:46,15:03:14,NA,incomplete,false,true,NA,5,10,building,i_c_013.jpg,right,skyscraper,cottage,NA,NA,NA,right,1183.40000000037,true,NA,NA,NA,NA,NA
KquWi7bb,NA,NA,KquWi7bb,2020-0188,2021-09-27,13:59:46,15:03:14,NA,incomplete,false,true,NA,5,11,building,i_s_012.jpg,left,skyscraper,cottage,NA,NA,NA,left,1509.79999999888,true,NA,NA,NA,NA,NA
KquWi7bb,NA,NA,KquWi7bb,2020-0188,2021-09-27,13:59:46,15:03:14,NA,incomplete,false,true,NA,5,12,building,o_s_004.jpg,left,skyscraper,cottage,NA,NA,NA,left,1235.59999999963,true,NA,NA,NA,NA,NA
KquWi7bb,NA,NA,KquWi7bb,2020-0188,2021-09-27,13:59:46,15:03:14,NA,incomplete,false,true,NA,5,13,building,o_c_004.jpg,right,skyscraper,cottage,NA,NA,NA,right,1497.90000000037,true,NA,NA,NA,NA,NA
KquWi7bb,NA,NA,KquWi7bb,2020-0188,2021-09-27,13:59:46,15:03:14,NA,incomplete,false,true,NA,5,14,building,i_s_008.jpg,right,cottage,skyscraper,NA,NA,NA,right,1484.29999999888,true,NA,NA,NA,NA,NA
KquWi7bb,NA,NA,KquWi7bb,2020-0188,2021-09-27,13:59:46,15:03:14,NA,incomplete,false,true,NA,5,15,location,i_s_004.jpg,right,outdoor,indoor,NA,NA,NA,right,1665.5,true,NA,NA,NA,NA,NA
KquWi7bb,NA,NA,KquWi7bb,2020-0188,2021-09-27,13:59:46,15:03:14,NA,incomplete,false,true,NA,5,16,location,o_c_025.jpg,left,outdoor,indoor,NA,NA,NA,left,1519.20000000112,true,NA,NA,NA,NA,NA
KquWi7bb,NA,NA,KquWi7bb,2020-0188,2021-09-27,13:59:46,15:03:14,NA,incomplete,false,true,NA,5,17,location,o_s_017.jpg,right,indoor,outdoor,NA,NA,NA,right,1671.90000000037,true,NA,NA,NA,NA,NA
KquWi7bb,NA,NA,KquWi7bb,2020-0188,2021-09-27,13:59:46,15:03:14,NA,incomplete,false,true,NA,5,18,location,i_c_024.jpg,right,outdoor,indoor,NA,NA,NA,right,2801.90000000037,true,NA,NA,NA,NA,NA
KquWi7bb,NA,NA,KquWi7bb,2020-0188,2021-09-27,13:59:46,15:03:14,NA,incomplete,false,true,NA,5,19,location,i_s_016.jpg,left,indoor,outdoor,NA,NA,NA,right,1462.5,false,NA,NA,NA,NA,NA
KquWi7bb,NA,NA,KquWi7bb,2020-0188,2021-09-27,13:59:46,15:03:14,NA,incomplete,false,true,NA,5,20,origin,n_s_001.jpg,right,manmade,natural,NA,NA,NA,right,1194.59999999963,true,NA,NA,NA,NA,NA
KquWi7bb,NA,NA,KquWi7bb,2020-0188,2021-09-27,13:59:46,15:03:14,NA,incomplete,false,true,NA,5,21,origin,n_l_022.jpg,right,manmade,natural,NA,NA,NA,right,1044.69999999925,true,NA,NA,NA,NA,NA
KquWi7bb,NA,NA,KquWi7bb,2020-0188,2021-09-27,13:59:46,15:03:14,NA,incomplete,false,true,NA,5,22,origin,n_s_002.jpg,left,natural,manmade,NA,NA,NA,left,1134.5,true,NA,NA,NA,NA,NA
KquWi7bb,NA,NA,KquWi7bb,2020-0188,2021-09-27,13:59:46,15:03:14,NA,incomplete,false,true,NA,5,23,origin,m_l_007.jpg,right,natural,manmade,NA,NA,NA,right,1461.29999999888,true,NA,NA,NA,NA,NA
KquWi7bb,NA,NA,KquWi7bb,2020-0188,2021-09-27,13:59:46,15:03:14,NA,incomplete,false,true,NA,5,24,origin,m_s_004.jpg,right,natural,manmade,NA,NA,NA,right,1585.30000000075,true,NA,NA,NA,NA,NA
KquWi7bb,NA,NA,KquWi7bb,2020-0188,2021-09-27,13:59:46,15:03:14,NA,incomplete,false,true,NA,5,25,size,n_s_016.jpg,right,large,small,NA,NA,NA,right,2605.29999999888,true,NA,NA,NA,NA,NA
KquWi7bb,NA,NA,KquWi7bb,2020-0188,2021-09-27,13:59:46,15:03:14,NA,incomplete,false,true,NA,5,26,size,n_s_004.jpg,left,small,large,NA,NA,NA,left,1803,true,NA,NA,NA,NA,NA
KquWi7bb,NA,NA,KquWi7bb,2020-0188,2021-09-27,13:59:46,15:03:14,NA,incomplete,false,true,NA,5,27,size,m_s_012.jpg,right,large,small,NA,NA,NA,right,1749.5,true,NA,NA,NA,NA,NA
KquWi7bb,NA,NA,KquWi7bb,2020-0188,2021-09-27,13:59:46,15:03:14,NA,incomplete,false,true,NA,5,28,size,m_l_019.jpg,left,large,small,NA,NA,NA,left,1324.09999999963,true,NA,NA,NA,NA,NA
KquWi7bb,NA,NA,KquWi7bb,2020-0188,2021-09-27,13:59:46,15:03:14,NA,incomplete,false,true,NA,5,29,size,n_l_019.jpg,left,large,small,NA,NA,NA,left,1958.90000000037,true,NA,NA,NA,NA,NA
KquWi7bb,NA,NA,KquWi7bb,2020-0188,2021-09-27,13:59:46,15:03:14,NA,incomplete,false,NA,true,5,0,NA,NA,right,NA,NA,m_s_004.jpg,n_l_022.jpg,within,NA,NaN,NA,right,2303.9000000003725,1,2,1288.300000000745
KquWi7bb,NA,NA,KquWi7bb,2020-0188,2021-09-27,13:59:46,15:03:14,NA,incomplete,false,NA,true,5,1,NA,NA,right,NA,NA,n_l_022.jpg,i_c_024.jpg,between-big,NA,NaN,NA,right,1224,1,1,1009.5
KquWi7bb,NA,NA,KquWi7bb,2020-0188,2021-09-27,13:59:46,15:03:14,NA,incomplete,false,NA,true,5,2,NA,NA,right,NA,NA,m_l_007.jpg,n_s_001.jpg,within,NA,NaN,NA,right,1238.7999999988824,1,0,918.5999999996275
KquWi7bb,NA,NA,KquWi7bb,2020-0188,2021-09-27,13:59:46,15:03:14,NA,incomplete,false,NA,true,5,3,NA,NA,right,NA,NA,n_s_001.jpg,o_s_017.jpg,between-big,NA,NaN,NA,right,1815.6000000014901,1,2,1025.300000000745
KquWi7bb,NA,NA,KquWi7bb,2020-0188,2021-09-27,13:59:46,15:03:14,NA,incomplete,false,NA,true,5,4,NA,NA,left,NA,NA,a_1_015.jpg,c_1_014.jpg,within,NA,NaN,NA,left,3045.199999999255,1,1,3405.5
KquWi7bb,NA,NA,KquWi7bb,2020-0188,2021-09-27,13:59:46,15:03:14,NA,incomplete,false,NA,true,5,5,NA,NA,left,NA,NA,o_c_025.jpg,i_s_016.jpg,within,NA,NaN,NA,left,1956.1000000014901,1,1,2783.9000000003725
KquWi7bb,NA,NA,KquWi7bb,2020-0188,2021-09-27,13:59:46,15:03:14,NA,incomplete,false,NA,true,5,6,NA,NA,left,NA,NA,o_s_004.jpg,i_s_004.jpg,between-small,NA,NaN,NA,right,1273,0,1,1126.699999999255
KquWi7bb,NA,NA,KquWi7bb,2020-0188,2021-09-27,13:59:46,15:03:14,NA,incomplete,false,NA,true,5,7,NA,NA,left,NA,NA,c_1_004.jpg,i_c_013.jpg,between-big,NA,NaN,NA,right,1321.7000000011176,0,2,1058.4000000003725
KquWi7bb,NA,NA,KquWi7bb,2020-0188,2021-09-27,13:59:46,15:03:14,NA,incomplete,false,NA,true,5,8,NA,NA,left,NA,NA,i_s_016.jpg,n_s_002.jpg,between-big,NA,NaN,NA,left,1995.9000000003725,1,2,1416.0999999996275
KquWi7bb,NA,NA,KquWi7bb,2020-0188,2021-09-27,13:59:46,15:03:14,NA,incomplete,false,NA,true,5,9,NA,NA,right,NA,NA,o_s_017.jpg,i_s_008.jpg,between-small,NA,NaN,NA,right,1767.199999999255,1,1,1525.2000000011176
KquWi7bb,NA,NA,KquWi7bb,2020-0188,2021-09-27,13:59:46,15:03:14,NA,incomplete,false,NA,true,5,10,NA,NA,left,NA,NA,n_s_002.jpg,n_s_016.jpg,between-small,NA,NaN,NA,left,2949.7999999988824,1,1,1009.1999999992549
KquWi7bb,NA,NA,KquWi7bb,2020-0188,2021-09-27,13:59:46,15:03:14,NA,incomplete,false,NA,true,5,11,NA,NA,right,NA,NA,a_2_019.jpg,a_2_002.jpg,within,NA,NaN,NA,left,1816.5,0,0,1228.199999999255
KquWi7bb,NA,NA,KquWi7bb,2020-0188,2021-09-27,13:59:46,15:03:14,NA,incomplete,false,NA,true,5,12,NA,NA,left,NA,NA,c_2_018.jpg,a_1_007.jpg,between-small,NA,NaN,NA,right,1699.7999999988824,0,0,1412.199999999255
KquWi7bb,NA,NA,KquWi7bb,2020-0188,2021-09-27,13:59:46,15:03:14,NA,incomplete,false,NA,true,5,13,NA,NA,left,NA,NA,a_1_016.jpg,i_s_012.jpg,between-big,NA,NaN,NA,right,1958.7000000011176,0,2,1555.0999999996275
KquWi7bb,NA,NA,KquWi7bb,2020-0188,2021-09-27,13:59:46,15:03:14,NA,incomplete,false,NA,true,5,14,NA,NA,left,NA,NA,m_l_007.jpg,n_s_004.jpg,between-small,NA,NaN,NA,right,1458,0,2,1274.300000000745
KquWi7bb,NA,NA,KquWi7bb,2020-0188,2021-09-27,13:59:46,15:03:14,NA,incomplete,false,NA,true,5,15,NA,NA,left,NA,NA,i_s_004.jpg,i_c_024.jpg,within,NA,NaN,NA,right,1177,0,1,2590
KquWi7bb,NA,NA,KquWi7bb,2020-0188,2021-09-27,13:59:46,15:03:14,NA,incomplete,false,NA,true,5,16,NA,NA,left,NA,NA,a_2_010.jpg,a_1_015.jpg,between-small,NA,NaN,NA,right,2109.7999999988824,0,1,1237.199999999255
KquWi7bb,NA,NA,KquWi7bb,2020-0188,2021-09-27,13:59:46,15:03:14,NA,incomplete,false,NA,true,5,17,NA,NA,left,NA,NA,o_c_004.jpg,o_c_025.jpg,between-small,NA,NaN,NA,left,2460.5999999996275,1,1,1078.4000000003725
KquWi7bb,NA,NA,KquWi7bb,2020-0188,2021-09-27,13:59:46,15:03:14,NA,incomplete,false,NA,true,5,18,NA,NA,right,NA,NA,m_s_012.jpg,m_s_004.jpg,between-small,NA,NaN,NA,right,945,1,1,1864.699999999255
KquWi7bb,NA,NA,KquWi7bb,2020-0188,2021-09-27,13:59:46,15:03:14,NA,incomplete,false,NA,true,5,19,NA,NA,right,NA,NA,a_2_010.jpg,a_1_004.jpg,within,NA,NaN,NA,left,2964.699999999255,0,1,1808.2999999988824
KquWi7bb,NA,NA,KquWi7bb,2020-0188,2021-09-27,13:59:46,15:03:14,NA,incomplete,false,NA,true,5,20,NA,NA,right,NA,NA,o_c_004.jpg,i_c_013.jpg,within,NA,NaN,NA,right,963.7999999988824,1,0,1793.3999999985099
KquWi7bb,NA,NA,KquWi7bb,2020-0188,2021-09-27,13:59:46,15:03:14,NA,incomplete,false,NA,true,5,21,NA,NA,left,NA,NA,a_1_007.jpg,a_1_016.jpg,within,NA,NaN,NA,left,6817.4000000003725,1,1,3479.5
KquWi7bb,NA,NA,KquWi7bb,2020-0188,2021-09-27,13:59:46,15:03:14,NA,incomplete,false,NA,true,5,22,NA,NA,left,NA,NA,a_2_019.jpg,c_1_004.jpg,between-small,NA,NaN,NA,left,2431.0999999996275,1,1,1229.5
KquWi7bb,NA,NA,KquWi7bb,2020-0188,2021-09-27,13:59:46,15:03:14,NA,incomplete,false,NA,true,5,23,NA,NA,left,NA,NA,n_s_016.jpg,m_l_019.jpg,within,NA,NaN,NA,right,1695.2000000011176,0,0,1114.199999999255
KquWi7bb,NA,NA,KquWi7bb,2020-0188,2021-09-27,13:59:46,15:03:14,NA,incomplete,false,NA,true,5,24,NA,NA,left,NA,NA,i_s_012.jpg,i_s_008.jpg,within,NA,NaN,NA,left,2923.5,1,0,1188.0999999996275
KquWi7bb,NA,NA,KquWi7bb,2020-0188,2021-09-27,13:59:46,15:03:14,NA,incomplete,false,NA,true,5,25,NA,NA,right,NA,NA,o_s_004.jpg,c_1_014.jpg,between-big,NA,NaN,NA,left,1864.9000000003725,0,1,1067
KquWi7bb,NA,NA,KquWi7bb,2020-0188,2021-09-27,13:59:46,15:03:14,NA,incomplete,false,NA,true,5,26,NA,NA,left,NA,NA,n_s_004.jpg,n_l_019.jpg,within,NA,NaN,NA,left,1794.7000000011176,1,1,1302.699999999255
KquWi7bb,NA,NA,KquWi7bb,2020-0188,2021-09-27,13:59:46,15:03:14,NA,incomplete,false,true,NA,6,0,location,i_c_001.jpg,left,indoor,outdoor,NA,NA,NA,left,1350.5,true,NA,NA,NA,NA,NA
KquWi7bb,NA,NA,KquWi7bb,2020-0188,2021-09-27,13:59:46,15:03:14,NA,incomplete,false,true,NA,6,1,location,o_c_027.jpg,right,indoor,outdoor,NA,NA,NA,right,1722.90000000037,true,NA,NA,NA,NA,NA
KquWi7bb,NA,NA,KquWi7bb,2020-0188,2021-09-27,13:59:46,15:03:14,NA,incomplete,false,true,NA,6,2,location,o_s_027.jpg,right,indoor,outdoor,NA,NA,NA,right,1124.40000000037,true,NA,NA,NA,NA,NA
KquWi7bb,NA,NA,KquWi7bb,2020-0188,2021-09-27,13:59:46,15:03:14,NA,incomplete,false,true,NA,6,3,location,i_c_002.jpg,left,indoor,outdoor,NA,NA,NA,left,1556.80000000075,true,NA,NA,NA,NA,NA
KquWi7bb,NA,NA,KquWi7bb,2020-0188,2021-09-27,13:59:46,15:03:14,NA,incomplete,false,true,NA,6,4,location,o_c_023.jpg,left,outdoor,indoor,NA,NA,NA,left,1902.09999999963,true,NA,NA,NA,NA,NA
KquWi7bb,NA,NA,KquWi7bb,2020-0188,2021-09-27,13:59:46,15:03:14,NA,incomplete,false,true,NA,6,5,building,i_s_014.jpg,left,skyscraper,cottage,NA,NA,NA,left,2168.40000000037,true,NA,NA,NA,NA,NA
KquWi7bb,NA,NA,KquWi7bb,2020-0188,2021-09-27,13:59:46,15:03:14,NA,incomplete,false,true,NA,6,6,building,i_c_016.jpg,left,cottage,skyscraper,NA,NA,NA,left,1618.80000000075,true,NA,NA,NA,NA,NA
KquWi7bb,NA,NA,KquWi7bb,2020-0188,2021-09-27,13:59:46,15:03:14,NA,incomplete,false,true,NA,6,7,building,i_c_010.jpg,right,skyscraper,cottage,NA,NA,NA,right,1535,true,NA,NA,NA,NA,NA
KquWi7bb,NA,NA,KquWi7bb,2020-0188,2021-09-27,13:59:46,15:03:14,NA,incomplete,false,true,NA,6,8,building,i_c_026.jpg,left,cottage,skyscraper,NA,NA,NA,left,1552,true,NA,NA,NA,NA,NA
KquWi7bb,NA,NA,KquWi7bb,2020-0188,2021-09-27,13:59:46,15:03:14,NA,incomplete,false,true,NA,6,9,building,o_s_002.jpg,right,cottage,skyscraper,NA,NA,NA,right,1091.5,true,NA,NA,NA,NA,NA
KquWi7bb,NA,NA,KquWi7bb,2020-0188,2021-09-27,13:59:46,15:03:14,NA,incomplete,false,true,NA,6,10,origin,m_s_002.jpg,right,natural,manmade,NA,NA,NA,right,1682.60000000149,true,NA,NA,NA,NA,NA
KquWi7bb,NA,NA,KquWi7bb,2020-0188,2021-09-27,13:59:46,15:03:14,NA,incomplete,false,true,NA,6,11,origin,m_l_005.jpg,right,natural,manmade,NA,NA,NA,right,1076,true,NA,NA,NA,NA,NA
KquWi7bb,NA,NA,KquWi7bb,2020-0188,2021-09-27,13:59:46,15:03:14,NA,incomplete,false,true,NA,6,12,origin,n_s_013.jpg,left,natural,manmade,NA,NA,NA,left,1603.70000000112,true,NA,NA,NA,NA,NA
KquWi7bb,NA,NA,KquWi7bb,2020-0188,2021-09-27,13:59:46,15:03:14,NA,incomplete,false,true,NA,6,13,origin,n_l_001.jpg,right,manmade,natural,NA,NA,NA,right,2340.90000000037,true,NA,NA,NA,NA,NA
KquWi7bb,NA,NA,KquWi7bb,2020-0188,2021-09-27,13:59:46,15:03:14,NA,incomplete,false,true,NA,6,14,origin,m_l_028.jpg,right,natural,manmade,NA,NA,NA,right,1016,true,NA,NA,NA,NA,NA
KquWi7bb,NA,NA,KquWi7bb,2020-0188,2021-09-27,13:59:46,15:03:14,NA,incomplete,false,true,NA,6,15,size,n_l_021.jpg,left,large,small,NA,NA,NA,left,1998.80000000075,true,NA,NA,NA,NA,NA
KquWi7bb,NA,NA,KquWi7bb,2020-0188,2021-09-27,13:59:46,15:03:14,NA,incomplete,false,true,NA,6,16,size,n_s_024.jpg,right,large,small,NA,NA,NA,right,1882.70000000112,true,NA,NA,NA,NA,NA
KquWi7bb,NA,NA,KquWi7bb,2020-0188,2021-09-27,13:59:46,15:03:14,NA,incomplete,false,true,NA,6,17,size,n_l_011.jpg,right,small,large,NA,NA,NA,right,1401.90000000037,true,NA,NA,NA,NA,NA
KquWi7bb,NA,NA,KquWi7bb,2020-0188,2021-09-27,13:59:46,15:03:14,NA,incomplete,false,true,NA,6,18,size,m_s_014.jpg,left,small,large,NA,NA,NA,left,2101.90000000037,true,NA,NA,NA,NA,NA
KquWi7bb,NA,NA,KquWi7bb,2020-0188,2021-09-27,13:59:46,15:03:14,NA,incomplete,false,true,NA,6,19,size,m_s_010.jpg,right,large,small,NA,NA,NA,right,1229.60000000149,true,NA,NA,NA,NA,NA
KquWi7bb,NA,NA,KquWi7bb,2020-0188,2021-09-27,13:59:46,15:03:14,NA,incomplete,false,true,NA,6,20,abstractness,c_1_003.jpg,left,concrete,abstract,NA,NA,NA,left,2152.60000000149,true,NA,NA,NA,NA,NA
KquWi7bb,NA,NA,KquWi7bb,2020-0188,2021-09-27,13:59:46,15:03:14,NA,incomplete,false,true,NA,6,21,abstractness,c_2_004.jpg,right,abstract,concrete,NA,NA,NA,right,2253,true,NA,NA,NA,NA,NA
KquWi7bb,NA,NA,KquWi7bb,2020-0188,2021-09-27,13:59:46,15:03:14,NA,incomplete,false,true,NA,6,22,abstractness,a_2_007.jpg,right,concrete,abstract,NA,NA,NA,right,2535.59999999963,true,NA,NA,NA,NA,NA
KquWi7bb,NA,NA,KquWi7bb,2020-0188,2021-09-27,13:59:46,15:03:14,NA,incomplete,false,true,NA,6,23,abstractness,c_2_014.jpg,right,abstract,concrete,NA,NA,NA,right,948.400000000373,true,NA,NA,NA,NA,NA
KquWi7bb,NA,NA,KquWi7bb,2020-0188,2021-09-27,13:59:46,15:03:14,NA,incomplete,false,true,NA,6,24,abstractness,c_2_002.jpg,left,concrete,abstract,NA,NA,NA,left,2029.69999999925,true,NA,NA,NA,NA,NA
KquWi7bb,NA,NA,KquWi7bb,2020-0188,2021-09-27,13:59:46,15:03:14,NA,incomplete,false,true,NA,6,25,syllable,a_2_024.jpg,right,2 syllables,1 syllable,NA,NA,NA,left,1636.19999999925,false,NA,NA,NA,NA,NA
KquWi7bb,NA,NA,KquWi7bb,2020-0188,2021-09-27,13:59:46,15:03:14,NA,incomplete,false,true,NA,6,26,syllable,c_1_028.jpg,right,2 syllables,1 syllable,NA,NA,NA,right,1932.5,true,NA,NA,NA,NA,NA
KquWi7bb,NA,NA,KquWi7bb,2020-0188,2021-09-27,13:59:46,15:03:14,NA,incomplete,false,true,NA,6,27,syllable,c_1_010.jpg,right,2 syllables,1 syllable,NA,NA,NA,right,1189.69999999925,true,NA,NA,NA,NA,NA
KquWi7bb,NA,NA,KquWi7bb,2020-0188,2021-09-27,13:59:46,15:03:14,NA,incomplete,false,true,NA,6,28,syllable,c_2_016.jpg,right,2 syllables,1 syllable,NA,NA,NA,left,1919.40000000037,false,NA,NA,NA,NA,NA
KquWi7bb,NA,NA,KquWi7bb,2020-0188,2021-09-27,13:59:46,15:03:14,NA,incomplete,false,true,NA,6,29,syllable,c_2_022.jpg,right,2 syllables,1 syllable,NA,NA,NA,right,1206.70000000112,true,NA,NA,NA,NA,NA
KquWi7bb,NA,NA,KquWi7bb,2020-0188,2021-09-27,13:59:46,15:03:14,NA,incomplete,false,NA,true,6,0,NA,NA,left,NA,NA,o_s_002.jpg,n_s_013.jpg,between-big,NA,NaN,NA,left,2939.7000000011176,1,2,1015.5999999996275
KquWi7bb,NA,NA,KquWi7bb,2020-0188,2021-09-27,13:59:46,15:03:14,NA,incomplete,false,NA,true,6,1,NA,NA,left,NA,NA,n_l_021.jpg,m_s_014.jpg,within,NA,NaN,NA,left,1611.7999999988824,1,2,1113.5999999996275
KquWi7bb,NA,NA,KquWi7bb,2020-0188,2021-09-27,13:59:46,15:03:14,NA,incomplete,false,NA,true,6,2,NA,NA,left,NA,NA,a_2_007.jpg,a_2_024.jpg,between-small,NA,NaN,NA,left,1596.5999999996275,1,1,1562.699999999255
KquWi7bb,NA,NA,KquWi7bb,2020-0188,2021-09-27,13:59:46,15:03:14,NA,incomplete,false,NA,true,6,3,NA,NA,left,NA,NA,o_c_027.jpg,o_c_023.jpg,within,NA,NaN,NA,right,2059.0999999996275,0,1,1429.3999999985099
KquWi7bb,NA,NA,KquWi7bb,2020-0188,2021-09-27,13:59:46,15:03:14,NA,incomplete,false,NA,true,6,4,NA,NA,right,NA,NA,i_c_016.jpg,i_c_002.jpg,between-small,NA,NaN,NA,right,1612.2000000011176,1,1,994.5
KquWi7bb,NA,NA,KquWi7bb,2020-0188,2021-09-27,13:59:46,15:03:14,NA,incomplete,false,NA,true,6,5,NA,NA,left,NA,NA,c_1_028.jpg,c_2_022.jpg,within,NA,NaN,NA,left,1925.800000000745,1,1,979.3999999985099
KquWi7bb,NA,NA,KquWi7bb,2020-0188,2021-09-27,13:59:46,15:03:14,NA,incomplete,false,NA,true,6,6,NA,NA,right,NA,NA,o_s_002.jpg,i_c_016.jpg,within,NA,NaN,NA,right,1418.7999999988824,1,1,1076.5
KquWi7bb,NA,NA,KquWi7bb,2020-0188,2021-09-27,13:59:46,15:03:14,NA,incomplete,false,NA,true,6,7,NA,NA,right,NA,NA,m_l_005.jpg,i_c_026.jpg,between-big,NA,NaN,NA,left,2218.60000000149,0,2,1126.5
KquWi7bb,NA,NA,KquWi7bb,2020-0188,2021-09-27,13:59:46,15:03:14,NA,incomplete,false,NA,true,6,8,NA,NA,left,NA,NA,c_1_003.jpg,c_2_014.jpg,within,NA,NaN,NA,left,1331.2000000011176,1,1,905
KquWi7bb,NA,NA,KquWi7bb,2020-0188,2021-09-27,13:59:46,15:03:14,NA,incomplete,false,NA,true,6,9,NA,NA,right,NA,NA,n_l_021.jpg,n_s_013.jpg,between-small,NA,NaN,NA,right,1336,1,1,1033.2999999988824
KquWi7bb,NA,NA,KquWi7bb,2020-0188,2021-09-27,13:59:46,15:03:14,NA,incomplete,false,NA,true,6,10,NA,NA,right,NA,NA,n_l_011.jpg,m_l_028.jpg,between-small,NA,NaN,NA,right,1735.5999999996275,1,2,1741.3999999985099
KquWi7bb,NA,NA,KquWi7bb,2020-0188,2021-09-27,13:59:46,15:03:14,NA,incomplete,false,NA,true,6,11,NA,NA,left,NA,NA,i_c_010.jpg,m_s_002.jpg,between-big,NA,NaN,NA,right,2251.4000000003725,0,1,1024.5999999996275
KquWi7bb,NA,NA,KquWi7bb,2020-0188,2021-09-27,13:59:46,15:03:14,NA,incomplete,false,NA,true,6,12,NA,NA,right,NA,NA,n_s_024.jpg,n_l_001.jpg,between-small,NA,NaN,NA,right,1917.5999999996275,1,1,1206.199999999255
KquWi7bb,NA,NA,KquWi7bb,2020-0188,2021-09-27,13:59:46,15:03:14,NA,incomplete,false,NA,true,6,13,NA,NA,right,NA,NA,c_2_004.jpg,m_s_014.jpg,between-big,NA,NaN,NA,right,1099.300000000745,1,2,1058.5999999996275
KquWi7bb,NA,NA,KquWi7bb,2020-0188,2021-09-27,13:59:46,15:03:14,NA,incomplete,false,NA,true,6,14,NA,NA,left,NA,NA,a_2_024.jpg,c_2_016.jpg,within,NA,NaN,NA,right,1563.6000000014901,0,1,1660.2000000011176
KquWi7bb,NA,NA,KquWi7bb,2020-0188,2021-09-27,13:59:46,15:03:14,NA,incomplete,false,NA,true,6,15,NA,NA,right,NA,NA,i_c_010.jpg,o_c_023.jpg,between-small,NA,NaN,NA,right,1713.9000000003725,1,1,2347.7000000011176
KquWi7bb,NA,NA,KquWi7bb,2020-0188,2021-09-27,13:59:46,15:03:14,NA,incomplete,false,NA,true,6,16,NA,NA,left,NA,NA,i_c_001.jpg,i_c_002.jpg,within,NA,NaN,NA,right,1428.9000000003725,0,0,1596.0999999996275
KquWi7bb,NA,NA,KquWi7bb,2020-0188,2021-09-27,13:59:46,15:03:14,NA,incomplete,false,NA,true,6,17,NA,NA,right,NA,NA,c_1_003.jpg,n_l_011.jpg,between-big,NA,NaN,NA,left,1683.4000000003725,0,1,1233.0999999996275
KquWi7bb,NA,NA,KquWi7bb,2020-0188,2021-09-27,13:59:46,15:03:14,NA,incomplete,false,NA,true,6,18,NA,NA,left,NA,NA,m_s_010.jpg,a_2_007.jpg,between-big,NA,NaN,NA,left,1380.5999999996275,1,2,1694.2999999988824
KquWi7bb,NA,NA,KquWi7bb,2020-0188,2021-09-27,13:59:46,15:03:14,NA,incomplete,false,NA,true,6,19,NA,NA,right,NA,NA,n_l_001.jpg,m_s_002.jpg,within,NA,NaN,NA,right,790.3000000007451,1,1,952.5
KquWi7bb,NA,NA,KquWi7bb,2020-0188,2021-09-27,13:59:46,15:03:14,NA,incomplete,false,NA,true,6,20,NA,NA,right,NA,NA,i_s_014.jpg,o_s_027.jpg,between-small,NA,NaN,NA,right,930.4000000003725,1,1,1132.300000000745
KquWi7bb,NA,NA,KquWi7bb,2020-0188,2021-09-27,13:59:46,15:03:14,NA,incomplete,false,NA,true,6,21,NA,NA,left,NA,NA,m_l_005.jpg,m_l_028.jpg,within,NA,NaN,NA,right,1090.5999999996275,0,1,1141.0999999996275
KquWi7bb,NA,NA,KquWi7bb,2020-0188,2021-09-27,13:59:46,15:03:14,NA,incomplete,false,NA,true,6,22,NA,NA,right,NA,NA,m_s_010.jpg,n_s_024.jpg,within,NA,NaN,NA,right,871.8000000007451,1,1,1229.5
KquWi7bb,NA,NA,KquWi7bb,2020-0188,2021-09-27,13:59:46,15:03:14,NA,incomplete,false,NA,true,6,23,NA,NA,right,NA,NA,c_1_010.jpg,c_2_002.jpg,between-small,NA,NaN,NA,left,1741.0999999996275,0,2,1973.4000000003725
KquWi7bb,NA,NA,KquWi7bb,2020-0188,2021-09-27,13:59:46,15:03:14,NA,incomplete,false,NA,true,6,24,NA,NA,left,NA,NA,c_2_004.jpg,c_2_002.jpg,within,NA,NaN,NA,right,2839.5,0,1,1602.7000000011176
KquWi7bb,NA,NA,KquWi7bb,2020-0188,2021-09-27,13:59:46,15:03:14,NA,incomplete,false,NA,true,6,25,NA,NA,right,NA,NA,i_c_026.jpg,i_s_014.jpg,within,NA,NaN,NA,right,1597,1,0,1363.5
KquWi7bb,NA,NA,KquWi7bb,2020-0188,2021-09-27,13:59:46,15:03:14,NA,incomplete,false,NA,true,6,26,NA,NA,left,NA,NA,c_2_014.jpg,c_1_028.jpg,between-small,NA,NaN,NA,right,1399.8999999985099,0,1,1794.0999999996275
KquWi7bb,NA,NA,KquWi7bb,2020-0188,2021-09-27,13:59:46,15:03:14,NA,incomplete,false,true,NA,7,0,location,o_c_015.jpg,left,outdoor,indoor,NA,NA,NA,left,1488.69999999925,true,NA,NA,NA,NA,NA
KquWi7bb,NA,NA,KquWi7bb,2020-0188,2021-09-27,13:59:46,15:03:14,NA,incomplete,false,true,NA,7,1,location,i_c_012.jpg,right,outdoor,indoor,NA,NA,NA,right,1388.40000000037,true,NA,NA,NA,NA,NA
KquWi7bb,NA,NA,KquWi7bb,2020-0188,2021-09-27,13:59:46,15:03:14,NA,incomplete,false,true,NA,7,2,location,i_s_003.jpg,right,outdoor,indoor,NA,NA,NA,right,1559.59999999963,true,NA,NA,NA,NA,NA
KquWi7bb,NA,NA,KquWi7bb,2020-0188,2021-09-27,13:59:46,15:03:14,NA,incomplete,false,true,NA,7,3,location,i_s_025.jpg,left,indoor,outdoor,NA,NA,NA,left,1454.19999999925,true,NA,NA,NA,NA,NA
KquWi7bb,NA,NA,KquWi7bb,2020-0188,2021-09-27,13:59:46,15:03:14,NA,incomplete,false,true,NA,7,4,location,i_c_025.jpg,right,outdoor,indoor,NA,NA,NA,right,1451.79999999888,true,NA,NA,NA,NA,NA
KquWi7bb,NA,NA,KquWi7bb,2020-0188,2021-09-27,13:59:46,15:03:14,NA,incomplete,false,true,NA,7,5,building,o_s_018.jpg,right,cottage,skyscraper,NA,NA,NA,right,1446.40000000037,true,NA,NA,NA,NA,NA
KquWi7bb,NA,NA,KquWi7bb,2020-0188,2021-09-27,13:59:46,15:03:14,NA,incomplete,false,true,NA,7,6,building,i_s_028.jpg,right,cottage,skyscraper,NA,NA,NA,right,2423.90000000037,true,NA,NA,NA,NA,NA
KquWi7bb,NA,NA,KquWi7bb,2020-0188,2021-09-27,13:59:46,15:03:14,NA,incomplete,false,true,NA,7,7,building,i_c_021.jpg,right,skyscraper,cottage,NA,NA,NA,right,1172.80000000075,true,NA,NA,NA,NA,NA
KquWi7bb,NA,NA,KquWi7bb,2020-0188,2021-09-27,13:59:46,15:03:14,NA,incomplete,false,true,NA,7,8,building,o_s_026.jpg,right,cottage,skyscraper,NA,NA,NA,right,1098.79999999888,true,NA,NA,NA,NA,NA
KquWi7bb,NA,NA,KquWi7bb,2020-0188,2021-09-27,13:59:46,15:03:14,NA,incomplete,false,true,NA,7,9,building,i_s_027.jpg,left,skyscraper,cottage,NA,NA,NA,left,2258.09999999963,true,NA,NA,NA,NA,NA
KquWi7bb,NA,NA,KquWi7bb,2020-0188,2021-09-27,13:59:46,15:03:14,NA,incomplete,false,true,NA,7,10,syllable,a_1_024.jpg,right,1 syllable,2 syllables,NA,NA,NA,left,3307.79999999888,false,NA,NA,NA,NA,NA
KquWi7bb,NA,NA,KquWi7bb,2020-0188,2021-09-27,13:59:46,15:03:14,NA,incomplete,false,true,NA,7,11,syllable,a_2_021.jpg,right,1 syllable,2 syllables,NA,NA,NA,right,1481.5,true,NA,NA,NA,NA,NA
KquWi7bb,NA,NA,KquWi7bb,2020-0188,2021-09-27,13:59:46,15:03:14,NA,incomplete,false,true,NA,7,12,syllable,c_2_006.jpg,right,1 syllable,2 syllables,NA,NA,NA,right,1558.40000000037,true,NA,NA,NA,NA,NA
KquWi7bb,NA,NA,KquWi7bb,2020-0188,2021-09-27,13:59:46,15:03:14,NA,incomplete,false,true,NA,7,13,syllable,a_1_014.jpg,right,2 syllables,1 syllable,NA,NA,NA,right,1090.80000000075,true,NA,NA,NA,NA,NA
KquWi7bb,NA,NA,KquWi7bb,2020-0188,2021-09-27,13:59:46,15:03:14,NA,incomplete,false,true,NA,7,14,syllable,a_2_027.jpg,right,2 syllables,1 syllable,NA,NA,NA,left,2756.59999999963,false,NA,NA,NA,NA,NA
KquWi7bb,NA,NA,KquWi7bb,2020-0188,2021-09-27,13:59:46,15:03:14,NA,incomplete,false,true,NA,7,15,abstractness,c_2_011.jpg,left,concrete,abstract,NA,NA,NA,left,2420,true,NA,NA,NA,NA,NA
KquWi7bb,NA,NA,KquWi7bb,2020-0188,2021-09-27,13:59:46,15:03:14,NA,incomplete,false,true,NA,7,16,abstractness,a_1_019.jpg,right,concrete,abstract,NA,NA,NA,right,1142.40000000037,true,NA,NA,NA,NA,NA
KquWi7bb,NA,NA,KquWi7bb,2020-0188,2021-09-27,13:59:46,15:03:14,NA,incomplete,false,true,NA,7,17,abstractness,c_1_019.jpg,left,concrete,abstract,NA,NA,NA,left,1284.19999999925,true,NA,NA,NA,NA,NA
KquWi7bb,NA,NA,KquWi7bb,2020-0188,2021-09-27,13:59:46,15:03:14,NA,incomplete,false,true,NA,7,18,abstractness,a_1_028.jpg,right,concrete,abstract,NA,NA,NA,right,2039.40000000037,true,NA,NA,NA,NA,NA
KquWi7bb,NA,NA,KquWi7bb,2020-0188,2021-09-27,13:59:46,15:03:14,NA,incomplete,false,true,NA,7,19,abstractness,c_1_001.jpg,left,concrete,abstract,NA,NA,NA,left,2054.79999999888,true,NA,NA,NA,NA,NA
KquWi7bb,NA,NA,KquWi7bb,2020-0188,2021-09-27,13:59:46,15:03:14,NA,incomplete,false,true,NA,7,20,size,m_l_020.jpg,left,large,small,NA,NA,NA,left,1709.20000000112,true,NA,NA,NA,NA,NA
KquWi7bb,NA,NA,KquWi7bb,2020-0188,2021-09-27,13:59:46,15:03:14,NA,incomplete,false,true,NA,7,21,size,m_s_024.jpg,right,large,small,NA,NA,NA,right,1222.10000000149,true,NA,NA,NA,NA,NA
KquWi7bb,NA,NA,KquWi7bb,2020-0188,2021-09-27,13:59:46,15:03:14,NA,incomplete,false,true,NA,7,22,size,n_s_027.jpg,left,small,large,NA,NA,NA,left,1589.80000000075,true,NA,NA,NA,NA,NA
KquWi7bb,NA,NA,KquWi7bb,2020-0188,2021-09-27,13:59:46,15:03:14,NA,incomplete,false,true,NA,7,23,size,m_l_025.jpg,left,large,small,NA,NA,NA,left,1263.90000000037,true,NA,NA,NA,NA,NA
KquWi7bb,NA,NA,KquWi7bb,2020-0188,2021-09-27,13:59:46,15:03:14,NA,incomplete,false,true,NA,7,24,size,n_l_010.jpg,left,large,small,NA,NA,NA,left,1147.10000000149,true,NA,NA,NA,NA,NA
KquWi7bb,NA,NA,KquWi7bb,2020-0188,2021-09-27,13:59:46,15:03:14,NA,incomplete,false,true,NA,7,25,origin,m_l_001.jpg,left,manmade,natural,NA,NA,NA,left,1584.09999999963,true,NA,NA,NA,NA,NA
KquWi7bb,NA,NA,KquWi7bb,2020-0188,2021-09-27,13:59:46,15:03:14,NA,incomplete,false,true,NA,7,26,origin,n_l_012.jpg,right,manmade,natural,NA,NA,NA,right,1812.90000000037,true,NA,NA,NA,NA,NA
KquWi7bb,NA,NA,KquWi7bb,2020-0188,2021-09-27,13:59:46,15:03:14,NA,incomplete,false,true,NA,7,27,origin,n_l_018.jpg,right,manmade,natural,NA,NA,NA,right,1115.30000000075,true,NA,NA,NA,NA,NA
KquWi7bb,NA,NA,KquWi7bb,2020-0188,2021-09-27,13:59:46,15:03:14,NA,incomplete,false,true,NA,7,28,origin,n_s_020.jpg,left,natural,manmade,NA,NA,NA,left,1351.5,true,NA,NA,NA,NA,NA
KquWi7bb,NA,NA,KquWi7bb,2020-0188,2021-09-27,13:59:46,15:03:14,NA,incomplete,false,true,NA,7,29,origin,n_s_017.jpg,left,natural,manmade,NA,NA,NA,left,1327.69999999925,true,NA,NA,NA,NA,NA
KquWi7bb,NA,NA,KquWi7bb,2020-0188,2021-09-27,13:59:46,15:03:14,NA,incomplete,false,NA,true,7,0,NA,NA,right,NA,NA,m_l_001.jpg,n_s_027.jpg,between-small,NA,NaN,NA,right,2059.5999999996275,1,1,815.0999999996275
KquWi7bb,NA,NA,KquWi7bb,2020-0188,2021-09-27,13:59:46,15:03:14,NA,incomplete,false,NA,true,7,1,NA,NA,right,NA,NA,a_1_019.jpg,a_1_014.jpg,between-small,NA,NaN,NA,right,1682.5,1,1,1098.800000000745
KquWi7bb,NA,NA,KquWi7bb,2020-0188,2021-09-27,13:59:46,15:03:14,NA,incomplete,false,NA,true,7,2,NA,NA,right,NA,NA,m_l_020.jpg,c_1_019.jpg,between-big,NA,NaN,NA,left,1631,0,1,765.3000000007451
KquWi7bb,NA,NA,KquWi7bb,2020-0188,2021-09-27,13:59:46,15:03:14,NA,incomplete,false,NA,true,7,3,NA,NA,right,NA,NA,i_s_028.jpg,i_s_025.jpg,between-small,NA,NaN,NA,right,2172.9000000003725,1,0,1019.4000000003725
KquWi7bb,NA,NA,KquWi7bb,2020-0188,2021-09-27,13:59:46,15:03:14,NA,incomplete,false,NA,true,7,4,NA,NA,left,NA,NA,i_c_025.jpg,i_c_021.jpg,between-small,NA,NaN,NA,right,2354.39999999851,0,0,1042.800000000745
KquWi7bb,NA,NA,KquWi7bb,2020-0188,2021-09-27,13:59:46,15:03:14,NA,incomplete,false,NA,true,7,5,NA,NA,left,NA,NA,o_s_018.jpg,o_s_026.jpg,within,NA,NaN,NA,left,3468.7000000011176,1,1,977.3000000007451
KquWi7bb,NA,NA,KquWi7bb,2020-0188,2021-09-27,13:59:46,15:03:14,NA,incomplete,false,NA,true,7,6,NA,NA,right,NA,NA,c_2_011.jpg,c_2_006.jpg,between-small,NA,NaN,NA,right,5884.10000000149,1,1,2012.9000000003725
KquWi7bb,NA,NA,KquWi7bb,2020-0188,2021-09-27,13:59:46,15:03:14,NA,incomplete,false,NA,true,7,7,NA,NA,left,NA,NA,i_s_027.jpg,c_2_006.jpg,between-big,NA,NaN,NA,left,1099.699999999255,1,2,1400.800000000745
KquWi7bb,NA,NA,KquWi7bb,2020-0188,2021-09-27,13:59:46,15:03:14,NA,incomplete,false,NA,true,7,8,NA,NA,right,NA,NA,m_l_025.jpg,m_l_020.jpg,within,NA,NaN,NA,right,1067.7000000011176,1,1,1275.4000000003725
KquWi7bb,NA,NA,KquWi7bb,2020-0188,2021-09-27,13:59:46,15:03:14,NA,incomplete,false,NA,true,7,9,NA,NA,right,NA,NA,a_1_014.jpg,a_1_024.jpg,within,NA,NaN,NA,right,1042.5999999996275,1,1,1254.0999999996275
KquWi7bb,NA,NA,KquWi7bb,2020-0188,2021-09-27,13:59:46,15:03:14,NA,incomplete,false,NA,true,7,10,NA,NA,left,NA,NA,i_s_003.jpg,o_s_018.jpg,between-small,NA,NaN,NA,right,2329.60000000149,0,1,2166
KquWi7bb,NA,NA,KquWi7bb,2020-0188,2021-09-27,13:59:46,15:03:14,NA,incomplete,false,NA,true,7,11,NA,NA,left,NA,NA,c_1_001.jpg,n_s_027.jpg,between-big,NA,NaN,NA,right,1498.300000000745,0,2,995.8000000007451
KquWi7bb,NA,NA,KquWi7bb,2020-0188,2021-09-27,13:59:46,15:03:14,NA,incomplete,false,NA,true,7,12,NA,NA,right,NA,NA,n_s_020.jpg,m_l_001.jpg,within,NA,NaN,NA,right,1425,1,1,1207.3999999985099
KquWi7bb,NA,NA,KquWi7bb,2020-0188,2021-09-27,13:59:46,15:03:14,NA,incomplete,false,NA,true,7,13,NA,NA,left,NA,NA,i_c_021.jpg,a_1_024.jpg,between-big,NA,NaN,NA,left,1148.5999999996275,1,1,1015.3999999985099
KquWi7bb,NA,NA,KquWi7bb,2020-0188,2021-09-27,13:59:46,15:03:14,NA,incomplete,false,NA,true,7,14,NA,NA,right,NA,NA,a_2_021.jpg,o_s_026.jpg,between-big,NA,NaN,NA,left,1085.4000000003725,0,1,1308.4000000003725
KquWi7bb,NA,NA,KquWi7bb,2020-0188,2021-09-27,13:59:46,15:03:14,NA,incomplete,false,NA,true,7,15,NA,NA,left,NA,NA,a_1_028.jpg,m_s_024.jpg,between-big,NA,NaN,NA,right,759.5,0,2,1926.300000000745
KquWi7bb,NA,NA,KquWi7bb,2020-0188,2021-09-27,13:59:46,15:03:14,NA,incomplete,false,NA,true,7,16,NA,NA,right,NA,NA,n_l_010.jpg,m_s_024.jpg,within,NA,NaN,NA,right,1374.2999999988824,1,0,1460.4000000003725
KquWi7bb,NA,NA,KquWi7bb,2020-0188,2021-09-27,13:59:46,15:03:14,NA,incomplete,false,NA,true,7,17,NA,NA,right,NA,NA,n_s_017.jpg,n_l_012.jpg,within,NA,NaN,NA,right,2134.5999999996275,1,0,1157.0999999996275
KquWi7bb,NA,NA,KquWi7bb,2020-0188,2021-09-27,13:59:46,15:03:14,NA,incomplete,false,NA,true,7,18,NA,NA,right,NA,NA,c_1_001.jpg,a_1_019.jpg,within,NA,NaN,NA,left,1401.5,0,0,1946.800000000745
KquWi7bb,NA,NA,KquWi7bb,2020-0188,2021-09-27,13:59:46,15:03:14,NA,incomplete,false,NA,true,7,19,NA,NA,right,NA,NA,i_s_025.jpg,o_c_015.jpg,within,NA,NaN,NA,left,1451.2999999988824,0,1,1568.2000000011176
KquWi7bb,NA,NA,KquWi7bb,2020-0188,2021-09-27,13:59:46,15:03:14,NA,incomplete,false,NA,true,7,20,NA,NA,right,NA,NA,a_2_027.jpg,a_2_021.jpg,within,NA,NaN,NA,right,1293.2000000011176,1,1,1188.1000000014901
KquWi7bb,NA,NA,KquWi7bb,2020-0188,2021-09-27,13:59:46,15:03:14,NA,incomplete,false,NA,true,7,21,NA,NA,right,NA,NA,i_c_025.jpg,i_c_012.jpg,within,NA,NaN,NA,left,1229.4000000003725,0,1,1857.2999999988824
KquWi7bb,NA,NA,KquWi7bb,2020-0188,2021-09-27,13:59:46,15:03:14,NA,incomplete,false,NA,true,7,22,NA,NA,right,NA,NA,n_l_012.jpg,m_l_025.jpg,between-small,NA,NaN,NA,right,2733.60000000149,1,2,1009.0999999996275
KquWi7bb,NA,NA,KquWi7bb,2020-0188,2021-09-27,13:59:46,15:03:14,NA,incomplete,false,NA,true,7,23,NA,NA,left,NA,NA,c_2_011.jpg,a_1_028.jpg,within,NA,NaN,NA,left,1028.6000000014901,1,1,810.7999999988824
KquWi7bb,NA,NA,KquWi7bb,2020-0188,2021-09-27,13:59:46,15:03:14,NA,incomplete,false,NA,true,7,24,NA,NA,right,NA,NA,c_1_019.jpg,a_2_027.jpg,between-small,NA,NaN,NA,right,1654.8999999985099,1,1,1497.5999999996275
KquWi7bb,NA,NA,KquWi7bb,2020-0188,2021-09-27,13:59:46,15:03:14,NA,incomplete,false,NA,true,7,25,NA,NA,right,NA,NA,n_l_018.jpg,n_l_010.jpg,between-small,NA,NaN,NA,right,1197.9000000003725,1,1,1429.1000000014901
KquWi7bb,NA,NA,KquWi7bb,2020-0188,2021-09-27,13:59:46,15:03:14,NA,incomplete,false,NA,true,7,26,NA,NA,left,NA,NA,i_s_028.jpg,i_s_027.jpg,within,NA,NaN,NA,left,1311.0999999996275,1,1,1155
KquWi7bb,NA,NA,KquWi7bb,2020-0188,2021-09-27,13:59:46,15:03:14,NA,incomplete,false,true,NA,8,0,location,o_s_019.jpg,left,outdoor,indoor,NA,NA,NA,left,1686.19999999925,true,NA,NA,NA,NA,NA
KquWi7bb,NA,NA,KquWi7bb,2020-0188,2021-09-27,13:59:46,15:03:14,NA,incomplete,false,true,NA,8,1,location,o_s_008.jpg,left,outdoor,indoor,NA,NA,NA,left,2027.90000000037,true,NA,NA,NA,NA,NA
KquWi7bb,NA,NA,KquWi7bb,2020-0188,2021-09-27,13:59:46,15:03:14,NA,incomplete,false,true,NA,8,2,location,o_c_010.jpg,right,indoor,outdoor,NA,NA,NA,right,1687.69999999925,true,NA,NA,NA,NA,NA
KquWi7bb,NA,NA,KquWi7bb,2020-0188,2021-09-27,13:59:46,15:03:14,NA,incomplete,false,true,NA,8,3,location,i_s_017.jpg,right,outdoor,indoor,NA,NA,NA,right,1155.60000000149,true,NA,NA,NA,NA,NA
KquWi7bb,NA,NA,KquWi7bb,2020-0188,2021-09-27,13:59:46,15:03:14,NA,incomplete,false,true,NA,8,4,location,o_c_017.jpg,right,indoor,outdoor,NA,NA,NA,right,1572,true,NA,NA,NA,NA,NA
KquWi7bb,NA,NA,KquWi7bb,2020-0188,2021-09-27,13:59:46,15:03:14,NA,incomplete,false,true,NA,8,5,building,o_c_005.jpg,right,skyscraper,cottage,NA,NA,NA,right,1399.5,true,NA,NA,NA,NA,NA
KquWi7bb,NA,NA,KquWi7bb,2020-0188,2021-09-27,13:59:46,15:03:14,NA,incomplete,false,true,NA,8,6,building,i_c_011.jpg,right,skyscraper,cottage,NA,NA,NA,right,818.300000000745,true,NA,NA,NA,NA,NA
KquWi7bb,NA,NA,KquWi7bb,2020-0188,2021-09-27,13:59:46,15:03:14,NA,incomplete,false,true,NA,8,7,building,i_c_022.jpg,left,cottage,skyscraper,NA,NA,NA,left,1844.19999999925,true,NA,NA,NA,NA,NA
KquWi7bb,NA,NA,KquWi7bb,2020-0188,2021-09-27,13:59:46,15:03:14,NA,incomplete,false,true,NA,8,8,building,i_c_014.jpg,right,skyscraper,cottage,NA,NA,NA,right,1264.09999999963,true,NA,NA,NA,NA,NA
KquWi7bb,NA,NA,KquWi7bb,2020-0188,2021-09-27,13:59:46,15:03:14,NA,incomplete,false,true,NA,8,9,building,o_c_009.jpg,right,skyscraper,cottage,NA,NA,NA,right,1480.19999999925,true,NA,NA,NA,NA,NA
KquWi7bb,NA,NA,KquWi7bb,2020-0188,2021-09-27,13:59:46,15:03:14,NA,incomplete,false,true,NA,8,10,origin,n_s_006.jpg,right,manmade,natural,NA,NA,NA,right,1286.59999999963,true,NA,NA,NA,NA,NA
KquWi7bb,NA,NA,KquWi7bb,2020-0188,2021-09-27,13:59:46,15:03:14,NA,incomplete,false,true,NA,8,11,origin,n_l_007.jpg,left,natural,manmade,NA,NA,NA,left,1287.79999999888,true,NA,NA,NA,NA,NA
KquWi7bb,NA,NA,KquWi7bb,2020-0188,2021-09-27,13:59:46,15:03:14,NA,incomplete,false,true,NA,8,12,origin,n_s_007.jpg,left,natural,manmade,NA,NA,NA,left,1061.79999999888,true,NA,NA,NA,NA,NA
KquWi7bb,NA,NA,KquWi7bb,2020-0188,2021-09-27,13:59:46,15:03:14,NA,incomplete,false,true,NA,8,13,origin,m_s_025.jpg,right,natural,manmade,NA,NA,NA,right,1445.40000000037,true,NA,NA,NA,NA,NA
KquWi7bb,NA,NA,KquWi7bb,2020-0188,2021-09-27,13:59:46,15:03:14,NA,incomplete,false,true,NA,8,14,origin,m_l_021.jpg,left,manmade,natural,NA,NA,NA,left,1658.90000000037,true,NA,NA,NA,NA,NA
KquWi7bb,NA,NA,KquWi7bb,2020-0188,2021-09-27,13:59:46,15:03:14,NA,incomplete,false,true,NA,8,15,size,m_s_008.jpg,left,small,large,NA,NA,NA,left,1452.19999999925,true,NA,NA,NA,NA,NA
KquWi7bb,NA,NA,KquWi7bb,2020-0188,2021-09-27,13:59:46,15:03:14,NA,incomplete,false,true,NA,8,16,size,n_l_024.jpg,left,large,small,NA,NA,NA,left,1553.80000000075,true,NA,NA,NA,NA,NA
KquWi7bb,NA,NA,KquWi7bb,2020-0188,2021-09-27,13:59:46,15:03:14,NA,incomplete,false,true,NA,8,17,size,n_l_003.jpg,right,small,large,NA,NA,NA,right,1850.90000000037,true,NA,NA,NA,NA,NA
KquWi7bb,NA,NA,KquWi7bb,2020-0188,2021-09-27,13:59:46,15:03:14,NA,incomplete,false,true,NA,8,18,size,n_l_017.jpg,right,small,large,NA,NA,NA,right,1055.90000000037,true,NA,NA,NA,NA,NA
KquWi7bb,NA,NA,KquWi7bb,2020-0188,2021-09-27,13:59:46,15:03:14,NA,incomplete,false,true,NA,8,19,size,m_s_005.jpg,left,small,large,NA,NA,NA,left,1847.19999999925,true,NA,NA,NA,NA,NA
KquWi7bb,NA,NA,KquWi7bb,2020-0188,2021-09-27,13:59:46,15:03:14,NA,incomplete,false,true,NA,8,20,syllable,c_1_026.jpg,right,1 syllable,2 syllables,NA,NA,NA,left,1207.09999999963,false,NA,NA,NA,NA,NA
KquWi7bb,NA,NA,KquWi7bb,2020-0188,2021-09-27,13:59:46,15:03:14,NA,incomplete,false,true,NA,8,21,syllable,a_1_002.jpg,right,1 syllable,2 syllables,NA,NA,NA,left,1422.69999999925,false,NA,NA,NA,NA,NA
KquWi7bb,NA,NA,KquWi7bb,2020-0188,2021-09-27,13:59:46,15:03:14,NA,incomplete,false,true,NA,8,22,syllable,c_1_022.jpg,right,1 syllable,2 syllables,NA,NA,NA,left,1375.39999999851,false,NA,NA,NA,NA,NA
KquWi7bb,NA,NA,KquWi7bb,2020-0188,2021-09-27,13:59:46,15:03:14,NA,incomplete,false,true,NA,8,23,syllable,c_2_003.jpg,right,1 syllable,2 syllables,NA,NA,NA,right,1423.69999999925,true,NA,NA,NA,NA,NA
KquWi7bb,NA,NA,KquWi7bb,2020-0188,2021-09-27,13:59:46,15:03:14,NA,incomplete,false,true,NA,8,24,syllable,c_2_001.jpg,right,1 syllable,2 syllables,NA,NA,NA,right,1378.60000000149,true,NA,NA,NA,NA,NA
KquWi7bb,NA,NA,KquWi7bb,2020-0188,2021-09-27,13:59:46,15:03:14,NA,incomplete,false,true,NA,8,25,abstractness,a_2_001.jpg,left,abstract,concrete,NA,NA,NA,left,2368.39999999851,true,NA,NA,NA,NA,NA
KquWi7bb,NA,NA,KquWi7bb,2020-0188,2021-09-27,13:59:46,15:03:14,NA,incomplete,false,true,NA,8,26,abstractness,c_1_020.jpg,left,concrete,abstract,NA,NA,NA,left,2280.29999999888,true,NA,NA,NA,NA,NA
KquWi7bb,NA,NA,KquWi7bb,2020-0188,2021-09-27,13:59:46,15:03:14,NA,incomplete,false,true,NA,8,27,abstractness,a_2_025.jpg,left,abstract,concrete,NA,NA,NA,left,2769.69999999925,true,NA,NA,NA,NA,NA
KquWi7bb,NA,NA,KquWi7bb,2020-0188,2021-09-27,13:59:46,15:03:14,NA,incomplete,false,true,NA,8,28,abstractness,c_2_005.jpg,left,concrete,abstract,NA,NA,NA,left,1294.5,true,NA,NA,NA,NA,NA
KquWi7bb,NA,NA,KquWi7bb,2020-0188,2021-09-27,13:59:46,15:03:14,NA,incomplete,false,true,NA,8,29,abstractness,a_2_016.jpg,right,concrete,abstract,NA,NA,NA,right,2195,true,NA,NA,NA,NA,NA
KquWi7bb,NA,NA,KquWi7bb,2020-0188,2021-09-27,13:59:46,15:03:14,NA,incomplete,false,NA,true,8,0,NA,NA,left,NA,NA,o_c_010.jpg,o_c_005.jpg,between-small,NA,NaN,NA,right,1357.1000000014901,0,1,1089.5999999996275
KquWi7bb,NA,NA,KquWi7bb,2020-0188,2021-09-27,13:59:46,15:03:14,NA,incomplete,false,NA,true,8,1,NA,NA,right,NA,NA,i_c_011.jpg,i_s_017.jpg,between-small,NA,NaN,NA,right,1531,1,1,943.5
KquWi7bb,NA,NA,KquWi7bb,2020-0188,2021-09-27,13:59:46,15:03:14,NA,incomplete,false,NA,true,8,2,NA,NA,left,NA,NA,o_c_005.jpg,i_c_014.jpg,within,NA,NaN,NA,left,2214.2999999988824,1,1,788.9000000003725
KquWi7bb,NA,NA,KquWi7bb,2020-0188,2021-09-27,13:59:46,15:03:14,NA,incomplete,false,NA,true,8,3,NA,NA,left,NA,NA,c_2_003.jpg,c_1_020.jpg,between-small,NA,NaN,NA,left,3263.60000000149,1,0,1156.199999999255
KquWi7bb,NA,NA,KquWi7bb,2020-0188,2021-09-27,13:59:46,15:03:14,NA,incomplete,false,NA,true,8,4,NA,NA,left,NA,NA,m_l_021.jpg,n_l_003.jpg,between-small,NA,NaN,NA,left,1164.2999999988824,1,1,915.0999999996275
KquWi7bb,NA,NA,KquWi7bb,2020-0188,2021-09-27,13:59:46,15:03:14,NA,incomplete,false,NA,true,8,5,NA,NA,left,NA,NA,a_1_002.jpg,c_2_001.jpg,within,NA,NaN,NA,left,2640.699999999255,1,0,992.1999999992549
KquWi7bb,NA,NA,KquWi7bb,2020-0188,2021-09-27,13:59:46,15:03:14,NA,incomplete,false,NA,true,8,6,NA,NA,left,NA,NA,c_1_020.jpg,a_2_016.jpg,within,NA,NaN,NA,left,1512,1,2,1989.7999999988824
KquWi7bb,NA,NA,KquWi7bb,2020-0188,2021-09-27,13:59:46,15:03:14,NA,incomplete,false,NA,true,8,7,NA,NA,right,NA,NA,m_l_021.jpg,n_l_007.jpg,within,NA,NaN,NA,right,929,1,1,928.5
KquWi7bb,NA,NA,KquWi7bb,2020-0188,2021-09-27,13:59:46,15:03:14,NA,incomplete,false,NA,true,8,8,NA,NA,right,NA,NA,m_s_025.jpg,n_s_006.jpg,within,NA,NaN,NA,right,1602.0999999996275,1,2,822.5999999996275
KquWi7bb,NA,NA,KquWi7bb,2020-0188,2021-09-27,13:59:46,15:03:14,NA,incomplete,false,NA,true,8,9,NA,NA,left,NA,NA,o_s_008.jpg,o_c_017.jpg,within,NA,NaN,NA,left,1330.4000000003725,1,1,1262
KquWi7bb,NA,NA,KquWi7bb,2020-0188,2021-09-27,13:59:46,15:03:14,NA,incomplete,false,NA,true,8,10,NA,NA,right,NA,NA,a_2_025.jpg,c_2_001.jpg,between-small,NA,NaN,NA,right,2647.9000000003725,1,1,2761
KquWi7bb,NA,NA,KquWi7bb,2020-0188,2021-09-27,13:59:46,15:03:14,NA,incomplete,false,NA,true,8,11,NA,NA,right,NA,NA,c_2_005.jpg,a_2_001.jpg,within,NA,NaN,NA,right,920.4000000003725,1,0,992.6999999992549
KquWi7bb,NA,NA,KquWi7bb,2020-0188,2021-09-27,13:59:46,15:03:14,NA,incomplete,false,NA,true,8,12,NA,NA,right,NA,NA,o_c_009.jpg,i_c_011.jpg,within,NA,NaN,NA,right,2688.300000000745,1,1,1134.4000000003725
KquWi7bb,NA,NA,KquWi7bb,2020-0188,2021-09-27,13:59:46,15:03:14,NA,incomplete,false,NA,true,8,13,NA,NA,right,NA,NA,n_s_006.jpg,i_c_022.jpg,between-big,NA,NaN,NA,right,1116.2999999988824,1,1,1436.300000000745
KquWi7bb,NA,NA,KquWi7bb,2020-0188,2021-09-27,13:59:46,15:03:14,NA,incomplete,false,NA,true,8,14,NA,NA,right,NA,NA,a_2_001.jpg,c_1_022.jpg,between-small,NA,NaN,NA,right,885.8000000007451,1,1,871.2000000011176
KquWi7bb,NA,NA,KquWi7bb,2020-0188,2021-09-27,13:59:46,15:03:14,NA,incomplete,false,NA,true,8,15,NA,NA,left,NA,NA,m_s_005.jpg,c_1_022.jpg,between-big,NA,NaN,NA,left,1220.2000000011176,1,2,2044.5
KquWi7bb,NA,NA,KquWi7bb,2020-0188,2021-09-27,13:59:46,15:03:14,NA,incomplete,false,NA,true,8,16,NA,NA,left,NA,NA,m_s_025.jpg,n_l_024.jpg,between-small,NA,NaN,NA,right,1401.6000000014901,0,0,1170.0999999996275
KquWi7bb,NA,NA,KquWi7bb,2020-0188,2021-09-27,13:59:46,15:03:14,NA,incomplete,false,NA,true,8,17,NA,NA,left,NA,NA,n_s_007.jpg,m_s_008.jpg,between-small,NA,NaN,NA,left,1826.5999999996275,1,1,1082.5999999996275
KquWi7bb,NA,NA,KquWi7bb,2020-0188,2021-09-27,13:59:46,15:03:14,NA,incomplete,false,NA,true,8,18,NA,NA,right,NA,NA,c_2_003.jpg,c_1_026.jpg,within,NA,NaN,NA,left,1145.7999999988824,0,1,2009.2999999988824
KquWi7bb,NA,NA,KquWi7bb,2020-0188,2021-09-27,13:59:46,15:03:14,NA,incomplete,false,NA,true,8,19,NA,NA,left,NA,NA,o_c_017.jpg,i_c_022.jpg,between-small,NA,NaN,NA,left,3188.199999999255,1,1,1163.4000000003725
KquWi7bb,NA,NA,KquWi7bb,2020-0188,2021-09-27,13:59:46,15:03:14,NA,incomplete,false,NA,true,8,20,NA,NA,left,NA,NA,n_l_017.jpg,a_1_002.jpg,between-big,NA,NaN,NA,left,1721,1,2,1548
KquWi7bb,NA,NA,KquWi7bb,2020-0188,2021-09-27,13:59:46,15:03:14,NA,incomplete,false,NA,true,8,21,NA,NA,left,NA,NA,o_s_019.jpg,i_s_017.jpg,within,NA,NaN,NA,left,2068.199999999255,1,1,1541.0999999996275
KquWi7bb,NA,NA,KquWi7bb,2020-0188,2021-09-27,13:59:46,15:03:14,NA,incomplete,false,NA,true,8,22,NA,NA,left,NA,NA,o_c_009.jpg,n_s_007.jpg,between-big,NA,NaN,NA,left,1637.699999999255,1,1,1058.5
KquWi7bb,NA,NA,KquWi7bb,2020-0188,2021-09-27,13:59:46,15:03:14,NA,incomplete,false,NA,true,8,23,NA,NA,left,NA,NA,m_s_008.jpg,n_l_017.jpg,within,NA,NaN,NA,right,1239.7000000011176,0,0,1330.5999999996275
KquWi7bb,NA,NA,KquWi7bb,2020-0188,2021-09-27,13:59:46,15:03:14,NA,incomplete,false,NA,true,8,24,NA,NA,right,NA,NA,m_s_005.jpg,n_l_024.jpg,within,NA,NaN,NA,right,1987.800000000745,1,2,1054.8999999985099
KquWi7bb,NA,NA,KquWi7bb,2020-0188,2021-09-27,13:59:46,15:03:14,NA,incomplete,false,NA,true,8,25,NA,NA,left,NA,NA,i_c_014.jpg,n_l_007.jpg,between-big,NA,NaN,NA,left,1023.8000000007451,1,2,874.8000000007451
KquWi7bb,NA,NA,KquWi7bb,2020-0188,2021-09-27,13:59:46,15:03:14,NA,incomplete,false,NA,true,8,26,NA,NA,left,NA,NA,n_l_003.jpg,c_1_026.jpg,between-big,NA,NaN,NA,left,2340,1,2,1621
KquWi7bb,NA,NA,KquWi7bb,2020-0188,2021-09-27,13:59:46,15:03:14,NA,incomplete,false,true,NA,9,0,size,m_l_022.jpg,left,large,small,NA,NA,NA,left,2213.59999999963,true,NA,NA,NA,NA,NA
KquWi7bb,NA,NA,KquWi7bb,2020-0188,2021-09-27,13:59:46,15:03:14,NA,incomplete,false,true,NA,9,1,size,n_l_020.jpg,left,large,small,NA,NA,NA,left,1724.40000000037,true,NA,NA,NA,NA,NA
