workerId,hitId,assignmentId,subject,studyid,exp_date,exp_start,exp_end,time_start,time_end,practice,encoding,memory,block,trial,event,stim,answer,label_left,label_right,left_image,right_image,condition,response,response_time,response_acc,order_response,order_response_time,order_acc,distance_response,distance_response_time
LdS68ePn,NA,NA,LdS68ePn,2020-0188,2021-09-27,00:03:36,01:23:11,NA,incomplete,true,true,NA,0,0,origin,n_s_023.jpg,left,natural,manmade,NA,NA,NA,left,1214,true,NA,NA,NA,NA,NA
LdS68ePn,NA,NA,LdS68ePn,2020-0188,2021-09-27,00:03:36,01:23:11,NA,incomplete,true,true,NA,0,1,origin,m_l_007.jpg,left,manmade,natural,NA,NA,NA,left,2167,true,NA,NA,NA,NA,NA
LdS68ePn,NA,NA,LdS68ePn,2020-0188,2021-09-27,00:03:36,01:23:11,NA,incomplete,true,true,NA,0,2,origin,m_s_006.jpg,right,natural,manmade,NA,NA,NA,right,1686,true,NA,NA,NA,NA,NA
LdS68ePn,NA,NA,LdS68ePn,2020-0188,2021-09-27,00:03:36,01:23:11,NA,incomplete,true,true,NA,0,3,origin,m_l_005.jpg,left,manmade,natural,NA,NA,NA,left,1107,true,NA,NA,NA,NA,NA
LdS68ePn,NA,NA,LdS68ePn,2020-0188,2021-09-27,00:03:36,01:23:11,NA,incomplete,true,true,NA,0,4,origin,m_s_027.jpg,right,natural,manmade,NA,NA,NA,right,1394,true,NA,NA,NA,NA,NA
LdS68ePn,NA,NA,LdS68ePn,2020-0188,2021-09-27,00:03:36,01:23:11,NA,incomplete,true,true,NA,0,5,size,m_l_011.jpg,left,large,small,NA,NA,NA,left,3299,true,NA,NA,NA,NA,NA
LdS68ePn,NA,NA,LdS68ePn,2020-0188,2021-09-27,00:03:36,01:23:11,NA,incomplete,true,true,NA,0,6,size,n_s_026.jpg,right,large,small,NA,NA,NA,right,869,true,NA,NA,NA,NA,NA
LdS68ePn,NA,NA,LdS68ePn,2020-0188,2021-09-27,00:03:36,01:23:11,NA,incomplete,true,true,NA,0,7,size,n_l_003.jpg,left,large,small,NA,NA,NA,left,1209.99999999997,true,NA,NA,NA,NA,NA
LdS68ePn,NA,NA,LdS68ePn,2020-0188,2021-09-27,00:03:36,01:23:11,NA,incomplete,true,true,NA,0,8,size,n_s_008.jpg,right,large,small,NA,NA,NA,right,1063,true,NA,NA,NA,NA,NA
LdS68ePn,NA,NA,LdS68ePn,2020-0188,2021-09-27,00:03:36,01:23:11,NA,incomplete,true,true,NA,0,9,size,m_l_022.jpg,right,small,large,NA,NA,NA,right,1424,true,NA,NA,NA,NA,NA
LdS68ePn,NA,NA,LdS68ePn,2020-0188,2021-09-27,00:03:36,01:23:11,NA,incomplete,true,true,NA,0,10,location,o_c_021.jpg,left,outdoor,indoor,NA,NA,NA,left,2003,true,NA,NA,NA,NA,NA
LdS68ePn,NA,NA,LdS68ePn,2020-0188,2021-09-27,00:03:36,01:23:11,NA,incomplete,true,true,NA,0,11,location,i_c_016.jpg,right,outdoor,indoor,NA,NA,NA,right,784,true,NA,NA,NA,NA,NA
LdS68ePn,NA,NA,LdS68ePn,2020-0188,2021-09-27,00:03:36,01:23:11,NA,incomplete,true,true,NA,0,12,location,o_c_002.jpg,right,indoor,outdoor,NA,NA,NA,right,1217,true,NA,NA,NA,NA,NA
LdS68ePn,NA,NA,LdS68ePn,2020-0188,2021-09-27,00:03:36,01:23:11,NA,incomplete,true,true,NA,0,13,location,o_c_017.jpg,right,indoor,outdoor,NA,NA,NA,right,1335,true,NA,NA,NA,NA,NA
LdS68ePn,NA,NA,LdS68ePn,2020-0188,2021-09-27,00:03:36,01:23:11,NA,incomplete,true,true,NA,0,14,location,o_c_022.jpg,left,outdoor,indoor,NA,NA,NA,left,1652.00000000003,true,NA,NA,NA,NA,NA
LdS68ePn,NA,NA,LdS68ePn,2020-0188,2021-09-27,00:03:36,01:23:11,NA,incomplete,true,true,NA,0,15,building,i_c_022.jpg,right,skyscraper,cottage,NA,NA,NA,right,1182.00000000003,true,NA,NA,NA,NA,NA
LdS68ePn,NA,NA,LdS68ePn,2020-0188,2021-09-27,00:03:36,01:23:11,NA,incomplete,true,true,NA,0,16,building,o_c_012.jpg,left,cottage,skyscraper,NA,NA,NA,left,1969,true,NA,NA,NA,NA,NA
LdS68ePn,NA,NA,LdS68ePn,2020-0188,2021-09-27,00:03:36,01:23:11,NA,incomplete,true,true,NA,0,17,building,i_c_002.jpg,right,skyscraper,cottage,NA,NA,NA,right,1311,true,NA,NA,NA,NA,NA
LdS68ePn,NA,NA,LdS68ePn,2020-0188,2021-09-27,00:03:36,01:23:11,NA,incomplete,true,true,NA,0,18,building,o_s_009.jpg,left,skyscraper,cottage,NA,NA,NA,left,1202,true,NA,NA,NA,NA,NA
LdS68ePn,NA,NA,LdS68ePn,2020-0188,2021-09-27,00:03:36,01:23:11,NA,incomplete,true,true,NA,0,19,building,o_c_010.jpg,left,cottage,skyscraper,NA,NA,NA,right,914,false,NA,NA,NA,NA,NA
LdS68ePn,NA,NA,LdS68ePn,2020-0188,2021-09-27,00:03:36,01:23:11,NA,incomplete,true,true,NA,0,20,syllable,a_2_012.jpg,right,2 syllables,1 syllable,NA,NA,NA,left,1750,false,NA,NA,NA,NA,NA
LdS68ePn,NA,NA,LdS68ePn,2020-0188,2021-09-27,00:03:36,01:23:11,NA,incomplete,true,true,NA,0,21,syllable,a_2_027.jpg,right,1 syllable,2 syllables,NA,NA,NA,right,1281,true,NA,NA,NA,NA,NA
LdS68ePn,NA,NA,LdS68ePn,2020-0188,2021-09-27,00:03:36,01:23:11,NA,incomplete,true,true,NA,0,22,syllable,c_1_021.jpg,right,2 syllables,1 syllable,NA,NA,NA,right,1358,true,NA,NA,NA,NA,NA
LdS68ePn,NA,NA,LdS68ePn,2020-0188,2021-09-27,00:03:36,01:23:11,NA,incomplete,true,true,NA,0,23,syllable,a_2_016.jpg,right,1 syllable,2 syllables,NA,NA,NA,right,1311,true,NA,NA,NA,NA,NA
LdS68ePn,NA,NA,LdS68ePn,2020-0188,2021-09-27,00:03:36,01:23:11,NA,incomplete,true,true,NA,0,24,syllable,c_2_023.jpg,right,2 syllables,1 syllable,NA,NA,NA,left,940,false,NA,NA,NA,NA,NA
LdS68ePn,NA,NA,LdS68ePn,2020-0188,2021-09-27,00:03:36,01:23:11,NA,incomplete,true,true,NA,0,25,abstractness,c_2_004.jpg,left,concrete,abstract,NA,NA,NA,left,2283,true,NA,NA,NA,NA,NA
LdS68ePn,NA,NA,LdS68ePn,2020-0188,2021-09-27,00:03:36,01:23:11,NA,incomplete,true,true,NA,0,26,abstractness,a_2_028.jpg,left,abstract,concrete,NA,NA,NA,left,1288,true,NA,NA,NA,NA,NA
LdS68ePn,NA,NA,LdS68ePn,2020-0188,2021-09-27,00:03:36,01:23:11,NA,incomplete,true,true,NA,0,27,abstractness,c_1_003.jpg,left,concrete,abstract,NA,NA,NA,left,1146,true,NA,NA,NA,NA,NA
LdS68ePn,NA,NA,LdS68ePn,2020-0188,2021-09-27,00:03:36,01:23:11,NA,incomplete,true,true,NA,0,28,abstractness,a_1_006.jpg,left,abstract,concrete,NA,NA,NA,left,1030,true,NA,NA,NA,NA,NA
LdS68ePn,NA,NA,LdS68ePn,2020-0188,2021-09-27,00:03:36,01:23:11,NA,incomplete,true,true,NA,0,29,abstractness,c_2_028.jpg,right,abstract,concrete,NA,NA,NA,right,1158,true,NA,NA,NA,NA,NA
LdS68ePn,NA,NA,LdS68ePn,2020-0188,2021-09-27,00:03:36,01:23:11,NA,incomplete,true,NA,true,0,0,NA,NA,right,NA,NA,o_s_009.jpg,i_c_022.jpg,within,NA,NaN,NA,right,2790,1,0,5579
LdS68ePn,NA,NA,LdS68ePn,2020-0188,2021-09-27,00:03:36,01:23:11,NA,incomplete,true,NA,true,0,1,NA,NA,left,NA,NA,a_2_028.jpg,c_2_028.jpg,within,NA,NaN,NA,left,2375,1,1,2094.000000000058
LdS68ePn,NA,NA,LdS68ePn,2020-0188,2021-09-27,00:03:36,01:23:11,NA,incomplete,true,NA,true,0,2,NA,NA,left,NA,NA,c_2_023.jpg,c_1_003.jpg,between-small,NA,NaN,NA,left,3401,1,2,1487
LdS68ePn,NA,NA,LdS68ePn,2020-0188,2021-09-27,00:03:36,01:23:11,NA,incomplete,true,NA,true,0,3,NA,NA,left,NA,NA,c_2_004.jpg,a_1_006.jpg,within,NA,NaN,NA,left,3219,1,1,949
LdS68ePn,NA,NA,LdS68ePn,2020-0188,2021-09-27,00:03:36,01:23:11,NA,incomplete,true,NA,true,0,4,NA,NA,right,NA,NA,n_l_003.jpg,m_s_027.jpg,between-small,NA,NaN,NA,right,2573,1,2,1617
LdS68ePn,NA,NA,LdS68ePn,2020-0188,2021-09-27,00:03:36,01:23:11,NA,incomplete,true,NA,true,0,5,NA,NA,right,NA,NA,m_s_027.jpg,m_l_007.jpg,within,NA,NaN,NA,right,1425,1,1,913
LdS68ePn,NA,NA,LdS68ePn,2020-0188,2021-09-27,00:03:36,01:23:11,NA,incomplete,true,NA,true,0,6,NA,NA,left,NA,NA,m_s_006.jpg,m_l_011.jpg,between-small,NA,NaN,NA,left,1458,1,2,1026.9999999999418
LdS68ePn,NA,NA,LdS68ePn,2020-0188,2021-09-27,00:03:36,01:23:11,NA,incomplete,true,NA,true,0,7,NA,NA,right,NA,NA,o_c_010.jpg,o_c_012.jpg,within,NA,NaN,NA,right,2047,1,2,1170
LdS68ePn,NA,NA,LdS68ePn,2020-0188,2021-09-27,00:03:36,01:23:11,NA,incomplete,true,NA,true,0,8,NA,NA,left,NA,NA,n_s_026.jpg,m_l_022.jpg,within,NA,NaN,NA,left,2461,1,1,1185
LdS68ePn,NA,NA,LdS68ePn,2020-0188,2021-09-27,00:03:36,01:23:11,NA,incomplete,true,NA,true,0,9,NA,NA,left,NA,NA,o_c_021.jpg,o_c_017.jpg,within,NA,NaN,NA,left,1902.9999999999418,1,2,1831
LdS68ePn,NA,NA,LdS68ePn,2020-0188,2021-09-27,00:03:36,01:23:11,NA,incomplete,true,NA,true,0,10,NA,NA,left,NA,NA,o_c_017.jpg,o_c_012.jpg,between-small,NA,NaN,NA,left,2779.999999999942,1,1,2077.999999999942
LdS68ePn,NA,NA,LdS68ePn,2020-0188,2021-09-27,00:03:36,01:23:11,NA,incomplete,true,NA,true,0,11,NA,NA,right,NA,NA,c_1_021.jpg,o_c_010.jpg,between-big,NA,NaN,NA,right,4727,1,2,1657
LdS68ePn,NA,NA,LdS68ePn,2020-0188,2021-09-27,00:03:36,01:23:11,NA,incomplete,true,NA,true,0,12,NA,NA,left,NA,NA,c_1_021.jpg,c_2_004.jpg,between-small,NA,NaN,NA,left,2008.9999999999418,1,2,1562
LdS68ePn,NA,NA,LdS68ePn,2020-0188,2021-09-27,00:03:36,01:23:11,NA,incomplete,true,NA,true,0,13,NA,NA,right,NA,NA,i_c_002.jpg,o_c_022.jpg,between-small,NA,NaN,NA,right,4613,1,2,1156
LdS68ePn,NA,NA,LdS68ePn,2020-0188,2021-09-27,00:03:36,01:23:11,NA,incomplete,true,NA,true,0,14,NA,NA,left,NA,NA,o_s_009.jpg,a_2_027.jpg,between-big,NA,NaN,NA,left,1497.0000000000582,1,3,2060
LdS68ePn,NA,NA,LdS68ePn,2020-0188,2021-09-27,00:03:36,01:23:11,NA,incomplete,true,NA,true,0,15,NA,NA,left,NA,NA,i_c_002.jpg,a_2_012.jpg,between-big,NA,NaN,NA,left,1983,1,2,1406
LdS68ePn,NA,NA,LdS68ePn,2020-0188,2021-09-27,00:03:36,01:23:11,NA,incomplete,true,NA,true,0,16,NA,NA,left,NA,NA,a_2_016.jpg,a_2_028.jpg,between-small,NA,NaN,NA,left,2517,1,2,1370
LdS68ePn,NA,NA,LdS68ePn,2020-0188,2021-09-27,00:03:36,01:23:11,NA,incomplete,true,NA,true,0,17,NA,NA,right,NA,NA,i_c_022.jpg,o_c_002.jpg,between-small,NA,NaN,NA,left,6588.999999999942,0,2,1952
LdS68ePn,NA,NA,LdS68ePn,2020-0188,2021-09-27,00:03:36,01:23:11,NA,incomplete,true,NA,true,0,18,NA,NA,left,NA,NA,a_2_027.jpg,c_2_023.jpg,within,NA,NaN,NA,left,8519,1,0,2358
LdS68ePn,NA,NA,LdS68ePn,2020-0188,2021-09-27,00:03:36,01:23:11,NA,incomplete,true,NA,true,0,19,NA,NA,right,NA,NA,o_c_021.jpg,n_l_003.jpg,between-big,NA,NaN,NA,right,1687,1,2,1378
LdS68ePn,NA,NA,LdS68ePn,2020-0188,2021-09-27,00:03:36,01:23:11,NA,incomplete,true,NA,true,0,20,NA,NA,right,NA,NA,a_2_016.jpg,a_2_012.jpg,within,NA,NaN,NA,right,5043,1,1,911
LdS68ePn,NA,NA,LdS68ePn,2020-0188,2021-09-27,00:03:36,01:23:11,NA,incomplete,true,NA,true,0,21,NA,NA,left,NA,NA,m_l_005.jpg,n_s_026.jpg,between-small,NA,NaN,NA,left,2183.000000000058,1,2,1038
LdS68ePn,NA,NA,LdS68ePn,2020-0188,2021-09-27,00:03:36,01:23:11,NA,incomplete,true,NA,true,0,22,NA,NA,left,NA,NA,n_s_023.jpg,m_l_005.jpg,within,NA,NaN,NA,left,1235.9999999999418,1,1,964
LdS68ePn,NA,NA,LdS68ePn,2020-0188,2021-09-27,00:03:36,01:23:11,NA,incomplete,true,NA,true,0,23,NA,NA,right,NA,NA,i_c_016.jpg,n_s_008.jpg,between-big,NA,NaN,NA,right,1934,1,2,1850.0000000000582
LdS68ePn,NA,NA,LdS68ePn,2020-0188,2021-09-27,00:03:36,01:23:11,NA,incomplete,true,NA,true,0,24,NA,NA,left,NA,NA,i_c_016.jpg,o_c_022.jpg,within,NA,NaN,NA,left,2903,1,0,1550.9999999999418
LdS68ePn,NA,NA,LdS68ePn,2020-0188,2021-09-27,00:03:36,01:23:11,NA,incomplete,true,NA,true,0,25,NA,NA,right,NA,NA,n_s_008.jpg,m_l_011.jpg,within,NA,NaN,NA,right,5375.999999999942,1,1,3083
LdS68ePn,NA,NA,LdS68ePn,2020-0188,2021-09-27,00:03:36,01:23:11,NA,incomplete,true,NA,true,0,26,NA,NA,left,NA,NA,m_l_022.jpg,o_c_002.jpg,between-big,NA,NaN,NA,left,2405,1,2,2837
LdS68ePn,NA,NA,LdS68ePn,2020-0188,2021-09-27,00:03:36,01:23:11,NA,incomplete,false,true,NA,1,0,size,m_l_028.jpg,right,small,large,NA,NA,NA,right,1517,true,NA,NA,NA,NA,NA
LdS68ePn,NA,NA,LdS68ePn,2020-0188,2021-09-27,00:03:36,01:23:11,NA,incomplete,false,true,NA,1,1,size,n_s_020.jpg,right,large,small,NA,NA,NA,right,1681,true,NA,NA,NA,NA,NA
LdS68ePn,NA,NA,LdS68ePn,2020-0188,2021-09-27,00:03:36,01:23:11,NA,incomplete,false,true,NA,1,2,size,m_s_023.jpg,left,small,large,NA,NA,NA,left,1830,true,NA,NA,NA,NA,NA
LdS68ePn,NA,NA,LdS68ePn,2020-0188,2021-09-27,00:03:36,01:23:11,NA,incomplete,false,true,NA,1,3,size,m_s_011.jpg,left,small,large,NA,NA,NA,left,1140,true,NA,NA,NA,NA,NA
LdS68ePn,NA,NA,LdS68ePn,2020-0188,2021-09-27,00:03:36,01:23:11,NA,incomplete,false,true,NA,1,4,size,n_s_027.jpg,right,large,small,NA,NA,NA,right,1550,true,NA,NA,NA,NA,NA
LdS68ePn,NA,NA,LdS68ePn,2020-0188,2021-09-27,00:03:36,01:23:11,NA,incomplete,false,true,NA,1,5,origin,n_s_018.jpg,right,manmade,natural,NA,NA,NA,right,1609,true,NA,NA,NA,NA,NA
LdS68ePn,NA,NA,LdS68ePn,2020-0188,2021-09-27,00:03:36,01:23:11,NA,incomplete,false,true,NA,1,6,origin,n_s_006.jpg,left,natural,manmade,NA,NA,NA,left,2208,true,NA,NA,NA,NA,NA
LdS68ePn,NA,NA,LdS68ePn,2020-0188,2021-09-27,00:03:36,01:23:11,NA,incomplete,false,true,NA,1,7,origin,n_l_016.jpg,left,natural,manmade,NA,NA,NA,left,945,true,NA,NA,NA,NA,NA
LdS68ePn,NA,NA,LdS68ePn,2020-0188,2021-09-27,00:03:36,01:23:11,NA,incomplete,false,true,NA,1,8,origin,n_l_002.jpg,right,manmade,natural,NA,NA,NA,right,1364,true,NA,NA,NA,NA,NA
LdS68ePn,NA,NA,LdS68ePn,2020-0188,2021-09-27,00:03:36,01:23:11,NA,incomplete,false,true,NA,1,9,origin,m_l_010.jpg,right,natural,manmade,NA,NA,NA,right,1254,true,NA,NA,NA,NA,NA
LdS68ePn,NA,NA,LdS68ePn,2020-0188,2021-09-27,00:03:36,01:23:11,NA,incomplete,false,true,NA,1,10,building,o_c_019.jpg,left,cottage,skyscraper,NA,NA,NA,left,907,true,NA,NA,NA,NA,NA
LdS68ePn,NA,NA,LdS68ePn,2020-0188,2021-09-27,00:03:36,01:23:11,NA,incomplete,false,true,NA,1,11,building,o_c_004.jpg,right,skyscraper,cottage,NA,NA,NA,right,1149,true,NA,NA,NA,NA,NA
LdS68ePn,NA,NA,LdS68ePn,2020-0188,2021-09-27,00:03:36,01:23:11,NA,incomplete,false,true,NA,1,12,building,o_c_014.jpg,left,cottage,skyscraper,NA,NA,NA,left,907,true,NA,NA,NA,NA,NA
LdS68ePn,NA,NA,LdS68ePn,2020-0188,2021-09-27,00:03:36,01:23:11,NA,incomplete,false,true,NA,1,13,building,i_s_007.jpg,right,cottage,skyscraper,NA,NA,NA,right,1618,true,NA,NA,NA,NA,NA
LdS68ePn,NA,NA,LdS68ePn,2020-0188,2021-09-27,00:03:36,01:23:11,NA,incomplete,false,true,NA,1,14,building,i_s_009.jpg,left,skyscraper,cottage,NA,NA,NA,left,1662,true,NA,NA,NA,NA,NA
LdS68ePn,NA,NA,LdS68ePn,2020-0188,2021-09-27,00:03:36,01:23:11,NA,incomplete,false,true,NA,1,15,location,i_c_017.jpg,left,indoor,outdoor,NA,NA,NA,left,1547,true,NA,NA,NA,NA,NA
LdS68ePn,NA,NA,LdS68ePn,2020-0188,2021-09-27,00:03:36,01:23:11,NA,incomplete,false,true,NA,1,16,location,o_s_026.jpg,left,outdoor,indoor,NA,NA,NA,left,1477,true,NA,NA,NA,NA,NA
LdS68ePn,NA,NA,LdS68ePn,2020-0188,2021-09-27,00:03:36,01:23:11,NA,incomplete,false,true,NA,1,17,location,i_s_015.jpg,right,outdoor,indoor,NA,NA,NA,right,1341,true,NA,NA,NA,NA,NA
LdS68ePn,NA,NA,LdS68ePn,2020-0188,2021-09-27,00:03:36,01:23:11,NA,incomplete,false,true,NA,1,18,location,i_c_025.jpg,left,indoor,outdoor,NA,NA,NA,left,1054.00000000012,true,NA,NA,NA,NA,NA
LdS68ePn,NA,NA,LdS68ePn,2020-0188,2021-09-27,00:03:36,01:23:11,NA,incomplete,false,true,NA,1,19,location,i_s_024.jpg,left,indoor,outdoor,NA,NA,NA,left,1496,true,NA,NA,NA,NA,NA
LdS68ePn,NA,NA,LdS68ePn,2020-0188,2021-09-27,00:03:36,01:23:11,NA,incomplete,false,true,NA,1,20,syllable,c_1_011.jpg,right,1 syllable,2 syllables,NA,NA,NA,left,1865,false,NA,NA,NA,NA,NA
LdS68ePn,NA,NA,LdS68ePn,2020-0188,2021-09-27,00:03:36,01:23:11,NA,incomplete,false,true,NA,1,21,syllable,a_1_027.jpg,right,2 syllables,1 syllable,NA,NA,NA,right,2012,true,NA,NA,NA,NA,NA
LdS68ePn,NA,NA,LdS68ePn,2020-0188,2021-09-27,00:03:36,01:23:11,NA,incomplete,false,true,NA,1,22,syllable,c_2_018.jpg,right,1 syllable,2 syllables,NA,NA,NA,right,1199,true,NA,NA,NA,NA,NA
LdS68ePn,NA,NA,LdS68ePn,2020-0188,2021-09-27,00:03:36,01:23:11,NA,incomplete,false,true,NA,1,23,syllable,c_2_007.jpg,right,1 syllable,2 syllables,NA,NA,NA,right,1498,true,NA,NA,NA,NA,NA
LdS68ePn,NA,NA,LdS68ePn,2020-0188,2021-09-27,00:03:36,01:23:11,NA,incomplete,false,true,NA,1,24,syllable,a_1_002.jpg,right,1 syllable,2 syllables,NA,NA,NA,left,948,false,NA,NA,NA,NA,NA
LdS68ePn,NA,NA,LdS68ePn,2020-0188,2021-09-27,00:03:36,01:23:11,NA,incomplete,false,true,NA,1,25,abstractness,c_2_014.jpg,left,concrete,abstract,NA,NA,NA,left,2081,true,NA,NA,NA,NA,NA
LdS68ePn,NA,NA,LdS68ePn,2020-0188,2021-09-27,00:03:36,01:23:11,NA,incomplete,false,true,NA,1,26,abstractness,c_1_014.jpg,left,concrete,abstract,NA,NA,NA,left,1212,true,NA,NA,NA,NA,NA
LdS68ePn,NA,NA,LdS68ePn,2020-0188,2021-09-27,00:03:36,01:23:11,NA,incomplete,false,true,NA,1,27,abstractness,c_1_004.jpg,right,abstract,concrete,NA,NA,NA,right,1593,true,NA,NA,NA,NA,NA
LdS68ePn,NA,NA,LdS68ePn,2020-0188,2021-09-27,00:03:36,01:23:11,NA,incomplete,false,true,NA,1,28,abstractness,a_1_026.jpg,left,abstract,concrete,NA,NA,NA,left,1094,true,NA,NA,NA,NA,NA
LdS68ePn,NA,NA,LdS68ePn,2020-0188,2021-09-27,00:03:36,01:23:11,NA,incomplete,false,true,NA,1,29,abstractness,c_2_016.jpg,left,concrete,abstract,NA,NA,NA,left,1355.00000000012,true,NA,NA,NA,NA,NA
LdS68ePn,NA,NA,LdS68ePn,2020-0188,2021-09-27,00:03:36,01:23:11,NA,incomplete,false,NA,true,1,0,NA,NA,right,NA,NA,c_2_016.jpg,c_1_014.jpg,within,NA,NaN,NA,right,2811,1,1,1097
LdS68ePn,NA,NA,LdS68ePn,2020-0188,2021-09-27,00:03:36,01:23:11,NA,incomplete,false,NA,true,1,1,NA,NA,left,NA,NA,o_c_004.jpg,i_s_009.jpg,within,NA,NaN,NA,left,2516.9999999998836,1,1,1748.9999999998836
LdS68ePn,NA,NA,LdS68ePn,2020-0188,2021-09-27,00:03:36,01:23:11,NA,incomplete,false,NA,true,1,2,NA,NA,right,NA,NA,c_2_014.jpg,c_2_018.jpg,between-small,NA,NaN,NA,right,4180.000000000116,1,2,1026
LdS68ePn,NA,NA,LdS68ePn,2020-0188,2021-09-27,00:03:36,01:23:11,NA,incomplete,false,NA,true,1,3,NA,NA,right,NA,NA,i_s_007.jpg,o_c_019.jpg,within,NA,NaN,NA,right,1874,1,1,1520.9999999998836
LdS68ePn,NA,NA,LdS68ePn,2020-0188,2021-09-27,00:03:36,01:23:11,NA,incomplete,false,NA,true,1,4,NA,NA,right,NA,NA,c_1_011.jpg,i_s_015.jpg,between-big,NA,NaN,NA,right,2183,1,2,3706.0000000001164
LdS68ePn,NA,NA,LdS68ePn,2020-0188,2021-09-27,00:03:36,01:23:11,NA,incomplete,false,NA,true,1,5,NA,NA,right,NA,NA,i_c_025.jpg,i_c_017.jpg,within,NA,NaN,NA,right,2547,1,1,1849
LdS68ePn,NA,NA,LdS68ePn,2020-0188,2021-09-27,00:03:36,01:23:11,NA,incomplete,false,NA,true,1,6,NA,NA,left,NA,NA,n_l_002.jpg,o_c_004.jpg,between-big,NA,NaN,NA,left,1703.9999999998836,1,1,7590
LdS68ePn,NA,NA,LdS68ePn,2020-0188,2021-09-27,00:03:36,01:23:11,NA,incomplete,false,NA,true,1,7,NA,NA,left,NA,NA,o_c_014.jpg,i_c_017.jpg,between-small,NA,NaN,NA,left,1817,1,2,826
LdS68ePn,NA,NA,LdS68ePn,2020-0188,2021-09-27,00:03:36,01:23:11,NA,incomplete,false,NA,true,1,8,NA,NA,left,NA,NA,n_s_020.jpg,n_s_027.jpg,within,NA,NaN,NA,left,1427,1,1,1021
LdS68ePn,NA,NA,LdS68ePn,2020-0188,2021-09-27,00:03:36,01:23:11,NA,incomplete,false,NA,true,1,9,NA,NA,left,NA,NA,m_l_010.jpg,o_c_014.jpg,between-big,NA,NaN,NA,left,1950,1,1,995
LdS68ePn,NA,NA,LdS68ePn,2020-0188,2021-09-27,00:03:36,01:23:11,NA,incomplete,false,NA,true,1,10,NA,NA,left,NA,NA,i_s_009.jpg,i_s_015.jpg,between-small,NA,NaN,NA,left,2309,1,1,2463
LdS68ePn,NA,NA,LdS68ePn,2020-0188,2021-09-27,00:03:36,01:23:11,NA,incomplete,false,NA,true,1,11,NA,NA,right,NA,NA,a_1_026.jpg,c_2_014.jpg,within,NA,NaN,NA,right,2117,1,0,956.0000000001164
LdS68ePn,NA,NA,LdS68ePn,2020-0188,2021-09-27,00:03:36,01:23:11,NA,incomplete,false,NA,true,1,12,NA,NA,left,NA,NA,a_1_027.jpg,a_1_002.jpg,within,NA,NaN,NA,right,5607,0,1,1194
LdS68ePn,NA,NA,LdS68ePn,2020-0188,2021-09-27,00:03:36,01:23:11,NA,incomplete,false,NA,true,1,13,NA,NA,left,NA,NA,c_2_007.jpg,c_1_014.jpg,between-small,NA,NaN,NA,left,1983,1,2,1021
LdS68ePn,NA,NA,LdS68ePn,2020-0188,2021-09-27,00:03:36,01:23:11,NA,incomplete,false,NA,true,1,14,NA,NA,left,NA,NA,i_s_024.jpg,c_2_018.jpg,between-big,NA,NaN,NA,left,1570,1,2,1361.9999999998836
LdS68ePn,NA,NA,LdS68ePn,2020-0188,2021-09-27,00:03:36,01:23:11,NA,incomplete,false,NA,true,1,15,NA,NA,right,NA,NA,m_l_010.jpg,n_s_006.jpg,within,NA,NaN,NA,right,1742,1,0,4160
LdS68ePn,NA,NA,LdS68ePn,2020-0188,2021-09-27,00:03:36,01:23:11,NA,incomplete,false,NA,true,1,16,NA,NA,left,NA,NA,c_1_011.jpg,c_2_007.jpg,within,NA,NaN,NA,left,3650,1,0,1442.9999999998836
LdS68ePn,NA,NA,LdS68ePn,2020-0188,2021-09-27,00:03:36,01:23:11,NA,incomplete,false,NA,true,1,17,NA,NA,right,NA,NA,o_c_019.jpg,n_l_016.jpg,between-big,NA,NaN,NA,right,1104.9999999998836,1,2,1553
LdS68ePn,NA,NA,LdS68ePn,2020-0188,2021-09-27,00:03:36,01:23:11,NA,incomplete,false,NA,true,1,18,NA,NA,left,NA,NA,o_s_026.jpg,i_s_024.jpg,within,NA,NaN,NA,left,2937.0000000001164,1,1,2995
LdS68ePn,NA,NA,LdS68ePn,2020-0188,2021-09-27,00:03:36,01:23:11,NA,incomplete,false,NA,true,1,19,NA,NA,right,NA,NA,o_s_026.jpg,i_s_007.jpg,between-small,NA,NaN,NA,right,2806.9999999998836,1,2,1926.0000000001164
LdS68ePn,NA,NA,LdS68ePn,2020-0188,2021-09-27,00:03:36,01:23:11,NA,incomplete,false,NA,true,1,20,NA,NA,right,NA,NA,c_1_004.jpg,a_1_002.jpg,between-small,NA,NaN,NA,right,2875,1,2,1839.9999999998836
LdS68ePn,NA,NA,LdS68ePn,2020-0188,2021-09-27,00:03:36,01:23:11,NA,incomplete,false,NA,true,1,21,NA,NA,right,NA,NA,n_l_016.jpg,n_s_027.jpg,between-small,NA,NaN,NA,right,2540,1,2,1091.9999999998836
LdS68ePn,NA,NA,LdS68ePn,2020-0188,2021-09-27,00:03:36,01:23:11,NA,incomplete,false,NA,true,1,22,NA,NA,left,NA,NA,i_c_025.jpg,a_1_027.jpg,between-big,NA,NaN,NA,left,3371,1,2,1045
LdS68ePn,NA,NA,LdS68ePn,2020-0188,2021-09-27,00:03:36,01:23:11,NA,incomplete,false,NA,true,1,23,NA,NA,right,NA,NA,m_s_011.jpg,m_l_028.jpg,within,NA,NaN,NA,right,1799,1,1,1434.9999999998836
LdS68ePn,NA,NA,LdS68ePn,2020-0188,2021-09-27,00:03:36,01:23:11,NA,incomplete,false,NA,true,1,24,NA,NA,left,NA,NA,m_s_023.jpg,n_s_018.jpg,between-small,NA,NaN,NA,left,2381.9999999998836,1,1,1539
LdS68ePn,NA,NA,LdS68ePn,2020-0188,2021-09-27,00:03:36,01:23:11,NA,incomplete,false,NA,true,1,25,NA,NA,right,NA,NA,n_s_006.jpg,m_s_011.jpg,between-small,NA,NaN,NA,right,1679.9999999998836,1,2,1179
LdS68ePn,NA,NA,LdS68ePn,2020-0188,2021-09-27,00:03:36,01:23:11,NA,incomplete,false,NA,true,1,26,NA,NA,left,NA,NA,n_s_018.jpg,n_l_002.jpg,within,NA,NaN,NA,left,1497,1,1,933
LdS68ePn,NA,NA,LdS68ePn,2020-0188,2021-09-27,00:03:36,01:23:11,NA,incomplete,false,true,NA,2,0,origin,n_s_015.jpg,left,natural,manmade,NA,NA,NA,left,1540.99999999988,true,NA,NA,NA,NA,NA
LdS68ePn,NA,NA,LdS68ePn,2020-0188,2021-09-27,00:03:36,01:23:11,NA,incomplete,false,true,NA,2,1,origin,n_s_001.jpg,right,manmade,natural,NA,NA,NA,right,1273.00000000012,true,NA,NA,NA,NA,NA
LdS68ePn,NA,NA,LdS68ePn,2020-0188,2021-09-27,00:03:36,01:23:11,NA,incomplete,false,true,NA,2,2,origin,n_l_010.jpg,left,natural,manmade,NA,NA,NA,left,800,true,NA,NA,NA,NA,NA
LdS68ePn,NA,NA,LdS68ePn,2020-0188,2021-09-27,00:03:36,01:23:11,NA,incomplete,false,true,NA,2,3,origin,n_s_009.jpg,left,natural,manmade,NA,NA,NA,left,1956.00000000012,true,NA,NA,NA,NA,NA
LdS68ePn,NA,NA,LdS68ePn,2020-0188,2021-09-27,00:03:36,01:23:11,NA,incomplete,false,true,NA,2,4,origin,m_s_009.jpg,left,manmade,natural,NA,NA,NA,left,1852,true,NA,NA,NA,NA,NA
LdS68ePn,NA,NA,LdS68ePn,2020-0188,2021-09-27,00:03:36,01:23:11,NA,incomplete,false,true,NA,2,5,size,m_l_020.jpg,right,small,large,NA,NA,NA,right,2089,true,NA,NA,NA,NA,NA
LdS68ePn,NA,NA,LdS68ePn,2020-0188,2021-09-27,00:03:36,01:23:11,NA,incomplete,false,true,NA,2,6,size,m_l_016.jpg,left,large,small,NA,NA,NA,left,1148.00000000012,true,NA,NA,NA,NA,NA
LdS68ePn,NA,NA,LdS68ePn,2020-0188,2021-09-27,00:03:36,01:23:11,NA,incomplete,false,true,NA,2,7,size,m_s_014.jpg,right,large,small,NA,NA,NA,right,880,true,NA,NA,NA,NA,NA
LdS68ePn,NA,NA,LdS68ePn,2020-0188,2021-09-27,00:03:36,01:23:11,NA,incomplete,false,true,NA,2,8,size,n_l_009.jpg,left,large,small,NA,NA,NA,left,798,true,NA,NA,NA,NA,NA
LdS68ePn,NA,NA,LdS68ePn,2020-0188,2021-09-27,00:03:36,01:23:11,NA,incomplete,false,true,NA,2,9,size,m_s_016.jpg,right,large,small,NA,NA,NA,right,1442,true,NA,NA,NA,NA,NA
LdS68ePn,NA,NA,LdS68ePn,2020-0188,2021-09-27,00:03:36,01:23:11,NA,incomplete,false,true,NA,2,10,building,i_s_003.jpg,right,cottage,skyscraper,NA,NA,NA,right,1789,true,NA,NA,NA,NA,NA
LdS68ePn,NA,NA,LdS68ePn,2020-0188,2021-09-27,00:03:36,01:23:11,NA,incomplete,false,true,NA,2,11,building,i_s_023.jpg,left,skyscraper,cottage,NA,NA,NA,left,1232,true,NA,NA,NA,NA,NA
LdS68ePn,NA,NA,LdS68ePn,2020-0188,2021-09-27,00:03:36,01:23:11,NA,incomplete,false,true,NA,2,12,building,i_c_009.jpg,right,skyscraper,cottage,NA,NA,NA,right,1202,true,NA,NA,NA,NA,NA
LdS68ePn,NA,NA,LdS68ePn,2020-0188,2021-09-27,00:03:36,01:23:11,NA,incomplete,false,true,NA,2,13,building,o_c_003.jpg,right,skyscraper,cottage,NA,NA,NA,right,1923.99999999988,true,NA,NA,NA,NA,NA
LdS68ePn,NA,NA,LdS68ePn,2020-0188,2021-09-27,00:03:36,01:23:11,NA,incomplete,false,true,NA,2,14,building,o_s_015.jpg,left,skyscraper,cottage,NA,NA,NA,left,909,true,NA,NA,NA,NA,NA
LdS68ePn,NA,NA,LdS68ePn,2020-0188,2021-09-27,00:03:36,01:23:11,NA,incomplete,false,true,NA,2,15,location,o_s_016.jpg,left,outdoor,indoor,NA,NA,NA,left,1754,true,NA,NA,NA,NA,NA
LdS68ePn,NA,NA,LdS68ePn,2020-0188,2021-09-27,00:03:36,01:23:11,NA,incomplete,false,true,NA,2,16,location,o_s_001.jpg,right,indoor,outdoor,NA,NA,NA,right,1340,true,NA,NA,NA,NA,NA
LdS68ePn,NA,NA,LdS68ePn,2020-0188,2021-09-27,00:03:36,01:23:11,NA,incomplete,false,true,NA,2,17,location,i_s_012.jpg,left,indoor,outdoor,NA,NA,NA,left,993,true,NA,NA,NA,NA,NA
LdS68ePn,NA,NA,LdS68ePn,2020-0188,2021-09-27,00:03:36,01:23:11,NA,incomplete,false,true,NA,2,18,location,o_s_007.jpg,left,outdoor,indoor,NA,NA,NA,left,1370,true,NA,NA,NA,NA,NA
LdS68ePn,NA,NA,LdS68ePn,2020-0188,2021-09-27,00:03:36,01:23:11,NA,incomplete,false,true,NA,2,19,location,i_c_003.jpg,right,outdoor,indoor,NA,NA,NA,right,1670.99999999988,true,NA,NA,NA,NA,NA
LdS68ePn,NA,NA,LdS68ePn,2020-0188,2021-09-27,00:03:36,01:23:11,NA,incomplete,false,true,NA,2,20,syllable,c_1_012.jpg,right,1 syllable,2 syllables,NA,NA,NA,left,1092.99999999988,false,NA,NA,NA,NA,NA
LdS68ePn,NA,NA,LdS68ePn,2020-0188,2021-09-27,00:03:36,01:23:11,NA,incomplete,false,true,NA,2,21,syllable,a_1_018.jpg,right,1 syllable,2 syllables,NA,NA,NA,left,1094,false,NA,NA,NA,NA,NA
LdS68ePn,NA,NA,LdS68ePn,2020-0188,2021-09-27,00:03:36,01:23:11,NA,incomplete,false,true,NA,2,22,syllable,c_1_007.jpg,right,2 syllables,1 syllable,NA,NA,NA,right,1017,true,NA,NA,NA,NA,NA
LdS68ePn,NA,NA,LdS68ePn,2020-0188,2021-09-27,00:03:36,01:23:11,NA,incomplete,false,true,NA,2,23,syllable,a_2_017.jpg,right,2 syllables,1 syllable,NA,NA,NA,left,1473.00000000023,false,NA,NA,NA,NA,NA
LdS68ePn,NA,NA,LdS68ePn,2020-0188,2021-09-27,00:03:36,01:23:11,NA,incomplete,false,true,NA,2,24,syllable,a_1_004.jpg,right,1 syllable,2 syllables,NA,NA,NA,left,945.000000000233,false,NA,NA,NA,NA,NA
LdS68ePn,NA,NA,LdS68ePn,2020-0188,2021-09-27,00:03:36,01:23:11,NA,incomplete,false,true,NA,2,25,abstractness,c_1_013.jpg,left,concrete,abstract,NA,NA,NA,left,1772.99999999988,true,NA,NA,NA,NA,NA
LdS68ePn,NA,NA,LdS68ePn,2020-0188,2021-09-27,00:03:36,01:23:11,NA,incomplete,false,true,NA,2,26,abstractness,c_2_002.jpg,right,abstract,concrete,NA,NA,NA,right,1864,true,NA,NA,NA,NA,NA
LdS68ePn,NA,NA,LdS68ePn,2020-0188,2021-09-27,00:03:36,01:23:11,NA,incomplete,false,true,NA,2,27,abstractness,c_1_028.jpg,left,concrete,abstract,NA,NA,NA,left,1256.00000000012,true,NA,NA,NA,NA,NA
LdS68ePn,NA,NA,LdS68ePn,2020-0188,2021-09-27,00:03:36,01:23:11,NA,incomplete,false,true,NA,2,28,abstractness,a_1_007.jpg,left,abstract,concrete,NA,NA,NA,left,1115,true,NA,NA,NA,NA,NA
LdS68ePn,NA,NA,LdS68ePn,2020-0188,2021-09-27,00:03:36,01:23:11,NA,incomplete,false,true,NA,2,29,abstractness,a_2_025.jpg,right,concrete,abstract,NA,NA,NA,right,2384,true,NA,NA,NA,NA,NA
LdS68ePn,NA,NA,LdS68ePn,2020-0188,2021-09-27,00:03:36,01:23:11,NA,incomplete,false,NA,true,2,0,NA,NA,right,NA,NA,m_l_016.jpg,n_s_009.jpg,between-small,NA,NaN,NA,right,5276,1,2,1515
LdS68ePn,NA,NA,LdS68ePn,2020-0188,2021-09-27,00:03:36,01:23:11,NA,incomplete,false,NA,true,2,1,NA,NA,left,NA,NA,o_s_001.jpg,i_c_003.jpg,within,NA,NaN,NA,left,5326,1,1,980
LdS68ePn,NA,NA,LdS68ePn,2020-0188,2021-09-27,00:03:36,01:23:11,NA,incomplete,false,NA,true,2,2,NA,NA,left,NA,NA,n_s_015.jpg,n_s_009.jpg,within,NA,NaN,NA,left,1269,1,0,1274.0000000002328
LdS68ePn,NA,NA,LdS68ePn,2020-0188,2021-09-27,00:03:36,01:23:11,NA,incomplete,false,NA,true,2,3,NA,NA,left,NA,NA,i_c_009.jpg,o_s_016.jpg,between-small,NA,NaN,NA,left,1665.0000000002328,1,1,1347.9999999997672
LdS68ePn,NA,NA,LdS68ePn,2020-0188,2021-09-27,00:03:36,01:23:11,NA,incomplete,false,NA,true,2,4,NA,NA,right,NA,NA,m_s_016.jpg,m_l_016.jpg,within,NA,NaN,NA,right,2053.999999999767,1,1,1154
LdS68ePn,NA,NA,LdS68ePn,2020-0188,2021-09-27,00:03:36,01:23:11,NA,incomplete,false,NA,true,2,5,NA,NA,right,NA,NA,i_s_012.jpg,o_s_015.jpg,between-small,NA,NaN,NA,right,11776,1,1,914
LdS68ePn,NA,NA,LdS68ePn,2020-0188,2021-09-27,00:03:36,01:23:11,NA,incomplete,false,NA,true,2,6,NA,NA,right,NA,NA,o_c_003.jpg,i_s_003.jpg,within,NA,NaN,NA,right,4541.000000000233,1,0,1538.9999999997672
LdS68ePn,NA,NA,LdS68ePn,2020-0188,2021-09-27,00:03:36,01:23:11,NA,incomplete,false,NA,true,2,7,NA,NA,left,NA,NA,m_s_016.jpg,i_c_009.jpg,between-big,NA,NaN,NA,left,4515,1,2,1224
LdS68ePn,NA,NA,LdS68ePn,2020-0188,2021-09-27,00:03:36,01:23:11,NA,incomplete,false,NA,true,2,8,NA,NA,left,NA,NA,o_s_016.jpg,o_s_007.jpg,within,NA,NaN,NA,left,2887,1,1,1697
LdS68ePn,NA,NA,LdS68ePn,2020-0188,2021-09-27,00:03:36,01:23:11,NA,incomplete,false,NA,true,2,9,NA,NA,right,NA,NA,c_1_013.jpg,c_1_007.jpg,between-small,NA,NaN,NA,right,4346,1,1,1257
LdS68ePn,NA,NA,LdS68ePn,2020-0188,2021-09-27,00:03:36,01:23:11,NA,incomplete,false,NA,true,2,10,NA,NA,right,NA,NA,a_1_007.jpg,c_1_013.jpg,within,NA,NaN,NA,right,3155.000000000233,1,2,1690.0000000002328
LdS68ePn,NA,NA,LdS68ePn,2020-0188,2021-09-27,00:03:36,01:23:11,NA,incomplete,false,NA,true,2,11,NA,NA,left,NA,NA,n_s_001.jpg,m_s_009.jpg,within,NA,NaN,NA,left,2501,1,1,1887.0000000002328
LdS68ePn,NA,NA,LdS68ePn,2020-0188,2021-09-27,00:03:36,01:23:11,NA,incomplete,false,NA,true,2,12,NA,NA,left,NA,NA,i_s_023.jpg,o_s_015.jpg,within,NA,NaN,NA,left,2086,1,1,1678
LdS68ePn,NA,NA,LdS68ePn,2020-0188,2021-09-27,00:03:36,01:23:11,NA,incomplete,false,NA,true,2,13,NA,NA,left,NA,NA,m_s_014.jpg,i_s_003.jpg,between-big,NA,NaN,NA,left,1402.0000000002328,1,2,924
LdS68ePn,NA,NA,LdS68ePn,2020-0188,2021-09-27,00:03:36,01:23:11,NA,incomplete,false,NA,true,2,14,NA,NA,left,NA,NA,i_s_012.jpg,c_1_012.jpg,between-big,NA,NaN,NA,left,7169.000000000233,1,2,1053
LdS68ePn,NA,NA,LdS68ePn,2020-0188,2021-09-27,00:03:36,01:23:11,NA,incomplete,false,NA,true,2,15,NA,NA,left,NA,NA,m_s_009.jpg,m_s_014.jpg,between-small,NA,NaN,NA,left,2407,1,1,1052
LdS68ePn,NA,NA,LdS68ePn,2020-0188,2021-09-27,00:03:36,01:23:11,NA,incomplete,false,NA,true,2,16,NA,NA,right,NA,NA,o_s_001.jpg,o_c_003.jpg,between-small,NA,NaN,NA,right,1593,1,1,1714
LdS68ePn,NA,NA,LdS68ePn,2020-0188,2021-09-27,00:03:36,01:23:11,NA,incomplete,false,NA,true,2,17,NA,NA,left,NA,NA,a_2_017.jpg,c_2_002.jpg,between-small,NA,NaN,NA,left,6211,1,2,2470
LdS68ePn,NA,NA,LdS68ePn,2020-0188,2021-09-27,00:03:36,01:23:11,NA,incomplete,false,NA,true,2,18,NA,NA,right,NA,NA,c_1_007.jpg,i_c_003.jpg,between-big,NA,NaN,NA,right,1051,1,2,3705
LdS68ePn,NA,NA,LdS68ePn,2020-0188,2021-09-27,00:03:36,01:23:11,NA,incomplete,false,NA,true,2,19,NA,NA,left,NA,NA,c_1_012.jpg,a_2_017.jpg,within,NA,NaN,NA,left,4197.999999999767,1,0,1029
LdS68ePn,NA,NA,LdS68ePn,2020-0188,2021-09-27,00:03:36,01:23:11,NA,incomplete,false,NA,true,2,20,NA,NA,left,NA,NA,n_l_009.jpg,i_s_023.jpg,between-big,NA,NaN,NA,left,1317,1,2,961
LdS68ePn,NA,NA,LdS68ePn,2020-0188,2021-09-27,00:03:36,01:23:11,NA,incomplete,false,NA,true,2,21,NA,NA,left,NA,NA,o_s_007.jpg,a_1_018.jpg,between-big,NA,NaN,NA,left,1346,1,2,1603
LdS68ePn,NA,NA,LdS68ePn,2020-0188,2021-09-27,00:03:36,01:23:11,NA,incomplete,false,NA,true,2,22,NA,NA,right,NA,NA,m_l_020.jpg,n_l_010.jpg,between-small,NA,NaN,NA,right,2570,1,1,958
LdS68ePn,NA,NA,LdS68ePn,2020-0188,2021-09-27,00:03:36,01:23:11,NA,incomplete,false,NA,true,2,23,NA,NA,left,NA,NA,a_1_018.jpg,a_1_004.jpg,within,NA,NaN,NA,left,4125,1,1,1868
LdS68ePn,NA,NA,LdS68ePn,2020-0188,2021-09-27,00:03:36,01:23:11,NA,incomplete,false,NA,true,2,24,NA,NA,left,NA,NA,c_2_002.jpg,a_2_025.jpg,within,NA,NaN,NA,left,3141.999999999767,1,1,2254.999999999767
LdS68ePn,NA,NA,LdS68ePn,2020-0188,2021-09-27,00:03:36,01:23:11,NA,incomplete,false,NA,true,2,25,NA,NA,left,NA,NA,a_1_004.jpg,c_1_028.jpg,between-small,NA,NaN,NA,right,4614,0,1,1746
LdS68ePn,NA,NA,LdS68ePn,2020-0188,2021-09-27,00:03:36,01:23:11,NA,incomplete,false,NA,true,2,26,NA,NA,right,NA,NA,n_l_009.jpg,m_l_020.jpg,within,NA,NaN,NA,right,1886.0000000002328,1,1,1330
LdS68ePn,NA,NA,LdS68ePn,2020-0188,2021-09-27,00:03:36,01:23:11,NA,incomplete,false,true,NA,3,0,origin,m_s_022.jpg,right,natural,manmade,NA,NA,NA,right,1550,true,NA,NA,NA,NA,NA
LdS68ePn,NA,NA,LdS68ePn,2020-0188,2021-09-27,00:03:36,01:23:11,NA,incomplete,false,true,NA,3,1,origin,n_s_019.jpg,right,manmade,natural,NA,NA,NA,right,1791.99999999977,true,NA,NA,NA,NA,NA
LdS68ePn,NA,NA,LdS68ePn,2020-0188,2021-09-27,00:03:36,01:23:11,NA,incomplete,false,true,NA,3,2,origin,m_s_026.jpg,right,natural,manmade,NA,NA,NA,right,1386,true,NA,NA,NA,NA,NA
LdS68ePn,NA,NA,LdS68ePn,2020-0188,2021-09-27,00:03:36,01:23:11,NA,incomplete,false,true,NA,3,3,origin,n_l_018.jpg,left,natural,manmade,NA,NA,NA,left,1345,true,NA,NA,NA,NA,NA
LdS68ePn,NA,NA,LdS68ePn,2020-0188,2021-09-27,00:03:36,01:23:11,NA,incomplete,false,true,NA,3,4,origin,m_s_024.jpg,left,manmade,natural,NA,NA,NA,left,1312.00000000023,true,NA,NA,NA,NA,NA
LdS68ePn,NA,NA,LdS68ePn,2020-0188,2021-09-27,00:03:36,01:23:11,NA,incomplete,false,true,NA,3,5,size,m_l_026.jpg,right,small,large,NA,NA,NA,right,1552,true,NA,NA,NA,NA,NA
LdS68ePn,NA,NA,LdS68ePn,2020-0188,2021-09-27,00:03:36,01:23:11,NA,incomplete,false,true,NA,3,6,size,n_l_005.jpg,right,small,large,NA,NA,NA,right,1426,true,NA,NA,NA,NA,NA
LdS68ePn,NA,NA,LdS68ePn,2020-0188,2021-09-27,00:03:36,01:23:11,NA,incomplete,false,true,NA,3,7,size,n_s_011.jpg,left,small,large,NA,NA,NA,left,1248,true,NA,NA,NA,NA,NA
LdS68ePn,NA,NA,LdS68ePn,2020-0188,2021-09-27,00:03:36,01:23:11,NA,incomplete,false,true,NA,3,8,size,m_l_018.jpg,right,small,large,NA,NA,NA,right,1322,true,NA,NA,NA,NA,NA
LdS68ePn,NA,NA,LdS68ePn,2020-0188,2021-09-27,00:03:36,01:23:11,NA,incomplete,false,true,NA,3,9,size,n_l_001.jpg,right,small,large,NA,NA,NA,right,1075,true,NA,NA,NA,NA,NA
LdS68ePn,NA,NA,LdS68ePn,2020-0188,2021-09-27,00:03:36,01:23:11,NA,incomplete,false,true,NA,3,10,abstractness,a_2_015.jpg,left,abstract,concrete,NA,NA,NA,left,3321.00000000023,true,NA,NA,NA,NA,NA
LdS68ePn,NA,NA,LdS68ePn,2020-0188,2021-09-27,00:03:36,01:23:11,NA,incomplete,false,true,NA,3,11,abstractness,c_1_008.jpg,right,abstract,concrete,NA,NA,NA,right,1611,true,NA,NA,NA,NA,NA
LdS68ePn,NA,NA,LdS68ePn,2020-0188,2021-09-27,00:03:36,01:23:11,NA,incomplete,false,true,NA,3,12,abstractness,c_1_009.jpg,left,concrete,abstract,NA,NA,NA,none,0,false,NA,NA,NA,NA,NA
LdS68ePn,NA,NA,LdS68ePn,2020-0188,2021-09-27,00:03:36,01:23:11,NA,incomplete,false,true,NA,3,13,abstractness,a_2_023.jpg,left,abstract,concrete,NA,NA,NA,left,1297.00000000023,true,NA,NA,NA,NA,NA
LdS68ePn,NA,NA,LdS68ePn,2020-0188,2021-09-27,00:03:36,01:23:11,NA,incomplete,false,true,NA,3,14,abstractness,a_1_003.jpg,left,abstract,concrete,NA,NA,NA,left,1894,true,NA,NA,NA,NA,NA
LdS68ePn,NA,NA,LdS68ePn,2020-0188,2021-09-27,00:03:36,01:23:11,NA,incomplete,false,true,NA,3,15,syllable,c_1_010.jpg,right,1 syllable,2 syllables,NA,NA,NA,left,1073,false,NA,NA,NA,NA,NA
LdS68ePn,NA,NA,LdS68ePn,2020-0188,2021-09-27,00:03:36,01:23:11,NA,incomplete,false,true,NA,3,16,syllable,c_1_026.jpg,right,2 syllables,1 syllable,NA,NA,NA,right,1318,true,NA,NA,NA,NA,NA
LdS68ePn,NA,NA,LdS68ePn,2020-0188,2021-09-27,00:03:36,01:23:11,NA,incomplete,false,true,NA,3,17,syllable,c_2_019.jpg,right,1 syllable,2 syllables,NA,NA,NA,right,1208,true,NA,NA,NA,NA,NA
LdS68ePn,NA,NA,LdS68ePn,2020-0188,2021-09-27,00:03:36,01:23:11,NA,incomplete,false,true,NA,3,18,syllable,a_1_021.jpg,right,1 syllable,2 syllables,NA,NA,NA,left,975,false,NA,NA,NA,NA,NA
LdS68ePn,NA,NA,LdS68ePn,2020-0188,2021-09-27,00:03:36,01:23:11,NA,incomplete,false,true,NA,3,19,syllable,c_2_012.jpg,right,2 syllables,1 syllable,NA,NA,NA,left,1095,false,NA,NA,NA,NA,NA
LdS68ePn,NA,NA,LdS68ePn,2020-0188,2021-09-27,00:03:36,01:23:11,NA,incomplete,false,true,NA,3,20,location,i_c_013.jpg,left,indoor,outdoor,NA,NA,NA,left,1227,true,NA,NA,NA,NA,NA
LdS68ePn,NA,NA,LdS68ePn,2020-0188,2021-09-27,00:03:36,01:23:11,NA,incomplete,false,true,NA,3,21,location,o_s_024.jpg,left,outdoor,indoor,NA,NA,NA,left,1319,true,NA,NA,NA,NA,NA
LdS68ePn,NA,NA,LdS68ePn,2020-0188,2021-09-27,00:03:36,01:23:11,NA,incomplete,false,true,NA,3,22,location,i_c_012.jpg,left,indoor,outdoor,NA,NA,NA,left,1456,true,NA,NA,NA,NA,NA
LdS68ePn,NA,NA,LdS68ePn,2020-0188,2021-09-27,00:03:36,01:23:11,NA,incomplete,false,true,NA,3,23,location,i_s_026.jpg,left,indoor,outdoor,NA,NA,NA,left,939,true,NA,NA,NA,NA,NA
LdS68ePn,NA,NA,LdS68ePn,2020-0188,2021-09-27,00:03:36,01:23:11,NA,incomplete,false,true,NA,3,24,location,i_s_005.jpg,right,outdoor,indoor,NA,NA,NA,right,1419.00000000023,true,NA,NA,NA,NA,NA
LdS68ePn,NA,NA,LdS68ePn,2020-0188,2021-09-27,00:03:36,01:23:11,NA,incomplete,false,true,NA,3,25,building,i_s_010.jpg,left,skyscraper,cottage,NA,NA,NA,left,1671,true,NA,NA,NA,NA,NA
LdS68ePn,NA,NA,LdS68ePn,2020-0188,2021-09-27,00:03:36,01:23:11,NA,incomplete,false,true,NA,3,26,building,o_s_013.jpg,right,cottage,skyscraper,NA,NA,NA,right,1282,true,NA,NA,NA,NA,NA
LdS68ePn,NA,NA,LdS68ePn,2020-0188,2021-09-27,00:03:36,01:23:11,NA,incomplete,false,true,NA,3,27,building,i_c_026.jpg,left,cottage,skyscraper,NA,NA,NA,left,1295,true,NA,NA,NA,NA,NA
LdS68ePn,NA,NA,LdS68ePn,2020-0188,2021-09-27,00:03:36,01:23:11,NA,incomplete,false,true,NA,3,28,building,o_s_019.jpg,left,skyscraper,cottage,NA,NA,NA,left,2426,true,NA,NA,NA,NA,NA
LdS68ePn,NA,NA,LdS68ePn,2020-0188,2021-09-27,00:03:36,01:23:11,NA,incomplete,false,true,NA,3,29,building,o_s_006.jpg,left,skyscraper,cottage,NA,NA,NA,left,789,true,NA,NA,NA,NA,NA
LdS68ePn,NA,NA,LdS68ePn,2020-0188,2021-09-27,00:03:36,01:23:11,NA,incomplete,false,NA,true,3,0,NA,NA,right,NA,NA,n_l_005.jpg,n_l_018.jpg,between-small,NA,NaN,NA,right,1638,1,1,1657
LdS68ePn,NA,NA,LdS68ePn,2020-0188,2021-09-27,00:03:36,01:23:11,NA,incomplete,false,NA,true,3,1,NA,NA,right,NA,NA,i_s_026.jpg,i_c_013.jpg,within,NA,NaN,NA,right,2684,1,1,2404
LdS68ePn,NA,NA,LdS68ePn,2020-0188,2021-09-27,00:03:36,01:23:11,NA,incomplete,false,NA,true,3,2,NA,NA,right,NA,NA,i_c_013.jpg,c_2_019.jpg,between-big,NA,NaN,NA,right,2628.000000000233,1,1,1306
LdS68ePn,NA,NA,LdS68ePn,2020-0188,2021-09-27,00:03:36,01:23:11,NA,incomplete,false,NA,true,3,3,NA,NA,left,NA,NA,i_s_005.jpg,i_c_026.jpg,between-small,NA,NaN,NA,right,4493,0,1,1363
LdS68ePn,NA,NA,LdS68ePn,2020-0188,2021-09-27,00:03:36,01:23:11,NA,incomplete,false,NA,true,3,4,NA,NA,left,NA,NA,o_s_013.jpg,o_s_006.jpg,within,NA,NaN,NA,left,3169,1,1,1113
LdS68ePn,NA,NA,LdS68ePn,2020-0188,2021-09-27,00:03:36,01:23:11,NA,incomplete,false,NA,true,3,5,NA,NA,left,NA,NA,n_s_011.jpg,a_2_015.jpg,between-big,NA,NaN,NA,left,1490,1,2,3336
LdS68ePn,NA,NA,LdS68ePn,2020-0188,2021-09-27,00:03:36,01:23:11,NA,incomplete,false,NA,true,3,6,NA,NA,left,NA,NA,m_l_026.jpg,m_l_018.jpg,within,NA,NaN,NA,left,1751.9999999997672,1,1,1752
LdS68ePn,NA,NA,LdS68ePn,2020-0188,2021-09-27,00:03:36,01:23:11,NA,incomplete,false,NA,true,3,7,NA,NA,left,NA,NA,c_1_026.jpg,c_2_012.jpg,within,NA,NaN,NA,left,6420.000000000233,1,1,1927
LdS68ePn,NA,NA,LdS68ePn,2020-0188,2021-09-27,00:03:36,01:23:11,NA,incomplete,false,NA,true,3,8,NA,NA,right,NA,NA,m_s_024.jpg,n_s_019.jpg,within,NA,NaN,NA,right,1894,1,1,820
LdS68ePn,NA,NA,LdS68ePn,2020-0188,2021-09-27,00:03:36,01:23:11,NA,incomplete,false,NA,true,3,9,NA,NA,left,NA,NA,c_1_010.jpg,a_1_021.jpg,within,NA,NaN,NA,right,3720,0,1,938.0000000002328
LdS68ePn,NA,NA,LdS68ePn,2020-0188,2021-09-27,00:03:36,01:23:11,NA,incomplete,false,NA,true,3,10,NA,NA,left,NA,NA,a_2_023.jpg,c_1_026.jpg,between-small,NA,NaN,NA,left,3537,1,1,2223.000000000233
LdS68ePn,NA,NA,LdS68ePn,2020-0188,2021-09-27,00:03:36,01:23:11,NA,incomplete,false,NA,true,3,11,NA,NA,right,NA,NA,i_s_005.jpg,o_s_024.jpg,within,NA,NaN,NA,right,2660.999999999767,1,1,1426
LdS68ePn,NA,NA,LdS68ePn,2020-0188,2021-09-27,00:03:36,01:23:11,NA,incomplete,false,NA,true,3,12,NA,NA,left,NA,NA,m_s_026.jpg,m_l_026.jpg,between-small,NA,NaN,NA,left,1785,1,2,985.9999999997672
LdS68ePn,NA,NA,LdS68ePn,2020-0188,2021-09-27,00:03:36,01:23:11,NA,incomplete,false,NA,true,3,13,NA,NA,right,NA,NA,c_2_019.jpg,a_1_003.jpg,between-small,NA,NaN,NA,right,3388,1,1,1839.0000000002328
LdS68ePn,NA,NA,LdS68ePn,2020-0188,2021-09-27,00:03:36,01:23:11,NA,incomplete,false,NA,true,3,14,NA,NA,right,NA,NA,i_c_012.jpg,c_2_012.jpg,between-big,NA,NaN,NA,right,2890,1,1,1267
LdS68ePn,NA,NA,LdS68ePn,2020-0188,2021-09-27,00:03:36,01:23:11,NA,incomplete,false,NA,true,3,15,NA,NA,right,NA,NA,i_s_010.jpg,i_c_012.jpg,between-small,NA,NaN,NA,right,6034,1,1,1906
LdS68ePn,NA,NA,LdS68ePn,2020-0188,2021-09-27,00:03:36,01:23:11,NA,incomplete,false,NA,true,3,16,NA,NA,right,NA,NA,a_2_023.jpg,a_2_015.jpg,within,NA,NaN,NA,right,4944.000000000233,1,1,1807
LdS68ePn,NA,NA,LdS68ePn,2020-0188,2021-09-27,00:03:36,01:23:11,NA,incomplete,false,NA,true,3,17,NA,NA,right,NA,NA,n_l_001.jpg,n_l_005.jpg,within,NA,NaN,NA,right,1676,1,1,860
LdS68ePn,NA,NA,LdS68ePn,2020-0188,2021-09-27,00:03:36,01:23:11,NA,incomplete,false,NA,true,3,18,NA,NA,right,NA,NA,n_s_011.jpg,m_s_024.jpg,between-small,NA,NaN,NA,right,3179,1,1,1265
LdS68ePn,NA,NA,LdS68ePn,2020-0188,2021-09-27,00:03:36,01:23:11,NA,incomplete,false,NA,true,3,19,NA,NA,left,NA,NA,m_l_018.jpg,c_1_008.jpg,between-big,NA,NaN,NA,left,1265,1,1,805
LdS68ePn,NA,NA,LdS68ePn,2020-0188,2021-09-27,00:03:36,01:23:11,NA,incomplete,false,NA,true,3,20,NA,NA,right,NA,NA,o_s_024.jpg,a_1_021.jpg,between-big,NA,NaN,NA,right,1723,1,2,946
LdS68ePn,NA,NA,LdS68ePn,2020-0188,2021-09-27,00:03:36,01:23:11,NA,incomplete,false,NA,true,3,21,NA,NA,right,NA,NA,a_1_003.jpg,c_1_008.jpg,within,NA,NaN,NA,right,3344.999999999767,1,1,980
LdS68ePn,NA,NA,LdS68ePn,2020-0188,2021-09-27,00:03:36,01:23:11,NA,incomplete,false,NA,true,3,22,NA,NA,left,NA,NA,i_s_010.jpg,o_s_019.jpg,within,NA,NaN,NA,right,4468.000000000233,0,1,931
LdS68ePn,NA,NA,LdS68ePn,2020-0188,2021-09-27,00:03:36,01:23:11,NA,incomplete,false,NA,true,3,23,NA,NA,right,NA,NA,c_1_009.jpg,n_l_001.jpg,between-big,NA,NaN,NA,right,1154,1,1,1691
LdS68ePn,NA,NA,LdS68ePn,2020-0188,2021-09-27,00:03:36,01:23:11,NA,incomplete,false,NA,true,3,24,NA,NA,left,NA,NA,m_s_022.jpg,n_l_018.jpg,within,NA,NaN,NA,left,1642,1,0,1728.9999999997672
LdS68ePn,NA,NA,LdS68ePn,2020-0188,2021-09-27,00:03:36,01:23:11,NA,incomplete,false,NA,true,3,25,NA,NA,right,NA,NA,o_s_013.jpg,i_s_026.jpg,between-small,NA,NaN,NA,left,4077,0,1,2365
LdS68ePn,NA,NA,LdS68ePn,2020-0188,2021-09-27,00:03:36,01:23:11,NA,incomplete,false,NA,true,3,26,NA,NA,right,NA,NA,c_1_010.jpg,c_1_009.jpg,between-small,NA,NaN,NA,right,2198,1,1,2415
LdS68ePn,NA,NA,LdS68ePn,2020-0188,2021-09-27,00:03:36,01:23:11,NA,incomplete,false,true,NA,4,0,building,o_c_005.jpg,right,skyscraper,cottage,NA,NA,NA,right,1676.00000000023,true,NA,NA,NA,NA,NA
LdS68ePn,NA,NA,LdS68ePn,2020-0188,2021-09-27,00:03:36,01:23:11,NA,incomplete,false,true,NA,4,1,building,o_c_006.jpg,right,skyscraper,cottage,NA,NA,NA,right,1024.99999999977,true,NA,NA,NA,NA,NA
LdS68ePn,NA,NA,LdS68ePn,2020-0188,2021-09-27,00:03:36,01:23:11,NA,incomplete,false,true,NA,4,2,building,i_c_007.jpg,left,cottage,skyscraper,NA,NA,NA,left,985.999999999767,true,NA,NA,NA,NA,NA
LdS68ePn,NA,NA,LdS68ePn,2020-0188,2021-09-27,00:03:36,01:23:11,NA,incomplete,false,true,NA,4,3,building,o_c_011.jpg,left,cottage,skyscraper,NA,NA,NA,left,808.999999999767,true,NA,NA,NA,NA,NA
LdS68ePn,NA,NA,LdS68ePn,2020-0188,2021-09-27,00:03:36,01:23:11,NA,incomplete,false,true,NA,4,4,building,o_s_018.jpg,right,cottage,skyscraper,NA,NA,NA,right,1039,true,NA,NA,NA,NA,NA
LdS68ePn,NA,NA,LdS68ePn,2020-0188,2021-09-27,00:03:36,01:23:11,NA,incomplete,false,true,NA,4,5,location,o_s_003.jpg,right,indoor,outdoor,NA,NA,NA,right,1408,true,NA,NA,NA,NA,NA
LdS68ePn,NA,NA,LdS68ePn,2020-0188,2021-09-27,00:03:36,01:23:11,NA,incomplete,false,true,NA,4,6,location,i_c_018.jpg,left,indoor,outdoor,NA,NA,NA,left,1261,true,NA,NA,NA,NA,NA
LdS68ePn,NA,NA,LdS68ePn,2020-0188,2021-09-27,00:03:36,01:23:11,NA,incomplete,false,true,NA,4,7,location,o_s_028.jpg,right,indoor,outdoor,NA,NA,NA,right,1081,true,NA,NA,NA,NA,NA
LdS68ePn,NA,NA,LdS68ePn,2020-0188,2021-09-27,00:03:36,01:23:11,NA,incomplete,false,true,NA,4,8,location,i_c_027.jpg,right,outdoor,indoor,NA,NA,NA,right,1360,true,NA,NA,NA,NA,NA
LdS68ePn,NA,NA,LdS68ePn,2020-0188,2021-09-27,00:03:36,01:23:11,NA,incomplete,false,true,NA,4,9,location,o_c_024.jpg,right,indoor,outdoor,NA,NA,NA,right,1034,true,NA,NA,NA,NA,NA
LdS68ePn,NA,NA,LdS68ePn,2020-0188,2021-09-27,00:03:36,01:23:11,NA,incomplete,false,true,NA,4,10,syllable,a_2_002.jpg,right,2 syllables,1 syllable,NA,NA,NA,left,1186,false,NA,NA,NA,NA,NA
LdS68ePn,NA,NA,LdS68ePn,2020-0188,2021-09-27,00:03:36,01:23:11,NA,incomplete,false,true,NA,4,11,syllable,a_2_006.jpg,right,1 syllable,2 syllables,NA,NA,NA,right,955,true,NA,NA,NA,NA,NA
LdS68ePn,NA,NA,LdS68ePn,2020-0188,2021-09-27,00:03:36,01:23:11,NA,incomplete,false,true,NA,4,12,syllable,a_1_017.jpg,right,1 syllable,2 syllables,NA,NA,NA,left,996.000000000233,false,NA,NA,NA,NA,NA
LdS68ePn,NA,NA,LdS68ePn,2020-0188,2021-09-27,00:03:36,01:23:11,NA,incomplete,false,true,NA,4,13,syllable,c_1_024.jpg,right,2 syllables,1 syllable,NA,NA,NA,right,951,true,NA,NA,NA,NA,NA
LdS68ePn,NA,NA,LdS68ePn,2020-0188,2021-09-27,00:03:36,01:23:11,NA,incomplete,false,true,NA,4,14,syllable,c_1_006.jpg,right,1 syllable,2 syllables,NA,NA,NA,left,621,false,NA,NA,NA,NA,NA
LdS68ePn,NA,NA,LdS68ePn,2020-0188,2021-09-27,00:03:36,01:23:11,NA,incomplete,false,true,NA,4,15,abstractness,a_1_015.jpg,left,abstract,concrete,NA,NA,NA,left,2221,true,NA,NA,NA,NA,NA
LdS68ePn,NA,NA,LdS68ePn,2020-0188,2021-09-27,00:03:36,01:23:11,NA,incomplete,false,true,NA,4,16,abstractness,c_1_001.jpg,left,concrete,abstract,NA,NA,NA,left,1306,true,NA,NA,NA,NA,NA
LdS68ePn,NA,NA,LdS68ePn,2020-0188,2021-09-27,00:03:36,01:23:11,NA,incomplete,false,true,NA,4,17,abstractness,a_2_001.jpg,right,concrete,abstract,NA,NA,NA,right,2388.00000000023,true,NA,NA,NA,NA,NA
LdS68ePn,NA,NA,LdS68ePn,2020-0188,2021-09-27,00:03:36,01:23:11,NA,incomplete,false,true,NA,4,18,abstractness,c_1_023.jpg,right,abstract,concrete,NA,NA,NA,right,1832,true,NA,NA,NA,NA,NA
LdS68ePn,NA,NA,LdS68ePn,2020-0188,2021-09-27,00:03:36,01:23:11,NA,incomplete,false,true,NA,4,19,abstractness,a_1_024.jpg,right,concrete,abstract,NA,NA,NA,right,1200,true,NA,NA,NA,NA,NA
LdS68ePn,NA,NA,LdS68ePn,2020-0188,2021-09-27,00:03:36,01:23:11,NA,incomplete,false,true,NA,4,20,size,m_l_001.jpg,right,small,large,NA,NA,NA,right,2754,true,NA,NA,NA,NA,NA
LdS68ePn,NA,NA,LdS68ePn,2020-0188,2021-09-27,00:03:36,01:23:11,NA,incomplete,false,true,NA,4,21,size,m_s_010.jpg,right,large,small,NA,NA,NA,right,1176,true,NA,NA,NA,NA,NA
LdS68ePn,NA,NA,LdS68ePn,2020-0188,2021-09-27,00:03:36,01:23:11,NA,incomplete,false,true,NA,4,22,size,n_s_003.jpg,left,small,large,NA,NA,NA,left,821,true,NA,NA,NA,NA,NA
LdS68ePn,NA,NA,LdS68ePn,2020-0188,2021-09-27,00:03:36,01:23:11,NA,incomplete,false,true,NA,4,23,size,m_s_005.jpg,right,large,small,NA,NA,NA,left,1167,false,NA,NA,NA,NA,NA
LdS68ePn,NA,NA,LdS68ePn,2020-0188,2021-09-27,00:03:36,01:23:11,NA,incomplete,false,true,NA,4,24,size,n_s_013.jpg,right,large,small,NA,NA,NA,right,1078,true,NA,NA,NA,NA,NA
LdS68ePn,NA,NA,LdS68ePn,2020-0188,2021-09-27,00:03:36,01:23:11,NA,incomplete,false,true,NA,4,25,origin,n_s_025.jpg,left,natural,manmade,NA,NA,NA,left,1058,true,NA,NA,NA,NA,NA
LdS68ePn,NA,NA,LdS68ePn,2020-0188,2021-09-27,00:03:36,01:23:11,NA,incomplete,false,true,NA,4,26,origin,n_s_010.jpg,right,manmade,natural,NA,NA,NA,right,1154,true,NA,NA,NA,NA,NA
LdS68ePn,NA,NA,LdS68ePn,2020-0188,2021-09-27,00:03:36,01:23:11,NA,incomplete,false,true,NA,4,27,origin,n_s_014.jpg,right,manmade,natural,NA,NA,NA,right,1295,true,NA,NA,NA,NA,NA
LdS68ePn,NA,NA,LdS68ePn,2020-0188,2021-09-27,00:03:36,01:23:11,NA,incomplete,false,true,NA,4,28,origin,m_l_027.jpg,right,natural,manmade,NA,NA,NA,right,1242.99999999977,true,NA,NA,NA,NA,NA
LdS68ePn,NA,NA,LdS68ePn,2020-0188,2021-09-27,00:03:36,01:23:11,NA,incomplete,false,true,NA,4,29,origin,m_s_015.jpg,right,natural,manmade,NA,NA,NA,right,1865,true,NA,NA,NA,NA,NA
LdS68ePn,NA,NA,LdS68ePn,2020-0188,2021-09-27,00:03:36,01:23:11,NA,incomplete,false,NA,true,4,0,NA,NA,left,NA,NA,n_s_003.jpg,n_s_025.jpg,between-small,NA,NaN,NA,left,7901.000000000233,1,1,1119
LdS68ePn,NA,NA,LdS68ePn,2020-0188,2021-09-27,00:03:36,01:23:11,NA,incomplete,false,NA,true,4,1,NA,NA,right,NA,NA,c_1_023.jpg,a_1_015.jpg,within,NA,NaN,NA,right,5803,1,1,1936
LdS68ePn,NA,NA,LdS68ePn,2020-0188,2021-09-27,00:03:36,01:23:11,NA,incomplete,false,NA,true,4,2,NA,NA,left,NA,NA,i_c_007.jpg,o_s_003.jpg,between-small,NA,NaN,NA,left,2143.000000000233,1,1,1370.9999999997672
LdS68ePn,NA,NA,LdS68ePn,2020-0188,2021-09-27,00:03:36,01:23:11,NA,incomplete,false,NA,true,4,3,NA,NA,left,NA,NA,o_s_003.jpg,i_c_027.jpg,within,NA,NaN,NA,left,1886.9999999997672,1,2,1028
LdS68ePn,NA,NA,LdS68ePn,2020-0188,2021-09-27,00:03:36,01:23:11,NA,incomplete,false,NA,true,4,4,NA,NA,right,NA,NA,m_s_015.jpg,n_s_010.jpg,within,NA,NaN,NA,right,2978,1,1,1093
LdS68ePn,NA,NA,LdS68ePn,2020-0188,2021-09-27,00:03:36,01:23:11,NA,incomplete,false,NA,true,4,5,NA,NA,right,NA,NA,n_s_014.jpg,n_s_013.jpg,between-small,NA,NaN,NA,right,1641,1,2,1083
LdS68ePn,NA,NA,LdS68ePn,2020-0188,2021-09-27,00:03:36,01:23:11,NA,incomplete,false,NA,true,4,6,NA,NA,left,NA,NA,a_2_006.jpg,c_1_006.jpg,within,NA,NaN,NA,left,2310,1,1,1761
LdS68ePn,NA,NA,LdS68ePn,2020-0188,2021-09-27,00:03:36,01:23:11,NA,incomplete,false,NA,true,4,7,NA,NA,right,NA,NA,o_s_018.jpg,o_c_006.jpg,within,NA,NaN,NA,right,2095,1,0,1457
LdS68ePn,NA,NA,LdS68ePn,2020-0188,2021-09-27,00:03:36,01:23:11,NA,incomplete,false,NA,true,4,8,NA,NA,left,NA,NA,o_c_011.jpg,i_c_018.jpg,between-small,NA,NaN,NA,left,1537,1,1,1703.9999999997672
LdS68ePn,NA,NA,LdS68ePn,2020-0188,2021-09-27,00:03:36,01:23:11,NA,incomplete,false,NA,true,4,9,NA,NA,left,NA,NA,c_1_001.jpg,a_1_024.jpg,within,NA,NaN,NA,left,2254,1,1,1019
LdS68ePn,NA,NA,LdS68ePn,2020-0188,2021-09-27,00:03:36,01:23:11,NA,incomplete,false,NA,true,4,10,NA,NA,right,NA,NA,c_1_024.jpg,a_2_002.jpg,within,NA,NaN,NA,right,3378,1,1,777.9999999997672
LdS68ePn,NA,NA,LdS68ePn,2020-0188,2021-09-27,00:03:36,01:23:11,NA,incomplete,false,NA,true,4,11,NA,NA,right,NA,NA,a_2_002.jpg,o_s_028.jpg,between-big,NA,NaN,NA,right,3120.000000000233,1,1,922.9999999997672
LdS68ePn,NA,NA,LdS68ePn,2020-0188,2021-09-27,00:03:36,01:23:11,NA,incomplete,false,NA,true,4,12,NA,NA,right,NA,NA,o_c_024.jpg,i_c_018.jpg,within,NA,NaN,NA,right,3216.999999999767,1,1,2851.999999999767
LdS68ePn,NA,NA,LdS68ePn,2020-0188,2021-09-27,00:03:36,01:23:11,NA,incomplete,false,NA,true,4,13,NA,NA,left,NA,NA,a_1_024.jpg,n_s_003.jpg,between-big,NA,NaN,NA,left,2300.000000000233,1,2,1355.9999999997672
LdS68ePn,NA,NA,LdS68ePn,2020-0188,2021-09-27,00:03:36,01:23:11,NA,incomplete,false,NA,true,4,14,NA,NA,right,NA,NA,a_1_017.jpg,o_c_024.jpg,between-big,NA,NaN,NA,right,2413,1,1,1920.9999999997672
LdS68ePn,NA,NA,LdS68ePn,2020-0188,2021-09-27,00:03:36,01:23:11,NA,incomplete,false,NA,true,4,15,NA,NA,right,NA,NA,n_s_013.jpg,m_s_010.jpg,within,NA,NaN,NA,right,1817.9999999997672,1,1,867.9999999997672
LdS68ePn,NA,NA,LdS68ePn,2020-0188,2021-09-27,00:03:36,01:23:11,NA,incomplete,false,NA,true,4,16,NA,NA,right,NA,NA,a_1_015.jpg,a_1_017.jpg,between-small,NA,NaN,NA,left,2381.0000000004657,0,1,1223.9999999995343
LdS68ePn,NA,NA,LdS68ePn,2020-0188,2021-09-27,00:03:36,01:23:11,NA,incomplete,false,NA,true,4,17,NA,NA,right,NA,NA,m_l_001.jpg,a_2_001.jpg,between-big,NA,NaN,NA,right,5195.999999999767,1,2,5058
LdS68ePn,NA,NA,LdS68ePn,2020-0188,2021-09-27,00:03:36,01:23:11,NA,incomplete,false,NA,true,4,18,NA,NA,left,NA,NA,o_s_018.jpg,o_s_028.jpg,between-small,NA,NaN,NA,left,2327,1,1,1289
LdS68ePn,NA,NA,LdS68ePn,2020-0188,2021-09-27,00:03:36,01:23:11,NA,incomplete,false,NA,true,4,19,NA,NA,left,NA,NA,m_l_001.jpg,m_s_005.jpg,within,NA,NaN,NA,right,7386,0,0,2037
LdS68ePn,NA,NA,LdS68ePn,2020-0188,2021-09-27,00:03:36,01:23:11,NA,incomplete,false,NA,true,4,20,NA,NA,right,NA,NA,a_2_006.jpg,i_c_027.jpg,between-big,NA,NaN,NA,right,7497,1,0,1635
LdS68ePn,NA,NA,LdS68ePn,2020-0188,2021-09-27,00:03:36,01:23:11,NA,incomplete,false,NA,true,4,21,NA,NA,right,NA,NA,c_1_001.jpg,c_1_024.jpg,between-small,NA,NaN,NA,left,7211,0,1,1297.9999999995343
LdS68ePn,NA,NA,LdS68ePn,2020-0188,2021-09-27,00:03:36,01:23:11,NA,incomplete,false,NA,true,4,22,NA,NA,right,NA,NA,a_2_001.jpg,c_1_006.jpg,between-small,NA,NaN,NA,left,2881.9999999995343,0,1,1954
LdS68ePn,NA,NA,LdS68ePn,2020-0188,2021-09-27,00:03:36,01:23:11,NA,incomplete,false,NA,true,4,23,NA,NA,right,NA,NA,o_c_011.jpg,o_c_005.jpg,within,NA,NaN,NA,left,2628,0,1,981
LdS68ePn,NA,NA,LdS68ePn,2020-0188,2021-09-27,00:03:36,01:23:11,NA,incomplete,false,NA,true,4,24,NA,NA,right,NA,NA,n_s_010.jpg,m_s_005.jpg,between-small,NA,NaN,NA,right,2175,1,2,1280
LdS68ePn,NA,NA,LdS68ePn,2020-0188,2021-09-27,00:03:36,01:23:11,NA,incomplete,false,NA,true,4,25,NA,NA,right,NA,NA,m_s_010.jpg,c_1_023.jpg,between-big,NA,NaN,NA,right,2612,1,2,1146.9999999995343
LdS68ePn,NA,NA,LdS68ePn,2020-0188,2021-09-27,00:03:36,01:23:11,NA,incomplete,false,NA,true,4,26,NA,NA,right,NA,NA,m_l_027.jpg,n_s_025.jpg,within,NA,NaN,NA,right,1600.0000000004657,1,1,1568
LdS68ePn,NA,NA,LdS68ePn,2020-0188,2021-09-27,00:03:36,01:23:11,NA,incomplete,false,true,NA,5,0,syllable,a_2_004.jpg,right,1 syllable,2 syllables,NA,NA,NA,right,2144,true,NA,NA,NA,NA,NA
LdS68ePn,NA,NA,LdS68ePn,2020-0188,2021-09-27,00:03:36,01:23:11,NA,incomplete,false,true,NA,5,1,syllable,a_2_013.jpg,right,2 syllables,1 syllable,NA,NA,NA,left,1581,false,NA,NA,NA,NA,NA
LdS68ePn,NA,NA,LdS68ePn,2020-0188,2021-09-27,00:03:36,01:23:11,NA,incomplete,false,true,NA,5,2,syllable,c_2_022.jpg,right,2 syllables,1 syllable,NA,NA,NA,left,1216,false,NA,NA,NA,NA,NA
LdS68ePn,NA,NA,LdS68ePn,2020-0188,2021-09-27,00:03:36,01:23:11,NA,incomplete,false,true,NA,5,3,syllable,a_2_011.jpg,right,1 syllable,2 syllables,NA,NA,NA,right,956,true,NA,NA,NA,NA,NA
LdS68ePn,NA,NA,LdS68ePn,2020-0188,2021-09-27,00:03:36,01:23:11,NA,incomplete,false,true,NA,5,4,syllable,c_2_021.jpg,right,2 syllables,1 syllable,NA,NA,NA,left,934,false,NA,NA,NA,NA,NA
LdS68ePn,NA,NA,LdS68ePn,2020-0188,2021-09-27,00:03:36,01:23:11,NA,incomplete,false,true,NA,5,5,abstractness,a_1_008.jpg,left,abstract,concrete,NA,NA,NA,left,2336,true,NA,NA,NA,NA,NA
LdS68ePn,NA,NA,LdS68ePn,2020-0188,2021-09-27,00:03:36,01:23:11,NA,incomplete,false,true,NA,5,6,abstractness,a_2_010.jpg,left,abstract,concrete,NA,NA,NA,left,2747,true,NA,NA,NA,NA,NA
LdS68ePn,NA,NA,LdS68ePn,2020-0188,2021-09-27,00:03:36,01:23:11,NA,incomplete,false,true,NA,5,7,abstractness,a_1_005.jpg,right,concrete,abstract,NA,NA,NA,right,1041.00000000047,true,NA,NA,NA,NA,NA
LdS68ePn,NA,NA,LdS68ePn,2020-0188,2021-09-27,00:03:36,01:23:11,NA,incomplete,false,true,NA,5,8,abstractness,c_2_025.jpg,left,concrete,abstract,NA,NA,NA,left,1435.00000000047,true,NA,NA,NA,NA,NA
LdS68ePn,NA,NA,LdS68ePn,2020-0188,2021-09-27,00:03:36,01:23:11,NA,incomplete,false,true,NA,5,9,abstractness,a_1_022.jpg,left,abstract,concrete,NA,NA,NA,left,1099,true,NA,NA,NA,NA,NA
LdS68ePn,NA,NA,LdS68ePn,2020-0188,2021-09-27,00:03:36,01:23:11,NA,incomplete,false,true,NA,5,10,building,o_c_007.jpg,right,skyscraper,cottage,NA,NA,NA,right,1118,true,NA,NA,NA,NA,NA
LdS68ePn,NA,NA,LdS68ePn,2020-0188,2021-09-27,00:03:36,01:23:11,NA,incomplete,false,true,NA,5,11,building,o_s_005.jpg,left,skyscraper,cottage,NA,NA,NA,left,922.000000000466,true,NA,NA,NA,NA,NA
LdS68ePn,NA,NA,LdS68ePn,2020-0188,2021-09-27,00:03:36,01:23:11,NA,incomplete,false,true,NA,5,12,building,o_c_008.jpg,right,skyscraper,cottage,NA,NA,NA,right,910,true,NA,NA,NA,NA,NA
LdS68ePn,NA,NA,LdS68ePn,2020-0188,2021-09-27,00:03:36,01:23:11,NA,incomplete,false,true,NA,5,13,building,i_c_021.jpg,right,skyscraper,cottage,NA,NA,NA,right,1030,true,NA,NA,NA,NA,NA
LdS68ePn,NA,NA,LdS68ePn,2020-0188,2021-09-27,00:03:36,01:23:11,NA,incomplete,false,true,NA,5,14,building,o_s_010.jpg,right,cottage,skyscraper,NA,NA,NA,right,973,true,NA,NA,NA,NA,NA
LdS68ePn,NA,NA,LdS68ePn,2020-0188,2021-09-27,00:03:36,01:23:11,NA,incomplete,false,true,NA,5,15,location,o_s_027.jpg,left,outdoor,indoor,NA,NA,NA,left,1337,true,NA,NA,NA,NA,NA
LdS68ePn,NA,NA,LdS68ePn,2020-0188,2021-09-27,00:03:36,01:23:11,NA,incomplete,false,true,NA,5,16,location,o_s_020.jpg,right,indoor,outdoor,NA,NA,NA,right,1406,true,NA,NA,NA,NA,NA
LdS68ePn,NA,NA,LdS68ePn,2020-0188,2021-09-27,00:03:36,01:23:11,NA,incomplete,false,true,NA,5,17,location,o_c_015.jpg,left,outdoor,indoor,NA,NA,NA,none,0,false,NA,NA,NA,NA,NA
LdS68ePn,NA,NA,LdS68ePn,2020-0188,2021-09-27,00:03:36,01:23:11,NA,incomplete,false,true,NA,5,18,location,o_c_028.jpg,right,indoor,outdoor,NA,NA,NA,right,1172,true,NA,NA,NA,NA,NA
LdS68ePn,NA,NA,LdS68ePn,2020-0188,2021-09-27,00:03:36,01:23:11,NA,incomplete,false,true,NA,5,19,location,i_c_004.jpg,right,outdoor,indoor,NA,NA,NA,right,1063,true,NA,NA,NA,NA,NA
LdS68ePn,NA,NA,LdS68ePn,2020-0188,2021-09-27,00:03:36,01:23:11,NA,incomplete,false,true,NA,5,20,origin,m_s_019.jpg,left,manmade,natural,NA,NA,NA,left,1196,true,NA,NA,NA,NA,NA
LdS68ePn,NA,NA,LdS68ePn,2020-0188,2021-09-27,00:03:36,01:23:11,NA,incomplete,false,true,NA,5,21,origin,n_s_028.jpg,left,natural,manmade,NA,NA,NA,left,1085,true,NA,NA,NA,NA,NA
LdS68ePn,NA,NA,LdS68ePn,2020-0188,2021-09-27,00:03:36,01:23:11,NA,incomplete,false,true,NA,5,22,origin,m_s_013.jpg,right,natural,manmade,NA,NA,NA,right,1362,true,NA,NA,NA,NA,NA
LdS68ePn,NA,NA,LdS68ePn,2020-0188,2021-09-27,00:03:36,01:23:11,NA,incomplete,false,true,NA,5,23,origin,m_s_012.jpg,left,manmade,natural,NA,NA,NA,left,769,true,NA,NA,NA,NA,NA
LdS68ePn,NA,NA,LdS68ePn,2020-0188,2021-09-27,00:03:36,01:23:11,NA,incomplete,false,true,NA,5,24,origin,m_l_025.jpg,left,manmade,natural,NA,NA,NA,left,2805,true,NA,NA,NA,NA,NA
LdS68ePn,NA,NA,LdS68ePn,2020-0188,2021-09-27,00:03:36,01:23:11,NA,incomplete,false,true,NA,5,25,size,m_l_002.jpg,right,small,large,NA,NA,NA,right,1551,true,NA,NA,NA,NA,NA
LdS68ePn,NA,NA,LdS68ePn,2020-0188,2021-09-27,00:03:36,01:23:11,NA,incomplete,false,true,NA,5,26,size,n_s_017.jpg,right,large,small,NA,NA,NA,left,759,false,NA,NA,NA,NA,NA
LdS68ePn,NA,NA,LdS68ePn,2020-0188,2021-09-27,00:03:36,01:23:11,NA,incomplete,false,true,NA,5,27,size,n_s_021.jpg,left,small,large,NA,NA,NA,left,792,true,NA,NA,NA,NA,NA
LdS68ePn,NA,NA,LdS68ePn,2020-0188,2021-09-27,00:03:36,01:23:11,NA,incomplete,false,true,NA,5,28,size,n_l_013.jpg,left,large,small,NA,NA,NA,left,917.999999999534,true,NA,NA,NA,NA,NA
LdS68ePn,NA,NA,LdS68ePn,2020-0188,2021-09-27,00:03:36,01:23:11,NA,incomplete,false,true,NA,5,29,size,n_l_017.jpg,left,large,small,NA,NA,NA,left,980,true,NA,NA,NA,NA,NA
LdS68ePn,NA,NA,LdS68ePn,2020-0188,2021-09-27,00:03:36,01:23:11,NA,incomplete,false,NA,true,5,0,NA,NA,right,NA,NA,a_1_008.jpg,c_2_022.jpg,between-small,NA,NaN,NA,left,3446.0000000004657,0,2,970
LdS68ePn,NA,NA,LdS68ePn,2020-0188,2021-09-27,00:03:36,01:23:11,NA,incomplete,false,NA,true,5,1,NA,NA,right,NA,NA,o_s_027.jpg,o_c_008.jpg,between-small,NA,NaN,NA,left,4006,0,0,828.9999999995343
LdS68ePn,NA,NA,LdS68ePn,2020-0188,2021-09-27,00:03:36,01:23:11,NA,incomplete,false,NA,true,5,2,NA,NA,left,NA,NA,o_c_028.jpg,n_s_028.jpg,between-big,NA,NaN,NA,left,2349,1,2,972.9999999995343
LdS68ePn,NA,NA,LdS68ePn,2020-0188,2021-09-27,00:03:36,01:23:11,NA,incomplete,false,NA,true,5,3,NA,NA,left,NA,NA,o_s_005.jpg,o_s_010.jpg,within,NA,NaN,NA,left,2192,1,1,915
LdS68ePn,NA,NA,LdS68ePn,2020-0188,2021-09-27,00:03:36,01:23:11,NA,incomplete,false,NA,true,5,4,NA,NA,right,NA,NA,o_c_008.jpg,a_1_022.jpg,between-big,NA,NaN,NA,right,1610,1,2,1935
LdS68ePn,NA,NA,LdS68ePn,2020-0188,2021-09-27,00:03:36,01:23:11,NA,incomplete,false,NA,true,5,5,NA,NA,right,NA,NA,o_c_007.jpg,a_1_005.jpg,between-big,NA,NaN,NA,right,3376,1,2,1047
LdS68ePn,NA,NA,LdS68ePn,2020-0188,2021-09-27,00:03:36,01:23:11,NA,incomplete,false,NA,true,5,6,NA,NA,left,NA,NA,i_c_021.jpg,o_s_020.jpg,between-small,NA,NaN,NA,right,4731,0,1,1591.9999999995343
LdS68ePn,NA,NA,LdS68ePn,2020-0188,2021-09-27,00:03:36,01:23:11,NA,incomplete,false,NA,true,5,7,NA,NA,left,NA,NA,m_l_002.jpg,n_l_013.jpg,within,NA,NaN,NA,left,3814,1,1,1457
LdS68ePn,NA,NA,LdS68ePn,2020-0188,2021-09-27,00:03:36,01:23:11,NA,incomplete,false,NA,true,5,8,NA,NA,right,NA,NA,n_l_017.jpg,n_s_017.jpg,within,NA,NaN,NA,right,1226,1,1,964
LdS68ePn,NA,NA,LdS68ePn,2020-0188,2021-09-27,00:03:36,01:23:11,NA,incomplete,false,NA,true,5,9,NA,NA,left,NA,NA,a_2_013.jpg,c_2_021.jpg,within,NA,NaN,NA,left,2590.0000000004657,1,0,1759
LdS68ePn,NA,NA,LdS68ePn,2020-0188,2021-09-27,00:03:36,01:23:11,NA,incomplete,false,NA,true,5,10,NA,NA,left,NA,NA,a_2_010.jpg,a_1_022.jpg,within,NA,NaN,NA,left,1774,1,1,1465
LdS68ePn,NA,NA,LdS68ePn,2020-0188,2021-09-27,00:03:36,01:23:11,NA,incomplete,false,NA,true,5,11,NA,NA,left,NA,NA,a_2_011.jpg,a_2_010.jpg,between-small,NA,NaN,NA,right,1918,0,1,1735.0000000004657
LdS68ePn,NA,NA,LdS68ePn,2020-0188,2021-09-27,00:03:36,01:23:11,NA,incomplete,false,NA,true,5,12,NA,NA,left,NA,NA,m_s_012.jpg,n_s_017.jpg,between-small,NA,NaN,NA,left,2430,1,1,993.9999999995343
LdS68ePn,NA,NA,LdS68ePn,2020-0188,2021-09-27,00:03:36,01:23:11,NA,incomplete,false,NA,true,5,13,NA,NA,right,NA,NA,i_c_004.jpg,o_s_020.jpg,within,NA,NaN,NA,right,3313.0000000004657,1,1,1490
LdS68ePn,NA,NA,LdS68ePn,2020-0188,2021-09-27,00:03:36,01:23:11,NA,incomplete,false,NA,true,5,14,NA,NA,left,NA,NA,a_2_004.jpg,a_2_011.jpg,within,NA,NaN,NA,right,4094.0000000004657,0,0,866
LdS68ePn,NA,NA,LdS68ePn,2020-0188,2021-09-27,00:03:36,01:23:11,NA,incomplete,false,NA,true,5,15,NA,NA,left,NA,NA,m_s_013.jpg,m_l_002.jpg,between-small,NA,NaN,NA,left,5233,1,1,2035.9999999995343
LdS68ePn,NA,NA,LdS68ePn,2020-0188,2021-09-27,00:03:36,01:23:11,NA,incomplete,false,NA,true,5,16,NA,NA,left,NA,NA,i_c_004.jpg,m_s_013.jpg,between-big,NA,NaN,NA,left,1487.0000000004657,1,1,1465
LdS68ePn,NA,NA,LdS68ePn,2020-0188,2021-09-27,00:03:36,01:23:11,NA,incomplete,false,NA,true,5,17,NA,NA,left,NA,NA,n_s_028.jpg,m_l_025.jpg,within,NA,NaN,NA,left,4087,1,1,986.9999999995343
LdS68ePn,NA,NA,LdS68ePn,2020-0188,2021-09-27,00:03:36,01:23:11,NA,incomplete,false,NA,true,5,18,NA,NA,right,NA,NA,i_c_021.jpg,o_c_007.jpg,within,NA,NaN,NA,right,2364,1,1,798
LdS68ePn,NA,NA,LdS68ePn,2020-0188,2021-09-27,00:03:36,01:23:11,NA,incomplete,false,NA,true,5,19,NA,NA,right,NA,NA,o_c_028.jpg,o_s_027.jpg,within,NA,NaN,NA,right,11484,1,2,1211
LdS68ePn,NA,NA,LdS68ePn,2020-0188,2021-09-27,00:03:36,01:23:11,NA,incomplete,false,NA,true,5,20,NA,NA,right,NA,NA,m_s_012.jpg,m_s_019.jpg,within,NA,NaN,NA,right,2533.9999999995343,1,1,1105
LdS68ePn,NA,NA,LdS68ePn,2020-0188,2021-09-27,00:03:36,01:23:11,NA,incomplete,false,NA,true,5,21,NA,NA,right,NA,NA,o_s_005.jpg,c_2_025.jpg,between-big,NA,NaN,NA,right,1300,1,1,1337.9999999995343
LdS68ePn,NA,NA,LdS68ePn,2020-0188,2021-09-27,00:03:36,01:23:11,NA,incomplete,false,NA,true,5,22,NA,NA,left,NA,NA,c_2_021.jpg,a_1_005.jpg,between-small,NA,NaN,NA,right,1834,0,1,1873
LdS68ePn,NA,NA,LdS68ePn,2020-0188,2021-09-27,00:03:36,01:23:11,NA,incomplete,false,NA,true,5,23,NA,NA,right,NA,NA,c_2_025.jpg,a_1_008.jpg,within,NA,NaN,NA,right,1631,1,1,1491
LdS68ePn,NA,NA,LdS68ePn,2020-0188,2021-09-27,00:03:36,01:23:11,NA,incomplete,false,NA,true,5,24,NA,NA,left,NA,NA,m_l_025.jpg,n_s_021.jpg,between-small,NA,NaN,NA,left,5684,1,1,1235
LdS68ePn,NA,NA,LdS68ePn,2020-0188,2021-09-27,00:03:36,01:23:11,NA,incomplete,false,NA,true,5,25,NA,NA,right,NA,NA,o_c_015.jpg,o_s_010.jpg,between-small,NA,NaN,NA,right,3776,1,1,1649.0000000004657
LdS68ePn,NA,NA,LdS68ePn,2020-0188,2021-09-27,00:03:36,01:23:11,NA,incomplete,false,NA,true,5,26,NA,NA,left,NA,NA,o_c_015.jpg,m_s_019.jpg,between-big,NA,NaN,NA,left,1237,1,2,885
LdS68ePn,NA,NA,LdS68ePn,2020-0188,2021-09-27,00:03:36,01:23:11,NA,incomplete,false,true,NA,6,0,origin,n_l_021.jpg,right,manmade,natural,NA,NA,NA,right,1685,true,NA,NA,NA,NA,NA
LdS68ePn,NA,NA,LdS68ePn,2020-0188,2021-09-27,00:03:36,01:23:11,NA,incomplete,false,true,NA,6,1,origin,n_l_022.jpg,left,natural,manmade,NA,NA,NA,left,1128,true,NA,NA,NA,NA,NA
LdS68ePn,NA,NA,LdS68ePn,2020-0188,2021-09-27,00:03:36,01:23:11,NA,incomplete,false,true,NA,6,2,origin,m_s_021.jpg,left,manmade,natural,NA,NA,NA,right,1226,false,NA,NA,NA,NA,NA
LdS68ePn,NA,NA,LdS68ePn,2020-0188,2021-09-27,00:03:36,01:23:11,NA,incomplete,false,true,NA,6,3,origin,m_s_002.jpg,right,natural,manmade,NA,NA,NA,right,1186,true,NA,NA,NA,NA,NA
LdS68ePn,NA,NA,LdS68ePn,2020-0188,2021-09-27,00:03:36,01:23:11,NA,incomplete,false,true,NA,6,4,origin,m_s_004.jpg,left,manmade,natural,NA,NA,NA,left,857,true,NA,NA,NA,NA,NA
LdS68ePn,NA,NA,LdS68ePn,2020-0188,2021-09-27,00:03:36,01:23:11,NA,incomplete,false,true,NA,6,5,size,n_s_002.jpg,left,small,large,NA,NA,NA,left,1803,true,NA,NA,NA,NA,NA
LdS68ePn,NA,NA,LdS68ePn,2020-0188,2021-09-27,00:03:36,01:23:11,NA,incomplete,false,true,NA,6,6,size,m_s_020.jpg,right,large,small,NA,NA,NA,right,1255,true,NA,NA,NA,NA,NA
LdS68ePn,NA,NA,LdS68ePn,2020-0188,2021-09-27,00:03:36,01:23:11,NA,incomplete,false,true,NA,6,7,size,m_l_004.jpg,left,large,small,NA,NA,NA,left,1176,true,NA,NA,NA,NA,NA
LdS68ePn,NA,NA,LdS68ePn,2020-0188,2021-09-27,00:03:36,01:23:11,NA,incomplete,false,true,NA,6,8,size,n_l_008.jpg,left,large,small,NA,NA,NA,left,870,true,NA,NA,NA,NA,NA
LdS68ePn,NA,NA,LdS68ePn,2020-0188,2021-09-27,00:03:36,01:23:11,NA,incomplete,false,true,NA,6,9,size,m_l_021.jpg,right,small,large,NA,NA,NA,right,2073,true,NA,NA,NA,NA,NA
LdS68ePn,NA,NA,LdS68ePn,2020-0188,2021-09-27,00:03:36,01:23:11,NA,incomplete,false,true,NA,6,10,syllable,a_1_025.jpg,right,1 syllable,2 syllables,NA,NA,NA,left,1147,false,NA,NA,NA,NA,NA
LdS68ePn,NA,NA,LdS68ePn,2020-0188,2021-09-27,00:03:36,01:23:11,NA,incomplete,false,true,NA,6,11,syllable,a_1_016.jpg,right,1 syllable,2 syllables,NA,NA,NA,left,801,false,NA,NA,NA,NA,NA
LdS68ePn,NA,NA,LdS68ePn,2020-0188,2021-09-27,00:03:36,01:23:11,NA,incomplete,false,true,NA,6,12,syllable,c_2_020.jpg,right,1 syllable,2 syllables,NA,NA,NA,right,1273,true,NA,NA,NA,NA,NA
LdS68ePn,NA,NA,LdS68ePn,2020-0188,2021-09-27,00:03:36,01:23:11,NA,incomplete,false,true,NA,6,13,syllable,a_2_022.jpg,right,2 syllables,1 syllable,NA,NA,NA,left,1244,false,NA,NA,NA,NA,NA
LdS68ePn,NA,NA,LdS68ePn,2020-0188,2021-09-27,00:03:36,01:23:11,NA,incomplete,false,true,NA,6,14,syllable,a_1_014.jpg,right,2 syllables,1 syllable,NA,NA,NA,right,922,true,NA,NA,NA,NA,NA
LdS68ePn,NA,NA,LdS68ePn,2020-0188,2021-09-27,00:03:36,01:23:11,NA,incomplete,false,true,NA,6,15,abstractness,c_2_026.jpg,left,concrete,abstract,NA,NA,NA,left,2176,true,NA,NA,NA,NA,NA
LdS68ePn,NA,NA,LdS68ePn,2020-0188,2021-09-27,00:03:36,01:23:11,NA,incomplete,false,true,NA,6,16,abstractness,a_1_019.jpg,right,concrete,abstract,NA,NA,NA,right,2614.99999999953,true,NA,NA,NA,NA,NA
LdS68ePn,NA,NA,LdS68ePn,2020-0188,2021-09-27,00:03:36,01:23:11,NA,incomplete,false,true,NA,6,17,abstractness,a_2_019.jpg,left,abstract,concrete,NA,NA,NA,left,2331,true,NA,NA,NA,NA,NA
LdS68ePn,NA,NA,LdS68ePn,2020-0188,2021-09-27,00:03:36,01:23:11,NA,incomplete,false,true,NA,6,18,abstractness,c_1_025.jpg,right,abstract,concrete,NA,NA,NA,right,1172,true,NA,NA,NA,NA,NA
LdS68ePn,NA,NA,LdS68ePn,2020-0188,2021-09-27,00:03:36,01:23:11,NA,incomplete,false,true,NA,6,19,abstractness,a_2_021.jpg,right,concrete,abstract,NA,NA,NA,right,1925.00000000047,true,NA,NA,NA,NA,NA
LdS68ePn,NA,NA,LdS68ePn,2020-0188,2021-09-27,00:03:36,01:23:11,NA,incomplete,false,true,NA,6,20,building,i_c_006.jpg,right,skyscraper,cottage,NA,NA,NA,right,1895.99999999953,true,NA,NA,NA,NA,NA
LdS68ePn,NA,NA,LdS68ePn,2020-0188,2021-09-27,00:03:36,01:23:11,NA,incomplete,false,true,NA,6,21,building,i_s_022.jpg,left,skyscraper,cottage,NA,NA,NA,none,0,false,NA,NA,NA,NA,NA
LdS68ePn,NA,NA,LdS68ePn,2020-0188,2021-09-27,00:03:36,01:23:11,NA,incomplete,false,true,NA,6,22,building,o_s_023.jpg,right,cottage,skyscraper,NA,NA,NA,right,1056,true,NA,NA,NA,NA,NA
LdS68ePn,NA,NA,LdS68ePn,2020-0188,2021-09-27,00:03:36,01:23:11,NA,incomplete,false,true,NA,6,23,building,o_s_017.jpg,left,skyscraper,cottage,NA,NA,NA,left,1026.00000000047,true,NA,NA,NA,NA,NA
LdS68ePn,NA,NA,LdS68ePn,2020-0188,2021-09-27,00:03:36,01:23:11,NA,incomplete,false,true,NA,6,24,building,i_c_023.jpg,right,skyscraper,cottage,NA,NA,NA,right,1387,true,NA,NA,NA,NA,NA
LdS68ePn,NA,NA,LdS68ePn,2020-0188,2021-09-27,00:03:36,01:23:11,NA,incomplete,false,true,NA,6,25,location,o_s_008.jpg,right,indoor,outdoor,NA,NA,NA,left,2083,false,NA,NA,NA,NA,NA
LdS68ePn,NA,NA,LdS68ePn,2020-0188,2021-09-27,00:03:36,01:23:11,NA,incomplete,false,true,NA,6,26,location,o_s_012.jpg,left,outdoor,indoor,NA,NA,NA,left,1090,true,NA,NA,NA,NA,NA
LdS68ePn,NA,NA,LdS68ePn,2020-0188,2021-09-27,00:03:36,01:23:11,NA,incomplete,false,true,NA,6,27,location,o_c_026.jpg,left,outdoor,indoor,NA,NA,NA,left,1757,true,NA,NA,NA,NA,NA
LdS68ePn,NA,NA,LdS68ePn,2020-0188,2021-09-27,00:03:36,01:23:11,NA,incomplete,false,true,NA,6,28,location,o_c_013.jpg,left,outdoor,indoor,NA,NA,NA,left,1579,true,NA,NA,NA,NA,NA
LdS68ePn,NA,NA,LdS68ePn,2020-0188,2021-09-27,00:03:36,01:23:11,NA,incomplete,false,true,NA,6,29,location,o_s_025.jpg,left,outdoor,indoor,NA,NA,NA,left,1367.00000000047,true,NA,NA,NA,NA,NA
LdS68ePn,NA,NA,LdS68ePn,2020-0188,2021-09-27,00:03:36,01:23:11,NA,incomplete,false,NA,true,6,0,NA,NA,right,NA,NA,m_l_004.jpg,m_s_004.jpg,between-small,NA,NaN,NA,right,2633.0000000004657,1,1,980.9999999995343
LdS68ePn,NA,NA,LdS68ePn,2020-0188,2021-09-27,00:03:36,01:23:11,NA,incomplete,false,NA,true,6,1,NA,NA,right,NA,NA,m_l_021.jpg,m_s_020.jpg,within,NA,NaN,NA,right,2787,1,1,885
LdS68ePn,NA,NA,LdS68ePn,2020-0188,2021-09-27,00:03:36,01:23:11,NA,incomplete,false,NA,true,6,2,NA,NA,right,NA,NA,o_c_013.jpg,o_s_008.jpg,within,NA,NaN,NA,right,3752.9999999995343,1,0,1101.0000000004657
LdS68ePn,NA,NA,LdS68ePn,2020-0188,2021-09-27,00:03:36,01:23:11,NA,incomplete,false,NA,true,6,3,NA,NA,left,NA,NA,n_l_022.jpg,m_s_004.jpg,within,NA,NaN,NA,left,1833,1,1,1312
LdS68ePn,NA,NA,LdS68ePn,2020-0188,2021-09-27,00:03:36,01:23:11,NA,incomplete,false,NA,true,6,4,NA,NA,right,NA,NA,i_s_022.jpg,c_1_025.jpg,between-big,NA,NaN,NA,right,1992,1,2,3151
LdS68ePn,NA,NA,LdS68ePn,2020-0188,2021-09-27,00:03:36,01:23:11,NA,incomplete,false,NA,true,6,5,NA,NA,right,NA,NA,o_s_023.jpg,a_2_021.jpg,between-big,NA,NaN,NA,right,1369,1,2,1905
LdS68ePn,NA,NA,LdS68ePn,2020-0188,2021-09-27,00:03:36,01:23:11,NA,incomplete,false,NA,true,6,6,NA,NA,right,NA,NA,n_s_002.jpg,m_s_021.jpg,between-small,NA,NaN,NA,right,2435,1,1,1839
LdS68ePn,NA,NA,LdS68ePn,2020-0188,2021-09-27,00:03:36,01:23:11,NA,incomplete,false,NA,true,6,7,NA,NA,left,NA,NA,m_l_021.jpg,c_2_020.jpg,between-big,NA,NaN,NA,left,3266,1,1,1594
LdS68ePn,NA,NA,LdS68ePn,2020-0188,2021-09-27,00:03:36,01:23:11,NA,incomplete,false,NA,true,6,8,NA,NA,left,NA,NA,a_2_022.jpg,a_1_019.jpg,between-small,NA,NaN,NA,left,5643,1,1,1999
LdS68ePn,NA,NA,LdS68ePn,2020-0188,2021-09-27,00:03:36,01:23:11,NA,incomplete,false,NA,true,6,9,NA,NA,right,NA,NA,a_1_025.jpg,m_l_004.jpg,between-big,NA,NaN,NA,right,9528,1,1,1865
LdS68ePn,NA,NA,LdS68ePn,2020-0188,2021-09-27,00:03:36,01:23:11,NA,incomplete,false,NA,true,6,10,NA,NA,left,NA,NA,c_2_020.jpg,c_2_026.jpg,between-small,NA,NaN,NA,left,8292,1,1,1424
LdS68ePn,NA,NA,LdS68ePn,2020-0188,2021-09-27,00:03:36,01:23:11,NA,incomplete,false,NA,true,6,11,NA,NA,right,NA,NA,o_s_025.jpg,o_s_012.jpg,within,NA,NaN,NA,right,3983,1,1,1018
LdS68ePn,NA,NA,LdS68ePn,2020-0188,2021-09-27,00:03:36,01:23:11,NA,incomplete,false,NA,true,6,12,NA,NA,left,NA,NA,a_1_025.jpg,a_2_022.jpg,within,NA,NaN,NA,left,1442,1,1,1099.0000000004657
LdS68ePn,NA,NA,LdS68ePn,2020-0188,2021-09-27,00:03:36,01:23:11,NA,incomplete,false,NA,true,6,13,NA,NA,right,NA,NA,i_c_006.jpg,a_2_019.jpg,between-big,NA,NaN,NA,right,2613.9999999995343,1,2,860.9999999995343
LdS68ePn,NA,NA,LdS68ePn,2020-0188,2021-09-27,00:03:36,01:23:11,NA,incomplete,false,NA,true,6,14,NA,NA,right,NA,NA,n_l_008.jpg,n_s_002.jpg,within,NA,NaN,NA,right,1647,1,0,1553
LdS68ePn,NA,NA,LdS68ePn,2020-0188,2021-09-27,00:03:36,01:23:11,NA,incomplete,false,NA,true,6,15,NA,NA,left,NA,NA,o_s_017.jpg,o_s_012.jpg,between-small,NA,NaN,NA,left,1628,1,1,1812.0000000004657
LdS68ePn,NA,NA,LdS68ePn,2020-0188,2021-09-27,00:03:36,01:23:11,NA,incomplete,false,NA,true,6,16,NA,NA,right,NA,NA,m_s_002.jpg,n_l_021.jpg,within,NA,NaN,NA,right,1862,1,1,1060
LdS68ePn,NA,NA,LdS68ePn,2020-0188,2021-09-27,00:03:36,01:23:11,NA,incomplete,false,NA,true,6,17,NA,NA,right,NA,NA,m_s_020.jpg,m_s_002.jpg,between-small,NA,NaN,NA,right,2891,1,1,1865
LdS68ePn,NA,NA,LdS68ePn,2020-0188,2021-09-27,00:03:36,01:23:11,NA,incomplete,false,NA,true,6,18,NA,NA,left,NA,NA,i_s_022.jpg,i_c_023.jpg,within,NA,NaN,NA,left,2193,1,1,1553
LdS68ePn,NA,NA,LdS68ePn,2020-0188,2021-09-27,00:03:36,01:23:11,NA,incomplete,false,NA,true,6,19,NA,NA,right,NA,NA,a_2_021.jpg,a_1_019.jpg,within,NA,NaN,NA,right,4209,1,0,1162
LdS68ePn,NA,NA,LdS68ePn,2020-0188,2021-09-27,00:03:36,01:23:11,NA,incomplete,false,NA,true,6,20,NA,NA,right,NA,NA,a_2_019.jpg,a_1_014.jpg,between-small,NA,NaN,NA,left,3513,0,1,1194
LdS68ePn,NA,NA,LdS68ePn,2020-0188,2021-09-27,00:03:36,01:23:11,NA,incomplete,false,NA,true,6,21,NA,NA,left,NA,NA,o_s_023.jpg,o_s_008.jpg,between-small,NA,NaN,NA,left,3131.0000000004657,1,1,1014
LdS68ePn,NA,NA,LdS68ePn,2020-0188,2021-09-27,00:03:36,01:23:11,NA,incomplete,false,NA,true,6,22,NA,NA,left,NA,NA,c_2_026.jpg,c_1_025.jpg,within,NA,NaN,NA,right,5498.999999999534,0,1,955
LdS68ePn,NA,NA,LdS68ePn,2020-0188,2021-09-27,00:03:36,01:23:11,NA,incomplete,false,NA,true,6,23,NA,NA,right,NA,NA,o_s_017.jpg,i_c_006.jpg,within,NA,NaN,NA,left,1762.0000000004657,0,1,1145
LdS68ePn,NA,NA,LdS68ePn,2020-0188,2021-09-27,00:03:36,01:23:11,NA,incomplete,false,NA,true,6,24,NA,NA,left,NA,NA,n_l_008.jpg,a_1_016.jpg,between-big,NA,NaN,NA,left,4365.000000000466,1,2,1015.0000000004657
LdS68ePn,NA,NA,LdS68ePn,2020-0188,2021-09-27,00:03:36,01:23:11,NA,incomplete,false,NA,true,6,25,NA,NA,right,NA,NA,o_c_026.jpg,i_c_023.jpg,between-small,NA,NaN,NA,left,1888,0,1,1002
LdS68ePn,NA,NA,LdS68ePn,2020-0188,2021-09-27,00:03:36,01:23:11,NA,incomplete,false,NA,true,6,26,NA,NA,left,NA,NA,a_1_016.jpg,a_1_014.jpg,within,NA,NaN,NA,left,3785,1,1,1131
LdS68ePn,NA,NA,LdS68ePn,2020-0188,2021-09-27,00:03:36,01:23:11,NA,incomplete,false,true,NA,7,0,building,i_s_008.jpg,left,skyscraper,cottage,NA,NA,NA,left,1975,true,NA,NA,NA,NA,NA
LdS68ePn,NA,NA,LdS68ePn,2020-0188,2021-09-27,00:03:36,01:23:11,NA,incomplete,false,true,NA,7,1,building,i_c_008.jpg,right,skyscraper,cottage,NA,NA,NA,right,899,true,NA,NA,NA,NA,NA
LdS68ePn,NA,NA,LdS68ePn,2020-0188,2021-09-27,00:03:36,01:23:11,NA,incomplete,false,true,NA,7,2,building,i_c_019.jpg,left,cottage,skyscraper,NA,NA,NA,left,698,true,NA,NA,NA,NA,NA
LdS68ePn,NA,NA,LdS68ePn,2020-0188,2021-09-27,00:03:36,01:23:11,NA,incomplete,false,true,NA,7,3,building,o_c_018.jpg,left,cottage,skyscraper,NA,NA,NA,left,1063,true,NA,NA,NA,NA,NA
LdS68ePn,NA,NA,LdS68ePn,2020-0188,2021-09-27,00:03:36,01:23:11,NA,incomplete,false,true,NA,7,4,building,o_c_027.jpg,right,skyscraper,cottage,NA,NA,NA,right,1668,true,NA,NA,NA,NA,NA
LdS68ePn,NA,NA,LdS68ePn,2020-0188,2021-09-27,00:03:36,01:23:11,NA,incomplete,false,true,NA,7,5,location,i_s_018.jpg,left,indoor,outdoor,NA,NA,NA,left,2275.99999999953,true,NA,NA,NA,NA,NA
LdS68ePn,NA,NA,LdS68ePn,2020-0188,2021-09-27,00:03:36,01:23:11,NA,incomplete,false,true,NA,7,6,location,o_c_009.jpg,right,indoor,outdoor,NA,NA,NA,right,1245,true,NA,NA,NA,NA,NA
LdS68ePn,NA,NA,LdS68ePn,2020-0188,2021-09-27,00:03:36,01:23:11,NA,incomplete,false,true,NA,7,7,location,i_s_013.jpg,left,indoor,outdoor,NA,NA,NA,left,976.000000000466,true,NA,NA,NA,NA,NA
LdS68ePn,NA,NA,LdS68ePn,2020-0188,2021-09-27,00:03:36,01:23:11,NA,incomplete,false,true,NA,7,8,location,o_c_016.jpg,right,indoor,outdoor,NA,NA,NA,right,1859,true,NA,NA,NA,NA,NA
LdS68ePn,NA,NA,LdS68ePn,2020-0188,2021-09-27,00:03:36,01:23:11,NA,incomplete,false,true,NA,7,9,location,o_s_022.jpg,right,indoor,outdoor,NA,NA,NA,right,1576.99999999953,true,NA,NA,NA,NA,NA
LdS68ePn,NA,NA,LdS68ePn,2020-0188,2021-09-27,00:03:36,01:23:11,NA,incomplete,false,true,NA,7,10,abstractness,a_2_007.jpg,left,abstract,concrete,NA,NA,NA,left,1953,true,NA,NA,NA,NA,NA
LdS68ePn,NA,NA,LdS68ePn,2020-0188,2021-09-27,00:03:36,01:23:11,NA,incomplete,false,true,NA,7,11,abstractness,a_2_005.jpg,right,concrete,abstract,NA,NA,NA,right,1687,true,NA,NA,NA,NA,NA
LdS68ePn,NA,NA,LdS68ePn,2020-0188,2021-09-27,00:03:36,01:23:11,NA,incomplete,false,true,NA,7,12,abstractness,c_2_015.jpg,right,abstract,concrete,NA,NA,NA,right,1567,true,NA,NA,NA,NA,NA
LdS68ePn,NA,NA,LdS68ePn,2020-0188,2021-09-27,00:03:36,01:23:11,NA,incomplete,false,true,NA,7,13,abstractness,c_1_016.jpg,right,abstract,concrete,NA,NA,NA,right,1245,true,NA,NA,NA,NA,NA
LdS68ePn,NA,NA,LdS68ePn,2020-0188,2021-09-27,00:03:36,01:23:11,NA,incomplete,false,true,NA,7,14,abstractness,a_2_014.jpg,left,abstract,concrete,NA,NA,NA,left,3182,true,NA,NA,NA,NA,NA
LdS68ePn,NA,NA,LdS68ePn,2020-0188,2021-09-27,00:03:36,01:23:11,NA,incomplete,false,true,NA,7,15,syllable,c_2_008.jpg,right,1 syllable,2 syllables,NA,NA,NA,right,2881,true,NA,NA,NA,NA,NA
LdS68ePn,NA,NA,LdS68ePn,2020-0188,2021-09-27,00:03:36,01:23:11,NA,incomplete,false,true,NA,7,16,syllable,a_2_024.jpg,right,2 syllables,1 syllable,NA,NA,NA,left,1729,false,NA,NA,NA,NA,NA
LdS68ePn,NA,NA,LdS68ePn,2020-0188,2021-09-27,00:03:36,01:23:11,NA,incomplete,false,true,NA,7,17,syllable,a_1_020.jpg,right,1 syllable,2 syllables,NA,NA,NA,left,1766.00000000047,false,NA,NA,NA,NA,NA
LdS68ePn,NA,NA,LdS68ePn,2020-0188,2021-09-27,00:03:36,01:23:11,NA,incomplete,false,true,NA,7,18,syllable,a_1_012.jpg,right,2 syllables,1 syllable,NA,NA,NA,right,1146.00000000047,true,NA,NA,NA,NA,NA
LdS68ePn,NA,NA,LdS68ePn,2020-0188,2021-09-27,00:03:36,01:23:11,NA,incomplete,false,true,NA,7,19,syllable,a_1_001.jpg,right,1 syllable,2 syllables,NA,NA,NA,left,870.999999999534,false,NA,NA,NA,NA,NA
LdS68ePn,NA,NA,LdS68ePn,2020-0188,2021-09-27,00:03:36,01:23:11,NA,incomplete,false,true,NA,7,20,size,m_l_012.jpg,right,small,large,NA,NA,NA,none,0,false,NA,NA,NA,NA,NA
LdS68ePn,NA,NA,LdS68ePn,2020-0188,2021-09-27,00:03:36,01:23:11,NA,incomplete,false,true,NA,7,21,size,n_l_026.jpg,right,small,large,NA,NA,NA,left,933,false,NA,NA,NA,NA,NA
LdS68ePn,NA,NA,LdS68ePn,2020-0188,2021-09-27,00:03:36,01:23:11,NA,incomplete,false,true,NA,7,22,size,m_s_017.jpg,right,large,small,NA,NA,NA,right,975,true,NA,NA,NA,NA,NA
LdS68ePn,NA,NA,LdS68ePn,2020-0188,2021-09-27,00:03:36,01:23:11,NA,incomplete,false,true,NA,7,23,size,m_l_014.jpg,left,large,small,NA,NA,NA,left,1101,true,NA,NA,NA,NA,NA
LdS68ePn,NA,NA,LdS68ePn,2020-0188,2021-09-27,00:03:36,01:23:11,NA,incomplete,false,true,NA,7,24,size,n_s_022.jpg,right,large,small,NA,NA,NA,right,1370.00000000047,true,NA,NA,NA,NA,NA
LdS68ePn,NA,NA,LdS68ePn,2020-0188,2021-09-27,00:03:36,01:23:11,NA,incomplete,false,true,NA,7,25,origin,m_s_028.jpg,right,natural,manmade,NA,NA,NA,right,1796,true,NA,NA,NA,NA,NA
LdS68ePn,NA,NA,LdS68ePn,2020-0188,2021-09-27,00:03:36,01:23:11,NA,incomplete,false,true,NA,7,26,origin,m_l_009.jpg,right,natural,manmade,NA,NA,NA,right,1430.99999999953,true,NA,NA,NA,NA,NA
LdS68ePn,NA,NA,LdS68ePn,2020-0188,2021-09-27,00:03:36,01:23:11,NA,incomplete,false,true,NA,7,27,origin,m_s_025.jpg,right,natural,manmade,NA,NA,NA,right,1262.99999999953,true,NA,NA,NA,NA,NA
LdS68ePn,NA,NA,LdS68ePn,2020-0188,2021-09-27,00:03:36,01:23:11,NA,incomplete,false,true,NA,7,28,origin,m_l_019.jpg,left,manmade,natural,NA,NA,NA,left,1263,true,NA,NA,NA,NA,NA
LdS68ePn,NA,NA,LdS68ePn,2020-0188,2021-09-27,00:03:36,01:23:11,NA,incomplete,false,true,NA,7,29,origin,n_s_005.jpg,right,manmade,natural,NA,NA,NA,right,2066,true,NA,NA,NA,NA,NA
LdS68ePn,NA,NA,LdS68ePn,2020-0188,2021-09-27,00:03:36,01:23:11,NA,incomplete,false,NA,true,7,0,NA,NA,left,NA,NA,a_1_012.jpg,n_l_026.jpg,between-big,NA,NaN,NA,left,4069,1,2,1004
LdS68ePn,NA,NA,LdS68ePn,2020-0188,2021-09-27,00:03:36,01:23:11,NA,incomplete,false,NA,true,7,1,NA,NA,right,NA,NA,c_2_015.jpg,o_s_022.jpg,between-big,NA,NaN,NA,right,2303.0000000004657,1,2,1417
LdS68ePn,NA,NA,LdS68ePn,2020-0188,2021-09-27,00:03:36,01:23:11,NA,incomplete,false,NA,true,7,2,NA,NA,right,NA,NA,a_1_012.jpg,c_2_008.jpg,within,NA,NaN,NA,left,7233.999999999534,0,1,1036
LdS68ePn,NA,NA,LdS68ePn,2020-0188,2021-09-27,00:03:36,01:23:11,NA,incomplete,false,NA,true,7,3,NA,NA,right,NA,NA,m_s_025.jpg,n_s_022.jpg,between-small,NA,NaN,NA,right,5377.000000000466,1,1,1384
LdS68ePn,NA,NA,LdS68ePn,2020-0188,2021-09-27,00:03:36,01:23:11,NA,incomplete,false,NA,true,7,4,NA,NA,right,NA,NA,o_c_016.jpg,i_s_018.jpg,within,NA,NaN,NA,right,4809,1,1,890.9999999995343
LdS68ePn,NA,NA,LdS68ePn,2020-0188,2021-09-27,00:03:36,01:23:11,NA,incomplete,false,NA,true,7,5,NA,NA,left,NA,NA,m_s_017.jpg,m_s_028.jpg,between-small,NA,NaN,NA,right,1795,0,1,1170.9999999995343
LdS68ePn,NA,NA,LdS68ePn,2020-0188,2021-09-27,00:03:36,01:23:11,NA,incomplete,false,NA,true,7,6,NA,NA,left,NA,NA,m_l_014.jpg,m_l_009.jpg,between-small,NA,NaN,NA,left,2540.9999999995343,1,1,1043
LdS68ePn,NA,NA,LdS68ePn,2020-0188,2021-09-27,00:03:36,01:23:11,NA,incomplete,false,NA,true,7,7,NA,NA,left,NA,NA,m_l_009.jpg,n_s_005.jpg,within,NA,NaN,NA,left,1494.9999999995343,1,1,1389
LdS68ePn,NA,NA,LdS68ePn,2020-0188,2021-09-27,00:03:36,01:23:11,NA,incomplete,false,NA,true,7,8,NA,NA,left,NA,NA,a_2_007.jpg,c_1_016.jpg,within,NA,NaN,NA,right,2579,0,1,1304.9999999995343
LdS68ePn,NA,NA,LdS68ePn,2020-0188,2021-09-27,00:03:36,01:23:11,NA,incomplete,false,NA,true,7,9,NA,NA,right,NA,NA,a_1_020.jpg,a_2_014.jpg,between-small,NA,NaN,NA,left,2007,0,1,1330
LdS68ePn,NA,NA,LdS68ePn,2020-0188,2021-09-27,00:03:36,01:23:11,NA,incomplete,false,NA,true,7,10,NA,NA,left,NA,NA,i_c_008.jpg,o_c_027.jpg,within,NA,NaN,NA,left,2016.0000000004657,1,1,1058.9999999995343
LdS68ePn,NA,NA,LdS68ePn,2020-0188,2021-09-27,00:03:36,01:23:11,NA,incomplete,false,NA,true,7,11,NA,NA,left,NA,NA,i_s_008.jpg,o_c_018.jpg,within,NA,NaN,NA,left,5739.999999999534,1,0,1576.9999999995343
LdS68ePn,NA,NA,LdS68ePn,2020-0188,2021-09-27,00:03:36,01:23:11,NA,incomplete,false,NA,true,7,12,NA,NA,left,NA,NA,a_2_024.jpg,a_1_001.jpg,within,NA,NaN,NA,right,3386,0,1,906.9999999995343
LdS68ePn,NA,NA,LdS68ePn,2020-0188,2021-09-27,00:03:36,01:23:11,NA,incomplete,false,NA,true,7,13,NA,NA,right,NA,NA,a_2_007.jpg,i_s_013.jpg,between-big,NA,NaN,NA,right,2468,1,1,1085.0000000004657
LdS68ePn,NA,NA,LdS68ePn,2020-0188,2021-09-27,00:03:36,01:23:11,NA,incomplete,false,NA,true,7,14,NA,NA,right,NA,NA,a_2_024.jpg,c_1_016.jpg,between-small,NA,NaN,NA,right,1967,1,1,3094
LdS68ePn,NA,NA,LdS68ePn,2020-0188,2021-09-27,00:03:36,01:23:11,NA,incomplete,false,NA,true,7,15,NA,NA,left,NA,NA,i_c_019.jpg,i_s_018.jpg,between-small,NA,NaN,NA,right,3377,0,1,1383.0000000004657
LdS68ePn,NA,NA,LdS68ePn,2020-0188,2021-09-27,00:03:36,01:23:11,NA,incomplete,false,NA,true,7,16,NA,NA,right,NA,NA,m_l_014.jpg,m_l_012.jpg,within,NA,NaN,NA,left,1665,0,1,2852
LdS68ePn,NA,NA,LdS68ePn,2020-0188,2021-09-27,00:03:36,01:23:11,NA,incomplete,false,NA,true,7,17,NA,NA,left,NA,NA,m_s_028.jpg,m_l_019.jpg,within,NA,NaN,NA,left,1361,1,1,1106
LdS68ePn,NA,NA,LdS68ePn,2020-0188,2021-09-27,00:03:36,01:23:11,NA,incomplete,false,NA,true,7,18,NA,NA,left,NA,NA,a_1_020.jpg,m_l_012.jpg,between-big,NA,NaN,NA,left,1417.0000000004657,1,2,1952
LdS68ePn,NA,NA,LdS68ePn,2020-0188,2021-09-27,00:03:36,01:23:11,NA,incomplete,false,NA,true,7,19,NA,NA,left,NA,NA,a_2_005.jpg,a_2_014.jpg,within,NA,NaN,NA,left,2308,1,1,867.9999999995343
LdS68ePn,NA,NA,LdS68ePn,2020-0188,2021-09-27,00:03:36,01:23:11,NA,incomplete,false,NA,true,7,20,NA,NA,left,NA,NA,o_c_016.jpg,a_2_005.jpg,between-big,NA,NaN,NA,left,1195,1,1,1058.9999999995343
LdS68ePn,NA,NA,LdS68ePn,2020-0188,2021-09-27,00:03:36,01:23:11,NA,incomplete,false,NA,true,7,21,NA,NA,right,NA,NA,n_s_022.jpg,n_l_026.jpg,within,NA,NaN,NA,right,1520,1,2,1403
LdS68ePn,NA,NA,LdS68ePn,2020-0188,2021-09-27,00:03:36,01:23:11,NA,incomplete,false,NA,true,7,22,NA,NA,left,NA,NA,o_c_009.jpg,o_s_022.jpg,within,NA,NaN,NA,left,7171,1,1,3744
LdS68ePn,NA,NA,LdS68ePn,2020-0188,2021-09-27,00:03:36,01:23:11,NA,incomplete,false,NA,true,7,23,NA,NA,right,NA,NA,c_2_008.jpg,c_2_015.jpg,between-small,NA,NaN,NA,right,3137,1,1,769
LdS68ePn,NA,NA,LdS68ePn,2020-0188,2021-09-27,00:03:36,01:23:11,NA,incomplete,false,NA,true,7,24,NA,NA,right,NA,NA,i_s_013.jpg,o_c_027.jpg,between-small,NA,NaN,NA,left,1735,0,1,1235
LdS68ePn,NA,NA,LdS68ePn,2020-0188,2021-09-27,00:03:36,01:23:11,NA,incomplete,false,NA,true,7,25,NA,NA,right,NA,NA,m_s_017.jpg,a_1_001.jpg,between-big,NA,NaN,NA,right,1881,1,1,2031
LdS68ePn,NA,NA,LdS68ePn,2020-0188,2021-09-27,00:03:36,01:23:11,NA,incomplete,false,NA,true,7,26,NA,NA,left,NA,NA,o_c_018.jpg,o_c_009.jpg,between-small,NA,NaN,NA,right,2157.0000000004657,0,1,1497
LdS68ePn,NA,NA,LdS68ePn,2020-0188,2021-09-27,00:03:36,01:23:11,NA,incomplete,false,true,NA,8,0,origin,n_s_024.jpg,left,natural,manmade,NA,NA,NA,left,1420.00000000047,true,NA,NA,NA,NA,NA
LdS68ePn,NA,NA,LdS68ePn,2020-0188,2021-09-27,00:03:36,01:23:11,NA,incomplete,false,true,NA,8,1,origin,n_l_023.jpg,right,manmade,natural,NA,NA,NA,right,1560,true,NA,NA,NA,NA,NA
LdS68ePn,NA,NA,LdS68ePn,2020-0188,2021-09-27,00:03:36,01:23:11,NA,incomplete,false,true,NA,8,2,origin,m_l_023.jpg,left,manmade,natural,NA,NA,NA,left,905,true,NA,NA,NA,NA,NA
LdS68ePn,NA,NA,LdS68ePn,2020-0188,2021-09-27,00:03:36,01:23:11,NA,incomplete,false,true,NA,8,3,origin,n_l_006.jpg,right,manmade,natural,NA,NA,NA,right,1181,true,NA,NA,NA,NA,NA
LdS68ePn,NA,NA,LdS68ePn,2020-0188,2021-09-27,00:03:36,01:23:11,NA,incomplete,false,true,NA,8,4,origin,n_l_014.jpg,left,natural,manmade,NA,NA,NA,left,1238.99999999953,true,NA,NA,NA,NA,NA
LdS68ePn,NA,NA,LdS68ePn,2020-0188,2021-09-27,00:03:36,01:23:11,NA,incomplete,false,true,NA,8,5,size,n_l_011.jpg,right,small,large,NA,NA,NA,right,1137.99999999953,true,NA,NA,NA,NA,NA
LdS68ePn,NA,NA,LdS68ePn,2020-0188,2021-09-27,00:03:36,01:23:11,NA,incomplete,false,true,NA,8,6,size,n_l_015.jpg,right,small,large,NA,NA,NA,right,1060,true,NA,NA,NA,NA,NA
LdS68ePn,NA,NA,LdS68ePn,2020-0188,2021-09-27,00:03:36,01:23:11,NA,incomplete,false,true,NA,8,7,size,n_l_020.jpg,right,small,large,NA,NA,NA,right,1130,true,NA,NA,NA,NA,NA
LdS68ePn,NA,NA,LdS68ePn,2020-0188,2021-09-27,00:03:36,01:23:11,NA,incomplete,false,true,NA,8,8,size,m_l_006.jpg,left,large,small,NA,NA,NA,left,1236.00000000047,true,NA,NA,NA,NA,NA
LdS68ePn,NA,NA,LdS68ePn,2020-0188,2021-09-27,00:03:36,01:23:11,NA,incomplete,false,true,NA,8,9,size,n_l_004.jpg,left,large,small,NA,NA,NA,right,2797,false,NA,NA,NA,NA,NA
LdS68ePn,NA,NA,LdS68ePn,2020-0188,2021-09-27,00:03:36,01:23:11,NA,incomplete,false,true,NA,8,10,building,i_c_001.jpg,left,cottage,skyscraper,NA,NA,NA,left,1721.99999999953,true,NA,NA,NA,NA,NA
LdS68ePn,NA,NA,LdS68ePn,2020-0188,2021-09-27,00:03:36,01:23:11,NA,incomplete,false,true,NA,8,11,building,o_c_025.jpg,right,skyscraper,cottage,NA,NA,NA,right,2741,true,NA,NA,NA,NA,NA
LdS68ePn,NA,NA,LdS68ePn,2020-0188,2021-09-27,00:03:36,01:23:11,NA,incomplete,false,true,NA,8,12,building,o_c_001.jpg,right,skyscraper,cottage,NA,NA,NA,right,1006.99999999953,true,NA,NA,NA,NA,NA
LdS68ePn,NA,NA,LdS68ePn,2020-0188,2021-09-27,00:03:36,01:23:11,NA,incomplete,false,true,NA,8,13,building,i_s_002.jpg,right,cottage,skyscraper,NA,NA,NA,right,1628.99999999953,true,NA,NA,NA,NA,NA
LdS68ePn,NA,NA,LdS68ePn,2020-0188,2021-09-27,00:03:36,01:23:11,NA,incomplete,false,true,NA,8,14,building,o_c_020.jpg,left,cottage,skyscraper,NA,NA,NA,left,1333,true,NA,NA,NA,NA,NA
LdS68ePn,NA,NA,LdS68ePn,2020-0188,2021-09-27,00:03:36,01:23:11,NA,incomplete,false,true,NA,8,15,location,o_s_014.jpg,right,indoor,outdoor,NA,NA,NA,right,1392,true,NA,NA,NA,NA,NA
LdS68ePn,NA,NA,LdS68ePn,2020-0188,2021-09-27,00:03:36,01:23:11,NA,incomplete,false,true,NA,8,16,location,i_c_005.jpg,left,indoor,outdoor,NA,NA,NA,left,3063,true,NA,NA,NA,NA,NA
LdS68ePn,NA,NA,LdS68ePn,2020-0188,2021-09-27,00:03:36,01:23:11,NA,incomplete,false,true,NA,8,17,location,i_c_015.jpg,right,outdoor,indoor,NA,NA,NA,right,1320,true,NA,NA,NA,NA,NA
LdS68ePn,NA,NA,LdS68ePn,2020-0188,2021-09-27,00:03:36,01:23:11,NA,incomplete,false,true,NA,8,18,location,i_c_020.jpg,right,outdoor,indoor,NA,NA,NA,right,2305,true,NA,NA,NA,NA,NA
LdS68ePn,NA,NA,LdS68ePn,2020-0188,2021-09-27,00:03:36,01:23:11,NA,incomplete,false,true,NA,8,19,location,i_s_021.jpg,left,indoor,outdoor,NA,NA,NA,left,3261.00000000047,true,NA,NA,NA,NA,NA
LdS68ePn,NA,NA,LdS68ePn,2020-0188,2021-09-27,00:03:36,01:23:11,NA,incomplete,false,true,NA,8,20,abstractness,a_1_013.jpg,left,abstract,concrete,NA,NA,NA,left,1685,true,NA,NA,NA,NA,NA
LdS68ePn,NA,NA,LdS68ePn,2020-0188,2021-09-27,00:03:36,01:23:11,NA,incomplete,false,true,NA,8,21,abstractness,c_1_017.jpg,left,concrete,abstract,NA,NA,NA,left,1249.00000000047,true,NA,NA,NA,NA,NA
LdS68ePn,NA,NA,LdS68ePn,2020-0188,2021-09-27,00:03:36,01:23:11,NA,incomplete,false,true,NA,8,22,abstractness,c_1_005.jpg,right,abstract,concrete,NA,NA,NA,right,1528,true,NA,NA,NA,NA,NA
LdS68ePn,NA,NA,LdS68ePn,2020-0188,2021-09-27,00:03:36,01:23:11,NA,incomplete,false,true,NA,8,23,abstractness,a_2_003.jpg,left,abstract,concrete,NA,NA,NA,left,2486,true,NA,NA,NA,NA,NA
LdS68ePn,NA,NA,LdS68ePn,2020-0188,2021-09-27,00:03:36,01:23:11,NA,incomplete,false,true,NA,8,24,abstractness,a_1_011.jpg,right,concrete,abstract,NA,NA,NA,right,2325,true,NA,NA,NA,NA,NA
LdS68ePn,NA,NA,LdS68ePn,2020-0188,2021-09-27,00:03:36,01:23:11,NA,incomplete,false,true,NA,8,25,syllable,c_2_011.jpg,right,2 syllables,1 syllable,NA,NA,NA,left,1701,false,NA,NA,NA,NA,NA
LdS68ePn,NA,NA,LdS68ePn,2020-0188,2021-09-27,00:03:36,01:23:11,NA,incomplete,false,true,NA,8,26,syllable,a_2_018.jpg,right,1 syllable,2 syllables,NA,NA,NA,left,1033,false,NA,NA,NA,NA,NA
LdS68ePn,NA,NA,LdS68ePn,2020-0188,2021-09-27,00:03:36,01:23:11,NA,incomplete,false,true,NA,8,27,syllable,c_2_024.jpg,right,1 syllable,2 syllables,NA,NA,NA,right,1568.99999999953,true,NA,NA,NA,NA,NA
LdS68ePn,NA,NA,LdS68ePn,2020-0188,2021-09-27,00:03:36,01:23:11,NA,incomplete,false,true,NA,8,28,syllable,a_1_023.jpg,right,1 syllable,2 syllables,NA,NA,NA,left,893.999999999534,false,NA,NA,NA,NA,NA
LdS68ePn,NA,NA,LdS68ePn,2020-0188,2021-09-27,00:03:36,01:23:11,NA,incomplete,false,true,NA,8,29,syllable,c_1_020.jpg,right,1 syllable,2 syllables,NA,NA,NA,left,1019,false,NA,NA,NA,NA,NA
LdS68ePn,NA,NA,LdS68ePn,2020-0188,2021-09-27,00:03:36,01:23:11,NA,incomplete,false,NA,true,8,0,NA,NA,right,NA,NA,o_s_014.jpg,o_c_001.jpg,between-small,NA,NaN,NA,right,6796,1,1,1704
LdS68ePn,NA,NA,LdS68ePn,2020-0188,2021-09-27,00:03:36,01:23:11,NA,incomplete,false,NA,true,8,1,NA,NA,left,NA,NA,a_1_011.jpg,c_2_024.jpg,between-small,NA,NaN,NA,left,5256,1,1,1565.9999999995343
LdS68ePn,NA,NA,LdS68ePn,2020-0188,2021-09-27,00:03:36,01:23:11,NA,incomplete,false,NA,true,8,2,NA,NA,left,NA,NA,o_c_020.jpg,i_c_015.jpg,between-small,NA,NaN,NA,left,4095,1,1,1649
LdS68ePn,NA,NA,LdS68ePn,2020-0188,2021-09-27,00:03:36,01:23:11,NA,incomplete,false,NA,true,8,3,NA,NA,right,NA,NA,m_l_006.jpg,n_l_011.jpg,within,NA,NaN,NA,right,5371,1,1,2197
LdS68ePn,NA,NA,LdS68ePn,2020-0188,2021-09-27,00:03:36,01:23:11,NA,incomplete,false,NA,true,8,4,NA,NA,right,NA,NA,o_c_025.jpg,m_l_006.jpg,between-big,NA,NaN,NA,right,2563,1,2,1784
LdS68ePn,NA,NA,LdS68ePn,2020-0188,2021-09-27,00:03:36,01:23:11,NA,incomplete,false,NA,true,8,5,NA,NA,left,NA,NA,a_2_018.jpg,c_1_020.jpg,within,NA,NaN,NA,left,21242,1,1,1805.9999999995343
LdS68ePn,NA,NA,LdS68ePn,2020-0188,2021-09-27,00:03:36,01:23:11,NA,incomplete,false,NA,true,8,6,NA,NA,left,NA,NA,o_c_025.jpg,o_c_020.jpg,within,NA,NaN,NA,left,6302,1,1,3230.9999999995343
LdS68ePn,NA,NA,LdS68ePn,2020-0188,2021-09-27,00:03:36,01:23:11,NA,incomplete,false,NA,true,8,7,NA,NA,right,NA,NA,c_1_017.jpg,i_c_020.jpg,between-big,NA,NaN,NA,right,2739,1,2,1208.9999999995343
LdS68ePn,NA,NA,LdS68ePn,2020-0188,2021-09-27,00:03:36,01:23:11,NA,incomplete,false,NA,true,8,8,NA,NA,right,NA,NA,n_l_015.jpg,n_l_006.jpg,between-small,NA,NaN,NA,right,6904,1,1,1466
LdS68ePn,NA,NA,LdS68ePn,2020-0188,2021-09-27,00:03:36,01:23:11,NA,incomplete,false,NA,true,8,9,NA,NA,left,NA,NA,m_l_023.jpg,n_l_011.jpg,between-small,NA,NaN,NA,left,3693,1,2,8220
LdS68ePn,NA,NA,LdS68ePn,2020-0188,2021-09-27,00:03:36,01:23:11,NA,incomplete,false,NA,true,8,10,NA,NA,right,NA,NA,i_s_002.jpg,i_c_001.jpg,within,NA,NaN,NA,left,4491,0,1,2429
LdS68ePn,NA,NA,LdS68ePn,2020-0188,2021-09-27,00:03:36,01:23:11,NA,incomplete,false,NA,true,8,11,NA,NA,left,NA,NA,o_s_014.jpg,i_c_020.jpg,within,NA,NaN,NA,left,3161,1,1,1018
LdS68ePn,NA,NA,LdS68ePn,2020-0188,2021-09-27,00:03:36,01:23:11,NA,incomplete,false,NA,true,8,12,NA,NA,right,NA,NA,i_s_021.jpg,i_c_005.jpg,within,NA,NaN,NA,left,1796,0,1,2055
LdS68ePn,NA,NA,LdS68ePn,2020-0188,2021-09-27,00:03:36,01:23:11,NA,incomplete,false,NA,true,8,13,NA,NA,right,NA,NA,a_1_011.jpg,c_1_017.jpg,within,NA,NaN,NA,right,5451,1,1,1925.0000000004657
LdS68ePn,NA,NA,LdS68ePn,2020-0188,2021-09-27,00:03:36,01:23:11,NA,incomplete,false,NA,true,8,14,NA,NA,left,NA,NA,a_2_003.jpg,a_2_018.jpg,between-small,NA,NaN,NA,left,15003.000000000466,1,1,1973.9999999995343
LdS68ePn,NA,NA,LdS68ePn,2020-0188,2021-09-27,00:03:36,01:23:11,NA,incomplete,false,NA,true,8,15,NA,NA,right,NA,NA,n_l_020.jpg,n_l_014.jpg,between-small,NA,NaN,NA,right,4930,1,1,1913
LdS68ePn,NA,NA,LdS68ePn,2020-0188,2021-09-27,00:03:36,01:23:11,NA,incomplete,false,NA,true,8,16,NA,NA,left,NA,NA,n_s_024.jpg,n_l_006.jpg,within,NA,NaN,NA,left,5334,1,1,1976
LdS68ePn,NA,NA,LdS68ePn,2020-0188,2021-09-27,00:03:36,01:23:11,NA,incomplete,false,NA,true,8,17,NA,NA,left,NA,NA,n_l_004.jpg,o_c_001.jpg,between-big,NA,NaN,NA,left,1822,1,2,1028
LdS68ePn,NA,NA,LdS68ePn,2020-0188,2021-09-27,00:03:36,01:23:11,NA,incomplete,false,NA,true,8,18,NA,NA,right,NA,NA,a_1_013.jpg,i_c_015.jpg,between-big,NA,NaN,NA,right,1839,1,1,3520
LdS68ePn,NA,NA,LdS68ePn,2020-0188,2021-09-27,00:03:36,01:23:11,NA,incomplete,false,NA,true,8,19,NA,NA,right,NA,NA,i_c_005.jpg,i_s_002.jpg,between-small,NA,NaN,NA,right,41647,1,1,1344.9999999995343
LdS68ePn,NA,NA,LdS68ePn,2020-0188,2021-09-27,00:03:36,01:23:11,NA,incomplete,false,NA,true,8,20,NA,NA,right,NA,NA,c_2_011.jpg,c_1_005.jpg,between-small,NA,NaN,NA,right,4484,1,1,1258
LdS68ePn,NA,NA,LdS68ePn,2020-0188,2021-09-27,00:03:36,01:23:11,NA,incomplete,false,NA,true,8,21,NA,NA,left,NA,NA,c_2_011.jpg,a_1_023.jpg,within,NA,NaN,NA,right,4086,0,1,2604
LdS68ePn,NA,NA,LdS68ePn,2020-0188,2021-09-27,00:03:36,01:23:11,NA,incomplete,false,NA,true,8,22,NA,NA,left,NA,NA,n_l_020.jpg,i_c_001.jpg,between-big,NA,NaN,NA,left,1456,1,2,1568
LdS68ePn,NA,NA,LdS68ePn,2020-0188,2021-09-27,00:03:36,01:23:11,NA,incomplete,false,NA,true,8,23,NA,NA,left,NA,NA,a_1_013.jpg,a_2_003.jpg,within,NA,NaN,NA,left,1984,1,1,2702
LdS68ePn,NA,NA,LdS68ePn,2020-0188,2021-09-27,00:03:36,01:23:11,NA,incomplete,false,NA,true,8,24,NA,NA,left,NA,NA,n_l_023.jpg,n_l_014.jpg,within,NA,NaN,NA,left,1412.0000000004657,1,2,1784.0000000004657
LdS68ePn,NA,NA,LdS68ePn,2020-0188,2021-09-27,00:03:36,01:23:11,NA,incomplete,false,NA,true,8,25,NA,NA,left,NA,NA,i_s_021.jpg,c_1_005.jpg,between-big,NA,NaN,NA,left,3833,1,2,8795.000000000466
LdS68ePn,NA,NA,LdS68ePn,2020-0188,2021-09-27,00:03:36,01:23:11,NA,incomplete,false,NA,true,8,26,NA,NA,left,NA,NA,n_l_015.jpg,n_l_004.jpg,within,NA,NaN,NA,left,9266,1,1,1566
LdS68ePn,NA,NA,LdS68ePn,2020-0188,2021-09-27,00:03:36,01:23:11,NA,incomplete,false,true,NA,9,0,abstractness,c_2_027.jpg,right,abstract,concrete,NA,NA,NA,right,2000,true,NA,NA,NA,NA,NA
LdS68ePn,NA,NA,LdS68ePn,2020-0188,2021-09-27,00:03:36,01:23:11,NA,incomplete,false,true,NA,9,1,abstractness,c_1_018.jpg,left,concrete,abstract,NA,NA,NA,left,1716,true,NA,NA,NA,NA,NA
LdS68ePn,NA,NA,LdS68ePn,2020-0188,2021-09-27,00:03:36,01:23:11,NA,incomplete,false,true,NA,9,2,abstractness,c_1_015.jpg,right,abstract,concrete,NA,NA,NA,right,1732,true,NA,NA,NA,NA,NA
LdS68ePn,NA,NA,LdS68ePn,2020-0188,2021-09-27,00:03:36,01:23:11,NA,incomplete,false,true,NA,9,3,abstractness,a_2_009.jpg,left,abstract,concrete,NA,NA,NA,left,1490,true,NA,NA,NA,NA,NA
LdS68ePn,NA,NA,LdS68ePn,2020-0188,2021-09-27,00:03:36,01:23:11,NA,incomplete,false,true,NA,9,4,abstractness,a_2_020.jpg,right,concrete,abstract,NA,NA,NA,none,0,false,NA,NA,NA,NA,NA
LdS68ePn,NA,NA,LdS68ePn,2020-0188,2021-09-27,00:03:36,01:23:11,NA,incomplete,false,true,NA,9,5,syllable,a_2_008.jpg,right,2 syllables,1 syllable,NA,NA,NA,left,1713.00000000047,false,NA,NA,NA,NA,NA
LdS68ePn,NA,NA,LdS68ePn,2020-0188,2021-09-27,00:03:36,01:23:11,NA,incomplete,false,true,NA,9,6,syllable,a_1_010.jpg,right,2 syllables,1 syllable,NA,NA,NA,right,1280.99999999953,true,NA,NA,NA,NA,NA
LdS68ePn,NA,NA,LdS68ePn,2020-0188,2021-09-27,00:03:36,01:23:11,NA,incomplete,false,true,NA,9,7,syllable,a_1_028.jpg,right,2 syllables,1 syllable,NA,NA,NA,right,1287.00000000047,true,NA,NA,NA,NA,NA
LdS68ePn,NA,NA,LdS68ePn,2020-0188,2021-09-27,00:03:36,01:23:11,NA,incomplete,false,true,NA,9,8,syllable,a_2_026.jpg,right,2 syllables,1 syllable,NA,NA,NA,left,1754,false,NA,NA,NA,NA,NA
LdS68ePn,NA,NA,LdS68ePn,2020-0188,2021-09-27,00:03:36,01:23:11,NA,incomplete,false,true,NA,9,9,syllable,c_1_002.jpg,right,2 syllables,1 syllable,NA,NA,NA,left,2614,false,NA,NA,NA,NA,NA
LdS68ePn,NA,NA,LdS68ePn,2020-0188,2021-09-27,00:03:36,01:23:11,NA,incomplete,false,true,NA,9,10,size,m_s_018.jpg,left,small,large,NA,NA,NA,left,1650,true,NA,NA,NA,NA,NA
LdS68ePn,NA,NA,LdS68ePn,2020-0188,2021-09-27,00:03:36,01:23:11,NA,incomplete,false,true,NA,9,11,size,m_l_024.jpg,left,large,small,NA,NA,NA,left,1458,true,NA,NA,NA,NA,NA
LdS68ePn,NA,NA,LdS68ePn,2020-0188,2021-09-27,00:03:36,01:23:11,NA,incomplete,false,true,NA,9,12,size,n_s_012.jpg,left,small,large,NA,NA,NA,left,1438.99999999953,true,NA,NA,NA,NA,NA
LdS68ePn,NA,NA,LdS68ePn,2020-0188,2021-09-27,00:03:36,01:23:11,NA,incomplete,false,true,NA,9,13,size,n_l_028.jpg,right,small,large,NA,NA,NA,right,1359,true,NA,NA,NA,NA,NA
LdS68ePn,NA,NA,LdS68ePn,2020-0188,2021-09-27,00:03:36,01:23:11,NA,incomplete,false,true,NA,9,14,size,m_l_013.jpg,right,small,large,NA,NA,NA,right,1343.00000000047,true,NA,NA,NA,NA,NA
LdS68ePn,NA,NA,LdS68ePn,2020-0188,2021-09-27,00:03:36,01:23:11,NA,incomplete,false,true,NA,9,15,origin,n_l_024.jpg,right,manmade,natural,NA,NA,NA,right,2417,true,NA,NA,NA,NA,NA
LdS68ePn,NA,NA,LdS68ePn,2020-0188,2021-09-27,00:03:36,01:23:11,NA,incomplete,false,true,NA,9,16,origin,n_l_012.jpg,right,manmade,natural,NA,NA,NA,right,1112.00000000047,true,NA,NA,NA,NA,NA
LdS68ePn,NA,NA,LdS68ePn,2020-0188,2021-09-27,00:03:36,01:23:11,NA,incomplete,false,true,NA,9,17,origin,m_l_017.jpg,right,natural,manmade,NA,NA,NA,right,1599.00000000047,true,NA,NA,NA,NA,NA
LdS68ePn,NA,NA,LdS68ePn,2020-0188,2021-09-27,00:03:36,01:23:11,NA,incomplete,false,true,NA,9,18,origin,m_s_007.jpg,left,manmade,natural,NA,NA,NA,left,1175.99999999953,true,NA,NA,NA,NA,NA
LdS68ePn,NA,NA,LdS68ePn,2020-0188,2021-09-27,00:03:36,01:23:11,NA,incomplete,false,true,NA,9,19,origin,n_l_007.jpg,right,manmade,natural,NA,NA,NA,right,2364.00000000047,true,NA,NA,NA,NA,NA
LdS68ePn,NA,NA,LdS68ePn,2020-0188,2021-09-27,00:03:36,01:23:11,NA,incomplete,false,true,NA,9,20,building,i_s_006.jpg,left,skyscraper,cottage,NA,NA,NA,left,1928,true,NA,NA,NA,NA,NA
LdS68ePn,NA,NA,LdS68ePn,2020-0188,2021-09-27,00:03:36,01:23:11,NA,incomplete,false,true,NA,9,21,building,o_s_002.jpg,right,cottage,skyscraper,NA,NA,NA,right,1410.00000000093,true,NA,NA,NA,NA,NA
LdS68ePn,NA,NA,LdS68ePn,2020-0188,2021-09-27,00:03:36,01:23:11,NA,incomplete,false,true,NA,9,22,building,o_s_011.jpg,left,skyscraper,cottage,NA,NA,NA,left,1799,true,NA,NA,NA,NA,NA
LdS68ePn,NA,NA,LdS68ePn,2020-0188,2021-09-27,00:03:36,01:23:11,NA,incomplete,false,true,NA,9,23,building,i_c_028.jpg,right,skyscraper,cottage,NA,NA,NA,right,1169,true,NA,NA,NA,NA,NA
LdS68ePn,NA,NA,LdS68ePn,2020-0188,2021-09-27,00:03:36,01:23:11,NA,incomplete,false,true,NA,9,24,building,o_s_004.jpg,right,cottage,skyscraper,NA,NA,NA,right,2000,true,NA,NA,NA,NA,NA
LdS68ePn,NA,NA,LdS68ePn,2020-0188,2021-09-27,00:03:36,01:23:11,NA,incomplete,false,true,NA,9,25,location,i_s_027.jpg,right,outdoor,indoor,NA,NA,NA,right,1823.99999999953,true,NA,NA,NA,NA,NA
LdS68ePn,NA,NA,LdS68ePn,2020-0188,2021-09-27,00:03:36,01:23:11,NA,incomplete,false,true,NA,9,26,location,i_c_010.jpg,right,outdoor,indoor,NA,NA,NA,right,2053,true,NA,NA,NA,NA,NA
LdS68ePn,NA,NA,LdS68ePn,2020-0188,2021-09-27,00:03:36,01:23:11,NA,incomplete,false,true,NA,9,27,location,i_s_016.jpg,left,indoor,outdoor,NA,NA,NA,left,1514.99999999953,true,NA,NA,NA,NA,NA
LdS68ePn,NA,NA,LdS68ePn,2020-0188,2021-09-27,00:03:36,01:23:11,NA,incomplete,false,true,NA,9,28,location,i_s_025.jpg,left,indoor,outdoor,NA,NA,NA,left,2540,true,NA,NA,NA,NA,NA
LdS68ePn,NA,NA,LdS68ePn,2020-0188,2021-09-27,00:03:36,01:23:11,NA,incomplete,false,true,NA,9,29,location,i_c_014.jpg,left,indoor,outdoor,NA,NA,NA,left,1199.00000000047,true,NA,NA,NA,NA,NA
LdS68ePn,NA,NA,LdS68ePn,2020-0188,2021-09-27,00:03:36,01:23:11,NA,incomplete,false,NA,true,9,0,NA,NA,left,NA,NA,i_c_028.jpg,i_c_010.jpg,between-small,NA,NaN,NA,left,2134,1,1,1107
LdS68ePn,NA,NA,LdS68ePn,2020-0188,2021-09-27,00:03:36,01:23:11,NA,incomplete,false,NA,true,9,1,NA,NA,left,NA,NA,i_s_027.jpg,i_s_025.jpg,within,NA,NaN,NA,right,27690.999999999534,0,1,2061.0000000004657
