workerId,hitId,assignmentId,subject,studyid,exp_date,exp_start,exp_end,time_start,time_end,practice,encoding,memory,block,trial,event,stim,answer,label_left,label_right,left_image,right_image,condition,response,response_time,response_acc,order_response,order_response_time,order_acc,distance_response,distance_response_time
mZBhXg6p,NA,NA,mZBhXg6p,2020-0188,2021-09-27,07:34:09,08:44:41,NA,incomplete,true,true,NA,0,0,building,i_s_017.jpg,left,skyscraper,cottage,NA,NA,NA,left,2571.5,true,NA,NA,NA,NA,NA
mZBhXg6p,NA,NA,mZBhXg6p,2020-0188,2021-09-27,07:34:09,08:44:41,NA,incomplete,true,true,NA,0,1,building,o_s_008.jpg,left,skyscraper,cottage,NA,NA,NA,left,1669.90000000596,true,NA,NA,NA,NA,NA
mZBhXg6p,NA,NA,mZBhXg6p,2020-0188,2021-09-27,07:34:09,08:44:41,NA,incomplete,true,true,NA,0,2,building,o_s_021.jpg,right,cottage,skyscraper,NA,NA,NA,right,1853.10000000894,true,NA,NA,NA,NA,NA
mZBhXg6p,NA,NA,mZBhXg6p,2020-0188,2021-09-27,07:34:09,08:44:41,NA,incomplete,true,true,NA,0,3,building,o_c_015.jpg,left,cottage,skyscraper,NA,NA,NA,left,1470.09999999404,true,NA,NA,NA,NA,NA
mZBhXg6p,NA,NA,mZBhXg6p,2020-0188,2021-09-27,07:34:09,08:44:41,NA,incomplete,true,true,NA,0,4,building,o_s_010.jpg,right,cottage,skyscraper,NA,NA,NA,right,965,true,NA,NA,NA,NA,NA
mZBhXg6p,NA,NA,mZBhXg6p,2020-0188,2021-09-27,07:34:09,08:44:41,NA,incomplete,true,true,NA,0,5,location,i_s_022.jpg,left,indoor,outdoor,NA,NA,NA,left,2060.69999998808,true,NA,NA,NA,NA,NA
mZBhXg6p,NA,NA,mZBhXg6p,2020-0188,2021-09-27,07:34:09,08:44:41,NA,incomplete,true,true,NA,0,6,location,i_s_015.jpg,right,outdoor,indoor,NA,NA,NA,right,1543.89999999106,true,NA,NA,NA,NA,NA
mZBhXg6p,NA,NA,mZBhXg6p,2020-0188,2021-09-27,07:34:09,08:44:41,NA,incomplete,true,true,NA,0,7,location,i_s_027.jpg,right,outdoor,indoor,NA,NA,NA,right,1428.89999999106,true,NA,NA,NA,NA,NA
mZBhXg6p,NA,NA,mZBhXg6p,2020-0188,2021-09-27,07:34:09,08:44:41,NA,incomplete,true,true,NA,0,8,location,o_c_006.jpg,right,indoor,outdoor,NA,NA,NA,right,180.79999999702,true,NA,NA,NA,NA,NA
mZBhXg6p,NA,NA,mZBhXg6p,2020-0188,2021-09-27,07:34:09,08:44:41,NA,incomplete,true,true,NA,0,9,location,i_c_019.jpg,right,outdoor,indoor,NA,NA,NA,right,1343,true,NA,NA,NA,NA,NA
mZBhXg6p,NA,NA,mZBhXg6p,2020-0188,2021-09-27,07:34:09,08:44:41,NA,incomplete,true,true,NA,0,10,size,m_s_027.jpg,right,large,small,NA,NA,NA,right,1625.40000000596,true,NA,NA,NA,NA,NA
mZBhXg6p,NA,NA,mZBhXg6p,2020-0188,2021-09-27,07:34:09,08:44:41,NA,incomplete,true,true,NA,0,11,size,m_s_002.jpg,left,small,large,NA,NA,NA,left,1073.5,true,NA,NA,NA,NA,NA
mZBhXg6p,NA,NA,mZBhXg6p,2020-0188,2021-09-27,07:34:09,08:44:41,NA,incomplete,true,true,NA,0,12,size,m_s_007.jpg,right,large,small,NA,NA,NA,right,2004.20000000298,true,NA,NA,NA,NA,NA
mZBhXg6p,NA,NA,mZBhXg6p,2020-0188,2021-09-27,07:34:09,08:44:41,NA,incomplete,true,true,NA,0,13,size,n_l_004.jpg,left,large,small,NA,NA,NA,left,2233.59999999404,true,NA,NA,NA,NA,NA
mZBhXg6p,NA,NA,mZBhXg6p,2020-0188,2021-09-27,07:34:09,08:44:41,NA,incomplete,true,true,NA,0,14,size,m_l_022.jpg,right,small,large,NA,NA,NA,right,1122.20000000298,true,NA,NA,NA,NA,NA
mZBhXg6p,NA,NA,mZBhXg6p,2020-0188,2021-09-27,07:34:09,08:44:41,NA,incomplete,true,true,NA,0,15,origin,m_s_003.jpg,left,manmade,natural,NA,NA,NA,right,948.199999988079,false,NA,NA,NA,NA,NA
mZBhXg6p,NA,NA,mZBhXg6p,2020-0188,2021-09-27,07:34:09,08:44:41,NA,incomplete,true,true,NA,0,16,origin,m_l_026.jpg,left,manmade,natural,NA,NA,NA,left,1500,true,NA,NA,NA,NA,NA
mZBhXg6p,NA,NA,mZBhXg6p,2020-0188,2021-09-27,07:34:09,08:44:41,NA,incomplete,true,true,NA,0,17,origin,m_l_013.jpg,right,natural,manmade,NA,NA,NA,right,2153.40000000596,true,NA,NA,NA,NA,NA
mZBhXg6p,NA,NA,mZBhXg6p,2020-0188,2021-09-27,07:34:09,08:44:41,NA,incomplete,true,true,NA,0,18,origin,m_l_010.jpg,right,natural,manmade,NA,NA,NA,right,1415.20000000298,true,NA,NA,NA,NA,NA
mZBhXg6p,NA,NA,mZBhXg6p,2020-0188,2021-09-27,07:34:09,08:44:41,NA,incomplete,true,true,NA,0,19,origin,n_s_018.jpg,left,natural,manmade,NA,NA,NA,left,1609.20000000298,true,NA,NA,NA,NA,NA
mZBhXg6p,NA,NA,mZBhXg6p,2020-0188,2021-09-27,07:34:09,08:44:41,NA,incomplete,true,true,NA,0,20,syllable,a_1_005.jpg,right,2 syllables,1 syllable,NA,NA,NA,right,2217.70000000298,true,NA,NA,NA,NA,NA
mZBhXg6p,NA,NA,mZBhXg6p,2020-0188,2021-09-27,07:34:09,08:44:41,NA,incomplete,true,true,NA,0,21,syllable,a_2_013.jpg,right,1 syllable,2 syllables,NA,NA,NA,right,2196.19999998808,true,NA,NA,NA,NA,NA
mZBhXg6p,NA,NA,mZBhXg6p,2020-0188,2021-09-27,07:34:09,08:44:41,NA,incomplete,true,true,NA,0,22,syllable,a_1_008.jpg,right,2 syllables,1 syllable,NA,NA,NA,none,0,false,NA,NA,NA,NA,NA
mZBhXg6p,NA,NA,mZBhXg6p,2020-0188,2021-09-27,07:34:09,08:44:41,NA,incomplete,true,true,NA,0,23,syllable,c_1_026.jpg,right,1 syllable,2 syllables,NA,NA,NA,left,1350.39999999106,false,NA,NA,NA,NA,NA
mZBhXg6p,NA,NA,mZBhXg6p,2020-0188,2021-09-27,07:34:09,08:44:41,NA,incomplete,true,true,NA,0,24,syllable,a_1_023.jpg,right,2 syllables,1 syllable,NA,NA,NA,right,1012.5,true,NA,NA,NA,NA,NA
mZBhXg6p,NA,NA,mZBhXg6p,2020-0188,2021-09-27,07:34:09,08:44:41,NA,incomplete,true,true,NA,0,25,abstractness,a_2_025.jpg,right,concrete,abstract,NA,NA,NA,left,3081.60000000894,false,NA,NA,NA,NA,NA
mZBhXg6p,NA,NA,mZBhXg6p,2020-0188,2021-09-27,07:34:09,08:44:41,NA,incomplete,true,true,NA,0,26,abstractness,a_1_012.jpg,right,concrete,abstract,NA,NA,NA,left,1156.59999999404,false,NA,NA,NA,NA,NA
mZBhXg6p,NA,NA,mZBhXg6p,2020-0188,2021-09-27,07:34:09,08:44:41,NA,incomplete,true,true,NA,0,27,abstractness,a_2_019.jpg,left,abstract,concrete,NA,NA,NA,left,2072.70000000298,true,NA,NA,NA,NA,NA
mZBhXg6p,NA,NA,mZBhXg6p,2020-0188,2021-09-27,07:34:09,08:44:41,NA,incomplete,true,true,NA,0,28,abstractness,a_2_022.jpg,right,concrete,abstract,NA,NA,NA,right,1891.70000000298,true,NA,NA,NA,NA,NA
mZBhXg6p,NA,NA,mZBhXg6p,2020-0188,2021-09-27,07:34:09,08:44:41,NA,incomplete,true,true,NA,0,29,abstractness,a_2_001.jpg,right,concrete,abstract,NA,NA,NA,left,1814.20000000298,false,NA,NA,NA,NA,NA
mZBhXg6p,NA,NA,mZBhXg6p,2020-0188,2021-09-27,07:34:09,08:44:41,NA,incomplete,true,NA,true,0,0,NA,NA,left,NA,NA,o_s_010.jpg,i_s_027.jpg,between-small,NA,NaN,NA,left,4376.20000000298,1,1,3204.7999999970198
mZBhXg6p,NA,NA,mZBhXg6p,2020-0188,2021-09-27,07:34:09,08:44:41,NA,incomplete,true,NA,true,0,1,NA,NA,left,NA,NA,a_2_025.jpg,a_2_022.jpg,within,NA,NaN,NA,left,4335.399999991059,1,1,1642
mZBhXg6p,NA,NA,mZBhXg6p,2020-0188,2021-09-27,07:34:09,08:44:41,NA,incomplete,true,NA,true,0,2,NA,NA,right,NA,NA,i_s_022.jpg,o_s_021.jpg,between-small,NA,NaN,NA,right,2447.2999999970198,1,1,1465.8999999910593
mZBhXg6p,NA,NA,mZBhXg6p,2020-0188,2021-09-27,07:34:09,08:44:41,NA,incomplete,true,NA,true,0,3,NA,NA,right,NA,NA,a_2_013.jpg,m_l_010.jpg,between-big,NA,NaN,NA,right,2570.4000000059605,1,2,1418.7000000029802
mZBhXg6p,NA,NA,mZBhXg6p,2020-0188,2021-09-27,07:34:09,08:44:41,NA,incomplete,true,NA,true,0,4,NA,NA,right,NA,NA,m_s_027.jpg,i_s_027.jpg,between-big,NA,NaN,NA,right,1623.6000000089407,1,2,1462.4000000059605
mZBhXg6p,NA,NA,mZBhXg6p,2020-0188,2021-09-27,07:34:09,08:44:41,NA,incomplete,true,NA,true,0,5,NA,NA,left,NA,NA,o_c_015.jpg,i_s_015.jpg,between-small,NA,NaN,NA,left,2648,1,1,2040.7999999970198
mZBhXg6p,NA,NA,mZBhXg6p,2020-0188,2021-09-27,07:34:09,08:44:41,NA,incomplete,true,NA,true,0,6,NA,NA,left,NA,NA,i_s_022.jpg,o_c_006.jpg,within,NA,NaN,NA,left,2297,1,1,1059.0999999940395
mZBhXg6p,NA,NA,mZBhXg6p,2020-0188,2021-09-27,07:34:09,08:44:41,NA,incomplete,true,NA,true,0,7,NA,NA,right,NA,NA,o_s_010.jpg,o_s_008.jpg,within,NA,NaN,NA,right,2220.7999999970198,1,0,2015.9000000059605
mZBhXg6p,NA,NA,mZBhXg6p,2020-0188,2021-09-27,07:34:09,08:44:41,NA,incomplete,true,NA,true,0,8,NA,NA,left,NA,NA,o_c_006.jpg,m_s_002.jpg,between-big,NA,NaN,NA,left,1778.8999999910593,1,2,1218.5999999940395
mZBhXg6p,NA,NA,mZBhXg6p,2020-0188,2021-09-27,07:34:09,08:44:41,NA,incomplete,true,NA,true,0,9,NA,NA,left,NA,NA,i_c_019.jpg,m_s_007.jpg,between-big,NA,NaN,NA,left,1602.1000000089407,1,2,951.3999999910593
mZBhXg6p,NA,NA,mZBhXg6p,2020-0188,2021-09-27,07:34:09,08:44:41,NA,incomplete,true,NA,true,0,10,NA,NA,right,NA,NA,o_c_015.jpg,i_s_017.jpg,within,NA,NaN,NA,left,2123.1000000089407,0,1,1645.6000000089407
mZBhXg6p,NA,NA,mZBhXg6p,2020-0188,2021-09-27,07:34:09,08:44:41,NA,incomplete,true,NA,true,0,11,NA,NA,right,NA,NA,m_s_003.jpg,m_s_007.jpg,between-small,NA,NaN,NA,left,2584,0,1,1001
mZBhXg6p,NA,NA,mZBhXg6p,2020-0188,2021-09-27,07:34:09,08:44:41,NA,incomplete,true,NA,true,0,12,NA,NA,right,NA,NA,m_l_026.jpg,n_l_004.jpg,between-small,NA,NaN,NA,left,5323.9000000059605,0,2,895.2999999970198
mZBhXg6p,NA,NA,mZBhXg6p,2020-0188,2021-09-27,07:34:09,08:44:41,NA,incomplete,true,NA,true,0,13,NA,NA,left,NA,NA,m_l_026.jpg,n_s_018.jpg,within,NA,NaN,NA,left,1221.5,1,0,2313.9000000059605
mZBhXg6p,NA,NA,mZBhXg6p,2020-0188,2021-09-27,07:34:09,08:44:41,NA,incomplete,true,NA,true,0,14,NA,NA,left,NA,NA,a_2_013.jpg,a_1_023.jpg,within,NA,NaN,NA,left,2460.4000000059605,1,1,943.5999999940395
mZBhXg6p,NA,NA,mZBhXg6p,2020-0188,2021-09-27,07:34:09,08:44:41,NA,incomplete,true,NA,true,0,15,NA,NA,left,NA,NA,m_s_003.jpg,m_l_010.jpg,within,NA,NaN,NA,left,3501.4000000059605,1,1,792.2999999970198
mZBhXg6p,NA,NA,mZBhXg6p,2020-0188,2021-09-27,07:34:09,08:44:41,NA,incomplete,true,NA,true,0,16,NA,NA,right,NA,NA,a_1_008.jpg,n_s_018.jpg,between-big,NA,NaN,NA,right,1489.199999988079,1,2,1120.9000000059605
mZBhXg6p,NA,NA,mZBhXg6p,2020-0188,2021-09-27,07:34:09,08:44:41,NA,incomplete,true,NA,true,0,17,NA,NA,left,NA,NA,a_1_012.jpg,a_2_001.jpg,within,NA,NaN,NA,left,1953.2999999970198,1,1,993.7999999970198
mZBhXg6p,NA,NA,mZBhXg6p,2020-0188,2021-09-27,07:34:09,08:44:41,NA,incomplete,true,NA,true,0,18,NA,NA,right,NA,NA,a_2_019.jpg,a_1_023.jpg,between-small,NA,NaN,NA,right,2852.5,1,1,904.0999999940395
mZBhXg6p,NA,NA,mZBhXg6p,2020-0188,2021-09-27,07:34:09,08:44:41,NA,incomplete,true,NA,true,0,19,NA,NA,left,NA,NA,i_s_015.jpg,i_c_019.jpg,within,NA,NaN,NA,left,3390.2999999970198,1,0,943.7999999970198
mZBhXg6p,NA,NA,mZBhXg6p,2020-0188,2021-09-27,07:34:09,08:44:41,NA,incomplete,true,NA,true,0,20,NA,NA,left,NA,NA,c_1_026.jpg,a_1_012.jpg,between-small,NA,NaN,NA,left,1320.3999999910593,1,0,1062.5999999940395
mZBhXg6p,NA,NA,mZBhXg6p,2020-0188,2021-09-27,07:34:09,08:44:41,NA,incomplete,true,NA,true,0,21,NA,NA,right,NA,NA,a_2_025.jpg,a_1_008.jpg,between-small,NA,NaN,NA,left,1672.2999999970198,0,1,1162.300000011921
mZBhXg6p,NA,NA,mZBhXg6p,2020-0188,2021-09-27,07:34:09,08:44:41,NA,incomplete,true,NA,true,0,22,NA,NA,left,NA,NA,m_s_002.jpg,m_l_022.jpg,within,NA,NaN,NA,left,5000.20000000298,1,0,758.4000000059605
mZBhXg6p,NA,NA,mZBhXg6p,2020-0188,2021-09-27,07:34:09,08:44:41,NA,incomplete,true,NA,true,0,23,NA,NA,right,NA,NA,c_1_026.jpg,a_1_005.jpg,within,NA,NaN,NA,left,1583.0999999940395,0,0,1421.2999999970198
mZBhXg6p,NA,NA,mZBhXg6p,2020-0188,2021-09-27,07:34:09,08:44:41,NA,incomplete,true,NA,true,0,24,NA,NA,right,NA,NA,m_l_013.jpg,m_l_022.jpg,between-small,NA,NaN,NA,right,4474.70000000298,1,1,1509.5999999940395
mZBhXg6p,NA,NA,mZBhXg6p,2020-0188,2021-09-27,07:34:09,08:44:41,NA,incomplete,true,NA,true,0,25,NA,NA,left,NA,NA,m_s_027.jpg,n_l_004.jpg,within,NA,NaN,NA,left,3181.5,1,0,1288
mZBhXg6p,NA,NA,mZBhXg6p,2020-0188,2021-09-27,07:34:09,08:44:41,NA,incomplete,true,NA,true,0,26,NA,NA,left,NA,NA,m_l_013.jpg,a_1_005.jpg,between-big,NA,NaN,NA,left,1497,1,1,724.5999999940395
mZBhXg6p,NA,NA,mZBhXg6p,2020-0188,2021-09-27,07:34:09,08:44:41,NA,incomplete,false,true,NA,1,0,location,i_c_018.jpg,left,indoor,outdoor,NA,NA,NA,left,1830.29999999702,true,NA,NA,NA,NA,NA
mZBhXg6p,NA,NA,mZBhXg6p,2020-0188,2021-09-27,07:34:09,08:44:41,NA,incomplete,false,true,NA,1,1,location,o_c_028.jpg,right,indoor,outdoor,NA,NA,NA,right,1269.59999999404,true,NA,NA,NA,NA,NA
mZBhXg6p,NA,NA,mZBhXg6p,2020-0188,2021-09-27,07:34:09,08:44:41,NA,incomplete,false,true,NA,1,2,location,o_c_001.jpg,left,outdoor,indoor,NA,NA,NA,left,1338.09999999404,true,NA,NA,NA,NA,NA
mZBhXg6p,NA,NA,mZBhXg6p,2020-0188,2021-09-27,07:34:09,08:44:41,NA,incomplete,false,true,NA,1,3,location,o_c_003.jpg,left,outdoor,indoor,NA,NA,NA,left,1408.40000000596,true,NA,NA,NA,NA,NA
mZBhXg6p,NA,NA,mZBhXg6p,2020-0188,2021-09-27,07:34:09,08:44:41,NA,incomplete,false,true,NA,1,4,location,o_s_019.jpg,right,indoor,outdoor,NA,NA,NA,right,1430.90000000596,true,NA,NA,NA,NA,NA
mZBhXg6p,NA,NA,mZBhXg6p,2020-0188,2021-09-27,07:34:09,08:44:41,NA,incomplete,false,true,NA,1,5,building,o_c_024.jpg,left,cottage,skyscraper,NA,NA,NA,left,1526.59999999404,true,NA,NA,NA,NA,NA
mZBhXg6p,NA,NA,mZBhXg6p,2020-0188,2021-09-27,07:34:09,08:44:41,NA,incomplete,false,true,NA,1,6,building,o_s_013.jpg,left,skyscraper,cottage,NA,NA,NA,left,1319,true,NA,NA,NA,NA,NA
mZBhXg6p,NA,NA,mZBhXg6p,2020-0188,2021-09-27,07:34:09,08:44:41,NA,incomplete,false,true,NA,1,7,building,o_s_015.jpg,right,cottage,skyscraper,NA,NA,NA,right,943.90000000596,true,NA,NA,NA,NA,NA
mZBhXg6p,NA,NA,mZBhXg6p,2020-0188,2021-09-27,07:34:09,08:44:41,NA,incomplete,false,true,NA,1,8,building,i_c_005.jpg,right,skyscraper,cottage,NA,NA,NA,right,1644.20000000298,true,NA,NA,NA,NA,NA
mZBhXg6p,NA,NA,mZBhXg6p,2020-0188,2021-09-27,07:34:09,08:44:41,NA,incomplete,false,true,NA,1,9,building,i_s_021.jpg,right,cottage,skyscraper,NA,NA,NA,right,1268.79999999702,true,NA,NA,NA,NA,NA
mZBhXg6p,NA,NA,mZBhXg6p,2020-0188,2021-09-27,07:34:09,08:44:41,NA,incomplete,false,true,NA,1,10,size,n_l_011.jpg,right,small,large,NA,NA,NA,right,1750.59999999404,true,NA,NA,NA,NA,NA
mZBhXg6p,NA,NA,mZBhXg6p,2020-0188,2021-09-27,07:34:09,08:44:41,NA,incomplete,false,true,NA,1,11,size,m_s_019.jpg,right,large,small,NA,NA,NA,right,1229.90000000596,true,NA,NA,NA,NA,NA
mZBhXg6p,NA,NA,mZBhXg6p,2020-0188,2021-09-27,07:34:09,08:44:41,NA,incomplete,false,true,NA,1,12,size,n_s_019.jpg,left,small,large,NA,NA,NA,left,875.899999991059,true,NA,NA,NA,NA,NA
mZBhXg6p,NA,NA,mZBhXg6p,2020-0188,2021-09-27,07:34:09,08:44:41,NA,incomplete,false,true,NA,1,13,size,m_l_012.jpg,left,large,small,NA,NA,NA,left,1403.90000000596,true,NA,NA,NA,NA,NA
mZBhXg6p,NA,NA,mZBhXg6p,2020-0188,2021-09-27,07:34:09,08:44:41,NA,incomplete,false,true,NA,1,14,size,m_l_016.jpg,left,large,small,NA,NA,NA,left,1121,true,NA,NA,NA,NA,NA
mZBhXg6p,NA,NA,mZBhXg6p,2020-0188,2021-09-27,07:34:09,08:44:41,NA,incomplete,false,true,NA,1,15,origin,n_l_013.jpg,left,natural,manmade,NA,NA,NA,left,1732.5,true,NA,NA,NA,NA,NA
mZBhXg6p,NA,NA,mZBhXg6p,2020-0188,2021-09-27,07:34:09,08:44:41,NA,incomplete,false,true,NA,1,16,origin,m_s_023.jpg,left,manmade,natural,NA,NA,NA,left,2236.30000001192,true,NA,NA,NA,NA,NA
mZBhXg6p,NA,NA,mZBhXg6p,2020-0188,2021-09-27,07:34:09,08:44:41,NA,incomplete,false,true,NA,1,17,origin,m_s_008.jpg,right,natural,manmade,NA,NA,NA,right,2010.70000000298,true,NA,NA,NA,NA,NA
mZBhXg6p,NA,NA,mZBhXg6p,2020-0188,2021-09-27,07:34:09,08:44:41,NA,incomplete,false,true,NA,1,18,origin,n_l_001.jpg,left,natural,manmade,NA,NA,NA,left,2271,true,NA,NA,NA,NA,NA
mZBhXg6p,NA,NA,mZBhXg6p,2020-0188,2021-09-27,07:34:09,08:44:41,NA,incomplete,false,true,NA,1,19,origin,n_s_016.jpg,left,natural,manmade,NA,NA,NA,left,1546.90000000596,true,NA,NA,NA,NA,NA
mZBhXg6p,NA,NA,mZBhXg6p,2020-0188,2021-09-27,07:34:09,08:44:41,NA,incomplete,false,true,NA,1,20,syllable,a_1_024.jpg,right,2 syllables,1 syllable,NA,NA,NA,right,1438.29999999702,true,NA,NA,NA,NA,NA
mZBhXg6p,NA,NA,mZBhXg6p,2020-0188,2021-09-27,07:34:09,08:44:41,NA,incomplete,false,true,NA,1,21,syllable,a_2_027.jpg,right,2 syllables,1 syllable,NA,NA,NA,left,1443.20000000298,false,NA,NA,NA,NA,NA
mZBhXg6p,NA,NA,mZBhXg6p,2020-0188,2021-09-27,07:34:09,08:44:41,NA,incomplete,false,true,NA,1,22,syllable,a_2_020.jpg,right,2 syllables,1 syllable,NA,NA,NA,left,1245.09999999404,false,NA,NA,NA,NA,NA
mZBhXg6p,NA,NA,mZBhXg6p,2020-0188,2021-09-27,07:34:09,08:44:41,NA,incomplete,false,true,NA,1,23,syllable,c_2_017.jpg,right,2 syllables,1 syllable,NA,NA,NA,left,1164.90000000596,false,NA,NA,NA,NA,NA
mZBhXg6p,NA,NA,mZBhXg6p,2020-0188,2021-09-27,07:34:09,08:44:41,NA,incomplete,false,true,NA,1,24,syllable,a_1_019.jpg,right,1 syllable,2 syllables,NA,NA,NA,left,1929.20000000298,false,NA,NA,NA,NA,NA
mZBhXg6p,NA,NA,mZBhXg6p,2020-0188,2021-09-27,07:34:09,08:44:41,NA,incomplete,false,true,NA,1,25,abstractness,a_1_002.jpg,right,concrete,abstract,NA,NA,NA,right,2851.40000000596,true,NA,NA,NA,NA,NA
mZBhXg6p,NA,NA,mZBhXg6p,2020-0188,2021-09-27,07:34:09,08:44:41,NA,incomplete,false,true,NA,1,26,abstractness,c_2_007.jpg,left,concrete,abstract,NA,NA,NA,left,2663.10000000894,true,NA,NA,NA,NA,NA
mZBhXg6p,NA,NA,mZBhXg6p,2020-0188,2021-09-27,07:34:09,08:44:41,NA,incomplete,false,true,NA,1,27,abstractness,c_1_028.jpg,right,abstract,concrete,NA,NA,NA,right,3134.40000000596,true,NA,NA,NA,NA,NA
mZBhXg6p,NA,NA,mZBhXg6p,2020-0188,2021-09-27,07:34:09,08:44:41,NA,incomplete,false,true,NA,1,28,abstractness,a_2_006.jpg,left,abstract,concrete,NA,NA,NA,right,3550.09999999404,false,NA,NA,NA,NA,NA
mZBhXg6p,NA,NA,mZBhXg6p,2020-0188,2021-09-27,07:34:09,08:44:41,NA,incomplete,false,true,NA,1,29,abstractness,c_1_010.jpg,left,concrete,abstract,NA,NA,NA,left,2060.29999999702,true,NA,NA,NA,NA,NA
mZBhXg6p,NA,NA,mZBhXg6p,2020-0188,2021-09-27,07:34:09,08:44:41,NA,incomplete,false,NA,true,1,0,NA,NA,left,NA,NA,m_l_012.jpg,m_s_023.jpg,between-small,NA,NaN,NA,left,3641.0999999940395,1,0,1434.7999999970198
mZBhXg6p,NA,NA,mZBhXg6p,2020-0188,2021-09-27,07:34:09,08:44:41,NA,incomplete,false,NA,true,1,1,NA,NA,right,NA,NA,a_2_020.jpg,n_s_016.jpg,between-big,NA,NaN,NA,right,5878,1,2,1149.0999999940395
mZBhXg6p,NA,NA,mZBhXg6p,2020-0188,2021-09-27,07:34:09,08:44:41,NA,incomplete,false,NA,true,1,2,NA,NA,right,NA,NA,c_2_007.jpg,c_2_017.jpg,between-small,NA,NaN,NA,left,5528.0999999940395,0,0,858.8999999910593
mZBhXg6p,NA,NA,mZBhXg6p,2020-0188,2021-09-27,07:34:09,08:44:41,NA,incomplete,false,NA,true,1,3,NA,NA,left,NA,NA,n_l_011.jpg,m_l_012.jpg,within,NA,NaN,NA,left,1371.5,1,1,1333.199999988079
mZBhXg6p,NA,NA,mZBhXg6p,2020-0188,2021-09-27,07:34:09,08:44:41,NA,incomplete,false,NA,true,1,4,NA,NA,right,NA,NA,m_l_016.jpg,m_s_019.jpg,within,NA,NaN,NA,right,6157.79999999702,1,0,1511.2999999970198
mZBhXg6p,NA,NA,mZBhXg6p,2020-0188,2021-09-27,07:34:09,08:44:41,NA,incomplete,false,NA,true,1,5,NA,NA,left,NA,NA,o_c_024.jpg,i_c_005.jpg,within,NA,NaN,NA,left,2610.7000000029802,1,1,1388.7000000029802
mZBhXg6p,NA,NA,mZBhXg6p,2020-0188,2021-09-27,07:34:09,08:44:41,NA,incomplete,false,NA,true,1,6,NA,NA,left,NA,NA,o_s_019.jpg,o_s_015.jpg,between-small,NA,NaN,NA,left,1758.5,1,1,1556
mZBhXg6p,NA,NA,mZBhXg6p,2020-0188,2021-09-27,07:34:09,08:44:41,NA,incomplete,false,NA,true,1,7,NA,NA,right,NA,NA,o_c_003.jpg,i_c_018.jpg,within,NA,NaN,NA,left,7523.29999999702,0,1,904.2999999970198
mZBhXg6p,NA,NA,mZBhXg6p,2020-0188,2021-09-27,07:34:09,08:44:41,NA,incomplete,false,NA,true,1,8,NA,NA,right,NA,NA,o_s_013.jpg,o_c_003.jpg,between-small,NA,NaN,NA,left,8149.70000000298,0,0,951.9000000059605
mZBhXg6p,NA,NA,mZBhXg6p,2020-0188,2021-09-27,07:34:09,08:44:41,NA,incomplete,false,NA,true,1,9,NA,NA,right,NA,NA,c_1_010.jpg,c_2_007.jpg,within,NA,NaN,NA,left,1108.3999999910593,0,1,848.4000000059605
mZBhXg6p,NA,NA,mZBhXg6p,2020-0188,2021-09-27,07:34:09,08:44:41,NA,incomplete,false,NA,true,1,10,NA,NA,right,NA,NA,a_2_006.jpg,a_1_002.jpg,within,NA,NaN,NA,left,2745.5,0,0,1659.2999999970198
mZBhXg6p,NA,NA,mZBhXg6p,2020-0188,2021-09-27,07:34:09,08:44:41,NA,incomplete,false,NA,true,1,11,NA,NA,right,NA,NA,a_1_002.jpg,a_2_020.jpg,between-small,NA,NaN,NA,left,997.6000000089407,0,1,1447
mZBhXg6p,NA,NA,mZBhXg6p,2020-0188,2021-09-27,07:34:09,08:44:41,NA,incomplete,false,NA,true,1,12,NA,NA,right,NA,NA,o_s_019.jpg,o_c_028.jpg,within,NA,NaN,NA,left,2114.5999999940395,0,1,1022.2000000029802
mZBhXg6p,NA,NA,mZBhXg6p,2020-0188,2021-09-27,07:34:09,08:44:41,NA,incomplete,false,NA,true,1,13,NA,NA,right,NA,NA,n_s_019.jpg,i_s_021.jpg,between-big,NA,NaN,NA,right,1412.2999999970198,1,2,755.1000000089407
mZBhXg6p,NA,NA,mZBhXg6p,2020-0188,2021-09-27,07:34:09,08:44:41,NA,incomplete,false,NA,true,1,14,NA,NA,left,NA,NA,a_1_019.jpg,c_1_028.jpg,between-small,NA,NaN,NA,left,1174.2000000029802,1,1,1298.7999999970198
mZBhXg6p,NA,NA,mZBhXg6p,2020-0188,2021-09-27,07:34:09,08:44:41,NA,incomplete,false,NA,true,1,15,NA,NA,right,NA,NA,c_2_017.jpg,a_1_024.jpg,within,NA,NaN,NA,left,2731.7999999970198,0,0,914.2000000029802
mZBhXg6p,NA,NA,mZBhXg6p,2020-0188,2021-09-27,07:34:09,08:44:41,NA,incomplete,false,NA,true,1,16,NA,NA,right,NA,NA,a_1_024.jpg,m_s_008.jpg,between-big,NA,NaN,NA,right,2121.5,1,2,1215.2999999970198
mZBhXg6p,NA,NA,mZBhXg6p,2020-0188,2021-09-27,07:34:09,08:44:41,NA,incomplete,false,NA,true,1,17,NA,NA,left,NA,NA,i_c_005.jpg,m_s_019.jpg,between-big,NA,NaN,NA,left,2129.9000000059605,1,2,2879.699999988079
mZBhXg6p,NA,NA,mZBhXg6p,2020-0188,2021-09-27,07:34:09,08:44:41,NA,incomplete,false,NA,true,1,18,NA,NA,right,NA,NA,n_l_013.jpg,n_s_019.jpg,between-small,NA,NaN,NA,left,1618.3999999910593,0,1,1175.2999999970198
mZBhXg6p,NA,NA,mZBhXg6p,2020-0188,2021-09-27,07:34:09,08:44:41,NA,incomplete,false,NA,true,1,19,NA,NA,right,NA,NA,m_s_008.jpg,m_l_016.jpg,between-small,NA,NaN,NA,right,2673.9000000059605,1,2,2019
mZBhXg6p,NA,NA,mZBhXg6p,2020-0188,2021-09-27,07:34:09,08:44:41,NA,incomplete,false,NA,true,1,20,NA,NA,right,NA,NA,n_l_011.jpg,o_s_015.jpg,between-big,NA,NaN,NA,right,1329.800000011921,1,2,1147.1000000089407
mZBhXg6p,NA,NA,mZBhXg6p,2020-0188,2021-09-27,07:34:09,08:44:41,NA,incomplete,false,NA,true,1,21,NA,NA,right,NA,NA,o_c_024.jpg,o_c_001.jpg,between-small,NA,NaN,NA,left,1434,0,0,1877.5999999940395
mZBhXg6p,NA,NA,mZBhXg6p,2020-0188,2021-09-27,07:34:09,08:44:41,NA,incomplete,false,NA,true,1,22,NA,NA,left,NA,NA,n_l_013.jpg,n_l_001.jpg,within,NA,NaN,NA,left,901.7000000029802,1,1,861.1000000089407
mZBhXg6p,NA,NA,mZBhXg6p,2020-0188,2021-09-27,07:34:09,08:44:41,NA,incomplete,false,NA,true,1,23,NA,NA,right,NA,NA,a_1_019.jpg,a_2_027.jpg,within,NA,NaN,NA,right,1798.9000000059605,1,1,887.7000000029802
mZBhXg6p,NA,NA,mZBhXg6p,2020-0188,2021-09-27,07:34:09,08:44:41,NA,incomplete,false,NA,true,1,24,NA,NA,right,NA,NA,a_2_027.jpg,n_l_001.jpg,between-big,NA,NaN,NA,right,1188.4000000059605,1,2,3230.7999999970198
mZBhXg6p,NA,NA,mZBhXg6p,2020-0188,2021-09-27,07:34:09,08:44:41,NA,incomplete,false,NA,true,1,25,NA,NA,left,NA,NA,m_s_023.jpg,n_s_016.jpg,within,NA,NaN,NA,left,3426.2000000029802,1,1,1191.7000000029802
mZBhXg6p,NA,NA,mZBhXg6p,2020-0188,2021-09-27,07:34:09,08:44:41,NA,incomplete,false,NA,true,1,26,NA,NA,left,NA,NA,o_s_013.jpg,i_s_021.jpg,within,NA,NaN,NA,left,2398.1000000089407,1,1,1332
mZBhXg6p,NA,NA,mZBhXg6p,2020-0188,2021-09-27,07:34:09,08:44:41,NA,incomplete,false,true,NA,2,0,syllable,c_1_027.jpg,right,2 syllables,1 syllable,NA,NA,NA,none,0,false,NA,NA,NA,NA,NA
mZBhXg6p,NA,NA,mZBhXg6p,2020-0188,2021-09-27,07:34:09,08:44:41,NA,incomplete,false,true,NA,2,1,syllable,c_1_012.jpg,right,1 syllable,2 syllables,NA,NA,NA,left,1248,false,NA,NA,NA,NA,NA
mZBhXg6p,NA,NA,mZBhXg6p,2020-0188,2021-09-27,07:34:09,08:44:41,NA,incomplete,false,true,NA,2,2,syllable,c_2_013.jpg,right,2 syllables,1 syllable,NA,NA,NA,left,1239.79999999702,false,NA,NA,NA,NA,NA
mZBhXg6p,NA,NA,mZBhXg6p,2020-0188,2021-09-27,07:34:09,08:44:41,NA,incomplete,false,true,NA,2,3,syllable,c_2_024.jpg,right,2 syllables,1 syllable,NA,NA,NA,left,1550.29999999702,false,NA,NA,NA,NA,NA
mZBhXg6p,NA,NA,mZBhXg6p,2020-0188,2021-09-27,07:34:09,08:44:41,NA,incomplete,false,true,NA,2,4,syllable,a_1_027.jpg,right,2 syllables,1 syllable,NA,NA,NA,right,1031.59999999404,true,NA,NA,NA,NA,NA
mZBhXg6p,NA,NA,mZBhXg6p,2020-0188,2021-09-27,07:34:09,08:44:41,NA,incomplete,false,true,NA,2,5,abstractness,c_1_009.jpg,right,abstract,concrete,NA,NA,NA,right,2517.09999999404,true,NA,NA,NA,NA,NA
mZBhXg6p,NA,NA,mZBhXg6p,2020-0188,2021-09-27,07:34:09,08:44:41,NA,incomplete,false,true,NA,2,6,abstractness,c_2_001.jpg,right,abstract,concrete,NA,NA,NA,right,1803.59999999404,true,NA,NA,NA,NA,NA
mZBhXg6p,NA,NA,mZBhXg6p,2020-0188,2021-09-27,07:34:09,08:44:41,NA,incomplete,false,true,NA,2,7,abstractness,c_2_002.jpg,right,abstract,concrete,NA,NA,NA,right,1190.59999999404,true,NA,NA,NA,NA,NA
mZBhXg6p,NA,NA,mZBhXg6p,2020-0188,2021-09-27,07:34:09,08:44:41,NA,incomplete,false,true,NA,2,8,abstractness,a_2_016.jpg,left,abstract,concrete,NA,NA,NA,right,2351.70000000298,false,NA,NA,NA,NA,NA
mZBhXg6p,NA,NA,mZBhXg6p,2020-0188,2021-09-27,07:34:09,08:44:41,NA,incomplete,false,true,NA,2,9,abstractness,a_1_006.jpg,left,abstract,concrete,NA,NA,NA,right,2013.20000000298,false,NA,NA,NA,NA,NA
mZBhXg6p,NA,NA,mZBhXg6p,2020-0188,2021-09-27,07:34:09,08:44:41,NA,incomplete,false,true,NA,2,10,building,o_c_010.jpg,right,skyscraper,cottage,NA,NA,NA,right,1342.40000000596,true,NA,NA,NA,NA,NA
mZBhXg6p,NA,NA,mZBhXg6p,2020-0188,2021-09-27,07:34:09,08:44:41,NA,incomplete,false,true,NA,2,11,building,o_c_012.jpg,left,cottage,skyscraper,NA,NA,NA,left,1095.59999999404,true,NA,NA,NA,NA,NA
mZBhXg6p,NA,NA,mZBhXg6p,2020-0188,2021-09-27,07:34:09,08:44:41,NA,incomplete,false,true,NA,2,12,building,i_c_009.jpg,left,cottage,skyscraper,NA,NA,NA,left,963.70000000298,true,NA,NA,NA,NA,NA
mZBhXg6p,NA,NA,mZBhXg6p,2020-0188,2021-09-27,07:34:09,08:44:41,NA,incomplete,false,true,NA,2,13,building,i_c_023.jpg,left,cottage,skyscraper,NA,NA,NA,left,858.40000000596,true,NA,NA,NA,NA,NA
mZBhXg6p,NA,NA,mZBhXg6p,2020-0188,2021-09-27,07:34:09,08:44:41,NA,incomplete,false,true,NA,2,14,building,i_s_001.jpg,right,cottage,skyscraper,NA,NA,NA,right,1449.5,true,NA,NA,NA,NA,NA
mZBhXg6p,NA,NA,mZBhXg6p,2020-0188,2021-09-27,07:34:09,08:44:41,NA,incomplete,false,true,NA,2,15,location,i_s_014.jpg,left,indoor,outdoor,NA,NA,NA,left,1709.89999999106,true,NA,NA,NA,NA,NA
mZBhXg6p,NA,NA,mZBhXg6p,2020-0188,2021-09-27,07:34:09,08:44:41,NA,incomplete,false,true,NA,2,16,location,i_s_018.jpg,right,outdoor,indoor,NA,NA,NA,right,2420.69999998808,true,NA,NA,NA,NA,NA
mZBhXg6p,NA,NA,mZBhXg6p,2020-0188,2021-09-27,07:34:09,08:44:41,NA,incomplete,false,true,NA,2,17,location,o_s_001.jpg,right,indoor,outdoor,NA,NA,NA,left,1599.29999999702,false,NA,NA,NA,NA,NA
mZBhXg6p,NA,NA,mZBhXg6p,2020-0188,2021-09-27,07:34:09,08:44:41,NA,incomplete,false,true,NA,2,18,location,o_c_021.jpg,right,indoor,outdoor,NA,NA,NA,right,1756.40000000596,true,NA,NA,NA,NA,NA
mZBhXg6p,NA,NA,mZBhXg6p,2020-0188,2021-09-27,07:34:09,08:44:41,NA,incomplete,false,true,NA,2,19,location,i_c_001.jpg,left,indoor,outdoor,NA,NA,NA,left,1759.5,true,NA,NA,NA,NA,NA
mZBhXg6p,NA,NA,mZBhXg6p,2020-0188,2021-09-27,07:34:09,08:44:41,NA,incomplete,false,true,NA,2,20,size,m_l_004.jpg,left,large,small,NA,NA,NA,left,2507,true,NA,NA,NA,NA,NA
mZBhXg6p,NA,NA,mZBhXg6p,2020-0188,2021-09-27,07:34:09,08:44:41,NA,incomplete,false,true,NA,2,21,size,n_s_023.jpg,left,small,large,NA,NA,NA,left,988.79999999702,true,NA,NA,NA,NA,NA
mZBhXg6p,NA,NA,mZBhXg6p,2020-0188,2021-09-27,07:34:09,08:44:41,NA,incomplete,false,true,NA,2,22,size,m_s_004.jpg,right,large,small,NA,NA,NA,right,1562.5,true,NA,NA,NA,NA,NA
mZBhXg6p,NA,NA,mZBhXg6p,2020-0188,2021-09-27,07:34:09,08:44:41,NA,incomplete,false,true,NA,2,23,size,n_s_002.jpg,left,small,large,NA,NA,NA,left,816.399999991059,true,NA,NA,NA,NA,NA
mZBhXg6p,NA,NA,mZBhXg6p,2020-0188,2021-09-27,07:34:09,08:44:41,NA,incomplete,false,true,NA,2,24,size,m_s_006.jpg,left,small,large,NA,NA,NA,left,1228.90000000596,true,NA,NA,NA,NA,NA
mZBhXg6p,NA,NA,mZBhXg6p,2020-0188,2021-09-27,07:34:09,08:44:41,NA,incomplete,false,true,NA,2,25,origin,n_l_019.jpg,right,manmade,natural,NA,NA,NA,right,2885.89999999106,true,NA,NA,NA,NA,NA
mZBhXg6p,NA,NA,mZBhXg6p,2020-0188,2021-09-27,07:34:09,08:44:41,NA,incomplete,false,true,NA,2,26,origin,m_s_010.jpg,right,natural,manmade,NA,NA,NA,right,1326.09999999404,true,NA,NA,NA,NA,NA
mZBhXg6p,NA,NA,mZBhXg6p,2020-0188,2021-09-27,07:34:09,08:44:41,NA,incomplete,false,true,NA,2,27,origin,m_l_006.jpg,right,natural,manmade,NA,NA,NA,right,1413.09999999404,true,NA,NA,NA,NA,NA
mZBhXg6p,NA,NA,mZBhXg6p,2020-0188,2021-09-27,07:34:09,08:44:41,NA,incomplete,false,true,NA,2,28,origin,m_l_027.jpg,right,natural,manmade,NA,NA,NA,right,1805.79999999702,true,NA,NA,NA,NA,NA
mZBhXg6p,NA,NA,mZBhXg6p,2020-0188,2021-09-27,07:34:09,08:44:41,NA,incomplete,false,true,NA,2,29,origin,m_s_013.jpg,left,manmade,natural,NA,NA,NA,left,1782.5,true,NA,NA,NA,NA,NA
mZBhXg6p,NA,NA,mZBhXg6p,2020-0188,2021-09-27,07:34:09,08:44:41,NA,incomplete,false,NA,true,2,0,NA,NA,right,NA,NA,m_l_004.jpg,o_s_001.jpg,between-big,NA,NaN,NA,right,2272.7000000029802,1,2,2486.6000000089407
mZBhXg6p,NA,NA,mZBhXg6p,2020-0188,2021-09-27,07:34:09,08:44:41,NA,incomplete,false,NA,true,2,1,NA,NA,left,NA,NA,c_2_001.jpg,a_1_006.jpg,within,NA,NaN,NA,left,1363.7000000029802,1,0,1505.199999988079
mZBhXg6p,NA,NA,mZBhXg6p,2020-0188,2021-09-27,07:34:09,08:44:41,NA,incomplete,false,NA,true,2,2,NA,NA,right,NA,NA,c_1_009.jpg,c_2_013.jpg,between-small,NA,NaN,NA,right,3215.4000000059605,1,1,719.1000000089407
mZBhXg6p,NA,NA,mZBhXg6p,2020-0188,2021-09-27,07:34:09,08:44:41,NA,incomplete,false,NA,true,2,3,NA,NA,right,NA,NA,i_c_009.jpg,a_1_006.jpg,between-big,NA,NaN,NA,right,2592.9000000059605,1,2,1025
mZBhXg6p,NA,NA,mZBhXg6p,2020-0188,2021-09-27,07:34:09,08:44:41,NA,incomplete,false,NA,true,2,4,NA,NA,right,NA,NA,i_c_001.jpg,i_s_018.jpg,within,NA,NaN,NA,right,1842.8999999910593,1,1,1088.199999988079
mZBhXg6p,NA,NA,mZBhXg6p,2020-0188,2021-09-27,07:34:09,08:44:41,NA,incomplete,false,NA,true,2,5,NA,NA,left,NA,NA,o_c_012.jpg,i_s_001.jpg,within,NA,NaN,NA,left,3523,1,1,824.2999999970198
mZBhXg6p,NA,NA,mZBhXg6p,2020-0188,2021-09-27,07:34:09,08:44:41,NA,incomplete,false,NA,true,2,6,NA,NA,right,NA,NA,m_l_027.jpg,n_l_019.jpg,within,NA,NaN,NA,right,1423.5,1,1,873.9000000059605
mZBhXg6p,NA,NA,mZBhXg6p,2020-0188,2021-09-27,07:34:09,08:44:41,NA,incomplete,false,NA,true,2,7,NA,NA,right,NA,NA,c_2_002.jpg,a_1_027.jpg,between-small,NA,NaN,NA,left,1296.3999999910593,0,1,810
mZBhXg6p,NA,NA,mZBhXg6p,2020-0188,2021-09-27,07:34:09,08:44:41,NA,incomplete,false,NA,true,2,8,NA,NA,left,NA,NA,i_c_023.jpg,i_s_018.jpg,between-small,NA,NaN,NA,right,2210.800000011921,0,1,830.6999999880791
mZBhXg6p,NA,NA,mZBhXg6p,2020-0188,2021-09-27,07:34:09,08:44:41,NA,incomplete,false,NA,true,2,9,NA,NA,left,NA,NA,m_l_004.jpg,n_s_002.jpg,within,NA,NaN,NA,left,1464,1,1,697
mZBhXg6p,NA,NA,mZBhXg6p,2020-0188,2021-09-27,07:34:09,08:44:41,NA,incomplete,false,NA,true,2,10,NA,NA,right,NA,NA,c_2_001.jpg,c_2_024.jpg,between-small,NA,NaN,NA,left,3444.0999999940395,0,1,668.7999999970198
mZBhXg6p,NA,NA,mZBhXg6p,2020-0188,2021-09-27,07:34:09,08:44:41,NA,incomplete,false,NA,true,2,11,NA,NA,left,NA,NA,m_s_006.jpg,m_l_006.jpg,between-small,NA,NaN,NA,left,2066,1,0,838.6000000089407
mZBhXg6p,NA,NA,mZBhXg6p,2020-0188,2021-09-27,07:34:09,08:44:41,NA,incomplete,false,NA,true,2,12,NA,NA,left,NA,NA,c_1_009.jpg,a_2_016.jpg,within,NA,NaN,NA,left,2129.7999999970198,1,0,903.5
mZBhXg6p,NA,NA,mZBhXg6p,2020-0188,2021-09-27,07:34:09,08:44:41,NA,incomplete,false,NA,true,2,13,NA,NA,right,NA,NA,c_2_024.jpg,c_1_027.jpg,within,NA,NaN,NA,left,2199.4000000059605,0,1,1952.9000000059605
mZBhXg6p,NA,NA,mZBhXg6p,2020-0188,2021-09-27,07:34:09,08:44:41,NA,incomplete,false,NA,true,2,14,NA,NA,left,NA,NA,o_c_010.jpg,i_c_023.jpg,within,NA,NaN,NA,left,2485.7000000029802,1,1,1290.5
mZBhXg6p,NA,NA,mZBhXg6p,2020-0188,2021-09-27,07:34:09,08:44:41,NA,incomplete,false,NA,true,2,15,NA,NA,left,NA,NA,o_c_021.jpg,n_s_023.jpg,between-big,NA,NaN,NA,left,2809.8999999910593,1,1,1433
mZBhXg6p,NA,NA,mZBhXg6p,2020-0188,2021-09-27,07:34:09,08:44:41,NA,incomplete,false,NA,true,2,16,NA,NA,left,NA,NA,m_s_010.jpg,m_s_013.jpg,within,NA,NaN,NA,left,1796.2999999970198,1,0,1936.5999999940395
mZBhXg6p,NA,NA,mZBhXg6p,2020-0188,2021-09-27,07:34:09,08:44:41,NA,incomplete,false,NA,true,2,17,NA,NA,left,NA,NA,m_s_004.jpg,n_l_019.jpg,between-small,NA,NaN,NA,right,2253.2999999970198,0,1,1058.0999999940395
mZBhXg6p,NA,NA,mZBhXg6p,2020-0188,2021-09-27,07:34:09,08:44:41,NA,incomplete,false,NA,true,2,18,NA,NA,left,NA,NA,i_s_014.jpg,o_c_021.jpg,within,NA,NaN,NA,left,2126.7000000029802,1,1,1432
mZBhXg6p,NA,NA,mZBhXg6p,2020-0188,2021-09-27,07:34:09,08:44:41,NA,incomplete,false,NA,true,2,19,NA,NA,right,NA,NA,o_c_010.jpg,c_2_002.jpg,between-big,NA,NaN,NA,right,2679.5999999940395,1,1,1933.2000000029802
mZBhXg6p,NA,NA,mZBhXg6p,2020-0188,2021-09-27,07:34:09,08:44:41,NA,incomplete,false,NA,true,2,20,NA,NA,right,NA,NA,m_s_010.jpg,n_s_002.jpg,between-small,NA,NaN,NA,left,1977.8999999910593,0,0,1020
mZBhXg6p,NA,NA,mZBhXg6p,2020-0188,2021-09-27,07:34:09,08:44:41,NA,incomplete,false,NA,true,2,21,NA,NA,right,NA,NA,i_s_014.jpg,i_c_009.jpg,between-small,NA,NaN,NA,left,1705.7000000029802,0,0,925.2999999970198
mZBhXg6p,NA,NA,mZBhXg6p,2020-0188,2021-09-27,07:34:09,08:44:41,NA,incomplete,false,NA,true,2,22,NA,NA,right,NA,NA,o_c_012.jpg,a_2_016.jpg,between-big,NA,NaN,NA,right,1287.2999999970198,1,1,896.5
mZBhXg6p,NA,NA,mZBhXg6p,2020-0188,2021-09-27,07:34:09,08:44:41,NA,incomplete,false,NA,true,2,23,NA,NA,right,NA,NA,a_1_027.jpg,c_1_012.jpg,within,NA,NaN,NA,right,1692.4000000059605,1,0,1134
mZBhXg6p,NA,NA,mZBhXg6p,2020-0188,2021-09-27,07:34:09,08:44:41,NA,incomplete,false,NA,true,2,24,NA,NA,left,NA,NA,n_s_023.jpg,m_s_006.jpg,within,NA,NaN,NA,right,1087.9000000059605,0,1,752.4000000059605
mZBhXg6p,NA,NA,mZBhXg6p,2020-0188,2021-09-27,07:34:09,08:44:41,NA,incomplete,false,NA,true,2,25,NA,NA,right,NA,NA,o_s_001.jpg,i_s_001.jpg,between-small,NA,NaN,NA,left,2721.9000000059605,0,0,884.5
mZBhXg6p,NA,NA,mZBhXg6p,2020-0188,2021-09-27,07:34:09,08:44:41,NA,incomplete,false,NA,true,2,26,NA,NA,right,NA,NA,m_s_004.jpg,i_c_001.jpg,between-big,NA,NaN,NA,right,1746.2000000029802,1,2,1173
mZBhXg6p,NA,NA,mZBhXg6p,2020-0188,2021-09-27,07:34:09,08:44:41,NA,incomplete,false,true,NA,3,0,syllable,c_2_028.jpg,right,2 syllables,1 syllable,NA,NA,NA,left,2555.79999999702,false,NA,NA,NA,NA,NA
mZBhXg6p,NA,NA,mZBhXg6p,2020-0188,2021-09-27,07:34:09,08:44:41,NA,incomplete,false,true,NA,3,1,syllable,c_1_006.jpg,right,2 syllables,1 syllable,NA,NA,NA,right,1047.90000000596,true,NA,NA,NA,NA,NA
mZBhXg6p,NA,NA,mZBhXg6p,2020-0188,2021-09-27,07:34:09,08:44:41,NA,incomplete,false,true,NA,3,2,syllable,a_2_010.jpg,right,1 syllable,2 syllables,NA,NA,NA,right,1074.79999999702,true,NA,NA,NA,NA,NA
mZBhXg6p,NA,NA,mZBhXg6p,2020-0188,2021-09-27,07:34:09,08:44:41,NA,incomplete,false,true,NA,3,3,syllable,c_1_020.jpg,right,2 syllables,1 syllable,NA,NA,NA,right,1234.90000000596,true,NA,NA,NA,NA,NA
mZBhXg6p,NA,NA,mZBhXg6p,2020-0188,2021-09-27,07:34:09,08:44:41,NA,incomplete,false,true,NA,3,4,syllable,c_1_017.jpg,right,1 syllable,2 syllables,NA,NA,NA,left,1285.60000000894,false,NA,NA,NA,NA,NA
mZBhXg6p,NA,NA,mZBhXg6p,2020-0188,2021-09-27,07:34:09,08:44:41,NA,incomplete,false,true,NA,3,5,abstractness,a_2_007.jpg,right,concrete,abstract,NA,NA,NA,left,3144.20000000298,false,NA,NA,NA,NA,NA
mZBhXg6p,NA,NA,mZBhXg6p,2020-0188,2021-09-27,07:34:09,08:44:41,NA,incomplete,false,true,NA,3,6,abstractness,a_2_028.jpg,right,concrete,abstract,NA,NA,NA,left,2513.59999999404,false,NA,NA,NA,NA,NA
mZBhXg6p,NA,NA,mZBhXg6p,2020-0188,2021-09-27,07:34:09,08:44:41,NA,incomplete,false,true,NA,3,7,abstractness,c_2_009.jpg,right,abstract,concrete,NA,NA,NA,right,3304.09999999404,true,NA,NA,NA,NA,NA
mZBhXg6p,NA,NA,mZBhXg6p,2020-0188,2021-09-27,07:34:09,08:44:41,NA,incomplete,false,true,NA,3,8,abstractness,c_1_024.jpg,left,concrete,abstract,NA,NA,NA,left,2769,true,NA,NA,NA,NA,NA
mZBhXg6p,NA,NA,mZBhXg6p,2020-0188,2021-09-27,07:34:09,08:44:41,NA,incomplete,false,true,NA,3,9,abstractness,c_1_019.jpg,right,abstract,concrete,NA,NA,NA,right,1318.5,true,NA,NA,NA,NA,NA
mZBhXg6p,NA,NA,mZBhXg6p,2020-0188,2021-09-27,07:34:09,08:44:41,NA,incomplete,false,true,NA,3,10,building,o_s_027.jpg,left,skyscraper,cottage,NA,NA,NA,left,1378.89999999106,true,NA,NA,NA,NA,NA
mZBhXg6p,NA,NA,mZBhXg6p,2020-0188,2021-09-27,07:34:09,08:44:41,NA,incomplete,false,true,NA,3,11,building,o_c_009.jpg,left,cottage,skyscraper,NA,NA,NA,left,1026.09999999404,true,NA,NA,NA,NA,NA
mZBhXg6p,NA,NA,mZBhXg6p,2020-0188,2021-09-27,07:34:09,08:44:41,NA,incomplete,false,true,NA,3,12,building,o_c_019.jpg,right,skyscraper,cottage,NA,NA,NA,right,1233,true,NA,NA,NA,NA,NA
mZBhXg6p,NA,NA,mZBhXg6p,2020-0188,2021-09-27,07:34:09,08:44:41,NA,incomplete,false,true,NA,3,13,building,i_c_013.jpg,right,skyscraper,cottage,NA,NA,NA,right,984.5,true,NA,NA,NA,NA,NA
mZBhXg6p,NA,NA,mZBhXg6p,2020-0188,2021-09-27,07:34:09,08:44:41,NA,incomplete,false,true,NA,3,14,building,i_s_011.jpg,right,cottage,skyscraper,NA,NA,NA,right,1165.90000000596,true,NA,NA,NA,NA,NA
mZBhXg6p,NA,NA,mZBhXg6p,2020-0188,2021-09-27,07:34:09,08:44:41,NA,incomplete,false,true,NA,3,15,location,o_s_024.jpg,right,indoor,outdoor,NA,NA,NA,right,2039.29999999702,true,NA,NA,NA,NA,NA
mZBhXg6p,NA,NA,mZBhXg6p,2020-0188,2021-09-27,07:34:09,08:44:41,NA,incomplete,false,true,NA,3,16,location,i_c_010.jpg,left,indoor,outdoor,NA,NA,NA,left,1256.59999999404,true,NA,NA,NA,NA,NA
mZBhXg6p,NA,NA,mZBhXg6p,2020-0188,2021-09-27,07:34:09,08:44:41,NA,incomplete,false,true,NA,3,17,location,i_s_028.jpg,left,indoor,outdoor,NA,NA,NA,left,1621.5,true,NA,NA,NA,NA,NA
mZBhXg6p,NA,NA,mZBhXg6p,2020-0188,2021-09-27,07:34:09,08:44:41,NA,incomplete,false,true,NA,3,18,location,o_c_023.jpg,left,outdoor,indoor,NA,NA,NA,left,1689.59999999404,true,NA,NA,NA,NA,NA
mZBhXg6p,NA,NA,mZBhXg6p,2020-0188,2021-09-27,07:34:09,08:44:41,NA,incomplete,false,true,NA,3,19,location,i_c_004.jpg,left,indoor,outdoor,NA,NA,NA,left,1774.5,true,NA,NA,NA,NA,NA
mZBhXg6p,NA,NA,mZBhXg6p,2020-0188,2021-09-27,07:34:09,08:44:41,NA,incomplete,false,true,NA,3,20,origin,n_s_024.jpg,left,natural,manmade,NA,NA,NA,left,1538.90000000596,true,NA,NA,NA,NA,NA
mZBhXg6p,NA,NA,mZBhXg6p,2020-0188,2021-09-27,07:34:09,08:44:41,NA,incomplete,false,true,NA,3,21,origin,m_l_003.jpg,left,manmade,natural,NA,NA,NA,left,1204,true,NA,NA,NA,NA,NA
mZBhXg6p,NA,NA,mZBhXg6p,2020-0188,2021-09-27,07:34:09,08:44:41,NA,incomplete,false,true,NA,3,22,origin,n_s_006.jpg,right,manmade,natural,NA,NA,NA,right,1983.70000000298,true,NA,NA,NA,NA,NA
mZBhXg6p,NA,NA,mZBhXg6p,2020-0188,2021-09-27,07:34:09,08:44:41,NA,incomplete,false,true,NA,3,23,origin,n_s_005.jpg,left,natural,manmade,NA,NA,NA,left,1242.59999999404,true,NA,NA,NA,NA,NA
mZBhXg6p,NA,NA,mZBhXg6p,2020-0188,2021-09-27,07:34:09,08:44:41,NA,incomplete,false,true,NA,3,24,origin,n_l_014.jpg,left,natural,manmade,NA,NA,NA,left,2058.5,true,NA,NA,NA,NA,NA
mZBhXg6p,NA,NA,mZBhXg6p,2020-0188,2021-09-27,07:34:09,08:44:41,NA,incomplete,false,true,NA,3,25,size,n_l_002.jpg,right,small,large,NA,NA,NA,right,1511.69999998808,true,NA,NA,NA,NA,NA
mZBhXg6p,NA,NA,mZBhXg6p,2020-0188,2021-09-27,07:34:09,08:44:41,NA,incomplete,false,true,NA,3,26,size,m_s_009.jpg,right,large,small,NA,NA,NA,right,1791.40000000596,true,NA,NA,NA,NA,NA
mZBhXg6p,NA,NA,mZBhXg6p,2020-0188,2021-09-27,07:34:09,08:44:41,NA,incomplete,false,true,NA,3,27,size,m_s_014.jpg,right,large,small,NA,NA,NA,right,1317,true,NA,NA,NA,NA,NA
mZBhXg6p,NA,NA,mZBhXg6p,2020-0188,2021-09-27,07:34:09,08:44:41,NA,incomplete,false,true,NA,3,28,size,n_s_022.jpg,right,large,small,NA,NA,NA,right,1467.10000000894,true,NA,NA,NA,NA,NA
mZBhXg6p,NA,NA,mZBhXg6p,2020-0188,2021-09-27,07:34:09,08:44:41,NA,incomplete,false,true,NA,3,29,size,n_l_018.jpg,right,small,large,NA,NA,NA,right,1540.29999999702,true,NA,NA,NA,NA,NA
mZBhXg6p,NA,NA,mZBhXg6p,2020-0188,2021-09-27,07:34:09,08:44:41,NA,incomplete,false,NA,true,3,0,NA,NA,right,NA,NA,c_1_024.jpg,a_2_007.jpg,within,NA,NaN,NA,right,4341.70000000298,1,1,1261.2999999970198
mZBhXg6p,NA,NA,mZBhXg6p,2020-0188,2021-09-27,07:34:09,08:44:41,NA,incomplete,false,NA,true,3,1,NA,NA,right,NA,NA,i_c_004.jpg,i_c_010.jpg,within,NA,NaN,NA,left,1657.7999999970198,0,0,1059.3999999910593
mZBhXg6p,NA,NA,mZBhXg6p,2020-0188,2021-09-27,07:34:09,08:44:41,NA,incomplete,false,NA,true,3,2,NA,NA,right,NA,NA,o_c_023.jpg,o_s_024.jpg,within,NA,NaN,NA,right,1954,1,1,1154.9000000059605
mZBhXg6p,NA,NA,mZBhXg6p,2020-0188,2021-09-27,07:34:09,08:44:41,NA,incomplete,false,NA,true,3,3,NA,NA,left,NA,NA,c_1_017.jpg,c_2_009.jpg,between-small,NA,NaN,NA,left,1609.9000000059605,1,1,1821.7999999970198
mZBhXg6p,NA,NA,mZBhXg6p,2020-0188,2021-09-27,07:34:09,08:44:41,NA,incomplete,false,NA,true,3,4,NA,NA,right,NA,NA,m_s_014.jpg,n_l_014.jpg,between-small,NA,NaN,NA,left,2014.7999999970198,0,0,933.5
mZBhXg6p,NA,NA,mZBhXg6p,2020-0188,2021-09-27,07:34:09,08:44:41,NA,incomplete,false,NA,true,3,5,NA,NA,right,NA,NA,i_c_013.jpg,o_s_027.jpg,within,NA,NaN,NA,right,1201.699999988079,1,1,1067.2000000029802
mZBhXg6p,NA,NA,mZBhXg6p,2020-0188,2021-09-27,07:34:09,08:44:41,NA,incomplete,false,NA,true,3,6,NA,NA,left,NA,NA,i_c_013.jpg,i_c_010.jpg,between-small,NA,NaN,NA,left,2041,1,0,1175
mZBhXg6p,NA,NA,mZBhXg6p,2020-0188,2021-09-27,07:34:09,08:44:41,NA,incomplete,false,NA,true,3,7,NA,NA,left,NA,NA,n_l_002.jpg,n_s_022.jpg,within,NA,NaN,NA,left,4420.20000000298,1,0,2334.2000000029802
mZBhXg6p,NA,NA,mZBhXg6p,2020-0188,2021-09-27,07:34:09,08:44:41,NA,incomplete,false,NA,true,3,8,NA,NA,right,NA,NA,i_s_028.jpg,i_s_011.jpg,between-small,NA,NaN,NA,right,1222.3999999910593,1,1,1048.5
mZBhXg6p,NA,NA,mZBhXg6p,2020-0188,2021-09-27,07:34:09,08:44:41,NA,incomplete,false,NA,true,3,9,NA,NA,left,NA,NA,i_c_004.jpg,n_s_006.jpg,between-big,NA,NaN,NA,right,2386.9000000059605,0,1,1738.2999999970198
mZBhXg6p,NA,NA,mZBhXg6p,2020-0188,2021-09-27,07:34:09,08:44:41,NA,incomplete,false,NA,true,3,10,NA,NA,left,NA,NA,a_2_010.jpg,a_2_007.jpg,between-small,NA,NaN,NA,left,1219.2999999970198,1,0,1627.2999999970198
mZBhXg6p,NA,NA,mZBhXg6p,2020-0188,2021-09-27,07:34:09,08:44:41,NA,incomplete,false,NA,true,3,11,NA,NA,left,NA,NA,c_1_006.jpg,c_1_017.jpg,within,NA,NaN,NA,right,1320.7000000029802,0,1,1099.2000000029802
mZBhXg6p,NA,NA,mZBhXg6p,2020-0188,2021-09-27,07:34:09,08:44:41,NA,incomplete,false,NA,true,3,12,NA,NA,right,NA,NA,n_s_005.jpg,n_s_024.jpg,within,NA,NaN,NA,right,1922.2999999970198,1,1,856.5
mZBhXg6p,NA,NA,mZBhXg6p,2020-0188,2021-09-27,07:34:09,08:44:41,NA,incomplete,false,NA,true,3,13,NA,NA,right,NA,NA,n_l_018.jpg,m_s_009.jpg,within,NA,NaN,NA,left,1071,0,0,910.8999999910593
mZBhXg6p,NA,NA,mZBhXg6p,2020-0188,2021-09-27,07:34:09,08:44:41,NA,incomplete,false,NA,true,3,14,NA,NA,left,NA,NA,m_l_003.jpg,n_l_014.jpg,within,NA,NaN,NA,left,1600.2000000029802,1,1,760
mZBhXg6p,NA,NA,mZBhXg6p,2020-0188,2021-09-27,07:34:09,08:44:41,NA,incomplete,false,NA,true,3,15,NA,NA,right,NA,NA,n_s_024.jpg,i_s_028.jpg,between-big,NA,NaN,NA,right,1304.0999999940395,1,1,952
mZBhXg6p,NA,NA,mZBhXg6p,2020-0188,2021-09-27,07:34:09,08:44:41,NA,incomplete,false,NA,true,3,16,NA,NA,right,NA,NA,n_l_002.jpg,n_s_006.jpg,between-small,NA,NaN,NA,left,1045.2000000029802,0,0,776.3000000119209
mZBhXg6p,NA,NA,mZBhXg6p,2020-0188,2021-09-27,07:34:09,08:44:41,NA,incomplete,false,NA,true,3,17,NA,NA,left,NA,NA,c_1_020.jpg,a_2_028.jpg,between-small,NA,NaN,NA,right,1424.3999999910593,0,1,1024.7000000029802
mZBhXg6p,NA,NA,mZBhXg6p,2020-0188,2021-09-27,07:34:09,08:44:41,NA,incomplete,false,NA,true,3,18,NA,NA,left,NA,NA,c_2_009.jpg,o_s_027.jpg,between-big,NA,NaN,NA,left,1417.2999999970198,1,1,1355.7000000029802
mZBhXg6p,NA,NA,mZBhXg6p,2020-0188,2021-09-27,07:34:09,08:44:41,NA,incomplete,false,NA,true,3,19,NA,NA,left,NA,NA,o_c_019.jpg,o_s_024.jpg,between-small,NA,NaN,NA,left,1382.199999988079,1,0,1037.9000000059605
mZBhXg6p,NA,NA,mZBhXg6p,2020-0188,2021-09-27,07:34:09,08:44:41,NA,incomplete,false,NA,true,3,20,NA,NA,right,NA,NA,m_l_003.jpg,o_c_023.jpg,between-big,NA,NaN,NA,right,1510.7000000029802,1,1,872.7000000029802
mZBhXg6p,NA,NA,mZBhXg6p,2020-0188,2021-09-27,07:34:09,08:44:41,NA,incomplete,false,NA,true,3,21,NA,NA,right,NA,NA,i_s_011.jpg,o_c_009.jpg,within,NA,NaN,NA,left,1132.6000000089407,0,1,1042.5
mZBhXg6p,NA,NA,mZBhXg6p,2020-0188,2021-09-27,07:34:09,08:44:41,NA,incomplete,false,NA,true,3,22,NA,NA,left,NA,NA,a_2_028.jpg,c_1_019.jpg,within,NA,NaN,NA,left,1489.1000000089407,1,0,1113.2000000029802
mZBhXg6p,NA,NA,mZBhXg6p,2020-0188,2021-09-27,07:34:09,08:44:41,NA,incomplete,false,NA,true,3,23,NA,NA,left,NA,NA,c_1_024.jpg,o_c_009.jpg,between-big,NA,NaN,NA,left,1093.2000000029802,1,1,1385.800000011921
mZBhXg6p,NA,NA,mZBhXg6p,2020-0188,2021-09-27,07:34:09,08:44:41,NA,incomplete,false,NA,true,3,24,NA,NA,left,NA,NA,n_s_005.jpg,m_s_009.jpg,between-small,NA,NaN,NA,left,1225.5,1,0,1193.2999999970198
mZBhXg6p,NA,NA,mZBhXg6p,2020-0188,2021-09-27,07:34:09,08:44:41,NA,incomplete,false,NA,true,3,25,NA,NA,right,NA,NA,c_1_020.jpg,c_2_028.jpg,within,NA,NaN,NA,right,1622.7999999970198,1,1,900.8999999910593
mZBhXg6p,NA,NA,mZBhXg6p,2020-0188,2021-09-27,07:34:09,08:44:41,NA,incomplete,false,NA,true,3,26,NA,NA,right,NA,NA,o_c_019.jpg,c_1_019.jpg,between-big,NA,NaN,NA,right,2061.9000000059605,1,1,899.0999999940395
mZBhXg6p,NA,NA,mZBhXg6p,2020-0188,2021-09-27,07:34:09,08:44:41,NA,incomplete,false,true,NA,4,0,building,o_s_003.jpg,left,skyscraper,cottage,NA,NA,NA,left,1235.90000000596,true,NA,NA,NA,NA,NA
mZBhXg6p,NA,NA,mZBhXg6p,2020-0188,2021-09-27,07:34:09,08:44:41,NA,incomplete,false,true,NA,4,1,building,o_c_026.jpg,right,skyscraper,cottage,NA,NA,NA,right,1795.90000000596,true,NA,NA,NA,NA,NA
mZBhXg6p,NA,NA,mZBhXg6p,2020-0188,2021-09-27,07:34:09,08:44:41,NA,incomplete,false,true,NA,4,2,building,i_c_012.jpg,left,cottage,skyscraper,NA,NA,NA,left,928.09999999404,true,NA,NA,NA,NA,NA
mZBhXg6p,NA,NA,mZBhXg6p,2020-0188,2021-09-27,07:34:09,08:44:41,NA,incomplete,false,true,NA,4,3,building,o_s_011.jpg,left,skyscraper,cottage,NA,NA,NA,left,849.699999988079,true,NA,NA,NA,NA,NA
mZBhXg6p,NA,NA,mZBhXg6p,2020-0188,2021-09-27,07:34:09,08:44:41,NA,incomplete,false,true,NA,4,4,building,o_s_012.jpg,right,cottage,skyscraper,NA,NA,NA,right,970,true,NA,NA,NA,NA,NA
mZBhXg6p,NA,NA,mZBhXg6p,2020-0188,2021-09-27,07:34:09,08:44:41,NA,incomplete,false,true,NA,4,5,location,i_s_009.jpg,right,outdoor,indoor,NA,NA,NA,right,1731.5,true,NA,NA,NA,NA,NA
mZBhXg6p,NA,NA,mZBhXg6p,2020-0188,2021-09-27,07:34:09,08:44:41,NA,incomplete,false,true,NA,4,6,location,o_s_016.jpg,left,outdoor,indoor,NA,NA,NA,left,1476.5,true,NA,NA,NA,NA,NA
mZBhXg6p,NA,NA,mZBhXg6p,2020-0188,2021-09-27,07:34:09,08:44:41,NA,incomplete,false,true,NA,4,7,location,o_c_017.jpg,left,outdoor,indoor,NA,NA,NA,left,1742.90000000596,true,NA,NA,NA,NA,NA
mZBhXg6p,NA,NA,mZBhXg6p,2020-0188,2021-09-27,07:34:09,08:44:41,NA,incomplete,false,true,NA,4,8,location,i_c_011.jpg,left,indoor,outdoor,NA,NA,NA,left,1430.29999999702,true,NA,NA,NA,NA,NA
mZBhXg6p,NA,NA,mZBhXg6p,2020-0188,2021-09-27,07:34:09,08:44:41,NA,incomplete,false,true,NA,4,9,location,o_s_004.jpg,right,indoor,outdoor,NA,NA,NA,right,1188.89999999106,true,NA,NA,NA,NA,NA
mZBhXg6p,NA,NA,mZBhXg6p,2020-0188,2021-09-27,07:34:09,08:44:41,NA,incomplete,false,true,NA,4,10,syllable,c_1_018.jpg,right,1 syllable,2 syllables,NA,NA,NA,left,2837.20000000298,false,NA,NA,NA,NA,NA
mZBhXg6p,NA,NA,mZBhXg6p,2020-0188,2021-09-27,07:34:09,08:44:41,NA,incomplete,false,true,NA,4,11,syllable,a_1_028.jpg,right,1 syllable,2 syllables,NA,NA,NA,left,1038.79999999702,false,NA,NA,NA,NA,NA
mZBhXg6p,NA,NA,mZBhXg6p,2020-0188,2021-09-27,07:34:09,08:44:41,NA,incomplete,false,true,NA,4,12,syllable,a_2_024.jpg,right,2 syllables,1 syllable,NA,NA,NA,left,1514.5,false,NA,NA,NA,NA,NA
mZBhXg6p,NA,NA,mZBhXg6p,2020-0188,2021-09-27,07:34:09,08:44:41,NA,incomplete,false,true,NA,4,13,syllable,a_1_001.jpg,right,1 syllable,2 syllables,NA,NA,NA,left,971,false,NA,NA,NA,NA,NA
mZBhXg6p,NA,NA,mZBhXg6p,2020-0188,2021-09-27,07:34:09,08:44:41,NA,incomplete,false,true,NA,4,14,syllable,a_2_018.jpg,right,1 syllable,2 syllables,NA,NA,NA,right,1087.90000000596,true,NA,NA,NA,NA,NA
mZBhXg6p,NA,NA,mZBhXg6p,2020-0188,2021-09-27,07:34:09,08:44:41,NA,incomplete,false,true,NA,4,15,abstractness,a_1_004.jpg,left,abstract,concrete,NA,NA,NA,right,2074.20000000298,false,NA,NA,NA,NA,NA
mZBhXg6p,NA,NA,mZBhXg6p,2020-0188,2021-09-27,07:34:09,08:44:41,NA,incomplete,false,true,NA,4,16,abstractness,a_1_016.jpg,left,abstract,concrete,NA,NA,NA,left,2351.39999999106,true,NA,NA,NA,NA,NA
mZBhXg6p,NA,NA,mZBhXg6p,2020-0188,2021-09-27,07:34:09,08:44:41,NA,incomplete,false,true,NA,4,17,abstractness,c_1_004.jpg,left,concrete,abstract,NA,NA,NA,left,1143.5,true,NA,NA,NA,NA,NA
mZBhXg6p,NA,NA,mZBhXg6p,2020-0188,2021-09-27,07:34:09,08:44:41,NA,incomplete,false,true,NA,4,18,abstractness,c_1_021.jpg,right,abstract,concrete,NA,NA,NA,right,1788.89999999106,true,NA,NA,NA,NA,NA
mZBhXg6p,NA,NA,mZBhXg6p,2020-0188,2021-09-27,07:34:09,08:44:41,NA,incomplete,false,true,NA,4,19,abstractness,c_2_014.jpg,left,concrete,abstract,NA,NA,NA,left,1955.5,true,NA,NA,NA,NA,NA
mZBhXg6p,NA,NA,mZBhXg6p,2020-0188,2021-09-27,07:34:09,08:44:41,NA,incomplete,false,true,NA,4,20,size,n_s_015.jpg,right,large,small,NA,NA,NA,right,1030.5,true,NA,NA,NA,NA,NA
mZBhXg6p,NA,NA,mZBhXg6p,2020-0188,2021-09-27,07:34:09,08:44:41,NA,incomplete,false,true,NA,4,21,size,m_s_017.jpg,left,small,large,NA,NA,NA,left,1211.30000001192,true,NA,NA,NA,NA,NA
mZBhXg6p,NA,NA,mZBhXg6p,2020-0188,2021-09-27,07:34:09,08:44:41,NA,incomplete,false,true,NA,4,22,size,m_l_008.jpg,right,small,large,NA,NA,NA,right,1233.29999999702,true,NA,NA,NA,NA,NA
mZBhXg6p,NA,NA,mZBhXg6p,2020-0188,2021-09-27,07:34:09,08:44:41,NA,incomplete,false,true,NA,4,23,size,n_s_021.jpg,right,large,small,NA,NA,NA,right,1018.79999999702,true,NA,NA,NA,NA,NA
mZBhXg6p,NA,NA,mZBhXg6p,2020-0188,2021-09-27,07:34:09,08:44:41,NA,incomplete,false,true,NA,4,24,size,m_s_016.jpg,right,large,small,NA,NA,NA,right,1013.39999999106,true,NA,NA,NA,NA,NA
mZBhXg6p,NA,NA,mZBhXg6p,2020-0188,2021-09-27,07:34:09,08:44:41,NA,incomplete,false,true,NA,4,25,origin,n_s_012.jpg,right,manmade,natural,NA,NA,NA,right,872.300000011921,true,NA,NA,NA,NA,NA
mZBhXg6p,NA,NA,mZBhXg6p,2020-0188,2021-09-27,07:34:09,08:44:41,NA,incomplete,false,true,NA,4,26,origin,m_l_005.jpg,right,natural,manmade,NA,NA,NA,right,2150.69999998808,true,NA,NA,NA,NA,NA
mZBhXg6p,NA,NA,mZBhXg6p,2020-0188,2021-09-27,07:34:09,08:44:41,NA,incomplete,false,true,NA,4,27,origin,m_s_005.jpg,left,manmade,natural,NA,NA,NA,none,0,false,NA,NA,NA,NA,NA
mZBhXg6p,NA,NA,mZBhXg6p,2020-0188,2021-09-27,07:34:09,08:44:41,NA,incomplete,false,true,NA,4,28,origin,m_l_007.jpg,left,manmade,natural,NA,NA,NA,left,1259.29999999702,true,NA,NA,NA,NA,NA
mZBhXg6p,NA,NA,mZBhXg6p,2020-0188,2021-09-27,07:34:09,08:44:41,NA,incomplete,false,true,NA,4,29,origin,n_l_024.jpg,right,manmade,natural,NA,NA,NA,right,1072.5,true,NA,NA,NA,NA,NA
mZBhXg6p,NA,NA,mZBhXg6p,2020-0188,2021-09-27,07:34:09,08:44:41,NA,incomplete,false,NA,true,4,0,NA,NA,left,NA,NA,m_l_005.jpg,n_l_024.jpg,within,NA,NaN,NA,right,4161.5,0,1,837.7999999970198
mZBhXg6p,NA,NA,mZBhXg6p,2020-0188,2021-09-27,07:34:09,08:44:41,NA,incomplete,false,NA,true,4,1,NA,NA,left,NA,NA,m_s_016.jpg,m_s_005.jpg,between-small,NA,NaN,NA,left,4917.29999999702,1,1,1076.2999999970198
mZBhXg6p,NA,NA,mZBhXg6p,2020-0188,2021-09-27,07:34:09,08:44:41,NA,incomplete,false,NA,true,4,2,NA,NA,right,NA,NA,n_s_021.jpg,n_s_015.jpg,within,NA,NaN,NA,right,1421.9000000059605,1,1,758.7000000029802
mZBhXg6p,NA,NA,mZBhXg6p,2020-0188,2021-09-27,07:34:09,08:44:41,NA,incomplete,false,NA,true,4,3,NA,NA,left,NA,NA,o_s_016.jpg,o_s_004.jpg,within,NA,NaN,NA,right,1640.4000000059605,0,1,772.2999999970198
mZBhXg6p,NA,NA,mZBhXg6p,2020-0188,2021-09-27,07:34:09,08:44:41,NA,incomplete,false,NA,true,4,4,NA,NA,right,NA,NA,a_1_016.jpg,a_1_001.jpg,between-small,NA,NaN,NA,left,1270.5,0,0,1379.2999999970198
mZBhXg6p,NA,NA,mZBhXg6p,2020-0188,2021-09-27,07:34:09,08:44:41,NA,incomplete,false,NA,true,4,5,NA,NA,right,NA,NA,n_s_012.jpg,m_l_008.jpg,between-small,NA,NaN,NA,right,1310.7999999970198,1,1,891.7999999970198
mZBhXg6p,NA,NA,mZBhXg6p,2020-0188,2021-09-27,07:34:09,08:44:41,NA,incomplete,false,NA,true,4,6,NA,NA,right,NA,NA,c_1_004.jpg,a_2_018.jpg,between-small,NA,NaN,NA,right,2577.0999999940395,1,1,777.7999999970198
mZBhXg6p,NA,NA,mZBhXg6p,2020-0188,2021-09-27,07:34:09,08:44:41,NA,incomplete,false,NA,true,4,7,NA,NA,right,NA,NA,a_1_028.jpg,i_c_011.jpg,between-big,NA,NaN,NA,right,1585.9000000059605,1,1,982.2999999970198
mZBhXg6p,NA,NA,mZBhXg6p,2020-0188,2021-09-27,07:34:09,08:44:41,NA,incomplete,false,NA,true,4,8,NA,NA,left,NA,NA,c_2_014.jpg,m_l_008.jpg,between-big,NA,NaN,NA,left,1574.5999999940395,1,1,996.5999999940395
mZBhXg6p,NA,NA,mZBhXg6p,2020-0188,2021-09-27,07:34:09,08:44:41,NA,incomplete,false,NA,true,4,9,NA,NA,left,NA,NA,c_1_021.jpg,m_s_017.jpg,between-big,NA,NaN,NA,left,1538.2000000029802,1,1,983.2999999970198
mZBhXg6p,NA,NA,mZBhXg6p,2020-0188,2021-09-27,07:34:09,08:44:41,NA,incomplete,false,NA,true,4,10,NA,NA,right,NA,NA,a_1_001.jpg,c_1_018.jpg,within,NA,NaN,NA,right,2107.3999999910593,1,1,702.6999999880791
mZBhXg6p,NA,NA,mZBhXg6p,2020-0188,2021-09-27,07:34:09,08:44:41,NA,incomplete,false,NA,true,4,11,NA,NA,left,NA,NA,o_c_026.jpg,o_s_012.jpg,within,NA,NaN,NA,left,3957.7000000029802,1,1,833.5999999940395
mZBhXg6p,NA,NA,mZBhXg6p,2020-0188,2021-09-27,07:34:09,08:44:41,NA,incomplete,false,NA,true,4,12,NA,NA,left,NA,NA,n_s_021.jpg,m_l_005.jpg,between-small,NA,NaN,NA,left,1156.2999999970198,1,1,793.2000000029802
mZBhXg6p,NA,NA,mZBhXg6p,2020-0188,2021-09-27,07:34:09,08:44:41,NA,incomplete,false,NA,true,4,13,NA,NA,right,NA,NA,a_2_024.jpg,o_s_004.jpg,between-big,NA,NaN,NA,right,1289.0999999940395,1,1,1127.4000000059605
mZBhXg6p,NA,NA,mZBhXg6p,2020-0188,2021-09-27,07:34:09,08:44:41,NA,incomplete,false,NA,true,4,14,NA,NA,left,NA,NA,a_1_028.jpg,a_2_018.jpg,within,NA,NaN,NA,left,973.1000000089407,1,1,1826.9000000059605
mZBhXg6p,NA,NA,mZBhXg6p,2020-0188,2021-09-27,07:34:09,08:44:41,NA,incomplete,false,NA,true,4,15,NA,NA,right,NA,NA,c_1_018.jpg,o_c_017.jpg,between-big,NA,NaN,NA,right,1704.300000011921,1,2,903.6999999880791
mZBhXg6p,NA,NA,mZBhXg6p,2020-0188,2021-09-27,07:34:09,08:44:41,NA,incomplete,false,NA,true,4,16,NA,NA,left,NA,NA,o_s_003.jpg,o_s_011.jpg,within,NA,NaN,NA,left,910.5,1,0,1129.2000000029802
mZBhXg6p,NA,NA,mZBhXg6p,2020-0188,2021-09-27,07:34:09,08:44:41,NA,incomplete,false,NA,true,4,17,NA,NA,left,NA,NA,n_s_012.jpg,m_l_007.jpg,within,NA,NaN,NA,right,1345,0,1,936.2000000029802
mZBhXg6p,NA,NA,mZBhXg6p,2020-0188,2021-09-27,07:34:09,08:44:41,NA,incomplete,false,NA,true,4,18,NA,NA,right,NA,NA,m_s_016.jpg,m_s_017.jpg,within,NA,NaN,NA,left,1689.800000011921,0,1,768.9000000059605
mZBhXg6p,NA,NA,mZBhXg6p,2020-0188,2021-09-27,07:34:09,08:44:41,NA,incomplete,false,NA,true,4,19,NA,NA,left,NA,NA,i_s_009.jpg,i_c_011.jpg,within,NA,NaN,NA,left,1144.1000000089407,1,1,1201.0999999940395
mZBhXg6p,NA,NA,mZBhXg6p,2020-0188,2021-09-27,07:34:09,08:44:41,NA,incomplete,false,NA,true,4,20,NA,NA,right,NA,NA,o_s_016.jpg,o_s_011.jpg,between-small,NA,NaN,NA,right,850.8000000119209,1,0,1163.2000000029802
mZBhXg6p,NA,NA,mZBhXg6p,2020-0188,2021-09-27,07:34:09,08:44:41,NA,incomplete,false,NA,true,4,21,NA,NA,right,NA,NA,o_c_017.jpg,o_s_012.jpg,between-small,NA,NaN,NA,left,1798,0,1,773.2999999970198
mZBhXg6p,NA,NA,mZBhXg6p,2020-0188,2021-09-27,07:34:09,08:44:41,NA,incomplete,false,NA,true,4,22,NA,NA,left,NA,NA,a_1_004.jpg,c_1_021.jpg,within,NA,NaN,NA,right,908.5999999940395,0,1,1108.7000000029802
mZBhXg6p,NA,NA,mZBhXg6p,2020-0188,2021-09-27,07:34:09,08:44:41,NA,incomplete,false,NA,true,4,23,NA,NA,right,NA,NA,n_s_015.jpg,c_1_004.jpg,between-big,NA,NaN,NA,left,1149,0,1,1433
mZBhXg6p,NA,NA,mZBhXg6p,2020-0188,2021-09-27,07:34:09,08:44:41,NA,incomplete,false,NA,true,4,24,NA,NA,left,NA,NA,a_2_024.jpg,a_1_004.jpg,between-small,NA,NaN,NA,left,1052,1,0,755.9000000059605
mZBhXg6p,NA,NA,mZBhXg6p,2020-0188,2021-09-27,07:34:09,08:44:41,NA,incomplete,false,NA,true,4,25,NA,NA,right,NA,NA,i_s_009.jpg,i_c_012.jpg,between-small,NA,NaN,NA,right,795.5999999940395,1,0,782.8999999910593
mZBhXg6p,NA,NA,mZBhXg6p,2020-0188,2021-09-27,07:34:09,08:44:41,NA,incomplete,false,NA,true,4,26,NA,NA,right,NA,NA,c_2_014.jpg,a_1_016.jpg,within,NA,NaN,NA,right,1426.2000000029802,1,1,1488
mZBhXg6p,NA,NA,mZBhXg6p,2020-0188,2021-09-27,07:34:09,08:44:41,NA,incomplete,false,true,NA,5,0,location,i_c_007.jpg,right,outdoor,indoor,NA,NA,NA,right,2413.5,true,NA,NA,NA,NA,NA
mZBhXg6p,NA,NA,mZBhXg6p,2020-0188,2021-09-27,07:34:09,08:44:41,NA,incomplete,false,true,NA,5,1,location,i_c_016.jpg,right,outdoor,indoor,NA,NA,NA,right,1273.10000000894,true,NA,NA,NA,NA,NA
mZBhXg6p,NA,NA,mZBhXg6p,2020-0188,2021-09-27,07:34:09,08:44:41,NA,incomplete,false,true,NA,5,2,location,o_s_009.jpg,left,outdoor,indoor,NA,NA,NA,left,1243.09999999404,true,NA,NA,NA,NA,NA
mZBhXg6p,NA,NA,mZBhXg6p,2020-0188,2021-09-27,07:34:09,08:44:41,NA,incomplete,false,true,NA,5,3,location,i_s_010.jpg,left,indoor,outdoor,NA,NA,NA,left,1246.79999999702,true,NA,NA,NA,NA,NA
mZBhXg6p,NA,NA,mZBhXg6p,2020-0188,2021-09-27,07:34:09,08:44:41,NA,incomplete,false,true,NA,5,4,location,o_s_025.jpg,right,indoor,outdoor,NA,NA,NA,right,1370.20000000298,true,NA,NA,NA,NA,NA
mZBhXg6p,NA,NA,mZBhXg6p,2020-0188,2021-09-27,07:34:09,08:44:41,NA,incomplete,false,true,NA,5,5,building,o_s_014.jpg,left,skyscraper,cottage,NA,NA,NA,left,1601,true,NA,NA,NA,NA,NA
mZBhXg6p,NA,NA,mZBhXg6p,2020-0188,2021-09-27,07:34:09,08:44:41,NA,incomplete,false,true,NA,5,6,building,i_c_015.jpg,right,skyscraper,cottage,NA,NA,NA,right,1308.39999999106,true,NA,NA,NA,NA,NA
mZBhXg6p,NA,NA,mZBhXg6p,2020-0188,2021-09-27,07:34:09,08:44:41,NA,incomplete,false,true,NA,5,7,building,o_c_007.jpg,right,skyscraper,cottage,NA,NA,NA,right,1086.60000000894,true,NA,NA,NA,NA,NA
mZBhXg6p,NA,NA,mZBhXg6p,2020-0188,2021-09-27,07:34:09,08:44:41,NA,incomplete,false,true,NA,5,8,building,i_c_026.jpg,left,cottage,skyscraper,NA,NA,NA,left,818.59999999404,true,NA,NA,NA,NA,NA
mZBhXg6p,NA,NA,mZBhXg6p,2020-0188,2021-09-27,07:34:09,08:44:41,NA,incomplete,false,true,NA,5,9,building,o_s_028.jpg,right,cottage,skyscraper,NA,NA,NA,right,1409.80000001192,true,NA,NA,NA,NA,NA
mZBhXg6p,NA,NA,mZBhXg6p,2020-0188,2021-09-27,07:34:09,08:44:41,NA,incomplete,false,true,NA,5,10,syllable,c_1_015.jpg,right,2 syllables,1 syllable,NA,NA,NA,right,1762.10000000894,true,NA,NA,NA,NA,NA
mZBhXg6p,NA,NA,mZBhXg6p,2020-0188,2021-09-27,07:34:09,08:44:41,NA,incomplete,false,true,NA,5,11,syllable,a_1_011.jpg,right,1 syllable,2 syllables,NA,NA,NA,left,2016.29999999702,false,NA,NA,NA,NA,NA
mZBhXg6p,NA,NA,mZBhXg6p,2020-0188,2021-09-27,07:34:09,08:44:41,NA,incomplete,false,true,NA,5,12,syllable,a_2_014.jpg,right,2 syllables,1 syllable,NA,NA,NA,left,2745.60000000894,false,NA,NA,NA,NA,NA
mZBhXg6p,NA,NA,mZBhXg6p,2020-0188,2021-09-27,07:34:09,08:44:41,NA,incomplete,false,true,NA,5,13,syllable,c_1_022.jpg,right,1 syllable,2 syllables,NA,NA,NA,left,1288.69999998808,false,NA,NA,NA,NA,NA
mZBhXg6p,NA,NA,mZBhXg6p,2020-0188,2021-09-27,07:34:09,08:44:41,NA,incomplete,false,true,NA,5,14,syllable,a_1_003.jpg,right,2 syllables,1 syllable,NA,NA,NA,right,1608.79999999702,true,NA,NA,NA,NA,NA
mZBhXg6p,NA,NA,mZBhXg6p,2020-0188,2021-09-27,07:34:09,08:44:41,NA,incomplete,false,true,NA,5,15,abstractness,c_2_020.jpg,left,concrete,abstract,NA,NA,NA,left,2096.09999999404,true,NA,NA,NA,NA,NA
mZBhXg6p,NA,NA,mZBhXg6p,2020-0188,2021-09-27,07:34:09,08:44:41,NA,incomplete,false,true,NA,5,16,abstractness,a_2_009.jpg,left,abstract,concrete,NA,NA,NA,left,3022.40000000596,true,NA,NA,NA,NA,NA
mZBhXg6p,NA,NA,mZBhXg6p,2020-0188,2021-09-27,07:34:09,08:44:41,NA,incomplete,false,true,NA,5,17,abstractness,a_2_026.jpg,left,abstract,concrete,NA,NA,NA,left,2514.79999999702,true,NA,NA,NA,NA,NA
mZBhXg6p,NA,NA,mZBhXg6p,2020-0188,2021-09-27,07:34:09,08:44:41,NA,incomplete,false,true,NA,5,18,abstractness,c_1_002.jpg,left,concrete,abstract,NA,NA,NA,left,3372.40000000596,true,NA,NA,NA,NA,NA
mZBhXg6p,NA,NA,mZBhXg6p,2020-0188,2021-09-27,07:34:09,08:44:41,NA,incomplete,false,true,NA,5,19,abstractness,a_2_012.jpg,right,concrete,abstract,NA,NA,NA,right,2902.59999999404,true,NA,NA,NA,NA,NA
mZBhXg6p,NA,NA,mZBhXg6p,2020-0188,2021-09-27,07:34:09,08:44:41,NA,incomplete,false,true,NA,5,20,size,n_s_027.jpg,right,large,small,NA,NA,NA,right,1179,true,NA,NA,NA,NA,NA
mZBhXg6p,NA,NA,mZBhXg6p,2020-0188,2021-09-27,07:34:09,08:44:41,NA,incomplete,false,true,NA,5,21,size,n_l_007.jpg,left,large,small,NA,NA,NA,left,1281.79999999702,true,NA,NA,NA,NA,NA
mZBhXg6p,NA,NA,mZBhXg6p,2020-0188,2021-09-27,07:34:09,08:44:41,NA,incomplete,false,true,NA,5,22,size,n_l_005.jpg,right,small,large,NA,NA,NA,right,1435,true,NA,NA,NA,NA,NA
mZBhXg6p,NA,NA,mZBhXg6p,2020-0188,2021-09-27,07:34:09,08:44:41,NA,incomplete,false,true,NA,5,23,size,m_l_009.jpg,right,small,large,NA,NA,NA,right,1409.79999999702,true,NA,NA,NA,NA,NA
mZBhXg6p,NA,NA,mZBhXg6p,2020-0188,2021-09-27,07:34:09,08:44:41,NA,incomplete,false,true,NA,5,24,size,n_l_027.jpg,left,large,small,NA,NA,NA,left,975.5,true,NA,NA,NA,NA,NA
mZBhXg6p,NA,NA,mZBhXg6p,2020-0188,2021-09-27,07:34:09,08:44:41,NA,incomplete,false,true,NA,5,25,origin,n_s_020.jpg,right,manmade,natural,NA,NA,NA,right,1482.40000000596,true,NA,NA,NA,NA,NA
mZBhXg6p,NA,NA,mZBhXg6p,2020-0188,2021-09-27,07:34:09,08:44:41,NA,incomplete,false,true,NA,5,26,origin,m_s_028.jpg,right,natural,manmade,NA,NA,NA,right,3210.10000000894,true,NA,NA,NA,NA,NA
mZBhXg6p,NA,NA,mZBhXg6p,2020-0188,2021-09-27,07:34:09,08:44:41,NA,incomplete,false,true,NA,5,27,origin,m_l_025.jpg,right,natural,manmade,NA,NA,NA,right,1200.09999999404,true,NA,NA,NA,NA,NA
mZBhXg6p,NA,NA,mZBhXg6p,2020-0188,2021-09-27,07:34:09,08:44:41,NA,incomplete,false,true,NA,5,28,origin,m_s_020.jpg,right,natural,manmade,NA,NA,NA,right,1390.29999999702,true,NA,NA,NA,NA,NA
mZBhXg6p,NA,NA,mZBhXg6p,2020-0188,2021-09-27,07:34:09,08:44:41,NA,incomplete,false,true,NA,5,29,origin,n_s_011.jpg,right,manmade,natural,NA,NA,NA,right,1484.79999999702,true,NA,NA,NA,NA,NA
mZBhXg6p,NA,NA,mZBhXg6p,2020-0188,2021-09-27,07:34:09,08:44:41,NA,incomplete,false,NA,true,5,0,NA,NA,right,NA,NA,a_2_014.jpg,o_s_028.jpg,between-big,NA,NaN,NA,right,3802.1000000089407,1,1,805.2999999970198
mZBhXg6p,NA,NA,mZBhXg6p,2020-0188,2021-09-27,07:34:09,08:44:41,NA,incomplete,false,NA,true,5,1,NA,NA,left,NA,NA,i_c_015.jpg,o_s_028.jpg,within,NA,NaN,NA,left,844.0999999940395,1,1,817.2999999970198
mZBhXg6p,NA,NA,mZBhXg6p,2020-0188,2021-09-27,07:34:09,08:44:41,NA,incomplete,false,NA,true,5,2,NA,NA,right,NA,NA,n_s_027.jpg,a_2_026.jpg,between-big,NA,NaN,NA,left,3696.0999999940395,0,1,2209.300000011921
mZBhXg6p,NA,NA,mZBhXg6p,2020-0188,2021-09-27,07:34:09,08:44:41,NA,incomplete,false,NA,true,5,3,NA,NA,right,NA,NA,a_2_012.jpg,a_2_009.jpg,within,NA,NaN,NA,left,880.7999999970198,0,0,761
mZBhXg6p,NA,NA,mZBhXg6p,2020-0188,2021-09-27,07:34:09,08:44:41,NA,incomplete,false,NA,true,5,4,NA,NA,right,NA,NA,m_l_025.jpg,n_l_027.jpg,between-small,NA,NaN,NA,right,1297,1,1,952.4000000059605
mZBhXg6p,NA,NA,mZBhXg6p,2020-0188,2021-09-27,07:34:09,08:44:41,NA,incomplete,false,NA,true,5,5,NA,NA,right,NA,NA,c_2_020.jpg,a_2_014.jpg,between-small,NA,NaN,NA,left,823,0,1,850.7999999970198
mZBhXg6p,NA,NA,mZBhXg6p,2020-0188,2021-09-27,07:34:09,08:44:41,NA,incomplete,false,NA,true,5,6,NA,NA,right,NA,NA,c_1_015.jpg,o_c_007.jpg,between-big,NA,NaN,NA,right,635.8999999910593,1,1,936.9000000059605
mZBhXg6p,NA,NA,mZBhXg6p,2020-0188,2021-09-27,07:34:09,08:44:41,NA,incomplete,false,NA,true,5,7,NA,NA,left,NA,NA,c_1_002.jpg,n_l_007.jpg,between-big,NA,NaN,NA,left,1662.6000000089407,1,1,886.7999999970198
mZBhXg6p,NA,NA,mZBhXg6p,2020-0188,2021-09-27,07:34:09,08:44:41,NA,incomplete,false,NA,true,5,8,NA,NA,left,NA,NA,c_1_015.jpg,c_1_022.jpg,within,NA,NaN,NA,right,3252.0999999940395,0,1,1714.7999999970198
mZBhXg6p,NA,NA,mZBhXg6p,2020-0188,2021-09-27,07:34:09,08:44:41,NA,incomplete,false,NA,true,5,9,NA,NA,left,NA,NA,n_l_005.jpg,n_s_020.jpg,between-small,NA,NaN,NA,left,1765,1,1,1859.2000000029802
mZBhXg6p,NA,NA,mZBhXg6p,2020-0188,2021-09-27,07:34:09,08:44:41,NA,incomplete,false,NA,true,5,10,NA,NA,left,NA,NA,n_l_007.jpg,n_l_027.jpg,within,NA,NaN,NA,right,855,0,0,1398.2999999970198
mZBhXg6p,NA,NA,mZBhXg6p,2020-0188,2021-09-27,07:34:09,08:44:41,NA,incomplete,false,NA,true,5,11,NA,NA,left,NA,NA,c_1_022.jpg,a_2_009.jpg,between-small,NA,NaN,NA,right,2102.699999988079,0,1,823
mZBhXg6p,NA,NA,mZBhXg6p,2020-0188,2021-09-27,07:34:09,08:44:41,NA,incomplete,false,NA,true,5,12,NA,NA,left,NA,NA,n_s_020.jpg,m_s_020.jpg,within,NA,NaN,NA,left,1193.7000000029802,1,1,787.5
mZBhXg6p,NA,NA,mZBhXg6p,2020-0188,2021-09-27,07:34:09,08:44:41,NA,incomplete,false,NA,true,5,13,NA,NA,right,NA,NA,a_1_003.jpg,a_1_011.jpg,within,NA,NaN,NA,right,1755.7000000029802,1,1,887.8999999910593
mZBhXg6p,NA,NA,mZBhXg6p,2020-0188,2021-09-27,07:34:09,08:44:41,NA,incomplete,false,NA,true,5,14,NA,NA,right,NA,NA,c_1_002.jpg,c_2_020.jpg,within,NA,NaN,NA,right,1155.2999999970198,1,0,2793.5
mZBhXg6p,NA,NA,mZBhXg6p,2020-0188,2021-09-27,07:34:09,08:44:41,NA,incomplete,false,NA,true,5,15,NA,NA,right,NA,NA,o_c_007.jpg,o_s_025.jpg,between-small,NA,NaN,NA,right,866,1,0,949.1000000089407
mZBhXg6p,NA,NA,mZBhXg6p,2020-0188,2021-09-27,07:34:09,08:44:41,NA,incomplete,false,NA,true,5,16,NA,NA,left,NA,NA,i_c_007.jpg,i_s_010.jpg,within,NA,NaN,NA,left,1244.7000000029802,1,0,1489.8999999910593
mZBhXg6p,NA,NA,mZBhXg6p,2020-0188,2021-09-27,07:34:09,08:44:41,NA,incomplete,false,NA,true,5,17,NA,NA,left,NA,NA,i_c_016.jpg,o_s_025.jpg,within,NA,NaN,NA,right,601,0,1,1497.6000000089407
mZBhXg6p,NA,NA,mZBhXg6p,2020-0188,2021-09-27,07:34:09,08:44:41,NA,incomplete,false,NA,true,5,18,NA,NA,left,NA,NA,o_s_009.jpg,o_s_014.jpg,between-small,NA,NaN,NA,left,823.5,1,0,909.5
mZBhXg6p,NA,NA,mZBhXg6p,2020-0188,2021-09-27,07:34:09,08:44:41,NA,incomplete,false,NA,true,5,19,NA,NA,left,NA,NA,a_1_003.jpg,a_2_026.jpg,between-small,NA,NaN,NA,right,830,0,1,1081
mZBhXg6p,NA,NA,mZBhXg6p,2020-0188,2021-09-27,07:34:09,08:44:41,NA,incomplete,false,NA,true,5,20,NA,NA,right,NA,NA,a_1_011.jpg,i_c_026.jpg,between-big,NA,NaN,NA,right,729,1,1,1315.0999999940395
mZBhXg6p,NA,NA,mZBhXg6p,2020-0188,2021-09-27,07:34:09,08:44:41,NA,incomplete,false,NA,true,5,21,NA,NA,left,NA,NA,a_2_012.jpg,n_l_005.jpg,between-big,NA,NaN,NA,right,655.1000000089407,0,0,1029.2999999970198
mZBhXg6p,NA,NA,mZBhXg6p,2020-0188,2021-09-27,07:34:09,08:44:41,NA,incomplete,false,NA,true,5,22,NA,NA,left,NA,NA,i_s_010.jpg,i_c_015.jpg,between-small,NA,NaN,NA,right,796.5999999940395,0,0,1087.4000000059605
mZBhXg6p,NA,NA,mZBhXg6p,2020-0188,2021-09-27,07:34:09,08:44:41,NA,incomplete,false,NA,true,5,23,NA,NA,right,NA,NA,n_s_011.jpg,m_s_028.jpg,within,NA,NaN,NA,left,2067.6000000089407,0,1,864.2000000029802
mZBhXg6p,NA,NA,mZBhXg6p,2020-0188,2021-09-27,07:34:09,08:44:41,NA,incomplete,false,NA,true,5,24,NA,NA,left,NA,NA,n_s_027.jpg,m_l_009.jpg,within,NA,NaN,NA,right,712.4000000059605,0,1,768
mZBhXg6p,NA,NA,mZBhXg6p,2020-0188,2021-09-27,07:34:09,08:44:41,NA,incomplete,false,NA,true,5,25,NA,NA,left,NA,NA,m_l_009.jpg,m_s_028.jpg,between-small,NA,NaN,NA,right,810.3999999910593,0,1,792.5999999940395
mZBhXg6p,NA,NA,mZBhXg6p,2020-0188,2021-09-27,07:34:09,08:44:41,NA,incomplete,false,NA,true,5,26,NA,NA,right,NA,NA,i_c_026.jpg,o_s_014.jpg,within,NA,NaN,NA,right,800.3999999910593,1,0,862.2999999970198
mZBhXg6p,NA,NA,mZBhXg6p,2020-0188,2021-09-27,07:34:09,08:44:41,NA,incomplete,false,true,NA,6,0,syllable,c_2_018.jpg,right,2 syllables,1 syllable,NA,NA,NA,right,1874.70000000298,true,NA,NA,NA,NA,NA
mZBhXg6p,NA,NA,mZBhXg6p,2020-0188,2021-09-27,07:34:09,08:44:41,NA,incomplete,false,true,NA,6,1,syllable,c_2_015.jpg,right,1 syllable,2 syllables,NA,NA,NA,right,1543.09999999404,true,NA,NA,NA,NA,NA
mZBhXg6p,NA,NA,mZBhXg6p,2020-0188,2021-09-27,07:34:09,08:44:41,NA,incomplete,false,true,NA,6,2,syllable,a_2_008.jpg,right,2 syllables,1 syllable,NA,NA,NA,left,848,false,NA,NA,NA,NA,NA
mZBhXg6p,NA,NA,mZBhXg6p,2020-0188,2021-09-27,07:34:09,08:44:41,NA,incomplete,false,true,NA,6,3,syllable,a_1_022.jpg,right,2 syllables,1 syllable,NA,NA,NA,right,1870.80000001192,true,NA,NA,NA,NA,NA
mZBhXg6p,NA,NA,mZBhXg6p,2020-0188,2021-09-27,07:34:09,08:44:41,NA,incomplete,false,true,NA,6,4,syllable,a_2_017.jpg,right,2 syllables,1 syllable,NA,NA,NA,left,922.300000011921,false,NA,NA,NA,NA,NA
mZBhXg6p,NA,NA,mZBhXg6p,2020-0188,2021-09-27,07:34:09,08:44:41,NA,incomplete,false,true,NA,6,5,abstractness,c_1_014.jpg,left,concrete,abstract,NA,NA,NA,left,2563,true,NA,NA,NA,NA,NA
mZBhXg6p,NA,NA,mZBhXg6p,2020-0188,2021-09-27,07:34:09,08:44:41,NA,incomplete,false,true,NA,6,6,abstractness,c_2_004.jpg,right,abstract,concrete,NA,NA,NA,right,1995.90000000596,true,NA,NA,NA,NA,NA
mZBhXg6p,NA,NA,mZBhXg6p,2020-0188,2021-09-27,07:34:09,08:44:41,NA,incomplete,false,true,NA,6,7,abstractness,c_2_027.jpg,right,abstract,concrete,NA,NA,NA,none,0,false,NA,NA,NA,NA,NA
mZBhXg6p,NA,NA,mZBhXg6p,2020-0188,2021-09-27,07:34:09,08:44:41,NA,incomplete,false,true,NA,6,8,abstractness,c_2_025.jpg,left,concrete,abstract,NA,NA,NA,left,1817.59999999404,true,NA,NA,NA,NA,NA
mZBhXg6p,NA,NA,mZBhXg6p,2020-0188,2021-09-27,07:34:09,08:44:41,NA,incomplete,false,true,NA,6,9,abstractness,c_2_012.jpg,right,abstract,concrete,NA,NA,NA,right,2077.19999998808,true,NA,NA,NA,NA,NA
mZBhXg6p,NA,NA,mZBhXg6p,2020-0188,2021-09-27,07:34:09,08:44:41,NA,incomplete,false,true,NA,6,10,size,n_l_025.jpg,right,small,large,NA,NA,NA,right,1059.09999999404,true,NA,NA,NA,NA,NA
mZBhXg6p,NA,NA,mZBhXg6p,2020-0188,2021-09-27,07:34:09,08:44:41,NA,incomplete,false,true,NA,6,11,size,m_l_018.jpg,right,small,large,NA,NA,NA,right,1791.79999999702,true,NA,NA,NA,NA,NA
mZBhXg6p,NA,NA,mZBhXg6p,2020-0188,2021-09-27,07:34:09,08:44:41,NA,incomplete,false,true,NA,6,12,size,n_s_010.jpg,left,small,large,NA,NA,NA,left,854.90000000596,true,NA,NA,NA,NA,NA
mZBhXg6p,NA,NA,mZBhXg6p,2020-0188,2021-09-27,07:34:09,08:44:41,NA,incomplete,false,true,NA,6,13,size,n_s_009.jpg,right,large,small,NA,NA,NA,right,970.899999991059,true,NA,NA,NA,NA,NA
mZBhXg6p,NA,NA,mZBhXg6p,2020-0188,2021-09-27,07:34:09,08:44:41,NA,incomplete,false,true,NA,6,14,size,n_s_007.jpg,left,small,large,NA,NA,NA,left,1486.09999999404,true,NA,NA,NA,NA,NA
mZBhXg6p,NA,NA,mZBhXg6p,2020-0188,2021-09-27,07:34:09,08:44:41,NA,incomplete,false,true,NA,6,15,origin,n_s_004.jpg,right,manmade,natural,NA,NA,NA,right,1460.39999999106,true,NA,NA,NA,NA,NA
mZBhXg6p,NA,NA,mZBhXg6p,2020-0188,2021-09-27,07:34:09,08:44:41,NA,incomplete,false,true,NA,6,16,origin,m_l_011.jpg,left,manmade,natural,NA,NA,NA,left,1733.70000000298,true,NA,NA,NA,NA,NA
mZBhXg6p,NA,NA,mZBhXg6p,2020-0188,2021-09-27,07:34:09,08:44:41,NA,incomplete,false,true,NA,6,17,origin,n_l_028.jpg,right,manmade,natural,NA,NA,NA,right,1340.89999999106,true,NA,NA,NA,NA,NA
mZBhXg6p,NA,NA,mZBhXg6p,2020-0188,2021-09-27,07:34:09,08:44:41,NA,incomplete,false,true,NA,6,18,origin,n_s_014.jpg,right,manmade,natural,NA,NA,NA,right,1214.69999998808,true,NA,NA,NA,NA,NA
mZBhXg6p,NA,NA,mZBhXg6p,2020-0188,2021-09-27,07:34:09,08:44:41,NA,incomplete,false,true,NA,6,19,origin,n_l_009.jpg,right,manmade,natural,NA,NA,NA,right,1905.5,true,NA,NA,NA,NA,NA
mZBhXg6p,NA,NA,mZBhXg6p,2020-0188,2021-09-27,07:34:09,08:44:41,NA,incomplete,false,true,NA,6,20,location,i_s_024.jpg,left,indoor,outdoor,NA,NA,NA,left,1043.90000000596,true,NA,NA,NA,NA,NA
mZBhXg6p,NA,NA,mZBhXg6p,2020-0188,2021-09-27,07:34:09,08:44:41,NA,incomplete,false,true,NA,6,21,location,i_c_027.jpg,left,indoor,outdoor,NA,NA,NA,left,1031.90000000596,true,NA,NA,NA,NA,NA
mZBhXg6p,NA,NA,mZBhXg6p,2020-0188,2021-09-27,07:34:09,08:44:41,NA,incomplete,false,true,NA,6,22,location,i_c_021.jpg,right,outdoor,indoor,NA,NA,NA,right,1445.09999999404,true,NA,NA,NA,NA,NA
mZBhXg6p,NA,NA,mZBhXg6p,2020-0188,2021-09-27,07:34:09,08:44:41,NA,incomplete,false,true,NA,6,23,location,i_s_007.jpg,left,indoor,outdoor,NA,NA,NA,left,891.399999991059,true,NA,NA,NA,NA,NA
mZBhXg6p,NA,NA,mZBhXg6p,2020-0188,2021-09-27,07:34:09,08:44:41,NA,incomplete,false,true,NA,6,24,location,i_s_020.jpg,left,indoor,outdoor,NA,NA,NA,left,1117.79999999702,true,NA,NA,NA,NA,NA
mZBhXg6p,NA,NA,mZBhXg6p,2020-0188,2021-09-27,07:34:09,08:44:41,NA,incomplete,false,true,NA,6,25,building,o_s_002.jpg,right,cottage,skyscraper,NA,NA,NA,right,1092.09999999404,true,NA,NA,NA,NA,NA
mZBhXg6p,NA,NA,mZBhXg6p,2020-0188,2021-09-27,07:34:09,08:44:41,NA,incomplete,false,true,NA,6,26,building,i_c_014.jpg,left,cottage,skyscraper,NA,NA,NA,left,2829.20000000298,true,NA,NA,NA,NA,NA
mZBhXg6p,NA,NA,mZBhXg6p,2020-0188,2021-09-27,07:34:09,08:44:41,NA,incomplete,false,true,NA,6,27,building,i_s_025.jpg,right,cottage,skyscraper,NA,NA,NA,right,1371.70000000298,true,NA,NA,NA,NA,NA
mZBhXg6p,NA,NA,mZBhXg6p,2020-0188,2021-09-27,07:34:09,08:44:41,NA,incomplete,false,true,NA,6,28,building,o_s_023.jpg,left,skyscraper,cottage,NA,NA,NA,left,1176.79999999702,true,NA,NA,NA,NA,NA
mZBhXg6p,NA,NA,mZBhXg6p,2020-0188,2021-09-27,07:34:09,08:44:41,NA,incomplete,false,true,NA,6,29,building,o_c_002.jpg,right,skyscraper,cottage,NA,NA,NA,right,1217.90000000596,true,NA,NA,NA,NA,NA
mZBhXg6p,NA,NA,mZBhXg6p,2020-0188,2021-09-27,07:34:09,08:44:41,NA,incomplete,false,NA,true,6,0,NA,NA,left,NA,NA,c_2_027.jpg,n_l_025.jpg,between-big,NA,NaN,NA,right,2025.7000000029802,0,2,1601.2000000029802
mZBhXg6p,NA,NA,mZBhXg6p,2020-0188,2021-09-27,07:34:09,08:44:41,NA,incomplete,false,NA,true,6,1,NA,NA,left,NA,NA,c_2_018.jpg,a_1_022.jpg,within,NA,NaN,NA,left,1141.5,1,1,1058.7000000029802
mZBhXg6p,NA,NA,mZBhXg6p,2020-0188,2021-09-27,07:34:09,08:44:41,NA,incomplete,false,NA,true,6,2,NA,NA,left,NA,NA,i_s_024.jpg,i_s_007.jpg,within,NA,NaN,NA,left,1324.7000000029802,1,0,762.7000000029802
mZBhXg6p,NA,NA,mZBhXg6p,2020-0188,2021-09-27,07:34:09,08:44:41,NA,incomplete,false,NA,true,6,3,NA,NA,right,NA,NA,i_s_024.jpg,n_l_028.jpg,between-big,NA,NaN,NA,right,1078.4000000059605,1,2,1141.3999999910593
mZBhXg6p,NA,NA,mZBhXg6p,2020-0188,2021-09-27,07:34:09,08:44:41,NA,incomplete,false,NA,true,6,4,NA,NA,right,NA,NA,i_c_014.jpg,i_s_007.jpg,between-small,NA,NaN,NA,right,1572.7000000029802,1,0,950.7000000029802
mZBhXg6p,NA,NA,mZBhXg6p,2020-0188,2021-09-27,07:34:09,08:44:41,NA,incomplete,false,NA,true,6,5,NA,NA,right,NA,NA,n_l_009.jpg,m_l_011.jpg,within,NA,NaN,NA,right,1087.7000000029802,1,1,1053.5
mZBhXg6p,NA,NA,mZBhXg6p,2020-0188,2021-09-27,07:34:09,08:44:41,NA,incomplete,false,NA,true,6,6,NA,NA,right,NA,NA,c_2_012.jpg,c_2_004.jpg,within,NA,NaN,NA,right,837.7000000029802,1,0,885.6999999880791
mZBhXg6p,NA,NA,mZBhXg6p,2020-0188,2021-09-27,07:34:09,08:44:41,NA,incomplete,false,NA,true,6,7,NA,NA,right,NA,NA,a_2_017.jpg,c_2_015.jpg,within,NA,NaN,NA,left,880.5,0,0,848.6999999880791
mZBhXg6p,NA,NA,mZBhXg6p,2020-0188,2021-09-27,07:34:09,08:44:41,NA,incomplete,false,NA,true,6,8,NA,NA,left,NA,NA,i_s_020.jpg,i_s_025.jpg,between-small,NA,NaN,NA,left,1276,1,0,885.2999999970198
mZBhXg6p,NA,NA,mZBhXg6p,2020-0188,2021-09-27,07:34:09,08:44:41,NA,incomplete,false,NA,true,6,9,NA,NA,left,NA,NA,c_2_012.jpg,n_s_010.jpg,between-big,NA,NaN,NA,right,1017.7000000029802,0,1,736
mZBhXg6p,NA,NA,mZBhXg6p,2020-0188,2021-09-27,07:34:09,08:44:41,NA,incomplete,false,NA,true,6,10,NA,NA,right,NA,NA,c_2_027.jpg,a_2_017.jpg,between-small,NA,NaN,NA,right,879.2000000029802,1,1,877.9000000059605
mZBhXg6p,NA,NA,mZBhXg6p,2020-0188,2021-09-27,07:34:09,08:44:41,NA,incomplete,false,NA,true,6,11,NA,NA,right,NA,NA,o_s_023.jpg,o_s_002.jpg,within,NA,NaN,NA,left,1021.2999999970198,0,0,984.5
mZBhXg6p,NA,NA,mZBhXg6p,2020-0188,2021-09-27,07:34:09,08:44:41,NA,incomplete,false,NA,true,6,12,NA,NA,left,NA,NA,i_c_014.jpg,o_c_002.jpg,within,NA,NaN,NA,right,691,0,0,1182.2000000029802
mZBhXg6p,NA,NA,mZBhXg6p,2020-0188,2021-09-27,07:34:09,08:44:41,NA,incomplete,false,NA,true,6,13,NA,NA,left,NA,NA,n_l_025.jpg,n_s_009.jpg,within,NA,NaN,NA,left,2713.5999999940395,1,0,910.4000000059605
mZBhXg6p,NA,NA,mZBhXg6p,2020-0188,2021-09-27,07:34:09,08:44:41,NA,incomplete,false,NA,true,6,14,NA,NA,right,NA,NA,i_c_021.jpg,n_l_009.jpg,between-big,NA,NaN,NA,right,708,1,0,676.2000000029802
mZBhXg6p,NA,NA,mZBhXg6p,2020-0188,2021-09-27,07:34:09,08:44:41,NA,incomplete,false,NA,true,6,15,NA,NA,right,NA,NA,c_2_004.jpg,a_1_022.jpg,between-small,NA,NaN,NA,left,723,0,0,818.2000000029802
mZBhXg6p,NA,NA,mZBhXg6p,2020-0188,2021-09-27,07:34:09,08:44:41,NA,incomplete,false,NA,true,6,16,NA,NA,left,NA,NA,n_s_007.jpg,n_l_028.jpg,between-small,NA,NaN,NA,right,614.2000000029802,0,1,906.4000000059605
mZBhXg6p,NA,NA,mZBhXg6p,2020-0188,2021-09-27,07:34:09,08:44:41,NA,incomplete,false,NA,true,6,17,NA,NA,left,NA,NA,i_c_027.jpg,i_s_020.jpg,within,NA,NaN,NA,right,872.5999999940395,0,0,728.7000000029802
mZBhXg6p,NA,NA,mZBhXg6p,2020-0188,2021-09-27,07:34:09,08:44:41,NA,incomplete,false,NA,true,6,18,NA,NA,left,NA,NA,m_l_018.jpg,n_s_007.jpg,within,NA,NaN,NA,left,1169.2000000029802,1,0,757.2000000029802
mZBhXg6p,NA,NA,mZBhXg6p,2020-0188,2021-09-27,07:34:09,08:44:41,NA,incomplete,false,NA,true,6,19,NA,NA,right,NA,NA,c_2_025.jpg,c_1_014.jpg,within,NA,NaN,NA,left,1399.2000000029802,0,1,811.3000000119209
mZBhXg6p,NA,NA,mZBhXg6p,2020-0188,2021-09-27,07:34:09,08:44:41,NA,incomplete,false,NA,true,6,20,NA,NA,right,NA,NA,n_s_004.jpg,n_s_010.jpg,between-small,NA,NaN,NA,left,820.5,0,0,739.4000000059605
mZBhXg6p,NA,NA,mZBhXg6p,2020-0188,2021-09-27,07:34:09,08:44:41,NA,incomplete,false,NA,true,6,21,NA,NA,right,NA,NA,m_l_011.jpg,n_s_009.jpg,between-small,NA,NaN,NA,right,1704.9000000059605,1,1,728
mZBhXg6p,NA,NA,mZBhXg6p,2020-0188,2021-09-27,07:34:09,08:44:41,NA,incomplete,false,NA,true,6,22,NA,NA,left,NA,NA,c_2_025.jpg,m_l_018.jpg,between-big,NA,NaN,NA,right,1273.5,0,1,962.5
mZBhXg6p,NA,NA,mZBhXg6p,2020-0188,2021-09-27,07:34:09,08:44:41,NA,incomplete,false,NA,true,6,23,NA,NA,right,NA,NA,i_c_027.jpg,n_s_014.jpg,between-big,NA,NaN,NA,left,1722.6000000089407,0,0,756.2000000029802
mZBhXg6p,NA,NA,mZBhXg6p,2020-0188,2021-09-27,07:34:09,08:44:41,NA,incomplete,false,NA,true,6,24,NA,NA,right,NA,NA,n_s_014.jpg,n_s_004.jpg,within,NA,NaN,NA,right,709.3000000119209,1,1,859
mZBhXg6p,NA,NA,mZBhXg6p,2020-0188,2021-09-27,07:34:09,08:44:41,NA,incomplete,false,NA,true,6,25,NA,NA,right,NA,NA,o_s_002.jpg,i_c_021.jpg,between-small,NA,NaN,NA,left,1392.0999999940395,0,1,1077.8999999910593
mZBhXg6p,NA,NA,mZBhXg6p,2020-0188,2021-09-27,07:34:09,08:44:41,NA,incomplete,false,NA,true,6,26,NA,NA,right,NA,NA,c_1_014.jpg,a_2_008.jpg,between-small,NA,NaN,NA,right,1916.2000000029802,1,0,940.4000000059605
mZBhXg6p,NA,NA,mZBhXg6p,2020-0188,2021-09-27,07:34:09,08:44:41,NA,incomplete,false,true,NA,7,0,syllable,a_1_026.jpg,right,2 syllables,1 syllable,NA,NA,NA,right,1436.90000000596,true,NA,NA,NA,NA,NA
mZBhXg6p,NA,NA,mZBhXg6p,2020-0188,2021-09-27,07:34:09,08:44:41,NA,incomplete,false,true,NA,7,1,syllable,c_2_019.jpg,right,1 syllable,2 syllables,NA,NA,NA,right,1008.5,true,NA,NA,NA,NA,NA
mZBhXg6p,NA,NA,mZBhXg6p,2020-0188,2021-09-27,07:34:09,08:44:41,NA,incomplete,false,true,NA,7,2,syllable,a_1_010.jpg,right,1 syllable,2 syllables,NA,NA,NA,left,1079.40000000596,false,NA,NA,NA,NA,NA
mZBhXg6p,NA,NA,mZBhXg6p,2020-0188,2021-09-27,07:34:09,08:44:41,NA,incomplete,false,true,NA,7,3,syllable,c_1_011.jpg,right,1 syllable,2 syllables,NA,NA,NA,left,1301.59999999404,false,NA,NA,NA,NA,NA
mZBhXg6p,NA,NA,mZBhXg6p,2020-0188,2021-09-27,07:34:09,08:44:41,NA,incomplete,false,true,NA,7,4,syllable,c_2_023.jpg,right,1 syllable,2 syllables,NA,NA,NA,right,981.29999999702,true,NA,NA,NA,NA,NA
mZBhXg6p,NA,NA,mZBhXg6p,2020-0188,2021-09-27,07:34:09,08:44:41,NA,incomplete,false,true,NA,7,5,abstractness,c_1_013.jpg,left,concrete,abstract,NA,NA,NA,left,1729.20000000298,true,NA,NA,NA,NA,NA
mZBhXg6p,NA,NA,mZBhXg6p,2020-0188,2021-09-27,07:34:09,08:44:41,NA,incomplete,false,true,NA,7,6,abstractness,a_2_023.jpg,left,abstract,concrete,NA,NA,NA,right,2479.29999999702,false,NA,NA,NA,NA,NA
mZBhXg6p,NA,NA,mZBhXg6p,2020-0188,2021-09-27,07:34:09,08:44:41,NA,incomplete,false,true,NA,7,7,abstractness,c_1_016.jpg,right,abstract,concrete,NA,NA,NA,right,3128.70000000298,true,NA,NA,NA,NA,NA
mZBhXg6p,NA,NA,mZBhXg6p,2020-0188,2021-09-27,07:34:09,08:44:41,NA,incomplete,false,true,NA,7,8,abstractness,c_2_010.jpg,right,abstract,concrete,NA,NA,NA,right,990.59999999404,true,NA,NA,NA,NA,NA
mZBhXg6p,NA,NA,mZBhXg6p,2020-0188,2021-09-27,07:34:09,08:44:41,NA,incomplete,false,true,NA,7,9,abstractness,a_2_004.jpg,right,concrete,abstract,NA,NA,NA,right,2467.29999999702,true,NA,NA,NA,NA,NA
mZBhXg6p,NA,NA,mZBhXg6p,2020-0188,2021-09-27,07:34:09,08:44:41,NA,incomplete,false,true,NA,7,10,size,m_s_018.jpg,left,small,large,NA,NA,NA,left,1323,true,NA,NA,NA,NA,NA
mZBhXg6p,NA,NA,mZBhXg6p,2020-0188,2021-09-27,07:34:09,08:44:41,NA,incomplete,false,true,NA,7,11,size,m_l_015.jpg,right,small,large,NA,NA,NA,right,854.5,true,NA,NA,NA,NA,NA
mZBhXg6p,NA,NA,mZBhXg6p,2020-0188,2021-09-27,07:34:09,08:44:41,NA,incomplete,false,true,NA,7,12,size,m_l_002.jpg,right,small,large,NA,NA,NA,right,1049.10000000894,true,NA,NA,NA,NA,NA
mZBhXg6p,NA,NA,mZBhXg6p,2020-0188,2021-09-27,07:34:09,08:44:41,NA,incomplete,false,true,NA,7,13,size,m_l_024.jpg,left,large,small,NA,NA,NA,left,1973,true,NA,NA,NA,NA,NA
mZBhXg6p,NA,NA,mZBhXg6p,2020-0188,2021-09-27,07:34:09,08:44:41,NA,incomplete,false,true,NA,7,14,size,m_s_021.jpg,left,small,large,NA,NA,NA,left,887.600000008941,true,NA,NA,NA,NA,NA
mZBhXg6p,NA,NA,mZBhXg6p,2020-0188,2021-09-27,07:34:09,08:44:41,NA,incomplete,false,true,NA,7,15,origin,n_s_028.jpg,left,natural,manmade,NA,NA,NA,left,1570.59999999404,true,NA,NA,NA,NA,NA
mZBhXg6p,NA,NA,mZBhXg6p,2020-0188,2021-09-27,07:34:09,08:44:41,NA,incomplete,false,true,NA,7,16,origin,n_s_025.jpg,right,manmade,natural,NA,NA,NA,right,842.70000000298,true,NA,NA,NA,NA,NA
mZBhXg6p,NA,NA,mZBhXg6p,2020-0188,2021-09-27,07:34:09,08:44:41,NA,incomplete,false,true,NA,7,17,origin,n_l_012.jpg,left,natural,manmade,NA,NA,NA,left,1435.5,true,NA,NA,NA,NA,NA
mZBhXg6p,NA,NA,mZBhXg6p,2020-0188,2021-09-27,07:34:09,08:44:41,NA,incomplete,false,true,NA,7,18,origin,n_l_020.jpg,left,natural,manmade,NA,NA,NA,left,1134,true,NA,NA,NA,NA,NA
mZBhXg6p,NA,NA,mZBhXg6p,2020-0188,2021-09-27,07:34:09,08:44:41,NA,incomplete,false,true,NA,7,19,origin,m_s_011.jpg,left,manmade,natural,NA,NA,NA,left,2156.40000000596,true,NA,NA,NA,NA,NA
mZBhXg6p,NA,NA,mZBhXg6p,2020-0188,2021-09-27,07:34:09,08:44:41,NA,incomplete,false,true,NA,7,20,building,i_s_016.jpg,right,cottage,skyscraper,NA,NA,NA,right,1281.09999999404,true,NA,NA,NA,NA,NA
mZBhXg6p,NA,NA,mZBhXg6p,2020-0188,2021-09-27,07:34:09,08:44:41,NA,incomplete,false,true,NA,7,21,building,o_c_004.jpg,right,skyscraper,cottage,NA,NA,NA,right,787.29999999702,true,NA,NA,NA,NA,NA
mZBhXg6p,NA,NA,mZBhXg6p,2020-0188,2021-09-27,07:34:09,08:44:41,NA,incomplete,false,true,NA,7,22,building,i_s_013.jpg,left,skyscraper,cottage,NA,NA,NA,left,1736,true,NA,NA,NA,NA,NA
mZBhXg6p,NA,NA,mZBhXg6p,2020-0188,2021-09-27,07:34:09,08:44:41,NA,incomplete,false,true,NA,7,23,building,o_c_018.jpg,right,skyscraper,cottage,NA,NA,NA,right,958.5,true,NA,NA,NA,NA,NA
mZBhXg6p,NA,NA,mZBhXg6p,2020-0188,2021-09-27,07:34:09,08:44:41,NA,incomplete,false,true,NA,7,24,building,o_s_017.jpg,right,cottage,skyscraper,NA,NA,NA,right,1530.09999999404,true,NA,NA,NA,NA,NA
mZBhXg6p,NA,NA,mZBhXg6p,2020-0188,2021-09-27,07:34:09,08:44:41,NA,incomplete,false,true,NA,7,25,location,o_c_005.jpg,left,outdoor,indoor,NA,NA,NA,left,2073,true,NA,NA,NA,NA,NA
mZBhXg6p,NA,NA,mZBhXg6p,2020-0188,2021-09-27,07:34:09,08:44:41,NA,incomplete,false,true,NA,7,26,location,i_c_006.jpg,left,indoor,outdoor,NA,NA,NA,left,1730.70000000298,true,NA,NA,NA,NA,NA
mZBhXg6p,NA,NA,mZBhXg6p,2020-0188,2021-09-27,07:34:09,08:44:41,NA,incomplete,false,true,NA,7,27,location,o_s_020.jpg,right,indoor,outdoor,NA,NA,NA,right,1506.90000000596,true,NA,NA,NA,NA,NA
mZBhXg6p,NA,NA,mZBhXg6p,2020-0188,2021-09-27,07:34:09,08:44:41,NA,incomplete,false,true,NA,7,28,location,o_s_006.jpg,right,indoor,outdoor,NA,NA,NA,right,1263.5,true,NA,NA,NA,NA,NA
mZBhXg6p,NA,NA,mZBhXg6p,2020-0188,2021-09-27,07:34:09,08:44:41,NA,incomplete,false,true,NA,7,29,location,i_s_026.jpg,right,outdoor,indoor,NA,NA,NA,left,1506.29999999702,false,NA,NA,NA,NA,NA
mZBhXg6p,NA,NA,mZBhXg6p,2020-0188,2021-09-27,07:34:09,08:44:41,NA,incomplete,false,NA,true,7,0,NA,NA,left,NA,NA,n_s_025.jpg,m_s_011.jpg,within,NA,NaN,NA,left,1348.2000000029802,1,2,2066.0999999940395
mZBhXg6p,NA,NA,mZBhXg6p,2020-0188,2021-09-27,07:34:09,08:44:41,NA,incomplete,false,NA,true,7,1,NA,NA,left,NA,NA,a_2_023.jpg,a_2_004.jpg,within,NA,NaN,NA,left,3711.1000000089407,1,0,834.7999999970198
mZBhXg6p,NA,NA,mZBhXg6p,2020-0188,2021-09-27,07:34:09,08:44:41,NA,incomplete,false,NA,true,7,2,NA,NA,left,NA,NA,i_s_016.jpg,o_c_018.jpg,within,NA,NaN,NA,right,1520.2999999970198,0,1,1622.3999999910593
mZBhXg6p,NA,NA,mZBhXg6p,2020-0188,2021-09-27,07:34:09,08:44:41,NA,incomplete,false,NA,true,7,3,NA,NA,left,NA,NA,m_l_002.jpg,n_s_028.jpg,between-small,NA,NaN,NA,left,1109.2000000029802,1,1,876.1000000089407
mZBhXg6p,NA,NA,mZBhXg6p,2020-0188,2021-09-27,07:34:09,08:44:41,NA,incomplete,false,NA,true,7,4,NA,NA,left,NA,NA,n_s_028.jpg,n_l_020.jpg,within,NA,NaN,NA,right,1234.4000000059605,0,0,881.5999999940395
mZBhXg6p,NA,NA,mZBhXg6p,2020-0188,2021-09-27,07:34:09,08:44:41,NA,incomplete,false,NA,true,7,5,NA,NA,right,NA,NA,n_l_012.jpg,m_s_021.jpg,between-small,NA,NaN,NA,right,1307.2000000029802,1,1,2092
mZBhXg6p,NA,NA,mZBhXg6p,2020-0188,2021-09-27,07:34:09,08:44:41,NA,incomplete,false,NA,true,7,6,NA,NA,left,NA,NA,i_c_006.jpg,i_s_026.jpg,within,NA,NaN,NA,left,1285.7999999970198,1,0,963.7999999970198
mZBhXg6p,NA,NA,mZBhXg6p,2020-0188,2021-09-27,07:34:09,08:44:41,NA,incomplete,false,NA,true,7,7,NA,NA,right,NA,NA,o_c_005.jpg,i_s_013.jpg,between-small,NA,NaN,NA,left,1414.800000011921,0,1,946.2999999970198
mZBhXg6p,NA,NA,mZBhXg6p,2020-0188,2021-09-27,07:34:09,08:44:41,NA,incomplete,false,NA,true,7,8,NA,NA,right,NA,NA,n_s_025.jpg,m_l_024.jpg,between-small,NA,NaN,NA,right,1088.5,1,1,951.4000000059605
mZBhXg6p,NA,NA,mZBhXg6p,2020-0188,2021-09-27,07:34:09,08:44:41,NA,incomplete,false,NA,true,7,9,NA,NA,right,NA,NA,m_s_021.jpg,m_l_015.jpg,within,NA,NaN,NA,right,1420.7999999970198,1,0,1554.4000000059605
mZBhXg6p,NA,NA,mZBhXg6p,2020-0188,2021-09-27,07:34:09,08:44:41,NA,incomplete,false,NA,true,7,10,NA,NA,left,NA,NA,a_1_010.jpg,c_1_013.jpg,between-small,NA,NaN,NA,left,1281.2999999970198,1,0,1889.6000000089407
mZBhXg6p,NA,NA,mZBhXg6p,2020-0188,2021-09-27,07:34:09,08:44:41,NA,incomplete,false,NA,true,7,11,NA,NA,left,NA,NA,c_2_019.jpg,c_2_023.jpg,within,NA,NaN,NA,left,1524.2999999970198,1,0,901.4000000059605
mZBhXg6p,NA,NA,mZBhXg6p,2020-0188,2021-09-27,07:34:09,08:44:41,NA,incomplete,false,NA,true,7,12,NA,NA,right,NA,NA,i_s_016.jpg,n_l_012.jpg,between-big,NA,NaN,NA,right,1435,1,2,1118.2999999970198
mZBhXg6p,NA,NA,mZBhXg6p,2020-0188,2021-09-27,07:34:09,08:44:41,NA,incomplete,false,NA,true,7,13,NA,NA,left,NA,NA,c_1_013.jpg,c_2_010.jpg,within,NA,NaN,NA,right,1604,0,1,1421.4000000059605
mZBhXg6p,NA,NA,mZBhXg6p,2020-0188,2021-09-27,07:34:09,08:44:41,NA,incomplete,false,NA,true,7,14,NA,NA,right,NA,NA,i_s_013.jpg,m_s_011.jpg,between-big,NA,NaN,NA,left,1023.6999999880791,0,1,2752.7000000029802
mZBhXg6p,NA,NA,mZBhXg6p,2020-0188,2021-09-27,07:34:09,08:44:41,NA,incomplete,false,NA,true,7,15,NA,NA,right,NA,NA,o_c_004.jpg,n_l_020.jpg,between-big,NA,NaN,NA,right,1622.2000000029802,1,2,1142.0999999940395
mZBhXg6p,NA,NA,mZBhXg6p,2020-0188,2021-09-27,07:34:09,08:44:41,NA,incomplete,false,NA,true,7,16,NA,NA,right,NA,NA,m_l_002.jpg,a_2_004.jpg,between-big,NA,NaN,NA,left,784.3999999910593,0,1,809.4000000059605
mZBhXg6p,NA,NA,mZBhXg6p,2020-0188,2021-09-27,07:34:09,08:44:41,NA,incomplete,false,NA,true,7,17,NA,NA,left,NA,NA,c_2_010.jpg,m_l_015.jpg,between-big,NA,NaN,NA,right,1128.5,0,1,855.9000000059605
mZBhXg6p,NA,NA,mZBhXg6p,2020-0188,2021-09-27,07:34:09,08:44:41,NA,incomplete,false,NA,true,7,18,NA,NA,left,NA,NA,o_c_004.jpg,o_s_017.jpg,within,NA,NaN,NA,left,1224.7999999970198,1,0,1803.4000000059605
mZBhXg6p,NA,NA,mZBhXg6p,2020-0188,2021-09-27,07:34:09,08:44:41,NA,incomplete,false,NA,true,7,19,NA,NA,left,NA,NA,a_1_026.jpg,c_1_011.jpg,within,NA,NaN,NA,right,749.5999999940395,0,1,1143.4000000059605
mZBhXg6p,NA,NA,mZBhXg6p,2020-0188,2021-09-27,07:34:09,08:44:41,NA,incomplete,false,NA,true,7,20,NA,NA,right,NA,NA,c_1_016.jpg,c_2_023.jpg,between-small,NA,NaN,NA,right,1034.8999999910593,1,0,985.7999999970198
mZBhXg6p,NA,NA,mZBhXg6p,2020-0188,2021-09-27,07:34:09,08:44:41,NA,incomplete,false,NA,true,7,21,NA,NA,right,NA,NA,a_2_023.jpg,c_1_011.jpg,between-small,NA,NaN,NA,left,677.4000000059605,0,0,1092.2999999970198
mZBhXg6p,NA,NA,mZBhXg6p,2020-0188,2021-09-27,07:34:09,08:44:41,NA,incomplete,false,NA,true,7,22,NA,NA,left,NA,NA,o_c_005.jpg,o_s_006.jpg,within,NA,NaN,NA,right,776.7000000029802,0,1,954.5
mZBhXg6p,NA,NA,mZBhXg6p,2020-0188,2021-09-27,07:34:09,08:44:41,NA,incomplete,false,NA,true,7,23,NA,NA,left,NA,NA,o_c_018.jpg,i_c_006.jpg,between-small,NA,NaN,NA,left,1871.0999999940395,1,1,713.1000000089407
mZBhXg6p,NA,NA,mZBhXg6p,2020-0188,2021-09-27,07:34:09,08:44:41,NA,incomplete,false,NA,true,7,24,NA,NA,right,NA,NA,o_s_020.jpg,o_s_017.jpg,between-small,NA,NaN,NA,left,912.4000000059605,0,0,982.3999999910593
mZBhXg6p,NA,NA,mZBhXg6p,2020-0188,2021-09-27,07:34:09,08:44:41,NA,incomplete,false,NA,true,7,25,NA,NA,right,NA,NA,m_s_018.jpg,c_1_016.jpg,between-big,NA,NaN,NA,left,1034.7999999970198,0,1,859.6999999880791
mZBhXg6p,NA,NA,mZBhXg6p,2020-0188,2021-09-27,07:34:09,08:44:41,NA,incomplete,false,NA,true,7,26,NA,NA,right,NA,NA,m_l_024.jpg,m_s_018.jpg,within,NA,NaN,NA,right,1293.7999999970198,1,0,1298.2999999970198
mZBhXg6p,NA,NA,mZBhXg6p,2020-0188,2021-09-27,07:34:09,08:44:41,NA,incomplete,false,true,NA,8,0,location,o_c_027.jpg,left,outdoor,indoor,NA,NA,NA,left,2643.80000001192,true,NA,NA,NA,NA,NA
mZBhXg6p,NA,NA,mZBhXg6p,2020-0188,2021-09-27,07:34:09,08:44:41,NA,incomplete,false,true,NA,8,1,location,i_c_025.jpg,left,indoor,outdoor,NA,NA,NA,left,1229.89999999106,true,NA,NA,NA,NA,NA
mZBhXg6p,NA,NA,mZBhXg6p,2020-0188,2021-09-27,07:34:09,08:44:41,NA,incomplete,false,true,NA,8,2,location,i_c_003.jpg,right,outdoor,indoor,NA,NA,NA,right,1336.5,true,NA,NA,NA,NA,NA
mZBhXg6p,NA,NA,mZBhXg6p,2020-0188,2021-09-27,07:34:09,08:44:41,NA,incomplete,false,true,NA,8,3,location,i_c_017.jpg,left,indoor,outdoor,NA,NA,NA,left,948.29999999702,true,NA,NA,NA,NA,NA
mZBhXg6p,NA,NA,mZBhXg6p,2020-0188,2021-09-27,07:34:09,08:44:41,NA,incomplete,false,true,NA,8,4,location,i_c_020.jpg,right,outdoor,indoor,NA,NA,NA,right,1180.29999999702,true,NA,NA,NA,NA,NA
mZBhXg6p,NA,NA,mZBhXg6p,2020-0188,2021-09-27,07:34:09,08:44:41,NA,incomplete,false,true,NA,8,5,building,o_s_007.jpg,right,cottage,skyscraper,NA,NA,NA,right,1638.29999999702,true,NA,NA,NA,NA,NA
mZBhXg6p,NA,NA,mZBhXg6p,2020-0188,2021-09-27,07:34:09,08:44:41,NA,incomplete,false,true,NA,8,6,building,o_c_016.jpg,right,skyscraper,cottage,NA,NA,NA,right,2658.09999999404,true,NA,NA,NA,NA,NA
mZBhXg6p,NA,NA,mZBhXg6p,2020-0188,2021-09-27,07:34:09,08:44:41,NA,incomplete,false,true,NA,8,7,building,i_s_019.jpg,left,skyscraper,cottage,NA,NA,NA,left,2914.69999998808,true,NA,NA,NA,NA,NA
mZBhXg6p,NA,NA,mZBhXg6p,2020-0188,2021-09-27,07:34:09,08:44:41,NA,incomplete,false,true,NA,8,8,building,i_c_002.jpg,right,skyscraper,cottage,NA,NA,NA,right,1673.09999999404,true,NA,NA,NA,NA,NA
mZBhXg6p,NA,NA,mZBhXg6p,2020-0188,2021-09-27,07:34:09,08:44:41,NA,incomplete,false,true,NA,8,9,building,o_s_018.jpg,right,cottage,skyscraper,NA,NA,NA,right,868.5,true,NA,NA,NA,NA,NA
mZBhXg6p,NA,NA,mZBhXg6p,2020-0188,2021-09-27,07:34:09,08:44:41,NA,incomplete,false,true,NA,8,10,origin,n_s_003.jpg,right,manmade,natural,NA,NA,NA,right,1635.29999999702,true,NA,NA,NA,NA,NA
mZBhXg6p,NA,NA,mZBhXg6p,2020-0188,2021-09-27,07:34:09,08:44:41,NA,incomplete,false,true,NA,8,11,origin,m_s_024.jpg,right,natural,manmade,NA,NA,NA,right,1671.10000000894,true,NA,NA,NA,NA,NA
mZBhXg6p,NA,NA,mZBhXg6p,2020-0188,2021-09-27,07:34:09,08:44:41,NA,incomplete,false,true,NA,8,12,origin,n_s_026.jpg,left,natural,manmade,NA,NA,NA,left,1424.79999999702,true,NA,NA,NA,NA,NA
mZBhXg6p,NA,NA,mZBhXg6p,2020-0188,2021-09-27,07:34:09,08:44:41,NA,incomplete,false,true,NA,8,13,origin,m_l_028.jpg,left,manmade,natural,NA,NA,NA,left,2946.10000000894,true,NA,NA,NA,NA,NA
mZBhXg6p,NA,NA,mZBhXg6p,2020-0188,2021-09-27,07:34:09,08:44:41,NA,incomplete,false,true,NA,8,14,origin,n_s_008.jpg,left,natural,manmade,NA,NA,NA,left,1988.40000000596,true,NA,NA,NA,NA,NA
mZBhXg6p,NA,NA,mZBhXg6p,2020-0188,2021-09-27,07:34:09,08:44:41,NA,incomplete,false,true,NA,8,15,size,m_s_025.jpg,right,large,small,NA,NA,NA,right,1825.20000000298,true,NA,NA,NA,NA,NA
mZBhXg6p,NA,NA,mZBhXg6p,2020-0188,2021-09-27,07:34:09,08:44:41,NA,incomplete,false,true,NA,8,16,size,m_l_020.jpg,left,large,small,NA,NA,NA,left,2393.20000000298,true,NA,NA,NA,NA,NA
mZBhXg6p,NA,NA,mZBhXg6p,2020-0188,2021-09-27,07:34:09,08:44:41,NA,incomplete,false,true,NA,8,17,size,n_s_013.jpg,left,small,large,NA,NA,NA,left,2106.79999999702,true,NA,NA,NA,NA,NA
mZBhXg6p,NA,NA,mZBhXg6p,2020-0188,2021-09-27,07:34:09,08:44:41,NA,incomplete,false,true,NA,8,18,size,m_l_019.jpg,left,large,small,NA,NA,NA,left,1242.40000000596,true,NA,NA,NA,NA,NA
mZBhXg6p,NA,NA,mZBhXg6p,2020-0188,2021-09-27,07:34:09,08:44:41,NA,incomplete,false,true,NA,8,19,size,m_l_021.jpg,left,large,small,NA,NA,NA,right,1254.80000001192,false,NA,NA,NA,NA,NA
mZBhXg6p,NA,NA,mZBhXg6p,2020-0188,2021-09-27,07:34:09,08:44:41,NA,incomplete,false,true,NA,8,20,syllable,c_2_008.jpg,right,2 syllables,1 syllable,NA,NA,NA,left,1224.89999999106,false,NA,NA,NA,NA,NA
mZBhXg6p,NA,NA,mZBhXg6p,2020-0188,2021-09-27,07:34:09,08:44:41,NA,incomplete,false,true,NA,8,21,syllable,c_2_006.jpg,right,2 syllables,1 syllable,NA,NA,NA,left,1137.10000000894,false,NA,NA,NA,NA,NA
mZBhXg6p,NA,NA,mZBhXg6p,2020-0188,2021-09-27,07:34:09,08:44:41,NA,incomplete,false,true,NA,8,22,syllable,c_2_022.jpg,right,2 syllables,1 syllable,NA,NA,NA,left,1141.09999999404,false,NA,NA,NA,NA,NA
mZBhXg6p,NA,NA,mZBhXg6p,2020-0188,2021-09-27,07:34:09,08:44:41,NA,incomplete,false,true,NA,8,23,syllable,c_2_016.jpg,right,2 syllables,1 syllable,NA,NA,NA,left,1359.79999999702,false,NA,NA,NA,NA,NA
mZBhXg6p,NA,NA,mZBhXg6p,2020-0188,2021-09-27,07:34:09,08:44:41,NA,incomplete,false,true,NA,8,24,syllable,a_1_020.jpg,right,1 syllable,2 syllables,NA,NA,NA,left,1360.10000000894,false,NA,NA,NA,NA,NA
mZBhXg6p,NA,NA,mZBhXg6p,2020-0188,2021-09-27,07:34:09,08:44:41,NA,incomplete,false,true,NA,8,25,abstractness,a_1_025.jpg,right,concrete,abstract,NA,NA,NA,left,2184.89999999106,false,NA,NA,NA,NA,NA
mZBhXg6p,NA,NA,mZBhXg6p,2020-0188,2021-09-27,07:34:09,08:44:41,NA,incomplete,false,true,NA,8,26,abstractness,c_1_008.jpg,left,concrete,abstract,NA,NA,NA,left,1234.39999999106,true,NA,NA,NA,NA,NA
mZBhXg6p,NA,NA,mZBhXg6p,2020-0188,2021-09-27,07:34:09,08:44:41,NA,incomplete,false,true,NA,8,27,abstractness,a_1_017.jpg,left,abstract,concrete,NA,NA,NA,right,2621.10000000894,false,NA,NA,NA,NA,NA
mZBhXg6p,NA,NA,mZBhXg6p,2020-0188,2021-09-27,07:34:09,08:44:41,NA,incomplete,false,true,NA,8,28,abstractness,a_1_014.jpg,right,concrete,abstract,NA,NA,NA,left,3315.90000000596,false,NA,NA,NA,NA,NA
mZBhXg6p,NA,NA,mZBhXg6p,2020-0188,2021-09-27,07:34:09,08:44:41,NA,incomplete,false,true,NA,8,29,abstractness,a_2_011.jpg,left,abstract,concrete,NA,NA,NA,right,1556.70000000298,false,NA,NA,NA,NA,NA
mZBhXg6p,NA,NA,mZBhXg6p,2020-0188,2021-09-27,07:34:09,08:44:41,NA,incomplete,false,NA,true,8,0,NA,NA,right,NA,NA,a_1_017.jpg,a_1_020.jpg,between-small,NA,NaN,NA,right,2032.5999999940395,1,1,896.0999999940395
mZBhXg6p,NA,NA,mZBhXg6p,2020-0188,2021-09-27,07:34:09,08:44:41,NA,incomplete,false,NA,true,8,1,NA,NA,left,NA,NA,n_s_008.jpg,n_s_013.jpg,between-small,NA,NaN,NA,right,1789.1000000089407,0,1,1052.7000000029802
mZBhXg6p,NA,NA,mZBhXg6p,2020-0188,2021-09-27,07:34:09,08:44:41,NA,incomplete,false,NA,true,8,2,NA,NA,right,NA,NA,i_s_019.jpg,i_c_020.jpg,between-small,NA,NaN,NA,left,976.0999999940395,0,0,1078.2999999970198
mZBhXg6p,NA,NA,mZBhXg6p,2020-0188,2021-09-27,07:34:09,08:44:41,NA,incomplete,false,NA,true,8,3,NA,NA,right,NA,NA,a_1_014.jpg,a_1_025.jpg,within,NA,NaN,NA,left,2178.5,0,1,734.4000000059605
mZBhXg6p,NA,NA,mZBhXg6p,2020-0188,2021-09-27,07:34:09,08:44:41,NA,incomplete,false,NA,true,8,4,NA,NA,left,NA,NA,m_l_019.jpg,c_2_006.jpg,between-big,NA,NaN,NA,right,907.7000000029802,0,1,866.9000000059605
mZBhXg6p,NA,NA,mZBhXg6p,2020-0188,2021-09-27,07:34:09,08:44:41,NA,incomplete,false,NA,true,8,5,NA,NA,left,NA,NA,i_c_002.jpg,m_s_024.jpg,between-big,NA,NaN,NA,left,1074,1,0,2318.3999999910593
mZBhXg6p,NA,NA,mZBhXg6p,2020-0188,2021-09-27,07:34:09,08:44:41,NA,incomplete,false,NA,true,8,6,NA,NA,right,NA,NA,c_2_016.jpg,c_2_008.jpg,within,NA,NaN,NA,right,998.8999999910593,1,1,759
mZBhXg6p,NA,NA,mZBhXg6p,2020-0188,2021-09-27,07:34:09,08:44:41,NA,incomplete,false,NA,true,8,7,NA,NA,right,NA,NA,m_l_021.jpg,m_l_020.jpg,within,NA,NaN,NA,right,934.2000000029802,1,0,1981.7999999970198
mZBhXg6p,NA,NA,mZBhXg6p,2020-0188,2021-09-27,07:34:09,08:44:41,NA,incomplete,false,NA,true,8,8,NA,NA,right,NA,NA,i_c_002.jpg,o_s_007.jpg,within,NA,NaN,NA,right,1158.4000000059605,1,0,1096.1000000089407
mZBhXg6p,NA,NA,mZBhXg6p,2020-0188,2021-09-27,07:34:09,08:44:41,NA,incomplete,false,NA,true,8,9,NA,NA,left,NA,NA,o_c_016.jpg,o_s_018.jpg,within,NA,NaN,NA,left,1564.0999999940395,1,1,793.2000000029802
mZBhXg6p,NA,NA,mZBhXg6p,2020-0188,2021-09-27,07:34:09,08:44:41,NA,incomplete,false,NA,true,8,10,NA,NA,right,NA,NA,i_c_017.jpg,o_c_027.jpg,within,NA,NaN,NA,right,765.5,1,0,898.0999999940395
mZBhXg6p,NA,NA,mZBhXg6p,2020-0188,2021-09-27,07:34:09,08:44:41,NA,incomplete,false,NA,true,8,11,NA,NA,left,NA,NA,m_s_025.jpg,m_l_019.jpg,within,NA,NaN,NA,left,995.5,1,1,1041.5999999940395
mZBhXg6p,NA,NA,mZBhXg6p,2020-0188,2021-09-27,07:34:09,08:44:41,NA,incomplete,false,NA,true,8,12,NA,NA,left,NA,NA,c_2_022.jpg,a_1_025.jpg,between-small,NA,NaN,NA,left,1540.5999999940395,1,0,757.7999999970198
mZBhXg6p,NA,NA,mZBhXg6p,2020-0188,2021-09-27,07:34:09,08:44:41,NA,incomplete,false,NA,true,8,13,NA,NA,right,NA,NA,c_2_022.jpg,m_l_021.jpg,between-big,NA,NaN,NA,left,2046.2000000029802,0,1,1776.7000000029802
mZBhXg6p,NA,NA,mZBhXg6p,2020-0188,2021-09-27,07:34:09,08:44:41,NA,incomplete,false,NA,true,8,14,NA,NA,left,NA,NA,n_s_013.jpg,c_2_008.jpg,between-big,NA,NaN,NA,right,1556.7999999970198,0,0,829.0999999940395
mZBhXg6p,NA,NA,mZBhXg6p,2020-0188,2021-09-27,07:34:09,08:44:41,NA,incomplete,false,NA,true,8,15,NA,NA,left,NA,NA,i_c_003.jpg,o_s_007.jpg,between-small,NA,NaN,NA,left,671.2999999970198,1,1,947.2000000029802
mZBhXg6p,NA,NA,mZBhXg6p,2020-0188,2021-09-27,07:34:09,08:44:41,NA,incomplete,false,NA,true,8,16,NA,NA,left,NA,NA,n_s_003.jpg,m_l_028.jpg,within,NA,NaN,NA,right,1568.6000000089407,0,0,905.7999999970198
mZBhXg6p,NA,NA,mZBhXg6p,2020-0188,2021-09-27,07:34:09,08:44:41,NA,incomplete,false,NA,true,8,17,NA,NA,right,NA,NA,m_l_020.jpg,m_l_028.jpg,between-small,NA,NaN,NA,right,868.4000000059605,1,0,1084
mZBhXg6p,NA,NA,mZBhXg6p,2020-0188,2021-09-27,07:34:09,08:44:41,NA,incomplete,false,NA,true,8,18,NA,NA,left,NA,NA,c_2_016.jpg,c_1_008.jpg,between-small,NA,NaN,NA,left,697.8999999910593,1,1,853.8999999910593
mZBhXg6p,NA,NA,mZBhXg6p,2020-0188,2021-09-27,07:34:09,08:44:41,NA,incomplete,false,NA,true,8,19,NA,NA,left,NA,NA,i_c_025.jpg,i_c_020.jpg,within,NA,NaN,NA,right,842.7000000029802,0,1,1049
mZBhXg6p,NA,NA,mZBhXg6p,2020-0188,2021-09-27,07:34:09,08:44:41,NA,incomplete,false,NA,true,8,20,NA,NA,right,NA,NA,o_c_016.jpg,i_c_017.jpg,between-small,NA,NaN,NA,left,588.8000000119209,0,1,1406
mZBhXg6p,NA,NA,mZBhXg6p,2020-0188,2021-09-27,07:34:09,08:44:41,NA,incomplete,false,NA,true,8,21,NA,NA,left,NA,NA,n_s_026.jpg,m_s_025.jpg,between-small,NA,NaN,NA,right,1545.4000000059605,0,1,906.9000000059605
mZBhXg6p,NA,NA,mZBhXg6p,2020-0188,2021-09-27,07:34:09,08:44:41,NA,incomplete,false,NA,true,8,22,NA,NA,left,NA,NA,m_s_024.jpg,n_s_008.jpg,within,NA,NaN,NA,right,913.7999999970198,0,1,712.2999999970198
mZBhXg6p,NA,NA,mZBhXg6p,2020-0188,2021-09-27,07:34:09,08:44:41,NA,incomplete,false,NA,true,8,23,NA,NA,left,NA,NA,c_1_008.jpg,a_2_011.jpg,within,NA,NaN,NA,left,635.3000000119209,1,1,788.0999999940395
mZBhXg6p,NA,NA,mZBhXg6p,2020-0188,2021-09-27,07:34:09,08:44:41,NA,incomplete,false,NA,true,8,24,NA,NA,right,NA,NA,n_s_003.jpg,i_s_019.jpg,between-big,NA,NaN,NA,right,796.9000000059605,1,0,663.5
mZBhXg6p,NA,NA,mZBhXg6p,2020-0188,2021-09-27,07:34:09,08:44:41,NA,incomplete,false,NA,true,8,25,NA,NA,left,NA,NA,o_s_018.jpg,n_s_026.jpg,between-big,NA,NaN,NA,left,1196.699999988079,1,2,1755.2000000029802
mZBhXg6p,NA,NA,mZBhXg6p,2020-0188,2021-09-27,07:34:09,08:44:41,NA,incomplete,false,NA,true,8,26,NA,NA,right,NA,NA,a_1_020.jpg,c_2_006.jpg,within,NA,NaN,NA,right,695.4000000059605,1,1,714.3999999910593
mZBhXg6p,NA,NA,mZBhXg6p,2020-0188,2021-09-27,07:34:09,08:44:41,NA,incomplete,false,true,NA,9,0,location,i_s_023.jpg,left,indoor,outdoor,NA,NA,NA,left,2224.70000000298,true,NA,NA,NA,NA,NA
mZBhXg6p,NA,NA,mZBhXg6p,2020-0188,2021-09-27,07:34:09,08:44:41,NA,incomplete,false,true,NA,9,1,location,i_c_008.jpg,right,outdoor,indoor,NA,NA,NA,right,2660.29999999702,true,NA,NA,NA,NA,NA
mZBhXg6p,NA,NA,mZBhXg6p,2020-0188,2021-09-27,07:34:09,08:44:41,NA,incomplete,false,true,NA,9,2,location,i_c_022.jpg,left,indoor,outdoor,NA,NA,NA,left,1558.70000000298,true,NA,NA,NA,NA,NA
