workerId,hitId,assignmentId,subject,studyid,exp_date,exp_start,exp_end,time_start,time_end,practice,encoding,memory,block,trial,event,stim,answer,label_left,label_right,left_image,right_image,condition,response,response_time,response_acc,order_response,order_response_time,order_acc,distance_response,distance_response_time
nUAoRJz8,NA,NA,nUAoRJz8,2020-0188,2021-11-03,00:31:15,01:38:29,NA,incomplete,true,true,NA,0,0,location,o_c_002.jpg,right,indoor,outdoor,NA,NA,NA,right,1404.5,true,NA,NA,NA,NA,NA
nUAoRJz8,NA,NA,nUAoRJz8,2020-0188,2021-11-03,00:31:15,01:38:29,NA,incomplete,true,true,NA,0,1,location,o_s_026.jpg,right,indoor,outdoor,NA,NA,NA,right,2393.20000004768,true,NA,NA,NA,NA,NA
nUAoRJz8,NA,NA,nUAoRJz8,2020-0188,2021-11-03,00:31:15,01:38:29,NA,incomplete,true,true,NA,0,2,location,o_c_004.jpg,right,indoor,outdoor,NA,NA,NA,right,1630.79999995232,true,NA,NA,NA,NA,NA
nUAoRJz8,NA,NA,nUAoRJz8,2020-0188,2021-11-03,00:31:15,01:38:29,NA,incomplete,true,true,NA,0,3,location,i_c_019.jpg,left,indoor,outdoor,NA,NA,NA,left,1087,true,NA,NA,NA,NA,NA
nUAoRJz8,NA,NA,nUAoRJz8,2020-0188,2021-11-03,00:31:15,01:38:29,NA,incomplete,true,true,NA,0,4,location,i_c_026.jpg,left,indoor,outdoor,NA,NA,NA,left,1476.60000014305,true,NA,NA,NA,NA,NA
nUAoRJz8,NA,NA,nUAoRJz8,2020-0188,2021-11-03,00:31:15,01:38:29,NA,incomplete,true,true,NA,0,5,building,i_c_027.jpg,right,skyscraper,cottage,NA,NA,NA,right,1461.5,true,NA,NA,NA,NA,NA
nUAoRJz8,NA,NA,nUAoRJz8,2020-0188,2021-11-03,00:31:15,01:38:29,NA,incomplete,true,true,NA,0,6,building,i_c_010.jpg,left,cottage,skyscraper,NA,NA,NA,left,1377.10000014305,true,NA,NA,NA,NA,NA
nUAoRJz8,NA,NA,nUAoRJz8,2020-0188,2021-11-03,00:31:15,01:38:29,NA,incomplete,true,true,NA,0,7,building,o_s_021.jpg,left,skyscraper,cottage,NA,NA,NA,right,639.299999952316,false,NA,NA,NA,NA,NA
nUAoRJz8,NA,NA,nUAoRJz8,2020-0188,2021-11-03,00:31:15,01:38:29,NA,incomplete,true,true,NA,0,8,building,i_c_009.jpg,left,cottage,skyscraper,NA,NA,NA,left,1118,true,NA,NA,NA,NA,NA
nUAoRJz8,NA,NA,nUAoRJz8,2020-0188,2021-11-03,00:31:15,01:38:29,NA,incomplete,true,true,NA,0,9,building,o_s_012.jpg,right,cottage,skyscraper,NA,NA,NA,right,980.400000095367,true,NA,NA,NA,NA,NA
nUAoRJz8,NA,NA,nUAoRJz8,2020-0188,2021-11-03,00:31:15,01:38:29,NA,incomplete,true,true,NA,0,10,syllable,a_2_006.jpg,right,1 syllable,2 syllables,NA,NA,NA,right,1440.80000019073,true,NA,NA,NA,NA,NA
nUAoRJz8,NA,NA,nUAoRJz8,2020-0188,2021-11-03,00:31:15,01:38:29,NA,incomplete,true,true,NA,0,11,syllable,c_1_017.jpg,right,2 syllables,1 syllable,NA,NA,NA,right,1261.29999995232,true,NA,NA,NA,NA,NA
nUAoRJz8,NA,NA,nUAoRJz8,2020-0188,2021-11-03,00:31:15,01:38:29,NA,incomplete,true,true,NA,0,12,syllable,a_2_008.jpg,right,2 syllables,1 syllable,NA,NA,NA,left,1065.79999995232,false,NA,NA,NA,NA,NA
nUAoRJz8,NA,NA,nUAoRJz8,2020-0188,2021-11-03,00:31:15,01:38:29,NA,incomplete,true,true,NA,0,13,syllable,a_1_027.jpg,right,2 syllables,1 syllable,NA,NA,NA,right,698.199999809265,true,NA,NA,NA,NA,NA
nUAoRJz8,NA,NA,nUAoRJz8,2020-0188,2021-11-03,00:31:15,01:38:29,NA,incomplete,true,true,NA,0,14,syllable,a_1_001.jpg,right,1 syllable,2 syllables,NA,NA,NA,left,807.899999856949,false,NA,NA,NA,NA,NA
nUAoRJz8,NA,NA,nUAoRJz8,2020-0188,2021-11-03,00:31:15,01:38:29,NA,incomplete,true,true,NA,0,15,abstractness,c_2_016.jpg,left,concrete,abstract,NA,NA,NA,left,2493.70000004768,true,NA,NA,NA,NA,NA
nUAoRJz8,NA,NA,nUAoRJz8,2020-0188,2021-11-03,00:31:15,01:38:29,NA,incomplete,true,true,NA,0,16,abstractness,a_1_018.jpg,right,concrete,abstract,NA,NA,NA,right,1392.10000014305,true,NA,NA,NA,NA,NA
nUAoRJz8,NA,NA,nUAoRJz8,2020-0188,2021-11-03,00:31:15,01:38:29,NA,incomplete,true,true,NA,0,17,abstractness,c_1_016.jpg,right,abstract,concrete,NA,NA,NA,right,1739,true,NA,NA,NA,NA,NA
nUAoRJz8,NA,NA,nUAoRJz8,2020-0188,2021-11-03,00:31:15,01:38:29,NA,incomplete,true,true,NA,0,18,abstractness,a_2_019.jpg,left,abstract,concrete,NA,NA,NA,left,1485.69999980927,true,NA,NA,NA,NA,NA
nUAoRJz8,NA,NA,nUAoRJz8,2020-0188,2021-11-03,00:31:15,01:38:29,NA,incomplete,true,true,NA,0,19,abstractness,c_2_008.jpg,left,concrete,abstract,NA,NA,NA,left,1175.20000004768,true,NA,NA,NA,NA,NA
nUAoRJz8,NA,NA,nUAoRJz8,2020-0188,2021-11-03,00:31:15,01:38:29,NA,incomplete,true,true,NA,0,20,origin,m_l_003.jpg,left,manmade,natural,NA,NA,NA,left,1315,true,NA,NA,NA,NA,NA
nUAoRJz8,NA,NA,nUAoRJz8,2020-0188,2021-11-03,00:31:15,01:38:29,NA,incomplete,true,true,NA,0,21,origin,m_l_025.jpg,right,natural,manmade,NA,NA,NA,right,1432.29999995232,true,NA,NA,NA,NA,NA
nUAoRJz8,NA,NA,nUAoRJz8,2020-0188,2021-11-03,00:31:15,01:38:29,NA,incomplete,true,true,NA,0,22,origin,m_s_016.jpg,right,natural,manmade,NA,NA,NA,right,1705.89999985695,true,NA,NA,NA,NA,NA
nUAoRJz8,NA,NA,nUAoRJz8,2020-0188,2021-11-03,00:31:15,01:38:29,NA,incomplete,true,true,NA,0,23,origin,n_s_028.jpg,right,manmade,natural,NA,NA,NA,right,1466.70000004768,true,NA,NA,NA,NA,NA
nUAoRJz8,NA,NA,nUAoRJz8,2020-0188,2021-11-03,00:31:15,01:38:29,NA,incomplete,true,true,NA,0,24,origin,n_l_022.jpg,left,natural,manmade,NA,NA,NA,left,2076.20000004768,true,NA,NA,NA,NA,NA
nUAoRJz8,NA,NA,nUAoRJz8,2020-0188,2021-11-03,00:31:15,01:38:29,NA,incomplete,true,true,NA,0,25,size,n_s_006.jpg,left,small,large,NA,NA,NA,left,1455.79999995232,true,NA,NA,NA,NA,NA
nUAoRJz8,NA,NA,nUAoRJz8,2020-0188,2021-11-03,00:31:15,01:38:29,NA,incomplete,true,true,NA,0,26,size,m_s_021.jpg,right,large,small,NA,NA,NA,right,1058.40000009537,true,NA,NA,NA,NA,NA
nUAoRJz8,NA,NA,nUAoRJz8,2020-0188,2021-11-03,00:31:15,01:38:29,NA,incomplete,true,true,NA,0,27,size,n_s_025.jpg,right,large,small,NA,NA,NA,right,1430.20000004768,true,NA,NA,NA,NA,NA
nUAoRJz8,NA,NA,nUAoRJz8,2020-0188,2021-11-03,00:31:15,01:38:29,NA,incomplete,true,true,NA,0,28,size,n_l_020.jpg,left,large,small,NA,NA,NA,left,701.5,true,NA,NA,NA,NA,NA
nUAoRJz8,NA,NA,nUAoRJz8,2020-0188,2021-11-03,00:31:15,01:38:29,NA,incomplete,true,true,NA,0,29,size,n_s_007.jpg,left,small,large,NA,NA,NA,left,1067.60000014305,true,NA,NA,NA,NA,NA
nUAoRJz8,NA,NA,nUAoRJz8,2020-0188,2021-11-03,00:31:15,01:38:29,NA,incomplete,true,NA,true,0,0,NA,NA,left,NA,NA,a_1_027.jpg,a_1_018.jpg,between-small,NA,NaN,NA,right,4999.900000095367,0,1,5423.700000047684
nUAoRJz8,NA,NA,nUAoRJz8,2020-0188,2021-11-03,00:31:15,01:38:29,NA,incomplete,true,NA,true,0,1,NA,NA,left,NA,NA,n_s_006.jpg,n_l_020.jpg,within,NA,NaN,NA,left,3596.5999999046326,1,1,3185.7000000476837
nUAoRJz8,NA,NA,nUAoRJz8,2020-0188,2021-11-03,00:31:15,01:38:29,NA,incomplete,true,NA,true,0,2,NA,NA,right,NA,NA,n_s_006.jpg,m_s_016.jpg,between-small,NA,NaN,NA,left,3148.7999999523163,0,1,1810.2000000476837
nUAoRJz8,NA,NA,nUAoRJz8,2020-0188,2021-11-03,00:31:15,01:38:29,NA,incomplete,true,NA,true,0,3,NA,NA,left,NA,NA,o_c_002.jpg,i_c_019.jpg,within,NA,NaN,NA,left,2395.7000000476837,1,1,1634.5999999046326
nUAoRJz8,NA,NA,nUAoRJz8,2020-0188,2021-11-03,00:31:15,01:38:29,NA,incomplete,true,NA,true,0,4,NA,NA,right,NA,NA,i_c_026.jpg,o_s_026.jpg,within,NA,NaN,NA,right,3958.699999809265,1,1,1297.4000000953674
nUAoRJz8,NA,NA,nUAoRJz8,2020-0188,2021-11-03,00:31:15,01:38:29,NA,incomplete,true,NA,true,0,5,NA,NA,right,NA,NA,n_l_022.jpg,m_l_025.jpg,within,NA,NaN,NA,right,2595.100000143051,1,1,1360.8000001907349
nUAoRJz8,NA,NA,nUAoRJz8,2020-0188,2021-11-03,00:31:15,01:38:29,NA,incomplete,true,NA,true,0,6,NA,NA,right,NA,NA,n_s_007.jpg,m_s_021.jpg,within,NA,NaN,NA,right,2817.7000000476837,1,0,1840.2999999523163
nUAoRJz8,NA,NA,nUAoRJz8,2020-0188,2021-11-03,00:31:15,01:38:29,NA,incomplete,true,NA,true,0,7,NA,NA,left,NA,NA,i_c_009.jpg,c_1_017.jpg,between-big,NA,NaN,NA,left,3565.100000143051,1,2,1697.5
nUAoRJz8,NA,NA,nUAoRJz8,2020-0188,2021-11-03,00:31:15,01:38:29,NA,incomplete,true,NA,true,0,8,NA,NA,right,NA,NA,m_l_025.jpg,a_2_019.jpg,between-big,NA,NaN,NA,right,2580,1,2,1216.2000000476837
nUAoRJz8,NA,NA,nUAoRJz8,2020-0188,2021-11-03,00:31:15,01:38:29,NA,incomplete,true,NA,true,0,9,NA,NA,left,NA,NA,c_2_008.jpg,m_s_016.jpg,between-big,NA,NaN,NA,left,4868.799999952316,1,2,1537.0999999046326
nUAoRJz8,NA,NA,nUAoRJz8,2020-0188,2021-11-03,00:31:15,01:38:29,NA,incomplete,true,NA,true,0,10,NA,NA,right,NA,NA,a_2_019.jpg,c_2_016.jpg,within,NA,NaN,NA,right,2226.7000000476837,1,0,1825.4000000953674
nUAoRJz8,NA,NA,nUAoRJz8,2020-0188,2021-11-03,00:31:15,01:38:29,NA,incomplete,true,NA,true,0,11,NA,NA,left,NA,NA,i_c_010.jpg,o_s_012.jpg,within,NA,NaN,NA,left,4293.299999952316,1,1,849.9000000953674
nUAoRJz8,NA,NA,nUAoRJz8,2020-0188,2021-11-03,00:31:15,01:38:29,NA,incomplete,true,NA,true,0,12,NA,NA,right,NA,NA,a_2_008.jpg,o_s_012.jpg,between-big,NA,NaN,NA,right,1450.2000000476837,1,2,1393.6999998092651
nUAoRJz8,NA,NA,nUAoRJz8,2020-0188,2021-11-03,00:31:15,01:38:29,NA,incomplete,true,NA,true,0,13,NA,NA,right,NA,NA,m_l_003.jpg,c_1_016.jpg,between-big,NA,NaN,NA,right,2659,1,2,1840
nUAoRJz8,NA,NA,nUAoRJz8,2020-0188,2021-11-03,00:31:15,01:38:29,NA,incomplete,true,NA,true,0,14,NA,NA,left,NA,NA,i_c_027.jpg,i_c_009.jpg,within,NA,NaN,NA,left,2296.600000143051,1,1,1601.5
nUAoRJz8,NA,NA,nUAoRJz8,2020-0188,2021-11-03,00:31:15,01:38:29,NA,incomplete,true,NA,true,0,15,NA,NA,left,NA,NA,a_1_018.jpg,c_2_008.jpg,within,NA,NaN,NA,right,4123.900000095367,0,1,1329.5
nUAoRJz8,NA,NA,nUAoRJz8,2020-0188,2021-11-03,00:31:15,01:38:29,NA,incomplete,true,NA,true,0,16,NA,NA,right,NA,NA,n_s_028.jpg,m_l_003.jpg,within,NA,NaN,NA,right,2786.7999999523163,1,1,1656.6000001430511
nUAoRJz8,NA,NA,nUAoRJz8,2020-0188,2021-11-03,00:31:15,01:38:29,NA,incomplete,true,NA,true,0,17,NA,NA,left,NA,NA,c_1_017.jpg,a_1_001.jpg,within,NA,NaN,NA,left,2194.7000000476837,1,1,1785.1000001430511
nUAoRJz8,NA,NA,nUAoRJz8,2020-0188,2021-11-03,00:31:15,01:38:29,NA,incomplete,true,NA,true,0,18,NA,NA,right,NA,NA,a_1_027.jpg,a_2_006.jpg,within,NA,NaN,NA,right,4984,1,1,1200.2999999523163
nUAoRJz8,NA,NA,nUAoRJz8,2020-0188,2021-11-03,00:31:15,01:38:29,NA,incomplete,true,NA,true,0,19,NA,NA,left,NA,NA,o_c_004.jpg,i_c_027.jpg,between-small,NA,NaN,NA,left,2035,1,1,1009.7000000476837
nUAoRJz8,NA,NA,nUAoRJz8,2020-0188,2021-11-03,00:31:15,01:38:29,NA,incomplete,true,NA,true,0,20,NA,NA,left,NA,NA,o_s_021.jpg,a_2_006.jpg,between-big,NA,NaN,NA,left,1947.2000000476837,1,2,1600.8000001907349
nUAoRJz8,NA,NA,nUAoRJz8,2020-0188,2021-11-03,00:31:15,01:38:29,NA,incomplete,true,NA,true,0,21,NA,NA,right,NA,NA,n_s_025.jpg,n_l_022.jpg,between-small,NA,NaN,NA,left,2546.5999999046326,0,1,1248.1999998092651
nUAoRJz8,NA,NA,nUAoRJz8,2020-0188,2021-11-03,00:31:15,01:38:29,NA,incomplete,true,NA,true,0,22,NA,NA,right,NA,NA,c_1_016.jpg,a_1_001.jpg,between-small,NA,NaN,NA,right,2289.2000000476837,1,1,799
nUAoRJz8,NA,NA,nUAoRJz8,2020-0188,2021-11-03,00:31:15,01:38:29,NA,incomplete,true,NA,true,0,23,NA,NA,right,NA,NA,i_c_010.jpg,i_c_019.jpg,between-small,NA,NaN,NA,right,1697.5,1,1,879.2000000476837
nUAoRJz8,NA,NA,nUAoRJz8,2020-0188,2021-11-03,00:31:15,01:38:29,NA,incomplete,true,NA,true,0,24,NA,NA,right,NA,NA,o_s_021.jpg,i_c_026.jpg,between-small,NA,NaN,NA,left,7570.299999952316,0,1,1616.5
nUAoRJz8,NA,NA,nUAoRJz8,2020-0188,2021-11-03,00:31:15,01:38:29,NA,incomplete,true,NA,true,0,25,NA,NA,right,NA,NA,c_2_016.jpg,a_2_008.jpg,between-small,NA,NaN,NA,left,1747.5,0,2,2450.7999999523163
nUAoRJz8,NA,NA,nUAoRJz8,2020-0188,2021-11-03,00:31:15,01:38:29,NA,incomplete,true,NA,true,0,26,NA,NA,right,NA,NA,m_s_021.jpg,n_s_028.jpg,between-small,NA,NaN,NA,left,2071.9000000953674,0,1,816.0999999046326
nUAoRJz8,NA,NA,nUAoRJz8,2020-0188,2021-11-03,00:31:15,01:38:29,NA,incomplete,false,true,NA,1,0,location,i_s_002.jpg,right,outdoor,indoor,NA,NA,NA,right,1920.10000014305,true,NA,NA,NA,NA,NA
nUAoRJz8,NA,NA,nUAoRJz8,2020-0188,2021-11-03,00:31:15,01:38:29,NA,incomplete,false,true,NA,1,1,location,o_s_011.jpg,right,indoor,outdoor,NA,NA,NA,right,1947.09999990463,true,NA,NA,NA,NA,NA
nUAoRJz8,NA,NA,nUAoRJz8,2020-0188,2021-11-03,00:31:15,01:38:29,NA,incomplete,false,true,NA,1,2,location,i_c_003.jpg,left,indoor,outdoor,NA,NA,NA,left,1572,true,NA,NA,NA,NA,NA
nUAoRJz8,NA,NA,nUAoRJz8,2020-0188,2021-11-03,00:31:15,01:38:29,NA,incomplete,false,true,NA,1,3,location,i_c_001.jpg,right,outdoor,indoor,NA,NA,NA,right,1488.60000014305,true,NA,NA,NA,NA,NA
nUAoRJz8,NA,NA,nUAoRJz8,2020-0188,2021-11-03,00:31:15,01:38:29,NA,incomplete,false,true,NA,1,4,location,o_s_010.jpg,left,outdoor,indoor,NA,NA,NA,left,1469.60000014305,true,NA,NA,NA,NA,NA
nUAoRJz8,NA,NA,nUAoRJz8,2020-0188,2021-11-03,00:31:15,01:38:29,NA,incomplete,false,true,NA,1,5,building,i_s_027.jpg,left,skyscraper,cottage,NA,NA,NA,left,1973,true,NA,NA,NA,NA,NA
nUAoRJz8,NA,NA,nUAoRJz8,2020-0188,2021-11-03,00:31:15,01:38:29,NA,incomplete,false,true,NA,1,6,building,o_c_020.jpg,left,cottage,skyscraper,NA,NA,NA,left,1207.20000004768,true,NA,NA,NA,NA,NA
nUAoRJz8,NA,NA,nUAoRJz8,2020-0188,2021-11-03,00:31:15,01:38:29,NA,incomplete,false,true,NA,1,7,building,i_s_004.jpg,right,cottage,skyscraper,NA,NA,NA,right,1319.5,true,NA,NA,NA,NA,NA
nUAoRJz8,NA,NA,nUAoRJz8,2020-0188,2021-11-03,00:31:15,01:38:29,NA,incomplete,false,true,NA,1,8,building,o_c_016.jpg,right,skyscraper,cottage,NA,NA,NA,right,1831.20000004768,true,NA,NA,NA,NA,NA
nUAoRJz8,NA,NA,nUAoRJz8,2020-0188,2021-11-03,00:31:15,01:38:29,NA,incomplete,false,true,NA,1,9,building,o_s_027.jpg,left,skyscraper,cottage,NA,NA,NA,left,936.900000095367,true,NA,NA,NA,NA,NA
nUAoRJz8,NA,NA,nUAoRJz8,2020-0188,2021-11-03,00:31:15,01:38:29,NA,incomplete,false,true,NA,1,10,origin,m_s_015.jpg,left,manmade,natural,NA,NA,NA,left,1857.20000004768,true,NA,NA,NA,NA,NA
nUAoRJz8,NA,NA,nUAoRJz8,2020-0188,2021-11-03,00:31:15,01:38:29,NA,incomplete,false,true,NA,1,11,origin,n_l_011.jpg,right,manmade,natural,NA,NA,NA,right,1159.20000004768,true,NA,NA,NA,NA,NA
nUAoRJz8,NA,NA,nUAoRJz8,2020-0188,2021-11-03,00:31:15,01:38:29,NA,incomplete,false,true,NA,1,12,origin,m_s_002.jpg,right,natural,manmade,NA,NA,NA,right,1678.90000009537,true,NA,NA,NA,NA,NA
nUAoRJz8,NA,NA,nUAoRJz8,2020-0188,2021-11-03,00:31:15,01:38:29,NA,incomplete,false,true,NA,1,13,origin,n_s_026.jpg,left,natural,manmade,NA,NA,NA,left,973.599999904633,true,NA,NA,NA,NA,NA
nUAoRJz8,NA,NA,nUAoRJz8,2020-0188,2021-11-03,00:31:15,01:38:29,NA,incomplete,false,true,NA,1,14,origin,n_s_009.jpg,left,natural,manmade,NA,NA,NA,left,1453.5,true,NA,NA,NA,NA,NA
nUAoRJz8,NA,NA,nUAoRJz8,2020-0188,2021-11-03,00:31:15,01:38:29,NA,incomplete,false,true,NA,1,15,size,m_s_019.jpg,left,small,large,NA,NA,NA,left,1772.70000004768,true,NA,NA,NA,NA,NA
nUAoRJz8,NA,NA,nUAoRJz8,2020-0188,2021-11-03,00:31:15,01:38:29,NA,incomplete,false,true,NA,1,16,size,m_l_011.jpg,right,small,large,NA,NA,NA,right,1622.20000004768,true,NA,NA,NA,NA,NA
nUAoRJz8,NA,NA,nUAoRJz8,2020-0188,2021-11-03,00:31:15,01:38:29,NA,incomplete,false,true,NA,1,17,size,m_s_017.jpg,right,large,small,NA,NA,NA,right,1436.5,true,NA,NA,NA,NA,NA
nUAoRJz8,NA,NA,nUAoRJz8,2020-0188,2021-11-03,00:31:15,01:38:29,NA,incomplete,false,true,NA,1,18,size,n_l_023.jpg,left,large,small,NA,NA,NA,left,2182.5,true,NA,NA,NA,NA,NA
nUAoRJz8,NA,NA,nUAoRJz8,2020-0188,2021-11-03,00:31:15,01:38:29,NA,incomplete,false,true,NA,1,19,size,n_l_008.jpg,right,small,large,NA,NA,NA,right,2387,true,NA,NA,NA,NA,NA
nUAoRJz8,NA,NA,nUAoRJz8,2020-0188,2021-11-03,00:31:15,01:38:29,NA,incomplete,false,true,NA,1,20,syllable,c_1_028.jpg,right,2 syllables,1 syllable,NA,NA,NA,right,2808.70000004768,true,NA,NA,NA,NA,NA
nUAoRJz8,NA,NA,nUAoRJz8,2020-0188,2021-11-03,00:31:15,01:38:29,NA,incomplete,false,true,NA,1,21,syllable,c_2_023.jpg,right,1 syllable,2 syllables,NA,NA,NA,right,1938.5,true,NA,NA,NA,NA,NA
nUAoRJz8,NA,NA,nUAoRJz8,2020-0188,2021-11-03,00:31:15,01:38:29,NA,incomplete,false,true,NA,1,22,syllable,c_2_024.jpg,right,2 syllables,1 syllable,NA,NA,NA,left,1517,false,NA,NA,NA,NA,NA
nUAoRJz8,NA,NA,nUAoRJz8,2020-0188,2021-11-03,00:31:15,01:38:29,NA,incomplete,false,true,NA,1,23,syllable,a_1_017.jpg,right,1 syllable,2 syllables,NA,NA,NA,left,907.299999952316,false,NA,NA,NA,NA,NA
nUAoRJz8,NA,NA,nUAoRJz8,2020-0188,2021-11-03,00:31:15,01:38:29,NA,incomplete,false,true,NA,1,24,syllable,a_2_016.jpg,right,1 syllable,2 syllables,NA,NA,NA,right,1577.10000014305,true,NA,NA,NA,NA,NA
nUAoRJz8,NA,NA,nUAoRJz8,2020-0188,2021-11-03,00:31:15,01:38:29,NA,incomplete,false,true,NA,1,25,abstractness,c_2_028.jpg,right,abstract,concrete,NA,NA,NA,right,1617.5,true,NA,NA,NA,NA,NA
nUAoRJz8,NA,NA,nUAoRJz8,2020-0188,2021-11-03,00:31:15,01:38:29,NA,incomplete,false,true,NA,1,26,abstractness,c_2_003.jpg,left,concrete,abstract,NA,NA,NA,left,1957,true,NA,NA,NA,NA,NA
nUAoRJz8,NA,NA,nUAoRJz8,2020-0188,2021-11-03,00:31:15,01:38:29,NA,incomplete,false,true,NA,1,27,abstractness,c_1_006.jpg,left,concrete,abstract,NA,NA,NA,left,2450.89999985695,true,NA,NA,NA,NA,NA
nUAoRJz8,NA,NA,nUAoRJz8,2020-0188,2021-11-03,00:31:15,01:38:29,NA,incomplete,false,true,NA,1,28,abstractness,a_1_015.jpg,left,abstract,concrete,NA,NA,NA,left,2062.90000009537,true,NA,NA,NA,NA,NA
nUAoRJz8,NA,NA,nUAoRJz8,2020-0188,2021-11-03,00:31:15,01:38:29,NA,incomplete,false,true,NA,1,29,abstractness,c_2_027.jpg,right,abstract,concrete,NA,NA,NA,right,1569,true,NA,NA,NA,NA,NA
nUAoRJz8,NA,NA,nUAoRJz8,2020-0188,2021-11-03,00:31:15,01:38:29,NA,incomplete,false,NA,true,1,0,NA,NA,left,NA,NA,n_s_026.jpg,m_l_011.jpg,between-small,NA,NaN,NA,left,8384.900000095367,1,2,2297.2000000476837
nUAoRJz8,NA,NA,nUAoRJz8,2020-0188,2021-11-03,00:31:15,01:38:29,NA,incomplete,false,NA,true,1,1,NA,NA,right,NA,NA,c_2_023.jpg,n_l_023.jpg,between-big,NA,NaN,NA,right,8784.5,1,2,1505.0999999046326
nUAoRJz8,NA,NA,nUAoRJz8,2020-0188,2021-11-03,00:31:15,01:38:29,NA,incomplete,false,NA,true,1,2,NA,NA,right,NA,NA,o_c_020.jpg,i_c_001.jpg,between-small,NA,NaN,NA,right,3346.5999999046326,1,2,1856.7000000476837
nUAoRJz8,NA,NA,nUAoRJz8,2020-0188,2021-11-03,00:31:15,01:38:29,NA,incomplete,false,NA,true,1,3,NA,NA,right,NA,NA,n_l_023.jpg,m_s_019.jpg,within,NA,NaN,NA,left,4999.700000047684,0,2,2948.199999809265
nUAoRJz8,NA,NA,nUAoRJz8,2020-0188,2021-11-03,00:31:15,01:38:29,NA,incomplete,false,NA,true,1,4,NA,NA,left,NA,NA,m_l_011.jpg,n_l_008.jpg,within,NA,NaN,NA,right,6620.600000143051,0,2,1455.2999999523163
nUAoRJz8,NA,NA,nUAoRJz8,2020-0188,2021-11-03,00:31:15,01:38:29,NA,incomplete,false,NA,true,1,5,NA,NA,left,NA,NA,a_1_017.jpg,c_2_003.jpg,between-small,NA,NaN,NA,right,6415.899999856949,0,2,1999.5
nUAoRJz8,NA,NA,nUAoRJz8,2020-0188,2021-11-03,00:31:15,01:38:29,NA,incomplete,false,NA,true,1,6,NA,NA,right,NA,NA,c_2_028.jpg,c_2_024.jpg,between-small,NA,NaN,NA,right,7436.900000095367,1,2,2033.7000000476837
nUAoRJz8,NA,NA,nUAoRJz8,2020-0188,2021-11-03,00:31:15,01:38:29,NA,incomplete,false,NA,true,1,7,NA,NA,left,NA,NA,i_s_004.jpg,m_s_015.jpg,between-big,NA,NaN,NA,left,1914.8000001907349,1,2,1089.2999999523163
nUAoRJz8,NA,NA,nUAoRJz8,2020-0188,2021-11-03,00:31:15,01:38:29,NA,incomplete,false,NA,true,1,8,NA,NA,left,NA,NA,c_2_003.jpg,c_2_027.jpg,within,NA,NaN,NA,right,6924.699999809265,0,1,1840.4000000953674
nUAoRJz8,NA,NA,nUAoRJz8,2020-0188,2021-11-03,00:31:15,01:38:29,NA,incomplete,false,NA,true,1,9,NA,NA,right,NA,NA,c_2_024.jpg,n_l_008.jpg,between-big,NA,NaN,NA,right,2107.300000190735,1,2,2939.0999999046326
nUAoRJz8,NA,NA,nUAoRJz8,2020-0188,2021-11-03,00:31:15,01:38:29,NA,incomplete,false,NA,true,1,10,NA,NA,left,NA,NA,m_s_017.jpg,c_1_028.jpg,between-big,NA,NaN,NA,left,2473.4000000953674,1,2,1424.2999999523163
nUAoRJz8,NA,NA,nUAoRJz8,2020-0188,2021-11-03,00:31:15,01:38:29,NA,incomplete,false,NA,true,1,11,NA,NA,left,NA,NA,i_s_002.jpg,i_c_001.jpg,within,NA,NaN,NA,left,4686.5,1,2,1898.1000001430511
nUAoRJz8,NA,NA,nUAoRJz8,2020-0188,2021-11-03,00:31:15,01:38:29,NA,incomplete,false,NA,true,1,12,NA,NA,left,NA,NA,n_s_009.jpg,m_s_017.jpg,between-small,NA,NaN,NA,left,2955,1,2,1369.7000000476837
nUAoRJz8,NA,NA,nUAoRJz8,2020-0188,2021-11-03,00:31:15,01:38:29,NA,incomplete,false,NA,true,1,13,NA,NA,left,NA,NA,o_c_016.jpg,n_l_011.jpg,between-big,NA,NaN,NA,left,3378.5999999046326,1,2,3218.899999856949
nUAoRJz8,NA,NA,nUAoRJz8,2020-0188,2021-11-03,00:31:15,01:38:29,NA,incomplete,false,NA,true,1,14,NA,NA,left,NA,NA,o_s_010.jpg,i_s_004.jpg,between-small,NA,NaN,NA,left,3137.5,1,2,1200.8000001907349
nUAoRJz8,NA,NA,nUAoRJz8,2020-0188,2021-11-03,00:31:15,01:38:29,NA,incomplete,false,NA,true,1,15,NA,NA,left,NA,NA,o_c_020.jpg,o_s_027.jpg,within,NA,NaN,NA,left,5598.099999904633,1,1,2497.9000000953674
nUAoRJz8,NA,NA,nUAoRJz8,2020-0188,2021-11-03,00:31:15,01:38:29,NA,incomplete,false,NA,true,1,16,NA,NA,right,NA,NA,a_1_015.jpg,c_2_028.jpg,within,NA,NaN,NA,right,2137.7999999523163,1,2,1889
nUAoRJz8,NA,NA,nUAoRJz8,2020-0188,2021-11-03,00:31:15,01:38:29,NA,incomplete,false,NA,true,1,17,NA,NA,right,NA,NA,i_s_027.jpg,i_c_003.jpg,between-small,NA,NaN,NA,right,4092,1,2,1217.8999998569489
nUAoRJz8,NA,NA,nUAoRJz8,2020-0188,2021-11-03,00:31:15,01:38:29,NA,incomplete,false,NA,true,1,18,NA,NA,left,NA,NA,a_2_016.jpg,c_1_006.jpg,between-small,NA,NaN,NA,left,3597.5999999046326,1,2,1602.0999999046326
nUAoRJz8,NA,NA,nUAoRJz8,2020-0188,2021-11-03,00:31:15,01:38:29,NA,incomplete,false,NA,true,1,19,NA,NA,right,NA,NA,n_s_026.jpg,m_s_015.jpg,within,NA,NaN,NA,right,1466.0999999046326,1,0,2162.2000000476837
nUAoRJz8,NA,NA,nUAoRJz8,2020-0188,2021-11-03,00:31:15,01:38:29,NA,incomplete,false,NA,true,1,20,NA,NA,right,NA,NA,n_s_009.jpg,n_l_011.jpg,within,NA,NaN,NA,right,2017.8999998569489,1,1,1009.5
nUAoRJz8,NA,NA,nUAoRJz8,2020-0188,2021-11-03,00:31:15,01:38:29,NA,incomplete,false,NA,true,1,21,NA,NA,right,NA,NA,a_2_016.jpg,c_2_023.jpg,within,NA,NaN,NA,right,4245.800000190735,1,2,1792.9000000953674
nUAoRJz8,NA,NA,nUAoRJz8,2020-0188,2021-11-03,00:31:15,01:38:29,NA,incomplete,false,NA,true,1,22,NA,NA,right,NA,NA,m_s_002.jpg,o_s_027.jpg,between-big,NA,NaN,NA,right,2241.7000000476837,1,3,927.0999999046326
nUAoRJz8,NA,NA,nUAoRJz8,2020-0188,2021-11-03,00:31:15,01:38:29,NA,incomplete,false,NA,true,1,23,NA,NA,left,NA,NA,i_s_027.jpg,o_c_016.jpg,within,NA,NaN,NA,left,4275.799999952316,1,2,3402.5
nUAoRJz8,NA,NA,nUAoRJz8,2020-0188,2021-11-03,00:31:15,01:38:29,NA,incomplete,false,NA,true,1,24,NA,NA,left,NA,NA,o_s_011.jpg,o_s_010.jpg,within,NA,NaN,NA,left,1330.2000000476837,1,0,1505.5
nUAoRJz8,NA,NA,nUAoRJz8,2020-0188,2021-11-03,00:31:15,01:38:29,NA,incomplete,false,NA,true,1,25,NA,NA,left,NA,NA,c_1_028.jpg,a_1_017.jpg,within,NA,NaN,NA,left,2475,1,2,1948.1000001430511
nUAoRJz8,NA,NA,nUAoRJz8,2020-0188,2021-11-03,00:31:15,01:38:29,NA,incomplete,false,NA,true,1,26,NA,NA,left,NA,NA,m_s_002.jpg,m_s_019.jpg,between-small,NA,NaN,NA,right,1761.9000000953674,0,1,2115.7999999523163
nUAoRJz8,NA,NA,nUAoRJz8,2020-0188,2021-11-03,00:31:15,01:38:29,NA,incomplete,false,true,NA,2,0,origin,n_s_021.jpg,right,manmade,natural,NA,NA,NA,right,1679,true,NA,NA,NA,NA,NA
nUAoRJz8,NA,NA,nUAoRJz8,2020-0188,2021-11-03,00:31:15,01:38:29,NA,incomplete,false,true,NA,2,1,origin,m_s_010.jpg,left,manmade,natural,NA,NA,NA,left,1539.20000004768,true,NA,NA,NA,NA,NA
nUAoRJz8,NA,NA,nUAoRJz8,2020-0188,2021-11-03,00:31:15,01:38:29,NA,incomplete,false,true,NA,2,2,origin,n_l_007.jpg,right,manmade,natural,NA,NA,NA,right,1334.59999990463,true,NA,NA,NA,NA,NA
nUAoRJz8,NA,NA,nUAoRJz8,2020-0188,2021-11-03,00:31:15,01:38:29,NA,incomplete,false,true,NA,2,3,origin,m_s_005.jpg,right,natural,manmade,NA,NA,NA,right,1727,true,NA,NA,NA,NA,NA
nUAoRJz8,NA,NA,nUAoRJz8,2020-0188,2021-11-03,00:31:15,01:38:29,NA,incomplete,false,true,NA,2,4,origin,m_l_008.jpg,right,natural,manmade,NA,NA,NA,right,1537.29999995232,true,NA,NA,NA,NA,NA
nUAoRJz8,NA,NA,nUAoRJz8,2020-0188,2021-11-03,00:31:15,01:38:29,NA,incomplete,false,true,NA,2,5,size,m_l_014.jpg,left,large,small,NA,NA,NA,left,1942.89999985695,true,NA,NA,NA,NA,NA
nUAoRJz8,NA,NA,nUAoRJz8,2020-0188,2021-11-03,00:31:15,01:38:29,NA,incomplete,false,true,NA,2,6,size,m_l_004.jpg,left,large,small,NA,NA,NA,left,1512.20000004768,true,NA,NA,NA,NA,NA
nUAoRJz8,NA,NA,nUAoRJz8,2020-0188,2021-11-03,00:31:15,01:38:29,NA,incomplete,false,true,NA,2,7,size,n_s_022.jpg,left,small,large,NA,NA,NA,left,1682.89999985695,true,NA,NA,NA,NA,NA
nUAoRJz8,NA,NA,nUAoRJz8,2020-0188,2021-11-03,00:31:15,01:38:29,NA,incomplete,false,true,NA,2,8,size,m_s_001.jpg,left,small,large,NA,NA,NA,left,1788.40000009537,true,NA,NA,NA,NA,NA
nUAoRJz8,NA,NA,nUAoRJz8,2020-0188,2021-11-03,00:31:15,01:38:29,NA,incomplete,false,true,NA,2,9,size,n_s_024.jpg,left,small,large,NA,NA,NA,left,1799,true,NA,NA,NA,NA,NA
nUAoRJz8,NA,NA,nUAoRJz8,2020-0188,2021-11-03,00:31:15,01:38:29,NA,incomplete,false,true,NA,2,10,syllable,c_2_011.jpg,right,2 syllables,1 syllable,NA,NA,NA,left,1336.90000009537,false,NA,NA,NA,NA,NA
nUAoRJz8,NA,NA,nUAoRJz8,2020-0188,2021-11-03,00:31:15,01:38:29,NA,incomplete,false,true,NA,2,11,syllable,c_1_001.jpg,right,2 syllables,1 syllable,NA,NA,NA,right,1065.70000004768,true,NA,NA,NA,NA,NA
nUAoRJz8,NA,NA,nUAoRJz8,2020-0188,2021-11-03,00:31:15,01:38:29,NA,incomplete,false,true,NA,2,12,syllable,c_2_018.jpg,right,1 syllable,2 syllables,NA,NA,NA,right,939.199999809265,true,NA,NA,NA,NA,NA
nUAoRJz8,NA,NA,nUAoRJz8,2020-0188,2021-11-03,00:31:15,01:38:29,NA,incomplete,false,true,NA,2,13,syllable,a_2_022.jpg,right,1 syllable,2 syllables,NA,NA,NA,right,822.799999952316,true,NA,NA,NA,NA,NA
nUAoRJz8,NA,NA,nUAoRJz8,2020-0188,2021-11-03,00:31:15,01:38:29,NA,incomplete,false,true,NA,2,14,syllable,a_2_021.jpg,right,2 syllables,1 syllable,NA,NA,NA,left,1671.60000014305,false,NA,NA,NA,NA,NA
nUAoRJz8,NA,NA,nUAoRJz8,2020-0188,2021-11-03,00:31:15,01:38:29,NA,incomplete,false,true,NA,2,15,abstractness,c_1_013.jpg,right,abstract,concrete,NA,NA,NA,right,2440.69999980927,true,NA,NA,NA,NA,NA
nUAoRJz8,NA,NA,nUAoRJz8,2020-0188,2021-11-03,00:31:15,01:38:29,NA,incomplete,false,true,NA,2,16,abstractness,c_1_003.jpg,left,concrete,abstract,NA,NA,NA,left,2159.20000004768,true,NA,NA,NA,NA,NA
nUAoRJz8,NA,NA,nUAoRJz8,2020-0188,2021-11-03,00:31:15,01:38:29,NA,incomplete,false,true,NA,2,17,abstractness,a_1_002.jpg,right,concrete,abstract,NA,NA,NA,right,1794.40000009537,true,NA,NA,NA,NA,NA
nUAoRJz8,NA,NA,nUAoRJz8,2020-0188,2021-11-03,00:31:15,01:38:29,NA,incomplete,false,true,NA,2,18,abstractness,a_2_020.jpg,left,abstract,concrete,NA,NA,NA,left,1402.29999995232,true,NA,NA,NA,NA,NA
nUAoRJz8,NA,NA,nUAoRJz8,2020-0188,2021-11-03,00:31:15,01:38:29,NA,incomplete,false,true,NA,2,19,abstractness,a_1_012.jpg,right,concrete,abstract,NA,NA,NA,right,1614.5,true,NA,NA,NA,NA,NA
nUAoRJz8,NA,NA,nUAoRJz8,2020-0188,2021-11-03,00:31:15,01:38:29,NA,incomplete,false,true,NA,2,20,building,o_c_022.jpg,left,cottage,skyscraper,NA,NA,NA,left,1883.20000004768,true,NA,NA,NA,NA,NA
nUAoRJz8,NA,NA,nUAoRJz8,2020-0188,2021-11-03,00:31:15,01:38:29,NA,incomplete,false,true,NA,2,21,building,o_s_002.jpg,left,skyscraper,cottage,NA,NA,NA,left,980.799999952316,true,NA,NA,NA,NA,NA
nUAoRJz8,NA,NA,nUAoRJz8,2020-0188,2021-11-03,00:31:15,01:38:29,NA,incomplete,false,true,NA,2,22,building,i_c_025.jpg,right,skyscraper,cottage,NA,NA,NA,right,1808.20000004768,true,NA,NA,NA,NA,NA
nUAoRJz8,NA,NA,nUAoRJz8,2020-0188,2021-11-03,00:31:15,01:38:29,NA,incomplete,false,true,NA,2,23,building,i_s_026.jpg,left,skyscraper,cottage,NA,NA,NA,left,1485.79999995232,true,NA,NA,NA,NA,NA
nUAoRJz8,NA,NA,nUAoRJz8,2020-0188,2021-11-03,00:31:15,01:38:29,NA,incomplete,false,true,NA,2,24,building,o_s_008.jpg,right,cottage,skyscraper,NA,NA,NA,right,2513,true,NA,NA,NA,NA,NA
nUAoRJz8,NA,NA,nUAoRJz8,2020-0188,2021-11-03,00:31:15,01:38:29,NA,incomplete,false,true,NA,2,25,location,o_c_005.jpg,right,indoor,outdoor,NA,NA,NA,left,2291.70000004768,false,NA,NA,NA,NA,NA
nUAoRJz8,NA,NA,nUAoRJz8,2020-0188,2021-11-03,00:31:15,01:38:29,NA,incomplete,false,true,NA,2,26,location,o_c_026.jpg,left,outdoor,indoor,NA,NA,NA,left,1994.29999995232,true,NA,NA,NA,NA,NA
nUAoRJz8,NA,NA,nUAoRJz8,2020-0188,2021-11-03,00:31:15,01:38:29,NA,incomplete,false,true,NA,2,27,location,o_s_020.jpg,right,indoor,outdoor,NA,NA,NA,right,1884,true,NA,NA,NA,NA,NA
nUAoRJz8,NA,NA,nUAoRJz8,2020-0188,2021-11-03,00:31:15,01:38:29,NA,incomplete,false,true,NA,2,28,location,i_c_006.jpg,right,outdoor,indoor,NA,NA,NA,right,1565.59999990463,true,NA,NA,NA,NA,NA
nUAoRJz8,NA,NA,nUAoRJz8,2020-0188,2021-11-03,00:31:15,01:38:29,NA,incomplete,false,true,NA,2,29,location,i_s_008.jpg,left,indoor,outdoor,NA,NA,NA,left,1497.59999990463,true,NA,NA,NA,NA,NA
nUAoRJz8,NA,NA,nUAoRJz8,2020-0188,2021-11-03,00:31:15,01:38:29,NA,incomplete,false,NA,true,2,0,NA,NA,left,NA,NA,n_l_007.jpg,m_l_014.jpg,between-small,NA,NaN,NA,left,7320.700000047684,1,2,5829.099999904633
nUAoRJz8,NA,NA,nUAoRJz8,2020-0188,2021-11-03,00:31:15,01:38:29,NA,incomplete,false,NA,true,2,1,NA,NA,right,NA,NA,o_s_020.jpg,o_s_008.jpg,between-small,NA,NaN,NA,right,16003.300000190735,1,1,1297.0999999046326
nUAoRJz8,NA,NA,nUAoRJz8,2020-0188,2021-11-03,00:31:15,01:38:29,NA,incomplete,false,NA,true,2,2,NA,NA,left,NA,NA,c_2_018.jpg,c_1_013.jpg,between-small,NA,NaN,NA,right,6616.299999952316,0,1,2258.5
nUAoRJz8,NA,NA,nUAoRJz8,2020-0188,2021-11-03,00:31:15,01:38:29,NA,incomplete,false,NA,true,2,3,NA,NA,right,NA,NA,c_1_003.jpg,a_2_022.jpg,between-small,NA,NaN,NA,left,5662,0,2,1119.7999999523163
nUAoRJz8,NA,NA,nUAoRJz8,2020-0188,2021-11-03,00:31:15,01:38:29,NA,incomplete,false,NA,true,2,4,NA,NA,left,NA,NA,a_1_012.jpg,i_c_025.jpg,between-big,NA,NaN,NA,left,3005.899999856949,1,2,2945.0999999046326
nUAoRJz8,NA,NA,nUAoRJz8,2020-0188,2021-11-03,00:31:15,01:38:29,NA,incomplete,false,NA,true,2,5,NA,NA,right,NA,NA,m_s_005.jpg,n_s_021.jpg,within,NA,NaN,NA,left,5929.099999904633,0,0,1166.5
nUAoRJz8,NA,NA,nUAoRJz8,2020-0188,2021-11-03,00:31:15,01:38:29,NA,incomplete,false,NA,true,2,6,NA,NA,right,NA,NA,n_s_024.jpg,m_l_004.jpg,within,NA,NaN,NA,right,7740.400000095367,1,0,2851.7000000476837
nUAoRJz8,NA,NA,nUAoRJz8,2020-0188,2021-11-03,00:31:15,01:38:29,NA,incomplete,false,NA,true,2,7,NA,NA,right,NA,NA,m_s_001.jpg,m_l_014.jpg,within,NA,NaN,NA,left,2794.7999999523163,0,0,1280.7000000476837
nUAoRJz8,NA,NA,nUAoRJz8,2020-0188,2021-11-03,00:31:15,01:38:29,NA,incomplete,false,NA,true,2,8,NA,NA,left,NA,NA,m_s_010.jpg,m_l_008.jpg,within,NA,NaN,NA,left,4077.4000000953674,1,0,2320.7999999523163
nUAoRJz8,NA,NA,nUAoRJz8,2020-0188,2021-11-03,00:31:15,01:38:29,NA,incomplete,false,NA,true,2,9,NA,NA,left,NA,NA,c_1_013.jpg,a_2_020.jpg,within,NA,NaN,NA,left,9069.799999952316,1,2,945.8999998569489
nUAoRJz8,NA,NA,nUAoRJz8,2020-0188,2021-11-03,00:31:15,01:38:29,NA,incomplete,false,NA,true,2,10,NA,NA,left,NA,NA,o_c_005.jpg,i_c_006.jpg,within,NA,NaN,NA,right,3845.0999999046326,0,1,1795.5999999046326
nUAoRJz8,NA,NA,nUAoRJz8,2020-0188,2021-11-03,00:31:15,01:38:29,NA,incomplete,false,NA,true,2,11,NA,NA,left,NA,NA,n_s_022.jpg,c_2_011.jpg,between-big,NA,NaN,NA,left,2691.399999856949,1,3,1121.1999998092651
nUAoRJz8,NA,NA,nUAoRJz8,2020-0188,2021-11-03,00:31:15,01:38:29,NA,incomplete,false,NA,true,2,12,NA,NA,left,NA,NA,i_c_025.jpg,o_c_005.jpg,between-small,NA,NaN,NA,left,5943.199999809265,1,1,1137.8999998569489
nUAoRJz8,NA,NA,nUAoRJz8,2020-0188,2021-11-03,00:31:15,01:38:29,NA,incomplete,false,NA,true,2,13,NA,NA,left,NA,NA,m_s_001.jpg,c_1_001.jpg,between-big,NA,NaN,NA,left,1723.4000000953674,1,2,3643.4000000953674
nUAoRJz8,NA,NA,nUAoRJz8,2020-0188,2021-11-03,00:31:15,01:38:29,NA,incomplete,false,NA,true,2,14,NA,NA,right,NA,NA,o_s_002.jpg,a_2_020.jpg,between-big,NA,NaN,NA,right,2696.2000000476837,1,3,2401.300000190735
nUAoRJz8,NA,NA,nUAoRJz8,2020-0188,2021-11-03,00:31:15,01:38:29,NA,incomplete,false,NA,true,2,15,NA,NA,left,NA,NA,a_2_021.jpg,a_1_002.jpg,between-small,NA,NaN,NA,right,2210.7000000476837,0,0,3554.7000000476837
nUAoRJz8,NA,NA,nUAoRJz8,2020-0188,2021-11-03,00:31:15,01:38:29,NA,incomplete,false,NA,true,2,16,NA,NA,right,NA,NA,i_s_008.jpg,o_c_026.jpg,within,NA,NaN,NA,left,5399.599999904633,0,0,1361.7000000476837
nUAoRJz8,NA,NA,nUAoRJz8,2020-0188,2021-11-03,00:31:15,01:38:29,NA,incomplete,false,NA,true,2,17,NA,NA,right,NA,NA,a_2_021.jpg,c_1_001.jpg,within,NA,NaN,NA,right,1283.1000001430511,1,0,1297.7000000476837
nUAoRJz8,NA,NA,nUAoRJz8,2020-0188,2021-11-03,00:31:15,01:38:29,NA,incomplete,false,NA,true,2,18,NA,NA,left,NA,NA,a_1_002.jpg,o_c_022.jpg,between-big,NA,NaN,NA,left,2489.399999856949,1,0,2049.2000000476837
nUAoRJz8,NA,NA,nUAoRJz8,2020-0188,2021-11-03,00:31:15,01:38:29,NA,incomplete,false,NA,true,2,19,NA,NA,right,NA,NA,o_s_008.jpg,o_s_002.jpg,within,NA,NaN,NA,right,1937,1,0,1600.2000000476837
nUAoRJz8,NA,NA,nUAoRJz8,2020-0188,2021-11-03,00:31:15,01:38:29,NA,incomplete,false,NA,true,2,20,NA,NA,left,NA,NA,c_1_003.jpg,a_1_012.jpg,within,NA,NaN,NA,left,13076.299999952316,1,1,1489.4000000953674
nUAoRJz8,NA,NA,nUAoRJz8,2020-0188,2021-11-03,00:31:15,01:38:29,NA,incomplete,false,NA,true,2,21,NA,NA,left,NA,NA,m_s_005.jpg,m_l_004.jpg,between-small,NA,NaN,NA,left,3099.9000000953674,1,1,1281.2999999523163
nUAoRJz8,NA,NA,nUAoRJz8,2020-0188,2021-11-03,00:31:15,01:38:29,NA,incomplete,false,NA,true,2,22,NA,NA,left,NA,NA,c_2_011.jpg,a_2_022.jpg,within,NA,NaN,NA,left,2002,1,1,1791.4000000953674
nUAoRJz8,NA,NA,nUAoRJz8,2020-0188,2021-11-03,00:31:15,01:38:29,NA,incomplete,false,NA,true,2,23,NA,NA,left,NA,NA,m_l_008.jpg,n_s_022.jpg,between-small,NA,NaN,NA,right,1345.7000000476837,0,1,2192.399999856949
nUAoRJz8,NA,NA,nUAoRJz8,2020-0188,2021-11-03,00:31:15,01:38:29,NA,incomplete,false,NA,true,2,24,NA,NA,right,NA,NA,c_2_018.jpg,n_s_024.jpg,between-big,NA,NaN,NA,right,3027.600000143051,1,2,1473
nUAoRJz8,NA,NA,nUAoRJz8,2020-0188,2021-11-03,00:31:15,01:38:29,NA,incomplete,false,NA,true,2,25,NA,NA,right,NA,NA,o_c_026.jpg,i_s_026.jpg,between-small,NA,NaN,NA,right,2160.600000143051,1,1,2176.9000000953674
nUAoRJz8,NA,NA,nUAoRJz8,2020-0188,2021-11-03,00:31:15,01:38:29,NA,incomplete,false,NA,true,2,26,NA,NA,right,NA,NA,i_s_026.jpg,o_c_022.jpg,within,NA,NaN,NA,right,1539.0999999046326,1,1,1313
nUAoRJz8,NA,NA,nUAoRJz8,2020-0188,2021-11-03,00:31:15,01:38:29,NA,incomplete,false,true,NA,3,0,size,n_s_004.jpg,right,large,small,NA,NA,NA,right,1682.70000004768,true,NA,NA,NA,NA,NA
nUAoRJz8,NA,NA,nUAoRJz8,2020-0188,2021-11-03,00:31:15,01:38:29,NA,incomplete,false,true,NA,3,1,size,m_l_023.jpg,left,large,small,NA,NA,NA,left,1474.40000009537,true,NA,NA,NA,NA,NA
nUAoRJz8,NA,NA,nUAoRJz8,2020-0188,2021-11-03,00:31:15,01:38:29,NA,incomplete,false,true,NA,3,2,size,n_s_014.jpg,left,small,large,NA,NA,NA,left,1862.09999990463,true,NA,NA,NA,NA,NA
nUAoRJz8,NA,NA,nUAoRJz8,2020-0188,2021-11-03,00:31:15,01:38:29,NA,incomplete,false,true,NA,3,3,size,n_l_019.jpg,right,small,large,NA,NA,NA,right,1129.09999990463,true,NA,NA,NA,NA,NA
nUAoRJz8,NA,NA,nUAoRJz8,2020-0188,2021-11-03,00:31:15,01:38:29,NA,incomplete,false,true,NA,3,4,size,n_l_027.jpg,right,small,large,NA,NA,NA,right,1073,true,NA,NA,NA,NA,NA
nUAoRJz8,NA,NA,nUAoRJz8,2020-0188,2021-11-03,00:31:15,01:38:29,NA,incomplete,false,true,NA,3,5,origin,n_l_021.jpg,right,manmade,natural,NA,NA,NA,right,1369,true,NA,NA,NA,NA,NA
nUAoRJz8,NA,NA,nUAoRJz8,2020-0188,2021-11-03,00:31:15,01:38:29,NA,incomplete,false,true,NA,3,6,origin,n_s_018.jpg,right,manmade,natural,NA,NA,NA,right,1251.20000004768,true,NA,NA,NA,NA,NA
nUAoRJz8,NA,NA,nUAoRJz8,2020-0188,2021-11-03,00:31:15,01:38:29,NA,incomplete,false,true,NA,3,7,origin,m_s_022.jpg,left,manmade,natural,NA,NA,NA,left,1515,true,NA,NA,NA,NA,NA
nUAoRJz8,NA,NA,nUAoRJz8,2020-0188,2021-11-03,00:31:15,01:38:29,NA,incomplete,false,true,NA,3,8,origin,m_s_027.jpg,right,natural,manmade,NA,NA,NA,right,1483.20000004768,true,NA,NA,NA,NA,NA
nUAoRJz8,NA,NA,nUAoRJz8,2020-0188,2021-11-03,00:31:15,01:38:29,NA,incomplete,false,true,NA,3,9,origin,n_l_014.jpg,right,manmade,natural,NA,NA,NA,right,1042.09999990463,true,NA,NA,NA,NA,NA
nUAoRJz8,NA,NA,nUAoRJz8,2020-0188,2021-11-03,00:31:15,01:38:29,NA,incomplete,false,true,NA,3,10,location,i_s_020.jpg,left,indoor,outdoor,NA,NA,NA,left,911.399999856949,true,NA,NA,NA,NA,NA
nUAoRJz8,NA,NA,nUAoRJz8,2020-0188,2021-11-03,00:31:15,01:38:29,NA,incomplete,false,true,NA,3,11,location,o_c_014.jpg,left,outdoor,indoor,NA,NA,NA,left,1137.60000014305,true,NA,NA,NA,NA,NA
nUAoRJz8,NA,NA,nUAoRJz8,2020-0188,2021-11-03,00:31:15,01:38:29,NA,incomplete,false,true,NA,3,12,location,o_c_015.jpg,right,indoor,outdoor,NA,NA,NA,right,1238.90000009537,true,NA,NA,NA,NA,NA
nUAoRJz8,NA,NA,nUAoRJz8,2020-0188,2021-11-03,00:31:15,01:38:29,NA,incomplete,false,true,NA,3,13,location,i_s_021.jpg,right,outdoor,indoor,NA,NA,NA,right,1174.09999990463,true,NA,NA,NA,NA,NA
nUAoRJz8,NA,NA,nUAoRJz8,2020-0188,2021-11-03,00:31:15,01:38:29,NA,incomplete,false,true,NA,3,14,location,i_s_018.jpg,right,outdoor,indoor,NA,NA,NA,right,1466.5,true,NA,NA,NA,NA,NA
nUAoRJz8,NA,NA,nUAoRJz8,2020-0188,2021-11-03,00:31:15,01:38:29,NA,incomplete,false,true,NA,3,15,building,i_c_004.jpg,right,skyscraper,cottage,NA,NA,NA,right,1980,true,NA,NA,NA,NA,NA
nUAoRJz8,NA,NA,nUAoRJz8,2020-0188,2021-11-03,00:31:15,01:38:29,NA,incomplete,false,true,NA,3,16,building,i_c_014.jpg,right,skyscraper,cottage,NA,NA,NA,right,2271,true,NA,NA,NA,NA,NA
nUAoRJz8,NA,NA,nUAoRJz8,2020-0188,2021-11-03,00:31:15,01:38:29,NA,incomplete,false,true,NA,3,17,building,o_c_012.jpg,right,skyscraper,cottage,NA,NA,NA,right,1158.60000014305,true,NA,NA,NA,NA,NA
nUAoRJz8,NA,NA,nUAoRJz8,2020-0188,2021-11-03,00:31:15,01:38:29,NA,incomplete,false,true,NA,3,18,building,o_s_022.jpg,left,skyscraper,cottage,NA,NA,NA,left,855.599999904633,true,NA,NA,NA,NA,NA
nUAoRJz8,NA,NA,nUAoRJz8,2020-0188,2021-11-03,00:31:15,01:38:29,NA,incomplete,false,true,NA,3,19,building,o_s_009.jpg,right,cottage,skyscraper,NA,NA,NA,right,1110.79999995232,true,NA,NA,NA,NA,NA
nUAoRJz8,NA,NA,nUAoRJz8,2020-0188,2021-11-03,00:31:15,01:38:29,NA,incomplete,false,true,NA,3,20,syllable,a_1_024.jpg,right,1 syllable,2 syllables,NA,NA,NA,left,1090.90000009537,false,NA,NA,NA,NA,NA
nUAoRJz8,NA,NA,nUAoRJz8,2020-0188,2021-11-03,00:31:15,01:38:29,NA,incomplete,false,true,NA,3,21,syllable,c_1_014.jpg,right,1 syllable,2 syllables,NA,NA,NA,left,955.900000095367,false,NA,NA,NA,NA,NA
nUAoRJz8,NA,NA,nUAoRJz8,2020-0188,2021-11-03,00:31:15,01:38:29,NA,incomplete,false,true,NA,3,22,syllable,c_1_019.jpg,right,2 syllables,1 syllable,NA,NA,NA,right,1026.5,true,NA,NA,NA,NA,NA
nUAoRJz8,NA,NA,nUAoRJz8,2020-0188,2021-11-03,00:31:15,01:38:29,NA,incomplete,false,true,NA,3,23,syllable,c_1_012.jpg,right,1 syllable,2 syllables,NA,NA,NA,left,687.399999856949,false,NA,NA,NA,NA,NA
nUAoRJz8,NA,NA,nUAoRJz8,2020-0188,2021-11-03,00:31:15,01:38:29,NA,incomplete,false,true,NA,3,24,syllable,a_1_028.jpg,right,2 syllables,1 syllable,NA,NA,NA,right,776.5,true,NA,NA,NA,NA,NA
nUAoRJz8,NA,NA,nUAoRJz8,2020-0188,2021-11-03,00:31:15,01:38:29,NA,incomplete,false,true,NA,3,25,abstractness,a_1_011.jpg,left,abstract,concrete,NA,NA,NA,left,2059,true,NA,NA,NA,NA,NA
nUAoRJz8,NA,NA,nUAoRJz8,2020-0188,2021-11-03,00:31:15,01:38:29,NA,incomplete,false,true,NA,3,26,abstractness,a_2_025.jpg,right,concrete,abstract,NA,NA,NA,right,1701.09999990463,true,NA,NA,NA,NA,NA
nUAoRJz8,NA,NA,nUAoRJz8,2020-0188,2021-11-03,00:31:15,01:38:29,NA,incomplete,false,true,NA,3,27,abstractness,a_2_028.jpg,left,abstract,concrete,NA,NA,NA,left,945.299999952316,true,NA,NA,NA,NA,NA
nUAoRJz8,NA,NA,nUAoRJz8,2020-0188,2021-11-03,00:31:15,01:38:29,NA,incomplete,false,true,NA,3,28,abstractness,a_2_002.jpg,right,concrete,abstract,NA,NA,NA,right,1143.39999985695,true,NA,NA,NA,NA,NA
nUAoRJz8,NA,NA,nUAoRJz8,2020-0188,2021-11-03,00:31:15,01:38:29,NA,incomplete,false,true,NA,3,29,abstractness,a_1_013.jpg,left,abstract,concrete,NA,NA,NA,left,1374.39999985695,true,NA,NA,NA,NA,NA
nUAoRJz8,NA,NA,nUAoRJz8,2020-0188,2021-11-03,00:31:15,01:38:29,NA,incomplete,false,NA,true,3,0,NA,NA,right,NA,NA,c_1_012.jpg,a_1_024.jpg,within,NA,NaN,NA,left,5825.599999904633,0,1,1586
nUAoRJz8,NA,NA,nUAoRJz8,2020-0188,2021-11-03,00:31:15,01:38:29,NA,incomplete,false,NA,true,3,1,NA,NA,right,NA,NA,n_s_018.jpg,n_l_019.jpg,between-small,NA,NaN,NA,left,2531.5,0,1,1745.2000000476837
nUAoRJz8,NA,NA,nUAoRJz8,2020-0188,2021-11-03,00:31:15,01:38:29,NA,incomplete,false,NA,true,3,2,NA,NA,right,NA,NA,n_l_027.jpg,m_l_023.jpg,within,NA,NaN,NA,left,8706.5,0,1,1529.1999998092651
nUAoRJz8,NA,NA,nUAoRJz8,2020-0188,2021-11-03,00:31:15,01:38:29,NA,incomplete,false,NA,true,3,3,NA,NA,right,NA,NA,o_c_014.jpg,m_s_027.jpg,between-big,NA,NaN,NA,right,4966.099999904633,1,3,2762.0999999046326
nUAoRJz8,NA,NA,nUAoRJz8,2020-0188,2021-11-03,00:31:15,01:38:29,NA,incomplete,false,NA,true,3,4,NA,NA,right,NA,NA,i_c_004.jpg,o_c_015.jpg,between-small,NA,NaN,NA,left,5855.900000095367,0,0,1105.8999998569489
nUAoRJz8,NA,NA,nUAoRJz8,2020-0188,2021-11-03,00:31:15,01:38:29,NA,incomplete,false,NA,true,3,5,NA,NA,right,NA,NA,a_2_002.jpg,a_1_011.jpg,within,NA,NaN,NA,right,3260.0999999046326,1,0,1216.7999999523163
nUAoRJz8,NA,NA,nUAoRJz8,2020-0188,2021-11-03,00:31:15,01:38:29,NA,incomplete,false,NA,true,3,6,NA,NA,right,NA,NA,o_s_022.jpg,i_c_004.jpg,within,NA,NaN,NA,right,2352.399999856949,1,1,992
nUAoRJz8,NA,NA,nUAoRJz8,2020-0188,2021-11-03,00:31:15,01:38:29,NA,incomplete,false,NA,true,3,7,NA,NA,right,NA,NA,a_2_028.jpg,a_1_028.jpg,between-small,NA,NaN,NA,right,2113.9000000953674,1,2,4118.299999952316
nUAoRJz8,NA,NA,nUAoRJz8,2020-0188,2021-11-03,00:31:15,01:38:29,NA,incomplete,false,NA,true,3,8,NA,NA,right,NA,NA,n_l_019.jpg,n_s_004.jpg,within,NA,NaN,NA,right,1586.5,1,1,2010.3999998569489
nUAoRJz8,NA,NA,nUAoRJz8,2020-0188,2021-11-03,00:31:15,01:38:29,NA,incomplete,false,NA,true,3,9,NA,NA,right,NA,NA,o_c_015.jpg,n_l_014.jpg,between-big,NA,NaN,NA,right,2283.699999809265,1,1,2641.7000000476837
nUAoRJz8,NA,NA,nUAoRJz8,2020-0188,2021-11-03,00:31:15,01:38:29,NA,incomplete,false,NA,true,3,10,NA,NA,left,NA,NA,i_s_020.jpg,i_s_021.jpg,within,NA,NaN,NA,left,3383.0999999046326,1,0,1006.5
nUAoRJz8,NA,NA,nUAoRJz8,2020-0188,2021-11-03,00:31:15,01:38:29,NA,incomplete,false,NA,true,3,11,NA,NA,left,NA,NA,o_c_014.jpg,i_s_018.jpg,within,NA,NaN,NA,right,9304.099999904633,0,1,2844
nUAoRJz8,NA,NA,nUAoRJz8,2020-0188,2021-11-03,00:31:15,01:38:29,NA,incomplete,false,NA,true,3,12,NA,NA,left,NA,NA,o_s_009.jpg,c_1_019.jpg,between-big,NA,NaN,NA,right,3197,0,3,2558.399999856949
nUAoRJz8,NA,NA,nUAoRJz8,2020-0188,2021-11-03,00:31:15,01:38:29,NA,incomplete,false,NA,true,3,13,NA,NA,right,NA,NA,n_l_014.jpg,n_s_018.jpg,within,NA,NaN,NA,right,4077.5999999046326,1,1,1553.7999999523163
nUAoRJz8,NA,NA,nUAoRJz8,2020-0188,2021-11-03,00:31:15,01:38:29,NA,incomplete,false,NA,true,3,14,NA,NA,right,NA,NA,a_1_013.jpg,a_2_025.jpg,within,NA,NaN,NA,right,2064.5999999046326,1,0,1040.9000000953674
nUAoRJz8,NA,NA,nUAoRJz8,2020-0188,2021-11-03,00:31:15,01:38:29,NA,incomplete,false,NA,true,3,15,NA,NA,right,NA,NA,c_1_014.jpg,o_s_022.jpg,between-big,NA,NaN,NA,left,2256,0,2,2305.399999856949
nUAoRJz8,NA,NA,nUAoRJz8,2020-0188,2021-11-03,00:31:15,01:38:29,NA,incomplete,false,NA,true,3,16,NA,NA,right,NA,NA,a_1_028.jpg,c_1_014.jpg,within,NA,NaN,NA,left,1824.3000001907349,0,0,1601.8999998569489
nUAoRJz8,NA,NA,nUAoRJz8,2020-0188,2021-11-03,00:31:15,01:38:29,NA,incomplete,false,NA,true,3,17,NA,NA,right,NA,NA,a_1_011.jpg,c_1_019.jpg,between-small,NA,NaN,NA,right,5040.700000047684,1,2,1905.4000000953674
nUAoRJz8,NA,NA,nUAoRJz8,2020-0188,2021-11-03,00:31:15,01:38:29,NA,incomplete,false,NA,true,3,18,NA,NA,right,NA,NA,o_c_012.jpg,i_s_018.jpg,between-small,NA,NaN,NA,right,5879.799999952316,1,1,2193
nUAoRJz8,NA,NA,nUAoRJz8,2020-0188,2021-11-03,00:31:15,01:38:29,NA,incomplete,false,NA,true,3,19,NA,NA,right,NA,NA,m_s_022.jpg,n_l_027.jpg,between-small,NA,NaN,NA,left,3361.7999999523163,0,1,1087.8000001907349
nUAoRJz8,NA,NA,nUAoRJz8,2020-0188,2021-11-03,00:31:15,01:38:29,NA,incomplete,false,NA,true,3,20,NA,NA,right,NA,NA,a_1_024.jpg,o_c_012.jpg,between-big,NA,NaN,NA,left,1834.5,0,2,927.2000000476837
nUAoRJz8,NA,NA,nUAoRJz8,2020-0188,2021-11-03,00:31:15,01:38:29,NA,incomplete,false,NA,true,3,21,NA,NA,right,NA,NA,o_s_009.jpg,i_c_014.jpg,within,NA,NaN,NA,right,1938.4000000953674,1,2,1425.9000000953674
nUAoRJz8,NA,NA,nUAoRJz8,2020-0188,2021-11-03,00:31:15,01:38:29,NA,incomplete,false,NA,true,3,22,NA,NA,right,NA,NA,n_l_021.jpg,n_s_014.jpg,between-small,NA,NaN,NA,right,6023.199999809265,1,2,1425.4000000953674
nUAoRJz8,NA,NA,nUAoRJz8,2020-0188,2021-11-03,00:31:15,01:38:29,NA,incomplete,false,NA,true,3,23,NA,NA,right,NA,NA,a_2_025.jpg,c_1_012.jpg,between-small,NA,NaN,NA,right,4651.700000047684,1,2,1231.5999999046326
nUAoRJz8,NA,NA,nUAoRJz8,2020-0188,2021-11-03,00:31:15,01:38:29,NA,incomplete,false,NA,true,3,24,NA,NA,right,NA,NA,m_s_027.jpg,n_l_021.jpg,within,NA,NaN,NA,right,5053.299999952316,1,2,990.8999998569489
nUAoRJz8,NA,NA,nUAoRJz8,2020-0188,2021-11-03,00:31:15,01:38:29,NA,incomplete,false,NA,true,3,25,NA,NA,left,NA,NA,m_s_022.jpg,i_s_020.jpg,between-big,NA,NaN,NA,left,1568.3000001907349,1,3,1505
nUAoRJz8,NA,NA,nUAoRJz8,2020-0188,2021-11-03,00:31:15,01:38:29,NA,incomplete,false,NA,true,3,26,NA,NA,left,NA,NA,i_s_021.jpg,i_c_014.jpg,between-small,NA,NaN,NA,left,2930.7999999523163,1,1,1263.5999999046326
nUAoRJz8,NA,NA,nUAoRJz8,2020-0188,2021-11-03,00:31:15,01:38:29,NA,incomplete,false,true,NA,4,0,origin,m_s_025.jpg,left,manmade,natural,NA,NA,NA,left,2918,true,NA,NA,NA,NA,NA
nUAoRJz8,NA,NA,nUAoRJz8,2020-0188,2021-11-03,00:31:15,01:38:29,NA,incomplete,false,true,NA,4,1,origin,m_s_013.jpg,left,manmade,natural,NA,NA,NA,left,2115.79999995232,true,NA,NA,NA,NA,NA
nUAoRJz8,NA,NA,nUAoRJz8,2020-0188,2021-11-03,00:31:15,01:38:29,NA,incomplete,false,true,NA,4,2,origin,m_l_018.jpg,left,manmade,natural,NA,NA,NA,left,1147.09999990463,true,NA,NA,NA,NA,NA
nUAoRJz8,NA,NA,nUAoRJz8,2020-0188,2021-11-03,00:31:15,01:38:29,NA,incomplete,false,true,NA,4,3,origin,m_l_001.jpg,right,natural,manmade,NA,NA,NA,right,1936,true,NA,NA,NA,NA,NA
nUAoRJz8,NA,NA,nUAoRJz8,2020-0188,2021-11-03,00:31:15,01:38:29,NA,incomplete,false,true,NA,4,4,origin,m_s_014.jpg,left,manmade,natural,NA,NA,NA,left,1402.60000014305,true,NA,NA,NA,NA,NA
nUAoRJz8,NA,NA,nUAoRJz8,2020-0188,2021-11-03,00:31:15,01:38:29,NA,incomplete,false,true,NA,4,5,size,n_l_009.jpg,right,small,large,NA,NA,NA,right,1694.5,true,NA,NA,NA,NA,NA
nUAoRJz8,NA,NA,nUAoRJz8,2020-0188,2021-11-03,00:31:15,01:38:29,NA,incomplete,false,true,NA,4,6,size,n_l_013.jpg,right,small,large,NA,NA,NA,right,1446.29999995232,true,NA,NA,NA,NA,NA
nUAoRJz8,NA,NA,nUAoRJz8,2020-0188,2021-11-03,00:31:15,01:38:29,NA,incomplete,false,true,NA,4,7,size,m_l_028.jpg,right,small,large,NA,NA,NA,right,1351.5,true,NA,NA,NA,NA,NA
nUAoRJz8,NA,NA,nUAoRJz8,2020-0188,2021-11-03,00:31:15,01:38:29,NA,incomplete,false,true,NA,4,8,size,m_l_021.jpg,right,small,large,NA,NA,NA,right,934.600000143051,true,NA,NA,NA,NA,NA
nUAoRJz8,NA,NA,nUAoRJz8,2020-0188,2021-11-03,00:31:15,01:38:29,NA,incomplete,false,true,NA,4,9,size,m_s_008.jpg,right,large,small,NA,NA,NA,right,1335.09999990463,true,NA,NA,NA,NA,NA
nUAoRJz8,NA,NA,nUAoRJz8,2020-0188,2021-11-03,00:31:15,01:38:29,NA,incomplete,false,true,NA,4,10,location,o_c_006.jpg,left,outdoor,indoor,NA,NA,NA,left,1675.5,true,NA,NA,NA,NA,NA
nUAoRJz8,NA,NA,nUAoRJz8,2020-0188,2021-11-03,00:31:15,01:38:29,NA,incomplete,false,true,NA,4,11,location,o_s_023.jpg,left,outdoor,indoor,NA,NA,NA,left,1272.29999995232,true,NA,NA,NA,NA,NA
nUAoRJz8,NA,NA,nUAoRJz8,2020-0188,2021-11-03,00:31:15,01:38:29,NA,incomplete,false,true,NA,4,12,location,i_c_023.jpg,left,indoor,outdoor,NA,NA,NA,left,1221.5,true,NA,NA,NA,NA,NA
nUAoRJz8,NA,NA,nUAoRJz8,2020-0188,2021-11-03,00:31:15,01:38:29,NA,incomplete,false,true,NA,4,13,location,o_s_017.jpg,left,outdoor,indoor,NA,NA,NA,left,1486.79999995232,true,NA,NA,NA,NA,NA
nUAoRJz8,NA,NA,nUAoRJz8,2020-0188,2021-11-03,00:31:15,01:38:29,NA,incomplete,false,true,NA,4,14,location,o_c_028.jpg,right,indoor,outdoor,NA,NA,NA,right,1133.5,true,NA,NA,NA,NA,NA
nUAoRJz8,NA,NA,nUAoRJz8,2020-0188,2021-11-03,00:31:15,01:38:29,NA,incomplete,false,true,NA,4,15,building,i_s_022.jpg,right,cottage,skyscraper,NA,NA,NA,right,1604,true,NA,NA,NA,NA,NA
nUAoRJz8,NA,NA,nUAoRJz8,2020-0188,2021-11-03,00:31:15,01:38:29,NA,incomplete,false,true,NA,4,16,building,i_c_020.jpg,left,cottage,skyscraper,NA,NA,NA,left,1496.40000009537,true,NA,NA,NA,NA,NA
nUAoRJz8,NA,NA,nUAoRJz8,2020-0188,2021-11-03,00:31:15,01:38:29,NA,incomplete,false,true,NA,4,17,building,o_s_025.jpg,left,skyscraper,cottage,NA,NA,NA,left,1310.89999985695,true,NA,NA,NA,NA,NA
nUAoRJz8,NA,NA,nUAoRJz8,2020-0188,2021-11-03,00:31:15,01:38:29,NA,incomplete,false,true,NA,4,18,building,o_c_001.jpg,left,cottage,skyscraper,NA,NA,NA,left,1004.79999995232,true,NA,NA,NA,NA,NA
nUAoRJz8,NA,NA,nUAoRJz8,2020-0188,2021-11-03,00:31:15,01:38:29,NA,incomplete,false,true,NA,4,19,building,o_c_021.jpg,right,skyscraper,cottage,NA,NA,NA,right,1652.89999985695,true,NA,NA,NA,NA,NA
nUAoRJz8,NA,NA,nUAoRJz8,2020-0188,2021-11-03,00:31:15,01:38:29,NA,incomplete,false,true,NA,4,20,abstractness,a_1_022.jpg,right,concrete,abstract,NA,NA,NA,right,1427.70000004768,true,NA,NA,NA,NA,NA
nUAoRJz8,NA,NA,nUAoRJz8,2020-0188,2021-11-03,00:31:15,01:38:29,NA,incomplete,false,true,NA,4,21,abstractness,c_1_021.jpg,left,concrete,abstract,NA,NA,NA,left,1219.60000014305,true,NA,NA,NA,NA,NA
nUAoRJz8,NA,NA,nUAoRJz8,2020-0188,2021-11-03,00:31:15,01:38:29,NA,incomplete,false,true,NA,4,22,abstractness,a_1_026.jpg,right,concrete,abstract,NA,NA,NA,right,981.299999952316,true,NA,NA,NA,NA,NA
nUAoRJz8,NA,NA,nUAoRJz8,2020-0188,2021-11-03,00:31:15,01:38:29,NA,incomplete,false,true,NA,4,23,abstractness,c_2_020.jpg,right,abstract,concrete,NA,NA,NA,left,1850.90000009537,false,NA,NA,NA,NA,NA
nUAoRJz8,NA,NA,nUAoRJz8,2020-0188,2021-11-03,00:31:15,01:38:29,NA,incomplete,false,true,NA,4,24,abstractness,c_2_019.jpg,left,concrete,abstract,NA,NA,NA,left,2519.09999990463,true,NA,NA,NA,NA,NA
nUAoRJz8,NA,NA,nUAoRJz8,2020-0188,2021-11-03,00:31:15,01:38:29,NA,incomplete,false,true,NA,4,25,syllable,c_1_002.jpg,right,2 syllables,1 syllable,NA,NA,NA,left,1634.30000019073,false,NA,NA,NA,NA,NA
nUAoRJz8,NA,NA,nUAoRJz8,2020-0188,2021-11-03,00:31:15,01:38:29,NA,incomplete,false,true,NA,4,26,syllable,a_2_017.jpg,right,1 syllable,2 syllables,NA,NA,NA,right,1383.79999995232,true,NA,NA,NA,NA,NA
nUAoRJz8,NA,NA,nUAoRJz8,2020-0188,2021-11-03,00:31:15,01:38:29,NA,incomplete,false,true,NA,4,27,syllable,c_2_005.jpg,right,1 syllable,2 syllables,NA,NA,NA,right,1343.80000019073,true,NA,NA,NA,NA,NA
nUAoRJz8,NA,NA,nUAoRJz8,2020-0188,2021-11-03,00:31:15,01:38:29,NA,incomplete,false,true,NA,4,28,syllable,c_1_022.jpg,right,1 syllable,2 syllables,NA,NA,NA,right,882.800000190735,true,NA,NA,NA,NA,NA
nUAoRJz8,NA,NA,nUAoRJz8,2020-0188,2021-11-03,00:31:15,01:38:29,NA,incomplete,false,true,NA,4,29,syllable,c_2_022.jpg,right,2 syllables,1 syllable,NA,NA,NA,left,2202.70000004768,false,NA,NA,NA,NA,NA
nUAoRJz8,NA,NA,nUAoRJz8,2020-0188,2021-11-03,00:31:15,01:38:29,NA,incomplete,false,NA,true,4,0,NA,NA,right,NA,NA,o_s_017.jpg,o_c_006.jpg,within,NA,NaN,NA,left,3050.9000000953674,0,0,1007.5
nUAoRJz8,NA,NA,nUAoRJz8,2020-0188,2021-11-03,00:31:15,01:38:29,NA,incomplete,false,NA,true,4,1,NA,NA,left,NA,NA,c_1_021.jpg,c_2_019.jpg,within,NA,NaN,NA,left,3628.699999809265,1,1,1999.8999998569489
nUAoRJz8,NA,NA,nUAoRJz8,2020-0188,2021-11-03,00:31:15,01:38:29,NA,incomplete,false,NA,true,4,2,NA,NA,right,NA,NA,m_s_008.jpg,n_l_013.jpg,within,NA,NaN,NA,left,4069.2999999523163,0,1,1152.7999999523163
nUAoRJz8,NA,NA,nUAoRJz8,2020-0188,2021-11-03,00:31:15,01:38:29,NA,incomplete,false,NA,true,4,3,NA,NA,left,NA,NA,o_c_001.jpg,c_1_021.jpg,between-big,NA,NaN,NA,left,3598.7999999523163,1,2,1279.7000000476837
nUAoRJz8,NA,NA,nUAoRJz8,2020-0188,2021-11-03,00:31:15,01:38:29,NA,incomplete,false,NA,true,4,4,NA,NA,left,NA,NA,n_l_009.jpg,m_l_021.jpg,within,NA,NaN,NA,left,1897.7000000476837,1,0,894.7999999523163
nUAoRJz8,NA,NA,nUAoRJz8,2020-0188,2021-11-03,00:31:15,01:38:29,NA,incomplete,false,NA,true,4,5,NA,NA,right,NA,NA,n_l_013.jpg,m_l_001.jpg,between-small,NA,NaN,NA,right,1739.5,1,1,848.5
nUAoRJz8,NA,NA,nUAoRJz8,2020-0188,2021-11-03,00:31:15,01:38:29,NA,incomplete,false,NA,true,4,6,NA,NA,right,NA,NA,a_1_026.jpg,o_c_021.jpg,between-big,NA,NaN,NA,right,3219.5,1,2,4035
nUAoRJz8,NA,NA,nUAoRJz8,2020-0188,2021-11-03,00:31:15,01:38:29,NA,incomplete,false,NA,true,4,7,NA,NA,left,NA,NA,m_s_025.jpg,m_l_001.jpg,within,NA,NaN,NA,left,1442.2999999523163,1,1,2225.2000000476837
nUAoRJz8,NA,NA,nUAoRJz8,2020-0188,2021-11-03,00:31:15,01:38:29,NA,incomplete,false,NA,true,4,8,NA,NA,left,NA,NA,m_l_018.jpg,n_l_009.jpg,between-small,NA,NaN,NA,left,2100.2999999523163,1,2,2000
nUAoRJz8,NA,NA,nUAoRJz8,2020-0188,2021-11-03,00:31:15,01:38:29,NA,incomplete,false,NA,true,4,9,NA,NA,left,NA,NA,o_s_025.jpg,a_1_022.jpg,between-big,NA,NaN,NA,left,3121.100000143051,1,3,1441.5999999046326
nUAoRJz8,NA,NA,nUAoRJz8,2020-0188,2021-11-03,00:31:15,01:38:29,NA,incomplete,false,NA,true,4,10,NA,NA,left,NA,NA,c_1_002.jpg,c_1_022.jpg,within,NA,NaN,NA,right,3700,0,1,1040.1000001430511
nUAoRJz8,NA,NA,nUAoRJz8,2020-0188,2021-11-03,00:31:15,01:38:29,NA,incomplete,false,NA,true,4,11,NA,NA,left,NA,NA,o_c_028.jpg,o_s_025.jpg,between-small,NA,NaN,NA,left,833.9000000953674,1,1,1520
nUAoRJz8,NA,NA,nUAoRJz8,2020-0188,2021-11-03,00:31:15,01:38:29,NA,incomplete,false,NA,true,4,12,NA,NA,left,NA,NA,m_s_008.jpg,i_c_023.jpg,between-big,NA,NaN,NA,left,1000.2999999523163,1,1,1938.1999998092651
nUAoRJz8,NA,NA,nUAoRJz8,2020-0188,2021-11-03,00:31:15,01:38:29,NA,incomplete,false,NA,true,4,13,NA,NA,right,NA,NA,c_2_020.jpg,a_1_022.jpg,within,NA,NaN,NA,right,6112.400000095367,1,2,3852.5999999046326
nUAoRJz8,NA,NA,nUAoRJz8,2020-0188,2021-11-03,00:31:15,01:38:29,NA,incomplete,false,NA,true,4,14,NA,NA,right,NA,NA,a_2_017.jpg,c_2_020.jpg,between-small,NA,NaN,NA,right,2555.4000000953674,1,2,2371.2000000476837
nUAoRJz8,NA,NA,nUAoRJz8,2020-0188,2021-11-03,00:31:15,01:38:29,NA,incomplete,false,NA,true,4,15,NA,NA,left,NA,NA,o_s_023.jpg,o_c_028.jpg,within,NA,NaN,NA,left,1057.9000000953674,1,1,1680.5
nUAoRJz8,NA,NA,nUAoRJz8,2020-0188,2021-11-03,00:31:15,01:38:29,NA,incomplete,false,NA,true,4,16,NA,NA,right,NA,NA,m_s_014.jpg,m_s_013.jpg,within,NA,NaN,NA,left,2707,0,0,3043.800000190735
nUAoRJz8,NA,NA,nUAoRJz8,2020-0188,2021-11-03,00:31:15,01:38:29,NA,incomplete,false,NA,true,4,17,NA,NA,right,NA,NA,c_1_002.jpg,a_1_026.jpg,between-small,NA,NaN,NA,left,865.9000000953674,0,1,2659.899999856949
nUAoRJz8,NA,NA,nUAoRJz8,2020-0188,2021-11-03,00:31:15,01:38:29,NA,incomplete,false,NA,true,4,18,NA,NA,right,NA,NA,c_2_005.jpg,c_2_019.jpg,between-small,NA,NaN,NA,right,8321.600000143051,1,1,1873
nUAoRJz8,NA,NA,nUAoRJz8,2020-0188,2021-11-03,00:31:15,01:38:29,NA,incomplete,false,NA,true,4,19,NA,NA,right,NA,NA,o_c_021.jpg,i_c_020.jpg,within,NA,NaN,NA,right,6009.800000190735,1,2,1761.5
nUAoRJz8,NA,NA,nUAoRJz8,2020-0188,2021-11-03,00:31:15,01:38:29,NA,incomplete,false,NA,true,4,20,NA,NA,right,NA,NA,i_c_020.jpg,o_s_017.jpg,between-small,NA,NaN,NA,right,2242.2000000476837,1,2,832.2000000476837
nUAoRJz8,NA,NA,nUAoRJz8,2020-0188,2021-11-03,00:31:15,01:38:29,NA,incomplete,false,NA,true,4,21,NA,NA,left,NA,NA,m_l_028.jpg,o_c_006.jpg,between-big,NA,NaN,NA,left,814.7999999523163,1,1,1855.9000000953674
nUAoRJz8,NA,NA,nUAoRJz8,2020-0188,2021-11-03,00:31:15,01:38:29,NA,incomplete,false,NA,true,4,22,NA,NA,right,NA,NA,o_c_001.jpg,i_s_022.jpg,within,NA,NaN,NA,left,2128.7000000476837,0,1,1506.2999999523163
nUAoRJz8,NA,NA,nUAoRJz8,2020-0188,2021-11-03,00:31:15,01:38:29,NA,incomplete,false,NA,true,4,23,NA,NA,left,NA,NA,a_2_017.jpg,c_2_022.jpg,within,NA,NaN,NA,right,3143.2000000476837,0,1,2897.7000000476837
nUAoRJz8,NA,NA,nUAoRJz8,2020-0188,2021-11-03,00:31:15,01:38:29,NA,incomplete,false,NA,true,4,24,NA,NA,left,NA,NA,m_s_014.jpg,m_l_028.jpg,between-small,NA,NaN,NA,right,2610.7999999523163,0,1,2521.899999856949
nUAoRJz8,NA,NA,nUAoRJz8,2020-0188,2021-11-03,00:31:15,01:38:29,NA,incomplete,false,NA,true,4,25,NA,NA,right,NA,NA,o_s_023.jpg,m_l_021.jpg,between-big,NA,NaN,NA,right,9057,1,1,1713.7000000476837
nUAoRJz8,NA,NA,nUAoRJz8,2020-0188,2021-11-03,00:31:15,01:38:29,NA,incomplete,false,NA,true,4,26,NA,NA,right,NA,NA,i_s_022.jpg,i_c_023.jpg,between-small,NA,NaN,NA,right,2048.2000000476837,1,1,1361.5999999046326
nUAoRJz8,NA,NA,nUAoRJz8,2020-0188,2021-11-03,00:31:15,01:38:29,NA,incomplete,false,true,NA,5,0,origin,m_s_026.jpg,left,manmade,natural,NA,NA,NA,left,2419.70000004768,true,NA,NA,NA,NA,NA
nUAoRJz8,NA,NA,nUAoRJz8,2020-0188,2021-11-03,00:31:15,01:38:29,NA,incomplete,false,true,NA,5,1,origin,m_l_013.jpg,left,manmade,natural,NA,NA,NA,left,1230.79999995232,true,NA,NA,NA,NA,NA
nUAoRJz8,NA,NA,nUAoRJz8,2020-0188,2021-11-03,00:31:15,01:38:29,NA,incomplete,false,true,NA,5,2,origin,m_s_009.jpg,right,natural,manmade,NA,NA,NA,right,1270,true,NA,NA,NA,NA,NA
nUAoRJz8,NA,NA,nUAoRJz8,2020-0188,2021-11-03,00:31:15,01:38:29,NA,incomplete,false,true,NA,5,3,origin,m_l_005.jpg,right,natural,manmade,NA,NA,NA,right,2148.90000009537,true,NA,NA,NA,NA,NA
nUAoRJz8,NA,NA,nUAoRJz8,2020-0188,2021-11-03,00:31:15,01:38:29,NA,incomplete,false,true,NA,5,4,origin,n_l_006.jpg,right,manmade,natural,NA,NA,NA,right,1771.39999985695,true,NA,NA,NA,NA,NA
nUAoRJz8,NA,NA,nUAoRJz8,2020-0188,2021-11-03,00:31:15,01:38:29,NA,incomplete,false,true,NA,5,5,size,n_s_012.jpg,left,small,large,NA,NA,NA,left,1741.09999990463,true,NA,NA,NA,NA,NA
nUAoRJz8,NA,NA,nUAoRJz8,2020-0188,2021-11-03,00:31:15,01:38:29,NA,incomplete,false,true,NA,5,6,size,m_l_022.jpg,left,large,small,NA,NA,NA,left,2304.69999980927,true,NA,NA,NA,NA,NA
nUAoRJz8,NA,NA,nUAoRJz8,2020-0188,2021-11-03,00:31:15,01:38:29,NA,incomplete,false,true,NA,5,7,size,m_s_028.jpg,right,large,small,NA,NA,NA,right,1820.09999990463,true,NA,NA,NA,NA,NA
nUAoRJz8,NA,NA,nUAoRJz8,2020-0188,2021-11-03,00:31:15,01:38:29,NA,incomplete,false,true,NA,5,8,size,m_s_023.jpg,right,large,small,NA,NA,NA,right,1163,true,NA,NA,NA,NA,NA
nUAoRJz8,NA,NA,nUAoRJz8,2020-0188,2021-11-03,00:31:15,01:38:29,NA,incomplete,false,true,NA,5,9,size,m_l_009.jpg,left,large,small,NA,NA,NA,left,1097.89999985695,true,NA,NA,NA,NA,NA
nUAoRJz8,NA,NA,nUAoRJz8,2020-0188,2021-11-03,00:31:15,01:38:29,NA,incomplete,false,true,NA,5,10,syllable,c_2_006.jpg,right,1 syllable,2 syllables,NA,NA,NA,right,1342,true,NA,NA,NA,NA,NA
nUAoRJz8,NA,NA,nUAoRJz8,2020-0188,2021-11-03,00:31:15,01:38:29,NA,incomplete,false,true,NA,5,11,syllable,c_2_007.jpg,right,2 syllables,1 syllable,NA,NA,NA,left,1414.40000009537,false,NA,NA,NA,NA,NA
nUAoRJz8,NA,NA,nUAoRJz8,2020-0188,2021-11-03,00:31:15,01:38:29,NA,incomplete,false,true,NA,5,12,syllable,c_1_004.jpg,right,1 syllable,2 syllables,NA,NA,NA,right,785.700000047684,true,NA,NA,NA,NA,NA
nUAoRJz8,NA,NA,nUAoRJz8,2020-0188,2021-11-03,00:31:15,01:38:29,NA,incomplete,false,true,NA,5,13,syllable,c_2_004.jpg,right,2 syllables,1 syllable,NA,NA,NA,left,1067.79999995232,false,NA,NA,NA,NA,NA
nUAoRJz8,NA,NA,nUAoRJz8,2020-0188,2021-11-03,00:31:15,01:38:29,NA,incomplete,false,true,NA,5,14,syllable,a_2_005.jpg,right,2 syllables,1 syllable,NA,NA,NA,left,912.5,false,NA,NA,NA,NA,NA
nUAoRJz8,NA,NA,nUAoRJz8,2020-0188,2021-11-03,00:31:15,01:38:29,NA,incomplete,false,true,NA,5,15,abstractness,a_1_008.jpg,right,concrete,abstract,NA,NA,NA,right,1627.5,true,NA,NA,NA,NA,NA
nUAoRJz8,NA,NA,nUAoRJz8,2020-0188,2021-11-03,00:31:15,01:38:29,NA,incomplete,false,true,NA,5,16,abstractness,a_2_012.jpg,left,abstract,concrete,NA,NA,NA,left,1709,true,NA,NA,NA,NA,NA
nUAoRJz8,NA,NA,nUAoRJz8,2020-0188,2021-11-03,00:31:15,01:38:29,NA,incomplete,false,true,NA,5,17,abstractness,a_2_013.jpg,right,concrete,abstract,NA,NA,NA,right,1602.79999995232,true,NA,NA,NA,NA,NA
nUAoRJz8,NA,NA,nUAoRJz8,2020-0188,2021-11-03,00:31:15,01:38:29,NA,incomplete,false,true,NA,5,18,abstractness,c_1_015.jpg,left,concrete,abstract,NA,NA,NA,left,1626.59999990463,true,NA,NA,NA,NA,NA
nUAoRJz8,NA,NA,nUAoRJz8,2020-0188,2021-11-03,00:31:15,01:38:29,NA,incomplete,false,true,NA,5,19,abstractness,c_1_005.jpg,right,abstract,concrete,NA,NA,NA,right,1218.09999990463,true,NA,NA,NA,NA,NA
nUAoRJz8,NA,NA,nUAoRJz8,2020-0188,2021-11-03,00:31:15,01:38:29,NA,incomplete,false,true,NA,5,20,location,o_c_023.jpg,right,indoor,outdoor,NA,NA,NA,right,2482.89999985695,true,NA,NA,NA,NA,NA
nUAoRJz8,NA,NA,nUAoRJz8,2020-0188,2021-11-03,00:31:15,01:38:29,NA,incomplete,false,true,NA,5,21,location,o_s_004.jpg,left,outdoor,indoor,NA,NA,NA,left,2461.79999995232,true,NA,NA,NA,NA,NA
nUAoRJz8,NA,NA,nUAoRJz8,2020-0188,2021-11-03,00:31:15,01:38:29,NA,incomplete,false,true,NA,5,22,location,o_s_001.jpg,left,outdoor,indoor,NA,NA,NA,left,1083.09999990463,true,NA,NA,NA,NA,NA
nUAoRJz8,NA,NA,nUAoRJz8,2020-0188,2021-11-03,00:31:15,01:38:29,NA,incomplete,false,true,NA,5,23,location,i_s_028.jpg,right,outdoor,indoor,NA,NA,NA,right,1442.79999995232,true,NA,NA,NA,NA,NA
nUAoRJz8,NA,NA,nUAoRJz8,2020-0188,2021-11-03,00:31:15,01:38:29,NA,incomplete,false,true,NA,5,24,location,o_s_018.jpg,left,outdoor,indoor,NA,NA,NA,left,1221.29999995232,true,NA,NA,NA,NA,NA
nUAoRJz8,NA,NA,nUAoRJz8,2020-0188,2021-11-03,00:31:15,01:38:29,NA,incomplete,false,true,NA,5,25,building,i_s_006.jpg,left,skyscraper,cottage,NA,NA,NA,left,2477.89999985695,true,NA,NA,NA,NA,NA
nUAoRJz8,NA,NA,nUAoRJz8,2020-0188,2021-11-03,00:31:15,01:38:29,NA,incomplete,false,true,NA,5,26,building,o_s_007.jpg,right,cottage,skyscraper,NA,NA,NA,right,1492.60000014305,true,NA,NA,NA,NA,NA
nUAoRJz8,NA,NA,nUAoRJz8,2020-0188,2021-11-03,00:31:15,01:38:29,NA,incomplete,false,true,NA,5,27,building,o_c_018.jpg,left,cottage,skyscraper,NA,NA,NA,left,764.900000095367,true,NA,NA,NA,NA,NA
nUAoRJz8,NA,NA,nUAoRJz8,2020-0188,2021-11-03,00:31:15,01:38:29,NA,incomplete,false,true,NA,5,28,building,i_c_011.jpg,left,cottage,skyscraper,NA,NA,NA,left,944.600000143051,true,NA,NA,NA,NA,NA
nUAoRJz8,NA,NA,nUAoRJz8,2020-0188,2021-11-03,00:31:15,01:38:29,NA,incomplete,false,true,NA,5,29,building,o_c_027.jpg,left,cottage,skyscraper,NA,NA,NA,left,1099.90000009537,true,NA,NA,NA,NA,NA
nUAoRJz8,NA,NA,nUAoRJz8,2020-0188,2021-11-03,00:31:15,01:38:29,NA,incomplete,false,NA,true,5,0,NA,NA,left,NA,NA,c_2_004.jpg,a_2_012.jpg,between-small,NA,NaN,NA,left,10722.799999952316,1,2,1024.9000000953674
nUAoRJz8,NA,NA,nUAoRJz8,2020-0188,2021-11-03,00:31:15,01:38:29,NA,incomplete,false,NA,true,5,1,NA,NA,left,NA,NA,m_s_026.jpg,m_l_005.jpg,within,NA,NaN,NA,left,1104.8999998569489,1,1,1394.2000000476837
nUAoRJz8,NA,NA,nUAoRJz8,2020-0188,2021-11-03,00:31:15,01:38:29,NA,incomplete,false,NA,true,5,2,NA,NA,left,NA,NA,o_s_001.jpg,i_s_006.jpg,between-small,NA,NaN,NA,left,1658,1,2,946
nUAoRJz8,NA,NA,nUAoRJz8,2020-0188,2021-11-03,00:31:15,01:38:29,NA,incomplete,false,NA,true,5,3,NA,NA,right,NA,NA,n_l_006.jpg,m_l_013.jpg,within,NA,NaN,NA,right,2148.899999856949,1,1,929.3999998569489
nUAoRJz8,NA,NA,nUAoRJz8,2020-0188,2021-11-03,00:31:15,01:38:29,NA,incomplete,false,NA,true,5,4,NA,NA,right,NA,NA,m_s_028.jpg,n_l_006.jpg,between-small,NA,NaN,NA,right,3389.800000190735,1,2,3010.699999809265
nUAoRJz8,NA,NA,nUAoRJz8,2020-0188,2021-11-03,00:31:15,01:38:29,NA,incomplete,false,NA,true,5,5,NA,NA,right,NA,NA,o_c_027.jpg,o_s_007.jpg,within,NA,NaN,NA,right,1249.9000000953674,1,2,961.1999998092651
nUAoRJz8,NA,NA,nUAoRJz8,2020-0188,2021-11-03,00:31:15,01:38:29,NA,incomplete,false,NA,true,5,6,NA,NA,left,NA,NA,c_1_005.jpg,o_s_001.jpg,between-big,NA,NaN,NA,left,1330.7999999523163,1,2,1408.3999998569489
nUAoRJz8,NA,NA,nUAoRJz8,2020-0188,2021-11-03,00:31:15,01:38:29,NA,incomplete,false,NA,true,5,7,NA,NA,right,NA,NA,a_2_013.jpg,a_2_005.jpg,between-small,NA,NaN,NA,left,1168.2000000476837,0,1,1361.4000000953674
nUAoRJz8,NA,NA,nUAoRJz8,2020-0188,2021-11-03,00:31:15,01:38:29,NA,incomplete,false,NA,true,5,8,NA,NA,left,NA,NA,c_2_007.jpg,a_2_005.jpg,within,NA,NaN,NA,left,1802.7999999523163,1,1,944.2999999523163
nUAoRJz8,NA,NA,nUAoRJz8,2020-0188,2021-11-03,00:31:15,01:38:29,NA,incomplete,false,NA,true,5,9,NA,NA,right,NA,NA,o_s_004.jpg,c_1_015.jpg,between-big,NA,NaN,NA,right,3668.2000000476837,1,2,929.2999999523163
nUAoRJz8,NA,NA,nUAoRJz8,2020-0188,2021-11-03,00:31:15,01:38:29,NA,incomplete,false,NA,true,5,10,NA,NA,left,NA,NA,m_s_028.jpg,c_2_006.jpg,between-big,NA,NaN,NA,right,2883.5999999046326,0,3,2611.5
nUAoRJz8,NA,NA,nUAoRJz8,2020-0188,2021-11-03,00:31:15,01:38:29,NA,incomplete,false,NA,true,5,11,NA,NA,left,NA,NA,a_1_008.jpg,c_1_015.jpg,within,NA,NaN,NA,right,4966.400000095367,0,1,2001.8999998569489
nUAoRJz8,NA,NA,nUAoRJz8,2020-0188,2021-11-03,00:31:15,01:38:29,NA,incomplete,false,NA,true,5,12,NA,NA,right,NA,NA,c_2_007.jpg,m_s_023.jpg,between-big,NA,NaN,NA,right,1185.2999999523163,1,2,944.5999999046326
nUAoRJz8,NA,NA,nUAoRJz8,2020-0188,2021-11-03,00:31:15,01:38:29,NA,incomplete,false,NA,true,5,13,NA,NA,right,NA,NA,o_c_018.jpg,o_s_018.jpg,between-small,NA,NaN,NA,left,4573.700000047684,0,2,1023
nUAoRJz8,NA,NA,nUAoRJz8,2020-0188,2021-11-03,00:31:15,01:38:29,NA,incomplete,false,NA,true,5,14,NA,NA,right,NA,NA,o_c_023.jpg,a_2_013.jpg,between-big,NA,NaN,NA,right,1440.3999998569489,1,2,1649.3999998569489
nUAoRJz8,NA,NA,nUAoRJz8,2020-0188,2021-11-03,00:31:15,01:38:29,NA,incomplete,false,NA,true,5,15,NA,NA,left,NA,NA,m_l_005.jpg,m_l_022.jpg,between-small,NA,NaN,NA,left,1554.1000001430511,1,1,2508.5
nUAoRJz8,NA,NA,nUAoRJz8,2020-0188,2021-11-03,00:31:15,01:38:29,NA,incomplete,false,NA,true,5,16,NA,NA,right,NA,NA,i_s_028.jpg,o_c_023.jpg,within,NA,NaN,NA,left,1328.8999998569489,0,2,1166.6000001430511
nUAoRJz8,NA,NA,nUAoRJz8,2020-0188,2021-11-03,00:31:15,01:38:29,NA,incomplete,false,NA,true,5,17,NA,NA,left,NA,NA,m_l_009.jpg,c_1_004.jpg,between-big,NA,NaN,NA,left,2578.5999999046326,1,1,946
nUAoRJz8,NA,NA,nUAoRJz8,2020-0188,2021-11-03,00:31:15,01:38:29,NA,incomplete,false,NA,true,5,18,NA,NA,left,NA,NA,a_2_012.jpg,c_1_005.jpg,within,NA,NaN,NA,right,2115,0,2,1505.0999999046326
nUAoRJz8,NA,NA,nUAoRJz8,2020-0188,2021-11-03,00:31:15,01:38:29,NA,incomplete,false,NA,true,5,19,NA,NA,left,NA,NA,n_s_012.jpg,m_s_023.jpg,within,NA,NaN,NA,left,1905.0999999046326,1,1,817.1999998092651
nUAoRJz8,NA,NA,nUAoRJz8,2020-0188,2021-11-03,00:31:15,01:38:29,NA,incomplete,false,NA,true,5,20,NA,NA,right,NA,NA,i_c_011.jpg,i_s_006.jpg,within,NA,NaN,NA,right,3412.7000000476837,1,1,1154.5999999046326
nUAoRJz8,NA,NA,nUAoRJz8,2020-0188,2021-11-03,00:31:15,01:38:29,NA,incomplete,false,NA,true,5,21,NA,NA,left,NA,NA,c_1_004.jpg,a_1_008.jpg,between-small,NA,NaN,NA,left,817.4000000953674,1,1,1777.6999998092651
nUAoRJz8,NA,NA,nUAoRJz8,2020-0188,2021-11-03,00:31:15,01:38:29,NA,incomplete,false,NA,true,5,22,NA,NA,right,NA,NA,m_l_009.jpg,m_l_022.jpg,within,NA,NaN,NA,right,5468.799999952316,1,1,2016.0999999046326
nUAoRJz8,NA,NA,nUAoRJz8,2020-0188,2021-11-03,00:31:15,01:38:29,NA,incomplete,false,NA,true,5,23,NA,NA,left,NA,NA,i_s_028.jpg,o_s_007.jpg,between-small,NA,NaN,NA,left,7001.799999952316,1,1,1665.5
nUAoRJz8,NA,NA,nUAoRJz8,2020-0188,2021-11-03,00:31:15,01:38:29,NA,incomplete,false,NA,true,5,24,NA,NA,right,NA,NA,c_2_004.jpg,c_2_006.jpg,within,NA,NaN,NA,left,1426.5999999046326,0,1,1923.0999999046326
nUAoRJz8,NA,NA,nUAoRJz8,2020-0188,2021-11-03,00:31:15,01:38:29,NA,incomplete,false,NA,true,5,25,NA,NA,right,NA,NA,n_s_012.jpg,m_s_009.jpg,between-small,NA,NaN,NA,right,2171.7999999523163,1,1,1522
nUAoRJz8,NA,NA,nUAoRJz8,2020-0188,2021-11-03,00:31:15,01:38:29,NA,incomplete,false,NA,true,5,26,NA,NA,right,NA,NA,o_s_018.jpg,o_s_004.jpg,within,NA,NaN,NA,right,1289.7999999523163,1,1,1601.4000000953674
nUAoRJz8,NA,NA,nUAoRJz8,2020-0188,2021-11-03,00:31:15,01:38:29,NA,incomplete,false,true,NA,6,0,abstractness,a_1_005.jpg,right,concrete,abstract,NA,NA,NA,right,2268.90000009537,true,NA,NA,NA,NA,NA
nUAoRJz8,NA,NA,nUAoRJz8,2020-0188,2021-11-03,00:31:15,01:38:29,NA,incomplete,false,true,NA,6,1,abstractness,c_2_021.jpg,right,abstract,concrete,NA,NA,NA,right,1969.79999995232,true,NA,NA,NA,NA,NA
nUAoRJz8,NA,NA,nUAoRJz8,2020-0188,2021-11-03,00:31:15,01:38:29,NA,incomplete,false,true,NA,6,2,abstractness,a_2_009.jpg,right,concrete,abstract,NA,NA,NA,right,1526.60000014305,true,NA,NA,NA,NA,NA
nUAoRJz8,NA,NA,nUAoRJz8,2020-0188,2021-11-03,00:31:15,01:38:29,NA,incomplete,false,true,NA,6,3,abstractness,c_2_009.jpg,right,abstract,concrete,NA,NA,NA,right,877.099999904633,true,NA,NA,NA,NA,NA
nUAoRJz8,NA,NA,nUAoRJz8,2020-0188,2021-11-03,00:31:15,01:38:29,NA,incomplete,false,true,NA,6,4,abstractness,a_2_026.jpg,left,abstract,concrete,NA,NA,NA,left,1663.79999995232,true,NA,NA,NA,NA,NA
nUAoRJz8,NA,NA,nUAoRJz8,2020-0188,2021-11-03,00:31:15,01:38:29,NA,incomplete,false,true,NA,6,5,syllable,c_2_017.jpg,right,1 syllable,2 syllables,NA,NA,NA,right,2220.70000004768,true,NA,NA,NA,NA,NA
nUAoRJz8,NA,NA,nUAoRJz8,2020-0188,2021-11-03,00:31:15,01:38:29,NA,incomplete,false,true,NA,6,6,syllable,c_1_027.jpg,right,2 syllables,1 syllable,NA,NA,NA,right,1848.60000014305,true,NA,NA,NA,NA,NA
nUAoRJz8,NA,NA,nUAoRJz8,2020-0188,2021-11-03,00:31:15,01:38:29,NA,incomplete,false,true,NA,6,7,syllable,c_2_014.jpg,right,1 syllable,2 syllables,NA,NA,NA,right,733.599999904633,true,NA,NA,NA,NA,NA
nUAoRJz8,NA,NA,nUAoRJz8,2020-0188,2021-11-03,00:31:15,01:38:29,NA,incomplete,false,true,NA,6,8,syllable,c_2_025.jpg,right,2 syllables,1 syllable,NA,NA,NA,right,791.800000190735,true,NA,NA,NA,NA,NA
nUAoRJz8,NA,NA,nUAoRJz8,2020-0188,2021-11-03,00:31:15,01:38:29,NA,incomplete,false,true,NA,6,9,syllable,c_2_012.jpg,right,2 syllables,1 syllable,NA,NA,NA,left,1285.09999990463,false,NA,NA,NA,NA,NA
nUAoRJz8,NA,NA,nUAoRJz8,2020-0188,2021-11-03,00:31:15,01:38:29,NA,incomplete,false,true,NA,6,10,location,i_s_023.jpg,right,outdoor,indoor,NA,NA,NA,right,1565.20000004768,true,NA,NA,NA,NA,NA
nUAoRJz8,NA,NA,nUAoRJz8,2020-0188,2021-11-03,00:31:15,01:38:29,NA,incomplete,false,true,NA,6,11,location,i_s_019.jpg,left,indoor,outdoor,NA,NA,NA,left,1714.90000009537,true,NA,NA,NA,NA,NA
nUAoRJz8,NA,NA,nUAoRJz8,2020-0188,2021-11-03,00:31:15,01:38:29,NA,incomplete,false,true,NA,6,12,location,o_c_013.jpg,left,outdoor,indoor,NA,NA,NA,left,1473.29999995232,true,NA,NA,NA,NA,NA
nUAoRJz8,NA,NA,nUAoRJz8,2020-0188,2021-11-03,00:31:15,01:38:29,NA,incomplete,false,true,NA,6,13,location,i_s_024.jpg,right,outdoor,indoor,NA,NA,NA,right,923.299999952316,true,NA,NA,NA,NA,NA
nUAoRJz8,NA,NA,nUAoRJz8,2020-0188,2021-11-03,00:31:15,01:38:29,NA,incomplete,false,true,NA,6,14,location,o_c_024.jpg,right,indoor,outdoor,NA,NA,NA,right,888.200000047684,true,NA,NA,NA,NA,NA
nUAoRJz8,NA,NA,nUAoRJz8,2020-0188,2021-11-03,00:31:15,01:38:29,NA,incomplete,false,true,NA,6,15,building,i_c_021.jpg,right,skyscraper,cottage,NA,NA,NA,right,880.300000190735,true,NA,NA,NA,NA,NA
nUAoRJz8,NA,NA,nUAoRJz8,2020-0188,2021-11-03,00:31:15,01:38:29,NA,incomplete,false,true,NA,6,16,building,o_s_016.jpg,left,skyscraper,cottage,NA,NA,NA,left,1324.79999995232,true,NA,NA,NA,NA,NA
nUAoRJz8,NA,NA,nUAoRJz8,2020-0188,2021-11-03,00:31:15,01:38:29,NA,incomplete,false,true,NA,6,17,building,i_s_001.jpg,right,cottage,skyscraper,NA,NA,NA,right,1173.79999995232,true,NA,NA,NA,NA,NA
nUAoRJz8,NA,NA,nUAoRJz8,2020-0188,2021-11-03,00:31:15,01:38:29,NA,incomplete,false,true,NA,6,18,building,i_c_015.jpg,right,skyscraper,cottage,NA,NA,NA,right,1459.90000009537,true,NA,NA,NA,NA,NA
nUAoRJz8,NA,NA,nUAoRJz8,2020-0188,2021-11-03,00:31:15,01:38:29,NA,incomplete,false,true,NA,6,19,building,i_c_012.jpg,right,skyscraper,cottage,NA,NA,NA,right,1306.29999995232,true,NA,NA,NA,NA,NA
nUAoRJz8,NA,NA,nUAoRJz8,2020-0188,2021-11-03,00:31:15,01:38:29,NA,incomplete,false,true,NA,6,20,size,m_l_006.jpg,right,small,large,NA,NA,NA,right,1859.79999995232,true,NA,NA,NA,NA,NA
nUAoRJz8,NA,NA,nUAoRJz8,2020-0188,2021-11-03,00:31:15,01:38:29,NA,incomplete,false,true,NA,6,21,size,n_s_008.jpg,left,small,large,NA,NA,NA,left,1605.80000019073,true,NA,NA,NA,NA,NA
nUAoRJz8,NA,NA,nUAoRJz8,2020-0188,2021-11-03,00:31:15,01:38:29,NA,incomplete,false,true,NA,6,22,size,m_s_024.jpg,left,small,large,NA,NA,NA,left,2137.09999990463,true,NA,NA,NA,NA,NA
nUAoRJz8,NA,NA,nUAoRJz8,2020-0188,2021-11-03,00:31:15,01:38:29,NA,incomplete,false,true,NA,6,23,size,m_s_004.jpg,left,small,large,NA,NA,NA,left,1431.59999990463,true,NA,NA,NA,NA,NA
nUAoRJz8,NA,NA,nUAoRJz8,2020-0188,2021-11-03,00:31:15,01:38:29,NA,incomplete,false,true,NA,6,24,size,n_s_019.jpg,right,large,small,NA,NA,NA,right,878,true,NA,NA,NA,NA,NA
nUAoRJz8,NA,NA,nUAoRJz8,2020-0188,2021-11-03,00:31:15,01:38:29,NA,incomplete,false,true,NA,6,25,origin,n_l_001.jpg,right,manmade,natural,NA,NA,NA,right,1284.79999995232,true,NA,NA,NA,NA,NA
nUAoRJz8,NA,NA,nUAoRJz8,2020-0188,2021-11-03,00:31:15,01:38:29,NA,incomplete,false,true,NA,6,26,origin,n_l_026.jpg,left,natural,manmade,NA,NA,NA,left,1709.19999980927,true,NA,NA,NA,NA,NA
nUAoRJz8,NA,NA,nUAoRJz8,2020-0188,2021-11-03,00:31:15,01:38:29,NA,incomplete,false,true,NA,6,27,origin,m_l_020.jpg,right,natural,manmade,NA,NA,NA,right,874.399999856949,true,NA,NA,NA,NA,NA
nUAoRJz8,NA,NA,nUAoRJz8,2020-0188,2021-11-03,00:31:15,01:38:29,NA,incomplete,false,true,NA,6,28,origin,m_s_003.jpg,left,manmade,natural,NA,NA,NA,left,1522.29999995232,true,NA,NA,NA,NA,NA
nUAoRJz8,NA,NA,nUAoRJz8,2020-0188,2021-11-03,00:31:15,01:38:29,NA,incomplete,false,true,NA,6,29,origin,n_s_017.jpg,left,natural,manmade,NA,NA,NA,left,1070.30000019073,true,NA,NA,NA,NA,NA
nUAoRJz8,NA,NA,nUAoRJz8,2020-0188,2021-11-03,00:31:15,01:38:29,NA,incomplete,false,NA,true,6,0,NA,NA,right,NA,NA,c_2_012.jpg,c_1_027.jpg,within,NA,NaN,NA,right,3173.100000143051,1,1,1539
nUAoRJz8,NA,NA,nUAoRJz8,2020-0188,2021-11-03,00:31:15,01:38:29,NA,incomplete,false,NA,true,6,1,NA,NA,left,NA,NA,m_s_004.jpg,n_l_026.jpg,between-small,NA,NaN,NA,left,8013.200000047684,1,2,896.1999998092651
nUAoRJz8,NA,NA,nUAoRJz8,2020-0188,2021-11-03,00:31:15,01:38:29,NA,incomplete,false,NA,true,6,2,NA,NA,left,NA,NA,o_c_024.jpg,i_s_001.jpg,between-small,NA,NaN,NA,left,3251,1,1,1136.7999999523163
nUAoRJz8,NA,NA,nUAoRJz8,2020-0188,2021-11-03,00:31:15,01:38:29,NA,incomplete,false,NA,true,6,3,NA,NA,left,NA,NA,a_2_009.jpg,c_2_017.jpg,between-small,NA,NaN,NA,left,5048.200000047684,1,2,945.5
nUAoRJz8,NA,NA,nUAoRJz8,2020-0188,2021-11-03,00:31:15,01:38:29,NA,incomplete,false,NA,true,6,4,NA,NA,left,NA,NA,o_s_016.jpg,i_c_012.jpg,within,NA,NaN,NA,left,2034.1000001430511,1,2,784.1999998092651
nUAoRJz8,NA,NA,nUAoRJz8,2020-0188,2021-11-03,00:31:15,01:38:29,NA,incomplete,false,NA,true,6,5,NA,NA,right,NA,NA,m_l_020.jpg,n_s_019.jpg,between-small,NA,NaN,NA,right,1377.6000001430511,1,1,961.1000001430511
nUAoRJz8,NA,NA,nUAoRJz8,2020-0188,2021-11-03,00:31:15,01:38:29,NA,incomplete,false,NA,true,6,6,NA,NA,left,NA,NA,n_l_001.jpg,m_s_003.jpg,within,NA,NaN,NA,right,4701.399999856949,0,2,1842.9000000953674
nUAoRJz8,NA,NA,nUAoRJz8,2020-0188,2021-11-03,00:31:15,01:38:29,NA,incomplete,false,NA,true,6,7,NA,NA,left,NA,NA,c_2_014.jpg,i_s_023.jpg,between-big,NA,NaN,NA,left,6737.600000143051,1,2,1056.7000000476837
nUAoRJz8,NA,NA,nUAoRJz8,2020-0188,2021-11-03,00:31:15,01:38:29,NA,incomplete,false,NA,true,6,8,NA,NA,left,NA,NA,n_l_026.jpg,n_s_017.jpg,within,NA,NaN,NA,right,6007.099999904633,0,1,2193.399999856949
nUAoRJz8,NA,NA,nUAoRJz8,2020-0188,2021-11-03,00:31:15,01:38:29,NA,incomplete,false,NA,true,6,9,NA,NA,left,NA,NA,i_s_001.jpg,m_l_006.jpg,between-big,NA,NaN,NA,left,1984.9000000953674,1,2,1328.5
nUAoRJz8,NA,NA,nUAoRJz8,2020-0188,2021-11-03,00:31:15,01:38:29,NA,incomplete,false,NA,true,6,10,NA,NA,left,NA,NA,i_s_024.jpg,o_s_016.jpg,between-small,NA,NaN,NA,left,1138.2999999523163,1,2,879.9000000953674
nUAoRJz8,NA,NA,nUAoRJz8,2020-0188,2021-11-03,00:31:15,01:38:29,NA,incomplete,false,NA,true,6,11,NA,NA,right,NA,NA,m_s_024.jpg,i_c_012.jpg,between-big,NA,NaN,NA,right,2282.100000143051,1,2,1472.0999999046326
nUAoRJz8,NA,NA,nUAoRJz8,2020-0188,2021-11-03,00:31:15,01:38:29,NA,incomplete,false,NA,true,6,12,NA,NA,right,NA,NA,i_s_019.jpg,c_2_025.jpg,between-big,NA,NaN,NA,right,3235.5,1,2,861.9000000953674
nUAoRJz8,NA,NA,nUAoRJz8,2020-0188,2021-11-03,00:31:15,01:38:29,NA,incomplete,false,NA,true,6,13,NA,NA,left,NA,NA,i_c_021.jpg,i_c_015.jpg,within,NA,NaN,NA,right,1952.2000000476837,0,0,2707.7000000476837
nUAoRJz8,NA,NA,nUAoRJz8,2020-0188,2021-11-03,00:31:15,01:38:29,NA,incomplete,false,NA,true,6,14,NA,NA,left,NA,NA,m_s_024.jpg,n_l_001.jpg,between-small,NA,NaN,NA,left,2859.5,1,1,1441.5
nUAoRJz8,NA,NA,nUAoRJz8,2020-0188,2021-11-03,00:31:15,01:38:29,NA,incomplete,false,NA,true,6,15,NA,NA,right,NA,NA,c_1_027.jpg,c_2_009.jpg,between-small,NA,NaN,NA,left,896.7999999523163,0,1,1232.7999999523163
nUAoRJz8,NA,NA,nUAoRJz8,2020-0188,2021-11-03,00:31:15,01:38:29,NA,incomplete,false,NA,true,6,16,NA,NA,left,NA,NA,i_s_019.jpg,o_c_024.jpg,within,NA,NaN,NA,right,1827.3999998569489,0,1,1458
nUAoRJz8,NA,NA,nUAoRJz8,2020-0188,2021-11-03,00:31:15,01:38:29,NA,incomplete,false,NA,true,6,17,NA,NA,right,NA,NA,n_s_008.jpg,i_c_015.jpg,between-big,NA,NaN,NA,right,1682.8999998569489,1,1,877.7000000476837
nUAoRJz8,NA,NA,nUAoRJz8,2020-0188,2021-11-03,00:31:15,01:38:29,NA,incomplete,false,NA,true,6,18,NA,NA,left,NA,NA,m_l_006.jpg,m_s_004.jpg,within,NA,NaN,NA,right,1634.0999999046326,0,1,2114.7999999523163
nUAoRJz8,NA,NA,nUAoRJz8,2020-0188,2021-11-03,00:31:15,01:38:29,NA,incomplete,false,NA,true,6,19,NA,NA,right,NA,NA,c_2_009.jpg,a_1_005.jpg,within,NA,NaN,NA,left,6273.900000095367,0,2,1186.2999999523163
nUAoRJz8,NA,NA,nUAoRJz8,2020-0188,2021-11-03,00:31:15,01:38:29,NA,incomplete,false,NA,true,6,20,NA,NA,right,NA,NA,i_s_024.jpg,i_s_023.jpg,within,NA,NaN,NA,left,1683.0999999046326,0,0,1536.9000000953674
nUAoRJz8,NA,NA,nUAoRJz8,2020-0188,2021-11-03,00:31:15,01:38:29,NA,incomplete,false,NA,true,6,21,NA,NA,left,NA,NA,o_c_013.jpg,i_c_021.jpg,between-small,NA,NaN,NA,left,1312.4000000953674,1,1,2337.199999809265
nUAoRJz8,NA,NA,nUAoRJz8,2020-0188,2021-11-03,00:31:15,01:38:29,NA,incomplete,false,NA,true,6,22,NA,NA,left,NA,NA,c_2_021.jpg,a_2_026.jpg,within,NA,NaN,NA,right,1120.7000000476837,0,1,1232.2999999523163
nUAoRJz8,NA,NA,nUAoRJz8,2020-0188,2021-11-03,00:31:15,01:38:29,NA,incomplete,false,NA,true,6,23,NA,NA,left,NA,NA,a_2_026.jpg,c_2_014.jpg,between-small,NA,NaN,NA,right,1727.7999999523163,0,1,1923.0999999046326
nUAoRJz8,NA,NA,nUAoRJz8,2020-0188,2021-11-03,00:31:15,01:38:29,NA,incomplete,false,NA,true,6,24,NA,NA,left,NA,NA,c_2_012.jpg,o_c_013.jpg,between-big,NA,NaN,NA,left,1796.5999999046326,1,2,1984.9000000953674
nUAoRJz8,NA,NA,nUAoRJz8,2020-0188,2021-11-03,00:31:15,01:38:29,NA,incomplete,false,NA,true,6,25,NA,NA,right,NA,NA,c_2_025.jpg,c_2_017.jpg,within,NA,NaN,NA,left,1127.9000000953674,0,1,881.3999998569489
nUAoRJz8,NA,NA,nUAoRJz8,2020-0188,2021-11-03,00:31:15,01:38:29,NA,incomplete,false,NA,true,6,26,NA,NA,left,NA,NA,n_s_008.jpg,n_s_019.jpg,within,NA,NaN,NA,left,1793.9000000953674,1,1,945.6000001430511
nUAoRJz8,NA,NA,nUAoRJz8,2020-0188,2021-11-03,00:31:15,01:38:29,NA,incomplete,false,true,NA,7,0,building,i_c_018.jpg,left,cottage,skyscraper,NA,NA,NA,left,2410.5,true,NA,NA,NA,NA,NA
nUAoRJz8,NA,NA,nUAoRJz8,2020-0188,2021-11-03,00:31:15,01:38:29,NA,incomplete,false,true,NA,7,1,building,i_s_007.jpg,left,skyscraper,cottage,NA,NA,NA,left,1257,true,NA,NA,NA,NA,NA
nUAoRJz8,NA,NA,nUAoRJz8,2020-0188,2021-11-03,00:31:15,01:38:29,NA,incomplete,false,true,NA,7,2,building,i_c_008.jpg,left,cottage,skyscraper,NA,NA,NA,left,1630.70000004768,true,NA,NA,NA,NA,NA
nUAoRJz8,NA,NA,nUAoRJz8,2020-0188,2021-11-03,00:31:15,01:38:29,NA,incomplete,false,true,NA,7,3,building,i_s_011.jpg,right,cottage,skyscraper,NA,NA,NA,right,1159,true,NA,NA,NA,NA,NA
nUAoRJz8,NA,NA,nUAoRJz8,2020-0188,2021-11-03,00:31:15,01:38:29,NA,incomplete,false,true,NA,7,4,building,i_s_013.jpg,right,cottage,skyscraper,NA,NA,NA,right,1566.79999995232,true,NA,NA,NA,NA,NA
nUAoRJz8,NA,NA,nUAoRJz8,2020-0188,2021-11-03,00:31:15,01:38:29,NA,incomplete,false,true,NA,7,5,location,o_c_011.jpg,right,indoor,outdoor,NA,NA,NA,right,1670.5,true,NA,NA,NA,NA,NA
nUAoRJz8,NA,NA,nUAoRJz8,2020-0188,2021-11-03,00:31:15,01:38:29,NA,incomplete,false,true,NA,7,6,location,o_c_008.jpg,left,outdoor,indoor,NA,NA,NA,left,1722.29999995232,true,NA,NA,NA,NA,NA
nUAoRJz8,NA,NA,nUAoRJz8,2020-0188,2021-11-03,00:31:15,01:38:29,NA,incomplete,false,true,NA,7,7,location,i_c_005.jpg,right,outdoor,indoor,NA,NA,NA,right,1611.80000019073,true,NA,NA,NA,NA,NA
nUAoRJz8,NA,NA,nUAoRJz8,2020-0188,2021-11-03,00:31:15,01:38:29,NA,incomplete,false,true,NA,7,8,location,i_c_024.jpg,right,outdoor,indoor,NA,NA,NA,right,2424.39999985695,true,NA,NA,NA,NA,NA
nUAoRJz8,NA,NA,nUAoRJz8,2020-0188,2021-11-03,00:31:15,01:38:29,NA,incomplete,false,true,NA,7,9,location,o_s_003.jpg,right,indoor,outdoor,NA,NA,NA,right,981.299999952316,true,NA,NA,NA,NA,NA
nUAoRJz8,NA,NA,nUAoRJz8,2020-0188,2021-11-03,00:31:15,01:38:29,NA,incomplete,false,true,NA,7,10,syllable,a_2_015.jpg,right,1 syllable,2 syllables,NA,NA,NA,right,964.200000047684,true,NA,NA,NA,NA,NA
nUAoRJz8,NA,NA,nUAoRJz8,2020-0188,2021-11-03,00:31:15,01:38:29,NA,incomplete,false,true,NA,7,11,syllable,a_2_027.jpg,right,1 syllable,2 syllables,NA,NA,NA,right,1495.29999995232,true,NA,NA,NA,NA,NA
nUAoRJz8,NA,NA,nUAoRJz8,2020-0188,2021-11-03,00:31:15,01:38:29,NA,incomplete,false,true,NA,7,12,syllable,c_2_015.jpg,right,1 syllable,2 syllables,NA,NA,NA,right,1308.10000014305,true,NA,NA,NA,NA,NA
nUAoRJz8,NA,NA,nUAoRJz8,2020-0188,2021-11-03,00:31:15,01:38:29,NA,incomplete,false,true,NA,7,13,syllable,c_1_026.jpg,right,2 syllables,1 syllable,NA,NA,NA,right,2152.5,true,NA,NA,NA,NA,NA
nUAoRJz8,NA,NA,nUAoRJz8,2020-0188,2021-11-03,00:31:15,01:38:29,NA,incomplete,false,true,NA,7,14,syllable,a_2_018.jpg,right,2 syllables,1 syllable,NA,NA,NA,left,1805.39999985695,false,NA,NA,NA,NA,NA
nUAoRJz8,NA,NA,nUAoRJz8,2020-0188,2021-11-03,00:31:15,01:38:29,NA,incomplete,false,true,NA,7,15,abstractness,c_1_023.jpg,right,abstract,concrete,NA,NA,NA,right,816.5,true,NA,NA,NA,NA,NA
nUAoRJz8,NA,NA,nUAoRJz8,2020-0188,2021-11-03,00:31:15,01:38:29,NA,incomplete,false,true,NA,7,16,abstractness,a_2_003.jpg,left,abstract,concrete,NA,NA,NA,left,1229,true,NA,NA,NA,NA,NA
nUAoRJz8,NA,NA,nUAoRJz8,2020-0188,2021-11-03,00:31:15,01:38:29,NA,incomplete,false,true,NA,7,17,abstractness,a_1_010.jpg,left,abstract,concrete,NA,NA,NA,left,1314.69999980927,true,NA,NA,NA,NA,NA
nUAoRJz8,NA,NA,nUAoRJz8,2020-0188,2021-11-03,00:31:15,01:38:29,NA,incomplete,false,true,NA,7,18,abstractness,a_2_023.jpg,left,abstract,concrete,NA,NA,NA,left,1516.70000004768,true,NA,NA,NA,NA,NA
nUAoRJz8,NA,NA,nUAoRJz8,2020-0188,2021-11-03,00:31:15,01:38:29,NA,incomplete,false,true,NA,7,19,abstractness,c_1_008.jpg,left,concrete,abstract,NA,NA,NA,left,1149.20000004768,true,NA,NA,NA,NA,NA
nUAoRJz8,NA,NA,nUAoRJz8,2020-0188,2021-11-03,00:31:15,01:38:29,NA,incomplete,false,true,NA,7,20,size,m_l_017.jpg,left,large,small,NA,NA,NA,left,1288.79999995232,true,NA,NA,NA,NA,NA
nUAoRJz8,NA,NA,nUAoRJz8,2020-0188,2021-11-03,00:31:15,01:38:29,NA,incomplete,false,true,NA,7,21,size,m_s_006.jpg,right,large,small,NA,NA,NA,right,1972.20000004768,true,NA,NA,NA,NA,NA
nUAoRJz8,NA,NA,nUAoRJz8,2020-0188,2021-11-03,00:31:15,01:38:29,NA,incomplete,false,true,NA,7,22,size,m_l_016.jpg,left,large,small,NA,NA,NA,left,979.700000047684,true,NA,NA,NA,NA,NA
nUAoRJz8,NA,NA,nUAoRJz8,2020-0188,2021-11-03,00:31:15,01:38:29,NA,incomplete,false,true,NA,7,23,size,n_s_013.jpg,left,small,large,NA,NA,NA,left,1265.70000004768,true,NA,NA,NA,NA,NA
nUAoRJz8,NA,NA,nUAoRJz8,2020-0188,2021-11-03,00:31:15,01:38:29,NA,incomplete,false,true,NA,7,24,size,m_l_019.jpg,right,small,large,NA,NA,NA,right,994.600000143051,true,NA,NA,NA,NA,NA
nUAoRJz8,NA,NA,nUAoRJz8,2020-0188,2021-11-03,00:31:15,01:38:29,NA,incomplete,false,true,NA,7,25,origin,n_l_002.jpg,left,natural,manmade,NA,NA,NA,left,1281.70000004768,true,NA,NA,NA,NA,NA
nUAoRJz8,NA,NA,nUAoRJz8,2020-0188,2021-11-03,00:31:15,01:38:29,NA,incomplete,false,true,NA,7,26,origin,m_l_002.jpg,left,manmade,natural,NA,NA,NA,left,1102.79999995232,true,NA,NA,NA,NA,NA
nUAoRJz8,NA,NA,nUAoRJz8,2020-0188,2021-11-03,00:31:15,01:38:29,NA,incomplete,false,true,NA,7,27,origin,n_l_018.jpg,right,manmade,natural,NA,NA,NA,right,969.299999952316,true,NA,NA,NA,NA,NA
nUAoRJz8,NA,NA,nUAoRJz8,2020-0188,2021-11-03,00:31:15,01:38:29,NA,incomplete,false,true,NA,7,28,origin,m_l_027.jpg,left,manmade,natural,NA,NA,NA,left,1768.79999995232,true,NA,NA,NA,NA,NA
nUAoRJz8,NA,NA,nUAoRJz8,2020-0188,2021-11-03,00:31:15,01:38:29,NA,incomplete,false,true,NA,7,29,origin,n_l_016.jpg,right,manmade,natural,NA,NA,NA,right,1180.09999990463,true,NA,NA,NA,NA,NA
nUAoRJz8,NA,NA,nUAoRJz8,2020-0188,2021-11-03,00:31:15,01:38:29,NA,incomplete,false,NA,true,7,0,NA,NA,left,NA,NA,a_2_015.jpg,c_1_026.jpg,within,NA,NaN,NA,left,4776.799999952316,1,1,1615.7999999523163
nUAoRJz8,NA,NA,nUAoRJz8,2020-0188,2021-11-03,00:31:15,01:38:29,NA,incomplete,false,NA,true,7,1,NA,NA,left,NA,NA,c_1_026.jpg,a_2_003.jpg,between-small,NA,NaN,NA,left,2868.600000143051,1,2,881.4000000953674
nUAoRJz8,NA,NA,nUAoRJz8,2020-0188,2021-11-03,00:31:15,01:38:29,NA,incomplete,false,NA,true,7,2,NA,NA,left,NA,NA,c_2_015.jpg,c_1_023.jpg,between-small,NA,NaN,NA,right,4240.299999952316,0,1,1522.2999999523163
nUAoRJz8,NA,NA,nUAoRJz8,2020-0188,2021-11-03,00:31:15,01:38:29,NA,incomplete,false,NA,true,7,3,NA,NA,right,NA,NA,m_s_006.jpg,a_2_023.jpg,between-big,NA,NaN,NA,right,1986.2000000476837,1,2,4362.299999952316
nUAoRJz8,NA,NA,nUAoRJz8,2020-0188,2021-11-03,00:31:15,01:38:29,NA,incomplete,false,NA,true,7,4,NA,NA,right,NA,NA,o_c_011.jpg,i_c_008.jpg,between-small,NA,NaN,NA,right,7718.600000143051,1,1,1119.3000001907349
nUAoRJz8,NA,NA,nUAoRJz8,2020-0188,2021-11-03,00:31:15,01:38:29,NA,incomplete,false,NA,true,7,5,NA,NA,right,NA,NA,n_l_002.jpg,m_l_016.jpg,between-small,NA,NaN,NA,right,7481.400000095367,1,1,1071.2999999523163
nUAoRJz8,NA,NA,nUAoRJz8,2020-0188,2021-11-03,00:31:15,01:38:29,NA,incomplete,false,NA,true,7,6,NA,NA,left,NA,NA,n_l_002.jpg,m_l_027.jpg,within,NA,NaN,NA,right,1265.9000000953674,0,1,1729.6000001430511
nUAoRJz8,NA,NA,nUAoRJz8,2020-0188,2021-11-03,00:31:15,01:38:29,NA,incomplete,false,NA,true,7,7,NA,NA,right,NA,NA,i_c_005.jpg,i_s_013.jpg,between-small,NA,NaN,NA,left,2193.9000000953674,0,1,1489
nUAoRJz8,NA,NA,nUAoRJz8,2020-0188,2021-11-03,00:31:15,01:38:29,NA,incomplete,false,NA,true,7,8,NA,NA,right,NA,NA,i_s_011.jpg,i_c_018.jpg,within,NA,NaN,NA,left,2707.899999856949,0,1,1074.0999999046326
nUAoRJz8,NA,NA,nUAoRJz8,2020-0188,2021-11-03,00:31:15,01:38:29,NA,incomplete,false,NA,true,7,9,NA,NA,left,NA,NA,i_s_007.jpg,i_s_013.jpg,within,NA,NaN,NA,left,1330,1,1,926.6000001430511
nUAoRJz8,NA,NA,nUAoRJz8,2020-0188,2021-11-03,00:31:15,01:38:29,NA,incomplete,false,NA,true,7,10,NA,NA,right,NA,NA,m_l_016.jpg,c_1_008.jpg,between-big,NA,NaN,NA,right,2121.5,1,2,1185.8000001907349
nUAoRJz8,NA,NA,nUAoRJz8,2020-0188,2021-11-03,00:31:15,01:38:29,NA,incomplete,false,NA,true,7,11,NA,NA,right,NA,NA,c_2_015.jpg,o_s_003.jpg,between-big,NA,NaN,NA,right,2001.1000001430511,1,2,1104.7999999523163
nUAoRJz8,NA,NA,nUAoRJz8,2020-0188,2021-11-03,00:31:15,01:38:29,NA,incomplete,false,NA,true,7,12,NA,NA,right,NA,NA,a_1_010.jpg,a_2_018.jpg,between-small,NA,NaN,NA,left,1072.3999998569489,0,2,943.5
nUAoRJz8,NA,NA,nUAoRJz8,2020-0188,2021-11-03,00:31:15,01:38:29,NA,incomplete,false,NA,true,7,13,NA,NA,left,NA,NA,i_c_024.jpg,a_2_027.jpg,between-big,NA,NaN,NA,left,3123.5,1,2,833.3999998569489
nUAoRJz8,NA,NA,nUAoRJz8,2020-0188,2021-11-03,00:31:15,01:38:29,NA,incomplete,false,NA,true,7,14,NA,NA,right,NA,NA,o_c_008.jpg,i_s_011.jpg,between-small,NA,NaN,NA,left,2347,0,1,2963
nUAoRJz8,NA,NA,nUAoRJz8,2020-0188,2021-11-03,00:31:15,01:38:29,NA,incomplete,false,NA,true,7,15,NA,NA,left,NA,NA,a_1_010.jpg,m_l_017.jpg,between-big,NA,NaN,NA,left,2112.899999856949,1,2,1921.5999999046326
nUAoRJz8,NA,NA,nUAoRJz8,2020-0188,2021-11-03,00:31:15,01:38:29,NA,incomplete,false,NA,true,7,16,NA,NA,right,NA,NA,m_l_002.jpg,n_s_013.jpg,between-small,NA,NaN,NA,right,1009.9000000953674,1,1,976.4000000953674
nUAoRJz8,NA,NA,nUAoRJz8,2020-0188,2021-11-03,00:31:15,01:38:29,NA,incomplete,false,NA,true,7,17,NA,NA,right,NA,NA,o_s_003.jpg,o_c_008.jpg,within,NA,NaN,NA,right,2017.9000000953674,1,1,2064.4000000953674
nUAoRJz8,NA,NA,nUAoRJz8,2020-0188,2021-11-03,00:31:15,01:38:29,NA,incomplete,false,NA,true,7,18,NA,NA,right,NA,NA,a_2_018.jpg,a_2_027.jpg,within,NA,NaN,NA,right,1298.5,1,1,1121.2000000476837
nUAoRJz8,NA,NA,nUAoRJz8,2020-0188,2021-11-03,00:31:15,01:38:29,NA,incomplete,false,NA,true,7,19,NA,NA,right,NA,NA,n_l_016.jpg,m_l_002.jpg,within,NA,NaN,NA,left,1578.2000000476837,0,1,1425.0999999046326
nUAoRJz8,NA,NA,nUAoRJz8,2020-0188,2021-11-03,00:31:15,01:38:29,NA,incomplete,false,NA,true,7,20,NA,NA,right,NA,NA,a_2_015.jpg,i_c_005.jpg,between-big,NA,NaN,NA,right,2034.5,1,2,1377.5999999046326
nUAoRJz8,NA,NA,nUAoRJz8,2020-0188,2021-11-03,00:31:15,01:38:29,NA,incomplete,false,NA,true,7,21,NA,NA,left,NA,NA,m_l_017.jpg,n_s_013.jpg,within,NA,NaN,NA,right,1552.6000001430511,0,1,1313.7000000476837
nUAoRJz8,NA,NA,nUAoRJz8,2020-0188,2021-11-03,00:31:15,01:38:29,NA,incomplete,false,NA,true,7,22,NA,NA,right,NA,NA,m_l_019.jpg,m_s_006.jpg,within,NA,NaN,NA,left,801.5,0,0,5607.799999952316
nUAoRJz8,NA,NA,nUAoRJz8,2020-0188,2021-11-03,00:31:15,01:38:29,NA,incomplete,false,NA,true,7,23,NA,NA,left,NA,NA,a_2_003.jpg,c_1_008.jpg,within,NA,NaN,NA,right,3301.7000000476837,0,1,2753.7000000476837
nUAoRJz8,NA,NA,nUAoRJz8,2020-0188,2021-11-03,00:31:15,01:38:29,NA,incomplete,false,NA,true,7,24,NA,NA,right,NA,NA,a_2_023.jpg,c_1_023.jpg,within,NA,NaN,NA,right,1552.5,1,1,898
nUAoRJz8,NA,NA,nUAoRJz8,2020-0188,2021-11-03,00:31:15,01:38:29,NA,incomplete,false,NA,true,7,25,NA,NA,right,NA,NA,n_l_018.jpg,m_l_019.jpg,between-small,NA,NaN,NA,right,2043.7000000476837,1,1,977.6999998092651
nUAoRJz8,NA,NA,nUAoRJz8,2020-0188,2021-11-03,00:31:15,01:38:29,NA,incomplete,false,NA,true,7,26,NA,NA,left,NA,NA,o_c_011.jpg,i_c_024.jpg,within,NA,NaN,NA,right,1776.7999999523163,0,1,1296.1000001430511
nUAoRJz8,NA,NA,nUAoRJz8,2020-0188,2021-11-03,00:31:15,01:38:29,NA,incomplete,false,true,NA,8,0,size,n_l_005.jpg,right,small,large,NA,NA,NA,right,2255.39999985695,true,NA,NA,NA,NA,NA
nUAoRJz8,NA,NA,nUAoRJz8,2020-0188,2021-11-03,00:31:15,01:38:29,NA,incomplete,false,true,NA,8,1,size,m_s_018.jpg,left,small,large,NA,NA,NA,left,2027,true,NA,NA,NA,NA,NA
nUAoRJz8,NA,NA,nUAoRJz8,2020-0188,2021-11-03,00:31:15,01:38:29,NA,incomplete,false,true,NA,8,2,size,n_s_002.jpg,left,small,large,NA,NA,NA,left,951.700000047684,true,NA,NA,NA,NA,NA
nUAoRJz8,NA,NA,nUAoRJz8,2020-0188,2021-11-03,00:31:15,01:38:29,NA,incomplete,false,true,NA,8,3,size,m_l_007.jpg,left,large,small,NA,NA,NA,left,1138.59999990463,true,NA,NA,NA,NA,NA
nUAoRJz8,NA,NA,nUAoRJz8,2020-0188,2021-11-03,00:31:15,01:38:29,NA,incomplete,false,true,NA,8,4,size,m_l_012.jpg,left,large,small,NA,NA,NA,left,787.799999952316,true,NA,NA,NA,NA,NA
nUAoRJz8,NA,NA,nUAoRJz8,2020-0188,2021-11-03,00:31:15,01:38:29,NA,incomplete,false,true,NA,8,5,origin,n_s_001.jpg,right,manmade,natural,NA,NA,NA,right,1401.40000009537,true,NA,NA,NA,NA,NA
nUAoRJz8,NA,NA,nUAoRJz8,2020-0188,2021-11-03,00:31:15,01:38:29,NA,incomplete,false,true,NA,8,6,origin,n_s_016.jpg,left,natural,manmade,NA,NA,NA,left,1375.89999985695,true,NA,NA,NA,NA,NA
nUAoRJz8,NA,NA,nUAoRJz8,2020-0188,2021-11-03,00:31:15,01:38:29,NA,incomplete,false,true,NA,8,7,origin,m_s_011.jpg,right,natural,manmade,NA,NA,NA,right,1809,true,NA,NA,NA,NA,NA
nUAoRJz8,NA,NA,nUAoRJz8,2020-0188,2021-11-03,00:31:15,01:38:29,NA,incomplete,false,true,NA,8,8,origin,m_s_020.jpg,right,natural,manmade,NA,NA,NA,right,1039.70000004768,true,NA,NA,NA,NA,NA
nUAoRJz8,NA,NA,nUAoRJz8,2020-0188,2021-11-03,00:31:15,01:38:29,NA,incomplete,false,true,NA,8,9,origin,n_l_004.jpg,left,natural,manmade,NA,NA,NA,left,1727.80000019073,true,NA,NA,NA,NA,NA
nUAoRJz8,NA,NA,nUAoRJz8,2020-0188,2021-11-03,00:31:15,01:38:29,NA,incomplete,false,true,NA,8,10,syllable,c_2_026.jpg,right,2 syllables,1 syllable,NA,NA,NA,left,1864.5,false,NA,NA,NA,NA,NA
nUAoRJz8,NA,NA,nUAoRJz8,2020-0188,2021-11-03,00:31:15,01:38:29,NA,incomplete,false,true,NA,8,11,syllable,c_2_010.jpg,right,1 syllable,2 syllables,NA,NA,NA,right,1276.79999995232,true,NA,NA,NA,NA,NA
nUAoRJz8,NA,NA,nUAoRJz8,2020-0188,2021-11-03,00:31:15,01:38:29,NA,incomplete,false,true,NA,8,12,syllable,c_1_010.jpg,right,2 syllables,1 syllable,NA,NA,NA,right,1755,true,NA,NA,NA,NA,NA
nUAoRJz8,NA,NA,nUAoRJz8,2020-0188,2021-11-03,00:31:15,01:38:29,NA,incomplete,false,true,NA,8,13,syllable,a_1_014.jpg,right,2 syllables,1 syllable,NA,NA,NA,right,1035.89999985695,true,NA,NA,NA,NA,NA
nUAoRJz8,NA,NA,nUAoRJz8,2020-0188,2021-11-03,00:31:15,01:38:29,NA,incomplete,false,true,NA,8,14,syllable,c_1_011.jpg,right,1 syllable,2 syllables,NA,NA,NA,left,986.799999952316,false,NA,NA,NA,NA,NA
nUAoRJz8,NA,NA,nUAoRJz8,2020-0188,2021-11-03,00:31:15,01:38:29,NA,incomplete,false,true,NA,8,15,abstractness,c_1_025.jpg,right,abstract,concrete,NA,NA,NA,right,2041.10000014305,true,NA,NA,NA,NA,NA
nUAoRJz8,NA,NA,nUAoRJz8,2020-0188,2021-11-03,00:31:15,01:38:29,NA,incomplete,false,true,NA,8,16,abstractness,a_2_004.jpg,left,abstract,concrete,NA,NA,NA,left,1337.89999985695,true,NA,NA,NA,NA,NA
nUAoRJz8,NA,NA,nUAoRJz8,2020-0188,2021-11-03,00:31:15,01:38:29,NA,incomplete,false,true,NA,8,17,abstractness,c_2_001.jpg,left,concrete,abstract,NA,NA,NA,left,1256.10000014305,true,NA,NA,NA,NA,NA
nUAoRJz8,NA,NA,nUAoRJz8,2020-0188,2021-11-03,00:31:15,01:38:29,NA,incomplete,false,true,NA,8,18,abstractness,c_1_024.jpg,right,abstract,concrete,NA,NA,NA,right,1428.59999990463,true,NA,NA,NA,NA,NA
nUAoRJz8,NA,NA,nUAoRJz8,2020-0188,2021-11-03,00:31:15,01:38:29,NA,incomplete,false,true,NA,8,19,abstractness,a_1_020.jpg,right,concrete,abstract,NA,NA,NA,right,871.600000143051,true,NA,NA,NA,NA,NA
nUAoRJz8,NA,NA,nUAoRJz8,2020-0188,2021-11-03,00:31:15,01:38:29,NA,incomplete,false,true,NA,8,20,building,i_s_009.jpg,right,cottage,skyscraper,NA,NA,NA,right,1380.79999995232,true,NA,NA,NA,NA,NA
nUAoRJz8,NA,NA,nUAoRJz8,2020-0188,2021-11-03,00:31:15,01:38:29,NA,incomplete,false,true,NA,8,21,building,i_s_015.jpg,right,cottage,skyscraper,NA,NA,NA,right,1250.40000009537,true,NA,NA,NA,NA,NA
nUAoRJz8,NA,NA,nUAoRJz8,2020-0188,2021-11-03,00:31:15,01:38:29,NA,incomplete,false,true,NA,8,22,building,o_c_007.jpg,right,skyscraper,cottage,NA,NA,NA,right,1108.59999990463,true,NA,NA,NA,NA,NA
nUAoRJz8,NA,NA,nUAoRJz8,2020-0188,2021-11-03,00:31:15,01:38:29,NA,incomplete,false,true,NA,8,23,building,o_c_019.jpg,right,skyscraper,cottage,NA,NA,NA,right,1694.39999985695,true,NA,NA,NA,NA,NA
nUAoRJz8,NA,NA,nUAoRJz8,2020-0188,2021-11-03,00:31:15,01:38:29,NA,incomplete,false,true,NA,8,24,building,o_s_005.jpg,left,skyscraper,cottage,NA,NA,NA,left,698.799999952316,true,NA,NA,NA,NA,NA
nUAoRJz8,NA,NA,nUAoRJz8,2020-0188,2021-11-03,00:31:15,01:38:29,NA,incomplete,false,true,NA,8,25,location,o_s_019.jpg,left,outdoor,indoor,NA,NA,NA,left,1578.79999995232,true,NA,NA,NA,NA,NA
nUAoRJz8,NA,NA,nUAoRJz8,2020-0188,2021-11-03,00:31:15,01:38:29,NA,incomplete,false,true,NA,8,26,location,o_s_015.jpg,left,outdoor,indoor,NA,NA,NA,left,1237.40000009537,true,NA,NA,NA,NA,NA
nUAoRJz8,NA,NA,nUAoRJz8,2020-0188,2021-11-03,00:31:15,01:38:29,NA,incomplete,false,true,NA,8,27,location,o_c_017.jpg,right,indoor,outdoor,NA,NA,NA,right,1579.40000009537,true,NA,NA,NA,NA,NA
nUAoRJz8,NA,NA,nUAoRJz8,2020-0188,2021-11-03,00:31:15,01:38:29,NA,incomplete,false,true,NA,8,28,location,i_c_013.jpg,right,outdoor,indoor,NA,NA,NA,right,1382.5,true,NA,NA,NA,NA,NA
nUAoRJz8,NA,NA,nUAoRJz8,2020-0188,2021-11-03,00:31:15,01:38:29,NA,incomplete,false,true,NA,8,29,location,i_s_017.jpg,left,indoor,outdoor,NA,NA,NA,left,1145.20000004768,true,NA,NA,NA,NA,NA
nUAoRJz8,NA,NA,nUAoRJz8,2020-0188,2021-11-03,00:31:15,01:38:29,NA,incomplete,false,NA,true,8,0,NA,NA,left,NA,NA,m_l_012.jpg,m_s_011.jpg,between-small,NA,NaN,NA,right,5631.299999952316,0,1,1230.7999999523163
nUAoRJz8,NA,NA,nUAoRJz8,2020-0188,2021-11-03,00:31:15,01:38:29,NA,incomplete,false,NA,true,8,1,NA,NA,right,NA,NA,o_c_019.jpg,i_s_009.jpg,within,NA,NaN,NA,right,1569.8999998569489,1,1,733.1000001430511
nUAoRJz8,NA,NA,nUAoRJz8,2020-0188,2021-11-03,00:31:15,01:38:29,NA,incomplete,false,NA,true,8,2,NA,NA,left,NA,NA,c_1_024.jpg,i_s_015.jpg,between-big,NA,NaN,NA,left,2442.7000000476837,1,2,2096.5
nUAoRJz8,NA,NA,nUAoRJz8,2020-0188,2021-11-03,00:31:15,01:38:29,NA,incomplete,false,NA,true,8,3,NA,NA,left,NA,NA,n_l_005.jpg,m_l_007.jpg,within,NA,NaN,NA,left,1450.1000001430511,1,1,702.6999998092651
nUAoRJz8,NA,NA,nUAoRJz8,2020-0188,2021-11-03,00:31:15,01:38:29,NA,incomplete,false,NA,true,8,4,NA,NA,right,NA,NA,o_s_019.jpg,o_c_007.jpg,between-small,NA,NaN,NA,left,1603.6999998092651,0,1,769.1999998092651
nUAoRJz8,NA,NA,nUAoRJz8,2020-0188,2021-11-03,00:31:15,01:38:29,NA,incomplete,false,NA,true,8,5,NA,NA,right,NA,NA,c_1_010.jpg,n_l_004.jpg,between-big,NA,NaN,NA,right,1827.2999999523163,1,2,1055
nUAoRJz8,NA,NA,nUAoRJz8,2020-0188,2021-11-03,00:31:15,01:38:29,NA,incomplete,false,NA,true,8,6,NA,NA,left,NA,NA,o_s_019.jpg,i_c_013.jpg,within,NA,NaN,NA,right,1697.8000001907349,0,1,2667.7000000476837
nUAoRJz8,NA,NA,nUAoRJz8,2020-0188,2021-11-03,00:31:15,01:38:29,NA,incomplete,false,NA,true,8,7,NA,NA,left,NA,NA,o_s_005.jpg,o_c_017.jpg,between-small,NA,NaN,NA,left,1729.2000000476837,1,1,974.7999999523163
nUAoRJz8,NA,NA,nUAoRJz8,2020-0188,2021-11-03,00:31:15,01:38:29,NA,incomplete,false,NA,true,8,8,NA,NA,right,NA,NA,c_2_001.jpg,c_1_011.jpg,between-small,NA,NaN,NA,right,1672.4000000953674,1,1,1233.1999998092651
nUAoRJz8,NA,NA,nUAoRJz8,2020-0188,2021-11-03,00:31:15,01:38:29,NA,incomplete,false,NA,true,8,9,NA,NA,right,NA,NA,o_s_015.jpg,o_c_019.jpg,between-small,NA,NaN,NA,left,673.1000001430511,0,1,1089.2000000476837
nUAoRJz8,NA,NA,nUAoRJz8,2020-0188,2021-11-03,00:31:15,01:38:29,NA,incomplete,false,NA,true,8,10,NA,NA,right,NA,NA,c_1_011.jpg,c_2_010.jpg,within,NA,NaN,NA,right,2956.5,1,1,1394
nUAoRJz8,NA,NA,nUAoRJz8,2020-0188,2021-11-03,00:31:15,01:38:29,NA,incomplete,false,NA,true,8,11,NA,NA,right,NA,NA,c_1_024.jpg,c_1_025.jpg,within,NA,NaN,NA,left,1425.7000000476837,0,2,5261.200000047684
nUAoRJz8,NA,NA,nUAoRJz8,2020-0188,2021-11-03,00:31:15,01:38:29,NA,incomplete,false,NA,true,8,12,NA,NA,right,NA,NA,i_s_017.jpg,o_s_015.jpg,within,NA,NaN,NA,right,4759.099999904633,1,2,2339.0999999046326
nUAoRJz8,NA,NA,nUAoRJz8,2020-0188,2021-11-03,00:31:15,01:38:29,NA,incomplete,false,NA,true,8,13,NA,NA,left,NA,NA,c_2_026.jpg,a_1_014.jpg,within,NA,NaN,NA,left,1652.2999999523163,1,2,1153
nUAoRJz8,NA,NA,nUAoRJz8,2020-0188,2021-11-03,00:31:15,01:38:29,NA,incomplete,false,NA,true,8,14,NA,NA,right,NA,NA,a_1_020.jpg,a_2_004.jpg,within,NA,NaN,NA,right,2594.5,1,1,976.9000000953674
nUAoRJz8,NA,NA,nUAoRJz8,2020-0188,2021-11-03,00:31:15,01:38:29,NA,incomplete,false,NA,true,8,15,NA,NA,right,NA,NA,m_l_012.jpg,m_s_018.jpg,within,NA,NaN,NA,right,1232.5999999046326,1,1,2081.4000000953674
nUAoRJz8,NA,NA,nUAoRJz8,2020-0188,2021-11-03,00:31:15,01:38:29,NA,incomplete,false,NA,true,8,16,NA,NA,right,NA,NA,o_s_005.jpg,i_s_015.jpg,within,NA,NaN,NA,right,1201.7999999523163,1,1,1042.1000001430511
nUAoRJz8,NA,NA,nUAoRJz8,2020-0188,2021-11-03,00:31:15,01:38:29,NA,incomplete,false,NA,true,8,17,NA,NA,left,NA,NA,n_s_002.jpg,n_s_001.jpg,between-small,NA,NaN,NA,right,1379.2000000476837,0,0,3177.7000000476837
nUAoRJz8,NA,NA,nUAoRJz8,2020-0188,2021-11-03,00:31:15,01:38:29,NA,incomplete,false,NA,true,8,18,NA,NA,right,NA,NA,n_s_016.jpg,m_l_007.jpg,between-small,NA,NaN,NA,left,851.1999998092651,0,0,1137.2000000476837
nUAoRJz8,NA,NA,nUAoRJz8,2020-0188,2021-11-03,00:31:15,01:38:29,NA,incomplete,false,NA,true,8,19,NA,NA,right,NA,NA,o_c_007.jpg,a_1_020.jpg,between-big,NA,NaN,NA,right,3349.5999999046326,1,1,880.1000001430511
nUAoRJz8,NA,NA,nUAoRJz8,2020-0188,2021-11-03,00:31:15,01:38:29,NA,incomplete,false,NA,true,8,20,NA,NA,left,NA,NA,n_s_016.jpg,n_l_004.jpg,within,NA,NaN,NA,left,656.9000000953674,1,1,1457.7000000476837
nUAoRJz8,NA,NA,nUAoRJz8,2020-0188,2021-11-03,00:31:15,01:38:29,NA,incomplete,false,NA,true,8,21,NA,NA,left,NA,NA,c_1_010.jpg,c_1_025.jpg,between-small,NA,NaN,NA,left,1344.5,1,1,2595.899999856949
nUAoRJz8,NA,NA,nUAoRJz8,2020-0188,2021-11-03,00:31:15,01:38:29,NA,incomplete,false,NA,true,8,22,NA,NA,left,NA,NA,c_2_001.jpg,i_s_009.jpg,between-big,NA,NaN,NA,left,1089.3000001907349,1,2,1456.2000000476837
nUAoRJz8,NA,NA,nUAoRJz8,2020-0188,2021-11-03,00:31:15,01:38:29,NA,incomplete,false,NA,true,8,23,NA,NA,left,NA,NA,n_s_001.jpg,m_s_020.jpg,within,NA,NaN,NA,left,5552,1,1,1216.8999998569489
nUAoRJz8,NA,NA,nUAoRJz8,2020-0188,2021-11-03,00:31:15,01:38:29,NA,incomplete,false,NA,true,8,24,NA,NA,left,NA,NA,m_s_011.jpg,c_2_026.jpg,between-big,NA,NaN,NA,left,2450.2000000476837,1,1,862.3999998569489
nUAoRJz8,NA,NA,nUAoRJz8,2020-0188,2021-11-03,00:31:15,01:38:29,NA,incomplete,false,NA,true,8,25,NA,NA,left,NA,NA,a_1_014.jpg,a_2_004.jpg,between-small,NA,NaN,NA,right,1729.5,0,2,864.5999999046326
nUAoRJz8,NA,NA,nUAoRJz8,2020-0188,2021-11-03,00:31:15,01:38:29,NA,incomplete,false,NA,true,8,26,NA,NA,right,NA,NA,c_2_010.jpg,m_s_020.jpg,between-big,NA,NaN,NA,right,802.2999999523163,1,2,1409.3000001907349
nUAoRJz8,NA,NA,nUAoRJz8,2020-0188,2021-11-03,00:31:15,01:38:29,NA,incomplete,false,true,NA,9,0,location,i_c_016.jpg,left,indoor,outdoor,NA,NA,NA,left,2183.79999995232,true,NA,NA,NA,NA,NA
nUAoRJz8,NA,NA,nUAoRJz8,2020-0188,2021-11-03,00:31:15,01:38:29,NA,incomplete,false,true,NA,9,1,location,o_s_024.jpg,right,indoor,outdoor,NA,NA,NA,right,1519,true,NA,NA,NA,NA,NA
