workerId,hitId,assignmentId,subject,studyid,exp_date,exp_start,exp_end,time_start,time_end,practice,encoding,memory,block,trial,event,stim,answer,label_left,label_right,left_image,right_image,condition,response,response_time,response_acc,order_response,order_response_time,order_acc,distance_response,distance_response_time
rOnjndhp,NA,NA,rOnjndhp,2020-0188,2021-09-30,17:38:35,18:59:54,NA,incomplete,true,true,NA,0,0,syllable,c_2_022.jpg,right,2 syllables,1 syllable,NA,NA,NA,left,1681,false,NA,NA,NA,NA,NA
rOnjndhp,NA,NA,rOnjndhp,2020-0188,2021-09-30,17:38:35,18:59:54,NA,incomplete,true,true,NA,0,1,syllable,a_2_005.jpg,right,1 syllable,2 syllables,NA,NA,NA,right,2737,true,NA,NA,NA,NA,NA
rOnjndhp,NA,NA,rOnjndhp,2020-0188,2021-09-30,17:38:35,18:59:54,NA,incomplete,true,true,NA,0,2,syllable,a_1_008.jpg,right,1 syllable,2 syllables,NA,NA,NA,left,1590.99999999997,false,NA,NA,NA,NA,NA
rOnjndhp,NA,NA,rOnjndhp,2020-0188,2021-09-30,17:38:35,18:59:54,NA,incomplete,true,true,NA,0,3,syllable,c_2_026.jpg,right,2 syllables,1 syllable,NA,NA,NA,left,1281,false,NA,NA,NA,NA,NA
rOnjndhp,NA,NA,rOnjndhp,2020-0188,2021-09-30,17:38:35,18:59:54,NA,incomplete,true,true,NA,0,4,syllable,a_1_017.jpg,right,1 syllable,2 syllables,NA,NA,NA,left,1548.00000000003,false,NA,NA,NA,NA,NA
rOnjndhp,NA,NA,rOnjndhp,2020-0188,2021-09-30,17:38:35,18:59:54,NA,incomplete,true,true,NA,0,5,abstractness,c_2_004.jpg,left,concrete,abstract,NA,NA,NA,left,1782.00000000003,true,NA,NA,NA,NA,NA
rOnjndhp,NA,NA,rOnjndhp,2020-0188,2021-09-30,17:38:35,18:59:54,NA,incomplete,true,true,NA,0,6,abstractness,c_2_010.jpg,right,abstract,concrete,NA,NA,NA,right,2086,true,NA,NA,NA,NA,NA
rOnjndhp,NA,NA,rOnjndhp,2020-0188,2021-09-30,17:38:35,18:59:54,NA,incomplete,true,true,NA,0,7,abstractness,c_1_008.jpg,right,abstract,concrete,NA,NA,NA,right,1874,true,NA,NA,NA,NA,NA
rOnjndhp,NA,NA,rOnjndhp,2020-0188,2021-09-30,17:38:35,18:59:54,NA,incomplete,true,true,NA,0,8,abstractness,a_2_008.jpg,right,concrete,abstract,NA,NA,NA,right,2903,true,NA,NA,NA,NA,NA
rOnjndhp,NA,NA,rOnjndhp,2020-0188,2021-09-30,17:38:35,18:59:54,NA,incomplete,true,true,NA,0,9,abstractness,c_1_013.jpg,right,abstract,concrete,NA,NA,NA,right,1234.99999999997,true,NA,NA,NA,NA,NA
rOnjndhp,NA,NA,rOnjndhp,2020-0188,2021-09-30,17:38:35,18:59:54,NA,incomplete,true,true,NA,0,10,building,i_s_002.jpg,left,skyscraper,cottage,NA,NA,NA,left,1439,true,NA,NA,NA,NA,NA
rOnjndhp,NA,NA,rOnjndhp,2020-0188,2021-09-30,17:38:35,18:59:54,NA,incomplete,true,true,NA,0,11,building,o_c_012.jpg,left,cottage,skyscraper,NA,NA,NA,left,1336,true,NA,NA,NA,NA,NA
rOnjndhp,NA,NA,rOnjndhp,2020-0188,2021-09-30,17:38:35,18:59:54,NA,incomplete,true,true,NA,0,12,building,o_s_007.jpg,right,cottage,skyscraper,NA,NA,NA,right,943.000000000029,true,NA,NA,NA,NA,NA
rOnjndhp,NA,NA,rOnjndhp,2020-0188,2021-09-30,17:38:35,18:59:54,NA,incomplete,true,true,NA,0,13,building,o_s_013.jpg,right,cottage,skyscraper,NA,NA,NA,right,1193,true,NA,NA,NA,NA,NA
rOnjndhp,NA,NA,rOnjndhp,2020-0188,2021-09-30,17:38:35,18:59:54,NA,incomplete,true,true,NA,0,14,building,i_c_027.jpg,right,skyscraper,cottage,NA,NA,NA,left,903,false,NA,NA,NA,NA,NA
rOnjndhp,NA,NA,rOnjndhp,2020-0188,2021-09-30,17:38:35,18:59:54,NA,incomplete,true,true,NA,0,15,location,o_c_025.jpg,left,outdoor,indoor,NA,NA,NA,left,1630,true,NA,NA,NA,NA,NA
rOnjndhp,NA,NA,rOnjndhp,2020-0188,2021-09-30,17:38:35,18:59:54,NA,incomplete,true,true,NA,0,16,location,i_s_007.jpg,right,outdoor,indoor,NA,NA,NA,right,935,true,NA,NA,NA,NA,NA
rOnjndhp,NA,NA,rOnjndhp,2020-0188,2021-09-30,17:38:35,18:59:54,NA,incomplete,true,true,NA,0,17,location,i_s_019.jpg,left,indoor,outdoor,NA,NA,NA,left,1225.00000000003,true,NA,NA,NA,NA,NA
rOnjndhp,NA,NA,rOnjndhp,2020-0188,2021-09-30,17:38:35,18:59:54,NA,incomplete,true,true,NA,0,18,location,o_c_017.jpg,right,indoor,outdoor,NA,NA,NA,right,1141.99999999997,true,NA,NA,NA,NA,NA
rOnjndhp,NA,NA,rOnjndhp,2020-0188,2021-09-30,17:38:35,18:59:54,NA,incomplete,true,true,NA,0,19,location,i_s_018.jpg,left,indoor,outdoor,NA,NA,NA,left,1123,true,NA,NA,NA,NA,NA
rOnjndhp,NA,NA,rOnjndhp,2020-0188,2021-09-30,17:38:35,18:59:54,NA,incomplete,true,true,NA,0,20,origin,n_s_005.jpg,left,natural,manmade,NA,NA,NA,left,1286,true,NA,NA,NA,NA,NA
rOnjndhp,NA,NA,rOnjndhp,2020-0188,2021-09-30,17:38:35,18:59:54,NA,incomplete,true,true,NA,0,21,origin,n_s_014.jpg,right,manmade,natural,NA,NA,NA,right,1401,true,NA,NA,NA,NA,NA
rOnjndhp,NA,NA,rOnjndhp,2020-0188,2021-09-30,17:38:35,18:59:54,NA,incomplete,true,true,NA,0,22,origin,n_s_002.jpg,right,manmade,natural,NA,NA,NA,right,1019.99999999994,true,NA,NA,NA,NA,NA
rOnjndhp,NA,NA,rOnjndhp,2020-0188,2021-09-30,17:38:35,18:59:54,NA,incomplete,true,true,NA,0,23,origin,m_l_023.jpg,left,manmade,natural,NA,NA,NA,left,1024,true,NA,NA,NA,NA,NA
rOnjndhp,NA,NA,rOnjndhp,2020-0188,2021-09-30,17:38:35,18:59:54,NA,incomplete,true,true,NA,0,24,origin,m_l_012.jpg,left,manmade,natural,NA,NA,NA,left,1478,true,NA,NA,NA,NA,NA
rOnjndhp,NA,NA,rOnjndhp,2020-0188,2021-09-30,17:38:35,18:59:54,NA,incomplete,true,true,NA,0,25,size,n_l_013.jpg,left,large,small,NA,NA,NA,left,1422,true,NA,NA,NA,NA,NA
rOnjndhp,NA,NA,rOnjndhp,2020-0188,2021-09-30,17:38:35,18:59:54,NA,incomplete,true,true,NA,0,26,size,n_s_022.jpg,left,small,large,NA,NA,NA,left,1443,true,NA,NA,NA,NA,NA
rOnjndhp,NA,NA,rOnjndhp,2020-0188,2021-09-30,17:38:35,18:59:54,NA,incomplete,true,true,NA,0,27,size,m_s_023.jpg,right,large,small,NA,NA,NA,right,1381.00000000006,true,NA,NA,NA,NA,NA
rOnjndhp,NA,NA,rOnjndhp,2020-0188,2021-09-30,17:38:35,18:59:54,NA,incomplete,true,true,NA,0,28,size,n_s_021.jpg,right,large,small,NA,NA,NA,right,1715.00000000006,true,NA,NA,NA,NA,NA
rOnjndhp,NA,NA,rOnjndhp,2020-0188,2021-09-30,17:38:35,18:59:54,NA,incomplete,true,true,NA,0,29,size,n_l_009.jpg,left,large,small,NA,NA,NA,left,1198,true,NA,NA,NA,NA,NA
rOnjndhp,NA,NA,rOnjndhp,2020-0188,2021-09-30,17:38:35,18:59:54,NA,incomplete,true,NA,true,0,0,NA,NA,right,NA,NA,i_s_002.jpg,c_1_008.jpg,between-big,NA,NaN,NA,right,3546,1,3,7606
rOnjndhp,NA,NA,rOnjndhp,2020-0188,2021-09-30,17:38:35,18:59:54,NA,incomplete,true,NA,true,0,1,NA,NA,right,NA,NA,a_2_008.jpg,c_2_004.jpg,within,NA,NaN,NA,right,2741.000000000058,1,1,5116.999999999942
rOnjndhp,NA,NA,rOnjndhp,2020-0188,2021-09-30,17:38:35,18:59:54,NA,incomplete,true,NA,true,0,2,NA,NA,right,NA,NA,c_2_026.jpg,c_2_022.jpg,within,NA,NaN,NA,right,4691,1,1,4276.999999999942
rOnjndhp,NA,NA,rOnjndhp,2020-0188,2021-09-30,17:38:35,18:59:54,NA,incomplete,true,NA,true,0,3,NA,NA,right,NA,NA,n_s_022.jpg,m_l_023.jpg,between-small,NA,NaN,NA,right,2201,1,1,2120
rOnjndhp,NA,NA,rOnjndhp,2020-0188,2021-09-30,17:38:35,18:59:54,NA,incomplete,true,NA,true,0,4,NA,NA,right,NA,NA,o_c_012.jpg,a_2_008.jpg,between-big,NA,NaN,NA,right,3004,1,2,2792.999999999942
rOnjndhp,NA,NA,rOnjndhp,2020-0188,2021-09-30,17:38:35,18:59:54,NA,incomplete,true,NA,true,0,5,NA,NA,right,NA,NA,i_s_018.jpg,i_s_007.jpg,within,NA,NaN,NA,right,3490,1,0,2290
rOnjndhp,NA,NA,rOnjndhp,2020-0188,2021-09-30,17:38:35,18:59:54,NA,incomplete,true,NA,true,0,6,NA,NA,left,NA,NA,i_s_002.jpg,o_s_013.jpg,within,NA,NaN,NA,left,2274,1,1,1476
rOnjndhp,NA,NA,rOnjndhp,2020-0188,2021-09-30,17:38:35,18:59:54,NA,incomplete,true,NA,true,0,7,NA,NA,left,NA,NA,c_2_026.jpg,c_2_010.jpg,between-small,NA,NaN,NA,right,6374,0,0,1302
rOnjndhp,NA,NA,rOnjndhp,2020-0188,2021-09-30,17:38:35,18:59:54,NA,incomplete,true,NA,true,0,8,NA,NA,right,NA,NA,n_l_009.jpg,n_s_022.jpg,within,NA,NaN,NA,right,8186.999999999942,1,0,2731
rOnjndhp,NA,NA,rOnjndhp,2020-0188,2021-09-30,17:38:35,18:59:54,NA,incomplete,true,NA,true,0,9,NA,NA,right,NA,NA,c_2_004.jpg,a_1_008.jpg,between-small,NA,NaN,NA,right,2250,1,1,2449
rOnjndhp,NA,NA,rOnjndhp,2020-0188,2021-09-30,17:38:35,18:59:54,NA,incomplete,true,NA,true,0,10,NA,NA,right,NA,NA,c_1_008.jpg,a_1_017.jpg,between-small,NA,NaN,NA,right,5350.000000000058,1,0,2719
rOnjndhp,NA,NA,rOnjndhp,2020-0188,2021-09-30,17:38:35,18:59:54,NA,incomplete,true,NA,true,0,11,NA,NA,right,NA,NA,o_c_025.jpg,o_s_007.jpg,between-small,NA,NaN,NA,right,4577.999999999942,1,0,2630
rOnjndhp,NA,NA,rOnjndhp,2020-0188,2021-09-30,17:38:35,18:59:54,NA,incomplete,true,NA,true,0,12,NA,NA,left,NA,NA,i_c_027.jpg,i_s_019.jpg,between-small,NA,NaN,NA,left,4061,1,1,2046
rOnjndhp,NA,NA,rOnjndhp,2020-0188,2021-09-30,17:38:35,18:59:54,NA,incomplete,true,NA,true,0,13,NA,NA,right,NA,NA,m_s_023.jpg,m_l_012.jpg,between-small,NA,NaN,NA,right,2414.999999999942,1,1,3618
rOnjndhp,NA,NA,rOnjndhp,2020-0188,2021-09-30,17:38:35,18:59:54,NA,incomplete,true,NA,true,0,14,NA,NA,left,NA,NA,c_1_013.jpg,o_s_007.jpg,between-big,NA,NaN,NA,left,2411,1,3,2003
rOnjndhp,NA,NA,rOnjndhp,2020-0188,2021-09-30,17:38:35,18:59:54,NA,incomplete,true,NA,true,0,15,NA,NA,left,NA,NA,n_s_005.jpg,m_l_023.jpg,within,NA,NaN,NA,left,3534.000000000058,1,1,1254
rOnjndhp,NA,NA,rOnjndhp,2020-0188,2021-09-30,17:38:35,18:59:54,NA,incomplete,true,NA,true,0,16,NA,NA,right,NA,NA,m_l_012.jpg,n_s_014.jpg,within,NA,NaN,NA,right,6997,1,1,2668.000000000058
rOnjndhp,NA,NA,rOnjndhp,2020-0188,2021-09-30,17:38:35,18:59:54,NA,incomplete,true,NA,true,0,17,NA,NA,right,NA,NA,n_l_013.jpg,n_s_002.jpg,between-small,NA,NaN,NA,left,2917.999999999942,0,1,2392
rOnjndhp,NA,NA,rOnjndhp,2020-0188,2021-09-30,17:38:35,18:59:54,NA,incomplete,true,NA,true,0,18,NA,NA,right,NA,NA,n_s_005.jpg,i_s_019.jpg,between-big,NA,NaN,NA,right,1399,1,2,4621.000000000058
rOnjndhp,NA,NA,rOnjndhp,2020-0188,2021-09-30,17:38:35,18:59:54,NA,incomplete,true,NA,true,0,19,NA,NA,left,NA,NA,o_s_013.jpg,i_s_007.jpg,between-small,NA,NaN,NA,right,1950.0000000000582,0,1,3507.999999999942
rOnjndhp,NA,NA,rOnjndhp,2020-0188,2021-09-30,17:38:35,18:59:54,NA,incomplete,true,NA,true,0,20,NA,NA,left,NA,NA,o_c_012.jpg,i_c_027.jpg,within,NA,NaN,NA,right,3962,0,1,3668
rOnjndhp,NA,NA,rOnjndhp,2020-0188,2021-09-30,17:38:35,18:59:54,NA,incomplete,true,NA,true,0,21,NA,NA,right,NA,NA,c_1_013.jpg,c_2_010.jpg,within,NA,NaN,NA,right,2327,1,0,2606
rOnjndhp,NA,NA,rOnjndhp,2020-0188,2021-09-30,17:38:35,18:59:54,NA,incomplete,true,NA,true,0,22,NA,NA,right,NA,NA,n_s_014.jpg,o_c_017.jpg,between-big,NA,NaN,NA,right,2610.9999999998836,1,2,1091.9999999998836
rOnjndhp,NA,NA,rOnjndhp,2020-0188,2021-09-30,17:38:35,18:59:54,NA,incomplete,true,NA,true,0,23,NA,NA,left,NA,NA,a_2_005.jpg,a_1_017.jpg,within,NA,NaN,NA,right,2470,0,1,1242
rOnjndhp,NA,NA,rOnjndhp,2020-0188,2021-09-30,17:38:35,18:59:54,NA,incomplete,true,NA,true,0,24,NA,NA,left,NA,NA,o_c_025.jpg,o_c_017.jpg,within,NA,NaN,NA,left,5224,1,1,3786
rOnjndhp,NA,NA,rOnjndhp,2020-0188,2021-09-30,17:38:35,18:59:54,NA,incomplete,true,NA,true,0,25,NA,NA,right,NA,NA,n_s_002.jpg,i_s_018.jpg,between-big,NA,NaN,NA,right,1673,1,2,1794
rOnjndhp,NA,NA,rOnjndhp,2020-0188,2021-09-30,17:38:35,18:59:54,NA,incomplete,true,NA,true,0,26,NA,NA,left,NA,NA,n_l_013.jpg,n_s_021.jpg,within,NA,NaN,NA,left,2578,1,0,5435
rOnjndhp,NA,NA,rOnjndhp,2020-0188,2021-09-30,17:38:35,18:59:54,NA,incomplete,false,true,NA,1,0,syllable,a_1_026.jpg,right,1 syllable,2 syllables,NA,NA,NA,left,2289,false,NA,NA,NA,NA,NA
rOnjndhp,NA,NA,rOnjndhp,2020-0188,2021-09-30,17:38:35,18:59:54,NA,incomplete,false,true,NA,1,1,syllable,a_2_023.jpg,right,2 syllables,1 syllable,NA,NA,NA,left,1134,false,NA,NA,NA,NA,NA
rOnjndhp,NA,NA,rOnjndhp,2020-0188,2021-09-30,17:38:35,18:59:54,NA,incomplete,false,true,NA,1,2,syllable,c_2_014.jpg,right,1 syllable,2 syllables,NA,NA,NA,right,1755,true,NA,NA,NA,NA,NA
rOnjndhp,NA,NA,rOnjndhp,2020-0188,2021-09-30,17:38:35,18:59:54,NA,incomplete,false,true,NA,1,3,syllable,a_1_022.jpg,right,1 syllable,2 syllables,NA,NA,NA,left,772,false,NA,NA,NA,NA,NA
rOnjndhp,NA,NA,rOnjndhp,2020-0188,2021-09-30,17:38:35,18:59:54,NA,incomplete,false,true,NA,1,4,syllable,c_1_002.jpg,right,1 syllable,2 syllables,NA,NA,NA,left,1007,false,NA,NA,NA,NA,NA
rOnjndhp,NA,NA,rOnjndhp,2020-0188,2021-09-30,17:38:35,18:59:54,NA,incomplete,false,true,NA,1,5,abstractness,a_2_002.jpg,left,abstract,concrete,NA,NA,NA,left,1290,true,NA,NA,NA,NA,NA
rOnjndhp,NA,NA,rOnjndhp,2020-0188,2021-09-30,17:38:35,18:59:54,NA,incomplete,false,true,NA,1,6,abstractness,c_1_005.jpg,left,concrete,abstract,NA,NA,NA,left,1541,true,NA,NA,NA,NA,NA
rOnjndhp,NA,NA,rOnjndhp,2020-0188,2021-09-30,17:38:35,18:59:54,NA,incomplete,false,true,NA,1,7,abstractness,a_2_010.jpg,left,abstract,concrete,NA,NA,NA,left,1802,true,NA,NA,NA,NA,NA
rOnjndhp,NA,NA,rOnjndhp,2020-0188,2021-09-30,17:38:35,18:59:54,NA,incomplete,false,true,NA,1,8,abstractness,c_1_001.jpg,left,concrete,abstract,NA,NA,NA,left,1328,true,NA,NA,NA,NA,NA
rOnjndhp,NA,NA,rOnjndhp,2020-0188,2021-09-30,17:38:35,18:59:54,NA,incomplete,false,true,NA,1,9,abstractness,a_2_018.jpg,left,abstract,concrete,NA,NA,NA,left,1052,true,NA,NA,NA,NA,NA
rOnjndhp,NA,NA,rOnjndhp,2020-0188,2021-09-30,17:38:35,18:59:54,NA,incomplete,false,true,NA,1,10,location,o_c_005.jpg,left,outdoor,indoor,NA,NA,NA,left,1452,true,NA,NA,NA,NA,NA
rOnjndhp,NA,NA,rOnjndhp,2020-0188,2021-09-30,17:38:35,18:59:54,NA,incomplete,false,true,NA,1,11,location,o_c_022.jpg,left,outdoor,indoor,NA,NA,NA,left,1384,true,NA,NA,NA,NA,NA
rOnjndhp,NA,NA,rOnjndhp,2020-0188,2021-09-30,17:38:35,18:59:54,NA,incomplete,false,true,NA,1,12,location,i_s_011.jpg,right,outdoor,indoor,NA,NA,NA,right,1803,true,NA,NA,NA,NA,NA
rOnjndhp,NA,NA,rOnjndhp,2020-0188,2021-09-30,17:38:35,18:59:54,NA,incomplete,false,true,NA,1,13,location,o_s_018.jpg,left,outdoor,indoor,NA,NA,NA,left,914,true,NA,NA,NA,NA,NA
rOnjndhp,NA,NA,rOnjndhp,2020-0188,2021-09-30,17:38:35,18:59:54,NA,incomplete,false,true,NA,1,14,location,i_c_015.jpg,right,outdoor,indoor,NA,NA,NA,right,992,true,NA,NA,NA,NA,NA
rOnjndhp,NA,NA,rOnjndhp,2020-0188,2021-09-30,17:38:35,18:59:54,NA,incomplete,false,true,NA,1,15,building,o_c_004.jpg,left,cottage,skyscraper,NA,NA,NA,left,1051,true,NA,NA,NA,NA,NA
rOnjndhp,NA,NA,rOnjndhp,2020-0188,2021-09-30,17:38:35,18:59:54,NA,incomplete,false,true,NA,1,16,building,o_c_011.jpg,right,skyscraper,cottage,NA,NA,NA,right,1639,true,NA,NA,NA,NA,NA
rOnjndhp,NA,NA,rOnjndhp,2020-0188,2021-09-30,17:38:35,18:59:54,NA,incomplete,false,true,NA,1,17,building,o_s_024.jpg,right,cottage,skyscraper,NA,NA,NA,left,1161,false,NA,NA,NA,NA,NA
rOnjndhp,NA,NA,rOnjndhp,2020-0188,2021-09-30,17:38:35,18:59:54,NA,incomplete,false,true,NA,1,18,building,o_c_002.jpg,left,cottage,skyscraper,NA,NA,NA,left,2221,true,NA,NA,NA,NA,NA
rOnjndhp,NA,NA,rOnjndhp,2020-0188,2021-09-30,17:38:35,18:59:54,NA,incomplete,false,true,NA,1,19,building,o_c_019.jpg,left,cottage,skyscraper,NA,NA,NA,left,890,true,NA,NA,NA,NA,NA
rOnjndhp,NA,NA,rOnjndhp,2020-0188,2021-09-30,17:38:35,18:59:54,NA,incomplete,false,true,NA,1,20,origin,m_s_002.jpg,right,natural,manmade,NA,NA,NA,right,1214,true,NA,NA,NA,NA,NA
rOnjndhp,NA,NA,rOnjndhp,2020-0188,2021-09-30,17:38:35,18:59:54,NA,incomplete,false,true,NA,1,21,origin,n_l_004.jpg,right,manmade,natural,NA,NA,NA,right,1428,true,NA,NA,NA,NA,NA
rOnjndhp,NA,NA,rOnjndhp,2020-0188,2021-09-30,17:38:35,18:59:54,NA,incomplete,false,true,NA,1,22,origin,n_s_016.jpg,right,manmade,natural,NA,NA,NA,right,2560,true,NA,NA,NA,NA,NA
rOnjndhp,NA,NA,rOnjndhp,2020-0188,2021-09-30,17:38:35,18:59:54,NA,incomplete,false,true,NA,1,23,origin,n_l_002.jpg,left,natural,manmade,NA,NA,NA,left,1429,true,NA,NA,NA,NA,NA
rOnjndhp,NA,NA,rOnjndhp,2020-0188,2021-09-30,17:38:35,18:59:54,NA,incomplete,false,true,NA,1,24,origin,n_l_017.jpg,left,natural,manmade,NA,NA,NA,left,1923,true,NA,NA,NA,NA,NA
rOnjndhp,NA,NA,rOnjndhp,2020-0188,2021-09-30,17:38:35,18:59:54,NA,incomplete,false,true,NA,1,25,size,m_s_018.jpg,right,large,small,NA,NA,NA,right,1261,true,NA,NA,NA,NA,NA
rOnjndhp,NA,NA,rOnjndhp,2020-0188,2021-09-30,17:38:35,18:59:54,NA,incomplete,false,true,NA,1,26,size,n_s_010.jpg,right,large,small,NA,NA,NA,right,1056.00000000012,true,NA,NA,NA,NA,NA
rOnjndhp,NA,NA,rOnjndhp,2020-0188,2021-09-30,17:38:35,18:59:54,NA,incomplete,false,true,NA,1,27,size,m_l_027.jpg,left,large,small,NA,NA,NA,left,1189.00000000012,true,NA,NA,NA,NA,NA
rOnjndhp,NA,NA,rOnjndhp,2020-0188,2021-09-30,17:38:35,18:59:54,NA,incomplete,false,true,NA,1,28,size,n_l_024.jpg,left,large,small,NA,NA,NA,left,1130,true,NA,NA,NA,NA,NA
rOnjndhp,NA,NA,rOnjndhp,2020-0188,2021-09-30,17:38:35,18:59:54,NA,incomplete,false,true,NA,1,29,size,m_s_003.jpg,right,large,small,NA,NA,NA,right,1372,true,NA,NA,NA,NA,NA
rOnjndhp,NA,NA,rOnjndhp,2020-0188,2021-09-30,17:38:35,18:59:54,NA,incomplete,false,NA,true,1,0,NA,NA,right,NA,NA,o_c_019.jpg,o_c_011.jpg,within,NA,NaN,NA,left,2145,0,1,2423
rOnjndhp,NA,NA,rOnjndhp,2020-0188,2021-09-30,17:38:35,18:59:54,NA,incomplete,false,NA,true,1,1,NA,NA,left,NA,NA,a_1_022.jpg,c_1_005.jpg,between-small,NA,NaN,NA,right,3382,0,1,1291.0000000001164
rOnjndhp,NA,NA,rOnjndhp,2020-0188,2021-09-30,17:38:35,18:59:54,NA,incomplete,false,NA,true,1,2,NA,NA,right,NA,NA,o_c_022.jpg,c_1_001.jpg,between-big,NA,NaN,NA,right,1652,1,2,1802
rOnjndhp,NA,NA,rOnjndhp,2020-0188,2021-09-30,17:38:35,18:59:54,NA,incomplete,false,NA,true,1,3,NA,NA,right,NA,NA,i_s_011.jpg,a_2_018.jpg,between-big,NA,NaN,NA,right,1209.9999999998836,1,1,2869.0000000001164
rOnjndhp,NA,NA,rOnjndhp,2020-0188,2021-09-30,17:38:35,18:59:54,NA,incomplete,false,NA,true,1,4,NA,NA,left,NA,NA,c_1_005.jpg,a_2_018.jpg,within,NA,NaN,NA,left,2716,1,1,1110.0000000001164
rOnjndhp,NA,NA,rOnjndhp,2020-0188,2021-09-30,17:38:35,18:59:54,NA,incomplete,false,NA,true,1,5,NA,NA,left,NA,NA,c_2_014.jpg,a_2_002.jpg,between-small,NA,NaN,NA,left,3866,1,1,2754
rOnjndhp,NA,NA,rOnjndhp,2020-0188,2021-09-30,17:38:35,18:59:54,NA,incomplete,false,NA,true,1,6,NA,NA,left,NA,NA,a_2_023.jpg,c_1_002.jpg,within,NA,NaN,NA,right,3974.0000000001164,0,1,2514
rOnjndhp,NA,NA,rOnjndhp,2020-0188,2021-09-30,17:38:35,18:59:54,NA,incomplete,false,NA,true,1,7,NA,NA,left,NA,NA,i_s_011.jpg,o_c_004.jpg,between-small,NA,NaN,NA,left,1270,1,1,2776
rOnjndhp,NA,NA,rOnjndhp,2020-0188,2021-09-30,17:38:35,18:59:54,NA,incomplete,false,NA,true,1,8,NA,NA,right,NA,NA,n_l_024.jpg,m_s_018.jpg,within,NA,NaN,NA,right,3246.9999999998836,1,0,1248.9999999998836
rOnjndhp,NA,NA,rOnjndhp,2020-0188,2021-09-30,17:38:35,18:59:54,NA,incomplete,false,NA,true,1,9,NA,NA,left,NA,NA,o_s_024.jpg,m_s_002.jpg,between-big,NA,NaN,NA,left,4865.000000000116,1,2,1254
rOnjndhp,NA,NA,rOnjndhp,2020-0188,2021-09-30,17:38:35,18:59:54,NA,incomplete,false,NA,true,1,10,NA,NA,right,NA,NA,o_c_011.jpg,o_s_018.jpg,between-small,NA,NaN,NA,left,2937,0,0,2735
rOnjndhp,NA,NA,rOnjndhp,2020-0188,2021-09-30,17:38:35,18:59:54,NA,incomplete,false,NA,true,1,11,NA,NA,left,NA,NA,o_c_005.jpg,o_s_018.jpg,within,NA,NaN,NA,left,6444,1,0,1026.9999999998836
rOnjndhp,NA,NA,rOnjndhp,2020-0188,2021-09-30,17:38:35,18:59:54,NA,incomplete,false,NA,true,1,12,NA,NA,left,NA,NA,n_s_010.jpg,m_s_003.jpg,within,NA,NaN,NA,left,1682.0000000001164,1,1,2248
rOnjndhp,NA,NA,rOnjndhp,2020-0188,2021-09-30,17:38:35,18:59:54,NA,incomplete,false,NA,true,1,13,NA,NA,right,NA,NA,m_s_018.jpg,n_s_016.jpg,between-small,NA,NaN,NA,right,2883,1,2,3593
rOnjndhp,NA,NA,rOnjndhp,2020-0188,2021-09-30,17:38:35,18:59:54,NA,incomplete,false,NA,true,1,14,NA,NA,right,NA,NA,m_l_027.jpg,n_l_017.jpg,between-small,NA,NaN,NA,right,4442.999999999884,1,2,1423
rOnjndhp,NA,NA,rOnjndhp,2020-0188,2021-09-30,17:38:35,18:59:54,NA,incomplete,false,NA,true,1,15,NA,NA,left,NA,NA,o_c_019.jpg,n_s_016.jpg,between-big,NA,NaN,NA,left,2157,1,2,2274
rOnjndhp,NA,NA,rOnjndhp,2020-0188,2021-09-30,17:38:35,18:59:54,NA,incomplete,false,NA,true,1,16,NA,NA,right,NA,NA,c_1_001.jpg,a_2_002.jpg,within,NA,NaN,NA,right,4171,1,1,1153
rOnjndhp,NA,NA,rOnjndhp,2020-0188,2021-09-30,17:38:35,18:59:54,NA,incomplete,false,NA,true,1,17,NA,NA,left,NA,NA,a_2_010.jpg,o_c_005.jpg,between-big,NA,NaN,NA,left,2221,1,2,2389.9999999998836
rOnjndhp,NA,NA,rOnjndhp,2020-0188,2021-09-30,17:38:35,18:59:54,NA,incomplete,false,NA,true,1,18,NA,NA,right,NA,NA,i_c_015.jpg,o_c_022.jpg,within,NA,NaN,NA,right,3243,1,2,2389
rOnjndhp,NA,NA,rOnjndhp,2020-0188,2021-09-30,17:38:35,18:59:54,NA,incomplete,false,NA,true,1,19,NA,NA,left,NA,NA,a_1_026.jpg,a_1_022.jpg,within,NA,NaN,NA,right,4293,0,1,1620
rOnjndhp,NA,NA,rOnjndhp,2020-0188,2021-09-30,17:38:35,18:59:54,NA,incomplete,false,NA,true,1,20,NA,NA,left,NA,NA,n_l_004.jpg,n_l_017.jpg,within,NA,NaN,NA,left,1971,1,2,1315
rOnjndhp,NA,NA,rOnjndhp,2020-0188,2021-09-30,17:38:35,18:59:54,NA,incomplete,false,NA,true,1,21,NA,NA,left,NA,NA,o_c_002.jpg,n_l_004.jpg,between-big,NA,NaN,NA,left,2175,1,2,6197
rOnjndhp,NA,NA,rOnjndhp,2020-0188,2021-09-30,17:38:35,18:59:54,NA,incomplete,false,NA,true,1,22,NA,NA,left,NA,NA,o_c_004.jpg,o_c_002.jpg,within,NA,NaN,NA,left,4046,1,0,1580.0000000001164
rOnjndhp,NA,NA,rOnjndhp,2020-0188,2021-09-30,17:38:35,18:59:54,NA,incomplete,false,NA,true,1,23,NA,NA,right,NA,NA,n_s_010.jpg,n_l_002.jpg,between-small,NA,NaN,NA,right,4930,1,1,1560.9999999998836
rOnjndhp,NA,NA,rOnjndhp,2020-0188,2021-09-30,17:38:35,18:59:54,NA,incomplete,false,NA,true,1,24,NA,NA,right,NA,NA,n_l_002.jpg,m_s_002.jpg,within,NA,NaN,NA,right,3760,1,0,1342
rOnjndhp,NA,NA,rOnjndhp,2020-0188,2021-09-30,17:38:35,18:59:54,NA,incomplete,false,NA,true,1,25,NA,NA,right,NA,NA,o_s_024.jpg,i_c_015.jpg,between-small,NA,NaN,NA,left,5015,0,0,1081.9999999998836
rOnjndhp,NA,NA,rOnjndhp,2020-0188,2021-09-30,17:38:35,18:59:54,NA,incomplete,false,NA,true,1,26,NA,NA,right,NA,NA,a_2_010.jpg,c_1_002.jpg,between-small,NA,NaN,NA,right,1654,1,0,1569
rOnjndhp,NA,NA,rOnjndhp,2020-0188,2021-09-30,17:38:35,18:59:54,NA,incomplete,false,true,NA,2,0,building,i_c_014.jpg,left,cottage,skyscraper,NA,NA,NA,left,1431,true,NA,NA,NA,NA,NA
rOnjndhp,NA,NA,rOnjndhp,2020-0188,2021-09-30,17:38:35,18:59:54,NA,incomplete,false,true,NA,2,1,building,i_c_011.jpg,right,skyscraper,cottage,NA,NA,NA,right,902.999999999884,true,NA,NA,NA,NA,NA
rOnjndhp,NA,NA,rOnjndhp,2020-0188,2021-09-30,17:38:35,18:59:54,NA,incomplete,false,true,NA,2,2,building,o_c_003.jpg,right,skyscraper,cottage,NA,NA,NA,right,903.000000000116,true,NA,NA,NA,NA,NA
rOnjndhp,NA,NA,rOnjndhp,2020-0188,2021-09-30,17:38:35,18:59:54,NA,incomplete,false,true,NA,2,3,building,i_s_028.jpg,left,skyscraper,cottage,NA,NA,NA,left,842,true,NA,NA,NA,NA,NA
rOnjndhp,NA,NA,rOnjndhp,2020-0188,2021-09-30,17:38:35,18:59:54,NA,incomplete,false,true,NA,2,4,building,o_s_001.jpg,left,skyscraper,cottage,NA,NA,NA,left,849.999999999884,true,NA,NA,NA,NA,NA
rOnjndhp,NA,NA,rOnjndhp,2020-0188,2021-09-30,17:38:35,18:59:54,NA,incomplete,false,true,NA,2,5,location,i_c_022.jpg,left,indoor,outdoor,NA,NA,NA,left,1101,true,NA,NA,NA,NA,NA
rOnjndhp,NA,NA,rOnjndhp,2020-0188,2021-09-30,17:38:35,18:59:54,NA,incomplete,false,true,NA,2,6,location,o_s_008.jpg,right,indoor,outdoor,NA,NA,NA,right,1212,true,NA,NA,NA,NA,NA
rOnjndhp,NA,NA,rOnjndhp,2020-0188,2021-09-30,17:38:35,18:59:54,NA,incomplete,false,true,NA,2,7,location,i_s_015.jpg,left,indoor,outdoor,NA,NA,NA,left,997,true,NA,NA,NA,NA,NA
rOnjndhp,NA,NA,rOnjndhp,2020-0188,2021-09-30,17:38:35,18:59:54,NA,incomplete,false,true,NA,2,8,location,i_c_023.jpg,right,outdoor,indoor,NA,NA,NA,left,1834.00000000012,false,NA,NA,NA,NA,NA
rOnjndhp,NA,NA,rOnjndhp,2020-0188,2021-09-30,17:38:35,18:59:54,NA,incomplete,false,true,NA,2,9,location,i_s_006.jpg,left,indoor,outdoor,NA,NA,NA,left,2119.00000000012,true,NA,NA,NA,NA,NA
rOnjndhp,NA,NA,rOnjndhp,2020-0188,2021-09-30,17:38:35,18:59:54,NA,incomplete,false,true,NA,2,10,syllable,a_2_012.jpg,right,2 syllables,1 syllable,NA,NA,NA,left,2462.99999999988,false,NA,NA,NA,NA,NA
rOnjndhp,NA,NA,rOnjndhp,2020-0188,2021-09-30,17:38:35,18:59:54,NA,incomplete,false,true,NA,2,11,syllable,a_2_014.jpg,right,1 syllable,2 syllables,NA,NA,NA,right,1053.99999999988,true,NA,NA,NA,NA,NA
rOnjndhp,NA,NA,rOnjndhp,2020-0188,2021-09-30,17:38:35,18:59:54,NA,incomplete,false,true,NA,2,12,syllable,c_1_022.jpg,right,2 syllables,1 syllable,NA,NA,NA,right,1540.00000000023,true,NA,NA,NA,NA,NA
rOnjndhp,NA,NA,rOnjndhp,2020-0188,2021-09-30,17:38:35,18:59:54,NA,incomplete,false,true,NA,2,13,syllable,c_1_026.jpg,right,1 syllable,2 syllables,NA,NA,NA,left,895,false,NA,NA,NA,NA,NA
rOnjndhp,NA,NA,rOnjndhp,2020-0188,2021-09-30,17:38:35,18:59:54,NA,incomplete,false,true,NA,2,14,syllable,a_2_003.jpg,right,1 syllable,2 syllables,NA,NA,NA,right,945.999999999884,true,NA,NA,NA,NA,NA
rOnjndhp,NA,NA,rOnjndhp,2020-0188,2021-09-30,17:38:35,18:59:54,NA,incomplete,false,true,NA,2,15,abstractness,c_2_018.jpg,left,concrete,abstract,NA,NA,NA,left,1929,true,NA,NA,NA,NA,NA
rOnjndhp,NA,NA,rOnjndhp,2020-0188,2021-09-30,17:38:35,18:59:54,NA,incomplete,false,true,NA,2,16,abstractness,a_2_022.jpg,left,abstract,concrete,NA,NA,NA,left,1724,true,NA,NA,NA,NA,NA
rOnjndhp,NA,NA,rOnjndhp,2020-0188,2021-09-30,17:38:35,18:59:54,NA,incomplete,false,true,NA,2,17,abstractness,a_2_028.jpg,right,concrete,abstract,NA,NA,NA,right,1003.99999999977,true,NA,NA,NA,NA,NA
rOnjndhp,NA,NA,rOnjndhp,2020-0188,2021-09-30,17:38:35,18:59:54,NA,incomplete,false,true,NA,2,18,abstractness,c_2_011.jpg,right,abstract,concrete,NA,NA,NA,right,1636,true,NA,NA,NA,NA,NA
rOnjndhp,NA,NA,rOnjndhp,2020-0188,2021-09-30,17:38:35,18:59:54,NA,incomplete,false,true,NA,2,19,abstractness,c_2_008.jpg,right,abstract,concrete,NA,NA,NA,right,2003,true,NA,NA,NA,NA,NA
rOnjndhp,NA,NA,rOnjndhp,2020-0188,2021-09-30,17:38:35,18:59:54,NA,incomplete,false,true,NA,2,20,size,m_l_002.jpg,left,large,small,NA,NA,NA,left,1591,true,NA,NA,NA,NA,NA
rOnjndhp,NA,NA,rOnjndhp,2020-0188,2021-09-30,17:38:35,18:59:54,NA,incomplete,false,true,NA,2,21,size,n_l_011.jpg,left,large,small,NA,NA,NA,left,867.000000000233,true,NA,NA,NA,NA,NA
rOnjndhp,NA,NA,rOnjndhp,2020-0188,2021-09-30,17:38:35,18:59:54,NA,incomplete,false,true,NA,2,22,size,n_l_008.jpg,right,small,large,NA,NA,NA,right,1120,true,NA,NA,NA,NA,NA
rOnjndhp,NA,NA,rOnjndhp,2020-0188,2021-09-30,17:38:35,18:59:54,NA,incomplete,false,true,NA,2,23,size,m_s_024.jpg,left,small,large,NA,NA,NA,left,1088,true,NA,NA,NA,NA,NA
rOnjndhp,NA,NA,rOnjndhp,2020-0188,2021-09-30,17:38:35,18:59:54,NA,incomplete,false,true,NA,2,24,size,n_s_025.jpg,left,small,large,NA,NA,NA,left,841,true,NA,NA,NA,NA,NA
rOnjndhp,NA,NA,rOnjndhp,2020-0188,2021-09-30,17:38:35,18:59:54,NA,incomplete,false,true,NA,2,25,origin,m_l_020.jpg,left,manmade,natural,NA,NA,NA,left,1204,true,NA,NA,NA,NA,NA
rOnjndhp,NA,NA,rOnjndhp,2020-0188,2021-09-30,17:38:35,18:59:54,NA,incomplete,false,true,NA,2,26,origin,n_s_028.jpg,right,manmade,natural,NA,NA,NA,right,1214,true,NA,NA,NA,NA,NA
rOnjndhp,NA,NA,rOnjndhp,2020-0188,2021-09-30,17:38:35,18:59:54,NA,incomplete,false,true,NA,2,27,origin,m_s_016.jpg,right,natural,manmade,NA,NA,NA,right,1230,true,NA,NA,NA,NA,NA
rOnjndhp,NA,NA,rOnjndhp,2020-0188,2021-09-30,17:38:35,18:59:54,NA,incomplete,false,true,NA,2,28,origin,m_s_010.jpg,right,natural,manmade,NA,NA,NA,right,1722,true,NA,NA,NA,NA,NA
rOnjndhp,NA,NA,rOnjndhp,2020-0188,2021-09-30,17:38:35,18:59:54,NA,incomplete,false,true,NA,2,29,origin,m_l_028.jpg,right,natural,manmade,NA,NA,NA,right,1166,true,NA,NA,NA,NA,NA
rOnjndhp,NA,NA,rOnjndhp,2020-0188,2021-09-30,17:38:35,18:59:54,NA,incomplete,false,NA,true,2,0,NA,NA,right,NA,NA,n_l_008.jpg,c_2_008.jpg,between-big,NA,NaN,NA,right,5019,1,2,2898
rOnjndhp,NA,NA,rOnjndhp,2020-0188,2021-09-30,17:38:35,18:59:54,NA,incomplete,false,NA,true,2,1,NA,NA,right,NA,NA,i_s_015.jpg,o_s_001.jpg,between-small,NA,NaN,NA,right,2797,1,1,5039
rOnjndhp,NA,NA,rOnjndhp,2020-0188,2021-09-30,17:38:35,18:59:54,NA,incomplete,false,NA,true,2,2,NA,NA,right,NA,NA,a_2_003.jpg,a_2_014.jpg,within,NA,NaN,NA,right,5701,1,0,1525
rOnjndhp,NA,NA,rOnjndhp,2020-0188,2021-09-30,17:38:35,18:59:54,NA,incomplete,false,NA,true,2,3,NA,NA,left,NA,NA,n_s_028.jpg,m_l_028.jpg,within,NA,NaN,NA,left,2001,1,0,2009.0000000002328
rOnjndhp,NA,NA,rOnjndhp,2020-0188,2021-09-30,17:38:35,18:59:54,NA,incomplete,false,NA,true,2,4,NA,NA,left,NA,NA,c_2_018.jpg,c_2_011.jpg,within,NA,NaN,NA,left,2204,1,1,1343
rOnjndhp,NA,NA,rOnjndhp,2020-0188,2021-09-30,17:38:35,18:59:54,NA,incomplete,false,NA,true,2,5,NA,NA,right,NA,NA,n_l_011.jpg,c_2_011.jpg,between-big,NA,NaN,NA,left,1806,0,1,3459
rOnjndhp,NA,NA,rOnjndhp,2020-0188,2021-09-30,17:38:35,18:59:54,NA,incomplete,false,NA,true,2,6,NA,NA,right,NA,NA,n_s_028.jpg,m_s_024.jpg,between-small,NA,NaN,NA,left,2012.9999999997672,0,2,5284
rOnjndhp,NA,NA,rOnjndhp,2020-0188,2021-09-30,17:38:35,18:59:54,NA,incomplete,false,NA,true,2,7,NA,NA,right,NA,NA,i_c_022.jpg,o_c_003.jpg,between-small,NA,NaN,NA,right,3101,1,1,1987
rOnjndhp,NA,NA,rOnjndhp,2020-0188,2021-09-30,17:38:35,18:59:54,NA,incomplete,false,NA,true,2,8,NA,NA,right,NA,NA,m_s_010.jpg,m_l_020.jpg,within,NA,NaN,NA,right,2010,1,1,1087
rOnjndhp,NA,NA,rOnjndhp,2020-0188,2021-09-30,17:38:35,18:59:54,NA,incomplete,false,NA,true,2,9,NA,NA,right,NA,NA,i_c_023.jpg,i_c_022.jpg,within,NA,NaN,NA,right,2342,1,1,2096
rOnjndhp,NA,NA,rOnjndhp,2020-0188,2021-09-30,17:38:35,18:59:54,NA,incomplete,false,NA,true,2,10,NA,NA,left,NA,NA,a_2_012.jpg,c_1_026.jpg,within,NA,NaN,NA,left,3171,1,1,1507
rOnjndhp,NA,NA,rOnjndhp,2020-0188,2021-09-30,17:38:35,18:59:54,NA,incomplete,false,NA,true,2,11,NA,NA,right,NA,NA,i_s_006.jpg,o_s_008.jpg,within,NA,NaN,NA,right,3020,1,1,1680
rOnjndhp,NA,NA,rOnjndhp,2020-0188,2021-09-30,17:38:35,18:59:54,NA,incomplete,false,NA,true,2,12,NA,NA,right,NA,NA,o_s_008.jpg,i_s_028.jpg,between-small,NA,NaN,NA,left,1645,0,2,2586
rOnjndhp,NA,NA,rOnjndhp,2020-0188,2021-09-30,17:38:35,18:59:54,NA,incomplete,false,NA,true,2,13,NA,NA,left,NA,NA,i_s_006.jpg,c_1_022.jpg,between-big,NA,NaN,NA,left,4261,1,0,3036
rOnjndhp,NA,NA,rOnjndhp,2020-0188,2021-09-30,17:38:35,18:59:54,NA,incomplete,false,NA,true,2,14,NA,NA,left,NA,NA,i_c_011.jpg,o_s_001.jpg,within,NA,NaN,NA,left,1292,1,0,1274.0000000002328
rOnjndhp,NA,NA,rOnjndhp,2020-0188,2021-09-30,17:38:35,18:59:54,NA,incomplete,false,NA,true,2,15,NA,NA,left,NA,NA,i_c_023.jpg,a_2_014.jpg,between-big,NA,NaN,NA,left,1357,1,2,2758
rOnjndhp,NA,NA,rOnjndhp,2020-0188,2021-09-30,17:38:35,18:59:54,NA,incomplete,false,NA,true,2,16,NA,NA,right,NA,NA,i_s_028.jpg,i_c_014.jpg,within,NA,NaN,NA,left,1585,0,1,2477.000000000233
rOnjndhp,NA,NA,rOnjndhp,2020-0188,2021-09-30,17:38:35,18:59:54,NA,incomplete,false,NA,true,2,17,NA,NA,left,NA,NA,c_1_026.jpg,a_2_022.jpg,between-small,NA,NaN,NA,left,3318,1,2,1264
rOnjndhp,NA,NA,rOnjndhp,2020-0188,2021-09-30,17:38:35,18:59:54,NA,incomplete,false,NA,true,2,18,NA,NA,right,NA,NA,a_2_012.jpg,i_s_015.jpg,between-big,NA,NaN,NA,right,2024,1,2,1040
rOnjndhp,NA,NA,rOnjndhp,2020-0188,2021-09-30,17:38:35,18:59:54,NA,incomplete,false,NA,true,2,19,NA,NA,left,NA,NA,a_2_003.jpg,a_2_028.jpg,between-small,NA,NaN,NA,right,2153,0,1,1506
rOnjndhp,NA,NA,rOnjndhp,2020-0188,2021-09-30,17:38:35,18:59:54,NA,incomplete,false,NA,true,2,20,NA,NA,left,NA,NA,a_2_028.jpg,m_l_002.jpg,between-big,NA,NaN,NA,left,2829,1,1,1691
rOnjndhp,NA,NA,rOnjndhp,2020-0188,2021-09-30,17:38:35,18:59:54,NA,incomplete,false,NA,true,2,21,NA,NA,right,NA,NA,m_l_020.jpg,n_l_008.jpg,between-small,NA,NaN,NA,left,3318.999999999767,0,1,1867.9999999997672
rOnjndhp,NA,NA,rOnjndhp,2020-0188,2021-09-30,17:38:35,18:59:54,NA,incomplete,false,NA,true,2,22,NA,NA,left,NA,NA,n_l_011.jpg,n_s_025.jpg,within,NA,NaN,NA,left,2007,1,1,1350.9999999997672
rOnjndhp,NA,NA,rOnjndhp,2020-0188,2021-09-30,17:38:35,18:59:54,NA,incomplete,false,NA,true,2,23,NA,NA,right,NA,NA,c_2_018.jpg,c_1_022.jpg,between-small,NA,NaN,NA,right,2142,1,2,1459
rOnjndhp,NA,NA,rOnjndhp,2020-0188,2021-09-30,17:38:35,18:59:54,NA,incomplete,false,NA,true,2,24,NA,NA,left,NA,NA,a_2_022.jpg,c_2_008.jpg,within,NA,NaN,NA,left,3451.000000000233,1,2,3382
rOnjndhp,NA,NA,rOnjndhp,2020-0188,2021-09-30,17:38:35,18:59:54,NA,incomplete,false,NA,true,2,25,NA,NA,right,NA,NA,m_s_024.jpg,m_l_002.jpg,within,NA,NaN,NA,right,2974.000000000233,1,1,2489
rOnjndhp,NA,NA,rOnjndhp,2020-0188,2021-09-30,17:38:35,18:59:54,NA,incomplete,false,NA,true,2,26,NA,NA,left,NA,NA,n_s_025.jpg,m_s_016.jpg,between-small,NA,NaN,NA,right,3967,0,2,1815
rOnjndhp,NA,NA,rOnjndhp,2020-0188,2021-09-30,17:38:35,18:59:54,NA,incomplete,false,true,NA,3,0,abstractness,a_2_011.jpg,right,concrete,abstract,NA,NA,NA,right,2214,true,NA,NA,NA,NA,NA
rOnjndhp,NA,NA,rOnjndhp,2020-0188,2021-09-30,17:38:35,18:59:54,NA,incomplete,false,true,NA,3,1,abstractness,c_1_024.jpg,right,abstract,concrete,NA,NA,NA,right,1583.99999999977,true,NA,NA,NA,NA,NA
rOnjndhp,NA,NA,rOnjndhp,2020-0188,2021-09-30,17:38:35,18:59:54,NA,incomplete,false,true,NA,3,2,abstractness,c_1_017.jpg,right,abstract,concrete,NA,NA,NA,right,1207,true,NA,NA,NA,NA,NA
rOnjndhp,NA,NA,rOnjndhp,2020-0188,2021-09-30,17:38:35,18:59:54,NA,incomplete,false,true,NA,3,3,abstractness,c_1_020.jpg,right,abstract,concrete,NA,NA,NA,right,2020,true,NA,NA,NA,NA,NA
rOnjndhp,NA,NA,rOnjndhp,2020-0188,2021-09-30,17:38:35,18:59:54,NA,incomplete,false,true,NA,3,4,abstractness,a_1_020.jpg,left,abstract,concrete,NA,NA,NA,left,1056,true,NA,NA,NA,NA,NA
rOnjndhp,NA,NA,rOnjndhp,2020-0188,2021-09-30,17:38:35,18:59:54,NA,incomplete,false,true,NA,3,5,syllable,a_1_014.jpg,right,2 syllables,1 syllable,NA,NA,NA,right,1779,true,NA,NA,NA,NA,NA
rOnjndhp,NA,NA,rOnjndhp,2020-0188,2021-09-30,17:38:35,18:59:54,NA,incomplete,false,true,NA,3,6,syllable,c_2_001.jpg,right,1 syllable,2 syllables,NA,NA,NA,right,2339,true,NA,NA,NA,NA,NA
rOnjndhp,NA,NA,rOnjndhp,2020-0188,2021-09-30,17:38:35,18:59:54,NA,incomplete,false,true,NA,3,7,syllable,a_1_009.jpg,right,2 syllables,1 syllable,NA,NA,NA,right,1602,true,NA,NA,NA,NA,NA
rOnjndhp,NA,NA,rOnjndhp,2020-0188,2021-09-30,17:38:35,18:59:54,NA,incomplete,false,true,NA,3,8,syllable,c_2_017.jpg,right,2 syllables,1 syllable,NA,NA,NA,left,1160.00000000023,false,NA,NA,NA,NA,NA
rOnjndhp,NA,NA,rOnjndhp,2020-0188,2021-09-30,17:38:35,18:59:54,NA,incomplete,false,true,NA,3,9,syllable,c_2_020.jpg,right,1 syllable,2 syllables,NA,NA,NA,right,1017,true,NA,NA,NA,NA,NA
rOnjndhp,NA,NA,rOnjndhp,2020-0188,2021-09-30,17:38:35,18:59:54,NA,incomplete,false,true,NA,3,10,location,i_c_002.jpg,left,indoor,outdoor,NA,NA,NA,left,969,true,NA,NA,NA,NA,NA
rOnjndhp,NA,NA,rOnjndhp,2020-0188,2021-09-30,17:38:35,18:59:54,NA,incomplete,false,true,NA,3,11,location,o_s_002.jpg,right,indoor,outdoor,NA,NA,NA,right,1263,true,NA,NA,NA,NA,NA
rOnjndhp,NA,NA,rOnjndhp,2020-0188,2021-09-30,17:38:35,18:59:54,NA,incomplete,false,true,NA,3,12,location,i_c_003.jpg,left,indoor,outdoor,NA,NA,NA,left,1317,true,NA,NA,NA,NA,NA
rOnjndhp,NA,NA,rOnjndhp,2020-0188,2021-09-30,17:38:35,18:59:54,NA,incomplete,false,true,NA,3,13,location,i_c_008.jpg,right,outdoor,indoor,NA,NA,NA,right,1369,true,NA,NA,NA,NA,NA
rOnjndhp,NA,NA,rOnjndhp,2020-0188,2021-09-30,17:38:35,18:59:54,NA,incomplete,false,true,NA,3,14,location,o_c_006.jpg,right,indoor,outdoor,NA,NA,NA,right,1886,true,NA,NA,NA,NA,NA
rOnjndhp,NA,NA,rOnjndhp,2020-0188,2021-09-30,17:38:35,18:59:54,NA,incomplete,false,true,NA,3,15,building,i_s_021.jpg,right,cottage,skyscraper,NA,NA,NA,right,1371.00000000023,true,NA,NA,NA,NA,NA
rOnjndhp,NA,NA,rOnjndhp,2020-0188,2021-09-30,17:38:35,18:59:54,NA,incomplete,false,true,NA,3,16,building,i_c_021.jpg,left,cottage,skyscraper,NA,NA,NA,left,1060,true,NA,NA,NA,NA,NA
rOnjndhp,NA,NA,rOnjndhp,2020-0188,2021-09-30,17:38:35,18:59:54,NA,incomplete,false,true,NA,3,17,building,i_s_009.jpg,left,skyscraper,cottage,NA,NA,NA,right,971,false,NA,NA,NA,NA,NA
rOnjndhp,NA,NA,rOnjndhp,2020-0188,2021-09-30,17:38:35,18:59:54,NA,incomplete,false,true,NA,3,18,building,o_s_026.jpg,right,cottage,skyscraper,NA,NA,NA,right,1456,true,NA,NA,NA,NA,NA
rOnjndhp,NA,NA,rOnjndhp,2020-0188,2021-09-30,17:38:35,18:59:54,NA,incomplete,false,true,NA,3,19,building,o_c_027.jpg,left,cottage,skyscraper,NA,NA,NA,left,986.000000000233,true,NA,NA,NA,NA,NA
rOnjndhp,NA,NA,rOnjndhp,2020-0188,2021-09-30,17:38:35,18:59:54,NA,incomplete,false,true,NA,3,20,size,n_s_007.jpg,left,small,large,NA,NA,NA,left,1115,true,NA,NA,NA,NA,NA
rOnjndhp,NA,NA,rOnjndhp,2020-0188,2021-09-30,17:38:35,18:59:54,NA,incomplete,false,true,NA,3,21,size,m_l_025.jpg,right,small,large,NA,NA,NA,right,1060,true,NA,NA,NA,NA,NA
rOnjndhp,NA,NA,rOnjndhp,2020-0188,2021-09-30,17:38:35,18:59:54,NA,incomplete,false,true,NA,3,22,size,m_s_019.jpg,left,small,large,NA,NA,NA,left,1150,true,NA,NA,NA,NA,NA
rOnjndhp,NA,NA,rOnjndhp,2020-0188,2021-09-30,17:38:35,18:59:54,NA,incomplete,false,true,NA,3,23,size,m_l_026.jpg,right,small,large,NA,NA,NA,right,1040,true,NA,NA,NA,NA,NA
rOnjndhp,NA,NA,rOnjndhp,2020-0188,2021-09-30,17:38:35,18:59:54,NA,incomplete,false,true,NA,3,24,size,m_l_017.jpg,left,large,small,NA,NA,NA,left,1688.99999999977,true,NA,NA,NA,NA,NA
rOnjndhp,NA,NA,rOnjndhp,2020-0188,2021-09-30,17:38:35,18:59:54,NA,incomplete,false,true,NA,3,25,origin,n_s_004.jpg,left,natural,manmade,NA,NA,NA,left,1359,true,NA,NA,NA,NA,NA
rOnjndhp,NA,NA,rOnjndhp,2020-0188,2021-09-30,17:38:35,18:59:54,NA,incomplete,false,true,NA,3,26,origin,m_s_001.jpg,left,manmade,natural,NA,NA,NA,left,1999,true,NA,NA,NA,NA,NA
rOnjndhp,NA,NA,rOnjndhp,2020-0188,2021-09-30,17:38:35,18:59:54,NA,incomplete,false,true,NA,3,27,origin,n_s_027.jpg,left,natural,manmade,NA,NA,NA,left,1332,true,NA,NA,NA,NA,NA
rOnjndhp,NA,NA,rOnjndhp,2020-0188,2021-09-30,17:38:35,18:59:54,NA,incomplete,false,true,NA,3,28,origin,m_s_008.jpg,right,natural,manmade,NA,NA,NA,right,1500,true,NA,NA,NA,NA,NA
rOnjndhp,NA,NA,rOnjndhp,2020-0188,2021-09-30,17:38:35,18:59:54,NA,incomplete,false,true,NA,3,29,origin,m_l_006.jpg,right,natural,manmade,NA,NA,NA,right,1557,true,NA,NA,NA,NA,NA
rOnjndhp,NA,NA,rOnjndhp,2020-0188,2021-09-30,17:38:35,18:59:54,NA,incomplete,false,NA,true,3,0,NA,NA,left,NA,NA,i_s_009.jpg,n_s_007.jpg,between-big,NA,NaN,NA,left,4147,1,2,2630
rOnjndhp,NA,NA,rOnjndhp,2020-0188,2021-09-30,17:38:35,18:59:54,NA,incomplete,false,NA,true,3,1,NA,NA,left,NA,NA,i_s_021.jpg,o_s_026.jpg,within,NA,NaN,NA,left,2272.999999999767,1,1,2469
rOnjndhp,NA,NA,rOnjndhp,2020-0188,2021-09-30,17:38:35,18:59:54,NA,incomplete,false,NA,true,3,2,NA,NA,right,NA,NA,m_l_025.jpg,o_s_026.jpg,between-big,NA,NaN,NA,right,1385.0000000002328,1,2,1385
rOnjndhp,NA,NA,rOnjndhp,2020-0188,2021-09-30,17:38:35,18:59:54,NA,incomplete,false,NA,true,3,3,NA,NA,left,NA,NA,a_2_011.jpg,c_1_020.jpg,within,NA,NaN,NA,left,2635,1,1,1227
rOnjndhp,NA,NA,rOnjndhp,2020-0188,2021-09-30,17:38:35,18:59:54,NA,incomplete,false,NA,true,3,4,NA,NA,right,NA,NA,o_s_002.jpg,c_2_017.jpg,between-big,NA,NaN,NA,right,1812,1,1,1617
rOnjndhp,NA,NA,rOnjndhp,2020-0188,2021-09-30,17:38:35,18:59:54,NA,incomplete,false,NA,true,3,5,NA,NA,left,NA,NA,i_c_003.jpg,i_s_021.jpg,between-small,NA,NaN,NA,left,1164,1,0,2975
rOnjndhp,NA,NA,rOnjndhp,2020-0188,2021-09-30,17:38:35,18:59:54,NA,incomplete,false,NA,true,3,6,NA,NA,right,NA,NA,a_1_009.jpg,a_1_020.jpg,between-small,NA,NaN,NA,right,1957,1,1,1458
rOnjndhp,NA,NA,rOnjndhp,2020-0188,2021-09-30,17:38:35,18:59:54,NA,incomplete,false,NA,true,3,7,NA,NA,right,NA,NA,i_c_021.jpg,i_c_008.jpg,between-small,NA,NaN,NA,left,1290,0,1,2982
rOnjndhp,NA,NA,rOnjndhp,2020-0188,2021-09-30,17:38:35,18:59:54,NA,incomplete,false,NA,true,3,8,NA,NA,right,NA,NA,m_s_008.jpg,n_s_004.jpg,within,NA,NaN,NA,right,2360,1,2,1252
rOnjndhp,NA,NA,rOnjndhp,2020-0188,2021-09-30,17:38:35,18:59:54,NA,incomplete,false,NA,true,3,9,NA,NA,left,NA,NA,i_c_002.jpg,i_c_008.jpg,within,NA,NaN,NA,right,2516,0,1,2092
rOnjndhp,NA,NA,rOnjndhp,2020-0188,2021-09-30,17:38:35,18:59:54,NA,incomplete,false,NA,true,3,10,NA,NA,right,NA,NA,i_s_009.jpg,o_c_006.jpg,between-small,NA,NaN,NA,right,1942,1,2,1944
rOnjndhp,NA,NA,rOnjndhp,2020-0188,2021-09-30,17:38:35,18:59:54,NA,incomplete,false,NA,true,3,11,NA,NA,left,NA,NA,c_2_020.jpg,i_c_003.jpg,between-big,NA,NaN,NA,left,1120.0000000002328,1,2,2778
rOnjndhp,NA,NA,rOnjndhp,2020-0188,2021-09-30,17:38:35,18:59:54,NA,incomplete,false,NA,true,3,12,NA,NA,right,NA,NA,c_2_001.jpg,c_1_020.jpg,between-small,NA,NaN,NA,left,7071,0,1,1138.9999999997672
rOnjndhp,NA,NA,rOnjndhp,2020-0188,2021-09-30,17:38:35,18:59:54,NA,incomplete,false,NA,true,3,13,NA,NA,right,NA,NA,m_l_006.jpg,m_s_001.jpg,within,NA,NaN,NA,left,6926,0,0,4352
rOnjndhp,NA,NA,rOnjndhp,2020-0188,2021-09-30,17:38:35,18:59:54,NA,incomplete,false,NA,true,3,14,NA,NA,left,NA,NA,m_l_026.jpg,m_s_001.jpg,between-small,NA,NaN,NA,right,2836.999999999767,0,1,2498
rOnjndhp,NA,NA,rOnjndhp,2020-0188,2021-09-30,17:38:35,18:59:54,NA,incomplete,false,NA,true,3,15,NA,NA,right,NA,NA,c_2_017.jpg,a_1_014.jpg,within,NA,NaN,NA,left,1361,0,1,2268.000000000233
rOnjndhp,NA,NA,rOnjndhp,2020-0188,2021-09-30,17:38:35,18:59:54,NA,incomplete,false,NA,true,3,16,NA,NA,left,NA,NA,m_l_017.jpg,n_s_027.jpg,between-small,NA,NaN,NA,right,5716,0,1,1698
rOnjndhp,NA,NA,rOnjndhp,2020-0188,2021-09-30,17:38:35,18:59:54,NA,incomplete,false,NA,true,3,17,NA,NA,left,NA,NA,n_s_007.jpg,m_l_026.jpg,within,NA,NaN,NA,left,1140.9999999997672,1,2,3512.000000000233
rOnjndhp,NA,NA,rOnjndhp,2020-0188,2021-09-30,17:38:35,18:59:54,NA,incomplete,false,NA,true,3,18,NA,NA,left,NA,NA,c_1_017.jpg,a_1_014.jpg,between-small,NA,NaN,NA,right,1633,0,1,2434
rOnjndhp,NA,NA,rOnjndhp,2020-0188,2021-09-30,17:38:35,18:59:54,NA,incomplete,false,NA,true,3,19,NA,NA,left,NA,NA,o_s_002.jpg,o_c_006.jpg,within,NA,NaN,NA,left,1161,1,1,2466
rOnjndhp,NA,NA,rOnjndhp,2020-0188,2021-09-30,17:38:35,18:59:54,NA,incomplete,false,NA,true,3,20,NA,NA,left,NA,NA,m_l_025.jpg,m_l_017.jpg,within,NA,NaN,NA,left,1763,1,2,1297
rOnjndhp,NA,NA,rOnjndhp,2020-0188,2021-09-30,17:38:35,18:59:54,NA,incomplete,false,NA,true,3,21,NA,NA,right,NA,NA,i_c_002.jpg,a_1_009.jpg,between-big,NA,NaN,NA,left,5337,0,2,3948.000000000233
rOnjndhp,NA,NA,rOnjndhp,2020-0188,2021-09-30,17:38:35,18:59:54,NA,incomplete,false,NA,true,3,22,NA,NA,left,NA,NA,o_c_027.jpg,m_s_019.jpg,between-big,NA,NaN,NA,left,1662,1,3,3336
rOnjndhp,NA,NA,rOnjndhp,2020-0188,2021-09-30,17:38:35,18:59:54,NA,incomplete,false,NA,true,3,23,NA,NA,right,NA,NA,c_2_020.jpg,c_2_001.jpg,within,NA,NaN,NA,right,1855,1,1,1493
rOnjndhp,NA,NA,rOnjndhp,2020-0188,2021-09-30,17:38:35,18:59:54,NA,incomplete,false,NA,true,3,24,NA,NA,left,NA,NA,c_1_024.jpg,a_1_020.jpg,within,NA,NaN,NA,left,1293,1,1,5916
rOnjndhp,NA,NA,rOnjndhp,2020-0188,2021-09-30,17:38:35,18:59:54,NA,incomplete,false,NA,true,3,25,NA,NA,right,NA,NA,o_c_027.jpg,i_c_021.jpg,within,NA,NaN,NA,left,1583,0,2,1299.0000000002328
rOnjndhp,NA,NA,rOnjndhp,2020-0188,2021-09-30,17:38:35,18:59:54,NA,incomplete,false,NA,true,3,26,NA,NA,right,NA,NA,n_s_004.jpg,m_s_019.jpg,between-small,NA,NaN,NA,left,2179,0,3,2120.000000000233
rOnjndhp,NA,NA,rOnjndhp,2020-0188,2021-09-30,17:38:35,18:59:54,NA,incomplete,false,true,NA,4,0,syllable,c_1_016.jpg,right,2 syllables,1 syllable,NA,NA,NA,right,1547,true,NA,NA,NA,NA,NA
rOnjndhp,NA,NA,rOnjndhp,2020-0188,2021-09-30,17:38:35,18:59:54,NA,incomplete,false,true,NA,4,1,syllable,c_1_028.jpg,right,2 syllables,1 syllable,NA,NA,NA,right,987,true,NA,NA,NA,NA,NA
rOnjndhp,NA,NA,rOnjndhp,2020-0188,2021-09-30,17:38:35,18:59:54,NA,incomplete,false,true,NA,4,2,syllable,c_2_028.jpg,right,2 syllables,1 syllable,NA,NA,NA,left,1649.99999999977,false,NA,NA,NA,NA,NA
rOnjndhp,NA,NA,rOnjndhp,2020-0188,2021-09-30,17:38:35,18:59:54,NA,incomplete,false,true,NA,4,3,syllable,c_1_019.jpg,right,1 syllable,2 syllables,NA,NA,NA,left,870,false,NA,NA,NA,NA,NA
rOnjndhp,NA,NA,rOnjndhp,2020-0188,2021-09-30,17:38:35,18:59:54,NA,incomplete,false,true,NA,4,4,syllable,c_1_014.jpg,right,1 syllable,2 syllables,NA,NA,NA,left,1068,false,NA,NA,NA,NA,NA
rOnjndhp,NA,NA,rOnjndhp,2020-0188,2021-09-30,17:38:35,18:59:54,NA,incomplete,false,true,NA,4,5,abstractness,a_1_001.jpg,right,concrete,abstract,NA,NA,NA,right,1216,true,NA,NA,NA,NA,NA
rOnjndhp,NA,NA,rOnjndhp,2020-0188,2021-09-30,17:38:35,18:59:54,NA,incomplete,false,true,NA,4,6,abstractness,a_2_021.jpg,left,abstract,concrete,NA,NA,NA,left,1553,true,NA,NA,NA,NA,NA
rOnjndhp,NA,NA,rOnjndhp,2020-0188,2021-09-30,17:38:35,18:59:54,NA,incomplete,false,true,NA,4,7,abstractness,c_1_010.jpg,right,abstract,concrete,NA,NA,NA,right,1630.99999999977,true,NA,NA,NA,NA,NA
rOnjndhp,NA,NA,rOnjndhp,2020-0188,2021-09-30,17:38:35,18:59:54,NA,incomplete,false,true,NA,4,8,abstractness,a_1_015.jpg,left,abstract,concrete,NA,NA,NA,left,1019,true,NA,NA,NA,NA,NA
rOnjndhp,NA,NA,rOnjndhp,2020-0188,2021-09-30,17:38:35,18:59:54,NA,incomplete,false,true,NA,4,9,abstractness,a_1_005.jpg,left,abstract,concrete,NA,NA,NA,left,1635,true,NA,NA,NA,NA,NA
rOnjndhp,NA,NA,rOnjndhp,2020-0188,2021-09-30,17:38:35,18:59:54,NA,incomplete,false,true,NA,4,10,size,n_l_028.jpg,left,large,small,NA,NA,NA,right,1171,false,NA,NA,NA,NA,NA
rOnjndhp,NA,NA,rOnjndhp,2020-0188,2021-09-30,17:38:35,18:59:54,NA,incomplete,false,true,NA,4,11,size,m_s_004.jpg,right,large,small,NA,NA,NA,right,1045,true,NA,NA,NA,NA,NA
rOnjndhp,NA,NA,rOnjndhp,2020-0188,2021-09-30,17:38:35,18:59:54,NA,incomplete,false,true,NA,4,12,size,n_l_020.jpg,left,large,small,NA,NA,NA,right,1764,false,NA,NA,NA,NA,NA
rOnjndhp,NA,NA,rOnjndhp,2020-0188,2021-09-30,17:38:35,18:59:54,NA,incomplete,false,true,NA,4,13,size,m_s_013.jpg,right,large,small,NA,NA,NA,right,1232,true,NA,NA,NA,NA,NA
rOnjndhp,NA,NA,rOnjndhp,2020-0188,2021-09-30,17:38:35,18:59:54,NA,incomplete,false,true,NA,4,14,size,n_s_012.jpg,right,large,small,NA,NA,NA,right,1008,true,NA,NA,NA,NA,NA
rOnjndhp,NA,NA,rOnjndhp,2020-0188,2021-09-30,17:38:35,18:59:54,NA,incomplete,false,true,NA,4,15,origin,n_l_016.jpg,right,manmade,natural,NA,NA,NA,right,1128.00000000023,true,NA,NA,NA,NA,NA
rOnjndhp,NA,NA,rOnjndhp,2020-0188,2021-09-30,17:38:35,18:59:54,NA,incomplete,false,true,NA,4,16,origin,n_l_007.jpg,left,natural,manmade,NA,NA,NA,left,2794.00000000023,true,NA,NA,NA,NA,NA
rOnjndhp,NA,NA,rOnjndhp,2020-0188,2021-09-30,17:38:35,18:59:54,NA,incomplete,false,true,NA,4,17,origin,m_s_026.jpg,left,manmade,natural,NA,NA,NA,left,1339,true,NA,NA,NA,NA,NA
rOnjndhp,NA,NA,rOnjndhp,2020-0188,2021-09-30,17:38:35,18:59:54,NA,incomplete,false,true,NA,4,18,origin,m_l_008.jpg,left,manmade,natural,NA,NA,NA,left,3399,true,NA,NA,NA,NA,NA
rOnjndhp,NA,NA,rOnjndhp,2020-0188,2021-09-30,17:38:35,18:59:54,NA,incomplete,false,true,NA,4,19,origin,m_l_024.jpg,right,natural,manmade,NA,NA,NA,right,1575,true,NA,NA,NA,NA,NA
rOnjndhp,NA,NA,rOnjndhp,2020-0188,2021-09-30,17:38:35,18:59:54,NA,incomplete,false,true,NA,4,20,building,o_c_014.jpg,left,cottage,skyscraper,NA,NA,NA,left,1320,true,NA,NA,NA,NA,NA
rOnjndhp,NA,NA,rOnjndhp,2020-0188,2021-09-30,17:38:35,18:59:54,NA,incomplete,false,true,NA,4,21,building,i_s_016.jpg,right,cottage,skyscraper,NA,NA,NA,right,2413,true,NA,NA,NA,NA,NA
rOnjndhp,NA,NA,rOnjndhp,2020-0188,2021-09-30,17:38:35,18:59:54,NA,incomplete,false,true,NA,4,22,building,i_s_013.jpg,right,cottage,skyscraper,NA,NA,NA,right,1353,true,NA,NA,NA,NA,NA
rOnjndhp,NA,NA,rOnjndhp,2020-0188,2021-09-30,17:38:35,18:59:54,NA,incomplete,false,true,NA,4,23,building,o_s_021.jpg,right,cottage,skyscraper,NA,NA,NA,right,985,true,NA,NA,NA,NA,NA
rOnjndhp,NA,NA,rOnjndhp,2020-0188,2021-09-30,17:38:35,18:59:54,NA,incomplete,false,true,NA,4,24,building,o_c_007.jpg,left,cottage,skyscraper,NA,NA,NA,left,1222,true,NA,NA,NA,NA,NA
rOnjndhp,NA,NA,rOnjndhp,2020-0188,2021-09-30,17:38:35,18:59:54,NA,incomplete,false,true,NA,4,25,location,i_c_026.jpg,left,indoor,outdoor,NA,NA,NA,left,1554,true,NA,NA,NA,NA,NA
rOnjndhp,NA,NA,rOnjndhp,2020-0188,2021-09-30,17:38:35,18:59:54,NA,incomplete,false,true,NA,4,26,location,i_c_010.jpg,right,outdoor,indoor,NA,NA,NA,right,2178.99999999977,true,NA,NA,NA,NA,NA
rOnjndhp,NA,NA,rOnjndhp,2020-0188,2021-09-30,17:38:35,18:59:54,NA,incomplete,false,true,NA,4,27,location,i_c_019.jpg,left,indoor,outdoor,NA,NA,NA,left,1235,true,NA,NA,NA,NA,NA
rOnjndhp,NA,NA,rOnjndhp,2020-0188,2021-09-30,17:38:35,18:59:54,NA,incomplete,false,true,NA,4,28,location,o_c_008.jpg,right,indoor,outdoor,NA,NA,NA,right,1602,true,NA,NA,NA,NA,NA
rOnjndhp,NA,NA,rOnjndhp,2020-0188,2021-09-30,17:38:35,18:59:54,NA,incomplete,false,true,NA,4,29,location,i_c_028.jpg,left,indoor,outdoor,NA,NA,NA,left,1150,true,NA,NA,NA,NA,NA
rOnjndhp,NA,NA,rOnjndhp,2020-0188,2021-09-30,17:38:35,18:59:54,NA,incomplete,false,NA,true,4,0,NA,NA,right,NA,NA,i_s_013.jpg,m_l_024.jpg,between-big,NA,NaN,NA,right,2407.999999999767,1,2,1583.9999999997672
rOnjndhp,NA,NA,rOnjndhp,2020-0188,2021-09-30,17:38:35,18:59:54,NA,incomplete,false,NA,true,4,1,NA,NA,right,NA,NA,a_1_001.jpg,c_2_028.jpg,between-small,NA,NaN,NA,right,1219,1,1,2237.000000000233
rOnjndhp,NA,NA,rOnjndhp,2020-0188,2021-09-30,17:38:35,18:59:54,NA,incomplete,false,NA,true,4,2,NA,NA,left,NA,NA,m_l_008.jpg,i_s_016.jpg,between-big,NA,NaN,NA,left,1545.0000000002328,1,2,1388
rOnjndhp,NA,NA,rOnjndhp,2020-0188,2021-09-30,17:38:35,18:59:54,NA,incomplete,false,NA,true,4,3,NA,NA,left,NA,NA,c_1_019.jpg,a_2_021.jpg,between-small,NA,NaN,NA,left,2448,1,2,1451
rOnjndhp,NA,NA,rOnjndhp,2020-0188,2021-09-30,17:38:35,18:59:54,NA,incomplete,false,NA,true,4,4,NA,NA,right,NA,NA,n_l_016.jpg,n_l_020.jpg,between-small,NA,NaN,NA,right,2778,1,0,768
rOnjndhp,NA,NA,rOnjndhp,2020-0188,2021-09-30,17:38:35,18:59:54,NA,incomplete,false,NA,true,4,5,NA,NA,right,NA,NA,c_1_014.jpg,c_1_028.jpg,within,NA,NaN,NA,left,1665,0,1,2095.0000000004657
rOnjndhp,NA,NA,rOnjndhp,2020-0188,2021-09-30,17:38:35,18:59:54,NA,incomplete,false,NA,true,4,6,NA,NA,left,NA,NA,o_c_007.jpg,i_c_019.jpg,between-small,NA,NaN,NA,right,6692,0,1,4051
rOnjndhp,NA,NA,rOnjndhp,2020-0188,2021-09-30,17:38:35,18:59:54,NA,incomplete,false,NA,true,4,7,NA,NA,left,NA,NA,m_s_013.jpg,n_l_007.jpg,between-small,NA,NaN,NA,right,1883.0000000004657,0,1,2160
rOnjndhp,NA,NA,rOnjndhp,2020-0188,2021-09-30,17:38:35,18:59:54,NA,incomplete,false,NA,true,4,8,NA,NA,right,NA,NA,a_1_005.jpg,a_2_021.jpg,within,NA,NaN,NA,right,2019,1,0,2219.9999999995343
rOnjndhp,NA,NA,rOnjndhp,2020-0188,2021-09-30,17:38:35,18:59:54,NA,incomplete,false,NA,true,4,9,NA,NA,left,NA,NA,a_1_005.jpg,n_l_020.jpg,between-big,NA,NaN,NA,left,1302,1,1,2226
rOnjndhp,NA,NA,rOnjndhp,2020-0188,2021-09-30,17:38:35,18:59:54,NA,incomplete,false,NA,true,4,10,NA,NA,right,NA,NA,m_l_024.jpg,n_l_007.jpg,within,NA,NaN,NA,right,4622,1,0,3085.9999999995343
rOnjndhp,NA,NA,rOnjndhp,2020-0188,2021-09-30,17:38:35,18:59:54,NA,incomplete,false,NA,true,4,11,NA,NA,right,NA,NA,m_s_004.jpg,a_1_015.jpg,between-big,NA,NaN,NA,right,3690,1,2,2896.9999999995343
rOnjndhp,NA,NA,rOnjndhp,2020-0188,2021-09-30,17:38:35,18:59:54,NA,incomplete,false,NA,true,4,12,NA,NA,left,NA,NA,o_s_021.jpg,i_c_010.jpg,between-small,NA,NaN,NA,left,1081,1,2,3309
rOnjndhp,NA,NA,rOnjndhp,2020-0188,2021-09-30,17:38:35,18:59:54,NA,incomplete,false,NA,true,4,13,NA,NA,left,NA,NA,m_s_026.jpg,o_c_014.jpg,between-big,NA,NaN,NA,left,3387,1,2,1222
rOnjndhp,NA,NA,rOnjndhp,2020-0188,2021-09-30,17:38:35,18:59:54,NA,incomplete,false,NA,true,4,14,NA,NA,right,NA,NA,o_c_008.jpg,i_c_026.jpg,within,NA,NaN,NA,left,881,0,1,2146
rOnjndhp,NA,NA,rOnjndhp,2020-0188,2021-09-30,17:38:35,18:59:54,NA,incomplete,false,NA,true,4,15,NA,NA,left,NA,NA,a_1_001.jpg,a_1_015.jpg,within,NA,NaN,NA,left,2475,1,1,1669
rOnjndhp,NA,NA,rOnjndhp,2020-0188,2021-09-30,17:38:35,18:59:54,NA,incomplete,false,NA,true,4,16,NA,NA,right,NA,NA,m_s_026.jpg,n_s_012.jpg,between-small,NA,NaN,NA,right,1798,1,2,1380
rOnjndhp,NA,NA,rOnjndhp,2020-0188,2021-09-30,17:38:35,18:59:54,NA,incomplete,false,NA,true,4,17,NA,NA,right,NA,NA,n_l_028.jpg,c_1_010.jpg,between-big,NA,NaN,NA,left,1163,0,2,3899
rOnjndhp,NA,NA,rOnjndhp,2020-0188,2021-09-30,17:38:35,18:59:54,NA,incomplete,false,NA,true,4,18,NA,NA,left,NA,NA,n_l_016.jpg,m_l_008.jpg,within,NA,NaN,NA,right,1697,0,2,2458
rOnjndhp,NA,NA,rOnjndhp,2020-0188,2021-09-30,17:38:35,18:59:54,NA,incomplete,false,NA,true,4,19,NA,NA,right,NA,NA,c_1_019.jpg,c_1_016.jpg,within,NA,NaN,NA,left,1001,0,1,1898
rOnjndhp,NA,NA,rOnjndhp,2020-0188,2021-09-30,17:38:35,18:59:54,NA,incomplete,false,NA,true,4,20,NA,NA,left,NA,NA,i_s_013.jpg,i_c_026.jpg,between-small,NA,NaN,NA,left,1243,1,1,1108
rOnjndhp,NA,NA,rOnjndhp,2020-0188,2021-09-30,17:38:35,18:59:54,NA,incomplete,false,NA,true,4,21,NA,NA,right,NA,NA,o_s_021.jpg,o_c_014.jpg,within,NA,NaN,NA,left,1181,0,1,1283
rOnjndhp,NA,NA,rOnjndhp,2020-0188,2021-09-30,17:38:35,18:59:54,NA,incomplete,false,NA,true,4,22,NA,NA,left,NA,NA,c_1_014.jpg,c_1_010.jpg,between-small,NA,NaN,NA,left,990,1,1,1700
rOnjndhp,NA,NA,rOnjndhp,2020-0188,2021-09-30,17:38:35,18:59:54,NA,incomplete,false,NA,true,4,23,NA,NA,left,NA,NA,i_c_010.jpg,i_c_028.jpg,within,NA,NaN,NA,right,1166,0,1,1192
rOnjndhp,NA,NA,rOnjndhp,2020-0188,2021-09-30,17:38:35,18:59:54,NA,incomplete,false,NA,true,4,24,NA,NA,right,NA,NA,o_c_007.jpg,i_s_016.jpg,within,NA,NaN,NA,left,1006,0,2,7573
rOnjndhp,NA,NA,rOnjndhp,2020-0188,2021-09-30,17:38:35,18:59:54,NA,incomplete,false,NA,true,4,25,NA,NA,left,NA,NA,n_l_028.jpg,m_s_013.jpg,within,NA,NaN,NA,right,1253,0,2,1172
rOnjndhp,NA,NA,rOnjndhp,2020-0188,2021-09-30,17:38:35,18:59:54,NA,incomplete,false,NA,true,4,26,NA,NA,right,NA,NA,n_s_012.jpg,m_s_004.jpg,within,NA,NaN,NA,left,1019.0000000004657,0,1,1989
rOnjndhp,NA,NA,rOnjndhp,2020-0188,2021-09-30,17:38:35,18:59:54,NA,incomplete,false,true,NA,5,0,location,i_c_004.jpg,left,indoor,outdoor,NA,NA,NA,left,1492,true,NA,NA,NA,NA,NA
rOnjndhp,NA,NA,rOnjndhp,2020-0188,2021-09-30,17:38:35,18:59:54,NA,incomplete,false,true,NA,5,1,location,o_s_017.jpg,left,outdoor,indoor,NA,NA,NA,left,1808,true,NA,NA,NA,NA,NA
rOnjndhp,NA,NA,rOnjndhp,2020-0188,2021-09-30,17:38:35,18:59:54,NA,incomplete,false,true,NA,5,2,location,i_s_022.jpg,right,outdoor,indoor,NA,NA,NA,right,1214,true,NA,NA,NA,NA,NA
rOnjndhp,NA,NA,rOnjndhp,2020-0188,2021-09-30,17:38:35,18:59:54,NA,incomplete,false,true,NA,5,3,location,o_s_016.jpg,right,indoor,outdoor,NA,NA,NA,right,1370,true,NA,NA,NA,NA,NA
rOnjndhp,NA,NA,rOnjndhp,2020-0188,2021-09-30,17:38:35,18:59:54,NA,incomplete,false,true,NA,5,4,location,i_s_003.jpg,left,indoor,outdoor,NA,NA,NA,left,1440,true,NA,NA,NA,NA,NA
rOnjndhp,NA,NA,rOnjndhp,2020-0188,2021-09-30,17:38:35,18:59:54,NA,incomplete,false,true,NA,5,5,building,o_c_026.jpg,right,skyscraper,cottage,NA,NA,NA,right,1446,true,NA,NA,NA,NA,NA
rOnjndhp,NA,NA,rOnjndhp,2020-0188,2021-09-30,17:38:35,18:59:54,NA,incomplete,false,true,NA,5,6,building,i_c_009.jpg,right,skyscraper,cottage,NA,NA,NA,right,966.000000000466,true,NA,NA,NA,NA,NA
rOnjndhp,NA,NA,rOnjndhp,2020-0188,2021-09-30,17:38:35,18:59:54,NA,incomplete,false,true,NA,5,7,building,i_s_020.jpg,right,cottage,skyscraper,NA,NA,NA,right,1263,true,NA,NA,NA,NA,NA
rOnjndhp,NA,NA,rOnjndhp,2020-0188,2021-09-30,17:38:35,18:59:54,NA,incomplete,false,true,NA,5,8,building,o_s_006.jpg,left,skyscraper,cottage,NA,NA,NA,left,1816,true,NA,NA,NA,NA,NA
rOnjndhp,NA,NA,rOnjndhp,2020-0188,2021-09-30,17:38:35,18:59:54,NA,incomplete,false,true,NA,5,9,building,i_c_005.jpg,left,cottage,skyscraper,NA,NA,NA,left,1281,true,NA,NA,NA,NA,NA
rOnjndhp,NA,NA,rOnjndhp,2020-0188,2021-09-30,17:38:35,18:59:54,NA,incomplete,false,true,NA,5,10,syllable,c_2_027.jpg,right,1 syllable,2 syllables,NA,NA,NA,right,1788,true,NA,NA,NA,NA,NA
rOnjndhp,NA,NA,rOnjndhp,2020-0188,2021-09-30,17:38:35,18:59:54,NA,incomplete,false,true,NA,5,11,syllable,c_1_004.jpg,right,2 syllables,1 syllable,NA,NA,NA,right,1221,true,NA,NA,NA,NA,NA
rOnjndhp,NA,NA,rOnjndhp,2020-0188,2021-09-30,17:38:35,18:59:54,NA,incomplete,false,true,NA,5,12,syllable,a_1_003.jpg,right,2 syllables,1 syllable,NA,NA,NA,right,1726,true,NA,NA,NA,NA,NA
rOnjndhp,NA,NA,rOnjndhp,2020-0188,2021-09-30,17:38:35,18:59:54,NA,incomplete,false,true,NA,5,13,syllable,a_2_020.jpg,right,2 syllables,1 syllable,NA,NA,NA,left,984.000000000466,false,NA,NA,NA,NA,NA
rOnjndhp,NA,NA,rOnjndhp,2020-0188,2021-09-30,17:38:35,18:59:54,NA,incomplete,false,true,NA,5,14,syllable,a_1_016.jpg,right,2 syllables,1 syllable,NA,NA,NA,right,1008,true,NA,NA,NA,NA,NA
rOnjndhp,NA,NA,rOnjndhp,2020-0188,2021-09-30,17:38:35,18:59:54,NA,incomplete,false,true,NA,5,15,abstractness,c_2_023.jpg,right,abstract,concrete,NA,NA,NA,right,1147,true,NA,NA,NA,NA,NA
rOnjndhp,NA,NA,rOnjndhp,2020-0188,2021-09-30,17:38:35,18:59:54,NA,incomplete,false,true,NA,5,16,abstractness,c_1_021.jpg,right,abstract,concrete,NA,NA,NA,right,1333,true,NA,NA,NA,NA,NA
rOnjndhp,NA,NA,rOnjndhp,2020-0188,2021-09-30,17:38:35,18:59:54,NA,incomplete,false,true,NA,5,17,abstractness,a_2_019.jpg,right,concrete,abstract,NA,NA,NA,right,2478,true,NA,NA,NA,NA,NA
rOnjndhp,NA,NA,rOnjndhp,2020-0188,2021-09-30,17:38:35,18:59:54,NA,incomplete,false,true,NA,5,18,abstractness,c_2_016.jpg,left,concrete,abstract,NA,NA,NA,left,1260.99999999953,true,NA,NA,NA,NA,NA
rOnjndhp,NA,NA,rOnjndhp,2020-0188,2021-09-30,17:38:35,18:59:54,NA,incomplete,false,true,NA,5,19,abstractness,a_1_021.jpg,left,abstract,concrete,NA,NA,NA,left,1247,true,NA,NA,NA,NA,NA
rOnjndhp,NA,NA,rOnjndhp,2020-0188,2021-09-30,17:38:35,18:59:54,NA,incomplete,false,true,NA,5,20,size,n_s_019.jpg,left,small,large,NA,NA,NA,left,1013,true,NA,NA,NA,NA,NA
rOnjndhp,NA,NA,rOnjndhp,2020-0188,2021-09-30,17:38:35,18:59:54,NA,incomplete,false,true,NA,5,21,size,m_s_021.jpg,left,small,large,NA,NA,NA,left,1346,true,NA,NA,NA,NA,NA
rOnjndhp,NA,NA,rOnjndhp,2020-0188,2021-09-30,17:38:35,18:59:54,NA,incomplete,false,true,NA,5,22,size,m_l_021.jpg,left,large,small,NA,NA,NA,left,1389,true,NA,NA,NA,NA,NA
rOnjndhp,NA,NA,rOnjndhp,2020-0188,2021-09-30,17:38:35,18:59:54,NA,incomplete,false,true,NA,5,23,size,n_s_015.jpg,right,large,small,NA,NA,NA,right,1031,true,NA,NA,NA,NA,NA
rOnjndhp,NA,NA,rOnjndhp,2020-0188,2021-09-30,17:38:35,18:59:54,NA,incomplete,false,true,NA,5,24,size,n_l_021.jpg,left,large,small,NA,NA,NA,left,1543,true,NA,NA,NA,NA,NA
rOnjndhp,NA,NA,rOnjndhp,2020-0188,2021-09-30,17:38:35,18:59:54,NA,incomplete,false,true,NA,5,25,origin,m_s_012.jpg,left,manmade,natural,NA,NA,NA,left,1430.99999999953,true,NA,NA,NA,NA,NA
rOnjndhp,NA,NA,rOnjndhp,2020-0188,2021-09-30,17:38:35,18:59:54,NA,incomplete,false,true,NA,5,26,origin,m_l_004.jpg,left,manmade,natural,NA,NA,NA,left,1496,true,NA,NA,NA,NA,NA
rOnjndhp,NA,NA,rOnjndhp,2020-0188,2021-09-30,17:38:35,18:59:54,NA,incomplete,false,true,NA,5,27,origin,m_l_009.jpg,right,natural,manmade,NA,NA,NA,right,1115,true,NA,NA,NA,NA,NA
rOnjndhp,NA,NA,rOnjndhp,2020-0188,2021-09-30,17:38:35,18:59:54,NA,incomplete,false,true,NA,5,28,origin,m_l_013.jpg,right,natural,manmade,NA,NA,NA,right,1270,true,NA,NA,NA,NA,NA
rOnjndhp,NA,NA,rOnjndhp,2020-0188,2021-09-30,17:38:35,18:59:54,NA,incomplete,false,true,NA,5,29,origin,m_l_015.jpg,left,manmade,natural,NA,NA,NA,left,1078.99999999953,true,NA,NA,NA,NA,NA
rOnjndhp,NA,NA,rOnjndhp,2020-0188,2021-09-30,17:38:35,18:59:54,NA,incomplete,false,NA,true,5,0,NA,NA,left,NA,NA,n_s_019.jpg,n_s_015.jpg,within,NA,NaN,NA,left,2018,1,2,3002
rOnjndhp,NA,NA,rOnjndhp,2020-0188,2021-09-30,17:38:35,18:59:54,NA,incomplete,false,NA,true,5,1,NA,NA,right,NA,NA,o_s_016.jpg,i_c_004.jpg,within,NA,NaN,NA,left,1693,0,1,1132
rOnjndhp,NA,NA,rOnjndhp,2020-0188,2021-09-30,17:38:35,18:59:54,NA,incomplete,false,NA,true,5,2,NA,NA,left,NA,NA,i_s_020.jpg,c_2_027.jpg,between-big,NA,NaN,NA,left,2884,1,2,1818
rOnjndhp,NA,NA,rOnjndhp,2020-0188,2021-09-30,17:38:35,18:59:54,NA,incomplete,false,NA,true,5,3,NA,NA,right,NA,NA,a_1_021.jpg,c_1_021.jpg,within,NA,NaN,NA,left,1667,0,1,1058
rOnjndhp,NA,NA,rOnjndhp,2020-0188,2021-09-30,17:38:35,18:59:54,NA,incomplete,false,NA,true,5,4,NA,NA,right,NA,NA,c_2_023.jpg,a_1_003.jpg,between-small,NA,NaN,NA,left,1098,0,1,4722
rOnjndhp,NA,NA,rOnjndhp,2020-0188,2021-09-30,17:38:35,18:59:54,NA,incomplete,false,NA,true,5,5,NA,NA,left,NA,NA,n_s_015.jpg,m_l_004.jpg,between-small,NA,NaN,NA,left,3367,1,1,1686
rOnjndhp,NA,NA,rOnjndhp,2020-0188,2021-09-30,17:38:35,18:59:54,NA,incomplete,false,NA,true,5,6,NA,NA,left,NA,NA,a_2_019.jpg,n_s_019.jpg,between-big,NA,NaN,NA,left,1188,1,2,3092
rOnjndhp,NA,NA,rOnjndhp,2020-0188,2021-09-30,17:38:35,18:59:54,NA,incomplete,false,NA,true,5,7,NA,NA,right,NA,NA,c_2_016.jpg,c_2_023.jpg,within,NA,NaN,NA,right,2638,1,0,2091
rOnjndhp,NA,NA,rOnjndhp,2020-0188,2021-09-30,17:38:35,18:59:54,NA,incomplete,false,NA,true,5,8,NA,NA,right,NA,NA,m_l_013.jpg,m_s_012.jpg,within,NA,NaN,NA,right,2085.9999999995343,1,0,1283
rOnjndhp,NA,NA,rOnjndhp,2020-0188,2021-09-30,17:38:35,18:59:54,NA,incomplete,false,NA,true,5,9,NA,NA,left,NA,NA,o_s_017.jpg,i_s_003.jpg,within,NA,NaN,NA,right,2232,0,0,1906
rOnjndhp,NA,NA,rOnjndhp,2020-0188,2021-09-30,17:38:35,18:59:54,NA,incomplete,false,NA,true,5,10,NA,NA,right,NA,NA,o_s_006.jpg,o_c_026.jpg,within,NA,NaN,NA,left,1114,0,1,2018
rOnjndhp,NA,NA,rOnjndhp,2020-0188,2021-09-30,17:38:35,18:59:54,NA,incomplete,false,NA,true,5,11,NA,NA,right,NA,NA,a_1_016.jpg,c_1_004.jpg,within,NA,NaN,NA,left,1049,0,1,874
rOnjndhp,NA,NA,rOnjndhp,2020-0188,2021-09-30,17:38:35,18:59:54,NA,incomplete,false,NA,true,5,12,NA,NA,left,NA,NA,i_c_009.jpg,i_c_005.jpg,within,NA,NaN,NA,left,890,1,1,3231
rOnjndhp,NA,NA,rOnjndhp,2020-0188,2021-09-30,17:38:35,18:59:54,NA,incomplete,false,NA,true,5,13,NA,NA,right,NA,NA,c_1_004.jpg,o_s_006.jpg,between-big,NA,NaN,NA,right,913,1,2,1637
rOnjndhp,NA,NA,rOnjndhp,2020-0188,2021-09-30,17:38:35,18:59:54,NA,incomplete,false,NA,true,5,14,NA,NA,left,NA,NA,n_l_021.jpg,m_l_009.jpg,between-small,NA,NaN,NA,right,2179,0,2,3456
rOnjndhp,NA,NA,rOnjndhp,2020-0188,2021-09-30,17:38:35,18:59:54,NA,incomplete,false,NA,true,5,15,NA,NA,right,NA,NA,c_1_021.jpg,a_2_020.jpg,between-small,NA,NaN,NA,left,1223,0,1,1750
rOnjndhp,NA,NA,rOnjndhp,2020-0188,2021-09-30,17:38:35,18:59:54,NA,incomplete,false,NA,true,5,16,NA,NA,left,NA,NA,a_1_016.jpg,a_2_019.jpg,between-small,NA,NaN,NA,right,1854,0,1,1608
rOnjndhp,NA,NA,rOnjndhp,2020-0188,2021-09-30,17:38:35,18:59:54,NA,incomplete,false,NA,true,5,17,NA,NA,left,NA,NA,i_c_005.jpg,a_1_003.jpg,between-big,NA,NaN,NA,left,1569,1,1,1018
rOnjndhp,NA,NA,rOnjndhp,2020-0188,2021-09-30,17:38:35,18:59:54,NA,incomplete,false,NA,true,5,18,NA,NA,left,NA,NA,i_s_022.jpg,o_c_026.jpg,between-small,NA,NaN,NA,right,1192,0,1,2463
rOnjndhp,NA,NA,rOnjndhp,2020-0188,2021-09-30,17:38:35,18:59:54,NA,incomplete,false,NA,true,5,19,NA,NA,left,NA,NA,c_2_027.jpg,a_2_020.jpg,within,NA,NaN,NA,left,895,1,1,1715
rOnjndhp,NA,NA,rOnjndhp,2020-0188,2021-09-30,17:38:35,18:59:54,NA,incomplete,false,NA,true,5,20,NA,NA,right,NA,NA,m_s_021.jpg,c_2_016.jpg,between-big,NA,NaN,NA,left,1235,0,2,1166
rOnjndhp,NA,NA,rOnjndhp,2020-0188,2021-09-30,17:38:35,18:59:54,NA,incomplete,false,NA,true,5,21,NA,NA,left,NA,NA,o_s_016.jpg,i_c_009.jpg,between-small,NA,NaN,NA,left,846,1,1,2428.0000000004657
rOnjndhp,NA,NA,rOnjndhp,2020-0188,2021-09-30,17:38:35,18:59:54,NA,incomplete,false,NA,true,5,22,NA,NA,left,NA,NA,m_l_021.jpg,m_s_012.jpg,between-small,NA,NaN,NA,left,1605,1,2,4423.999999999534
rOnjndhp,NA,NA,rOnjndhp,2020-0188,2021-09-30,17:38:35,18:59:54,NA,incomplete,false,NA,true,5,23,NA,NA,left,NA,NA,a_1_021.jpg,m_l_021.jpg,between-big,NA,NaN,NA,left,6474,1,1,4789
rOnjndhp,NA,NA,rOnjndhp,2020-0188,2021-09-30,17:38:35,18:59:54,NA,incomplete,false,NA,true,5,24,NA,NA,left,NA,NA,m_s_021.jpg,n_l_021.jpg,within,NA,NaN,NA,left,1193,1,3,1630
rOnjndhp,NA,NA,rOnjndhp,2020-0188,2021-09-30,17:38:35,18:59:54,NA,incomplete,false,NA,true,5,25,NA,NA,left,NA,NA,i_s_003.jpg,i_s_020.jpg,between-small,NA,NaN,NA,left,988,1,2,618
rOnjndhp,NA,NA,rOnjndhp,2020-0188,2021-09-30,17:38:35,18:59:54,NA,incomplete,false,NA,true,5,26,NA,NA,left,NA,NA,m_l_004.jpg,m_l_015.jpg,within,NA,NaN,NA,right,1021,0,1,3101
rOnjndhp,NA,NA,rOnjndhp,2020-0188,2021-09-30,17:38:35,18:59:54,NA,incomplete,false,true,NA,6,0,location,i_s_023.jpg,right,outdoor,indoor,NA,NA,NA,right,1625,true,NA,NA,NA,NA,NA
rOnjndhp,NA,NA,rOnjndhp,2020-0188,2021-09-30,17:38:35,18:59:54,NA,incomplete,false,true,NA,6,1,location,i_c_012.jpg,left,indoor,outdoor,NA,NA,NA,left,1032,true,NA,NA,NA,NA,NA
rOnjndhp,NA,NA,rOnjndhp,2020-0188,2021-09-30,17:38:35,18:59:54,NA,incomplete,false,true,NA,6,2,location,i_s_017.jpg,left,indoor,outdoor,NA,NA,NA,left,742,true,NA,NA,NA,NA,NA
rOnjndhp,NA,NA,rOnjndhp,2020-0188,2021-09-30,17:38:35,18:59:54,NA,incomplete,false,true,NA,6,3,location,i_c_001.jpg,left,indoor,outdoor,NA,NA,NA,left,877.999999999534,true,NA,NA,NA,NA,NA
rOnjndhp,NA,NA,rOnjndhp,2020-0188,2021-09-30,17:38:35,18:59:54,NA,incomplete,false,true,NA,6,4,location,o_c_001.jpg,left,outdoor,indoor,NA,NA,NA,right,857.000000000466,false,NA,NA,NA,NA,NA
rOnjndhp,NA,NA,rOnjndhp,2020-0188,2021-09-30,17:38:35,18:59:54,NA,incomplete,false,true,NA,6,5,building,o_s_019.jpg,right,cottage,skyscraper,NA,NA,NA,right,1806,true,NA,NA,NA,NA,NA
rOnjndhp,NA,NA,rOnjndhp,2020-0188,2021-09-30,17:38:35,18:59:54,NA,incomplete,false,true,NA,6,6,building,i_s_025.jpg,left,skyscraper,cottage,NA,NA,NA,left,1383,true,NA,NA,NA,NA,NA
rOnjndhp,NA,NA,rOnjndhp,2020-0188,2021-09-30,17:38:35,18:59:54,NA,incomplete,false,true,NA,6,7,building,o_c_016.jpg,left,cottage,skyscraper,NA,NA,NA,left,1541,true,NA,NA,NA,NA,NA
rOnjndhp,NA,NA,rOnjndhp,2020-0188,2021-09-30,17:38:35,18:59:54,NA,incomplete,false,true,NA,6,8,building,i_s_024.jpg,right,cottage,skyscraper,NA,NA,NA,right,1639,true,NA,NA,NA,NA,NA
rOnjndhp,NA,NA,rOnjndhp,2020-0188,2021-09-30,17:38:35,18:59:54,NA,incomplete,false,true,NA,6,9,building,o_c_010.jpg,right,skyscraper,cottage,NA,NA,NA,right,1107,true,NA,NA,NA,NA,NA
rOnjndhp,NA,NA,rOnjndhp,2020-0188,2021-09-30,17:38:35,18:59:54,NA,incomplete,false,true,NA,6,10,size,m_l_018.jpg,right,small,large,NA,NA,NA,right,2059.99999999953,true,NA,NA,NA,NA,NA
rOnjndhp,NA,NA,rOnjndhp,2020-0188,2021-09-30,17:38:35,18:59:54,NA,incomplete,false,true,NA,6,11,size,n_l_014.jpg,right,small,large,NA,NA,NA,right,939,true,NA,NA,NA,NA,NA
rOnjndhp,NA,NA,rOnjndhp,2020-0188,2021-09-30,17:38:35,18:59:54,NA,incomplete,false,true,NA,6,12,size,m_s_009.jpg,left,small,large,NA,NA,NA,left,1273,true,NA,NA,NA,NA,NA
rOnjndhp,NA,NA,rOnjndhp,2020-0188,2021-09-30,17:38:35,18:59:54,NA,incomplete,false,true,NA,6,13,size,m_s_020.jpg,left,small,large,NA,NA,NA,left,871.999999999534,true,NA,NA,NA,NA,NA
rOnjndhp,NA,NA,rOnjndhp,2020-0188,2021-09-30,17:38:35,18:59:54,NA,incomplete,false,true,NA,6,14,size,n_s_011.jpg,right,large,small,NA,NA,NA,right,1264.00000000047,true,NA,NA,NA,NA,NA
rOnjndhp,NA,NA,rOnjndhp,2020-0188,2021-09-30,17:38:35,18:59:54,NA,incomplete,false,true,NA,6,15,origin,n_s_013.jpg,left,natural,manmade,NA,NA,NA,left,1548,true,NA,NA,NA,NA,NA
rOnjndhp,NA,NA,rOnjndhp,2020-0188,2021-09-30,17:38:35,18:59:54,NA,incomplete,false,true,NA,6,16,origin,n_l_012.jpg,left,natural,manmade,NA,NA,NA,left,1022,true,NA,NA,NA,NA,NA
rOnjndhp,NA,NA,rOnjndhp,2020-0188,2021-09-30,17:38:35,18:59:54,NA,incomplete,false,true,NA,6,17,origin,n_s_017.jpg,left,natural,manmade,NA,NA,NA,left,927.000000000466,true,NA,NA,NA,NA,NA
rOnjndhp,NA,NA,rOnjndhp,2020-0188,2021-09-30,17:38:35,18:59:54,NA,incomplete,false,true,NA,6,18,origin,n_s_001.jpg,right,manmade,natural,NA,NA,NA,right,996,true,NA,NA,NA,NA,NA
rOnjndhp,NA,NA,rOnjndhp,2020-0188,2021-09-30,17:38:35,18:59:54,NA,incomplete,false,true,NA,6,19,origin,m_s_025.jpg,left,manmade,natural,NA,NA,NA,left,1889.99999999953,true,NA,NA,NA,NA,NA
rOnjndhp,NA,NA,rOnjndhp,2020-0188,2021-09-30,17:38:35,18:59:54,NA,incomplete,false,true,NA,6,20,abstractness,a_2_015.jpg,left,abstract,concrete,NA,NA,NA,left,1979,true,NA,NA,NA,NA,NA
rOnjndhp,NA,NA,rOnjndhp,2020-0188,2021-09-30,17:38:35,18:59:54,NA,incomplete,false,true,NA,6,21,abstractness,c_2_024.jpg,right,abstract,concrete,NA,NA,NA,right,1398,true,NA,NA,NA,NA,NA
rOnjndhp,NA,NA,rOnjndhp,2020-0188,2021-09-30,17:38:35,18:59:54,NA,incomplete,false,true,NA,6,22,abstractness,a_2_006.jpg,left,abstract,concrete,NA,NA,NA,left,1772,true,NA,NA,NA,NA,NA
rOnjndhp,NA,NA,rOnjndhp,2020-0188,2021-09-30,17:38:35,18:59:54,NA,incomplete,false,true,NA,6,23,abstractness,c_1_012.jpg,right,abstract,concrete,NA,NA,NA,right,1195,true,NA,NA,NA,NA,NA
rOnjndhp,NA,NA,rOnjndhp,2020-0188,2021-09-30,17:38:35,18:59:54,NA,incomplete,false,true,NA,6,24,abstractness,a_1_027.jpg,left,abstract,concrete,NA,NA,NA,left,939,true,NA,NA,NA,NA,NA
rOnjndhp,NA,NA,rOnjndhp,2020-0188,2021-09-30,17:38:35,18:59:54,NA,incomplete,false,true,NA,6,25,syllable,c_2_003.jpg,right,1 syllable,2 syllables,NA,NA,NA,right,2279,true,NA,NA,NA,NA,NA
rOnjndhp,NA,NA,rOnjndhp,2020-0188,2021-09-30,17:38:35,18:59:54,NA,incomplete,false,true,NA,6,26,syllable,a_1_012.jpg,right,2 syllables,1 syllable,NA,NA,NA,right,1183.00000000047,true,NA,NA,NA,NA,NA
rOnjndhp,NA,NA,rOnjndhp,2020-0188,2021-09-30,17:38:35,18:59:54,NA,incomplete,false,true,NA,6,27,syllable,c_1_023.jpg,right,2 syllables,1 syllable,NA,NA,NA,right,1002.99999999953,true,NA,NA,NA,NA,NA
rOnjndhp,NA,NA,rOnjndhp,2020-0188,2021-09-30,17:38:35,18:59:54,NA,incomplete,false,true,NA,6,28,syllable,a_2_007.jpg,right,2 syllables,1 syllable,NA,NA,NA,left,1291,false,NA,NA,NA,NA,NA
rOnjndhp,NA,NA,rOnjndhp,2020-0188,2021-09-30,17:38:35,18:59:54,NA,incomplete,false,true,NA,6,29,syllable,a_1_013.jpg,right,2 syllables,1 syllable,NA,NA,NA,right,1336.00000000047,true,NA,NA,NA,NA,NA
rOnjndhp,NA,NA,rOnjndhp,2020-0188,2021-09-30,17:38:35,18:59:54,NA,incomplete,false,NA,true,6,0,NA,NA,right,NA,NA,m_s_025.jpg,n_l_012.jpg,within,NA,NaN,NA,right,8614,1,1,1974.0000000004657
rOnjndhp,NA,NA,rOnjndhp,2020-0188,2021-09-30,17:38:35,18:59:54,NA,incomplete,false,NA,true,6,1,NA,NA,right,NA,NA,a_2_006.jpg,m_s_025.jpg,between-big,NA,NaN,NA,right,2038,1,2,2506
rOnjndhp,NA,NA,rOnjndhp,2020-0188,2021-09-30,17:38:35,18:59:54,NA,incomplete,false,NA,true,6,2,NA,NA,left,NA,NA,o_c_001.jpg,o_c_016.jpg,between-small,NA,NaN,NA,left,2200,1,1,1732.9999999995343
rOnjndhp,NA,NA,rOnjndhp,2020-0188,2021-09-30,17:38:35,18:59:54,NA,incomplete,false,NA,true,6,3,NA,NA,right,NA,NA,n_s_011.jpg,n_l_014.jpg,within,NA,NaN,NA,right,1201,1,0,2258
rOnjndhp,NA,NA,rOnjndhp,2020-0188,2021-09-30,17:38:35,18:59:54,NA,incomplete,false,NA,true,6,4,NA,NA,left,NA,NA,n_s_017.jpg,a_2_015.jpg,between-big,NA,NaN,NA,left,2539,1,2,2188
rOnjndhp,NA,NA,rOnjndhp,2020-0188,2021-09-30,17:38:35,18:59:54,NA,incomplete,false,NA,true,6,5,NA,NA,left,NA,NA,m_s_009.jpg,n_s_013.jpg,between-small,NA,NaN,NA,left,1438,1,0,799
rOnjndhp,NA,NA,rOnjndhp,2020-0188,2021-09-30,17:38:35,18:59:54,NA,incomplete,false,NA,true,6,6,NA,NA,left,NA,NA,o_c_010.jpg,m_s_009.jpg,between-big,NA,NaN,NA,left,1465,1,2,684
rOnjndhp,NA,NA,rOnjndhp,2020-0188,2021-09-30,17:38:35,18:59:54,NA,incomplete,false,NA,true,6,7,NA,NA,right,NA,NA,n_l_012.jpg,m_s_020.jpg,between-small,NA,NaN,NA,right,1655,1,1,2725
rOnjndhp,NA,NA,rOnjndhp,2020-0188,2021-09-30,17:38:35,18:59:54,NA,incomplete,false,NA,true,6,8,NA,NA,left,NA,NA,i_s_025.jpg,o_c_010.jpg,within,NA,NaN,NA,left,1157.9999999995343,1,1,2815
rOnjndhp,NA,NA,rOnjndhp,2020-0188,2021-09-30,17:38:35,18:59:54,NA,incomplete,false,NA,true,6,9,NA,NA,right,NA,NA,n_l_014.jpg,i_s_024.jpg,between-big,NA,NaN,NA,right,1688.0000000004657,1,1,2621
rOnjndhp,NA,NA,rOnjndhp,2020-0188,2021-09-30,17:38:35,18:59:54,NA,incomplete,false,NA,true,6,10,NA,NA,left,NA,NA,n_s_013.jpg,n_s_001.jpg,within,NA,NaN,NA,left,1423,1,1,1960
rOnjndhp,NA,NA,rOnjndhp,2020-0188,2021-09-30,17:38:35,18:59:54,NA,incomplete,false,NA,true,6,11,NA,NA,left,NA,NA,i_s_023.jpg,i_c_001.jpg,within,NA,NaN,NA,right,9378,0,1,2399.9999999995343
rOnjndhp,NA,NA,rOnjndhp,2020-0188,2021-09-30,17:38:35,18:59:54,NA,incomplete,false,NA,true,6,12,NA,NA,right,NA,NA,c_2_003.jpg,a_2_006.jpg,between-small,NA,NaN,NA,left,1288,0,2,1022
rOnjndhp,NA,NA,rOnjndhp,2020-0188,2021-09-30,17:38:35,18:59:54,NA,incomplete,false,NA,true,6,13,NA,NA,right,NA,NA,a_1_027.jpg,c_2_024.jpg,within,NA,NaN,NA,right,1958,1,1,2574
rOnjndhp,NA,NA,rOnjndhp,2020-0188,2021-09-30,17:38:35,18:59:54,NA,incomplete,false,NA,true,6,14,NA,NA,right,NA,NA,o_c_001.jpg,i_c_012.jpg,within,NA,NaN,NA,left,958,0,1,1106.9999999995343
rOnjndhp,NA,NA,rOnjndhp,2020-0188,2021-09-30,17:38:35,18:59:54,NA,incomplete,false,NA,true,6,15,NA,NA,left,NA,NA,i_c_001.jpg,i_s_025.jpg,between-small,NA,NaN,NA,right,1825,0,2,2116
rOnjndhp,NA,NA,rOnjndhp,2020-0188,2021-09-30,17:38:35,18:59:54,NA,incomplete,false,NA,true,6,16,NA,NA,left,NA,NA,i_s_017.jpg,o_s_019.jpg,between-small,NA,NaN,NA,left,1241,1,2,1194
rOnjndhp,NA,NA,rOnjndhp,2020-0188,2021-09-30,17:38:35,18:59:54,NA,incomplete,false,NA,true,6,17,NA,NA,left,NA,NA,o_c_016.jpg,m_l_018.jpg,between-big,NA,NaN,NA,left,1382,1,0,2481
rOnjndhp,NA,NA,rOnjndhp,2020-0188,2021-09-30,17:38:35,18:59:54,NA,incomplete,false,NA,true,6,18,NA,NA,right,NA,NA,m_s_020.jpg,m_l_018.jpg,within,NA,NaN,NA,right,7925.999999999534,1,1,1240
rOnjndhp,NA,NA,rOnjndhp,2020-0188,2021-09-30,17:38:35,18:59:54,NA,incomplete,false,NA,true,6,19,NA,NA,left,NA,NA,n_s_011.jpg,n_s_017.jpg,between-small,NA,NaN,NA,left,1815,1,0,1696
rOnjndhp,NA,NA,rOnjndhp,2020-0188,2021-09-30,17:38:35,18:59:54,NA,incomplete,false,NA,true,6,20,NA,NA,left,NA,NA,n_s_001.jpg,c_2_024.jpg,between-big,NA,NaN,NA,left,1018,1,1,2101
rOnjndhp,NA,NA,rOnjndhp,2020-0188,2021-09-30,17:38:35,18:59:54,NA,incomplete,false,NA,true,6,21,NA,NA,right,NA,NA,c_1_012.jpg,a_2_015.jpg,within,NA,NaN,NA,left,1369,0,0,2016
rOnjndhp,NA,NA,rOnjndhp,2020-0188,2021-09-30,17:38:35,18:59:54,NA,incomplete,false,NA,true,6,22,NA,NA,right,NA,NA,a_1_013.jpg,a_1_012.jpg,within,NA,NaN,NA,right,1659.9999999995343,1,1,1159
rOnjndhp,NA,NA,rOnjndhp,2020-0188,2021-09-30,17:38:35,18:59:54,NA,incomplete,false,NA,true,6,23,NA,NA,left,NA,NA,a_1_027.jpg,c_1_023.jpg,between-small,NA,NaN,NA,left,892.0000000004657,1,1,926
rOnjndhp,NA,NA,rOnjndhp,2020-0188,2021-09-30,17:38:35,18:59:54,NA,incomplete,false,NA,true,6,24,NA,NA,left,NA,NA,c_1_012.jpg,a_1_012.jpg,between-small,NA,NaN,NA,left,1123.9999999995343,1,1,735
rOnjndhp,NA,NA,rOnjndhp,2020-0188,2021-09-30,17:38:35,18:59:54,NA,incomplete,false,NA,true,6,25,NA,NA,right,NA,NA,a_2_007.jpg,c_2_003.jpg,within,NA,NaN,NA,right,1563,1,1,2641
rOnjndhp,NA,NA,rOnjndhp,2020-0188,2021-09-30,17:38:35,18:59:54,NA,incomplete,false,NA,true,6,26,NA,NA,left,NA,NA,o_s_019.jpg,i_s_024.jpg,within,NA,NaN,NA,right,3790,0,1,824
rOnjndhp,NA,NA,rOnjndhp,2020-0188,2021-09-30,17:38:35,18:59:54,NA,incomplete,false,true,NA,7,0,location,o_c_009.jpg,left,outdoor,indoor,NA,NA,NA,left,1709,true,NA,NA,NA,NA,NA
rOnjndhp,NA,NA,rOnjndhp,2020-0188,2021-09-30,17:38:35,18:59:54,NA,incomplete,false,true,NA,7,1,location,o_s_027.jpg,left,outdoor,indoor,NA,NA,NA,left,1261,true,NA,NA,NA,NA,NA
rOnjndhp,NA,NA,rOnjndhp,2020-0188,2021-09-30,17:38:35,18:59:54,NA,incomplete,false,true,NA,7,2,location,i_s_001.jpg,right,outdoor,indoor,NA,NA,NA,right,1071,true,NA,NA,NA,NA,NA
rOnjndhp,NA,NA,rOnjndhp,2020-0188,2021-09-30,17:38:35,18:59:54,NA,incomplete,false,true,NA,7,3,location,i_c_025.jpg,left,indoor,outdoor,NA,NA,NA,left,1134,true,NA,NA,NA,NA,NA
rOnjndhp,NA,NA,rOnjndhp,2020-0188,2021-09-30,17:38:35,18:59:54,NA,incomplete,false,true,NA,7,4,location,i_s_008.jpg,right,outdoor,indoor,NA,NA,NA,right,1349,true,NA,NA,NA,NA,NA
rOnjndhp,NA,NA,rOnjndhp,2020-0188,2021-09-30,17:38:35,18:59:54,NA,incomplete,false,true,NA,7,5,building,i_s_012.jpg,right,cottage,skyscraper,NA,NA,NA,right,1386,true,NA,NA,NA,NA,NA
rOnjndhp,NA,NA,rOnjndhp,2020-0188,2021-09-30,17:38:35,18:59:54,NA,incomplete,false,true,NA,7,6,building,i_c_018.jpg,left,cottage,skyscraper,NA,NA,NA,left,3485.00000000047,true,NA,NA,NA,NA,NA
rOnjndhp,NA,NA,rOnjndhp,2020-0188,2021-09-30,17:38:35,18:59:54,NA,incomplete,false,true,NA,7,7,building,i_c_016.jpg,right,skyscraper,cottage,NA,NA,NA,right,1199,true,NA,NA,NA,NA,NA
rOnjndhp,NA,NA,rOnjndhp,2020-0188,2021-09-30,17:38:35,18:59:54,NA,incomplete,false,true,NA,7,8,building,o_s_023.jpg,right,cottage,skyscraper,NA,NA,NA,right,2425.99999999953,true,NA,NA,NA,NA,NA
rOnjndhp,NA,NA,rOnjndhp,2020-0188,2021-09-30,17:38:35,18:59:54,NA,incomplete,false,true,NA,7,9,building,o_s_003.jpg,left,skyscraper,cottage,NA,NA,NA,left,1555,true,NA,NA,NA,NA,NA
rOnjndhp,NA,NA,rOnjndhp,2020-0188,2021-09-30,17:38:35,18:59:54,NA,incomplete,false,true,NA,7,10,size,m_s_017.jpg,right,large,small,NA,NA,NA,right,1130,true,NA,NA,NA,NA,NA
rOnjndhp,NA,NA,rOnjndhp,2020-0188,2021-09-30,17:38:35,18:59:54,NA,incomplete,false,true,NA,7,11,size,n_s_003.jpg,left,small,large,NA,NA,NA,left,1285,true,NA,NA,NA,NA,NA
rOnjndhp,NA,NA,rOnjndhp,2020-0188,2021-09-30,17:38:35,18:59:54,NA,incomplete,false,true,NA,7,12,size,n_s_026.jpg,right,large,small,NA,NA,NA,right,1555,true,NA,NA,NA,NA,NA
rOnjndhp,NA,NA,rOnjndhp,2020-0188,2021-09-30,17:38:35,18:59:54,NA,incomplete,false,true,NA,7,13,size,n_l_019.jpg,left,large,small,NA,NA,NA,right,1256.00000000047,false,NA,NA,NA,NA,NA
rOnjndhp,NA,NA,rOnjndhp,2020-0188,2021-09-30,17:38:35,18:59:54,NA,incomplete,false,true,NA,7,14,size,m_s_022.jpg,right,large,small,NA,NA,NA,right,1634,true,NA,NA,NA,NA,NA
rOnjndhp,NA,NA,rOnjndhp,2020-0188,2021-09-30,17:38:35,18:59:54,NA,incomplete,false,true,NA,7,15,origin,m_l_022.jpg,left,manmade,natural,NA,NA,NA,left,1287.00000000047,true,NA,NA,NA,NA,NA
rOnjndhp,NA,NA,rOnjndhp,2020-0188,2021-09-30,17:38:35,18:59:54,NA,incomplete,false,true,NA,7,16,origin,n_s_023.jpg,left,natural,manmade,NA,NA,NA,left,1385,true,NA,NA,NA,NA,NA
rOnjndhp,NA,NA,rOnjndhp,2020-0188,2021-09-30,17:38:35,18:59:54,NA,incomplete,false,true,NA,7,17,origin,m_s_011.jpg,right,natural,manmade,NA,NA,NA,right,1034,true,NA,NA,NA,NA,NA
rOnjndhp,NA,NA,rOnjndhp,2020-0188,2021-09-30,17:38:35,18:59:54,NA,incomplete,false,true,NA,7,18,origin,m_s_006.jpg,left,manmade,natural,NA,NA,NA,left,1279,true,NA,NA,NA,NA,NA
rOnjndhp,NA,NA,rOnjndhp,2020-0188,2021-09-30,17:38:35,18:59:54,NA,incomplete,false,true,NA,7,19,origin,n_s_008.jpg,left,natural,manmade,NA,NA,NA,left,1100,true,NA,NA,NA,NA,NA
rOnjndhp,NA,NA,rOnjndhp,2020-0188,2021-09-30,17:38:35,18:59:54,NA,incomplete,false,true,NA,7,20,syllable,a_2_013.jpg,right,1 syllable,2 syllables,NA,NA,NA,right,1304,true,NA,NA,NA,NA,NA
rOnjndhp,NA,NA,rOnjndhp,2020-0188,2021-09-30,17:38:35,18:59:54,NA,incomplete,false,true,NA,7,21,syllable,a_2_027.jpg,right,1 syllable,2 syllables,NA,NA,NA,right,1036,true,NA,NA,NA,NA,NA
rOnjndhp,NA,NA,rOnjndhp,2020-0188,2021-09-30,17:38:35,18:59:54,NA,incomplete,false,true,NA,7,22,syllable,a_1_028.jpg,right,2 syllables,1 syllable,NA,NA,NA,right,1253,true,NA,NA,NA,NA,NA
rOnjndhp,NA,NA,rOnjndhp,2020-0188,2021-09-30,17:38:35,18:59:54,NA,incomplete,false,true,NA,7,23,syllable,c_1_027.jpg,right,2 syllables,1 syllable,NA,NA,NA,right,991,true,NA,NA,NA,NA,NA
rOnjndhp,NA,NA,rOnjndhp,2020-0188,2021-09-30,17:38:35,18:59:54,NA,incomplete,false,true,NA,7,24,syllable,a_1_007.jpg,right,2 syllables,1 syllable,NA,NA,NA,right,1760,true,NA,NA,NA,NA,NA
rOnjndhp,NA,NA,rOnjndhp,2020-0188,2021-09-30,17:38:35,18:59:54,NA,incomplete,false,true,NA,7,25,abstractness,a_1_010.jpg,right,concrete,abstract,NA,NA,NA,right,2498,true,NA,NA,NA,NA,NA
rOnjndhp,NA,NA,rOnjndhp,2020-0188,2021-09-30,17:38:35,18:59:54,NA,incomplete,false,true,NA,7,26,abstractness,c_2_006.jpg,right,abstract,concrete,NA,NA,NA,right,2866,true,NA,NA,NA,NA,NA
rOnjndhp,NA,NA,rOnjndhp,2020-0188,2021-09-30,17:38:35,18:59:54,NA,incomplete,false,true,NA,7,27,abstractness,a_2_004.jpg,left,abstract,concrete,NA,NA,NA,left,1085,true,NA,NA,NA,NA,NA
rOnjndhp,NA,NA,rOnjndhp,2020-0188,2021-09-30,17:38:35,18:59:54,NA,incomplete,false,true,NA,7,28,abstractness,a_1_023.jpg,left,abstract,concrete,NA,NA,NA,left,1414.00000000047,true,NA,NA,NA,NA,NA
rOnjndhp,NA,NA,rOnjndhp,2020-0188,2021-09-30,17:38:35,18:59:54,NA,incomplete,false,true,NA,7,29,abstractness,a_2_016.jpg,left,abstract,concrete,NA,NA,NA,left,1749,true,NA,NA,NA,NA,NA
rOnjndhp,NA,NA,rOnjndhp,2020-0188,2021-09-30,17:38:35,18:59:54,NA,incomplete,false,NA,true,7,0,NA,NA,right,NA,NA,i_c_016.jpg,i_s_008.jpg,between-small,NA,NaN,NA,left,1713.9999999995343,0,1,1303
rOnjndhp,NA,NA,rOnjndhp,2020-0188,2021-09-30,17:38:35,18:59:54,NA,incomplete,false,NA,true,7,1,NA,NA,right,NA,NA,m_l_022.jpg,n_s_026.jpg,between-small,NA,NaN,NA,left,8715.000000000466,0,2,2295
rOnjndhp,NA,NA,rOnjndhp,2020-0188,2021-09-30,17:38:35,18:59:54,NA,incomplete,false,NA,true,7,2,NA,NA,left,NA,NA,m_s_006.jpg,a_2_027.jpg,between-big,NA,NaN,NA,left,1856,1,2,3952
rOnjndhp,NA,NA,rOnjndhp,2020-0188,2021-09-30,17:38:35,18:59:54,NA,incomplete,false,NA,true,7,3,NA,NA,right,NA,NA,n_s_023.jpg,n_l_019.jpg,between-small,NA,NaN,NA,right,1884,1,2,2659
rOnjndhp,NA,NA,rOnjndhp,2020-0188,2021-09-30,17:38:35,18:59:54,NA,incomplete,false,NA,true,7,4,NA,NA,left,NA,NA,a_2_013.jpg,c_1_027.jpg,within,NA,NaN,NA,right,3181,0,1,1131
rOnjndhp,NA,NA,rOnjndhp,2020-0188,2021-09-30,17:38:35,18:59:54,NA,incomplete,false,NA,true,7,5,NA,NA,right,NA,NA,a_2_016.jpg,c_2_006.jpg,within,NA,NaN,NA,left,1940,0,0,4581
rOnjndhp,NA,NA,rOnjndhp,2020-0188,2021-09-30,17:38:35,18:59:54,NA,incomplete,false,NA,true,7,6,NA,NA,right,NA,NA,a_2_004.jpg,a_1_007.jpg,between-small,NA,NaN,NA,right,3739.0000000004657,1,1,1159
rOnjndhp,NA,NA,rOnjndhp,2020-0188,2021-09-30,17:38:35,18:59:54,NA,incomplete,false,NA,true,7,7,NA,NA,left,NA,NA,n_s_008.jpg,a_1_028.jpg,between-big,NA,NaN,NA,left,992.9999999995343,1,2,1245
rOnjndhp,NA,NA,rOnjndhp,2020-0188,2021-09-30,17:38:35,18:59:54,NA,incomplete,false,NA,true,7,8,NA,NA,left,NA,NA,c_1_027.jpg,c_2_006.jpg,between-small,NA,NaN,NA,left,841,1,1,1380
rOnjndhp,NA,NA,rOnjndhp,2020-0188,2021-09-30,17:38:35,18:59:54,NA,incomplete,false,NA,true,7,9,NA,NA,right,NA,NA,o_s_003.jpg,i_c_018.jpg,within,NA,NaN,NA,left,815,0,1,1545
rOnjndhp,NA,NA,rOnjndhp,2020-0188,2021-09-30,17:38:35,18:59:54,NA,incomplete,false,NA,true,7,10,NA,NA,right,NA,NA,m_s_006.jpg,m_l_022.jpg,within,NA,NaN,NA,right,1560,1,2,691
rOnjndhp,NA,NA,rOnjndhp,2020-0188,2021-09-30,17:38:35,18:59:54,NA,incomplete,false,NA,true,7,11,NA,NA,left,NA,NA,i_s_001.jpg,i_s_012.jpg,between-small,NA,NaN,NA,left,729,1,1,2565
rOnjndhp,NA,NA,rOnjndhp,2020-0188,2021-09-30,17:38:35,18:59:54,NA,incomplete,false,NA,true,7,12,NA,NA,left,NA,NA,m_s_017.jpg,n_l_019.jpg,within,NA,NaN,NA,left,1756,1,2,1549
rOnjndhp,NA,NA,rOnjndhp,2020-0188,2021-09-30,17:38:35,18:59:54,NA,incomplete,false,NA,true,7,13,NA,NA,left,NA,NA,a_1_010.jpg,a_1_023.jpg,within,NA,NaN,NA,left,751,1,1,2001.0000000004657
rOnjndhp,NA,NA,rOnjndhp,2020-0188,2021-09-30,17:38:35,18:59:54,NA,incomplete,false,NA,true,7,14,NA,NA,right,NA,NA,n_s_026.jpg,o_s_003.jpg,between-big,NA,NaN,NA,right,1413,1,2,690
rOnjndhp,NA,NA,rOnjndhp,2020-0188,2021-09-30,17:38:35,18:59:54,NA,incomplete,false,NA,true,7,15,NA,NA,left,NA,NA,m_s_011.jpg,a_2_013.jpg,between-big,NA,NaN,NA,left,904,1,2,851
rOnjndhp,NA,NA,rOnjndhp,2020-0188,2021-09-30,17:38:35,18:59:54,NA,incomplete,false,NA,true,7,16,NA,NA,right,NA,NA,i_c_025.jpg,o_c_009.jpg,within,NA,NaN,NA,left,2068,0,1,1220.0000000004657
rOnjndhp,NA,NA,rOnjndhp,2020-0188,2021-09-30,17:38:35,18:59:54,NA,incomplete,false,NA,true,7,17,NA,NA,right,NA,NA,m_s_011.jpg,m_s_022.jpg,between-small,NA,NaN,NA,right,1635,1,1,1516
rOnjndhp,NA,NA,rOnjndhp,2020-0188,2021-09-30,17:38:35,18:59:54,NA,incomplete,false,NA,true,7,18,NA,NA,left,NA,NA,o_s_023.jpg,n_s_003.jpg,between-big,NA,NaN,NA,left,2149,1,1,2742
rOnjndhp,NA,NA,rOnjndhp,2020-0188,2021-09-30,17:38:35,18:59:54,NA,incomplete,false,NA,true,7,19,NA,NA,right,NA,NA,a_1_010.jpg,a_1_028.jpg,between-small,NA,NaN,NA,left,2991,0,0,5333.999999999534
rOnjndhp,NA,NA,rOnjndhp,2020-0188,2021-09-30,17:38:35,18:59:54,NA,incomplete,false,NA,true,7,20,NA,NA,right,NA,NA,m_s_017.jpg,i_c_016.jpg,between-big,NA,NaN,NA,right,2579,1,0,2852
rOnjndhp,NA,NA,rOnjndhp,2020-0188,2021-09-30,17:38:35,18:59:54,NA,incomplete,false,NA,true,7,21,NA,NA,left,NA,NA,n_s_003.jpg,m_s_022.jpg,within,NA,NaN,NA,left,2063,1,0,918
rOnjndhp,NA,NA,rOnjndhp,2020-0188,2021-09-30,17:38:35,18:59:54,NA,incomplete,false,NA,true,7,22,NA,NA,left,NA,NA,o_s_027.jpg,i_s_008.jpg,within,NA,NaN,NA,left,2014,1,1,2578
rOnjndhp,NA,NA,rOnjndhp,2020-0188,2021-09-30,17:38:35,18:59:54,NA,incomplete,false,NA,true,7,23,NA,NA,right,NA,NA,o_s_023.jpg,i_s_012.jpg,within,NA,NaN,NA,left,1914,0,1,683.0000000004657
rOnjndhp,NA,NA,rOnjndhp,2020-0188,2021-09-30,17:38:35,18:59:54,NA,incomplete,false,NA,true,7,24,NA,NA,left,NA,NA,a_2_027.jpg,a_1_007.jpg,within,NA,NaN,NA,right,1093.0000000004657,0,2,1312
rOnjndhp,NA,NA,rOnjndhp,2020-0188,2021-09-30,17:38:35,18:59:54,NA,incomplete,false,NA,true,7,25,NA,NA,left,NA,NA,i_c_025.jpg,i_c_018.jpg,between-small,NA,NaN,NA,left,846,1,1,3711
rOnjndhp,NA,NA,rOnjndhp,2020-0188,2021-09-30,17:38:35,18:59:54,NA,incomplete,false,NA,true,7,26,NA,NA,right,NA,NA,n_s_008.jpg,n_s_023.jpg,within,NA,NaN,NA,left,2041,0,2,2898
rOnjndhp,NA,NA,rOnjndhp,2020-0188,2021-09-30,17:38:35,18:59:54,NA,incomplete,false,true,NA,8,0,abstractness,c_2_012.jpg,right,abstract,concrete,NA,NA,NA,right,2206.00000000047,true,NA,NA,NA,NA,NA
rOnjndhp,NA,NA,rOnjndhp,2020-0188,2021-09-30,17:38:35,18:59:54,NA,incomplete,false,true,NA,8,1,abstractness,a_1_024.jpg,left,abstract,concrete,NA,NA,NA,left,996,true,NA,NA,NA,NA,NA
rOnjndhp,NA,NA,rOnjndhp,2020-0188,2021-09-30,17:38:35,18:59:54,NA,incomplete,false,true,NA,8,2,abstractness,a_1_025.jpg,right,concrete,abstract,NA,NA,NA,right,1472,true,NA,NA,NA,NA,NA
rOnjndhp,NA,NA,rOnjndhp,2020-0188,2021-09-30,17:38:35,18:59:54,NA,incomplete,false,true,NA,8,3,abstractness,c_2_007.jpg,right,abstract,concrete,NA,NA,NA,right,2132.00000000047,true,NA,NA,NA,NA,NA
rOnjndhp,NA,NA,rOnjndhp,2020-0188,2021-09-30,17:38:35,18:59:54,NA,incomplete,false,true,NA,8,4,abstractness,c_2_015.jpg,right,abstract,concrete,NA,NA,NA,right,1529.99999999953,true,NA,NA,NA,NA,NA
rOnjndhp,NA,NA,rOnjndhp,2020-0188,2021-09-30,17:38:35,18:59:54,NA,incomplete,false,true,NA,8,5,syllable,a_2_009.jpg,right,2 syllables,1 syllable,NA,NA,NA,left,1637.00000000047,false,NA,NA,NA,NA,NA
rOnjndhp,NA,NA,rOnjndhp,2020-0188,2021-09-30,17:38:35,18:59:54,NA,incomplete,false,true,NA,8,6,syllable,a_1_002.jpg,right,1 syllable,2 syllables,NA,NA,NA,left,1261,false,NA,NA,NA,NA,NA
rOnjndhp,NA,NA,rOnjndhp,2020-0188,2021-09-30,17:38:35,18:59:54,NA,incomplete,false,true,NA,8,7,syllable,a_2_025.jpg,right,1 syllable,2 syllables,NA,NA,NA,right,1029,true,NA,NA,NA,NA,NA
rOnjndhp,NA,NA,rOnjndhp,2020-0188,2021-09-30,17:38:35,18:59:54,NA,incomplete,false,true,NA,8,8,syllable,a_2_017.jpg,right,1 syllable,2 syllables,NA,NA,NA,right,1100,true,NA,NA,NA,NA,NA
rOnjndhp,NA,NA,rOnjndhp,2020-0188,2021-09-30,17:38:35,18:59:54,NA,incomplete,false,true,NA,8,9,syllable,c_2_013.jpg,right,1 syllable,2 syllables,NA,NA,NA,right,1054,true,NA,NA,NA,NA,NA
rOnjndhp,NA,NA,rOnjndhp,2020-0188,2021-09-30,17:38:35,18:59:54,NA,incomplete,false,true,NA,8,10,location,o_s_025.jpg,left,outdoor,indoor,NA,NA,NA,left,1368,true,NA,NA,NA,NA,NA
rOnjndhp,NA,NA,rOnjndhp,2020-0188,2021-09-30,17:38:35,18:59:54,NA,incomplete,false,true,NA,8,11,location,o_s_014.jpg,left,outdoor,indoor,NA,NA,NA,left,1260,true,NA,NA,NA,NA,NA
rOnjndhp,NA,NA,rOnjndhp,2020-0188,2021-09-30,17:38:35,18:59:54,NA,incomplete,false,true,NA,8,12,location,i_s_026.jpg,right,outdoor,indoor,NA,NA,NA,right,1033.99999999953,true,NA,NA,NA,NA,NA
rOnjndhp,NA,NA,rOnjndhp,2020-0188,2021-09-30,17:38:35,18:59:54,NA,incomplete,false,true,NA,8,13,location,o_c_021.jpg,left,outdoor,indoor,NA,NA,NA,left,1386,true,NA,NA,NA,NA,NA
rOnjndhp,NA,NA,rOnjndhp,2020-0188,2021-09-30,17:38:35,18:59:54,NA,incomplete,false,true,NA,8,14,location,i_s_014.jpg,left,indoor,outdoor,NA,NA,NA,left,1011.99999999953,true,NA,NA,NA,NA,NA
rOnjndhp,NA,NA,rOnjndhp,2020-0188,2021-09-30,17:38:35,18:59:54,NA,incomplete,false,true,NA,8,15,building,o_c_028.jpg,left,cottage,skyscraper,NA,NA,NA,left,1416,true,NA,NA,NA,NA,NA
rOnjndhp,NA,NA,rOnjndhp,2020-0188,2021-09-30,17:38:35,18:59:54,NA,incomplete,false,true,NA,8,16,building,i_c_024.jpg,right,skyscraper,cottage,NA,NA,NA,right,1565,true,NA,NA,NA,NA,NA
rOnjndhp,NA,NA,rOnjndhp,2020-0188,2021-09-30,17:38:35,18:59:54,NA,incomplete,false,true,NA,8,17,building,o_s_028.jpg,left,skyscraper,cottage,NA,NA,NA,left,1785,true,NA,NA,NA,NA,NA
rOnjndhp,NA,NA,rOnjndhp,2020-0188,2021-09-30,17:38:35,18:59:54,NA,incomplete,false,true,NA,8,18,building,o_s_010.jpg,right,cottage,skyscraper,NA,NA,NA,right,1301.00000000047,true,NA,NA,NA,NA,NA
rOnjndhp,NA,NA,rOnjndhp,2020-0188,2021-09-30,17:38:35,18:59:54,NA,incomplete,false,true,NA,8,19,building,i_s_004.jpg,right,cottage,skyscraper,NA,NA,NA,right,1041,true,NA,NA,NA,NA,NA
rOnjndhp,NA,NA,rOnjndhp,2020-0188,2021-09-30,17:38:35,18:59:54,NA,incomplete,false,true,NA,8,20,origin,m_s_014.jpg,right,natural,manmade,NA,NA,NA,right,1635.00000000047,true,NA,NA,NA,NA,NA
rOnjndhp,NA,NA,rOnjndhp,2020-0188,2021-09-30,17:38:35,18:59:54,NA,incomplete,false,true,NA,8,21,origin,n_l_001.jpg,left,natural,manmade,NA,NA,NA,left,1474.00000000047,true,NA,NA,NA,NA,NA
rOnjndhp,NA,NA,rOnjndhp,2020-0188,2021-09-30,17:38:35,18:59:54,NA,incomplete,false,true,NA,8,22,origin,n_s_006.jpg,right,manmade,natural,NA,NA,NA,right,1504,true,NA,NA,NA,NA,NA
rOnjndhp,NA,NA,rOnjndhp,2020-0188,2021-09-30,17:38:35,18:59:54,NA,incomplete,false,true,NA,8,23,origin,n_l_006.jpg,right,manmade,natural,NA,NA,NA,right,1170,true,NA,NA,NA,NA,NA
rOnjndhp,NA,NA,rOnjndhp,2020-0188,2021-09-30,17:38:35,18:59:54,NA,incomplete,false,true,NA,8,24,origin,n_l_015.jpg,left,natural,manmade,NA,NA,NA,left,2288,true,NA,NA,NA,NA,NA
rOnjndhp,NA,NA,rOnjndhp,2020-0188,2021-09-30,17:38:35,18:59:54,NA,incomplete,false,true,NA,8,25,size,n_s_018.jpg,left,small,large,NA,NA,NA,left,1343,true,NA,NA,NA,NA,NA
rOnjndhp,NA,NA,rOnjndhp,2020-0188,2021-09-30,17:38:35,18:59:54,NA,incomplete,false,true,NA,8,26,size,m_l_011.jpg,right,small,large,NA,NA,NA,left,2799,false,NA,NA,NA,NA,NA
rOnjndhp,NA,NA,rOnjndhp,2020-0188,2021-09-30,17:38:35,18:59:54,NA,incomplete,false,true,NA,8,27,size,m_s_015.jpg,left,small,large,NA,NA,NA,left,1683,true,NA,NA,NA,NA,NA
rOnjndhp,NA,NA,rOnjndhp,2020-0188,2021-09-30,17:38:35,18:59:54,NA,incomplete,false,true,NA,8,28,size,m_l_003.jpg,right,small,large,NA,NA,NA,right,1087,true,NA,NA,NA,NA,NA
rOnjndhp,NA,NA,rOnjndhp,2020-0188,2021-09-30,17:38:35,18:59:54,NA,incomplete,false,true,NA,8,29,size,n_l_026.jpg,right,small,large,NA,NA,NA,left,1171,false,NA,NA,NA,NA,NA
rOnjndhp,NA,NA,rOnjndhp,2020-0188,2021-09-30,17:38:35,18:59:54,NA,incomplete,false,NA,true,8,0,NA,NA,left,NA,NA,o_s_010.jpg,n_l_001.jpg,between-big,NA,NaN,NA,right,4067,0,2,1960.9999999995343
rOnjndhp,NA,NA,rOnjndhp,2020-0188,2021-09-30,17:38:35,18:59:54,NA,incomplete,false,NA,true,8,1,NA,NA,right,NA,NA,n_s_018.jpg,n_s_006.jpg,between-small,NA,NaN,NA,right,1797,1,2,715.9999999995343
rOnjndhp,NA,NA,rOnjndhp,2020-0188,2021-09-30,17:38:35,18:59:54,NA,incomplete,false,NA,true,8,2,NA,NA,right,NA,NA,a_2_025.jpg,c_2_015.jpg,between-small,NA,NaN,NA,left,1031,0,1,3271.0000000004657
rOnjndhp,NA,NA,rOnjndhp,2020-0188,2021-09-30,17:38:35,18:59:54,NA,incomplete,false,NA,true,8,3,NA,NA,left,NA,NA,a_1_002.jpg,c_2_013.jpg,within,NA,NaN,NA,right,1975,0,1,1147
rOnjndhp,NA,NA,rOnjndhp,2020-0188,2021-09-30,17:38:35,18:59:54,NA,incomplete,false,NA,true,8,4,NA,NA,right,NA,NA,o_c_028.jpg,i_s_026.jpg,between-small,NA,NaN,NA,left,748,0,2,1755.0000000004657
rOnjndhp,NA,NA,rOnjndhp,2020-0188,2021-09-30,17:38:35,18:59:54,NA,incomplete,false,NA,true,8,5,NA,NA,right,NA,NA,n_l_026.jpg,m_l_011.jpg,within,NA,NaN,NA,right,2032,1,1,4286
rOnjndhp,NA,NA,rOnjndhp,2020-0188,2021-09-30,17:38:35,18:59:54,NA,incomplete,false,NA,true,8,6,NA,NA,right,NA,NA,c_2_015.jpg,a_1_024.jpg,within,NA,NaN,NA,left,1039.0000000004657,0,1,2779
rOnjndhp,NA,NA,rOnjndhp,2020-0188,2021-09-30,17:38:35,18:59:54,NA,incomplete,false,NA,true,8,7,NA,NA,right,NA,NA,m_s_015.jpg,n_l_015.jpg,between-small,NA,NaN,NA,right,2082,1,1,1112.0000000004657
rOnjndhp,NA,NA,rOnjndhp,2020-0188,2021-09-30,17:38:35,18:59:54,NA,incomplete,false,NA,true,8,8,NA,NA,right,NA,NA,i_s_004.jpg,i_c_024.jpg,within,NA,NaN,NA,left,765,0,1,2876
rOnjndhp,NA,NA,rOnjndhp,2020-0188,2021-09-30,17:38:35,18:59:54,NA,incomplete,false,NA,true,8,9,NA,NA,left,NA,NA,c_2_012.jpg,c_2_007.jpg,within,NA,NaN,NA,left,2059.0000000004657,1,2,1640
rOnjndhp,NA,NA,rOnjndhp,2020-0188,2021-09-30,17:38:35,18:59:54,NA,incomplete,false,NA,true,8,10,NA,NA,right,NA,NA,a_2_017.jpg,a_2_009.jpg,within,NA,NaN,NA,right,2236,1,1,2449.0000000004657
rOnjndhp,NA,NA,rOnjndhp,2020-0188,2021-09-30,17:38:35,18:59:54,NA,incomplete,false,NA,true,8,11,NA,NA,left,NA,NA,m_s_014.jpg,n_l_006.jpg,within,NA,NaN,NA,left,1362,1,1,5151.000000000466
rOnjndhp,NA,NA,rOnjndhp,2020-0188,2021-09-30,17:38:35,18:59:54,NA,incomplete,false,NA,true,8,12,NA,NA,right,NA,NA,m_l_003.jpg,n_s_018.jpg,within,NA,NaN,NA,left,5579,0,1,2177
rOnjndhp,NA,NA,rOnjndhp,2020-0188,2021-09-30,17:38:35,18:59:54,NA,incomplete,false,NA,true,8,13,NA,NA,left,NA,NA,i_s_004.jpg,n_s_006.jpg,between-big,NA,NaN,NA,left,1715,1,2,2957
rOnjndhp,NA,NA,rOnjndhp,2020-0188,2021-09-30,17:38:35,18:59:54,NA,incomplete,false,NA,true,8,14,NA,NA,right,NA,NA,i_s_014.jpg,o_s_014.jpg,within,NA,NaN,NA,left,3220,0,2,2155
rOnjndhp,NA,NA,rOnjndhp,2020-0188,2021-09-30,17:38:35,18:59:54,NA,incomplete,false,NA,true,8,15,NA,NA,right,NA,NA,o_s_025.jpg,a_2_025.jpg,between-big,NA,NaN,NA,left,1958,0,3,2690
rOnjndhp,NA,NA,rOnjndhp,2020-0188,2021-09-30,17:38:35,18:59:54,NA,incomplete,false,NA,true,8,16,NA,NA,right,NA,NA,o_c_021.jpg,o_s_025.jpg,within,NA,NaN,NA,left,1251,0,1,2637.0000000004657
rOnjndhp,NA,NA,rOnjndhp,2020-0188,2021-09-30,17:38:35,18:59:54,NA,incomplete,false,NA,true,8,17,NA,NA,left,NA,NA,c_2_013.jpg,i_s_026.jpg,between-big,NA,NaN,NA,right,1830,0,2,1364
rOnjndhp,NA,NA,rOnjndhp,2020-0188,2021-09-30,17:38:35,18:59:54,NA,incomplete,false,NA,true,8,18,NA,NA,right,NA,NA,n_l_015.jpg,n_l_001.jpg,within,NA,NaN,NA,right,2107,1,2,990
rOnjndhp,NA,NA,rOnjndhp,2020-0188,2021-09-30,17:38:35,18:59:54,NA,incomplete,false,NA,true,8,19,NA,NA,right,NA,NA,a_1_002.jpg,c_2_007.jpg,between-small,NA,NaN,NA,left,1181.0000000004657,0,1,6201
rOnjndhp,NA,NA,rOnjndhp,2020-0188,2021-09-30,17:38:35,18:59:54,NA,incomplete,false,NA,true,8,20,NA,NA,right,NA,NA,a_2_009.jpg,a_1_025.jpg,between-small,NA,NaN,NA,left,1379,0,2,5300
rOnjndhp,NA,NA,rOnjndhp,2020-0188,2021-09-30,17:38:35,18:59:54,NA,incomplete,false,NA,true,8,21,NA,NA,left,NA,NA,n_l_006.jpg,m_l_011.jpg,between-small,NA,NaN,NA,left,2449,1,2,1503.9999999995343
rOnjndhp,NA,NA,rOnjndhp,2020-0188,2021-09-30,17:38:35,18:59:54,NA,incomplete,false,NA,true,8,22,NA,NA,left,NA,NA,o_s_028.jpg,m_s_014.jpg,between-big,NA,NaN,NA,left,1685,1,2,2524.9999999995343
rOnjndhp,NA,NA,rOnjndhp,2020-0188,2021-09-30,17:38:35,18:59:54,NA,incomplete,false,NA,true,8,23,NA,NA,right,NA,NA,o_s_028.jpg,i_s_014.jpg,between-small,NA,NaN,NA,right,911.9999999990687,1,1,1408.9999999995343
rOnjndhp,NA,NA,rOnjndhp,2020-0188,2021-09-30,17:38:35,18:59:54,NA,incomplete,false,NA,true,8,24,NA,NA,right,NA,NA,i_c_024.jpg,o_c_021.jpg,between-small,NA,NaN,NA,left,854.9999999995343,0,1,2702.9999999995343
rOnjndhp,NA,NA,rOnjndhp,2020-0188,2021-09-30,17:38:35,18:59:54,NA,incomplete,false,NA,true,8,25,NA,NA,right,NA,NA,o_s_010.jpg,o_c_028.jpg,within,NA,NaN,NA,left,912.9999999995343,0,1,2616
rOnjndhp,NA,NA,rOnjndhp,2020-0188,2021-09-30,17:38:35,18:59:54,NA,incomplete,false,NA,true,8,26,NA,NA,left,NA,NA,a_2_017.jpg,o_s_014.jpg,between-big,NA,NaN,NA,right,1532.0000000004657,0,2,1037
rOnjndhp,NA,NA,rOnjndhp,2020-0188,2021-09-30,17:38:35,18:59:54,NA,incomplete,false,true,NA,9,0,origin,m_l_001.jpg,right,natural,manmade,NA,NA,NA,right,1773,true,NA,NA,NA,NA,NA
rOnjndhp,NA,NA,rOnjndhp,2020-0188,2021-09-30,17:38:35,18:59:54,NA,incomplete,false,true,NA,9,1,origin,m_l_014.jpg,right,natural,manmade,NA,NA,NA,right,1583,true,NA,NA,NA,NA,NA
rOnjndhp,NA,NA,rOnjndhp,2020-0188,2021-09-30,17:38:35,18:59:54,NA,incomplete,false,true,NA,9,2,origin,m_s_028.jpg,right,natural,manmade,NA,NA,NA,right,1098,true,NA,NA,NA,NA,NA
rOnjndhp,NA,NA,rOnjndhp,2020-0188,2021-09-30,17:38:35,18:59:54,NA,incomplete,false,true,NA,9,3,origin,m_l_005.jpg,left,manmade,natural,NA,NA,NA,left,1750,true,NA,NA,NA,NA,NA
rOnjndhp,NA,NA,rOnjndhp,2020-0188,2021-09-30,17:38:35,18:59:54,NA,incomplete,false,true,NA,9,4,origin,n_l_027.jpg,left,natural,manmade,NA,NA,NA,left,950,true,NA,NA,NA,NA,NA
rOnjndhp,NA,NA,rOnjndhp,2020-0188,2021-09-30,17:38:35,18:59:54,NA,incomplete,false,true,NA,9,5,size,n_l_010.jpg,left,large,small,NA,NA,NA,left,1598,true,NA,NA,NA,NA,NA
rOnjndhp,NA,NA,rOnjndhp,2020-0188,2021-09-30,17:38:35,18:59:54,NA,incomplete,false,true,NA,9,6,size,m_l_007.jpg,right,small,large,NA,NA,NA,right,1683,true,NA,NA,NA,NA,NA
rOnjndhp,NA,NA,rOnjndhp,2020-0188,2021-09-30,17:38:35,18:59:54,NA,incomplete,false,true,NA,9,7,size,n_l_025.jpg,right,small,large,NA,NA,NA,right,938.999999999534,true,NA,NA,NA,NA,NA
rOnjndhp,NA,NA,rOnjndhp,2020-0188,2021-09-30,17:38:35,18:59:54,NA,incomplete,false,true,NA,9,8,size,n_s_009.jpg,left,small,large,NA,NA,NA,left,951,true,NA,NA,NA,NA,NA
rOnjndhp,NA,NA,rOnjndhp,2020-0188,2021-09-30,17:38:35,18:59:54,NA,incomplete,false,true,NA,9,9,size,n_l_005.jpg,left,large,small,NA,NA,NA,left,1261.99999999953,true,NA,NA,NA,NA,NA
rOnjndhp,NA,NA,rOnjndhp,2020-0188,2021-09-30,17:38:35,18:59:54,NA,incomplete,false,true,NA,9,10,syllable,c_2_025.jpg,right,2 syllables,1 syllable,NA,NA,NA,left,1480.99999999953,false,NA,NA,NA,NA,NA
rOnjndhp,NA,NA,rOnjndhp,2020-0188,2021-09-30,17:38:35,18:59:54,NA,incomplete,false,true,NA,9,11,syllable,c_1_006.jpg,right,1 syllable,2 syllables,NA,NA,NA,left,1379,false,NA,NA,NA,NA,NA
rOnjndhp,NA,NA,rOnjndhp,2020-0188,2021-09-30,17:38:35,18:59:54,NA,incomplete,false,true,NA,9,12,syllable,c_1_018.jpg,right,2 syllables,1 syllable,NA,NA,NA,right,1618,true,NA,NA,NA,NA,NA
rOnjndhp,NA,NA,rOnjndhp,2020-0188,2021-09-30,17:38:35,18:59:54,NA,incomplete,false,true,NA,9,13,syllable,a_2_026.jpg,right,1 syllable,2 syllables,NA,NA,NA,right,1372,true,NA,NA,NA,NA,NA
rOnjndhp,NA,NA,rOnjndhp,2020-0188,2021-09-30,17:38:35,18:59:54,NA,incomplete,false,true,NA,9,14,syllable,c_1_011.jpg,right,2 syllables,1 syllable,NA,NA,NA,right,1204,true,NA,NA,NA,NA,NA
rOnjndhp,NA,NA,rOnjndhp,2020-0188,2021-09-30,17:38:35,18:59:54,NA,incomplete,false,true,NA,9,15,abstractness,c_2_005.jpg,right,abstract,concrete,NA,NA,NA,right,1333.00000000093,true,NA,NA,NA,NA,NA
rOnjndhp,NA,NA,rOnjndhp,2020-0188,2021-09-30,17:38:35,18:59:54,NA,incomplete,false,true,NA,9,16,abstractness,a_1_018.jpg,left,abstract,concrete,NA,NA,NA,left,1372,true,NA,NA,NA,NA,NA
rOnjndhp,NA,NA,rOnjndhp,2020-0188,2021-09-30,17:38:35,18:59:54,NA,incomplete,false,true,NA,9,17,abstractness,a_2_024.jpg,left,abstract,concrete,NA,NA,NA,left,1575,true,NA,NA,NA,NA,NA
rOnjndhp,NA,NA,rOnjndhp,2020-0188,2021-09-30,17:38:35,18:59:54,NA,incomplete,false,true,NA,9,18,abstractness,c_1_003.jpg,right,abstract,concrete,NA,NA,NA,right,1714,true,NA,NA,NA,NA,NA
rOnjndhp,NA,NA,rOnjndhp,2020-0188,2021-09-30,17:38:35,18:59:54,NA,incomplete,false,true,NA,9,19,abstractness,a_1_011.jpg,right,concrete,abstract,NA,NA,NA,right,2014,true,NA,NA,NA,NA,NA
rOnjndhp,NA,NA,rOnjndhp,2020-0188,2021-09-30,17:38:35,18:59:54,NA,incomplete,false,true,NA,9,20,location,o_c_023.jpg,left,outdoor,indoor,NA,NA,NA,left,1790,true,NA,NA,NA,NA,NA
rOnjndhp,NA,NA,rOnjndhp,2020-0188,2021-09-30,17:38:35,18:59:54,NA,incomplete,false,true,NA,9,21,location,i_c_017.jpg,left,indoor,outdoor,NA,NA,NA,left,1534.00000000093,true,NA,NA,NA,NA,NA
rOnjndhp,NA,NA,rOnjndhp,2020-0188,2021-09-30,17:38:35,18:59:54,NA,incomplete,false,true,NA,9,22,location,o_s_011.jpg,left,outdoor,indoor,NA,NA,NA,left,1081,true,NA,NA,NA,NA,NA
rOnjndhp,NA,NA,rOnjndhp,2020-0188,2021-09-30,17:38:35,18:59:54,NA,incomplete,false,true,NA,9,23,location,o_s_015.jpg,left,outdoor,indoor,NA,NA,NA,left,1001,true,NA,NA,NA,NA,NA
rOnjndhp,NA,NA,rOnjndhp,2020-0188,2021-09-30,17:38:35,18:59:54,NA,incomplete,false,true,NA,9,24,location,i_c_006.jpg,right,outdoor,indoor,NA,NA,NA,right,2672,true,NA,NA,NA,NA,NA
rOnjndhp,NA,NA,rOnjndhp,2020-0188,2021-09-30,17:38:35,18:59:54,NA,incomplete,false,true,NA,9,25,building,i_s_010.jpg,left,skyscraper,cottage,NA,NA,NA,left,1252,true,NA,NA,NA,NA,NA
rOnjndhp,NA,NA,rOnjndhp,2020-0188,2021-09-30,17:38:35,18:59:54,NA,incomplete,false,true,NA,9,26,building,o_s_009.jpg,right,cottage,skyscraper,NA,NA,NA,right,1583,true,NA,NA,NA,NA,NA
rOnjndhp,NA,NA,rOnjndhp,2020-0188,2021-09-30,17:38:35,18:59:54,NA,incomplete,false,true,NA,9,27,building,o_s_022.jpg,left,skyscraper,cottage,NA,NA,NA,left,2576,true,NA,NA,NA,NA,NA
rOnjndhp,NA,NA,rOnjndhp,2020-0188,2021-09-30,17:38:35,18:59:54,NA,incomplete,false,true,NA,9,28,building,o_c_024.jpg,left,cottage,skyscraper,NA,NA,NA,left,1082.99999999907,true,NA,NA,NA,NA,NA
rOnjndhp,NA,NA,rOnjndhp,2020-0188,2021-09-30,17:38:35,18:59:54,NA,incomplete,false,true,NA,9,29,building,o_c_018.jpg,right,skyscraper,cottage,NA,NA,NA,right,1003,true,NA,NA,NA,NA,NA
rOnjndhp,NA,NA,rOnjndhp,2020-0188,2021-09-30,17:38:35,18:59:54,NA,incomplete,false,NA,true,9,0,NA,NA,left,NA,NA,c_1_003.jpg,i_c_017.jpg,between-big,NA,NaN,NA,left,5409,1,2,3947
rOnjndhp,NA,NA,rOnjndhp,2020-0188,2021-09-30,17:38:35,18:59:54,NA,incomplete,false,NA,true,9,1,NA,NA,right,NA,NA,i_s_010.jpg,o_s_011.jpg,between-small,NA,NaN,NA,right,1856,1,1,1033
rOnjndhp,NA,NA,rOnjndhp,2020-0188,2021-09-30,17:38:35,18:59:54,NA,incomplete,false,NA,true,9,2,NA,NA,left,NA,NA,c_1_018.jpg,c_2_005.jpg,between-small,NA,NaN,NA,left,1214,1,1,1349
rOnjndhp,NA,NA,rOnjndhp,2020-0188,2021-09-30,17:38:35,18:59:54,NA,incomplete,false,NA,true,9,3,NA,NA,right,NA,NA,n_s_009.jpg,n_l_010.jpg,within,NA,NaN,NA,right,2482,1,1,1332
rOnjndhp,NA,NA,rOnjndhp,2020-0188,2021-09-30,17:38:35,18:59:54,NA,incomplete,false,NA,true,9,4,NA,NA,right,NA,NA,a_1_018.jpg,a_2_026.jpg,between-small,NA,NaN,NA,left,1539,0,2,4483
