workerId,hitId,assignmentId,subject,studyid,exp_date,exp_start,exp_end,time_start,time_end,practice,encoding,memory,block,trial,event,stim,answer,label_left,label_right,left_image,right_image,condition,response,response_time,response_acc,order_response,order_response_time,order_acc,distance_response,distance_response_time
sswjvyRK,NA,NA,sswjvyRK,2020-0188,2021-09-26,17:12:11,18:25:49,NA,incomplete,true,true,NA,0,0,syllable,c_2_014.jpg,right,1 syllable,2 syllables,NA,NA,NA,right,2434,true,NA,NA,NA,NA,NA
sswjvyRK,NA,NA,sswjvyRK,2020-0188,2021-09-26,17:12:11,18:25:49,NA,incomplete,true,true,NA,0,1,syllable,c_1_022.jpg,right,2 syllables,1 syllable,NA,NA,NA,right,2211.00000000003,true,NA,NA,NA,NA,NA
sswjvyRK,NA,NA,sswjvyRK,2020-0188,2021-09-26,17:12:11,18:25:49,NA,incomplete,true,true,NA,0,2,syllable,a_2_004.jpg,right,1 syllable,2 syllables,NA,NA,NA,right,1655,true,NA,NA,NA,NA,NA
sswjvyRK,NA,NA,sswjvyRK,2020-0188,2021-09-26,17:12:11,18:25:49,NA,incomplete,true,true,NA,0,3,syllable,c_1_004.jpg,right,1 syllable,2 syllables,NA,NA,NA,left,1287.00000000003,false,NA,NA,NA,NA,NA
sswjvyRK,NA,NA,sswjvyRK,2020-0188,2021-09-26,17:12:11,18:25:49,NA,incomplete,true,true,NA,0,4,syllable,c_1_017.jpg,right,1 syllable,2 syllables,NA,NA,NA,left,982,false,NA,NA,NA,NA,NA
sswjvyRK,NA,NA,sswjvyRK,2020-0188,2021-09-26,17:12:11,18:25:49,NA,incomplete,true,true,NA,0,5,abstractness,a_2_021.jpg,left,abstract,concrete,NA,NA,NA,right,1036,false,NA,NA,NA,NA,NA
sswjvyRK,NA,NA,sswjvyRK,2020-0188,2021-09-26,17:12:11,18:25:49,NA,incomplete,true,true,NA,0,6,abstractness,a_2_019.jpg,left,abstract,concrete,NA,NA,NA,left,3484,true,NA,NA,NA,NA,NA
sswjvyRK,NA,NA,sswjvyRK,2020-0188,2021-09-26,17:12:11,18:25:49,NA,incomplete,true,true,NA,0,7,abstractness,a_1_009.jpg,left,abstract,concrete,NA,NA,NA,right,1750,false,NA,NA,NA,NA,NA
sswjvyRK,NA,NA,sswjvyRK,2020-0188,2021-09-26,17:12:11,18:25:49,NA,incomplete,true,true,NA,0,8,abstractness,a_2_014.jpg,right,concrete,abstract,NA,NA,NA,right,2623,true,NA,NA,NA,NA,NA
sswjvyRK,NA,NA,sswjvyRK,2020-0188,2021-09-26,17:12:11,18:25:49,NA,incomplete,true,true,NA,0,9,abstractness,a_2_003.jpg,left,abstract,concrete,NA,NA,NA,right,2515,false,NA,NA,NA,NA,NA
sswjvyRK,NA,NA,sswjvyRK,2020-0188,2021-09-26,17:12:11,18:25:49,NA,incomplete,true,true,NA,0,10,building,i_c_024.jpg,right,skyscraper,cottage,NA,NA,NA,right,1639.00000000003,true,NA,NA,NA,NA,NA
sswjvyRK,NA,NA,sswjvyRK,2020-0188,2021-09-26,17:12:11,18:25:49,NA,incomplete,true,true,NA,0,11,building,o_c_008.jpg,left,cottage,skyscraper,NA,NA,NA,left,1092.00000000003,true,NA,NA,NA,NA,NA
sswjvyRK,NA,NA,sswjvyRK,2020-0188,2021-09-26,17:12:11,18:25:49,NA,incomplete,true,true,NA,0,12,building,o_s_007.jpg,left,skyscraper,cottage,NA,NA,NA,left,1111,true,NA,NA,NA,NA,NA
sswjvyRK,NA,NA,sswjvyRK,2020-0188,2021-09-26,17:12:11,18:25:49,NA,incomplete,true,true,NA,0,13,building,o_c_009.jpg,right,skyscraper,cottage,NA,NA,NA,right,1295,true,NA,NA,NA,NA,NA
sswjvyRK,NA,NA,sswjvyRK,2020-0188,2021-09-26,17:12:11,18:25:49,NA,incomplete,true,true,NA,0,14,building,o_s_013.jpg,right,cottage,skyscraper,NA,NA,NA,right,1470,true,NA,NA,NA,NA,NA
sswjvyRK,NA,NA,sswjvyRK,2020-0188,2021-09-26,17:12:11,18:25:49,NA,incomplete,true,true,NA,0,15,location,o_c_027.jpg,right,indoor,outdoor,NA,NA,NA,left,2874.00000000003,false,NA,NA,NA,NA,NA
sswjvyRK,NA,NA,sswjvyRK,2020-0188,2021-09-26,17:12:11,18:25:49,NA,incomplete,true,true,NA,0,16,location,i_c_019.jpg,left,indoor,outdoor,NA,NA,NA,left,1215.99999999997,true,NA,NA,NA,NA,NA
sswjvyRK,NA,NA,sswjvyRK,2020-0188,2021-09-26,17:12:11,18:25:49,NA,incomplete,true,true,NA,0,17,location,o_c_020.jpg,right,indoor,outdoor,NA,NA,NA,right,979,true,NA,NA,NA,NA,NA
sswjvyRK,NA,NA,sswjvyRK,2020-0188,2021-09-26,17:12:11,18:25:49,NA,incomplete,true,true,NA,0,18,location,i_c_013.jpg,left,indoor,outdoor,NA,NA,NA,left,1016,true,NA,NA,NA,NA,NA
sswjvyRK,NA,NA,sswjvyRK,2020-0188,2021-09-26,17:12:11,18:25:49,NA,incomplete,true,true,NA,0,19,location,o_c_001.jpg,right,indoor,outdoor,NA,NA,NA,right,1516,true,NA,NA,NA,NA,NA
sswjvyRK,NA,NA,sswjvyRK,2020-0188,2021-09-26,17:12:11,18:25:49,NA,incomplete,true,true,NA,0,20,size,m_s_001.jpg,right,large,small,NA,NA,NA,right,1777.00000000006,true,NA,NA,NA,NA,NA
sswjvyRK,NA,NA,sswjvyRK,2020-0188,2021-09-26,17:12:11,18:25:49,NA,incomplete,true,true,NA,0,21,size,m_l_013.jpg,right,small,large,NA,NA,NA,right,1456,true,NA,NA,NA,NA,NA
sswjvyRK,NA,NA,sswjvyRK,2020-0188,2021-09-26,17:12:11,18:25:49,NA,incomplete,true,true,NA,0,22,size,m_l_015.jpg,left,large,small,NA,NA,NA,left,1149,true,NA,NA,NA,NA,NA
sswjvyRK,NA,NA,sswjvyRK,2020-0188,2021-09-26,17:12:11,18:25:49,NA,incomplete,true,true,NA,0,23,size,m_l_002.jpg,right,small,large,NA,NA,NA,right,1820,true,NA,NA,NA,NA,NA
sswjvyRK,NA,NA,sswjvyRK,2020-0188,2021-09-26,17:12:11,18:25:49,NA,incomplete,true,true,NA,0,24,size,m_l_017.jpg,left,large,small,NA,NA,NA,left,1093,true,NA,NA,NA,NA,NA
sswjvyRK,NA,NA,sswjvyRK,2020-0188,2021-09-26,17:12:11,18:25:49,NA,incomplete,true,true,NA,0,25,origin,n_l_015.jpg,right,manmade,natural,NA,NA,NA,right,1717,true,NA,NA,NA,NA,NA
sswjvyRK,NA,NA,sswjvyRK,2020-0188,2021-09-26,17:12:11,18:25:49,NA,incomplete,true,true,NA,0,26,origin,m_s_018.jpg,right,natural,manmade,NA,NA,NA,right,1493,true,NA,NA,NA,NA,NA
sswjvyRK,NA,NA,sswjvyRK,2020-0188,2021-09-26,17:12:11,18:25:49,NA,incomplete,true,true,NA,0,27,origin,n_l_008.jpg,left,natural,manmade,NA,NA,NA,left,1639.00000000006,true,NA,NA,NA,NA,NA
sswjvyRK,NA,NA,sswjvyRK,2020-0188,2021-09-26,17:12:11,18:25:49,NA,incomplete,true,true,NA,0,28,origin,m_s_002.jpg,left,manmade,natural,NA,NA,NA,left,1446,true,NA,NA,NA,NA,NA
sswjvyRK,NA,NA,sswjvyRK,2020-0188,2021-09-26,17:12:11,18:25:49,NA,incomplete,true,true,NA,0,29,origin,m_l_010.jpg,left,manmade,natural,NA,NA,NA,left,1768,true,NA,NA,NA,NA,NA
sswjvyRK,NA,NA,sswjvyRK,2020-0188,2021-09-26,17:12:11,18:25:49,NA,incomplete,true,NA,true,0,0,NA,NA,right,NA,NA,m_l_002.jpg,m_s_001.jpg,within,NA,NaN,NA,right,3053,1,1,4772
sswjvyRK,NA,NA,sswjvyRK,2020-0188,2021-09-26,17:12:11,18:25:49,NA,incomplete,true,NA,true,0,1,NA,NA,left,NA,NA,m_l_002.jpg,m_s_018.jpg,between-small,NA,NaN,NA,left,5939,1,1,2492
sswjvyRK,NA,NA,sswjvyRK,2020-0188,2021-09-26,17:12:11,18:25:49,NA,incomplete,true,NA,true,0,2,NA,NA,left,NA,NA,a_1_009.jpg,i_c_024.jpg,between-big,NA,NaN,NA,left,1807,1,2,1318
sswjvyRK,NA,NA,sswjvyRK,2020-0188,2021-09-26,17:12:11,18:25:49,NA,incomplete,true,NA,true,0,3,NA,NA,left,NA,NA,i_c_024.jpg,o_c_009.jpg,within,NA,NaN,NA,left,2022,1,1,1157
sswjvyRK,NA,NA,sswjvyRK,2020-0188,2021-09-26,17:12:11,18:25:49,NA,incomplete,true,NA,true,0,4,NA,NA,right,NA,NA,m_l_015.jpg,o_c_001.jpg,between-big,NA,NaN,NA,right,4617,1,1,2509
sswjvyRK,NA,NA,sswjvyRK,2020-0188,2021-09-26,17:12:11,18:25:49,NA,incomplete,true,NA,true,0,5,NA,NA,left,NA,NA,o_c_008.jpg,o_s_013.jpg,within,NA,NaN,NA,left,5409,1,0,1844
sswjvyRK,NA,NA,sswjvyRK,2020-0188,2021-09-26,17:12:11,18:25:49,NA,incomplete,true,NA,true,0,6,NA,NA,right,NA,NA,m_l_013.jpg,i_c_013.jpg,between-big,NA,NaN,NA,right,2647,1,1,2734
sswjvyRK,NA,NA,sswjvyRK,2020-0188,2021-09-26,17:12:11,18:25:49,NA,incomplete,true,NA,true,0,7,NA,NA,right,NA,NA,m_s_002.jpg,n_l_015.jpg,within,NA,NaN,NA,right,4864,1,0,988
sswjvyRK,NA,NA,sswjvyRK,2020-0188,2021-09-26,17:12:11,18:25:49,NA,incomplete,true,NA,true,0,8,NA,NA,right,NA,NA,a_2_014.jpg,a_2_021.jpg,within,NA,NaN,NA,right,4743,1,0,1901.9999999999418
sswjvyRK,NA,NA,sswjvyRK,2020-0188,2021-09-26,17:12:11,18:25:49,NA,incomplete,true,NA,true,0,9,NA,NA,right,NA,NA,o_c_001.jpg,i_c_019.jpg,within,NA,NaN,NA,right,3629,1,0,958
sswjvyRK,NA,NA,sswjvyRK,2020-0188,2021-09-26,17:12:11,18:25:49,NA,incomplete,true,NA,true,0,10,NA,NA,right,NA,NA,i_c_019.jpg,o_c_009.jpg,between-small,NA,NaN,NA,left,1857,0,1,1487
sswjvyRK,NA,NA,sswjvyRK,2020-0188,2021-09-26,17:12:11,18:25:49,NA,incomplete,true,NA,true,0,11,NA,NA,right,NA,NA,a_2_019.jpg,c_1_004.jpg,between-small,NA,NaN,NA,right,5499,1,2,2950
sswjvyRK,NA,NA,sswjvyRK,2020-0188,2021-09-26,17:12:11,18:25:49,NA,incomplete,true,NA,true,0,12,NA,NA,left,NA,NA,m_s_018.jpg,m_l_010.jpg,within,NA,NaN,NA,left,4791,1,1,1485
sswjvyRK,NA,NA,sswjvyRK,2020-0188,2021-09-26,17:12:11,18:25:49,NA,incomplete,true,NA,true,0,13,NA,NA,right,NA,NA,o_c_027.jpg,o_s_007.jpg,between-small,NA,NaN,NA,left,1981,0,1,1397
sswjvyRK,NA,NA,sswjvyRK,2020-0188,2021-09-26,17:12:11,18:25:49,NA,incomplete,true,NA,true,0,14,NA,NA,left,NA,NA,o_c_027.jpg,i_c_013.jpg,within,NA,NaN,NA,right,1407,0,1,1707
sswjvyRK,NA,NA,sswjvyRK,2020-0188,2021-09-26,17:12:11,18:25:49,NA,incomplete,true,NA,true,0,15,NA,NA,left,NA,NA,a_2_003.jpg,o_s_007.jpg,between-big,NA,NaN,NA,left,3147,1,3,3084
sswjvyRK,NA,NA,sswjvyRK,2020-0188,2021-09-26,17:12:11,18:25:49,NA,incomplete,true,NA,true,0,16,NA,NA,left,NA,NA,o_s_013.jpg,o_c_020.jpg,between-small,NA,NaN,NA,right,6072,0,1,1277
sswjvyRK,NA,NA,sswjvyRK,2020-0188,2021-09-26,17:12:11,18:25:49,NA,incomplete,true,NA,true,0,17,NA,NA,left,NA,NA,o_c_020.jpg,m_s_001.jpg,between-big,NA,NaN,NA,right,8178,0,2,1908
sswjvyRK,NA,NA,sswjvyRK,2020-0188,2021-09-26,17:12:11,18:25:49,NA,incomplete,true,NA,true,0,18,NA,NA,left,NA,NA,a_2_004.jpg,a_2_021.jpg,between-small,NA,NaN,NA,right,4442,0,1,2421.000000000058
sswjvyRK,NA,NA,sswjvyRK,2020-0188,2021-09-26,17:12:11,18:25:49,NA,incomplete,true,NA,true,0,19,NA,NA,left,NA,NA,c_2_014.jpg,c_1_004.jpg,within,NA,NaN,NA,left,6606,1,0,1436
sswjvyRK,NA,NA,sswjvyRK,2020-0188,2021-09-26,17:12:11,18:25:49,NA,incomplete,true,NA,true,0,20,NA,NA,left,NA,NA,a_2_019.jpg,a_2_003.jpg,within,NA,NaN,NA,left,3651,1,1,1203
sswjvyRK,NA,NA,sswjvyRK,2020-0188,2021-09-26,17:12:11,18:25:49,NA,incomplete,true,NA,true,0,21,NA,NA,left,NA,NA,c_1_022.jpg,c_1_017.jpg,within,NA,NaN,NA,left,4885,1,0,1245
sswjvyRK,NA,NA,sswjvyRK,2020-0188,2021-09-26,17:12:11,18:25:49,NA,incomplete,true,NA,true,0,22,NA,NA,right,NA,NA,m_l_017.jpg,m_l_013.jpg,within,NA,NaN,NA,right,4576,1,0,1524
sswjvyRK,NA,NA,sswjvyRK,2020-0188,2021-09-26,17:12:11,18:25:49,NA,incomplete,true,NA,true,0,23,NA,NA,left,NA,NA,c_1_017.jpg,a_1_009.jpg,between-small,NA,NaN,NA,left,10649,1,1,1968
sswjvyRK,NA,NA,sswjvyRK,2020-0188,2021-09-26,17:12:11,18:25:49,NA,incomplete,true,NA,true,0,24,NA,NA,right,NA,NA,n_l_008.jpg,m_l_017.jpg,between-small,NA,NaN,NA,left,9951,0,1,3804
sswjvyRK,NA,NA,sswjvyRK,2020-0188,2021-09-26,17:12:11,18:25:49,NA,incomplete,true,NA,true,0,25,NA,NA,right,NA,NA,o_c_008.jpg,a_2_014.jpg,between-big,NA,NaN,NA,right,3822,1,2,1440
sswjvyRK,NA,NA,sswjvyRK,2020-0188,2021-09-26,17:12:11,18:25:49,NA,incomplete,true,NA,true,0,26,NA,NA,left,NA,NA,m_l_015.jpg,n_l_015.jpg,between-small,NA,NaN,NA,left,12348,1,1,1940
sswjvyRK,NA,NA,sswjvyRK,2020-0188,2021-09-26,17:12:11,18:25:49,NA,incomplete,false,true,NA,1,0,location,i_s_006.jpg,left,indoor,outdoor,NA,NA,NA,left,1926,true,NA,NA,NA,NA,NA
sswjvyRK,NA,NA,sswjvyRK,2020-0188,2021-09-26,17:12:11,18:25:49,NA,incomplete,false,true,NA,1,1,location,o_s_020.jpg,left,outdoor,indoor,NA,NA,NA,left,1643.00000000012,true,NA,NA,NA,NA,NA
sswjvyRK,NA,NA,sswjvyRK,2020-0188,2021-09-26,17:12:11,18:25:49,NA,incomplete,false,true,NA,1,2,location,i_c_027.jpg,right,outdoor,indoor,NA,NA,NA,right,1476,true,NA,NA,NA,NA,NA
sswjvyRK,NA,NA,sswjvyRK,2020-0188,2021-09-26,17:12:11,18:25:49,NA,incomplete,false,true,NA,1,3,location,o_s_025.jpg,left,outdoor,indoor,NA,NA,NA,left,1024,true,NA,NA,NA,NA,NA
sswjvyRK,NA,NA,sswjvyRK,2020-0188,2021-09-26,17:12:11,18:25:49,NA,incomplete,false,true,NA,1,4,location,i_s_015.jpg,left,indoor,outdoor,NA,NA,NA,left,1595,true,NA,NA,NA,NA,NA
sswjvyRK,NA,NA,sswjvyRK,2020-0188,2021-09-26,17:12:11,18:25:49,NA,incomplete,false,true,NA,1,5,building,i_c_010.jpg,right,skyscraper,cottage,NA,NA,NA,right,1935,true,NA,NA,NA,NA,NA
sswjvyRK,NA,NA,sswjvyRK,2020-0188,2021-09-26,17:12:11,18:25:49,NA,incomplete,false,true,NA,1,6,building,o_s_022.jpg,left,skyscraper,cottage,NA,NA,NA,left,1282,true,NA,NA,NA,NA,NA
sswjvyRK,NA,NA,sswjvyRK,2020-0188,2021-09-26,17:12:11,18:25:49,NA,incomplete,false,true,NA,1,7,building,i_s_028.jpg,left,skyscraper,cottage,NA,NA,NA,left,1855,true,NA,NA,NA,NA,NA
sswjvyRK,NA,NA,sswjvyRK,2020-0188,2021-09-26,17:12:11,18:25:49,NA,incomplete,false,true,NA,1,8,building,i_c_012.jpg,right,skyscraper,cottage,NA,NA,NA,right,1204,true,NA,NA,NA,NA,NA
sswjvyRK,NA,NA,sswjvyRK,2020-0188,2021-09-26,17:12:11,18:25:49,NA,incomplete,false,true,NA,1,9,building,i_s_018.jpg,right,cottage,skyscraper,NA,NA,NA,right,1204.00000000012,true,NA,NA,NA,NA,NA
sswjvyRK,NA,NA,sswjvyRK,2020-0188,2021-09-26,17:12:11,18:25:49,NA,incomplete,false,true,NA,1,10,abstractness,c_2_010.jpg,right,abstract,concrete,NA,NA,NA,right,2004,true,NA,NA,NA,NA,NA
sswjvyRK,NA,NA,sswjvyRK,2020-0188,2021-09-26,17:12:11,18:25:49,NA,incomplete,false,true,NA,1,11,abstractness,a_2_016.jpg,left,abstract,concrete,NA,NA,NA,left,1194,true,NA,NA,NA,NA,NA
sswjvyRK,NA,NA,sswjvyRK,2020-0188,2021-09-26,17:12:11,18:25:49,NA,incomplete,false,true,NA,1,12,abstractness,c_2_011.jpg,right,abstract,concrete,NA,NA,NA,right,1297,true,NA,NA,NA,NA,NA
sswjvyRK,NA,NA,sswjvyRK,2020-0188,2021-09-26,17:12:11,18:25:49,NA,incomplete,false,true,NA,1,13,abstractness,c_2_007.jpg,right,abstract,concrete,NA,NA,NA,right,1463,true,NA,NA,NA,NA,NA
sswjvyRK,NA,NA,sswjvyRK,2020-0188,2021-09-26,17:12:11,18:25:49,NA,incomplete,false,true,NA,1,14,abstractness,a_2_015.jpg,right,concrete,abstract,NA,NA,NA,right,1219,true,NA,NA,NA,NA,NA
sswjvyRK,NA,NA,sswjvyRK,2020-0188,2021-09-26,17:12:11,18:25:49,NA,incomplete,false,true,NA,1,15,syllable,c_2_026.jpg,right,1 syllable,2 syllables,NA,NA,NA,right,1974,true,NA,NA,NA,NA,NA
sswjvyRK,NA,NA,sswjvyRK,2020-0188,2021-09-26,17:12:11,18:25:49,NA,incomplete,false,true,NA,1,16,syllable,c_2_022.jpg,right,1 syllable,2 syllables,NA,NA,NA,right,1977.99999999988,true,NA,NA,NA,NA,NA
sswjvyRK,NA,NA,sswjvyRK,2020-0188,2021-09-26,17:12:11,18:25:49,NA,incomplete,false,true,NA,1,17,syllable,c_1_006.jpg,right,1 syllable,2 syllables,NA,NA,NA,left,931,false,NA,NA,NA,NA,NA
sswjvyRK,NA,NA,sswjvyRK,2020-0188,2021-09-26,17:12:11,18:25:49,NA,incomplete,false,true,NA,1,18,syllable,a_1_005.jpg,right,1 syllable,2 syllables,NA,NA,NA,left,2097,false,NA,NA,NA,NA,NA
sswjvyRK,NA,NA,sswjvyRK,2020-0188,2021-09-26,17:12:11,18:25:49,NA,incomplete,false,true,NA,1,19,syllable,c_1_012.jpg,right,1 syllable,2 syllables,NA,NA,NA,left,803,false,NA,NA,NA,NA,NA
sswjvyRK,NA,NA,sswjvyRK,2020-0188,2021-09-26,17:12:11,18:25:49,NA,incomplete,false,true,NA,1,20,size,m_s_005.jpg,right,large,small,NA,NA,NA,right,1614,true,NA,NA,NA,NA,NA
sswjvyRK,NA,NA,sswjvyRK,2020-0188,2021-09-26,17:12:11,18:25:49,NA,incomplete,false,true,NA,1,21,size,n_l_024.jpg,left,large,small,NA,NA,NA,left,872,true,NA,NA,NA,NA,NA
sswjvyRK,NA,NA,sswjvyRK,2020-0188,2021-09-26,17:12:11,18:25:49,NA,incomplete,false,true,NA,1,22,size,m_l_024.jpg,right,small,large,NA,NA,NA,right,1384,true,NA,NA,NA,NA,NA
sswjvyRK,NA,NA,sswjvyRK,2020-0188,2021-09-26,17:12:11,18:25:49,NA,incomplete,false,true,NA,1,23,size,n_s_003.jpg,right,large,small,NA,NA,NA,right,1326,true,NA,NA,NA,NA,NA
sswjvyRK,NA,NA,sswjvyRK,2020-0188,2021-09-26,17:12:11,18:25:49,NA,incomplete,false,true,NA,1,24,size,m_l_025.jpg,right,small,large,NA,NA,NA,right,1294,true,NA,NA,NA,NA,NA
sswjvyRK,NA,NA,sswjvyRK,2020-0188,2021-09-26,17:12:11,18:25:49,NA,incomplete,false,true,NA,1,25,origin,n_s_015.jpg,left,natural,manmade,NA,NA,NA,left,1873,true,NA,NA,NA,NA,NA
sswjvyRK,NA,NA,sswjvyRK,2020-0188,2021-09-26,17:12:11,18:25:49,NA,incomplete,false,true,NA,1,26,origin,n_s_027.jpg,right,manmade,natural,NA,NA,NA,right,1564,true,NA,NA,NA,NA,NA
sswjvyRK,NA,NA,sswjvyRK,2020-0188,2021-09-26,17:12:11,18:25:49,NA,incomplete,false,true,NA,1,27,origin,m_s_003.jpg,left,manmade,natural,NA,NA,NA,left,1933,true,NA,NA,NA,NA,NA
sswjvyRK,NA,NA,sswjvyRK,2020-0188,2021-09-26,17:12:11,18:25:49,NA,incomplete,false,true,NA,1,28,origin,m_s_023.jpg,left,manmade,natural,NA,NA,NA,left,2482.99999999988,true,NA,NA,NA,NA,NA
sswjvyRK,NA,NA,sswjvyRK,2020-0188,2021-09-26,17:12:11,18:25:49,NA,incomplete,false,true,NA,1,29,origin,m_l_009.jpg,right,natural,manmade,NA,NA,NA,right,2158,true,NA,NA,NA,NA,NA
sswjvyRK,NA,NA,sswjvyRK,2020-0188,2021-09-26,17:12:11,18:25:49,NA,incomplete,false,NA,true,1,0,NA,NA,right,NA,NA,n_l_024.jpg,a_1_005.jpg,between-big,NA,NaN,NA,right,3736,1,1,3038
sswjvyRK,NA,NA,sswjvyRK,2020-0188,2021-09-26,17:12:11,18:25:49,NA,incomplete,false,NA,true,1,1,NA,NA,left,NA,NA,i_c_027.jpg,i_c_010.jpg,between-small,NA,NaN,NA,right,4140,0,0,1219
sswjvyRK,NA,NA,sswjvyRK,2020-0188,2021-09-26,17:12:11,18:25:49,NA,incomplete,false,NA,true,1,2,NA,NA,right,NA,NA,o_s_025.jpg,i_s_006.jpg,within,NA,NaN,NA,right,2946,1,0,1530
sswjvyRK,NA,NA,sswjvyRK,2020-0188,2021-09-26,17:12:11,18:25:49,NA,incomplete,false,NA,true,1,3,NA,NA,left,NA,NA,c_1_012.jpg,m_l_024.jpg,between-big,NA,NaN,NA,left,3053,1,1,2739
sswjvyRK,NA,NA,sswjvyRK,2020-0188,2021-09-26,17:12:11,18:25:49,NA,incomplete,false,NA,true,1,4,NA,NA,right,NA,NA,i_c_012.jpg,i_c_010.jpg,within,NA,NaN,NA,right,3354.0000000001164,1,1,3054
sswjvyRK,NA,NA,sswjvyRK,2020-0188,2021-09-26,17:12:11,18:25:49,NA,incomplete,false,NA,true,1,5,NA,NA,right,NA,NA,n_s_015.jpg,m_l_024.jpg,between-small,NA,NaN,NA,right,2535,1,2,2267
sswjvyRK,NA,NA,sswjvyRK,2020-0188,2021-09-26,17:12:11,18:25:49,NA,incomplete,false,NA,true,1,6,NA,NA,left,NA,NA,c_2_010.jpg,c_2_007.jpg,within,NA,NaN,NA,left,2646.0000000001164,1,1,1556
sswjvyRK,NA,NA,sswjvyRK,2020-0188,2021-09-26,17:12:11,18:25:49,NA,incomplete,false,NA,true,1,7,NA,NA,left,NA,NA,c_1_006.jpg,m_s_005.jpg,between-big,NA,NaN,NA,left,3353,1,2,1824
sswjvyRK,NA,NA,sswjvyRK,2020-0188,2021-09-26,17:12:11,18:25:49,NA,incomplete,false,NA,true,1,8,NA,NA,right,NA,NA,n_s_027.jpg,n_s_003.jpg,between-small,NA,NaN,NA,right,7470.000000000116,1,2,5647
sswjvyRK,NA,NA,sswjvyRK,2020-0188,2021-09-26,17:12:11,18:25:49,NA,incomplete,false,NA,true,1,9,NA,NA,right,NA,NA,i_s_028.jpg,i_s_015.jpg,between-small,NA,NaN,NA,right,3125,1,2,1275.0000000001164
sswjvyRK,NA,NA,sswjvyRK,2020-0188,2021-09-26,17:12:11,18:25:49,NA,incomplete,false,NA,true,1,10,NA,NA,left,NA,NA,a_2_016.jpg,a_2_015.jpg,within,NA,NaN,NA,right,4724,0,1,1619
sswjvyRK,NA,NA,sswjvyRK,2020-0188,2021-09-26,17:12:11,18:25:49,NA,incomplete,false,NA,true,1,11,NA,NA,right,NA,NA,a_1_005.jpg,c_2_026.jpg,within,NA,NaN,NA,right,4471,1,0,1022
sswjvyRK,NA,NA,sswjvyRK,2020-0188,2021-09-26,17:12:11,18:25:49,NA,incomplete,false,NA,true,1,12,NA,NA,right,NA,NA,m_l_009.jpg,n_s_027.jpg,within,NA,NaN,NA,right,4485,1,1,1361
sswjvyRK,NA,NA,sswjvyRK,2020-0188,2021-09-26,17:12:11,18:25:49,NA,incomplete,false,NA,true,1,13,NA,NA,left,NA,NA,n_l_024.jpg,m_l_025.jpg,within,NA,NaN,NA,left,6214,1,2,4101
sswjvyRK,NA,NA,sswjvyRK,2020-0188,2021-09-26,17:12:11,18:25:49,NA,incomplete,false,NA,true,1,14,NA,NA,right,NA,NA,m_s_023.jpg,n_s_015.jpg,within,NA,NaN,NA,right,6823,1,1,1579
sswjvyRK,NA,NA,sswjvyRK,2020-0188,2021-09-26,17:12:11,18:25:49,NA,incomplete,false,NA,true,1,15,NA,NA,right,NA,NA,i_s_018.jpg,o_s_022.jpg,within,NA,NaN,NA,right,4691,1,1,2417.0000000001164
sswjvyRK,NA,NA,sswjvyRK,2020-0188,2021-09-26,17:12:11,18:25:49,NA,incomplete,false,NA,true,1,16,NA,NA,left,NA,NA,o_s_025.jpg,o_s_022.jpg,between-small,NA,NaN,NA,left,1842,1,1,1884.9999999998836
sswjvyRK,NA,NA,sswjvyRK,2020-0188,2021-09-26,17:12:11,18:25:49,NA,incomplete,false,NA,true,1,17,NA,NA,left,NA,NA,c_2_011.jpg,c_2_026.jpg,between-small,NA,NaN,NA,right,2603,0,1,1747
sswjvyRK,NA,NA,sswjvyRK,2020-0188,2021-09-26,17:12:11,18:25:49,NA,incomplete,false,NA,true,1,18,NA,NA,right,NA,NA,n_s_003.jpg,m_s_005.jpg,within,NA,NaN,NA,right,9390,1,0,2458
sswjvyRK,NA,NA,sswjvyRK,2020-0188,2021-09-26,17:12:11,18:25:49,NA,incomplete,false,NA,true,1,19,NA,NA,left,NA,NA,i_s_028.jpg,c_2_010.jpg,between-big,NA,NaN,NA,right,5343.000000000116,0,1,1220
sswjvyRK,NA,NA,sswjvyRK,2020-0188,2021-09-26,17:12:11,18:25:49,NA,incomplete,false,NA,true,1,20,NA,NA,left,NA,NA,a_2_015.jpg,c_1_006.jpg,between-small,NA,NaN,NA,right,3070,0,1,1432
sswjvyRK,NA,NA,sswjvyRK,2020-0188,2021-09-26,17:12:11,18:25:49,NA,incomplete,false,NA,true,1,21,NA,NA,right,NA,NA,c_2_011.jpg,i_s_018.jpg,between-big,NA,NaN,NA,right,23162,1,2,2372
sswjvyRK,NA,NA,sswjvyRK,2020-0188,2021-09-26,17:12:11,18:25:49,NA,incomplete,false,NA,true,1,22,NA,NA,right,NA,NA,a_2_016.jpg,i_c_012.jpg,between-big,NA,NaN,NA,left,3123,0,1,2605.0000000001164
sswjvyRK,NA,NA,sswjvyRK,2020-0188,2021-09-26,17:12:11,18:25:49,NA,incomplete,false,NA,true,1,23,NA,NA,left,NA,NA,c_2_007.jpg,c_2_022.jpg,between-small,NA,NaN,NA,right,1934,0,0,1516
sswjvyRK,NA,NA,sswjvyRK,2020-0188,2021-09-26,17:12:11,18:25:49,NA,incomplete,false,NA,true,1,24,NA,NA,left,NA,NA,m_l_025.jpg,m_s_003.jpg,between-small,NA,NaN,NA,right,2475,0,0,1831.0000000001164
sswjvyRK,NA,NA,sswjvyRK,2020-0188,2021-09-26,17:12:11,18:25:49,NA,incomplete,false,NA,true,1,25,NA,NA,left,NA,NA,c_2_022.jpg,c_1_012.jpg,within,NA,NaN,NA,left,5603.000000000116,1,0,1359
sswjvyRK,NA,NA,sswjvyRK,2020-0188,2021-09-26,17:12:11,18:25:49,NA,incomplete,false,NA,true,1,26,NA,NA,left,NA,NA,o_s_020.jpg,i_s_015.jpg,within,NA,NaN,NA,right,5483,0,1,1796.0000000001164
sswjvyRK,NA,NA,sswjvyRK,2020-0188,2021-09-26,17:12:11,18:25:49,NA,incomplete,false,true,NA,2,0,abstractness,a_1_023.jpg,left,abstract,concrete,NA,NA,NA,left,2800,true,NA,NA,NA,NA,NA
sswjvyRK,NA,NA,sswjvyRK,2020-0188,2021-09-26,17:12:11,18:25:49,NA,incomplete,false,true,NA,2,1,abstractness,a_2_026.jpg,right,concrete,abstract,NA,NA,NA,right,1643,true,NA,NA,NA,NA,NA
sswjvyRK,NA,NA,sswjvyRK,2020-0188,2021-09-26,17:12:11,18:25:49,NA,incomplete,false,true,NA,2,2,abstractness,a_1_008.jpg,left,abstract,concrete,NA,NA,NA,left,1708,true,NA,NA,NA,NA,NA
sswjvyRK,NA,NA,sswjvyRK,2020-0188,2021-09-26,17:12:11,18:25:49,NA,incomplete,false,true,NA,2,3,abstractness,a_1_014.jpg,left,abstract,concrete,NA,NA,NA,left,1795,true,NA,NA,NA,NA,NA
sswjvyRK,NA,NA,sswjvyRK,2020-0188,2021-09-26,17:12:11,18:25:49,NA,incomplete,false,true,NA,2,4,abstractness,a_1_028.jpg,left,abstract,concrete,NA,NA,NA,left,1632,true,NA,NA,NA,NA,NA
sswjvyRK,NA,NA,sswjvyRK,2020-0188,2021-09-26,17:12:11,18:25:49,NA,incomplete,false,true,NA,2,5,syllable,c_1_002.jpg,right,1 syllable,2 syllables,NA,NA,NA,left,2325,false,NA,NA,NA,NA,NA
sswjvyRK,NA,NA,sswjvyRK,2020-0188,2021-09-26,17:12:11,18:25:49,NA,incomplete,false,true,NA,2,6,syllable,a_2_007.jpg,right,1 syllable,2 syllables,NA,NA,NA,right,852,true,NA,NA,NA,NA,NA
sswjvyRK,NA,NA,sswjvyRK,2020-0188,2021-09-26,17:12:11,18:25:49,NA,incomplete,false,true,NA,2,7,syllable,c_2_017.jpg,right,2 syllables,1 syllable,NA,NA,NA,left,1126,false,NA,NA,NA,NA,NA
sswjvyRK,NA,NA,sswjvyRK,2020-0188,2021-09-26,17:12:11,18:25:49,NA,incomplete,false,true,NA,2,8,syllable,c_1_023.jpg,right,2 syllables,1 syllable,NA,NA,NA,right,695,true,NA,NA,NA,NA,NA
sswjvyRK,NA,NA,sswjvyRK,2020-0188,2021-09-26,17:12:11,18:25:49,NA,incomplete,false,true,NA,2,9,syllable,c_2_008.jpg,right,2 syllables,1 syllable,NA,NA,NA,left,875,false,NA,NA,NA,NA,NA
sswjvyRK,NA,NA,sswjvyRK,2020-0188,2021-09-26,17:12:11,18:25:49,NA,incomplete,false,true,NA,2,10,location,o_s_002.jpg,left,outdoor,indoor,NA,NA,NA,left,1500,true,NA,NA,NA,NA,NA
sswjvyRK,NA,NA,sswjvyRK,2020-0188,2021-09-26,17:12:11,18:25:49,NA,incomplete,false,true,NA,2,11,location,o_c_022.jpg,right,indoor,outdoor,NA,NA,NA,right,1433,true,NA,NA,NA,NA,NA
sswjvyRK,NA,NA,sswjvyRK,2020-0188,2021-09-26,17:12:11,18:25:49,NA,incomplete,false,true,NA,2,12,location,o_c_004.jpg,left,outdoor,indoor,NA,NA,NA,left,1152,true,NA,NA,NA,NA,NA
sswjvyRK,NA,NA,sswjvyRK,2020-0188,2021-09-26,17:12:11,18:25:49,NA,incomplete,false,true,NA,2,13,location,o_c_015.jpg,right,indoor,outdoor,NA,NA,NA,right,1103,true,NA,NA,NA,NA,NA
sswjvyRK,NA,NA,sswjvyRK,2020-0188,2021-09-26,17:12:11,18:25:49,NA,incomplete,false,true,NA,2,14,location,o_c_011.jpg,left,outdoor,indoor,NA,NA,NA,left,945,true,NA,NA,NA,NA,NA
sswjvyRK,NA,NA,sswjvyRK,2020-0188,2021-09-26,17:12:11,18:25:49,NA,incomplete,false,true,NA,2,15,building,i_c_006.jpg,left,cottage,skyscraper,NA,NA,NA,left,1731,true,NA,NA,NA,NA,NA
sswjvyRK,NA,NA,sswjvyRK,2020-0188,2021-09-26,17:12:11,18:25:49,NA,incomplete,false,true,NA,2,16,building,i_s_002.jpg,left,skyscraper,cottage,NA,NA,NA,left,1426,true,NA,NA,NA,NA,NA
sswjvyRK,NA,NA,sswjvyRK,2020-0188,2021-09-26,17:12:11,18:25:49,NA,incomplete,false,true,NA,2,17,building,o_c_006.jpg,right,skyscraper,cottage,NA,NA,NA,right,2859,true,NA,NA,NA,NA,NA
sswjvyRK,NA,NA,sswjvyRK,2020-0188,2021-09-26,17:12:11,18:25:49,NA,incomplete,false,true,NA,2,18,building,o_c_007.jpg,right,skyscraper,cottage,NA,NA,NA,right,1180,true,NA,NA,NA,NA,NA
sswjvyRK,NA,NA,sswjvyRK,2020-0188,2021-09-26,17:12:11,18:25:49,NA,incomplete,false,true,NA,2,19,building,i_c_009.jpg,left,cottage,skyscraper,NA,NA,NA,left,1228,true,NA,NA,NA,NA,NA
sswjvyRK,NA,NA,sswjvyRK,2020-0188,2021-09-26,17:12:11,18:25:49,NA,incomplete,false,true,NA,2,20,origin,m_l_016.jpg,left,manmade,natural,NA,NA,NA,left,2125,true,NA,NA,NA,NA,NA
sswjvyRK,NA,NA,sswjvyRK,2020-0188,2021-09-26,17:12:11,18:25:49,NA,incomplete,false,true,NA,2,21,origin,m_s_011.jpg,left,manmade,natural,NA,NA,NA,left,1130,true,NA,NA,NA,NA,NA
sswjvyRK,NA,NA,sswjvyRK,2020-0188,2021-09-26,17:12:11,18:25:49,NA,incomplete,false,true,NA,2,22,origin,n_l_027.jpg,right,manmade,natural,NA,NA,NA,right,1256.99999999977,true,NA,NA,NA,NA,NA
sswjvyRK,NA,NA,sswjvyRK,2020-0188,2021-09-26,17:12:11,18:25:49,NA,incomplete,false,true,NA,2,23,origin,m_s_015.jpg,left,manmade,natural,NA,NA,NA,left,1583.99999999977,true,NA,NA,NA,NA,NA
sswjvyRK,NA,NA,sswjvyRK,2020-0188,2021-09-26,17:12:11,18:25:49,NA,incomplete,false,true,NA,2,24,origin,n_s_010.jpg,right,manmade,natural,NA,NA,NA,right,908.999999999767,true,NA,NA,NA,NA,NA
sswjvyRK,NA,NA,sswjvyRK,2020-0188,2021-09-26,17:12:11,18:25:49,NA,incomplete,false,true,NA,2,25,size,m_s_007.jpg,right,large,small,NA,NA,NA,right,1835,true,NA,NA,NA,NA,NA
sswjvyRK,NA,NA,sswjvyRK,2020-0188,2021-09-26,17:12:11,18:25:49,NA,incomplete,false,true,NA,2,26,size,n_l_025.jpg,right,small,large,NA,NA,NA,right,1671,true,NA,NA,NA,NA,NA
sswjvyRK,NA,NA,sswjvyRK,2020-0188,2021-09-26,17:12:11,18:25:49,NA,incomplete,false,true,NA,2,27,size,n_l_001.jpg,left,large,small,NA,NA,NA,left,1368,true,NA,NA,NA,NA,NA
sswjvyRK,NA,NA,sswjvyRK,2020-0188,2021-09-26,17:12:11,18:25:49,NA,incomplete,false,true,NA,2,28,size,m_l_006.jpg,left,large,small,NA,NA,NA,left,1170.00000000023,true,NA,NA,NA,NA,NA
sswjvyRK,NA,NA,sswjvyRK,2020-0188,2021-09-26,17:12:11,18:25:49,NA,incomplete,false,true,NA,2,29,size,m_l_026.jpg,right,small,large,NA,NA,NA,right,1301,true,NA,NA,NA,NA,NA
sswjvyRK,NA,NA,sswjvyRK,2020-0188,2021-09-26,17:12:11,18:25:49,NA,incomplete,false,NA,true,2,0,NA,NA,left,NA,NA,o_c_007.jpg,m_s_011.jpg,between-big,NA,NaN,NA,left,4091,1,1,1393
sswjvyRK,NA,NA,sswjvyRK,2020-0188,2021-09-26,17:12:11,18:25:49,NA,incomplete,false,NA,true,2,1,NA,NA,left,NA,NA,c_1_002.jpg,c_1_023.jpg,within,NA,NaN,NA,left,3851,1,1,20809
sswjvyRK,NA,NA,sswjvyRK,2020-0188,2021-09-26,17:12:11,18:25:49,NA,incomplete,false,NA,true,2,2,NA,NA,right,NA,NA,o_c_011.jpg,o_c_022.jpg,within,NA,NaN,NA,right,2823,1,0,2842
sswjvyRK,NA,NA,sswjvyRK,2020-0188,2021-09-26,17:12:11,18:25:49,NA,incomplete,false,NA,true,2,3,NA,NA,left,NA,NA,i_c_006.jpg,o_c_007.jpg,within,NA,NaN,NA,right,3380.999999999767,0,0,8409
sswjvyRK,NA,NA,sswjvyRK,2020-0188,2021-09-26,17:12:11,18:25:49,NA,incomplete,false,NA,true,2,4,NA,NA,right,NA,NA,a_1_028.jpg,a_2_026.jpg,within,NA,NaN,NA,left,5939,0,0,2227
sswjvyRK,NA,NA,sswjvyRK,2020-0188,2021-09-26,17:12:11,18:25:49,NA,incomplete,false,NA,true,2,5,NA,NA,left,NA,NA,m_s_015.jpg,n_l_025.jpg,between-small,NA,NaN,NA,left,3115,1,0,1249
sswjvyRK,NA,NA,sswjvyRK,2020-0188,2021-09-26,17:12:11,18:25:49,NA,incomplete,false,NA,true,2,6,NA,NA,right,NA,NA,n_l_027.jpg,i_c_009.jpg,between-big,NA,NaN,NA,right,2540.000000000233,1,2,1231
sswjvyRK,NA,NA,sswjvyRK,2020-0188,2021-09-26,17:12:11,18:25:49,NA,incomplete,false,NA,true,2,7,NA,NA,left,NA,NA,a_1_008.jpg,c_1_002.jpg,between-small,NA,NaN,NA,left,9582.000000000233,1,1,5250.999999999767
sswjvyRK,NA,NA,sswjvyRK,2020-0188,2021-09-26,17:12:11,18:25:49,NA,incomplete,false,NA,true,2,8,NA,NA,right,NA,NA,a_2_007.jpg,a_1_014.jpg,between-small,NA,NaN,NA,right,5590,1,0,2060.000000000233
sswjvyRK,NA,NA,sswjvyRK,2020-0188,2021-09-26,17:12:11,18:25:49,NA,incomplete,false,NA,true,2,9,NA,NA,right,NA,NA,o_c_006.jpg,o_c_011.jpg,between-small,NA,NaN,NA,right,4254,1,0,1419
sswjvyRK,NA,NA,sswjvyRK,2020-0188,2021-09-26,17:12:11,18:25:49,NA,incomplete,false,NA,true,2,10,NA,NA,right,NA,NA,m_l_006.jpg,m_s_007.jpg,within,NA,NaN,NA,right,3790,1,0,2257
sswjvyRK,NA,NA,sswjvyRK,2020-0188,2021-09-26,17:12:11,18:25:49,NA,incomplete,false,NA,true,2,11,NA,NA,left,NA,NA,n_l_027.jpg,m_s_007.jpg,between-small,NA,NaN,NA,right,4135,0,0,1457
sswjvyRK,NA,NA,sswjvyRK,2020-0188,2021-09-26,17:12:11,18:25:49,NA,incomplete,false,NA,true,2,12,NA,NA,left,NA,NA,o_s_002.jpg,o_c_015.jpg,within,NA,NaN,NA,left,5189,1,0,1222
sswjvyRK,NA,NA,sswjvyRK,2020-0188,2021-09-26,17:12:11,18:25:49,NA,incomplete,false,NA,true,2,13,NA,NA,left,NA,NA,o_c_006.jpg,m_l_016.jpg,between-big,NA,NaN,NA,left,6709,1,0,1423
sswjvyRK,NA,NA,sswjvyRK,2020-0188,2021-09-26,17:12:11,18:25:49,NA,incomplete,false,NA,true,2,14,NA,NA,right,NA,NA,o_c_022.jpg,c_1_023.jpg,between-big,NA,NaN,NA,right,3793,1,0,1596
sswjvyRK,NA,NA,sswjvyRK,2020-0188,2021-09-26,17:12:11,18:25:49,NA,incomplete,false,NA,true,2,15,NA,NA,left,NA,NA,a_1_023.jpg,a_1_014.jpg,within,NA,NaN,NA,left,2569.999999999767,1,1,2368
sswjvyRK,NA,NA,sswjvyRK,2020-0188,2021-09-26,17:12:11,18:25:49,NA,incomplete,false,NA,true,2,16,NA,NA,right,NA,NA,c_2_017.jpg,a_1_028.jpg,between-small,NA,NaN,NA,right,7661,1,1,3864
sswjvyRK,NA,NA,sswjvyRK,2020-0188,2021-09-26,17:12:11,18:25:49,NA,incomplete,false,NA,true,2,17,NA,NA,left,NA,NA,m_l_016.jpg,m_s_015.jpg,within,NA,NaN,NA,right,4401,0,0,2142
sswjvyRK,NA,NA,sswjvyRK,2020-0188,2021-09-26,17:12:11,18:25:49,NA,incomplete,false,NA,true,2,18,NA,NA,right,NA,NA,o_c_004.jpg,c_2_008.jpg,between-big,NA,NaN,NA,right,2012,1,0,1429
sswjvyRK,NA,NA,sswjvyRK,2020-0188,2021-09-26,17:12:11,18:25:49,NA,incomplete,false,NA,true,2,19,NA,NA,left,NA,NA,o_c_004.jpg,i_c_006.jpg,between-small,NA,NaN,NA,left,2995,1,0,1818
sswjvyRK,NA,NA,sswjvyRK,2020-0188,2021-09-26,17:12:11,18:25:49,NA,incomplete,false,NA,true,2,20,NA,NA,right,NA,NA,i_c_009.jpg,i_s_002.jpg,within,NA,NaN,NA,right,5186.999999999767,1,0,1475.9999999997672
sswjvyRK,NA,NA,sswjvyRK,2020-0188,2021-09-26,17:12:11,18:25:49,NA,incomplete,false,NA,true,2,21,NA,NA,left,NA,NA,c_2_017.jpg,o_s_002.jpg,between-big,NA,NaN,NA,right,7565,0,1,1202
sswjvyRK,NA,NA,sswjvyRK,2020-0188,2021-09-26,17:12:11,18:25:49,NA,incomplete,false,NA,true,2,22,NA,NA,right,NA,NA,c_2_008.jpg,a_2_007.jpg,within,NA,NaN,NA,right,5728,1,0,1654
sswjvyRK,NA,NA,sswjvyRK,2020-0188,2021-09-26,17:12:11,18:25:49,NA,incomplete,false,NA,true,2,23,NA,NA,left,NA,NA,n_s_010.jpg,n_l_001.jpg,between-small,NA,NaN,NA,right,3556,0,1,3745
sswjvyRK,NA,NA,sswjvyRK,2020-0188,2021-09-26,17:12:11,18:25:49,NA,incomplete,false,NA,true,2,24,NA,NA,left,NA,NA,m_s_011.jpg,n_s_010.jpg,within,NA,NaN,NA,left,6036,1,0,1030
sswjvyRK,NA,NA,sswjvyRK,2020-0188,2021-09-26,17:12:11,18:25:49,NA,incomplete,false,NA,true,2,25,NA,NA,left,NA,NA,n_l_025.jpg,m_l_026.jpg,within,NA,NaN,NA,left,5167.999999999767,1,0,1821
sswjvyRK,NA,NA,sswjvyRK,2020-0188,2021-09-26,17:12:11,18:25:49,NA,incomplete,false,NA,true,2,26,NA,NA,right,NA,NA,i_s_002.jpg,o_c_015.jpg,between-small,NA,NaN,NA,right,3305,1,1,2371
sswjvyRK,NA,NA,sswjvyRK,2020-0188,2021-09-26,17:12:11,18:25:49,NA,incomplete,false,true,NA,3,0,location,i_s_016.jpg,right,outdoor,indoor,NA,NA,NA,right,3025,true,NA,NA,NA,NA,NA
sswjvyRK,NA,NA,sswjvyRK,2020-0188,2021-09-26,17:12:11,18:25:49,NA,incomplete,false,true,NA,3,1,location,i_s_010.jpg,right,outdoor,indoor,NA,NA,NA,right,1772,true,NA,NA,NA,NA,NA
sswjvyRK,NA,NA,sswjvyRK,2020-0188,2021-09-26,17:12:11,18:25:49,NA,incomplete,false,true,NA,3,2,location,o_c_002.jpg,left,outdoor,indoor,NA,NA,NA,left,1128,true,NA,NA,NA,NA,NA
sswjvyRK,NA,NA,sswjvyRK,2020-0188,2021-09-26,17:12:11,18:25:49,NA,incomplete,false,true,NA,3,3,location,i_s_020.jpg,left,indoor,outdoor,NA,NA,NA,left,1293,true,NA,NA,NA,NA,NA
sswjvyRK,NA,NA,sswjvyRK,2020-0188,2021-09-26,17:12:11,18:25:49,NA,incomplete,false,true,NA,3,4,location,i_c_022.jpg,left,indoor,outdoor,NA,NA,NA,left,939,true,NA,NA,NA,NA,NA
sswjvyRK,NA,NA,sswjvyRK,2020-0188,2021-09-26,17:12:11,18:25:49,NA,incomplete,false,true,NA,3,5,building,i_c_001.jpg,left,cottage,skyscraper,NA,NA,NA,left,1378,true,NA,NA,NA,NA,NA
sswjvyRK,NA,NA,sswjvyRK,2020-0188,2021-09-26,17:12:11,18:25:49,NA,incomplete,false,true,NA,3,6,building,i_c_028.jpg,right,skyscraper,cottage,NA,NA,NA,right,1851.00000000023,true,NA,NA,NA,NA,NA
sswjvyRK,NA,NA,sswjvyRK,2020-0188,2021-09-26,17:12:11,18:25:49,NA,incomplete,false,true,NA,3,7,building,i_c_008.jpg,right,skyscraper,cottage,NA,NA,NA,right,1165,true,NA,NA,NA,NA,NA
sswjvyRK,NA,NA,sswjvyRK,2020-0188,2021-09-26,17:12:11,18:25:49,NA,incomplete,false,true,NA,3,8,building,o_s_016.jpg,left,skyscraper,cottage,NA,NA,NA,left,1801,true,NA,NA,NA,NA,NA
sswjvyRK,NA,NA,sswjvyRK,2020-0188,2021-09-26,17:12:11,18:25:49,NA,incomplete,false,true,NA,3,9,building,o_s_026.jpg,left,skyscraper,cottage,NA,NA,NA,left,1418,true,NA,NA,NA,NA,NA
sswjvyRK,NA,NA,sswjvyRK,2020-0188,2021-09-26,17:12:11,18:25:49,NA,incomplete,false,true,NA,3,10,syllable,c_1_019.jpg,right,2 syllables,1 syllable,NA,NA,NA,right,2117.00000000023,true,NA,NA,NA,NA,NA
sswjvyRK,NA,NA,sswjvyRK,2020-0188,2021-09-26,17:12:11,18:25:49,NA,incomplete,false,true,NA,3,11,syllable,a_1_004.jpg,right,1 syllable,2 syllables,NA,NA,NA,left,1766.99999999977,false,NA,NA,NA,NA,NA
sswjvyRK,NA,NA,sswjvyRK,2020-0188,2021-09-26,17:12:11,18:25:49,NA,incomplete,false,true,NA,3,12,syllable,c_2_020.jpg,right,2 syllables,1 syllable,NA,NA,NA,left,1094.99999999977,false,NA,NA,NA,NA,NA
sswjvyRK,NA,NA,sswjvyRK,2020-0188,2021-09-26,17:12:11,18:25:49,NA,incomplete,false,true,NA,3,13,syllable,a_2_001.jpg,right,2 syllables,1 syllable,NA,NA,NA,left,1879,false,NA,NA,NA,NA,NA
sswjvyRK,NA,NA,sswjvyRK,2020-0188,2021-09-26,17:12:11,18:25:49,NA,incomplete,false,true,NA,3,14,syllable,c_2_009.jpg,right,2 syllables,1 syllable,NA,NA,NA,left,2010,false,NA,NA,NA,NA,NA
sswjvyRK,NA,NA,sswjvyRK,2020-0188,2021-09-26,17:12:11,18:25:49,NA,incomplete,false,true,NA,3,15,abstractness,a_2_027.jpg,left,abstract,concrete,NA,NA,NA,left,2597.00000000023,true,NA,NA,NA,NA,NA
sswjvyRK,NA,NA,sswjvyRK,2020-0188,2021-09-26,17:12:11,18:25:49,NA,incomplete,false,true,NA,3,16,abstractness,c_2_001.jpg,right,abstract,concrete,NA,NA,NA,right,2165,true,NA,NA,NA,NA,NA
sswjvyRK,NA,NA,sswjvyRK,2020-0188,2021-09-26,17:12:11,18:25:49,NA,incomplete,false,true,NA,3,17,abstractness,a_1_011.jpg,right,concrete,abstract,NA,NA,NA,right,3002,true,NA,NA,NA,NA,NA
sswjvyRK,NA,NA,sswjvyRK,2020-0188,2021-09-26,17:12:11,18:25:49,NA,incomplete,false,true,NA,3,18,abstractness,c_2_012.jpg,right,abstract,concrete,NA,NA,NA,right,2945,true,NA,NA,NA,NA,NA
sswjvyRK,NA,NA,sswjvyRK,2020-0188,2021-09-26,17:12:11,18:25:49,NA,incomplete,false,true,NA,3,19,abstractness,a_1_002.jpg,left,abstract,concrete,NA,NA,NA,none,0,false,NA,NA,NA,NA,NA
sswjvyRK,NA,NA,sswjvyRK,2020-0188,2021-09-26,17:12:11,18:25:49,NA,incomplete,false,true,NA,3,20,origin,n_l_020.jpg,right,manmade,natural,NA,NA,NA,right,1651,true,NA,NA,NA,NA,NA
sswjvyRK,NA,NA,sswjvyRK,2020-0188,2021-09-26,17:12:11,18:25:49,NA,incomplete,false,true,NA,3,21,origin,m_s_006.jpg,right,natural,manmade,NA,NA,NA,right,1886.00000000023,true,NA,NA,NA,NA,NA
sswjvyRK,NA,NA,sswjvyRK,2020-0188,2021-09-26,17:12:11,18:25:49,NA,incomplete,false,true,NA,3,22,origin,n_s_025.jpg,left,natural,manmade,NA,NA,NA,left,1156,true,NA,NA,NA,NA,NA
sswjvyRK,NA,NA,sswjvyRK,2020-0188,2021-09-26,17:12:11,18:25:49,NA,incomplete,false,true,NA,3,23,origin,n_s_020.jpg,right,manmade,natural,NA,NA,NA,right,2319.00000000023,true,NA,NA,NA,NA,NA
sswjvyRK,NA,NA,sswjvyRK,2020-0188,2021-09-26,17:12:11,18:25:49,NA,incomplete,false,true,NA,3,24,origin,m_s_004.jpg,left,manmade,natural,NA,NA,NA,left,1714.99999999977,true,NA,NA,NA,NA,NA
sswjvyRK,NA,NA,sswjvyRK,2020-0188,2021-09-26,17:12:11,18:25:49,NA,incomplete,false,true,NA,3,25,size,m_s_012.jpg,left,small,large,NA,NA,NA,left,1694,true,NA,NA,NA,NA,NA
sswjvyRK,NA,NA,sswjvyRK,2020-0188,2021-09-26,17:12:11,18:25:49,NA,incomplete,false,true,NA,3,26,size,n_l_012.jpg,left,large,small,NA,NA,NA,left,1903,true,NA,NA,NA,NA,NA
sswjvyRK,NA,NA,sswjvyRK,2020-0188,2021-09-26,17:12:11,18:25:49,NA,incomplete,false,true,NA,3,27,size,n_s_001.jpg,right,large,small,NA,NA,NA,right,1677.00000000023,true,NA,NA,NA,NA,NA
sswjvyRK,NA,NA,sswjvyRK,2020-0188,2021-09-26,17:12:11,18:25:49,NA,incomplete,false,true,NA,3,28,size,n_s_019.jpg,left,small,large,NA,NA,NA,left,1403,true,NA,NA,NA,NA,NA
sswjvyRK,NA,NA,sswjvyRK,2020-0188,2021-09-26,17:12:11,18:25:49,NA,incomplete,false,true,NA,3,29,size,m_s_021.jpg,right,large,small,NA,NA,NA,right,1606,true,NA,NA,NA,NA,NA
sswjvyRK,NA,NA,sswjvyRK,2020-0188,2021-09-26,17:12:11,18:25:49,NA,incomplete,false,NA,true,3,0,NA,NA,left,NA,NA,o_s_026.jpg,c_2_020.jpg,between-big,NA,NaN,NA,right,3583,0,1,1843.0000000002328
sswjvyRK,NA,NA,sswjvyRK,2020-0188,2021-09-26,17:12:11,18:25:49,NA,incomplete,false,NA,true,3,1,NA,NA,right,NA,NA,m_s_012.jpg,n_s_025.jpg,between-small,NA,NaN,NA,right,3550,1,1,2706
sswjvyRK,NA,NA,sswjvyRK,2020-0188,2021-09-26,17:12:11,18:25:49,NA,incomplete,false,NA,true,3,2,NA,NA,left,NA,NA,i_c_022.jpg,i_c_008.jpg,between-small,NA,NaN,NA,left,3066,1,1,1589
sswjvyRK,NA,NA,sswjvyRK,2020-0188,2021-09-26,17:12:11,18:25:49,NA,incomplete,false,NA,true,3,3,NA,NA,left,NA,NA,c_2_009.jpg,a_1_011.jpg,between-small,NA,NaN,NA,right,5530,0,1,2091
sswjvyRK,NA,NA,sswjvyRK,2020-0188,2021-09-26,17:12:11,18:25:49,NA,incomplete,false,NA,true,3,4,NA,NA,left,NA,NA,n_s_020.jpg,n_l_012.jpg,between-small,NA,NaN,NA,right,9509,0,1,1878
sswjvyRK,NA,NA,sswjvyRK,2020-0188,2021-09-26,17:12:11,18:25:49,NA,incomplete,false,NA,true,3,5,NA,NA,left,NA,NA,m_s_006.jpg,m_s_004.jpg,within,NA,NaN,NA,left,3648.999999999767,1,1,1409
sswjvyRK,NA,NA,sswjvyRK,2020-0188,2021-09-26,17:12:11,18:25:49,NA,incomplete,false,NA,true,3,6,NA,NA,left,NA,NA,c_2_020.jpg,a_2_027.jpg,between-small,NA,NaN,NA,left,4103.999999999767,1,1,3106
sswjvyRK,NA,NA,sswjvyRK,2020-0188,2021-09-26,17:12:11,18:25:49,NA,incomplete,false,NA,true,3,7,NA,NA,left,NA,NA,n_l_012.jpg,m_s_021.jpg,within,NA,NaN,NA,left,13691,1,0,2550
sswjvyRK,NA,NA,sswjvyRK,2020-0188,2021-09-26,17:12:11,18:25:49,NA,incomplete,false,NA,true,3,8,NA,NA,right,NA,NA,n_s_020.jpg,n_l_020.jpg,within,NA,NaN,NA,right,6443.999999999767,1,0,1431.0000000002328
sswjvyRK,NA,NA,sswjvyRK,2020-0188,2021-09-26,17:12:11,18:25:49,NA,incomplete,false,NA,true,3,9,NA,NA,right,NA,NA,o_s_016.jpg,i_c_001.jpg,within,NA,NaN,NA,right,2350.000000000233,1,0,4366
sswjvyRK,NA,NA,sswjvyRK,2020-0188,2021-09-26,17:12:11,18:25:49,NA,incomplete,false,NA,true,3,10,NA,NA,right,NA,NA,n_s_001.jpg,m_s_004.jpg,between-small,NA,NaN,NA,left,9570,0,0,1916
sswjvyRK,NA,NA,sswjvyRK,2020-0188,2021-09-26,17:12:11,18:25:49,NA,incomplete,false,NA,true,3,11,NA,NA,left,NA,NA,a_2_001.jpg,c_2_001.jpg,between-small,NA,NaN,NA,left,4550,1,1,1524
sswjvyRK,NA,NA,sswjvyRK,2020-0188,2021-09-26,17:12:11,18:25:49,NA,incomplete,false,NA,true,3,12,NA,NA,left,NA,NA,i_s_010.jpg,i_c_022.jpg,within,NA,NaN,NA,left,5616,1,1,2965.999999999767
sswjvyRK,NA,NA,sswjvyRK,2020-0188,2021-09-26,17:12:11,18:25:49,NA,incomplete,false,NA,true,3,13,NA,NA,left,NA,NA,c_1_019.jpg,a_2_001.jpg,within,NA,NaN,NA,left,2438,1,0,1394
sswjvyRK,NA,NA,sswjvyRK,2020-0188,2021-09-26,17:12:11,18:25:49,NA,incomplete,false,NA,true,3,14,NA,NA,left,NA,NA,a_2_027.jpg,c_2_012.jpg,within,NA,NaN,NA,right,7383.000000000233,0,1,1830
sswjvyRK,NA,NA,sswjvyRK,2020-0188,2021-09-26,17:12:11,18:25:49,NA,incomplete,false,NA,true,3,15,NA,NA,left,NA,NA,i_s_020.jpg,i_c_028.jpg,between-small,NA,NaN,NA,right,1766.0000000002328,0,0,2490
sswjvyRK,NA,NA,sswjvyRK,2020-0188,2021-09-26,17:12:11,18:25:49,NA,incomplete,false,NA,true,3,16,NA,NA,right,NA,NA,i_s_020.jpg,i_s_016.jpg,within,NA,NaN,NA,left,3917.000000000233,0,0,1337.9999999997672
sswjvyRK,NA,NA,sswjvyRK,2020-0188,2021-09-26,17:12:11,18:25:49,NA,incomplete,false,NA,true,3,17,NA,NA,right,NA,NA,c_1_019.jpg,i_c_008.jpg,between-big,NA,NaN,NA,left,6003.000000000233,0,2,2592
sswjvyRK,NA,NA,sswjvyRK,2020-0188,2021-09-26,17:12:11,18:25:49,NA,incomplete,false,NA,true,3,18,NA,NA,left,NA,NA,m_s_012.jpg,n_s_019.jpg,within,NA,NaN,NA,left,3168,1,0,2301.000000000233
sswjvyRK,NA,NA,sswjvyRK,2020-0188,2021-09-26,17:12:11,18:25:49,NA,incomplete,false,NA,true,3,19,NA,NA,left,NA,NA,a_1_002.jpg,n_s_025.jpg,between-big,NA,NaN,NA,right,4343,0,1,3018
sswjvyRK,NA,NA,sswjvyRK,2020-0188,2021-09-26,17:12:11,18:25:49,NA,incomplete,false,NA,true,3,20,NA,NA,left,NA,NA,a_1_011.jpg,n_l_020.jpg,between-big,NA,NaN,NA,left,2266.000000000233,1,1,1995
sswjvyRK,NA,NA,sswjvyRK,2020-0188,2021-09-26,17:12:11,18:25:49,NA,incomplete,false,NA,true,3,21,NA,NA,left,NA,NA,a_1_004.jpg,c_2_009.jpg,within,NA,NaN,NA,left,2981,1,1,3250
sswjvyRK,NA,NA,sswjvyRK,2020-0188,2021-09-26,17:12:11,18:25:49,NA,incomplete,false,NA,true,3,22,NA,NA,right,NA,NA,a_1_002.jpg,c_2_001.jpg,within,NA,NaN,NA,right,4182.000000000233,1,0,1782
sswjvyRK,NA,NA,sswjvyRK,2020-0188,2021-09-26,17:12:11,18:25:49,NA,incomplete,false,NA,true,3,23,NA,NA,right,NA,NA,m_s_006.jpg,c_2_012.jpg,between-big,NA,NaN,NA,right,5564,1,1,1389
sswjvyRK,NA,NA,sswjvyRK,2020-0188,2021-09-26,17:12:11,18:25:49,NA,incomplete,false,NA,true,3,24,NA,NA,left,NA,NA,i_c_028.jpg,o_s_026.jpg,within,NA,NaN,NA,left,1631,1,0,3440
sswjvyRK,NA,NA,sswjvyRK,2020-0188,2021-09-26,17:12:11,18:25:49,NA,incomplete,false,NA,true,3,25,NA,NA,left,NA,NA,o_s_016.jpg,a_1_004.jpg,between-big,NA,NaN,NA,left,3829,1,1,2633.000000000233
sswjvyRK,NA,NA,sswjvyRK,2020-0188,2021-09-26,17:12:11,18:25:49,NA,incomplete,false,NA,true,3,26,NA,NA,left,NA,NA,o_c_002.jpg,i_c_001.jpg,between-small,NA,NaN,NA,left,4051,1,1,1381
sswjvyRK,NA,NA,sswjvyRK,2020-0188,2021-09-26,17:12:11,18:25:49,NA,incomplete,false,true,NA,4,0,size,m_s_026.jpg,left,small,large,NA,NA,NA,left,1754,true,NA,NA,NA,NA,NA
sswjvyRK,NA,NA,sswjvyRK,2020-0188,2021-09-26,17:12:11,18:25:49,NA,incomplete,false,true,NA,4,1,size,n_s_021.jpg,left,small,large,NA,NA,NA,left,970.000000000233,true,NA,NA,NA,NA,NA
sswjvyRK,NA,NA,sswjvyRK,2020-0188,2021-09-26,17:12:11,18:25:49,NA,incomplete,false,true,NA,4,2,size,m_s_019.jpg,left,small,large,NA,NA,NA,left,1348,true,NA,NA,NA,NA,NA
sswjvyRK,NA,NA,sswjvyRK,2020-0188,2021-09-26,17:12:11,18:25:49,NA,incomplete,false,true,NA,4,3,size,n_l_006.jpg,right,small,large,NA,NA,NA,right,987,true,NA,NA,NA,NA,NA
sswjvyRK,NA,NA,sswjvyRK,2020-0188,2021-09-26,17:12:11,18:25:49,NA,incomplete,false,true,NA,4,4,size,n_s_005.jpg,left,small,large,NA,NA,NA,left,1529,true,NA,NA,NA,NA,NA
sswjvyRK,NA,NA,sswjvyRK,2020-0188,2021-09-26,17:12:11,18:25:49,NA,incomplete,false,true,NA,4,5,origin,m_l_008.jpg,right,natural,manmade,NA,NA,NA,right,3262.00000000023,true,NA,NA,NA,NA,NA
sswjvyRK,NA,NA,sswjvyRK,2020-0188,2021-09-26,17:12:11,18:25:49,NA,incomplete,false,true,NA,4,6,origin,n_l_023.jpg,left,natural,manmade,NA,NA,NA,left,2357.99999999977,true,NA,NA,NA,NA,NA
sswjvyRK,NA,NA,sswjvyRK,2020-0188,2021-09-26,17:12:11,18:25:49,NA,incomplete,false,true,NA,4,7,origin,n_s_014.jpg,left,natural,manmade,NA,NA,NA,left,1317,true,NA,NA,NA,NA,NA
sswjvyRK,NA,NA,sswjvyRK,2020-0188,2021-09-26,17:12:11,18:25:49,NA,incomplete,false,true,NA,4,8,origin,m_s_027.jpg,right,natural,manmade,NA,NA,NA,right,1670,true,NA,NA,NA,NA,NA
sswjvyRK,NA,NA,sswjvyRK,2020-0188,2021-09-26,17:12:11,18:25:49,NA,incomplete,false,true,NA,4,9,origin,n_s_016.jpg,left,natural,manmade,NA,NA,NA,left,1167,true,NA,NA,NA,NA,NA
sswjvyRK,NA,NA,sswjvyRK,2020-0188,2021-09-26,17:12:11,18:25:49,NA,incomplete,false,true,NA,4,10,location,i_c_025.jpg,left,indoor,outdoor,NA,NA,NA,left,1659,true,NA,NA,NA,NA,NA
sswjvyRK,NA,NA,sswjvyRK,2020-0188,2021-09-26,17:12:11,18:25:49,NA,incomplete,false,true,NA,4,11,location,o_c_013.jpg,left,outdoor,indoor,NA,NA,NA,right,1135,false,NA,NA,NA,NA,NA
sswjvyRK,NA,NA,sswjvyRK,2020-0188,2021-09-26,17:12:11,18:25:49,NA,incomplete,false,true,NA,4,12,location,i_s_005.jpg,left,indoor,outdoor,NA,NA,NA,left,2090.00000000023,true,NA,NA,NA,NA,NA
sswjvyRK,NA,NA,sswjvyRK,2020-0188,2021-09-26,17:12:11,18:25:49,NA,incomplete,false,true,NA,4,13,location,i_c_015.jpg,left,indoor,outdoor,NA,NA,NA,left,1266,true,NA,NA,NA,NA,NA
sswjvyRK,NA,NA,sswjvyRK,2020-0188,2021-09-26,17:12:11,18:25:49,NA,incomplete,false,true,NA,4,14,location,i_s_019.jpg,right,outdoor,indoor,NA,NA,NA,right,1604,true,NA,NA,NA,NA,NA
sswjvyRK,NA,NA,sswjvyRK,2020-0188,2021-09-26,17:12:11,18:25:49,NA,incomplete,false,true,NA,4,15,building,o_c_021.jpg,right,skyscraper,cottage,NA,NA,NA,right,1575,true,NA,NA,NA,NA,NA
sswjvyRK,NA,NA,sswjvyRK,2020-0188,2021-09-26,17:12:11,18:25:49,NA,incomplete,false,true,NA,4,16,building,i_s_022.jpg,right,cottage,skyscraper,NA,NA,NA,right,1455.99999999977,true,NA,NA,NA,NA,NA
sswjvyRK,NA,NA,sswjvyRK,2020-0188,2021-09-26,17:12:11,18:25:49,NA,incomplete,false,true,NA,4,17,building,o_s_004.jpg,right,cottage,skyscraper,NA,NA,NA,right,1651.99999999977,true,NA,NA,NA,NA,NA
sswjvyRK,NA,NA,sswjvyRK,2020-0188,2021-09-26,17:12:11,18:25:49,NA,incomplete,false,true,NA,4,18,building,i_s_008.jpg,right,cottage,skyscraper,NA,NA,NA,right,2272.99999999977,true,NA,NA,NA,NA,NA
sswjvyRK,NA,NA,sswjvyRK,2020-0188,2021-09-26,17:12:11,18:25:49,NA,incomplete,false,true,NA,4,19,building,o_s_010.jpg,left,skyscraper,cottage,NA,NA,NA,left,1213.99999999977,true,NA,NA,NA,NA,NA
sswjvyRK,NA,NA,sswjvyRK,2020-0188,2021-09-26,17:12:11,18:25:49,NA,incomplete,false,true,NA,4,20,syllable,a_1_015.jpg,right,1 syllable,2 syllables,NA,NA,NA,left,2468.00000000023,false,NA,NA,NA,NA,NA
sswjvyRK,NA,NA,sswjvyRK,2020-0188,2021-09-26,17:12:11,18:25:49,NA,incomplete,false,true,NA,4,21,syllable,c_1_026.jpg,right,2 syllables,1 syllable,NA,NA,NA,right,1215.00000000023,true,NA,NA,NA,NA,NA
sswjvyRK,NA,NA,sswjvyRK,2020-0188,2021-09-26,17:12:11,18:25:49,NA,incomplete,false,true,NA,4,22,syllable,a_1_022.jpg,right,2 syllables,1 syllable,NA,NA,NA,right,1206.99999999977,true,NA,NA,NA,NA,NA
sswjvyRK,NA,NA,sswjvyRK,2020-0188,2021-09-26,17:12:11,18:25:49,NA,incomplete,false,true,NA,4,23,syllable,c_2_013.jpg,right,1 syllable,2 syllables,NA,NA,NA,right,1150,true,NA,NA,NA,NA,NA
sswjvyRK,NA,NA,sswjvyRK,2020-0188,2021-09-26,17:12:11,18:25:49,NA,incomplete,false,true,NA,4,24,syllable,c_1_018.jpg,right,2 syllables,1 syllable,NA,NA,NA,right,1418,true,NA,NA,NA,NA,NA
sswjvyRK,NA,NA,sswjvyRK,2020-0188,2021-09-26,17:12:11,18:25:49,NA,incomplete,false,true,NA,4,25,abstractness,a_2_008.jpg,right,concrete,abstract,NA,NA,NA,right,2806.99999999977,true,NA,NA,NA,NA,NA
sswjvyRK,NA,NA,sswjvyRK,2020-0188,2021-09-26,17:12:11,18:25:49,NA,incomplete,false,true,NA,4,26,abstractness,a_1_003.jpg,left,abstract,concrete,NA,NA,NA,left,1833.99999999977,true,NA,NA,NA,NA,NA
sswjvyRK,NA,NA,sswjvyRK,2020-0188,2021-09-26,17:12:11,18:25:49,NA,incomplete,false,true,NA,4,27,abstractness,c_1_016.jpg,right,abstract,concrete,NA,NA,NA,right,1100.99999999953,true,NA,NA,NA,NA,NA
sswjvyRK,NA,NA,sswjvyRK,2020-0188,2021-09-26,17:12:11,18:25:49,NA,incomplete,false,true,NA,4,28,abstractness,c_1_020.jpg,right,abstract,concrete,NA,NA,NA,right,2449,true,NA,NA,NA,NA,NA
sswjvyRK,NA,NA,sswjvyRK,2020-0188,2021-09-26,17:12:11,18:25:49,NA,incomplete,false,true,NA,4,29,abstractness,c_1_021.jpg,left,concrete,abstract,NA,NA,NA,left,1972.00000000023,true,NA,NA,NA,NA,NA
sswjvyRK,NA,NA,sswjvyRK,2020-0188,2021-09-26,17:12:11,18:25:49,NA,incomplete,false,NA,true,4,0,NA,NA,left,NA,NA,o_c_013.jpg,i_s_019.jpg,within,NA,NaN,NA,left,3819,1,1,2295
sswjvyRK,NA,NA,sswjvyRK,2020-0188,2021-09-26,17:12:11,18:25:49,NA,incomplete,false,NA,true,4,1,NA,NA,right,NA,NA,a_1_015.jpg,o_s_004.jpg,between-big,NA,NaN,NA,right,1546,1,1,3873
sswjvyRK,NA,NA,sswjvyRK,2020-0188,2021-09-26,17:12:11,18:25:49,NA,incomplete,false,NA,true,4,2,NA,NA,right,NA,NA,c_2_013.jpg,a_1_015.jpg,within,NA,NaN,NA,right,4644,1,0,1721
sswjvyRK,NA,NA,sswjvyRK,2020-0188,2021-09-26,17:12:11,18:25:49,NA,incomplete,false,NA,true,4,3,NA,NA,left,NA,NA,n_s_005.jpg,n_s_014.jpg,between-small,NA,NaN,NA,right,2274,0,0,2511.0000000004657
sswjvyRK,NA,NA,sswjvyRK,2020-0188,2021-09-26,17:12:11,18:25:49,NA,incomplete,false,NA,true,4,4,NA,NA,left,NA,NA,n_s_021.jpg,n_s_005.jpg,within,NA,NaN,NA,left,1617,1,0,2910
sswjvyRK,NA,NA,sswjvyRK,2020-0188,2021-09-26,17:12:11,18:25:49,NA,incomplete,false,NA,true,4,5,NA,NA,left,NA,NA,n_s_016.jpg,i_s_005.jpg,between-big,NA,NaN,NA,right,6259,0,2,2184
sswjvyRK,NA,NA,sswjvyRK,2020-0188,2021-09-26,17:12:11,18:25:49,NA,incomplete,false,NA,true,4,6,NA,NA,right,NA,NA,a_1_003.jpg,c_2_013.jpg,between-small,NA,NaN,NA,left,6763,0,1,3139
sswjvyRK,NA,NA,sswjvyRK,2020-0188,2021-09-26,17:12:11,18:25:49,NA,incomplete,false,NA,true,4,7,NA,NA,right,NA,NA,m_l_008.jpg,m_s_019.jpg,between-small,NA,NaN,NA,left,2858,0,0,1403
sswjvyRK,NA,NA,sswjvyRK,2020-0188,2021-09-26,17:12:11,18:25:49,NA,incomplete,false,NA,true,4,8,NA,NA,right,NA,NA,o_c_021.jpg,i_s_005.jpg,between-small,NA,NaN,NA,left,1783,0,0,2190
sswjvyRK,NA,NA,sswjvyRK,2020-0188,2021-09-26,17:12:11,18:25:49,NA,incomplete,false,NA,true,4,9,NA,NA,left,NA,NA,c_1_018.jpg,c_1_016.jpg,between-small,NA,NaN,NA,right,3248,0,1,2108
sswjvyRK,NA,NA,sswjvyRK,2020-0188,2021-09-26,17:12:11,18:25:49,NA,incomplete,false,NA,true,4,10,NA,NA,left,NA,NA,m_s_027.jpg,o_c_013.jpg,between-big,NA,NaN,NA,right,1826,0,2,2120
sswjvyRK,NA,NA,sswjvyRK,2020-0188,2021-09-26,17:12:11,18:25:49,NA,incomplete,false,NA,true,4,11,NA,NA,left,NA,NA,o_c_021.jpg,i_s_008.jpg,within,NA,NaN,NA,right,5179,0,0,2857
sswjvyRK,NA,NA,sswjvyRK,2020-0188,2021-09-26,17:12:11,18:25:49,NA,incomplete,false,NA,true,4,12,NA,NA,right,NA,NA,i_c_025.jpg,n_s_014.jpg,between-big,NA,NaN,NA,left,1774.0000000004657,0,2,5353
sswjvyRK,NA,NA,sswjvyRK,2020-0188,2021-09-26,17:12:11,18:25:49,NA,incomplete,false,NA,true,4,13,NA,NA,left,NA,NA,i_s_019.jpg,o_s_004.jpg,between-small,NA,NaN,NA,left,4430,1,1,1457
sswjvyRK,NA,NA,sswjvyRK,2020-0188,2021-09-26,17:12:11,18:25:49,NA,incomplete,false,NA,true,4,14,NA,NA,right,NA,NA,c_1_021.jpg,a_1_003.jpg,within,NA,NaN,NA,left,1902,0,2,3918
sswjvyRK,NA,NA,sswjvyRK,2020-0188,2021-09-26,17:12:11,18:25:49,NA,incomplete,false,NA,true,4,15,NA,NA,left,NA,NA,i_s_022.jpg,o_s_010.jpg,within,NA,NaN,NA,right,4286.000000000466,0,1,4243
sswjvyRK,NA,NA,sswjvyRK,2020-0188,2021-09-26,17:12:11,18:25:49,NA,incomplete,false,NA,true,4,16,NA,NA,right,NA,NA,c_1_026.jpg,i_s_008.jpg,between-big,NA,NaN,NA,right,2071,1,2,5519
sswjvyRK,NA,NA,sswjvyRK,2020-0188,2021-09-26,17:12:11,18:25:49,NA,incomplete,false,NA,true,4,17,NA,NA,right,NA,NA,i_s_022.jpg,i_c_015.jpg,between-small,NA,NaN,NA,right,3139,1,0,4500
sswjvyRK,NA,NA,sswjvyRK,2020-0188,2021-09-26,17:12:11,18:25:49,NA,incomplete,false,NA,true,4,18,NA,NA,left,NA,NA,m_l_008.jpg,m_s_027.jpg,within,NA,NaN,NA,left,3936,1,0,3010.9999999995343
sswjvyRK,NA,NA,sswjvyRK,2020-0188,2021-09-26,17:12:11,18:25:49,NA,incomplete,false,NA,true,4,19,NA,NA,right,NA,NA,c_1_020.jpg,a_2_008.jpg,within,NA,NaN,NA,right,9080,1,1,1296
sswjvyRK,NA,NA,sswjvyRK,2020-0188,2021-09-26,17:12:11,18:25:49,NA,incomplete,false,NA,true,4,20,NA,NA,left,NA,NA,o_s_010.jpg,a_1_022.jpg,between-big,NA,NaN,NA,right,3656,0,2,4632.999999999534
sswjvyRK,NA,NA,sswjvyRK,2020-0188,2021-09-26,17:12:11,18:25:49,NA,incomplete,false,NA,true,4,21,NA,NA,left,NA,NA,n_l_023.jpg,n_s_016.jpg,within,NA,NaN,NA,left,3870,1,0,4595
sswjvyRK,NA,NA,sswjvyRK,2020-0188,2021-09-26,17:12:11,18:25:49,NA,incomplete,false,NA,true,4,22,NA,NA,right,NA,NA,n_l_023.jpg,n_l_006.jpg,between-small,NA,NaN,NA,right,2719,1,0,6898
sswjvyRK,NA,NA,sswjvyRK,2020-0188,2021-09-26,17:12:11,18:25:49,NA,incomplete,false,NA,true,4,23,NA,NA,right,NA,NA,a_2_008.jpg,a_1_022.jpg,between-small,NA,NaN,NA,left,13667,0,1,1348
sswjvyRK,NA,NA,sswjvyRK,2020-0188,2021-09-26,17:12:11,18:25:49,NA,incomplete,false,NA,true,4,24,NA,NA,right,NA,NA,n_l_006.jpg,m_s_026.jpg,within,NA,NaN,NA,right,2437.9999999995343,1,0,7312
sswjvyRK,NA,NA,sswjvyRK,2020-0188,2021-09-26,17:12:11,18:25:49,NA,incomplete,false,NA,true,4,25,NA,NA,right,NA,NA,c_1_018.jpg,c_1_026.jpg,within,NA,NaN,NA,left,2371,0,0,1497
sswjvyRK,NA,NA,sswjvyRK,2020-0188,2021-09-26,17:12:11,18:25:49,NA,incomplete,false,NA,true,4,26,NA,NA,left,NA,NA,i_c_025.jpg,i_c_015.jpg,within,NA,NaN,NA,left,4691,1,1,9645
sswjvyRK,NA,NA,sswjvyRK,2020-0188,2021-09-26,17:12:11,18:25:49,NA,incomplete,false,true,NA,5,0,size,n_l_013.jpg,left,large,small,NA,NA,NA,left,2086,true,NA,NA,NA,NA,NA
sswjvyRK,NA,NA,sswjvyRK,2020-0188,2021-09-26,17:12:11,18:25:49,NA,incomplete,false,true,NA,5,1,size,n_l_022.jpg,right,small,large,NA,NA,NA,right,1343,true,NA,NA,NA,NA,NA
sswjvyRK,NA,NA,sswjvyRK,2020-0188,2021-09-26,17:12:11,18:25:49,NA,incomplete,false,true,NA,5,2,size,m_l_028.jpg,left,large,small,NA,NA,NA,left,980,true,NA,NA,NA,NA,NA
sswjvyRK,NA,NA,sswjvyRK,2020-0188,2021-09-26,17:12:11,18:25:49,NA,incomplete,false,true,NA,5,3,size,m_l_022.jpg,right,small,large,NA,NA,NA,right,2973,true,NA,NA,NA,NA,NA
sswjvyRK,NA,NA,sswjvyRK,2020-0188,2021-09-26,17:12:11,18:25:49,NA,incomplete,false,true,NA,5,4,size,m_s_009.jpg,left,small,large,NA,NA,NA,left,1550,true,NA,NA,NA,NA,NA
sswjvyRK,NA,NA,sswjvyRK,2020-0188,2021-09-26,17:12:11,18:25:49,NA,incomplete,false,true,NA,5,5,origin,n_l_017.jpg,right,manmade,natural,NA,NA,NA,right,1870.00000000047,true,NA,NA,NA,NA,NA
sswjvyRK,NA,NA,sswjvyRK,2020-0188,2021-09-26,17:12:11,18:25:49,NA,incomplete,false,true,NA,5,6,origin,m_l_004.jpg,left,manmade,natural,NA,NA,NA,left,2454,true,NA,NA,NA,NA,NA
sswjvyRK,NA,NA,sswjvyRK,2020-0188,2021-09-26,17:12:11,18:25:49,NA,incomplete,false,true,NA,5,7,origin,m_s_017.jpg,left,manmade,natural,NA,NA,NA,left,903,true,NA,NA,NA,NA,NA
sswjvyRK,NA,NA,sswjvyRK,2020-0188,2021-09-26,17:12:11,18:25:49,NA,incomplete,false,true,NA,5,8,origin,m_l_001.jpg,right,natural,manmade,NA,NA,NA,right,2834,true,NA,NA,NA,NA,NA
sswjvyRK,NA,NA,sswjvyRK,2020-0188,2021-09-26,17:12:11,18:25:49,NA,incomplete,false,true,NA,5,9,origin,m_s_024.jpg,left,manmade,natural,NA,NA,NA,left,2537,true,NA,NA,NA,NA,NA
sswjvyRK,NA,NA,sswjvyRK,2020-0188,2021-09-26,17:12:11,18:25:49,NA,incomplete,false,true,NA,5,10,building,i_c_014.jpg,right,skyscraper,cottage,NA,NA,NA,right,1321,true,NA,NA,NA,NA,NA
sswjvyRK,NA,NA,sswjvyRK,2020-0188,2021-09-26,17:12:11,18:25:49,NA,incomplete,false,true,NA,5,11,building,o_s_023.jpg,right,cottage,skyscraper,NA,NA,NA,right,1261,true,NA,NA,NA,NA,NA
sswjvyRK,NA,NA,sswjvyRK,2020-0188,2021-09-26,17:12:11,18:25:49,NA,incomplete,false,true,NA,5,12,building,o_c_003.jpg,left,cottage,skyscraper,NA,NA,NA,left,2637.99999999953,true,NA,NA,NA,NA,NA
sswjvyRK,NA,NA,sswjvyRK,2020-0188,2021-09-26,17:12:11,18:25:49,NA,incomplete,false,true,NA,5,13,building,i_c_007.jpg,right,skyscraper,cottage,NA,NA,NA,right,1295.99999999953,true,NA,NA,NA,NA,NA
sswjvyRK,NA,NA,sswjvyRK,2020-0188,2021-09-26,17:12:11,18:25:49,NA,incomplete,false,true,NA,5,14,building,o_s_024.jpg,right,cottage,skyscraper,NA,NA,NA,right,1584,true,NA,NA,NA,NA,NA
sswjvyRK,NA,NA,sswjvyRK,2020-0188,2021-09-26,17:12:11,18:25:49,NA,incomplete,false,true,NA,5,15,location,i_s_013.jpg,left,indoor,outdoor,NA,NA,NA,left,1427,true,NA,NA,NA,NA,NA
sswjvyRK,NA,NA,sswjvyRK,2020-0188,2021-09-26,17:12:11,18:25:49,NA,incomplete,false,true,NA,5,16,location,i_c_018.jpg,left,indoor,outdoor,NA,NA,NA,left,1681,true,NA,NA,NA,NA,NA
sswjvyRK,NA,NA,sswjvyRK,2020-0188,2021-09-26,17:12:11,18:25:49,NA,incomplete,false,true,NA,5,17,location,o_s_012.jpg,left,outdoor,indoor,NA,NA,NA,left,2286.99999999953,true,NA,NA,NA,NA,NA
sswjvyRK,NA,NA,sswjvyRK,2020-0188,2021-09-26,17:12:11,18:25:49,NA,incomplete,false,true,NA,5,18,location,i_s_021.jpg,right,outdoor,indoor,NA,NA,NA,right,1281,true,NA,NA,NA,NA,NA
sswjvyRK,NA,NA,sswjvyRK,2020-0188,2021-09-26,17:12:11,18:25:49,NA,incomplete,false,true,NA,5,19,location,o_c_014.jpg,right,indoor,outdoor,NA,NA,NA,right,2291,true,NA,NA,NA,NA,NA
sswjvyRK,NA,NA,sswjvyRK,2020-0188,2021-09-26,17:12:11,18:25:49,NA,incomplete,false,true,NA,5,20,syllable,a_1_013.jpg,right,1 syllable,2 syllables,NA,NA,NA,left,1217,false,NA,NA,NA,NA,NA
sswjvyRK,NA,NA,sswjvyRK,2020-0188,2021-09-26,17:12:11,18:25:49,NA,incomplete,false,true,NA,5,21,syllable,a_1_012.jpg,right,2 syllables,1 syllable,NA,NA,NA,right,1108,true,NA,NA,NA,NA,NA
sswjvyRK,NA,NA,sswjvyRK,2020-0188,2021-09-26,17:12:11,18:25:49,NA,incomplete,false,true,NA,5,22,syllable,c_2_016.jpg,right,1 syllable,2 syllables,NA,NA,NA,right,1423,true,NA,NA,NA,NA,NA
sswjvyRK,NA,NA,sswjvyRK,2020-0188,2021-09-26,17:12:11,18:25:49,NA,incomplete,false,true,NA,5,23,syllable,c_1_015.jpg,right,2 syllables,1 syllable,NA,NA,NA,right,1930,true,NA,NA,NA,NA,NA
sswjvyRK,NA,NA,sswjvyRK,2020-0188,2021-09-26,17:12:11,18:25:49,NA,incomplete,false,true,NA,5,24,syllable,c_1_024.jpg,right,1 syllable,2 syllables,NA,NA,NA,left,1484,false,NA,NA,NA,NA,NA
sswjvyRK,NA,NA,sswjvyRK,2020-0188,2021-09-26,17:12:11,18:25:49,NA,incomplete,false,true,NA,5,25,abstractness,c_2_021.jpg,left,concrete,abstract,NA,NA,NA,left,2048,true,NA,NA,NA,NA,NA
sswjvyRK,NA,NA,sswjvyRK,2020-0188,2021-09-26,17:12:11,18:25:49,NA,incomplete,false,true,NA,5,26,abstractness,c_2_027.jpg,left,concrete,abstract,NA,NA,NA,left,2253,true,NA,NA,NA,NA,NA
sswjvyRK,NA,NA,sswjvyRK,2020-0188,2021-09-26,17:12:11,18:25:49,NA,incomplete,false,true,NA,5,27,abstractness,a_2_022.jpg,right,concrete,abstract,NA,NA,NA,right,2265,true,NA,NA,NA,NA,NA
sswjvyRK,NA,NA,sswjvyRK,2020-0188,2021-09-26,17:12:11,18:25:49,NA,incomplete,false,true,NA,5,28,abstractness,c_1_008.jpg,left,concrete,abstract,NA,NA,NA,left,1663,true,NA,NA,NA,NA,NA
sswjvyRK,NA,NA,sswjvyRK,2020-0188,2021-09-26,17:12:11,18:25:49,NA,incomplete,false,true,NA,5,29,abstractness,a_1_026.jpg,left,abstract,concrete,NA,NA,NA,right,1911,false,NA,NA,NA,NA,NA
sswjvyRK,NA,NA,sswjvyRK,2020-0188,2021-09-26,17:12:11,18:25:49,NA,incomplete,false,NA,true,5,0,NA,NA,right,NA,NA,i_c_018.jpg,i_c_007.jpg,between-small,NA,NaN,NA,right,3949,1,1,5934.999999999534
sswjvyRK,NA,NA,sswjvyRK,2020-0188,2021-09-26,17:12:11,18:25:49,NA,incomplete,false,NA,true,5,1,NA,NA,right,NA,NA,m_l_022.jpg,n_l_013.jpg,within,NA,NaN,NA,right,4673,1,0,1210
sswjvyRK,NA,NA,sswjvyRK,2020-0188,2021-09-26,17:12:11,18:25:49,NA,incomplete,false,NA,true,5,2,NA,NA,left,NA,NA,m_s_009.jpg,m_s_017.jpg,between-small,NA,NaN,NA,left,1792,1,1,1144
sswjvyRK,NA,NA,sswjvyRK,2020-0188,2021-09-26,17:12:11,18:25:49,NA,incomplete,false,NA,true,5,3,NA,NA,right,NA,NA,a_2_022.jpg,c_1_024.jpg,between-small,NA,NaN,NA,right,2229,1,2,2345
sswjvyRK,NA,NA,sswjvyRK,2020-0188,2021-09-26,17:12:11,18:25:49,NA,incomplete,false,NA,true,5,4,NA,NA,left,NA,NA,m_l_022.jpg,m_l_004.jpg,between-small,NA,NaN,NA,left,2902,1,1,3167
sswjvyRK,NA,NA,sswjvyRK,2020-0188,2021-09-26,17:12:11,18:25:49,NA,incomplete,false,NA,true,5,5,NA,NA,right,NA,NA,c_2_027.jpg,c_1_015.jpg,between-small,NA,NaN,NA,right,3146,1,1,5051
sswjvyRK,NA,NA,sswjvyRK,2020-0188,2021-09-26,17:12:11,18:25:49,NA,incomplete,false,NA,true,5,6,NA,NA,left,NA,NA,a_1_012.jpg,c_1_024.jpg,within,NA,NaN,NA,left,2435,1,1,1315
sswjvyRK,NA,NA,sswjvyRK,2020-0188,2021-09-26,17:12:11,18:25:49,NA,incomplete,false,NA,true,5,7,NA,NA,right,NA,NA,i_s_021.jpg,i_s_013.jpg,within,NA,NaN,NA,right,2389,1,1,8077
sswjvyRK,NA,NA,sswjvyRK,2020-0188,2021-09-26,17:12:11,18:25:49,NA,incomplete,false,NA,true,5,8,NA,NA,right,NA,NA,c_1_008.jpg,c_2_021.jpg,within,NA,NaN,NA,right,2009,1,1,1607
sswjvyRK,NA,NA,sswjvyRK,2020-0188,2021-09-26,17:12:11,18:25:49,NA,incomplete,false,NA,true,5,9,NA,NA,left,NA,NA,i_c_018.jpg,o_c_014.jpg,within,NA,NaN,NA,left,1869,1,2,1851
sswjvyRK,NA,NA,sswjvyRK,2020-0188,2021-09-26,17:12:11,18:25:49,NA,incomplete,false,NA,true,5,10,NA,NA,left,NA,NA,a_1_013.jpg,c_1_015.jpg,within,NA,NaN,NA,left,2648,1,0,1997
sswjvyRK,NA,NA,sswjvyRK,2020-0188,2021-09-26,17:12:11,18:25:49,NA,incomplete,false,NA,true,5,11,NA,NA,right,NA,NA,c_2_021.jpg,c_2_016.jpg,between-small,NA,NaN,NA,right,2074,1,1,2326
sswjvyRK,NA,NA,sswjvyRK,2020-0188,2021-09-26,17:12:11,18:25:49,NA,incomplete,false,NA,true,5,12,NA,NA,right,NA,NA,m_l_001.jpg,n_l_017.jpg,within,NA,NaN,NA,right,1707,1,0,1224.9999999995343
sswjvyRK,NA,NA,sswjvyRK,2020-0188,2021-09-26,17:12:11,18:25:49,NA,incomplete,false,NA,true,5,13,NA,NA,right,NA,NA,o_c_003.jpg,m_s_024.jpg,between-big,NA,NaN,NA,left,1993,0,2,4144.000000000466
sswjvyRK,NA,NA,sswjvyRK,2020-0188,2021-09-26,17:12:11,18:25:49,NA,incomplete,false,NA,true,5,14,NA,NA,left,NA,NA,m_l_001.jpg,o_s_023.jpg,between-big,NA,NaN,NA,right,1763,0,2,3348
sswjvyRK,NA,NA,sswjvyRK,2020-0188,2021-09-26,17:12:11,18:25:49,NA,incomplete,false,NA,true,5,15,NA,NA,right,NA,NA,c_2_016.jpg,o_c_014.jpg,between-big,NA,NaN,NA,right,3507,1,2,2847
sswjvyRK,NA,NA,sswjvyRK,2020-0188,2021-09-26,17:12:11,18:25:49,NA,incomplete,false,NA,true,5,16,NA,NA,left,NA,NA,m_s_017.jpg,i_c_014.jpg,between-big,NA,NaN,NA,right,1560,0,3,1343.9999999995343
sswjvyRK,NA,NA,sswjvyRK,2020-0188,2021-09-26,17:12:11,18:25:49,NA,incomplete,false,NA,true,5,17,NA,NA,right,NA,NA,m_s_024.jpg,m_l_004.jpg,within,NA,NaN,NA,right,1628,1,1,2390.9999999995343
sswjvyRK,NA,NA,sswjvyRK,2020-0188,2021-09-26,17:12:11,18:25:49,NA,incomplete,false,NA,true,5,18,NA,NA,right,NA,NA,a_1_012.jpg,i_s_021.jpg,between-big,NA,NaN,NA,right,3363,1,2,1827
sswjvyRK,NA,NA,sswjvyRK,2020-0188,2021-09-26,17:12:11,18:25:49,NA,incomplete,false,NA,true,5,19,NA,NA,left,NA,NA,o_c_003.jpg,i_s_013.jpg,between-small,NA,NaN,NA,left,6456,1,1,1295
sswjvyRK,NA,NA,sswjvyRK,2020-0188,2021-09-26,17:12:11,18:25:49,NA,incomplete,false,NA,true,5,20,NA,NA,left,NA,NA,o_s_024.jpg,o_s_012.jpg,between-small,NA,NaN,NA,left,3038,1,1,2982
sswjvyRK,NA,NA,sswjvyRK,2020-0188,2021-09-26,17:12:11,18:25:49,NA,incomplete,false,NA,true,5,21,NA,NA,right,NA,NA,o_s_024.jpg,o_s_023.jpg,within,NA,NaN,NA,right,1276.9999999995343,1,1,5102
sswjvyRK,NA,NA,sswjvyRK,2020-0188,2021-09-26,17:12:11,18:25:49,NA,incomplete,false,NA,true,5,22,NA,NA,left,NA,NA,m_l_028.jpg,n_l_017.jpg,between-small,NA,NaN,NA,right,1669.0000000004657,0,2,1990
sswjvyRK,NA,NA,sswjvyRK,2020-0188,2021-09-26,17:12:11,18:25:49,NA,incomplete,false,NA,true,5,23,NA,NA,left,NA,NA,n_l_022.jpg,m_s_009.jpg,within,NA,NaN,NA,left,4046,1,0,1848.9999999995343
sswjvyRK,NA,NA,sswjvyRK,2020-0188,2021-09-26,17:12:11,18:25:49,NA,incomplete,false,NA,true,5,24,NA,NA,right,NA,NA,i_c_007.jpg,i_c_014.jpg,within,NA,NaN,NA,right,5033,1,1,1771
sswjvyRK,NA,NA,sswjvyRK,2020-0188,2021-09-26,17:12:11,18:25:49,NA,incomplete,false,NA,true,5,25,NA,NA,left,NA,NA,o_s_012.jpg,a_1_013.jpg,between-big,NA,NaN,NA,right,3205,0,2,3269
sswjvyRK,NA,NA,sswjvyRK,2020-0188,2021-09-26,17:12:11,18:25:49,NA,incomplete,false,NA,true,5,26,NA,NA,left,NA,NA,c_2_027.jpg,a_1_026.jpg,within,NA,NaN,NA,left,3302,1,1,1598
sswjvyRK,NA,NA,sswjvyRK,2020-0188,2021-09-26,17:12:11,18:25:49,NA,incomplete,false,true,NA,6,0,location,o_s_018.jpg,left,outdoor,indoor,NA,NA,NA,left,2058,true,NA,NA,NA,NA,NA
sswjvyRK,NA,NA,sswjvyRK,2020-0188,2021-09-26,17:12:11,18:25:49,NA,incomplete,false,true,NA,6,1,location,o_s_027.jpg,right,indoor,outdoor,NA,NA,NA,right,1794,true,NA,NA,NA,NA,NA
sswjvyRK,NA,NA,sswjvyRK,2020-0188,2021-09-26,17:12:11,18:25:49,NA,incomplete,false,true,NA,6,2,location,i_s_012.jpg,right,outdoor,indoor,NA,NA,NA,right,1337,true,NA,NA,NA,NA,NA
sswjvyRK,NA,NA,sswjvyRK,2020-0188,2021-09-26,17:12:11,18:25:49,NA,incomplete,false,true,NA,6,3,location,o_c_024.jpg,right,indoor,outdoor,NA,NA,NA,right,1537.99999999953,true,NA,NA,NA,NA,NA
sswjvyRK,NA,NA,sswjvyRK,2020-0188,2021-09-26,17:12:11,18:25:49,NA,incomplete,false,true,NA,6,4,location,i_c_016.jpg,left,indoor,outdoor,NA,NA,NA,left,1699.99999999953,true,NA,NA,NA,NA,NA
sswjvyRK,NA,NA,sswjvyRK,2020-0188,2021-09-26,17:12:11,18:25:49,NA,incomplete,false,true,NA,6,5,building,i_c_011.jpg,left,cottage,skyscraper,NA,NA,NA,left,1585,true,NA,NA,NA,NA,NA
sswjvyRK,NA,NA,sswjvyRK,2020-0188,2021-09-26,17:12:11,18:25:49,NA,incomplete,false,true,NA,6,6,building,o_s_008.jpg,right,cottage,skyscraper,NA,NA,NA,right,1315.99999999953,true,NA,NA,NA,NA,NA
sswjvyRK,NA,NA,sswjvyRK,2020-0188,2021-09-26,17:12:11,18:25:49,NA,incomplete,false,true,NA,6,7,building,i_s_026.jpg,left,skyscraper,cottage,NA,NA,NA,left,2688,true,NA,NA,NA,NA,NA
sswjvyRK,NA,NA,sswjvyRK,2020-0188,2021-09-26,17:12:11,18:25:49,NA,incomplete,false,true,NA,6,8,building,i_c_017.jpg,right,skyscraper,cottage,NA,NA,NA,right,1744,true,NA,NA,NA,NA,NA
sswjvyRK,NA,NA,sswjvyRK,2020-0188,2021-09-26,17:12:11,18:25:49,NA,incomplete,false,true,NA,6,9,building,o_c_017.jpg,left,cottage,skyscraper,NA,NA,NA,left,2033.00000000047,true,NA,NA,NA,NA,NA
sswjvyRK,NA,NA,sswjvyRK,2020-0188,2021-09-26,17:12:11,18:25:49,NA,incomplete,false,true,NA,6,10,abstractness,c_1_005.jpg,left,concrete,abstract,NA,NA,NA,left,1697,true,NA,NA,NA,NA,NA
sswjvyRK,NA,NA,sswjvyRK,2020-0188,2021-09-26,17:12:11,18:25:49,NA,incomplete,false,true,NA,6,11,abstractness,a_2_013.jpg,left,abstract,concrete,NA,NA,NA,left,1232.99999999953,true,NA,NA,NA,NA,NA
sswjvyRK,NA,NA,sswjvyRK,2020-0188,2021-09-26,17:12:11,18:25:49,NA,incomplete,false,true,NA,6,12,abstractness,a_2_020.jpg,right,concrete,abstract,NA,NA,NA,right,2212,true,NA,NA,NA,NA,NA
sswjvyRK,NA,NA,sswjvyRK,2020-0188,2021-09-26,17:12:11,18:25:49,NA,incomplete,false,true,NA,6,13,abstractness,a_1_027.jpg,right,concrete,abstract,NA,NA,NA,right,1959.00000000047,true,NA,NA,NA,NA,NA
sswjvyRK,NA,NA,sswjvyRK,2020-0188,2021-09-26,17:12:11,18:25:49,NA,incomplete,false,true,NA,6,14,abstractness,a_2_024.jpg,right,concrete,abstract,NA,NA,NA,right,1195,true,NA,NA,NA,NA,NA
sswjvyRK,NA,NA,sswjvyRK,2020-0188,2021-09-26,17:12:11,18:25:49,NA,incomplete,false,true,NA,6,15,syllable,a_1_017.jpg,right,1 syllable,2 syllables,NA,NA,NA,left,1223.99999999953,false,NA,NA,NA,NA,NA
sswjvyRK,NA,NA,sswjvyRK,2020-0188,2021-09-26,17:12:11,18:25:49,NA,incomplete,false,true,NA,6,16,syllable,c_2_023.jpg,right,1 syllable,2 syllables,NA,NA,NA,right,1463.99999999953,true,NA,NA,NA,NA,NA
sswjvyRK,NA,NA,sswjvyRK,2020-0188,2021-09-26,17:12:11,18:25:49,NA,incomplete,false,true,NA,6,17,syllable,c_1_007.jpg,right,1 syllable,2 syllables,NA,NA,NA,left,955,false,NA,NA,NA,NA,NA
sswjvyRK,NA,NA,sswjvyRK,2020-0188,2021-09-26,17:12:11,18:25:49,NA,incomplete,false,true,NA,6,18,syllable,a_2_002.jpg,right,2 syllables,1 syllable,NA,NA,NA,left,952,false,NA,NA,NA,NA,NA
sswjvyRK,NA,NA,sswjvyRK,2020-0188,2021-09-26,17:12:11,18:25:49,NA,incomplete,false,true,NA,6,19,syllable,c_1_025.jpg,right,2 syllables,1 syllable,NA,NA,NA,right,831,true,NA,NA,NA,NA,NA
sswjvyRK,NA,NA,sswjvyRK,2020-0188,2021-09-26,17:12:11,18:25:49,NA,incomplete,false,true,NA,6,20,size,n_s_004.jpg,left,small,large,NA,NA,NA,left,905,true,NA,NA,NA,NA,NA
sswjvyRK,NA,NA,sswjvyRK,2020-0188,2021-09-26,17:12:11,18:25:49,NA,incomplete,false,true,NA,6,21,size,m_l_014.jpg,left,large,small,NA,NA,NA,left,2195,true,NA,NA,NA,NA,NA
sswjvyRK,NA,NA,sswjvyRK,2020-0188,2021-09-26,17:12:11,18:25:49,NA,incomplete,false,true,NA,6,22,size,m_s_028.jpg,right,large,small,NA,NA,NA,right,1608,true,NA,NA,NA,NA,NA
sswjvyRK,NA,NA,sswjvyRK,2020-0188,2021-09-26,17:12:11,18:25:49,NA,incomplete,false,true,NA,6,23,size,m_s_022.jpg,left,small,large,NA,NA,NA,left,1593.00000000047,true,NA,NA,NA,NA,NA
sswjvyRK,NA,NA,sswjvyRK,2020-0188,2021-09-26,17:12:11,18:25:49,NA,incomplete,false,true,NA,6,24,size,n_l_028.jpg,right,small,large,NA,NA,NA,right,1263,true,NA,NA,NA,NA,NA
sswjvyRK,NA,NA,sswjvyRK,2020-0188,2021-09-26,17:12:11,18:25:49,NA,incomplete,false,true,NA,6,25,origin,n_s_011.jpg,left,natural,manmade,NA,NA,NA,left,2595,true,NA,NA,NA,NA,NA
sswjvyRK,NA,NA,sswjvyRK,2020-0188,2021-09-26,17:12:11,18:25:49,NA,incomplete,false,true,NA,6,26,origin,n_s_008.jpg,left,natural,manmade,NA,NA,NA,left,2027,true,NA,NA,NA,NA,NA
sswjvyRK,NA,NA,sswjvyRK,2020-0188,2021-09-26,17:12:11,18:25:49,NA,incomplete,false,true,NA,6,27,origin,m_l_011.jpg,left,manmade,natural,NA,NA,NA,left,1736,true,NA,NA,NA,NA,NA
sswjvyRK,NA,NA,sswjvyRK,2020-0188,2021-09-26,17:12:11,18:25:49,NA,incomplete,false,true,NA,6,28,origin,m_s_010.jpg,right,natural,manmade,NA,NA,NA,right,3173,true,NA,NA,NA,NA,NA
sswjvyRK,NA,NA,sswjvyRK,2020-0188,2021-09-26,17:12:11,18:25:49,NA,incomplete,false,true,NA,6,29,origin,m_s_008.jpg,right,natural,manmade,NA,NA,NA,right,1175,true,NA,NA,NA,NA,NA
sswjvyRK,NA,NA,sswjvyRK,2020-0188,2021-09-26,17:12:11,18:25:49,NA,incomplete,false,NA,true,6,0,NA,NA,left,NA,NA,c_2_023.jpg,c_1_025.jpg,within,NA,NaN,NA,left,2032.9999999995343,1,0,2154
sswjvyRK,NA,NA,sswjvyRK,2020-0188,2021-09-26,17:12:11,18:25:49,NA,incomplete,false,NA,true,6,1,NA,NA,left,NA,NA,a_2_020.jpg,a_1_017.jpg,between-small,NA,NaN,NA,left,2910,1,1,1946.9999999995343
sswjvyRK,NA,NA,sswjvyRK,2020-0188,2021-09-26,17:12:11,18:25:49,NA,incomplete,false,NA,true,6,2,NA,NA,right,NA,NA,n_s_011.jpg,m_s_028.jpg,between-small,NA,NaN,NA,right,2038.0000000004657,1,1,1235
sswjvyRK,NA,NA,sswjvyRK,2020-0188,2021-09-26,17:12:11,18:25:49,NA,incomplete,false,NA,true,6,3,NA,NA,left,NA,NA,a_1_027.jpg,c_2_023.jpg,between-small,NA,NaN,NA,right,1741,0,1,1369
sswjvyRK,NA,NA,sswjvyRK,2020-0188,2021-09-26,17:12:11,18:25:49,NA,incomplete,false,NA,true,6,4,NA,NA,right,NA,NA,o_s_008.jpg,o_c_024.jpg,between-small,NA,NaN,NA,right,1635,1,1,1106
sswjvyRK,NA,NA,sswjvyRK,2020-0188,2021-09-26,17:12:11,18:25:49,NA,incomplete,false,NA,true,6,5,NA,NA,left,NA,NA,c_1_007.jpg,n_s_004.jpg,between-big,NA,NaN,NA,right,2161,0,1,1435
sswjvyRK,NA,NA,sswjvyRK,2020-0188,2021-09-26,17:12:11,18:25:49,NA,incomplete,false,NA,true,6,6,NA,NA,right,NA,NA,m_s_008.jpg,n_s_008.jpg,within,NA,NaN,NA,right,6003.000000000466,1,0,1296
sswjvyRK,NA,NA,sswjvyRK,2020-0188,2021-09-26,17:12:11,18:25:49,NA,incomplete,false,NA,true,6,7,NA,NA,right,NA,NA,a_2_002.jpg,a_1_017.jpg,within,NA,NaN,NA,left,2062,0,1,1489
sswjvyRK,NA,NA,sswjvyRK,2020-0188,2021-09-26,17:12:11,18:25:49,NA,incomplete,false,NA,true,6,8,NA,NA,left,NA,NA,n_l_028.jpg,m_l_011.jpg,between-small,NA,NaN,NA,left,2296.9999999995343,1,0,4722
sswjvyRK,NA,NA,sswjvyRK,2020-0188,2021-09-26,17:12:11,18:25:49,NA,incomplete,false,NA,true,6,9,NA,NA,right,NA,NA,i_c_017.jpg,i_c_011.jpg,within,NA,NaN,NA,right,1514,1,1,1482
sswjvyRK,NA,NA,sswjvyRK,2020-0188,2021-09-26,17:12:11,18:25:49,NA,incomplete,false,NA,true,6,10,NA,NA,left,NA,NA,a_2_024.jpg,c_1_007.jpg,between-small,NA,NaN,NA,right,2385,0,1,2433
sswjvyRK,NA,NA,sswjvyRK,2020-0188,2021-09-26,17:12:11,18:25:49,NA,incomplete,false,NA,true,6,11,NA,NA,left,NA,NA,i_s_026.jpg,c_1_005.jpg,between-big,NA,NaN,NA,left,983,1,2,2170
sswjvyRK,NA,NA,sswjvyRK,2020-0188,2021-09-26,17:12:11,18:25:49,NA,incomplete,false,NA,true,6,12,NA,NA,right,NA,NA,n_l_028.jpg,m_l_014.jpg,within,NA,NaN,NA,right,1872,1,1,1409
sswjvyRK,NA,NA,sswjvyRK,2020-0188,2021-09-26,17:12:11,18:25:49,NA,incomplete,false,NA,true,6,13,NA,NA,left,NA,NA,o_c_017.jpg,a_2_020.jpg,between-big,NA,NaN,NA,left,1260.0000000004657,1,2,3449
sswjvyRK,NA,NA,sswjvyRK,2020-0188,2021-09-26,17:12:11,18:25:49,NA,incomplete,false,NA,true,6,14,NA,NA,right,NA,NA,m_s_010.jpg,n_s_011.jpg,within,NA,NaN,NA,left,3908,0,1,1206
sswjvyRK,NA,NA,sswjvyRK,2020-0188,2021-09-26,17:12:11,18:25:49,NA,incomplete,false,NA,true,6,15,NA,NA,left,NA,NA,c_1_025.jpg,m_s_028.jpg,between-big,NA,NaN,NA,right,1553,0,2,2281
sswjvyRK,NA,NA,sswjvyRK,2020-0188,2021-09-26,17:12:11,18:25:49,NA,incomplete,false,NA,true,6,16,NA,NA,left,NA,NA,i_c_016.jpg,i_s_026.jpg,between-small,NA,NaN,NA,left,3117.9999999995343,1,1,1347
sswjvyRK,NA,NA,sswjvyRK,2020-0188,2021-09-26,17:12:11,18:25:49,NA,incomplete,false,NA,true,6,17,NA,NA,left,NA,NA,n_s_004.jpg,m_s_022.jpg,within,NA,NaN,NA,right,1294,0,1,1322
sswjvyRK,NA,NA,sswjvyRK,2020-0188,2021-09-26,17:12:11,18:25:49,NA,incomplete,false,NA,true,6,18,NA,NA,left,NA,NA,i_c_017.jpg,a_2_013.jpg,between-big,NA,NaN,NA,right,1478,0,2,2416
sswjvyRK,NA,NA,sswjvyRK,2020-0188,2021-09-26,17:12:11,18:25:49,NA,incomplete,false,NA,true,6,19,NA,NA,right,NA,NA,o_c_024.jpg,o_s_018.jpg,within,NA,NaN,NA,right,1477,1,1,2238
sswjvyRK,NA,NA,sswjvyRK,2020-0188,2021-09-26,17:12:11,18:25:49,NA,incomplete,false,NA,true,6,20,NA,NA,right,NA,NA,m_l_014.jpg,a_2_002.jpg,between-big,NA,NaN,NA,right,5066,1,2,3590
sswjvyRK,NA,NA,sswjvyRK,2020-0188,2021-09-26,17:12:11,18:25:49,NA,incomplete,false,NA,true,6,21,NA,NA,left,NA,NA,c_1_005.jpg,a_1_027.jpg,within,NA,NaN,NA,left,3579,1,1,3570.9999999995343
sswjvyRK,NA,NA,sswjvyRK,2020-0188,2021-09-26,17:12:11,18:25:49,NA,incomplete,false,NA,true,6,22,NA,NA,right,NA,NA,n_s_008.jpg,m_s_022.jpg,between-small,NA,NaN,NA,right,2366,1,2,1980
sswjvyRK,NA,NA,sswjvyRK,2020-0188,2021-09-26,17:12:11,18:25:49,NA,incomplete,false,NA,true,6,23,NA,NA,left,NA,NA,a_2_013.jpg,a_2_024.jpg,within,NA,NaN,NA,left,4949.999999999534,1,0,1528.0000000004657
sswjvyRK,NA,NA,sswjvyRK,2020-0188,2021-09-26,17:12:11,18:25:49,NA,incomplete,false,NA,true,6,24,NA,NA,left,NA,NA,o_s_008.jpg,o_c_017.jpg,within,NA,NaN,NA,right,1320,0,0,3079
sswjvyRK,NA,NA,sswjvyRK,2020-0188,2021-09-26,17:12:11,18:25:49,NA,incomplete,false,NA,true,6,25,NA,NA,right,NA,NA,i_c_011.jpg,i_s_012.jpg,between-small,NA,NaN,NA,right,4266.999999999534,1,1,1914
sswjvyRK,NA,NA,sswjvyRK,2020-0188,2021-09-26,17:12:11,18:25:49,NA,incomplete,false,NA,true,6,26,NA,NA,left,NA,NA,o_s_027.jpg,i_c_016.jpg,within,NA,NaN,NA,right,888,0,0,3060.9999999995343
sswjvyRK,NA,NA,sswjvyRK,2020-0188,2021-09-26,17:12:11,18:25:49,NA,incomplete,false,true,NA,7,0,building,i_c_004.jpg,left,cottage,skyscraper,NA,NA,NA,left,1616,true,NA,NA,NA,NA,NA
sswjvyRK,NA,NA,sswjvyRK,2020-0188,2021-09-26,17:12:11,18:25:49,NA,incomplete,false,true,NA,7,1,building,i_s_001.jpg,right,cottage,skyscraper,NA,NA,NA,right,895.999999999534,true,NA,NA,NA,NA,NA
sswjvyRK,NA,NA,sswjvyRK,2020-0188,2021-09-26,17:12:11,18:25:49,NA,incomplete,false,true,NA,7,2,building,o_s_021.jpg,left,skyscraper,cottage,NA,NA,NA,left,1297,true,NA,NA,NA,NA,NA
sswjvyRK,NA,NA,sswjvyRK,2020-0188,2021-09-26,17:12:11,18:25:49,NA,incomplete,false,true,NA,7,3,building,i_c_005.jpg,right,skyscraper,cottage,NA,NA,NA,right,1357,true,NA,NA,NA,NA,NA
sswjvyRK,NA,NA,sswjvyRK,2020-0188,2021-09-26,17:12:11,18:25:49,NA,incomplete,false,true,NA,7,4,building,i_s_004.jpg,right,cottage,skyscraper,NA,NA,NA,right,1686.99999999953,true,NA,NA,NA,NA,NA
sswjvyRK,NA,NA,sswjvyRK,2020-0188,2021-09-26,17:12:11,18:25:49,NA,incomplete,false,true,NA,7,5,location,o_s_011.jpg,left,outdoor,indoor,NA,NA,NA,left,989.999999999534,true,NA,NA,NA,NA,NA
sswjvyRK,NA,NA,sswjvyRK,2020-0188,2021-09-26,17:12:11,18:25:49,NA,incomplete,false,true,NA,7,6,location,o_c_028.jpg,right,indoor,outdoor,NA,NA,NA,right,1630,true,NA,NA,NA,NA,NA
sswjvyRK,NA,NA,sswjvyRK,2020-0188,2021-09-26,17:12:11,18:25:49,NA,incomplete,false,true,NA,7,7,location,o_c_019.jpg,left,outdoor,indoor,NA,NA,NA,left,1379,true,NA,NA,NA,NA,NA
sswjvyRK,NA,NA,sswjvyRK,2020-0188,2021-09-26,17:12:11,18:25:49,NA,incomplete,false,true,NA,7,8,location,o_s_005.jpg,right,indoor,outdoor,NA,NA,NA,right,1617,true,NA,NA,NA,NA,NA
sswjvyRK,NA,NA,sswjvyRK,2020-0188,2021-09-26,17:12:11,18:25:49,NA,incomplete,false,true,NA,7,9,location,i_s_023.jpg,left,indoor,outdoor,NA,NA,NA,left,1829,true,NA,NA,NA,NA,NA
sswjvyRK,NA,NA,sswjvyRK,2020-0188,2021-09-26,17:12:11,18:25:49,NA,incomplete,false,true,NA,7,10,size,n_s_022.jpg,left,small,large,NA,NA,NA,left,1731.00000000047,true,NA,NA,NA,NA,NA
sswjvyRK,NA,NA,sswjvyRK,2020-0188,2021-09-26,17:12:11,18:25:49,NA,incomplete,false,true,NA,7,11,size,m_l_019.jpg,right,small,large,NA,NA,NA,right,1498.00000000047,true,NA,NA,NA,NA,NA
sswjvyRK,NA,NA,sswjvyRK,2020-0188,2021-09-26,17:12:11,18:25:49,NA,incomplete,false,true,NA,7,12,size,m_s_013.jpg,left,small,large,NA,NA,NA,left,1048,true,NA,NA,NA,NA,NA
sswjvyRK,NA,NA,sswjvyRK,2020-0188,2021-09-26,17:12:11,18:25:49,NA,incomplete,false,true,NA,7,13,size,n_l_007.jpg,right,small,large,NA,NA,NA,right,2814,true,NA,NA,NA,NA,NA
sswjvyRK,NA,NA,sswjvyRK,2020-0188,2021-09-26,17:12:11,18:25:49,NA,incomplete,false,true,NA,7,14,size,n_l_009.jpg,right,small,large,NA,NA,NA,right,787,true,NA,NA,NA,NA,NA
sswjvyRK,NA,NA,sswjvyRK,2020-0188,2021-09-26,17:12:11,18:25:49,NA,incomplete,false,true,NA,7,15,origin,m_l_005.jpg,left,manmade,natural,NA,NA,NA,left,1792.99999999953,true,NA,NA,NA,NA,NA
sswjvyRK,NA,NA,sswjvyRK,2020-0188,2021-09-26,17:12:11,18:25:49,NA,incomplete,false,true,NA,7,16,origin,m_l_012.jpg,left,manmade,natural,NA,NA,NA,left,869,true,NA,NA,NA,NA,NA
sswjvyRK,NA,NA,sswjvyRK,2020-0188,2021-09-26,17:12:11,18:25:49,NA,incomplete,false,true,NA,7,17,origin,m_l_027.jpg,right,natural,manmade,NA,NA,NA,right,1237,true,NA,NA,NA,NA,NA
sswjvyRK,NA,NA,sswjvyRK,2020-0188,2021-09-26,17:12:11,18:25:49,NA,incomplete,false,true,NA,7,18,origin,n_l_014.jpg,right,manmade,natural,NA,NA,NA,right,1316,true,NA,NA,NA,NA,NA
sswjvyRK,NA,NA,sswjvyRK,2020-0188,2021-09-26,17:12:11,18:25:49,NA,incomplete,false,true,NA,7,19,origin,n_l_018.jpg,left,natural,manmade,NA,NA,NA,left,1645.00000000047,true,NA,NA,NA,NA,NA
sswjvyRK,NA,NA,sswjvyRK,2020-0188,2021-09-26,17:12:11,18:25:49,NA,incomplete,false,true,NA,7,20,syllable,c_2_028.jpg,right,2 syllables,1 syllable,NA,NA,NA,left,1846,false,NA,NA,NA,NA,NA
sswjvyRK,NA,NA,sswjvyRK,2020-0188,2021-09-26,17:12:11,18:25:49,NA,incomplete,false,true,NA,7,21,syllable,c_2_015.jpg,right,1 syllable,2 syllables,NA,NA,NA,right,1396,true,NA,NA,NA,NA,NA
sswjvyRK,NA,NA,sswjvyRK,2020-0188,2021-09-26,17:12:11,18:25:49,NA,incomplete,false,true,NA,7,22,syllable,c_1_010.jpg,right,2 syllables,1 syllable,NA,NA,NA,right,1165.00000000047,true,NA,NA,NA,NA,NA
sswjvyRK,NA,NA,sswjvyRK,2020-0188,2021-09-26,17:12:11,18:25:49,NA,incomplete,false,true,NA,7,23,syllable,a_1_025.jpg,right,1 syllable,2 syllables,NA,NA,NA,left,1181,false,NA,NA,NA,NA,NA
sswjvyRK,NA,NA,sswjvyRK,2020-0188,2021-09-26,17:12:11,18:25:49,NA,incomplete,false,true,NA,7,24,syllable,a_1_001.jpg,right,2 syllables,1 syllable,NA,NA,NA,right,923.000000000466,true,NA,NA,NA,NA,NA
sswjvyRK,NA,NA,sswjvyRK,2020-0188,2021-09-26,17:12:11,18:25:49,NA,incomplete,false,true,NA,7,25,abstractness,c_1_013.jpg,left,concrete,abstract,NA,NA,NA,left,2351.99999999953,true,NA,NA,NA,NA,NA
sswjvyRK,NA,NA,sswjvyRK,2020-0188,2021-09-26,17:12:11,18:25:49,NA,incomplete,false,true,NA,7,26,abstractness,a_1_019.jpg,left,abstract,concrete,NA,NA,NA,left,1866.99999999953,true,NA,NA,NA,NA,NA
sswjvyRK,NA,NA,sswjvyRK,2020-0188,2021-09-26,17:12:11,18:25:49,NA,incomplete,false,true,NA,7,27,abstractness,c_1_003.jpg,right,abstract,concrete,NA,NA,NA,right,1673.00000000047,true,NA,NA,NA,NA,NA
sswjvyRK,NA,NA,sswjvyRK,2020-0188,2021-09-26,17:12:11,18:25:49,NA,incomplete,false,true,NA,7,28,abstractness,c_2_024.jpg,right,abstract,concrete,NA,NA,NA,right,3170,true,NA,NA,NA,NA,NA
sswjvyRK,NA,NA,sswjvyRK,2020-0188,2021-09-26,17:12:11,18:25:49,NA,incomplete,false,true,NA,7,29,abstractness,a_2_005.jpg,left,abstract,concrete,NA,NA,NA,left,1218.00000000047,true,NA,NA,NA,NA,NA
sswjvyRK,NA,NA,sswjvyRK,2020-0188,2021-09-26,17:12:11,18:25:49,NA,incomplete,false,NA,true,7,0,NA,NA,right,NA,NA,o_c_019.jpg,i_s_004.jpg,between-small,NA,NaN,NA,right,2906,1,1,1092
sswjvyRK,NA,NA,sswjvyRK,2020-0188,2021-09-26,17:12:11,18:25:49,NA,incomplete,false,NA,true,7,1,NA,NA,left,NA,NA,c_1_013.jpg,c_2_024.jpg,within,NA,NaN,NA,left,1357,1,1,886.0000000004657
sswjvyRK,NA,NA,sswjvyRK,2020-0188,2021-09-26,17:12:11,18:25:49,NA,incomplete,false,NA,true,7,2,NA,NA,right,NA,NA,i_s_004.jpg,i_s_001.jpg,within,NA,NaN,NA,right,862,1,1,847.9999999995343
sswjvyRK,NA,NA,sswjvyRK,2020-0188,2021-09-26,17:12:11,18:25:49,NA,incomplete,false,NA,true,7,3,NA,NA,left,NA,NA,a_1_025.jpg,a_1_019.jpg,between-small,NA,NaN,NA,left,934.9999999995343,1,0,1038
sswjvyRK,NA,NA,sswjvyRK,2020-0188,2021-09-26,17:12:11,18:25:49,NA,incomplete,false,NA,true,7,4,NA,NA,right,NA,NA,c_1_013.jpg,c_1_010.jpg,between-small,NA,NaN,NA,right,917,1,1,1347
sswjvyRK,NA,NA,sswjvyRK,2020-0188,2021-09-26,17:12:11,18:25:49,NA,incomplete,false,NA,true,7,5,NA,NA,left,NA,NA,o_s_011.jpg,o_s_005.jpg,within,NA,NaN,NA,left,722,1,1,1008.9999999995343
sswjvyRK,NA,NA,sswjvyRK,2020-0188,2021-09-26,17:12:11,18:25:49,NA,incomplete,false,NA,true,7,6,NA,NA,right,NA,NA,i_s_023.jpg,o_c_028.jpg,within,NA,NaN,NA,right,932,1,1,944
sswjvyRK,NA,NA,sswjvyRK,2020-0188,2021-09-26,17:12:11,18:25:49,NA,incomplete,false,NA,true,7,7,NA,NA,left,NA,NA,n_s_022.jpg,n_l_007.jpg,within,NA,NaN,NA,left,3738,1,0,1572
sswjvyRK,NA,NA,sswjvyRK,2020-0188,2021-09-26,17:12:11,18:25:49,NA,incomplete,false,NA,true,7,8,NA,NA,left,NA,NA,n_l_009.jpg,m_l_027.jpg,between-small,NA,NaN,NA,left,1367,1,2,3344.9999999995343
sswjvyRK,NA,NA,sswjvyRK,2020-0188,2021-09-26,17:12:11,18:25:49,NA,incomplete,false,NA,true,7,9,NA,NA,left,NA,NA,m_l_019.jpg,n_l_009.jpg,within,NA,NaN,NA,left,2133,1,0,2162
sswjvyRK,NA,NA,sswjvyRK,2020-0188,2021-09-26,17:12:11,18:25:49,NA,incomplete,false,NA,true,7,10,NA,NA,left,NA,NA,o_c_019.jpg,n_s_022.jpg,between-big,NA,NaN,NA,left,1011,1,2,1189.9999999995343
sswjvyRK,NA,NA,sswjvyRK,2020-0188,2021-09-26,17:12:11,18:25:49,NA,incomplete,false,NA,true,7,11,NA,NA,left,NA,NA,a_1_001.jpg,c_1_003.jpg,between-small,NA,NaN,NA,left,4444.000000000466,1,1,1199.9999999995343
sswjvyRK,NA,NA,sswjvyRK,2020-0188,2021-09-26,17:12:11,18:25:49,NA,incomplete,false,NA,true,7,12,NA,NA,right,NA,NA,a_1_025.jpg,c_2_028.jpg,within,NA,NaN,NA,right,1122.0000000004657,1,2,1373
sswjvyRK,NA,NA,sswjvyRK,2020-0188,2021-09-26,17:12:11,18:25:49,NA,incomplete,false,NA,true,7,13,NA,NA,right,NA,NA,i_c_005.jpg,i_c_004.jpg,within,NA,NaN,NA,right,934,1,1,1429
sswjvyRK,NA,NA,sswjvyRK,2020-0188,2021-09-26,17:12:11,18:25:49,NA,incomplete,false,NA,true,7,14,NA,NA,right,NA,NA,c_2_028.jpg,m_l_027.jpg,between-big,NA,NaN,NA,right,1911,1,2,1613
sswjvyRK,NA,NA,sswjvyRK,2020-0188,2021-09-26,17:12:11,18:25:49,NA,incomplete,false,NA,true,7,15,NA,NA,left,NA,NA,m_l_012.jpg,n_l_018.jpg,within,NA,NaN,NA,left,1315,1,0,1185
sswjvyRK,NA,NA,sswjvyRK,2020-0188,2021-09-26,17:12:11,18:25:49,NA,incomplete,false,NA,true,7,16,NA,NA,right,NA,NA,a_2_005.jpg,a_1_019.jpg,within,NA,NaN,NA,right,1316,1,1,1075
sswjvyRK,NA,NA,sswjvyRK,2020-0188,2021-09-26,17:12:11,18:25:49,NA,incomplete,false,NA,true,7,17,NA,NA,right,NA,NA,c_2_015.jpg,n_l_014.jpg,between-big,NA,NaN,NA,right,923,1,2,1279.9999999995343
sswjvyRK,NA,NA,sswjvyRK,2020-0188,2021-09-26,17:12:11,18:25:49,NA,incomplete,false,NA,true,7,18,NA,NA,right,NA,NA,m_l_012.jpg,n_l_007.jpg,between-small,NA,NaN,NA,right,958,1,2,1693
sswjvyRK,NA,NA,sswjvyRK,2020-0188,2021-09-26,17:12:11,18:25:49,NA,incomplete,false,NA,true,7,19,NA,NA,right,NA,NA,c_1_010.jpg,n_l_018.jpg,between-big,NA,NaN,NA,left,1163,0,1,5609
sswjvyRK,NA,NA,sswjvyRK,2020-0188,2021-09-26,17:12:11,18:25:49,NA,incomplete,false,NA,true,7,20,NA,NA,right,NA,NA,n_l_014.jpg,m_l_005.jpg,within,NA,NaN,NA,right,815,1,1,1948.9999999995343
sswjvyRK,NA,NA,sswjvyRK,2020-0188,2021-09-26,17:12:11,18:25:49,NA,incomplete,false,NA,true,7,21,NA,NA,left,NA,NA,o_s_021.jpg,o_s_011.jpg,between-small,NA,NaN,NA,right,834,0,2,1106
sswjvyRK,NA,NA,sswjvyRK,2020-0188,2021-09-26,17:12:11,18:25:49,NA,incomplete,false,NA,true,7,22,NA,NA,left,NA,NA,m_s_013.jpg,m_l_005.jpg,between-small,NA,NaN,NA,left,879,1,1,928
sswjvyRK,NA,NA,sswjvyRK,2020-0188,2021-09-26,17:12:11,18:25:49,NA,incomplete,false,NA,true,7,23,NA,NA,right,NA,NA,m_l_019.jpg,o_s_005.jpg,between-big,NA,NaN,NA,right,665,1,0,2458.9999999995343
sswjvyRK,NA,NA,sswjvyRK,2020-0188,2021-09-26,17:12:11,18:25:49,NA,incomplete,false,NA,true,7,24,NA,NA,right,NA,NA,o_c_028.jpg,i_c_005.jpg,between-small,NA,NaN,NA,right,1116,1,2,1609
sswjvyRK,NA,NA,sswjvyRK,2020-0188,2021-09-26,17:12:11,18:25:49,NA,incomplete,false,NA,true,7,25,NA,NA,left,NA,NA,c_2_015.jpg,a_1_001.jpg,within,NA,NaN,NA,right,895,0,1,854
sswjvyRK,NA,NA,sswjvyRK,2020-0188,2021-09-26,17:12:11,18:25:49,NA,incomplete,false,NA,true,7,26,NA,NA,left,NA,NA,i_s_023.jpg,m_s_013.jpg,between-big,NA,NaN,NA,left,2185,1,1,1744
sswjvyRK,NA,NA,sswjvyRK,2020-0188,2021-09-26,17:12:11,18:25:49,NA,incomplete,false,true,NA,8,0,size,m_l_020.jpg,left,large,small,NA,NA,NA,left,2099,true,NA,NA,NA,NA,NA
sswjvyRK,NA,NA,sswjvyRK,2020-0188,2021-09-26,17:12:11,18:25:49,NA,incomplete,false,true,NA,8,1,size,n_s_026.jpg,left,small,large,NA,NA,NA,left,988,true,NA,NA,NA,NA,NA
sswjvyRK,NA,NA,sswjvyRK,2020-0188,2021-09-26,17:12:11,18:25:49,NA,incomplete,false,true,NA,8,2,size,n_s_018.jpg,left,small,large,NA,NA,NA,left,967,true,NA,NA,NA,NA,NA
sswjvyRK,NA,NA,sswjvyRK,2020-0188,2021-09-26,17:12:11,18:25:49,NA,incomplete,false,true,NA,8,3,size,n_s_009.jpg,left,small,large,NA,NA,NA,left,890,true,NA,NA,NA,NA,NA
sswjvyRK,NA,NA,sswjvyRK,2020-0188,2021-09-26,17:12:11,18:25:49,NA,incomplete,false,true,NA,8,4,size,m_s_025.jpg,left,small,large,NA,NA,NA,left,1188,true,NA,NA,NA,NA,NA
sswjvyRK,NA,NA,sswjvyRK,2020-0188,2021-09-26,17:12:11,18:25:49,NA,incomplete,false,true,NA,8,5,origin,m_l_021.jpg,right,natural,manmade,NA,NA,NA,right,1624,true,NA,NA,NA,NA,NA
sswjvyRK,NA,NA,sswjvyRK,2020-0188,2021-09-26,17:12:11,18:25:49,NA,incomplete,false,true,NA,8,6,origin,m_l_007.jpg,left,manmade,natural,NA,NA,NA,left,2351,true,NA,NA,NA,NA,NA
sswjvyRK,NA,NA,sswjvyRK,2020-0188,2021-09-26,17:12:11,18:25:49,NA,incomplete,false,true,NA,8,7,origin,n_s_007.jpg,left,natural,manmade,NA,NA,NA,left,2681.99999999953,true,NA,NA,NA,NA,NA
sswjvyRK,NA,NA,sswjvyRK,2020-0188,2021-09-26,17:12:11,18:25:49,NA,incomplete,false,true,NA,8,8,origin,m_s_014.jpg,left,manmade,natural,NA,NA,NA,left,1599,true,NA,NA,NA,NA,NA
sswjvyRK,NA,NA,sswjvyRK,2020-0188,2021-09-26,17:12:11,18:25:49,NA,incomplete,false,true,NA,8,9,origin,n_l_026.jpg,right,manmade,natural,NA,NA,NA,left,2274.00000000047,false,NA,NA,NA,NA,NA
sswjvyRK,NA,NA,sswjvyRK,2020-0188,2021-09-26,17:12:11,18:25:49,NA,incomplete,false,true,NA,8,10,building,i_s_003.jpg,right,cottage,skyscraper,NA,NA,NA,right,2125,true,NA,NA,NA,NA,NA
sswjvyRK,NA,NA,sswjvyRK,2020-0188,2021-09-26,17:12:11,18:25:49,NA,incomplete,false,true,NA,8,11,building,i_c_003.jpg,left,cottage,skyscraper,NA,NA,NA,left,827,true,NA,NA,NA,NA,NA
sswjvyRK,NA,NA,sswjvyRK,2020-0188,2021-09-26,17:12:11,18:25:49,NA,incomplete,false,true,NA,8,12,building,o_s_028.jpg,right,cottage,skyscraper,NA,NA,NA,right,1266,true,NA,NA,NA,NA,NA
sswjvyRK,NA,NA,sswjvyRK,2020-0188,2021-09-26,17:12:11,18:25:49,NA,incomplete,false,true,NA,8,13,building,i_c_023.jpg,right,skyscraper,cottage,NA,NA,NA,right,2570,true,NA,NA,NA,NA,NA
sswjvyRK,NA,NA,sswjvyRK,2020-0188,2021-09-26,17:12:11,18:25:49,NA,incomplete,false,true,NA,8,14,building,o_c_018.jpg,right,skyscraper,cottage,NA,NA,NA,right,1250,true,NA,NA,NA,NA,NA
sswjvyRK,NA,NA,sswjvyRK,2020-0188,2021-09-26,17:12:11,18:25:49,NA,incomplete,false,true,NA,8,15,location,o_s_014.jpg,left,outdoor,indoor,NA,NA,NA,left,1770,true,NA,NA,NA,NA,NA
sswjvyRK,NA,NA,sswjvyRK,2020-0188,2021-09-26,17:12:11,18:25:49,NA,incomplete,false,true,NA,8,16,location,i_s_025.jpg,right,outdoor,indoor,NA,NA,NA,right,2073,true,NA,NA,NA,NA,NA
sswjvyRK,NA,NA,sswjvyRK,2020-0188,2021-09-26,17:12:11,18:25:49,NA,incomplete,false,true,NA,8,17,location,o_c_023.jpg,left,outdoor,indoor,NA,NA,NA,left,2028,true,NA,NA,NA,NA,NA
sswjvyRK,NA,NA,sswjvyRK,2020-0188,2021-09-26,17:12:11,18:25:49,NA,incomplete,false,true,NA,8,18,location,i_c_021.jpg,right,outdoor,indoor,NA,NA,NA,right,1582,true,NA,NA,NA,NA,NA
sswjvyRK,NA,NA,sswjvyRK,2020-0188,2021-09-26,17:12:11,18:25:49,NA,incomplete,false,true,NA,8,19,location,o_s_001.jpg,right,indoor,outdoor,NA,NA,NA,right,2072,true,NA,NA,NA,NA,NA
sswjvyRK,NA,NA,sswjvyRK,2020-0188,2021-09-26,17:12:11,18:25:49,NA,incomplete,false,true,NA,8,20,syllable,a_2_010.jpg,right,1 syllable,2 syllables,NA,NA,NA,right,1841.99999999953,true,NA,NA,NA,NA,NA
sswjvyRK,NA,NA,sswjvyRK,2020-0188,2021-09-26,17:12:11,18:25:49,NA,incomplete,false,true,NA,8,21,syllable,c_1_011.jpg,right,2 syllables,1 syllable,NA,NA,NA,right,1024.00000000047,true,NA,NA,NA,NA,NA
sswjvyRK,NA,NA,sswjvyRK,2020-0188,2021-09-26,17:12:11,18:25:49,NA,incomplete,false,true,NA,8,22,syllable,c_1_028.jpg,right,1 syllable,2 syllables,NA,NA,NA,left,1554.00000000047,false,NA,NA,NA,NA,NA
sswjvyRK,NA,NA,sswjvyRK,2020-0188,2021-09-26,17:12:11,18:25:49,NA,incomplete,false,true,NA,8,23,syllable,c_2_005.jpg,right,2 syllables,1 syllable,NA,NA,NA,left,1402,false,NA,NA,NA,NA,NA
sswjvyRK,NA,NA,sswjvyRK,2020-0188,2021-09-26,17:12:11,18:25:49,NA,incomplete,false,true,NA,8,24,syllable,c_2_006.jpg,right,2 syllables,1 syllable,NA,NA,NA,left,835,false,NA,NA,NA,NA,NA
sswjvyRK,NA,NA,sswjvyRK,2020-0188,2021-09-26,17:12:11,18:25:49,NA,incomplete,false,true,NA,8,25,abstractness,c_1_027.jpg,right,abstract,concrete,NA,NA,NA,right,2803,true,NA,NA,NA,NA,NA
sswjvyRK,NA,NA,sswjvyRK,2020-0188,2021-09-26,17:12:11,18:25:49,NA,incomplete,false,true,NA,8,26,abstractness,c_2_003.jpg,left,concrete,abstract,NA,NA,NA,left,1477,true,NA,NA,NA,NA,NA
sswjvyRK,NA,NA,sswjvyRK,2020-0188,2021-09-26,17:12:11,18:25:49,NA,incomplete,false,true,NA,8,27,abstractness,a_2_023.jpg,right,concrete,abstract,NA,NA,NA,right,1140,true,NA,NA,NA,NA,NA
sswjvyRK,NA,NA,sswjvyRK,2020-0188,2021-09-26,17:12:11,18:25:49,NA,incomplete,false,true,NA,8,28,abstractness,a_2_009.jpg,right,concrete,abstract,NA,NA,NA,right,2231.00000000047,true,NA,NA,NA,NA,NA
sswjvyRK,NA,NA,sswjvyRK,2020-0188,2021-09-26,17:12:11,18:25:49,NA,incomplete,false,true,NA,8,29,abstractness,a_1_010.jpg,left,abstract,concrete,NA,NA,NA,left,1842,true,NA,NA,NA,NA,NA
sswjvyRK,NA,NA,sswjvyRK,2020-0188,2021-09-26,17:12:11,18:25:49,NA,incomplete,false,NA,true,8,0,NA,NA,right,NA,NA,a_2_010.jpg,o_c_023.jpg,between-big,NA,NaN,NA,right,1458.0000000004657,1,1,2040
sswjvyRK,NA,NA,sswjvyRK,2020-0188,2021-09-26,17:12:11,18:25:49,NA,incomplete,false,NA,true,8,1,NA,NA,left,NA,NA,i_s_025.jpg,o_s_001.jpg,within,NA,NaN,NA,right,6485,0,1,3761
sswjvyRK,NA,NA,sswjvyRK,2020-0188,2021-09-26,17:12:11,18:25:49,NA,incomplete,false,NA,true,8,2,NA,NA,left,NA,NA,m_s_025.jpg,n_s_007.jpg,between-small,NA,NaN,NA,right,1371,0,0,2374.0000000004657
sswjvyRK,NA,NA,sswjvyRK,2020-0188,2021-09-26,17:12:11,18:25:49,NA,incomplete,false,NA,true,8,3,NA,NA,right,NA,NA,o_s_014.jpg,o_s_028.jpg,between-small,NA,NaN,NA,right,1072,1,0,2710
sswjvyRK,NA,NA,sswjvyRK,2020-0188,2021-09-26,17:12:11,18:25:49,NA,incomplete,false,NA,true,8,4,NA,NA,right,NA,NA,i_s_003.jpg,n_s_007.jpg,between-big,NA,NaN,NA,right,784,1,1,1661
sswjvyRK,NA,NA,sswjvyRK,2020-0188,2021-09-26,17:12:11,18:25:49,NA,incomplete,false,NA,true,8,5,NA,NA,right,NA,NA,c_1_027.jpg,c_1_028.jpg,between-small,NA,NaN,NA,left,698,0,1,946
sswjvyRK,NA,NA,sswjvyRK,2020-0188,2021-09-26,17:12:11,18:25:49,NA,incomplete,false,NA,true,8,6,NA,NA,left,NA,NA,n_s_018.jpg,m_l_021.jpg,between-small,NA,NaN,NA,right,754.9999999995343,0,2,1615
sswjvyRK,NA,NA,sswjvyRK,2020-0188,2021-09-26,17:12:11,18:25:49,NA,incomplete,false,NA,true,8,7,NA,NA,right,NA,NA,o_s_028.jpg,n_l_026.jpg,between-big,NA,NaN,NA,left,665,0,2,1737
sswjvyRK,NA,NA,sswjvyRK,2020-0188,2021-09-26,17:12:11,18:25:49,NA,incomplete,false,NA,true,8,8,NA,NA,left,NA,NA,i_s_003.jpg,i_c_023.jpg,within,NA,NaN,NA,right,673,0,1,1256.0000000004657
sswjvyRK,NA,NA,sswjvyRK,2020-0188,2021-09-26,17:12:11,18:25:49,NA,incomplete,false,NA,true,8,9,NA,NA,right,NA,NA,o_c_023.jpg,o_c_018.jpg,between-small,NA,NaN,NA,left,739,0,0,4546
sswjvyRK,NA,NA,sswjvyRK,2020-0188,2021-09-26,17:12:11,18:25:49,NA,incomplete,false,NA,true,8,10,NA,NA,left,NA,NA,c_1_011.jpg,c_2_006.jpg,within,NA,NaN,NA,right,712,0,1,994.0000000004657
sswjvyRK,NA,NA,sswjvyRK,2020-0188,2021-09-26,17:12:11,18:25:49,NA,incomplete,false,NA,true,8,11,NA,NA,left,NA,NA,c_1_027.jpg,a_2_009.jpg,within,NA,NaN,NA,left,644,1,1,1769
sswjvyRK,NA,NA,sswjvyRK,2020-0188,2021-09-26,17:12:11,18:25:49,NA,incomplete,false,NA,true,8,12,NA,NA,right,NA,NA,m_s_025.jpg,n_s_026.jpg,within,NA,NaN,NA,right,638.9999999995343,1,1,1190
sswjvyRK,NA,NA,sswjvyRK,2020-0188,2021-09-26,17:12:11,18:25:49,NA,incomplete,false,NA,true,8,13,NA,NA,left,NA,NA,c_2_005.jpg,c_2_003.jpg,between-small,NA,NaN,NA,left,722,1,1,1647
sswjvyRK,NA,NA,sswjvyRK,2020-0188,2021-09-26,17:12:11,18:25:49,NA,incomplete,false,NA,true,8,14,NA,NA,left,NA,NA,o_s_001.jpg,c_1_028.jpg,between-big,NA,NaN,NA,right,646.9999999995343,0,1,1125
sswjvyRK,NA,NA,sswjvyRK,2020-0188,2021-09-26,17:12:11,18:25:49,NA,incomplete,false,NA,true,8,15,NA,NA,left,NA,NA,m_l_020.jpg,n_s_009.jpg,within,NA,NaN,NA,right,1836.0000000004657,0,0,1544
sswjvyRK,NA,NA,sswjvyRK,2020-0188,2021-09-26,17:12:11,18:25:49,NA,incomplete,false,NA,true,8,16,NA,NA,right,NA,NA,a_2_023.jpg,c_2_006.jpg,between-small,NA,NaN,NA,left,918,0,1,1820.9999999995343
sswjvyRK,NA,NA,sswjvyRK,2020-0188,2021-09-26,17:12:11,18:25:49,NA,incomplete,false,NA,true,8,17,NA,NA,right,NA,NA,m_s_014.jpg,m_l_021.jpg,within,NA,NaN,NA,right,725,1,0,1217
sswjvyRK,NA,NA,sswjvyRK,2020-0188,2021-09-26,17:12:11,18:25:49,NA,incomplete,false,NA,true,8,18,NA,NA,right,NA,NA,c_1_011.jpg,i_c_021.jpg,between-big,NA,NaN,NA,right,896,1,1,1399
sswjvyRK,NA,NA,sswjvyRK,2020-0188,2021-09-26,17:12:11,18:25:49,NA,incomplete,false,NA,true,8,19,NA,NA,right,NA,NA,n_l_026.jpg,m_l_007.jpg,within,NA,NaN,NA,left,1084,0,0,2551
sswjvyRK,NA,NA,sswjvyRK,2020-0188,2021-09-26,17:12:11,18:25:49,NA,incomplete,false,NA,true,8,20,NA,NA,right,NA,NA,c_2_005.jpg,a_2_010.jpg,within,NA,NaN,NA,left,1229,0,1,1073
sswjvyRK,NA,NA,sswjvyRK,2020-0188,2021-09-26,17:12:11,18:25:49,NA,incomplete,false,NA,true,8,21,NA,NA,left,NA,NA,i_c_003.jpg,o_c_018.jpg,within,NA,NaN,NA,left,1180,1,1,1642
sswjvyRK,NA,NA,sswjvyRK,2020-0188,2021-09-26,17:12:11,18:25:49,NA,incomplete,false,NA,true,8,22,NA,NA,left,NA,NA,n_s_009.jpg,m_l_007.jpg,between-small,NA,NaN,NA,left,948,1,0,1228.9999999995343
sswjvyRK,NA,NA,sswjvyRK,2020-0188,2021-09-26,17:12:11,18:25:49,NA,incomplete,false,NA,true,8,23,NA,NA,right,NA,NA,i_c_003.jpg,m_s_014.jpg,between-big,NA,NaN,NA,left,1135.9999999995343,0,2,1829
sswjvyRK,NA,NA,sswjvyRK,2020-0188,2021-09-26,17:12:11,18:25:49,NA,incomplete,false,NA,true,8,24,NA,NA,right,NA,NA,a_1_010.jpg,c_2_003.jpg,within,NA,NaN,NA,right,972,1,3,994
sswjvyRK,NA,NA,sswjvyRK,2020-0188,2021-09-26,17:12:11,18:25:49,NA,incomplete,false,NA,true,8,25,NA,NA,left,NA,NA,i_c_023.jpg,i_s_025.jpg,between-small,NA,NaN,NA,left,879.9999999995343,1,1,9273
sswjvyRK,NA,NA,sswjvyRK,2020-0188,2021-09-26,17:12:11,18:25:49,NA,incomplete,false,NA,true,8,26,NA,NA,left,NA,NA,o_s_014.jpg,i_c_021.jpg,within,NA,NaN,NA,right,688.9999999995343,0,1,1001.0000000004657
sswjvyRK,NA,NA,sswjvyRK,2020-0188,2021-09-26,17:12:11,18:25:49,NA,incomplete,false,true,NA,9,0,size,m_l_003.jpg,right,small,large,NA,NA,NA,right,1389,true,NA,NA,NA,NA,NA
sswjvyRK,NA,NA,sswjvyRK,2020-0188,2021-09-26,17:12:11,18:25:49,NA,incomplete,false,true,NA,9,1,size,n_s_028.jpg,left,small,large,NA,NA,NA,left,988,true,NA,NA,NA,NA,NA
sswjvyRK,NA,NA,sswjvyRK,2020-0188,2021-09-26,17:12:11,18:25:49,NA,incomplete,false,true,NA,9,2,size,n_l_010.jpg,left,large,small,NA,NA,NA,left,1250,true,NA,NA,NA,NA,NA
sswjvyRK,NA,NA,sswjvyRK,2020-0188,2021-09-26,17:12:11,18:25:49,NA,incomplete,false,true,NA,9,3,size,m_l_023.jpg,left,large,small,NA,NA,NA,left,1960.99999999953,true,NA,NA,NA,NA,NA
sswjvyRK,NA,NA,sswjvyRK,2020-0188,2021-09-26,17:12:11,18:25:49,NA,incomplete,false,true,NA,9,4,size,n_l_011.jpg,left,large,small,NA,NA,NA,left,865,true,NA,NA,NA,NA,NA
sswjvyRK,NA,NA,sswjvyRK,2020-0188,2021-09-26,17:12:11,18:25:49,NA,incomplete,false,true,NA,9,5,origin,n_l_019.jpg,right,manmade,natural,NA,NA,NA,right,2540,true,NA,NA,NA,NA,NA
sswjvyRK,NA,NA,sswjvyRK,2020-0188,2021-09-26,17:12:11,18:25:49,NA,incomplete,false,true,NA,9,6,origin,n_s_002.jpg,right,manmade,natural,NA,NA,NA,right,1684,true,NA,NA,NA,NA,NA
sswjvyRK,NA,NA,sswjvyRK,2020-0188,2021-09-26,17:12:11,18:25:49,NA,incomplete,false,true,NA,9,7,origin,n_l_021.jpg,right,manmade,natural,NA,NA,NA,right,1412,true,NA,NA,NA,NA,NA
sswjvyRK,NA,NA,sswjvyRK,2020-0188,2021-09-26,17:12:11,18:25:49,NA,incomplete,false,true,NA,9,8,origin,m_s_016.jpg,right,natural,manmade,NA,NA,NA,right,2678,true,NA,NA,NA,NA,NA
sswjvyRK,NA,NA,sswjvyRK,2020-0188,2021-09-26,17:12:11,18:25:49,NA,incomplete,false,true,NA,9,9,origin,n_l_005.jpg,left,natural,manmade,NA,NA,NA,left,1028,true,NA,NA,NA,NA,NA
sswjvyRK,NA,NA,sswjvyRK,2020-0188,2021-09-26,17:12:11,18:25:49,NA,incomplete,false,true,NA,9,10,syllable,a_2_011.jpg,right,2 syllables,1 syllable,NA,NA,NA,left,1340.00000000047,false,NA,NA,NA,NA,NA
sswjvyRK,NA,NA,sswjvyRK,2020-0188,2021-09-26,17:12:11,18:25:49,NA,incomplete,false,true,NA,9,11,syllable,c_2_018.jpg,right,1 syllable,2 syllables,NA,NA,NA,right,1230,true,NA,NA,NA,NA,NA
sswjvyRK,NA,NA,sswjvyRK,2020-0188,2021-09-26,17:12:11,18:25:49,NA,incomplete,false,true,NA,9,12,syllable,a_1_018.jpg,right,2 syllables,1 syllable,NA,NA,NA,right,1348,true,NA,NA,NA,NA,NA
sswjvyRK,NA,NA,sswjvyRK,2020-0188,2021-09-26,17:12:11,18:25:49,NA,incomplete,false,true,NA,9,13,syllable,c_1_009.jpg,right,1 syllable,2 syllables,NA,NA,NA,left,830,false,NA,NA,NA,NA,NA
sswjvyRK,NA,NA,sswjvyRK,2020-0188,2021-09-26,17:12:11,18:25:49,NA,incomplete,false,true,NA,9,14,syllable,c_2_004.jpg,right,2 syllables,1 syllable,NA,NA,NA,left,1164,false,NA,NA,NA,NA,NA
sswjvyRK,NA,NA,sswjvyRK,2020-0188,2021-09-26,17:12:11,18:25:49,NA,incomplete,false,true,NA,9,15,abstractness,a_1_016.jpg,right,concrete,abstract,NA,NA,NA,right,2682,true,NA,NA,NA,NA,NA
sswjvyRK,NA,NA,sswjvyRK,2020-0188,2021-09-26,17:12:11,18:25:49,NA,incomplete,false,true,NA,9,16,abstractness,c_2_019.jpg,right,abstract,concrete,NA,NA,NA,right,2134,true,NA,NA,NA,NA,NA
sswjvyRK,NA,NA,sswjvyRK,2020-0188,2021-09-26,17:12:11,18:25:49,NA,incomplete,false,true,NA,9,17,abstractness,a_1_007.jpg,right,concrete,abstract,NA,NA,NA,right,2256,true,NA,NA,NA,NA,NA
sswjvyRK,NA,NA,sswjvyRK,2020-0188,2021-09-26,17:12:11,18:25:49,NA,incomplete,false,true,NA,9,18,abstractness,c_1_001.jpg,left,concrete,abstract,NA,NA,NA,left,1332,true,NA,NA,NA,NA,NA
sswjvyRK,NA,NA,sswjvyRK,2020-0188,2021-09-26,17:12:11,18:25:49,NA,incomplete,false,true,NA,9,19,abstractness,a_2_017.jpg,left,abstract,concrete,NA,NA,NA,right,3212,false,NA,NA,NA,NA,NA
sswjvyRK,NA,NA,sswjvyRK,2020-0188,2021-09-26,17:12:11,18:25:49,NA,incomplete,false,true,NA,9,20,location,o_c_012.jpg,right,indoor,outdoor,NA,NA,NA,right,1739,true,NA,NA,NA,NA,NA
sswjvyRK,NA,NA,sswjvyRK,2020-0188,2021-09-26,17:12:11,18:25:49,NA,incomplete,false,true,NA,9,21,location,i_s_009.jpg,left,indoor,outdoor,NA,NA,NA,left,1705.00000000047,true,NA,NA,NA,NA,NA
sswjvyRK,NA,NA,sswjvyRK,2020-0188,2021-09-26,17:12:11,18:25:49,NA,incomplete,false,true,NA,9,22,location,i_s_014.jpg,right,outdoor,indoor,NA,NA,NA,right,1125.99999999953,true,NA,NA,NA,NA,NA
sswjvyRK,NA,NA,sswjvyRK,2020-0188,2021-09-26,17:12:11,18:25:49,NA,incomplete,false,true,NA,9,23,location,o_s_015.jpg,left,outdoor,indoor,NA,NA,NA,left,2348,true,NA,NA,NA,NA,NA
sswjvyRK,NA,NA,sswjvyRK,2020-0188,2021-09-26,17:12:11,18:25:49,NA,incomplete,false,true,NA,9,24,location,i_s_024.jpg,right,outdoor,indoor,NA,NA,NA,right,2497.00000000047,true,NA,NA,NA,NA,NA
sswjvyRK,NA,NA,sswjvyRK,2020-0188,2021-09-26,17:12:11,18:25:49,NA,incomplete,false,true,NA,9,25,building,i_s_007.jpg,left,skyscraper,cottage,NA,NA,NA,left,1625,true,NA,NA,NA,NA,NA
sswjvyRK,NA,NA,sswjvyRK,2020-0188,2021-09-26,17:12:11,18:25:49,NA,incomplete,false,true,NA,9,26,building,o_c_025.jpg,left,cottage,skyscraper,NA,NA,NA,left,1675,true,NA,NA,NA,NA,NA
sswjvyRK,NA,NA,sswjvyRK,2020-0188,2021-09-26,17:12:11,18:25:49,NA,incomplete,false,true,NA,9,27,building,i_s_027.jpg,right,cottage,skyscraper,NA,NA,NA,right,2764.99999999953,true,NA,NA,NA,NA,NA
sswjvyRK,NA,NA,sswjvyRK,2020-0188,2021-09-26,17:12:11,18:25:49,NA,incomplete,false,true,NA,9,28,building,o_c_026.jpg,right,skyscraper,cottage,NA,NA,NA,right,1631,true,NA,NA,NA,NA,NA
sswjvyRK,NA,NA,sswjvyRK,2020-0188,2021-09-26,17:12:11,18:25:49,NA,incomplete,false,true,NA,9,29,building,i_c_002.jpg,right,skyscraper,cottage,NA,NA,NA,right,917.000000000466,true,NA,NA,NA,NA,NA
sswjvyRK,NA,NA,sswjvyRK,2020-0188,2021-09-26,17:12:11,18:25:49,NA,incomplete,false,NA,true,9,0,NA,NA,left,NA,NA,n_s_028.jpg,n_l_011.jpg,within,NA,NaN,NA,left,2966,1,0,1182
sswjvyRK,NA,NA,sswjvyRK,2020-0188,2021-09-26,17:12:11,18:25:49,NA,incomplete,false,NA,true,9,1,NA,NA,left,NA,NA,n_l_005.jpg,a_1_018.jpg,between-big,NA,NaN,NA,left,1294,1,2,1175
sswjvyRK,NA,NA,sswjvyRK,2020-0188,2021-09-26,17:12:11,18:25:49,NA,incomplete,false,NA,true,9,2,NA,NA,left,NA,NA,c_1_009.jpg,c_2_019.jpg,between-small,NA,NaN,NA,left,1955,1,1,1281
sswjvyRK,NA,NA,sswjvyRK,2020-0188,2021-09-26,17:12:11,18:25:49,NA,incomplete,false,NA,true,9,3,NA,NA,right,NA,NA,i_s_009.jpg,c_1_001.jpg,between-big,NA,NaN,NA,right,1905.9999999995343,1,2,1153
sswjvyRK,NA,NA,sswjvyRK,2020-0188,2021-09-26,17:12:11,18:25:49,NA,incomplete,false,NA,true,9,4,NA,NA,right,NA,NA,c_1_001.jpg,a_1_016.jpg,within,NA,NaN,NA,right,2073.9999999995343,1,1,3861
