workerId,hitId,assignmentId,subject,studyid,exp_date,exp_start,exp_end,time_start,time_end,practice,encoding,memory,block,trial,event,stim,answer,label_left,label_right,left_image,right_image,condition,response,response_time,response_acc,order_response,order_response_time,order_acc,distance_response,distance_response_time
sYyD0vbc,NA,NA,sYyD0vbc,2020-0188,2021-10-04,19:09:01,20:20:25,NA,incomplete,true,true,NA,0,0,size,n_l_025.jpg,right,small,large,NA,NA,NA,right,1250.29999998212,true,NA,NA,NA,NA,NA
sYyD0vbc,NA,NA,sYyD0vbc,2020-0188,2021-10-04,19:09:01,20:20:25,NA,incomplete,true,true,NA,0,1,size,m_s_001.jpg,right,large,small,NA,NA,NA,right,1372.60000002384,true,NA,NA,NA,NA,NA
sYyD0vbc,NA,NA,sYyD0vbc,2020-0188,2021-10-04,19:09:01,20:20:25,NA,incomplete,true,true,NA,0,2,size,m_s_028.jpg,left,small,large,NA,NA,NA,left,2043,true,NA,NA,NA,NA,NA
sYyD0vbc,NA,NA,sYyD0vbc,2020-0188,2021-10-04,19:09:01,20:20:25,NA,incomplete,true,true,NA,0,3,size,n_l_010.jpg,right,small,large,NA,NA,NA,right,1244,true,NA,NA,NA,NA,NA
sYyD0vbc,NA,NA,sYyD0vbc,2020-0188,2021-10-04,19:09:01,20:20:25,NA,incomplete,true,true,NA,0,4,size,n_s_025.jpg,left,small,large,NA,NA,NA,left,873.200000017881,true,NA,NA,NA,NA,NA
sYyD0vbc,NA,NA,sYyD0vbc,2020-0188,2021-10-04,19:09:01,20:20:25,NA,incomplete,true,true,NA,0,5,origin,n_l_014.jpg,left,natural,manmade,NA,NA,NA,left,1421.19999998808,true,NA,NA,NA,NA,NA
sYyD0vbc,NA,NA,sYyD0vbc,2020-0188,2021-10-04,19:09:01,20:20:25,NA,incomplete,true,true,NA,0,6,origin,m_s_013.jpg,left,manmade,natural,NA,NA,NA,none,0,false,NA,NA,NA,NA,NA
sYyD0vbc,NA,NA,sYyD0vbc,2020-0188,2021-10-04,19:09:01,20:20:25,NA,incomplete,true,true,NA,0,7,origin,m_s_011.jpg,right,natural,manmade,NA,NA,NA,right,1629.30000001192,true,NA,NA,NA,NA,NA
sYyD0vbc,NA,NA,sYyD0vbc,2020-0188,2021-10-04,19:09:01,20:20:25,NA,incomplete,true,true,NA,0,8,origin,m_s_017.jpg,left,manmade,natural,NA,NA,NA,right,1932.29999998212,false,NA,NA,NA,NA,NA
sYyD0vbc,NA,NA,sYyD0vbc,2020-0188,2021-10-04,19:09:01,20:20:25,NA,incomplete,true,true,NA,0,9,origin,n_s_027.jpg,left,natural,manmade,NA,NA,NA,left,1206.90000000596,true,NA,NA,NA,NA,NA
sYyD0vbc,NA,NA,sYyD0vbc,2020-0188,2021-10-04,19:09:01,20:20:25,NA,incomplete,true,true,NA,0,10,building,o_c_006.jpg,left,cottage,skyscraper,NA,NA,NA,left,3289.5,true,NA,NA,NA,NA,NA
sYyD0vbc,NA,NA,sYyD0vbc,2020-0188,2021-10-04,19:09:01,20:20:25,NA,incomplete,true,true,NA,0,11,building,i_s_002.jpg,right,cottage,skyscraper,NA,NA,NA,right,1517.80000001192,true,NA,NA,NA,NA,NA
sYyD0vbc,NA,NA,sYyD0vbc,2020-0188,2021-10-04,19:09:01,20:20:25,NA,incomplete,true,true,NA,0,12,building,o_s_012.jpg,right,cottage,skyscraper,NA,NA,NA,right,1227.90000000596,true,NA,NA,NA,NA,NA
sYyD0vbc,NA,NA,sYyD0vbc,2020-0188,2021-10-04,19:09:01,20:20:25,NA,incomplete,true,true,NA,0,13,building,o_c_028.jpg,left,cottage,skyscraper,NA,NA,NA,left,871.5,true,NA,NA,NA,NA,NA
sYyD0vbc,NA,NA,sYyD0vbc,2020-0188,2021-10-04,19:09:01,20:20:25,NA,incomplete,true,true,NA,0,14,building,i_c_003.jpg,left,cottage,skyscraper,NA,NA,NA,left,834.5,true,NA,NA,NA,NA,NA
sYyD0vbc,NA,NA,sYyD0vbc,2020-0188,2021-10-04,19:09:01,20:20:25,NA,incomplete,true,true,NA,0,15,location,o_c_014.jpg,left,outdoor,indoor,NA,NA,NA,left,1873.59999999404,true,NA,NA,NA,NA,NA
sYyD0vbc,NA,NA,sYyD0vbc,2020-0188,2021-10-04,19:09:01,20:20:25,NA,incomplete,true,true,NA,0,16,location,o_c_023.jpg,left,outdoor,indoor,NA,NA,NA,left,1312.79999998212,true,NA,NA,NA,NA,NA
sYyD0vbc,NA,NA,sYyD0vbc,2020-0188,2021-10-04,19:09:01,20:20:25,NA,incomplete,true,true,NA,0,17,location,o_s_025.jpg,right,indoor,outdoor,NA,NA,NA,right,1320.5,true,NA,NA,NA,NA,NA
sYyD0vbc,NA,NA,sYyD0vbc,2020-0188,2021-10-04,19:09:01,20:20:25,NA,incomplete,true,true,NA,0,18,location,o_c_024.jpg,right,indoor,outdoor,NA,NA,NA,right,1829.5,true,NA,NA,NA,NA,NA
sYyD0vbc,NA,NA,sYyD0vbc,2020-0188,2021-10-04,19:09:01,20:20:25,NA,incomplete,true,true,NA,0,19,location,o_s_010.jpg,left,outdoor,indoor,NA,NA,NA,left,1320.19999998808,true,NA,NA,NA,NA,NA
sYyD0vbc,NA,NA,sYyD0vbc,2020-0188,2021-10-04,19:09:01,20:20:25,NA,incomplete,true,true,NA,0,20,abstractness,a_1_017.jpg,left,abstract,concrete,NA,NA,NA,left,1230.09999999404,true,NA,NA,NA,NA,NA
sYyD0vbc,NA,NA,sYyD0vbc,2020-0188,2021-10-04,19:09:01,20:20:25,NA,incomplete,true,true,NA,0,21,abstractness,a_1_020.jpg,left,abstract,concrete,NA,NA,NA,left,906.40000000596,true,NA,NA,NA,NA,NA
sYyD0vbc,NA,NA,sYyD0vbc,2020-0188,2021-10-04,19:09:01,20:20:25,NA,incomplete,true,true,NA,0,22,abstractness,a_1_018.jpg,right,concrete,abstract,NA,NA,NA,right,1434.90000000596,true,NA,NA,NA,NA,NA
sYyD0vbc,NA,NA,sYyD0vbc,2020-0188,2021-10-04,19:09:01,20:20:25,NA,incomplete,true,true,NA,0,23,abstractness,c_1_008.jpg,left,concrete,abstract,NA,NA,NA,left,1263.80000001192,true,NA,NA,NA,NA,NA
sYyD0vbc,NA,NA,sYyD0vbc,2020-0188,2021-10-04,19:09:01,20:20:25,NA,incomplete,true,true,NA,0,24,abstractness,a_2_025.jpg,right,concrete,abstract,NA,NA,NA,right,1643.5,true,NA,NA,NA,NA,NA
sYyD0vbc,NA,NA,sYyD0vbc,2020-0188,2021-10-04,19:09:01,20:20:25,NA,incomplete,true,true,NA,0,25,syllable,a_2_014.jpg,right,2 syllables,1 syllable,NA,NA,NA,left,1093.90000000596,false,NA,NA,NA,NA,NA
sYyD0vbc,NA,NA,sYyD0vbc,2020-0188,2021-10-04,19:09:01,20:20:25,NA,incomplete,true,true,NA,0,26,syllable,a_1_005.jpg,right,1 syllable,2 syllables,NA,NA,NA,left,3324.90000000596,false,NA,NA,NA,NA,NA
sYyD0vbc,NA,NA,sYyD0vbc,2020-0188,2021-10-04,19:09:01,20:20:25,NA,incomplete,true,true,NA,0,27,syllable,a_1_019.jpg,right,2 syllables,1 syllable,NA,NA,NA,left,823.90000000596,false,NA,NA,NA,NA,NA
sYyD0vbc,NA,NA,sYyD0vbc,2020-0188,2021-10-04,19:09:01,20:20:25,NA,incomplete,true,true,NA,0,28,syllable,c_1_012.jpg,right,2 syllables,1 syllable,NA,NA,NA,left,2868.09999999404,false,NA,NA,NA,NA,NA
sYyD0vbc,NA,NA,sYyD0vbc,2020-0188,2021-10-04,19:09:01,20:20:25,NA,incomplete,true,true,NA,0,29,syllable,c_2_024.jpg,right,2 syllables,1 syllable,NA,NA,NA,right,1638.30000001192,true,NA,NA,NA,NA,NA
sYyD0vbc,NA,NA,sYyD0vbc,2020-0188,2021-10-04,19:09:01,20:20:25,NA,incomplete,true,NA,true,0,0,NA,NA,left,NA,NA,a_1_005.jpg,c_2_024.jpg,within,NA,NaN,NA,right,2425.2000000178814,0,1,4349.199999988079
sYyD0vbc,NA,NA,sYyD0vbc,2020-0188,2021-10-04,19:09:01,20:20:25,NA,incomplete,true,NA,true,0,1,NA,NA,right,NA,NA,o_c_024.jpg,o_c_014.jpg,within,NA,NaN,NA,left,2771.0999999940395,0,2,2530
sYyD0vbc,NA,NA,sYyD0vbc,2020-0188,2021-10-04,19:09:01,20:20:25,NA,incomplete,true,NA,true,0,2,NA,NA,left,NA,NA,a_2_014.jpg,c_1_012.jpg,within,NA,NaN,NA,left,6147.100000023842,1,1,1356.5
sYyD0vbc,NA,NA,sYyD0vbc,2020-0188,2021-10-04,19:09:01,20:20:25,NA,incomplete,true,NA,true,0,3,NA,NA,right,NA,NA,m_s_017.jpg,n_l_014.jpg,within,NA,NaN,NA,right,2691.100000023842,1,0,1148.300000011921
sYyD0vbc,NA,NA,sYyD0vbc,2020-0188,2021-10-04,19:09:01,20:20:25,NA,incomplete,true,NA,true,0,4,NA,NA,right,NA,NA,n_l_014.jpg,m_s_028.jpg,between-small,NA,NaN,NA,right,3084.9000000059605,1,2,954.4000000059605
sYyD0vbc,NA,NA,sYyD0vbc,2020-0188,2021-10-04,19:09:01,20:20:25,NA,incomplete,true,NA,true,0,5,NA,NA,right,NA,NA,o_c_006.jpg,m_s_011.jpg,between-big,NA,NaN,NA,right,1861.5999999940395,1,2,1357
sYyD0vbc,NA,NA,sYyD0vbc,2020-0188,2021-10-04,19:09:01,20:20:25,NA,incomplete,true,NA,true,0,6,NA,NA,right,NA,NA,o_c_028.jpg,o_c_006.jpg,within,NA,NaN,NA,right,3695.5999999940395,1,2,986.5999999940395
sYyD0vbc,NA,NA,sYyD0vbc,2020-0188,2021-10-04,19:09:01,20:20:25,NA,incomplete,true,NA,true,0,7,NA,NA,left,NA,NA,o_s_025.jpg,a_1_017.jpg,between-big,NA,NaN,NA,left,1663.4000000059605,1,2,2449
sYyD0vbc,NA,NA,sYyD0vbc,2020-0188,2021-10-04,19:09:01,20:20:25,NA,incomplete,true,NA,true,0,8,NA,NA,right,NA,NA,n_l_010.jpg,n_l_025.jpg,within,NA,NaN,NA,right,1460.9000000059605,1,2,1436.699999988079
sYyD0vbc,NA,NA,sYyD0vbc,2020-0188,2021-10-04,19:09:01,20:20:25,NA,incomplete,true,NA,true,0,9,NA,NA,left,NA,NA,o_c_024.jpg,a_1_020.jpg,between-big,NA,NaN,NA,left,7671.9000000059605,1,2,1668.0999999940395
sYyD0vbc,NA,NA,sYyD0vbc,2020-0188,2021-10-04,19:09:01,20:20:25,NA,incomplete,true,NA,true,0,10,NA,NA,left,NA,NA,i_c_003.jpg,o_s_025.jpg,between-small,NA,NaN,NA,left,2604.199999988079,1,2,2416.7999999821186
sYyD0vbc,NA,NA,sYyD0vbc,2020-0188,2021-10-04,19:09:01,20:20:25,NA,incomplete,true,NA,true,0,11,NA,NA,left,NA,NA,m_s_017.jpg,i_s_002.jpg,between-big,NA,NaN,NA,left,1959.5999999940395,1,3,962.8000000119209
sYyD0vbc,NA,NA,sYyD0vbc,2020-0188,2021-10-04,19:09:01,20:20:25,NA,incomplete,true,NA,true,0,12,NA,NA,right,NA,NA,a_1_019.jpg,a_2_025.jpg,between-small,NA,NaN,NA,left,3583.7000000178814,0,2,1332.9000000059605
sYyD0vbc,NA,NA,sYyD0vbc,2020-0188,2021-10-04,19:09:01,20:20:25,NA,incomplete,true,NA,true,0,13,NA,NA,right,NA,NA,a_1_005.jpg,c_1_008.jpg,between-small,NA,NaN,NA,left,1798,0,1,3302.7999999821186
sYyD0vbc,NA,NA,sYyD0vbc,2020-0188,2021-10-04,19:09:01,20:20:25,NA,incomplete,true,NA,true,0,14,NA,NA,right,NA,NA,c_1_008.jpg,a_1_017.jpg,within,NA,NaN,NA,left,1630.300000011921,0,1,1565
sYyD0vbc,NA,NA,sYyD0vbc,2020-0188,2021-10-04,19:09:01,20:20:25,NA,incomplete,true,NA,true,0,15,NA,NA,left,NA,NA,o_s_012.jpg,o_c_014.jpg,between-small,NA,NaN,NA,right,1782.699999988079,0,1,1404.5
sYyD0vbc,NA,NA,sYyD0vbc,2020-0188,2021-10-04,19:09:01,20:20:25,NA,incomplete,true,NA,true,0,16,NA,NA,right,NA,NA,a_2_014.jpg,a_1_018.jpg,between-small,NA,NaN,NA,left,1427.699999988079,0,1,3614.899999976158
sYyD0vbc,NA,NA,sYyD0vbc,2020-0188,2021-10-04,19:09:01,20:20:25,NA,incomplete,true,NA,true,0,17,NA,NA,left,NA,NA,m_s_001.jpg,n_s_025.jpg,within,NA,NaN,NA,left,2015.5,1,1,1524.5
sYyD0vbc,NA,NA,sYyD0vbc,2020-0188,2021-10-04,19:09:01,20:20:25,NA,incomplete,true,NA,true,0,18,NA,NA,right,NA,NA,i_c_003.jpg,i_s_002.jpg,within,NA,NaN,NA,right,2006.5,1,2,1926.5
sYyD0vbc,NA,NA,sYyD0vbc,2020-0188,2021-10-04,19:09:01,20:20:25,NA,incomplete,true,NA,true,0,19,NA,NA,right,NA,NA,m_s_011.jpg,n_s_025.jpg,between-small,NA,NaN,NA,left,1629.4000000059605,0,2,1235.300000011921
sYyD0vbc,NA,NA,sYyD0vbc,2020-0188,2021-10-04,19:09:01,20:20:25,NA,incomplete,true,NA,true,0,20,NA,NA,left,NA,NA,m_s_013.jpg,n_s_027.jpg,within,NA,NaN,NA,left,2634.2999999821186,1,0,1558.5
sYyD0vbc,NA,NA,sYyD0vbc,2020-0188,2021-10-04,19:09:01,20:20:25,NA,incomplete,true,NA,true,0,21,NA,NA,left,NA,NA,n_s_027.jpg,o_s_012.jpg,between-big,NA,NaN,NA,left,1388.0999999940395,1,2,1077.800000011921
sYyD0vbc,NA,NA,sYyD0vbc,2020-0188,2021-10-04,19:09:01,20:20:25,NA,incomplete,true,NA,true,0,22,NA,NA,right,NA,NA,o_c_023.jpg,o_c_028.jpg,between-small,NA,NaN,NA,right,3081.800000011921,1,2,2777.2000000178814
sYyD0vbc,NA,NA,sYyD0vbc,2020-0188,2021-10-04,19:09:01,20:20:25,NA,incomplete,true,NA,true,0,23,NA,NA,left,NA,NA,a_1_020.jpg,a_2_025.jpg,within,NA,NaN,NA,left,2057.4000000059605,1,0,1854.699999988079
sYyD0vbc,NA,NA,sYyD0vbc,2020-0188,2021-10-04,19:09:01,20:20:25,NA,incomplete,true,NA,true,0,24,NA,NA,left,NA,NA,n_l_010.jpg,m_s_013.jpg,between-small,NA,NaN,NA,right,1284.5999999940395,0,1,2826.699999988079
sYyD0vbc,NA,NA,sYyD0vbc,2020-0188,2021-10-04,19:09:01,20:20:25,NA,incomplete,true,NA,true,0,25,NA,NA,right,NA,NA,a_1_018.jpg,o_s_010.jpg,between-big,NA,NaN,NA,right,2256.800000011921,1,2,2971.7000000178814
sYyD0vbc,NA,NA,sYyD0vbc,2020-0188,2021-10-04,19:09:01,20:20:25,NA,incomplete,true,NA,true,0,26,NA,NA,right,NA,NA,o_s_010.jpg,o_c_023.jpg,within,NA,NaN,NA,right,2519.9000000059605,1,0,2722
sYyD0vbc,NA,NA,sYyD0vbc,2020-0188,2021-10-04,19:09:01,20:20:25,NA,incomplete,false,true,NA,1,0,location,i_s_019.jpg,right,outdoor,indoor,NA,NA,NA,left,2073.20000001788,false,NA,NA,NA,NA,NA
sYyD0vbc,NA,NA,sYyD0vbc,2020-0188,2021-10-04,19:09:01,20:20:25,NA,incomplete,false,true,NA,1,1,location,i_c_022.jpg,left,indoor,outdoor,NA,NA,NA,left,2908.79999998212,true,NA,NA,NA,NA,NA
sYyD0vbc,NA,NA,sYyD0vbc,2020-0188,2021-10-04,19:09:01,20:20:25,NA,incomplete,false,true,NA,1,2,location,o_c_017.jpg,right,indoor,outdoor,NA,NA,NA,right,1431,true,NA,NA,NA,NA,NA
sYyD0vbc,NA,NA,sYyD0vbc,2020-0188,2021-10-04,19:09:01,20:20:25,NA,incomplete,false,true,NA,1,3,location,o_c_010.jpg,right,indoor,outdoor,NA,NA,NA,right,1583.29999998212,true,NA,NA,NA,NA,NA
sYyD0vbc,NA,NA,sYyD0vbc,2020-0188,2021-10-04,19:09:01,20:20:25,NA,incomplete,false,true,NA,1,4,location,i_s_006.jpg,right,outdoor,indoor,NA,NA,NA,right,1759,true,NA,NA,NA,NA,NA
sYyD0vbc,NA,NA,sYyD0vbc,2020-0188,2021-10-04,19:09:01,20:20:25,NA,incomplete,false,true,NA,1,5,building,i_c_013.jpg,right,skyscraper,cottage,NA,NA,NA,right,2701.20000001788,true,NA,NA,NA,NA,NA
sYyD0vbc,NA,NA,sYyD0vbc,2020-0188,2021-10-04,19:09:01,20:20:25,NA,incomplete,false,true,NA,1,6,building,o_s_027.jpg,right,cottage,skyscraper,NA,NA,NA,right,1087.5,true,NA,NA,NA,NA,NA
sYyD0vbc,NA,NA,sYyD0vbc,2020-0188,2021-10-04,19:09:01,20:20:25,NA,incomplete,false,true,NA,1,7,building,o_c_025.jpg,right,skyscraper,cottage,NA,NA,NA,right,1374.69999998808,true,NA,NA,NA,NA,NA
sYyD0vbc,NA,NA,sYyD0vbc,2020-0188,2021-10-04,19:09:01,20:20:25,NA,incomplete,false,true,NA,1,8,building,o_s_016.jpg,right,cottage,skyscraper,NA,NA,NA,right,1170.5,true,NA,NA,NA,NA,NA
sYyD0vbc,NA,NA,sYyD0vbc,2020-0188,2021-10-04,19:09:01,20:20:25,NA,incomplete,false,true,NA,1,9,building,o_c_001.jpg,right,skyscraper,cottage,NA,NA,NA,left,1615.80000001192,false,NA,NA,NA,NA,NA
sYyD0vbc,NA,NA,sYyD0vbc,2020-0188,2021-10-04,19:09:01,20:20:25,NA,incomplete,false,true,NA,1,10,abstractness,c_2_006.jpg,left,concrete,abstract,NA,NA,NA,left,1745.09999999404,true,NA,NA,NA,NA,NA
sYyD0vbc,NA,NA,sYyD0vbc,2020-0188,2021-10-04,19:09:01,20:20:25,NA,incomplete,false,true,NA,1,11,abstractness,a_1_001.jpg,left,abstract,concrete,NA,NA,NA,left,1940.09999999404,true,NA,NA,NA,NA,NA
sYyD0vbc,NA,NA,sYyD0vbc,2020-0188,2021-10-04,19:09:01,20:20:25,NA,incomplete,false,true,NA,1,12,abstractness,c_2_002.jpg,right,abstract,concrete,NA,NA,NA,right,1675.69999998808,true,NA,NA,NA,NA,NA
sYyD0vbc,NA,NA,sYyD0vbc,2020-0188,2021-10-04,19:09:01,20:20:25,NA,incomplete,false,true,NA,1,13,abstractness,c_2_016.jpg,right,abstract,concrete,NA,NA,NA,right,1622.80000001192,true,NA,NA,NA,NA,NA
sYyD0vbc,NA,NA,sYyD0vbc,2020-0188,2021-10-04,19:09:01,20:20:25,NA,incomplete,false,true,NA,1,14,abstractness,a_2_017.jpg,left,abstract,concrete,NA,NA,NA,left,935.90000000596,true,NA,NA,NA,NA,NA
sYyD0vbc,NA,NA,sYyD0vbc,2020-0188,2021-10-04,19:09:01,20:20:25,NA,incomplete,false,true,NA,1,15,syllable,c_1_009.jpg,right,2 syllables,1 syllable,NA,NA,NA,right,1517.90000000596,true,NA,NA,NA,NA,NA
sYyD0vbc,NA,NA,sYyD0vbc,2020-0188,2021-10-04,19:09:01,20:20:25,NA,incomplete,false,true,NA,1,16,syllable,c_2_021.jpg,right,2 syllables,1 syllable,NA,NA,NA,left,829.700000017881,false,NA,NA,NA,NA,NA
sYyD0vbc,NA,NA,sYyD0vbc,2020-0188,2021-10-04,19:09:01,20:20:25,NA,incomplete,false,true,NA,1,17,syllable,a_2_023.jpg,right,1 syllable,2 syllables,NA,NA,NA,right,1376.90000000596,true,NA,NA,NA,NA,NA
sYyD0vbc,NA,NA,sYyD0vbc,2020-0188,2021-10-04,19:09:01,20:20:25,NA,incomplete,false,true,NA,1,18,syllable,c_2_005.jpg,right,1 syllable,2 syllables,NA,NA,NA,right,1100.70000001788,true,NA,NA,NA,NA,NA
sYyD0vbc,NA,NA,sYyD0vbc,2020-0188,2021-10-04,19:09:01,20:20:25,NA,incomplete,false,true,NA,1,19,syllable,c_2_023.jpg,right,2 syllables,1 syllable,NA,NA,NA,left,2024.69999998808,false,NA,NA,NA,NA,NA
sYyD0vbc,NA,NA,sYyD0vbc,2020-0188,2021-10-04,19:09:01,20:20:25,NA,incomplete,false,true,NA,1,20,origin,m_l_025.jpg,left,manmade,natural,NA,NA,NA,left,1196.19999998808,true,NA,NA,NA,NA,NA
sYyD0vbc,NA,NA,sYyD0vbc,2020-0188,2021-10-04,19:09:01,20:20:25,NA,incomplete,false,true,NA,1,21,origin,n_s_016.jpg,left,natural,manmade,NA,NA,NA,left,1314.79999998212,true,NA,NA,NA,NA,NA
sYyD0vbc,NA,NA,sYyD0vbc,2020-0188,2021-10-04,19:09:01,20:20:25,NA,incomplete,false,true,NA,1,22,origin,n_s_019.jpg,left,natural,manmade,NA,NA,NA,left,1808.19999998808,true,NA,NA,NA,NA,NA
sYyD0vbc,NA,NA,sYyD0vbc,2020-0188,2021-10-04,19:09:01,20:20:25,NA,incomplete,false,true,NA,1,23,origin,m_s_019.jpg,right,natural,manmade,NA,NA,NA,right,1264.19999998808,true,NA,NA,NA,NA,NA
sYyD0vbc,NA,NA,sYyD0vbc,2020-0188,2021-10-04,19:09:01,20:20:25,NA,incomplete,false,true,NA,1,24,origin,n_l_006.jpg,right,manmade,natural,NA,NA,NA,right,1076.20000001788,true,NA,NA,NA,NA,NA
sYyD0vbc,NA,NA,sYyD0vbc,2020-0188,2021-10-04,19:09:01,20:20:25,NA,incomplete,false,true,NA,1,25,size,m_s_024.jpg,left,small,large,NA,NA,NA,left,1788.59999999404,true,NA,NA,NA,NA,NA
sYyD0vbc,NA,NA,sYyD0vbc,2020-0188,2021-10-04,19:09:01,20:20:25,NA,incomplete,false,true,NA,1,26,size,n_s_003.jpg,left,small,large,NA,NA,NA,left,1375.80000001192,true,NA,NA,NA,NA,NA
sYyD0vbc,NA,NA,sYyD0vbc,2020-0188,2021-10-04,19:09:01,20:20:25,NA,incomplete,false,true,NA,1,27,size,n_l_015.jpg,right,small,large,NA,NA,NA,right,1587.30000001192,true,NA,NA,NA,NA,NA
sYyD0vbc,NA,NA,sYyD0vbc,2020-0188,2021-10-04,19:09:01,20:20:25,NA,incomplete,false,true,NA,1,28,size,m_s_020.jpg,left,small,large,NA,NA,NA,left,1194.80000001192,true,NA,NA,NA,NA,NA
sYyD0vbc,NA,NA,sYyD0vbc,2020-0188,2021-10-04,19:09:01,20:20:25,NA,incomplete,false,true,NA,1,29,size,n_s_023.jpg,left,small,large,NA,NA,NA,left,932.399999976158,true,NA,NA,NA,NA,NA
sYyD0vbc,NA,NA,sYyD0vbc,2020-0188,2021-10-04,19:09:01,20:20:25,NA,incomplete,false,NA,true,1,0,NA,NA,left,NA,NA,o_c_017.jpg,i_c_013.jpg,between-small,NA,NaN,NA,left,9297.199999988079,1,1,1797.5999999940395
sYyD0vbc,NA,NA,sYyD0vbc,2020-0188,2021-10-04,19:09:01,20:20:25,NA,incomplete,false,NA,true,1,1,NA,NA,left,NA,NA,c_2_002.jpg,c_1_009.jpg,between-small,NA,NaN,NA,right,5077.5,0,0,2062.5
sYyD0vbc,NA,NA,sYyD0vbc,2020-0188,2021-10-04,19:09:01,20:20:25,NA,incomplete,false,NA,true,1,2,NA,NA,left,NA,NA,o_s_027.jpg,o_c_001.jpg,within,NA,NaN,NA,right,2500.9000000059605,0,1,1017
sYyD0vbc,NA,NA,sYyD0vbc,2020-0188,2021-10-04,19:09:01,20:20:25,NA,incomplete,false,NA,true,1,3,NA,NA,left,NA,NA,a_1_001.jpg,a_2_017.jpg,within,NA,NaN,NA,left,3372.2000000178814,1,1,1138.5999999940395
sYyD0vbc,NA,NA,sYyD0vbc,2020-0188,2021-10-04,19:09:01,20:20:25,NA,incomplete,false,NA,true,1,4,NA,NA,right,NA,NA,o_s_027.jpg,o_c_010.jpg,between-small,NA,NaN,NA,right,2503.9000000059605,1,0,1017.1999999880791
sYyD0vbc,NA,NA,sYyD0vbc,2020-0188,2021-10-04,19:09:01,20:20:25,NA,incomplete,false,NA,true,1,5,NA,NA,left,NA,NA,c_2_016.jpg,c_2_021.jpg,between-small,NA,NaN,NA,left,1509.3999999761581,1,1,2313.199999988079
sYyD0vbc,NA,NA,sYyD0vbc,2020-0188,2021-10-04,19:09:01,20:20:25,NA,incomplete,false,NA,true,1,6,NA,NA,left,NA,NA,i_s_019.jpg,o_c_010.jpg,within,NA,NaN,NA,left,1450.2999999821186,1,2,1356.699999988079
sYyD0vbc,NA,NA,sYyD0vbc,2020-0188,2021-10-04,19:09:01,20:20:25,NA,incomplete,false,NA,true,1,7,NA,NA,right,NA,NA,n_s_003.jpg,m_s_019.jpg,between-small,NA,NaN,NA,right,6288.0999999940395,1,2,2499.7999999821186
sYyD0vbc,NA,NA,sYyD0vbc,2020-0188,2021-10-04,19:09:01,20:20:25,NA,incomplete,false,NA,true,1,8,NA,NA,right,NA,NA,c_2_002.jpg,o_c_001.jpg,between-big,NA,NaN,NA,right,2520.800000011921,1,2,1076.199999988079
sYyD0vbc,NA,NA,sYyD0vbc,2020-0188,2021-10-04,19:09:01,20:20:25,NA,incomplete,false,NA,true,1,9,NA,NA,right,NA,NA,m_s_019.jpg,m_l_025.jpg,within,NA,NaN,NA,left,3670.4000000059605,0,0,1356.7999999821186
sYyD0vbc,NA,NA,sYyD0vbc,2020-0188,2021-10-04,19:09:01,20:20:25,NA,incomplete,false,NA,true,1,10,NA,NA,right,NA,NA,c_2_005.jpg,c_1_009.jpg,within,NA,NaN,NA,right,3086.5999999940395,1,0,1589.300000011921
sYyD0vbc,NA,NA,sYyD0vbc,2020-0188,2021-10-04,19:09:01,20:20:25,NA,incomplete,false,NA,true,1,11,NA,NA,right,NA,NA,a_1_001.jpg,o_s_016.jpg,between-big,NA,NaN,NA,right,2377.5999999940395,1,3,1010.5
sYyD0vbc,NA,NA,sYyD0vbc,2020-0188,2021-10-04,19:09:01,20:20:25,NA,incomplete,false,NA,true,1,12,NA,NA,left,NA,NA,i_c_013.jpg,o_s_016.jpg,within,NA,NaN,NA,right,3301.300000011921,0,1,1026.4000000059605
sYyD0vbc,NA,NA,sYyD0vbc,2020-0188,2021-10-04,19:09:01,20:20:25,NA,incomplete,false,NA,true,1,13,NA,NA,right,NA,NA,n_s_016.jpg,c_2_005.jpg,between-big,NA,NaN,NA,right,4434,1,1,1660.5
sYyD0vbc,NA,NA,sYyD0vbc,2020-0188,2021-10-04,19:09:01,20:20:25,NA,incomplete,false,NA,true,1,14,NA,NA,right,NA,NA,c_2_023.jpg,c_2_021.jpg,within,NA,NaN,NA,right,3280,1,1,2810.0999999940395
sYyD0vbc,NA,NA,sYyD0vbc,2020-0188,2021-10-04,19:09:01,20:20:25,NA,incomplete,false,NA,true,1,15,NA,NA,right,NA,NA,m_s_020.jpg,m_s_024.jpg,within,NA,NaN,NA,left,3671.4000000059605,0,2,1419.5
sYyD0vbc,NA,NA,sYyD0vbc,2020-0188,2021-10-04,19:09:01,20:20:25,NA,incomplete,false,NA,true,1,16,NA,NA,right,NA,NA,n_s_019.jpg,c_2_023.jpg,between-big,NA,NaN,NA,left,1846.300000011921,0,2,1516
sYyD0vbc,NA,NA,sYyD0vbc,2020-0188,2021-10-04,19:09:01,20:20:25,NA,incomplete,false,NA,true,1,17,NA,NA,right,NA,NA,c_2_016.jpg,c_2_006.jpg,within,NA,NaN,NA,left,3590,0,2,2327.0999999940395
sYyD0vbc,NA,NA,sYyD0vbc,2020-0188,2021-10-04,19:09:01,20:20:25,NA,incomplete,false,NA,true,1,18,NA,NA,right,NA,NA,n_l_015.jpg,n_l_006.jpg,between-small,NA,NaN,NA,right,2262.5999999940395,1,2,1132.4000000059605
sYyD0vbc,NA,NA,sYyD0vbc,2020-0188,2021-10-04,19:09:01,20:20:25,NA,incomplete,false,NA,true,1,19,NA,NA,right,NA,NA,n_s_023.jpg,n_s_003.jpg,within,NA,NaN,NA,left,1340.800000011921,0,1,1710.7000000178814
sYyD0vbc,NA,NA,sYyD0vbc,2020-0188,2021-10-04,19:09:01,20:20:25,NA,incomplete,false,NA,true,1,20,NA,NA,left,NA,NA,a_2_023.jpg,m_l_025.jpg,between-big,NA,NaN,NA,right,1437.199999988079,0,2,1122.4000000059605
sYyD0vbc,NA,NA,sYyD0vbc,2020-0188,2021-10-04,19:09:01,20:20:25,NA,incomplete,false,NA,true,1,21,NA,NA,left,NA,NA,i_c_022.jpg,i_s_006.jpg,within,NA,NaN,NA,left,1181.199999988079,1,0,2987.5
sYyD0vbc,NA,NA,sYyD0vbc,2020-0188,2021-10-04,19:09:01,20:20:25,NA,incomplete,false,NA,true,1,22,NA,NA,right,NA,NA,o_c_025.jpg,i_s_006.jpg,between-small,NA,NaN,NA,left,1656.0999999940395,0,0,1613.4000000059605
sYyD0vbc,NA,NA,sYyD0vbc,2020-0188,2021-10-04,19:09:01,20:20:25,NA,incomplete,false,NA,true,1,23,NA,NA,left,NA,NA,a_2_017.jpg,a_2_023.jpg,between-small,NA,NaN,NA,right,4130,0,1,1516.800000011921
sYyD0vbc,NA,NA,sYyD0vbc,2020-0188,2021-10-04,19:09:01,20:20:25,NA,incomplete,false,NA,true,1,24,NA,NA,left,NA,NA,n_s_016.jpg,n_l_006.jpg,within,NA,NaN,NA,right,4773.5999999940395,0,0,1998.699999988079
sYyD0vbc,NA,NA,sYyD0vbc,2020-0188,2021-10-04,19:09:01,20:20:25,NA,incomplete,false,NA,true,1,25,NA,NA,left,NA,NA,o_c_025.jpg,c_2_006.jpg,between-big,NA,NaN,NA,left,1277.4000000059605,1,2,2181.899999976158
sYyD0vbc,NA,NA,sYyD0vbc,2020-0188,2021-10-04,19:09:01,20:20:25,NA,incomplete,false,NA,true,1,26,NA,NA,right,NA,NA,m_s_024.jpg,n_s_019.jpg,between-small,NA,NaN,NA,right,4740.699999988079,1,2,945.8999999761581
sYyD0vbc,NA,NA,sYyD0vbc,2020-0188,2021-10-04,19:09:01,20:20:25,NA,incomplete,false,true,NA,2,0,syllable,a_2_003.jpg,right,2 syllables,1 syllable,NA,NA,NA,left,2019.80000001192,false,NA,NA,NA,NA,NA
sYyD0vbc,NA,NA,sYyD0vbc,2020-0188,2021-10-04,19:09:01,20:20:25,NA,incomplete,false,true,NA,2,1,syllable,a_2_005.jpg,right,2 syllables,1 syllable,NA,NA,NA,left,1901.70000001788,false,NA,NA,NA,NA,NA
sYyD0vbc,NA,NA,sYyD0vbc,2020-0188,2021-10-04,19:09:01,20:20:25,NA,incomplete,false,true,NA,2,2,syllable,c_1_006.jpg,right,1 syllable,2 syllables,NA,NA,NA,left,1532.70000001788,false,NA,NA,NA,NA,NA
sYyD0vbc,NA,NA,sYyD0vbc,2020-0188,2021-10-04,19:09:01,20:20:25,NA,incomplete,false,true,NA,2,3,syllable,a_2_008.jpg,right,1 syllable,2 syllables,NA,NA,NA,right,1584.90000000596,true,NA,NA,NA,NA,NA
sYyD0vbc,NA,NA,sYyD0vbc,2020-0188,2021-10-04,19:09:01,20:20:25,NA,incomplete,false,true,NA,2,4,syllable,c_1_023.jpg,right,2 syllables,1 syllable,NA,NA,NA,right,1417.80000001192,true,NA,NA,NA,NA,NA
sYyD0vbc,NA,NA,sYyD0vbc,2020-0188,2021-10-04,19:09:01,20:20:25,NA,incomplete,false,true,NA,2,5,abstractness,c_1_028.jpg,left,concrete,abstract,NA,NA,NA,left,2065.80000001192,true,NA,NA,NA,NA,NA
sYyD0vbc,NA,NA,sYyD0vbc,2020-0188,2021-10-04,19:09:01,20:20:25,NA,incomplete,false,true,NA,2,6,abstractness,a_2_011.jpg,right,concrete,abstract,NA,NA,NA,right,1712.5,true,NA,NA,NA,NA,NA
sYyD0vbc,NA,NA,sYyD0vbc,2020-0188,2021-10-04,19:09:01,20:20:25,NA,incomplete,false,true,NA,2,7,abstractness,c_2_017.jpg,left,concrete,abstract,NA,NA,NA,left,1076.20000001788,true,NA,NA,NA,NA,NA
sYyD0vbc,NA,NA,sYyD0vbc,2020-0188,2021-10-04,19:09:01,20:20:25,NA,incomplete,false,true,NA,2,8,abstractness,a_1_015.jpg,left,abstract,concrete,NA,NA,NA,left,1786.5,true,NA,NA,NA,NA,NA
sYyD0vbc,NA,NA,sYyD0vbc,2020-0188,2021-10-04,19:09:01,20:20:25,NA,incomplete,false,true,NA,2,9,abstractness,a_2_021.jpg,right,concrete,abstract,NA,NA,NA,right,1376.69999998808,true,NA,NA,NA,NA,NA
sYyD0vbc,NA,NA,sYyD0vbc,2020-0188,2021-10-04,19:09:01,20:20:25,NA,incomplete,false,true,NA,2,10,building,i_s_005.jpg,left,skyscraper,cottage,NA,NA,NA,left,1444,true,NA,NA,NA,NA,NA
sYyD0vbc,NA,NA,sYyD0vbc,2020-0188,2021-10-04,19:09:01,20:20:25,NA,incomplete,false,true,NA,2,11,building,i_s_004.jpg,right,cottage,skyscraper,NA,NA,NA,right,957.90000000596,true,NA,NA,NA,NA,NA
sYyD0vbc,NA,NA,sYyD0vbc,2020-0188,2021-10-04,19:09:01,20:20:25,NA,incomplete,false,true,NA,2,12,building,i_s_003.jpg,left,skyscraper,cottage,NA,NA,NA,left,1868.79999998212,true,NA,NA,NA,NA,NA
sYyD0vbc,NA,NA,sYyD0vbc,2020-0188,2021-10-04,19:09:01,20:20:25,NA,incomplete,false,true,NA,2,13,building,i_s_020.jpg,right,cottage,skyscraper,NA,NA,NA,right,2572.70000001788,true,NA,NA,NA,NA,NA
sYyD0vbc,NA,NA,sYyD0vbc,2020-0188,2021-10-04,19:09:01,20:20:25,NA,incomplete,false,true,NA,2,14,building,i_c_025.jpg,left,cottage,skyscraper,NA,NA,NA,left,833.40000000596,true,NA,NA,NA,NA,NA
sYyD0vbc,NA,NA,sYyD0vbc,2020-0188,2021-10-04,19:09:01,20:20:25,NA,incomplete,false,true,NA,2,15,location,i_s_001.jpg,left,indoor,outdoor,NA,NA,NA,left,2034.60000002384,true,NA,NA,NA,NA,NA
sYyD0vbc,NA,NA,sYyD0vbc,2020-0188,2021-10-04,19:09:01,20:20:25,NA,incomplete,false,true,NA,2,16,location,o_c_026.jpg,left,outdoor,indoor,NA,NA,NA,left,1153.59999999404,true,NA,NA,NA,NA,NA
sYyD0vbc,NA,NA,sYyD0vbc,2020-0188,2021-10-04,19:09:01,20:20:25,NA,incomplete,false,true,NA,2,17,location,i_s_010.jpg,left,indoor,outdoor,NA,NA,NA,left,1399.80000001192,true,NA,NA,NA,NA,NA
sYyD0vbc,NA,NA,sYyD0vbc,2020-0188,2021-10-04,19:09:01,20:20:25,NA,incomplete,false,true,NA,2,18,location,i_c_002.jpg,right,outdoor,indoor,NA,NA,NA,right,971.399999976158,true,NA,NA,NA,NA,NA
sYyD0vbc,NA,NA,sYyD0vbc,2020-0188,2021-10-04,19:09:01,20:20:25,NA,incomplete,false,true,NA,2,19,location,i_s_015.jpg,right,outdoor,indoor,NA,NA,NA,right,1086.90000000596,true,NA,NA,NA,NA,NA
sYyD0vbc,NA,NA,sYyD0vbc,2020-0188,2021-10-04,19:09:01,20:20:25,NA,incomplete,false,true,NA,2,20,size,m_l_028.jpg,left,large,small,NA,NA,NA,left,1841.69999998808,true,NA,NA,NA,NA,NA
sYyD0vbc,NA,NA,sYyD0vbc,2020-0188,2021-10-04,19:09:01,20:20:25,NA,incomplete,false,true,NA,2,21,size,m_l_007.jpg,right,small,large,NA,NA,NA,right,1366.30000001192,true,NA,NA,NA,NA,NA
sYyD0vbc,NA,NA,sYyD0vbc,2020-0188,2021-10-04,19:09:01,20:20:25,NA,incomplete,false,true,NA,2,22,size,n_l_007.jpg,right,small,large,NA,NA,NA,right,1452.30000001192,true,NA,NA,NA,NA,NA
sYyD0vbc,NA,NA,sYyD0vbc,2020-0188,2021-10-04,19:09:01,20:20:25,NA,incomplete,false,true,NA,2,23,size,m_s_027.jpg,right,large,small,NA,NA,NA,right,2599.40000000596,true,NA,NA,NA,NA,NA
sYyD0vbc,NA,NA,sYyD0vbc,2020-0188,2021-10-04,19:09:01,20:20:25,NA,incomplete,false,true,NA,2,24,size,n_l_017.jpg,left,large,small,NA,NA,NA,left,806.800000011921,true,NA,NA,NA,NA,NA
sYyD0vbc,NA,NA,sYyD0vbc,2020-0188,2021-10-04,19:09:01,20:20:25,NA,incomplete,false,true,NA,2,25,origin,m_l_027.jpg,right,natural,manmade,NA,NA,NA,right,1356.10000002384,true,NA,NA,NA,NA,NA
sYyD0vbc,NA,NA,sYyD0vbc,2020-0188,2021-10-04,19:09:01,20:20:25,NA,incomplete,false,true,NA,2,26,origin,n_l_012.jpg,left,natural,manmade,NA,NA,NA,left,1002.09999999404,true,NA,NA,NA,NA,NA
sYyD0vbc,NA,NA,sYyD0vbc,2020-0188,2021-10-04,19:09:01,20:20:25,NA,incomplete,false,true,NA,2,27,origin,n_s_028.jpg,right,manmade,natural,NA,NA,NA,right,863.199999988079,true,NA,NA,NA,NA,NA
sYyD0vbc,NA,NA,sYyD0vbc,2020-0188,2021-10-04,19:09:01,20:20:25,NA,incomplete,false,true,NA,2,28,origin,n_l_003.jpg,right,manmade,natural,NA,NA,NA,right,1564.69999998808,true,NA,NA,NA,NA,NA
sYyD0vbc,NA,NA,sYyD0vbc,2020-0188,2021-10-04,19:09:01,20:20:25,NA,incomplete,false,true,NA,2,29,origin,n_s_001.jpg,right,manmade,natural,NA,NA,NA,right,1349.70000001788,true,NA,NA,NA,NA,NA
sYyD0vbc,NA,NA,sYyD0vbc,2020-0188,2021-10-04,19:09:01,20:20:25,NA,incomplete,false,NA,true,2,0,NA,NA,right,NA,NA,n_l_003.jpg,m_l_027.jpg,within,NA,NaN,NA,right,3123.5999999940395,1,1,1075
sYyD0vbc,NA,NA,sYyD0vbc,2020-0188,2021-10-04,19:09:01,20:20:25,NA,incomplete,false,NA,true,2,1,NA,NA,right,NA,NA,m_l_028.jpg,i_s_010.jpg,between-big,NA,NaN,NA,right,3965.5,1,2,886.5
sYyD0vbc,NA,NA,sYyD0vbc,2020-0188,2021-10-04,19:09:01,20:20:25,NA,incomplete,false,NA,true,2,2,NA,NA,right,NA,NA,n_s_028.jpg,n_l_017.jpg,between-small,NA,NaN,NA,right,3685.300000011921,1,2,1226.800000011921
sYyD0vbc,NA,NA,sYyD0vbc,2020-0188,2021-10-04,19:09:01,20:20:25,NA,incomplete,false,NA,true,2,3,NA,NA,left,NA,NA,c_1_023.jpg,c_2_017.jpg,between-small,NA,NaN,NA,right,2697.300000011921,0,1,1330.699999988079
sYyD0vbc,NA,NA,sYyD0vbc,2020-0188,2021-10-04,19:09:01,20:20:25,NA,incomplete,false,NA,true,2,4,NA,NA,left,NA,NA,i_s_004.jpg,i_c_025.jpg,within,NA,NaN,NA,left,2422.0999999940395,1,1,1570.9000000059605
sYyD0vbc,NA,NA,sYyD0vbc,2020-0188,2021-10-04,19:09:01,20:20:25,NA,incomplete,false,NA,true,2,5,NA,NA,right,NA,NA,i_s_015.jpg,o_c_026.jpg,within,NA,NaN,NA,right,5551.0999999940395,1,1,2889.699999988079
sYyD0vbc,NA,NA,sYyD0vbc,2020-0188,2021-10-04,19:09:01,20:20:25,NA,incomplete,false,NA,true,2,6,NA,NA,left,NA,NA,m_s_027.jpg,n_l_012.jpg,between-small,NA,NaN,NA,left,1992.7000000178814,1,1,2342.5999999940395
sYyD0vbc,NA,NA,sYyD0vbc,2020-0188,2021-10-04,19:09:01,20:20:25,NA,incomplete,false,NA,true,2,7,NA,NA,right,NA,NA,i_c_002.jpg,i_s_001.jpg,within,NA,NaN,NA,right,12376.5,1,1,1233
sYyD0vbc,NA,NA,sYyD0vbc,2020-0188,2021-10-04,19:09:01,20:20:25,NA,incomplete,false,NA,true,2,8,NA,NA,right,NA,NA,n_s_001.jpg,n_l_012.jpg,within,NA,NaN,NA,right,4255.800000011921,1,1,1171
sYyD0vbc,NA,NA,sYyD0vbc,2020-0188,2021-10-04,19:09:01,20:20:25,NA,incomplete,false,NA,true,2,9,NA,NA,right,NA,NA,c_1_028.jpg,c_1_006.jpg,between-small,NA,NaN,NA,right,6182.600000023842,1,1,1106.300000011921
sYyD0vbc,NA,NA,sYyD0vbc,2020-0188,2021-10-04,19:09:01,20:20:25,NA,incomplete,false,NA,true,2,10,NA,NA,right,NA,NA,m_s_027.jpg,m_l_028.jpg,within,NA,NaN,NA,right,2144,1,1,1733.800000011921
sYyD0vbc,NA,NA,sYyD0vbc,2020-0188,2021-10-04,19:09:01,20:20:25,NA,incomplete,false,NA,true,2,11,NA,NA,right,NA,NA,i_s_005.jpg,c_2_017.jpg,between-big,NA,NaN,NA,right,1430.5999999940395,1,2,1002.0999999940395
sYyD0vbc,NA,NA,sYyD0vbc,2020-0188,2021-10-04,19:09:01,20:20:25,NA,incomplete,false,NA,true,2,12,NA,NA,right,NA,NA,a_2_011.jpg,a_2_008.jpg,between-small,NA,NaN,NA,right,3657.4000000059605,1,2,947.5999999940395
sYyD0vbc,NA,NA,sYyD0vbc,2020-0188,2021-10-04,19:09:01,20:20:25,NA,incomplete,false,NA,true,2,13,NA,NA,left,NA,NA,a_1_015.jpg,i_s_004.jpg,between-big,NA,NaN,NA,left,1605.699999988079,1,3,1106.699999988079
sYyD0vbc,NA,NA,sYyD0vbc,2020-0188,2021-10-04,19:09:01,20:20:25,NA,incomplete,false,NA,true,2,14,NA,NA,left,NA,NA,a_2_005.jpg,c_1_023.jpg,within,NA,NaN,NA,left,2777.5,1,2,986.1999999880791
sYyD0vbc,NA,NA,sYyD0vbc,2020-0188,2021-10-04,19:09:01,20:20:25,NA,incomplete,false,NA,true,2,15,NA,NA,right,NA,NA,i_s_020.jpg,i_s_005.jpg,within,NA,NaN,NA,right,4965.100000023842,1,1,2697.5999999940395
sYyD0vbc,NA,NA,sYyD0vbc,2020-0188,2021-10-04,19:09:01,20:20:25,NA,incomplete,false,NA,true,2,16,NA,NA,right,NA,NA,i_s_001.jpg,i_s_003.jpg,between-small,NA,NaN,NA,right,1670.2000000178814,1,1,1435.5999999940395
sYyD0vbc,NA,NA,sYyD0vbc,2020-0188,2021-10-04,19:09:01,20:20:25,NA,incomplete,false,NA,true,2,17,NA,NA,left,NA,NA,c_1_028.jpg,a_1_015.jpg,within,NA,NaN,NA,left,3735.2000000178814,1,1,1765.699999988079
sYyD0vbc,NA,NA,sYyD0vbc,2020-0188,2021-10-04,19:09:01,20:20:25,NA,incomplete,false,NA,true,2,18,NA,NA,left,NA,NA,m_l_007.jpg,n_l_017.jpg,within,NA,NaN,NA,left,1486.5,1,1,2665.5999999940395
sYyD0vbc,NA,NA,sYyD0vbc,2020-0188,2021-10-04,19:09:01,20:20:25,NA,incomplete,false,NA,true,2,19,NA,NA,left,NA,NA,i_s_015.jpg,n_l_007.jpg,between-big,NA,NaN,NA,left,4857.0999999940395,1,2,2961.199999988079
sYyD0vbc,NA,NA,sYyD0vbc,2020-0188,2021-10-04,19:09:01,20:20:25,NA,incomplete,false,NA,true,2,20,NA,NA,left,NA,NA,i_c_025.jpg,i_s_010.jpg,between-small,NA,NaN,NA,left,1952.199999988079,1,2,1292.5999999940395
sYyD0vbc,NA,NA,sYyD0vbc,2020-0188,2021-10-04,19:09:01,20:20:25,NA,incomplete,false,NA,true,2,21,NA,NA,right,NA,NA,m_l_007.jpg,i_c_002.jpg,between-big,NA,NaN,NA,right,1549.7999999821186,1,2,2625.5
sYyD0vbc,NA,NA,sYyD0vbc,2020-0188,2021-10-04,19:09:01,20:20:25,NA,incomplete,false,NA,true,2,22,NA,NA,left,NA,NA,n_l_007.jpg,m_l_027.jpg,between-small,NA,NaN,NA,right,1386.4000000059605,0,2,1340.6000000238419
sYyD0vbc,NA,NA,sYyD0vbc,2020-0188,2021-10-04,19:09:01,20:20:25,NA,incomplete,false,NA,true,2,23,NA,NA,left,NA,NA,i_s_020.jpg,o_c_026.jpg,between-small,NA,NaN,NA,right,1172.4000000059605,0,2,2489
sYyD0vbc,NA,NA,sYyD0vbc,2020-0188,2021-10-04,19:09:01,20:20:25,NA,incomplete,false,NA,true,2,24,NA,NA,left,NA,NA,a_2_011.jpg,a_2_021.jpg,within,NA,NaN,NA,right,2972.800000011921,0,2,938.4000000059605
sYyD0vbc,NA,NA,sYyD0vbc,2020-0188,2021-10-04,19:09:01,20:20:25,NA,incomplete,false,NA,true,2,25,NA,NA,right,NA,NA,a_2_008.jpg,a_2_003.jpg,within,NA,NaN,NA,right,1879.800000011921,1,1,1293.0999999940395
sYyD0vbc,NA,NA,sYyD0vbc,2020-0188,2021-10-04,19:09:01,20:20:25,NA,incomplete,false,NA,true,2,26,NA,NA,left,NA,NA,a_2_021.jpg,i_s_003.jpg,between-big,NA,NaN,NA,left,2153.4000000059605,1,2,1147.9000000059605
sYyD0vbc,NA,NA,sYyD0vbc,2020-0188,2021-10-04,19:09:01,20:20:25,NA,incomplete,false,true,NA,3,0,size,m_l_016.jpg,right,small,large,NA,NA,NA,right,2261.59999999404,true,NA,NA,NA,NA,NA
sYyD0vbc,NA,NA,sYyD0vbc,2020-0188,2021-10-04,19:09:01,20:20:25,NA,incomplete,false,true,NA,3,1,size,m_s_004.jpg,right,large,small,NA,NA,NA,right,1747.59999999404,true,NA,NA,NA,NA,NA
sYyD0vbc,NA,NA,sYyD0vbc,2020-0188,2021-10-04,19:09:01,20:20:25,NA,incomplete,false,true,NA,3,2,size,m_l_014.jpg,left,large,small,NA,NA,NA,left,1391.60000002384,true,NA,NA,NA,NA,NA
sYyD0vbc,NA,NA,sYyD0vbc,2020-0188,2021-10-04,19:09:01,20:20:25,NA,incomplete,false,true,NA,3,3,size,m_s_018.jpg,left,small,large,NA,NA,NA,left,2075.80000001192,true,NA,NA,NA,NA,NA
sYyD0vbc,NA,NA,sYyD0vbc,2020-0188,2021-10-04,19:09:01,20:20:25,NA,incomplete,false,true,NA,3,4,size,m_s_003.jpg,left,small,large,NA,NA,NA,left,1218.70000001788,true,NA,NA,NA,NA,NA
sYyD0vbc,NA,NA,sYyD0vbc,2020-0188,2021-10-04,19:09:01,20:20:25,NA,incomplete,false,true,NA,3,5,origin,n_l_023.jpg,left,natural,manmade,NA,NA,NA,left,2304.40000000596,true,NA,NA,NA,NA,NA
sYyD0vbc,NA,NA,sYyD0vbc,2020-0188,2021-10-04,19:09:01,20:20:25,NA,incomplete,false,true,NA,3,6,origin,n_l_021.jpg,left,natural,manmade,NA,NA,NA,left,1572.40000000596,true,NA,NA,NA,NA,NA
sYyD0vbc,NA,NA,sYyD0vbc,2020-0188,2021-10-04,19:09:01,20:20:25,NA,incomplete,false,true,NA,3,7,origin,m_l_018.jpg,right,natural,manmade,NA,NA,NA,right,937.59999999404,true,NA,NA,NA,NA,NA
sYyD0vbc,NA,NA,sYyD0vbc,2020-0188,2021-10-04,19:09:01,20:20:25,NA,incomplete,false,true,NA,3,8,origin,m_l_026.jpg,left,manmade,natural,NA,NA,NA,left,1602.69999998808,true,NA,NA,NA,NA,NA
sYyD0vbc,NA,NA,sYyD0vbc,2020-0188,2021-10-04,19:09:01,20:20:25,NA,incomplete,false,true,NA,3,9,origin,n_l_013.jpg,right,manmade,natural,NA,NA,NA,right,1524.69999998808,true,NA,NA,NA,NA,NA
sYyD0vbc,NA,NA,sYyD0vbc,2020-0188,2021-10-04,19:09:01,20:20:25,NA,incomplete,false,true,NA,3,10,building,o_c_004.jpg,right,skyscraper,cottage,NA,NA,NA,right,2000.40000000596,true,NA,NA,NA,NA,NA
sYyD0vbc,NA,NA,sYyD0vbc,2020-0188,2021-10-04,19:09:01,20:20:25,NA,incomplete,false,true,NA,3,11,building,i_s_023.jpg,right,cottage,skyscraper,NA,NA,NA,right,1537.60000002384,true,NA,NA,NA,NA,NA
sYyD0vbc,NA,NA,sYyD0vbc,2020-0188,2021-10-04,19:09:01,20:20:25,NA,incomplete,false,true,NA,3,12,building,o_c_022.jpg,left,cottage,skyscraper,NA,NA,NA,left,1000.90000000596,true,NA,NA,NA,NA,NA
sYyD0vbc,NA,NA,sYyD0vbc,2020-0188,2021-10-04,19:09:01,20:20:25,NA,incomplete,false,true,NA,3,13,building,o_s_021.jpg,right,cottage,skyscraper,NA,NA,NA,left,1543.09999999404,false,NA,NA,NA,NA,NA
sYyD0vbc,NA,NA,sYyD0vbc,2020-0188,2021-10-04,19:09:01,20:20:25,NA,incomplete,false,true,NA,3,14,building,o_s_011.jpg,left,skyscraper,cottage,NA,NA,NA,left,1843.19999998808,true,NA,NA,NA,NA,NA
sYyD0vbc,NA,NA,sYyD0vbc,2020-0188,2021-10-04,19:09:01,20:20:25,NA,incomplete,false,true,NA,3,15,location,o_c_005.jpg,left,outdoor,indoor,NA,NA,NA,left,1394.20000001788,true,NA,NA,NA,NA,NA
sYyD0vbc,NA,NA,sYyD0vbc,2020-0188,2021-10-04,19:09:01,20:20:25,NA,incomplete,false,true,NA,3,16,location,i_c_021.jpg,left,indoor,outdoor,NA,NA,NA,left,1330.40000000596,true,NA,NA,NA,NA,NA
sYyD0vbc,NA,NA,sYyD0vbc,2020-0188,2021-10-04,19:09:01,20:20:25,NA,incomplete,false,true,NA,3,17,location,i_s_026.jpg,right,outdoor,indoor,NA,NA,NA,right,1405.20000001788,true,NA,NA,NA,NA,NA
sYyD0vbc,NA,NA,sYyD0vbc,2020-0188,2021-10-04,19:09:01,20:20:25,NA,incomplete,false,true,NA,3,18,location,i_s_027.jpg,right,outdoor,indoor,NA,NA,NA,right,1499.79999998212,true,NA,NA,NA,NA,NA
sYyD0vbc,NA,NA,sYyD0vbc,2020-0188,2021-10-04,19:09:01,20:20:25,NA,incomplete,false,true,NA,3,19,location,i_c_017.jpg,left,indoor,outdoor,NA,NA,NA,left,1326.40000000596,true,NA,NA,NA,NA,NA
sYyD0vbc,NA,NA,sYyD0vbc,2020-0188,2021-10-04,19:09:01,20:20:25,NA,incomplete,false,true,NA,3,20,syllable,a_1_009.jpg,right,2 syllables,1 syllable,NA,NA,NA,right,1393.90000000596,true,NA,NA,NA,NA,NA
sYyD0vbc,NA,NA,sYyD0vbc,2020-0188,2021-10-04,19:09:01,20:20:25,NA,incomplete,false,true,NA,3,21,syllable,c_2_001.jpg,right,1 syllable,2 syllables,NA,NA,NA,right,1217.20000001788,true,NA,NA,NA,NA,NA
sYyD0vbc,NA,NA,sYyD0vbc,2020-0188,2021-10-04,19:09:01,20:20:25,NA,incomplete,false,true,NA,3,22,syllable,c_1_019.jpg,right,1 syllable,2 syllables,NA,NA,NA,left,1928.90000000596,false,NA,NA,NA,NA,NA
sYyD0vbc,NA,NA,sYyD0vbc,2020-0188,2021-10-04,19:09:01,20:20:25,NA,incomplete,false,true,NA,3,23,syllable,c_1_010.jpg,right,1 syllable,2 syllables,NA,NA,NA,left,1386,false,NA,NA,NA,NA,NA
sYyD0vbc,NA,NA,sYyD0vbc,2020-0188,2021-10-04,19:09:01,20:20:25,NA,incomplete,false,true,NA,3,24,syllable,a_2_027.jpg,right,1 syllable,2 syllables,NA,NA,NA,right,1175.09999999404,true,NA,NA,NA,NA,NA
sYyD0vbc,NA,NA,sYyD0vbc,2020-0188,2021-10-04,19:09:01,20:20:25,NA,incomplete,false,true,NA,3,25,abstractness,a_1_021.jpg,left,abstract,concrete,NA,NA,NA,left,2781.20000001788,true,NA,NA,NA,NA,NA
sYyD0vbc,NA,NA,sYyD0vbc,2020-0188,2021-10-04,19:09:01,20:20:25,NA,incomplete,false,true,NA,3,26,abstractness,c_1_018.jpg,left,concrete,abstract,NA,NA,NA,left,1149.19999998808,true,NA,NA,NA,NA,NA
sYyD0vbc,NA,NA,sYyD0vbc,2020-0188,2021-10-04,19:09:01,20:20:25,NA,incomplete,false,true,NA,3,27,abstractness,a_2_001.jpg,right,concrete,abstract,NA,NA,NA,right,1508.09999999404,true,NA,NA,NA,NA,NA
sYyD0vbc,NA,NA,sYyD0vbc,2020-0188,2021-10-04,19:09:01,20:20:25,NA,incomplete,false,true,NA,3,28,abstractness,a_2_019.jpg,right,concrete,abstract,NA,NA,NA,right,1444.29999998212,true,NA,NA,NA,NA,NA
sYyD0vbc,NA,NA,sYyD0vbc,2020-0188,2021-10-04,19:09:01,20:20:25,NA,incomplete,false,true,NA,3,29,abstractness,c_2_014.jpg,left,concrete,abstract,NA,NA,NA,left,854.700000017881,true,NA,NA,NA,NA,NA
sYyD0vbc,NA,NA,sYyD0vbc,2020-0188,2021-10-04,19:09:01,20:20:25,NA,incomplete,false,NA,true,3,0,NA,NA,right,NA,NA,o_s_011.jpg,i_s_023.jpg,within,NA,NaN,NA,left,3677.0999999940395,0,0,1210
sYyD0vbc,NA,NA,sYyD0vbc,2020-0188,2021-10-04,19:09:01,20:20:25,NA,incomplete,false,NA,true,3,1,NA,NA,left,NA,NA,m_s_018.jpg,n_l_021.jpg,between-small,NA,NaN,NA,right,3324.5,0,1,1992.2000000178814
sYyD0vbc,NA,NA,sYyD0vbc,2020-0188,2021-10-04,19:09:01,20:20:25,NA,incomplete,false,NA,true,3,2,NA,NA,left,NA,NA,c_1_010.jpg,c_1_018.jpg,between-small,NA,NaN,NA,left,2178.300000011921,1,0,1614.3999999761581
sYyD0vbc,NA,NA,sYyD0vbc,2020-0188,2021-10-04,19:09:01,20:20:25,NA,incomplete,false,NA,true,3,3,NA,NA,left,NA,NA,i_s_026.jpg,a_1_009.jpg,between-big,NA,NaN,NA,left,1414.199999988079,1,2,1598.9000000059605
sYyD0vbc,NA,NA,sYyD0vbc,2020-0188,2021-10-04,19:09:01,20:20:25,NA,incomplete,false,NA,true,3,4,NA,NA,right,NA,NA,m_l_018.jpg,m_s_003.jpg,between-small,NA,NaN,NA,right,1703.6000000238419,1,1,1243.5999999940395
sYyD0vbc,NA,NA,sYyD0vbc,2020-0188,2021-10-04,19:09:01,20:20:25,NA,incomplete,false,NA,true,3,5,NA,NA,right,NA,NA,m_l_026.jpg,n_l_023.jpg,within,NA,NaN,NA,right,3189.0999999940395,1,1,1869.300000011921
sYyD0vbc,NA,NA,sYyD0vbc,2020-0188,2021-10-04,19:09:01,20:20:25,NA,incomplete,false,NA,true,3,6,NA,NA,right,NA,NA,n_l_013.jpg,n_l_021.jpg,within,NA,NaN,NA,right,2499.0999999940395,1,1,1131.4000000059605
sYyD0vbc,NA,NA,sYyD0vbc,2020-0188,2021-10-04,19:09:01,20:20:25,NA,incomplete,false,NA,true,3,7,NA,NA,left,NA,NA,o_c_005.jpg,i_s_027.jpg,within,NA,NaN,NA,right,3142.7000000178814,0,2,2256.5
sYyD0vbc,NA,NA,sYyD0vbc,2020-0188,2021-10-04,19:09:01,20:20:25,NA,incomplete,false,NA,true,3,8,NA,NA,right,NA,NA,o_c_022.jpg,n_l_013.jpg,between-big,NA,NaN,NA,right,1366.5,1,1,1011
sYyD0vbc,NA,NA,sYyD0vbc,2020-0188,2021-10-04,19:09:01,20:20:25,NA,incomplete,false,NA,true,3,9,NA,NA,right,NA,NA,o_c_005.jpg,o_c_022.jpg,between-small,NA,NaN,NA,right,26120.80000001192,1,2,2570.0999999940395
sYyD0vbc,NA,NA,sYyD0vbc,2020-0188,2021-10-04,19:09:01,20:20:25,NA,incomplete,false,NA,true,3,10,NA,NA,right,NA,NA,i_s_023.jpg,m_l_026.jpg,between-big,NA,NaN,NA,right,2675.2000000178814,1,3,1059.9000000059605
sYyD0vbc,NA,NA,sYyD0vbc,2020-0188,2021-10-04,19:09:01,20:20:25,NA,incomplete,false,NA,true,3,11,NA,NA,right,NA,NA,o_c_004.jpg,m_l_018.jpg,between-big,NA,NaN,NA,right,881.9000000059605,1,3,1692.1000000238419
sYyD0vbc,NA,NA,sYyD0vbc,2020-0188,2021-10-04,19:09:01,20:20:25,NA,incomplete,false,NA,true,3,12,NA,NA,right,NA,NA,m_s_003.jpg,m_s_004.jpg,within,NA,NaN,NA,left,916,0,2,1033.699999988079
sYyD0vbc,NA,NA,sYyD0vbc,2020-0188,2021-10-04,19:09:01,20:20:25,NA,incomplete,false,NA,true,3,13,NA,NA,right,NA,NA,n_l_023.jpg,m_l_014.jpg,between-small,NA,NaN,NA,left,834.2000000178814,0,2,4048.7999999821186
sYyD0vbc,NA,NA,sYyD0vbc,2020-0188,2021-10-04,19:09:01,20:20:25,NA,incomplete,false,NA,true,3,14,NA,NA,right,NA,NA,o_s_021.jpg,o_c_004.jpg,within,NA,NaN,NA,left,3182,0,2,858.5999999940395
sYyD0vbc,NA,NA,sYyD0vbc,2020-0188,2021-10-04,19:09:01,20:20:25,NA,incomplete,false,NA,true,3,15,NA,NA,left,NA,NA,i_c_017.jpg,c_1_019.jpg,between-big,NA,NaN,NA,left,2362.5,1,2,1404.9000000059605
sYyD0vbc,NA,NA,sYyD0vbc,2020-0188,2021-10-04,19:09:01,20:20:25,NA,incomplete,false,NA,true,3,16,NA,NA,right,NA,NA,a_2_027.jpg,c_2_001.jpg,within,NA,NaN,NA,left,2949.5999999940395,0,1,1301.7000000178814
sYyD0vbc,NA,NA,sYyD0vbc,2020-0188,2021-10-04,19:09:01,20:20:25,NA,incomplete,false,NA,true,3,17,NA,NA,right,NA,NA,a_2_001.jpg,a_2_027.jpg,between-small,NA,NaN,NA,right,1920.4000000059605,1,2,1476.7000000178814
sYyD0vbc,NA,NA,sYyD0vbc,2020-0188,2021-10-04,19:09:01,20:20:25,NA,incomplete,false,NA,true,3,18,NA,NA,right,NA,NA,i_s_026.jpg,o_s_011.jpg,between-small,NA,NaN,NA,right,2402,1,2,2023.5
sYyD0vbc,NA,NA,sYyD0vbc,2020-0188,2021-10-04,19:09:01,20:20:25,NA,incomplete,false,NA,true,3,19,NA,NA,right,NA,NA,a_1_021.jpg,c_1_019.jpg,between-small,NA,NaN,NA,right,1832,1,1,2063.5999999940395
sYyD0vbc,NA,NA,sYyD0vbc,2020-0188,2021-10-04,19:09:01,20:20:25,NA,incomplete,false,NA,true,3,20,NA,NA,right,NA,NA,c_2_001.jpg,i_s_027.jpg,between-big,NA,NaN,NA,right,1470.0999999940395,1,2,1517
sYyD0vbc,NA,NA,sYyD0vbc,2020-0188,2021-10-04,19:09:01,20:20:25,NA,incomplete,false,NA,true,3,21,NA,NA,left,NA,NA,c_1_018.jpg,c_2_014.jpg,within,NA,NaN,NA,right,2588.2999999821186,0,2,922.1999999880791
sYyD0vbc,NA,NA,sYyD0vbc,2020-0188,2021-10-04,19:09:01,20:20:25,NA,incomplete,false,NA,true,3,22,NA,NA,left,NA,NA,a_1_021.jpg,a_2_019.jpg,within,NA,NaN,NA,left,1143.800000011921,1,1,2313.600000023842
sYyD0vbc,NA,NA,sYyD0vbc,2020-0188,2021-10-04,19:09:01,20:20:25,NA,incomplete,false,NA,true,3,23,NA,NA,left,NA,NA,a_1_009.jpg,c_1_010.jpg,within,NA,NaN,NA,left,1401.9000000059605,1,2,1256.5
sYyD0vbc,NA,NA,sYyD0vbc,2020-0188,2021-10-04,19:09:01,20:20:25,NA,incomplete,false,NA,true,3,24,NA,NA,right,NA,NA,m_s_018.jpg,m_l_016.jpg,within,NA,NaN,NA,left,962.0999999940395,0,1,3339.4000000059605
sYyD0vbc,NA,NA,sYyD0vbc,2020-0188,2021-10-04,19:09:01,20:20:25,NA,incomplete,false,NA,true,3,25,NA,NA,right,NA,NA,i_c_017.jpg,i_c_021.jpg,within,NA,NaN,NA,left,1019,0,1,1341.699999988079
sYyD0vbc,NA,NA,sYyD0vbc,2020-0188,2021-10-04,19:09:01,20:20:25,NA,incomplete,false,NA,true,3,26,NA,NA,left,NA,NA,o_s_021.jpg,i_c_021.jpg,between-small,NA,NaN,NA,left,1005.0999999940395,1,2,1301.6000000238419
sYyD0vbc,NA,NA,sYyD0vbc,2020-0188,2021-10-04,19:09:01,20:20:25,NA,incomplete,false,true,NA,4,0,origin,m_s_014.jpg,left,manmade,natural,NA,NA,NA,left,2490.09999999404,true,NA,NA,NA,NA,NA
sYyD0vbc,NA,NA,sYyD0vbc,2020-0188,2021-10-04,19:09:01,20:20:25,NA,incomplete,false,true,NA,4,1,origin,n_s_015.jpg,left,natural,manmade,NA,NA,NA,left,1481.09999999404,true,NA,NA,NA,NA,NA
sYyD0vbc,NA,NA,sYyD0vbc,2020-0188,2021-10-04,19:09:01,20:20:25,NA,incomplete,false,true,NA,4,2,origin,m_l_021.jpg,left,manmade,natural,NA,NA,NA,left,854.600000023842,true,NA,NA,NA,NA,NA
sYyD0vbc,NA,NA,sYyD0vbc,2020-0188,2021-10-04,19:09:01,20:20:25,NA,incomplete,false,true,NA,4,3,origin,m_s_008.jpg,right,natural,manmade,NA,NA,NA,right,1386.20000001788,true,NA,NA,NA,NA,NA
sYyD0vbc,NA,NA,sYyD0vbc,2020-0188,2021-10-04,19:09:01,20:20:25,NA,incomplete,false,true,NA,4,4,origin,n_l_024.jpg,left,natural,manmade,NA,NA,NA,left,832.09999999404,true,NA,NA,NA,NA,NA
sYyD0vbc,NA,NA,sYyD0vbc,2020-0188,2021-10-04,19:09:01,20:20:25,NA,incomplete,false,true,NA,4,5,size,n_l_028.jpg,right,small,large,NA,NA,NA,right,1268.40000000596,true,NA,NA,NA,NA,NA
sYyD0vbc,NA,NA,sYyD0vbc,2020-0188,2021-10-04,19:09:01,20:20:25,NA,incomplete,false,true,NA,4,6,size,m_l_013.jpg,left,large,small,NA,NA,NA,left,1560.90000000596,true,NA,NA,NA,NA,NA
sYyD0vbc,NA,NA,sYyD0vbc,2020-0188,2021-10-04,19:09:01,20:20:25,NA,incomplete,false,true,NA,4,7,size,m_s_021.jpg,left,small,large,NA,NA,NA,left,1261.70000001788,true,NA,NA,NA,NA,NA
sYyD0vbc,NA,NA,sYyD0vbc,2020-0188,2021-10-04,19:09:01,20:20:25,NA,incomplete,false,true,NA,4,8,size,m_s_026.jpg,right,large,small,NA,NA,NA,right,1427.09999999404,true,NA,NA,NA,NA,NA
sYyD0vbc,NA,NA,sYyD0vbc,2020-0188,2021-10-04,19:09:01,20:20:25,NA,incomplete,false,true,NA,4,9,size,m_l_008.jpg,right,small,large,NA,NA,NA,right,1563.29999998212,true,NA,NA,NA,NA,NA
sYyD0vbc,NA,NA,sYyD0vbc,2020-0188,2021-10-04,19:09:01,20:20:25,NA,incomplete,false,true,NA,4,10,syllable,c_1_026.jpg,right,2 syllables,1 syllable,NA,NA,NA,right,1337.90000000596,true,NA,NA,NA,NA,NA
sYyD0vbc,NA,NA,sYyD0vbc,2020-0188,2021-10-04,19:09:01,20:20:25,NA,incomplete,false,true,NA,4,11,syllable,a_2_016.jpg,right,2 syllables,1 syllable,NA,NA,NA,left,1137.10000002384,false,NA,NA,NA,NA,NA
sYyD0vbc,NA,NA,sYyD0vbc,2020-0188,2021-10-04,19:09:01,20:20:25,NA,incomplete,false,true,NA,4,12,syllable,a_1_006.jpg,right,1 syllable,2 syllables,NA,NA,NA,left,2271,false,NA,NA,NA,NA,NA
sYyD0vbc,NA,NA,sYyD0vbc,2020-0188,2021-10-04,19:09:01,20:20:25,NA,incomplete,false,true,NA,4,13,syllable,c_2_025.jpg,right,1 syllable,2 syllables,NA,NA,NA,left,1655.70000001788,false,NA,NA,NA,NA,NA
sYyD0vbc,NA,NA,sYyD0vbc,2020-0188,2021-10-04,19:09:01,20:20:25,NA,incomplete,false,true,NA,4,14,syllable,c_1_004.jpg,right,2 syllables,1 syllable,NA,NA,NA,right,1674.20000001788,true,NA,NA,NA,NA,NA
sYyD0vbc,NA,NA,sYyD0vbc,2020-0188,2021-10-04,19:09:01,20:20:25,NA,incomplete,false,true,NA,4,15,abstractness,a_2_028.jpg,left,abstract,concrete,NA,NA,NA,left,2901.30000001192,true,NA,NA,NA,NA,NA
sYyD0vbc,NA,NA,sYyD0vbc,2020-0188,2021-10-04,19:09:01,20:20:25,NA,incomplete,false,true,NA,4,16,abstractness,a_1_014.jpg,right,concrete,abstract,NA,NA,NA,right,2000.09999999404,true,NA,NA,NA,NA,NA
sYyD0vbc,NA,NA,sYyD0vbc,2020-0188,2021-10-04,19:09:01,20:20:25,NA,incomplete,false,true,NA,4,17,abstractness,a_1_007.jpg,right,concrete,abstract,NA,NA,NA,none,0,false,NA,NA,NA,NA,NA
sYyD0vbc,NA,NA,sYyD0vbc,2020-0188,2021-10-04,19:09:01,20:20:25,NA,incomplete,false,true,NA,4,18,abstractness,a_1_026.jpg,left,abstract,concrete,NA,NA,NA,left,2519.90000000596,true,NA,NA,NA,NA,NA
sYyD0vbc,NA,NA,sYyD0vbc,2020-0188,2021-10-04,19:09:01,20:20:25,NA,incomplete,false,true,NA,4,19,abstractness,c_1_027.jpg,left,concrete,abstract,NA,NA,NA,left,1978.79999998212,true,NA,NA,NA,NA,NA
sYyD0vbc,NA,NA,sYyD0vbc,2020-0188,2021-10-04,19:09:01,20:20:25,NA,incomplete,false,true,NA,4,20,location,o_s_001.jpg,left,outdoor,indoor,NA,NA,NA,left,1474.89999997616,true,NA,NA,NA,NA,NA
sYyD0vbc,NA,NA,sYyD0vbc,2020-0188,2021-10-04,19:09:01,20:20:25,NA,incomplete,false,true,NA,4,21,location,i_c_016.jpg,left,indoor,outdoor,NA,NA,NA,left,1332.30000001192,true,NA,NA,NA,NA,NA
sYyD0vbc,NA,NA,sYyD0vbc,2020-0188,2021-10-04,19:09:01,20:20:25,NA,incomplete,false,true,NA,4,22,location,o_c_020.jpg,right,indoor,outdoor,NA,NA,NA,right,1320.29999998212,true,NA,NA,NA,NA,NA
sYyD0vbc,NA,NA,sYyD0vbc,2020-0188,2021-10-04,19:09:01,20:20:25,NA,incomplete,false,true,NA,4,23,location,i_c_019.jpg,right,outdoor,indoor,NA,NA,NA,right,1365,true,NA,NA,NA,NA,NA
sYyD0vbc,NA,NA,sYyD0vbc,2020-0188,2021-10-04,19:09:01,20:20:25,NA,incomplete,false,true,NA,4,24,location,i_s_012.jpg,right,outdoor,indoor,NA,NA,NA,right,1306.40000000596,true,NA,NA,NA,NA,NA
sYyD0vbc,NA,NA,sYyD0vbc,2020-0188,2021-10-04,19:09:01,20:20:25,NA,incomplete,false,true,NA,4,25,building,o_s_022.jpg,left,skyscraper,cottage,NA,NA,NA,left,2120.89999997616,true,NA,NA,NA,NA,NA
sYyD0vbc,NA,NA,sYyD0vbc,2020-0188,2021-10-04,19:09:01,20:20:25,NA,incomplete,false,true,NA,4,26,building,i_s_022.jpg,left,skyscraper,cottage,NA,NA,NA,left,1846.70000001788,true,NA,NA,NA,NA,NA
sYyD0vbc,NA,NA,sYyD0vbc,2020-0188,2021-10-04,19:09:01,20:20:25,NA,incomplete,false,true,NA,4,27,building,o_s_014.jpg,left,skyscraper,cottage,NA,NA,NA,left,1137,true,NA,NA,NA,NA,NA
sYyD0vbc,NA,NA,sYyD0vbc,2020-0188,2021-10-04,19:09:01,20:20:25,NA,incomplete,false,true,NA,4,28,building,o_c_027.jpg,left,cottage,skyscraper,NA,NA,NA,left,1002.79999998212,true,NA,NA,NA,NA,NA
sYyD0vbc,NA,NA,sYyD0vbc,2020-0188,2021-10-04,19:09:01,20:20:25,NA,incomplete,false,true,NA,4,29,building,o_s_017.jpg,right,cottage,skyscraper,NA,NA,NA,right,2011.80000001192,true,NA,NA,NA,NA,NA
sYyD0vbc,NA,NA,sYyD0vbc,2020-0188,2021-10-04,19:09:01,20:20:25,NA,incomplete,false,NA,true,4,0,NA,NA,left,NA,NA,o_c_020.jpg,o_s_022.jpg,between-small,NA,NaN,NA,right,1842.300000011921,0,1,2462.5999999940395
sYyD0vbc,NA,NA,sYyD0vbc,2020-0188,2021-10-04,19:09:01,20:20:25,NA,incomplete,false,NA,true,4,1,NA,NA,left,NA,NA,c_2_025.jpg,a_1_014.jpg,between-small,NA,NaN,NA,right,1692.9000000059605,0,1,6020.9000000059605
sYyD0vbc,NA,NA,sYyD0vbc,2020-0188,2021-10-04,19:09:01,20:20:25,NA,incomplete,false,NA,true,4,2,NA,NA,right,NA,NA,m_l_008.jpg,m_l_013.jpg,within,NA,NaN,NA,right,2520.699999988079,1,2,1907.1000000238419
sYyD0vbc,NA,NA,sYyD0vbc,2020-0188,2021-10-04,19:09:01,20:20:25,NA,incomplete,false,NA,true,4,3,NA,NA,left,NA,NA,i_c_019.jpg,i_s_022.jpg,between-small,NA,NaN,NA,left,1478,1,1,1831.9000000059605
sYyD0vbc,NA,NA,sYyD0vbc,2020-0188,2021-10-04,19:09:01,20:20:25,NA,incomplete,false,NA,true,4,4,NA,NA,right,NA,NA,o_c_020.jpg,c_1_027.jpg,between-big,NA,NaN,NA,left,3125,0,2,930.5
sYyD0vbc,NA,NA,sYyD0vbc,2020-0188,2021-10-04,19:09:01,20:20:25,NA,incomplete,false,NA,true,4,5,NA,NA,right,NA,NA,a_1_006.jpg,m_l_008.jpg,between-big,NA,NaN,NA,left,5383.199999988079,0,1,1918.800000011921
sYyD0vbc,NA,NA,sYyD0vbc,2020-0188,2021-10-04,19:09:01,20:20:25,NA,incomplete,false,NA,true,4,6,NA,NA,left,NA,NA,a_1_026.jpg,i_c_016.jpg,between-big,NA,NaN,NA,left,754.6999999880791,1,2,5841.0999999940395
sYyD0vbc,NA,NA,sYyD0vbc,2020-0188,2021-10-04,19:09:01,20:20:25,NA,incomplete,false,NA,true,4,7,NA,NA,right,NA,NA,c_1_026.jpg,m_s_021.jpg,between-big,NA,NaN,NA,right,1004.1999999880791,1,2,1307.5999999940395
sYyD0vbc,NA,NA,sYyD0vbc,2020-0188,2021-10-04,19:09:01,20:20:25,NA,incomplete,false,NA,true,4,8,NA,NA,right,NA,NA,a_1_007.jpg,c_1_004.jpg,between-small,NA,NaN,NA,left,796.8000000119209,0,1,1284.5
sYyD0vbc,NA,NA,sYyD0vbc,2020-0188,2021-10-04,19:09:01,20:20:25,NA,incomplete,false,NA,true,4,9,NA,NA,left,NA,NA,o_s_022.jpg,o_c_027.jpg,within,NA,NaN,NA,left,1293.5999999940395,1,1,1219
sYyD0vbc,NA,NA,sYyD0vbc,2020-0188,2021-10-04,19:09:01,20:20:25,NA,incomplete,false,NA,true,4,10,NA,NA,right,NA,NA,m_l_013.jpg,m_s_008.jpg,between-small,NA,NaN,NA,right,770.9000000059605,1,1,986.4000000059605
sYyD0vbc,NA,NA,sYyD0vbc,2020-0188,2021-10-04,19:09:01,20:20:25,NA,incomplete,false,NA,true,4,11,NA,NA,left,NA,NA,a_1_006.jpg,a_2_028.jpg,between-small,NA,NaN,NA,left,643.5,1,2,1018.0999999940395
sYyD0vbc,NA,NA,sYyD0vbc,2020-0188,2021-10-04,19:09:01,20:20:25,NA,incomplete,false,NA,true,4,12,NA,NA,left,NA,NA,a_1_014.jpg,c_1_027.jpg,within,NA,NaN,NA,left,601.5999999940395,1,1,1204.0999999940395
sYyD0vbc,NA,NA,sYyD0vbc,2020-0188,2021-10-04,19:09:01,20:20:25,NA,incomplete,false,NA,true,4,13,NA,NA,right,NA,NA,o_s_001.jpg,a_1_007.jpg,between-big,NA,NaN,NA,left,754.0999999940395,0,1,1034.5
sYyD0vbc,NA,NA,sYyD0vbc,2020-0188,2021-10-04,19:09:01,20:20:25,NA,incomplete,false,NA,true,4,14,NA,NA,right,NA,NA,o_s_017.jpg,i_s_022.jpg,within,NA,NaN,NA,right,520.1999999880791,1,2,2089.5999999940395
sYyD0vbc,NA,NA,sYyD0vbc,2020-0188,2021-10-04,19:09:01,20:20:25,NA,incomplete,false,NA,true,4,15,NA,NA,right,NA,NA,a_1_026.jpg,a_2_028.jpg,within,NA,NaN,NA,left,551.2999999821186,0,1,3438.5999999940395
sYyD0vbc,NA,NA,sYyD0vbc,2020-0188,2021-10-04,19:09:01,20:20:25,NA,incomplete,false,NA,true,4,16,NA,NA,right,NA,NA,c_2_025.jpg,c_1_026.jpg,within,NA,NaN,NA,left,715.9000000059605,0,2,810
sYyD0vbc,NA,NA,sYyD0vbc,2020-0188,2021-10-04,19:09:01,20:20:25,NA,incomplete,false,NA,true,4,17,NA,NA,right,NA,NA,a_2_016.jpg,m_s_026.jpg,between-big,NA,NaN,NA,right,1470.0999999940395,1,2,3245.2000000178814
sYyD0vbc,NA,NA,sYyD0vbc,2020-0188,2021-10-04,19:09:01,20:20:25,NA,incomplete,false,NA,true,4,18,NA,NA,right,NA,NA,o_s_014.jpg,i_s_012.jpg,between-small,NA,NaN,NA,left,867.5999999940395,0,1,2377.2999999821186
sYyD0vbc,NA,NA,sYyD0vbc,2020-0188,2021-10-04,19:09:01,20:20:25,NA,incomplete,false,NA,true,4,19,NA,NA,right,NA,NA,i_s_012.jpg,i_c_016.jpg,within,NA,NaN,NA,right,1147.5,1,2,1050.7000000178814
sYyD0vbc,NA,NA,sYyD0vbc,2020-0188,2021-10-04,19:09:01,20:20:25,NA,incomplete,false,NA,true,4,20,NA,NA,right,NA,NA,m_s_026.jpg,n_l_028.jpg,within,NA,NaN,NA,right,2996.5999999940395,1,2,1163.3999999761581
sYyD0vbc,NA,NA,sYyD0vbc,2020-0188,2021-10-04,19:09:01,20:20:25,NA,incomplete,false,NA,true,4,21,NA,NA,right,NA,NA,m_s_008.jpg,m_s_014.jpg,within,NA,NaN,NA,right,3879.800000011921,1,1,1292.5999999940395
sYyD0vbc,NA,NA,sYyD0vbc,2020-0188,2021-10-04,19:09:01,20:20:25,NA,incomplete,false,NA,true,4,22,NA,NA,left,NA,NA,o_s_001.jpg,i_c_019.jpg,within,NA,NaN,NA,left,713.5,1,1,3897.0999999940395
sYyD0vbc,NA,NA,sYyD0vbc,2020-0188,2021-10-04,19:09:01,20:20:25,NA,incomplete,false,NA,true,4,23,NA,NA,left,NA,NA,n_s_015.jpg,n_l_024.jpg,within,NA,NaN,NA,left,883,1,2,1235.699999988079
sYyD0vbc,NA,NA,sYyD0vbc,2020-0188,2021-10-04,19:09:01,20:20:25,NA,incomplete,false,NA,true,4,24,NA,NA,right,NA,NA,n_l_028.jpg,m_l_021.jpg,between-small,NA,NaN,NA,right,1486,1,1,1734.4000000059605
sYyD0vbc,NA,NA,sYyD0vbc,2020-0188,2021-10-04,19:09:01,20:20:25,NA,incomplete,false,NA,true,4,25,NA,NA,left,NA,NA,n_l_024.jpg,m_s_021.jpg,between-small,NA,NaN,NA,left,1589.7999999821186,1,1,1315.199999988079
sYyD0vbc,NA,NA,sYyD0vbc,2020-0188,2021-10-04,19:09:01,20:20:25,NA,incomplete,false,NA,true,4,26,NA,NA,left,NA,NA,a_2_016.jpg,c_1_004.jpg,within,NA,NaN,NA,left,1831.7000000178814,1,2,1228.6000000238419
sYyD0vbc,NA,NA,sYyD0vbc,2020-0188,2021-10-04,19:09:01,20:20:25,NA,incomplete,false,true,NA,5,0,location,i_c_008.jpg,left,indoor,outdoor,NA,NA,NA,left,2465.70000001788,true,NA,NA,NA,NA,NA
sYyD0vbc,NA,NA,sYyD0vbc,2020-0188,2021-10-04,19:09:01,20:20:25,NA,incomplete,false,true,NA,5,1,location,i_s_011.jpg,right,outdoor,indoor,NA,NA,NA,right,979.700000017881,true,NA,NA,NA,NA,NA
sYyD0vbc,NA,NA,sYyD0vbc,2020-0188,2021-10-04,19:09:01,20:20:25,NA,incomplete,false,true,NA,5,2,location,i_s_021.jpg,left,indoor,outdoor,NA,NA,NA,left,926.59999999404,true,NA,NA,NA,NA,NA
sYyD0vbc,NA,NA,sYyD0vbc,2020-0188,2021-10-04,19:09:01,20:20:25,NA,incomplete,false,true,NA,5,3,location,i_c_015.jpg,right,outdoor,indoor,NA,NA,NA,right,726.699999988079,true,NA,NA,NA,NA,NA
sYyD0vbc,NA,NA,sYyD0vbc,2020-0188,2021-10-04,19:09:01,20:20:25,NA,incomplete,false,true,NA,5,4,location,i_c_023.jpg,left,indoor,outdoor,NA,NA,NA,left,1034.29999998212,true,NA,NA,NA,NA,NA
sYyD0vbc,NA,NA,sYyD0vbc,2020-0188,2021-10-04,19:09:01,20:20:25,NA,incomplete,false,true,NA,5,5,building,i_c_007.jpg,left,cottage,skyscraper,NA,NA,NA,left,1365.40000000596,true,NA,NA,NA,NA,NA
sYyD0vbc,NA,NA,sYyD0vbc,2020-0188,2021-10-04,19:09:01,20:20:25,NA,incomplete,false,true,NA,5,6,building,i_c_009.jpg,right,skyscraper,cottage,NA,NA,NA,right,1115.40000000596,true,NA,NA,NA,NA,NA
sYyD0vbc,NA,NA,sYyD0vbc,2020-0188,2021-10-04,19:09:01,20:20:25,NA,incomplete,false,true,NA,5,7,building,o_s_013.jpg,right,cottage,skyscraper,NA,NA,NA,right,1997,true,NA,NA,NA,NA,NA
sYyD0vbc,NA,NA,sYyD0vbc,2020-0188,2021-10-04,19:09:01,20:20:25,NA,incomplete,false,true,NA,5,8,building,o_c_019.jpg,right,skyscraper,cottage,NA,NA,NA,right,1040.80000001192,true,NA,NA,NA,NA,NA
sYyD0vbc,NA,NA,sYyD0vbc,2020-0188,2021-10-04,19:09:01,20:20:25,NA,incomplete,false,true,NA,5,9,building,i_c_012.jpg,right,skyscraper,cottage,NA,NA,NA,right,1449.69999998808,true,NA,NA,NA,NA,NA
sYyD0vbc,NA,NA,sYyD0vbc,2020-0188,2021-10-04,19:09:01,20:20:25,NA,incomplete,false,true,NA,5,10,syllable,a_2_013.jpg,right,1 syllable,2 syllables,NA,NA,NA,right,1400.40000000596,true,NA,NA,NA,NA,NA
sYyD0vbc,NA,NA,sYyD0vbc,2020-0188,2021-10-04,19:09:01,20:20:25,NA,incomplete,false,true,NA,5,11,syllable,a_2_006.jpg,right,1 syllable,2 syllables,NA,NA,NA,right,780.300000011921,true,NA,NA,NA,NA,NA
sYyD0vbc,NA,NA,sYyD0vbc,2020-0188,2021-10-04,19:09:01,20:20:25,NA,incomplete,false,true,NA,5,12,syllable,c_2_027.jpg,right,1 syllable,2 syllables,NA,NA,NA,right,783.90000000596,true,NA,NA,NA,NA,NA
sYyD0vbc,NA,NA,sYyD0vbc,2020-0188,2021-10-04,19:09:01,20:20:25,NA,incomplete,false,true,NA,5,13,syllable,a_1_004.jpg,right,1 syllable,2 syllables,NA,NA,NA,left,892.700000017881,false,NA,NA,NA,NA,NA
sYyD0vbc,NA,NA,sYyD0vbc,2020-0188,2021-10-04,19:09:01,20:20:25,NA,incomplete,false,true,NA,5,14,syllable,c_1_022.jpg,right,2 syllables,1 syllable,NA,NA,NA,right,1723.09999999404,true,NA,NA,NA,NA,NA
sYyD0vbc,NA,NA,sYyD0vbc,2020-0188,2021-10-04,19:09:01,20:20:25,NA,incomplete,false,true,NA,5,15,abstractness,a_1_027.jpg,right,concrete,abstract,NA,NA,NA,right,3066.89999997616,true,NA,NA,NA,NA,NA
sYyD0vbc,NA,NA,sYyD0vbc,2020-0188,2021-10-04,19:09:01,20:20:25,NA,incomplete,false,true,NA,5,16,abstractness,c_1_013.jpg,left,concrete,abstract,NA,NA,NA,left,815,true,NA,NA,NA,NA,NA
sYyD0vbc,NA,NA,sYyD0vbc,2020-0188,2021-10-04,19:09:01,20:20:25,NA,incomplete,false,true,NA,5,17,abstractness,c_1_020.jpg,right,abstract,concrete,NA,NA,NA,right,2196.19999998808,true,NA,NA,NA,NA,NA
sYyD0vbc,NA,NA,sYyD0vbc,2020-0188,2021-10-04,19:09:01,20:20:25,NA,incomplete,false,true,NA,5,18,abstractness,a_1_012.jpg,left,abstract,concrete,NA,NA,NA,left,934.09999999404,true,NA,NA,NA,NA,NA
sYyD0vbc,NA,NA,sYyD0vbc,2020-0188,2021-10-04,19:09:01,20:20:25,NA,incomplete,false,true,NA,5,19,abstractness,c_2_019.jpg,right,abstract,concrete,NA,NA,NA,right,1202.69999998808,true,NA,NA,NA,NA,NA
sYyD0vbc,NA,NA,sYyD0vbc,2020-0188,2021-10-04,19:09:01,20:20:25,NA,incomplete,false,true,NA,5,20,origin,n_s_022.jpg,right,manmade,natural,NA,NA,NA,right,2146.69999998808,true,NA,NA,NA,NA,NA
sYyD0vbc,NA,NA,sYyD0vbc,2020-0188,2021-10-04,19:09:01,20:20:25,NA,incomplete,false,true,NA,5,21,origin,m_s_025.jpg,left,manmade,natural,NA,NA,NA,left,2591.79999998212,true,NA,NA,NA,NA,NA
sYyD0vbc,NA,NA,sYyD0vbc,2020-0188,2021-10-04,19:09:01,20:20:25,NA,incomplete,false,true,NA,5,22,origin,n_s_009.jpg,left,natural,manmade,NA,NA,NA,left,2394.29999998212,true,NA,NA,NA,NA,NA
sYyD0vbc,NA,NA,sYyD0vbc,2020-0188,2021-10-04,19:09:01,20:20:25,NA,incomplete,false,true,NA,5,23,origin,n_s_006.jpg,right,manmade,natural,NA,NA,NA,right,2368.19999998808,true,NA,NA,NA,NA,NA
sYyD0vbc,NA,NA,sYyD0vbc,2020-0188,2021-10-04,19:09:01,20:20:25,NA,incomplete,false,true,NA,5,24,origin,n_s_011.jpg,right,manmade,natural,NA,NA,NA,right,2188.90000000596,true,NA,NA,NA,NA,NA
sYyD0vbc,NA,NA,sYyD0vbc,2020-0188,2021-10-04,19:09:01,20:20:25,NA,incomplete,false,true,NA,5,25,size,n_s_021.jpg,right,large,small,NA,NA,NA,right,1882.90000000596,true,NA,NA,NA,NA,NA
sYyD0vbc,NA,NA,sYyD0vbc,2020-0188,2021-10-04,19:09:01,20:20:25,NA,incomplete,false,true,NA,5,26,size,n_s_002.jpg,left,small,large,NA,NA,NA,left,1342.69999998808,true,NA,NA,NA,NA,NA
sYyD0vbc,NA,NA,sYyD0vbc,2020-0188,2021-10-04,19:09:01,20:20:25,NA,incomplete,false,true,NA,5,27,size,n_l_020.jpg,right,small,large,NA,NA,NA,right,1602.89999997616,true,NA,NA,NA,NA,NA
sYyD0vbc,NA,NA,sYyD0vbc,2020-0188,2021-10-04,19:09:01,20:20:25,NA,incomplete,false,true,NA,5,28,size,m_s_006.jpg,right,large,small,NA,NA,NA,right,1512.90000000596,true,NA,NA,NA,NA,NA
sYyD0vbc,NA,NA,sYyD0vbc,2020-0188,2021-10-04,19:09:01,20:20:25,NA,incomplete,false,true,NA,5,29,size,m_s_023.jpg,left,small,large,NA,NA,NA,left,2003.19999998808,true,NA,NA,NA,NA,NA
sYyD0vbc,NA,NA,sYyD0vbc,2020-0188,2021-10-04,19:09:01,20:20:25,NA,incomplete,false,NA,true,5,0,NA,NA,right,NA,NA,m_s_023.jpg,n_s_002.jpg,within,NA,NaN,NA,left,7915.9000000059605,0,1,1098
sYyD0vbc,NA,NA,sYyD0vbc,2020-0188,2021-10-04,19:09:01,20:20:25,NA,incomplete,false,NA,true,5,1,NA,NA,left,NA,NA,i_c_009.jpg,i_c_012.jpg,within,NA,NaN,NA,left,9931.699999988079,1,1,1386.7000000178814
sYyD0vbc,NA,NA,sYyD0vbc,2020-0188,2021-10-04,19:09:01,20:20:25,NA,incomplete,false,NA,true,5,2,NA,NA,right,NA,NA,i_c_007.jpg,i_s_021.jpg,between-small,NA,NaN,NA,left,2562.699999988079,0,1,1249.5999999940395
sYyD0vbc,NA,NA,sYyD0vbc,2020-0188,2021-10-04,19:09:01,20:20:25,NA,incomplete,false,NA,true,5,3,NA,NA,left,NA,NA,i_c_007.jpg,o_c_019.jpg,within,NA,NaN,NA,right,1227.5,0,1,1119.800000011921
sYyD0vbc,NA,NA,sYyD0vbc,2020-0188,2021-10-04,19:09:01,20:20:25,NA,incomplete,false,NA,true,5,4,NA,NA,right,NA,NA,n_s_002.jpg,n_s_006.jpg,between-small,NA,NaN,NA,left,2360.800000011921,0,1,1539.2999999821186
sYyD0vbc,NA,NA,sYyD0vbc,2020-0188,2021-10-04,19:09:01,20:20:25,NA,incomplete,false,NA,true,5,5,NA,NA,right,NA,NA,c_1_022.jpg,a_2_006.jpg,within,NA,NaN,NA,right,1727.9000000059605,1,1,962
sYyD0vbc,NA,NA,sYyD0vbc,2020-0188,2021-10-04,19:09:01,20:20:25,NA,incomplete,false,NA,true,5,6,NA,NA,right,NA,NA,n_s_011.jpg,m_s_025.jpg,within,NA,NaN,NA,right,1993,1,2,1067.9000000059605
sYyD0vbc,NA,NA,sYyD0vbc,2020-0188,2021-10-04,19:09:01,20:20:25,NA,incomplete,false,NA,true,5,7,NA,NA,right,NA,NA,n_s_022.jpg,c_1_020.jpg,between-big,NA,NaN,NA,right,6345.699999988079,1,2,1814.2000000178814
sYyD0vbc,NA,NA,sYyD0vbc,2020-0188,2021-10-04,19:09:01,20:20:25,NA,incomplete,false,NA,true,5,8,NA,NA,left,NA,NA,a_2_013.jpg,a_1_004.jpg,within,NA,NaN,NA,right,1510.1000000238419,0,1,1606.9000000059605
sYyD0vbc,NA,NA,sYyD0vbc,2020-0188,2021-10-04,19:09:01,20:20:25,NA,incomplete,false,NA,true,5,9,NA,NA,left,NA,NA,c_1_022.jpg,c_1_020.jpg,between-small,NA,NaN,NA,left,965.7000000178814,1,1,1389.5999999940395
sYyD0vbc,NA,NA,sYyD0vbc,2020-0188,2021-10-04,19:09:01,20:20:25,NA,incomplete,false,NA,true,5,10,NA,NA,right,NA,NA,n_s_009.jpg,c_2_019.jpg,between-big,NA,NaN,NA,right,2756.0999999940395,1,2,1083.5
sYyD0vbc,NA,NA,sYyD0vbc,2020-0188,2021-10-04,19:09:01,20:20:25,NA,incomplete,false,NA,true,5,11,NA,NA,right,NA,NA,n_l_020.jpg,n_s_011.jpg,between-small,NA,NaN,NA,left,2224.800000011921,0,2,847.9000000059605
sYyD0vbc,NA,NA,sYyD0vbc,2020-0188,2021-10-04,19:09:01,20:20:25,NA,incomplete,false,NA,true,5,12,NA,NA,right,NA,NA,c_1_013.jpg,a_1_004.jpg,between-small,NA,NaN,NA,right,784.6999999880791,1,1,1234.4000000059605
sYyD0vbc,NA,NA,sYyD0vbc,2020-0188,2021-10-04,19:09:01,20:20:25,NA,incomplete,false,NA,true,5,13,NA,NA,right,NA,NA,c_2_019.jpg,c_1_013.jpg,within,NA,NaN,NA,left,931.5,0,1,2049.5999999940395
sYyD0vbc,NA,NA,sYyD0vbc,2020-0188,2021-10-04,19:09:01,20:20:25,NA,incomplete,false,NA,true,5,14,NA,NA,left,NA,NA,o_c_019.jpg,a_2_006.jpg,between-big,NA,NaN,NA,left,899.9000000059605,1,2,1002
sYyD0vbc,NA,NA,sYyD0vbc,2020-0188,2021-10-04,19:09:01,20:20:25,NA,incomplete,false,NA,true,5,15,NA,NA,left,NA,NA,i_c_012.jpg,c_2_027.jpg,between-big,NA,NaN,NA,left,826.7999999821186,1,2,994.7000000178814
sYyD0vbc,NA,NA,sYyD0vbc,2020-0188,2021-10-04,19:09:01,20:20:25,NA,incomplete,false,NA,true,5,16,NA,NA,right,NA,NA,n_s_021.jpg,n_s_009.jpg,between-small,NA,NaN,NA,left,1689.7999999821186,0,2,1266.5999999940395
sYyD0vbc,NA,NA,sYyD0vbc,2020-0188,2021-10-04,19:09:01,20:20:25,NA,incomplete,false,NA,true,5,17,NA,NA,right,NA,NA,a_2_013.jpg,o_s_013.jpg,between-big,NA,NaN,NA,right,3899.300000011921,1,2,1123.5999999940395
sYyD0vbc,NA,NA,sYyD0vbc,2020-0188,2021-10-04,19:09:01,20:20:25,NA,incomplete,false,NA,true,5,18,NA,NA,right,NA,NA,n_s_006.jpg,n_s_022.jpg,within,NA,NaN,NA,left,827.6999999880791,0,1,1348.9000000059605
sYyD0vbc,NA,NA,sYyD0vbc,2020-0188,2021-10-04,19:09:01,20:20:25,NA,incomplete,false,NA,true,5,19,NA,NA,left,NA,NA,n_s_021.jpg,m_s_006.jpg,within,NA,NaN,NA,left,746.3000000119209,1,2,1124.5
sYyD0vbc,NA,NA,sYyD0vbc,2020-0188,2021-10-04,19:09:01,20:20:25,NA,incomplete,false,NA,true,5,20,NA,NA,left,NA,NA,i_s_011.jpg,i_c_023.jpg,within,NA,NaN,NA,right,1438.5999999940395,0,1,1212.699999988079
sYyD0vbc,NA,NA,sYyD0vbc,2020-0188,2021-10-04,19:09:01,20:20:25,NA,incomplete,false,NA,true,5,21,NA,NA,left,NA,NA,i_c_015.jpg,i_c_009.jpg,between-small,NA,NaN,NA,left,699.3000000119209,1,1,785.5
sYyD0vbc,NA,NA,sYyD0vbc,2020-0188,2021-10-04,19:09:01,20:20:25,NA,incomplete,false,NA,true,5,22,NA,NA,left,NA,NA,c_2_027.jpg,a_1_027.jpg,between-small,NA,NaN,NA,right,1592.800000011921,0,1,1140.2000000178814
sYyD0vbc,NA,NA,sYyD0vbc,2020-0188,2021-10-04,19:09:01,20:20:25,NA,incomplete,false,NA,true,5,23,NA,NA,left,NA,NA,a_1_012.jpg,m_s_025.jpg,between-big,NA,NaN,NA,left,1991.9000000059605,1,2,1001.4000000059605
sYyD0vbc,NA,NA,sYyD0vbc,2020-0188,2021-10-04,19:09:01,20:20:25,NA,incomplete,false,NA,true,5,24,NA,NA,right,NA,NA,o_s_013.jpg,i_c_023.jpg,between-small,NA,NaN,NA,right,1903.800000011921,1,0,1171.7999999821186
sYyD0vbc,NA,NA,sYyD0vbc,2020-0188,2021-10-04,19:09:01,20:20:25,NA,incomplete,false,NA,true,5,25,NA,NA,left,NA,NA,a_1_027.jpg,a_1_012.jpg,within,NA,NaN,NA,left,1147.7999999821186,1,1,1838.699999988079
sYyD0vbc,NA,NA,sYyD0vbc,2020-0188,2021-10-04,19:09:01,20:20:25,NA,incomplete,false,NA,true,5,26,NA,NA,left,NA,NA,i_c_008.jpg,i_c_015.jpg,within,NA,NaN,NA,left,713.2000000178814,1,2,1147.5
sYyD0vbc,NA,NA,sYyD0vbc,2020-0188,2021-10-04,19:09:01,20:20:25,NA,incomplete,false,true,NA,6,0,location,o_c_012.jpg,right,indoor,outdoor,NA,NA,NA,right,1607.30000001192,true,NA,NA,NA,NA,NA
sYyD0vbc,NA,NA,sYyD0vbc,2020-0188,2021-10-04,19:09:01,20:20:25,NA,incomplete,false,true,NA,6,1,location,i_c_024.jpg,left,indoor,outdoor,NA,NA,NA,left,831.300000011921,true,NA,NA,NA,NA,NA
sYyD0vbc,NA,NA,sYyD0vbc,2020-0188,2021-10-04,19:09:01,20:20:25,NA,incomplete,false,true,NA,6,2,location,i_s_018.jpg,right,outdoor,indoor,NA,NA,NA,right,1109.60000002384,true,NA,NA,NA,NA,NA
sYyD0vbc,NA,NA,sYyD0vbc,2020-0188,2021-10-04,19:09:01,20:20:25,NA,incomplete,false,true,NA,6,3,location,o_c_009.jpg,left,outdoor,indoor,NA,NA,NA,left,1354.19999998808,true,NA,NA,NA,NA,NA
sYyD0vbc,NA,NA,sYyD0vbc,2020-0188,2021-10-04,19:09:01,20:20:25,NA,incomplete,false,true,NA,6,4,location,o_s_009.jpg,right,indoor,outdoor,NA,NA,NA,right,1104,true,NA,NA,NA,NA,NA
sYyD0vbc,NA,NA,sYyD0vbc,2020-0188,2021-10-04,19:09:01,20:20:25,NA,incomplete,false,true,NA,6,5,building,i_s_016.jpg,right,cottage,skyscraper,NA,NA,NA,right,1879.20000001788,true,NA,NA,NA,NA,NA
sYyD0vbc,NA,NA,sYyD0vbc,2020-0188,2021-10-04,19:09:01,20:20:25,NA,incomplete,false,true,NA,6,6,building,i_s_025.jpg,right,cottage,skyscraper,NA,NA,NA,none,0,false,NA,NA,NA,NA,NA
sYyD0vbc,NA,NA,sYyD0vbc,2020-0188,2021-10-04,19:09:01,20:20:25,NA,incomplete,false,true,NA,6,7,building,i_c_018.jpg,right,skyscraper,cottage,NA,NA,NA,right,2718.30000001192,true,NA,NA,NA,NA,NA
sYyD0vbc,NA,NA,sYyD0vbc,2020-0188,2021-10-04,19:09:01,20:20:25,NA,incomplete,false,true,NA,6,8,building,o_c_003.jpg,right,skyscraper,cottage,NA,NA,NA,right,1502.70000001788,true,NA,NA,NA,NA,NA
sYyD0vbc,NA,NA,sYyD0vbc,2020-0188,2021-10-04,19:09:01,20:20:25,NA,incomplete,false,true,NA,6,9,building,i_c_010.jpg,left,cottage,skyscraper,NA,NA,NA,left,1788.09999999404,true,NA,NA,NA,NA,NA
sYyD0vbc,NA,NA,sYyD0vbc,2020-0188,2021-10-04,19:09:01,20:20:25,NA,incomplete,false,true,NA,6,10,origin,n_s_013.jpg,left,natural,manmade,NA,NA,NA,left,1409.59999999404,true,NA,NA,NA,NA,NA
sYyD0vbc,NA,NA,sYyD0vbc,2020-0188,2021-10-04,19:09:01,20:20:25,NA,incomplete,false,true,NA,6,11,origin,n_l_001.jpg,left,natural,manmade,NA,NA,NA,left,1415.80000001192,true,NA,NA,NA,NA,NA
sYyD0vbc,NA,NA,sYyD0vbc,2020-0188,2021-10-04,19:09:01,20:20:25,NA,incomplete,false,true,NA,6,12,origin,m_l_023.jpg,right,natural,manmade,NA,NA,NA,right,1529.69999998808,true,NA,NA,NA,NA,NA
sYyD0vbc,NA,NA,sYyD0vbc,2020-0188,2021-10-04,19:09:01,20:20:25,NA,incomplete,false,true,NA,6,13,origin,n_l_004.jpg,right,manmade,natural,NA,NA,NA,right,1381.59999999404,true,NA,NA,NA,NA,NA
sYyD0vbc,NA,NA,sYyD0vbc,2020-0188,2021-10-04,19:09:01,20:20:25,NA,incomplete,false,true,NA,6,14,origin,m_l_005.jpg,right,natural,manmade,NA,NA,NA,right,1483.09999999404,true,NA,NA,NA,NA,NA
sYyD0vbc,NA,NA,sYyD0vbc,2020-0188,2021-10-04,19:09:01,20:20:25,NA,incomplete,false,true,NA,6,15,size,m_s_009.jpg,left,small,large,NA,NA,NA,left,1434.40000000596,true,NA,NA,NA,NA,NA
sYyD0vbc,NA,NA,sYyD0vbc,2020-0188,2021-10-04,19:09:01,20:20:25,NA,incomplete,false,true,NA,6,16,size,m_l_001.jpg,right,small,large,NA,NA,NA,none,0,false,NA,NA,NA,NA,NA
sYyD0vbc,NA,NA,sYyD0vbc,2020-0188,2021-10-04,19:09:01,20:20:25,NA,incomplete,false,true,NA,6,17,size,n_l_005.jpg,left,large,small,NA,NA,NA,left,1412.5,true,NA,NA,NA,NA,NA
sYyD0vbc,NA,NA,sYyD0vbc,2020-0188,2021-10-04,19:09:01,20:20:25,NA,incomplete,false,true,NA,6,18,size,n_s_017.jpg,right,large,small,NA,NA,NA,right,2080.09999999404,true,NA,NA,NA,NA,NA
sYyD0vbc,NA,NA,sYyD0vbc,2020-0188,2021-10-04,19:09:01,20:20:25,NA,incomplete,false,true,NA,6,19,size,m_l_020.jpg,right,small,large,NA,NA,NA,right,1298,true,NA,NA,NA,NA,NA
sYyD0vbc,NA,NA,sYyD0vbc,2020-0188,2021-10-04,19:09:01,20:20:25,NA,incomplete,false,true,NA,6,20,abstractness,a_1_002.jpg,right,concrete,abstract,NA,NA,NA,right,1671.5,true,NA,NA,NA,NA,NA
sYyD0vbc,NA,NA,sYyD0vbc,2020-0188,2021-10-04,19:09:01,20:20:25,NA,incomplete,false,true,NA,6,21,abstractness,c_2_011.jpg,left,concrete,abstract,NA,NA,NA,left,2737.20000001788,true,NA,NA,NA,NA,NA
sYyD0vbc,NA,NA,sYyD0vbc,2020-0188,2021-10-04,19:09:01,20:20:25,NA,incomplete,false,true,NA,6,22,abstractness,c_1_001.jpg,right,abstract,concrete,NA,NA,NA,right,1036.69999998808,true,NA,NA,NA,NA,NA
sYyD0vbc,NA,NA,sYyD0vbc,2020-0188,2021-10-04,19:09:01,20:20:25,NA,incomplete,false,true,NA,6,23,abstractness,c_1_025.jpg,right,abstract,concrete,NA,NA,NA,right,1605.5,true,NA,NA,NA,NA,NA
sYyD0vbc,NA,NA,sYyD0vbc,2020-0188,2021-10-04,19:09:01,20:20:25,NA,incomplete,false,true,NA,6,24,abstractness,a_1_016.jpg,left,abstract,concrete,NA,NA,NA,left,1208.69999998808,true,NA,NA,NA,NA,NA
sYyD0vbc,NA,NA,sYyD0vbc,2020-0188,2021-10-04,19:09:01,20:20:25,NA,incomplete,false,true,NA,6,25,syllable,c_1_007.jpg,right,2 syllables,1 syllable,NA,NA,NA,right,1549.70000001788,true,NA,NA,NA,NA,NA
sYyD0vbc,NA,NA,sYyD0vbc,2020-0188,2021-10-04,19:09:01,20:20:25,NA,incomplete,false,true,NA,6,26,syllable,c_2_020.jpg,right,1 syllable,2 syllables,NA,NA,NA,right,1752.30000001192,true,NA,NA,NA,NA,NA
sYyD0vbc,NA,NA,sYyD0vbc,2020-0188,2021-10-04,19:09:01,20:20:25,NA,incomplete,false,true,NA,6,27,syllable,c_1_011.jpg,right,2 syllables,1 syllable,NA,NA,NA,right,1227.90000000596,true,NA,NA,NA,NA,NA
sYyD0vbc,NA,NA,sYyD0vbc,2020-0188,2021-10-04,19:09:01,20:20:25,NA,incomplete,false,true,NA,6,28,syllable,c_1_005.jpg,right,2 syllables,1 syllable,NA,NA,NA,right,960.199999988079,true,NA,NA,NA,NA,NA
sYyD0vbc,NA,NA,sYyD0vbc,2020-0188,2021-10-04,19:09:01,20:20:25,NA,incomplete,false,true,NA,6,29,syllable,c_2_007.jpg,right,2 syllables,1 syllable,NA,NA,NA,left,1563,false,NA,NA,NA,NA,NA
sYyD0vbc,NA,NA,sYyD0vbc,2020-0188,2021-10-04,19:09:01,20:20:25,NA,incomplete,false,NA,true,6,0,NA,NA,right,NA,NA,c_1_025.jpg,a_1_002.jpg,within,NA,NaN,NA,left,1722.9000000059605,0,1,1436.2999999821186
sYyD0vbc,NA,NA,sYyD0vbc,2020-0188,2021-10-04,19:09:01,20:20:25,NA,incomplete,false,NA,true,6,1,NA,NA,right,NA,NA,n_s_017.jpg,m_s_009.jpg,within,NA,NaN,NA,right,2194.5,1,1,1027
sYyD0vbc,NA,NA,sYyD0vbc,2020-0188,2021-10-04,19:09:01,20:20:25,NA,incomplete,false,NA,true,6,2,NA,NA,right,NA,NA,n_l_004.jpg,n_s_013.jpg,within,NA,NaN,NA,left,2042.800000011921,0,1,1386
sYyD0vbc,NA,NA,sYyD0vbc,2020-0188,2021-10-04,19:09:01,20:20:25,NA,incomplete,false,NA,true,6,3,NA,NA,right,NA,NA,o_s_009.jpg,i_c_024.jpg,within,NA,NaN,NA,right,2338.5999999940395,1,1,1204
sYyD0vbc,NA,NA,sYyD0vbc,2020-0188,2021-10-04,19:09:01,20:20:25,NA,incomplete,false,NA,true,6,4,NA,NA,left,NA,NA,o_c_012.jpg,o_c_009.jpg,within,NA,NaN,NA,left,818.5999999940395,1,0,986.5999999940395
sYyD0vbc,NA,NA,sYyD0vbc,2020-0188,2021-10-04,19:09:01,20:20:25,NA,incomplete,false,NA,true,6,5,NA,NA,left,NA,NA,i_s_018.jpg,i_s_016.jpg,between-small,NA,NaN,NA,left,834.1999999880791,1,1,1074.0999999940395
sYyD0vbc,NA,NA,sYyD0vbc,2020-0188,2021-10-04,19:09:01,20:20:25,NA,incomplete,false,NA,true,6,6,NA,NA,left,NA,NA,n_l_005.jpg,a_1_002.jpg,between-big,NA,NaN,NA,left,2362,1,1,905.5
sYyD0vbc,NA,NA,sYyD0vbc,2020-0188,2021-10-04,19:09:01,20:20:25,NA,incomplete,false,NA,true,6,7,NA,NA,right,NA,NA,a_1_016.jpg,c_2_011.jpg,within,NA,NaN,NA,right,1165.199999988079,1,1,1043.5999999940395
sYyD0vbc,NA,NA,sYyD0vbc,2020-0188,2021-10-04,19:09:01,20:20:25,NA,incomplete,false,NA,true,6,8,NA,NA,right,NA,NA,c_2_011.jpg,n_s_017.jpg,between-big,NA,NaN,NA,right,834.5,1,2,898.1999999880791
sYyD0vbc,NA,NA,sYyD0vbc,2020-0188,2021-10-04,19:09:01,20:20:25,NA,incomplete,false,NA,true,6,9,NA,NA,right,NA,NA,c_1_011.jpg,a_1_016.jpg,between-small,NA,NaN,NA,right,1630.0999999940395,1,2,1018.5
sYyD0vbc,NA,NA,sYyD0vbc,2020-0188,2021-10-04,19:09:01,20:20:25,NA,incomplete,false,NA,true,6,10,NA,NA,right,NA,NA,m_l_005.jpg,n_l_001.jpg,within,NA,NaN,NA,right,1243.800000011921,1,1,906.8000000119209
sYyD0vbc,NA,NA,sYyD0vbc,2020-0188,2021-10-04,19:09:01,20:20:25,NA,incomplete,false,NA,true,6,11,NA,NA,left,NA,NA,o_c_009.jpg,i_s_025.jpg,between-small,NA,NaN,NA,left,697.8000000119209,1,0,2749.199999988079
sYyD0vbc,NA,NA,sYyD0vbc,2020-0188,2021-10-04,19:09:01,20:20:25,NA,incomplete,false,NA,true,6,12,NA,NA,left,NA,NA,c_1_025.jpg,c_2_020.jpg,between-small,NA,NaN,NA,left,1592.300000011921,1,1,2788.300000011921
sYyD0vbc,NA,NA,sYyD0vbc,2020-0188,2021-10-04,19:09:01,20:20:25,NA,incomplete,false,NA,true,6,13,NA,NA,right,NA,NA,c_2_007.jpg,c_2_020.jpg,within,NA,NaN,NA,left,850.6999999880791,0,2,1413.7999999821186
sYyD0vbc,NA,NA,sYyD0vbc,2020-0188,2021-10-04,19:09:01,20:20:25,NA,incomplete,false,NA,true,6,14,NA,NA,left,NA,NA,m_l_005.jpg,n_l_005.jpg,between-small,NA,NaN,NA,left,2034.9000000059605,1,1,1557.800000011921
sYyD0vbc,NA,NA,sYyD0vbc,2020-0188,2021-10-04,19:09:01,20:20:25,NA,incomplete,false,NA,true,6,15,NA,NA,left,NA,NA,i_s_025.jpg,i_c_010.jpg,within,NA,NaN,NA,left,601.8000000119209,1,2,938.0999999940395
sYyD0vbc,NA,NA,sYyD0vbc,2020-0188,2021-10-04,19:09:01,20:20:25,NA,incomplete,false,NA,true,6,16,NA,NA,right,NA,NA,m_s_009.jpg,m_l_023.jpg,between-small,NA,NaN,NA,left,5621.799999982119,0,1,1291.3999999761581
sYyD0vbc,NA,NA,sYyD0vbc,2020-0188,2021-10-04,19:09:01,20:20:25,NA,incomplete,false,NA,true,6,17,NA,NA,left,NA,NA,i_c_018.jpg,n_s_013.jpg,between-big,NA,NaN,NA,left,610.1999999880791,1,2,1011.4000000059605
sYyD0vbc,NA,NA,sYyD0vbc,2020-0188,2021-10-04,19:09:01,20:20:25,NA,incomplete,false,NA,true,6,18,NA,NA,left,NA,NA,c_1_001.jpg,c_1_007.jpg,between-small,NA,NaN,NA,right,1335.5,0,1,1156
sYyD0vbc,NA,NA,sYyD0vbc,2020-0188,2021-10-04,19:09:01,20:20:25,NA,incomplete,false,NA,true,6,19,NA,NA,right,NA,NA,i_c_018.jpg,o_s_009.jpg,between-small,NA,NaN,NA,left,1647.199999988079,0,1,1068.2999999821186
sYyD0vbc,NA,NA,sYyD0vbc,2020-0188,2021-10-04,19:09:01,20:20:25,NA,incomplete,false,NA,true,6,20,NA,NA,right,NA,NA,m_l_023.jpg,i_c_010.jpg,between-big,NA,NaN,NA,left,2489.800000011921,0,1,1082.5999999940395
sYyD0vbc,NA,NA,sYyD0vbc,2020-0188,2021-10-04,19:09:01,20:20:25,NA,incomplete,false,NA,true,6,21,NA,NA,right,NA,NA,o_c_003.jpg,i_s_016.jpg,within,NA,NaN,NA,left,778.5999999940395,0,1,1034.699999988079
sYyD0vbc,NA,NA,sYyD0vbc,2020-0188,2021-10-04,19:09:01,20:20:25,NA,incomplete,false,NA,true,6,22,NA,NA,left,NA,NA,o_c_003.jpg,n_l_001.jpg,between-big,NA,NaN,NA,right,724.2000000178814,0,1,1066.7999999821186
sYyD0vbc,NA,NA,sYyD0vbc,2020-0188,2021-10-04,19:09:01,20:20:25,NA,incomplete,false,NA,true,6,23,NA,NA,left,NA,NA,n_l_004.jpg,m_l_001.jpg,between-small,NA,NaN,NA,right,2371.2000000178814,0,1,1147.800000011921
sYyD0vbc,NA,NA,sYyD0vbc,2020-0188,2021-10-04,19:09:01,20:20:25,NA,incomplete,false,NA,true,6,24,NA,NA,right,NA,NA,c_1_005.jpg,c_1_007.jpg,within,NA,NaN,NA,left,778.7000000178814,0,1,1341.7000000178814
sYyD0vbc,NA,NA,sYyD0vbc,2020-0188,2021-10-04,19:09:01,20:20:25,NA,incomplete,false,NA,true,6,25,NA,NA,left,NA,NA,m_l_020.jpg,c_1_001.jpg,between-big,NA,NaN,NA,left,2626.9000000059605,1,1,915.1000000238419
sYyD0vbc,NA,NA,sYyD0vbc,2020-0188,2021-10-04,19:09:01,20:20:25,NA,incomplete,false,NA,true,6,26,NA,NA,left,NA,NA,m_l_001.jpg,m_l_020.jpg,within,NA,NaN,NA,left,2298.699999988079,1,1,1206.5999999940395
sYyD0vbc,NA,NA,sYyD0vbc,2020-0188,2021-10-04,19:09:01,20:20:25,NA,incomplete,false,true,NA,7,0,syllable,c_2_015.jpg,right,1 syllable,2 syllables,NA,NA,NA,right,2154.80000001192,true,NA,NA,NA,NA,NA
sYyD0vbc,NA,NA,sYyD0vbc,2020-0188,2021-10-04,19:09:01,20:20:25,NA,incomplete,false,true,NA,7,1,syllable,c_2_003.jpg,right,1 syllable,2 syllables,NA,NA,NA,right,738.59999999404,true,NA,NA,NA,NA,NA
sYyD0vbc,NA,NA,sYyD0vbc,2020-0188,2021-10-04,19:09:01,20:20:25,NA,incomplete,false,true,NA,7,2,syllable,c_2_004.jpg,right,2 syllables,1 syllable,NA,NA,NA,left,1451.5,false,NA,NA,NA,NA,NA
sYyD0vbc,NA,NA,sYyD0vbc,2020-0188,2021-10-04,19:09:01,20:20:25,NA,incomplete,false,true,NA,7,3,syllable,a_1_022.jpg,right,1 syllable,2 syllables,NA,NA,NA,left,1318.69999998808,false,NA,NA,NA,NA,NA
sYyD0vbc,NA,NA,sYyD0vbc,2020-0188,2021-10-04,19:09:01,20:20:25,NA,incomplete,false,true,NA,7,4,syllable,c_2_008.jpg,right,2 syllables,1 syllable,NA,NA,NA,left,1070.59999999404,false,NA,NA,NA,NA,NA
sYyD0vbc,NA,NA,sYyD0vbc,2020-0188,2021-10-04,19:09:01,20:20:25,NA,incomplete,false,true,NA,7,5,abstractness,c_1_015.jpg,left,concrete,abstract,NA,NA,NA,left,1799.29999998212,true,NA,NA,NA,NA,NA
sYyD0vbc,NA,NA,sYyD0vbc,2020-0188,2021-10-04,19:09:01,20:20:25,NA,incomplete,false,true,NA,7,6,abstractness,c_1_017.jpg,left,concrete,abstract,NA,NA,NA,left,1929.29999998212,true,NA,NA,NA,NA,NA
sYyD0vbc,NA,NA,sYyD0vbc,2020-0188,2021-10-04,19:09:01,20:20:25,NA,incomplete,false,true,NA,7,7,abstractness,a_1_028.jpg,right,concrete,abstract,NA,NA,NA,right,1350.30000001192,true,NA,NA,NA,NA,NA
sYyD0vbc,NA,NA,sYyD0vbc,2020-0188,2021-10-04,19:09:01,20:20:25,NA,incomplete,false,true,NA,7,8,abstractness,a_2_012.jpg,left,abstract,concrete,NA,NA,NA,left,1093.79999998212,true,NA,NA,NA,NA,NA
sYyD0vbc,NA,NA,sYyD0vbc,2020-0188,2021-10-04,19:09:01,20:20:25,NA,incomplete,false,true,NA,7,9,abstractness,c_2_012.jpg,right,abstract,concrete,NA,NA,NA,right,1246,true,NA,NA,NA,NA,NA
sYyD0vbc,NA,NA,sYyD0vbc,2020-0188,2021-10-04,19:09:01,20:20:25,NA,incomplete,false,true,NA,7,10,location,o_c_021.jpg,right,indoor,outdoor,NA,NA,NA,right,1260.09999999404,true,NA,NA,NA,NA,NA
sYyD0vbc,NA,NA,sYyD0vbc,2020-0188,2021-10-04,19:09:01,20:20:25,NA,incomplete,false,true,NA,7,11,location,o_s_024.jpg,left,outdoor,indoor,NA,NA,NA,right,2242.5,false,NA,NA,NA,NA,NA
sYyD0vbc,NA,NA,sYyD0vbc,2020-0188,2021-10-04,19:09:01,20:20:25,NA,incomplete,false,true,NA,7,12,location,i_s_009.jpg,right,outdoor,indoor,NA,NA,NA,right,1677.90000000596,true,NA,NA,NA,NA,NA
sYyD0vbc,NA,NA,sYyD0vbc,2020-0188,2021-10-04,19:09:01,20:20:25,NA,incomplete,false,true,NA,7,13,location,i_s_014.jpg,right,outdoor,indoor,NA,NA,NA,right,1836.39999997616,true,NA,NA,NA,NA,NA
sYyD0vbc,NA,NA,sYyD0vbc,2020-0188,2021-10-04,19:09:01,20:20:25,NA,incomplete,false,true,NA,7,14,location,o_s_026.jpg,left,outdoor,indoor,NA,NA,NA,left,1195.30000001192,true,NA,NA,NA,NA,NA
sYyD0vbc,NA,NA,sYyD0vbc,2020-0188,2021-10-04,19:09:01,20:20:25,NA,incomplete,false,true,NA,7,15,building,o_c_007.jpg,left,cottage,skyscraper,NA,NA,NA,left,1284.5,true,NA,NA,NA,NA,NA
sYyD0vbc,NA,NA,sYyD0vbc,2020-0188,2021-10-04,19:09:01,20:20:25,NA,incomplete,false,true,NA,7,16,building,o_s_007.jpg,left,skyscraper,cottage,NA,NA,NA,left,1456.5,true,NA,NA,NA,NA,NA
sYyD0vbc,NA,NA,sYyD0vbc,2020-0188,2021-10-04,19:09:01,20:20:25,NA,incomplete,false,true,NA,7,17,building,i_s_017.jpg,right,cottage,skyscraper,NA,NA,NA,right,1886.90000000596,true,NA,NA,NA,NA,NA
sYyD0vbc,NA,NA,sYyD0vbc,2020-0188,2021-10-04,19:09:01,20:20:25,NA,incomplete,false,true,NA,7,18,building,o_s_018.jpg,right,cottage,skyscraper,NA,NA,NA,right,1876.29999998212,true,NA,NA,NA,NA,NA
sYyD0vbc,NA,NA,sYyD0vbc,2020-0188,2021-10-04,19:09:01,20:20:25,NA,incomplete,false,true,NA,7,19,building,i_s_008.jpg,right,cottage,skyscraper,NA,NA,NA,right,1553.59999999404,true,NA,NA,NA,NA,NA
sYyD0vbc,NA,NA,sYyD0vbc,2020-0188,2021-10-04,19:09:01,20:20:25,NA,incomplete,false,true,NA,7,20,origin,n_l_022.jpg,right,manmade,natural,NA,NA,NA,right,1245.80000001192,true,NA,NA,NA,NA,NA
sYyD0vbc,NA,NA,sYyD0vbc,2020-0188,2021-10-04,19:09:01,20:20:25,NA,incomplete,false,true,NA,7,21,origin,m_l_024.jpg,left,manmade,natural,NA,NA,NA,left,888.5,true,NA,NA,NA,NA,NA
sYyD0vbc,NA,NA,sYyD0vbc,2020-0188,2021-10-04,19:09:01,20:20:25,NA,incomplete,false,true,NA,7,22,origin,m_s_010.jpg,left,manmade,natural,NA,NA,NA,left,1665.60000002384,true,NA,NA,NA,NA,NA
sYyD0vbc,NA,NA,sYyD0vbc,2020-0188,2021-10-04,19:09:01,20:20:25,NA,incomplete,false,true,NA,7,23,origin,m_s_016.jpg,left,manmade,natural,NA,NA,NA,left,1796.69999998808,true,NA,NA,NA,NA,NA
sYyD0vbc,NA,NA,sYyD0vbc,2020-0188,2021-10-04,19:09:01,20:20:25,NA,incomplete,false,true,NA,7,24,origin,m_l_009.jpg,right,natural,manmade,NA,NA,NA,right,1520.09999999404,true,NA,NA,NA,NA,NA
sYyD0vbc,NA,NA,sYyD0vbc,2020-0188,2021-10-04,19:09:01,20:20:25,NA,incomplete,false,true,NA,7,25,size,m_l_002.jpg,right,small,large,NA,NA,NA,right,1662.70000001788,true,NA,NA,NA,NA,NA
sYyD0vbc,NA,NA,sYyD0vbc,2020-0188,2021-10-04,19:09:01,20:20:25,NA,incomplete,false,true,NA,7,26,size,m_s_015.jpg,right,large,small,NA,NA,NA,right,1057.69999998808,true,NA,NA,NA,NA,NA
sYyD0vbc,NA,NA,sYyD0vbc,2020-0188,2021-10-04,19:09:01,20:20:25,NA,incomplete,false,true,NA,7,27,size,n_s_008.jpg,left,small,large,NA,NA,NA,left,2916.29999998212,true,NA,NA,NA,NA,NA
sYyD0vbc,NA,NA,sYyD0vbc,2020-0188,2021-10-04,19:09:01,20:20:25,NA,incomplete,false,true,NA,7,28,size,n_l_002.jpg,right,small,large,NA,NA,NA,right,1213.80000001192,true,NA,NA,NA,NA,NA
sYyD0vbc,NA,NA,sYyD0vbc,2020-0188,2021-10-04,19:09:01,20:20:25,NA,incomplete,false,true,NA,7,29,size,n_s_024.jpg,right,large,small,NA,NA,NA,right,1636.69999998808,true,NA,NA,NA,NA,NA
sYyD0vbc,NA,NA,sYyD0vbc,2020-0188,2021-10-04,19:09:01,20:20:25,NA,incomplete,false,NA,true,7,0,NA,NA,left,NA,NA,c_2_003.jpg,c_2_008.jpg,within,NA,NaN,NA,left,1935.5999999940395,1,1,1313.5999999940395
sYyD0vbc,NA,NA,sYyD0vbc,2020-0188,2021-10-04,19:09:01,20:20:25,NA,incomplete,false,NA,true,7,1,NA,NA,right,NA,NA,a_2_012.jpg,c_1_015.jpg,within,NA,NaN,NA,left,784.0999999940395,0,2,988.4000000059605
sYyD0vbc,NA,NA,sYyD0vbc,2020-0188,2021-10-04,19:09:01,20:20:25,NA,incomplete,false,NA,true,7,2,NA,NA,right,NA,NA,o_c_021.jpg,a_1_028.jpg,between-big,NA,NaN,NA,right,1558.5,1,1,1068.5
sYyD0vbc,NA,NA,sYyD0vbc,2020-0188,2021-10-04,19:09:01,20:20:25,NA,incomplete,false,NA,true,7,3,NA,NA,left,NA,NA,m_l_009.jpg,n_s_008.jpg,between-small,NA,NaN,NA,left,5571.200000017881,1,2,1340.2999999821186
sYyD0vbc,NA,NA,sYyD0vbc,2020-0188,2021-10-04,19:09:01,20:20:25,NA,incomplete,false,NA,true,7,4,NA,NA,left,NA,NA,c_2_012.jpg,i_s_009.jpg,between-big,NA,NaN,NA,left,1490.300000011921,1,2,1259.2000000178814
sYyD0vbc,NA,NA,sYyD0vbc,2020-0188,2021-10-04,19:09:01,20:20:25,NA,incomplete,false,NA,true,7,5,NA,NA,right,NA,NA,c_1_015.jpg,c_2_004.jpg,between-small,NA,NaN,NA,right,1479.3999999761581,1,1,2296.5999999940395
sYyD0vbc,NA,NA,sYyD0vbc,2020-0188,2021-10-04,19:09:01,20:20:25,NA,incomplete,false,NA,true,7,6,NA,NA,right,NA,NA,o_s_024.jpg,a_2_012.jpg,between-big,NA,NaN,NA,right,3069.7999999821186,1,2,1083.9000000059605
sYyD0vbc,NA,NA,sYyD0vbc,2020-0188,2021-10-04,19:09:01,20:20:25,NA,incomplete,false,NA,true,7,7,NA,NA,right,NA,NA,n_l_002.jpg,m_l_002.jpg,within,NA,NaN,NA,right,1823.800000011921,1,2,3133.899999976158
sYyD0vbc,NA,NA,sYyD0vbc,2020-0188,2021-10-04,19:09:01,20:20:25,NA,incomplete,false,NA,true,7,8,NA,NA,left,NA,NA,i_s_008.jpg,m_s_010.jpg,between-big,NA,NaN,NA,left,2079.800000011921,1,2,1316.0999999940395
sYyD0vbc,NA,NA,sYyD0vbc,2020-0188,2021-10-04,19:09:01,20:20:25,NA,incomplete,false,NA,true,7,9,NA,NA,left,NA,NA,o_c_021.jpg,i_s_014.jpg,within,NA,NaN,NA,left,1074.800000011921,1,2,946.5
sYyD0vbc,NA,NA,sYyD0vbc,2020-0188,2021-10-04,19:09:01,20:20:25,NA,incomplete,false,NA,true,7,10,NA,NA,left,NA,NA,o_s_007.jpg,i_s_008.jpg,within,NA,NaN,NA,right,1485.0999999940395,0,1,1182.300000011921
sYyD0vbc,NA,NA,sYyD0vbc,2020-0188,2021-10-04,19:09:01,20:20:25,NA,incomplete,false,NA,true,7,11,NA,NA,left,NA,NA,m_l_024.jpg,m_l_009.jpg,within,NA,NaN,NA,right,2306.0999999940395,0,1,1131.2999999821186
sYyD0vbc,NA,NA,sYyD0vbc,2020-0188,2021-10-04,19:09:01,20:20:25,NA,incomplete,false,NA,true,7,12,NA,NA,left,NA,NA,i_s_017.jpg,n_l_022.jpg,between-big,NA,NaN,NA,left,1934.199999988079,1,1,1195.5
sYyD0vbc,NA,NA,sYyD0vbc,2020-0188,2021-10-04,19:09:01,20:20:25,NA,incomplete,false,NA,true,7,13,NA,NA,right,NA,NA,m_s_016.jpg,n_l_022.jpg,within,NA,NaN,NA,right,1405,1,1,2387.5
sYyD0vbc,NA,NA,sYyD0vbc,2020-0188,2021-10-04,19:09:01,20:20:25,NA,incomplete,false,NA,true,7,14,NA,NA,right,NA,NA,a_1_022.jpg,c_2_015.jpg,within,NA,NaN,NA,right,1919.0999999940395,1,0,1341.199999988079
sYyD0vbc,NA,NA,sYyD0vbc,2020-0188,2021-10-04,19:09:01,20:20:25,NA,incomplete,false,NA,true,7,15,NA,NA,right,NA,NA,o_s_018.jpg,o_c_007.jpg,within,NA,NaN,NA,right,3335.300000011921,1,1,979.1999999880791
sYyD0vbc,NA,NA,sYyD0vbc,2020-0188,2021-10-04,19:09:01,20:20:25,NA,incomplete,false,NA,true,7,16,NA,NA,left,NA,NA,o_s_026.jpg,i_s_017.jpg,between-small,NA,NaN,NA,left,3118.5,1,1,1124.5
sYyD0vbc,NA,NA,sYyD0vbc,2020-0188,2021-10-04,19:09:01,20:20:25,NA,incomplete,false,NA,true,7,17,NA,NA,left,NA,NA,m_s_015.jpg,n_s_024.jpg,within,NA,NaN,NA,left,2297.4000000059605,1,1,985.7000000178814
sYyD0vbc,NA,NA,sYyD0vbc,2020-0188,2021-10-04,19:09:01,20:20:25,NA,incomplete,false,NA,true,7,18,NA,NA,right,NA,NA,o_s_026.jpg,o_s_024.jpg,within,NA,NaN,NA,left,1952.5,0,1,1404.4000000059605
sYyD0vbc,NA,NA,sYyD0vbc,2020-0188,2021-10-04,19:09:01,20:20:25,NA,incomplete,false,NA,true,7,19,NA,NA,right,NA,NA,o_s_007.jpg,i_s_014.jpg,between-small,NA,NaN,NA,right,2032.4000000059605,1,1,1846.800000011921
sYyD0vbc,NA,NA,sYyD0vbc,2020-0188,2021-10-04,19:09:01,20:20:25,NA,incomplete,false,NA,true,7,20,NA,NA,left,NA,NA,c_1_017.jpg,c_2_012.jpg,within,NA,NaN,NA,left,859.5,1,1,1270.5999999940395
sYyD0vbc,NA,NA,sYyD0vbc,2020-0188,2021-10-04,19:09:01,20:20:25,NA,incomplete,false,NA,true,7,21,NA,NA,left,NA,NA,i_s_009.jpg,o_c_007.jpg,between-small,NA,NaN,NA,right,842.4000000059605,0,1,1243.199999988079
sYyD0vbc,NA,NA,sYyD0vbc,2020-0188,2021-10-04,19:09:01,20:20:25,NA,incomplete,false,NA,true,7,22,NA,NA,left,NA,NA,m_s_010.jpg,m_l_002.jpg,between-small,NA,NaN,NA,left,1052,1,1,1259.699999988079
sYyD0vbc,NA,NA,sYyD0vbc,2020-0188,2021-10-04,19:09:01,20:20:25,NA,incomplete,false,NA,true,7,23,NA,NA,right,NA,NA,m_l_024.jpg,o_s_018.jpg,between-big,NA,NaN,NA,right,969.5,1,1,946.6999999880791
sYyD0vbc,NA,NA,sYyD0vbc,2020-0188,2021-10-04,19:09:01,20:20:25,NA,incomplete,false,NA,true,7,24,NA,NA,left,NA,NA,c_2_008.jpg,a_1_028.jpg,between-small,NA,NaN,NA,left,827.9000000059605,1,1,1115.4000000059605
sYyD0vbc,NA,NA,sYyD0vbc,2020-0188,2021-10-04,19:09:01,20:20:25,NA,incomplete,false,NA,true,7,25,NA,NA,left,NA,NA,a_1_022.jpg,c_1_017.jpg,between-small,NA,NaN,NA,right,906.5,0,1,1074
sYyD0vbc,NA,NA,sYyD0vbc,2020-0188,2021-10-04,19:09:01,20:20:25,NA,incomplete,false,NA,true,7,26,NA,NA,right,NA,NA,m_s_015.jpg,m_s_016.jpg,between-small,NA,NaN,NA,left,2266.199999988079,0,1,1187.3999999761581
sYyD0vbc,NA,NA,sYyD0vbc,2020-0188,2021-10-04,19:09:01,20:20:25,NA,incomplete,false,true,NA,8,0,size,m_l_019.jpg,right,small,large,NA,NA,NA,right,1889.90000000596,true,NA,NA,NA,NA,NA
sYyD0vbc,NA,NA,sYyD0vbc,2020-0188,2021-10-04,19:09:01,20:20:25,NA,incomplete,false,true,NA,8,1,size,m_l_022.jpg,left,large,small,NA,NA,NA,left,968.300000011921,true,NA,NA,NA,NA,NA
sYyD0vbc,NA,NA,sYyD0vbc,2020-0188,2021-10-04,19:09:01,20:20:25,NA,incomplete,false,true,NA,8,2,size,m_l_006.jpg,right,small,large,NA,NA,NA,right,871.200000017881,true,NA,NA,NA,NA,NA
sYyD0vbc,NA,NA,sYyD0vbc,2020-0188,2021-10-04,19:09:01,20:20:25,NA,incomplete,false,true,NA,8,3,size,n_s_026.jpg,right,large,small,NA,NA,NA,right,1179.20000001788,true,NA,NA,NA,NA,NA
sYyD0vbc,NA,NA,sYyD0vbc,2020-0188,2021-10-04,19:09:01,20:20:25,NA,incomplete,false,true,NA,8,4,size,n_s_014.jpg,right,large,small,NA,NA,NA,right,1017.09999999404,true,NA,NA,NA,NA,NA
sYyD0vbc,NA,NA,sYyD0vbc,2020-0188,2021-10-04,19:09:01,20:20:25,NA,incomplete,false,true,NA,8,5,origin,m_l_011.jpg,left,manmade,natural,NA,NA,NA,left,2266.69999998808,true,NA,NA,NA,NA,NA
sYyD0vbc,NA,NA,sYyD0vbc,2020-0188,2021-10-04,19:09:01,20:20:25,NA,incomplete,false,true,NA,8,6,origin,n_l_027.jpg,right,manmade,natural,NA,NA,NA,right,1430.79999998212,true,NA,NA,NA,NA,NA
sYyD0vbc,NA,NA,sYyD0vbc,2020-0188,2021-10-04,19:09:01,20:20:25,NA,incomplete,false,true,NA,8,7,origin,m_l_017.jpg,left,manmade,natural,NA,NA,NA,left,1302.89999997616,true,NA,NA,NA,NA,NA
sYyD0vbc,NA,NA,sYyD0vbc,2020-0188,2021-10-04,19:09:01,20:20:25,NA,incomplete,false,true,NA,8,8,origin,n_l_019.jpg,right,manmade,natural,NA,NA,NA,right,1059.59999999404,true,NA,NA,NA,NA,NA
sYyD0vbc,NA,NA,sYyD0vbc,2020-0188,2021-10-04,19:09:01,20:20:25,NA,incomplete,false,true,NA,8,9,origin,n_l_026.jpg,right,manmade,natural,NA,NA,NA,right,1987.90000000596,true,NA,NA,NA,NA,NA
sYyD0vbc,NA,NA,sYyD0vbc,2020-0188,2021-10-04,19:09:01,20:20:25,NA,incomplete,false,true,NA,8,10,syllable,a_2_009.jpg,right,2 syllables,1 syllable,NA,NA,NA,left,2223.69999998808,false,NA,NA,NA,NA,NA
sYyD0vbc,NA,NA,sYyD0vbc,2020-0188,2021-10-04,19:09:01,20:20:25,NA,incomplete,false,true,NA,8,11,syllable,c_1_002.jpg,right,1 syllable,2 syllables,NA,NA,NA,left,2017.89999997616,false,NA,NA,NA,NA,NA
sYyD0vbc,NA,NA,sYyD0vbc,2020-0188,2021-10-04,19:09:01,20:20:25,NA,incomplete,false,true,NA,8,12,syllable,a_1_024.jpg,right,2 syllables,1 syllable,NA,NA,NA,right,1695.90000000596,true,NA,NA,NA,NA,NA
sYyD0vbc,NA,NA,sYyD0vbc,2020-0188,2021-10-04,19:09:01,20:20:25,NA,incomplete,false,true,NA,8,13,syllable,a_2_004.jpg,right,1 syllable,2 syllables,NA,NA,NA,right,1143.39999997616,true,NA,NA,NA,NA,NA
sYyD0vbc,NA,NA,sYyD0vbc,2020-0188,2021-10-04,19:09:01,20:20:25,NA,incomplete,false,true,NA,8,14,syllable,a_1_010.jpg,right,1 syllable,2 syllables,NA,NA,NA,left,853,false,NA,NA,NA,NA,NA
sYyD0vbc,NA,NA,sYyD0vbc,2020-0188,2021-10-04,19:09:01,20:20:25,NA,incomplete,false,true,NA,8,15,abstractness,a_2_015.jpg,left,abstract,concrete,NA,NA,NA,left,2401.09999999404,true,NA,NA,NA,NA,NA
sYyD0vbc,NA,NA,sYyD0vbc,2020-0188,2021-10-04,19:09:01,20:20:25,NA,incomplete,false,true,NA,8,16,abstractness,c_2_026.jpg,left,concrete,abstract,NA,NA,NA,left,3168.19999998808,true,NA,NA,NA,NA,NA
sYyD0vbc,NA,NA,sYyD0vbc,2020-0188,2021-10-04,19:09:01,20:20:25,NA,incomplete,false,true,NA,8,17,abstractness,a_1_013.jpg,left,abstract,concrete,NA,NA,NA,left,2649.30000001192,true,NA,NA,NA,NA,NA
sYyD0vbc,NA,NA,sYyD0vbc,2020-0188,2021-10-04,19:09:01,20:20:25,NA,incomplete,false,true,NA,8,18,abstractness,a_1_023.jpg,right,concrete,abstract,NA,NA,NA,right,1534.80000001192,true,NA,NA,NA,NA,NA
sYyD0vbc,NA,NA,sYyD0vbc,2020-0188,2021-10-04,19:09:01,20:20:25,NA,incomplete,false,true,NA,8,19,abstractness,c_2_009.jpg,left,concrete,abstract,NA,NA,NA,left,965.5,true,NA,NA,NA,NA,NA
sYyD0vbc,NA,NA,sYyD0vbc,2020-0188,2021-10-04,19:09:01,20:20:25,NA,incomplete,false,true,NA,8,20,location,i_c_020.jpg,left,indoor,outdoor,NA,NA,NA,left,1286.60000002384,true,NA,NA,NA,NA,NA
sYyD0vbc,NA,NA,sYyD0vbc,2020-0188,2021-10-04,19:09:01,20:20:25,NA,incomplete,false,true,NA,8,21,location,o_s_023.jpg,right,indoor,outdoor,NA,NA,NA,right,1104.30000001192,true,NA,NA,NA,NA,NA
sYyD0vbc,NA,NA,sYyD0vbc,2020-0188,2021-10-04,19:09:01,20:20:25,NA,incomplete,false,true,NA,8,22,location,o_s_006.jpg,right,indoor,outdoor,NA,NA,NA,right,1007.59999999404,true,NA,NA,NA,NA,NA
sYyD0vbc,NA,NA,sYyD0vbc,2020-0188,2021-10-04,19:09:01,20:20:25,NA,incomplete,false,true,NA,8,23,location,i_c_001.jpg,left,indoor,outdoor,NA,NA,NA,left,930.09999999404,true,NA,NA,NA,NA,NA
sYyD0vbc,NA,NA,sYyD0vbc,2020-0188,2021-10-04,19:09:01,20:20:25,NA,incomplete,false,true,NA,8,24,location,o_s_005.jpg,right,indoor,outdoor,NA,NA,NA,right,1046.30000001192,true,NA,NA,NA,NA,NA
sYyD0vbc,NA,NA,sYyD0vbc,2020-0188,2021-10-04,19:09:01,20:20:25,NA,incomplete,false,true,NA,8,25,building,o_c_002.jpg,left,cottage,skyscraper,NA,NA,NA,left,1944.20000001788,true,NA,NA,NA,NA,NA
sYyD0vbc,NA,NA,sYyD0vbc,2020-0188,2021-10-04,19:09:01,20:20:25,NA,incomplete,false,true,NA,8,26,building,o_s_004.jpg,left,skyscraper,cottage,NA,NA,NA,left,1475.10000002384,true,NA,NA,NA,NA,NA
sYyD0vbc,NA,NA,sYyD0vbc,2020-0188,2021-10-04,19:09:01,20:20:25,NA,incomplete,false,true,NA,8,27,building,i_c_014.jpg,right,skyscraper,cottage,NA,NA,NA,right,1121.29999998212,true,NA,NA,NA,NA,NA
sYyD0vbc,NA,NA,sYyD0vbc,2020-0188,2021-10-04,19:09:01,20:20:25,NA,incomplete,false,true,NA,8,28,building,i_c_004.jpg,right,skyscraper,cottage,NA,NA,NA,right,996.199999988079,true,NA,NA,NA,NA,NA
sYyD0vbc,NA,NA,sYyD0vbc,2020-0188,2021-10-04,19:09:01,20:20:25,NA,incomplete,false,true,NA,8,29,building,i_c_006.jpg,right,skyscraper,cottage,NA,NA,NA,right,970.300000011921,true,NA,NA,NA,NA,NA
sYyD0vbc,NA,NA,sYyD0vbc,2020-0188,2021-10-04,19:09:01,20:20:25,NA,incomplete,false,NA,true,8,0,NA,NA,left,NA,NA,n_s_026.jpg,n_l_027.jpg,between-small,NA,NaN,NA,right,959.8000000119209,0,1,985.1000000238419
sYyD0vbc,NA,NA,sYyD0vbc,2020-0188,2021-10-04,19:09:01,20:20:25,NA,incomplete,false,NA,true,8,1,NA,NA,right,NA,NA,i_c_006.jpg,o_s_004.jpg,within,NA,NaN,NA,right,1876.5,1,1,1048.6000000238419
sYyD0vbc,NA,NA,sYyD0vbc,2020-0188,2021-10-04,19:09:01,20:20:25,NA,incomplete,false,NA,true,8,2,NA,NA,left,NA,NA,m_l_019.jpg,n_s_026.jpg,within,NA,NaN,NA,left,752.2999999821186,1,1,1302.0999999940395
sYyD0vbc,NA,NA,sYyD0vbc,2020-0188,2021-10-04,19:09:01,20:20:25,NA,incomplete,false,NA,true,8,3,NA,NA,right,NA,NA,i_c_020.jpg,a_1_013.jpg,between-big,NA,NaN,NA,right,1784.199999988079,1,1,987.9000000059605
sYyD0vbc,NA,NA,sYyD0vbc,2020-0188,2021-10-04,19:09:01,20:20:25,NA,incomplete,false,NA,true,8,4,NA,NA,left,NA,NA,n_s_014.jpg,m_l_017.jpg,between-small,NA,NaN,NA,left,6140.4000000059605,1,1,972.6000000238419
sYyD0vbc,NA,NA,sYyD0vbc,2020-0188,2021-10-04,19:09:01,20:20:25,NA,incomplete,false,NA,true,8,5,NA,NA,left,NA,NA,i_c_001.jpg,o_s_004.jpg,between-small,NA,NaN,NA,right,3364.7999999821186,0,1,753.4000000059605
sYyD0vbc,NA,NA,sYyD0vbc,2020-0188,2021-10-04,19:09:01,20:20:25,NA,incomplete,false,NA,true,8,6,NA,NA,left,NA,NA,o_s_006.jpg,o_c_002.jpg,between-small,NA,NaN,NA,right,3646.7000000178814,0,1,1316.800000011921
sYyD0vbc,NA,NA,sYyD0vbc,2020-0188,2021-10-04,19:09:01,20:20:25,NA,incomplete,false,NA,true,8,7,NA,NA,left,NA,NA,i_c_020.jpg,i_c_001.jpg,within,NA,NaN,NA,left,1646.0999999940395,1,1,1059
sYyD0vbc,NA,NA,sYyD0vbc,2020-0188,2021-10-04,19:09:01,20:20:25,NA,incomplete,false,NA,true,8,8,NA,NA,left,NA,NA,a_1_010.jpg,a_1_013.jpg,between-small,NA,NaN,NA,left,803.1999999880791,1,1,1075
sYyD0vbc,NA,NA,sYyD0vbc,2020-0188,2021-10-04,19:09:01,20:20:25,NA,incomplete,false,NA,true,8,9,NA,NA,left,NA,NA,n_l_027.jpg,n_l_026.jpg,within,NA,NaN,NA,left,1734.300000011921,1,1,963.2999999821186
sYyD0vbc,NA,NA,sYyD0vbc,2020-0188,2021-10-04,19:09:01,20:20:25,NA,incomplete,false,NA,true,8,10,NA,NA,left,NA,NA,c_1_002.jpg,a_1_010.jpg,within,NA,NaN,NA,left,851.8000000119209,1,1,1138.0999999940395
sYyD0vbc,NA,NA,sYyD0vbc,2020-0188,2021-10-04,19:09:01,20:20:25,NA,incomplete,false,NA,true,8,11,NA,NA,left,NA,NA,o_c_002.jpg,i_c_004.jpg,within,NA,NaN,NA,right,1742.9000000059605,0,1,986.5999999940395
sYyD0vbc,NA,NA,sYyD0vbc,2020-0188,2021-10-04,19:09:01,20:20:25,NA,incomplete,false,NA,true,8,12,NA,NA,left,NA,NA,c_2_009.jpg,o_s_006.jpg,between-big,NA,NaN,NA,left,567.5,1,1,1347.4000000059605
sYyD0vbc,NA,NA,sYyD0vbc,2020-0188,2021-10-04,19:09:01,20:20:25,NA,incomplete,false,NA,true,8,13,NA,NA,right,NA,NA,n_l_019.jpg,m_l_011.jpg,within,NA,NaN,NA,right,2111.7000000178814,1,1,921.4000000059605
sYyD0vbc,NA,NA,sYyD0vbc,2020-0188,2021-10-04,19:09:01,20:20:25,NA,incomplete,false,NA,true,8,14,NA,NA,left,NA,NA,a_2_009.jpg,a_2_004.jpg,within,NA,NaN,NA,left,6302.300000011921,1,1,1542.199999988079
sYyD0vbc,NA,NA,sYyD0vbc,2020-0188,2021-10-04,19:09:01,20:20:25,NA,incomplete,false,NA,true,8,15,NA,NA,right,NA,NA,a_1_024.jpg,n_l_026.jpg,between-big,NA,NaN,NA,right,2169.300000011921,1,1,1188.5
sYyD0vbc,NA,NA,sYyD0vbc,2020-0188,2021-10-04,19:09:01,20:20:25,NA,incomplete,false,NA,true,8,16,NA,NA,right,NA,NA,o_s_023.jpg,a_1_023.jpg,between-big,NA,NaN,NA,right,1970.699999988079,1,1,980.5
sYyD0vbc,NA,NA,sYyD0vbc,2020-0188,2021-10-04,19:09:01,20:20:25,NA,incomplete,false,NA,true,8,17,NA,NA,right,NA,NA,a_2_009.jpg,m_l_017.jpg,between-big,NA,NaN,NA,left,610.2999999821186,0,1,1107.4000000059605
sYyD0vbc,NA,NA,sYyD0vbc,2020-0188,2021-10-04,19:09:01,20:20:25,NA,incomplete,false,NA,true,8,18,NA,NA,left,NA,NA,m_l_022.jpg,n_s_014.jpg,within,NA,NaN,NA,left,649.5,1,1,1188.800000011921
sYyD0vbc,NA,NA,sYyD0vbc,2020-0188,2021-10-04,19:09:01,20:20:25,NA,incomplete,false,NA,true,8,19,NA,NA,left,NA,NA,n_l_019.jpg,c_1_002.jpg,between-big,NA,NaN,NA,left,511,1,1,881.7999999821186
sYyD0vbc,NA,NA,sYyD0vbc,2020-0188,2021-10-04,19:09:01,20:20:25,NA,incomplete,false,NA,true,8,20,NA,NA,right,NA,NA,o_s_005.jpg,o_s_023.jpg,within,NA,NaN,NA,right,490,1,1,753.0999999940395
sYyD0vbc,NA,NA,sYyD0vbc,2020-0188,2021-10-04,19:09:01,20:20:25,NA,incomplete,false,NA,true,8,21,NA,NA,right,NA,NA,c_2_026.jpg,a_2_004.jpg,between-small,NA,NaN,NA,left,544.9000000059605,0,1,809.6000000238419
sYyD0vbc,NA,NA,sYyD0vbc,2020-0188,2021-10-04,19:09:01,20:20:25,NA,incomplete,false,NA,true,8,22,NA,NA,left,NA,NA,a_2_015.jpg,a_1_023.jpg,within,NA,NaN,NA,left,1228.4000000059605,1,1,1469.9000000059605
sYyD0vbc,NA,NA,sYyD0vbc,2020-0188,2021-10-04,19:09:01,20:20:25,NA,incomplete,false,NA,true,8,23,NA,NA,right,NA,NA,i_c_014.jpg,o_s_005.jpg,between-small,NA,NaN,NA,right,1817.7000000178814,1,2,864.9000000059605
sYyD0vbc,NA,NA,sYyD0vbc,2020-0188,2021-10-04,19:09:01,20:20:25,NA,incomplete,false,NA,true,8,24,NA,NA,right,NA,NA,a_2_015.jpg,a_1_024.jpg,between-small,NA,NaN,NA,left,1783.4000000059605,0,1,1302.4000000059605
sYyD0vbc,NA,NA,sYyD0vbc,2020-0188,2021-10-04,19:09:01,20:20:25,NA,incomplete,false,NA,true,8,25,NA,NA,right,NA,NA,m_l_011.jpg,m_l_006.jpg,between-small,NA,NaN,NA,right,481,1,1,1340
sYyD0vbc,NA,NA,sYyD0vbc,2020-0188,2021-10-04,19:09:01,20:20:25,NA,incomplete,false,NA,true,8,26,NA,NA,right,NA,NA,c_2_009.jpg,c_2_026.jpg,within,NA,NaN,NA,left,1911.9000000059605,0,1,1903.4000000059605
sYyD0vbc,NA,NA,sYyD0vbc,2020-0188,2021-10-04,19:09:01,20:20:25,NA,incomplete,false,true,NA,9,0,building,o_c_011.jpg,left,cottage,skyscraper,NA,NA,NA,none,0,false,NA,NA,NA,NA,NA
sYyD0vbc,NA,NA,sYyD0vbc,2020-0188,2021-10-04,19:09:01,20:20:25,NA,incomplete,false,true,NA,9,1,building,o_c_015.jpg,left,cottage,skyscraper,NA,NA,NA,left,2004.59999999404,true,NA,NA,NA,NA,NA
