workerId,hitId,assignmentId,subject,studyid,exp_date,exp_start,exp_end,time_start,time_end,practice,encoding,memory,block,trial,event,stim,answer,label_left,label_right,left_image,right_image,condition,response,response_time,response_acc,order_response,order_response_time,order_acc,distance_response,distance_response_time
tmQImp5c,NA,NA,tmQImp5c,2020-0188,2021-11-01,23:35:14,00:38:53,NA,incomplete,true,true,NA,0,0,location,i_s_010.jpg,left,indoor,outdoor,NA,NA,NA,left,1652.59999990463,true,NA,NA,NA,NA,NA
tmQImp5c,NA,NA,tmQImp5c,2020-0188,2021-11-01,23:35:14,00:38:53,NA,incomplete,true,true,NA,0,1,location,i_c_018.jpg,left,indoor,outdoor,NA,NA,NA,left,1279.09999990463,true,NA,NA,NA,NA,NA
tmQImp5c,NA,NA,tmQImp5c,2020-0188,2021-11-01,23:35:14,00:38:53,NA,incomplete,true,true,NA,0,2,location,o_c_011.jpg,left,outdoor,indoor,NA,NA,NA,none,0,false,NA,NA,NA,NA,NA
tmQImp5c,NA,NA,tmQImp5c,2020-0188,2021-11-01,23:35:14,00:38:53,NA,incomplete,true,true,NA,0,3,location,i_c_010.jpg,right,outdoor,indoor,NA,NA,NA,left,2082.60000014305,false,NA,NA,NA,NA,NA
tmQImp5c,NA,NA,tmQImp5c,2020-0188,2021-11-01,23:35:14,00:38:53,NA,incomplete,true,true,NA,0,4,location,i_c_004.jpg,right,outdoor,indoor,NA,NA,NA,left,2571.39999985695,false,NA,NA,NA,NA,NA
tmQImp5c,NA,NA,tmQImp5c,2020-0188,2021-11-01,23:35:14,00:38:53,NA,incomplete,true,true,NA,0,5,building,o_c_005.jpg,right,skyscraper,cottage,NA,NA,NA,right,1396.09999990463,true,NA,NA,NA,NA,NA
tmQImp5c,NA,NA,tmQImp5c,2020-0188,2021-11-01,23:35:14,00:38:53,NA,incomplete,true,true,NA,0,6,building,o_c_014.jpg,left,cottage,skyscraper,NA,NA,NA,left,3244.20000004768,true,NA,NA,NA,NA,NA
tmQImp5c,NA,NA,tmQImp5c,2020-0188,2021-11-01,23:35:14,00:38:53,NA,incomplete,true,true,NA,0,7,building,o_s_017.jpg,right,cottage,skyscraper,NA,NA,NA,right,1325.69999980927,true,NA,NA,NA,NA,NA
tmQImp5c,NA,NA,tmQImp5c,2020-0188,2021-11-01,23:35:14,00:38:53,NA,incomplete,true,true,NA,0,8,building,i_s_019.jpg,right,cottage,skyscraper,NA,NA,NA,left,1969.59999990463,false,NA,NA,NA,NA,NA
tmQImp5c,NA,NA,tmQImp5c,2020-0188,2021-11-01,23:35:14,00:38:53,NA,incomplete,true,true,NA,0,9,building,i_s_012.jpg,left,skyscraper,cottage,NA,NA,NA,left,2578.09999990463,true,NA,NA,NA,NA,NA
tmQImp5c,NA,NA,tmQImp5c,2020-0188,2021-11-01,23:35:14,00:38:53,NA,incomplete,true,true,NA,0,10,origin,n_s_009.jpg,left,natural,manmade,NA,NA,NA,left,1296.5,true,NA,NA,NA,NA,NA
tmQImp5c,NA,NA,tmQImp5c,2020-0188,2021-11-01,23:35:14,00:38:53,NA,incomplete,true,true,NA,0,11,origin,m_s_004.jpg,left,manmade,natural,NA,NA,NA,left,1244.70000004768,true,NA,NA,NA,NA,NA
tmQImp5c,NA,NA,tmQImp5c,2020-0188,2021-11-01,23:35:14,00:38:53,NA,incomplete,true,true,NA,0,12,origin,n_l_009.jpg,right,manmade,natural,NA,NA,NA,right,1020.5,true,NA,NA,NA,NA,NA
tmQImp5c,NA,NA,tmQImp5c,2020-0188,2021-11-01,23:35:14,00:38:53,NA,incomplete,true,true,NA,0,13,origin,n_s_022.jpg,right,manmade,natural,NA,NA,NA,right,1783.69999980927,true,NA,NA,NA,NA,NA
tmQImp5c,NA,NA,tmQImp5c,2020-0188,2021-11-01,23:35:14,00:38:53,NA,incomplete,true,true,NA,0,14,origin,n_l_012.jpg,left,natural,manmade,NA,NA,NA,left,1169.39999985695,true,NA,NA,NA,NA,NA
tmQImp5c,NA,NA,tmQImp5c,2020-0188,2021-11-01,23:35:14,00:38:53,NA,incomplete,true,true,NA,0,15,size,n_s_006.jpg,right,large,small,NA,NA,NA,right,1866.70000004768,true,NA,NA,NA,NA,NA
tmQImp5c,NA,NA,tmQImp5c,2020-0188,2021-11-01,23:35:14,00:38:53,NA,incomplete,true,true,NA,0,16,size,m_l_027.jpg,right,small,large,NA,NA,NA,right,1216.09999990463,true,NA,NA,NA,NA,NA
tmQImp5c,NA,NA,tmQImp5c,2020-0188,2021-11-01,23:35:14,00:38:53,NA,incomplete,true,true,NA,0,17,size,m_l_020.jpg,right,small,large,NA,NA,NA,right,2208.60000014305,true,NA,NA,NA,NA,NA
tmQImp5c,NA,NA,tmQImp5c,2020-0188,2021-11-01,23:35:14,00:38:53,NA,incomplete,true,true,NA,0,18,size,m_l_019.jpg,right,small,large,NA,NA,NA,right,2129,true,NA,NA,NA,NA,NA
tmQImp5c,NA,NA,tmQImp5c,2020-0188,2021-11-01,23:35:14,00:38:53,NA,incomplete,true,true,NA,0,19,size,n_s_001.jpg,right,large,small,NA,NA,NA,right,1132,true,NA,NA,NA,NA,NA
tmQImp5c,NA,NA,tmQImp5c,2020-0188,2021-11-01,23:35:14,00:38:53,NA,incomplete,true,true,NA,0,20,syllable,a_1_010.jpg,right,2 syllables,1 syllable,NA,NA,NA,right,1569.5,true,NA,NA,NA,NA,NA
tmQImp5c,NA,NA,tmQImp5c,2020-0188,2021-11-01,23:35:14,00:38:53,NA,incomplete,true,true,NA,0,21,syllable,a_1_004.jpg,right,1 syllable,2 syllables,NA,NA,NA,left,1156.5,false,NA,NA,NA,NA,NA
tmQImp5c,NA,NA,tmQImp5c,2020-0188,2021-11-01,23:35:14,00:38:53,NA,incomplete,true,true,NA,0,22,syllable,c_1_009.jpg,right,2 syllables,1 syllable,NA,NA,NA,right,930.399999856949,true,NA,NA,NA,NA,NA
tmQImp5c,NA,NA,tmQImp5c,2020-0188,2021-11-01,23:35:14,00:38:53,NA,incomplete,true,true,NA,0,23,syllable,c_2_012.jpg,right,2 syllables,1 syllable,NA,NA,NA,left,1128.39999985695,false,NA,NA,NA,NA,NA
tmQImp5c,NA,NA,tmQImp5c,2020-0188,2021-11-01,23:35:14,00:38:53,NA,incomplete,true,true,NA,0,24,syllable,c_2_013.jpg,right,1 syllable,2 syllables,NA,NA,NA,right,896.799999952316,true,NA,NA,NA,NA,NA
tmQImp5c,NA,NA,tmQImp5c,2020-0188,2021-11-01,23:35:14,00:38:53,NA,incomplete,true,true,NA,0,25,abstractness,c_1_013.jpg,right,abstract,concrete,NA,NA,NA,right,2211.70000004768,true,NA,NA,NA,NA,NA
tmQImp5c,NA,NA,tmQImp5c,2020-0188,2021-11-01,23:35:14,00:38:53,NA,incomplete,true,true,NA,0,26,abstractness,a_2_020.jpg,right,concrete,abstract,NA,NA,NA,right,2539.5,true,NA,NA,NA,NA,NA
tmQImp5c,NA,NA,tmQImp5c,2020-0188,2021-11-01,23:35:14,00:38:53,NA,incomplete,true,true,NA,0,27,abstractness,a_2_022.jpg,right,concrete,abstract,NA,NA,NA,right,1271.59999990463,true,NA,NA,NA,NA,NA
tmQImp5c,NA,NA,tmQImp5c,2020-0188,2021-11-01,23:35:14,00:38:53,NA,incomplete,true,true,NA,0,28,abstractness,a_2_004.jpg,left,abstract,concrete,NA,NA,NA,left,1578.60000014305,true,NA,NA,NA,NA,NA
tmQImp5c,NA,NA,tmQImp5c,2020-0188,2021-11-01,23:35:14,00:38:53,NA,incomplete,true,true,NA,0,29,abstractness,c_2_018.jpg,right,abstract,concrete,NA,NA,NA,right,1380.40000009537,true,NA,NA,NA,NA,NA
tmQImp5c,NA,NA,tmQImp5c,2020-0188,2021-11-01,23:35:14,00:38:53,NA,incomplete,true,NA,true,0,0,NA,NA,right,NA,NA,a_2_020.jpg,c_2_012.jpg,between-small,NA,NaN,NA,right,8042.599999904633,1,2,6525.400000095367
tmQImp5c,NA,NA,tmQImp5c,2020-0188,2021-11-01,23:35:14,00:38:53,NA,incomplete,true,NA,true,0,1,NA,NA,right,NA,NA,a_2_004.jpg,c_1_013.jpg,within,NA,NaN,NA,right,5908.300000190735,1,0,3620.7000000476837
tmQImp5c,NA,NA,tmQImp5c,2020-0188,2021-11-01,23:35:14,00:38:53,NA,incomplete,true,NA,true,0,2,NA,NA,left,NA,NA,c_1_009.jpg,c_1_013.jpg,between-small,NA,NaN,NA,left,4086.2000000476837,1,1,4666.400000095367
tmQImp5c,NA,NA,tmQImp5c,2020-0188,2021-11-01,23:35:14,00:38:53,NA,incomplete,true,NA,true,0,3,NA,NA,left,NA,NA,m_s_004.jpg,n_l_012.jpg,within,NA,NaN,NA,right,6312.799999952316,0,2,3135.0999999046326
tmQImp5c,NA,NA,tmQImp5c,2020-0188,2021-11-01,23:35:14,00:38:53,NA,incomplete,true,NA,true,0,4,NA,NA,right,NA,NA,n_s_006.jpg,n_l_009.jpg,between-small,NA,NaN,NA,left,1460.8999998569489,0,0,2301.5
tmQImp5c,NA,NA,tmQImp5c,2020-0188,2021-11-01,23:35:14,00:38:53,NA,incomplete,true,NA,true,0,5,NA,NA,right,NA,NA,a_1_004.jpg,m_l_019.jpg,between-big,NA,NaN,NA,right,2459.100000143051,1,2,2380.899999856949
tmQImp5c,NA,NA,tmQImp5c,2020-0188,2021-11-01,23:35:14,00:38:53,NA,incomplete,true,NA,true,0,6,NA,NA,left,NA,NA,i_c_018.jpg,i_c_004.jpg,within,NA,NaN,NA,right,3949.600000143051,0,0,3178.100000143051
tmQImp5c,NA,NA,tmQImp5c,2020-0188,2021-11-01,23:35:14,00:38:53,NA,incomplete,true,NA,true,0,7,NA,NA,left,NA,NA,i_c_010.jpg,o_c_014.jpg,between-small,NA,NaN,NA,right,2515.7000000476837,0,0,1953.1000001430511
tmQImp5c,NA,NA,tmQImp5c,2020-0188,2021-11-01,23:35:14,00:38:53,NA,incomplete,true,NA,true,0,8,NA,NA,right,NA,NA,m_l_019.jpg,n_s_006.jpg,within,NA,NaN,NA,right,2459.600000143051,1,1,1445.7999999523163
tmQImp5c,NA,NA,tmQImp5c,2020-0188,2021-11-01,23:35:14,00:38:53,NA,incomplete,true,NA,true,0,9,NA,NA,right,NA,NA,a_1_010.jpg,m_l_020.jpg,between-big,NA,NaN,NA,right,2473.600000143051,1,2,1253.4000000953674
tmQImp5c,NA,NA,tmQImp5c,2020-0188,2021-11-01,23:35:14,00:38:53,NA,incomplete,true,NA,true,0,10,NA,NA,left,NA,NA,a_1_004.jpg,c_2_013.jpg,within,NA,NaN,NA,left,3198.800000190735,1,1,2194.5
tmQImp5c,NA,NA,tmQImp5c,2020-0188,2021-11-01,23:35:14,00:38:53,NA,incomplete,true,NA,true,0,11,NA,NA,left,NA,NA,i_s_010.jpg,i_c_010.jpg,within,NA,NaN,NA,right,2615.7000000476837,0,2,2906.7999999523163
tmQImp5c,NA,NA,tmQImp5c,2020-0188,2021-11-01,23:35:14,00:38:53,NA,incomplete,true,NA,true,0,12,NA,NA,left,NA,NA,n_l_012.jpg,m_l_020.jpg,between-small,NA,NaN,NA,left,4598.299999952316,1,0,1126.8999998569489
tmQImp5c,NA,NA,tmQImp5c,2020-0188,2021-11-01,23:35:14,00:38:53,NA,incomplete,true,NA,true,0,13,NA,NA,right,NA,NA,n_s_001.jpg,m_l_027.jpg,within,NA,NaN,NA,right,4292.099999904633,1,0,1511
tmQImp5c,NA,NA,tmQImp5c,2020-0188,2021-11-01,23:35:14,00:38:53,NA,incomplete,true,NA,true,0,14,NA,NA,left,NA,NA,n_s_001.jpg,c_1_009.jpg,between-big,NA,NaN,NA,left,1696.5,1,2,2373
tmQImp5c,NA,NA,tmQImp5c,2020-0188,2021-11-01,23:35:14,00:38:53,NA,incomplete,true,NA,true,0,15,NA,NA,left,NA,NA,i_s_019.jpg,m_s_004.jpg,between-big,NA,NaN,NA,left,1639.5,1,2,1612
tmQImp5c,NA,NA,tmQImp5c,2020-0188,2021-11-01,23:35:14,00:38:53,NA,incomplete,true,NA,true,0,16,NA,NA,left,NA,NA,o_s_017.jpg,n_s_009.jpg,between-big,NA,NaN,NA,left,1630.7000000476837,1,2,1896.0999999046326
tmQImp5c,NA,NA,tmQImp5c,2020-0188,2021-11-01,23:35:14,00:38:53,NA,incomplete,true,NA,true,0,17,NA,NA,right,NA,NA,m_l_027.jpg,n_s_022.jpg,between-small,NA,NaN,NA,right,5980.799999952316,1,2,1654.9000000953674
tmQImp5c,NA,NA,tmQImp5c,2020-0188,2021-11-01,23:35:14,00:38:53,NA,incomplete,true,NA,true,0,18,NA,NA,right,NA,NA,c_2_012.jpg,a_1_010.jpg,within,NA,NaN,NA,right,2601.100000143051,1,0,1674
tmQImp5c,NA,NA,tmQImp5c,2020-0188,2021-11-01,23:35:14,00:38:53,NA,incomplete,true,NA,true,0,19,NA,NA,left,NA,NA,o_c_014.jpg,i_s_012.jpg,within,NA,NaN,NA,right,2624.7000000476837,0,0,2101.5
tmQImp5c,NA,NA,tmQImp5c,2020-0188,2021-11-01,23:35:14,00:38:53,NA,incomplete,true,NA,true,0,20,NA,NA,right,NA,NA,o_c_005.jpg,o_c_011.jpg,between-small,NA,NaN,NA,left,20923.099999904633,0,1,3021.899999856949
tmQImp5c,NA,NA,tmQImp5c,2020-0188,2021-11-01,23:35:14,00:38:53,NA,incomplete,true,NA,true,0,21,NA,NA,right,NA,NA,i_s_019.jpg,o_c_005.jpg,within,NA,NaN,NA,left,3236.5999999046326,0,1,1026.1000001430511
tmQImp5c,NA,NA,tmQImp5c,2020-0188,2021-11-01,23:35:14,00:38:53,NA,incomplete,true,NA,true,0,22,NA,NA,right,NA,NA,n_l_009.jpg,i_s_012.jpg,between-big,NA,NaN,NA,right,3508.0999999046326,1,2,1567.0999999046326
tmQImp5c,NA,NA,tmQImp5c,2020-0188,2021-11-01,23:35:14,00:38:53,NA,incomplete,true,NA,true,0,23,NA,NA,left,NA,NA,c_2_013.jpg,a_2_022.jpg,between-small,NA,NaN,NA,right,2893.5999999046326,0,1,2044.8999998569489
tmQImp5c,NA,NA,tmQImp5c,2020-0188,2021-11-01,23:35:14,00:38:53,NA,incomplete,true,NA,true,0,24,NA,NA,right,NA,NA,n_s_022.jpg,n_s_009.jpg,within,NA,NaN,NA,right,3589.2999999523163,1,0,2424.199999809265
tmQImp5c,NA,NA,tmQImp5c,2020-0188,2021-11-01,23:35:14,00:38:53,NA,incomplete,true,NA,true,0,25,NA,NA,right,NA,NA,c_2_018.jpg,a_2_020.jpg,within,NA,NaN,NA,left,2345.7999999523163,0,0,1859.2000000476837
tmQImp5c,NA,NA,tmQImp5c,2020-0188,2021-11-01,23:35:14,00:38:53,NA,incomplete,true,NA,true,0,26,NA,NA,left,NA,NA,i_c_004.jpg,o_s_017.jpg,between-small,NA,NaN,NA,left,3920.399999856949,1,0,1233.2000000476837
tmQImp5c,NA,NA,tmQImp5c,2020-0188,2021-11-01,23:35:14,00:38:53,NA,incomplete,false,true,NA,1,0,location,i_c_024.jpg,right,outdoor,indoor,NA,NA,NA,right,3276.79999995232,true,NA,NA,NA,NA,NA
tmQImp5c,NA,NA,tmQImp5c,2020-0188,2021-11-01,23:35:14,00:38:53,NA,incomplete,false,true,NA,1,1,location,i_c_023.jpg,right,outdoor,indoor,NA,NA,NA,right,3288.80000019073,true,NA,NA,NA,NA,NA
tmQImp5c,NA,NA,tmQImp5c,2020-0188,2021-11-01,23:35:14,00:38:53,NA,incomplete,false,true,NA,1,2,location,i_c_017.jpg,right,outdoor,indoor,NA,NA,NA,right,1185.90000009537,true,NA,NA,NA,NA,NA
tmQImp5c,NA,NA,tmQImp5c,2020-0188,2021-11-01,23:35:14,00:38:53,NA,incomplete,false,true,NA,1,3,location,i_s_009.jpg,left,indoor,outdoor,NA,NA,NA,left,2064.79999995232,true,NA,NA,NA,NA,NA
tmQImp5c,NA,NA,tmQImp5c,2020-0188,2021-11-01,23:35:14,00:38:53,NA,incomplete,false,true,NA,1,4,location,i_c_008.jpg,left,indoor,outdoor,NA,NA,NA,left,1340,true,NA,NA,NA,NA,NA
tmQImp5c,NA,NA,tmQImp5c,2020-0188,2021-11-01,23:35:14,00:38:53,NA,incomplete,false,true,NA,1,5,building,i_c_016.jpg,right,skyscraper,cottage,NA,NA,NA,right,2228.09999990463,true,NA,NA,NA,NA,NA
tmQImp5c,NA,NA,tmQImp5c,2020-0188,2021-11-01,23:35:14,00:38:53,NA,incomplete,false,true,NA,1,6,building,o_s_010.jpg,right,cottage,skyscraper,NA,NA,NA,right,1455.40000009537,true,NA,NA,NA,NA,NA
tmQImp5c,NA,NA,tmQImp5c,2020-0188,2021-11-01,23:35:14,00:38:53,NA,incomplete,false,true,NA,1,7,building,o_c_016.jpg,left,cottage,skyscraper,NA,NA,NA,left,1034.89999985695,true,NA,NA,NA,NA,NA
tmQImp5c,NA,NA,tmQImp5c,2020-0188,2021-11-01,23:35:14,00:38:53,NA,incomplete,false,true,NA,1,8,building,o_c_007.jpg,left,cottage,skyscraper,NA,NA,NA,left,1036.40000009537,true,NA,NA,NA,NA,NA
tmQImp5c,NA,NA,tmQImp5c,2020-0188,2021-11-01,23:35:14,00:38:53,NA,incomplete,false,true,NA,1,9,building,i_s_021.jpg,right,cottage,skyscraper,NA,NA,NA,right,2368.60000014305,true,NA,NA,NA,NA,NA
tmQImp5c,NA,NA,tmQImp5c,2020-0188,2021-11-01,23:35:14,00:38:53,NA,incomplete,false,true,NA,1,10,size,m_s_017.jpg,left,small,large,NA,NA,NA,right,18.7000000476837,false,NA,NA,NA,NA,NA
tmQImp5c,NA,NA,tmQImp5c,2020-0188,2021-11-01,23:35:14,00:38:53,NA,incomplete,false,true,NA,1,11,size,n_l_024.jpg,right,small,large,NA,NA,NA,right,1602.90000009537,true,NA,NA,NA,NA,NA
tmQImp5c,NA,NA,tmQImp5c,2020-0188,2021-11-01,23:35:14,00:38:53,NA,incomplete,false,true,NA,1,12,size,n_s_008.jpg,right,large,small,NA,NA,NA,right,1042.60000014305,true,NA,NA,NA,NA,NA
tmQImp5c,NA,NA,tmQImp5c,2020-0188,2021-11-01,23:35:14,00:38:53,NA,incomplete,false,true,NA,1,13,size,n_s_012.jpg,right,large,small,NA,NA,NA,right,1282.59999990463,true,NA,NA,NA,NA,NA
tmQImp5c,NA,NA,tmQImp5c,2020-0188,2021-11-01,23:35:14,00:38:53,NA,incomplete,false,true,NA,1,14,size,n_l_008.jpg,right,small,large,NA,NA,NA,right,1345.90000009537,true,NA,NA,NA,NA,NA
tmQImp5c,NA,NA,tmQImp5c,2020-0188,2021-11-01,23:35:14,00:38:53,NA,incomplete,false,true,NA,1,15,origin,m_s_007.jpg,left,manmade,natural,NA,NA,NA,left,1651.80000019073,true,NA,NA,NA,NA,NA
tmQImp5c,NA,NA,tmQImp5c,2020-0188,2021-11-01,23:35:14,00:38:53,NA,incomplete,false,true,NA,1,16,origin,n_l_020.jpg,right,manmade,natural,NA,NA,NA,right,1295.40000009537,true,NA,NA,NA,NA,NA
tmQImp5c,NA,NA,tmQImp5c,2020-0188,2021-11-01,23:35:14,00:38:53,NA,incomplete,false,true,NA,1,17,origin,m_l_008.jpg,right,natural,manmade,NA,NA,NA,right,1289.10000014305,true,NA,NA,NA,NA,NA
tmQImp5c,NA,NA,tmQImp5c,2020-0188,2021-11-01,23:35:14,00:38:53,NA,incomplete,false,true,NA,1,18,origin,m_s_025.jpg,right,natural,manmade,NA,NA,NA,left,1545.20000004768,false,NA,NA,NA,NA,NA
tmQImp5c,NA,NA,tmQImp5c,2020-0188,2021-11-01,23:35:14,00:38:53,NA,incomplete,false,true,NA,1,19,origin,m_l_026.jpg,right,natural,manmade,NA,NA,NA,right,1492.69999980927,true,NA,NA,NA,NA,NA
tmQImp5c,NA,NA,tmQImp5c,2020-0188,2021-11-01,23:35:14,00:38:53,NA,incomplete,false,true,NA,1,20,abstractness,a_2_015.jpg,right,concrete,abstract,NA,NA,NA,right,2481.39999985695,true,NA,NA,NA,NA,NA
tmQImp5c,NA,NA,tmQImp5c,2020-0188,2021-11-01,23:35:14,00:38:53,NA,incomplete,false,true,NA,1,21,abstractness,a_2_021.jpg,left,abstract,concrete,NA,NA,NA,left,2459.59999990463,true,NA,NA,NA,NA,NA
tmQImp5c,NA,NA,tmQImp5c,2020-0188,2021-11-01,23:35:14,00:38:53,NA,incomplete,false,true,NA,1,22,abstractness,a_1_007.jpg,right,concrete,abstract,NA,NA,NA,right,1532.90000009537,true,NA,NA,NA,NA,NA
tmQImp5c,NA,NA,tmQImp5c,2020-0188,2021-11-01,23:35:14,00:38:53,NA,incomplete,false,true,NA,1,23,abstractness,a_2_005.jpg,left,abstract,concrete,NA,NA,NA,right,2363.70000004768,false,NA,NA,NA,NA,NA
tmQImp5c,NA,NA,tmQImp5c,2020-0188,2021-11-01,23:35:14,00:38:53,NA,incomplete,false,true,NA,1,24,abstractness,c_1_026.jpg,right,abstract,concrete,NA,NA,NA,right,1598.79999995232,true,NA,NA,NA,NA,NA
tmQImp5c,NA,NA,tmQImp5c,2020-0188,2021-11-01,23:35:14,00:38:53,NA,incomplete,false,true,NA,1,25,syllable,c_2_026.jpg,right,2 syllables,1 syllable,NA,NA,NA,left,2018.5,false,NA,NA,NA,NA,NA
tmQImp5c,NA,NA,tmQImp5c,2020-0188,2021-11-01,23:35:14,00:38:53,NA,incomplete,false,true,NA,1,26,syllable,c_2_009.jpg,right,1 syllable,2 syllables,NA,NA,NA,right,1833,true,NA,NA,NA,NA,NA
tmQImp5c,NA,NA,tmQImp5c,2020-0188,2021-11-01,23:35:14,00:38:53,NA,incomplete,false,true,NA,1,27,syllable,a_1_005.jpg,right,1 syllable,2 syllables,NA,NA,NA,left,1422.79999995232,false,NA,NA,NA,NA,NA
tmQImp5c,NA,NA,tmQImp5c,2020-0188,2021-11-01,23:35:14,00:38:53,NA,incomplete,false,true,NA,1,28,syllable,c_2_027.jpg,right,1 syllable,2 syllables,NA,NA,NA,right,1163.59999990463,true,NA,NA,NA,NA,NA
tmQImp5c,NA,NA,tmQImp5c,2020-0188,2021-11-01,23:35:14,00:38:53,NA,incomplete,false,true,NA,1,29,syllable,c_1_028.jpg,right,1 syllable,2 syllables,NA,NA,NA,left,1126.5,false,NA,NA,NA,NA,NA
tmQImp5c,NA,NA,tmQImp5c,2020-0188,2021-11-01,23:35:14,00:38:53,NA,incomplete,false,NA,true,1,0,NA,NA,left,NA,NA,a_2_015.jpg,a_2_005.jpg,within,NA,NaN,NA,left,3926.9000000953674,1,0,6096.099999904633
tmQImp5c,NA,NA,tmQImp5c,2020-0188,2021-11-01,23:35:14,00:38:53,NA,incomplete,false,NA,true,1,1,NA,NA,left,NA,NA,c_1_026.jpg,a_1_005.jpg,between-small,NA,NaN,NA,left,5791.799999952316,1,1,1054.8999998569489
tmQImp5c,NA,NA,tmQImp5c,2020-0188,2021-11-01,23:35:14,00:38:53,NA,incomplete,false,NA,true,1,2,NA,NA,left,NA,NA,c_2_009.jpg,c_1_028.jpg,within,NA,NaN,NA,left,2637.2000000476837,1,0,1710.2000000476837
tmQImp5c,NA,NA,tmQImp5c,2020-0188,2021-11-01,23:35:14,00:38:53,NA,incomplete,false,NA,true,1,3,NA,NA,left,NA,NA,i_c_016.jpg,o_c_007.jpg,within,NA,NaN,NA,left,2104,1,1,6373.900000095367
tmQImp5c,NA,NA,tmQImp5c,2020-0188,2021-11-01,23:35:14,00:38:53,NA,incomplete,false,NA,true,1,4,NA,NA,right,NA,NA,i_c_008.jpg,i_c_023.jpg,within,NA,NaN,NA,right,4919.699999809265,1,0,2952.2000000476837
tmQImp5c,NA,NA,tmQImp5c,2020-0188,2021-11-01,23:35:14,00:38:53,NA,incomplete,false,NA,true,1,5,NA,NA,right,NA,NA,n_s_008.jpg,i_s_021.jpg,between-big,NA,NaN,NA,right,2267.100000143051,1,2,1488.5999999046326
tmQImp5c,NA,NA,tmQImp5c,2020-0188,2021-11-01,23:35:14,00:38:53,NA,incomplete,false,NA,true,1,6,NA,NA,right,NA,NA,n_l_024.jpg,o_c_007.jpg,between-big,NA,NaN,NA,right,1303.5,1,2,2502.699999809265
tmQImp5c,NA,NA,tmQImp5c,2020-0188,2021-11-01,23:35:14,00:38:53,NA,incomplete,false,NA,true,1,7,NA,NA,left,NA,NA,m_l_008.jpg,a_2_015.jpg,between-big,NA,NaN,NA,left,1294.7000000476837,1,2,1133.3000001907349
tmQImp5c,NA,NA,tmQImp5c,2020-0188,2021-11-01,23:35:14,00:38:53,NA,incomplete,false,NA,true,1,8,NA,NA,right,NA,NA,n_s_012.jpg,m_s_017.jpg,within,NA,NaN,NA,right,4071.7000000476837,1,0,1268.5
tmQImp5c,NA,NA,tmQImp5c,2020-0188,2021-11-01,23:35:14,00:38:53,NA,incomplete,false,NA,true,1,9,NA,NA,right,NA,NA,a_1_007.jpg,m_l_026.jpg,between-big,NA,NaN,NA,right,1482.5,1,3,3236.7999999523163
tmQImp5c,NA,NA,tmQImp5c,2020-0188,2021-11-01,23:35:14,00:38:53,NA,incomplete,false,NA,true,1,10,NA,NA,left,NA,NA,o_c_016.jpg,m_s_017.jpg,between-big,NA,NaN,NA,left,1432.7999999523163,1,1,4469.5
tmQImp5c,NA,NA,tmQImp5c,2020-0188,2021-11-01,23:35:14,00:38:53,NA,incomplete,false,NA,true,1,11,NA,NA,right,NA,NA,n_l_020.jpg,n_s_012.jpg,between-small,NA,NaN,NA,left,3792.4000000953674,0,1,4327.200000047684
tmQImp5c,NA,NA,tmQImp5c,2020-0188,2021-11-01,23:35:14,00:38:53,NA,incomplete,false,NA,true,1,12,NA,NA,right,NA,NA,o_s_010.jpg,i_s_009.jpg,between-small,NA,NaN,NA,right,1418,1,0,2009.5
tmQImp5c,NA,NA,tmQImp5c,2020-0188,2021-11-01,23:35:14,00:38:53,NA,incomplete,false,NA,true,1,13,NA,NA,left,NA,NA,n_l_020.jpg,m_l_026.jpg,within,NA,NaN,NA,right,1317.4000000953674,0,1,1611.2999999523163
tmQImp5c,NA,NA,tmQImp5c,2020-0188,2021-11-01,23:35:14,00:38:53,NA,incomplete,false,NA,true,1,14,NA,NA,right,NA,NA,c_2_026.jpg,a_1_007.jpg,between-small,NA,NaN,NA,right,1883.5,1,1,3001.5999999046326
tmQImp5c,NA,NA,tmQImp5c,2020-0188,2021-11-01,23:35:14,00:38:53,NA,incomplete,false,NA,true,1,15,NA,NA,right,NA,NA,c_1_026.jpg,a_2_021.jpg,within,NA,NaN,NA,right,2964.2000000476837,1,1,1839.1000001430511
tmQImp5c,NA,NA,tmQImp5c,2020-0188,2021-11-01,23:35:14,00:38:53,NA,incomplete,false,NA,true,1,16,NA,NA,right,NA,NA,m_s_007.jpg,n_s_008.jpg,between-small,NA,NaN,NA,right,3878.4000000953674,1,1,1304.7999999523163
tmQImp5c,NA,NA,tmQImp5c,2020-0188,2021-11-01,23:35:14,00:38:53,NA,incomplete,false,NA,true,1,17,NA,NA,left,NA,NA,o_s_010.jpg,i_s_021.jpg,within,NA,NaN,NA,left,1944.5,1,1,1392.2999999523163
tmQImp5c,NA,NA,tmQImp5c,2020-0188,2021-11-01,23:35:14,00:38:53,NA,incomplete,false,NA,true,1,18,NA,NA,right,NA,NA,n_l_008.jpg,n_l_024.jpg,within,NA,NaN,NA,left,4356.700000047684,0,0,1780.5999999046326
tmQImp5c,NA,NA,tmQImp5c,2020-0188,2021-11-01,23:35:14,00:38:53,NA,incomplete,false,NA,true,1,19,NA,NA,right,NA,NA,i_c_016.jpg,i_c_017.jpg,between-small,NA,NaN,NA,left,1693.7000000476837,0,0,1634.2999999523163
tmQImp5c,NA,NA,tmQImp5c,2020-0188,2021-11-01,23:35:14,00:38:53,NA,incomplete,false,NA,true,1,20,NA,NA,left,NA,NA,c_2_026.jpg,c_2_027.jpg,within,NA,NaN,NA,right,2957.300000190735,0,0,1483.4000000953674
tmQImp5c,NA,NA,tmQImp5c,2020-0188,2021-11-01,23:35:14,00:38:53,NA,incomplete,false,NA,true,1,21,NA,NA,right,NA,NA,c_2_009.jpg,a_2_005.jpg,between-small,NA,NaN,NA,right,3259.2999999523163,1,1,1505.6000001430511
tmQImp5c,NA,NA,tmQImp5c,2020-0188,2021-11-01,23:35:14,00:38:53,NA,incomplete,false,NA,true,1,22,NA,NA,left,NA,NA,i_c_024.jpg,i_s_009.jpg,within,NA,NaN,NA,right,4242,0,1,3053.0999999046326
tmQImp5c,NA,NA,tmQImp5c,2020-0188,2021-11-01,23:35:14,00:38:53,NA,incomplete,false,NA,true,1,23,NA,NA,right,NA,NA,o_c_016.jpg,i_c_008.jpg,between-small,NA,NaN,NA,left,5054.600000143051,0,1,3199.7000000476837
tmQImp5c,NA,NA,tmQImp5c,2020-0188,2021-11-01,23:35:14,00:38:53,NA,incomplete,false,NA,true,1,24,NA,NA,right,NA,NA,a_2_021.jpg,m_s_025.jpg,between-big,NA,NaN,NA,right,26950.599999904633,1,3,1567.0999999046326
tmQImp5c,NA,NA,tmQImp5c,2020-0188,2021-11-01,23:35:14,00:38:53,NA,incomplete,false,NA,true,1,25,NA,NA,left,NA,NA,n_l_008.jpg,m_l_008.jpg,between-small,NA,NaN,NA,right,6943.299999952316,0,0,2273.7000000476837
tmQImp5c,NA,NA,tmQImp5c,2020-0188,2021-11-01,23:35:14,00:38:53,NA,incomplete,false,NA,true,1,26,NA,NA,right,NA,NA,m_s_025.jpg,m_s_007.jpg,within,NA,NaN,NA,right,1575.1999998092651,1,0,4534.800000190735
tmQImp5c,NA,NA,tmQImp5c,2020-0188,2021-11-01,23:35:14,00:38:53,NA,incomplete,false,true,NA,2,0,size,n_s_028.jpg,right,large,small,NA,NA,NA,none,0,false,NA,NA,NA,NA,NA
tmQImp5c,NA,NA,tmQImp5c,2020-0188,2021-11-01,23:35:14,00:38:53,NA,incomplete,false,true,NA,2,1,size,m_s_011.jpg,right,large,small,NA,NA,NA,none,0,false,NA,NA,NA,NA,NA
tmQImp5c,NA,NA,tmQImp5c,2020-0188,2021-11-01,23:35:14,00:38:53,NA,incomplete,false,true,NA,2,2,size,m_l_028.jpg,left,large,small,NA,NA,NA,left,1941.5,true,NA,NA,NA,NA,NA
tmQImp5c,NA,NA,tmQImp5c,2020-0188,2021-11-01,23:35:14,00:38:53,NA,incomplete,false,true,NA,2,3,size,m_l_006.jpg,right,small,large,NA,NA,NA,right,2002.40000009537,true,NA,NA,NA,NA,NA
tmQImp5c,NA,NA,tmQImp5c,2020-0188,2021-11-01,23:35:14,00:38:53,NA,incomplete,false,true,NA,2,4,size,m_s_018.jpg,left,small,large,NA,NA,NA,left,1563.29999995232,true,NA,NA,NA,NA,NA
tmQImp5c,NA,NA,tmQImp5c,2020-0188,2021-11-01,23:35:14,00:38:53,NA,incomplete,false,true,NA,2,5,origin,n_l_004.jpg,right,manmade,natural,NA,NA,NA,right,2216.5,true,NA,NA,NA,NA,NA
tmQImp5c,NA,NA,tmQImp5c,2020-0188,2021-11-01,23:35:14,00:38:53,NA,incomplete,false,true,NA,2,6,origin,m_l_007.jpg,right,natural,manmade,NA,NA,NA,right,1788.79999995232,true,NA,NA,NA,NA,NA
tmQImp5c,NA,NA,tmQImp5c,2020-0188,2021-11-01,23:35:14,00:38:53,NA,incomplete,false,true,NA,2,7,origin,m_l_012.jpg,left,manmade,natural,NA,NA,NA,left,1212.20000004768,true,NA,NA,NA,NA,NA
tmQImp5c,NA,NA,tmQImp5c,2020-0188,2021-11-01,23:35:14,00:38:53,NA,incomplete,false,true,NA,2,8,origin,n_l_026.jpg,right,manmade,natural,NA,NA,NA,right,1151.90000009537,true,NA,NA,NA,NA,NA
tmQImp5c,NA,NA,tmQImp5c,2020-0188,2021-11-01,23:35:14,00:38:53,NA,incomplete,false,true,NA,2,9,origin,n_l_019.jpg,right,manmade,natural,NA,NA,NA,right,2059.29999995232,true,NA,NA,NA,NA,NA
tmQImp5c,NA,NA,tmQImp5c,2020-0188,2021-11-01,23:35:14,00:38:53,NA,incomplete,false,true,NA,2,10,syllable,c_2_016.jpg,right,1 syllable,2 syllables,NA,NA,NA,right,2594,true,NA,NA,NA,NA,NA
tmQImp5c,NA,NA,tmQImp5c,2020-0188,2021-11-01,23:35:14,00:38:53,NA,incomplete,false,true,NA,2,11,syllable,c_2_011.jpg,right,1 syllable,2 syllables,NA,NA,NA,right,1038.09999990463,true,NA,NA,NA,NA,NA
tmQImp5c,NA,NA,tmQImp5c,2020-0188,2021-11-01,23:35:14,00:38:53,NA,incomplete,false,true,NA,2,12,syllable,a_1_019.jpg,right,1 syllable,2 syllables,NA,NA,NA,left,2614.20000004768,false,NA,NA,NA,NA,NA
tmQImp5c,NA,NA,tmQImp5c,2020-0188,2021-11-01,23:35:14,00:38:53,NA,incomplete,false,true,NA,2,13,syllable,a_1_025.jpg,right,2 syllables,1 syllable,NA,NA,NA,right,1008,true,NA,NA,NA,NA,NA
tmQImp5c,NA,NA,tmQImp5c,2020-0188,2021-11-01,23:35:14,00:38:53,NA,incomplete,false,true,NA,2,14,syllable,c_2_015.jpg,right,2 syllables,1 syllable,NA,NA,NA,left,996.200000047684,false,NA,NA,NA,NA,NA
tmQImp5c,NA,NA,tmQImp5c,2020-0188,2021-11-01,23:35:14,00:38:53,NA,incomplete,false,true,NA,2,15,abstractness,c_1_005.jpg,right,abstract,concrete,NA,NA,NA,right,2447.5,true,NA,NA,NA,NA,NA
tmQImp5c,NA,NA,tmQImp5c,2020-0188,2021-11-01,23:35:14,00:38:53,NA,incomplete,false,true,NA,2,16,abstractness,c_2_025.jpg,right,abstract,concrete,NA,NA,NA,right,2391.90000009537,true,NA,NA,NA,NA,NA
tmQImp5c,NA,NA,tmQImp5c,2020-0188,2021-11-01,23:35:14,00:38:53,NA,incomplete,false,true,NA,2,17,abstractness,c_1_018.jpg,left,concrete,abstract,NA,NA,NA,left,1927.59999990463,true,NA,NA,NA,NA,NA
tmQImp5c,NA,NA,tmQImp5c,2020-0188,2021-11-01,23:35:14,00:38:53,NA,incomplete,false,true,NA,2,18,abstractness,a_2_014.jpg,left,abstract,concrete,NA,NA,NA,left,2005.5,true,NA,NA,NA,NA,NA
tmQImp5c,NA,NA,tmQImp5c,2020-0188,2021-11-01,23:35:14,00:38:53,NA,incomplete,false,true,NA,2,19,abstractness,a_1_011.jpg,right,concrete,abstract,NA,NA,NA,right,2706.80000019073,true,NA,NA,NA,NA,NA
tmQImp5c,NA,NA,tmQImp5c,2020-0188,2021-11-01,23:35:14,00:38:53,NA,incomplete,false,true,NA,2,20,location,o_s_005.jpg,right,indoor,outdoor,NA,NA,NA,right,1822.20000004768,true,NA,NA,NA,NA,NA
tmQImp5c,NA,NA,tmQImp5c,2020-0188,2021-11-01,23:35:14,00:38:53,NA,incomplete,false,true,NA,2,21,location,o_c_021.jpg,right,indoor,outdoor,NA,NA,NA,right,1836.29999995232,true,NA,NA,NA,NA,NA
tmQImp5c,NA,NA,tmQImp5c,2020-0188,2021-11-01,23:35:14,00:38:53,NA,incomplete,false,true,NA,2,22,location,i_c_002.jpg,left,indoor,outdoor,NA,NA,NA,left,1978.89999985695,true,NA,NA,NA,NA,NA
tmQImp5c,NA,NA,tmQImp5c,2020-0188,2021-11-01,23:35:14,00:38:53,NA,incomplete,false,true,NA,2,23,location,i_s_020.jpg,left,indoor,outdoor,NA,NA,NA,left,1720.09999990463,true,NA,NA,NA,NA,NA
tmQImp5c,NA,NA,tmQImp5c,2020-0188,2021-11-01,23:35:14,00:38:53,NA,incomplete,false,true,NA,2,24,location,i_s_016.jpg,left,indoor,outdoor,NA,NA,NA,left,2032.40000009537,true,NA,NA,NA,NA,NA
tmQImp5c,NA,NA,tmQImp5c,2020-0188,2021-11-01,23:35:14,00:38:53,NA,incomplete,false,true,NA,2,25,building,o_s_026.jpg,right,cottage,skyscraper,NA,NA,NA,right,1741.79999995232,true,NA,NA,NA,NA,NA
tmQImp5c,NA,NA,tmQImp5c,2020-0188,2021-11-01,23:35:14,00:38:53,NA,incomplete,false,true,NA,2,26,building,o_s_028.jpg,left,skyscraper,cottage,NA,NA,NA,left,2503,true,NA,NA,NA,NA,NA
tmQImp5c,NA,NA,tmQImp5c,2020-0188,2021-11-01,23:35:14,00:38:53,NA,incomplete,false,true,NA,2,27,building,i_c_001.jpg,left,cottage,skyscraper,NA,NA,NA,none,0,false,NA,NA,NA,NA,NA
tmQImp5c,NA,NA,tmQImp5c,2020-0188,2021-11-01,23:35:14,00:38:53,NA,incomplete,false,true,NA,2,28,building,i_c_003.jpg,right,skyscraper,cottage,NA,NA,NA,right,1544.09999990463,true,NA,NA,NA,NA,NA
tmQImp5c,NA,NA,tmQImp5c,2020-0188,2021-11-01,23:35:14,00:38:53,NA,incomplete,false,true,NA,2,29,building,o_s_013.jpg,left,skyscraper,cottage,NA,NA,NA,left,1832.5,true,NA,NA,NA,NA,NA
tmQImp5c,NA,NA,tmQImp5c,2020-0188,2021-11-01,23:35:14,00:38:53,NA,incomplete,false,NA,true,2,0,NA,NA,right,NA,NA,n_l_019.jpg,m_l_007.jpg,within,NA,NaN,NA,left,8087.600000143051,0,2,1638.2000000476837
tmQImp5c,NA,NA,tmQImp5c,2020-0188,2021-11-01,23:35:14,00:38:53,NA,incomplete,false,NA,true,2,1,NA,NA,left,NA,NA,c_1_018.jpg,o_s_005.jpg,between-big,NA,NaN,NA,left,3037.5999999046326,1,3,1832.5
tmQImp5c,NA,NA,tmQImp5c,2020-0188,2021-11-01,23:35:14,00:38:53,NA,incomplete,false,NA,true,2,2,NA,NA,left,NA,NA,m_s_011.jpg,m_s_018.jpg,within,NA,NaN,NA,right,4207.299999952316,0,0,1461.4000000953674
tmQImp5c,NA,NA,tmQImp5c,2020-0188,2021-11-01,23:35:14,00:38:53,NA,incomplete,false,NA,true,2,3,NA,NA,left,NA,NA,c_2_025.jpg,a_1_011.jpg,within,NA,NaN,NA,left,2702,1,3,1576.2999999523163
tmQImp5c,NA,NA,tmQImp5c,2020-0188,2021-11-01,23:35:14,00:38:53,NA,incomplete,false,NA,true,2,4,NA,NA,right,NA,NA,n_l_004.jpg,m_l_028.jpg,between-small,NA,NaN,NA,right,2745,1,2,1689.2000000476837
tmQImp5c,NA,NA,tmQImp5c,2020-0188,2021-11-01,23:35:14,00:38:53,NA,incomplete,false,NA,true,2,5,NA,NA,left,NA,NA,i_s_016.jpg,i_c_001.jpg,between-small,NA,NaN,NA,left,3577.5999999046326,1,0,1354.6000001430511
tmQImp5c,NA,NA,tmQImp5c,2020-0188,2021-11-01,23:35:14,00:38:53,NA,incomplete,false,NA,true,2,6,NA,NA,right,NA,NA,i_s_016.jpg,o_c_021.jpg,within,NA,NaN,NA,right,2351.300000190735,1,1,1689.2000000476837
tmQImp5c,NA,NA,tmQImp5c,2020-0188,2021-11-01,23:35:14,00:38:53,NA,incomplete,false,NA,true,2,7,NA,NA,left,NA,NA,i_c_002.jpg,o_s_026.jpg,between-small,NA,NaN,NA,left,1752.5999999046326,1,2,2039.5
tmQImp5c,NA,NA,tmQImp5c,2020-0188,2021-11-01,23:35:14,00:38:53,NA,incomplete,false,NA,true,2,8,NA,NA,left,NA,NA,c_1_005.jpg,a_2_014.jpg,within,NA,NaN,NA,right,3307.4000000953674,0,2,1055.7000000476837
tmQImp5c,NA,NA,tmQImp5c,2020-0188,2021-11-01,23:35:14,00:38:53,NA,incomplete,false,NA,true,2,9,NA,NA,right,NA,NA,i_s_020.jpg,o_s_005.jpg,within,NA,NaN,NA,left,2281.5,0,0,3635.5
tmQImp5c,NA,NA,tmQImp5c,2020-0188,2021-11-01,23:35:14,00:38:53,NA,incomplete,false,NA,true,2,10,NA,NA,right,NA,NA,c_2_025.jpg,a_1_025.jpg,between-small,NA,NaN,NA,left,3521.7000000476837,0,2,1174.4000000953674
tmQImp5c,NA,NA,tmQImp5c,2020-0188,2021-11-01,23:35:14,00:38:53,NA,incomplete,false,NA,true,2,11,NA,NA,right,NA,NA,m_l_012.jpg,m_s_018.jpg,between-small,NA,NaN,NA,right,1625.2999999523163,1,0,2196.7000000476837
tmQImp5c,NA,NA,tmQImp5c,2020-0188,2021-11-01,23:35:14,00:38:53,NA,incomplete,false,NA,true,2,12,NA,NA,right,NA,NA,a_1_025.jpg,c_2_016.jpg,within,NA,NaN,NA,right,1562,1,1,1326.5
tmQImp5c,NA,NA,tmQImp5c,2020-0188,2021-11-01,23:35:14,00:38:53,NA,incomplete,false,NA,true,2,13,NA,NA,right,NA,NA,c_1_005.jpg,a_1_019.jpg,between-small,NA,NaN,NA,right,2566.100000143051,1,2,3886.9000000953674
tmQImp5c,NA,NA,tmQImp5c,2020-0188,2021-11-01,23:35:14,00:38:53,NA,incomplete,false,NA,true,2,14,NA,NA,right,NA,NA,o_c_021.jpg,a_2_014.jpg,between-big,NA,NaN,NA,right,1745.4000000953674,1,3,1830.7999999523163
tmQImp5c,NA,NA,tmQImp5c,2020-0188,2021-11-01,23:35:14,00:38:53,NA,incomplete,false,NA,true,2,15,NA,NA,left,NA,NA,n_l_026.jpg,c_2_011.jpg,between-big,NA,NaN,NA,right,1562.6000001430511,0,2,1417
tmQImp5c,NA,NA,tmQImp5c,2020-0188,2021-11-01,23:35:14,00:38:53,NA,incomplete,false,NA,true,2,16,NA,NA,right,NA,NA,n_l_026.jpg,n_l_004.jpg,within,NA,NaN,NA,left,1746.2999999523163,0,0,2316.7000000476837
tmQImp5c,NA,NA,tmQImp5c,2020-0188,2021-11-01,23:35:14,00:38:53,NA,incomplete,false,NA,true,2,17,NA,NA,right,NA,NA,c_2_015.jpg,c_2_011.jpg,within,NA,NaN,NA,right,1232,1,2,1247.1999998092651
tmQImp5c,NA,NA,tmQImp5c,2020-0188,2021-11-01,23:35:14,00:38:53,NA,incomplete,false,NA,true,2,18,NA,NA,right,NA,NA,i_c_002.jpg,a_1_011.jpg,between-big,NA,NaN,NA,left,1570.7000000476837,0,1,1525
tmQImp5c,NA,NA,tmQImp5c,2020-0188,2021-11-01,23:35:14,00:38:53,NA,incomplete,false,NA,true,2,19,NA,NA,left,NA,NA,c_2_015.jpg,c_1_018.jpg,between-small,NA,NaN,NA,left,2058.7000000476837,1,0,4085.399999856949
tmQImp5c,NA,NA,tmQImp5c,2020-0188,2021-11-01,23:35:14,00:38:53,NA,incomplete,false,NA,true,2,20,NA,NA,right,NA,NA,c_2_016.jpg,m_l_012.jpg,between-big,NA,NaN,NA,right,1047.7000000476837,1,1,1961.4000000953674
tmQImp5c,NA,NA,tmQImp5c,2020-0188,2021-11-01,23:35:14,00:38:53,NA,incomplete,false,NA,true,2,21,NA,NA,left,NA,NA,n_l_019.jpg,a_1_019.jpg,between-big,NA,NaN,NA,left,1982.5,1,3,1148.2999999523163
tmQImp5c,NA,NA,tmQImp5c,2020-0188,2021-11-01,23:35:14,00:38:53,NA,incomplete,false,NA,true,2,22,NA,NA,left,NA,NA,m_l_006.jpg,m_l_007.jpg,between-small,NA,NaN,NA,left,1759.4000000953674,1,1,2560.699999809265
tmQImp5c,NA,NA,tmQImp5c,2020-0188,2021-11-01,23:35:14,00:38:53,NA,incomplete,false,NA,true,2,23,NA,NA,right,NA,NA,m_l_006.jpg,n_s_028.jpg,within,NA,NaN,NA,right,941.3000001907349,1,0,1716.5999999046326
tmQImp5c,NA,NA,tmQImp5c,2020-0188,2021-11-01,23:35:14,00:38:53,NA,incomplete,false,NA,true,2,24,NA,NA,right,NA,NA,o_s_028.jpg,i_s_020.jpg,between-small,NA,NaN,NA,left,1611.7999999523163,0,1,2373.2999999523163
tmQImp5c,NA,NA,tmQImp5c,2020-0188,2021-11-01,23:35:14,00:38:53,NA,incomplete,false,NA,true,2,25,NA,NA,right,NA,NA,i_c_003.jpg,o_s_026.jpg,within,NA,NaN,NA,left,2424,0,1,1503.4000000953674
tmQImp5c,NA,NA,tmQImp5c,2020-0188,2021-11-01,23:35:14,00:38:53,NA,incomplete,false,NA,true,2,26,NA,NA,left,NA,NA,o_s_028.jpg,o_s_013.jpg,within,NA,NaN,NA,left,3195.0999999046326,1,0,2601.9000000953674
tmQImp5c,NA,NA,tmQImp5c,2020-0188,2021-11-01,23:35:14,00:38:53,NA,incomplete,false,true,NA,3,0,abstractness,c_2_002.jpg,left,concrete,abstract,NA,NA,NA,right,3135.69999980927,false,NA,NA,NA,NA,NA
tmQImp5c,NA,NA,tmQImp5c,2020-0188,2021-11-01,23:35:14,00:38:53,NA,incomplete,false,true,NA,3,1,abstractness,a_1_026.jpg,right,concrete,abstract,NA,NA,NA,right,2755.59999990463,true,NA,NA,NA,NA,NA
tmQImp5c,NA,NA,tmQImp5c,2020-0188,2021-11-01,23:35:14,00:38:53,NA,incomplete,false,true,NA,3,2,abstractness,a_2_013.jpg,right,concrete,abstract,NA,NA,NA,right,2157.79999995232,true,NA,NA,NA,NA,NA
tmQImp5c,NA,NA,tmQImp5c,2020-0188,2021-11-01,23:35:14,00:38:53,NA,incomplete,false,true,NA,3,3,abstractness,c_2_022.jpg,left,concrete,abstract,NA,NA,NA,left,1352.80000019073,true,NA,NA,NA,NA,NA
tmQImp5c,NA,NA,tmQImp5c,2020-0188,2021-11-01,23:35:14,00:38:53,NA,incomplete,false,true,NA,3,4,abstractness,a_1_008.jpg,left,abstract,concrete,NA,NA,NA,left,1543.20000004768,true,NA,NA,NA,NA,NA
tmQImp5c,NA,NA,tmQImp5c,2020-0188,2021-11-01,23:35:14,00:38:53,NA,incomplete,false,true,NA,3,5,syllable,a_2_008.jpg,right,2 syllables,1 syllable,NA,NA,NA,left,1429.20000004768,false,NA,NA,NA,NA,NA
tmQImp5c,NA,NA,tmQImp5c,2020-0188,2021-11-01,23:35:14,00:38:53,NA,incomplete,false,true,NA,3,6,syllable,a_1_027.jpg,right,1 syllable,2 syllables,NA,NA,NA,left,1382.80000019073,false,NA,NA,NA,NA,NA
tmQImp5c,NA,NA,tmQImp5c,2020-0188,2021-11-01,23:35:14,00:38:53,NA,incomplete,false,true,NA,3,7,syllable,a_2_027.jpg,right,2 syllables,1 syllable,NA,NA,NA,left,1616,false,NA,NA,NA,NA,NA
tmQImp5c,NA,NA,tmQImp5c,2020-0188,2021-11-01,23:35:14,00:38:53,NA,incomplete,false,true,NA,3,8,syllable,c_1_027.jpg,right,2 syllables,1 syllable,NA,NA,NA,right,1775.60000014305,true,NA,NA,NA,NA,NA
tmQImp5c,NA,NA,tmQImp5c,2020-0188,2021-11-01,23:35:14,00:38:53,NA,incomplete,false,true,NA,3,9,syllable,a_2_019.jpg,right,2 syllables,1 syllable,NA,NA,NA,left,1399,false,NA,NA,NA,NA,NA
tmQImp5c,NA,NA,tmQImp5c,2020-0188,2021-11-01,23:35:14,00:38:53,NA,incomplete,false,true,NA,3,10,size,m_s_024.jpg,left,small,large,NA,NA,NA,left,2599.59999990463,true,NA,NA,NA,NA,NA
tmQImp5c,NA,NA,tmQImp5c,2020-0188,2021-11-01,23:35:14,00:38:53,NA,incomplete,false,true,NA,3,11,size,m_s_009.jpg,left,small,large,NA,NA,NA,left,3069.5,true,NA,NA,NA,NA,NA
tmQImp5c,NA,NA,tmQImp5c,2020-0188,2021-11-01,23:35:14,00:38:53,NA,incomplete,false,true,NA,3,12,size,n_s_005.jpg,left,small,large,NA,NA,NA,left,2778.60000014305,true,NA,NA,NA,NA,NA
tmQImp5c,NA,NA,tmQImp5c,2020-0188,2021-11-01,23:35:14,00:38:53,NA,incomplete,false,true,NA,3,13,size,n_l_001.jpg,right,small,large,NA,NA,NA,right,1767,true,NA,NA,NA,NA,NA
tmQImp5c,NA,NA,tmQImp5c,2020-0188,2021-11-01,23:35:14,00:38:53,NA,incomplete,false,true,NA,3,14,size,m_s_021.jpg,right,large,small,NA,NA,NA,right,1538.60000014305,true,NA,NA,NA,NA,NA
tmQImp5c,NA,NA,tmQImp5c,2020-0188,2021-11-01,23:35:14,00:38:53,NA,incomplete,false,true,NA,3,15,origin,m_l_001.jpg,left,manmade,natural,NA,NA,NA,left,1675.29999995232,true,NA,NA,NA,NA,NA
tmQImp5c,NA,NA,tmQImp5c,2020-0188,2021-11-01,23:35:14,00:38:53,NA,incomplete,false,true,NA,3,16,origin,n_s_026.jpg,right,manmade,natural,NA,NA,NA,right,1810.20000004768,true,NA,NA,NA,NA,NA
tmQImp5c,NA,NA,tmQImp5c,2020-0188,2021-11-01,23:35:14,00:38:53,NA,incomplete,false,true,NA,3,17,origin,n_s_024.jpg,left,natural,manmade,NA,NA,NA,left,1402.60000014305,true,NA,NA,NA,NA,NA
tmQImp5c,NA,NA,tmQImp5c,2020-0188,2021-11-01,23:35:14,00:38:53,NA,incomplete,false,true,NA,3,18,origin,n_s_021.jpg,right,manmade,natural,NA,NA,NA,right,1650.40000009537,true,NA,NA,NA,NA,NA
tmQImp5c,NA,NA,tmQImp5c,2020-0188,2021-11-01,23:35:14,00:38:53,NA,incomplete,false,true,NA,3,19,origin,n_l_013.jpg,right,manmade,natural,NA,NA,NA,right,1616.5,true,NA,NA,NA,NA,NA
tmQImp5c,NA,NA,tmQImp5c,2020-0188,2021-11-01,23:35:14,00:38:53,NA,incomplete,false,true,NA,3,20,building,o_c_010.jpg,right,skyscraper,cottage,NA,NA,NA,right,1450.10000014305,true,NA,NA,NA,NA,NA
tmQImp5c,NA,NA,tmQImp5c,2020-0188,2021-11-01,23:35:14,00:38:53,NA,incomplete,false,true,NA,3,21,building,i_s_001.jpg,left,skyscraper,cottage,NA,NA,NA,left,1569.59999990463,true,NA,NA,NA,NA,NA
tmQImp5c,NA,NA,tmQImp5c,2020-0188,2021-11-01,23:35:14,00:38:53,NA,incomplete,false,true,NA,3,22,building,o_s_015.jpg,left,skyscraper,cottage,NA,NA,NA,left,2232.19999980927,true,NA,NA,NA,NA,NA
tmQImp5c,NA,NA,tmQImp5c,2020-0188,2021-11-01,23:35:14,00:38:53,NA,incomplete,false,true,NA,3,23,building,o_s_018.jpg,left,skyscraper,cottage,NA,NA,NA,left,1286.89999985695,true,NA,NA,NA,NA,NA
tmQImp5c,NA,NA,tmQImp5c,2020-0188,2021-11-01,23:35:14,00:38:53,NA,incomplete,false,true,NA,3,24,building,o_s_004.jpg,right,cottage,skyscraper,NA,NA,NA,right,2090.79999995232,true,NA,NA,NA,NA,NA
tmQImp5c,NA,NA,tmQImp5c,2020-0188,2021-11-01,23:35:14,00:38:53,NA,incomplete,false,true,NA,3,25,location,i_c_012.jpg,right,outdoor,indoor,NA,NA,NA,right,1657.60000014305,true,NA,NA,NA,NA,NA
tmQImp5c,NA,NA,tmQImp5c,2020-0188,2021-11-01,23:35:14,00:38:53,NA,incomplete,false,true,NA,3,26,location,i_s_028.jpg,right,outdoor,indoor,NA,NA,NA,right,1448.20000004768,true,NA,NA,NA,NA,NA
tmQImp5c,NA,NA,tmQImp5c,2020-0188,2021-11-01,23:35:14,00:38:53,NA,incomplete,false,true,NA,3,27,location,i_c_005.jpg,right,outdoor,indoor,NA,NA,NA,right,3122.39999985695,true,NA,NA,NA,NA,NA
tmQImp5c,NA,NA,tmQImp5c,2020-0188,2021-11-01,23:35:14,00:38:53,NA,incomplete,false,true,NA,3,28,location,i_c_020.jpg,right,outdoor,indoor,NA,NA,NA,right,1729.5,true,NA,NA,NA,NA,NA
tmQImp5c,NA,NA,tmQImp5c,2020-0188,2021-11-01,23:35:14,00:38:53,NA,incomplete,false,true,NA,3,29,location,o_c_025.jpg,left,outdoor,indoor,NA,NA,NA,left,1034.20000004768,true,NA,NA,NA,NA,NA
tmQImp5c,NA,NA,tmQImp5c,2020-0188,2021-11-01,23:35:14,00:38:53,NA,incomplete,false,NA,true,3,0,NA,NA,left,NA,NA,i_s_028.jpg,o_c_025.jpg,within,NA,NaN,NA,left,31238.400000095367,1,1,2161.7000000476837
tmQImp5c,NA,NA,tmQImp5c,2020-0188,2021-11-01,23:35:14,00:38:53,NA,incomplete,false,NA,true,3,1,NA,NA,right,NA,NA,o_c_010.jpg,n_s_024.jpg,between-big,NA,NaN,NA,left,1469.6000001430511,0,1,10305.900000095367
tmQImp5c,NA,NA,tmQImp5c,2020-0188,2021-11-01,23:35:14,00:38:53,NA,incomplete,false,NA,true,3,2,NA,NA,left,NA,NA,o_s_015.jpg,i_c_012.jpg,between-small,NA,NaN,NA,left,4392.900000095367,1,0,917.9000000953674
tmQImp5c,NA,NA,tmQImp5c,2020-0188,2021-11-01,23:35:14,00:38:53,NA,incomplete,false,NA,true,3,3,NA,NA,right,NA,NA,m_l_001.jpg,n_s_005.jpg,between-small,NA,NaN,NA,left,2381.4000000953674,0,1,1440.6999998092651
tmQImp5c,NA,NA,tmQImp5c,2020-0188,2021-11-01,23:35:14,00:38:53,NA,incomplete,false,NA,true,3,4,NA,NA,left,NA,NA,a_2_008.jpg,c_1_027.jpg,within,NA,NaN,NA,left,14805.100000143051,1,1,2019.4000000953674
tmQImp5c,NA,NA,tmQImp5c,2020-0188,2021-11-01,23:35:14,00:38:53,NA,incomplete,false,NA,true,3,5,NA,NA,right,NA,NA,n_s_005.jpg,a_2_019.jpg,between-big,NA,NaN,NA,left,6652.600000143051,0,2,1732.6999998092651
tmQImp5c,NA,NA,tmQImp5c,2020-0188,2021-11-01,23:35:14,00:38:53,NA,incomplete,false,NA,true,3,6,NA,NA,right,NA,NA,m_s_009.jpg,c_1_027.jpg,between-big,NA,NaN,NA,left,8487.200000047684,0,2,1569.2999999523163
tmQImp5c,NA,NA,tmQImp5c,2020-0188,2021-11-01,23:35:14,00:38:53,NA,incomplete,false,NA,true,3,7,NA,NA,left,NA,NA,a_2_013.jpg,a_2_008.jpg,between-small,NA,NaN,NA,left,9662.900000095367,1,1,1069.2000000476837
tmQImp5c,NA,NA,tmQImp5c,2020-0188,2021-11-01,23:35:14,00:38:53,NA,incomplete,false,NA,true,3,8,NA,NA,right,NA,NA,c_2_022.jpg,c_2_002.jpg,within,NA,NaN,NA,left,2502.5,0,1,1582.7000000476837
tmQImp5c,NA,NA,tmQImp5c,2020-0188,2021-11-01,23:35:14,00:38:53,NA,incomplete,false,NA,true,3,9,NA,NA,left,NA,NA,m_l_001.jpg,n_s_021.jpg,within,NA,NaN,NA,right,6055.700000047684,0,0,3600.2000000476837
tmQImp5c,NA,NA,tmQImp5c,2020-0188,2021-11-01,23:35:14,00:38:53,NA,incomplete,false,NA,true,3,10,NA,NA,right,NA,NA,o_s_004.jpg,i_s_001.jpg,within,NA,NaN,NA,left,1917.8000001907349,0,1,1253.4000000953674
tmQImp5c,NA,NA,tmQImp5c,2020-0188,2021-11-01,23:35:14,00:38:53,NA,incomplete,false,NA,true,3,11,NA,NA,left,NA,NA,o_s_004.jpg,i_c_005.jpg,between-small,NA,NaN,NA,right,5347.5,0,1,1153.7000000476837
tmQImp5c,NA,NA,tmQImp5c,2020-0188,2021-11-01,23:35:14,00:38:53,NA,incomplete,false,NA,true,3,12,NA,NA,left,NA,NA,n_s_021.jpg,i_s_001.jpg,between-big,NA,NaN,NA,right,2247.399999856949,0,1,1004.4000000953674
tmQImp5c,NA,NA,tmQImp5c,2020-0188,2021-11-01,23:35:14,00:38:53,NA,incomplete,false,NA,true,3,13,NA,NA,left,NA,NA,m_s_024.jpg,n_l_001.jpg,within,NA,NaN,NA,left,4956.399999856949,1,0,1167
tmQImp5c,NA,NA,tmQImp5c,2020-0188,2021-11-01,23:35:14,00:38:53,NA,incomplete,false,NA,true,3,14,NA,NA,left,NA,NA,n_l_001.jpg,n_s_026.jpg,between-small,NA,NaN,NA,left,4479.800000190735,1,0,2303.2999999523163
tmQImp5c,NA,NA,tmQImp5c,2020-0188,2021-11-01,23:35:14,00:38:53,NA,incomplete,false,NA,true,3,15,NA,NA,left,NA,NA,o_c_010.jpg,o_s_018.jpg,within,NA,NaN,NA,left,16522.5,1,0,2838.5999999046326
tmQImp5c,NA,NA,tmQImp5c,2020-0188,2021-11-01,23:35:14,00:38:53,NA,incomplete,false,NA,true,3,16,NA,NA,left,NA,NA,m_s_021.jpg,n_s_024.jpg,between-small,NA,NaN,NA,left,9960.799999952316,1,0,2345.7000000476837
tmQImp5c,NA,NA,tmQImp5c,2020-0188,2021-11-01,23:35:14,00:38:53,NA,incomplete,false,NA,true,3,17,NA,NA,left,NA,NA,a_1_026.jpg,a_1_008.jpg,within,NA,NaN,NA,left,8650,1,1,4349.300000190735
tmQImp5c,NA,NA,tmQImp5c,2020-0188,2021-11-01,23:35:14,00:38:53,NA,incomplete,false,NA,true,3,18,NA,NA,left,NA,NA,a_1_008.jpg,a_2_027.jpg,between-small,NA,NaN,NA,left,8427.200000047684,1,1,14530.899999856949
tmQImp5c,NA,NA,tmQImp5c,2020-0188,2021-11-01,23:35:14,00:38:53,NA,incomplete,false,NA,true,3,19,NA,NA,left,NA,NA,n_s_026.jpg,n_l_013.jpg,within,NA,NaN,NA,right,1816.3000001907349,0,0,2410.2999999523163
tmQImp5c,NA,NA,tmQImp5c,2020-0188,2021-11-01,23:35:14,00:38:53,NA,incomplete,false,NA,true,3,20,NA,NA,right,NA,NA,o_s_015.jpg,n_l_013.jpg,between-big,NA,NaN,NA,left,846.5,0,2,2330.2999999523163
tmQImp5c,NA,NA,tmQImp5c,2020-0188,2021-11-01,23:35:14,00:38:53,NA,incomplete,false,NA,true,3,21,NA,NA,right,NA,NA,i_s_028.jpg,o_s_018.jpg,between-small,NA,NaN,NA,left,1019.2000000476837,0,0,1195.3000001907349
tmQImp5c,NA,NA,tmQImp5c,2020-0188,2021-11-01,23:35:14,00:38:53,NA,incomplete,false,NA,true,3,22,NA,NA,left,NA,NA,a_2_027.jpg,m_s_024.jpg,between-big,NA,NaN,NA,right,1211.6000001430511,0,3,1102.7000000476837
tmQImp5c,NA,NA,tmQImp5c,2020-0188,2021-11-01,23:35:14,00:38:53,NA,incomplete,false,NA,true,3,23,NA,NA,right,NA,NA,i_c_020.jpg,i_c_012.jpg,within,NA,NaN,NA,left,884.4000000953674,0,1,912.2000000476837
tmQImp5c,NA,NA,tmQImp5c,2020-0188,2021-11-01,23:35:14,00:38:53,NA,incomplete,false,NA,true,3,24,NA,NA,left,NA,NA,c_2_022.jpg,a_1_027.jpg,between-small,NA,NaN,NA,left,1625.2000000476837,1,0,2274.7000000476837
tmQImp5c,NA,NA,tmQImp5c,2020-0188,2021-11-01,23:35:14,00:38:53,NA,incomplete,false,NA,true,3,25,NA,NA,left,NA,NA,a_1_027.jpg,a_2_019.jpg,within,NA,NaN,NA,right,900,0,0,1722.6999998092651
tmQImp5c,NA,NA,tmQImp5c,2020-0188,2021-11-01,23:35:14,00:38:53,NA,incomplete,false,NA,true,3,26,NA,NA,left,NA,NA,m_s_009.jpg,m_s_021.jpg,within,NA,NaN,NA,left,1946.7999999523163,1,1,1147.1000001430511
tmQImp5c,NA,NA,tmQImp5c,2020-0188,2021-11-01,23:35:14,00:38:53,NA,incomplete,false,true,NA,4,0,building,o_s_014.jpg,left,skyscraper,cottage,NA,NA,NA,left,1959.59999990463,true,NA,NA,NA,NA,NA
tmQImp5c,NA,NA,tmQImp5c,2020-0188,2021-11-01,23:35:14,00:38:53,NA,incomplete,false,true,NA,4,1,building,o_s_024.jpg,left,skyscraper,cottage,NA,NA,NA,left,1294,true,NA,NA,NA,NA,NA
tmQImp5c,NA,NA,tmQImp5c,2020-0188,2021-11-01,23:35:14,00:38:53,NA,incomplete,false,true,NA,4,2,building,o_s_003.jpg,right,cottage,skyscraper,NA,NA,NA,right,1220.5,true,NA,NA,NA,NA,NA
tmQImp5c,NA,NA,tmQImp5c,2020-0188,2021-11-01,23:35:14,00:38:53,NA,incomplete,false,true,NA,4,3,building,i_c_007.jpg,right,skyscraper,cottage,NA,NA,NA,right,1635.20000004768,true,NA,NA,NA,NA,NA
tmQImp5c,NA,NA,tmQImp5c,2020-0188,2021-11-01,23:35:14,00:38:53,NA,incomplete,false,true,NA,4,4,building,o_s_027.jpg,right,cottage,skyscraper,NA,NA,NA,right,869.200000047684,true,NA,NA,NA,NA,NA
tmQImp5c,NA,NA,tmQImp5c,2020-0188,2021-11-01,23:35:14,00:38:53,NA,incomplete,false,true,NA,4,5,location,o_s_009.jpg,left,outdoor,indoor,NA,NA,NA,left,1932,true,NA,NA,NA,NA,NA
tmQImp5c,NA,NA,tmQImp5c,2020-0188,2021-11-01,23:35:14,00:38:53,NA,incomplete,false,true,NA,4,6,location,o_s_016.jpg,left,outdoor,indoor,NA,NA,NA,left,1463.90000009537,true,NA,NA,NA,NA,NA
tmQImp5c,NA,NA,tmQImp5c,2020-0188,2021-11-01,23:35:14,00:38:53,NA,incomplete,false,true,NA,4,7,location,o_c_027.jpg,left,outdoor,indoor,NA,NA,NA,left,1815.90000009537,true,NA,NA,NA,NA,NA
tmQImp5c,NA,NA,tmQImp5c,2020-0188,2021-11-01,23:35:14,00:38:53,NA,incomplete,false,true,NA,4,8,location,o_s_019.jpg,right,indoor,outdoor,NA,NA,NA,right,1661.19999980927,true,NA,NA,NA,NA,NA
tmQImp5c,NA,NA,tmQImp5c,2020-0188,2021-11-01,23:35:14,00:38:53,NA,incomplete,false,true,NA,4,9,location,o_s_007.jpg,left,outdoor,indoor,NA,NA,NA,left,1553,true,NA,NA,NA,NA,NA
tmQImp5c,NA,NA,tmQImp5c,2020-0188,2021-11-01,23:35:14,00:38:53,NA,incomplete,false,true,NA,4,10,origin,n_l_016.jpg,left,natural,manmade,NA,NA,NA,left,2037,true,NA,NA,NA,NA,NA
tmQImp5c,NA,NA,tmQImp5c,2020-0188,2021-11-01,23:35:14,00:38:53,NA,incomplete,false,true,NA,4,11,origin,n_l_027.jpg,right,manmade,natural,NA,NA,NA,right,1985.70000004768,true,NA,NA,NA,NA,NA
tmQImp5c,NA,NA,tmQImp5c,2020-0188,2021-11-01,23:35:14,00:38:53,NA,incomplete,false,true,NA,4,12,origin,m_s_002.jpg,right,natural,manmade,NA,NA,NA,right,1167.89999985695,true,NA,NA,NA,NA,NA
tmQImp5c,NA,NA,tmQImp5c,2020-0188,2021-11-01,23:35:14,00:38:53,NA,incomplete,false,true,NA,4,13,origin,m_s_028.jpg,right,natural,manmade,NA,NA,NA,right,1944.30000019073,true,NA,NA,NA,NA,NA
tmQImp5c,NA,NA,tmQImp5c,2020-0188,2021-11-01,23:35:14,00:38:53,NA,incomplete,false,true,NA,4,14,origin,m_s_014.jpg,left,manmade,natural,NA,NA,NA,left,1831.20000004768,true,NA,NA,NA,NA,NA
tmQImp5c,NA,NA,tmQImp5c,2020-0188,2021-11-01,23:35:14,00:38:53,NA,incomplete,false,true,NA,4,15,size,m_s_022.jpg,left,small,large,NA,NA,NA,left,2648.5,true,NA,NA,NA,NA,NA
tmQImp5c,NA,NA,tmQImp5c,2020-0188,2021-11-01,23:35:14,00:38:53,NA,incomplete,false,true,NA,4,16,size,m_s_005.jpg,left,small,large,NA,NA,NA,left,1942.5,true,NA,NA,NA,NA,NA
tmQImp5c,NA,NA,tmQImp5c,2020-0188,2021-11-01,23:35:14,00:38:53,NA,incomplete,false,true,NA,4,17,size,n_l_007.jpg,left,large,small,NA,NA,NA,left,1260.30000019073,true,NA,NA,NA,NA,NA
tmQImp5c,NA,NA,tmQImp5c,2020-0188,2021-11-01,23:35:14,00:38:53,NA,incomplete,false,true,NA,4,18,size,m_s_027.jpg,left,small,large,NA,NA,NA,left,1699.59999990463,true,NA,NA,NA,NA,NA
tmQImp5c,NA,NA,tmQImp5c,2020-0188,2021-11-01,23:35:14,00:38:53,NA,incomplete,false,true,NA,4,19,size,m_s_003.jpg,left,small,large,NA,NA,NA,left,1334,true,NA,NA,NA,NA,NA
tmQImp5c,NA,NA,tmQImp5c,2020-0188,2021-11-01,23:35:14,00:38:53,NA,incomplete,false,true,NA,4,20,syllable,a_1_014.jpg,right,2 syllables,1 syllable,NA,NA,NA,right,1719.5,true,NA,NA,NA,NA,NA
tmQImp5c,NA,NA,tmQImp5c,2020-0188,2021-11-01,23:35:14,00:38:53,NA,incomplete,false,true,NA,4,21,syllable,c_1_015.jpg,right,1 syllable,2 syllables,NA,NA,NA,left,1710.5,false,NA,NA,NA,NA,NA
tmQImp5c,NA,NA,tmQImp5c,2020-0188,2021-11-01,23:35:14,00:38:53,NA,incomplete,false,true,NA,4,22,syllable,c_1_001.jpg,right,2 syllables,1 syllable,NA,NA,NA,right,1436,true,NA,NA,NA,NA,NA
tmQImp5c,NA,NA,tmQImp5c,2020-0188,2021-11-01,23:35:14,00:38:53,NA,incomplete,false,true,NA,4,23,syllable,c_2_008.jpg,right,1 syllable,2 syllables,NA,NA,NA,right,1801.79999995232,true,NA,NA,NA,NA,NA
tmQImp5c,NA,NA,tmQImp5c,2020-0188,2021-11-01,23:35:14,00:38:53,NA,incomplete,false,true,NA,4,24,syllable,a_1_015.jpg,right,2 syllables,1 syllable,NA,NA,NA,right,1534.5,true,NA,NA,NA,NA,NA
tmQImp5c,NA,NA,tmQImp5c,2020-0188,2021-11-01,23:35:14,00:38:53,NA,incomplete,false,true,NA,4,25,abstractness,c_2_007.jpg,left,concrete,abstract,NA,NA,NA,left,2057,true,NA,NA,NA,NA,NA
tmQImp5c,NA,NA,tmQImp5c,2020-0188,2021-11-01,23:35:14,00:38:53,NA,incomplete,false,true,NA,4,26,abstractness,a_1_023.jpg,right,concrete,abstract,NA,NA,NA,right,1755.90000009537,true,NA,NA,NA,NA,NA
tmQImp5c,NA,NA,tmQImp5c,2020-0188,2021-11-01,23:35:14,00:38:53,NA,incomplete,false,true,NA,4,27,abstractness,c_1_006.jpg,right,abstract,concrete,NA,NA,NA,right,1578,true,NA,NA,NA,NA,NA
tmQImp5c,NA,NA,tmQImp5c,2020-0188,2021-11-01,23:35:14,00:38:53,NA,incomplete,false,true,NA,4,28,abstractness,c_1_012.jpg,left,concrete,abstract,NA,NA,NA,left,1781.39999985695,true,NA,NA,NA,NA,NA
tmQImp5c,NA,NA,tmQImp5c,2020-0188,2021-11-01,23:35:14,00:38:53,NA,incomplete,false,true,NA,4,29,abstractness,a_2_001.jpg,left,abstract,concrete,NA,NA,NA,left,1602,true,NA,NA,NA,NA,NA
tmQImp5c,NA,NA,tmQImp5c,2020-0188,2021-11-01,23:35:14,00:38:53,NA,incomplete,false,NA,true,4,0,NA,NA,left,NA,NA,a_1_023.jpg,a_2_001.jpg,within,NA,NaN,NA,left,1241.6999998092651,1,1,2247.2000000476837
tmQImp5c,NA,NA,tmQImp5c,2020-0188,2021-11-01,23:35:14,00:38:53,NA,incomplete,false,NA,true,4,1,NA,NA,right,NA,NA,o_s_019.jpg,o_s_009.jpg,within,NA,NaN,NA,right,798.8999998569489,1,0,2007.7999999523163
tmQImp5c,NA,NA,tmQImp5c,2020-0188,2021-11-01,23:35:14,00:38:53,NA,incomplete,false,NA,true,4,2,NA,NA,right,NA,NA,n_l_027.jpg,o_s_019.jpg,between-big,NA,NaN,NA,right,1976.2000000476837,1,2,1289.7000000476837
tmQImp5c,NA,NA,tmQImp5c,2020-0188,2021-11-01,23:35:14,00:38:53,NA,incomplete,false,NA,true,4,3,NA,NA,right,NA,NA,n_l_016.jpg,o_c_027.jpg,between-big,NA,NaN,NA,right,1339,1,1,1661.1000001430511
tmQImp5c,NA,NA,tmQImp5c,2020-0188,2021-11-01,23:35:14,00:38:53,NA,incomplete,false,NA,true,4,4,NA,NA,left,NA,NA,c_2_008.jpg,a_1_023.jpg,between-small,NA,NaN,NA,left,1055.8000001907349,1,0,1226.5
tmQImp5c,NA,NA,tmQImp5c,2020-0188,2021-11-01,23:35:14,00:38:53,NA,incomplete,false,NA,true,4,5,NA,NA,right,NA,NA,m_s_002.jpg,o_s_007.jpg,between-big,NA,NaN,NA,right,1724.2999999523163,1,2,981.7999999523163
tmQImp5c,NA,NA,tmQImp5c,2020-0188,2021-11-01,23:35:14,00:38:53,NA,incomplete,false,NA,true,4,6,NA,NA,left,NA,NA,o_s_014.jpg,i_c_007.jpg,within,NA,NaN,NA,right,2240.600000143051,0,1,2338.100000143051
tmQImp5c,NA,NA,tmQImp5c,2020-0188,2021-11-01,23:35:14,00:38:53,NA,incomplete,false,NA,true,4,7,NA,NA,left,NA,NA,n_l_027.jpg,m_s_014.jpg,within,NA,NaN,NA,right,3237.7999999523163,0,1,1019.2000000476837
tmQImp5c,NA,NA,tmQImp5c,2020-0188,2021-11-01,23:35:14,00:38:53,NA,incomplete,false,NA,true,4,8,NA,NA,left,NA,NA,m_s_022.jpg,m_s_027.jpg,within,NA,NaN,NA,left,2018.7000000476837,1,1,1140.7000000476837
tmQImp5c,NA,NA,tmQImp5c,2020-0188,2021-11-01,23:35:14,00:38:53,NA,incomplete,false,NA,true,4,9,NA,NA,left,NA,NA,c_2_007.jpg,c_1_012.jpg,within,NA,NaN,NA,right,875.5,0,0,1354.0999999046326
tmQImp5c,NA,NA,tmQImp5c,2020-0188,2021-11-01,23:35:14,00:38:53,NA,incomplete,false,NA,true,4,10,NA,NA,left,NA,NA,n_l_016.jpg,m_s_028.jpg,within,NA,NaN,NA,right,2146.2000000476837,0,1,1289.2999999523163
tmQImp5c,NA,NA,tmQImp5c,2020-0188,2021-11-01,23:35:14,00:38:53,NA,incomplete,false,NA,true,4,11,NA,NA,left,NA,NA,m_s_005.jpg,m_s_003.jpg,within,NA,NaN,NA,right,891.2000000476837,0,0,1788.0999999046326
tmQImp5c,NA,NA,tmQImp5c,2020-0188,2021-11-01,23:35:14,00:38:53,NA,incomplete,false,NA,true,4,12,NA,NA,left,NA,NA,m_s_002.jpg,m_s_022.jpg,between-small,NA,NaN,NA,right,1640.7999999523163,0,1,1861.5
tmQImp5c,NA,NA,tmQImp5c,2020-0188,2021-11-01,23:35:14,00:38:53,NA,incomplete,false,NA,true,4,13,NA,NA,right,NA,NA,a_1_015.jpg,c_1_015.jpg,within,NA,NaN,NA,left,3631.5,0,0,1069.1000001430511
tmQImp5c,NA,NA,tmQImp5c,2020-0188,2021-11-01,23:35:14,00:38:53,NA,incomplete,false,NA,true,4,14,NA,NA,left,NA,NA,a_1_014.jpg,c_2_008.jpg,within,NA,NaN,NA,right,735.4000000953674,0,2,1033.3999998569489
tmQImp5c,NA,NA,tmQImp5c,2020-0188,2021-11-01,23:35:14,00:38:53,NA,incomplete,false,NA,true,4,15,NA,NA,left,NA,NA,m_s_027.jpg,c_1_015.jpg,between-big,NA,NaN,NA,left,1484.4000000953674,1,1,2239.5999999046326
tmQImp5c,NA,NA,tmQImp5c,2020-0188,2021-11-01,23:35:14,00:38:53,NA,incomplete,false,NA,true,4,16,NA,NA,left,NA,NA,c_1_001.jpg,c_2_007.jpg,between-small,NA,NaN,NA,left,4541.799999952316,1,1,3081.399999856949
tmQImp5c,NA,NA,tmQImp5c,2020-0188,2021-11-01,23:35:14,00:38:53,NA,incomplete,false,NA,true,4,17,NA,NA,right,NA,NA,a_1_014.jpg,n_l_007.jpg,between-big,NA,NaN,NA,right,600.2999999523163,1,2,986.3999998569489
tmQImp5c,NA,NA,tmQImp5c,2020-0188,2021-11-01,23:35:14,00:38:53,NA,incomplete,false,NA,true,4,18,NA,NA,right,NA,NA,c_1_001.jpg,m_s_003.jpg,between-big,NA,NaN,NA,right,711.9000000953674,1,2,1230
tmQImp5c,NA,NA,tmQImp5c,2020-0188,2021-11-01,23:35:14,00:38:53,NA,incomplete,false,NA,true,4,19,NA,NA,right,NA,NA,o_s_007.jpg,o_s_016.jpg,within,NA,NaN,NA,right,659.7000000476837,1,0,1183.5
tmQImp5c,NA,NA,tmQImp5c,2020-0188,2021-11-01,23:35:14,00:38:53,NA,incomplete,false,NA,true,4,20,NA,NA,left,NA,NA,o_s_024.jpg,o_s_027.jpg,within,NA,NaN,NA,right,627.5999999046326,0,0,1233.4000000953674
tmQImp5c,NA,NA,tmQImp5c,2020-0188,2021-11-01,23:35:14,00:38:53,NA,incomplete,false,NA,true,4,21,NA,NA,right,NA,NA,c_1_006.jpg,a_1_015.jpg,between-small,NA,NaN,NA,right,677.2999999523163,1,1,845.9000000953674
tmQImp5c,NA,NA,tmQImp5c,2020-0188,2021-11-01,23:35:14,00:38:53,NA,incomplete,false,NA,true,4,22,NA,NA,right,NA,NA,o_s_016.jpg,i_c_007.jpg,between-small,NA,NaN,NA,right,611.7000000476837,1,1,1070
tmQImp5c,NA,NA,tmQImp5c,2020-0188,2021-11-01,23:35:14,00:38:53,NA,incomplete,false,NA,true,4,23,NA,NA,left,NA,NA,m_s_028.jpg,m_s_005.jpg,between-small,NA,NaN,NA,right,670.2999999523163,0,1,1112.6000001430511
tmQImp5c,NA,NA,tmQImp5c,2020-0188,2021-11-01,23:35:14,00:38:53,NA,incomplete,false,NA,true,4,24,NA,NA,left,NA,NA,o_s_027.jpg,o_c_027.jpg,between-small,NA,NaN,NA,right,663.1000001430511,0,1,895.0999999046326
tmQImp5c,NA,NA,tmQImp5c,2020-0188,2021-11-01,23:35:14,00:38:53,NA,incomplete,false,NA,true,4,25,NA,NA,left,NA,NA,m_s_014.jpg,n_l_007.jpg,between-small,NA,NaN,NA,right,620.5999999046326,0,1,2010
tmQImp5c,NA,NA,tmQImp5c,2020-0188,2021-11-01,23:35:14,00:38:53,NA,incomplete,false,NA,true,4,26,NA,NA,right,NA,NA,o_s_009.jpg,o_s_003.jpg,between-small,NA,NaN,NA,right,769.5,1,0,1304.2000000476837
tmQImp5c,NA,NA,tmQImp5c,2020-0188,2021-11-01,23:35:14,00:38:53,NA,incomplete,false,true,NA,5,0,size,m_l_021.jpg,left,large,small,NA,NA,NA,left,2172.89999985695,true,NA,NA,NA,NA,NA
tmQImp5c,NA,NA,tmQImp5c,2020-0188,2021-11-01,23:35:14,00:38:53,NA,incomplete,false,true,NA,5,1,size,n_s_017.jpg,left,small,large,NA,NA,NA,right,1265.60000014305,false,NA,NA,NA,NA,NA
tmQImp5c,NA,NA,tmQImp5c,2020-0188,2021-11-01,23:35:14,00:38:53,NA,incomplete,false,true,NA,5,2,size,n_s_025.jpg,left,small,large,NA,NA,NA,left,1386,true,NA,NA,NA,NA,NA
tmQImp5c,NA,NA,tmQImp5c,2020-0188,2021-11-01,23:35:14,00:38:53,NA,incomplete,false,true,NA,5,3,size,n_s_015.jpg,right,large,small,NA,NA,NA,right,1298.5,true,NA,NA,NA,NA,NA
tmQImp5c,NA,NA,tmQImp5c,2020-0188,2021-11-01,23:35:14,00:38:53,NA,incomplete,false,true,NA,5,4,size,n_l_006.jpg,right,small,large,NA,NA,NA,right,943.5,true,NA,NA,NA,NA,NA
tmQImp5c,NA,NA,tmQImp5c,2020-0188,2021-11-01,23:35:14,00:38:53,NA,incomplete,false,true,NA,5,5,origin,n_l_011.jpg,left,natural,manmade,NA,NA,NA,left,1674,true,NA,NA,NA,NA,NA
tmQImp5c,NA,NA,tmQImp5c,2020-0188,2021-11-01,23:35:14,00:38:53,NA,incomplete,false,true,NA,5,6,origin,m_l_009.jpg,right,natural,manmade,NA,NA,NA,right,1823.39999985695,true,NA,NA,NA,NA,NA
tmQImp5c,NA,NA,tmQImp5c,2020-0188,2021-11-01,23:35:14,00:38:53,NA,incomplete,false,true,NA,5,7,origin,m_s_019.jpg,right,natural,manmade,NA,NA,NA,right,1870.5,true,NA,NA,NA,NA,NA
tmQImp5c,NA,NA,tmQImp5c,2020-0188,2021-11-01,23:35:14,00:38:53,NA,incomplete,false,true,NA,5,8,origin,m_s_010.jpg,right,natural,manmade,NA,NA,NA,right,2246.89999985695,true,NA,NA,NA,NA,NA
tmQImp5c,NA,NA,tmQImp5c,2020-0188,2021-11-01,23:35:14,00:38:53,NA,incomplete,false,true,NA,5,9,origin,m_l_013.jpg,left,manmade,natural,NA,NA,NA,left,1303.59999990463,true,NA,NA,NA,NA,NA
tmQImp5c,NA,NA,tmQImp5c,2020-0188,2021-11-01,23:35:14,00:38:53,NA,incomplete,false,true,NA,5,10,abstractness,a_1_002.jpg,left,abstract,concrete,NA,NA,NA,left,2256.40000009537,true,NA,NA,NA,NA,NA
tmQImp5c,NA,NA,tmQImp5c,2020-0188,2021-11-01,23:35:14,00:38:53,NA,incomplete,false,true,NA,5,11,abstractness,c_2_010.jpg,left,concrete,abstract,NA,NA,NA,left,1252.39999985695,true,NA,NA,NA,NA,NA
tmQImp5c,NA,NA,tmQImp5c,2020-0188,2021-11-01,23:35:14,00:38:53,NA,incomplete,false,true,NA,5,12,abstractness,a_2_002.jpg,right,concrete,abstract,NA,NA,NA,none,0,false,NA,NA,NA,NA,NA
tmQImp5c,NA,NA,tmQImp5c,2020-0188,2021-11-01,23:35:14,00:38:53,NA,incomplete,false,true,NA,5,13,abstractness,a_1_020.jpg,right,concrete,abstract,NA,NA,NA,right,1804.70000004768,true,NA,NA,NA,NA,NA
tmQImp5c,NA,NA,tmQImp5c,2020-0188,2021-11-01,23:35:14,00:38:53,NA,incomplete,false,true,NA,5,14,abstractness,a_2_024.jpg,left,abstract,concrete,NA,NA,NA,left,2896.20000004768,true,NA,NA,NA,NA,NA
tmQImp5c,NA,NA,tmQImp5c,2020-0188,2021-11-01,23:35:14,00:38:53,NA,incomplete,false,true,NA,5,15,syllable,c_1_007.jpg,right,2 syllables,1 syllable,NA,NA,NA,right,1085.89999985695,true,NA,NA,NA,NA,NA
tmQImp5c,NA,NA,tmQImp5c,2020-0188,2021-11-01,23:35:14,00:38:53,NA,incomplete,false,true,NA,5,16,syllable,c_2_017.jpg,right,1 syllable,2 syllables,NA,NA,NA,right,2222.5,true,NA,NA,NA,NA,NA
tmQImp5c,NA,NA,tmQImp5c,2020-0188,2021-11-01,23:35:14,00:38:53,NA,incomplete,false,true,NA,5,17,syllable,a_2_003.jpg,right,1 syllable,2 syllables,NA,NA,NA,right,1098.5,true,NA,NA,NA,NA,NA
tmQImp5c,NA,NA,tmQImp5c,2020-0188,2021-11-01,23:35:14,00:38:53,NA,incomplete,false,true,NA,5,18,syllable,c_2_006.jpg,right,2 syllables,1 syllable,NA,NA,NA,left,1602.79999995232,false,NA,NA,NA,NA,NA
tmQImp5c,NA,NA,tmQImp5c,2020-0188,2021-11-01,23:35:14,00:38:53,NA,incomplete,false,true,NA,5,19,syllable,c_1_004.jpg,right,1 syllable,2 syllables,NA,NA,NA,left,1541.29999995232,false,NA,NA,NA,NA,NA
tmQImp5c,NA,NA,tmQImp5c,2020-0188,2021-11-01,23:35:14,00:38:53,NA,incomplete,false,true,NA,5,20,building,o_s_001.jpg,right,cottage,skyscraper,NA,NA,NA,right,1410.30000019073,true,NA,NA,NA,NA,NA
tmQImp5c,NA,NA,tmQImp5c,2020-0188,2021-11-01,23:35:14,00:38:53,NA,incomplete,false,true,NA,5,21,building,i_s_025.jpg,right,cottage,skyscraper,NA,NA,NA,right,2096.10000014305,true,NA,NA,NA,NA,NA
tmQImp5c,NA,NA,tmQImp5c,2020-0188,2021-11-01,23:35:14,00:38:53,NA,incomplete,false,true,NA,5,22,building,o_c_024.jpg,right,skyscraper,cottage,NA,NA,NA,right,2215.40000009537,true,NA,NA,NA,NA,NA
tmQImp5c,NA,NA,tmQImp5c,2020-0188,2021-11-01,23:35:14,00:38:53,NA,incomplete,false,true,NA,5,23,building,o_c_001.jpg,left,cottage,skyscraper,NA,NA,NA,left,1137.79999995232,true,NA,NA,NA,NA,NA
tmQImp5c,NA,NA,tmQImp5c,2020-0188,2021-11-01,23:35:14,00:38:53,NA,incomplete,false,true,NA,5,24,building,i_s_013.jpg,right,cottage,skyscraper,NA,NA,NA,right,2457.60000014305,true,NA,NA,NA,NA,NA
tmQImp5c,NA,NA,tmQImp5c,2020-0188,2021-11-01,23:35:14,00:38:53,NA,incomplete,false,true,NA,5,25,location,i_s_024.jpg,left,indoor,outdoor,NA,NA,NA,left,2465.59999990463,true,NA,NA,NA,NA,NA
tmQImp5c,NA,NA,tmQImp5c,2020-0188,2021-11-01,23:35:14,00:38:53,NA,incomplete,false,true,NA,5,26,location,i_s_022.jpg,left,indoor,outdoor,NA,NA,NA,left,2231.40000009537,true,NA,NA,NA,NA,NA
tmQImp5c,NA,NA,tmQImp5c,2020-0188,2021-11-01,23:35:14,00:38:53,NA,incomplete,false,true,NA,5,27,location,o_s_022.jpg,right,indoor,outdoor,NA,NA,NA,right,2035.79999995232,true,NA,NA,NA,NA,NA
tmQImp5c,NA,NA,tmQImp5c,2020-0188,2021-11-01,23:35:14,00:38:53,NA,incomplete,false,true,NA,5,28,location,i_c_027.jpg,right,outdoor,indoor,NA,NA,NA,none,0,false,NA,NA,NA,NA,NA
tmQImp5c,NA,NA,tmQImp5c,2020-0188,2021-11-01,23:35:14,00:38:53,NA,incomplete,false,true,NA,5,29,location,o_c_009.jpg,right,indoor,outdoor,NA,NA,NA,right,1316.70000004768,true,NA,NA,NA,NA,NA
tmQImp5c,NA,NA,tmQImp5c,2020-0188,2021-11-01,23:35:14,00:38:53,NA,incomplete,false,NA,true,5,0,NA,NA,right,NA,NA,o_c_024.jpg,c_1_004.jpg,between-big,NA,NaN,NA,right,1771.3999998569489,1,2,1267.8999998569489
tmQImp5c,NA,NA,tmQImp5c,2020-0188,2021-11-01,23:35:14,00:38:53,NA,incomplete,false,NA,true,5,1,NA,NA,left,NA,NA,o_c_024.jpg,i_s_024.jpg,between-small,NA,NaN,NA,right,870.2000000476837,0,1,1504.3000001907349
tmQImp5c,NA,NA,tmQImp5c,2020-0188,2021-11-01,23:35:14,00:38:53,NA,incomplete,false,NA,true,5,2,NA,NA,left,NA,NA,n_l_006.jpg,m_s_019.jpg,between-small,NA,NaN,NA,right,1232.1999998092651,0,0,1312.7999999523163
tmQImp5c,NA,NA,tmQImp5c,2020-0188,2021-11-01,23:35:14,00:38:53,NA,incomplete,false,NA,true,5,3,NA,NA,right,NA,NA,o_s_022.jpg,i_s_013.jpg,between-small,NA,NaN,NA,left,1527.4000000953674,0,0,1133.4000000953674
tmQImp5c,NA,NA,tmQImp5c,2020-0188,2021-11-01,23:35:14,00:38:53,NA,incomplete,false,NA,true,5,4,NA,NA,right,NA,NA,i_s_013.jpg,i_s_025.jpg,within,NA,NaN,NA,right,1269,1,1,3051.5999999046326
tmQImp5c,NA,NA,tmQImp5c,2020-0188,2021-11-01,23:35:14,00:38:53,NA,incomplete,false,NA,true,5,5,NA,NA,right,NA,NA,o_c_009.jpg,i_s_022.jpg,within,NA,NaN,NA,left,1106,0,0,1399.2999999523163
tmQImp5c,NA,NA,tmQImp5c,2020-0188,2021-11-01,23:35:14,00:38:53,NA,incomplete,false,NA,true,5,6,NA,NA,left,NA,NA,m_l_013.jpg,a_2_002.jpg,between-big,NA,NaN,NA,right,2011.5,0,2,1374.7999999523163
tmQImp5c,NA,NA,tmQImp5c,2020-0188,2021-11-01,23:35:14,00:38:53,NA,incomplete,false,NA,true,5,7,NA,NA,right,NA,NA,n_s_015.jpg,m_l_021.jpg,within,NA,NaN,NA,right,2908.300000190735,1,0,1218.5
tmQImp5c,NA,NA,tmQImp5c,2020-0188,2021-11-01,23:35:14,00:38:53,NA,incomplete,false,NA,true,5,8,NA,NA,left,NA,NA,c_2_010.jpg,a_2_024.jpg,within,NA,NaN,NA,left,3073.2000000476837,1,0,1639.4000000953674
tmQImp5c,NA,NA,tmQImp5c,2020-0188,2021-11-01,23:35:14,00:38:53,NA,incomplete,false,NA,true,5,9,NA,NA,left,NA,NA,a_2_024.jpg,a_2_003.jpg,between-small,NA,NaN,NA,right,1988.9000000953674,0,0,1112.3999998569489
tmQImp5c,NA,NA,tmQImp5c,2020-0188,2021-11-01,23:35:14,00:38:53,NA,incomplete,false,NA,true,5,10,NA,NA,left,NA,NA,n_s_025.jpg,n_l_011.jpg,between-small,NA,NaN,NA,left,2701.9000000953674,1,1,2886.5
tmQImp5c,NA,NA,tmQImp5c,2020-0188,2021-11-01,23:35:14,00:38:53,NA,incomplete,false,NA,true,5,11,NA,NA,left,NA,NA,m_l_009.jpg,m_l_013.jpg,within,NA,NaN,NA,left,2945.0999999046326,1,1,2723.0999999046326
tmQImp5c,NA,NA,tmQImp5c,2020-0188,2021-11-01,23:35:14,00:38:53,NA,incomplete,false,NA,true,5,12,NA,NA,right,NA,NA,i_s_025.jpg,c_2_006.jpg,between-big,NA,NaN,NA,right,2196.7000000476837,1,3,1405.7999999523163
tmQImp5c,NA,NA,tmQImp5c,2020-0188,2021-11-01,23:35:14,00:38:53,NA,incomplete,false,NA,true,5,13,NA,NA,left,NA,NA,o_c_001.jpg,i_s_022.jpg,between-small,NA,NaN,NA,left,920.4000000953674,1,1,1302.7999999523163
tmQImp5c,NA,NA,tmQImp5c,2020-0188,2021-11-01,23:35:14,00:38:53,NA,incomplete,false,NA,true,5,14,NA,NA,right,NA,NA,c_2_006.jpg,c_1_007.jpg,within,NA,NaN,NA,right,1103.8999998569489,1,0,2887.4000000953674
tmQImp5c,NA,NA,tmQImp5c,2020-0188,2021-11-01,23:35:14,00:38:53,NA,incomplete,false,NA,true,5,15,NA,NA,left,NA,NA,a_1_020.jpg,c_2_017.jpg,between-small,NA,NaN,NA,left,917.8999998569489,1,1,5432.299999952316
tmQImp5c,NA,NA,tmQImp5c,2020-0188,2021-11-01,23:35:14,00:38:53,NA,incomplete,false,NA,true,5,16,NA,NA,right,NA,NA,m_l_009.jpg,n_s_015.jpg,between-small,NA,NaN,NA,right,10427.400000095367,1,0,2987.7000000476837
tmQImp5c,NA,NA,tmQImp5c,2020-0188,2021-11-01,23:35:14,00:38:53,NA,incomplete,false,NA,true,5,17,NA,NA,right,NA,NA,c_1_007.jpg,a_2_002.jpg,between-small,NA,NaN,NA,right,3480.7000000476837,1,1,1233.3999998569489
tmQImp5c,NA,NA,tmQImp5c,2020-0188,2021-11-01,23:35:14,00:38:53,NA,incomplete,false,NA,true,5,18,NA,NA,right,NA,NA,n_l_006.jpg,n_s_017.jpg,within,NA,NaN,NA,right,934.3000001907349,1,0,2445.4000000953674
tmQImp5c,NA,NA,tmQImp5c,2020-0188,2021-11-01,23:35:14,00:38:53,NA,incomplete,false,NA,true,5,19,NA,NA,right,NA,NA,i_c_027.jpg,i_s_024.jpg,within,NA,NaN,NA,right,1939.5999999046326,1,1,1211.5
tmQImp5c,NA,NA,tmQImp5c,2020-0188,2021-11-01,23:35:14,00:38:53,NA,incomplete,false,NA,true,5,20,NA,NA,left,NA,NA,a_1_002.jpg,a_1_020.jpg,within,NA,NaN,NA,left,1082.6999998092651,1,1,1403
tmQImp5c,NA,NA,tmQImp5c,2020-0188,2021-11-01,23:35:14,00:38:53,NA,incomplete,false,NA,true,5,21,NA,NA,right,NA,NA,m_s_010.jpg,n_l_011.jpg,within,NA,NaN,NA,right,1004.8000001907349,1,0,1817.8999998569489
tmQImp5c,NA,NA,tmQImp5c,2020-0188,2021-11-01,23:35:14,00:38:53,NA,incomplete,false,NA,true,5,22,NA,NA,right,NA,NA,c_2_010.jpg,m_s_010.jpg,between-big,NA,NaN,NA,left,3678.2000000476837,0,2,1946
tmQImp5c,NA,NA,tmQImp5c,2020-0188,2021-11-01,23:35:14,00:38:53,NA,incomplete,false,NA,true,5,23,NA,NA,left,NA,NA,o_s_001.jpg,o_c_001.jpg,within,NA,NaN,NA,right,756.2999999523163,0,1,1197.2999999523163
tmQImp5c,NA,NA,tmQImp5c,2020-0188,2021-11-01,23:35:14,00:38:53,NA,incomplete,false,NA,true,5,24,NA,NA,left,NA,NA,m_s_019.jpg,a_1_002.jpg,between-big,NA,NaN,NA,left,1048.3000001907349,1,2,3357.7999999523163
tmQImp5c,NA,NA,tmQImp5c,2020-0188,2021-11-01,23:35:14,00:38:53,NA,incomplete,false,NA,true,5,25,NA,NA,left,NA,NA,a_2_003.jpg,o_s_001.jpg,between-big,NA,NaN,NA,left,1911.7999999523163,1,3,1133.1000001430511
tmQImp5c,NA,NA,tmQImp5c,2020-0188,2021-11-01,23:35:14,00:38:53,NA,incomplete,false,NA,true,5,26,NA,NA,right,NA,NA,c_1_004.jpg,c_2_017.jpg,within,NA,NaN,NA,left,1020.7999999523163,0,0,2381.2000000476837
tmQImp5c,NA,NA,tmQImp5c,2020-0188,2021-11-01,23:35:14,00:38:53,NA,incomplete,false,true,NA,6,0,abstractness,a_2_012.jpg,right,concrete,abstract,NA,NA,NA,right,2156.20000004768,true,NA,NA,NA,NA,NA
tmQImp5c,NA,NA,tmQImp5c,2020-0188,2021-11-01,23:35:14,00:38:53,NA,incomplete,false,true,NA,6,1,abstractness,a_1_006.jpg,left,abstract,concrete,NA,NA,NA,right,831.300000190735,false,NA,NA,NA,NA,NA
tmQImp5c,NA,NA,tmQImp5c,2020-0188,2021-11-01,23:35:14,00:38:53,NA,incomplete,false,true,NA,6,2,abstractness,a_2_009.jpg,left,abstract,concrete,NA,NA,NA,left,2289.40000009537,true,NA,NA,NA,NA,NA
tmQImp5c,NA,NA,tmQImp5c,2020-0188,2021-11-01,23:35:14,00:38:53,NA,incomplete,false,true,NA,6,3,abstractness,c_1_022.jpg,left,concrete,abstract,NA,NA,NA,left,1718.70000004768,true,NA,NA,NA,NA,NA
tmQImp5c,NA,NA,tmQImp5c,2020-0188,2021-11-01,23:35:14,00:38:53,NA,incomplete,false,true,NA,6,4,abstractness,a_2_028.jpg,left,abstract,concrete,NA,NA,NA,left,1436.20000004768,true,NA,NA,NA,NA,NA
tmQImp5c,NA,NA,tmQImp5c,2020-0188,2021-11-01,23:35:14,00:38:53,NA,incomplete,false,true,NA,6,5,syllable,c_1_020.jpg,right,2 syllables,1 syllable,NA,NA,NA,right,1473.19999980927,true,NA,NA,NA,NA,NA
tmQImp5c,NA,NA,tmQImp5c,2020-0188,2021-11-01,23:35:14,00:38:53,NA,incomplete,false,true,NA,6,6,syllable,a_1_012.jpg,right,2 syllables,1 syllable,NA,NA,NA,right,1713.90000009537,true,NA,NA,NA,NA,NA
tmQImp5c,NA,NA,tmQImp5c,2020-0188,2021-11-01,23:35:14,00:38:53,NA,incomplete,false,true,NA,6,7,syllable,c_1_011.jpg,right,2 syllables,1 syllable,NA,NA,NA,right,1909.29999995232,true,NA,NA,NA,NA,NA
tmQImp5c,NA,NA,tmQImp5c,2020-0188,2021-11-01,23:35:14,00:38:53,NA,incomplete,false,true,NA,6,8,syllable,a_1_009.jpg,right,2 syllables,1 syllable,NA,NA,NA,right,1085.20000004768,true,NA,NA,NA,NA,NA
tmQImp5c,NA,NA,tmQImp5c,2020-0188,2021-11-01,23:35:14,00:38:53,NA,incomplete,false,true,NA,6,9,syllable,a_2_006.jpg,right,1 syllable,2 syllables,NA,NA,NA,right,1897,true,NA,NA,NA,NA,NA
tmQImp5c,NA,NA,tmQImp5c,2020-0188,2021-11-01,23:35:14,00:38:53,NA,incomplete,false,true,NA,6,10,location,i_c_015.jpg,left,indoor,outdoor,NA,NA,NA,left,1817.89999985695,true,NA,NA,NA,NA,NA
tmQImp5c,NA,NA,tmQImp5c,2020-0188,2021-11-01,23:35:14,00:38:53,NA,incomplete,false,true,NA,6,11,location,o_s_012.jpg,left,outdoor,indoor,NA,NA,NA,left,1696.5,true,NA,NA,NA,NA,NA
tmQImp5c,NA,NA,tmQImp5c,2020-0188,2021-11-01,23:35:14,00:38:53,NA,incomplete,false,true,NA,6,12,location,o_s_023.jpg,left,outdoor,indoor,NA,NA,NA,left,1372.19999980927,true,NA,NA,NA,NA,NA
tmQImp5c,NA,NA,tmQImp5c,2020-0188,2021-11-01,23:35:14,00:38:53,NA,incomplete,false,true,NA,6,13,location,o_c_002.jpg,left,outdoor,indoor,NA,NA,NA,left,1516.69999980927,true,NA,NA,NA,NA,NA
tmQImp5c,NA,NA,tmQImp5c,2020-0188,2021-11-01,23:35:14,00:38:53,NA,incomplete,false,true,NA,6,14,location,i_c_006.jpg,right,outdoor,indoor,NA,NA,NA,right,1515.19999980927,true,NA,NA,NA,NA,NA
tmQImp5c,NA,NA,tmQImp5c,2020-0188,2021-11-01,23:35:14,00:38:53,NA,incomplete,false,true,NA,6,15,building,i_c_021.jpg,right,skyscraper,cottage,NA,NA,NA,right,2554.69999980927,true,NA,NA,NA,NA,NA
tmQImp5c,NA,NA,tmQImp5c,2020-0188,2021-11-01,23:35:14,00:38:53,NA,incomplete,false,true,NA,6,16,building,i_c_013.jpg,right,skyscraper,cottage,NA,NA,NA,right,1794,true,NA,NA,NA,NA,NA
tmQImp5c,NA,NA,tmQImp5c,2020-0188,2021-11-01,23:35:14,00:38:53,NA,incomplete,false,true,NA,6,17,building,o_c_019.jpg,left,cottage,skyscraper,NA,NA,NA,left,1712.20000004768,true,NA,NA,NA,NA,NA
tmQImp5c,NA,NA,tmQImp5c,2020-0188,2021-11-01,23:35:14,00:38:53,NA,incomplete,false,true,NA,6,18,building,o_c_008.jpg,left,cottage,skyscraper,NA,NA,NA,left,1468.79999995232,true,NA,NA,NA,NA,NA
tmQImp5c,NA,NA,tmQImp5c,2020-0188,2021-11-01,23:35:14,00:38:53,NA,incomplete,false,true,NA,6,19,building,o_c_022.jpg,right,skyscraper,cottage,NA,NA,NA,right,2455,true,NA,NA,NA,NA,NA
tmQImp5c,NA,NA,tmQImp5c,2020-0188,2021-11-01,23:35:14,00:38:53,NA,incomplete,false,true,NA,6,20,size,n_s_027.jpg,right,large,small,NA,NA,NA,right,2959.30000019073,true,NA,NA,NA,NA,NA
tmQImp5c,NA,NA,tmQImp5c,2020-0188,2021-11-01,23:35:14,00:38:53,NA,incomplete,false,true,NA,6,21,size,n_l_015.jpg,right,small,large,NA,NA,NA,right,1611.70000004768,true,NA,NA,NA,NA,NA
tmQImp5c,NA,NA,tmQImp5c,2020-0188,2021-11-01,23:35:14,00:38:53,NA,incomplete,false,true,NA,6,22,size,n_l_005.jpg,right,small,large,NA,NA,NA,right,1169.5,true,NA,NA,NA,NA,NA
tmQImp5c,NA,NA,tmQImp5c,2020-0188,2021-11-01,23:35:14,00:38:53,NA,incomplete,false,true,NA,6,23,size,m_l_011.jpg,left,large,small,NA,NA,NA,none,0,false,NA,NA,NA,NA,NA
tmQImp5c,NA,NA,tmQImp5c,2020-0188,2021-11-01,23:35:14,00:38:53,NA,incomplete,false,true,NA,6,24,size,m_l_014.jpg,right,small,large,NA,NA,NA,right,1366.59999990463,true,NA,NA,NA,NA,NA
tmQImp5c,NA,NA,tmQImp5c,2020-0188,2021-11-01,23:35:14,00:38:53,NA,incomplete,false,true,NA,6,25,origin,m_l_015.jpg,left,manmade,natural,NA,NA,NA,left,2288.19999980927,true,NA,NA,NA,NA,NA
tmQImp5c,NA,NA,tmQImp5c,2020-0188,2021-11-01,23:35:14,00:38:53,NA,incomplete,false,true,NA,6,26,origin,n_s_019.jpg,left,natural,manmade,NA,NA,NA,left,1607.79999995232,true,NA,NA,NA,NA,NA
tmQImp5c,NA,NA,tmQImp5c,2020-0188,2021-11-01,23:35:14,00:38:53,NA,incomplete,false,true,NA,6,27,origin,n_s_011.jpg,left,natural,manmade,NA,NA,NA,left,2035.90000009537,true,NA,NA,NA,NA,NA
tmQImp5c,NA,NA,tmQImp5c,2020-0188,2021-11-01,23:35:14,00:38:53,NA,incomplete,false,true,NA,6,28,origin,m_s_023.jpg,left,manmade,natural,NA,NA,NA,left,3042.69999980927,true,NA,NA,NA,NA,NA
tmQImp5c,NA,NA,tmQImp5c,2020-0188,2021-11-01,23:35:14,00:38:53,NA,incomplete,false,true,NA,6,29,origin,m_l_010.jpg,left,manmade,natural,NA,NA,NA,left,2450.5,true,NA,NA,NA,NA,NA
tmQImp5c,NA,NA,tmQImp5c,2020-0188,2021-11-01,23:35:14,00:38:53,NA,incomplete,false,NA,true,6,0,NA,NA,right,NA,NA,m_l_010.jpg,n_s_019.jpg,within,NA,NaN,NA,right,2792.600000143051,1,1,984.3000001907349
tmQImp5c,NA,NA,tmQImp5c,2020-0188,2021-11-01,23:35:14,00:38:53,NA,incomplete,false,NA,true,6,1,NA,NA,right,NA,NA,o_s_023.jpg,a_2_006.jpg,between-big,NA,NaN,NA,right,893.2000000476837,1,2,2751.2999999523163
tmQImp5c,NA,NA,tmQImp5c,2020-0188,2021-11-01,23:35:14,00:38:53,NA,incomplete,false,NA,true,6,2,NA,NA,left,NA,NA,m_l_015.jpg,m_s_023.jpg,within,NA,NaN,NA,right,1647.9000000953674,0,1,1910.2999999523163
tmQImp5c,NA,NA,tmQImp5c,2020-0188,2021-11-01,23:35:14,00:38:53,NA,incomplete,false,NA,true,6,3,NA,NA,left,NA,NA,n_s_027.jpg,m_l_011.jpg,within,NA,NaN,NA,left,2167.5,1,0,1425.2999999523163
tmQImp5c,NA,NA,tmQImp5c,2020-0188,2021-11-01,23:35:14,00:38:53,NA,incomplete,false,NA,true,6,4,NA,NA,left,NA,NA,n_l_015.jpg,m_l_014.jpg,within,NA,NaN,NA,right,2916.2000000476837,0,1,977.7000000476837
tmQImp5c,NA,NA,tmQImp5c,2020-0188,2021-11-01,23:35:14,00:38:53,NA,incomplete,false,NA,true,6,5,NA,NA,left,NA,NA,o_c_008.jpg,n_l_015.jpg,between-big,NA,NaN,NA,right,2495.5999999046326,0,2,1234
tmQImp5c,NA,NA,tmQImp5c,2020-0188,2021-11-01,23:35:14,00:38:53,NA,incomplete,false,NA,true,6,6,NA,NA,right,NA,NA,n_s_019.jpg,m_l_011.jpg,between-small,NA,NaN,NA,right,2825.2000000476837,1,0,1289.1000001430511
tmQImp5c,NA,NA,tmQImp5c,2020-0188,2021-11-01,23:35:14,00:38:53,NA,incomplete,false,NA,true,6,7,NA,NA,right,NA,NA,o_c_008.jpg,i_c_021.jpg,within,NA,NaN,NA,right,1517,1,1,1582.7000000476837
tmQImp5c,NA,NA,tmQImp5c,2020-0188,2021-11-01,23:35:14,00:38:53,NA,incomplete,false,NA,true,6,8,NA,NA,right,NA,NA,i_c_021.jpg,o_s_023.jpg,between-small,NA,NaN,NA,left,2347.100000143051,0,1,998.1000001430511
tmQImp5c,NA,NA,tmQImp5c,2020-0188,2021-11-01,23:35:14,00:38:53,NA,incomplete,false,NA,true,6,9,NA,NA,left,NA,NA,a_1_006.jpg,a_2_028.jpg,within,NA,NaN,NA,left,2538.5,1,1,2044.2000000476837
tmQImp5c,NA,NA,tmQImp5c,2020-0188,2021-11-01,23:35:14,00:38:53,NA,incomplete,false,NA,true,6,10,NA,NA,left,NA,NA,i_c_006.jpg,o_c_019.jpg,between-small,NA,NaN,NA,left,1190.3999998569489,1,1,1139.7000000476837
tmQImp5c,NA,NA,tmQImp5c,2020-0188,2021-11-01,23:35:14,00:38:53,NA,incomplete,false,NA,true,6,11,NA,NA,right,NA,NA,n_s_027.jpg,o_c_019.jpg,between-big,NA,NaN,NA,left,839.7000000476837,0,2,1139.0999999046326
tmQImp5c,NA,NA,tmQImp5c,2020-0188,2021-11-01,23:35:14,00:38:53,NA,incomplete,false,NA,true,6,12,NA,NA,left,NA,NA,o_c_022.jpg,n_l_005.jpg,between-big,NA,NaN,NA,right,835.2999999523163,0,2,1306.4000000953674
tmQImp5c,NA,NA,tmQImp5c,2020-0188,2021-11-01,23:35:14,00:38:53,NA,incomplete,false,NA,true,6,13,NA,NA,right,NA,NA,c_1_022.jpg,a_2_012.jpg,within,NA,NaN,NA,right,3991.100000143051,1,0,1148.1000001430511
tmQImp5c,NA,NA,tmQImp5c,2020-0188,2021-11-01,23:35:14,00:38:53,NA,incomplete,false,NA,true,6,14,NA,NA,right,NA,NA,i_c_006.jpg,o_s_012.jpg,within,NA,NaN,NA,right,869.6000001430511,1,1,1822.6000001430511
tmQImp5c,NA,NA,tmQImp5c,2020-0188,2021-11-01,23:35:14,00:38:53,NA,incomplete,false,NA,true,6,15,NA,NA,right,NA,NA,a_1_009.jpg,c_1_020.jpg,within,NA,NaN,NA,right,2910.600000143051,1,0,1277.0999999046326
tmQImp5c,NA,NA,tmQImp5c,2020-0188,2021-11-01,23:35:14,00:38:53,NA,incomplete,false,NA,true,6,16,NA,NA,left,NA,NA,a_2_028.jpg,c_1_011.jpg,between-small,NA,NaN,NA,left,2331.4000000953674,1,1,2009.9000000953674
tmQImp5c,NA,NA,tmQImp5c,2020-0188,2021-11-01,23:35:14,00:38:53,NA,incomplete,false,NA,true,6,17,NA,NA,left,NA,NA,a_1_009.jpg,o_s_012.jpg,between-big,NA,NaN,NA,left,764.7000000476837,1,3,1497.3999998569489
tmQImp5c,NA,NA,tmQImp5c,2020-0188,2021-11-01,23:35:14,00:38:53,NA,incomplete,false,NA,true,6,18,NA,NA,left,NA,NA,a_1_012.jpg,a_2_006.jpg,within,NA,NaN,NA,right,662.5,0,1,1581.4000000953674
tmQImp5c,NA,NA,tmQImp5c,2020-0188,2021-11-01,23:35:14,00:38:53,NA,incomplete,false,NA,true,6,19,NA,NA,left,NA,NA,m_l_014.jpg,n_s_011.jpg,between-small,NA,NaN,NA,right,1484.5999999046326,0,1,897.2000000476837
tmQImp5c,NA,NA,tmQImp5c,2020-0188,2021-11-01,23:35:14,00:38:53,NA,incomplete,false,NA,true,6,20,NA,NA,right,NA,NA,m_l_015.jpg,n_l_005.jpg,between-small,NA,NaN,NA,right,1889.2000000476837,1,2,3030.199999809265
tmQImp5c,NA,NA,tmQImp5c,2020-0188,2021-11-01,23:35:14,00:38:53,NA,incomplete,false,NA,true,6,21,NA,NA,left,NA,NA,i_c_015.jpg,o_c_002.jpg,within,NA,NaN,NA,right,948.1999998092651,0,1,1296.0999999046326
tmQImp5c,NA,NA,tmQImp5c,2020-0188,2021-11-01,23:35:14,00:38:53,NA,incomplete,false,NA,true,6,22,NA,NA,left,NA,NA,c_1_011.jpg,i_c_015.jpg,between-big,NA,NaN,NA,left,963.2000000476837,1,3,1895.8000001907349
tmQImp5c,NA,NA,tmQImp5c,2020-0188,2021-11-01,23:35:14,00:38:53,NA,incomplete,false,NA,true,6,23,NA,NA,right,NA,NA,o_c_022.jpg,i_c_013.jpg,within,NA,NaN,NA,right,912.7999999523163,1,1,1133
tmQImp5c,NA,NA,tmQImp5c,2020-0188,2021-11-01,23:35:14,00:38:53,NA,incomplete,false,NA,true,6,24,NA,NA,left,NA,NA,c_1_022.jpg,a_1_012.jpg,between-small,NA,NaN,NA,left,2190.7000000476837,1,1,2287
tmQImp5c,NA,NA,tmQImp5c,2020-0188,2021-11-01,23:35:14,00:38:53,NA,incomplete,false,NA,true,6,25,NA,NA,left,NA,NA,o_c_002.jpg,i_c_013.jpg,between-small,NA,NaN,NA,right,749.7999999523163,0,1,1189.7999999523163
tmQImp5c,NA,NA,tmQImp5c,2020-0188,2021-11-01,23:35:14,00:38:53,NA,incomplete,false,NA,true,6,26,NA,NA,left,NA,NA,a_2_009.jpg,c_1_020.jpg,between-small,NA,NaN,NA,left,2094.4000000953674,1,1,1069.0999999046326
tmQImp5c,NA,NA,tmQImp5c,2020-0188,2021-11-01,23:35:14,00:38:53,NA,incomplete,false,true,NA,7,0,location,o_c_013.jpg,right,indoor,outdoor,NA,NA,NA,right,2179.70000004768,true,NA,NA,NA,NA,NA
tmQImp5c,NA,NA,tmQImp5c,2020-0188,2021-11-01,23:35:14,00:38:53,NA,incomplete,false,true,NA,7,1,location,o_s_011.jpg,right,indoor,outdoor,NA,NA,NA,right,1090.29999995232,true,NA,NA,NA,NA,NA
tmQImp5c,NA,NA,tmQImp5c,2020-0188,2021-11-01,23:35:14,00:38:53,NA,incomplete,false,true,NA,7,2,location,i_s_005.jpg,left,indoor,outdoor,NA,NA,NA,left,1898.90000009537,true,NA,NA,NA,NA,NA
tmQImp5c,NA,NA,tmQImp5c,2020-0188,2021-11-01,23:35:14,00:38:53,NA,incomplete,false,true,NA,7,3,location,o_s_021.jpg,left,outdoor,indoor,NA,NA,NA,left,1495.20000004768,true,NA,NA,NA,NA,NA
tmQImp5c,NA,NA,tmQImp5c,2020-0188,2021-11-01,23:35:14,00:38:53,NA,incomplete,false,true,NA,7,4,location,o_c_006.jpg,left,outdoor,indoor,NA,NA,NA,left,1871.09999990463,true,NA,NA,NA,NA,NA
tmQImp5c,NA,NA,tmQImp5c,2020-0188,2021-11-01,23:35:14,00:38:53,NA,incomplete,false,true,NA,7,5,building,i_c_025.jpg,left,cottage,skyscraper,NA,NA,NA,left,1837.69999980927,true,NA,NA,NA,NA,NA
tmQImp5c,NA,NA,tmQImp5c,2020-0188,2021-11-01,23:35:14,00:38:53,NA,incomplete,false,true,NA,7,6,building,i_c_019.jpg,left,cottage,skyscraper,NA,NA,NA,left,2584.79999995232,true,NA,NA,NA,NA,NA
tmQImp5c,NA,NA,tmQImp5c,2020-0188,2021-11-01,23:35:14,00:38:53,NA,incomplete,false,true,NA,7,7,building,i_s_003.jpg,right,cottage,skyscraper,NA,NA,NA,right,2652.70000004768,true,NA,NA,NA,NA,NA
tmQImp5c,NA,NA,tmQImp5c,2020-0188,2021-11-01,23:35:14,00:38:53,NA,incomplete,false,true,NA,7,8,building,i_s_006.jpg,left,skyscraper,cottage,NA,NA,NA,left,2062.39999985695,true,NA,NA,NA,NA,NA
tmQImp5c,NA,NA,tmQImp5c,2020-0188,2021-11-01,23:35:14,00:38:53,NA,incomplete,false,true,NA,7,9,building,o_s_002.jpg,left,skyscraper,cottage,NA,NA,NA,left,1418.90000009537,true,NA,NA,NA,NA,NA
tmQImp5c,NA,NA,tmQImp5c,2020-0188,2021-11-01,23:35:14,00:38:53,NA,incomplete,false,true,NA,7,10,abstractness,c_1_023.jpg,right,abstract,concrete,NA,NA,NA,right,2942.40000009537,true,NA,NA,NA,NA,NA
tmQImp5c,NA,NA,tmQImp5c,2020-0188,2021-11-01,23:35:14,00:38:53,NA,incomplete,false,true,NA,7,11,abstractness,a_2_023.jpg,left,abstract,concrete,NA,NA,NA,left,2768.5,true,NA,NA,NA,NA,NA
tmQImp5c,NA,NA,tmQImp5c,2020-0188,2021-11-01,23:35:14,00:38:53,NA,incomplete,false,true,NA,7,12,abstractness,a_2_010.jpg,right,concrete,abstract,NA,NA,NA,right,2225.29999995232,true,NA,NA,NA,NA,NA
tmQImp5c,NA,NA,tmQImp5c,2020-0188,2021-11-01,23:35:14,00:38:53,NA,incomplete,false,true,NA,7,13,abstractness,a_1_022.jpg,left,abstract,concrete,NA,NA,NA,left,2186.59999990463,true,NA,NA,NA,NA,NA
tmQImp5c,NA,NA,tmQImp5c,2020-0188,2021-11-01,23:35:14,00:38:53,NA,incomplete,false,true,NA,7,14,abstractness,c_2_005.jpg,left,concrete,abstract,NA,NA,NA,left,2174.09999990463,true,NA,NA,NA,NA,NA
tmQImp5c,NA,NA,tmQImp5c,2020-0188,2021-11-01,23:35:14,00:38:53,NA,incomplete,false,true,NA,7,15,syllable,c_2_014.jpg,right,1 syllable,2 syllables,NA,NA,NA,right,2172.29999995232,true,NA,NA,NA,NA,NA
tmQImp5c,NA,NA,tmQImp5c,2020-0188,2021-11-01,23:35:14,00:38:53,NA,incomplete,false,true,NA,7,16,syllable,c_1_025.jpg,right,2 syllables,1 syllable,NA,NA,NA,right,1398.5,true,NA,NA,NA,NA,NA
tmQImp5c,NA,NA,tmQImp5c,2020-0188,2021-11-01,23:35:14,00:38:53,NA,incomplete,false,true,NA,7,17,syllable,a_1_028.jpg,right,1 syllable,2 syllables,NA,NA,NA,left,1419.5,false,NA,NA,NA,NA,NA
tmQImp5c,NA,NA,tmQImp5c,2020-0188,2021-11-01,23:35:14,00:38:53,NA,incomplete,false,true,NA,7,18,syllable,c_2_001.jpg,right,1 syllable,2 syllables,NA,NA,NA,right,1635.09999990463,true,NA,NA,NA,NA,NA
tmQImp5c,NA,NA,tmQImp5c,2020-0188,2021-11-01,23:35:14,00:38:53,NA,incomplete,false,true,NA,7,19,syllable,a_1_017.jpg,right,1 syllable,2 syllables,NA,NA,NA,left,1170.40000009537,false,NA,NA,NA,NA,NA
tmQImp5c,NA,NA,tmQImp5c,2020-0188,2021-11-01,23:35:14,00:38:53,NA,incomplete,false,true,NA,7,20,size,m_l_024.jpg,right,small,large,NA,NA,NA,right,3216.5,true,NA,NA,NA,NA,NA
tmQImp5c,NA,NA,tmQImp5c,2020-0188,2021-11-01,23:35:14,00:38:53,NA,incomplete,false,true,NA,7,21,size,m_s_020.jpg,left,small,large,NA,NA,NA,left,1445.59999990463,true,NA,NA,NA,NA,NA
tmQImp5c,NA,NA,tmQImp5c,2020-0188,2021-11-01,23:35:14,00:38:53,NA,incomplete,false,true,NA,7,22,size,n_s_002.jpg,right,large,small,NA,NA,NA,right,1641.39999985695,true,NA,NA,NA,NA,NA
tmQImp5c,NA,NA,tmQImp5c,2020-0188,2021-11-01,23:35:14,00:38:53,NA,incomplete,false,true,NA,7,23,size,m_l_002.jpg,left,large,small,NA,NA,NA,left,1265.09999990463,true,NA,NA,NA,NA,NA
tmQImp5c,NA,NA,tmQImp5c,2020-0188,2021-11-01,23:35:14,00:38:53,NA,incomplete,false,true,NA,7,24,size,n_l_025.jpg,right,small,large,NA,NA,NA,right,1482.70000004768,true,NA,NA,NA,NA,NA
tmQImp5c,NA,NA,tmQImp5c,2020-0188,2021-11-01,23:35:14,00:38:53,NA,incomplete,false,true,NA,7,25,origin,m_l_022.jpg,left,manmade,natural,NA,NA,NA,left,3062.40000009537,true,NA,NA,NA,NA,NA
tmQImp5c,NA,NA,tmQImp5c,2020-0188,2021-11-01,23:35:14,00:38:53,NA,incomplete,false,true,NA,7,26,origin,n_l_022.jpg,left,natural,manmade,NA,NA,NA,left,2348,true,NA,NA,NA,NA,NA
tmQImp5c,NA,NA,tmQImp5c,2020-0188,2021-11-01,23:35:14,00:38:53,NA,incomplete,false,true,NA,7,27,origin,m_l_025.jpg,left,manmade,natural,NA,NA,NA,left,1725.09999990463,true,NA,NA,NA,NA,NA
tmQImp5c,NA,NA,tmQImp5c,2020-0188,2021-11-01,23:35:14,00:38:53,NA,incomplete,false,true,NA,7,28,origin,n_s_016.jpg,left,natural,manmade,NA,NA,NA,left,2584.80000019073,true,NA,NA,NA,NA,NA
tmQImp5c,NA,NA,tmQImp5c,2020-0188,2021-11-01,23:35:14,00:38:53,NA,incomplete,false,true,NA,7,29,origin,m_s_001.jpg,left,manmade,natural,NA,NA,NA,left,2802.40000009537,true,NA,NA,NA,NA,NA
tmQImp5c,NA,NA,tmQImp5c,2020-0188,2021-11-01,23:35:14,00:38:53,NA,incomplete,false,NA,true,7,0,NA,NA,right,NA,NA,i_s_003.jpg,o_c_006.jpg,between-small,NA,NaN,NA,left,3889.2000000476837,0,1,1055.7000000476837
tmQImp5c,NA,NA,tmQImp5c,2020-0188,2021-11-01,23:35:14,00:38:53,NA,incomplete,false,NA,true,7,1,NA,NA,left,NA,NA,i_c_019.jpg,o_s_002.jpg,within,NA,NaN,NA,right,684.0999999046326,0,1,1162.1999998092651
tmQImp5c,NA,NA,tmQImp5c,2020-0188,2021-11-01,23:35:14,00:38:53,NA,incomplete,false,NA,true,7,2,NA,NA,left,NA,NA,c_1_025.jpg,a_1_017.jpg,within,NA,NaN,NA,right,711.7000000476837,0,0,1425.7000000476837
tmQImp5c,NA,NA,tmQImp5c,2020-0188,2021-11-01,23:35:14,00:38:53,NA,incomplete,false,NA,true,7,3,NA,NA,right,NA,NA,m_l_022.jpg,n_s_002.jpg,between-small,NA,NaN,NA,right,756.8000001907349,1,0,2810.9000000953674
tmQImp5c,NA,NA,tmQImp5c,2020-0188,2021-11-01,23:35:14,00:38:53,NA,incomplete,false,NA,true,7,4,NA,NA,left,NA,NA,a_2_010.jpg,c_2_014.jpg,between-small,NA,NaN,NA,left,1483.7999999523163,1,1,1140.0999999046326
tmQImp5c,NA,NA,tmQImp5c,2020-0188,2021-11-01,23:35:14,00:38:53,NA,incomplete,false,NA,true,7,5,NA,NA,right,NA,NA,i_s_006.jpg,i_c_025.jpg,within,NA,NaN,NA,right,1441.0999999046326,1,1,1227.7000000476837
tmQImp5c,NA,NA,tmQImp5c,2020-0188,2021-11-01,23:35:14,00:38:53,NA,incomplete,false,NA,true,7,6,NA,NA,right,NA,NA,o_s_021.jpg,o_c_013.jpg,within,NA,NaN,NA,left,661.2999999523163,0,0,1412.2999999523163
tmQImp5c,NA,NA,tmQImp5c,2020-0188,2021-11-01,23:35:14,00:38:53,NA,incomplete,false,NA,true,7,7,NA,NA,left,NA,NA,a_2_023.jpg,c_2_005.jpg,within,NA,NaN,NA,right,668.7000000476837,0,1,1270.2999999523163
tmQImp5c,NA,NA,tmQImp5c,2020-0188,2021-11-01,23:35:14,00:38:53,NA,incomplete,false,NA,true,7,8,NA,NA,right,NA,NA,m_s_001.jpg,n_l_022.jpg,within,NA,NaN,NA,right,5014.300000190735,1,0,1212.4000000953674
tmQImp5c,NA,NA,tmQImp5c,2020-0188,2021-11-01,23:35:14,00:38:53,NA,incomplete,false,NA,true,7,9,NA,NA,left,NA,NA,a_1_028.jpg,m_l_024.jpg,between-big,NA,NaN,NA,left,2046.9000000953674,1,2,1126.9000000953674
tmQImp5c,NA,NA,tmQImp5c,2020-0188,2021-11-01,23:35:14,00:38:53,NA,incomplete,false,NA,true,7,10,NA,NA,left,NA,NA,o_s_011.jpg,o_c_006.jpg,within,NA,NaN,NA,right,591.9000000953674,0,1,1673.2000000476837
tmQImp5c,NA,NA,tmQImp5c,2020-0188,2021-11-01,23:35:14,00:38:53,NA,incomplete,false,NA,true,7,11,NA,NA,left,NA,NA,i_s_006.jpg,a_2_023.jpg,between-big,NA,NaN,NA,right,1390.5999999046326,0,2,1076.7999999523163
tmQImp5c,NA,NA,tmQImp5c,2020-0188,2021-11-01,23:35:14,00:38:53,NA,incomplete,false,NA,true,7,12,NA,NA,left,NA,NA,m_l_002.jpg,n_l_022.jpg,between-small,NA,NaN,NA,right,577.5999999046326,0,1,1140.1000001430511
tmQImp5c,NA,NA,tmQImp5c,2020-0188,2021-11-01,23:35:14,00:38:53,NA,incomplete,false,NA,true,7,13,NA,NA,right,NA,NA,a_1_028.jpg,c_2_005.jpg,between-small,NA,NaN,NA,left,1762.5,0,1,1017.5999999046326
tmQImp5c,NA,NA,tmQImp5c,2020-0188,2021-11-01,23:35:14,00:38:53,NA,incomplete,false,NA,true,7,14,NA,NA,right,NA,NA,i_c_025.jpg,i_s_005.jpg,between-small,NA,NaN,NA,right,600.4000000953674,1,1,1325.2000000476837
tmQImp5c,NA,NA,tmQImp5c,2020-0188,2021-11-01,23:35:14,00:38:53,NA,incomplete,false,NA,true,7,15,NA,NA,right,NA,NA,c_1_023.jpg,i_s_003.jpg,between-big,NA,NaN,NA,left,664.6000001430511,0,2,1247.2999999523163
tmQImp5c,NA,NA,tmQImp5c,2020-0188,2021-11-01,23:35:14,00:38:53,NA,incomplete,false,NA,true,7,16,NA,NA,left,NA,NA,c_2_001.jpg,m_s_020.jpg,between-big,NA,NaN,NA,right,2003.5999999046326,0,2,2801.2000000476837
tmQImp5c,NA,NA,tmQImp5c,2020-0188,2021-11-01,23:35:14,00:38:53,NA,incomplete,false,NA,true,7,17,NA,NA,right,NA,NA,m_l_025.jpg,n_l_025.jpg,between-small,NA,NaN,NA,right,613.5999999046326,1,1,1546.5
tmQImp5c,NA,NA,tmQImp5c,2020-0188,2021-11-01,23:35:14,00:38:53,NA,incomplete,false,NA,true,7,18,NA,NA,left,NA,NA,m_l_024.jpg,m_l_002.jpg,within,NA,NaN,NA,right,641,0,1,1104.2999999523163
tmQImp5c,NA,NA,tmQImp5c,2020-0188,2021-11-01,23:35:14,00:38:53,NA,incomplete,false,NA,true,7,19,NA,NA,left,NA,NA,m_s_020.jpg,n_l_025.jpg,within,NA,NaN,NA,right,649.6000001430511,0,1,1183.7000000476837
tmQImp5c,NA,NA,tmQImp5c,2020-0188,2021-11-01,23:35:14,00:38:53,NA,incomplete,false,NA,true,7,20,NA,NA,left,NA,NA,o_s_021.jpg,i_c_019.jpg,between-small,NA,NaN,NA,left,676,1,1,1183.4000000953674
tmQImp5c,NA,NA,tmQImp5c,2020-0188,2021-11-01,23:35:14,00:38:53,NA,incomplete,false,NA,true,7,21,NA,NA,left,NA,NA,o_s_002.jpg,a_2_010.jpg,between-big,NA,NaN,NA,right,584.4000000953674,0,2,1133.5
tmQImp5c,NA,NA,tmQImp5c,2020-0188,2021-11-01,23:35:14,00:38:53,NA,incomplete,false,NA,true,7,22,NA,NA,left,NA,NA,a_1_022.jpg,c_1_025.jpg,between-small,NA,NaN,NA,right,513.5999999046326,0,1,1219.5
tmQImp5c,NA,NA,tmQImp5c,2020-0188,2021-11-01,23:35:14,00:38:53,NA,incomplete,false,NA,true,7,23,NA,NA,left,NA,NA,m_l_022.jpg,n_s_016.jpg,within,NA,NaN,NA,right,605.1000001430511,0,1,1446.5
tmQImp5c,NA,NA,tmQImp5c,2020-0188,2021-11-01,23:35:14,00:38:53,NA,incomplete,false,NA,true,7,24,NA,NA,left,NA,NA,a_1_017.jpg,n_s_002.jpg,between-big,NA,NaN,NA,left,3829.800000190735,1,2,3672.2000000476837
tmQImp5c,NA,NA,tmQImp5c,2020-0188,2021-11-01,23:35:14,00:38:53,NA,incomplete,false,NA,true,7,25,NA,NA,left,NA,NA,c_1_023.jpg,a_1_022.jpg,within,NA,NaN,NA,right,642.0999999046326,0,1,1967.2999999523163
tmQImp5c,NA,NA,tmQImp5c,2020-0188,2021-11-01,23:35:14,00:38:53,NA,incomplete,false,NA,true,7,26,NA,NA,left,NA,NA,c_2_014.jpg,c_2_001.jpg,within,NA,NaN,NA,right,669.5,0,1,1019
tmQImp5c,NA,NA,tmQImp5c,2020-0188,2021-11-01,23:35:14,00:38:53,NA,incomplete,false,true,NA,8,0,building,o_c_018.jpg,right,skyscraper,cottage,NA,NA,NA,none,0,false,NA,NA,NA,NA,NA
tmQImp5c,NA,NA,tmQImp5c,2020-0188,2021-11-01,23:35:14,00:38:53,NA,incomplete,false,true,NA,8,1,building,i_c_028.jpg,left,cottage,skyscraper,NA,NA,NA,left,1402.30000019073,true,NA,NA,NA,NA,NA
tmQImp5c,NA,NA,tmQImp5c,2020-0188,2021-11-01,23:35:14,00:38:53,NA,incomplete,false,true,NA,8,2,building,o_c_012.jpg,left,cottage,skyscraper,NA,NA,NA,left,931.200000047684,true,NA,NA,NA,NA,NA
tmQImp5c,NA,NA,tmQImp5c,2020-0188,2021-11-01,23:35:14,00:38:53,NA,incomplete,false,true,NA,8,3,building,o_c_028.jpg,right,skyscraper,cottage,NA,NA,NA,right,1384.80000019073,true,NA,NA,NA,NA,NA
tmQImp5c,NA,NA,tmQImp5c,2020-0188,2021-11-01,23:35:14,00:38:53,NA,incomplete,false,true,NA,8,4,building,o_s_020.jpg,right,cottage,skyscraper,NA,NA,NA,right,1376.29999995232,true,NA,NA,NA,NA,NA
tmQImp5c,NA,NA,tmQImp5c,2020-0188,2021-11-01,23:35:14,00:38:53,NA,incomplete,false,true,NA,8,5,location,o_s_006.jpg,left,outdoor,indoor,NA,NA,NA,left,2125.29999995232,true,NA,NA,NA,NA,NA
tmQImp5c,NA,NA,tmQImp5c,2020-0188,2021-11-01,23:35:14,00:38:53,NA,incomplete,false,true,NA,8,6,location,i_s_027.jpg,left,indoor,outdoor,NA,NA,NA,left,2846.40000009537,true,NA,NA,NA,NA,NA
tmQImp5c,NA,NA,tmQImp5c,2020-0188,2021-11-01,23:35:14,00:38:53,NA,incomplete,false,true,NA,8,7,location,i_c_022.jpg,left,indoor,outdoor,NA,NA,NA,left,2095.69999980927,true,NA,NA,NA,NA,NA
tmQImp5c,NA,NA,tmQImp5c,2020-0188,2021-11-01,23:35:14,00:38:53,NA,incomplete,false,true,NA,8,8,location,o_s_025.jpg,left,outdoor,indoor,NA,NA,NA,left,1535.70000004768,true,NA,NA,NA,NA,NA
tmQImp5c,NA,NA,tmQImp5c,2020-0188,2021-11-01,23:35:14,00:38:53,NA,incomplete,false,true,NA,8,9,location,o_c_023.jpg,right,indoor,outdoor,NA,NA,NA,right,2399.79999995232,true,NA,NA,NA,NA,NA
tmQImp5c,NA,NA,tmQImp5c,2020-0188,2021-11-01,23:35:14,00:38:53,NA,incomplete,false,true,NA,8,10,origin,n_s_018.jpg,left,natural,manmade,NA,NA,NA,left,2919,true,NA,NA,NA,NA,NA
tmQImp5c,NA,NA,tmQImp5c,2020-0188,2021-11-01,23:35:14,00:38:53,NA,incomplete,false,true,NA,8,11,origin,n_s_013.jpg,right,manmade,natural,NA,NA,NA,right,1736,true,NA,NA,NA,NA,NA
tmQImp5c,NA,NA,tmQImp5c,2020-0188,2021-11-01,23:35:14,00:38:53,NA,incomplete,false,true,NA,8,12,origin,n_l_010.jpg,right,manmade,natural,NA,NA,NA,right,1647.69999980927,true,NA,NA,NA,NA,NA
tmQImp5c,NA,NA,tmQImp5c,2020-0188,2021-11-01,23:35:14,00:38:53,NA,incomplete,false,true,NA,8,13,origin,m_l_016.jpg,left,manmade,natural,NA,NA,NA,left,2079,true,NA,NA,NA,NA,NA
tmQImp5c,NA,NA,tmQImp5c,2020-0188,2021-11-01,23:35:14,00:38:53,NA,incomplete,false,true,NA,8,14,origin,m_s_015.jpg,right,natural,manmade,NA,NA,NA,right,1695.59999990463,true,NA,NA,NA,NA,NA
tmQImp5c,NA,NA,tmQImp5c,2020-0188,2021-11-01,23:35:14,00:38:53,NA,incomplete,false,true,NA,8,15,size,n_s_007.jpg,right,large,small,NA,NA,NA,right,2753.80000019073,true,NA,NA,NA,NA,NA
tmQImp5c,NA,NA,tmQImp5c,2020-0188,2021-11-01,23:35:14,00:38:53,NA,incomplete,false,true,NA,8,16,size,m_s_006.jpg,left,small,large,NA,NA,NA,left,1863.30000019073,true,NA,NA,NA,NA,NA
tmQImp5c,NA,NA,tmQImp5c,2020-0188,2021-11-01,23:35:14,00:38:53,NA,incomplete,false,true,NA,8,17,size,m_l_003.jpg,left,large,small,NA,NA,NA,left,1997.90000009537,true,NA,NA,NA,NA,NA
tmQImp5c,NA,NA,tmQImp5c,2020-0188,2021-11-01,23:35:14,00:38:53,NA,incomplete,false,true,NA,8,18,size,m_s_012.jpg,right,large,small,NA,NA,NA,right,1736.29999995232,true,NA,NA,NA,NA,NA
tmQImp5c,NA,NA,tmQImp5c,2020-0188,2021-11-01,23:35:14,00:38:53,NA,incomplete,false,true,NA,8,19,size,n_s_020.jpg,left,small,large,NA,NA,NA,left,1433.5,true,NA,NA,NA,NA,NA
tmQImp5c,NA,NA,tmQImp5c,2020-0188,2021-11-01,23:35:14,00:38:53,NA,incomplete,false,true,NA,8,20,abstractness,c_1_014.jpg,left,concrete,abstract,NA,NA,NA,right,2969.89999985695,false,NA,NA,NA,NA,NA
tmQImp5c,NA,NA,tmQImp5c,2020-0188,2021-11-01,23:35:14,00:38:53,NA,incomplete,false,true,NA,8,21,abstractness,a_2_018.jpg,left,abstract,concrete,NA,NA,NA,left,1452.29999995232,true,NA,NA,NA,NA,NA
tmQImp5c,NA,NA,tmQImp5c,2020-0188,2021-11-01,23:35:14,00:38:53,NA,incomplete,false,true,NA,8,22,abstractness,c_2_028.jpg,left,concrete,abstract,NA,NA,NA,left,1792.39999985695,true,NA,NA,NA,NA,NA
tmQImp5c,NA,NA,tmQImp5c,2020-0188,2021-11-01,23:35:14,00:38:53,NA,incomplete,false,true,NA,8,23,abstractness,a_2_026.jpg,left,abstract,concrete,NA,NA,NA,left,1607.09999990463,true,NA,NA,NA,NA,NA
tmQImp5c,NA,NA,tmQImp5c,2020-0188,2021-11-01,23:35:14,00:38:53,NA,incomplete,false,true,NA,8,24,abstractness,c_1_003.jpg,left,concrete,abstract,NA,NA,NA,left,1508.90000009537,true,NA,NA,NA,NA,NA
tmQImp5c,NA,NA,tmQImp5c,2020-0188,2021-11-01,23:35:14,00:38:53,NA,incomplete,false,true,NA,8,25,syllable,c_2_003.jpg,right,2 syllables,1 syllable,NA,NA,NA,left,1900.79999995232,false,NA,NA,NA,NA,NA
tmQImp5c,NA,NA,tmQImp5c,2020-0188,2021-11-01,23:35:14,00:38:53,NA,incomplete,false,true,NA,8,26,syllable,c_2_019.jpg,right,2 syllables,1 syllable,NA,NA,NA,left,1250.5,false,NA,NA,NA,NA,NA
tmQImp5c,NA,NA,tmQImp5c,2020-0188,2021-11-01,23:35:14,00:38:53,NA,incomplete,false,true,NA,8,27,syllable,c_2_023.jpg,right,1 syllable,2 syllables,NA,NA,NA,right,1225.10000014305,true,NA,NA,NA,NA,NA
tmQImp5c,NA,NA,tmQImp5c,2020-0188,2021-11-01,23:35:14,00:38:53,NA,incomplete,false,true,NA,8,28,syllable,c_2_004.jpg,right,2 syllables,1 syllable,NA,NA,NA,left,1083.29999995232,false,NA,NA,NA,NA,NA
tmQImp5c,NA,NA,tmQImp5c,2020-0188,2021-11-01,23:35:14,00:38:53,NA,incomplete,false,true,NA,8,29,syllable,a_1_001.jpg,right,1 syllable,2 syllables,NA,NA,NA,left,1003.5,false,NA,NA,NA,NA,NA
tmQImp5c,NA,NA,tmQImp5c,2020-0188,2021-11-01,23:35:14,00:38:53,NA,incomplete,false,NA,true,8,0,NA,NA,right,NA,NA,n_s_018.jpg,i_c_022.jpg,between-big,NA,NaN,NA,right,4564.799999952316,1,2,958.0999999046326
tmQImp5c,NA,NA,tmQImp5c,2020-0188,2021-11-01,23:35:14,00:38:53,NA,incomplete,false,NA,true,8,1,NA,NA,right,NA,NA,i_s_027.jpg,o_c_028.jpg,between-small,NA,NaN,NA,right,634.6000001430511,1,1,1730.4000000953674
tmQImp5c,NA,NA,tmQImp5c,2020-0188,2021-11-01,23:35:14,00:38:53,NA,incomplete,false,NA,true,8,2,NA,NA,left,NA,NA,n_s_007.jpg,m_s_012.jpg,within,NA,NaN,NA,left,3387.100000143051,1,1,1049.4000000953674
tmQImp5c,NA,NA,tmQImp5c,2020-0188,2021-11-01,23:35:14,00:38:53,NA,incomplete,false,NA,true,8,3,NA,NA,left,NA,NA,n_s_020.jpg,c_2_028.jpg,between-big,NA,NaN,NA,left,1167,1,3,975.5999999046326
tmQImp5c,NA,NA,tmQImp5c,2020-0188,2021-11-01,23:35:14,00:38:53,NA,incomplete,false,NA,true,8,4,NA,NA,right,NA,NA,c_2_023.jpg,c_1_003.jpg,between-small,NA,NaN,NA,right,1576.8999998569489,1,1,1119.0999999046326
tmQImp5c,NA,NA,tmQImp5c,2020-0188,2021-11-01,23:35:14,00:38:53,NA,incomplete,false,NA,true,8,5,NA,NA,left,NA,NA,o_c_023.jpg,n_l_010.jpg,between-big,NA,NaN,NA,right,4965,0,2,1573.9000000953674
tmQImp5c,NA,NA,tmQImp5c,2020-0188,2021-11-01,23:35:14,00:38:53,NA,incomplete,false,NA,true,8,6,NA,NA,right,NA,NA,m_s_006.jpg,m_l_016.jpg,between-small,NA,NaN,NA,left,1206.2000000476837,0,1,1208
tmQImp5c,NA,NA,tmQImp5c,2020-0188,2021-11-01,23:35:14,00:38:53,NA,incomplete,false,NA,true,8,7,NA,NA,left,NA,NA,i_s_027.jpg,o_c_023.jpg,within,NA,NaN,NA,right,2297.0999999046326,0,0,928.9000000953674
tmQImp5c,NA,NA,tmQImp5c,2020-0188,2021-11-01,23:35:14,00:38:53,NA,incomplete,false,NA,true,8,8,NA,NA,left,NA,NA,m_s_012.jpg,a_2_018.jpg,between-big,NA,NaN,NA,left,1282.9000000953674,1,3,2353.7999999523163
tmQImp5c,NA,NA,tmQImp5c,2020-0188,2021-11-01,23:35:14,00:38:53,NA,incomplete,false,NA,true,8,9,NA,NA,right,NA,NA,m_l_003.jpg,m_s_015.jpg,between-small,NA,NaN,NA,right,1075.7999999523163,1,0,2630.7999999523163
tmQImp5c,NA,NA,tmQImp5c,2020-0188,2021-11-01,23:35:14,00:38:53,NA,incomplete,false,NA,true,8,10,NA,NA,right,NA,NA,c_2_019.jpg,a_2_026.jpg,between-small,NA,NaN,NA,right,763.9000000953674,1,1,1139.7999999523163
tmQImp5c,NA,NA,tmQImp5c,2020-0188,2021-11-01,23:35:14,00:38:53,NA,incomplete,false,NA,true,8,11,NA,NA,right,NA,NA,n_s_013.jpg,o_s_025.jpg,between-big,NA,NaN,NA,left,1298.8999998569489,0,1,1325.6999998092651
tmQImp5c,NA,NA,tmQImp5c,2020-0188,2021-11-01,23:35:14,00:38:53,NA,incomplete,false,NA,true,8,12,NA,NA,left,NA,NA,n_s_018.jpg,m_l_016.jpg,within,NA,NaN,NA,left,1767.5,1,1,2168.4000000953674
tmQImp5c,NA,NA,tmQImp5c,2020-0188,2021-11-01,23:35:14,00:38:53,NA,incomplete,false,NA,true,8,13,NA,NA,left,NA,NA,n_l_010.jpg,n_s_007.jpg,between-small,NA,NaN,NA,right,903.8999998569489,0,1,1788.2000000476837
tmQImp5c,NA,NA,tmQImp5c,2020-0188,2021-11-01,23:35:14,00:38:53,NA,incomplete,false,NA,true,8,14,NA,NA,right,NA,NA,c_1_003.jpg,a_2_018.jpg,within,NA,NaN,NA,right,934.3999998569489,1,0,3308.0999999046326
tmQImp5c,NA,NA,tmQImp5c,2020-0188,2021-11-01,23:35:14,00:38:53,NA,incomplete,false,NA,true,8,15,NA,NA,left,NA,NA,o_s_006.jpg,o_s_025.jpg,within,NA,NaN,NA,left,893.0999999046326,1,0,1911.9000000953674
tmQImp5c,NA,NA,tmQImp5c,2020-0188,2021-11-01,23:35:14,00:38:53,NA,incomplete,false,NA,true,8,16,NA,NA,right,NA,NA,o_s_020.jpg,i_c_028.jpg,within,NA,NaN,NA,right,812,1,1,996.5
tmQImp5c,NA,NA,tmQImp5c,2020-0188,2021-11-01,23:35:14,00:38:53,NA,incomplete,false,NA,true,8,17,NA,NA,left,NA,NA,o_c_018.jpg,o_c_028.jpg,within,NA,NaN,NA,right,735.0999999046326,0,1,3003.9000000953674
tmQImp5c,NA,NA,tmQImp5c,2020-0188,2021-11-01,23:35:14,00:38:53,NA,incomplete,false,NA,true,8,18,NA,NA,left,NA,NA,c_2_028.jpg,c_2_003.jpg,between-small,NA,NaN,NA,right,699.5,0,0,2288.2000000476837
tmQImp5c,NA,NA,tmQImp5c,2020-0188,2021-11-01,23:35:14,00:38:53,NA,incomplete,false,NA,true,8,19,NA,NA,left,NA,NA,m_l_003.jpg,c_1_014.jpg,between-big,NA,NaN,NA,left,1989.1000001430511,1,3,970.5
tmQImp5c,NA,NA,tmQImp5c,2020-0188,2021-11-01,23:35:14,00:38:53,NA,incomplete,false,NA,true,8,20,NA,NA,left,NA,NA,o_s_020.jpg,i_c_022.jpg,between-small,NA,NaN,NA,right,677.3999998569489,0,0,2352.7000000476837
tmQImp5c,NA,NA,tmQImp5c,2020-0188,2021-11-01,23:35:14,00:38:53,NA,incomplete,false,NA,true,8,21,NA,NA,right,NA,NA,a_2_026.jpg,c_1_014.jpg,within,NA,NaN,NA,right,634.2999999523163,1,1,1438
tmQImp5c,NA,NA,tmQImp5c,2020-0188,2021-11-01,23:35:14,00:38:53,NA,incomplete,false,NA,true,8,22,NA,NA,right,NA,NA,c_2_004.jpg,c_2_003.jpg,within,NA,NaN,NA,right,676.9000000953674,1,1,1682.5
tmQImp5c,NA,NA,tmQImp5c,2020-0188,2021-11-01,23:35:14,00:38:53,NA,incomplete,false,NA,true,8,23,NA,NA,left,NA,NA,c_2_019.jpg,a_1_001.jpg,within,NA,NaN,NA,right,791.2999999523163,0,1,919
tmQImp5c,NA,NA,tmQImp5c,2020-0188,2021-11-01,23:35:14,00:38:53,NA,incomplete,false,NA,true,8,24,NA,NA,right,NA,NA,m_s_015.jpg,n_s_013.jpg,within,NA,NaN,NA,right,1019.6000001430511,1,1,2089.899999856949
tmQImp5c,NA,NA,tmQImp5c,2020-0188,2021-11-01,23:35:14,00:38:53,NA,incomplete,false,NA,true,8,25,NA,NA,right,NA,NA,n_s_020.jpg,m_s_006.jpg,within,NA,NaN,NA,right,655.7000000476837,1,0,1346.3999998569489
tmQImp5c,NA,NA,tmQImp5c,2020-0188,2021-11-01,23:35:14,00:38:53,NA,incomplete,false,NA,true,8,26,NA,NA,right,NA,NA,o_s_006.jpg,o_c_012.jpg,between-small,NA,NaN,NA,left,1047.7000000476837,0,0,1718.0999999046326
tmQImp5c,NA,NA,tmQImp5c,2020-0188,2021-11-01,23:35:14,00:38:53,NA,incomplete,false,true,NA,9,0,size,m_l_004.jpg,right,small,large,NA,NA,NA,right,2723.09999990463,true,NA,NA,NA,NA,NA
tmQImp5c,NA,NA,tmQImp5c,2020-0188,2021-11-01,23:35:14,00:38:53,NA,incomplete,false,true,NA,9,1,size,n_s_014.jpg,right,large,small,NA,NA,NA,right,1670.79999995232,true,NA,NA,NA,NA,NA
