workerId,hitId,assignmentId,subject,studyid,exp_date,exp_start,exp_end,time_start,time_end,practice,encoding,memory,block,trial,event,stim,answer,label_left,label_right,left_image,right_image,condition,response,response_time,response_acc,order_response,order_response_time,order_acc,distance_response,distance_response_time
TZ34OsrE,NA,NA,TZ34OsrE,2020-0188,2021-11-02,16:07:31,17:35:52,NA,incomplete,true,true,NA,0,0,abstractness,c_1_021.jpg,right,abstract,concrete,NA,NA,NA,right,2164.30000001192,true,NA,NA,NA,NA,NA
TZ34OsrE,NA,NA,TZ34OsrE,2020-0188,2021-11-02,16:07:31,17:35:52,NA,incomplete,true,true,NA,0,1,abstractness,c_2_016.jpg,left,concrete,abstract,NA,NA,NA,left,2505,true,NA,NA,NA,NA,NA
TZ34OsrE,NA,NA,TZ34OsrE,2020-0188,2021-11-02,16:07:31,17:35:52,NA,incomplete,true,true,NA,0,2,abstractness,c_2_005.jpg,left,concrete,abstract,NA,NA,NA,left,1569.69999998808,true,NA,NA,NA,NA,NA
TZ34OsrE,NA,NA,TZ34OsrE,2020-0188,2021-11-02,16:07:31,17:35:52,NA,incomplete,true,true,NA,0,3,abstractness,c_1_012.jpg,right,abstract,concrete,NA,NA,NA,right,1058.09999996424,true,NA,NA,NA,NA,NA
TZ34OsrE,NA,NA,TZ34OsrE,2020-0188,2021-11-02,16:07:31,17:35:52,NA,incomplete,true,true,NA,0,4,abstractness,a_2_015.jpg,left,abstract,concrete,NA,NA,NA,left,1766,true,NA,NA,NA,NA,NA
TZ34OsrE,NA,NA,TZ34OsrE,2020-0188,2021-11-02,16:07:31,17:35:52,NA,incomplete,true,true,NA,0,5,syllable,a_1_001.jpg,right,1 syllable,2 syllables,NA,NA,NA,left,1633.69999998808,false,NA,NA,NA,NA,NA
TZ34OsrE,NA,NA,TZ34OsrE,2020-0188,2021-11-02,16:07:31,17:35:52,NA,incomplete,true,true,NA,0,6,syllable,c_1_003.jpg,right,1 syllable,2 syllables,NA,NA,NA,left,1485.5,false,NA,NA,NA,NA,NA
TZ34OsrE,NA,NA,TZ34OsrE,2020-0188,2021-11-02,16:07:31,17:35:52,NA,incomplete,true,true,NA,0,7,syllable,c_2_020.jpg,right,2 syllables,1 syllable,NA,NA,NA,left,979.599999964237,false,NA,NA,NA,NA,NA
TZ34OsrE,NA,NA,TZ34OsrE,2020-0188,2021-11-02,16:07:31,17:35:52,NA,incomplete,true,true,NA,0,8,syllable,a_2_009.jpg,right,2 syllables,1 syllable,NA,NA,NA,left,962.900000035763,false,NA,NA,NA,NA,NA
TZ34OsrE,NA,NA,TZ34OsrE,2020-0188,2021-11-02,16:07:31,17:35:52,NA,incomplete,true,true,NA,0,9,syllable,c_1_020.jpg,right,2 syllables,1 syllable,NA,NA,NA,right,1472.89999997616,true,NA,NA,NA,NA,NA
TZ34OsrE,NA,NA,TZ34OsrE,2020-0188,2021-11-02,16:07:31,17:35:52,NA,incomplete,true,true,NA,0,10,location,i_s_008.jpg,left,indoor,outdoor,NA,NA,NA,left,1510.70000004768,true,NA,NA,NA,NA,NA
TZ34OsrE,NA,NA,TZ34OsrE,2020-0188,2021-11-02,16:07:31,17:35:52,NA,incomplete,true,true,NA,0,11,location,o_c_012.jpg,right,indoor,outdoor,NA,NA,NA,right,1310.29999995232,true,NA,NA,NA,NA,NA
TZ34OsrE,NA,NA,TZ34OsrE,2020-0188,2021-11-02,16:07:31,17:35:52,NA,incomplete,true,true,NA,0,12,location,i_s_013.jpg,right,outdoor,indoor,NA,NA,NA,right,1056.5,true,NA,NA,NA,NA,NA
TZ34OsrE,NA,NA,TZ34OsrE,2020-0188,2021-11-02,16:07:31,17:35:52,NA,incomplete,true,true,NA,0,13,location,o_s_018.jpg,left,outdoor,indoor,NA,NA,NA,left,1576.69999998808,true,NA,NA,NA,NA,NA
TZ34OsrE,NA,NA,TZ34OsrE,2020-0188,2021-11-02,16:07:31,17:35:52,NA,incomplete,true,true,NA,0,14,location,i_s_007.jpg,right,outdoor,indoor,NA,NA,NA,right,1618,true,NA,NA,NA,NA,NA
TZ34OsrE,NA,NA,TZ34OsrE,2020-0188,2021-11-02,16:07:31,17:35:52,NA,incomplete,true,true,NA,0,15,building,i_s_004.jpg,left,skyscraper,cottage,NA,NA,NA,left,1622.59999996424,true,NA,NA,NA,NA,NA
TZ34OsrE,NA,NA,TZ34OsrE,2020-0188,2021-11-02,16:07:31,17:35:52,NA,incomplete,true,true,NA,0,16,building,i_s_010.jpg,left,skyscraper,cottage,NA,NA,NA,left,938.300000011921,true,NA,NA,NA,NA,NA
TZ34OsrE,NA,NA,TZ34OsrE,2020-0188,2021-11-02,16:07:31,17:35:52,NA,incomplete,true,true,NA,0,17,building,i_c_001.jpg,left,cottage,skyscraper,NA,NA,NA,left,1508.80000001192,true,NA,NA,NA,NA,NA
TZ34OsrE,NA,NA,TZ34OsrE,2020-0188,2021-11-02,16:07:31,17:35:52,NA,incomplete,true,true,NA,0,18,building,o_c_002.jpg,left,cottage,skyscraper,NA,NA,NA,left,1227.29999995232,true,NA,NA,NA,NA,NA
TZ34OsrE,NA,NA,TZ34OsrE,2020-0188,2021-11-02,16:07:31,17:35:52,NA,incomplete,true,true,NA,0,19,building,i_c_002.jpg,right,skyscraper,cottage,NA,NA,NA,right,1208.39999997616,true,NA,NA,NA,NA,NA
TZ34OsrE,NA,NA,TZ34OsrE,2020-0188,2021-11-02,16:07:31,17:35:52,NA,incomplete,true,true,NA,0,20,size,m_l_003.jpg,right,small,large,NA,NA,NA,right,1733.39999997616,true,NA,NA,NA,NA,NA
TZ34OsrE,NA,NA,TZ34OsrE,2020-0188,2021-11-02,16:07:31,17:35:52,NA,incomplete,true,true,NA,0,21,size,n_l_028.jpg,left,large,small,NA,NA,NA,left,1020.39999997616,true,NA,NA,NA,NA,NA
TZ34OsrE,NA,NA,TZ34OsrE,2020-0188,2021-11-02,16:07:31,17:35:52,NA,incomplete,true,true,NA,0,22,size,n_s_021.jpg,right,large,small,NA,NA,NA,right,1196.5,true,NA,NA,NA,NA,NA
TZ34OsrE,NA,NA,TZ34OsrE,2020-0188,2021-11-02,16:07:31,17:35:52,NA,incomplete,true,true,NA,0,23,size,n_s_002.jpg,left,small,large,NA,NA,NA,left,1832.39999997616,true,NA,NA,NA,NA,NA
TZ34OsrE,NA,NA,TZ34OsrE,2020-0188,2021-11-02,16:07:31,17:35:52,NA,incomplete,true,true,NA,0,24,size,n_s_009.jpg,right,large,small,NA,NA,NA,right,1569.10000002384,true,NA,NA,NA,NA,NA
TZ34OsrE,NA,NA,TZ34OsrE,2020-0188,2021-11-02,16:07:31,17:35:52,NA,incomplete,true,true,NA,0,25,origin,n_l_017.jpg,right,manmade,natural,NA,NA,NA,left,1916.69999998808,false,NA,NA,NA,NA,NA
TZ34OsrE,NA,NA,TZ34OsrE,2020-0188,2021-11-02,16:07:31,17:35:52,NA,incomplete,true,true,NA,0,26,origin,m_s_010.jpg,left,manmade,natural,NA,NA,NA,left,1170,true,NA,NA,NA,NA,NA
TZ34OsrE,NA,NA,TZ34OsrE,2020-0188,2021-11-02,16:07:31,17:35:52,NA,incomplete,true,true,NA,0,27,origin,m_l_025.jpg,left,manmade,natural,NA,NA,NA,left,1611.30000001192,true,NA,NA,NA,NA,NA
TZ34OsrE,NA,NA,TZ34OsrE,2020-0188,2021-11-02,16:07:31,17:35:52,NA,incomplete,true,true,NA,0,28,origin,m_l_001.jpg,right,natural,manmade,NA,NA,NA,left,2109.80000001192,false,NA,NA,NA,NA,NA
TZ34OsrE,NA,NA,TZ34OsrE,2020-0188,2021-11-02,16:07:31,17:35:52,NA,incomplete,true,true,NA,0,29,origin,m_s_016.jpg,right,natural,manmade,NA,NA,NA,right,1804.20000004768,true,NA,NA,NA,NA,NA
TZ34OsrE,NA,NA,TZ34OsrE,2020-0188,2021-11-02,16:07:31,17:35:52,NA,incomplete,true,NA,true,0,0,NA,NA,left,NA,NA,n_l_028.jpg,n_s_009.jpg,within,NA,NaN,NA,right,3972.300000011921,0,1,1711.300000011921
TZ34OsrE,NA,NA,TZ34OsrE,2020-0188,2021-11-02,16:07:31,17:35:52,NA,incomplete,true,NA,true,0,1,NA,NA,right,NA,NA,i_s_004.jpg,i_s_013.jpg,between-small,NA,NaN,NA,left,3031,0,0,1752.3999999761581
TZ34OsrE,NA,NA,TZ34OsrE,2020-0188,2021-11-02,16:07:31,17:35:52,NA,incomplete,true,NA,true,0,2,NA,NA,left,NA,NA,a_2_015.jpg,c_2_020.jpg,between-small,NA,NaN,NA,left,4522.099999964237,1,2,1742.5
TZ34OsrE,NA,NA,TZ34OsrE,2020-0188,2021-11-02,16:07:31,17:35:52,NA,incomplete,true,NA,true,0,3,NA,NA,right,NA,NA,m_s_010.jpg,n_s_002.jpg,between-small,NA,NaN,NA,left,2430.800000011921,0,1,1604.699999988079
TZ34OsrE,NA,NA,TZ34OsrE,2020-0188,2021-11-02,16:07:31,17:35:52,NA,incomplete,true,NA,true,0,4,NA,NA,left,NA,NA,c_1_012.jpg,c_1_003.jpg,between-small,NA,NaN,NA,left,7562,1,3,3164.199999988079
TZ34OsrE,NA,NA,TZ34OsrE,2020-0188,2021-11-02,16:07:31,17:35:52,NA,incomplete,true,NA,true,0,5,NA,NA,right,NA,NA,a_2_015.jpg,c_2_016.jpg,within,NA,NaN,NA,right,2411.899999976158,1,2,1289.8999999761581
TZ34OsrE,NA,NA,TZ34OsrE,2020-0188,2021-11-02,16:07:31,17:35:52,NA,incomplete,true,NA,true,0,6,NA,NA,left,NA,NA,i_s_010.jpg,i_c_002.jpg,within,NA,NaN,NA,left,4395.300000011921,1,0,2162.300000011921
TZ34OsrE,NA,NA,TZ34OsrE,2020-0188,2021-11-02,16:07:31,17:35:52,NA,incomplete,true,NA,true,0,7,NA,NA,left,NA,NA,c_2_005.jpg,a_1_001.jpg,between-small,NA,NaN,NA,left,7815.699999988079,1,2,1153
TZ34OsrE,NA,NA,TZ34OsrE,2020-0188,2021-11-02,16:07:31,17:35:52,NA,incomplete,true,NA,true,0,8,NA,NA,left,NA,NA,o_c_012.jpg,i_s_007.jpg,within,NA,NaN,NA,right,3021,0,0,1334.1000000238419
TZ34OsrE,NA,NA,TZ34OsrE,2020-0188,2021-11-02,16:07:31,17:35:52,NA,incomplete,true,NA,true,0,9,NA,NA,right,NA,NA,m_l_025.jpg,n_s_009.jpg,between-small,NA,NaN,NA,right,4551.800000011921,1,1,1031.800000011921
TZ34OsrE,NA,NA,TZ34OsrE,2020-0188,2021-11-02,16:07:31,17:35:52,NA,incomplete,true,NA,true,0,10,NA,NA,left,NA,NA,i_s_007.jpg,i_c_001.jpg,between-small,NA,NaN,NA,left,3180,1,0,1346.6000000238419
TZ34OsrE,NA,NA,TZ34OsrE,2020-0188,2021-11-02,16:07:31,17:35:52,NA,incomplete,true,NA,true,0,11,NA,NA,left,NA,NA,o_s_018.jpg,i_s_010.jpg,between-small,NA,NaN,NA,right,2785,0,0,1560.699999988079
TZ34OsrE,NA,NA,TZ34OsrE,2020-0188,2021-11-02,16:07:31,17:35:52,NA,incomplete,true,NA,true,0,12,NA,NA,left,NA,NA,n_s_021.jpg,n_l_017.jpg,between-small,NA,NaN,NA,right,2914.100000023842,0,1,4745.600000023842
TZ34OsrE,NA,NA,TZ34OsrE,2020-0188,2021-11-02,16:07:31,17:35:52,NA,incomplete,true,NA,true,0,13,NA,NA,left,NA,NA,i_c_002.jpg,n_s_021.jpg,between-big,NA,NaN,NA,left,5352,1,0,2424.099999964237
TZ34OsrE,NA,NA,TZ34OsrE,2020-0188,2021-11-02,16:07:31,17:35:52,NA,incomplete,true,NA,true,0,14,NA,NA,right,NA,NA,c_1_012.jpg,c_1_021.jpg,within,NA,NaN,NA,right,4068,1,3,2809.699999988079
TZ34OsrE,NA,NA,TZ34OsrE,2020-0188,2021-11-02,16:07:31,17:35:52,NA,incomplete,true,NA,true,0,15,NA,NA,right,NA,NA,n_s_002.jpg,m_l_003.jpg,within,NA,NaN,NA,right,3818.400000035763,1,1,2417
TZ34OsrE,NA,NA,TZ34OsrE,2020-0188,2021-11-02,16:07:31,17:35:52,NA,incomplete,true,NA,true,0,16,NA,NA,right,NA,NA,m_l_003.jpg,i_c_001.jpg,between-big,NA,NaN,NA,left,2784.800000011921,0,0,1814.3999999761581
TZ34OsrE,NA,NA,TZ34OsrE,2020-0188,2021-11-02,16:07:31,17:35:52,NA,incomplete,true,NA,true,0,17,NA,NA,left,NA,NA,i_s_004.jpg,o_c_002.jpg,within,NA,NaN,NA,left,2261,1,0,1448.1000000238419
TZ34OsrE,NA,NA,TZ34OsrE,2020-0188,2021-11-02,16:07:31,17:35:52,NA,incomplete,true,NA,true,0,18,NA,NA,right,NA,NA,i_s_013.jpg,c_1_020.jpg,between-big,NA,NaN,NA,right,2017.2999999523163,1,2,8001.699999988079
TZ34OsrE,NA,NA,TZ34OsrE,2020-0188,2021-11-02,16:07:31,17:35:52,NA,incomplete,true,NA,true,0,19,NA,NA,right,NA,NA,m_l_001.jpg,n_l_017.jpg,within,NA,NaN,NA,right,2534.5,1,1,1358.1000000238419
TZ34OsrE,NA,NA,TZ34OsrE,2020-0188,2021-11-02,16:07:31,17:35:52,NA,incomplete,true,NA,true,0,20,NA,NA,left,NA,NA,o_c_002.jpg,n_l_028.jpg,between-big,NA,NaN,NA,right,1472.699999988079,0,1,2351.5
TZ34OsrE,NA,NA,TZ34OsrE,2020-0188,2021-11-02,16:07:31,17:35:52,NA,incomplete,true,NA,true,0,21,NA,NA,right,NA,NA,m_s_016.jpg,m_s_010.jpg,within,NA,NaN,NA,right,2155.199999988079,1,1,1321
TZ34OsrE,NA,NA,TZ34OsrE,2020-0188,2021-11-02,16:07:31,17:35:52,NA,incomplete,true,NA,true,0,22,NA,NA,right,NA,NA,o_c_012.jpg,a_2_009.jpg,between-big,NA,NaN,NA,right,4330.300000011921,1,1,1501
TZ34OsrE,NA,NA,TZ34OsrE,2020-0188,2021-11-02,16:07:31,17:35:52,NA,incomplete,true,NA,true,0,23,NA,NA,right,NA,NA,c_1_020.jpg,c_1_003.jpg,within,NA,NaN,NA,left,1756.300000011921,0,2,7158.199999988079
TZ34OsrE,NA,NA,TZ34OsrE,2020-0188,2021-11-02,16:07:31,17:35:52,NA,incomplete,true,NA,true,0,24,NA,NA,right,NA,NA,a_2_009.jpg,a_1_001.jpg,within,NA,NaN,NA,right,2209,1,2,1289.800000011921
TZ34OsrE,NA,NA,TZ34OsrE,2020-0188,2021-11-02,16:07:31,17:35:52,NA,incomplete,true,NA,true,0,25,NA,NA,right,NA,NA,i_s_008.jpg,c_2_020.jpg,between-big,NA,NaN,NA,right,2398.400000035763,1,2,1838.199999988079
TZ34OsrE,NA,NA,TZ34OsrE,2020-0188,2021-11-02,16:07:31,17:35:52,NA,incomplete,true,NA,true,0,26,NA,NA,right,NA,NA,o_s_018.jpg,i_s_008.jpg,within,NA,NaN,NA,right,1299.0999999642372,1,0,1725.199999988079
TZ34OsrE,NA,NA,TZ34OsrE,2020-0188,2021-11-02,16:07:31,17:35:52,NA,incomplete,false,true,NA,1,0,syllable,a_1_020.jpg,right,2 syllables,1 syllable,NA,NA,NA,right,1612.39999997616,true,NA,NA,NA,NA,NA
TZ34OsrE,NA,NA,TZ34OsrE,2020-0188,2021-11-02,16:07:31,17:35:52,NA,incomplete,false,true,NA,1,1,syllable,a_1_022.jpg,right,1 syllable,2 syllables,NA,NA,NA,left,1087.79999995232,false,NA,NA,NA,NA,NA
TZ34OsrE,NA,NA,TZ34OsrE,2020-0188,2021-11-02,16:07:31,17:35:52,NA,incomplete,false,true,NA,1,2,syllable,a_2_021.jpg,right,2 syllables,1 syllable,NA,NA,NA,left,950.300000011921,false,NA,NA,NA,NA,NA
TZ34OsrE,NA,NA,TZ34OsrE,2020-0188,2021-11-02,16:07:31,17:35:52,NA,incomplete,false,true,NA,1,3,syllable,a_2_016.jpg,right,1 syllable,2 syllables,NA,NA,NA,right,1215.40000003576,true,NA,NA,NA,NA,NA
TZ34OsrE,NA,NA,TZ34OsrE,2020-0188,2021-11-02,16:07:31,17:35:52,NA,incomplete,false,true,NA,1,4,syllable,c_2_013.jpg,right,2 syllables,1 syllable,NA,NA,NA,left,870.300000011921,false,NA,NA,NA,NA,NA
TZ34OsrE,NA,NA,TZ34OsrE,2020-0188,2021-11-02,16:07:31,17:35:52,NA,incomplete,false,true,NA,1,5,abstractness,c_2_002.jpg,right,abstract,concrete,NA,NA,NA,right,2232.69999998808,true,NA,NA,NA,NA,NA
TZ34OsrE,NA,NA,TZ34OsrE,2020-0188,2021-11-02,16:07:31,17:35:52,NA,incomplete,false,true,NA,1,6,abstractness,c_2_009.jpg,right,abstract,concrete,NA,NA,NA,right,1755.39999997616,true,NA,NA,NA,NA,NA
TZ34OsrE,NA,NA,TZ34OsrE,2020-0188,2021-11-02,16:07:31,17:35:52,NA,incomplete,false,true,NA,1,7,abstractness,a_2_003.jpg,left,abstract,concrete,NA,NA,NA,left,1127.19999998808,true,NA,NA,NA,NA,NA
TZ34OsrE,NA,NA,TZ34OsrE,2020-0188,2021-11-02,16:07:31,17:35:52,NA,incomplete,false,true,NA,1,8,abstractness,c_2_001.jpg,right,abstract,concrete,NA,NA,NA,right,1496.30000001192,true,NA,NA,NA,NA,NA
TZ34OsrE,NA,NA,TZ34OsrE,2020-0188,2021-11-02,16:07:31,17:35:52,NA,incomplete,false,true,NA,1,9,abstractness,a_1_014.jpg,right,concrete,abstract,NA,NA,NA,right,1695.60000002384,true,NA,NA,NA,NA,NA
TZ34OsrE,NA,NA,TZ34OsrE,2020-0188,2021-11-02,16:07:31,17:35:52,NA,incomplete,false,true,NA,1,10,size,m_s_017.jpg,left,small,large,NA,NA,NA,left,1767,true,NA,NA,NA,NA,NA
TZ34OsrE,NA,NA,TZ34OsrE,2020-0188,2021-11-02,16:07:31,17:35:52,NA,incomplete,false,true,NA,1,11,size,m_l_005.jpg,left,large,small,NA,NA,NA,left,1012.39999997616,true,NA,NA,NA,NA,NA
TZ34OsrE,NA,NA,TZ34OsrE,2020-0188,2021-11-02,16:07:31,17:35:52,NA,incomplete,false,true,NA,1,12,size,n_s_014.jpg,left,small,large,NA,NA,NA,right,2288.5,false,NA,NA,NA,NA,NA
TZ34OsrE,NA,NA,TZ34OsrE,2020-0188,2021-11-02,16:07:31,17:35:52,NA,incomplete,false,true,NA,1,13,size,m_s_004.jpg,left,small,large,NA,NA,NA,left,1898.69999998808,true,NA,NA,NA,NA,NA
TZ34OsrE,NA,NA,TZ34OsrE,2020-0188,2021-11-02,16:07:31,17:35:52,NA,incomplete,false,true,NA,1,14,size,n_l_004.jpg,right,small,large,NA,NA,NA,right,841.400000035763,true,NA,NA,NA,NA,NA
TZ34OsrE,NA,NA,TZ34OsrE,2020-0188,2021-11-02,16:07:31,17:35:52,NA,incomplete,false,true,NA,1,15,origin,n_l_013.jpg,right,manmade,natural,NA,NA,NA,right,1556.39999997616,true,NA,NA,NA,NA,NA
TZ34OsrE,NA,NA,TZ34OsrE,2020-0188,2021-11-02,16:07:31,17:35:52,NA,incomplete,false,true,NA,1,16,origin,m_s_027.jpg,right,natural,manmade,NA,NA,NA,right,1314.39999997616,true,NA,NA,NA,NA,NA
TZ34OsrE,NA,NA,TZ34OsrE,2020-0188,2021-11-02,16:07:31,17:35:52,NA,incomplete,false,true,NA,1,17,origin,n_s_003.jpg,right,manmade,natural,NA,NA,NA,right,2110.19999998808,true,NA,NA,NA,NA,NA
TZ34OsrE,NA,NA,TZ34OsrE,2020-0188,2021-11-02,16:07:31,17:35:52,NA,incomplete,false,true,NA,1,18,origin,n_l_002.jpg,right,manmade,natural,NA,NA,NA,right,1853.69999998808,true,NA,NA,NA,NA,NA
TZ34OsrE,NA,NA,TZ34OsrE,2020-0188,2021-11-02,16:07:31,17:35:52,NA,incomplete,false,true,NA,1,19,origin,n_s_013.jpg,left,natural,manmade,NA,NA,NA,left,2674.19999998808,true,NA,NA,NA,NA,NA
TZ34OsrE,NA,NA,TZ34OsrE,2020-0188,2021-11-02,16:07:31,17:35:52,NA,incomplete,false,true,NA,1,20,location,o_c_018.jpg,left,outdoor,indoor,NA,NA,NA,left,2764.40000003576,true,NA,NA,NA,NA,NA
TZ34OsrE,NA,NA,TZ34OsrE,2020-0188,2021-11-02,16:07:31,17:35:52,NA,incomplete,false,true,NA,1,21,location,i_c_024.jpg,right,outdoor,indoor,NA,NA,NA,right,1022.29999995232,true,NA,NA,NA,NA,NA
TZ34OsrE,NA,NA,TZ34OsrE,2020-0188,2021-11-02,16:07:31,17:35:52,NA,incomplete,false,true,NA,1,22,location,o_c_001.jpg,right,indoor,outdoor,NA,NA,NA,right,1719.60000002384,true,NA,NA,NA,NA,NA
TZ34OsrE,NA,NA,TZ34OsrE,2020-0188,2021-11-02,16:07:31,17:35:52,NA,incomplete,false,true,NA,1,23,location,o_c_014.jpg,right,indoor,outdoor,NA,NA,NA,right,1257.80000001192,true,NA,NA,NA,NA,NA
TZ34OsrE,NA,NA,TZ34OsrE,2020-0188,2021-11-02,16:07:31,17:35:52,NA,incomplete,false,true,NA,1,24,location,i_c_028.jpg,left,indoor,outdoor,NA,NA,NA,left,1510.89999997616,true,NA,NA,NA,NA,NA
TZ34OsrE,NA,NA,TZ34OsrE,2020-0188,2021-11-02,16:07:31,17:35:52,NA,incomplete,false,true,NA,1,25,building,o_c_021.jpg,right,skyscraper,cottage,NA,NA,NA,right,1606.5,true,NA,NA,NA,NA,NA
TZ34OsrE,NA,NA,TZ34OsrE,2020-0188,2021-11-02,16:07:31,17:35:52,NA,incomplete,false,true,NA,1,26,building,i_s_006.jpg,right,cottage,skyscraper,NA,NA,NA,right,1517.29999995232,true,NA,NA,NA,NA,NA
TZ34OsrE,NA,NA,TZ34OsrE,2020-0188,2021-11-02,16:07:31,17:35:52,NA,incomplete,false,true,NA,1,27,building,o_s_023.jpg,right,cottage,skyscraper,NA,NA,NA,right,1555.39999997616,true,NA,NA,NA,NA,NA
TZ34OsrE,NA,NA,TZ34OsrE,2020-0188,2021-11-02,16:07:31,17:35:52,NA,incomplete,false,true,NA,1,28,building,i_c_023.jpg,right,skyscraper,cottage,NA,NA,NA,right,1193.10000002384,true,NA,NA,NA,NA,NA
TZ34OsrE,NA,NA,TZ34OsrE,2020-0188,2021-11-02,16:07:31,17:35:52,NA,incomplete,false,true,NA,1,29,building,o_s_006.jpg,right,cottage,skyscraper,NA,NA,NA,right,1533.79999995232,true,NA,NA,NA,NA,NA
TZ34OsrE,NA,NA,TZ34OsrE,2020-0188,2021-11-02,16:07:31,17:35:52,NA,incomplete,false,NA,true,1,0,NA,NA,left,NA,NA,c_2_013.jpg,a_2_003.jpg,between-small,NA,NaN,NA,left,3392.099999964237,1,1,2039.699999988079
TZ34OsrE,NA,NA,TZ34OsrE,2020-0188,2021-11-02,16:07:31,17:35:52,NA,incomplete,false,NA,true,1,1,NA,NA,right,NA,NA,o_c_018.jpg,n_s_003.jpg,between-big,NA,NaN,NA,right,1492.3999999761581,1,1,1794.300000011921
TZ34OsrE,NA,NA,TZ34OsrE,2020-0188,2021-11-02,16:07:31,17:35:52,NA,incomplete,false,NA,true,1,2,NA,NA,right,NA,NA,n_s_013.jpg,m_s_027.jpg,within,NA,NaN,NA,right,4050.399999976158,1,1,1250.1000000238419
TZ34OsrE,NA,NA,TZ34OsrE,2020-0188,2021-11-02,16:07:31,17:35:52,NA,incomplete,false,NA,true,1,3,NA,NA,left,NA,NA,i_s_006.jpg,o_s_006.jpg,within,NA,NaN,NA,left,1618.5,1,0,959.1999999880791
TZ34OsrE,NA,NA,TZ34OsrE,2020-0188,2021-11-02,16:07:31,17:35:52,NA,incomplete,false,NA,true,1,4,NA,NA,left,NA,NA,o_c_018.jpg,o_c_014.jpg,within,NA,NaN,NA,left,2269.699999988079,1,0,2124.199999988079
TZ34OsrE,NA,NA,TZ34OsrE,2020-0188,2021-11-02,16:07:31,17:35:52,NA,incomplete,false,NA,true,1,5,NA,NA,right,NA,NA,n_l_004.jpg,m_l_005.jpg,within,NA,NaN,NA,right,1934,1,1,1786.699999988079
TZ34OsrE,NA,NA,TZ34OsrE,2020-0188,2021-11-02,16:07:31,17:35:52,NA,incomplete,false,NA,true,1,6,NA,NA,right,NA,NA,m_s_004.jpg,m_s_017.jpg,within,NA,NaN,NA,right,1719.300000011921,1,0,3352.399999976158
TZ34OsrE,NA,NA,TZ34OsrE,2020-0188,2021-11-02,16:07:31,17:35:52,NA,incomplete,false,NA,true,1,7,NA,NA,left,NA,NA,n_l_002.jpg,i_c_024.jpg,between-big,NA,NaN,NA,left,1961,1,0,4165.900000035763
TZ34OsrE,NA,NA,TZ34OsrE,2020-0188,2021-11-02,16:07:31,17:35:52,NA,incomplete,false,NA,true,1,8,NA,NA,left,NA,NA,a_2_021.jpg,c_2_002.jpg,between-small,NA,NaN,NA,left,4564.699999988079,1,2,2849.399999976158
TZ34OsrE,NA,NA,TZ34OsrE,2020-0188,2021-11-02,16:07:31,17:35:52,NA,incomplete,false,NA,true,1,9,NA,NA,right,NA,NA,o_c_021.jpg,o_c_001.jpg,between-small,NA,NaN,NA,left,3578.800000011921,0,0,1403
TZ34OsrE,NA,NA,TZ34OsrE,2020-0188,2021-11-02,16:07:31,17:35:52,NA,incomplete,false,NA,true,1,10,NA,NA,left,NA,NA,i_c_028.jpg,o_s_023.jpg,between-small,NA,NaN,NA,right,3301.099999964237,0,0,1308.699999988079
TZ34OsrE,NA,NA,TZ34OsrE,2020-0188,2021-11-02,16:07:31,17:35:52,NA,incomplete,false,NA,true,1,11,NA,NA,left,NA,NA,m_s_004.jpg,m_s_027.jpg,between-small,NA,NaN,NA,right,2094.599999964237,0,0,2891.199999988079
TZ34OsrE,NA,NA,TZ34OsrE,2020-0188,2021-11-02,16:07:31,17:35:52,NA,incomplete,false,NA,true,1,12,NA,NA,right,NA,NA,n_l_002.jpg,n_l_013.jpg,within,NA,NaN,NA,right,1082.199999988079,1,1,1168.8999999761581
TZ34OsrE,NA,NA,TZ34OsrE,2020-0188,2021-11-02,16:07:31,17:35:52,NA,incomplete,false,NA,true,1,13,NA,NA,left,NA,NA,n_s_014.jpg,n_l_013.jpg,between-small,NA,NaN,NA,left,1493.7000000476837,1,1,6236.699999988079
TZ34OsrE,NA,NA,TZ34OsrE,2020-0188,2021-11-02,16:07:31,17:35:52,NA,incomplete,false,NA,true,1,14,NA,NA,left,NA,NA,c_2_001.jpg,m_l_005.jpg,between-big,NA,NaN,NA,left,1534.1000000238419,1,1,1168.5
TZ34OsrE,NA,NA,TZ34OsrE,2020-0188,2021-11-02,16:07:31,17:35:52,NA,incomplete,false,NA,true,1,15,NA,NA,right,NA,NA,c_2_001.jpg,c_2_002.jpg,within,NA,NaN,NA,right,2276.7000000476837,1,2,3174.699999988079
TZ34OsrE,NA,NA,TZ34OsrE,2020-0188,2021-11-02,16:07:31,17:35:52,NA,incomplete,false,NA,true,1,16,NA,NA,left,NA,NA,a_1_020.jpg,a_2_016.jpg,within,NA,NaN,NA,left,10164.300000011921,1,2,2214.2999999523163
TZ34OsrE,NA,NA,TZ34OsrE,2020-0188,2021-11-02,16:07:31,17:35:52,NA,incomplete,false,NA,true,1,17,NA,NA,right,NA,NA,i_c_023.jpg,o_c_021.jpg,within,NA,NaN,NA,left,2477.7999999523163,0,0,1196.5
TZ34OsrE,NA,NA,TZ34OsrE,2020-0188,2021-11-02,16:07:31,17:35:52,NA,incomplete,false,NA,true,1,18,NA,NA,left,NA,NA,n_s_013.jpg,o_c_001.jpg,between-big,NA,NaN,NA,left,4181.100000023842,1,1,6123
TZ34OsrE,NA,NA,TZ34OsrE,2020-0188,2021-11-02,16:07:31,17:35:52,NA,incomplete,false,NA,true,1,19,NA,NA,right,NA,NA,i_c_028.jpg,i_c_024.jpg,within,NA,NaN,NA,right,1356.5999999642372,1,0,1540.199999988079
TZ34OsrE,NA,NA,TZ34OsrE,2020-0188,2021-11-02,16:07:31,17:35:52,NA,incomplete,false,NA,true,1,20,NA,NA,right,NA,NA,n_s_014.jpg,a_1_014.jpg,between-big,NA,NaN,NA,right,2631.199999988079,1,2,2319.600000023842
TZ34OsrE,NA,NA,TZ34OsrE,2020-0188,2021-11-02,16:07:31,17:35:52,NA,incomplete,false,NA,true,1,21,NA,NA,left,NA,NA,o_c_014.jpg,i_s_006.jpg,between-small,NA,NaN,NA,left,5601.600000023842,1,0,1459.6000000238419
TZ34OsrE,NA,NA,TZ34OsrE,2020-0188,2021-11-02,16:07:31,17:35:52,NA,incomplete,false,NA,true,1,22,NA,NA,right,NA,NA,c_2_013.jpg,a_1_022.jpg,within,NA,NaN,NA,left,1775.8999999761581,0,2,2282.300000011921
TZ34OsrE,NA,NA,TZ34OsrE,2020-0188,2021-11-02,16:07:31,17:35:52,NA,incomplete,false,NA,true,1,23,NA,NA,left,NA,NA,a_2_003.jpg,m_s_017.jpg,between-big,NA,NaN,NA,left,1687.7000000476837,1,1,1274
TZ34OsrE,NA,NA,TZ34OsrE,2020-0188,2021-11-02,16:07:31,17:35:52,NA,incomplete,false,NA,true,1,24,NA,NA,left,NA,NA,n_l_004.jpg,n_s_003.jpg,between-small,NA,NaN,NA,left,1376.199999988079,1,1,1495.9000000357628
TZ34OsrE,NA,NA,TZ34OsrE,2020-0188,2021-11-02,16:07:31,17:35:52,NA,incomplete,false,NA,true,1,25,NA,NA,left,NA,NA,c_2_009.jpg,a_1_014.jpg,within,NA,NaN,NA,left,1879.8999999761581,1,1,3182.199999988079
TZ34OsrE,NA,NA,TZ34OsrE,2020-0188,2021-11-02,16:07:31,17:35:52,NA,incomplete,false,NA,true,1,26,NA,NA,left,NA,NA,a_2_016.jpg,c_2_009.jpg,between-small,NA,NaN,NA,right,5983.600000023842,0,2,2229.599999964237
TZ34OsrE,NA,NA,TZ34OsrE,2020-0188,2021-11-02,16:07:31,17:35:52,NA,incomplete,false,true,NA,2,0,building,o_c_005.jpg,right,skyscraper,cottage,NA,NA,NA,right,1863.39999997616,true,NA,NA,NA,NA,NA
TZ34OsrE,NA,NA,TZ34OsrE,2020-0188,2021-11-02,16:07:31,17:35:52,NA,incomplete,false,true,NA,2,1,building,i_c_013.jpg,right,skyscraper,cottage,NA,NA,NA,right,1086.19999998808,true,NA,NA,NA,NA,NA
TZ34OsrE,NA,NA,TZ34OsrE,2020-0188,2021-11-02,16:07:31,17:35:52,NA,incomplete,false,true,NA,2,2,building,o_s_009.jpg,right,cottage,skyscraper,NA,NA,NA,right,1319.20000004768,true,NA,NA,NA,NA,NA
TZ34OsrE,NA,NA,TZ34OsrE,2020-0188,2021-11-02,16:07:31,17:35:52,NA,incomplete,false,true,NA,2,3,building,i_s_023.jpg,left,skyscraper,cottage,NA,NA,NA,left,1459.59999996424,true,NA,NA,NA,NA,NA
TZ34OsrE,NA,NA,TZ34OsrE,2020-0188,2021-11-02,16:07:31,17:35:52,NA,incomplete,false,true,NA,2,4,building,i_c_021.jpg,left,cottage,skyscraper,NA,NA,NA,left,1886.30000001192,true,NA,NA,NA,NA,NA
TZ34OsrE,NA,NA,TZ34OsrE,2020-0188,2021-11-02,16:07:31,17:35:52,NA,incomplete,false,true,NA,2,5,location,i_s_003.jpg,right,outdoor,indoor,NA,NA,NA,right,1884.10000002384,true,NA,NA,NA,NA,NA
TZ34OsrE,NA,NA,TZ34OsrE,2020-0188,2021-11-02,16:07:31,17:35:52,NA,incomplete,false,true,NA,2,6,location,o_c_025.jpg,left,outdoor,indoor,NA,NA,NA,left,2026.30000001192,true,NA,NA,NA,NA,NA
TZ34OsrE,NA,NA,TZ34OsrE,2020-0188,2021-11-02,16:07:31,17:35:52,NA,incomplete,false,true,NA,2,7,location,o_c_003.jpg,right,indoor,outdoor,NA,NA,NA,right,2468.69999998808,true,NA,NA,NA,NA,NA
TZ34OsrE,NA,NA,TZ34OsrE,2020-0188,2021-11-02,16:07:31,17:35:52,NA,incomplete,false,true,NA,2,8,location,o_s_012.jpg,right,indoor,outdoor,NA,NA,NA,right,1728.19999998808,true,NA,NA,NA,NA,NA
TZ34OsrE,NA,NA,TZ34OsrE,2020-0188,2021-11-02,16:07:31,17:35:52,NA,incomplete,false,true,NA,2,9,location,i_s_014.jpg,left,indoor,outdoor,NA,NA,NA,left,2256,true,NA,NA,NA,NA,NA
TZ34OsrE,NA,NA,TZ34OsrE,2020-0188,2021-11-02,16:07:31,17:35:52,NA,incomplete,false,true,NA,2,10,size,m_l_028.jpg,left,large,small,NA,NA,NA,left,1564.39999997616,true,NA,NA,NA,NA,NA
TZ34OsrE,NA,NA,TZ34OsrE,2020-0188,2021-11-02,16:07:31,17:35:52,NA,incomplete,false,true,NA,2,11,size,m_l_014.jpg,left,large,small,NA,NA,NA,left,1195,true,NA,NA,NA,NA,NA
TZ34OsrE,NA,NA,TZ34OsrE,2020-0188,2021-11-02,16:07:31,17:35:52,NA,incomplete,false,true,NA,2,12,size,m_s_021.jpg,right,large,small,NA,NA,NA,right,1548.80000001192,true,NA,NA,NA,NA,NA
TZ34OsrE,NA,NA,TZ34OsrE,2020-0188,2021-11-02,16:07:31,17:35:52,NA,incomplete,false,true,NA,2,13,size,m_l_026.jpg,right,small,large,NA,NA,NA,right,971,true,NA,NA,NA,NA,NA
TZ34OsrE,NA,NA,TZ34OsrE,2020-0188,2021-11-02,16:07:31,17:35:52,NA,incomplete,false,true,NA,2,14,size,m_s_019.jpg,left,small,large,NA,NA,NA,left,1409.90000003576,true,NA,NA,NA,NA,NA
TZ34OsrE,NA,NA,TZ34OsrE,2020-0188,2021-11-02,16:07:31,17:35:52,NA,incomplete,false,true,NA,2,15,origin,n_l_020.jpg,right,manmade,natural,NA,NA,NA,right,1574.80000001192,true,NA,NA,NA,NA,NA
TZ34OsrE,NA,NA,TZ34OsrE,2020-0188,2021-11-02,16:07:31,17:35:52,NA,incomplete,false,true,NA,2,16,origin,n_l_015.jpg,left,natural,manmade,NA,NA,NA,left,1308.30000001192,true,NA,NA,NA,NA,NA
TZ34OsrE,NA,NA,TZ34OsrE,2020-0188,2021-11-02,16:07:31,17:35:52,NA,incomplete,false,true,NA,2,17,origin,n_s_026.jpg,left,natural,manmade,NA,NA,NA,left,1351.39999997616,true,NA,NA,NA,NA,NA
TZ34OsrE,NA,NA,TZ34OsrE,2020-0188,2021-11-02,16:07:31,17:35:52,NA,incomplete,false,true,NA,2,18,origin,n_s_025.jpg,right,manmade,natural,NA,NA,NA,right,1612.30000001192,true,NA,NA,NA,NA,NA
TZ34OsrE,NA,NA,TZ34OsrE,2020-0188,2021-11-02,16:07:31,17:35:52,NA,incomplete,false,true,NA,2,19,origin,n_s_020.jpg,right,manmade,natural,NA,NA,NA,right,2788.29999995232,true,NA,NA,NA,NA,NA
TZ34OsrE,NA,NA,TZ34OsrE,2020-0188,2021-11-02,16:07:31,17:35:52,NA,incomplete,false,true,NA,2,20,syllable,c_1_011.jpg,right,2 syllables,1 syllable,NA,NA,NA,right,1452.19999998808,true,NA,NA,NA,NA,NA
TZ34OsrE,NA,NA,TZ34OsrE,2020-0188,2021-11-02,16:07:31,17:35:52,NA,incomplete,false,true,NA,2,21,syllable,c_1_006.jpg,right,2 syllables,1 syllable,NA,NA,NA,right,998,true,NA,NA,NA,NA,NA
TZ34OsrE,NA,NA,TZ34OsrE,2020-0188,2021-11-02,16:07:31,17:35:52,NA,incomplete,false,true,NA,2,22,syllable,a_2_018.jpg,right,1 syllable,2 syllables,NA,NA,NA,right,1492.69999998808,true,NA,NA,NA,NA,NA
TZ34OsrE,NA,NA,TZ34OsrE,2020-0188,2021-11-02,16:07:31,17:35:52,NA,incomplete,false,true,NA,2,23,syllable,c_2_026.jpg,right,2 syllables,1 syllable,NA,NA,NA,left,922.5,false,NA,NA,NA,NA,NA
TZ34OsrE,NA,NA,TZ34OsrE,2020-0188,2021-11-02,16:07:31,17:35:52,NA,incomplete,false,true,NA,2,24,syllable,a_2_022.jpg,right,1 syllable,2 syllables,NA,NA,NA,right,1025.19999998808,true,NA,NA,NA,NA,NA
TZ34OsrE,NA,NA,TZ34OsrE,2020-0188,2021-11-02,16:07:31,17:35:52,NA,incomplete,false,true,NA,2,25,abstractness,c_1_007.jpg,left,concrete,abstract,NA,NA,NA,left,2263.19999998808,true,NA,NA,NA,NA,NA
TZ34OsrE,NA,NA,TZ34OsrE,2020-0188,2021-11-02,16:07:31,17:35:52,NA,incomplete,false,true,NA,2,26,abstractness,c_1_025.jpg,left,concrete,abstract,NA,NA,NA,left,1847.30000001192,true,NA,NA,NA,NA,NA
TZ34OsrE,NA,NA,TZ34OsrE,2020-0188,2021-11-02,16:07:31,17:35:52,NA,incomplete,false,true,NA,2,27,abstractness,a_1_009.jpg,left,abstract,concrete,NA,NA,NA,left,2431.30000001192,true,NA,NA,NA,NA,NA
TZ34OsrE,NA,NA,TZ34OsrE,2020-0188,2021-11-02,16:07:31,17:35:52,NA,incomplete,false,true,NA,2,28,abstractness,c_2_024.jpg,left,concrete,abstract,NA,NA,NA,left,1530.19999998808,true,NA,NA,NA,NA,NA
TZ34OsrE,NA,NA,TZ34OsrE,2020-0188,2021-11-02,16:07:31,17:35:52,NA,incomplete,false,true,NA,2,29,abstractness,a_1_012.jpg,right,concrete,abstract,NA,NA,NA,right,2060.79999995232,true,NA,NA,NA,NA,NA
TZ34OsrE,NA,NA,TZ34OsrE,2020-0188,2021-11-02,16:07:31,17:35:52,NA,incomplete,false,NA,true,2,0,NA,NA,right,NA,NA,i_s_014.jpg,o_c_025.jpg,within,NA,NaN,NA,right,2391.600000023842,1,0,1217.8999999761581
TZ34OsrE,NA,NA,TZ34OsrE,2020-0188,2021-11-02,16:07:31,17:35:52,NA,incomplete,false,NA,true,2,1,NA,NA,left,NA,NA,c_1_011.jpg,c_2_026.jpg,within,NA,NaN,NA,left,2438.699999988079,1,2,1419.9000000357628
TZ34OsrE,NA,NA,TZ34OsrE,2020-0188,2021-11-02,16:07:31,17:35:52,NA,incomplete,false,NA,true,2,2,NA,NA,left,NA,NA,c_1_007.jpg,c_2_024.jpg,within,NA,NaN,NA,right,8570.5,0,2,1414.8999999761581
TZ34OsrE,NA,NA,TZ34OsrE,2020-0188,2021-11-02,16:07:31,17:35:52,NA,incomplete,false,NA,true,2,3,NA,NA,left,NA,NA,c_1_006.jpg,a_2_022.jpg,within,NA,NaN,NA,left,1602.7999999523163,1,2,1354.6000000238419
TZ34OsrE,NA,NA,TZ34OsrE,2020-0188,2021-11-02,16:07:31,17:35:52,NA,incomplete,false,NA,true,2,4,NA,NA,right,NA,NA,n_l_015.jpg,m_l_026.jpg,between-small,NA,NaN,NA,left,4513.100000023842,0,1,2865.100000023842
TZ34OsrE,NA,NA,TZ34OsrE,2020-0188,2021-11-02,16:07:31,17:35:52,NA,incomplete,false,NA,true,2,5,NA,NA,right,NA,NA,c_1_007.jpg,a_2_018.jpg,between-small,NA,NaN,NA,right,2146.5,1,2,1252.6000000238419
TZ34OsrE,NA,NA,TZ34OsrE,2020-0188,2021-11-02,16:07:31,17:35:52,NA,incomplete,false,NA,true,2,6,NA,NA,left,NA,NA,m_l_028.jpg,m_l_026.jpg,within,NA,NaN,NA,left,2017.9000000357628,1,1,1375.199999988079
TZ34OsrE,NA,NA,TZ34OsrE,2020-0188,2021-11-02,16:07:31,17:35:52,NA,incomplete,false,NA,true,2,7,NA,NA,right,NA,NA,c_1_006.jpg,n_s_025.jpg,between-big,NA,NaN,NA,right,7533,1,1,2041.199999988079
TZ34OsrE,NA,NA,TZ34OsrE,2020-0188,2021-11-02,16:07:31,17:35:52,NA,incomplete,false,NA,true,2,8,NA,NA,right,NA,NA,n_s_025.jpg,n_l_020.jpg,within,NA,NaN,NA,left,2475,0,1,1532.3999999761581
TZ34OsrE,NA,NA,TZ34OsrE,2020-0188,2021-11-02,16:07:31,17:35:52,NA,incomplete,false,NA,true,2,9,NA,NA,left,NA,NA,i_c_013.jpg,i_c_021.jpg,within,NA,NaN,NA,left,2605,1,0,1209.3999999761581
TZ34OsrE,NA,NA,TZ34OsrE,2020-0188,2021-11-02,16:07:31,17:35:52,NA,incomplete,false,NA,true,2,10,NA,NA,right,NA,NA,a_1_012.jpg,c_1_025.jpg,within,NA,NaN,NA,left,5241.099999964237,0,3,2121.300000011921
TZ34OsrE,NA,NA,TZ34OsrE,2020-0188,2021-11-02,16:07:31,17:35:52,NA,incomplete,false,NA,true,2,11,NA,NA,left,NA,NA,o_s_012.jpg,m_l_014.jpg,between-big,NA,NaN,NA,left,2364.599999964237,1,1,2677.599999964237
TZ34OsrE,NA,NA,TZ34OsrE,2020-0188,2021-11-02,16:07:31,17:35:52,NA,incomplete,false,NA,true,2,12,NA,NA,right,NA,NA,a_1_009.jpg,a_2_022.jpg,between-small,NA,NaN,NA,left,6380.5,0,1,1818.699999988079
TZ34OsrE,NA,NA,TZ34OsrE,2020-0188,2021-11-02,16:07:31,17:35:52,NA,incomplete,false,NA,true,2,13,NA,NA,left,NA,NA,o_c_003.jpg,m_l_028.jpg,between-big,NA,NaN,NA,left,1465.800000011921,1,1,1548.1000000238419
TZ34OsrE,NA,NA,TZ34OsrE,2020-0188,2021-11-02,16:07:31,17:35:52,NA,incomplete,false,NA,true,2,14,NA,NA,left,NA,NA,m_s_019.jpg,n_s_026.jpg,between-small,NA,NaN,NA,right,4847.200000047684,0,1,1520
TZ34OsrE,NA,NA,TZ34OsrE,2020-0188,2021-11-02,16:07:31,17:35:52,NA,incomplete,false,NA,true,2,15,NA,NA,right,NA,NA,n_l_020.jpg,m_s_021.jpg,between-small,NA,NaN,NA,right,3061.600000023842,1,1,2576.400000035763
TZ34OsrE,NA,NA,TZ34OsrE,2020-0188,2021-11-02,16:07:31,17:35:52,NA,incomplete,false,NA,true,2,16,NA,NA,right,NA,NA,i_s_023.jpg,o_c_005.jpg,within,NA,NaN,NA,right,3230,1,0,1468.199999988079
TZ34OsrE,NA,NA,TZ34OsrE,2020-0188,2021-11-02,16:07:31,17:35:52,NA,incomplete,false,NA,true,2,17,NA,NA,left,NA,NA,i_c_021.jpg,o_c_003.jpg,between-small,NA,NaN,NA,right,2780.199999988079,0,0,1568.4000000357628
TZ34OsrE,NA,NA,TZ34OsrE,2020-0188,2021-11-02,16:07:31,17:35:52,NA,incomplete,false,NA,true,2,18,NA,NA,left,NA,NA,i_s_014.jpg,m_s_021.jpg,between-big,NA,NaN,NA,left,4327.599999964237,1,1,1468.5
TZ34OsrE,NA,NA,TZ34OsrE,2020-0188,2021-11-02,16:07:31,17:35:52,NA,incomplete,false,NA,true,2,19,NA,NA,right,NA,NA,o_s_012.jpg,i_s_003.jpg,within,NA,NaN,NA,right,2078.899999976158,1,0,1403.5
TZ34OsrE,NA,NA,TZ34OsrE,2020-0188,2021-11-02,16:07:31,17:35:52,NA,incomplete,false,NA,true,2,20,NA,NA,right,NA,NA,n_s_020.jpg,n_l_015.jpg,within,NA,NaN,NA,right,3414.5,1,1,1202.8999999761581
TZ34OsrE,NA,NA,TZ34OsrE,2020-0188,2021-11-02,16:07:31,17:35:52,NA,incomplete,false,NA,true,2,21,NA,NA,left,NA,NA,n_s_020.jpg,a_2_018.jpg,between-big,NA,NaN,NA,left,2759.699999988079,1,2,1748.8999999761581
TZ34OsrE,NA,NA,TZ34OsrE,2020-0188,2021-11-02,16:07:31,17:35:52,NA,incomplete,false,NA,true,2,22,NA,NA,right,NA,NA,c_1_011.jpg,n_s_026.jpg,between-big,NA,NaN,NA,right,6776.899999976158,1,1,1499.199999988079
TZ34OsrE,NA,NA,TZ34OsrE,2020-0188,2021-11-02,16:07:31,17:35:52,NA,incomplete,false,NA,true,2,23,NA,NA,right,NA,NA,o_c_025.jpg,i_s_023.jpg,between-small,NA,NaN,NA,right,8756.899999976158,1,0,1798.1000000238419
TZ34OsrE,NA,NA,TZ34OsrE,2020-0188,2021-11-02,16:07:31,17:35:52,NA,incomplete,false,NA,true,2,24,NA,NA,left,NA,NA,m_l_014.jpg,m_s_019.jpg,within,NA,NaN,NA,left,1659.800000011921,1,1,3592
TZ34OsrE,NA,NA,TZ34OsrE,2020-0188,2021-11-02,16:07:31,17:35:52,NA,incomplete,false,NA,true,2,25,NA,NA,left,NA,NA,c_2_026.jpg,c_1_025.jpg,between-small,NA,NaN,NA,left,5714.300000011921,1,2,1248.5999999642372
TZ34OsrE,NA,NA,TZ34OsrE,2020-0188,2021-11-02,16:07:31,17:35:52,NA,incomplete,false,NA,true,2,26,NA,NA,right,NA,NA,i_s_003.jpg,o_s_009.jpg,between-small,NA,NaN,NA,right,2065.399999976158,1,0,1766.4000000357628
TZ34OsrE,NA,NA,TZ34OsrE,2020-0188,2021-11-02,16:07:31,17:35:52,NA,incomplete,false,true,NA,3,0,size,m_l_002.jpg,left,large,small,NA,NA,NA,left,1238.69999998808,true,NA,NA,NA,NA,NA
TZ34OsrE,NA,NA,TZ34OsrE,2020-0188,2021-11-02,16:07:31,17:35:52,NA,incomplete,false,true,NA,3,1,size,n_l_021.jpg,left,large,small,NA,NA,NA,left,1959.90000003576,true,NA,NA,NA,NA,NA
TZ34OsrE,NA,NA,TZ34OsrE,2020-0188,2021-11-02,16:07:31,17:35:52,NA,incomplete,false,true,NA,3,2,size,m_l_016.jpg,right,small,large,NA,NA,NA,right,1130.39999997616,true,NA,NA,NA,NA,NA
TZ34OsrE,NA,NA,TZ34OsrE,2020-0188,2021-11-02,16:07:31,17:35:52,NA,incomplete,false,true,NA,3,3,size,n_s_023.jpg,left,small,large,NA,NA,NA,left,1486,true,NA,NA,NA,NA,NA
TZ34OsrE,NA,NA,TZ34OsrE,2020-0188,2021-11-02,16:07:31,17:35:52,NA,incomplete,false,true,NA,3,4,size,n_l_022.jpg,left,large,small,NA,NA,NA,left,911.5,true,NA,NA,NA,NA,NA
TZ34OsrE,NA,NA,TZ34OsrE,2020-0188,2021-11-02,16:07:31,17:35:52,NA,incomplete,false,true,NA,3,5,origin,m_l_006.jpg,right,natural,manmade,NA,NA,NA,right,1742.70000004768,true,NA,NA,NA,NA,NA
TZ34OsrE,NA,NA,TZ34OsrE,2020-0188,2021-11-02,16:07:31,17:35:52,NA,incomplete,false,true,NA,3,6,origin,n_l_027.jpg,right,manmade,natural,NA,NA,NA,right,2273.10000002384,true,NA,NA,NA,NA,NA
TZ34OsrE,NA,NA,TZ34OsrE,2020-0188,2021-11-02,16:07:31,17:35:52,NA,incomplete,false,true,NA,3,7,origin,m_s_005.jpg,right,natural,manmade,NA,NA,NA,right,2884.70000004768,true,NA,NA,NA,NA,NA
TZ34OsrE,NA,NA,TZ34OsrE,2020-0188,2021-11-02,16:07:31,17:35:52,NA,incomplete,false,true,NA,3,8,origin,m_s_023.jpg,left,manmade,natural,NA,NA,NA,left,1078.90000003576,true,NA,NA,NA,NA,NA
TZ34OsrE,NA,NA,TZ34OsrE,2020-0188,2021-11-02,16:07:31,17:35:52,NA,incomplete,false,true,NA,3,9,origin,m_s_003.jpg,right,natural,manmade,NA,NA,NA,right,1724.19999998808,true,NA,NA,NA,NA,NA
TZ34OsrE,NA,NA,TZ34OsrE,2020-0188,2021-11-02,16:07:31,17:35:52,NA,incomplete,false,true,NA,3,10,abstractness,c_1_026.jpg,right,abstract,concrete,NA,NA,NA,right,1827.69999998808,true,NA,NA,NA,NA,NA
TZ34OsrE,NA,NA,TZ34OsrE,2020-0188,2021-11-02,16:07:31,17:35:52,NA,incomplete,false,true,NA,3,11,abstractness,c_1_015.jpg,right,abstract,concrete,NA,NA,NA,right,1484.80000001192,true,NA,NA,NA,NA,NA
TZ34OsrE,NA,NA,TZ34OsrE,2020-0188,2021-11-02,16:07:31,17:35:52,NA,incomplete,false,true,NA,3,12,abstractness,a_2_020.jpg,right,concrete,abstract,NA,NA,NA,right,1653.39999997616,true,NA,NA,NA,NA,NA
TZ34OsrE,NA,NA,TZ34OsrE,2020-0188,2021-11-02,16:07:31,17:35:52,NA,incomplete,false,true,NA,3,13,abstractness,a_2_006.jpg,left,abstract,concrete,NA,NA,NA,left,2277.79999995232,true,NA,NA,NA,NA,NA
TZ34OsrE,NA,NA,TZ34OsrE,2020-0188,2021-11-02,16:07:31,17:35:52,NA,incomplete,false,true,NA,3,14,abstractness,a_1_007.jpg,left,abstract,concrete,NA,NA,NA,left,2085.60000002384,true,NA,NA,NA,NA,NA
TZ34OsrE,NA,NA,TZ34OsrE,2020-0188,2021-11-02,16:07:31,17:35:52,NA,incomplete,false,true,NA,3,15,syllable,c_1_008.jpg,right,1 syllable,2 syllables,NA,NA,NA,left,1915.10000002384,false,NA,NA,NA,NA,NA
TZ34OsrE,NA,NA,TZ34OsrE,2020-0188,2021-11-02,16:07:31,17:35:52,NA,incomplete,false,true,NA,3,16,syllable,c_2_010.jpg,right,1 syllable,2 syllables,NA,NA,NA,right,1320.69999998808,true,NA,NA,NA,NA,NA
TZ34OsrE,NA,NA,TZ34OsrE,2020-0188,2021-11-02,16:07:31,17:35:52,NA,incomplete,false,true,NA,3,17,syllable,c_1_022.jpg,right,2 syllables,1 syllable,NA,NA,NA,right,2747.80000001192,true,NA,NA,NA,NA,NA
TZ34OsrE,NA,NA,TZ34OsrE,2020-0188,2021-11-02,16:07:31,17:35:52,NA,incomplete,false,true,NA,3,18,syllable,c_2_019.jpg,right,2 syllables,1 syllable,NA,NA,NA,left,1543.59999996424,false,NA,NA,NA,NA,NA
TZ34OsrE,NA,NA,TZ34OsrE,2020-0188,2021-11-02,16:07:31,17:35:52,NA,incomplete,false,true,NA,3,19,syllable,a_1_024.jpg,right,1 syllable,2 syllables,NA,NA,NA,left,1856.59999996424,false,NA,NA,NA,NA,NA
TZ34OsrE,NA,NA,TZ34OsrE,2020-0188,2021-11-02,16:07:31,17:35:52,NA,incomplete,false,true,NA,3,20,building,i_s_017.jpg,right,cottage,skyscraper,NA,NA,NA,right,1707.70000004768,true,NA,NA,NA,NA,NA
TZ34OsrE,NA,NA,TZ34OsrE,2020-0188,2021-11-02,16:07:31,17:35:52,NA,incomplete,false,true,NA,3,21,building,o_c_017.jpg,left,cottage,skyscraper,NA,NA,NA,left,1335.5,true,NA,NA,NA,NA,NA
TZ34OsrE,NA,NA,TZ34OsrE,2020-0188,2021-11-02,16:07:31,17:35:52,NA,incomplete,false,true,NA,3,22,building,o_s_019.jpg,right,cottage,skyscraper,NA,NA,NA,right,1572.39999997616,true,NA,NA,NA,NA,NA
TZ34OsrE,NA,NA,TZ34OsrE,2020-0188,2021-11-02,16:07:31,17:35:52,NA,incomplete,false,true,NA,3,23,building,i_s_028.jpg,right,cottage,skyscraper,NA,NA,NA,right,1604.19999998808,true,NA,NA,NA,NA,NA
TZ34OsrE,NA,NA,TZ34OsrE,2020-0188,2021-11-02,16:07:31,17:35:52,NA,incomplete,false,true,NA,3,24,building,o_c_020.jpg,left,cottage,skyscraper,NA,NA,NA,left,1341.89999997616,true,NA,NA,NA,NA,NA
TZ34OsrE,NA,NA,TZ34OsrE,2020-0188,2021-11-02,16:07:31,17:35:52,NA,incomplete,false,true,NA,3,25,location,i_c_025.jpg,right,outdoor,indoor,NA,NA,NA,right,1862.69999998808,true,NA,NA,NA,NA,NA
TZ34OsrE,NA,NA,TZ34OsrE,2020-0188,2021-11-02,16:07:31,17:35:52,NA,incomplete,false,true,NA,3,26,location,o_c_007.jpg,right,indoor,outdoor,NA,NA,NA,right,1737.20000004768,true,NA,NA,NA,NA,NA
TZ34OsrE,NA,NA,TZ34OsrE,2020-0188,2021-11-02,16:07:31,17:35:52,NA,incomplete,false,true,NA,3,27,location,i_c_005.jpg,right,outdoor,indoor,NA,NA,NA,right,1432,true,NA,NA,NA,NA,NA
TZ34OsrE,NA,NA,TZ34OsrE,2020-0188,2021-11-02,16:07:31,17:35:52,NA,incomplete,false,true,NA,3,28,location,i_c_010.jpg,right,outdoor,indoor,NA,NA,NA,right,1711,true,NA,NA,NA,NA,NA
TZ34OsrE,NA,NA,TZ34OsrE,2020-0188,2021-11-02,16:07:31,17:35:52,NA,incomplete,false,true,NA,3,29,location,o_s_015.jpg,right,indoor,outdoor,NA,NA,NA,right,3179.19999998808,true,NA,NA,NA,NA,NA
TZ34OsrE,NA,NA,TZ34OsrE,2020-0188,2021-11-02,16:07:31,17:35:52,NA,incomplete,false,NA,true,3,0,NA,NA,right,NA,NA,a_2_020.jpg,m_s_003.jpg,between-big,NA,NaN,NA,left,7092.400000035763,0,2,1952.8999999761581
TZ34OsrE,NA,NA,TZ34OsrE,2020-0188,2021-11-02,16:07:31,17:35:52,NA,incomplete,false,NA,true,3,1,NA,NA,right,NA,NA,c_1_022.jpg,a_1_007.jpg,between-small,NA,NaN,NA,right,2092.899999976158,1,2,1039.199999988079
TZ34OsrE,NA,NA,TZ34OsrE,2020-0188,2021-11-02,16:07:31,17:35:52,NA,incomplete,false,NA,true,3,2,NA,NA,left,NA,NA,o_c_020.jpg,i_c_005.jpg,between-small,NA,NaN,NA,left,2610.800000011921,1,0,2498.899999976158
TZ34OsrE,NA,NA,TZ34OsrE,2020-0188,2021-11-02,16:07:31,17:35:52,NA,incomplete,false,NA,true,3,3,NA,NA,right,NA,NA,i_s_028.jpg,i_s_017.jpg,within,NA,NaN,NA,right,1664.8999999761581,1,0,1239.5
TZ34OsrE,NA,NA,TZ34OsrE,2020-0188,2021-11-02,16:07:31,17:35:52,NA,incomplete,false,NA,true,3,4,NA,NA,right,NA,NA,o_c_017.jpg,c_2_019.jpg,between-big,NA,NaN,NA,right,2082.300000011921,1,1,1758.5999999642372
TZ34OsrE,NA,NA,TZ34OsrE,2020-0188,2021-11-02,16:07:31,17:35:52,NA,incomplete,false,NA,true,3,5,NA,NA,left,NA,NA,c_1_008.jpg,c_2_019.jpg,within,NA,NaN,NA,left,1654.9000000357628,1,2,1337.9000000357628
TZ34OsrE,NA,NA,TZ34OsrE,2020-0188,2021-11-02,16:07:31,17:35:52,NA,incomplete,false,NA,true,3,6,NA,NA,left,NA,NA,m_l_002.jpg,n_s_023.jpg,within,NA,NaN,NA,left,1519.1000000238419,1,1,1580.6000000238419
TZ34OsrE,NA,NA,TZ34OsrE,2020-0188,2021-11-02,16:07:31,17:35:52,NA,incomplete,false,NA,true,3,7,NA,NA,left,NA,NA,i_c_025.jpg,i_c_010.jpg,within,NA,NaN,NA,right,3239.800000011921,0,0,1225
TZ34OsrE,NA,NA,TZ34OsrE,2020-0188,2021-11-02,16:07:31,17:35:52,NA,incomplete,false,NA,true,3,8,NA,NA,left,NA,NA,n_l_027.jpg,m_s_003.jpg,within,NA,NaN,NA,left,6761.600000023842,1,1,1685.1000000238419
TZ34OsrE,NA,NA,TZ34OsrE,2020-0188,2021-11-02,16:07:31,17:35:52,NA,incomplete,false,NA,true,3,9,NA,NA,right,NA,NA,n_l_027.jpg,n_s_023.jpg,between-small,NA,NaN,NA,right,2776.099999964237,1,1,1459.5999999642372
TZ34OsrE,NA,NA,TZ34OsrE,2020-0188,2021-11-02,16:07:31,17:35:52,NA,incomplete,false,NA,true,3,10,NA,NA,left,NA,NA,c_1_015.jpg,a_1_007.jpg,within,NA,NaN,NA,left,7151.699999988079,1,2,1887
TZ34OsrE,NA,NA,TZ34OsrE,2020-0188,2021-11-02,16:07:31,17:35:52,NA,incomplete,false,NA,true,3,11,NA,NA,left,NA,NA,m_l_016.jpg,m_l_006.jpg,between-small,NA,NaN,NA,left,2192.899999976158,1,1,1632.3999999761581
TZ34OsrE,NA,NA,TZ34OsrE,2020-0188,2021-11-02,16:07:31,17:35:52,NA,incomplete,false,NA,true,3,12,NA,NA,left,NA,NA,i_s_028.jpg,o_c_007.jpg,between-small,NA,NaN,NA,right,2768.600000023842,0,0,1484.199999988079
TZ34OsrE,NA,NA,TZ34OsrE,2020-0188,2021-11-02,16:07:31,17:35:52,NA,incomplete,false,NA,true,3,13,NA,NA,left,NA,NA,c_2_010.jpg,a_1_024.jpg,within,NA,NaN,NA,left,1461.199999988079,1,1,1519.199999988079
TZ34OsrE,NA,NA,TZ34OsrE,2020-0188,2021-11-02,16:07:31,17:35:52,NA,incomplete,false,NA,true,3,14,NA,NA,right,NA,NA,i_s_017.jpg,c_1_022.jpg,between-big,NA,NaN,NA,left,3533.7999999523163,0,1,2318.800000011921
TZ34OsrE,NA,NA,TZ34OsrE,2020-0188,2021-11-02,16:07:31,17:35:52,NA,incomplete,false,NA,true,3,15,NA,NA,right,NA,NA,c_1_026.jpg,m_s_005.jpg,between-big,NA,NaN,NA,right,1798.4000000357628,1,2,1338.3999999761581
TZ34OsrE,NA,NA,TZ34OsrE,2020-0188,2021-11-02,16:07:31,17:35:52,NA,incomplete,false,NA,true,3,16,NA,NA,right,NA,NA,c_2_010.jpg,a_2_006.jpg,between-small,NA,NaN,NA,right,1599,1,1,1421.8999999761581
TZ34OsrE,NA,NA,TZ34OsrE,2020-0188,2021-11-02,16:07:31,17:35:52,NA,incomplete,false,NA,true,3,17,NA,NA,left,NA,NA,n_l_022.jpg,m_s_005.jpg,between-small,NA,NaN,NA,left,1241.4000000357628,1,1,1233.3999999761581
TZ34OsrE,NA,NA,TZ34OsrE,2020-0188,2021-11-02,16:07:31,17:35:52,NA,incomplete,false,NA,true,3,18,NA,NA,left,NA,NA,a_1_024.jpg,o_s_019.jpg,between-big,NA,NaN,NA,right,1412.8999999761581,0,1,1648.300000011921
TZ34OsrE,NA,NA,TZ34OsrE,2020-0188,2021-11-02,16:07:31,17:35:52,NA,incomplete,false,NA,true,3,19,NA,NA,left,NA,NA,m_s_023.jpg,c_1_015.jpg,between-big,NA,NaN,NA,left,2272,1,1,2037.4000000357628
TZ34OsrE,NA,NA,TZ34OsrE,2020-0188,2021-11-02,16:07:31,17:35:52,NA,incomplete,false,NA,true,3,20,NA,NA,left,NA,NA,a_2_020.jpg,c_1_008.jpg,between-small,NA,NaN,NA,left,5638.100000023842,1,3,1652.699999988079
TZ34OsrE,NA,NA,TZ34OsrE,2020-0188,2021-11-02,16:07:31,17:35:52,NA,incomplete,false,NA,true,3,21,NA,NA,left,NA,NA,m_l_006.jpg,m_s_023.jpg,within,NA,NaN,NA,left,1727.5,1,1,1397.5
TZ34OsrE,NA,NA,TZ34OsrE,2020-0188,2021-11-02,16:07:31,17:35:52,NA,incomplete,false,NA,true,3,22,NA,NA,left,NA,NA,o_c_017.jpg,o_c_020.jpg,within,NA,NaN,NA,right,1445,0,0,1491.9000000357628
TZ34OsrE,NA,NA,TZ34OsrE,2020-0188,2021-11-02,16:07:31,17:35:52,NA,incomplete,false,NA,true,3,23,NA,NA,left,NA,NA,o_c_007.jpg,o_s_015.jpg,within,NA,NaN,NA,right,6776.199999988079,0,0,1442.5
TZ34OsrE,NA,NA,TZ34OsrE,2020-0188,2021-11-02,16:07:31,17:35:52,NA,incomplete,false,NA,true,3,24,NA,NA,right,NA,NA,i_c_025.jpg,o_s_019.jpg,between-small,NA,NaN,NA,right,4039.099999964237,1,0,1811.3999999761581
TZ34OsrE,NA,NA,TZ34OsrE,2020-0188,2021-11-02,16:07:31,17:35:52,NA,incomplete,false,NA,true,3,25,NA,NA,left,NA,NA,c_1_026.jpg,a_2_006.jpg,within,NA,NaN,NA,right,1619.5,0,2,3045.199999988079
TZ34OsrE,NA,NA,TZ34OsrE,2020-0188,2021-11-02,16:07:31,17:35:52,NA,incomplete,false,NA,true,3,26,NA,NA,left,NA,NA,n_l_021.jpg,n_l_022.jpg,within,NA,NaN,NA,left,1356.6000000238419,1,2,3089.600000023842
TZ34OsrE,NA,NA,TZ34OsrE,2020-0188,2021-11-02,16:07:31,17:35:52,NA,incomplete,false,true,NA,4,0,origin,m_l_008.jpg,left,manmade,natural,NA,NA,NA,left,1361.89999997616,true,NA,NA,NA,NA,NA
TZ34OsrE,NA,NA,TZ34OsrE,2020-0188,2021-11-02,16:07:31,17:35:52,NA,incomplete,false,true,NA,4,1,origin,n_s_018.jpg,right,manmade,natural,NA,NA,NA,right,1198.69999998808,true,NA,NA,NA,NA,NA
TZ34OsrE,NA,NA,TZ34OsrE,2020-0188,2021-11-02,16:07:31,17:35:52,NA,incomplete,false,true,NA,4,2,origin,m_s_009.jpg,left,manmade,natural,NA,NA,NA,left,1384.70000004768,true,NA,NA,NA,NA,NA
TZ34OsrE,NA,NA,TZ34OsrE,2020-0188,2021-11-02,16:07:31,17:35:52,NA,incomplete,false,true,NA,4,3,origin,m_s_020.jpg,right,natural,manmade,NA,NA,NA,right,1284.20000004768,true,NA,NA,NA,NA,NA
TZ34OsrE,NA,NA,TZ34OsrE,2020-0188,2021-11-02,16:07:31,17:35:52,NA,incomplete,false,true,NA,4,4,origin,n_s_005.jpg,right,manmade,natural,NA,NA,NA,right,1167.59999996424,true,NA,NA,NA,NA,NA
TZ34OsrE,NA,NA,TZ34OsrE,2020-0188,2021-11-02,16:07:31,17:35:52,NA,incomplete,false,true,NA,4,5,size,m_s_008.jpg,left,small,large,NA,NA,NA,left,2071.19999998808,true,NA,NA,NA,NA,NA
TZ34OsrE,NA,NA,TZ34OsrE,2020-0188,2021-11-02,16:07:31,17:35:52,NA,incomplete,false,true,NA,4,6,size,m_l_024.jpg,right,small,large,NA,NA,NA,right,1080.5,true,NA,NA,NA,NA,NA
TZ34OsrE,NA,NA,TZ34OsrE,2020-0188,2021-11-02,16:07:31,17:35:52,NA,incomplete,false,true,NA,4,7,size,m_s_002.jpg,left,small,large,NA,NA,NA,left,1175.5,true,NA,NA,NA,NA,NA
TZ34OsrE,NA,NA,TZ34OsrE,2020-0188,2021-11-02,16:07:31,17:35:52,NA,incomplete,false,true,NA,4,8,size,n_s_007.jpg,left,small,large,NA,NA,NA,right,2441.60000002384,false,NA,NA,NA,NA,NA
TZ34OsrE,NA,NA,TZ34OsrE,2020-0188,2021-11-02,16:07:31,17:35:52,NA,incomplete,false,true,NA,4,9,size,m_s_024.jpg,left,small,large,NA,NA,NA,left,1066.60000002384,true,NA,NA,NA,NA,NA
TZ34OsrE,NA,NA,TZ34OsrE,2020-0188,2021-11-02,16:07:31,17:35:52,NA,incomplete,false,true,NA,4,10,building,o_s_028.jpg,left,skyscraper,cottage,NA,NA,NA,left,1241.40000003576,true,NA,NA,NA,NA,NA
TZ34OsrE,NA,NA,TZ34OsrE,2020-0188,2021-11-02,16:07:31,17:35:52,NA,incomplete,false,true,NA,4,11,building,i_c_004.jpg,right,skyscraper,cottage,NA,NA,NA,right,1379.30000001192,true,NA,NA,NA,NA,NA
TZ34OsrE,NA,NA,TZ34OsrE,2020-0188,2021-11-02,16:07:31,17:35:52,NA,incomplete,false,true,NA,4,12,building,i_s_024.jpg,right,cottage,skyscraper,NA,NA,NA,right,2104.39999997616,true,NA,NA,NA,NA,NA
TZ34OsrE,NA,NA,TZ34OsrE,2020-0188,2021-11-02,16:07:31,17:35:52,NA,incomplete,false,true,NA,4,13,building,o_c_016.jpg,right,skyscraper,cottage,NA,NA,NA,right,1291.80000001192,true,NA,NA,NA,NA,NA
TZ34OsrE,NA,NA,TZ34OsrE,2020-0188,2021-11-02,16:07:31,17:35:52,NA,incomplete,false,true,NA,4,14,building,i_c_011.jpg,left,cottage,skyscraper,NA,NA,NA,left,1825.30000001192,true,NA,NA,NA,NA,NA
TZ34OsrE,NA,NA,TZ34OsrE,2020-0188,2021-11-02,16:07:31,17:35:52,NA,incomplete,false,true,NA,4,15,location,o_s_005.jpg,left,outdoor,indoor,NA,NA,NA,left,2207.79999995232,true,NA,NA,NA,NA,NA
TZ34OsrE,NA,NA,TZ34OsrE,2020-0188,2021-11-02,16:07:31,17:35:52,NA,incomplete,false,true,NA,4,16,location,o_s_011.jpg,left,outdoor,indoor,NA,NA,NA,left,1167.19999998808,true,NA,NA,NA,NA,NA
TZ34OsrE,NA,NA,TZ34OsrE,2020-0188,2021-11-02,16:07:31,17:35:52,NA,incomplete,false,true,NA,4,17,location,o_s_021.jpg,left,outdoor,indoor,NA,NA,NA,left,1505.19999998808,true,NA,NA,NA,NA,NA
TZ34OsrE,NA,NA,TZ34OsrE,2020-0188,2021-11-02,16:07:31,17:35:52,NA,incomplete,false,true,NA,4,18,location,o_s_002.jpg,left,outdoor,indoor,NA,NA,NA,left,1310.59999996424,true,NA,NA,NA,NA,NA
TZ34OsrE,NA,NA,TZ34OsrE,2020-0188,2021-11-02,16:07:31,17:35:52,NA,incomplete,false,true,NA,4,19,location,o_s_010.jpg,right,indoor,outdoor,NA,NA,NA,right,1340.89999997616,true,NA,NA,NA,NA,NA
TZ34OsrE,NA,NA,TZ34OsrE,2020-0188,2021-11-02,16:07:31,17:35:52,NA,incomplete,false,true,NA,4,20,syllable,c_1_028.jpg,right,1 syllable,2 syllables,NA,NA,NA,left,1283.19999998808,false,NA,NA,NA,NA,NA
TZ34OsrE,NA,NA,TZ34OsrE,2020-0188,2021-11-02,16:07:31,17:35:52,NA,incomplete,false,true,NA,4,21,syllable,a_1_016.jpg,right,2 syllables,1 syllable,NA,NA,NA,right,1579.80000001192,true,NA,NA,NA,NA,NA
TZ34OsrE,NA,NA,TZ34OsrE,2020-0188,2021-11-02,16:07:31,17:35:52,NA,incomplete,false,true,NA,4,22,syllable,a_1_025.jpg,right,2 syllables,1 syllable,NA,NA,NA,left,2446,false,NA,NA,NA,NA,NA
TZ34OsrE,NA,NA,TZ34OsrE,2020-0188,2021-11-02,16:07:31,17:35:52,NA,incomplete,false,true,NA,4,23,syllable,c_2_007.jpg,right,1 syllable,2 syllables,NA,NA,NA,right,931.200000047684,true,NA,NA,NA,NA,NA
TZ34OsrE,NA,NA,TZ34OsrE,2020-0188,2021-11-02,16:07:31,17:35:52,NA,incomplete,false,true,NA,4,24,syllable,a_1_021.jpg,right,1 syllable,2 syllables,NA,NA,NA,left,1371,false,NA,NA,NA,NA,NA
TZ34OsrE,NA,NA,TZ34OsrE,2020-0188,2021-11-02,16:07:31,17:35:52,NA,incomplete,false,true,NA,4,25,abstractness,a_2_004.jpg,left,abstract,concrete,NA,NA,NA,right,2860.59999996424,false,NA,NA,NA,NA,NA
TZ34OsrE,NA,NA,TZ34OsrE,2020-0188,2021-11-02,16:07:31,17:35:52,NA,incomplete,false,true,NA,4,26,abstractness,c_1_002.jpg,left,concrete,abstract,NA,NA,NA,right,1558.89999997616,false,NA,NA,NA,NA,NA
TZ34OsrE,NA,NA,TZ34OsrE,2020-0188,2021-11-02,16:07:31,17:35:52,NA,incomplete,false,true,NA,4,27,abstractness,c_1_004.jpg,left,concrete,abstract,NA,NA,NA,left,1096.80000001192,true,NA,NA,NA,NA,NA
TZ34OsrE,NA,NA,TZ34OsrE,2020-0188,2021-11-02,16:07:31,17:35:52,NA,incomplete,false,true,NA,4,28,abstractness,c_1_019.jpg,right,abstract,concrete,NA,NA,NA,right,1190.30000001192,true,NA,NA,NA,NA,NA
TZ34OsrE,NA,NA,TZ34OsrE,2020-0188,2021-11-02,16:07:31,17:35:52,NA,incomplete,false,true,NA,4,29,abstractness,c_2_025.jpg,right,abstract,concrete,NA,NA,NA,right,2075.10000002384,true,NA,NA,NA,NA,NA
TZ34OsrE,NA,NA,TZ34OsrE,2020-0188,2021-11-02,16:07:31,17:35:52,NA,incomplete,false,NA,true,4,0,NA,NA,left,NA,NA,o_c_016.jpg,o_s_011.jpg,between-small,NA,NaN,NA,left,3543.600000023842,1,0,1120.5999999642372
TZ34OsrE,NA,NA,TZ34OsrE,2020-0188,2021-11-02,16:07:31,17:35:52,NA,incomplete,false,NA,true,4,1,NA,NA,right,NA,NA,a_1_021.jpg,a_1_016.jpg,within,NA,NaN,NA,right,1875.5999999642372,1,3,1257.5
TZ34OsrE,NA,NA,TZ34OsrE,2020-0188,2021-11-02,16:07:31,17:35:52,NA,incomplete,false,NA,true,4,2,NA,NA,left,NA,NA,i_c_011.jpg,o_s_021.jpg,between-small,NA,NaN,NA,right,4995,0,0,1403.199999988079
TZ34OsrE,NA,NA,TZ34OsrE,2020-0188,2021-11-02,16:07:31,17:35:52,NA,incomplete,false,NA,true,4,3,NA,NA,left,NA,NA,m_l_008.jpg,m_s_020.jpg,within,NA,NaN,NA,left,1461.1000000238419,1,1,1154.300000011921
TZ34OsrE,NA,NA,TZ34OsrE,2020-0188,2021-11-02,16:07:31,17:35:52,NA,incomplete,false,NA,true,4,4,NA,NA,right,NA,NA,i_s_024.jpg,m_s_024.jpg,between-big,NA,NaN,NA,left,2896.699999988079,0,1,2149.800000011921
TZ34OsrE,NA,NA,TZ34OsrE,2020-0188,2021-11-02,16:07:31,17:35:52,NA,incomplete,false,NA,true,4,5,NA,NA,right,NA,NA,m_l_024.jpg,m_s_020.jpg,between-small,NA,NaN,NA,right,1662.300000011921,1,0,1120.699999988079
TZ34OsrE,NA,NA,TZ34OsrE,2020-0188,2021-11-02,16:07:31,17:35:52,NA,incomplete,false,NA,true,4,6,NA,NA,left,NA,NA,m_s_002.jpg,o_s_028.jpg,between-big,NA,NaN,NA,left,3921.7999999523163,1,0,1155.5
TZ34OsrE,NA,NA,TZ34OsrE,2020-0188,2021-11-02,16:07:31,17:35:52,NA,incomplete,false,NA,true,4,7,NA,NA,right,NA,NA,c_2_025.jpg,c_1_002.jpg,within,NA,NaN,NA,right,6237.199999988079,1,3,1467.6000000238419
TZ34OsrE,NA,NA,TZ34OsrE,2020-0188,2021-11-02,16:07:31,17:35:52,NA,incomplete,false,NA,true,4,8,NA,NA,right,NA,NA,m_s_008.jpg,m_s_009.jpg,between-small,NA,NaN,NA,right,2227.7999999523163,1,3,5340.800000011921
TZ34OsrE,NA,NA,TZ34OsrE,2020-0188,2021-11-02,16:07:31,17:35:52,NA,incomplete,false,NA,true,4,9,NA,NA,left,NA,NA,i_s_024.jpg,o_s_005.jpg,between-small,NA,NaN,NA,left,5646.300000011921,1,0,1325.300000011921
TZ34OsrE,NA,NA,TZ34OsrE,2020-0188,2021-11-02,16:07:31,17:35:52,NA,incomplete,false,NA,true,4,10,NA,NA,left,NA,NA,o_s_021.jpg,c_1_028.jpg,between-big,NA,NaN,NA,left,5197.300000011921,1,1,1314.4000000357628
TZ34OsrE,NA,NA,TZ34OsrE,2020-0188,2021-11-02,16:07:31,17:35:52,NA,incomplete,false,NA,true,4,11,NA,NA,left,NA,NA,c_2_007.jpg,c_1_002.jpg,between-small,NA,NaN,NA,left,2090.800000011921,1,2,2282.899999976158
TZ34OsrE,NA,NA,TZ34OsrE,2020-0188,2021-11-02,16:07:31,17:35:52,NA,incomplete,false,NA,true,4,12,NA,NA,right,NA,NA,n_s_007.jpg,m_s_008.jpg,within,NA,NaN,NA,left,3529.100000023842,0,1,1531.699999988079
TZ34OsrE,NA,NA,TZ34OsrE,2020-0188,2021-11-02,16:07:31,17:35:52,NA,incomplete,false,NA,true,4,13,NA,NA,left,NA,NA,o_s_028.jpg,o_c_016.jpg,within,NA,NaN,NA,left,1879.9000000357628,1,0,1733.8999999761581
TZ34OsrE,NA,NA,TZ34OsrE,2020-0188,2021-11-02,16:07:31,17:35:52,NA,incomplete,false,NA,true,4,14,NA,NA,left,NA,NA,n_s_018.jpg,n_s_005.jpg,within,NA,NaN,NA,left,1477.9000000357628,1,0,2669.599999964237
TZ34OsrE,NA,NA,TZ34OsrE,2020-0188,2021-11-02,16:07:31,17:35:52,NA,incomplete,false,NA,true,4,15,NA,NA,left,NA,NA,o_s_010.jpg,a_1_025.jpg,between-big,NA,NaN,NA,left,1499.7999999523163,1,1,1450.300000011921
TZ34OsrE,NA,NA,TZ34OsrE,2020-0188,2021-11-02,16:07:31,17:35:52,NA,incomplete,false,NA,true,4,16,NA,NA,left,NA,NA,a_1_025.jpg,a_2_004.jpg,between-small,NA,NaN,NA,left,2126.099999964237,1,1,1544.1000000238419
TZ34OsrE,NA,NA,TZ34OsrE,2020-0188,2021-11-02,16:07:31,17:35:52,NA,incomplete,false,NA,true,4,17,NA,NA,right,NA,NA,c_2_007.jpg,c_1_028.jpg,within,NA,NaN,NA,right,1817.199999988079,1,2,1290.699999988079
TZ34OsrE,NA,NA,TZ34OsrE,2020-0188,2021-11-02,16:07:31,17:35:52,NA,incomplete,false,NA,true,4,18,NA,NA,right,NA,NA,m_s_024.jpg,m_l_024.jpg,within,NA,NaN,NA,right,1356.300000011921,1,1,1682.8999999761581
TZ34OsrE,NA,NA,TZ34OsrE,2020-0188,2021-11-02,16:07:31,17:35:52,NA,incomplete,false,NA,true,4,19,NA,NA,right,NA,NA,c_1_004.jpg,a_1_021.jpg,between-small,NA,NaN,NA,right,5374.899999976158,1,3,1371.4000000357628
TZ34OsrE,NA,NA,TZ34OsrE,2020-0188,2021-11-02,16:07:31,17:35:52,NA,incomplete,false,NA,true,4,20,NA,NA,left,NA,NA,n_s_005.jpg,m_s_002.jpg,between-small,NA,NaN,NA,left,1574.199999988079,1,0,3092.699999988079
TZ34OsrE,NA,NA,TZ34OsrE,2020-0188,2021-11-02,16:07:31,17:35:52,NA,incomplete,false,NA,true,4,21,NA,NA,right,NA,NA,a_1_016.jpg,o_s_002.jpg,between-big,NA,NaN,NA,right,1732.5,1,1,1524.5
TZ34OsrE,NA,NA,TZ34OsrE,2020-0188,2021-11-02,16:07:31,17:35:52,NA,incomplete,false,NA,true,4,22,NA,NA,right,NA,NA,i_c_004.jpg,n_s_007.jpg,between-big,NA,NaN,NA,right,6045.099999964237,1,1,1708.5999999642372
TZ34OsrE,NA,NA,TZ34OsrE,2020-0188,2021-11-02,16:07:31,17:35:52,NA,incomplete,false,NA,true,4,23,NA,NA,left,NA,NA,a_2_004.jpg,c_1_019.jpg,within,NA,NaN,NA,right,1759.199999988079,0,1,1386.199999988079
TZ34OsrE,NA,NA,TZ34OsrE,2020-0188,2021-11-02,16:07:31,17:35:52,NA,incomplete,false,NA,true,4,24,NA,NA,right,NA,NA,o_s_010.jpg,o_s_011.jpg,within,NA,NaN,NA,right,1408.9000000357628,1,0,1604.3999999761581
TZ34OsrE,NA,NA,TZ34OsrE,2020-0188,2021-11-02,16:07:31,17:35:52,NA,incomplete,false,NA,true,4,25,NA,NA,left,NA,NA,o_s_005.jpg,o_s_002.jpg,within,NA,NaN,NA,left,1881.300000011921,1,0,1209.699999988079
TZ34OsrE,NA,NA,TZ34OsrE,2020-0188,2021-11-02,16:07:31,17:35:52,NA,incomplete,false,NA,true,4,26,NA,NA,left,NA,NA,i_c_004.jpg,i_c_011.jpg,within,NA,NaN,NA,left,2575.100000023842,1,0,1697.699999988079
TZ34OsrE,NA,NA,TZ34OsrE,2020-0188,2021-11-02,16:07:31,17:35:52,NA,incomplete,false,true,NA,5,0,origin,n_l_023.jpg,right,manmade,natural,NA,NA,NA,right,2673.69999998808,true,NA,NA,NA,NA,NA
TZ34OsrE,NA,NA,TZ34OsrE,2020-0188,2021-11-02,16:07:31,17:35:52,NA,incomplete,false,true,NA,5,1,origin,n_l_006.jpg,right,manmade,natural,NA,NA,NA,right,1788.30000001192,true,NA,NA,NA,NA,NA
TZ34OsrE,NA,NA,TZ34OsrE,2020-0188,2021-11-02,16:07:31,17:35:52,NA,incomplete,false,true,NA,5,2,origin,n_s_010.jpg,left,natural,manmade,NA,NA,NA,left,1048.90000003576,true,NA,NA,NA,NA,NA
TZ34OsrE,NA,NA,TZ34OsrE,2020-0188,2021-11-02,16:07:31,17:35:52,NA,incomplete,false,true,NA,5,3,origin,m_s_015.jpg,left,manmade,natural,NA,NA,NA,left,1443.80000001192,true,NA,NA,NA,NA,NA
TZ34OsrE,NA,NA,TZ34OsrE,2020-0188,2021-11-02,16:07:31,17:35:52,NA,incomplete,false,true,NA,5,4,origin,n_s_017.jpg,left,natural,manmade,NA,NA,NA,left,1584.89999997616,true,NA,NA,NA,NA,NA
TZ34OsrE,NA,NA,TZ34OsrE,2020-0188,2021-11-02,16:07:31,17:35:52,NA,incomplete,false,true,NA,5,5,size,m_s_018.jpg,left,small,large,NA,NA,NA,left,1532.10000002384,true,NA,NA,NA,NA,NA
TZ34OsrE,NA,NA,TZ34OsrE,2020-0188,2021-11-02,16:07:31,17:35:52,NA,incomplete,false,true,NA,5,6,size,n_l_018.jpg,left,large,small,NA,NA,NA,left,1984.79999995232,true,NA,NA,NA,NA,NA
TZ34OsrE,NA,NA,TZ34OsrE,2020-0188,2021-11-02,16:07:31,17:35:52,NA,incomplete,false,true,NA,5,7,size,m_l_012.jpg,left,large,small,NA,NA,NA,left,1824.30000001192,true,NA,NA,NA,NA,NA
TZ34OsrE,NA,NA,TZ34OsrE,2020-0188,2021-11-02,16:07:31,17:35:52,NA,incomplete,false,true,NA,5,8,size,m_s_011.jpg,right,large,small,NA,NA,NA,right,2117.39999997616,true,NA,NA,NA,NA,NA
TZ34OsrE,NA,NA,TZ34OsrE,2020-0188,2021-11-02,16:07:31,17:35:52,NA,incomplete,false,true,NA,5,9,size,n_s_006.jpg,right,large,small,NA,NA,NA,right,1433.90000003576,true,NA,NA,NA,NA,NA
TZ34OsrE,NA,NA,TZ34OsrE,2020-0188,2021-11-02,16:07:31,17:35:52,NA,incomplete,false,true,NA,5,10,building,o_s_026.jpg,left,skyscraper,cottage,NA,NA,NA,left,1241.10000002384,true,NA,NA,NA,NA,NA
TZ34OsrE,NA,NA,TZ34OsrE,2020-0188,2021-11-02,16:07:31,17:35:52,NA,incomplete,false,true,NA,5,11,building,o_c_010.jpg,right,skyscraper,cottage,NA,NA,NA,right,1186.69999998808,true,NA,NA,NA,NA,NA
TZ34OsrE,NA,NA,TZ34OsrE,2020-0188,2021-11-02,16:07:31,17:35:52,NA,incomplete,false,true,NA,5,12,building,i_s_012.jpg,left,skyscraper,cottage,NA,NA,NA,left,1433.80000001192,true,NA,NA,NA,NA,NA
TZ34OsrE,NA,NA,TZ34OsrE,2020-0188,2021-11-02,16:07:31,17:35:52,NA,incomplete,false,true,NA,5,13,building,o_c_028.jpg,left,cottage,skyscraper,NA,NA,NA,left,1474.10000002384,true,NA,NA,NA,NA,NA
TZ34OsrE,NA,NA,TZ34OsrE,2020-0188,2021-11-02,16:07:31,17:35:52,NA,incomplete,false,true,NA,5,14,building,i_s_022.jpg,right,cottage,skyscraper,NA,NA,NA,right,2291,true,NA,NA,NA,NA,NA
TZ34OsrE,NA,NA,TZ34OsrE,2020-0188,2021-11-02,16:07:31,17:35:52,NA,incomplete,false,true,NA,5,15,location,i_s_025.jpg,left,indoor,outdoor,NA,NA,NA,left,2853.90000003576,true,NA,NA,NA,NA,NA
TZ34OsrE,NA,NA,TZ34OsrE,2020-0188,2021-11-02,16:07:31,17:35:52,NA,incomplete,false,true,NA,5,16,location,o_c_013.jpg,right,indoor,outdoor,NA,NA,NA,right,2200.09999996424,true,NA,NA,NA,NA,NA
TZ34OsrE,NA,NA,TZ34OsrE,2020-0188,2021-11-02,16:07:31,17:35:52,NA,incomplete,false,true,NA,5,17,location,i_c_018.jpg,right,outdoor,indoor,NA,NA,NA,right,1559,true,NA,NA,NA,NA,NA
TZ34OsrE,NA,NA,TZ34OsrE,2020-0188,2021-11-02,16:07:31,17:35:52,NA,incomplete,false,true,NA,5,18,location,o_c_027.jpg,left,outdoor,indoor,NA,NA,NA,left,2985.90000003576,true,NA,NA,NA,NA,NA
TZ34OsrE,NA,NA,TZ34OsrE,2020-0188,2021-11-02,16:07:31,17:35:52,NA,incomplete,false,true,NA,5,19,location,o_c_011.jpg,left,outdoor,indoor,NA,NA,NA,left,1818.90000003576,true,NA,NA,NA,NA,NA
TZ34OsrE,NA,NA,TZ34OsrE,2020-0188,2021-11-02,16:07:31,17:35:52,NA,incomplete,false,true,NA,5,20,syllable,a_2_024.jpg,right,2 syllables,1 syllable,NA,NA,NA,left,1735.09999996424,false,NA,NA,NA,NA,NA
TZ34OsrE,NA,NA,TZ34OsrE,2020-0188,2021-11-02,16:07:31,17:35:52,NA,incomplete,false,true,NA,5,21,syllable,a_2_013.jpg,right,2 syllables,1 syllable,NA,NA,NA,left,1963.30000001192,false,NA,NA,NA,NA,NA
TZ34OsrE,NA,NA,TZ34OsrE,2020-0188,2021-11-02,16:07:31,17:35:52,NA,incomplete,false,true,NA,5,22,syllable,a_1_019.jpg,right,1 syllable,2 syllables,NA,NA,NA,left,1385.09999996424,false,NA,NA,NA,NA,NA
TZ34OsrE,NA,NA,TZ34OsrE,2020-0188,2021-11-02,16:07:31,17:35:52,NA,incomplete,false,true,NA,5,23,syllable,c_1_010.jpg,right,2 syllables,1 syllable,NA,NA,NA,right,1292.20000004768,true,NA,NA,NA,NA,NA
TZ34OsrE,NA,NA,TZ34OsrE,2020-0188,2021-11-02,16:07:31,17:35:52,NA,incomplete,false,true,NA,5,24,syllable,c_1_017.jpg,right,1 syllable,2 syllables,NA,NA,NA,left,1197.19999998808,false,NA,NA,NA,NA,NA
TZ34OsrE,NA,NA,TZ34OsrE,2020-0188,2021-11-02,16:07:31,17:35:52,NA,incomplete,false,true,NA,5,25,abstractness,c_1_001.jpg,right,abstract,concrete,NA,NA,NA,right,1915.19999998808,true,NA,NA,NA,NA,NA
TZ34OsrE,NA,NA,TZ34OsrE,2020-0188,2021-11-02,16:07:31,17:35:52,NA,incomplete,false,true,NA,5,26,abstractness,a_1_018.jpg,left,abstract,concrete,NA,NA,NA,left,1892.80000001192,true,NA,NA,NA,NA,NA
TZ34OsrE,NA,NA,TZ34OsrE,2020-0188,2021-11-02,16:07:31,17:35:52,NA,incomplete,false,true,NA,5,27,abstractness,a_1_011.jpg,right,concrete,abstract,NA,NA,NA,right,2339.70000004768,true,NA,NA,NA,NA,NA
TZ34OsrE,NA,NA,TZ34OsrE,2020-0188,2021-11-02,16:07:31,17:35:52,NA,incomplete,false,true,NA,5,28,abstractness,c_1_024.jpg,left,concrete,abstract,NA,NA,NA,left,1822.79999995232,true,NA,NA,NA,NA,NA
TZ34OsrE,NA,NA,TZ34OsrE,2020-0188,2021-11-02,16:07:31,17:35:52,NA,incomplete,false,true,NA,5,29,abstractness,a_1_013.jpg,right,concrete,abstract,NA,NA,NA,right,2335.30000001192,true,NA,NA,NA,NA,NA
TZ34OsrE,NA,NA,TZ34OsrE,2020-0188,2021-11-02,16:07:31,17:35:52,NA,incomplete,false,NA,true,5,0,NA,NA,right,NA,NA,n_l_018.jpg,m_s_015.jpg,between-small,NA,NaN,NA,left,3600.399999976158,0,1,1486.3999999761581
TZ34OsrE,NA,NA,TZ34OsrE,2020-0188,2021-11-02,16:07:31,17:35:52,NA,incomplete,false,NA,true,5,1,NA,NA,left,NA,NA,a_2_024.jpg,c_1_010.jpg,within,NA,NaN,NA,left,2115.300000011921,1,2,2048.100000023842
TZ34OsrE,NA,NA,TZ34OsrE,2020-0188,2021-11-02,16:07:31,17:35:52,NA,incomplete,false,NA,true,5,2,NA,NA,right,NA,NA,n_s_006.jpg,n_l_018.jpg,within,NA,NaN,NA,right,5052.299999952316,1,1,1216.800000011921
TZ34OsrE,NA,NA,TZ34OsrE,2020-0188,2021-11-02,16:07:31,17:35:52,NA,incomplete,false,NA,true,5,3,NA,NA,right,NA,NA,m_s_018.jpg,n_s_010.jpg,between-small,NA,NaN,NA,right,2418.5,1,1,1157.300000011921
TZ34OsrE,NA,NA,TZ34OsrE,2020-0188,2021-11-02,16:07:31,17:35:52,NA,incomplete,false,NA,true,5,4,NA,NA,left,NA,NA,c_1_001.jpg,c_1_024.jpg,within,NA,NaN,NA,left,6134.800000011921,1,2,1281.800000011921
TZ34OsrE,NA,NA,TZ34OsrE,2020-0188,2021-11-02,16:07:31,17:35:52,NA,incomplete,false,NA,true,5,5,NA,NA,right,NA,NA,o_c_013.jpg,o_c_028.jpg,between-small,NA,NaN,NA,left,1800.0999999642372,0,0,1475.0999999642372
TZ34OsrE,NA,NA,TZ34OsrE,2020-0188,2021-11-02,16:07:31,17:35:52,NA,incomplete,false,NA,true,5,6,NA,NA,right,NA,NA,m_s_011.jpg,m_s_018.jpg,within,NA,NaN,NA,right,2750.300000011921,1,1,1915.300000011921
TZ34OsrE,NA,NA,TZ34OsrE,2020-0188,2021-11-02,16:07:31,17:35:52,NA,incomplete,false,NA,true,5,7,NA,NA,right,NA,NA,i_s_022.jpg,o_c_010.jpg,within,NA,NaN,NA,right,4053.5,1,0,1261.9000000357628
TZ34OsrE,NA,NA,TZ34OsrE,2020-0188,2021-11-02,16:07:31,17:35:52,NA,incomplete,false,NA,true,5,8,NA,NA,left,NA,NA,a_1_019.jpg,c_1_001.jpg,between-small,NA,NaN,NA,left,2276.100000023842,1,3,1357.9000000357628
TZ34OsrE,NA,NA,TZ34OsrE,2020-0188,2021-11-02,16:07:31,17:35:52,NA,incomplete,false,NA,true,5,9,NA,NA,left,NA,NA,i_c_018.jpg,a_2_024.jpg,between-big,NA,NaN,NA,left,3036.399999976158,1,1,1337.5
TZ34OsrE,NA,NA,TZ34OsrE,2020-0188,2021-11-02,16:07:31,17:35:52,NA,incomplete,false,NA,true,5,10,NA,NA,right,NA,NA,m_s_015.jpg,n_l_023.jpg,within,NA,NaN,NA,right,1586.5999999642372,1,1,1793.7000000476837
TZ34OsrE,NA,NA,TZ34OsrE,2020-0188,2021-11-02,16:07:31,17:35:52,NA,incomplete,false,NA,true,5,11,NA,NA,right,NA,NA,o_c_028.jpg,o_s_026.jpg,within,NA,NaN,NA,right,1626.3999999761581,1,0,1459.1000000238419
TZ34OsrE,NA,NA,TZ34OsrE,2020-0188,2021-11-02,16:07:31,17:35:52,NA,incomplete,false,NA,true,5,12,NA,NA,right,NA,NA,m_l_012.jpg,n_s_017.jpg,between-small,NA,NaN,NA,left,2722.400000035763,0,1,1369.5
TZ34OsrE,NA,NA,TZ34OsrE,2020-0188,2021-11-02,16:07:31,17:35:52,NA,incomplete,false,NA,true,5,13,NA,NA,left,NA,NA,c_1_010.jpg,a_1_018.jpg,between-small,NA,NaN,NA,right,2993.2000000476837,0,2,1540.300000011921
TZ34OsrE,NA,NA,TZ34OsrE,2020-0188,2021-11-02,16:07:31,17:35:52,NA,incomplete,false,NA,true,5,14,NA,NA,right,NA,NA,c_1_017.jpg,a_2_013.jpg,within,NA,NaN,NA,right,1774.5999999642372,1,2,4288
TZ34OsrE,NA,NA,TZ34OsrE,2020-0188,2021-11-02,16:07:31,17:35:52,NA,incomplete,false,NA,true,5,15,NA,NA,right,NA,NA,o_s_026.jpg,m_l_012.jpg,between-big,NA,NaN,NA,right,1509.1000000238419,1,1,1637.300000011921
TZ34OsrE,NA,NA,TZ34OsrE,2020-0188,2021-11-02,16:07:31,17:35:52,NA,incomplete,false,NA,true,5,16,NA,NA,right,NA,NA,o_c_027.jpg,i_s_025.jpg,within,NA,NaN,NA,left,3756.800000011921,0,0,1596.3999999761581
TZ34OsrE,NA,NA,TZ34OsrE,2020-0188,2021-11-02,16:07:31,17:35:52,NA,incomplete,false,NA,true,5,17,NA,NA,right,NA,NA,i_c_018.jpg,i_s_022.jpg,between-small,NA,NaN,NA,left,2179.900000035763,0,0,3347.300000011921
TZ34OsrE,NA,NA,TZ34OsrE,2020-0188,2021-11-02,16:07:31,17:35:52,NA,incomplete,false,NA,true,5,18,NA,NA,right,NA,NA,i_s_025.jpg,i_s_012.jpg,between-small,NA,NaN,NA,left,2204,0,0,1104.800000011921
TZ34OsrE,NA,NA,TZ34OsrE,2020-0188,2021-11-02,16:07:31,17:35:52,NA,incomplete,false,NA,true,5,19,NA,NA,right,NA,NA,a_1_019.jpg,o_c_011.jpg,between-big,NA,NaN,NA,right,2292.5,1,1,1830.7999999523163
TZ34OsrE,NA,NA,TZ34OsrE,2020-0188,2021-11-02,16:07:31,17:35:52,NA,incomplete,false,NA,true,5,20,NA,NA,left,NA,NA,a_1_018.jpg,a_1_013.jpg,within,NA,NaN,NA,right,5193,0,2,2726.5
TZ34OsrE,NA,NA,TZ34OsrE,2020-0188,2021-11-02,16:07:31,17:35:52,NA,incomplete,false,NA,true,5,21,NA,NA,left,NA,NA,o_c_027.jpg,a_2_013.jpg,between-big,NA,NaN,NA,left,1949.199999988079,1,1,2924.300000011921
TZ34OsrE,NA,NA,TZ34OsrE,2020-0188,2021-11-02,16:07:31,17:35:52,NA,incomplete,false,NA,true,5,22,NA,NA,right,NA,NA,i_s_012.jpg,n_s_006.jpg,between-big,NA,NaN,NA,right,1751.3999999761581,1,1,2878.599999964237
TZ34OsrE,NA,NA,TZ34OsrE,2020-0188,2021-11-02,16:07:31,17:35:52,NA,incomplete,false,NA,true,5,23,NA,NA,right,NA,NA,o_c_010.jpg,m_s_011.jpg,between-big,NA,NaN,NA,left,6048.5,0,0,2270.599999964237
TZ34OsrE,NA,NA,TZ34OsrE,2020-0188,2021-11-02,16:07:31,17:35:52,NA,incomplete,false,NA,true,5,24,NA,NA,right,NA,NA,o_c_011.jpg,o_c_013.jpg,within,NA,NaN,NA,right,3244.099999964237,1,0,1551.300000011921
TZ34OsrE,NA,NA,TZ34OsrE,2020-0188,2021-11-02,16:07:31,17:35:52,NA,incomplete,false,NA,true,5,25,NA,NA,right,NA,NA,n_s_017.jpg,n_l_006.jpg,within,NA,NaN,NA,right,1440.6000000238419,1,1,1173.199999988079
TZ34OsrE,NA,NA,TZ34OsrE,2020-0188,2021-11-02,16:07:31,17:35:52,NA,incomplete,false,NA,true,5,26,NA,NA,right,NA,NA,a_1_011.jpg,c_1_017.jpg,between-small,NA,NaN,NA,left,3592.699999988079,0,2,1883.3999999761581
TZ34OsrE,NA,NA,TZ34OsrE,2020-0188,2021-11-02,16:07:31,17:35:52,NA,incomplete,false,true,NA,6,0,syllable,c_1_016.jpg,right,1 syllable,2 syllables,NA,NA,NA,left,1352.80000001192,false,NA,NA,NA,NA,NA
TZ34OsrE,NA,NA,TZ34OsrE,2020-0188,2021-11-02,16:07:31,17:35:52,NA,incomplete,false,true,NA,6,1,syllable,c_2_018.jpg,right,1 syllable,2 syllables,NA,NA,NA,right,3193.19999998808,true,NA,NA,NA,NA,NA
TZ34OsrE,NA,NA,TZ34OsrE,2020-0188,2021-11-02,16:07:31,17:35:52,NA,incomplete,false,true,NA,6,2,syllable,c_2_004.jpg,right,2 syllables,1 syllable,NA,NA,NA,left,1269.60000002384,false,NA,NA,NA,NA,NA
TZ34OsrE,NA,NA,TZ34OsrE,2020-0188,2021-11-02,16:07:31,17:35:52,NA,incomplete,false,true,NA,6,3,syllable,c_2_011.jpg,right,2 syllables,1 syllable,NA,NA,NA,left,970.099999964237,false,NA,NA,NA,NA,NA
TZ34OsrE,NA,NA,TZ34OsrE,2020-0188,2021-11-02,16:07:31,17:35:52,NA,incomplete,false,true,NA,6,4,syllable,a_1_005.jpg,right,1 syllable,2 syllables,NA,NA,NA,left,1187.70000004768,false,NA,NA,NA,NA,NA
TZ34OsrE,NA,NA,TZ34OsrE,2020-0188,2021-11-02,16:07:31,17:35:52,NA,incomplete,false,true,NA,6,5,abstractness,a_2_023.jpg,left,abstract,concrete,NA,NA,NA,left,2389.39999997616,true,NA,NA,NA,NA,NA
TZ34OsrE,NA,NA,TZ34OsrE,2020-0188,2021-11-02,16:07:31,17:35:52,NA,incomplete,false,true,NA,6,6,abstractness,c_2_023.jpg,right,abstract,concrete,NA,NA,NA,right,1259.19999998808,true,NA,NA,NA,NA,NA
TZ34OsrE,NA,NA,TZ34OsrE,2020-0188,2021-11-02,16:07:31,17:35:52,NA,incomplete,false,true,NA,6,7,abstractness,a_2_028.jpg,right,concrete,abstract,NA,NA,NA,right,3032.89999997616,true,NA,NA,NA,NA,NA
TZ34OsrE,NA,NA,TZ34OsrE,2020-0188,2021-11-02,16:07:31,17:35:52,NA,incomplete,false,true,NA,6,8,abstractness,a_2_010.jpg,left,abstract,concrete,NA,NA,NA,left,1936.89999997616,true,NA,NA,NA,NA,NA
TZ34OsrE,NA,NA,TZ34OsrE,2020-0188,2021-11-02,16:07:31,17:35:52,NA,incomplete,false,true,NA,6,9,abstractness,c_2_003.jpg,left,concrete,abstract,NA,NA,NA,left,1688.5,true,NA,NA,NA,NA,NA
TZ34OsrE,NA,NA,TZ34OsrE,2020-0188,2021-11-02,16:07:31,17:35:52,NA,incomplete,false,true,NA,6,10,size,m_l_019.jpg,right,small,large,NA,NA,NA,right,1642.5,true,NA,NA,NA,NA,NA
TZ34OsrE,NA,NA,TZ34OsrE,2020-0188,2021-11-02,16:07:31,17:35:52,NA,incomplete,false,true,NA,6,11,size,n_l_026.jpg,left,large,small,NA,NA,NA,left,1350,true,NA,NA,NA,NA,NA
TZ34OsrE,NA,NA,TZ34OsrE,2020-0188,2021-11-02,16:07:31,17:35:52,NA,incomplete,false,true,NA,6,12,size,n_s_016.jpg,right,large,small,NA,NA,NA,right,1881.89999997616,true,NA,NA,NA,NA,NA
TZ34OsrE,NA,NA,TZ34OsrE,2020-0188,2021-11-02,16:07:31,17:35:52,NA,incomplete,false,true,NA,6,13,size,m_l_015.jpg,left,large,small,NA,NA,NA,left,1417.60000002384,true,NA,NA,NA,NA,NA
TZ34OsrE,NA,NA,TZ34OsrE,2020-0188,2021-11-02,16:07:31,17:35:52,NA,incomplete,false,true,NA,6,14,size,n_l_012.jpg,right,small,large,NA,NA,NA,right,1481.40000003576,true,NA,NA,NA,NA,NA
TZ34OsrE,NA,NA,TZ34OsrE,2020-0188,2021-11-02,16:07:31,17:35:52,NA,incomplete,false,true,NA,6,15,origin,m_s_012.jpg,left,manmade,natural,NA,NA,NA,left,3044.39999997616,true,NA,NA,NA,NA,NA
TZ34OsrE,NA,NA,TZ34OsrE,2020-0188,2021-11-02,16:07:31,17:35:52,NA,incomplete,false,true,NA,6,16,origin,n_l_014.jpg,right,manmade,natural,NA,NA,NA,right,1666,true,NA,NA,NA,NA,NA
TZ34OsrE,NA,NA,TZ34OsrE,2020-0188,2021-11-02,16:07:31,17:35:52,NA,incomplete,false,true,NA,6,17,origin,n_l_019.jpg,right,manmade,natural,NA,NA,NA,right,1720.19999998808,true,NA,NA,NA,NA,NA
TZ34OsrE,NA,NA,TZ34OsrE,2020-0188,2021-11-02,16:07:31,17:35:52,NA,incomplete,false,true,NA,6,18,origin,n_l_005.jpg,right,manmade,natural,NA,NA,NA,right,1282.29999995232,true,NA,NA,NA,NA,NA
TZ34OsrE,NA,NA,TZ34OsrE,2020-0188,2021-11-02,16:07:31,17:35:52,NA,incomplete,false,true,NA,6,19,origin,m_s_007.jpg,left,manmade,natural,NA,NA,NA,left,2008.70000004768,true,NA,NA,NA,NA,NA
TZ34OsrE,NA,NA,TZ34OsrE,2020-0188,2021-11-02,16:07:31,17:35:52,NA,incomplete,false,true,NA,6,20,location,i_c_014.jpg,left,indoor,outdoor,NA,NA,NA,left,1967,true,NA,NA,NA,NA,NA
TZ34OsrE,NA,NA,TZ34OsrE,2020-0188,2021-11-02,16:07:31,17:35:52,NA,incomplete,false,true,NA,6,21,location,i_s_027.jpg,left,indoor,outdoor,NA,NA,NA,left,2213.5,true,NA,NA,NA,NA,NA
TZ34OsrE,NA,NA,TZ34OsrE,2020-0188,2021-11-02,16:07:31,17:35:52,NA,incomplete,false,true,NA,6,22,location,o_s_008.jpg,left,outdoor,indoor,NA,NA,NA,left,2139.90000003576,true,NA,NA,NA,NA,NA
TZ34OsrE,NA,NA,TZ34OsrE,2020-0188,2021-11-02,16:07:31,17:35:52,NA,incomplete,false,true,NA,6,23,location,o_s_014.jpg,right,indoor,outdoor,NA,NA,NA,right,1857.90000003576,true,NA,NA,NA,NA,NA
TZ34OsrE,NA,NA,TZ34OsrE,2020-0188,2021-11-02,16:07:31,17:35:52,NA,incomplete,false,true,NA,6,24,location,i_c_012.jpg,right,outdoor,indoor,NA,NA,NA,right,2330.10000002384,true,NA,NA,NA,NA,NA
TZ34OsrE,NA,NA,TZ34OsrE,2020-0188,2021-11-02,16:07:31,17:35:52,NA,incomplete,false,true,NA,6,25,building,i_c_019.jpg,left,cottage,skyscraper,NA,NA,NA,left,1493.59999996424,true,NA,NA,NA,NA,NA
TZ34OsrE,NA,NA,TZ34OsrE,2020-0188,2021-11-02,16:07:31,17:35:52,NA,incomplete,false,true,NA,6,26,building,i_s_015.jpg,left,skyscraper,cottage,NA,NA,NA,left,1590,true,NA,NA,NA,NA,NA
TZ34OsrE,NA,NA,TZ34OsrE,2020-0188,2021-11-02,16:07:31,17:35:52,NA,incomplete,false,true,NA,6,27,building,i_s_020.jpg,left,skyscraper,cottage,NA,NA,NA,left,1452,true,NA,NA,NA,NA,NA
TZ34OsrE,NA,NA,TZ34OsrE,2020-0188,2021-11-02,16:07:31,17:35:52,NA,incomplete,false,true,NA,6,28,building,o_c_015.jpg,right,skyscraper,cottage,NA,NA,NA,right,2372.19999998808,true,NA,NA,NA,NA,NA
TZ34OsrE,NA,NA,TZ34OsrE,2020-0188,2021-11-02,16:07:31,17:35:52,NA,incomplete,false,true,NA,6,29,building,i_s_016.jpg,right,cottage,skyscraper,NA,NA,NA,right,1620.69999998808,true,NA,NA,NA,NA,NA
TZ34OsrE,NA,NA,TZ34OsrE,2020-0188,2021-11-02,16:07:31,17:35:52,NA,incomplete,false,NA,true,6,0,NA,NA,left,NA,NA,c_2_011.jpg,c_2_023.jpg,between-small,NA,NaN,NA,left,3831.300000011921,1,1,1785.699999988079
TZ34OsrE,NA,NA,TZ34OsrE,2020-0188,2021-11-02,16:07:31,17:35:52,NA,incomplete,false,NA,true,6,1,NA,NA,left,NA,NA,m_s_007.jpg,o_s_008.jpg,between-big,NA,NaN,NA,left,1421.0999999642372,1,0,1104.0999999642372
TZ34OsrE,NA,NA,TZ34OsrE,2020-0188,2021-11-02,16:07:31,17:35:52,NA,incomplete,false,NA,true,6,2,NA,NA,right,NA,NA,m_s_012.jpg,n_s_016.jpg,between-small,NA,NaN,NA,right,1671.7000000476837,1,0,4466.699999988079
TZ34OsrE,NA,NA,TZ34OsrE,2020-0188,2021-11-02,16:07:31,17:35:52,NA,incomplete,false,NA,true,6,3,NA,NA,left,NA,NA,c_2_023.jpg,c_2_003.jpg,within,NA,NaN,NA,left,9507.799999952316,1,2,1673.199999988079
TZ34OsrE,NA,NA,TZ34OsrE,2020-0188,2021-11-02,16:07:31,17:35:52,NA,incomplete,false,NA,true,6,4,NA,NA,left,NA,NA,c_2_004.jpg,a_2_023.jpg,between-small,NA,NaN,NA,right,2397.399999976158,0,1,2971
TZ34OsrE,NA,NA,TZ34OsrE,2020-0188,2021-11-02,16:07:31,17:35:52,NA,incomplete,false,NA,true,6,5,NA,NA,right,NA,NA,i_s_015.jpg,o_s_014.jpg,between-small,NA,NaN,NA,right,1949.699999988079,1,0,1531.699999988079
TZ34OsrE,NA,NA,TZ34OsrE,2020-0188,2021-11-02,16:07:31,17:35:52,NA,incomplete,false,NA,true,6,6,NA,NA,left,NA,NA,m_s_012.jpg,n_l_005.jpg,within,NA,NaN,NA,right,6354.100000023842,0,0,2726.300000011921
TZ34OsrE,NA,NA,TZ34OsrE,2020-0188,2021-11-02,16:07:31,17:35:52,NA,incomplete,false,NA,true,6,7,NA,NA,left,NA,NA,a_2_028.jpg,m_l_019.jpg,between-big,NA,NaN,NA,right,1883.4000000357628,0,1,1375.699999988079
TZ34OsrE,NA,NA,TZ34OsrE,2020-0188,2021-11-02,16:07:31,17:35:52,NA,incomplete,false,NA,true,6,8,NA,NA,left,NA,NA,n_l_005.jpg,i_s_027.jpg,between-big,NA,NaN,NA,right,1725.699999988079,0,0,1604.8999999761581
TZ34OsrE,NA,NA,TZ34OsrE,2020-0188,2021-11-02,16:07:31,17:35:52,NA,incomplete,false,NA,true,6,9,NA,NA,right,NA,NA,m_s_007.jpg,n_l_014.jpg,within,NA,NaN,NA,right,4714.200000047684,1,0,4332.800000011921
TZ34OsrE,NA,NA,TZ34OsrE,2020-0188,2021-11-02,16:07:31,17:35:52,NA,incomplete,false,NA,true,6,10,NA,NA,left,NA,NA,c_1_016.jpg,c_2_011.jpg,within,NA,NaN,NA,right,1953,0,2,3092.400000035763
TZ34OsrE,NA,NA,TZ34OsrE,2020-0188,2021-11-02,16:07:31,17:35:52,NA,incomplete,false,NA,true,6,11,NA,NA,right,NA,NA,a_1_005.jpg,c_2_018.jpg,within,NA,NaN,NA,left,6201.800000011921,0,2,1999.4000000357628
TZ34OsrE,NA,NA,TZ34OsrE,2020-0188,2021-11-02,16:07:31,17:35:52,NA,incomplete,false,NA,true,6,12,NA,NA,left,NA,NA,o_s_008.jpg,i_c_019.jpg,between-small,NA,NaN,NA,left,10432.899999976158,1,0,1397.8999999761581
TZ34OsrE,NA,NA,TZ34OsrE,2020-0188,2021-11-02,16:07:31,17:35:52,NA,incomplete,false,NA,true,6,13,NA,NA,left,NA,NA,m_l_015.jpg,n_l_014.jpg,between-small,NA,NaN,NA,left,1376.699999988079,1,2,2939.800000011921
TZ34OsrE,NA,NA,TZ34OsrE,2020-0188,2021-11-02,16:07:31,17:35:52,NA,incomplete,false,NA,true,6,14,NA,NA,right,NA,NA,i_c_012.jpg,i_s_027.jpg,within,NA,NaN,NA,right,5309.099999964237,1,0,1306.300000011921
TZ34OsrE,NA,NA,TZ34OsrE,2020-0188,2021-11-02,16:07:31,17:35:52,NA,incomplete,false,NA,true,6,15,NA,NA,right,NA,NA,n_l_019.jpg,n_l_012.jpg,between-small,NA,NaN,NA,right,3910.7999999523163,1,1,2101.599999964237
TZ34OsrE,NA,NA,TZ34OsrE,2020-0188,2021-11-02,16:07:31,17:35:52,NA,incomplete,false,NA,true,6,16,NA,NA,left,NA,NA,m_l_019.jpg,m_l_015.jpg,within,NA,NaN,NA,left,1412.800000011921,1,1,2137.199999988079
TZ34OsrE,NA,NA,TZ34OsrE,2020-0188,2021-11-02,16:07:31,17:35:52,NA,incomplete,false,NA,true,6,17,NA,NA,right,NA,NA,i_s_016.jpg,i_s_015.jpg,within,NA,NaN,NA,right,2259.400000035763,1,0,1289.800000011921
TZ34OsrE,NA,NA,TZ34OsrE,2020-0188,2021-11-02,16:07:31,17:35:52,NA,incomplete,false,NA,true,6,18,NA,NA,right,NA,NA,o_c_015.jpg,i_c_019.jpg,within,NA,NaN,NA,right,3143.699999988079,1,0,2061
TZ34OsrE,NA,NA,TZ34OsrE,2020-0188,2021-11-02,16:07:31,17:35:52,NA,incomplete,false,NA,true,6,19,NA,NA,left,NA,NA,i_c_014.jpg,o_s_014.jpg,within,NA,NaN,NA,right,1384.6000000238419,0,0,1925.699999988079
TZ34OsrE,NA,NA,TZ34OsrE,2020-0188,2021-11-02,16:07:31,17:35:52,NA,incomplete,false,NA,true,6,20,NA,NA,right,NA,NA,n_s_016.jpg,c_2_003.jpg,between-big,NA,NaN,NA,right,9791.200000047684,1,1,1608.9000000357628
TZ34OsrE,NA,NA,TZ34OsrE,2020-0188,2021-11-02,16:07:31,17:35:52,NA,incomplete,false,NA,true,6,21,NA,NA,left,NA,NA,a_2_010.jpg,n_l_026.jpg,between-big,NA,NaN,NA,right,1128.8999999761581,0,1,1475.7999999523163
TZ34OsrE,NA,NA,TZ34OsrE,2020-0188,2021-11-02,16:07:31,17:35:52,NA,incomplete,false,NA,true,6,22,NA,NA,left,NA,NA,i_c_012.jpg,i_s_020.jpg,between-small,NA,NaN,NA,right,4352.699999988079,0,0,2339.699999988079
TZ34OsrE,NA,NA,TZ34OsrE,2020-0188,2021-11-02,16:07:31,17:35:52,NA,incomplete,false,NA,true,6,23,NA,NA,left,NA,NA,n_l_019.jpg,i_c_014.jpg,between-big,NA,NaN,NA,left,1226.6000000238419,1,1,1443.300000011921
TZ34OsrE,NA,NA,TZ34OsrE,2020-0188,2021-11-02,16:07:31,17:35:52,NA,incomplete,false,NA,true,6,24,NA,NA,left,NA,NA,n_l_026.jpg,n_l_012.jpg,within,NA,NaN,NA,left,1414.300000011921,1,1,5000.700000047684
TZ34OsrE,NA,NA,TZ34OsrE,2020-0188,2021-11-02,16:07:31,17:35:52,NA,incomplete,false,NA,true,6,25,NA,NA,right,NA,NA,a_2_028.jpg,a_1_005.jpg,between-small,NA,NaN,NA,right,2179.5,1,1,1741.699999988079
TZ34OsrE,NA,NA,TZ34OsrE,2020-0188,2021-11-02,16:07:31,17:35:52,NA,incomplete,false,NA,true,6,26,NA,NA,left,NA,NA,a_2_023.jpg,a_2_010.jpg,within,NA,NaN,NA,left,1445.699999988079,1,1,1177.5
TZ34OsrE,NA,NA,TZ34OsrE,2020-0188,2021-11-02,16:07:31,17:35:52,NA,incomplete,false,true,NA,7,0,origin,n_l_007.jpg,right,manmade,natural,NA,NA,NA,right,2423.30000001192,true,NA,NA,NA,NA,NA
TZ34OsrE,NA,NA,TZ34OsrE,2020-0188,2021-11-02,16:07:31,17:35:52,NA,incomplete,false,true,NA,7,1,origin,m_l_007.jpg,left,manmade,natural,NA,NA,NA,left,887.699999988079,true,NA,NA,NA,NA,NA
TZ34OsrE,NA,NA,TZ34OsrE,2020-0188,2021-11-02,16:07:31,17:35:52,NA,incomplete,false,true,NA,7,2,origin,m_s_013.jpg,left,manmade,natural,NA,NA,NA,left,1688.40000003576,true,NA,NA,NA,NA,NA
TZ34OsrE,NA,NA,TZ34OsrE,2020-0188,2021-11-02,16:07:31,17:35:52,NA,incomplete,false,true,NA,7,3,origin,m_l_018.jpg,right,natural,manmade,NA,NA,NA,right,1387.30000001192,true,NA,NA,NA,NA,NA
TZ34OsrE,NA,NA,TZ34OsrE,2020-0188,2021-11-02,16:07:31,17:35:52,NA,incomplete,false,true,NA,7,4,origin,m_l_022.jpg,left,manmade,natural,NA,NA,NA,left,1207,true,NA,NA,NA,NA,NA
TZ34OsrE,NA,NA,TZ34OsrE,2020-0188,2021-11-02,16:07:31,17:35:52,NA,incomplete,false,true,NA,7,5,size,n_s_012.jpg,left,small,large,NA,NA,NA,left,1784.5,true,NA,NA,NA,NA,NA
TZ34OsrE,NA,NA,TZ34OsrE,2020-0188,2021-11-02,16:07:31,17:35:52,NA,incomplete,false,true,NA,7,6,size,n_s_001.jpg,left,small,large,NA,NA,NA,left,2262.69999998808,true,NA,NA,NA,NA,NA
TZ34OsrE,NA,NA,TZ34OsrE,2020-0188,2021-11-02,16:07:31,17:35:52,NA,incomplete,false,true,NA,7,7,size,n_s_019.jpg,right,large,small,NA,NA,NA,right,2605.39999997616,true,NA,NA,NA,NA,NA
TZ34OsrE,NA,NA,TZ34OsrE,2020-0188,2021-11-02,16:07:31,17:35:52,NA,incomplete,false,true,NA,7,8,size,m_s_026.jpg,right,large,small,NA,NA,NA,none,0,false,NA,NA,NA,NA,NA
TZ34OsrE,NA,NA,TZ34OsrE,2020-0188,2021-11-02,16:07:31,17:35:52,NA,incomplete,false,true,NA,7,9,size,m_l_010.jpg,right,small,large,NA,NA,NA,right,2983.69999998808,true,NA,NA,NA,NA,NA
TZ34OsrE,NA,NA,TZ34OsrE,2020-0188,2021-11-02,16:07:31,17:35:52,NA,incomplete,false,true,NA,7,10,syllable,a_1_008.jpg,right,1 syllable,2 syllables,NA,NA,NA,left,1384.5,false,NA,NA,NA,NA,NA
TZ34OsrE,NA,NA,TZ34OsrE,2020-0188,2021-11-02,16:07:31,17:35:52,NA,incomplete,false,true,NA,7,11,syllable,a_1_026.jpg,right,2 syllables,1 syllable,NA,NA,NA,right,1660.5,true,NA,NA,NA,NA,NA
TZ34OsrE,NA,NA,TZ34OsrE,2020-0188,2021-11-02,16:07:31,17:35:52,NA,incomplete,false,true,NA,7,12,syllable,a_1_023.jpg,right,2 syllables,1 syllable,NA,NA,NA,right,1568.59999996424,true,NA,NA,NA,NA,NA
TZ34OsrE,NA,NA,TZ34OsrE,2020-0188,2021-11-02,16:07:31,17:35:52,NA,incomplete,false,true,NA,7,13,syllable,c_1_005.jpg,right,1 syllable,2 syllables,NA,NA,NA,left,1710.30000001192,false,NA,NA,NA,NA,NA
TZ34OsrE,NA,NA,TZ34OsrE,2020-0188,2021-11-02,16:07:31,17:35:52,NA,incomplete,false,true,NA,7,14,syllable,c_2_022.jpg,right,2 syllables,1 syllable,NA,NA,NA,left,1275.69999998808,false,NA,NA,NA,NA,NA
TZ34OsrE,NA,NA,TZ34OsrE,2020-0188,2021-11-02,16:07:31,17:35:52,NA,incomplete,false,true,NA,7,15,abstractness,c_2_008.jpg,right,abstract,concrete,NA,NA,NA,right,2018,true,NA,NA,NA,NA,NA
TZ34OsrE,NA,NA,TZ34OsrE,2020-0188,2021-11-02,16:07:31,17:35:52,NA,incomplete,false,true,NA,7,16,abstractness,c_1_013.jpg,right,abstract,concrete,NA,NA,NA,right,1474,true,NA,NA,NA,NA,NA
TZ34OsrE,NA,NA,TZ34OsrE,2020-0188,2021-11-02,16:07:31,17:35:52,NA,incomplete,false,true,NA,7,17,abstractness,c_1_027.jpg,right,abstract,concrete,NA,NA,NA,right,1882.80000001192,true,NA,NA,NA,NA,NA
TZ34OsrE,NA,NA,TZ34OsrE,2020-0188,2021-11-02,16:07:31,17:35:52,NA,incomplete,false,true,NA,7,18,abstractness,a_1_015.jpg,right,concrete,abstract,NA,NA,NA,left,3078.80000001192,false,NA,NA,NA,NA,NA
TZ34OsrE,NA,NA,TZ34OsrE,2020-0188,2021-11-02,16:07:31,17:35:52,NA,incomplete,false,true,NA,7,19,abstractness,a_2_025.jpg,right,concrete,abstract,NA,NA,NA,right,1380.30000001192,true,NA,NA,NA,NA,NA
TZ34OsrE,NA,NA,TZ34OsrE,2020-0188,2021-11-02,16:07:31,17:35:52,NA,incomplete,false,true,NA,7,20,building,i_s_001.jpg,left,skyscraper,cottage,NA,NA,NA,left,1306.40000003576,true,NA,NA,NA,NA,NA
TZ34OsrE,NA,NA,TZ34OsrE,2020-0188,2021-11-02,16:07:31,17:35:52,NA,incomplete,false,true,NA,7,21,building,o_s_004.jpg,left,skyscraper,cottage,NA,NA,NA,left,1378.80000001192,true,NA,NA,NA,NA,NA
TZ34OsrE,NA,NA,TZ34OsrE,2020-0188,2021-11-02,16:07:31,17:35:52,NA,incomplete,false,true,NA,7,22,building,i_s_011.jpg,left,skyscraper,cottage,NA,NA,NA,left,2052.19999998808,true,NA,NA,NA,NA,NA
TZ34OsrE,NA,NA,TZ34OsrE,2020-0188,2021-11-02,16:07:31,17:35:52,NA,incomplete,false,true,NA,7,23,building,i_c_006.jpg,left,cottage,skyscraper,NA,NA,NA,left,2623.30000001192,true,NA,NA,NA,NA,NA
TZ34OsrE,NA,NA,TZ34OsrE,2020-0188,2021-11-02,16:07:31,17:35:52,NA,incomplete,false,true,NA,7,24,building,i_s_009.jpg,left,skyscraper,cottage,NA,NA,NA,right,1392.10000002384,false,NA,NA,NA,NA,NA
TZ34OsrE,NA,NA,TZ34OsrE,2020-0188,2021-11-02,16:07:31,17:35:52,NA,incomplete,false,true,NA,7,25,location,o_c_019.jpg,right,indoor,outdoor,NA,NA,NA,right,2639.69999998808,true,NA,NA,NA,NA,NA
TZ34OsrE,NA,NA,TZ34OsrE,2020-0188,2021-11-02,16:07:31,17:35:52,NA,incomplete,false,true,NA,7,26,location,i_s_021.jpg,right,outdoor,indoor,NA,NA,NA,left,2355.70000004768,false,NA,NA,NA,NA,NA
TZ34OsrE,NA,NA,TZ34OsrE,2020-0188,2021-11-02,16:07:31,17:35:52,NA,incomplete,false,true,NA,7,27,location,i_c_027.jpg,left,indoor,outdoor,NA,NA,NA,left,1565.09999996424,true,NA,NA,NA,NA,NA
TZ34OsrE,NA,NA,TZ34OsrE,2020-0188,2021-11-02,16:07:31,17:35:52,NA,incomplete,false,true,NA,7,28,location,o_s_003.jpg,right,indoor,outdoor,NA,NA,NA,right,1249.79999995232,true,NA,NA,NA,NA,NA
TZ34OsrE,NA,NA,TZ34OsrE,2020-0188,2021-11-02,16:07:31,17:35:52,NA,incomplete,false,true,NA,7,29,location,o_c_008.jpg,right,indoor,outdoor,NA,NA,NA,right,1967.5,true,NA,NA,NA,NA,NA
TZ34OsrE,NA,NA,TZ34OsrE,2020-0188,2021-11-02,16:07:31,17:35:52,NA,incomplete,false,NA,true,7,0,NA,NA,right,NA,NA,o_c_008.jpg,i_s_021.jpg,within,NA,NaN,NA,left,2249.800000011921,0,0,1434.8999999761581
TZ34OsrE,NA,NA,TZ34OsrE,2020-0188,2021-11-02,16:07:31,17:35:52,NA,incomplete,false,NA,true,7,1,NA,NA,right,NA,NA,o_s_004.jpg,a_1_015.jpg,between-big,NA,NaN,NA,right,2509.7999999523163,1,1,1887.5
TZ34OsrE,NA,NA,TZ34OsrE,2020-0188,2021-11-02,16:07:31,17:35:52,NA,incomplete,false,NA,true,7,2,NA,NA,right,NA,NA,m_s_026.jpg,n_s_012.jpg,within,NA,NaN,NA,left,4873.599999964237,0,2,2294
TZ34OsrE,NA,NA,TZ34OsrE,2020-0188,2021-11-02,16:07:31,17:35:52,NA,incomplete,false,NA,true,7,3,NA,NA,right,NA,NA,a_2_025.jpg,c_1_013.jpg,within,NA,NaN,NA,right,1994.300000011921,1,2,2251.399999976158
TZ34OsrE,NA,NA,TZ34OsrE,2020-0188,2021-11-02,16:07:31,17:35:52,NA,incomplete,false,NA,true,7,4,NA,NA,left,NA,NA,i_s_009.jpg,i_c_027.jpg,between-small,NA,NaN,NA,right,2381.5,0,0,1120.8999999761581
TZ34OsrE,NA,NA,TZ34OsrE,2020-0188,2021-11-02,16:07:31,17:35:52,NA,incomplete,false,NA,true,7,5,NA,NA,left,NA,NA,n_s_019.jpg,a_1_008.jpg,between-big,NA,NaN,NA,left,1414.699999988079,1,2,3092.7000000476837
TZ34OsrE,NA,NA,TZ34OsrE,2020-0188,2021-11-02,16:07:31,17:35:52,NA,incomplete,false,NA,true,7,6,NA,NA,right,NA,NA,c_2_008.jpg,a_1_023.jpg,between-small,NA,NaN,NA,left,1683,0,2,1955.6000000238419
TZ34OsrE,NA,NA,TZ34OsrE,2020-0188,2021-11-02,16:07:31,17:35:52,NA,incomplete,false,NA,true,7,7,NA,NA,left,NA,NA,o_c_019.jpg,o_s_003.jpg,within,NA,NaN,NA,left,2217.2000000476837,1,0,1233.699999988079
TZ34OsrE,NA,NA,TZ34OsrE,2020-0188,2021-11-02,16:07:31,17:35:52,NA,incomplete,false,NA,true,7,8,NA,NA,left,NA,NA,a_1_026.jpg,c_2_022.jpg,within,NA,NaN,NA,right,1984.2000000476837,0,2,1185
TZ34OsrE,NA,NA,TZ34OsrE,2020-0188,2021-11-02,16:07:31,17:35:52,NA,incomplete,false,NA,true,7,9,NA,NA,right,NA,NA,m_l_018.jpg,n_l_007.jpg,within,NA,NaN,NA,right,1542.800000011921,1,1,1382.5
TZ34OsrE,NA,NA,TZ34OsrE,2020-0188,2021-11-02,16:07:31,17:35:52,NA,incomplete,false,NA,true,7,10,NA,NA,right,NA,NA,o_c_019.jpg,i_s_011.jpg,between-small,NA,NaN,NA,right,3080.2000000476837,1,0,1801.5999999642372
TZ34OsrE,NA,NA,TZ34OsrE,2020-0188,2021-11-02,16:07:31,17:35:52,NA,incomplete,false,NA,true,7,11,NA,NA,right,NA,NA,m_l_010.jpg,n_s_001.jpg,within,NA,NaN,NA,right,1598.0999999642372,1,0,2007.699999988079
TZ34OsrE,NA,NA,TZ34OsrE,2020-0188,2021-11-02,16:07:31,17:35:52,NA,incomplete,false,NA,true,7,12,NA,NA,right,NA,NA,a_1_015.jpg,c_2_008.jpg,within,NA,NaN,NA,left,4799.700000047684,0,2,1995.300000011921
TZ34OsrE,NA,NA,TZ34OsrE,2020-0188,2021-11-02,16:07:31,17:35:52,NA,incomplete,false,NA,true,7,13,NA,NA,left,NA,NA,m_l_010.jpg,a_1_023.jpg,between-big,NA,NaN,NA,left,1036.9000000357628,1,1,2130.100000023842
TZ34OsrE,NA,NA,TZ34OsrE,2020-0188,2021-11-02,16:07:31,17:35:52,NA,incomplete,false,NA,true,7,14,NA,NA,right,NA,NA,i_s_011.jpg,a_2_025.jpg,between-big,NA,NaN,NA,right,8028.399999976158,1,1,1387.4000000357628
TZ34OsrE,NA,NA,TZ34OsrE,2020-0188,2021-11-02,16:07:31,17:35:52,NA,incomplete,false,NA,true,7,15,NA,NA,right,NA,NA,m_l_022.jpg,m_l_007.jpg,within,NA,NaN,NA,right,1717.0999999642372,1,1,1604.5
TZ34OsrE,NA,NA,TZ34OsrE,2020-0188,2021-11-02,16:07:31,17:35:52,NA,incomplete,false,NA,true,7,16,NA,NA,left,NA,NA,m_l_018.jpg,n_s_001.jpg,between-small,NA,NaN,NA,left,1170,1,1,1249.300000011921
TZ34OsrE,NA,NA,TZ34OsrE,2020-0188,2021-11-02,16:07:31,17:35:52,NA,incomplete,false,NA,true,7,17,NA,NA,right,NA,NA,c_1_005.jpg,a_1_008.jpg,within,NA,NaN,NA,left,2470.5,0,2,2100.600000023842
TZ34OsrE,NA,NA,TZ34OsrE,2020-0188,2021-11-02,16:07:31,17:35:52,NA,incomplete,false,NA,true,7,18,NA,NA,left,NA,NA,o_s_004.jpg,i_s_009.jpg,within,NA,NaN,NA,right,6304.599999964237,0,0,1731.4000000357628
TZ34OsrE,NA,NA,TZ34OsrE,2020-0188,2021-11-02,16:07:31,17:35:52,NA,incomplete,false,NA,true,7,19,NA,NA,right,NA,NA,n_s_012.jpg,m_s_013.jpg,between-small,NA,NaN,NA,right,3232.800000011921,1,0,1980.1000000238419
TZ34OsrE,NA,NA,TZ34OsrE,2020-0188,2021-11-02,16:07:31,17:35:52,NA,incomplete,false,NA,true,7,20,NA,NA,left,NA,NA,i_s_001.jpg,i_c_006.jpg,within,NA,NaN,NA,right,5547.800000011921,0,0,2283.699999988079
TZ34OsrE,NA,NA,TZ34OsrE,2020-0188,2021-11-02,16:07:31,17:35:52,NA,incomplete,false,NA,true,7,21,NA,NA,right,NA,NA,i_s_001.jpg,c_1_027.jpg,between-big,NA,NaN,NA,right,2227.400000035763,1,1,1270.699999988079
TZ34OsrE,NA,NA,TZ34OsrE,2020-0188,2021-11-02,16:07:31,17:35:52,NA,incomplete,false,NA,true,7,22,NA,NA,left,NA,NA,c_1_005.jpg,c_1_013.jpg,between-small,NA,NaN,NA,left,15542.400000035763,1,1,4333.099999964237
TZ34OsrE,NA,NA,TZ34OsrE,2020-0188,2021-11-02,16:07:31,17:35:52,NA,incomplete,false,NA,true,7,23,NA,NA,left,NA,NA,m_s_026.jpg,a_1_026.jpg,between-big,NA,NaN,NA,left,1249.6000000238419,1,1,1349.5999999642372
TZ34OsrE,NA,NA,TZ34OsrE,2020-0188,2021-11-02,16:07:31,17:35:52,NA,incomplete,false,NA,true,7,24,NA,NA,left,NA,NA,m_l_022.jpg,n_s_019.jpg,between-small,NA,NaN,NA,left,2316.699999988079,1,1,1796.199999988079
TZ34OsrE,NA,NA,TZ34OsrE,2020-0188,2021-11-02,16:07:31,17:35:52,NA,incomplete,false,NA,true,7,25,NA,NA,left,NA,NA,c_2_022.jpg,c_1_027.jpg,between-small,NA,NaN,NA,left,1468.699999988079,1,2,1306.699999988079
TZ34OsrE,NA,NA,TZ34OsrE,2020-0188,2021-11-02,16:07:31,17:35:52,NA,incomplete,false,NA,true,7,26,NA,NA,left,NA,NA,i_c_006.jpg,i_s_021.jpg,between-small,NA,NaN,NA,left,3690.599999964237,1,0,2563.199999988079
TZ34OsrE,NA,NA,TZ34OsrE,2020-0188,2021-11-02,16:07:31,17:35:52,NA,incomplete,false,true,NA,8,0,location,i_c_026.jpg,left,indoor,outdoor,NA,NA,NA,left,1491.19999998808,true,NA,NA,NA,NA,NA
TZ34OsrE,NA,NA,TZ34OsrE,2020-0188,2021-11-02,16:07:31,17:35:52,NA,incomplete,false,true,NA,8,1,location,o_c_026.jpg,right,indoor,outdoor,NA,NA,NA,right,1076.30000001192,true,NA,NA,NA,NA,NA
TZ34OsrE,NA,NA,TZ34OsrE,2020-0188,2021-11-02,16:07:31,17:35:52,NA,incomplete,false,true,NA,8,2,location,o_c_023.jpg,right,indoor,outdoor,NA,NA,NA,right,2238.69999998808,true,NA,NA,NA,NA,NA
TZ34OsrE,NA,NA,TZ34OsrE,2020-0188,2021-11-02,16:07:31,17:35:52,NA,incomplete,false,true,NA,8,3,location,i_s_005.jpg,right,outdoor,indoor,NA,NA,NA,right,1244.89999997616,true,NA,NA,NA,NA,NA
TZ34OsrE,NA,NA,TZ34OsrE,2020-0188,2021-11-02,16:07:31,17:35:52,NA,incomplete,false,true,NA,8,4,location,o_c_006.jpg,right,indoor,outdoor,NA,NA,NA,right,2109.5,true,NA,NA,NA,NA,NA
TZ34OsrE,NA,NA,TZ34OsrE,2020-0188,2021-11-02,16:07:31,17:35:52,NA,incomplete,false,true,NA,8,5,building,o_c_009.jpg,right,skyscraper,cottage,NA,NA,NA,right,1245.69999998808,true,NA,NA,NA,NA,NA
TZ34OsrE,NA,NA,TZ34OsrE,2020-0188,2021-11-02,16:07:31,17:35:52,NA,incomplete,false,true,NA,8,6,building,o_s_001.jpg,left,skyscraper,cottage,NA,NA,NA,left,1745,true,NA,NA,NA,NA,NA
TZ34OsrE,NA,NA,TZ34OsrE,2020-0188,2021-11-02,16:07:31,17:35:52,NA,incomplete,false,true,NA,8,7,building,i_c_009.jpg,right,skyscraper,cottage,NA,NA,NA,right,2185.40000003576,true,NA,NA,NA,NA,NA
TZ34OsrE,NA,NA,TZ34OsrE,2020-0188,2021-11-02,16:07:31,17:35:52,NA,incomplete,false,true,NA,8,8,building,o_c_004.jpg,left,cottage,skyscraper,NA,NA,NA,left,1908.69999998808,true,NA,NA,NA,NA,NA
TZ34OsrE,NA,NA,TZ34OsrE,2020-0188,2021-11-02,16:07:31,17:35:52,NA,incomplete,false,true,NA,8,9,building,i_c_016.jpg,right,skyscraper,cottage,NA,NA,NA,right,2326.60000002384,true,NA,NA,NA,NA,NA
TZ34OsrE,NA,NA,TZ34OsrE,2020-0188,2021-11-02,16:07:31,17:35:52,NA,incomplete,false,true,NA,8,10,origin,n_l_024.jpg,right,manmade,natural,NA,NA,NA,right,1757.09999996424,true,NA,NA,NA,NA,NA
TZ34OsrE,NA,NA,TZ34OsrE,2020-0188,2021-11-02,16:07:31,17:35:52,NA,incomplete,false,true,NA,8,11,origin,m_s_001.jpg,right,natural,manmade,NA,NA,NA,right,1675.60000002384,true,NA,NA,NA,NA,NA
TZ34OsrE,NA,NA,TZ34OsrE,2020-0188,2021-11-02,16:07:31,17:35:52,NA,incomplete,false,true,NA,8,12,origin,n_l_009.jpg,left,natural,manmade,NA,NA,NA,left,2628.80000001192,true,NA,NA,NA,NA,NA
TZ34OsrE,NA,NA,TZ34OsrE,2020-0188,2021-11-02,16:07:31,17:35:52,NA,incomplete,false,true,NA,8,13,origin,m_s_025.jpg,left,manmade,natural,NA,NA,NA,left,1972.59999996424,true,NA,NA,NA,NA,NA
TZ34OsrE,NA,NA,TZ34OsrE,2020-0188,2021-11-02,16:07:31,17:35:52,NA,incomplete,false,true,NA,8,14,origin,n_l_016.jpg,right,manmade,natural,NA,NA,NA,right,2527.80000001192,true,NA,NA,NA,NA,NA
TZ34OsrE,NA,NA,TZ34OsrE,2020-0188,2021-11-02,16:07:31,17:35:52,NA,incomplete,false,true,NA,8,15,size,n_s_024.jpg,right,large,small,NA,NA,NA,right,2216.39999997616,true,NA,NA,NA,NA,NA
TZ34OsrE,NA,NA,TZ34OsrE,2020-0188,2021-11-02,16:07:31,17:35:52,NA,incomplete,false,true,NA,8,16,size,m_l_023.jpg,right,small,large,NA,NA,NA,right,1250.10000002384,true,NA,NA,NA,NA,NA
TZ34OsrE,NA,NA,TZ34OsrE,2020-0188,2021-11-02,16:07:31,17:35:52,NA,incomplete,false,true,NA,8,17,size,m_l_017.jpg,right,small,large,NA,NA,NA,right,1170.60000002384,true,NA,NA,NA,NA,NA
TZ34OsrE,NA,NA,TZ34OsrE,2020-0188,2021-11-02,16:07:31,17:35:52,NA,incomplete,false,true,NA,8,18,size,n_l_001.jpg,right,small,large,NA,NA,NA,right,1673.5,true,NA,NA,NA,NA,NA
TZ34OsrE,NA,NA,TZ34OsrE,2020-0188,2021-11-02,16:07:31,17:35:52,NA,incomplete,false,true,NA,8,19,size,n_l_011.jpg,left,large,small,NA,NA,NA,left,1489.79999995232,true,NA,NA,NA,NA,NA
TZ34OsrE,NA,NA,TZ34OsrE,2020-0188,2021-11-02,16:07:31,17:35:52,NA,incomplete,false,true,NA,8,20,syllable,a_1_027.jpg,right,1 syllable,2 syllables,NA,NA,NA,left,1541.90000003576,false,NA,NA,NA,NA,NA
TZ34OsrE,NA,NA,TZ34OsrE,2020-0188,2021-11-02,16:07:31,17:35:52,NA,incomplete,false,true,NA,8,21,syllable,a_2_017.jpg,right,2 syllables,1 syllable,NA,NA,NA,left,1109.30000001192,false,NA,NA,NA,NA,NA
TZ34OsrE,NA,NA,TZ34OsrE,2020-0188,2021-11-02,16:07:31,17:35:52,NA,incomplete,false,true,NA,8,22,syllable,a_2_008.jpg,right,1 syllable,2 syllables,NA,NA,NA,right,1417.69999998808,true,NA,NA,NA,NA,NA
TZ34OsrE,NA,NA,TZ34OsrE,2020-0188,2021-11-02,16:07:31,17:35:52,NA,incomplete,false,true,NA,8,23,syllable,c_2_015.jpg,right,1 syllable,2 syllables,NA,NA,NA,right,3192.19999998808,true,NA,NA,NA,NA,NA
TZ34OsrE,NA,NA,TZ34OsrE,2020-0188,2021-11-02,16:07:31,17:35:52,NA,incomplete,false,true,NA,8,24,syllable,a_1_006.jpg,right,2 syllables,1 syllable,NA,NA,NA,left,1681.5,false,NA,NA,NA,NA,NA
TZ34OsrE,NA,NA,TZ34OsrE,2020-0188,2021-11-02,16:07:31,17:35:52,NA,incomplete,false,true,NA,8,25,abstractness,c_2_012.jpg,left,concrete,abstract,NA,NA,NA,left,2989.60000002384,true,NA,NA,NA,NA,NA
TZ34OsrE,NA,NA,TZ34OsrE,2020-0188,2021-11-02,16:07:31,17:35:52,NA,incomplete,false,true,NA,8,26,abstractness,a_2_019.jpg,left,abstract,concrete,NA,NA,NA,left,2659.60000002384,true,NA,NA,NA,NA,NA
TZ34OsrE,NA,NA,TZ34OsrE,2020-0188,2021-11-02,16:07:31,17:35:52,NA,incomplete,false,true,NA,8,27,abstractness,c_2_017.jpg,right,abstract,concrete,NA,NA,NA,right,1811.5,true,NA,NA,NA,NA,NA
TZ34OsrE,NA,NA,TZ34OsrE,2020-0188,2021-11-02,16:07:31,17:35:52,NA,incomplete,false,true,NA,8,28,abstractness,c_2_027.jpg,left,concrete,abstract,NA,NA,NA,left,1435.90000003576,true,NA,NA,NA,NA,NA
TZ34OsrE,NA,NA,TZ34OsrE,2020-0188,2021-11-02,16:07:31,17:35:52,NA,incomplete,false,true,NA,8,29,abstractness,a_2_011.jpg,right,concrete,abstract,NA,NA,NA,right,1972,true,NA,NA,NA,NA,NA
TZ34OsrE,NA,NA,TZ34OsrE,2020-0188,2021-11-02,16:07:31,17:35:52,NA,incomplete,false,NA,true,8,0,NA,NA,right,NA,NA,i_c_016.jpg,o_s_001.jpg,within,NA,NaN,NA,right,1669.3999999761581,1,0,1356.3999999761581
TZ34OsrE,NA,NA,TZ34OsrE,2020-0188,2021-11-02,16:07:31,17:35:52,NA,incomplete,false,NA,true,8,1,NA,NA,left,NA,NA,o_c_009.jpg,o_c_004.jpg,within,NA,NaN,NA,left,1889.3999999761581,1,0,1483.9000000357628
TZ34OsrE,NA,NA,TZ34OsrE,2020-0188,2021-11-02,16:07:31,17:35:52,NA,incomplete,false,NA,true,8,2,NA,NA,right,NA,NA,c_2_017.jpg,a_1_006.jpg,between-small,NA,NaN,NA,right,1635.3999999761581,1,2,1327.699999988079
TZ34OsrE,NA,NA,TZ34OsrE,2020-0188,2021-11-02,16:07:31,17:35:52,NA,incomplete,false,NA,true,8,3,NA,NA,right,NA,NA,a_1_027.jpg,m_l_017.jpg,between-big,NA,NaN,NA,right,2582.7999999523163,1,2,1887.8999999761581
TZ34OsrE,NA,NA,TZ34OsrE,2020-0188,2021-11-02,16:07:31,17:35:52,NA,incomplete,false,NA,true,8,4,NA,NA,right,NA,NA,o_c_009.jpg,o_c_023.jpg,between-small,NA,NaN,NA,left,2070.800000011921,0,0,1528.0999999642372
TZ34OsrE,NA,NA,TZ34OsrE,2020-0188,2021-11-02,16:07:31,17:35:52,NA,incomplete,false,NA,true,8,5,NA,NA,right,NA,NA,a_2_019.jpg,c_2_015.jpg,between-small,NA,NaN,NA,left,3518.300000011921,0,2,3908.199999988079
TZ34OsrE,NA,NA,TZ34OsrE,2020-0188,2021-11-02,16:07:31,17:35:52,NA,incomplete,false,NA,true,8,6,NA,NA,left,NA,NA,m_s_001.jpg,n_l_016.jpg,within,NA,NaN,NA,left,1921.3999999761581,1,1,2346.699999988079
TZ34OsrE,NA,NA,TZ34OsrE,2020-0188,2021-11-02,16:07:31,17:35:52,NA,incomplete,false,NA,true,8,7,NA,NA,right,NA,NA,i_s_005.jpg,i_c_026.jpg,within,NA,NaN,NA,left,3891.199999988079,0,0,1403.300000011921
TZ34OsrE,NA,NA,TZ34OsrE,2020-0188,2021-11-02,16:07:31,17:35:52,NA,incomplete,false,NA,true,8,8,NA,NA,right,NA,NA,c_2_027.jpg,c_2_012.jpg,within,NA,NaN,NA,right,2638.699999988079,1,1,2035.300000011921
TZ34OsrE,NA,NA,TZ34OsrE,2020-0188,2021-11-02,16:07:31,17:35:52,NA,incomplete,false,NA,true,8,9,NA,NA,left,NA,NA,n_s_024.jpg,n_l_001.jpg,within,NA,NaN,NA,left,2199.800000011921,1,1,1334.7999999523163
TZ34OsrE,NA,NA,TZ34OsrE,2020-0188,2021-11-02,16:07:31,17:35:52,NA,incomplete,false,NA,true,8,10,NA,NA,right,NA,NA,o_s_001.jpg,i_s_005.jpg,between-small,NA,NaN,NA,left,2240.099999964237,0,0,1519.800000011921
TZ34OsrE,NA,NA,TZ34OsrE,2020-0188,2021-11-02,16:07:31,17:35:52,NA,incomplete,false,NA,true,8,11,NA,NA,right,NA,NA,a_2_008.jpg,n_l_011.jpg,between-big,NA,NaN,NA,right,6890.300000011921,1,1,1636.5
TZ34OsrE,NA,NA,TZ34OsrE,2020-0188,2021-11-02,16:07:31,17:35:52,NA,incomplete,false,NA,true,8,12,NA,NA,left,NA,NA,o_c_026.jpg,o_c_006.jpg,within,NA,NaN,NA,right,2850.5,0,0,1528.5
TZ34OsrE,NA,NA,TZ34OsrE,2020-0188,2021-11-02,16:07:31,17:35:52,NA,incomplete,false,NA,true,8,13,NA,NA,left,NA,NA,n_l_016.jpg,m_l_017.jpg,between-small,NA,NaN,NA,left,2630.800000011921,1,1,1195.6000000238419
TZ34OsrE,NA,NA,TZ34OsrE,2020-0188,2021-11-02,16:07:31,17:35:52,NA,incomplete,false,NA,true,8,14,NA,NA,right,NA,NA,a_2_011.jpg,a_2_019.jpg,within,NA,NaN,NA,left,3076.800000011921,0,1,3284.2999999523163
TZ34OsrE,NA,NA,TZ34OsrE,2020-0188,2021-11-02,16:07:31,17:35:52,NA,incomplete,false,NA,true,8,15,NA,NA,right,NA,NA,c_2_015.jpg,a_1_027.jpg,within,NA,NaN,NA,right,1907.5999999642372,1,2,1031.800000011921
TZ34OsrE,NA,NA,TZ34OsrE,2020-0188,2021-11-02,16:07:31,17:35:52,NA,incomplete,false,NA,true,8,16,NA,NA,left,NA,NA,m_s_025.jpg,m_l_023.jpg,between-small,NA,NaN,NA,left,3441.300000011921,1,1,1370.5
TZ34OsrE,NA,NA,TZ34OsrE,2020-0188,2021-11-02,16:07:31,17:35:52,NA,incomplete,false,NA,true,8,17,NA,NA,right,NA,NA,n_s_024.jpg,n_l_009.jpg,between-small,NA,NaN,NA,right,2726.099999964237,1,1,1244.699999988079
TZ34OsrE,NA,NA,TZ34OsrE,2020-0188,2021-11-02,16:07:31,17:35:52,NA,incomplete,false,NA,true,8,18,NA,NA,left,NA,NA,a_2_017.jpg,a_1_006.jpg,within,NA,NaN,NA,left,3507,1,2,2181.7999999523163
TZ34OsrE,NA,NA,TZ34OsrE,2020-0188,2021-11-02,16:07:31,17:35:52,NA,incomplete,false,NA,true,8,19,NA,NA,left,NA,NA,i_c_016.jpg,n_l_009.jpg,between-big,NA,NaN,NA,right,1353.9000000357628,0,1,1362.5
TZ34OsrE,NA,NA,TZ34OsrE,2020-0188,2021-11-02,16:07:31,17:35:52,NA,incomplete,false,NA,true,8,20,NA,NA,left,NA,NA,n_l_024.jpg,m_s_025.jpg,within,NA,NaN,NA,left,1640,1,2,2134.2999999523163
TZ34OsrE,NA,NA,TZ34OsrE,2020-0188,2021-11-02,16:07:31,17:35:52,NA,incomplete,false,NA,true,8,21,NA,NA,left,NA,NA,o_c_004.jpg,m_s_001.jpg,between-big,NA,NaN,NA,right,4550.600000023842,0,1,1531.5
TZ34OsrE,NA,NA,TZ34OsrE,2020-0188,2021-11-02,16:07:31,17:35:52,NA,incomplete,false,NA,true,8,22,NA,NA,left,NA,NA,n_l_001.jpg,a_2_017.jpg,between-big,NA,NaN,NA,left,2541.099999964237,1,1,1490.4000000357628
TZ34OsrE,NA,NA,TZ34OsrE,2020-0188,2021-11-02,16:07:31,17:35:52,NA,incomplete,false,NA,true,8,23,NA,NA,left,NA,NA,i_c_009.jpg,n_l_024.jpg,between-big,NA,NaN,NA,right,2221.599999964237,0,0,1349.800000011921
TZ34OsrE,NA,NA,TZ34OsrE,2020-0188,2021-11-02,16:07:31,17:35:52,NA,incomplete,false,NA,true,8,24,NA,NA,right,NA,NA,n_l_011.jpg,m_l_023.jpg,within,NA,NaN,NA,right,1487.5999999642372,1,1,1330.1000000238419
TZ34OsrE,NA,NA,TZ34OsrE,2020-0188,2021-11-02,16:07:31,17:35:52,NA,incomplete,false,NA,true,8,25,NA,NA,right,NA,NA,i_c_009.jpg,o_c_006.jpg,between-small,NA,NaN,NA,right,1355.5999999642372,1,0,1559.6000000238419
TZ34OsrE,NA,NA,TZ34OsrE,2020-0188,2021-11-02,16:07:31,17:35:52,NA,incomplete,false,NA,true,8,26,NA,NA,left,NA,NA,a_2_008.jpg,c_2_012.jpg,between-small,NA,NaN,NA,left,3644.100000023842,1,2,2860.900000035763
TZ34OsrE,NA,NA,TZ34OsrE,2020-0188,2021-11-02,16:07:31,17:35:52,NA,incomplete,false,true,NA,9,0,syllable,c_1_023.jpg,right,1 syllable,2 syllables,NA,NA,NA,left,1538.80000001192,false,NA,NA,NA,NA,NA
