workerId,hitId,assignmentId,subject,studyid,exp_date,exp_start,exp_end,time_start,time_end,practice,encoding,memory,block,trial,event,stim,answer,label_left,label_right,left_image,right_image,condition,response,response_time,response_acc,order_response,order_response_time,order_acc,distance_response,distance_response_time
v5WqoFkS,NA,NA,v5WqoFkS,2020-0188,2021-10-02,10:59:21,12:29:05,NA,incomplete,true,true,NA,0,0,syllable,c_1_009.jpg,right,2 syllables,1 syllable,NA,NA,NA,left,2300.69999992847,false,NA,NA,NA,NA,NA
v5WqoFkS,NA,NA,v5WqoFkS,2020-0188,2021-10-02,10:59:21,12:29:05,NA,incomplete,true,true,NA,0,1,syllable,c_2_001.jpg,right,2 syllables,1 syllable,NA,NA,NA,left,1684.19999992847,false,NA,NA,NA,NA,NA
v5WqoFkS,NA,NA,v5WqoFkS,2020-0188,2021-10-02,10:59:21,12:29:05,NA,incomplete,true,true,NA,0,2,syllable,c_1_024.jpg,right,2 syllables,1 syllable,NA,NA,NA,right,1488,true,NA,NA,NA,NA,NA
v5WqoFkS,NA,NA,v5WqoFkS,2020-0188,2021-10-02,10:59:21,12:29:05,NA,incomplete,true,true,NA,0,3,syllable,c_1_019.jpg,right,1 syllable,2 syllables,NA,NA,NA,left,1622.69999992847,false,NA,NA,NA,NA,NA
v5WqoFkS,NA,NA,v5WqoFkS,2020-0188,2021-10-02,10:59:21,12:29:05,NA,incomplete,true,true,NA,0,4,syllable,a_2_020.jpg,right,1 syllable,2 syllables,NA,NA,NA,right,1225.20000004768,true,NA,NA,NA,NA,NA
v5WqoFkS,NA,NA,v5WqoFkS,2020-0188,2021-10-02,10:59:21,12:29:05,NA,incomplete,true,true,NA,0,5,abstractness,a_2_021.jpg,left,abstract,concrete,NA,NA,NA,none,0,false,NA,NA,NA,NA,NA
v5WqoFkS,NA,NA,v5WqoFkS,2020-0188,2021-10-02,10:59:21,12:29:05,NA,incomplete,true,true,NA,0,6,abstractness,a_2_025.jpg,left,abstract,concrete,NA,NA,NA,left,2005.5,true,NA,NA,NA,NA,NA
v5WqoFkS,NA,NA,v5WqoFkS,2020-0188,2021-10-02,10:59:21,12:29:05,NA,incomplete,true,true,NA,0,7,abstractness,a_2_004.jpg,left,abstract,concrete,NA,NA,NA,left,1533.79999995232,true,NA,NA,NA,NA,NA
v5WqoFkS,NA,NA,v5WqoFkS,2020-0188,2021-10-02,10:59:21,12:29:05,NA,incomplete,true,true,NA,0,8,abstractness,a_1_020.jpg,left,abstract,concrete,NA,NA,NA,left,1899.10000002384,true,NA,NA,NA,NA,NA
v5WqoFkS,NA,NA,v5WqoFkS,2020-0188,2021-10-02,10:59:21,12:29:05,NA,incomplete,true,true,NA,0,9,abstractness,c_1_015.jpg,right,abstract,concrete,NA,NA,NA,right,1159.29999995232,true,NA,NA,NA,NA,NA
v5WqoFkS,NA,NA,v5WqoFkS,2020-0188,2021-10-02,10:59:21,12:29:05,NA,incomplete,true,true,NA,0,10,origin,n_s_013.jpg,left,natural,manmade,NA,NA,NA,left,1997.60000002384,true,NA,NA,NA,NA,NA
v5WqoFkS,NA,NA,v5WqoFkS,2020-0188,2021-10-02,10:59:21,12:29:05,NA,incomplete,true,true,NA,0,11,origin,n_s_016.jpg,right,manmade,natural,NA,NA,NA,right,2367.30000007153,true,NA,NA,NA,NA,NA
v5WqoFkS,NA,NA,v5WqoFkS,2020-0188,2021-10-02,10:59:21,12:29:05,NA,incomplete,true,true,NA,0,12,origin,m_s_015.jpg,right,natural,manmade,NA,NA,NA,right,1799.29999995232,true,NA,NA,NA,NA,NA
v5WqoFkS,NA,NA,v5WqoFkS,2020-0188,2021-10-02,10:59:21,12:29:05,NA,incomplete,true,true,NA,0,13,origin,m_l_001.jpg,left,manmade,natural,NA,NA,NA,left,1290.09999990463,true,NA,NA,NA,NA,NA
v5WqoFkS,NA,NA,v5WqoFkS,2020-0188,2021-10-02,10:59:21,12:29:05,NA,incomplete,true,true,NA,0,14,origin,m_s_016.jpg,right,natural,manmade,NA,NA,NA,right,1790.89999997616,true,NA,NA,NA,NA,NA
v5WqoFkS,NA,NA,v5WqoFkS,2020-0188,2021-10-02,10:59:21,12:29:05,NA,incomplete,true,true,NA,0,15,size,n_s_027.jpg,left,small,large,NA,NA,NA,left,1884.39999997616,true,NA,NA,NA,NA,NA
v5WqoFkS,NA,NA,v5WqoFkS,2020-0188,2021-10-02,10:59:21,12:29:05,NA,incomplete,true,true,NA,0,16,size,m_l_012.jpg,left,large,small,NA,NA,NA,left,1869.89999997616,true,NA,NA,NA,NA,NA
v5WqoFkS,NA,NA,v5WqoFkS,2020-0188,2021-10-02,10:59:21,12:29:05,NA,incomplete,true,true,NA,0,17,size,m_l_024.jpg,left,large,small,NA,NA,NA,left,1664,true,NA,NA,NA,NA,NA
v5WqoFkS,NA,NA,v5WqoFkS,2020-0188,2021-10-02,10:59:21,12:29:05,NA,incomplete,true,true,NA,0,18,size,m_s_020.jpg,left,small,large,NA,NA,NA,left,1651.79999995232,true,NA,NA,NA,NA,NA
v5WqoFkS,NA,NA,v5WqoFkS,2020-0188,2021-10-02,10:59:21,12:29:05,NA,incomplete,true,true,NA,0,19,size,m_l_016.jpg,left,large,small,NA,NA,NA,left,1650.29999995232,true,NA,NA,NA,NA,NA
v5WqoFkS,NA,NA,v5WqoFkS,2020-0188,2021-10-02,10:59:21,12:29:05,NA,incomplete,true,true,NA,0,20,building,i_s_022.jpg,right,cottage,skyscraper,NA,NA,NA,right,1593.19999992847,true,NA,NA,NA,NA,NA
v5WqoFkS,NA,NA,v5WqoFkS,2020-0188,2021-10-02,10:59:21,12:29:05,NA,incomplete,true,true,NA,0,21,building,o_c_001.jpg,right,skyscraper,cottage,NA,NA,NA,right,1372.5,true,NA,NA,NA,NA,NA
v5WqoFkS,NA,NA,v5WqoFkS,2020-0188,2021-10-02,10:59:21,12:29:05,NA,incomplete,true,true,NA,0,22,building,i_s_016.jpg,left,skyscraper,cottage,NA,NA,NA,left,970.900000095367,true,NA,NA,NA,NA,NA
v5WqoFkS,NA,NA,v5WqoFkS,2020-0188,2021-10-02,10:59:21,12:29:05,NA,incomplete,true,true,NA,0,23,building,o_c_017.jpg,left,cottage,skyscraper,NA,NA,NA,left,1352.30000007153,true,NA,NA,NA,NA,NA
v5WqoFkS,NA,NA,v5WqoFkS,2020-0188,2021-10-02,10:59:21,12:29:05,NA,incomplete,true,true,NA,0,24,building,o_c_005.jpg,right,skyscraper,cottage,NA,NA,NA,right,1473.89999997616,true,NA,NA,NA,NA,NA
v5WqoFkS,NA,NA,v5WqoFkS,2020-0188,2021-10-02,10:59:21,12:29:05,NA,incomplete,true,true,NA,0,25,location,i_c_019.jpg,left,indoor,outdoor,NA,NA,NA,left,1561.10000002384,true,NA,NA,NA,NA,NA
v5WqoFkS,NA,NA,v5WqoFkS,2020-0188,2021-10-02,10:59:21,12:29:05,NA,incomplete,true,true,NA,0,26,location,o_c_025.jpg,right,indoor,outdoor,NA,NA,NA,right,1131.60000002384,true,NA,NA,NA,NA,NA
v5WqoFkS,NA,NA,v5WqoFkS,2020-0188,2021-10-02,10:59:21,12:29:05,NA,incomplete,true,true,NA,0,27,location,i_c_013.jpg,right,outdoor,indoor,NA,NA,NA,left,1242,false,NA,NA,NA,NA,NA
v5WqoFkS,NA,NA,v5WqoFkS,2020-0188,2021-10-02,10:59:21,12:29:05,NA,incomplete,true,true,NA,0,28,location,i_c_026.jpg,left,indoor,outdoor,NA,NA,NA,left,1324.60000002384,true,NA,NA,NA,NA,NA
v5WqoFkS,NA,NA,v5WqoFkS,2020-0188,2021-10-02,10:59:21,12:29:05,NA,incomplete,true,true,NA,0,29,location,i_c_018.jpg,left,indoor,outdoor,NA,NA,NA,left,1353.39999997616,true,NA,NA,NA,NA,NA
v5WqoFkS,NA,NA,v5WqoFkS,2020-0188,2021-10-02,10:59:21,12:29:05,NA,incomplete,true,NA,true,0,0,NA,NA,left,NA,NA,m_l_012.jpg,m_l_016.jpg,within,NA,NaN,NA,left,3588.6999999284744,1,1,4115.600000023842
v5WqoFkS,NA,NA,v5WqoFkS,2020-0188,2021-10-02,10:59:21,12:29:05,NA,incomplete,true,NA,true,0,1,NA,NA,right,NA,NA,m_s_016.jpg,n_s_016.jpg,within,NA,NaN,NA,right,3227.899999976158,1,1,3877
v5WqoFkS,NA,NA,v5WqoFkS,2020-0188,2021-10-02,10:59:21,12:29:05,NA,incomplete,true,NA,true,0,2,NA,NA,right,NA,NA,m_s_020.jpg,n_s_027.jpg,within,NA,NaN,NA,left,9266.699999928474,0,2,1191.5999999046326
v5WqoFkS,NA,NA,v5WqoFkS,2020-0188,2021-10-02,10:59:21,12:29:05,NA,incomplete,true,NA,true,0,3,NA,NA,left,NA,NA,m_s_020.jpg,o_c_001.jpg,between-big,NA,NaN,NA,left,1897.8999999761581,1,2,2397.399999976158
v5WqoFkS,NA,NA,v5WqoFkS,2020-0188,2021-10-02,10:59:21,12:29:05,NA,incomplete,true,NA,true,0,4,NA,NA,left,NA,NA,a_2_004.jpg,n_s_013.jpg,between-big,NA,NaN,NA,left,3606.2000000476837,1,3,2431.6999999284744
v5WqoFkS,NA,NA,v5WqoFkS,2020-0188,2021-10-02,10:59:21,12:29:05,NA,incomplete,true,NA,true,0,5,NA,NA,right,NA,NA,a_2_020.jpg,c_2_001.jpg,within,NA,NaN,NA,left,4899.699999928474,0,0,2070.1999999284744
v5WqoFkS,NA,NA,v5WqoFkS,2020-0188,2021-10-02,10:59:21,12:29:05,NA,incomplete,true,NA,true,0,6,NA,NA,left,NA,NA,o_c_025.jpg,i_c_018.jpg,within,NA,NaN,NA,right,5880.800000071526,0,1,1455.3999999761581
v5WqoFkS,NA,NA,v5WqoFkS,2020-0188,2021-10-02,10:59:21,12:29:05,NA,incomplete,true,NA,true,0,7,NA,NA,right,NA,NA,i_c_019.jpg,i_s_016.jpg,between-small,NA,NaN,NA,right,2546.5,1,0,3342.5999999046326
v5WqoFkS,NA,NA,v5WqoFkS,2020-0188,2021-10-02,10:59:21,12:29:05,NA,incomplete,true,NA,true,0,8,NA,NA,right,NA,NA,m_l_024.jpg,m_s_016.jpg,between-small,NA,NaN,NA,right,5839.5,1,2,1461.2000000476837
v5WqoFkS,NA,NA,v5WqoFkS,2020-0188,2021-10-02,10:59:21,12:29:05,NA,incomplete,true,NA,true,0,9,NA,NA,right,NA,NA,o_c_005.jpg,o_c_001.jpg,within,NA,NaN,NA,left,4911.899999976158,0,0,4024.600000023842
v5WqoFkS,NA,NA,v5WqoFkS,2020-0188,2021-10-02,10:59:21,12:29:05,NA,incomplete,true,NA,true,0,10,NA,NA,right,NA,NA,n_s_016.jpg,a_1_020.jpg,between-big,NA,NaN,NA,right,2553.899999976158,1,2,1827.7999999523163
v5WqoFkS,NA,NA,v5WqoFkS,2020-0188,2021-10-02,10:59:21,12:29:05,NA,incomplete,true,NA,true,0,11,NA,NA,right,NA,NA,n_s_027.jpg,m_s_015.jpg,between-small,NA,NaN,NA,left,8830.899999976158,0,2,2250
v5WqoFkS,NA,NA,v5WqoFkS,2020-0188,2021-10-02,10:59:21,12:29:05,NA,incomplete,true,NA,true,0,12,NA,NA,left,NA,NA,m_l_001.jpg,m_l_012.jpg,between-small,NA,NaN,NA,left,6940.700000047684,1,1,1361.8999999761581
v5WqoFkS,NA,NA,v5WqoFkS,2020-0188,2021-10-02,10:59:21,12:29:05,NA,incomplete,true,NA,true,0,13,NA,NA,left,NA,NA,a_2_021.jpg,a_1_020.jpg,within,NA,NaN,NA,left,7889.5,1,0,2644.4000000953674
v5WqoFkS,NA,NA,v5WqoFkS,2020-0188,2021-10-02,10:59:21,12:29:05,NA,incomplete,true,NA,true,0,14,NA,NA,right,NA,NA,c_1_015.jpg,a_2_025.jpg,within,NA,NaN,NA,right,12030.799999952316,1,1,2710.2000000476837
v5WqoFkS,NA,NA,v5WqoFkS,2020-0188,2021-10-02,10:59:21,12:29:05,NA,incomplete,true,NA,true,0,15,NA,NA,right,NA,NA,a_2_025.jpg,c_1_019.jpg,between-small,NA,NaN,NA,right,5197,1,1,1846.7999999523163
v5WqoFkS,NA,NA,v5WqoFkS,2020-0188,2021-10-02,10:59:21,12:29:05,NA,incomplete,true,NA,true,0,16,NA,NA,left,NA,NA,o_c_017.jpg,o_c_025.jpg,between-small,NA,NaN,NA,left,3228.5,1,1,1485.8999999761581
v5WqoFkS,NA,NA,v5WqoFkS,2020-0188,2021-10-02,10:59:21,12:29:05,NA,incomplete,true,NA,true,0,17,NA,NA,right,NA,NA,a_2_004.jpg,a_2_020.jpg,between-small,NA,NaN,NA,right,2586,1,1,3071.600000023842
v5WqoFkS,NA,NA,v5WqoFkS,2020-0188,2021-10-02,10:59:21,12:29:05,NA,incomplete,true,NA,true,0,18,NA,NA,left,NA,NA,c_1_015.jpg,m_s_015.jpg,between-big,NA,NaN,NA,left,2726.399999976158,1,2,2668.399999976158
v5WqoFkS,NA,NA,v5WqoFkS,2020-0188,2021-10-02,10:59:21,12:29:05,NA,incomplete,true,NA,true,0,19,NA,NA,left,NA,NA,i_c_019.jpg,i_c_026.jpg,within,NA,NaN,NA,left,4361.599999904633,1,1,1387.8000000715256
v5WqoFkS,NA,NA,v5WqoFkS,2020-0188,2021-10-02,10:59:21,12:29:05,NA,incomplete,true,NA,true,0,20,NA,NA,right,NA,NA,i_s_016.jpg,m_l_016.jpg,between-big,NA,NaN,NA,right,4114.599999904633,1,2,1108.5999999046326
v5WqoFkS,NA,NA,v5WqoFkS,2020-0188,2021-10-02,10:59:21,12:29:05,NA,incomplete,true,NA,true,0,21,NA,NA,right,NA,NA,a_2_021.jpg,c_1_024.jpg,between-small,NA,NaN,NA,right,2898.7000000476837,1,0,2586.4000000953674
v5WqoFkS,NA,NA,v5WqoFkS,2020-0188,2021-10-02,10:59:21,12:29:05,NA,incomplete,true,NA,true,0,22,NA,NA,left,NA,NA,m_l_024.jpg,i_s_022.jpg,between-big,NA,NaN,NA,left,3606.899999976158,1,2,1501.8999999761581
v5WqoFkS,NA,NA,v5WqoFkS,2020-0188,2021-10-02,10:59:21,12:29:05,NA,incomplete,true,NA,true,0,23,NA,NA,left,NA,NA,n_s_013.jpg,m_l_001.jpg,within,NA,NaN,NA,left,1928.9000000953674,1,1,1214.8999999761581
v5WqoFkS,NA,NA,v5WqoFkS,2020-0188,2021-10-02,10:59:21,12:29:05,NA,incomplete,true,NA,true,0,24,NA,NA,right,NA,NA,i_c_013.jpg,o_c_005.jpg,between-small,NA,NaN,NA,right,4748.100000023842,1,1,1550.7999999523163
v5WqoFkS,NA,NA,v5WqoFkS,2020-0188,2021-10-02,10:59:21,12:29:05,NA,incomplete,true,NA,true,0,25,NA,NA,right,NA,NA,c_1_019.jpg,c_1_009.jpg,within,NA,NaN,NA,left,7141.299999952316,0,0,1296.7999999523163
v5WqoFkS,NA,NA,v5WqoFkS,2020-0188,2021-10-02,10:59:21,12:29:05,NA,incomplete,true,NA,true,0,26,NA,NA,right,NA,NA,o_c_017.jpg,i_s_022.jpg,within,NA,NaN,NA,right,1953.8999999761581,1,0,2405.2999999523163
v5WqoFkS,NA,NA,v5WqoFkS,2020-0188,2021-10-02,10:59:21,12:29:05,NA,incomplete,false,true,NA,1,0,location,i_c_008.jpg,right,outdoor,indoor,NA,NA,NA,right,2117.60000002384,true,NA,NA,NA,NA,NA
v5WqoFkS,NA,NA,v5WqoFkS,2020-0188,2021-10-02,10:59:21,12:29:05,NA,incomplete,false,true,NA,1,1,location,i_c_007.jpg,left,indoor,outdoor,NA,NA,NA,left,1242.30000007153,true,NA,NA,NA,NA,NA
v5WqoFkS,NA,NA,v5WqoFkS,2020-0188,2021-10-02,10:59:21,12:29:05,NA,incomplete,false,true,NA,1,2,location,o_c_026.jpg,left,outdoor,indoor,NA,NA,NA,left,2103.5,true,NA,NA,NA,NA,NA
v5WqoFkS,NA,NA,v5WqoFkS,2020-0188,2021-10-02,10:59:21,12:29:05,NA,incomplete,false,true,NA,1,3,location,i_s_011.jpg,left,indoor,outdoor,NA,NA,NA,left,2111.89999997616,true,NA,NA,NA,NA,NA
v5WqoFkS,NA,NA,v5WqoFkS,2020-0188,2021-10-02,10:59:21,12:29:05,NA,incomplete,false,true,NA,1,4,location,o_c_010.jpg,left,outdoor,indoor,NA,NA,NA,left,1640.60000002384,true,NA,NA,NA,NA,NA
v5WqoFkS,NA,NA,v5WqoFkS,2020-0188,2021-10-02,10:59:21,12:29:05,NA,incomplete,false,true,NA,1,5,building,i_c_006.jpg,right,skyscraper,cottage,NA,NA,NA,right,2616,true,NA,NA,NA,NA,NA
v5WqoFkS,NA,NA,v5WqoFkS,2020-0188,2021-10-02,10:59:21,12:29:05,NA,incomplete,false,true,NA,1,6,building,o_s_015.jpg,right,cottage,skyscraper,NA,NA,NA,right,1411.39999997616,true,NA,NA,NA,NA,NA
v5WqoFkS,NA,NA,v5WqoFkS,2020-0188,2021-10-02,10:59:21,12:29:05,NA,incomplete,false,true,NA,1,7,building,o_s_002.jpg,right,cottage,skyscraper,NA,NA,NA,right,1523.20000004768,true,NA,NA,NA,NA,NA
v5WqoFkS,NA,NA,v5WqoFkS,2020-0188,2021-10-02,10:59:21,12:29:05,NA,incomplete,false,true,NA,1,8,building,i_s_007.jpg,right,cottage,skyscraper,NA,NA,NA,right,1386.40000009537,true,NA,NA,NA,NA,NA
v5WqoFkS,NA,NA,v5WqoFkS,2020-0188,2021-10-02,10:59:21,12:29:05,NA,incomplete,false,true,NA,1,9,building,o_s_023.jpg,left,skyscraper,cottage,NA,NA,NA,left,1124.20000004768,true,NA,NA,NA,NA,NA
v5WqoFkS,NA,NA,v5WqoFkS,2020-0188,2021-10-02,10:59:21,12:29:05,NA,incomplete,false,true,NA,1,10,abstractness,c_1_002.jpg,right,abstract,concrete,NA,NA,NA,right,2279,true,NA,NA,NA,NA,NA
v5WqoFkS,NA,NA,v5WqoFkS,2020-0188,2021-10-02,10:59:21,12:29:05,NA,incomplete,false,true,NA,1,11,abstractness,a_2_024.jpg,left,abstract,concrete,NA,NA,NA,left,1266.5,true,NA,NA,NA,NA,NA
v5WqoFkS,NA,NA,v5WqoFkS,2020-0188,2021-10-02,10:59:21,12:29:05,NA,incomplete,false,true,NA,1,12,abstractness,a_1_017.jpg,right,concrete,abstract,NA,NA,NA,right,1586.39999997616,true,NA,NA,NA,NA,NA
v5WqoFkS,NA,NA,v5WqoFkS,2020-0188,2021-10-02,10:59:21,12:29:05,NA,incomplete,false,true,NA,1,13,abstractness,a_2_015.jpg,right,concrete,abstract,NA,NA,NA,right,1415.60000002384,true,NA,NA,NA,NA,NA
v5WqoFkS,NA,NA,v5WqoFkS,2020-0188,2021-10-02,10:59:21,12:29:05,NA,incomplete,false,true,NA,1,14,abstractness,c_2_014.jpg,left,concrete,abstract,NA,NA,NA,left,1354.70000004768,true,NA,NA,NA,NA,NA
v5WqoFkS,NA,NA,v5WqoFkS,2020-0188,2021-10-02,10:59:21,12:29:05,NA,incomplete,false,true,NA,1,15,syllable,c_1_018.jpg,right,1 syllable,2 syllables,NA,NA,NA,left,2637.5,false,NA,NA,NA,NA,NA
v5WqoFkS,NA,NA,v5WqoFkS,2020-0188,2021-10-02,10:59:21,12:29:05,NA,incomplete,false,true,NA,1,16,syllable,a_1_009.jpg,right,1 syllable,2 syllables,NA,NA,NA,left,1095.20000004768,false,NA,NA,NA,NA,NA
v5WqoFkS,NA,NA,v5WqoFkS,2020-0188,2021-10-02,10:59:21,12:29:05,NA,incomplete,false,true,NA,1,17,syllable,a_2_016.jpg,right,1 syllable,2 syllables,NA,NA,NA,right,1337.20000004768,true,NA,NA,NA,NA,NA
v5WqoFkS,NA,NA,v5WqoFkS,2020-0188,2021-10-02,10:59:21,12:29:05,NA,incomplete,false,true,NA,1,18,syllable,c_2_013.jpg,right,2 syllables,1 syllable,NA,NA,NA,left,1541.59999990463,false,NA,NA,NA,NA,NA
v5WqoFkS,NA,NA,v5WqoFkS,2020-0188,2021-10-02,10:59:21,12:29:05,NA,incomplete,false,true,NA,1,19,syllable,a_1_006.jpg,right,2 syllables,1 syllable,NA,NA,NA,right,1694.10000002384,true,NA,NA,NA,NA,NA
v5WqoFkS,NA,NA,v5WqoFkS,2020-0188,2021-10-02,10:59:21,12:29:05,NA,incomplete,false,true,NA,1,20,size,m_s_006.jpg,right,large,small,NA,NA,NA,right,1918.29999995232,true,NA,NA,NA,NA,NA
v5WqoFkS,NA,NA,v5WqoFkS,2020-0188,2021-10-02,10:59:21,12:29:05,NA,incomplete,false,true,NA,1,21,size,n_s_007.jpg,left,small,large,NA,NA,NA,none,0,false,NA,NA,NA,NA,NA
v5WqoFkS,NA,NA,v5WqoFkS,2020-0188,2021-10-02,10:59:21,12:29:05,NA,incomplete,false,true,NA,1,22,size,n_l_023.jpg,right,small,large,NA,NA,NA,right,1196.39999997616,true,NA,NA,NA,NA,NA
v5WqoFkS,NA,NA,v5WqoFkS,2020-0188,2021-10-02,10:59:21,12:29:05,NA,incomplete,false,true,NA,1,23,size,m_s_023.jpg,left,small,large,NA,NA,NA,left,1074.39999997616,true,NA,NA,NA,NA,NA
v5WqoFkS,NA,NA,v5WqoFkS,2020-0188,2021-10-02,10:59:21,12:29:05,NA,incomplete,false,true,NA,1,24,size,m_s_018.jpg,right,large,small,NA,NA,NA,right,1211.20000004768,true,NA,NA,NA,NA,NA
v5WqoFkS,NA,NA,v5WqoFkS,2020-0188,2021-10-02,10:59:21,12:29:05,NA,incomplete,false,true,NA,1,25,origin,n_l_026.jpg,right,manmade,natural,NA,NA,NA,right,2451.30000007153,true,NA,NA,NA,NA,NA
v5WqoFkS,NA,NA,v5WqoFkS,2020-0188,2021-10-02,10:59:21,12:29:05,NA,incomplete,false,true,NA,1,26,origin,n_l_027.jpg,left,natural,manmade,NA,NA,NA,left,2083.29999995232,true,NA,NA,NA,NA,NA
v5WqoFkS,NA,NA,v5WqoFkS,2020-0188,2021-10-02,10:59:21,12:29:05,NA,incomplete,false,true,NA,1,27,origin,n_s_021.jpg,right,manmade,natural,NA,NA,NA,right,1305.20000004768,true,NA,NA,NA,NA,NA
v5WqoFkS,NA,NA,v5WqoFkS,2020-0188,2021-10-02,10:59:21,12:29:05,NA,incomplete,false,true,NA,1,28,origin,n_l_001.jpg,left,natural,manmade,NA,NA,NA,left,2131.09999990463,true,NA,NA,NA,NA,NA
v5WqoFkS,NA,NA,v5WqoFkS,2020-0188,2021-10-02,10:59:21,12:29:05,NA,incomplete,false,true,NA,1,29,origin,n_s_005.jpg,left,natural,manmade,NA,NA,NA,left,1586.70000004768,true,NA,NA,NA,NA,NA
v5WqoFkS,NA,NA,v5WqoFkS,2020-0188,2021-10-02,10:59:21,12:29:05,NA,incomplete,false,NA,true,1,0,NA,NA,left,NA,NA,a_1_006.jpg,n_l_023.jpg,between-big,NA,NaN,NA,left,4829.200000047684,1,2,4384.799999952316
v5WqoFkS,NA,NA,v5WqoFkS,2020-0188,2021-10-02,10:59:21,12:29:05,NA,incomplete,false,NA,true,1,1,NA,NA,left,NA,NA,n_l_027.jpg,n_s_005.jpg,within,NA,NaN,NA,left,3119.2000000476837,1,0,2685.5
v5WqoFkS,NA,NA,v5WqoFkS,2020-0188,2021-10-02,10:59:21,12:29:05,NA,incomplete,false,NA,true,1,2,NA,NA,left,NA,NA,i_c_007.jpg,o_c_010.jpg,within,NA,NaN,NA,left,2240.899999976158,1,0,1071.8000000715256
v5WqoFkS,NA,NA,v5WqoFkS,2020-0188,2021-10-02,10:59:21,12:29:05,NA,incomplete,false,NA,true,1,3,NA,NA,left,NA,NA,o_c_010.jpg,o_s_002.jpg,between-small,NA,NaN,NA,right,2666.7000000476837,0,0,1214.7000000476837
v5WqoFkS,NA,NA,v5WqoFkS,2020-0188,2021-10-02,10:59:21,12:29:05,NA,incomplete,false,NA,true,1,4,NA,NA,right,NA,NA,c_2_014.jpg,a_2_024.jpg,within,NA,NaN,NA,left,9219.800000071526,0,1,1337.8999999761581
v5WqoFkS,NA,NA,v5WqoFkS,2020-0188,2021-10-02,10:59:21,12:29:05,NA,incomplete,false,NA,true,1,5,NA,NA,right,NA,NA,a_1_009.jpg,a_2_015.jpg,between-small,NA,NaN,NA,left,3482,0,1,2077.399999976158
v5WqoFkS,NA,NA,v5WqoFkS,2020-0188,2021-10-02,10:59:21,12:29:05,NA,incomplete,false,NA,true,1,6,NA,NA,right,NA,NA,m_s_018.jpg,n_s_007.jpg,within,NA,NaN,NA,left,7175.099999904633,0,1,1797.7999999523163
v5WqoFkS,NA,NA,v5WqoFkS,2020-0188,2021-10-02,10:59:21,12:29:05,NA,incomplete,false,NA,true,1,7,NA,NA,left,NA,NA,i_s_011.jpg,o_s_015.jpg,between-small,NA,NaN,NA,right,7107.700000047684,0,0,2610.7000000476837
v5WqoFkS,NA,NA,v5WqoFkS,2020-0188,2021-10-02,10:59:21,12:29:05,NA,incomplete,false,NA,true,1,8,NA,NA,right,NA,NA,m_s_023.jpg,m_s_006.jpg,within,NA,NaN,NA,right,3004.899999976158,1,0,1527.5
v5WqoFkS,NA,NA,v5WqoFkS,2020-0188,2021-10-02,10:59:21,12:29:05,NA,incomplete,false,NA,true,1,9,NA,NA,right,NA,NA,m_s_006.jpg,a_2_016.jpg,between-big,NA,NaN,NA,right,2389.4000000953674,1,3,5469.199999928474
v5WqoFkS,NA,NA,v5WqoFkS,2020-0188,2021-10-02,10:59:21,12:29:05,NA,incomplete,false,NA,true,1,10,NA,NA,left,NA,NA,i_c_008.jpg,i_s_011.jpg,within,NA,NaN,NA,left,3851.399999976158,1,0,1075.5999999046326
v5WqoFkS,NA,NA,v5WqoFkS,2020-0188,2021-10-02,10:59:21,12:29:05,NA,incomplete,false,NA,true,1,11,NA,NA,left,NA,NA,o_s_015.jpg,o_s_023.jpg,within,NA,NaN,NA,left,2389,1,0,1828.3999999761581
v5WqoFkS,NA,NA,v5WqoFkS,2020-0188,2021-10-02,10:59:21,12:29:05,NA,incomplete,false,NA,true,1,12,NA,NA,left,NA,NA,m_s_023.jpg,n_l_027.jpg,between-small,NA,NaN,NA,left,5321.300000071526,1,1,1403.6000000238419
v5WqoFkS,NA,NA,v5WqoFkS,2020-0188,2021-10-02,10:59:21,12:29:05,NA,incomplete,false,NA,true,1,13,NA,NA,left,NA,NA,o_s_023.jpg,a_1_017.jpg,between-big,NA,NaN,NA,right,2676.600000023842,0,2,1172.5999999046326
v5WqoFkS,NA,NA,v5WqoFkS,2020-0188,2021-10-02,10:59:21,12:29:05,NA,incomplete,false,NA,true,1,14,NA,NA,left,NA,NA,i_s_007.jpg,a_2_024.jpg,between-big,NA,NaN,NA,right,2005.3000000715256,0,2,1908.5
v5WqoFkS,NA,NA,v5WqoFkS,2020-0188,2021-10-02,10:59:21,12:29:05,NA,incomplete,false,NA,true,1,15,NA,NA,left,NA,NA,c_2_014.jpg,a_2_016.jpg,between-small,NA,NaN,NA,right,5433.100000023842,0,1,1658.5
v5WqoFkS,NA,NA,v5WqoFkS,2020-0188,2021-10-02,10:59:21,12:29:05,NA,incomplete,false,NA,true,1,16,NA,NA,left,NA,NA,n_l_026.jpg,n_l_001.jpg,within,NA,NaN,NA,left,3902.2000000476837,1,0,3064.100000023842
v5WqoFkS,NA,NA,v5WqoFkS,2020-0188,2021-10-02,10:59:21,12:29:05,NA,incomplete,false,NA,true,1,17,NA,NA,left,NA,NA,m_s_018.jpg,n_s_021.jpg,between-small,NA,NaN,NA,left,8606.699999928474,1,1,1830.2000000476837
v5WqoFkS,NA,NA,v5WqoFkS,2020-0188,2021-10-02,10:59:21,12:29:05,NA,incomplete,false,NA,true,1,18,NA,NA,left,NA,NA,c_1_002.jpg,a_2_015.jpg,within,NA,NaN,NA,left,3662.2000000476837,1,0,1190.1999999284744
v5WqoFkS,NA,NA,v5WqoFkS,2020-0188,2021-10-02,10:59:21,12:29:05,NA,incomplete,false,NA,true,1,19,NA,NA,right,NA,NA,c_1_018.jpg,a_1_017.jpg,between-small,NA,NaN,NA,right,7933.300000071526,1,0,2406
v5WqoFkS,NA,NA,v5WqoFkS,2020-0188,2021-10-02,10:59:21,12:29:05,NA,incomplete,false,NA,true,1,20,NA,NA,right,NA,NA,i_s_007.jpg,i_c_006.jpg,within,NA,NaN,NA,left,8229.100000023842,0,0,2660.0999999046326
v5WqoFkS,NA,NA,v5WqoFkS,2020-0188,2021-10-02,10:59:21,12:29:05,NA,incomplete,false,NA,true,1,21,NA,NA,left,NA,NA,o_c_026.jpg,i_c_006.jpg,between-small,NA,NaN,NA,right,4758.600000023842,0,0,993.5
v5WqoFkS,NA,NA,v5WqoFkS,2020-0188,2021-10-02,10:59:21,12:29:05,NA,incomplete,false,NA,true,1,22,NA,NA,left,NA,NA,o_s_002.jpg,c_1_002.jpg,between-big,NA,NaN,NA,right,2438.2999999523163,0,3,3456.6999999284744
v5WqoFkS,NA,NA,v5WqoFkS,2020-0188,2021-10-02,10:59:21,12:29:05,NA,incomplete,false,NA,true,1,23,NA,NA,right,NA,NA,c_2_013.jpg,c_1_018.jpg,within,NA,NaN,NA,left,4852.900000095367,0,0,1272.2999999523163
v5WqoFkS,NA,NA,v5WqoFkS,2020-0188,2021-10-02,10:59:21,12:29:05,NA,incomplete,false,NA,true,1,24,NA,NA,right,NA,NA,n_l_026.jpg,n_l_023.jpg,between-small,NA,NaN,NA,right,2298.899999976158,1,2,1920.7999999523163
v5WqoFkS,NA,NA,v5WqoFkS,2020-0188,2021-10-02,10:59:21,12:29:05,NA,incomplete,false,NA,true,1,25,NA,NA,left,NA,NA,c_2_013.jpg,n_s_007.jpg,between-big,NA,NaN,NA,left,2750,1,2,1856
v5WqoFkS,NA,NA,v5WqoFkS,2020-0188,2021-10-02,10:59:21,12:29:05,NA,incomplete,false,NA,true,1,26,NA,NA,right,NA,NA,a_1_006.jpg,a_1_009.jpg,within,NA,NaN,NA,right,3390.5,1,0,1600.6000000238419
v5WqoFkS,NA,NA,v5WqoFkS,2020-0188,2021-10-02,10:59:21,12:29:05,NA,incomplete,false,true,NA,2,0,building,o_c_022.jpg,left,cottage,skyscraper,NA,NA,NA,left,2534.70000004768,true,NA,NA,NA,NA,NA
v5WqoFkS,NA,NA,v5WqoFkS,2020-0188,2021-10-02,10:59:21,12:29:05,NA,incomplete,false,true,NA,2,1,building,i_s_028.jpg,left,skyscraper,cottage,NA,NA,NA,left,1697.5,true,NA,NA,NA,NA,NA
v5WqoFkS,NA,NA,v5WqoFkS,2020-0188,2021-10-02,10:59:21,12:29:05,NA,incomplete,false,true,NA,2,2,building,i_s_023.jpg,right,cottage,skyscraper,NA,NA,NA,right,1902.10000002384,true,NA,NA,NA,NA,NA
v5WqoFkS,NA,NA,v5WqoFkS,2020-0188,2021-10-02,10:59:21,12:29:05,NA,incomplete,false,true,NA,2,3,building,i_c_003.jpg,left,cottage,skyscraper,NA,NA,NA,left,943.800000071526,true,NA,NA,NA,NA,NA
v5WqoFkS,NA,NA,v5WqoFkS,2020-0188,2021-10-02,10:59:21,12:29:05,NA,incomplete,false,true,NA,2,4,building,i_c_024.jpg,left,cottage,skyscraper,NA,NA,NA,left,1139.39999997616,true,NA,NA,NA,NA,NA
v5WqoFkS,NA,NA,v5WqoFkS,2020-0188,2021-10-02,10:59:21,12:29:05,NA,incomplete,false,true,NA,2,5,location,o_s_021.jpg,right,indoor,outdoor,NA,NA,NA,right,1691.10000002384,true,NA,NA,NA,NA,NA
v5WqoFkS,NA,NA,v5WqoFkS,2020-0188,2021-10-02,10:59:21,12:29:05,NA,incomplete,false,true,NA,2,6,location,o_s_019.jpg,left,outdoor,indoor,NA,NA,NA,left,1380.30000007153,true,NA,NA,NA,NA,NA
v5WqoFkS,NA,NA,v5WqoFkS,2020-0188,2021-10-02,10:59:21,12:29:05,NA,incomplete,false,true,NA,2,7,location,o_s_028.jpg,right,indoor,outdoor,NA,NA,NA,right,1504.89999997616,true,NA,NA,NA,NA,NA
v5WqoFkS,NA,NA,v5WqoFkS,2020-0188,2021-10-02,10:59:21,12:29:05,NA,incomplete,false,true,NA,2,8,location,o_c_011.jpg,right,indoor,outdoor,NA,NA,NA,right,1420.90000009537,true,NA,NA,NA,NA,NA
v5WqoFkS,NA,NA,v5WqoFkS,2020-0188,2021-10-02,10:59:21,12:29:05,NA,incomplete,false,true,NA,2,9,location,o_c_016.jpg,left,outdoor,indoor,NA,NA,NA,left,2016.5,true,NA,NA,NA,NA,NA
v5WqoFkS,NA,NA,v5WqoFkS,2020-0188,2021-10-02,10:59:21,12:29:05,NA,incomplete,false,true,NA,2,10,syllable,c_1_003.jpg,right,2 syllables,1 syllable,NA,NA,NA,right,2145.20000004768,true,NA,NA,NA,NA,NA
v5WqoFkS,NA,NA,v5WqoFkS,2020-0188,2021-10-02,10:59:21,12:29:05,NA,incomplete,false,true,NA,2,11,syllable,a_1_005.jpg,right,1 syllable,2 syllables,NA,NA,NA,left,1785.5,false,NA,NA,NA,NA,NA
v5WqoFkS,NA,NA,v5WqoFkS,2020-0188,2021-10-02,10:59:21,12:29:05,NA,incomplete,false,true,NA,2,12,syllable,a_1_002.jpg,right,2 syllables,1 syllable,NA,NA,NA,right,1638.20000004768,true,NA,NA,NA,NA,NA
v5WqoFkS,NA,NA,v5WqoFkS,2020-0188,2021-10-02,10:59:21,12:29:05,NA,incomplete,false,true,NA,2,13,syllable,c_1_027.jpg,right,1 syllable,2 syllables,NA,NA,NA,left,1333,false,NA,NA,NA,NA,NA
v5WqoFkS,NA,NA,v5WqoFkS,2020-0188,2021-10-02,10:59:21,12:29:05,NA,incomplete,false,true,NA,2,14,syllable,c_1_026.jpg,right,1 syllable,2 syllables,NA,NA,NA,left,1425.90000009537,false,NA,NA,NA,NA,NA
v5WqoFkS,NA,NA,v5WqoFkS,2020-0188,2021-10-02,10:59:21,12:29:05,NA,incomplete,false,true,NA,2,15,abstractness,a_1_013.jpg,left,abstract,concrete,NA,NA,NA,left,3079.40000009537,true,NA,NA,NA,NA,NA
v5WqoFkS,NA,NA,v5WqoFkS,2020-0188,2021-10-02,10:59:21,12:29:05,NA,incomplete,false,true,NA,2,16,abstractness,a_1_016.jpg,right,concrete,abstract,NA,NA,NA,right,2116.30000007153,true,NA,NA,NA,NA,NA
v5WqoFkS,NA,NA,v5WqoFkS,2020-0188,2021-10-02,10:59:21,12:29:05,NA,incomplete,false,true,NA,2,17,abstractness,c_2_024.jpg,left,concrete,abstract,NA,NA,NA,left,1543.89999997616,true,NA,NA,NA,NA,NA
v5WqoFkS,NA,NA,v5WqoFkS,2020-0188,2021-10-02,10:59:21,12:29:05,NA,incomplete,false,true,NA,2,18,abstractness,a_1_025.jpg,left,abstract,concrete,NA,NA,NA,left,1539.09999990463,true,NA,NA,NA,NA,NA
v5WqoFkS,NA,NA,v5WqoFkS,2020-0188,2021-10-02,10:59:21,12:29:05,NA,incomplete,false,true,NA,2,19,abstractness,a_1_023.jpg,left,abstract,concrete,NA,NA,NA,left,1440.70000004768,true,NA,NA,NA,NA,NA
v5WqoFkS,NA,NA,v5WqoFkS,2020-0188,2021-10-02,10:59:21,12:29:05,NA,incomplete,false,true,NA,2,20,origin,m_l_026.jpg,right,natural,manmade,NA,NA,NA,right,2514.09999990463,true,NA,NA,NA,NA,NA
v5WqoFkS,NA,NA,v5WqoFkS,2020-0188,2021-10-02,10:59:21,12:29:05,NA,incomplete,false,true,NA,2,21,origin,m_l_022.jpg,right,natural,manmade,NA,NA,NA,right,1521.29999995232,true,NA,NA,NA,NA,NA
v5WqoFkS,NA,NA,v5WqoFkS,2020-0188,2021-10-02,10:59:21,12:29:05,NA,incomplete,false,true,NA,2,22,origin,m_l_023.jpg,right,natural,manmade,NA,NA,NA,right,1050.10000002384,true,NA,NA,NA,NA,NA
v5WqoFkS,NA,NA,v5WqoFkS,2020-0188,2021-10-02,10:59:21,12:29:05,NA,incomplete,false,true,NA,2,23,origin,m_s_003.jpg,right,natural,manmade,NA,NA,NA,right,1409,true,NA,NA,NA,NA,NA
v5WqoFkS,NA,NA,v5WqoFkS,2020-0188,2021-10-02,10:59:21,12:29:05,NA,incomplete,false,true,NA,2,24,origin,n_s_004.jpg,right,manmade,natural,NA,NA,NA,right,1431.5,true,NA,NA,NA,NA,NA
v5WqoFkS,NA,NA,v5WqoFkS,2020-0188,2021-10-02,10:59:21,12:29:05,NA,incomplete,false,true,NA,2,25,size,m_s_008.jpg,right,large,small,NA,NA,NA,right,1886,true,NA,NA,NA,NA,NA
v5WqoFkS,NA,NA,v5WqoFkS,2020-0188,2021-10-02,10:59:21,12:29:05,NA,incomplete,false,true,NA,2,26,size,n_l_002.jpg,right,small,large,NA,NA,NA,right,1542.70000004768,true,NA,NA,NA,NA,NA
v5WqoFkS,NA,NA,v5WqoFkS,2020-0188,2021-10-02,10:59:21,12:29:05,NA,incomplete,false,true,NA,2,27,size,n_l_014.jpg,right,small,large,NA,NA,NA,right,2154.39999997616,true,NA,NA,NA,NA,NA
v5WqoFkS,NA,NA,v5WqoFkS,2020-0188,2021-10-02,10:59:21,12:29:05,NA,incomplete,false,true,NA,2,28,size,m_s_004.jpg,left,small,large,NA,NA,NA,left,1421.39999997616,true,NA,NA,NA,NA,NA
v5WqoFkS,NA,NA,v5WqoFkS,2020-0188,2021-10-02,10:59:21,12:29:05,NA,incomplete,false,true,NA,2,29,size,n_s_020.jpg,left,small,large,NA,NA,NA,left,1318.59999990463,true,NA,NA,NA,NA,NA
v5WqoFkS,NA,NA,v5WqoFkS,2020-0188,2021-10-02,10:59:21,12:29:05,NA,incomplete,false,NA,true,2,0,NA,NA,right,NA,NA,o_s_021.jpg,i_s_023.jpg,between-small,NA,NaN,NA,right,3030.8000000715256,1,1,1838.6999999284744
v5WqoFkS,NA,NA,v5WqoFkS,2020-0188,2021-10-02,10:59:21,12:29:05,NA,incomplete,false,NA,true,2,1,NA,NA,right,NA,NA,m_s_003.jpg,m_l_026.jpg,within,NA,NaN,NA,right,1674.2000000476837,1,0,1617.5
v5WqoFkS,NA,NA,v5WqoFkS,2020-0188,2021-10-02,10:59:21,12:29:05,NA,incomplete,false,NA,true,2,2,NA,NA,left,NA,NA,o_c_022.jpg,i_c_003.jpg,within,NA,NaN,NA,left,2183,1,0,1299.6000000238419
v5WqoFkS,NA,NA,v5WqoFkS,2020-0188,2021-10-02,10:59:21,12:29:05,NA,incomplete,false,NA,true,2,3,NA,NA,left,NA,NA,c_1_003.jpg,c_1_027.jpg,within,NA,NaN,NA,left,5534.800000071526,1,1,3218.2000000476837
v5WqoFkS,NA,NA,v5WqoFkS,2020-0188,2021-10-02,10:59:21,12:29:05,NA,incomplete,false,NA,true,2,4,NA,NA,left,NA,NA,o_s_019.jpg,o_c_016.jpg,within,NA,NaN,NA,left,2281.399999976158,1,0,1230.5
v5WqoFkS,NA,NA,v5WqoFkS,2020-0188,2021-10-02,10:59:21,12:29:05,NA,incomplete,false,NA,true,2,5,NA,NA,right,NA,NA,o_s_028.jpg,i_c_024.jpg,between-small,NA,NaN,NA,right,1747.7000000476837,1,1,1304.5
v5WqoFkS,NA,NA,v5WqoFkS,2020-0188,2021-10-02,10:59:21,12:29:05,NA,incomplete,false,NA,true,2,6,NA,NA,left,NA,NA,a_1_023.jpg,m_l_023.jpg,between-big,NA,NaN,NA,left,3943.899999976158,1,2,1641.3999999761581
v5WqoFkS,NA,NA,v5WqoFkS,2020-0188,2021-10-02,10:59:21,12:29:05,NA,incomplete,false,NA,true,2,7,NA,NA,right,NA,NA,n_l_002.jpg,m_s_003.jpg,between-small,NA,NaN,NA,right,6516.200000047684,1,2,1314.3999999761581
v5WqoFkS,NA,NA,v5WqoFkS,2020-0188,2021-10-02,10:59:21,12:29:05,NA,incomplete,false,NA,true,2,8,NA,NA,left,NA,NA,m_l_023.jpg,m_s_008.jpg,between-small,NA,NaN,NA,left,2882.2000000476837,1,1,1510.8999999761581
v5WqoFkS,NA,NA,v5WqoFkS,2020-0188,2021-10-02,10:59:21,12:29:05,NA,incomplete,false,NA,true,2,9,NA,NA,right,NA,NA,a_1_025.jpg,a_1_013.jpg,within,NA,NaN,NA,right,7193.5,1,0,1807.1999999284744
v5WqoFkS,NA,NA,v5WqoFkS,2020-0188,2021-10-02,10:59:21,12:29:05,NA,incomplete,false,NA,true,2,10,NA,NA,right,NA,NA,a_1_023.jpg,a_1_016.jpg,within,NA,NaN,NA,left,3045.5,0,0,1198.5999999046326
v5WqoFkS,NA,NA,v5WqoFkS,2020-0188,2021-10-02,10:59:21,12:29:05,NA,incomplete,false,NA,true,2,11,NA,NA,left,NA,NA,c_1_027.jpg,a_1_016.jpg,between-small,NA,NaN,NA,left,8498.100000023842,1,0,1518.8999999761581
v5WqoFkS,NA,NA,v5WqoFkS,2020-0188,2021-10-02,10:59:21,12:29:05,NA,incomplete,false,NA,true,2,12,NA,NA,left,NA,NA,o_s_021.jpg,o_c_011.jpg,within,NA,NaN,NA,left,5724.600000023842,1,0,1330
v5WqoFkS,NA,NA,v5WqoFkS,2020-0188,2021-10-02,10:59:21,12:29:05,NA,incomplete,false,NA,true,2,13,NA,NA,left,NA,NA,o_c_011.jpg,a_1_005.jpg,between-big,NA,NaN,NA,right,3013.100000023842,0,2,1074.7999999523163
v5WqoFkS,NA,NA,v5WqoFkS,2020-0188,2021-10-02,10:59:21,12:29:05,NA,incomplete,false,NA,true,2,14,NA,NA,left,NA,NA,i_s_028.jpg,i_c_024.jpg,within,NA,NaN,NA,left,3161.600000023842,1,0,919.4000000953674
v5WqoFkS,NA,NA,v5WqoFkS,2020-0188,2021-10-02,10:59:21,12:29:05,NA,incomplete,false,NA,true,2,15,NA,NA,right,NA,NA,c_1_003.jpg,o_s_028.jpg,between-big,NA,NaN,NA,left,3984.2000000476837,0,1,4154.899999976158
v5WqoFkS,NA,NA,v5WqoFkS,2020-0188,2021-10-02,10:59:21,12:29:05,NA,incomplete,false,NA,true,2,16,NA,NA,right,NA,NA,o_s_019.jpg,i_c_003.jpg,between-small,NA,NaN,NA,right,5634,1,0,2322.899999976158
v5WqoFkS,NA,NA,v5WqoFkS,2020-0188,2021-10-02,10:59:21,12:29:05,NA,incomplete,false,NA,true,2,17,NA,NA,right,NA,NA,n_l_014.jpg,n_s_004.jpg,between-small,NA,NaN,NA,left,5477.200000047684,0,1,3185.5999999046326
v5WqoFkS,NA,NA,v5WqoFkS,2020-0188,2021-10-02,10:59:21,12:29:05,NA,incomplete,false,NA,true,2,18,NA,NA,right,NA,NA,m_l_026.jpg,c_2_024.jpg,between-big,NA,NaN,NA,right,2602.600000023842,1,3,1058.6999999284744
v5WqoFkS,NA,NA,v5WqoFkS,2020-0188,2021-10-02,10:59:21,12:29:05,NA,incomplete,false,NA,true,2,19,NA,NA,left,NA,NA,o_c_016.jpg,a_1_002.jpg,between-big,NA,NaN,NA,right,4662.5,0,1,1444.7999999523163
v5WqoFkS,NA,NA,v5WqoFkS,2020-0188,2021-10-02,10:59:21,12:29:05,NA,incomplete,false,NA,true,2,20,NA,NA,right,NA,NA,m_s_004.jpg,m_s_008.jpg,within,NA,NaN,NA,right,4542.600000023842,1,0,2742.899999976158
v5WqoFkS,NA,NA,v5WqoFkS,2020-0188,2021-10-02,10:59:21,12:29:05,NA,incomplete,false,NA,true,2,21,NA,NA,right,NA,NA,n_s_020.jpg,n_l_002.jpg,within,NA,NaN,NA,left,6330.100000023842,0,0,1041.7000000476837
v5WqoFkS,NA,NA,v5WqoFkS,2020-0188,2021-10-02,10:59:21,12:29:05,NA,incomplete,false,NA,true,2,22,NA,NA,left,NA,NA,a_1_005.jpg,c_1_026.jpg,within,NA,NaN,NA,right,6052.200000047684,0,0,1321.2999999523163
v5WqoFkS,NA,NA,v5WqoFkS,2020-0188,2021-10-02,10:59:21,12:29:05,NA,incomplete,false,NA,true,2,23,NA,NA,right,NA,NA,c_2_024.jpg,c_1_026.jpg,between-small,NA,NaN,NA,left,3504,0,0,1141.1000000238419
v5WqoFkS,NA,NA,v5WqoFkS,2020-0188,2021-10-02,10:59:21,12:29:05,NA,incomplete,false,NA,true,2,24,NA,NA,right,NA,NA,n_s_004.jpg,m_l_022.jpg,within,NA,NaN,NA,right,2266.5,1,0,1280.5999999046326
v5WqoFkS,NA,NA,v5WqoFkS,2020-0188,2021-10-02,10:59:21,12:29:05,NA,incomplete,false,NA,true,2,25,NA,NA,left,NA,NA,a_1_025.jpg,m_l_022.jpg,between-big,NA,NaN,NA,left,2734,1,2,943.5999999046326
v5WqoFkS,NA,NA,v5WqoFkS,2020-0188,2021-10-02,10:59:21,12:29:05,NA,incomplete,false,NA,true,2,26,NA,NA,left,NA,NA,a_1_002.jpg,a_1_013.jpg,between-small,NA,NaN,NA,left,7225.5,1,0,1822.1000000238419
v5WqoFkS,NA,NA,v5WqoFkS,2020-0188,2021-10-02,10:59:21,12:29:05,NA,incomplete,false,true,NA,3,0,building,o_s_027.jpg,left,skyscraper,cottage,NA,NA,NA,left,2345.59999990463,true,NA,NA,NA,NA,NA
v5WqoFkS,NA,NA,v5WqoFkS,2020-0188,2021-10-02,10:59:21,12:29:05,NA,incomplete,false,true,NA,3,1,building,i_c_015.jpg,right,skyscraper,cottage,NA,NA,NA,right,1332.39999997616,true,NA,NA,NA,NA,NA
v5WqoFkS,NA,NA,v5WqoFkS,2020-0188,2021-10-02,10:59:21,12:29:05,NA,incomplete,false,true,NA,3,2,building,o_c_021.jpg,left,cottage,skyscraper,NA,NA,NA,left,1510.20000004768,true,NA,NA,NA,NA,NA
v5WqoFkS,NA,NA,v5WqoFkS,2020-0188,2021-10-02,10:59:21,12:29:05,NA,incomplete,false,true,NA,3,3,building,o_s_013.jpg,left,skyscraper,cottage,NA,NA,NA,left,1290.60000002384,true,NA,NA,NA,NA,NA
v5WqoFkS,NA,NA,v5WqoFkS,2020-0188,2021-10-02,10:59:21,12:29:05,NA,incomplete,false,true,NA,3,4,building,o_s_012.jpg,right,cottage,skyscraper,NA,NA,NA,right,1287.10000002384,true,NA,NA,NA,NA,NA
v5WqoFkS,NA,NA,v5WqoFkS,2020-0188,2021-10-02,10:59:21,12:29:05,NA,incomplete,false,true,NA,3,5,location,o_c_019.jpg,left,outdoor,indoor,NA,NA,NA,left,2269.39999997616,true,NA,NA,NA,NA,NA
v5WqoFkS,NA,NA,v5WqoFkS,2020-0188,2021-10-02,10:59:21,12:29:05,NA,incomplete,false,true,NA,3,6,location,i_c_011.jpg,right,outdoor,indoor,NA,NA,NA,right,1562.39999997616,true,NA,NA,NA,NA,NA
v5WqoFkS,NA,NA,v5WqoFkS,2020-0188,2021-10-02,10:59:21,12:29:05,NA,incomplete,false,true,NA,3,7,location,i_c_012.jpg,left,indoor,outdoor,NA,NA,NA,left,1665,true,NA,NA,NA,NA,NA
v5WqoFkS,NA,NA,v5WqoFkS,2020-0188,2021-10-02,10:59:21,12:29:05,NA,incomplete,false,true,NA,3,8,location,i_c_010.jpg,left,indoor,outdoor,NA,NA,NA,left,1003.89999997616,true,NA,NA,NA,NA,NA
v5WqoFkS,NA,NA,v5WqoFkS,2020-0188,2021-10-02,10:59:21,12:29:05,NA,incomplete,false,true,NA,3,9,location,o_c_009.jpg,right,indoor,outdoor,NA,NA,NA,right,1376.19999992847,true,NA,NA,NA,NA,NA
v5WqoFkS,NA,NA,v5WqoFkS,2020-0188,2021-10-02,10:59:21,12:29:05,NA,incomplete,false,true,NA,3,10,abstractness,c_1_006.jpg,right,abstract,concrete,NA,NA,NA,right,2226.5,true,NA,NA,NA,NA,NA
v5WqoFkS,NA,NA,v5WqoFkS,2020-0188,2021-10-02,10:59:21,12:29:05,NA,incomplete,false,true,NA,3,11,abstractness,c_1_013.jpg,left,concrete,abstract,NA,NA,NA,left,1377.70000004768,true,NA,NA,NA,NA,NA
v5WqoFkS,NA,NA,v5WqoFkS,2020-0188,2021-10-02,10:59:21,12:29:05,NA,incomplete,false,true,NA,3,12,abstractness,c_2_020.jpg,right,abstract,concrete,NA,NA,NA,right,1758.89999997616,true,NA,NA,NA,NA,NA
v5WqoFkS,NA,NA,v5WqoFkS,2020-0188,2021-10-02,10:59:21,12:29:05,NA,incomplete,false,true,NA,3,13,abstractness,c_2_027.jpg,right,abstract,concrete,NA,NA,NA,right,1373.19999992847,true,NA,NA,NA,NA,NA
v5WqoFkS,NA,NA,v5WqoFkS,2020-0188,2021-10-02,10:59:21,12:29:05,NA,incomplete,false,true,NA,3,14,abstractness,a_1_022.jpg,left,abstract,concrete,NA,NA,NA,left,2118,true,NA,NA,NA,NA,NA
v5WqoFkS,NA,NA,v5WqoFkS,2020-0188,2021-10-02,10:59:21,12:29:05,NA,incomplete,false,true,NA,3,15,syllable,c_2_028.jpg,right,1 syllable,2 syllables,NA,NA,NA,right,1796.29999995232,true,NA,NA,NA,NA,NA
v5WqoFkS,NA,NA,v5WqoFkS,2020-0188,2021-10-02,10:59:21,12:29:05,NA,incomplete,false,true,NA,3,16,syllable,a_2_023.jpg,right,2 syllables,1 syllable,NA,NA,NA,left,1632.89999997616,false,NA,NA,NA,NA,NA
v5WqoFkS,NA,NA,v5WqoFkS,2020-0188,2021-10-02,10:59:21,12:29:05,NA,incomplete,false,true,NA,3,17,syllable,c_1_021.jpg,right,1 syllable,2 syllables,NA,NA,NA,left,2126.29999995232,false,NA,NA,NA,NA,NA
v5WqoFkS,NA,NA,v5WqoFkS,2020-0188,2021-10-02,10:59:21,12:29:05,NA,incomplete,false,true,NA,3,18,syllable,a_1_027.jpg,right,1 syllable,2 syllables,NA,NA,NA,left,1218.10000002384,false,NA,NA,NA,NA,NA
v5WqoFkS,NA,NA,v5WqoFkS,2020-0188,2021-10-02,10:59:21,12:29:05,NA,incomplete,false,true,NA,3,19,syllable,c_2_019.jpg,right,1 syllable,2 syllables,NA,NA,NA,right,1258.09999990463,true,NA,NA,NA,NA,NA
v5WqoFkS,NA,NA,v5WqoFkS,2020-0188,2021-10-02,10:59:21,12:29:05,NA,incomplete,false,true,NA,3,20,size,m_l_011.jpg,right,small,large,NA,NA,NA,right,2380.89999997616,true,NA,NA,NA,NA,NA
v5WqoFkS,NA,NA,v5WqoFkS,2020-0188,2021-10-02,10:59:21,12:29:05,NA,incomplete,false,true,NA,3,21,size,n_l_012.jpg,left,large,small,NA,NA,NA,left,1319.10000002384,true,NA,NA,NA,NA,NA
v5WqoFkS,NA,NA,v5WqoFkS,2020-0188,2021-10-02,10:59:21,12:29:05,NA,incomplete,false,true,NA,3,22,size,n_l_025.jpg,left,large,small,NA,NA,NA,left,1245.39999997616,true,NA,NA,NA,NA,NA
v5WqoFkS,NA,NA,v5WqoFkS,2020-0188,2021-10-02,10:59:21,12:29:05,NA,incomplete,false,true,NA,3,23,size,n_s_015.jpg,right,large,small,NA,NA,NA,right,1190.5,true,NA,NA,NA,NA,NA
v5WqoFkS,NA,NA,v5WqoFkS,2020-0188,2021-10-02,10:59:21,12:29:05,NA,incomplete,false,true,NA,3,24,size,m_s_001.jpg,left,small,large,NA,NA,NA,left,1363.09999990463,true,NA,NA,NA,NA,NA
v5WqoFkS,NA,NA,v5WqoFkS,2020-0188,2021-10-02,10:59:21,12:29:05,NA,incomplete,false,true,NA,3,25,origin,n_l_016.jpg,right,manmade,natural,NA,NA,NA,right,2445.69999992847,true,NA,NA,NA,NA,NA
v5WqoFkS,NA,NA,v5WqoFkS,2020-0188,2021-10-02,10:59:21,12:29:05,NA,incomplete,false,true,NA,3,26,origin,n_l_008.jpg,right,manmade,natural,NA,NA,NA,right,2223.30000007153,true,NA,NA,NA,NA,NA
v5WqoFkS,NA,NA,v5WqoFkS,2020-0188,2021-10-02,10:59:21,12:29:05,NA,incomplete,false,true,NA,3,27,origin,m_s_002.jpg,left,manmade,natural,NA,NA,NA,left,1761.69999992847,true,NA,NA,NA,NA,NA
v5WqoFkS,NA,NA,v5WqoFkS,2020-0188,2021-10-02,10:59:21,12:29:05,NA,incomplete,false,true,NA,3,28,origin,n_l_010.jpg,left,natural,manmade,NA,NA,NA,left,1929.79999995232,true,NA,NA,NA,NA,NA
v5WqoFkS,NA,NA,v5WqoFkS,2020-0188,2021-10-02,10:59:21,12:29:05,NA,incomplete,false,true,NA,3,29,origin,m_l_003.jpg,right,natural,manmade,NA,NA,NA,right,1460.39999997616,true,NA,NA,NA,NA,NA
v5WqoFkS,NA,NA,v5WqoFkS,2020-0188,2021-10-02,10:59:21,12:29:05,NA,incomplete,false,NA,true,3,0,NA,NA,left,NA,NA,n_s_015.jpg,n_l_008.jpg,between-small,NA,NaN,NA,left,4253.900000095367,1,1,1336.3999999761581
v5WqoFkS,NA,NA,v5WqoFkS,2020-0188,2021-10-02,10:59:21,12:29:05,NA,incomplete,false,NA,true,3,1,NA,NA,left,NA,NA,a_1_022.jpg,c_1_021.jpg,between-small,NA,NaN,NA,left,5410.899999976158,1,0,1190
v5WqoFkS,NA,NA,v5WqoFkS,2020-0188,2021-10-02,10:59:21,12:29:05,NA,incomplete,false,NA,true,3,2,NA,NA,right,NA,NA,i_c_011.jpg,o_s_013.jpg,between-small,NA,NaN,NA,right,3022.1999999284744,1,1,1650.2000000476837
v5WqoFkS,NA,NA,v5WqoFkS,2020-0188,2021-10-02,10:59:21,12:29:05,NA,incomplete,false,NA,true,3,3,NA,NA,left,NA,NA,i_c_010.jpg,c_1_013.jpg,between-big,NA,NaN,NA,left,2619.600000023842,1,2,1485.1000000238419
v5WqoFkS,NA,NA,v5WqoFkS,2020-0188,2021-10-02,10:59:21,12:29:05,NA,incomplete,false,NA,true,3,4,NA,NA,left,NA,NA,c_2_019.jpg,n_l_025.jpg,between-big,NA,NaN,NA,left,9557.100000023842,1,2,2168
v5WqoFkS,NA,NA,v5WqoFkS,2020-0188,2021-10-02,10:59:21,12:29:05,NA,incomplete,false,NA,true,3,5,NA,NA,right,NA,NA,c_2_027.jpg,c_1_006.jpg,within,NA,NaN,NA,right,8044.399999976158,1,0,1091.8999999761581
v5WqoFkS,NA,NA,v5WqoFkS,2020-0188,2021-10-02,10:59:21,12:29:05,NA,incomplete,false,NA,true,3,6,NA,NA,left,NA,NA,i_c_015.jpg,o_s_012.jpg,within,NA,NaN,NA,right,3423.6999999284744,0,1,1296.8999999761581
v5WqoFkS,NA,NA,v5WqoFkS,2020-0188,2021-10-02,10:59:21,12:29:05,NA,incomplete,false,NA,true,3,7,NA,NA,right,NA,NA,o_c_009.jpg,i_c_011.jpg,within,NA,NaN,NA,right,4287.200000047684,1,1,1411.3999999761581
v5WqoFkS,NA,NA,v5WqoFkS,2020-0188,2021-10-02,10:59:21,12:29:05,NA,incomplete,false,NA,true,3,8,NA,NA,left,NA,NA,o_c_009.jpg,c_2_020.jpg,between-big,NA,NaN,NA,left,4861.600000023842,1,2,2478.899999976158
v5WqoFkS,NA,NA,v5WqoFkS,2020-0188,2021-10-02,10:59:21,12:29:05,NA,incomplete,false,NA,true,3,9,NA,NA,right,NA,NA,m_l_003.jpg,n_l_008.jpg,within,NA,NaN,NA,right,5214.799999952316,1,1,1107.7999999523163
v5WqoFkS,NA,NA,v5WqoFkS,2020-0188,2021-10-02,10:59:21,12:29:05,NA,incomplete,false,NA,true,3,10,NA,NA,left,NA,NA,o_c_019.jpg,i_c_010.jpg,within,NA,NaN,NA,right,7716.900000095367,0,0,2298.600000023842
v5WqoFkS,NA,NA,v5WqoFkS,2020-0188,2021-10-02,10:59:21,12:29:05,NA,incomplete,false,NA,true,3,11,NA,NA,right,NA,NA,o_c_019.jpg,o_c_021.jpg,between-small,NA,NaN,NA,right,3629.600000023842,1,0,2413.600000023842
v5WqoFkS,NA,NA,v5WqoFkS,2020-0188,2021-10-02,10:59:21,12:29:05,NA,incomplete,false,NA,true,3,12,NA,NA,left,NA,NA,c_2_020.jpg,c_2_028.jpg,between-small,NA,NaN,NA,left,5937.5,1,1,1838.3999999761581
v5WqoFkS,NA,NA,v5WqoFkS,2020-0188,2021-10-02,10:59:21,12:29:05,NA,incomplete,false,NA,true,3,13,NA,NA,left,NA,NA,a_2_023.jpg,c_2_019.jpg,within,NA,NaN,NA,left,4015.100000023842,1,0,985
v5WqoFkS,NA,NA,v5WqoFkS,2020-0188,2021-10-02,10:59:21,12:29:05,NA,incomplete,false,NA,true,3,14,NA,NA,right,NA,NA,i_c_012.jpg,o_s_012.jpg,between-small,NA,NaN,NA,right,6030.599999904633,1,1,2512.399999976158
v5WqoFkS,NA,NA,v5WqoFkS,2020-0188,2021-10-02,10:59:21,12:29:05,NA,incomplete,false,NA,true,3,15,NA,NA,right,NA,NA,c_1_006.jpg,i_c_012.jpg,between-big,NA,NaN,NA,right,3161.600000023842,1,2,2035.7999999523163
v5WqoFkS,NA,NA,v5WqoFkS,2020-0188,2021-10-02,10:59:21,12:29:05,NA,incomplete,false,NA,true,3,16,NA,NA,right,NA,NA,m_s_001.jpg,n_l_012.jpg,within,NA,NaN,NA,left,3883.600000023842,0,0,1313.0999999046326
v5WqoFkS,NA,NA,v5WqoFkS,2020-0188,2021-10-02,10:59:21,12:29:05,NA,incomplete,false,NA,true,3,17,NA,NA,right,NA,NA,n_l_016.jpg,n_l_025.jpg,between-small,NA,NaN,NA,left,8031.600000023842,0,1,1387.1999999284744
v5WqoFkS,NA,NA,v5WqoFkS,2020-0188,2021-10-02,10:59:21,12:29:05,NA,incomplete,false,NA,true,3,18,NA,NA,right,NA,NA,o_s_013.jpg,o_s_027.jpg,within,NA,NaN,NA,left,2890.7000000476837,0,0,1971.3999999761581
v5WqoFkS,NA,NA,v5WqoFkS,2020-0188,2021-10-02,10:59:21,12:29:05,NA,incomplete,false,NA,true,3,19,NA,NA,right,NA,NA,a_1_022.jpg,c_1_013.jpg,within,NA,NaN,NA,right,13637.099999904633,1,1,2085
v5WqoFkS,NA,NA,v5WqoFkS,2020-0188,2021-10-02,10:59:21,12:29:05,NA,incomplete,false,NA,true,3,20,NA,NA,right,NA,NA,n_l_010.jpg,n_l_016.jpg,within,NA,NaN,NA,right,4105.600000023842,1,0,1091.6999999284744
v5WqoFkS,NA,NA,v5WqoFkS,2020-0188,2021-10-02,10:59:21,12:29:05,NA,incomplete,false,NA,true,3,21,NA,NA,left,NA,NA,c_2_027.jpg,a_2_023.jpg,between-small,NA,NaN,NA,right,6663.700000047684,0,1,1945.6999999284744
v5WqoFkS,NA,NA,v5WqoFkS,2020-0188,2021-10-02,10:59:21,12:29:05,NA,incomplete,false,NA,true,3,22,NA,NA,left,NA,NA,a_1_027.jpg,n_l_012.jpg,between-big,NA,NaN,NA,left,8473.199999928474,1,2,1066.1000000238419
v5WqoFkS,NA,NA,v5WqoFkS,2020-0188,2021-10-02,10:59:21,12:29:05,NA,incomplete,false,NA,true,3,23,NA,NA,right,NA,NA,m_l_011.jpg,c_1_021.jpg,between-big,NA,NaN,NA,right,2347.7000000476837,1,2,1197.7999999523163
v5WqoFkS,NA,NA,v5WqoFkS,2020-0188,2021-10-02,10:59:21,12:29:05,NA,incomplete,false,NA,true,3,24,NA,NA,right,NA,NA,m_s_002.jpg,m_s_001.jpg,between-small,NA,NaN,NA,right,4582.799999952316,1,2,1255.7999999523163
v5WqoFkS,NA,NA,v5WqoFkS,2020-0188,2021-10-02,10:59:21,12:29:05,NA,incomplete,false,NA,true,3,25,NA,NA,right,NA,NA,n_s_015.jpg,m_l_011.jpg,within,NA,NaN,NA,left,4319.399999976158,0,0,1181.5
v5WqoFkS,NA,NA,v5WqoFkS,2020-0188,2021-10-02,10:59:21,12:29:05,NA,incomplete,false,NA,true,3,26,NA,NA,right,NA,NA,a_1_027.jpg,c_2_028.jpg,within,NA,NaN,NA,left,3546.600000023842,0,1,1305.2000000476837
v5WqoFkS,NA,NA,v5WqoFkS,2020-0188,2021-10-02,10:59:21,12:29:05,NA,incomplete,false,true,NA,4,0,building,o_s_010.jpg,left,skyscraper,cottage,NA,NA,NA,left,1970.39999997616,true,NA,NA,NA,NA,NA
v5WqoFkS,NA,NA,v5WqoFkS,2020-0188,2021-10-02,10:59:21,12:29:05,NA,incomplete,false,true,NA,4,1,building,i_s_018.jpg,left,skyscraper,cottage,NA,NA,NA,left,1796.60000002384,true,NA,NA,NA,NA,NA
v5WqoFkS,NA,NA,v5WqoFkS,2020-0188,2021-10-02,10:59:21,12:29:05,NA,incomplete,false,true,NA,4,2,building,o_c_004.jpg,left,cottage,skyscraper,NA,NA,NA,left,2245.19999992847,true,NA,NA,NA,NA,NA
v5WqoFkS,NA,NA,v5WqoFkS,2020-0188,2021-10-02,10:59:21,12:29:05,NA,incomplete,false,true,NA,4,3,building,o_s_024.jpg,right,cottage,skyscraper,NA,NA,NA,right,1196.5,true,NA,NA,NA,NA,NA
v5WqoFkS,NA,NA,v5WqoFkS,2020-0188,2021-10-02,10:59:21,12:29:05,NA,incomplete,false,true,NA,4,4,building,o_s_011.jpg,left,skyscraper,cottage,NA,NA,NA,left,1577.10000002384,true,NA,NA,NA,NA,NA
v5WqoFkS,NA,NA,v5WqoFkS,2020-0188,2021-10-02,10:59:21,12:29:05,NA,incomplete,false,true,NA,4,5,location,i_s_010.jpg,left,indoor,outdoor,NA,NA,NA,left,2138,true,NA,NA,NA,NA,NA
v5WqoFkS,NA,NA,v5WqoFkS,2020-0188,2021-10-02,10:59:21,12:29:05,NA,incomplete,false,true,NA,4,6,location,i_s_002.jpg,left,indoor,outdoor,NA,NA,NA,left,1144.79999995232,true,NA,NA,NA,NA,NA
v5WqoFkS,NA,NA,v5WqoFkS,2020-0188,2021-10-02,10:59:21,12:29:05,NA,incomplete,false,true,NA,4,7,location,i_s_017.jpg,left,indoor,outdoor,NA,NA,NA,left,1626.79999995232,true,NA,NA,NA,NA,NA
v5WqoFkS,NA,NA,v5WqoFkS,2020-0188,2021-10-02,10:59:21,12:29:05,NA,incomplete,false,true,NA,4,8,location,o_c_023.jpg,left,outdoor,indoor,NA,NA,NA,left,1970.10000002384,true,NA,NA,NA,NA,NA
v5WqoFkS,NA,NA,v5WqoFkS,2020-0188,2021-10-02,10:59:21,12:29:05,NA,incomplete,false,true,NA,4,9,location,i_c_020.jpg,right,outdoor,indoor,NA,NA,NA,right,1734.89999997616,true,NA,NA,NA,NA,NA
v5WqoFkS,NA,NA,v5WqoFkS,2020-0188,2021-10-02,10:59:21,12:29:05,NA,incomplete,false,true,NA,4,10,origin,m_l_008.jpg,right,natural,manmade,NA,NA,NA,right,3419.10000002384,true,NA,NA,NA,NA,NA
v5WqoFkS,NA,NA,v5WqoFkS,2020-0188,2021-10-02,10:59:21,12:29:05,NA,incomplete,false,true,NA,4,11,origin,m_l_013.jpg,left,manmade,natural,NA,NA,NA,left,1549,true,NA,NA,NA,NA,NA
v5WqoFkS,NA,NA,v5WqoFkS,2020-0188,2021-10-02,10:59:21,12:29:05,NA,incomplete,false,true,NA,4,12,origin,n_s_014.jpg,left,natural,manmade,NA,NA,NA,left,2029.19999992847,true,NA,NA,NA,NA,NA
v5WqoFkS,NA,NA,v5WqoFkS,2020-0188,2021-10-02,10:59:21,12:29:05,NA,incomplete,false,true,NA,4,13,origin,n_l_024.jpg,right,manmade,natural,NA,NA,NA,right,1383,true,NA,NA,NA,NA,NA
v5WqoFkS,NA,NA,v5WqoFkS,2020-0188,2021-10-02,10:59:21,12:29:05,NA,incomplete,false,true,NA,4,14,origin,m_l_004.jpg,right,natural,manmade,NA,NA,NA,right,1879.70000004768,true,NA,NA,NA,NA,NA
v5WqoFkS,NA,NA,v5WqoFkS,2020-0188,2021-10-02,10:59:21,12:29:05,NA,incomplete,false,true,NA,4,15,size,m_s_009.jpg,left,small,large,NA,NA,NA,left,1566.10000002384,true,NA,NA,NA,NA,NA
v5WqoFkS,NA,NA,v5WqoFkS,2020-0188,2021-10-02,10:59:21,12:29:05,NA,incomplete,false,true,NA,4,16,size,n_l_021.jpg,right,small,large,NA,NA,NA,right,1674.89999997616,true,NA,NA,NA,NA,NA
v5WqoFkS,NA,NA,v5WqoFkS,2020-0188,2021-10-02,10:59:21,12:29:05,NA,incomplete,false,true,NA,4,17,size,n_s_003.jpg,left,small,large,NA,NA,NA,left,1512.60000002384,true,NA,NA,NA,NA,NA
v5WqoFkS,NA,NA,v5WqoFkS,2020-0188,2021-10-02,10:59:21,12:29:05,NA,incomplete,false,true,NA,4,18,size,n_s_009.jpg,right,large,small,NA,NA,NA,right,1755.29999995232,true,NA,NA,NA,NA,NA
v5WqoFkS,NA,NA,v5WqoFkS,2020-0188,2021-10-02,10:59:21,12:29:05,NA,incomplete,false,true,NA,4,19,size,m_l_017.jpg,left,large,small,NA,NA,NA,left,1283.09999990463,true,NA,NA,NA,NA,NA
v5WqoFkS,NA,NA,v5WqoFkS,2020-0188,2021-10-02,10:59:21,12:29:05,NA,incomplete,false,true,NA,4,20,abstractness,c_1_004.jpg,right,abstract,concrete,NA,NA,NA,right,2427.5,true,NA,NA,NA,NA,NA
v5WqoFkS,NA,NA,v5WqoFkS,2020-0188,2021-10-02,10:59:21,12:29:05,NA,incomplete,false,true,NA,4,21,abstractness,c_2_023.jpg,left,concrete,abstract,NA,NA,NA,left,1490.60000002384,true,NA,NA,NA,NA,NA
v5WqoFkS,NA,NA,v5WqoFkS,2020-0188,2021-10-02,10:59:21,12:29:05,NA,incomplete,false,true,NA,4,22,abstractness,c_1_017.jpg,left,concrete,abstract,NA,NA,NA,left,2378.60000002384,true,NA,NA,NA,NA,NA
v5WqoFkS,NA,NA,v5WqoFkS,2020-0188,2021-10-02,10:59:21,12:29:05,NA,incomplete,false,true,NA,4,23,abstractness,a_1_004.jpg,left,abstract,concrete,NA,NA,NA,left,1637.29999995232,true,NA,NA,NA,NA,NA
v5WqoFkS,NA,NA,v5WqoFkS,2020-0188,2021-10-02,10:59:21,12:29:05,NA,incomplete,false,true,NA,4,24,abstractness,a_2_007.jpg,right,concrete,abstract,NA,NA,NA,right,2345.10000002384,true,NA,NA,NA,NA,NA
v5WqoFkS,NA,NA,v5WqoFkS,2020-0188,2021-10-02,10:59:21,12:29:05,NA,incomplete,false,true,NA,4,25,syllable,c_2_011.jpg,right,2 syllables,1 syllable,NA,NA,NA,left,1793.60000002384,false,NA,NA,NA,NA,NA
v5WqoFkS,NA,NA,v5WqoFkS,2020-0188,2021-10-02,10:59:21,12:29:05,NA,incomplete,false,true,NA,4,26,syllable,c_2_022.jpg,right,2 syllables,1 syllable,NA,NA,NA,left,2771.39999997616,false,NA,NA,NA,NA,NA
v5WqoFkS,NA,NA,v5WqoFkS,2020-0188,2021-10-02,10:59:21,12:29:05,NA,incomplete,false,true,NA,4,27,syllable,c_2_025.jpg,right,1 syllable,2 syllables,NA,NA,NA,right,1962.29999995232,true,NA,NA,NA,NA,NA
v5WqoFkS,NA,NA,v5WqoFkS,2020-0188,2021-10-02,10:59:21,12:29:05,NA,incomplete,false,true,NA,4,28,syllable,a_2_018.jpg,right,2 syllables,1 syllable,NA,NA,NA,left,1425.80000007153,false,NA,NA,NA,NA,NA
v5WqoFkS,NA,NA,v5WqoFkS,2020-0188,2021-10-02,10:59:21,12:29:05,NA,incomplete,false,true,NA,4,29,syllable,a_1_014.jpg,right,1 syllable,2 syllables,NA,NA,NA,left,1335.89999997616,false,NA,NA,NA,NA,NA
v5WqoFkS,NA,NA,v5WqoFkS,2020-0188,2021-10-02,10:59:21,12:29:05,NA,incomplete,false,NA,true,4,0,NA,NA,right,NA,NA,c_1_004.jpg,n_s_003.jpg,between-big,NA,NaN,NA,right,7181.399999976158,1,2,1197
v5WqoFkS,NA,NA,v5WqoFkS,2020-0188,2021-10-02,10:59:21,12:29:05,NA,incomplete,false,NA,true,4,1,NA,NA,right,NA,NA,i_s_017.jpg,o_s_011.jpg,between-small,NA,NaN,NA,left,5206.599999904633,0,0,1976.8999999761581
v5WqoFkS,NA,NA,v5WqoFkS,2020-0188,2021-10-02,10:59:21,12:29:05,NA,incomplete,false,NA,true,4,2,NA,NA,right,NA,NA,c_1_017.jpg,m_l_017.jpg,between-big,NA,NaN,NA,right,2906.6999999284744,1,1,2314.8000000715256
v5WqoFkS,NA,NA,v5WqoFkS,2020-0188,2021-10-02,10:59:21,12:29:05,NA,incomplete,false,NA,true,4,3,NA,NA,right,NA,NA,a_2_007.jpg,c_2_023.jpg,within,NA,NaN,NA,right,13036.299999952316,1,0,2462.6999999284744
v5WqoFkS,NA,NA,v5WqoFkS,2020-0188,2021-10-02,10:59:21,12:29:05,NA,incomplete,false,NA,true,4,4,NA,NA,left,NA,NA,o_s_024.jpg,i_s_002.jpg,between-small,NA,NaN,NA,left,2843.2000000476837,1,1,1083.1999999284744
v5WqoFkS,NA,NA,v5WqoFkS,2020-0188,2021-10-02,10:59:21,12:29:05,NA,incomplete,false,NA,true,4,5,NA,NA,left,NA,NA,m_l_004.jpg,n_s_003.jpg,between-small,NA,NaN,NA,left,4695,1,1,1699.2999999523163
v5WqoFkS,NA,NA,v5WqoFkS,2020-0188,2021-10-02,10:59:21,12:29:05,NA,incomplete,false,NA,true,4,6,NA,NA,left,NA,NA,n_l_021.jpg,m_l_017.jpg,within,NA,NaN,NA,left,10685.299999952316,1,0,1198.1000000238419
v5WqoFkS,NA,NA,v5WqoFkS,2020-0188,2021-10-02,10:59:21,12:29:05,NA,incomplete,false,NA,true,4,7,NA,NA,left,NA,NA,n_s_009.jpg,c_2_023.jpg,between-big,NA,NaN,NA,right,15039.700000047684,0,1,2323.7000000476837
v5WqoFkS,NA,NA,v5WqoFkS,2020-0188,2021-10-02,10:59:21,12:29:05,NA,incomplete,false,NA,true,4,8,NA,NA,right,NA,NA,o_s_024.jpg,o_s_010.jpg,within,NA,NaN,NA,right,1872.5,1,0,1181
v5WqoFkS,NA,NA,v5WqoFkS,2020-0188,2021-10-02,10:59:21,12:29:05,NA,incomplete,false,NA,true,4,9,NA,NA,left,NA,NA,c_2_011.jpg,a_2_018.jpg,within,NA,NaN,NA,left,4491.800000071526,1,0,1756.7000000476837
v5WqoFkS,NA,NA,v5WqoFkS,2020-0188,2021-10-02,10:59:21,12:29:05,NA,incomplete,false,NA,true,4,10,NA,NA,right,NA,NA,m_l_013.jpg,o_c_023.jpg,between-big,NA,NaN,NA,right,2265.2999999523163,1,3,845.3999999761581
v5WqoFkS,NA,NA,v5WqoFkS,2020-0188,2021-10-02,10:59:21,12:29:05,NA,incomplete,false,NA,true,4,11,NA,NA,right,NA,NA,a_1_014.jpg,c_2_022.jpg,within,NA,NaN,NA,right,7178.299999952316,1,1,1215
v5WqoFkS,NA,NA,v5WqoFkS,2020-0188,2021-10-02,10:59:21,12:29:05,NA,incomplete,false,NA,true,4,12,NA,NA,left,NA,NA,n_l_024.jpg,n_l_021.jpg,between-small,NA,NaN,NA,left,5833.699999928474,1,1,1206.5
v5WqoFkS,NA,NA,v5WqoFkS,2020-0188,2021-10-02,10:59:21,12:29:05,NA,incomplete,false,NA,true,4,13,NA,NA,right,NA,NA,i_s_010.jpg,o_c_004.jpg,between-small,NA,NaN,NA,right,2282.899999976158,1,2,3727.5
v5WqoFkS,NA,NA,v5WqoFkS,2020-0188,2021-10-02,10:59:21,12:29:05,NA,incomplete,false,NA,true,4,14,NA,NA,left,NA,NA,n_s_014.jpg,m_s_009.jpg,between-small,NA,NaN,NA,left,2192.5,1,2,1797.5
v5WqoFkS,NA,NA,v5WqoFkS,2020-0188,2021-10-02,10:59:21,12:29:05,NA,incomplete,false,NA,true,4,15,NA,NA,right,NA,NA,o_c_023.jpg,i_s_010.jpg,within,NA,NaN,NA,left,5851.600000023842,0,0,1616.5999999046326
v5WqoFkS,NA,NA,v5WqoFkS,2020-0188,2021-10-02,10:59:21,12:29:05,NA,incomplete,false,NA,true,4,16,NA,NA,right,NA,NA,n_s_009.jpg,m_s_009.jpg,within,NA,NaN,NA,right,2142.7999999523163,1,1,1559.3999999761581
v5WqoFkS,NA,NA,v5WqoFkS,2020-0188,2021-10-02,10:59:21,12:29:05,NA,incomplete,false,NA,true,4,17,NA,NA,left,NA,NA,a_2_007.jpg,c_2_025.jpg,between-small,NA,NaN,NA,right,5540,0,0,1682.8000000715256
v5WqoFkS,NA,NA,v5WqoFkS,2020-0188,2021-10-02,10:59:21,12:29:05,NA,incomplete,false,NA,true,4,18,NA,NA,right,NA,NA,c_2_011.jpg,c_1_017.jpg,between-small,NA,NaN,NA,right,13034.399999976158,1,1,1732.1999999284744
v5WqoFkS,NA,NA,v5WqoFkS,2020-0188,2021-10-02,10:59:21,12:29:05,NA,incomplete,false,NA,true,4,19,NA,NA,left,NA,NA,i_s_017.jpg,m_l_008.jpg,between-big,NA,NaN,NA,left,2810.9000000953674,1,2,918.6000000238419
v5WqoFkS,NA,NA,v5WqoFkS,2020-0188,2021-10-02,10:59:21,12:29:05,NA,incomplete,false,NA,true,4,20,NA,NA,right,NA,NA,i_c_020.jpg,i_s_002.jpg,within,NA,NaN,NA,right,3153.100000023842,1,0,1452.6000000238419
v5WqoFkS,NA,NA,v5WqoFkS,2020-0188,2021-10-02,10:59:21,12:29:05,NA,incomplete,false,NA,true,4,21,NA,NA,left,NA,NA,m_l_013.jpg,m_l_004.jpg,within,NA,NaN,NA,right,3218.100000023842,0,0,2076.899999976158
v5WqoFkS,NA,NA,v5WqoFkS,2020-0188,2021-10-02,10:59:21,12:29:05,NA,incomplete,false,NA,true,4,22,NA,NA,right,NA,NA,n_s_014.jpg,i_c_020.jpg,between-big,NA,NaN,NA,right,1625.6000000238419,1,2,862.3000000715256
v5WqoFkS,NA,NA,v5WqoFkS,2020-0188,2021-10-02,10:59:21,12:29:05,NA,incomplete,false,NA,true,4,23,NA,NA,left,NA,NA,i_s_018.jpg,o_s_011.jpg,within,NA,NaN,NA,left,2323.6999999284744,1,0,1091
v5WqoFkS,NA,NA,v5WqoFkS,2020-0188,2021-10-02,10:59:21,12:29:05,NA,incomplete,false,NA,true,4,24,NA,NA,right,NA,NA,c_2_022.jpg,a_1_004.jpg,between-small,NA,NaN,NA,right,13113,1,0,738.6999999284744
v5WqoFkS,NA,NA,v5WqoFkS,2020-0188,2021-10-02,10:59:21,12:29:05,NA,incomplete,false,NA,true,4,25,NA,NA,right,NA,NA,a_1_004.jpg,c_1_004.jpg,within,NA,NaN,NA,right,9892.100000023842,1,1,1124
v5WqoFkS,NA,NA,v5WqoFkS,2020-0188,2021-10-02,10:59:21,12:29:05,NA,incomplete,false,NA,true,4,26,NA,NA,right,NA,NA,n_l_024.jpg,m_l_008.jpg,within,NA,NaN,NA,left,1338,0,1,1608.7999999523163
v5WqoFkS,NA,NA,v5WqoFkS,2020-0188,2021-10-02,10:59:21,12:29:05,NA,incomplete,false,true,NA,5,0,syllable,a_1_003.jpg,right,1 syllable,2 syllables,NA,NA,NA,left,2464,false,NA,NA,NA,NA,NA
v5WqoFkS,NA,NA,v5WqoFkS,2020-0188,2021-10-02,10:59:21,12:29:05,NA,incomplete,false,true,NA,5,1,syllable,a_1_010.jpg,right,2 syllables,1 syllable,NA,NA,NA,right,1818.09999990463,true,NA,NA,NA,NA,NA
v5WqoFkS,NA,NA,v5WqoFkS,2020-0188,2021-10-02,10:59:21,12:29:05,NA,incomplete,false,true,NA,5,2,syllable,a_1_026.jpg,right,1 syllable,2 syllables,NA,NA,NA,left,2066.89999997616,false,NA,NA,NA,NA,NA
v5WqoFkS,NA,NA,v5WqoFkS,2020-0188,2021-10-02,10:59:21,12:29:05,NA,incomplete,false,true,NA,5,3,syllable,a_2_017.jpg,right,1 syllable,2 syllables,NA,NA,NA,right,1166.5,true,NA,NA,NA,NA,NA
v5WqoFkS,NA,NA,v5WqoFkS,2020-0188,2021-10-02,10:59:21,12:29:05,NA,incomplete,false,true,NA,5,4,syllable,c_1_022.jpg,right,2 syllables,1 syllable,NA,NA,NA,right,1811.20000004768,true,NA,NA,NA,NA,NA
v5WqoFkS,NA,NA,v5WqoFkS,2020-0188,2021-10-02,10:59:21,12:29:05,NA,incomplete,false,true,NA,5,5,abstractness,a_2_019.jpg,right,concrete,abstract,NA,NA,NA,none,0,false,NA,NA,NA,NA,NA
v5WqoFkS,NA,NA,v5WqoFkS,2020-0188,2021-10-02,10:59:21,12:29:05,NA,incomplete,false,true,NA,5,6,abstractness,a_2_008.jpg,left,abstract,concrete,NA,NA,NA,left,1344.60000002384,true,NA,NA,NA,NA,NA
v5WqoFkS,NA,NA,v5WqoFkS,2020-0188,2021-10-02,10:59:21,12:29:05,NA,incomplete,false,true,NA,5,7,abstractness,c_2_021.jpg,left,concrete,abstract,NA,NA,NA,left,2341.10000002384,true,NA,NA,NA,NA,NA
v5WqoFkS,NA,NA,v5WqoFkS,2020-0188,2021-10-02,10:59:21,12:29:05,NA,incomplete,false,true,NA,5,8,abstractness,c_2_005.jpg,left,concrete,abstract,NA,NA,NA,left,1275.5,true,NA,NA,NA,NA,NA
v5WqoFkS,NA,NA,v5WqoFkS,2020-0188,2021-10-02,10:59:21,12:29:05,NA,incomplete,false,true,NA,5,9,abstractness,a_2_003.jpg,right,concrete,abstract,NA,NA,NA,right,2106.79999995232,true,NA,NA,NA,NA,NA
v5WqoFkS,NA,NA,v5WqoFkS,2020-0188,2021-10-02,10:59:21,12:29:05,NA,incomplete,false,true,NA,5,10,origin,m_l_015.jpg,right,natural,manmade,NA,NA,NA,right,1824.89999997616,true,NA,NA,NA,NA,NA
v5WqoFkS,NA,NA,v5WqoFkS,2020-0188,2021-10-02,10:59:21,12:29:05,NA,incomplete,false,true,NA,5,11,origin,n_l_009.jpg,left,natural,manmade,NA,NA,NA,left,1618.20000004768,true,NA,NA,NA,NA,NA
v5WqoFkS,NA,NA,v5WqoFkS,2020-0188,2021-10-02,10:59:21,12:29:05,NA,incomplete,false,true,NA,5,12,origin,n_s_002.jpg,right,manmade,natural,NA,NA,NA,right,1962.70000004768,true,NA,NA,NA,NA,NA
v5WqoFkS,NA,NA,v5WqoFkS,2020-0188,2021-10-02,10:59:21,12:29:05,NA,incomplete,false,true,NA,5,13,origin,n_l_020.jpg,right,manmade,natural,NA,NA,NA,right,2120.20000004768,true,NA,NA,NA,NA,NA
v5WqoFkS,NA,NA,v5WqoFkS,2020-0188,2021-10-02,10:59:21,12:29:05,NA,incomplete,false,true,NA,5,14,origin,m_l_019.jpg,right,natural,manmade,NA,NA,NA,right,1970.79999995232,true,NA,NA,NA,NA,NA
v5WqoFkS,NA,NA,v5WqoFkS,2020-0188,2021-10-02,10:59:21,12:29:05,NA,incomplete,false,true,NA,5,15,size,n_l_013.jpg,left,large,small,NA,NA,NA,left,1440.89999997616,true,NA,NA,NA,NA,NA
v5WqoFkS,NA,NA,v5WqoFkS,2020-0188,2021-10-02,10:59:21,12:29:05,NA,incomplete,false,true,NA,5,16,size,m_l_014.jpg,right,small,large,NA,NA,NA,left,2409.10000002384,false,NA,NA,NA,NA,NA
v5WqoFkS,NA,NA,v5WqoFkS,2020-0188,2021-10-02,10:59:21,12:29:05,NA,incomplete,false,true,NA,5,17,size,n_s_001.jpg,left,small,large,NA,NA,NA,left,1656.30000007153,true,NA,NA,NA,NA,NA
v5WqoFkS,NA,NA,v5WqoFkS,2020-0188,2021-10-02,10:59:21,12:29:05,NA,incomplete,false,true,NA,5,18,size,m_s_013.jpg,right,large,small,NA,NA,NA,right,1210.79999995232,true,NA,NA,NA,NA,NA
v5WqoFkS,NA,NA,v5WqoFkS,2020-0188,2021-10-02,10:59:21,12:29:05,NA,incomplete,false,true,NA,5,19,size,n_s_012.jpg,left,small,large,NA,NA,NA,left,1465.70000004768,true,NA,NA,NA,NA,NA
v5WqoFkS,NA,NA,v5WqoFkS,2020-0188,2021-10-02,10:59:21,12:29:05,NA,incomplete,false,true,NA,5,20,location,o_s_017.jpg,right,indoor,outdoor,NA,NA,NA,right,1891.60000002384,true,NA,NA,NA,NA,NA
v5WqoFkS,NA,NA,v5WqoFkS,2020-0188,2021-10-02,10:59:21,12:29:05,NA,incomplete,false,true,NA,5,21,location,i_c_025.jpg,left,indoor,outdoor,NA,NA,NA,left,1027.79999995232,true,NA,NA,NA,NA,NA
v5WqoFkS,NA,NA,v5WqoFkS,2020-0188,2021-10-02,10:59:21,12:29:05,NA,incomplete,false,true,NA,5,22,location,o_c_020.jpg,left,outdoor,indoor,NA,NA,NA,left,2019.20000004768,true,NA,NA,NA,NA,NA
v5WqoFkS,NA,NA,v5WqoFkS,2020-0188,2021-10-02,10:59:21,12:29:05,NA,incomplete,false,true,NA,5,23,location,o_s_009.jpg,right,indoor,outdoor,NA,NA,NA,right,1264.30000007153,true,NA,NA,NA,NA,NA
v5WqoFkS,NA,NA,v5WqoFkS,2020-0188,2021-10-02,10:59:21,12:29:05,NA,incomplete,false,true,NA,5,24,location,o_s_025.jpg,left,outdoor,indoor,NA,NA,NA,left,1251.79999995232,true,NA,NA,NA,NA,NA
v5WqoFkS,NA,NA,v5WqoFkS,2020-0188,2021-10-02,10:59:21,12:29:05,NA,incomplete,false,true,NA,5,25,building,i_s_008.jpg,left,skyscraper,cottage,NA,NA,NA,left,1977.30000007153,true,NA,NA,NA,NA,NA
v5WqoFkS,NA,NA,v5WqoFkS,2020-0188,2021-10-02,10:59:21,12:29:05,NA,incomplete,false,true,NA,5,26,building,i_c_027.jpg,right,skyscraper,cottage,NA,NA,NA,right,2405.70000004768,true,NA,NA,NA,NA,NA
v5WqoFkS,NA,NA,v5WqoFkS,2020-0188,2021-10-02,10:59:21,12:29:05,NA,incomplete,false,true,NA,5,27,building,i_s_015.jpg,left,skyscraper,cottage,NA,NA,NA,left,1433.5,true,NA,NA,NA,NA,NA
v5WqoFkS,NA,NA,v5WqoFkS,2020-0188,2021-10-02,10:59:21,12:29:05,NA,incomplete,false,true,NA,5,28,building,o_s_026.jpg,right,cottage,skyscraper,NA,NA,NA,right,1568,true,NA,NA,NA,NA,NA
v5WqoFkS,NA,NA,v5WqoFkS,2020-0188,2021-10-02,10:59:21,12:29:05,NA,incomplete,false,true,NA,5,29,building,o_c_012.jpg,right,skyscraper,cottage,NA,NA,NA,right,1167.39999997616,true,NA,NA,NA,NA,NA
v5WqoFkS,NA,NA,v5WqoFkS,2020-0188,2021-10-02,10:59:21,12:29:05,NA,incomplete,false,NA,true,5,0,NA,NA,left,NA,NA,i_c_025.jpg,o_s_025.jpg,within,NA,NaN,NA,left,4373.200000047684,1,1,2108.8000000715256
v5WqoFkS,NA,NA,v5WqoFkS,2020-0188,2021-10-02,10:59:21,12:29:05,NA,incomplete,false,NA,true,5,1,NA,NA,right,NA,NA,n_l_009.jpg,c_2_005.jpg,between-big,NA,NaN,NA,left,4869.200000047684,0,2,1337.2999999523163
v5WqoFkS,NA,NA,v5WqoFkS,2020-0188,2021-10-02,10:59:21,12:29:05,NA,incomplete,false,NA,true,5,2,NA,NA,right,NA,NA,i_s_015.jpg,o_s_025.jpg,between-small,NA,NaN,NA,left,5074.700000047684,0,0,1511.8999999761581
v5WqoFkS,NA,NA,v5WqoFkS,2020-0188,2021-10-02,10:59:21,12:29:05,NA,incomplete,false,NA,true,5,3,NA,NA,right,NA,NA,o_s_017.jpg,n_s_001.jpg,between-big,NA,NaN,NA,right,4362.699999928474,1,2,3341.600000023842
v5WqoFkS,NA,NA,v5WqoFkS,2020-0188,2021-10-02,10:59:21,12:29:05,NA,incomplete,false,NA,true,5,4,NA,NA,right,NA,NA,a_2_008.jpg,a_2_017.jpg,between-small,NA,NaN,NA,left,4762.900000095367,0,0,1369.8000000715256
v5WqoFkS,NA,NA,v5WqoFkS,2020-0188,2021-10-02,10:59:21,12:29:05,NA,incomplete,false,NA,true,5,5,NA,NA,right,NA,NA,n_l_020.jpg,m_l_015.jpg,within,NA,NaN,NA,right,1355,1,1,2249.600000023842
v5WqoFkS,NA,NA,v5WqoFkS,2020-0188,2021-10-02,10:59:21,12:29:05,NA,incomplete,false,NA,true,5,6,NA,NA,right,NA,NA,i_c_027.jpg,o_s_009.jpg,between-small,NA,NaN,NA,left,4911.300000071526,0,0,1739.8000000715256
v5WqoFkS,NA,NA,v5WqoFkS,2020-0188,2021-10-02,10:59:21,12:29:05,NA,incomplete,false,NA,true,5,7,NA,NA,right,NA,NA,c_2_005.jpg,a_2_019.jpg,within,NA,NaN,NA,left,7457.700000047684,0,0,3309.7999999523163
v5WqoFkS,NA,NA,v5WqoFkS,2020-0188,2021-10-02,10:59:21,12:29:05,NA,incomplete,false,NA,true,5,8,NA,NA,right,NA,NA,a_2_003.jpg,a_2_008.jpg,within,NA,NaN,NA,right,5896.800000071526,1,0,1149.8000000715256
v5WqoFkS,NA,NA,v5WqoFkS,2020-0188,2021-10-02,10:59:21,12:29:05,NA,incomplete,false,NA,true,5,9,NA,NA,right,NA,NA,m_s_013.jpg,n_l_013.jpg,within,NA,NaN,NA,left,7406.799999952316,0,1,1978.7999999523163
v5WqoFkS,NA,NA,v5WqoFkS,2020-0188,2021-10-02,10:59:21,12:29:05,NA,incomplete,false,NA,true,5,10,NA,NA,left,NA,NA,m_l_019.jpg,n_s_001.jpg,between-small,NA,NaN,NA,right,5830.600000023842,0,1,1256.5
v5WqoFkS,NA,NA,v5WqoFkS,2020-0188,2021-10-02,10:59:21,12:29:05,NA,incomplete,false,NA,true,5,11,NA,NA,left,NA,NA,n_l_020.jpg,m_l_014.jpg,between-small,NA,NaN,NA,right,2176.100000023842,0,0,1732.6999999284744
v5WqoFkS,NA,NA,v5WqoFkS,2020-0188,2021-10-02,10:59:21,12:29:05,NA,incomplete,false,NA,true,5,12,NA,NA,left,NA,NA,a_2_003.jpg,n_s_002.jpg,between-big,NA,NaN,NA,right,1622.2000000476837,0,2,2044.6000000238419
v5WqoFkS,NA,NA,v5WqoFkS,2020-0188,2021-10-02,10:59:21,12:29:05,NA,incomplete,false,NA,true,5,13,NA,NA,right,NA,NA,n_l_013.jpg,n_s_002.jpg,between-small,NA,NaN,NA,left,2086.2000000476837,0,0,2751
v5WqoFkS,NA,NA,v5WqoFkS,2020-0188,2021-10-02,10:59:21,12:29:05,NA,incomplete,false,NA,true,5,14,NA,NA,left,NA,NA,a_1_010.jpg,c_1_022.jpg,within,NA,NaN,NA,right,3702.7999999523163,0,0,1634.6000000238419
v5WqoFkS,NA,NA,v5WqoFkS,2020-0188,2021-10-02,10:59:21,12:29:05,NA,incomplete,false,NA,true,5,15,NA,NA,left,NA,NA,n_s_012.jpg,o_c_020.jpg,between-big,NA,NaN,NA,right,2003.7999999523163,0,2,1339.7999999523163
v5WqoFkS,NA,NA,v5WqoFkS,2020-0188,2021-10-02,10:59:21,12:29:05,NA,incomplete,false,NA,true,5,16,NA,NA,right,NA,NA,m_l_019.jpg,n_l_009.jpg,within,NA,NaN,NA,left,5297.899999976158,0,0,1453
v5WqoFkS,NA,NA,v5WqoFkS,2020-0188,2021-10-02,10:59:21,12:29:05,NA,incomplete,false,NA,true,5,17,NA,NA,left,NA,NA,o_c_020.jpg,i_s_008.jpg,between-small,NA,NaN,NA,right,3925.5,0,1,1887.8999999761581
v5WqoFkS,NA,NA,v5WqoFkS,2020-0188,2021-10-02,10:59:21,12:29:05,NA,incomplete,false,NA,true,5,18,NA,NA,right,NA,NA,n_s_012.jpg,m_l_014.jpg,within,NA,NaN,NA,right,3704,1,1,1732
v5WqoFkS,NA,NA,v5WqoFkS,2020-0188,2021-10-02,10:59:21,12:29:05,NA,incomplete,false,NA,true,5,19,NA,NA,right,NA,NA,c_2_021.jpg,c_1_022.jpg,between-small,NA,NaN,NA,left,2898.7999999523163,0,0,1732.7999999523163
v5WqoFkS,NA,NA,v5WqoFkS,2020-0188,2021-10-02,10:59:21,12:29:05,NA,incomplete,false,NA,true,5,20,NA,NA,left,NA,NA,i_s_008.jpg,o_s_026.jpg,within,NA,NaN,NA,left,6422.399999976158,1,0,1164.8999999761581
v5WqoFkS,NA,NA,v5WqoFkS,2020-0188,2021-10-02,10:59:21,12:29:05,NA,incomplete,false,NA,true,5,21,NA,NA,left,NA,NA,c_2_021.jpg,m_l_015.jpg,between-big,NA,NaN,NA,right,1511.2000000476837,0,2,1395.8999999761581
v5WqoFkS,NA,NA,v5WqoFkS,2020-0188,2021-10-02,10:59:21,12:29:05,NA,incomplete,false,NA,true,5,22,NA,NA,left,NA,NA,o_s_017.jpg,o_s_009.jpg,within,NA,NaN,NA,left,4254.5,1,0,1519.1999999284744
v5WqoFkS,NA,NA,v5WqoFkS,2020-0188,2021-10-02,10:59:21,12:29:05,NA,incomplete,false,NA,true,5,23,NA,NA,left,NA,NA,i_c_027.jpg,o_c_012.jpg,within,NA,NaN,NA,left,5315.600000023842,1,0,1235.1999999284744
v5WqoFkS,NA,NA,v5WqoFkS,2020-0188,2021-10-02,10:59:21,12:29:05,NA,incomplete,false,NA,true,5,24,NA,NA,right,NA,NA,i_c_025.jpg,m_s_013.jpg,between-big,NA,NaN,NA,left,4019.7999999523163,0,2,1189.8999999761581
v5WqoFkS,NA,NA,v5WqoFkS,2020-0188,2021-10-02,10:59:21,12:29:05,NA,incomplete,false,NA,true,5,25,NA,NA,right,NA,NA,a_2_019.jpg,a_1_026.jpg,between-small,NA,NaN,NA,left,3428.3000000715256,0,0,2553.600000023842
v5WqoFkS,NA,NA,v5WqoFkS,2020-0188,2021-10-02,10:59:21,12:29:05,NA,incomplete,false,NA,true,5,26,NA,NA,left,NA,NA,a_1_003.jpg,a_2_017.jpg,within,NA,NaN,NA,left,10459,1,0,1273.3000000715256
v5WqoFkS,NA,NA,v5WqoFkS,2020-0188,2021-10-02,10:59:21,12:29:05,NA,incomplete,false,true,NA,6,0,size,m_s_026.jpg,right,large,small,NA,NA,NA,right,2141.89999997616,true,NA,NA,NA,NA,NA
v5WqoFkS,NA,NA,v5WqoFkS,2020-0188,2021-10-02,10:59:21,12:29:05,NA,incomplete,false,true,NA,6,1,size,n_s_023.jpg,right,large,small,NA,NA,NA,right,2224.89999997616,true,NA,NA,NA,NA,NA
v5WqoFkS,NA,NA,v5WqoFkS,2020-0188,2021-10-02,10:59:21,12:29:05,NA,incomplete,false,true,NA,6,2,size,m_s_012.jpg,right,large,small,NA,NA,NA,right,3321,true,NA,NA,NA,NA,NA
v5WqoFkS,NA,NA,v5WqoFkS,2020-0188,2021-10-02,10:59:21,12:29:05,NA,incomplete,false,true,NA,6,3,size,m_s_019.jpg,left,small,large,NA,NA,NA,left,1656.10000002384,true,NA,NA,NA,NA,NA
v5WqoFkS,NA,NA,v5WqoFkS,2020-0188,2021-10-02,10:59:21,12:29:05,NA,incomplete,false,true,NA,6,4,size,m_s_022.jpg,left,small,large,NA,NA,NA,left,1772.79999995232,true,NA,NA,NA,NA,NA
v5WqoFkS,NA,NA,v5WqoFkS,2020-0188,2021-10-02,10:59:21,12:29:05,NA,incomplete,false,true,NA,6,5,origin,m_l_009.jpg,right,natural,manmade,NA,NA,NA,right,2150.09999990463,true,NA,NA,NA,NA,NA
v5WqoFkS,NA,NA,v5WqoFkS,2020-0188,2021-10-02,10:59:21,12:29:05,NA,incomplete,false,true,NA,6,6,origin,n_s_017.jpg,right,manmade,natural,NA,NA,NA,right,1915.60000002384,true,NA,NA,NA,NA,NA
v5WqoFkS,NA,NA,v5WqoFkS,2020-0188,2021-10-02,10:59:21,12:29:05,NA,incomplete,false,true,NA,6,7,origin,n_s_006.jpg,right,manmade,natural,NA,NA,NA,right,1812.79999995232,true,NA,NA,NA,NA,NA
v5WqoFkS,NA,NA,v5WqoFkS,2020-0188,2021-10-02,10:59:21,12:29:05,NA,incomplete,false,true,NA,6,8,origin,n_l_011.jpg,right,manmade,natural,NA,NA,NA,right,2715.5,true,NA,NA,NA,NA,NA
v5WqoFkS,NA,NA,v5WqoFkS,2020-0188,2021-10-02,10:59:21,12:29:05,NA,incomplete,false,true,NA,6,9,origin,m_s_024.jpg,right,natural,manmade,NA,NA,NA,right,1681.10000002384,true,NA,NA,NA,NA,NA
v5WqoFkS,NA,NA,v5WqoFkS,2020-0188,2021-10-02,10:59:21,12:29:05,NA,incomplete,false,true,NA,6,10,abstractness,a_2_005.jpg,right,concrete,abstract,NA,NA,NA,right,3078.79999995232,true,NA,NA,NA,NA,NA
v5WqoFkS,NA,NA,v5WqoFkS,2020-0188,2021-10-02,10:59:21,12:29:05,NA,incomplete,false,true,NA,6,11,abstractness,c_1_028.jpg,right,abstract,concrete,NA,NA,NA,right,2409.19999992847,true,NA,NA,NA,NA,NA
v5WqoFkS,NA,NA,v5WqoFkS,2020-0188,2021-10-02,10:59:21,12:29:05,NA,incomplete,false,true,NA,6,12,abstractness,c_2_006.jpg,right,abstract,concrete,NA,NA,NA,right,1972.19999992847,true,NA,NA,NA,NA,NA
v5WqoFkS,NA,NA,v5WqoFkS,2020-0188,2021-10-02,10:59:21,12:29:05,NA,incomplete,false,true,NA,6,13,abstractness,c_1_008.jpg,left,concrete,abstract,NA,NA,NA,left,2416.59999990463,true,NA,NA,NA,NA,NA
v5WqoFkS,NA,NA,v5WqoFkS,2020-0188,2021-10-02,10:59:21,12:29:05,NA,incomplete,false,true,NA,6,14,abstractness,c_1_016.jpg,left,concrete,abstract,NA,NA,NA,left,1613.79999995232,true,NA,NA,NA,NA,NA
v5WqoFkS,NA,NA,v5WqoFkS,2020-0188,2021-10-02,10:59:21,12:29:05,NA,incomplete,false,true,NA,6,15,syllable,c_1_010.jpg,right,2 syllables,1 syllable,NA,NA,NA,right,1773.10000002384,true,NA,NA,NA,NA,NA
v5WqoFkS,NA,NA,v5WqoFkS,2020-0188,2021-10-02,10:59:21,12:29:05,NA,incomplete,false,true,NA,6,16,syllable,a_1_021.jpg,right,2 syllables,1 syllable,NA,NA,NA,right,1709.70000004768,true,NA,NA,NA,NA,NA
v5WqoFkS,NA,NA,v5WqoFkS,2020-0188,2021-10-02,10:59:21,12:29:05,NA,incomplete,false,true,NA,6,17,syllable,c_2_008.jpg,right,2 syllables,1 syllable,NA,NA,NA,left,2028.39999997616,false,NA,NA,NA,NA,NA
v5WqoFkS,NA,NA,v5WqoFkS,2020-0188,2021-10-02,10:59:21,12:29:05,NA,incomplete,false,true,NA,6,18,syllable,a_2_012.jpg,right,2 syllables,1 syllable,NA,NA,NA,left,1966.80000007153,false,NA,NA,NA,NA,NA
v5WqoFkS,NA,NA,v5WqoFkS,2020-0188,2021-10-02,10:59:21,12:29:05,NA,incomplete,false,true,NA,6,19,syllable,c_1_005.jpg,right,1 syllable,2 syllables,NA,NA,NA,left,1999,false,NA,NA,NA,NA,NA
v5WqoFkS,NA,NA,v5WqoFkS,2020-0188,2021-10-02,10:59:21,12:29:05,NA,incomplete,false,true,NA,6,20,location,i_s_019.jpg,left,indoor,outdoor,NA,NA,NA,left,2964,true,NA,NA,NA,NA,NA
v5WqoFkS,NA,NA,v5WqoFkS,2020-0188,2021-10-02,10:59:21,12:29:05,NA,incomplete,false,true,NA,6,21,location,i_s_024.jpg,right,outdoor,indoor,NA,NA,NA,right,2423.60000002384,true,NA,NA,NA,NA,NA
v5WqoFkS,NA,NA,v5WqoFkS,2020-0188,2021-10-02,10:59:21,12:29:05,NA,incomplete,false,true,NA,6,22,location,i_s_004.jpg,left,indoor,outdoor,NA,NA,NA,left,1670.39999997616,true,NA,NA,NA,NA,NA
v5WqoFkS,NA,NA,v5WqoFkS,2020-0188,2021-10-02,10:59:21,12:29:05,NA,incomplete,false,true,NA,6,23,location,o_c_008.jpg,right,indoor,outdoor,NA,NA,NA,right,1858.29999995232,true,NA,NA,NA,NA,NA
v5WqoFkS,NA,NA,v5WqoFkS,2020-0188,2021-10-02,10:59:21,12:29:05,NA,incomplete,false,true,NA,6,24,location,i_c_017.jpg,right,outdoor,indoor,NA,NA,NA,right,1861.60000002384,true,NA,NA,NA,NA,NA
v5WqoFkS,NA,NA,v5WqoFkS,2020-0188,2021-10-02,10:59:21,12:29:05,NA,incomplete,false,true,NA,6,25,building,i_c_021.jpg,left,cottage,skyscraper,NA,NA,NA,left,1974.60000002384,true,NA,NA,NA,NA,NA
v5WqoFkS,NA,NA,v5WqoFkS,2020-0188,2021-10-02,10:59:21,12:29:05,NA,incomplete,false,true,NA,6,26,building,o_c_007.jpg,right,skyscraper,cottage,NA,NA,NA,right,1332.89999997616,true,NA,NA,NA,NA,NA
v5WqoFkS,NA,NA,v5WqoFkS,2020-0188,2021-10-02,10:59:21,12:29:05,NA,incomplete,false,true,NA,6,27,building,i_s_027.jpg,left,skyscraper,cottage,NA,NA,NA,left,2262.70000004768,true,NA,NA,NA,NA,NA
v5WqoFkS,NA,NA,v5WqoFkS,2020-0188,2021-10-02,10:59:21,12:29:05,NA,incomplete,false,true,NA,6,28,building,o_s_014.jpg,right,cottage,skyscraper,NA,NA,NA,right,1508.5,true,NA,NA,NA,NA,NA
v5WqoFkS,NA,NA,v5WqoFkS,2020-0188,2021-10-02,10:59:21,12:29:05,NA,incomplete,false,true,NA,6,29,building,o_s_020.jpg,left,skyscraper,cottage,NA,NA,NA,left,1787.59999990463,true,NA,NA,NA,NA,NA
v5WqoFkS,NA,NA,v5WqoFkS,2020-0188,2021-10-02,10:59:21,12:29:05,NA,incomplete,false,NA,true,6,0,NA,NA,right,NA,NA,i_s_024.jpg,a_2_012.jpg,between-big,NA,NaN,NA,right,13829.099999904633,1,2,3031.8000000715256
v5WqoFkS,NA,NA,v5WqoFkS,2020-0188,2021-10-02,10:59:21,12:29:05,NA,incomplete,false,NA,true,6,1,NA,NA,right,NA,NA,i_c_021.jpg,i_s_004.jpg,between-small,NA,NaN,NA,left,14447.100000023842,0,1,2908.2999999523163
v5WqoFkS,NA,NA,v5WqoFkS,2020-0188,2021-10-02,10:59:21,12:29:05,NA,incomplete,false,NA,true,6,2,NA,NA,left,NA,NA,c_1_010.jpg,a_2_012.jpg,within,NA,NaN,NA,right,10981,0,1,1470.1000000238419
v5WqoFkS,NA,NA,v5WqoFkS,2020-0188,2021-10-02,10:59:21,12:29:05,NA,incomplete,false,NA,true,6,3,NA,NA,left,NA,NA,n_s_023.jpg,m_s_022.jpg,within,NA,NaN,NA,left,10960.899999976158,1,0,1889.2000000476837
v5WqoFkS,NA,NA,v5WqoFkS,2020-0188,2021-10-02,10:59:21,12:29:05,NA,incomplete,false,NA,true,6,4,NA,NA,right,NA,NA,a_1_021.jpg,c_1_008.jpg,between-small,NA,NaN,NA,left,12915.5,0,1,1872.7000000476837
v5WqoFkS,NA,NA,v5WqoFkS,2020-0188,2021-10-02,10:59:21,12:29:05,NA,incomplete,false,NA,true,6,5,NA,NA,right,NA,NA,o_c_008.jpg,i_s_019.jpg,within,NA,NaN,NA,left,15105,0,1,1584.6999999284744
v5WqoFkS,NA,NA,v5WqoFkS,2020-0188,2021-10-02,10:59:21,12:29:05,NA,incomplete,false,NA,true,6,6,NA,NA,right,NA,NA,c_1_010.jpg,c_2_006.jpg,between-small,NA,NaN,NA,right,9764.300000071526,1,1,870.5
v5WqoFkS,NA,NA,v5WqoFkS,2020-0188,2021-10-02,10:59:21,12:29:05,NA,incomplete,false,NA,true,6,7,NA,NA,left,NA,NA,c_1_016.jpg,c_2_008.jpg,between-small,NA,NaN,NA,left,8790.100000023842,1,1,1108.3000000715256
v5WqoFkS,NA,NA,v5WqoFkS,2020-0188,2021-10-02,10:59:21,12:29:05,NA,incomplete,false,NA,true,6,8,NA,NA,right,NA,NA,c_1_008.jpg,a_2_005.jpg,within,NA,NaN,NA,left,6416.5,0,1,1271.6999999284744
v5WqoFkS,NA,NA,v5WqoFkS,2020-0188,2021-10-02,10:59:21,12:29:05,NA,incomplete,false,NA,true,6,9,NA,NA,right,NA,NA,n_s_006.jpg,m_s_022.jpg,between-small,NA,NaN,NA,left,2826.5,0,2,6152
v5WqoFkS,NA,NA,v5WqoFkS,2020-0188,2021-10-02,10:59:21,12:29:05,NA,incomplete,false,NA,true,6,10,NA,NA,right,NA,NA,o_c_007.jpg,o_c_008.jpg,between-small,NA,NaN,NA,right,3494.7999999523163,1,1,2630.5
v5WqoFkS,NA,NA,v5WqoFkS,2020-0188,2021-10-02,10:59:21,12:29:05,NA,incomplete,false,NA,true,6,11,NA,NA,right,NA,NA,o_s_020.jpg,o_c_007.jpg,within,NA,NaN,NA,right,8654.299999952316,1,1,2003.1000000238419
v5WqoFkS,NA,NA,v5WqoFkS,2020-0188,2021-10-02,10:59:21,12:29:05,NA,incomplete,false,NA,true,6,12,NA,NA,right,NA,NA,n_l_011.jpg,m_l_009.jpg,within,NA,NaN,NA,right,11442.5,1,2,1617
v5WqoFkS,NA,NA,v5WqoFkS,2020-0188,2021-10-02,10:59:21,12:29:05,NA,incomplete,false,NA,true,6,13,NA,NA,right,NA,NA,i_c_017.jpg,i_s_024.jpg,within,NA,NaN,NA,left,7995.300000071526,0,1,2192.600000023842
v5WqoFkS,NA,NA,v5WqoFkS,2020-0188,2021-10-02,10:59:21,12:29:05,NA,incomplete,false,NA,true,6,14,NA,NA,left,NA,NA,c_2_008.jpg,i_s_019.jpg,between-big,NA,NaN,NA,left,4731,1,2,1347
v5WqoFkS,NA,NA,v5WqoFkS,2020-0188,2021-10-02,10:59:21,12:29:05,NA,incomplete,false,NA,true,6,15,NA,NA,left,NA,NA,a_1_021.jpg,c_1_005.jpg,within,NA,NaN,NA,right,6020.800000071526,0,0,2422.2000000476837
v5WqoFkS,NA,NA,v5WqoFkS,2020-0188,2021-10-02,10:59:21,12:29:05,NA,incomplete,false,NA,true,6,16,NA,NA,right,NA,NA,a_2_005.jpg,n_s_006.jpg,between-big,NA,NaN,NA,right,2036.7000000476837,1,2,1083.1000000238419
v5WqoFkS,NA,NA,v5WqoFkS,2020-0188,2021-10-02,10:59:21,12:29:05,NA,incomplete,false,NA,true,6,17,NA,NA,left,NA,NA,c_1_028.jpg,c_1_016.jpg,within,NA,NaN,NA,left,13782.799999952316,1,0,1297.2999999523163
v5WqoFkS,NA,NA,v5WqoFkS,2020-0188,2021-10-02,10:59:21,12:29:05,NA,incomplete,false,NA,true,6,18,NA,NA,right,NA,NA,m_l_009.jpg,m_s_012.jpg,between-small,NA,NaN,NA,right,12164.200000047684,1,2,1763.7000000476837
v5WqoFkS,NA,NA,v5WqoFkS,2020-0188,2021-10-02,10:59:21,12:29:05,NA,incomplete,false,NA,true,6,19,NA,NA,right,NA,NA,m_s_024.jpg,n_s_017.jpg,within,NA,NaN,NA,left,2571,0,2,1913.2999999523163
v5WqoFkS,NA,NA,v5WqoFkS,2020-0188,2021-10-02,10:59:21,12:29:05,NA,incomplete,false,NA,true,6,20,NA,NA,left,NA,NA,c_1_005.jpg,i_s_004.jpg,between-big,NA,NaN,NA,left,2185.100000023842,1,2,1683.5
v5WqoFkS,NA,NA,v5WqoFkS,2020-0188,2021-10-02,10:59:21,12:29:05,NA,incomplete,false,NA,true,6,21,NA,NA,left,NA,NA,n_l_011.jpg,c_1_028.jpg,between-big,NA,NaN,NA,left,17559.700000047684,1,1,960.7000000476837
v5WqoFkS,NA,NA,v5WqoFkS,2020-0188,2021-10-02,10:59:21,12:29:05,NA,incomplete,false,NA,true,6,22,NA,NA,right,NA,NA,n_s_017.jpg,m_s_019.jpg,between-small,NA,NaN,NA,right,1363.7000000476837,1,2,4017
v5WqoFkS,NA,NA,v5WqoFkS,2020-0188,2021-10-02,10:59:21,12:29:05,NA,incomplete,false,NA,true,6,23,NA,NA,right,NA,NA,m_s_019.jpg,m_s_026.jpg,within,NA,NaN,NA,left,8017.299999952316,0,1,3588.899999976158
v5WqoFkS,NA,NA,v5WqoFkS,2020-0188,2021-10-02,10:59:21,12:29:05,NA,incomplete,false,NA,true,6,24,NA,NA,right,NA,NA,i_s_027.jpg,i_c_017.jpg,between-small,NA,NaN,NA,right,3604.600000023842,1,1,2052.7000000476837
v5WqoFkS,NA,NA,v5WqoFkS,2020-0188,2021-10-02,10:59:21,12:29:05,NA,incomplete,false,NA,true,6,25,NA,NA,left,NA,NA,m_s_024.jpg,c_2_006.jpg,between-big,NA,NaN,NA,left,1379.1000000238419,1,1,2077.2000000476837
v5WqoFkS,NA,NA,v5WqoFkS,2020-0188,2021-10-02,10:59:21,12:29:05,NA,incomplete,false,NA,true,6,26,NA,NA,right,NA,NA,o_s_014.jpg,i_c_021.jpg,within,NA,NaN,NA,right,4090.399999976158,1,0,4377.299999952316
v5WqoFkS,NA,NA,v5WqoFkS,2020-0188,2021-10-02,10:59:21,12:29:05,NA,incomplete,false,true,NA,7,0,building,i_c_014.jpg,left,cottage,skyscraper,NA,NA,NA,left,2700.60000002384,true,NA,NA,NA,NA,NA
v5WqoFkS,NA,NA,v5WqoFkS,2020-0188,2021-10-02,10:59:21,12:29:05,NA,incomplete,false,true,NA,7,1,building,i_c_001.jpg,right,skyscraper,cottage,NA,NA,NA,right,1210,true,NA,NA,NA,NA,NA
v5WqoFkS,NA,NA,v5WqoFkS,2020-0188,2021-10-02,10:59:21,12:29:05,NA,incomplete,false,true,NA,7,2,building,i_s_009.jpg,right,cottage,skyscraper,NA,NA,NA,right,1586.30000007153,true,NA,NA,NA,NA,NA
v5WqoFkS,NA,NA,v5WqoFkS,2020-0188,2021-10-02,10:59:21,12:29:05,NA,incomplete,false,true,NA,7,3,building,o_c_018.jpg,left,cottage,skyscraper,NA,NA,NA,left,1929.10000002384,true,NA,NA,NA,NA,NA
v5WqoFkS,NA,NA,v5WqoFkS,2020-0188,2021-10-02,10:59:21,12:29:05,NA,incomplete,false,true,NA,7,4,building,o_s_018.jpg,right,cottage,skyscraper,NA,NA,NA,right,884,true,NA,NA,NA,NA,NA
v5WqoFkS,NA,NA,v5WqoFkS,2020-0188,2021-10-02,10:59:21,12:29:05,NA,incomplete,false,true,NA,7,5,location,o_s_001.jpg,right,indoor,outdoor,NA,NA,NA,right,2066.20000004768,true,NA,NA,NA,NA,NA
v5WqoFkS,NA,NA,v5WqoFkS,2020-0188,2021-10-02,10:59:21,12:29:05,NA,incomplete,false,true,NA,7,6,location,o_s_008.jpg,left,outdoor,indoor,NA,NA,NA,left,1957.40000009537,true,NA,NA,NA,NA,NA
v5WqoFkS,NA,NA,v5WqoFkS,2020-0188,2021-10-02,10:59:21,12:29:05,NA,incomplete,false,true,NA,7,7,location,o_c_002.jpg,left,outdoor,indoor,NA,NA,NA,left,1137.39999997616,true,NA,NA,NA,NA,NA
v5WqoFkS,NA,NA,v5WqoFkS,2020-0188,2021-10-02,10:59:21,12:29:05,NA,incomplete,false,true,NA,7,8,location,i_s_001.jpg,right,outdoor,indoor,NA,NA,NA,right,1840.19999992847,true,NA,NA,NA,NA,NA
v5WqoFkS,NA,NA,v5WqoFkS,2020-0188,2021-10-02,10:59:21,12:29:05,NA,incomplete,false,true,NA,7,9,location,i_c_009.jpg,left,indoor,outdoor,NA,NA,NA,left,1689.90000009537,true,NA,NA,NA,NA,NA
v5WqoFkS,NA,NA,v5WqoFkS,2020-0188,2021-10-02,10:59:21,12:29:05,NA,incomplete,false,true,NA,7,10,origin,m_l_006.jpg,right,natural,manmade,NA,NA,NA,right,2106,true,NA,NA,NA,NA,NA
v5WqoFkS,NA,NA,v5WqoFkS,2020-0188,2021-10-02,10:59:21,12:29:05,NA,incomplete,false,true,NA,7,11,origin,n_s_026.jpg,left,natural,manmade,NA,NA,NA,left,1361.09999990463,true,NA,NA,NA,NA,NA
v5WqoFkS,NA,NA,v5WqoFkS,2020-0188,2021-10-02,10:59:21,12:29:05,NA,incomplete,false,true,NA,7,12,origin,m_l_005.jpg,left,manmade,natural,NA,NA,NA,left,1574.20000004768,true,NA,NA,NA,NA,NA
v5WqoFkS,NA,NA,v5WqoFkS,2020-0188,2021-10-02,10:59:21,12:29:05,NA,incomplete,false,true,NA,7,13,origin,n_s_011.jpg,right,manmade,natural,NA,NA,NA,right,2210.20000004768,true,NA,NA,NA,NA,NA
v5WqoFkS,NA,NA,v5WqoFkS,2020-0188,2021-10-02,10:59:21,12:29:05,NA,incomplete,false,true,NA,7,14,origin,m_l_002.jpg,right,natural,manmade,NA,NA,NA,right,1473.80000007153,true,NA,NA,NA,NA,NA
v5WqoFkS,NA,NA,v5WqoFkS,2020-0188,2021-10-02,10:59:21,12:29:05,NA,incomplete,false,true,NA,7,15,size,m_s_005.jpg,left,small,large,NA,NA,NA,left,2187,true,NA,NA,NA,NA,NA
v5WqoFkS,NA,NA,v5WqoFkS,2020-0188,2021-10-02,10:59:21,12:29:05,NA,incomplete,false,true,NA,7,16,size,m_l_027.jpg,left,large,small,NA,NA,NA,left,1816.80000007153,true,NA,NA,NA,NA,NA
v5WqoFkS,NA,NA,v5WqoFkS,2020-0188,2021-10-02,10:59:21,12:29:05,NA,incomplete,false,true,NA,7,17,size,n_l_015.jpg,right,small,large,NA,NA,NA,right,1550,true,NA,NA,NA,NA,NA
v5WqoFkS,NA,NA,v5WqoFkS,2020-0188,2021-10-02,10:59:21,12:29:05,NA,incomplete,false,true,NA,7,18,size,m_s_028.jpg,right,large,small,NA,NA,NA,right,1363.20000004768,true,NA,NA,NA,NA,NA
v5WqoFkS,NA,NA,v5WqoFkS,2020-0188,2021-10-02,10:59:21,12:29:05,NA,incomplete,false,true,NA,7,19,size,n_l_005.jpg,left,large,small,NA,NA,NA,left,2257.39999997616,true,NA,NA,NA,NA,NA
v5WqoFkS,NA,NA,v5WqoFkS,2020-0188,2021-10-02,10:59:21,12:29:05,NA,incomplete,false,true,NA,7,20,syllable,c_2_002.jpg,right,1 syllable,2 syllables,NA,NA,NA,right,1599.10000002384,true,NA,NA,NA,NA,NA
v5WqoFkS,NA,NA,v5WqoFkS,2020-0188,2021-10-02,10:59:21,12:29:05,NA,incomplete,false,true,NA,7,21,syllable,c_2_018.jpg,right,2 syllables,1 syllable,NA,NA,NA,left,1506.60000002384,false,NA,NA,NA,NA,NA
v5WqoFkS,NA,NA,v5WqoFkS,2020-0188,2021-10-02,10:59:21,12:29:05,NA,incomplete,false,true,NA,7,22,syllable,c_2_015.jpg,right,2 syllables,1 syllable,NA,NA,NA,left,1127.40000009537,false,NA,NA,NA,NA,NA
v5WqoFkS,NA,NA,v5WqoFkS,2020-0188,2021-10-02,10:59:21,12:29:05,NA,incomplete,false,true,NA,7,23,syllable,a_2_026.jpg,right,1 syllable,2 syllables,NA,NA,NA,right,1052.70000004768,true,NA,NA,NA,NA,NA
v5WqoFkS,NA,NA,v5WqoFkS,2020-0188,2021-10-02,10:59:21,12:29:05,NA,incomplete,false,true,NA,7,24,syllable,a_2_009.jpg,right,2 syllables,1 syllable,NA,NA,NA,left,1564.90000009537,false,NA,NA,NA,NA,NA
v5WqoFkS,NA,NA,v5WqoFkS,2020-0188,2021-10-02,10:59:21,12:29:05,NA,incomplete,false,true,NA,7,25,abstractness,c_1_011.jpg,left,concrete,abstract,NA,NA,NA,left,1730.69999992847,true,NA,NA,NA,NA,NA
v5WqoFkS,NA,NA,v5WqoFkS,2020-0188,2021-10-02,10:59:21,12:29:05,NA,incomplete,false,true,NA,7,26,abstractness,a_2_014.jpg,right,concrete,abstract,NA,NA,NA,right,1657.89999997616,true,NA,NA,NA,NA,NA
v5WqoFkS,NA,NA,v5WqoFkS,2020-0188,2021-10-02,10:59:21,12:29:05,NA,incomplete,false,true,NA,7,27,abstractness,c_2_017.jpg,right,abstract,concrete,NA,NA,NA,left,1380.09999990463,false,NA,NA,NA,NA,NA
v5WqoFkS,NA,NA,v5WqoFkS,2020-0188,2021-10-02,10:59:21,12:29:05,NA,incomplete,false,true,NA,7,28,abstractness,c_2_003.jpg,left,concrete,abstract,NA,NA,NA,left,2333.70000004768,true,NA,NA,NA,NA,NA
v5WqoFkS,NA,NA,v5WqoFkS,2020-0188,2021-10-02,10:59:21,12:29:05,NA,incomplete,false,true,NA,7,29,abstractness,a_1_028.jpg,left,abstract,concrete,NA,NA,NA,left,2205.60000002384,true,NA,NA,NA,NA,NA
v5WqoFkS,NA,NA,v5WqoFkS,2020-0188,2021-10-02,10:59:21,12:29:05,NA,incomplete,false,NA,true,7,0,NA,NA,left,NA,NA,c_2_002.jpg,a_2_026.jpg,within,NA,NaN,NA,left,9607.5,1,0,1229.7000000476837
v5WqoFkS,NA,NA,v5WqoFkS,2020-0188,2021-10-02,10:59:21,12:29:05,NA,incomplete,false,NA,true,7,1,NA,NA,left,NA,NA,m_l_006.jpg,n_s_011.jpg,within,NA,NaN,NA,left,5381,1,1,2051.7000000476837
v5WqoFkS,NA,NA,v5WqoFkS,2020-0188,2021-10-02,10:59:21,12:29:05,NA,incomplete,false,NA,true,7,2,NA,NA,right,NA,NA,c_2_002.jpg,n_l_015.jpg,between-big,NA,NaN,NA,right,4522.300000071526,1,2,1444.2999999523163
v5WqoFkS,NA,NA,v5WqoFkS,2020-0188,2021-10-02,10:59:21,12:29:05,NA,incomplete,false,NA,true,7,3,NA,NA,left,NA,NA,i_c_001.jpg,o_s_018.jpg,within,NA,NaN,NA,right,4734.899999976158,0,0,1731.9000000953674
v5WqoFkS,NA,NA,v5WqoFkS,2020-0188,2021-10-02,10:59:21,12:29:05,NA,incomplete,false,NA,true,7,4,NA,NA,left,NA,NA,i_s_009.jpg,o_s_001.jpg,between-small,NA,NaN,NA,left,3891.399999976158,1,0,2774.5
v5WqoFkS,NA,NA,v5WqoFkS,2020-0188,2021-10-02,10:59:21,12:29:05,NA,incomplete,false,NA,true,7,5,NA,NA,right,NA,NA,n_l_015.jpg,m_l_002.jpg,between-small,NA,NaN,NA,right,3005.899999976158,1,1,1928.7999999523163
v5WqoFkS,NA,NA,v5WqoFkS,2020-0188,2021-10-02,10:59:21,12:29:05,NA,incomplete,false,NA,true,7,6,NA,NA,right,NA,NA,a_2_014.jpg,a_2_026.jpg,between-small,NA,NaN,NA,right,3269.399999976158,1,1,1206
v5WqoFkS,NA,NA,v5WqoFkS,2020-0188,2021-10-02,10:59:21,12:29:05,NA,incomplete,false,NA,true,7,7,NA,NA,right,NA,NA,c_2_017.jpg,a_2_009.jpg,between-small,NA,NaN,NA,left,3572.899999976158,0,0,4024.6999999284744
v5WqoFkS,NA,NA,v5WqoFkS,2020-0188,2021-10-02,10:59:21,12:29:05,NA,incomplete,false,NA,true,7,8,NA,NA,left,NA,NA,i_s_001.jpg,n_s_026.jpg,between-big,NA,NaN,NA,left,4280.399999976158,1,2,1116.3000000715256
v5WqoFkS,NA,NA,v5WqoFkS,2020-0188,2021-10-02,10:59:21,12:29:05,NA,incomplete,false,NA,true,7,9,NA,NA,right,NA,NA,i_s_001.jpg,o_s_001.jpg,within,NA,NaN,NA,right,1797.6000000238419,1,0,1231.7999999523163
v5WqoFkS,NA,NA,v5WqoFkS,2020-0188,2021-10-02,10:59:21,12:29:05,NA,incomplete,false,NA,true,7,10,NA,NA,left,NA,NA,m_l_027.jpg,n_l_005.jpg,within,NA,NaN,NA,left,3064.399999976158,1,0,1264.7000000476837
v5WqoFkS,NA,NA,v5WqoFkS,2020-0188,2021-10-02,10:59:21,12:29:05,NA,incomplete,false,NA,true,7,11,NA,NA,right,NA,NA,a_2_009.jpg,c_2_018.jpg,within,NA,NaN,NA,right,11632.800000071526,1,0,1872.2999999523163
v5WqoFkS,NA,NA,v5WqoFkS,2020-0188,2021-10-02,10:59:21,12:29:05,NA,incomplete,false,NA,true,7,12,NA,NA,right,NA,NA,m_l_027.jpg,n_s_011.jpg,between-small,NA,NaN,NA,right,9429.899999976158,1,0,1462.1999999284744
v5WqoFkS,NA,NA,v5WqoFkS,2020-0188,2021-10-02,10:59:21,12:29:05,NA,incomplete,false,NA,true,7,13,NA,NA,right,NA,NA,c_2_018.jpg,m_s_028.jpg,between-big,NA,NaN,NA,right,6639.400000095367,1,2,1362.2000000476837
v5WqoFkS,NA,NA,v5WqoFkS,2020-0188,2021-10-02,10:59:21,12:29:05,NA,incomplete,false,NA,true,7,14,NA,NA,left,NA,NA,n_s_026.jpg,m_l_002.jpg,within,NA,NaN,NA,left,7736.600000023842,1,1,1173
v5WqoFkS,NA,NA,v5WqoFkS,2020-0188,2021-10-02,10:59:21,12:29:05,NA,incomplete,false,NA,true,7,15,NA,NA,right,NA,NA,o_c_002.jpg,o_s_018.jpg,between-small,NA,NaN,NA,right,4613.399999976158,1,1,1814.7999999523163
v5WqoFkS,NA,NA,v5WqoFkS,2020-0188,2021-10-02,10:59:21,12:29:05,NA,incomplete,false,NA,true,7,16,NA,NA,right,NA,NA,m_s_005.jpg,m_l_005.jpg,between-small,NA,NaN,NA,left,2735.899999976158,0,0,1584.3999999761581
v5WqoFkS,NA,NA,v5WqoFkS,2020-0188,2021-10-02,10:59:21,12:29:05,NA,incomplete,false,NA,true,7,17,NA,NA,left,NA,NA,i_c_014.jpg,o_c_018.jpg,within,NA,NaN,NA,right,10325,0,0,1561.0999999046326
v5WqoFkS,NA,NA,v5WqoFkS,2020-0188,2021-10-02,10:59:21,12:29:05,NA,incomplete,false,NA,true,7,18,NA,NA,left,NA,NA,c_2_015.jpg,c_1_011.jpg,between-small,NA,NaN,NA,left,5014.300000071526,1,1,1189.3999999761581
v5WqoFkS,NA,NA,v5WqoFkS,2020-0188,2021-10-02,10:59:21,12:29:05,NA,incomplete,false,NA,true,7,19,NA,NA,right,NA,NA,c_2_003.jpg,c_1_011.jpg,within,NA,NaN,NA,right,6109.699999928474,1,0,1633.7999999523163
v5WqoFkS,NA,NA,v5WqoFkS,2020-0188,2021-10-02,10:59:21,12:29:05,NA,incomplete,false,NA,true,7,20,NA,NA,left,NA,NA,a_2_014.jpg,a_1_028.jpg,within,NA,NaN,NA,left,4467.299999952316,1,0,1158.4000000953674
v5WqoFkS,NA,NA,v5WqoFkS,2020-0188,2021-10-02,10:59:21,12:29:05,NA,incomplete,false,NA,true,7,21,NA,NA,left,NA,NA,m_s_005.jpg,m_s_028.jpg,within,NA,NaN,NA,left,1544,1,0,1592.5
v5WqoFkS,NA,NA,v5WqoFkS,2020-0188,2021-10-02,10:59:21,12:29:05,NA,incomplete,false,NA,true,7,22,NA,NA,left,NA,NA,o_c_018.jpg,o_s_008.jpg,between-small,NA,NaN,NA,right,3121.100000023842,0,0,2323.399999976158
v5WqoFkS,NA,NA,v5WqoFkS,2020-0188,2021-10-02,10:59:21,12:29:05,NA,incomplete,false,NA,true,7,23,NA,NA,right,NA,NA,m_l_005.jpg,i_c_009.jpg,between-big,NA,NaN,NA,right,2463.100000023842,1,2,1428.6999999284744
v5WqoFkS,NA,NA,v5WqoFkS,2020-0188,2021-10-02,10:59:21,12:29:05,NA,incomplete,false,NA,true,7,24,NA,NA,right,NA,NA,i_c_009.jpg,o_s_008.jpg,within,NA,NaN,NA,left,3688.2999999523163,0,0,1354.7999999523163
v5WqoFkS,NA,NA,v5WqoFkS,2020-0188,2021-10-02,10:59:21,12:29:05,NA,incomplete,false,NA,true,7,25,NA,NA,right,NA,NA,m_l_006.jpg,o_c_002.jpg,between-big,NA,NaN,NA,right,1477.7000000476837,1,2,1148.7999999523163
v5WqoFkS,NA,NA,v5WqoFkS,2020-0188,2021-10-02,10:59:21,12:29:05,NA,incomplete,false,NA,true,7,26,NA,NA,right,NA,NA,c_2_015.jpg,n_l_005.jpg,between-big,NA,NaN,NA,right,4352.599999904633,1,2,1338
v5WqoFkS,NA,NA,v5WqoFkS,2020-0188,2021-10-02,10:59:21,12:29:05,NA,incomplete,false,true,NA,8,0,size,m_l_018.jpg,right,small,large,NA,NA,NA,right,2785.80000007153,true,NA,NA,NA,NA,NA
v5WqoFkS,NA,NA,v5WqoFkS,2020-0188,2021-10-02,10:59:21,12:29:05,NA,incomplete,false,true,NA,8,1,size,n_l_007.jpg,right,small,large,NA,NA,NA,right,3168.5,true,NA,NA,NA,NA,NA
v5WqoFkS,NA,NA,v5WqoFkS,2020-0188,2021-10-02,10:59:21,12:29:05,NA,incomplete,false,true,NA,8,2,size,n_s_008.jpg,right,large,small,NA,NA,NA,right,1471.60000002384,true,NA,NA,NA,NA,NA
v5WqoFkS,NA,NA,v5WqoFkS,2020-0188,2021-10-02,10:59:21,12:29:05,NA,incomplete,false,true,NA,8,3,size,n_l_017.jpg,left,large,small,NA,NA,NA,left,959.799999952316,true,NA,NA,NA,NA,NA
v5WqoFkS,NA,NA,v5WqoFkS,2020-0188,2021-10-02,10:59:21,12:29:05,NA,incomplete,false,true,NA,8,4,size,n_l_022.jpg,right,small,large,NA,NA,NA,right,1241.30000007153,true,NA,NA,NA,NA,NA
v5WqoFkS,NA,NA,v5WqoFkS,2020-0188,2021-10-02,10:59:21,12:29:05,NA,incomplete,false,true,NA,8,5,origin,m_s_027.jpg,left,manmade,natural,NA,NA,NA,left,2262.10000002384,true,NA,NA,NA,NA,NA
v5WqoFkS,NA,NA,v5WqoFkS,2020-0188,2021-10-02,10:59:21,12:29:05,NA,incomplete,false,true,NA,8,6,origin,n_l_004.jpg,left,natural,manmade,NA,NA,NA,left,1551.5,true,NA,NA,NA,NA,NA
v5WqoFkS,NA,NA,v5WqoFkS,2020-0188,2021-10-02,10:59:21,12:29:05,NA,incomplete,false,true,NA,8,7,origin,n_s_022.jpg,left,natural,manmade,NA,NA,NA,left,2142.70000004768,true,NA,NA,NA,NA,NA
v5WqoFkS,NA,NA,v5WqoFkS,2020-0188,2021-10-02,10:59:21,12:29:05,NA,incomplete,false,true,NA,8,8,origin,m_s_011.jpg,right,natural,manmade,NA,NA,NA,right,1039.19999992847,true,NA,NA,NA,NA,NA
v5WqoFkS,NA,NA,v5WqoFkS,2020-0188,2021-10-02,10:59:21,12:29:05,NA,incomplete,false,true,NA,8,9,origin,n_l_018.jpg,left,natural,manmade,NA,NA,NA,left,1318,true,NA,NA,NA,NA,NA
v5WqoFkS,NA,NA,v5WqoFkS,2020-0188,2021-10-02,10:59:21,12:29:05,NA,incomplete,false,true,NA,8,10,building,o_c_024.jpg,right,skyscraper,cottage,NA,NA,NA,right,1642.60000002384,true,NA,NA,NA,NA,NA
v5WqoFkS,NA,NA,v5WqoFkS,2020-0188,2021-10-02,10:59:21,12:29:05,NA,incomplete,false,true,NA,8,11,building,i_s_006.jpg,left,skyscraper,cottage,NA,NA,NA,left,1327.39999997616,true,NA,NA,NA,NA,NA
v5WqoFkS,NA,NA,v5WqoFkS,2020-0188,2021-10-02,10:59:21,12:29:05,NA,incomplete,false,true,NA,8,12,building,i_s_020.jpg,right,cottage,skyscraper,NA,NA,NA,right,1714.80000007153,true,NA,NA,NA,NA,NA
v5WqoFkS,NA,NA,v5WqoFkS,2020-0188,2021-10-02,10:59:21,12:29:05,NA,incomplete,false,true,NA,8,13,building,i_s_025.jpg,left,skyscraper,cottage,NA,NA,NA,left,996.5,true,NA,NA,NA,NA,NA
v5WqoFkS,NA,NA,v5WqoFkS,2020-0188,2021-10-02,10:59:21,12:29:05,NA,incomplete,false,true,NA,8,14,building,o_c_003.jpg,right,skyscraper,cottage,NA,NA,NA,right,1870.60000002384,true,NA,NA,NA,NA,NA
v5WqoFkS,NA,NA,v5WqoFkS,2020-0188,2021-10-02,10:59:21,12:29:05,NA,incomplete,false,true,NA,8,15,location,o_c_027.jpg,right,indoor,outdoor,NA,NA,NA,right,1539.10000002384,true,NA,NA,NA,NA,NA
v5WqoFkS,NA,NA,v5WqoFkS,2020-0188,2021-10-02,10:59:21,12:29:05,NA,incomplete,false,true,NA,8,16,location,i_s_012.jpg,right,outdoor,indoor,NA,NA,NA,right,2063.60000002384,true,NA,NA,NA,NA,NA
v5WqoFkS,NA,NA,v5WqoFkS,2020-0188,2021-10-02,10:59:21,12:29:05,NA,incomplete,false,true,NA,8,17,location,i_s_003.jpg,left,indoor,outdoor,NA,NA,NA,left,1190.19999992847,true,NA,NA,NA,NA,NA
v5WqoFkS,NA,NA,v5WqoFkS,2020-0188,2021-10-02,10:59:21,12:29:05,NA,incomplete,false,true,NA,8,18,location,i_s_005.jpg,right,outdoor,indoor,NA,NA,NA,right,1929,true,NA,NA,NA,NA,NA
v5WqoFkS,NA,NA,v5WqoFkS,2020-0188,2021-10-02,10:59:21,12:29:05,NA,incomplete,false,true,NA,8,19,location,o_s_004.jpg,right,indoor,outdoor,NA,NA,NA,right,1582.59999990463,true,NA,NA,NA,NA,NA
v5WqoFkS,NA,NA,v5WqoFkS,2020-0188,2021-10-02,10:59:21,12:29:05,NA,incomplete,false,true,NA,8,20,syllable,a_1_007.jpg,right,2 syllables,1 syllable,NA,NA,NA,right,2437.29999995232,true,NA,NA,NA,NA,NA
v5WqoFkS,NA,NA,v5WqoFkS,2020-0188,2021-10-02,10:59:21,12:29:05,NA,incomplete,false,true,NA,8,21,syllable,c_1_023.jpg,right,2 syllables,1 syllable,NA,NA,NA,right,1553.59999990463,true,NA,NA,NA,NA,NA
v5WqoFkS,NA,NA,v5WqoFkS,2020-0188,2021-10-02,10:59:21,12:29:05,NA,incomplete,false,true,NA,8,22,syllable,a_1_011.jpg,right,1 syllable,2 syllables,NA,NA,NA,left,958.600000023842,false,NA,NA,NA,NA,NA
v5WqoFkS,NA,NA,v5WqoFkS,2020-0188,2021-10-02,10:59:21,12:29:05,NA,incomplete,false,true,NA,8,23,syllable,a_1_018.jpg,right,1 syllable,2 syllables,NA,NA,NA,left,989,false,NA,NA,NA,NA,NA
v5WqoFkS,NA,NA,v5WqoFkS,2020-0188,2021-10-02,10:59:21,12:29:05,NA,incomplete,false,true,NA,8,24,syllable,a_2_027.jpg,right,1 syllable,2 syllables,NA,NA,NA,right,1385.10000002384,true,NA,NA,NA,NA,NA
v5WqoFkS,NA,NA,v5WqoFkS,2020-0188,2021-10-02,10:59:21,12:29:05,NA,incomplete,false,true,NA,8,25,abstractness,a_1_015.jpg,right,concrete,abstract,NA,NA,NA,right,1728.80000007153,true,NA,NA,NA,NA,NA
v5WqoFkS,NA,NA,v5WqoFkS,2020-0188,2021-10-02,10:59:21,12:29:05,NA,incomplete,false,true,NA,8,26,abstractness,c_2_010.jpg,right,abstract,concrete,NA,NA,NA,right,2826.5,true,NA,NA,NA,NA,NA
v5WqoFkS,NA,NA,v5WqoFkS,2020-0188,2021-10-02,10:59:21,12:29:05,NA,incomplete,false,true,NA,8,27,abstractness,a_1_012.jpg,right,concrete,abstract,NA,NA,NA,right,2561.5,true,NA,NA,NA,NA,NA
v5WqoFkS,NA,NA,v5WqoFkS,2020-0188,2021-10-02,10:59:21,12:29:05,NA,incomplete,false,true,NA,8,28,abstractness,c_2_007.jpg,right,abstract,concrete,NA,NA,NA,right,2678.39999997616,true,NA,NA,NA,NA,NA
v5WqoFkS,NA,NA,v5WqoFkS,2020-0188,2021-10-02,10:59:21,12:29:05,NA,incomplete,false,true,NA,8,29,abstractness,c_1_007.jpg,left,concrete,abstract,NA,NA,NA,left,1637.60000002384,true,NA,NA,NA,NA,NA
v5WqoFkS,NA,NA,v5WqoFkS,2020-0188,2021-10-02,10:59:21,12:29:05,NA,incomplete,false,NA,true,8,0,NA,NA,right,NA,NA,a_1_011.jpg,o_s_004.jpg,between-big,NA,NaN,NA,right,4277.400000095367,1,2,1221.6999999284744
v5WqoFkS,NA,NA,v5WqoFkS,2020-0188,2021-10-02,10:59:21,12:29:05,NA,incomplete,false,NA,true,8,1,NA,NA,right,NA,NA,i_s_020.jpg,n_l_018.jpg,between-big,NA,NaN,NA,right,3309.600000023842,1,2,1551.2000000476837
v5WqoFkS,NA,NA,v5WqoFkS,2020-0188,2021-10-02,10:59:21,12:29:05,NA,incomplete,false,NA,true,8,2,NA,NA,right,NA,NA,i_s_003.jpg,o_c_003.jpg,between-small,NA,NaN,NA,right,5859.100000023842,1,0,1099.2000000476837
v5WqoFkS,NA,NA,v5WqoFkS,2020-0188,2021-10-02,10:59:21,12:29:05,NA,incomplete,false,NA,true,8,3,NA,NA,right,NA,NA,a_2_027.jpg,c_1_023.jpg,within,NA,NaN,NA,left,5821.200000047684,0,0,2199.399999976158
v5WqoFkS,NA,NA,v5WqoFkS,2020-0188,2021-10-02,10:59:21,12:29:05,NA,incomplete,false,NA,true,8,4,NA,NA,left,NA,NA,i_s_003.jpg,a_1_007.jpg,between-big,NA,NaN,NA,left,2166.8000000715256,1,2,1172.8999999761581
v5WqoFkS,NA,NA,v5WqoFkS,2020-0188,2021-10-02,10:59:21,12:29:05,NA,incomplete,false,NA,true,8,5,NA,NA,right,NA,NA,c_1_023.jpg,i_s_005.jpg,between-big,NA,NaN,NA,right,3647.399999976158,1,2,1698.6000000238419
v5WqoFkS,NA,NA,v5WqoFkS,2020-0188,2021-10-02,10:59:21,12:29:05,NA,incomplete,false,NA,true,8,6,NA,NA,left,NA,NA,i_s_006.jpg,o_c_003.jpg,within,NA,NaN,NA,left,5227.900000095367,1,0,1355
v5WqoFkS,NA,NA,v5WqoFkS,2020-0188,2021-10-02,10:59:21,12:29:05,NA,incomplete,false,NA,true,8,7,NA,NA,left,NA,NA,m_l_018.jpg,n_l_017.jpg,within,NA,NaN,NA,left,4827.199999928474,1,1,1363.6000000238419
v5WqoFkS,NA,NA,v5WqoFkS,2020-0188,2021-10-02,10:59:21,12:29:05,NA,incomplete,false,NA,true,8,8,NA,NA,right,NA,NA,o_c_024.jpg,n_s_022.jpg,between-big,NA,NaN,NA,right,4039.3000000715256,1,2,1535.3999999761581
v5WqoFkS,NA,NA,v5WqoFkS,2020-0188,2021-10-02,10:59:21,12:29:05,NA,incomplete,false,NA,true,8,9,NA,NA,left,NA,NA,n_l_007.jpg,n_l_022.jpg,within,NA,NaN,NA,left,2307.5,1,0,1337.8999999761581
v5WqoFkS,NA,NA,v5WqoFkS,2020-0188,2021-10-02,10:59:21,12:29:05,NA,incomplete,false,NA,true,8,10,NA,NA,right,NA,NA,i_s_006.jpg,m_s_011.jpg,between-big,NA,NaN,NA,right,4096,1,2,1174.1999999284744
v5WqoFkS,NA,NA,v5WqoFkS,2020-0188,2021-10-02,10:59:21,12:29:05,NA,incomplete,false,NA,true,8,11,NA,NA,right,NA,NA,i_s_025.jpg,o_c_024.jpg,within,NA,NaN,NA,right,8467.399999976158,1,0,3360.100000023842
v5WqoFkS,NA,NA,v5WqoFkS,2020-0188,2021-10-02,10:59:21,12:29:05,NA,incomplete,false,NA,true,8,12,NA,NA,left,NA,NA,a_1_018.jpg,c_2_010.jpg,between-small,NA,NaN,NA,left,9880.600000023842,1,1,1781.2999999523163
v5WqoFkS,NA,NA,v5WqoFkS,2020-0188,2021-10-02,10:59:21,12:29:05,NA,incomplete,false,NA,true,8,13,NA,NA,left,NA,NA,n_l_004.jpg,n_l_018.jpg,within,NA,NaN,NA,left,3252,1,0,1297.1999999284744
v5WqoFkS,NA,NA,v5WqoFkS,2020-0188,2021-10-02,10:59:21,12:29:05,NA,incomplete,false,NA,true,8,14,NA,NA,left,NA,NA,a_1_007.jpg,a_1_018.jpg,within,NA,NaN,NA,left,5695.600000023842,1,0,1625.8999999761581
v5WqoFkS,NA,NA,v5WqoFkS,2020-0188,2021-10-02,10:59:21,12:29:05,NA,incomplete,false,NA,true,8,15,NA,NA,right,NA,NA,i_s_005.jpg,o_c_027.jpg,within,NA,NaN,NA,right,2544.2999999523163,1,0,1421.7000000476837
v5WqoFkS,NA,NA,v5WqoFkS,2020-0188,2021-10-02,10:59:21,12:29:05,NA,incomplete,false,NA,true,8,16,NA,NA,right,NA,NA,a_1_015.jpg,a_1_011.jpg,between-small,NA,NaN,NA,right,6874.399999976158,1,0,3185.7999999523163
v5WqoFkS,NA,NA,v5WqoFkS,2020-0188,2021-10-02,10:59:21,12:29:05,NA,incomplete,false,NA,true,8,17,NA,NA,left,NA,NA,m_s_027.jpg,m_s_011.jpg,within,NA,NaN,NA,left,3581.5,1,0,820.6999999284744
v5WqoFkS,NA,NA,v5WqoFkS,2020-0188,2021-10-02,10:59:21,12:29:05,NA,incomplete,false,NA,true,8,18,NA,NA,right,NA,NA,n_l_004.jpg,n_l_017.jpg,between-small,NA,NaN,NA,left,1650.8999999761581,0,1,1658
v5WqoFkS,NA,NA,v5WqoFkS,2020-0188,2021-10-02,10:59:21,12:29:05,NA,incomplete,false,NA,true,8,19,NA,NA,left,NA,NA,i_s_025.jpg,i_s_012.jpg,between-small,NA,NaN,NA,right,4557.800000071526,0,0,1165.7000000476837
v5WqoFkS,NA,NA,v5WqoFkS,2020-0188,2021-10-02,10:59:21,12:29:05,NA,incomplete,false,NA,true,8,20,NA,NA,right,NA,NA,c_1_007.jpg,c_2_010.jpg,within,NA,NaN,NA,left,3539.7999999523163,0,0,2602.5
v5WqoFkS,NA,NA,v5WqoFkS,2020-0188,2021-10-02,10:59:21,12:29:05,NA,incomplete,false,NA,true,8,21,NA,NA,right,NA,NA,c_2_007.jpg,a_1_015.jpg,within,NA,NaN,NA,right,5359.399999976158,1,0,4464.199999928474
v5WqoFkS,NA,NA,v5WqoFkS,2020-0188,2021-10-02,10:59:21,12:29:05,NA,incomplete,false,NA,true,8,22,NA,NA,left,NA,NA,a_2_027.jpg,a_1_012.jpg,between-small,NA,NaN,NA,right,2647.8000000715256,0,1,1765
v5WqoFkS,NA,NA,v5WqoFkS,2020-0188,2021-10-02,10:59:21,12:29:05,NA,incomplete,false,NA,true,8,23,NA,NA,left,NA,NA,n_s_008.jpg,m_s_027.jpg,between-small,NA,NaN,NA,left,2341.1999999284744,1,1,1512.5
v5WqoFkS,NA,NA,v5WqoFkS,2020-0188,2021-10-02,10:59:21,12:29:05,NA,incomplete,false,NA,true,8,24,NA,NA,right,NA,NA,o_s_004.jpg,i_s_012.jpg,within,NA,NaN,NA,left,4408.799999952316,0,0,2308.399999976158
v5WqoFkS,NA,NA,v5WqoFkS,2020-0188,2021-10-02,10:59:21,12:29:05,NA,incomplete,false,NA,true,8,25,NA,NA,right,NA,NA,o_c_027.jpg,i_s_020.jpg,between-small,NA,NaN,NA,right,3111.6999999284744,1,0,1379.1000000238419
v5WqoFkS,NA,NA,v5WqoFkS,2020-0188,2021-10-02,10:59:21,12:29:05,NA,incomplete,false,NA,true,8,26,NA,NA,left,NA,NA,n_l_022.jpg,n_s_022.jpg,between-small,NA,NaN,NA,right,4508.200000047684,0,1,1181.3999999761581
v5WqoFkS,NA,NA,v5WqoFkS,2020-0188,2021-10-02,10:59:21,12:29:05,NA,incomplete,false,true,NA,9,0,syllable,a_2_006.jpg,right,1 syllable,2 syllables,NA,NA,NA,right,2170.20000004768,true,NA,NA,NA,NA,NA
