workerId,hitId,assignmentId,subject,studyid,exp_date,exp_start,exp_end,time_start,time_end,practice,encoding,memory,block,trial,event,stim,answer,label_left,label_right,left_image,right_image,condition,response,response_time,response_acc,order_response,order_response_time,order_acc,distance_response,distance_response_time
w5Q6SuOv,NA,NA,w5Q6SuOv,2020-0188,2021-11-01,22:51:37,00:35:20,NA,incomplete,true,true,NA,0,0,origin,n_l_020.jpg,left,natural,manmade,NA,NA,NA,left,1721,true,NA,NA,NA,NA,NA
w5Q6SuOv,NA,NA,w5Q6SuOv,2020-0188,2021-11-01,22:51:37,00:35:20,NA,incomplete,true,true,NA,0,1,origin,m_l_024.jpg,right,natural,manmade,NA,NA,NA,right,1317,true,NA,NA,NA,NA,NA
w5Q6SuOv,NA,NA,w5Q6SuOv,2020-0188,2021-11-01,22:51:37,00:35:20,NA,incomplete,true,true,NA,0,2,origin,n_s_014.jpg,right,manmade,natural,NA,NA,NA,right,1497,true,NA,NA,NA,NA,NA
w5Q6SuOv,NA,NA,w5Q6SuOv,2020-0188,2021-11-01,22:51:37,00:35:20,NA,incomplete,true,true,NA,0,3,origin,m_s_028.jpg,right,natural,manmade,NA,NA,NA,right,1066,true,NA,NA,NA,NA,NA
w5Q6SuOv,NA,NA,w5Q6SuOv,2020-0188,2021-11-01,22:51:37,00:35:20,NA,incomplete,true,true,NA,0,4,origin,n_s_006.jpg,left,natural,manmade,NA,NA,NA,left,1596,true,NA,NA,NA,NA,NA
w5Q6SuOv,NA,NA,w5Q6SuOv,2020-0188,2021-11-01,22:51:37,00:35:20,NA,incomplete,true,true,NA,0,5,size,n_s_026.jpg,left,small,large,NA,NA,NA,left,1087,true,NA,NA,NA,NA,NA
w5Q6SuOv,NA,NA,w5Q6SuOv,2020-0188,2021-11-01,22:51:37,00:35:20,NA,incomplete,true,true,NA,0,6,size,m_s_008.jpg,left,small,large,NA,NA,NA,left,1121,true,NA,NA,NA,NA,NA
w5Q6SuOv,NA,NA,w5Q6SuOv,2020-0188,2021-11-01,22:51:37,00:35:20,NA,incomplete,true,true,NA,0,7,size,m_l_013.jpg,left,large,small,NA,NA,NA,left,1615,true,NA,NA,NA,NA,NA
w5Q6SuOv,NA,NA,w5Q6SuOv,2020-0188,2021-11-01,22:51:37,00:35:20,NA,incomplete,true,true,NA,0,8,size,m_s_021.jpg,left,small,large,NA,NA,NA,left,1250,true,NA,NA,NA,NA,NA
w5Q6SuOv,NA,NA,w5Q6SuOv,2020-0188,2021-11-01,22:51:37,00:35:20,NA,incomplete,true,true,NA,0,9,size,m_s_007.jpg,right,large,small,NA,NA,NA,right,1667,true,NA,NA,NA,NA,NA
w5Q6SuOv,NA,NA,w5Q6SuOv,2020-0188,2021-11-01,22:51:37,00:35:20,NA,incomplete,true,true,NA,0,10,building,o_s_023.jpg,right,cottage,skyscraper,NA,NA,NA,right,1310.00000000012,true,NA,NA,NA,NA,NA
w5Q6SuOv,NA,NA,w5Q6SuOv,2020-0188,2021-11-01,22:51:37,00:35:20,NA,incomplete,true,true,NA,0,11,building,i_c_010.jpg,right,skyscraper,cottage,NA,NA,NA,right,1142.99999999988,true,NA,NA,NA,NA,NA
w5Q6SuOv,NA,NA,w5Q6SuOv,2020-0188,2021-11-01,22:51:37,00:35:20,NA,incomplete,true,true,NA,0,12,building,i_c_007.jpg,left,cottage,skyscraper,NA,NA,NA,left,1576,true,NA,NA,NA,NA,NA
w5Q6SuOv,NA,NA,w5Q6SuOv,2020-0188,2021-11-01,22:51:37,00:35:20,NA,incomplete,true,true,NA,0,13,building,o_c_019.jpg,right,skyscraper,cottage,NA,NA,NA,right,1103,true,NA,NA,NA,NA,NA
w5Q6SuOv,NA,NA,w5Q6SuOv,2020-0188,2021-11-01,22:51:37,00:35:20,NA,incomplete,true,true,NA,0,14,building,i_c_015.jpg,left,cottage,skyscraper,NA,NA,NA,left,978,true,NA,NA,NA,NA,NA
w5Q6SuOv,NA,NA,w5Q6SuOv,2020-0188,2021-11-01,22:51:37,00:35:20,NA,incomplete,true,true,NA,0,15,location,o_s_006.jpg,left,outdoor,indoor,NA,NA,NA,left,1724,true,NA,NA,NA,NA,NA
w5Q6SuOv,NA,NA,w5Q6SuOv,2020-0188,2021-11-01,22:51:37,00:35:20,NA,incomplete,true,true,NA,0,16,location,i_c_017.jpg,left,indoor,outdoor,NA,NA,NA,left,1284.99999999988,true,NA,NA,NA,NA,NA
w5Q6SuOv,NA,NA,w5Q6SuOv,2020-0188,2021-11-01,22:51:37,00:35:20,NA,incomplete,true,true,NA,0,17,location,i_s_022.jpg,left,indoor,outdoor,NA,NA,NA,left,1578,true,NA,NA,NA,NA,NA
w5Q6SuOv,NA,NA,w5Q6SuOv,2020-0188,2021-11-01,22:51:37,00:35:20,NA,incomplete,true,true,NA,0,18,location,i_s_012.jpg,left,indoor,outdoor,NA,NA,NA,left,1008,true,NA,NA,NA,NA,NA
w5Q6SuOv,NA,NA,w5Q6SuOv,2020-0188,2021-11-01,22:51:37,00:35:20,NA,incomplete,true,true,NA,0,19,location,i_c_025.jpg,left,indoor,outdoor,NA,NA,NA,left,1979.99999999988,true,NA,NA,NA,NA,NA
w5Q6SuOv,NA,NA,w5Q6SuOv,2020-0188,2021-11-01,22:51:37,00:35:20,NA,incomplete,true,true,NA,0,20,syllable,a_2_016.jpg,right,2 syllables,1 syllable,NA,NA,NA,left,1598,false,NA,NA,NA,NA,NA
w5Q6SuOv,NA,NA,w5Q6SuOv,2020-0188,2021-11-01,22:51:37,00:35:20,NA,incomplete,true,true,NA,0,21,syllable,a_2_008.jpg,right,2 syllables,1 syllable,NA,NA,NA,right,1379,true,NA,NA,NA,NA,NA
w5Q6SuOv,NA,NA,w5Q6SuOv,2020-0188,2021-11-01,22:51:37,00:35:20,NA,incomplete,true,true,NA,0,22,syllable,a_1_002.jpg,right,1 syllable,2 syllables,NA,NA,NA,left,1166,false,NA,NA,NA,NA,NA
w5Q6SuOv,NA,NA,w5Q6SuOv,2020-0188,2021-11-01,22:51:37,00:35:20,NA,incomplete,true,true,NA,0,23,syllable,a_2_023.jpg,right,2 syllables,1 syllable,NA,NA,NA,left,1860,false,NA,NA,NA,NA,NA
w5Q6SuOv,NA,NA,w5Q6SuOv,2020-0188,2021-11-01,22:51:37,00:35:20,NA,incomplete,true,true,NA,0,24,syllable,c_1_005.jpg,right,2 syllables,1 syllable,NA,NA,NA,right,1189.00000000012,true,NA,NA,NA,NA,NA
w5Q6SuOv,NA,NA,w5Q6SuOv,2020-0188,2021-11-01,22:51:37,00:35:20,NA,incomplete,true,true,NA,0,25,abstractness,a_1_026.jpg,right,concrete,abstract,NA,NA,NA,right,1782.99999999988,true,NA,NA,NA,NA,NA
w5Q6SuOv,NA,NA,w5Q6SuOv,2020-0188,2021-11-01,22:51:37,00:35:20,NA,incomplete,true,true,NA,0,26,abstractness,a_2_010.jpg,left,abstract,concrete,NA,NA,NA,left,2655.99999999988,true,NA,NA,NA,NA,NA
w5Q6SuOv,NA,NA,w5Q6SuOv,2020-0188,2021-11-01,22:51:37,00:35:20,NA,incomplete,true,true,NA,0,27,abstractness,c_1_003.jpg,left,concrete,abstract,NA,NA,NA,left,2081,true,NA,NA,NA,NA,NA
w5Q6SuOv,NA,NA,w5Q6SuOv,2020-0188,2021-11-01,22:51:37,00:35:20,NA,incomplete,true,true,NA,0,28,abstractness,c_2_011.jpg,right,abstract,concrete,NA,NA,NA,right,2358,true,NA,NA,NA,NA,NA
w5Q6SuOv,NA,NA,w5Q6SuOv,2020-0188,2021-11-01,22:51:37,00:35:20,NA,incomplete,true,true,NA,0,29,abstractness,c_1_019.jpg,left,concrete,abstract,NA,NA,NA,left,1171.99999999988,true,NA,NA,NA,NA,NA
w5Q6SuOv,NA,NA,w5Q6SuOv,2020-0188,2021-11-01,22:51:37,00:35:20,NA,incomplete,true,NA,true,0,0,NA,NA,left,NA,NA,n_l_020.jpg,m_s_028.jpg,within,NA,NaN,NA,left,1551,1,1,1470
w5Q6SuOv,NA,NA,w5Q6SuOv,2020-0188,2021-11-01,22:51:37,00:35:20,NA,incomplete,true,NA,true,0,1,NA,NA,right,NA,NA,o_c_019.jpg,o_s_023.jpg,within,NA,NaN,NA,right,1709,1,2,1691
w5Q6SuOv,NA,NA,w5Q6SuOv,2020-0188,2021-11-01,22:51:37,00:35:20,NA,incomplete,true,NA,true,0,2,NA,NA,left,NA,NA,i_s_022.jpg,a_2_016.jpg,between-big,NA,NaN,NA,left,983,1,3,1344.0000000001164
w5Q6SuOv,NA,NA,w5Q6SuOv,2020-0188,2021-11-01,22:51:37,00:35:20,NA,incomplete,true,NA,true,0,3,NA,NA,right,NA,NA,i_s_012.jpg,o_s_006.jpg,within,NA,NaN,NA,right,2015,1,2,1973
w5Q6SuOv,NA,NA,w5Q6SuOv,2020-0188,2021-11-01,22:51:37,00:35:20,NA,incomplete,true,NA,true,0,4,NA,NA,left,NA,NA,a_2_023.jpg,a_2_010.jpg,between-small,NA,NaN,NA,right,2549.0000000001164,0,1,1990
w5Q6SuOv,NA,NA,w5Q6SuOv,2020-0188,2021-11-01,22:51:37,00:35:20,NA,incomplete,true,NA,true,0,5,NA,NA,right,NA,NA,c_1_019.jpg,a_2_010.jpg,within,NA,NaN,NA,right,1106,1,1,2254
w5Q6SuOv,NA,NA,w5Q6SuOv,2020-0188,2021-11-01,22:51:37,00:35:20,NA,incomplete,true,NA,true,0,6,NA,NA,left,NA,NA,i_c_025.jpg,a_1_002.jpg,between-big,NA,NaN,NA,left,1230,1,3,3921
w5Q6SuOv,NA,NA,w5Q6SuOv,2020-0188,2021-11-01,22:51:37,00:35:20,NA,incomplete,true,NA,true,0,7,NA,NA,right,NA,NA,o_s_006.jpg,i_c_007.jpg,between-small,NA,NaN,NA,left,1363,0,1,1774
w5Q6SuOv,NA,NA,w5Q6SuOv,2020-0188,2021-11-01,22:51:37,00:35:20,NA,incomplete,true,NA,true,0,8,NA,NA,right,NA,NA,a_1_026.jpg,a_1_002.jpg,between-small,NA,NaN,NA,left,2376,0,1,2310.9999999998836
w5Q6SuOv,NA,NA,w5Q6SuOv,2020-0188,2021-11-01,22:51:37,00:35:20,NA,incomplete,true,NA,true,0,9,NA,NA,right,NA,NA,m_s_007.jpg,m_s_008.jpg,within,NA,NaN,NA,right,1420,1,1,1387
w5Q6SuOv,NA,NA,w5Q6SuOv,2020-0188,2021-11-01,22:51:37,00:35:20,NA,incomplete,true,NA,true,0,10,NA,NA,left,NA,NA,n_s_014.jpg,n_s_026.jpg,between-small,NA,NaN,NA,left,1410.9999999998836,1,1,998.9999999998836
w5Q6SuOv,NA,NA,w5Q6SuOv,2020-0188,2021-11-01,22:51:37,00:35:20,NA,incomplete,true,NA,true,0,11,NA,NA,right,NA,NA,m_s_021.jpg,n_s_026.jpg,within,NA,NaN,NA,right,899.9999999998836,1,1,800
w5Q6SuOv,NA,NA,w5Q6SuOv,2020-0188,2021-11-01,22:51:37,00:35:20,NA,incomplete,true,NA,true,0,12,NA,NA,left,NA,NA,c_1_005.jpg,c_1_003.jpg,between-small,NA,NaN,NA,right,984,0,1,941
w5Q6SuOv,NA,NA,w5Q6SuOv,2020-0188,2021-11-01,22:51:37,00:35:20,NA,incomplete,true,NA,true,0,13,NA,NA,left,NA,NA,m_l_013.jpg,o_s_023.jpg,between-big,NA,NaN,NA,left,3136,1,1,1444
w5Q6SuOv,NA,NA,w5Q6SuOv,2020-0188,2021-11-01,22:51:37,00:35:20,NA,incomplete,true,NA,true,0,14,NA,NA,right,NA,NA,i_c_010.jpg,m_s_021.jpg,between-big,NA,NaN,NA,right,1014.9999999998836,1,2,1065
w5Q6SuOv,NA,NA,w5Q6SuOv,2020-0188,2021-11-01,22:51:37,00:35:20,NA,incomplete,true,NA,true,0,15,NA,NA,left,NA,NA,a_1_026.jpg,c_2_011.jpg,within,NA,NaN,NA,right,2615,0,1,4812
w5Q6SuOv,NA,NA,w5Q6SuOv,2020-0188,2021-11-01,22:51:37,00:35:20,NA,incomplete,true,NA,true,0,16,NA,NA,right,NA,NA,i_c_025.jpg,i_c_017.jpg,within,NA,NaN,NA,left,6101,0,2,743
w5Q6SuOv,NA,NA,w5Q6SuOv,2020-0188,2021-11-01,22:51:37,00:35:20,NA,incomplete,true,NA,true,0,17,NA,NA,right,NA,NA,a_2_023.jpg,a_2_016.jpg,within,NA,NaN,NA,left,1716,0,1,4078.0000000001164
w5Q6SuOv,NA,NA,w5Q6SuOv,2020-0188,2021-11-01,22:51:37,00:35:20,NA,incomplete,true,NA,true,0,18,NA,NA,left,NA,NA,o_c_019.jpg,i_c_017.jpg,between-small,NA,NaN,NA,left,880.9999999998836,1,1,1139
w5Q6SuOv,NA,NA,w5Q6SuOv,2020-0188,2021-11-01,22:51:37,00:35:20,NA,incomplete,true,NA,true,0,19,NA,NA,right,NA,NA,m_s_008.jpg,m_s_028.jpg,between-small,NA,NaN,NA,right,1156,1,1,1767.0000000001164
w5Q6SuOv,NA,NA,w5Q6SuOv,2020-0188,2021-11-01,22:51:37,00:35:20,NA,incomplete,true,NA,true,0,20,NA,NA,right,NA,NA,n_s_006.jpg,m_l_024.jpg,within,NA,NaN,NA,left,1157,0,1,939.9999999998836
w5Q6SuOv,NA,NA,w5Q6SuOv,2020-0188,2021-11-01,22:51:37,00:35:20,NA,incomplete,true,NA,true,0,21,NA,NA,right,NA,NA,a_2_008.jpg,i_s_012.jpg,between-big,NA,NaN,NA,right,933.9999999998836,1,2,1608.9999999998836
w5Q6SuOv,NA,NA,w5Q6SuOv,2020-0188,2021-11-01,22:51:37,00:35:20,NA,incomplete,true,NA,true,0,22,NA,NA,left,NA,NA,i_c_010.jpg,i_c_015.jpg,within,NA,NaN,NA,right,1660,0,2,841
w5Q6SuOv,NA,NA,w5Q6SuOv,2020-0188,2021-11-01,22:51:37,00:35:20,NA,incomplete,true,NA,true,0,23,NA,NA,right,NA,NA,m_l_013.jpg,n_s_006.jpg,between-small,NA,NaN,NA,right,1055,1,2,2575
w5Q6SuOv,NA,NA,w5Q6SuOv,2020-0188,2021-11-01,22:51:37,00:35:20,NA,incomplete,true,NA,true,0,24,NA,NA,right,NA,NA,c_1_005.jpg,a_2_008.jpg,within,NA,NaN,NA,right,2205,1,2,2436.0000000001164
w5Q6SuOv,NA,NA,w5Q6SuOv,2020-0188,2021-11-01,22:51:37,00:35:20,NA,incomplete,true,NA,true,0,25,NA,NA,left,NA,NA,m_s_007.jpg,i_c_007.jpg,between-big,NA,NaN,NA,left,1271,1,2,1231
w5Q6SuOv,NA,NA,w5Q6SuOv,2020-0188,2021-11-01,22:51:37,00:35:20,NA,incomplete,true,NA,true,0,26,NA,NA,left,NA,NA,i_c_015.jpg,i_s_022.jpg,between-small,NA,NaN,NA,left,1545,1,2,2352.0000000001164
w5Q6SuOv,NA,NA,w5Q6SuOv,2020-0188,2021-11-01,22:51:37,00:35:20,NA,incomplete,false,true,NA,1,0,building,o_c_015.jpg,right,skyscraper,cottage,NA,NA,NA,right,1283,true,NA,NA,NA,NA,NA
w5Q6SuOv,NA,NA,w5Q6SuOv,2020-0188,2021-11-01,22:51:37,00:35:20,NA,incomplete,false,true,NA,1,1,building,o_s_002.jpg,right,cottage,skyscraper,NA,NA,NA,right,1460.99999999988,true,NA,NA,NA,NA,NA
w5Q6SuOv,NA,NA,w5Q6SuOv,2020-0188,2021-11-01,22:51:37,00:35:20,NA,incomplete,false,true,NA,1,2,building,i_c_020.jpg,right,skyscraper,cottage,NA,NA,NA,right,1750,true,NA,NA,NA,NA,NA
w5Q6SuOv,NA,NA,w5Q6SuOv,2020-0188,2021-11-01,22:51:37,00:35:20,NA,incomplete,false,true,NA,1,3,building,o_s_007.jpg,left,skyscraper,cottage,NA,NA,NA,left,1380.99999999988,true,NA,NA,NA,NA,NA
w5Q6SuOv,NA,NA,w5Q6SuOv,2020-0188,2021-11-01,22:51:37,00:35:20,NA,incomplete,false,true,NA,1,4,building,i_c_021.jpg,right,skyscraper,cottage,NA,NA,NA,right,1195,true,NA,NA,NA,NA,NA
w5Q6SuOv,NA,NA,w5Q6SuOv,2020-0188,2021-11-01,22:51:37,00:35:20,NA,incomplete,false,true,NA,1,5,location,o_c_024.jpg,right,indoor,outdoor,NA,NA,NA,right,1881,true,NA,NA,NA,NA,NA
w5Q6SuOv,NA,NA,w5Q6SuOv,2020-0188,2021-11-01,22:51:37,00:35:20,NA,incomplete,false,true,NA,1,6,location,o_c_010.jpg,right,indoor,outdoor,NA,NA,NA,right,1594,true,NA,NA,NA,NA,NA
w5Q6SuOv,NA,NA,w5Q6SuOv,2020-0188,2021-11-01,22:51:37,00:35:20,NA,incomplete,false,true,NA,1,7,location,o_s_001.jpg,right,indoor,outdoor,NA,NA,NA,right,1397,true,NA,NA,NA,NA,NA
w5Q6SuOv,NA,NA,w5Q6SuOv,2020-0188,2021-11-01,22:51:37,00:35:20,NA,incomplete,false,true,NA,1,8,location,o_s_016.jpg,left,outdoor,indoor,NA,NA,NA,left,1177.00000000012,true,NA,NA,NA,NA,NA
w5Q6SuOv,NA,NA,w5Q6SuOv,2020-0188,2021-11-01,22:51:37,00:35:20,NA,incomplete,false,true,NA,1,9,location,i_s_014.jpg,right,outdoor,indoor,NA,NA,NA,right,2117.99999999988,true,NA,NA,NA,NA,NA
w5Q6SuOv,NA,NA,w5Q6SuOv,2020-0188,2021-11-01,22:51:37,00:35:20,NA,incomplete,false,true,NA,1,10,abstractness,a_1_003.jpg,right,concrete,abstract,NA,NA,NA,right,2035.99999999988,true,NA,NA,NA,NA,NA
w5Q6SuOv,NA,NA,w5Q6SuOv,2020-0188,2021-11-01,22:51:37,00:35:20,NA,incomplete,false,true,NA,1,11,abstractness,a_1_012.jpg,left,abstract,concrete,NA,NA,NA,left,2106,true,NA,NA,NA,NA,NA
w5Q6SuOv,NA,NA,w5Q6SuOv,2020-0188,2021-11-01,22:51:37,00:35:20,NA,incomplete,false,true,NA,1,12,abstractness,a_2_024.jpg,left,abstract,concrete,NA,NA,NA,left,1387,true,NA,NA,NA,NA,NA
w5Q6SuOv,NA,NA,w5Q6SuOv,2020-0188,2021-11-01,22:51:37,00:35:20,NA,incomplete,false,true,NA,1,13,abstractness,a_1_001.jpg,left,abstract,concrete,NA,NA,NA,left,1330,true,NA,NA,NA,NA,NA
w5Q6SuOv,NA,NA,w5Q6SuOv,2020-0188,2021-11-01,22:51:37,00:35:20,NA,incomplete,false,true,NA,1,14,abstractness,a_1_020.jpg,left,abstract,concrete,NA,NA,NA,left,1871.99999999977,true,NA,NA,NA,NA,NA
w5Q6SuOv,NA,NA,w5Q6SuOv,2020-0188,2021-11-01,22:51:37,00:35:20,NA,incomplete,false,true,NA,1,15,syllable,a_1_022.jpg,right,2 syllables,1 syllable,NA,NA,NA,right,1841.00000000023,true,NA,NA,NA,NA,NA
w5Q6SuOv,NA,NA,w5Q6SuOv,2020-0188,2021-11-01,22:51:37,00:35:20,NA,incomplete,false,true,NA,1,16,syllable,c_1_027.jpg,right,2 syllables,1 syllable,NA,NA,NA,right,1680,true,NA,NA,NA,NA,NA
w5Q6SuOv,NA,NA,w5Q6SuOv,2020-0188,2021-11-01,22:51:37,00:35:20,NA,incomplete,false,true,NA,1,17,syllable,c_2_023.jpg,right,1 syllable,2 syllables,NA,NA,NA,right,2140,true,NA,NA,NA,NA,NA
w5Q6SuOv,NA,NA,w5Q6SuOv,2020-0188,2021-11-01,22:51:37,00:35:20,NA,incomplete,false,true,NA,1,18,syllable,c_1_021.jpg,right,2 syllables,1 syllable,NA,NA,NA,right,1399,true,NA,NA,NA,NA,NA
w5Q6SuOv,NA,NA,w5Q6SuOv,2020-0188,2021-11-01,22:51:37,00:35:20,NA,incomplete,false,true,NA,1,19,syllable,a_2_012.jpg,right,2 syllables,1 syllable,NA,NA,NA,left,1285,false,NA,NA,NA,NA,NA
w5Q6SuOv,NA,NA,w5Q6SuOv,2020-0188,2021-11-01,22:51:37,00:35:20,NA,incomplete,false,true,NA,1,20,size,n_s_013.jpg,left,small,large,NA,NA,NA,left,1470,true,NA,NA,NA,NA,NA
w5Q6SuOv,NA,NA,w5Q6SuOv,2020-0188,2021-11-01,22:51:37,00:35:20,NA,incomplete,false,true,NA,1,21,size,m_s_017.jpg,right,large,small,NA,NA,NA,right,1324,true,NA,NA,NA,NA,NA
w5Q6SuOv,NA,NA,w5Q6SuOv,2020-0188,2021-11-01,22:51:37,00:35:20,NA,incomplete,false,true,NA,1,22,size,n_s_023.jpg,right,large,small,NA,NA,NA,right,1124,true,NA,NA,NA,NA,NA
w5Q6SuOv,NA,NA,w5Q6SuOv,2020-0188,2021-11-01,22:51:37,00:35:20,NA,incomplete,false,true,NA,1,23,size,m_s_002.jpg,left,small,large,NA,NA,NA,left,1402,true,NA,NA,NA,NA,NA
w5Q6SuOv,NA,NA,w5Q6SuOv,2020-0188,2021-11-01,22:51:37,00:35:20,NA,incomplete,false,true,NA,1,24,size,m_l_015.jpg,left,large,small,NA,NA,NA,left,1837,true,NA,NA,NA,NA,NA
w5Q6SuOv,NA,NA,w5Q6SuOv,2020-0188,2021-11-01,22:51:37,00:35:20,NA,incomplete,false,true,NA,1,25,origin,m_s_010.jpg,left,manmade,natural,NA,NA,NA,left,1825,true,NA,NA,NA,NA,NA
w5Q6SuOv,NA,NA,w5Q6SuOv,2020-0188,2021-11-01,22:51:37,00:35:20,NA,incomplete,false,true,NA,1,26,origin,m_l_006.jpg,left,manmade,natural,NA,NA,NA,left,1529,true,NA,NA,NA,NA,NA
w5Q6SuOv,NA,NA,w5Q6SuOv,2020-0188,2021-11-01,22:51:37,00:35:20,NA,incomplete,false,true,NA,1,27,origin,n_l_004.jpg,right,manmade,natural,NA,NA,NA,right,2010,true,NA,NA,NA,NA,NA
w5Q6SuOv,NA,NA,w5Q6SuOv,2020-0188,2021-11-01,22:51:37,00:35:20,NA,incomplete,false,true,NA,1,28,origin,n_l_026.jpg,right,manmade,natural,NA,NA,NA,left,2342,false,NA,NA,NA,NA,NA
w5Q6SuOv,NA,NA,w5Q6SuOv,2020-0188,2021-11-01,22:51:37,00:35:20,NA,incomplete,false,true,NA,1,29,origin,m_l_020.jpg,left,manmade,natural,NA,NA,NA,left,1921,true,NA,NA,NA,NA,NA
w5Q6SuOv,NA,NA,w5Q6SuOv,2020-0188,2021-11-01,22:51:37,00:35:20,NA,incomplete,false,NA,true,1,0,NA,NA,left,NA,NA,m_s_002.jpg,m_l_006.jpg,between-small,NA,NaN,NA,left,4383,1,1,1601
w5Q6SuOv,NA,NA,w5Q6SuOv,2020-0188,2021-11-01,22:51:37,00:35:20,NA,incomplete,false,NA,true,1,1,NA,NA,left,NA,NA,m_l_015.jpg,n_l_004.jpg,between-small,NA,NaN,NA,right,1856,0,1,1635
w5Q6SuOv,NA,NA,w5Q6SuOv,2020-0188,2021-11-01,22:51:37,00:35:20,NA,incomplete,false,NA,true,1,2,NA,NA,left,NA,NA,a_1_003.jpg,a_1_001.jpg,within,NA,NaN,NA,left,2750,1,1,2303
w5Q6SuOv,NA,NA,w5Q6SuOv,2020-0188,2021-11-01,22:51:37,00:35:20,NA,incomplete,false,NA,true,1,3,NA,NA,right,NA,NA,a_1_020.jpg,a_1_012.jpg,within,NA,NaN,NA,right,2114,1,0,1237
w5Q6SuOv,NA,NA,w5Q6SuOv,2020-0188,2021-11-01,22:51:37,00:35:20,NA,incomplete,false,NA,true,1,4,NA,NA,right,NA,NA,n_l_026.jpg,m_s_010.jpg,within,NA,NaN,NA,right,2724.000000000233,1,1,1237.9999999997672
w5Q6SuOv,NA,NA,w5Q6SuOv,2020-0188,2021-11-01,22:51:37,00:35:20,NA,incomplete,false,NA,true,1,5,NA,NA,left,NA,NA,o_s_007.jpg,o_c_010.jpg,between-small,NA,NaN,NA,right,3441.000000000233,0,1,1096
w5Q6SuOv,NA,NA,w5Q6SuOv,2020-0188,2021-11-01,22:51:37,00:35:20,NA,incomplete,false,NA,true,1,6,NA,NA,right,NA,NA,a_2_024.jpg,i_s_014.jpg,between-big,NA,NaN,NA,right,1172,1,2,2054
w5Q6SuOv,NA,NA,w5Q6SuOv,2020-0188,2021-11-01,22:51:37,00:35:20,NA,incomplete,false,NA,true,1,7,NA,NA,left,NA,NA,i_c_021.jpg,o_s_001.jpg,between-small,NA,NaN,NA,left,4905,1,2,1386
w5Q6SuOv,NA,NA,w5Q6SuOv,2020-0188,2021-11-01,22:51:37,00:35:20,NA,incomplete,false,NA,true,1,8,NA,NA,left,NA,NA,o_s_002.jpg,i_c_021.jpg,within,NA,NaN,NA,left,1748.9999999997672,1,1,2122
w5Q6SuOv,NA,NA,w5Q6SuOv,2020-0188,2021-11-01,22:51:37,00:35:20,NA,incomplete,false,NA,true,1,9,NA,NA,left,NA,NA,a_1_022.jpg,c_1_021.jpg,within,NA,NaN,NA,left,2195.000000000233,1,2,1866
w5Q6SuOv,NA,NA,w5Q6SuOv,2020-0188,2021-11-01,22:51:37,00:35:20,NA,incomplete,false,NA,true,1,10,NA,NA,left,NA,NA,n_s_013.jpg,m_s_002.jpg,within,NA,NaN,NA,left,2154,1,1,908
w5Q6SuOv,NA,NA,w5Q6SuOv,2020-0188,2021-11-01,22:51:37,00:35:20,NA,incomplete,false,NA,true,1,11,NA,NA,left,NA,NA,o_c_024.jpg,o_s_016.jpg,within,NA,NaN,NA,left,2535,1,2,848.9999999997672
w5Q6SuOv,NA,NA,w5Q6SuOv,2020-0188,2021-11-01,22:51:37,00:35:20,NA,incomplete,false,NA,true,1,12,NA,NA,right,NA,NA,m_s_010.jpg,n_s_023.jpg,between-small,NA,NaN,NA,right,5721,1,2,907
w5Q6SuOv,NA,NA,w5Q6SuOv,2020-0188,2021-11-01,22:51:37,00:35:20,NA,incomplete,false,NA,true,1,13,NA,NA,right,NA,NA,i_s_014.jpg,o_c_010.jpg,within,NA,NaN,NA,right,2155,1,2,1915
w5Q6SuOv,NA,NA,w5Q6SuOv,2020-0188,2021-11-01,22:51:37,00:35:20,NA,incomplete,false,NA,true,1,14,NA,NA,right,NA,NA,m_l_015.jpg,m_s_017.jpg,within,NA,NaN,NA,right,2915,1,2,1279
w5Q6SuOv,NA,NA,w5Q6SuOv,2020-0188,2021-11-01,22:51:37,00:35:20,NA,incomplete,false,NA,true,1,15,NA,NA,left,NA,NA,c_1_021.jpg,m_s_017.jpg,between-big,NA,NaN,NA,left,8016,1,2,750
w5Q6SuOv,NA,NA,w5Q6SuOv,2020-0188,2021-11-01,22:51:37,00:35:20,NA,incomplete,false,NA,true,1,16,NA,NA,left,NA,NA,c_1_027.jpg,a_2_012.jpg,within,NA,NaN,NA,left,2419,1,1,2345.000000000233
w5Q6SuOv,NA,NA,w5Q6SuOv,2020-0188,2021-11-01,22:51:37,00:35:20,NA,incomplete,false,NA,true,1,17,NA,NA,right,NA,NA,n_s_013.jpg,c_2_023.jpg,between-big,NA,NaN,NA,right,12340.999999999767,1,2,1742
w5Q6SuOv,NA,NA,w5Q6SuOv,2020-0188,2021-11-01,22:51:37,00:35:20,NA,incomplete,false,NA,true,1,18,NA,NA,left,NA,NA,i_c_020.jpg,o_c_024.jpg,between-small,NA,NaN,NA,left,3475,1,1,1056
w5Q6SuOv,NA,NA,w5Q6SuOv,2020-0188,2021-11-01,22:51:37,00:35:20,NA,incomplete,false,NA,true,1,19,NA,NA,left,NA,NA,a_2_012.jpg,n_s_023.jpg,between-big,NA,NaN,NA,left,2081,1,2,1354.0000000002328
w5Q6SuOv,NA,NA,w5Q6SuOv,2020-0188,2021-11-01,22:51:37,00:35:20,NA,incomplete,false,NA,true,1,20,NA,NA,right,NA,NA,m_l_020.jpg,m_l_006.jpg,within,NA,NaN,NA,right,2898,1,0,1842
w5Q6SuOv,NA,NA,w5Q6SuOv,2020-0188,2021-11-01,22:51:37,00:35:20,NA,incomplete,false,NA,true,1,21,NA,NA,right,NA,NA,a_1_003.jpg,o_s_001.jpg,between-big,NA,NaN,NA,left,1718,0,3,842
w5Q6SuOv,NA,NA,w5Q6SuOv,2020-0188,2021-11-01,22:51:37,00:35:20,NA,incomplete,false,NA,true,1,22,NA,NA,right,NA,NA,a_1_022.jpg,a_2_024.jpg,between-small,NA,NaN,NA,right,1609,1,1,1033
w5Q6SuOv,NA,NA,w5Q6SuOv,2020-0188,2021-11-01,22:51:37,00:35:20,NA,incomplete,false,NA,true,1,23,NA,NA,left,NA,NA,o_c_015.jpg,o_s_007.jpg,within,NA,NaN,NA,left,1419,1,3,1204.9999999997672
w5Q6SuOv,NA,NA,w5Q6SuOv,2020-0188,2021-11-01,22:51:37,00:35:20,NA,incomplete,false,NA,true,1,24,NA,NA,right,NA,NA,a_1_012.jpg,o_s_016.jpg,between-big,NA,NaN,NA,left,1280,0,3,851
w5Q6SuOv,NA,NA,w5Q6SuOv,2020-0188,2021-11-01,22:51:37,00:35:20,NA,incomplete,false,NA,true,1,25,NA,NA,right,NA,NA,c_1_027.jpg,a_1_001.jpg,between-small,NA,NaN,NA,left,1147,0,0,1835
w5Q6SuOv,NA,NA,w5Q6SuOv,2020-0188,2021-11-01,22:51:37,00:35:20,NA,incomplete,false,NA,true,1,26,NA,NA,right,NA,NA,c_2_023.jpg,a_1_020.jpg,between-small,NA,NaN,NA,right,1248,1,1,1146
w5Q6SuOv,NA,NA,w5Q6SuOv,2020-0188,2021-11-01,22:51:37,00:35:20,NA,incomplete,false,true,NA,2,0,abstractness,a_2_005.jpg,right,concrete,abstract,NA,NA,NA,right,2304,true,NA,NA,NA,NA,NA
w5Q6SuOv,NA,NA,w5Q6SuOv,2020-0188,2021-11-01,22:51:37,00:35:20,NA,incomplete,false,true,NA,2,1,abstractness,c_1_020.jpg,left,concrete,abstract,NA,NA,NA,left,1619.00000000023,true,NA,NA,NA,NA,NA
w5Q6SuOv,NA,NA,w5Q6SuOv,2020-0188,2021-11-01,22:51:37,00:35:20,NA,incomplete,false,true,NA,2,2,abstractness,c_2_012.jpg,left,concrete,abstract,NA,NA,NA,left,1448.99999999977,true,NA,NA,NA,NA,NA
w5Q6SuOv,NA,NA,w5Q6SuOv,2020-0188,2021-11-01,22:51:37,00:35:20,NA,incomplete,false,true,NA,2,3,abstractness,c_1_016.jpg,right,abstract,concrete,NA,NA,NA,right,2441,true,NA,NA,NA,NA,NA
w5Q6SuOv,NA,NA,w5Q6SuOv,2020-0188,2021-11-01,22:51:37,00:35:20,NA,incomplete,false,true,NA,2,4,abstractness,c_1_017.jpg,left,concrete,abstract,NA,NA,NA,left,1905.99999999977,true,NA,NA,NA,NA,NA
w5Q6SuOv,NA,NA,w5Q6SuOv,2020-0188,2021-11-01,22:51:37,00:35:20,NA,incomplete,false,true,NA,2,5,syllable,a_1_010.jpg,right,2 syllables,1 syllable,NA,NA,NA,right,1616,true,NA,NA,NA,NA,NA
w5Q6SuOv,NA,NA,w5Q6SuOv,2020-0188,2021-11-01,22:51:37,00:35:20,NA,incomplete,false,true,NA,2,6,syllable,a_1_028.jpg,right,1 syllable,2 syllables,NA,NA,NA,left,1352,false,NA,NA,NA,NA,NA
w5Q6SuOv,NA,NA,w5Q6SuOv,2020-0188,2021-11-01,22:51:37,00:35:20,NA,incomplete,false,true,NA,2,7,syllable,c_1_026.jpg,right,1 syllable,2 syllables,NA,NA,NA,left,1046,false,NA,NA,NA,NA,NA
w5Q6SuOv,NA,NA,w5Q6SuOv,2020-0188,2021-11-01,22:51:37,00:35:20,NA,incomplete,false,true,NA,2,8,syllable,c_1_007.jpg,right,1 syllable,2 syllables,NA,NA,NA,left,1266,false,NA,NA,NA,NA,NA
w5Q6SuOv,NA,NA,w5Q6SuOv,2020-0188,2021-11-01,22:51:37,00:35:20,NA,incomplete,false,true,NA,2,9,syllable,a_1_009.jpg,right,2 syllables,1 syllable,NA,NA,NA,right,1117,true,NA,NA,NA,NA,NA
w5Q6SuOv,NA,NA,w5Q6SuOv,2020-0188,2021-11-01,22:51:37,00:35:20,NA,incomplete,false,true,NA,2,10,origin,n_s_012.jpg,right,manmade,natural,NA,NA,NA,right,1760.99999999977,true,NA,NA,NA,NA,NA
w5Q6SuOv,NA,NA,w5Q6SuOv,2020-0188,2021-11-01,22:51:37,00:35:20,NA,incomplete,false,true,NA,2,11,origin,m_l_002.jpg,left,manmade,natural,NA,NA,NA,left,1344,true,NA,NA,NA,NA,NA
w5Q6SuOv,NA,NA,w5Q6SuOv,2020-0188,2021-11-01,22:51:37,00:35:20,NA,incomplete,false,true,NA,2,12,origin,m_s_024.jpg,right,natural,manmade,NA,NA,NA,right,1278,true,NA,NA,NA,NA,NA
w5Q6SuOv,NA,NA,w5Q6SuOv,2020-0188,2021-11-01,22:51:37,00:35:20,NA,incomplete,false,true,NA,2,13,origin,n_l_027.jpg,left,natural,manmade,NA,NA,NA,left,2125,true,NA,NA,NA,NA,NA
w5Q6SuOv,NA,NA,w5Q6SuOv,2020-0188,2021-11-01,22:51:37,00:35:20,NA,incomplete,false,true,NA,2,14,origin,m_s_015.jpg,right,natural,manmade,NA,NA,NA,right,2226,true,NA,NA,NA,NA,NA
w5Q6SuOv,NA,NA,w5Q6SuOv,2020-0188,2021-11-01,22:51:37,00:35:20,NA,incomplete,false,true,NA,2,15,size,m_s_004.jpg,right,large,small,NA,NA,NA,right,1640,true,NA,NA,NA,NA,NA
w5Q6SuOv,NA,NA,w5Q6SuOv,2020-0188,2021-11-01,22:51:37,00:35:20,NA,incomplete,false,true,NA,2,16,size,m_l_021.jpg,left,large,small,NA,NA,NA,left,1203,true,NA,NA,NA,NA,NA
w5Q6SuOv,NA,NA,w5Q6SuOv,2020-0188,2021-11-01,22:51:37,00:35:20,NA,incomplete,false,true,NA,2,17,size,m_s_023.jpg,right,large,small,NA,NA,NA,right,1318,true,NA,NA,NA,NA,NA
w5Q6SuOv,NA,NA,w5Q6SuOv,2020-0188,2021-11-01,22:51:37,00:35:20,NA,incomplete,false,true,NA,2,18,size,m_s_013.jpg,left,small,large,NA,NA,NA,left,1478.00000000023,true,NA,NA,NA,NA,NA
w5Q6SuOv,NA,NA,w5Q6SuOv,2020-0188,2021-11-01,22:51:37,00:35:20,NA,incomplete,false,true,NA,2,19,size,m_l_004.jpg,left,large,small,NA,NA,NA,left,1659,true,NA,NA,NA,NA,NA
w5Q6SuOv,NA,NA,w5Q6SuOv,2020-0188,2021-11-01,22:51:37,00:35:20,NA,incomplete,false,true,NA,2,20,building,i_c_009.jpg,right,skyscraper,cottage,NA,NA,NA,right,1564,true,NA,NA,NA,NA,NA
w5Q6SuOv,NA,NA,w5Q6SuOv,2020-0188,2021-11-01,22:51:37,00:35:20,NA,incomplete,false,true,NA,2,21,building,o_c_001.jpg,right,skyscraper,cottage,NA,NA,NA,right,1740,true,NA,NA,NA,NA,NA
w5Q6SuOv,NA,NA,w5Q6SuOv,2020-0188,2021-11-01,22:51:37,00:35:20,NA,incomplete,false,true,NA,2,22,building,o_c_020.jpg,left,cottage,skyscraper,NA,NA,NA,left,1035,true,NA,NA,NA,NA,NA
w5Q6SuOv,NA,NA,w5Q6SuOv,2020-0188,2021-11-01,22:51:37,00:35:20,NA,incomplete,false,true,NA,2,23,building,o_c_008.jpg,left,cottage,skyscraper,NA,NA,NA,left,1427.00000000023,true,NA,NA,NA,NA,NA
w5Q6SuOv,NA,NA,w5Q6SuOv,2020-0188,2021-11-01,22:51:37,00:35:20,NA,incomplete,false,true,NA,2,24,building,i_s_027.jpg,right,cottage,skyscraper,NA,NA,NA,right,2255,true,NA,NA,NA,NA,NA
w5Q6SuOv,NA,NA,w5Q6SuOv,2020-0188,2021-11-01,22:51:37,00:35:20,NA,incomplete,false,true,NA,2,25,location,i_s_015.jpg,left,indoor,outdoor,NA,NA,NA,left,1469,true,NA,NA,NA,NA,NA
w5Q6SuOv,NA,NA,w5Q6SuOv,2020-0188,2021-11-01,22:51:37,00:35:20,NA,incomplete,false,true,NA,2,26,location,o_s_025.jpg,right,indoor,outdoor,NA,NA,NA,right,1427,true,NA,NA,NA,NA,NA
w5Q6SuOv,NA,NA,w5Q6SuOv,2020-0188,2021-11-01,22:51:37,00:35:20,NA,incomplete,false,true,NA,2,27,location,i_s_026.jpg,left,indoor,outdoor,NA,NA,NA,left,1384,true,NA,NA,NA,NA,NA
w5Q6SuOv,NA,NA,w5Q6SuOv,2020-0188,2021-11-01,22:51:37,00:35:20,NA,incomplete,false,true,NA,2,28,location,i_s_005.jpg,right,outdoor,indoor,NA,NA,NA,right,1439.00000000023,true,NA,NA,NA,NA,NA
w5Q6SuOv,NA,NA,w5Q6SuOv,2020-0188,2021-11-01,22:51:37,00:35:20,NA,incomplete,false,true,NA,2,29,location,o_s_026.jpg,left,outdoor,indoor,NA,NA,NA,left,1467.99999999977,true,NA,NA,NA,NA,NA
w5Q6SuOv,NA,NA,w5Q6SuOv,2020-0188,2021-11-01,22:51:37,00:35:20,NA,incomplete,false,NA,true,2,0,NA,NA,left,NA,NA,o_s_025.jpg,o_s_026.jpg,within,NA,NaN,NA,right,4076,0,1,4927
w5Q6SuOv,NA,NA,w5Q6SuOv,2020-0188,2021-11-01,22:51:37,00:35:20,NA,incomplete,false,NA,true,2,1,NA,NA,right,NA,NA,o_s_025.jpg,o_c_008.jpg,between-small,NA,NaN,NA,right,5432,1,1,1362.0000000002328
w5Q6SuOv,NA,NA,w5Q6SuOv,2020-0188,2021-11-01,22:51:37,00:35:20,NA,incomplete,false,NA,true,2,2,NA,NA,right,NA,NA,o_c_020.jpg,m_l_004.jpg,between-big,NA,NaN,NA,left,3186.000000000233,0,2,1808
w5Q6SuOv,NA,NA,w5Q6SuOv,2020-0188,2021-11-01,22:51:37,00:35:20,NA,incomplete,false,NA,true,2,3,NA,NA,left,NA,NA,m_l_021.jpg,m_l_004.jpg,within,NA,NaN,NA,left,2848,1,1,1493
w5Q6SuOv,NA,NA,w5Q6SuOv,2020-0188,2021-11-01,22:51:37,00:35:20,NA,incomplete,false,NA,true,2,4,NA,NA,right,NA,NA,m_s_023.jpg,m_s_015.jpg,between-small,NA,NaN,NA,left,2128,0,0,2451
w5Q6SuOv,NA,NA,w5Q6SuOv,2020-0188,2021-11-01,22:51:37,00:35:20,NA,incomplete,false,NA,true,2,5,NA,NA,right,NA,NA,c_1_017.jpg,c_1_020.jpg,within,NA,NaN,NA,right,1915,1,1,1411
w5Q6SuOv,NA,NA,w5Q6SuOv,2020-0188,2021-11-01,22:51:37,00:35:20,NA,incomplete,false,NA,true,2,6,NA,NA,right,NA,NA,m_s_004.jpg,m_s_024.jpg,between-small,NA,NaN,NA,right,898.9999999997672,1,1,1784
w5Q6SuOv,NA,NA,w5Q6SuOv,2020-0188,2021-11-01,22:51:37,00:35:20,NA,incomplete,false,NA,true,2,7,NA,NA,right,NA,NA,m_l_021.jpg,n_l_027.jpg,between-small,NA,NaN,NA,left,1601,0,2,5374.000000000233
w5Q6SuOv,NA,NA,w5Q6SuOv,2020-0188,2021-11-01,22:51:37,00:35:20,NA,incomplete,false,NA,true,2,8,NA,NA,right,NA,NA,n_s_012.jpg,c_1_026.jpg,between-big,NA,NaN,NA,left,2281,0,1,2198
w5Q6SuOv,NA,NA,w5Q6SuOv,2020-0188,2021-11-01,22:51:37,00:35:20,NA,incomplete,false,NA,true,2,9,NA,NA,right,NA,NA,m_l_002.jpg,c_1_007.jpg,between-big,NA,NaN,NA,left,1956,0,2,2293
w5Q6SuOv,NA,NA,w5Q6SuOv,2020-0188,2021-11-01,22:51:37,00:35:20,NA,incomplete,false,NA,true,2,10,NA,NA,right,NA,NA,a_1_028.jpg,c_1_016.jpg,between-small,NA,NaN,NA,left,7965.999999999767,0,0,1997
w5Q6SuOv,NA,NA,w5Q6SuOv,2020-0188,2021-11-01,22:51:37,00:35:20,NA,incomplete,false,NA,true,2,11,NA,NA,right,NA,NA,i_c_009.jpg,m_s_023.jpg,between-big,NA,NaN,NA,right,6090.999999999767,1,2,956.9999999997672
w5Q6SuOv,NA,NA,w5Q6SuOv,2020-0188,2021-11-01,22:51:37,00:35:20,NA,incomplete,false,NA,true,2,12,NA,NA,right,NA,NA,i_s_026.jpg,i_s_027.jpg,between-small,NA,NaN,NA,right,3923,1,0,1478.0000000002328
w5Q6SuOv,NA,NA,w5Q6SuOv,2020-0188,2021-11-01,22:51:37,00:35:20,NA,incomplete,false,NA,true,2,13,NA,NA,right,NA,NA,c_1_026.jpg,c_1_017.jpg,between-small,NA,NaN,NA,left,6186.999999999767,0,0,2220
w5Q6SuOv,NA,NA,w5Q6SuOv,2020-0188,2021-11-01,22:51:37,00:35:20,NA,incomplete,false,NA,true,2,14,NA,NA,left,NA,NA,c_2_012.jpg,a_1_010.jpg,between-small,NA,NaN,NA,left,4300,1,0,2733.000000000233
w5Q6SuOv,NA,NA,w5Q6SuOv,2020-0188,2021-11-01,22:51:37,00:35:20,NA,incomplete,false,NA,true,2,15,NA,NA,left,NA,NA,m_s_004.jpg,m_s_013.jpg,within,NA,NaN,NA,right,5136,0,1,2111
w5Q6SuOv,NA,NA,w5Q6SuOv,2020-0188,2021-11-01,22:51:37,00:35:20,NA,incomplete,false,NA,true,2,16,NA,NA,left,NA,NA,i_c_009.jpg,o_c_008.jpg,within,NA,NaN,NA,right,5190,0,1,1195.9999999997672
w5Q6SuOv,NA,NA,w5Q6SuOv,2020-0188,2021-11-01,22:51:37,00:35:20,NA,incomplete,false,NA,true,2,17,NA,NA,right,NA,NA,n_l_027.jpg,n_s_012.jpg,within,NA,NaN,NA,right,4350.999999999767,1,1,1288
w5Q6SuOv,NA,NA,w5Q6SuOv,2020-0188,2021-11-01,22:51:37,00:35:20,NA,incomplete,false,NA,true,2,18,NA,NA,left,NA,NA,a_1_009.jpg,m_s_024.jpg,between-big,NA,NaN,NA,left,6952.999999999767,1,2,4358.000000000233
w5Q6SuOv,NA,NA,w5Q6SuOv,2020-0188,2021-11-01,22:51:37,00:35:20,NA,incomplete,false,NA,true,2,19,NA,NA,right,NA,NA,c_1_016.jpg,a_2_005.jpg,within,NA,NaN,NA,right,4203,1,1,2187
w5Q6SuOv,NA,NA,w5Q6SuOv,2020-0188,2021-11-01,22:51:37,00:35:20,NA,incomplete,false,NA,true,2,20,NA,NA,left,NA,NA,o_c_020.jpg,i_s_015.jpg,between-small,NA,NaN,NA,left,2825,1,2,2584
w5Q6SuOv,NA,NA,w5Q6SuOv,2020-0188,2021-11-01,22:51:37,00:35:20,NA,incomplete,false,NA,true,2,21,NA,NA,left,NA,NA,a_1_028.jpg,a_1_009.jpg,within,NA,NaN,NA,left,2057,1,1,1263.9999999997672
w5Q6SuOv,NA,NA,w5Q6SuOv,2020-0188,2021-11-01,22:51:37,00:35:20,NA,incomplete,false,NA,true,2,22,NA,NA,right,NA,NA,o_c_001.jpg,m_s_013.jpg,between-big,NA,NaN,NA,left,2494,0,2,1643.0000000002328
w5Q6SuOv,NA,NA,w5Q6SuOv,2020-0188,2021-11-01,22:51:37,00:35:20,NA,incomplete,false,NA,true,2,23,NA,NA,right,NA,NA,i_s_027.jpg,o_c_001.jpg,within,NA,NaN,NA,left,6854,0,1,1495
w5Q6SuOv,NA,NA,w5Q6SuOv,2020-0188,2021-11-01,22:51:37,00:35:20,NA,incomplete,false,NA,true,2,24,NA,NA,right,NA,NA,m_s_015.jpg,m_l_002.jpg,within,NA,NaN,NA,right,2227,1,2,1023.9999999997672
w5Q6SuOv,NA,NA,w5Q6SuOv,2020-0188,2021-11-01,22:51:37,00:35:20,NA,incomplete,false,NA,true,2,25,NA,NA,left,NA,NA,i_s_015.jpg,i_s_005.jpg,within,NA,NaN,NA,left,6034,1,1,1198
w5Q6SuOv,NA,NA,w5Q6SuOv,2020-0188,2021-11-01,22:51:37,00:35:20,NA,incomplete,false,NA,true,2,26,NA,NA,right,NA,NA,c_1_007.jpg,a_1_010.jpg,within,NA,NaN,NA,right,1121,1,1,2056
w5Q6SuOv,NA,NA,w5Q6SuOv,2020-0188,2021-11-01,22:51:37,00:35:20,NA,incomplete,false,true,NA,3,0,syllable,c_2_004.jpg,right,1 syllable,2 syllables,NA,NA,NA,right,1841,true,NA,NA,NA,NA,NA
w5Q6SuOv,NA,NA,w5Q6SuOv,2020-0188,2021-11-01,22:51:37,00:35:20,NA,incomplete,false,true,NA,3,1,syllable,a_1_011.jpg,right,1 syllable,2 syllables,NA,NA,NA,left,1172,false,NA,NA,NA,NA,NA
w5Q6SuOv,NA,NA,w5Q6SuOv,2020-0188,2021-11-01,22:51:37,00:35:20,NA,incomplete,false,true,NA,3,2,syllable,c_2_001.jpg,right,2 syllables,1 syllable,NA,NA,NA,left,1278.00000000023,false,NA,NA,NA,NA,NA
w5Q6SuOv,NA,NA,w5Q6SuOv,2020-0188,2021-11-01,22:51:37,00:35:20,NA,incomplete,false,true,NA,3,3,syllable,a_2_027.jpg,right,1 syllable,2 syllables,NA,NA,NA,right,1409.99999999977,true,NA,NA,NA,NA,NA
w5Q6SuOv,NA,NA,w5Q6SuOv,2020-0188,2021-11-01,22:51:37,00:35:20,NA,incomplete,false,true,NA,3,4,syllable,c_2_025.jpg,right,1 syllable,2 syllables,NA,NA,NA,right,1666.00000000023,true,NA,NA,NA,NA,NA
w5Q6SuOv,NA,NA,w5Q6SuOv,2020-0188,2021-11-01,22:51:37,00:35:20,NA,incomplete,false,true,NA,3,5,abstractness,c_2_022.jpg,right,abstract,concrete,NA,NA,NA,right,2254.99999999977,true,NA,NA,NA,NA,NA
w5Q6SuOv,NA,NA,w5Q6SuOv,2020-0188,2021-11-01,22:51:37,00:35:20,NA,incomplete,false,true,NA,3,6,abstractness,c_1_025.jpg,left,concrete,abstract,NA,NA,NA,left,1930,true,NA,NA,NA,NA,NA
w5Q6SuOv,NA,NA,w5Q6SuOv,2020-0188,2021-11-01,22:51:37,00:35:20,NA,incomplete,false,true,NA,3,7,abstractness,c_2_017.jpg,right,abstract,concrete,NA,NA,NA,right,2396.00000000047,true,NA,NA,NA,NA,NA
w5Q6SuOv,NA,NA,w5Q6SuOv,2020-0188,2021-11-01,22:51:37,00:35:20,NA,incomplete,false,true,NA,3,8,abstractness,c_2_027.jpg,left,concrete,abstract,NA,NA,NA,left,2327,true,NA,NA,NA,NA,NA
w5Q6SuOv,NA,NA,w5Q6SuOv,2020-0188,2021-11-01,22:51:37,00:35:20,NA,incomplete,false,true,NA,3,9,abstractness,c_1_008.jpg,right,abstract,concrete,NA,NA,NA,right,1472,true,NA,NA,NA,NA,NA
w5Q6SuOv,NA,NA,w5Q6SuOv,2020-0188,2021-11-01,22:51:37,00:35:20,NA,incomplete,false,true,NA,3,10,size,m_l_027.jpg,right,small,large,NA,NA,NA,right,2113,true,NA,NA,NA,NA,NA
w5Q6SuOv,NA,NA,w5Q6SuOv,2020-0188,2021-11-01,22:51:37,00:35:20,NA,incomplete,false,true,NA,3,11,size,n_s_022.jpg,left,small,large,NA,NA,NA,left,1688,true,NA,NA,NA,NA,NA
w5Q6SuOv,NA,NA,w5Q6SuOv,2020-0188,2021-11-01,22:51:37,00:35:20,NA,incomplete,false,true,NA,3,12,size,n_s_020.jpg,right,large,small,NA,NA,NA,right,1170,true,NA,NA,NA,NA,NA
w5Q6SuOv,NA,NA,w5Q6SuOv,2020-0188,2021-11-01,22:51:37,00:35:20,NA,incomplete,false,true,NA,3,13,size,n_s_018.jpg,right,large,small,NA,NA,NA,right,1746,true,NA,NA,NA,NA,NA
w5Q6SuOv,NA,NA,w5Q6SuOv,2020-0188,2021-11-01,22:51:37,00:35:20,NA,incomplete,false,true,NA,3,14,size,m_l_007.jpg,right,small,large,NA,NA,NA,right,2332,true,NA,NA,NA,NA,NA
w5Q6SuOv,NA,NA,w5Q6SuOv,2020-0188,2021-11-01,22:51:37,00:35:20,NA,incomplete,false,true,NA,3,15,origin,n_l_012.jpg,right,manmade,natural,NA,NA,NA,right,1419,true,NA,NA,NA,NA,NA
w5Q6SuOv,NA,NA,w5Q6SuOv,2020-0188,2021-11-01,22:51:37,00:35:20,NA,incomplete,false,true,NA,3,16,origin,m_s_027.jpg,right,natural,manmade,NA,NA,NA,right,1982,true,NA,NA,NA,NA,NA
w5Q6SuOv,NA,NA,w5Q6SuOv,2020-0188,2021-11-01,22:51:37,00:35:20,NA,incomplete,false,true,NA,3,17,origin,m_l_028.jpg,left,manmade,natural,NA,NA,NA,left,1665,true,NA,NA,NA,NA,NA
w5Q6SuOv,NA,NA,w5Q6SuOv,2020-0188,2021-11-01,22:51:37,00:35:20,NA,incomplete,false,true,NA,3,18,origin,n_l_018.jpg,right,manmade,natural,NA,NA,NA,right,1063,true,NA,NA,NA,NA,NA
w5Q6SuOv,NA,NA,w5Q6SuOv,2020-0188,2021-11-01,22:51:37,00:35:20,NA,incomplete,false,true,NA,3,19,origin,n_l_023.jpg,left,natural,manmade,NA,NA,NA,left,1590,true,NA,NA,NA,NA,NA
w5Q6SuOv,NA,NA,w5Q6SuOv,2020-0188,2021-11-01,22:51:37,00:35:20,NA,incomplete,false,true,NA,3,20,location,i_s_028.jpg,left,indoor,outdoor,NA,NA,NA,left,1360,true,NA,NA,NA,NA,NA
w5Q6SuOv,NA,NA,w5Q6SuOv,2020-0188,2021-11-01,22:51:37,00:35:20,NA,incomplete,false,true,NA,3,21,location,i_c_002.jpg,right,outdoor,indoor,NA,NA,NA,right,1781.00000000047,true,NA,NA,NA,NA,NA
w5Q6SuOv,NA,NA,w5Q6SuOv,2020-0188,2021-11-01,22:51:37,00:35:20,NA,incomplete,false,true,NA,3,22,location,o_s_024.jpg,right,indoor,outdoor,NA,NA,NA,right,1463,true,NA,NA,NA,NA,NA
w5Q6SuOv,NA,NA,w5Q6SuOv,2020-0188,2021-11-01,22:51:37,00:35:20,NA,incomplete,false,true,NA,3,23,location,o_s_028.jpg,left,outdoor,indoor,NA,NA,NA,left,1074.99999999953,true,NA,NA,NA,NA,NA
w5Q6SuOv,NA,NA,w5Q6SuOv,2020-0188,2021-11-01,22:51:37,00:35:20,NA,incomplete,false,true,NA,3,24,location,o_c_025.jpg,right,indoor,outdoor,NA,NA,NA,right,2083,true,NA,NA,NA,NA,NA
w5Q6SuOv,NA,NA,w5Q6SuOv,2020-0188,2021-11-01,22:51:37,00:35:20,NA,incomplete,false,true,NA,3,25,building,o_s_021.jpg,left,skyscraper,cottage,NA,NA,NA,left,1576,true,NA,NA,NA,NA,NA
w5Q6SuOv,NA,NA,w5Q6SuOv,2020-0188,2021-11-01,22:51:37,00:35:20,NA,incomplete,false,true,NA,3,26,building,i_s_021.jpg,left,skyscraper,cottage,NA,NA,NA,left,3401.00000000047,true,NA,NA,NA,NA,NA
w5Q6SuOv,NA,NA,w5Q6SuOv,2020-0188,2021-11-01,22:51:37,00:35:20,NA,incomplete,false,true,NA,3,27,building,o_c_028.jpg,left,cottage,skyscraper,NA,NA,NA,left,1699,true,NA,NA,NA,NA,NA
w5Q6SuOv,NA,NA,w5Q6SuOv,2020-0188,2021-11-01,22:51:37,00:35:20,NA,incomplete,false,true,NA,3,28,building,i_c_011.jpg,right,skyscraper,cottage,NA,NA,NA,right,1854,true,NA,NA,NA,NA,NA
w5Q6SuOv,NA,NA,w5Q6SuOv,2020-0188,2021-11-01,22:51:37,00:35:20,NA,incomplete,false,true,NA,3,29,building,o_c_016.jpg,left,cottage,skyscraper,NA,NA,NA,left,1190,true,NA,NA,NA,NA,NA
w5Q6SuOv,NA,NA,w5Q6SuOv,2020-0188,2021-11-01,22:51:37,00:35:20,NA,incomplete,false,NA,true,3,0,NA,NA,left,NA,NA,n_s_020.jpg,n_l_012.jpg,between-small,NA,NaN,NA,left,9060,1,1,1791
w5Q6SuOv,NA,NA,w5Q6SuOv,2020-0188,2021-11-01,22:51:37,00:35:20,NA,incomplete,false,NA,true,3,1,NA,NA,left,NA,NA,i_s_021.jpg,o_c_016.jpg,within,NA,NaN,NA,left,1684,1,0,1956
w5Q6SuOv,NA,NA,w5Q6SuOv,2020-0188,2021-11-01,22:51:37,00:35:20,NA,incomplete,false,NA,true,3,2,NA,NA,right,NA,NA,o_s_028.jpg,i_s_028.jpg,within,NA,NaN,NA,left,1660,0,2,1998
w5Q6SuOv,NA,NA,w5Q6SuOv,2020-0188,2021-11-01,22:51:37,00:35:20,NA,incomplete,false,NA,true,3,3,NA,NA,left,NA,NA,c_2_004.jpg,a_2_027.jpg,within,NA,NaN,NA,right,6320,0,1,1181
w5Q6SuOv,NA,NA,w5Q6SuOv,2020-0188,2021-11-01,22:51:37,00:35:20,NA,incomplete,false,NA,true,3,4,NA,NA,left,NA,NA,m_l_007.jpg,m_l_028.jpg,between-small,NA,NaN,NA,right,3377,0,1,1127
w5Q6SuOv,NA,NA,w5Q6SuOv,2020-0188,2021-11-01,22:51:37,00:35:20,NA,incomplete,false,NA,true,3,5,NA,NA,left,NA,NA,o_s_021.jpg,i_c_011.jpg,within,NA,NaN,NA,left,6661,1,1,5702.999999999534
w5Q6SuOv,NA,NA,w5Q6SuOv,2020-0188,2021-11-01,22:51:37,00:35:20,NA,incomplete,false,NA,true,3,6,NA,NA,right,NA,NA,c_1_025.jpg,a_2_027.jpg,between-small,NA,NaN,NA,left,2494,0,1,2593
w5Q6SuOv,NA,NA,w5Q6SuOv,2020-0188,2021-11-01,22:51:37,00:35:20,NA,incomplete,false,NA,true,3,7,NA,NA,right,NA,NA,o_s_024.jpg,n_l_023.jpg,between-big,NA,NaN,NA,right,2683,1,1,1874
w5Q6SuOv,NA,NA,w5Q6SuOv,2020-0188,2021-11-01,22:51:37,00:35:20,NA,incomplete,false,NA,true,3,8,NA,NA,left,NA,NA,c_2_025.jpg,c_2_017.jpg,between-small,NA,NaN,NA,right,8289,0,1,1716
w5Q6SuOv,NA,NA,w5Q6SuOv,2020-0188,2021-11-01,22:51:37,00:35:20,NA,incomplete,false,NA,true,3,9,NA,NA,left,NA,NA,m_s_027.jpg,n_l_023.jpg,within,NA,NaN,NA,right,4830,0,1,833
w5Q6SuOv,NA,NA,w5Q6SuOv,2020-0188,2021-11-01,22:51:37,00:35:20,NA,incomplete,false,NA,true,3,10,NA,NA,left,NA,NA,a_1_011.jpg,c_2_025.jpg,within,NA,NaN,NA,left,8871,1,1,1559
w5Q6SuOv,NA,NA,w5Q6SuOv,2020-0188,2021-11-01,22:51:37,00:35:20,NA,incomplete,false,NA,true,3,11,NA,NA,left,NA,NA,n_s_018.jpg,m_s_027.jpg,between-small,NA,NaN,NA,left,2400.9999999995343,1,1,1749
w5Q6SuOv,NA,NA,w5Q6SuOv,2020-0188,2021-11-01,22:51:37,00:35:20,NA,incomplete,false,NA,true,3,12,NA,NA,left,NA,NA,o_s_028.jpg,i_s_021.jpg,between-small,NA,NaN,NA,left,8174,1,2,2971
w5Q6SuOv,NA,NA,w5Q6SuOv,2020-0188,2021-11-01,22:51:37,00:35:20,NA,incomplete,false,NA,true,3,13,NA,NA,left,NA,NA,c_2_022.jpg,c_2_027.jpg,within,NA,NaN,NA,left,1287,1,1,1699
w5Q6SuOv,NA,NA,w5Q6SuOv,2020-0188,2021-11-01,22:51:37,00:35:20,NA,incomplete,false,NA,true,3,14,NA,NA,right,NA,NA,n_s_022.jpg,c_2_027.jpg,between-big,NA,NaN,NA,right,1684,1,1,1897
w5Q6SuOv,NA,NA,w5Q6SuOv,2020-0188,2021-11-01,22:51:37,00:35:20,NA,incomplete,false,NA,true,3,15,NA,NA,left,NA,NA,m_l_027.jpg,n_s_018.jpg,within,NA,NaN,NA,left,2964,1,1,1626
w5Q6SuOv,NA,NA,w5Q6SuOv,2020-0188,2021-11-01,22:51:37,00:35:20,NA,incomplete,false,NA,true,3,16,NA,NA,right,NA,NA,o_c_028.jpg,o_c_025.jpg,between-small,NA,NaN,NA,right,17009,1,1,1750
w5Q6SuOv,NA,NA,w5Q6SuOv,2020-0188,2021-11-01,22:51:37,00:35:20,NA,incomplete,false,NA,true,3,17,NA,NA,right,NA,NA,o_s_021.jpg,o_s_024.jpg,between-small,NA,NaN,NA,right,2261,1,2,1238
w5Q6SuOv,NA,NA,w5Q6SuOv,2020-0188,2021-11-01,22:51:37,00:35:20,NA,incomplete,false,NA,true,3,18,NA,NA,right,NA,NA,i_c_002.jpg,n_l_018.jpg,between-big,NA,NaN,NA,right,1511,1,2,1443
w5Q6SuOv,NA,NA,w5Q6SuOv,2020-0188,2021-11-01,22:51:37,00:35:20,NA,incomplete,false,NA,true,3,19,NA,NA,left,NA,NA,c_2_001.jpg,c_2_022.jpg,between-small,NA,NaN,NA,right,1394,0,1,898
w5Q6SuOv,NA,NA,w5Q6SuOv,2020-0188,2021-11-01,22:51:37,00:35:20,NA,incomplete,false,NA,true,3,20,NA,NA,left,NA,NA,i_c_002.jpg,o_c_025.jpg,within,NA,NaN,NA,right,16960.000000000466,0,1,1352
w5Q6SuOv,NA,NA,w5Q6SuOv,2020-0188,2021-11-01,22:51:37,00:35:20,NA,incomplete,false,NA,true,3,21,NA,NA,left,NA,NA,n_l_012.jpg,n_l_018.jpg,within,NA,NaN,NA,left,5342,1,1,4350
w5Q6SuOv,NA,NA,w5Q6SuOv,2020-0188,2021-11-01,22:51:37,00:35:20,NA,incomplete,false,NA,true,3,22,NA,NA,left,NA,NA,n_s_022.jpg,m_l_007.jpg,within,NA,NaN,NA,left,1361,1,1,1065
w5Q6SuOv,NA,NA,w5Q6SuOv,2020-0188,2021-11-01,22:51:37,00:35:20,NA,incomplete,false,NA,true,3,23,NA,NA,right,NA,NA,c_1_008.jpg,c_1_025.jpg,within,NA,NaN,NA,left,3105,0,1,1543
w5Q6SuOv,NA,NA,w5Q6SuOv,2020-0188,2021-11-01,22:51:37,00:35:20,NA,incomplete,false,NA,true,3,24,NA,NA,right,NA,NA,n_s_020.jpg,c_1_008.jpg,between-big,NA,NaN,NA,right,4550.999999999534,1,1,1346
w5Q6SuOv,NA,NA,w5Q6SuOv,2020-0188,2021-11-01,22:51:37,00:35:20,NA,incomplete,false,NA,true,3,25,NA,NA,left,NA,NA,m_l_028.jpg,i_s_028.jpg,between-big,NA,NaN,NA,left,6298,1,2,999
w5Q6SuOv,NA,NA,w5Q6SuOv,2020-0188,2021-11-01,22:51:37,00:35:20,NA,incomplete,false,NA,true,3,26,NA,NA,left,NA,NA,c_2_017.jpg,m_l_027.jpg,between-big,NA,NaN,NA,left,2592,1,2,1049
w5Q6SuOv,NA,NA,w5Q6SuOv,2020-0188,2021-11-01,22:51:37,00:35:20,NA,incomplete,false,true,NA,4,0,building,i_c_023.jpg,right,skyscraper,cottage,NA,NA,NA,right,1645,true,NA,NA,NA,NA,NA
w5Q6SuOv,NA,NA,w5Q6SuOv,2020-0188,2021-11-01,22:51:37,00:35:20,NA,incomplete,false,true,NA,4,1,building,i_c_022.jpg,right,skyscraper,cottage,NA,NA,NA,right,1050,true,NA,NA,NA,NA,NA
w5Q6SuOv,NA,NA,w5Q6SuOv,2020-0188,2021-11-01,22:51:37,00:35:20,NA,incomplete,false,true,NA,4,2,building,o_c_005.jpg,left,cottage,skyscraper,NA,NA,NA,left,1143,true,NA,NA,NA,NA,NA
w5Q6SuOv,NA,NA,w5Q6SuOv,2020-0188,2021-11-01,22:51:37,00:35:20,NA,incomplete,false,true,NA,4,3,building,i_s_019.jpg,left,skyscraper,cottage,NA,NA,NA,left,1707.00000000047,true,NA,NA,NA,NA,NA
w5Q6SuOv,NA,NA,w5Q6SuOv,2020-0188,2021-11-01,22:51:37,00:35:20,NA,incomplete,false,true,NA,4,4,building,i_s_018.jpg,left,skyscraper,cottage,NA,NA,NA,left,1340,true,NA,NA,NA,NA,NA
w5Q6SuOv,NA,NA,w5Q6SuOv,2020-0188,2021-11-01,22:51:37,00:35:20,NA,incomplete,false,true,NA,4,5,location,o_s_020.jpg,right,indoor,outdoor,NA,NA,NA,right,1787,true,NA,NA,NA,NA,NA
w5Q6SuOv,NA,NA,w5Q6SuOv,2020-0188,2021-11-01,22:51:37,00:35:20,NA,incomplete,false,true,NA,4,6,location,i_c_016.jpg,right,outdoor,indoor,NA,NA,NA,right,2098,true,NA,NA,NA,NA,NA
w5Q6SuOv,NA,NA,w5Q6SuOv,2020-0188,2021-11-01,22:51:37,00:35:20,NA,incomplete,false,true,NA,4,7,location,i_c_004.jpg,left,indoor,outdoor,NA,NA,NA,left,1545,true,NA,NA,NA,NA,NA
w5Q6SuOv,NA,NA,w5Q6SuOv,2020-0188,2021-11-01,22:51:37,00:35:20,NA,incomplete,false,true,NA,4,8,location,i_s_023.jpg,left,indoor,outdoor,NA,NA,NA,left,1297,true,NA,NA,NA,NA,NA
w5Q6SuOv,NA,NA,w5Q6SuOv,2020-0188,2021-11-01,22:51:37,00:35:20,NA,incomplete,false,true,NA,4,9,location,i_s_025.jpg,left,indoor,outdoor,NA,NA,NA,left,1951,true,NA,NA,NA,NA,NA
w5Q6SuOv,NA,NA,w5Q6SuOv,2020-0188,2021-11-01,22:51:37,00:35:20,NA,incomplete,false,true,NA,4,10,size,n_l_008.jpg,left,large,small,NA,NA,NA,left,1831,true,NA,NA,NA,NA,NA
w5Q6SuOv,NA,NA,w5Q6SuOv,2020-0188,2021-11-01,22:51:37,00:35:20,NA,incomplete,false,true,NA,4,11,size,n_l_007.jpg,right,small,large,NA,NA,NA,right,1452,true,NA,NA,NA,NA,NA
w5Q6SuOv,NA,NA,w5Q6SuOv,2020-0188,2021-11-01,22:51:37,00:35:20,NA,incomplete,false,true,NA,4,12,size,m_l_019.jpg,right,small,large,NA,NA,NA,right,1036,true,NA,NA,NA,NA,NA
w5Q6SuOv,NA,NA,w5Q6SuOv,2020-0188,2021-11-01,22:51:37,00:35:20,NA,incomplete,false,true,NA,4,13,size,n_s_004.jpg,right,large,small,NA,NA,NA,right,1075.00000000047,true,NA,NA,NA,NA,NA
w5Q6SuOv,NA,NA,w5Q6SuOv,2020-0188,2021-11-01,22:51:37,00:35:20,NA,incomplete,false,true,NA,4,14,size,n_l_019.jpg,left,large,small,NA,NA,NA,left,1173.99999999953,true,NA,NA,NA,NA,NA
w5Q6SuOv,NA,NA,w5Q6SuOv,2020-0188,2021-11-01,22:51:37,00:35:20,NA,incomplete,false,true,NA,4,15,origin,n_s_009.jpg,right,manmade,natural,NA,NA,NA,right,1727,true,NA,NA,NA,NA,NA
w5Q6SuOv,NA,NA,w5Q6SuOv,2020-0188,2021-11-01,22:51:37,00:35:20,NA,incomplete,false,true,NA,4,16,origin,n_l_005.jpg,left,natural,manmade,NA,NA,NA,left,1231,true,NA,NA,NA,NA,NA
w5Q6SuOv,NA,NA,w5Q6SuOv,2020-0188,2021-11-01,22:51:37,00:35:20,NA,incomplete,false,true,NA,4,17,origin,m_l_012.jpg,left,manmade,natural,NA,NA,NA,left,1740,true,NA,NA,NA,NA,NA
w5Q6SuOv,NA,NA,w5Q6SuOv,2020-0188,2021-11-01,22:51:37,00:35:20,NA,incomplete,false,true,NA,4,18,origin,m_s_003.jpg,left,manmade,natural,NA,NA,NA,left,1662,true,NA,NA,NA,NA,NA
w5Q6SuOv,NA,NA,w5Q6SuOv,2020-0188,2021-11-01,22:51:37,00:35:20,NA,incomplete,false,true,NA,4,19,origin,n_s_010.jpg,left,natural,manmade,NA,NA,NA,left,1922,true,NA,NA,NA,NA,NA
w5Q6SuOv,NA,NA,w5Q6SuOv,2020-0188,2021-11-01,22:51:37,00:35:20,NA,incomplete,false,true,NA,4,20,syllable,c_1_004.jpg,right,1 syllable,2 syllables,NA,NA,NA,left,1485,false,NA,NA,NA,NA,NA
w5Q6SuOv,NA,NA,w5Q6SuOv,2020-0188,2021-11-01,22:51:37,00:35:20,NA,incomplete,false,true,NA,4,21,syllable,c_1_024.jpg,right,1 syllable,2 syllables,NA,NA,NA,right,1381.00000000047,true,NA,NA,NA,NA,NA
w5Q6SuOv,NA,NA,w5Q6SuOv,2020-0188,2021-11-01,22:51:37,00:35:20,NA,incomplete,false,true,NA,4,22,syllable,a_1_025.jpg,right,2 syllables,1 syllable,NA,NA,NA,right,2414.00000000047,true,NA,NA,NA,NA,NA
w5Q6SuOv,NA,NA,w5Q6SuOv,2020-0188,2021-11-01,22:51:37,00:35:20,NA,incomplete,false,true,NA,4,23,syllable,c_2_028.jpg,right,1 syllable,2 syllables,NA,NA,NA,none,0,false,NA,NA,NA,NA,NA
w5Q6SuOv,NA,NA,w5Q6SuOv,2020-0188,2021-11-01,22:51:37,00:35:20,NA,incomplete,false,true,NA,4,24,syllable,a_1_021.jpg,right,2 syllables,1 syllable,NA,NA,NA,right,1763,true,NA,NA,NA,NA,NA
w5Q6SuOv,NA,NA,w5Q6SuOv,2020-0188,2021-11-01,22:51:37,00:35:20,NA,incomplete,false,true,NA,4,25,abstractness,c_2_013.jpg,left,concrete,abstract,NA,NA,NA,left,2367,true,NA,NA,NA,NA,NA
w5Q6SuOv,NA,NA,w5Q6SuOv,2020-0188,2021-11-01,22:51:37,00:35:20,NA,incomplete,false,true,NA,4,26,abstractness,c_2_003.jpg,right,abstract,concrete,NA,NA,NA,right,2061,true,NA,NA,NA,NA,NA
w5Q6SuOv,NA,NA,w5Q6SuOv,2020-0188,2021-11-01,22:51:37,00:35:20,NA,incomplete,false,true,NA,4,27,abstractness,c_2_005.jpg,left,concrete,abstract,NA,NA,NA,left,2039,true,NA,NA,NA,NA,NA
w5Q6SuOv,NA,NA,w5Q6SuOv,2020-0188,2021-11-01,22:51:37,00:35:20,NA,incomplete,false,true,NA,4,28,abstractness,c_1_022.jpg,right,abstract,concrete,NA,NA,NA,right,1824,true,NA,NA,NA,NA,NA
w5Q6SuOv,NA,NA,w5Q6SuOv,2020-0188,2021-11-01,22:51:37,00:35:20,NA,incomplete,false,true,NA,4,29,abstractness,a_2_002.jpg,left,abstract,concrete,NA,NA,NA,left,1614,true,NA,NA,NA,NA,NA
w5Q6SuOv,NA,NA,w5Q6SuOv,2020-0188,2021-11-01,22:51:37,00:35:20,NA,incomplete,false,NA,true,4,0,NA,NA,left,NA,NA,a_1_021.jpg,c_2_005.jpg,between-small,NA,NaN,NA,left,3789,1,1,816
w5Q6SuOv,NA,NA,w5Q6SuOv,2020-0188,2021-11-01,22:51:37,00:35:20,NA,incomplete,false,NA,true,4,1,NA,NA,left,NA,NA,n_s_010.jpg,a_1_025.jpg,between-big,NA,NaN,NA,left,858,1,1,949
w5Q6SuOv,NA,NA,w5Q6SuOv,2020-0188,2021-11-01,22:51:37,00:35:20,NA,incomplete,false,NA,true,4,2,NA,NA,left,NA,NA,i_c_023.jpg,i_s_019.jpg,within,NA,NaN,NA,left,1602,1,2,1683.9999999995343
w5Q6SuOv,NA,NA,w5Q6SuOv,2020-0188,2021-11-01,22:51:37,00:35:20,NA,incomplete,false,NA,true,4,3,NA,NA,left,NA,NA,n_l_005.jpg,n_s_010.jpg,within,NA,NaN,NA,right,3334.0000000004657,0,1,3080
w5Q6SuOv,NA,NA,w5Q6SuOv,2020-0188,2021-11-01,22:51:37,00:35:20,NA,incomplete,false,NA,true,4,4,NA,NA,left,NA,NA,n_s_004.jpg,n_l_005.jpg,between-small,NA,NaN,NA,left,1015,1,2,1428.9999999995343
w5Q6SuOv,NA,NA,w5Q6SuOv,2020-0188,2021-11-01,22:51:37,00:35:20,NA,incomplete,false,NA,true,4,5,NA,NA,right,NA,NA,c_1_004.jpg,m_l_012.jpg,between-big,NA,NaN,NA,right,1056,1,3,3335
w5Q6SuOv,NA,NA,w5Q6SuOv,2020-0188,2021-11-01,22:51:37,00:35:20,NA,incomplete,false,NA,true,4,6,NA,NA,right,NA,NA,c_1_024.jpg,m_s_003.jpg,between-big,NA,NaN,NA,right,932,1,2,1659
w5Q6SuOv,NA,NA,w5Q6SuOv,2020-0188,2021-11-01,22:51:37,00:35:20,NA,incomplete,false,NA,true,4,7,NA,NA,right,NA,NA,n_l_007.jpg,i_s_023.jpg,between-big,NA,NaN,NA,left,2772.9999999995343,0,2,924
w5Q6SuOv,NA,NA,w5Q6SuOv,2020-0188,2021-11-01,22:51:37,00:35:20,NA,incomplete,false,NA,true,4,8,NA,NA,right,NA,NA,c_2_028.jpg,c_1_004.jpg,within,NA,NaN,NA,left,2344,0,1,898.9999999995343
w5Q6SuOv,NA,NA,w5Q6SuOv,2020-0188,2021-11-01,22:51:37,00:35:20,NA,incomplete,false,NA,true,4,9,NA,NA,right,NA,NA,i_s_023.jpg,o_s_020.jpg,within,NA,NaN,NA,right,14620.000000000466,1,2,2322
w5Q6SuOv,NA,NA,w5Q6SuOv,2020-0188,2021-11-01,22:51:37,00:35:20,NA,incomplete,false,NA,true,4,10,NA,NA,right,NA,NA,c_1_022.jpg,c_2_013.jpg,within,NA,NaN,NA,right,1865.0000000004657,1,0,2014
w5Q6SuOv,NA,NA,w5Q6SuOv,2020-0188,2021-11-01,22:51:37,00:35:20,NA,incomplete,false,NA,true,4,11,NA,NA,right,NA,NA,a_2_002.jpg,c_2_003.jpg,within,NA,NaN,NA,right,4938.999999999534,1,0,1279
w5Q6SuOv,NA,NA,w5Q6SuOv,2020-0188,2021-11-01,22:51:37,00:35:20,NA,incomplete,false,NA,true,4,12,NA,NA,right,NA,NA,c_2_013.jpg,a_1_025.jpg,between-small,NA,NaN,NA,left,1147,0,1,1577
w5Q6SuOv,NA,NA,w5Q6SuOv,2020-0188,2021-11-01,22:51:37,00:35:20,NA,incomplete,false,NA,true,4,13,NA,NA,left,NA,NA,n_s_009.jpg,m_s_003.jpg,within,NA,NaN,NA,left,2130,1,0,2254
w5Q6SuOv,NA,NA,w5Q6SuOv,2020-0188,2021-11-01,22:51:37,00:35:20,NA,incomplete,false,NA,true,4,14,NA,NA,left,NA,NA,i_s_025.jpg,m_l_019.jpg,between-big,NA,NaN,NA,right,715,0,2,1254
w5Q6SuOv,NA,NA,w5Q6SuOv,2020-0188,2021-11-01,22:51:37,00:35:20,NA,incomplete,false,NA,true,4,15,NA,NA,right,NA,NA,n_s_004.jpg,n_l_008.jpg,within,NA,NaN,NA,right,1939,1,1,1057
w5Q6SuOv,NA,NA,w5Q6SuOv,2020-0188,2021-11-01,22:51:37,00:35:20,NA,incomplete,false,NA,true,4,16,NA,NA,right,NA,NA,i_s_025.jpg,i_c_016.jpg,within,NA,NaN,NA,right,2658,1,1,1683
w5Q6SuOv,NA,NA,w5Q6SuOv,2020-0188,2021-11-01,22:51:37,00:35:20,NA,incomplete,false,NA,true,4,17,NA,NA,right,NA,NA,n_l_019.jpg,n_l_007.jpg,within,NA,NaN,NA,right,1509,1,1,999.0000000004657
w5Q6SuOv,NA,NA,w5Q6SuOv,2020-0188,2021-11-01,22:51:37,00:35:20,NA,incomplete,false,NA,true,4,18,NA,NA,right,NA,NA,o_s_020.jpg,o_c_005.jpg,between-small,NA,NaN,NA,right,1272,1,2,1238.0000000004657
w5Q6SuOv,NA,NA,w5Q6SuOv,2020-0188,2021-11-01,22:51:37,00:35:20,NA,incomplete,false,NA,true,4,19,NA,NA,right,NA,NA,a_1_021.jpg,c_1_024.jpg,within,NA,NaN,NA,left,8148,0,1,2047.9999999995343
w5Q6SuOv,NA,NA,w5Q6SuOv,2020-0188,2021-11-01,22:51:37,00:35:20,NA,incomplete,false,NA,true,4,20,NA,NA,left,NA,NA,n_l_019.jpg,m_l_012.jpg,between-small,NA,NaN,NA,left,5299,1,1,1501.0000000004657
w5Q6SuOv,NA,NA,w5Q6SuOv,2020-0188,2021-11-01,22:51:37,00:35:20,NA,incomplete,false,NA,true,4,21,NA,NA,left,NA,NA,m_l_019.jpg,n_s_009.jpg,between-small,NA,NaN,NA,right,1527,0,1,1520
w5Q6SuOv,NA,NA,w5Q6SuOv,2020-0188,2021-11-01,22:51:37,00:35:20,NA,incomplete,false,NA,true,4,22,NA,NA,left,NA,NA,i_c_022.jpg,i_s_018.jpg,within,NA,NaN,NA,left,1692.0000000004657,1,2,3294
w5Q6SuOv,NA,NA,w5Q6SuOv,2020-0188,2021-11-01,22:51:37,00:35:20,NA,incomplete,false,NA,true,4,23,NA,NA,right,NA,NA,i_c_004.jpg,i_s_018.jpg,between-small,NA,NaN,NA,left,1419.9999999995343,0,1,1130.9999999995343
w5Q6SuOv,NA,NA,w5Q6SuOv,2020-0188,2021-11-01,22:51:37,00:35:20,NA,incomplete,false,NA,true,4,24,NA,NA,right,NA,NA,i_c_016.jpg,i_s_019.jpg,between-small,NA,NaN,NA,right,2716.0000000004657,1,1,1444
w5Q6SuOv,NA,NA,w5Q6SuOv,2020-0188,2021-11-01,22:51:37,00:35:20,NA,incomplete,false,NA,true,4,25,NA,NA,right,NA,NA,n_l_008.jpg,i_c_004.jpg,between-big,NA,NaN,NA,left,933,0,1,957
w5Q6SuOv,NA,NA,w5Q6SuOv,2020-0188,2021-11-01,22:51:37,00:35:20,NA,incomplete,false,NA,true,4,26,NA,NA,left,NA,NA,c_2_028.jpg,c_2_003.jpg,between-small,NA,NaN,NA,right,1123,0,1,1254
w5Q6SuOv,NA,NA,w5Q6SuOv,2020-0188,2021-11-01,22:51:37,00:35:20,NA,incomplete,false,true,NA,5,0,syllable,a_2_009.jpg,right,2 syllables,1 syllable,NA,NA,NA,left,1851.99999999953,false,NA,NA,NA,NA,NA
w5Q6SuOv,NA,NA,w5Q6SuOv,2020-0188,2021-11-01,22:51:37,00:35:20,NA,incomplete,false,true,NA,5,1,syllable,c_2_016.jpg,right,2 syllables,1 syllable,NA,NA,NA,left,1329,false,NA,NA,NA,NA,NA
w5Q6SuOv,NA,NA,w5Q6SuOv,2020-0188,2021-11-01,22:51:37,00:35:20,NA,incomplete,false,true,NA,5,2,syllable,a_2_025.jpg,right,1 syllable,2 syllables,NA,NA,NA,right,1206,true,NA,NA,NA,NA,NA
w5Q6SuOv,NA,NA,w5Q6SuOv,2020-0188,2021-11-01,22:51:37,00:35:20,NA,incomplete,false,true,NA,5,3,syllable,a_1_006.jpg,right,1 syllable,2 syllables,NA,NA,NA,left,1222.00000000047,false,NA,NA,NA,NA,NA
w5Q6SuOv,NA,NA,w5Q6SuOv,2020-0188,2021-11-01,22:51:37,00:35:20,NA,incomplete,false,true,NA,5,4,syllable,c_2_010.jpg,right,2 syllables,1 syllable,NA,NA,NA,left,1173.99999999953,false,NA,NA,NA,NA,NA
w5Q6SuOv,NA,NA,w5Q6SuOv,2020-0188,2021-11-01,22:51:37,00:35:20,NA,incomplete,false,true,NA,5,5,abstractness,a_1_016.jpg,left,abstract,concrete,NA,NA,NA,left,2252,true,NA,NA,NA,NA,NA
w5Q6SuOv,NA,NA,w5Q6SuOv,2020-0188,2021-11-01,22:51:37,00:35:20,NA,incomplete,false,true,NA,5,6,abstractness,a_1_023.jpg,left,abstract,concrete,NA,NA,NA,left,1498.00000000047,true,NA,NA,NA,NA,NA
w5Q6SuOv,NA,NA,w5Q6SuOv,2020-0188,2021-11-01,22:51:37,00:35:20,NA,incomplete,false,true,NA,5,7,abstractness,a_2_017.jpg,right,concrete,abstract,NA,NA,NA,right,1918,true,NA,NA,NA,NA,NA
w5Q6SuOv,NA,NA,w5Q6SuOv,2020-0188,2021-11-01,22:51:37,00:35:20,NA,incomplete,false,true,NA,5,8,abstractness,a_2_013.jpg,left,abstract,concrete,NA,NA,NA,left,1668,true,NA,NA,NA,NA,NA
w5Q6SuOv,NA,NA,w5Q6SuOv,2020-0188,2021-11-01,22:51:37,00:35:20,NA,incomplete,false,true,NA,5,9,abstractness,c_2_019.jpg,right,abstract,concrete,NA,NA,NA,right,1584,true,NA,NA,NA,NA,NA
w5Q6SuOv,NA,NA,w5Q6SuOv,2020-0188,2021-11-01,22:51:37,00:35:20,NA,incomplete,false,true,NA,5,10,size,m_l_016.jpg,left,large,small,NA,NA,NA,left,1511,true,NA,NA,NA,NA,NA
w5Q6SuOv,NA,NA,w5Q6SuOv,2020-0188,2021-11-01,22:51:37,00:35:20,NA,incomplete,false,true,NA,5,11,size,n_l_013.jpg,right,small,large,NA,NA,NA,right,1657.00000000047,true,NA,NA,NA,NA,NA
w5Q6SuOv,NA,NA,w5Q6SuOv,2020-0188,2021-11-01,22:51:37,00:35:20,NA,incomplete,false,true,NA,5,12,size,n_l_010.jpg,right,small,large,NA,NA,NA,right,1353.99999999953,true,NA,NA,NA,NA,NA
w5Q6SuOv,NA,NA,w5Q6SuOv,2020-0188,2021-11-01,22:51:37,00:35:20,NA,incomplete,false,true,NA,5,13,size,n_l_016.jpg,left,large,small,NA,NA,NA,left,2323.99999999953,true,NA,NA,NA,NA,NA
w5Q6SuOv,NA,NA,w5Q6SuOv,2020-0188,2021-11-01,22:51:37,00:35:20,NA,incomplete,false,true,NA,5,14,size,n_s_027.jpg,left,small,large,NA,NA,NA,left,1624,true,NA,NA,NA,NA,NA
w5Q6SuOv,NA,NA,w5Q6SuOv,2020-0188,2021-11-01,22:51:37,00:35:20,NA,incomplete,false,true,NA,5,15,origin,n_s_024.jpg,left,natural,manmade,NA,NA,NA,left,1998.99999999953,true,NA,NA,NA,NA,NA
w5Q6SuOv,NA,NA,w5Q6SuOv,2020-0188,2021-11-01,22:51:37,00:35:20,NA,incomplete,false,true,NA,5,16,origin,n_s_008.jpg,right,manmade,natural,NA,NA,NA,right,1701,true,NA,NA,NA,NA,NA
w5Q6SuOv,NA,NA,w5Q6SuOv,2020-0188,2021-11-01,22:51:37,00:35:20,NA,incomplete,false,true,NA,5,17,origin,n_s_015.jpg,left,natural,manmade,NA,NA,NA,left,1887,true,NA,NA,NA,NA,NA
w5Q6SuOv,NA,NA,w5Q6SuOv,2020-0188,2021-11-01,22:51:37,00:35:20,NA,incomplete,false,true,NA,5,18,origin,n_l_022.jpg,left,natural,manmade,NA,NA,NA,left,1202,true,NA,NA,NA,NA,NA
w5Q6SuOv,NA,NA,w5Q6SuOv,2020-0188,2021-11-01,22:51:37,00:35:20,NA,incomplete,false,true,NA,5,19,origin,n_s_007.jpg,right,manmade,natural,NA,NA,NA,right,1919.99999999953,true,NA,NA,NA,NA,NA
w5Q6SuOv,NA,NA,w5Q6SuOv,2020-0188,2021-11-01,22:51:37,00:35:20,NA,incomplete,false,true,NA,5,20,location,o_s_009.jpg,left,outdoor,indoor,NA,NA,NA,left,1654,true,NA,NA,NA,NA,NA
w5Q6SuOv,NA,NA,w5Q6SuOv,2020-0188,2021-11-01,22:51:37,00:35:20,NA,incomplete,false,true,NA,5,21,location,i_c_014.jpg,left,indoor,outdoor,NA,NA,NA,left,1686,true,NA,NA,NA,NA,NA
w5Q6SuOv,NA,NA,w5Q6SuOv,2020-0188,2021-11-01,22:51:37,00:35:20,NA,incomplete,false,true,NA,5,22,location,i_s_010.jpg,left,indoor,outdoor,NA,NA,NA,left,1361.00000000047,true,NA,NA,NA,NA,NA
w5Q6SuOv,NA,NA,w5Q6SuOv,2020-0188,2021-11-01,22:51:37,00:35:20,NA,incomplete,false,true,NA,5,23,location,o_c_012.jpg,right,indoor,outdoor,NA,NA,NA,right,2211,true,NA,NA,NA,NA,NA
w5Q6SuOv,NA,NA,w5Q6SuOv,2020-0188,2021-11-01,22:51:37,00:35:20,NA,incomplete,false,true,NA,5,24,location,o_c_023.jpg,right,indoor,outdoor,NA,NA,NA,right,2561,true,NA,NA,NA,NA,NA
w5Q6SuOv,NA,NA,w5Q6SuOv,2020-0188,2021-11-01,22:51:37,00:35:20,NA,incomplete,false,true,NA,5,25,building,i_s_003.jpg,left,skyscraper,cottage,NA,NA,NA,left,2583.99999999953,true,NA,NA,NA,NA,NA
w5Q6SuOv,NA,NA,w5Q6SuOv,2020-0188,2021-11-01,22:51:37,00:35:20,NA,incomplete,false,true,NA,5,26,building,i_c_008.jpg,right,skyscraper,cottage,NA,NA,NA,right,1385,true,NA,NA,NA,NA,NA
w5Q6SuOv,NA,NA,w5Q6SuOv,2020-0188,2021-11-01,22:51:37,00:35:20,NA,incomplete,false,true,NA,5,27,building,i_c_018.jpg,right,skyscraper,cottage,NA,NA,NA,right,1273.99999999953,true,NA,NA,NA,NA,NA
w5Q6SuOv,NA,NA,w5Q6SuOv,2020-0188,2021-11-01,22:51:37,00:35:20,NA,incomplete,false,true,NA,5,28,building,o_s_008.jpg,left,skyscraper,cottage,NA,NA,NA,left,1284.00000000047,true,NA,NA,NA,NA,NA
w5Q6SuOv,NA,NA,w5Q6SuOv,2020-0188,2021-11-01,22:51:37,00:35:20,NA,incomplete,false,true,NA,5,29,building,o_c_027.jpg,right,skyscraper,cottage,NA,NA,NA,right,1295,true,NA,NA,NA,NA,NA
w5Q6SuOv,NA,NA,w5Q6SuOv,2020-0188,2021-11-01,22:51:37,00:35:20,NA,incomplete,false,NA,true,5,0,NA,NA,right,NA,NA,n_l_013.jpg,a_2_013.jpg,between-big,NA,NaN,NA,right,1982,1,1,1386.9999999995343
w5Q6SuOv,NA,NA,w5Q6SuOv,2020-0188,2021-11-01,22:51:37,00:35:20,NA,incomplete,false,NA,true,5,1,NA,NA,right,NA,NA,i_s_010.jpg,n_s_007.jpg,between-big,NA,NaN,NA,right,2005,1,3,1609
w5Q6SuOv,NA,NA,w5Q6SuOv,2020-0188,2021-11-01,22:51:37,00:35:20,NA,incomplete,false,NA,true,5,2,NA,NA,right,NA,NA,a_2_017.jpg,c_2_010.jpg,between-small,NA,NaN,NA,left,6228.000000000466,0,1,1155.0000000004657
w5Q6SuOv,NA,NA,w5Q6SuOv,2020-0188,2021-11-01,22:51:37,00:35:20,NA,incomplete,false,NA,true,5,3,NA,NA,right,NA,NA,c_2_010.jpg,c_2_016.jpg,within,NA,NaN,NA,right,2807,1,1,1114
w5Q6SuOv,NA,NA,w5Q6SuOv,2020-0188,2021-11-01,22:51:37,00:35:20,NA,incomplete,false,NA,true,5,4,NA,NA,right,NA,NA,n_l_016.jpg,m_l_016.jpg,within,NA,NaN,NA,right,1081,1,1,1536
w5Q6SuOv,NA,NA,w5Q6SuOv,2020-0188,2021-11-01,22:51:37,00:35:20,NA,incomplete,false,NA,true,5,5,NA,NA,left,NA,NA,a_1_016.jpg,a_2_013.jpg,within,NA,NaN,NA,left,1419,1,1,3130
w5Q6SuOv,NA,NA,w5Q6SuOv,2020-0188,2021-11-01,22:51:37,00:35:20,NA,incomplete,false,NA,true,5,6,NA,NA,left,NA,NA,i_c_008.jpg,o_c_027.jpg,within,NA,NaN,NA,left,2757,1,1,1212.9999999995343
w5Q6SuOv,NA,NA,w5Q6SuOv,2020-0188,2021-11-01,22:51:37,00:35:20,NA,incomplete,false,NA,true,5,7,NA,NA,left,NA,NA,n_s_015.jpg,o_s_009.jpg,between-big,NA,NaN,NA,left,1280,1,2,3045
w5Q6SuOv,NA,NA,w5Q6SuOv,2020-0188,2021-11-01,22:51:37,00:35:20,NA,incomplete,false,NA,true,5,8,NA,NA,right,NA,NA,c_2_019.jpg,a_1_023.jpg,within,NA,NaN,NA,left,6208,0,1,5985
w5Q6SuOv,NA,NA,w5Q6SuOv,2020-0188,2021-11-01,22:51:37,00:35:20,NA,incomplete,false,NA,true,5,9,NA,NA,left,NA,NA,o_c_023.jpg,i_c_018.jpg,between-small,NA,NaN,NA,left,2139,1,1,1353
w5Q6SuOv,NA,NA,w5Q6SuOv,2020-0188,2021-11-01,22:51:37,00:35:20,NA,incomplete,false,NA,true,5,10,NA,NA,left,NA,NA,a_2_025.jpg,a_1_016.jpg,between-small,NA,NaN,NA,right,4737,0,3,858
w5Q6SuOv,NA,NA,w5Q6SuOv,2020-0188,2021-11-01,22:51:37,00:35:20,NA,incomplete,false,NA,true,5,11,NA,NA,right,NA,NA,n_l_022.jpg,n_s_024.jpg,within,NA,NaN,NA,left,3913,0,1,751
w5Q6SuOv,NA,NA,w5Q6SuOv,2020-0188,2021-11-01,22:51:37,00:35:20,NA,incomplete,false,NA,true,5,12,NA,NA,left,NA,NA,n_s_008.jpg,n_s_007.jpg,within,NA,NaN,NA,left,2427,1,1,907
w5Q6SuOv,NA,NA,w5Q6SuOv,2020-0188,2021-11-01,22:51:37,00:35:20,NA,incomplete,false,NA,true,5,13,NA,NA,left,NA,NA,i_s_003.jpg,o_s_008.jpg,within,NA,NaN,NA,left,2263,1,1,2887
w5Q6SuOv,NA,NA,w5Q6SuOv,2020-0188,2021-11-01,22:51:37,00:35:20,NA,incomplete,false,NA,true,5,14,NA,NA,right,NA,NA,i_c_014.jpg,n_l_022.jpg,between-big,NA,NaN,NA,left,1644,0,2,2351
w5Q6SuOv,NA,NA,w5Q6SuOv,2020-0188,2021-11-01,22:51:37,00:35:20,NA,incomplete,false,NA,true,5,15,NA,NA,left,NA,NA,a_2_009.jpg,a_1_006.jpg,within,NA,NaN,NA,left,5546,1,1,1436
w5Q6SuOv,NA,NA,w5Q6SuOv,2020-0188,2021-11-01,22:51:37,00:35:20,NA,incomplete,false,NA,true,5,16,NA,NA,right,NA,NA,i_s_003.jpg,i_s_010.jpg,between-small,NA,NaN,NA,left,2270,0,2,1913.9999999995343
w5Q6SuOv,NA,NA,w5Q6SuOv,2020-0188,2021-11-01,22:51:37,00:35:20,NA,incomplete,false,NA,true,5,17,NA,NA,left,NA,NA,c_2_019.jpg,n_l_010.jpg,between-big,NA,NaN,NA,left,1964,1,1,1256
w5Q6SuOv,NA,NA,w5Q6SuOv,2020-0188,2021-11-01,22:51:37,00:35:20,NA,incomplete,false,NA,true,5,18,NA,NA,right,NA,NA,n_s_027.jpg,n_l_013.jpg,within,NA,NaN,NA,right,2088,1,1,1749
w5Q6SuOv,NA,NA,w5Q6SuOv,2020-0188,2021-11-01,22:51:37,00:35:20,NA,incomplete,false,NA,true,5,19,NA,NA,left,NA,NA,n_l_010.jpg,n_s_024.jpg,between-small,NA,NaN,NA,left,2434,1,1,1352.9999999995343
w5Q6SuOv,NA,NA,w5Q6SuOv,2020-0188,2021-11-01,22:51:37,00:35:20,NA,incomplete,false,NA,true,5,20,NA,NA,right,NA,NA,n_s_015.jpg,n_s_027.jpg,between-small,NA,NaN,NA,left,916.0000000004657,0,1,1089
w5Q6SuOv,NA,NA,w5Q6SuOv,2020-0188,2021-11-01,22:51:37,00:35:20,NA,incomplete,false,NA,true,5,21,NA,NA,left,NA,NA,a_1_006.jpg,a_1_023.jpg,between-small,NA,NaN,NA,left,998.9999999995343,1,1,1088.9999999995343
w5Q6SuOv,NA,NA,w5Q6SuOv,2020-0188,2021-11-01,22:51:37,00:35:20,NA,incomplete,false,NA,true,5,22,NA,NA,left,NA,NA,a_2_017.jpg,m_l_016.jpg,between-big,NA,NaN,NA,left,1445,1,2,734.0000000004657
w5Q6SuOv,NA,NA,w5Q6SuOv,2020-0188,2021-11-01,22:51:37,00:35:20,NA,incomplete,false,NA,true,5,23,NA,NA,left,NA,NA,n_l_016.jpg,n_s_008.jpg,between-small,NA,NaN,NA,left,948.9999999995343,1,1,727
w5Q6SuOv,NA,NA,w5Q6SuOv,2020-0188,2021-11-01,22:51:37,00:35:20,NA,incomplete,false,NA,true,5,24,NA,NA,right,NA,NA,i_c_008.jpg,o_c_012.jpg,between-small,NA,NaN,NA,left,2637,0,2,833
w5Q6SuOv,NA,NA,w5Q6SuOv,2020-0188,2021-11-01,22:51:37,00:35:20,NA,incomplete,false,NA,true,5,25,NA,NA,left,NA,NA,o_s_009.jpg,o_c_012.jpg,within,NA,NaN,NA,left,1610,1,1,1166
w5Q6SuOv,NA,NA,w5Q6SuOv,2020-0188,2021-11-01,22:51:37,00:35:20,NA,incomplete,false,NA,true,5,26,NA,NA,left,NA,NA,i_c_014.jpg,o_c_023.jpg,within,NA,NaN,NA,left,1552,1,2,1247
w5Q6SuOv,NA,NA,w5Q6SuOv,2020-0188,2021-11-01,22:51:37,00:35:20,NA,incomplete,false,true,NA,6,0,size,m_s_001.jpg,left,small,large,NA,NA,NA,left,1216,true,NA,NA,NA,NA,NA
w5Q6SuOv,NA,NA,w5Q6SuOv,2020-0188,2021-11-01,22:51:37,00:35:20,NA,incomplete,false,true,NA,6,1,size,n_l_011.jpg,right,small,large,NA,NA,NA,right,1108,true,NA,NA,NA,NA,NA
w5Q6SuOv,NA,NA,w5Q6SuOv,2020-0188,2021-11-01,22:51:37,00:35:20,NA,incomplete,false,true,NA,6,2,size,m_l_022.jpg,right,small,large,NA,NA,NA,right,1860,true,NA,NA,NA,NA,NA
w5Q6SuOv,NA,NA,w5Q6SuOv,2020-0188,2021-11-01,22:51:37,00:35:20,NA,incomplete,false,true,NA,6,3,size,m_s_020.jpg,left,small,large,NA,NA,NA,left,1117.00000000047,true,NA,NA,NA,NA,NA
w5Q6SuOv,NA,NA,w5Q6SuOv,2020-0188,2021-11-01,22:51:37,00:35:20,NA,incomplete,false,true,NA,6,4,size,m_l_001.jpg,left,large,small,NA,NA,NA,left,1403,true,NA,NA,NA,NA,NA
w5Q6SuOv,NA,NA,w5Q6SuOv,2020-0188,2021-11-01,22:51:37,00:35:20,NA,incomplete,false,true,NA,6,5,origin,m_s_011.jpg,right,natural,manmade,NA,NA,NA,right,1528.00000000047,true,NA,NA,NA,NA,NA
w5Q6SuOv,NA,NA,w5Q6SuOv,2020-0188,2021-11-01,22:51:37,00:35:20,NA,incomplete,false,true,NA,6,6,origin,n_l_003.jpg,right,manmade,natural,NA,NA,NA,left,2005,false,NA,NA,NA,NA,NA
w5Q6SuOv,NA,NA,w5Q6SuOv,2020-0188,2021-11-01,22:51:37,00:35:20,NA,incomplete,false,true,NA,6,7,origin,n_l_017.jpg,right,manmade,natural,NA,NA,NA,right,1788,true,NA,NA,NA,NA,NA
w5Q6SuOv,NA,NA,w5Q6SuOv,2020-0188,2021-11-01,22:51:37,00:35:20,NA,incomplete,false,true,NA,6,8,origin,m_s_018.jpg,right,natural,manmade,NA,NA,NA,right,1790.99999999953,true,NA,NA,NA,NA,NA
w5Q6SuOv,NA,NA,w5Q6SuOv,2020-0188,2021-11-01,22:51:37,00:35:20,NA,incomplete,false,true,NA,6,9,origin,n_l_024.jpg,right,manmade,natural,NA,NA,NA,right,2081,true,NA,NA,NA,NA,NA
w5Q6SuOv,NA,NA,w5Q6SuOv,2020-0188,2021-11-01,22:51:37,00:35:20,NA,incomplete,false,true,NA,6,10,syllable,c_1_010.jpg,right,2 syllables,1 syllable,NA,NA,NA,right,1610,true,NA,NA,NA,NA,NA
w5Q6SuOv,NA,NA,w5Q6SuOv,2020-0188,2021-11-01,22:51:37,00:35:20,NA,incomplete,false,true,NA,6,11,syllable,c_2_006.jpg,right,1 syllable,2 syllables,NA,NA,NA,right,2824.99999999953,true,NA,NA,NA,NA,NA
w5Q6SuOv,NA,NA,w5Q6SuOv,2020-0188,2021-11-01,22:51:37,00:35:20,NA,incomplete,false,true,NA,6,12,syllable,a_2_019.jpg,right,2 syllables,1 syllable,NA,NA,NA,left,2772,false,NA,NA,NA,NA,NA
w5Q6SuOv,NA,NA,w5Q6SuOv,2020-0188,2021-11-01,22:51:37,00:35:20,NA,incomplete,false,true,NA,6,13,syllable,a_1_008.jpg,right,2 syllables,1 syllable,NA,NA,NA,right,1545,true,NA,NA,NA,NA,NA
w5Q6SuOv,NA,NA,w5Q6SuOv,2020-0188,2021-11-01,22:51:37,00:35:20,NA,incomplete,false,true,NA,6,14,syllable,c_1_015.jpg,right,2 syllables,1 syllable,NA,NA,NA,right,2134.99999999953,true,NA,NA,NA,NA,NA
w5Q6SuOv,NA,NA,w5Q6SuOv,2020-0188,2021-11-01,22:51:37,00:35:20,NA,incomplete,false,true,NA,6,15,abstractness,a_2_007.jpg,left,abstract,concrete,NA,NA,NA,left,2886.00000000047,true,NA,NA,NA,NA,NA
w5Q6SuOv,NA,NA,w5Q6SuOv,2020-0188,2021-11-01,22:51:37,00:35:20,NA,incomplete,false,true,NA,6,16,abstractness,a_2_028.jpg,left,abstract,concrete,NA,NA,NA,left,1753,true,NA,NA,NA,NA,NA
w5Q6SuOv,NA,NA,w5Q6SuOv,2020-0188,2021-11-01,22:51:37,00:35:20,NA,incomplete,false,true,NA,6,17,abstractness,c_2_009.jpg,left,concrete,abstract,NA,NA,NA,left,1804.99999999907,true,NA,NA,NA,NA,NA
w5Q6SuOv,NA,NA,w5Q6SuOv,2020-0188,2021-11-01,22:51:37,00:35:20,NA,incomplete,false,true,NA,6,18,abstractness,a_2_001.jpg,right,concrete,abstract,NA,NA,NA,right,1174,true,NA,NA,NA,NA,NA
w5Q6SuOv,NA,NA,w5Q6SuOv,2020-0188,2021-11-01,22:51:37,00:35:20,NA,incomplete,false,true,NA,6,19,abstractness,c_1_023.jpg,right,abstract,concrete,NA,NA,NA,right,2518.99999999907,true,NA,NA,NA,NA,NA
w5Q6SuOv,NA,NA,w5Q6SuOv,2020-0188,2021-11-01,22:51:37,00:35:20,NA,incomplete,false,true,NA,6,20,location,i_s_011.jpg,left,indoor,outdoor,NA,NA,NA,left,1576.99999999907,true,NA,NA,NA,NA,NA
w5Q6SuOv,NA,NA,w5Q6SuOv,2020-0188,2021-11-01,22:51:37,00:35:20,NA,incomplete,false,true,NA,6,21,location,o_s_014.jpg,right,indoor,outdoor,NA,NA,NA,right,1062.00000000093,true,NA,NA,NA,NA,NA
w5Q6SuOv,NA,NA,w5Q6SuOv,2020-0188,2021-11-01,22:51:37,00:35:20,NA,incomplete,false,true,NA,6,22,location,o_c_021.jpg,left,outdoor,indoor,NA,NA,NA,left,1194,true,NA,NA,NA,NA,NA
w5Q6SuOv,NA,NA,w5Q6SuOv,2020-0188,2021-11-01,22:51:37,00:35:20,NA,incomplete,false,true,NA,6,23,location,o_s_004.jpg,right,indoor,outdoor,NA,NA,NA,right,1103,true,NA,NA,NA,NA,NA
w5Q6SuOv,NA,NA,w5Q6SuOv,2020-0188,2021-11-01,22:51:37,00:35:20,NA,incomplete,false,true,NA,6,24,location,i_s_006.jpg,left,indoor,outdoor,NA,NA,NA,left,1338.99999999953,true,NA,NA,NA,NA,NA
w5Q6SuOv,NA,NA,w5Q6SuOv,2020-0188,2021-11-01,22:51:37,00:35:20,NA,incomplete,false,true,NA,6,25,building,o_c_026.jpg,left,cottage,skyscraper,NA,NA,NA,left,1176.00000000047,true,NA,NA,NA,NA,NA
w5Q6SuOv,NA,NA,w5Q6SuOv,2020-0188,2021-11-01,22:51:37,00:35:20,NA,incomplete,false,true,NA,6,26,building,i_c_012.jpg,right,skyscraper,cottage,NA,NA,NA,right,1175,true,NA,NA,NA,NA,NA
w5Q6SuOv,NA,NA,w5Q6SuOv,2020-0188,2021-11-01,22:51:37,00:35:20,NA,incomplete,false,true,NA,6,27,building,i_c_026.jpg,left,cottage,skyscraper,NA,NA,NA,left,1151.00000000093,true,NA,NA,NA,NA,NA
w5Q6SuOv,NA,NA,w5Q6SuOv,2020-0188,2021-11-01,22:51:37,00:35:20,NA,incomplete,false,true,NA,6,28,building,i_s_017.jpg,right,cottage,skyscraper,NA,NA,NA,right,1341,true,NA,NA,NA,NA,NA
w5Q6SuOv,NA,NA,w5Q6SuOv,2020-0188,2021-11-01,22:51:37,00:35:20,NA,incomplete,false,true,NA,6,29,building,o_s_022.jpg,right,cottage,skyscraper,NA,NA,NA,right,1090.00000000047,true,NA,NA,NA,NA,NA
w5Q6SuOv,NA,NA,w5Q6SuOv,2020-0188,2021-11-01,22:51:37,00:35:20,NA,incomplete,false,NA,true,6,0,NA,NA,right,NA,NA,i_s_011.jpg,c_2_009.jpg,between-big,NA,NaN,NA,right,1015,1,3,949.0000000004657
w5Q6SuOv,NA,NA,w5Q6SuOv,2020-0188,2021-11-01,22:51:37,00:35:20,NA,incomplete,false,NA,true,6,1,NA,NA,right,NA,NA,a_2_001.jpg,a_2_007.jpg,within,NA,NaN,NA,right,1203,1,1,1504
w5Q6SuOv,NA,NA,w5Q6SuOv,2020-0188,2021-11-01,22:51:37,00:35:20,NA,incomplete,false,NA,true,6,2,NA,NA,right,NA,NA,m_l_001.jpg,n_l_011.jpg,within,NA,NaN,NA,right,1626.0000000004657,1,1,1511.0000000004657
w5Q6SuOv,NA,NA,w5Q6SuOv,2020-0188,2021-11-01,22:51:37,00:35:20,NA,incomplete,false,NA,true,6,3,NA,NA,right,NA,NA,i_s_006.jpg,o_s_014.jpg,within,NA,NaN,NA,left,2319.9999999995343,0,1,1808
w5Q6SuOv,NA,NA,w5Q6SuOv,2020-0188,2021-11-01,22:51:37,00:35:20,NA,incomplete,false,NA,true,6,4,NA,NA,right,NA,NA,c_2_009.jpg,c_1_015.jpg,between-small,NA,NaN,NA,right,5942,1,0,1561
w5Q6SuOv,NA,NA,w5Q6SuOv,2020-0188,2021-11-01,22:51:37,00:35:20,NA,incomplete,false,NA,true,6,5,NA,NA,left,NA,NA,n_l_003.jpg,n_l_024.jpg,within,NA,NaN,NA,left,3716,1,0,2814
w5Q6SuOv,NA,NA,w5Q6SuOv,2020-0188,2021-11-01,22:51:37,00:35:20,NA,incomplete,false,NA,true,6,6,NA,NA,right,NA,NA,m_s_011.jpg,m_l_022.jpg,between-small,NA,NaN,NA,right,4350,1,0,1099
w5Q6SuOv,NA,NA,w5Q6SuOv,2020-0188,2021-11-01,22:51:37,00:35:20,NA,incomplete,false,NA,true,6,7,NA,NA,right,NA,NA,a_2_007.jpg,a_2_019.jpg,between-small,NA,NaN,NA,right,3606,1,0,2197
w5Q6SuOv,NA,NA,w5Q6SuOv,2020-0188,2021-11-01,22:51:37,00:35:20,NA,incomplete,false,NA,true,6,8,NA,NA,right,NA,NA,i_c_012.jpg,o_s_004.jpg,between-small,NA,NaN,NA,left,1972,0,1,1104
w5Q6SuOv,NA,NA,w5Q6SuOv,2020-0188,2021-11-01,22:51:37,00:35:20,NA,incomplete,false,NA,true,6,9,NA,NA,right,NA,NA,a_1_008.jpg,c_1_010.jpg,within,NA,NaN,NA,right,3573,1,1,1031
w5Q6SuOv,NA,NA,w5Q6SuOv,2020-0188,2021-11-01,22:51:37,00:35:20,NA,incomplete,false,NA,true,6,10,NA,NA,right,NA,NA,n_l_017.jpg,m_l_001.jpg,between-small,NA,NaN,NA,right,6333,1,1,2378
w5Q6SuOv,NA,NA,w5Q6SuOv,2020-0188,2021-11-01,22:51:37,00:35:20,NA,incomplete,false,NA,true,6,11,NA,NA,right,NA,NA,o_s_004.jpg,i_s_011.jpg,within,NA,NaN,NA,left,2599,0,1,858
w5Q6SuOv,NA,NA,w5Q6SuOv,2020-0188,2021-11-01,22:51:37,00:35:20,NA,incomplete,false,NA,true,6,12,NA,NA,left,NA,NA,i_s_006.jpg,i_c_026.jpg,between-small,NA,NaN,NA,right,2303,0,1,930
w5Q6SuOv,NA,NA,w5Q6SuOv,2020-0188,2021-11-01,22:51:37,00:35:20,NA,incomplete,false,NA,true,6,13,NA,NA,right,NA,NA,a_2_028.jpg,a_1_008.jpg,between-small,NA,NaN,NA,right,7172.999999999069,1,1,1495
w5Q6SuOv,NA,NA,w5Q6SuOv,2020-0188,2021-11-01,22:51:37,00:35:20,NA,incomplete,false,NA,true,6,14,NA,NA,right,NA,NA,c_1_010.jpg,n_l_017.jpg,between-big,NA,NaN,NA,left,1288,0,2,2279
w5Q6SuOv,NA,NA,w5Q6SuOv,2020-0188,2021-11-01,22:51:37,00:35:20,NA,incomplete,false,NA,true,6,15,NA,NA,left,NA,NA,a_2_028.jpg,c_1_023.jpg,within,NA,NaN,NA,left,1594,1,1,1815
w5Q6SuOv,NA,NA,w5Q6SuOv,2020-0188,2021-11-01,22:51:37,00:35:20,NA,incomplete,false,NA,true,6,16,NA,NA,left,NA,NA,m_s_011.jpg,m_s_018.jpg,within,NA,NaN,NA,right,2690,0,1,1684
w5Q6SuOv,NA,NA,w5Q6SuOv,2020-0188,2021-11-01,22:51:37,00:35:20,NA,incomplete,false,NA,true,6,17,NA,NA,right,NA,NA,c_2_006.jpg,m_s_018.jpg,between-big,NA,NaN,NA,left,3469,0,2,2006
w5Q6SuOv,NA,NA,w5Q6SuOv,2020-0188,2021-11-01,22:51:37,00:35:20,NA,incomplete,false,NA,true,6,18,NA,NA,left,NA,NA,o_c_026.jpg,i_s_017.jpg,within,NA,NaN,NA,left,925,1,1,1765
w5Q6SuOv,NA,NA,w5Q6SuOv,2020-0188,2021-11-01,22:51:37,00:35:20,NA,incomplete,false,NA,true,6,19,NA,NA,left,NA,NA,n_l_024.jpg,a_2_019.jpg,between-big,NA,NaN,NA,right,3030,0,1,2064
w5Q6SuOv,NA,NA,w5Q6SuOv,2020-0188,2021-11-01,22:51:37,00:35:20,NA,incomplete,false,NA,true,6,20,NA,NA,left,NA,NA,m_s_020.jpg,n_l_003.jpg,between-small,NA,NaN,NA,left,932,1,2,1031.9999999990687
w5Q6SuOv,NA,NA,w5Q6SuOv,2020-0188,2021-11-01,22:51:37,00:35:20,NA,incomplete,false,NA,true,6,21,NA,NA,left,NA,NA,c_1_023.jpg,o_c_021.jpg,between-big,NA,NaN,NA,left,1932,1,2,1511.0000000009313
w5Q6SuOv,NA,NA,w5Q6SuOv,2020-0188,2021-11-01,22:51:37,00:35:20,NA,incomplete,false,NA,true,6,22,NA,NA,left,NA,NA,a_2_001.jpg,o_s_014.jpg,between-big,NA,NaN,NA,left,1676,1,2,1542
w5Q6SuOv,NA,NA,w5Q6SuOv,2020-0188,2021-11-01,22:51:37,00:35:20,NA,incomplete,false,NA,true,6,23,NA,NA,right,NA,NA,o_c_026.jpg,o_c_021.jpg,between-small,NA,NaN,NA,left,956,0,1,767
w5Q6SuOv,NA,NA,w5Q6SuOv,2020-0188,2021-11-01,22:51:37,00:35:20,NA,incomplete,false,NA,true,6,24,NA,NA,left,NA,NA,i_c_012.jpg,o_s_022.jpg,within,NA,NaN,NA,left,1181,1,1,1123
w5Q6SuOv,NA,NA,w5Q6SuOv,2020-0188,2021-11-01,22:51:37,00:35:20,NA,incomplete,false,NA,true,6,25,NA,NA,left,NA,NA,m_s_001.jpg,m_s_020.jpg,within,NA,NaN,NA,left,974,1,1,1924
w5Q6SuOv,NA,NA,w5Q6SuOv,2020-0188,2021-11-01,22:51:37,00:35:20,NA,incomplete,false,NA,true,6,26,NA,NA,left,NA,NA,c_2_006.jpg,c_1_015.jpg,within,NA,NaN,NA,left,4690,1,1,940
w5Q6SuOv,NA,NA,w5Q6SuOv,2020-0188,2021-11-01,22:51:37,00:35:20,NA,incomplete,false,true,NA,7,0,syllable,c_2_018.jpg,right,1 syllable,2 syllables,NA,NA,NA,right,1718,true,NA,NA,NA,NA,NA
w5Q6SuOv,NA,NA,w5Q6SuOv,2020-0188,2021-11-01,22:51:37,00:35:20,NA,incomplete,false,true,NA,7,1,syllable,c_1_006.jpg,right,2 syllables,1 syllable,NA,NA,NA,right,1244,true,NA,NA,NA,NA,NA
w5Q6SuOv,NA,NA,w5Q6SuOv,2020-0188,2021-11-01,22:51:37,00:35:20,NA,incomplete,false,true,NA,7,2,syllable,a_2_020.jpg,right,1 syllable,2 syllables,NA,NA,NA,right,1343,true,NA,NA,NA,NA,NA
w5Q6SuOv,NA,NA,w5Q6SuOv,2020-0188,2021-11-01,22:51:37,00:35:20,NA,incomplete,false,true,NA,7,3,syllable,a_2_003.jpg,right,2 syllables,1 syllable,NA,NA,NA,left,1509,false,NA,NA,NA,NA,NA
w5Q6SuOv,NA,NA,w5Q6SuOv,2020-0188,2021-11-01,22:51:37,00:35:20,NA,incomplete,false,true,NA,7,4,syllable,a_1_018.jpg,right,1 syllable,2 syllables,NA,NA,NA,left,1424,false,NA,NA,NA,NA,NA
w5Q6SuOv,NA,NA,w5Q6SuOv,2020-0188,2021-11-01,22:51:37,00:35:20,NA,incomplete,false,true,NA,7,5,abstractness,a_2_026.jpg,left,abstract,concrete,NA,NA,NA,left,2056,true,NA,NA,NA,NA,NA
w5Q6SuOv,NA,NA,w5Q6SuOv,2020-0188,2021-11-01,22:51:37,00:35:20,NA,incomplete,false,true,NA,7,6,abstractness,a_1_015.jpg,left,abstract,concrete,NA,NA,NA,left,1540,true,NA,NA,NA,NA,NA
w5Q6SuOv,NA,NA,w5Q6SuOv,2020-0188,2021-11-01,22:51:37,00:35:20,NA,incomplete,false,true,NA,7,7,abstractness,c_1_018.jpg,left,concrete,abstract,NA,NA,NA,left,2306,true,NA,NA,NA,NA,NA
w5Q6SuOv,NA,NA,w5Q6SuOv,2020-0188,2021-11-01,22:51:37,00:35:20,NA,incomplete,false,true,NA,7,8,abstractness,a_1_013.jpg,right,concrete,abstract,NA,NA,NA,right,2193,true,NA,NA,NA,NA,NA
w5Q6SuOv,NA,NA,w5Q6SuOv,2020-0188,2021-11-01,22:51:37,00:35:20,NA,incomplete,false,true,NA,7,9,abstractness,c_2_015.jpg,left,concrete,abstract,NA,NA,NA,left,2211,true,NA,NA,NA,NA,NA
w5Q6SuOv,NA,NA,w5Q6SuOv,2020-0188,2021-11-01,22:51:37,00:35:20,NA,incomplete,false,true,NA,7,10,building,i_c_001.jpg,left,cottage,skyscraper,NA,NA,NA,left,1958,true,NA,NA,NA,NA,NA
w5Q6SuOv,NA,NA,w5Q6SuOv,2020-0188,2021-11-01,22:51:37,00:35:20,NA,incomplete,false,true,NA,7,11,building,i_c_019.jpg,right,skyscraper,cottage,NA,NA,NA,right,2035,true,NA,NA,NA,NA,NA
w5Q6SuOv,NA,NA,w5Q6SuOv,2020-0188,2021-11-01,22:51:37,00:35:20,NA,incomplete,false,true,NA,7,12,building,o_s_010.jpg,left,skyscraper,cottage,NA,NA,NA,left,1537,true,NA,NA,NA,NA,NA
w5Q6SuOv,NA,NA,w5Q6SuOv,2020-0188,2021-11-01,22:51:37,00:35:20,NA,incomplete,false,true,NA,7,13,building,i_s_002.jpg,left,skyscraper,cottage,NA,NA,NA,left,1869,true,NA,NA,NA,NA,NA
w5Q6SuOv,NA,NA,w5Q6SuOv,2020-0188,2021-11-01,22:51:37,00:35:20,NA,incomplete,false,true,NA,7,14,building,o_s_018.jpg,left,skyscraper,cottage,NA,NA,NA,left,1540,true,NA,NA,NA,NA,NA
w5Q6SuOv,NA,NA,w5Q6SuOv,2020-0188,2021-11-01,22:51:37,00:35:20,NA,incomplete,false,true,NA,7,15,location,i_c_003.jpg,left,indoor,outdoor,NA,NA,NA,left,1523,true,NA,NA,NA,NA,NA
w5Q6SuOv,NA,NA,w5Q6SuOv,2020-0188,2021-11-01,22:51:37,00:35:20,NA,incomplete,false,true,NA,7,16,location,o_s_012.jpg,left,outdoor,indoor,NA,NA,NA,left,1446,true,NA,NA,NA,NA,NA
w5Q6SuOv,NA,NA,w5Q6SuOv,2020-0188,2021-11-01,22:51:37,00:35:20,NA,incomplete,false,true,NA,7,17,location,i_c_005.jpg,right,outdoor,indoor,NA,NA,NA,right,1217,true,NA,NA,NA,NA,NA
w5Q6SuOv,NA,NA,w5Q6SuOv,2020-0188,2021-11-01,22:51:37,00:35:20,NA,incomplete,false,true,NA,7,18,location,o_s_005.jpg,left,outdoor,indoor,NA,NA,NA,left,1138,true,NA,NA,NA,NA,NA
w5Q6SuOv,NA,NA,w5Q6SuOv,2020-0188,2021-11-01,22:51:37,00:35:20,NA,incomplete,false,true,NA,7,19,location,i_s_001.jpg,left,indoor,outdoor,NA,NA,NA,left,1844,true,NA,NA,NA,NA,NA
w5Q6SuOv,NA,NA,w5Q6SuOv,2020-0188,2021-11-01,22:51:37,00:35:20,NA,incomplete,false,true,NA,7,20,size,n_s_011.jpg,right,large,small,NA,NA,NA,right,1974,true,NA,NA,NA,NA,NA
w5Q6SuOv,NA,NA,w5Q6SuOv,2020-0188,2021-11-01,22:51:37,00:35:20,NA,incomplete,false,true,NA,7,21,size,m_l_011.jpg,right,small,large,NA,NA,NA,none,0,false,NA,NA,NA,NA,NA
w5Q6SuOv,NA,NA,w5Q6SuOv,2020-0188,2021-11-01,22:51:37,00:35:20,NA,incomplete,false,true,NA,7,22,size,n_l_028.jpg,right,small,large,NA,NA,NA,right,1025,true,NA,NA,NA,NA,NA
w5Q6SuOv,NA,NA,w5Q6SuOv,2020-0188,2021-11-01,22:51:37,00:35:20,NA,incomplete,false,true,NA,7,23,size,m_s_026.jpg,right,large,small,NA,NA,NA,right,1873,true,NA,NA,NA,NA,NA
w5Q6SuOv,NA,NA,w5Q6SuOv,2020-0188,2021-11-01,22:51:37,00:35:20,NA,incomplete,false,true,NA,7,24,size,m_l_014.jpg,right,small,large,NA,NA,NA,right,1512.00000000093,true,NA,NA,NA,NA,NA
w5Q6SuOv,NA,NA,w5Q6SuOv,2020-0188,2021-11-01,22:51:37,00:35:20,NA,incomplete,false,true,NA,7,25,origin,n_l_015.jpg,left,natural,manmade,NA,NA,NA,left,1451,true,NA,NA,NA,NA,NA
w5Q6SuOv,NA,NA,w5Q6SuOv,2020-0188,2021-11-01,22:51:37,00:35:20,NA,incomplete,false,true,NA,7,26,origin,m_l_025.jpg,left,manmade,natural,NA,NA,NA,left,1862.99999999907,true,NA,NA,NA,NA,NA
w5Q6SuOv,NA,NA,w5Q6SuOv,2020-0188,2021-11-01,22:51:37,00:35:20,NA,incomplete,false,true,NA,7,27,origin,m_s_019.jpg,right,natural,manmade,NA,NA,NA,right,1353,true,NA,NA,NA,NA,NA
w5Q6SuOv,NA,NA,w5Q6SuOv,2020-0188,2021-11-01,22:51:37,00:35:20,NA,incomplete,false,true,NA,7,28,origin,n_s_021.jpg,left,natural,manmade,NA,NA,NA,left,1317,true,NA,NA,NA,NA,NA
w5Q6SuOv,NA,NA,w5Q6SuOv,2020-0188,2021-11-01,22:51:37,00:35:20,NA,incomplete,false,true,NA,7,29,origin,m_l_009.jpg,left,manmade,natural,NA,NA,NA,left,1145,true,NA,NA,NA,NA,NA
w5Q6SuOv,NA,NA,w5Q6SuOv,2020-0188,2021-11-01,22:51:37,00:35:20,NA,incomplete,false,NA,true,7,0,NA,NA,left,NA,NA,o_s_018.jpg,i_c_005.jpg,between-small,NA,NaN,NA,right,1487,0,1,932
w5Q6SuOv,NA,NA,w5Q6SuOv,2020-0188,2021-11-01,22:51:37,00:35:20,NA,incomplete,false,NA,true,7,1,NA,NA,left,NA,NA,m_l_011.jpg,m_l_014.jpg,within,NA,NaN,NA,left,1055.9999999990687,1,1,1956
w5Q6SuOv,NA,NA,w5Q6SuOv,2020-0188,2021-11-01,22:51:37,00:35:20,NA,incomplete,false,NA,true,7,2,NA,NA,right,NA,NA,i_c_003.jpg,o_s_010.jpg,between-small,NA,NaN,NA,right,823,1,1,1081
w5Q6SuOv,NA,NA,w5Q6SuOv,2020-0188,2021-11-01,22:51:37,00:35:20,NA,incomplete,false,NA,true,7,3,NA,NA,right,NA,NA,i_c_001.jpg,c_1_018.jpg,between-big,NA,NaN,NA,right,1495,1,2,1396
w5Q6SuOv,NA,NA,w5Q6SuOv,2020-0188,2021-11-01,22:51:37,00:35:20,NA,incomplete,false,NA,true,7,4,NA,NA,left,NA,NA,i_s_002.jpg,o_s_012.jpg,between-small,NA,NaN,NA,left,6571.000000000931,1,1,2758
w5Q6SuOv,NA,NA,w5Q6SuOv,2020-0188,2021-11-01,22:51:37,00:35:20,NA,incomplete,false,NA,true,7,5,NA,NA,right,NA,NA,m_s_026.jpg,n_s_011.jpg,within,NA,NaN,NA,left,1402,0,1,1041
w5Q6SuOv,NA,NA,w5Q6SuOv,2020-0188,2021-11-01,22:51:37,00:35:20,NA,incomplete,false,NA,true,7,6,NA,NA,right,NA,NA,a_1_013.jpg,a_2_026.jpg,within,NA,NaN,NA,right,649.9999999990687,1,1,1297
w5Q6SuOv,NA,NA,w5Q6SuOv,2020-0188,2021-11-01,22:51:37,00:35:20,NA,incomplete,false,NA,true,7,7,NA,NA,right,NA,NA,o_s_018.jpg,i_c_019.jpg,within,NA,NaN,NA,right,1139,1,2,1189
w5Q6SuOv,NA,NA,w5Q6SuOv,2020-0188,2021-11-01,22:51:37,00:35:20,NA,incomplete,false,NA,true,7,8,NA,NA,left,NA,NA,n_l_028.jpg,n_l_015.jpg,between-small,NA,NaN,NA,left,792.9999999990687,1,1,1494
w5Q6SuOv,NA,NA,w5Q6SuOv,2020-0188,2021-11-01,22:51:37,00:35:20,NA,incomplete,false,NA,true,7,9,NA,NA,left,NA,NA,a_2_003.jpg,a_1_015.jpg,between-small,NA,NaN,NA,right,1024.0000000009313,0,1,915.9999999990687
w5Q6SuOv,NA,NA,w5Q6SuOv,2020-0188,2021-11-01,22:51:37,00:35:20,NA,incomplete,false,NA,true,7,10,NA,NA,right,NA,NA,c_1_018.jpg,a_1_018.jpg,between-small,NA,NaN,NA,right,1015,1,1,1313.0000000009313
w5Q6SuOv,NA,NA,w5Q6SuOv,2020-0188,2021-11-01,22:51:37,00:35:20,NA,incomplete,false,NA,true,7,11,NA,NA,right,NA,NA,m_l_025.jpg,m_s_026.jpg,between-small,NA,NaN,NA,right,750,1,1,743
w5Q6SuOv,NA,NA,w5Q6SuOv,2020-0188,2021-11-01,22:51:37,00:35:20,NA,incomplete,false,NA,true,7,12,NA,NA,left,NA,NA,a_1_013.jpg,i_c_019.jpg,between-big,NA,NaN,NA,left,957,1,2,1230.9999999990687
w5Q6SuOv,NA,NA,w5Q6SuOv,2020-0188,2021-11-01,22:51:37,00:35:20,NA,incomplete,false,NA,true,7,13,NA,NA,right,NA,NA,o_s_005.jpg,i_c_003.jpg,within,NA,NaN,NA,left,2014,0,1,1461
w5Q6SuOv,NA,NA,w5Q6SuOv,2020-0188,2021-11-01,22:51:37,00:35:20,NA,incomplete,false,NA,true,7,14,NA,NA,right,NA,NA,n_s_021.jpg,n_l_015.jpg,within,NA,NaN,NA,right,2072,1,2,2685
w5Q6SuOv,NA,NA,w5Q6SuOv,2020-0188,2021-11-01,22:51:37,00:35:20,NA,incomplete,false,NA,true,7,15,NA,NA,left,NA,NA,o_s_012.jpg,i_s_001.jpg,within,NA,NaN,NA,left,775,1,2,974
w5Q6SuOv,NA,NA,w5Q6SuOv,2020-0188,2021-11-01,22:51:37,00:35:20,NA,incomplete,false,NA,true,7,16,NA,NA,right,NA,NA,m_l_011.jpg,o_s_005.jpg,between-big,NA,NaN,NA,left,875,0,2,1494
w5Q6SuOv,NA,NA,w5Q6SuOv,2020-0188,2021-11-01,22:51:37,00:35:20,NA,incomplete,false,NA,true,7,17,NA,NA,left,NA,NA,c_2_018.jpg,a_2_003.jpg,within,NA,NaN,NA,left,3177,1,1,966
w5Q6SuOv,NA,NA,w5Q6SuOv,2020-0188,2021-11-01,22:51:37,00:35:20,NA,incomplete,false,NA,true,7,18,NA,NA,right,NA,NA,n_l_028.jpg,i_s_001.jpg,between-big,NA,NaN,NA,right,2080,1,2,3938
w5Q6SuOv,NA,NA,w5Q6SuOv,2020-0188,2021-11-01,22:51:37,00:35:20,NA,incomplete,false,NA,true,7,19,NA,NA,left,NA,NA,c_2_015.jpg,o_s_010.jpg,between-big,NA,NaN,NA,left,735,1,2,1759
w5Q6SuOv,NA,NA,w5Q6SuOv,2020-0188,2021-11-01,22:51:37,00:35:20,NA,incomplete,false,NA,true,7,20,NA,NA,right,NA,NA,m_s_019.jpg,m_l_014.jpg,between-small,NA,NaN,NA,right,1039,1,1,934
w5Q6SuOv,NA,NA,w5Q6SuOv,2020-0188,2021-11-01,22:51:37,00:35:20,NA,incomplete,false,NA,true,7,21,NA,NA,left,NA,NA,i_c_005.jpg,n_s_011.jpg,between-big,NA,NaN,NA,right,766.9999999990687,0,2,939
w5Q6SuOv,NA,NA,w5Q6SuOv,2020-0188,2021-11-01,22:51:37,00:35:20,NA,incomplete,false,NA,true,7,22,NA,NA,right,NA,NA,a_2_026.jpg,a_2_020.jpg,between-small,NA,NaN,NA,left,1172,0,1,800
w5Q6SuOv,NA,NA,w5Q6SuOv,2020-0188,2021-11-01,22:51:37,00:35:20,NA,incomplete,false,NA,true,7,23,NA,NA,left,NA,NA,c_1_006.jpg,a_1_018.jpg,within,NA,NaN,NA,right,1148,0,1,1825
w5Q6SuOv,NA,NA,w5Q6SuOv,2020-0188,2021-11-01,22:51:37,00:35:20,NA,incomplete,false,NA,true,7,24,NA,NA,right,NA,NA,c_2_015.jpg,a_1_015.jpg,within,NA,NaN,NA,right,1898.0000000009313,1,1,1049
w5Q6SuOv,NA,NA,w5Q6SuOv,2020-0188,2021-11-01,22:51:37,00:35:20,NA,incomplete,false,NA,true,7,25,NA,NA,left,NA,NA,i_c_001.jpg,i_s_002.jpg,within,NA,NaN,NA,right,1154.9999999990687,0,1,1346
w5Q6SuOv,NA,NA,w5Q6SuOv,2020-0188,2021-11-01,22:51:37,00:35:20,NA,incomplete,false,NA,true,7,26,NA,NA,right,NA,NA,m_l_009.jpg,m_l_025.jpg,within,NA,NaN,NA,left,2303,0,1,1123
w5Q6SuOv,NA,NA,w5Q6SuOv,2020-0188,2021-11-01,22:51:37,00:35:20,NA,incomplete,false,true,NA,8,0,origin,n_s_002.jpg,right,manmade,natural,NA,NA,NA,right,1391,true,NA,NA,NA,NA,NA
w5Q6SuOv,NA,NA,w5Q6SuOv,2020-0188,2021-11-01,22:51:37,00:35:20,NA,incomplete,false,true,NA,8,1,origin,n_s_001.jpg,right,manmade,natural,NA,NA,NA,right,1949,true,NA,NA,NA,NA,NA
w5Q6SuOv,NA,NA,w5Q6SuOv,2020-0188,2021-11-01,22:51:37,00:35:20,NA,incomplete,false,true,NA,8,2,origin,n_s_019.jpg,left,natural,manmade,NA,NA,NA,left,1018,true,NA,NA,NA,NA,NA
w5Q6SuOv,NA,NA,w5Q6SuOv,2020-0188,2021-11-01,22:51:37,00:35:20,NA,incomplete,false,true,NA,8,3,origin,m_l_010.jpg,right,natural,manmade,NA,NA,NA,right,2810,true,NA,NA,NA,NA,NA
w5Q6SuOv,NA,NA,w5Q6SuOv,2020-0188,2021-11-01,22:51:37,00:35:20,NA,incomplete,false,true,NA,8,4,origin,m_l_018.jpg,right,natural,manmade,NA,NA,NA,right,885,true,NA,NA,NA,NA,NA
w5Q6SuOv,NA,NA,w5Q6SuOv,2020-0188,2021-11-01,22:51:37,00:35:20,NA,incomplete,false,true,NA,8,5,size,n_l_009.jpg,left,large,small,NA,NA,NA,left,1174,true,NA,NA,NA,NA,NA
w5Q6SuOv,NA,NA,w5Q6SuOv,2020-0188,2021-11-01,22:51:37,00:35:20,NA,incomplete,false,true,NA,8,6,size,n_s_003.jpg,right,large,small,NA,NA,NA,right,1063,true,NA,NA,NA,NA,NA
w5Q6SuOv,NA,NA,w5Q6SuOv,2020-0188,2021-11-01,22:51:37,00:35:20,NA,incomplete,false,true,NA,8,7,size,n_s_028.jpg,right,large,small,NA,NA,NA,right,2080,true,NA,NA,NA,NA,NA
w5Q6SuOv,NA,NA,w5Q6SuOv,2020-0188,2021-11-01,22:51:37,00:35:20,NA,incomplete,false,true,NA,8,8,size,m_l_005.jpg,right,small,large,NA,NA,NA,right,1355,true,NA,NA,NA,NA,NA
w5Q6SuOv,NA,NA,w5Q6SuOv,2020-0188,2021-11-01,22:51:37,00:35:20,NA,incomplete,false,true,NA,8,9,size,m_s_022.jpg,right,large,small,NA,NA,NA,right,1018,true,NA,NA,NA,NA,NA
w5Q6SuOv,NA,NA,w5Q6SuOv,2020-0188,2021-11-01,22:51:37,00:35:20,NA,incomplete,false,true,NA,8,10,syllable,c_1_001.jpg,right,2 syllables,1 syllable,NA,NA,NA,right,1506,true,NA,NA,NA,NA,NA
w5Q6SuOv,NA,NA,w5Q6SuOv,2020-0188,2021-11-01,22:51:37,00:35:20,NA,incomplete,false,true,NA,8,11,syllable,c_2_026.jpg,right,2 syllables,1 syllable,NA,NA,NA,left,1343,false,NA,NA,NA,NA,NA
w5Q6SuOv,NA,NA,w5Q6SuOv,2020-0188,2021-11-01,22:51:37,00:35:20,NA,incomplete,false,true,NA,8,12,syllable,c_2_020.jpg,right,1 syllable,2 syllables,NA,NA,NA,right,1373,true,NA,NA,NA,NA,NA
w5Q6SuOv,NA,NA,w5Q6SuOv,2020-0188,2021-11-01,22:51:37,00:35:20,NA,incomplete,false,true,NA,8,13,syllable,c_1_009.jpg,right,2 syllables,1 syllable,NA,NA,NA,right,1220.99999999907,true,NA,NA,NA,NA,NA
w5Q6SuOv,NA,NA,w5Q6SuOv,2020-0188,2021-11-01,22:51:37,00:35:20,NA,incomplete,false,true,NA,8,14,syllable,a_2_021.jpg,right,1 syllable,2 syllables,NA,NA,NA,right,1956.00000000093,true,NA,NA,NA,NA,NA
w5Q6SuOv,NA,NA,w5Q6SuOv,2020-0188,2021-11-01,22:51:37,00:35:20,NA,incomplete,false,true,NA,8,15,abstractness,c_1_012.jpg,left,concrete,abstract,NA,NA,NA,left,2317,true,NA,NA,NA,NA,NA
w5Q6SuOv,NA,NA,w5Q6SuOv,2020-0188,2021-11-01,22:51:37,00:35:20,NA,incomplete,false,true,NA,8,16,abstractness,a_2_015.jpg,left,abstract,concrete,NA,NA,NA,left,2322.99999999907,true,NA,NA,NA,NA,NA
w5Q6SuOv,NA,NA,w5Q6SuOv,2020-0188,2021-11-01,22:51:37,00:35:20,NA,incomplete,false,true,NA,8,17,abstractness,c_2_014.jpg,right,abstract,concrete,NA,NA,NA,right,2700,true,NA,NA,NA,NA,NA
w5Q6SuOv,NA,NA,w5Q6SuOv,2020-0188,2021-11-01,22:51:37,00:35:20,NA,incomplete,false,true,NA,8,18,abstractness,c_2_008.jpg,left,concrete,abstract,NA,NA,NA,left,1695,true,NA,NA,NA,NA,NA
w5Q6SuOv,NA,NA,w5Q6SuOv,2020-0188,2021-11-01,22:51:37,00:35:20,NA,incomplete,false,true,NA,8,19,abstractness,c_1_013.jpg,left,concrete,abstract,NA,NA,NA,left,1463.00000000093,true,NA,NA,NA,NA,NA
w5Q6SuOv,NA,NA,w5Q6SuOv,2020-0188,2021-11-01,22:51:37,00:35:20,NA,incomplete,false,true,NA,8,20,building,i_s_004.jpg,right,cottage,skyscraper,NA,NA,NA,right,2839,true,NA,NA,NA,NA,NA
w5Q6SuOv,NA,NA,w5Q6SuOv,2020-0188,2021-11-01,22:51:37,00:35:20,NA,incomplete,false,true,NA,8,21,building,i_s_013.jpg,left,skyscraper,cottage,NA,NA,NA,left,1197,true,NA,NA,NA,NA,NA
w5Q6SuOv,NA,NA,w5Q6SuOv,2020-0188,2021-11-01,22:51:37,00:35:20,NA,incomplete,false,true,NA,8,22,building,o_c_014.jpg,right,skyscraper,cottage,NA,NA,NA,right,1150,true,NA,NA,NA,NA,NA
w5Q6SuOv,NA,NA,w5Q6SuOv,2020-0188,2021-11-01,22:51:37,00:35:20,NA,incomplete,false,true,NA,8,23,building,i_s_009.jpg,right,cottage,skyscraper,NA,NA,NA,right,1556,true,NA,NA,NA,NA,NA
w5Q6SuOv,NA,NA,w5Q6SuOv,2020-0188,2021-11-01,22:51:37,00:35:20,NA,incomplete,false,true,NA,8,24,building,o_s_027.jpg,right,cottage,skyscraper,NA,NA,NA,right,1011,true,NA,NA,NA,NA,NA
w5Q6SuOv,NA,NA,w5Q6SuOv,2020-0188,2021-11-01,22:51:37,00:35:20,NA,incomplete,false,true,NA,8,25,location,i_c_013.jpg,right,outdoor,indoor,NA,NA,NA,right,1847.00000000093,true,NA,NA,NA,NA,NA
w5Q6SuOv,NA,NA,w5Q6SuOv,2020-0188,2021-11-01,22:51:37,00:35:20,NA,incomplete,false,true,NA,8,26,location,o_c_004.jpg,right,indoor,outdoor,NA,NA,NA,right,1315.00000000093,true,NA,NA,NA,NA,NA
w5Q6SuOv,NA,NA,w5Q6SuOv,2020-0188,2021-11-01,22:51:37,00:35:20,NA,incomplete,false,true,NA,8,27,location,o_c_006.jpg,left,outdoor,indoor,NA,NA,NA,left,1140,true,NA,NA,NA,NA,NA
w5Q6SuOv,NA,NA,w5Q6SuOv,2020-0188,2021-11-01,22:51:37,00:35:20,NA,incomplete,false,true,NA,8,28,location,i_c_028.jpg,left,indoor,outdoor,NA,NA,NA,left,1174,true,NA,NA,NA,NA,NA
w5Q6SuOv,NA,NA,w5Q6SuOv,2020-0188,2021-11-01,22:51:37,00:35:20,NA,incomplete,false,true,NA,8,29,location,o_c_002.jpg,right,indoor,outdoor,NA,NA,NA,right,1293,true,NA,NA,NA,NA,NA
w5Q6SuOv,NA,NA,w5Q6SuOv,2020-0188,2021-11-01,22:51:37,00:35:20,NA,incomplete,false,NA,true,8,0,NA,NA,right,NA,NA,o_s_027.jpg,i_s_013.jpg,within,NA,NaN,NA,left,1857,0,1,1388
w5Q6SuOv,NA,NA,w5Q6SuOv,2020-0188,2021-11-01,22:51:37,00:35:20,NA,incomplete,false,NA,true,8,1,NA,NA,right,NA,NA,m_l_010.jpg,n_s_002.jpg,within,NA,NaN,NA,right,899.0000000009313,1,1,808
w5Q6SuOv,NA,NA,w5Q6SuOv,2020-0188,2021-11-01,22:51:37,00:35:20,NA,incomplete,false,NA,true,8,2,NA,NA,right,NA,NA,c_2_026.jpg,m_l_005.jpg,between-big,NA,NaN,NA,right,1651,1,2,992
w5Q6SuOv,NA,NA,w5Q6SuOv,2020-0188,2021-11-01,22:51:37,00:35:20,NA,incomplete,false,NA,true,8,3,NA,NA,left,NA,NA,c_1_013.jpg,o_c_014.jpg,between-big,NA,NaN,NA,left,1179.0000000009313,1,2,891
w5Q6SuOv,NA,NA,w5Q6SuOv,2020-0188,2021-11-01,22:51:37,00:35:20,NA,incomplete,false,NA,true,8,4,NA,NA,left,NA,NA,i_s_009.jpg,o_c_004.jpg,between-small,NA,NaN,NA,right,1194.9999999990687,0,2,2980
w5Q6SuOv,NA,NA,w5Q6SuOv,2020-0188,2021-11-01,22:51:37,00:35:20,NA,incomplete,false,NA,true,8,5,NA,NA,right,NA,NA,i_c_028.jpg,i_c_013.jpg,within,NA,NaN,NA,right,2468,1,1,791.0000000009313
w5Q6SuOv,NA,NA,w5Q6SuOv,2020-0188,2021-11-01,22:51:37,00:35:20,NA,incomplete,false,NA,true,8,6,NA,NA,left,NA,NA,n_s_019.jpg,n_l_009.jpg,between-small,NA,NaN,NA,left,1715.9999999990687,1,1,1396.0000000009313
w5Q6SuOv,NA,NA,w5Q6SuOv,2020-0188,2021-11-01,22:51:37,00:35:20,NA,incomplete,false,NA,true,8,7,NA,NA,right,NA,NA,i_s_004.jpg,c_2_014.jpg,between-big,NA,NaN,NA,right,2955,1,2,1105
w5Q6SuOv,NA,NA,w5Q6SuOv,2020-0188,2021-11-01,22:51:37,00:35:20,NA,incomplete,false,NA,true,8,8,NA,NA,right,NA,NA,c_1_012.jpg,c_2_020.jpg,between-small,NA,NaN,NA,right,2782,1,2,967
w5Q6SuOv,NA,NA,w5Q6SuOv,2020-0188,2021-11-01,22:51:37,00:35:20,NA,incomplete,false,NA,true,8,9,NA,NA,left,NA,NA,n_s_028.jpg,c_1_001.jpg,between-big,NA,NaN,NA,left,1098.0000000009313,1,2,1618
w5Q6SuOv,NA,NA,w5Q6SuOv,2020-0188,2021-11-01,22:51:37,00:35:20,NA,incomplete,false,NA,true,8,10,NA,NA,right,NA,NA,m_l_005.jpg,n_l_009.jpg,within,NA,NaN,NA,right,10294,1,0,2193.9999999990687
w5Q6SuOv,NA,NA,w5Q6SuOv,2020-0188,2021-11-01,22:51:37,00:35:20,NA,incomplete,false,NA,true,8,11,NA,NA,left,NA,NA,i_s_004.jpg,i_s_009.jpg,within,NA,NaN,NA,right,957,0,1,1444
w5Q6SuOv,NA,NA,w5Q6SuOv,2020-0188,2021-11-01,22:51:37,00:35:20,NA,incomplete,false,NA,true,8,12,NA,NA,left,NA,NA,o_c_014.jpg,i_c_013.jpg,between-small,NA,NaN,NA,right,898,0,1,982
w5Q6SuOv,NA,NA,w5Q6SuOv,2020-0188,2021-11-01,22:51:37,00:35:20,NA,incomplete,false,NA,true,8,13,NA,NA,left,NA,NA,n_s_001.jpg,m_l_018.jpg,within,NA,NaN,NA,left,4284,1,1,875
w5Q6SuOv,NA,NA,w5Q6SuOv,2020-0188,2021-11-01,22:51:37,00:35:20,NA,incomplete,false,NA,true,8,14,NA,NA,right,NA,NA,i_s_013.jpg,c_2_008.jpg,between-big,NA,NaN,NA,right,1775,1,2,1947.9999999990687
w5Q6SuOv,NA,NA,w5Q6SuOv,2020-0188,2021-11-01,22:51:37,00:35:20,NA,incomplete,false,NA,true,8,15,NA,NA,left,NA,NA,n_s_003.jpg,m_s_022.jpg,within,NA,NaN,NA,right,1461,0,1,1138
w5Q6SuOv,NA,NA,w5Q6SuOv,2020-0188,2021-11-01,22:51:37,00:35:20,NA,incomplete,false,NA,true,8,16,NA,NA,right,NA,NA,c_2_008.jpg,c_1_012.jpg,within,NA,NaN,NA,right,2475,1,1,908
w5Q6SuOv,NA,NA,w5Q6SuOv,2020-0188,2021-11-01,22:51:37,00:35:20,NA,incomplete,false,NA,true,8,17,NA,NA,left,NA,NA,m_l_010.jpg,n_s_003.jpg,between-small,NA,NaN,NA,left,3342,1,1,916
w5Q6SuOv,NA,NA,w5Q6SuOv,2020-0188,2021-11-01,22:51:37,00:35:20,NA,incomplete,false,NA,true,8,18,NA,NA,right,NA,NA,n_s_028.jpg,m_l_018.jpg,between-small,NA,NaN,NA,right,1303,1,1,1024.0000000009313
w5Q6SuOv,NA,NA,w5Q6SuOv,2020-0188,2021-11-01,22:51:37,00:35:20,NA,incomplete,false,NA,true,8,19,NA,NA,left,NA,NA,c_1_009.jpg,a_2_015.jpg,between-small,NA,NaN,NA,left,2097,1,1,3037.0000000009313
w5Q6SuOv,NA,NA,w5Q6SuOv,2020-0188,2021-11-01,22:51:37,00:35:20,NA,incomplete,false,NA,true,8,20,NA,NA,left,NA,NA,c_2_026.jpg,a_2_021.jpg,within,NA,NaN,NA,left,4416,1,1,1082
w5Q6SuOv,NA,NA,w5Q6SuOv,2020-0188,2021-11-01,22:51:37,00:35:20,NA,incomplete,false,NA,true,8,21,NA,NA,left,NA,NA,c_1_001.jpg,c_1_009.jpg,within,NA,NaN,NA,right,1973,0,1,727
w5Q6SuOv,NA,NA,w5Q6SuOv,2020-0188,2021-11-01,22:51:37,00:35:20,NA,incomplete,false,NA,true,8,22,NA,NA,right,NA,NA,o_c_006.jpg,o_s_027.jpg,between-small,NA,NaN,NA,right,1709,1,2,960
w5Q6SuOv,NA,NA,w5Q6SuOv,2020-0188,2021-11-01,22:51:37,00:35:20,NA,incomplete,false,NA,true,8,23,NA,NA,right,NA,NA,o_c_002.jpg,o_c_004.jpg,within,NA,NaN,NA,left,1130,0,1,3112
w5Q6SuOv,NA,NA,w5Q6SuOv,2020-0188,2021-11-01,22:51:37,00:35:20,NA,incomplete,false,NA,true,8,24,NA,NA,left,NA,NA,a_2_015.jpg,c_1_013.jpg,within,NA,NaN,NA,left,1122,1,1,998
w5Q6SuOv,NA,NA,w5Q6SuOv,2020-0188,2021-11-01,22:51:37,00:35:20,NA,incomplete,false,NA,true,8,25,NA,NA,left,NA,NA,m_s_022.jpg,c_2_020.jpg,between-big,NA,NaN,NA,left,1998,1,2,1774.0000000009313
w5Q6SuOv,NA,NA,w5Q6SuOv,2020-0188,2021-11-01,22:51:37,00:35:20,NA,incomplete,false,NA,true,8,26,NA,NA,right,NA,NA,c_2_014.jpg,a_2_021.jpg,between-small,NA,NaN,NA,right,3474,1,2,1076
w5Q6SuOv,NA,NA,w5Q6SuOv,2020-0188,2021-11-01,22:51:37,00:35:20,NA,incomplete,false,true,NA,9,0,building,o_s_019.jpg,left,skyscraper,cottage,NA,NA,NA,left,1279,true,NA,NA,NA,NA,NA
w5Q6SuOv,NA,NA,w5Q6SuOv,2020-0188,2021-11-01,22:51:37,00:35:20,NA,incomplete,false,true,NA,9,1,building,o_c_018.jpg,right,skyscraper,cottage,NA,NA,NA,right,1421.00000000093,true,NA,NA,NA,NA,NA
w5Q6SuOv,NA,NA,w5Q6SuOv,2020-0188,2021-11-01,22:51:37,00:35:20,NA,incomplete,false,true,NA,9,2,building,i_c_027.jpg,right,skyscraper,cottage,NA,NA,NA,right,888,true,NA,NA,NA,NA,NA
w5Q6SuOv,NA,NA,w5Q6SuOv,2020-0188,2021-11-01,22:51:37,00:35:20,NA,incomplete,false,true,NA,9,3,building,o_s_015.jpg,right,cottage,skyscraper,NA,NA,NA,right,1194,true,NA,NA,NA,NA,NA
w5Q6SuOv,NA,NA,w5Q6SuOv,2020-0188,2021-11-01,22:51:37,00:35:20,NA,incomplete,false,true,NA,9,4,building,o_c_011.jpg,left,cottage,skyscraper,NA,NA,NA,left,1504,true,NA,NA,NA,NA,NA
w5Q6SuOv,NA,NA,w5Q6SuOv,2020-0188,2021-11-01,22:51:37,00:35:20,NA,incomplete,false,true,NA,9,5,location,i_s_007.jpg,right,outdoor,indoor,NA,NA,NA,right,1179,true,NA,NA,NA,NA,NA
w5Q6SuOv,NA,NA,w5Q6SuOv,2020-0188,2021-11-01,22:51:37,00:35:20,NA,incomplete,false,true,NA,9,6,location,o_c_017.jpg,left,outdoor,indoor,NA,NA,NA,left,1490.00000000093,true,NA,NA,NA,NA,NA
w5Q6SuOv,NA,NA,w5Q6SuOv,2020-0188,2021-11-01,22:51:37,00:35:20,NA,incomplete,false,true,NA,9,7,location,o_s_011.jpg,left,outdoor,indoor,NA,NA,NA,left,1606,true,NA,NA,NA,NA,NA
w5Q6SuOv,NA,NA,w5Q6SuOv,2020-0188,2021-11-01,22:51:37,00:35:20,NA,incomplete,false,true,NA,9,8,location,i_c_006.jpg,left,indoor,outdoor,NA,NA,NA,left,2004,true,NA,NA,NA,NA,NA
w5Q6SuOv,NA,NA,w5Q6SuOv,2020-0188,2021-11-01,22:51:37,00:35:20,NA,incomplete,false,true,NA,9,9,location,i_s_024.jpg,left,indoor,outdoor,NA,NA,NA,left,2220.00000000093,true,NA,NA,NA,NA,NA
w5Q6SuOv,NA,NA,w5Q6SuOv,2020-0188,2021-11-01,22:51:37,00:35:20,NA,incomplete,false,true,NA,9,10,size,m_l_026.jpg,left,large,small,NA,NA,NA,left,1498,true,NA,NA,NA,NA,NA
w5Q6SuOv,NA,NA,w5Q6SuOv,2020-0188,2021-11-01,22:51:37,00:35:20,NA,incomplete,false,true,NA,9,11,size,m_s_009.jpg,right,large,small,NA,NA,NA,right,1131,true,NA,NA,NA,NA,NA
w5Q6SuOv,NA,NA,w5Q6SuOv,2020-0188,2021-11-01,22:51:37,00:35:20,NA,incomplete,false,true,NA,9,12,size,n_l_002.jpg,left,large,small,NA,NA,NA,left,1183.99999999907,true,NA,NA,NA,NA,NA
w5Q6SuOv,NA,NA,w5Q6SuOv,2020-0188,2021-11-01,22:51:37,00:35:20,NA,incomplete,false,true,NA,9,13,size,n_s_016.jpg,right,large,small,NA,NA,NA,right,1371.00000000093,true,NA,NA,NA,NA,NA
w5Q6SuOv,NA,NA,w5Q6SuOv,2020-0188,2021-11-01,22:51:37,00:35:20,NA,incomplete,false,true,NA,9,14,size,m_l_023.jpg,left,large,small,NA,NA,NA,right,2322,false,NA,NA,NA,NA,NA
w5Q6SuOv,NA,NA,w5Q6SuOv,2020-0188,2021-11-01,22:51:37,00:35:20,NA,incomplete,false,true,NA,9,15,origin,m_s_014.jpg,left,manmade,natural,NA,NA,NA,left,2489,true,NA,NA,NA,NA,NA
w5Q6SuOv,NA,NA,w5Q6SuOv,2020-0188,2021-11-01,22:51:37,00:35:20,NA,incomplete,false,true,NA,9,16,origin,n_l_006.jpg,right,manmade,natural,NA,NA,NA,right,893,true,NA,NA,NA,NA,NA
w5Q6SuOv,NA,NA,w5Q6SuOv,2020-0188,2021-11-01,22:51:37,00:35:20,NA,incomplete,false,true,NA,9,17,origin,m_s_006.jpg,right,natural,manmade,NA,NA,NA,right,2372,true,NA,NA,NA,NA,NA
w5Q6SuOv,NA,NA,w5Q6SuOv,2020-0188,2021-11-01,22:51:37,00:35:20,NA,incomplete,false,true,NA,9,18,origin,m_l_008.jpg,right,natural,manmade,NA,NA,NA,right,891.000000000931,true,NA,NA,NA,NA,NA
w5Q6SuOv,NA,NA,w5Q6SuOv,2020-0188,2021-11-01,22:51:37,00:35:20,NA,incomplete,false,true,NA,9,19,origin,n_s_025.jpg,left,natural,manmade,NA,NA,NA,left,1201,true,NA,NA,NA,NA,NA
w5Q6SuOv,NA,NA,w5Q6SuOv,2020-0188,2021-11-01,22:51:37,00:35:20,NA,incomplete,false,true,NA,9,20,abstractness,a_1_005.jpg,right,concrete,abstract,NA,NA,NA,right,1452,true,NA,NA,NA,NA,NA
w5Q6SuOv,NA,NA,w5Q6SuOv,2020-0188,2021-11-01,22:51:37,00:35:20,NA,incomplete,false,true,NA,9,21,abstractness,a_2_014.jpg,right,concrete,abstract,NA,NA,NA,right,1217,true,NA,NA,NA,NA,NA
w5Q6SuOv,NA,NA,w5Q6SuOv,2020-0188,2021-11-01,22:51:37,00:35:20,NA,incomplete,false,true,NA,9,22,abstractness,a_1_014.jpg,left,abstract,concrete,NA,NA,NA,left,2590,true,NA,NA,NA,NA,NA
w5Q6SuOv,NA,NA,w5Q6SuOv,2020-0188,2021-11-01,22:51:37,00:35:20,NA,incomplete,false,true,NA,9,23,abstractness,a_1_027.jpg,left,abstract,concrete,NA,NA,NA,left,1110.00000000093,true,NA,NA,NA,NA,NA
w5Q6SuOv,NA,NA,w5Q6SuOv,2020-0188,2021-11-01,22:51:37,00:35:20,NA,incomplete,false,true,NA,9,24,abstractness,c_1_014.jpg,right,abstract,concrete,NA,NA,NA,right,1589,true,NA,NA,NA,NA,NA
w5Q6SuOv,NA,NA,w5Q6SuOv,2020-0188,2021-11-01,22:51:37,00:35:20,NA,incomplete,false,true,NA,9,25,syllable,a_2_006.jpg,right,2 syllables,1 syllable,NA,NA,NA,left,2148,false,NA,NA,NA,NA,NA
w5Q6SuOv,NA,NA,w5Q6SuOv,2020-0188,2021-11-01,22:51:37,00:35:20,NA,incomplete,false,true,NA,9,26,syllable,c_2_002.jpg,right,1 syllable,2 syllables,NA,NA,NA,right,1339,true,NA,NA,NA,NA,NA
w5Q6SuOv,NA,NA,w5Q6SuOv,2020-0188,2021-11-01,22:51:37,00:35:20,NA,incomplete,false,true,NA,9,27,syllable,a_1_024.jpg,right,1 syllable,2 syllables,NA,NA,NA,left,1154,false,NA,NA,NA,NA,NA
w5Q6SuOv,NA,NA,w5Q6SuOv,2020-0188,2021-11-01,22:51:37,00:35:20,NA,incomplete,false,true,NA,9,28,syllable,a_2_011.jpg,right,1 syllable,2 syllables,NA,NA,NA,right,2410,true,NA,NA,NA,NA,NA
w5Q6SuOv,NA,NA,w5Q6SuOv,2020-0188,2021-11-01,22:51:37,00:35:20,NA,incomplete,false,true,NA,9,29,syllable,c_1_002.jpg,right,2 syllables,1 syllable,NA,NA,NA,right,1007,true,NA,NA,NA,NA,NA
w5Q6SuOv,NA,NA,w5Q6SuOv,2020-0188,2021-11-01,22:51:37,00:35:20,NA,incomplete,false,NA,true,9,0,NA,NA,left,NA,NA,c_1_014.jpg,a_1_024.jpg,between-small,NA,NaN,NA,left,5680.000000000931,1,1,1543
w5Q6SuOv,NA,NA,w5Q6SuOv,2020-0188,2021-11-01,22:51:37,00:35:20,NA,incomplete,false,NA,true,9,1,NA,NA,left,NA,NA,m_l_008.jpg,a_2_014.jpg,between-big,NA,NaN,NA,left,948,1,2,1377
w5Q6SuOv,NA,NA,w5Q6SuOv,2020-0188,2021-11-01,22:51:37,00:35:20,NA,incomplete,false,NA,true,9,2,NA,NA,left,NA,NA,n_l_002.jpg,m_s_014.jpg,between-small,NA,NaN,NA,left,1989,1,1,1073
w5Q6SuOv,NA,NA,w5Q6SuOv,2020-0188,2021-11-01,22:51:37,00:35:20,NA,incomplete,false,NA,true,9,3,NA,NA,left,NA,NA,a_2_014.jpg,c_1_014.jpg,within,NA,NaN,NA,left,1552,1,1,1196
