workerId,hitId,assignmentId,subject,studyid,exp_date,exp_start,exp_end,time_start,time_end,practice,encoding,memory,block,trial,event,stim,answer,label_left,label_right,left_image,right_image,condition,response,response_time,response_acc,order_response,order_response_time,order_acc,distance_response,distance_response_time
wraTLW7A,NA,NA,wraTLW7A,2020-0188,2021-09-28,13:05:44,21:02:14,NA,incomplete,true,true,NA,0,0,origin,m_s_014.jpg,right,natural,manmade,NA,NA,NA,left,1175.99999999907,false,NA,NA,NA,NA,NA
wraTLW7A,NA,NA,wraTLW7A,2020-0188,2021-09-28,13:05:44,21:02:14,NA,incomplete,true,true,NA,0,1,origin,m_s_003.jpg,left,manmade,natural,NA,NA,NA,left,2080,true,NA,NA,NA,NA,NA
wraTLW7A,NA,NA,wraTLW7A,2020-0188,2021-09-28,13:05:44,21:02:14,NA,incomplete,true,true,NA,0,2,origin,n_l_023.jpg,left,natural,manmade,NA,NA,NA,left,1760,true,NA,NA,NA,NA,NA
wraTLW7A,NA,NA,wraTLW7A,2020-0188,2021-09-28,13:05:44,21:02:14,NA,incomplete,true,true,NA,0,3,origin,m_l_001.jpg,right,natural,manmade,NA,NA,NA,right,1921,true,NA,NA,NA,NA,NA
wraTLW7A,NA,NA,wraTLW7A,2020-0188,2021-09-28,13:05:44,21:02:14,NA,incomplete,true,true,NA,0,4,origin,m_s_021.jpg,right,natural,manmade,NA,NA,NA,right,1305,true,NA,NA,NA,NA,NA
wraTLW7A,NA,NA,wraTLW7A,2020-0188,2021-09-28,13:05:44,21:02:14,NA,incomplete,true,true,NA,0,5,size,m_s_020.jpg,left,small,large,NA,NA,NA,left,1987,true,NA,NA,NA,NA,NA
wraTLW7A,NA,NA,wraTLW7A,2020-0188,2021-09-28,13:05:44,21:02:14,NA,incomplete,true,true,NA,0,6,size,m_l_027.jpg,right,small,large,NA,NA,NA,right,1165,true,NA,NA,NA,NA,NA
wraTLW7A,NA,NA,wraTLW7A,2020-0188,2021-09-28,13:05:44,21:02:14,NA,incomplete,true,true,NA,0,7,size,n_s_004.jpg,left,small,large,NA,NA,NA,left,946,true,NA,NA,NA,NA,NA
wraTLW7A,NA,NA,wraTLW7A,2020-0188,2021-09-28,13:05:44,21:02:14,NA,incomplete,true,true,NA,0,8,size,n_l_005.jpg,left,large,small,NA,NA,NA,left,1734.00000000093,true,NA,NA,NA,NA,NA
wraTLW7A,NA,NA,wraTLW7A,2020-0188,2021-09-28,13:05:44,21:02:14,NA,incomplete,true,true,NA,0,9,size,n_s_015.jpg,right,large,small,NA,NA,NA,right,1215,true,NA,NA,NA,NA,NA
wraTLW7A,NA,NA,wraTLW7A,2020-0188,2021-09-28,13:05:44,21:02:14,NA,incomplete,true,true,NA,0,10,syllable,c_2_011.jpg,right,2 syllables,1 syllable,NA,NA,NA,left,1635,false,NA,NA,NA,NA,NA
wraTLW7A,NA,NA,wraTLW7A,2020-0188,2021-09-28,13:05:44,21:02:14,NA,incomplete,true,true,NA,0,11,syllable,a_2_021.jpg,right,1 syllable,2 syllables,NA,NA,NA,right,1400,true,NA,NA,NA,NA,NA
wraTLW7A,NA,NA,wraTLW7A,2020-0188,2021-09-28,13:05:44,21:02:14,NA,incomplete,true,true,NA,0,12,syllable,c_2_021.jpg,right,2 syllables,1 syllable,NA,NA,NA,left,958,false,NA,NA,NA,NA,NA
wraTLW7A,NA,NA,wraTLW7A,2020-0188,2021-09-28,13:05:44,21:02:14,NA,incomplete,true,true,NA,0,13,syllable,a_2_009.jpg,right,2 syllables,1 syllable,NA,NA,NA,left,1756,false,NA,NA,NA,NA,NA
wraTLW7A,NA,NA,wraTLW7A,2020-0188,2021-09-28,13:05:44,21:02:14,NA,incomplete,true,true,NA,0,14,syllable,c_1_008.jpg,right,1 syllable,2 syllables,NA,NA,NA,left,938.999999999069,false,NA,NA,NA,NA,NA
wraTLW7A,NA,NA,wraTLW7A,2020-0188,2021-09-28,13:05:44,21:02:14,NA,incomplete,true,true,NA,0,15,abstractness,c_1_020.jpg,left,concrete,abstract,NA,NA,NA,left,2694.99999999907,true,NA,NA,NA,NA,NA
wraTLW7A,NA,NA,wraTLW7A,2020-0188,2021-09-28,13:05:44,21:02:14,NA,incomplete,true,true,NA,0,16,abstractness,c_1_007.jpg,left,concrete,abstract,NA,NA,NA,left,1091,true,NA,NA,NA,NA,NA
wraTLW7A,NA,NA,wraTLW7A,2020-0188,2021-09-28,13:05:44,21:02:14,NA,incomplete,true,true,NA,0,17,abstractness,a_2_019.jpg,left,abstract,concrete,NA,NA,NA,left,1423,true,NA,NA,NA,NA,NA
wraTLW7A,NA,NA,wraTLW7A,2020-0188,2021-09-28,13:05:44,21:02:14,NA,incomplete,true,true,NA,0,18,abstractness,a_1_026.jpg,left,abstract,concrete,NA,NA,NA,left,1431.99999999907,true,NA,NA,NA,NA,NA
wraTLW7A,NA,NA,wraTLW7A,2020-0188,2021-09-28,13:05:44,21:02:14,NA,incomplete,true,true,NA,0,19,abstractness,c_2_023.jpg,right,abstract,concrete,NA,NA,NA,right,1400,true,NA,NA,NA,NA,NA
wraTLW7A,NA,NA,wraTLW7A,2020-0188,2021-09-28,13:05:44,21:02:14,NA,incomplete,true,true,NA,0,20,building,i_s_010.jpg,left,skyscraper,cottage,NA,NA,NA,left,1971,true,NA,NA,NA,NA,NA
wraTLW7A,NA,NA,wraTLW7A,2020-0188,2021-09-28,13:05:44,21:02:14,NA,incomplete,true,true,NA,0,21,building,i_s_016.jpg,right,cottage,skyscraper,NA,NA,NA,right,1162.00000000093,true,NA,NA,NA,NA,NA
wraTLW7A,NA,NA,wraTLW7A,2020-0188,2021-09-28,13:05:44,21:02:14,NA,incomplete,true,true,NA,0,22,building,i_s_004.jpg,left,skyscraper,cottage,NA,NA,NA,left,1813,true,NA,NA,NA,NA,NA
wraTLW7A,NA,NA,wraTLW7A,2020-0188,2021-09-28,13:05:44,21:02:14,NA,incomplete,true,true,NA,0,23,building,o_s_013.jpg,left,skyscraper,cottage,NA,NA,NA,left,949.000000000931,true,NA,NA,NA,NA,NA
wraTLW7A,NA,NA,wraTLW7A,2020-0188,2021-09-28,13:05:44,21:02:14,NA,incomplete,true,true,NA,0,24,building,o_c_028.jpg,left,cottage,skyscraper,NA,NA,NA,left,948,true,NA,NA,NA,NA,NA
wraTLW7A,NA,NA,wraTLW7A,2020-0188,2021-09-28,13:05:44,21:02:14,NA,incomplete,true,true,NA,0,25,location,o_c_003.jpg,right,indoor,outdoor,NA,NA,NA,right,2116,true,NA,NA,NA,NA,NA
wraTLW7A,NA,NA,wraTLW7A,2020-0188,2021-09-28,13:05:44,21:02:14,NA,incomplete,true,true,NA,0,26,location,i_c_018.jpg,right,outdoor,indoor,NA,NA,NA,right,1266,true,NA,NA,NA,NA,NA
wraTLW7A,NA,NA,wraTLW7A,2020-0188,2021-09-28,13:05:44,21:02:14,NA,incomplete,true,true,NA,0,27,location,i_s_014.jpg,right,outdoor,indoor,NA,NA,NA,right,1916,true,NA,NA,NA,NA,NA
wraTLW7A,NA,NA,wraTLW7A,2020-0188,2021-09-28,13:05:44,21:02:14,NA,incomplete,true,true,NA,0,28,location,o_s_006.jpg,right,indoor,outdoor,NA,NA,NA,right,1255,true,NA,NA,NA,NA,NA
wraTLW7A,NA,NA,wraTLW7A,2020-0188,2021-09-28,13:05:44,21:02:14,NA,incomplete,true,true,NA,0,29,location,o_s_007.jpg,left,outdoor,indoor,NA,NA,NA,left,1119,true,NA,NA,NA,NA,NA
wraTLW7A,NA,NA,wraTLW7A,2020-0188,2021-09-28,13:05:44,21:02:14,NA,incomplete,true,NA,true,0,0,NA,NA,right,NA,NA,a_2_021.jpg,n_l_005.jpg,between-big,NA,NaN,NA,right,20454,1,1,4694
wraTLW7A,NA,NA,wraTLW7A,2020-0188,2021-09-28,13:05:44,21:02:14,NA,incomplete,true,NA,true,0,1,NA,NA,right,NA,NA,c_2_023.jpg,c_1_007.jpg,within,NA,NaN,NA,right,3279.0000000009313,1,0,1659
wraTLW7A,NA,NA,wraTLW7A,2020-0188,2021-09-28,13:05:44,21:02:14,NA,incomplete,true,NA,true,0,2,NA,NA,right,NA,NA,m_l_001.jpg,m_s_014.jpg,within,NA,NaN,NA,right,2180,1,0,4429
wraTLW7A,NA,NA,wraTLW7A,2020-0188,2021-09-28,13:05:44,21:02:14,NA,incomplete,true,NA,true,0,3,NA,NA,right,NA,NA,o_s_007.jpg,i_c_018.jpg,within,NA,NaN,NA,right,5838,1,0,3297
wraTLW7A,NA,NA,wraTLW7A,2020-0188,2021-09-28,13:05:44,21:02:14,NA,incomplete,true,NA,true,0,4,NA,NA,right,NA,NA,c_2_011.jpg,n_s_004.jpg,between-big,NA,NaN,NA,right,1879,1,2,1123.0000000009313
wraTLW7A,NA,NA,wraTLW7A,2020-0188,2021-09-28,13:05:44,21:02:14,NA,incomplete,true,NA,true,0,5,NA,NA,left,NA,NA,n_s_015.jpg,c_2_021.jpg,between-big,NA,NaN,NA,left,2269.9999999990687,1,2,1512
wraTLW7A,NA,NA,wraTLW7A,2020-0188,2021-09-28,13:05:44,21:02:14,NA,incomplete,true,NA,true,0,6,NA,NA,left,NA,NA,c_2_023.jpg,i_s_004.jpg,between-big,NA,NaN,NA,left,2124,1,2,1561
wraTLW7A,NA,NA,wraTLW7A,2020-0188,2021-09-28,13:05:44,21:02:14,NA,incomplete,true,NA,true,0,7,NA,NA,left,NA,NA,n_l_023.jpg,m_s_020.jpg,between-small,NA,NaN,NA,left,5708.000000000931,1,0,2321
wraTLW7A,NA,NA,wraTLW7A,2020-0188,2021-09-28,13:05:44,21:02:14,NA,incomplete,true,NA,true,0,8,NA,NA,left,NA,NA,m_s_020.jpg,n_l_005.jpg,within,NA,NaN,NA,left,2320,1,1,3011
wraTLW7A,NA,NA,wraTLW7A,2020-0188,2021-09-28,13:05:44,21:02:14,NA,incomplete,true,NA,true,0,9,NA,NA,right,NA,NA,i_c_018.jpg,o_s_013.jpg,between-small,NA,NaN,NA,left,3516,0,1,2189
wraTLW7A,NA,NA,wraTLW7A,2020-0188,2021-09-28,13:05:44,21:02:14,NA,incomplete,true,NA,true,0,10,NA,NA,right,NA,NA,m_s_021.jpg,m_s_003.jpg,within,NA,NaN,NA,right,3868,1,0,1073.9999999990687
wraTLW7A,NA,NA,wraTLW7A,2020-0188,2021-09-28,13:05:44,21:02:14,NA,incomplete,true,NA,true,0,11,NA,NA,left,NA,NA,a_1_026.jpg,i_s_016.jpg,between-big,NA,NaN,NA,left,2384,1,3,1131
wraTLW7A,NA,NA,wraTLW7A,2020-0188,2021-09-28,13:05:44,21:02:14,NA,incomplete,true,NA,true,0,12,NA,NA,left,NA,NA,a_2_009.jpg,c_1_007.jpg,between-small,NA,NaN,NA,left,9301,1,0,1851.9999999990687
wraTLW7A,NA,NA,wraTLW7A,2020-0188,2021-09-28,13:05:44,21:02:14,NA,incomplete,true,NA,true,0,13,NA,NA,right,NA,NA,o_c_003.jpg,i_s_004.jpg,between-small,NA,NaN,NA,right,9438,1,0,1562
wraTLW7A,NA,NA,wraTLW7A,2020-0188,2021-09-28,13:05:44,21:02:14,NA,incomplete,true,NA,true,0,14,NA,NA,right,NA,NA,i_s_014.jpg,o_c_028.jpg,between-small,NA,NaN,NA,right,2172.0000000009313,1,1,1098
wraTLW7A,NA,NA,wraTLW7A,2020-0188,2021-09-28,13:05:44,21:02:14,NA,incomplete,true,NA,true,0,15,NA,NA,left,NA,NA,c_2_011.jpg,a_2_009.jpg,within,NA,NaN,NA,right,2376,0,0,1040
wraTLW7A,NA,NA,wraTLW7A,2020-0188,2021-09-28,13:05:44,21:02:14,NA,incomplete,true,NA,true,0,16,NA,NA,left,NA,NA,o_c_003.jpg,o_s_006.jpg,within,NA,NaN,NA,left,2115,1,0,1234.0000000009313
wraTLW7A,NA,NA,wraTLW7A,2020-0188,2021-09-28,13:05:44,21:02:14,NA,incomplete,true,NA,true,0,17,NA,NA,right,NA,NA,c_1_008.jpg,a_2_021.jpg,within,NA,NaN,NA,right,2800,1,0,1260.0000000009313
wraTLW7A,NA,NA,wraTLW7A,2020-0188,2021-09-28,13:05:44,21:02:14,NA,incomplete,true,NA,true,0,18,NA,NA,right,NA,NA,c_1_020.jpg,c_2_021.jpg,between-small,NA,NaN,NA,right,2759,1,0,1765
wraTLW7A,NA,NA,wraTLW7A,2020-0188,2021-09-28,13:05:44,21:02:14,NA,incomplete,true,NA,true,0,19,NA,NA,left,NA,NA,m_l_027.jpg,n_s_015.jpg,within,NA,NaN,NA,left,3688,1,0,1122
wraTLW7A,NA,NA,wraTLW7A,2020-0188,2021-09-28,13:05:44,21:02:14,NA,incomplete,true,NA,true,0,20,NA,NA,left,NA,NA,c_1_008.jpg,a_2_019.jpg,between-small,NA,NaN,NA,right,3820,0,0,1180
wraTLW7A,NA,NA,wraTLW7A,2020-0188,2021-09-28,13:05:44,21:02:14,NA,incomplete,true,NA,true,0,21,NA,NA,left,NA,NA,a_2_019.jpg,i_s_010.jpg,between-big,NA,NaN,NA,left,2304,1,3,2184
wraTLW7A,NA,NA,wraTLW7A,2020-0188,2021-09-28,13:05:44,21:02:14,NA,incomplete,true,NA,true,0,22,NA,NA,left,NA,NA,m_l_001.jpg,m_l_027.jpg,between-small,NA,NaN,NA,left,3411,1,2,1024
wraTLW7A,NA,NA,wraTLW7A,2020-0188,2021-09-28,13:05:44,21:02:14,NA,incomplete,true,NA,true,0,23,NA,NA,right,NA,NA,n_s_004.jpg,m_s_021.jpg,between-small,NA,NaN,NA,right,2670,1,2,959
wraTLW7A,NA,NA,wraTLW7A,2020-0188,2021-09-28,13:05:44,21:02:14,NA,incomplete,true,NA,true,0,24,NA,NA,left,NA,NA,i_s_010.jpg,o_s_013.jpg,within,NA,NaN,NA,right,4961,0,1,909.9999999990687
wraTLW7A,NA,NA,wraTLW7A,2020-0188,2021-09-28,13:05:44,21:02:14,NA,incomplete,true,NA,true,0,25,NA,NA,right,NA,NA,a_1_026.jpg,c_1_020.jpg,within,NA,NaN,NA,right,3035,1,2,2335
wraTLW7A,NA,NA,wraTLW7A,2020-0188,2021-09-28,13:05:44,21:02:14,NA,incomplete,true,NA,true,0,26,NA,NA,left,NA,NA,i_s_016.jpg,o_c_028.jpg,within,NA,NaN,NA,left,4874,1,1,1064.9999999990687
wraTLW7A,NA,NA,wraTLW7A,2020-0188,2021-09-28,13:05:44,21:02:14,NA,incomplete,false,true,NA,1,0,location,o_c_016.jpg,right,indoor,outdoor,NA,NA,NA,right,2213.99999999907,true,NA,NA,NA,NA,NA
wraTLW7A,NA,NA,wraTLW7A,2020-0188,2021-09-28,13:05:44,21:02:14,NA,incomplete,false,true,NA,1,1,location,o_c_013.jpg,left,outdoor,indoor,NA,NA,NA,left,1774,true,NA,NA,NA,NA,NA
wraTLW7A,NA,NA,wraTLW7A,2020-0188,2021-09-28,13:05:44,21:02:14,NA,incomplete,false,true,NA,1,2,location,i_c_002.jpg,right,outdoor,indoor,NA,NA,NA,right,1368,true,NA,NA,NA,NA,NA
wraTLW7A,NA,NA,wraTLW7A,2020-0188,2021-09-28,13:05:44,21:02:14,NA,incomplete,false,true,NA,1,3,location,i_c_020.jpg,right,outdoor,indoor,NA,NA,NA,right,1436,true,NA,NA,NA,NA,NA
wraTLW7A,NA,NA,wraTLW7A,2020-0188,2021-09-28,13:05:44,21:02:14,NA,incomplete,false,true,NA,1,4,location,i_s_012.jpg,left,indoor,outdoor,NA,NA,NA,left,1494.00000000093,true,NA,NA,NA,NA,NA
wraTLW7A,NA,NA,wraTLW7A,2020-0188,2021-09-28,13:05:44,21:02:14,NA,incomplete,false,true,NA,1,5,building,i_c_022.jpg,right,skyscraper,cottage,NA,NA,NA,right,2304,true,NA,NA,NA,NA,NA
wraTLW7A,NA,NA,wraTLW7A,2020-0188,2021-09-28,13:05:44,21:02:14,NA,incomplete,false,true,NA,1,6,building,i_c_005.jpg,right,skyscraper,cottage,NA,NA,NA,right,1316,true,NA,NA,NA,NA,NA
wraTLW7A,NA,NA,wraTLW7A,2020-0188,2021-09-28,13:05:44,21:02:14,NA,incomplete,false,true,NA,1,7,building,i_c_014.jpg,left,cottage,skyscraper,NA,NA,NA,left,1351,true,NA,NA,NA,NA,NA
wraTLW7A,NA,NA,wraTLW7A,2020-0188,2021-09-28,13:05:44,21:02:14,NA,incomplete,false,true,NA,1,8,building,o_c_005.jpg,left,cottage,skyscraper,NA,NA,NA,left,1881,true,NA,NA,NA,NA,NA
wraTLW7A,NA,NA,wraTLW7A,2020-0188,2021-09-28,13:05:44,21:02:14,NA,incomplete,false,true,NA,1,9,building,i_s_007.jpg,right,cottage,skyscraper,NA,NA,NA,right,1298,true,NA,NA,NA,NA,NA
wraTLW7A,NA,NA,wraTLW7A,2020-0188,2021-09-28,13:05:44,21:02:14,NA,incomplete,false,true,NA,1,10,origin,m_s_023.jpg,left,manmade,natural,NA,NA,NA,left,1473,true,NA,NA,NA,NA,NA
wraTLW7A,NA,NA,wraTLW7A,2020-0188,2021-09-28,13:05:44,21:02:14,NA,incomplete,false,true,NA,1,11,origin,m_s_004.jpg,right,natural,manmade,NA,NA,NA,right,1068,true,NA,NA,NA,NA,NA
wraTLW7A,NA,NA,wraTLW7A,2020-0188,2021-09-28,13:05:44,21:02:14,NA,incomplete,false,true,NA,1,12,origin,n_l_017.jpg,left,natural,manmade,NA,NA,NA,left,1688.99999999907,true,NA,NA,NA,NA,NA
wraTLW7A,NA,NA,wraTLW7A,2020-0188,2021-09-28,13:05:44,21:02:14,NA,incomplete,false,true,NA,1,13,origin,m_l_026.jpg,left,manmade,natural,NA,NA,NA,left,1398.00000000093,true,NA,NA,NA,NA,NA
wraTLW7A,NA,NA,wraTLW7A,2020-0188,2021-09-28,13:05:44,21:02:14,NA,incomplete,false,true,NA,1,14,origin,m_l_007.jpg,right,natural,manmade,NA,NA,NA,right,1361,true,NA,NA,NA,NA,NA
wraTLW7A,NA,NA,wraTLW7A,2020-0188,2021-09-28,13:05:44,21:02:14,NA,incomplete,false,true,NA,1,15,size,n_l_014.jpg,left,large,small,NA,NA,NA,left,1640,true,NA,NA,NA,NA,NA
wraTLW7A,NA,NA,wraTLW7A,2020-0188,2021-09-28,13:05:44,21:02:14,NA,incomplete,false,true,NA,1,16,size,m_l_010.jpg,right,small,large,NA,NA,NA,left,1244,false,NA,NA,NA,NA,NA
wraTLW7A,NA,NA,wraTLW7A,2020-0188,2021-09-28,13:05:44,21:02:14,NA,incomplete,false,true,NA,1,17,size,m_l_003.jpg,right,small,large,NA,NA,NA,right,1758,true,NA,NA,NA,NA,NA
wraTLW7A,NA,NA,wraTLW7A,2020-0188,2021-09-28,13:05:44,21:02:14,NA,incomplete,false,true,NA,1,18,size,m_l_019.jpg,left,large,small,NA,NA,NA,left,1093.99999999907,true,NA,NA,NA,NA,NA
wraTLW7A,NA,NA,wraTLW7A,2020-0188,2021-09-28,13:05:44,21:02:14,NA,incomplete,false,true,NA,1,19,size,n_s_014.jpg,left,small,large,NA,NA,NA,left,1206.00000000093,true,NA,NA,NA,NA,NA
wraTLW7A,NA,NA,wraTLW7A,2020-0188,2021-09-28,13:05:44,21:02:14,NA,incomplete,false,true,NA,1,20,abstractness,c_2_010.jpg,right,abstract,concrete,NA,NA,NA,right,1960,true,NA,NA,NA,NA,NA
wraTLW7A,NA,NA,wraTLW7A,2020-0188,2021-09-28,13:05:44,21:02:14,NA,incomplete,false,true,NA,1,21,abstractness,a_2_025.jpg,right,concrete,abstract,NA,NA,NA,right,1859,true,NA,NA,NA,NA,NA
wraTLW7A,NA,NA,wraTLW7A,2020-0188,2021-09-28,13:05:44,21:02:14,NA,incomplete,false,true,NA,1,22,abstractness,a_1_005.jpg,left,abstract,concrete,NA,NA,NA,left,2910,true,NA,NA,NA,NA,NA
wraTLW7A,NA,NA,wraTLW7A,2020-0188,2021-09-28,13:05:44,21:02:14,NA,incomplete,false,true,NA,1,23,abstractness,a_1_021.jpg,left,abstract,concrete,NA,NA,NA,left,1287,true,NA,NA,NA,NA,NA
wraTLW7A,NA,NA,wraTLW7A,2020-0188,2021-09-28,13:05:44,21:02:14,NA,incomplete,false,true,NA,1,24,abstractness,a_1_013.jpg,left,abstract,concrete,NA,NA,NA,left,1557,true,NA,NA,NA,NA,NA
wraTLW7A,NA,NA,wraTLW7A,2020-0188,2021-09-28,13:05:44,21:02:14,NA,incomplete,false,true,NA,1,25,syllable,a_2_027.jpg,right,1 syllable,2 syllables,NA,NA,NA,right,2237.99999999907,true,NA,NA,NA,NA,NA
wraTLW7A,NA,NA,wraTLW7A,2020-0188,2021-09-28,13:05:44,21:02:14,NA,incomplete,false,true,NA,1,26,syllable,a_2_011.jpg,right,1 syllable,2 syllables,NA,NA,NA,right,1507,true,NA,NA,NA,NA,NA
wraTLW7A,NA,NA,wraTLW7A,2020-0188,2021-09-28,13:05:44,21:02:14,NA,incomplete,false,true,NA,1,27,syllable,c_1_015.jpg,right,1 syllable,2 syllables,NA,NA,NA,left,1198,false,NA,NA,NA,NA,NA
wraTLW7A,NA,NA,wraTLW7A,2020-0188,2021-09-28,13:05:44,21:02:14,NA,incomplete,false,true,NA,1,28,syllable,c_2_009.jpg,right,2 syllables,1 syllable,NA,NA,NA,left,1615,false,NA,NA,NA,NA,NA
wraTLW7A,NA,NA,wraTLW7A,2020-0188,2021-09-28,13:05:44,21:02:14,NA,incomplete,false,true,NA,1,29,syllable,c_2_014.jpg,right,2 syllables,1 syllable,NA,NA,NA,left,1339,false,NA,NA,NA,NA,NA
wraTLW7A,NA,NA,wraTLW7A,2020-0188,2021-09-28,13:05:44,21:02:14,NA,incomplete,false,NA,true,1,0,NA,NA,right,NA,NA,n_l_017.jpg,i_s_007.jpg,between-big,NA,NaN,NA,right,2304,1,2,3194
wraTLW7A,NA,NA,wraTLW7A,2020-0188,2021-09-28,13:05:44,21:02:14,NA,incomplete,false,NA,true,1,1,NA,NA,right,NA,NA,i_c_014.jpg,i_s_012.jpg,between-small,NA,NaN,NA,left,3767,0,0,1652
wraTLW7A,NA,NA,wraTLW7A,2020-0188,2021-09-28,13:05:44,21:02:14,NA,incomplete,false,NA,true,1,2,NA,NA,left,NA,NA,i_c_022.jpg,o_c_005.jpg,within,NA,NaN,NA,left,3680,1,1,1839
wraTLW7A,NA,NA,wraTLW7A,2020-0188,2021-09-28,13:05:44,21:02:14,NA,incomplete,false,NA,true,1,3,NA,NA,left,NA,NA,o_c_005.jpg,m_s_004.jpg,between-big,NA,NaN,NA,left,1724,1,1,2189
wraTLW7A,NA,NA,wraTLW7A,2020-0188,2021-09-28,13:05:44,21:02:14,NA,incomplete,false,NA,true,1,4,NA,NA,right,NA,NA,m_s_023.jpg,i_c_014.jpg,between-big,NA,NaN,NA,right,1595.0000000009313,1,2,1727.0000000009313
wraTLW7A,NA,NA,wraTLW7A,2020-0188,2021-09-28,13:05:44,21:02:14,NA,incomplete,false,NA,true,1,5,NA,NA,right,NA,NA,c_2_014.jpg,a_2_011.jpg,within,NA,NaN,NA,right,3753.0000000009313,1,1,2531
wraTLW7A,NA,NA,wraTLW7A,2020-0188,2021-09-28,13:05:44,21:02:14,NA,incomplete,false,NA,true,1,6,NA,NA,left,NA,NA,i_c_005.jpg,i_s_007.jpg,within,NA,NaN,NA,left,3019,1,1,919
wraTLW7A,NA,NA,wraTLW7A,2020-0188,2021-09-28,13:05:44,21:02:14,NA,incomplete,false,NA,true,1,7,NA,NA,right,NA,NA,c_2_010.jpg,m_l_003.jpg,between-big,NA,NaN,NA,right,4064.9999999990687,1,2,3931
wraTLW7A,NA,NA,wraTLW7A,2020-0188,2021-09-28,13:05:44,21:02:14,NA,incomplete,false,NA,true,1,8,NA,NA,left,NA,NA,i_c_020.jpg,i_c_005.jpg,between-small,NA,NaN,NA,left,5414,1,0,3452.0000000009313
wraTLW7A,NA,NA,wraTLW7A,2020-0188,2021-09-28,13:05:44,21:02:14,NA,incomplete,false,NA,true,1,9,NA,NA,right,NA,NA,i_s_012.jpg,o_c_013.jpg,within,NA,NaN,NA,right,4804.000000000931,1,1,2433
wraTLW7A,NA,NA,wraTLW7A,2020-0188,2021-09-28,13:05:44,21:02:14,NA,incomplete,false,NA,true,1,10,NA,NA,right,NA,NA,m_l_026.jpg,m_s_023.jpg,within,NA,NaN,NA,right,1978,1,0,1782
wraTLW7A,NA,NA,wraTLW7A,2020-0188,2021-09-28,13:05:44,21:02:14,NA,incomplete,false,NA,true,1,11,NA,NA,right,NA,NA,a_2_011.jpg,a_1_021.jpg,between-small,NA,NaN,NA,left,2164,0,1,1618
wraTLW7A,NA,NA,wraTLW7A,2020-0188,2021-09-28,13:05:44,21:02:14,NA,incomplete,false,NA,true,1,12,NA,NA,right,NA,NA,a_2_025.jpg,m_l_019.jpg,between-big,NA,NaN,NA,right,1350.0000000009313,1,2,2320
wraTLW7A,NA,NA,wraTLW7A,2020-0188,2021-09-28,13:05:44,21:02:14,NA,incomplete,false,NA,true,1,13,NA,NA,left,NA,NA,o_c_016.jpg,i_c_020.jpg,within,NA,NaN,NA,left,2188.0000000009313,1,1,1692
wraTLW7A,NA,NA,wraTLW7A,2020-0188,2021-09-28,13:05:44,21:02:14,NA,incomplete,false,NA,true,1,14,NA,NA,left,NA,NA,a_2_025.jpg,a_1_013.jpg,within,NA,NaN,NA,right,2198,0,1,1660
wraTLW7A,NA,NA,wraTLW7A,2020-0188,2021-09-28,13:05:44,21:02:14,NA,incomplete,false,NA,true,1,15,NA,NA,left,NA,NA,m_l_026.jpg,m_l_010.jpg,between-small,NA,NaN,NA,left,3582,1,1,945
wraTLW7A,NA,NA,wraTLW7A,2020-0188,2021-09-28,13:05:44,21:02:14,NA,incomplete,false,NA,true,1,16,NA,NA,left,NA,NA,m_l_007.jpg,m_l_003.jpg,between-small,NA,NaN,NA,left,1823,1,1,951
wraTLW7A,NA,NA,wraTLW7A,2020-0188,2021-09-28,13:05:44,21:02:14,NA,incomplete,false,NA,true,1,17,NA,NA,left,NA,NA,n_l_014.jpg,m_l_019.jpg,within,NA,NaN,NA,left,2140.9999999990687,1,0,1156
wraTLW7A,NA,NA,wraTLW7A,2020-0188,2021-09-28,13:05:44,21:02:14,NA,incomplete,false,NA,true,1,18,NA,NA,right,NA,NA,a_1_021.jpg,c_2_010.jpg,within,NA,NaN,NA,right,2393,1,0,2139.9999999990687
wraTLW7A,NA,NA,wraTLW7A,2020-0188,2021-09-28,13:05:44,21:02:14,NA,incomplete,false,NA,true,1,19,NA,NA,left,NA,NA,n_s_014.jpg,a_1_005.jpg,between-big,NA,NaN,NA,left,1431,1,2,1375
wraTLW7A,NA,NA,wraTLW7A,2020-0188,2021-09-28,13:05:44,21:02:14,NA,incomplete,false,NA,true,1,20,NA,NA,right,NA,NA,n_l_014.jpg,n_l_017.jpg,between-small,NA,NaN,NA,right,2670.0000000009313,1,1,2061
wraTLW7A,NA,NA,wraTLW7A,2020-0188,2021-09-28,13:05:44,21:02:14,NA,incomplete,false,NA,true,1,21,NA,NA,left,NA,NA,a_2_027.jpg,c_2_009.jpg,within,NA,NaN,NA,left,6002,1,0,2744.0000000009313
wraTLW7A,NA,NA,wraTLW7A,2020-0188,2021-09-28,13:05:44,21:02:14,NA,incomplete,false,NA,true,1,22,NA,NA,left,NA,NA,a_1_005.jpg,a_2_027.jpg,between-small,NA,NaN,NA,left,1448.0000000009313,1,1,1464
wraTLW7A,NA,NA,wraTLW7A,2020-0188,2021-09-28,13:05:44,21:02:14,NA,incomplete,false,NA,true,1,23,NA,NA,right,NA,NA,n_s_014.jpg,m_l_010.jpg,within,NA,NaN,NA,right,3411,1,0,1060.0000000009313
wraTLW7A,NA,NA,wraTLW7A,2020-0188,2021-09-28,13:05:44,21:02:14,NA,incomplete,false,NA,true,1,24,NA,NA,left,NA,NA,i_c_002.jpg,i_c_022.jpg,between-small,NA,NaN,NA,left,1840,1,0,1130.0000000009313
wraTLW7A,NA,NA,wraTLW7A,2020-0188,2021-09-28,13:05:44,21:02:14,NA,incomplete,false,NA,true,1,25,NA,NA,left,NA,NA,m_s_004.jpg,m_l_007.jpg,within,NA,NaN,NA,left,1807,1,0,1929.0000000009313
wraTLW7A,NA,NA,wraTLW7A,2020-0188,2021-09-28,13:05:44,21:02:14,NA,incomplete,false,NA,true,1,26,NA,NA,right,NA,NA,c_1_015.jpg,a_1_013.jpg,between-small,NA,NaN,NA,right,2092.0000000009313,1,1,1645
wraTLW7A,NA,NA,wraTLW7A,2020-0188,2021-09-28,13:05:44,21:02:14,NA,incomplete,false,true,NA,2,0,origin,n_s_005.jpg,right,manmade,natural,NA,NA,NA,right,1694,true,NA,NA,NA,NA,NA
wraTLW7A,NA,NA,wraTLW7A,2020-0188,2021-09-28,13:05:44,21:02:14,NA,incomplete,false,true,NA,2,1,origin,m_l_004.jpg,left,manmade,natural,NA,NA,NA,left,1227,true,NA,NA,NA,NA,NA
wraTLW7A,NA,NA,wraTLW7A,2020-0188,2021-09-28,13:05:44,21:02:14,NA,incomplete,false,true,NA,2,2,origin,n_s_008.jpg,left,natural,manmade,NA,NA,NA,left,1597,true,NA,NA,NA,NA,NA
wraTLW7A,NA,NA,wraTLW7A,2020-0188,2021-09-28,13:05:44,21:02:14,NA,incomplete,false,true,NA,2,3,origin,m_l_020.jpg,right,natural,manmade,NA,NA,NA,right,1598.99999999907,true,NA,NA,NA,NA,NA
wraTLW7A,NA,NA,wraTLW7A,2020-0188,2021-09-28,13:05:44,21:02:14,NA,incomplete,false,true,NA,2,4,origin,n_l_001.jpg,left,natural,manmade,NA,NA,NA,left,1507,true,NA,NA,NA,NA,NA
wraTLW7A,NA,NA,wraTLW7A,2020-0188,2021-09-28,13:05:44,21:02:14,NA,incomplete,false,true,NA,2,5,size,m_s_022.jpg,left,small,large,NA,NA,NA,left,2141.00000000093,true,NA,NA,NA,NA,NA
wraTLW7A,NA,NA,wraTLW7A,2020-0188,2021-09-28,13:05:44,21:02:14,NA,incomplete,false,true,NA,2,6,size,m_s_005.jpg,right,large,small,NA,NA,NA,right,2375,true,NA,NA,NA,NA,NA
wraTLW7A,NA,NA,wraTLW7A,2020-0188,2021-09-28,13:05:44,21:02:14,NA,incomplete,false,true,NA,2,7,size,n_l_003.jpg,right,small,large,NA,NA,NA,right,1546.99999999907,true,NA,NA,NA,NA,NA
wraTLW7A,NA,NA,wraTLW7A,2020-0188,2021-09-28,13:05:44,21:02:14,NA,incomplete,false,true,NA,2,8,size,n_l_028.jpg,left,large,small,NA,NA,NA,left,1798,true,NA,NA,NA,NA,NA
wraTLW7A,NA,NA,wraTLW7A,2020-0188,2021-09-28,13:05:44,21:02:14,NA,incomplete,false,true,NA,2,9,size,n_s_013.jpg,right,large,small,NA,NA,NA,right,1341,true,NA,NA,NA,NA,NA
wraTLW7A,NA,NA,wraTLW7A,2020-0188,2021-09-28,13:05:44,21:02:14,NA,incomplete,false,true,NA,2,10,syllable,a_1_008.jpg,right,2 syllables,1 syllable,NA,NA,NA,right,1911,true,NA,NA,NA,NA,NA
wraTLW7A,NA,NA,wraTLW7A,2020-0188,2021-09-28,13:05:44,21:02:14,NA,incomplete,false,true,NA,2,11,syllable,a_2_002.jpg,right,2 syllables,1 syllable,NA,NA,NA,left,1476,false,NA,NA,NA,NA,NA
wraTLW7A,NA,NA,wraTLW7A,2020-0188,2021-09-28,13:05:44,21:02:14,NA,incomplete,false,true,NA,2,12,syllable,a_1_022.jpg,right,2 syllables,1 syllable,NA,NA,NA,right,1382,true,NA,NA,NA,NA,NA
wraTLW7A,NA,NA,wraTLW7A,2020-0188,2021-09-28,13:05:44,21:02:14,NA,incomplete,false,true,NA,2,13,syllable,a_2_006.jpg,right,1 syllable,2 syllables,NA,NA,NA,right,1648.00000000093,true,NA,NA,NA,NA,NA
wraTLW7A,NA,NA,wraTLW7A,2020-0188,2021-09-28,13:05:44,21:02:14,NA,incomplete,false,true,NA,2,14,syllable,a_2_010.jpg,right,1 syllable,2 syllables,NA,NA,NA,right,1860,true,NA,NA,NA,NA,NA
wraTLW7A,NA,NA,wraTLW7A,2020-0188,2021-09-28,13:05:44,21:02:14,NA,incomplete,false,true,NA,2,15,abstractness,a_1_018.jpg,left,abstract,concrete,NA,NA,NA,left,1799,true,NA,NA,NA,NA,NA
wraTLW7A,NA,NA,wraTLW7A,2020-0188,2021-09-28,13:05:44,21:02:14,NA,incomplete,false,true,NA,2,16,abstractness,c_1_019.jpg,right,abstract,concrete,NA,NA,NA,right,1525,true,NA,NA,NA,NA,NA
wraTLW7A,NA,NA,wraTLW7A,2020-0188,2021-09-28,13:05:44,21:02:14,NA,incomplete,false,true,NA,2,17,abstractness,a_1_007.jpg,left,abstract,concrete,NA,NA,NA,left,2043,true,NA,NA,NA,NA,NA
wraTLW7A,NA,NA,wraTLW7A,2020-0188,2021-09-28,13:05:44,21:02:14,NA,incomplete,false,true,NA,2,18,abstractness,a_2_007.jpg,right,concrete,abstract,NA,NA,NA,right,1770,true,NA,NA,NA,NA,NA
wraTLW7A,NA,NA,wraTLW7A,2020-0188,2021-09-28,13:05:44,21:02:14,NA,incomplete,false,true,NA,2,19,abstractness,a_2_015.jpg,right,concrete,abstract,NA,NA,NA,right,1968,true,NA,NA,NA,NA,NA
wraTLW7A,NA,NA,wraTLW7A,2020-0188,2021-09-28,13:05:44,21:02:14,NA,incomplete,false,true,NA,2,20,building,i_s_022.jpg,right,cottage,skyscraper,NA,NA,NA,right,2061,true,NA,NA,NA,NA,NA
wraTLW7A,NA,NA,wraTLW7A,2020-0188,2021-09-28,13:05:44,21:02:14,NA,incomplete,false,true,NA,2,21,building,o_c_017.jpg,left,cottage,skyscraper,NA,NA,NA,left,1187,true,NA,NA,NA,NA,NA
wraTLW7A,NA,NA,wraTLW7A,2020-0188,2021-09-28,13:05:44,21:02:14,NA,incomplete,false,true,NA,2,22,building,o_s_003.jpg,left,skyscraper,cottage,NA,NA,NA,left,1107,true,NA,NA,NA,NA,NA
wraTLW7A,NA,NA,wraTLW7A,2020-0188,2021-09-28,13:05:44,21:02:14,NA,incomplete,false,true,NA,2,23,building,o_c_012.jpg,right,skyscraper,cottage,NA,NA,NA,right,1216.99999999907,true,NA,NA,NA,NA,NA
wraTLW7A,NA,NA,wraTLW7A,2020-0188,2021-09-28,13:05:44,21:02:14,NA,incomplete,false,true,NA,2,24,building,o_s_012.jpg,right,cottage,skyscraper,NA,NA,NA,right,1389.00000000093,true,NA,NA,NA,NA,NA
wraTLW7A,NA,NA,wraTLW7A,2020-0188,2021-09-28,13:05:44,21:02:14,NA,incomplete,false,true,NA,2,25,location,i_s_013.jpg,right,outdoor,indoor,NA,NA,NA,right,2128.00000000093,true,NA,NA,NA,NA,NA
wraTLW7A,NA,NA,wraTLW7A,2020-0188,2021-09-28,13:05:44,21:02:14,NA,incomplete,false,true,NA,2,26,location,o_s_011.jpg,left,outdoor,indoor,NA,NA,NA,left,2183,true,NA,NA,NA,NA,NA
wraTLW7A,NA,NA,wraTLW7A,2020-0188,2021-09-28,13:05:44,21:02:14,NA,incomplete,false,true,NA,2,27,location,o_s_023.jpg,left,outdoor,indoor,NA,NA,NA,left,1610,true,NA,NA,NA,NA,NA
wraTLW7A,NA,NA,wraTLW7A,2020-0188,2021-09-28,13:05:44,21:02:14,NA,incomplete,false,true,NA,2,28,location,o_c_010.jpg,left,outdoor,indoor,NA,NA,NA,left,1355,true,NA,NA,NA,NA,NA
wraTLW7A,NA,NA,wraTLW7A,2020-0188,2021-09-28,13:05:44,21:02:14,NA,incomplete,false,true,NA,2,29,location,o_c_002.jpg,right,indoor,outdoor,NA,NA,NA,left,1193,false,NA,NA,NA,NA,NA
wraTLW7A,NA,NA,wraTLW7A,2020-0188,2021-09-28,13:05:44,21:02:14,NA,incomplete,false,NA,true,2,0,NA,NA,right,NA,NA,o_s_012.jpg,o_c_017.jpg,within,NA,NaN,NA,right,1715,1,0,3573
wraTLW7A,NA,NA,wraTLW7A,2020-0188,2021-09-28,13:05:44,21:02:14,NA,incomplete,false,NA,true,2,1,NA,NA,right,NA,NA,a_2_007.jpg,a_1_018.jpg,within,NA,NaN,NA,right,4357,1,0,870
wraTLW7A,NA,NA,wraTLW7A,2020-0188,2021-09-28,13:05:44,21:02:14,NA,incomplete,false,NA,true,2,2,NA,NA,left,NA,NA,m_l_004.jpg,n_l_001.jpg,within,NA,NaN,NA,right,5428,0,0,879
wraTLW7A,NA,NA,wraTLW7A,2020-0188,2021-09-28,13:05:44,21:02:14,NA,incomplete,false,NA,true,2,3,NA,NA,right,NA,NA,a_1_022.jpg,n_s_013.jpg,between-big,NA,NaN,NA,right,1396,1,2,2940
wraTLW7A,NA,NA,wraTLW7A,2020-0188,2021-09-28,13:05:44,21:02:14,NA,incomplete,false,NA,true,2,4,NA,NA,right,NA,NA,a_1_008.jpg,n_l_003.jpg,between-big,NA,NaN,NA,right,1344,1,2,1692
wraTLW7A,NA,NA,wraTLW7A,2020-0188,2021-09-28,13:05:44,21:02:14,NA,incomplete,false,NA,true,2,5,NA,NA,right,NA,NA,o_s_003.jpg,a_2_015.jpg,between-big,NA,NaN,NA,right,1548,1,2,1016
wraTLW7A,NA,NA,wraTLW7A,2020-0188,2021-09-28,13:05:44,21:02:14,NA,incomplete,false,NA,true,2,6,NA,NA,right,NA,NA,o_c_017.jpg,a_2_007.jpg,between-big,NA,NaN,NA,left,1350,0,2,896.0000000009313
wraTLW7A,NA,NA,wraTLW7A,2020-0188,2021-09-28,13:05:44,21:02:14,NA,incomplete,false,NA,true,2,7,NA,NA,right,NA,NA,m_s_022.jpg,n_s_008.jpg,between-small,NA,NaN,NA,left,2979,0,1,1196.0000000009313
wraTLW7A,NA,NA,wraTLW7A,2020-0188,2021-09-28,13:05:44,21:02:14,NA,incomplete,false,NA,true,2,8,NA,NA,left,NA,NA,a_1_022.jpg,a_1_018.jpg,between-small,NA,NaN,NA,left,3247,1,1,1220
wraTLW7A,NA,NA,wraTLW7A,2020-0188,2021-09-28,13:05:44,21:02:14,NA,incomplete,false,NA,true,2,9,NA,NA,right,NA,NA,o_c_010.jpg,i_s_013.jpg,within,NA,NaN,NA,right,2019.9999999990687,1,0,1448.9999999990687
wraTLW7A,NA,NA,wraTLW7A,2020-0188,2021-09-28,13:05:44,21:02:14,NA,incomplete,false,NA,true,2,10,NA,NA,right,NA,NA,c_1_019.jpg,a_2_006.jpg,between-small,NA,NaN,NA,left,2059,0,1,1733
wraTLW7A,NA,NA,wraTLW7A,2020-0188,2021-09-28,13:05:44,21:02:14,NA,incomplete,false,NA,true,2,11,NA,NA,right,NA,NA,n_s_013.jpg,m_s_005.jpg,within,NA,NaN,NA,right,3346.0000000009313,1,0,1015.9999999990687
wraTLW7A,NA,NA,wraTLW7A,2020-0188,2021-09-28,13:05:44,21:02:14,NA,incomplete,false,NA,true,2,12,NA,NA,right,NA,NA,i_s_022.jpg,a_1_007.jpg,between-big,NA,NaN,NA,right,1600.9999999990687,1,2,4112
wraTLW7A,NA,NA,wraTLW7A,2020-0188,2021-09-28,13:05:44,21:02:14,NA,incomplete,false,NA,true,2,13,NA,NA,left,NA,NA,o_s_011.jpg,o_c_002.jpg,within,NA,NaN,NA,left,4848.000000000931,1,1,1218
wraTLW7A,NA,NA,wraTLW7A,2020-0188,2021-09-28,13:05:44,21:02:14,NA,incomplete,false,NA,true,2,14,NA,NA,left,NA,NA,a_2_010.jpg,a_1_007.jpg,between-small,NA,NaN,NA,left,3744,1,1,1554
wraTLW7A,NA,NA,wraTLW7A,2020-0188,2021-09-28,13:05:44,21:02:14,NA,incomplete,false,NA,true,2,15,NA,NA,right,NA,NA,o_s_023.jpg,o_s_012.jpg,between-small,NA,NaN,NA,right,1380,1,1,1344
wraTLW7A,NA,NA,wraTLW7A,2020-0188,2021-09-28,13:05:44,21:02:14,NA,incomplete,false,NA,true,2,16,NA,NA,left,NA,NA,n_s_005.jpg,m_l_020.jpg,within,NA,NaN,NA,left,1978,1,0,1025.0000000009313
wraTLW7A,NA,NA,wraTLW7A,2020-0188,2021-09-28,13:05:44,21:02:14,NA,incomplete,false,NA,true,2,17,NA,NA,left,NA,NA,n_l_028.jpg,a_2_002.jpg,between-big,NA,NaN,NA,left,1260.0000000009313,1,3,1431
wraTLW7A,NA,NA,wraTLW7A,2020-0188,2021-09-28,13:05:44,21:02:14,NA,incomplete,false,NA,true,2,18,NA,NA,right,NA,NA,n_l_028.jpg,m_s_022.jpg,within,NA,NaN,NA,left,1813,0,1,1266
wraTLW7A,NA,NA,wraTLW7A,2020-0188,2021-09-28,13:05:44,21:02:14,NA,incomplete,false,NA,true,2,19,NA,NA,left,NA,NA,a_1_008.jpg,a_2_006.jpg,within,NA,NaN,NA,left,2874,1,1,876
wraTLW7A,NA,NA,wraTLW7A,2020-0188,2021-09-28,13:05:44,21:02:14,NA,incomplete,false,NA,true,2,20,NA,NA,left,NA,NA,o_s_003.jpg,i_s_013.jpg,between-small,NA,NaN,NA,left,1716.9999999990687,1,1,2800
wraTLW7A,NA,NA,wraTLW7A,2020-0188,2021-09-28,13:05:44,21:02:14,NA,incomplete,false,NA,true,2,21,NA,NA,right,NA,NA,m_s_005.jpg,m_l_020.jpg,between-small,NA,NaN,NA,left,1349,0,0,1847
wraTLW7A,NA,NA,wraTLW7A,2020-0188,2021-09-28,13:05:44,21:02:14,NA,incomplete,false,NA,true,2,22,NA,NA,left,NA,NA,n_l_001.jpg,n_l_003.jpg,between-small,NA,NaN,NA,left,1775,1,1,1732.9999999990687
wraTLW7A,NA,NA,wraTLW7A,2020-0188,2021-09-28,13:05:44,21:02:14,NA,incomplete,false,NA,true,2,23,NA,NA,right,NA,NA,o_s_011.jpg,o_c_012.jpg,between-small,NA,NaN,NA,right,2939,1,1,1564
wraTLW7A,NA,NA,wraTLW7A,2020-0188,2021-09-28,13:05:44,21:02:14,NA,incomplete,false,NA,true,2,24,NA,NA,left,NA,NA,a_2_002.jpg,a_2_010.jpg,within,NA,NaN,NA,left,1798.0000000009313,1,1,1382
wraTLW7A,NA,NA,wraTLW7A,2020-0188,2021-09-28,13:05:44,21:02:14,NA,incomplete,false,NA,true,2,25,NA,NA,left,NA,NA,i_s_022.jpg,o_c_012.jpg,within,NA,NaN,NA,left,5146,1,0,951.0000000009313
wraTLW7A,NA,NA,wraTLW7A,2020-0188,2021-09-28,13:05:44,21:02:14,NA,incomplete,false,NA,true,2,26,NA,NA,right,NA,NA,a_2_015.jpg,c_1_019.jpg,within,NA,NaN,NA,right,2423,1,0,2994.9999999990687
wraTLW7A,NA,NA,wraTLW7A,2020-0188,2021-09-28,13:05:44,21:02:14,NA,incomplete,false,true,NA,3,0,origin,m_l_017.jpg,right,natural,manmade,NA,NA,NA,right,1566,true,NA,NA,NA,NA,NA
wraTLW7A,NA,NA,wraTLW7A,2020-0188,2021-09-28,13:05:44,21:02:14,NA,incomplete,false,true,NA,3,1,origin,m_s_008.jpg,right,natural,manmade,NA,NA,NA,right,1208.99999999907,true,NA,NA,NA,NA,NA
wraTLW7A,NA,NA,wraTLW7A,2020-0188,2021-09-28,13:05:44,21:02:14,NA,incomplete,false,true,NA,3,2,origin,n_l_002.jpg,right,manmade,natural,NA,NA,NA,right,1658,true,NA,NA,NA,NA,NA
wraTLW7A,NA,NA,wraTLW7A,2020-0188,2021-09-28,13:05:44,21:02:14,NA,incomplete,false,true,NA,3,3,origin,m_s_009.jpg,right,natural,manmade,NA,NA,NA,right,1381,true,NA,NA,NA,NA,NA
wraTLW7A,NA,NA,wraTLW7A,2020-0188,2021-09-28,13:05:44,21:02:14,NA,incomplete,false,true,NA,3,4,origin,n_l_007.jpg,right,manmade,natural,NA,NA,NA,right,2044.00000000093,true,NA,NA,NA,NA,NA
wraTLW7A,NA,NA,wraTLW7A,2020-0188,2021-09-28,13:05:44,21:02:14,NA,incomplete,false,true,NA,3,5,size,n_s_021.jpg,left,small,large,NA,NA,NA,left,2007,true,NA,NA,NA,NA,NA
wraTLW7A,NA,NA,wraTLW7A,2020-0188,2021-09-28,13:05:44,21:02:14,NA,incomplete,false,true,NA,3,6,size,m_s_007.jpg,left,small,large,NA,NA,NA,left,1582,true,NA,NA,NA,NA,NA
wraTLW7A,NA,NA,wraTLW7A,2020-0188,2021-09-28,13:05:44,21:02:14,NA,incomplete,false,true,NA,3,7,size,m_l_009.jpg,right,small,large,NA,NA,NA,right,1489,true,NA,NA,NA,NA,NA
wraTLW7A,NA,NA,wraTLW7A,2020-0188,2021-09-28,13:05:44,21:02:14,NA,incomplete,false,true,NA,3,8,size,m_l_018.jpg,left,large,small,NA,NA,NA,left,1251.99999999907,true,NA,NA,NA,NA,NA
wraTLW7A,NA,NA,wraTLW7A,2020-0188,2021-09-28,13:05:44,21:02:14,NA,incomplete,false,true,NA,3,9,size,n_s_024.jpg,left,small,large,NA,NA,NA,left,1542.00000000093,true,NA,NA,NA,NA,NA
wraTLW7A,NA,NA,wraTLW7A,2020-0188,2021-09-28,13:05:44,21:02:14,NA,incomplete,false,true,NA,3,10,location,o_s_008.jpg,right,indoor,outdoor,NA,NA,NA,right,2269,true,NA,NA,NA,NA,NA
wraTLW7A,NA,NA,wraTLW7A,2020-0188,2021-09-28,13:05:44,21:02:14,NA,incomplete,false,true,NA,3,11,location,i_c_017.jpg,left,indoor,outdoor,NA,NA,NA,left,1906,true,NA,NA,NA,NA,NA
wraTLW7A,NA,NA,wraTLW7A,2020-0188,2021-09-28,13:05:44,21:02:14,NA,incomplete,false,true,NA,3,12,location,o_s_028.jpg,right,indoor,outdoor,NA,NA,NA,right,1221,true,NA,NA,NA,NA,NA
wraTLW7A,NA,NA,wraTLW7A,2020-0188,2021-09-28,13:05:44,21:02:14,NA,incomplete,false,true,NA,3,13,location,i_s_017.jpg,left,indoor,outdoor,NA,NA,NA,left,1315,true,NA,NA,NA,NA,NA
wraTLW7A,NA,NA,wraTLW7A,2020-0188,2021-09-28,13:05:44,21:02:14,NA,incomplete,false,true,NA,3,14,location,o_s_014.jpg,right,indoor,outdoor,NA,NA,NA,right,1244,true,NA,NA,NA,NA,NA
wraTLW7A,NA,NA,wraTLW7A,2020-0188,2021-09-28,13:05:44,21:02:14,NA,incomplete,false,true,NA,3,15,building,o_c_004.jpg,left,cottage,skyscraper,NA,NA,NA,left,1839.99999999907,true,NA,NA,NA,NA,NA
wraTLW7A,NA,NA,wraTLW7A,2020-0188,2021-09-28,13:05:44,21:02:14,NA,incomplete,false,true,NA,3,16,building,i_c_007.jpg,right,skyscraper,cottage,NA,NA,NA,right,1209,true,NA,NA,NA,NA,NA
wraTLW7A,NA,NA,wraTLW7A,2020-0188,2021-09-28,13:05:44,21:02:14,NA,incomplete,false,true,NA,3,17,building,i_s_001.jpg,left,skyscraper,cottage,NA,NA,NA,left,1114,true,NA,NA,NA,NA,NA
wraTLW7A,NA,NA,wraTLW7A,2020-0188,2021-09-28,13:05:44,21:02:14,NA,incomplete,false,true,NA,3,18,building,o_s_027.jpg,right,cottage,skyscraper,NA,NA,NA,right,1842,true,NA,NA,NA,NA,NA
wraTLW7A,NA,NA,wraTLW7A,2020-0188,2021-09-28,13:05:44,21:02:14,NA,incomplete,false,true,NA,3,19,building,i_s_024.jpg,right,cottage,skyscraper,NA,NA,NA,right,1389,true,NA,NA,NA,NA,NA
wraTLW7A,NA,NA,wraTLW7A,2020-0188,2021-09-28,13:05:44,21:02:14,NA,incomplete,false,true,NA,3,20,abstractness,a_2_020.jpg,left,abstract,concrete,NA,NA,NA,left,1728,true,NA,NA,NA,NA,NA
wraTLW7A,NA,NA,wraTLW7A,2020-0188,2021-09-28,13:05:44,21:02:14,NA,incomplete,false,true,NA,3,21,abstractness,c_1_016.jpg,right,abstract,concrete,NA,NA,NA,right,1117,true,NA,NA,NA,NA,NA
wraTLW7A,NA,NA,wraTLW7A,2020-0188,2021-09-28,13:05:44,21:02:14,NA,incomplete,false,true,NA,3,22,abstractness,c_1_014.jpg,right,abstract,concrete,NA,NA,NA,right,2711.99999999907,true,NA,NA,NA,NA,NA
wraTLW7A,NA,NA,wraTLW7A,2020-0188,2021-09-28,13:05:44,21:02:14,NA,incomplete,false,true,NA,3,23,abstractness,a_2_008.jpg,left,abstract,concrete,NA,NA,NA,left,1217,true,NA,NA,NA,NA,NA
wraTLW7A,NA,NA,wraTLW7A,2020-0188,2021-09-28,13:05:44,21:02:14,NA,incomplete,false,true,NA,3,24,abstractness,a_1_027.jpg,left,abstract,concrete,NA,NA,NA,left,1051.99999999907,true,NA,NA,NA,NA,NA
wraTLW7A,NA,NA,wraTLW7A,2020-0188,2021-09-28,13:05:44,21:02:14,NA,incomplete,false,true,NA,3,25,syllable,a_2_013.jpg,right,1 syllable,2 syllables,NA,NA,NA,right,1940.00000000093,true,NA,NA,NA,NA,NA
wraTLW7A,NA,NA,wraTLW7A,2020-0188,2021-09-28,13:05:44,21:02:14,NA,incomplete,false,true,NA,3,26,syllable,c_2_007.jpg,right,1 syllable,2 syllables,NA,NA,NA,right,1124,true,NA,NA,NA,NA,NA
wraTLW7A,NA,NA,wraTLW7A,2020-0188,2021-09-28,13:05:44,21:02:14,NA,incomplete,false,true,NA,3,27,syllable,a_2_001.jpg,right,2 syllables,1 syllable,NA,NA,NA,left,1266.00000000093,false,NA,NA,NA,NA,NA
wraTLW7A,NA,NA,wraTLW7A,2020-0188,2021-09-28,13:05:44,21:02:14,NA,incomplete,false,true,NA,3,28,syllable,a_1_025.jpg,right,1 syllable,2 syllables,NA,NA,NA,left,1482.99999999907,false,NA,NA,NA,NA,NA
wraTLW7A,NA,NA,wraTLW7A,2020-0188,2021-09-28,13:05:44,21:02:14,NA,incomplete,false,true,NA,3,29,syllable,c_1_010.jpg,right,2 syllables,1 syllable,NA,NA,NA,left,1890,false,NA,NA,NA,NA,NA
wraTLW7A,NA,NA,wraTLW7A,2020-0188,2021-09-28,13:05:44,21:02:14,NA,incomplete,false,NA,true,3,0,NA,NA,right,NA,NA,o_s_008.jpg,m_l_009.jpg,between-big,NA,NaN,NA,right,2060,1,2,1650.9999999990687
wraTLW7A,NA,NA,wraTLW7A,2020-0188,2021-09-28,13:05:44,21:02:14,NA,incomplete,false,NA,true,3,1,NA,NA,right,NA,NA,i_c_007.jpg,i_s_017.jpg,between-small,NA,NaN,NA,right,1710,1,1,1082.0000000009313
wraTLW7A,NA,NA,wraTLW7A,2020-0188,2021-09-28,13:05:44,21:02:14,NA,incomplete,false,NA,true,3,2,NA,NA,left,NA,NA,a_2_013.jpg,a_1_025.jpg,within,NA,NaN,NA,left,2562.9999999990687,1,0,1896
wraTLW7A,NA,NA,wraTLW7A,2020-0188,2021-09-28,13:05:44,21:02:14,NA,incomplete,false,NA,true,3,3,NA,NA,right,NA,NA,a_2_020.jpg,i_s_001.jpg,between-big,NA,NaN,NA,right,1904,1,3,1009
wraTLW7A,NA,NA,wraTLW7A,2020-0188,2021-09-28,13:05:44,21:02:14,NA,incomplete,false,NA,true,3,4,NA,NA,left,NA,NA,o_c_004.jpg,o_s_027.jpg,within,NA,NaN,NA,left,2539.0000000009313,1,0,1219
wraTLW7A,NA,NA,wraTLW7A,2020-0188,2021-09-28,13:05:44,21:02:14,NA,incomplete,false,NA,true,3,5,NA,NA,left,NA,NA,a_2_008.jpg,c_2_007.jpg,between-small,NA,NaN,NA,left,2002.0000000009313,1,1,1010
wraTLW7A,NA,NA,wraTLW7A,2020-0188,2021-09-28,13:05:44,21:02:14,NA,incomplete,false,NA,true,3,6,NA,NA,left,NA,NA,m_s_009.jpg,m_s_007.jpg,between-small,NA,NaN,NA,left,5155,1,1,1236
wraTLW7A,NA,NA,wraTLW7A,2020-0188,2021-09-28,13:05:44,21:02:14,NA,incomplete,false,NA,true,3,7,NA,NA,right,NA,NA,i_s_001.jpg,o_s_014.jpg,between-small,NA,NaN,NA,left,2971,0,1,1074
wraTLW7A,NA,NA,wraTLW7A,2020-0188,2021-09-28,13:05:44,21:02:14,NA,incomplete,false,NA,true,3,8,NA,NA,left,NA,NA,m_s_007.jpg,n_s_024.jpg,within,NA,NaN,NA,right,3916,0,1,1236
wraTLW7A,NA,NA,wraTLW7A,2020-0188,2021-09-28,13:05:44,21:02:14,NA,incomplete,false,NA,true,3,9,NA,NA,right,NA,NA,i_c_017.jpg,m_l_018.jpg,between-big,NA,NaN,NA,right,1665,1,2,1180
wraTLW7A,NA,NA,wraTLW7A,2020-0188,2021-09-28,13:05:44,21:02:14,NA,incomplete,false,NA,true,3,10,NA,NA,left,NA,NA,n_l_007.jpg,m_l_009.jpg,between-small,NA,NaN,NA,left,4644,1,1,2027
wraTLW7A,NA,NA,wraTLW7A,2020-0188,2021-09-28,13:05:44,21:02:14,NA,incomplete,false,NA,true,3,11,NA,NA,right,NA,NA,c_1_016.jpg,o_s_027.jpg,between-big,NA,NaN,NA,right,1204,1,3,1529.0000000009313
wraTLW7A,NA,NA,wraTLW7A,2020-0188,2021-09-28,13:05:44,21:02:14,NA,incomplete,false,NA,true,3,12,NA,NA,right,NA,NA,i_s_017.jpg,o_s_008.jpg,within,NA,NaN,NA,left,1774,0,0,1312
wraTLW7A,NA,NA,wraTLW7A,2020-0188,2021-09-28,13:05:44,21:02:14,NA,incomplete,false,NA,true,3,13,NA,NA,left,NA,NA,m_s_008.jpg,n_l_007.jpg,within,NA,NaN,NA,left,1317,1,1,1302
wraTLW7A,NA,NA,wraTLW7A,2020-0188,2021-09-28,13:05:44,21:02:14,NA,incomplete,false,NA,true,3,14,NA,NA,right,NA,NA,o_s_014.jpg,i_c_017.jpg,within,NA,NaN,NA,left,4259,0,0,2411
wraTLW7A,NA,NA,wraTLW7A,2020-0188,2021-09-28,13:05:44,21:02:14,NA,incomplete,false,NA,true,3,15,NA,NA,right,NA,NA,o_c_004.jpg,o_s_028.jpg,between-small,NA,NaN,NA,right,1554,1,1,1773
wraTLW7A,NA,NA,wraTLW7A,2020-0188,2021-09-28,13:05:44,21:02:14,NA,incomplete,false,NA,true,3,16,NA,NA,left,NA,NA,i_c_007.jpg,i_s_024.jpg,within,NA,NaN,NA,left,2850,1,0,1437
wraTLW7A,NA,NA,wraTLW7A,2020-0188,2021-09-28,13:05:44,21:02:14,NA,incomplete,false,NA,true,3,17,NA,NA,right,NA,NA,o_s_028.jpg,n_s_024.jpg,between-big,NA,NaN,NA,right,2515.9999999990687,1,2,877.0000000009313
wraTLW7A,NA,NA,wraTLW7A,2020-0188,2021-09-28,13:05:44,21:02:14,NA,incomplete,false,NA,true,3,18,NA,NA,left,NA,NA,n_l_002.jpg,n_s_021.jpg,between-small,NA,NaN,NA,right,5195,0,0,2035.9999999990687
wraTLW7A,NA,NA,wraTLW7A,2020-0188,2021-09-28,13:05:44,21:02:14,NA,incomplete,false,NA,true,3,19,NA,NA,left,NA,NA,a_2_020.jpg,a_2_008.jpg,within,NA,NaN,NA,left,2125,1,1,1392
wraTLW7A,NA,NA,wraTLW7A,2020-0188,2021-09-28,13:05:44,21:02:14,NA,incomplete,false,NA,true,3,20,NA,NA,left,NA,NA,n_s_021.jpg,m_l_018.jpg,within,NA,NaN,NA,left,3941,1,1,1367
wraTLW7A,NA,NA,wraTLW7A,2020-0188,2021-09-28,13:05:44,21:02:14,NA,incomplete,false,NA,true,3,21,NA,NA,right,NA,NA,a_2_001.jpg,a_1_027.jpg,between-small,NA,NaN,NA,left,3101,0,1,1089.9999999990687
wraTLW7A,NA,NA,wraTLW7A,2020-0188,2021-09-28,13:05:44,21:02:14,NA,incomplete,false,NA,true,3,22,NA,NA,left,NA,NA,c_1_014.jpg,a_2_013.jpg,between-small,NA,NaN,NA,left,1417,1,1,2681
wraTLW7A,NA,NA,wraTLW7A,2020-0188,2021-09-28,13:05:44,21:02:14,NA,incomplete,false,NA,true,3,23,NA,NA,right,NA,NA,c_1_010.jpg,c_2_007.jpg,within,NA,NaN,NA,left,4136,0,1,1252
wraTLW7A,NA,NA,wraTLW7A,2020-0188,2021-09-28,13:05:44,21:02:14,NA,incomplete,false,NA,true,3,24,NA,NA,left,NA,NA,i_s_024.jpg,c_1_014.jpg,between-big,NA,NaN,NA,left,1251,1,3,853
wraTLW7A,NA,NA,wraTLW7A,2020-0188,2021-09-28,13:05:44,21:02:14,NA,incomplete,false,NA,true,3,25,NA,NA,left,NA,NA,c_1_016.jpg,a_1_027.jpg,within,NA,NaN,NA,right,3500,0,1,1032
wraTLW7A,NA,NA,wraTLW7A,2020-0188,2021-09-28,13:05:44,21:02:14,NA,incomplete,false,NA,true,3,26,NA,NA,left,NA,NA,m_l_017.jpg,m_s_009.jpg,within,NA,NaN,NA,left,2563.9999999990687,1,0,1017
wraTLW7A,NA,NA,wraTLW7A,2020-0188,2021-09-28,13:05:44,21:02:14,NA,incomplete,false,true,NA,4,0,location,i_s_026.jpg,left,indoor,outdoor,NA,NA,NA,left,2196,true,NA,NA,NA,NA,NA
wraTLW7A,NA,NA,wraTLW7A,2020-0188,2021-09-28,13:05:44,21:02:14,NA,incomplete,false,true,NA,4,1,location,o_s_022.jpg,left,outdoor,indoor,NA,NA,NA,right,1289.99999999907,false,NA,NA,NA,NA,NA
wraTLW7A,NA,NA,wraTLW7A,2020-0188,2021-09-28,13:05:44,21:02:14,NA,incomplete,false,true,NA,4,2,location,i_c_023.jpg,right,outdoor,indoor,NA,NA,NA,right,1700.00000000093,true,NA,NA,NA,NA,NA
wraTLW7A,NA,NA,wraTLW7A,2020-0188,2021-09-28,13:05:44,21:02:14,NA,incomplete,false,true,NA,4,3,location,o_s_004.jpg,left,outdoor,indoor,NA,NA,NA,left,1514,true,NA,NA,NA,NA,NA
wraTLW7A,NA,NA,wraTLW7A,2020-0188,2021-09-28,13:05:44,21:02:14,NA,incomplete,false,true,NA,4,4,location,o_c_022.jpg,right,indoor,outdoor,NA,NA,NA,right,1678,true,NA,NA,NA,NA,NA
wraTLW7A,NA,NA,wraTLW7A,2020-0188,2021-09-28,13:05:44,21:02:14,NA,incomplete,false,true,NA,4,5,building,i_c_003.jpg,right,skyscraper,cottage,NA,NA,NA,right,2439,true,NA,NA,NA,NA,NA
wraTLW7A,NA,NA,wraTLW7A,2020-0188,2021-09-28,13:05:44,21:02:14,NA,incomplete,false,true,NA,4,6,building,o_s_002.jpg,right,cottage,skyscraper,NA,NA,NA,right,1603,true,NA,NA,NA,NA,NA
wraTLW7A,NA,NA,wraTLW7A,2020-0188,2021-09-28,13:05:44,21:02:14,NA,incomplete,false,true,NA,4,7,building,o_c_020.jpg,left,cottage,skyscraper,NA,NA,NA,left,1257,true,NA,NA,NA,NA,NA
wraTLW7A,NA,NA,wraTLW7A,2020-0188,2021-09-28,13:05:44,21:02:14,NA,incomplete,false,true,NA,4,8,building,o_c_019.jpg,left,cottage,skyscraper,NA,NA,NA,left,1625,true,NA,NA,NA,NA,NA
wraTLW7A,NA,NA,wraTLW7A,2020-0188,2021-09-28,13:05:44,21:02:14,NA,incomplete,false,true,NA,4,9,building,o_s_005.jpg,left,skyscraper,cottage,NA,NA,NA,left,1263,true,NA,NA,NA,NA,NA
wraTLW7A,NA,NA,wraTLW7A,2020-0188,2021-09-28,13:05:44,21:02:14,NA,incomplete,false,true,NA,4,10,syllable,c_2_022.jpg,right,2 syllables,1 syllable,NA,NA,NA,left,2016.00000000093,false,NA,NA,NA,NA,NA
wraTLW7A,NA,NA,wraTLW7A,2020-0188,2021-09-28,13:05:44,21:02:14,NA,incomplete,false,true,NA,4,11,syllable,c_1_025.jpg,right,1 syllable,2 syllables,NA,NA,NA,left,2461,false,NA,NA,NA,NA,NA
wraTLW7A,NA,NA,wraTLW7A,2020-0188,2021-09-28,13:05:44,21:02:14,NA,incomplete,false,true,NA,4,12,syllable,c_1_024.jpg,right,1 syllable,2 syllables,NA,NA,NA,left,1445,false,NA,NA,NA,NA,NA
wraTLW7A,NA,NA,wraTLW7A,2020-0188,2021-09-28,13:05:44,21:02:14,NA,incomplete,false,true,NA,4,13,syllable,c_2_028.jpg,right,2 syllables,1 syllable,NA,NA,NA,left,2202,false,NA,NA,NA,NA,NA
wraTLW7A,NA,NA,wraTLW7A,2020-0188,2021-09-28,13:05:44,21:02:14,NA,incomplete,false,true,NA,4,14,syllable,a_2_026.jpg,right,1 syllable,2 syllables,NA,NA,NA,right,1953,true,NA,NA,NA,NA,NA
wraTLW7A,NA,NA,wraTLW7A,2020-0188,2021-09-28,13:05:44,21:02:14,NA,incomplete,false,true,NA,4,15,abstractness,c_1_018.jpg,left,concrete,abstract,NA,NA,NA,left,1564,true,NA,NA,NA,NA,NA
wraTLW7A,NA,NA,wraTLW7A,2020-0188,2021-09-28,13:05:44,21:02:14,NA,incomplete,false,true,NA,4,16,abstractness,c_2_020.jpg,right,abstract,concrete,NA,NA,NA,right,1459,true,NA,NA,NA,NA,NA
wraTLW7A,NA,NA,wraTLW7A,2020-0188,2021-09-28,13:05:44,21:02:14,NA,incomplete,false,true,NA,4,17,abstractness,c_1_009.jpg,left,concrete,abstract,NA,NA,NA,left,2069.99999999907,true,NA,NA,NA,NA,NA
wraTLW7A,NA,NA,wraTLW7A,2020-0188,2021-09-28,13:05:44,21:02:14,NA,incomplete,false,true,NA,4,18,abstractness,a_1_023.jpg,left,abstract,concrete,NA,NA,NA,left,1260,true,NA,NA,NA,NA,NA
wraTLW7A,NA,NA,wraTLW7A,2020-0188,2021-09-28,13:05:44,21:02:14,NA,incomplete,false,true,NA,4,19,abstractness,c_1_026.jpg,right,abstract,concrete,NA,NA,NA,right,1412.99999999907,true,NA,NA,NA,NA,NA
wraTLW7A,NA,NA,wraTLW7A,2020-0188,2021-09-28,13:05:44,21:02:14,NA,incomplete,false,true,NA,4,20,size,n_l_011.jpg,right,small,large,NA,NA,NA,right,1509,true,NA,NA,NA,NA,NA
wraTLW7A,NA,NA,wraTLW7A,2020-0188,2021-09-28,13:05:44,21:02:14,NA,incomplete,false,true,NA,4,21,size,m_l_023.jpg,left,large,small,NA,NA,NA,left,1543,true,NA,NA,NA,NA,NA
wraTLW7A,NA,NA,wraTLW7A,2020-0188,2021-09-28,13:05:44,21:02:14,NA,incomplete,false,true,NA,4,22,size,m_l_005.jpg,left,large,small,NA,NA,NA,left,1098,true,NA,NA,NA,NA,NA
wraTLW7A,NA,NA,wraTLW7A,2020-0188,2021-09-28,13:05:44,21:02:14,NA,incomplete,false,true,NA,4,23,size,n_l_021.jpg,right,small,large,NA,NA,NA,right,1240,true,NA,NA,NA,NA,NA
wraTLW7A,NA,NA,wraTLW7A,2020-0188,2021-09-28,13:05:44,21:02:14,NA,incomplete,false,true,NA,4,24,size,m_l_015.jpg,left,large,small,NA,NA,NA,left,1108,true,NA,NA,NA,NA,NA
wraTLW7A,NA,NA,wraTLW7A,2020-0188,2021-09-28,13:05:44,21:02:14,NA,incomplete,false,true,NA,4,25,origin,m_s_019.jpg,right,natural,manmade,NA,NA,NA,right,1462.00000000093,true,NA,NA,NA,NA,NA
wraTLW7A,NA,NA,wraTLW7A,2020-0188,2021-09-28,13:05:44,21:02:14,NA,incomplete,false,true,NA,4,26,origin,n_s_022.jpg,left,natural,manmade,NA,NA,NA,left,1907,true,NA,NA,NA,NA,NA
wraTLW7A,NA,NA,wraTLW7A,2020-0188,2021-09-28,13:05:44,21:02:14,NA,incomplete,false,true,NA,4,27,origin,m_s_026.jpg,right,natural,manmade,NA,NA,NA,right,2275,true,NA,NA,NA,NA,NA
wraTLW7A,NA,NA,wraTLW7A,2020-0188,2021-09-28,13:05:44,21:02:14,NA,incomplete,false,true,NA,4,28,origin,n_l_004.jpg,left,natural,manmade,NA,NA,NA,left,1991,true,NA,NA,NA,NA,NA
wraTLW7A,NA,NA,wraTLW7A,2020-0188,2021-09-28,13:05:44,21:02:14,NA,incomplete,false,true,NA,4,29,origin,m_s_028.jpg,left,manmade,natural,NA,NA,NA,left,1173,true,NA,NA,NA,NA,NA
wraTLW7A,NA,NA,wraTLW7A,2020-0188,2021-09-28,13:05:44,21:02:14,NA,incomplete,false,NA,true,4,0,NA,NA,left,NA,NA,c_1_025.jpg,a_2_026.jpg,within,NA,NaN,NA,right,5161,0,1,1115
wraTLW7A,NA,NA,wraTLW7A,2020-0188,2021-09-28,13:05:44,21:02:14,NA,incomplete,false,NA,true,4,1,NA,NA,right,NA,NA,a_1_023.jpg,c_1_018.jpg,within,NA,NaN,NA,right,7989,1,0,959
wraTLW7A,NA,NA,wraTLW7A,2020-0188,2021-09-28,13:05:44,21:02:14,NA,incomplete,false,NA,true,4,2,NA,NA,right,NA,NA,m_s_028.jpg,n_s_022.jpg,within,NA,NaN,NA,right,1726,1,0,1033.0000000009313
wraTLW7A,NA,NA,wraTLW7A,2020-0188,2021-09-28,13:05:44,21:02:14,NA,incomplete,false,NA,true,4,3,NA,NA,left,NA,NA,n_l_011.jpg,n_l_021.jpg,within,NA,NaN,NA,left,1033.0000000009313,1,0,873.0000000009313
wraTLW7A,NA,NA,wraTLW7A,2020-0188,2021-09-28,13:05:44,21:02:14,NA,incomplete,false,NA,true,4,4,NA,NA,right,NA,NA,n_l_011.jpg,c_1_009.jpg,between-big,NA,NaN,NA,right,1423,1,2,886
wraTLW7A,NA,NA,wraTLW7A,2020-0188,2021-09-28,13:05:44,21:02:14,NA,incomplete,false,NA,true,4,5,NA,NA,left,NA,NA,o_c_019.jpg,c_1_025.jpg,between-big,NA,NaN,NA,left,1245,1,2,1098
wraTLW7A,NA,NA,wraTLW7A,2020-0188,2021-09-28,13:05:44,21:02:14,NA,incomplete,false,NA,true,4,6,NA,NA,right,NA,NA,i_c_003.jpg,i_c_023.jpg,between-small,NA,NaN,NA,right,2010.0000000009313,1,1,1397.0000000009313
wraTLW7A,NA,NA,wraTLW7A,2020-0188,2021-09-28,13:05:44,21:02:14,NA,incomplete,false,NA,true,4,7,NA,NA,right,NA,NA,m_l_015.jpg,m_l_023.jpg,within,NA,NaN,NA,right,2702,1,0,1619
wraTLW7A,NA,NA,wraTLW7A,2020-0188,2021-09-28,13:05:44,21:02:14,NA,incomplete,false,NA,true,4,8,NA,NA,left,NA,NA,c_2_022.jpg,c_2_028.jpg,within,NA,NaN,NA,left,2547.0000000009313,1,0,1229
wraTLW7A,NA,NA,wraTLW7A,2020-0188,2021-09-28,13:05:44,21:02:14,NA,incomplete,false,NA,true,4,9,NA,NA,right,NA,NA,c_1_009.jpg,a_2_026.jpg,between-small,NA,NaN,NA,right,2987,1,1,1717
wraTLW7A,NA,NA,wraTLW7A,2020-0188,2021-09-28,13:05:44,21:02:14,NA,incomplete,false,NA,true,4,10,NA,NA,right,NA,NA,c_2_020.jpg,c_2_028.jpg,between-small,NA,NaN,NA,right,2514,1,1,1863
wraTLW7A,NA,NA,wraTLW7A,2020-0188,2021-09-28,13:05:44,21:02:14,NA,incomplete,false,NA,true,4,11,NA,NA,left,NA,NA,m_s_019.jpg,n_l_004.jpg,within,NA,NaN,NA,left,1432,1,0,968
wraTLW7A,NA,NA,wraTLW7A,2020-0188,2021-09-28,13:05:44,21:02:14,NA,incomplete,false,NA,true,4,12,NA,NA,left,NA,NA,m_l_005.jpg,m_s_019.jpg,between-small,NA,NaN,NA,left,1330,1,1,1113.9999999990687
wraTLW7A,NA,NA,wraTLW7A,2020-0188,2021-09-28,13:05:44,21:02:14,NA,incomplete,false,NA,true,4,13,NA,NA,right,NA,NA,o_c_019.jpg,i_c_003.jpg,within,NA,NaN,NA,right,1728.9999999990687,1,1,1057
wraTLW7A,NA,NA,wraTLW7A,2020-0188,2021-09-28,13:05:44,21:02:14,NA,incomplete,false,NA,true,4,14,NA,NA,right,NA,NA,m_l_023.jpg,a_1_023.jpg,between-big,NA,NaN,NA,right,2555,1,2,934
wraTLW7A,NA,NA,wraTLW7A,2020-0188,2021-09-28,13:05:44,21:02:14,NA,incomplete,false,NA,true,4,15,NA,NA,right,NA,NA,o_s_002.jpg,o_s_004.jpg,between-small,NA,NaN,NA,right,1357,1,1,998
wraTLW7A,NA,NA,wraTLW7A,2020-0188,2021-09-28,13:05:44,21:02:14,NA,incomplete,false,NA,true,4,16,NA,NA,left,NA,NA,c_1_024.jpg,c_1_018.jpg,between-small,NA,NaN,NA,left,3284,1,1,1313.9999999990687
wraTLW7A,NA,NA,wraTLW7A,2020-0188,2021-09-28,13:05:44,21:02:14,NA,incomplete,false,NA,true,4,17,NA,NA,left,NA,NA,o_s_005.jpg,c_1_024.jpg,between-big,NA,NaN,NA,left,1164,1,3,878
wraTLW7A,NA,NA,wraTLW7A,2020-0188,2021-09-28,13:05:44,21:02:14,NA,incomplete,false,NA,true,4,18,NA,NA,left,NA,NA,i_s_026.jpg,o_s_004.jpg,within,NA,NaN,NA,left,2178,1,0,1822.9999999990687
wraTLW7A,NA,NA,wraTLW7A,2020-0188,2021-09-28,13:05:44,21:02:14,NA,incomplete,false,NA,true,4,19,NA,NA,left,NA,NA,n_l_021.jpg,n_s_022.jpg,between-small,NA,NaN,NA,left,1141,1,1,1350
wraTLW7A,NA,NA,wraTLW7A,2020-0188,2021-09-28,13:05:44,21:02:14,NA,incomplete,false,NA,true,4,20,NA,NA,right,NA,NA,c_2_022.jpg,o_c_020.jpg,between-big,NA,NaN,NA,right,1570,1,2,809
wraTLW7A,NA,NA,wraTLW7A,2020-0188,2021-09-28,13:05:44,21:02:14,NA,incomplete,false,NA,true,4,21,NA,NA,right,NA,NA,o_c_022.jpg,o_s_022.jpg,within,NA,NaN,NA,left,2979.0000000009313,0,1,1075
wraTLW7A,NA,NA,wraTLW7A,2020-0188,2021-09-28,13:05:44,21:02:14,NA,incomplete,false,NA,true,4,22,NA,NA,left,NA,NA,o_c_022.jpg,o_c_020.jpg,between-small,NA,NaN,NA,left,1619,1,1,1578
wraTLW7A,NA,NA,wraTLW7A,2020-0188,2021-09-28,13:05:44,21:02:14,NA,incomplete,false,NA,true,4,23,NA,NA,left,NA,NA,m_l_015.jpg,m_s_026.jpg,between-small,NA,NaN,NA,left,4236,1,1,999
wraTLW7A,NA,NA,wraTLW7A,2020-0188,2021-09-28,13:05:44,21:02:14,NA,incomplete,false,NA,true,4,24,NA,NA,right,NA,NA,m_l_005.jpg,c_1_026.jpg,between-big,NA,NaN,NA,right,1124,1,3,1250.9999999990687
wraTLW7A,NA,NA,wraTLW7A,2020-0188,2021-09-28,13:05:44,21:02:14,NA,incomplete,false,NA,true,4,25,NA,NA,right,NA,NA,o_s_005.jpg,o_s_002.jpg,within,NA,NaN,NA,right,2644.0000000009313,1,0,1913
wraTLW7A,NA,NA,wraTLW7A,2020-0188,2021-09-28,13:05:44,21:02:14,NA,incomplete,false,NA,true,4,26,NA,NA,right,NA,NA,c_1_026.jpg,c_2_020.jpg,within,NA,NaN,NA,left,2710,0,1,1880
wraTLW7A,NA,NA,wraTLW7A,2020-0188,2021-09-28,13:05:44,21:02:14,NA,incomplete,false,true,NA,5,0,location,i_c_024.jpg,left,indoor,outdoor,NA,NA,NA,left,2207,true,NA,NA,NA,NA,NA
wraTLW7A,NA,NA,wraTLW7A,2020-0188,2021-09-28,13:05:44,21:02:14,NA,incomplete,false,true,NA,5,1,location,o_c_009.jpg,left,outdoor,indoor,NA,NA,NA,left,1483,true,NA,NA,NA,NA,NA
wraTLW7A,NA,NA,wraTLW7A,2020-0188,2021-09-28,13:05:44,21:02:14,NA,incomplete,false,true,NA,5,2,location,o_s_015.jpg,right,indoor,outdoor,NA,NA,NA,right,2041,true,NA,NA,NA,NA,NA
wraTLW7A,NA,NA,wraTLW7A,2020-0188,2021-09-28,13:05:44,21:02:14,NA,incomplete,false,true,NA,5,3,location,o_c_007.jpg,right,indoor,outdoor,NA,NA,NA,right,1366,true,NA,NA,NA,NA,NA
wraTLW7A,NA,NA,wraTLW7A,2020-0188,2021-09-28,13:05:44,21:02:14,NA,incomplete,false,true,NA,5,4,location,i_c_008.jpg,left,indoor,outdoor,NA,NA,NA,left,1886,true,NA,NA,NA,NA,NA
wraTLW7A,NA,NA,wraTLW7A,2020-0188,2021-09-28,13:05:44,21:02:14,NA,incomplete,false,true,NA,5,5,building,i_c_013.jpg,left,cottage,skyscraper,NA,NA,NA,left,2373.99999999907,true,NA,NA,NA,NA,NA
wraTLW7A,NA,NA,wraTLW7A,2020-0188,2021-09-28,13:05:44,21:02:14,NA,incomplete,false,true,NA,5,6,building,i_s_018.jpg,right,cottage,skyscraper,NA,NA,NA,right,2881.99999999907,true,NA,NA,NA,NA,NA
wraTLW7A,NA,NA,wraTLW7A,2020-0188,2021-09-28,13:05:44,21:02:14,NA,incomplete,false,true,NA,5,7,building,i_c_001.jpg,left,cottage,skyscraper,NA,NA,NA,left,1021,true,NA,NA,NA,NA,NA
wraTLW7A,NA,NA,wraTLW7A,2020-0188,2021-09-28,13:05:44,21:02:14,NA,incomplete,false,true,NA,5,8,building,o_c_008.jpg,left,cottage,skyscraper,NA,NA,NA,left,1233,true,NA,NA,NA,NA,NA
wraTLW7A,NA,NA,wraTLW7A,2020-0188,2021-09-28,13:05:44,21:02:14,NA,incomplete,false,true,NA,5,9,building,i_s_025.jpg,left,skyscraper,cottage,NA,NA,NA,left,1260,true,NA,NA,NA,NA,NA
wraTLW7A,NA,NA,wraTLW7A,2020-0188,2021-09-28,13:05:44,21:02:14,NA,incomplete,false,true,NA,5,10,syllable,c_2_024.jpg,right,1 syllable,2 syllables,NA,NA,NA,right,2097.00000000093,true,NA,NA,NA,NA,NA
wraTLW7A,NA,NA,wraTLW7A,2020-0188,2021-09-28,13:05:44,21:02:14,NA,incomplete,false,true,NA,5,11,syllable,a_2_016.jpg,right,1 syllable,2 syllables,NA,NA,NA,right,1721,true,NA,NA,NA,NA,NA
wraTLW7A,NA,NA,wraTLW7A,2020-0188,2021-09-28,13:05:44,21:02:14,NA,incomplete,false,true,NA,5,12,syllable,a_1_009.jpg,right,1 syllable,2 syllables,NA,NA,NA,left,1535,false,NA,NA,NA,NA,NA
wraTLW7A,NA,NA,wraTLW7A,2020-0188,2021-09-28,13:05:44,21:02:14,NA,incomplete,false,true,NA,5,13,syllable,a_1_006.jpg,right,1 syllable,2 syllables,NA,NA,NA,left,1319,false,NA,NA,NA,NA,NA
wraTLW7A,NA,NA,wraTLW7A,2020-0188,2021-09-28,13:05:44,21:02:14,NA,incomplete,false,true,NA,5,14,syllable,c_1_027.jpg,right,1 syllable,2 syllables,NA,NA,NA,left,1158,false,NA,NA,NA,NA,NA
wraTLW7A,NA,NA,wraTLW7A,2020-0188,2021-09-28,13:05:44,21:02:14,NA,incomplete,false,true,NA,5,15,abstractness,c_1_028.jpg,left,concrete,abstract,NA,NA,NA,left,1617,true,NA,NA,NA,NA,NA
wraTLW7A,NA,NA,wraTLW7A,2020-0188,2021-09-28,13:05:44,21:02:14,NA,incomplete,false,true,NA,5,16,abstractness,c_1_001.jpg,left,concrete,abstract,NA,NA,NA,left,1439.99999999907,true,NA,NA,NA,NA,NA
wraTLW7A,NA,NA,wraTLW7A,2020-0188,2021-09-28,13:05:44,21:02:14,NA,incomplete,false,true,NA,5,17,abstractness,a_1_002.jpg,right,concrete,abstract,NA,NA,NA,right,1592,true,NA,NA,NA,NA,NA
wraTLW7A,NA,NA,wraTLW7A,2020-0188,2021-09-28,13:05:44,21:02:14,NA,incomplete,false,true,NA,5,18,abstractness,c_1_003.jpg,right,abstract,concrete,NA,NA,NA,right,2027,true,NA,NA,NA,NA,NA
wraTLW7A,NA,NA,wraTLW7A,2020-0188,2021-09-28,13:05:44,21:02:14,NA,incomplete,false,true,NA,5,19,abstractness,c_2_019.jpg,right,abstract,concrete,NA,NA,NA,right,1884.99999999907,true,NA,NA,NA,NA,NA
wraTLW7A,NA,NA,wraTLW7A,2020-0188,2021-09-28,13:05:44,21:02:14,NA,incomplete,false,true,NA,5,20,origin,m_l_013.jpg,right,natural,manmade,NA,NA,NA,right,1793,true,NA,NA,NA,NA,NA
wraTLW7A,NA,NA,wraTLW7A,2020-0188,2021-09-28,13:05:44,21:02:14,NA,incomplete,false,true,NA,5,21,origin,m_s_016.jpg,right,natural,manmade,NA,NA,NA,right,1703,true,NA,NA,NA,NA,NA
wraTLW7A,NA,NA,wraTLW7A,2020-0188,2021-09-28,13:05:44,21:02:14,NA,incomplete,false,true,NA,5,22,origin,n_s_007.jpg,left,natural,manmade,NA,NA,NA,left,1952.99999999907,true,NA,NA,NA,NA,NA
wraTLW7A,NA,NA,wraTLW7A,2020-0188,2021-09-28,13:05:44,21:02:14,NA,incomplete,false,true,NA,5,23,origin,n_s_001.jpg,left,natural,manmade,NA,NA,NA,left,1666,true,NA,NA,NA,NA,NA
wraTLW7A,NA,NA,wraTLW7A,2020-0188,2021-09-28,13:05:44,21:02:14,NA,incomplete,false,true,NA,5,24,origin,n_l_013.jpg,right,manmade,natural,NA,NA,NA,right,1687,true,NA,NA,NA,NA,NA
wraTLW7A,NA,NA,wraTLW7A,2020-0188,2021-09-28,13:05:44,21:02:14,NA,incomplete,false,true,NA,5,25,size,m_s_024.jpg,left,small,large,NA,NA,NA,left,1698.99999999907,true,NA,NA,NA,NA,NA
wraTLW7A,NA,NA,wraTLW7A,2020-0188,2021-09-28,13:05:44,21:02:14,NA,incomplete,false,true,NA,5,26,size,n_l_012.jpg,right,small,large,NA,NA,NA,right,1444,true,NA,NA,NA,NA,NA
wraTLW7A,NA,NA,wraTLW7A,2020-0188,2021-09-28,13:05:44,21:02:14,NA,incomplete,false,true,NA,5,27,size,n_l_009.jpg,left,large,small,NA,NA,NA,left,1363,true,NA,NA,NA,NA,NA
wraTLW7A,NA,NA,wraTLW7A,2020-0188,2021-09-28,13:05:44,21:02:14,NA,incomplete,false,true,NA,5,28,size,m_s_001.jpg,right,large,small,NA,NA,NA,right,2303,true,NA,NA,NA,NA,NA
wraTLW7A,NA,NA,wraTLW7A,2020-0188,2021-09-28,13:05:44,21:02:14,NA,incomplete,false,true,NA,5,29,size,n_l_018.jpg,left,large,small,NA,NA,NA,left,1146,true,NA,NA,NA,NA,NA
wraTLW7A,NA,NA,wraTLW7A,2020-0188,2021-09-28,13:05:44,21:02:14,NA,incomplete,false,NA,true,5,0,NA,NA,left,NA,NA,n_l_012.jpg,n_l_018.jpg,within,NA,NaN,NA,left,1323,1,0,959
wraTLW7A,NA,NA,wraTLW7A,2020-0188,2021-09-28,13:05:44,21:02:14,NA,incomplete,false,NA,true,5,1,NA,NA,right,NA,NA,i_c_008.jpg,o_c_009.jpg,within,NA,NaN,NA,left,2305,0,1,918
wraTLW7A,NA,NA,wraTLW7A,2020-0188,2021-09-28,13:05:44,21:02:14,NA,incomplete,false,NA,true,5,2,NA,NA,right,NA,NA,c_2_024.jpg,i_c_001.jpg,between-big,NA,NaN,NA,right,1147.9999999990687,1,2,861
wraTLW7A,NA,NA,wraTLW7A,2020-0188,2021-09-28,13:05:44,21:02:14,NA,incomplete,false,NA,true,5,3,NA,NA,left,NA,NA,o_c_007.jpg,i_s_018.jpg,between-small,NA,NaN,NA,right,1414,0,1,1473
wraTLW7A,NA,NA,wraTLW7A,2020-0188,2021-09-28,13:05:44,21:02:14,NA,incomplete,false,NA,true,5,4,NA,NA,right,NA,NA,n_l_013.jpg,m_s_016.jpg,within,NA,NaN,NA,right,4472,1,0,1651
wraTLW7A,NA,NA,wraTLW7A,2020-0188,2021-09-28,13:05:44,21:02:14,NA,incomplete,false,NA,true,5,5,NA,NA,left,NA,NA,o_s_015.jpg,i_c_013.jpg,between-small,NA,NaN,NA,right,2015,0,1,1626.9999999990687
wraTLW7A,NA,NA,wraTLW7A,2020-0188,2021-09-28,13:05:44,21:02:14,NA,incomplete,false,NA,true,5,6,NA,NA,right,NA,NA,c_1_003.jpg,c_1_028.jpg,within,NA,NaN,NA,right,3794,1,0,934.9999999990687
wraTLW7A,NA,NA,wraTLW7A,2020-0188,2021-09-28,13:05:44,21:02:14,NA,incomplete,false,NA,true,5,7,NA,NA,right,NA,NA,i_s_025.jpg,i_s_018.jpg,within,NA,NaN,NA,right,4234,1,0,1075
wraTLW7A,NA,NA,wraTLW7A,2020-0188,2021-09-28,13:05:44,21:02:14,NA,incomplete,false,NA,true,5,8,NA,NA,left,NA,NA,c_1_027.jpg,a_1_002.jpg,between-small,NA,NaN,NA,left,7523.999999999069,1,1,1732
wraTLW7A,NA,NA,wraTLW7A,2020-0188,2021-09-28,13:05:44,21:02:14,NA,incomplete,false,NA,true,5,9,NA,NA,right,NA,NA,o_c_007.jpg,i_c_024.jpg,within,NA,NaN,NA,right,3500,1,1,2500
wraTLW7A,NA,NA,wraTLW7A,2020-0188,2021-09-28,13:05:44,21:02:14,NA,incomplete,false,NA,true,5,10,NA,NA,left,NA,NA,n_s_001.jpg,n_l_012.jpg,between-small,NA,NaN,NA,left,7314,1,0,2051
wraTLW7A,NA,NA,wraTLW7A,2020-0188,2021-09-28,13:05:44,21:02:14,NA,incomplete,false,NA,true,5,11,NA,NA,right,NA,NA,c_2_019.jpg,c_1_001.jpg,within,NA,NaN,NA,left,2031.9999999990687,0,1,1797.9999999990687
wraTLW7A,NA,NA,wraTLW7A,2020-0188,2021-09-28,13:05:44,21:02:14,NA,incomplete,false,NA,true,5,12,NA,NA,left,NA,NA,c_2_019.jpg,n_s_007.jpg,between-big,NA,NaN,NA,left,1816,1,2,978
wraTLW7A,NA,NA,wraTLW7A,2020-0188,2021-09-28,13:05:44,21:02:14,NA,incomplete,false,NA,true,5,13,NA,NA,right,NA,NA,a_1_009.jpg,i_s_025.jpg,between-big,NA,NaN,NA,right,1162,1,3,1208.0000000009313
wraTLW7A,NA,NA,wraTLW7A,2020-0188,2021-09-28,13:05:44,21:02:14,NA,incomplete,false,NA,true,5,14,NA,NA,left,NA,NA,m_l_013.jpg,n_s_001.jpg,within,NA,NaN,NA,left,1344,1,0,1961
wraTLW7A,NA,NA,wraTLW7A,2020-0188,2021-09-28,13:05:44,21:02:14,NA,incomplete,false,NA,true,5,15,NA,NA,right,NA,NA,c_1_027.jpg,a_2_016.jpg,within,NA,NaN,NA,right,1873,1,0,2001
wraTLW7A,NA,NA,wraTLW7A,2020-0188,2021-09-28,13:05:44,21:02:14,NA,incomplete,false,NA,true,5,16,NA,NA,left,NA,NA,i_c_013.jpg,o_c_008.jpg,within,NA,NaN,NA,left,3097.0000000009313,1,1,2026.9999999990687
wraTLW7A,NA,NA,wraTLW7A,2020-0188,2021-09-28,13:05:44,21:02:14,NA,incomplete,false,NA,true,5,17,NA,NA,right,NA,NA,c_1_028.jpg,a_1_009.jpg,between-small,NA,NaN,NA,right,1766,1,0,1790.0000000009313
wraTLW7A,NA,NA,wraTLW7A,2020-0188,2021-09-28,13:05:44,21:02:14,NA,incomplete,false,NA,true,5,18,NA,NA,left,NA,NA,o_c_008.jpg,a_2_016.jpg,between-big,NA,NaN,NA,left,1056.9999999981374,1,3,1263.9999999990687
wraTLW7A,NA,NA,wraTLW7A,2020-0188,2021-09-28,13:05:44,21:02:14,NA,incomplete,false,NA,true,5,19,NA,NA,right,NA,NA,n_l_009.jpg,n_l_013.jpg,between-small,NA,NaN,NA,right,1187,1,1,1064
wraTLW7A,NA,NA,wraTLW7A,2020-0188,2021-09-28,13:05:44,21:02:14,NA,incomplete,false,NA,true,5,20,NA,NA,left,NA,NA,a_1_006.jpg,c_1_001.jpg,between-small,NA,NaN,NA,left,2125,1,0,1512.0000000009313
wraTLW7A,NA,NA,wraTLW7A,2020-0188,2021-09-28,13:05:44,21:02:14,NA,incomplete,false,NA,true,5,21,NA,NA,right,NA,NA,m_s_016.jpg,c_1_003.jpg,between-big,NA,NaN,NA,right,1661,1,2,887.9999999990687
wraTLW7A,NA,NA,wraTLW7A,2020-0188,2021-09-28,13:05:44,21:02:14,NA,incomplete,false,NA,true,5,22,NA,NA,left,NA,NA,i_c_008.jpg,i_c_001.jpg,between-small,NA,NaN,NA,left,2190.9999999990687,1,1,1308.9999999990687
wraTLW7A,NA,NA,wraTLW7A,2020-0188,2021-09-28,13:05:44,21:02:14,NA,incomplete,false,NA,true,5,23,NA,NA,right,NA,NA,m_s_001.jpg,m_s_024.jpg,within,NA,NaN,NA,right,1496.9999999990687,1,0,1505.9999999990687
wraTLW7A,NA,NA,wraTLW7A,2020-0188,2021-09-28,13:05:44,21:02:14,NA,incomplete,false,NA,true,5,24,NA,NA,right,NA,NA,m_s_024.jpg,n_s_007.jpg,between-small,NA,NaN,NA,right,1279.0000000009313,1,1,1161.9999999981374
wraTLW7A,NA,NA,wraTLW7A,2020-0188,2021-09-28,13:05:44,21:02:14,NA,incomplete,false,NA,true,5,25,NA,NA,left,NA,NA,c_2_024.jpg,a_1_006.jpg,within,NA,NaN,NA,right,2451.0000000009313,0,0,985.0000000009313
wraTLW7A,NA,NA,wraTLW7A,2020-0188,2021-09-28,13:05:44,21:02:14,NA,incomplete,false,NA,true,5,26,NA,NA,right,NA,NA,m_l_013.jpg,a_1_002.jpg,between-big,NA,NaN,NA,right,959.0000000009313,1,2,1180.0000000009313
wraTLW7A,NA,NA,wraTLW7A,2020-0188,2021-09-28,13:05:44,21:02:14,NA,incomplete,false,true,NA,6,0,syllable,c_1_012.jpg,right,2 syllables,1 syllable,NA,NA,NA,right,1743.00000000093,true,NA,NA,NA,NA,NA
wraTLW7A,NA,NA,wraTLW7A,2020-0188,2021-09-28,13:05:44,21:02:14,NA,incomplete,false,true,NA,6,1,syllable,a_1_024.jpg,right,1 syllable,2 syllables,NA,NA,NA,left,1147.00000000093,false,NA,NA,NA,NA,NA
wraTLW7A,NA,NA,wraTLW7A,2020-0188,2021-09-28,13:05:44,21:02:14,NA,incomplete,false,true,NA,6,2,syllable,a_1_016.jpg,right,1 syllable,2 syllables,NA,NA,NA,left,1000.99999999814,false,NA,NA,NA,NA,NA
wraTLW7A,NA,NA,wraTLW7A,2020-0188,2021-09-28,13:05:44,21:02:14,NA,incomplete,false,true,NA,6,3,syllable,c_1_004.jpg,right,1 syllable,2 syllables,NA,NA,NA,left,1121.99999999907,false,NA,NA,NA,NA,NA
wraTLW7A,NA,NA,wraTLW7A,2020-0188,2021-09-28,13:05:44,21:02:14,NA,incomplete,false,true,NA,6,4,syllable,c_2_017.jpg,right,1 syllable,2 syllables,NA,NA,NA,right,1729.00000000093,true,NA,NA,NA,NA,NA
wraTLW7A,NA,NA,wraTLW7A,2020-0188,2021-09-28,13:05:44,21:02:14,NA,incomplete,false,true,NA,6,5,abstractness,a_2_005.jpg,right,concrete,abstract,NA,NA,NA,right,2258,true,NA,NA,NA,NA,NA
wraTLW7A,NA,NA,wraTLW7A,2020-0188,2021-09-28,13:05:44,21:02:14,NA,incomplete,false,true,NA,6,6,abstractness,c_2_013.jpg,left,concrete,abstract,NA,NA,NA,left,1481,true,NA,NA,NA,NA,NA
wraTLW7A,NA,NA,wraTLW7A,2020-0188,2021-09-28,13:05:44,21:02:14,NA,incomplete,false,true,NA,6,7,abstractness,a_1_001.jpg,right,concrete,abstract,NA,NA,NA,right,1728.99999999907,true,NA,NA,NA,NA,NA
wraTLW7A,NA,NA,wraTLW7A,2020-0188,2021-09-28,13:05:44,21:02:14,NA,incomplete,false,true,NA,6,8,abstractness,a_1_014.jpg,left,abstract,concrete,NA,NA,NA,left,2564.00000000093,true,NA,NA,NA,NA,NA
wraTLW7A,NA,NA,wraTLW7A,2020-0188,2021-09-28,13:05:44,21:02:14,NA,incomplete,false,true,NA,6,9,abstractness,a_2_022.jpg,right,concrete,abstract,NA,NA,NA,right,2597,true,NA,NA,NA,NA,NA
wraTLW7A,NA,NA,wraTLW7A,2020-0188,2021-09-28,13:05:44,21:02:14,NA,incomplete,false,true,NA,6,10,origin,m_s_002.jpg,right,natural,manmade,NA,NA,NA,right,1522.99999999907,true,NA,NA,NA,NA,NA
wraTLW7A,NA,NA,wraTLW7A,2020-0188,2021-09-28,13:05:44,21:02:14,NA,incomplete,false,true,NA,6,11,origin,n_l_027.jpg,left,natural,manmade,NA,NA,NA,left,1349,true,NA,NA,NA,NA,NA
wraTLW7A,NA,NA,wraTLW7A,2020-0188,2021-09-28,13:05:44,21:02:14,NA,incomplete,false,true,NA,6,12,origin,m_s_018.jpg,right,natural,manmade,NA,NA,NA,right,1723,true,NA,NA,NA,NA,NA
wraTLW7A,NA,NA,wraTLW7A,2020-0188,2021-09-28,13:05:44,21:02:14,NA,incomplete,false,true,NA,6,13,origin,m_l_016.jpg,right,natural,manmade,NA,NA,NA,right,1328.00000000093,true,NA,NA,NA,NA,NA
wraTLW7A,NA,NA,wraTLW7A,2020-0188,2021-09-28,13:05:44,21:02:14,NA,incomplete,false,true,NA,6,14,origin,m_s_025.jpg,left,manmade,natural,NA,NA,NA,left,1812,true,NA,NA,NA,NA,NA
wraTLW7A,NA,NA,wraTLW7A,2020-0188,2021-09-28,13:05:44,21:02:14,NA,incomplete,false,true,NA,6,15,size,m_l_002.jpg,right,small,large,NA,NA,NA,right,1223,true,NA,NA,NA,NA,NA
wraTLW7A,NA,NA,wraTLW7A,2020-0188,2021-09-28,13:05:44,21:02:14,NA,incomplete,false,true,NA,6,16,size,n_s_017.jpg,right,large,small,NA,NA,NA,right,1318.99999999907,true,NA,NA,NA,NA,NA
wraTLW7A,NA,NA,wraTLW7A,2020-0188,2021-09-28,13:05:44,21:02:14,NA,incomplete,false,true,NA,6,17,size,m_l_012.jpg,left,large,small,NA,NA,NA,left,1092.99999999814,true,NA,NA,NA,NA,NA
wraTLW7A,NA,NA,wraTLW7A,2020-0188,2021-09-28,13:05:44,21:02:14,NA,incomplete,false,true,NA,6,18,size,n_s_018.jpg,right,large,small,NA,NA,NA,right,1050.00000000093,true,NA,NA,NA,NA,NA
wraTLW7A,NA,NA,wraTLW7A,2020-0188,2021-09-28,13:05:44,21:02:14,NA,incomplete,false,true,NA,6,19,size,n_s_027.jpg,left,small,large,NA,NA,NA,left,1674.99999999907,true,NA,NA,NA,NA,NA
wraTLW7A,NA,NA,wraTLW7A,2020-0188,2021-09-28,13:05:44,21:02:14,NA,incomplete,false,true,NA,6,20,location,i_s_005.jpg,left,indoor,outdoor,NA,NA,NA,left,1628.99999999907,true,NA,NA,NA,NA,NA
wraTLW7A,NA,NA,wraTLW7A,2020-0188,2021-09-28,13:05:44,21:02:14,NA,incomplete,false,true,NA,6,21,location,o_c_015.jpg,left,outdoor,indoor,NA,NA,NA,left,1661,true,NA,NA,NA,NA,NA
wraTLW7A,NA,NA,wraTLW7A,2020-0188,2021-09-28,13:05:44,21:02:14,NA,incomplete,false,true,NA,6,22,location,i_s_028.jpg,right,outdoor,indoor,NA,NA,NA,right,1316.99999999907,true,NA,NA,NA,NA,NA
wraTLW7A,NA,NA,wraTLW7A,2020-0188,2021-09-28,13:05:44,21:02:14,NA,incomplete,false,true,NA,6,23,location,i_s_021.jpg,right,outdoor,indoor,NA,NA,NA,right,1491,true,NA,NA,NA,NA,NA
wraTLW7A,NA,NA,wraTLW7A,2020-0188,2021-09-28,13:05:44,21:02:14,NA,incomplete,false,true,NA,6,24,location,i_c_028.jpg,left,indoor,outdoor,NA,NA,NA,left,1581,true,NA,NA,NA,NA,NA
wraTLW7A,NA,NA,wraTLW7A,2020-0188,2021-09-28,13:05:44,21:02:14,NA,incomplete,false,true,NA,6,25,building,i_s_003.jpg,left,skyscraper,cottage,NA,NA,NA,left,2267,true,NA,NA,NA,NA,NA
wraTLW7A,NA,NA,wraTLW7A,2020-0188,2021-09-28,13:05:44,21:02:14,NA,incomplete,false,true,NA,6,26,building,o_s_001.jpg,right,cottage,skyscraper,NA,NA,NA,right,1378.00000000093,true,NA,NA,NA,NA,NA
wraTLW7A,NA,NA,wraTLW7A,2020-0188,2021-09-28,13:05:44,21:02:14,NA,incomplete,false,true,NA,6,27,building,i_s_006.jpg,right,cottage,skyscraper,NA,NA,NA,right,1903,true,NA,NA,NA,NA,NA
wraTLW7A,NA,NA,wraTLW7A,2020-0188,2021-09-28,13:05:44,21:02:14,NA,incomplete,false,true,NA,6,28,building,i_c_019.jpg,left,cottage,skyscraper,NA,NA,NA,left,1695.00000000186,true,NA,NA,NA,NA,NA
wraTLW7A,NA,NA,wraTLW7A,2020-0188,2021-09-28,13:05:44,21:02:14,NA,incomplete,false,true,NA,6,29,building,i_s_015.jpg,left,skyscraper,cottage,NA,NA,NA,left,1564.99999999907,true,NA,NA,NA,NA,NA
wraTLW7A,NA,NA,wraTLW7A,2020-0188,2021-09-28,13:05:44,21:02:14,NA,incomplete,false,NA,true,6,0,NA,NA,right,NA,NA,o_c_015.jpg,n_s_018.jpg,between-big,NA,NaN,NA,right,2104.9999999990687,1,2,967
wraTLW7A,NA,NA,wraTLW7A,2020-0188,2021-09-28,13:05:44,21:02:14,NA,incomplete,false,NA,true,6,1,NA,NA,right,NA,NA,c_2_017.jpg,a_1_024.jpg,within,NA,NaN,NA,right,2605,1,0,1129
wraTLW7A,NA,NA,wraTLW7A,2020-0188,2021-09-28,13:05:44,21:02:14,NA,incomplete,false,NA,true,6,2,NA,NA,right,NA,NA,m_l_016.jpg,m_s_002.jpg,within,NA,NaN,NA,right,1636,1,0,4309
wraTLW7A,NA,NA,wraTLW7A,2020-0188,2021-09-28,13:05:44,21:02:14,NA,incomplete,false,NA,true,6,3,NA,NA,left,NA,NA,i_s_005.jpg,i_s_021.jpg,within,NA,NaN,NA,left,1176.9999999981374,1,0,1302
wraTLW7A,NA,NA,wraTLW7A,2020-0188,2021-09-28,13:05:44,21:02:14,NA,incomplete,false,NA,true,6,4,NA,NA,left,NA,NA,o_c_015.jpg,i_c_028.jpg,within,NA,NaN,NA,left,2499,1,0,1709
wraTLW7A,NA,NA,wraTLW7A,2020-0188,2021-09-28,13:05:44,21:02:14,NA,incomplete,false,NA,true,6,5,NA,NA,right,NA,NA,i_c_019.jpg,i_s_003.jpg,within,NA,NaN,NA,right,1384,1,0,918
wraTLW7A,NA,NA,wraTLW7A,2020-0188,2021-09-28,13:05:44,21:02:14,NA,incomplete,false,NA,true,6,6,NA,NA,right,NA,NA,c_1_004.jpg,c_1_012.jpg,within,NA,NaN,NA,left,2434.9999999981374,0,1,2694
wraTLW7A,NA,NA,wraTLW7A,2020-0188,2021-09-28,13:05:44,21:02:14,NA,incomplete,false,NA,true,6,7,NA,NA,left,NA,NA,m_s_018.jpg,m_l_002.jpg,between-small,NA,NaN,NA,left,2641,1,1,1309
wraTLW7A,NA,NA,wraTLW7A,2020-0188,2021-09-28,13:05:44,21:02:14,NA,incomplete,false,NA,true,6,8,NA,NA,left,NA,NA,m_l_012.jpg,i_s_005.jpg,between-big,NA,NaN,NA,left,934,1,2,1113
wraTLW7A,NA,NA,wraTLW7A,2020-0188,2021-09-28,13:05:44,21:02:14,NA,incomplete,false,NA,true,6,9,NA,NA,right,NA,NA,o_s_001.jpg,i_s_021.jpg,between-small,NA,NaN,NA,right,4167.999999998137,1,1,1725
wraTLW7A,NA,NA,wraTLW7A,2020-0188,2021-09-28,13:05:44,21:02:14,NA,incomplete,false,NA,true,6,10,NA,NA,right,NA,NA,c_2_013.jpg,c_1_004.jpg,between-small,NA,NaN,NA,right,3629,1,1,1921
wraTLW7A,NA,NA,wraTLW7A,2020-0188,2021-09-28,13:05:44,21:02:14,NA,incomplete,false,NA,true,6,11,NA,NA,right,NA,NA,a_1_001.jpg,c_2_017.jpg,between-small,NA,NaN,NA,left,1929,0,0,3037
wraTLW7A,NA,NA,wraTLW7A,2020-0188,2021-09-28,13:05:44,21:02:14,NA,incomplete,false,NA,true,6,12,NA,NA,left,NA,NA,m_s_025.jpg,m_l_012.jpg,between-small,NA,NaN,NA,left,5619,1,1,1554
wraTLW7A,NA,NA,wraTLW7A,2020-0188,2021-09-28,13:05:44,21:02:14,NA,incomplete,false,NA,true,6,13,NA,NA,left,NA,NA,c_2_013.jpg,a_2_022.jpg,within,NA,NaN,NA,left,1596,1,1,1058
wraTLW7A,NA,NA,wraTLW7A,2020-0188,2021-09-28,13:05:44,21:02:14,NA,incomplete,false,NA,true,6,14,NA,NA,right,NA,NA,i_s_015.jpg,o_s_001.jpg,within,NA,NaN,NA,right,3110.0000000018626,1,0,1829.9999999981374
wraTLW7A,NA,NA,wraTLW7A,2020-0188,2021-09-28,13:05:44,21:02:14,NA,incomplete,false,NA,true,6,15,NA,NA,left,NA,NA,m_l_002.jpg,n_s_018.jpg,within,NA,NaN,NA,left,1898.9999999981374,1,0,1507
wraTLW7A,NA,NA,wraTLW7A,2020-0188,2021-09-28,13:05:44,21:02:14,NA,incomplete,false,NA,true,6,16,NA,NA,right,NA,NA,a_1_014.jpg,a_2_005.jpg,within,NA,NaN,NA,left,4291,0,0,946
wraTLW7A,NA,NA,wraTLW7A,2020-0188,2021-09-28,13:05:44,21:02:14,NA,incomplete,false,NA,true,6,17,NA,NA,left,NA,NA,i_s_028.jpg,i_s_003.jpg,between-small,NA,NaN,NA,left,1115.0000000018626,1,1,1106
wraTLW7A,NA,NA,wraTLW7A,2020-0188,2021-09-28,13:05:44,21:02:14,NA,incomplete,false,NA,true,6,18,NA,NA,left,NA,NA,m_l_016.jpg,n_s_017.jpg,between-small,NA,NaN,NA,right,2255.9999999981374,0,0,1043
wraTLW7A,NA,NA,wraTLW7A,2020-0188,2021-09-28,13:05:44,21:02:14,NA,incomplete,false,NA,true,6,19,NA,NA,right,NA,NA,i_s_028.jpg,n_s_027.jpg,between-big,NA,NaN,NA,right,1710,1,3,804
wraTLW7A,NA,NA,wraTLW7A,2020-0188,2021-09-28,13:05:44,21:02:14,NA,incomplete,false,NA,true,6,20,NA,NA,left,NA,NA,n_s_017.jpg,n_s_027.jpg,within,NA,NaN,NA,left,1834,1,1,1391
wraTLW7A,NA,NA,wraTLW7A,2020-0188,2021-09-28,13:05:44,21:02:14,NA,incomplete,false,NA,true,6,21,NA,NA,left,NA,NA,i_c_028.jpg,i_s_006.jpg,between-small,NA,NaN,NA,left,1678,1,1,1285.0000000018626
wraTLW7A,NA,NA,wraTLW7A,2020-0188,2021-09-28,13:05:44,21:02:14,NA,incomplete,false,NA,true,6,22,NA,NA,left,NA,NA,a_1_016.jpg,a_2_005.jpg,between-small,NA,NaN,NA,left,2231,1,1,2696
wraTLW7A,NA,NA,wraTLW7A,2020-0188,2021-09-28,13:05:44,21:02:14,NA,incomplete,false,NA,true,6,23,NA,NA,right,NA,NA,m_s_002.jpg,a_1_001.jpg,between-big,NA,NaN,NA,right,1114,1,3,836
wraTLW7A,NA,NA,wraTLW7A,2020-0188,2021-09-28,13:05:44,21:02:14,NA,incomplete,false,NA,true,6,24,NA,NA,left,NA,NA,a_2_022.jpg,m_s_018.jpg,between-big,NA,NaN,NA,left,976,1,2,1311.9999999981374
wraTLW7A,NA,NA,wraTLW7A,2020-0188,2021-09-28,13:05:44,21:02:14,NA,incomplete,false,NA,true,6,25,NA,NA,right,NA,NA,m_s_025.jpg,n_l_027.jpg,within,NA,NaN,NA,right,4584.000000001863,1,0,1898
wraTLW7A,NA,NA,wraTLW7A,2020-0188,2021-09-28,13:05:44,21:02:14,NA,incomplete,false,NA,true,6,26,NA,NA,left,NA,NA,a_1_014.jpg,n_l_027.jpg,between-big,NA,NaN,NA,left,2435,1,3,993
wraTLW7A,NA,NA,wraTLW7A,2020-0188,2021-09-28,13:05:44,21:02:14,NA,incomplete,false,true,NA,7,0,abstractness,c_2_001.jpg,left,concrete,abstract,NA,NA,NA,left,2832,true,NA,NA,NA,NA,NA
wraTLW7A,NA,NA,wraTLW7A,2020-0188,2021-09-28,13:05:44,21:02:14,NA,incomplete,false,true,NA,7,1,abstractness,c_2_002.jpg,left,concrete,abstract,NA,NA,NA,left,1701,true,NA,NA,NA,NA,NA
wraTLW7A,NA,NA,wraTLW7A,2020-0188,2021-09-28,13:05:44,21:02:14,NA,incomplete,false,true,NA,7,2,abstractness,c_1_006.jpg,left,concrete,abstract,NA,NA,NA,left,1577,true,NA,NA,NA,NA,NA
wraTLW7A,NA,NA,wraTLW7A,2020-0188,2021-09-28,13:05:44,21:02:14,NA,incomplete,false,true,NA,7,3,abstractness,c_2_008.jpg,right,abstract,concrete,NA,NA,NA,right,1767,true,NA,NA,NA,NA,NA
wraTLW7A,NA,NA,wraTLW7A,2020-0188,2021-09-28,13:05:44,21:02:14,NA,incomplete,false,true,NA,7,4,abstractness,c_2_003.jpg,left,concrete,abstract,NA,NA,NA,left,1877,true,NA,NA,NA,NA,NA
wraTLW7A,NA,NA,wraTLW7A,2020-0188,2021-09-28,13:05:44,21:02:14,NA,incomplete,false,true,NA,7,5,syllable,a_2_017.jpg,right,2 syllables,1 syllable,NA,NA,NA,left,2134,false,NA,NA,NA,NA,NA
wraTLW7A,NA,NA,wraTLW7A,2020-0188,2021-09-28,13:05:44,21:02:14,NA,incomplete,false,true,NA,7,6,syllable,c_2_006.jpg,right,2 syllables,1 syllable,NA,NA,NA,left,2089,false,NA,NA,NA,NA,NA
wraTLW7A,NA,NA,wraTLW7A,2020-0188,2021-09-28,13:05:44,21:02:14,NA,incomplete,false,true,NA,7,7,syllable,c_1_013.jpg,right,1 syllable,2 syllables,NA,NA,NA,right,1825,true,NA,NA,NA,NA,NA
wraTLW7A,NA,NA,wraTLW7A,2020-0188,2021-09-28,13:05:44,21:02:14,NA,incomplete,false,true,NA,7,8,syllable,c_2_015.jpg,right,1 syllable,2 syllables,NA,NA,NA,left,1679,false,NA,NA,NA,NA,NA
wraTLW7A,NA,NA,wraTLW7A,2020-0188,2021-09-28,13:05:44,21:02:14,NA,incomplete,false,true,NA,7,9,syllable,a_1_012.jpg,right,2 syllables,1 syllable,NA,NA,NA,right,1860,true,NA,NA,NA,NA,NA
wraTLW7A,NA,NA,wraTLW7A,2020-0188,2021-09-28,13:05:44,21:02:14,NA,incomplete,false,true,NA,7,10,origin,m_s_017.jpg,right,natural,manmade,NA,NA,NA,right,1911,true,NA,NA,NA,NA,NA
wraTLW7A,NA,NA,wraTLW7A,2020-0188,2021-09-28,13:05:44,21:02:14,NA,incomplete,false,true,NA,7,11,origin,n_l_022.jpg,right,manmade,natural,NA,NA,NA,left,1825.99999999814,false,NA,NA,NA,NA,NA
wraTLW7A,NA,NA,wraTLW7A,2020-0188,2021-09-28,13:05:44,21:02:14,NA,incomplete,false,true,NA,7,12,origin,n_s_025.jpg,right,manmade,natural,NA,NA,NA,right,1254,true,NA,NA,NA,NA,NA
wraTLW7A,NA,NA,wraTLW7A,2020-0188,2021-09-28,13:05:44,21:02:14,NA,incomplete,false,true,NA,7,13,origin,n_s_002.jpg,right,manmade,natural,NA,NA,NA,right,1836,true,NA,NA,NA,NA,NA
wraTLW7A,NA,NA,wraTLW7A,2020-0188,2021-09-28,13:05:44,21:02:14,NA,incomplete,false,true,NA,7,14,origin,n_l_026.jpg,right,manmade,natural,NA,NA,NA,left,2689,false,NA,NA,NA,NA,NA
wraTLW7A,NA,NA,wraTLW7A,2020-0188,2021-09-28,13:05:44,21:02:14,NA,incomplete,false,true,NA,7,15,size,m_l_006.jpg,left,large,small,NA,NA,NA,left,2326,true,NA,NA,NA,NA,NA
wraTLW7A,NA,NA,wraTLW7A,2020-0188,2021-09-28,13:05:44,21:02:14,NA,incomplete,false,true,NA,7,16,size,m_s_010.jpg,left,small,large,NA,NA,NA,left,1641,true,NA,NA,NA,NA,NA
wraTLW7A,NA,NA,wraTLW7A,2020-0188,2021-09-28,13:05:44,21:02:14,NA,incomplete,false,true,NA,7,17,size,n_s_009.jpg,left,small,large,NA,NA,NA,left,1315,true,NA,NA,NA,NA,NA
wraTLW7A,NA,NA,wraTLW7A,2020-0188,2021-09-28,13:05:44,21:02:14,NA,incomplete,false,true,NA,7,18,size,n_s_016.jpg,left,small,large,NA,NA,NA,left,1140,true,NA,NA,NA,NA,NA
wraTLW7A,NA,NA,wraTLW7A,2020-0188,2021-09-28,13:05:44,21:02:14,NA,incomplete,false,true,NA,7,19,size,n_s_011.jpg,left,small,large,NA,NA,NA,left,1105.00000000186,true,NA,NA,NA,NA,NA
wraTLW7A,NA,NA,wraTLW7A,2020-0188,2021-09-28,13:05:44,21:02:14,NA,incomplete,false,true,NA,7,20,building,i_c_027.jpg,right,skyscraper,cottage,NA,NA,NA,right,1915,true,NA,NA,NA,NA,NA
wraTLW7A,NA,NA,wraTLW7A,2020-0188,2021-09-28,13:05:44,21:02:14,NA,incomplete,false,true,NA,7,21,building,o_c_006.jpg,left,cottage,skyscraper,NA,NA,NA,left,2154,true,NA,NA,NA,NA,NA
wraTLW7A,NA,NA,wraTLW7A,2020-0188,2021-09-28,13:05:44,21:02:14,NA,incomplete,false,true,NA,7,22,building,i_c_012.jpg,left,cottage,skyscraper,NA,NA,NA,left,1246,true,NA,NA,NA,NA,NA
wraTLW7A,NA,NA,wraTLW7A,2020-0188,2021-09-28,13:05:44,21:02:14,NA,incomplete,false,true,NA,7,23,building,i_c_004.jpg,right,skyscraper,cottage,NA,NA,NA,right,1629,true,NA,NA,NA,NA,NA
wraTLW7A,NA,NA,wraTLW7A,2020-0188,2021-09-28,13:05:44,21:02:14,NA,incomplete,false,true,NA,7,24,building,i_s_008.jpg,left,skyscraper,cottage,NA,NA,NA,left,2901,true,NA,NA,NA,NA,NA
wraTLW7A,NA,NA,wraTLW7A,2020-0188,2021-09-28,13:05:44,21:02:14,NA,incomplete,false,true,NA,7,25,location,i_c_016.jpg,left,indoor,outdoor,NA,NA,NA,left,2423.99999999814,true,NA,NA,NA,NA,NA
wraTLW7A,NA,NA,wraTLW7A,2020-0188,2021-09-28,13:05:44,21:02:14,NA,incomplete,false,true,NA,7,26,location,o_s_009.jpg,left,outdoor,indoor,NA,NA,NA,left,1865,true,NA,NA,NA,NA,NA
wraTLW7A,NA,NA,wraTLW7A,2020-0188,2021-09-28,13:05:44,21:02:14,NA,incomplete,false,true,NA,7,27,location,o_c_023.jpg,left,outdoor,indoor,NA,NA,NA,left,2767,true,NA,NA,NA,NA,NA
wraTLW7A,NA,NA,wraTLW7A,2020-0188,2021-09-28,13:05:44,21:02:14,NA,incomplete,false,true,NA,7,28,location,o_s_018.jpg,left,outdoor,indoor,NA,NA,NA,left,1668,true,NA,NA,NA,NA,NA
wraTLW7A,NA,NA,wraTLW7A,2020-0188,2021-09-28,13:05:44,21:02:14,NA,incomplete,false,true,NA,7,29,location,i_c_026.jpg,left,indoor,outdoor,NA,NA,NA,left,1701,true,NA,NA,NA,NA,NA
wraTLW7A,NA,NA,wraTLW7A,2020-0188,2021-09-28,13:05:44,21:02:14,NA,incomplete,false,NA,true,7,0,NA,NA,right,NA,NA,i_c_016.jpg,i_c_012.jpg,between-small,NA,NaN,NA,right,2830,1,1,1098
wraTLW7A,NA,NA,wraTLW7A,2020-0188,2021-09-28,13:05:44,21:02:14,NA,incomplete,false,NA,true,7,1,NA,NA,left,NA,NA,n_l_022.jpg,n_l_026.jpg,within,NA,NaN,NA,right,2499,0,0,2215
wraTLW7A,NA,NA,wraTLW7A,2020-0188,2021-09-28,13:05:44,21:02:14,NA,incomplete,false,NA,true,7,2,NA,NA,right,NA,NA,n_s_009.jpg,n_l_026.jpg,between-small,NA,NaN,NA,right,1989,1,0,1600
wraTLW7A,NA,NA,wraTLW7A,2020-0188,2021-09-28,13:05:44,21:02:14,NA,incomplete,false,NA,true,7,3,NA,NA,left,NA,NA,i_c_016.jpg,o_s_018.jpg,within,NA,NaN,NA,left,1739,1,0,1587
wraTLW7A,NA,NA,wraTLW7A,2020-0188,2021-09-28,13:05:44,21:02:14,NA,incomplete,false,NA,true,7,4,NA,NA,left,NA,NA,c_2_006.jpg,a_1_012.jpg,within,NA,NaN,NA,left,6247,1,1,1512.9999999981374
wraTLW7A,NA,NA,wraTLW7A,2020-0188,2021-09-28,13:05:44,21:02:14,NA,incomplete,false,NA,true,7,5,NA,NA,left,NA,NA,n_s_025.jpg,m_l_006.jpg,between-small,NA,NaN,NA,left,5072,1,1,1342
wraTLW7A,NA,NA,wraTLW7A,2020-0188,2021-09-28,13:05:44,21:02:14,NA,incomplete,false,NA,true,7,6,NA,NA,right,NA,NA,c_2_006.jpg,c_2_008.jpg,between-small,NA,NaN,NA,right,2124,1,0,1676
wraTLW7A,NA,NA,wraTLW7A,2020-0188,2021-09-28,13:05:44,21:02:14,NA,incomplete,false,NA,true,7,7,NA,NA,left,NA,NA,n_s_011.jpg,i_c_012.jpg,between-big,NA,NaN,NA,right,1179,0,3,1681
wraTLW7A,NA,NA,wraTLW7A,2020-0188,2021-09-28,13:05:44,21:02:14,NA,incomplete,false,NA,true,7,8,NA,NA,right,NA,NA,i_c_026.jpg,o_s_009.jpg,within,NA,NaN,NA,right,1961.0000000018626,1,0,1929
wraTLW7A,NA,NA,wraTLW7A,2020-0188,2021-09-28,13:05:44,21:02:14,NA,incomplete,false,NA,true,7,9,NA,NA,left,NA,NA,o_c_006.jpg,i_s_008.jpg,within,NA,NaN,NA,left,1271,1,0,845
wraTLW7A,NA,NA,wraTLW7A,2020-0188,2021-09-28,13:05:44,21:02:14,NA,incomplete,false,NA,true,7,10,NA,NA,right,NA,NA,n_s_025.jpg,a_1_012.jpg,between-big,NA,NaN,NA,right,2131.0000000018626,1,3,1286
wraTLW7A,NA,NA,wraTLW7A,2020-0188,2021-09-28,13:05:44,21:02:14,NA,incomplete,false,NA,true,7,11,NA,NA,left,NA,NA,m_s_017.jpg,n_s_002.jpg,within,NA,NaN,NA,left,1383,1,0,1638
wraTLW7A,NA,NA,wraTLW7A,2020-0188,2021-09-28,13:05:44,21:02:14,NA,incomplete,false,NA,true,7,12,NA,NA,right,NA,NA,n_l_022.jpg,c_2_015.jpg,between-big,NA,NaN,NA,right,1082,1,2,2492
wraTLW7A,NA,NA,wraTLW7A,2020-0188,2021-09-28,13:05:44,21:02:14,NA,incomplete,false,NA,true,7,13,NA,NA,left,NA,NA,c_2_003.jpg,c_1_013.jpg,between-small,NA,NaN,NA,left,3754,1,0,994
wraTLW7A,NA,NA,wraTLW7A,2020-0188,2021-09-28,13:05:44,21:02:14,NA,incomplete,false,NA,true,7,14,NA,NA,left,NA,NA,i_c_004.jpg,o_s_009.jpg,between-small,NA,NaN,NA,left,3737,1,1,1082
wraTLW7A,NA,NA,wraTLW7A,2020-0188,2021-09-28,13:05:44,21:02:14,NA,incomplete,false,NA,true,7,15,NA,NA,right,NA,NA,m_s_010.jpg,n_s_002.jpg,between-small,NA,NaN,NA,left,1311,0,1,1833
wraTLW7A,NA,NA,wraTLW7A,2020-0188,2021-09-28,13:05:44,21:02:14,NA,incomplete,false,NA,true,7,16,NA,NA,left,NA,NA,n_s_009.jpg,i_c_027.jpg,between-big,NA,NaN,NA,left,1570,1,3,984
wraTLW7A,NA,NA,wraTLW7A,2020-0188,2021-09-28,13:05:44,21:02:14,NA,incomplete,false,NA,true,7,17,NA,NA,right,NA,NA,o_c_006.jpg,n_s_016.jpg,between-big,NA,NaN,NA,right,1342,1,3,1244.0000000018626
wraTLW7A,NA,NA,wraTLW7A,2020-0188,2021-09-28,13:05:44,21:02:14,NA,incomplete,false,NA,true,7,18,NA,NA,left,NA,NA,i_s_008.jpg,o_c_023.jpg,between-small,NA,NaN,NA,right,1383,0,1,1015
wraTLW7A,NA,NA,wraTLW7A,2020-0188,2021-09-28,13:05:44,21:02:14,NA,incomplete,false,NA,true,7,19,NA,NA,right,NA,NA,i_c_004.jpg,i_c_027.jpg,within,NA,NaN,NA,right,3616,1,1,1002.9999999981374
wraTLW7A,NA,NA,wraTLW7A,2020-0188,2021-09-28,13:05:44,21:02:14,NA,incomplete,false,NA,true,7,20,NA,NA,right,NA,NA,n_s_016.jpg,m_l_006.jpg,within,NA,NaN,NA,right,1515,1,0,1434
wraTLW7A,NA,NA,wraTLW7A,2020-0188,2021-09-28,13:05:44,21:02:14,NA,incomplete,false,NA,true,7,21,NA,NA,left,NA,NA,c_1_006.jpg,a_2_017.jpg,between-small,NA,NaN,NA,left,4118,1,0,1139
wraTLW7A,NA,NA,wraTLW7A,2020-0188,2021-09-28,13:05:44,21:02:14,NA,incomplete,false,NA,true,7,22,NA,NA,left,NA,NA,a_2_017.jpg,c_2_015.jpg,within,NA,NaN,NA,right,1034,0,1,1169
wraTLW7A,NA,NA,wraTLW7A,2020-0188,2021-09-28,13:05:44,21:02:14,NA,incomplete,false,NA,true,7,23,NA,NA,right,NA,NA,n_s_011.jpg,m_s_010.jpg,within,NA,NaN,NA,right,2173,1,1,1700.9999999981374
wraTLW7A,NA,NA,wraTLW7A,2020-0188,2021-09-28,13:05:44,21:02:14,NA,incomplete,false,NA,true,7,24,NA,NA,right,NA,NA,c_2_008.jpg,c_2_001.jpg,within,NA,NaN,NA,right,2710,1,0,1380
wraTLW7A,NA,NA,wraTLW7A,2020-0188,2021-09-28,13:05:44,21:02:14,NA,incomplete,false,NA,true,7,25,NA,NA,right,NA,NA,c_2_003.jpg,c_2_002.jpg,within,NA,NaN,NA,right,1365,1,0,1041
wraTLW7A,NA,NA,wraTLW7A,2020-0188,2021-09-28,13:05:44,21:02:14,NA,incomplete,false,NA,true,7,26,NA,NA,right,NA,NA,m_s_017.jpg,c_1_013.jpg,between-big,NA,NaN,NA,right,1069,1,2,1253
wraTLW7A,NA,NA,wraTLW7A,2020-0188,2021-09-28,13:05:44,21:02:14,NA,incomplete,false,true,NA,8,0,location,i_c_015.jpg,left,indoor,outdoor,NA,NA,NA,left,2006,true,NA,NA,NA,NA,NA
wraTLW7A,NA,NA,wraTLW7A,2020-0188,2021-09-28,13:05:44,21:02:14,NA,incomplete,false,true,NA,8,1,location,i_s_027.jpg,right,outdoor,indoor,NA,NA,NA,right,3006,true,NA,NA,NA,NA,NA
wraTLW7A,NA,NA,wraTLW7A,2020-0188,2021-09-28,13:05:44,21:02:14,NA,incomplete,false,true,NA,8,2,location,o_c_014.jpg,right,indoor,outdoor,NA,NA,NA,right,1886,true,NA,NA,NA,NA,NA
wraTLW7A,NA,NA,wraTLW7A,2020-0188,2021-09-28,13:05:44,21:02:14,NA,incomplete,false,true,NA,8,3,location,i_c_021.jpg,left,indoor,outdoor,NA,NA,NA,left,1453,true,NA,NA,NA,NA,NA
wraTLW7A,NA,NA,wraTLW7A,2020-0188,2021-09-28,13:05:44,21:02:14,NA,incomplete,false,true,NA,8,4,location,o_s_026.jpg,left,outdoor,indoor,NA,NA,NA,left,1483,true,NA,NA,NA,NA,NA
wraTLW7A,NA,NA,wraTLW7A,2020-0188,2021-09-28,13:05:44,21:02:14,NA,incomplete,false,true,NA,8,5,building,o_s_010.jpg,left,skyscraper,cottage,NA,NA,NA,left,1582.00000000186,true,NA,NA,NA,NA,NA
wraTLW7A,NA,NA,wraTLW7A,2020-0188,2021-09-28,13:05:44,21:02:14,NA,incomplete,false,true,NA,8,6,building,o_c_011.jpg,left,cottage,skyscraper,NA,NA,NA,left,1403,true,NA,NA,NA,NA,NA
wraTLW7A,NA,NA,wraTLW7A,2020-0188,2021-09-28,13:05:44,21:02:14,NA,incomplete,false,true,NA,8,7,building,i_s_002.jpg,right,cottage,skyscraper,NA,NA,NA,right,2871,true,NA,NA,NA,NA,NA
wraTLW7A,NA,NA,wraTLW7A,2020-0188,2021-09-28,13:05:44,21:02:14,NA,incomplete,false,true,NA,8,8,building,o_c_027.jpg,left,cottage,skyscraper,NA,NA,NA,left,1601,true,NA,NA,NA,NA,NA
wraTLW7A,NA,NA,wraTLW7A,2020-0188,2021-09-28,13:05:44,21:02:14,NA,incomplete,false,true,NA,8,9,building,o_c_001.jpg,left,cottage,skyscraper,NA,NA,NA,left,1480,true,NA,NA,NA,NA,NA
wraTLW7A,NA,NA,wraTLW7A,2020-0188,2021-09-28,13:05:44,21:02:14,NA,incomplete,false,true,NA,8,10,syllable,c_1_022.jpg,right,2 syllables,1 syllable,NA,NA,NA,right,2217.99999999814,true,NA,NA,NA,NA,NA
wraTLW7A,NA,NA,wraTLW7A,2020-0188,2021-09-28,13:05:44,21:02:14,NA,incomplete,false,true,NA,8,11,syllable,a_1_011.jpg,right,2 syllables,1 syllable,NA,NA,NA,right,1952,true,NA,NA,NA,NA,NA
wraTLW7A,NA,NA,wraTLW7A,2020-0188,2021-09-28,13:05:44,21:02:14,NA,incomplete,false,true,NA,8,12,syllable,a_1_019.jpg,right,1 syllable,2 syllables,NA,NA,NA,left,1378,false,NA,NA,NA,NA,NA
wraTLW7A,NA,NA,wraTLW7A,2020-0188,2021-09-28,13:05:44,21:02:14,NA,incomplete,false,true,NA,8,13,syllable,c_1_017.jpg,right,1 syllable,2 syllables,NA,NA,NA,left,1104,false,NA,NA,NA,NA,NA
wraTLW7A,NA,NA,wraTLW7A,2020-0188,2021-09-28,13:05:44,21:02:14,NA,incomplete,false,true,NA,8,14,syllable,c_1_005.jpg,right,2 syllables,1 syllable,NA,NA,NA,right,1534,true,NA,NA,NA,NA,NA
wraTLW7A,NA,NA,wraTLW7A,2020-0188,2021-09-28,13:05:44,21:02:14,NA,incomplete,false,true,NA,8,15,abstractness,c_1_002.jpg,left,concrete,abstract,NA,NA,NA,left,2984,true,NA,NA,NA,NA,NA
wraTLW7A,NA,NA,wraTLW7A,2020-0188,2021-09-28,13:05:44,21:02:14,NA,incomplete,false,true,NA,8,16,abstractness,c_1_023.jpg,right,abstract,concrete,NA,NA,NA,right,2385,true,NA,NA,NA,NA,NA
wraTLW7A,NA,NA,wraTLW7A,2020-0188,2021-09-28,13:05:44,21:02:14,NA,incomplete,false,true,NA,8,17,abstractness,a_1_003.jpg,right,concrete,abstract,NA,NA,NA,right,1871,true,NA,NA,NA,NA,NA
wraTLW7A,NA,NA,wraTLW7A,2020-0188,2021-09-28,13:05:44,21:02:14,NA,incomplete,false,true,NA,8,18,abstractness,a_2_028.jpg,right,concrete,abstract,NA,NA,NA,right,1733,true,NA,NA,NA,NA,NA
wraTLW7A,NA,NA,wraTLW7A,2020-0188,2021-09-28,13:05:44,21:02:14,NA,incomplete,false,true,NA,8,19,abstractness,c_2_012.jpg,left,concrete,abstract,NA,NA,NA,left,2263,true,NA,NA,NA,NA,NA
wraTLW7A,NA,NA,wraTLW7A,2020-0188,2021-09-28,13:05:44,21:02:14,NA,incomplete,false,true,NA,8,20,origin,m_l_028.jpg,right,natural,manmade,NA,NA,NA,right,1889,true,NA,NA,NA,NA,NA
wraTLW7A,NA,NA,wraTLW7A,2020-0188,2021-09-28,13:05:44,21:02:14,NA,incomplete,false,true,NA,8,21,origin,m_s_006.jpg,right,natural,manmade,NA,NA,NA,right,2348,true,NA,NA,NA,NA,NA
wraTLW7A,NA,NA,wraTLW7A,2020-0188,2021-09-28,13:05:44,21:02:14,NA,incomplete,false,true,NA,8,22,origin,m_s_015.jpg,right,natural,manmade,NA,NA,NA,right,1584,true,NA,NA,NA,NA,NA
wraTLW7A,NA,NA,wraTLW7A,2020-0188,2021-09-28,13:05:44,21:02:14,NA,incomplete,false,true,NA,8,23,origin,n_l_020.jpg,left,natural,manmade,NA,NA,NA,left,1324,true,NA,NA,NA,NA,NA
wraTLW7A,NA,NA,wraTLW7A,2020-0188,2021-09-28,13:05:44,21:02:14,NA,incomplete,false,true,NA,8,24,origin,n_l_008.jpg,left,natural,manmade,NA,NA,NA,left,1615.00000000186,true,NA,NA,NA,NA,NA
wraTLW7A,NA,NA,wraTLW7A,2020-0188,2021-09-28,13:05:44,21:02:14,NA,incomplete,false,true,NA,8,25,size,m_l_025.jpg,right,small,large,NA,NA,NA,right,1577,true,NA,NA,NA,NA,NA
wraTLW7A,NA,NA,wraTLW7A,2020-0188,2021-09-28,13:05:44,21:02:14,NA,incomplete,false,true,NA,8,26,size,m_l_011.jpg,left,large,small,NA,NA,NA,left,1234,true,NA,NA,NA,NA,NA
wraTLW7A,NA,NA,wraTLW7A,2020-0188,2021-09-28,13:05:44,21:02:14,NA,incomplete,false,true,NA,8,27,size,n_s_028.jpg,right,large,small,NA,NA,NA,right,1397,true,NA,NA,NA,NA,NA
wraTLW7A,NA,NA,wraTLW7A,2020-0188,2021-09-28,13:05:44,21:02:14,NA,incomplete,false,true,NA,8,28,size,n_l_025.jpg,left,large,small,NA,NA,NA,left,2243,true,NA,NA,NA,NA,NA
wraTLW7A,NA,NA,wraTLW7A,2020-0188,2021-09-28,13:05:44,21:02:14,NA,incomplete,false,true,NA,8,29,size,m_l_008.jpg,right,small,large,NA,NA,NA,right,1381,true,NA,NA,NA,NA,NA
wraTLW7A,NA,NA,wraTLW7A,2020-0188,2021-09-28,13:05:44,21:02:14,NA,incomplete,false,NA,true,8,0,NA,NA,left,NA,NA,n_l_020.jpg,m_l_011.jpg,between-small,NA,NaN,NA,left,4219,1,1,924.9999999981374
wraTLW7A,NA,NA,wraTLW7A,2020-0188,2021-09-28,13:05:44,21:02:14,NA,incomplete,false,NA,true,8,1,NA,NA,right,NA,NA,c_1_022.jpg,i_s_002.jpg,between-big,NA,NaN,NA,right,1546,1,3,1122
wraTLW7A,NA,NA,wraTLW7A,2020-0188,2021-09-28,13:05:44,21:02:14,NA,incomplete,false,NA,true,8,2,NA,NA,right,NA,NA,c_1_002.jpg,a_1_019.jpg,between-small,NA,NaN,NA,left,2573,0,0,862
wraTLW7A,NA,NA,wraTLW7A,2020-0188,2021-09-28,13:05:44,21:02:14,NA,incomplete,false,NA,true,8,3,NA,NA,right,NA,NA,n_l_025.jpg,m_l_025.jpg,within,NA,NaN,NA,left,1709,0,1,1180.0000000018626
wraTLW7A,NA,NA,wraTLW7A,2020-0188,2021-09-28,13:05:44,21:02:14,NA,incomplete,false,NA,true,8,4,NA,NA,left,NA,NA,m_l_011.jpg,m_l_008.jpg,within,NA,NaN,NA,left,1226,1,0,1229
wraTLW7A,NA,NA,wraTLW7A,2020-0188,2021-09-28,13:05:44,21:02:14,NA,incomplete,false,NA,true,8,5,NA,NA,right,NA,NA,c_1_005.jpg,a_1_011.jpg,within,NA,NaN,NA,right,3088,1,0,944
wraTLW7A,NA,NA,wraTLW7A,2020-0188,2021-09-28,13:05:44,21:02:14,NA,incomplete,false,NA,true,8,6,NA,NA,right,NA,NA,m_s_015.jpg,c_2_012.jpg,between-big,NA,NaN,NA,right,1139.0000000018626,1,3,1340
wraTLW7A,NA,NA,wraTLW7A,2020-0188,2021-09-28,13:05:44,21:02:14,NA,incomplete,false,NA,true,8,7,NA,NA,right,NA,NA,m_l_028.jpg,a_1_003.jpg,between-big,NA,NaN,NA,right,1187,1,3,1236
wraTLW7A,NA,NA,wraTLW7A,2020-0188,2021-09-28,13:05:44,21:02:14,NA,incomplete,false,NA,true,8,8,NA,NA,left,NA,NA,o_c_027.jpg,a_1_011.jpg,between-big,NA,NaN,NA,left,1898.9999999981374,1,3,1144.0000000018626
wraTLW7A,NA,NA,wraTLW7A,2020-0188,2021-09-28,13:05:44,21:02:14,NA,incomplete,false,NA,true,8,9,NA,NA,right,NA,NA,i_c_021.jpg,i_c_015.jpg,within,NA,NaN,NA,right,4446,1,1,1993
wraTLW7A,NA,NA,wraTLW7A,2020-0188,2021-09-28,13:05:44,21:02:14,NA,incomplete,false,NA,true,8,10,NA,NA,left,NA,NA,c_1_023.jpg,c_2_012.jpg,within,NA,NaN,NA,left,1211,1,1,1114
wraTLW7A,NA,NA,wraTLW7A,2020-0188,2021-09-28,13:05:44,21:02:14,NA,incomplete,false,NA,true,8,11,NA,NA,right,NA,NA,a_1_003.jpg,c_1_005.jpg,between-small,NA,NaN,NA,right,1743,1,1,1587
wraTLW7A,NA,NA,wraTLW7A,2020-0188,2021-09-28,13:05:44,21:02:14,NA,incomplete,false,NA,true,8,12,NA,NA,right,NA,NA,c_1_017.jpg,c_1_022.jpg,within,NA,NaN,NA,right,2278,1,0,1285
wraTLW7A,NA,NA,wraTLW7A,2020-0188,2021-09-28,13:05:44,21:02:14,NA,incomplete,false,NA,true,8,13,NA,NA,left,NA,NA,o_s_026.jpg,i_s_002.jpg,between-small,NA,NaN,NA,left,4714,1,0,1099.0000000018626
wraTLW7A,NA,NA,wraTLW7A,2020-0188,2021-09-28,13:05:44,21:02:14,NA,incomplete,false,NA,true,8,14,NA,NA,left,NA,NA,o_c_014.jpg,o_s_010.jpg,between-small,NA,NaN,NA,left,1668,1,1,1293
wraTLW7A,NA,NA,wraTLW7A,2020-0188,2021-09-28,13:05:44,21:02:14,NA,incomplete,false,NA,true,8,15,NA,NA,right,NA,NA,o_c_001.jpg,o_c_011.jpg,within,NA,NaN,NA,right,5685,1,1,1669
wraTLW7A,NA,NA,wraTLW7A,2020-0188,2021-09-28,13:05:44,21:02:14,NA,incomplete,false,NA,true,8,16,NA,NA,left,NA,NA,n_l_008.jpg,n_s_028.jpg,between-small,NA,NaN,NA,left,4682,1,1,1587
wraTLW7A,NA,NA,wraTLW7A,2020-0188,2021-09-28,13:05:44,21:02:14,NA,incomplete,false,NA,true,8,17,NA,NA,right,NA,NA,n_l_008.jpg,m_s_006.jpg,within,NA,NaN,NA,right,862,1,0,1157
wraTLW7A,NA,NA,wraTLW7A,2020-0188,2021-09-28,13:05:44,21:02:14,NA,incomplete,false,NA,true,8,18,NA,NA,left,NA,NA,o_s_010.jpg,o_c_027.jpg,within,NA,NaN,NA,left,1291,1,0,994
wraTLW7A,NA,NA,wraTLW7A,2020-0188,2021-09-28,13:05:44,21:02:14,NA,incomplete,false,NA,true,8,19,NA,NA,right,NA,NA,n_l_020.jpg,m_l_028.jpg,within,NA,NaN,NA,right,3184,1,1,1878
wraTLW7A,NA,NA,wraTLW7A,2020-0188,2021-09-28,13:05:44,21:02:14,NA,incomplete,false,NA,true,8,20,NA,NA,left,NA,NA,i_c_021.jpg,o_c_011.jpg,between-small,NA,NaN,NA,left,1400.0000000018626,1,0,1416
wraTLW7A,NA,NA,wraTLW7A,2020-0188,2021-09-28,13:05:44,21:02:14,NA,incomplete,false,NA,true,8,21,NA,NA,right,NA,NA,m_s_006.jpg,a_2_028.jpg,between-big,NA,NaN,NA,right,1033,1,3,854
wraTLW7A,NA,NA,wraTLW7A,2020-0188,2021-09-28,13:05:44,21:02:14,NA,incomplete,false,NA,true,8,22,NA,NA,left,NA,NA,o_c_001.jpg,a_1_019.jpg,between-big,NA,NaN,NA,left,1359,1,3,1283
wraTLW7A,NA,NA,wraTLW7A,2020-0188,2021-09-28,13:05:44,21:02:14,NA,incomplete,false,NA,true,8,23,NA,NA,left,NA,NA,m_s_015.jpg,m_l_025.jpg,between-small,NA,NaN,NA,left,1497,1,1,1391
wraTLW7A,NA,NA,wraTLW7A,2020-0188,2021-09-28,13:05:44,21:02:14,NA,incomplete,false,NA,true,8,24,NA,NA,right,NA,NA,c_1_023.jpg,c_1_017.jpg,between-small,NA,NaN,NA,left,1308.9999999981374,0,0,952
wraTLW7A,NA,NA,wraTLW7A,2020-0188,2021-09-28,13:05:44,21:02:14,NA,incomplete,false,NA,true,8,25,NA,NA,right,NA,NA,a_2_028.jpg,c_1_002.jpg,within,NA,NaN,NA,right,1294,1,1,804
wraTLW7A,NA,NA,wraTLW7A,2020-0188,2021-09-28,13:05:44,21:02:14,NA,incomplete,false,NA,true,8,26,NA,NA,right,NA,NA,o_s_026.jpg,i_s_027.jpg,within,NA,NaN,NA,right,3265,1,0,965
wraTLW7A,NA,NA,wraTLW7A,2020-0188,2021-09-28,13:05:44,21:02:14,NA,incomplete,false,true,NA,9,0,origin,m_s_013.jpg,left,manmade,natural,NA,NA,NA,left,1845,true,NA,NA,NA,NA,NA
wraTLW7A,NA,NA,wraTLW7A,2020-0188,2021-09-28,13:05:44,21:02:14,NA,incomplete,false,true,NA,9,1,origin,n_s_019.jpg,left,natural,manmade,NA,NA,NA,left,1430,true,NA,NA,NA,NA,NA
wraTLW7A,NA,NA,wraTLW7A,2020-0188,2021-09-28,13:05:44,21:02:14,NA,incomplete,false,true,NA,9,2,origin,m_l_024.jpg,right,natural,manmade,NA,NA,NA,right,1505,true,NA,NA,NA,NA,NA
wraTLW7A,NA,NA,wraTLW7A,2020-0188,2021-09-28,13:05:44,21:02:14,NA,incomplete,false,true,NA,9,3,origin,m_s_011.jpg,left,manmade,natural,NA,NA,NA,left,1201,true,NA,NA,NA,NA,NA
wraTLW7A,NA,NA,wraTLW7A,2020-0188,2021-09-28,13:05:44,21:02:14,NA,incomplete,false,true,NA,9,4,origin,n_s_010.jpg,right,manmade,natural,NA,NA,NA,right,1513,true,NA,NA,NA,NA,NA
wraTLW7A,NA,NA,wraTLW7A,2020-0188,2021-09-28,13:05:44,21:02:14,NA,incomplete,false,true,NA,9,5,size,n_s_020.jpg,right,large,small,NA,NA,NA,right,1557,true,NA,NA,NA,NA,NA
wraTLW7A,NA,NA,wraTLW7A,2020-0188,2021-09-28,13:05:44,21:02:14,NA,incomplete,false,true,NA,9,6,size,n_l_015.jpg,right,small,large,NA,NA,NA,right,1604,true,NA,NA,NA,NA,NA
wraTLW7A,NA,NA,wraTLW7A,2020-0188,2021-09-28,13:05:44,21:02:14,NA,incomplete,false,true,NA,9,7,size,m_s_012.jpg,left,small,large,NA,NA,NA,left,1709,true,NA,NA,NA,NA,NA
wraTLW7A,NA,NA,wraTLW7A,2020-0188,2021-09-28,13:05:44,21:02:14,NA,incomplete,false,true,NA,9,8,size,n_l_016.jpg,left,large,small,NA,NA,NA,left,1204,true,NA,NA,NA,NA,NA
wraTLW7A,NA,NA,wraTLW7A,2020-0188,2021-09-28,13:05:44,21:02:14,NA,incomplete,false,true,NA,9,9,size,n_l_010.jpg,left,large,small,NA,NA,NA,left,1401,true,NA,NA,NA,NA,NA
wraTLW7A,NA,NA,wraTLW7A,2020-0188,2021-09-28,13:05:44,21:02:14,NA,incomplete,false,true,NA,9,10,location,i_s_020.jpg,left,indoor,outdoor,NA,NA,NA,left,2644,true,NA,NA,NA,NA,NA
wraTLW7A,NA,NA,wraTLW7A,2020-0188,2021-09-28,13:05:44,21:02:14,NA,incomplete,false,true,NA,9,11,location,i_c_006.jpg,right,outdoor,indoor,NA,NA,NA,right,1360,true,NA,NA,NA,NA,NA
wraTLW7A,NA,NA,wraTLW7A,2020-0188,2021-09-28,13:05:44,21:02:14,NA,incomplete,false,true,NA,9,12,location,o_c_026.jpg,left,outdoor,indoor,NA,NA,NA,left,1554,true,NA,NA,NA,NA,NA
wraTLW7A,NA,NA,wraTLW7A,2020-0188,2021-09-28,13:05:44,21:02:14,NA,incomplete,false,true,NA,9,13,location,o_s_016.jpg,left,outdoor,indoor,NA,NA,NA,left,1949,true,NA,NA,NA,NA,NA
wraTLW7A,NA,NA,wraTLW7A,2020-0188,2021-09-28,13:05:44,21:02:14,NA,incomplete,false,true,NA,9,14,location,i_s_023.jpg,right,outdoor,indoor,NA,NA,NA,right,1583,true,NA,NA,NA,NA,NA
wraTLW7A,NA,NA,wraTLW7A,2020-0188,2021-09-28,13:05:44,21:02:14,NA,incomplete,false,true,NA,9,15,building,i_c_009.jpg,right,skyscraper,cottage,NA,NA,NA,right,1438.99999999814,true,NA,NA,NA,NA,NA
wraTLW7A,NA,NA,wraTLW7A,2020-0188,2021-09-28,13:05:44,21:02:14,NA,incomplete,false,true,NA,9,16,building,o_c_024.jpg,left,cottage,skyscraper,NA,NA,NA,left,1365,true,NA,NA,NA,NA,NA
wraTLW7A,NA,NA,wraTLW7A,2020-0188,2021-09-28,13:05:44,21:02:14,NA,incomplete,false,true,NA,9,17,building,o_s_024.jpg,right,cottage,skyscraper,NA,NA,NA,right,1476,true,NA,NA,NA,NA,NA
wraTLW7A,NA,NA,wraTLW7A,2020-0188,2021-09-28,13:05:44,21:02:14,NA,incomplete,false,true,NA,9,18,building,o_s_020.jpg,left,skyscraper,cottage,NA,NA,NA,left,1412,true,NA,NA,NA,NA,NA
wraTLW7A,NA,NA,wraTLW7A,2020-0188,2021-09-28,13:05:44,21:02:14,NA,incomplete,false,true,NA,9,19,building,i_s_011.jpg,left,skyscraper,cottage,NA,NA,NA,left,2250.99999999814,true,NA,NA,NA,NA,NA
wraTLW7A,NA,NA,wraTLW7A,2020-0188,2021-09-28,13:05:44,21:02:14,NA,incomplete,false,true,NA,9,20,abstractness,a_2_012.jpg,left,abstract,concrete,NA,NA,NA,left,2624,true,NA,NA,NA,NA,NA
wraTLW7A,NA,NA,wraTLW7A,2020-0188,2021-09-28,13:05:44,21:02:14,NA,incomplete,false,true,NA,9,21,abstractness,c_2_027.jpg,right,abstract,concrete,NA,NA,NA,right,2156.99999999814,true,NA,NA,NA,NA,NA
wraTLW7A,NA,NA,wraTLW7A,2020-0188,2021-09-28,13:05:44,21:02:14,NA,incomplete,false,true,NA,9,22,abstractness,a_1_028.jpg,left,abstract,concrete,NA,NA,NA,left,2032,true,NA,NA,NA,NA,NA
wraTLW7A,NA,NA,wraTLW7A,2020-0188,2021-09-28,13:05:44,21:02:14,NA,incomplete,false,true,NA,9,23,abstractness,a_2_004.jpg,right,concrete,abstract,NA,NA,NA,right,1363,true,NA,NA,NA,NA,NA
wraTLW7A,NA,NA,wraTLW7A,2020-0188,2021-09-28,13:05:44,21:02:14,NA,incomplete,false,true,NA,9,24,abstractness,c_2_025.jpg,left,concrete,abstract,NA,NA,NA,left,1250,true,NA,NA,NA,NA,NA
wraTLW7A,NA,NA,wraTLW7A,2020-0188,2021-09-28,13:05:44,21:02:14,NA,incomplete,false,true,NA,9,25,syllable,c_2_018.jpg,right,2 syllables,1 syllable,NA,NA,NA,left,2194,false,NA,NA,NA,NA,NA
wraTLW7A,NA,NA,wraTLW7A,2020-0188,2021-09-28,13:05:44,21:02:14,NA,incomplete,false,true,NA,9,26,syllable,a_1_015.jpg,right,2 syllables,1 syllable,NA,NA,NA,right,1570,true,NA,NA,NA,NA,NA
wraTLW7A,NA,NA,wraTLW7A,2020-0188,2021-09-28,13:05:44,21:02:14,NA,incomplete,false,true,NA,9,27,syllable,a_2_023.jpg,right,1 syllable,2 syllables,NA,NA,NA,right,1304.99999999814,true,NA,NA,NA,NA,NA
wraTLW7A,NA,NA,wraTLW7A,2020-0188,2021-09-28,13:05:44,21:02:14,NA,incomplete,false,true,NA,9,28,syllable,a_1_010.jpg,right,2 syllables,1 syllable,NA,NA,NA,right,1108,true,NA,NA,NA,NA,NA
wraTLW7A,NA,NA,wraTLW7A,2020-0188,2021-09-28,13:05:44,21:02:14,NA,incomplete,false,true,NA,9,29,syllable,a_1_020.jpg,right,1 syllable,2 syllables,NA,NA,NA,left,961,false,NA,NA,NA,NA,NA
wraTLW7A,NA,NA,wraTLW7A,2020-0188,2021-09-28,13:05:44,21:02:14,NA,incomplete,false,NA,true,9,0,NA,NA,left,NA,NA,o_c_024.jpg,i_s_011.jpg,within,NA,NaN,NA,left,2691,1,1,1081
wraTLW7A,NA,NA,wraTLW7A,2020-0188,2021-09-28,13:05:44,21:02:14,NA,incomplete,false,NA,true,9,1,NA,NA,left,NA,NA,n_s_020.jpg,n_l_016.jpg,within,NA,NaN,NA,left,1807.0000000018626,1,0,1097
wraTLW7A,NA,NA,wraTLW7A,2020-0188,2021-09-28,13:05:44,21:02:14,NA,incomplete,false,NA,true,9,2,NA,NA,left,NA,NA,o_s_020.jpg,c_2_027.jpg,between-big,NA,NaN,NA,left,1782,1,3,828
