workerId,hitId,assignmentId,subject,studyid,exp_date,exp_start,exp_end,time_start,time_end,practice,encoding,memory,block,trial,event,stim,answer,label_left,label_right,left_image,right_image,condition,response,response_time,response_acc,order_response,order_response_time,order_acc,distance_response,distance_response_time
xWv5ZHT3,NA,NA,xWv5ZHT3,2020-0188,2021-09-26,11:25:27,13:06:37,NA,incomplete,true,true,NA,0,0,origin,n_s_008.jpg,right,manmade,natural,NA,NA,NA,right,2984.39999961853,true,NA,NA,NA,NA,NA
xWv5ZHT3,NA,NA,xWv5ZHT3,2020-0188,2021-09-26,11:25:27,13:06:37,NA,incomplete,true,true,NA,0,1,origin,m_s_004.jpg,right,natural,manmade,NA,NA,NA,right,2228.80000019073,true,NA,NA,NA,NA,NA
xWv5ZHT3,NA,NA,xWv5ZHT3,2020-0188,2021-09-26,11:25:27,13:06:37,NA,incomplete,true,true,NA,0,2,origin,m_s_001.jpg,right,natural,manmade,NA,NA,NA,right,2653.80000019073,true,NA,NA,NA,NA,NA
xWv5ZHT3,NA,NA,xWv5ZHT3,2020-0188,2021-09-26,11:25:27,13:06:37,NA,incomplete,true,true,NA,0,3,origin,m_s_012.jpg,right,natural,manmade,NA,NA,NA,right,1379,true,NA,NA,NA,NA,NA
xWv5ZHT3,NA,NA,xWv5ZHT3,2020-0188,2021-09-26,11:25:27,13:06:37,NA,incomplete,true,true,NA,0,4,origin,n_s_013.jpg,left,natural,manmade,NA,NA,NA,left,2184.80000019073,true,NA,NA,NA,NA,NA
xWv5ZHT3,NA,NA,xWv5ZHT3,2020-0188,2021-09-26,11:25:27,13:06:37,NA,incomplete,true,true,NA,0,5,size,m_s_015.jpg,right,large,small,NA,NA,NA,right,2693.69999980927,true,NA,NA,NA,NA,NA
xWv5ZHT3,NA,NA,xWv5ZHT3,2020-0188,2021-09-26,11:25:27,13:06:37,NA,incomplete,true,true,NA,0,6,size,n_l_022.jpg,right,small,large,NA,NA,NA,right,2605.89999961853,true,NA,NA,NA,NA,NA
xWv5ZHT3,NA,NA,xWv5ZHT3,2020-0188,2021-09-26,11:25:27,13:06:37,NA,incomplete,true,true,NA,0,7,size,m_l_002.jpg,left,large,small,NA,NA,NA,right,2042.60000038147,false,NA,NA,NA,NA,NA
xWv5ZHT3,NA,NA,xWv5ZHT3,2020-0188,2021-09-26,11:25:27,13:06:37,NA,incomplete,true,true,NA,0,8,size,n_s_019.jpg,right,large,small,NA,NA,NA,left,1503.0999994278,false,NA,NA,NA,NA,NA
xWv5ZHT3,NA,NA,xWv5ZHT3,2020-0188,2021-09-26,11:25:27,13:06:37,NA,incomplete,true,true,NA,0,9,size,n_s_016.jpg,right,large,small,NA,NA,NA,right,1965.69999980927,true,NA,NA,NA,NA,NA
xWv5ZHT3,NA,NA,xWv5ZHT3,2020-0188,2021-09-26,11:25:27,13:06:37,NA,incomplete,true,true,NA,0,10,abstractness,a_1_021.jpg,right,concrete,abstract,NA,NA,NA,right,2649.19999980927,true,NA,NA,NA,NA,NA
xWv5ZHT3,NA,NA,xWv5ZHT3,2020-0188,2021-09-26,11:25:27,13:06:37,NA,incomplete,true,true,NA,0,11,abstractness,c_2_024.jpg,left,concrete,abstract,NA,NA,NA,left,2616.69999980927,true,NA,NA,NA,NA,NA
xWv5ZHT3,NA,NA,xWv5ZHT3,2020-0188,2021-09-26,11:25:27,13:06:37,NA,incomplete,true,true,NA,0,12,abstractness,c_1_015.jpg,right,abstract,concrete,NA,NA,NA,right,2204.69999980927,true,NA,NA,NA,NA,NA
xWv5ZHT3,NA,NA,xWv5ZHT3,2020-0188,2021-09-26,11:25:27,13:06:37,NA,incomplete,true,true,NA,0,13,abstractness,c_1_019.jpg,left,concrete,abstract,NA,NA,NA,left,1562.70000076294,true,NA,NA,NA,NA,NA
xWv5ZHT3,NA,NA,xWv5ZHT3,2020-0188,2021-09-26,11:25:27,13:06:37,NA,incomplete,true,true,NA,0,14,abstractness,a_1_013.jpg,left,abstract,concrete,NA,NA,NA,left,2642.80000019073,true,NA,NA,NA,NA,NA
xWv5ZHT3,NA,NA,xWv5ZHT3,2020-0188,2021-09-26,11:25:27,13:06:37,NA,incomplete,true,true,NA,0,15,syllable,c_2_018.jpg,right,2 syllables,1 syllable,NA,NA,NA,right,1823.5999994278,true,NA,NA,NA,NA,NA
xWv5ZHT3,NA,NA,xWv5ZHT3,2020-0188,2021-09-26,11:25:27,13:06:37,NA,incomplete,true,true,NA,0,16,syllable,c_2_007.jpg,right,2 syllables,1 syllable,NA,NA,NA,left,2016.10000038147,false,NA,NA,NA,NA,NA
xWv5ZHT3,NA,NA,xWv5ZHT3,2020-0188,2021-09-26,11:25:27,13:06:37,NA,incomplete,true,true,NA,0,17,syllable,a_2_013.jpg,right,2 syllables,1 syllable,NA,NA,NA,left,3096.29999923706,false,NA,NA,NA,NA,NA
xWv5ZHT3,NA,NA,xWv5ZHT3,2020-0188,2021-09-26,11:25:27,13:06:37,NA,incomplete,true,true,NA,0,18,syllable,a_1_008.jpg,right,2 syllables,1 syllable,NA,NA,NA,right,1715.39999961853,true,NA,NA,NA,NA,NA
xWv5ZHT3,NA,NA,xWv5ZHT3,2020-0188,2021-09-26,11:25:27,13:06:37,NA,incomplete,true,true,NA,0,19,syllable,a_2_019.jpg,right,2 syllables,1 syllable,NA,NA,NA,right,1284.5,true,NA,NA,NA,NA,NA
xWv5ZHT3,NA,NA,xWv5ZHT3,2020-0188,2021-09-26,11:25:27,13:06:37,NA,incomplete,true,true,NA,0,20,building,i_s_003.jpg,right,cottage,skyscraper,NA,NA,NA,right,1776.5,true,NA,NA,NA,NA,NA
xWv5ZHT3,NA,NA,xWv5ZHT3,2020-0188,2021-09-26,11:25:27,13:06:37,NA,incomplete,true,true,NA,0,21,building,i_s_001.jpg,right,cottage,skyscraper,NA,NA,NA,right,1621.10000038147,true,NA,NA,NA,NA,NA
xWv5ZHT3,NA,NA,xWv5ZHT3,2020-0188,2021-09-26,11:25:27,13:06:37,NA,incomplete,true,true,NA,0,22,building,o_s_020.jpg,right,cottage,skyscraper,NA,NA,NA,right,1167.89999961853,true,NA,NA,NA,NA,NA
xWv5ZHT3,NA,NA,xWv5ZHT3,2020-0188,2021-09-26,11:25:27,13:06:37,NA,incomplete,true,true,NA,0,23,building,i_c_012.jpg,left,cottage,skyscraper,NA,NA,NA,left,2001.10000038147,true,NA,NA,NA,NA,NA
xWv5ZHT3,NA,NA,xWv5ZHT3,2020-0188,2021-09-26,11:25:27,13:06:37,NA,incomplete,true,true,NA,0,24,building,i_s_005.jpg,right,cottage,skyscraper,NA,NA,NA,right,1784,true,NA,NA,NA,NA,NA
xWv5ZHT3,NA,NA,xWv5ZHT3,2020-0188,2021-09-26,11:25:27,13:06:37,NA,incomplete,true,true,NA,0,25,location,i_c_020.jpg,right,outdoor,indoor,NA,NA,NA,right,1899.89999961853,true,NA,NA,NA,NA,NA
xWv5ZHT3,NA,NA,xWv5ZHT3,2020-0188,2021-09-26,11:25:27,13:06:37,NA,incomplete,true,true,NA,0,26,location,o_s_002.jpg,left,outdoor,indoor,NA,NA,NA,left,1798.69999980927,true,NA,NA,NA,NA,NA
xWv5ZHT3,NA,NA,xWv5ZHT3,2020-0188,2021-09-26,11:25:27,13:06:37,NA,incomplete,true,true,NA,0,27,location,i_c_001.jpg,right,outdoor,indoor,NA,NA,NA,right,1619.30000019073,true,NA,NA,NA,NA,NA
xWv5ZHT3,NA,NA,xWv5ZHT3,2020-0188,2021-09-26,11:25:27,13:06:37,NA,incomplete,true,true,NA,0,28,location,i_s_028.jpg,left,indoor,outdoor,NA,NA,NA,left,1795.89999961853,true,NA,NA,NA,NA,NA
xWv5ZHT3,NA,NA,xWv5ZHT3,2020-0188,2021-09-26,11:25:27,13:06:37,NA,incomplete,true,true,NA,0,29,location,o_c_010.jpg,left,outdoor,indoor,NA,NA,NA,left,2024.69999980927,true,NA,NA,NA,NA,NA
xWv5ZHT3,NA,NA,xWv5ZHT3,2020-0188,2021-09-26,11:25:27,13:06:37,NA,incomplete,true,NA,true,0,0,NA,NA,right,NA,NA,a_1_021.jpg,m_l_002.jpg,between-big,NA,NaN,NA,left,13926.800000190735,0,1,5310.900000572205
xWv5ZHT3,NA,NA,xWv5ZHT3,2020-0188,2021-09-26,11:25:27,13:06:37,NA,incomplete,true,NA,true,0,1,NA,NA,left,NA,NA,a_1_013.jpg,a_2_013.jpg,between-small,NA,NaN,NA,left,6906,1,1,1496.8000001907349
xWv5ZHT3,NA,NA,xWv5ZHT3,2020-0188,2021-09-26,11:25:27,13:06:37,NA,incomplete,true,NA,true,0,2,NA,NA,right,NA,NA,o_s_020.jpg,a_2_019.jpg,between-big,NA,NaN,NA,right,13321.5,1,2,1592.1000003814697
xWv5ZHT3,NA,NA,xWv5ZHT3,2020-0188,2021-09-26,11:25:27,13:06:37,NA,incomplete,true,NA,true,0,3,NA,NA,left,NA,NA,a_2_013.jpg,i_s_003.jpg,between-big,NA,NaN,NA,right,4313.199999809265,0,2,1034.5
xWv5ZHT3,NA,NA,xWv5ZHT3,2020-0188,2021-09-26,11:25:27,13:06:37,NA,incomplete,true,NA,true,0,4,NA,NA,right,NA,NA,i_s_001.jpg,a_1_008.jpg,between-big,NA,NaN,NA,right,6120.89999961853,1,2,1690.1999998092651
xWv5ZHT3,NA,NA,xWv5ZHT3,2020-0188,2021-09-26,11:25:27,13:06:37,NA,incomplete,true,NA,true,0,5,NA,NA,left,NA,NA,m_s_012.jpg,n_l_022.jpg,between-small,NA,NaN,NA,left,3821.699999809265,1,2,1348.5
xWv5ZHT3,NA,NA,xWv5ZHT3,2020-0188,2021-09-26,11:25:27,13:06:37,NA,incomplete,true,NA,true,0,6,NA,NA,right,NA,NA,i_c_012.jpg,i_s_003.jpg,within,NA,NaN,NA,right,4394.60000038147,1,1,1341.5
xWv5ZHT3,NA,NA,xWv5ZHT3,2020-0188,2021-09-26,11:25:27,13:06:37,NA,incomplete,true,NA,true,0,7,NA,NA,left,NA,NA,m_s_004.jpg,n_s_013.jpg,within,NA,NaN,NA,left,6108,1,0,1931.5
xWv5ZHT3,NA,NA,xWv5ZHT3,2020-0188,2021-09-26,11:25:27,13:06:37,NA,incomplete,true,NA,true,0,8,NA,NA,left,NA,NA,m_s_015.jpg,n_s_019.jpg,within,NA,NaN,NA,left,12230.39999961853,1,1,1262.7000007629395
xWv5ZHT3,NA,NA,xWv5ZHT3,2020-0188,2021-09-26,11:25:27,13:06:37,NA,incomplete,true,NA,true,0,9,NA,NA,right,NA,NA,c_2_007.jpg,c_1_019.jpg,between-small,NA,NaN,NA,right,5160.699999809265,1,1,4561
xWv5ZHT3,NA,NA,xWv5ZHT3,2020-0188,2021-09-26,11:25:27,13:06:37,NA,incomplete,true,NA,true,0,10,NA,NA,right,NA,NA,m_l_002.jpg,n_s_013.jpg,between-small,NA,NaN,NA,right,2357.5999994277954,1,2,1501.3999996185303
xWv5ZHT3,NA,NA,xWv5ZHT3,2020-0188,2021-09-26,11:25:27,13:06:37,NA,incomplete,true,NA,true,0,11,NA,NA,right,NA,NA,m_s_012.jpg,n_s_008.jpg,within,NA,NaN,NA,right,3402.2999992370605,1,1,1962.4000005722046
xWv5ZHT3,NA,NA,xWv5ZHT3,2020-0188,2021-09-26,11:25:27,13:06:37,NA,incomplete,true,NA,true,0,12,NA,NA,left,NA,NA,a_1_021.jpg,c_1_019.jpg,within,NA,NaN,NA,right,4080.5,0,2,1998.5999994277954
xWv5ZHT3,NA,NA,xWv5ZHT3,2020-0188,2021-09-26,11:25:27,13:06:37,NA,incomplete,true,NA,true,0,13,NA,NA,right,NA,NA,a_1_008.jpg,c_2_018.jpg,within,NA,NaN,NA,left,4225.800000190735,0,2,3194.699999809265
xWv5ZHT3,NA,NA,xWv5ZHT3,2020-0188,2021-09-26,11:25:27,13:06:37,NA,incomplete,true,NA,true,0,14,NA,NA,right,NA,NA,c_2_018.jpg,c_1_015.jpg,between-small,NA,NaN,NA,left,8592.199999809265,0,2,2129.8999996185303
xWv5ZHT3,NA,NA,xWv5ZHT3,2020-0188,2021-09-26,11:25:27,13:06:37,NA,incomplete,true,NA,true,0,15,NA,NA,left,NA,NA,i_c_012.jpg,o_s_002.jpg,between-small,NA,NaN,NA,right,3097.1000003814697,0,1,2108.7999992370605
xWv5ZHT3,NA,NA,xWv5ZHT3,2020-0188,2021-09-26,11:25:27,13:06:37,NA,incomplete,true,NA,true,0,16,NA,NA,left,NA,NA,c_2_007.jpg,a_2_019.jpg,within,NA,NaN,NA,right,4739.199999809265,0,2,2725.4000005722046
xWv5ZHT3,NA,NA,xWv5ZHT3,2020-0188,2021-09-26,11:25:27,13:06:37,NA,incomplete,true,NA,true,0,17,NA,NA,right,NA,NA,i_c_020.jpg,o_s_020.jpg,between-small,NA,NaN,NA,right,2351.800000190735,1,1,1603
xWv5ZHT3,NA,NA,xWv5ZHT3,2020-0188,2021-09-26,11:25:27,13:06:37,NA,incomplete,true,NA,true,0,18,NA,NA,right,NA,NA,o_c_010.jpg,o_s_002.jpg,within,NA,NaN,NA,left,3552.5,0,1,1325.6000003814697
xWv5ZHT3,NA,NA,xWv5ZHT3,2020-0188,2021-09-26,11:25:27,13:06:37,NA,incomplete,true,NA,true,0,19,NA,NA,left,NA,NA,i_c_020.jpg,i_s_028.jpg,within,NA,NaN,NA,left,4845.5,1,0,2368.199999809265
xWv5ZHT3,NA,NA,xWv5ZHT3,2020-0188,2021-09-26,11:25:27,13:06:37,NA,incomplete,true,NA,true,0,20,NA,NA,left,NA,NA,c_2_024.jpg,a_1_013.jpg,within,NA,NaN,NA,right,3318.6000003814697,0,2,1527.9000005722046
xWv5ZHT3,NA,NA,xWv5ZHT3,2020-0188,2021-09-26,11:25:27,13:06:37,NA,incomplete,true,NA,true,0,21,NA,NA,right,NA,NA,c_2_024.jpg,n_s_019.jpg,between-big,NA,NaN,NA,right,4156.199999809265,1,2,1837.8000001907349
xWv5ZHT3,NA,NA,xWv5ZHT3,2020-0188,2021-09-26,11:25:27,13:06:37,NA,incomplete,true,NA,true,0,22,NA,NA,left,NA,NA,i_s_005.jpg,i_c_001.jpg,between-small,NA,NaN,NA,right,7814.900000572205,0,1,5907.300000190735
xWv5ZHT3,NA,NA,xWv5ZHT3,2020-0188,2021-09-26,11:25:27,13:06:37,NA,incomplete,true,NA,true,0,23,NA,NA,right,NA,NA,c_1_015.jpg,n_s_016.jpg,between-big,NA,NaN,NA,right,2904.7000007629395,1,2,1092.1999998092651
xWv5ZHT3,NA,NA,xWv5ZHT3,2020-0188,2021-09-26,11:25:27,13:06:37,NA,incomplete,true,NA,true,0,24,NA,NA,left,NA,NA,i_s_001.jpg,i_s_005.jpg,within,NA,NaN,NA,right,7386.39999961853,0,1,2511.800000190735
xWv5ZHT3,NA,NA,xWv5ZHT3,2020-0188,2021-09-26,11:25:27,13:06:37,NA,incomplete,true,NA,true,0,25,NA,NA,left,NA,NA,m_s_001.jpg,m_s_015.jpg,between-small,NA,NaN,NA,right,2649,0,1,1442.3999996185303
xWv5ZHT3,NA,NA,xWv5ZHT3,2020-0188,2021-09-26,11:25:27,13:06:37,NA,incomplete,true,NA,true,0,26,NA,NA,left,NA,NA,n_l_022.jpg,n_s_016.jpg,within,NA,NaN,NA,left,3990.8999996185303,1,2,1611.5
xWv5ZHT3,NA,NA,xWv5ZHT3,2020-0188,2021-09-26,11:25:27,13:06:37,NA,incomplete,false,true,NA,1,0,syllable,c_1_023.jpg,right,1 syllable,2 syllables,NA,NA,NA,left,2197,false,NA,NA,NA,NA,NA
xWv5ZHT3,NA,NA,xWv5ZHT3,2020-0188,2021-09-26,11:25:27,13:06:37,NA,incomplete,false,true,NA,1,1,syllable,c_1_013.jpg,right,1 syllable,2 syllables,NA,NA,NA,left,1318.4000005722,false,NA,NA,NA,NA,NA
xWv5ZHT3,NA,NA,xWv5ZHT3,2020-0188,2021-09-26,11:25:27,13:06:37,NA,incomplete,false,true,NA,1,2,syllable,c_1_028.jpg,right,2 syllables,1 syllable,NA,NA,NA,right,1397.89999961853,true,NA,NA,NA,NA,NA
xWv5ZHT3,NA,NA,xWv5ZHT3,2020-0188,2021-09-26,11:25:27,13:06:37,NA,incomplete,false,true,NA,1,3,syllable,c_1_005.jpg,right,2 syllables,1 syllable,NA,NA,NA,right,1313.30000019073,true,NA,NA,NA,NA,NA
xWv5ZHT3,NA,NA,xWv5ZHT3,2020-0188,2021-09-26,11:25:27,13:06:37,NA,incomplete,false,true,NA,1,4,syllable,a_1_023.jpg,right,1 syllable,2 syllables,NA,NA,NA,left,1881.5999994278,false,NA,NA,NA,NA,NA
xWv5ZHT3,NA,NA,xWv5ZHT3,2020-0188,2021-09-26,11:25:27,13:06:37,NA,incomplete,false,true,NA,1,5,abstractness,c_2_009.jpg,left,concrete,abstract,NA,NA,NA,left,2757.0999994278,true,NA,NA,NA,NA,NA
xWv5ZHT3,NA,NA,xWv5ZHT3,2020-0188,2021-09-26,11:25:27,13:06:37,NA,incomplete,false,true,NA,1,6,abstractness,a_1_028.jpg,right,concrete,abstract,NA,NA,NA,right,2382.30000019073,true,NA,NA,NA,NA,NA
xWv5ZHT3,NA,NA,xWv5ZHT3,2020-0188,2021-09-26,11:25:27,13:06:37,NA,incomplete,false,true,NA,1,7,abstractness,c_2_010.jpg,left,concrete,abstract,NA,NA,NA,left,2251.30000019073,true,NA,NA,NA,NA,NA
xWv5ZHT3,NA,NA,xWv5ZHT3,2020-0188,2021-09-26,11:25:27,13:06:37,NA,incomplete,false,true,NA,1,8,abstractness,a_2_017.jpg,right,concrete,abstract,NA,NA,NA,left,2919.60000038147,false,NA,NA,NA,NA,NA
xWv5ZHT3,NA,NA,xWv5ZHT3,2020-0188,2021-09-26,11:25:27,13:06:37,NA,incomplete,false,true,NA,1,9,abstractness,c_1_002.jpg,left,concrete,abstract,NA,NA,NA,left,2321.30000019073,true,NA,NA,NA,NA,NA
xWv5ZHT3,NA,NA,xWv5ZHT3,2020-0188,2021-09-26,11:25:27,13:06:37,NA,incomplete,false,true,NA,1,10,location,o_s_017.jpg,right,indoor,outdoor,NA,NA,NA,right,1775.19999980927,true,NA,NA,NA,NA,NA
xWv5ZHT3,NA,NA,xWv5ZHT3,2020-0188,2021-09-26,11:25:27,13:06:37,NA,incomplete,false,true,NA,1,11,location,i_s_020.jpg,right,outdoor,indoor,NA,NA,NA,right,2137.70000076294,true,NA,NA,NA,NA,NA
xWv5ZHT3,NA,NA,xWv5ZHT3,2020-0188,2021-09-26,11:25:27,13:06:37,NA,incomplete,false,true,NA,1,12,location,i_c_017.jpg,right,outdoor,indoor,NA,NA,NA,right,1364.4000005722,true,NA,NA,NA,NA,NA
xWv5ZHT3,NA,NA,xWv5ZHT3,2020-0188,2021-09-26,11:25:27,13:06:37,NA,incomplete,false,true,NA,1,13,location,o_c_027.jpg,left,outdoor,indoor,NA,NA,NA,left,1869.79999923706,true,NA,NA,NA,NA,NA
xWv5ZHT3,NA,NA,xWv5ZHT3,2020-0188,2021-09-26,11:25:27,13:06:37,NA,incomplete,false,true,NA,1,14,location,o_c_023.jpg,left,outdoor,indoor,NA,NA,NA,left,2110.80000019073,true,NA,NA,NA,NA,NA
xWv5ZHT3,NA,NA,xWv5ZHT3,2020-0188,2021-09-26,11:25:27,13:06:37,NA,incomplete,false,true,NA,1,15,building,o_c_015.jpg,right,skyscraper,cottage,NA,NA,NA,right,3036.5999994278,true,NA,NA,NA,NA,NA
xWv5ZHT3,NA,NA,xWv5ZHT3,2020-0188,2021-09-26,11:25:27,13:06:37,NA,incomplete,false,true,NA,1,16,building,o_s_018.jpg,left,skyscraper,cottage,NA,NA,NA,left,1110.30000019073,true,NA,NA,NA,NA,NA
xWv5ZHT3,NA,NA,xWv5ZHT3,2020-0188,2021-09-26,11:25:27,13:06:37,NA,incomplete,false,true,NA,1,17,building,i_s_022.jpg,right,cottage,skyscraper,NA,NA,NA,right,1937.5,true,NA,NA,NA,NA,NA
xWv5ZHT3,NA,NA,xWv5ZHT3,2020-0188,2021-09-26,11:25:27,13:06:37,NA,incomplete,false,true,NA,1,18,building,o_c_021.jpg,right,skyscraper,cottage,NA,NA,NA,right,1648.30000019073,true,NA,NA,NA,NA,NA
xWv5ZHT3,NA,NA,xWv5ZHT3,2020-0188,2021-09-26,11:25:27,13:06:37,NA,incomplete,false,true,NA,1,19,building,i_c_025.jpg,left,cottage,skyscraper,NA,NA,NA,left,2248.29999923706,true,NA,NA,NA,NA,NA
xWv5ZHT3,NA,NA,xWv5ZHT3,2020-0188,2021-09-26,11:25:27,13:06:37,NA,incomplete,false,true,NA,1,20,size,n_l_004.jpg,left,large,small,NA,NA,NA,left,2109,true,NA,NA,NA,NA,NA
xWv5ZHT3,NA,NA,xWv5ZHT3,2020-0188,2021-09-26,11:25:27,13:06:37,NA,incomplete,false,true,NA,1,21,size,m_s_017.jpg,left,small,large,NA,NA,NA,left,1502.80000019073,true,NA,NA,NA,NA,NA
xWv5ZHT3,NA,NA,xWv5ZHT3,2020-0188,2021-09-26,11:25:27,13:06:37,NA,incomplete,false,true,NA,1,22,size,m_l_027.jpg,left,large,small,NA,NA,NA,left,1630.5999994278,true,NA,NA,NA,NA,NA
xWv5ZHT3,NA,NA,xWv5ZHT3,2020-0188,2021-09-26,11:25:27,13:06:37,NA,incomplete,false,true,NA,1,23,size,m_s_002.jpg,right,large,small,NA,NA,NA,right,1312.80000019073,true,NA,NA,NA,NA,NA
xWv5ZHT3,NA,NA,xWv5ZHT3,2020-0188,2021-09-26,11:25:27,13:06:37,NA,incomplete,false,true,NA,1,24,size,m_l_017.jpg,right,small,large,NA,NA,NA,right,1672.80000019073,true,NA,NA,NA,NA,NA
xWv5ZHT3,NA,NA,xWv5ZHT3,2020-0188,2021-09-26,11:25:27,13:06:37,NA,incomplete,false,true,NA,1,25,origin,m_s_019.jpg,left,manmade,natural,NA,NA,NA,left,2339.5999994278,true,NA,NA,NA,NA,NA
xWv5ZHT3,NA,NA,xWv5ZHT3,2020-0188,2021-09-26,11:25:27,13:06:37,NA,incomplete,false,true,NA,1,26,origin,m_l_018.jpg,right,natural,manmade,NA,NA,NA,right,1414.29999923706,true,NA,NA,NA,NA,NA
xWv5ZHT3,NA,NA,xWv5ZHT3,2020-0188,2021-09-26,11:25:27,13:06:37,NA,incomplete,false,true,NA,1,27,origin,m_s_024.jpg,left,manmade,natural,NA,NA,NA,left,1868.5,true,NA,NA,NA,NA,NA
xWv5ZHT3,NA,NA,xWv5ZHT3,2020-0188,2021-09-26,11:25:27,13:06:37,NA,incomplete,false,true,NA,1,28,origin,n_s_028.jpg,right,manmade,natural,NA,NA,NA,right,1860.89999961853,true,NA,NA,NA,NA,NA
xWv5ZHT3,NA,NA,xWv5ZHT3,2020-0188,2021-09-26,11:25:27,13:06:37,NA,incomplete,false,true,NA,1,29,origin,m_l_014.jpg,right,natural,manmade,NA,NA,NA,right,1647.69999980927,true,NA,NA,NA,NA,NA
xWv5ZHT3,NA,NA,xWv5ZHT3,2020-0188,2021-09-26,11:25:27,13:06:37,NA,incomplete,false,NA,true,1,0,NA,NA,right,NA,NA,a_1_023.jpg,c_1_013.jpg,within,NA,NaN,NA,right,8125.800000190735,1,1,2466.5
xWv5ZHT3,NA,NA,xWv5ZHT3,2020-0188,2021-09-26,11:25:27,13:06:37,NA,incomplete,false,NA,true,1,1,NA,NA,left,NA,NA,c_2_009.jpg,a_2_017.jpg,within,NA,NaN,NA,left,4204.5,1,1,2455.5
xWv5ZHT3,NA,NA,xWv5ZHT3,2020-0188,2021-09-26,11:25:27,13:06:37,NA,incomplete,false,NA,true,1,2,NA,NA,left,NA,NA,m_s_017.jpg,m_l_017.jpg,within,NA,NaN,NA,right,9777.400000572205,0,1,1256.1999998092651
xWv5ZHT3,NA,NA,xWv5ZHT3,2020-0188,2021-09-26,11:25:27,13:06:37,NA,incomplete,false,NA,true,1,3,NA,NA,left,NA,NA,m_l_018.jpg,m_l_014.jpg,within,NA,NaN,NA,right,7705.200000762939,0,1,1298.0999994277954
xWv5ZHT3,NA,NA,xWv5ZHT3,2020-0188,2021-09-26,11:25:27,13:06:37,NA,incomplete,false,NA,true,1,4,NA,NA,left,NA,NA,c_2_010.jpg,o_s_017.jpg,between-big,NA,NaN,NA,left,2420.199999809265,1,2,2261.1000003814697
xWv5ZHT3,NA,NA,xWv5ZHT3,2020-0188,2021-09-26,11:25:27,13:06:37,NA,incomplete,false,NA,true,1,5,NA,NA,left,NA,NA,a_1_028.jpg,c_1_002.jpg,within,NA,NaN,NA,left,3903.300000190735,1,1,1928.6999998092651
xWv5ZHT3,NA,NA,xWv5ZHT3,2020-0188,2021-09-26,11:25:27,13:06:37,NA,incomplete,false,NA,true,1,6,NA,NA,right,NA,NA,c_1_005.jpg,c_1_023.jpg,within,NA,NaN,NA,left,5722.800000190735,0,1,1201.1999998092651
xWv5ZHT3,NA,NA,xWv5ZHT3,2020-0188,2021-09-26,11:25:27,13:06:37,NA,incomplete,false,NA,true,1,7,NA,NA,left,NA,NA,o_s_017.jpg,o_c_027.jpg,within,NA,NaN,NA,left,4790.300000190735,1,1,1829.2999992370605
xWv5ZHT3,NA,NA,xWv5ZHT3,2020-0188,2021-09-26,11:25:27,13:06:37,NA,incomplete,false,NA,true,1,8,NA,NA,right,NA,NA,c_2_009.jpg,c_1_028.jpg,between-small,NA,NaN,NA,right,10093.800000190735,1,1,2146.1000003814697
xWv5ZHT3,NA,NA,xWv5ZHT3,2020-0188,2021-09-26,11:25:27,13:06:37,NA,incomplete,false,NA,true,1,9,NA,NA,left,NA,NA,c_1_005.jpg,a_1_028.jpg,between-small,NA,NaN,NA,left,4152.400000572205,1,1,1298.8999996185303
xWv5ZHT3,NA,NA,xWv5ZHT3,2020-0188,2021-09-26,11:25:27,13:06:37,NA,incomplete,false,NA,true,1,10,NA,NA,right,NA,NA,i_c_025.jpg,o_s_018.jpg,within,NA,NaN,NA,right,11517.699999809265,1,1,4609.900000572205
xWv5ZHT3,NA,NA,xWv5ZHT3,2020-0188,2021-09-26,11:25:27,13:06:37,NA,incomplete,false,NA,true,1,11,NA,NA,left,NA,NA,i_s_020.jpg,o_c_023.jpg,within,NA,NaN,NA,right,3817.5,0,1,2132.1000003814697
xWv5ZHT3,NA,NA,xWv5ZHT3,2020-0188,2021-09-26,11:25:27,13:06:37,NA,incomplete,false,NA,true,1,12,NA,NA,right,NA,NA,o_s_018.jpg,o_c_027.jpg,between-small,NA,NaN,NA,right,9373,1,1,1624.3000001907349
xWv5ZHT3,NA,NA,xWv5ZHT3,2020-0188,2021-09-26,11:25:27,13:06:37,NA,incomplete,false,NA,true,1,13,NA,NA,right,NA,NA,i_c_017.jpg,c_1_002.jpg,between-big,NA,NaN,NA,right,10058.60000038147,1,2,1940.6999998092651
xWv5ZHT3,NA,NA,xWv5ZHT3,2020-0188,2021-09-26,11:25:27,13:06:37,NA,incomplete,false,NA,true,1,14,NA,NA,right,NA,NA,c_2_010.jpg,a_1_023.jpg,between-small,NA,NaN,NA,right,4715.5,1,1,2099.7999992370605
xWv5ZHT3,NA,NA,xWv5ZHT3,2020-0188,2021-09-26,11:25:27,13:06:37,NA,incomplete,false,NA,true,1,15,NA,NA,left,NA,NA,o_c_015.jpg,o_c_021.jpg,within,NA,NaN,NA,left,7922.900000572205,1,1,3065.5999994277954
xWv5ZHT3,NA,NA,xWv5ZHT3,2020-0188,2021-09-26,11:25:27,13:06:37,NA,incomplete,false,NA,true,1,16,NA,NA,right,NA,NA,n_l_004.jpg,i_s_022.jpg,between-big,NA,NaN,NA,left,4060.699999809265,0,2,2552.1000003814697
xWv5ZHT3,NA,NA,xWv5ZHT3,2020-0188,2021-09-26,11:25:27,13:06:37,NA,incomplete,false,NA,true,1,17,NA,NA,right,NA,NA,m_s_002.jpg,n_l_004.jpg,within,NA,NaN,NA,left,2956.5,0,0,12078.199999809265
xWv5ZHT3,NA,NA,xWv5ZHT3,2020-0188,2021-09-26,11:25:27,13:06:37,NA,incomplete,false,NA,true,1,18,NA,NA,right,NA,NA,m_s_019.jpg,m_l_027.jpg,between-small,NA,NaN,NA,left,4426.39999961853,0,1,3353.8999996185303
xWv5ZHT3,NA,NA,xWv5ZHT3,2020-0188,2021-09-26,11:25:27,13:06:37,NA,incomplete,false,NA,true,1,19,NA,NA,left,NA,NA,m_s_019.jpg,n_s_028.jpg,within,NA,NaN,NA,left,5961,1,0,2002.5
xWv5ZHT3,NA,NA,xWv5ZHT3,2020-0188,2021-09-26,11:25:27,13:06:37,NA,incomplete,false,NA,true,1,20,NA,NA,right,NA,NA,i_s_020.jpg,a_2_017.jpg,between-big,NA,NaN,NA,right,8658.29999923706,1,2,2280.0999994277954
xWv5ZHT3,NA,NA,xWv5ZHT3,2020-0188,2021-09-26,11:25:27,13:06:37,NA,incomplete,false,NA,true,1,21,NA,NA,right,NA,NA,m_l_027.jpg,i_c_025.jpg,between-big,NA,NaN,NA,left,3507.800000190735,0,2,1276.1000003814697
xWv5ZHT3,NA,NA,xWv5ZHT3,2020-0188,2021-09-26,11:25:27,13:06:37,NA,incomplete,false,NA,true,1,22,NA,NA,left,NA,NA,i_c_017.jpg,o_c_015.jpg,between-small,NA,NaN,NA,left,3704.8999996185303,1,1,1750.3000001907349
xWv5ZHT3,NA,NA,xWv5ZHT3,2020-0188,2021-09-26,11:25:27,13:06:37,NA,incomplete,false,NA,true,1,23,NA,NA,left,NA,NA,o_c_021.jpg,m_s_017.jpg,between-big,NA,NaN,NA,right,2528.300000190735,0,2,1106.5
xWv5ZHT3,NA,NA,xWv5ZHT3,2020-0188,2021-09-26,11:25:27,13:06:37,NA,incomplete,false,NA,true,1,24,NA,NA,right,NA,NA,m_s_024.jpg,m_l_017.jpg,between-small,NA,NaN,NA,left,4330.5,0,1,1331.1000003814697
xWv5ZHT3,NA,NA,xWv5ZHT3,2020-0188,2021-09-26,11:25:27,13:06:37,NA,incomplete,false,NA,true,1,25,NA,NA,right,NA,NA,m_l_018.jpg,m_s_002.jpg,between-small,NA,NaN,NA,left,4299.900000572205,0,1,1530.6000003814697
xWv5ZHT3,NA,NA,xWv5ZHT3,2020-0188,2021-09-26,11:25:27,13:06:37,NA,incomplete,false,NA,true,1,26,NA,NA,right,NA,NA,i_s_022.jpg,o_c_023.jpg,between-small,NA,NaN,NA,left,6233.299999237061,0,1,1611
xWv5ZHT3,NA,NA,xWv5ZHT3,2020-0188,2021-09-26,11:25:27,13:06:37,NA,incomplete,false,true,NA,2,0,size,n_s_011.jpg,left,small,large,NA,NA,NA,left,2002.19999980927,true,NA,NA,NA,NA,NA
xWv5ZHT3,NA,NA,xWv5ZHT3,2020-0188,2021-09-26,11:25:27,13:06:37,NA,incomplete,false,true,NA,2,1,size,m_l_028.jpg,right,small,large,NA,NA,NA,right,1345.30000019073,true,NA,NA,NA,NA,NA
xWv5ZHT3,NA,NA,xWv5ZHT3,2020-0188,2021-09-26,11:25:27,13:06:37,NA,incomplete,false,true,NA,2,2,size,n_l_008.jpg,left,large,small,NA,NA,NA,left,1255.10000038147,true,NA,NA,NA,NA,NA
xWv5ZHT3,NA,NA,xWv5ZHT3,2020-0188,2021-09-26,11:25:27,13:06:37,NA,incomplete,false,true,NA,2,3,size,n_s_006.jpg,right,large,small,NA,NA,NA,right,1360.60000038147,true,NA,NA,NA,NA,NA
xWv5ZHT3,NA,NA,xWv5ZHT3,2020-0188,2021-09-26,11:25:27,13:06:37,NA,incomplete,false,true,NA,2,4,size,n_s_026.jpg,left,small,large,NA,NA,NA,left,1189.19999980927,true,NA,NA,NA,NA,NA
xWv5ZHT3,NA,NA,xWv5ZHT3,2020-0188,2021-09-26,11:25:27,13:06:37,NA,incomplete,false,true,NA,2,5,origin,m_l_006.jpg,left,manmade,natural,NA,NA,NA,left,1695.80000019073,true,NA,NA,NA,NA,NA
xWv5ZHT3,NA,NA,xWv5ZHT3,2020-0188,2021-09-26,11:25:27,13:06:37,NA,incomplete,false,true,NA,2,6,origin,m_s_016.jpg,right,natural,manmade,NA,NA,NA,right,1773,true,NA,NA,NA,NA,NA
xWv5ZHT3,NA,NA,xWv5ZHT3,2020-0188,2021-09-26,11:25:27,13:06:37,NA,incomplete,false,true,NA,2,7,origin,m_l_009.jpg,left,manmade,natural,NA,NA,NA,left,1088.0999994278,true,NA,NA,NA,NA,NA
xWv5ZHT3,NA,NA,xWv5ZHT3,2020-0188,2021-09-26,11:25:27,13:06:37,NA,incomplete,false,true,NA,2,8,origin,n_l_021.jpg,left,natural,manmade,NA,NA,NA,left,2202.30000019073,true,NA,NA,NA,NA,NA
xWv5ZHT3,NA,NA,xWv5ZHT3,2020-0188,2021-09-26,11:25:27,13:06:37,NA,incomplete,false,true,NA,2,9,origin,m_l_023.jpg,left,manmade,natural,NA,NA,NA,left,2599.0999994278,true,NA,NA,NA,NA,NA
xWv5ZHT3,NA,NA,xWv5ZHT3,2020-0188,2021-09-26,11:25:27,13:06:37,NA,incomplete,false,true,NA,2,10,location,o_c_024.jpg,left,outdoor,indoor,NA,NA,NA,left,1393.5,true,NA,NA,NA,NA,NA
xWv5ZHT3,NA,NA,xWv5ZHT3,2020-0188,2021-09-26,11:25:27,13:06:37,NA,incomplete,false,true,NA,2,11,location,o_s_007.jpg,right,indoor,outdoor,NA,NA,NA,right,1142.19999980927,true,NA,NA,NA,NA,NA
xWv5ZHT3,NA,NA,xWv5ZHT3,2020-0188,2021-09-26,11:25:27,13:06:37,NA,incomplete,false,true,NA,2,12,location,i_s_014.jpg,right,outdoor,indoor,NA,NA,NA,right,1570,true,NA,NA,NA,NA,NA
xWv5ZHT3,NA,NA,xWv5ZHT3,2020-0188,2021-09-26,11:25:27,13:06:37,NA,incomplete,false,true,NA,2,13,location,i_s_017.jpg,left,indoor,outdoor,NA,NA,NA,left,1932.39999961853,true,NA,NA,NA,NA,NA
xWv5ZHT3,NA,NA,xWv5ZHT3,2020-0188,2021-09-26,11:25:27,13:06:37,NA,incomplete,false,true,NA,2,14,location,i_s_019.jpg,right,outdoor,indoor,NA,NA,NA,right,2466.60000038147,true,NA,NA,NA,NA,NA
xWv5ZHT3,NA,NA,xWv5ZHT3,2020-0188,2021-09-26,11:25:27,13:06:37,NA,incomplete,false,true,NA,2,15,building,i_c_018.jpg,right,skyscraper,cottage,NA,NA,NA,right,1909.20000076294,true,NA,NA,NA,NA,NA
xWv5ZHT3,NA,NA,xWv5ZHT3,2020-0188,2021-09-26,11:25:27,13:06:37,NA,incomplete,false,true,NA,2,16,building,i_s_023.jpg,left,skyscraper,cottage,NA,NA,NA,left,2135.9000005722,true,NA,NA,NA,NA,NA
xWv5ZHT3,NA,NA,xWv5ZHT3,2020-0188,2021-09-26,11:25:27,13:06:37,NA,incomplete,false,true,NA,2,17,building,i_c_008.jpg,right,skyscraper,cottage,NA,NA,NA,right,1242.5,true,NA,NA,NA,NA,NA
xWv5ZHT3,NA,NA,xWv5ZHT3,2020-0188,2021-09-26,11:25:27,13:06:37,NA,incomplete,false,true,NA,2,18,building,o_c_025.jpg,left,cottage,skyscraper,NA,NA,NA,left,1748.5,true,NA,NA,NA,NA,NA
xWv5ZHT3,NA,NA,xWv5ZHT3,2020-0188,2021-09-26,11:25:27,13:06:37,NA,incomplete,false,true,NA,2,19,building,i_s_018.jpg,left,skyscraper,cottage,NA,NA,NA,left,2664.69999980927,true,NA,NA,NA,NA,NA
xWv5ZHT3,NA,NA,xWv5ZHT3,2020-0188,2021-09-26,11:25:27,13:06:37,NA,incomplete,false,true,NA,2,20,abstractness,a_2_004.jpg,right,concrete,abstract,NA,NA,NA,right,3395.69999980927,true,NA,NA,NA,NA,NA
xWv5ZHT3,NA,NA,xWv5ZHT3,2020-0188,2021-09-26,11:25:27,13:06:37,NA,incomplete,false,true,NA,2,21,abstractness,c_1_003.jpg,left,concrete,abstract,NA,NA,NA,left,1259.80000019073,true,NA,NA,NA,NA,NA
xWv5ZHT3,NA,NA,xWv5ZHT3,2020-0188,2021-09-26,11:25:27,13:06:37,NA,incomplete,false,true,NA,2,22,abstractness,a_1_014.jpg,right,concrete,abstract,NA,NA,NA,right,1976.89999961853,true,NA,NA,NA,NA,NA
xWv5ZHT3,NA,NA,xWv5ZHT3,2020-0188,2021-09-26,11:25:27,13:06:37,NA,incomplete,false,true,NA,2,23,abstractness,a_1_018.jpg,left,abstract,concrete,NA,NA,NA,left,1697.69999980927,true,NA,NA,NA,NA,NA
xWv5ZHT3,NA,NA,xWv5ZHT3,2020-0188,2021-09-26,11:25:27,13:06:37,NA,incomplete,false,true,NA,2,24,abstractness,c_2_003.jpg,left,concrete,abstract,NA,NA,NA,left,2637.9000005722,true,NA,NA,NA,NA,NA
xWv5ZHT3,NA,NA,xWv5ZHT3,2020-0188,2021-09-26,11:25:27,13:06:37,NA,incomplete,false,true,NA,2,25,syllable,a_2_008.jpg,right,2 syllables,1 syllable,NA,NA,NA,right,2234.79999923706,true,NA,NA,NA,NA,NA
xWv5ZHT3,NA,NA,xWv5ZHT3,2020-0188,2021-09-26,11:25:27,13:06:37,NA,incomplete,false,true,NA,2,26,syllable,c_2_008.jpg,right,1 syllable,2 syllables,NA,NA,NA,right,1561.29999923706,true,NA,NA,NA,NA,NA
xWv5ZHT3,NA,NA,xWv5ZHT3,2020-0188,2021-09-26,11:25:27,13:06:37,NA,incomplete,false,true,NA,2,27,syllable,a_1_003.jpg,right,1 syllable,2 syllables,NA,NA,NA,left,1085.5,false,NA,NA,NA,NA,NA
xWv5ZHT3,NA,NA,xWv5ZHT3,2020-0188,2021-09-26,11:25:27,13:06:37,NA,incomplete,false,true,NA,2,28,syllable,c_2_002.jpg,right,2 syllables,1 syllable,NA,NA,NA,left,1403.30000019073,false,NA,NA,NA,NA,NA
xWv5ZHT3,NA,NA,xWv5ZHT3,2020-0188,2021-09-26,11:25:27,13:06:37,NA,incomplete,false,true,NA,2,29,syllable,a_1_011.jpg,right,2 syllables,1 syllable,NA,NA,NA,right,998.10000038147,true,NA,NA,NA,NA,NA
xWv5ZHT3,NA,NA,xWv5ZHT3,2020-0188,2021-09-26,11:25:27,13:06:37,NA,incomplete,false,NA,true,2,0,NA,NA,right,NA,NA,o_c_025.jpg,i_c_018.jpg,within,NA,NaN,NA,right,4261,1,1,3552.1000003814697
xWv5ZHT3,NA,NA,xWv5ZHT3,2020-0188,2021-09-26,11:25:27,13:06:37,NA,incomplete,false,NA,true,2,1,NA,NA,right,NA,NA,i_c_008.jpg,i_s_019.jpg,between-small,NA,NaN,NA,left,25610,0,1,1816
xWv5ZHT3,NA,NA,xWv5ZHT3,2020-0188,2021-09-26,11:25:27,13:06:37,NA,incomplete,false,NA,true,2,2,NA,NA,right,NA,NA,c_2_003.jpg,c_1_003.jpg,within,NA,NaN,NA,right,4095.3999996185303,1,1,2373.6000003814697
xWv5ZHT3,NA,NA,xWv5ZHT3,2020-0188,2021-09-26,11:25:27,13:06:37,NA,incomplete,false,NA,true,2,3,NA,NA,right,NA,NA,a_2_004.jpg,i_c_008.jpg,between-big,NA,NaN,NA,right,14993.900000572205,1,1,1299.1999998092651
xWv5ZHT3,NA,NA,xWv5ZHT3,2020-0188,2021-09-26,11:25:27,13:06:37,NA,incomplete,false,NA,true,2,4,NA,NA,right,NA,NA,m_l_009.jpg,n_s_026.jpg,between-small,NA,NaN,NA,right,4549.599999427795,1,1,1713.6000003814697
xWv5ZHT3,NA,NA,xWv5ZHT3,2020-0188,2021-09-26,11:25:27,13:06:37,NA,incomplete,false,NA,true,2,5,NA,NA,left,NA,NA,c_2_003.jpg,a_1_003.jpg,between-small,NA,NaN,NA,right,6728.39999961853,0,1,2025.6999998092651
xWv5ZHT3,NA,NA,xWv5ZHT3,2020-0188,2021-09-26,11:25:27,13:06:37,NA,incomplete,false,NA,true,2,6,NA,NA,left,NA,NA,a_2_008.jpg,c_2_002.jpg,within,NA,NaN,NA,left,13619.099999427795,1,1,5858.300000190735
xWv5ZHT3,NA,NA,xWv5ZHT3,2020-0188,2021-09-26,11:25:27,13:06:37,NA,incomplete,false,NA,true,2,7,NA,NA,right,NA,NA,i_s_019.jpg,o_s_007.jpg,within,NA,NaN,NA,left,7205.39999961853,0,1,3505
xWv5ZHT3,NA,NA,xWv5ZHT3,2020-0188,2021-09-26,11:25:27,13:06:37,NA,incomplete,false,NA,true,2,8,NA,NA,left,NA,NA,n_s_011.jpg,n_s_006.jpg,within,NA,NaN,NA,left,3004.199999809265,1,1,1253.3000001907349
xWv5ZHT3,NA,NA,xWv5ZHT3,2020-0188,2021-09-26,11:25:27,13:06:37,NA,incomplete,false,NA,true,2,9,NA,NA,right,NA,NA,i_s_014.jpg,m_l_023.jpg,between-big,NA,NaN,NA,right,1643.6000003814697,1,2,2413
xWv5ZHT3,NA,NA,xWv5ZHT3,2020-0188,2021-09-26,11:25:27,13:06:37,NA,incomplete,false,NA,true,2,10,NA,NA,left,NA,NA,n_l_021.jpg,o_s_007.jpg,between-big,NA,NaN,NA,left,1721.2999992370605,1,2,1966.5
xWv5ZHT3,NA,NA,xWv5ZHT3,2020-0188,2021-09-26,11:25:27,13:06:37,NA,incomplete,false,NA,true,2,11,NA,NA,right,NA,NA,a_2_008.jpg,a_1_014.jpg,between-small,NA,NaN,NA,right,2609.1000003814697,1,1,1046.2999992370605
xWv5ZHT3,NA,NA,xWv5ZHT3,2020-0188,2021-09-26,11:25:27,13:06:37,NA,incomplete,false,NA,true,2,12,NA,NA,left,NA,NA,m_l_028.jpg,n_s_026.jpg,within,NA,NaN,NA,left,1536.3000001907349,1,2,1557.8000001907349
xWv5ZHT3,NA,NA,xWv5ZHT3,2020-0188,2021-09-26,11:25:27,13:06:37,NA,incomplete,false,NA,true,2,13,NA,NA,left,NA,NA,a_2_004.jpg,a_1_018.jpg,within,NA,NaN,NA,right,3483.199999809265,0,1,2246.199999809265
xWv5ZHT3,NA,NA,xWv5ZHT3,2020-0188,2021-09-26,11:25:27,13:06:37,NA,incomplete,false,NA,true,2,14,NA,NA,left,NA,NA,i_s_014.jpg,i_c_018.jpg,between-small,NA,NaN,NA,left,8235.300000190735,1,1,2784.5
xWv5ZHT3,NA,NA,xWv5ZHT3,2020-0188,2021-09-26,11:25:27,13:06:37,NA,incomplete,false,NA,true,2,15,NA,NA,left,NA,NA,o_c_024.jpg,i_s_017.jpg,within,NA,NaN,NA,left,6236.60000038147,1,1,1091.5999994277954
xWv5ZHT3,NA,NA,xWv5ZHT3,2020-0188,2021-09-26,11:25:27,13:06:37,NA,incomplete,false,NA,true,2,16,NA,NA,right,NA,NA,m_l_006.jpg,n_l_008.jpg,between-small,NA,NaN,NA,right,20568.60000038147,1,1,1764.6999998092651
xWv5ZHT3,NA,NA,xWv5ZHT3,2020-0188,2021-09-26,11:25:27,13:06:37,NA,incomplete,false,NA,true,2,17,NA,NA,right,NA,NA,a_1_011.jpg,c_2_008.jpg,within,NA,NaN,NA,left,9046.39999961853,0,1,1098.1000003814697
xWv5ZHT3,NA,NA,xWv5ZHT3,2020-0188,2021-09-26,11:25:27,13:06:37,NA,incomplete,false,NA,true,2,18,NA,NA,left,NA,NA,m_l_009.jpg,o_c_024.jpg,between-big,NA,NaN,NA,left,1431,1,1,3055.1000003814697
xWv5ZHT3,NA,NA,xWv5ZHT3,2020-0188,2021-09-26,11:25:27,13:06:37,NA,incomplete,false,NA,true,2,19,NA,NA,right,NA,NA,m_s_016.jpg,n_s_006.jpg,between-small,NA,NaN,NA,left,2163,0,2,2734.4000005722046
xWv5ZHT3,NA,NA,xWv5ZHT3,2020-0188,2021-09-26,11:25:27,13:06:37,NA,incomplete,false,NA,true,2,20,NA,NA,left,NA,NA,i_s_023.jpg,i_s_018.jpg,within,NA,NaN,NA,right,2049.5,0,1,1092.9000005722046
xWv5ZHT3,NA,NA,xWv5ZHT3,2020-0188,2021-09-26,11:25:27,13:06:37,NA,incomplete,false,NA,true,2,21,NA,NA,right,NA,NA,c_2_008.jpg,a_1_018.jpg,between-small,NA,NaN,NA,right,1579.4000005722046,1,1,1012.3000001907349
xWv5ZHT3,NA,NA,xWv5ZHT3,2020-0188,2021-09-26,11:25:27,13:06:37,NA,incomplete,false,NA,true,2,22,NA,NA,left,NA,NA,m_s_016.jpg,m_l_023.jpg,within,NA,NaN,NA,right,2237.4000005722046,0,1,1384.6999998092651
xWv5ZHT3,NA,NA,xWv5ZHT3,2020-0188,2021-09-26,11:25:27,13:06:37,NA,incomplete,false,NA,true,2,23,NA,NA,left,NA,NA,m_l_006.jpg,n_l_021.jpg,within,NA,NaN,NA,right,3147.800000190735,0,2,1821.1999998092651
xWv5ZHT3,NA,NA,xWv5ZHT3,2020-0188,2021-09-26,11:25:27,13:06:37,NA,incomplete,false,NA,true,2,24,NA,NA,right,NA,NA,a_1_014.jpg,i_s_018.jpg,between-big,NA,NaN,NA,left,3190.800000190735,0,2,1223.3999996185303
xWv5ZHT3,NA,NA,xWv5ZHT3,2020-0188,2021-09-26,11:25:27,13:06:37,NA,incomplete,false,NA,true,2,25,NA,NA,left,NA,NA,i_s_017.jpg,i_s_023.jpg,between-small,NA,NaN,NA,left,5448.199999809265,1,1,1370.3999996185303
xWv5ZHT3,NA,NA,xWv5ZHT3,2020-0188,2021-09-26,11:25:27,13:06:37,NA,incomplete,false,NA,true,2,26,NA,NA,left,NA,NA,o_c_025.jpg,c_1_003.jpg,between-big,NA,NaN,NA,right,7517.700000762939,0,2,2819.4000005722046
xWv5ZHT3,NA,NA,xWv5ZHT3,2020-0188,2021-09-26,11:25:27,13:06:37,NA,incomplete,false,true,NA,3,0,building,i_c_022.jpg,right,skyscraper,cottage,NA,NA,NA,right,1541.5,true,NA,NA,NA,NA,NA
xWv5ZHT3,NA,NA,xWv5ZHT3,2020-0188,2021-09-26,11:25:27,13:06:37,NA,incomplete,false,true,NA,3,1,building,i_c_009.jpg,left,cottage,skyscraper,NA,NA,NA,left,2205.10000038147,true,NA,NA,NA,NA,NA
xWv5ZHT3,NA,NA,xWv5ZHT3,2020-0188,2021-09-26,11:25:27,13:06:37,NA,incomplete,false,true,NA,3,2,building,o_c_005.jpg,right,skyscraper,cottage,NA,NA,NA,right,2311.4000005722,true,NA,NA,NA,NA,NA
xWv5ZHT3,NA,NA,xWv5ZHT3,2020-0188,2021-09-26,11:25:27,13:06:37,NA,incomplete,false,true,NA,3,3,building,i_s_025.jpg,right,cottage,skyscraper,NA,NA,NA,right,1603.79999923706,true,NA,NA,NA,NA,NA
xWv5ZHT3,NA,NA,xWv5ZHT3,2020-0188,2021-09-26,11:25:27,13:06:37,NA,incomplete,false,true,NA,3,4,building,i_c_013.jpg,right,skyscraper,cottage,NA,NA,NA,right,2115.4000005722,true,NA,NA,NA,NA,NA
xWv5ZHT3,NA,NA,xWv5ZHT3,2020-0188,2021-09-26,11:25:27,13:06:37,NA,incomplete,false,true,NA,3,5,location,o_c_013.jpg,left,outdoor,indoor,NA,NA,NA,left,1193,true,NA,NA,NA,NA,NA
xWv5ZHT3,NA,NA,xWv5ZHT3,2020-0188,2021-09-26,11:25:27,13:06:37,NA,incomplete,false,true,NA,3,6,location,i_s_007.jpg,right,outdoor,indoor,NA,NA,NA,right,1238.9000005722,true,NA,NA,NA,NA,NA
xWv5ZHT3,NA,NA,xWv5ZHT3,2020-0188,2021-09-26,11:25:27,13:06:37,NA,incomplete,false,true,NA,3,7,location,o_s_006.jpg,right,indoor,outdoor,NA,NA,NA,right,1955,true,NA,NA,NA,NA,NA
xWv5ZHT3,NA,NA,xWv5ZHT3,2020-0188,2021-09-26,11:25:27,13:06:37,NA,incomplete,false,true,NA,3,8,location,i_c_021.jpg,left,indoor,outdoor,NA,NA,NA,left,2249.30000019073,true,NA,NA,NA,NA,NA
xWv5ZHT3,NA,NA,xWv5ZHT3,2020-0188,2021-09-26,11:25:27,13:06:37,NA,incomplete,false,true,NA,3,9,location,i_s_024.jpg,left,indoor,outdoor,NA,NA,NA,left,977.699999809265,true,NA,NA,NA,NA,NA
xWv5ZHT3,NA,NA,xWv5ZHT3,2020-0188,2021-09-26,11:25:27,13:06:37,NA,incomplete,false,true,NA,3,10,abstractness,c_2_016.jpg,right,abstract,concrete,NA,NA,NA,right,1804.30000019073,true,NA,NA,NA,NA,NA
xWv5ZHT3,NA,NA,xWv5ZHT3,2020-0188,2021-09-26,11:25:27,13:06:37,NA,incomplete,false,true,NA,3,11,abstractness,c_1_026.jpg,right,abstract,concrete,NA,NA,NA,right,1307,true,NA,NA,NA,NA,NA
xWv5ZHT3,NA,NA,xWv5ZHT3,2020-0188,2021-09-26,11:25:27,13:06:37,NA,incomplete,false,true,NA,3,12,abstractness,c_1_024.jpg,left,concrete,abstract,NA,NA,NA,left,1562.10000038147,true,NA,NA,NA,NA,NA
xWv5ZHT3,NA,NA,xWv5ZHT3,2020-0188,2021-09-26,11:25:27,13:06:37,NA,incomplete,false,true,NA,3,13,abstractness,a_1_022.jpg,right,concrete,abstract,NA,NA,NA,right,1519.80000019073,true,NA,NA,NA,NA,NA
xWv5ZHT3,NA,NA,xWv5ZHT3,2020-0188,2021-09-26,11:25:27,13:06:37,NA,incomplete,false,true,NA,3,14,abstractness,c_2_011.jpg,right,abstract,concrete,NA,NA,NA,right,1255.80000019073,true,NA,NA,NA,NA,NA
xWv5ZHT3,NA,NA,xWv5ZHT3,2020-0188,2021-09-26,11:25:27,13:06:37,NA,incomplete,false,true,NA,3,15,syllable,a_1_015.jpg,right,2 syllables,1 syllable,NA,NA,NA,right,2086.60000038147,true,NA,NA,NA,NA,NA
xWv5ZHT3,NA,NA,xWv5ZHT3,2020-0188,2021-09-26,11:25:27,13:06:37,NA,incomplete,false,true,NA,3,16,syllable,a_1_017.jpg,right,1 syllable,2 syllables,NA,NA,NA,left,1207.79999923706,false,NA,NA,NA,NA,NA
xWv5ZHT3,NA,NA,xWv5ZHT3,2020-0188,2021-09-26,11:25:27,13:06:37,NA,incomplete,false,true,NA,3,17,syllable,a_1_024.jpg,right,1 syllable,2 syllables,NA,NA,NA,left,1112.19999980927,false,NA,NA,NA,NA,NA
xWv5ZHT3,NA,NA,xWv5ZHT3,2020-0188,2021-09-26,11:25:27,13:06:37,NA,incomplete,false,true,NA,3,18,syllable,a_2_006.jpg,right,1 syllable,2 syllables,NA,NA,NA,left,1032.30000019073,false,NA,NA,NA,NA,NA
xWv5ZHT3,NA,NA,xWv5ZHT3,2020-0188,2021-09-26,11:25:27,13:06:37,NA,incomplete,false,true,NA,3,19,syllable,a_1_002.jpg,right,1 syllable,2 syllables,NA,NA,NA,left,1173.79999923706,false,NA,NA,NA,NA,NA
xWv5ZHT3,NA,NA,xWv5ZHT3,2020-0188,2021-09-26,11:25:27,13:06:37,NA,incomplete,false,true,NA,3,20,origin,m_s_022.jpg,left,manmade,natural,NA,NA,NA,left,3425.9000005722,true,NA,NA,NA,NA,NA
xWv5ZHT3,NA,NA,xWv5ZHT3,2020-0188,2021-09-26,11:25:27,13:06:37,NA,incomplete,false,true,NA,3,21,origin,m_l_008.jpg,left,manmade,natural,NA,NA,NA,left,1295.19999980927,true,NA,NA,NA,NA,NA
xWv5ZHT3,NA,NA,xWv5ZHT3,2020-0188,2021-09-26,11:25:27,13:06:37,NA,incomplete,false,true,NA,3,22,origin,m_l_004.jpg,right,natural,manmade,NA,NA,NA,right,1720.60000038147,true,NA,NA,NA,NA,NA
xWv5ZHT3,NA,NA,xWv5ZHT3,2020-0188,2021-09-26,11:25:27,13:06:37,NA,incomplete,false,true,NA,3,23,origin,m_l_003.jpg,left,manmade,natural,NA,NA,NA,left,1291.80000019073,true,NA,NA,NA,NA,NA
xWv5ZHT3,NA,NA,xWv5ZHT3,2020-0188,2021-09-26,11:25:27,13:06:37,NA,incomplete,false,true,NA,3,24,origin,m_s_011.jpg,right,natural,manmade,NA,NA,NA,right,1623.39999961853,true,NA,NA,NA,NA,NA
xWv5ZHT3,NA,NA,xWv5ZHT3,2020-0188,2021-09-26,11:25:27,13:06:37,NA,incomplete,false,true,NA,3,25,size,n_s_024.jpg,left,small,large,NA,NA,NA,left,1194.4000005722,true,NA,NA,NA,NA,NA
xWv5ZHT3,NA,NA,xWv5ZHT3,2020-0188,2021-09-26,11:25:27,13:06:37,NA,incomplete,false,true,NA,3,26,size,n_l_011.jpg,left,large,small,NA,NA,NA,left,1619.5999994278,true,NA,NA,NA,NA,NA
xWv5ZHT3,NA,NA,xWv5ZHT3,2020-0188,2021-09-26,11:25:27,13:06:37,NA,incomplete,false,true,NA,3,27,size,n_s_005.jpg,left,small,large,NA,NA,NA,left,2430.19999980927,true,NA,NA,NA,NA,NA
xWv5ZHT3,NA,NA,xWv5ZHT3,2020-0188,2021-09-26,11:25:27,13:06:37,NA,incomplete,false,true,NA,3,28,size,m_l_016.jpg,right,small,large,NA,NA,NA,right,1462,true,NA,NA,NA,NA,NA
xWv5ZHT3,NA,NA,xWv5ZHT3,2020-0188,2021-09-26,11:25:27,13:06:37,NA,incomplete,false,true,NA,3,29,size,n_l_019.jpg,left,large,small,NA,NA,NA,left,2711.39999961853,true,NA,NA,NA,NA,NA
xWv5ZHT3,NA,NA,xWv5ZHT3,2020-0188,2021-09-26,11:25:27,13:06:37,NA,incomplete,false,NA,true,3,0,NA,NA,right,NA,NA,c_2_011.jpg,c_1_026.jpg,within,NA,NaN,NA,right,1851.7000007629395,1,1,1077.8000001907349
xWv5ZHT3,NA,NA,xWv5ZHT3,2020-0188,2021-09-26,11:25:27,13:06:37,NA,incomplete,false,NA,true,3,1,NA,NA,right,NA,NA,m_l_008.jpg,a_2_006.jpg,between-big,NA,NaN,NA,left,3715.5999994277954,0,2,2421.9000005722046
xWv5ZHT3,NA,NA,xWv5ZHT3,2020-0188,2021-09-26,11:25:27,13:06:37,NA,incomplete,false,NA,true,3,2,NA,NA,right,NA,NA,i_c_021.jpg,o_c_013.jpg,within,NA,NaN,NA,right,3755.8999996185303,1,1,2797.4000005722046
xWv5ZHT3,NA,NA,xWv5ZHT3,2020-0188,2021-09-26,11:25:27,13:06:37,NA,incomplete,false,NA,true,3,3,NA,NA,right,NA,NA,o_s_006.jpg,i_c_013.jpg,between-small,NA,NaN,NA,right,5361.699999809265,1,1,1845.1999998092651
xWv5ZHT3,NA,NA,xWv5ZHT3,2020-0188,2021-09-26,11:25:27,13:06:37,NA,incomplete,false,NA,true,3,4,NA,NA,right,NA,NA,o_c_013.jpg,o_c_005.jpg,between-small,NA,NaN,NA,left,4903.599999427795,0,1,1582
xWv5ZHT3,NA,NA,xWv5ZHT3,2020-0188,2021-09-26,11:25:27,13:06:37,NA,incomplete,false,NA,true,3,5,NA,NA,left,NA,NA,i_s_024.jpg,c_1_024.jpg,between-big,NA,NaN,NA,left,2280.5,1,2,4236.199999809265
xWv5ZHT3,NA,NA,xWv5ZHT3,2020-0188,2021-09-26,11:25:27,13:06:37,NA,incomplete,false,NA,true,3,6,NA,NA,right,NA,NA,i_s_007.jpg,i_s_025.jpg,between-small,NA,NaN,NA,left,4049.0999994277954,0,1,2651.2000007629395
xWv5ZHT3,NA,NA,xWv5ZHT3,2020-0188,2021-09-26,11:25:27,13:06:37,NA,incomplete,false,NA,true,3,7,NA,NA,left,NA,NA,i_c_022.jpg,i_s_025.jpg,within,NA,NaN,NA,left,2128.199999809265,1,0,1363
xWv5ZHT3,NA,NA,xWv5ZHT3,2020-0188,2021-09-26,11:25:27,13:06:37,NA,incomplete,false,NA,true,3,8,NA,NA,right,NA,NA,c_1_026.jpg,i_c_021.jpg,between-big,NA,NaN,NA,right,4995.60000038147,1,2,1920.3000001907349
xWv5ZHT3,NA,NA,xWv5ZHT3,2020-0188,2021-09-26,11:25:27,13:06:37,NA,incomplete,false,NA,true,3,9,NA,NA,right,NA,NA,a_1_002.jpg,a_1_017.jpg,within,NA,NaN,NA,left,2573.300000190735,0,0,1716
xWv5ZHT3,NA,NA,xWv5ZHT3,2020-0188,2021-09-26,11:25:27,13:06:37,NA,incomplete,false,NA,true,3,10,NA,NA,right,NA,NA,a_1_017.jpg,a_1_022.jpg,between-small,NA,NaN,NA,right,3636.2000007629395,1,0,1917.9000005722046
xWv5ZHT3,NA,NA,xWv5ZHT3,2020-0188,2021-09-26,11:25:27,13:06:37,NA,incomplete,false,NA,true,3,11,NA,NA,left,NA,NA,i_s_007.jpg,i_s_024.jpg,within,NA,NaN,NA,left,4345,1,1,4237.400000572205
xWv5ZHT3,NA,NA,xWv5ZHT3,2020-0188,2021-09-26,11:25:27,13:06:37,NA,incomplete,false,NA,true,3,12,NA,NA,right,NA,NA,a_1_015.jpg,c_1_024.jpg,between-small,NA,NaN,NA,left,2438.3999996185303,0,0,1911.6999998092651
xWv5ZHT3,NA,NA,xWv5ZHT3,2020-0188,2021-09-26,11:25:27,13:06:37,NA,incomplete,false,NA,true,3,13,NA,NA,right,NA,NA,n_l_019.jpg,n_l_011.jpg,within,NA,NaN,NA,right,1989.8000001907349,1,2,1385
xWv5ZHT3,NA,NA,xWv5ZHT3,2020-0188,2021-09-26,11:25:27,13:06:37,NA,incomplete,false,NA,true,3,14,NA,NA,left,NA,NA,m_l_004.jpg,n_s_024.jpg,between-small,NA,NaN,NA,right,2603.1000003814697,0,2,2280.6000003814697
xWv5ZHT3,NA,NA,xWv5ZHT3,2020-0188,2021-09-26,11:25:27,13:06:37,NA,incomplete,false,NA,true,3,15,NA,NA,right,NA,NA,m_s_022.jpg,a_1_024.jpg,between-big,NA,NaN,NA,right,3412.6000003814697,1,2,2633.2999992370605
xWv5ZHT3,NA,NA,xWv5ZHT3,2020-0188,2021-09-26,11:25:27,13:06:37,NA,incomplete,false,NA,true,3,16,NA,NA,left,NA,NA,m_s_022.jpg,m_l_003.jpg,within,NA,NaN,NA,left,3856.699999809265,1,2,1418.5
xWv5ZHT3,NA,NA,xWv5ZHT3,2020-0188,2021-09-26,11:25:27,13:06:37,NA,incomplete,false,NA,true,3,17,NA,NA,left,NA,NA,o_s_006.jpg,c_2_016.jpg,between-big,NA,NaN,NA,left,1947.8999996185303,1,2,2148.800000190735
xWv5ZHT3,NA,NA,xWv5ZHT3,2020-0188,2021-09-26,11:25:27,13:06:37,NA,incomplete,false,NA,true,3,18,NA,NA,right,NA,NA,a_1_022.jpg,c_2_016.jpg,within,NA,NaN,NA,left,3214.6000003814697,0,1,1078.3999996185303
xWv5ZHT3,NA,NA,xWv5ZHT3,2020-0188,2021-09-26,11:25:27,13:06:37,NA,incomplete,false,NA,true,3,19,NA,NA,right,NA,NA,m_l_016.jpg,n_s_024.jpg,within,NA,NaN,NA,left,4167.799999237061,0,2,2457.5
xWv5ZHT3,NA,NA,xWv5ZHT3,2020-0188,2021-09-26,11:25:27,13:06:37,NA,incomplete,false,NA,true,3,20,NA,NA,left,NA,NA,a_1_015.jpg,a_2_006.jpg,within,NA,NaN,NA,left,1918.3000001907349,1,1,1742.1999998092651
xWv5ZHT3,NA,NA,xWv5ZHT3,2020-0188,2021-09-26,11:25:27,13:06:37,NA,incomplete,false,NA,true,3,21,NA,NA,left,NA,NA,a_1_002.jpg,m_l_004.jpg,between-big,NA,NaN,NA,right,3069,0,2,3585.5999994277954
xWv5ZHT3,NA,NA,xWv5ZHT3,2020-0188,2021-09-26,11:25:27,13:06:37,NA,incomplete,false,NA,true,3,22,NA,NA,right,NA,NA,n_s_005.jpg,m_s_011.jpg,between-small,NA,NaN,NA,right,3354.199999809265,1,1,1852.7000007629395
xWv5ZHT3,NA,NA,xWv5ZHT3,2020-0188,2021-09-26,11:25:27,13:06:37,NA,incomplete,false,NA,true,3,23,NA,NA,left,NA,NA,i_c_009.jpg,i_c_013.jpg,within,NA,NaN,NA,right,2837.5,0,1,1931.6999998092651
xWv5ZHT3,NA,NA,xWv5ZHT3,2020-0188,2021-09-26,11:25:27,13:06:37,NA,incomplete,false,NA,true,3,24,NA,NA,right,NA,NA,m_s_011.jpg,m_l_008.jpg,within,NA,NaN,NA,left,3994.199999809265,0,1,1974.3999996185303
xWv5ZHT3,NA,NA,xWv5ZHT3,2020-0188,2021-09-26,11:25:27,13:06:37,NA,incomplete,false,NA,true,3,25,NA,NA,right,NA,NA,n_l_011.jpg,m_l_003.jpg,between-small,NA,NaN,NA,left,1710.3000001907349,0,2,2392.300000190735
xWv5ZHT3,NA,NA,xWv5ZHT3,2020-0188,2021-09-26,11:25:27,13:06:37,NA,incomplete,false,NA,true,3,26,NA,NA,left,NA,NA,c_2_011.jpg,a_1_024.jpg,between-small,NA,NaN,NA,right,7675.39999961853,0,1,1238.4000005722046
xWv5ZHT3,NA,NA,xWv5ZHT3,2020-0188,2021-09-26,11:25:27,13:06:37,NA,incomplete,false,true,NA,4,0,size,m_s_028.jpg,right,large,small,NA,NA,NA,right,1232.69999980927,true,NA,NA,NA,NA,NA
xWv5ZHT3,NA,NA,xWv5ZHT3,2020-0188,2021-09-26,11:25:27,13:06:37,NA,incomplete,false,true,NA,4,1,size,n_s_020.jpg,left,small,large,NA,NA,NA,left,948,true,NA,NA,NA,NA,NA
xWv5ZHT3,NA,NA,xWv5ZHT3,2020-0188,2021-09-26,11:25:27,13:06:37,NA,incomplete,false,true,NA,4,2,size,n_l_007.jpg,right,small,large,NA,NA,NA,right,1061.9000005722,true,NA,NA,NA,NA,NA
xWv5ZHT3,NA,NA,xWv5ZHT3,2020-0188,2021-09-26,11:25:27,13:06:37,NA,incomplete,false,true,NA,4,3,size,n_l_002.jpg,left,large,small,NA,NA,NA,left,1215.30000019073,true,NA,NA,NA,NA,NA
xWv5ZHT3,NA,NA,xWv5ZHT3,2020-0188,2021-09-26,11:25:27,13:06:37,NA,incomplete,false,true,NA,4,4,size,m_s_020.jpg,right,large,small,NA,NA,NA,right,945.10000038147,true,NA,NA,NA,NA,NA
xWv5ZHT3,NA,NA,xWv5ZHT3,2020-0188,2021-09-26,11:25:27,13:06:37,NA,incomplete,false,true,NA,4,5,origin,n_l_001.jpg,left,natural,manmade,NA,NA,NA,left,1404.5,true,NA,NA,NA,NA,NA
xWv5ZHT3,NA,NA,xWv5ZHT3,2020-0188,2021-09-26,11:25:27,13:06:37,NA,incomplete,false,true,NA,4,6,origin,n_l_013.jpg,left,natural,manmade,NA,NA,NA,left,1801.30000019073,true,NA,NA,NA,NA,NA
xWv5ZHT3,NA,NA,xWv5ZHT3,2020-0188,2021-09-26,11:25:27,13:06:37,NA,incomplete,false,true,NA,4,7,origin,n_l_024.jpg,right,manmade,natural,NA,NA,NA,right,1439.60000038147,true,NA,NA,NA,NA,NA
xWv5ZHT3,NA,NA,xWv5ZHT3,2020-0188,2021-09-26,11:25:27,13:06:37,NA,incomplete,false,true,NA,4,8,origin,m_s_005.jpg,right,natural,manmade,NA,NA,NA,right,2672.19999980927,true,NA,NA,NA,NA,NA
xWv5ZHT3,NA,NA,xWv5ZHT3,2020-0188,2021-09-26,11:25:27,13:06:37,NA,incomplete,false,true,NA,4,9,origin,n_l_028.jpg,left,natural,manmade,NA,NA,NA,left,2193.80000019073,true,NA,NA,NA,NA,NA
xWv5ZHT3,NA,NA,xWv5ZHT3,2020-0188,2021-09-26,11:25:27,13:06:37,NA,incomplete,false,true,NA,4,10,location,i_s_002.jpg,right,outdoor,indoor,NA,NA,NA,right,1015.69999980927,true,NA,NA,NA,NA,NA
xWv5ZHT3,NA,NA,xWv5ZHT3,2020-0188,2021-09-26,11:25:27,13:06:37,NA,incomplete,false,true,NA,4,11,location,o_s_005.jpg,right,indoor,outdoor,NA,NA,NA,right,1626.19999980927,true,NA,NA,NA,NA,NA
xWv5ZHT3,NA,NA,xWv5ZHT3,2020-0188,2021-09-26,11:25:27,13:06:37,NA,incomplete,false,true,NA,4,12,location,o_c_026.jpg,right,indoor,outdoor,NA,NA,NA,right,1692.19999980927,true,NA,NA,NA,NA,NA
xWv5ZHT3,NA,NA,xWv5ZHT3,2020-0188,2021-09-26,11:25:27,13:06:37,NA,incomplete,false,true,NA,4,13,location,o_c_001.jpg,left,outdoor,indoor,NA,NA,NA,left,2026,true,NA,NA,NA,NA,NA
xWv5ZHT3,NA,NA,xWv5ZHT3,2020-0188,2021-09-26,11:25:27,13:06:37,NA,incomplete,false,true,NA,4,14,location,i_s_010.jpg,right,outdoor,indoor,NA,NA,NA,right,1114.20000076294,true,NA,NA,NA,NA,NA
xWv5ZHT3,NA,NA,xWv5ZHT3,2020-0188,2021-09-26,11:25:27,13:06:37,NA,incomplete,false,true,NA,4,15,building,i_s_016.jpg,right,cottage,skyscraper,NA,NA,NA,right,2643.69999980927,true,NA,NA,NA,NA,NA
xWv5ZHT3,NA,NA,xWv5ZHT3,2020-0188,2021-09-26,11:25:27,13:06:37,NA,incomplete,false,true,NA,4,16,building,o_s_022.jpg,left,skyscraper,cottage,NA,NA,NA,left,1695.10000038147,true,NA,NA,NA,NA,NA
xWv5ZHT3,NA,NA,xWv5ZHT3,2020-0188,2021-09-26,11:25:27,13:06:37,NA,incomplete,false,true,NA,4,17,building,i_c_028.jpg,left,cottage,skyscraper,NA,NA,NA,left,1126.80000019073,true,NA,NA,NA,NA,NA
xWv5ZHT3,NA,NA,xWv5ZHT3,2020-0188,2021-09-26,11:25:27,13:06:37,NA,incomplete,false,true,NA,4,18,building,o_s_014.jpg,right,cottage,skyscraper,NA,NA,NA,right,2567.5,true,NA,NA,NA,NA,NA
xWv5ZHT3,NA,NA,xWv5ZHT3,2020-0188,2021-09-26,11:25:27,13:06:37,NA,incomplete,false,true,NA,4,19,building,o_s_001.jpg,left,skyscraper,cottage,NA,NA,NA,left,2234.89999961853,true,NA,NA,NA,NA,NA
xWv5ZHT3,NA,NA,xWv5ZHT3,2020-0188,2021-09-26,11:25:27,13:06:37,NA,incomplete,false,true,NA,4,20,abstractness,c_1_022.jpg,left,concrete,abstract,NA,NA,NA,left,1376.5,true,NA,NA,NA,NA,NA
xWv5ZHT3,NA,NA,xWv5ZHT3,2020-0188,2021-09-26,11:25:27,13:06:37,NA,incomplete,false,true,NA,4,21,abstractness,c_1_004.jpg,right,abstract,concrete,NA,NA,NA,right,1687.60000038147,true,NA,NA,NA,NA,NA
xWv5ZHT3,NA,NA,xWv5ZHT3,2020-0188,2021-09-26,11:25:27,13:06:37,NA,incomplete,false,true,NA,4,22,abstractness,a_1_010.jpg,left,abstract,concrete,NA,NA,NA,left,1297.60000038147,true,NA,NA,NA,NA,NA
xWv5ZHT3,NA,NA,xWv5ZHT3,2020-0188,2021-09-26,11:25:27,13:06:37,NA,incomplete,false,true,NA,4,23,abstractness,a_2_011.jpg,right,concrete,abstract,NA,NA,NA,right,1337.19999980927,true,NA,NA,NA,NA,NA
xWv5ZHT3,NA,NA,xWv5ZHT3,2020-0188,2021-09-26,11:25:27,13:06:37,NA,incomplete,false,true,NA,4,24,abstractness,c_2_014.jpg,right,abstract,concrete,NA,NA,NA,right,1531,true,NA,NA,NA,NA,NA
xWv5ZHT3,NA,NA,xWv5ZHT3,2020-0188,2021-09-26,11:25:27,13:06:37,NA,incomplete,false,true,NA,4,25,syllable,c_1_001.jpg,right,1 syllable,2 syllables,NA,NA,NA,left,2080.39999961853,false,NA,NA,NA,NA,NA
xWv5ZHT3,NA,NA,xWv5ZHT3,2020-0188,2021-09-26,11:25:27,13:06:37,NA,incomplete,false,true,NA,4,26,syllable,c_1_017.jpg,right,2 syllables,1 syllable,NA,NA,NA,right,1064.5999994278,true,NA,NA,NA,NA,NA
xWv5ZHT3,NA,NA,xWv5ZHT3,2020-0188,2021-09-26,11:25:27,13:06:37,NA,incomplete,false,true,NA,4,27,syllable,a_2_026.jpg,right,2 syllables,1 syllable,NA,NA,NA,left,1670.19999980927,false,NA,NA,NA,NA,NA
xWv5ZHT3,NA,NA,xWv5ZHT3,2020-0188,2021-09-26,11:25:27,13:06:37,NA,incomplete,false,true,NA,4,28,syllable,a_1_020.jpg,right,2 syllables,1 syllable,NA,NA,NA,right,1127.39999961853,true,NA,NA,NA,NA,NA
xWv5ZHT3,NA,NA,xWv5ZHT3,2020-0188,2021-09-26,11:25:27,13:06:37,NA,incomplete,false,true,NA,4,29,syllable,c_2_019.jpg,right,1 syllable,2 syllables,NA,NA,NA,right,1279.10000038147,true,NA,NA,NA,NA,NA
xWv5ZHT3,NA,NA,xWv5ZHT3,2020-0188,2021-09-26,11:25:27,13:06:37,NA,incomplete,false,NA,true,4,0,NA,NA,right,NA,NA,a_1_010.jpg,o_s_001.jpg,between-big,NA,NaN,NA,left,1756,0,2,2827.9000005722046
xWv5ZHT3,NA,NA,xWv5ZHT3,2020-0188,2021-09-26,11:25:27,13:06:37,NA,incomplete,false,NA,true,4,1,NA,NA,left,NA,NA,o_c_001.jpg,o_s_022.jpg,between-small,NA,NaN,NA,right,1824.3000001907349,0,1,1042.2999992370605
xWv5ZHT3,NA,NA,xWv5ZHT3,2020-0188,2021-09-26,11:25:27,13:06:37,NA,incomplete,false,NA,true,4,2,NA,NA,left,NA,NA,c_1_022.jpg,a_2_011.jpg,within,NA,NaN,NA,left,2830.699999809265,1,1,982
xWv5ZHT3,NA,NA,xWv5ZHT3,2020-0188,2021-09-26,11:25:27,13:06:37,NA,incomplete,false,NA,true,4,3,NA,NA,right,NA,NA,i_s_016.jpg,o_c_026.jpg,between-small,NA,NaN,NA,left,2352.0999994277954,0,1,917.5
xWv5ZHT3,NA,NA,xWv5ZHT3,2020-0188,2021-09-26,11:25:27,13:06:37,NA,incomplete,false,NA,true,4,4,NA,NA,left,NA,NA,n_l_001.jpg,m_s_005.jpg,within,NA,NaN,NA,left,3260.199999809265,1,1,1729.8000001907349
xWv5ZHT3,NA,NA,xWv5ZHT3,2020-0188,2021-09-26,11:25:27,13:06:37,NA,incomplete,false,NA,true,4,5,NA,NA,left,NA,NA,o_s_022.jpg,o_s_001.jpg,within,NA,NaN,NA,left,4168.699999809265,1,1,3171.0999994277954
xWv5ZHT3,NA,NA,xWv5ZHT3,2020-0188,2021-09-26,11:25:27,13:06:37,NA,incomplete,false,NA,true,4,6,NA,NA,left,NA,NA,i_s_016.jpg,o_s_014.jpg,within,NA,NaN,NA,right,3216,0,1,2874.7000007629395
xWv5ZHT3,NA,NA,xWv5ZHT3,2020-0188,2021-09-26,11:25:27,13:06:37,NA,incomplete,false,NA,true,4,7,NA,NA,left,NA,NA,c_1_017.jpg,c_2_019.jpg,within,NA,NaN,NA,left,2338.5,1,1,1220.6999998092651
xWv5ZHT3,NA,NA,xWv5ZHT3,2020-0188,2021-09-26,11:25:27,13:06:37,NA,incomplete,false,NA,true,4,8,NA,NA,left,NA,NA,m_s_028.jpg,n_l_002.jpg,within,NA,NaN,NA,right,2293.0999994277954,0,1,2789.699999809265
xWv5ZHT3,NA,NA,xWv5ZHT3,2020-0188,2021-09-26,11:25:27,13:06:37,NA,incomplete,false,NA,true,4,9,NA,NA,left,NA,NA,c_2_014.jpg,a_2_026.jpg,between-small,NA,NaN,NA,left,8321,1,2,8636.699999809265
xWv5ZHT3,NA,NA,xWv5ZHT3,2020-0188,2021-09-26,11:25:27,13:06:37,NA,incomplete,false,NA,true,4,10,NA,NA,right,NA,NA,i_s_002.jpg,n_l_024.jpg,between-big,NA,NaN,NA,right,8169.299999237061,1,1,1846
xWv5ZHT3,NA,NA,xWv5ZHT3,2020-0188,2021-09-26,11:25:27,13:06:37,NA,incomplete,false,NA,true,4,11,NA,NA,left,NA,NA,n_l_028.jpg,o_c_026.jpg,between-big,NA,NaN,NA,left,7308,1,1,2665
xWv5ZHT3,NA,NA,xWv5ZHT3,2020-0188,2021-09-26,11:25:27,13:06:37,NA,incomplete,false,NA,true,4,12,NA,NA,left,NA,NA,c_1_004.jpg,c_2_014.jpg,within,NA,NaN,NA,left,3146.1000003814697,1,1,4436.900000572205
xWv5ZHT3,NA,NA,xWv5ZHT3,2020-0188,2021-09-26,11:25:27,13:06:37,NA,incomplete,false,NA,true,4,13,NA,NA,right,NA,NA,a_1_020.jpg,c_1_001.jpg,within,NA,NaN,NA,left,2209.7999992370605,0,1,1474.4000005722046
xWv5ZHT3,NA,NA,xWv5ZHT3,2020-0188,2021-09-26,11:25:27,13:06:37,NA,incomplete,false,NA,true,4,14,NA,NA,right,NA,NA,c_1_022.jpg,i_c_028.jpg,between-big,NA,NaN,NA,right,2063.300000190735,1,2,2921.3999996185303
xWv5ZHT3,NA,NA,xWv5ZHT3,2020-0188,2021-09-26,11:25:27,13:06:37,NA,incomplete,false,NA,true,4,15,NA,NA,right,NA,NA,n_l_028.jpg,n_l_013.jpg,within,NA,NaN,NA,left,3030.300000190735,0,1,1097.5
xWv5ZHT3,NA,NA,xWv5ZHT3,2020-0188,2021-09-26,11:25:27,13:06:37,NA,incomplete,false,NA,true,4,16,NA,NA,left,NA,NA,a_2_011.jpg,c_1_017.jpg,between-small,NA,NaN,NA,right,1636.0999994277954,0,1,1183.5
xWv5ZHT3,NA,NA,xWv5ZHT3,2020-0188,2021-09-26,11:25:27,13:06:37,NA,incomplete,false,NA,true,4,17,NA,NA,left,NA,NA,i_s_002.jpg,o_c_001.jpg,within,NA,NaN,NA,right,1066.9000005722046,0,1,2303.699999809265
xWv5ZHT3,NA,NA,xWv5ZHT3,2020-0188,2021-09-26,11:25:27,13:06:37,NA,incomplete,false,NA,true,4,18,NA,NA,left,NA,NA,i_s_010.jpg,i_c_028.jpg,between-small,NA,NaN,NA,left,2339.1000003814697,1,1,1494.1000003814697
xWv5ZHT3,NA,NA,xWv5ZHT3,2020-0188,2021-09-26,11:25:27,13:06:37,NA,incomplete,false,NA,true,4,19,NA,NA,right,NA,NA,n_l_013.jpg,n_l_002.jpg,between-small,NA,NaN,NA,right,1645.8999996185303,1,2,3714.300000190735
xWv5ZHT3,NA,NA,xWv5ZHT3,2020-0188,2021-09-26,11:25:27,13:06:37,NA,incomplete,false,NA,true,4,20,NA,NA,left,NA,NA,o_s_005.jpg,i_s_010.jpg,within,NA,NaN,NA,left,3743.6000003814697,1,2,3300.2999992370605
xWv5ZHT3,NA,NA,xWv5ZHT3,2020-0188,2021-09-26,11:25:27,13:06:37,NA,incomplete,false,NA,true,4,21,NA,NA,left,NA,NA,o_s_014.jpg,c_1_004.jpg,between-big,NA,NaN,NA,left,3158.1000003814697,1,2,3400.3999996185303
xWv5ZHT3,NA,NA,xWv5ZHT3,2020-0188,2021-09-26,11:25:27,13:06:37,NA,incomplete,false,NA,true,4,22,NA,NA,right,NA,NA,c_1_001.jpg,a_1_010.jpg,between-small,NA,NaN,NA,right,4561.400000572205,1,1,1544.9000005722046
xWv5ZHT3,NA,NA,xWv5ZHT3,2020-0188,2021-09-26,11:25:27,13:06:37,NA,incomplete,false,NA,true,4,23,NA,NA,left,NA,NA,m_s_020.jpg,n_l_024.jpg,between-small,NA,NaN,NA,right,4191.400000572205,0,2,2764.6000003814697
xWv5ZHT3,NA,NA,xWv5ZHT3,2020-0188,2021-09-26,11:25:27,13:06:37,NA,incomplete,false,NA,true,4,24,NA,NA,left,NA,NA,n_l_007.jpg,n_l_001.jpg,between-small,NA,NaN,NA,left,2581.199999809265,1,1,2201.1000003814697
xWv5ZHT3,NA,NA,xWv5ZHT3,2020-0188,2021-09-26,11:25:27,13:06:37,NA,incomplete,false,NA,true,4,25,NA,NA,left,NA,NA,m_s_005.jpg,o_s_005.jpg,between-big,NA,NaN,NA,right,2565.300000190735,0,1,1523.3999996185303
xWv5ZHT3,NA,NA,xWv5ZHT3,2020-0188,2021-09-26,11:25:27,13:06:37,NA,incomplete,false,NA,true,4,26,NA,NA,right,NA,NA,m_s_020.jpg,n_s_020.jpg,within,NA,NaN,NA,right,2153,1,3,3236.5999994277954
xWv5ZHT3,NA,NA,xWv5ZHT3,2020-0188,2021-09-26,11:25:27,13:06:37,NA,incomplete,false,true,NA,5,0,origin,m_l_024.jpg,left,manmade,natural,NA,NA,NA,left,2739.5,true,NA,NA,NA,NA,NA
xWv5ZHT3,NA,NA,xWv5ZHT3,2020-0188,2021-09-26,11:25:27,13:06:37,NA,incomplete,false,true,NA,5,1,origin,n_l_020.jpg,left,natural,manmade,NA,NA,NA,left,1615,true,NA,NA,NA,NA,NA
xWv5ZHT3,NA,NA,xWv5ZHT3,2020-0188,2021-09-26,11:25:27,13:06:37,NA,incomplete,false,true,NA,5,2,origin,m_l_013.jpg,left,manmade,natural,NA,NA,NA,left,1001.69999980927,true,NA,NA,NA,NA,NA
xWv5ZHT3,NA,NA,xWv5ZHT3,2020-0188,2021-09-26,11:25:27,13:06:37,NA,incomplete,false,true,NA,5,3,origin,m_s_003.jpg,left,manmade,natural,NA,NA,NA,left,1601.39999961853,true,NA,NA,NA,NA,NA
xWv5ZHT3,NA,NA,xWv5ZHT3,2020-0188,2021-09-26,11:25:27,13:06:37,NA,incomplete,false,true,NA,5,4,origin,n_s_007.jpg,left,natural,manmade,NA,NA,NA,left,2745.10000038147,true,NA,NA,NA,NA,NA
xWv5ZHT3,NA,NA,xWv5ZHT3,2020-0188,2021-09-26,11:25:27,13:06:37,NA,incomplete,false,true,NA,5,5,size,m_l_021.jpg,right,small,large,NA,NA,NA,right,3117.39999961853,true,NA,NA,NA,NA,NA
xWv5ZHT3,NA,NA,xWv5ZHT3,2020-0188,2021-09-26,11:25:27,13:06:37,NA,incomplete,false,true,NA,5,6,size,m_l_010.jpg,left,large,small,NA,NA,NA,left,1252.79999923706,true,NA,NA,NA,NA,NA
xWv5ZHT3,NA,NA,xWv5ZHT3,2020-0188,2021-09-26,11:25:27,13:06:37,NA,incomplete,false,true,NA,5,7,size,m_l_011.jpg,right,small,large,NA,NA,NA,right,1596.19999980927,true,NA,NA,NA,NA,NA
xWv5ZHT3,NA,NA,xWv5ZHT3,2020-0188,2021-09-26,11:25:27,13:06:37,NA,incomplete,false,true,NA,5,8,size,n_l_010.jpg,right,small,large,NA,NA,NA,right,1698.80000019073,true,NA,NA,NA,NA,NA
xWv5ZHT3,NA,NA,xWv5ZHT3,2020-0188,2021-09-26,11:25:27,13:06:37,NA,incomplete,false,true,NA,5,9,size,n_l_026.jpg,right,small,large,NA,NA,NA,right,2461.5999994278,true,NA,NA,NA,NA,NA
xWv5ZHT3,NA,NA,xWv5ZHT3,2020-0188,2021-09-26,11:25:27,13:06:37,NA,incomplete,false,true,NA,5,10,location,i_c_026.jpg,left,indoor,outdoor,NA,NA,NA,left,3104.20000076294,true,NA,NA,NA,NA,NA
xWv5ZHT3,NA,NA,xWv5ZHT3,2020-0188,2021-09-26,11:25:27,13:06:37,NA,incomplete,false,true,NA,5,11,location,o_s_009.jpg,right,indoor,outdoor,NA,NA,NA,right,1216.80000019073,true,NA,NA,NA,NA,NA
xWv5ZHT3,NA,NA,xWv5ZHT3,2020-0188,2021-09-26,11:25:27,13:06:37,NA,incomplete,false,true,NA,5,12,location,o_s_027.jpg,left,outdoor,indoor,NA,NA,NA,left,2104.0999994278,true,NA,NA,NA,NA,NA
xWv5ZHT3,NA,NA,xWv5ZHT3,2020-0188,2021-09-26,11:25:27,13:06:37,NA,incomplete,false,true,NA,5,13,location,o_s_025.jpg,left,outdoor,indoor,NA,NA,NA,left,1480.89999961853,true,NA,NA,NA,NA,NA
xWv5ZHT3,NA,NA,xWv5ZHT3,2020-0188,2021-09-26,11:25:27,13:06:37,NA,incomplete,false,true,NA,5,14,location,o_c_018.jpg,right,indoor,outdoor,NA,NA,NA,right,1432.69999980927,true,NA,NA,NA,NA,NA
xWv5ZHT3,NA,NA,xWv5ZHT3,2020-0188,2021-09-26,11:25:27,13:06:37,NA,incomplete,false,true,NA,5,15,building,i_c_027.jpg,right,skyscraper,cottage,NA,NA,NA,right,1778.10000038147,true,NA,NA,NA,NA,NA
xWv5ZHT3,NA,NA,xWv5ZHT3,2020-0188,2021-09-26,11:25:27,13:06:37,NA,incomplete,false,true,NA,5,16,building,i_c_014.jpg,right,skyscraper,cottage,NA,NA,NA,right,1283.69999980927,true,NA,NA,NA,NA,NA
xWv5ZHT3,NA,NA,xWv5ZHT3,2020-0188,2021-09-26,11:25:27,13:06:37,NA,incomplete,false,true,NA,5,17,building,i_c_011.jpg,left,cottage,skyscraper,NA,NA,NA,left,1169.89999961853,true,NA,NA,NA,NA,NA
xWv5ZHT3,NA,NA,xWv5ZHT3,2020-0188,2021-09-26,11:25:27,13:06:37,NA,incomplete,false,true,NA,5,18,building,o_c_022.jpg,left,cottage,skyscraper,NA,NA,NA,left,2028.19999980927,true,NA,NA,NA,NA,NA
xWv5ZHT3,NA,NA,xWv5ZHT3,2020-0188,2021-09-26,11:25:27,13:06:37,NA,incomplete,false,true,NA,5,19,building,o_c_007.jpg,left,cottage,skyscraper,NA,NA,NA,left,1098.0999994278,true,NA,NA,NA,NA,NA
xWv5ZHT3,NA,NA,xWv5ZHT3,2020-0188,2021-09-26,11:25:27,13:06:37,NA,incomplete,false,true,NA,5,20,abstractness,c_2_013.jpg,right,abstract,concrete,NA,NA,NA,right,2232.80000019073,true,NA,NA,NA,NA,NA
xWv5ZHT3,NA,NA,xWv5ZHT3,2020-0188,2021-09-26,11:25:27,13:06:37,NA,incomplete,false,true,NA,5,21,abstractness,c_1_014.jpg,left,concrete,abstract,NA,NA,NA,left,1997.89999961853,true,NA,NA,NA,NA,NA
xWv5ZHT3,NA,NA,xWv5ZHT3,2020-0188,2021-09-26,11:25:27,13:06:37,NA,incomplete,false,true,NA,5,22,abstractness,a_2_007.jpg,right,concrete,abstract,NA,NA,NA,none,0,false,NA,NA,NA,NA,NA
xWv5ZHT3,NA,NA,xWv5ZHT3,2020-0188,2021-09-26,11:25:27,13:06:37,NA,incomplete,false,true,NA,5,23,abstractness,c_1_021.jpg,right,abstract,concrete,NA,NA,NA,left,1601.89999961853,false,NA,NA,NA,NA,NA
xWv5ZHT3,NA,NA,xWv5ZHT3,2020-0188,2021-09-26,11:25:27,13:06:37,NA,incomplete,false,true,NA,5,24,abstractness,c_2_021.jpg,right,abstract,concrete,NA,NA,NA,right,1655.80000019073,true,NA,NA,NA,NA,NA
xWv5ZHT3,NA,NA,xWv5ZHT3,2020-0188,2021-09-26,11:25:27,13:06:37,NA,incomplete,false,true,NA,5,25,syllable,c_2_027.jpg,right,2 syllables,1 syllable,NA,NA,NA,left,2176.0999994278,false,NA,NA,NA,NA,NA
xWv5ZHT3,NA,NA,xWv5ZHT3,2020-0188,2021-09-26,11:25:27,13:06:37,NA,incomplete,false,true,NA,5,26,syllable,c_1_027.jpg,right,2 syllables,1 syllable,NA,NA,NA,right,1075.69999980927,true,NA,NA,NA,NA,NA
xWv5ZHT3,NA,NA,xWv5ZHT3,2020-0188,2021-09-26,11:25:27,13:06:37,NA,incomplete,false,true,NA,5,27,syllable,a_2_022.jpg,right,2 syllables,1 syllable,NA,NA,NA,left,1347.10000038147,false,NA,NA,NA,NA,NA
xWv5ZHT3,NA,NA,xWv5ZHT3,2020-0188,2021-09-26,11:25:27,13:06:37,NA,incomplete,false,true,NA,5,28,syllable,a_1_007.jpg,right,2 syllables,1 syllable,NA,NA,NA,right,1016.19999980927,true,NA,NA,NA,NA,NA
xWv5ZHT3,NA,NA,xWv5ZHT3,2020-0188,2021-09-26,11:25:27,13:06:37,NA,incomplete,false,true,NA,5,29,syllable,c_2_020.jpg,right,1 syllable,2 syllables,NA,NA,NA,right,1349.69999980927,true,NA,NA,NA,NA,NA
xWv5ZHT3,NA,NA,xWv5ZHT3,2020-0188,2021-09-26,11:25:27,13:06:37,NA,incomplete,false,NA,true,5,0,NA,NA,left,NA,NA,o_c_022.jpg,c_1_014.jpg,between-big,NA,NaN,NA,left,3804,1,2,3247.3999996185303
xWv5ZHT3,NA,NA,xWv5ZHT3,2020-0188,2021-09-26,11:25:27,13:06:37,NA,incomplete,false,NA,true,5,1,NA,NA,right,NA,NA,m_s_003.jpg,m_l_024.jpg,within,NA,NaN,NA,left,3203.300000190735,0,2,1927.3000001907349
xWv5ZHT3,NA,NA,xWv5ZHT3,2020-0188,2021-09-26,11:25:27,13:06:37,NA,incomplete,false,NA,true,5,2,NA,NA,right,NA,NA,a_2_022.jpg,c_2_021.jpg,between-small,NA,NaN,NA,left,4744.10000038147,0,1,925.8999996185303
xWv5ZHT3,NA,NA,xWv5ZHT3,2020-0188,2021-09-26,11:25:27,13:06:37,NA,incomplete,false,NA,true,5,3,NA,NA,right,NA,NA,c_1_021.jpg,c_2_013.jpg,within,NA,NaN,NA,left,2390.7999992370605,0,1,1047.8000001907349
xWv5ZHT3,NA,NA,xWv5ZHT3,2020-0188,2021-09-26,11:25:27,13:06:37,NA,incomplete,false,NA,true,5,4,NA,NA,right,NA,NA,i_c_026.jpg,m_l_011.jpg,between-big,NA,NaN,NA,left,1946.5,0,2,1903.3000001907349
xWv5ZHT3,NA,NA,xWv5ZHT3,2020-0188,2021-09-26,11:25:27,13:06:37,NA,incomplete,false,NA,true,5,5,NA,NA,right,NA,NA,o_c_007.jpg,i_c_014.jpg,within,NA,NaN,NA,left,1727.7999992370605,0,1,1235
xWv5ZHT3,NA,NA,xWv5ZHT3,2020-0188,2021-09-26,11:25:27,13:06:37,NA,incomplete,false,NA,true,5,6,NA,NA,right,NA,NA,n_l_010.jpg,m_l_021.jpg,within,NA,NaN,NA,left,1470.4000005722046,0,1,2690.4000005722046
xWv5ZHT3,NA,NA,xWv5ZHT3,2020-0188,2021-09-26,11:25:27,13:06:37,NA,incomplete,false,NA,true,5,7,NA,NA,left,NA,NA,c_1_014.jpg,c_2_021.jpg,within,NA,NaN,NA,left,1213.1000003814697,1,1,1734.8000001907349
xWv5ZHT3,NA,NA,xWv5ZHT3,2020-0188,2021-09-26,11:25:27,13:06:37,NA,incomplete,false,NA,true,5,8,NA,NA,right,NA,NA,i_c_027.jpg,o_s_027.jpg,between-small,NA,NaN,NA,left,3216.699999809265,0,1,953.3000001907349
xWv5ZHT3,NA,NA,xWv5ZHT3,2020-0188,2021-09-26,11:25:27,13:06:37,NA,incomplete,false,NA,true,5,9,NA,NA,right,NA,NA,m_l_011.jpg,n_s_007.jpg,between-small,NA,NaN,NA,right,2564.8999996185303,1,2,4458
xWv5ZHT3,NA,NA,xWv5ZHT3,2020-0188,2021-09-26,11:25:27,13:06:37,NA,incomplete,false,NA,true,5,10,NA,NA,left,NA,NA,n_l_020.jpg,n_s_007.jpg,within,NA,NaN,NA,left,2055,1,2,1630.6000003814697
xWv5ZHT3,NA,NA,xWv5ZHT3,2020-0188,2021-09-26,11:25:27,13:06:37,NA,incomplete,false,NA,true,5,11,NA,NA,left,NA,NA,o_c_007.jpg,a_2_007.jpg,between-big,NA,NaN,NA,left,2653.699999809265,1,2,1791.6000003814697
xWv5ZHT3,NA,NA,xWv5ZHT3,2020-0188,2021-09-26,11:25:27,13:06:37,NA,incomplete,false,NA,true,5,12,NA,NA,right,NA,NA,i_c_011.jpg,o_c_018.jpg,between-small,NA,NaN,NA,left,4490.39999961853,0,1,1729.9000005722046
xWv5ZHT3,NA,NA,xWv5ZHT3,2020-0188,2021-09-26,11:25:27,13:06:37,NA,incomplete,false,NA,true,5,13,NA,NA,right,NA,NA,m_l_010.jpg,m_s_003.jpg,between-small,NA,NaN,NA,left,2034.9000005722046,0,1,1134.6999998092651
xWv5ZHT3,NA,NA,xWv5ZHT3,2020-0188,2021-09-26,11:25:27,13:06:37,NA,incomplete,false,NA,true,5,14,NA,NA,right,NA,NA,i_c_014.jpg,o_s_025.jpg,between-small,NA,NaN,NA,left,2061.6000003814697,0,2,1230.8000001907349
xWv5ZHT3,NA,NA,xWv5ZHT3,2020-0188,2021-09-26,11:25:27,13:06:37,NA,incomplete,false,NA,true,5,15,NA,NA,right,NA,NA,c_2_020.jpg,c_1_027.jpg,within,NA,NaN,NA,right,1791,1,0,1755
xWv5ZHT3,NA,NA,xWv5ZHT3,2020-0188,2021-09-26,11:25:27,13:06:37,NA,incomplete,false,NA,true,5,16,NA,NA,right,NA,NA,a_1_007.jpg,c_2_027.jpg,within,NA,NaN,NA,right,5831.60000038147,1,1,1902.3999996185303
xWv5ZHT3,NA,NA,xWv5ZHT3,2020-0188,2021-09-26,11:25:27,13:06:37,NA,incomplete,false,NA,true,5,17,NA,NA,left,NA,NA,m_l_010.jpg,n_l_026.jpg,within,NA,NaN,NA,right,3688.7000007629395,0,2,3443.8999996185303
xWv5ZHT3,NA,NA,xWv5ZHT3,2020-0188,2021-09-26,11:25:27,13:06:37,NA,incomplete,false,NA,true,5,18,NA,NA,right,NA,NA,c_1_027.jpg,c_1_021.jpg,between-small,NA,NaN,NA,left,1987,0,1,1150.6999998092651
xWv5ZHT3,NA,NA,xWv5ZHT3,2020-0188,2021-09-26,11:25:27,13:06:37,NA,incomplete,false,NA,true,5,19,NA,NA,left,NA,NA,a_2_007.jpg,c_2_027.jpg,between-small,NA,NaN,NA,left,2682.300000190735,1,1,1645.3000001907349
xWv5ZHT3,NA,NA,xWv5ZHT3,2020-0188,2021-09-26,11:25:27,13:06:37,NA,incomplete,false,NA,true,5,20,NA,NA,left,NA,NA,i_c_011.jpg,c_2_013.jpg,between-big,NA,NaN,NA,left,2370.699999809265,1,2,1847.7000007629395
xWv5ZHT3,NA,NA,xWv5ZHT3,2020-0188,2021-09-26,11:25:27,13:06:37,NA,incomplete,false,NA,true,5,21,NA,NA,left,NA,NA,i_c_026.jpg,o_s_025.jpg,within,NA,NaN,NA,left,1697.1999998092651,1,2,1555.1999998092651
xWv5ZHT3,NA,NA,xWv5ZHT3,2020-0188,2021-09-26,11:25:27,13:06:37,NA,incomplete,false,NA,true,5,22,NA,NA,left,NA,NA,i_c_027.jpg,o_c_022.jpg,within,NA,NaN,NA,right,4492.199999809265,0,1,1141.8000001907349
xWv5ZHT3,NA,NA,xWv5ZHT3,2020-0188,2021-09-26,11:25:27,13:06:37,NA,incomplete,false,NA,true,5,23,NA,NA,left,NA,NA,n_l_010.jpg,o_s_009.jpg,between-big,NA,NaN,NA,left,3406.5,1,2,1107.2999992370605
xWv5ZHT3,NA,NA,xWv5ZHT3,2020-0188,2021-09-26,11:25:27,13:06:37,NA,incomplete,false,NA,true,5,24,NA,NA,right,NA,NA,o_c_018.jpg,o_s_009.jpg,within,NA,NaN,NA,left,1834.9000005722046,0,1,1929.8999996185303
xWv5ZHT3,NA,NA,xWv5ZHT3,2020-0188,2021-09-26,11:25:27,13:06:37,NA,incomplete,false,NA,true,5,25,NA,NA,left,NA,NA,m_l_013.jpg,m_l_021.jpg,between-small,NA,NaN,NA,left,3338,1,1,5131.300000190735
xWv5ZHT3,NA,NA,xWv5ZHT3,2020-0188,2021-09-26,11:25:27,13:06:37,NA,incomplete,false,NA,true,5,26,NA,NA,right,NA,NA,o_s_027.jpg,n_l_026.jpg,between-big,NA,NaN,NA,left,3010.800000190735,0,2,2062.6000003814697
xWv5ZHT3,NA,NA,xWv5ZHT3,2020-0188,2021-09-26,11:25:27,13:06:37,NA,incomplete,false,true,NA,6,0,location,i_s_008.jpg,left,indoor,outdoor,NA,NA,NA,left,1510.5999994278,true,NA,NA,NA,NA,NA
xWv5ZHT3,NA,NA,xWv5ZHT3,2020-0188,2021-09-26,11:25:27,13:06:37,NA,incomplete,false,true,NA,6,1,location,i_c_016.jpg,right,outdoor,indoor,NA,NA,NA,right,1404.69999980927,true,NA,NA,NA,NA,NA
xWv5ZHT3,NA,NA,xWv5ZHT3,2020-0188,2021-09-26,11:25:27,13:06:37,NA,incomplete,false,true,NA,6,2,location,o_s_015.jpg,left,outdoor,indoor,NA,NA,NA,left,1427.0999994278,true,NA,NA,NA,NA,NA
xWv5ZHT3,NA,NA,xWv5ZHT3,2020-0188,2021-09-26,11:25:27,13:06:37,NA,incomplete,false,true,NA,6,3,location,o_c_004.jpg,left,outdoor,indoor,NA,NA,NA,left,853.60000038147,true,NA,NA,NA,NA,NA
xWv5ZHT3,NA,NA,xWv5ZHT3,2020-0188,2021-09-26,11:25:27,13:06:37,NA,incomplete,false,true,NA,6,4,location,i_s_015.jpg,left,indoor,outdoor,NA,NA,NA,left,2252.20000076294,true,NA,NA,NA,NA,NA
xWv5ZHT3,NA,NA,xWv5ZHT3,2020-0188,2021-09-26,11:25:27,13:06:37,NA,incomplete,false,true,NA,6,5,building,o_s_023.jpg,left,skyscraper,cottage,NA,NA,NA,left,1310.30000019073,true,NA,NA,NA,NA,NA
xWv5ZHT3,NA,NA,xWv5ZHT3,2020-0188,2021-09-26,11:25:27,13:06:37,NA,incomplete,false,true,NA,6,6,building,o_c_016.jpg,right,skyscraper,cottage,NA,NA,NA,right,1560.20000076294,true,NA,NA,NA,NA,NA
xWv5ZHT3,NA,NA,xWv5ZHT3,2020-0188,2021-09-26,11:25:27,13:06:37,NA,incomplete,false,true,NA,6,7,building,o_s_011.jpg,right,cottage,skyscraper,NA,NA,NA,right,1209.39999961853,true,NA,NA,NA,NA,NA
xWv5ZHT3,NA,NA,xWv5ZHT3,2020-0188,2021-09-26,11:25:27,13:06:37,NA,incomplete,false,true,NA,6,8,building,i_c_024.jpg,left,cottage,skyscraper,NA,NA,NA,left,2348.60000038147,true,NA,NA,NA,NA,NA
xWv5ZHT3,NA,NA,xWv5ZHT3,2020-0188,2021-09-26,11:25:27,13:06:37,NA,incomplete,false,true,NA,6,9,building,o_c_003.jpg,left,cottage,skyscraper,NA,NA,NA,left,1882.39999961853,true,NA,NA,NA,NA,NA
xWv5ZHT3,NA,NA,xWv5ZHT3,2020-0188,2021-09-26,11:25:27,13:06:37,NA,incomplete,false,true,NA,6,10,size,m_l_007.jpg,right,small,large,NA,NA,NA,left,1711.5999994278,false,NA,NA,NA,NA,NA
xWv5ZHT3,NA,NA,xWv5ZHT3,2020-0188,2021-09-26,11:25:27,13:06:37,NA,incomplete,false,true,NA,6,11,size,m_l_022.jpg,right,small,large,NA,NA,NA,right,1549.0999994278,true,NA,NA,NA,NA,NA
xWv5ZHT3,NA,NA,xWv5ZHT3,2020-0188,2021-09-26,11:25:27,13:06:37,NA,incomplete,false,true,NA,6,12,size,n_l_027.jpg,left,large,small,NA,NA,NA,left,1159.39999961853,true,NA,NA,NA,NA,NA
xWv5ZHT3,NA,NA,xWv5ZHT3,2020-0188,2021-09-26,11:25:27,13:06:37,NA,incomplete,false,true,NA,6,13,size,m_s_010.jpg,left,small,large,NA,NA,NA,left,1518.0999994278,true,NA,NA,NA,NA,NA
xWv5ZHT3,NA,NA,xWv5ZHT3,2020-0188,2021-09-26,11:25:27,13:06:37,NA,incomplete,false,true,NA,6,14,size,m_s_007.jpg,right,large,small,NA,NA,NA,right,1427.89999961853,true,NA,NA,NA,NA,NA
xWv5ZHT3,NA,NA,xWv5ZHT3,2020-0188,2021-09-26,11:25:27,13:06:37,NA,incomplete,false,true,NA,6,15,origin,n_s_022.jpg,right,manmade,natural,NA,NA,NA,right,2771.60000038147,true,NA,NA,NA,NA,NA
xWv5ZHT3,NA,NA,xWv5ZHT3,2020-0188,2021-09-26,11:25:27,13:06:37,NA,incomplete,false,true,NA,6,16,origin,n_l_017.jpg,right,manmade,natural,NA,NA,NA,right,2030.5999994278,true,NA,NA,NA,NA,NA
xWv5ZHT3,NA,NA,xWv5ZHT3,2020-0188,2021-09-26,11:25:27,13:06:37,NA,incomplete,false,true,NA,6,17,origin,m_s_006.jpg,right,natural,manmade,NA,NA,NA,left,2308.39999961853,false,NA,NA,NA,NA,NA
xWv5ZHT3,NA,NA,xWv5ZHT3,2020-0188,2021-09-26,11:25:27,13:06:37,NA,incomplete,false,true,NA,6,18,origin,n_s_010.jpg,right,manmade,natural,NA,NA,NA,right,1902.30000019073,true,NA,NA,NA,NA,NA
xWv5ZHT3,NA,NA,xWv5ZHT3,2020-0188,2021-09-26,11:25:27,13:06:37,NA,incomplete,false,true,NA,6,19,origin,m_s_021.jpg,left,manmade,natural,NA,NA,NA,right,2656.5999994278,false,NA,NA,NA,NA,NA
xWv5ZHT3,NA,NA,xWv5ZHT3,2020-0188,2021-09-26,11:25:27,13:06:37,NA,incomplete,false,true,NA,6,20,abstractness,c_2_015.jpg,left,concrete,abstract,NA,NA,NA,left,2300,true,NA,NA,NA,NA,NA
xWv5ZHT3,NA,NA,xWv5ZHT3,2020-0188,2021-09-26,11:25:27,13:06:37,NA,incomplete,false,true,NA,6,21,abstractness,a_2_018.jpg,left,abstract,concrete,NA,NA,NA,left,1865.10000038147,true,NA,NA,NA,NA,NA
xWv5ZHT3,NA,NA,xWv5ZHT3,2020-0188,2021-09-26,11:25:27,13:06:37,NA,incomplete,false,true,NA,6,22,abstractness,a_2_025.jpg,left,abstract,concrete,NA,NA,NA,left,1079.89999961853,true,NA,NA,NA,NA,NA
xWv5ZHT3,NA,NA,xWv5ZHT3,2020-0188,2021-09-26,11:25:27,13:06:37,NA,incomplete,false,true,NA,6,23,abstractness,c_1_011.jpg,right,abstract,concrete,NA,NA,NA,right,2189.69999980927,true,NA,NA,NA,NA,NA
xWv5ZHT3,NA,NA,xWv5ZHT3,2020-0188,2021-09-26,11:25:27,13:06:37,NA,incomplete,false,true,NA,6,24,abstractness,c_1_007.jpg,right,abstract,concrete,NA,NA,NA,right,1351.5,true,NA,NA,NA,NA,NA
xWv5ZHT3,NA,NA,xWv5ZHT3,2020-0188,2021-09-26,11:25:27,13:06:37,NA,incomplete,false,true,NA,6,25,syllable,a_2_010.jpg,right,1 syllable,2 syllables,NA,NA,NA,right,2285.5999994278,true,NA,NA,NA,NA,NA
xWv5ZHT3,NA,NA,xWv5ZHT3,2020-0188,2021-09-26,11:25:27,13:06:37,NA,incomplete,false,true,NA,6,26,syllable,a_2_024.jpg,right,1 syllable,2 syllables,NA,NA,NA,right,1234.0999994278,true,NA,NA,NA,NA,NA
xWv5ZHT3,NA,NA,xWv5ZHT3,2020-0188,2021-09-26,11:25:27,13:06:37,NA,incomplete,false,true,NA,6,27,syllable,c_2_012.jpg,right,2 syllables,1 syllable,NA,NA,NA,right,961.799999237061,true,NA,NA,NA,NA,NA
xWv5ZHT3,NA,NA,xWv5ZHT3,2020-0188,2021-09-26,11:25:27,13:06:37,NA,incomplete,false,true,NA,6,28,syllable,c_1_018.jpg,right,2 syllables,1 syllable,NA,NA,NA,right,1005.60000038147,true,NA,NA,NA,NA,NA
xWv5ZHT3,NA,NA,xWv5ZHT3,2020-0188,2021-09-26,11:25:27,13:06:37,NA,incomplete,false,true,NA,6,29,syllable,c_2_001.jpg,right,2 syllables,1 syllable,NA,NA,NA,left,1388.4000005722,false,NA,NA,NA,NA,NA
xWv5ZHT3,NA,NA,xWv5ZHT3,2020-0188,2021-09-26,11:25:27,13:06:37,NA,incomplete,false,NA,true,6,0,NA,NA,left,NA,NA,c_1_007.jpg,c_2_012.jpg,between-small,NA,NaN,NA,left,3246.7999992370605,1,1,2718.2999992370605
xWv5ZHT3,NA,NA,xWv5ZHT3,2020-0188,2021-09-26,11:25:27,13:06:37,NA,incomplete,false,NA,true,6,1,NA,NA,left,NA,NA,o_c_004.jpg,o_c_016.jpg,between-small,NA,NaN,NA,right,14168.900000572205,0,1,2253.8999996185303
xWv5ZHT3,NA,NA,xWv5ZHT3,2020-0188,2021-09-26,11:25:27,13:06:37,NA,incomplete,false,NA,true,6,2,NA,NA,left,NA,NA,i_s_008.jpg,o_c_004.jpg,within,NA,NaN,NA,left,5320,1,1,1855.6999998092651
xWv5ZHT3,NA,NA,xWv5ZHT3,2020-0188,2021-09-26,11:25:27,13:06:37,NA,incomplete,false,NA,true,6,3,NA,NA,right,NA,NA,a_2_018.jpg,n_s_010.jpg,between-big,NA,NaN,NA,right,1558.0999994277954,1,2,2815.1000003814697
xWv5ZHT3,NA,NA,xWv5ZHT3,2020-0188,2021-09-26,11:25:27,13:06:37,NA,incomplete,false,NA,true,6,4,NA,NA,right,NA,NA,m_l_022.jpg,i_c_024.jpg,between-big,NA,NaN,NA,left,2017.3999996185303,0,2,1983.5
xWv5ZHT3,NA,NA,xWv5ZHT3,2020-0188,2021-09-26,11:25:27,13:06:37,NA,incomplete,false,NA,true,6,5,NA,NA,left,NA,NA,c_1_011.jpg,a_2_024.jpg,between-small,NA,NaN,NA,left,1662.3999996185303,1,1,1744.6000003814697
xWv5ZHT3,NA,NA,xWv5ZHT3,2020-0188,2021-09-26,11:25:27,13:06:37,NA,incomplete,false,NA,true,6,6,NA,NA,right,NA,NA,m_s_021.jpg,n_l_017.jpg,within,NA,NaN,NA,left,2897.199999809265,0,2,3528.4000005722046
xWv5ZHT3,NA,NA,xWv5ZHT3,2020-0188,2021-09-26,11:25:27,13:06:37,NA,incomplete,false,NA,true,6,7,NA,NA,left,NA,NA,n_s_022.jpg,n_s_010.jpg,within,NA,NaN,NA,left,2038.9000005722046,1,1,1963.6999998092651
xWv5ZHT3,NA,NA,xWv5ZHT3,2020-0188,2021-09-26,11:25:27,13:06:37,NA,incomplete,false,NA,true,6,8,NA,NA,left,NA,NA,m_s_007.jpg,m_s_006.jpg,between-small,NA,NaN,NA,left,3085.8999996185303,1,2,1663.5
xWv5ZHT3,NA,NA,xWv5ZHT3,2020-0188,2021-09-26,11:25:27,13:06:37,NA,incomplete,false,NA,true,6,9,NA,NA,left,NA,NA,m_s_006.jpg,c_2_015.jpg,between-big,NA,NaN,NA,left,6186.39999961853,1,2,2951.5
xWv5ZHT3,NA,NA,xWv5ZHT3,2020-0188,2021-09-26,11:25:27,13:06:37,NA,incomplete,false,NA,true,6,10,NA,NA,left,NA,NA,a_2_025.jpg,a_2_010.jpg,between-small,NA,NaN,NA,right,3336.7000007629395,0,1,2701.800000190735
xWv5ZHT3,NA,NA,xWv5ZHT3,2020-0188,2021-09-26,11:25:27,13:06:37,NA,incomplete,false,NA,true,6,11,NA,NA,left,NA,NA,c_2_015.jpg,c_1_011.jpg,within,NA,NaN,NA,right,5184.199999809265,0,1,3248.9000005722046
xWv5ZHT3,NA,NA,xWv5ZHT3,2020-0188,2021-09-26,11:25:27,13:06:37,NA,incomplete,false,NA,true,6,12,NA,NA,right,NA,NA,o_c_003.jpg,o_c_016.jpg,within,NA,NaN,NA,left,3680.7000007629395,0,1,2033.3000001907349
xWv5ZHT3,NA,NA,xWv5ZHT3,2020-0188,2021-09-26,11:25:27,13:06:37,NA,incomplete,false,NA,true,6,13,NA,NA,right,NA,NA,c_1_018.jpg,a_2_010.jpg,within,NA,NaN,NA,left,5194,0,1,1568.0999994277954
xWv5ZHT3,NA,NA,xWv5ZHT3,2020-0188,2021-09-26,11:25:27,13:06:37,NA,incomplete,false,NA,true,6,14,NA,NA,left,NA,NA,m_s_010.jpg,n_l_017.jpg,between-small,NA,NaN,NA,right,2829,0,1,3053.699999809265
xWv5ZHT3,NA,NA,xWv5ZHT3,2020-0188,2021-09-26,11:25:27,13:06:37,NA,incomplete,false,NA,true,6,15,NA,NA,left,NA,NA,m_l_007.jpg,m_s_010.jpg,within,NA,NaN,NA,left,5152.699999809265,1,1,2670.699999809265
xWv5ZHT3,NA,NA,xWv5ZHT3,2020-0188,2021-09-26,11:25:27,13:06:37,NA,incomplete,false,NA,true,6,16,NA,NA,right,NA,NA,a_2_025.jpg,m_s_021.jpg,between-big,NA,NaN,NA,right,2556.300000190735,1,2,1960.8000001907349
xWv5ZHT3,NA,NA,xWv5ZHT3,2020-0188,2021-09-26,11:25:27,13:06:37,NA,incomplete,false,NA,true,6,17,NA,NA,right,NA,NA,o_s_011.jpg,i_s_015.jpg,between-small,NA,NaN,NA,left,3705.8999996185303,0,2,1629.8000001907349
xWv5ZHT3,NA,NA,xWv5ZHT3,2020-0188,2021-09-26,11:25:27,13:06:37,NA,incomplete,false,NA,true,6,18,NA,NA,right,NA,NA,m_s_007.jpg,m_l_022.jpg,within,NA,NaN,NA,left,2417.300000190735,0,1,1336.0999994277954
xWv5ZHT3,NA,NA,xWv5ZHT3,2020-0188,2021-09-26,11:25:27,13:06:37,NA,incomplete,false,NA,true,6,19,NA,NA,left,NA,NA,o_s_011.jpg,m_l_007.jpg,between-big,NA,NaN,NA,left,1390.8000001907349,1,2,1541.8999996185303
xWv5ZHT3,NA,NA,xWv5ZHT3,2020-0188,2021-09-26,11:25:27,13:06:37,NA,incomplete,false,NA,true,6,20,NA,NA,left,NA,NA,o_s_015.jpg,o_s_023.jpg,between-small,NA,NaN,NA,left,1609.5,1,2,1487.8999996185303
xWv5ZHT3,NA,NA,xWv5ZHT3,2020-0188,2021-09-26,11:25:27,13:06:37,NA,incomplete,false,NA,true,6,21,NA,NA,right,NA,NA,i_s_015.jpg,i_c_016.jpg,within,NA,NaN,NA,left,5485.89999961853,0,1,1474
xWv5ZHT3,NA,NA,xWv5ZHT3,2020-0188,2021-09-26,11:25:27,13:06:37,NA,incomplete,false,NA,true,6,22,NA,NA,right,NA,NA,n_s_022.jpg,n_l_027.jpg,between-small,NA,NaN,NA,right,1618.8999996185303,1,0,2013.0999994277954
xWv5ZHT3,NA,NA,xWv5ZHT3,2020-0188,2021-09-26,11:25:27,13:06:37,NA,incomplete,false,NA,true,6,23,NA,NA,left,NA,NA,a_2_024.jpg,c_2_001.jpg,within,NA,NaN,NA,left,2592.800000190735,1,0,1458.1000003814697
xWv5ZHT3,NA,NA,xWv5ZHT3,2020-0188,2021-09-26,11:25:27,13:06:37,NA,incomplete,false,NA,true,6,24,NA,NA,right,NA,NA,i_c_024.jpg,o_s_023.jpg,within,NA,NaN,NA,right,3898.5,1,1,1802.8000001907349
xWv5ZHT3,NA,NA,xWv5ZHT3,2020-0188,2021-09-26,11:25:27,13:06:37,NA,incomplete,false,NA,true,6,25,NA,NA,right,NA,NA,c_1_007.jpg,a_2_018.jpg,within,NA,NaN,NA,left,3528.5999994277954,0,1,1078.8000001907349
xWv5ZHT3,NA,NA,xWv5ZHT3,2020-0188,2021-09-26,11:25:27,13:06:37,NA,incomplete,false,NA,true,6,26,NA,NA,right,NA,NA,n_l_027.jpg,o_c_003.jpg,between-big,NA,NaN,NA,left,994,0,2,3171.5
xWv5ZHT3,NA,NA,xWv5ZHT3,2020-0188,2021-09-26,11:25:27,13:06:37,NA,incomplete,false,true,NA,7,0,origin,n_s_001.jpg,right,manmade,natural,NA,NA,NA,right,1477.30000019073,true,NA,NA,NA,NA,NA
xWv5ZHT3,NA,NA,xWv5ZHT3,2020-0188,2021-09-26,11:25:27,13:06:37,NA,incomplete,false,true,NA,7,1,origin,m_s_023.jpg,right,natural,manmade,NA,NA,NA,right,1492.89999961853,true,NA,NA,NA,NA,NA
xWv5ZHT3,NA,NA,xWv5ZHT3,2020-0188,2021-09-26,11:25:27,13:06:37,NA,incomplete,false,true,NA,7,2,origin,n_l_003.jpg,left,natural,manmade,NA,NA,NA,left,2285.69999980927,true,NA,NA,NA,NA,NA
xWv5ZHT3,NA,NA,xWv5ZHT3,2020-0188,2021-09-26,11:25:27,13:06:37,NA,incomplete,false,true,NA,7,3,origin,n_s_023.jpg,right,manmade,natural,NA,NA,NA,right,1575.69999980927,true,NA,NA,NA,NA,NA
xWv5ZHT3,NA,NA,xWv5ZHT3,2020-0188,2021-09-26,11:25:27,13:06:37,NA,incomplete,false,true,NA,7,4,origin,n_l_015.jpg,right,manmade,natural,NA,NA,NA,right,1289.39999961853,true,NA,NA,NA,NA,NA
xWv5ZHT3,NA,NA,xWv5ZHT3,2020-0188,2021-09-26,11:25:27,13:06:37,NA,incomplete,false,true,NA,7,5,size,m_l_025.jpg,right,small,large,NA,NA,NA,right,1736.5999994278,true,NA,NA,NA,NA,NA
xWv5ZHT3,NA,NA,xWv5ZHT3,2020-0188,2021-09-26,11:25:27,13:06:37,NA,incomplete,false,true,NA,7,6,size,n_s_027.jpg,left,small,large,NA,NA,NA,left,1615.69999980927,true,NA,NA,NA,NA,NA
xWv5ZHT3,NA,NA,xWv5ZHT3,2020-0188,2021-09-26,11:25:27,13:06:37,NA,incomplete,false,true,NA,7,7,size,m_l_019.jpg,right,small,large,NA,NA,NA,right,1434.69999980927,true,NA,NA,NA,NA,NA
xWv5ZHT3,NA,NA,xWv5ZHT3,2020-0188,2021-09-26,11:25:27,13:06:37,NA,incomplete,false,true,NA,7,8,size,n_l_016.jpg,left,large,small,NA,NA,NA,left,1292.39999961853,true,NA,NA,NA,NA,NA
xWv5ZHT3,NA,NA,xWv5ZHT3,2020-0188,2021-09-26,11:25:27,13:06:37,NA,incomplete,false,true,NA,7,9,size,n_l_012.jpg,right,small,large,NA,NA,NA,right,1488.60000038147,true,NA,NA,NA,NA,NA
xWv5ZHT3,NA,NA,xWv5ZHT3,2020-0188,2021-09-26,11:25:27,13:06:37,NA,incomplete,false,true,NA,7,10,location,i_c_010.jpg,left,indoor,outdoor,NA,NA,NA,left,1110.5,true,NA,NA,NA,NA,NA
xWv5ZHT3,NA,NA,xWv5ZHT3,2020-0188,2021-09-26,11:25:27,13:06:37,NA,incomplete,false,true,NA,7,11,location,i_c_005.jpg,left,indoor,outdoor,NA,NA,NA,left,1237.89999961853,true,NA,NA,NA,NA,NA
xWv5ZHT3,NA,NA,xWv5ZHT3,2020-0188,2021-09-26,11:25:27,13:06:37,NA,incomplete,false,true,NA,7,12,location,o_c_008.jpg,left,outdoor,indoor,NA,NA,NA,left,1753.79999923706,true,NA,NA,NA,NA,NA
xWv5ZHT3,NA,NA,xWv5ZHT3,2020-0188,2021-09-26,11:25:27,13:06:37,NA,incomplete,false,true,NA,7,13,location,i_s_009.jpg,left,indoor,outdoor,NA,NA,NA,left,1095.0999994278,true,NA,NA,NA,NA,NA
xWv5ZHT3,NA,NA,xWv5ZHT3,2020-0188,2021-09-26,11:25:27,13:06:37,NA,incomplete,false,true,NA,7,14,location,i_s_013.jpg,right,outdoor,indoor,NA,NA,NA,right,1222,true,NA,NA,NA,NA,NA
xWv5ZHT3,NA,NA,xWv5ZHT3,2020-0188,2021-09-26,11:25:27,13:06:37,NA,incomplete,false,true,NA,7,15,building,o_s_028.jpg,right,cottage,skyscraper,NA,NA,NA,right,1572.10000038147,true,NA,NA,NA,NA,NA
xWv5ZHT3,NA,NA,xWv5ZHT3,2020-0188,2021-09-26,11:25:27,13:06:37,NA,incomplete,false,true,NA,7,16,building,o_s_008.jpg,left,skyscraper,cottage,NA,NA,NA,left,1564.20000076294,true,NA,NA,NA,NA,NA
xWv5ZHT3,NA,NA,xWv5ZHT3,2020-0188,2021-09-26,11:25:27,13:06:37,NA,incomplete,false,true,NA,7,17,building,o_c_019.jpg,right,skyscraper,cottage,NA,NA,NA,right,1710.5,true,NA,NA,NA,NA,NA
xWv5ZHT3,NA,NA,xWv5ZHT3,2020-0188,2021-09-26,11:25:27,13:06:37,NA,incomplete,false,true,NA,7,18,building,i_s_026.jpg,right,cottage,skyscraper,NA,NA,NA,left,1782.10000038147,false,NA,NA,NA,NA,NA
xWv5ZHT3,NA,NA,xWv5ZHT3,2020-0188,2021-09-26,11:25:27,13:06:37,NA,incomplete,false,true,NA,7,19,building,o_s_013.jpg,right,cottage,skyscraper,NA,NA,NA,right,1070.89999961853,true,NA,NA,NA,NA,NA
xWv5ZHT3,NA,NA,xWv5ZHT3,2020-0188,2021-09-26,11:25:27,13:06:37,NA,incomplete,false,true,NA,7,20,abstractness,a_2_023.jpg,left,abstract,concrete,NA,NA,NA,left,2188.60000038147,true,NA,NA,NA,NA,NA
xWv5ZHT3,NA,NA,xWv5ZHT3,2020-0188,2021-09-26,11:25:27,13:06:37,NA,incomplete,false,true,NA,7,21,abstractness,a_1_012.jpg,right,concrete,abstract,NA,NA,NA,right,2230.89999961853,true,NA,NA,NA,NA,NA
xWv5ZHT3,NA,NA,xWv5ZHT3,2020-0188,2021-09-26,11:25:27,13:06:37,NA,incomplete,false,true,NA,7,22,abstractness,c_2_026.jpg,right,abstract,concrete,NA,NA,NA,right,1429.80000019073,true,NA,NA,NA,NA,NA
xWv5ZHT3,NA,NA,xWv5ZHT3,2020-0188,2021-09-26,11:25:27,13:06:37,NA,incomplete,false,true,NA,7,23,abstractness,c_1_020.jpg,right,abstract,concrete,NA,NA,NA,right,1654.19999980927,true,NA,NA,NA,NA,NA
xWv5ZHT3,NA,NA,xWv5ZHT3,2020-0188,2021-09-26,11:25:27,13:06:37,NA,incomplete,false,true,NA,7,24,abstractness,a_2_001.jpg,left,abstract,concrete,NA,NA,NA,left,1622.29999923706,true,NA,NA,NA,NA,NA
xWv5ZHT3,NA,NA,xWv5ZHT3,2020-0188,2021-09-26,11:25:27,13:06:37,NA,incomplete,false,true,NA,7,25,syllable,a_1_004.jpg,right,2 syllables,1 syllable,NA,NA,NA,right,1997.60000038147,true,NA,NA,NA,NA,NA
xWv5ZHT3,NA,NA,xWv5ZHT3,2020-0188,2021-09-26,11:25:27,13:06:37,NA,incomplete,false,true,NA,7,26,syllable,a_2_003.jpg,right,2 syllables,1 syllable,NA,NA,NA,left,1460.4000005722,false,NA,NA,NA,NA,NA
xWv5ZHT3,NA,NA,xWv5ZHT3,2020-0188,2021-09-26,11:25:27,13:06:37,NA,incomplete,false,true,NA,7,27,syllable,a_2_014.jpg,right,2 syllables,1 syllable,NA,NA,NA,left,1084.69999980927,false,NA,NA,NA,NA,NA
xWv5ZHT3,NA,NA,xWv5ZHT3,2020-0188,2021-09-26,11:25:27,13:06:37,NA,incomplete,false,true,NA,7,28,syllable,a_2_016.jpg,right,2 syllables,1 syllable,NA,NA,NA,left,1293.30000019073,false,NA,NA,NA,NA,NA
xWv5ZHT3,NA,NA,xWv5ZHT3,2020-0188,2021-09-26,11:25:27,13:06:37,NA,incomplete,false,true,NA,7,29,syllable,a_1_009.jpg,right,1 syllable,2 syllables,NA,NA,NA,left,1175.69999980927,false,NA,NA,NA,NA,NA
xWv5ZHT3,NA,NA,xWv5ZHT3,2020-0188,2021-09-26,11:25:27,13:06:37,NA,incomplete,false,NA,true,7,0,NA,NA,right,NA,NA,a_1_009.jpg,a_2_003.jpg,within,NA,NaN,NA,left,1379.3000001907349,0,1,2856.800000190735
xWv5ZHT3,NA,NA,xWv5ZHT3,2020-0188,2021-09-26,11:25:27,13:06:37,NA,incomplete,false,NA,true,7,1,NA,NA,right,NA,NA,n_l_015.jpg,m_s_023.jpg,within,NA,NaN,NA,right,5199.800000190735,1,2,3460.0999994277954
xWv5ZHT3,NA,NA,xWv5ZHT3,2020-0188,2021-09-26,11:25:27,13:06:37,NA,incomplete,false,NA,true,7,2,NA,NA,left,NA,NA,o_c_019.jpg,a_2_023.jpg,between-big,NA,NaN,NA,left,11479.10000038147,1,1,8788.70000076294
xWv5ZHT3,NA,NA,xWv5ZHT3,2020-0188,2021-09-26,11:25:27,13:06:37,NA,incomplete,false,NA,true,7,3,NA,NA,right,NA,NA,o_c_019.jpg,i_s_013.jpg,between-small,NA,NaN,NA,left,3283.3999996185303,0,2,18875
xWv5ZHT3,NA,NA,xWv5ZHT3,2020-0188,2021-09-26,11:25:27,13:06:37,NA,incomplete,false,NA,true,7,4,NA,NA,left,NA,NA,o_s_028.jpg,i_s_026.jpg,within,NA,NaN,NA,right,5704.800000190735,0,1,1310.8999996185303
xWv5ZHT3,NA,NA,xWv5ZHT3,2020-0188,2021-09-26,11:25:27,13:06:37,NA,incomplete,false,NA,true,7,5,NA,NA,left,NA,NA,a_2_023.jpg,c_1_020.jpg,within,NA,NaN,NA,right,2552.199999809265,0,1,2279.6000003814697
xWv5ZHT3,NA,NA,xWv5ZHT3,2020-0188,2021-09-26,11:25:27,13:06:37,NA,incomplete,false,NA,true,7,6,NA,NA,right,NA,NA,a_2_003.jpg,c_1_020.jpg,between-small,NA,NaN,NA,left,3417.3999996185303,0,0,2712.5999994277954
xWv5ZHT3,NA,NA,xWv5ZHT3,2020-0188,2021-09-26,11:25:27,13:06:37,NA,incomplete,false,NA,true,7,7,NA,NA,left,NA,NA,n_l_003.jpg,m_l_025.jpg,between-small,NA,NaN,NA,left,3072.800000190735,1,2,1750.5
xWv5ZHT3,NA,NA,xWv5ZHT3,2020-0188,2021-09-26,11:25:27,13:06:37,NA,incomplete,false,NA,true,7,8,NA,NA,right,NA,NA,c_2_026.jpg,o_s_013.jpg,between-big,NA,NaN,NA,left,2700,0,2,3048.1000003814697
xWv5ZHT3,NA,NA,xWv5ZHT3,2020-0188,2021-09-26,11:25:27,13:06:37,NA,incomplete,false,NA,true,7,9,NA,NA,left,NA,NA,a_1_012.jpg,a_2_001.jpg,within,NA,NaN,NA,left,1740.1000003814697,1,1,1902.8000001907349
xWv5ZHT3,NA,NA,xWv5ZHT3,2020-0188,2021-09-26,11:25:27,13:06:37,NA,incomplete,false,NA,true,7,10,NA,NA,left,NA,NA,n_s_027.jpg,n_l_012.jpg,within,NA,NaN,NA,left,1299.1999998092651,1,1,1521.6999998092651
xWv5ZHT3,NA,NA,xWv5ZHT3,2020-0188,2021-09-26,11:25:27,13:06:37,NA,incomplete,false,NA,true,7,11,NA,NA,right,NA,NA,o_s_008.jpg,i_s_009.jpg,between-small,NA,NaN,NA,left,10601.699999809265,0,1,1689.3000001907349
xWv5ZHT3,NA,NA,xWv5ZHT3,2020-0188,2021-09-26,11:25:27,13:06:37,NA,incomplete,false,NA,true,7,12,NA,NA,right,NA,NA,o_c_008.jpg,n_l_012.jpg,between-big,NA,NaN,NA,right,3969.0999994277954,1,2,2090
xWv5ZHT3,NA,NA,xWv5ZHT3,2020-0188,2021-09-26,11:25:27,13:06:37,NA,incomplete,false,NA,true,7,13,NA,NA,left,NA,NA,n_l_016.jpg,i_c_005.jpg,between-big,NA,NaN,NA,left,2763,1,2,3951.800000190735
xWv5ZHT3,NA,NA,xWv5ZHT3,2020-0188,2021-09-26,11:25:27,13:06:37,NA,incomplete,false,NA,true,7,14,NA,NA,left,NA,NA,n_s_023.jpg,n_s_027.jpg,between-small,NA,NaN,NA,right,4876.60000038147,0,1,1714.1999998092651
xWv5ZHT3,NA,NA,xWv5ZHT3,2020-0188,2021-09-26,11:25:27,13:06:37,NA,incomplete,false,NA,true,7,15,NA,NA,right,NA,NA,n_l_016.jpg,m_l_025.jpg,within,NA,NaN,NA,right,1967.9000005722046,1,1,2912.5
xWv5ZHT3,NA,NA,xWv5ZHT3,2020-0188,2021-09-26,11:25:27,13:06:37,NA,incomplete,false,NA,true,7,16,NA,NA,left,NA,NA,i_c_010.jpg,i_s_009.jpg,within,NA,NaN,NA,left,10055.699999809265,1,1,1481
xWv5ZHT3,NA,NA,xWv5ZHT3,2020-0188,2021-09-26,11:25:27,13:06:37,NA,incomplete,false,NA,true,7,17,NA,NA,right,NA,NA,i_s_013.jpg,i_c_005.jpg,within,NA,NaN,NA,left,12485.300000190735,0,1,1679.5
xWv5ZHT3,NA,NA,xWv5ZHT3,2020-0188,2021-09-26,11:25:27,13:06:37,NA,incomplete,false,NA,true,7,18,NA,NA,left,NA,NA,m_l_019.jpg,i_c_010.jpg,between-big,NA,NaN,NA,left,2831.300000190735,1,1,3529.699999809265
xWv5ZHT3,NA,NA,xWv5ZHT3,2020-0188,2021-09-26,11:25:27,13:06:37,NA,incomplete,false,NA,true,7,19,NA,NA,right,NA,NA,n_s_023.jpg,n_s_001.jpg,within,NA,NaN,NA,left,1554.9000005722046,0,1,5661.800000190735
xWv5ZHT3,NA,NA,xWv5ZHT3,2020-0188,2021-09-26,11:25:27,13:06:37,NA,incomplete,false,NA,true,7,20,NA,NA,left,NA,NA,c_2_026.jpg,a_1_004.jpg,between-small,NA,NaN,NA,right,6455.39999961853,0,1,1233.3000001907349
xWv5ZHT3,NA,NA,xWv5ZHT3,2020-0188,2021-09-26,11:25:27,13:06:37,NA,incomplete,false,NA,true,7,21,NA,NA,left,NA,NA,a_1_004.jpg,a_2_016.jpg,within,NA,NaN,NA,left,1908.6000003814697,1,1,1641.8999996185303
xWv5ZHT3,NA,NA,xWv5ZHT3,2020-0188,2021-09-26,11:25:27,13:06:37,NA,incomplete,false,NA,true,7,22,NA,NA,left,NA,NA,n_l_015.jpg,m_l_019.jpg,between-small,NA,NaN,NA,right,3746.8999996185303,0,1,1363.1999998092651
xWv5ZHT3,NA,NA,xWv5ZHT3,2020-0188,2021-09-26,11:25:27,13:06:37,NA,incomplete,false,NA,true,7,23,NA,NA,right,NA,NA,o_s_028.jpg,o_c_008.jpg,between-small,NA,NaN,NA,left,1934.1000003814697,0,1,2448.4000005722046
xWv5ZHT3,NA,NA,xWv5ZHT3,2020-0188,2021-09-26,11:25:27,13:06:37,NA,incomplete,false,NA,true,7,24,NA,NA,right,NA,NA,a_1_012.jpg,i_s_026.jpg,between-big,NA,NaN,NA,right,4335.699999809265,1,2,2273.4000005722046
xWv5ZHT3,NA,NA,xWv5ZHT3,2020-0188,2021-09-26,11:25:27,13:06:37,NA,incomplete,false,NA,true,7,25,NA,NA,right,NA,NA,a_2_014.jpg,a_2_001.jpg,between-small,NA,NaN,NA,left,1956,0,1,1047.1000003814697
xWv5ZHT3,NA,NA,xWv5ZHT3,2020-0188,2021-09-26,11:25:27,13:06:37,NA,incomplete,false,NA,true,7,26,NA,NA,left,NA,NA,o_s_008.jpg,o_s_013.jpg,within,NA,NaN,NA,right,3423.4000005722046,0,1,2140.699999809265
xWv5ZHT3,NA,NA,xWv5ZHT3,2020-0188,2021-09-26,11:25:27,13:06:37,NA,incomplete,false,true,NA,8,0,location,i_c_015.jpg,left,indoor,outdoor,NA,NA,NA,left,1780.80000019073,true,NA,NA,NA,NA,NA
xWv5ZHT3,NA,NA,xWv5ZHT3,2020-0188,2021-09-26,11:25:27,13:06:37,NA,incomplete,false,true,NA,8,1,location,o_c_017.jpg,right,indoor,outdoor,NA,NA,NA,right,1487.20000076294,true,NA,NA,NA,NA,NA
xWv5ZHT3,NA,NA,xWv5ZHT3,2020-0188,2021-09-26,11:25:27,13:06:37,NA,incomplete,false,true,NA,8,2,location,o_c_028.jpg,left,outdoor,indoor,NA,NA,NA,left,1563.5,true,NA,NA,NA,NA,NA
xWv5ZHT3,NA,NA,xWv5ZHT3,2020-0188,2021-09-26,11:25:27,13:06:37,NA,incomplete,false,true,NA,8,3,location,o_c_009.jpg,right,indoor,outdoor,NA,NA,NA,right,921,true,NA,NA,NA,NA,NA
xWv5ZHT3,NA,NA,xWv5ZHT3,2020-0188,2021-09-26,11:25:27,13:06:37,NA,incomplete,false,true,NA,8,4,location,i_c_004.jpg,right,outdoor,indoor,NA,NA,NA,right,1920.39999961853,true,NA,NA,NA,NA,NA
xWv5ZHT3,NA,NA,xWv5ZHT3,2020-0188,2021-09-26,11:25:27,13:06:37,NA,incomplete,false,true,NA,8,5,building,o_c_014.jpg,left,cottage,skyscraper,NA,NA,NA,left,1642.30000019073,true,NA,NA,NA,NA,NA
xWv5ZHT3,NA,NA,xWv5ZHT3,2020-0188,2021-09-26,11:25:27,13:06:37,NA,incomplete,false,true,NA,8,6,building,i_c_003.jpg,left,cottage,skyscraper,NA,NA,NA,left,1347.39999961853,true,NA,NA,NA,NA,NA
xWv5ZHT3,NA,NA,xWv5ZHT3,2020-0188,2021-09-26,11:25:27,13:06:37,NA,incomplete,false,true,NA,8,7,building,i_c_002.jpg,right,skyscraper,cottage,NA,NA,NA,right,1294.60000038147,true,NA,NA,NA,NA,NA
xWv5ZHT3,NA,NA,xWv5ZHT3,2020-0188,2021-09-26,11:25:27,13:06:37,NA,incomplete,false,true,NA,8,8,building,i_c_019.jpg,left,cottage,skyscraper,NA,NA,NA,left,1233.30000019073,true,NA,NA,NA,NA,NA
xWv5ZHT3,NA,NA,xWv5ZHT3,2020-0188,2021-09-26,11:25:27,13:06:37,NA,incomplete,false,true,NA,8,9,building,o_s_021.jpg,right,cottage,skyscraper,NA,NA,NA,right,3092.89999961853,true,NA,NA,NA,NA,NA
xWv5ZHT3,NA,NA,xWv5ZHT3,2020-0188,2021-09-26,11:25:27,13:06:37,NA,incomplete,false,true,NA,8,10,abstractness,c_2_022.jpg,left,concrete,abstract,NA,NA,NA,left,1701.60000038147,true,NA,NA,NA,NA,NA
xWv5ZHT3,NA,NA,xWv5ZHT3,2020-0188,2021-09-26,11:25:27,13:06:37,NA,incomplete,false,true,NA,8,11,abstractness,a_1_026.jpg,left,abstract,concrete,NA,NA,NA,left,2207.89999961853,true,NA,NA,NA,NA,NA
xWv5ZHT3,NA,NA,xWv5ZHT3,2020-0188,2021-09-26,11:25:27,13:06:37,NA,incomplete,false,true,NA,8,12,abstractness,a_2_020.jpg,left,abstract,concrete,NA,NA,NA,left,2062.80000019073,true,NA,NA,NA,NA,NA
xWv5ZHT3,NA,NA,xWv5ZHT3,2020-0188,2021-09-26,11:25:27,13:06:37,NA,incomplete,false,true,NA,8,13,abstractness,c_2_005.jpg,left,concrete,abstract,NA,NA,NA,left,2410.0999994278,true,NA,NA,NA,NA,NA
xWv5ZHT3,NA,NA,xWv5ZHT3,2020-0188,2021-09-26,11:25:27,13:06:37,NA,incomplete,false,true,NA,8,14,abstractness,a_2_021.jpg,left,abstract,concrete,NA,NA,NA,left,2181.60000038147,true,NA,NA,NA,NA,NA
xWv5ZHT3,NA,NA,xWv5ZHT3,2020-0188,2021-09-26,11:25:27,13:06:37,NA,incomplete,false,true,NA,8,15,syllable,c_2_006.jpg,right,1 syllable,2 syllables,NA,NA,NA,left,3224.39999961853,false,NA,NA,NA,NA,NA
xWv5ZHT3,NA,NA,xWv5ZHT3,2020-0188,2021-09-26,11:25:27,13:06:37,NA,incomplete,false,true,NA,8,16,syllable,a_1_006.jpg,right,1 syllable,2 syllables,NA,NA,NA,left,1904.30000019073,false,NA,NA,NA,NA,NA
xWv5ZHT3,NA,NA,xWv5ZHT3,2020-0188,2021-09-26,11:25:27,13:06:37,NA,incomplete,false,true,NA,8,17,syllable,a_1_016.jpg,right,2 syllables,1 syllable,NA,NA,NA,right,952,true,NA,NA,NA,NA,NA
xWv5ZHT3,NA,NA,xWv5ZHT3,2020-0188,2021-09-26,11:25:27,13:06:37,NA,incomplete,false,true,NA,8,18,syllable,c_1_006.jpg,right,1 syllable,2 syllables,NA,NA,NA,left,1544.4000005722,false,NA,NA,NA,NA,NA
xWv5ZHT3,NA,NA,xWv5ZHT3,2020-0188,2021-09-26,11:25:27,13:06:37,NA,incomplete,false,true,NA,8,19,syllable,c_2_028.jpg,right,1 syllable,2 syllables,NA,NA,NA,left,1665.80000019073,false,NA,NA,NA,NA,NA
xWv5ZHT3,NA,NA,xWv5ZHT3,2020-0188,2021-09-26,11:25:27,13:06:37,NA,incomplete,false,true,NA,8,20,size,n_s_009.jpg,left,small,large,NA,NA,NA,left,1549.19999980927,true,NA,NA,NA,NA,NA
xWv5ZHT3,NA,NA,xWv5ZHT3,2020-0188,2021-09-26,11:25:27,13:06:37,NA,incomplete,false,true,NA,8,21,size,n_s_012.jpg,left,small,large,NA,NA,NA,left,1569,true,NA,NA,NA,NA,NA
xWv5ZHT3,NA,NA,xWv5ZHT3,2020-0188,2021-09-26,11:25:27,13:06:37,NA,incomplete,false,true,NA,8,22,size,n_l_014.jpg,right,small,large,NA,NA,NA,right,1147.4000005722,true,NA,NA,NA,NA,NA
xWv5ZHT3,NA,NA,xWv5ZHT3,2020-0188,2021-09-26,11:25:27,13:06:37,NA,incomplete,false,true,NA,8,23,size,m_s_025.jpg,left,small,large,NA,NA,NA,left,1010.5,true,NA,NA,NA,NA,NA
xWv5ZHT3,NA,NA,xWv5ZHT3,2020-0188,2021-09-26,11:25:27,13:06:37,NA,incomplete,false,true,NA,8,24,size,n_l_006.jpg,left,large,small,NA,NA,NA,none,0,false,NA,NA,NA,NA,NA
xWv5ZHT3,NA,NA,xWv5ZHT3,2020-0188,2021-09-26,11:25:27,13:06:37,NA,incomplete,false,true,NA,8,25,origin,m_s_027.jpg,right,natural,manmade,NA,NA,NA,right,1419.79999923706,true,NA,NA,NA,NA,NA
xWv5ZHT3,NA,NA,xWv5ZHT3,2020-0188,2021-09-26,11:25:27,13:06:37,NA,incomplete,false,true,NA,8,26,origin,m_s_013.jpg,right,natural,manmade,NA,NA,NA,right,1896.19999980927,true,NA,NA,NA,NA,NA
xWv5ZHT3,NA,NA,xWv5ZHT3,2020-0188,2021-09-26,11:25:27,13:06:37,NA,incomplete,false,true,NA,8,27,origin,m_l_020.jpg,left,manmade,natural,NA,NA,NA,left,1815.19999980927,true,NA,NA,NA,NA,NA
xWv5ZHT3,NA,NA,xWv5ZHT3,2020-0188,2021-09-26,11:25:27,13:06:37,NA,incomplete,false,true,NA,8,28,origin,m_s_008.jpg,right,natural,manmade,NA,NA,NA,right,1922.39999961853,true,NA,NA,NA,NA,NA
xWv5ZHT3,NA,NA,xWv5ZHT3,2020-0188,2021-09-26,11:25:27,13:06:37,NA,incomplete,false,true,NA,8,29,origin,n_s_004.jpg,left,natural,manmade,NA,NA,NA,left,1753.10000038147,true,NA,NA,NA,NA,NA
xWv5ZHT3,NA,NA,xWv5ZHT3,2020-0188,2021-09-26,11:25:27,13:06:37,NA,incomplete,false,NA,true,8,0,NA,NA,left,NA,NA,a_1_016.jpg,n_s_009.jpg,between-big,NA,NaN,NA,right,1282.8000001907349,0,2,3090.5999994277954
xWv5ZHT3,NA,NA,xWv5ZHT3,2020-0188,2021-09-26,11:25:27,13:06:37,NA,incomplete,false,NA,true,8,1,NA,NA,left,NA,NA,c_2_028.jpg,n_l_014.jpg,between-big,NA,NaN,NA,left,1695,1,2,2397.6000003814697
xWv5ZHT3,NA,NA,xWv5ZHT3,2020-0188,2021-09-26,11:25:27,13:06:37,NA,incomplete,false,NA,true,8,2,NA,NA,right,NA,NA,a_2_020.jpg,o_s_021.jpg,between-big,NA,NaN,NA,right,1289.1999998092651,1,2,2633.300000190735
xWv5ZHT3,NA,NA,xWv5ZHT3,2020-0188,2021-09-26,11:25:27,13:06:37,NA,incomplete,false,NA,true,8,3,NA,NA,right,NA,NA,i_c_002.jpg,i_c_004.jpg,between-small,NA,NaN,NA,right,10716.60000038147,1,1,1211.1000003814697
xWv5ZHT3,NA,NA,xWv5ZHT3,2020-0188,2021-09-26,11:25:27,13:06:37,NA,incomplete,false,NA,true,8,4,NA,NA,right,NA,NA,a_1_026.jpg,i_c_019.jpg,between-big,NA,NaN,NA,right,3849.1000003814697,1,1,1184.1999998092651
xWv5ZHT3,NA,NA,xWv5ZHT3,2020-0188,2021-09-26,11:25:27,13:06:37,NA,incomplete,false,NA,true,8,5,NA,NA,right,NA,NA,n_s_012.jpg,c_1_006.jpg,between-big,NA,NaN,NA,left,6184.099999427795,0,1,1492.4000005722046
xWv5ZHT3,NA,NA,xWv5ZHT3,2020-0188,2021-09-26,11:25:27,13:06:37,NA,incomplete,false,NA,true,8,6,NA,NA,right,NA,NA,m_l_020.jpg,n_l_006.jpg,between-small,NA,NaN,NA,right,9457.199999809265,1,1,1714.0999994277954
xWv5ZHT3,NA,NA,xWv5ZHT3,2020-0188,2021-09-26,11:25:27,13:06:37,NA,incomplete,false,NA,true,8,7,NA,NA,left,NA,NA,i_c_002.jpg,c_2_022.jpg,between-big,NA,NaN,NA,left,10972.199999809265,1,1,4718.39999961853
xWv5ZHT3,NA,NA,xWv5ZHT3,2020-0188,2021-09-26,11:25:27,13:06:37,NA,incomplete,false,NA,true,8,8,NA,NA,right,NA,NA,a_1_016.jpg,a_2_021.jpg,between-small,NA,NaN,NA,left,2062.5,0,2,1650.9000005722046
xWv5ZHT3,NA,NA,xWv5ZHT3,2020-0188,2021-09-26,11:25:27,13:06:37,NA,incomplete,false,NA,true,8,9,NA,NA,right,NA,NA,c_2_028.jpg,a_1_006.jpg,within,NA,NaN,NA,left,989.7000007629395,0,1,2712.4000005722046
xWv5ZHT3,NA,NA,xWv5ZHT3,2020-0188,2021-09-26,11:25:27,13:06:37,NA,incomplete,false,NA,true,8,10,NA,NA,right,NA,NA,c_2_006.jpg,a_2_020.jpg,between-small,NA,NaN,NA,right,12682.800000190735,1,1,1502
xWv5ZHT3,NA,NA,xWv5ZHT3,2020-0188,2021-09-26,11:25:27,13:06:37,NA,incomplete,false,NA,true,8,11,NA,NA,left,NA,NA,n_l_014.jpg,m_s_027.jpg,between-small,NA,NaN,NA,right,3141.199999809265,0,1,1498.8999996185303
xWv5ZHT3,NA,NA,xWv5ZHT3,2020-0188,2021-09-26,11:25:27,13:06:37,NA,incomplete,false,NA,true,8,12,NA,NA,right,NA,NA,o_c_014.jpg,o_c_028.jpg,between-small,NA,NaN,NA,left,3901.300000190735,0,1,1683
xWv5ZHT3,NA,NA,xWv5ZHT3,2020-0188,2021-09-26,11:25:27,13:06:37,NA,incomplete,false,NA,true,8,13,NA,NA,left,NA,NA,a_1_026.jpg,a_2_021.jpg,within,NA,NaN,NA,left,4462,1,1,1865.5999994277954
xWv5ZHT3,NA,NA,xWv5ZHT3,2020-0188,2021-09-26,11:25:27,13:06:37,NA,incomplete,false,NA,true,8,14,NA,NA,right,NA,NA,o_c_009.jpg,i_c_015.jpg,within,NA,NaN,NA,right,3164.5999994277954,1,2,1434.7000007629395
xWv5ZHT3,NA,NA,xWv5ZHT3,2020-0188,2021-09-26,11:25:27,13:06:37,NA,incomplete,false,NA,true,8,15,NA,NA,right,NA,NA,m_s_013.jpg,m_s_025.jpg,between-small,NA,NaN,NA,left,1816.1999998092651,0,2,1546.0999994277954
xWv5ZHT3,NA,NA,xWv5ZHT3,2020-0188,2021-09-26,11:25:27,13:06:37,NA,incomplete,false,NA,true,8,16,NA,NA,left,NA,NA,m_s_027.jpg,m_s_008.jpg,within,NA,NaN,NA,left,2955.199999809265,1,2,1582.4000005722046
xWv5ZHT3,NA,NA,xWv5ZHT3,2020-0188,2021-09-26,11:25:27,13:06:37,NA,incomplete,false,NA,true,8,17,NA,NA,left,NA,NA,n_s_009.jpg,m_s_025.jpg,within,NA,NaN,NA,left,969.5,1,2,1398.5
xWv5ZHT3,NA,NA,xWv5ZHT3,2020-0188,2021-09-26,11:25:27,13:06:37,NA,incomplete,false,NA,true,8,18,NA,NA,right,NA,NA,c_2_005.jpg,c_2_022.jpg,within,NA,NaN,NA,right,1501.4000005722046,1,1,1093.1000003814697
xWv5ZHT3,NA,NA,xWv5ZHT3,2020-0188,2021-09-26,11:25:27,13:06:37,NA,incomplete,false,NA,true,8,19,NA,NA,right,NA,NA,i_c_004.jpg,o_c_017.jpg,within,NA,NaN,NA,left,1294.1000003814697,0,1,1084.3999996185303
xWv5ZHT3,NA,NA,xWv5ZHT3,2020-0188,2021-09-26,11:25:27,13:06:37,NA,incomplete,false,NA,true,8,20,NA,NA,right,NA,NA,o_s_021.jpg,i_c_003.jpg,within,NA,NaN,NA,left,1100.5,0,2,1020.3000001907349
xWv5ZHT3,NA,NA,xWv5ZHT3,2020-0188,2021-09-26,11:25:27,13:06:37,NA,incomplete,false,NA,true,8,21,NA,NA,right,NA,NA,a_1_006.jpg,c_2_005.jpg,between-small,NA,NaN,NA,right,1981.3999996185303,1,1,1364.1000003814697
xWv5ZHT3,NA,NA,xWv5ZHT3,2020-0188,2021-09-26,11:25:27,13:06:37,NA,incomplete,false,NA,true,8,22,NA,NA,left,NA,NA,o_c_014.jpg,i_c_019.jpg,within,NA,NaN,NA,left,1005.7999992370605,1,1,863.5
xWv5ZHT3,NA,NA,xWv5ZHT3,2020-0188,2021-09-26,11:25:27,13:06:37,NA,incomplete,false,NA,true,8,23,NA,NA,left,NA,NA,n_s_012.jpg,n_l_006.jpg,within,NA,NaN,NA,left,1338.6999998092651,1,1,1488.5
xWv5ZHT3,NA,NA,xWv5ZHT3,2020-0188,2021-09-26,11:25:27,13:06:37,NA,incomplete,false,NA,true,8,24,NA,NA,left,NA,NA,c_2_006.jpg,c_1_006.jpg,within,NA,NaN,NA,right,1776.7000007629395,0,1,1645.5
xWv5ZHT3,NA,NA,xWv5ZHT3,2020-0188,2021-09-26,11:25:27,13:06:37,NA,incomplete,false,NA,true,8,25,NA,NA,left,NA,NA,m_s_013.jpg,n_s_004.jpg,within,NA,NaN,NA,left,1777.5,1,0,1096.0999994277954
xWv5ZHT3,NA,NA,xWv5ZHT3,2020-0188,2021-09-26,11:25:27,13:06:37,NA,incomplete,false,NA,true,8,26,NA,NA,right,NA,NA,i_c_003.jpg,o_c_009.jpg,between-small,NA,NaN,NA,left,1290.4000005722046,0,1,1348.6999998092651
xWv5ZHT3,NA,NA,xWv5ZHT3,2020-0188,2021-09-26,11:25:27,13:06:37,NA,incomplete,false,true,NA,9,0,origin,n_l_025.jpg,left,natural,manmade,NA,NA,NA,left,1860.69999980927,true,NA,NA,NA,NA,NA
