workerId,hitId,assignmentId,subject,studyid,exp_date,exp_start,exp_end,time_start,time_end,practice,encoding,memory,block,trial,event,stim,answer,label_left,label_right,left_image,right_image,condition,response,response_time,response_acc,order_response,order_response_time,order_acc,distance_response,distance_response_time
Y7WKlvma,NA,NA,Y7WKlvma,2020-0188,2021-11-05,12:31:32,14:52:24,NA,incomplete,true,true,NA,0,0,abstractness,c_1_018.jpg,left,concrete,abstract,NA,NA,NA,left,1620.79999995232,true,NA,NA,NA,NA,NA
Y7WKlvma,NA,NA,Y7WKlvma,2020-0188,2021-11-05,12:31:32,14:52:24,NA,incomplete,true,true,NA,0,1,abstractness,a_1_013.jpg,right,concrete,abstract,NA,NA,NA,right,1038,true,NA,NA,NA,NA,NA
Y7WKlvma,NA,NA,Y7WKlvma,2020-0188,2021-11-05,12:31:32,14:52:24,NA,incomplete,true,true,NA,0,2,abstractness,c_2_026.jpg,left,concrete,abstract,NA,NA,NA,left,1133.09999990463,true,NA,NA,NA,NA,NA
Y7WKlvma,NA,NA,Y7WKlvma,2020-0188,2021-11-05,12:31:32,14:52:24,NA,incomplete,true,true,NA,0,3,abstractness,a_2_019.jpg,left,abstract,concrete,NA,NA,NA,left,1420.29999995232,true,NA,NA,NA,NA,NA
Y7WKlvma,NA,NA,Y7WKlvma,2020-0188,2021-11-05,12:31:32,14:52:24,NA,incomplete,true,true,NA,0,4,abstractness,c_1_021.jpg,right,abstract,concrete,NA,NA,NA,right,856,true,NA,NA,NA,NA,NA
Y7WKlvma,NA,NA,Y7WKlvma,2020-0188,2021-11-05,12:31:32,14:52:24,NA,incomplete,true,true,NA,0,5,syllable,a_2_005.jpg,right,1 syllable,2 syllables,NA,NA,NA,right,1464.09999990463,true,NA,NA,NA,NA,NA
Y7WKlvma,NA,NA,Y7WKlvma,2020-0188,2021-11-05,12:31:32,14:52:24,NA,incomplete,true,true,NA,0,6,syllable,c_1_001.jpg,right,1 syllable,2 syllables,NA,NA,NA,left,954.900000095367,false,NA,NA,NA,NA,NA
Y7WKlvma,NA,NA,Y7WKlvma,2020-0188,2021-11-05,12:31:32,14:52:24,NA,incomplete,true,true,NA,0,7,syllable,c_1_026.jpg,right,1 syllable,2 syllables,NA,NA,NA,left,737.5,false,NA,NA,NA,NA,NA
Y7WKlvma,NA,NA,Y7WKlvma,2020-0188,2021-11-05,12:31:32,14:52:24,NA,incomplete,true,true,NA,0,8,syllable,c_2_014.jpg,right,2 syllables,1 syllable,NA,NA,NA,left,1088.59999990463,false,NA,NA,NA,NA,NA
Y7WKlvma,NA,NA,Y7WKlvma,2020-0188,2021-11-05,12:31:32,14:52:24,NA,incomplete,true,true,NA,0,9,syllable,a_1_017.jpg,right,1 syllable,2 syllables,NA,NA,NA,left,812.299999952316,false,NA,NA,NA,NA,NA
Y7WKlvma,NA,NA,Y7WKlvma,2020-0188,2021-11-05,12:31:32,14:52:24,NA,incomplete,true,true,NA,0,10,location,i_s_024.jpg,right,outdoor,indoor,NA,NA,NA,right,1082.5,true,NA,NA,NA,NA,NA
Y7WKlvma,NA,NA,Y7WKlvma,2020-0188,2021-11-05,12:31:32,14:52:24,NA,incomplete,true,true,NA,0,11,location,o_s_015.jpg,left,outdoor,indoor,NA,NA,NA,left,1103.29999995232,true,NA,NA,NA,NA,NA
Y7WKlvma,NA,NA,Y7WKlvma,2020-0188,2021-11-05,12:31:32,14:52:24,NA,incomplete,true,true,NA,0,12,location,o_c_006.jpg,left,outdoor,indoor,NA,NA,NA,left,871.100000143051,true,NA,NA,NA,NA,NA
Y7WKlvma,NA,NA,Y7WKlvma,2020-0188,2021-11-05,12:31:32,14:52:24,NA,incomplete,true,true,NA,0,13,location,o_s_007.jpg,left,outdoor,indoor,NA,NA,NA,left,892.100000143051,true,NA,NA,NA,NA,NA
Y7WKlvma,NA,NA,Y7WKlvma,2020-0188,2021-11-05,12:31:32,14:52:24,NA,incomplete,true,true,NA,0,14,location,o_c_020.jpg,right,indoor,outdoor,NA,NA,NA,right,1954.60000014305,true,NA,NA,NA,NA,NA
Y7WKlvma,NA,NA,Y7WKlvma,2020-0188,2021-11-05,12:31:32,14:52:24,NA,incomplete,true,true,NA,0,15,building,o_c_028.jpg,right,skyscraper,cottage,NA,NA,NA,right,1968.20000004768,true,NA,NA,NA,NA,NA
Y7WKlvma,NA,NA,Y7WKlvma,2020-0188,2021-11-05,12:31:32,14:52:24,NA,incomplete,true,true,NA,0,16,building,i_c_012.jpg,right,skyscraper,cottage,NA,NA,NA,right,1321,true,NA,NA,NA,NA,NA
Y7WKlvma,NA,NA,Y7WKlvma,2020-0188,2021-11-05,12:31:32,14:52:24,NA,incomplete,true,true,NA,0,17,building,o_s_002.jpg,left,skyscraper,cottage,NA,NA,NA,left,914.399999856949,true,NA,NA,NA,NA,NA
Y7WKlvma,NA,NA,Y7WKlvma,2020-0188,2021-11-05,12:31:32,14:52:24,NA,incomplete,true,true,NA,0,18,building,o_c_013.jpg,right,skyscraper,cottage,NA,NA,NA,right,879.099999904633,true,NA,NA,NA,NA,NA
Y7WKlvma,NA,NA,Y7WKlvma,2020-0188,2021-11-05,12:31:32,14:52:24,NA,incomplete,true,true,NA,0,19,building,i_c_017.jpg,right,skyscraper,cottage,NA,NA,NA,right,964.900000095367,true,NA,NA,NA,NA,NA
Y7WKlvma,NA,NA,Y7WKlvma,2020-0188,2021-11-05,12:31:32,14:52:24,NA,incomplete,true,true,NA,0,20,size,m_l_020.jpg,right,small,large,NA,NA,NA,left,1001.20000004768,false,NA,NA,NA,NA,NA
Y7WKlvma,NA,NA,Y7WKlvma,2020-0188,2021-11-05,12:31:32,14:52:24,NA,incomplete,true,true,NA,0,21,size,m_s_004.jpg,right,large,small,NA,NA,NA,right,1011.5,true,NA,NA,NA,NA,NA
Y7WKlvma,NA,NA,Y7WKlvma,2020-0188,2021-11-05,12:31:32,14:52:24,NA,incomplete,true,true,NA,0,22,size,n_l_010.jpg,left,large,small,NA,NA,NA,left,825.199999809265,true,NA,NA,NA,NA,NA
Y7WKlvma,NA,NA,Y7WKlvma,2020-0188,2021-11-05,12:31:32,14:52:24,NA,incomplete,true,true,NA,0,23,size,m_l_014.jpg,right,small,large,NA,NA,NA,right,1029.09999990463,true,NA,NA,NA,NA,NA
Y7WKlvma,NA,NA,Y7WKlvma,2020-0188,2021-11-05,12:31:32,14:52:24,NA,incomplete,true,true,NA,0,24,size,m_l_007.jpg,right,small,large,NA,NA,NA,right,997.100000143051,true,NA,NA,NA,NA,NA
Y7WKlvma,NA,NA,Y7WKlvma,2020-0188,2021-11-05,12:31:32,14:52:24,NA,incomplete,true,true,NA,0,25,origin,n_l_018.jpg,right,manmade,natural,NA,NA,NA,right,1957.29999995232,true,NA,NA,NA,NA,NA
Y7WKlvma,NA,NA,Y7WKlvma,2020-0188,2021-11-05,12:31:32,14:52:24,NA,incomplete,true,true,NA,0,26,origin,n_l_025.jpg,left,natural,manmade,NA,NA,NA,right,1444.5,false,NA,NA,NA,NA,NA
Y7WKlvma,NA,NA,Y7WKlvma,2020-0188,2021-11-05,12:31:32,14:52:24,NA,incomplete,true,true,NA,0,27,origin,n_l_009.jpg,right,manmade,natural,NA,NA,NA,right,1795.40000009537,true,NA,NA,NA,NA,NA
Y7WKlvma,NA,NA,Y7WKlvma,2020-0188,2021-11-05,12:31:32,14:52:24,NA,incomplete,true,true,NA,0,28,origin,n_s_014.jpg,right,manmade,natural,NA,NA,NA,right,1865.29999995232,true,NA,NA,NA,NA,NA
Y7WKlvma,NA,NA,Y7WKlvma,2020-0188,2021-11-05,12:31:32,14:52:24,NA,incomplete,true,true,NA,0,29,origin,m_s_015.jpg,left,manmade,natural,NA,NA,NA,left,1309.09999990463,true,NA,NA,NA,NA,NA
Y7WKlvma,NA,NA,Y7WKlvma,2020-0188,2021-11-05,12:31:32,14:52:24,NA,incomplete,true,NA,true,0,0,NA,NA,right,NA,NA,i_s_024.jpg,c_1_026.jpg,between-big,NA,NaN,NA,right,4640.299999952316,1,2,4015.5
Y7WKlvma,NA,NA,Y7WKlvma,2020-0188,2021-11-05,12:31:32,14:52:24,NA,incomplete,true,NA,true,0,1,NA,NA,right,NA,NA,m_s_015.jpg,n_l_025.jpg,within,NA,NaN,NA,left,3152.7000000476837,0,2,2736.199999809265
Y7WKlvma,NA,NA,Y7WKlvma,2020-0188,2021-11-05,12:31:32,14:52:24,NA,incomplete,true,NA,true,0,2,NA,NA,right,NA,NA,n_s_014.jpg,n_l_018.jpg,within,NA,NaN,NA,left,13615.299999952316,0,1,1605
Y7WKlvma,NA,NA,Y7WKlvma,2020-0188,2021-11-05,12:31:32,14:52:24,NA,incomplete,true,NA,true,0,3,NA,NA,right,NA,NA,o_s_007.jpg,i_s_024.jpg,within,NA,NaN,NA,right,3040.9000000953674,1,0,2408.2999999523163
Y7WKlvma,NA,NA,Y7WKlvma,2020-0188,2021-11-05,12:31:32,14:52:24,NA,incomplete,true,NA,true,0,4,NA,NA,right,NA,NA,i_c_012.jpg,o_s_007.jpg,between-small,NA,NaN,NA,right,3997.800000190735,1,1,1606.7000000476837
Y7WKlvma,NA,NA,Y7WKlvma,2020-0188,2021-11-05,12:31:32,14:52:24,NA,incomplete,true,NA,true,0,5,NA,NA,right,NA,NA,m_s_004.jpg,o_c_013.jpg,between-big,NA,NaN,NA,left,3012,0,2,2625.4000000953674
Y7WKlvma,NA,NA,Y7WKlvma,2020-0188,2021-11-05,12:31:32,14:52:24,NA,incomplete,true,NA,true,0,6,NA,NA,right,NA,NA,a_2_005.jpg,c_2_026.jpg,between-small,NA,NaN,NA,left,3529.5,0,1,1559
Y7WKlvma,NA,NA,Y7WKlvma,2020-0188,2021-11-05,12:31:32,14:52:24,NA,incomplete,true,NA,true,0,7,NA,NA,left,NA,NA,c_1_001.jpg,a_1_017.jpg,within,NA,NaN,NA,left,2087.800000190735,1,1,1649.7999999523163
Y7WKlvma,NA,NA,Y7WKlvma,2020-0188,2021-11-05,12:31:32,14:52:24,NA,incomplete,true,NA,true,0,8,NA,NA,left,NA,NA,o_s_002.jpg,m_l_020.jpg,between-big,NA,NaN,NA,left,2353.9000000953674,1,2,2469.600000143051
Y7WKlvma,NA,NA,Y7WKlvma,2020-0188,2021-11-05,12:31:32,14:52:24,NA,incomplete,true,NA,true,0,9,NA,NA,left,NA,NA,i_c_012.jpg,i_c_017.jpg,within,NA,NaN,NA,left,4354.799999952316,1,0,2003.5
Y7WKlvma,NA,NA,Y7WKlvma,2020-0188,2021-11-05,12:31:32,14:52:24,NA,incomplete,true,NA,true,0,10,NA,NA,right,NA,NA,n_l_025.jpg,m_l_014.jpg,between-small,NA,NaN,NA,left,3008.7999999523163,0,0,1687.7999999523163
Y7WKlvma,NA,NA,Y7WKlvma,2020-0188,2021-11-05,12:31:32,14:52:24,NA,incomplete,true,NA,true,0,11,NA,NA,left,NA,NA,o_c_020.jpg,o_s_002.jpg,between-small,NA,NaN,NA,right,2601,0,1,1700
Y7WKlvma,NA,NA,Y7WKlvma,2020-0188,2021-11-05,12:31:32,14:52:24,NA,incomplete,true,NA,true,0,12,NA,NA,right,NA,NA,n_l_010.jpg,i_c_017.jpg,between-big,NA,NaN,NA,left,3922,0,2,2188.4000000953674
Y7WKlvma,NA,NA,Y7WKlvma,2020-0188,2021-11-05,12:31:32,14:52:24,NA,incomplete,true,NA,true,0,13,NA,NA,left,NA,NA,o_c_028.jpg,o_c_013.jpg,within,NA,NaN,NA,right,5197.599999904633,0,1,3036.5
Y7WKlvma,NA,NA,Y7WKlvma,2020-0188,2021-11-05,12:31:32,14:52:24,NA,incomplete,true,NA,true,0,14,NA,NA,right,NA,NA,n_l_018.jpg,n_l_010.jpg,between-small,NA,NaN,NA,right,4182.900000095367,1,2,7748.099999904633
Y7WKlvma,NA,NA,Y7WKlvma,2020-0188,2021-11-05,12:31:32,14:52:24,NA,incomplete,true,NA,true,0,15,NA,NA,right,NA,NA,o_c_028.jpg,o_c_006.jpg,between-small,NA,NaN,NA,left,5186,0,1,2447
Y7WKlvma,NA,NA,Y7WKlvma,2020-0188,2021-11-05,12:31:32,14:52:24,NA,incomplete,true,NA,true,0,16,NA,NA,left,NA,NA,m_s_004.jpg,m_l_007.jpg,within,NA,NaN,NA,left,2029.5,1,1,1489.4000000953674
Y7WKlvma,NA,NA,Y7WKlvma,2020-0188,2021-11-05,12:31:32,14:52:24,NA,incomplete,true,NA,true,0,17,NA,NA,left,NA,NA,a_2_019.jpg,c_1_001.jpg,between-small,NA,NaN,NA,left,2416.2999999523163,1,1,1358.9000000953674
Y7WKlvma,NA,NA,Y7WKlvma,2020-0188,2021-11-05,12:31:32,14:52:24,NA,incomplete,true,NA,true,0,18,NA,NA,right,NA,NA,m_l_014.jpg,m_l_020.jpg,within,NA,NaN,NA,left,2075.9000000953674,0,1,1557.7000000476837
Y7WKlvma,NA,NA,Y7WKlvma,2020-0188,2021-11-05,12:31:32,14:52:24,NA,incomplete,true,NA,true,0,19,NA,NA,right,NA,NA,n_l_009.jpg,m_l_007.jpg,between-small,NA,NaN,NA,right,13940.099999904633,1,1,1857.9000000953674
Y7WKlvma,NA,NA,Y7WKlvma,2020-0188,2021-11-05,12:31:32,14:52:24,NA,incomplete,true,NA,true,0,20,NA,NA,right,NA,NA,a_2_019.jpg,c_1_018.jpg,within,NA,NaN,NA,left,3704.7999999523163,0,1,1444.5
Y7WKlvma,NA,NA,Y7WKlvma,2020-0188,2021-11-05,12:31:32,14:52:24,NA,incomplete,true,NA,true,0,21,NA,NA,left,NA,NA,a_2_005.jpg,c_2_014.jpg,within,NA,NaN,NA,left,2504.7000000476837,1,1,1291.7000000476837
Y7WKlvma,NA,NA,Y7WKlvma,2020-0188,2021-11-05,12:31:32,14:52:24,NA,incomplete,true,NA,true,0,22,NA,NA,right,NA,NA,c_1_026.jpg,c_1_021.jpg,between-small,NA,NaN,NA,left,3369.9000000953674,0,1,2085.7999999523163
Y7WKlvma,NA,NA,Y7WKlvma,2020-0188,2021-11-05,12:31:32,14:52:24,NA,incomplete,true,NA,true,0,23,NA,NA,right,NA,NA,o_c_006.jpg,a_1_017.jpg,between-big,NA,NaN,NA,right,3359.4000000953674,1,2,1296.7000000476837
Y7WKlvma,NA,NA,Y7WKlvma,2020-0188,2021-11-05,12:31:32,14:52:24,NA,incomplete,true,NA,true,0,24,NA,NA,right,NA,NA,c_1_021.jpg,a_1_013.jpg,within,NA,NaN,NA,left,7505.400000095367,0,2,2842.5
Y7WKlvma,NA,NA,Y7WKlvma,2020-0188,2021-11-05,12:31:32,14:52:24,NA,incomplete,true,NA,true,0,25,NA,NA,left,NA,NA,c_2_014.jpg,o_s_015.jpg,between-big,NA,NaN,NA,left,1842.8999998569489,1,2,2063.600000143051
Y7WKlvma,NA,NA,Y7WKlvma,2020-0188,2021-11-05,12:31:32,14:52:24,NA,incomplete,true,NA,true,0,26,NA,NA,right,NA,NA,o_c_020.jpg,o_s_015.jpg,within,NA,NaN,NA,right,4048.199999809265,1,2,1449.5
Y7WKlvma,NA,NA,Y7WKlvma,2020-0188,2021-11-05,12:31:32,14:52:24,NA,incomplete,false,true,NA,1,0,size,m_l_023.jpg,left,large,small,NA,NA,NA,left,1854.79999995232,true,NA,NA,NA,NA,NA
Y7WKlvma,NA,NA,Y7WKlvma,2020-0188,2021-11-05,12:31:32,14:52:24,NA,incomplete,false,true,NA,1,1,size,n_l_007.jpg,left,large,small,NA,NA,NA,left,1360.90000009537,true,NA,NA,NA,NA,NA
Y7WKlvma,NA,NA,Y7WKlvma,2020-0188,2021-11-05,12:31:32,14:52:24,NA,incomplete,false,true,NA,1,2,size,n_l_014.jpg,left,large,small,NA,NA,NA,left,818.200000047684,true,NA,NA,NA,NA,NA
Y7WKlvma,NA,NA,Y7WKlvma,2020-0188,2021-11-05,12:31:32,14:52:24,NA,incomplete,false,true,NA,1,3,size,n_l_017.jpg,right,small,large,NA,NA,NA,right,1404.29999995232,true,NA,NA,NA,NA,NA
Y7WKlvma,NA,NA,Y7WKlvma,2020-0188,2021-11-05,12:31:32,14:52:24,NA,incomplete,false,true,NA,1,4,size,n_l_023.jpg,right,small,large,NA,NA,NA,right,929.5,true,NA,NA,NA,NA,NA
Y7WKlvma,NA,NA,Y7WKlvma,2020-0188,2021-11-05,12:31:32,14:52:24,NA,incomplete,false,true,NA,1,5,origin,n_s_026.jpg,right,manmade,natural,NA,NA,NA,right,1620.59999990463,true,NA,NA,NA,NA,NA
Y7WKlvma,NA,NA,Y7WKlvma,2020-0188,2021-11-05,12:31:32,14:52:24,NA,incomplete,false,true,NA,1,6,origin,m_s_013.jpg,left,manmade,natural,NA,NA,NA,left,1280.80000019073,true,NA,NA,NA,NA,NA
Y7WKlvma,NA,NA,Y7WKlvma,2020-0188,2021-11-05,12:31:32,14:52:24,NA,incomplete,false,true,NA,1,7,origin,n_l_024.jpg,left,natural,manmade,NA,NA,NA,left,1520.59999990463,true,NA,NA,NA,NA,NA
Y7WKlvma,NA,NA,Y7WKlvma,2020-0188,2021-11-05,12:31:32,14:52:24,NA,incomplete,false,true,NA,1,8,origin,m_l_009.jpg,right,natural,manmade,NA,NA,NA,right,1064.89999985695,true,NA,NA,NA,NA,NA
Y7WKlvma,NA,NA,Y7WKlvma,2020-0188,2021-11-05,12:31:32,14:52:24,NA,incomplete,false,true,NA,1,9,origin,m_l_006.jpg,left,manmade,natural,NA,NA,NA,left,1182.70000004768,true,NA,NA,NA,NA,NA
Y7WKlvma,NA,NA,Y7WKlvma,2020-0188,2021-11-05,12:31:32,14:52:24,NA,incomplete,false,true,NA,1,10,location,i_c_001.jpg,left,indoor,outdoor,NA,NA,NA,left,1004.29999995232,true,NA,NA,NA,NA,NA
Y7WKlvma,NA,NA,Y7WKlvma,2020-0188,2021-11-05,12:31:32,14:52:24,NA,incomplete,false,true,NA,1,11,location,i_s_018.jpg,right,outdoor,indoor,NA,NA,NA,right,1094.20000004768,true,NA,NA,NA,NA,NA
Y7WKlvma,NA,NA,Y7WKlvma,2020-0188,2021-11-05,12:31:32,14:52:24,NA,incomplete,false,true,NA,1,12,location,i_c_016.jpg,left,indoor,outdoor,NA,NA,NA,left,825.200000047684,true,NA,NA,NA,NA,NA
Y7WKlvma,NA,NA,Y7WKlvma,2020-0188,2021-11-05,12:31:32,14:52:24,NA,incomplete,false,true,NA,1,13,location,o_s_022.jpg,left,outdoor,indoor,NA,NA,NA,left,1190.90000009537,true,NA,NA,NA,NA,NA
Y7WKlvma,NA,NA,Y7WKlvma,2020-0188,2021-11-05,12:31:32,14:52:24,NA,incomplete,false,true,NA,1,14,location,o_c_009.jpg,right,indoor,outdoor,NA,NA,NA,right,1130.10000014305,true,NA,NA,NA,NA,NA
Y7WKlvma,NA,NA,Y7WKlvma,2020-0188,2021-11-05,12:31:32,14:52:24,NA,incomplete,false,true,NA,1,15,building,o_s_024.jpg,left,skyscraper,cottage,NA,NA,NA,left,1058.70000004768,true,NA,NA,NA,NA,NA
Y7WKlvma,NA,NA,Y7WKlvma,2020-0188,2021-11-05,12:31:32,14:52:24,NA,incomplete,false,true,NA,1,16,building,i_s_009.jpg,right,cottage,skyscraper,NA,NA,NA,right,1873,true,NA,NA,NA,NA,NA
Y7WKlvma,NA,NA,Y7WKlvma,2020-0188,2021-11-05,12:31:32,14:52:24,NA,incomplete,false,true,NA,1,17,building,o_c_027.jpg,left,cottage,skyscraper,NA,NA,NA,left,1238.20000004768,true,NA,NA,NA,NA,NA
Y7WKlvma,NA,NA,Y7WKlvma,2020-0188,2021-11-05,12:31:32,14:52:24,NA,incomplete,false,true,NA,1,18,building,o_s_009.jpg,left,skyscraper,cottage,NA,NA,NA,left,1169.90000009537,true,NA,NA,NA,NA,NA
Y7WKlvma,NA,NA,Y7WKlvma,2020-0188,2021-11-05,12:31:32,14:52:24,NA,incomplete,false,true,NA,1,19,building,i_c_025.jpg,left,cottage,skyscraper,NA,NA,NA,left,1227.5,true,NA,NA,NA,NA,NA
Y7WKlvma,NA,NA,Y7WKlvma,2020-0188,2021-11-05,12:31:32,14:52:24,NA,incomplete,false,true,NA,1,20,abstractness,c_2_017.jpg,left,concrete,abstract,NA,NA,NA,left,2452.59999990463,true,NA,NA,NA,NA,NA
Y7WKlvma,NA,NA,Y7WKlvma,2020-0188,2021-11-05,12:31:32,14:52:24,NA,incomplete,false,true,NA,1,21,abstractness,a_2_026.jpg,right,concrete,abstract,NA,NA,NA,right,1530.29999995232,true,NA,NA,NA,NA,NA
Y7WKlvma,NA,NA,Y7WKlvma,2020-0188,2021-11-05,12:31:32,14:52:24,NA,incomplete,false,true,NA,1,22,abstractness,c_1_009.jpg,left,concrete,abstract,NA,NA,NA,left,923.599999904633,true,NA,NA,NA,NA,NA
Y7WKlvma,NA,NA,Y7WKlvma,2020-0188,2021-11-05,12:31:32,14:52:24,NA,incomplete,false,true,NA,1,23,abstractness,c_2_028.jpg,left,concrete,abstract,NA,NA,NA,left,1045.70000004768,true,NA,NA,NA,NA,NA
Y7WKlvma,NA,NA,Y7WKlvma,2020-0188,2021-11-05,12:31:32,14:52:24,NA,incomplete,false,true,NA,1,24,abstractness,c_2_023.jpg,right,abstract,concrete,NA,NA,NA,right,1440.30000019073,true,NA,NA,NA,NA,NA
Y7WKlvma,NA,NA,Y7WKlvma,2020-0188,2021-11-05,12:31:32,14:52:24,NA,incomplete,false,true,NA,1,25,syllable,a_1_025.jpg,right,1 syllable,2 syllables,NA,NA,NA,left,1989.40000009537,false,NA,NA,NA,NA,NA
Y7WKlvma,NA,NA,Y7WKlvma,2020-0188,2021-11-05,12:31:32,14:52:24,NA,incomplete,false,true,NA,1,26,syllable,a_2_002.jpg,right,2 syllables,1 syllable,NA,NA,NA,left,1682.29999995232,false,NA,NA,NA,NA,NA
Y7WKlvma,NA,NA,Y7WKlvma,2020-0188,2021-11-05,12:31:32,14:52:24,NA,incomplete,false,true,NA,1,27,syllable,a_1_001.jpg,right,2 syllables,1 syllable,NA,NA,NA,right,1128.09999990463,true,NA,NA,NA,NA,NA
Y7WKlvma,NA,NA,Y7WKlvma,2020-0188,2021-11-05,12:31:32,14:52:24,NA,incomplete,false,true,NA,1,28,syllable,c_2_008.jpg,right,2 syllables,1 syllable,NA,NA,NA,left,942,false,NA,NA,NA,NA,NA
Y7WKlvma,NA,NA,Y7WKlvma,2020-0188,2021-11-05,12:31:32,14:52:24,NA,incomplete,false,true,NA,1,29,syllable,c_2_015.jpg,right,1 syllable,2 syllables,NA,NA,NA,right,1072.29999995232,true,NA,NA,NA,NA,NA
Y7WKlvma,NA,NA,Y7WKlvma,2020-0188,2021-11-05,12:31:32,14:52:24,NA,incomplete,false,NA,true,1,0,NA,NA,right,NA,NA,i_s_018.jpg,m_l_009.jpg,between-big,NA,NaN,NA,right,5606,1,2,2373.0999999046326
Y7WKlvma,NA,NA,Y7WKlvma,2020-0188,2021-11-05,12:31:32,14:52:24,NA,incomplete,false,NA,true,1,1,NA,NA,left,NA,NA,c_2_017.jpg,c_2_028.jpg,within,NA,NaN,NA,left,3050.7999999523163,1,1,4540.099999904633
Y7WKlvma,NA,NA,Y7WKlvma,2020-0188,2021-11-05,12:31:32,14:52:24,NA,incomplete,false,NA,true,1,2,NA,NA,right,NA,NA,i_c_016.jpg,m_l_006.jpg,between-big,NA,NaN,NA,right,3530.600000143051,1,2,1245
Y7WKlvma,NA,NA,Y7WKlvma,2020-0188,2021-11-05,12:31:32,14:52:24,NA,incomplete,false,NA,true,1,3,NA,NA,left,NA,NA,n_l_014.jpg,n_s_026.jpg,between-small,NA,NaN,NA,left,3615.9000000953674,1,2,2627.0999999046326
Y7WKlvma,NA,NA,Y7WKlvma,2020-0188,2021-11-05,12:31:32,14:52:24,NA,incomplete,false,NA,true,1,4,NA,NA,left,NA,NA,n_l_023.jpg,n_l_024.jpg,between-small,NA,NaN,NA,left,2617,1,2,1527.7999999523163
Y7WKlvma,NA,NA,Y7WKlvma,2020-0188,2021-11-05,12:31:32,14:52:24,NA,incomplete,false,NA,true,1,5,NA,NA,left,NA,NA,i_c_016.jpg,o_s_024.jpg,between-small,NA,NaN,NA,left,32176.099999904633,1,2,5339.5
Y7WKlvma,NA,NA,Y7WKlvma,2020-0188,2021-11-05,12:31:32,14:52:24,NA,incomplete,false,NA,true,1,6,NA,NA,right,NA,NA,i_c_025.jpg,i_s_009.jpg,within,NA,NaN,NA,right,7076.599999904633,1,0,3957.2999999523163
Y7WKlvma,NA,NA,Y7WKlvma,2020-0188,2021-11-05,12:31:32,14:52:24,NA,incomplete,false,NA,true,1,7,NA,NA,left,NA,NA,c_2_023.jpg,a_1_001.jpg,between-small,NA,NaN,NA,right,3774.899999856949,0,1,2312.7000000476837
Y7WKlvma,NA,NA,Y7WKlvma,2020-0188,2021-11-05,12:31:32,14:52:24,NA,incomplete,false,NA,true,1,8,NA,NA,right,NA,NA,c_2_008.jpg,a_1_025.jpg,within,NA,NaN,NA,right,4111.099999904633,1,1,1417.5
Y7WKlvma,NA,NA,Y7WKlvma,2020-0188,2021-11-05,12:31:32,14:52:24,NA,incomplete,false,NA,true,1,9,NA,NA,right,NA,NA,c_2_023.jpg,a_2_026.jpg,within,NA,NaN,NA,right,2791.5999999046326,1,1,2141.5
Y7WKlvma,NA,NA,Y7WKlvma,2020-0188,2021-11-05,12:31:32,14:52:24,NA,incomplete,false,NA,true,1,10,NA,NA,left,NA,NA,n_l_024.jpg,i_c_001.jpg,between-big,NA,NaN,NA,left,2782.5,1,2,1857.2000000476837
Y7WKlvma,NA,NA,Y7WKlvma,2020-0188,2021-11-05,12:31:32,14:52:24,NA,incomplete,false,NA,true,1,11,NA,NA,left,NA,NA,o_c_009.jpg,o_c_027.jpg,between-small,NA,NaN,NA,left,4462.099999904633,1,0,2544.800000190735
Y7WKlvma,NA,NA,Y7WKlvma,2020-0188,2021-11-05,12:31:32,14:52:24,NA,incomplete,false,NA,true,1,12,NA,NA,left,NA,NA,o_c_027.jpg,c_2_017.jpg,between-big,NA,NaN,NA,left,3967.0999999046326,1,2,4353.200000047684
Y7WKlvma,NA,NA,Y7WKlvma,2020-0188,2021-11-05,12:31:32,14:52:24,NA,incomplete,false,NA,true,1,13,NA,NA,left,NA,NA,n_l_017.jpg,m_s_013.jpg,between-small,NA,NaN,NA,left,2414.4000000953674,1,1,2198.2999999523163
Y7WKlvma,NA,NA,Y7WKlvma,2020-0188,2021-11-05,12:31:32,14:52:24,NA,incomplete,false,NA,true,1,14,NA,NA,left,NA,NA,o_s_022.jpg,i_s_009.jpg,between-small,NA,NaN,NA,left,8070.5,1,0,1801.1000001430511
Y7WKlvma,NA,NA,Y7WKlvma,2020-0188,2021-11-05,12:31:32,14:52:24,NA,incomplete,false,NA,true,1,15,NA,NA,left,NA,NA,c_2_028.jpg,a_2_002.jpg,between-small,NA,NaN,NA,left,2077.9000000953674,1,1,1689.2000000476837
Y7WKlvma,NA,NA,Y7WKlvma,2020-0188,2021-11-05,12:31:32,14:52:24,NA,incomplete,false,NA,true,1,16,NA,NA,right,NA,NA,o_s_009.jpg,o_s_024.jpg,within,NA,NaN,NA,left,5840.900000095367,0,0,1340
Y7WKlvma,NA,NA,Y7WKlvma,2020-0188,2021-11-05,12:31:32,14:52:24,NA,incomplete,false,NA,true,1,17,NA,NA,right,NA,NA,o_c_009.jpg,i_s_018.jpg,within,NA,NaN,NA,right,2535,1,1,1606.9000000953674
Y7WKlvma,NA,NA,Y7WKlvma,2020-0188,2021-11-05,12:31:32,14:52:24,NA,incomplete,false,NA,true,1,18,NA,NA,left,NA,NA,n_l_007.jpg,n_l_023.jpg,within,NA,NaN,NA,left,2854.7000000476837,1,0,1312
Y7WKlvma,NA,NA,Y7WKlvma,2020-0188,2021-11-05,12:31:32,14:52:24,NA,incomplete,false,NA,true,1,19,NA,NA,left,NA,NA,c_1_009.jpg,a_1_025.jpg,between-small,NA,NaN,NA,left,2260.2999999523163,1,1,1380
Y7WKlvma,NA,NA,Y7WKlvma,2020-0188,2021-11-05,12:31:32,14:52:24,NA,incomplete,false,NA,true,1,20,NA,NA,right,NA,NA,a_2_026.jpg,o_s_009.jpg,between-big,NA,NaN,NA,right,2859.5,1,3,2675.7999999523163
Y7WKlvma,NA,NA,Y7WKlvma,2020-0188,2021-11-05,12:31:32,14:52:24,NA,incomplete,false,NA,true,1,21,NA,NA,left,NA,NA,i_c_001.jpg,o_s_022.jpg,within,NA,NaN,NA,right,6754.400000095367,0,1,1545.8999998569489
Y7WKlvma,NA,NA,Y7WKlvma,2020-0188,2021-11-05,12:31:32,14:52:24,NA,incomplete,false,NA,true,1,22,NA,NA,left,NA,NA,n_s_026.jpg,m_l_009.jpg,within,NA,NaN,NA,left,6122.5,1,0,2170.100000143051
Y7WKlvma,NA,NA,Y7WKlvma,2020-0188,2021-11-05,12:31:32,14:52:24,NA,incomplete,false,NA,true,1,23,NA,NA,left,NA,NA,i_c_025.jpg,c_1_009.jpg,between-big,NA,NaN,NA,left,1984,1,2,1513.8999998569489
Y7WKlvma,NA,NA,Y7WKlvma,2020-0188,2021-11-05,12:31:32,14:52:24,NA,incomplete,false,NA,true,1,24,NA,NA,right,NA,NA,n_l_017.jpg,m_l_023.jpg,within,NA,NaN,NA,left,1983.9000000953674,0,2,2977.2000000476837
Y7WKlvma,NA,NA,Y7WKlvma,2020-0188,2021-11-05,12:31:32,14:52:24,NA,incomplete,false,NA,true,1,25,NA,NA,left,NA,NA,a_2_002.jpg,c_2_015.jpg,within,NA,NaN,NA,left,4923.600000143051,1,1,1379.3999998569489
Y7WKlvma,NA,NA,Y7WKlvma,2020-0188,2021-11-05,12:31:32,14:52:24,NA,incomplete,false,NA,true,1,26,NA,NA,left,NA,NA,m_s_013.jpg,m_l_006.jpg,within,NA,NaN,NA,left,1836.5,1,2,1425.4000000953674
Y7WKlvma,NA,NA,Y7WKlvma,2020-0188,2021-11-05,12:31:32,14:52:24,NA,incomplete,false,true,NA,2,0,abstractness,c_2_009.jpg,right,abstract,concrete,NA,NA,NA,right,1532.70000004768,true,NA,NA,NA,NA,NA
Y7WKlvma,NA,NA,Y7WKlvma,2020-0188,2021-11-05,12:31:32,14:52:24,NA,incomplete,false,true,NA,2,1,abstractness,a_2_012.jpg,left,abstract,concrete,NA,NA,NA,left,1527.5,true,NA,NA,NA,NA,NA
Y7WKlvma,NA,NA,Y7WKlvma,2020-0188,2021-11-05,12:31:32,14:52:24,NA,incomplete,false,true,NA,2,2,abstractness,c_2_020.jpg,right,abstract,concrete,NA,NA,NA,right,1104.20000004768,true,NA,NA,NA,NA,NA
Y7WKlvma,NA,NA,Y7WKlvma,2020-0188,2021-11-05,12:31:32,14:52:24,NA,incomplete,false,true,NA,2,3,abstractness,a_1_015.jpg,left,abstract,concrete,NA,NA,NA,left,973.899999856949,true,NA,NA,NA,NA,NA
Y7WKlvma,NA,NA,Y7WKlvma,2020-0188,2021-11-05,12:31:32,14:52:24,NA,incomplete,false,true,NA,2,4,abstractness,c_2_024.jpg,right,abstract,concrete,NA,NA,NA,left,1057.79999995232,false,NA,NA,NA,NA,NA
Y7WKlvma,NA,NA,Y7WKlvma,2020-0188,2021-11-05,12:31:32,14:52:24,NA,incomplete,false,true,NA,2,5,syllable,c_1_005.jpg,right,2 syllables,1 syllable,NA,NA,NA,right,1428.5,true,NA,NA,NA,NA,NA
Y7WKlvma,NA,NA,Y7WKlvma,2020-0188,2021-11-05,12:31:32,14:52:24,NA,incomplete,false,true,NA,2,6,syllable,a_2_009.jpg,right,2 syllables,1 syllable,NA,NA,NA,left,1391.30000019073,false,NA,NA,NA,NA,NA
Y7WKlvma,NA,NA,Y7WKlvma,2020-0188,2021-11-05,12:31:32,14:52:24,NA,incomplete,false,true,NA,2,7,syllable,c_1_019.jpg,right,1 syllable,2 syllables,NA,NA,NA,left,849.800000190735,false,NA,NA,NA,NA,NA
Y7WKlvma,NA,NA,Y7WKlvma,2020-0188,2021-11-05,12:31:32,14:52:24,NA,incomplete,false,true,NA,2,8,syllable,c_2_027.jpg,right,1 syllable,2 syllables,NA,NA,NA,right,976,true,NA,NA,NA,NA,NA
Y7WKlvma,NA,NA,Y7WKlvma,2020-0188,2021-11-05,12:31:32,14:52:24,NA,incomplete,false,true,NA,2,9,syllable,c_1_020.jpg,right,2 syllables,1 syllable,NA,NA,NA,right,1458.20000004768,true,NA,NA,NA,NA,NA
Y7WKlvma,NA,NA,Y7WKlvma,2020-0188,2021-11-05,12:31:32,14:52:24,NA,incomplete,false,true,NA,2,10,size,m_l_012.jpg,left,large,small,NA,NA,NA,left,999.5,true,NA,NA,NA,NA,NA
Y7WKlvma,NA,NA,Y7WKlvma,2020-0188,2021-11-05,12:31:32,14:52:24,NA,incomplete,false,true,NA,2,11,size,n_s_012.jpg,right,large,small,NA,NA,NA,right,991.299999952316,true,NA,NA,NA,NA,NA
Y7WKlvma,NA,NA,Y7WKlvma,2020-0188,2021-11-05,12:31:32,14:52:24,NA,incomplete,false,true,NA,2,12,size,m_l_001.jpg,left,large,small,NA,NA,NA,left,799.5,true,NA,NA,NA,NA,NA
Y7WKlvma,NA,NA,Y7WKlvma,2020-0188,2021-11-05,12:31:32,14:52:24,NA,incomplete,false,true,NA,2,13,size,m_s_009.jpg,right,large,small,NA,NA,NA,right,1094.90000009537,true,NA,NA,NA,NA,NA
Y7WKlvma,NA,NA,Y7WKlvma,2020-0188,2021-11-05,12:31:32,14:52:24,NA,incomplete,false,true,NA,2,14,size,m_l_017.jpg,right,small,large,NA,NA,NA,right,1235.30000019073,true,NA,NA,NA,NA,NA
Y7WKlvma,NA,NA,Y7WKlvma,2020-0188,2021-11-05,12:31:32,14:52:24,NA,incomplete,false,true,NA,2,15,origin,m_l_022.jpg,left,manmade,natural,NA,NA,NA,left,1353.79999995232,true,NA,NA,NA,NA,NA
Y7WKlvma,NA,NA,Y7WKlvma,2020-0188,2021-11-05,12:31:32,14:52:24,NA,incomplete,false,true,NA,2,16,origin,n_s_001.jpg,right,manmade,natural,NA,NA,NA,right,1373.29999995232,true,NA,NA,NA,NA,NA
Y7WKlvma,NA,NA,Y7WKlvma,2020-0188,2021-11-05,12:31:32,14:52:24,NA,incomplete,false,true,NA,2,17,origin,m_s_019.jpg,left,manmade,natural,NA,NA,NA,left,1144,true,NA,NA,NA,NA,NA
Y7WKlvma,NA,NA,Y7WKlvma,2020-0188,2021-11-05,12:31:32,14:52:24,NA,incomplete,false,true,NA,2,18,origin,n_l_021.jpg,right,manmade,natural,NA,NA,NA,right,1103.89999985695,true,NA,NA,NA,NA,NA
Y7WKlvma,NA,NA,Y7WKlvma,2020-0188,2021-11-05,12:31:32,14:52:24,NA,incomplete,false,true,NA,2,19,origin,m_l_026.jpg,left,manmade,natural,NA,NA,NA,left,1553.29999995232,true,NA,NA,NA,NA,NA
Y7WKlvma,NA,NA,Y7WKlvma,2020-0188,2021-11-05,12:31:32,14:52:24,NA,incomplete,false,true,NA,2,20,location,o_c_025.jpg,left,outdoor,indoor,NA,NA,NA,left,1181.30000019073,true,NA,NA,NA,NA,NA
Y7WKlvma,NA,NA,Y7WKlvma,2020-0188,2021-11-05,12:31:32,14:52:24,NA,incomplete,false,true,NA,2,21,location,i_s_004.jpg,left,indoor,outdoor,NA,NA,NA,left,1055.09999990463,true,NA,NA,NA,NA,NA
Y7WKlvma,NA,NA,Y7WKlvma,2020-0188,2021-11-05,12:31:32,14:52:24,NA,incomplete,false,true,NA,2,22,location,i_c_023.jpg,right,outdoor,indoor,NA,NA,NA,right,1398.59999990463,true,NA,NA,NA,NA,NA
Y7WKlvma,NA,NA,Y7WKlvma,2020-0188,2021-11-05,12:31:32,14:52:24,NA,incomplete,false,true,NA,2,23,location,o_c_010.jpg,left,outdoor,indoor,NA,NA,NA,left,786.200000047684,true,NA,NA,NA,NA,NA
Y7WKlvma,NA,NA,Y7WKlvma,2020-0188,2021-11-05,12:31:32,14:52:24,NA,incomplete,false,true,NA,2,24,location,i_c_006.jpg,left,indoor,outdoor,NA,NA,NA,left,1127.19999980927,true,NA,NA,NA,NA,NA
Y7WKlvma,NA,NA,Y7WKlvma,2020-0188,2021-11-05,12:31:32,14:52:24,NA,incomplete,false,true,NA,2,25,building,o_s_018.jpg,right,cottage,skyscraper,NA,NA,NA,right,1024.20000004768,true,NA,NA,NA,NA,NA
Y7WKlvma,NA,NA,Y7WKlvma,2020-0188,2021-11-05,12:31:32,14:52:24,NA,incomplete,false,true,NA,2,26,building,i_c_013.jpg,left,cottage,skyscraper,NA,NA,NA,left,1028.90000009537,true,NA,NA,NA,NA,NA
Y7WKlvma,NA,NA,Y7WKlvma,2020-0188,2021-11-05,12:31:32,14:52:24,NA,incomplete,false,true,NA,2,27,building,o_c_022.jpg,right,skyscraper,cottage,NA,NA,NA,right,1039.90000009537,true,NA,NA,NA,NA,NA
Y7WKlvma,NA,NA,Y7WKlvma,2020-0188,2021-11-05,12:31:32,14:52:24,NA,incomplete,false,true,NA,2,28,building,o_s_026.jpg,right,cottage,skyscraper,NA,NA,NA,left,1926.60000014305,false,NA,NA,NA,NA,NA
Y7WKlvma,NA,NA,Y7WKlvma,2020-0188,2021-11-05,12:31:32,14:52:24,NA,incomplete,false,true,NA,2,29,building,i_s_026.jpg,left,skyscraper,cottage,NA,NA,NA,left,1099.5,true,NA,NA,NA,NA,NA
Y7WKlvma,NA,NA,Y7WKlvma,2020-0188,2021-11-05,12:31:32,14:52:24,NA,incomplete,false,NA,true,2,0,NA,NA,left,NA,NA,i_c_006.jpg,o_c_022.jpg,between-small,NA,NaN,NA,left,3648.7999999523163,1,2,3167.4000000953674
Y7WKlvma,NA,NA,Y7WKlvma,2020-0188,2021-11-05,12:31:32,14:52:24,NA,incomplete,false,NA,true,2,1,NA,NA,left,NA,NA,c_2_024.jpg,c_1_019.jpg,between-small,NA,NaN,NA,left,3060.800000190735,1,0,1846.6999998092651
Y7WKlvma,NA,NA,Y7WKlvma,2020-0188,2021-11-05,12:31:32,14:52:24,NA,incomplete,false,NA,true,2,2,NA,NA,right,NA,NA,n_s_012.jpg,c_2_027.jpg,between-big,NA,NaN,NA,right,3760.2000000476837,1,2,5230.599999904633
Y7WKlvma,NA,NA,Y7WKlvma,2020-0188,2021-11-05,12:31:32,14:52:24,NA,incomplete,false,NA,true,2,3,NA,NA,left,NA,NA,a_1_015.jpg,a_2_009.jpg,between-small,NA,NaN,NA,left,3275.600000143051,1,1,3038.9000000953674
Y7WKlvma,NA,NA,Y7WKlvma,2020-0188,2021-11-05,12:31:32,14:52:24,NA,incomplete,false,NA,true,2,4,NA,NA,left,NA,NA,m_s_009.jpg,n_s_001.jpg,between-small,NA,NaN,NA,left,1653.5999999046326,1,2,3006.9000000953674
Y7WKlvma,NA,NA,Y7WKlvma,2020-0188,2021-11-05,12:31:32,14:52:24,NA,incomplete,false,NA,true,2,5,NA,NA,left,NA,NA,i_s_004.jpg,i_c_006.jpg,within,NA,NaN,NA,left,1640.8999998569489,1,1,3539.399999856949
Y7WKlvma,NA,NA,Y7WKlvma,2020-0188,2021-11-05,12:31:32,14:52:24,NA,incomplete,false,NA,true,2,6,NA,NA,right,NA,NA,c_2_024.jpg,a_2_012.jpg,within,NA,NaN,NA,right,1790,1,2,3660.399999856949
Y7WKlvma,NA,NA,Y7WKlvma,2020-0188,2021-11-05,12:31:32,14:52:24,NA,incomplete,false,NA,true,2,7,NA,NA,left,NA,NA,c_2_020.jpg,c_1_005.jpg,between-small,NA,NaN,NA,left,2251.0999999046326,1,1,1543.0999999046326
Y7WKlvma,NA,NA,Y7WKlvma,2020-0188,2021-11-05,12:31:32,14:52:24,NA,incomplete,false,NA,true,2,8,NA,NA,left,NA,NA,o_c_010.jpg,i_c_013.jpg,between-small,NA,NaN,NA,right,5213.299999952316,0,1,1839.7000000476837
Y7WKlvma,NA,NA,Y7WKlvma,2020-0188,2021-11-05,12:31:32,14:52:24,NA,incomplete,false,NA,true,2,9,NA,NA,left,NA,NA,c_1_019.jpg,m_l_012.jpg,between-big,NA,NaN,NA,left,1516.7000000476837,1,2,2071.5999999046326
Y7WKlvma,NA,NA,Y7WKlvma,2020-0188,2021-11-05,12:31:32,14:52:24,NA,incomplete,false,NA,true,2,10,NA,NA,left,NA,NA,m_l_012.jpg,m_s_009.jpg,within,NA,NaN,NA,left,1985.2000000476837,1,1,2198.2999999523163
Y7WKlvma,NA,NA,Y7WKlvma,2020-0188,2021-11-05,12:31:32,14:52:24,NA,incomplete,false,NA,true,2,11,NA,NA,right,NA,NA,i_s_004.jpg,n_l_021.jpg,between-big,NA,NaN,NA,right,1808.2999999523163,1,2,1926.2999999523163
Y7WKlvma,NA,NA,Y7WKlvma,2020-0188,2021-11-05,12:31:32,14:52:24,NA,incomplete,false,NA,true,2,12,NA,NA,right,NA,NA,o_s_018.jpg,i_c_023.jpg,between-small,NA,NaN,NA,left,1323.2999999523163,0,2,1468.5
Y7WKlvma,NA,NA,Y7WKlvma,2020-0188,2021-11-05,12:31:32,14:52:24,NA,incomplete,false,NA,true,2,13,NA,NA,left,NA,NA,m_l_017.jpg,m_s_019.jpg,between-small,NA,NaN,NA,left,5991.399999856949,1,1,1123
Y7WKlvma,NA,NA,Y7WKlvma,2020-0188,2021-11-05,12:31:32,14:52:24,NA,incomplete,false,NA,true,2,14,NA,NA,right,NA,NA,n_l_021.jpg,m_l_022.jpg,within,NA,NaN,NA,left,2639.7999999523163,0,1,1953.3999998569489
Y7WKlvma,NA,NA,Y7WKlvma,2020-0188,2021-11-05,12:31:32,14:52:24,NA,incomplete,false,NA,true,2,15,NA,NA,left,NA,NA,o_c_025.jpg,o_c_010.jpg,within,NA,NaN,NA,left,1218.0999999046326,1,1,1434.7999999523163
Y7WKlvma,NA,NA,Y7WKlvma,2020-0188,2021-11-05,12:31:32,14:52:24,NA,incomplete,false,NA,true,2,16,NA,NA,right,NA,NA,a_1_015.jpg,c_2_009.jpg,within,NA,NaN,NA,left,1423.5999999046326,0,2,1669.5999999046326
Y7WKlvma,NA,NA,Y7WKlvma,2020-0188,2021-11-05,12:31:32,14:52:24,NA,incomplete,false,NA,true,2,17,NA,NA,right,NA,NA,m_l_017.jpg,n_s_012.jpg,within,NA,NaN,NA,left,1212.0999999046326,0,1,1794.3999998569489
Y7WKlvma,NA,NA,Y7WKlvma,2020-0188,2021-11-05,12:31:32,14:52:24,NA,incomplete,false,NA,true,2,18,NA,NA,right,NA,NA,o_s_026.jpg,o_s_018.jpg,within,NA,NaN,NA,left,1158.8999998569489,0,1,1526.9000000953674
Y7WKlvma,NA,NA,Y7WKlvma,2020-0188,2021-11-05,12:31:32,14:52:24,NA,incomplete,false,NA,true,2,19,NA,NA,left,NA,NA,m_s_019.jpg,o_c_025.jpg,between-big,NA,NaN,NA,left,1305.0999999046326,1,2,1444.0999999046326
Y7WKlvma,NA,NA,Y7WKlvma,2020-0188,2021-11-05,12:31:32,14:52:24,NA,incomplete,false,NA,true,2,20,NA,NA,left,NA,NA,m_l_001.jpg,m_l_022.jpg,between-small,NA,NaN,NA,left,1251.1999998092651,1,1,1387.1999998092651
Y7WKlvma,NA,NA,Y7WKlvma,2020-0188,2021-11-05,12:31:32,14:52:24,NA,incomplete,false,NA,true,2,21,NA,NA,left,NA,NA,n_s_001.jpg,m_l_026.jpg,within,NA,NaN,NA,left,1106.5,1,1,3636.600000143051
Y7WKlvma,NA,NA,Y7WKlvma,2020-0188,2021-11-05,12:31:32,14:52:24,NA,incomplete,false,NA,true,2,22,NA,NA,left,NA,NA,a_2_009.jpg,c_1_020.jpg,within,NA,NaN,NA,left,1402.4000000953674,1,1,1466.9000000953674
Y7WKlvma,NA,NA,Y7WKlvma,2020-0188,2021-11-05,12:31:32,14:52:24,NA,incomplete,false,NA,true,2,23,NA,NA,left,NA,NA,m_l_026.jpg,i_c_023.jpg,between-big,NA,NaN,NA,left,1776,1,2,1793.3999998569489
Y7WKlvma,NA,NA,Y7WKlvma,2020-0188,2021-11-05,12:31:32,14:52:24,NA,incomplete,false,NA,true,2,24,NA,NA,right,NA,NA,i_s_026.jpg,i_c_013.jpg,within,NA,NaN,NA,left,1537.1000001430511,0,0,1937.5
Y7WKlvma,NA,NA,Y7WKlvma,2020-0188,2021-11-05,12:31:32,14:52:24,NA,incomplete,false,NA,true,2,25,NA,NA,left,NA,NA,c_1_020.jpg,m_l_001.jpg,between-big,NA,NaN,NA,left,1763.0999999046326,1,2,1509.7000000476837
Y7WKlvma,NA,NA,Y7WKlvma,2020-0188,2021-11-05,12:31:32,14:52:24,NA,incomplete,false,NA,true,2,26,NA,NA,left,NA,NA,c_1_005.jpg,c_2_027.jpg,within,NA,NaN,NA,left,1483.2000000476837,1,0,2638.2000000476837
Y7WKlvma,NA,NA,Y7WKlvma,2020-0188,2021-11-05,12:31:32,14:52:24,NA,incomplete,false,true,NA,3,0,abstractness,c_1_015.jpg,right,abstract,concrete,NA,NA,NA,right,1959.5,true,NA,NA,NA,NA,NA
Y7WKlvma,NA,NA,Y7WKlvma,2020-0188,2021-11-05,12:31:32,14:52:24,NA,incomplete,false,true,NA,3,1,abstractness,a_2_021.jpg,right,concrete,abstract,NA,NA,NA,right,2001.90000009537,true,NA,NA,NA,NA,NA
Y7WKlvma,NA,NA,Y7WKlvma,2020-0188,2021-11-05,12:31:32,14:52:24,NA,incomplete,false,true,NA,3,2,abstractness,c_1_027.jpg,right,abstract,concrete,NA,NA,NA,right,1610.09999990463,true,NA,NA,NA,NA,NA
Y7WKlvma,NA,NA,Y7WKlvma,2020-0188,2021-11-05,12:31:32,14:52:24,NA,incomplete,false,true,NA,3,3,abstractness,c_1_002.jpg,left,concrete,abstract,NA,NA,NA,left,1093.09999990463,true,NA,NA,NA,NA,NA
Y7WKlvma,NA,NA,Y7WKlvma,2020-0188,2021-11-05,12:31:32,14:52:24,NA,incomplete,false,true,NA,3,4,abstractness,c_1_014.jpg,left,concrete,abstract,NA,NA,NA,left,1307.5,true,NA,NA,NA,NA,NA
Y7WKlvma,NA,NA,Y7WKlvma,2020-0188,2021-11-05,12:31:32,14:52:24,NA,incomplete,false,true,NA,3,5,syllable,a_2_001.jpg,right,1 syllable,2 syllables,NA,NA,NA,right,1385.89999985695,true,NA,NA,NA,NA,NA
Y7WKlvma,NA,NA,Y7WKlvma,2020-0188,2021-11-05,12:31:32,14:52:24,NA,incomplete,false,true,NA,3,6,syllable,a_1_027.jpg,right,2 syllables,1 syllable,NA,NA,NA,right,1280.20000004768,true,NA,NA,NA,NA,NA
Y7WKlvma,NA,NA,Y7WKlvma,2020-0188,2021-11-05,12:31:32,14:52:24,NA,incomplete,false,true,NA,3,7,syllable,a_2_020.jpg,right,2 syllables,1 syllable,NA,NA,NA,left,1403.09999990463,false,NA,NA,NA,NA,NA
Y7WKlvma,NA,NA,Y7WKlvma,2020-0188,2021-11-05,12:31:32,14:52:24,NA,incomplete,false,true,NA,3,8,syllable,c_1_013.jpg,right,2 syllables,1 syllable,NA,NA,NA,right,788.900000095367,true,NA,NA,NA,NA,NA
Y7WKlvma,NA,NA,Y7WKlvma,2020-0188,2021-11-05,12:31:32,14:52:24,NA,incomplete,false,true,NA,3,9,syllable,a_2_024.jpg,right,1 syllable,2 syllables,NA,NA,NA,right,970.200000047684,true,NA,NA,NA,NA,NA
Y7WKlvma,NA,NA,Y7WKlvma,2020-0188,2021-11-05,12:31:32,14:52:24,NA,incomplete,false,true,NA,3,10,building,i_c_004.jpg,left,cottage,skyscraper,NA,NA,NA,left,1074.40000009537,true,NA,NA,NA,NA,NA
Y7WKlvma,NA,NA,Y7WKlvma,2020-0188,2021-11-05,12:31:32,14:52:24,NA,incomplete,false,true,NA,3,11,building,i_c_024.jpg,left,cottage,skyscraper,NA,NA,NA,left,892.700000047684,true,NA,NA,NA,NA,NA
Y7WKlvma,NA,NA,Y7WKlvma,2020-0188,2021-11-05,12:31:32,14:52:24,NA,incomplete,false,true,NA,3,12,building,o_s_003.jpg,left,skyscraper,cottage,NA,NA,NA,left,933,true,NA,NA,NA,NA,NA
Y7WKlvma,NA,NA,Y7WKlvma,2020-0188,2021-11-05,12:31:32,14:52:24,NA,incomplete,false,true,NA,3,13,building,i_c_014.jpg,right,skyscraper,cottage,NA,NA,NA,right,1182.89999985695,true,NA,NA,NA,NA,NA
Y7WKlvma,NA,NA,Y7WKlvma,2020-0188,2021-11-05,12:31:32,14:52:24,NA,incomplete,false,true,NA,3,14,building,o_s_027.jpg,left,skyscraper,cottage,NA,NA,NA,left,1171.70000004768,true,NA,NA,NA,NA,NA
Y7WKlvma,NA,NA,Y7WKlvma,2020-0188,2021-11-05,12:31:32,14:52:24,NA,incomplete,false,true,NA,3,15,location,o_s_020.jpg,left,outdoor,indoor,NA,NA,NA,left,1546.5,true,NA,NA,NA,NA,NA
Y7WKlvma,NA,NA,Y7WKlvma,2020-0188,2021-11-05,12:31:32,14:52:24,NA,incomplete,false,true,NA,3,16,location,o_s_004.jpg,left,outdoor,indoor,NA,NA,NA,left,1202.5,true,NA,NA,NA,NA,NA
Y7WKlvma,NA,NA,Y7WKlvma,2020-0188,2021-11-05,12:31:32,14:52:24,NA,incomplete,false,true,NA,3,17,location,i_c_002.jpg,right,outdoor,indoor,NA,NA,NA,right,1223,true,NA,NA,NA,NA,NA
Y7WKlvma,NA,NA,Y7WKlvma,2020-0188,2021-11-05,12:31:32,14:52:24,NA,incomplete,false,true,NA,3,18,location,o_c_001.jpg,left,outdoor,indoor,NA,NA,NA,left,1735.79999995232,true,NA,NA,NA,NA,NA
Y7WKlvma,NA,NA,Y7WKlvma,2020-0188,2021-11-05,12:31:32,14:52:24,NA,incomplete,false,true,NA,3,19,location,i_s_001.jpg,right,outdoor,indoor,NA,NA,NA,right,866.5,true,NA,NA,NA,NA,NA
Y7WKlvma,NA,NA,Y7WKlvma,2020-0188,2021-11-05,12:31:32,14:52:24,NA,incomplete,false,true,NA,3,20,size,m_s_021.jpg,right,large,small,NA,NA,NA,right,1187.60000014305,true,NA,NA,NA,NA,NA
Y7WKlvma,NA,NA,Y7WKlvma,2020-0188,2021-11-05,12:31:32,14:52:24,NA,incomplete,false,true,NA,3,21,size,m_s_016.jpg,right,large,small,NA,NA,NA,right,939.5,true,NA,NA,NA,NA,NA
Y7WKlvma,NA,NA,Y7WKlvma,2020-0188,2021-11-05,12:31:32,14:52:24,NA,incomplete,false,true,NA,3,22,size,m_s_014.jpg,left,small,large,NA,NA,NA,left,1110.5,true,NA,NA,NA,NA,NA
Y7WKlvma,NA,NA,Y7WKlvma,2020-0188,2021-11-05,12:31:32,14:52:24,NA,incomplete,false,true,NA,3,23,size,n_s_013.jpg,right,large,small,NA,NA,NA,right,969.700000047684,true,NA,NA,NA,NA,NA
Y7WKlvma,NA,NA,Y7WKlvma,2020-0188,2021-11-05,12:31:32,14:52:24,NA,incomplete,false,true,NA,3,24,size,m_s_006.jpg,left,small,large,NA,NA,NA,left,1026.20000004768,true,NA,NA,NA,NA,NA
Y7WKlvma,NA,NA,Y7WKlvma,2020-0188,2021-11-05,12:31:32,14:52:24,NA,incomplete,false,true,NA,3,25,origin,n_s_004.jpg,right,manmade,natural,NA,NA,NA,right,1249.80000019073,true,NA,NA,NA,NA,NA
Y7WKlvma,NA,NA,Y7WKlvma,2020-0188,2021-11-05,12:31:32,14:52:24,NA,incomplete,false,true,NA,3,26,origin,m_l_013.jpg,right,natural,manmade,NA,NA,NA,right,1631.90000009537,true,NA,NA,NA,NA,NA
Y7WKlvma,NA,NA,Y7WKlvma,2020-0188,2021-11-05,12:31:32,14:52:24,NA,incomplete,false,true,NA,3,27,origin,m_s_024.jpg,right,natural,manmade,NA,NA,NA,right,1418.70000004768,true,NA,NA,NA,NA,NA
Y7WKlvma,NA,NA,Y7WKlvma,2020-0188,2021-11-05,12:31:32,14:52:24,NA,incomplete,false,true,NA,3,28,origin,n_s_025.jpg,left,natural,manmade,NA,NA,NA,left,1243.79999995232,true,NA,NA,NA,NA,NA
Y7WKlvma,NA,NA,Y7WKlvma,2020-0188,2021-11-05,12:31:32,14:52:24,NA,incomplete,false,true,NA,3,29,origin,m_l_015.jpg,left,manmade,natural,NA,NA,NA,left,1578.5,true,NA,NA,NA,NA,NA
Y7WKlvma,NA,NA,Y7WKlvma,2020-0188,2021-11-05,12:31:32,14:52:24,NA,incomplete,false,NA,true,3,0,NA,NA,left,NA,NA,a_1_027.jpg,a_2_024.jpg,within,NA,NaN,NA,left,2507,1,2,7796.800000190735
Y7WKlvma,NA,NA,Y7WKlvma,2020-0188,2021-11-05,12:31:32,14:52:24,NA,incomplete,false,NA,true,3,1,NA,NA,left,NA,NA,c_1_015.jpg,c_1_002.jpg,within,NA,NaN,NA,left,7611.599999904633,1,1,1984.2000000476837
Y7WKlvma,NA,NA,Y7WKlvma,2020-0188,2021-11-05,12:31:32,14:52:24,NA,incomplete,false,NA,true,3,2,NA,NA,left,NA,NA,a_2_024.jpg,o_s_003.jpg,between-big,NA,NaN,NA,left,1342.5999999046326,1,2,1480.7000000476837
Y7WKlvma,NA,NA,Y7WKlvma,2020-0188,2021-11-05,12:31:32,14:52:24,NA,incomplete,false,NA,true,3,3,NA,NA,left,NA,NA,i_c_004.jpg,i_c_014.jpg,within,NA,NaN,NA,right,2738.0999999046326,0,1,2351.4000000953674
Y7WKlvma,NA,NA,Y7WKlvma,2020-0188,2021-11-05,12:31:32,14:52:24,NA,incomplete,false,NA,true,3,4,NA,NA,left,NA,NA,a_2_001.jpg,c_1_013.jpg,within,NA,NaN,NA,left,5725.800000190735,1,2,1936.5999999046326
Y7WKlvma,NA,NA,Y7WKlvma,2020-0188,2021-11-05,12:31:32,14:52:24,NA,incomplete,false,NA,true,3,5,NA,NA,right,NA,NA,m_l_015.jpg,m_l_013.jpg,within,NA,NaN,NA,right,2283.100000143051,1,2,2659
Y7WKlvma,NA,NA,Y7WKlvma,2020-0188,2021-11-05,12:31:32,14:52:24,NA,incomplete,false,NA,true,3,6,NA,NA,left,NA,NA,c_1_013.jpg,i_c_024.jpg,between-big,NA,NaN,NA,left,1568.9000000953674,1,2,1895.2000000476837
Y7WKlvma,NA,NA,Y7WKlvma,2020-0188,2021-11-05,12:31:32,14:52:24,NA,incomplete,false,NA,true,3,7,NA,NA,right,NA,NA,c_1_014.jpg,a_2_021.jpg,within,NA,NaN,NA,right,4200.400000095367,1,0,4107.799999952316
Y7WKlvma,NA,NA,Y7WKlvma,2020-0188,2021-11-05,12:31:32,14:52:24,NA,incomplete,false,NA,true,3,8,NA,NA,left,NA,NA,o_c_001.jpg,m_s_016.jpg,between-big,NA,NaN,NA,left,2263,1,2,1365.5
Y7WKlvma,NA,NA,Y7WKlvma,2020-0188,2021-11-05,12:31:32,14:52:24,NA,incomplete,false,NA,true,3,9,NA,NA,left,NA,NA,m_s_021.jpg,n_s_013.jpg,within,NA,NaN,NA,left,3436.199999809265,1,0,4320.599999904633
Y7WKlvma,NA,NA,Y7WKlvma,2020-0188,2021-11-05,12:31:32,14:52:24,NA,incomplete,false,NA,true,3,10,NA,NA,right,NA,NA,a_1_027.jpg,c_1_002.jpg,between-small,NA,NaN,NA,left,1437,0,1,2016
Y7WKlvma,NA,NA,Y7WKlvma,2020-0188,2021-11-05,12:31:32,14:52:24,NA,incomplete,false,NA,true,3,11,NA,NA,left,NA,NA,o_s_020.jpg,o_c_001.jpg,within,NA,NaN,NA,left,2341.7999999523163,1,1,2956.7999999523163
Y7WKlvma,NA,NA,Y7WKlvma,2020-0188,2021-11-05,12:31:32,14:52:24,NA,incomplete,false,NA,true,3,12,NA,NA,left,NA,NA,a_2_020.jpg,i_c_004.jpg,between-big,NA,NaN,NA,left,2144.399999856949,1,2,2100.5
Y7WKlvma,NA,NA,Y7WKlvma,2020-0188,2021-11-05,12:31:32,14:52:24,NA,incomplete,false,NA,true,3,13,NA,NA,right,NA,NA,m_s_024.jpg,m_s_006.jpg,between-small,NA,NaN,NA,left,1484.7999999523163,0,0,1525.4000000953674
Y7WKlvma,NA,NA,Y7WKlvma,2020-0188,2021-11-05,12:31:32,14:52:24,NA,incomplete,false,NA,true,3,14,NA,NA,left,NA,NA,i_c_002.jpg,m_s_021.jpg,between-big,NA,NaN,NA,left,2237.699999809265,1,2,13103.700000047684
Y7WKlvma,NA,NA,Y7WKlvma,2020-0188,2021-11-05,12:31:32,14:52:24,NA,incomplete,false,NA,true,3,15,NA,NA,left,NA,NA,i_s_001.jpg,m_s_014.jpg,between-big,NA,NaN,NA,left,1594.2999999523163,1,2,9731.300000190735
Y7WKlvma,NA,NA,Y7WKlvma,2020-0188,2021-11-05,12:31:32,14:52:24,NA,incomplete,false,NA,true,3,16,NA,NA,left,NA,NA,c_1_027.jpg,a_2_001.jpg,between-small,NA,NaN,NA,left,7534.100000143051,1,1,2433.5
Y7WKlvma,NA,NA,Y7WKlvma,2020-0188,2021-11-05,12:31:32,14:52:24,NA,incomplete,false,NA,true,3,17,NA,NA,left,NA,NA,o_s_027.jpg,i_c_002.jpg,between-small,NA,NaN,NA,left,1967.7000000476837,1,2,16245.299999952316
Y7WKlvma,NA,NA,Y7WKlvma,2020-0188,2021-11-05,12:31:32,14:52:24,NA,incomplete,false,NA,true,3,18,NA,NA,right,NA,NA,o_s_004.jpg,i_c_014.jpg,between-small,NA,NaN,NA,right,2567.5,1,2,2515.7999999523163
Y7WKlvma,NA,NA,Y7WKlvma,2020-0188,2021-11-05,12:31:32,14:52:24,NA,incomplete,false,NA,true,3,19,NA,NA,right,NA,NA,o_s_027.jpg,i_c_024.jpg,within,NA,NaN,NA,left,6515.299999952316,0,2,5964.299999952316
Y7WKlvma,NA,NA,Y7WKlvma,2020-0188,2021-11-05,12:31:32,14:52:24,NA,incomplete,false,NA,true,3,20,NA,NA,left,NA,NA,o_s_004.jpg,i_s_001.jpg,within,NA,NaN,NA,left,3846.7000000476837,1,2,2183
Y7WKlvma,NA,NA,Y7WKlvma,2020-0188,2021-11-05,12:31:32,14:52:24,NA,incomplete,false,NA,true,3,21,NA,NA,left,NA,NA,c_1_014.jpg,a_2_020.jpg,between-small,NA,NaN,NA,right,2917.5,0,1,3563.5
Y7WKlvma,NA,NA,Y7WKlvma,2020-0188,2021-11-05,12:31:32,14:52:24,NA,incomplete,false,NA,true,3,22,NA,NA,left,NA,NA,o_s_003.jpg,o_s_020.jpg,between-small,NA,NaN,NA,left,3895.5,1,0,2421.2999999523163
Y7WKlvma,NA,NA,Y7WKlvma,2020-0188,2021-11-05,12:31:32,14:52:24,NA,incomplete,false,NA,true,3,23,NA,NA,right,NA,NA,n_s_025.jpg,n_s_004.jpg,within,NA,NaN,NA,right,2290.7000000476837,1,0,1732.2999999523163
Y7WKlvma,NA,NA,Y7WKlvma,2020-0188,2021-11-05,12:31:32,14:52:24,NA,incomplete,false,NA,true,3,24,NA,NA,left,NA,NA,m_s_016.jpg,m_s_006.jpg,within,NA,NaN,NA,left,2088.0999999046326,1,1,2226.2000000476837
Y7WKlvma,NA,NA,Y7WKlvma,2020-0188,2021-11-05,12:31:32,14:52:24,NA,incomplete,false,NA,true,3,25,NA,NA,left,NA,NA,n_s_013.jpg,m_l_013.jpg,between-small,NA,NaN,NA,right,1949.2000000476837,0,1,2643.7000000476837
Y7WKlvma,NA,NA,Y7WKlvma,2020-0188,2021-11-05,12:31:32,14:52:24,NA,incomplete,false,NA,true,3,26,NA,NA,right,NA,NA,n_s_004.jpg,m_s_014.jpg,between-small,NA,NaN,NA,left,1484.6000001430511,0,2,3411.2999999523163
Y7WKlvma,NA,NA,Y7WKlvma,2020-0188,2021-11-05,12:31:32,14:52:24,NA,incomplete,false,true,NA,4,0,location,o_s_010.jpg,left,outdoor,indoor,NA,NA,NA,left,1633.70000004768,true,NA,NA,NA,NA,NA
Y7WKlvma,NA,NA,Y7WKlvma,2020-0188,2021-11-05,12:31:32,14:52:24,NA,incomplete,false,true,NA,4,1,location,i_s_012.jpg,left,indoor,outdoor,NA,NA,NA,right,1548.29999995232,false,NA,NA,NA,NA,NA
Y7WKlvma,NA,NA,Y7WKlvma,2020-0188,2021-11-05,12:31:32,14:52:24,NA,incomplete,false,true,NA,4,2,location,o_c_015.jpg,right,indoor,outdoor,NA,NA,NA,right,1314.79999995232,true,NA,NA,NA,NA,NA
Y7WKlvma,NA,NA,Y7WKlvma,2020-0188,2021-11-05,12:31:32,14:52:24,NA,incomplete,false,true,NA,4,3,location,i_s_025.jpg,right,outdoor,indoor,NA,NA,NA,right,1468.79999995232,true,NA,NA,NA,NA,NA
Y7WKlvma,NA,NA,Y7WKlvma,2020-0188,2021-11-05,12:31:32,14:52:24,NA,incomplete,false,true,NA,4,4,location,i_s_016.jpg,left,indoor,outdoor,NA,NA,NA,left,1408.09999990463,true,NA,NA,NA,NA,NA
Y7WKlvma,NA,NA,Y7WKlvma,2020-0188,2021-11-05,12:31:32,14:52:24,NA,incomplete,false,true,NA,4,5,building,i_s_006.jpg,left,skyscraper,cottage,NA,NA,NA,left,1865.30000019073,true,NA,NA,NA,NA,NA
Y7WKlvma,NA,NA,Y7WKlvma,2020-0188,2021-11-05,12:31:32,14:52:24,NA,incomplete,false,true,NA,4,6,building,o_s_021.jpg,left,skyscraper,cottage,NA,NA,NA,left,1548.40000009537,true,NA,NA,NA,NA,NA
Y7WKlvma,NA,NA,Y7WKlvma,2020-0188,2021-11-05,12:31:32,14:52:24,NA,incomplete,false,true,NA,4,7,building,i_s_002.jpg,right,cottage,skyscraper,NA,NA,NA,right,2514.40000009537,true,NA,NA,NA,NA,NA
Y7WKlvma,NA,NA,Y7WKlvma,2020-0188,2021-11-05,12:31:32,14:52:24,NA,incomplete,false,true,NA,4,8,building,i_c_008.jpg,left,cottage,skyscraper,NA,NA,NA,left,1081.70000004768,true,NA,NA,NA,NA,NA
Y7WKlvma,NA,NA,Y7WKlvma,2020-0188,2021-11-05,12:31:32,14:52:24,NA,incomplete,false,true,NA,4,9,building,i_s_013.jpg,right,cottage,skyscraper,NA,NA,NA,right,1964.60000014305,true,NA,NA,NA,NA,NA
Y7WKlvma,NA,NA,Y7WKlvma,2020-0188,2021-11-05,12:31:32,14:52:24,NA,incomplete,false,true,NA,4,10,origin,n_s_023.jpg,left,natural,manmade,NA,NA,NA,left,1363.59999990463,true,NA,NA,NA,NA,NA
Y7WKlvma,NA,NA,Y7WKlvma,2020-0188,2021-11-05,12:31:32,14:52:24,NA,incomplete,false,true,NA,4,11,origin,n_l_028.jpg,left,natural,manmade,NA,NA,NA,left,1266.09999990463,true,NA,NA,NA,NA,NA
Y7WKlvma,NA,NA,Y7WKlvma,2020-0188,2021-11-05,12:31:32,14:52:24,NA,incomplete,false,true,NA,4,12,origin,n_l_019.jpg,left,natural,manmade,NA,NA,NA,left,1728.90000009537,true,NA,NA,NA,NA,NA
Y7WKlvma,NA,NA,Y7WKlvma,2020-0188,2021-11-05,12:31:32,14:52:24,NA,incomplete,false,true,NA,4,13,origin,m_s_011.jpg,right,natural,manmade,NA,NA,NA,right,2020.29999995232,true,NA,NA,NA,NA,NA
Y7WKlvma,NA,NA,Y7WKlvma,2020-0188,2021-11-05,12:31:32,14:52:24,NA,incomplete,false,true,NA,4,14,origin,m_s_017.jpg,right,natural,manmade,NA,NA,NA,right,1986.90000009537,true,NA,NA,NA,NA,NA
Y7WKlvma,NA,NA,Y7WKlvma,2020-0188,2021-11-05,12:31:32,14:52:24,NA,incomplete,false,true,NA,4,15,size,n_l_020.jpg,right,small,large,NA,NA,NA,right,2315.29999995232,true,NA,NA,NA,NA,NA
Y7WKlvma,NA,NA,Y7WKlvma,2020-0188,2021-11-05,12:31:32,14:52:24,NA,incomplete,false,true,NA,4,16,size,m_l_016.jpg,left,large,small,NA,NA,NA,left,1448.59999990463,true,NA,NA,NA,NA,NA
Y7WKlvma,NA,NA,Y7WKlvma,2020-0188,2021-11-05,12:31:32,14:52:24,NA,incomplete,false,true,NA,4,17,size,m_l_005.jpg,left,large,small,NA,NA,NA,left,1077.70000004768,true,NA,NA,NA,NA,NA
Y7WKlvma,NA,NA,Y7WKlvma,2020-0188,2021-11-05,12:31:32,14:52:24,NA,incomplete,false,true,NA,4,18,size,n_l_003.jpg,left,large,small,NA,NA,NA,left,2013.10000014305,true,NA,NA,NA,NA,NA
Y7WKlvma,NA,NA,Y7WKlvma,2020-0188,2021-11-05,12:31:32,14:52:24,NA,incomplete,false,true,NA,4,19,size,m_l_008.jpg,right,small,large,NA,NA,NA,right,1808,true,NA,NA,NA,NA,NA
Y7WKlvma,NA,NA,Y7WKlvma,2020-0188,2021-11-05,12:31:32,14:52:24,NA,incomplete,false,true,NA,4,20,abstractness,a_2_018.jpg,left,abstract,concrete,NA,NA,NA,left,1856.29999995232,true,NA,NA,NA,NA,NA
Y7WKlvma,NA,NA,Y7WKlvma,2020-0188,2021-11-05,12:31:32,14:52:24,NA,incomplete,false,true,NA,4,21,abstractness,a_2_027.jpg,left,abstract,concrete,NA,NA,NA,left,1875.20000004768,true,NA,NA,NA,NA,NA
Y7WKlvma,NA,NA,Y7WKlvma,2020-0188,2021-11-05,12:31:32,14:52:24,NA,incomplete,false,true,NA,4,22,abstractness,a_2_006.jpg,right,concrete,abstract,NA,NA,NA,right,2513,true,NA,NA,NA,NA,NA
Y7WKlvma,NA,NA,Y7WKlvma,2020-0188,2021-11-05,12:31:32,14:52:24,NA,incomplete,false,true,NA,4,23,abstractness,a_2_028.jpg,left,abstract,concrete,NA,NA,NA,left,1773.80000019073,true,NA,NA,NA,NA,NA
Y7WKlvma,NA,NA,Y7WKlvma,2020-0188,2021-11-05,12:31:32,14:52:24,NA,incomplete,false,true,NA,4,24,abstractness,c_1_007.jpg,right,abstract,concrete,NA,NA,NA,right,1741.79999995232,true,NA,NA,NA,NA,NA
Y7WKlvma,NA,NA,Y7WKlvma,2020-0188,2021-11-05,12:31:32,14:52:24,NA,incomplete,false,true,NA,4,25,syllable,c_1_004.jpg,right,1 syllable,2 syllables,NA,NA,NA,left,1343.59999990463,false,NA,NA,NA,NA,NA
Y7WKlvma,NA,NA,Y7WKlvma,2020-0188,2021-11-05,12:31:32,14:52:24,NA,incomplete,false,true,NA,4,26,syllable,c_2_001.jpg,right,2 syllables,1 syllable,NA,NA,NA,left,1428,false,NA,NA,NA,NA,NA
Y7WKlvma,NA,NA,Y7WKlvma,2020-0188,2021-11-05,12:31:32,14:52:24,NA,incomplete,false,true,NA,4,27,syllable,a_1_008.jpg,right,2 syllables,1 syllable,NA,NA,NA,right,1407.79999995232,true,NA,NA,NA,NA,NA
Y7WKlvma,NA,NA,Y7WKlvma,2020-0188,2021-11-05,12:31:32,14:52:24,NA,incomplete,false,true,NA,4,28,syllable,a_1_012.jpg,right,1 syllable,2 syllables,NA,NA,NA,left,1238.70000004768,false,NA,NA,NA,NA,NA
Y7WKlvma,NA,NA,Y7WKlvma,2020-0188,2021-11-05,12:31:32,14:52:24,NA,incomplete,false,true,NA,4,29,syllable,a_1_004.jpg,right,2 syllables,1 syllable,NA,NA,NA,right,1559.39999985695,true,NA,NA,NA,NA,NA
Y7WKlvma,NA,NA,Y7WKlvma,2020-0188,2021-11-05,12:31:32,14:52:24,NA,incomplete,false,NA,true,4,0,NA,NA,right,NA,NA,a_2_027.jpg,n_l_003.jpg,between-big,NA,NaN,NA,right,2021.2000000476837,1,2,2835.4000000953674
Y7WKlvma,NA,NA,Y7WKlvma,2020-0188,2021-11-05,12:31:32,14:52:24,NA,incomplete,false,NA,true,4,1,NA,NA,right,NA,NA,m_l_008.jpg,m_l_016.jpg,within,NA,NaN,NA,right,2363.5,1,2,2205.100000143051
Y7WKlvma,NA,NA,Y7WKlvma,2020-0188,2021-11-05,12:31:32,14:52:24,NA,incomplete,false,NA,true,4,2,NA,NA,right,NA,NA,a_2_028.jpg,a_2_018.jpg,within,NA,NaN,NA,left,1330,0,0,3374.899999856949
Y7WKlvma,NA,NA,Y7WKlvma,2020-0188,2021-11-05,12:31:32,14:52:24,NA,incomplete,false,NA,true,4,3,NA,NA,left,NA,NA,i_s_002.jpg,n_s_023.jpg,between-big,NA,NaN,NA,left,1164.9000000953674,1,2,2012.6000001430511
Y7WKlvma,NA,NA,Y7WKlvma,2020-0188,2021-11-05,12:31:32,14:52:24,NA,incomplete,false,NA,true,4,4,NA,NA,right,NA,NA,a_1_012.jpg,c_1_004.jpg,within,NA,NaN,NA,right,3060.600000143051,1,1,1352.4000000953674
Y7WKlvma,NA,NA,Y7WKlvma,2020-0188,2021-11-05,12:31:32,14:52:24,NA,incomplete,false,NA,true,4,5,NA,NA,right,NA,NA,i_s_016.jpg,i_s_012.jpg,within,NA,NaN,NA,left,4539.700000047684,0,1,1623
Y7WKlvma,NA,NA,Y7WKlvma,2020-0188,2021-11-05,12:31:32,14:52:24,NA,incomplete,false,NA,true,4,6,NA,NA,right,NA,NA,a_2_018.jpg,m_l_005.jpg,between-big,NA,NaN,NA,right,1565.0999999046326,1,3,1638.6000001430511
Y7WKlvma,NA,NA,Y7WKlvma,2020-0188,2021-11-05,12:31:32,14:52:24,NA,incomplete,false,NA,true,4,7,NA,NA,right,NA,NA,c_1_004.jpg,a_2_006.jpg,between-small,NA,NaN,NA,left,1872.4000000953674,0,1,2699.7000000476837
Y7WKlvma,NA,NA,Y7WKlvma,2020-0188,2021-11-05,12:31:32,14:52:24,NA,incomplete,false,NA,true,4,8,NA,NA,right,NA,NA,n_l_003.jpg,n_l_020.jpg,within,NA,NaN,NA,left,3804.9000000953674,0,1,2401.899999856949
Y7WKlvma,NA,NA,Y7WKlvma,2020-0188,2021-11-05,12:31:32,14:52:24,NA,incomplete,false,NA,true,4,9,NA,NA,right,NA,NA,i_s_013.jpg,o_s_021.jpg,within,NA,NaN,NA,right,6201.099999904633,1,1,2637
Y7WKlvma,NA,NA,Y7WKlvma,2020-0188,2021-11-05,12:31:32,14:52:24,NA,incomplete,false,NA,true,4,10,NA,NA,left,NA,NA,n_l_019.jpg,n_l_020.jpg,between-small,NA,NaN,NA,left,6921.200000047684,1,1,1388.4000000953674
Y7WKlvma,NA,NA,Y7WKlvma,2020-0188,2021-11-05,12:31:32,14:52:24,NA,incomplete,false,NA,true,4,11,NA,NA,right,NA,NA,a_1_008.jpg,c_1_007.jpg,between-small,NA,NaN,NA,left,1265.6000001430511,0,1,1776.6999998092651
Y7WKlvma,NA,NA,Y7WKlvma,2020-0188,2021-11-05,12:31:32,14:52:24,NA,incomplete,false,NA,true,4,12,NA,NA,left,NA,NA,i_c_008.jpg,n_l_028.jpg,between-big,NA,NaN,NA,left,4646.100000143051,1,2,2448.5999999046326
Y7WKlvma,NA,NA,Y7WKlvma,2020-0188,2021-11-05,12:31:32,14:52:24,NA,incomplete,false,NA,true,4,13,NA,NA,right,NA,NA,i_c_008.jpg,i_s_006.jpg,within,NA,NaN,NA,left,4094.5,0,2,5231.5
Y7WKlvma,NA,NA,Y7WKlvma,2020-0188,2021-11-05,12:31:32,14:52:24,NA,incomplete,false,NA,true,4,14,NA,NA,left,NA,NA,o_s_010.jpg,i_s_025.jpg,within,NA,NaN,NA,left,2889.5999999046326,1,2,3358.399999856949
Y7WKlvma,NA,NA,Y7WKlvma,2020-0188,2021-11-05,12:31:32,14:52:24,NA,incomplete,false,NA,true,4,15,NA,NA,right,NA,NA,n_l_019.jpg,i_s_013.jpg,between-big,NA,NaN,NA,right,1877.3999998569489,1,2,1356.7000000476837
Y7WKlvma,NA,NA,Y7WKlvma,2020-0188,2021-11-05,12:31:32,14:52:24,NA,incomplete,false,NA,true,4,16,NA,NA,right,NA,NA,o_s_021.jpg,i_s_025.jpg,between-small,NA,NaN,NA,left,1210.3999998569489,0,2,1531.5999999046326
Y7WKlvma,NA,NA,Y7WKlvma,2020-0188,2021-11-05,12:31:32,14:52:24,NA,incomplete,false,NA,true,4,17,NA,NA,left,NA,NA,a_2_028.jpg,c_2_001.jpg,between-small,NA,NaN,NA,left,1844.5,1,2,1577.7999999523163
Y7WKlvma,NA,NA,Y7WKlvma,2020-0188,2021-11-05,12:31:32,14:52:24,NA,incomplete,false,NA,true,4,18,NA,NA,left,NA,NA,n_l_028.jpg,m_s_017.jpg,within,NA,NaN,NA,left,1857,1,2,1410.7000000476837
Y7WKlvma,NA,NA,Y7WKlvma,2020-0188,2021-11-05,12:31:32,14:52:24,NA,incomplete,false,NA,true,4,19,NA,NA,right,NA,NA,i_s_006.jpg,o_c_015.jpg,between-small,NA,NaN,NA,left,2818.7999999523163,0,2,1937.0999999046326
Y7WKlvma,NA,NA,Y7WKlvma,2020-0188,2021-11-05,12:31:32,14:52:24,NA,incomplete,false,NA,true,4,20,NA,NA,left,NA,NA,a_2_027.jpg,c_1_007.jpg,within,NA,NaN,NA,left,1551.4000000953674,1,1,1502.8999998569489
Y7WKlvma,NA,NA,Y7WKlvma,2020-0188,2021-11-05,12:31:32,14:52:24,NA,incomplete,false,NA,true,4,21,NA,NA,right,NA,NA,a_1_004.jpg,c_2_001.jpg,within,NA,NaN,NA,left,1396.1000001430511,0,0,1845
Y7WKlvma,NA,NA,Y7WKlvma,2020-0188,2021-11-05,12:31:32,14:52:24,NA,incomplete,false,NA,true,4,22,NA,NA,left,NA,NA,m_l_008.jpg,a_2_006.jpg,between-big,NA,NaN,NA,left,1137.6000001430511,1,3,2011.5
Y7WKlvma,NA,NA,Y7WKlvma,2020-0188,2021-11-05,12:31:32,14:52:24,NA,incomplete,false,NA,true,4,23,NA,NA,left,NA,NA,n_s_023.jpg,m_s_011.jpg,within,NA,NaN,NA,right,2500.2999999523163,0,0,3179.399999856949
Y7WKlvma,NA,NA,Y7WKlvma,2020-0188,2021-11-05,12:31:32,14:52:24,NA,incomplete,false,NA,true,4,24,NA,NA,left,NA,NA,m_s_011.jpg,m_l_016.jpg,between-small,NA,NaN,NA,right,1919.7999999523163,0,2,2214.0999999046326
Y7WKlvma,NA,NA,Y7WKlvma,2020-0188,2021-11-05,12:31:32,14:52:24,NA,incomplete,false,NA,true,4,25,NA,NA,left,NA,NA,m_s_017.jpg,m_l_005.jpg,between-small,NA,NaN,NA,right,4430.099999904633,0,2,2280.600000143051
Y7WKlvma,NA,NA,Y7WKlvma,2020-0188,2021-11-05,12:31:32,14:52:24,NA,incomplete,false,NA,true,4,26,NA,NA,right,NA,NA,i_s_002.jpg,i_s_016.jpg,between-small,NA,NaN,NA,left,1958.5999999046326,0,2,2852.2999999523163
Y7WKlvma,NA,NA,Y7WKlvma,2020-0188,2021-11-05,12:31:32,14:52:24,NA,incomplete,false,true,NA,5,0,abstractness,c_1_025.jpg,right,abstract,concrete,NA,NA,NA,right,2345.30000019073,true,NA,NA,NA,NA,NA
Y7WKlvma,NA,NA,Y7WKlvma,2020-0188,2021-11-05,12:31:32,14:52:24,NA,incomplete,false,true,NA,5,1,abstractness,c_2_021.jpg,left,concrete,abstract,NA,NA,NA,left,1276,true,NA,NA,NA,NA,NA
Y7WKlvma,NA,NA,Y7WKlvma,2020-0188,2021-11-05,12:31:32,14:52:24,NA,incomplete,false,true,NA,5,2,abstractness,a_1_022.jpg,left,abstract,concrete,NA,NA,NA,left,1947.40000009537,true,NA,NA,NA,NA,NA
Y7WKlvma,NA,NA,Y7WKlvma,2020-0188,2021-11-05,12:31:32,14:52:24,NA,incomplete,false,true,NA,5,3,abstractness,c_1_022.jpg,right,abstract,concrete,NA,NA,NA,right,1273.90000009537,true,NA,NA,NA,NA,NA
Y7WKlvma,NA,NA,Y7WKlvma,2020-0188,2021-11-05,12:31:32,14:52:24,NA,incomplete,false,true,NA,5,4,abstractness,c_2_016.jpg,left,concrete,abstract,NA,NA,NA,left,1424.59999990463,true,NA,NA,NA,NA,NA
Y7WKlvma,NA,NA,Y7WKlvma,2020-0188,2021-11-05,12:31:32,14:52:24,NA,incomplete,false,true,NA,5,5,syllable,a_1_020.jpg,right,2 syllables,1 syllable,NA,NA,NA,right,1048,true,NA,NA,NA,NA,NA
Y7WKlvma,NA,NA,Y7WKlvma,2020-0188,2021-11-05,12:31:32,14:52:24,NA,incomplete,false,true,NA,5,6,syllable,a_1_014.jpg,right,2 syllables,1 syllable,NA,NA,NA,right,911.099999904633,true,NA,NA,NA,NA,NA
Y7WKlvma,NA,NA,Y7WKlvma,2020-0188,2021-11-05,12:31:32,14:52:24,NA,incomplete,false,true,NA,5,7,syllable,a_2_014.jpg,right,2 syllables,1 syllable,NA,NA,NA,left,1292.90000009537,false,NA,NA,NA,NA,NA
Y7WKlvma,NA,NA,Y7WKlvma,2020-0188,2021-11-05,12:31:32,14:52:24,NA,incomplete,false,true,NA,5,8,syllable,c_1_011.jpg,right,1 syllable,2 syllables,NA,NA,NA,left,1410.20000004768,false,NA,NA,NA,NA,NA
Y7WKlvma,NA,NA,Y7WKlvma,2020-0188,2021-11-05,12:31:32,14:52:24,NA,incomplete,false,true,NA,5,9,syllable,a_2_011.jpg,right,1 syllable,2 syllables,NA,NA,NA,right,1357.70000004768,true,NA,NA,NA,NA,NA
Y7WKlvma,NA,NA,Y7WKlvma,2020-0188,2021-11-05,12:31:32,14:52:24,NA,incomplete,false,true,NA,5,10,origin,n_s_009.jpg,left,natural,manmade,NA,NA,NA,left,1385.79999995232,true,NA,NA,NA,NA,NA
Y7WKlvma,NA,NA,Y7WKlvma,2020-0188,2021-11-05,12:31:32,14:52:24,NA,incomplete,false,true,NA,5,11,origin,m_l_011.jpg,left,manmade,natural,NA,NA,NA,left,1541,true,NA,NA,NA,NA,NA
Y7WKlvma,NA,NA,Y7WKlvma,2020-0188,2021-11-05,12:31:32,14:52:24,NA,incomplete,false,true,NA,5,12,origin,n_l_008.jpg,left,natural,manmade,NA,NA,NA,left,886.799999952316,true,NA,NA,NA,NA,NA
Y7WKlvma,NA,NA,Y7WKlvma,2020-0188,2021-11-05,12:31:32,14:52:24,NA,incomplete,false,true,NA,5,13,origin,m_l_003.jpg,right,natural,manmade,NA,NA,NA,right,1202.29999995232,true,NA,NA,NA,NA,NA
Y7WKlvma,NA,NA,Y7WKlvma,2020-0188,2021-11-05,12:31:32,14:52:24,NA,incomplete,false,true,NA,5,14,origin,m_l_027.jpg,right,natural,manmade,NA,NA,NA,right,1731.29999995232,true,NA,NA,NA,NA,NA
Y7WKlvma,NA,NA,Y7WKlvma,2020-0188,2021-11-05,12:31:32,14:52:24,NA,incomplete,false,true,NA,5,15,size,m_l_024.jpg,right,small,large,NA,NA,NA,right,1249.60000014305,true,NA,NA,NA,NA,NA
Y7WKlvma,NA,NA,Y7WKlvma,2020-0188,2021-11-05,12:31:32,14:52:24,NA,incomplete,false,true,NA,5,16,size,n_s_024.jpg,left,small,large,NA,NA,NA,left,859.600000143051,true,NA,NA,NA,NA,NA
Y7WKlvma,NA,NA,Y7WKlvma,2020-0188,2021-11-05,12:31:32,14:52:24,NA,incomplete,false,true,NA,5,17,size,n_s_007.jpg,left,small,large,NA,NA,NA,left,1220.5,true,NA,NA,NA,NA,NA
Y7WKlvma,NA,NA,Y7WKlvma,2020-0188,2021-11-05,12:31:32,14:52:24,NA,incomplete,false,true,NA,5,18,size,n_s_002.jpg,right,large,small,NA,NA,NA,right,1386.89999985695,true,NA,NA,NA,NA,NA
Y7WKlvma,NA,NA,Y7WKlvma,2020-0188,2021-11-05,12:31:32,14:52:24,NA,incomplete,false,true,NA,5,19,size,n_l_006.jpg,left,large,small,NA,NA,NA,left,1076.69999980927,true,NA,NA,NA,NA,NA
Y7WKlvma,NA,NA,Y7WKlvma,2020-0188,2021-11-05,12:31:32,14:52:24,NA,incomplete,false,true,NA,5,20,location,o_s_008.jpg,left,outdoor,indoor,NA,NA,NA,left,1121,true,NA,NA,NA,NA,NA
Y7WKlvma,NA,NA,Y7WKlvma,2020-0188,2021-11-05,12:31:32,14:52:24,NA,incomplete,false,true,NA,5,21,location,o_c_014.jpg,left,outdoor,indoor,NA,NA,NA,left,1470,true,NA,NA,NA,NA,NA
Y7WKlvma,NA,NA,Y7WKlvma,2020-0188,2021-11-05,12:31:32,14:52:24,NA,incomplete,false,true,NA,5,22,location,o_c_021.jpg,right,indoor,outdoor,NA,NA,NA,right,1061.20000004768,true,NA,NA,NA,NA,NA
Y7WKlvma,NA,NA,Y7WKlvma,2020-0188,2021-11-05,12:31:32,14:52:24,NA,incomplete,false,true,NA,5,23,location,o_s_012.jpg,left,outdoor,indoor,NA,NA,NA,left,826.199999809265,true,NA,NA,NA,NA,NA
Y7WKlvma,NA,NA,Y7WKlvma,2020-0188,2021-11-05,12:31:32,14:52:24,NA,incomplete,false,true,NA,5,24,location,i_c_015.jpg,left,indoor,outdoor,NA,NA,NA,left,1690.20000004768,true,NA,NA,NA,NA,NA
Y7WKlvma,NA,NA,Y7WKlvma,2020-0188,2021-11-05,12:31:32,14:52:24,NA,incomplete,false,true,NA,5,25,building,o_s_005.jpg,right,cottage,skyscraper,NA,NA,NA,right,1417.5,true,NA,NA,NA,NA,NA
Y7WKlvma,NA,NA,Y7WKlvma,2020-0188,2021-11-05,12:31:32,14:52:24,NA,incomplete,false,true,NA,5,26,building,o_c_003.jpg,left,cottage,skyscraper,NA,NA,NA,left,1041.60000014305,true,NA,NA,NA,NA,NA
Y7WKlvma,NA,NA,Y7WKlvma,2020-0188,2021-11-05,12:31:32,14:52:24,NA,incomplete,false,true,NA,5,27,building,i_s_027.jpg,left,skyscraper,cottage,NA,NA,NA,left,1743.09999990463,true,NA,NA,NA,NA,NA
Y7WKlvma,NA,NA,Y7WKlvma,2020-0188,2021-11-05,12:31:32,14:52:24,NA,incomplete,false,true,NA,5,28,building,i_c_020.jpg,right,skyscraper,cottage,NA,NA,NA,right,1869.09999990463,true,NA,NA,NA,NA,NA
Y7WKlvma,NA,NA,Y7WKlvma,2020-0188,2021-11-05,12:31:32,14:52:24,NA,incomplete,false,true,NA,5,29,building,i_c_021.jpg,right,skyscraper,cottage,NA,NA,NA,right,1041.20000004768,true,NA,NA,NA,NA,NA
Y7WKlvma,NA,NA,Y7WKlvma,2020-0188,2021-11-05,12:31:32,14:52:24,NA,incomplete,false,NA,true,5,0,NA,NA,right,NA,NA,i_c_021.jpg,o_c_003.jpg,within,NA,NaN,NA,right,3559.5,1,2,2105.0999999046326
Y7WKlvma,NA,NA,Y7WKlvma,2020-0188,2021-11-05,12:31:32,14:52:24,NA,incomplete,false,NA,true,5,1,NA,NA,right,NA,NA,n_l_008.jpg,a_2_011.jpg,between-big,NA,NaN,NA,left,1268.4000000953674,0,2,2729.2000000476837
Y7WKlvma,NA,NA,Y7WKlvma,2020-0188,2021-11-05,12:31:32,14:52:24,NA,incomplete,false,NA,true,5,2,NA,NA,right,NA,NA,o_c_014.jpg,n_s_002.jpg,between-big,NA,NaN,NA,right,2302.300000190735,1,2,2000.4000000953674
Y7WKlvma,NA,NA,Y7WKlvma,2020-0188,2021-11-05,12:31:32,14:52:24,NA,incomplete,false,NA,true,5,3,NA,NA,right,NA,NA,a_1_014.jpg,c_1_022.jpg,between-small,NA,NaN,NA,left,1633.2999999523163,0,1,1324.6999998092651
Y7WKlvma,NA,NA,Y7WKlvma,2020-0188,2021-11-05,12:31:32,14:52:24,NA,incomplete,false,NA,true,5,4,NA,NA,left,NA,NA,n_s_024.jpg,n_l_006.jpg,within,NA,NaN,NA,left,7116.799999952316,1,1,3126.2000000476837
Y7WKlvma,NA,NA,Y7WKlvma,2020-0188,2021-11-05,12:31:32,14:52:24,NA,incomplete,false,NA,true,5,5,NA,NA,left,NA,NA,a_2_014.jpg,n_s_009.jpg,between-big,NA,NaN,NA,right,2528.2000000476837,0,2,3393.2999999523163
Y7WKlvma,NA,NA,Y7WKlvma,2020-0188,2021-11-05,12:31:32,14:52:24,NA,incomplete,false,NA,true,5,6,NA,NA,left,NA,NA,n_l_006.jpg,o_c_021.jpg,between-big,NA,NaN,NA,left,4046.2999999523163,1,2,1714
Y7WKlvma,NA,NA,Y7WKlvma,2020-0188,2021-11-05,12:31:32,14:52:24,NA,incomplete,false,NA,true,5,7,NA,NA,right,NA,NA,o_s_008.jpg,n_s_007.jpg,between-big,NA,NaN,NA,right,3024.7999999523163,1,2,42629.5
Y7WKlvma,NA,NA,Y7WKlvma,2020-0188,2021-11-05,12:31:32,14:52:24,NA,incomplete,false,NA,true,5,8,NA,NA,left,NA,NA,n_s_009.jpg,m_l_003.jpg,within,NA,NaN,NA,left,2389.5999999046326,1,2,2151.9000000953674
Y7WKlvma,NA,NA,Y7WKlvma,2020-0188,2021-11-05,12:31:32,14:52:24,NA,incomplete,false,NA,true,5,9,NA,NA,right,NA,NA,m_l_024.jpg,n_l_008.jpg,between-small,NA,NaN,NA,right,5907.900000095367,1,2,1620
Y7WKlvma,NA,NA,Y7WKlvma,2020-0188,2021-11-05,12:31:32,14:52:24,NA,incomplete,false,NA,true,5,10,NA,NA,left,NA,NA,m_l_011.jpg,m_l_027.jpg,within,NA,NaN,NA,right,2448.2999999523163,0,1,2852.0999999046326
Y7WKlvma,NA,NA,Y7WKlvma,2020-0188,2021-11-05,12:31:32,14:52:24,NA,incomplete,false,NA,true,5,11,NA,NA,left,NA,NA,m_l_024.jpg,n_s_002.jpg,within,NA,NaN,NA,left,2242.9000000953674,1,0,1720.6000001430511
Y7WKlvma,NA,NA,Y7WKlvma,2020-0188,2021-11-05,12:31:32,14:52:24,NA,incomplete,false,NA,true,5,12,NA,NA,right,NA,NA,o_c_003.jpg,o_s_012.jpg,between-small,NA,NaN,NA,right,40450.700000047684,1,2,2244.7999999523163
Y7WKlvma,NA,NA,Y7WKlvma,2020-0188,2021-11-05,12:31:32,14:52:24,NA,incomplete,false,NA,true,5,13,NA,NA,left,NA,NA,o_s_005.jpg,i_c_020.jpg,within,NA,NaN,NA,right,2919.4000000953674,0,2,2489.2999999523163
Y7WKlvma,NA,NA,Y7WKlvma,2020-0188,2021-11-05,12:31:32,14:52:24,NA,incomplete,false,NA,true,5,14,NA,NA,right,NA,NA,a_1_020.jpg,a_1_022.jpg,between-small,NA,NaN,NA,right,5168.400000095367,1,1,2136.2000000476837
Y7WKlvma,NA,NA,Y7WKlvma,2020-0188,2021-11-05,12:31:32,14:52:24,NA,incomplete,false,NA,true,5,15,NA,NA,right,NA,NA,c_1_022.jpg,c_1_025.jpg,within,NA,NaN,NA,left,1883.4000000953674,0,1,6367
Y7WKlvma,NA,NA,Y7WKlvma,2020-0188,2021-11-05,12:31:32,14:52:24,NA,incomplete,false,NA,true,5,16,NA,NA,right,NA,NA,m_l_011.jpg,c_1_011.jpg,between-big,NA,NaN,NA,left,2493.0999999046326,0,3,3977.2999999523163
Y7WKlvma,NA,NA,Y7WKlvma,2020-0188,2021-11-05,12:31:32,14:52:24,NA,incomplete,false,NA,true,5,17,NA,NA,left,NA,NA,c_2_021.jpg,c_2_016.jpg,within,NA,NaN,NA,left,4235.5,1,0,3608.2999999523163
Y7WKlvma,NA,NA,Y7WKlvma,2020-0188,2021-11-05,12:31:32,14:52:24,NA,incomplete,false,NA,true,5,18,NA,NA,left,NA,NA,m_l_003.jpg,n_s_024.jpg,between-small,NA,NaN,NA,right,1969.4000000953674,0,1,1636.5
Y7WKlvma,NA,NA,Y7WKlvma,2020-0188,2021-11-05,12:31:32,14:52:24,NA,incomplete,false,NA,true,5,19,NA,NA,left,NA,NA,o_c_021.jpg,o_s_005.jpg,between-small,NA,NaN,NA,left,1731.9000000953674,1,1,1735.5999999046326
Y7WKlvma,NA,NA,Y7WKlvma,2020-0188,2021-11-05,12:31:32,14:52:24,NA,incomplete,false,NA,true,5,20,NA,NA,right,NA,NA,n_s_007.jpg,m_l_027.jpg,between-small,NA,NaN,NA,left,1917.6999998092651,0,1,1970.0999999046326
Y7WKlvma,NA,NA,Y7WKlvma,2020-0188,2021-11-05,12:31:32,14:52:24,NA,incomplete,false,NA,true,5,21,NA,NA,right,NA,NA,a_2_011.jpg,a_1_014.jpg,within,NA,NaN,NA,right,2462.399999856949,1,0,3166.5999999046326
Y7WKlvma,NA,NA,Y7WKlvma,2020-0188,2021-11-05,12:31:32,14:52:24,NA,incomplete,false,NA,true,5,22,NA,NA,left,NA,NA,o_s_008.jpg,o_s_012.jpg,within,NA,NaN,NA,left,6098,1,0,1773.0999999046326
Y7WKlvma,NA,NA,Y7WKlvma,2020-0188,2021-11-05,12:31:32,14:52:24,NA,incomplete,false,NA,true,5,23,NA,NA,left,NA,NA,i_c_015.jpg,i_s_027.jpg,between-small,NA,NaN,NA,right,2817,0,0,2645.2999999523163
Y7WKlvma,NA,NA,Y7WKlvma,2020-0188,2021-11-05,12:31:32,14:52:24,NA,incomplete,false,NA,true,5,24,NA,NA,right,NA,NA,c_1_011.jpg,a_1_020.jpg,within,NA,NaN,NA,left,1501,0,1,1564.2000000476837
Y7WKlvma,NA,NA,Y7WKlvma,2020-0188,2021-11-05,12:31:32,14:52:24,NA,incomplete,false,NA,true,5,25,NA,NA,left,NA,NA,o_c_014.jpg,i_c_015.jpg,within,NA,NaN,NA,left,2714.100000143051,1,2,2615.600000143051
Y7WKlvma,NA,NA,Y7WKlvma,2020-0188,2021-11-05,12:31:32,14:52:24,NA,incomplete,false,NA,true,5,26,NA,NA,left,NA,NA,c_2_016.jpg,a_2_014.jpg,between-small,NA,NaN,NA,left,1434.9000000953674,1,0,3615.9000000953674
Y7WKlvma,NA,NA,Y7WKlvma,2020-0188,2021-11-05,12:31:32,14:52:24,NA,incomplete,false,true,NA,6,0,abstractness,c_1_017.jpg,right,abstract,concrete,NA,NA,NA,right,1916.80000019073,true,NA,NA,NA,NA,NA
Y7WKlvma,NA,NA,Y7WKlvma,2020-0188,2021-11-05,12:31:32,14:52:24,NA,incomplete,false,true,NA,6,1,abstractness,c_2_004.jpg,left,concrete,abstract,NA,NA,NA,left,1274.70000004768,true,NA,NA,NA,NA,NA
Y7WKlvma,NA,NA,Y7WKlvma,2020-0188,2021-11-05,12:31:32,14:52:24,NA,incomplete,false,true,NA,6,2,abstractness,a_1_024.jpg,right,concrete,abstract,NA,NA,NA,right,2205.69999980927,true,NA,NA,NA,NA,NA
Y7WKlvma,NA,NA,Y7WKlvma,2020-0188,2021-11-05,12:31:32,14:52:24,NA,incomplete,false,true,NA,6,3,abstractness,c_2_010.jpg,right,abstract,concrete,NA,NA,NA,right,1753.40000009537,true,NA,NA,NA,NA,NA
Y7WKlvma,NA,NA,Y7WKlvma,2020-0188,2021-11-05,12:31:32,14:52:24,NA,incomplete,false,true,NA,6,4,abstractness,a_1_019.jpg,left,abstract,concrete,NA,NA,NA,left,947.100000143051,true,NA,NA,NA,NA,NA
Y7WKlvma,NA,NA,Y7WKlvma,2020-0188,2021-11-05,12:31:32,14:52:24,NA,incomplete,false,true,NA,6,5,syllable,c_2_022.jpg,right,2 syllables,1 syllable,NA,NA,NA,left,1562.39999985695,false,NA,NA,NA,NA,NA
Y7WKlvma,NA,NA,Y7WKlvma,2020-0188,2021-11-05,12:31:32,14:52:24,NA,incomplete,false,true,NA,6,6,syllable,a_2_023.jpg,right,1 syllable,2 syllables,NA,NA,NA,right,1214.09999990463,true,NA,NA,NA,NA,NA
Y7WKlvma,NA,NA,Y7WKlvma,2020-0188,2021-11-05,12:31:32,14:52:24,NA,incomplete,false,true,NA,6,7,syllable,a_1_006.jpg,right,2 syllables,1 syllable,NA,NA,NA,right,1102.09999990463,true,NA,NA,NA,NA,NA
Y7WKlvma,NA,NA,Y7WKlvma,2020-0188,2021-11-05,12:31:32,14:52:24,NA,incomplete,false,true,NA,6,8,syllable,a_2_010.jpg,right,1 syllable,2 syllables,NA,NA,NA,right,1209.70000004768,true,NA,NA,NA,NA,NA
Y7WKlvma,NA,NA,Y7WKlvma,2020-0188,2021-11-05,12:31:32,14:52:24,NA,incomplete,false,true,NA,6,9,syllable,c_1_028.jpg,right,1 syllable,2 syllables,NA,NA,NA,left,1030.60000014305,false,NA,NA,NA,NA,NA
Y7WKlvma,NA,NA,Y7WKlvma,2020-0188,2021-11-05,12:31:32,14:52:24,NA,incomplete,false,true,NA,6,10,location,o_s_006.jpg,right,indoor,outdoor,NA,NA,NA,right,1103.80000019073,true,NA,NA,NA,NA,NA
Y7WKlvma,NA,NA,Y7WKlvma,2020-0188,2021-11-05,12:31:32,14:52:24,NA,incomplete,false,true,NA,6,11,location,o_s_023.jpg,right,indoor,outdoor,NA,NA,NA,right,1252.69999980927,true,NA,NA,NA,NA,NA
Y7WKlvma,NA,NA,Y7WKlvma,2020-0188,2021-11-05,12:31:32,14:52:24,NA,incomplete,false,true,NA,6,12,location,o_c_008.jpg,left,outdoor,indoor,NA,NA,NA,left,1285.40000009537,true,NA,NA,NA,NA,NA
Y7WKlvma,NA,NA,Y7WKlvma,2020-0188,2021-11-05,12:31:32,14:52:24,NA,incomplete,false,true,NA,6,13,location,i_c_019.jpg,left,indoor,outdoor,NA,NA,NA,left,1178.5,true,NA,NA,NA,NA,NA
Y7WKlvma,NA,NA,Y7WKlvma,2020-0188,2021-11-05,12:31:32,14:52:24,NA,incomplete,false,true,NA,6,14,location,o_s_013.jpg,right,indoor,outdoor,NA,NA,NA,right,1153.79999995232,true,NA,NA,NA,NA,NA
Y7WKlvma,NA,NA,Y7WKlvma,2020-0188,2021-11-05,12:31:32,14:52:24,NA,incomplete,false,true,NA,6,15,building,o_s_001.jpg,right,cottage,skyscraper,NA,NA,NA,right,1237.29999995232,true,NA,NA,NA,NA,NA
Y7WKlvma,NA,NA,Y7WKlvma,2020-0188,2021-11-05,12:31:32,14:52:24,NA,incomplete,false,true,NA,6,16,building,i_s_014.jpg,right,cottage,skyscraper,NA,NA,NA,right,1545.89999985695,true,NA,NA,NA,NA,NA
Y7WKlvma,NA,NA,Y7WKlvma,2020-0188,2021-11-05,12:31:32,14:52:24,NA,incomplete,false,true,NA,6,17,building,i_s_010.jpg,right,cottage,skyscraper,NA,NA,NA,right,1081.40000009537,true,NA,NA,NA,NA,NA
Y7WKlvma,NA,NA,Y7WKlvma,2020-0188,2021-11-05,12:31:32,14:52:24,NA,incomplete,false,true,NA,6,18,building,i_c_018.jpg,left,cottage,skyscraper,NA,NA,NA,left,1616.30000019073,true,NA,NA,NA,NA,NA
Y7WKlvma,NA,NA,Y7WKlvma,2020-0188,2021-11-05,12:31:32,14:52:24,NA,incomplete,false,true,NA,6,19,building,o_c_026.jpg,right,skyscraper,cottage,NA,NA,NA,right,1029,true,NA,NA,NA,NA,NA
Y7WKlvma,NA,NA,Y7WKlvma,2020-0188,2021-11-05,12:31:32,14:52:24,NA,incomplete,false,true,NA,6,20,size,m_s_008.jpg,right,large,small,NA,NA,NA,right,1100.79999995232,true,NA,NA,NA,NA,NA
Y7WKlvma,NA,NA,Y7WKlvma,2020-0188,2021-11-05,12:31:32,14:52:24,NA,incomplete,false,true,NA,6,21,size,m_l_025.jpg,right,small,large,NA,NA,NA,right,1013.20000004768,true,NA,NA,NA,NA,NA
Y7WKlvma,NA,NA,Y7WKlvma,2020-0188,2021-11-05,12:31:32,14:52:24,NA,incomplete,false,true,NA,6,22,size,n_l_004.jpg,right,small,large,NA,NA,NA,right,1314,true,NA,NA,NA,NA,NA
Y7WKlvma,NA,NA,Y7WKlvma,2020-0188,2021-11-05,12:31:32,14:52:24,NA,incomplete,false,true,NA,6,23,size,m_s_003.jpg,left,small,large,NA,NA,NA,left,1059.90000009537,true,NA,NA,NA,NA,NA
Y7WKlvma,NA,NA,Y7WKlvma,2020-0188,2021-11-05,12:31:32,14:52:24,NA,incomplete,false,true,NA,6,24,size,n_s_018.jpg,left,small,large,NA,NA,NA,left,1041.5,true,NA,NA,NA,NA,NA
Y7WKlvma,NA,NA,Y7WKlvma,2020-0188,2021-11-05,12:31:32,14:52:24,NA,incomplete,false,true,NA,6,25,origin,m_s_022.jpg,left,manmade,natural,NA,NA,NA,left,1116.79999995232,true,NA,NA,NA,NA,NA
Y7WKlvma,NA,NA,Y7WKlvma,2020-0188,2021-11-05,12:31:32,14:52:24,NA,incomplete,false,true,NA,6,26,origin,m_s_025.jpg,right,natural,manmade,NA,NA,NA,right,1394.90000009537,true,NA,NA,NA,NA,NA
Y7WKlvma,NA,NA,Y7WKlvma,2020-0188,2021-11-05,12:31:32,14:52:24,NA,incomplete,false,true,NA,6,27,origin,m_l_004.jpg,left,manmade,natural,NA,NA,NA,left,1329.5,true,NA,NA,NA,NA,NA
Y7WKlvma,NA,NA,Y7WKlvma,2020-0188,2021-11-05,12:31:32,14:52:24,NA,incomplete,false,true,NA,6,28,origin,m_s_027.jpg,right,natural,manmade,NA,NA,NA,right,1207.20000004768,true,NA,NA,NA,NA,NA
Y7WKlvma,NA,NA,Y7WKlvma,2020-0188,2021-11-05,12:31:32,14:52:24,NA,incomplete,false,true,NA,6,29,origin,n_l_026.jpg,left,natural,manmade,NA,NA,NA,right,1637,false,NA,NA,NA,NA,NA
Y7WKlvma,NA,NA,Y7WKlvma,2020-0188,2021-11-05,12:31:32,14:52:24,NA,incomplete,false,NA,true,6,0,NA,NA,right,NA,NA,n_l_026.jpg,m_s_025.jpg,within,NA,NaN,NA,right,3984.5,1,0,1388.8000001907349
Y7WKlvma,NA,NA,Y7WKlvma,2020-0188,2021-11-05,12:31:32,14:52:24,NA,incomplete,false,NA,true,6,1,NA,NA,left,NA,NA,n_l_004.jpg,m_s_022.jpg,between-small,NA,NaN,NA,left,1772.0999999046326,1,2,2076.5
Y7WKlvma,NA,NA,Y7WKlvma,2020-0188,2021-11-05,12:31:32,14:52:24,NA,incomplete,false,NA,true,6,2,NA,NA,left,NA,NA,m_s_003.jpg,m_s_025.jpg,between-small,NA,NaN,NA,left,2546.7999999523163,1,2,2617.7999999523163
Y7WKlvma,NA,NA,Y7WKlvma,2020-0188,2021-11-05,12:31:32,14:52:24,NA,incomplete,false,NA,true,6,3,NA,NA,left,NA,NA,i_c_019.jpg,i_s_014.jpg,between-small,NA,NaN,NA,left,3016.9000000953674,1,2,3640.5
Y7WKlvma,NA,NA,Y7WKlvma,2020-0188,2021-11-05,12:31:32,14:52:24,NA,incomplete,false,NA,true,6,4,NA,NA,right,NA,NA,i_c_018.jpg,o_s_001.jpg,within,NA,NaN,NA,left,2190.300000190735,0,2,1594.6000001430511
Y7WKlvma,NA,NA,Y7WKlvma,2020-0188,2021-11-05,12:31:32,14:52:24,NA,incomplete,false,NA,true,6,5,NA,NA,left,NA,NA,o_s_023.jpg,o_s_013.jpg,within,NA,NaN,NA,right,2095.5,0,2,2665.5
Y7WKlvma,NA,NA,Y7WKlvma,2020-0188,2021-11-05,12:31:32,14:52:24,NA,incomplete,false,NA,true,6,6,NA,NA,right,NA,NA,a_2_010.jpg,c_2_022.jpg,within,NA,NaN,NA,left,3221.300000190735,0,2,2839.0999999046326
Y7WKlvma,NA,NA,Y7WKlvma,2020-0188,2021-11-05,12:31:32,14:52:24,NA,incomplete,false,NA,true,6,7,NA,NA,right,NA,NA,n_l_004.jpg,o_c_026.jpg,between-big,NA,NaN,NA,left,1216.6999998092651,0,2,5060.799999952316
Y7WKlvma,NA,NA,Y7WKlvma,2020-0188,2021-11-05,12:31:32,14:52:24,NA,incomplete,false,NA,true,6,8,NA,NA,right,NA,NA,a_1_019.jpg,c_2_004.jpg,within,NA,NaN,NA,left,1851.5999999046326,0,1,2281.2000000476837
Y7WKlvma,NA,NA,Y7WKlvma,2020-0188,2021-11-05,12:31:32,14:52:24,NA,incomplete,false,NA,true,6,9,NA,NA,left,NA,NA,o_c_008.jpg,o_s_001.jpg,between-small,NA,NaN,NA,right,2348.9000000953674,0,1,2844
Y7WKlvma,NA,NA,Y7WKlvma,2020-0188,2021-11-05,12:31:32,14:52:24,NA,incomplete,false,NA,true,6,10,NA,NA,left,NA,NA,o_s_006.jpg,i_c_019.jpg,within,NA,NaN,NA,right,1856.5999999046326,0,2,3688
Y7WKlvma,NA,NA,Y7WKlvma,2020-0188,2021-11-05,12:31:32,14:52:24,NA,incomplete,false,NA,true,6,11,NA,NA,right,NA,NA,c_2_010.jpg,c_1_017.jpg,within,NA,NaN,NA,left,3047.0999999046326,0,2,1747.7000000476837
Y7WKlvma,NA,NA,Y7WKlvma,2020-0188,2021-11-05,12:31:32,14:52:24,NA,incomplete,false,NA,true,6,12,NA,NA,right,NA,NA,a_1_006.jpg,a_1_019.jpg,between-small,NA,NaN,NA,right,1949.5999999046326,1,2,1637.2999999523163
Y7WKlvma,NA,NA,Y7WKlvma,2020-0188,2021-11-05,12:31:32,14:52:24,NA,incomplete,false,NA,true,6,13,NA,NA,left,NA,NA,o_s_013.jpg,i_s_010.jpg,between-small,NA,NaN,NA,right,1469.5999999046326,0,2,4262.400000095367
Y7WKlvma,NA,NA,Y7WKlvma,2020-0188,2021-11-05,12:31:32,14:52:24,NA,incomplete,false,NA,true,6,14,NA,NA,left,NA,NA,m_l_025.jpg,n_s_018.jpg,within,NA,NaN,NA,right,1622.5999999046326,0,2,1480.5
Y7WKlvma,NA,NA,Y7WKlvma,2020-0188,2021-11-05,12:31:32,14:52:24,NA,incomplete,false,NA,true,6,15,NA,NA,right,NA,NA,m_l_025.jpg,i_c_018.jpg,between-big,NA,NaN,NA,left,1733.6000001430511,0,2,1728.5999999046326
Y7WKlvma,NA,NA,Y7WKlvma,2020-0188,2021-11-05,12:31:32,14:52:24,NA,incomplete,false,NA,true,6,16,NA,NA,left,NA,NA,m_s_022.jpg,m_s_027.jpg,within,NA,NaN,NA,left,1337.3999998569489,1,2,2380.899999856949
Y7WKlvma,NA,NA,Y7WKlvma,2020-0188,2021-11-05,12:31:32,14:52:24,NA,incomplete,false,NA,true,6,17,NA,NA,right,NA,NA,o_s_006.jpg,a_1_006.jpg,between-big,NA,NaN,NA,left,1606,0,3,1313.2000000476837
Y7WKlvma,NA,NA,Y7WKlvma,2020-0188,2021-11-05,12:31:32,14:52:24,NA,incomplete,false,NA,true,6,18,NA,NA,right,NA,NA,a_2_023.jpg,c_2_010.jpg,between-small,NA,NaN,NA,right,4192.700000047684,1,2,2302
Y7WKlvma,NA,NA,Y7WKlvma,2020-0188,2021-11-05,12:31:32,14:52:24,NA,incomplete,false,NA,true,6,19,NA,NA,left,NA,NA,a_2_023.jpg,c_1_028.jpg,within,NA,NaN,NA,left,21862.700000047684,1,1,1680.0999999046326
Y7WKlvma,NA,NA,Y7WKlvma,2020-0188,2021-11-05,12:31:32,14:52:24,NA,incomplete,false,NA,true,6,20,NA,NA,right,NA,NA,c_2_022.jpg,a_1_024.jpg,between-small,NA,NaN,NA,right,2520.2999999523163,1,1,2073.100000143051
Y7WKlvma,NA,NA,Y7WKlvma,2020-0188,2021-11-05,12:31:32,14:52:24,NA,incomplete,false,NA,true,6,21,NA,NA,right,NA,NA,o_s_023.jpg,a_2_010.jpg,between-big,NA,NaN,NA,right,1853.7000000476837,1,3,6175.700000047684
Y7WKlvma,NA,NA,Y7WKlvma,2020-0188,2021-11-05,12:31:32,14:52:24,NA,incomplete,false,NA,true,6,22,NA,NA,left,NA,NA,m_s_008.jpg,m_s_003.jpg,within,NA,NaN,NA,left,1340.1000001430511,1,1,2112.2000000476837
Y7WKlvma,NA,NA,Y7WKlvma,2020-0188,2021-11-05,12:31:32,14:52:24,NA,incomplete,false,NA,true,6,23,NA,NA,left,NA,NA,i_s_014.jpg,o_c_026.jpg,within,NA,NaN,NA,right,25857.400000095367,0,1,1812.9000000953674
Y7WKlvma,NA,NA,Y7WKlvma,2020-0188,2021-11-05,12:31:32,14:52:24,NA,incomplete,false,NA,true,6,24,NA,NA,right,NA,NA,o_c_008.jpg,c_1_028.jpg,between-big,NA,NaN,NA,left,1599.0999999046326,0,3,2671.5
Y7WKlvma,NA,NA,Y7WKlvma,2020-0188,2021-11-05,12:31:32,14:52:24,NA,incomplete,false,NA,true,6,25,NA,NA,right,NA,NA,m_l_004.jpg,n_s_018.jpg,between-small,NA,NaN,NA,left,6434.399999856949,0,1,2070.4000000953674
Y7WKlvma,NA,NA,Y7WKlvma,2020-0188,2021-11-05,12:31:32,14:52:24,NA,incomplete,false,NA,true,6,26,NA,NA,right,NA,NA,m_s_008.jpg,i_s_010.jpg,between-big,NA,NaN,NA,left,4882.299999952316,0,2,1720.5
Y7WKlvma,NA,NA,Y7WKlvma,2020-0188,2021-11-05,12:31:32,14:52:24,NA,incomplete,false,true,NA,7,0,building,i_s_008.jpg,left,skyscraper,cottage,NA,NA,NA,left,2081.5,true,NA,NA,NA,NA,NA
Y7WKlvma,NA,NA,Y7WKlvma,2020-0188,2021-11-05,12:31:32,14:52:24,NA,incomplete,false,true,NA,7,1,building,i_c_028.jpg,left,cottage,skyscraper,NA,NA,NA,right,1477.19999980927,false,NA,NA,NA,NA,NA
Y7WKlvma,NA,NA,Y7WKlvma,2020-0188,2021-11-05,12:31:32,14:52:24,NA,incomplete,false,true,NA,7,2,building,o_c_016.jpg,left,cottage,skyscraper,NA,NA,NA,right,894.5,false,NA,NA,NA,NA,NA
Y7WKlvma,NA,NA,Y7WKlvma,2020-0188,2021-11-05,12:31:32,14:52:24,NA,incomplete,false,true,NA,7,3,building,o_s_014.jpg,left,skyscraper,cottage,NA,NA,NA,left,1159.70000004768,true,NA,NA,NA,NA,NA
Y7WKlvma,NA,NA,Y7WKlvma,2020-0188,2021-11-05,12:31:32,14:52:24,NA,incomplete,false,true,NA,7,4,building,o_s_019.jpg,left,skyscraper,cottage,NA,NA,NA,left,1097.70000004768,true,NA,NA,NA,NA,NA
Y7WKlvma,NA,NA,Y7WKlvma,2020-0188,2021-11-05,12:31:32,14:52:24,NA,incomplete,false,true,NA,7,5,location,i_s_020.jpg,right,outdoor,indoor,NA,NA,NA,right,2056.79999995232,true,NA,NA,NA,NA,NA
Y7WKlvma,NA,NA,Y7WKlvma,2020-0188,2021-11-05,12:31:32,14:52:24,NA,incomplete,false,true,NA,7,6,location,i_c_011.jpg,right,outdoor,indoor,NA,NA,NA,right,1192,true,NA,NA,NA,NA,NA
Y7WKlvma,NA,NA,Y7WKlvma,2020-0188,2021-11-05,12:31:32,14:52:24,NA,incomplete,false,true,NA,7,7,location,i_c_007.jpg,left,indoor,outdoor,NA,NA,NA,left,1189.59999990463,true,NA,NA,NA,NA,NA
Y7WKlvma,NA,NA,Y7WKlvma,2020-0188,2021-11-05,12:31:32,14:52:24,NA,incomplete,false,true,NA,7,8,location,o_s_011.jpg,right,indoor,outdoor,NA,NA,NA,right,1994.20000004768,true,NA,NA,NA,NA,NA
Y7WKlvma,NA,NA,Y7WKlvma,2020-0188,2021-11-05,12:31:32,14:52:24,NA,incomplete,false,true,NA,7,9,location,i_c_026.jpg,left,indoor,outdoor,NA,NA,NA,left,1889.70000004768,true,NA,NA,NA,NA,NA
Y7WKlvma,NA,NA,Y7WKlvma,2020-0188,2021-11-05,12:31:32,14:52:24,NA,incomplete,false,true,NA,7,10,syllable,a_1_010.jpg,right,1 syllable,2 syllables,NA,NA,NA,left,854.699999809265,false,NA,NA,NA,NA,NA
Y7WKlvma,NA,NA,Y7WKlvma,2020-0188,2021-11-05,12:31:32,14:52:24,NA,incomplete,false,true,NA,7,11,syllable,c_1_010.jpg,right,2 syllables,1 syllable,NA,NA,NA,right,1043.5,true,NA,NA,NA,NA,NA
Y7WKlvma,NA,NA,Y7WKlvma,2020-0188,2021-11-05,12:31:32,14:52:24,NA,incomplete,false,true,NA,7,12,syllable,a_2_008.jpg,right,2 syllables,1 syllable,NA,NA,NA,left,845,false,NA,NA,NA,NA,NA
Y7WKlvma,NA,NA,Y7WKlvma,2020-0188,2021-11-05,12:31:32,14:52:24,NA,incomplete,false,true,NA,7,13,syllable,a_1_026.jpg,right,2 syllables,1 syllable,NA,NA,NA,right,1036.59999990463,true,NA,NA,NA,NA,NA
Y7WKlvma,NA,NA,Y7WKlvma,2020-0188,2021-11-05,12:31:32,14:52:24,NA,incomplete,false,true,NA,7,14,syllable,c_2_012.jpg,right,2 syllables,1 syllable,NA,NA,NA,left,963.5,false,NA,NA,NA,NA,NA
Y7WKlvma,NA,NA,Y7WKlvma,2020-0188,2021-11-05,12:31:32,14:52:24,NA,incomplete,false,true,NA,7,15,abstractness,c_1_024.jpg,left,concrete,abstract,NA,NA,NA,left,1596.70000004768,true,NA,NA,NA,NA,NA
Y7WKlvma,NA,NA,Y7WKlvma,2020-0188,2021-11-05,12:31:32,14:52:24,NA,incomplete,false,true,NA,7,16,abstractness,c_2_011.jpg,left,concrete,abstract,NA,NA,NA,left,1566.70000004768,true,NA,NA,NA,NA,NA
Y7WKlvma,NA,NA,Y7WKlvma,2020-0188,2021-11-05,12:31:32,14:52:24,NA,incomplete,false,true,NA,7,17,abstractness,a_1_005.jpg,left,abstract,concrete,NA,NA,NA,right,2751.70000004768,false,NA,NA,NA,NA,NA
Y7WKlvma,NA,NA,Y7WKlvma,2020-0188,2021-11-05,12:31:32,14:52:24,NA,incomplete,false,true,NA,7,18,abstractness,c_2_006.jpg,right,abstract,concrete,NA,NA,NA,right,2586.5,true,NA,NA,NA,NA,NA
Y7WKlvma,NA,NA,Y7WKlvma,2020-0188,2021-11-05,12:31:32,14:52:24,NA,incomplete,false,true,NA,7,19,abstractness,a_1_002.jpg,right,concrete,abstract,NA,NA,NA,right,1313.20000004768,true,NA,NA,NA,NA,NA
Y7WKlvma,NA,NA,Y7WKlvma,2020-0188,2021-11-05,12:31:32,14:52:24,NA,incomplete,false,true,NA,7,20,size,m_s_026.jpg,right,large,small,NA,NA,NA,right,1170.20000004768,true,NA,NA,NA,NA,NA
Y7WKlvma,NA,NA,Y7WKlvma,2020-0188,2021-11-05,12:31:32,14:52:24,NA,incomplete,false,true,NA,7,21,size,n_l_005.jpg,left,large,small,NA,NA,NA,left,819.600000143051,true,NA,NA,NA,NA,NA
Y7WKlvma,NA,NA,Y7WKlvma,2020-0188,2021-11-05,12:31:32,14:52:24,NA,incomplete,false,true,NA,7,22,size,n_s_016.jpg,right,large,small,NA,NA,NA,right,1122.10000014305,true,NA,NA,NA,NA,NA
Y7WKlvma,NA,NA,Y7WKlvma,2020-0188,2021-11-05,12:31:32,14:52:24,NA,incomplete,false,true,NA,7,23,size,n_l_001.jpg,right,small,large,NA,NA,NA,right,1289.40000009537,true,NA,NA,NA,NA,NA
Y7WKlvma,NA,NA,Y7WKlvma,2020-0188,2021-11-05,12:31:32,14:52:24,NA,incomplete,false,true,NA,7,24,size,m_s_002.jpg,left,small,large,NA,NA,NA,left,1316.79999995232,true,NA,NA,NA,NA,NA
Y7WKlvma,NA,NA,Y7WKlvma,2020-0188,2021-11-05,12:31:32,14:52:24,NA,incomplete,false,true,NA,7,25,origin,n_l_022.jpg,right,manmade,natural,NA,NA,NA,right,1929.10000014305,true,NA,NA,NA,NA,NA
Y7WKlvma,NA,NA,Y7WKlvma,2020-0188,2021-11-05,12:31:32,14:52:24,NA,incomplete,false,true,NA,7,26,origin,m_s_018.jpg,left,manmade,natural,NA,NA,NA,left,1869.59999990463,true,NA,NA,NA,NA,NA
Y7WKlvma,NA,NA,Y7WKlvma,2020-0188,2021-11-05,12:31:32,14:52:24,NA,incomplete,false,true,NA,7,27,origin,m_l_002.jpg,left,manmade,natural,NA,NA,NA,left,971.299999952316,true,NA,NA,NA,NA,NA
Y7WKlvma,NA,NA,Y7WKlvma,2020-0188,2021-11-05,12:31:32,14:52:24,NA,incomplete,false,true,NA,7,28,origin,n_s_019.jpg,right,manmade,natural,NA,NA,NA,right,1025.40000009537,true,NA,NA,NA,NA,NA
Y7WKlvma,NA,NA,Y7WKlvma,2020-0188,2021-11-05,12:31:32,14:52:24,NA,incomplete,false,true,NA,7,29,origin,n_s_020.jpg,right,manmade,natural,NA,NA,NA,right,1199.70000004768,true,NA,NA,NA,NA,NA
Y7WKlvma,NA,NA,Y7WKlvma,2020-0188,2021-11-05,12:31:32,14:52:24,NA,incomplete,false,NA,true,7,0,NA,NA,right,NA,NA,c_1_010.jpg,o_s_011.jpg,between-big,NA,NaN,NA,right,3610.7999999523163,1,2,2262.699999809265
Y7WKlvma,NA,NA,Y7WKlvma,2020-0188,2021-11-05,12:31:32,14:52:24,NA,incomplete,false,NA,true,7,1,NA,NA,left,NA,NA,i_c_026.jpg,a_2_008.jpg,between-big,NA,NaN,NA,left,4774.299999952316,1,2,1529.2999999523163
Y7WKlvma,NA,NA,Y7WKlvma,2020-0188,2021-11-05,12:31:32,14:52:24,NA,incomplete,false,NA,true,7,2,NA,NA,left,NA,NA,i_c_028.jpg,o_s_019.jpg,within,NA,NaN,NA,left,3000.399999856949,1,2,4060.5999999046326
Y7WKlvma,NA,NA,Y7WKlvma,2020-0188,2021-11-05,12:31:32,14:52:24,NA,incomplete,false,NA,true,7,3,NA,NA,right,NA,NA,n_s_019.jpg,n_l_022.jpg,within,NA,NaN,NA,left,2311.100000143051,0,1,2699.9000000953674
Y7WKlvma,NA,NA,Y7WKlvma,2020-0188,2021-11-05,12:31:32,14:52:24,NA,incomplete,false,NA,true,7,4,NA,NA,right,NA,NA,i_c_026.jpg,i_c_011.jpg,within,NA,NaN,NA,left,1779.6000001430511,0,2,4581.099999904633
Y7WKlvma,NA,NA,Y7WKlvma,2020-0188,2021-11-05,12:31:32,14:52:24,NA,incomplete,false,NA,true,7,5,NA,NA,left,NA,NA,c_2_011.jpg,a_1_002.jpg,within,NA,NaN,NA,left,3213.699999809265,1,1,4859
Y7WKlvma,NA,NA,Y7WKlvma,2020-0188,2021-11-05,12:31:32,14:52:24,NA,incomplete,false,NA,true,7,6,NA,NA,left,NA,NA,c_2_012.jpg,a_1_005.jpg,between-small,NA,NaN,NA,left,1951.7000000476837,1,1,2124.5
Y7WKlvma,NA,NA,Y7WKlvma,2020-0188,2021-11-05,12:31:32,14:52:24,NA,incomplete,false,NA,true,7,7,NA,NA,right,NA,NA,i_c_011.jpg,o_s_014.jpg,between-small,NA,NaN,NA,left,1443,0,2,2410.699999809265
Y7WKlvma,NA,NA,Y7WKlvma,2020-0188,2021-11-05,12:31:32,14:52:24,NA,incomplete,false,NA,true,7,8,NA,NA,right,NA,NA,a_1_026.jpg,a_1_010.jpg,within,NA,NaN,NA,right,2056.7999999523163,1,1,2419.7999999523163
Y7WKlvma,NA,NA,Y7WKlvma,2020-0188,2021-11-05,12:31:32,14:52:24,NA,incomplete,false,NA,true,7,9,NA,NA,left,NA,NA,n_l_005.jpg,m_s_002.jpg,within,NA,NaN,NA,left,1001.1000001430511,1,1,2097.600000143051
Y7WKlvma,NA,NA,Y7WKlvma,2020-0188,2021-11-05,12:31:32,14:52:24,NA,incomplete,false,NA,true,7,10,NA,NA,right,NA,NA,c_2_011.jpg,a_1_026.jpg,between-small,NA,NaN,NA,left,1015.7000000476837,0,1,2637.5999999046326
Y7WKlvma,NA,NA,Y7WKlvma,2020-0188,2021-11-05,12:31:32,14:52:24,NA,incomplete,false,NA,true,7,11,NA,NA,left,NA,NA,c_1_024.jpg,c_2_006.jpg,within,NA,NaN,NA,left,1110.5999999046326,1,1,1702.5
Y7WKlvma,NA,NA,Y7WKlvma,2020-0188,2021-11-05,12:31:32,14:52:24,NA,incomplete,false,NA,true,7,12,NA,NA,right,NA,NA,n_s_020.jpg,m_s_018.jpg,within,NA,NaN,NA,left,1405.5,0,2,2042.1000001430511
Y7WKlvma,NA,NA,Y7WKlvma,2020-0188,2021-11-05,12:31:32,14:52:24,NA,incomplete,false,NA,true,7,13,NA,NA,right,NA,NA,c_2_012.jpg,c_1_010.jpg,within,NA,NaN,NA,left,1014.4000000953674,0,1,4726.299999952316
Y7WKlvma,NA,NA,Y7WKlvma,2020-0188,2021-11-05,12:31:32,14:52:24,NA,incomplete,false,NA,true,7,14,NA,NA,left,NA,NA,o_c_016.jpg,i_s_020.jpg,between-small,NA,NaN,NA,left,1940.6999998092651,1,2,1841.1000001430511
Y7WKlvma,NA,NA,Y7WKlvma,2020-0188,2021-11-05,12:31:32,14:52:24,NA,incomplete,false,NA,true,7,15,NA,NA,right,NA,NA,n_l_022.jpg,n_s_016.jpg,between-small,NA,NaN,NA,right,2664.100000143051,1,1,3639.7999999523163
Y7WKlvma,NA,NA,Y7WKlvma,2020-0188,2021-11-05,12:31:32,14:52:24,NA,incomplete,false,NA,true,7,16,NA,NA,left,NA,NA,m_s_002.jpg,m_l_002.jpg,between-small,NA,NaN,NA,left,1357.7999999523163,1,2,1704
Y7WKlvma,NA,NA,Y7WKlvma,2020-0188,2021-11-05,12:31:32,14:52:24,NA,incomplete,false,NA,true,7,17,NA,NA,right,NA,NA,n_l_001.jpg,m_s_026.jpg,within,NA,NaN,NA,right,1848.2999999523163,1,2,1451
Y7WKlvma,NA,NA,Y7WKlvma,2020-0188,2021-11-05,12:31:32,14:52:24,NA,incomplete,false,NA,true,7,18,NA,NA,left,NA,NA,i_s_020.jpg,o_s_011.jpg,within,NA,NaN,NA,left,1062.9000000953674,1,2,2466.800000190735
Y7WKlvma,NA,NA,Y7WKlvma,2020-0188,2021-11-05,12:31:32,14:52:24,NA,incomplete,false,NA,true,7,19,NA,NA,left,NA,NA,c_2_006.jpg,n_l_005.jpg,between-big,NA,NaN,NA,right,2906.9000000953674,0,2,1569.4000000953674
Y7WKlvma,NA,NA,Y7WKlvma,2020-0188,2021-11-05,12:31:32,14:52:24,NA,incomplete,false,NA,true,7,20,NA,NA,right,NA,NA,c_1_024.jpg,a_2_008.jpg,between-small,NA,NaN,NA,right,2368.5,1,1,3344.399999856949
Y7WKlvma,NA,NA,Y7WKlvma,2020-0188,2021-11-05,12:31:32,14:52:24,NA,incomplete,false,NA,true,7,21,NA,NA,left,NA,NA,i_s_008.jpg,o_s_014.jpg,within,NA,NaN,NA,left,1096.2999999523163,1,2,2993.7000000476837
Y7WKlvma,NA,NA,Y7WKlvma,2020-0188,2021-11-05,12:31:32,14:52:24,NA,incomplete,false,NA,true,7,22,NA,NA,right,NA,NA,m_s_018.jpg,n_l_001.jpg,between-small,NA,NaN,NA,right,2162.7999999523163,1,2,1642.2000000476837
Y7WKlvma,NA,NA,Y7WKlvma,2020-0188,2021-11-05,12:31:32,14:52:24,NA,incomplete,false,NA,true,7,23,NA,NA,left,NA,NA,i_c_007.jpg,a_1_010.jpg,between-big,NA,NaN,NA,left,1186.2999999523163,1,3,2138
Y7WKlvma,NA,NA,Y7WKlvma,2020-0188,2021-11-05,12:31:32,14:52:24,NA,incomplete,false,NA,true,7,24,NA,NA,left,NA,NA,a_1_005.jpg,m_s_026.jpg,between-big,NA,NaN,NA,right,2416.899999856949,0,2,1586.4000000953674
Y7WKlvma,NA,NA,Y7WKlvma,2020-0188,2021-11-05,12:31:32,14:52:24,NA,incomplete,false,NA,true,7,25,NA,NA,left,NA,NA,o_s_019.jpg,i_c_007.jpg,between-small,NA,NaN,NA,left,1730.7000000476837,1,1,1847.2999999523163
Y7WKlvma,NA,NA,Y7WKlvma,2020-0188,2021-11-05,12:31:32,14:52:24,NA,incomplete,false,NA,true,7,26,NA,NA,right,NA,NA,n_s_016.jpg,a_1_002.jpg,between-big,NA,NaN,NA,left,1018.7000000476837,0,2,2703.9000000953674
Y7WKlvma,NA,NA,Y7WKlvma,2020-0188,2021-11-05,12:31:32,14:52:24,NA,incomplete,false,true,NA,8,0,location,o_s_025.jpg,right,indoor,outdoor,NA,NA,NA,right,2545.79999995232,true,NA,NA,NA,NA,NA
Y7WKlvma,NA,NA,Y7WKlvma,2020-0188,2021-11-05,12:31:32,14:52:24,NA,incomplete,false,true,NA,8,1,location,i_s_015.jpg,left,indoor,outdoor,NA,NA,NA,left,874.5,true,NA,NA,NA,NA,NA
Y7WKlvma,NA,NA,Y7WKlvma,2020-0188,2021-11-05,12:31:32,14:52:24,NA,incomplete,false,true,NA,8,2,location,i_s_021.jpg,left,indoor,outdoor,NA,NA,NA,left,755.299999952316,true,NA,NA,NA,NA,NA
Y7WKlvma,NA,NA,Y7WKlvma,2020-0188,2021-11-05,12:31:32,14:52:24,NA,incomplete,false,true,NA,8,3,location,i_c_027.jpg,right,outdoor,indoor,NA,NA,NA,right,1498.29999995232,true,NA,NA,NA,NA,NA
Y7WKlvma,NA,NA,Y7WKlvma,2020-0188,2021-11-05,12:31:32,14:52:24,NA,incomplete,false,true,NA,8,4,location,i_c_010.jpg,right,outdoor,indoor,NA,NA,NA,right,995.799999952316,true,NA,NA,NA,NA,NA
Y7WKlvma,NA,NA,Y7WKlvma,2020-0188,2021-11-05,12:31:32,14:52:24,NA,incomplete,false,true,NA,8,5,building,i_s_028.jpg,left,skyscraper,cottage,NA,NA,NA,left,1017.39999985695,true,NA,NA,NA,NA,NA
Y7WKlvma,NA,NA,Y7WKlvma,2020-0188,2021-11-05,12:31:32,14:52:24,NA,incomplete,false,true,NA,8,6,building,o_c_017.jpg,right,skyscraper,cottage,NA,NA,NA,right,1030.5,true,NA,NA,NA,NA,NA
Y7WKlvma,NA,NA,Y7WKlvma,2020-0188,2021-11-05,12:31:32,14:52:24,NA,incomplete,false,true,NA,8,7,building,o_c_011.jpg,left,cottage,skyscraper,NA,NA,NA,left,1083.09999990463,true,NA,NA,NA,NA,NA
Y7WKlvma,NA,NA,Y7WKlvma,2020-0188,2021-11-05,12:31:32,14:52:24,NA,incomplete,false,true,NA,8,8,building,i_s_011.jpg,left,skyscraper,cottage,NA,NA,NA,left,943.799999952316,true,NA,NA,NA,NA,NA
Y7WKlvma,NA,NA,Y7WKlvma,2020-0188,2021-11-05,12:31:32,14:52:24,NA,incomplete,false,true,NA,8,9,building,i_s_007.jpg,left,skyscraper,cottage,NA,NA,NA,left,1710.70000004768,true,NA,NA,NA,NA,NA
Y7WKlvma,NA,NA,Y7WKlvma,2020-0188,2021-11-05,12:31:32,14:52:24,NA,incomplete,false,true,NA,8,10,abstractness,a_2_025.jpg,left,abstract,concrete,NA,NA,NA,left,2282,true,NA,NA,NA,NA,NA
Y7WKlvma,NA,NA,Y7WKlvma,2020-0188,2021-11-05,12:31:32,14:52:24,NA,incomplete,false,true,NA,8,11,abstractness,a_2_004.jpg,left,abstract,concrete,NA,NA,NA,left,2075.29999995232,true,NA,NA,NA,NA,NA
Y7WKlvma,NA,NA,Y7WKlvma,2020-0188,2021-11-05,12:31:32,14:52:24,NA,incomplete,false,true,NA,8,12,abstractness,c_1_016.jpg,left,concrete,abstract,NA,NA,NA,left,1213.29999995232,true,NA,NA,NA,NA,NA
Y7WKlvma,NA,NA,Y7WKlvma,2020-0188,2021-11-05,12:31:32,14:52:24,NA,incomplete,false,true,NA,8,13,abstractness,c_1_012.jpg,left,concrete,abstract,NA,NA,NA,left,989.699999809265,true,NA,NA,NA,NA,NA
Y7WKlvma,NA,NA,Y7WKlvma,2020-0188,2021-11-05,12:31:32,14:52:24,NA,incomplete,false,true,NA,8,14,abstractness,c_2_019.jpg,right,abstract,concrete,NA,NA,NA,right,1358.89999985695,true,NA,NA,NA,NA,NA
Y7WKlvma,NA,NA,Y7WKlvma,2020-0188,2021-11-05,12:31:32,14:52:24,NA,incomplete,false,true,NA,8,15,syllable,a_2_016.jpg,right,2 syllables,1 syllable,NA,NA,NA,left,1134.09999990463,false,NA,NA,NA,NA,NA
Y7WKlvma,NA,NA,Y7WKlvma,2020-0188,2021-11-05,12:31:32,14:52:24,NA,incomplete,false,true,NA,8,16,syllable,a_1_016.jpg,right,2 syllables,1 syllable,NA,NA,NA,right,1093.5,true,NA,NA,NA,NA,NA
Y7WKlvma,NA,NA,Y7WKlvma,2020-0188,2021-11-05,12:31:32,14:52:24,NA,incomplete,false,true,NA,8,17,syllable,a_1_011.jpg,right,1 syllable,2 syllables,NA,NA,NA,left,900.600000143051,false,NA,NA,NA,NA,NA
Y7WKlvma,NA,NA,Y7WKlvma,2020-0188,2021-11-05,12:31:32,14:52:24,NA,incomplete,false,true,NA,8,18,syllable,c_1_006.jpg,right,2 syllables,1 syllable,NA,NA,NA,right,821.800000190735,true,NA,NA,NA,NA,NA
Y7WKlvma,NA,NA,Y7WKlvma,2020-0188,2021-11-05,12:31:32,14:52:24,NA,incomplete,false,true,NA,8,19,syllable,a_1_021.jpg,right,2 syllables,1 syllable,NA,NA,NA,right,929.899999856949,true,NA,NA,NA,NA,NA
Y7WKlvma,NA,NA,Y7WKlvma,2020-0188,2021-11-05,12:31:32,14:52:24,NA,incomplete,false,true,NA,8,20,size,n_l_016.jpg,left,large,small,NA,NA,NA,left,937.200000047684,true,NA,NA,NA,NA,NA
Y7WKlvma,NA,NA,Y7WKlvma,2020-0188,2021-11-05,12:31:32,14:52:24,NA,incomplete,false,true,NA,8,21,size,m_s_001.jpg,right,large,small,NA,NA,NA,right,1189.20000004768,true,NA,NA,NA,NA,NA
Y7WKlvma,NA,NA,Y7WKlvma,2020-0188,2021-11-05,12:31:32,14:52:24,NA,incomplete,false,true,NA,8,22,size,n_l_013.jpg,left,large,small,NA,NA,NA,left,1343.90000009537,true,NA,NA,NA,NA,NA
Y7WKlvma,NA,NA,Y7WKlvma,2020-0188,2021-11-05,12:31:32,14:52:24,NA,incomplete,false,true,NA,8,23,size,n_s_027.jpg,right,large,small,NA,NA,NA,right,945.5,true,NA,NA,NA,NA,NA
Y7WKlvma,NA,NA,Y7WKlvma,2020-0188,2021-11-05,12:31:32,14:52:24,NA,incomplete,false,true,NA,8,24,size,m_l_018.jpg,right,small,large,NA,NA,NA,right,1237.90000009537,true,NA,NA,NA,NA,NA
Y7WKlvma,NA,NA,Y7WKlvma,2020-0188,2021-11-05,12:31:32,14:52:24,NA,incomplete,false,true,NA,8,25,origin,n_s_021.jpg,left,natural,manmade,NA,NA,NA,left,1142.20000004768,true,NA,NA,NA,NA,NA
Y7WKlvma,NA,NA,Y7WKlvma,2020-0188,2021-11-05,12:31:32,14:52:24,NA,incomplete,false,true,NA,8,26,origin,n_s_003.jpg,right,manmade,natural,NA,NA,NA,right,1348.40000009537,true,NA,NA,NA,NA,NA
Y7WKlvma,NA,NA,Y7WKlvma,2020-0188,2021-11-05,12:31:32,14:52:24,NA,incomplete,false,true,NA,8,27,origin,n_l_002.jpg,right,manmade,natural,NA,NA,NA,right,1286.70000004768,true,NA,NA,NA,NA,NA
Y7WKlvma,NA,NA,Y7WKlvma,2020-0188,2021-11-05,12:31:32,14:52:24,NA,incomplete,false,true,NA,8,28,origin,m_s_007.jpg,right,natural,manmade,NA,NA,NA,right,1223.30000019073,true,NA,NA,NA,NA,NA
Y7WKlvma,NA,NA,Y7WKlvma,2020-0188,2021-11-05,12:31:32,14:52:24,NA,incomplete,false,true,NA,8,29,origin,n_l_012.jpg,right,manmade,natural,NA,NA,NA,right,1638.29999995232,true,NA,NA,NA,NA,NA
Y7WKlvma,NA,NA,Y7WKlvma,2020-0188,2021-11-05,12:31:32,14:52:24,NA,incomplete,false,NA,true,8,0,NA,NA,right,NA,NA,m_s_001.jpg,c_1_006.jpg,between-big,NA,NaN,NA,left,1857.3000001907349,0,2,1923.7000000476837
Y7WKlvma,NA,NA,Y7WKlvma,2020-0188,2021-11-05,12:31:32,14:52:24,NA,incomplete,false,NA,true,8,1,NA,NA,left,NA,NA,a_1_011.jpg,n_l_016.jpg,between-big,NA,NaN,NA,right,1584.7000000476837,0,2,2549.2999999523163
Y7WKlvma,NA,NA,Y7WKlvma,2020-0188,2021-11-05,12:31:32,14:52:24,NA,incomplete,false,NA,true,8,2,NA,NA,left,NA,NA,a_2_016.jpg,c_1_006.jpg,within,NA,NaN,NA,left,1730.2000000476837,1,1,1541.3000001907349
Y7WKlvma,NA,NA,Y7WKlvma,2020-0188,2021-11-05,12:31:32,14:52:24,NA,incomplete,false,NA,true,8,3,NA,NA,right,NA,NA,n_s_003.jpg,n_s_027.jpg,between-small,NA,NaN,NA,left,1395.5999999046326,0,1,3261.5999999046326
Y7WKlvma,NA,NA,Y7WKlvma,2020-0188,2021-11-05,12:31:32,14:52:24,NA,incomplete,false,NA,true,8,4,NA,NA,right,NA,NA,c_2_019.jpg,a_2_004.jpg,within,NA,NaN,NA,right,2779.7000000476837,1,0,3341.4000000953674
Y7WKlvma,NA,NA,Y7WKlvma,2020-0188,2021-11-05,12:31:32,14:52:24,NA,incomplete,false,NA,true,8,5,NA,NA,left,NA,NA,m_l_018.jpg,n_l_002.jpg,between-small,NA,NaN,NA,right,3184.7999999523163,0,1,3333
Y7WKlvma,NA,NA,Y7WKlvma,2020-0188,2021-11-05,12:31:32,14:52:24,NA,incomplete,false,NA,true,8,6,NA,NA,right,NA,NA,o_c_011.jpg,i_c_010.jpg,between-small,NA,NaN,NA,left,1506.9000000953674,0,0,2204.0999999046326
Y7WKlvma,NA,NA,Y7WKlvma,2020-0188,2021-11-05,12:31:32,14:52:24,NA,incomplete,false,NA,true,8,7,NA,NA,left,NA,NA,o_c_011.jpg,a_2_025.jpg,between-big,NA,NaN,NA,left,1298.3000001907349,1,2,1499.2999999523163
Y7WKlvma,NA,NA,Y7WKlvma,2020-0188,2021-11-05,12:31:32,14:52:24,NA,incomplete,false,NA,true,8,8,NA,NA,left,NA,NA,n_s_021.jpg,m_s_007.jpg,within,NA,NaN,NA,left,1047,1,0,4337.5
Y7WKlvma,NA,NA,Y7WKlvma,2020-0188,2021-11-05,12:31:32,14:52:24,NA,incomplete,false,NA,true,8,9,NA,NA,right,NA,NA,a_1_016.jpg,c_1_012.jpg,between-small,NA,NaN,NA,left,1369.4000000953674,0,2,2778.399999856949
Y7WKlvma,NA,NA,Y7WKlvma,2020-0188,2021-11-05,12:31:32,14:52:24,NA,incomplete,false,NA,true,8,10,NA,NA,left,NA,NA,a_2_025.jpg,c_1_012.jpg,within,NA,NaN,NA,left,942,1,1,1932.8999998569489
Y7WKlvma,NA,NA,Y7WKlvma,2020-0188,2021-11-05,12:31:32,14:52:24,NA,incomplete,false,NA,true,8,11,NA,NA,left,NA,NA,c_2_019.jpg,a_1_011.jpg,between-small,NA,NaN,NA,left,8338.5,1,1,2974.2000000476837
Y7WKlvma,NA,NA,Y7WKlvma,2020-0188,2021-11-05,12:31:32,14:52:24,NA,incomplete,false,NA,true,8,12,NA,NA,right,NA,NA,i_s_028.jpg,i_s_021.jpg,between-small,NA,NaN,NA,right,3769,1,1,2164
Y7WKlvma,NA,NA,Y7WKlvma,2020-0188,2021-11-05,12:31:32,14:52:24,NA,incomplete,false,NA,true,8,13,NA,NA,right,NA,NA,n_s_021.jpg,n_l_013.jpg,between-small,NA,NaN,NA,left,1141.9000000953674,0,1,3389.899999856949
Y7WKlvma,NA,NA,Y7WKlvma,2020-0188,2021-11-05,12:31:32,14:52:24,NA,incomplete,false,NA,true,8,14,NA,NA,right,NA,NA,a_2_004.jpg,i_s_011.jpg,between-big,NA,NaN,NA,right,2543,1,3,2847.5
Y7WKlvma,NA,NA,Y7WKlvma,2020-0188,2021-11-05,12:31:32,14:52:24,NA,incomplete,false,NA,true,8,15,NA,NA,right,NA,NA,n_l_012.jpg,n_s_003.jpg,within,NA,NaN,NA,left,1263.1000001430511,0,1,1963.6000001430511
Y7WKlvma,NA,NA,Y7WKlvma,2020-0188,2021-11-05,12:31:32,14:52:24,NA,incomplete,false,NA,true,8,16,NA,NA,left,NA,NA,i_s_028.jpg,i_s_011.jpg,within,NA,NaN,NA,left,4398.5,1,1,3397.100000143051
Y7WKlvma,NA,NA,Y7WKlvma,2020-0188,2021-11-05,12:31:32,14:52:24,NA,incomplete,false,NA,true,8,17,NA,NA,left,NA,NA,c_1_016.jpg,a_2_016.jpg,between-small,NA,NaN,NA,left,12648.099999904633,1,1,9854
Y7WKlvma,NA,NA,Y7WKlvma,2020-0188,2021-11-05,12:31:32,14:52:24,NA,incomplete,false,NA,true,8,18,NA,NA,right,NA,NA,o_c_017.jpg,i_c_027.jpg,between-small,NA,NaN,NA,left,1342.7000000476837,0,1,1711.5999999046326
Y7WKlvma,NA,NA,Y7WKlvma,2020-0188,2021-11-05,12:31:32,14:52:24,NA,incomplete,false,NA,true,8,19,NA,NA,right,NA,NA,n_l_013.jpg,a_1_021.jpg,between-big,NA,NaN,NA,left,952.3999998569489,0,2,2258.699999809265
Y7WKlvma,NA,NA,Y7WKlvma,2020-0188,2021-11-05,12:31:32,14:52:24,NA,incomplete,false,NA,true,8,20,NA,NA,right,NA,NA,i_c_027.jpg,o_s_025.jpg,within,NA,NaN,NA,left,1108.9000000953674,0,2,3837.5999999046326
Y7WKlvma,NA,NA,Y7WKlvma,2020-0188,2021-11-05,12:31:32,14:52:24,NA,incomplete,false,NA,true,8,21,NA,NA,left,NA,NA,n_l_016.jpg,n_s_027.jpg,within,NA,NaN,NA,left,1171.2000000476837,1,1,1855.7999999523163
Y7WKlvma,NA,NA,Y7WKlvma,2020-0188,2021-11-05,12:31:32,14:52:24,NA,incomplete,false,NA,true,8,22,NA,NA,left,NA,NA,a_1_016.jpg,a_1_021.jpg,within,NA,NaN,NA,left,1373.5,1,0,2323
Y7WKlvma,NA,NA,Y7WKlvma,2020-0188,2021-11-05,12:31:32,14:52:24,NA,incomplete,false,NA,true,8,23,NA,NA,left,NA,NA,o_c_017.jpg,i_s_007.jpg,within,NA,NaN,NA,left,2400,1,2,4124.200000047684
Y7WKlvma,NA,NA,Y7WKlvma,2020-0188,2021-11-05,12:31:32,14:52:24,NA,incomplete,false,NA,true,8,24,NA,NA,right,NA,NA,i_c_010.jpg,i_s_015.jpg,within,NA,NaN,NA,right,8178.900000095367,1,0,2133.0999999046326
Y7WKlvma,NA,NA,Y7WKlvma,2020-0188,2021-11-05,12:31:32,14:52:24,NA,incomplete,false,NA,true,8,25,NA,NA,left,NA,NA,m_s_001.jpg,m_l_018.jpg,within,NA,NaN,NA,left,1295.5,1,1,1482
Y7WKlvma,NA,NA,Y7WKlvma,2020-0188,2021-11-05,12:31:32,14:52:24,NA,incomplete,false,NA,true,8,26,NA,NA,right,NA,NA,c_1_016.jpg,i_s_007.jpg,between-big,NA,NaN,NA,right,1801.7999999523163,1,2,1481.3999998569489
Y7WKlvma,NA,NA,Y7WKlvma,2020-0188,2021-11-05,12:31:32,14:52:24,NA,incomplete,false,true,NA,9,0,abstractness,a_2_013.jpg,left,abstract,concrete,NA,NA,NA,left,2257,true,NA,NA,NA,NA,NA
Y7WKlvma,NA,NA,Y7WKlvma,2020-0188,2021-11-05,12:31:32,14:52:24,NA,incomplete,false,true,NA,9,1,abstractness,a_1_009.jpg,right,concrete,abstract,NA,NA,NA,right,2428,true,NA,NA,NA,NA,NA
Y7WKlvma,NA,NA,Y7WKlvma,2020-0188,2021-11-05,12:31:32,14:52:24,NA,incomplete,false,true,NA,9,2,abstractness,c_2_025.jpg,left,concrete,abstract,NA,NA,NA,left,1544.40000009537,true,NA,NA,NA,NA,NA
