workerId,hitId,assignmentId,subject,studyid,exp_date,exp_start,exp_end,time_start,time_end,practice,encoding,memory,block,trial,event,stim,answer,label_left,label_right,left_image,right_image,condition,response,response_time,response_acc,order_response,order_response_time,order_acc,distance_response,distance_response_time
YmtbJkIk,NA,NA,YmtbJkIk,2020-0188,2021-09-27,14:30:29,16:20:42,NA,incomplete,true,true,NA,0,0,origin,n_l_015.jpg,right,manmade,natural,NA,NA,NA,right,1188.39999997616,true,NA,NA,NA,NA,NA
YmtbJkIk,NA,NA,YmtbJkIk,2020-0188,2021-09-27,14:30:29,16:20:42,NA,incomplete,true,true,NA,0,1,origin,m_l_012.jpg,left,manmade,natural,NA,NA,NA,left,1177.39999997616,true,NA,NA,NA,NA,NA
YmtbJkIk,NA,NA,YmtbJkIk,2020-0188,2021-09-27,14:30:29,16:20:42,NA,incomplete,true,true,NA,0,2,origin,m_l_014.jpg,left,manmade,natural,NA,NA,NA,left,913.899999976158,true,NA,NA,NA,NA,NA
YmtbJkIk,NA,NA,YmtbJkIk,2020-0188,2021-09-27,14:30:29,16:20:42,NA,incomplete,true,true,NA,0,3,origin,n_l_014.jpg,left,natural,manmade,NA,NA,NA,right,648.899999976158,false,NA,NA,NA,NA,NA
YmtbJkIk,NA,NA,YmtbJkIk,2020-0188,2021-09-27,14:30:29,16:20:42,NA,incomplete,true,true,NA,0,4,origin,n_s_026.jpg,right,manmade,natural,NA,NA,NA,right,1161,true,NA,NA,NA,NA,NA
YmtbJkIk,NA,NA,YmtbJkIk,2020-0188,2021-09-27,14:30:29,16:20:42,NA,incomplete,true,true,NA,0,5,size,m_s_013.jpg,left,small,large,NA,NA,NA,left,1506.5,true,NA,NA,NA,NA,NA
YmtbJkIk,NA,NA,YmtbJkIk,2020-0188,2021-09-27,14:30:29,16:20:42,NA,incomplete,true,true,NA,0,6,size,n_s_019.jpg,left,small,large,NA,NA,NA,left,1141,true,NA,NA,NA,NA,NA
YmtbJkIk,NA,NA,YmtbJkIk,2020-0188,2021-09-27,14:30:29,16:20:42,NA,incomplete,true,true,NA,0,7,size,n_l_012.jpg,left,large,small,NA,NA,NA,left,1365.5,true,NA,NA,NA,NA,NA
YmtbJkIk,NA,NA,YmtbJkIk,2020-0188,2021-09-27,14:30:29,16:20:42,NA,incomplete,true,true,NA,0,8,size,n_s_021.jpg,right,large,small,NA,NA,NA,right,1197.39999997616,true,NA,NA,NA,NA,NA
YmtbJkIk,NA,NA,YmtbJkIk,2020-0188,2021-09-27,14:30:29,16:20:42,NA,incomplete,true,true,NA,0,9,size,n_s_007.jpg,right,large,small,NA,NA,NA,right,1330.5,true,NA,NA,NA,NA,NA
YmtbJkIk,NA,NA,YmtbJkIk,2020-0188,2021-09-27,14:30:29,16:20:42,NA,incomplete,true,true,NA,0,10,syllable,a_2_002.jpg,right,1 syllable,2 syllables,NA,NA,NA,right,1888.89999997616,true,NA,NA,NA,NA,NA
YmtbJkIk,NA,NA,YmtbJkIk,2020-0188,2021-09-27,14:30:29,16:20:42,NA,incomplete,true,true,NA,0,11,syllable,c_2_020.jpg,right,2 syllables,1 syllable,NA,NA,NA,left,1040.89999997616,false,NA,NA,NA,NA,NA
YmtbJkIk,NA,NA,YmtbJkIk,2020-0188,2021-09-27,14:30:29,16:20:42,NA,incomplete,true,true,NA,0,12,syllable,a_2_027.jpg,right,2 syllables,1 syllable,NA,NA,NA,left,1409.09999990463,false,NA,NA,NA,NA,NA
YmtbJkIk,NA,NA,YmtbJkIk,2020-0188,2021-09-27,14:30:29,16:20:42,NA,incomplete,true,true,NA,0,13,syllable,c_1_001.jpg,right,1 syllable,2 syllables,NA,NA,NA,left,1044.19999992847,false,NA,NA,NA,NA,NA
YmtbJkIk,NA,NA,YmtbJkIk,2020-0188,2021-09-27,14:30:29,16:20:42,NA,incomplete,true,true,NA,0,14,syllable,c_2_010.jpg,right,2 syllables,1 syllable,NA,NA,NA,left,1500.30000007153,false,NA,NA,NA,NA,NA
YmtbJkIk,NA,NA,YmtbJkIk,2020-0188,2021-09-27,14:30:29,16:20:42,NA,incomplete,true,true,NA,0,15,abstractness,a_2_005.jpg,left,abstract,concrete,NA,NA,NA,left,2740.20000004768,true,NA,NA,NA,NA,NA
YmtbJkIk,NA,NA,YmtbJkIk,2020-0188,2021-09-27,14:30:29,16:20:42,NA,incomplete,true,true,NA,0,16,abstractness,c_2_011.jpg,right,abstract,concrete,NA,NA,NA,right,1263.5,true,NA,NA,NA,NA,NA
YmtbJkIk,NA,NA,YmtbJkIk,2020-0188,2021-09-27,14:30:29,16:20:42,NA,incomplete,true,true,NA,0,17,abstractness,a_1_008.jpg,right,concrete,abstract,NA,NA,NA,right,1260.5,true,NA,NA,NA,NA,NA
YmtbJkIk,NA,NA,YmtbJkIk,2020-0188,2021-09-27,14:30:29,16:20:42,NA,incomplete,true,true,NA,0,18,abstractness,c_1_025.jpg,right,abstract,concrete,NA,NA,NA,right,1280.70000004768,true,NA,NA,NA,NA,NA
YmtbJkIk,NA,NA,YmtbJkIk,2020-0188,2021-09-27,14:30:29,16:20:42,NA,incomplete,true,true,NA,0,19,abstractness,c_1_010.jpg,left,concrete,abstract,NA,NA,NA,left,898.200000047684,true,NA,NA,NA,NA,NA
YmtbJkIk,NA,NA,YmtbJkIk,2020-0188,2021-09-27,14:30:29,16:20:42,NA,incomplete,true,true,NA,0,20,building,o_c_011.jpg,right,skyscraper,cottage,NA,NA,NA,right,1220.10000002384,true,NA,NA,NA,NA,NA
YmtbJkIk,NA,NA,YmtbJkIk,2020-0188,2021-09-27,14:30:29,16:20:42,NA,incomplete,true,true,NA,0,21,building,o_c_005.jpg,right,skyscraper,cottage,NA,NA,NA,right,867.399999976158,true,NA,NA,NA,NA,NA
YmtbJkIk,NA,NA,YmtbJkIk,2020-0188,2021-09-27,14:30:29,16:20:42,NA,incomplete,true,true,NA,0,22,building,o_c_002.jpg,left,cottage,skyscraper,NA,NA,NA,left,1176.69999992847,true,NA,NA,NA,NA,NA
YmtbJkIk,NA,NA,YmtbJkIk,2020-0188,2021-09-27,14:30:29,16:20:42,NA,incomplete,true,true,NA,0,23,building,o_c_010.jpg,left,cottage,skyscraper,NA,NA,NA,left,900.599999904633,true,NA,NA,NA,NA,NA
YmtbJkIk,NA,NA,YmtbJkIk,2020-0188,2021-09-27,14:30:29,16:20:42,NA,incomplete,true,true,NA,0,24,building,o_c_025.jpg,left,cottage,skyscraper,NA,NA,NA,left,684.100000023842,true,NA,NA,NA,NA,NA
YmtbJkIk,NA,NA,YmtbJkIk,2020-0188,2021-09-27,14:30:29,16:20:42,NA,incomplete,true,true,NA,0,25,location,o_s_011.jpg,right,indoor,outdoor,NA,NA,NA,right,1082.39999997616,true,NA,NA,NA,NA,NA
YmtbJkIk,NA,NA,YmtbJkIk,2020-0188,2021-09-27,14:30:29,16:20:42,NA,incomplete,true,true,NA,0,26,location,o_c_014.jpg,right,indoor,outdoor,NA,NA,NA,right,1356.20000004768,true,NA,NA,NA,NA,NA
YmtbJkIk,NA,NA,YmtbJkIk,2020-0188,2021-09-27,14:30:29,16:20:42,NA,incomplete,true,true,NA,0,27,location,o_s_016.jpg,right,indoor,outdoor,NA,NA,NA,right,1862.30000007153,true,NA,NA,NA,NA,NA
YmtbJkIk,NA,NA,YmtbJkIk,2020-0188,2021-09-27,14:30:29,16:20:42,NA,incomplete,true,true,NA,0,28,location,o_c_018.jpg,left,outdoor,indoor,NA,NA,NA,left,1196.09999990463,true,NA,NA,NA,NA,NA
YmtbJkIk,NA,NA,YmtbJkIk,2020-0188,2021-09-27,14:30:29,16:20:42,NA,incomplete,true,true,NA,0,29,location,i_s_013.jpg,right,outdoor,indoor,NA,NA,NA,right,1348,true,NA,NA,NA,NA,NA
YmtbJkIk,NA,NA,YmtbJkIk,2020-0188,2021-09-27,14:30:29,16:20:42,NA,incomplete,true,NA,true,0,0,NA,NA,right,NA,NA,o_c_005.jpg,c_1_025.jpg,between-big,NA,NaN,NA,left,3934.600000023842,0,1,4318.199999928474
YmtbJkIk,NA,NA,YmtbJkIk,2020-0188,2021-09-27,14:30:29,16:20:42,NA,incomplete,true,NA,true,0,1,NA,NA,left,NA,NA,n_s_019.jpg,n_s_007.jpg,within,NA,NaN,NA,left,1979.5,1,0,2490.600000023842
YmtbJkIk,NA,NA,YmtbJkIk,2020-0188,2021-09-27,14:30:29,16:20:42,NA,incomplete,true,NA,true,0,2,NA,NA,left,NA,NA,c_1_010.jpg,o_c_002.jpg,between-big,NA,NaN,NA,left,4445.600000023842,1,2,1555.8000000715256
YmtbJkIk,NA,NA,YmtbJkIk,2020-0188,2021-09-27,14:30:29,16:20:42,NA,incomplete,true,NA,true,0,3,NA,NA,right,NA,NA,n_l_012.jpg,n_s_026.jpg,between-small,NA,NaN,NA,left,3584.6999999284744,0,0,2796.5
YmtbJkIk,NA,NA,YmtbJkIk,2020-0188,2021-09-27,14:30:29,16:20:42,NA,incomplete,true,NA,true,0,4,NA,NA,right,NA,NA,c_1_010.jpg,c_2_011.jpg,within,NA,NaN,NA,right,1583.6000000238419,1,1,2091.1999999284744
YmtbJkIk,NA,NA,YmtbJkIk,2020-0188,2021-09-27,14:30:29,16:20:42,NA,incomplete,true,NA,true,0,5,NA,NA,left,NA,NA,n_l_012.jpg,a_2_002.jpg,between-big,NA,NaN,NA,left,2044.6000000238419,1,1,3645.5
YmtbJkIk,NA,NA,YmtbJkIk,2020-0188,2021-09-27,14:30:29,16:20:42,NA,incomplete,true,NA,true,0,6,NA,NA,left,NA,NA,o_c_014.jpg,i_s_013.jpg,within,NA,NaN,NA,left,2596.2999999523163,1,0,1378.6000000238419
YmtbJkIk,NA,NA,YmtbJkIk,2020-0188,2021-09-27,14:30:29,16:20:42,NA,incomplete,true,NA,true,0,7,NA,NA,left,NA,NA,o_c_011.jpg,o_c_010.jpg,within,NA,NaN,NA,left,2113.899999976158,1,0,3012.2000000476837
YmtbJkIk,NA,NA,YmtbJkIk,2020-0188,2021-09-27,14:30:29,16:20:42,NA,incomplete,true,NA,true,0,8,NA,NA,left,NA,NA,o_c_002.jpg,o_s_011.jpg,between-small,NA,NaN,NA,left,2839.7999999523163,1,1,2594.0999999046326
YmtbJkIk,NA,NA,YmtbJkIk,2020-0188,2021-09-27,14:30:29,16:20:42,NA,incomplete,true,NA,true,0,9,NA,NA,left,NA,NA,n_l_014.jpg,n_s_019.jpg,between-small,NA,NaN,NA,left,1236.2999999523163,1,1,1924.7000000476837
YmtbJkIk,NA,NA,YmtbJkIk,2020-0188,2021-09-27,14:30:29,16:20:42,NA,incomplete,true,NA,true,0,10,NA,NA,right,NA,NA,c_1_025.jpg,a_2_005.jpg,within,NA,NaN,NA,right,2777.899999976158,1,2,1589.2000000476837
YmtbJkIk,NA,NA,YmtbJkIk,2020-0188,2021-09-27,14:30:29,16:20:42,NA,incomplete,true,NA,true,0,11,NA,NA,left,NA,NA,o_c_025.jpg,o_s_016.jpg,between-small,NA,NaN,NA,left,5585.899999976158,1,2,1679.4000000953674
YmtbJkIk,NA,NA,YmtbJkIk,2020-0188,2021-09-27,14:30:29,16:20:42,NA,incomplete,true,NA,true,0,12,NA,NA,left,NA,NA,a_2_002.jpg,c_1_001.jpg,within,NA,NaN,NA,left,2581.100000023842,1,0,1792
YmtbJkIk,NA,NA,YmtbJkIk,2020-0188,2021-09-27,14:30:29,16:20:42,NA,incomplete,true,NA,true,0,13,NA,NA,left,NA,NA,m_l_012.jpg,n_s_026.jpg,within,NA,NaN,NA,left,1307.8999999761581,1,2,1943.8000000715256
YmtbJkIk,NA,NA,YmtbJkIk,2020-0188,2021-09-27,14:30:29,16:20:42,NA,incomplete,true,NA,true,0,14,NA,NA,left,NA,NA,n_l_015.jpg,n_l_014.jpg,within,NA,NaN,NA,left,2257.7000000476837,1,0,1592.5
YmtbJkIk,NA,NA,YmtbJkIk,2020-0188,2021-09-27,14:30:29,16:20:42,NA,incomplete,true,NA,true,0,15,NA,NA,left,NA,NA,n_s_021.jpg,c_2_020.jpg,between-big,NA,NaN,NA,left,3277.899999976158,1,2,2542.399999976158
YmtbJkIk,NA,NA,YmtbJkIk,2020-0188,2021-09-27,14:30:29,16:20:42,NA,incomplete,true,NA,true,0,16,NA,NA,right,NA,NA,c_2_011.jpg,c_1_001.jpg,between-small,NA,NaN,NA,right,3380.3000000715256,1,2,2127.0999999046326
YmtbJkIk,NA,NA,YmtbJkIk,2020-0188,2021-09-27,14:30:29,16:20:42,NA,incomplete,true,NA,true,0,17,NA,NA,left,NA,NA,c_2_020.jpg,c_2_010.jpg,within,NA,NaN,NA,right,3852.5,0,0,1819.3999999761581
YmtbJkIk,NA,NA,YmtbJkIk,2020-0188,2021-09-27,14:30:29,16:20:42,NA,incomplete,true,NA,true,0,18,NA,NA,right,NA,NA,o_c_014.jpg,o_c_010.jpg,between-small,NA,NaN,NA,right,2193.5,1,2,7827.100000023842
YmtbJkIk,NA,NA,YmtbJkIk,2020-0188,2021-09-27,14:30:29,16:20:42,NA,incomplete,true,NA,true,0,19,NA,NA,right,NA,NA,m_s_013.jpg,m_l_014.jpg,between-small,NA,NaN,NA,right,2853.6999999284744,1,1,1299.7999999523163
YmtbJkIk,NA,NA,YmtbJkIk,2020-0188,2021-09-27,14:30:29,16:20:42,NA,incomplete,true,NA,true,0,20,NA,NA,right,NA,NA,o_c_025.jpg,o_c_005.jpg,within,NA,NaN,NA,right,1558.5999999046326,1,1,3332.5
YmtbJkIk,NA,NA,YmtbJkIk,2020-0188,2021-09-27,14:30:29,16:20:42,NA,incomplete,true,NA,true,0,21,NA,NA,right,NA,NA,a_2_027.jpg,n_s_007.jpg,between-big,NA,NaN,NA,right,2799.399999976158,1,2,2218.1999999284744
YmtbJkIk,NA,NA,YmtbJkIk,2020-0188,2021-09-27,14:30:29,16:20:42,NA,incomplete,true,NA,true,0,22,NA,NA,left,NA,NA,c_2_010.jpg,a_1_008.jpg,between-small,NA,NaN,NA,right,4784.899999976158,0,2,1586.7000000476837
YmtbJkIk,NA,NA,YmtbJkIk,2020-0188,2021-09-27,14:30:29,16:20:42,NA,incomplete,true,NA,true,0,23,NA,NA,left,NA,NA,a_2_027.jpg,a_2_005.jpg,between-small,NA,NaN,NA,right,1900.5,0,2,1204.6000000238419
YmtbJkIk,NA,NA,YmtbJkIk,2020-0188,2021-09-27,14:30:29,16:20:42,NA,incomplete,true,NA,true,0,24,NA,NA,left,NA,NA,o_s_011.jpg,o_c_018.jpg,within,NA,NaN,NA,right,2113,0,2,1627.5
YmtbJkIk,NA,NA,YmtbJkIk,2020-0188,2021-09-27,14:30:29,16:20:42,NA,incomplete,true,NA,true,0,25,NA,NA,left,NA,NA,a_1_008.jpg,o_c_011.jpg,between-big,NA,NaN,NA,left,1342,1,3,1420
YmtbJkIk,NA,NA,YmtbJkIk,2020-0188,2021-09-27,14:30:29,16:20:42,NA,incomplete,true,NA,true,0,26,NA,NA,right,NA,NA,n_s_021.jpg,m_s_013.jpg,within,NA,NaN,NA,right,2972.5,1,1,2107.7000000476837
YmtbJkIk,NA,NA,YmtbJkIk,2020-0188,2021-09-27,14:30:29,16:20:42,NA,incomplete,false,true,NA,1,0,building,o_c_024.jpg,left,cottage,skyscraper,NA,NA,NA,left,2743.89999997616,true,NA,NA,NA,NA,NA
YmtbJkIk,NA,NA,YmtbJkIk,2020-0188,2021-09-27,14:30:29,16:20:42,NA,incomplete,false,true,NA,1,1,building,o_s_022.jpg,left,skyscraper,cottage,NA,NA,NA,left,1339.29999995232,true,NA,NA,NA,NA,NA
YmtbJkIk,NA,NA,YmtbJkIk,2020-0188,2021-09-27,14:30:29,16:20:42,NA,incomplete,false,true,NA,1,2,building,i_s_018.jpg,right,cottage,skyscraper,NA,NA,NA,right,2555.89999997616,true,NA,NA,NA,NA,NA
YmtbJkIk,NA,NA,YmtbJkIk,2020-0188,2021-09-27,14:30:29,16:20:42,NA,incomplete,false,true,NA,1,3,building,i_c_025.jpg,left,cottage,skyscraper,NA,NA,NA,left,1262.89999997616,true,NA,NA,NA,NA,NA
YmtbJkIk,NA,NA,YmtbJkIk,2020-0188,2021-09-27,14:30:29,16:20:42,NA,incomplete,false,true,NA,1,4,building,i_c_027.jpg,right,skyscraper,cottage,NA,NA,NA,left,1160.39999997616,false,NA,NA,NA,NA,NA
YmtbJkIk,NA,NA,YmtbJkIk,2020-0188,2021-09-27,14:30:29,16:20:42,NA,incomplete,false,true,NA,1,5,location,i_c_009.jpg,right,outdoor,indoor,NA,NA,NA,right,1534.5,true,NA,NA,NA,NA,NA
YmtbJkIk,NA,NA,YmtbJkIk,2020-0188,2021-09-27,14:30:29,16:20:42,NA,incomplete,false,true,NA,1,6,location,o_s_005.jpg,right,indoor,outdoor,NA,NA,NA,right,1654.19999992847,true,NA,NA,NA,NA,NA
YmtbJkIk,NA,NA,YmtbJkIk,2020-0188,2021-09-27,14:30:29,16:20:42,NA,incomplete,false,true,NA,1,7,location,o_s_019.jpg,right,indoor,outdoor,NA,NA,NA,right,1514.29999995232,true,NA,NA,NA,NA,NA
YmtbJkIk,NA,NA,YmtbJkIk,2020-0188,2021-09-27,14:30:29,16:20:42,NA,incomplete,false,true,NA,1,8,location,i_s_017.jpg,right,outdoor,indoor,NA,NA,NA,left,1988.29999995232,false,NA,NA,NA,NA,NA
YmtbJkIk,NA,NA,YmtbJkIk,2020-0188,2021-09-27,14:30:29,16:20:42,NA,incomplete,false,true,NA,1,9,location,o_s_007.jpg,left,outdoor,indoor,NA,NA,NA,left,1184.89999997616,true,NA,NA,NA,NA,NA
YmtbJkIk,NA,NA,YmtbJkIk,2020-0188,2021-09-27,14:30:29,16:20:42,NA,incomplete,false,true,NA,1,10,abstractness,c_2_013.jpg,left,concrete,abstract,NA,NA,NA,left,1924.79999995232,true,NA,NA,NA,NA,NA
YmtbJkIk,NA,NA,YmtbJkIk,2020-0188,2021-09-27,14:30:29,16:20:42,NA,incomplete,false,true,NA,1,11,abstractness,a_1_028.jpg,right,concrete,abstract,NA,NA,NA,right,3480.60000002384,true,NA,NA,NA,NA,NA
YmtbJkIk,NA,NA,YmtbJkIk,2020-0188,2021-09-27,14:30:29,16:20:42,NA,incomplete,false,true,NA,1,12,abstractness,c_2_023.jpg,left,concrete,abstract,NA,NA,NA,left,1077.30000007153,true,NA,NA,NA,NA,NA
YmtbJkIk,NA,NA,YmtbJkIk,2020-0188,2021-09-27,14:30:29,16:20:42,NA,incomplete,false,true,NA,1,13,abstractness,a_2_024.jpg,right,concrete,abstract,NA,NA,NA,right,1459.80000007153,true,NA,NA,NA,NA,NA
YmtbJkIk,NA,NA,YmtbJkIk,2020-0188,2021-09-27,14:30:29,16:20:42,NA,incomplete,false,true,NA,1,14,abstractness,a_1_015.jpg,right,concrete,abstract,NA,NA,NA,right,1386,true,NA,NA,NA,NA,NA
YmtbJkIk,NA,NA,YmtbJkIk,2020-0188,2021-09-27,14:30:29,16:20:42,NA,incomplete,false,true,NA,1,15,syllable,c_1_018.jpg,right,1 syllable,2 syllables,NA,NA,NA,left,1502.20000004768,false,NA,NA,NA,NA,NA
YmtbJkIk,NA,NA,YmtbJkIk,2020-0188,2021-09-27,14:30:29,16:20:42,NA,incomplete,false,true,NA,1,16,syllable,c_2_025.jpg,right,1 syllable,2 syllables,NA,NA,NA,right,1446.69999992847,true,NA,NA,NA,NA,NA
YmtbJkIk,NA,NA,YmtbJkIk,2020-0188,2021-09-27,14:30:29,16:20:42,NA,incomplete,false,true,NA,1,17,syllable,c_1_008.jpg,right,2 syllables,1 syllable,NA,NA,NA,right,1316.69999992847,true,NA,NA,NA,NA,NA
YmtbJkIk,NA,NA,YmtbJkIk,2020-0188,2021-09-27,14:30:29,16:20:42,NA,incomplete,false,true,NA,1,18,syllable,a_2_009.jpg,right,2 syllables,1 syllable,NA,NA,NA,left,1142.89999997616,false,NA,NA,NA,NA,NA
YmtbJkIk,NA,NA,YmtbJkIk,2020-0188,2021-09-27,14:30:29,16:20:42,NA,incomplete,false,true,NA,1,19,syllable,a_2_012.jpg,right,1 syllable,2 syllables,NA,NA,NA,right,1710.39999997616,true,NA,NA,NA,NA,NA
YmtbJkIk,NA,NA,YmtbJkIk,2020-0188,2021-09-27,14:30:29,16:20:42,NA,incomplete,false,true,NA,1,20,origin,m_l_022.jpg,left,manmade,natural,NA,NA,NA,left,1555.39999997616,true,NA,NA,NA,NA,NA
YmtbJkIk,NA,NA,YmtbJkIk,2020-0188,2021-09-27,14:30:29,16:20:42,NA,incomplete,false,true,NA,1,21,origin,m_l_004.jpg,left,manmade,natural,NA,NA,NA,left,2481.29999995232,true,NA,NA,NA,NA,NA
YmtbJkIk,NA,NA,YmtbJkIk,2020-0188,2021-09-27,14:30:29,16:20:42,NA,incomplete,false,true,NA,1,22,origin,n_s_028.jpg,left,natural,manmade,NA,NA,NA,left,3452,true,NA,NA,NA,NA,NA
YmtbJkIk,NA,NA,YmtbJkIk,2020-0188,2021-09-27,14:30:29,16:20:42,NA,incomplete,false,true,NA,1,23,origin,n_l_005.jpg,left,natural,manmade,NA,NA,NA,left,1436.30000007153,true,NA,NA,NA,NA,NA
YmtbJkIk,NA,NA,YmtbJkIk,2020-0188,2021-09-27,14:30:29,16:20:42,NA,incomplete,false,true,NA,1,24,origin,m_s_016.jpg,right,natural,manmade,NA,NA,NA,right,1146.30000007153,true,NA,NA,NA,NA,NA
YmtbJkIk,NA,NA,YmtbJkIk,2020-0188,2021-09-27,14:30:29,16:20:42,NA,incomplete,false,true,NA,1,25,size,m_s_011.jpg,right,large,small,NA,NA,NA,right,1890.5,true,NA,NA,NA,NA,NA
YmtbJkIk,NA,NA,YmtbJkIk,2020-0188,2021-09-27,14:30:29,16:20:42,NA,incomplete,false,true,NA,1,26,size,m_s_003.jpg,right,large,small,NA,NA,NA,right,1454.89999997616,true,NA,NA,NA,NA,NA
YmtbJkIk,NA,NA,YmtbJkIk,2020-0188,2021-09-27,14:30:29,16:20:42,NA,incomplete,false,true,NA,1,27,size,m_l_023.jpg,left,large,small,NA,NA,NA,left,2736.20000004768,true,NA,NA,NA,NA,NA
YmtbJkIk,NA,NA,YmtbJkIk,2020-0188,2021-09-27,14:30:29,16:20:42,NA,incomplete,false,true,NA,1,28,size,m_l_026.jpg,right,small,large,NA,NA,NA,right,1416.69999992847,true,NA,NA,NA,NA,NA
YmtbJkIk,NA,NA,YmtbJkIk,2020-0188,2021-09-27,14:30:29,16:20:42,NA,incomplete,false,true,NA,1,29,size,m_s_004.jpg,left,small,large,NA,NA,NA,left,1113.39999997616,true,NA,NA,NA,NA,NA
YmtbJkIk,NA,NA,YmtbJkIk,2020-0188,2021-09-27,14:30:29,16:20:42,NA,incomplete,false,NA,true,1,0,NA,NA,left,NA,NA,c_1_018.jpg,a_2_009.jpg,within,NA,NaN,NA,left,3654.6999999284744,1,0,2983.600000023842
YmtbJkIk,NA,NA,YmtbJkIk,2020-0188,2021-09-27,14:30:29,16:20:42,NA,incomplete,false,NA,true,1,1,NA,NA,right,NA,NA,m_s_011.jpg,n_s_028.jpg,between-small,NA,NaN,NA,left,1296.3999999761581,0,0,1977.6000000238419
YmtbJkIk,NA,NA,YmtbJkIk,2020-0188,2021-09-27,14:30:29,16:20:42,NA,incomplete,false,NA,true,1,2,NA,NA,right,NA,NA,a_1_028.jpg,i_s_017.jpg,between-big,NA,NaN,NA,left,1945.1000000238419,0,2,1315.2000000476837
YmtbJkIk,NA,NA,YmtbJkIk,2020-0188,2021-09-27,14:30:29,16:20:42,NA,incomplete,false,NA,true,1,3,NA,NA,right,NA,NA,c_2_023.jpg,o_s_007.jpg,between-big,NA,NaN,NA,left,1510.7000000476837,0,2,1879.6999999284744
YmtbJkIk,NA,NA,YmtbJkIk,2020-0188,2021-09-27,14:30:29,16:20:42,NA,incomplete,false,NA,true,1,4,NA,NA,right,NA,NA,m_l_023.jpg,m_s_016.jpg,between-small,NA,NaN,NA,right,1675.8999999761581,1,0,1574.8000000715256
YmtbJkIk,NA,NA,YmtbJkIk,2020-0188,2021-09-27,14:30:29,16:20:42,NA,incomplete,false,NA,true,1,5,NA,NA,right,NA,NA,m_l_022.jpg,c_1_008.jpg,between-big,NA,NaN,NA,right,2300.2999999523163,1,1,1000.5
YmtbJkIk,NA,NA,YmtbJkIk,2020-0188,2021-09-27,14:30:29,16:20:42,NA,incomplete,false,NA,true,1,6,NA,NA,right,NA,NA,o_s_005.jpg,i_c_025.jpg,between-small,NA,NaN,NA,left,4580.200000047684,0,0,1876
YmtbJkIk,NA,NA,YmtbJkIk,2020-0188,2021-09-27,14:30:29,16:20:42,NA,incomplete,false,NA,true,1,7,NA,NA,left,NA,NA,a_1_015.jpg,c_1_008.jpg,between-small,NA,NaN,NA,right,2856.2999999523163,0,2,1858.1000000238419
YmtbJkIk,NA,NA,YmtbJkIk,2020-0188,2021-09-27,14:30:29,16:20:42,NA,incomplete,false,NA,true,1,8,NA,NA,left,NA,NA,a_2_024.jpg,c_2_025.jpg,between-small,NA,NaN,NA,right,3460.2000000476837,0,2,1279.7000000476837
YmtbJkIk,NA,NA,YmtbJkIk,2020-0188,2021-09-27,14:30:29,16:20:42,NA,incomplete,false,NA,true,1,9,NA,NA,left,NA,NA,n_l_005.jpg,m_s_003.jpg,between-small,NA,NaN,NA,left,3351.7000000476837,1,2,1680.6000000238419
YmtbJkIk,NA,NA,YmtbJkIk,2020-0188,2021-09-27,14:30:29,16:20:42,NA,incomplete,false,NA,true,1,10,NA,NA,right,NA,NA,a_2_012.jpg,c_2_025.jpg,within,NA,NaN,NA,right,3176.2000000476837,1,2,4162.600000023842
YmtbJkIk,NA,NA,YmtbJkIk,2020-0188,2021-09-27,14:30:29,16:20:42,NA,incomplete,false,NA,true,1,11,NA,NA,right,NA,NA,m_l_026.jpg,m_s_011.jpg,within,NA,NaN,NA,right,2175.7999999523163,1,0,1389.3999999761581
YmtbJkIk,NA,NA,YmtbJkIk,2020-0188,2021-09-27,14:30:29,16:20:42,NA,incomplete,false,NA,true,1,12,NA,NA,left,NA,NA,o_c_024.jpg,i_c_025.jpg,within,NA,NaN,NA,right,2501,0,2,4227.100000023842
YmtbJkIk,NA,NA,YmtbJkIk,2020-0188,2021-09-27,14:30:29,16:20:42,NA,incomplete,false,NA,true,1,13,NA,NA,right,NA,NA,m_l_004.jpg,a_2_009.jpg,between-big,NA,NaN,NA,left,4292.399999976158,0,2,1211.5999999046326
YmtbJkIk,NA,NA,YmtbJkIk,2020-0188,2021-09-27,14:30:29,16:20:42,NA,incomplete,false,NA,true,1,14,NA,NA,right,NA,NA,o_s_019.jpg,i_c_027.jpg,between-small,NA,NaN,NA,left,7784.900000095367,0,2,1084.5
YmtbJkIk,NA,NA,YmtbJkIk,2020-0188,2021-09-27,14:30:29,16:20:42,NA,incomplete,false,NA,true,1,15,NA,NA,right,NA,NA,a_2_024.jpg,c_2_013.jpg,within,NA,NaN,NA,right,1988.8000000715256,1,2,2169.5
YmtbJkIk,NA,NA,YmtbJkIk,2020-0188,2021-09-27,14:30:29,16:20:42,NA,incomplete,false,NA,true,1,16,NA,NA,left,NA,NA,m_s_003.jpg,m_s_004.jpg,within,NA,NaN,NA,left,1882.7000000476837,1,0,1389.5
YmtbJkIk,NA,NA,YmtbJkIk,2020-0188,2021-09-27,14:30:29,16:20:42,NA,incomplete,false,NA,true,1,17,NA,NA,left,NA,NA,i_s_018.jpg,i_c_009.jpg,between-small,NA,NaN,NA,left,2214.399999976158,1,0,1660.0999999046326
YmtbJkIk,NA,NA,YmtbJkIk,2020-0188,2021-09-27,14:30:29,16:20:42,NA,incomplete,false,NA,true,1,18,NA,NA,left,NA,NA,i_c_009.jpg,i_s_017.jpg,within,NA,NaN,NA,right,2899.399999976158,0,1,1664.5
YmtbJkIk,NA,NA,YmtbJkIk,2020-0188,2021-09-27,14:30:29,16:20:42,NA,incomplete,false,NA,true,1,19,NA,NA,right,NA,NA,a_1_015.jpg,a_1_028.jpg,within,NA,NaN,NA,right,2719.9000000953674,1,0,1646
YmtbJkIk,NA,NA,YmtbJkIk,2020-0188,2021-09-27,14:30:29,16:20:42,NA,incomplete,false,NA,true,1,20,NA,NA,left,NA,NA,o_s_019.jpg,c_2_013.jpg,between-big,NA,NaN,NA,right,3669.399999976158,0,3,2816.5
YmtbJkIk,NA,NA,YmtbJkIk,2020-0188,2021-09-27,14:30:29,16:20:42,NA,incomplete,false,NA,true,1,21,NA,NA,left,NA,NA,a_2_012.jpg,n_s_028.jpg,between-big,NA,NaN,NA,right,11602.800000071526,0,2,2031
YmtbJkIk,NA,NA,YmtbJkIk,2020-0188,2021-09-27,14:30:29,16:20:42,NA,incomplete,false,NA,true,1,22,NA,NA,left,NA,NA,c_2_023.jpg,c_1_018.jpg,between-small,NA,NaN,NA,right,1551.1000000238419,0,2,1211.4000000953674
YmtbJkIk,NA,NA,YmtbJkIk,2020-0188,2021-09-27,14:30:29,16:20:42,NA,incomplete,false,NA,true,1,23,NA,NA,right,NA,NA,o_s_007.jpg,o_s_005.jpg,within,NA,NaN,NA,right,6876,1,1,1945.0999999046326
YmtbJkIk,NA,NA,YmtbJkIk,2020-0188,2021-09-27,14:30:29,16:20:42,NA,incomplete,false,NA,true,1,24,NA,NA,left,NA,NA,o_s_022.jpg,i_c_027.jpg,within,NA,NaN,NA,right,2196.600000023842,0,1,1593.5
YmtbJkIk,NA,NA,YmtbJkIk,2020-0188,2021-09-27,14:30:29,16:20:42,NA,incomplete,false,NA,true,1,25,NA,NA,left,NA,NA,m_l_022.jpg,n_l_005.jpg,within,NA,NaN,NA,left,2118.3000000715256,1,2,4700.600000023842
YmtbJkIk,NA,NA,YmtbJkIk,2020-0188,2021-09-27,14:30:29,16:20:42,NA,incomplete,false,NA,true,1,26,NA,NA,left,NA,NA,m_l_004.jpg,m_s_016.jpg,within,NA,NaN,NA,left,4425,1,0,2096.600000023842
YmtbJkIk,NA,NA,YmtbJkIk,2020-0188,2021-09-27,14:30:29,16:20:42,NA,incomplete,false,true,NA,2,0,abstractness,c_1_017.jpg,right,abstract,concrete,NA,NA,NA,right,2696.89999997616,true,NA,NA,NA,NA,NA
YmtbJkIk,NA,NA,YmtbJkIk,2020-0188,2021-09-27,14:30:29,16:20:42,NA,incomplete,false,true,NA,2,1,abstractness,a_1_014.jpg,left,abstract,concrete,NA,NA,NA,left,2468.10000002384,true,NA,NA,NA,NA,NA
YmtbJkIk,NA,NA,YmtbJkIk,2020-0188,2021-09-27,14:30:29,16:20:42,NA,incomplete,false,true,NA,2,2,abstractness,a_1_024.jpg,right,concrete,abstract,NA,NA,NA,right,2077.59999990463,true,NA,NA,NA,NA,NA
YmtbJkIk,NA,NA,YmtbJkIk,2020-0188,2021-09-27,14:30:29,16:20:42,NA,incomplete,false,true,NA,2,3,abstractness,a_2_021.jpg,right,concrete,abstract,NA,NA,NA,right,2766.10000002384,true,NA,NA,NA,NA,NA
YmtbJkIk,NA,NA,YmtbJkIk,2020-0188,2021-09-27,14:30:29,16:20:42,NA,incomplete,false,true,NA,2,4,abstractness,c_2_006.jpg,right,abstract,concrete,NA,NA,NA,right,2520.39999997616,true,NA,NA,NA,NA,NA
YmtbJkIk,NA,NA,YmtbJkIk,2020-0188,2021-09-27,14:30:29,16:20:42,NA,incomplete,false,true,NA,2,5,syllable,a_2_013.jpg,right,1 syllable,2 syllables,NA,NA,NA,right,2956.89999997616,true,NA,NA,NA,NA,NA
YmtbJkIk,NA,NA,YmtbJkIk,2020-0188,2021-09-27,14:30:29,16:20:42,NA,incomplete,false,true,NA,2,6,syllable,a_2_006.jpg,right,1 syllable,2 syllables,NA,NA,NA,right,1228.69999992847,true,NA,NA,NA,NA,NA
YmtbJkIk,NA,NA,YmtbJkIk,2020-0188,2021-09-27,14:30:29,16:20:42,NA,incomplete,false,true,NA,2,7,syllable,a_1_011.jpg,right,2 syllables,1 syllable,NA,NA,NA,right,1306.29999995232,true,NA,NA,NA,NA,NA
YmtbJkIk,NA,NA,YmtbJkIk,2020-0188,2021-09-27,14:30:29,16:20:42,NA,incomplete,false,true,NA,2,8,syllable,a_1_001.jpg,right,1 syllable,2 syllables,NA,NA,NA,left,1769.60000002384,false,NA,NA,NA,NA,NA
YmtbJkIk,NA,NA,YmtbJkIk,2020-0188,2021-09-27,14:30:29,16:20:42,NA,incomplete,false,true,NA,2,9,syllable,c_1_012.jpg,right,1 syllable,2 syllables,NA,NA,NA,left,1542,false,NA,NA,NA,NA,NA
YmtbJkIk,NA,NA,YmtbJkIk,2020-0188,2021-09-27,14:30:29,16:20:42,NA,incomplete,false,true,NA,2,10,building,i_s_025.jpg,right,cottage,skyscraper,NA,NA,NA,right,1114.89999997616,true,NA,NA,NA,NA,NA
YmtbJkIk,NA,NA,YmtbJkIk,2020-0188,2021-09-27,14:30:29,16:20:42,NA,incomplete,false,true,NA,2,11,building,o_c_006.jpg,right,skyscraper,cottage,NA,NA,NA,left,1051.20000004768,false,NA,NA,NA,NA,NA
YmtbJkIk,NA,NA,YmtbJkIk,2020-0188,2021-09-27,14:30:29,16:20:42,NA,incomplete,false,true,NA,2,12,building,i_c_020.jpg,left,cottage,skyscraper,NA,NA,NA,left,1780.79999995232,true,NA,NA,NA,NA,NA
YmtbJkIk,NA,NA,YmtbJkIk,2020-0188,2021-09-27,14:30:29,16:20:42,NA,incomplete,false,true,NA,2,13,building,i_s_004.jpg,left,skyscraper,cottage,NA,NA,NA,right,2152.40000009537,false,NA,NA,NA,NA,NA
YmtbJkIk,NA,NA,YmtbJkIk,2020-0188,2021-09-27,14:30:29,16:20:42,NA,incomplete,false,true,NA,2,14,building,o_c_026.jpg,right,skyscraper,cottage,NA,NA,NA,right,1210.29999995232,true,NA,NA,NA,NA,NA
YmtbJkIk,NA,NA,YmtbJkIk,2020-0188,2021-09-27,14:30:29,16:20:42,NA,incomplete,false,true,NA,2,15,location,i_c_018.jpg,right,outdoor,indoor,NA,NA,NA,right,1583.10000002384,true,NA,NA,NA,NA,NA
YmtbJkIk,NA,NA,YmtbJkIk,2020-0188,2021-09-27,14:30:29,16:20:42,NA,incomplete,false,true,NA,2,16,location,o_s_010.jpg,left,outdoor,indoor,NA,NA,NA,left,2688.39999997616,true,NA,NA,NA,NA,NA
YmtbJkIk,NA,NA,YmtbJkIk,2020-0188,2021-09-27,14:30:29,16:20:42,NA,incomplete,false,true,NA,2,17,location,i_s_022.jpg,right,outdoor,indoor,NA,NA,NA,right,1383.20000004768,true,NA,NA,NA,NA,NA
YmtbJkIk,NA,NA,YmtbJkIk,2020-0188,2021-09-27,14:30:29,16:20:42,NA,incomplete,false,true,NA,2,18,location,o_s_025.jpg,left,outdoor,indoor,NA,NA,NA,left,2135,true,NA,NA,NA,NA,NA
YmtbJkIk,NA,NA,YmtbJkIk,2020-0188,2021-09-27,14:30:29,16:20:42,NA,incomplete,false,true,NA,2,19,location,i_c_023.jpg,left,indoor,outdoor,NA,NA,NA,left,1534.5,true,NA,NA,NA,NA,NA
YmtbJkIk,NA,NA,YmtbJkIk,2020-0188,2021-09-27,14:30:29,16:20:42,NA,incomplete,false,true,NA,2,20,origin,m_s_025.jpg,right,natural,manmade,NA,NA,NA,right,1646.30000007153,true,NA,NA,NA,NA,NA
YmtbJkIk,NA,NA,YmtbJkIk,2020-0188,2021-09-27,14:30:29,16:20:42,NA,incomplete,false,true,NA,2,21,origin,n_s_025.jpg,right,manmade,natural,NA,NA,NA,right,1215.79999995232,true,NA,NA,NA,NA,NA
YmtbJkIk,NA,NA,YmtbJkIk,2020-0188,2021-09-27,14:30:29,16:20:42,NA,incomplete,false,true,NA,2,22,origin,n_l_009.jpg,right,manmade,natural,NA,NA,NA,right,2698.59999990463,true,NA,NA,NA,NA,NA
YmtbJkIk,NA,NA,YmtbJkIk,2020-0188,2021-09-27,14:30:29,16:20:42,NA,incomplete,false,true,NA,2,23,origin,n_l_001.jpg,left,natural,manmade,NA,NA,NA,left,1259.69999992847,true,NA,NA,NA,NA,NA
YmtbJkIk,NA,NA,YmtbJkIk,2020-0188,2021-09-27,14:30:29,16:20:42,NA,incomplete,false,true,NA,2,24,origin,n_s_017.jpg,left,natural,manmade,NA,NA,NA,left,2045,true,NA,NA,NA,NA,NA
YmtbJkIk,NA,NA,YmtbJkIk,2020-0188,2021-09-27,14:30:29,16:20:42,NA,incomplete,false,true,NA,2,25,size,m_s_001.jpg,right,large,small,NA,NA,NA,right,1659,true,NA,NA,NA,NA,NA
YmtbJkIk,NA,NA,YmtbJkIk,2020-0188,2021-09-27,14:30:29,16:20:42,NA,incomplete,false,true,NA,2,26,size,m_s_024.jpg,right,large,small,NA,NA,NA,right,1580.20000004768,true,NA,NA,NA,NA,NA
YmtbJkIk,NA,NA,YmtbJkIk,2020-0188,2021-09-27,14:30:29,16:20:42,NA,incomplete,false,true,NA,2,27,size,n_s_013.jpg,right,large,small,NA,NA,NA,right,2596,true,NA,NA,NA,NA,NA
YmtbJkIk,NA,NA,YmtbJkIk,2020-0188,2021-09-27,14:30:29,16:20:42,NA,incomplete,false,true,NA,2,28,size,n_s_002.jpg,right,large,small,NA,NA,NA,right,1752,true,NA,NA,NA,NA,NA
YmtbJkIk,NA,NA,YmtbJkIk,2020-0188,2021-09-27,14:30:29,16:20:42,NA,incomplete,false,true,NA,2,29,size,m_l_021.jpg,right,small,large,NA,NA,NA,right,2955.10000002384,true,NA,NA,NA,NA,NA
YmtbJkIk,NA,NA,YmtbJkIk,2020-0188,2021-09-27,14:30:29,16:20:42,NA,incomplete,false,NA,true,2,0,NA,NA,left,NA,NA,o_c_026.jpg,i_s_022.jpg,between-small,NA,NaN,NA,left,1324.7000000476837,1,1,3660.399999976158
YmtbJkIk,NA,NA,YmtbJkIk,2020-0188,2021-09-27,14:30:29,16:20:42,NA,incomplete,false,NA,true,2,1,NA,NA,right,NA,NA,c_2_006.jpg,a_1_014.jpg,within,NA,NaN,NA,right,1851.2999999523163,1,2,1354.3999999761581
YmtbJkIk,NA,NA,YmtbJkIk,2020-0188,2021-09-27,14:30:29,16:20:42,NA,incomplete,false,NA,true,2,2,NA,NA,left,NA,NA,n_l_009.jpg,m_s_001.jpg,between-small,NA,NaN,NA,left,1535.8000000715256,1,1,1103.3999999761581
YmtbJkIk,NA,NA,YmtbJkIk,2020-0188,2021-09-27,14:30:29,16:20:42,NA,incomplete,false,NA,true,2,3,NA,NA,left,NA,NA,c_1_012.jpg,i_c_020.jpg,between-big,NA,NaN,NA,left,2914.2000000476837,1,2,2463.3000000715256
YmtbJkIk,NA,NA,YmtbJkIk,2020-0188,2021-09-27,14:30:29,16:20:42,NA,incomplete,false,NA,true,2,4,NA,NA,left,NA,NA,c_1_017.jpg,a_2_021.jpg,within,NA,NaN,NA,left,3849.3000000715256,1,1,991.7000000476837
YmtbJkIk,NA,NA,YmtbJkIk,2020-0188,2021-09-27,14:30:29,16:20:42,NA,incomplete,false,NA,true,2,5,NA,NA,right,NA,NA,o_s_010.jpg,i_s_004.jpg,between-small,NA,NaN,NA,right,5607,1,1,2546.399999976158
YmtbJkIk,NA,NA,YmtbJkIk,2020-0188,2021-09-27,14:30:29,16:20:42,NA,incomplete,false,NA,true,2,6,NA,NA,left,NA,NA,a_1_024.jpg,a_2_013.jpg,between-small,NA,NaN,NA,left,3876.7999999523163,1,1,1226.0999999046326
YmtbJkIk,NA,NA,YmtbJkIk,2020-0188,2021-09-27,14:30:29,16:20:42,NA,incomplete,false,NA,true,2,7,NA,NA,right,NA,NA,m_l_021.jpg,m_s_024.jpg,within,NA,NaN,NA,right,1958.6999999284744,1,0,1914.2000000476837
YmtbJkIk,NA,NA,YmtbJkIk,2020-0188,2021-09-27,14:30:29,16:20:42,NA,incomplete,false,NA,true,2,8,NA,NA,right,NA,NA,m_s_024.jpg,n_l_001.jpg,between-small,NA,NaN,NA,right,2295.9000000953674,1,1,1229.1999999284744
YmtbJkIk,NA,NA,YmtbJkIk,2020-0188,2021-09-27,14:30:29,16:20:42,NA,incomplete,false,NA,true,2,9,NA,NA,right,NA,NA,i_s_025.jpg,a_1_011.jpg,between-big,NA,NaN,NA,right,1855.3999999761581,1,2,1036.7999999523163
YmtbJkIk,NA,NA,YmtbJkIk,2020-0188,2021-09-27,14:30:29,16:20:42,NA,incomplete,false,NA,true,2,10,NA,NA,right,NA,NA,m_s_025.jpg,i_s_022.jpg,between-big,NA,NaN,NA,right,5092.700000047684,1,2,2920.2000000476837
YmtbJkIk,NA,NA,YmtbJkIk,2020-0188,2021-09-27,14:30:29,16:20:42,NA,incomplete,false,NA,true,2,11,NA,NA,right,NA,NA,i_c_023.jpg,o_s_010.jpg,within,NA,NaN,NA,right,5164.399999976158,1,0,2861.1999999284744
YmtbJkIk,NA,NA,YmtbJkIk,2020-0188,2021-09-27,14:30:29,16:20:42,NA,incomplete,false,NA,true,2,12,NA,NA,left,NA,NA,o_c_006.jpg,o_c_026.jpg,within,NA,NaN,NA,right,3739.5,0,1,1990.8999999761581
YmtbJkIk,NA,NA,YmtbJkIk,2020-0188,2021-09-27,14:30:29,16:20:42,NA,incomplete,false,NA,true,2,13,NA,NA,left,NA,NA,i_c_020.jpg,i_c_018.jpg,between-small,NA,NaN,NA,right,5069.100000023842,0,1,3319.8000000715256
YmtbJkIk,NA,NA,YmtbJkIk,2020-0188,2021-09-27,14:30:29,16:20:42,NA,incomplete,false,NA,true,2,14,NA,NA,right,NA,NA,i_s_004.jpg,i_s_025.jpg,within,NA,NaN,NA,left,4404.400000095367,0,0,1149.2999999523163
YmtbJkIk,NA,NA,YmtbJkIk,2020-0188,2021-09-27,14:30:29,16:20:42,NA,incomplete,false,NA,true,2,15,NA,NA,left,NA,NA,n_s_025.jpg,n_s_017.jpg,within,NA,NaN,NA,left,2751.3000000715256,1,0,2514.8000000715256
YmtbJkIk,NA,NA,YmtbJkIk,2020-0188,2021-09-27,14:30:29,16:20:42,NA,incomplete,false,NA,true,2,16,NA,NA,left,NA,NA,i_c_018.jpg,o_s_025.jpg,within,NA,NaN,NA,right,3539.6999999284744,0,0,1209.7000000476837
YmtbJkIk,NA,NA,YmtbJkIk,2020-0188,2021-09-27,14:30:29,16:20:42,NA,incomplete,false,NA,true,2,17,NA,NA,left,NA,NA,n_s_017.jpg,n_s_013.jpg,between-small,NA,NaN,NA,right,2276.1999999284744,0,0,1327.1000000238419
YmtbJkIk,NA,NA,YmtbJkIk,2020-0188,2021-09-27,14:30:29,16:20:42,NA,incomplete,false,NA,true,2,18,NA,NA,left,NA,NA,a_2_006.jpg,c_1_012.jpg,within,NA,NaN,NA,left,4519.399999976158,1,0,1191.3999999761581
YmtbJkIk,NA,NA,YmtbJkIk,2020-0188,2021-09-27,14:30:29,16:20:42,NA,incomplete,false,NA,true,2,19,NA,NA,right,NA,NA,n_l_001.jpg,m_s_025.jpg,within,NA,NaN,NA,left,5472.899999976158,0,0,2303.100000023842
YmtbJkIk,NA,NA,YmtbJkIk,2020-0188,2021-09-27,14:30:29,16:20:42,NA,incomplete,false,NA,true,2,20,NA,NA,left,NA,NA,a_2_013.jpg,a_1_001.jpg,within,NA,NaN,NA,right,3151.2999999523163,0,0,2163.899999976158
YmtbJkIk,NA,NA,YmtbJkIk,2020-0188,2021-09-27,14:30:29,16:20:42,NA,incomplete,false,NA,true,2,21,NA,NA,right,NA,NA,n_s_025.jpg,o_s_025.jpg,between-big,NA,NaN,NA,left,1832,0,3,3178.9000000953674
YmtbJkIk,NA,NA,YmtbJkIk,2020-0188,2021-09-27,14:30:29,16:20:42,NA,incomplete,false,NA,true,2,22,NA,NA,right,NA,NA,a_2_006.jpg,a_2_021.jpg,between-small,NA,NaN,NA,left,3101.5,0,1,1147.6000000238419
YmtbJkIk,NA,NA,YmtbJkIk,2020-0188,2021-09-27,14:30:29,16:20:42,NA,incomplete,false,NA,true,2,23,NA,NA,right,NA,NA,a_1_011.jpg,c_2_006.jpg,between-small,NA,NaN,NA,right,4333.899999976158,1,0,1425.1000000238419
YmtbJkIk,NA,NA,YmtbJkIk,2020-0188,2021-09-27,14:30:29,16:20:42,NA,incomplete,false,NA,true,2,24,NA,NA,right,NA,NA,o_c_006.jpg,a_1_001.jpg,between-big,NA,NaN,NA,right,3924.5,1,2,2208.899999976158
YmtbJkIk,NA,NA,YmtbJkIk,2020-0188,2021-09-27,14:30:29,16:20:42,NA,incomplete,false,NA,true,2,25,NA,NA,left,NA,NA,m_s_001.jpg,n_s_002.jpg,within,NA,NaN,NA,right,4194.200000047684,0,2,2913
YmtbJkIk,NA,NA,YmtbJkIk,2020-0188,2021-09-27,14:30:29,16:20:42,NA,incomplete,false,NA,true,2,26,NA,NA,right,NA,NA,n_l_009.jpg,i_c_023.jpg,between-big,NA,NaN,NA,left,2938.899999976158,0,3,1225.4000000953674
YmtbJkIk,NA,NA,YmtbJkIk,2020-0188,2021-09-27,14:30:29,16:20:42,NA,incomplete,false,true,NA,3,0,location,o_c_017.jpg,right,indoor,outdoor,NA,NA,NA,none,0,false,NA,NA,NA,NA,NA
YmtbJkIk,NA,NA,YmtbJkIk,2020-0188,2021-09-27,14:30:29,16:20:42,NA,incomplete,false,true,NA,3,1,location,o_s_013.jpg,left,outdoor,indoor,NA,NA,NA,left,1298.69999992847,true,NA,NA,NA,NA,NA
YmtbJkIk,NA,NA,YmtbJkIk,2020-0188,2021-09-27,14:30:29,16:20:42,NA,incomplete,false,true,NA,3,2,location,i_s_003.jpg,left,indoor,outdoor,NA,NA,NA,left,1276.39999997616,true,NA,NA,NA,NA,NA
YmtbJkIk,NA,NA,YmtbJkIk,2020-0188,2021-09-27,14:30:29,16:20:42,NA,incomplete,false,true,NA,3,3,location,i_s_016.jpg,right,outdoor,indoor,NA,NA,NA,left,1241.79999995232,false,NA,NA,NA,NA,NA
YmtbJkIk,NA,NA,YmtbJkIk,2020-0188,2021-09-27,14:30:29,16:20:42,NA,incomplete,false,true,NA,3,4,location,o_c_003.jpg,left,outdoor,indoor,NA,NA,NA,left,1172,true,NA,NA,NA,NA,NA
YmtbJkIk,NA,NA,YmtbJkIk,2020-0188,2021-09-27,14:30:29,16:20:42,NA,incomplete,false,true,NA,3,5,building,i_c_022.jpg,left,cottage,skyscraper,NA,NA,NA,left,1307.20000004768,true,NA,NA,NA,NA,NA
YmtbJkIk,NA,NA,YmtbJkIk,2020-0188,2021-09-27,14:30:29,16:20:42,NA,incomplete,false,true,NA,3,6,building,i_s_002.jpg,right,cottage,skyscraper,NA,NA,NA,right,1502.5,true,NA,NA,NA,NA,NA
YmtbJkIk,NA,NA,YmtbJkIk,2020-0188,2021-09-27,14:30:29,16:20:42,NA,incomplete,false,true,NA,3,7,building,o_s_026.jpg,left,skyscraper,cottage,NA,NA,NA,left,1474.40000009537,true,NA,NA,NA,NA,NA
YmtbJkIk,NA,NA,YmtbJkIk,2020-0188,2021-09-27,14:30:29,16:20:42,NA,incomplete,false,true,NA,3,8,building,i_s_023.jpg,left,skyscraper,cottage,NA,NA,NA,left,910.5,true,NA,NA,NA,NA,NA
YmtbJkIk,NA,NA,YmtbJkIk,2020-0188,2021-09-27,14:30:29,16:20:42,NA,incomplete,false,true,NA,3,9,building,i_c_011.jpg,left,cottage,skyscraper,NA,NA,NA,right,1082.89999997616,false,NA,NA,NA,NA,NA
YmtbJkIk,NA,NA,YmtbJkIk,2020-0188,2021-09-27,14:30:29,16:20:42,NA,incomplete,false,true,NA,3,10,syllable,c_1_013.jpg,right,2 syllables,1 syllable,NA,NA,NA,right,1351,true,NA,NA,NA,NA,NA
YmtbJkIk,NA,NA,YmtbJkIk,2020-0188,2021-09-27,14:30:29,16:20:42,NA,incomplete,false,true,NA,3,11,syllable,c_1_005.jpg,right,2 syllables,1 syllable,NA,NA,NA,right,1235.5,true,NA,NA,NA,NA,NA
YmtbJkIk,NA,NA,YmtbJkIk,2020-0188,2021-09-27,14:30:29,16:20:42,NA,incomplete,false,true,NA,3,12,syllable,c_2_009.jpg,right,1 syllable,2 syllables,NA,NA,NA,right,2139.20000004768,true,NA,NA,NA,NA,NA
YmtbJkIk,NA,NA,YmtbJkIk,2020-0188,2021-09-27,14:30:29,16:20:42,NA,incomplete,false,true,NA,3,13,syllable,c_1_011.jpg,right,1 syllable,2 syllables,NA,NA,NA,left,1054.29999995232,false,NA,NA,NA,NA,NA
YmtbJkIk,NA,NA,YmtbJkIk,2020-0188,2021-09-27,14:30:29,16:20:42,NA,incomplete,false,true,NA,3,14,syllable,a_1_017.jpg,right,1 syllable,2 syllables,NA,NA,NA,left,1502.30000007153,false,NA,NA,NA,NA,NA
YmtbJkIk,NA,NA,YmtbJkIk,2020-0188,2021-09-27,14:30:29,16:20:42,NA,incomplete,false,true,NA,3,15,abstractness,a_1_019.jpg,right,concrete,abstract,NA,NA,NA,left,2888.10000002384,false,NA,NA,NA,NA,NA
YmtbJkIk,NA,NA,YmtbJkIk,2020-0188,2021-09-27,14:30:29,16:20:42,NA,incomplete,false,true,NA,3,16,abstractness,a_2_019.jpg,right,concrete,abstract,NA,NA,NA,none,0,false,NA,NA,NA,NA,NA
YmtbJkIk,NA,NA,YmtbJkIk,2020-0188,2021-09-27,14:30:29,16:20:42,NA,incomplete,false,true,NA,3,17,abstractness,c_1_021.jpg,left,concrete,abstract,NA,NA,NA,left,1126.19999992847,true,NA,NA,NA,NA,NA
YmtbJkIk,NA,NA,YmtbJkIk,2020-0188,2021-09-27,14:30:29,16:20:42,NA,incomplete,false,true,NA,3,18,abstractness,c_2_005.jpg,right,abstract,concrete,NA,NA,NA,right,1714,true,NA,NA,NA,NA,NA
YmtbJkIk,NA,NA,YmtbJkIk,2020-0188,2021-09-27,14:30:29,16:20:42,NA,incomplete,false,true,NA,3,19,abstractness,a_2_026.jpg,right,concrete,abstract,NA,NA,NA,right,2114.79999995232,true,NA,NA,NA,NA,NA
YmtbJkIk,NA,NA,YmtbJkIk,2020-0188,2021-09-27,14:30:29,16:20:42,NA,incomplete,false,true,NA,3,20,origin,n_s_001.jpg,left,natural,manmade,NA,NA,NA,left,1320.60000002384,true,NA,NA,NA,NA,NA
YmtbJkIk,NA,NA,YmtbJkIk,2020-0188,2021-09-27,14:30:29,16:20:42,NA,incomplete,false,true,NA,3,21,origin,n_l_028.jpg,right,manmade,natural,NA,NA,NA,left,1133.39999997616,false,NA,NA,NA,NA,NA
YmtbJkIk,NA,NA,YmtbJkIk,2020-0188,2021-09-27,14:30:29,16:20:42,NA,incomplete,false,true,NA,3,22,origin,m_l_003.jpg,left,manmade,natural,NA,NA,NA,left,2591.89999997616,true,NA,NA,NA,NA,NA
YmtbJkIk,NA,NA,YmtbJkIk,2020-0188,2021-09-27,14:30:29,16:20:42,NA,incomplete,false,true,NA,3,23,origin,m_l_013.jpg,right,natural,manmade,NA,NA,NA,right,977.699999928474,true,NA,NA,NA,NA,NA
YmtbJkIk,NA,NA,YmtbJkIk,2020-0188,2021-09-27,14:30:29,16:20:42,NA,incomplete,false,true,NA,3,24,origin,n_l_019.jpg,right,manmade,natural,NA,NA,NA,right,1415,true,NA,NA,NA,NA,NA
YmtbJkIk,NA,NA,YmtbJkIk,2020-0188,2021-09-27,14:30:29,16:20:42,NA,incomplete,false,true,NA,3,25,size,m_s_023.jpg,left,small,large,NA,NA,NA,left,1347.39999997616,true,NA,NA,NA,NA,NA
YmtbJkIk,NA,NA,YmtbJkIk,2020-0188,2021-09-27,14:30:29,16:20:42,NA,incomplete,false,true,NA,3,26,size,m_s_014.jpg,right,large,small,NA,NA,NA,right,1491.5,true,NA,NA,NA,NA,NA
YmtbJkIk,NA,NA,YmtbJkIk,2020-0188,2021-09-27,14:30:29,16:20:42,NA,incomplete,false,true,NA,3,27,size,m_s_008.jpg,right,large,small,NA,NA,NA,right,1224.89999997616,true,NA,NA,NA,NA,NA
YmtbJkIk,NA,NA,YmtbJkIk,2020-0188,2021-09-27,14:30:29,16:20:42,NA,incomplete,false,true,NA,3,28,size,n_l_006.jpg,right,small,large,NA,NA,NA,right,1290.29999995232,true,NA,NA,NA,NA,NA
YmtbJkIk,NA,NA,YmtbJkIk,2020-0188,2021-09-27,14:30:29,16:20:42,NA,incomplete,false,true,NA,3,29,size,m_s_002.jpg,right,large,small,NA,NA,NA,right,1365.39999997616,true,NA,NA,NA,NA,NA
YmtbJkIk,NA,NA,YmtbJkIk,2020-0188,2021-09-27,14:30:29,16:20:42,NA,incomplete,false,NA,true,3,0,NA,NA,right,NA,NA,i_s_016.jpg,o_c_017.jpg,within,NA,NaN,NA,right,2910.100000023842,1,1,3225.2999999523163
YmtbJkIk,NA,NA,YmtbJkIk,2020-0188,2021-09-27,14:30:29,16:20:42,NA,incomplete,false,NA,true,3,1,NA,NA,right,NA,NA,c_1_011.jpg,c_1_013.jpg,within,NA,NaN,NA,right,4364.100000023842,1,1,1256.7999999523163
YmtbJkIk,NA,NA,YmtbJkIk,2020-0188,2021-09-27,14:30:29,16:20:42,NA,incomplete,false,NA,true,3,2,NA,NA,right,NA,NA,m_s_014.jpg,m_l_013.jpg,between-small,NA,NaN,NA,left,1975.5,0,2,7896.699999928474
YmtbJkIk,NA,NA,YmtbJkIk,2020-0188,2021-09-27,14:30:29,16:20:42,NA,incomplete,false,NA,true,3,3,NA,NA,right,NA,NA,o_s_026.jpg,o_c_003.jpg,between-small,NA,NaN,NA,left,3821.8000000715256,0,1,2791.600000023842
YmtbJkIk,NA,NA,YmtbJkIk,2020-0188,2021-09-27,14:30:29,16:20:42,NA,incomplete,false,NA,true,3,4,NA,NA,left,NA,NA,i_c_022.jpg,i_s_023.jpg,within,NA,NaN,NA,right,2475.3000000715256,0,2,3007.899999976158
YmtbJkIk,NA,NA,YmtbJkIk,2020-0188,2021-09-27,14:30:29,16:20:42,NA,incomplete,false,NA,true,3,5,NA,NA,right,NA,NA,a_1_019.jpg,c_2_009.jpg,between-small,NA,NaN,NA,right,1910.5999999046326,1,1,2621.0999999046326
YmtbJkIk,NA,NA,YmtbJkIk,2020-0188,2021-09-27,14:30:29,16:20:42,NA,incomplete,false,NA,true,3,6,NA,NA,right,NA,NA,i_c_022.jpg,i_s_003.jpg,between-small,NA,NaN,NA,right,3059.4000000953674,1,2,1790.9000000953674
YmtbJkIk,NA,NA,YmtbJkIk,2020-0188,2021-09-27,14:30:29,16:20:42,NA,incomplete,false,NA,true,3,7,NA,NA,left,NA,NA,i_s_002.jpg,i_c_011.jpg,within,NA,NaN,NA,right,3384.600000023842,0,2,2567.7999999523163
YmtbJkIk,NA,NA,YmtbJkIk,2020-0188,2021-09-27,14:30:29,16:20:42,NA,incomplete,false,NA,true,3,8,NA,NA,left,NA,NA,i_s_016.jpg,i_s_002.jpg,between-small,NA,NaN,NA,right,2778.7000000476837,0,1,1206.2999999523163
YmtbJkIk,NA,NA,YmtbJkIk,2020-0188,2021-09-27,14:30:29,16:20:42,NA,incomplete,false,NA,true,3,9,NA,NA,right,NA,NA,m_s_008.jpg,n_l_019.jpg,between-small,NA,NaN,NA,right,3957.5,1,2,3308.2000000476837
YmtbJkIk,NA,NA,YmtbJkIk,2020-0188,2021-09-27,14:30:29,16:20:42,NA,incomplete,false,NA,true,3,10,NA,NA,right,NA,NA,c_1_005.jpg,i_s_023.jpg,between-big,NA,NaN,NA,right,8058,1,2,2477.5
YmtbJkIk,NA,NA,YmtbJkIk,2020-0188,2021-09-27,14:30:29,16:20:42,NA,incomplete,false,NA,true,3,11,NA,NA,right,NA,NA,a_1_017.jpg,c_1_005.jpg,within,NA,NaN,NA,left,3397.899999976158,0,1,1001.1000000238419
YmtbJkIk,NA,NA,YmtbJkIk,2020-0188,2021-09-27,14:30:29,16:20:42,NA,incomplete,false,NA,true,3,12,NA,NA,left,NA,NA,o_s_013.jpg,o_c_003.jpg,within,NA,NaN,NA,right,4840.399999976158,0,2,1426.8000000715256
YmtbJkIk,NA,NA,YmtbJkIk,2020-0188,2021-09-27,14:30:29,16:20:42,NA,incomplete,false,NA,true,3,13,NA,NA,right,NA,NA,c_1_013.jpg,o_s_026.jpg,between-big,NA,NaN,NA,right,1599.3999999761581,1,2,2313.2000000476837
YmtbJkIk,NA,NA,YmtbJkIk,2020-0188,2021-09-27,14:30:29,16:20:42,NA,incomplete,false,NA,true,3,14,NA,NA,right,NA,NA,n_l_006.jpg,m_s_023.jpg,within,NA,NaN,NA,right,3125.8000000715256,1,0,5999.600000023842
YmtbJkIk,NA,NA,YmtbJkIk,2020-0188,2021-09-27,14:30:29,16:20:42,NA,incomplete,false,NA,true,3,15,NA,NA,right,NA,NA,m_l_003.jpg,a_2_026.jpg,between-big,NA,NaN,NA,right,1492.0999999046326,1,2,5793.600000023842
YmtbJkIk,NA,NA,YmtbJkIk,2020-0188,2021-09-27,14:30:29,16:20:42,NA,incomplete,false,NA,true,3,16,NA,NA,right,NA,NA,n_l_019.jpg,n_l_028.jpg,within,NA,NaN,NA,right,3078.399999976158,1,0,2013
YmtbJkIk,NA,NA,YmtbJkIk,2020-0188,2021-09-27,14:30:29,16:20:42,NA,incomplete,false,NA,true,3,17,NA,NA,left,NA,NA,n_s_001.jpg,m_l_013.jpg,within,NA,NaN,NA,left,1926.1999999284744,1,2,1148.7000000476837
YmtbJkIk,NA,NA,YmtbJkIk,2020-0188,2021-09-27,14:30:29,16:20:42,NA,incomplete,false,NA,true,3,18,NA,NA,left,NA,NA,a_1_019.jpg,c_2_005.jpg,within,NA,NaN,NA,left,2263.4000000953674,1,1,1131.2000000476837
YmtbJkIk,NA,NA,YmtbJkIk,2020-0188,2021-09-27,14:30:29,16:20:42,NA,incomplete,false,NA,true,3,19,NA,NA,left,NA,NA,m_s_014.jpg,m_s_002.jpg,within,NA,NaN,NA,right,2946.5,0,1,1166.8000000715256
YmtbJkIk,NA,NA,YmtbJkIk,2020-0188,2021-09-27,14:30:29,16:20:42,NA,incomplete,false,NA,true,3,20,NA,NA,right,NA,NA,c_1_021.jpg,a_1_017.jpg,between-small,NA,NaN,NA,right,1634.6000000238419,1,1,1272.3999999761581
YmtbJkIk,NA,NA,YmtbJkIk,2020-0188,2021-09-27,14:30:29,16:20:42,NA,incomplete,false,NA,true,3,21,NA,NA,left,NA,NA,a_2_019.jpg,a_2_026.jpg,within,NA,NaN,NA,left,4513,1,0,2740.2999999523163
YmtbJkIk,NA,NA,YmtbJkIk,2020-0188,2021-09-27,14:30:29,16:20:42,NA,incomplete,false,NA,true,3,22,NA,NA,left,NA,NA,c_1_021.jpg,n_s_001.jpg,between-big,NA,NaN,NA,left,2205.399999976158,1,3,1103.8999999761581
YmtbJkIk,NA,NA,YmtbJkIk,2020-0188,2021-09-27,14:30:29,16:20:42,NA,incomplete,false,NA,true,3,23,NA,NA,left,NA,NA,i_c_011.jpg,c_2_009.jpg,between-big,NA,NaN,NA,right,1872.3999999761581,0,2,1678.7000000476837
YmtbJkIk,NA,NA,YmtbJkIk,2020-0188,2021-09-27,14:30:29,16:20:42,NA,incomplete,false,NA,true,3,24,NA,NA,right,NA,NA,m_s_023.jpg,m_l_003.jpg,between-small,NA,NaN,NA,right,2864.8000000715256,1,2,3612.8000000715256
YmtbJkIk,NA,NA,YmtbJkIk,2020-0188,2021-09-27,14:30:29,16:20:42,NA,incomplete,false,NA,true,3,25,NA,NA,right,NA,NA,n_l_028.jpg,c_2_005.jpg,between-big,NA,NaN,NA,right,12400.399999976158,1,3,1049.8999999761581
YmtbJkIk,NA,NA,YmtbJkIk,2020-0188,2021-09-27,14:30:29,16:20:42,NA,incomplete,false,NA,true,3,26,NA,NA,left,NA,NA,c_1_011.jpg,a_2_019.jpg,between-small,NA,NaN,NA,right,1305.3999999761581,0,1,997.5
YmtbJkIk,NA,NA,YmtbJkIk,2020-0188,2021-09-27,14:30:29,16:20:42,NA,incomplete,false,true,NA,4,0,size,m_s_026.jpg,right,large,small,NA,NA,NA,right,1818.69999992847,true,NA,NA,NA,NA,NA
YmtbJkIk,NA,NA,YmtbJkIk,2020-0188,2021-09-27,14:30:29,16:20:42,NA,incomplete,false,true,NA,4,1,size,n_l_026.jpg,right,small,large,NA,NA,NA,right,3280.69999992847,true,NA,NA,NA,NA,NA
YmtbJkIk,NA,NA,YmtbJkIk,2020-0188,2021-09-27,14:30:29,16:20:42,NA,incomplete,false,true,NA,4,2,size,n_s_005.jpg,right,large,small,NA,NA,NA,right,1429.20000004768,true,NA,NA,NA,NA,NA
YmtbJkIk,NA,NA,YmtbJkIk,2020-0188,2021-09-27,14:30:29,16:20:42,NA,incomplete,false,true,NA,4,3,size,n_l_013.jpg,left,large,small,NA,NA,NA,left,1083.60000002384,true,NA,NA,NA,NA,NA
YmtbJkIk,NA,NA,YmtbJkIk,2020-0188,2021-09-27,14:30:29,16:20:42,NA,incomplete,false,true,NA,4,4,size,m_s_010.jpg,right,large,small,NA,NA,NA,right,1489.70000004768,true,NA,NA,NA,NA,NA
YmtbJkIk,NA,NA,YmtbJkIk,2020-0188,2021-09-27,14:30:29,16:20:42,NA,incomplete,false,true,NA,4,5,origin,n_s_015.jpg,right,manmade,natural,NA,NA,NA,right,1917.70000004768,true,NA,NA,NA,NA,NA
YmtbJkIk,NA,NA,YmtbJkIk,2020-0188,2021-09-27,14:30:29,16:20:42,NA,incomplete,false,true,NA,4,6,origin,n_l_024.jpg,left,natural,manmade,NA,NA,NA,left,1093.79999995232,true,NA,NA,NA,NA,NA
YmtbJkIk,NA,NA,YmtbJkIk,2020-0188,2021-09-27,14:30:29,16:20:42,NA,incomplete,false,true,NA,4,7,origin,m_s_007.jpg,left,manmade,natural,NA,NA,NA,left,2621.10000002384,true,NA,NA,NA,NA,NA
YmtbJkIk,NA,NA,YmtbJkIk,2020-0188,2021-09-27,14:30:29,16:20:42,NA,incomplete,false,true,NA,4,8,origin,n_s_027.jpg,right,manmade,natural,NA,NA,NA,right,1053.5,true,NA,NA,NA,NA,NA
YmtbJkIk,NA,NA,YmtbJkIk,2020-0188,2021-09-27,14:30:29,16:20:42,NA,incomplete,false,true,NA,4,9,origin,m_s_018.jpg,right,natural,manmade,NA,NA,NA,right,1098.5,true,NA,NA,NA,NA,NA
YmtbJkIk,NA,NA,YmtbJkIk,2020-0188,2021-09-27,14:30:29,16:20:42,NA,incomplete,false,true,NA,4,10,syllable,a_2_001.jpg,right,1 syllable,2 syllables,NA,NA,NA,right,1844.20000004768,true,NA,NA,NA,NA,NA
YmtbJkIk,NA,NA,YmtbJkIk,2020-0188,2021-09-27,14:30:29,16:20:42,NA,incomplete,false,true,NA,4,11,syllable,a_2_004.jpg,right,1 syllable,2 syllables,NA,NA,NA,right,2438.89999997616,true,NA,NA,NA,NA,NA
YmtbJkIk,NA,NA,YmtbJkIk,2020-0188,2021-09-27,14:30:29,16:20:42,NA,incomplete,false,true,NA,4,12,syllable,c_1_015.jpg,right,1 syllable,2 syllables,NA,NA,NA,left,2110.90000009537,false,NA,NA,NA,NA,NA
YmtbJkIk,NA,NA,YmtbJkIk,2020-0188,2021-09-27,14:30:29,16:20:42,NA,incomplete,false,true,NA,4,13,syllable,a_2_017.jpg,right,2 syllables,1 syllable,NA,NA,NA,left,2098.60000002384,false,NA,NA,NA,NA,NA
YmtbJkIk,NA,NA,YmtbJkIk,2020-0188,2021-09-27,14:30:29,16:20:42,NA,incomplete,false,true,NA,4,14,syllable,c_1_007.jpg,right,2 syllables,1 syllable,NA,NA,NA,right,1621.39999997616,true,NA,NA,NA,NA,NA
YmtbJkIk,NA,NA,YmtbJkIk,2020-0188,2021-09-27,14:30:29,16:20:42,NA,incomplete,false,true,NA,4,15,abstractness,a_1_003.jpg,right,concrete,abstract,NA,NA,NA,none,0,false,NA,NA,NA,NA,NA
YmtbJkIk,NA,NA,YmtbJkIk,2020-0188,2021-09-27,14:30:29,16:20:42,NA,incomplete,false,true,NA,4,16,abstractness,a_2_025.jpg,right,concrete,abstract,NA,NA,NA,right,1345.19999992847,true,NA,NA,NA,NA,NA
YmtbJkIk,NA,NA,YmtbJkIk,2020-0188,2021-09-27,14:30:29,16:20:42,NA,incomplete,false,true,NA,4,17,abstractness,a_1_026.jpg,left,abstract,concrete,NA,NA,NA,left,1772.19999992847,true,NA,NA,NA,NA,NA
YmtbJkIk,NA,NA,YmtbJkIk,2020-0188,2021-09-27,14:30:29,16:20:42,NA,incomplete,false,true,NA,4,18,abstractness,c_2_024.jpg,right,abstract,concrete,NA,NA,NA,right,2998.5,true,NA,NA,NA,NA,NA
YmtbJkIk,NA,NA,YmtbJkIk,2020-0188,2021-09-27,14:30:29,16:20:42,NA,incomplete,false,true,NA,4,19,abstractness,c_2_021.jpg,right,abstract,concrete,NA,NA,NA,right,895.299999952316,true,NA,NA,NA,NA,NA
YmtbJkIk,NA,NA,YmtbJkIk,2020-0188,2021-09-27,14:30:29,16:20:42,NA,incomplete,false,true,NA,4,20,building,i_c_012.jpg,left,cottage,skyscraper,NA,NA,NA,left,1616.79999995232,true,NA,NA,NA,NA,NA
YmtbJkIk,NA,NA,YmtbJkIk,2020-0188,2021-09-27,14:30:29,16:20:42,NA,incomplete,false,true,NA,4,21,building,o_c_016.jpg,right,skyscraper,cottage,NA,NA,NA,right,1343.30000007153,true,NA,NA,NA,NA,NA
YmtbJkIk,NA,NA,YmtbJkIk,2020-0188,2021-09-27,14:30:29,16:20:42,NA,incomplete,false,true,NA,4,22,building,o_s_003.jpg,right,cottage,skyscraper,NA,NA,NA,right,1396,true,NA,NA,NA,NA,NA
YmtbJkIk,NA,NA,YmtbJkIk,2020-0188,2021-09-27,14:30:29,16:20:42,NA,incomplete,false,true,NA,4,23,building,o_s_023.jpg,right,cottage,skyscraper,NA,NA,NA,right,1408.80000007153,true,NA,NA,NA,NA,NA
YmtbJkIk,NA,NA,YmtbJkIk,2020-0188,2021-09-27,14:30:29,16:20:42,NA,incomplete,false,true,NA,4,24,building,o_c_012.jpg,right,skyscraper,cottage,NA,NA,NA,right,1477.10000002384,true,NA,NA,NA,NA,NA
YmtbJkIk,NA,NA,YmtbJkIk,2020-0188,2021-09-27,14:30:29,16:20:42,NA,incomplete,false,true,NA,4,25,location,o_c_007.jpg,left,outdoor,indoor,NA,NA,NA,left,2685.29999995232,true,NA,NA,NA,NA,NA
YmtbJkIk,NA,NA,YmtbJkIk,2020-0188,2021-09-27,14:30:29,16:20:42,NA,incomplete,false,true,NA,4,26,location,o_c_021.jpg,right,indoor,outdoor,NA,NA,NA,right,1701.20000004768,true,NA,NA,NA,NA,NA
YmtbJkIk,NA,NA,YmtbJkIk,2020-0188,2021-09-27,14:30:29,16:20:42,NA,incomplete,false,true,NA,4,27,location,i_s_005.jpg,right,outdoor,indoor,NA,NA,NA,right,2081,true,NA,NA,NA,NA,NA
YmtbJkIk,NA,NA,YmtbJkIk,2020-0188,2021-09-27,14:30:29,16:20:42,NA,incomplete,false,true,NA,4,28,location,o_c_020.jpg,left,outdoor,indoor,NA,NA,NA,left,1345.79999995232,true,NA,NA,NA,NA,NA
YmtbJkIk,NA,NA,YmtbJkIk,2020-0188,2021-09-27,14:30:29,16:20:42,NA,incomplete,false,true,NA,4,29,location,o_s_024.jpg,right,indoor,outdoor,NA,NA,NA,right,2009.69999992847,true,NA,NA,NA,NA,NA
YmtbJkIk,NA,NA,YmtbJkIk,2020-0188,2021-09-27,14:30:29,16:20:42,NA,incomplete,false,NA,true,4,0,NA,NA,right,NA,NA,a_2_004.jpg,n_s_027.jpg,between-big,NA,NaN,NA,right,4344,1,2,2481.1999999284744
YmtbJkIk,NA,NA,YmtbJkIk,2020-0188,2021-09-27,14:30:29,16:20:42,NA,incomplete,false,NA,true,4,1,NA,NA,right,NA,NA,n_l_013.jpg,m_s_026.jpg,within,NA,NaN,NA,right,2512.2000000476837,1,1,3137.2000000476837
YmtbJkIk,NA,NA,YmtbJkIk,2020-0188,2021-09-27,14:30:29,16:20:42,NA,incomplete,false,NA,true,4,2,NA,NA,left,NA,NA,n_s_005.jpg,n_s_015.jpg,between-small,NA,NaN,NA,right,4774.5,0,1,3915.899999976158
YmtbJkIk,NA,NA,YmtbJkIk,2020-0188,2021-09-27,14:30:29,16:20:42,NA,incomplete,false,NA,true,4,3,NA,NA,left,NA,NA,a_2_001.jpg,a_2_017.jpg,within,NA,NaN,NA,left,56731,1,1,3069.9000000953674
YmtbJkIk,NA,NA,YmtbJkIk,2020-0188,2021-09-27,14:30:29,16:20:42,NA,incomplete,false,NA,true,4,4,NA,NA,left,NA,NA,n_l_026.jpg,m_s_010.jpg,within,NA,NaN,NA,left,4233,1,1,6843.5
YmtbJkIk,NA,NA,YmtbJkIk,2020-0188,2021-09-27,14:30:29,16:20:42,NA,incomplete,false,NA,true,4,5,NA,NA,right,NA,NA,a_1_003.jpg,c_1_015.jpg,between-small,NA,NaN,NA,right,2260.2999999523163,1,1,1505.1000000238419
YmtbJkIk,NA,NA,YmtbJkIk,2020-0188,2021-09-27,14:30:29,16:20:42,NA,incomplete,false,NA,true,4,6,NA,NA,right,NA,NA,c_1_015.jpg,m_s_018.jpg,between-big,NA,NaN,NA,right,2257.1999999284744,1,1,2507.399999976158
YmtbJkIk,NA,NA,YmtbJkIk,2020-0188,2021-09-27,14:30:29,16:20:42,NA,incomplete,false,NA,true,4,7,NA,NA,right,NA,NA,o_s_023.jpg,i_c_012.jpg,within,NA,NaN,NA,right,9449.899999976158,1,0,6842.200000047684
YmtbJkIk,NA,NA,YmtbJkIk,2020-0188,2021-09-27,14:30:29,16:20:42,NA,incomplete,false,NA,true,4,8,NA,NA,left,NA,NA,a_2_017.jpg,a_2_025.jpg,between-small,NA,NaN,NA,right,3518.600000023842,0,0,1340.3000000715256
YmtbJkIk,NA,NA,YmtbJkIk,2020-0188,2021-09-27,14:30:29,16:20:42,NA,incomplete,false,NA,true,4,9,NA,NA,left,NA,NA,a_1_003.jpg,c_2_024.jpg,within,NA,NaN,NA,left,3949.7000000476837,1,0,1353.1000000238419
YmtbJkIk,NA,NA,YmtbJkIk,2020-0188,2021-09-27,14:30:29,16:20:42,NA,incomplete,false,NA,true,4,10,NA,NA,left,NA,NA,o_c_016.jpg,o_c_012.jpg,within,NA,NaN,NA,left,2915.600000023842,1,1,1401.9000000953674
YmtbJkIk,NA,NA,YmtbJkIk,2020-0188,2021-09-27,14:30:29,16:20:42,NA,incomplete,false,NA,true,4,11,NA,NA,right,NA,NA,o_s_024.jpg,o_c_021.jpg,within,NA,NaN,NA,left,2417.2000000476837,0,0,1537.2999999523163
YmtbJkIk,NA,NA,YmtbJkIk,2020-0188,2021-09-27,14:30:29,16:20:42,NA,incomplete,false,NA,true,4,12,NA,NA,left,NA,NA,a_2_004.jpg,c_1_007.jpg,within,NA,NaN,NA,right,1811.6000000238419,0,1,1362.2000000476837
YmtbJkIk,NA,NA,YmtbJkIk,2020-0188,2021-09-27,14:30:29,16:20:42,NA,incomplete,false,NA,true,4,13,NA,NA,left,NA,NA,a_2_025.jpg,c_2_021.jpg,within,NA,NaN,NA,left,2038,1,2,3058.4000000953674
YmtbJkIk,NA,NA,YmtbJkIk,2020-0188,2021-09-27,14:30:29,16:20:42,NA,incomplete,false,NA,true,4,14,NA,NA,right,NA,NA,a_2_001.jpg,m_s_007.jpg,between-big,NA,NaN,NA,right,3646.899999976158,1,2,1656.5999999046326
YmtbJkIk,NA,NA,YmtbJkIk,2020-0188,2021-09-27,14:30:29,16:20:42,NA,incomplete,false,NA,true,4,15,NA,NA,left,NA,NA,c_1_007.jpg,a_1_026.jpg,between-small,NA,NaN,NA,right,2261.100000023842,0,2,1421.8999999761581
YmtbJkIk,NA,NA,YmtbJkIk,2020-0188,2021-09-27,14:30:29,16:20:42,NA,incomplete,false,NA,true,4,16,NA,NA,right,NA,NA,i_s_005.jpg,o_c_012.jpg,between-small,NA,NaN,NA,left,4614.800000071526,0,2,2636.5
YmtbJkIk,NA,NA,YmtbJkIk,2020-0188,2021-09-27,14:30:29,16:20:42,NA,incomplete,false,NA,true,4,17,NA,NA,left,NA,NA,n_l_013.jpg,n_l_024.jpg,between-small,NA,NaN,NA,left,3558.9000000953674,1,1,1888.3999999761581
YmtbJkIk,NA,NA,YmtbJkIk,2020-0188,2021-09-27,14:30:29,16:20:42,NA,incomplete,false,NA,true,4,18,NA,NA,right,NA,NA,i_c_012.jpg,a_1_026.jpg,between-big,NA,NaN,NA,right,1652.5,1,2,2858.5
YmtbJkIk,NA,NA,YmtbJkIk,2020-0188,2021-09-27,14:30:29,16:20:42,NA,incomplete,false,NA,true,4,19,NA,NA,right,NA,NA,m_s_018.jpg,n_l_024.jpg,within,NA,NaN,NA,right,4675.199999928474,1,0,1249.7999999523163
YmtbJkIk,NA,NA,YmtbJkIk,2020-0188,2021-09-27,14:30:29,16:20:42,NA,incomplete,false,NA,true,4,20,NA,NA,left,NA,NA,o_s_023.jpg,o_c_021.jpg,between-small,NA,NaN,NA,left,3281.1999999284744,1,1,1975.1999999284744
YmtbJkIk,NA,NA,YmtbJkIk,2020-0188,2021-09-27,14:30:29,16:20:42,NA,incomplete,false,NA,true,4,21,NA,NA,left,NA,NA,n_s_015.jpg,n_s_027.jpg,within,NA,NaN,NA,right,2918.8000000715256,0,1,1014.7999999523163
YmtbJkIk,NA,NA,YmtbJkIk,2020-0188,2021-09-27,14:30:29,16:20:42,NA,incomplete,false,NA,true,4,22,NA,NA,right,NA,NA,o_c_007.jpg,o_s_003.jpg,between-small,NA,NaN,NA,right,5197.400000095367,1,1,4170.799999952316
YmtbJkIk,NA,NA,YmtbJkIk,2020-0188,2021-09-27,14:30:29,16:20:42,NA,incomplete,false,NA,true,4,23,NA,NA,left,NA,NA,o_c_007.jpg,o_c_020.jpg,within,NA,NaN,NA,right,1045.6000000238419,0,1,1533.3999999761581
YmtbJkIk,NA,NA,YmtbJkIk,2020-0188,2021-09-27,14:30:29,16:20:42,NA,incomplete,false,NA,true,4,24,NA,NA,left,NA,NA,c_2_024.jpg,o_c_016.jpg,between-big,NA,NaN,NA,left,1318.5,1,2,2437.8000000715256
YmtbJkIk,NA,NA,YmtbJkIk,2020-0188,2021-09-27,14:30:29,16:20:42,NA,incomplete,false,NA,true,4,25,NA,NA,right,NA,NA,m_s_007.jpg,m_s_010.jpg,between-small,NA,NaN,NA,right,1074.3000000715256,1,2,1471.7000000476837
YmtbJkIk,NA,NA,YmtbJkIk,2020-0188,2021-09-27,14:30:29,16:20:42,NA,incomplete,false,NA,true,4,26,NA,NA,left,NA,NA,c_2_021.jpg,o_s_003.jpg,between-big,NA,NaN,NA,left,1658.2000000476837,1,1,1508.6000000238419
YmtbJkIk,NA,NA,YmtbJkIk,2020-0188,2021-09-27,14:30:29,16:20:42,NA,incomplete,false,true,NA,5,0,building,i_c_001.jpg,right,skyscraper,cottage,NA,NA,NA,right,1391.10000002384,true,NA,NA,NA,NA,NA
YmtbJkIk,NA,NA,YmtbJkIk,2020-0188,2021-09-27,14:30:29,16:20:42,NA,incomplete,false,true,NA,5,1,building,i_s_012.jpg,right,cottage,skyscraper,NA,NA,NA,right,2022.29999995232,true,NA,NA,NA,NA,NA
YmtbJkIk,NA,NA,YmtbJkIk,2020-0188,2021-09-27,14:30:29,16:20:42,NA,incomplete,false,true,NA,5,2,building,o_c_027.jpg,right,skyscraper,cottage,NA,NA,NA,right,1109.20000004768,true,NA,NA,NA,NA,NA
YmtbJkIk,NA,NA,YmtbJkIk,2020-0188,2021-09-27,14:30:29,16:20:42,NA,incomplete,false,true,NA,5,3,building,o_s_012.jpg,left,skyscraper,cottage,NA,NA,NA,left,1426.70000004768,true,NA,NA,NA,NA,NA
YmtbJkIk,NA,NA,YmtbJkIk,2020-0188,2021-09-27,14:30:29,16:20:42,NA,incomplete,false,true,NA,5,4,building,i_c_019.jpg,left,cottage,skyscraper,NA,NA,NA,left,1838.60000002384,true,NA,NA,NA,NA,NA
YmtbJkIk,NA,NA,YmtbJkIk,2020-0188,2021-09-27,14:30:29,16:20:42,NA,incomplete,false,true,NA,5,5,location,o_s_002.jpg,left,outdoor,indoor,NA,NA,NA,left,1644.79999995232,true,NA,NA,NA,NA,NA
YmtbJkIk,NA,NA,YmtbJkIk,2020-0188,2021-09-27,14:30:29,16:20:42,NA,incomplete,false,true,NA,5,6,location,o_c_019.jpg,left,outdoor,indoor,NA,NA,NA,left,1948.5,true,NA,NA,NA,NA,NA
YmtbJkIk,NA,NA,YmtbJkIk,2020-0188,2021-09-27,14:30:29,16:20:42,NA,incomplete,false,true,NA,5,7,location,o_s_015.jpg,right,indoor,outdoor,NA,NA,NA,right,1762.59999990463,true,NA,NA,NA,NA,NA
YmtbJkIk,NA,NA,YmtbJkIk,2020-0188,2021-09-27,14:30:29,16:20:42,NA,incomplete,false,true,NA,5,8,location,o_s_004.jpg,right,indoor,outdoor,NA,NA,NA,right,1333.40000009537,true,NA,NA,NA,NA,NA
YmtbJkIk,NA,NA,YmtbJkIk,2020-0188,2021-09-27,14:30:29,16:20:42,NA,incomplete,false,true,NA,5,9,location,i_s_010.jpg,right,outdoor,indoor,NA,NA,NA,right,1661.39999997616,true,NA,NA,NA,NA,NA
YmtbJkIk,NA,NA,YmtbJkIk,2020-0188,2021-09-27,14:30:29,16:20:42,NA,incomplete,false,true,NA,5,10,origin,m_s_020.jpg,right,natural,manmade,NA,NA,NA,right,2068.70000004768,true,NA,NA,NA,NA,NA
YmtbJkIk,NA,NA,YmtbJkIk,2020-0188,2021-09-27,14:30:29,16:20:42,NA,incomplete,false,true,NA,5,11,origin,n_l_027.jpg,left,natural,manmade,NA,NA,NA,left,1522.89999997616,true,NA,NA,NA,NA,NA
YmtbJkIk,NA,NA,YmtbJkIk,2020-0188,2021-09-27,14:30:29,16:20:42,NA,incomplete,false,true,NA,5,12,origin,m_l_007.jpg,right,natural,manmade,NA,NA,NA,right,1031.10000002384,true,NA,NA,NA,NA,NA
YmtbJkIk,NA,NA,YmtbJkIk,2020-0188,2021-09-27,14:30:29,16:20:42,NA,incomplete,false,true,NA,5,13,origin,m_l_010.jpg,left,manmade,natural,NA,NA,NA,left,2967.39999997616,true,NA,NA,NA,NA,NA
YmtbJkIk,NA,NA,YmtbJkIk,2020-0188,2021-09-27,14:30:29,16:20:42,NA,incomplete,false,true,NA,5,14,origin,m_s_021.jpg,right,natural,manmade,NA,NA,NA,right,2636.30000007153,true,NA,NA,NA,NA,NA
YmtbJkIk,NA,NA,YmtbJkIk,2020-0188,2021-09-27,14:30:29,16:20:42,NA,incomplete,false,true,NA,5,15,size,m_s_006.jpg,left,small,large,NA,NA,NA,left,3145.29999995232,true,NA,NA,NA,NA,NA
YmtbJkIk,NA,NA,YmtbJkIk,2020-0188,2021-09-27,14:30:29,16:20:42,NA,incomplete,false,true,NA,5,16,size,n_l_004.jpg,left,large,small,NA,NA,NA,left,2256.39999997616,true,NA,NA,NA,NA,NA
YmtbJkIk,NA,NA,YmtbJkIk,2020-0188,2021-09-27,14:30:29,16:20:42,NA,incomplete,false,true,NA,5,17,size,n_l_011.jpg,left,large,small,NA,NA,NA,left,1018,true,NA,NA,NA,NA,NA
YmtbJkIk,NA,NA,YmtbJkIk,2020-0188,2021-09-27,14:30:29,16:20:42,NA,incomplete,false,true,NA,5,18,size,m_s_019.jpg,right,large,small,NA,NA,NA,right,1998.30000007153,true,NA,NA,NA,NA,NA
YmtbJkIk,NA,NA,YmtbJkIk,2020-0188,2021-09-27,14:30:29,16:20:42,NA,incomplete,false,true,NA,5,19,size,m_s_015.jpg,right,large,small,NA,NA,NA,right,1304.19999992847,true,NA,NA,NA,NA,NA
YmtbJkIk,NA,NA,YmtbJkIk,2020-0188,2021-09-27,14:30:29,16:20:42,NA,incomplete,false,true,NA,5,20,abstractness,c_2_018.jpg,right,abstract,concrete,NA,NA,NA,right,3155.89999997616,true,NA,NA,NA,NA,NA
YmtbJkIk,NA,NA,YmtbJkIk,2020-0188,2021-09-27,14:30:29,16:20:42,NA,incomplete,false,true,NA,5,21,abstractness,a_1_025.jpg,right,concrete,abstract,NA,NA,NA,left,1236.89999997616,false,NA,NA,NA,NA,NA
YmtbJkIk,NA,NA,YmtbJkIk,2020-0188,2021-09-27,14:30:29,16:20:42,NA,incomplete,false,true,NA,5,22,abstractness,c_2_004.jpg,left,concrete,abstract,NA,NA,NA,left,1518.79999995232,true,NA,NA,NA,NA,NA
YmtbJkIk,NA,NA,YmtbJkIk,2020-0188,2021-09-27,14:30:29,16:20:42,NA,incomplete,false,true,NA,5,23,abstractness,a_1_020.jpg,left,abstract,concrete,NA,NA,NA,left,1424.40000009537,true,NA,NA,NA,NA,NA
YmtbJkIk,NA,NA,YmtbJkIk,2020-0188,2021-09-27,14:30:29,16:20:42,NA,incomplete,false,true,NA,5,24,abstractness,a_2_011.jpg,left,abstract,concrete,NA,NA,NA,left,2404,true,NA,NA,NA,NA,NA
YmtbJkIk,NA,NA,YmtbJkIk,2020-0188,2021-09-27,14:30:29,16:20:42,NA,incomplete,false,true,NA,5,25,syllable,c_2_012.jpg,right,2 syllables,1 syllable,NA,NA,NA,left,1836.39999997616,false,NA,NA,NA,NA,NA
YmtbJkIk,NA,NA,YmtbJkIk,2020-0188,2021-09-27,14:30:29,16:20:42,NA,incomplete,false,true,NA,5,26,syllable,c_2_026.jpg,right,1 syllable,2 syllables,NA,NA,NA,right,1591,true,NA,NA,NA,NA,NA
YmtbJkIk,NA,NA,YmtbJkIk,2020-0188,2021-09-27,14:30:29,16:20:42,NA,incomplete,false,true,NA,5,27,syllable,a_2_014.jpg,right,1 syllable,2 syllables,NA,NA,NA,right,1331.29999995232,true,NA,NA,NA,NA,NA
YmtbJkIk,NA,NA,YmtbJkIk,2020-0188,2021-09-27,14:30:29,16:20:42,NA,incomplete,false,true,NA,5,28,syllable,a_1_027.jpg,right,1 syllable,2 syllables,NA,NA,NA,left,3061.70000004768,false,NA,NA,NA,NA,NA
YmtbJkIk,NA,NA,YmtbJkIk,2020-0188,2021-09-27,14:30:29,16:20:42,NA,incomplete,false,true,NA,5,29,syllable,a_2_028.jpg,right,2 syllables,1 syllable,NA,NA,NA,right,2395.60000002384,true,NA,NA,NA,NA,NA
YmtbJkIk,NA,NA,YmtbJkIk,2020-0188,2021-09-27,14:30:29,16:20:42,NA,incomplete,false,NA,true,5,0,NA,NA,right,NA,NA,i_s_010.jpg,o_c_019.jpg,within,NA,NaN,NA,right,4444.800000071526,1,0,1640.8000000715256
YmtbJkIk,NA,NA,YmtbJkIk,2020-0188,2021-09-27,14:30:29,16:20:42,NA,incomplete,false,NA,true,5,1,NA,NA,left,NA,NA,n_l_004.jpg,m_s_015.jpg,within,NA,NaN,NA,left,1573.6000000238419,1,0,1376.1000000238419
YmtbJkIk,NA,NA,YmtbJkIk,2020-0188,2021-09-27,14:30:29,16:20:42,NA,incomplete,false,NA,true,5,2,NA,NA,right,NA,NA,i_c_019.jpg,i_s_012.jpg,within,NA,NaN,NA,left,4214.700000047684,0,1,1883.2000000476837
YmtbJkIk,NA,NA,YmtbJkIk,2020-0188,2021-09-27,14:30:29,16:20:42,NA,incomplete,false,NA,true,5,3,NA,NA,right,NA,NA,n_l_004.jpg,m_l_010.jpg,between-small,NA,NaN,NA,left,4474.699999928474,0,2,1027.8999999761581
YmtbJkIk,NA,NA,YmtbJkIk,2020-0188,2021-09-27,14:30:29,16:20:42,NA,incomplete,false,NA,true,5,4,NA,NA,right,NA,NA,m_s_020.jpg,o_s_015.jpg,between-big,NA,NaN,NA,right,1676.8000000715256,1,2,3657.399999976158
YmtbJkIk,NA,NA,YmtbJkIk,2020-0188,2021-09-27,14:30:29,16:20:42,NA,incomplete,false,NA,true,5,5,NA,NA,left,NA,NA,m_s_020.jpg,m_l_010.jpg,within,NA,NaN,NA,left,1631.1000000238419,1,1,1937.5
YmtbJkIk,NA,NA,YmtbJkIk,2020-0188,2021-09-27,14:30:29,16:20:42,NA,incomplete,false,NA,true,5,6,NA,NA,right,NA,NA,n_l_011.jpg,m_s_021.jpg,between-small,NA,NaN,NA,left,5037.299999952316,0,2,1160.5
YmtbJkIk,NA,NA,YmtbJkIk,2020-0188,2021-09-27,14:30:29,16:20:42,NA,incomplete,false,NA,true,5,7,NA,NA,left,NA,NA,a_1_025.jpg,a_2_011.jpg,within,NA,NaN,NA,left,1966.3999999761581,1,0,1053.6999999284744
YmtbJkIk,NA,NA,YmtbJkIk,2020-0188,2021-09-27,14:30:29,16:20:42,NA,incomplete,false,NA,true,5,8,NA,NA,left,NA,NA,m_s_006.jpg,m_s_019.jpg,within,NA,NaN,NA,left,2975.4000000953674,1,0,3661.0999999046326
YmtbJkIk,NA,NA,YmtbJkIk,2020-0188,2021-09-27,14:30:29,16:20:42,NA,incomplete,false,NA,true,5,9,NA,NA,left,NA,NA,c_2_018.jpg,a_1_020.jpg,within,NA,NaN,NA,left,1720,1,0,1208.7999999523163
YmtbJkIk,NA,NA,YmtbJkIk,2020-0188,2021-09-27,14:30:29,16:20:42,NA,incomplete,false,NA,true,5,10,NA,NA,right,NA,NA,c_2_004.jpg,m_s_015.jpg,between-big,NA,NaN,NA,left,4168.600000023842,0,1,4287.700000047684
YmtbJkIk,NA,NA,YmtbJkIk,2020-0188,2021-09-27,14:30:29,16:20:42,NA,incomplete,false,NA,true,5,11,NA,NA,left,NA,NA,i_s_010.jpg,m_l_007.jpg,between-big,NA,NaN,NA,left,2693.100000023842,1,2,1251.8999999761581
YmtbJkIk,NA,NA,YmtbJkIk,2020-0188,2021-09-27,14:30:29,16:20:42,NA,incomplete,false,NA,true,5,12,NA,NA,left,NA,NA,o_c_027.jpg,o_s_002.jpg,between-small,NA,NaN,NA,left,6182.900000095367,1,1,3963.6999999284744
YmtbJkIk,NA,NA,YmtbJkIk,2020-0188,2021-09-27,14:30:29,16:20:42,NA,incomplete,false,NA,true,5,13,NA,NA,left,NA,NA,o_s_012.jpg,o_c_019.jpg,between-small,NA,NaN,NA,right,5585.700000047684,0,2,3433.7999999523163
YmtbJkIk,NA,NA,YmtbJkIk,2020-0188,2021-09-27,14:30:29,16:20:42,NA,incomplete,false,NA,true,5,14,NA,NA,left,NA,NA,m_l_007.jpg,m_s_006.jpg,between-small,NA,NaN,NA,left,2513.7999999523163,1,2,2100.100000023842
YmtbJkIk,NA,NA,YmtbJkIk,2020-0188,2021-09-27,14:30:29,16:20:42,NA,incomplete,false,NA,true,5,15,NA,NA,right,NA,NA,a_2_028.jpg,c_2_026.jpg,within,NA,NaN,NA,left,2778.100000023842,0,2,1665.8999999761581
YmtbJkIk,NA,NA,YmtbJkIk,2020-0188,2021-09-27,14:30:29,16:20:42,NA,incomplete,false,NA,true,5,16,NA,NA,right,NA,NA,a_1_027.jpg,c_2_012.jpg,within,NA,NaN,NA,left,2753.6999999284744,0,0,1835.5
YmtbJkIk,NA,NA,YmtbJkIk,2020-0188,2021-09-27,14:30:29,16:20:42,NA,incomplete,false,NA,true,5,17,NA,NA,right,NA,NA,o_s_015.jpg,i_c_019.jpg,between-small,NA,NaN,NA,right,2062.7000000476837,1,0,2173.600000023842
YmtbJkIk,NA,NA,YmtbJkIk,2020-0188,2021-09-27,14:30:29,16:20:42,NA,incomplete,false,NA,true,5,18,NA,NA,right,NA,NA,c_2_012.jpg,c_2_004.jpg,between-small,NA,NaN,NA,right,2490.100000023842,1,1,1909.6000000238419
YmtbJkIk,NA,NA,YmtbJkIk,2020-0188,2021-09-27,14:30:29,16:20:42,NA,incomplete,false,NA,true,5,19,NA,NA,left,NA,NA,o_s_004.jpg,n_l_027.jpg,between-big,NA,NaN,NA,left,2284.7999999523163,1,1,1041.1000000238419
YmtbJkIk,NA,NA,YmtbJkIk,2020-0188,2021-09-27,14:30:29,16:20:42,NA,incomplete,false,NA,true,5,20,NA,NA,right,NA,NA,o_s_012.jpg,i_c_001.jpg,within,NA,NaN,NA,right,7561.399999976158,1,1,3712.1999999284744
YmtbJkIk,NA,NA,YmtbJkIk,2020-0188,2021-09-27,14:30:29,16:20:42,NA,incomplete,false,NA,true,5,21,NA,NA,left,NA,NA,a_1_020.jpg,c_2_026.jpg,between-small,NA,NaN,NA,left,4191.200000047684,1,2,3792
YmtbJkIk,NA,NA,YmtbJkIk,2020-0188,2021-09-27,14:30:29,16:20:42,NA,incomplete,false,NA,true,5,22,NA,NA,left,NA,NA,m_s_019.jpg,a_1_025.jpg,between-big,NA,NaN,NA,right,1548.2999999523163,0,2,2171.4000000953674
YmtbJkIk,NA,NA,YmtbJkIk,2020-0188,2021-09-27,14:30:29,16:20:42,NA,incomplete,false,NA,true,5,23,NA,NA,right,NA,NA,c_2_018.jpg,n_l_011.jpg,between-big,NA,NaN,NA,right,1585,1,2,1555.7999999523163
YmtbJkIk,NA,NA,YmtbJkIk,2020-0188,2021-09-27,14:30:29,16:20:42,NA,incomplete,false,NA,true,5,24,NA,NA,left,NA,NA,a_2_011.jpg,a_2_014.jpg,between-small,NA,NaN,NA,left,10231.899999976158,1,2,2409.2000000476837
YmtbJkIk,NA,NA,YmtbJkIk,2020-0188,2021-09-27,14:30:29,16:20:42,NA,incomplete,false,NA,true,5,25,NA,NA,right,NA,NA,m_s_021.jpg,n_l_027.jpg,within,NA,NaN,NA,right,1492.2999999523163,1,0,3239.100000023842
YmtbJkIk,NA,NA,YmtbJkIk,2020-0188,2021-09-27,14:30:29,16:20:42,NA,incomplete,false,NA,true,5,26,NA,NA,left,NA,NA,o_s_002.jpg,o_s_004.jpg,within,NA,NaN,NA,right,1759.1000000238419,0,0,2027.5
YmtbJkIk,NA,NA,YmtbJkIk,2020-0188,2021-09-27,14:30:29,16:20:42,NA,incomplete,false,true,NA,6,0,origin,m_l_017.jpg,left,manmade,natural,NA,NA,NA,left,1810.30000007153,true,NA,NA,NA,NA,NA
YmtbJkIk,NA,NA,YmtbJkIk,2020-0188,2021-09-27,14:30:29,16:20:42,NA,incomplete,false,true,NA,6,1,origin,n_s_023.jpg,right,manmade,natural,NA,NA,NA,right,1423.89999997616,true,NA,NA,NA,NA,NA
YmtbJkIk,NA,NA,YmtbJkIk,2020-0188,2021-09-27,14:30:29,16:20:42,NA,incomplete,false,true,NA,6,2,origin,m_s_022.jpg,left,manmade,natural,NA,NA,NA,left,1368,true,NA,NA,NA,NA,NA
YmtbJkIk,NA,NA,YmtbJkIk,2020-0188,2021-09-27,14:30:29,16:20:42,NA,incomplete,false,true,NA,6,3,origin,m_s_027.jpg,left,manmade,natural,NA,NA,NA,left,2214,true,NA,NA,NA,NA,NA
YmtbJkIk,NA,NA,YmtbJkIk,2020-0188,2021-09-27,14:30:29,16:20:42,NA,incomplete,false,true,NA,6,4,origin,n_l_022.jpg,right,manmade,natural,NA,NA,NA,right,1392.80000007153,true,NA,NA,NA,NA,NA
YmtbJkIk,NA,NA,YmtbJkIk,2020-0188,2021-09-27,14:30:29,16:20:42,NA,incomplete,false,true,NA,6,5,size,n_s_020.jpg,left,small,large,NA,NA,NA,left,1246.29999995232,true,NA,NA,NA,NA,NA
YmtbJkIk,NA,NA,YmtbJkIk,2020-0188,2021-09-27,14:30:29,16:20:42,NA,incomplete,false,true,NA,6,6,size,n_s_024.jpg,right,large,small,NA,NA,NA,right,1731.10000002384,true,NA,NA,NA,NA,NA
YmtbJkIk,NA,NA,YmtbJkIk,2020-0188,2021-09-27,14:30:29,16:20:42,NA,incomplete,false,true,NA,6,7,size,m_l_028.jpg,right,small,large,NA,NA,NA,right,1502.80000007153,true,NA,NA,NA,NA,NA
YmtbJkIk,NA,NA,YmtbJkIk,2020-0188,2021-09-27,14:30:29,16:20:42,NA,incomplete,false,true,NA,6,8,size,n_s_003.jpg,right,large,small,NA,NA,NA,right,1531,true,NA,NA,NA,NA,NA
YmtbJkIk,NA,NA,YmtbJkIk,2020-0188,2021-09-27,14:30:29,16:20:42,NA,incomplete,false,true,NA,6,9,size,m_l_006.jpg,right,small,large,NA,NA,NA,right,1408.89999997616,true,NA,NA,NA,NA,NA
YmtbJkIk,NA,NA,YmtbJkIk,2020-0188,2021-09-27,14:30:29,16:20:42,NA,incomplete,false,true,NA,6,10,abstractness,c_1_002.jpg,left,concrete,abstract,NA,NA,NA,left,2333.89999997616,true,NA,NA,NA,NA,NA
YmtbJkIk,NA,NA,YmtbJkIk,2020-0188,2021-09-27,14:30:29,16:20:42,NA,incomplete,false,true,NA,6,11,abstractness,a_2_016.jpg,left,abstract,concrete,NA,NA,NA,left,2439.29999995232,true,NA,NA,NA,NA,NA
YmtbJkIk,NA,NA,YmtbJkIk,2020-0188,2021-09-27,14:30:29,16:20:42,NA,incomplete,false,true,NA,6,12,abstractness,a_1_004.jpg,left,abstract,concrete,NA,NA,NA,left,1212.19999992847,true,NA,NA,NA,NA,NA
YmtbJkIk,NA,NA,YmtbJkIk,2020-0188,2021-09-27,14:30:29,16:20:42,NA,incomplete,false,true,NA,6,13,abstractness,a_2_022.jpg,right,concrete,abstract,NA,NA,NA,left,1495.79999995232,false,NA,NA,NA,NA,NA
YmtbJkIk,NA,NA,YmtbJkIk,2020-0188,2021-09-27,14:30:29,16:20:42,NA,incomplete,false,true,NA,6,14,abstractness,c_2_022.jpg,right,abstract,concrete,NA,NA,NA,right,2027.69999992847,true,NA,NA,NA,NA,NA
YmtbJkIk,NA,NA,YmtbJkIk,2020-0188,2021-09-27,14:30:29,16:20:42,NA,incomplete,false,true,NA,6,15,syllable,a_2_007.jpg,right,2 syllables,1 syllable,NA,NA,NA,left,2507.89999997616,false,NA,NA,NA,NA,NA
YmtbJkIk,NA,NA,YmtbJkIk,2020-0188,2021-09-27,14:30:29,16:20:42,NA,incomplete,false,true,NA,6,16,syllable,c_1_016.jpg,right,1 syllable,2 syllables,NA,NA,NA,left,1867.20000004768,false,NA,NA,NA,NA,NA
YmtbJkIk,NA,NA,YmtbJkIk,2020-0188,2021-09-27,14:30:29,16:20:42,NA,incomplete,false,true,NA,6,17,syllable,c_1_019.jpg,right,1 syllable,2 syllables,NA,NA,NA,left,1826.5,false,NA,NA,NA,NA,NA
YmtbJkIk,NA,NA,YmtbJkIk,2020-0188,2021-09-27,14:30:29,16:20:42,NA,incomplete,false,true,NA,6,18,syllable,a_1_010.jpg,right,2 syllables,1 syllable,NA,NA,NA,right,2129.69999992847,true,NA,NA,NA,NA,NA
YmtbJkIk,NA,NA,YmtbJkIk,2020-0188,2021-09-27,14:30:29,16:20:42,NA,incomplete,false,true,NA,6,19,syllable,c_1_004.jpg,right,2 syllables,1 syllable,NA,NA,NA,right,1363.19999992847,true,NA,NA,NA,NA,NA
YmtbJkIk,NA,NA,YmtbJkIk,2020-0188,2021-09-27,14:30:29,16:20:42,NA,incomplete,false,true,NA,6,20,building,i_s_019.jpg,left,skyscraper,cottage,NA,NA,NA,none,0,false,NA,NA,NA,NA,NA
YmtbJkIk,NA,NA,YmtbJkIk,2020-0188,2021-09-27,14:30:29,16:20:42,NA,incomplete,false,true,NA,6,21,building,i_s_007.jpg,right,cottage,skyscraper,NA,NA,NA,left,687.899999976158,false,NA,NA,NA,NA,NA
YmtbJkIk,NA,NA,YmtbJkIk,2020-0188,2021-09-27,14:30:29,16:20:42,NA,incomplete,false,true,NA,6,22,building,i_c_017.jpg,left,cottage,skyscraper,NA,NA,NA,left,1287.89999997616,true,NA,NA,NA,NA,NA
YmtbJkIk,NA,NA,YmtbJkIk,2020-0188,2021-09-27,14:30:29,16:20:42,NA,incomplete,false,true,NA,6,23,building,o_c_015.jpg,left,cottage,skyscraper,NA,NA,NA,left,3074.10000002384,true,NA,NA,NA,NA,NA
YmtbJkIk,NA,NA,YmtbJkIk,2020-0188,2021-09-27,14:30:29,16:20:42,NA,incomplete,false,true,NA,6,24,building,i_s_006.jpg,left,skyscraper,cottage,NA,NA,NA,right,1801.09999990463,false,NA,NA,NA,NA,NA
YmtbJkIk,NA,NA,YmtbJkIk,2020-0188,2021-09-27,14:30:29,16:20:42,NA,incomplete,false,true,NA,6,25,location,i_c_003.jpg,right,outdoor,indoor,NA,NA,NA,right,3008.69999992847,true,NA,NA,NA,NA,NA
YmtbJkIk,NA,NA,YmtbJkIk,2020-0188,2021-09-27,14:30:29,16:20:42,NA,incomplete,false,true,NA,6,26,location,i_s_009.jpg,right,outdoor,indoor,NA,NA,NA,right,1623.5,true,NA,NA,NA,NA,NA
YmtbJkIk,NA,NA,YmtbJkIk,2020-0188,2021-09-27,14:30:29,16:20:42,NA,incomplete,false,true,NA,6,27,location,i_s_001.jpg,right,outdoor,indoor,NA,NA,NA,right,1490.60000002384,true,NA,NA,NA,NA,NA
YmtbJkIk,NA,NA,YmtbJkIk,2020-0188,2021-09-27,14:30:29,16:20:42,NA,incomplete,false,true,NA,6,28,location,i_s_011.jpg,right,outdoor,indoor,NA,NA,NA,right,2695.69999992847,true,NA,NA,NA,NA,NA
YmtbJkIk,NA,NA,YmtbJkIk,2020-0188,2021-09-27,14:30:29,16:20:42,NA,incomplete,false,true,NA,6,29,location,o_c_008.jpg,left,outdoor,indoor,NA,NA,NA,left,1931.40000009537,true,NA,NA,NA,NA,NA
YmtbJkIk,NA,NA,YmtbJkIk,2020-0188,2021-09-27,14:30:29,16:20:42,NA,incomplete,false,NA,true,6,0,NA,NA,right,NA,NA,m_l_006.jpg,n_s_024.jpg,within,NA,NaN,NA,right,6042,1,1,1039.6000000238419
YmtbJkIk,NA,NA,YmtbJkIk,2020-0188,2021-09-27,14:30:29,16:20:42,NA,incomplete,false,NA,true,6,1,NA,NA,right,NA,NA,i_s_001.jpg,i_s_006.jpg,between-small,NA,NaN,NA,left,2170.600000023842,0,1,2568.2999999523163
YmtbJkIk,NA,NA,YmtbJkIk,2020-0188,2021-09-27,14:30:29,16:20:42,NA,incomplete,false,NA,true,6,2,NA,NA,right,NA,NA,a_1_010.jpg,a_2_007.jpg,within,NA,NaN,NA,left,2648.8000000715256,0,0,962.9000000953674
YmtbJkIk,NA,NA,YmtbJkIk,2020-0188,2021-09-27,14:30:29,16:20:42,NA,incomplete,false,NA,true,6,3,NA,NA,left,NA,NA,i_c_003.jpg,i_s_011.jpg,within,NA,NaN,NA,left,2802,1,0,1168.7000000476837
YmtbJkIk,NA,NA,YmtbJkIk,2020-0188,2021-09-27,14:30:29,16:20:42,NA,incomplete,false,NA,true,6,4,NA,NA,right,NA,NA,i_s_007.jpg,a_1_010.jpg,between-big,NA,NaN,NA,left,1446.7000000476837,0,2,1605.8000000715256
YmtbJkIk,NA,NA,YmtbJkIk,2020-0188,2021-09-27,14:30:29,16:20:42,NA,incomplete,false,NA,true,6,5,NA,NA,left,NA,NA,i_s_019.jpg,o_c_015.jpg,within,NA,NaN,NA,left,4048.4000000953674,1,1,1589.5
YmtbJkIk,NA,NA,YmtbJkIk,2020-0188,2021-09-27,14:30:29,16:20:42,NA,incomplete,false,NA,true,6,6,NA,NA,right,NA,NA,i_c_017.jpg,c_1_004.jpg,between-big,NA,NaN,NA,left,2609.4000000953674,0,2,2680.2000000476837
YmtbJkIk,NA,NA,YmtbJkIk,2020-0188,2021-09-27,14:30:29,16:20:42,NA,incomplete,false,NA,true,6,7,NA,NA,right,NA,NA,i_c_003.jpg,i_c_017.jpg,between-small,NA,NaN,NA,right,3773.6999999284744,1,1,1348.2000000476837
YmtbJkIk,NA,NA,YmtbJkIk,2020-0188,2021-09-27,14:30:29,16:20:42,NA,incomplete,false,NA,true,6,8,NA,NA,right,NA,NA,n_s_020.jpg,m_s_022.jpg,between-small,NA,NaN,NA,left,1563.8999999761581,0,2,1495.5999999046326
YmtbJkIk,NA,NA,YmtbJkIk,2020-0188,2021-09-27,14:30:29,16:20:42,NA,incomplete,false,NA,true,6,9,NA,NA,left,NA,NA,n_s_023.jpg,n_l_022.jpg,within,NA,NaN,NA,left,2354,1,0,1281.2000000476837
YmtbJkIk,NA,NA,YmtbJkIk,2020-0188,2021-09-27,14:30:29,16:20:42,NA,incomplete,false,NA,true,6,10,NA,NA,left,NA,NA,a_1_004.jpg,a_2_007.jpg,between-small,NA,NaN,NA,left,3458,1,2,1926.5
YmtbJkIk,NA,NA,YmtbJkIk,2020-0188,2021-09-27,14:30:29,16:20:42,NA,incomplete,false,NA,true,6,11,NA,NA,right,NA,NA,a_1_004.jpg,m_l_006.jpg,between-big,NA,NaN,NA,right,1176.2999999523163,1,3,1977.6000000238419
YmtbJkIk,NA,NA,YmtbJkIk,2020-0188,2021-09-27,14:30:29,16:20:42,NA,incomplete,false,NA,true,6,12,NA,NA,right,NA,NA,c_1_004.jpg,c_1_016.jpg,within,NA,NaN,NA,left,4374.899999976158,0,2,2024.2000000476837
YmtbJkIk,NA,NA,YmtbJkIk,2020-0188,2021-09-27,14:30:29,16:20:42,NA,incomplete,false,NA,true,6,13,NA,NA,left,NA,NA,m_s_027.jpg,n_s_024.jpg,between-small,NA,NaN,NA,left,4322.699999928474,1,1,1104.5
YmtbJkIk,NA,NA,YmtbJkIk,2020-0188,2021-09-27,14:30:29,16:20:42,NA,incomplete,false,NA,true,6,14,NA,NA,left,NA,NA,a_2_016.jpg,c_2_022.jpg,within,NA,NaN,NA,left,12120.5,1,0,2176.2000000476837
YmtbJkIk,NA,NA,YmtbJkIk,2020-0188,2021-09-27,14:30:29,16:20:42,NA,incomplete,false,NA,true,6,15,NA,NA,right,NA,NA,c_1_019.jpg,c_2_022.jpg,between-small,NA,NaN,NA,left,27514.5,0,2,2785
YmtbJkIk,NA,NA,YmtbJkIk,2020-0188,2021-09-27,14:30:29,16:20:42,NA,incomplete,false,NA,true,6,16,NA,NA,left,NA,NA,i_s_009.jpg,o_c_008.jpg,within,NA,NaN,NA,left,2414.6999999284744,1,1,880.1000000238419
YmtbJkIk,NA,NA,YmtbJkIk,2020-0188,2021-09-27,14:30:29,16:20:42,NA,incomplete,false,NA,true,6,17,NA,NA,right,NA,NA,m_l_028.jpg,n_l_022.jpg,between-small,NA,NaN,NA,right,2632,1,2,1442.8999999761581
YmtbJkIk,NA,NA,YmtbJkIk,2020-0188,2021-09-27,14:30:29,16:20:42,NA,incomplete,false,NA,true,6,18,NA,NA,right,NA,NA,c_1_016.jpg,a_2_022.jpg,between-small,NA,NaN,NA,right,3511.3000000715256,1,2,2368.5
YmtbJkIk,NA,NA,YmtbJkIk,2020-0188,2021-09-27,14:30:29,16:20:42,NA,incomplete,false,NA,true,6,19,NA,NA,left,NA,NA,o_c_015.jpg,i_s_009.jpg,between-small,NA,NaN,NA,right,4270.100000023842,0,1,985.5999999046326
YmtbJkIk,NA,NA,YmtbJkIk,2020-0188,2021-09-27,14:30:29,16:20:42,NA,incomplete,false,NA,true,6,20,NA,NA,left,NA,NA,m_l_017.jpg,m_s_027.jpg,within,NA,NaN,NA,left,4911.399999976158,1,0,1226
YmtbJkIk,NA,NA,YmtbJkIk,2020-0188,2021-09-27,14:30:29,16:20:42,NA,incomplete,false,NA,true,6,21,NA,NA,left,NA,NA,i_s_007.jpg,i_s_006.jpg,within,NA,NaN,NA,left,4290.299999952316,1,1,1244.8999999761581
YmtbJkIk,NA,NA,YmtbJkIk,2020-0188,2021-09-27,14:30:29,16:20:42,NA,incomplete,false,NA,true,6,22,NA,NA,right,NA,NA,c_1_002.jpg,m_l_028.jpg,between-big,NA,NaN,NA,right,7551.399999976158,1,1,1865.8999999761581
YmtbJkIk,NA,NA,YmtbJkIk,2020-0188,2021-09-27,14:30:29,16:20:42,NA,incomplete,false,NA,true,6,23,NA,NA,left,NA,NA,c_1_002.jpg,a_2_022.jpg,within,NA,NaN,NA,right,2327.5,0,1,3289.0999999046326
YmtbJkIk,NA,NA,YmtbJkIk,2020-0188,2021-09-27,14:30:29,16:20:42,NA,incomplete,false,NA,true,6,24,NA,NA,right,NA,NA,i_s_019.jpg,c_1_019.jpg,between-big,NA,NaN,NA,left,2325.399999976158,0,2,1342.1999999284744
YmtbJkIk,NA,NA,YmtbJkIk,2020-0188,2021-09-27,14:30:29,16:20:42,NA,incomplete,false,NA,true,6,25,NA,NA,left,NA,NA,n_s_003.jpg,a_2_016.jpg,between-big,NA,NaN,NA,left,2932.899999976158,1,3,2876.6999999284744
YmtbJkIk,NA,NA,YmtbJkIk,2020-0188,2021-09-27,14:30:29,16:20:42,NA,incomplete,false,NA,true,6,26,NA,NA,right,NA,NA,n_s_003.jpg,n_s_020.jpg,within,NA,NaN,NA,right,2338,1,1,2785.6999999284744
YmtbJkIk,NA,NA,YmtbJkIk,2020-0188,2021-09-27,14:30:29,16:20:42,NA,incomplete,false,true,NA,7,0,location,i_c_026.jpg,right,outdoor,indoor,NA,NA,NA,right,3209.19999992847,true,NA,NA,NA,NA,NA
YmtbJkIk,NA,NA,YmtbJkIk,2020-0188,2021-09-27,14:30:29,16:20:42,NA,incomplete,false,true,NA,7,1,location,i_c_021.jpg,left,indoor,outdoor,NA,NA,NA,left,2109.80000007153,true,NA,NA,NA,NA,NA
YmtbJkIk,NA,NA,YmtbJkIk,2020-0188,2021-09-27,14:30:29,16:20:42,NA,incomplete,false,true,NA,7,2,location,o_s_017.jpg,right,indoor,outdoor,NA,NA,NA,right,1115.10000002384,true,NA,NA,NA,NA,NA
YmtbJkIk,NA,NA,YmtbJkIk,2020-0188,2021-09-27,14:30:29,16:20:42,NA,incomplete,false,true,NA,7,3,location,o_s_018.jpg,left,outdoor,indoor,NA,NA,NA,left,1345.89999997616,true,NA,NA,NA,NA,NA
YmtbJkIk,NA,NA,YmtbJkIk,2020-0188,2021-09-27,14:30:29,16:20:42,NA,incomplete,false,true,NA,7,4,location,o_s_028.jpg,right,indoor,outdoor,NA,NA,NA,right,1824.60000002384,true,NA,NA,NA,NA,NA
YmtbJkIk,NA,NA,YmtbJkIk,2020-0188,2021-09-27,14:30:29,16:20:42,NA,incomplete,false,true,NA,7,5,building,o_c_028.jpg,right,skyscraper,cottage,NA,NA,NA,right,1226.09999990463,true,NA,NA,NA,NA,NA
YmtbJkIk,NA,NA,YmtbJkIk,2020-0188,2021-09-27,14:30:29,16:20:42,NA,incomplete,false,true,NA,7,6,building,i_c_014.jpg,right,skyscraper,cottage,NA,NA,NA,right,1544.29999995232,true,NA,NA,NA,NA,NA
YmtbJkIk,NA,NA,YmtbJkIk,2020-0188,2021-09-27,14:30:29,16:20:42,NA,incomplete,false,true,NA,7,7,building,i_c_002.jpg,right,skyscraper,cottage,NA,NA,NA,right,2359.5,true,NA,NA,NA,NA,NA
YmtbJkIk,NA,NA,YmtbJkIk,2020-0188,2021-09-27,14:30:29,16:20:42,NA,incomplete,false,true,NA,7,8,building,o_c_004.jpg,left,cottage,skyscraper,NA,NA,NA,left,1951.19999992847,true,NA,NA,NA,NA,NA
YmtbJkIk,NA,NA,YmtbJkIk,2020-0188,2021-09-27,14:30:29,16:20:42,NA,incomplete,false,true,NA,7,9,building,i_s_014.jpg,left,skyscraper,cottage,NA,NA,NA,left,1836,true,NA,NA,NA,NA,NA
YmtbJkIk,NA,NA,YmtbJkIk,2020-0188,2021-09-27,14:30:29,16:20:42,NA,incomplete,false,true,NA,7,10,abstractness,c_1_020.jpg,left,concrete,abstract,NA,NA,NA,left,2628.60000002384,true,NA,NA,NA,NA,NA
YmtbJkIk,NA,NA,YmtbJkIk,2020-0188,2021-09-27,14:30:29,16:20:42,NA,incomplete,false,true,NA,7,11,abstractness,c_1_022.jpg,left,concrete,abstract,NA,NA,NA,right,3231.60000002384,false,NA,NA,NA,NA,NA
YmtbJkIk,NA,NA,YmtbJkIk,2020-0188,2021-09-27,14:30:29,16:20:42,NA,incomplete,false,true,NA,7,12,abstractness,c_2_007.jpg,left,concrete,abstract,NA,NA,NA,left,1731,true,NA,NA,NA,NA,NA
YmtbJkIk,NA,NA,YmtbJkIk,2020-0188,2021-09-27,14:30:29,16:20:42,NA,incomplete,false,true,NA,7,13,abstractness,c_2_017.jpg,right,abstract,concrete,NA,NA,NA,right,1527.19999992847,true,NA,NA,NA,NA,NA
YmtbJkIk,NA,NA,YmtbJkIk,2020-0188,2021-09-27,14:30:29,16:20:42,NA,incomplete,false,true,NA,7,14,abstractness,a_1_006.jpg,left,abstract,concrete,NA,NA,NA,left,1906.19999992847,true,NA,NA,NA,NA,NA
YmtbJkIk,NA,NA,YmtbJkIk,2020-0188,2021-09-27,14:30:29,16:20:42,NA,incomplete,false,true,NA,7,15,syllable,a_1_021.jpg,right,1 syllable,2 syllables,NA,NA,NA,left,2825.5,false,NA,NA,NA,NA,NA
YmtbJkIk,NA,NA,YmtbJkIk,2020-0188,2021-09-27,14:30:29,16:20:42,NA,incomplete,false,true,NA,7,16,syllable,a_2_018.jpg,right,2 syllables,1 syllable,NA,NA,NA,left,2456.89999997616,false,NA,NA,NA,NA,NA
YmtbJkIk,NA,NA,YmtbJkIk,2020-0188,2021-09-27,14:30:29,16:20:42,NA,incomplete,false,true,NA,7,17,syllable,c_2_027.jpg,right,1 syllable,2 syllables,NA,NA,NA,right,1654.19999992847,true,NA,NA,NA,NA,NA
YmtbJkIk,NA,NA,YmtbJkIk,2020-0188,2021-09-27,14:30:29,16:20:42,NA,incomplete,false,true,NA,7,18,syllable,a_1_023.jpg,right,1 syllable,2 syllables,NA,NA,NA,left,2130.19999992847,false,NA,NA,NA,NA,NA
YmtbJkIk,NA,NA,YmtbJkIk,2020-0188,2021-09-27,14:30:29,16:20:42,NA,incomplete,false,true,NA,7,19,syllable,a_1_016.jpg,right,1 syllable,2 syllables,NA,NA,NA,left,1696.70000004768,false,NA,NA,NA,NA,NA
YmtbJkIk,NA,NA,YmtbJkIk,2020-0188,2021-09-27,14:30:29,16:20:42,NA,incomplete,false,true,NA,7,20,size,n_s_006.jpg,right,large,small,NA,NA,NA,right,1684.60000002384,true,NA,NA,NA,NA,NA
YmtbJkIk,NA,NA,YmtbJkIk,2020-0188,2021-09-27,14:30:29,16:20:42,NA,incomplete,false,true,NA,7,21,size,m_l_020.jpg,right,small,large,NA,NA,NA,right,2589.20000004768,true,NA,NA,NA,NA,NA
YmtbJkIk,NA,NA,YmtbJkIk,2020-0188,2021-09-27,14:30:29,16:20:42,NA,incomplete,false,true,NA,7,22,size,n_s_012.jpg,right,large,small,NA,NA,NA,right,1424.5,true,NA,NA,NA,NA,NA
YmtbJkIk,NA,NA,YmtbJkIk,2020-0188,2021-09-27,14:30:29,16:20:42,NA,incomplete,false,true,NA,7,23,size,n_s_022.jpg,left,small,large,NA,NA,NA,left,2044.39999997616,true,NA,NA,NA,NA,NA
YmtbJkIk,NA,NA,YmtbJkIk,2020-0188,2021-09-27,14:30:29,16:20:42,NA,incomplete,false,true,NA,7,24,size,m_l_019.jpg,left,large,small,NA,NA,NA,left,2940,true,NA,NA,NA,NA,NA
YmtbJkIk,NA,NA,YmtbJkIk,2020-0188,2021-09-27,14:30:29,16:20:42,NA,incomplete,false,true,NA,7,25,origin,n_s_016.jpg,left,natural,manmade,NA,NA,NA,left,2459.20000004768,true,NA,NA,NA,NA,NA
YmtbJkIk,NA,NA,YmtbJkIk,2020-0188,2021-09-27,14:30:29,16:20:42,NA,incomplete,false,true,NA,7,26,origin,m_l_009.jpg,left,manmade,natural,NA,NA,NA,left,1984.59999990463,true,NA,NA,NA,NA,NA
YmtbJkIk,NA,NA,YmtbJkIk,2020-0188,2021-09-27,14:30:29,16:20:42,NA,incomplete,false,true,NA,7,27,origin,m_l_027.jpg,right,natural,manmade,NA,NA,NA,right,1605.5,true,NA,NA,NA,NA,NA
YmtbJkIk,NA,NA,YmtbJkIk,2020-0188,2021-09-27,14:30:29,16:20:42,NA,incomplete,false,true,NA,7,28,origin,n_l_020.jpg,left,natural,manmade,NA,NA,NA,left,1588.5,true,NA,NA,NA,NA,NA
YmtbJkIk,NA,NA,YmtbJkIk,2020-0188,2021-09-27,14:30:29,16:20:42,NA,incomplete,false,true,NA,7,29,origin,m_s_009.jpg,right,natural,manmade,NA,NA,NA,right,1748.60000002384,true,NA,NA,NA,NA,NA
YmtbJkIk,NA,NA,YmtbJkIk,2020-0188,2021-09-27,14:30:29,16:20:42,NA,incomplete,false,NA,true,7,0,NA,NA,right,NA,NA,o_s_018.jpg,i_c_026.jpg,within,NA,NaN,NA,left,8494.700000047684,0,1,991.8000000715256
YmtbJkIk,NA,NA,YmtbJkIk,2020-0188,2021-09-27,14:30:29,16:20:42,NA,incomplete,false,NA,true,7,1,NA,NA,left,NA,NA,m_l_020.jpg,m_l_019.jpg,within,NA,NaN,NA,left,1656.3999999761581,1,0,1246.6999999284744
YmtbJkIk,NA,NA,YmtbJkIk,2020-0188,2021-09-27,14:30:29,16:20:42,NA,incomplete,false,NA,true,7,2,NA,NA,right,NA,NA,i_c_014.jpg,o_s_018.jpg,between-small,NA,NaN,NA,right,2028.6000000238419,1,1,1226.2000000476837
YmtbJkIk,NA,NA,YmtbJkIk,2020-0188,2021-09-27,14:30:29,16:20:42,NA,incomplete,false,NA,true,7,3,NA,NA,right,NA,NA,i_c_002.jpg,o_s_028.jpg,between-small,NA,NaN,NA,right,3761.1999999284744,1,1,1112
YmtbJkIk,NA,NA,YmtbJkIk,2020-0188,2021-09-27,14:30:29,16:20:42,NA,incomplete,false,NA,true,7,4,NA,NA,right,NA,NA,a_1_016.jpg,a_2_018.jpg,within,NA,NaN,NA,right,3877.899999976158,1,0,2453.7999999523163
YmtbJkIk,NA,NA,YmtbJkIk,2020-0188,2021-09-27,14:30:29,16:20:42,NA,incomplete,false,NA,true,7,5,NA,NA,left,NA,NA,a_1_021.jpg,a_1_023.jpg,within,NA,NaN,NA,left,5639.5,1,1,1452.5999999046326
YmtbJkIk,NA,NA,YmtbJkIk,2020-0188,2021-09-27,14:30:29,16:20:42,NA,incomplete,false,NA,true,7,6,NA,NA,left,NA,NA,c_2_027.jpg,n_s_006.jpg,between-big,NA,NaN,NA,left,6957.399999976158,1,2,1620.3999999761581
YmtbJkIk,NA,NA,YmtbJkIk,2020-0188,2021-09-27,14:30:29,16:20:42,NA,incomplete,false,NA,true,7,7,NA,NA,right,NA,NA,o_s_028.jpg,i_c_021.jpg,within,NA,NaN,NA,left,1665.3999999761581,0,1,2796.7000000476837
YmtbJkIk,NA,NA,YmtbJkIk,2020-0188,2021-09-27,14:30:29,16:20:42,NA,incomplete,false,NA,true,7,8,NA,NA,left,NA,NA,o_c_028.jpg,o_c_004.jpg,within,NA,NaN,NA,left,17042.300000071526,1,1,2844.0999999046326
YmtbJkIk,NA,NA,YmtbJkIk,2020-0188,2021-09-27,14:30:29,16:20:42,NA,incomplete,false,NA,true,7,9,NA,NA,left,NA,NA,o_s_017.jpg,o_c_028.jpg,between-small,NA,NaN,NA,left,5675.899999976158,1,1,2927.5
YmtbJkIk,NA,NA,YmtbJkIk,2020-0188,2021-09-27,14:30:29,16:20:42,NA,incomplete,false,NA,true,7,10,NA,NA,left,NA,NA,n_s_012.jpg,n_s_016.jpg,between-small,NA,NaN,NA,left,2107.2999999523163,1,2,3435.600000023842
YmtbJkIk,NA,NA,YmtbJkIk,2020-0188,2021-09-27,14:30:29,16:20:42,NA,incomplete,false,NA,true,7,11,NA,NA,right,NA,NA,c_2_027.jpg,a_1_006.jpg,between-small,NA,NaN,NA,right,15142.199999928474,1,1,4288.200000047684
YmtbJkIk,NA,NA,YmtbJkIk,2020-0188,2021-09-27,14:30:29,16:20:42,NA,incomplete,false,NA,true,7,12,NA,NA,right,NA,NA,a_1_006.jpg,c_1_022.jpg,within,NA,NaN,NA,left,1993.8000000715256,0,0,4693.100000023842
YmtbJkIk,NA,NA,YmtbJkIk,2020-0188,2021-09-27,14:30:29,16:20:42,NA,incomplete,false,NA,true,7,13,NA,NA,right,NA,NA,n_s_012.jpg,a_1_016.jpg,between-big,NA,NaN,NA,left,4272.100000023842,0,1,3150.899999976158
YmtbJkIk,NA,NA,YmtbJkIk,2020-0188,2021-09-27,14:30:29,16:20:42,NA,incomplete,false,NA,true,7,14,NA,NA,right,NA,NA,i_s_014.jpg,i_c_014.jpg,within,NA,NaN,NA,right,5772.899999976158,1,1,2922.2000000476837
YmtbJkIk,NA,NA,YmtbJkIk,2020-0188,2021-09-27,14:30:29,16:20:42,NA,incomplete,false,NA,true,7,15,NA,NA,left,NA,NA,c_2_007.jpg,a_1_021.jpg,between-small,NA,NaN,NA,right,2061.600000023842,0,1,2990.2999999523163
YmtbJkIk,NA,NA,YmtbJkIk,2020-0188,2021-09-27,14:30:29,16:20:42,NA,incomplete,false,NA,true,7,16,NA,NA,left,NA,NA,n_s_016.jpg,n_l_020.jpg,within,NA,NaN,NA,left,1585.6000000238419,1,0,1340.0999999046326
YmtbJkIk,NA,NA,YmtbJkIk,2020-0188,2021-09-27,14:30:29,16:20:42,NA,incomplete,false,NA,true,7,17,NA,NA,left,NA,NA,c_1_020.jpg,c_2_017.jpg,within,NA,NaN,NA,left,4428.299999952316,1,2,2284.0999999046326
YmtbJkIk,NA,NA,YmtbJkIk,2020-0188,2021-09-27,14:30:29,16:20:42,NA,incomplete,false,NA,true,7,18,NA,NA,right,NA,NA,m_l_020.jpg,a_1_023.jpg,between-big,NA,NaN,NA,left,1677.8999999761581,0,2,3338.6999999284744
YmtbJkIk,NA,NA,YmtbJkIk,2020-0188,2021-09-27,14:30:29,16:20:42,NA,incomplete,false,NA,true,7,19,NA,NA,left,NA,NA,i_c_002.jpg,c_1_020.jpg,between-big,NA,NaN,NA,left,3418.899999976158,1,3,3353.2000000476837
YmtbJkIk,NA,NA,YmtbJkIk,2020-0188,2021-09-27,14:30:29,16:20:42,NA,incomplete,false,NA,true,7,20,NA,NA,left,NA,NA,m_l_009.jpg,m_s_009.jpg,within,NA,NaN,NA,left,3541.5,1,0,1217.1999999284744
YmtbJkIk,NA,NA,YmtbJkIk,2020-0188,2021-09-27,14:30:29,16:20:42,NA,incomplete,false,NA,true,7,21,NA,NA,left,NA,NA,i_s_014.jpg,c_2_007.jpg,between-big,NA,NaN,NA,left,1855.6000000238419,1,1,1504.1999999284744
YmtbJkIk,NA,NA,YmtbJkIk,2020-0188,2021-09-27,14:30:29,16:20:42,NA,incomplete,false,NA,true,7,22,NA,NA,right,NA,NA,c_1_022.jpg,o_c_004.jpg,between-big,NA,NaN,NA,right,1545.7999999523163,1,2,1229.5
YmtbJkIk,NA,NA,YmtbJkIk,2020-0188,2021-09-27,14:30:29,16:20:42,NA,incomplete,false,NA,true,7,23,NA,NA,left,NA,NA,m_l_019.jpg,m_l_027.jpg,between-small,NA,NaN,NA,right,3982.100000023842,0,2,2322.100000023842
YmtbJkIk,NA,NA,YmtbJkIk,2020-0188,2021-09-27,14:30:29,16:20:42,NA,incomplete,false,NA,true,7,24,NA,NA,right,NA,NA,a_2_018.jpg,c_2_017.jpg,between-small,NA,NaN,NA,left,5759.100000023842,0,1,3501
YmtbJkIk,NA,NA,YmtbJkIk,2020-0188,2021-09-27,14:30:29,16:20:42,NA,incomplete,false,NA,true,7,25,NA,NA,right,NA,NA,n_s_022.jpg,n_s_006.jpg,within,NA,NaN,NA,left,1200.3999999761581,0,1,4707
YmtbJkIk,NA,NA,YmtbJkIk,2020-0188,2021-09-27,14:30:29,16:20:42,NA,incomplete,false,NA,true,7,26,NA,NA,right,NA,NA,m_l_009.jpg,n_s_022.jpg,between-small,NA,NaN,NA,right,3164,1,2,2287.5
YmtbJkIk,NA,NA,YmtbJkIk,2020-0188,2021-09-27,14:30:29,16:20:42,NA,incomplete,false,true,NA,8,0,origin,n_l_025.jpg,left,natural,manmade,NA,NA,NA,left,1570.89999997616,true,NA,NA,NA,NA,NA
YmtbJkIk,NA,NA,YmtbJkIk,2020-0188,2021-09-27,14:30:29,16:20:42,NA,incomplete,false,true,NA,8,1,origin,m_l_008.jpg,left,manmade,natural,NA,NA,NA,left,2429.39999997616,true,NA,NA,NA,NA,NA
YmtbJkIk,NA,NA,YmtbJkIk,2020-0188,2021-09-27,14:30:29,16:20:42,NA,incomplete,false,true,NA,8,2,origin,n_s_018.jpg,right,manmade,natural,NA,NA,NA,right,2008.39999997616,true,NA,NA,NA,NA,NA
YmtbJkIk,NA,NA,YmtbJkIk,2020-0188,2021-09-27,14:30:29,16:20:42,NA,incomplete,false,true,NA,8,3,origin,m_s_028.jpg,left,manmade,natural,NA,NA,NA,left,2467.29999995232,true,NA,NA,NA,NA,NA
YmtbJkIk,NA,NA,YmtbJkIk,2020-0188,2021-09-27,14:30:29,16:20:42,NA,incomplete,false,true,NA,8,4,origin,n_s_014.jpg,right,manmade,natural,NA,NA,NA,right,1764.89999997616,true,NA,NA,NA,NA,NA
YmtbJkIk,NA,NA,YmtbJkIk,2020-0188,2021-09-27,14:30:29,16:20:42,NA,incomplete,false,true,NA,8,5,size,m_l_018.jpg,left,large,small,NA,NA,NA,left,1841.30000007153,true,NA,NA,NA,NA,NA
YmtbJkIk,NA,NA,YmtbJkIk,2020-0188,2021-09-27,14:30:29,16:20:42,NA,incomplete,false,true,NA,8,6,size,n_l_017.jpg,right,small,large,NA,NA,NA,right,1661.89999997616,true,NA,NA,NA,NA,NA
YmtbJkIk,NA,NA,YmtbJkIk,2020-0188,2021-09-27,14:30:29,16:20:42,NA,incomplete,false,true,NA,8,7,size,n_l_002.jpg,left,large,small,NA,NA,NA,left,1624.20000004768,true,NA,NA,NA,NA,NA
YmtbJkIk,NA,NA,YmtbJkIk,2020-0188,2021-09-27,14:30:29,16:20:42,NA,incomplete,false,true,NA,8,8,size,n_s_004.jpg,right,large,small,NA,NA,NA,right,1083.10000002384,true,NA,NA,NA,NA,NA
YmtbJkIk,NA,NA,YmtbJkIk,2020-0188,2021-09-27,14:30:29,16:20:42,NA,incomplete,false,true,NA,8,9,size,n_l_023.jpg,right,small,large,NA,NA,NA,right,1960.29999995232,true,NA,NA,NA,NA,NA
YmtbJkIk,NA,NA,YmtbJkIk,2020-0188,2021-09-27,14:30:29,16:20:42,NA,incomplete,false,true,NA,8,10,syllable,a_2_010.jpg,right,1 syllable,2 syllables,NA,NA,NA,right,2343.60000002384,true,NA,NA,NA,NA,NA
YmtbJkIk,NA,NA,YmtbJkIk,2020-0188,2021-09-27,14:30:29,16:20:42,NA,incomplete,false,true,NA,8,11,syllable,a_2_020.jpg,right,2 syllables,1 syllable,NA,NA,NA,left,2024.5,false,NA,NA,NA,NA,NA
YmtbJkIk,NA,NA,YmtbJkIk,2020-0188,2021-09-27,14:30:29,16:20:42,NA,incomplete,false,true,NA,8,12,syllable,c_2_015.jpg,right,1 syllable,2 syllables,NA,NA,NA,right,1472.5,true,NA,NA,NA,NA,NA
YmtbJkIk,NA,NA,YmtbJkIk,2020-0188,2021-09-27,14:30:29,16:20:42,NA,incomplete,false,true,NA,8,13,syllable,a_1_009.jpg,right,2 syllables,1 syllable,NA,NA,NA,right,1888.79999995232,true,NA,NA,NA,NA,NA
YmtbJkIk,NA,NA,YmtbJkIk,2020-0188,2021-09-27,14:30:29,16:20:42,NA,incomplete,false,true,NA,8,14,syllable,c_2_019.jpg,right,2 syllables,1 syllable,NA,NA,NA,left,1233.70000004768,false,NA,NA,NA,NA,NA
YmtbJkIk,NA,NA,YmtbJkIk,2020-0188,2021-09-27,14:30:29,16:20:42,NA,incomplete,false,true,NA,8,15,abstractness,a_1_005.jpg,left,abstract,concrete,NA,NA,NA,left,1997.5,true,NA,NA,NA,NA,NA
YmtbJkIk,NA,NA,YmtbJkIk,2020-0188,2021-09-27,14:30:29,16:20:42,NA,incomplete,false,true,NA,8,16,abstractness,c_2_003.jpg,right,abstract,concrete,NA,NA,NA,right,2808.69999992847,true,NA,NA,NA,NA,NA
YmtbJkIk,NA,NA,YmtbJkIk,2020-0188,2021-09-27,14:30:29,16:20:42,NA,incomplete,false,true,NA,8,17,abstractness,c_1_003.jpg,left,concrete,abstract,NA,NA,NA,none,0,false,NA,NA,NA,NA,NA
YmtbJkIk,NA,NA,YmtbJkIk,2020-0188,2021-09-27,14:30:29,16:20:42,NA,incomplete,false,true,NA,8,18,abstractness,c_2_016.jpg,left,concrete,abstract,NA,NA,NA,none,0,false,NA,NA,NA,NA,NA
YmtbJkIk,NA,NA,YmtbJkIk,2020-0188,2021-09-27,14:30:29,16:20:42,NA,incomplete,false,true,NA,8,19,abstractness,c_1_014.jpg,right,abstract,concrete,NA,NA,NA,none,0,false,NA,NA,NA,NA,NA
YmtbJkIk,NA,NA,YmtbJkIk,2020-0188,2021-09-27,14:30:29,16:20:42,NA,incomplete,false,true,NA,8,20,building,i_c_028.jpg,left,cottage,skyscraper,NA,NA,NA,left,1876.70000004768,true,NA,NA,NA,NA,NA
YmtbJkIk,NA,NA,YmtbJkIk,2020-0188,2021-09-27,14:30:29,16:20:42,NA,incomplete,false,true,NA,8,21,building,i_s_020.jpg,left,skyscraper,cottage,NA,NA,NA,left,1381.80000007153,true,NA,NA,NA,NA,NA
YmtbJkIk,NA,NA,YmtbJkIk,2020-0188,2021-09-27,14:30:29,16:20:42,NA,incomplete,false,true,NA,8,22,building,i_c_024.jpg,left,cottage,skyscraper,NA,NA,NA,left,1639.5,true,NA,NA,NA,NA,NA
YmtbJkIk,NA,NA,YmtbJkIk,2020-0188,2021-09-27,14:30:29,16:20:42,NA,incomplete,false,true,NA,8,23,building,i_c_015.jpg,left,cottage,skyscraper,NA,NA,NA,left,1394.70000004768,true,NA,NA,NA,NA,NA
YmtbJkIk,NA,NA,YmtbJkIk,2020-0188,2021-09-27,14:30:29,16:20:42,NA,incomplete,false,true,NA,8,24,building,o_s_001.jpg,right,cottage,skyscraper,NA,NA,NA,right,1834.20000004768,true,NA,NA,NA,NA,NA
YmtbJkIk,NA,NA,YmtbJkIk,2020-0188,2021-09-27,14:30:29,16:20:42,NA,incomplete,false,true,NA,8,25,location,o_s_027.jpg,left,outdoor,indoor,NA,NA,NA,left,1919.70000004768,true,NA,NA,NA,NA,NA
YmtbJkIk,NA,NA,YmtbJkIk,2020-0188,2021-09-27,14:30:29,16:20:42,NA,incomplete,false,true,NA,8,26,location,i_s_026.jpg,left,indoor,outdoor,NA,NA,NA,left,2716,true,NA,NA,NA,NA,NA
YmtbJkIk,NA,NA,YmtbJkIk,2020-0188,2021-09-27,14:30:29,16:20:42,NA,incomplete,false,true,NA,8,27,location,o_c_022.jpg,right,indoor,outdoor,NA,NA,NA,right,1831.39999997616,true,NA,NA,NA,NA,NA
YmtbJkIk,NA,NA,YmtbJkIk,2020-0188,2021-09-27,14:30:29,16:20:42,NA,incomplete,false,true,NA,8,28,location,o_s_020.jpg,left,outdoor,indoor,NA,NA,NA,left,2165.30000007153,true,NA,NA,NA,NA,NA
YmtbJkIk,NA,NA,YmtbJkIk,2020-0188,2021-09-27,14:30:29,16:20:42,NA,incomplete,false,true,NA,8,29,location,o_c_013.jpg,right,indoor,outdoor,NA,NA,NA,right,2157.89999997616,true,NA,NA,NA,NA,NA
YmtbJkIk,NA,NA,YmtbJkIk,2020-0188,2021-09-27,14:30:29,16:20:42,NA,incomplete,false,NA,true,8,0,NA,NA,right,NA,NA,c_2_019.jpg,a_2_020.jpg,within,NA,NaN,NA,right,44956.300000071526,1,0,4246.5
YmtbJkIk,NA,NA,YmtbJkIk,2020-0188,2021-09-27,14:30:29,16:20:42,NA,incomplete,false,NA,true,8,1,NA,NA,right,NA,NA,i_c_028.jpg,c_1_003.jpg,between-big,NA,NaN,NA,right,158271.70000004768,1,2,2136.2999999523163
YmtbJkIk,NA,NA,YmtbJkIk,2020-0188,2021-09-27,14:30:29,16:20:42,NA,incomplete,false,NA,true,8,2,NA,NA,left,NA,NA,i_s_020.jpg,o_s_001.jpg,within,NA,NaN,NA,right,8199.699999928474,0,1,1889.2999999523163
YmtbJkIk,NA,NA,YmtbJkIk,2020-0188,2021-09-27,14:30:29,16:20:42,NA,incomplete,false,NA,true,8,3,NA,NA,left,NA,NA,m_l_008.jpg,n_s_014.jpg,within,NA,NaN,NA,left,6325.5,1,0,2093.399999976158
YmtbJkIk,NA,NA,YmtbJkIk,2020-0188,2021-09-27,14:30:29,16:20:42,NA,incomplete,false,NA,true,8,4,NA,NA,left,NA,NA,m_l_018.jpg,n_s_004.jpg,within,NA,NaN,NA,right,1938.1000000238419,0,1,1712.8999999761581
YmtbJkIk,NA,NA,YmtbJkIk,2020-0188,2021-09-27,14:30:29,16:20:42,NA,incomplete,false,NA,true,8,5,NA,NA,left,NA,NA,n_s_014.jpg,n_l_002.jpg,between-small,NA,NaN,NA,right,5836.200000047684,0,0,3683.7999999523163
YmtbJkIk,NA,NA,YmtbJkIk,2020-0188,2021-09-27,14:30:29,16:20:42,NA,incomplete,false,NA,true,8,6,NA,NA,right,NA,NA,a_2_020.jpg,n_s_004.jpg,between-big,NA,NaN,NA,right,6337.300000071526,1,1,3307.1999999284744
YmtbJkIk,NA,NA,YmtbJkIk,2020-0188,2021-09-27,14:30:29,16:20:42,NA,incomplete,false,NA,true,8,7,NA,NA,right,NA,NA,i_s_026.jpg,i_c_015.jpg,between-small,NA,NaN,NA,right,20862.799999952316,1,1,1881.4000000953674
YmtbJkIk,NA,NA,YmtbJkIk,2020-0188,2021-09-27,14:30:29,16:20:42,NA,incomplete,false,NA,true,8,8,NA,NA,right,NA,NA,m_s_028.jpg,n_l_025.jpg,within,NA,NaN,NA,left,1585.5,0,0,2112.3000000715256
YmtbJkIk,NA,NA,YmtbJkIk,2020-0188,2021-09-27,14:30:29,16:20:42,NA,incomplete,false,NA,true,8,9,NA,NA,right,NA,NA,i_s_020.jpg,c_2_016.jpg,between-big,NA,NaN,NA,left,2385.2999999523163,0,2,3881.100000023842
YmtbJkIk,NA,NA,YmtbJkIk,2020-0188,2021-09-27,14:30:29,16:20:42,NA,incomplete,false,NA,true,8,10,NA,NA,right,NA,NA,c_1_003.jpg,c_2_019.jpg,between-small,NA,NaN,NA,left,3034.399999976158,0,1,3013.3000000715256
YmtbJkIk,NA,NA,YmtbJkIk,2020-0188,2021-09-27,14:30:29,16:20:42,NA,incomplete,false,NA,true,8,11,NA,NA,right,NA,NA,n_l_017.jpg,m_s_028.jpg,between-small,NA,NaN,NA,left,1797.1000000238419,0,1,1680.2999999523163
YmtbJkIk,NA,NA,YmtbJkIk,2020-0188,2021-09-27,14:30:29,16:20:42,NA,incomplete,false,NA,true,8,12,NA,NA,right,NA,NA,i_c_015.jpg,i_c_028.jpg,within,NA,NaN,NA,left,2996,0,1,4116.299999952316
YmtbJkIk,NA,NA,YmtbJkIk,2020-0188,2021-09-27,14:30:29,16:20:42,NA,incomplete,false,NA,true,8,13,NA,NA,right,NA,NA,c_1_014.jpg,c_2_003.jpg,within,NA,NaN,NA,left,3338.2999999523163,0,1,3031.100000023842
YmtbJkIk,NA,NA,YmtbJkIk,2020-0188,2021-09-27,14:30:29,16:20:42,NA,incomplete,false,NA,true,8,14,NA,NA,right,NA,NA,c_2_015.jpg,n_l_023.jpg,between-big,NA,NaN,NA,right,2150.6999999284744,1,2,3264.600000023842
YmtbJkIk,NA,NA,YmtbJkIk,2020-0188,2021-09-27,14:30:29,16:20:42,NA,incomplete,false,NA,true,8,15,NA,NA,right,NA,NA,a_1_009.jpg,a_2_010.jpg,within,NA,NaN,NA,left,12066.799999952316,0,1,4109.600000023842
YmtbJkIk,NA,NA,YmtbJkIk,2020-0188,2021-09-27,14:30:29,16:20:42,NA,incomplete,false,NA,true,8,16,NA,NA,left,NA,NA,o_s_001.jpg,o_c_022.jpg,between-small,NA,NaN,NA,right,1877.8999999761581,0,1,1504.1999999284744
YmtbJkIk,NA,NA,YmtbJkIk,2020-0188,2021-09-27,14:30:29,16:20:42,NA,incomplete,false,NA,true,8,17,NA,NA,right,NA,NA,o_c_013.jpg,i_s_026.jpg,within,NA,NaN,NA,right,2327.7999999523163,1,1,1311.0999999046326
YmtbJkIk,NA,NA,YmtbJkIk,2020-0188,2021-09-27,14:30:29,16:20:42,NA,incomplete,false,NA,true,8,18,NA,NA,left,NA,NA,n_s_018.jpg,m_l_018.jpg,between-small,NA,NaN,NA,right,2299.399999976158,0,1,1867.8999999761581
YmtbJkIk,NA,NA,YmtbJkIk,2020-0188,2021-09-27,14:30:29,16:20:42,NA,incomplete,false,NA,true,8,19,NA,NA,left,NA,NA,a_1_005.jpg,c_2_016.jpg,within,NA,NaN,NA,right,18254.399999976158,0,2,2083.7000000476837
YmtbJkIk,NA,NA,YmtbJkIk,2020-0188,2021-09-27,14:30:29,16:20:42,NA,incomplete,false,NA,true,8,20,NA,NA,right,NA,NA,c_2_003.jpg,a_1_009.jpg,between-small,NA,NaN,NA,right,989,1,1,3269.2999999523163
YmtbJkIk,NA,NA,YmtbJkIk,2020-0188,2021-09-27,14:30:29,16:20:42,NA,incomplete,false,NA,true,8,21,NA,NA,right,NA,NA,o_s_027.jpg,i_c_024.jpg,between-small,NA,NaN,NA,left,20360.5,0,1,1681.6999999284744
YmtbJkIk,NA,NA,YmtbJkIk,2020-0188,2021-09-27,14:30:29,16:20:42,NA,incomplete,false,NA,true,8,22,NA,NA,left,NA,NA,c_1_014.jpg,i_c_024.jpg,between-big,NA,NaN,NA,left,51055.59999990463,1,2,36346.59999990463
YmtbJkIk,NA,NA,YmtbJkIk,2020-0188,2021-09-27,14:30:29,16:20:42,NA,incomplete,false,NA,true,8,23,NA,NA,right,NA,NA,a_2_010.jpg,n_l_002.jpg,between-big,NA,NaN,NA,left,1998.8000000715256,0,2,5323.100000023842
YmtbJkIk,NA,NA,YmtbJkIk,2020-0188,2021-09-27,14:30:29,16:20:42,NA,incomplete,false,NA,true,8,24,NA,NA,right,NA,NA,o_s_020.jpg,o_s_027.jpg,within,NA,NaN,NA,right,1026,1,2,1235
YmtbJkIk,NA,NA,YmtbJkIk,2020-0188,2021-09-27,14:30:29,16:20:42,NA,incomplete,false,NA,true,8,25,NA,NA,left,NA,NA,n_l_017.jpg,n_l_023.jpg,within,NA,NaN,NA,left,1723.5,1,2,1378.7000000476837
YmtbJkIk,NA,NA,YmtbJkIk,2020-0188,2021-09-27,14:30:29,16:20:42,NA,incomplete,false,NA,true,8,26,NA,NA,left,NA,NA,c_2_015.jpg,a_1_005.jpg,between-small,NA,NaN,NA,left,124179.59999990463,1,1,1614.6999999284744
YmtbJkIk,NA,NA,YmtbJkIk,2020-0188,2021-09-27,14:30:29,16:20:42,NA,incomplete,false,true,NA,9,0,building,i_s_028.jpg,right,cottage,skyscraper,NA,NA,NA,right,2006.29999995232,true,NA,NA,NA,NA,NA
