workerId,hitId,assignmentId,subject,studyid,exp_date,exp_start,exp_end,time_start,time_end,practice,encoding,memory,block,trial,event_order,event,stim,answer,context_type,label_left,label_right,left_image,left_event,right_image,right_event,condition,response,response_time,response_acc,order_response,order_response_time,order_acc,distance_response,distance_response_time
1BATCa5X,344m16ozllsw98pkhqhl4zt7rn1nev,3qapzx2qn8q3ggjre2pog6kxo9b02z,1BATCa5X,2020-0188,2021-10-15,12:54:35,13:59:59,NA,incomplete,true,true,NA,0,0,NA,orange,n_s_062.jpg,NA,NA,unpleasant,pleasant,NA,NA,NA,NA,NA,right,1746.90000000037,true,NA,NA,NA,NA,NA
1BATCa5X,344m16ozllsw98pkhqhl4zt7rn1nev,3qapzx2qn8q3ggjre2pog6kxo9b02z,1BATCa5X,2020-0188,2021-10-15,12:54:35,13:59:59,NA,incomplete,true,true,NA,0,1,NA,orange,m_l_025.jpg,NA,NA,pleasant,unpleasant,NA,NA,NA,NA,NA,right,1485.59999999963,true,NA,NA,NA,NA,NA
1BATCa5X,344m16ozllsw98pkhqhl4zt7rn1nev,3qapzx2qn8q3ggjre2pog6kxo9b02z,1BATCa5X,2020-0188,2021-10-15,12:54:35,13:59:59,NA,incomplete,true,true,NA,0,2,NA,orange,m_l_035.jpg,NA,NA,unpleasant,pleasant,NA,NA,NA,NA,NA,right,2085.40000000037,true,NA,NA,NA,NA,NA
1BATCa5X,344m16ozllsw98pkhqhl4zt7rn1nev,3qapzx2qn8q3ggjre2pog6kxo9b02z,1BATCa5X,2020-0188,2021-10-15,12:54:35,13:59:59,NA,incomplete,true,true,NA,0,3,NA,orange,m_s_027.jpg,NA,NA,pleasant,unpleasant,NA,NA,NA,NA,NA,right,1714.29999999888,true,NA,NA,NA,NA,NA
1BATCa5X,344m16ozllsw98pkhqhl4zt7rn1nev,3qapzx2qn8q3ggjre2pog6kxo9b02z,1BATCa5X,2020-0188,2021-10-15,12:54:35,13:59:59,NA,incomplete,true,true,NA,0,4,NA,orange,n_s_067.jpg,NA,NA,unpleasant,pleasant,NA,NA,NA,NA,NA,right,1608.5,true,NA,NA,NA,NA,NA
1BATCa5X,344m16ozllsw98pkhqhl4zt7rn1nev,3qapzx2qn8q3ggjre2pog6kxo9b02z,1BATCa5X,2020-0188,2021-10-15,12:54:35,13:59:59,NA,incomplete,true,true,NA,0,5,NA,orange,n_l_054.jpg,NA,NA,pleasant,unpleasant,NA,NA,NA,NA,NA,left,1687.30000000075,true,NA,NA,NA,NA,NA
1BATCa5X,344m16ozllsw98pkhqhl4zt7rn1nev,3qapzx2qn8q3ggjre2pog6kxo9b02z,1BATCa5X,2020-0188,2021-10-15,12:54:35,13:59:59,NA,incomplete,true,true,NA,0,6,NA,gray,n_s_087.jpg,NA,NA,unpleasant,pleasant,NA,NA,NA,NA,NA,right,1962.80000000075,true,NA,NA,NA,NA,NA
1BATCa5X,344m16ozllsw98pkhqhl4zt7rn1nev,3qapzx2qn8q3ggjre2pog6kxo9b02z,1BATCa5X,2020-0188,2021-10-15,12:54:35,13:59:59,NA,incomplete,true,true,NA,0,7,NA,gray,n_l_025.jpg,NA,NA,pleasant,unpleasant,NA,NA,NA,NA,NA,left,1781.20000000112,true,NA,NA,NA,NA,NA
1BATCa5X,344m16ozllsw98pkhqhl4zt7rn1nev,3qapzx2qn8q3ggjre2pog6kxo9b02z,1BATCa5X,2020-0188,2021-10-15,12:54:35,13:59:59,NA,incomplete,true,true,NA,0,8,NA,gray,m_l_038.jpg,NA,NA,pleasant,unpleasant,NA,NA,NA,NA,NA,right,1631.79999999888,true,NA,NA,NA,NA,NA
1BATCa5X,344m16ozllsw98pkhqhl4zt7rn1nev,3qapzx2qn8q3ggjre2pog6kxo9b02z,1BATCa5X,2020-0188,2021-10-15,12:54:35,13:59:59,NA,incomplete,true,true,NA,0,9,NA,gray,n_l_082.jpg,NA,NA,unpleasant,pleasant,NA,NA,NA,NA,NA,right,1842.40000000037,true,NA,NA,NA,NA,NA
1BATCa5X,344m16ozllsw98pkhqhl4zt7rn1nev,3qapzx2qn8q3ggjre2pog6kxo9b02z,1BATCa5X,2020-0188,2021-10-15,12:54:35,13:59:59,NA,incomplete,true,true,NA,0,10,NA,gray,m_l_116.jpg,NA,NA,unpleasant,pleasant,NA,NA,NA,NA,NA,right,1508.70000000112,true,NA,NA,NA,NA,NA
1BATCa5X,344m16ozllsw98pkhqhl4zt7rn1nev,3qapzx2qn8q3ggjre2pog6kxo9b02z,1BATCa5X,2020-0188,2021-10-15,12:54:35,13:59:59,NA,incomplete,true,true,NA,0,11,NA,gray,n_l_083.jpg,NA,NA,pleasant,unpleasant,NA,NA,NA,NA,NA,left,1464.80000000075,true,NA,NA,NA,NA,NA
1BATCa5X,344m16ozllsw98pkhqhl4zt7rn1nev,3qapzx2qn8q3ggjre2pog6kxo9b02z,1BATCa5X,2020-0188,2021-10-15,12:54:35,13:59:59,NA,incomplete,true,true,NA,0,12,NA,white,n_l_044.jpg,NA,NA,pleasant,unpleasant,NA,NA,NA,NA,NA,left,1936.90000000037,true,NA,NA,NA,NA,NA
1BATCa5X,344m16ozllsw98pkhqhl4zt7rn1nev,3qapzx2qn8q3ggjre2pog6kxo9b02z,1BATCa5X,2020-0188,2021-10-15,12:54:35,13:59:59,NA,incomplete,true,true,NA,0,13,NA,white,m_s_111.jpg,NA,NA,pleasant,unpleasant,NA,NA,NA,NA,NA,left,1661.80000000075,true,NA,NA,NA,NA,NA
1BATCa5X,344m16ozllsw98pkhqhl4zt7rn1nev,3qapzx2qn8q3ggjre2pog6kxo9b02z,1BATCa5X,2020-0188,2021-10-15,12:54:35,13:59:59,NA,incomplete,true,true,NA,0,14,NA,white,m_l_059.jpg,NA,NA,pleasant,unpleasant,NA,NA,NA,NA,NA,right,1183.40000000037,true,NA,NA,NA,NA,NA
1BATCa5X,344m16ozllsw98pkhqhl4zt7rn1nev,3qapzx2qn8q3ggjre2pog6kxo9b02z,1BATCa5X,2020-0188,2021-10-15,12:54:35,13:59:59,NA,incomplete,true,true,NA,0,15,NA,white,n_s_095.jpg,NA,NA,unpleasant,pleasant,NA,NA,NA,NA,NA,left,1836.40000000037,true,NA,NA,NA,NA,NA
1BATCa5X,344m16ozllsw98pkhqhl4zt7rn1nev,3qapzx2qn8q3ggjre2pog6kxo9b02z,1BATCa5X,2020-0188,2021-10-15,12:54:35,13:59:59,NA,incomplete,true,true,NA,0,16,NA,white,m_l_001.jpg,NA,NA,unpleasant,pleasant,NA,NA,NA,NA,NA,right,2240.29999999888,true,NA,NA,NA,NA,NA
1BATCa5X,344m16ozllsw98pkhqhl4zt7rn1nev,3qapzx2qn8q3ggjre2pog6kxo9b02z,1BATCa5X,2020-0188,2021-10-15,12:54:35,13:59:59,NA,incomplete,true,true,NA,0,17,NA,white,m_s_110.jpg,NA,NA,pleasant,unpleasant,NA,NA,NA,NA,NA,left,1339.30000000075,true,NA,NA,NA,NA,NA
1BATCa5X,344m16ozllsw98pkhqhl4zt7rn1nev,3qapzx2qn8q3ggjre2pog6kxo9b02z,1BATCa5X,2020-0188,2021-10-15,12:54:35,13:59:59,NA,incomplete,true,true,NA,0,18,NA,brown,m_s_112.jpg,NA,NA,pleasant,unpleasant,NA,NA,NA,NA,NA,right,3110.30000000075,true,NA,NA,NA,NA,NA
1BATCa5X,344m16ozllsw98pkhqhl4zt7rn1nev,3qapzx2qn8q3ggjre2pog6kxo9b02z,1BATCa5X,2020-0188,2021-10-15,12:54:35,13:59:59,NA,incomplete,true,true,NA,0,19,NA,brown,m_l_113.jpg,NA,NA,pleasant,unpleasant,NA,NA,NA,NA,NA,left,1710.40000000037,true,NA,NA,NA,NA,NA
1BATCa5X,344m16ozllsw98pkhqhl4zt7rn1nev,3qapzx2qn8q3ggjre2pog6kxo9b02z,1BATCa5X,2020-0188,2021-10-15,12:54:35,13:59:59,NA,incomplete,true,true,NA,0,20,NA,brown,n_s_082.jpg,NA,NA,unpleasant,pleasant,NA,NA,NA,NA,NA,right,2266.40000000037,true,NA,NA,NA,NA,NA
1BATCa5X,344m16ozllsw98pkhqhl4zt7rn1nev,3qapzx2qn8q3ggjre2pog6kxo9b02z,1BATCa5X,2020-0188,2021-10-15,12:54:35,13:59:59,NA,incomplete,true,true,NA,0,21,NA,brown,m_s_076.jpg,NA,NA,pleasant,unpleasant,NA,NA,NA,NA,NA,left,2809.69999999925,true,NA,NA,NA,NA,NA
1BATCa5X,344m16ozllsw98pkhqhl4zt7rn1nev,3qapzx2qn8q3ggjre2pog6kxo9b02z,1BATCa5X,2020-0188,2021-10-15,12:54:35,13:59:59,NA,incomplete,true,true,NA,0,22,NA,brown,n_s_049.jpg,NA,NA,pleasant,unpleasant,NA,NA,NA,NA,NA,right,1432.69999999925,true,NA,NA,NA,NA,NA
1BATCa5X,344m16ozllsw98pkhqhl4zt7rn1nev,3qapzx2qn8q3ggjre2pog6kxo9b02z,1BATCa5X,2020-0188,2021-10-15,12:54:35,13:59:59,NA,incomplete,true,true,NA,0,23,NA,brown,n_s_071.jpg,NA,NA,pleasant,unpleasant,NA,NA,NA,NA,NA,left,1593.90000000037,true,NA,NA,NA,NA,NA
1BATCa5X,344m16ozllsw98pkhqhl4zt7rn1nev,3qapzx2qn8q3ggjre2pog6kxo9b02z,1BATCa5X,2020-0188,2021-10-15,12:54:35,13:59:59,NA,incomplete,true,true,NA,0,24,NA,yellow,m_l_052.jpg,NA,NA,pleasant,unpleasant,NA,NA,NA,NA,NA,left,2232.79999999888,true,NA,NA,NA,NA,NA
1BATCa5X,344m16ozllsw98pkhqhl4zt7rn1nev,3qapzx2qn8q3ggjre2pog6kxo9b02z,1BATCa5X,2020-0188,2021-10-15,12:54:35,13:59:59,NA,incomplete,true,true,NA,0,25,NA,yellow,n_l_061.jpg,NA,NA,pleasant,unpleasant,NA,NA,NA,NA,NA,left,1473.59999999963,true,NA,NA,NA,NA,NA
1BATCa5X,344m16ozllsw98pkhqhl4zt7rn1nev,3qapzx2qn8q3ggjre2pog6kxo9b02z,1BATCa5X,2020-0188,2021-10-15,12:54:35,13:59:59,NA,incomplete,true,true,NA,0,26,NA,yellow,n_s_035.jpg,NA,NA,pleasant,unpleasant,NA,NA,NA,NA,NA,left,1353.69999999925,true,NA,NA,NA,NA,NA
1BATCa5X,344m16ozllsw98pkhqhl4zt7rn1nev,3qapzx2qn8q3ggjre2pog6kxo9b02z,1BATCa5X,2020-0188,2021-10-15,12:54:35,13:59:59,NA,incomplete,true,true,NA,0,27,NA,yellow,n_l_029.jpg,NA,NA,pleasant,unpleasant,NA,NA,NA,NA,NA,right,1253.90000000037,true,NA,NA,NA,NA,NA
1BATCa5X,344m16ozllsw98pkhqhl4zt7rn1nev,3qapzx2qn8q3ggjre2pog6kxo9b02z,1BATCa5X,2020-0188,2021-10-15,12:54:35,13:59:59,NA,incomplete,true,true,NA,0,28,NA,yellow,m_s_073.jpg,NA,NA,unpleasant,pleasant,NA,NA,NA,NA,NA,left,1182.69999999925,true,NA,NA,NA,NA,NA
1BATCa5X,344m16ozllsw98pkhqhl4zt7rn1nev,3qapzx2qn8q3ggjre2pog6kxo9b02z,1BATCa5X,2020-0188,2021-10-15,12:54:35,13:59:59,NA,incomplete,true,true,NA,0,29,NA,yellow,n_l_075.jpg,NA,NA,unpleasant,pleasant,NA,NA,NA,NA,NA,left,2257.29999999888,true,NA,NA,NA,NA,NA
1BATCa5X,344m16ozllsw98pkhqhl4zt7rn1nev,3qapzx2qn8q3ggjre2pog6kxo9b02z,1BATCa5X,2020-0188,2021-10-15,12:54:35,13:59:59,NA,incomplete,true,true,NA,0,30,NA,blue,n_l_049.jpg,NA,NA,unpleasant,pleasant,NA,NA,NA,NA,NA,right,1763.69999999925,true,NA,NA,NA,NA,NA
1BATCa5X,344m16ozllsw98pkhqhl4zt7rn1nev,3qapzx2qn8q3ggjre2pog6kxo9b02z,1BATCa5X,2020-0188,2021-10-15,12:54:35,13:59:59,NA,incomplete,true,true,NA,0,31,NA,blue,m_s_091.jpg,NA,NA,unpleasant,pleasant,NA,NA,NA,NA,NA,right,2102.10000000149,true,NA,NA,NA,NA,NA
1BATCa5X,344m16ozllsw98pkhqhl4zt7rn1nev,3qapzx2qn8q3ggjre2pog6kxo9b02z,1BATCa5X,2020-0188,2021-10-15,12:54:35,13:59:59,NA,incomplete,true,true,NA,0,32,NA,blue,n_s_001.jpg,NA,NA,unpleasant,pleasant,NA,NA,NA,NA,NA,left,2027.09999999963,true,NA,NA,NA,NA,NA
1BATCa5X,344m16ozllsw98pkhqhl4zt7rn1nev,3qapzx2qn8q3ggjre2pog6kxo9b02z,1BATCa5X,2020-0188,2021-10-15,12:54:35,13:59:59,NA,incomplete,true,true,NA,0,33,NA,blue,m_s_055.jpg,NA,NA,unpleasant,pleasant,NA,NA,NA,NA,NA,left,2210.60000000149,true,NA,NA,NA,NA,NA
1BATCa5X,344m16ozllsw98pkhqhl4zt7rn1nev,3qapzx2qn8q3ggjre2pog6kxo9b02z,1BATCa5X,2020-0188,2021-10-15,12:54:35,13:59:59,NA,incomplete,true,true,NA,0,34,NA,blue,n_l_074.jpg,NA,NA,unpleasant,pleasant,NA,NA,NA,NA,NA,right,1534.79999999888,true,NA,NA,NA,NA,NA
1BATCa5X,344m16ozllsw98pkhqhl4zt7rn1nev,3qapzx2qn8q3ggjre2pog6kxo9b02z,1BATCa5X,2020-0188,2021-10-15,12:54:35,13:59:59,NA,incomplete,true,true,NA,0,35,NA,blue,m_l_076.jpg,NA,NA,unpleasant,pleasant,NA,NA,NA,NA,NA,right,1324.40000000037,true,NA,NA,NA,NA,NA
1BATCa5X,344m16ozllsw98pkhqhl4zt7rn1nev,3qapzx2qn8q3ggjre2pog6kxo9b02z,1BATCa5X,2020-0188,2021-10-15,12:54:35,13:59:59,NA,incomplete,true,NA,true,0,0,NA,NA,NA,right,present,NA,NA,m_l_076.jpg,blue,m_s_091.jpg,blue,within,NA,NaN,NA,right,3552.5999999996275,1,2,4004.5999999996275
1BATCa5X,344m16ozllsw98pkhqhl4zt7rn1nev,3qapzx2qn8q3ggjre2pog6kxo9b02z,1BATCa5X,2020-0188,2021-10-15,12:54:35,13:59:59,NA,incomplete,true,NA,true,0,1,NA,NA,NA,left,present,NA,NA,m_l_116.jpg,gray,m_l_059.jpg,white,between,NA,NaN,NA,right,3238.2000000011176,0,2,5298
1BATCa5X,344m16ozllsw98pkhqhl4zt7rn1nev,3qapzx2qn8q3ggjre2pog6kxo9b02z,1BATCa5X,2020-0188,2021-10-15,12:54:35,13:59:59,NA,incomplete,true,NA,true,0,2,NA,NA,NA,left,absent,NA,NA,m_s_111.jpg,white,m_s_110.jpg,white,within,NA,NaN,NA,left,3728.5999999996275,1,3,1539.3999999985099
1BATCa5X,344m16ozllsw98pkhqhl4zt7rn1nev,3qapzx2qn8q3ggjre2pog6kxo9b02z,1BATCa5X,2020-0188,2021-10-15,12:54:35,13:59:59,NA,incomplete,true,NA,true,0,3,NA,NA,NA,right,absent,NA,NA,n_s_035.jpg,yellow,n_s_049.jpg,brown,between,NA,NaN,NA,left,2444.0999999996275,0,0,1728.199999999255
1BATCa5X,344m16ozllsw98pkhqhl4zt7rn1nev,3qapzx2qn8q3ggjre2pog6kxo9b02z,1BATCa5X,2020-0188,2021-10-15,12:54:35,13:59:59,NA,incomplete,true,NA,true,0,4,NA,NA,NA,right,present,NA,NA,n_l_083.jpg,gray,n_l_025.jpg,gray,within,NA,NaN,NA,left,5054.60000000149,0,1,1959.2000000011176
1BATCa5X,344m16ozllsw98pkhqhl4zt7rn1nev,3qapzx2qn8q3ggjre2pog6kxo9b02z,1BATCa5X,2020-0188,2021-10-15,12:54:35,13:59:59,NA,incomplete,true,NA,true,0,5,NA,NA,NA,right,present,NA,NA,n_s_082.jpg,brown,m_l_001.jpg,white,between,NA,NaN,NA,right,2519.2999999988824,1,2,2575.5999999996275
1BATCa5X,344m16ozllsw98pkhqhl4zt7rn1nev,3qapzx2qn8q3ggjre2pog6kxo9b02z,1BATCa5X,2020-0188,2021-10-15,12:54:35,13:59:59,NA,incomplete,true,NA,true,0,6,NA,NA,NA,left,present,NA,NA,m_s_073.jpg,yellow,n_s_001.jpg,blue,between,NA,NaN,NA,left,2847.5,1,2,1614.800000000745
1BATCa5X,344m16ozllsw98pkhqhl4zt7rn1nev,3qapzx2qn8q3ggjre2pog6kxo9b02z,1BATCa5X,2020-0188,2021-10-15,12:54:35,13:59:59,NA,incomplete,true,NA,true,0,7,NA,NA,NA,right,absent,NA,NA,n_l_075.jpg,yellow,n_l_061.jpg,yellow,within,NA,NaN,NA,right,3624.800000000745,1,1,2905.2000000011176
1BATCa5X,344m16ozllsw98pkhqhl4zt7rn1nev,3qapzx2qn8q3ggjre2pog6kxo9b02z,1BATCa5X,2020-0188,2021-10-15,12:54:35,13:59:59,NA,incomplete,true,NA,true,0,8,NA,NA,NA,left,present,NA,NA,n_s_067.jpg,orange,m_l_038.jpg,gray,between,NA,NaN,NA,left,5708.5999999996275,1,0,2867.199999999255
1BATCa5X,344m16ozllsw98pkhqhl4zt7rn1nev,3qapzx2qn8q3ggjre2pog6kxo9b02z,1BATCa5X,2020-0188,2021-10-15,12:54:35,13:59:59,NA,incomplete,true,NA,true,0,9,NA,NA,NA,left,present,NA,NA,m_l_113.jpg,brown,n_s_071.jpg,brown,within,NA,NaN,NA,left,3888.300000000745,1,0,1332
1BATCa5X,344m16ozllsw98pkhqhl4zt7rn1nev,3qapzx2qn8q3ggjre2pog6kxo9b02z,1BATCa5X,2020-0188,2021-10-15,12:54:35,13:59:59,NA,incomplete,true,NA,true,0,10,NA,NA,NA,left,absent,NA,NA,m_l_025.jpg,orange,n_l_054.jpg,orange,within,NA,NaN,NA,left,2863.5999999996275,1,2,2081.800000000745
1BATCa5X,344m16ozllsw98pkhqhl4zt7rn1nev,3qapzx2qn8q3ggjre2pog6kxo9b02z,1BATCa5X,2020-0188,2021-10-15,12:54:35,13:59:59,NA,incomplete,false,true,NA,1,0,NA,blue,m_l_081.jpg,NA,NA,pleasant,unpleasant,NA,NA,NA,NA,NA,left,2102.29999999888,true,NA,NA,NA,NA,NA
1BATCa5X,344m16ozllsw98pkhqhl4zt7rn1nev,3qapzx2qn8q3ggjre2pog6kxo9b02z,1BATCa5X,2020-0188,2021-10-15,12:54:35,13:59:59,NA,incomplete,false,true,NA,1,1,NA,blue,n_l_019.jpg,NA,NA,unpleasant,pleasant,NA,NA,NA,NA,NA,left,2051,true,NA,NA,NA,NA,NA
1BATCa5X,344m16ozllsw98pkhqhl4zt7rn1nev,3qapzx2qn8q3ggjre2pog6kxo9b02z,1BATCa5X,2020-0188,2021-10-15,12:54:35,13:59:59,NA,incomplete,false,true,NA,1,2,NA,blue,n_s_096.jpg,NA,NA,unpleasant,pleasant,NA,NA,NA,NA,NA,right,1207.89999999851,true,NA,NA,NA,NA,NA
1BATCa5X,344m16ozllsw98pkhqhl4zt7rn1nev,3qapzx2qn8q3ggjre2pog6kxo9b02z,1BATCa5X,2020-0188,2021-10-15,12:54:35,13:59:59,NA,incomplete,false,true,NA,1,3,NA,blue,m_l_097.jpg,NA,NA,pleasant,unpleasant,NA,NA,NA,NA,NA,right,2043.09999999963,true,NA,NA,NA,NA,NA
1BATCa5X,344m16ozllsw98pkhqhl4zt7rn1nev,3qapzx2qn8q3ggjre2pog6kxo9b02z,1BATCa5X,2020-0188,2021-10-15,12:54:35,13:59:59,NA,incomplete,false,true,NA,1,4,NA,blue,m_s_009.jpg,NA,NA,unpleasant,pleasant,NA,NA,NA,NA,NA,right,1396.5,true,NA,NA,NA,NA,NA
1BATCa5X,344m16ozllsw98pkhqhl4zt7rn1nev,3qapzx2qn8q3ggjre2pog6kxo9b02z,1BATCa5X,2020-0188,2021-10-15,12:54:35,13:59:59,NA,incomplete,false,true,NA,1,5,NA,blue,n_l_004.jpg,NA,NA,pleasant,unpleasant,NA,NA,NA,NA,NA,right,1828.69999999925,true,NA,NA,NA,NA,NA
1BATCa5X,344m16ozllsw98pkhqhl4zt7rn1nev,3qapzx2qn8q3ggjre2pog6kxo9b02z,1BATCa5X,2020-0188,2021-10-15,12:54:35,13:59:59,NA,incomplete,false,true,NA,1,6,NA,red,m_l_066.jpg,NA,NA,pleasant,unpleasant,NA,NA,NA,NA,NA,left,2667.90000000037,true,NA,NA,NA,NA,NA
1BATCa5X,344m16ozllsw98pkhqhl4zt7rn1nev,3qapzx2qn8q3ggjre2pog6kxo9b02z,1BATCa5X,2020-0188,2021-10-15,12:54:35,13:59:59,NA,incomplete,false,true,NA,1,7,NA,red,n_l_058.jpg,NA,NA,pleasant,unpleasant,NA,NA,NA,NA,NA,left,1766.70000000112,true,NA,NA,NA,NA,NA
1BATCa5X,344m16ozllsw98pkhqhl4zt7rn1nev,3qapzx2qn8q3ggjre2pog6kxo9b02z,1BATCa5X,2020-0188,2021-10-15,12:54:35,13:59:59,NA,incomplete,false,true,NA,1,8,NA,red,n_l_055.jpg,NA,NA,unpleasant,pleasant,NA,NA,NA,NA,NA,right,1549,true,NA,NA,NA,NA,NA
1BATCa5X,344m16ozllsw98pkhqhl4zt7rn1nev,3qapzx2qn8q3ggjre2pog6kxo9b02z,1BATCa5X,2020-0188,2021-10-15,12:54:35,13:59:59,NA,incomplete,false,true,NA,1,9,NA,red,n_l_088.jpg,NA,NA,unpleasant,pleasant,NA,NA,NA,NA,NA,right,1376.60000000149,true,NA,NA,NA,NA,NA
1BATCa5X,344m16ozllsw98pkhqhl4zt7rn1nev,3qapzx2qn8q3ggjre2pog6kxo9b02z,1BATCa5X,2020-0188,2021-10-15,12:54:35,13:59:59,NA,incomplete,false,true,NA,1,10,NA,red,n_s_008.jpg,NA,NA,unpleasant,pleasant,NA,NA,NA,NA,NA,left,1364.40000000037,true,NA,NA,NA,NA,NA
1BATCa5X,344m16ozllsw98pkhqhl4zt7rn1nev,3qapzx2qn8q3ggjre2pog6kxo9b02z,1BATCa5X,2020-0188,2021-10-15,12:54:35,13:59:59,NA,incomplete,false,true,NA,1,11,NA,red,m_l_036.jpg,NA,NA,pleasant,unpleasant,NA,NA,NA,NA,NA,right,1254.59999999963,true,NA,NA,NA,NA,NA
1BATCa5X,344m16ozllsw98pkhqhl4zt7rn1nev,3qapzx2qn8q3ggjre2pog6kxo9b02z,1BATCa5X,2020-0188,2021-10-15,12:54:35,13:59:59,NA,incomplete,false,true,NA,1,12,NA,yellow,n_l_040.jpg,NA,NA,unpleasant,pleasant,NA,NA,NA,NA,NA,right,1366.09999999963,true,NA,NA,NA,NA,NA
1BATCa5X,344m16ozllsw98pkhqhl4zt7rn1nev,3qapzx2qn8q3ggjre2pog6kxo9b02z,1BATCa5X,2020-0188,2021-10-15,12:54:35,13:59:59,NA,incomplete,false,true,NA,1,13,NA,yellow,n_l_092.jpg,NA,NA,unpleasant,pleasant,NA,NA,NA,NA,NA,right,3355.89999999851,true,NA,NA,NA,NA,NA
1BATCa5X,344m16ozllsw98pkhqhl4zt7rn1nev,3qapzx2qn8q3ggjre2pog6kxo9b02z,1BATCa5X,2020-0188,2021-10-15,12:54:35,13:59:59,NA,incomplete,false,true,NA,1,14,NA,yellow,m_s_069.jpg,NA,NA,pleasant,unpleasant,NA,NA,NA,NA,NA,left,1534.09999999963,true,NA,NA,NA,NA,NA
1BATCa5X,344m16ozllsw98pkhqhl4zt7rn1nev,3qapzx2qn8q3ggjre2pog6kxo9b02z,1BATCa5X,2020-0188,2021-10-15,12:54:35,13:59:59,NA,incomplete,false,true,NA,1,15,NA,yellow,n_s_055.jpg,NA,NA,unpleasant,pleasant,NA,NA,NA,NA,NA,left,1336.09999999963,true,NA,NA,NA,NA,NA
1BATCa5X,344m16ozllsw98pkhqhl4zt7rn1nev,3qapzx2qn8q3ggjre2pog6kxo9b02z,1BATCa5X,2020-0188,2021-10-15,12:54:35,13:59:59,NA,incomplete,false,true,NA,1,16,NA,yellow,n_l_046.jpg,NA,NA,unpleasant,pleasant,NA,NA,NA,NA,NA,right,1220.79999999888,true,NA,NA,NA,NA,NA
1BATCa5X,344m16ozllsw98pkhqhl4zt7rn1nev,3qapzx2qn8q3ggjre2pog6kxo9b02z,1BATCa5X,2020-0188,2021-10-15,12:54:35,13:59:59,NA,incomplete,false,true,NA,1,17,NA,yellow,m_l_006.jpg,NA,NA,unpleasant,pleasant,NA,NA,NA,NA,NA,left,1429.39999999851,true,NA,NA,NA,NA,NA
1BATCa5X,344m16ozllsw98pkhqhl4zt7rn1nev,3qapzx2qn8q3ggjre2pog6kxo9b02z,1BATCa5X,2020-0188,2021-10-15,12:54:35,13:59:59,NA,incomplete,false,true,NA,1,18,NA,orange,m_l_062.jpg,NA,NA,unpleasant,pleasant,NA,NA,NA,NA,NA,right,2170.40000000037,true,NA,NA,NA,NA,NA
1BATCa5X,344m16ozllsw98pkhqhl4zt7rn1nev,3qapzx2qn8q3ggjre2pog6kxo9b02z,1BATCa5X,2020-0188,2021-10-15,12:54:35,13:59:59,NA,incomplete,false,true,NA,1,19,NA,orange,n_l_007.jpg,NA,NA,pleasant,unpleasant,NA,NA,NA,NA,NA,left,1438,true,NA,NA,NA,NA,NA
1BATCa5X,344m16ozllsw98pkhqhl4zt7rn1nev,3qapzx2qn8q3ggjre2pog6kxo9b02z,1BATCa5X,2020-0188,2021-10-15,12:54:35,13:59:59,NA,incomplete,false,true,NA,1,20,NA,orange,n_l_013.jpg,NA,NA,unpleasant,pleasant,NA,NA,NA,NA,NA,left,2212.29999999888,true,NA,NA,NA,NA,NA
1BATCa5X,344m16ozllsw98pkhqhl4zt7rn1nev,3qapzx2qn8q3ggjre2pog6kxo9b02z,1BATCa5X,2020-0188,2021-10-15,12:54:35,13:59:59,NA,incomplete,false,true,NA,1,21,NA,orange,n_l_039.jpg,NA,NA,pleasant,unpleasant,NA,NA,NA,NA,NA,left,2272.89999999851,true,NA,NA,NA,NA,NA
1BATCa5X,344m16ozllsw98pkhqhl4zt7rn1nev,3qapzx2qn8q3ggjre2pog6kxo9b02z,1BATCa5X,2020-0188,2021-10-15,12:54:35,13:59:59,NA,incomplete,false,true,NA,1,22,NA,orange,m_s_041.jpg,NA,NA,unpleasant,pleasant,NA,NA,NA,NA,NA,left,2628.40000000037,true,NA,NA,NA,NA,NA
1BATCa5X,344m16ozllsw98pkhqhl4zt7rn1nev,3qapzx2qn8q3ggjre2pog6kxo9b02z,1BATCa5X,2020-0188,2021-10-15,12:54:35,13:59:59,NA,incomplete,false,true,NA,1,23,NA,orange,n_l_065.jpg,NA,NA,unpleasant,pleasant,NA,NA,NA,NA,NA,right,1157.59999999963,true,NA,NA,NA,NA,NA
1BATCa5X,344m16ozllsw98pkhqhl4zt7rn1nev,3qapzx2qn8q3ggjre2pog6kxo9b02z,1BATCa5X,2020-0188,2021-10-15,12:54:35,13:59:59,NA,incomplete,false,true,NA,1,24,NA,brown,m_s_105.jpg,NA,NA,pleasant,unpleasant,NA,NA,NA,NA,NA,right,1655.20000000112,true,NA,NA,NA,NA,NA
1BATCa5X,344m16ozllsw98pkhqhl4zt7rn1nev,3qapzx2qn8q3ggjre2pog6kxo9b02z,1BATCa5X,2020-0188,2021-10-15,12:54:35,13:59:59,NA,incomplete,false,true,NA,1,25,NA,brown,n_s_004.jpg,NA,NA,unpleasant,pleasant,NA,NA,NA,NA,NA,left,1285.80000000075,true,NA,NA,NA,NA,NA
1BATCa5X,344m16ozllsw98pkhqhl4zt7rn1nev,3qapzx2qn8q3ggjre2pog6kxo9b02z,1BATCa5X,2020-0188,2021-10-15,12:54:35,13:59:59,NA,incomplete,false,true,NA,1,26,NA,brown,n_l_110.jpg,NA,NA,pleasant,unpleasant,NA,NA,NA,NA,NA,right,2863.5,true,NA,NA,NA,NA,NA
1BATCa5X,344m16ozllsw98pkhqhl4zt7rn1nev,3qapzx2qn8q3ggjre2pog6kxo9b02z,1BATCa5X,2020-0188,2021-10-15,12:54:35,13:59:59,NA,incomplete,false,true,NA,1,27,NA,brown,m_l_114.jpg,NA,NA,unpleasant,pleasant,NA,NA,NA,NA,NA,right,2355.19999999925,true,NA,NA,NA,NA,NA
1BATCa5X,344m16ozllsw98pkhqhl4zt7rn1nev,3qapzx2qn8q3ggjre2pog6kxo9b02z,1BATCa5X,2020-0188,2021-10-15,12:54:35,13:59:59,NA,incomplete,false,true,NA,1,28,NA,brown,m_l_032.jpg,NA,NA,pleasant,unpleasant,NA,NA,NA,NA,NA,left,1151.19999999925,true,NA,NA,NA,NA,NA
1BATCa5X,344m16ozllsw98pkhqhl4zt7rn1nev,3qapzx2qn8q3ggjre2pog6kxo9b02z,1BATCa5X,2020-0188,2021-10-15,12:54:35,13:59:59,NA,incomplete,false,true,NA,1,29,NA,brown,m_l_053.jpg,NA,NA,unpleasant,pleasant,NA,NA,NA,NA,NA,left,1790.5,true,NA,NA,NA,NA,NA
1BATCa5X,344m16ozllsw98pkhqhl4zt7rn1nev,3qapzx2qn8q3ggjre2pog6kxo9b02z,1BATCa5X,2020-0188,2021-10-15,12:54:35,13:59:59,NA,incomplete,false,true,NA,1,30,NA,black,m_l_004.jpg,NA,NA,pleasant,unpleasant,NA,NA,NA,NA,NA,right,1525.10000000149,true,NA,NA,NA,NA,NA
1BATCa5X,344m16ozllsw98pkhqhl4zt7rn1nev,3qapzx2qn8q3ggjre2pog6kxo9b02z,1BATCa5X,2020-0188,2021-10-15,12:54:35,13:59:59,NA,incomplete,false,true,NA,1,31,NA,black,m_s_107.jpg,NA,NA,unpleasant,pleasant,NA,NA,NA,NA,NA,left,1635.20000000112,true,NA,NA,NA,NA,NA
1BATCa5X,344m16ozllsw98pkhqhl4zt7rn1nev,3qapzx2qn8q3ggjre2pog6kxo9b02z,1BATCa5X,2020-0188,2021-10-15,12:54:35,13:59:59,NA,incomplete,false,true,NA,1,32,NA,black,m_s_079.jpg,NA,NA,unpleasant,pleasant,NA,NA,NA,NA,NA,right,1547.59999999963,true,NA,NA,NA,NA,NA
1BATCa5X,344m16ozllsw98pkhqhl4zt7rn1nev,3qapzx2qn8q3ggjre2pog6kxo9b02z,1BATCa5X,2020-0188,2021-10-15,12:54:35,13:59:59,NA,incomplete,false,true,NA,1,33,NA,black,m_l_078.jpg,NA,NA,pleasant,unpleasant,NA,NA,NA,NA,NA,right,1332.30000000075,true,NA,NA,NA,NA,NA
1BATCa5X,344m16ozllsw98pkhqhl4zt7rn1nev,3qapzx2qn8q3ggjre2pog6kxo9b02z,1BATCa5X,2020-0188,2021-10-15,12:54:35,13:59:59,NA,incomplete,false,true,NA,1,34,NA,black,n_l_072.jpg,NA,NA,unpleasant,pleasant,NA,NA,NA,NA,NA,left,1300.5,true,NA,NA,NA,NA,NA
1BATCa5X,344m16ozllsw98pkhqhl4zt7rn1nev,3qapzx2qn8q3ggjre2pog6kxo9b02z,1BATCa5X,2020-0188,2021-10-15,12:54:35,13:59:59,NA,incomplete,false,true,NA,1,35,NA,black,m_s_063.jpg,NA,NA,pleasant,unpleasant,NA,NA,NA,NA,NA,left,2643.5,true,NA,NA,NA,NA,NA
1BATCa5X,344m16ozllsw98pkhqhl4zt7rn1nev,3qapzx2qn8q3ggjre2pog6kxo9b02z,1BATCa5X,2020-0188,2021-10-15,12:54:35,13:59:59,NA,incomplete,false,NA,true,1,0,NA,NA,NA,left,present,NA,NA,n_l_046.jpg,yellow,n_l_013.jpg,orange,between,NA,NaN,NA,left,3855.699999999255,1,1,3470.4000000003725
1BATCa5X,344m16ozllsw98pkhqhl4zt7rn1nev,3qapzx2qn8q3ggjre2pog6kxo9b02z,1BATCa5X,2020-0188,2021-10-15,12:54:35,13:59:59,NA,incomplete,false,NA,true,1,1,NA,NA,NA,left,present,NA,NA,m_s_107.jpg,black,m_s_063.jpg,black,within,NA,NaN,NA,left,3385.699999999255,1,0,1693.800000000745
1BATCa5X,344m16ozllsw98pkhqhl4zt7rn1nev,3qapzx2qn8q3ggjre2pog6kxo9b02z,1BATCa5X,2020-0188,2021-10-15,12:54:35,13:59:59,NA,incomplete,false,NA,true,1,2,NA,NA,NA,right,present,NA,NA,m_l_053.jpg,brown,n_s_004.jpg,brown,within,NA,NaN,NA,right,3911.699999999255,1,2,1258.4000000003725
1BATCa5X,344m16ozllsw98pkhqhl4zt7rn1nev,3qapzx2qn8q3ggjre2pog6kxo9b02z,1BATCa5X,2020-0188,2021-10-15,12:54:35,13:59:59,NA,incomplete,false,NA,true,1,3,NA,NA,NA,left,present,NA,NA,m_l_032.jpg,brown,m_s_079.jpg,black,between,NA,NaN,NA,left,2703.7999999988824,1,2,1385.300000000745
1BATCa5X,344m16ozllsw98pkhqhl4zt7rn1nev,3qapzx2qn8q3ggjre2pog6kxo9b02z,1BATCa5X,2020-0188,2021-10-15,12:54:35,13:59:59,NA,incomplete,false,NA,true,1,4,NA,NA,NA,left,present,NA,NA,m_s_009.jpg,blue,n_l_055.jpg,red,between,NA,NaN,NA,right,2640.5,0,3,1303.0999999996275
1BATCa5X,344m16ozllsw98pkhqhl4zt7rn1nev,3qapzx2qn8q3ggjre2pog6kxo9b02z,1BATCa5X,2020-0188,2021-10-15,12:54:35,13:59:59,NA,incomplete,false,NA,true,1,5,NA,NA,NA,left,present,NA,NA,n_l_019.jpg,blue,n_l_004.jpg,blue,within,NA,NaN,NA,left,3242.9000000003725,1,1,1992.5999999996275
1BATCa5X,344m16ozllsw98pkhqhl4zt7rn1nev,3qapzx2qn8q3ggjre2pog6kxo9b02z,1BATCa5X,2020-0188,2021-10-15,12:54:35,13:59:59,NA,incomplete,false,NA,true,1,6,NA,NA,NA,right,present,NA,NA,m_s_069.jpg,yellow,n_s_008.jpg,red,between,NA,NaN,NA,left,3502.5999999996275,0,3,1548.0999999996275
1BATCa5X,344m16ozllsw98pkhqhl4zt7rn1nev,3qapzx2qn8q3ggjre2pog6kxo9b02z,1BATCa5X,2020-0188,2021-10-15,12:54:35,13:59:59,NA,incomplete,false,NA,true,1,7,NA,NA,NA,right,present,NA,NA,n_l_110.jpg,brown,m_s_041.jpg,orange,between,NA,NaN,NA,right,6782,1,1,1403.9000000003725
1BATCa5X,344m16ozllsw98pkhqhl4zt7rn1nev,3qapzx2qn8q3ggjre2pog6kxo9b02z,1BATCa5X,2020-0188,2021-10-15,12:54:35,13:59:59,NA,incomplete,false,NA,true,1,8,NA,NA,NA,right,present,NA,NA,n_l_065.jpg,orange,n_l_007.jpg,orange,within,NA,NaN,NA,left,3208.2999999988824,0,1,1598.800000000745
1BATCa5X,344m16ozllsw98pkhqhl4zt7rn1nev,3qapzx2qn8q3ggjre2pog6kxo9b02z,1BATCa5X,2020-0188,2021-10-15,12:54:35,13:59:59,NA,incomplete,false,NA,true,1,9,NA,NA,NA,left,present,NA,NA,n_l_058.jpg,red,m_l_036.jpg,red,within,NA,NaN,NA,left,9163,1,2,1389.3999999985099
1BATCa5X,344m16ozllsw98pkhqhl4zt7rn1nev,3qapzx2qn8q3ggjre2pog6kxo9b02z,1BATCa5X,2020-0188,2021-10-15,12:54:35,13:59:59,NA,incomplete,false,NA,true,1,10,NA,NA,NA,right,present,NA,NA,m_l_006.jpg,yellow,n_l_092.jpg,yellow,within,NA,NaN,NA,right,2789.2000000011176,1,0,2805.800000000745
1BATCa5X,344m16ozllsw98pkhqhl4zt7rn1nev,3qapzx2qn8q3ggjre2pog6kxo9b02z,1BATCa5X,2020-0188,2021-10-15,12:54:35,13:59:59,NA,incomplete,false,true,NA,2,0,NA,blue,m_s_018.jpg,NA,NA,pleasant,unpleasant,NA,NA,NA,NA,NA,right,2752.5,true,NA,NA,NA,NA,NA
1BATCa5X,344m16ozllsw98pkhqhl4zt7rn1nev,3qapzx2qn8q3ggjre2pog6kxo9b02z,1BATCa5X,2020-0188,2021-10-15,12:54:35,13:59:59,NA,incomplete,false,true,NA,2,1,NA,blue,n_s_113.jpg,NA,NA,unpleasant,pleasant,NA,NA,NA,NA,NA,left,2068.5,true,NA,NA,NA,NA,NA
1BATCa5X,344m16ozllsw98pkhqhl4zt7rn1nev,3qapzx2qn8q3ggjre2pog6kxo9b02z,1BATCa5X,2020-0188,2021-10-15,12:54:35,13:59:59,NA,incomplete,false,true,NA,2,2,NA,blue,m_l_075.jpg,NA,NA,unpleasant,pleasant,NA,NA,NA,NA,NA,right,1368.90000000037,true,NA,NA,NA,NA,NA
1BATCa5X,344m16ozllsw98pkhqhl4zt7rn1nev,3qapzx2qn8q3ggjre2pog6kxo9b02z,1BATCa5X,2020-0188,2021-10-15,12:54:35,13:59:59,NA,incomplete,false,true,NA,2,3,NA,blue,n_l_070.jpg,NA,NA,unpleasant,pleasant,NA,NA,NA,NA,NA,right,1309.90000000037,true,NA,NA,NA,NA,NA
1BATCa5X,344m16ozllsw98pkhqhl4zt7rn1nev,3qapzx2qn8q3ggjre2pog6kxo9b02z,1BATCa5X,2020-0188,2021-10-15,12:54:35,13:59:59,NA,incomplete,false,true,NA,2,4,NA,blue,n_l_050.jpg,NA,NA,pleasant,unpleasant,NA,NA,NA,NA,NA,left,1526.19999999925,true,NA,NA,NA,NA,NA
1BATCa5X,344m16ozllsw98pkhqhl4zt7rn1nev,3qapzx2qn8q3ggjre2pog6kxo9b02z,1BATCa5X,2020-0188,2021-10-15,12:54:35,13:59:59,NA,incomplete,false,true,NA,2,5,NA,blue,m_s_037.jpg,NA,NA,unpleasant,pleasant,NA,NA,NA,NA,NA,left,1575.09999999963,true,NA,NA,NA,NA,NA
1BATCa5X,344m16ozllsw98pkhqhl4zt7rn1nev,3qapzx2qn8q3ggjre2pog6kxo9b02z,1BATCa5X,2020-0188,2021-10-15,12:54:35,13:59:59,NA,incomplete,false,true,NA,2,6,NA,brown,n_l_095.jpg,NA,NA,pleasant,unpleasant,NA,NA,NA,NA,NA,left,1539.69999999925,true,NA,NA,NA,NA,NA
1BATCa5X,344m16ozllsw98pkhqhl4zt7rn1nev,3qapzx2qn8q3ggjre2pog6kxo9b02z,1BATCa5X,2020-0188,2021-10-15,12:54:35,13:59:59,NA,incomplete,false,true,NA,2,7,NA,brown,n_s_027.jpg,NA,NA,pleasant,unpleasant,NA,NA,NA,NA,NA,right,1091.70000000112,true,NA,NA,NA,NA,NA
1BATCa5X,344m16ozllsw98pkhqhl4zt7rn1nev,3qapzx2qn8q3ggjre2pog6kxo9b02z,1BATCa5X,2020-0188,2021-10-15,12:54:35,13:59:59,NA,incomplete,false,true,NA,2,8,NA,brown,n_l_048.jpg,NA,NA,unpleasant,pleasant,NA,NA,NA,NA,NA,left,1677.19999999925,true,NA,NA,NA,NA,NA
1BATCa5X,344m16ozllsw98pkhqhl4zt7rn1nev,3qapzx2qn8q3ggjre2pog6kxo9b02z,1BATCa5X,2020-0188,2021-10-15,12:54:35,13:59:59,NA,incomplete,false,true,NA,2,9,NA,brown,m_s_020.jpg,NA,NA,unpleasant,pleasant,NA,NA,NA,NA,NA,left,2270.19999999925,true,NA,NA,NA,NA,NA
1BATCa5X,344m16ozllsw98pkhqhl4zt7rn1nev,3qapzx2qn8q3ggjre2pog6kxo9b02z,1BATCa5X,2020-0188,2021-10-15,12:54:35,13:59:59,NA,incomplete,false,true,NA,2,10,NA,brown,n_s_079.jpg,NA,NA,unpleasant,pleasant,NA,NA,NA,NA,NA,left,1303.29999999888,true,NA,NA,NA,NA,NA
1BATCa5X,344m16ozllsw98pkhqhl4zt7rn1nev,3qapzx2qn8q3ggjre2pog6kxo9b02z,1BATCa5X,2020-0188,2021-10-15,12:54:35,13:59:59,NA,incomplete,false,true,NA,2,11,NA,brown,n_l_057.jpg,NA,NA,pleasant,unpleasant,NA,NA,NA,NA,NA,left,1684,true,NA,NA,NA,NA,NA
1BATCa5X,344m16ozllsw98pkhqhl4zt7rn1nev,3qapzx2qn8q3ggjre2pog6kxo9b02z,1BATCa5X,2020-0188,2021-10-15,12:54:35,13:59:59,NA,incomplete,false,true,NA,2,12,NA,black,n_l_112.jpg,NA,NA,unpleasant,pleasant,NA,NA,NA,NA,NA,right,1326.79999999888,true,NA,NA,NA,NA,NA
1BATCa5X,344m16ozllsw98pkhqhl4zt7rn1nev,3qapzx2qn8q3ggjre2pog6kxo9b02z,1BATCa5X,2020-0188,2021-10-15,12:54:35,13:59:59,NA,incomplete,false,true,NA,2,13,NA,black,m_s_085.jpg,NA,NA,pleasant,unpleasant,NA,NA,NA,NA,NA,right,1202.30000000075,true,NA,NA,NA,NA,NA
1BATCa5X,344m16ozllsw98pkhqhl4zt7rn1nev,3qapzx2qn8q3ggjre2pog6kxo9b02z,1BATCa5X,2020-0188,2021-10-15,12:54:35,13:59:59,NA,incomplete,false,true,NA,2,14,NA,black,m_l_082.jpg,NA,NA,unpleasant,pleasant,NA,NA,NA,NA,NA,left,1195.90000000037,true,NA,NA,NA,NA,NA
1BATCa5X,344m16ozllsw98pkhqhl4zt7rn1nev,3qapzx2qn8q3ggjre2pog6kxo9b02z,1BATCa5X,2020-0188,2021-10-15,12:54:35,13:59:59,NA,incomplete,false,true,NA,2,15,NA,black,m_l_016.jpg,NA,NA,pleasant,unpleasant,NA,NA,NA,NA,NA,left,1128.70000000112,true,NA,NA,NA,NA,NA
1BATCa5X,344m16ozllsw98pkhqhl4zt7rn1nev,3qapzx2qn8q3ggjre2pog6kxo9b02z,1BATCa5X,2020-0188,2021-10-15,12:54:35,13:59:59,NA,incomplete,false,true,NA,2,16,NA,black,n_l_066.jpg,NA,NA,unpleasant,pleasant,NA,NA,NA,NA,NA,left,2049.69999999925,true,NA,NA,NA,NA,NA
1BATCa5X,344m16ozllsw98pkhqhl4zt7rn1nev,3qapzx2qn8q3ggjre2pog6kxo9b02z,1BATCa5X,2020-0188,2021-10-15,12:54:35,13:59:59,NA,incomplete,false,true,NA,2,17,NA,black,m_l_009.jpg,NA,NA,pleasant,unpleasant,NA,NA,NA,NA,NA,right,1160.5,true,NA,NA,NA,NA,NA
1BATCa5X,344m16ozllsw98pkhqhl4zt7rn1nev,3qapzx2qn8q3ggjre2pog6kxo9b02z,1BATCa5X,2020-0188,2021-10-15,12:54:35,13:59:59,NA,incomplete,false,true,NA,2,18,NA,red,n_l_093.jpg,NA,NA,unpleasant,pleasant,NA,NA,NA,NA,NA,left,1344.59999999963,true,NA,NA,NA,NA,NA
1BATCa5X,344m16ozllsw98pkhqhl4zt7rn1nev,3qapzx2qn8q3ggjre2pog6kxo9b02z,1BATCa5X,2020-0188,2021-10-15,12:54:35,13:59:59,NA,incomplete,false,true,NA,2,19,NA,red,n_s_088.jpg,NA,NA,pleasant,unpleasant,NA,NA,NA,NA,NA,left,1248.09999999963,true,NA,NA,NA,NA,NA
1BATCa5X,344m16ozllsw98pkhqhl4zt7rn1nev,3qapzx2qn8q3ggjre2pog6kxo9b02z,1BATCa5X,2020-0188,2021-10-15,12:54:35,13:59:59,NA,incomplete,false,true,NA,2,20,NA,red,n_s_014.jpg,NA,NA,unpleasant,pleasant,NA,NA,NA,NA,NA,left,1351.5,true,NA,NA,NA,NA,NA
1BATCa5X,344m16ozllsw98pkhqhl4zt7rn1nev,3qapzx2qn8q3ggjre2pog6kxo9b02z,1BATCa5X,2020-0188,2021-10-15,12:54:35,13:59:59,NA,incomplete,false,true,NA,2,21,NA,red,m_l_099.jpg,NA,NA,unpleasant,pleasant,NA,NA,NA,NA,NA,right,1289.89999999851,true,NA,NA,NA,NA,NA
1BATCa5X,344m16ozllsw98pkhqhl4zt7rn1nev,3qapzx2qn8q3ggjre2pog6kxo9b02z,1BATCa5X,2020-0188,2021-10-15,12:54:35,13:59:59,NA,incomplete,false,true,NA,2,22,NA,red,n_l_026.jpg,NA,NA,unpleasant,pleasant,NA,NA,NA,NA,NA,right,1593.30000000075,true,NA,NA,NA,NA,NA
1BATCa5X,344m16ozllsw98pkhqhl4zt7rn1nev,3qapzx2qn8q3ggjre2pog6kxo9b02z,1BATCa5X,2020-0188,2021-10-15,12:54:35,13:59:59,NA,incomplete,false,true,NA,2,23,NA,red,m_s_033.jpg,NA,NA,pleasant,unpleasant,NA,NA,NA,NA,NA,right,1437.40000000037,true,NA,NA,NA,NA,NA
1BATCa5X,344m16ozllsw98pkhqhl4zt7rn1nev,3qapzx2qn8q3ggjre2pog6kxo9b02z,1BATCa5X,2020-0188,2021-10-15,12:54:35,13:59:59,NA,incomplete,false,true,NA,2,24,NA,orange,n_s_099.jpg,NA,NA,unpleasant,pleasant,NA,NA,NA,NA,NA,right,1419,true,NA,NA,NA,NA,NA
1BATCa5X,344m16ozllsw98pkhqhl4zt7rn1nev,3qapzx2qn8q3ggjre2pog6kxo9b02z,1BATCa5X,2020-0188,2021-10-15,12:54:35,13:59:59,NA,incomplete,false,true,NA,2,25,NA,orange,n_s_063.jpg,NA,NA,unpleasant,pleasant,NA,NA,NA,NA,NA,left,1156.40000000037,true,NA,NA,NA,NA,NA
1BATCa5X,344m16ozllsw98pkhqhl4zt7rn1nev,3qapzx2qn8q3ggjre2pog6kxo9b02z,1BATCa5X,2020-0188,2021-10-15,12:54:35,13:59:59,NA,incomplete,false,true,NA,2,26,NA,orange,m_l_111.jpg,NA,NA,unpleasant,pleasant,NA,NA,NA,NA,NA,right,1795.69999999925,true,NA,NA,NA,NA,NA
1BATCa5X,344m16ozllsw98pkhqhl4zt7rn1nev,3qapzx2qn8q3ggjre2pog6kxo9b02z,1BATCa5X,2020-0188,2021-10-15,12:54:35,13:59:59,NA,incomplete,false,true,NA,2,27,NA,orange,n_s_114.jpg,NA,NA,unpleasant,pleasant,NA,NA,NA,NA,NA,left,1312.79999999888,true,NA,NA,NA,NA,NA
1BATCa5X,344m16ozllsw98pkhqhl4zt7rn1nev,3qapzx2qn8q3ggjre2pog6kxo9b02z,1BATCa5X,2020-0188,2021-10-15,12:54:35,13:59:59,NA,incomplete,false,true,NA,2,28,NA,orange,m_s_095.jpg,NA,NA,pleasant,unpleasant,NA,NA,NA,NA,NA,left,2142,true,NA,NA,NA,NA,NA
1BATCa5X,344m16ozllsw98pkhqhl4zt7rn1nev,3qapzx2qn8q3ggjre2pog6kxo9b02z,1BATCa5X,2020-0188,2021-10-15,12:54:35,13:59:59,NA,incomplete,false,true,NA,2,29,NA,orange,n_l_043.jpg,NA,NA,pleasant,unpleasant,NA,NA,NA,NA,NA,left,2425.20000000112,true,NA,NA,NA,NA,NA
1BATCa5X,344m16ozllsw98pkhqhl4zt7rn1nev,3qapzx2qn8q3ggjre2pog6kxo9b02z,1BATCa5X,2020-0188,2021-10-15,12:54:35,13:59:59,NA,incomplete,false,true,NA,2,30,NA,purple,n_s_092.jpg,NA,NA,unpleasant,pleasant,NA,NA,NA,NA,NA,left,1200.30000000075,true,NA,NA,NA,NA,NA
1BATCa5X,344m16ozllsw98pkhqhl4zt7rn1nev,3qapzx2qn8q3ggjre2pog6kxo9b02z,1BATCa5X,2020-0188,2021-10-15,12:54:35,13:59:59,NA,incomplete,false,true,NA,2,31,NA,purple,m_s_004.jpg,NA,NA,unpleasant,pleasant,NA,NA,NA,NA,NA,right,1328.79999999888,true,NA,NA,NA,NA,NA
1BATCa5X,344m16ozllsw98pkhqhl4zt7rn1nev,3qapzx2qn8q3ggjre2pog6kxo9b02z,1BATCa5X,2020-0188,2021-10-15,12:54:35,13:59:59,NA,incomplete,false,true,NA,2,32,NA,purple,n_s_077.jpg,NA,NA,pleasant,unpleasant,NA,NA,NA,NA,NA,right,1196.40000000037,true,NA,NA,NA,NA,NA
1BATCa5X,344m16ozllsw98pkhqhl4zt7rn1nev,3qapzx2qn8q3ggjre2pog6kxo9b02z,1BATCa5X,2020-0188,2021-10-15,12:54:35,13:59:59,NA,incomplete,false,true,NA,2,33,NA,purple,n_l_107.jpg,NA,NA,pleasant,unpleasant,NA,NA,NA,NA,NA,left,1740.5,true,NA,NA,NA,NA,NA
1BATCa5X,344m16ozllsw98pkhqhl4zt7rn1nev,3qapzx2qn8q3ggjre2pog6kxo9b02z,1BATCa5X,2020-0188,2021-10-15,12:54:35,13:59:59,NA,incomplete,false,true,NA,2,34,NA,purple,n_s_046.jpg,NA,NA,pleasant,unpleasant,NA,NA,NA,NA,NA,right,1208.40000000037,true,NA,NA,NA,NA,NA
1BATCa5X,344m16ozllsw98pkhqhl4zt7rn1nev,3qapzx2qn8q3ggjre2pog6kxo9b02z,1BATCa5X,2020-0188,2021-10-15,12:54:35,13:59:59,NA,incomplete,false,true,NA,2,35,NA,purple,m_s_046.jpg,NA,NA,pleasant,unpleasant,NA,NA,NA,NA,NA,right,1110.10000000149,true,NA,NA,NA,NA,NA
1BATCa5X,344m16ozllsw98pkhqhl4zt7rn1nev,3qapzx2qn8q3ggjre2pog6kxo9b02z,1BATCa5X,2020-0188,2021-10-15,12:54:35,13:59:59,NA,incomplete,false,NA,true,2,0,NA,NA,NA,right,present,NA,NA,m_l_082.jpg,black,n_s_079.jpg,brown,between,NA,NaN,NA,left,6000.9000000003725,0,3,1267
1BATCa5X,344m16ozllsw98pkhqhl4zt7rn1nev,3qapzx2qn8q3ggjre2pog6kxo9b02z,1BATCa5X,2020-0188,2021-10-15,12:54:35,13:59:59,NA,incomplete,false,NA,true,2,1,NA,NA,NA,right,present,NA,NA,n_l_057.jpg,brown,n_s_027.jpg,brown,within,NA,NaN,NA,left,2314.0999999996275,0,1,1170.5
1BATCa5X,344m16ozllsw98pkhqhl4zt7rn1nev,3qapzx2qn8q3ggjre2pog6kxo9b02z,1BATCa5X,2020-0188,2021-10-15,12:54:35,13:59:59,NA,incomplete,false,NA,true,2,2,NA,NA,NA,right,present,NA,NA,m_s_037.jpg,blue,n_s_113.jpg,blue,within,NA,NaN,NA,right,3031.699999999255,1,1,1322.7000000011176
1BATCa5X,344m16ozllsw98pkhqhl4zt7rn1nev,3qapzx2qn8q3ggjre2pog6kxo9b02z,1BATCa5X,2020-0188,2021-10-15,12:54:35,13:59:59,NA,incomplete,false,NA,true,2,3,NA,NA,NA,right,present,NA,NA,m_s_033.jpg,red,n_s_088.jpg,red,within,NA,NaN,NA,right,2371.4000000003725,1,0,880.6999999992549
1BATCa5X,344m16ozllsw98pkhqhl4zt7rn1nev,3qapzx2qn8q3ggjre2pog6kxo9b02z,1BATCa5X,2020-0188,2021-10-15,12:54:35,13:59:59,NA,incomplete,false,NA,true,2,4,NA,NA,NA,right,present,NA,NA,n_l_043.jpg,orange,n_s_063.jpg,orange,within,NA,NaN,NA,right,3432.4000000003725,1,1,1213.4000000003725
1BATCa5X,344m16ozllsw98pkhqhl4zt7rn1nev,3qapzx2qn8q3ggjre2pog6kxo9b02z,1BATCa5X,2020-0188,2021-10-15,12:54:35,13:59:59,NA,incomplete,false,NA,true,2,5,NA,NA,NA,right,present,NA,NA,n_l_048.jpg,brown,n_l_050.jpg,blue,between,NA,NaN,NA,right,1812.5999999996275,1,3,1587.199999999255
1BATCa5X,344m16ozllsw98pkhqhl4zt7rn1nev,3qapzx2qn8q3ggjre2pog6kxo9b02z,1BATCa5X,2020-0188,2021-10-15,12:54:35,13:59:59,NA,incomplete,false,NA,true,2,6,NA,NA,NA,left,present,NA,NA,n_l_066.jpg,black,n_s_014.jpg,red,between,NA,NaN,NA,left,3954,1,1,1730.7999999988824
1BATCa5X,344m16ozllsw98pkhqhl4zt7rn1nev,3qapzx2qn8q3ggjre2pog6kxo9b02z,1BATCa5X,2020-0188,2021-10-15,12:54:35,13:59:59,NA,incomplete,false,NA,true,2,7,NA,NA,NA,right,present,NA,NA,n_s_077.jpg,purple,m_s_095.jpg,orange,between,NA,NaN,NA,left,2930.9000000003725,0,0,877.5
1BATCa5X,344m16ozllsw98pkhqhl4zt7rn1nev,3qapzx2qn8q3ggjre2pog6kxo9b02z,1BATCa5X,2020-0188,2021-10-15,12:54:35,13:59:59,NA,incomplete,false,NA,true,2,8,NA,NA,NA,left,present,NA,NA,m_s_085.jpg,black,m_l_009.jpg,black,within,NA,NaN,NA,left,3565,1,1,1070.4000000003725
1BATCa5X,344m16ozllsw98pkhqhl4zt7rn1nev,3qapzx2qn8q3ggjre2pog6kxo9b02z,1BATCa5X,2020-0188,2021-10-15,12:54:35,13:59:59,NA,incomplete,false,NA,true,2,9,NA,NA,NA,left,present,NA,NA,n_l_026.jpg,red,m_l_111.jpg,orange,between,NA,NaN,NA,left,2536.0999999996275,1,1,955.8000000007451
1BATCa5X,344m16ozllsw98pkhqhl4zt7rn1nev,3qapzx2qn8q3ggjre2pog6kxo9b02z,1BATCa5X,2020-0188,2021-10-15,12:54:35,13:59:59,NA,incomplete,false,NA,true,2,10,NA,NA,NA,right,present,NA,NA,m_s_046.jpg,purple,m_s_004.jpg,purple,within,NA,NaN,NA,right,2104.800000000745,1,2,902
1BATCa5X,344m16ozllsw98pkhqhl4zt7rn1nev,3qapzx2qn8q3ggjre2pog6kxo9b02z,1BATCa5X,2020-0188,2021-10-15,12:54:35,13:59:59,NA,incomplete,false,true,NA,3,0,NA,white,n_s_024.jpg,NA,NA,unpleasant,pleasant,NA,NA,NA,NA,NA,left,1713.30000000075,true,NA,NA,NA,NA,NA
1BATCa5X,344m16ozllsw98pkhqhl4zt7rn1nev,3qapzx2qn8q3ggjre2pog6kxo9b02z,1BATCa5X,2020-0188,2021-10-15,12:54:35,13:59:59,NA,incomplete,false,true,NA,3,1,NA,white,n_s_045.jpg,NA,NA,unpleasant,pleasant,NA,NA,NA,NA,NA,none,0,false,NA,NA,NA,NA,NA
1BATCa5X,344m16ozllsw98pkhqhl4zt7rn1nev,3qapzx2qn8q3ggjre2pog6kxo9b02z,1BATCa5X,2020-0188,2021-10-15,12:54:35,13:59:59,NA,incomplete,false,true,NA,3,2,NA,white,n_l_069.jpg,NA,NA,unpleasant,pleasant,NA,NA,NA,NA,NA,left,1667.59999999963,true,NA,NA,NA,NA,NA
1BATCa5X,344m16ozllsw98pkhqhl4zt7rn1nev,3qapzx2qn8q3ggjre2pog6kxo9b02z,1BATCa5X,2020-0188,2021-10-15,12:54:35,13:59:59,NA,incomplete,false,true,NA,3,3,NA,white,n_l_003.jpg,NA,NA,unpleasant,pleasant,NA,NA,NA,NA,NA,none,0,false,NA,NA,NA,NA,NA
1BATCa5X,344m16ozllsw98pkhqhl4zt7rn1nev,3qapzx2qn8q3ggjre2pog6kxo9b02z,1BATCa5X,2020-0188,2021-10-15,12:54:35,13:59:59,NA,incomplete,false,true,NA,3,4,NA,white,n_s_016.jpg,NA,NA,pleasant,unpleasant,NA,NA,NA,NA,NA,left,1490.10000000149,true,NA,NA,NA,NA,NA
1BATCa5X,344m16ozllsw98pkhqhl4zt7rn1nev,3qapzx2qn8q3ggjre2pog6kxo9b02z,1BATCa5X,2020-0188,2021-10-15,12:54:35,13:59:59,NA,incomplete,false,true,NA,3,5,NA,white,m_s_002.jpg,NA,NA,unpleasant,pleasant,NA,NA,NA,NA,NA,left,1431.90000000037,true,NA,NA,NA,NA,NA
1BATCa5X,344m16ozllsw98pkhqhl4zt7rn1nev,3qapzx2qn8q3ggjre2pog6kxo9b02z,1BATCa5X,2020-0188,2021-10-15,12:54:35,13:59:59,NA,incomplete,false,true,NA,3,6,NA,gray,n_s_060.jpg,NA,NA,pleasant,unpleasant,NA,NA,NA,NA,NA,left,1333.80000000075,true,NA,NA,NA,NA,NA
1BATCa5X,344m16ozllsw98pkhqhl4zt7rn1nev,3qapzx2qn8q3ggjre2pog6kxo9b02z,1BATCa5X,2020-0188,2021-10-15,12:54:35,13:59:59,NA,incomplete,false,true,NA,3,7,NA,gray,n_l_105.jpg,NA,NA,pleasant,unpleasant,NA,NA,NA,NA,NA,left,1550.70000000112,true,NA,NA,NA,NA,NA
1BATCa5X,344m16ozllsw98pkhqhl4zt7rn1nev,3qapzx2qn8q3ggjre2pog6kxo9b02z,1BATCa5X,2020-0188,2021-10-15,12:54:35,13:59:59,NA,incomplete,false,true,NA,3,8,NA,gray,m_s_097.jpg,NA,NA,unpleasant,pleasant,NA,NA,NA,NA,NA,left,1897.5,true,NA,NA,NA,NA,NA
1BATCa5X,344m16ozllsw98pkhqhl4zt7rn1nev,3qapzx2qn8q3ggjre2pog6kxo9b02z,1BATCa5X,2020-0188,2021-10-15,12:54:35,13:59:59,NA,incomplete,false,true,NA,3,9,NA,gray,m_s_077.jpg,NA,NA,unpleasant,pleasant,NA,NA,NA,NA,NA,none,0,false,NA,NA,NA,NA,NA
1BATCa5X,344m16ozllsw98pkhqhl4zt7rn1nev,3qapzx2qn8q3ggjre2pog6kxo9b02z,1BATCa5X,2020-0188,2021-10-15,12:54:35,13:59:59,NA,incomplete,false,true,NA,3,10,NA,gray,n_l_035.jpg,NA,NA,unpleasant,pleasant,NA,NA,NA,NA,NA,none,0,false,NA,NA,NA,NA,NA
1BATCa5X,344m16ozllsw98pkhqhl4zt7rn1nev,3qapzx2qn8q3ggjre2pog6kxo9b02z,1BATCa5X,2020-0188,2021-10-15,12:54:35,13:59:59,NA,incomplete,false,true,NA,3,11,NA,gray,m_s_053.jpg,NA,NA,unpleasant,pleasant,NA,NA,NA,NA,NA,none,0,false,NA,NA,NA,NA,NA
1BATCa5X,344m16ozllsw98pkhqhl4zt7rn1nev,3qapzx2qn8q3ggjre2pog6kxo9b02z,1BATCa5X,2020-0188,2021-10-15,12:54:35,13:59:59,NA,incomplete,false,true,NA,3,12,NA,orange,m_l_108.jpg,NA,NA,pleasant,unpleasant,NA,NA,NA,NA,NA,none,0,false,NA,NA,NA,NA,NA
1BATCa5X,344m16ozllsw98pkhqhl4zt7rn1nev,3qapzx2qn8q3ggjre2pog6kxo9b02z,1BATCa5X,2020-0188,2021-10-15,12:54:35,13:59:59,NA,incomplete,false,true,NA,3,13,NA,orange,n_l_078.jpg,NA,NA,pleasant,unpleasant,NA,NA,NA,NA,NA,left,1037,true,NA,NA,NA,NA,NA
1BATCa5X,344m16ozllsw98pkhqhl4zt7rn1nev,3qapzx2qn8q3ggjre2pog6kxo9b02z,1BATCa5X,2020-0188,2021-10-15,12:54:35,13:59:59,NA,incomplete,false,true,NA,3,14,NA,orange,m_s_045.jpg,NA,NA,unpleasant,pleasant,NA,NA,NA,NA,NA,none,0,false,NA,NA,NA,NA,NA
1BATCa5X,344m16ozllsw98pkhqhl4zt7rn1nev,3qapzx2qn8q3ggjre2pog6kxo9b02z,1BATCa5X,2020-0188,2021-10-15,12:54:35,13:59:59,NA,incomplete,false,true,NA,3,15,NA,orange,n_s_018.jpg,NA,NA,unpleasant,pleasant,NA,NA,NA,NA,NA,left,1162.90000000037,true,NA,NA,NA,NA,NA
1BATCa5X,344m16ozllsw98pkhqhl4zt7rn1nev,3qapzx2qn8q3ggjre2pog6kxo9b02z,1BATCa5X,2020-0188,2021-10-15,12:54:35,13:59:59,NA,incomplete,false,true,NA,3,16,NA,orange,n_s_080.jpg,NA,NA,unpleasant,pleasant,NA,NA,NA,NA,NA,left,1019.69999999925,true,NA,NA,NA,NA,NA
1BATCa5X,344m16ozllsw98pkhqhl4zt7rn1nev,3qapzx2qn8q3ggjre2pog6kxo9b02z,1BATCa5X,2020-0188,2021-10-15,12:54:35,13:59:59,NA,incomplete,false,true,NA,3,17,NA,orange,m_l_070.jpg,NA,NA,unpleasant,pleasant,NA,NA,NA,NA,NA,left,1501,true,NA,NA,NA,NA,NA
1BATCa5X,344m16ozllsw98pkhqhl4zt7rn1nev,3qapzx2qn8q3ggjre2pog6kxo9b02z,1BATCa5X,2020-0188,2021-10-15,12:54:35,13:59:59,NA,incomplete,false,true,NA,3,18,NA,green,m_l_079.jpg,NA,NA,pleasant,unpleasant,NA,NA,NA,NA,NA,none,0,false,NA,NA,NA,NA,NA
1BATCa5X,344m16ozllsw98pkhqhl4zt7rn1nev,3qapzx2qn8q3ggjre2pog6kxo9b02z,1BATCa5X,2020-0188,2021-10-15,12:54:35,13:59:59,NA,incomplete,false,true,NA,3,19,NA,green,n_l_077.jpg,NA,NA,pleasant,unpleasant,NA,NA,NA,NA,NA,none,0,false,NA,NA,NA,NA,NA
1BATCa5X,344m16ozllsw98pkhqhl4zt7rn1nev,3qapzx2qn8q3ggjre2pog6kxo9b02z,1BATCa5X,2020-0188,2021-10-15,12:54:35,13:59:59,NA,incomplete,false,true,NA,3,20,NA,green,m_s_086.jpg,NA,NA,unpleasant,pleasant,NA,NA,NA,NA,NA,left,1289.29999999888,true,NA,NA,NA,NA,NA
1BATCa5X,344m16ozllsw98pkhqhl4zt7rn1nev,3qapzx2qn8q3ggjre2pog6kxo9b02z,1BATCa5X,2020-0188,2021-10-15,12:54:35,13:59:59,NA,incomplete,false,true,NA,3,21,NA,green,n_s_040.jpg,NA,NA,pleasant,unpleasant,NA,NA,NA,NA,NA,none,0,false,NA,NA,NA,NA,NA
1BATCa5X,344m16ozllsw98pkhqhl4zt7rn1nev,3qapzx2qn8q3ggjre2pog6kxo9b02z,1BATCa5X,2020-0188,2021-10-15,12:54:35,13:59:59,NA,incomplete,false,true,NA,3,22,NA,green,m_s_060.jpg,NA,NA,pleasant,unpleasant,NA,NA,NA,NA,NA,left,1763.60000000149,true,NA,NA,NA,NA,NA
1BATCa5X,344m16ozllsw98pkhqhl4zt7rn1nev,3qapzx2qn8q3ggjre2pog6kxo9b02z,1BATCa5X,2020-0188,2021-10-15,12:54:35,13:59:59,NA,incomplete,false,true,NA,3,23,NA,green,n_l_011.jpg,NA,NA,pleasant,unpleasant,NA,NA,NA,NA,NA,left,1356,true,NA,NA,NA,NA,NA
1BATCa5X,344m16ozllsw98pkhqhl4zt7rn1nev,3qapzx2qn8q3ggjre2pog6kxo9b02z,1BATCa5X,2020-0188,2021-10-15,12:54:35,13:59:59,NA,incomplete,false,true,NA,3,24,NA,blue,n_l_073.jpg,NA,NA,pleasant,unpleasant,NA,NA,NA,NA,NA,none,0,false,NA,NA,NA,NA,NA
1BATCa5X,344m16ozllsw98pkhqhl4zt7rn1nev,3qapzx2qn8q3ggjre2pog6kxo9b02z,1BATCa5X,2020-0188,2021-10-15,12:54:35,13:59:59,NA,incomplete,false,true,NA,3,25,NA,blue,m_l_087.jpg,NA,NA,unpleasant,pleasant,NA,NA,NA,NA,NA,none,0,false,NA,NA,NA,NA,NA
1BATCa5X,344m16ozllsw98pkhqhl4zt7rn1nev,3qapzx2qn8q3ggjre2pog6kxo9b02z,1BATCa5X,2020-0188,2021-10-15,12:54:35,13:59:59,NA,incomplete,false,true,NA,3,26,NA,blue,n_l_080.jpg,NA,NA,unpleasant,pleasant,NA,NA,NA,NA,NA,none,0,false,NA,NA,NA,NA,NA
1BATCa5X,344m16ozllsw98pkhqhl4zt7rn1nev,3qapzx2qn8q3ggjre2pog6kxo9b02z,1BATCa5X,2020-0188,2021-10-15,12:54:35,13:59:59,NA,incomplete,false,true,NA,3,27,NA,blue,n_s_105.jpg,NA,NA,unpleasant,pleasant,NA,NA,NA,NA,NA,none,0,false,NA,NA,NA,NA,NA
1BATCa5X,344m16ozllsw98pkhqhl4zt7rn1nev,3qapzx2qn8q3ggjre2pog6kxo9b02z,1BATCa5X,2020-0188,2021-10-15,12:54:35,13:59:59,NA,incomplete,false,true,NA,3,28,NA,blue,n_s_117.jpg,NA,NA,unpleasant,pleasant,NA,NA,NA,NA,NA,left,1181.20000000112,true,NA,NA,NA,NA,NA
1BATCa5X,344m16ozllsw98pkhqhl4zt7rn1nev,3qapzx2qn8q3ggjre2pog6kxo9b02z,1BATCa5X,2020-0188,2021-10-15,12:54:35,13:59:59,NA,incomplete,false,true,NA,3,29,NA,blue,m_s_104.jpg,NA,NA,pleasant,unpleasant,NA,NA,NA,NA,NA,left,1770.09999999963,true,NA,NA,NA,NA,NA
1BATCa5X,344m16ozllsw98pkhqhl4zt7rn1nev,3qapzx2qn8q3ggjre2pog6kxo9b02z,1BATCa5X,2020-0188,2021-10-15,12:54:35,13:59:59,NA,incomplete,false,true,NA,3,30,NA,yellow,n_l_032.jpg,NA,NA,unpleasant,pleasant,NA,NA,NA,NA,NA,left,2560.10000000149,true,NA,NA,NA,NA,NA
1BATCa5X,344m16ozllsw98pkhqhl4zt7rn1nev,3qapzx2qn8q3ggjre2pog6kxo9b02z,1BATCa5X,2020-0188,2021-10-15,12:54:35,13:59:59,NA,incomplete,false,true,NA,3,31,NA,yellow,m_s_084.jpg,NA,NA,pleasant,unpleasant,NA,NA,NA,NA,NA,left,1897.90000000037,true,NA,NA,NA,NA,NA
1BATCa5X,344m16ozllsw98pkhqhl4zt7rn1nev,3qapzx2qn8q3ggjre2pog6kxo9b02z,1BATCa5X,2020-0188,2021-10-15,12:54:35,13:59:59,NA,incomplete,false,true,NA,3,32,NA,yellow,n_l_060.jpg,NA,NA,pleasant,unpleasant,NA,NA,NA,NA,NA,none,0,false,NA,NA,NA,NA,NA
1BATCa5X,344m16ozllsw98pkhqhl4zt7rn1nev,3qapzx2qn8q3ggjre2pog6kxo9b02z,1BATCa5X,2020-0188,2021-10-15,12:54:35,13:59:59,NA,incomplete,false,true,NA,3,33,NA,yellow,n_l_001.jpg,NA,NA,pleasant,unpleasant,NA,NA,NA,NA,NA,left,1239.89999999851,true,NA,NA,NA,NA,NA
1BATCa5X,344m16ozllsw98pkhqhl4zt7rn1nev,3qapzx2qn8q3ggjre2pog6kxo9b02z,1BATCa5X,2020-0188,2021-10-15,12:54:35,13:59:59,NA,incomplete,false,true,NA,3,34,NA,yellow,m_l_037.jpg,NA,NA,unpleasant,pleasant,NA,NA,NA,NA,NA,none,0,false,NA,NA,NA,NA,NA
1BATCa5X,344m16ozllsw98pkhqhl4zt7rn1nev,3qapzx2qn8q3ggjre2pog6kxo9b02z,1BATCa5X,2020-0188,2021-10-15,12:54:35,13:59:59,NA,incomplete,false,true,NA,3,35,NA,yellow,n_s_020.jpg,NA,NA,pleasant,unpleasant,NA,NA,NA,NA,NA,left,1257.79999999888,true,NA,NA,NA,NA,NA
1BATCa5X,344m16ozllsw98pkhqhl4zt7rn1nev,3qapzx2qn8q3ggjre2pog6kxo9b02z,1BATCa5X,2020-0188,2021-10-15,12:54:35,13:59:59,NA,incomplete,false,NA,true,3,0,NA,NA,NA,left,present,NA,NA,n_s_117.jpg,blue,n_l_060.jpg,yellow,between,NA,NaN,NA,left,8033.699999999255,1,2,1322.5
1BATCa5X,344m16ozllsw98pkhqhl4zt7rn1nev,3qapzx2qn8q3ggjre2pog6kxo9b02z,1BATCa5X,2020-0188,2021-10-15,12:54:35,13:59:59,NA,incomplete,false,NA,true,3,1,NA,NA,NA,left,present,NA,NA,m_s_084.jpg,yellow,n_s_020.jpg,yellow,within,NA,NaN,NA,left,1847.1000000014901,1,0,684.1999999992549
1BATCa5X,344m16ozllsw98pkhqhl4zt7rn1nev,3qapzx2qn8q3ggjre2pog6kxo9b02z,1BATCa5X,2020-0188,2021-10-15,12:54:35,13:59:59,NA,incomplete,false,NA,true,3,2,NA,NA,NA,left,present,NA,NA,n_s_080.jpg,orange,m_s_086.jpg,green,between,NA,NaN,NA,left,2523.5,1,3,930.3000000007451
1BATCa5X,344m16ozllsw98pkhqhl4zt7rn1nev,3qapzx2qn8q3ggjre2pog6kxo9b02z,1BATCa5X,2020-0188,2021-10-15,12:54:35,13:59:59,NA,incomplete,false,NA,true,3,3,NA,NA,NA,left,present,NA,NA,n_s_016.jpg,white,m_s_097.jpg,gray,between,NA,NaN,NA,right,4040.9000000003725,0,2,1554.0999999996275
1BATCa5X,344m16ozllsw98pkhqhl4zt7rn1nev,3qapzx2qn8q3ggjre2pog6kxo9b02z,1BATCa5X,2020-0188,2021-10-15,12:54:35,13:59:59,NA,incomplete,false,NA,true,3,4,NA,NA,NA,right,present,NA,NA,m_s_104.jpg,blue,m_l_087.jpg,blue,within,NA,NaN,NA,right,2734.9000000003725,1,0,1989.7000000011176
1BATCa5X,344m16ozllsw98pkhqhl4zt7rn1nev,3qapzx2qn8q3ggjre2pog6kxo9b02z,1BATCa5X,2020-0188,2021-10-15,12:54:35,13:59:59,NA,incomplete,false,NA,true,3,5,NA,NA,NA,right,present,NA,NA,m_s_053.jpg,gray,n_l_105.jpg,gray,within,NA,NaN,NA,right,3625.0999999996275,1,0,1006.9000000003725
1BATCa5X,344m16ozllsw98pkhqhl4zt7rn1nev,3qapzx2qn8q3ggjre2pog6kxo9b02z,1BATCa5X,2020-0188,2021-10-15,12:54:35,13:59:59,NA,incomplete,false,NA,true,3,6,NA,NA,NA,right,present,NA,NA,n_l_080.jpg,blue,m_s_060.jpg,green,between,NA,NaN,NA,left,2926.2999999988824,0,2,998.7000000011176
1BATCa5X,344m16ozllsw98pkhqhl4zt7rn1nev,3qapzx2qn8q3ggjre2pog6kxo9b02z,1BATCa5X,2020-0188,2021-10-15,12:54:35,13:59:59,NA,incomplete,false,NA,true,3,7,NA,NA,NA,right,present,NA,NA,m_s_045.jpg,orange,n_l_035.jpg,gray,between,NA,NaN,NA,right,4723,1,2,1481.5
1BATCa5X,344m16ozllsw98pkhqhl4zt7rn1nev,3qapzx2qn8q3ggjre2pog6kxo9b02z,1BATCa5X,2020-0188,2021-10-15,12:54:35,13:59:59,NA,incomplete,false,NA,true,3,8,NA,NA,NA,left,present,NA,NA,n_s_045.jpg,white,m_s_002.jpg,white,within,NA,NaN,NA,right,4451.0999999996275,0,1,1891.5999999996275
1BATCa5X,344m16ozllsw98pkhqhl4zt7rn1nev,3qapzx2qn8q3ggjre2pog6kxo9b02z,1BATCa5X,2020-0188,2021-10-15,12:54:35,13:59:59,NA,incomplete,false,NA,true,3,9,NA,NA,NA,right,present,NA,NA,m_l_070.jpg,orange,n_l_078.jpg,orange,within,NA,NaN,NA,right,2357.800000000745,1,1,953.1999999992549
1BATCa5X,344m16ozllsw98pkhqhl4zt7rn1nev,3qapzx2qn8q3ggjre2pog6kxo9b02z,1BATCa5X,2020-0188,2021-10-15,12:54:35,13:59:59,NA,incomplete,false,NA,true,3,10,NA,NA,NA,right,present,NA,NA,n_l_011.jpg,green,n_l_077.jpg,green,within,NA,NaN,NA,left,2013.2000000011176,0,0,1052.7999999988824
1BATCa5X,344m16ozllsw98pkhqhl4zt7rn1nev,3qapzx2qn8q3ggjre2pog6kxo9b02z,1BATCa5X,2020-0188,2021-10-15,12:54:35,13:59:59,NA,incomplete,false,true,NA,4,0,NA,brown,n_s_078.jpg,NA,NA,unpleasant,pleasant,NA,NA,NA,NA,NA,left,2390.60000000149,true,NA,NA,NA,NA,NA
1BATCa5X,344m16ozllsw98pkhqhl4zt7rn1nev,3qapzx2qn8q3ggjre2pog6kxo9b02z,1BATCa5X,2020-0188,2021-10-15,12:54:35,13:59:59,NA,incomplete,false,true,NA,4,1,NA,brown,n_s_009.jpg,NA,NA,pleasant,unpleasant,NA,NA,NA,NA,NA,left,1592,true,NA,NA,NA,NA,NA
1BATCa5X,344m16ozllsw98pkhqhl4zt7rn1nev,3qapzx2qn8q3ggjre2pog6kxo9b02z,1BATCa5X,2020-0188,2021-10-15,12:54:35,13:59:59,NA,incomplete,false,true,NA,4,2,NA,brown,m_l_106.jpg,NA,NA,unpleasant,pleasant,NA,NA,NA,NA,NA,right,1392.5,true,NA,NA,NA,NA,NA
1BATCa5X,344m16ozllsw98pkhqhl4zt7rn1nev,3qapzx2qn8q3ggjre2pog6kxo9b02z,1BATCa5X,2020-0188,2021-10-15,12:54:35,13:59:59,NA,incomplete,false,true,NA,4,3,NA,brown,m_l_008.jpg,NA,NA,unpleasant,pleasant,NA,NA,NA,NA,NA,right,957.099999999627,true,NA,NA,NA,NA,NA
1BATCa5X,344m16ozllsw98pkhqhl4zt7rn1nev,3qapzx2qn8q3ggjre2pog6kxo9b02z,1BATCa5X,2020-0188,2021-10-15,12:54:35,13:59:59,NA,incomplete,false,true,NA,4,4,NA,brown,n_s_042.jpg,NA,NA,pleasant,unpleasant,NA,NA,NA,NA,NA,right,1167.5,true,NA,NA,NA,NA,NA
1BATCa5X,344m16ozllsw98pkhqhl4zt7rn1nev,3qapzx2qn8q3ggjre2pog6kxo9b02z,1BATCa5X,2020-0188,2021-10-15,12:54:35,13:59:59,NA,incomplete,false,true,NA,4,5,NA,brown,m_l_024.jpg,NA,NA,pleasant,unpleasant,NA,NA,NA,NA,NA,left,1275.80000000075,true,NA,NA,NA,NA,NA
1BATCa5X,344m16ozllsw98pkhqhl4zt7rn1nev,3qapzx2qn8q3ggjre2pog6kxo9b02z,1BATCa5X,2020-0188,2021-10-15,12:54:35,13:59:59,NA,incomplete,false,true,NA,4,6,NA,purple,n_s_005.jpg,NA,NA,unpleasant,pleasant,NA,NA,NA,NA,NA,right,1281.5,true,NA,NA,NA,NA,NA
1BATCa5X,344m16ozllsw98pkhqhl4zt7rn1nev,3qapzx2qn8q3ggjre2pog6kxo9b02z,1BATCa5X,2020-0188,2021-10-15,12:54:35,13:59:59,NA,incomplete,false,true,NA,4,7,NA,purple,m_l_100.jpg,NA,NA,pleasant,unpleasant,NA,NA,NA,NA,NA,left,1392.5,true,NA,NA,NA,NA,NA
1BATCa5X,344m16ozllsw98pkhqhl4zt7rn1nev,3qapzx2qn8q3ggjre2pog6kxo9b02z,1BATCa5X,2020-0188,2021-10-15,12:54:35,13:59:59,NA,incomplete,false,true,NA,4,8,NA,purple,n_s_048.jpg,NA,NA,unpleasant,pleasant,NA,NA,NA,NA,NA,right,1555,true,NA,NA,NA,NA,NA
1BATCa5X,344m16ozllsw98pkhqhl4zt7rn1nev,3qapzx2qn8q3ggjre2pog6kxo9b02z,1BATCa5X,2020-0188,2021-10-15,12:54:35,13:59:59,NA,incomplete,false,true,NA,4,9,NA,purple,m_l_014.jpg,NA,NA,unpleasant,pleasant,NA,NA,NA,NA,NA,left,1141.20000000112,true,NA,NA,NA,NA,NA
1BATCa5X,344m16ozllsw98pkhqhl4zt7rn1nev,3qapzx2qn8q3ggjre2pog6kxo9b02z,1BATCa5X,2020-0188,2021-10-15,12:54:35,13:59:59,NA,incomplete,false,true,NA,4,10,NA,purple,n_l_106.jpg,NA,NA,pleasant,unpleasant,NA,NA,NA,NA,NA,left,1364.30000000075,true,NA,NA,NA,NA,NA
1BATCa5X,344m16ozllsw98pkhqhl4zt7rn1nev,3qapzx2qn8q3ggjre2pog6kxo9b02z,1BATCa5X,2020-0188,2021-10-15,12:54:35,13:59:59,NA,incomplete,false,true,NA,4,11,NA,purple,m_s_115.jpg,NA,NA,pleasant,unpleasant,NA,NA,NA,NA,NA,right,1083.5,true,NA,NA,NA,NA,NA
1BATCa5X,344m16ozllsw98pkhqhl4zt7rn1nev,3qapzx2qn8q3ggjre2pog6kxo9b02z,1BATCa5X,2020-0188,2021-10-15,12:54:35,13:59:59,NA,incomplete,false,true,NA,4,12,NA,black,m_l_117.jpg,NA,NA,unpleasant,pleasant,NA,NA,NA,NA,NA,right,1784.69999999925,true,NA,NA,NA,NA,NA
1BATCa5X,344m16ozllsw98pkhqhl4zt7rn1nev,3qapzx2qn8q3ggjre2pog6kxo9b02z,1BATCa5X,2020-0188,2021-10-15,12:54:35,13:59:59,NA,incomplete,false,true,NA,4,13,NA,black,n_s_069.jpg,NA,NA,unpleasant,pleasant,NA,NA,NA,NA,NA,right,1277.59999999963,true,NA,NA,NA,NA,NA
1BATCa5X,344m16ozllsw98pkhqhl4zt7rn1nev,3qapzx2qn8q3ggjre2pog6kxo9b02z,1BATCa5X,2020-0188,2021-10-15,12:54:35,13:59:59,NA,incomplete,false,true,NA,4,14,NA,black,m_s_059.jpg,NA,NA,unpleasant,pleasant,NA,NA,NA,NA,NA,right,1006.5,true,NA,NA,NA,NA,NA
1BATCa5X,344m16ozllsw98pkhqhl4zt7rn1nev,3qapzx2qn8q3ggjre2pog6kxo9b02z,1BATCa5X,2020-0188,2021-10-15,12:54:35,13:59:59,NA,incomplete,false,true,NA,4,15,NA,black,n_s_075.jpg,NA,NA,pleasant,unpleasant,NA,NA,NA,NA,NA,right,1159.39999999851,true,NA,NA,NA,NA,NA
1BATCa5X,344m16ozllsw98pkhqhl4zt7rn1nev,3qapzx2qn8q3ggjre2pog6kxo9b02z,1BATCa5X,2020-0188,2021-10-15,12:54:35,13:59:59,NA,incomplete,false,true,NA,4,16,NA,black,m_l_101.jpg,NA,NA,unpleasant,pleasant,NA,NA,NA,NA,NA,right,1501.80000000075,true,NA,NA,NA,NA,NA
1BATCa5X,344m16ozllsw98pkhqhl4zt7rn1nev,3qapzx2qn8q3ggjre2pog6kxo9b02z,1BATCa5X,2020-0188,2021-10-15,12:54:35,13:59:59,NA,incomplete,false,true,NA,4,17,NA,black,m_l_105.jpg,NA,NA,pleasant,unpleasant,NA,NA,NA,NA,NA,right,1399.19999999925,true,NA,NA,NA,NA,NA
1BATCa5X,344m16ozllsw98pkhqhl4zt7rn1nev,3qapzx2qn8q3ggjre2pog6kxo9b02z,1BATCa5X,2020-0188,2021-10-15,12:54:35,13:59:59,NA,incomplete,false,true,NA,4,18,NA,orange,m_l_093.jpg,NA,NA,pleasant,unpleasant,NA,NA,NA,NA,NA,right,1098,true,NA,NA,NA,NA,NA
1BATCa5X,344m16ozllsw98pkhqhl4zt7rn1nev,3qapzx2qn8q3ggjre2pog6kxo9b02z,1BATCa5X,2020-0188,2021-10-15,12:54:35,13:59:59,NA,incomplete,false,true,NA,4,19,NA,orange,n_s_083.jpg,NA,NA,unpleasant,pleasant,NA,NA,NA,NA,NA,right,1221.09999999963,true,NA,NA,NA,NA,NA
1BATCa5X,344m16ozllsw98pkhqhl4zt7rn1nev,3qapzx2qn8q3ggjre2pog6kxo9b02z,1BATCa5X,2020-0188,2021-10-15,12:54:35,13:59:59,NA,incomplete,false,true,NA,4,20,NA,orange,m_l_012.jpg,NA,NA,unpleasant,pleasant,NA,NA,NA,NA,NA,left,977.599999999627,true,NA,NA,NA,NA,NA
1BATCa5X,344m16ozllsw98pkhqhl4zt7rn1nev,3qapzx2qn8q3ggjre2pog6kxo9b02z,1BATCa5X,2020-0188,2021-10-15,12:54:35,13:59:59,NA,incomplete,false,true,NA,4,21,NA,orange,n_s_110.jpg,NA,NA,unpleasant,pleasant,NA,NA,NA,NA,NA,left,1479.5,true,NA,NA,NA,NA,NA
1BATCa5X,344m16ozllsw98pkhqhl4zt7rn1nev,3qapzx2qn8q3ggjre2pog6kxo9b02z,1BATCa5X,2020-0188,2021-10-15,12:54:35,13:59:59,NA,incomplete,false,true,NA,4,22,NA,orange,n_l_116.jpg,NA,NA,pleasant,unpleasant,NA,NA,NA,NA,NA,left,1893.19999999925,true,NA,NA,NA,NA,NA
1BATCa5X,344m16ozllsw98pkhqhl4zt7rn1nev,3qapzx2qn8q3ggjre2pog6kxo9b02z,1BATCa5X,2020-0188,2021-10-15,12:54:35,13:59:59,NA,incomplete,false,true,NA,4,23,NA,orange,m_l_039.jpg,NA,NA,pleasant,unpleasant,NA,NA,NA,NA,NA,right,961.10000000149,true,NA,NA,NA,NA,NA
1BATCa5X,344m16ozllsw98pkhqhl4zt7rn1nev,3qapzx2qn8q3ggjre2pog6kxo9b02z,1BATCa5X,2020-0188,2021-10-15,12:54:35,13:59:59,NA,incomplete,false,true,NA,4,24,NA,blue,m_l_031.jpg,NA,NA,unpleasant,pleasant,NA,NA,NA,NA,NA,left,1923.09999999963,true,NA,NA,NA,NA,NA
1BATCa5X,344m16ozllsw98pkhqhl4zt7rn1nev,3qapzx2qn8q3ggjre2pog6kxo9b02z,1BATCa5X,2020-0188,2021-10-15,12:54:35,13:59:59,NA,incomplete,false,true,NA,4,25,NA,blue,n_l_109.jpg,NA,NA,pleasant,unpleasant,NA,NA,NA,NA,NA,right,1420,true,NA,NA,NA,NA,NA
1BATCa5X,344m16ozllsw98pkhqhl4zt7rn1nev,3qapzx2qn8q3ggjre2pog6kxo9b02z,1BATCa5X,2020-0188,2021-10-15,12:54:35,13:59:59,NA,incomplete,false,true,NA,4,26,NA,blue,n_s_109.jpg,NA,NA,unpleasant,pleasant,NA,NA,NA,NA,NA,left,1719.09999999963,true,NA,NA,NA,NA,NA
1BATCa5X,344m16ozllsw98pkhqhl4zt7rn1nev,3qapzx2qn8q3ggjre2pog6kxo9b02z,1BATCa5X,2020-0188,2021-10-15,12:54:35,13:59:59,NA,incomplete,false,true,NA,4,27,NA,blue,n_s_057.jpg,NA,NA,pleasant,unpleasant,NA,NA,NA,NA,NA,right,1081.29999999888,true,NA,NA,NA,NA,NA
1BATCa5X,344m16ozllsw98pkhqhl4zt7rn1nev,3qapzx2qn8q3ggjre2pog6kxo9b02z,1BATCa5X,2020-0188,2021-10-15,12:54:35,13:59:59,NA,incomplete,false,true,NA,4,28,NA,blue,m_s_081.jpg,NA,NA,unpleasant,pleasant,NA,NA,NA,NA,NA,left,1348.59999999963,true,NA,NA,NA,NA,NA
1BATCa5X,344m16ozllsw98pkhqhl4zt7rn1nev,3qapzx2qn8q3ggjre2pog6kxo9b02z,1BATCa5X,2020-0188,2021-10-15,12:54:35,13:59:59,NA,incomplete,false,true,NA,4,29,NA,blue,m_s_022.jpg,NA,NA,pleasant,unpleasant,NA,NA,NA,NA,NA,left,2111.89999999851,true,NA,NA,NA,NA,NA
1BATCa5X,344m16ozllsw98pkhqhl4zt7rn1nev,3qapzx2qn8q3ggjre2pog6kxo9b02z,1BATCa5X,2020-0188,2021-10-15,12:54:35,13:59:59,NA,incomplete,false,true,NA,4,30,NA,white,n_l_006.jpg,NA,NA,pleasant,unpleasant,NA,NA,NA,NA,NA,left,1277.69999999925,true,NA,NA,NA,NA,NA
1BATCa5X,344m16ozllsw98pkhqhl4zt7rn1nev,3qapzx2qn8q3ggjre2pog6kxo9b02z,1BATCa5X,2020-0188,2021-10-15,12:54:35,13:59:59,NA,incomplete,false,true,NA,4,31,NA,white,n_l_017.jpg,NA,NA,unpleasant,pleasant,NA,NA,NA,NA,NA,left,1506.69999999925,true,NA,NA,NA,NA,NA
1BATCa5X,344m16ozllsw98pkhqhl4zt7rn1nev,3qapzx2qn8q3ggjre2pog6kxo9b02z,1BATCa5X,2020-0188,2021-10-15,12:54:35,13:59:59,NA,incomplete,false,true,NA,4,32,NA,white,m_l_020.jpg,NA,NA,pleasant,unpleasant,NA,NA,NA,NA,NA,right,1053.19999999925,true,NA,NA,NA,NA,NA
1BATCa5X,344m16ozllsw98pkhqhl4zt7rn1nev,3qapzx2qn8q3ggjre2pog6kxo9b02z,1BATCa5X,2020-0188,2021-10-15,12:54:35,13:59:59,NA,incomplete,false,true,NA,4,33,NA,white,n_l_059.jpg,NA,NA,unpleasant,pleasant,NA,NA,NA,NA,NA,left,1284.20000000112,true,NA,NA,NA,NA,NA
1BATCa5X,344m16ozllsw98pkhqhl4zt7rn1nev,3qapzx2qn8q3ggjre2pog6kxo9b02z,1BATCa5X,2020-0188,2021-10-15,12:54:35,13:59:59,NA,incomplete,false,true,NA,4,34,NA,white,m_l_077.jpg,NA,NA,unpleasant,pleasant,NA,NA,NA,NA,NA,left,1222.90000000037,true,NA,NA,NA,NA,NA
1BATCa5X,344m16ozllsw98pkhqhl4zt7rn1nev,3qapzx2qn8q3ggjre2pog6kxo9b02z,1BATCa5X,2020-0188,2021-10-15,12:54:35,13:59:59,NA,incomplete,false,true,NA,4,35,NA,white,m_l_064.jpg,NA,NA,pleasant,unpleasant,NA,NA,NA,NA,NA,left,1610.30000000075,true,NA,NA,NA,NA,NA
1BATCa5X,344m16ozllsw98pkhqhl4zt7rn1nev,3qapzx2qn8q3ggjre2pog6kxo9b02z,1BATCa5X,2020-0188,2021-10-15,12:54:35,13:59:59,NA,incomplete,false,NA,true,4,0,NA,NA,NA,left,present,NA,NA,n_l_106.jpg,purple,m_s_059.jpg,black,between,NA,NaN,NA,left,3394.300000000745,1,1,5066.5999999996275
1BATCa5X,344m16ozllsw98pkhqhl4zt7rn1nev,3qapzx2qn8q3ggjre2pog6kxo9b02z,1BATCa5X,2020-0188,2021-10-15,12:54:35,13:59:59,NA,incomplete,false,NA,true,4,1,NA,NA,NA,left,present,NA,NA,n_l_116.jpg,orange,n_s_109.jpg,blue,between,NA,NaN,NA,right,2331.300000000745,0,0,924.9000000003725
1BATCa5X,344m16ozllsw98pkhqhl4zt7rn1nev,3qapzx2qn8q3ggjre2pog6kxo9b02z,1BATCa5X,2020-0188,2021-10-15,12:54:35,13:59:59,NA,incomplete,false,NA,true,4,2,NA,NA,NA,right,present,NA,NA,m_l_064.jpg,white,n_l_017.jpg,white,within,NA,NaN,NA,right,2077.5999999996275,1,0,926.4000000003725
1BATCa5X,344m16ozllsw98pkhqhl4zt7rn1nev,3qapzx2qn8q3ggjre2pog6kxo9b02z,1BATCa5X,2020-0188,2021-10-15,12:54:35,13:59:59,NA,incomplete,false,NA,true,4,3,NA,NA,NA,left,present,NA,NA,m_s_081.jpg,blue,m_l_020.jpg,white,between,NA,NaN,NA,left,2313.10000000149,1,2,1917
1BATCa5X,344m16ozllsw98pkhqhl4zt7rn1nev,3qapzx2qn8q3ggjre2pog6kxo9b02z,1BATCa5X,2020-0188,2021-10-15,12:54:35,13:59:59,NA,incomplete,false,NA,true,4,4,NA,NA,NA,right,present,NA,NA,m_s_115.jpg,purple,m_l_100.jpg,purple,within,NA,NaN,NA,left,2411.4000000003725,0,1,894
1BATCa5X,344m16ozllsw98pkhqhl4zt7rn1nev,3qapzx2qn8q3ggjre2pog6kxo9b02z,1BATCa5X,2020-0188,2021-10-15,12:54:35,13:59:59,NA,incomplete,false,NA,true,4,5,NA,NA,NA,left,present,NA,NA,n_l_109.jpg,blue,m_s_022.jpg,blue,within,NA,NaN,NA,left,3050.5999999996275,1,2,1233.199999999255
1BATCa5X,344m16ozllsw98pkhqhl4zt7rn1nev,3qapzx2qn8q3ggjre2pog6kxo9b02z,1BATCa5X,2020-0188,2021-10-15,12:54:35,13:59:59,NA,incomplete,false,NA,true,4,6,NA,NA,NA,right,present,NA,NA,m_l_012.jpg,orange,m_l_101.jpg,black,between,NA,NaN,NA,left,3894.5,0,1,1160.2000000011176
1BATCa5X,344m16ozllsw98pkhqhl4zt7rn1nev,3qapzx2qn8q3ggjre2pog6kxo9b02z,1BATCa5X,2020-0188,2021-10-15,12:54:35,13:59:59,NA,incomplete,false,NA,true,4,7,NA,NA,NA,right,present,NA,NA,m_l_024.jpg,brown,n_s_009.jpg,brown,within,NA,NaN,NA,right,2325.199999999255,1,1,2589.0999999996275
1BATCa5X,344m16ozllsw98pkhqhl4zt7rn1nev,3qapzx2qn8q3ggjre2pog6kxo9b02z,1BATCa5X,2020-0188,2021-10-15,12:54:35,13:59:59,NA,incomplete,false,NA,true,4,8,NA,NA,NA,left,present,NA,NA,n_s_083.jpg,orange,m_l_039.jpg,orange,within,NA,NaN,NA,right,3503.4000000003725,0,1,1359.0999999996275
1BATCa5X,344m16ozllsw98pkhqhl4zt7rn1nev,3qapzx2qn8q3ggjre2pog6kxo9b02z,1BATCa5X,2020-0188,2021-10-15,12:54:35,13:59:59,NA,incomplete,false,NA,true,4,9,NA,NA,NA,left,present,NA,NA,n_s_069.jpg,black,m_l_105.jpg,black,within,NA,NaN,NA,left,2397,1,2,1466.5
1BATCa5X,344m16ozllsw98pkhqhl4zt7rn1nev,3qapzx2qn8q3ggjre2pog6kxo9b02z,1BATCa5X,2020-0188,2021-10-15,12:54:35,13:59:59,NA,incomplete,false,NA,true,4,10,NA,NA,NA,right,present,NA,NA,n_s_048.jpg,purple,n_s_042.jpg,brown,between,NA,NaN,NA,left,2252.5999999996275,0,3,1232.5999999996275
1BATCa5X,344m16ozllsw98pkhqhl4zt7rn1nev,3qapzx2qn8q3ggjre2pog6kxo9b02z,1BATCa5X,2020-0188,2021-10-15,12:54:35,13:59:59,NA,incomplete,false,true,NA,5,0,NA,gray,n_l_053.jpg,NA,NA,unpleasant,pleasant,NA,NA,NA,NA,NA,right,1581.09999999963,true,NA,NA,NA,NA,NA
1BATCa5X,344m16ozllsw98pkhqhl4zt7rn1nev,3qapzx2qn8q3ggjre2pog6kxo9b02z,1BATCa5X,2020-0188,2021-10-15,12:54:35,13:59:59,NA,incomplete,false,true,NA,5,1,NA,gray,m_l_074.jpg,NA,NA,pleasant,unpleasant,NA,NA,NA,NA,NA,left,1317.5,true,NA,NA,NA,NA,NA
1BATCa5X,344m16ozllsw98pkhqhl4zt7rn1nev,3qapzx2qn8q3ggjre2pog6kxo9b02z,1BATCa5X,2020-0188,2021-10-15,12:54:35,13:59:59,NA,incomplete,false,true,NA,5,2,NA,gray,m_s_108.jpg,NA,NA,pleasant,unpleasant,NA,NA,NA,NA,NA,right,2101.19999999925,true,NA,NA,NA,NA,NA
1BATCa5X,344m16ozllsw98pkhqhl4zt7rn1nev,3qapzx2qn8q3ggjre2pog6kxo9b02z,1BATCa5X,2020-0188,2021-10-15,12:54:35,13:59:59,NA,incomplete,false,true,NA,5,3,NA,gray,n_l_033.jpg,NA,NA,pleasant,unpleasant,NA,NA,NA,NA,NA,left,1167.30000000075,true,NA,NA,NA,NA,NA
1BATCa5X,344m16ozllsw98pkhqhl4zt7rn1nev,3qapzx2qn8q3ggjre2pog6kxo9b02z,1BATCa5X,2020-0188,2021-10-15,12:54:35,13:59:59,NA,incomplete,false,true,NA,5,4,NA,gray,m_s_089.jpg,NA,NA,unpleasant,pleasant,NA,NA,NA,NA,NA,left,1386.90000000037,true,NA,NA,NA,NA,NA
1BATCa5X,344m16ozllsw98pkhqhl4zt7rn1nev,3qapzx2qn8q3ggjre2pog6kxo9b02z,1BATCa5X,2020-0188,2021-10-15,12:54:35,13:59:59,NA,incomplete,false,true,NA,5,5,NA,gray,m_s_067.jpg,NA,NA,unpleasant,pleasant,NA,NA,NA,NA,NA,right,936.5,true,NA,NA,NA,NA,NA
1BATCa5X,344m16ozllsw98pkhqhl4zt7rn1nev,3qapzx2qn8q3ggjre2pog6kxo9b02z,1BATCa5X,2020-0188,2021-10-15,12:54:35,13:59:59,NA,incomplete,false,true,NA,5,6,NA,green,m_l_015.jpg,NA,NA,unpleasant,pleasant,NA,NA,NA,NA,NA,right,1114.90000000037,true,NA,NA,NA,NA,NA
1BATCa5X,344m16ozllsw98pkhqhl4zt7rn1nev,3qapzx2qn8q3ggjre2pog6kxo9b02z,1BATCa5X,2020-0188,2021-10-15,12:54:35,13:59:59,NA,incomplete,false,true,NA,5,7,NA,green,n_s_028.jpg,NA,NA,unpleasant,pleasant,NA,NA,NA,NA,NA,right,1072.30000000075,true,NA,NA,NA,NA,NA
1BATCa5X,344m16ozllsw98pkhqhl4zt7rn1nev,3qapzx2qn8q3ggjre2pog6kxo9b02z,1BATCa5X,2020-0188,2021-10-15,12:54:35,13:59:59,NA,incomplete,false,true,NA,5,8,NA,green,m_s_024.jpg,NA,NA,unpleasant,pleasant,NA,NA,NA,NA,NA,right,1270.10000000149,true,NA,NA,NA,NA,NA
1BATCa5X,344m16ozllsw98pkhqhl4zt7rn1nev,3qapzx2qn8q3ggjre2pog6kxo9b02z,1BATCa5X,2020-0188,2021-10-15,12:54:35,13:59:59,NA,incomplete,false,true,NA,5,9,NA,green,n_s_115.jpg,NA,NA,unpleasant,pleasant,NA,NA,NA,NA,NA,right,1168.59999999963,true,NA,NA,NA,NA,NA
1BATCa5X,344m16ozllsw98pkhqhl4zt7rn1nev,3qapzx2qn8q3ggjre2pog6kxo9b02z,1BATCa5X,2020-0188,2021-10-15,12:54:35,13:59:59,NA,incomplete,false,true,NA,5,10,NA,green,m_s_061.jpg,NA,NA,pleasant,unpleasant,NA,NA,NA,NA,NA,left,1801,true,NA,NA,NA,NA,NA
1BATCa5X,344m16ozllsw98pkhqhl4zt7rn1nev,3qapzx2qn8q3ggjre2pog6kxo9b02z,1BATCa5X,2020-0188,2021-10-15,12:54:35,13:59:59,NA,incomplete,false,true,NA,5,11,NA,green,m_l_072.jpg,NA,NA,unpleasant,pleasant,NA,NA,NA,NA,NA,left,1514.5,true,NA,NA,NA,NA,NA
1BATCa5X,344m16ozllsw98pkhqhl4zt7rn1nev,3qapzx2qn8q3ggjre2pog6kxo9b02z,1BATCa5X,2020-0188,2021-10-15,12:54:35,13:59:59,NA,incomplete,false,true,NA,5,12,NA,brown,m_s_056.jpg,NA,NA,unpleasant,pleasant,NA,NA,NA,NA,NA,right,1855.20000000112,true,NA,NA,NA,NA,NA
1BATCa5X,344m16ozllsw98pkhqhl4zt7rn1nev,3qapzx2qn8q3ggjre2pog6kxo9b02z,1BATCa5X,2020-0188,2021-10-15,12:54:35,13:59:59,NA,incomplete,false,true,NA,5,13,NA,brown,n_l_027.jpg,NA,NA,unpleasant,pleasant,NA,NA,NA,NA,NA,right,1559.20000000112,true,NA,NA,NA,NA,NA
1BATCa5X,344m16ozllsw98pkhqhl4zt7rn1nev,3qapzx2qn8q3ggjre2pog6kxo9b02z,1BATCa5X,2020-0188,2021-10-15,12:54:35,13:59:59,NA,incomplete,false,true,NA,5,14,NA,brown,n_s_026.jpg,NA,NA,unpleasant,pleasant,NA,NA,NA,NA,NA,left,1004.80000000075,true,NA,NA,NA,NA,NA
1BATCa5X,344m16ozllsw98pkhqhl4zt7rn1nev,3qapzx2qn8q3ggjre2pog6kxo9b02z,1BATCa5X,2020-0188,2021-10-15,12:54:35,13:59:59,NA,incomplete,false,true,NA,5,15,NA,brown,n_l_010.jpg,NA,NA,unpleasant,pleasant,NA,NA,NA,NA,NA,right,979.400000000373,true,NA,NA,NA,NA,NA
1BATCa5X,344m16ozllsw98pkhqhl4zt7rn1nev,3qapzx2qn8q3ggjre2pog6kxo9b02z,1BATCa5X,2020-0188,2021-10-15,12:54:35,13:59:59,NA,incomplete,false,true,NA,5,16,NA,brown,n_s_065.jpg,NA,NA,pleasant,unpleasant,NA,NA,NA,NA,NA,right,1233.90000000037,true,NA,NA,NA,NA,NA
1BATCa5X,344m16ozllsw98pkhqhl4zt7rn1nev,3qapzx2qn8q3ggjre2pog6kxo9b02z,1BATCa5X,2020-0188,2021-10-15,12:54:35,13:59:59,NA,incomplete,false,true,NA,5,17,NA,brown,m_l_007.jpg,NA,NA,pleasant,unpleasant,NA,NA,NA,NA,NA,right,1046,true,NA,NA,NA,NA,NA
1BATCa5X,344m16ozllsw98pkhqhl4zt7rn1nev,3qapzx2qn8q3ggjre2pog6kxo9b02z,1BATCa5X,2020-0188,2021-10-15,12:54:35,13:59:59,NA,incomplete,false,true,NA,5,18,NA,red,n_l_094.jpg,NA,NA,pleasant,unpleasant,NA,NA,NA,NA,NA,left,1134.19999999925,true,NA,NA,NA,NA,NA
1BATCa5X,344m16ozllsw98pkhqhl4zt7rn1nev,3qapzx2qn8q3ggjre2pog6kxo9b02z,1BATCa5X,2020-0188,2021-10-15,12:54:35,13:59:59,NA,incomplete,false,true,NA,5,19,NA,red,m_l_102.jpg,NA,NA,unpleasant,pleasant,NA,NA,NA,NA,NA,left,1340.10000000149,true,NA,NA,NA,NA,NA
1BATCa5X,344m16ozllsw98pkhqhl4zt7rn1nev,3qapzx2qn8q3ggjre2pog6kxo9b02z,1BATCa5X,2020-0188,2021-10-15,12:54:35,13:59:59,NA,incomplete,false,true,NA,5,20,NA,red,n_l_113.jpg,NA,NA,pleasant,unpleasant,NA,NA,NA,NA,NA,right,1161.90000000037,true,NA,NA,NA,NA,NA
1BATCa5X,344m16ozllsw98pkhqhl4zt7rn1nev,3qapzx2qn8q3ggjre2pog6kxo9b02z,1BATCa5X,2020-0188,2021-10-15,12:54:35,13:59:59,NA,incomplete,false,true,NA,5,21,NA,red,m_s_096.jpg,NA,NA,unpleasant,pleasant,NA,NA,NA,NA,NA,left,2169.80000000075,true,NA,NA,NA,NA,NA
1BATCa5X,344m16ozllsw98pkhqhl4zt7rn1nev,3qapzx2qn8q3ggjre2pog6kxo9b02z,1BATCa5X,2020-0188,2021-10-15,12:54:35,13:59:59,NA,incomplete,false,true,NA,5,22,NA,red,m_s_098.jpg,NA,NA,pleasant,unpleasant,NA,NA,NA,NA,NA,right,1558.40000000037,true,NA,NA,NA,NA,NA
1BATCa5X,344m16ozllsw98pkhqhl4zt7rn1nev,3qapzx2qn8q3ggjre2pog6kxo9b02z,1BATCa5X,2020-0188,2021-10-15,12:54:35,13:59:59,NA,incomplete,false,true,NA,5,23,NA,red,m_s_025.jpg,NA,NA,pleasant,unpleasant,NA,NA,NA,NA,NA,right,1051.5,true,NA,NA,NA,NA,NA
1BATCa5X,344m16ozllsw98pkhqhl4zt7rn1nev,3qapzx2qn8q3ggjre2pog6kxo9b02z,1BATCa5X,2020-0188,2021-10-15,12:54:35,13:59:59,NA,incomplete,false,true,NA,5,24,NA,yellow,m_l_002.jpg,NA,NA,unpleasant,pleasant,NA,NA,NA,NA,NA,right,1866.20000000112,true,NA,NA,NA,NA,NA
1BATCa5X,344m16ozllsw98pkhqhl4zt7rn1nev,3qapzx2qn8q3ggjre2pog6kxo9b02z,1BATCa5X,2020-0188,2021-10-15,12:54:35,13:59:59,NA,incomplete,false,true,NA,5,25,NA,yellow,m_l_034.jpg,NA,NA,pleasant,unpleasant,NA,NA,NA,NA,NA,right,1090,true,NA,NA,NA,NA,NA
1BATCa5X,344m16ozllsw98pkhqhl4zt7rn1nev,3qapzx2qn8q3ggjre2pog6kxo9b02z,1BATCa5X,2020-0188,2021-10-15,12:54:35,13:59:59,NA,incomplete,false,true,NA,5,26,NA,yellow,m_l_033.jpg,NA,NA,unpleasant,pleasant,NA,NA,NA,NA,NA,left,1125,true,NA,NA,NA,NA,NA
1BATCa5X,344m16ozllsw98pkhqhl4zt7rn1nev,3qapzx2qn8q3ggjre2pog6kxo9b02z,1BATCa5X,2020-0188,2021-10-15,12:54:35,13:59:59,NA,incomplete,false,true,NA,5,27,NA,yellow,n_s_017.jpg,NA,NA,unpleasant,pleasant,NA,NA,NA,NA,NA,right,1337,true,NA,NA,NA,NA,NA
1BATCa5X,344m16ozllsw98pkhqhl4zt7rn1nev,3qapzx2qn8q3ggjre2pog6kxo9b02z,1BATCa5X,2020-0188,2021-10-15,12:54:35,13:59:59,NA,incomplete,false,true,NA,5,28,NA,yellow,m_s_087.jpg,NA,NA,unpleasant,pleasant,NA,NA,NA,NA,NA,left,1224,true,NA,NA,NA,NA,NA
1BATCa5X,344m16ozllsw98pkhqhl4zt7rn1nev,3qapzx2qn8q3ggjre2pog6kxo9b02z,1BATCa5X,2020-0188,2021-10-15,12:54:35,13:59:59,NA,incomplete,false,true,NA,5,29,NA,yellow,n_l_020.jpg,NA,NA,pleasant,unpleasant,NA,NA,NA,NA,NA,left,1384.30000000075,true,NA,NA,NA,NA,NA
1BATCa5X,344m16ozllsw98pkhqhl4zt7rn1nev,3qapzx2qn8q3ggjre2pog6kxo9b02z,1BATCa5X,2020-0188,2021-10-15,12:54:35,13:59:59,NA,incomplete,false,true,NA,5,30,NA,black,m_s_070.jpg,NA,NA,pleasant,unpleasant,NA,NA,NA,NA,NA,right,1057.40000000037,true,NA,NA,NA,NA,NA
1BATCa5X,344m16ozllsw98pkhqhl4zt7rn1nev,3qapzx2qn8q3ggjre2pog6kxo9b02z,1BATCa5X,2020-0188,2021-10-15,12:54:35,13:59:59,NA,incomplete,false,true,NA,5,31,NA,black,m_s_017.jpg,NA,NA,unpleasant,pleasant,NA,NA,NA,NA,NA,left,1267.89999999851,true,NA,NA,NA,NA,NA
1BATCa5X,344m16ozllsw98pkhqhl4zt7rn1nev,3qapzx2qn8q3ggjre2pog6kxo9b02z,1BATCa5X,2020-0188,2021-10-15,12:54:35,13:59:59,NA,incomplete,false,true,NA,5,32,NA,black,m_s_075.jpg,NA,NA,unpleasant,pleasant,NA,NA,NA,NA,NA,right,1334.59999999963,true,NA,NA,NA,NA,NA
1BATCa5X,344m16ozllsw98pkhqhl4zt7rn1nev,3qapzx2qn8q3ggjre2pog6kxo9b02z,1BATCa5X,2020-0188,2021-10-15,12:54:35,13:59:59,NA,incomplete,false,true,NA,5,33,NA,black,m_s_038.jpg,NA,NA,unpleasant,pleasant,NA,NA,NA,NA,NA,right,1222.40000000037,true,NA,NA,NA,NA,NA
1BATCa5X,344m16ozllsw98pkhqhl4zt7rn1nev,3qapzx2qn8q3ggjre2pog6kxo9b02z,1BATCa5X,2020-0188,2021-10-15,12:54:35,13:59:59,NA,incomplete,false,true,NA,5,34,NA,black,n_s_015.jpg,NA,NA,unpleasant,pleasant,NA,NA,NA,NA,NA,right,1498.40000000037,true,NA,NA,NA,NA,NA
1BATCa5X,344m16ozllsw98pkhqhl4zt7rn1nev,3qapzx2qn8q3ggjre2pog6kxo9b02z,1BATCa5X,2020-0188,2021-10-15,12:54:35,13:59:59,NA,incomplete,false,true,NA,5,35,NA,black,m_l_048.jpg,NA,NA,unpleasant,pleasant,NA,NA,NA,NA,NA,right,1041.09999999963,true,NA,NA,NA,NA,NA
1BATCa5X,344m16ozllsw98pkhqhl4zt7rn1nev,3qapzx2qn8q3ggjre2pog6kxo9b02z,1BATCa5X,2020-0188,2021-10-15,12:54:35,13:59:59,NA,incomplete,false,NA,true,5,0,NA,NA,NA,right,present,NA,NA,m_s_067.jpg,gray,m_l_074.jpg,gray,within,NA,NaN,NA,right,1629.5999999996275,1,0,1727.5
1BATCa5X,344m16ozllsw98pkhqhl4zt7rn1nev,3qapzx2qn8q3ggjre2pog6kxo9b02z,1BATCa5X,2020-0188,2021-10-15,12:54:35,13:59:59,NA,incomplete,false,NA,true,5,1,NA,NA,NA,left,present,NA,NA,m_s_089.jpg,gray,m_s_024.jpg,green,between,NA,NaN,NA,left,5429.5999999996275,1,1,1762.5
1BATCa5X,344m16ozllsw98pkhqhl4zt7rn1nev,3qapzx2qn8q3ggjre2pog6kxo9b02z,1BATCa5X,2020-0188,2021-10-15,12:54:35,13:59:59,NA,incomplete,false,NA,true,5,2,NA,NA,NA,left,present,NA,NA,m_s_017.jpg,black,m_l_048.jpg,black,within,NA,NaN,NA,right,2654.7000000011176,0,0,801.0999999996275
1BATCa5X,344m16ozllsw98pkhqhl4zt7rn1nev,3qapzx2qn8q3ggjre2pog6kxo9b02z,1BATCa5X,2020-0188,2021-10-15,12:54:35,13:59:59,NA,incomplete,false,NA,true,5,3,NA,NA,NA,left,present,NA,NA,m_s_087.jpg,yellow,m_s_075.jpg,black,between,NA,NaN,NA,left,2606.199999999255,1,2,1046.5
1BATCa5X,344m16ozllsw98pkhqhl4zt7rn1nev,3qapzx2qn8q3ggjre2pog6kxo9b02z,1BATCa5X,2020-0188,2021-10-15,12:54:35,13:59:59,NA,incomplete,false,NA,true,5,4,NA,NA,NA,right,present,NA,NA,m_l_033.jpg,yellow,m_s_098.jpg,red,between,NA,NaN,NA,right,3725.7000000011176,1,1,1108.7000000011176
1BATCa5X,344m16ozllsw98pkhqhl4zt7rn1nev,3qapzx2qn8q3ggjre2pog6kxo9b02z,1BATCa5X,2020-0188,2021-10-15,12:54:35,13:59:59,NA,incomplete,false,NA,true,5,5,NA,NA,NA,right,present,NA,NA,n_l_113.jpg,red,n_s_065.jpg,brown,between,NA,NaN,NA,right,2670.0999999996275,1,1,1376.7999999988824
1BATCa5X,344m16ozllsw98pkhqhl4zt7rn1nev,3qapzx2qn8q3ggjre2pog6kxo9b02z,1BATCa5X,2020-0188,2021-10-15,12:54:35,13:59:59,NA,incomplete,false,NA,true,5,6,NA,NA,NA,right,present,NA,NA,n_s_026.jpg,brown,m_s_061.jpg,green,between,NA,NaN,NA,left,2221.699999999255,0,1,1493.2000000011176
1BATCa5X,344m16ozllsw98pkhqhl4zt7rn1nev,3qapzx2qn8q3ggjre2pog6kxo9b02z,1BATCa5X,2020-0188,2021-10-15,12:54:35,13:59:59,NA,incomplete,false,NA,true,5,7,NA,NA,NA,left,present,NA,NA,m_l_102.jpg,red,m_s_025.jpg,red,within,NA,NaN,NA,left,2638.4000000003725,1,0,1273.2999999988824
1BATCa5X,344m16ozllsw98pkhqhl4zt7rn1nev,3qapzx2qn8q3ggjre2pog6kxo9b02z,1BATCa5X,2020-0188,2021-10-15,12:54:35,13:59:59,NA,incomplete,false,NA,true,5,8,NA,NA,NA,right,present,NA,NA,m_l_007.jpg,brown,n_l_027.jpg,brown,within,NA,NaN,NA,right,1820.699999999255,1,1,1169.300000000745
1BATCa5X,344m16ozllsw98pkhqhl4zt7rn1nev,3qapzx2qn8q3ggjre2pog6kxo9b02z,1BATCa5X,2020-0188,2021-10-15,12:54:35,13:59:59,NA,incomplete,false,NA,true,5,9,NA,NA,NA,left,present,NA,NA,m_l_034.jpg,yellow,n_l_020.jpg,yellow,within,NA,NaN,NA,left,3062.5,1,0,1929.2000000011176
1BATCa5X,344m16ozllsw98pkhqhl4zt7rn1nev,3qapzx2qn8q3ggjre2pog6kxo9b02z,1BATCa5X,2020-0188,2021-10-15,12:54:35,13:59:59,NA,incomplete,false,NA,true,5,10,NA,NA,NA,left,present,NA,NA,n_s_028.jpg,green,m_l_072.jpg,green,within,NA,NaN,NA,right,3556,0,1,2133.0999999996275
1BATCa5X,344m16ozllsw98pkhqhl4zt7rn1nev,3qapzx2qn8q3ggjre2pog6kxo9b02z,1BATCa5X,2020-0188,2021-10-15,12:54:35,13:59:59,NA,incomplete,false,true,NA,6,0,NA,purple,n_l_103.jpg,NA,NA,unpleasant,pleasant,NA,NA,NA,NA,NA,left,2090.40000000037,true,NA,NA,NA,NA,NA
1BATCa5X,344m16ozllsw98pkhqhl4zt7rn1nev,3qapzx2qn8q3ggjre2pog6kxo9b02z,1BATCa5X,2020-0188,2021-10-15,12:54:35,13:59:59,NA,incomplete,false,true,NA,6,1,NA,purple,m_l_040.jpg,NA,NA,pleasant,unpleasant,NA,NA,NA,NA,NA,right,1247,true,NA,NA,NA,NA,NA
1BATCa5X,344m16ozllsw98pkhqhl4zt7rn1nev,3qapzx2qn8q3ggjre2pog6kxo9b02z,1BATCa5X,2020-0188,2021-10-15,12:54:35,13:59:59,NA,incomplete,false,true,NA,6,2,NA,purple,m_l_054.jpg,NA,NA,pleasant,unpleasant,NA,NA,NA,NA,NA,right,1097.69999999925,true,NA,NA,NA,NA,NA
1BATCa5X,344m16ozllsw98pkhqhl4zt7rn1nev,3qapzx2qn8q3ggjre2pog6kxo9b02z,1BATCa5X,2020-0188,2021-10-15,12:54:35,13:59:59,NA,incomplete,false,true,NA,6,3,NA,purple,n_s_100.jpg,NA,NA,pleasant,unpleasant,NA,NA,NA,NA,NA,left,1083.70000000112,true,NA,NA,NA,NA,NA
1BATCa5X,344m16ozllsw98pkhqhl4zt7rn1nev,3qapzx2qn8q3ggjre2pog6kxo9b02z,1BATCa5X,2020-0188,2021-10-15,12:54:35,13:59:59,NA,incomplete,false,true,NA,6,4,NA,purple,m_l_058.jpg,NA,NA,pleasant,unpleasant,NA,NA,NA,NA,NA,right,1002.59999999963,true,NA,NA,NA,NA,NA
1BATCa5X,344m16ozllsw98pkhqhl4zt7rn1nev,3qapzx2qn8q3ggjre2pog6kxo9b02z,1BATCa5X,2020-0188,2021-10-15,12:54:35,13:59:59,NA,incomplete,false,true,NA,6,5,NA,purple,n_s_031.jpg,NA,NA,pleasant,unpleasant,NA,NA,NA,NA,NA,left,1215.69999999925,true,NA,NA,NA,NA,NA
1BATCa5X,344m16ozllsw98pkhqhl4zt7rn1nev,3qapzx2qn8q3ggjre2pog6kxo9b02z,1BATCa5X,2020-0188,2021-10-15,12:54:35,13:59:59,NA,incomplete,false,true,NA,6,6,NA,yellow,m_l_091.jpg,NA,NA,pleasant,unpleasant,NA,NA,NA,NA,NA,left,1363.90000000037,true,NA,NA,NA,NA,NA
1BATCa5X,344m16ozllsw98pkhqhl4zt7rn1nev,3qapzx2qn8q3ggjre2pog6kxo9b02z,1BATCa5X,2020-0188,2021-10-15,12:54:35,13:59:59,NA,incomplete,false,true,NA,6,7,NA,yellow,n_l_018.jpg,NA,NA,unpleasant,pleasant,NA,NA,NA,NA,NA,right,1563.09999999963,true,NA,NA,NA,NA,NA
1BATCa5X,344m16ozllsw98pkhqhl4zt7rn1nev,3qapzx2qn8q3ggjre2pog6kxo9b02z,1BATCa5X,2020-0188,2021-10-15,12:54:35,13:59:59,NA,incomplete,false,true,NA,6,8,NA,yellow,m_s_044.jpg,NA,NA,pleasant,unpleasant,NA,NA,NA,NA,NA,left,1242.90000000037,true,NA,NA,NA,NA,NA
1BATCa5X,344m16ozllsw98pkhqhl4zt7rn1nev,3qapzx2qn8q3ggjre2pog6kxo9b02z,1BATCa5X,2020-0188,2021-10-15,12:54:35,13:59:59,NA,incomplete,false,true,NA,6,9,NA,yellow,m_s_113.jpg,NA,NA,pleasant,unpleasant,NA,NA,NA,NA,NA,right,1171.89999999851,true,NA,NA,NA,NA,NA
1BATCa5X,344m16ozllsw98pkhqhl4zt7rn1nev,3qapzx2qn8q3ggjre2pog6kxo9b02z,1BATCa5X,2020-0188,2021-10-15,12:54:35,13:59:59,NA,incomplete,false,true,NA,6,10,NA,yellow,m_s_021.jpg,NA,NA,pleasant,unpleasant,NA,NA,NA,NA,NA,left,1694.19999999925,true,NA,NA,NA,NA,NA
1BATCa5X,344m16ozllsw98pkhqhl4zt7rn1nev,3qapzx2qn8q3ggjre2pog6kxo9b02z,1BATCa5X,2020-0188,2021-10-15,12:54:35,13:59:59,NA,incomplete,false,true,NA,6,11,NA,yellow,m_l_042.jpg,NA,NA,pleasant,unpleasant,NA,NA,NA,NA,NA,right,1346.70000000112,true,NA,NA,NA,NA,NA
1BATCa5X,344m16ozllsw98pkhqhl4zt7rn1nev,3qapzx2qn8q3ggjre2pog6kxo9b02z,1BATCa5X,2020-0188,2021-10-15,12:54:35,13:59:59,NA,incomplete,false,true,NA,6,12,NA,orange,m_l_084.jpg,NA,NA,pleasant,unpleasant,NA,NA,NA,NA,NA,left,1178.39999999851,true,NA,NA,NA,NA,NA
1BATCa5X,344m16ozllsw98pkhqhl4zt7rn1nev,3qapzx2qn8q3ggjre2pog6kxo9b02z,1BATCa5X,2020-0188,2021-10-15,12:54:35,13:59:59,NA,incomplete,false,true,NA,6,13,NA,orange,m_l_088.jpg,NA,NA,pleasant,unpleasant,NA,NA,NA,NA,NA,left,1517.19999999925,true,NA,NA,NA,NA,NA
1BATCa5X,344m16ozllsw98pkhqhl4zt7rn1nev,3qapzx2qn8q3ggjre2pog6kxo9b02z,1BATCa5X,2020-0188,2021-10-15,12:54:35,13:59:59,NA,incomplete,false,true,NA,6,14,NA,orange,m_s_057.jpg,NA,NA,unpleasant,pleasant,NA,NA,NA,NA,NA,left,2195.80000000075,true,NA,NA,NA,NA,NA
1BATCa5X,344m16ozllsw98pkhqhl4zt7rn1nev,3qapzx2qn8q3ggjre2pog6kxo9b02z,1BATCa5X,2020-0188,2021-10-15,12:54:35,13:59:59,NA,incomplete,false,true,NA,6,15,NA,orange,m_s_047.jpg,NA,NA,unpleasant,pleasant,NA,NA,NA,NA,NA,right,2069.59999999963,true,NA,NA,NA,NA,NA
1BATCa5X,344m16ozllsw98pkhqhl4zt7rn1nev,3qapzx2qn8q3ggjre2pog6kxo9b02z,1BATCa5X,2020-0188,2021-10-15,12:54:35,13:59:59,NA,incomplete,false,true,NA,6,16,NA,orange,n_l_024.jpg,NA,NA,pleasant,unpleasant,NA,NA,NA,NA,NA,right,1274.59999999963,true,NA,NA,NA,NA,NA
1BATCa5X,344m16ozllsw98pkhqhl4zt7rn1nev,3qapzx2qn8q3ggjre2pog6kxo9b02z,1BATCa5X,2020-0188,2021-10-15,12:54:35,13:59:59,NA,incomplete,false,true,NA,6,17,NA,orange,n_s_047.jpg,NA,NA,pleasant,unpleasant,NA,NA,NA,NA,NA,right,1489.5,true,NA,NA,NA,NA,NA
1BATCa5X,344m16ozllsw98pkhqhl4zt7rn1nev,3qapzx2qn8q3ggjre2pog6kxo9b02z,1BATCa5X,2020-0188,2021-10-15,12:54:35,13:59:59,NA,incomplete,false,true,NA,6,18,NA,white,n_l_051.jpg,NA,NA,unpleasant,pleasant,NA,NA,NA,NA,NA,right,1429.20000000112,true,NA,NA,NA,NA,NA
1BATCa5X,344m16ozllsw98pkhqhl4zt7rn1nev,3qapzx2qn8q3ggjre2pog6kxo9b02z,1BATCa5X,2020-0188,2021-10-15,12:54:35,13:59:59,NA,incomplete,false,true,NA,6,19,NA,white,n_s_058.jpg,NA,NA,pleasant,unpleasant,NA,NA,NA,NA,NA,left,1606.59999999963,true,NA,NA,NA,NA,NA
1BATCa5X,344m16ozllsw98pkhqhl4zt7rn1nev,3qapzx2qn8q3ggjre2pog6kxo9b02z,1BATCa5X,2020-0188,2021-10-15,12:54:35,13:59:59,NA,incomplete,false,true,NA,6,20,NA,white,n_l_036.jpg,NA,NA,unpleasant,pleasant,NA,NA,NA,NA,NA,right,1303.40000000037,true,NA,NA,NA,NA,NA
1BATCa5X,344m16ozllsw98pkhqhl4zt7rn1nev,3qapzx2qn8q3ggjre2pog6kxo9b02z,1BATCa5X,2020-0188,2021-10-15,12:54:35,13:59:59,NA,incomplete,false,true,NA,6,21,NA,white,n_s_036.jpg,NA,NA,unpleasant,pleasant,NA,NA,NA,NA,NA,right,1171.89999999851,true,NA,NA,NA,NA,NA
1BATCa5X,344m16ozllsw98pkhqhl4zt7rn1nev,3qapzx2qn8q3ggjre2pog6kxo9b02z,1BATCa5X,2020-0188,2021-10-15,12:54:35,13:59:59,NA,incomplete,false,true,NA,6,22,NA,white,m_s_064.jpg,NA,NA,pleasant,unpleasant,NA,NA,NA,NA,NA,right,1696.70000000112,true,NA,NA,NA,NA,NA
1BATCa5X,344m16ozllsw98pkhqhl4zt7rn1nev,3qapzx2qn8q3ggjre2pog6kxo9b02z,1BATCa5X,2020-0188,2021-10-15,12:54:35,13:59:59,NA,incomplete,false,true,NA,6,23,NA,white,m_l_019.jpg,NA,NA,unpleasant,pleasant,NA,NA,NA,NA,NA,left,1521.30000000075,true,NA,NA,NA,NA,NA
1BATCa5X,344m16ozllsw98pkhqhl4zt7rn1nev,3qapzx2qn8q3ggjre2pog6kxo9b02z,1BATCa5X,2020-0188,2021-10-15,12:54:35,13:59:59,NA,incomplete,false,true,NA,6,24,NA,red,m_l_103.jpg,NA,NA,unpleasant,pleasant,NA,NA,NA,NA,NA,right,1037.09999999963,true,NA,NA,NA,NA,NA
1BATCa5X,344m16ozllsw98pkhqhl4zt7rn1nev,3qapzx2qn8q3ggjre2pog6kxo9b02z,1BATCa5X,2020-0188,2021-10-15,12:54:35,13:59:59,NA,incomplete,false,true,NA,6,25,NA,red,n_s_011.jpg,NA,NA,pleasant,unpleasant,NA,NA,NA,NA,NA,left,1324.90000000037,true,NA,NA,NA,NA,NA
1BATCa5X,344m16ozllsw98pkhqhl4zt7rn1nev,3qapzx2qn8q3ggjre2pog6kxo9b02z,1BATCa5X,2020-0188,2021-10-15,12:54:35,13:59:59,NA,incomplete,false,true,NA,6,26,NA,red,m_l_104.jpg,NA,NA,pleasant,unpleasant,NA,NA,NA,NA,NA,left,1417.80000000075,true,NA,NA,NA,NA,NA
1BATCa5X,344m16ozllsw98pkhqhl4zt7rn1nev,3qapzx2qn8q3ggjre2pog6kxo9b02z,1BATCa5X,2020-0188,2021-10-15,12:54:35,13:59:59,NA,incomplete,false,true,NA,6,27,NA,red,m_s_080.jpg,NA,NA,pleasant,unpleasant,NA,NA,NA,NA,NA,right,2058.09999999963,true,NA,NA,NA,NA,NA
1BATCa5X,344m16ozllsw98pkhqhl4zt7rn1nev,3qapzx2qn8q3ggjre2pog6kxo9b02z,1BATCa5X,2020-0188,2021-10-15,12:54:35,13:59:59,NA,incomplete,false,true,NA,6,28,NA,red,n_s_112.jpg,NA,NA,pleasant,unpleasant,NA,NA,NA,NA,NA,left,1195.10000000149,true,NA,NA,NA,NA,NA
1BATCa5X,344m16ozllsw98pkhqhl4zt7rn1nev,3qapzx2qn8q3ggjre2pog6kxo9b02z,1BATCa5X,2020-0188,2021-10-15,12:54:35,13:59:59,NA,incomplete,false,true,NA,6,29,NA,red,n_l_031.jpg,NA,NA,pleasant,unpleasant,NA,NA,NA,NA,NA,left,1112.69999999925,true,NA,NA,NA,NA,NA
1BATCa5X,344m16ozllsw98pkhqhl4zt7rn1nev,3qapzx2qn8q3ggjre2pog6kxo9b02z,1BATCa5X,2020-0188,2021-10-15,12:54:35,13:59:59,NA,incomplete,false,true,NA,6,30,NA,brown,n_l_028.jpg,NA,NA,pleasant,unpleasant,NA,NA,NA,NA,NA,left,1222,true,NA,NA,NA,NA,NA
1BATCa5X,344m16ozllsw98pkhqhl4zt7rn1nev,3qapzx2qn8q3ggjre2pog6kxo9b02z,1BATCa5X,2020-0188,2021-10-15,12:54:35,13:59:59,NA,incomplete,false,true,NA,6,31,NA,brown,n_s_002.jpg,NA,NA,pleasant,unpleasant,NA,NA,NA,NA,NA,left,1233.69999999925,true,NA,NA,NA,NA,NA
1BATCa5X,344m16ozllsw98pkhqhl4zt7rn1nev,3qapzx2qn8q3ggjre2pog6kxo9b02z,1BATCa5X,2020-0188,2021-10-15,12:54:35,13:59:59,NA,incomplete,false,true,NA,6,32,NA,brown,m_s_068.jpg,NA,NA,unpleasant,pleasant,NA,NA,NA,NA,NA,right,1358.10000000149,true,NA,NA,NA,NA,NA
1BATCa5X,344m16ozllsw98pkhqhl4zt7rn1nev,3qapzx2qn8q3ggjre2pog6kxo9b02z,1BATCa5X,2020-0188,2021-10-15,12:54:35,13:59:59,NA,incomplete,false,true,NA,6,33,NA,brown,n_l_037.jpg,NA,NA,pleasant,unpleasant,NA,NA,NA,NA,NA,right,1229,true,NA,NA,NA,NA,NA
1BATCa5X,344m16ozllsw98pkhqhl4zt7rn1nev,3qapzx2qn8q3ggjre2pog6kxo9b02z,1BATCa5X,2020-0188,2021-10-15,12:54:35,13:59:59,NA,incomplete,false,true,NA,6,34,NA,brown,m_s_026.jpg,NA,NA,pleasant,unpleasant,NA,NA,NA,NA,NA,right,1382.69999999925,true,NA,NA,NA,NA,NA
1BATCa5X,344m16ozllsw98pkhqhl4zt7rn1nev,3qapzx2qn8q3ggjre2pog6kxo9b02z,1BATCa5X,2020-0188,2021-10-15,12:54:35,13:59:59,NA,incomplete,false,true,NA,6,35,NA,brown,n_l_002.jpg,NA,NA,pleasant,unpleasant,NA,NA,NA,NA,NA,right,1862.80000000075,true,NA,NA,NA,NA,NA
1BATCa5X,344m16ozllsw98pkhqhl4zt7rn1nev,3qapzx2qn8q3ggjre2pog6kxo9b02z,1BATCa5X,2020-0188,2021-10-15,12:54:35,13:59:59,NA,incomplete,false,NA,true,6,0,NA,NA,NA,right,absent,NA,NA,m_s_068.jpg,brown,n_s_112.jpg,red,between,NA,NaN,NA,right,3368.4000000003725,1,1,1140.5999999996275
1BATCa5X,344m16ozllsw98pkhqhl4zt7rn1nev,3qapzx2qn8q3ggjre2pog6kxo9b02z,1BATCa5X,2020-0188,2021-10-15,12:54:35,13:59:59,NA,incomplete,false,NA,true,6,1,NA,NA,NA,left,absent,NA,NA,m_l_040.jpg,purple,n_s_031.jpg,purple,within,NA,NaN,NA,left,1621,1,1,1937.9000000003725
1BATCa5X,344m16ozllsw98pkhqhl4zt7rn1nev,3qapzx2qn8q3ggjre2pog6kxo9b02z,1BATCa5X,2020-0188,2021-10-15,12:54:35,13:59:59,NA,incomplete,false,NA,true,6,2,NA,NA,NA,left,absent,NA,NA,n_l_024.jpg,orange,n_l_036.jpg,white,between,NA,NaN,NA,right,1751.4000000003725,0,2,1021.6999999992549
1BATCa5X,344m16ozllsw98pkhqhl4zt7rn1nev,3qapzx2qn8q3ggjre2pog6kxo9b02z,1BATCa5X,2020-0188,2021-10-15,12:54:35,13:59:59,NA,incomplete,false,NA,true,6,3,NA,NA,NA,left,absent,NA,NA,n_s_011.jpg,red,n_l_031.jpg,red,within,NA,NaN,NA,right,2467.4000000003725,0,2,890.1000000014901
1BATCa5X,344m16ozllsw98pkhqhl4zt7rn1nev,3qapzx2qn8q3ggjre2pog6kxo9b02z,1BATCa5X,2020-0188,2021-10-15,12:54:35,13:59:59,NA,incomplete,false,NA,true,6,4,NA,NA,NA,left,absent,NA,NA,n_s_058.jpg,white,m_l_019.jpg,white,within,NA,NaN,NA,left,2020.3999999985099,1,0,954.7000000011176
1BATCa5X,344m16ozllsw98pkhqhl4zt7rn1nev,3qapzx2qn8q3ggjre2pog6kxo9b02z,1BATCa5X,2020-0188,2021-10-15,12:54:35,13:59:59,NA,incomplete,false,NA,true,6,5,NA,NA,NA,right,absent,NA,NA,m_s_057.jpg,orange,m_s_021.jpg,yellow,between,NA,NaN,NA,right,3190.5,1,2,937
1BATCa5X,344m16ozllsw98pkhqhl4zt7rn1nev,3qapzx2qn8q3ggjre2pog6kxo9b02z,1BATCa5X,2020-0188,2021-10-15,12:54:35,13:59:59,NA,incomplete,false,NA,true,6,6,NA,NA,NA,right,absent,NA,NA,n_s_047.jpg,orange,m_l_088.jpg,orange,within,NA,NaN,NA,left,1956.0999999996275,0,3,879.1999999992549
1BATCa5X,344m16ozllsw98pkhqhl4zt7rn1nev,3qapzx2qn8q3ggjre2pog6kxo9b02z,1BATCa5X,2020-0188,2021-10-15,12:54:35,13:59:59,NA,incomplete,false,NA,true,6,7,NA,NA,NA,right,absent,NA,NA,n_l_002.jpg,brown,n_s_002.jpg,brown,within,NA,NaN,NA,right,2154.199999999255,1,3,1078.199999999255
1BATCa5X,344m16ozllsw98pkhqhl4zt7rn1nev,3qapzx2qn8q3ggjre2pog6kxo9b02z,1BATCa5X,2020-0188,2021-10-15,12:54:35,13:59:59,NA,incomplete,false,NA,true,6,8,NA,NA,NA,right,absent,NA,NA,m_l_104.jpg,red,m_s_064.jpg,white,between,NA,NaN,NA,left,2137.4000000003725,0,1,1194
1BATCa5X,344m16ozllsw98pkhqhl4zt7rn1nev,3qapzx2qn8q3ggjre2pog6kxo9b02z,1BATCa5X,2020-0188,2021-10-15,12:54:35,13:59:59,NA,incomplete,false,NA,true,6,9,NA,NA,NA,left,absent,NA,NA,n_l_018.jpg,yellow,m_l_042.jpg,yellow,within,NA,NaN,NA,right,2394.5,0,3,1307.7999999988824
1BATCa5X,344m16ozllsw98pkhqhl4zt7rn1nev,3qapzx2qn8q3ggjre2pog6kxo9b02z,1BATCa5X,2020-0188,2021-10-15,12:54:35,13:59:59,NA,incomplete,false,NA,true,6,10,NA,NA,NA,right,absent,NA,NA,m_s_044.jpg,yellow,m_l_058.jpg,purple,between,NA,NaN,NA,right,3545.300000000745,1,0,728.3000000007451
1BATCa5X,344m16ozllsw98pkhqhl4zt7rn1nev,3qapzx2qn8q3ggjre2pog6kxo9b02z,1BATCa5X,2020-0188,2021-10-15,12:54:35,13:59:59,NA,incomplete,false,true,NA,7,0,NA,purple,m_l_023.jpg,NA,NA,pleasant,unpleasant,NA,NA,NA,NA,NA,right,2083.40000000037,true,NA,NA,NA,NA,NA
1BATCa5X,344m16ozllsw98pkhqhl4zt7rn1nev,3qapzx2qn8q3ggjre2pog6kxo9b02z,1BATCa5X,2020-0188,2021-10-15,12:54:35,13:59:59,NA,incomplete,false,true,NA,7,1,NA,purple,n_s_089.jpg,NA,NA,unpleasant,pleasant,NA,NA,NA,NA,NA,left,2000.90000000037,true,NA,NA,NA,NA,NA
1BATCa5X,344m16ozllsw98pkhqhl4zt7rn1nev,3qapzx2qn8q3ggjre2pog6kxo9b02z,1BATCa5X,2020-0188,2021-10-15,12:54:35,13:59:59,NA,incomplete,false,true,NA,7,2,NA,purple,m_s_034.jpg,NA,NA,unpleasant,pleasant,NA,NA,NA,NA,NA,right,1093.5,true,NA,NA,NA,NA,NA
1BATCa5X,344m16ozllsw98pkhqhl4zt7rn1nev,3qapzx2qn8q3ggjre2pog6kxo9b02z,1BATCa5X,2020-0188,2021-10-15,12:54:35,13:59:59,NA,incomplete,false,true,NA,7,3,NA,purple,m_s_066.jpg,NA,NA,unpleasant,pleasant,NA,NA,NA,NA,NA,right,1311.19999999925,true,NA,NA,NA,NA,NA
1BATCa5X,344m16ozllsw98pkhqhl4zt7rn1nev,3qapzx2qn8q3ggjre2pog6kxo9b02z,1BATCa5X,2020-0188,2021-10-15,12:54:35,13:59:59,NA,incomplete,false,true,NA,7,4,NA,purple,n_s_003.jpg,NA,NA,pleasant,unpleasant,NA,NA,NA,NA,NA,right,1264.5,true,NA,NA,NA,NA,NA
1BATCa5X,344m16ozllsw98pkhqhl4zt7rn1nev,3qapzx2qn8q3ggjre2pog6kxo9b02z,1BATCa5X,2020-0188,2021-10-15,12:54:35,13:59:59,NA,incomplete,false,true,NA,7,5,NA,purple,m_l_065.jpg,NA,NA,pleasant,unpleasant,NA,NA,NA,NA,NA,left,1280.90000000037,true,NA,NA,NA,NA,NA
1BATCa5X,344m16ozllsw98pkhqhl4zt7rn1nev,3qapzx2qn8q3ggjre2pog6kxo9b02z,1BATCa5X,2020-0188,2021-10-15,12:54:35,13:59:59,NA,incomplete,false,true,NA,7,6,NA,gray,m_s_042.jpg,NA,NA,unpleasant,pleasant,NA,NA,NA,NA,NA,right,1561.80000000075,true,NA,NA,NA,NA,NA
1BATCa5X,344m16ozllsw98pkhqhl4zt7rn1nev,3qapzx2qn8q3ggjre2pog6kxo9b02z,1BATCa5X,2020-0188,2021-10-15,12:54:35,13:59:59,NA,incomplete,false,true,NA,7,7,NA,gray,m_l_026.jpg,NA,NA,pleasant,unpleasant,NA,NA,NA,NA,NA,left,2014.5,true,NA,NA,NA,NA,NA
1BATCa5X,344m16ozllsw98pkhqhl4zt7rn1nev,3qapzx2qn8q3ggjre2pog6kxo9b02z,1BATCa5X,2020-0188,2021-10-15,12:54:35,13:59:59,NA,incomplete,false,true,NA,7,8,NA,gray,n_s_023.jpg,NA,NA,unpleasant,pleasant,NA,NA,NA,NA,NA,right,1117.40000000037,true,NA,NA,NA,NA,NA
1BATCa5X,344m16ozllsw98pkhqhl4zt7rn1nev,3qapzx2qn8q3ggjre2pog6kxo9b02z,1BATCa5X,2020-0188,2021-10-15,12:54:35,13:59:59,NA,incomplete,false,true,NA,7,9,NA,gray,n_s_041.jpg,NA,NA,pleasant,unpleasant,NA,NA,NA,NA,NA,left,1275.09999999963,true,NA,NA,NA,NA,NA
1BATCa5X,344m16ozllsw98pkhqhl4zt7rn1nev,3qapzx2qn8q3ggjre2pog6kxo9b02z,1BATCa5X,2020-0188,2021-10-15,12:54:35,13:59:59,NA,incomplete,false,true,NA,7,10,NA,gray,n_s_072.jpg,NA,NA,pleasant,unpleasant,NA,NA,NA,NA,NA,left,1126.59999999963,true,NA,NA,NA,NA,NA
1BATCa5X,344m16ozllsw98pkhqhl4zt7rn1nev,3qapzx2qn8q3ggjre2pog6kxo9b02z,1BATCa5X,2020-0188,2021-10-15,12:54:35,13:59:59,NA,incomplete,false,true,NA,7,11,NA,gray,m_s_058.jpg,NA,NA,pleasant,unpleasant,NA,NA,NA,NA,NA,right,1207,true,NA,NA,NA,NA,NA
1BATCa5X,344m16ozllsw98pkhqhl4zt7rn1nev,3qapzx2qn8q3ggjre2pog6kxo9b02z,1BATCa5X,2020-0188,2021-10-15,12:54:35,13:59:59,NA,incomplete,false,true,NA,7,12,NA,brown,m_l_085.jpg,NA,NA,pleasant,unpleasant,NA,NA,NA,NA,NA,right,1019.30000000075,true,NA,NA,NA,NA,NA
1BATCa5X,344m16ozllsw98pkhqhl4zt7rn1nev,3qapzx2qn8q3ggjre2pog6kxo9b02z,1BATCa5X,2020-0188,2021-10-15,12:54:35,13:59:59,NA,incomplete,false,true,NA,7,13,NA,brown,n_l_108.jpg,NA,NA,unpleasant,pleasant,NA,NA,NA,NA,NA,right,1317.39999999851,true,NA,NA,NA,NA,NA
1BATCa5X,344m16ozllsw98pkhqhl4zt7rn1nev,3qapzx2qn8q3ggjre2pog6kxo9b02z,1BATCa5X,2020-0188,2021-10-15,12:54:35,13:59:59,NA,incomplete,false,true,NA,7,14,NA,brown,n_s_107.jpg,NA,NA,pleasant,unpleasant,NA,NA,NA,NA,NA,left,1484.5,true,NA,NA,NA,NA,NA
1BATCa5X,344m16ozllsw98pkhqhl4zt7rn1nev,3qapzx2qn8q3ggjre2pog6kxo9b02z,1BATCa5X,2020-0188,2021-10-15,12:54:35,13:59:59,NA,incomplete,false,true,NA,7,15,NA,brown,n_l_099.jpg,NA,NA,unpleasant,pleasant,NA,NA,NA,NA,NA,left,1375.90000000037,true,NA,NA,NA,NA,NA
1BATCa5X,344m16ozllsw98pkhqhl4zt7rn1nev,3qapzx2qn8q3ggjre2pog6kxo9b02z,1BATCa5X,2020-0188,2021-10-15,12:54:35,13:59:59,NA,incomplete,false,true,NA,7,16,NA,brown,n_s_025.jpg,NA,NA,unpleasant,pleasant,NA,NA,NA,NA,NA,left,1941.09999999963,true,NA,NA,NA,NA,NA
1BATCa5X,344m16ozllsw98pkhqhl4zt7rn1nev,3qapzx2qn8q3ggjre2pog6kxo9b02z,1BATCa5X,2020-0188,2021-10-15,12:54:35,13:59:59,NA,incomplete,false,true,NA,7,17,NA,brown,n_s_074.jpg,NA,NA,pleasant,unpleasant,NA,NA,NA,NA,NA,right,1656.29999999888,true,NA,NA,NA,NA,NA
1BATCa5X,344m16ozllsw98pkhqhl4zt7rn1nev,3qapzx2qn8q3ggjre2pog6kxo9b02z,1BATCa5X,2020-0188,2021-10-15,12:54:35,13:59:59,NA,incomplete,false,true,NA,7,18,NA,yellow,m_l_094.jpg,NA,NA,unpleasant,pleasant,NA,NA,NA,NA,NA,right,1346.69999999925,true,NA,NA,NA,NA,NA
1BATCa5X,344m16ozllsw98pkhqhl4zt7rn1nev,3qapzx2qn8q3ggjre2pog6kxo9b02z,1BATCa5X,2020-0188,2021-10-15,12:54:35,13:59:59,NA,incomplete,false,true,NA,7,19,NA,yellow,n_s_101.jpg,NA,NA,pleasant,unpleasant,NA,NA,NA,NA,NA,right,1111.80000000075,true,NA,NA,NA,NA,NA
1BATCa5X,344m16ozllsw98pkhqhl4zt7rn1nev,3qapzx2qn8q3ggjre2pog6kxo9b02z,1BATCa5X,2020-0188,2021-10-15,12:54:35,13:59:59,NA,incomplete,false,true,NA,7,20,NA,yellow,m_l_090.jpg,NA,NA,unpleasant,pleasant,NA,NA,NA,NA,NA,left,1816.30000000075,true,NA,NA,NA,NA,NA
1BATCa5X,344m16ozllsw98pkhqhl4zt7rn1nev,3qapzx2qn8q3ggjre2pog6kxo9b02z,1BATCa5X,2020-0188,2021-10-15,12:54:35,13:59:59,NA,incomplete,false,true,NA,7,21,NA,yellow,m_l_068.jpg,NA,NA,pleasant,unpleasant,NA,NA,NA,NA,NA,left,1520.30000000075,true,NA,NA,NA,NA,NA
1BATCa5X,344m16ozllsw98pkhqhl4zt7rn1nev,3qapzx2qn8q3ggjre2pog6kxo9b02z,1BATCa5X,2020-0188,2021-10-15,12:54:35,13:59:59,NA,incomplete,false,true,NA,7,22,NA,yellow,n_s_104.jpg,NA,NA,unpleasant,pleasant,NA,NA,NA,NA,NA,right,1060.09999999963,true,NA,NA,NA,NA,NA
1BATCa5X,344m16ozllsw98pkhqhl4zt7rn1nev,3qapzx2qn8q3ggjre2pog6kxo9b02z,1BATCa5X,2020-0188,2021-10-15,12:54:35,13:59:59,NA,incomplete,false,true,NA,7,23,NA,yellow,n_l_098.jpg,NA,NA,unpleasant,pleasant,NA,NA,NA,NA,NA,right,1036.90000000037,true,NA,NA,NA,NA,NA
1BATCa5X,344m16ozllsw98pkhqhl4zt7rn1nev,3qapzx2qn8q3ggjre2pog6kxo9b02z,1BATCa5X,2020-0188,2021-10-15,12:54:35,13:59:59,NA,incomplete,false,true,NA,7,24,NA,white,m_l_046.jpg,NA,NA,unpleasant,pleasant,NA,NA,NA,NA,NA,right,1225.19999999925,true,NA,NA,NA,NA,NA
1BATCa5X,344m16ozllsw98pkhqhl4zt7rn1nev,3qapzx2qn8q3ggjre2pog6kxo9b02z,1BATCa5X,2020-0188,2021-10-15,12:54:35,13:59:59,NA,incomplete,false,true,NA,7,25,NA,white,m_s_029.jpg,NA,NA,pleasant,unpleasant,NA,NA,NA,NA,NA,right,1294.09999999963,true,NA,NA,NA,NA,NA
1BATCa5X,344m16ozllsw98pkhqhl4zt7rn1nev,3qapzx2qn8q3ggjre2pog6kxo9b02z,1BATCa5X,2020-0188,2021-10-15,12:54:35,13:59:59,NA,incomplete,false,true,NA,7,26,NA,white,n_l_012.jpg,NA,NA,unpleasant,pleasant,NA,NA,NA,NA,NA,right,1130.09999999963,true,NA,NA,NA,NA,NA
1BATCa5X,344m16ozllsw98pkhqhl4zt7rn1nev,3qapzx2qn8q3ggjre2pog6kxo9b02z,1BATCa5X,2020-0188,2021-10-15,12:54:35,13:59:59,NA,incomplete,false,true,NA,7,27,NA,white,n_l_089.jpg,NA,NA,pleasant,unpleasant,NA,NA,NA,NA,NA,left,1154.79999999888,true,NA,NA,NA,NA,NA
1BATCa5X,344m16ozllsw98pkhqhl4zt7rn1nev,3qapzx2qn8q3ggjre2pog6kxo9b02z,1BATCa5X,2020-0188,2021-10-15,12:54:35,13:59:59,NA,incomplete,false,true,NA,7,28,NA,white,m_l_092.jpg,NA,NA,pleasant,unpleasant,NA,NA,NA,NA,NA,left,1244.09999999963,true,NA,NA,NA,NA,NA
1BATCa5X,344m16ozllsw98pkhqhl4zt7rn1nev,3qapzx2qn8q3ggjre2pog6kxo9b02z,1BATCa5X,2020-0188,2021-10-15,12:54:35,13:59:59,NA,incomplete,false,true,NA,7,29,NA,white,n_s_051.jpg,NA,NA,unpleasant,pleasant,NA,NA,NA,NA,NA,right,1367,true,NA,NA,NA,NA,NA
1BATCa5X,344m16ozllsw98pkhqhl4zt7rn1nev,3qapzx2qn8q3ggjre2pog6kxo9b02z,1BATCa5X,2020-0188,2021-10-15,12:54:35,13:59:59,NA,incomplete,false,true,NA,7,30,NA,green,m_s_102.jpg,NA,NA,pleasant,unpleasant,NA,NA,NA,NA,NA,left,1460.90000000037,true,NA,NA,NA,NA,NA
1BATCa5X,344m16ozllsw98pkhqhl4zt7rn1nev,3qapzx2qn8q3ggjre2pog6kxo9b02z,1BATCa5X,2020-0188,2021-10-15,12:54:35,13:59:59,NA,incomplete,false,true,NA,7,31,NA,green,n_l_021.jpg,NA,NA,pleasant,unpleasant,NA,NA,NA,NA,NA,left,1161.29999999888,true,NA,NA,NA,NA,NA
1BATCa5X,344m16ozllsw98pkhqhl4zt7rn1nev,3qapzx2qn8q3ggjre2pog6kxo9b02z,1BATCa5X,2020-0188,2021-10-15,12:54:35,13:59:59,NA,incomplete,false,true,NA,7,32,NA,green,m_s_106.jpg,NA,NA,pleasant,unpleasant,NA,NA,NA,NA,NA,left,1558.40000000037,true,NA,NA,NA,NA,NA
1BATCa5X,344m16ozllsw98pkhqhl4zt7rn1nev,3qapzx2qn8q3ggjre2pog6kxo9b02z,1BATCa5X,2020-0188,2021-10-15,12:54:35,13:59:59,NA,incomplete,false,true,NA,7,33,NA,green,n_s_102.jpg,NA,NA,pleasant,unpleasant,NA,NA,NA,NA,NA,left,1097.19999999925,true,NA,NA,NA,NA,NA
1BATCa5X,344m16ozllsw98pkhqhl4zt7rn1nev,3qapzx2qn8q3ggjre2pog6kxo9b02z,1BATCa5X,2020-0188,2021-10-15,12:54:35,13:59:59,NA,incomplete,false,true,NA,7,34,NA,green,m_l_063.jpg,NA,NA,pleasant,unpleasant,NA,NA,NA,NA,NA,left,1450.40000000037,true,NA,NA,NA,NA,NA
1BATCa5X,344m16ozllsw98pkhqhl4zt7rn1nev,3qapzx2qn8q3ggjre2pog6kxo9b02z,1BATCa5X,2020-0188,2021-10-15,12:54:35,13:59:59,NA,incomplete,false,true,NA,7,35,NA,green,m_s_116.jpg,NA,NA,pleasant,unpleasant,NA,NA,NA,NA,NA,right,1105.40000000037,true,NA,NA,NA,NA,NA
1BATCa5X,344m16ozllsw98pkhqhl4zt7rn1nev,3qapzx2qn8q3ggjre2pog6kxo9b02z,1BATCa5X,2020-0188,2021-10-15,12:54:35,13:59:59,NA,incomplete,false,NA,true,7,0,NA,NA,NA,left,absent,NA,NA,n_s_101.jpg,yellow,n_l_098.jpg,yellow,within,NA,NaN,NA,right,2141.300000000745,0,1,2479.2999999988824
1BATCa5X,344m16ozllsw98pkhqhl4zt7rn1nev,3qapzx2qn8q3ggjre2pog6kxo9b02z,1BATCa5X,2020-0188,2021-10-15,12:54:35,13:59:59,NA,incomplete,false,NA,true,7,1,NA,NA,NA,left,absent,NA,NA,n_s_003.jpg,purple,n_s_023.jpg,gray,between,NA,NaN,NA,left,2775.5,1,1,1960.300000000745
1BATCa5X,344m16ozllsw98pkhqhl4zt7rn1nev,3qapzx2qn8q3ggjre2pog6kxo9b02z,1BATCa5X,2020-0188,2021-10-15,12:54:35,13:59:59,NA,incomplete,false,NA,true,7,2,NA,NA,NA,left,absent,NA,NA,m_s_029.jpg,white,n_s_051.jpg,white,within,NA,NaN,NA,left,2855.9000000003725,1,1,747.2000000011176
1BATCa5X,344m16ozllsw98pkhqhl4zt7rn1nev,3qapzx2qn8q3ggjre2pog6kxo9b02z,1BATCa5X,2020-0188,2021-10-15,12:54:35,13:59:59,NA,incomplete,false,NA,true,7,3,NA,NA,NA,right,absent,NA,NA,n_l_012.jpg,white,n_s_104.jpg,yellow,between,NA,NaN,NA,right,2539.699999999255,1,2,880.7999999988824
1BATCa5X,344m16ozllsw98pkhqhl4zt7rn1nev,3qapzx2qn8q3ggjre2pog6kxo9b02z,1BATCa5X,2020-0188,2021-10-15,12:54:35,13:59:59,NA,incomplete,false,NA,true,7,4,NA,NA,NA,left,absent,NA,NA,n_l_108.jpg,brown,n_s_074.jpg,brown,within,NA,NaN,NA,left,2127.699999999255,1,1,738.4000000003725
1BATCa5X,344m16ozllsw98pkhqhl4zt7rn1nev,3qapzx2qn8q3ggjre2pog6kxo9b02z,1BATCa5X,2020-0188,2021-10-15,12:54:35,13:59:59,NA,incomplete,false,NA,true,7,5,NA,NA,NA,right,absent,NA,NA,m_l_090.jpg,yellow,n_s_025.jpg,brown,between,NA,NaN,NA,left,1946.5999999996275,0,3,753.9000000003725
1BATCa5X,344m16ozllsw98pkhqhl4zt7rn1nev,3qapzx2qn8q3ggjre2pog6kxo9b02z,1BATCa5X,2020-0188,2021-10-15,12:54:35,13:59:59,NA,incomplete,false,NA,true,7,6,NA,NA,NA,left,absent,NA,NA,m_l_092.jpg,white,m_s_106.jpg,green,between,NA,NaN,NA,left,1999.5,1,2,2656.0999999996275
1BATCa5X,344m16ozllsw98pkhqhl4zt7rn1nev,3qapzx2qn8q3ggjre2pog6kxo9b02z,1BATCa5X,2020-0188,2021-10-15,12:54:35,13:59:59,NA,incomplete,false,NA,true,7,7,NA,NA,NA,left,absent,NA,NA,n_s_089.jpg,purple,m_l_065.jpg,purple,within,NA,NaN,NA,left,2387.5,1,1,959
1BATCa5X,344m16ozllsw98pkhqhl4zt7rn1nev,3qapzx2qn8q3ggjre2pog6kxo9b02z,1BATCa5X,2020-0188,2021-10-15,12:54:35,13:59:59,NA,incomplete,false,NA,true,7,8,NA,NA,NA,left,absent,NA,NA,m_l_026.jpg,gray,m_s_058.jpg,gray,within,NA,NaN,NA,left,1805.0999999996275,1,1,1266
1BATCa5X,344m16ozllsw98pkhqhl4zt7rn1nev,3qapzx2qn8q3ggjre2pog6kxo9b02z,1BATCa5X,2020-0188,2021-10-15,12:54:35,13:59:59,NA,incomplete,false,NA,true,7,9,NA,NA,NA,right,absent,NA,NA,m_s_116.jpg,green,n_l_021.jpg,green,within,NA,NaN,NA,right,2436.9000000003725,1,2,966.6999999992549
1BATCa5X,344m16ozllsw98pkhqhl4zt7rn1nev,3qapzx2qn8q3ggjre2pog6kxo9b02z,1BATCa5X,2020-0188,2021-10-15,12:54:35,13:59:59,NA,incomplete,false,NA,true,7,10,NA,NA,NA,right,absent,NA,NA,n_s_107.jpg,brown,n_s_072.jpg,gray,between,NA,NaN,NA,right,2197,1,1,1889.300000000745
1BATCa5X,344m16ozllsw98pkhqhl4zt7rn1nev,3qapzx2qn8q3ggjre2pog6kxo9b02z,1BATCa5X,2020-0188,2021-10-15,12:54:35,13:59:59,NA,incomplete,false,true,NA,8,0,NA,green,n_l_014.jpg,NA,NA,unpleasant,pleasant,NA,NA,NA,NA,NA,right,2726.59999999963,true,NA,NA,NA,NA,NA
1BATCa5X,344m16ozllsw98pkhqhl4zt7rn1nev,3qapzx2qn8q3ggjre2pog6kxo9b02z,1BATCa5X,2020-0188,2021-10-15,12:54:35,13:59:59,NA,incomplete,false,true,NA,8,1,NA,green,n_s_076.jpg,NA,NA,pleasant,unpleasant,NA,NA,NA,NA,NA,left,2005.59999999963,true,NA,NA,NA,NA,NA
1BATCa5X,344m16ozllsw98pkhqhl4zt7rn1nev,3qapzx2qn8q3ggjre2pog6kxo9b02z,1BATCa5X,2020-0188,2021-10-15,12:54:35,13:59:59,NA,incomplete,false,true,NA,8,2,NA,green,m_l_047.jpg,NA,NA,unpleasant,pleasant,NA,NA,NA,NA,NA,right,1123.5,true,NA,NA,NA,NA,NA
1BATCa5X,344m16ozllsw98pkhqhl4zt7rn1nev,3qapzx2qn8q3ggjre2pog6kxo9b02z,1BATCa5X,2020-0188,2021-10-15,12:54:35,13:59:59,NA,incomplete,false,true,NA,8,3,NA,green,n_l_100.jpg,NA,NA,pleasant,unpleasant,NA,NA,NA,NA,NA,left,1274.19999999925,true,NA,NA,NA,NA,NA
1BATCa5X,344m16ozllsw98pkhqhl4zt7rn1nev,3qapzx2qn8q3ggjre2pog6kxo9b02z,1BATCa5X,2020-0188,2021-10-15,12:54:35,13:59:59,NA,incomplete,false,true,NA,8,4,NA,green,m_l_055.jpg,NA,NA,pleasant,unpleasant,NA,NA,NA,NA,NA,right,1354.5,true,NA,NA,NA,NA,NA
1BATCa5X,344m16ozllsw98pkhqhl4zt7rn1nev,3qapzx2qn8q3ggjre2pog6kxo9b02z,1BATCa5X,2020-0188,2021-10-15,12:54:35,13:59:59,NA,incomplete,false,true,NA,8,5,NA,green,m_l_089.jpg,NA,NA,pleasant,unpleasant,NA,NA,NA,NA,NA,right,1216.09999999963,true,NA,NA,NA,NA,NA
1BATCa5X,344m16ozllsw98pkhqhl4zt7rn1nev,3qapzx2qn8q3ggjre2pog6kxo9b02z,1BATCa5X,2020-0188,2021-10-15,12:54:35,13:59:59,NA,incomplete,false,true,NA,8,6,NA,white,m_s_065.jpg,NA,NA,unpleasant,pleasant,NA,NA,NA,NA,NA,right,1395.90000000037,true,NA,NA,NA,NA,NA
1BATCa5X,344m16ozllsw98pkhqhl4zt7rn1nev,3qapzx2qn8q3ggjre2pog6kxo9b02z,1BATCa5X,2020-0188,2021-10-15,12:54:35,13:59:59,NA,incomplete,false,true,NA,8,7,NA,white,m_s_003.jpg,NA,NA,pleasant,unpleasant,NA,NA,NA,NA,NA,left,1487.40000000037,true,NA,NA,NA,NA,NA
1BATCa5X,344m16ozllsw98pkhqhl4zt7rn1nev,3qapzx2qn8q3ggjre2pog6kxo9b02z,1BATCa5X,2020-0188,2021-10-15,12:54:35,13:59:59,NA,incomplete,false,true,NA,8,8,NA,white,n_s_019.jpg,NA,NA,pleasant,unpleasant,NA,NA,NA,NA,NA,left,1142.90000000037,true,NA,NA,NA,NA,NA
1BATCa5X,344m16ozllsw98pkhqhl4zt7rn1nev,3qapzx2qn8q3ggjre2pog6kxo9b02z,1BATCa5X,2020-0188,2021-10-15,12:54:35,13:59:59,NA,incomplete,false,true,NA,8,9,NA,white,n_s_037.jpg,NA,NA,unpleasant,pleasant,NA,NA,NA,NA,NA,right,1100.89999999851,true,NA,NA,NA,NA,NA
