workerId,hitId,assignmentId,subject,studyid,exp_date,exp_start,exp_end,time_start,time_end,practice,encoding,memory,block,trial,event_order,event,stim,answer,context_type,label_left,label_right,left_image,left_event,right_image,right_event,condition,response,response_time,response_acc,order_response,order_response_time,order_acc,distance_response,distance_response_time
1lsxzM3N,3e6l1vr4yzzg81jodkfak6sl8ztf6z,3ywrv122cwcuihxwsqc9f4l7q688uu,1lsxzM3N,2020-0188,2021-10-17,22:29:37,23:47:18,NA,incomplete,true,true,NA,0,0,NA,brown,m_s_063.jpg,NA,NA,unpleasant,pleasant,NA,NA,NA,NA,NA,none,0,false,NA,NA,NA,NA,NA
1lsxzM3N,3e6l1vr4yzzg81jodkfak6sl8ztf6z,3ywrv122cwcuihxwsqc9f4l7q688uu,1lsxzM3N,2020-0188,2021-10-17,22:29:37,23:47:18,NA,incomplete,true,true,NA,0,1,NA,brown,n_l_065.jpg,NA,NA,pleasant,unpleasant,NA,NA,NA,NA,NA,left,144,true,NA,NA,NA,NA,NA
1lsxzM3N,3e6l1vr4yzzg81jodkfak6sl8ztf6z,3ywrv122cwcuihxwsqc9f4l7q688uu,1lsxzM3N,2020-0188,2021-10-17,22:29:37,23:47:18,NA,incomplete,true,true,NA,0,2,NA,brown,m_s_045.jpg,NA,NA,unpleasant,pleasant,NA,NA,NA,NA,NA,left,1247,true,NA,NA,NA,NA,NA
1lsxzM3N,3e6l1vr4yzzg81jodkfak6sl8ztf6z,3ywrv122cwcuihxwsqc9f4l7q688uu,1lsxzM3N,2020-0188,2021-10-17,22:29:37,23:47:18,NA,incomplete,true,true,NA,0,3,NA,brown,n_l_092.jpg,NA,NA,unpleasant,pleasant,NA,NA,NA,NA,NA,left,2311,true,NA,NA,NA,NA,NA
1lsxzM3N,3e6l1vr4yzzg81jodkfak6sl8ztf6z,3ywrv122cwcuihxwsqc9f4l7q688uu,1lsxzM3N,2020-0188,2021-10-17,22:29:37,23:47:18,NA,incomplete,true,true,NA,0,4,NA,brown,n_l_043.jpg,NA,NA,pleasant,unpleasant,NA,NA,NA,NA,NA,left,1257,true,NA,NA,NA,NA,NA
1lsxzM3N,3e6l1vr4yzzg81jodkfak6sl8ztf6z,3ywrv122cwcuihxwsqc9f4l7q688uu,1lsxzM3N,2020-0188,2021-10-17,22:29:37,23:47:18,NA,incomplete,true,true,NA,0,5,NA,brown,n_l_035.jpg,NA,NA,pleasant,unpleasant,NA,NA,NA,NA,NA,left,1600,true,NA,NA,NA,NA,NA
1lsxzM3N,3e6l1vr4yzzg81jodkfak6sl8ztf6z,3ywrv122cwcuihxwsqc9f4l7q688uu,1lsxzM3N,2020-0188,2021-10-17,22:29:37,23:47:18,NA,incomplete,true,true,NA,0,6,NA,yellow,n_s_022.jpg,NA,NA,pleasant,unpleasant,NA,NA,NA,NA,NA,right,2559,true,NA,NA,NA,NA,NA
1lsxzM3N,3e6l1vr4yzzg81jodkfak6sl8ztf6z,3ywrv122cwcuihxwsqc9f4l7q688uu,1lsxzM3N,2020-0188,2021-10-17,22:29:37,23:47:18,NA,incomplete,true,true,NA,0,7,NA,yellow,m_s_037.jpg,NA,NA,pleasant,unpleasant,NA,NA,NA,NA,NA,left,1721,true,NA,NA,NA,NA,NA
1lsxzM3N,3e6l1vr4yzzg81jodkfak6sl8ztf6z,3ywrv122cwcuihxwsqc9f4l7q688uu,1lsxzM3N,2020-0188,2021-10-17,22:29:37,23:47:18,NA,incomplete,true,true,NA,0,8,NA,yellow,n_s_093.jpg,NA,NA,unpleasant,pleasant,NA,NA,NA,NA,NA,right,1459,true,NA,NA,NA,NA,NA
1lsxzM3N,3e6l1vr4yzzg81jodkfak6sl8ztf6z,3ywrv122cwcuihxwsqc9f4l7q688uu,1lsxzM3N,2020-0188,2021-10-17,22:29:37,23:47:18,NA,incomplete,true,true,NA,0,9,NA,yellow,n_s_035.jpg,NA,NA,pleasant,unpleasant,NA,NA,NA,NA,NA,left,2051,true,NA,NA,NA,NA,NA
1lsxzM3N,3e6l1vr4yzzg81jodkfak6sl8ztf6z,3ywrv122cwcuihxwsqc9f4l7q688uu,1lsxzM3N,2020-0188,2021-10-17,22:29:37,23:47:18,NA,incomplete,true,true,NA,0,10,NA,yellow,n_l_107.jpg,NA,NA,pleasant,unpleasant,NA,NA,NA,NA,NA,right,1646,true,NA,NA,NA,NA,NA
1lsxzM3N,3e6l1vr4yzzg81jodkfak6sl8ztf6z,3ywrv122cwcuihxwsqc9f4l7q688uu,1lsxzM3N,2020-0188,2021-10-17,22:29:37,23:47:18,NA,incomplete,true,true,NA,0,11,NA,yellow,n_l_074.jpg,NA,NA,pleasant,unpleasant,NA,NA,NA,NA,NA,left,1668,true,NA,NA,NA,NA,NA
1lsxzM3N,3e6l1vr4yzzg81jodkfak6sl8ztf6z,3ywrv122cwcuihxwsqc9f4l7q688uu,1lsxzM3N,2020-0188,2021-10-17,22:29:37,23:47:18,NA,incomplete,true,true,NA,0,12,NA,blue,m_l_053.jpg,NA,NA,unpleasant,pleasant,NA,NA,NA,NA,NA,right,2485,true,NA,NA,NA,NA,NA
1lsxzM3N,3e6l1vr4yzzg81jodkfak6sl8ztf6z,3ywrv122cwcuihxwsqc9f4l7q688uu,1lsxzM3N,2020-0188,2021-10-17,22:29:37,23:47:18,NA,incomplete,true,true,NA,0,13,NA,blue,n_l_023.jpg,NA,NA,unpleasant,pleasant,NA,NA,NA,NA,NA,right,3422,true,NA,NA,NA,NA,NA
1lsxzM3N,3e6l1vr4yzzg81jodkfak6sl8ztf6z,3ywrv122cwcuihxwsqc9f4l7q688uu,1lsxzM3N,2020-0188,2021-10-17,22:29:37,23:47:18,NA,incomplete,true,true,NA,0,14,NA,blue,m_s_112.jpg,NA,NA,unpleasant,pleasant,NA,NA,NA,NA,NA,right,2567,true,NA,NA,NA,NA,NA
1lsxzM3N,3e6l1vr4yzzg81jodkfak6sl8ztf6z,3ywrv122cwcuihxwsqc9f4l7q688uu,1lsxzM3N,2020-0188,2021-10-17,22:29:37,23:47:18,NA,incomplete,true,true,NA,0,15,NA,blue,m_s_025.jpg,NA,NA,unpleasant,pleasant,NA,NA,NA,NA,NA,right,1289,true,NA,NA,NA,NA,NA
1lsxzM3N,3e6l1vr4yzzg81jodkfak6sl8ztf6z,3ywrv122cwcuihxwsqc9f4l7q688uu,1lsxzM3N,2020-0188,2021-10-17,22:29:37,23:47:18,NA,incomplete,true,true,NA,0,16,NA,blue,m_l_011.jpg,NA,NA,unpleasant,pleasant,NA,NA,NA,NA,NA,left,1111,true,NA,NA,NA,NA,NA
1lsxzM3N,3e6l1vr4yzzg81jodkfak6sl8ztf6z,3ywrv122cwcuihxwsqc9f4l7q688uu,1lsxzM3N,2020-0188,2021-10-17,22:29:37,23:47:18,NA,incomplete,true,true,NA,0,17,NA,blue,n_l_093.jpg,NA,NA,unpleasant,pleasant,NA,NA,NA,NA,NA,left,2092,true,NA,NA,NA,NA,NA
1lsxzM3N,3e6l1vr4yzzg81jodkfak6sl8ztf6z,3ywrv122cwcuihxwsqc9f4l7q688uu,1lsxzM3N,2020-0188,2021-10-17,22:29:37,23:47:18,NA,incomplete,true,true,NA,0,18,NA,green,m_l_032.jpg,NA,NA,pleasant,unpleasant,NA,NA,NA,NA,NA,right,2325,true,NA,NA,NA,NA,NA
1lsxzM3N,3e6l1vr4yzzg81jodkfak6sl8ztf6z,3ywrv122cwcuihxwsqc9f4l7q688uu,1lsxzM3N,2020-0188,2021-10-17,22:29:37,23:47:18,NA,incomplete,true,true,NA,0,19,NA,green,m_s_068.jpg,NA,NA,unpleasant,pleasant,NA,NA,NA,NA,NA,right,1921,true,NA,NA,NA,NA,NA
1lsxzM3N,3e6l1vr4yzzg81jodkfak6sl8ztf6z,3ywrv122cwcuihxwsqc9f4l7q688uu,1lsxzM3N,2020-0188,2021-10-17,22:29:37,23:47:18,NA,incomplete,true,true,NA,0,20,NA,green,n_l_028.jpg,NA,NA,unpleasant,pleasant,NA,NA,NA,NA,NA,none,0,false,NA,NA,NA,NA,NA
1lsxzM3N,3e6l1vr4yzzg81jodkfak6sl8ztf6z,3ywrv122cwcuihxwsqc9f4l7q688uu,1lsxzM3N,2020-0188,2021-10-17,22:29:37,23:47:18,NA,incomplete,true,true,NA,0,21,NA,green,m_l_096.jpg,NA,NA,pleasant,unpleasant,NA,NA,NA,NA,NA,left,1552,true,NA,NA,NA,NA,NA
1lsxzM3N,3e6l1vr4yzzg81jodkfak6sl8ztf6z,3ywrv122cwcuihxwsqc9f4l7q688uu,1lsxzM3N,2020-0188,2021-10-17,22:29:37,23:47:18,NA,incomplete,true,true,NA,0,22,NA,green,m_l_030.jpg,NA,NA,unpleasant,pleasant,NA,NA,NA,NA,NA,right,1989,true,NA,NA,NA,NA,NA
1lsxzM3N,3e6l1vr4yzzg81jodkfak6sl8ztf6z,3ywrv122cwcuihxwsqc9f4l7q688uu,1lsxzM3N,2020-0188,2021-10-17,22:29:37,23:47:18,NA,incomplete,true,true,NA,0,23,NA,green,m_l_039.jpg,NA,NA,unpleasant,pleasant,NA,NA,NA,NA,NA,right,1610,true,NA,NA,NA,NA,NA
1lsxzM3N,3e6l1vr4yzzg81jodkfak6sl8ztf6z,3ywrv122cwcuihxwsqc9f4l7q688uu,1lsxzM3N,2020-0188,2021-10-17,22:29:37,23:47:18,NA,incomplete,true,true,NA,0,24,NA,gray,m_l_041.jpg,NA,NA,unpleasant,pleasant,NA,NA,NA,NA,NA,left,2351,true,NA,NA,NA,NA,NA
1lsxzM3N,3e6l1vr4yzzg81jodkfak6sl8ztf6z,3ywrv122cwcuihxwsqc9f4l7q688uu,1lsxzM3N,2020-0188,2021-10-17,22:29:37,23:47:18,NA,incomplete,true,true,NA,0,25,NA,gray,n_l_022.jpg,NA,NA,unpleasant,pleasant,NA,NA,NA,NA,NA,right,1487,true,NA,NA,NA,NA,NA
1lsxzM3N,3e6l1vr4yzzg81jodkfak6sl8ztf6z,3ywrv122cwcuihxwsqc9f4l7q688uu,1lsxzM3N,2020-0188,2021-10-17,22:29:37,23:47:18,NA,incomplete,true,true,NA,0,26,NA,gray,n_s_013.jpg,NA,NA,unpleasant,pleasant,NA,NA,NA,NA,NA,right,1155,true,NA,NA,NA,NA,NA
1lsxzM3N,3e6l1vr4yzzg81jodkfak6sl8ztf6z,3ywrv122cwcuihxwsqc9f4l7q688uu,1lsxzM3N,2020-0188,2021-10-17,22:29:37,23:47:18,NA,incomplete,true,true,NA,0,27,NA,gray,n_l_076.jpg,NA,NA,pleasant,unpleasant,NA,NA,NA,NA,NA,left,1552,true,NA,NA,NA,NA,NA
1lsxzM3N,3e6l1vr4yzzg81jodkfak6sl8ztf6z,3ywrv122cwcuihxwsqc9f4l7q688uu,1lsxzM3N,2020-0188,2021-10-17,22:29:37,23:47:18,NA,incomplete,true,true,NA,0,28,NA,gray,m_s_056.jpg,NA,NA,pleasant,unpleasant,NA,NA,NA,NA,NA,right,2412,true,NA,NA,NA,NA,NA
1lsxzM3N,3e6l1vr4yzzg81jodkfak6sl8ztf6z,3ywrv122cwcuihxwsqc9f4l7q688uu,1lsxzM3N,2020-0188,2021-10-17,22:29:37,23:47:18,NA,incomplete,true,true,NA,0,29,NA,gray,m_l_061.jpg,NA,NA,pleasant,unpleasant,NA,NA,NA,NA,NA,left,3458,true,NA,NA,NA,NA,NA
1lsxzM3N,3e6l1vr4yzzg81jodkfak6sl8ztf6z,3ywrv122cwcuihxwsqc9f4l7q688uu,1lsxzM3N,2020-0188,2021-10-17,22:29:37,23:47:18,NA,incomplete,true,true,NA,0,30,NA,orange,n_s_050.jpg,NA,NA,pleasant,unpleasant,NA,NA,NA,NA,NA,right,2250,true,NA,NA,NA,NA,NA
1lsxzM3N,3e6l1vr4yzzg81jodkfak6sl8ztf6z,3ywrv122cwcuihxwsqc9f4l7q688uu,1lsxzM3N,2020-0188,2021-10-17,22:29:37,23:47:18,NA,incomplete,true,true,NA,0,31,NA,orange,n_l_090.jpg,NA,NA,unpleasant,pleasant,NA,NA,NA,NA,NA,left,2796,true,NA,NA,NA,NA,NA
1lsxzM3N,3e6l1vr4yzzg81jodkfak6sl8ztf6z,3ywrv122cwcuihxwsqc9f4l7q688uu,1lsxzM3N,2020-0188,2021-10-17,22:29:37,23:47:18,NA,incomplete,true,true,NA,0,32,NA,orange,m_l_113.jpg,NA,NA,unpleasant,pleasant,NA,NA,NA,NA,NA,none,0,false,NA,NA,NA,NA,NA
1lsxzM3N,3e6l1vr4yzzg81jodkfak6sl8ztf6z,3ywrv122cwcuihxwsqc9f4l7q688uu,1lsxzM3N,2020-0188,2021-10-17,22:29:37,23:47:18,NA,incomplete,true,true,NA,0,33,NA,orange,m_s_085.jpg,NA,NA,pleasant,unpleasant,NA,NA,NA,NA,NA,left,1583,true,NA,NA,NA,NA,NA
1lsxzM3N,3e6l1vr4yzzg81jodkfak6sl8ztf6z,3ywrv122cwcuihxwsqc9f4l7q688uu,1lsxzM3N,2020-0188,2021-10-17,22:29:37,23:47:18,NA,incomplete,true,true,NA,0,34,NA,orange,m_s_024.jpg,NA,NA,pleasant,unpleasant,NA,NA,NA,NA,NA,left,2422,true,NA,NA,NA,NA,NA
1lsxzM3N,3e6l1vr4yzzg81jodkfak6sl8ztf6z,3ywrv122cwcuihxwsqc9f4l7q688uu,1lsxzM3N,2020-0188,2021-10-17,22:29:37,23:47:18,NA,incomplete,true,true,NA,0,35,NA,orange,n_l_012.jpg,NA,NA,unpleasant,pleasant,NA,NA,NA,NA,NA,left,1855,true,NA,NA,NA,NA,NA
1lsxzM3N,3e6l1vr4yzzg81jodkfak6sl8ztf6z,3ywrv122cwcuihxwsqc9f4l7q688uu,1lsxzM3N,2020-0188,2021-10-17,22:29:37,23:47:18,NA,incomplete,true,NA,true,0,0,NA,NA,NA,left,absent,NA,NA,n_l_107.jpg,yellow,m_s_112.jpg,blue,between,NA,NaN,NA,left,7691,1,1,9855
1lsxzM3N,3e6l1vr4yzzg81jodkfak6sl8ztf6z,3ywrv122cwcuihxwsqc9f4l7q688uu,1lsxzM3N,2020-0188,2021-10-17,22:29:37,23:47:18,NA,incomplete,true,NA,true,0,1,NA,NA,NA,right,present,NA,NA,n_l_035.jpg,brown,n_l_065.jpg,brown,within,NA,NaN,NA,left,4178,0,2,2611
1lsxzM3N,3e6l1vr4yzzg81jodkfak6sl8ztf6z,3ywrv122cwcuihxwsqc9f4l7q688uu,1lsxzM3N,2020-0188,2021-10-17,22:29:37,23:47:18,NA,incomplete,true,NA,true,0,2,NA,NA,NA,left,absent,NA,NA,m_s_068.jpg,green,m_l_039.jpg,green,within,NA,NaN,NA,right,16498,0,2,2734
1lsxzM3N,3e6l1vr4yzzg81jodkfak6sl8ztf6z,3ywrv122cwcuihxwsqc9f4l7q688uu,1lsxzM3N,2020-0188,2021-10-17,22:29:37,23:47:18,NA,incomplete,true,NA,true,0,3,NA,NA,NA,left,present,NA,NA,m_s_056.jpg,gray,m_l_113.jpg,orange,between,NA,NaN,NA,left,4914,1,1,2924
1lsxzM3N,3e6l1vr4yzzg81jodkfak6sl8ztf6z,3ywrv122cwcuihxwsqc9f4l7q688uu,1lsxzM3N,2020-0188,2021-10-17,22:29:37,23:47:18,NA,incomplete,true,NA,true,0,4,NA,NA,NA,right,absent,NA,NA,n_s_093.jpg,yellow,n_l_043.jpg,brown,between,NA,NaN,NA,right,3025,1,1,4429
1lsxzM3N,3e6l1vr4yzzg81jodkfak6sl8ztf6z,3ywrv122cwcuihxwsqc9f4l7q688uu,1lsxzM3N,2020-0188,2021-10-17,22:29:37,23:47:18,NA,incomplete,true,NA,true,0,5,NA,NA,NA,left,present,NA,NA,n_l_022.jpg,gray,m_l_061.jpg,gray,within,NA,NaN,NA,right,16195,0,1,4292
1lsxzM3N,3e6l1vr4yzzg81jodkfak6sl8ztf6z,3ywrv122cwcuihxwsqc9f4l7q688uu,1lsxzM3N,2020-0188,2021-10-17,22:29:37,23:47:18,NA,incomplete,true,NA,true,0,6,NA,NA,NA,left,absent,NA,NA,m_l_011.jpg,blue,n_l_028.jpg,green,between,NA,NaN,NA,left,4091,1,1,3829
1lsxzM3N,3e6l1vr4yzzg81jodkfak6sl8ztf6z,3ywrv122cwcuihxwsqc9f4l7q688uu,1lsxzM3N,2020-0188,2021-10-17,22:29:37,23:47:18,NA,incomplete,true,NA,true,0,7,NA,NA,NA,right,present,NA,NA,n_l_012.jpg,orange,n_l_090.jpg,orange,within,NA,NaN,NA,right,9171,1,2,3387
1lsxzM3N,3e6l1vr4yzzg81jodkfak6sl8ztf6z,3ywrv122cwcuihxwsqc9f4l7q688uu,1lsxzM3N,2020-0188,2021-10-17,22:29:37,23:47:18,NA,incomplete,true,NA,true,0,8,NA,NA,NA,left,absent,NA,NA,n_l_023.jpg,blue,n_l_093.jpg,blue,within,NA,NaN,NA,right,2885,0,1,3669
1lsxzM3N,3e6l1vr4yzzg81jodkfak6sl8ztf6z,3ywrv122cwcuihxwsqc9f4l7q688uu,1lsxzM3N,2020-0188,2021-10-17,22:29:37,23:47:18,NA,incomplete,true,NA,true,0,9,NA,NA,NA,right,present,NA,NA,n_s_013.jpg,gray,m_l_030.jpg,green,between,NA,NaN,NA,right,4481,1,1,4697
1lsxzM3N,3e6l1vr4yzzg81jodkfak6sl8ztf6z,3ywrv122cwcuihxwsqc9f4l7q688uu,1lsxzM3N,2020-0188,2021-10-17,22:29:37,23:47:18,NA,incomplete,true,NA,true,0,10,NA,NA,NA,right,absent,NA,NA,n_l_074.jpg,yellow,m_s_037.jpg,yellow,within,NA,NaN,NA,right,9133,1,2,3451
1lsxzM3N,3e6l1vr4yzzg81jodkfak6sl8ztf6z,3ywrv122cwcuihxwsqc9f4l7q688uu,1lsxzM3N,2020-0188,2021-10-17,22:29:37,23:47:18,NA,incomplete,false,true,NA,1,0,NA,purple,n_s_100.jpg,NA,NA,pleasant,unpleasant,NA,NA,NA,NA,NA,left,3232,true,NA,NA,NA,NA,NA
1lsxzM3N,3e6l1vr4yzzg81jodkfak6sl8ztf6z,3ywrv122cwcuihxwsqc9f4l7q688uu,1lsxzM3N,2020-0188,2021-10-17,22:29:37,23:47:18,NA,incomplete,false,true,NA,1,1,NA,purple,m_l_082.jpg,NA,NA,pleasant,unpleasant,NA,NA,NA,NA,NA,right,1794,true,NA,NA,NA,NA,NA
1lsxzM3N,3e6l1vr4yzzg81jodkfak6sl8ztf6z,3ywrv122cwcuihxwsqc9f4l7q688uu,1lsxzM3N,2020-0188,2021-10-17,22:29:37,23:47:18,NA,incomplete,false,true,NA,1,2,NA,purple,m_s_007.jpg,NA,NA,pleasant,unpleasant,NA,NA,NA,NA,NA,left,2342,true,NA,NA,NA,NA,NA
1lsxzM3N,3e6l1vr4yzzg81jodkfak6sl8ztf6z,3ywrv122cwcuihxwsqc9f4l7q688uu,1lsxzM3N,2020-0188,2021-10-17,22:29:37,23:47:18,NA,incomplete,false,true,NA,1,3,NA,purple,n_s_042.jpg,NA,NA,pleasant,unpleasant,NA,NA,NA,NA,NA,right,1561,true,NA,NA,NA,NA,NA
1lsxzM3N,3e6l1vr4yzzg81jodkfak6sl8ztf6z,3ywrv122cwcuihxwsqc9f4l7q688uu,1lsxzM3N,2020-0188,2021-10-17,22:29:37,23:47:18,NA,incomplete,false,true,NA,1,4,NA,purple,m_l_027.jpg,NA,NA,unpleasant,pleasant,NA,NA,NA,NA,NA,left,3462,true,NA,NA,NA,NA,NA
1lsxzM3N,3e6l1vr4yzzg81jodkfak6sl8ztf6z,3ywrv122cwcuihxwsqc9f4l7q688uu,1lsxzM3N,2020-0188,2021-10-17,22:29:37,23:47:18,NA,incomplete,false,true,NA,1,5,NA,purple,n_l_047.jpg,NA,NA,pleasant,unpleasant,NA,NA,NA,NA,NA,right,1553,true,NA,NA,NA,NA,NA
1lsxzM3N,3e6l1vr4yzzg81jodkfak6sl8ztf6z,3ywrv122cwcuihxwsqc9f4l7q688uu,1lsxzM3N,2020-0188,2021-10-17,22:29:37,23:47:18,NA,incomplete,false,true,NA,1,6,NA,yellow,m_s_079.jpg,NA,NA,pleasant,unpleasant,NA,NA,NA,NA,NA,left,1692,true,NA,NA,NA,NA,NA
1lsxzM3N,3e6l1vr4yzzg81jodkfak6sl8ztf6z,3ywrv122cwcuihxwsqc9f4l7q688uu,1lsxzM3N,2020-0188,2021-10-17,22:29:37,23:47:18,NA,incomplete,false,true,NA,1,7,NA,yellow,m_s_029.jpg,NA,NA,unpleasant,pleasant,NA,NA,NA,NA,NA,none,0,false,NA,NA,NA,NA,NA
1lsxzM3N,3e6l1vr4yzzg81jodkfak6sl8ztf6z,3ywrv122cwcuihxwsqc9f4l7q688uu,1lsxzM3N,2020-0188,2021-10-17,22:29:37,23:47:18,NA,incomplete,false,true,NA,1,8,NA,yellow,m_l_075.jpg,NA,NA,unpleasant,pleasant,NA,NA,NA,NA,NA,right,2330,true,NA,NA,NA,NA,NA
1lsxzM3N,3e6l1vr4yzzg81jodkfak6sl8ztf6z,3ywrv122cwcuihxwsqc9f4l7q688uu,1lsxzM3N,2020-0188,2021-10-17,22:29:37,23:47:18,NA,incomplete,false,true,NA,1,9,NA,yellow,m_s_097.jpg,NA,NA,pleasant,unpleasant,NA,NA,NA,NA,NA,left,1224,true,NA,NA,NA,NA,NA
1lsxzM3N,3e6l1vr4yzzg81jodkfak6sl8ztf6z,3ywrv122cwcuihxwsqc9f4l7q688uu,1lsxzM3N,2020-0188,2021-10-17,22:29:37,23:47:18,NA,incomplete,false,true,NA,1,10,NA,yellow,n_l_108.jpg,NA,NA,unpleasant,pleasant,NA,NA,NA,NA,NA,left,1907,true,NA,NA,NA,NA,NA
1lsxzM3N,3e6l1vr4yzzg81jodkfak6sl8ztf6z,3ywrv122cwcuihxwsqc9f4l7q688uu,1lsxzM3N,2020-0188,2021-10-17,22:29:37,23:47:18,NA,incomplete,false,true,NA,1,11,NA,yellow,m_s_074.jpg,NA,NA,pleasant,unpleasant,NA,NA,NA,NA,NA,left,2318,true,NA,NA,NA,NA,NA
1lsxzM3N,3e6l1vr4yzzg81jodkfak6sl8ztf6z,3ywrv122cwcuihxwsqc9f4l7q688uu,1lsxzM3N,2020-0188,2021-10-17,22:29:37,23:47:18,NA,incomplete,false,true,NA,1,12,NA,orange,n_l_116.jpg,NA,NA,pleasant,unpleasant,NA,NA,NA,NA,NA,left,1677,true,NA,NA,NA,NA,NA
1lsxzM3N,3e6l1vr4yzzg81jodkfak6sl8ztf6z,3ywrv122cwcuihxwsqc9f4l7q688uu,1lsxzM3N,2020-0188,2021-10-17,22:29:37,23:47:18,NA,incomplete,false,true,NA,1,13,NA,orange,n_l_050.jpg,NA,NA,pleasant,unpleasant,NA,NA,NA,NA,NA,right,1359,true,NA,NA,NA,NA,NA
1lsxzM3N,3e6l1vr4yzzg81jodkfak6sl8ztf6z,3ywrv122cwcuihxwsqc9f4l7q688uu,1lsxzM3N,2020-0188,2021-10-17,22:29:37,23:47:18,NA,incomplete,false,true,NA,1,14,NA,orange,m_l_046.jpg,NA,NA,pleasant,unpleasant,NA,NA,NA,NA,NA,left,1419,true,NA,NA,NA,NA,NA
1lsxzM3N,3e6l1vr4yzzg81jodkfak6sl8ztf6z,3ywrv122cwcuihxwsqc9f4l7q688uu,1lsxzM3N,2020-0188,2021-10-17,22:29:37,23:47:18,NA,incomplete,false,true,NA,1,15,NA,orange,n_l_105.jpg,NA,NA,pleasant,unpleasant,NA,NA,NA,NA,NA,right,1632,true,NA,NA,NA,NA,NA
1lsxzM3N,3e6l1vr4yzzg81jodkfak6sl8ztf6z,3ywrv122cwcuihxwsqc9f4l7q688uu,1lsxzM3N,2020-0188,2021-10-17,22:29:37,23:47:18,NA,incomplete,false,true,NA,1,16,NA,orange,n_l_015.jpg,NA,NA,pleasant,unpleasant,NA,NA,NA,NA,NA,right,2084,true,NA,NA,NA,NA,NA
1lsxzM3N,3e6l1vr4yzzg81jodkfak6sl8ztf6z,3ywrv122cwcuihxwsqc9f4l7q688uu,1lsxzM3N,2020-0188,2021-10-17,22:29:37,23:47:18,NA,incomplete,false,true,NA,1,17,NA,orange,n_l_057.jpg,NA,NA,unpleasant,pleasant,NA,NA,NA,NA,NA,right,1341,true,NA,NA,NA,NA,NA
1lsxzM3N,3e6l1vr4yzzg81jodkfak6sl8ztf6z,3ywrv122cwcuihxwsqc9f4l7q688uu,1lsxzM3N,2020-0188,2021-10-17,22:29:37,23:47:18,NA,incomplete,false,true,NA,1,18,NA,red,m_s_005.jpg,NA,NA,pleasant,unpleasant,NA,NA,NA,NA,NA,left,2227,true,NA,NA,NA,NA,NA
1lsxzM3N,3e6l1vr4yzzg81jodkfak6sl8ztf6z,3ywrv122cwcuihxwsqc9f4l7q688uu,1lsxzM3N,2020-0188,2021-10-17,22:29:37,23:47:18,NA,incomplete,false,true,NA,1,19,NA,red,m_l_088.jpg,NA,NA,pleasant,unpleasant,NA,NA,NA,NA,NA,left,3116,true,NA,NA,NA,NA,NA
1lsxzM3N,3e6l1vr4yzzg81jodkfak6sl8ztf6z,3ywrv122cwcuihxwsqc9f4l7q688uu,1lsxzM3N,2020-0188,2021-10-17,22:29:37,23:47:18,NA,incomplete,false,true,NA,1,20,NA,red,m_s_114.jpg,NA,NA,unpleasant,pleasant,NA,NA,NA,NA,NA,left,2558,true,NA,NA,NA,NA,NA
1lsxzM3N,3e6l1vr4yzzg81jodkfak6sl8ztf6z,3ywrv122cwcuihxwsqc9f4l7q688uu,1lsxzM3N,2020-0188,2021-10-17,22:29:37,23:47:18,NA,incomplete,false,true,NA,1,21,NA,red,m_s_014.jpg,NA,NA,pleasant,unpleasant,NA,NA,NA,NA,NA,left,1636,true,NA,NA,NA,NA,NA
1lsxzM3N,3e6l1vr4yzzg81jodkfak6sl8ztf6z,3ywrv122cwcuihxwsqc9f4l7q688uu,1lsxzM3N,2020-0188,2021-10-17,22:29:37,23:47:18,NA,incomplete,false,true,NA,1,22,NA,red,n_s_010.jpg,NA,NA,unpleasant,pleasant,NA,NA,NA,NA,NA,right,1932,true,NA,NA,NA,NA,NA
1lsxzM3N,3e6l1vr4yzzg81jodkfak6sl8ztf6z,3ywrv122cwcuihxwsqc9f4l7q688uu,1lsxzM3N,2020-0188,2021-10-17,22:29:37,23:47:18,NA,incomplete,false,true,NA,1,23,NA,red,n_s_117.jpg,NA,NA,unpleasant,pleasant,NA,NA,NA,NA,NA,left,1684,true,NA,NA,NA,NA,NA
1lsxzM3N,3e6l1vr4yzzg81jodkfak6sl8ztf6z,3ywrv122cwcuihxwsqc9f4l7q688uu,1lsxzM3N,2020-0188,2021-10-17,22:29:37,23:47:18,NA,incomplete,false,true,NA,1,24,NA,black,n_l_071.jpg,NA,NA,unpleasant,pleasant,NA,NA,NA,NA,NA,right,2663,true,NA,NA,NA,NA,NA
1lsxzM3N,3e6l1vr4yzzg81jodkfak6sl8ztf6z,3ywrv122cwcuihxwsqc9f4l7q688uu,1lsxzM3N,2020-0188,2021-10-17,22:29:37,23:47:18,NA,incomplete,false,true,NA,1,25,NA,black,n_s_075.jpg,NA,NA,pleasant,unpleasant,NA,NA,NA,NA,NA,left,1336,true,NA,NA,NA,NA,NA
1lsxzM3N,3e6l1vr4yzzg81jodkfak6sl8ztf6z,3ywrv122cwcuihxwsqc9f4l7q688uu,1lsxzM3N,2020-0188,2021-10-17,22:29:37,23:47:18,NA,incomplete,false,true,NA,1,26,NA,black,n_l_104.jpg,NA,NA,pleasant,unpleasant,NA,NA,NA,NA,NA,right,1774,true,NA,NA,NA,NA,NA
1lsxzM3N,3e6l1vr4yzzg81jodkfak6sl8ztf6z,3ywrv122cwcuihxwsqc9f4l7q688uu,1lsxzM3N,2020-0188,2021-10-17,22:29:37,23:47:18,NA,incomplete,false,true,NA,1,27,NA,black,m_s_100.jpg,NA,NA,unpleasant,pleasant,NA,NA,NA,NA,NA,right,3289,true,NA,NA,NA,NA,NA
1lsxzM3N,3e6l1vr4yzzg81jodkfak6sl8ztf6z,3ywrv122cwcuihxwsqc9f4l7q688uu,1lsxzM3N,2020-0188,2021-10-17,22:29:37,23:47:18,NA,incomplete,false,true,NA,1,28,NA,black,n_l_041.jpg,NA,NA,pleasant,unpleasant,NA,NA,NA,NA,NA,right,1440,true,NA,NA,NA,NA,NA
1lsxzM3N,3e6l1vr4yzzg81jodkfak6sl8ztf6z,3ywrv122cwcuihxwsqc9f4l7q688uu,1lsxzM3N,2020-0188,2021-10-17,22:29:37,23:47:18,NA,incomplete,false,true,NA,1,29,NA,black,m_l_028.jpg,NA,NA,pleasant,unpleasant,NA,NA,NA,NA,NA,left,2035,true,NA,NA,NA,NA,NA
1lsxzM3N,3e6l1vr4yzzg81jodkfak6sl8ztf6z,3ywrv122cwcuihxwsqc9f4l7q688uu,1lsxzM3N,2020-0188,2021-10-17,22:29:37,23:47:18,NA,incomplete,false,true,NA,1,30,NA,green,n_l_014.jpg,NA,NA,unpleasant,pleasant,NA,NA,NA,NA,NA,left,1740,true,NA,NA,NA,NA,NA
1lsxzM3N,3e6l1vr4yzzg81jodkfak6sl8ztf6z,3ywrv122cwcuihxwsqc9f4l7q688uu,1lsxzM3N,2020-0188,2021-10-17,22:29:37,23:47:18,NA,incomplete,false,true,NA,1,31,NA,green,m_l_008.jpg,NA,NA,pleasant,unpleasant,NA,NA,NA,NA,NA,right,1649,true,NA,NA,NA,NA,NA
1lsxzM3N,3e6l1vr4yzzg81jodkfak6sl8ztf6z,3ywrv122cwcuihxwsqc9f4l7q688uu,1lsxzM3N,2020-0188,2021-10-17,22:29:37,23:47:18,NA,incomplete,false,true,NA,1,32,NA,green,m_l_099.jpg,NA,NA,pleasant,unpleasant,NA,NA,NA,NA,NA,left,2021,true,NA,NA,NA,NA,NA
1lsxzM3N,3e6l1vr4yzzg81jodkfak6sl8ztf6z,3ywrv122cwcuihxwsqc9f4l7q688uu,1lsxzM3N,2020-0188,2021-10-17,22:29:37,23:47:18,NA,incomplete,false,true,NA,1,33,NA,green,n_s_076.jpg,NA,NA,unpleasant,pleasant,NA,NA,NA,NA,NA,left,2806,true,NA,NA,NA,NA,NA
1lsxzM3N,3e6l1vr4yzzg81jodkfak6sl8ztf6z,3ywrv122cwcuihxwsqc9f4l7q688uu,1lsxzM3N,2020-0188,2021-10-17,22:29:37,23:47:18,NA,incomplete,false,true,NA,1,34,NA,green,m_s_043.jpg,NA,NA,pleasant,unpleasant,NA,NA,NA,NA,NA,right,1675,true,NA,NA,NA,NA,NA
1lsxzM3N,3e6l1vr4yzzg81jodkfak6sl8ztf6z,3ywrv122cwcuihxwsqc9f4l7q688uu,1lsxzM3N,2020-0188,2021-10-17,22:29:37,23:47:18,NA,incomplete,false,true,NA,1,35,NA,green,m_l_044.jpg,NA,NA,pleasant,unpleasant,NA,NA,NA,NA,NA,left,1687,true,NA,NA,NA,NA,NA
1lsxzM3N,3e6l1vr4yzzg81jodkfak6sl8ztf6z,3ywrv122cwcuihxwsqc9f4l7q688uu,1lsxzM3N,2020-0188,2021-10-17,22:29:37,23:47:18,NA,incomplete,false,NA,true,1,0,NA,NA,NA,right,present,NA,NA,m_s_114.jpg,red,n_l_015.jpg,orange,between,NA,NaN,NA,left,8153,0,1,2856
1lsxzM3N,3e6l1vr4yzzg81jodkfak6sl8ztf6z,3ywrv122cwcuihxwsqc9f4l7q688uu,1lsxzM3N,2020-0188,2021-10-17,22:29:37,23:47:18,NA,incomplete,false,NA,true,1,1,NA,NA,NA,left,present,NA,NA,n_l_050.jpg,orange,n_l_057.jpg,orange,within,NA,NaN,NA,right,6939,0,2,4603
1lsxzM3N,3e6l1vr4yzzg81jodkfak6sl8ztf6z,3ywrv122cwcuihxwsqc9f4l7q688uu,1lsxzM3N,2020-0188,2021-10-17,22:29:37,23:47:18,NA,incomplete,false,NA,true,1,2,NA,NA,NA,left,present,NA,NA,m_l_027.jpg,purple,m_l_075.jpg,yellow,between,NA,NaN,NA,left,5269,1,1,1986
1lsxzM3N,3e6l1vr4yzzg81jodkfak6sl8ztf6z,3ywrv122cwcuihxwsqc9f4l7q688uu,1lsxzM3N,2020-0188,2021-10-17,22:29:37,23:47:18,NA,incomplete,false,NA,true,1,3,NA,NA,NA,left,present,NA,NA,m_l_088.jpg,red,n_s_117.jpg,red,within,NA,NaN,NA,left,13654,1,1,3417
1lsxzM3N,3e6l1vr4yzzg81jodkfak6sl8ztf6z,3ywrv122cwcuihxwsqc9f4l7q688uu,1lsxzM3N,2020-0188,2021-10-17,22:29:37,23:47:18,NA,incomplete,false,NA,true,1,4,NA,NA,NA,left,present,NA,NA,m_l_008.jpg,green,m_l_044.jpg,green,within,NA,NaN,NA,right,4426,0,2,4076
1lsxzM3N,3e6l1vr4yzzg81jodkfak6sl8ztf6z,3ywrv122cwcuihxwsqc9f4l7q688uu,1lsxzM3N,2020-0188,2021-10-17,22:29:37,23:47:18,NA,incomplete,false,NA,true,1,5,NA,NA,NA,left,present,NA,NA,m_l_082.jpg,purple,n_l_047.jpg,purple,within,NA,NaN,NA,left,2642,1,2,3156
1lsxzM3N,3e6l1vr4yzzg81jodkfak6sl8ztf6z,3ywrv122cwcuihxwsqc9f4l7q688uu,1lsxzM3N,2020-0188,2021-10-17,22:29:37,23:47:18,NA,incomplete,false,NA,true,1,6,NA,NA,NA,right,present,NA,NA,m_s_074.jpg,yellow,m_s_029.jpg,yellow,within,NA,NaN,NA,right,3947,1,1,4361
1lsxzM3N,3e6l1vr4yzzg81jodkfak6sl8ztf6z,3ywrv122cwcuihxwsqc9f4l7q688uu,1lsxzM3N,2020-0188,2021-10-17,22:29:37,23:47:18,NA,incomplete,false,NA,true,1,7,NA,NA,NA,left,present,NA,NA,n_s_010.jpg,red,n_l_104.jpg,black,between,NA,NaN,NA,right,5170,0,1,3201
1lsxzM3N,3e6l1vr4yzzg81jodkfak6sl8ztf6z,3ywrv122cwcuihxwsqc9f4l7q688uu,1lsxzM3N,2020-0188,2021-10-17,22:29:37,23:47:18,NA,incomplete,false,NA,true,1,8,NA,NA,NA,right,present,NA,NA,m_l_028.jpg,black,n_s_075.jpg,black,within,NA,NaN,NA,left,22358,0,2,3248
1lsxzM3N,3e6l1vr4yzzg81jodkfak6sl8ztf6z,3ywrv122cwcuihxwsqc9f4l7q688uu,1lsxzM3N,2020-0188,2021-10-17,22:29:37,23:47:18,NA,incomplete,false,NA,true,1,9,NA,NA,NA,left,present,NA,NA,n_l_041.jpg,black,m_l_099.jpg,green,between,NA,NaN,NA,right,4172,0,2,1816
1lsxzM3N,3e6l1vr4yzzg81jodkfak6sl8ztf6z,3ywrv122cwcuihxwsqc9f4l7q688uu,1lsxzM3N,2020-0188,2021-10-17,22:29:37,23:47:18,NA,incomplete,false,NA,true,1,10,NA,NA,NA,left,present,NA,NA,n_l_108.jpg,yellow,m_l_046.jpg,orange,between,NA,NaN,NA,left,3538,1,2,3021
1lsxzM3N,3e6l1vr4yzzg81jodkfak6sl8ztf6z,3ywrv122cwcuihxwsqc9f4l7q688uu,1lsxzM3N,2020-0188,2021-10-17,22:29:37,23:47:18,NA,incomplete,false,true,NA,2,0,NA,orange,n_s_065.jpg,NA,NA,unpleasant,pleasant,NA,NA,NA,NA,NA,none,0,false,NA,NA,NA,NA,NA
1lsxzM3N,3e6l1vr4yzzg81jodkfak6sl8ztf6z,3ywrv122cwcuihxwsqc9f4l7q688uu,1lsxzM3N,2020-0188,2021-10-17,22:29:37,23:47:18,NA,incomplete,false,true,NA,2,1,NA,orange,m_s_066.jpg,NA,NA,pleasant,unpleasant,NA,NA,NA,NA,NA,right,3346,true,NA,NA,NA,NA,NA
1lsxzM3N,3e6l1vr4yzzg81jodkfak6sl8ztf6z,3ywrv122cwcuihxwsqc9f4l7q688uu,1lsxzM3N,2020-0188,2021-10-17,22:29:37,23:47:18,NA,incomplete,false,true,NA,2,2,NA,orange,n_s_115.jpg,NA,NA,pleasant,unpleasant,NA,NA,NA,NA,NA,right,1946,true,NA,NA,NA,NA,NA
1lsxzM3N,3e6l1vr4yzzg81jodkfak6sl8ztf6z,3ywrv122cwcuihxwsqc9f4l7q688uu,1lsxzM3N,2020-0188,2021-10-17,22:29:37,23:47:18,NA,incomplete,false,true,NA,2,3,NA,orange,m_s_026.jpg,NA,NA,unpleasant,pleasant,NA,NA,NA,NA,NA,right,2770,true,NA,NA,NA,NA,NA
1lsxzM3N,3e6l1vr4yzzg81jodkfak6sl8ztf6z,3ywrv122cwcuihxwsqc9f4l7q688uu,1lsxzM3N,2020-0188,2021-10-17,22:29:37,23:47:18,NA,incomplete,false,true,NA,2,4,NA,orange,m_s_059.jpg,NA,NA,unpleasant,pleasant,NA,NA,NA,NA,NA,right,3435,true,NA,NA,NA,NA,NA
1lsxzM3N,3e6l1vr4yzzg81jodkfak6sl8ztf6z,3ywrv122cwcuihxwsqc9f4l7q688uu,1lsxzM3N,2020-0188,2021-10-17,22:29:37,23:47:18,NA,incomplete,false,true,NA,2,5,NA,orange,m_l_084.jpg,NA,NA,pleasant,unpleasant,NA,NA,NA,NA,NA,left,1691,true,NA,NA,NA,NA,NA
1lsxzM3N,3e6l1vr4yzzg81jodkfak6sl8ztf6z,3ywrv122cwcuihxwsqc9f4l7q688uu,1lsxzM3N,2020-0188,2021-10-17,22:29:37,23:47:18,NA,incomplete,false,true,NA,2,6,NA,red,m_s_028.jpg,NA,NA,unpleasant,pleasant,NA,NA,NA,NA,NA,right,2253,true,NA,NA,NA,NA,NA
1lsxzM3N,3e6l1vr4yzzg81jodkfak6sl8ztf6z,3ywrv122cwcuihxwsqc9f4l7q688uu,1lsxzM3N,2020-0188,2021-10-17,22:29:37,23:47:18,NA,incomplete,false,true,NA,2,7,NA,red,m_s_108.jpg,NA,NA,unpleasant,pleasant,NA,NA,NA,NA,NA,right,2526,true,NA,NA,NA,NA,NA
1lsxzM3N,3e6l1vr4yzzg81jodkfak6sl8ztf6z,3ywrv122cwcuihxwsqc9f4l7q688uu,1lsxzM3N,2020-0188,2021-10-17,22:29:37,23:47:18,NA,incomplete,false,true,NA,2,8,NA,red,m_l_083.jpg,NA,NA,unpleasant,pleasant,NA,NA,NA,NA,NA,right,1629,true,NA,NA,NA,NA,NA
1lsxzM3N,3e6l1vr4yzzg81jodkfak6sl8ztf6z,3ywrv122cwcuihxwsqc9f4l7q688uu,1lsxzM3N,2020-0188,2021-10-17,22:29:37,23:47:18,NA,incomplete,false,true,NA,2,9,NA,red,m_l_076.jpg,NA,NA,unpleasant,pleasant,NA,NA,NA,NA,NA,right,2250,true,NA,NA,NA,NA,NA
1lsxzM3N,3e6l1vr4yzzg81jodkfak6sl8ztf6z,3ywrv122cwcuihxwsqc9f4l7q688uu,1lsxzM3N,2020-0188,2021-10-17,22:29:37,23:47:18,NA,incomplete,false,true,NA,2,10,NA,red,n_l_030.jpg,NA,NA,unpleasant,pleasant,NA,NA,NA,NA,NA,left,1401,true,NA,NA,NA,NA,NA
1lsxzM3N,3e6l1vr4yzzg81jodkfak6sl8ztf6z,3ywrv122cwcuihxwsqc9f4l7q688uu,1lsxzM3N,2020-0188,2021-10-17,22:29:37,23:47:18,NA,incomplete,false,true,NA,2,11,NA,red,n_l_051.jpg,NA,NA,unpleasant,pleasant,NA,NA,NA,NA,NA,left,1087,true,NA,NA,NA,NA,NA
1lsxzM3N,3e6l1vr4yzzg81jodkfak6sl8ztf6z,3ywrv122cwcuihxwsqc9f4l7q688uu,1lsxzM3N,2020-0188,2021-10-17,22:29:37,23:47:18,NA,incomplete,false,true,NA,2,12,NA,brown,n_l_007.jpg,NA,NA,pleasant,unpleasant,NA,NA,NA,NA,NA,right,2090,true,NA,NA,NA,NA,NA
1lsxzM3N,3e6l1vr4yzzg81jodkfak6sl8ztf6z,3ywrv122cwcuihxwsqc9f4l7q688uu,1lsxzM3N,2020-0188,2021-10-17,22:29:37,23:47:18,NA,incomplete,false,true,NA,2,13,NA,brown,n_s_110.jpg,NA,NA,unpleasant,pleasant,NA,NA,NA,NA,NA,left,1619,true,NA,NA,NA,NA,NA
1lsxzM3N,3e6l1vr4yzzg81jodkfak6sl8ztf6z,3ywrv122cwcuihxwsqc9f4l7q688uu,1lsxzM3N,2020-0188,2021-10-17,22:29:37,23:47:18,NA,incomplete,false,true,NA,2,14,NA,brown,m_l_014.jpg,NA,NA,unpleasant,pleasant,NA,NA,NA,NA,NA,right,2154,true,NA,NA,NA,NA,NA
1lsxzM3N,3e6l1vr4yzzg81jodkfak6sl8ztf6z,3ywrv122cwcuihxwsqc9f4l7q688uu,1lsxzM3N,2020-0188,2021-10-17,22:29:37,23:47:18,NA,incomplete,false,true,NA,2,15,NA,brown,n_l_115.jpg,NA,NA,pleasant,unpleasant,NA,NA,NA,NA,NA,left,2635,true,NA,NA,NA,NA,NA
1lsxzM3N,3e6l1vr4yzzg81jodkfak6sl8ztf6z,3ywrv122cwcuihxwsqc9f4l7q688uu,1lsxzM3N,2020-0188,2021-10-17,22:29:37,23:47:18,NA,incomplete,false,true,NA,2,16,NA,brown,m_s_030.jpg,NA,NA,unpleasant,pleasant,NA,NA,NA,NA,NA,right,1507,true,NA,NA,NA,NA,NA
1lsxzM3N,3e6l1vr4yzzg81jodkfak6sl8ztf6z,3ywrv122cwcuihxwsqc9f4l7q688uu,1lsxzM3N,2020-0188,2021-10-17,22:29:37,23:47:18,NA,incomplete,false,true,NA,2,17,NA,brown,n_l_078.jpg,NA,NA,unpleasant,pleasant,NA,NA,NA,NA,NA,left,2237,true,NA,NA,NA,NA,NA
1lsxzM3N,3e6l1vr4yzzg81jodkfak6sl8ztf6z,3ywrv122cwcuihxwsqc9f4l7q688uu,1lsxzM3N,2020-0188,2021-10-17,22:29:37,23:47:18,NA,incomplete,false,true,NA,2,18,NA,purple,m_s_047.jpg,NA,NA,unpleasant,pleasant,NA,NA,NA,NA,NA,right,1495,true,NA,NA,NA,NA,NA
1lsxzM3N,3e6l1vr4yzzg81jodkfak6sl8ztf6z,3ywrv122cwcuihxwsqc9f4l7q688uu,1lsxzM3N,2020-0188,2021-10-17,22:29:37,23:47:18,NA,incomplete,false,true,NA,2,19,NA,purple,n_l_070.jpg,NA,NA,unpleasant,pleasant,NA,NA,NA,NA,NA,right,1330,true,NA,NA,NA,NA,NA
1lsxzM3N,3e6l1vr4yzzg81jodkfak6sl8ztf6z,3ywrv122cwcuihxwsqc9f4l7q688uu,1lsxzM3N,2020-0188,2021-10-17,22:29:37,23:47:18,NA,incomplete,false,true,NA,2,20,NA,purple,m_s_117.jpg,NA,NA,unpleasant,pleasant,NA,NA,NA,NA,NA,none,0,false,NA,NA,NA,NA,NA
1lsxzM3N,3e6l1vr4yzzg81jodkfak6sl8ztf6z,3ywrv122cwcuihxwsqc9f4l7q688uu,1lsxzM3N,2020-0188,2021-10-17,22:29:37,23:47:18,NA,incomplete,false,true,NA,2,21,NA,purple,n_s_102.jpg,NA,NA,pleasant,unpleasant,NA,NA,NA,NA,NA,none,0,false,NA,NA,NA,NA,NA
1lsxzM3N,3e6l1vr4yzzg81jodkfak6sl8ztf6z,3ywrv122cwcuihxwsqc9f4l7q688uu,1lsxzM3N,2020-0188,2021-10-17,22:29:37,23:47:18,NA,incomplete,false,true,NA,2,22,NA,purple,n_s_072.jpg,NA,NA,unpleasant,pleasant,NA,NA,NA,NA,NA,right,1537,true,NA,NA,NA,NA,NA
1lsxzM3N,3e6l1vr4yzzg81jodkfak6sl8ztf6z,3ywrv122cwcuihxwsqc9f4l7q688uu,1lsxzM3N,2020-0188,2021-10-17,22:29:37,23:47:18,NA,incomplete,false,true,NA,2,23,NA,purple,m_l_071.jpg,NA,NA,pleasant,unpleasant,NA,NA,NA,NA,NA,left,1482,true,NA,NA,NA,NA,NA
1lsxzM3N,3e6l1vr4yzzg81jodkfak6sl8ztf6z,3ywrv122cwcuihxwsqc9f4l7q688uu,1lsxzM3N,2020-0188,2021-10-17,22:29:37,23:47:18,NA,incomplete,false,true,NA,2,24,NA,green,n_s_091.jpg,NA,NA,unpleasant,pleasant,NA,NA,NA,NA,NA,left,2130,true,NA,NA,NA,NA,NA
1lsxzM3N,3e6l1vr4yzzg81jodkfak6sl8ztf6z,3ywrv122cwcuihxwsqc9f4l7q688uu,1lsxzM3N,2020-0188,2021-10-17,22:29:37,23:47:18,NA,incomplete,false,true,NA,2,25,NA,green,m_l_115.jpg,NA,NA,unpleasant,pleasant,NA,NA,NA,NA,NA,right,2116,true,NA,NA,NA,NA,NA
1lsxzM3N,3e6l1vr4yzzg81jodkfak6sl8ztf6z,3ywrv122cwcuihxwsqc9f4l7q688uu,1lsxzM3N,2020-0188,2021-10-17,22:29:37,23:47:18,NA,incomplete,false,true,NA,2,26,NA,green,m_s_012.jpg,NA,NA,pleasant,unpleasant,NA,NA,NA,NA,NA,left,1821,true,NA,NA,NA,NA,NA
1lsxzM3N,3e6l1vr4yzzg81jodkfak6sl8ztf6z,3ywrv122cwcuihxwsqc9f4l7q688uu,1lsxzM3N,2020-0188,2021-10-17,22:29:37,23:47:18,NA,incomplete,false,true,NA,2,27,NA,green,m_l_006.jpg,NA,NA,pleasant,unpleasant,NA,NA,NA,NA,NA,right,3169,true,NA,NA,NA,NA,NA
1lsxzM3N,3e6l1vr4yzzg81jodkfak6sl8ztf6z,3ywrv122cwcuihxwsqc9f4l7q688uu,1lsxzM3N,2020-0188,2021-10-17,22:29:37,23:47:18,NA,incomplete,false,true,NA,2,28,NA,green,n_s_030.jpg,NA,NA,unpleasant,pleasant,NA,NA,NA,NA,NA,right,2805,true,NA,NA,NA,NA,NA
1lsxzM3N,3e6l1vr4yzzg81jodkfak6sl8ztf6z,3ywrv122cwcuihxwsqc9f4l7q688uu,1lsxzM3N,2020-0188,2021-10-17,22:29:37,23:47:18,NA,incomplete,false,true,NA,2,29,NA,green,n_l_102.jpg,NA,NA,pleasant,unpleasant,NA,NA,NA,NA,NA,left,2713,true,NA,NA,NA,NA,NA
1lsxzM3N,3e6l1vr4yzzg81jodkfak6sl8ztf6z,3ywrv122cwcuihxwsqc9f4l7q688uu,1lsxzM3N,2020-0188,2021-10-17,22:29:37,23:47:18,NA,incomplete,false,true,NA,2,30,NA,white,n_s_078.jpg,NA,NA,pleasant,unpleasant,NA,NA,NA,NA,NA,left,3444,true,NA,NA,NA,NA,NA
1lsxzM3N,3e6l1vr4yzzg81jodkfak6sl8ztf6z,3ywrv122cwcuihxwsqc9f4l7q688uu,1lsxzM3N,2020-0188,2021-10-17,22:29:37,23:47:18,NA,incomplete,false,true,NA,2,31,NA,white,n_s_063.jpg,NA,NA,pleasant,unpleasant,NA,NA,NA,NA,NA,left,2039,true,NA,NA,NA,NA,NA
1lsxzM3N,3e6l1vr4yzzg81jodkfak6sl8ztf6z,3ywrv122cwcuihxwsqc9f4l7q688uu,1lsxzM3N,2020-0188,2021-10-17,22:29:37,23:47:18,NA,incomplete,false,true,NA,2,32,NA,white,n_l_052.jpg,NA,NA,pleasant,unpleasant,NA,NA,NA,NA,NA,right,2184,true,NA,NA,NA,NA,NA
1lsxzM3N,3e6l1vr4yzzg81jodkfak6sl8ztf6z,3ywrv122cwcuihxwsqc9f4l7q688uu,1lsxzM3N,2020-0188,2021-10-17,22:29:37,23:47:18,NA,incomplete,false,true,NA,2,33,NA,white,m_l_086.jpg,NA,NA,pleasant,unpleasant,NA,NA,NA,NA,NA,left,1379,true,NA,NA,NA,NA,NA
1lsxzM3N,3e6l1vr4yzzg81jodkfak6sl8ztf6z,3ywrv122cwcuihxwsqc9f4l7q688uu,1lsxzM3N,2020-0188,2021-10-17,22:29:37,23:47:18,NA,incomplete,false,true,NA,2,34,NA,white,n_s_020.jpg,NA,NA,unpleasant,pleasant,NA,NA,NA,NA,NA,left,3232,true,NA,NA,NA,NA,NA
1lsxzM3N,3e6l1vr4yzzg81jodkfak6sl8ztf6z,3ywrv122cwcuihxwsqc9f4l7q688uu,1lsxzM3N,2020-0188,2021-10-17,22:29:37,23:47:18,NA,incomplete,false,true,NA,2,35,NA,white,n_s_012.jpg,NA,NA,unpleasant,pleasant,NA,NA,NA,NA,NA,right,1290,true,NA,NA,NA,NA,NA
1lsxzM3N,3e6l1vr4yzzg81jodkfak6sl8ztf6z,3ywrv122cwcuihxwsqc9f4l7q688uu,1lsxzM3N,2020-0188,2021-10-17,22:29:37,23:47:18,NA,incomplete,false,NA,true,2,0,NA,NA,NA,right,absent,NA,NA,m_l_083.jpg,red,m_s_059.jpg,orange,between,NA,NaN,NA,left,9559,0,1,2039
1lsxzM3N,3e6l1vr4yzzg81jodkfak6sl8ztf6z,3ywrv122cwcuihxwsqc9f4l7q688uu,1lsxzM3N,2020-0188,2021-10-17,22:29:37,23:47:18,NA,incomplete,false,NA,true,2,1,NA,NA,NA,right,absent,NA,NA,n_l_078.jpg,brown,n_s_110.jpg,brown,within,NA,NaN,NA,right,6427,1,2,1837
1lsxzM3N,3e6l1vr4yzzg81jodkfak6sl8ztf6z,3ywrv122cwcuihxwsqc9f4l7q688uu,1lsxzM3N,2020-0188,2021-10-17,22:29:37,23:47:18,NA,incomplete,false,NA,true,2,2,NA,NA,NA,right,absent,NA,NA,m_s_117.jpg,purple,m_s_030.jpg,brown,between,NA,NaN,NA,right,3473,1,2,2555
1lsxzM3N,3e6l1vr4yzzg81jodkfak6sl8ztf6z,3ywrv122cwcuihxwsqc9f4l7q688uu,1lsxzM3N,2020-0188,2021-10-17,22:29:37,23:47:18,NA,incomplete,false,NA,true,2,3,NA,NA,NA,right,absent,NA,NA,n_s_012.jpg,white,n_s_063.jpg,white,within,NA,NaN,NA,left,4717,0,1,1724
1lsxzM3N,3e6l1vr4yzzg81jodkfak6sl8ztf6z,3ywrv122cwcuihxwsqc9f4l7q688uu,1lsxzM3N,2020-0188,2021-10-17,22:29:37,23:47:18,NA,incomplete,false,NA,true,2,4,NA,NA,NA,left,absent,NA,NA,m_l_115.jpg,green,n_l_102.jpg,green,within,NA,NaN,NA,left,4091,1,2,4117
1lsxzM3N,3e6l1vr4yzzg81jodkfak6sl8ztf6z,3ywrv122cwcuihxwsqc9f4l7q688uu,1lsxzM3N,2020-0188,2021-10-17,22:29:37,23:47:18,NA,incomplete,false,NA,true,2,5,NA,NA,NA,right,absent,NA,NA,n_l_051.jpg,red,m_s_108.jpg,red,within,NA,NaN,NA,right,4570,1,2,2083
1lsxzM3N,3e6l1vr4yzzg81jodkfak6sl8ztf6z,3ywrv122cwcuihxwsqc9f4l7q688uu,1lsxzM3N,2020-0188,2021-10-17,22:29:37,23:47:18,NA,incomplete,false,NA,true,2,6,NA,NA,NA,left,absent,NA,NA,n_l_030.jpg,red,m_l_014.jpg,brown,between,NA,NaN,NA,left,4399,1,2,2564
1lsxzM3N,3e6l1vr4yzzg81jodkfak6sl8ztf6z,3ywrv122cwcuihxwsqc9f4l7q688uu,1lsxzM3N,2020-0188,2021-10-17,22:29:37,23:47:18,NA,incomplete,false,NA,true,2,7,NA,NA,NA,right,absent,NA,NA,m_l_084.jpg,orange,m_s_066.jpg,orange,within,NA,NaN,NA,right,4701,1,1,2884
1lsxzM3N,3e6l1vr4yzzg81jodkfak6sl8ztf6z,3ywrv122cwcuihxwsqc9f4l7q688uu,1lsxzM3N,2020-0188,2021-10-17,22:29:37,23:47:18,NA,incomplete,false,NA,true,2,8,NA,NA,NA,left,absent,NA,NA,n_l_070.jpg,purple,m_l_071.jpg,purple,within,NA,NaN,NA,right,3012,0,2,8106
1lsxzM3N,3e6l1vr4yzzg81jodkfak6sl8ztf6z,3ywrv122cwcuihxwsqc9f4l7q688uu,1lsxzM3N,2020-0188,2021-10-17,22:29:37,23:47:18,NA,incomplete,false,NA,true,2,9,NA,NA,NA,right,absent,NA,NA,n_l_052.jpg,white,n_s_030.jpg,green,between,NA,NaN,NA,left,3813,0,1,11636
1lsxzM3N,3e6l1vr4yzzg81jodkfak6sl8ztf6z,3ywrv122cwcuihxwsqc9f4l7q688uu,1lsxzM3N,2020-0188,2021-10-17,22:29:37,23:47:18,NA,incomplete,false,NA,true,2,10,NA,NA,NA,right,absent,NA,NA,m_s_012.jpg,green,n_s_072.jpg,purple,between,NA,NaN,NA,left,3043,0,2,1645
1lsxzM3N,3e6l1vr4yzzg81jodkfak6sl8ztf6z,3ywrv122cwcuihxwsqc9f4l7q688uu,1lsxzM3N,2020-0188,2021-10-17,22:29:37,23:47:18,NA,incomplete,false,true,NA,3,0,NA,orange,n_s_114.jpg,NA,NA,unpleasant,pleasant,NA,NA,NA,NA,NA,right,2850,true,NA,NA,NA,NA,NA
1lsxzM3N,3e6l1vr4yzzg81jodkfak6sl8ztf6z,3ywrv122cwcuihxwsqc9f4l7q688uu,1lsxzM3N,2020-0188,2021-10-17,22:29:37,23:47:18,NA,incomplete,false,true,NA,3,1,NA,orange,m_s_048.jpg,NA,NA,unpleasant,pleasant,NA,NA,NA,NA,NA,none,0,false,NA,NA,NA,NA,NA
1lsxzM3N,3e6l1vr4yzzg81jodkfak6sl8ztf6z,3ywrv122cwcuihxwsqc9f4l7q688uu,1lsxzM3N,2020-0188,2021-10-17,22:29:37,23:47:18,NA,incomplete,false,true,NA,3,2,NA,orange,n_s_023.jpg,NA,NA,pleasant,unpleasant,NA,NA,NA,NA,NA,none,0,false,NA,NA,NA,NA,NA
1lsxzM3N,3e6l1vr4yzzg81jodkfak6sl8ztf6z,3ywrv122cwcuihxwsqc9f4l7q688uu,1lsxzM3N,2020-0188,2021-10-17,22:29:37,23:47:18,NA,incomplete,false,true,NA,3,3,NA,orange,n_s_015.jpg,NA,NA,unpleasant,pleasant,NA,NA,NA,NA,NA,right,3091,true,NA,NA,NA,NA,NA
1lsxzM3N,3e6l1vr4yzzg81jodkfak6sl8ztf6z,3ywrv122cwcuihxwsqc9f4l7q688uu,1lsxzM3N,2020-0188,2021-10-17,22:29:37,23:47:18,NA,incomplete,false,true,NA,3,4,NA,orange,m_s_098.jpg,NA,NA,pleasant,unpleasant,NA,NA,NA,NA,NA,left,2184,true,NA,NA,NA,NA,NA
1lsxzM3N,3e6l1vr4yzzg81jodkfak6sl8ztf6z,3ywrv122cwcuihxwsqc9f4l7q688uu,1lsxzM3N,2020-0188,2021-10-17,22:29:37,23:47:18,NA,incomplete,false,true,NA,3,5,NA,orange,m_s_052.jpg,NA,NA,unpleasant,pleasant,NA,NA,NA,NA,NA,right,1590,true,NA,NA,NA,NA,NA
1lsxzM3N,3e6l1vr4yzzg81jodkfak6sl8ztf6z,3ywrv122cwcuihxwsqc9f4l7q688uu,1lsxzM3N,2020-0188,2021-10-17,22:29:37,23:47:18,NA,incomplete,false,true,NA,3,6,NA,black,m_l_048.jpg,NA,NA,unpleasant,pleasant,NA,NA,NA,NA,NA,right,2148,true,NA,NA,NA,NA,NA
1lsxzM3N,3e6l1vr4yzzg81jodkfak6sl8ztf6z,3ywrv122cwcuihxwsqc9f4l7q688uu,1lsxzM3N,2020-0188,2021-10-17,22:29:37,23:47:18,NA,incomplete,false,true,NA,3,7,NA,black,m_s_022.jpg,NA,NA,unpleasant,pleasant,NA,NA,NA,NA,NA,right,1850,true,NA,NA,NA,NA,NA
1lsxzM3N,3e6l1vr4yzzg81jodkfak6sl8ztf6z,3ywrv122cwcuihxwsqc9f4l7q688uu,1lsxzM3N,2020-0188,2021-10-17,22:29:37,23:47:18,NA,incomplete,false,true,NA,3,8,NA,black,n_s_111.jpg,NA,NA,unpleasant,pleasant,NA,NA,NA,NA,NA,right,1295,true,NA,NA,NA,NA,NA
1lsxzM3N,3e6l1vr4yzzg81jodkfak6sl8ztf6z,3ywrv122cwcuihxwsqc9f4l7q688uu,1lsxzM3N,2020-0188,2021-10-17,22:29:37,23:47:18,NA,incomplete,false,true,NA,3,9,NA,black,n_s_019.jpg,NA,NA,unpleasant,pleasant,NA,NA,NA,NA,NA,right,2908,true,NA,NA,NA,NA,NA
1lsxzM3N,3e6l1vr4yzzg81jodkfak6sl8ztf6z,3ywrv122cwcuihxwsqc9f4l7q688uu,1lsxzM3N,2020-0188,2021-10-17,22:29:37,23:47:18,NA,incomplete,false,true,NA,3,10,NA,black,n_l_083.jpg,NA,NA,unpleasant,pleasant,NA,NA,NA,NA,NA,left,1743,true,NA,NA,NA,NA,NA
1lsxzM3N,3e6l1vr4yzzg81jodkfak6sl8ztf6z,3ywrv122cwcuihxwsqc9f4l7q688uu,1lsxzM3N,2020-0188,2021-10-17,22:29:37,23:47:18,NA,incomplete,false,true,NA,3,11,NA,black,n_l_067.jpg,NA,NA,pleasant,unpleasant,NA,NA,NA,NA,NA,left,1651,true,NA,NA,NA,NA,NA
1lsxzM3N,3e6l1vr4yzzg81jodkfak6sl8ztf6z,3ywrv122cwcuihxwsqc9f4l7q688uu,1lsxzM3N,2020-0188,2021-10-17,22:29:37,23:47:18,NA,incomplete,false,true,NA,3,12,NA,brown,m_l_002.jpg,NA,NA,pleasant,unpleasant,NA,NA,NA,NA,NA,left,1706,true,NA,NA,NA,NA,NA
1lsxzM3N,3e6l1vr4yzzg81jodkfak6sl8ztf6z,3ywrv122cwcuihxwsqc9f4l7q688uu,1lsxzM3N,2020-0188,2021-10-17,22:29:37,23:47:18,NA,incomplete,false,true,NA,3,13,NA,brown,n_s_107.jpg,NA,NA,unpleasant,pleasant,NA,NA,NA,NA,NA,left,2850,true,NA,NA,NA,NA,NA
1lsxzM3N,3e6l1vr4yzzg81jodkfak6sl8ztf6z,3ywrv122cwcuihxwsqc9f4l7q688uu,1lsxzM3N,2020-0188,2021-10-17,22:29:37,23:47:18,NA,incomplete,false,true,NA,3,14,NA,brown,n_l_010.jpg,NA,NA,pleasant,unpleasant,NA,NA,NA,NA,NA,left,2364,true,NA,NA,NA,NA,NA
1lsxzM3N,3e6l1vr4yzzg81jodkfak6sl8ztf6z,3ywrv122cwcuihxwsqc9f4l7q688uu,1lsxzM3N,2020-0188,2021-10-17,22:29:37,23:47:18,NA,incomplete,false,true,NA,3,15,NA,brown,m_s_105.jpg,NA,NA,unpleasant,pleasant,NA,NA,NA,NA,NA,none,0,false,NA,NA,NA,NA,NA
1lsxzM3N,3e6l1vr4yzzg81jodkfak6sl8ztf6z,3ywrv122cwcuihxwsqc9f4l7q688uu,1lsxzM3N,2020-0188,2021-10-17,22:29:37,23:47:18,NA,incomplete,false,true,NA,3,16,NA,brown,m_l_074.jpg,NA,NA,unpleasant,pleasant,NA,NA,NA,NA,NA,left,2585,true,NA,NA,NA,NA,NA
1lsxzM3N,3e6l1vr4yzzg81jodkfak6sl8ztf6z,3ywrv122cwcuihxwsqc9f4l7q688uu,1lsxzM3N,2020-0188,2021-10-17,22:29:37,23:47:18,NA,incomplete,false,true,NA,3,17,NA,brown,n_s_008.jpg,NA,NA,unpleasant,pleasant,NA,NA,NA,NA,NA,none,0,false,NA,NA,NA,NA,NA
1lsxzM3N,3e6l1vr4yzzg81jodkfak6sl8ztf6z,3ywrv122cwcuihxwsqc9f4l7q688uu,1lsxzM3N,2020-0188,2021-10-17,22:29:37,23:47:18,NA,incomplete,false,true,NA,3,18,NA,red,n_l_085.jpg,NA,NA,pleasant,unpleasant,NA,NA,NA,NA,NA,right,2010,true,NA,NA,NA,NA,NA
1lsxzM3N,3e6l1vr4yzzg81jodkfak6sl8ztf6z,3ywrv122cwcuihxwsqc9f4l7q688uu,1lsxzM3N,2020-0188,2021-10-17,22:29:37,23:47:18,NA,incomplete,false,true,NA,3,19,NA,red,m_l_057.jpg,NA,NA,unpleasant,pleasant,NA,NA,NA,NA,NA,none,0,false,NA,NA,NA,NA,NA
1lsxzM3N,3e6l1vr4yzzg81jodkfak6sl8ztf6z,3ywrv122cwcuihxwsqc9f4l7q688uu,1lsxzM3N,2020-0188,2021-10-17,22:29:37,23:47:18,NA,incomplete,false,true,NA,3,20,NA,red,m_l_005.jpg,NA,NA,unpleasant,pleasant,NA,NA,NA,NA,NA,none,0,false,NA,NA,NA,NA,NA
1lsxzM3N,3e6l1vr4yzzg81jodkfak6sl8ztf6z,3ywrv122cwcuihxwsqc9f4l7q688uu,1lsxzM3N,2020-0188,2021-10-17,22:29:37,23:47:18,NA,incomplete,false,true,NA,3,21,NA,red,m_s_002.jpg,NA,NA,unpleasant,pleasant,NA,NA,NA,NA,NA,none,0,false,NA,NA,NA,NA,NA
1lsxzM3N,3e6l1vr4yzzg81jodkfak6sl8ztf6z,3ywrv122cwcuihxwsqc9f4l7q688uu,1lsxzM3N,2020-0188,2021-10-17,22:29:37,23:47:18,NA,incomplete,false,true,NA,3,22,NA,red,n_s_112.jpg,NA,NA,unpleasant,pleasant,NA,NA,NA,NA,NA,right,1321,true,NA,NA,NA,NA,NA
1lsxzM3N,3e6l1vr4yzzg81jodkfak6sl8ztf6z,3ywrv122cwcuihxwsqc9f4l7q688uu,1lsxzM3N,2020-0188,2021-10-17,22:29:37,23:47:18,NA,incomplete,false,true,NA,3,23,NA,red,n_s_099.jpg,NA,NA,pleasant,unpleasant,NA,NA,NA,NA,NA,right,1239,true,NA,NA,NA,NA,NA
1lsxzM3N,3e6l1vr4yzzg81jodkfak6sl8ztf6z,3ywrv122cwcuihxwsqc9f4l7q688uu,1lsxzM3N,2020-0188,2021-10-17,22:29:37,23:47:18,NA,incomplete,false,true,NA,3,24,NA,gray,n_l_097.jpg,NA,NA,unpleasant,pleasant,NA,NA,NA,NA,NA,left,2454,true,NA,NA,NA,NA,NA
1lsxzM3N,3e6l1vr4yzzg81jodkfak6sl8ztf6z,3ywrv122cwcuihxwsqc9f4l7q688uu,1lsxzM3N,2020-0188,2021-10-17,22:29:37,23:47:18,NA,incomplete,false,true,NA,3,25,NA,gray,m_s_058.jpg,NA,NA,unpleasant,pleasant,NA,NA,NA,NA,NA,left,1975,true,NA,NA,NA,NA,NA
1lsxzM3N,3e6l1vr4yzzg81jodkfak6sl8ztf6z,3ywrv122cwcuihxwsqc9f4l7q688uu,1lsxzM3N,2020-0188,2021-10-17,22:29:37,23:47:18,NA,incomplete,false,true,NA,3,26,NA,gray,n_s_038.jpg,NA,NA,unpleasant,pleasant,NA,NA,NA,NA,NA,left,2361,true,NA,NA,NA,NA,NA
1lsxzM3N,3e6l1vr4yzzg81jodkfak6sl8ztf6z,3ywrv122cwcuihxwsqc9f4l7q688uu,1lsxzM3N,2020-0188,2021-10-17,22:29:37,23:47:18,NA,incomplete,false,true,NA,3,27,NA,gray,n_s_066.jpg,NA,NA,unpleasant,pleasant,NA,NA,NA,NA,NA,none,0,false,NA,NA,NA,NA,NA
1lsxzM3N,3e6l1vr4yzzg81jodkfak6sl8ztf6z,3ywrv122cwcuihxwsqc9f4l7q688uu,1lsxzM3N,2020-0188,2021-10-17,22:29:37,23:47:18,NA,incomplete,false,true,NA,3,28,NA,gray,n_l_099.jpg,NA,NA,pleasant,unpleasant,NA,NA,NA,NA,NA,right,2469,true,NA,NA,NA,NA,NA
1lsxzM3N,3e6l1vr4yzzg81jodkfak6sl8ztf6z,3ywrv122cwcuihxwsqc9f4l7q688uu,1lsxzM3N,2020-0188,2021-10-17,22:29:37,23:47:18,NA,incomplete,false,true,NA,3,29,NA,gray,n_l_005.jpg,NA,NA,pleasant,unpleasant,NA,NA,NA,NA,NA,none,0,false,NA,NA,NA,NA,NA
1lsxzM3N,3e6l1vr4yzzg81jodkfak6sl8ztf6z,3ywrv122cwcuihxwsqc9f4l7q688uu,1lsxzM3N,2020-0188,2021-10-17,22:29:37,23:47:18,NA,incomplete,false,true,NA,3,30,NA,purple,m_l_105.jpg,NA,NA,pleasant,unpleasant,NA,NA,NA,NA,NA,left,2103,true,NA,NA,NA,NA,NA
1lsxzM3N,3e6l1vr4yzzg81jodkfak6sl8ztf6z,3ywrv122cwcuihxwsqc9f4l7q688uu,1lsxzM3N,2020-0188,2021-10-17,22:29:37,23:47:18,NA,incomplete,false,true,NA,3,31,NA,purple,n_l_089.jpg,NA,NA,pleasant,unpleasant,NA,NA,NA,NA,NA,right,2247,true,NA,NA,NA,NA,NA
1lsxzM3N,3e6l1vr4yzzg81jodkfak6sl8ztf6z,3ywrv122cwcuihxwsqc9f4l7q688uu,1lsxzM3N,2020-0188,2021-10-17,22:29:37,23:47:18,NA,incomplete,false,true,NA,3,32,NA,purple,n_s_116.jpg,NA,NA,unpleasant,pleasant,NA,NA,NA,NA,NA,none,0,false,NA,NA,NA,NA,NA
1lsxzM3N,3e6l1vr4yzzg81jodkfak6sl8ztf6z,3ywrv122cwcuihxwsqc9f4l7q688uu,1lsxzM3N,2020-0188,2021-10-17,22:29:37,23:47:18,NA,incomplete,false,true,NA,3,33,NA,purple,m_l_089.jpg,NA,NA,unpleasant,pleasant,NA,NA,NA,NA,NA,left,2459,true,NA,NA,NA,NA,NA
1lsxzM3N,3e6l1vr4yzzg81jodkfak6sl8ztf6z,3ywrv122cwcuihxwsqc9f4l7q688uu,1lsxzM3N,2020-0188,2021-10-17,22:29:37,23:47:18,NA,incomplete,false,true,NA,3,34,NA,purple,n_s_097.jpg,NA,NA,pleasant,unpleasant,NA,NA,NA,NA,NA,none,0,false,NA,NA,NA,NA,NA
1lsxzM3N,3e6l1vr4yzzg81jodkfak6sl8ztf6z,3ywrv122cwcuihxwsqc9f4l7q688uu,1lsxzM3N,2020-0188,2021-10-17,22:29:37,23:47:18,NA,incomplete,false,true,NA,3,35,NA,purple,m_l_016.jpg,NA,NA,pleasant,unpleasant,NA,NA,NA,NA,NA,left,1812,true,NA,NA,NA,NA,NA
1lsxzM3N,3e6l1vr4yzzg81jodkfak6sl8ztf6z,3ywrv122cwcuihxwsqc9f4l7q688uu,1lsxzM3N,2020-0188,2021-10-17,22:29:37,23:47:18,NA,incomplete,false,NA,true,3,0,NA,NA,NA,left,absent,NA,NA,n_l_099.jpg,gray,n_s_116.jpg,purple,between,NA,NaN,NA,right,3699,0,2,2237
1lsxzM3N,3e6l1vr4yzzg81jodkfak6sl8ztf6z,3ywrv122cwcuihxwsqc9f4l7q688uu,1lsxzM3N,2020-0188,2021-10-17,22:29:37,23:47:18,NA,incomplete,false,NA,true,3,1,NA,NA,NA,right,absent,NA,NA,n_s_008.jpg,brown,n_s_107.jpg,brown,within,NA,NaN,NA,left,3552,0,1,2015
1lsxzM3N,3e6l1vr4yzzg81jodkfak6sl8ztf6z,3ywrv122cwcuihxwsqc9f4l7q688uu,1lsxzM3N,2020-0188,2021-10-17,22:29:37,23:47:18,NA,incomplete,false,NA,true,3,2,NA,NA,NA,left,absent,NA,NA,m_s_022.jpg,black,n_l_067.jpg,black,within,NA,NaN,NA,right,3281,0,1,2028
1lsxzM3N,3e6l1vr4yzzg81jodkfak6sl8ztf6z,3ywrv122cwcuihxwsqc9f4l7q688uu,1lsxzM3N,2020-0188,2021-10-17,22:29:37,23:47:18,NA,incomplete,false,NA,true,3,3,NA,NA,NA,left,absent,NA,NA,m_s_048.jpg,orange,m_s_052.jpg,orange,within,NA,NaN,NA,left,2295,1,2,4677
1lsxzM3N,3e6l1vr4yzzg81jodkfak6sl8ztf6z,3ywrv122cwcuihxwsqc9f4l7q688uu,1lsxzM3N,2020-0188,2021-10-17,22:29:37,23:47:18,NA,incomplete,false,NA,true,3,4,NA,NA,NA,left,absent,NA,NA,m_l_057.jpg,red,n_s_099.jpg,red,within,NA,NaN,NA,left,5038,1,2,3444
1lsxzM3N,3e6l1vr4yzzg81jodkfak6sl8ztf6z,3ywrv122cwcuihxwsqc9f4l7q688uu,1lsxzM3N,2020-0188,2021-10-17,22:29:37,23:47:18,NA,incomplete,false,NA,true,3,5,NA,NA,NA,left,absent,NA,NA,m_s_098.jpg,orange,n_s_111.jpg,black,between,NA,NaN,NA,left,3454,1,2,3020
1lsxzM3N,3e6l1vr4yzzg81jodkfak6sl8ztf6z,3ywrv122cwcuihxwsqc9f4l7q688uu,1lsxzM3N,2020-0188,2021-10-17,22:29:37,23:47:18,NA,incomplete,false,NA,true,3,6,NA,NA,NA,left,absent,NA,NA,n_s_112.jpg,red,n_s_038.jpg,gray,between,NA,NaN,NA,right,3469,0,2,2182
1lsxzM3N,3e6l1vr4yzzg81jodkfak6sl8ztf6z,3ywrv122cwcuihxwsqc9f4l7q688uu,1lsxzM3N,2020-0188,2021-10-17,22:29:37,23:47:18,NA,incomplete,false,NA,true,3,7,NA,NA,NA,left,absent,NA,NA,m_l_074.jpg,brown,m_l_005.jpg,red,between,NA,NaN,NA,right,3581,0,1,12364
1lsxzM3N,3e6l1vr4yzzg81jodkfak6sl8ztf6z,3ywrv122cwcuihxwsqc9f4l7q688uu,1lsxzM3N,2020-0188,2021-10-17,22:29:37,23:47:18,NA,incomplete,false,NA,true,3,8,NA,NA,NA,right,absent,NA,NA,n_l_005.jpg,gray,m_s_058.jpg,gray,within,NA,NaN,NA,left,5016,0,2,2772
1lsxzM3N,3e6l1vr4yzzg81jodkfak6sl8ztf6z,3ywrv122cwcuihxwsqc9f4l7q688uu,1lsxzM3N,2020-0188,2021-10-17,22:29:37,23:47:18,NA,incomplete,false,NA,true,3,9,NA,NA,NA,left,absent,NA,NA,n_l_089.jpg,purple,m_l_016.jpg,purple,within,NA,NaN,NA,right,4300,0,2,3019
1lsxzM3N,3e6l1vr4yzzg81jodkfak6sl8ztf6z,3ywrv122cwcuihxwsqc9f4l7q688uu,1lsxzM3N,2020-0188,2021-10-17,22:29:37,23:47:18,NA,incomplete,false,NA,true,3,10,NA,NA,NA,right,absent,NA,NA,n_l_010.jpg,brown,n_l_083.jpg,black,between,NA,NaN,NA,left,4369,0,2,2478
1lsxzM3N,3e6l1vr4yzzg81jodkfak6sl8ztf6z,3ywrv122cwcuihxwsqc9f4l7q688uu,1lsxzM3N,2020-0188,2021-10-17,22:29:37,23:47:18,NA,incomplete,false,true,NA,4,0,NA,yellow,m_s_075.jpg,NA,NA,pleasant,unpleasant,NA,NA,NA,NA,NA,right,2158,true,NA,NA,NA,NA,NA
1lsxzM3N,3e6l1vr4yzzg81jodkfak6sl8ztf6z,3ywrv122cwcuihxwsqc9f4l7q688uu,1lsxzM3N,2020-0188,2021-10-17,22:29:37,23:47:18,NA,incomplete,false,true,NA,4,1,NA,yellow,m_l_117.jpg,NA,NA,pleasant,unpleasant,NA,NA,NA,NA,NA,left,1665,true,NA,NA,NA,NA,NA
1lsxzM3N,3e6l1vr4yzzg81jodkfak6sl8ztf6z,3ywrv122cwcuihxwsqc9f4l7q688uu,1lsxzM3N,2020-0188,2021-10-17,22:29:37,23:47:18,NA,incomplete,false,true,NA,4,2,NA,yellow,m_l_007.jpg,NA,NA,unpleasant,pleasant,NA,NA,NA,NA,NA,left,2379,true,NA,NA,NA,NA,NA
1lsxzM3N,3e6l1vr4yzzg81jodkfak6sl8ztf6z,3ywrv122cwcuihxwsqc9f4l7q688uu,1lsxzM3N,2020-0188,2021-10-17,22:29:37,23:47:18,NA,incomplete,false,true,NA,4,3,NA,yellow,n_s_014.jpg,NA,NA,pleasant,unpleasant,NA,NA,NA,NA,NA,left,2340,true,NA,NA,NA,NA,NA
1lsxzM3N,3e6l1vr4yzzg81jodkfak6sl8ztf6z,3ywrv122cwcuihxwsqc9f4l7q688uu,1lsxzM3N,2020-0188,2021-10-17,22:29:37,23:47:18,NA,incomplete,false,true,NA,4,4,NA,yellow,m_l_042.jpg,NA,NA,pleasant,unpleasant,NA,NA,NA,NA,NA,left,1388,true,NA,NA,NA,NA,NA
1lsxzM3N,3e6l1vr4yzzg81jodkfak6sl8ztf6z,3ywrv122cwcuihxwsqc9f4l7q688uu,1lsxzM3N,2020-0188,2021-10-17,22:29:37,23:47:18,NA,incomplete,false,true,NA,4,5,NA,yellow,n_s_073.jpg,NA,NA,unpleasant,pleasant,NA,NA,NA,NA,NA,right,2950,true,NA,NA,NA,NA,NA
1lsxzM3N,3e6l1vr4yzzg81jodkfak6sl8ztf6z,3ywrv122cwcuihxwsqc9f4l7q688uu,1lsxzM3N,2020-0188,2021-10-17,22:29:37,23:47:18,NA,incomplete,false,true,NA,4,6,NA,brown,n_s_106.jpg,NA,NA,unpleasant,pleasant,NA,NA,NA,NA,NA,right,1764,true,NA,NA,NA,NA,NA
1lsxzM3N,3e6l1vr4yzzg81jodkfak6sl8ztf6z,3ywrv122cwcuihxwsqc9f4l7q688uu,1lsxzM3N,2020-0188,2021-10-17,22:29:37,23:47:18,NA,incomplete,false,true,NA,4,7,NA,brown,n_s_007.jpg,NA,NA,unpleasant,pleasant,NA,NA,NA,NA,NA,left,2426,true,NA,NA,NA,NA,NA
1lsxzM3N,3e6l1vr4yzzg81jodkfak6sl8ztf6z,3ywrv122cwcuihxwsqc9f4l7q688uu,1lsxzM3N,2020-0188,2021-10-17,22:29:37,23:47:18,NA,incomplete,false,true,NA,4,8,NA,brown,m_s_116.jpg,NA,NA,unpleasant,pleasant,NA,NA,NA,NA,NA,right,1713,true,NA,NA,NA,NA,NA
1lsxzM3N,3e6l1vr4yzzg81jodkfak6sl8ztf6z,3ywrv122cwcuihxwsqc9f4l7q688uu,1lsxzM3N,2020-0188,2021-10-17,22:29:37,23:47:18,NA,incomplete,false,true,NA,4,9,NA,brown,n_s_062.jpg,NA,NA,pleasant,unpleasant,NA,NA,NA,NA,NA,right,2050,true,NA,NA,NA,NA,NA
1lsxzM3N,3e6l1vr4yzzg81jodkfak6sl8ztf6z,3ywrv122cwcuihxwsqc9f4l7q688uu,1lsxzM3N,2020-0188,2021-10-17,22:29:37,23:47:18,NA,incomplete,false,true,NA,4,10,NA,brown,m_s_062.jpg,NA,NA,pleasant,unpleasant,NA,NA,NA,NA,NA,left,1963,true,NA,NA,NA,NA,NA
1lsxzM3N,3e6l1vr4yzzg81jodkfak6sl8ztf6z,3ywrv122cwcuihxwsqc9f4l7q688uu,1lsxzM3N,2020-0188,2021-10-17,22:29:37,23:47:18,NA,incomplete,false,true,NA,4,11,NA,brown,m_l_111.jpg,NA,NA,unpleasant,pleasant,NA,NA,NA,NA,NA,right,1523,true,NA,NA,NA,NA,NA
1lsxzM3N,3e6l1vr4yzzg81jodkfak6sl8ztf6z,3ywrv122cwcuihxwsqc9f4l7q688uu,1lsxzM3N,2020-0188,2021-10-17,22:29:37,23:47:18,NA,incomplete,false,true,NA,4,12,NA,green,m_s_017.jpg,NA,NA,pleasant,unpleasant,NA,NA,NA,NA,NA,right,2622,true,NA,NA,NA,NA,NA
1lsxzM3N,3e6l1vr4yzzg81jodkfak6sl8ztf6z,3ywrv122cwcuihxwsqc9f4l7q688uu,1lsxzM3N,2020-0188,2021-10-17,22:29:37,23:47:18,NA,incomplete,false,true,NA,4,13,NA,green,m_s_084.jpg,NA,NA,unpleasant,pleasant,NA,NA,NA,NA,NA,right,2125,true,NA,NA,NA,NA,NA
1lsxzM3N,3e6l1vr4yzzg81jodkfak6sl8ztf6z,3ywrv122cwcuihxwsqc9f4l7q688uu,1lsxzM3N,2020-0188,2021-10-17,22:29:37,23:47:18,NA,incomplete,false,true,NA,4,14,NA,green,n_l_038.jpg,NA,NA,pleasant,unpleasant,NA,NA,NA,NA,NA,right,3158,true,NA,NA,NA,NA,NA
1lsxzM3N,3e6l1vr4yzzg81jodkfak6sl8ztf6z,3ywrv122cwcuihxwsqc9f4l7q688uu,1lsxzM3N,2020-0188,2021-10-17,22:29:37,23:47:18,NA,incomplete,false,true,NA,4,15,NA,green,m_s_031.jpg,NA,NA,pleasant,unpleasant,NA,NA,NA,NA,NA,left,2261,true,NA,NA,NA,NA,NA
1lsxzM3N,3e6l1vr4yzzg81jodkfak6sl8ztf6z,3ywrv122cwcuihxwsqc9f4l7q688uu,1lsxzM3N,2020-0188,2021-10-17,22:29:37,23:47:18,NA,incomplete,false,true,NA,4,16,NA,green,n_s_027.jpg,NA,NA,pleasant,unpleasant,NA,NA,NA,NA,NA,right,1617,true,NA,NA,NA,NA,NA
1lsxzM3N,3e6l1vr4yzzg81jodkfak6sl8ztf6z,3ywrv122cwcuihxwsqc9f4l7q688uu,1lsxzM3N,2020-0188,2021-10-17,22:29:37,23:47:18,NA,incomplete,false,true,NA,4,17,NA,green,m_l_091.jpg,NA,NA,pleasant,unpleasant,NA,NA,NA,NA,NA,right,2160,true,NA,NA,NA,NA,NA
1lsxzM3N,3e6l1vr4yzzg81jodkfak6sl8ztf6z,3ywrv122cwcuihxwsqc9f4l7q688uu,1lsxzM3N,2020-0188,2021-10-17,22:29:37,23:47:18,NA,incomplete,false,true,NA,4,18,NA,purple,m_l_078.jpg,NA,NA,unpleasant,pleasant,NA,NA,NA,NA,NA,none,0,false,NA,NA,NA,NA,NA
1lsxzM3N,3e6l1vr4yzzg81jodkfak6sl8ztf6z,3ywrv122cwcuihxwsqc9f4l7q688uu,1lsxzM3N,2020-0188,2021-10-17,22:29:37,23:47:18,NA,incomplete,false,true,NA,4,19,NA,purple,m_l_049.jpg,NA,NA,pleasant,unpleasant,NA,NA,NA,NA,NA,right,3437,true,NA,NA,NA,NA,NA
1lsxzM3N,3e6l1vr4yzzg81jodkfak6sl8ztf6z,3ywrv122cwcuihxwsqc9f4l7q688uu,1lsxzM3N,2020-0188,2021-10-17,22:29:37,23:47:18,NA,incomplete,false,true,NA,4,20,NA,purple,m_l_066.jpg,NA,NA,pleasant,unpleasant,NA,NA,NA,NA,NA,none,0,false,NA,NA,NA,NA,NA
1lsxzM3N,3e6l1vr4yzzg81jodkfak6sl8ztf6z,3ywrv122cwcuihxwsqc9f4l7q688uu,1lsxzM3N,2020-0188,2021-10-17,22:29:37,23:47:18,NA,incomplete,false,true,NA,4,21,NA,purple,n_l_054.jpg,NA,NA,pleasant,unpleasant,NA,NA,NA,NA,NA,right,1522,true,NA,NA,NA,NA,NA
1lsxzM3N,3e6l1vr4yzzg81jodkfak6sl8ztf6z,3ywrv122cwcuihxwsqc9f4l7q688uu,1lsxzM3N,2020-0188,2021-10-17,22:29:37,23:47:18,NA,incomplete,false,true,NA,4,22,NA,purple,m_s_040.jpg,NA,NA,pleasant,unpleasant,NA,NA,NA,NA,NA,left,2487,true,NA,NA,NA,NA,NA
1lsxzM3N,3e6l1vr4yzzg81jodkfak6sl8ztf6z,3ywrv122cwcuihxwsqc9f4l7q688uu,1lsxzM3N,2020-0188,2021-10-17,22:29:37,23:47:18,NA,incomplete,false,true,NA,4,23,NA,purple,m_s_034.jpg,NA,NA,pleasant,unpleasant,NA,NA,NA,NA,NA,left,2019,true,NA,NA,NA,NA,NA
1lsxzM3N,3e6l1vr4yzzg81jodkfak6sl8ztf6z,3ywrv122cwcuihxwsqc9f4l7q688uu,1lsxzM3N,2020-0188,2021-10-17,22:29:37,23:47:18,NA,incomplete,false,true,NA,4,24,NA,red,n_l_036.jpg,NA,NA,unpleasant,pleasant,NA,NA,NA,NA,NA,right,1981,true,NA,NA,NA,NA,NA
1lsxzM3N,3e6l1vr4yzzg81jodkfak6sl8ztf6z,3ywrv122cwcuihxwsqc9f4l7q688uu,1lsxzM3N,2020-0188,2021-10-17,22:29:37,23:47:18,NA,incomplete,false,true,NA,4,25,NA,red,m_s_070.jpg,NA,NA,unpleasant,pleasant,NA,NA,NA,NA,NA,left,2472,true,NA,NA,NA,NA,NA
1lsxzM3N,3e6l1vr4yzzg81jodkfak6sl8ztf6z,3ywrv122cwcuihxwsqc9f4l7q688uu,1lsxzM3N,2020-0188,2021-10-17,22:29:37,23:47:18,NA,incomplete,false,true,NA,4,26,NA,red,n_l_055.jpg,NA,NA,pleasant,unpleasant,NA,NA,NA,NA,NA,right,1484,true,NA,NA,NA,NA,NA
1lsxzM3N,3e6l1vr4yzzg81jodkfak6sl8ztf6z,3ywrv122cwcuihxwsqc9f4l7q688uu,1lsxzM3N,2020-0188,2021-10-17,22:29:37,23:47:18,NA,incomplete,false,true,NA,4,27,NA,red,m_l_021.jpg,NA,NA,pleasant,unpleasant,NA,NA,NA,NA,NA,right,2212,true,NA,NA,NA,NA,NA
1lsxzM3N,3e6l1vr4yzzg81jodkfak6sl8ztf6z,3ywrv122cwcuihxwsqc9f4l7q688uu,1lsxzM3N,2020-0188,2021-10-17,22:29:37,23:47:18,NA,incomplete,false,true,NA,4,28,NA,red,m_s_091.jpg,NA,NA,unpleasant,pleasant,NA,NA,NA,NA,NA,left,2354,true,NA,NA,NA,NA,NA
1lsxzM3N,3e6l1vr4yzzg81jodkfak6sl8ztf6z,3ywrv122cwcuihxwsqc9f4l7q688uu,1lsxzM3N,2020-0188,2021-10-17,22:29:37,23:47:18,NA,incomplete,false,true,NA,4,29,NA,red,n_l_106.jpg,NA,NA,unpleasant,pleasant,NA,NA,NA,NA,NA,left,1873,true,NA,NA,NA,NA,NA
1lsxzM3N,3e6l1vr4yzzg81jodkfak6sl8ztf6z,3ywrv122cwcuihxwsqc9f4l7q688uu,1lsxzM3N,2020-0188,2021-10-17,22:29:37,23:47:18,NA,incomplete,false,true,NA,4,30,NA,orange,n_s_033.jpg,NA,NA,unpleasant,pleasant,NA,NA,NA,NA,NA,right,2678,true,NA,NA,NA,NA,NA
1lsxzM3N,3e6l1vr4yzzg81jodkfak6sl8ztf6z,3ywrv122cwcuihxwsqc9f4l7q688uu,1lsxzM3N,2020-0188,2021-10-17,22:29:37,23:47:18,NA,incomplete,false,true,NA,4,31,NA,orange,m_s_081.jpg,NA,NA,pleasant,unpleasant,NA,NA,NA,NA,NA,left,3020,true,NA,NA,NA,NA,NA
1lsxzM3N,3e6l1vr4yzzg81jodkfak6sl8ztf6z,3ywrv122cwcuihxwsqc9f4l7q688uu,1lsxzM3N,2020-0188,2021-10-17,22:29:37,23:47:18,NA,incomplete,false,true,NA,4,32,NA,orange,n_l_045.jpg,NA,NA,pleasant,unpleasant,NA,NA,NA,NA,NA,right,2114,true,NA,NA,NA,NA,NA
1lsxzM3N,3e6l1vr4yzzg81jodkfak6sl8ztf6z,3ywrv122cwcuihxwsqc9f4l7q688uu,1lsxzM3N,2020-0188,2021-10-17,22:29:37,23:47:18,NA,incomplete,false,true,NA,4,33,NA,orange,n_s_086.jpg,NA,NA,unpleasant,pleasant,NA,NA,NA,NA,NA,left,1791,true,NA,NA,NA,NA,NA
1lsxzM3N,3e6l1vr4yzzg81jodkfak6sl8ztf6z,3ywrv122cwcuihxwsqc9f4l7q688uu,1lsxzM3N,2020-0188,2021-10-17,22:29:37,23:47:18,NA,incomplete,false,true,NA,4,34,NA,orange,n_s_074.jpg,NA,NA,unpleasant,pleasant,NA,NA,NA,NA,NA,right,2470,true,NA,NA,NA,NA,NA
1lsxzM3N,3e6l1vr4yzzg81jodkfak6sl8ztf6z,3ywrv122cwcuihxwsqc9f4l7q688uu,1lsxzM3N,2020-0188,2021-10-17,22:29:37,23:47:18,NA,incomplete,false,true,NA,4,35,NA,orange,n_s_068.jpg,NA,NA,pleasant,unpleasant,NA,NA,NA,NA,NA,left,2045,true,NA,NA,NA,NA,NA
1lsxzM3N,3e6l1vr4yzzg81jodkfak6sl8ztf6z,3ywrv122cwcuihxwsqc9f4l7q688uu,1lsxzM3N,2020-0188,2021-10-17,22:29:37,23:47:18,NA,incomplete,false,NA,true,4,0,NA,NA,NA,right,absent,NA,NA,n_s_073.jpg,yellow,m_l_117.jpg,yellow,within,NA,NaN,NA,right,5026,1,2,7306
1lsxzM3N,3e6l1vr4yzzg81jodkfak6sl8ztf6z,3ywrv122cwcuihxwsqc9f4l7q688uu,1lsxzM3N,2020-0188,2021-10-17,22:29:37,23:47:18,NA,incomplete,false,NA,true,4,1,NA,NA,NA,left,absent,NA,NA,m_s_062.jpg,brown,n_l_038.jpg,green,between,NA,NaN,NA,left,3909,1,1,1903
1lsxzM3N,3e6l1vr4yzzg81jodkfak6sl8ztf6z,3ywrv122cwcuihxwsqc9f4l7q688uu,1lsxzM3N,2020-0188,2021-10-17,22:29:37,23:47:18,NA,incomplete,false,NA,true,4,2,NA,NA,NA,right,absent,NA,NA,m_l_111.jpg,brown,n_s_007.jpg,brown,within,NA,NaN,NA,left,11629,0,2,3852
1lsxzM3N,3e6l1vr4yzzg81jodkfak6sl8ztf6z,3ywrv122cwcuihxwsqc9f4l7q688uu,1lsxzM3N,2020-0188,2021-10-17,22:29:37,23:47:18,NA,incomplete,false,NA,true,4,3,NA,NA,NA,right,absent,NA,NA,m_s_116.jpg,brown,m_l_042.jpg,yellow,between,NA,NaN,NA,left,4878,0,2,3196
1lsxzM3N,3e6l1vr4yzzg81jodkfak6sl8ztf6z,3ywrv122cwcuihxwsqc9f4l7q688uu,1lsxzM3N,2020-0188,2021-10-17,22:29:37,23:47:18,NA,incomplete,false,NA,true,4,4,NA,NA,NA,left,absent,NA,NA,n_s_027.jpg,green,m_l_066.jpg,purple,between,NA,NaN,NA,left,3876,1,2,4726
1lsxzM3N,3e6l1vr4yzzg81jodkfak6sl8ztf6z,3ywrv122cwcuihxwsqc9f4l7q688uu,1lsxzM3N,2020-0188,2021-10-17,22:29:37,23:47:18,NA,incomplete,false,NA,true,4,5,NA,NA,NA,right,absent,NA,NA,n_l_106.jpg,red,m_s_070.jpg,red,within,NA,NaN,NA,left,5965,0,1,2078
1lsxzM3N,3e6l1vr4yzzg81jodkfak6sl8ztf6z,3ywrv122cwcuihxwsqc9f4l7q688uu,1lsxzM3N,2020-0188,2021-10-17,22:29:37,23:47:18,NA,incomplete,false,NA,true,4,6,NA,NA,NA,left,absent,NA,NA,m_s_040.jpg,purple,n_l_055.jpg,red,between,NA,NaN,NA,right,2339,0,2,6302
1lsxzM3N,3e6l1vr4yzzg81jodkfak6sl8ztf6z,3ywrv122cwcuihxwsqc9f4l7q688uu,1lsxzM3N,2020-0188,2021-10-17,22:29:37,23:47:18,NA,incomplete,false,NA,true,4,7,NA,NA,NA,right,absent,NA,NA,m_s_034.jpg,purple,m_l_049.jpg,purple,within,NA,NaN,NA,right,6132,1,2,2564
1lsxzM3N,3e6l1vr4yzzg81jodkfak6sl8ztf6z,3ywrv122cwcuihxwsqc9f4l7q688uu,1lsxzM3N,2020-0188,2021-10-17,22:29:37,23:47:18,NA,incomplete,false,NA,true,4,8,NA,NA,NA,left,absent,NA,NA,m_s_091.jpg,red,n_l_045.jpg,orange,between,NA,NaN,NA,left,2892,1,1,2301
1lsxzM3N,3e6l1vr4yzzg81jodkfak6sl8ztf6z,3ywrv122cwcuihxwsqc9f4l7q688uu,1lsxzM3N,2020-0188,2021-10-17,22:29:37,23:47:18,NA,incomplete,false,NA,true,4,9,NA,NA,NA,left,absent,NA,NA,m_s_084.jpg,green,m_l_091.jpg,green,within,NA,NaN,NA,right,2835,0,2,1844
1lsxzM3N,3e6l1vr4yzzg81jodkfak6sl8ztf6z,3ywrv122cwcuihxwsqc9f4l7q688uu,1lsxzM3N,2020-0188,2021-10-17,22:29:37,23:47:18,NA,incomplete,false,NA,true,4,10,NA,NA,NA,left,absent,NA,NA,m_s_081.jpg,orange,n_s_068.jpg,orange,within,NA,NaN,NA,left,2390,1,1,2396
1lsxzM3N,3e6l1vr4yzzg81jodkfak6sl8ztf6z,3ywrv122cwcuihxwsqc9f4l7q688uu,1lsxzM3N,2020-0188,2021-10-17,22:29:37,23:47:18,NA,incomplete,false,true,NA,5,0,NA,black,n_l_024.jpg,NA,NA,unpleasant,pleasant,NA,NA,NA,NA,NA,none,0,false,NA,NA,NA,NA,NA
1lsxzM3N,3e6l1vr4yzzg81jodkfak6sl8ztf6z,3ywrv122cwcuihxwsqc9f4l7q688uu,1lsxzM3N,2020-0188,2021-10-17,22:29:37,23:47:18,NA,incomplete,false,true,NA,5,1,NA,black,n_s_011.jpg,NA,NA,pleasant,unpleasant,NA,NA,NA,NA,NA,left,2862,true,NA,NA,NA,NA,NA
1lsxzM3N,3e6l1vr4yzzg81jodkfak6sl8ztf6z,3ywrv122cwcuihxwsqc9f4l7q688uu,1lsxzM3N,2020-0188,2021-10-17,22:29:37,23:47:18,NA,incomplete,false,true,NA,5,2,NA,black,m_s_057.jpg,NA,NA,unpleasant,pleasant,NA,NA,NA,NA,NA,right,2317,true,NA,NA,NA,NA,NA
1lsxzM3N,3e6l1vr4yzzg81jodkfak6sl8ztf6z,3ywrv122cwcuihxwsqc9f4l7q688uu,1lsxzM3N,2020-0188,2021-10-17,22:29:37,23:47:18,NA,incomplete,false,true,NA,5,3,NA,black,m_l_064.jpg,NA,NA,pleasant,unpleasant,NA,NA,NA,NA,NA,right,1733,true,NA,NA,NA,NA,NA
1lsxzM3N,3e6l1vr4yzzg81jodkfak6sl8ztf6z,3ywrv122cwcuihxwsqc9f4l7q688uu,1lsxzM3N,2020-0188,2021-10-17,22:29:37,23:47:18,NA,incomplete,false,true,NA,5,4,NA,black,n_l_031.jpg,NA,NA,pleasant,unpleasant,NA,NA,NA,NA,NA,left,1471,true,NA,NA,NA,NA,NA
1lsxzM3N,3e6l1vr4yzzg81jodkfak6sl8ztf6z,3ywrv122cwcuihxwsqc9f4l7q688uu,1lsxzM3N,2020-0188,2021-10-17,22:29:37,23:47:18,NA,incomplete,false,true,NA,5,5,NA,black,m_s_019.jpg,NA,NA,unpleasant,pleasant,NA,NA,NA,NA,NA,right,1468,true,NA,NA,NA,NA,NA
1lsxzM3N,3e6l1vr4yzzg81jodkfak6sl8ztf6z,3ywrv122cwcuihxwsqc9f4l7q688uu,1lsxzM3N,2020-0188,2021-10-17,22:29:37,23:47:18,NA,incomplete,false,true,NA,5,6,NA,yellow,m_l_102.jpg,NA,NA,unpleasant,pleasant,NA,NA,NA,NA,NA,right,2183,true,NA,NA,NA,NA,NA
1lsxzM3N,3e6l1vr4yzzg81jodkfak6sl8ztf6z,3ywrv122cwcuihxwsqc9f4l7q688uu,1lsxzM3N,2020-0188,2021-10-17,22:29:37,23:47:18,NA,incomplete,false,true,NA,5,7,NA,yellow,m_l_056.jpg,NA,NA,pleasant,unpleasant,NA,NA,NA,NA,NA,left,2846,true,NA,NA,NA,NA,NA
1lsxzM3N,3e6l1vr4yzzg81jodkfak6sl8ztf6z,3ywrv122cwcuihxwsqc9f4l7q688uu,1lsxzM3N,2020-0188,2021-10-17,22:29:37,23:47:18,NA,incomplete,false,true,NA,5,8,NA,yellow,n_l_100.jpg,NA,NA,pleasant,unpleasant,NA,NA,NA,NA,NA,left,2545,true,NA,NA,NA,NA,NA
1lsxzM3N,3e6l1vr4yzzg81jodkfak6sl8ztf6z,3ywrv122cwcuihxwsqc9f4l7q688uu,1lsxzM3N,2020-0188,2021-10-17,22:29:37,23:47:18,NA,incomplete,false,true,NA,5,9,NA,yellow,m_l_009.jpg,NA,NA,unpleasant,pleasant,NA,NA,NA,NA,NA,right,1659,true,NA,NA,NA,NA,NA
1lsxzM3N,3e6l1vr4yzzg81jodkfak6sl8ztf6z,3ywrv122cwcuihxwsqc9f4l7q688uu,1lsxzM3N,2020-0188,2021-10-17,22:29:37,23:47:18,NA,incomplete,false,true,NA,5,10,NA,yellow,n_l_101.jpg,NA,NA,unpleasant,pleasant,NA,NA,NA,NA,NA,left,1876,true,NA,NA,NA,NA,NA
1lsxzM3N,3e6l1vr4yzzg81jodkfak6sl8ztf6z,3ywrv122cwcuihxwsqc9f4l7q688uu,1lsxzM3N,2020-0188,2021-10-17,22:29:37,23:47:18,NA,incomplete,false,true,NA,5,11,NA,yellow,m_s_021.jpg,NA,NA,unpleasant,pleasant,NA,NA,NA,NA,NA,right,2003,true,NA,NA,NA,NA,NA
1lsxzM3N,3e6l1vr4yzzg81jodkfak6sl8ztf6z,3ywrv122cwcuihxwsqc9f4l7q688uu,1lsxzM3N,2020-0188,2021-10-17,22:29:37,23:47:18,NA,incomplete,false,true,NA,5,12,NA,purple,n_l_026.jpg,NA,NA,pleasant,unpleasant,NA,NA,NA,NA,NA,left,1839,true,NA,NA,NA,NA,NA
1lsxzM3N,3e6l1vr4yzzg81jodkfak6sl8ztf6z,3ywrv122cwcuihxwsqc9f4l7q688uu,1lsxzM3N,2020-0188,2021-10-17,22:29:37,23:47:18,NA,incomplete,false,true,NA,5,13,NA,purple,n_s_044.jpg,NA,NA,pleasant,unpleasant,NA,NA,NA,NA,NA,left,1413,true,NA,NA,NA,NA,NA
1lsxzM3N,3e6l1vr4yzzg81jodkfak6sl8ztf6z,3ywrv122cwcuihxwsqc9f4l7q688uu,1lsxzM3N,2020-0188,2021-10-17,22:29:37,23:47:18,NA,incomplete,false,true,NA,5,14,NA,purple,m_l_051.jpg,NA,NA,pleasant,unpleasant,NA,NA,NA,NA,NA,left,1581,true,NA,NA,NA,NA,NA
1lsxzM3N,3e6l1vr4yzzg81jodkfak6sl8ztf6z,3ywrv122cwcuihxwsqc9f4l7q688uu,1lsxzM3N,2020-0188,2021-10-17,22:29:37,23:47:18,NA,incomplete,false,true,NA,5,15,NA,purple,n_s_071.jpg,NA,NA,unpleasant,pleasant,NA,NA,NA,NA,NA,right,2084,true,NA,NA,NA,NA,NA
1lsxzM3N,3e6l1vr4yzzg81jodkfak6sl8ztf6z,3ywrv122cwcuihxwsqc9f4l7q688uu,1lsxzM3N,2020-0188,2021-10-17,22:29:37,23:47:18,NA,incomplete,false,true,NA,5,16,NA,purple,n_l_082.jpg,NA,NA,unpleasant,pleasant,NA,NA,NA,NA,NA,right,1600,true,NA,NA,NA,NA,NA
1lsxzM3N,3e6l1vr4yzzg81jodkfak6sl8ztf6z,3ywrv122cwcuihxwsqc9f4l7q688uu,1lsxzM3N,2020-0188,2021-10-17,22:29:37,23:47:18,NA,incomplete,false,true,NA,5,17,NA,purple,n_s_002.jpg,NA,NA,pleasant,unpleasant,NA,NA,NA,NA,NA,right,1615,true,NA,NA,NA,NA,NA
1lsxzM3N,3e6l1vr4yzzg81jodkfak6sl8ztf6z,3ywrv122cwcuihxwsqc9f4l7q688uu,1lsxzM3N,2020-0188,2021-10-17,22:29:37,23:47:18,NA,incomplete,false,true,NA,5,18,NA,green,n_l_073.jpg,NA,NA,unpleasant,pleasant,NA,NA,NA,NA,NA,right,1407,true,NA,NA,NA,NA,NA
1lsxzM3N,3e6l1vr4yzzg81jodkfak6sl8ztf6z,3ywrv122cwcuihxwsqc9f4l7q688uu,1lsxzM3N,2020-0188,2021-10-17,22:29:37,23:47:18,NA,incomplete,false,true,NA,5,19,NA,green,n_l_048.jpg,NA,NA,pleasant,unpleasant,NA,NA,NA,NA,NA,right,1435,true,NA,NA,NA,NA,NA
1lsxzM3N,3e6l1vr4yzzg81jodkfak6sl8ztf6z,3ywrv122cwcuihxwsqc9f4l7q688uu,1lsxzM3N,2020-0188,2021-10-17,22:29:37,23:47:18,NA,incomplete,false,true,NA,5,20,NA,green,m_s_094.jpg,NA,NA,pleasant,unpleasant,NA,NA,NA,NA,NA,left,1337,true,NA,NA,NA,NA,NA
1lsxzM3N,3e6l1vr4yzzg81jodkfak6sl8ztf6z,3ywrv122cwcuihxwsqc9f4l7q688uu,1lsxzM3N,2020-0188,2021-10-17,22:29:37,23:47:18,NA,incomplete,false,true,NA,5,21,NA,green,m_l_034.jpg,NA,NA,unpleasant,pleasant,NA,NA,NA,NA,NA,right,1225,true,NA,NA,NA,NA,NA
1lsxzM3N,3e6l1vr4yzzg81jodkfak6sl8ztf6z,3ywrv122cwcuihxwsqc9f4l7q688uu,1lsxzM3N,2020-0188,2021-10-17,22:29:37,23:47:18,NA,incomplete,false,true,NA,5,22,NA,green,n_l_087.jpg,NA,NA,pleasant,unpleasant,NA,NA,NA,NA,NA,right,1357,true,NA,NA,NA,NA,NA
1lsxzM3N,3e6l1vr4yzzg81jodkfak6sl8ztf6z,3ywrv122cwcuihxwsqc9f4l7q688uu,1lsxzM3N,2020-0188,2021-10-17,22:29:37,23:47:18,NA,incomplete,false,true,NA,5,23,NA,green,m_l_003.jpg,NA,NA,pleasant,unpleasant,NA,NA,NA,NA,NA,right,1997,true,NA,NA,NA,NA,NA
1lsxzM3N,3e6l1vr4yzzg81jodkfak6sl8ztf6z,3ywrv122cwcuihxwsqc9f4l7q688uu,1lsxzM3N,2020-0188,2021-10-17,22:29:37,23:47:18,NA,incomplete,false,true,NA,5,24,NA,orange,n_s_004.jpg,NA,NA,pleasant,unpleasant,NA,NA,NA,NA,NA,right,1562,true,NA,NA,NA,NA,NA
1lsxzM3N,3e6l1vr4yzzg81jodkfak6sl8ztf6z,3ywrv122cwcuihxwsqc9f4l7q688uu,1lsxzM3N,2020-0188,2021-10-17,22:29:37,23:47:18,NA,incomplete,false,true,NA,5,25,NA,orange,m_s_061.jpg,NA,NA,unpleasant,pleasant,NA,NA,NA,NA,NA,right,1307,true,NA,NA,NA,NA,NA
1lsxzM3N,3e6l1vr4yzzg81jodkfak6sl8ztf6z,3ywrv122cwcuihxwsqc9f4l7q688uu,1lsxzM3N,2020-0188,2021-10-17,22:29:37,23:47:18,NA,incomplete,false,true,NA,5,26,NA,orange,n_s_055.jpg,NA,NA,pleasant,unpleasant,NA,NA,NA,NA,NA,right,1990,true,NA,NA,NA,NA,NA
1lsxzM3N,3e6l1vr4yzzg81jodkfak6sl8ztf6z,3ywrv122cwcuihxwsqc9f4l7q688uu,1lsxzM3N,2020-0188,2021-10-17,22:29:37,23:47:18,NA,incomplete,false,true,NA,5,27,NA,orange,m_l_110.jpg,NA,NA,pleasant,unpleasant,NA,NA,NA,NA,NA,none,0,false,NA,NA,NA,NA,NA
1lsxzM3N,3e6l1vr4yzzg81jodkfak6sl8ztf6z,3ywrv122cwcuihxwsqc9f4l7q688uu,1lsxzM3N,2020-0188,2021-10-17,22:29:37,23:47:18,NA,incomplete,false,true,NA,5,28,NA,orange,m_s_082.jpg,NA,NA,unpleasant,pleasant,NA,NA,NA,NA,NA,right,1818,true,NA,NA,NA,NA,NA
1lsxzM3N,3e6l1vr4yzzg81jodkfak6sl8ztf6z,3ywrv122cwcuihxwsqc9f4l7q688uu,1lsxzM3N,2020-0188,2021-10-17,22:29:37,23:47:18,NA,incomplete,false,true,NA,5,29,NA,orange,m_s_109.jpg,NA,NA,pleasant,unpleasant,NA,NA,NA,NA,NA,left,1508,true,NA,NA,NA,NA,NA
1lsxzM3N,3e6l1vr4yzzg81jodkfak6sl8ztf6z,3ywrv122cwcuihxwsqc9f4l7q688uu,1lsxzM3N,2020-0188,2021-10-17,22:29:37,23:47:18,NA,incomplete,false,true,NA,5,30,NA,white,m_l_055.jpg,NA,NA,unpleasant,pleasant,NA,NA,NA,NA,NA,right,1350,true,NA,NA,NA,NA,NA
1lsxzM3N,3e6l1vr4yzzg81jodkfak6sl8ztf6z,3ywrv122cwcuihxwsqc9f4l7q688uu,1lsxzM3N,2020-0188,2021-10-17,22:29:37,23:47:18,NA,incomplete,false,true,NA,5,31,NA,white,m_s_076.jpg,NA,NA,pleasant,unpleasant,NA,NA,NA,NA,NA,left,1597,true,NA,NA,NA,NA,NA
1lsxzM3N,3e6l1vr4yzzg81jodkfak6sl8ztf6z,3ywrv122cwcuihxwsqc9f4l7q688uu,1lsxzM3N,2020-0188,2021-10-17,22:29:37,23:47:18,NA,incomplete,false,true,NA,5,32,NA,white,m_s_060.jpg,NA,NA,unpleasant,pleasant,NA,NA,NA,NA,NA,right,1408,true,NA,NA,NA,NA,NA
1lsxzM3N,3e6l1vr4yzzg81jodkfak6sl8ztf6z,3ywrv122cwcuihxwsqc9f4l7q688uu,1lsxzM3N,2020-0188,2021-10-17,22:29:37,23:47:18,NA,incomplete,false,true,NA,5,33,NA,white,n_s_103.jpg,NA,NA,unpleasant,pleasant,NA,NA,NA,NA,NA,right,1426,true,NA,NA,NA,NA,NA
1lsxzM3N,3e6l1vr4yzzg81jodkfak6sl8ztf6z,3ywrv122cwcuihxwsqc9f4l7q688uu,1lsxzM3N,2020-0188,2021-10-17,22:29:37,23:47:18,NA,incomplete,false,true,NA,5,34,NA,white,n_s_040.jpg,NA,NA,pleasant,unpleasant,NA,NA,NA,NA,NA,left,1068,true,NA,NA,NA,NA,NA
1lsxzM3N,3e6l1vr4yzzg81jodkfak6sl8ztf6z,3ywrv122cwcuihxwsqc9f4l7q688uu,1lsxzM3N,2020-0188,2021-10-17,22:29:37,23:47:18,NA,incomplete,false,true,NA,5,35,NA,white,n_s_043.jpg,NA,NA,pleasant,unpleasant,NA,NA,NA,NA,NA,none,0,false,NA,NA,NA,NA,NA
1lsxzM3N,3e6l1vr4yzzg81jodkfak6sl8ztf6z,3ywrv122cwcuihxwsqc9f4l7q688uu,1lsxzM3N,2020-0188,2021-10-17,22:29:37,23:47:18,NA,incomplete,false,NA,true,5,0,NA,NA,NA,right,present,NA,NA,n_s_002.jpg,purple,n_s_044.jpg,purple,within,NA,NaN,NA,right,3525,1,2,2188
1lsxzM3N,3e6l1vr4yzzg81jodkfak6sl8ztf6z,3ywrv122cwcuihxwsqc9f4l7q688uu,1lsxzM3N,2020-0188,2021-10-17,22:29:37,23:47:18,NA,incomplete,false,NA,true,5,1,NA,NA,NA,right,present,NA,NA,m_s_021.jpg,yellow,m_l_056.jpg,yellow,within,NA,NaN,NA,left,1699,0,1,1277
1lsxzM3N,3e6l1vr4yzzg81jodkfak6sl8ztf6z,3ywrv122cwcuihxwsqc9f4l7q688uu,1lsxzM3N,2020-0188,2021-10-17,22:29:37,23:47:18,NA,incomplete,false,NA,true,5,2,NA,NA,NA,right,present,NA,NA,m_s_019.jpg,black,n_s_011.jpg,black,within,NA,NaN,NA,right,2723,1,2,2356
1lsxzM3N,3e6l1vr4yzzg81jodkfak6sl8ztf6z,3ywrv122cwcuihxwsqc9f4l7q688uu,1lsxzM3N,2020-0188,2021-10-17,22:29:37,23:47:18,NA,incomplete,false,NA,true,5,3,NA,NA,NA,left,present,NA,NA,m_s_061.jpg,orange,m_s_109.jpg,orange,within,NA,NaN,NA,right,5005,0,1,4563
1lsxzM3N,3e6l1vr4yzzg81jodkfak6sl8ztf6z,3ywrv122cwcuihxwsqc9f4l7q688uu,1lsxzM3N,2020-0188,2021-10-17,22:29:37,23:47:18,NA,incomplete,false,NA,true,5,4,NA,NA,NA,right,present,NA,NA,n_s_055.jpg,orange,n_l_087.jpg,green,between,NA,NaN,NA,left,5773,0,1,3437
1lsxzM3N,3e6l1vr4yzzg81jodkfak6sl8ztf6z,3ywrv122cwcuihxwsqc9f4l7q688uu,1lsxzM3N,2020-0188,2021-10-17,22:29:37,23:47:18,NA,incomplete,false,NA,true,5,5,NA,NA,NA,right,present,NA,NA,m_l_003.jpg,green,n_l_048.jpg,green,within,NA,NaN,NA,left,5695,0,1,3675
1lsxzM3N,3e6l1vr4yzzg81jodkfak6sl8ztf6z,3ywrv122cwcuihxwsqc9f4l7q688uu,1lsxzM3N,2020-0188,2021-10-17,22:29:37,23:47:18,NA,incomplete,false,NA,true,5,6,NA,NA,NA,right,present,NA,NA,n_s_043.jpg,white,m_s_076.jpg,white,within,NA,NaN,NA,right,3123,1,2,4781
1lsxzM3N,3e6l1vr4yzzg81jodkfak6sl8ztf6z,3ywrv122cwcuihxwsqc9f4l7q688uu,1lsxzM3N,2020-0188,2021-10-17,22:29:37,23:47:18,NA,incomplete,false,NA,true,5,7,NA,NA,NA,left,present,NA,NA,n_l_101.jpg,yellow,m_l_051.jpg,purple,between,NA,NaN,NA,right,5161,0,1,1555
1lsxzM3N,3e6l1vr4yzzg81jodkfak6sl8ztf6z,3ywrv122cwcuihxwsqc9f4l7q688uu,1lsxzM3N,2020-0188,2021-10-17,22:29:37,23:47:18,NA,incomplete,false,NA,true,5,8,NA,NA,NA,left,present,NA,NA,n_l_031.jpg,black,n_l_100.jpg,yellow,between,NA,NaN,NA,left,1886,1,2,1419
1lsxzM3N,3e6l1vr4yzzg81jodkfak6sl8ztf6z,3ywrv122cwcuihxwsqc9f4l7q688uu,1lsxzM3N,2020-0188,2021-10-17,22:29:37,23:47:18,NA,incomplete,false,NA,true,5,9,NA,NA,NA,right,present,NA,NA,m_s_060.jpg,white,m_s_082.jpg,orange,between,NA,NaN,NA,right,2179,1,1,1829
1lsxzM3N,3e6l1vr4yzzg81jodkfak6sl8ztf6z,3ywrv122cwcuihxwsqc9f4l7q688uu,1lsxzM3N,2020-0188,2021-10-17,22:29:37,23:47:18,NA,incomplete,false,NA,true,5,10,NA,NA,NA,right,present,NA,NA,m_s_094.jpg,green,n_l_082.jpg,purple,between,NA,NaN,NA,right,2076,1,1,1621
1lsxzM3N,3e6l1vr4yzzg81jodkfak6sl8ztf6z,3ywrv122cwcuihxwsqc9f4l7q688uu,1lsxzM3N,2020-0188,2021-10-17,22:29:37,23:47:18,NA,incomplete,false,true,NA,6,0,NA,orange,n_s_016.jpg,NA,NA,pleasant,unpleasant,NA,NA,NA,NA,NA,right,2051,true,NA,NA,NA,NA,NA
1lsxzM3N,3e6l1vr4yzzg81jodkfak6sl8ztf6z,3ywrv122cwcuihxwsqc9f4l7q688uu,1lsxzM3N,2020-0188,2021-10-17,22:29:37,23:47:18,NA,incomplete,false,true,NA,6,1,NA,orange,m_l_025.jpg,NA,NA,unpleasant,pleasant,NA,NA,NA,NA,NA,none,0,false,NA,NA,NA,NA,NA
1lsxzM3N,3e6l1vr4yzzg81jodkfak6sl8ztf6z,3ywrv122cwcuihxwsqc9f4l7q688uu,1lsxzM3N,2020-0188,2021-10-17,22:29:37,23:47:18,NA,incomplete,false,true,NA,6,2,NA,orange,n_l_098.jpg,NA,NA,pleasant,unpleasant,NA,NA,NA,NA,NA,left,1397,true,NA,NA,NA,NA,NA
1lsxzM3N,3e6l1vr4yzzg81jodkfak6sl8ztf6z,3ywrv122cwcuihxwsqc9f4l7q688uu,1lsxzM3N,2020-0188,2021-10-17,22:29:37,23:47:18,NA,incomplete,false,true,NA,6,3,NA,orange,m_l_085.jpg,NA,NA,unpleasant,pleasant,NA,NA,NA,NA,NA,right,1379,true,NA,NA,NA,NA,NA
1lsxzM3N,3e6l1vr4yzzg81jodkfak6sl8ztf6z,3ywrv122cwcuihxwsqc9f4l7q688uu,1lsxzM3N,2020-0188,2021-10-17,22:29:37,23:47:18,NA,incomplete,false,true,NA,6,4,NA,orange,m_l_092.jpg,NA,NA,unpleasant,pleasant,NA,NA,NA,NA,NA,none,0,false,NA,NA,NA,NA,NA
1lsxzM3N,3e6l1vr4yzzg81jodkfak6sl8ztf6z,3ywrv122cwcuihxwsqc9f4l7q688uu,1lsxzM3N,2020-0188,2021-10-17,22:29:37,23:47:18,NA,incomplete,false,true,NA,6,5,NA,orange,n_s_037.jpg,NA,NA,unpleasant,pleasant,NA,NA,NA,NA,NA,right,979,true,NA,NA,NA,NA,NA
1lsxzM3N,3e6l1vr4yzzg81jodkfak6sl8ztf6z,3ywrv122cwcuihxwsqc9f4l7q688uu,1lsxzM3N,2020-0188,2021-10-17,22:29:37,23:47:18,NA,incomplete,false,true,NA,6,6,NA,white,m_s_055.jpg,NA,NA,unpleasant,pleasant,NA,NA,NA,NA,NA,left,1240,true,NA,NA,NA,NA,NA
1lsxzM3N,3e6l1vr4yzzg81jodkfak6sl8ztf6z,3ywrv122cwcuihxwsqc9f4l7q688uu,1lsxzM3N,2020-0188,2021-10-17,22:29:37,23:47:18,NA,incomplete,false,true,NA,6,7,NA,white,m_s_103.jpg,NA,NA,unpleasant,pleasant,NA,NA,NA,NA,NA,right,1149,true,NA,NA,NA,NA,NA
1lsxzM3N,3e6l1vr4yzzg81jodkfak6sl8ztf6z,3ywrv122cwcuihxwsqc9f4l7q688uu,1lsxzM3N,2020-0188,2021-10-17,22:29:37,23:47:18,NA,incomplete,false,true,NA,6,8,NA,white,m_l_047.jpg,NA,NA,unpleasant,pleasant,NA,NA,NA,NA,NA,left,1196,true,NA,NA,NA,NA,NA
1lsxzM3N,3e6l1vr4yzzg81jodkfak6sl8ztf6z,3ywrv122cwcuihxwsqc9f4l7q688uu,1lsxzM3N,2020-0188,2021-10-17,22:29:37,23:47:18,NA,incomplete,false,true,NA,6,9,NA,white,m_s_039.jpg,NA,NA,unpleasant,pleasant,NA,NA,NA,NA,NA,right,1361,true,NA,NA,NA,NA,NA
1lsxzM3N,3e6l1vr4yzzg81jodkfak6sl8ztf6z,3ywrv122cwcuihxwsqc9f4l7q688uu,1lsxzM3N,2020-0188,2021-10-17,22:29:37,23:47:18,NA,incomplete,false,true,NA,6,10,NA,white,m_l_037.jpg,NA,NA,pleasant,unpleasant,NA,NA,NA,NA,NA,left,2271,true,NA,NA,NA,NA,NA
1lsxzM3N,3e6l1vr4yzzg81jodkfak6sl8ztf6z,3ywrv122cwcuihxwsqc9f4l7q688uu,1lsxzM3N,2020-0188,2021-10-17,22:29:37,23:47:18,NA,incomplete,false,true,NA,6,11,NA,white,m_l_004.jpg,NA,NA,unpleasant,pleasant,NA,NA,NA,NA,NA,right,1297,true,NA,NA,NA,NA,NA
1lsxzM3N,3e6l1vr4yzzg81jodkfak6sl8ztf6z,3ywrv122cwcuihxwsqc9f4l7q688uu,1lsxzM3N,2020-0188,2021-10-17,22:29:37,23:47:18,NA,incomplete,false,true,NA,6,12,NA,purple,m_l_108.jpg,NA,NA,unpleasant,pleasant,NA,NA,NA,NA,NA,right,1731,true,NA,NA,NA,NA,NA
1lsxzM3N,3e6l1vr4yzzg81jodkfak6sl8ztf6z,3ywrv122cwcuihxwsqc9f4l7q688uu,1lsxzM3N,2020-0188,2021-10-17,22:29:37,23:47:18,NA,incomplete,false,true,NA,6,13,NA,purple,m_l_018.jpg,NA,NA,unpleasant,pleasant,NA,NA,NA,NA,NA,right,1862,true,NA,NA,NA,NA,NA
1lsxzM3N,3e6l1vr4yzzg81jodkfak6sl8ztf6z,3ywrv122cwcuihxwsqc9f4l7q688uu,1lsxzM3N,2020-0188,2021-10-17,22:29:37,23:47:18,NA,incomplete,false,true,NA,6,14,NA,purple,n_s_080.jpg,NA,NA,pleasant,unpleasant,NA,NA,NA,NA,NA,left,2227,true,NA,NA,NA,NA,NA
1lsxzM3N,3e6l1vr4yzzg81jodkfak6sl8ztf6z,3ywrv122cwcuihxwsqc9f4l7q688uu,1lsxzM3N,2020-0188,2021-10-17,22:29:37,23:47:18,NA,incomplete,false,true,NA,6,15,NA,purple,m_l_029.jpg,NA,NA,pleasant,unpleasant,NA,NA,NA,NA,NA,left,2134,true,NA,NA,NA,NA,NA
1lsxzM3N,3e6l1vr4yzzg81jodkfak6sl8ztf6z,3ywrv122cwcuihxwsqc9f4l7q688uu,1lsxzM3N,2020-0188,2021-10-17,22:29:37,23:47:18,NA,incomplete,false,true,NA,6,16,NA,purple,n_s_069.jpg,NA,NA,unpleasant,pleasant,NA,NA,NA,NA,NA,right,1688,true,NA,NA,NA,NA,NA
1lsxzM3N,3e6l1vr4yzzg81jodkfak6sl8ztf6z,3ywrv122cwcuihxwsqc9f4l7q688uu,1lsxzM3N,2020-0188,2021-10-17,22:29:37,23:47:18,NA,incomplete,false,true,NA,6,17,NA,purple,n_l_009.jpg,NA,NA,unpleasant,pleasant,NA,NA,NA,NA,NA,left,1768,true,NA,NA,NA,NA,NA
1lsxzM3N,3e6l1vr4yzzg81jodkfak6sl8ztf6z,3ywrv122cwcuihxwsqc9f4l7q688uu,1lsxzM3N,2020-0188,2021-10-17,22:29:37,23:47:18,NA,incomplete,false,true,NA,6,18,NA,blue,n_l_075.jpg,NA,NA,unpleasant,pleasant,NA,NA,NA,NA,NA,left,1712,true,NA,NA,NA,NA,NA
1lsxzM3N,3e6l1vr4yzzg81jodkfak6sl8ztf6z,3ywrv122cwcuihxwsqc9f4l7q688uu,1lsxzM3N,2020-0188,2021-10-17,22:29:37,23:47:18,NA,incomplete,false,true,NA,6,19,NA,blue,n_l_025.jpg,NA,NA,unpleasant,pleasant,NA,NA,NA,NA,NA,left,2489,true,NA,NA,NA,NA,NA
1lsxzM3N,3e6l1vr4yzzg81jodkfak6sl8ztf6z,3ywrv122cwcuihxwsqc9f4l7q688uu,1lsxzM3N,2020-0188,2021-10-17,22:29:37,23:47:18,NA,incomplete,false,true,NA,6,20,NA,blue,m_l_017.jpg,NA,NA,unpleasant,pleasant,NA,NA,NA,NA,NA,right,3257,true,NA,NA,NA,NA,NA
1lsxzM3N,3e6l1vr4yzzg81jodkfak6sl8ztf6z,3ywrv122cwcuihxwsqc9f4l7q688uu,1lsxzM3N,2020-0188,2021-10-17,22:29:37,23:47:18,NA,incomplete,false,true,NA,6,21,NA,blue,n_l_039.jpg,NA,NA,unpleasant,pleasant,NA,NA,NA,NA,NA,left,1524,true,NA,NA,NA,NA,NA
1lsxzM3N,3e6l1vr4yzzg81jodkfak6sl8ztf6z,3ywrv122cwcuihxwsqc9f4l7q688uu,1lsxzM3N,2020-0188,2021-10-17,22:29:37,23:47:18,NA,incomplete,false,true,NA,6,22,NA,blue,n_s_047.jpg,NA,NA,unpleasant,pleasant,NA,NA,NA,NA,NA,right,1732,true,NA,NA,NA,NA,NA
1lsxzM3N,3e6l1vr4yzzg81jodkfak6sl8ztf6z,3ywrv122cwcuihxwsqc9f4l7q688uu,1lsxzM3N,2020-0188,2021-10-17,22:29:37,23:47:18,NA,incomplete,false,true,NA,6,23,NA,blue,m_l_094.jpg,NA,NA,pleasant,unpleasant,NA,NA,NA,NA,NA,left,2450,true,NA,NA,NA,NA,NA
1lsxzM3N,3e6l1vr4yzzg81jodkfak6sl8ztf6z,3ywrv122cwcuihxwsqc9f4l7q688uu,1lsxzM3N,2020-0188,2021-10-17,22:29:37,23:47:18,NA,incomplete,false,true,NA,6,24,NA,yellow,n_s_061.jpg,NA,NA,unpleasant,pleasant,NA,NA,NA,NA,NA,right,1776,true,NA,NA,NA,NA,NA
1lsxzM3N,3e6l1vr4yzzg81jodkfak6sl8ztf6z,3ywrv122cwcuihxwsqc9f4l7q688uu,1lsxzM3N,2020-0188,2021-10-17,22:29:37,23:47:18,NA,incomplete,false,true,NA,6,25,NA,yellow,n_s_067.jpg,NA,NA,pleasant,unpleasant,NA,NA,NA,NA,NA,right,1489,true,NA,NA,NA,NA,NA
1lsxzM3N,3e6l1vr4yzzg81jodkfak6sl8ztf6z,3ywrv122cwcuihxwsqc9f4l7q688uu,1lsxzM3N,2020-0188,2021-10-17,22:29:37,23:47:18,NA,incomplete,false,true,NA,6,26,NA,yellow,n_l_103.jpg,NA,NA,pleasant,unpleasant,NA,NA,NA,NA,NA,right,1614,true,NA,NA,NA,NA,NA
1lsxzM3N,3e6l1vr4yzzg81jodkfak6sl8ztf6z,3ywrv122cwcuihxwsqc9f4l7q688uu,1lsxzM3N,2020-0188,2021-10-17,22:29:37,23:47:18,NA,incomplete,false,true,NA,6,27,NA,yellow,n_l_016.jpg,NA,NA,unpleasant,pleasant,NA,NA,NA,NA,NA,left,1385,true,NA,NA,NA,NA,NA
1lsxzM3N,3e6l1vr4yzzg81jodkfak6sl8ztf6z,3ywrv122cwcuihxwsqc9f4l7q688uu,1lsxzM3N,2020-0188,2021-10-17,22:29:37,23:47:18,NA,incomplete,false,true,NA,6,28,NA,yellow,n_s_088.jpg,NA,NA,unpleasant,pleasant,NA,NA,NA,NA,NA,none,0,false,NA,NA,NA,NA,NA
1lsxzM3N,3e6l1vr4yzzg81jodkfak6sl8ztf6z,3ywrv122cwcuihxwsqc9f4l7q688uu,1lsxzM3N,2020-0188,2021-10-17,22:29:37,23:47:18,NA,incomplete,false,true,NA,6,29,NA,yellow,n_l_037.jpg,NA,NA,unpleasant,pleasant,NA,NA,NA,NA,NA,left,1760,true,NA,NA,NA,NA,NA
1lsxzM3N,3e6l1vr4yzzg81jodkfak6sl8ztf6z,3ywrv122cwcuihxwsqc9f4l7q688uu,1lsxzM3N,2020-0188,2021-10-17,22:29:37,23:47:18,NA,incomplete,false,true,NA,6,30,NA,brown,n_s_052.jpg,NA,NA,pleasant,unpleasant,NA,NA,NA,NA,NA,none,0,false,NA,NA,NA,NA,NA
1lsxzM3N,3e6l1vr4yzzg81jodkfak6sl8ztf6z,3ywrv122cwcuihxwsqc9f4l7q688uu,1lsxzM3N,2020-0188,2021-10-17,22:29:37,23:47:18,NA,incomplete,false,true,NA,6,31,NA,brown,m_s_054.jpg,NA,NA,pleasant,unpleasant,NA,NA,NA,NA,NA,right,3292,true,NA,NA,NA,NA,NA
1lsxzM3N,3e6l1vr4yzzg81jodkfak6sl8ztf6z,3ywrv122cwcuihxwsqc9f4l7q688uu,1lsxzM3N,2020-0188,2021-10-17,22:29:37,23:47:18,NA,incomplete,false,true,NA,6,32,NA,brown,n_s_039.jpg,NA,NA,pleasant,unpleasant,NA,NA,NA,NA,NA,left,2045,true,NA,NA,NA,NA,NA
1lsxzM3N,3e6l1vr4yzzg81jodkfak6sl8ztf6z,3ywrv122cwcuihxwsqc9f4l7q688uu,1lsxzM3N,2020-0188,2021-10-17,22:29:37,23:47:18,NA,incomplete,false,true,NA,6,33,NA,brown,n_l_096.jpg,NA,NA,unpleasant,pleasant,NA,NA,NA,NA,NA,left,1745,true,NA,NA,NA,NA,NA
1lsxzM3N,3e6l1vr4yzzg81jodkfak6sl8ztf6z,3ywrv122cwcuihxwsqc9f4l7q688uu,1lsxzM3N,2020-0188,2021-10-17,22:29:37,23:47:18,NA,incomplete,false,true,NA,6,34,NA,brown,m_s_023.jpg,NA,NA,unpleasant,pleasant,NA,NA,NA,NA,NA,right,3079,true,NA,NA,NA,NA,NA
1lsxzM3N,3e6l1vr4yzzg81jodkfak6sl8ztf6z,3ywrv122cwcuihxwsqc9f4l7q688uu,1lsxzM3N,2020-0188,2021-10-17,22:29:37,23:47:18,NA,incomplete,false,true,NA,6,35,NA,brown,n_s_017.jpg,NA,NA,pleasant,unpleasant,NA,NA,NA,NA,NA,left,1671,true,NA,NA,NA,NA,NA
1lsxzM3N,3e6l1vr4yzzg81jodkfak6sl8ztf6z,3ywrv122cwcuihxwsqc9f4l7q688uu,1lsxzM3N,2020-0188,2021-10-17,22:29:37,23:47:18,NA,incomplete,false,NA,true,6,0,NA,NA,NA,right,absent,NA,NA,n_l_009.jpg,purple,m_l_018.jpg,purple,within,NA,NaN,NA,left,2910,0,1,1869
1lsxzM3N,3e6l1vr4yzzg81jodkfak6sl8ztf6z,3ywrv122cwcuihxwsqc9f4l7q688uu,1lsxzM3N,2020-0188,2021-10-17,22:29:37,23:47:18,NA,incomplete,false,NA,true,6,1,NA,NA,NA,right,absent,NA,NA,m_l_047.jpg,white,m_l_092.jpg,orange,between,NA,NaN,NA,right,1717,1,2,1908
1lsxzM3N,3e6l1vr4yzzg81jodkfak6sl8ztf6z,3ywrv122cwcuihxwsqc9f4l7q688uu,1lsxzM3N,2020-0188,2021-10-17,22:29:37,23:47:18,NA,incomplete,false,NA,true,6,2,NA,NA,NA,right,absent,NA,NA,m_l_004.jpg,white,m_s_103.jpg,white,within,NA,NaN,NA,left,2182,0,2,2214
1lsxzM3N,3e6l1vr4yzzg81jodkfak6sl8ztf6z,3ywrv122cwcuihxwsqc9f4l7q688uu,1lsxzM3N,2020-0188,2021-10-17,22:29:37,23:47:18,NA,incomplete,false,NA,true,6,3,NA,NA,NA,left,absent,NA,NA,m_l_037.jpg,white,n_s_080.jpg,purple,between,NA,NaN,NA,right,3926,0,1,4042
1lsxzM3N,3e6l1vr4yzzg81jodkfak6sl8ztf6z,3ywrv122cwcuihxwsqc9f4l7q688uu,1lsxzM3N,2020-0188,2021-10-17,22:29:37,23:47:18,NA,incomplete,false,NA,true,6,4,NA,NA,NA,right,absent,NA,NA,n_l_103.jpg,yellow,n_s_047.jpg,blue,between,NA,NaN,NA,left,3916,0,2,1931
1lsxzM3N,3e6l1vr4yzzg81jodkfak6sl8ztf6z,3ywrv122cwcuihxwsqc9f4l7q688uu,1lsxzM3N,2020-0188,2021-10-17,22:29:37,23:47:18,NA,incomplete,false,NA,true,6,5,NA,NA,NA,left,absent,NA,NA,m_l_025.jpg,orange,n_s_037.jpg,orange,within,NA,NaN,NA,right,2141,0,1,2260
1lsxzM3N,3e6l1vr4yzzg81jodkfak6sl8ztf6z,3ywrv122cwcuihxwsqc9f4l7q688uu,1lsxzM3N,2020-0188,2021-10-17,22:29:37,23:47:18,NA,incomplete,false,NA,true,6,6,NA,NA,NA,right,absent,NA,NA,m_l_017.jpg,blue,n_s_069.jpg,purple,between,NA,NaN,NA,left,6611,0,2,4626
1lsxzM3N,3e6l1vr4yzzg81jodkfak6sl8ztf6z,3ywrv122cwcuihxwsqc9f4l7q688uu,1lsxzM3N,2020-0188,2021-10-17,22:29:37,23:47:18,NA,incomplete,false,NA,true,6,7,NA,NA,NA,right,absent,NA,NA,n_s_039.jpg,brown,n_s_088.jpg,yellow,between,NA,NaN,NA,right,2396,1,1,1485
1lsxzM3N,3e6l1vr4yzzg81jodkfak6sl8ztf6z,3ywrv122cwcuihxwsqc9f4l7q688uu,1lsxzM3N,2020-0188,2021-10-17,22:29:37,23:47:18,NA,incomplete,false,NA,true,6,8,NA,NA,NA,right,absent,NA,NA,n_s_017.jpg,brown,m_s_054.jpg,brown,within,NA,NaN,NA,right,3174,1,2,1994
1lsxzM3N,3e6l1vr4yzzg81jodkfak6sl8ztf6z,3ywrv122cwcuihxwsqc9f4l7q688uu,1lsxzM3N,2020-0188,2021-10-17,22:29:37,23:47:18,NA,incomplete,false,NA,true,6,9,NA,NA,NA,left,absent,NA,NA,n_l_025.jpg,blue,m_l_094.jpg,blue,within,NA,NaN,NA,left,2100,1,2,1732
1lsxzM3N,3e6l1vr4yzzg81jodkfak6sl8ztf6z,3ywrv122cwcuihxwsqc9f4l7q688uu,1lsxzM3N,2020-0188,2021-10-17,22:29:37,23:47:18,NA,incomplete,false,NA,true,6,10,NA,NA,NA,right,absent,NA,NA,n_l_037.jpg,yellow,n_s_067.jpg,yellow,within,NA,NaN,NA,right,4077,1,1,8396
1lsxzM3N,3e6l1vr4yzzg81jodkfak6sl8ztf6z,3ywrv122cwcuihxwsqc9f4l7q688uu,1lsxzM3N,2020-0188,2021-10-17,22:29:37,23:47:18,NA,incomplete,false,true,NA,7,0,NA,blue,n_l_081.jpg,NA,NA,unpleasant,pleasant,NA,NA,NA,NA,NA,right,1795,true,NA,NA,NA,NA,NA
1lsxzM3N,3e6l1vr4yzzg81jodkfak6sl8ztf6z,3ywrv122cwcuihxwsqc9f4l7q688uu,1lsxzM3N,2020-0188,2021-10-17,22:29:37,23:47:18,NA,incomplete,false,true,NA,7,1,NA,blue,m_s_044.jpg,NA,NA,unpleasant,pleasant,NA,NA,NA,NA,NA,right,2338,true,NA,NA,NA,NA,NA
1lsxzM3N,3e6l1vr4yzzg81jodkfak6sl8ztf6z,3ywrv122cwcuihxwsqc9f4l7q688uu,1lsxzM3N,2020-0188,2021-10-17,22:29:37,23:47:18,NA,incomplete,false,true,NA,7,2,NA,blue,n_l_061.jpg,NA,NA,unpleasant,pleasant,NA,NA,NA,NA,NA,left,1698,true,NA,NA,NA,NA,NA
1lsxzM3N,3e6l1vr4yzzg81jodkfak6sl8ztf6z,3ywrv122cwcuihxwsqc9f4l7q688uu,1lsxzM3N,2020-0188,2021-10-17,22:29:37,23:47:18,NA,incomplete,false,true,NA,7,3,NA,blue,m_s_032.jpg,NA,NA,unpleasant,pleasant,NA,NA,NA,NA,NA,right,1663,true,NA,NA,NA,NA,NA
1lsxzM3N,3e6l1vr4yzzg81jodkfak6sl8ztf6z,3ywrv122cwcuihxwsqc9f4l7q688uu,1lsxzM3N,2020-0188,2021-10-17,22:29:37,23:47:18,NA,incomplete,false,true,NA,7,4,NA,blue,m_l_013.jpg,NA,NA,unpleasant,pleasant,NA,NA,NA,NA,NA,right,2230,true,NA,NA,NA,NA,NA
1lsxzM3N,3e6l1vr4yzzg81jodkfak6sl8ztf6z,3ywrv122cwcuihxwsqc9f4l7q688uu,1lsxzM3N,2020-0188,2021-10-17,22:29:37,23:47:18,NA,incomplete,false,true,NA,7,5,NA,blue,m_l_068.jpg,NA,NA,unpleasant,pleasant,NA,NA,NA,NA,NA,right,2469,true,NA,NA,NA,NA,NA
1lsxzM3N,3e6l1vr4yzzg81jodkfak6sl8ztf6z,3ywrv122cwcuihxwsqc9f4l7q688uu,1lsxzM3N,2020-0188,2021-10-17,22:29:37,23:47:18,NA,incomplete,false,true,NA,7,6,NA,purple,n_l_112.jpg,NA,NA,pleasant,unpleasant,NA,NA,NA,NA,NA,left,2016,true,NA,NA,NA,NA,NA
1lsxzM3N,3e6l1vr4yzzg81jodkfak6sl8ztf6z,3ywrv122cwcuihxwsqc9f4l7q688uu,1lsxzM3N,2020-0188,2021-10-17,22:29:37,23:47:18,NA,incomplete,false,true,NA,7,7,NA,purple,n_s_028.jpg,NA,NA,unpleasant,pleasant,NA,NA,NA,NA,NA,right,1923,true,NA,NA,NA,NA,NA
1lsxzM3N,3e6l1vr4yzzg81jodkfak6sl8ztf6z,3ywrv122cwcuihxwsqc9f4l7q688uu,1lsxzM3N,2020-0188,2021-10-17,22:29:37,23:47:18,NA,incomplete,false,true,NA,7,8,NA,purple,m_s_011.jpg,NA,NA,pleasant,unpleasant,NA,NA,NA,NA,NA,left,2374,true,NA,NA,NA,NA,NA
1lsxzM3N,3e6l1vr4yzzg81jodkfak6sl8ztf6z,3ywrv122cwcuihxwsqc9f4l7q688uu,1lsxzM3N,2020-0188,2021-10-17,22:29:37,23:47:18,NA,incomplete,false,true,NA,7,9,NA,purple,m_l_023.jpg,NA,NA,unpleasant,pleasant,NA,NA,NA,NA,NA,right,1921,true,NA,NA,NA,NA,NA
1lsxzM3N,3e6l1vr4yzzg81jodkfak6sl8ztf6z,3ywrv122cwcuihxwsqc9f4l7q688uu,1lsxzM3N,2020-0188,2021-10-17,22:29:37,23:47:18,NA,incomplete,false,true,NA,7,10,NA,purple,m_s_053.jpg,NA,NA,pleasant,unpleasant,NA,NA,NA,NA,NA,left,1905,true,NA,NA,NA,NA,NA
1lsxzM3N,3e6l1vr4yzzg81jodkfak6sl8ztf6z,3ywrv122cwcuihxwsqc9f4l7q688uu,1lsxzM3N,2020-0188,2021-10-17,22:29:37,23:47:18,NA,incomplete,false,true,NA,7,11,NA,purple,n_l_109.jpg,NA,NA,pleasant,unpleasant,NA,NA,NA,NA,NA,right,1594,true,NA,NA,NA,NA,NA
1lsxzM3N,3e6l1vr4yzzg81jodkfak6sl8ztf6z,3ywrv122cwcuihxwsqc9f4l7q688uu,1lsxzM3N,2020-0188,2021-10-17,22:29:37,23:47:18,NA,incomplete,false,true,NA,7,12,NA,gray,n_l_013.jpg,NA,NA,unpleasant,pleasant,NA,NA,NA,NA,NA,left,2089,true,NA,NA,NA,NA,NA
1lsxzM3N,3e6l1vr4yzzg81jodkfak6sl8ztf6z,3ywrv122cwcuihxwsqc9f4l7q688uu,1lsxzM3N,2020-0188,2021-10-17,22:29:37,23:47:18,NA,incomplete,false,true,NA,7,13,NA,gray,m_l_060.jpg,NA,NA,unpleasant,pleasant,NA,NA,NA,NA,NA,right,1710,true,NA,NA,NA,NA,NA
1lsxzM3N,3e6l1vr4yzzg81jodkfak6sl8ztf6z,3ywrv122cwcuihxwsqc9f4l7q688uu,1lsxzM3N,2020-0188,2021-10-17,22:29:37,23:47:18,NA,incomplete,false,true,NA,7,14,NA,gray,m_l_098.jpg,NA,NA,unpleasant,pleasant,NA,NA,NA,NA,NA,left,1571,true,NA,NA,NA,NA,NA
1lsxzM3N,3e6l1vr4yzzg81jodkfak6sl8ztf6z,3ywrv122cwcuihxwsqc9f4l7q688uu,1lsxzM3N,2020-0188,2021-10-17,22:29:37,23:47:18,NA,incomplete,false,true,NA,7,15,NA,gray,m_s_115.jpg,NA,NA,pleasant,unpleasant,NA,NA,NA,NA,NA,right,1611,true,NA,NA,NA,NA,NA
1lsxzM3N,3e6l1vr4yzzg81jodkfak6sl8ztf6z,3ywrv122cwcuihxwsqc9f4l7q688uu,1lsxzM3N,2020-0188,2021-10-17,22:29:37,23:47:18,NA,incomplete,false,true,NA,7,16,NA,gray,m_l_065.jpg,NA,NA,unpleasant,pleasant,NA,NA,NA,NA,NA,left,3125,true,NA,NA,NA,NA,NA
1lsxzM3N,3e6l1vr4yzzg81jodkfak6sl8ztf6z,3ywrv122cwcuihxwsqc9f4l7q688uu,1lsxzM3N,2020-0188,2021-10-17,22:29:37,23:47:18,NA,incomplete,false,true,NA,7,17,NA,gray,n_l_040.jpg,NA,NA,pleasant,unpleasant,NA,NA,NA,NA,NA,left,3072,true,NA,NA,NA,NA,NA
1lsxzM3N,3e6l1vr4yzzg81jodkfak6sl8ztf6z,3ywrv122cwcuihxwsqc9f4l7q688uu,1lsxzM3N,2020-0188,2021-10-17,22:29:37,23:47:18,NA,incomplete,false,true,NA,7,18,NA,green,n_s_006.jpg,NA,NA,pleasant,unpleasant,NA,NA,NA,NA,NA,left,1600,true,NA,NA,NA,NA,NA
1lsxzM3N,3e6l1vr4yzzg81jodkfak6sl8ztf6z,3ywrv122cwcuihxwsqc9f4l7q688uu,1lsxzM3N,2020-0188,2021-10-17,22:29:37,23:47:18,NA,incomplete,false,true,NA,7,19,NA,green,n_s_036.jpg,NA,NA,pleasant,unpleasant,NA,NA,NA,NA,NA,none,0,false,NA,NA,NA,NA,NA
1lsxzM3N,3e6l1vr4yzzg81jodkfak6sl8ztf6z,3ywrv122cwcuihxwsqc9f4l7q688uu,1lsxzM3N,2020-0188,2021-10-17,22:29:37,23:47:18,NA,incomplete,false,true,NA,7,20,NA,green,n_s_045.jpg,NA,NA,pleasant,unpleasant,NA,NA,NA,NA,NA,right,2073,true,NA,NA,NA,NA,NA
1lsxzM3N,3e6l1vr4yzzg81jodkfak6sl8ztf6z,3ywrv122cwcuihxwsqc9f4l7q688uu,1lsxzM3N,2020-0188,2021-10-17,22:29:37,23:47:18,NA,incomplete,false,true,NA,7,21,NA,green,m_s_083.jpg,NA,NA,pleasant,unpleasant,NA,NA,NA,NA,NA,none,0,false,NA,NA,NA,NA,NA
1lsxzM3N,3e6l1vr4yzzg81jodkfak6sl8ztf6z,3ywrv122cwcuihxwsqc9f4l7q688uu,1lsxzM3N,2020-0188,2021-10-17,22:29:37,23:47:18,NA,incomplete,false,true,NA,7,22,NA,green,n_s_032.jpg,NA,NA,pleasant,unpleasant,NA,NA,NA,NA,NA,left,1445,true,NA,NA,NA,NA,NA
1lsxzM3N,3e6l1vr4yzzg81jodkfak6sl8ztf6z,3ywrv122cwcuihxwsqc9f4l7q688uu,1lsxzM3N,2020-0188,2021-10-17,22:29:37,23:47:18,NA,incomplete,false,true,NA,7,23,NA,green,m_l_116.jpg,NA,NA,pleasant,unpleasant,NA,NA,NA,NA,NA,right,2135,true,NA,NA,NA,NA,NA
1lsxzM3N,3e6l1vr4yzzg81jodkfak6sl8ztf6z,3ywrv122cwcuihxwsqc9f4l7q688uu,1lsxzM3N,2020-0188,2021-10-17,22:29:37,23:47:18,NA,incomplete,false,true,NA,7,24,NA,black,n_l_008.jpg,NA,NA,pleasant,unpleasant,NA,NA,NA,NA,NA,right,1745,true,NA,NA,NA,NA,NA
1lsxzM3N,3e6l1vr4yzzg81jodkfak6sl8ztf6z,3ywrv122cwcuihxwsqc9f4l7q688uu,1lsxzM3N,2020-0188,2021-10-17,22:29:37,23:47:18,NA,incomplete,false,true,NA,7,25,NA,black,n_l_032.jpg,NA,NA,pleasant,unpleasant,NA,NA,NA,NA,NA,right,1847,true,NA,NA,NA,NA,NA
1lsxzM3N,3e6l1vr4yzzg81jodkfak6sl8ztf6z,3ywrv122cwcuihxwsqc9f4l7q688uu,1lsxzM3N,2020-0188,2021-10-17,22:29:37,23:47:18,NA,incomplete,false,true,NA,7,26,NA,black,m_l_114.jpg,NA,NA,unpleasant,pleasant,NA,NA,NA,NA,NA,left,2282,true,NA,NA,NA,NA,NA
1lsxzM3N,3e6l1vr4yzzg81jodkfak6sl8ztf6z,3ywrv122cwcuihxwsqc9f4l7q688uu,1lsxzM3N,2020-0188,2021-10-17,22:29:37,23:47:18,NA,incomplete,false,true,NA,7,27,NA,black,n_s_048.jpg,NA,NA,pleasant,unpleasant,NA,NA,NA,NA,NA,right,2028,true,NA,NA,NA,NA,NA
1lsxzM3N,3e6l1vr4yzzg81jodkfak6sl8ztf6z,3ywrv122cwcuihxwsqc9f4l7q688uu,1lsxzM3N,2020-0188,2021-10-17,22:29:37,23:47:18,NA,incomplete,false,true,NA,7,28,NA,black,m_s_004.jpg,NA,NA,unpleasant,pleasant,NA,NA,NA,NA,NA,none,0,false,NA,NA,NA,NA,NA
1lsxzM3N,3e6l1vr4yzzg81jodkfak6sl8ztf6z,3ywrv122cwcuihxwsqc9f4l7q688uu,1lsxzM3N,2020-0188,2021-10-17,22:29:37,23:47:18,NA,incomplete,false,true,NA,7,29,NA,black,n_l_079.jpg,NA,NA,pleasant,unpleasant,NA,NA,NA,NA,NA,left,2837,true,NA,NA,NA,NA,NA
1lsxzM3N,3e6l1vr4yzzg81jodkfak6sl8ztf6z,3ywrv122cwcuihxwsqc9f4l7q688uu,1lsxzM3N,2020-0188,2021-10-17,22:29:37,23:47:18,NA,incomplete,false,true,NA,7,30,NA,brown,m_s_046.jpg,NA,NA,pleasant,unpleasant,NA,NA,NA,NA,NA,left,1399,true,NA,NA,NA,NA,NA
1lsxzM3N,3e6l1vr4yzzg81jodkfak6sl8ztf6z,3ywrv122cwcuihxwsqc9f4l7q688uu,1lsxzM3N,2020-0188,2021-10-17,22:29:37,23:47:18,NA,incomplete,false,true,NA,7,31,NA,brown,m_l_073.jpg,NA,NA,pleasant,unpleasant,NA,NA,NA,NA,NA,right,1468,true,NA,NA,NA,NA,NA
1lsxzM3N,3e6l1vr4yzzg81jodkfak6sl8ztf6z,3ywrv122cwcuihxwsqc9f4l7q688uu,1lsxzM3N,2020-0188,2021-10-17,22:29:37,23:47:18,NA,incomplete,false,true,NA,7,32,NA,brown,n_l_114.jpg,NA,NA,pleasant,unpleasant,NA,NA,NA,NA,NA,right,1730,true,NA,NA,NA,NA,NA
1lsxzM3N,3e6l1vr4yzzg81jodkfak6sl8ztf6z,3ywrv122cwcuihxwsqc9f4l7q688uu,1lsxzM3N,2020-0188,2021-10-17,22:29:37,23:47:18,NA,incomplete,false,true,NA,7,33,NA,brown,m_s_035.jpg,NA,NA,pleasant,unpleasant,NA,NA,NA,NA,NA,left,1234,true,NA,NA,NA,NA,NA
1lsxzM3N,3e6l1vr4yzzg81jodkfak6sl8ztf6z,3ywrv122cwcuihxwsqc9f4l7q688uu,1lsxzM3N,2020-0188,2021-10-17,22:29:37,23:47:18,NA,incomplete,false,true,NA,7,34,NA,brown,n_s_095.jpg,NA,NA,unpleasant,pleasant,NA,NA,NA,NA,NA,left,2237,true,NA,NA,NA,NA,NA
1lsxzM3N,3e6l1vr4yzzg81jodkfak6sl8ztf6z,3ywrv122cwcuihxwsqc9f4l7q688uu,1lsxzM3N,2020-0188,2021-10-17,22:29:37,23:47:18,NA,incomplete,false,true,NA,7,35,NA,brown,n_l_068.jpg,NA,NA,unpleasant,pleasant,NA,NA,NA,NA,NA,right,1597,true,NA,NA,NA,NA,NA
1lsxzM3N,3e6l1vr4yzzg81jodkfak6sl8ztf6z,3ywrv122cwcuihxwsqc9f4l7q688uu,1lsxzM3N,2020-0188,2021-10-17,22:29:37,23:47:18,NA,incomplete,false,NA,true,7,0,NA,NA,NA,right,absent,NA,NA,n_l_040.jpg,gray,m_l_060.jpg,gray,within,NA,NaN,NA,right,2829,1,1,1451
1lsxzM3N,3e6l1vr4yzzg81jodkfak6sl8ztf6z,3ywrv122cwcuihxwsqc9f4l7q688uu,1lsxzM3N,2020-0188,2021-10-17,22:29:37,23:47:18,NA,incomplete,false,NA,true,7,1,NA,NA,NA,left,absent,NA,NA,m_s_053.jpg,purple,m_l_098.jpg,gray,between,NA,NaN,NA,left,4725,1,1,3563
1lsxzM3N,3e6l1vr4yzzg81jodkfak6sl8ztf6z,3ywrv122cwcuihxwsqc9f4l7q688uu,1lsxzM3N,2020-0188,2021-10-17,22:29:37,23:47:18,NA,incomplete,false,NA,true,7,2,NA,NA,NA,left,absent,NA,NA,n_s_028.jpg,purple,n_l_109.jpg,purple,within,NA,NaN,NA,right,2765,0,1,1451
1lsxzM3N,3e6l1vr4yzzg81jodkfak6sl8ztf6z,3ywrv122cwcuihxwsqc9f4l7q688uu,1lsxzM3N,2020-0188,2021-10-17,22:29:37,23:47:18,NA,incomplete,false,NA,true,7,3,NA,NA,NA,left,absent,NA,NA,m_l_065.jpg,gray,n_s_045.jpg,green,between,NA,NaN,NA,right,2669,0,2,1334
1lsxzM3N,3e6l1vr4yzzg81jodkfak6sl8ztf6z,3ywrv122cwcuihxwsqc9f4l7q688uu,1lsxzM3N,2020-0188,2021-10-17,22:29:37,23:47:18,NA,incomplete,false,NA,true,7,4,NA,NA,NA,left,absent,NA,NA,m_s_044.jpg,blue,m_l_068.jpg,blue,within,NA,NaN,NA,left,2916,1,2,1540
1lsxzM3N,3e6l1vr4yzzg81jodkfak6sl8ztf6z,3ywrv122cwcuihxwsqc9f4l7q688uu,1lsxzM3N,2020-0188,2021-10-17,22:29:37,23:47:18,NA,incomplete,false,NA,true,7,5,NA,NA,NA,left,absent,NA,NA,m_l_013.jpg,blue,m_s_011.jpg,purple,between,NA,NaN,NA,left,3268,1,1,1819
1lsxzM3N,3e6l1vr4yzzg81jodkfak6sl8ztf6z,3ywrv122cwcuihxwsqc9f4l7q688uu,1lsxzM3N,2020-0188,2021-10-17,22:29:37,23:47:18,NA,incomplete,false,NA,true,7,6,NA,NA,NA,right,absent,NA,NA,n_l_079.jpg,black,n_l_032.jpg,black,within,NA,NaN,NA,right,2805,1,2,1708
1lsxzM3N,3e6l1vr4yzzg81jodkfak6sl8ztf6z,3ywrv122cwcuihxwsqc9f4l7q688uu,1lsxzM3N,2020-0188,2021-10-17,22:29:37,23:47:18,NA,incomplete,false,NA,true,7,7,NA,NA,NA,right,absent,NA,NA,n_l_068.jpg,brown,m_l_073.jpg,brown,within,NA,NaN,NA,right,2541,1,1,2092
1lsxzM3N,3e6l1vr4yzzg81jodkfak6sl8ztf6z,3ywrv122cwcuihxwsqc9f4l7q688uu,1lsxzM3N,2020-0188,2021-10-17,22:29:37,23:47:18,NA,incomplete,false,NA,true,7,8,NA,NA,NA,left,absent,NA,NA,n_s_036.jpg,green,m_l_116.jpg,green,within,NA,NaN,NA,left,2262,1,2,1909
1lsxzM3N,3e6l1vr4yzzg81jodkfak6sl8ztf6z,3ywrv122cwcuihxwsqc9f4l7q688uu,1lsxzM3N,2020-0188,2021-10-17,22:29:37,23:47:18,NA,incomplete,false,NA,true,7,9,NA,NA,NA,left,absent,NA,NA,m_s_004.jpg,black,n_l_114.jpg,brown,between,NA,NaN,NA,right,2565,0,1,1708
1lsxzM3N,3e6l1vr4yzzg81jodkfak6sl8ztf6z,3ywrv122cwcuihxwsqc9f4l7q688uu,1lsxzM3N,2020-0188,2021-10-17,22:29:37,23:47:18,NA,incomplete,false,NA,true,7,10,NA,NA,NA,left,absent,NA,NA,n_s_032.jpg,green,m_l_114.jpg,black,between,NA,NaN,NA,left,2323,1,2,2637
1lsxzM3N,3e6l1vr4yzzg81jodkfak6sl8ztf6z,3ywrv122cwcuihxwsqc9f4l7q688uu,1lsxzM3N,2020-0188,2021-10-17,22:29:37,23:47:18,NA,incomplete,false,true,NA,8,0,NA,orange,m_s_001.jpg,NA,NA,unpleasant,pleasant,NA,NA,NA,NA,NA,right,2179,true,NA,NA,NA,NA,NA
1lsxzM3N,3e6l1vr4yzzg81jodkfak6sl8ztf6z,3ywrv122cwcuihxwsqc9f4l7q688uu,1lsxzM3N,2020-0188,2021-10-17,22:29:37,23:47:18,NA,incomplete,false,true,NA,8,1,NA,orange,m_s_110.jpg,NA,NA,pleasant,unpleasant,NA,NA,NA,NA,NA,left,1491,true,NA,NA,NA,NA,NA
1lsxzM3N,3e6l1vr4yzzg81jodkfak6sl8ztf6z,3ywrv122cwcuihxwsqc9f4l7q688uu,1lsxzM3N,2020-0188,2021-10-17,22:29:37,23:47:18,NA,incomplete,false,true,NA,8,2,NA,orange,n_s_056.jpg,NA,NA,pleasant,unpleasant,NA,NA,NA,NA,NA,left,1314,true,NA,NA,NA,NA,NA
1lsxzM3N,3e6l1vr4yzzg81jodkfak6sl8ztf6z,3ywrv122cwcuihxwsqc9f4l7q688uu,1lsxzM3N,2020-0188,2021-10-17,22:29:37,23:47:18,NA,incomplete,false,true,NA,8,3,NA,orange,m_l_045.jpg,NA,NA,unpleasant,pleasant,NA,NA,NA,NA,NA,right,2389,true,NA,NA,NA,NA,NA
1lsxzM3N,3e6l1vr4yzzg81jodkfak6sl8ztf6z,3ywrv122cwcuihxwsqc9f4l7q688uu,1lsxzM3N,2020-0188,2021-10-17,22:29:37,23:47:18,NA,incomplete,false,true,NA,8,4,NA,orange,n_l_072.jpg,NA,NA,unpleasant,pleasant,NA,NA,NA,NA,NA,left,1290,true,NA,NA,NA,NA,NA
1lsxzM3N,3e6l1vr4yzzg81jodkfak6sl8ztf6z,3ywrv122cwcuihxwsqc9f4l7q688uu,1lsxzM3N,2020-0188,2021-10-17,22:29:37,23:47:18,NA,incomplete,false,true,NA,8,5,NA,orange,n_s_058.jpg,NA,NA,unpleasant,pleasant,NA,NA,NA,NA,NA,left,1933,true,NA,NA,NA,NA,NA
1lsxzM3N,3e6l1vr4yzzg81jodkfak6sl8ztf6z,3ywrv122cwcuihxwsqc9f4l7q688uu,1lsxzM3N,2020-0188,2021-10-17,22:29:37,23:47:18,NA,incomplete,false,true,NA,8,6,NA,black,n_l_021.jpg,NA,NA,unpleasant,pleasant,NA,NA,NA,NA,NA,left,1590,true,NA,NA,NA,NA,NA
1lsxzM3N,3e6l1vr4yzzg81jodkfak6sl8ztf6z,3ywrv122cwcuihxwsqc9f4l7q688uu,1lsxzM3N,2020-0188,2021-10-17,22:29:37,23:47:18,NA,incomplete,false,true,NA,8,7,NA,black,m_s_080.jpg,NA,NA,pleasant,unpleasant,NA,NA,NA,NA,NA,left,2134,true,NA,NA,NA,NA,NA
1lsxzM3N,3e6l1vr4yzzg81jodkfak6sl8ztf6z,3ywrv122cwcuihxwsqc9f4l7q688uu,1lsxzM3N,2020-0188,2021-10-17,22:29:37,23:47:18,NA,incomplete,false,true,NA,8,8,NA,black,m_l_067.jpg,NA,NA,unpleasant,pleasant,NA,NA,NA,NA,NA,left,1771,true,NA,NA,NA,NA,NA
1lsxzM3N,3e6l1vr4yzzg81jodkfak6sl8ztf6z,3ywrv122cwcuihxwsqc9f4l7q688uu,1lsxzM3N,2020-0188,2021-10-17,22:29:37,23:47:18,NA,incomplete,false,true,NA,8,9,NA,black,m_l_036.jpg,NA,NA,unpleasant,pleasant,NA,NA,NA,NA,NA,left,1787,true,NA,NA,NA,NA,NA
1lsxzM3N,3e6l1vr4yzzg81jodkfak6sl8ztf6z,3ywrv122cwcuihxwsqc9f4l7q688uu,1lsxzM3N,2020-0188,2021-10-17,22:29:37,23:47:18,NA,incomplete,false,true,NA,8,10,NA,black,m_s_102.jpg,NA,NA,pleasant,unpleasant,NA,NA,NA,NA,NA,right,1966,true,NA,NA,NA,NA,NA
1lsxzM3N,3e6l1vr4yzzg81jodkfak6sl8ztf6z,3ywrv122cwcuihxwsqc9f4l7q688uu,1lsxzM3N,2020-0188,2021-10-17,22:29:37,23:47:18,NA,incomplete,false,true,NA,8,11,NA,black,n_l_110.jpg,NA,NA,unpleasant,pleasant,NA,NA,NA,NA,NA,right,1757,true,NA,NA,NA,NA,NA
1lsxzM3N,3e6l1vr4yzzg81jodkfak6sl8ztf6z,3ywrv122cwcuihxwsqc9f4l7q688uu,1lsxzM3N,2020-0188,2021-10-17,22:29:37,23:47:18,NA,incomplete,false,true,NA,8,12,NA,gray,n_s_087.jpg,NA,NA,pleasant,unpleasant,NA,NA,NA,NA,NA,left,1565,true,NA,NA,NA,NA,NA
1lsxzM3N,3e6l1vr4yzzg81jodkfak6sl8ztf6z,3ywrv122cwcuihxwsqc9f4l7q688uu,1lsxzM3N,2020-0188,2021-10-17,22:29:37,23:47:18,NA,incomplete,false,true,NA,8,13,NA,gray,m_s_064.jpg,NA,NA,pleasant,unpleasant,NA,NA,NA,NA,NA,right,2225,true,NA,NA,NA,NA,NA
1lsxzM3N,3e6l1vr4yzzg81jodkfak6sl8ztf6z,3ywrv122cwcuihxwsqc9f4l7q688uu,1lsxzM3N,2020-0188,2021-10-17,22:29:37,23:47:18,NA,incomplete,false,true,NA,8,14,NA,gray,n_s_029.jpg,NA,NA,unpleasant,pleasant,NA,NA,NA,NA,NA,right,2744,true,NA,NA,NA,NA,NA
1lsxzM3N,3e6l1vr4yzzg81jodkfak6sl8ztf6z,3ywrv122cwcuihxwsqc9f4l7q688uu,1lsxzM3N,2020-0188,2021-10-17,22:29:37,23:47:18,NA,incomplete,false,true,NA,8,15,NA,gray,m_l_022.jpg,NA,NA,pleasant,unpleasant,NA,NA,NA,NA,NA,left,1984,true,NA,NA,NA,NA,NA
1lsxzM3N,3e6l1vr4yzzg81jodkfak6sl8ztf6z,3ywrv122cwcuihxwsqc9f4l7q688uu,1lsxzM3N,2020-0188,2021-10-17,22:29:37,23:47:18,NA,incomplete,false,true,NA,8,16,NA,gray,m_s_006.jpg,NA,NA,unpleasant,pleasant,NA,NA,NA,NA,NA,right,1564,true,NA,NA,NA,NA,NA
1lsxzM3N,3e6l1vr4yzzg81jodkfak6sl8ztf6z,3ywrv122cwcuihxwsqc9f4l7q688uu,1lsxzM3N,2020-0188,2021-10-17,22:29:37,23:47:18,NA,incomplete,false,true,NA,8,17,NA,gray,n_l_027.jpg,NA,NA,unpleasant,pleasant,NA,NA,NA,NA,NA,left,2884,true,NA,NA,NA,NA,NA
1lsxzM3N,3e6l1vr4yzzg81jodkfak6sl8ztf6z,3ywrv122cwcuihxwsqc9f4l7q688uu,1lsxzM3N,2020-0188,2021-10-17,22:29:37,23:47:18,NA,incomplete,false,true,NA,8,18,NA,yellow,m_s_008.jpg,NA,NA,pleasant,unpleasant,NA,NA,NA,NA,NA,right,1876,true,NA,NA,NA,NA,NA
1lsxzM3N,3e6l1vr4yzzg81jodkfak6sl8ztf6z,3ywrv122cwcuihxwsqc9f4l7q688uu,1lsxzM3N,2020-0188,2021-10-17,22:29:37,23:47:18,NA,incomplete,false,true,NA,8,19,NA,yellow,m_s_088.jpg,NA,NA,unpleasant,pleasant,NA,NA,NA,NA,NA,left,1624,true,NA,NA,NA,NA,NA
1lsxzM3N,3e6l1vr4yzzg81jodkfak6sl8ztf6z,3ywrv122cwcuihxwsqc9f4l7q688uu,1lsxzM3N,2020-0188,2021-10-17,22:29:37,23:47:18,NA,incomplete,false,true,NA,8,20,NA,yellow,m_s_090.jpg,NA,NA,unpleasant,pleasant,NA,NA,NA,NA,NA,right,1432,true,NA,NA,NA,NA,NA
1lsxzM3N,3e6l1vr4yzzg81jodkfak6sl8ztf6z,3ywrv122cwcuihxwsqc9f4l7q688uu,1lsxzM3N,2020-0188,2021-10-17,22:29:37,23:47:18,NA,incomplete,false,true,NA,8,21,NA,yellow,m_l_081.jpg,NA,NA,unpleasant,pleasant,NA,NA,NA,NA,NA,right,3114,true,NA,NA,NA,NA,NA
1lsxzM3N,3e6l1vr4yzzg81jodkfak6sl8ztf6z,3ywrv122cwcuihxwsqc9f4l7q688uu,1lsxzM3N,2020-0188,2021-10-17,22:29:37,23:47:18,NA,incomplete,false,true,NA,8,22,NA,yellow,m_l_077.jpg,NA,NA,pleasant,unpleasant,NA,NA,NA,NA,NA,left,1650,true,NA,NA,NA,NA,NA
1lsxzM3N,3e6l1vr4yzzg81jodkfak6sl8ztf6z,3ywrv122cwcuihxwsqc9f4l7q688uu,1lsxzM3N,2020-0188,2021-10-17,22:29:37,23:47:18,NA,incomplete,false,true,NA,8,23,NA,yellow,m_s_067.jpg,NA,NA,unpleasant,pleasant,NA,NA,NA,NA,NA,left,3097,true,NA,NA,NA,NA,NA
1lsxzM3N,3e6l1vr4yzzg81jodkfak6sl8ztf6z,3ywrv122cwcuihxwsqc9f4l7q688uu,1lsxzM3N,2020-0188,2021-10-17,22:29:37,23:47:18,NA,incomplete,false,true,NA,8,24,NA,blue,m_s_027.jpg,NA,NA,unpleasant,pleasant,NA,NA,NA,NA,NA,right,1552,true,NA,NA,NA,NA,NA
1lsxzM3N,3e6l1vr4yzzg81jodkfak6sl8ztf6z,3ywrv122cwcuihxwsqc9f4l7q688uu,1lsxzM3N,2020-0188,2021-10-17,22:29:37,23:47:18,NA,incomplete,false,true,NA,8,25,NA,blue,n_l_113.jpg,NA,NA,pleasant,unpleasant,NA,NA,NA,NA,NA,left,1390,true,NA,NA,NA,NA,NA
1lsxzM3N,3e6l1vr4yzzg81jodkfak6sl8ztf6z,3ywrv122cwcuihxwsqc9f4l7q688uu,1lsxzM3N,2020-0188,2021-10-17,22:29:37,23:47:18,NA,incomplete,false,true,NA,8,26,NA,blue,m_l_109.jpg,NA,NA,unpleasant,pleasant,NA,NA,NA,NA,NA,left,2160,true,NA,NA,NA,NA,NA
1lsxzM3N,3e6l1vr4yzzg81jodkfak6sl8ztf6z,3ywrv122cwcuihxwsqc9f4l7q688uu,1lsxzM3N,2020-0188,2021-10-17,22:29:37,23:47:18,NA,incomplete,false,true,NA,8,27,NA,blue,n_s_003.jpg,NA,NA,unpleasant,pleasant,NA,NA,NA,NA,NA,left,1542,true,NA,NA,NA,NA,NA
1lsxzM3N,3e6l1vr4yzzg81jodkfak6sl8ztf6z,3ywrv122cwcuihxwsqc9f4l7q688uu,1lsxzM3N,2020-0188,2021-10-17,22:29:37,23:47:18,NA,incomplete,false,true,NA,8,28,NA,blue,m_l_012.jpg,NA,NA,unpleasant,pleasant,NA,NA,NA,NA,NA,left,1809,true,NA,NA,NA,NA,NA
