workerId,hitId,assignmentId,subject,studyid,exp_date,exp_start,exp_end,time_start,time_end,practice,encoding,memory,block,trial,event_order,event,stim,answer,context_type,label_left,label_right,left_image,left_event,right_image,right_event,condition,response,response_time,response_acc,order_response,order_response_time,order_acc,distance_response,distance_response_time
1tfGvBOW,32k26u12eq14p7ktnmss8y5zd9bdv8,3txmy6ucai142rgsst897pk1dzuqcu,1tfGvBOW,2020-0188,2021-10-14,09:59:11,11:30:15,NA,incomplete,true,true,NA,0,0,NA,white,n_l_015.jpg,NA,NA,pleasant,unpleasant,NA,NA,NA,NA,NA,none,0,false,NA,NA,NA,NA,NA
1tfGvBOW,32k26u12eq14p7ktnmss8y5zd9bdv8,3txmy6ucai142rgsst897pk1dzuqcu,1tfGvBOW,2020-0188,2021-10-14,09:59:11,11:30:15,NA,incomplete,true,true,NA,0,1,NA,white,m_s_054.jpg,NA,NA,pleasant,unpleasant,NA,NA,NA,NA,NA,left,3383.80000001192,true,NA,NA,NA,NA,NA
1tfGvBOW,32k26u12eq14p7ktnmss8y5zd9bdv8,3txmy6ucai142rgsst897pk1dzuqcu,1tfGvBOW,2020-0188,2021-10-14,09:59:11,11:30:15,NA,incomplete,true,true,NA,0,2,NA,white,m_s_015.jpg,NA,NA,unpleasant,pleasant,NA,NA,NA,NA,NA,right,1732,true,NA,NA,NA,NA,NA
1tfGvBOW,32k26u12eq14p7ktnmss8y5zd9bdv8,3txmy6ucai142rgsst897pk1dzuqcu,1tfGvBOW,2020-0188,2021-10-14,09:59:11,11:30:15,NA,incomplete,true,true,NA,0,3,NA,white,m_s_027.jpg,NA,NA,unpleasant,pleasant,NA,NA,NA,NA,NA,left,2824.10000002384,true,NA,NA,NA,NA,NA
1tfGvBOW,32k26u12eq14p7ktnmss8y5zd9bdv8,3txmy6ucai142rgsst897pk1dzuqcu,1tfGvBOW,2020-0188,2021-10-14,09:59:11,11:30:15,NA,incomplete,true,true,NA,0,4,NA,white,n_l_075.jpg,NA,NA,pleasant,unpleasant,NA,NA,NA,NA,NA,right,3372.19999998808,true,NA,NA,NA,NA,NA
1tfGvBOW,32k26u12eq14p7ktnmss8y5zd9bdv8,3txmy6ucai142rgsst897pk1dzuqcu,1tfGvBOW,2020-0188,2021-10-14,09:59:11,11:30:15,NA,incomplete,true,true,NA,0,5,NA,white,n_s_100.jpg,NA,NA,unpleasant,pleasant,NA,NA,NA,NA,NA,left,2672.79999998212,true,NA,NA,NA,NA,NA
1tfGvBOW,32k26u12eq14p7ktnmss8y5zd9bdv8,3txmy6ucai142rgsst897pk1dzuqcu,1tfGvBOW,2020-0188,2021-10-14,09:59:11,11:30:15,NA,incomplete,true,true,NA,0,6,NA,green,n_s_020.jpg,NA,NA,unpleasant,pleasant,NA,NA,NA,NA,NA,none,0,false,NA,NA,NA,NA,NA
1tfGvBOW,32k26u12eq14p7ktnmss8y5zd9bdv8,3txmy6ucai142rgsst897pk1dzuqcu,1tfGvBOW,2020-0188,2021-10-14,09:59:11,11:30:15,NA,incomplete,true,true,NA,0,7,NA,green,n_s_107.jpg,NA,NA,unpleasant,pleasant,NA,NA,NA,NA,NA,right,3144.40000000596,true,NA,NA,NA,NA,NA
1tfGvBOW,32k26u12eq14p7ktnmss8y5zd9bdv8,3txmy6ucai142rgsst897pk1dzuqcu,1tfGvBOW,2020-0188,2021-10-14,09:59:11,11:30:15,NA,incomplete,true,true,NA,0,8,NA,green,n_s_007.jpg,NA,NA,unpleasant,pleasant,NA,NA,NA,NA,NA,left,1980.5,true,NA,NA,NA,NA,NA
1tfGvBOW,32k26u12eq14p7ktnmss8y5zd9bdv8,3txmy6ucai142rgsst897pk1dzuqcu,1tfGvBOW,2020-0188,2021-10-14,09:59:11,11:30:15,NA,incomplete,true,true,NA,0,9,NA,green,n_s_040.jpg,NA,NA,pleasant,unpleasant,NA,NA,NA,NA,NA,right,2362.59999999404,true,NA,NA,NA,NA,NA
1tfGvBOW,32k26u12eq14p7ktnmss8y5zd9bdv8,3txmy6ucai142rgsst897pk1dzuqcu,1tfGvBOW,2020-0188,2021-10-14,09:59:11,11:30:15,NA,incomplete,true,true,NA,0,10,NA,green,n_l_064.jpg,NA,NA,unpleasant,pleasant,NA,NA,NA,NA,NA,right,2231,true,NA,NA,NA,NA,NA
1tfGvBOW,32k26u12eq14p7ktnmss8y5zd9bdv8,3txmy6ucai142rgsst897pk1dzuqcu,1tfGvBOW,2020-0188,2021-10-14,09:59:11,11:30:15,NA,incomplete,true,true,NA,0,11,NA,green,n_s_111.jpg,NA,NA,pleasant,unpleasant,NA,NA,NA,NA,NA,left,2443.19999998808,true,NA,NA,NA,NA,NA
1tfGvBOW,32k26u12eq14p7ktnmss8y5zd9bdv8,3txmy6ucai142rgsst897pk1dzuqcu,1tfGvBOW,2020-0188,2021-10-14,09:59:11,11:30:15,NA,incomplete,true,true,NA,0,12,NA,gray,m_s_041.jpg,NA,NA,unpleasant,pleasant,NA,NA,NA,NA,NA,left,2414.40000000596,true,NA,NA,NA,NA,NA
1tfGvBOW,32k26u12eq14p7ktnmss8y5zd9bdv8,3txmy6ucai142rgsst897pk1dzuqcu,1tfGvBOW,2020-0188,2021-10-14,09:59:11,11:30:15,NA,incomplete,true,true,NA,0,13,NA,gray,m_l_005.jpg,NA,NA,pleasant,unpleasant,NA,NA,NA,NA,NA,right,2492,true,NA,NA,NA,NA,NA
1tfGvBOW,32k26u12eq14p7ktnmss8y5zd9bdv8,3txmy6ucai142rgsst897pk1dzuqcu,1tfGvBOW,2020-0188,2021-10-14,09:59:11,11:30:15,NA,incomplete,true,true,NA,0,14,NA,gray,m_l_084.jpg,NA,NA,unpleasant,pleasant,NA,NA,NA,NA,NA,left,2248.69999998808,true,NA,NA,NA,NA,NA
1tfGvBOW,32k26u12eq14p7ktnmss8y5zd9bdv8,3txmy6ucai142rgsst897pk1dzuqcu,1tfGvBOW,2020-0188,2021-10-14,09:59:11,11:30:15,NA,incomplete,true,true,NA,0,15,NA,gray,m_l_022.jpg,NA,NA,unpleasant,pleasant,NA,NA,NA,NA,NA,right,2478,true,NA,NA,NA,NA,NA
1tfGvBOW,32k26u12eq14p7ktnmss8y5zd9bdv8,3txmy6ucai142rgsst897pk1dzuqcu,1tfGvBOW,2020-0188,2021-10-14,09:59:11,11:30:15,NA,incomplete,true,true,NA,0,16,NA,gray,m_s_091.jpg,NA,NA,unpleasant,pleasant,NA,NA,NA,NA,NA,left,2642,true,NA,NA,NA,NA,NA
1tfGvBOW,32k26u12eq14p7ktnmss8y5zd9bdv8,3txmy6ucai142rgsst897pk1dzuqcu,1tfGvBOW,2020-0188,2021-10-14,09:59:11,11:30:15,NA,incomplete,true,true,NA,0,17,NA,gray,n_s_083.jpg,NA,NA,pleasant,unpleasant,NA,NA,NA,NA,NA,right,2366.90000000596,true,NA,NA,NA,NA,NA
1tfGvBOW,32k26u12eq14p7ktnmss8y5zd9bdv8,3txmy6ucai142rgsst897pk1dzuqcu,1tfGvBOW,2020-0188,2021-10-14,09:59:11,11:30:15,NA,incomplete,true,true,NA,0,18,NA,yellow,n_s_004.jpg,NA,NA,pleasant,unpleasant,NA,NA,NA,NA,NA,right,3490.90000000596,true,NA,NA,NA,NA,NA
1tfGvBOW,32k26u12eq14p7ktnmss8y5zd9bdv8,3txmy6ucai142rgsst897pk1dzuqcu,1tfGvBOW,2020-0188,2021-10-14,09:59:11,11:30:15,NA,incomplete,true,true,NA,0,19,NA,yellow,m_l_058.jpg,NA,NA,unpleasant,pleasant,NA,NA,NA,NA,NA,left,2295.30000001192,true,NA,NA,NA,NA,NA
1tfGvBOW,32k26u12eq14p7ktnmss8y5zd9bdv8,3txmy6ucai142rgsst897pk1dzuqcu,1tfGvBOW,2020-0188,2021-10-14,09:59:11,11:30:15,NA,incomplete,true,true,NA,0,20,NA,yellow,m_s_080.jpg,NA,NA,pleasant,unpleasant,NA,NA,NA,NA,NA,left,3340.09999999404,true,NA,NA,NA,NA,NA
1tfGvBOW,32k26u12eq14p7ktnmss8y5zd9bdv8,3txmy6ucai142rgsst897pk1dzuqcu,1tfGvBOW,2020-0188,2021-10-14,09:59:11,11:30:15,NA,incomplete,true,true,NA,0,21,NA,yellow,n_s_084.jpg,NA,NA,pleasant,unpleasant,NA,NA,NA,NA,NA,right,2696.19999998808,true,NA,NA,NA,NA,NA
1tfGvBOW,32k26u12eq14p7ktnmss8y5zd9bdv8,3txmy6ucai142rgsst897pk1dzuqcu,1tfGvBOW,2020-0188,2021-10-14,09:59:11,11:30:15,NA,incomplete,true,true,NA,0,22,NA,yellow,n_l_049.jpg,NA,NA,unpleasant,pleasant,NA,NA,NA,NA,NA,right,1621.40000000596,true,NA,NA,NA,NA,NA
1tfGvBOW,32k26u12eq14p7ktnmss8y5zd9bdv8,3txmy6ucai142rgsst897pk1dzuqcu,1tfGvBOW,2020-0188,2021-10-14,09:59:11,11:30:15,NA,incomplete,true,true,NA,0,23,NA,yellow,n_s_093.jpg,NA,NA,unpleasant,pleasant,NA,NA,NA,NA,NA,left,1870.79999998212,true,NA,NA,NA,NA,NA
1tfGvBOW,32k26u12eq14p7ktnmss8y5zd9bdv8,3txmy6ucai142rgsst897pk1dzuqcu,1tfGvBOW,2020-0188,2021-10-14,09:59:11,11:30:15,NA,incomplete,true,true,NA,0,24,NA,brown,m_s_052.jpg,NA,NA,unpleasant,pleasant,NA,NA,NA,NA,NA,right,1925.29999998212,true,NA,NA,NA,NA,NA
1tfGvBOW,32k26u12eq14p7ktnmss8y5zd9bdv8,3txmy6ucai142rgsst897pk1dzuqcu,1tfGvBOW,2020-0188,2021-10-14,09:59:11,11:30:15,NA,incomplete,true,true,NA,0,25,NA,brown,n_s_108.jpg,NA,NA,pleasant,unpleasant,NA,NA,NA,NA,NA,left,2520.80000001192,true,NA,NA,NA,NA,NA
1tfGvBOW,32k26u12eq14p7ktnmss8y5zd9bdv8,3txmy6ucai142rgsst897pk1dzuqcu,1tfGvBOW,2020-0188,2021-10-14,09:59:11,11:30:15,NA,incomplete,true,true,NA,0,26,NA,brown,n_s_073.jpg,NA,NA,pleasant,unpleasant,NA,NA,NA,NA,NA,left,3142.19999998808,true,NA,NA,NA,NA,NA
1tfGvBOW,32k26u12eq14p7ktnmss8y5zd9bdv8,3txmy6ucai142rgsst897pk1dzuqcu,1tfGvBOW,2020-0188,2021-10-14,09:59:11,11:30:15,NA,incomplete,true,true,NA,0,27,NA,brown,m_l_076.jpg,NA,NA,unpleasant,pleasant,NA,NA,NA,NA,NA,right,1906.5,true,NA,NA,NA,NA,NA
1tfGvBOW,32k26u12eq14p7ktnmss8y5zd9bdv8,3txmy6ucai142rgsst897pk1dzuqcu,1tfGvBOW,2020-0188,2021-10-14,09:59:11,11:30:15,NA,incomplete,true,true,NA,0,28,NA,brown,m_s_034.jpg,NA,NA,pleasant,unpleasant,NA,NA,NA,NA,NA,right,3070.5,true,NA,NA,NA,NA,NA
1tfGvBOW,32k26u12eq14p7ktnmss8y5zd9bdv8,3txmy6ucai142rgsst897pk1dzuqcu,1tfGvBOW,2020-0188,2021-10-14,09:59:11,11:30:15,NA,incomplete,true,true,NA,0,29,NA,brown,m_s_079.jpg,NA,NA,unpleasant,pleasant,NA,NA,NA,NA,NA,right,2458.29999998212,true,NA,NA,NA,NA,NA
1tfGvBOW,32k26u12eq14p7ktnmss8y5zd9bdv8,3txmy6ucai142rgsst897pk1dzuqcu,1tfGvBOW,2020-0188,2021-10-14,09:59:11,11:30:15,NA,incomplete,true,true,NA,0,30,NA,black,n_s_053.jpg,NA,NA,pleasant,unpleasant,NA,NA,NA,NA,NA,left,2934.19999998808,true,NA,NA,NA,NA,NA
1tfGvBOW,32k26u12eq14p7ktnmss8y5zd9bdv8,3txmy6ucai142rgsst897pk1dzuqcu,1tfGvBOW,2020-0188,2021-10-14,09:59:11,11:30:15,NA,incomplete,true,true,NA,0,31,NA,black,n_l_045.jpg,NA,NA,unpleasant,pleasant,NA,NA,NA,NA,NA,left,2746.19999998808,true,NA,NA,NA,NA,NA
1tfGvBOW,32k26u12eq14p7ktnmss8y5zd9bdv8,3txmy6ucai142rgsst897pk1dzuqcu,1tfGvBOW,2020-0188,2021-10-14,09:59:11,11:30:15,NA,incomplete,true,true,NA,0,32,NA,black,n_s_005.jpg,NA,NA,pleasant,unpleasant,NA,NA,NA,NA,NA,right,2822.30000001192,true,NA,NA,NA,NA,NA
1tfGvBOW,32k26u12eq14p7ktnmss8y5zd9bdv8,3txmy6ucai142rgsst897pk1dzuqcu,1tfGvBOW,2020-0188,2021-10-14,09:59:11,11:30:15,NA,incomplete,true,true,NA,0,33,NA,black,n_l_056.jpg,NA,NA,pleasant,unpleasant,NA,NA,NA,NA,NA,right,2971.10000002384,true,NA,NA,NA,NA,NA
1tfGvBOW,32k26u12eq14p7ktnmss8y5zd9bdv8,3txmy6ucai142rgsst897pk1dzuqcu,1tfGvBOW,2020-0188,2021-10-14,09:59:11,11:30:15,NA,incomplete,true,true,NA,0,34,NA,black,n_l_087.jpg,NA,NA,unpleasant,pleasant,NA,NA,NA,NA,NA,left,1959.30000001192,true,NA,NA,NA,NA,NA
1tfGvBOW,32k26u12eq14p7ktnmss8y5zd9bdv8,3txmy6ucai142rgsst897pk1dzuqcu,1tfGvBOW,2020-0188,2021-10-14,09:59:11,11:30:15,NA,incomplete,true,true,NA,0,35,NA,black,m_s_046.jpg,NA,NA,pleasant,unpleasant,NA,NA,NA,NA,NA,left,2290.5,true,NA,NA,NA,NA,NA
1tfGvBOW,32k26u12eq14p7ktnmss8y5zd9bdv8,3txmy6ucai142rgsst897pk1dzuqcu,1tfGvBOW,2020-0188,2021-10-14,09:59:11,11:30:15,NA,incomplete,true,NA,true,0,0,NA,NA,NA,left,present,NA,NA,n_l_075.jpg,white,n_s_007.jpg,green,between,NA,NaN,NA,right,9787.59999999404,0,2,6279.300000011921
1tfGvBOW,32k26u12eq14p7ktnmss8y5zd9bdv8,3txmy6ucai142rgsst897pk1dzuqcu,1tfGvBOW,2020-0188,2021-10-14,09:59:11,11:30:15,NA,incomplete,true,NA,true,0,1,NA,NA,NA,left,present,NA,NA,m_s_034.jpg,brown,n_s_005.jpg,black,between,NA,NaN,NA,left,4716.9000000059605,1,1,1535
1tfGvBOW,32k26u12eq14p7ktnmss8y5zd9bdv8,3txmy6ucai142rgsst897pk1dzuqcu,1tfGvBOW,2020-0188,2021-10-14,09:59:11,11:30:15,NA,incomplete,true,NA,true,0,2,NA,NA,NA,right,absent,NA,NA,n_s_111.jpg,green,n_s_107.jpg,green,within,NA,NaN,NA,right,5949,1,2,3299.0999999940395
1tfGvBOW,32k26u12eq14p7ktnmss8y5zd9bdv8,3txmy6ucai142rgsst897pk1dzuqcu,1tfGvBOW,2020-0188,2021-10-14,09:59:11,11:30:15,NA,incomplete,true,NA,true,0,3,NA,NA,NA,right,present,NA,NA,n_s_093.jpg,yellow,m_l_058.jpg,yellow,within,NA,NaN,NA,right,3322.5,1,1,1917
1tfGvBOW,32k26u12eq14p7ktnmss8y5zd9bdv8,3txmy6ucai142rgsst897pk1dzuqcu,1tfGvBOW,2020-0188,2021-10-14,09:59:11,11:30:15,NA,incomplete,true,NA,true,0,4,NA,NA,NA,right,present,NA,NA,m_s_080.jpg,yellow,m_s_091.jpg,gray,between,NA,NaN,NA,right,4713,1,0,5532.799999982119
1tfGvBOW,32k26u12eq14p7ktnmss8y5zd9bdv8,3txmy6ucai142rgsst897pk1dzuqcu,1tfGvBOW,2020-0188,2021-10-14,09:59:11,11:30:15,NA,incomplete,true,NA,true,0,5,NA,NA,NA,left,absent,NA,NA,n_s_108.jpg,brown,m_s_079.jpg,brown,within,NA,NaN,NA,left,6067.0999999940395,1,3,2291.0999999940395
1tfGvBOW,32k26u12eq14p7ktnmss8y5zd9bdv8,3txmy6ucai142rgsst897pk1dzuqcu,1tfGvBOW,2020-0188,2021-10-14,09:59:11,11:30:15,NA,incomplete,true,NA,true,0,6,NA,NA,NA,left,absent,NA,NA,n_l_049.jpg,yellow,n_s_073.jpg,brown,between,NA,NaN,NA,left,4063.199999988079,1,2,3375.199999988079
1tfGvBOW,32k26u12eq14p7ktnmss8y5zd9bdv8,3txmy6ucai142rgsst897pk1dzuqcu,1tfGvBOW,2020-0188,2021-10-14,09:59:11,11:30:15,NA,incomplete,true,NA,true,0,7,NA,NA,NA,left,present,NA,NA,m_l_005.jpg,gray,n_s_083.jpg,gray,within,NA,NaN,NA,left,4546.9000000059605,1,1,2614.800000011921
1tfGvBOW,32k26u12eq14p7ktnmss8y5zd9bdv8,3txmy6ucai142rgsst897pk1dzuqcu,1tfGvBOW,2020-0188,2021-10-14,09:59:11,11:30:15,NA,incomplete,true,NA,true,0,8,NA,NA,NA,left,present,NA,NA,m_s_054.jpg,white,n_s_100.jpg,white,within,NA,NaN,NA,left,2830.800000011921,1,2,2218.800000011921
1tfGvBOW,32k26u12eq14p7ktnmss8y5zd9bdv8,3txmy6ucai142rgsst897pk1dzuqcu,1tfGvBOW,2020-0188,2021-10-14,09:59:11,11:30:15,NA,incomplete,true,NA,true,0,9,NA,NA,NA,left,absent,NA,NA,n_l_045.jpg,black,m_s_046.jpg,black,within,NA,NaN,NA,left,4261,1,0,2625
1tfGvBOW,32k26u12eq14p7ktnmss8y5zd9bdv8,3txmy6ucai142rgsst897pk1dzuqcu,1tfGvBOW,2020-0188,2021-10-14,09:59:11,11:30:15,NA,incomplete,true,NA,true,0,10,NA,NA,NA,right,present,NA,NA,m_l_084.jpg,gray,n_l_064.jpg,green,between,NA,NaN,NA,left,4277.4000000059605,0,2,2134.800000011921
1tfGvBOW,32k26u12eq14p7ktnmss8y5zd9bdv8,3txmy6ucai142rgsst897pk1dzuqcu,1tfGvBOW,2020-0188,2021-10-14,09:59:11,11:30:15,NA,incomplete,false,true,NA,1,0,NA,white,n_s_006.jpg,NA,NA,pleasant,unpleasant,NA,NA,NA,NA,NA,none,0,false,NA,NA,NA,NA,NA
1tfGvBOW,32k26u12eq14p7ktnmss8y5zd9bdv8,3txmy6ucai142rgsst897pk1dzuqcu,1tfGvBOW,2020-0188,2021-10-14,09:59:11,11:30:15,NA,incomplete,false,true,NA,1,1,NA,white,n_l_053.jpg,NA,NA,pleasant,unpleasant,NA,NA,NA,NA,NA,left,2623.30000001192,true,NA,NA,NA,NA,NA
1tfGvBOW,32k26u12eq14p7ktnmss8y5zd9bdv8,3txmy6ucai142rgsst897pk1dzuqcu,1tfGvBOW,2020-0188,2021-10-14,09:59:11,11:30:15,NA,incomplete,false,true,NA,1,2,NA,white,m_l_015.jpg,NA,NA,unpleasant,pleasant,NA,NA,NA,NA,NA,right,3134.30000001192,true,NA,NA,NA,NA,NA
1tfGvBOW,32k26u12eq14p7ktnmss8y5zd9bdv8,3txmy6ucai142rgsst897pk1dzuqcu,1tfGvBOW,2020-0188,2021-10-14,09:59:11,11:30:15,NA,incomplete,false,true,NA,1,3,NA,white,n_l_074.jpg,NA,NA,unpleasant,pleasant,NA,NA,NA,NA,NA,left,3298.29999998212,true,NA,NA,NA,NA,NA
1tfGvBOW,32k26u12eq14p7ktnmss8y5zd9bdv8,3txmy6ucai142rgsst897pk1dzuqcu,1tfGvBOW,2020-0188,2021-10-14,09:59:11,11:30:15,NA,incomplete,false,true,NA,1,4,NA,white,m_l_101.jpg,NA,NA,unpleasant,pleasant,NA,NA,NA,NA,NA,left,1488,true,NA,NA,NA,NA,NA
1tfGvBOW,32k26u12eq14p7ktnmss8y5zd9bdv8,3txmy6ucai142rgsst897pk1dzuqcu,1tfGvBOW,2020-0188,2021-10-14,09:59:11,11:30:15,NA,incomplete,false,true,NA,1,5,NA,white,n_l_065.jpg,NA,NA,unpleasant,pleasant,NA,NA,NA,NA,NA,right,2371.80000001192,true,NA,NA,NA,NA,NA
1tfGvBOW,32k26u12eq14p7ktnmss8y5zd9bdv8,3txmy6ucai142rgsst897pk1dzuqcu,1tfGvBOW,2020-0188,2021-10-14,09:59:11,11:30:15,NA,incomplete,false,true,NA,1,6,NA,brown,n_l_071.jpg,NA,NA,pleasant,unpleasant,NA,NA,NA,NA,NA,left,2127.40000000596,true,NA,NA,NA,NA,NA
1tfGvBOW,32k26u12eq14p7ktnmss8y5zd9bdv8,3txmy6ucai142rgsst897pk1dzuqcu,1tfGvBOW,2020-0188,2021-10-14,09:59:11,11:30:15,NA,incomplete,false,true,NA,1,7,NA,brown,n_s_011.jpg,NA,NA,pleasant,unpleasant,NA,NA,NA,NA,NA,left,2596.5,true,NA,NA,NA,NA,NA
1tfGvBOW,32k26u12eq14p7ktnmss8y5zd9bdv8,3txmy6ucai142rgsst897pk1dzuqcu,1tfGvBOW,2020-0188,2021-10-14,09:59:11,11:30:15,NA,incomplete,false,true,NA,1,8,NA,brown,m_s_039.jpg,NA,NA,unpleasant,pleasant,NA,NA,NA,NA,NA,left,2121.69999998808,true,NA,NA,NA,NA,NA
1tfGvBOW,32k26u12eq14p7ktnmss8y5zd9bdv8,3txmy6ucai142rgsst897pk1dzuqcu,1tfGvBOW,2020-0188,2021-10-14,09:59:11,11:30:15,NA,incomplete,false,true,NA,1,9,NA,brown,n_l_057.jpg,NA,NA,unpleasant,pleasant,NA,NA,NA,NA,NA,right,2740,true,NA,NA,NA,NA,NA
1tfGvBOW,32k26u12eq14p7ktnmss8y5zd9bdv8,3txmy6ucai142rgsst897pk1dzuqcu,1tfGvBOW,2020-0188,2021-10-14,09:59:11,11:30:15,NA,incomplete,false,true,NA,1,10,NA,brown,n_l_010.jpg,NA,NA,unpleasant,pleasant,NA,NA,NA,NA,NA,left,1688.40000000596,true,NA,NA,NA,NA,NA
1tfGvBOW,32k26u12eq14p7ktnmss8y5zd9bdv8,3txmy6ucai142rgsst897pk1dzuqcu,1tfGvBOW,2020-0188,2021-10-14,09:59:11,11:30:15,NA,incomplete,false,true,NA,1,11,NA,brown,m_s_053.jpg,NA,NA,unpleasant,pleasant,NA,NA,NA,NA,NA,right,1693,true,NA,NA,NA,NA,NA
1tfGvBOW,32k26u12eq14p7ktnmss8y5zd9bdv8,3txmy6ucai142rgsst897pk1dzuqcu,1tfGvBOW,2020-0188,2021-10-14,09:59:11,11:30:15,NA,incomplete,false,true,NA,1,12,NA,orange,m_s_029.jpg,NA,NA,pleasant,unpleasant,NA,NA,NA,NA,NA,right,2514.59999999404,true,NA,NA,NA,NA,NA
1tfGvBOW,32k26u12eq14p7ktnmss8y5zd9bdv8,3txmy6ucai142rgsst897pk1dzuqcu,1tfGvBOW,2020-0188,2021-10-14,09:59:11,11:30:15,NA,incomplete,false,true,NA,1,13,NA,orange,n_l_083.jpg,NA,NA,unpleasant,pleasant,NA,NA,NA,NA,NA,left,1486.80000001192,true,NA,NA,NA,NA,NA
1tfGvBOW,32k26u12eq14p7ktnmss8y5zd9bdv8,3txmy6ucai142rgsst897pk1dzuqcu,1tfGvBOW,2020-0188,2021-10-14,09:59:11,11:30:15,NA,incomplete,false,true,NA,1,14,NA,orange,m_s_040.jpg,NA,NA,unpleasant,pleasant,NA,NA,NA,NA,NA,right,2451.20000001788,true,NA,NA,NA,NA,NA
1tfGvBOW,32k26u12eq14p7ktnmss8y5zd9bdv8,3txmy6ucai142rgsst897pk1dzuqcu,1tfGvBOW,2020-0188,2021-10-14,09:59:11,11:30:15,NA,incomplete,false,true,NA,1,15,NA,orange,m_l_034.jpg,NA,NA,pleasant,unpleasant,NA,NA,NA,NA,NA,left,1878.69999998808,true,NA,NA,NA,NA,NA
1tfGvBOW,32k26u12eq14p7ktnmss8y5zd9bdv8,3txmy6ucai142rgsst897pk1dzuqcu,1tfGvBOW,2020-0188,2021-10-14,09:59:11,11:30:15,NA,incomplete,false,true,NA,1,16,NA,orange,m_l_099.jpg,NA,NA,pleasant,unpleasant,NA,NA,NA,NA,NA,right,1682.29999998212,true,NA,NA,NA,NA,NA
1tfGvBOW,32k26u12eq14p7ktnmss8y5zd9bdv8,3txmy6ucai142rgsst897pk1dzuqcu,1tfGvBOW,2020-0188,2021-10-14,09:59:11,11:30:15,NA,incomplete,false,true,NA,1,17,NA,orange,m_s_064.jpg,NA,NA,unpleasant,pleasant,NA,NA,NA,NA,NA,left,2920,true,NA,NA,NA,NA,NA
1tfGvBOW,32k26u12eq14p7ktnmss8y5zd9bdv8,3txmy6ucai142rgsst897pk1dzuqcu,1tfGvBOW,2020-0188,2021-10-14,09:59:11,11:30:15,NA,incomplete,false,true,NA,1,18,NA,gray,n_l_008.jpg,NA,NA,pleasant,unpleasant,NA,NA,NA,NA,NA,right,2571.5,true,NA,NA,NA,NA,NA
1tfGvBOW,32k26u12eq14p7ktnmss8y5zd9bdv8,3txmy6ucai142rgsst897pk1dzuqcu,1tfGvBOW,2020-0188,2021-10-14,09:59:11,11:30:15,NA,incomplete,false,true,NA,1,19,NA,gray,n_s_092.jpg,NA,NA,unpleasant,pleasant,NA,NA,NA,NA,NA,right,2687.19999998808,true,NA,NA,NA,NA,NA
1tfGvBOW,32k26u12eq14p7ktnmss8y5zd9bdv8,3txmy6ucai142rgsst897pk1dzuqcu,1tfGvBOW,2020-0188,2021-10-14,09:59:11,11:30:15,NA,incomplete,false,true,NA,1,20,NA,gray,m_l_045.jpg,NA,NA,pleasant,unpleasant,NA,NA,NA,NA,NA,left,1794.79999998212,true,NA,NA,NA,NA,NA
1tfGvBOW,32k26u12eq14p7ktnmss8y5zd9bdv8,3txmy6ucai142rgsst897pk1dzuqcu,1tfGvBOW,2020-0188,2021-10-14,09:59:11,11:30:15,NA,incomplete,false,true,NA,1,21,NA,gray,m_l_018.jpg,NA,NA,unpleasant,pleasant,NA,NA,NA,NA,NA,right,1712.40000000596,true,NA,NA,NA,NA,NA
1tfGvBOW,32k26u12eq14p7ktnmss8y5zd9bdv8,3txmy6ucai142rgsst897pk1dzuqcu,1tfGvBOW,2020-0188,2021-10-14,09:59:11,11:30:15,NA,incomplete,false,true,NA,1,22,NA,gray,n_s_097.jpg,NA,NA,pleasant,unpleasant,NA,NA,NA,NA,NA,left,1941.5,true,NA,NA,NA,NA,NA
1tfGvBOW,32k26u12eq14p7ktnmss8y5zd9bdv8,3txmy6ucai142rgsst897pk1dzuqcu,1tfGvBOW,2020-0188,2021-10-14,09:59:11,11:30:15,NA,incomplete,false,true,NA,1,23,NA,gray,n_l_021.jpg,NA,NA,pleasant,unpleasant,NA,NA,NA,NA,NA,right,3080.59999999404,true,NA,NA,NA,NA,NA
1tfGvBOW,32k26u12eq14p7ktnmss8y5zd9bdv8,3txmy6ucai142rgsst897pk1dzuqcu,1tfGvBOW,2020-0188,2021-10-14,09:59:11,11:30:15,NA,incomplete,false,true,NA,1,24,NA,blue,m_s_018.jpg,NA,NA,pleasant,unpleasant,NA,NA,NA,NA,NA,left,1941.40000000596,true,NA,NA,NA,NA,NA
1tfGvBOW,32k26u12eq14p7ktnmss8y5zd9bdv8,3txmy6ucai142rgsst897pk1dzuqcu,1tfGvBOW,2020-0188,2021-10-14,09:59:11,11:30:15,NA,incomplete,false,true,NA,1,25,NA,blue,m_l_055.jpg,NA,NA,pleasant,unpleasant,NA,NA,NA,NA,NA,right,2632.40000000596,true,NA,NA,NA,NA,NA
1tfGvBOW,32k26u12eq14p7ktnmss8y5zd9bdv8,3txmy6ucai142rgsst897pk1dzuqcu,1tfGvBOW,2020-0188,2021-10-14,09:59:11,11:30:15,NA,incomplete,false,true,NA,1,26,NA,blue,n_s_002.jpg,NA,NA,pleasant,unpleasant,NA,NA,NA,NA,NA,left,1181.09999999404,true,NA,NA,NA,NA,NA
1tfGvBOW,32k26u12eq14p7ktnmss8y5zd9bdv8,3txmy6ucai142rgsst897pk1dzuqcu,1tfGvBOW,2020-0188,2021-10-14,09:59:11,11:30:15,NA,incomplete,false,true,NA,1,27,NA,blue,m_l_063.jpg,NA,NA,pleasant,unpleasant,NA,NA,NA,NA,NA,right,1986.90000000596,true,NA,NA,NA,NA,NA
1tfGvBOW,32k26u12eq14p7ktnmss8y5zd9bdv8,3txmy6ucai142rgsst897pk1dzuqcu,1tfGvBOW,2020-0188,2021-10-14,09:59:11,11:30:15,NA,incomplete,false,true,NA,1,28,NA,blue,m_l_091.jpg,NA,NA,pleasant,unpleasant,NA,NA,NA,NA,NA,right,3334.19999998808,true,NA,NA,NA,NA,NA
1tfGvBOW,32k26u12eq14p7ktnmss8y5zd9bdv8,3txmy6ucai142rgsst897pk1dzuqcu,1tfGvBOW,2020-0188,2021-10-14,09:59:11,11:30:15,NA,incomplete,false,true,NA,1,29,NA,blue,n_s_077.jpg,NA,NA,unpleasant,pleasant,NA,NA,NA,NA,NA,left,1762.89999997616,true,NA,NA,NA,NA,NA
1tfGvBOW,32k26u12eq14p7ktnmss8y5zd9bdv8,3txmy6ucai142rgsst897pk1dzuqcu,1tfGvBOW,2020-0188,2021-10-14,09:59:11,11:30:15,NA,incomplete,false,true,NA,1,30,NA,black,m_s_030.jpg,NA,NA,unpleasant,pleasant,NA,NA,NA,NA,NA,right,2423.29999998212,true,NA,NA,NA,NA,NA
1tfGvBOW,32k26u12eq14p7ktnmss8y5zd9bdv8,3txmy6ucai142rgsst897pk1dzuqcu,1tfGvBOW,2020-0188,2021-10-14,09:59:11,11:30:15,NA,incomplete,false,true,NA,1,31,NA,black,m_l_002.jpg,NA,NA,unpleasant,pleasant,NA,NA,NA,NA,NA,right,1948.29999998212,true,NA,NA,NA,NA,NA
1tfGvBOW,32k26u12eq14p7ktnmss8y5zd9bdv8,3txmy6ucai142rgsst897pk1dzuqcu,1tfGvBOW,2020-0188,2021-10-14,09:59:11,11:30:15,NA,incomplete,false,true,NA,1,32,NA,black,m_l_108.jpg,NA,NA,pleasant,unpleasant,NA,NA,NA,NA,NA,right,3408.5,true,NA,NA,NA,NA,NA
1tfGvBOW,32k26u12eq14p7ktnmss8y5zd9bdv8,3txmy6ucai142rgsst897pk1dzuqcu,1tfGvBOW,2020-0188,2021-10-14,09:59:11,11:30:15,NA,incomplete,false,true,NA,1,33,NA,black,m_l_114.jpg,NA,NA,unpleasant,pleasant,NA,NA,NA,NA,NA,right,2451.90000000596,true,NA,NA,NA,NA,NA
1tfGvBOW,32k26u12eq14p7ktnmss8y5zd9bdv8,3txmy6ucai142rgsst897pk1dzuqcu,1tfGvBOW,2020-0188,2021-10-14,09:59:11,11:30:15,NA,incomplete,false,true,NA,1,34,NA,black,n_l_039.jpg,NA,NA,pleasant,unpleasant,NA,NA,NA,NA,NA,left,1856.90000000596,true,NA,NA,NA,NA,NA
1tfGvBOW,32k26u12eq14p7ktnmss8y5zd9bdv8,3txmy6ucai142rgsst897pk1dzuqcu,1tfGvBOW,2020-0188,2021-10-14,09:59:11,11:30:15,NA,incomplete,false,true,NA,1,35,NA,black,n_s_109.jpg,NA,NA,pleasant,unpleasant,NA,NA,NA,NA,NA,left,2740.5,true,NA,NA,NA,NA,NA
1tfGvBOW,32k26u12eq14p7ktnmss8y5zd9bdv8,3txmy6ucai142rgsst897pk1dzuqcu,1tfGvBOW,2020-0188,2021-10-14,09:59:11,11:30:15,NA,incomplete,false,NA,true,1,0,NA,NA,NA,right,absent,NA,NA,m_s_064.jpg,orange,n_l_083.jpg,orange,within,NA,NaN,NA,right,3596.5,1,1,2990.9000000059605
1tfGvBOW,32k26u12eq14p7ktnmss8y5zd9bdv8,3txmy6ucai142rgsst897pk1dzuqcu,1tfGvBOW,2020-0188,2021-10-14,09:59:11,11:30:15,NA,incomplete,false,NA,true,1,1,NA,NA,NA,left,absent,NA,NA,m_l_101.jpg,white,m_s_039.jpg,brown,between,NA,NaN,NA,right,5997.0999999940395,0,2,4794.800000011921
1tfGvBOW,32k26u12eq14p7ktnmss8y5zd9bdv8,3txmy6ucai142rgsst897pk1dzuqcu,1tfGvBOW,2020-0188,2021-10-14,09:59:11,11:30:15,NA,incomplete,false,NA,true,1,2,NA,NA,NA,left,absent,NA,NA,m_l_091.jpg,blue,m_l_108.jpg,black,between,NA,NaN,NA,left,2871.199999988079,1,1,1817.0999999940395
1tfGvBOW,32k26u12eq14p7ktnmss8y5zd9bdv8,3txmy6ucai142rgsst897pk1dzuqcu,1tfGvBOW,2020-0188,2021-10-14,09:59:11,11:30:15,NA,incomplete,false,NA,true,1,3,NA,NA,NA,left,absent,NA,NA,n_s_011.jpg,brown,m_s_053.jpg,brown,within,NA,NaN,NA,right,3198.800000011921,0,3,2037
1tfGvBOW,32k26u12eq14p7ktnmss8y5zd9bdv8,3txmy6ucai142rgsst897pk1dzuqcu,1tfGvBOW,2020-0188,2021-10-14,09:59:11,11:30:15,NA,incomplete,false,NA,true,1,4,NA,NA,NA,left,absent,NA,NA,n_l_053.jpg,white,n_l_065.jpg,white,within,NA,NaN,NA,left,2795.2000000178814,1,2,1833.1000000238419
1tfGvBOW,32k26u12eq14p7ktnmss8y5zd9bdv8,3txmy6ucai142rgsst897pk1dzuqcu,1tfGvBOW,2020-0188,2021-10-14,09:59:11,11:30:15,NA,incomplete,false,NA,true,1,5,NA,NA,NA,right,absent,NA,NA,m_s_040.jpg,orange,n_l_010.jpg,brown,between,NA,NaN,NA,left,3929.100000023842,0,1,1440.9000000059605
1tfGvBOW,32k26u12eq14p7ktnmss8y5zd9bdv8,3txmy6ucai142rgsst897pk1dzuqcu,1tfGvBOW,2020-0188,2021-10-14,09:59:11,11:30:15,NA,incomplete,false,NA,true,1,6,NA,NA,NA,left,absent,NA,NA,m_l_055.jpg,blue,n_s_077.jpg,blue,within,NA,NaN,NA,right,4451.4000000059605,0,1,1833.2000000178814
1tfGvBOW,32k26u12eq14p7ktnmss8y5zd9bdv8,3txmy6ucai142rgsst897pk1dzuqcu,1tfGvBOW,2020-0188,2021-10-14,09:59:11,11:30:15,NA,incomplete,false,NA,true,1,7,NA,NA,NA,left,absent,NA,NA,m_l_002.jpg,black,n_s_109.jpg,black,within,NA,NaN,NA,left,4273.200000017881,1,3,2875.0999999940395
1tfGvBOW,32k26u12eq14p7ktnmss8y5zd9bdv8,3txmy6ucai142rgsst897pk1dzuqcu,1tfGvBOW,2020-0188,2021-10-14,09:59:11,11:30:15,NA,incomplete,false,NA,true,1,8,NA,NA,NA,left,absent,NA,NA,n_s_097.jpg,gray,n_s_002.jpg,blue,between,NA,NaN,NA,right,3121,0,2,2802.899999976158
1tfGvBOW,32k26u12eq14p7ktnmss8y5zd9bdv8,3txmy6ucai142rgsst897pk1dzuqcu,1tfGvBOW,2020-0188,2021-10-14,09:59:11,11:30:15,NA,incomplete,false,NA,true,1,9,NA,NA,NA,left,absent,NA,NA,n_s_092.jpg,gray,n_l_021.jpg,gray,within,NA,NaN,NA,left,6247,1,1,2234.9000000059605
1tfGvBOW,32k26u12eq14p7ktnmss8y5zd9bdv8,3txmy6ucai142rgsst897pk1dzuqcu,1tfGvBOW,2020-0188,2021-10-14,09:59:11,11:30:15,NA,incomplete,false,NA,true,1,10,NA,NA,NA,left,absent,NA,NA,m_l_099.jpg,orange,m_l_045.jpg,gray,between,NA,NaN,NA,right,4559,0,2,1379
1tfGvBOW,32k26u12eq14p7ktnmss8y5zd9bdv8,3txmy6ucai142rgsst897pk1dzuqcu,1tfGvBOW,2020-0188,2021-10-14,09:59:11,11:30:15,NA,incomplete,false,true,NA,2,0,NA,red,n_l_072.jpg,NA,NA,pleasant,unpleasant,NA,NA,NA,NA,NA,left,2631.09999999404,true,NA,NA,NA,NA,NA
1tfGvBOW,32k26u12eq14p7ktnmss8y5zd9bdv8,3txmy6ucai142rgsst897pk1dzuqcu,1tfGvBOW,2020-0188,2021-10-14,09:59:11,11:30:15,NA,incomplete,false,true,NA,2,1,NA,red,n_s_051.jpg,NA,NA,unpleasant,pleasant,NA,NA,NA,NA,NA,left,1851.29999998212,true,NA,NA,NA,NA,NA
1tfGvBOW,32k26u12eq14p7ktnmss8y5zd9bdv8,3txmy6ucai142rgsst897pk1dzuqcu,1tfGvBOW,2020-0188,2021-10-14,09:59:11,11:30:15,NA,incomplete,false,true,NA,2,2,NA,red,m_l_062.jpg,NA,NA,pleasant,unpleasant,NA,NA,NA,NA,NA,right,1832,true,NA,NA,NA,NA,NA
1tfGvBOW,32k26u12eq14p7ktnmss8y5zd9bdv8,3txmy6ucai142rgsst897pk1dzuqcu,1tfGvBOW,2020-0188,2021-10-14,09:59:11,11:30:15,NA,incomplete,false,true,NA,2,3,NA,red,m_s_109.jpg,NA,NA,pleasant,unpleasant,NA,NA,NA,NA,NA,right,1363.40000000596,true,NA,NA,NA,NA,NA
1tfGvBOW,32k26u12eq14p7ktnmss8y5zd9bdv8,3txmy6ucai142rgsst897pk1dzuqcu,1tfGvBOW,2020-0188,2021-10-14,09:59:11,11:30:15,NA,incomplete,false,true,NA,2,4,NA,red,n_l_066.jpg,NA,NA,unpleasant,pleasant,NA,NA,NA,NA,NA,left,2041.09999999404,true,NA,NA,NA,NA,NA
1tfGvBOW,32k26u12eq14p7ktnmss8y5zd9bdv8,3txmy6ucai142rgsst897pk1dzuqcu,1tfGvBOW,2020-0188,2021-10-14,09:59:11,11:30:15,NA,incomplete,false,true,NA,2,5,NA,red,n_s_056.jpg,NA,NA,unpleasant,pleasant,NA,NA,NA,NA,NA,left,1109.5,true,NA,NA,NA,NA,NA
1tfGvBOW,32k26u12eq14p7ktnmss8y5zd9bdv8,3txmy6ucai142rgsst897pk1dzuqcu,1tfGvBOW,2020-0188,2021-10-14,09:59:11,11:30:15,NA,incomplete,false,true,NA,2,6,NA,purple,n_s_117.jpg,NA,NA,pleasant,unpleasant,NA,NA,NA,NA,NA,right,1714.69999998808,true,NA,NA,NA,NA,NA
1tfGvBOW,32k26u12eq14p7ktnmss8y5zd9bdv8,3txmy6ucai142rgsst897pk1dzuqcu,1tfGvBOW,2020-0188,2021-10-14,09:59:11,11:30:15,NA,incomplete,false,true,NA,2,7,NA,purple,n_l_062.jpg,NA,NA,pleasant,unpleasant,NA,NA,NA,NA,NA,right,1246.30000001192,true,NA,NA,NA,NA,NA
1tfGvBOW,32k26u12eq14p7ktnmss8y5zd9bdv8,3txmy6ucai142rgsst897pk1dzuqcu,1tfGvBOW,2020-0188,2021-10-14,09:59:11,11:30:15,NA,incomplete,false,true,NA,2,8,NA,purple,m_s_049.jpg,NA,NA,unpleasant,pleasant,NA,NA,NA,NA,NA,left,1851.5,true,NA,NA,NA,NA,NA
1tfGvBOW,32k26u12eq14p7ktnmss8y5zd9bdv8,3txmy6ucai142rgsst897pk1dzuqcu,1tfGvBOW,2020-0188,2021-10-14,09:59:11,11:30:15,NA,incomplete,false,true,NA,2,9,NA,purple,n_s_001.jpg,NA,NA,pleasant,unpleasant,NA,NA,NA,NA,NA,right,1911.69999998808,true,NA,NA,NA,NA,NA
1tfGvBOW,32k26u12eq14p7ktnmss8y5zd9bdv8,3txmy6ucai142rgsst897pk1dzuqcu,1tfGvBOW,2020-0188,2021-10-14,09:59:11,11:30:15,NA,incomplete,false,true,NA,2,10,NA,purple,n_s_027.jpg,NA,NA,unpleasant,pleasant,NA,NA,NA,NA,NA,left,1708.20000001788,true,NA,NA,NA,NA,NA
1tfGvBOW,32k26u12eq14p7ktnmss8y5zd9bdv8,3txmy6ucai142rgsst897pk1dzuqcu,1tfGvBOW,2020-0188,2021-10-14,09:59:11,11:30:15,NA,incomplete,false,true,NA,2,11,NA,purple,n_s_085.jpg,NA,NA,unpleasant,pleasant,NA,NA,NA,NA,NA,left,2424.59999999404,true,NA,NA,NA,NA,NA
1tfGvBOW,32k26u12eq14p7ktnmss8y5zd9bdv8,3txmy6ucai142rgsst897pk1dzuqcu,1tfGvBOW,2020-0188,2021-10-14,09:59:11,11:30:15,NA,incomplete,false,true,NA,2,12,NA,brown,m_l_090.jpg,NA,NA,pleasant,unpleasant,NA,NA,NA,NA,NA,left,2076.79999998212,true,NA,NA,NA,NA,NA
1tfGvBOW,32k26u12eq14p7ktnmss8y5zd9bdv8,3txmy6ucai142rgsst897pk1dzuqcu,1tfGvBOW,2020-0188,2021-10-14,09:59:11,11:30:15,NA,incomplete,false,true,NA,2,13,NA,brown,n_l_107.jpg,NA,NA,unpleasant,pleasant,NA,NA,NA,NA,NA,right,2024.69999998808,true,NA,NA,NA,NA,NA
1tfGvBOW,32k26u12eq14p7ktnmss8y5zd9bdv8,3txmy6ucai142rgsst897pk1dzuqcu,1tfGvBOW,2020-0188,2021-10-14,09:59:11,11:30:15,NA,incomplete,false,true,NA,2,14,NA,brown,n_s_089.jpg,NA,NA,pleasant,unpleasant,NA,NA,NA,NA,NA,left,2364.80000001192,true,NA,NA,NA,NA,NA
1tfGvBOW,32k26u12eq14p7ktnmss8y5zd9bdv8,3txmy6ucai142rgsst897pk1dzuqcu,1tfGvBOW,2020-0188,2021-10-14,09:59:11,11:30:15,NA,incomplete,false,true,NA,2,15,NA,brown,m_s_086.jpg,NA,NA,unpleasant,pleasant,NA,NA,NA,NA,NA,right,1928.79999998212,true,NA,NA,NA,NA,NA
1tfGvBOW,32k26u12eq14p7ktnmss8y5zd9bdv8,3txmy6ucai142rgsst897pk1dzuqcu,1tfGvBOW,2020-0188,2021-10-14,09:59:11,11:30:15,NA,incomplete,false,true,NA,2,16,NA,brown,n_s_101.jpg,NA,NA,pleasant,unpleasant,NA,NA,NA,NA,NA,right,2357.90000000596,true,NA,NA,NA,NA,NA
1tfGvBOW,32k26u12eq14p7ktnmss8y5zd9bdv8,3txmy6ucai142rgsst897pk1dzuqcu,1tfGvBOW,2020-0188,2021-10-14,09:59:11,11:30:15,NA,incomplete,false,true,NA,2,17,NA,brown,n_s_045.jpg,NA,NA,unpleasant,pleasant,NA,NA,NA,NA,NA,left,2986.30000001192,true,NA,NA,NA,NA,NA
1tfGvBOW,32k26u12eq14p7ktnmss8y5zd9bdv8,3txmy6ucai142rgsst897pk1dzuqcu,1tfGvBOW,2020-0188,2021-10-14,09:59:11,11:30:15,NA,incomplete,false,true,NA,2,18,NA,white,m_s_058.jpg,NA,NA,pleasant,unpleasant,NA,NA,NA,NA,NA,left,3102.19999998808,true,NA,NA,NA,NA,NA
1tfGvBOW,32k26u12eq14p7ktnmss8y5zd9bdv8,3txmy6ucai142rgsst897pk1dzuqcu,1tfGvBOW,2020-0188,2021-10-14,09:59:11,11:30:15,NA,incomplete,false,true,NA,2,19,NA,white,m_s_063.jpg,NA,NA,unpleasant,pleasant,NA,NA,NA,NA,NA,left,1738.59999999404,true,NA,NA,NA,NA,NA
1tfGvBOW,32k26u12eq14p7ktnmss8y5zd9bdv8,3txmy6ucai142rgsst897pk1dzuqcu,1tfGvBOW,2020-0188,2021-10-14,09:59:11,11:30:15,NA,incomplete,false,true,NA,2,20,NA,white,m_l_081.jpg,NA,NA,unpleasant,pleasant,NA,NA,NA,NA,NA,left,2765.90000000596,true,NA,NA,NA,NA,NA
1tfGvBOW,32k26u12eq14p7ktnmss8y5zd9bdv8,3txmy6ucai142rgsst897pk1dzuqcu,1tfGvBOW,2020-0188,2021-10-14,09:59:11,11:30:15,NA,incomplete,false,true,NA,2,21,NA,white,n_l_113.jpg,NA,NA,pleasant,unpleasant,NA,NA,NA,NA,NA,right,1746.59999999404,true,NA,NA,NA,NA,NA
1tfGvBOW,32k26u12eq14p7ktnmss8y5zd9bdv8,3txmy6ucai142rgsst897pk1dzuqcu,1tfGvBOW,2020-0188,2021-10-14,09:59:11,11:30:15,NA,incomplete,false,true,NA,2,22,NA,white,n_s_026.jpg,NA,NA,unpleasant,pleasant,NA,NA,NA,NA,NA,left,1375.60000002384,true,NA,NA,NA,NA,NA
1tfGvBOW,32k26u12eq14p7ktnmss8y5zd9bdv8,3txmy6ucai142rgsst897pk1dzuqcu,1tfGvBOW,2020-0188,2021-10-14,09:59:11,11:30:15,NA,incomplete,false,true,NA,2,23,NA,white,m_l_011.jpg,NA,NA,pleasant,unpleasant,NA,NA,NA,NA,NA,right,2596,true,NA,NA,NA,NA,NA
1tfGvBOW,32k26u12eq14p7ktnmss8y5zd9bdv8,3txmy6ucai142rgsst897pk1dzuqcu,1tfGvBOW,2020-0188,2021-10-14,09:59:11,11:30:15,NA,incomplete,false,true,NA,2,24,NA,black,n_s_094.jpg,NA,NA,unpleasant,pleasant,NA,NA,NA,NA,NA,right,3248.69999998808,true,NA,NA,NA,NA,NA
1tfGvBOW,32k26u12eq14p7ktnmss8y5zd9bdv8,3txmy6ucai142rgsst897pk1dzuqcu,1tfGvBOW,2020-0188,2021-10-14,09:59:11,11:30:15,NA,incomplete,false,true,NA,2,25,NA,black,n_l_028.jpg,NA,NA,pleasant,unpleasant,NA,NA,NA,NA,NA,right,2372.69999998808,true,NA,NA,NA,NA,NA
1tfGvBOW,32k26u12eq14p7ktnmss8y5zd9bdv8,3txmy6ucai142rgsst897pk1dzuqcu,1tfGvBOW,2020-0188,2021-10-14,09:59:11,11:30:15,NA,incomplete,false,true,NA,2,26,NA,black,m_s_107.jpg,NA,NA,unpleasant,pleasant,NA,NA,NA,NA,NA,right,2665.90000000596,true,NA,NA,NA,NA,NA
1tfGvBOW,32k26u12eq14p7ktnmss8y5zd9bdv8,3txmy6ucai142rgsst897pk1dzuqcu,1tfGvBOW,2020-0188,2021-10-14,09:59:11,11:30:15,NA,incomplete,false,true,NA,2,27,NA,black,n_l_117.jpg,NA,NA,pleasant,unpleasant,NA,NA,NA,NA,NA,right,2101.70000001788,true,NA,NA,NA,NA,NA
1tfGvBOW,32k26u12eq14p7ktnmss8y5zd9bdv8,3txmy6ucai142rgsst897pk1dzuqcu,1tfGvBOW,2020-0188,2021-10-14,09:59:11,11:30:15,NA,incomplete,false,true,NA,2,28,NA,black,n_s_091.jpg,NA,NA,unpleasant,pleasant,NA,NA,NA,NA,NA,left,1705.59999999404,true,NA,NA,NA,NA,NA
1tfGvBOW,32k26u12eq14p7ktnmss8y5zd9bdv8,3txmy6ucai142rgsst897pk1dzuqcu,1tfGvBOW,2020-0188,2021-10-14,09:59:11,11:30:15,NA,incomplete,false,true,NA,2,29,NA,black,n_s_035.jpg,NA,NA,pleasant,unpleasant,NA,NA,NA,NA,NA,right,1342.20000001788,true,NA,NA,NA,NA,NA
1tfGvBOW,32k26u12eq14p7ktnmss8y5zd9bdv8,3txmy6ucai142rgsst897pk1dzuqcu,1tfGvBOW,2020-0188,2021-10-14,09:59:11,11:30:15,NA,incomplete,false,true,NA,2,30,NA,gray,m_s_067.jpg,NA,NA,unpleasant,pleasant,NA,NA,NA,NA,NA,right,2563.90000000596,true,NA,NA,NA,NA,NA
1tfGvBOW,32k26u12eq14p7ktnmss8y5zd9bdv8,3txmy6ucai142rgsst897pk1dzuqcu,1tfGvBOW,2020-0188,2021-10-14,09:59:11,11:30:15,NA,incomplete,false,true,NA,2,31,NA,gray,n_s_028.jpg,NA,NA,pleasant,unpleasant,NA,NA,NA,NA,NA,right,2688,true,NA,NA,NA,NA,NA
1tfGvBOW,32k26u12eq14p7ktnmss8y5zd9bdv8,3txmy6ucai142rgsst897pk1dzuqcu,1tfGvBOW,2020-0188,2021-10-14,09:59:11,11:30:15,NA,incomplete,false,true,NA,2,32,NA,gray,m_s_090.jpg,NA,NA,unpleasant,pleasant,NA,NA,NA,NA,NA,left,2907.5,true,NA,NA,NA,NA,NA
1tfGvBOW,32k26u12eq14p7ktnmss8y5zd9bdv8,3txmy6ucai142rgsst897pk1dzuqcu,1tfGvBOW,2020-0188,2021-10-14,09:59:11,11:30:15,NA,incomplete,false,true,NA,2,33,NA,gray,m_l_117.jpg,NA,NA,pleasant,unpleasant,NA,NA,NA,NA,NA,right,2743.30000001192,true,NA,NA,NA,NA,NA
1tfGvBOW,32k26u12eq14p7ktnmss8y5zd9bdv8,3txmy6ucai142rgsst897pk1dzuqcu,1tfGvBOW,2020-0188,2021-10-14,09:59:11,11:30:15,NA,incomplete,false,true,NA,2,34,NA,gray,m_s_089.jpg,NA,NA,pleasant,unpleasant,NA,NA,NA,NA,NA,right,2835.79999998212,true,NA,NA,NA,NA,NA
1tfGvBOW,32k26u12eq14p7ktnmss8y5zd9bdv8,3txmy6ucai142rgsst897pk1dzuqcu,1tfGvBOW,2020-0188,2021-10-14,09:59:11,11:30:15,NA,incomplete,false,true,NA,2,35,NA,gray,m_l_105.jpg,NA,NA,pleasant,unpleasant,NA,NA,NA,NA,NA,left,1823.29999998212,true,NA,NA,NA,NA,NA
1tfGvBOW,32k26u12eq14p7ktnmss8y5zd9bdv8,3txmy6ucai142rgsst897pk1dzuqcu,1tfGvBOW,2020-0188,2021-10-14,09:59:11,11:30:15,NA,incomplete,false,NA,true,2,0,NA,NA,NA,right,present,NA,NA,m_l_105.jpg,gray,n_s_028.jpg,gray,within,NA,NaN,NA,right,4236.5999999940395,1,1,3098.699999988079
1tfGvBOW,32k26u12eq14p7ktnmss8y5zd9bdv8,3txmy6ucai142rgsst897pk1dzuqcu,1tfGvBOW,2020-0188,2021-10-14,09:59:11,11:30:15,NA,incomplete,false,NA,true,2,1,NA,NA,NA,left,present,NA,NA,n_s_027.jpg,purple,n_s_089.jpg,brown,between,NA,NaN,NA,right,2911.199999988079,0,2,2858.9000000059605
1tfGvBOW,32k26u12eq14p7ktnmss8y5zd9bdv8,3txmy6ucai142rgsst897pk1dzuqcu,1tfGvBOW,2020-0188,2021-10-14,09:59:11,11:30:15,NA,incomplete,false,NA,true,2,2,NA,NA,NA,right,present,NA,NA,m_l_081.jpg,white,n_s_101.jpg,brown,between,NA,NaN,NA,left,2916.9000000059605,0,2,2187
1tfGvBOW,32k26u12eq14p7ktnmss8y5zd9bdv8,3txmy6ucai142rgsst897pk1dzuqcu,1tfGvBOW,2020-0188,2021-10-14,09:59:11,11:30:15,NA,incomplete,false,NA,true,2,3,NA,NA,NA,right,present,NA,NA,m_s_049.jpg,purple,n_l_066.jpg,red,between,NA,NaN,NA,left,2851,0,1,1509.0999999940395
1tfGvBOW,32k26u12eq14p7ktnmss8y5zd9bdv8,3txmy6ucai142rgsst897pk1dzuqcu,1tfGvBOW,2020-0188,2021-10-14,09:59:11,11:30:15,NA,incomplete,false,NA,true,2,4,NA,NA,NA,left,present,NA,NA,n_l_028.jpg,black,n_s_035.jpg,black,within,NA,NaN,NA,right,6773,0,2,1760.7999999821186
1tfGvBOW,32k26u12eq14p7ktnmss8y5zd9bdv8,3txmy6ucai142rgsst897pk1dzuqcu,1tfGvBOW,2020-0188,2021-10-14,09:59:11,11:30:15,NA,incomplete,false,NA,true,2,5,NA,NA,NA,left,present,NA,NA,n_s_026.jpg,white,m_s_107.jpg,black,between,NA,NaN,NA,left,7062.699999988079,1,3,1162.7000000178814
1tfGvBOW,32k26u12eq14p7ktnmss8y5zd9bdv8,3txmy6ucai142rgsst897pk1dzuqcu,1tfGvBOW,2020-0188,2021-10-14,09:59:11,11:30:15,NA,incomplete,false,NA,true,2,6,NA,NA,NA,right,present,NA,NA,n_s_056.jpg,red,n_s_051.jpg,red,within,NA,NaN,NA,right,7300.600000023842,1,0,1925.199999988079
1tfGvBOW,32k26u12eq14p7ktnmss8y5zd9bdv8,3txmy6ucai142rgsst897pk1dzuqcu,1tfGvBOW,2020-0188,2021-10-14,09:59:11,11:30:15,NA,incomplete,false,NA,true,2,7,NA,NA,NA,left,present,NA,NA,n_l_062.jpg,purple,n_s_085.jpg,purple,within,NA,NaN,NA,left,5298.9000000059605,1,1,1555
1tfGvBOW,32k26u12eq14p7ktnmss8y5zd9bdv8,3txmy6ucai142rgsst897pk1dzuqcu,1tfGvBOW,2020-0188,2021-10-14,09:59:11,11:30:15,NA,incomplete,false,NA,true,2,8,NA,NA,NA,right,present,NA,NA,n_s_045.jpg,brown,n_l_107.jpg,brown,within,NA,NaN,NA,left,4155.0999999940395,0,1,1807
1tfGvBOW,32k26u12eq14p7ktnmss8y5zd9bdv8,3txmy6ucai142rgsst897pk1dzuqcu,1tfGvBOW,2020-0188,2021-10-14,09:59:11,11:30:15,NA,incomplete,false,NA,true,2,9,NA,NA,NA,left,present,NA,NA,n_s_091.jpg,black,m_s_090.jpg,gray,between,NA,NaN,NA,left,4836.800000011921,1,2,1539.0999999940395
1tfGvBOW,32k26u12eq14p7ktnmss8y5zd9bdv8,3txmy6ucai142rgsst897pk1dzuqcu,1tfGvBOW,2020-0188,2021-10-14,09:59:11,11:30:15,NA,incomplete,false,NA,true,2,10,NA,NA,NA,left,present,NA,NA,m_s_063.jpg,white,m_l_011.jpg,white,within,NA,NaN,NA,left,5348.700000017881,1,1,2135.199999988079
1tfGvBOW,32k26u12eq14p7ktnmss8y5zd9bdv8,3txmy6ucai142rgsst897pk1dzuqcu,1tfGvBOW,2020-0188,2021-10-14,09:59:11,11:30:15,NA,incomplete,false,true,NA,3,0,NA,green,n_l_080.jpg,NA,NA,pleasant,unpleasant,NA,NA,NA,NA,NA,left,2207.30000001192,true,NA,NA,NA,NA,NA
1tfGvBOW,32k26u12eq14p7ktnmss8y5zd9bdv8,3txmy6ucai142rgsst897pk1dzuqcu,1tfGvBOW,2020-0188,2021-10-14,09:59:11,11:30:15,NA,incomplete,false,true,NA,3,1,NA,green,n_s_065.jpg,NA,NA,unpleasant,pleasant,NA,NA,NA,NA,NA,right,3234.90000000596,true,NA,NA,NA,NA,NA
1tfGvBOW,32k26u12eq14p7ktnmss8y5zd9bdv8,3txmy6ucai142rgsst897pk1dzuqcu,1tfGvBOW,2020-0188,2021-10-14,09:59:11,11:30:15,NA,incomplete,false,true,NA,3,2,NA,green,m_l_113.jpg,NA,NA,pleasant,unpleasant,NA,NA,NA,NA,NA,left,1903.90000000596,true,NA,NA,NA,NA,NA
1tfGvBOW,32k26u12eq14p7ktnmss8y5zd9bdv8,3txmy6ucai142rgsst897pk1dzuqcu,1tfGvBOW,2020-0188,2021-10-14,09:59:11,11:30:15,NA,incomplete,false,true,NA,3,3,NA,green,n_s_078.jpg,NA,NA,pleasant,unpleasant,NA,NA,NA,NA,NA,right,1956.40000000596,true,NA,NA,NA,NA,NA
1tfGvBOW,32k26u12eq14p7ktnmss8y5zd9bdv8,3txmy6ucai142rgsst897pk1dzuqcu,1tfGvBOW,2020-0188,2021-10-14,09:59:11,11:30:15,NA,incomplete,false,true,NA,3,4,NA,green,n_s_048.jpg,NA,NA,pleasant,unpleasant,NA,NA,NA,NA,NA,left,2670.89999997616,true,NA,NA,NA,NA,NA
1tfGvBOW,32k26u12eq14p7ktnmss8y5zd9bdv8,3txmy6ucai142rgsst897pk1dzuqcu,1tfGvBOW,2020-0188,2021-10-14,09:59:11,11:30:15,NA,incomplete,false,true,NA,3,5,NA,green,m_l_010.jpg,NA,NA,pleasant,unpleasant,NA,NA,NA,NA,NA,left,2419.69999998808,true,NA,NA,NA,NA,NA
1tfGvBOW,32k26u12eq14p7ktnmss8y5zd9bdv8,3txmy6ucai142rgsst897pk1dzuqcu,1tfGvBOW,2020-0188,2021-10-14,09:59:11,11:30:15,NA,incomplete,false,true,NA,3,6,NA,purple,m_l_024.jpg,NA,NA,unpleasant,pleasant,NA,NA,NA,NA,NA,left,2760.09999999404,true,NA,NA,NA,NA,NA
1tfGvBOW,32k26u12eq14p7ktnmss8y5zd9bdv8,3txmy6ucai142rgsst897pk1dzuqcu,1tfGvBOW,2020-0188,2021-10-14,09:59:11,11:30:15,NA,incomplete,false,true,NA,3,7,NA,purple,n_s_058.jpg,NA,NA,pleasant,unpleasant,NA,NA,NA,NA,NA,left,2274.80000001192,true,NA,NA,NA,NA,NA
1tfGvBOW,32k26u12eq14p7ktnmss8y5zd9bdv8,3txmy6ucai142rgsst897pk1dzuqcu,1tfGvBOW,2020-0188,2021-10-14,09:59:11,11:30:15,NA,incomplete,false,true,NA,3,8,NA,purple,n_s_090.jpg,NA,NA,unpleasant,pleasant,NA,NA,NA,NA,NA,right,2951.59999999404,true,NA,NA,NA,NA,NA
1tfGvBOW,32k26u12eq14p7ktnmss8y5zd9bdv8,3txmy6ucai142rgsst897pk1dzuqcu,1tfGvBOW,2020-0188,2021-10-14,09:59:11,11:30:15,NA,incomplete,false,true,NA,3,9,NA,purple,n_s_021.jpg,NA,NA,pleasant,unpleasant,NA,NA,NA,NA,NA,right,1674.79999998212,true,NA,NA,NA,NA,NA
1tfGvBOW,32k26u12eq14p7ktnmss8y5zd9bdv8,3txmy6ucai142rgsst897pk1dzuqcu,1tfGvBOW,2020-0188,2021-10-14,09:59:11,11:30:15,NA,incomplete,false,true,NA,3,10,NA,purple,m_s_075.jpg,NA,NA,unpleasant,pleasant,NA,NA,NA,NA,NA,right,3295.5,true,NA,NA,NA,NA,NA
1tfGvBOW,32k26u12eq14p7ktnmss8y5zd9bdv8,3txmy6ucai142rgsst897pk1dzuqcu,1tfGvBOW,2020-0188,2021-10-14,09:59:11,11:30:15,NA,incomplete,false,true,NA,3,11,NA,purple,n_l_013.jpg,NA,NA,unpleasant,pleasant,NA,NA,NA,NA,NA,left,1228.29999998212,true,NA,NA,NA,NA,NA
1tfGvBOW,32k26u12eq14p7ktnmss8y5zd9bdv8,3txmy6ucai142rgsst897pk1dzuqcu,1tfGvBOW,2020-0188,2021-10-14,09:59:11,11:30:15,NA,incomplete,false,true,NA,3,12,NA,orange,m_s_045.jpg,NA,NA,pleasant,unpleasant,NA,NA,NA,NA,NA,left,3280.09999999404,true,NA,NA,NA,NA,NA
1tfGvBOW,32k26u12eq14p7ktnmss8y5zd9bdv8,3txmy6ucai142rgsst897pk1dzuqcu,1tfGvBOW,2020-0188,2021-10-14,09:59:11,11:30:15,NA,incomplete,false,true,NA,3,13,NA,orange,n_l_033.jpg,NA,NA,pleasant,unpleasant,NA,NA,NA,NA,NA,right,1180.89999997616,true,NA,NA,NA,NA,NA
1tfGvBOW,32k26u12eq14p7ktnmss8y5zd9bdv8,3txmy6ucai142rgsst897pk1dzuqcu,1tfGvBOW,2020-0188,2021-10-14,09:59:11,11:30:15,NA,incomplete,false,true,NA,3,14,NA,orange,n_l_095.jpg,NA,NA,pleasant,unpleasant,NA,NA,NA,NA,NA,right,2138.90000000596,true,NA,NA,NA,NA,NA
1tfGvBOW,32k26u12eq14p7ktnmss8y5zd9bdv8,3txmy6ucai142rgsst897pk1dzuqcu,1tfGvBOW,2020-0188,2021-10-14,09:59:11,11:30:15,NA,incomplete,false,true,NA,3,15,NA,orange,m_l_047.jpg,NA,NA,pleasant,unpleasant,NA,NA,NA,NA,NA,right,2351.40000000596,true,NA,NA,NA,NA,NA
1tfGvBOW,32k26u12eq14p7ktnmss8y5zd9bdv8,3txmy6ucai142rgsst897pk1dzuqcu,1tfGvBOW,2020-0188,2021-10-14,09:59:11,11:30:15,NA,incomplete,false,true,NA,3,16,NA,orange,n_l_078.jpg,NA,NA,pleasant,unpleasant,NA,NA,NA,NA,NA,right,1609.59999999404,true,NA,NA,NA,NA,NA
1tfGvBOW,32k26u12eq14p7ktnmss8y5zd9bdv8,3txmy6ucai142rgsst897pk1dzuqcu,1tfGvBOW,2020-0188,2021-10-14,09:59:11,11:30:15,NA,incomplete,false,true,NA,3,17,NA,orange,m_s_012.jpg,NA,NA,unpleasant,pleasant,NA,NA,NA,NA,NA,left,2679.30000001192,true,NA,NA,NA,NA,NA
1tfGvBOW,32k26u12eq14p7ktnmss8y5zd9bdv8,3txmy6ucai142rgsst897pk1dzuqcu,1tfGvBOW,2020-0188,2021-10-14,09:59:11,11:30:15,NA,incomplete,false,true,NA,3,18,NA,gray,n_l_112.jpg,NA,NA,pleasant,unpleasant,NA,NA,NA,NA,NA,none,0,false,NA,NA,NA,NA,NA
1tfGvBOW,32k26u12eq14p7ktnmss8y5zd9bdv8,3txmy6ucai142rgsst897pk1dzuqcu,1tfGvBOW,2020-0188,2021-10-14,09:59:11,11:30:15,NA,incomplete,false,true,NA,3,19,NA,gray,n_s_009.jpg,NA,NA,unpleasant,pleasant,NA,NA,NA,NA,NA,left,1992.09999999404,true,NA,NA,NA,NA,NA
1tfGvBOW,32k26u12eq14p7ktnmss8y5zd9bdv8,3txmy6ucai142rgsst897pk1dzuqcu,1tfGvBOW,2020-0188,2021-10-14,09:59:11,11:30:15,NA,incomplete,false,true,NA,3,20,NA,gray,m_s_003.jpg,NA,NA,pleasant,unpleasant,NA,NA,NA,NA,NA,left,3005.40000000596,true,NA,NA,NA,NA,NA
1tfGvBOW,32k26u12eq14p7ktnmss8y5zd9bdv8,3txmy6ucai142rgsst897pk1dzuqcu,1tfGvBOW,2020-0188,2021-10-14,09:59:11,11:30:15,NA,incomplete,false,true,NA,3,21,NA,gray,m_l_086.jpg,NA,NA,pleasant,unpleasant,NA,NA,NA,NA,NA,left,1737.29999998212,true,NA,NA,NA,NA,NA
1tfGvBOW,32k26u12eq14p7ktnmss8y5zd9bdv8,3txmy6ucai142rgsst897pk1dzuqcu,1tfGvBOW,2020-0188,2021-10-14,09:59:11,11:30:15,NA,incomplete,false,true,NA,3,22,NA,gray,m_s_088.jpg,NA,NA,pleasant,unpleasant,NA,NA,NA,NA,NA,left,2644.40000000596,true,NA,NA,NA,NA,NA
1tfGvBOW,32k26u12eq14p7ktnmss8y5zd9bdv8,3txmy6ucai142rgsst897pk1dzuqcu,1tfGvBOW,2020-0188,2021-10-14,09:59:11,11:30:15,NA,incomplete,false,true,NA,3,23,NA,gray,n_l_109.jpg,NA,NA,unpleasant,pleasant,NA,NA,NA,NA,NA,left,1593.40000000596,true,NA,NA,NA,NA,NA
1tfGvBOW,32k26u12eq14p7ktnmss8y5zd9bdv8,3txmy6ucai142rgsst897pk1dzuqcu,1tfGvBOW,2020-0188,2021-10-14,09:59:11,11:30:15,NA,incomplete,false,true,NA,3,24,NA,yellow,n_l_061.jpg,NA,NA,pleasant,unpleasant,NA,NA,NA,NA,NA,right,2862.5,true,NA,NA,NA,NA,NA
1tfGvBOW,32k26u12eq14p7ktnmss8y5zd9bdv8,3txmy6ucai142rgsst897pk1dzuqcu,1tfGvBOW,2020-0188,2021-10-14,09:59:11,11:30:15,NA,incomplete,false,true,NA,3,25,NA,yellow,n_l_102.jpg,NA,NA,unpleasant,pleasant,NA,NA,NA,NA,NA,left,1602.69999998808,true,NA,NA,NA,NA,NA
1tfGvBOW,32k26u12eq14p7ktnmss8y5zd9bdv8,3txmy6ucai142rgsst897pk1dzuqcu,1tfGvBOW,2020-0188,2021-10-14,09:59:11,11:30:15,NA,incomplete,false,true,NA,3,26,NA,yellow,m_l_009.jpg,NA,NA,pleasant,unpleasant,NA,NA,NA,NA,NA,right,1502,true,NA,NA,NA,NA,NA
1tfGvBOW,32k26u12eq14p7ktnmss8y5zd9bdv8,3txmy6ucai142rgsst897pk1dzuqcu,1tfGvBOW,2020-0188,2021-10-14,09:59:11,11:30:15,NA,incomplete,false,true,NA,3,27,NA,yellow,m_l_036.jpg,NA,NA,pleasant,unpleasant,NA,NA,NA,NA,NA,right,3234.5,true,NA,NA,NA,NA,NA
1tfGvBOW,32k26u12eq14p7ktnmss8y5zd9bdv8,3txmy6ucai142rgsst897pk1dzuqcu,1tfGvBOW,2020-0188,2021-10-14,09:59:11,11:30:15,NA,incomplete,false,true,NA,3,28,NA,yellow,n_s_055.jpg,NA,NA,pleasant,unpleasant,NA,NA,NA,NA,NA,right,1702.10000002384,true,NA,NA,NA,NA,NA
1tfGvBOW,32k26u12eq14p7ktnmss8y5zd9bdv8,3txmy6ucai142rgsst897pk1dzuqcu,1tfGvBOW,2020-0188,2021-10-14,09:59:11,11:30:15,NA,incomplete,false,true,NA,3,29,NA,yellow,n_l_104.jpg,NA,NA,unpleasant,pleasant,NA,NA,NA,NA,NA,left,1994.19999998808,true,NA,NA,NA,NA,NA
1tfGvBOW,32k26u12eq14p7ktnmss8y5zd9bdv8,3txmy6ucai142rgsst897pk1dzuqcu,1tfGvBOW,2020-0188,2021-10-14,09:59:11,11:30:15,NA,incomplete,false,true,NA,3,30,NA,red,n_s_102.jpg,NA,NA,unpleasant,pleasant,NA,NA,NA,NA,NA,left,3287.09999999404,true,NA,NA,NA,NA,NA
1tfGvBOW,32k26u12eq14p7ktnmss8y5zd9bdv8,3txmy6ucai142rgsst897pk1dzuqcu,1tfGvBOW,2020-0188,2021-10-14,09:59:11,11:30:15,NA,incomplete,false,true,NA,3,31,NA,red,n_s_050.jpg,NA,NA,unpleasant,pleasant,NA,NA,NA,NA,NA,right,2531.70000001788,true,NA,NA,NA,NA,NA
1tfGvBOW,32k26u12eq14p7ktnmss8y5zd9bdv8,3txmy6ucai142rgsst897pk1dzuqcu,1tfGvBOW,2020-0188,2021-10-14,09:59:11,11:30:15,NA,incomplete,false,true,NA,3,32,NA,red,m_s_038.jpg,NA,NA,unpleasant,pleasant,NA,NA,NA,NA,NA,right,1615.39999997616,true,NA,NA,NA,NA,NA
1tfGvBOW,32k26u12eq14p7ktnmss8y5zd9bdv8,3txmy6ucai142rgsst897pk1dzuqcu,1tfGvBOW,2020-0188,2021-10-14,09:59:11,11:30:15,NA,incomplete,false,true,NA,3,33,NA,red,m_s_078.jpg,NA,NA,pleasant,unpleasant,NA,NA,NA,NA,NA,right,2236.70000001788,true,NA,NA,NA,NA,NA
1tfGvBOW,32k26u12eq14p7ktnmss8y5zd9bdv8,3txmy6ucai142rgsst897pk1dzuqcu,1tfGvBOW,2020-0188,2021-10-14,09:59:11,11:30:15,NA,incomplete,false,true,NA,3,34,NA,red,n_l_082.jpg,NA,NA,unpleasant,pleasant,NA,NA,NA,NA,NA,left,1536.20000001788,true,NA,NA,NA,NA,NA
1tfGvBOW,32k26u12eq14p7ktnmss8y5zd9bdv8,3txmy6ucai142rgsst897pk1dzuqcu,1tfGvBOW,2020-0188,2021-10-14,09:59:11,11:30:15,NA,incomplete,false,true,NA,3,35,NA,red,n_l_036.jpg,NA,NA,pleasant,unpleasant,NA,NA,NA,NA,NA,right,1884.09999999404,true,NA,NA,NA,NA,NA
1tfGvBOW,32k26u12eq14p7ktnmss8y5zd9bdv8,3txmy6ucai142rgsst897pk1dzuqcu,1tfGvBOW,2020-0188,2021-10-14,09:59:11,11:30:15,NA,incomplete,false,NA,true,3,0,NA,NA,NA,right,present,NA,NA,m_l_010.jpg,green,n_s_065.jpg,green,within,NA,NaN,NA,left,5580.800000011921,0,1,2832.9000000059605
1tfGvBOW,32k26u12eq14p7ktnmss8y5zd9bdv8,3txmy6ucai142rgsst897pk1dzuqcu,1tfGvBOW,2020-0188,2021-10-14,09:59:11,11:30:15,NA,incomplete,false,NA,true,3,1,NA,NA,NA,right,present,NA,NA,m_l_009.jpg,yellow,m_s_088.jpg,gray,between,NA,NaN,NA,right,7974.699999988079,1,2,2702.9000000059605
1tfGvBOW,32k26u12eq14p7ktnmss8y5zd9bdv8,3txmy6ucai142rgsst897pk1dzuqcu,1tfGvBOW,2020-0188,2021-10-14,09:59:11,11:30:15,NA,incomplete,false,NA,true,3,2,NA,NA,NA,right,present,NA,NA,m_s_012.jpg,orange,n_l_033.jpg,orange,within,NA,NaN,NA,left,4302.5999999940395,0,0,2239
1tfGvBOW,32k26u12eq14p7ktnmss8y5zd9bdv8,3txmy6ucai142rgsst897pk1dzuqcu,1tfGvBOW,2020-0188,2021-10-14,09:59:11,11:30:15,NA,incomplete,false,NA,true,3,3,NA,NA,NA,left,present,NA,NA,m_s_075.jpg,purple,n_l_095.jpg,orange,between,NA,NaN,NA,left,6254.699999988079,1,3,1869
1tfGvBOW,32k26u12eq14p7ktnmss8y5zd9bdv8,3txmy6ucai142rgsst897pk1dzuqcu,1tfGvBOW,2020-0188,2021-10-14,09:59:11,11:30:15,NA,incomplete,false,NA,true,3,4,NA,NA,NA,right,present,NA,NA,n_l_109.jpg,gray,n_s_009.jpg,gray,within,NA,NaN,NA,right,4848.399999976158,1,0,3208.9000000059605
1tfGvBOW,32k26u12eq14p7ktnmss8y5zd9bdv8,3txmy6ucai142rgsst897pk1dzuqcu,1tfGvBOW,2020-0188,2021-10-14,09:59:11,11:30:15,NA,incomplete,false,NA,true,3,5,NA,NA,NA,right,present,NA,NA,n_l_104.jpg,yellow,n_l_102.jpg,yellow,within,NA,NaN,NA,left,5764.799999982119,0,0,2412.9000000059605
1tfGvBOW,32k26u12eq14p7ktnmss8y5zd9bdv8,3txmy6ucai142rgsst897pk1dzuqcu,1tfGvBOW,2020-0188,2021-10-14,09:59:11,11:30:15,NA,incomplete,false,NA,true,3,6,NA,NA,NA,left,present,NA,NA,n_s_050.jpg,red,n_l_036.jpg,red,within,NA,NaN,NA,left,4950.5999999940395,1,0,1226.9000000059605
1tfGvBOW,32k26u12eq14p7ktnmss8y5zd9bdv8,3txmy6ucai142rgsst897pk1dzuqcu,1tfGvBOW,2020-0188,2021-10-14,09:59:11,11:30:15,NA,incomplete,false,NA,true,3,7,NA,NA,NA,right,present,NA,NA,n_s_090.jpg,purple,n_s_048.jpg,green,between,NA,NaN,NA,right,6391.0999999940395,1,2,1325.0999999940395
1tfGvBOW,32k26u12eq14p7ktnmss8y5zd9bdv8,3txmy6ucai142rgsst897pk1dzuqcu,1tfGvBOW,2020-0188,2021-10-14,09:59:11,11:30:15,NA,incomplete,false,NA,true,3,8,NA,NA,NA,right,present,NA,NA,n_l_013.jpg,purple,n_s_058.jpg,purple,within,NA,NaN,NA,right,4472.9000000059605,1,0,2608.699999988079
1tfGvBOW,32k26u12eq14p7ktnmss8y5zd9bdv8,3txmy6ucai142rgsst897pk1dzuqcu,1tfGvBOW,2020-0188,2021-10-14,09:59:11,11:30:15,NA,incomplete,false,NA,true,3,9,NA,NA,NA,left,present,NA,NA,n_l_078.jpg,orange,m_s_003.jpg,gray,between,NA,NaN,NA,right,4144.800000011921,0,2,1710.5999999940395
1tfGvBOW,32k26u12eq14p7ktnmss8y5zd9bdv8,3txmy6ucai142rgsst897pk1dzuqcu,1tfGvBOW,2020-0188,2021-10-14,09:59:11,11:30:15,NA,incomplete,false,NA,true,3,10,NA,NA,NA,left,present,NA,NA,n_s_055.jpg,yellow,m_s_038.jpg,red,between,NA,NaN,NA,left,5276.800000011921,1,2,2111
1tfGvBOW,32k26u12eq14p7ktnmss8y5zd9bdv8,3txmy6ucai142rgsst897pk1dzuqcu,1tfGvBOW,2020-0188,2021-10-14,09:59:11,11:30:15,NA,incomplete,false,true,NA,4,0,NA,purple,m_s_006.jpg,NA,NA,unpleasant,pleasant,NA,NA,NA,NA,NA,left,2471.79999998212,true,NA,NA,NA,NA,NA
1tfGvBOW,32k26u12eq14p7ktnmss8y5zd9bdv8,3txmy6ucai142rgsst897pk1dzuqcu,1tfGvBOW,2020-0188,2021-10-14,09:59:11,11:30:15,NA,incomplete,false,true,NA,4,1,NA,purple,m_s_060.jpg,NA,NA,unpleasant,pleasant,NA,NA,NA,NA,NA,right,2003.69999998808,true,NA,NA,NA,NA,NA
1tfGvBOW,32k26u12eq14p7ktnmss8y5zd9bdv8,3txmy6ucai142rgsst897pk1dzuqcu,1tfGvBOW,2020-0188,2021-10-14,09:59:11,11:30:15,NA,incomplete,false,true,NA,4,2,NA,purple,n_s_044.jpg,NA,NA,pleasant,unpleasant,NA,NA,NA,NA,NA,left,1879.90000000596,true,NA,NA,NA,NA,NA
1tfGvBOW,32k26u12eq14p7ktnmss8y5zd9bdv8,3txmy6ucai142rgsst897pk1dzuqcu,1tfGvBOW,2020-0188,2021-10-14,09:59:11,11:30:15,NA,incomplete,false,true,NA,4,3,NA,purple,m_s_102.jpg,NA,NA,unpleasant,pleasant,NA,NA,NA,NA,NA,right,1827.90000000596,true,NA,NA,NA,NA,NA
1tfGvBOW,32k26u12eq14p7ktnmss8y5zd9bdv8,3txmy6ucai142rgsst897pk1dzuqcu,1tfGvBOW,2020-0188,2021-10-14,09:59:11,11:30:15,NA,incomplete,false,true,NA,4,4,NA,purple,m_l_052.jpg,NA,NA,unpleasant,pleasant,NA,NA,NA,NA,NA,left,2024.69999998808,true,NA,NA,NA,NA,NA
1tfGvBOW,32k26u12eq14p7ktnmss8y5zd9bdv8,3txmy6ucai142rgsst897pk1dzuqcu,1tfGvBOW,2020-0188,2021-10-14,09:59:11,11:30:15,NA,incomplete,false,true,NA,4,5,NA,purple,m_l_021.jpg,NA,NA,unpleasant,pleasant,NA,NA,NA,NA,NA,left,2086,true,NA,NA,NA,NA,NA
1tfGvBOW,32k26u12eq14p7ktnmss8y5zd9bdv8,3txmy6ucai142rgsst897pk1dzuqcu,1tfGvBOW,2020-0188,2021-10-14,09:59:11,11:30:15,NA,incomplete,false,true,NA,4,6,NA,yellow,n_l_070.jpg,NA,NA,pleasant,unpleasant,NA,NA,NA,NA,NA,right,1705,true,NA,NA,NA,NA,NA
1tfGvBOW,32k26u12eq14p7ktnmss8y5zd9bdv8,3txmy6ucai142rgsst897pk1dzuqcu,1tfGvBOW,2020-0188,2021-10-14,09:59:11,11:30:15,NA,incomplete,false,true,NA,4,7,NA,yellow,n_s_105.jpg,NA,NA,unpleasant,pleasant,NA,NA,NA,NA,NA,left,3397.70000001788,true,NA,NA,NA,NA,NA
1tfGvBOW,32k26u12eq14p7ktnmss8y5zd9bdv8,3txmy6ucai142rgsst897pk1dzuqcu,1tfGvBOW,2020-0188,2021-10-14,09:59:11,11:30:15,NA,incomplete,false,true,NA,4,8,NA,yellow,n_s_115.jpg,NA,NA,unpleasant,pleasant,NA,NA,NA,NA,NA,left,3298.80000001192,true,NA,NA,NA,NA,NA
1tfGvBOW,32k26u12eq14p7ktnmss8y5zd9bdv8,3txmy6ucai142rgsst897pk1dzuqcu,1tfGvBOW,2020-0188,2021-10-14,09:59:11,11:30:15,NA,incomplete,false,true,NA,4,9,NA,yellow,m_s_069.jpg,NA,NA,pleasant,unpleasant,NA,NA,NA,NA,NA,left,2967.29999998212,true,NA,NA,NA,NA,NA
1tfGvBOW,32k26u12eq14p7ktnmss8y5zd9bdv8,3txmy6ucai142rgsst897pk1dzuqcu,1tfGvBOW,2020-0188,2021-10-14,09:59:11,11:30:15,NA,incomplete,false,true,NA,4,10,NA,yellow,m_s_071.jpg,NA,NA,pleasant,unpleasant,NA,NA,NA,NA,NA,right,2155.30000001192,true,NA,NA,NA,NA,NA
1tfGvBOW,32k26u12eq14p7ktnmss8y5zd9bdv8,3txmy6ucai142rgsst897pk1dzuqcu,1tfGvBOW,2020-0188,2021-10-14,09:59:11,11:30:15,NA,incomplete,false,true,NA,4,11,NA,yellow,m_l_019.jpg,NA,NA,unpleasant,pleasant,NA,NA,NA,NA,NA,left,2271,true,NA,NA,NA,NA,NA
1tfGvBOW,32k26u12eq14p7ktnmss8y5zd9bdv8,3txmy6ucai142rgsst897pk1dzuqcu,1tfGvBOW,2020-0188,2021-10-14,09:59:11,11:30:15,NA,incomplete,false,true,NA,4,12,NA,blue,m_l_080.jpg,NA,NA,unpleasant,pleasant,NA,NA,NA,NA,NA,right,2650.90000000596,true,NA,NA,NA,NA,NA
1tfGvBOW,32k26u12eq14p7ktnmss8y5zd9bdv8,3txmy6ucai142rgsst897pk1dzuqcu,1tfGvBOW,2020-0188,2021-10-14,09:59:11,11:30:15,NA,incomplete,false,true,NA,4,13,NA,blue,n_l_073.jpg,NA,NA,pleasant,unpleasant,NA,NA,NA,NA,NA,right,1678.5,true,NA,NA,NA,NA,NA
1tfGvBOW,32k26u12eq14p7ktnmss8y5zd9bdv8,3txmy6ucai142rgsst897pk1dzuqcu,1tfGvBOW,2020-0188,2021-10-14,09:59:11,11:30:15,NA,incomplete,false,true,NA,4,14,NA,blue,m_s_113.jpg,NA,NA,unpleasant,pleasant,NA,NA,NA,NA,NA,right,2628.40000000596,true,NA,NA,NA,NA,NA
1tfGvBOW,32k26u12eq14p7ktnmss8y5zd9bdv8,3txmy6ucai142rgsst897pk1dzuqcu,1tfGvBOW,2020-0188,2021-10-14,09:59:11,11:30:15,NA,incomplete,false,true,NA,4,15,NA,blue,n_s_054.jpg,NA,NA,unpleasant,pleasant,NA,NA,NA,NA,NA,left,2808.69999998808,true,NA,NA,NA,NA,NA
1tfGvBOW,32k26u12eq14p7ktnmss8y5zd9bdv8,3txmy6ucai142rgsst897pk1dzuqcu,1tfGvBOW,2020-0188,2021-10-14,09:59:11,11:30:15,NA,incomplete,false,true,NA,4,16,NA,blue,n_l_085.jpg,NA,NA,unpleasant,pleasant,NA,NA,NA,NA,NA,left,1741.09999999404,true,NA,NA,NA,NA,NA
1tfGvBOW,32k26u12eq14p7ktnmss8y5zd9bdv8,3txmy6ucai142rgsst897pk1dzuqcu,1tfGvBOW,2020-0188,2021-10-14,09:59:11,11:30:15,NA,incomplete,false,true,NA,4,17,NA,blue,n_s_013.jpg,NA,NA,pleasant,unpleasant,NA,NA,NA,NA,NA,right,1881.5,true,NA,NA,NA,NA,NA
1tfGvBOW,32k26u12eq14p7ktnmss8y5zd9bdv8,3txmy6ucai142rgsst897pk1dzuqcu,1tfGvBOW,2020-0188,2021-10-14,09:59:11,11:30:15,NA,incomplete,false,true,NA,4,18,NA,green,m_s_051.jpg,NA,NA,pleasant,unpleasant,NA,NA,NA,NA,NA,left,2918.79999998212,true,NA,NA,NA,NA,NA
1tfGvBOW,32k26u12eq14p7ktnmss8y5zd9bdv8,3txmy6ucai142rgsst897pk1dzuqcu,1tfGvBOW,2020-0188,2021-10-14,09:59:11,11:30:15,NA,incomplete,false,true,NA,4,19,NA,green,m_s_019.jpg,NA,NA,unpleasant,pleasant,NA,NA,NA,NA,NA,left,2233.59999999404,true,NA,NA,NA,NA,NA
1tfGvBOW,32k26u12eq14p7ktnmss8y5zd9bdv8,3txmy6ucai142rgsst897pk1dzuqcu,1tfGvBOW,2020-0188,2021-10-14,09:59:11,11:30:15,NA,incomplete,false,true,NA,4,20,NA,green,n_l_014.jpg,NA,NA,pleasant,unpleasant,NA,NA,NA,NA,NA,right,1542.69999998808,true,NA,NA,NA,NA,NA
1tfGvBOW,32k26u12eq14p7ktnmss8y5zd9bdv8,3txmy6ucai142rgsst897pk1dzuqcu,1tfGvBOW,2020-0188,2021-10-14,09:59:11,11:30:15,NA,incomplete,false,true,NA,4,21,NA,green,n_l_009.jpg,NA,NA,pleasant,unpleasant,NA,NA,NA,NA,NA,right,2571.40000000596,true,NA,NA,NA,NA,NA
1tfGvBOW,32k26u12eq14p7ktnmss8y5zd9bdv8,3txmy6ucai142rgsst897pk1dzuqcu,1tfGvBOW,2020-0188,2021-10-14,09:59:11,11:30:15,NA,incomplete,false,true,NA,4,22,NA,green,n_l_019.jpg,NA,NA,pleasant,unpleasant,NA,NA,NA,NA,NA,right,2119.30000001192,true,NA,NA,NA,NA,NA
1tfGvBOW,32k26u12eq14p7ktnmss8y5zd9bdv8,3txmy6ucai142rgsst897pk1dzuqcu,1tfGvBOW,2020-0188,2021-10-14,09:59:11,11:30:15,NA,incomplete,false,true,NA,4,23,NA,green,n_s_030.jpg,NA,NA,unpleasant,pleasant,NA,NA,NA,NA,NA,right,2578.19999998808,true,NA,NA,NA,NA,NA
1tfGvBOW,32k26u12eq14p7ktnmss8y5zd9bdv8,3txmy6ucai142rgsst897pk1dzuqcu,1tfGvBOW,2020-0188,2021-10-14,09:59:11,11:30:15,NA,incomplete,false,true,NA,4,24,NA,red,m_s_105.jpg,NA,NA,unpleasant,pleasant,NA,NA,NA,NA,NA,right,2824.09999999404,true,NA,NA,NA,NA,NA
1tfGvBOW,32k26u12eq14p7ktnmss8y5zd9bdv8,3txmy6ucai142rgsst897pk1dzuqcu,1tfGvBOW,2020-0188,2021-10-14,09:59:11,11:30:15,NA,incomplete,false,true,NA,4,25,NA,red,n_s_038.jpg,NA,NA,unpleasant,pleasant,NA,NA,NA,NA,NA,left,2205.20000001788,true,NA,NA,NA,NA,NA
1tfGvBOW,32k26u12eq14p7ktnmss8y5zd9bdv8,3txmy6ucai142rgsst897pk1dzuqcu,1tfGvBOW,2020-0188,2021-10-14,09:59:11,11:30:15,NA,incomplete,false,true,NA,4,26,NA,red,m_s_116.jpg,NA,NA,unpleasant,pleasant,NA,NA,NA,NA,NA,right,1744.59999999404,true,NA,NA,NA,NA,NA
1tfGvBOW,32k26u12eq14p7ktnmss8y5zd9bdv8,3txmy6ucai142rgsst897pk1dzuqcu,1tfGvBOW,2020-0188,2021-10-14,09:59:11,11:30:15,NA,incomplete,false,true,NA,4,27,NA,red,m_s_085.jpg,NA,NA,unpleasant,pleasant,NA,NA,NA,NA,NA,left,2277.20000001788,true,NA,NA,NA,NA,NA
1tfGvBOW,32k26u12eq14p7ktnmss8y5zd9bdv8,3txmy6ucai142rgsst897pk1dzuqcu,1tfGvBOW,2020-0188,2021-10-14,09:59:11,11:30:15,NA,incomplete,false,true,NA,4,28,NA,red,m_l_068.jpg,NA,NA,unpleasant,pleasant,NA,NA,NA,NA,NA,right,3296.59999999404,true,NA,NA,NA,NA,NA
1tfGvBOW,32k26u12eq14p7ktnmss8y5zd9bdv8,3txmy6ucai142rgsst897pk1dzuqcu,1tfGvBOW,2020-0188,2021-10-14,09:59:11,11:30:15,NA,incomplete,false,true,NA,4,29,NA,red,n_s_098.jpg,NA,NA,unpleasant,pleasant,NA,NA,NA,NA,NA,left,2022.39999997616,true,NA,NA,NA,NA,NA
1tfGvBOW,32k26u12eq14p7ktnmss8y5zd9bdv8,3txmy6ucai142rgsst897pk1dzuqcu,1tfGvBOW,2020-0188,2021-10-14,09:59:11,11:30:15,NA,incomplete,false,true,NA,4,30,NA,white,n_s_041.jpg,NA,NA,pleasant,unpleasant,NA,NA,NA,NA,NA,right,3162,true,NA,NA,NA,NA,NA
1tfGvBOW,32k26u12eq14p7ktnmss8y5zd9bdv8,3txmy6ucai142rgsst897pk1dzuqcu,1tfGvBOW,2020-0188,2021-10-14,09:59:11,11:30:15,NA,incomplete,false,true,NA,4,31,NA,white,m_l_053.jpg,NA,NA,unpleasant,pleasant,NA,NA,NA,NA,NA,none,0,false,NA,NA,NA,NA,NA
1tfGvBOW,32k26u12eq14p7ktnmss8y5zd9bdv8,3txmy6ucai142rgsst897pk1dzuqcu,1tfGvBOW,2020-0188,2021-10-14,09:59:11,11:30:15,NA,incomplete,false,true,NA,4,32,NA,white,m_s_024.jpg,NA,NA,pleasant,unpleasant,NA,NA,NA,NA,NA,right,2466.29999998212,true,NA,NA,NA,NA,NA
1tfGvBOW,32k26u12eq14p7ktnmss8y5zd9bdv8,3txmy6ucai142rgsst897pk1dzuqcu,1tfGvBOW,2020-0188,2021-10-14,09:59:11,11:30:15,NA,incomplete,false,true,NA,4,33,NA,white,m_s_059.jpg,NA,NA,pleasant,unpleasant,NA,NA,NA,NA,NA,right,2343.20000001788,true,NA,NA,NA,NA,NA
1tfGvBOW,32k26u12eq14p7ktnmss8y5zd9bdv8,3txmy6ucai142rgsst897pk1dzuqcu,1tfGvBOW,2020-0188,2021-10-14,09:59:11,11:30:15,NA,incomplete,false,true,NA,4,34,NA,white,m_s_077.jpg,NA,NA,unpleasant,pleasant,NA,NA,NA,NA,NA,left,2244,true,NA,NA,NA,NA,NA
1tfGvBOW,32k26u12eq14p7ktnmss8y5zd9bdv8,3txmy6ucai142rgsst897pk1dzuqcu,1tfGvBOW,2020-0188,2021-10-14,09:59:11,11:30:15,NA,incomplete,false,true,NA,4,35,NA,white,m_l_028.jpg,NA,NA,pleasant,unpleasant,NA,NA,NA,NA,NA,left,1752.29999998212,true,NA,NA,NA,NA,NA
1tfGvBOW,32k26u12eq14p7ktnmss8y5zd9bdv8,3txmy6ucai142rgsst897pk1dzuqcu,1tfGvBOW,2020-0188,2021-10-14,09:59:11,11:30:15,NA,incomplete,false,NA,true,4,0,NA,NA,NA,right,present,NA,NA,m_s_024.jpg,white,m_l_068.jpg,red,between,NA,NaN,NA,right,3234.699999988079,1,3,2923.2000000178814
1tfGvBOW,32k26u12eq14p7ktnmss8y5zd9bdv8,3txmy6ucai142rgsst897pk1dzuqcu,1tfGvBOW,2020-0188,2021-10-14,09:59:11,11:30:15,NA,incomplete,false,NA,true,4,1,NA,NA,NA,left,present,NA,NA,n_l_073.jpg,blue,n_s_013.jpg,blue,within,NA,NaN,NA,right,4325,0,0,3596.899999976158
1tfGvBOW,32k26u12eq14p7ktnmss8y5zd9bdv8,3txmy6ucai142rgsst897pk1dzuqcu,1tfGvBOW,2020-0188,2021-10-14,09:59:11,11:30:15,NA,incomplete,false,NA,true,4,2,NA,NA,NA,left,present,NA,NA,n_l_019.jpg,green,m_s_116.jpg,red,between,NA,NaN,NA,left,8457,1,2,3370.9000000059605
1tfGvBOW,32k26u12eq14p7ktnmss8y5zd9bdv8,3txmy6ucai142rgsst897pk1dzuqcu,1tfGvBOW,2020-0188,2021-10-14,09:59:11,11:30:15,NA,incomplete,false,NA,true,4,3,NA,NA,NA,right,present,NA,NA,m_l_021.jpg,purple,m_s_060.jpg,purple,within,NA,NaN,NA,right,6683.5,1,0,2020.9000000059605
1tfGvBOW,32k26u12eq14p7ktnmss8y5zd9bdv8,3txmy6ucai142rgsst897pk1dzuqcu,1tfGvBOW,2020-0188,2021-10-14,09:59:11,11:30:15,NA,incomplete,false,NA,true,4,4,NA,NA,NA,right,present,NA,NA,m_l_028.jpg,white,m_l_053.jpg,white,within,NA,NaN,NA,left,3720.800000011921,0,0,2095.0999999940395
1tfGvBOW,32k26u12eq14p7ktnmss8y5zd9bdv8,3txmy6ucai142rgsst897pk1dzuqcu,1tfGvBOW,2020-0188,2021-10-14,09:59:11,11:30:15,NA,incomplete,false,NA,true,4,5,NA,NA,NA,right,present,NA,NA,n_s_115.jpg,yellow,m_l_052.jpg,purple,between,NA,NaN,NA,right,4905.199999988079,1,2,2926.9000000059605
1tfGvBOW,32k26u12eq14p7ktnmss8y5zd9bdv8,3txmy6ucai142rgsst897pk1dzuqcu,1tfGvBOW,2020-0188,2021-10-14,09:59:11,11:30:15,NA,incomplete,false,NA,true,4,6,NA,NA,NA,right,present,NA,NA,n_s_030.jpg,green,m_s_019.jpg,green,within,NA,NaN,NA,right,3278.7999999821186,1,0,3234.899999976158
1tfGvBOW,32k26u12eq14p7ktnmss8y5zd9bdv8,3txmy6ucai142rgsst897pk1dzuqcu,1tfGvBOW,2020-0188,2021-10-14,09:59:11,11:30:15,NA,incomplete,false,NA,true,4,7,NA,NA,NA,left,present,NA,NA,n_s_105.jpg,yellow,m_l_019.jpg,yellow,within,NA,NaN,NA,left,19327,1,0,6663
1tfGvBOW,32k26u12eq14p7ktnmss8y5zd9bdv8,3txmy6ucai142rgsst897pk1dzuqcu,1tfGvBOW,2020-0188,2021-10-14,09:59:11,11:30:15,NA,incomplete,false,NA,true,4,8,NA,NA,NA,right,present,NA,NA,m_s_113.jpg,blue,m_s_071.jpg,yellow,between,NA,NaN,NA,right,4479,1,2,1913.0999999940395
1tfGvBOW,32k26u12eq14p7ktnmss8y5zd9bdv8,3txmy6ucai142rgsst897pk1dzuqcu,1tfGvBOW,2020-0188,2021-10-14,09:59:11,11:30:15,NA,incomplete,false,NA,true,4,9,NA,NA,NA,left,present,NA,NA,n_l_085.jpg,blue,n_l_014.jpg,green,between,NA,NaN,NA,right,6830.9000000059605,0,2,2057
1tfGvBOW,32k26u12eq14p7ktnmss8y5zd9bdv8,3txmy6ucai142rgsst897pk1dzuqcu,1tfGvBOW,2020-0188,2021-10-14,09:59:11,11:30:15,NA,incomplete,false,NA,true,4,10,NA,NA,NA,left,present,NA,NA,n_s_038.jpg,red,n_s_098.jpg,red,within,NA,NaN,NA,left,4053,1,0,3444.9000000059605
1tfGvBOW,32k26u12eq14p7ktnmss8y5zd9bdv8,3txmy6ucai142rgsst897pk1dzuqcu,1tfGvBOW,2020-0188,2021-10-14,09:59:11,11:30:15,NA,incomplete,false,true,NA,5,0,NA,red,m_s_108.jpg,NA,NA,unpleasant,pleasant,NA,NA,NA,NA,NA,left,2588.59999999404,true,NA,NA,NA,NA,NA
1tfGvBOW,32k26u12eq14p7ktnmss8y5zd9bdv8,3txmy6ucai142rgsst897pk1dzuqcu,1tfGvBOW,2020-0188,2021-10-14,09:59:11,11:30:15,NA,incomplete,false,true,NA,5,1,NA,red,m_l_106.jpg,NA,NA,pleasant,unpleasant,NA,NA,NA,NA,NA,left,2376.80000001192,true,NA,NA,NA,NA,NA
1tfGvBOW,32k26u12eq14p7ktnmss8y5zd9bdv8,3txmy6ucai142rgsst897pk1dzuqcu,1tfGvBOW,2020-0188,2021-10-14,09:59:11,11:30:15,NA,incomplete,false,true,NA,5,2,NA,red,n_s_024.jpg,NA,NA,unpleasant,pleasant,NA,NA,NA,NA,NA,right,2122.69999998808,true,NA,NA,NA,NA,NA
1tfGvBOW,32k26u12eq14p7ktnmss8y5zd9bdv8,3txmy6ucai142rgsst897pk1dzuqcu,1tfGvBOW,2020-0188,2021-10-14,09:59:11,11:30:15,NA,incomplete,false,true,NA,5,3,NA,red,m_s_028.jpg,NA,NA,pleasant,unpleasant,NA,NA,NA,NA,NA,right,1602.30000001192,true,NA,NA,NA,NA,NA
1tfGvBOW,32k26u12eq14p7ktnmss8y5zd9bdv8,3txmy6ucai142rgsst897pk1dzuqcu,1tfGvBOW,2020-0188,2021-10-14,09:59:11,11:30:15,NA,incomplete,false,true,NA,5,4,NA,red,n_s_034.jpg,NA,NA,pleasant,unpleasant,NA,NA,NA,NA,NA,right,2381.80000001192,true,NA,NA,NA,NA,NA
1tfGvBOW,32k26u12eq14p7ktnmss8y5zd9bdv8,3txmy6ucai142rgsst897pk1dzuqcu,1tfGvBOW,2020-0188,2021-10-14,09:59:11,11:30:15,NA,incomplete,false,true,NA,5,5,NA,red,n_s_063.jpg,NA,NA,pleasant,unpleasant,NA,NA,NA,NA,NA,right,2657.80000001192,true,NA,NA,NA,NA,NA
1tfGvBOW,32k26u12eq14p7ktnmss8y5zd9bdv8,3txmy6ucai142rgsst897pk1dzuqcu,1tfGvBOW,2020-0188,2021-10-14,09:59:11,11:30:15,NA,incomplete,false,true,NA,5,6,NA,blue,m_l_069.jpg,NA,NA,unpleasant,pleasant,NA,NA,NA,NA,NA,left,2013.80000001192,true,NA,NA,NA,NA,NA
1tfGvBOW,32k26u12eq14p7ktnmss8y5zd9bdv8,3txmy6ucai142rgsst897pk1dzuqcu,1tfGvBOW,2020-0188,2021-10-14,09:59:11,11:30:15,NA,incomplete,false,true,NA,5,7,NA,blue,n_l_111.jpg,NA,NA,unpleasant,pleasant,NA,NA,NA,NA,NA,left,1691.09999999404,true,NA,NA,NA,NA,NA
1tfGvBOW,32k26u12eq14p7ktnmss8y5zd9bdv8,3txmy6ucai142rgsst897pk1dzuqcu,1tfGvBOW,2020-0188,2021-10-14,09:59:11,11:30:15,NA,incomplete,false,true,NA,5,8,NA,blue,m_s_083.jpg,NA,NA,pleasant,unpleasant,NA,NA,NA,NA,NA,right,2166,true,NA,NA,NA,NA,NA
1tfGvBOW,32k26u12eq14p7ktnmss8y5zd9bdv8,3txmy6ucai142rgsst897pk1dzuqcu,1tfGvBOW,2020-0188,2021-10-14,09:59:11,11:30:15,NA,incomplete,false,true,NA,5,9,NA,blue,m_s_072.jpg,NA,NA,pleasant,unpleasant,NA,NA,NA,NA,NA,right,1618.59999999404,true,NA,NA,NA,NA,NA
1tfGvBOW,32k26u12eq14p7ktnmss8y5zd9bdv8,3txmy6ucai142rgsst897pk1dzuqcu,1tfGvBOW,2020-0188,2021-10-14,09:59:11,11:30:15,NA,incomplete,false,true,NA,5,10,NA,blue,n_l_022.jpg,NA,NA,pleasant,unpleasant,NA,NA,NA,NA,NA,right,3134.70000001788,true,NA,NA,NA,NA,NA
1tfGvBOW,32k26u12eq14p7ktnmss8y5zd9bdv8,3txmy6ucai142rgsst897pk1dzuqcu,1tfGvBOW,2020-0188,2021-10-14,09:59:11,11:30:15,NA,incomplete,false,true,NA,5,11,NA,blue,m_l_072.jpg,NA,NA,unpleasant,pleasant,NA,NA,NA,NA,NA,none,0,false,NA,NA,NA,NA,NA
1tfGvBOW,32k26u12eq14p7ktnmss8y5zd9bdv8,3txmy6ucai142rgsst897pk1dzuqcu,1tfGvBOW,2020-0188,2021-10-14,09:59:11,11:30:15,NA,incomplete,false,true,NA,5,12,NA,yellow,m_l_078.jpg,NA,NA,pleasant,unpleasant,NA,NA,NA,NA,NA,left,2423.5,true,NA,NA,NA,NA,NA
1tfGvBOW,32k26u12eq14p7ktnmss8y5zd9bdv8,3txmy6ucai142rgsst897pk1dzuqcu,1tfGvBOW,2020-0188,2021-10-14,09:59:11,11:30:15,NA,incomplete,false,true,NA,5,13,NA,yellow,m_l_035.jpg,NA,NA,unpleasant,pleasant,NA,NA,NA,NA,NA,right,3044.5,true,NA,NA,NA,NA,NA
1tfGvBOW,32k26u12eq14p7ktnmss8y5zd9bdv8,3txmy6ucai142rgsst897pk1dzuqcu,1tfGvBOW,2020-0188,2021-10-14,09:59:11,11:30:15,NA,incomplete,false,true,NA,5,14,NA,yellow,n_l_007.jpg,NA,NA,pleasant,unpleasant,NA,NA,NA,NA,NA,right,1488.80000001192,true,NA,NA,NA,NA,NA
1tfGvBOW,32k26u12eq14p7ktnmss8y5zd9bdv8,3txmy6ucai142rgsst897pk1dzuqcu,1tfGvBOW,2020-0188,2021-10-14,09:59:11,11:30:15,NA,incomplete,false,true,NA,5,15,NA,yellow,m_l_004.jpg,NA,NA,pleasant,unpleasant,NA,NA,NA,NA,NA,right,1564.30000001192,true,NA,NA,NA,NA,NA
1tfGvBOW,32k26u12eq14p7ktnmss8y5zd9bdv8,3txmy6ucai142rgsst897pk1dzuqcu,1tfGvBOW,2020-0188,2021-10-14,09:59:11,11:30:15,NA,incomplete,false,true,NA,5,16,NA,yellow,n_l_046.jpg,NA,NA,unpleasant,pleasant,NA,NA,NA,NA,NA,left,2017,true,NA,NA,NA,NA,NA
1tfGvBOW,32k26u12eq14p7ktnmss8y5zd9bdv8,3txmy6ucai142rgsst897pk1dzuqcu,1tfGvBOW,2020-0188,2021-10-14,09:59:11,11:30:15,NA,incomplete,false,true,NA,5,17,NA,yellow,m_s_001.jpg,NA,NA,unpleasant,pleasant,NA,NA,NA,NA,NA,right,3108.5,true,NA,NA,NA,NA,NA
1tfGvBOW,32k26u12eq14p7ktnmss8y5zd9bdv8,3txmy6ucai142rgsst897pk1dzuqcu,1tfGvBOW,2020-0188,2021-10-14,09:59:11,11:30:15,NA,incomplete,false,true,NA,5,18,NA,gray,m_s_004.jpg,NA,NA,pleasant,unpleasant,NA,NA,NA,NA,NA,none,0,false,NA,NA,NA,NA,NA
1tfGvBOW,32k26u12eq14p7ktnmss8y5zd9bdv8,3txmy6ucai142rgsst897pk1dzuqcu,1tfGvBOW,2020-0188,2021-10-14,09:59:11,11:30:15,NA,incomplete,false,true,NA,5,19,NA,gray,n_l_055.jpg,NA,NA,pleasant,unpleasant,NA,NA,NA,NA,NA,left,1741.40000000596,true,NA,NA,NA,NA,NA
1tfGvBOW,32k26u12eq14p7ktnmss8y5zd9bdv8,3txmy6ucai142rgsst897pk1dzuqcu,1tfGvBOW,2020-0188,2021-10-14,09:59:11,11:30:15,NA,incomplete,false,true,NA,5,20,NA,gray,n_l_092.jpg,NA,NA,pleasant,unpleasant,NA,NA,NA,NA,NA,right,1450.59999999404,true,NA,NA,NA,NA,NA
1tfGvBOW,32k26u12eq14p7ktnmss8y5zd9bdv8,3txmy6ucai142rgsst897pk1dzuqcu,1tfGvBOW,2020-0188,2021-10-14,09:59:11,11:30:15,NA,incomplete,false,true,NA,5,21,NA,gray,m_s_076.jpg,NA,NA,pleasant,unpleasant,NA,NA,NA,NA,NA,left,2710.20000001788,true,NA,NA,NA,NA,NA
1tfGvBOW,32k26u12eq14p7ktnmss8y5zd9bdv8,3txmy6ucai142rgsst897pk1dzuqcu,1tfGvBOW,2020-0188,2021-10-14,09:59:11,11:30:15,NA,incomplete,false,true,NA,5,22,NA,gray,n_l_069.jpg,NA,NA,pleasant,unpleasant,NA,NA,NA,NA,NA,left,2403.29999998212,true,NA,NA,NA,NA,NA
1tfGvBOW,32k26u12eq14p7ktnmss8y5zd9bdv8,3txmy6ucai142rgsst897pk1dzuqcu,1tfGvBOW,2020-0188,2021-10-14,09:59:11,11:30:15,NA,incomplete,false,true,NA,5,23,NA,gray,m_s_008.jpg,NA,NA,pleasant,unpleasant,NA,NA,NA,NA,NA,right,2774.70000001788,true,NA,NA,NA,NA,NA
1tfGvBOW,32k26u12eq14p7ktnmss8y5zd9bdv8,3txmy6ucai142rgsst897pk1dzuqcu,1tfGvBOW,2020-0188,2021-10-14,09:59:11,11:30:15,NA,incomplete,false,true,NA,5,24,NA,green,m_l_040.jpg,NA,NA,unpleasant,pleasant,NA,NA,NA,NA,NA,left,1523.59999999404,true,NA,NA,NA,NA,NA
1tfGvBOW,32k26u12eq14p7ktnmss8y5zd9bdv8,3txmy6ucai142rgsst897pk1dzuqcu,1tfGvBOW,2020-0188,2021-10-14,09:59:11,11:30:15,NA,incomplete,false,true,NA,5,25,NA,green,m_s_002.jpg,NA,NA,unpleasant,pleasant,NA,NA,NA,NA,NA,none,0,false,NA,NA,NA,NA,NA
1tfGvBOW,32k26u12eq14p7ktnmss8y5zd9bdv8,3txmy6ucai142rgsst897pk1dzuqcu,1tfGvBOW,2020-0188,2021-10-14,09:59:11,11:30:15,NA,incomplete,false,true,NA,5,26,NA,green,n_l_030.jpg,NA,NA,unpleasant,pleasant,NA,NA,NA,NA,NA,none,0,false,NA,NA,NA,NA,NA
1tfGvBOW,32k26u12eq14p7ktnmss8y5zd9bdv8,3txmy6ucai142rgsst897pk1dzuqcu,1tfGvBOW,2020-0188,2021-10-14,09:59:11,11:30:15,NA,incomplete,false,true,NA,5,27,NA,green,m_l_064.jpg,NA,NA,unpleasant,pleasant,NA,NA,NA,NA,NA,left,1575.40000000596,true,NA,NA,NA,NA,NA
1tfGvBOW,32k26u12eq14p7ktnmss8y5zd9bdv8,3txmy6ucai142rgsst897pk1dzuqcu,1tfGvBOW,2020-0188,2021-10-14,09:59:11,11:30:15,NA,incomplete,false,true,NA,5,28,NA,green,n_l_058.jpg,NA,NA,pleasant,unpleasant,NA,NA,NA,NA,NA,right,2155.19999998808,true,NA,NA,NA,NA,NA
1tfGvBOW,32k26u12eq14p7ktnmss8y5zd9bdv8,3txmy6ucai142rgsst897pk1dzuqcu,1tfGvBOW,2020-0188,2021-10-14,09:59:11,11:30:15,NA,incomplete,false,true,NA,5,29,NA,green,n_s_071.jpg,NA,NA,pleasant,unpleasant,NA,NA,NA,NA,NA,right,3096,true,NA,NA,NA,NA,NA
1tfGvBOW,32k26u12eq14p7ktnmss8y5zd9bdv8,3txmy6ucai142rgsst897pk1dzuqcu,1tfGvBOW,2020-0188,2021-10-14,09:59:11,11:30:15,NA,incomplete,false,true,NA,5,30,NA,brown,m_s_081.jpg,NA,NA,pleasant,unpleasant,NA,NA,NA,NA,NA,left,2653.29999998212,true,NA,NA,NA,NA,NA
1tfGvBOW,32k26u12eq14p7ktnmss8y5zd9bdv8,3txmy6ucai142rgsst897pk1dzuqcu,1tfGvBOW,2020-0188,2021-10-14,09:59:11,11:30:15,NA,incomplete,false,true,NA,5,31,NA,brown,m_l_067.jpg,NA,NA,pleasant,unpleasant,NA,NA,NA,NA,NA,right,1568.09999999404,true,NA,NA,NA,NA,NA
1tfGvBOW,32k26u12eq14p7ktnmss8y5zd9bdv8,3txmy6ucai142rgsst897pk1dzuqcu,1tfGvBOW,2020-0188,2021-10-14,09:59:11,11:30:15,NA,incomplete,false,true,NA,5,32,NA,brown,n_s_067.jpg,NA,NA,unpleasant,pleasant,NA,NA,NA,NA,NA,left,1669.30000001192,true,NA,NA,NA,NA,NA
1tfGvBOW,32k26u12eq14p7ktnmss8y5zd9bdv8,3txmy6ucai142rgsst897pk1dzuqcu,1tfGvBOW,2020-0188,2021-10-14,09:59:11,11:30:15,NA,incomplete,false,true,NA,5,33,NA,brown,n_s_068.jpg,NA,NA,unpleasant,pleasant,NA,NA,NA,NA,NA,left,1184.60000002384,true,NA,NA,NA,NA,NA
1tfGvBOW,32k26u12eq14p7ktnmss8y5zd9bdv8,3txmy6ucai142rgsst897pk1dzuqcu,1tfGvBOW,2020-0188,2021-10-14,09:59:11,11:30:15,NA,incomplete,false,true,NA,5,34,NA,brown,n_l_097.jpg,NA,NA,unpleasant,pleasant,NA,NA,NA,NA,NA,left,2549.10000002384,true,NA,NA,NA,NA,NA
1tfGvBOW,32k26u12eq14p7ktnmss8y5zd9bdv8,3txmy6ucai142rgsst897pk1dzuqcu,1tfGvBOW,2020-0188,2021-10-14,09:59:11,11:30:15,NA,incomplete,false,true,NA,5,35,NA,brown,n_l_088.jpg,NA,NA,unpleasant,pleasant,NA,NA,NA,NA,NA,right,1962.5,true,NA,NA,NA,NA,NA
1tfGvBOW,32k26u12eq14p7ktnmss8y5zd9bdv8,3txmy6ucai142rgsst897pk1dzuqcu,1tfGvBOW,2020-0188,2021-10-14,09:59:11,11:30:15,NA,incomplete,false,NA,true,5,0,NA,NA,NA,right,absent,NA,NA,n_l_007.jpg,yellow,n_l_022.jpg,blue,between,NA,NaN,NA,left,7581,0,2,2819.199999988079
1tfGvBOW,32k26u12eq14p7ktnmss8y5zd9bdv8,3txmy6ucai142rgsst897pk1dzuqcu,1tfGvBOW,2020-0188,2021-10-14,09:59:11,11:30:15,NA,incomplete,false,NA,true,5,1,NA,NA,NA,right,absent,NA,NA,n_s_071.jpg,green,m_s_002.jpg,green,within,NA,NaN,NA,right,4222.9000000059605,1,2,1967.0999999940395
1tfGvBOW,32k26u12eq14p7ktnmss8y5zd9bdv8,3txmy6ucai142rgsst897pk1dzuqcu,1tfGvBOW,2020-0188,2021-10-14,09:59:11,11:30:15,NA,incomplete,false,NA,true,5,2,NA,NA,NA,right,absent,NA,NA,m_s_083.jpg,blue,n_s_034.jpg,red,between,NA,NaN,NA,right,6573.100000023842,1,3,1961
1tfGvBOW,32k26u12eq14p7ktnmss8y5zd9bdv8,3txmy6ucai142rgsst897pk1dzuqcu,1tfGvBOW,2020-0188,2021-10-14,09:59:11,11:30:15,NA,incomplete,false,NA,true,5,3,NA,NA,NA,left,absent,NA,NA,n_l_069.jpg,gray,n_l_030.jpg,green,between,NA,NaN,NA,right,4743.0999999940395,0,2,1708.8999999761581
1tfGvBOW,32k26u12eq14p7ktnmss8y5zd9bdv8,3txmy6ucai142rgsst897pk1dzuqcu,1tfGvBOW,2020-0188,2021-10-14,09:59:11,11:30:15,NA,incomplete,false,NA,true,5,4,NA,NA,NA,right,absent,NA,NA,n_l_092.jpg,gray,n_l_046.jpg,yellow,between,NA,NaN,NA,right,2911.100000023842,1,0,2321
1tfGvBOW,32k26u12eq14p7ktnmss8y5zd9bdv8,3txmy6ucai142rgsst897pk1dzuqcu,1tfGvBOW,2020-0188,2021-10-14,09:59:11,11:30:15,NA,incomplete,false,NA,true,5,5,NA,NA,NA,left,absent,NA,NA,m_l_035.jpg,yellow,m_s_001.jpg,yellow,within,NA,NaN,NA,left,4067.5999999940395,1,1,3985.199999988079
1tfGvBOW,32k26u12eq14p7ktnmss8y5zd9bdv8,3txmy6ucai142rgsst897pk1dzuqcu,1tfGvBOW,2020-0188,2021-10-14,09:59:11,11:30:15,NA,incomplete,false,NA,true,5,6,NA,NA,NA,left,absent,NA,NA,n_l_055.jpg,gray,m_s_008.jpg,gray,within,NA,NaN,NA,left,7223.0999999940395,1,2,2033.0999999940395
1tfGvBOW,32k26u12eq14p7ktnmss8y5zd9bdv8,3txmy6ucai142rgsst897pk1dzuqcu,1tfGvBOW,2020-0188,2021-10-14,09:59:11,11:30:15,NA,incomplete,false,NA,true,5,7,NA,NA,NA,left,absent,NA,NA,n_l_058.jpg,green,n_s_067.jpg,brown,between,NA,NaN,NA,left,4011.0999999940395,1,3,1209.199999988079
1tfGvBOW,32k26u12eq14p7ktnmss8y5zd9bdv8,3txmy6ucai142rgsst897pk1dzuqcu,1tfGvBOW,2020-0188,2021-10-14,09:59:11,11:30:15,NA,incomplete,false,NA,true,5,8,NA,NA,NA,left,absent,NA,NA,m_l_106.jpg,red,n_s_063.jpg,red,within,NA,NaN,NA,left,22528.69999998808,1,3,3181.100000023842
1tfGvBOW,32k26u12eq14p7ktnmss8y5zd9bdv8,3txmy6ucai142rgsst897pk1dzuqcu,1tfGvBOW,2020-0188,2021-10-14,09:59:11,11:30:15,NA,incomplete,false,NA,true,5,9,NA,NA,NA,right,absent,NA,NA,m_l_072.jpg,blue,n_l_111.jpg,blue,within,NA,NaN,NA,right,5915.0999999940395,1,2,1798.9000000059605
1tfGvBOW,32k26u12eq14p7ktnmss8y5zd9bdv8,3txmy6ucai142rgsst897pk1dzuqcu,1tfGvBOW,2020-0188,2021-10-14,09:59:11,11:30:15,NA,incomplete,false,NA,true,5,10,NA,NA,NA,right,absent,NA,NA,n_l_088.jpg,brown,m_l_067.jpg,brown,within,NA,NaN,NA,right,4618.9000000059605,1,2,1425
1tfGvBOW,32k26u12eq14p7ktnmss8y5zd9bdv8,3txmy6ucai142rgsst897pk1dzuqcu,1tfGvBOW,2020-0188,2021-10-14,09:59:11,11:30:15,NA,incomplete,false,true,NA,6,0,NA,purple,n_l_026.jpg,NA,NA,pleasant,unpleasant,NA,NA,NA,NA,NA,right,2231.40000000596,true,NA,NA,NA,NA,NA
1tfGvBOW,32k26u12eq14p7ktnmss8y5zd9bdv8,3txmy6ucai142rgsst897pk1dzuqcu,1tfGvBOW,2020-0188,2021-10-14,09:59:11,11:30:15,NA,incomplete,false,true,NA,6,1,NA,purple,m_s_056.jpg,NA,NA,pleasant,unpleasant,NA,NA,NA,NA,NA,right,2972.20000001788,true,NA,NA,NA,NA,NA
1tfGvBOW,32k26u12eq14p7ktnmss8y5zd9bdv8,3txmy6ucai142rgsst897pk1dzuqcu,1tfGvBOW,2020-0188,2021-10-14,09:59:11,11:30:15,NA,incomplete,false,true,NA,6,2,NA,purple,m_l_098.jpg,NA,NA,pleasant,unpleasant,NA,NA,NA,NA,NA,right,1274.20000001788,true,NA,NA,NA,NA,NA
1tfGvBOW,32k26u12eq14p7ktnmss8y5zd9bdv8,3txmy6ucai142rgsst897pk1dzuqcu,1tfGvBOW,2020-0188,2021-10-14,09:59:11,11:30:15,NA,incomplete,false,true,NA,6,3,NA,purple,m_l_104.jpg,NA,NA,pleasant,unpleasant,NA,NA,NA,NA,NA,right,1733.59999999404,true,NA,NA,NA,NA,NA
1tfGvBOW,32k26u12eq14p7ktnmss8y5zd9bdv8,3txmy6ucai142rgsst897pk1dzuqcu,1tfGvBOW,2020-0188,2021-10-14,09:59:11,11:30:15,NA,incomplete,false,true,NA,6,4,NA,purple,n_l_047.jpg,NA,NA,unpleasant,pleasant,NA,NA,NA,NA,NA,right,1193.59999999404,true,NA,NA,NA,NA,NA
1tfGvBOW,32k26u12eq14p7ktnmss8y5zd9bdv8,3txmy6ucai142rgsst897pk1dzuqcu,1tfGvBOW,2020-0188,2021-10-14,09:59:11,11:30:15,NA,incomplete,false,true,NA,6,5,NA,purple,m_l_066.jpg,NA,NA,unpleasant,pleasant,NA,NA,NA,NA,NA,left,1862.70000001788,true,NA,NA,NA,NA,NA
1tfGvBOW,32k26u12eq14p7ktnmss8y5zd9bdv8,3txmy6ucai142rgsst897pk1dzuqcu,1tfGvBOW,2020-0188,2021-10-14,09:59:11,11:30:15,NA,incomplete,false,true,NA,6,6,NA,white,m_s_036.jpg,NA,NA,unpleasant,pleasant,NA,NA,NA,NA,NA,right,2676.09999999404,true,NA,NA,NA,NA,NA
1tfGvBOW,32k26u12eq14p7ktnmss8y5zd9bdv8,3txmy6ucai142rgsst897pk1dzuqcu,1tfGvBOW,2020-0188,2021-10-14,09:59:11,11:30:15,NA,incomplete,false,true,NA,6,7,NA,white,m_l_030.jpg,NA,NA,unpleasant,pleasant,NA,NA,NA,NA,NA,left,2328,true,NA,NA,NA,NA,NA
1tfGvBOW,32k26u12eq14p7ktnmss8y5zd9bdv8,3txmy6ucai142rgsst897pk1dzuqcu,1tfGvBOW,2020-0188,2021-10-14,09:59:11,11:30:15,NA,incomplete,false,true,NA,6,8,NA,white,m_l_014.jpg,NA,NA,unpleasant,pleasant,NA,NA,NA,NA,NA,left,1787.80000001192,true,NA,NA,NA,NA,NA
1tfGvBOW,32k26u12eq14p7ktnmss8y5zd9bdv8,3txmy6ucai142rgsst897pk1dzuqcu,1tfGvBOW,2020-0188,2021-10-14,09:59:11,11:30:15,NA,incomplete,false,true,NA,6,9,NA,white,n_l_090.jpg,NA,NA,pleasant,unpleasant,NA,NA,NA,NA,NA,right,2512.20000001788,true,NA,NA,NA,NA,NA
1tfGvBOW,32k26u12eq14p7ktnmss8y5zd9bdv8,3txmy6ucai142rgsst897pk1dzuqcu,1tfGvBOW,2020-0188,2021-10-14,09:59:11,11:30:15,NA,incomplete,false,true,NA,6,10,NA,white,n_l_076.jpg,NA,NA,pleasant,unpleasant,NA,NA,NA,NA,NA,right,2013.19999998808,true,NA,NA,NA,NA,NA
1tfGvBOW,32k26u12eq14p7ktnmss8y5zd9bdv8,3txmy6ucai142rgsst897pk1dzuqcu,1tfGvBOW,2020-0188,2021-10-14,09:59:11,11:30:15,NA,incomplete,false,true,NA,6,11,NA,white,n_l_012.jpg,NA,NA,unpleasant,pleasant,NA,NA,NA,NA,NA,left,3146.40000000596,true,NA,NA,NA,NA,NA
1tfGvBOW,32k26u12eq14p7ktnmss8y5zd9bdv8,3txmy6ucai142rgsst897pk1dzuqcu,1tfGvBOW,2020-0188,2021-10-14,09:59:11,11:30:15,NA,incomplete,false,true,NA,6,12,NA,black,m_l_013.jpg,NA,NA,unpleasant,pleasant,NA,NA,NA,NA,NA,none,0,false,NA,NA,NA,NA,NA
1tfGvBOW,32k26u12eq14p7ktnmss8y5zd9bdv8,3txmy6ucai142rgsst897pk1dzuqcu,1tfGvBOW,2020-0188,2021-10-14,09:59:11,11:30:15,NA,incomplete,false,true,NA,6,13,NA,black,n_s_086.jpg,NA,NA,unpleasant,pleasant,NA,NA,NA,NA,NA,left,1859,true,NA,NA,NA,NA,NA
1tfGvBOW,32k26u12eq14p7ktnmss8y5zd9bdv8,3txmy6ucai142rgsst897pk1dzuqcu,1tfGvBOW,2020-0188,2021-10-14,09:59:11,11:30:15,NA,incomplete,false,true,NA,6,14,NA,black,m_l_083.jpg,NA,NA,pleasant,unpleasant,NA,NA,NA,NA,NA,left,1927.09999999404,true,NA,NA,NA,NA,NA
1tfGvBOW,32k26u12eq14p7ktnmss8y5zd9bdv8,3txmy6ucai142rgsst897pk1dzuqcu,1tfGvBOW,2020-0188,2021-10-14,09:59:11,11:30:15,NA,incomplete,false,true,NA,6,15,NA,black,n_l_059.jpg,NA,NA,unpleasant,pleasant,NA,NA,NA,NA,NA,right,2091.39999997616,true,NA,NA,NA,NA,NA
1tfGvBOW,32k26u12eq14p7ktnmss8y5zd9bdv8,3txmy6ucai142rgsst897pk1dzuqcu,1tfGvBOW,2020-0188,2021-10-14,09:59:11,11:30:15,NA,incomplete,false,true,NA,6,16,NA,black,m_s_111.jpg,NA,NA,unpleasant,pleasant,NA,NA,NA,NA,NA,right,2464.30000001192,true,NA,NA,NA,NA,NA
1tfGvBOW,32k26u12eq14p7ktnmss8y5zd9bdv8,3txmy6ucai142rgsst897pk1dzuqcu,1tfGvBOW,2020-0188,2021-10-14,09:59:11,11:30:15,NA,incomplete,false,true,NA,6,17,NA,black,n_s_095.jpg,NA,NA,pleasant,unpleasant,NA,NA,NA,NA,NA,right,1868.19999998808,true,NA,NA,NA,NA,NA
1tfGvBOW,32k26u12eq14p7ktnmss8y5zd9bdv8,3txmy6ucai142rgsst897pk1dzuqcu,1tfGvBOW,2020-0188,2021-10-14,09:59:11,11:30:15,NA,incomplete,false,true,NA,6,18,NA,green,m_l_006.jpg,NA,NA,pleasant,unpleasant,NA,NA,NA,NA,NA,left,1801,true,NA,NA,NA,NA,NA
1tfGvBOW,32k26u12eq14p7ktnmss8y5zd9bdv8,3txmy6ucai142rgsst897pk1dzuqcu,1tfGvBOW,2020-0188,2021-10-14,09:59:11,11:30:15,NA,incomplete,false,true,NA,6,19,NA,green,m_l_042.jpg,NA,NA,unpleasant,pleasant,NA,NA,NA,NA,NA,left,1765.30000001192,true,NA,NA,NA,NA,NA
1tfGvBOW,32k26u12eq14p7ktnmss8y5zd9bdv8,3txmy6ucai142rgsst897pk1dzuqcu,1tfGvBOW,2020-0188,2021-10-14,09:59:11,11:30:15,NA,incomplete,false,true,NA,6,20,NA,green,m_s_016.jpg,NA,NA,unpleasant,pleasant,NA,NA,NA,NA,NA,left,2033.39999997616,true,NA,NA,NA,NA,NA
1tfGvBOW,32k26u12eq14p7ktnmss8y5zd9bdv8,3txmy6ucai142rgsst897pk1dzuqcu,1tfGvBOW,2020-0188,2021-10-14,09:59:11,11:30:15,NA,incomplete,false,true,NA,6,21,NA,green,n_l_035.jpg,NA,NA,unpleasant,pleasant,NA,NA,NA,NA,NA,right,1846.69999998808,true,NA,NA,NA,NA,NA
1tfGvBOW,32k26u12eq14p7ktnmss8y5zd9bdv8,3txmy6ucai142rgsst897pk1dzuqcu,1tfGvBOW,2020-0188,2021-10-14,09:59:11,11:30:15,NA,incomplete,false,true,NA,6,22,NA,green,m_l_107.jpg,NA,NA,unpleasant,pleasant,NA,NA,NA,NA,NA,right,2218.79999998212,true,NA,NA,NA,NA,NA
1tfGvBOW,32k26u12eq14p7ktnmss8y5zd9bdv8,3txmy6ucai142rgsst897pk1dzuqcu,1tfGvBOW,2020-0188,2021-10-14,09:59:11,11:30:15,NA,incomplete,false,true,NA,6,23,NA,green,m_l_059.jpg,NA,NA,unpleasant,pleasant,NA,NA,NA,NA,NA,right,2214.5,true,NA,NA,NA,NA,NA
1tfGvBOW,32k26u12eq14p7ktnmss8y5zd9bdv8,3txmy6ucai142rgsst897pk1dzuqcu,1tfGvBOW,2020-0188,2021-10-14,09:59:11,11:30:15,NA,incomplete,false,true,NA,6,24,NA,orange,m_l_075.jpg,NA,NA,unpleasant,pleasant,NA,NA,NA,NA,NA,none,0,false,NA,NA,NA,NA,NA
1tfGvBOW,32k26u12eq14p7ktnmss8y5zd9bdv8,3txmy6ucai142rgsst897pk1dzuqcu,1tfGvBOW,2020-0188,2021-10-14,09:59:11,11:30:15,NA,incomplete,false,true,NA,6,25,NA,orange,m_s_032.jpg,NA,NA,pleasant,unpleasant,NA,NA,NA,NA,NA,right,1151.20000001788,true,NA,NA,NA,NA,NA
1tfGvBOW,32k26u12eq14p7ktnmss8y5zd9bdv8,3txmy6ucai142rgsst897pk1dzuqcu,1tfGvBOW,2020-0188,2021-10-14,09:59:11,11:30:15,NA,incomplete,false,true,NA,6,26,NA,orange,m_s_098.jpg,NA,NA,pleasant,unpleasant,NA,NA,NA,NA,NA,right,1834.89999997616,true,NA,NA,NA,NA,NA
1tfGvBOW,32k26u12eq14p7ktnmss8y5zd9bdv8,3txmy6ucai142rgsst897pk1dzuqcu,1tfGvBOW,2020-0188,2021-10-14,09:59:11,11:30:15,NA,incomplete,false,true,NA,6,27,NA,orange,m_s_112.jpg,NA,NA,pleasant,unpleasant,NA,NA,NA,NA,NA,right,1831.40000000596,true,NA,NA,NA,NA,NA
1tfGvBOW,32k26u12eq14p7ktnmss8y5zd9bdv8,3txmy6ucai142rgsst897pk1dzuqcu,1tfGvBOW,2020-0188,2021-10-14,09:59:11,11:30:15,NA,incomplete,false,true,NA,6,28,NA,orange,n_l_052.jpg,NA,NA,unpleasant,pleasant,NA,NA,NA,NA,NA,left,1420.59999999404,true,NA,NA,NA,NA,NA
1tfGvBOW,32k26u12eq14p7ktnmss8y5zd9bdv8,3txmy6ucai142rgsst897pk1dzuqcu,1tfGvBOW,2020-0188,2021-10-14,09:59:11,11:30:15,NA,incomplete,false,true,NA,6,29,NA,orange,m_s_021.jpg,NA,NA,pleasant,unpleasant,NA,NA,NA,NA,NA,left,2671.59999999404,true,NA,NA,NA,NA,NA
1tfGvBOW,32k26u12eq14p7ktnmss8y5zd9bdv8,3txmy6ucai142rgsst897pk1dzuqcu,1tfGvBOW,2020-0188,2021-10-14,09:59:11,11:30:15,NA,incomplete,false,true,NA,6,30,NA,yellow,m_s_110.jpg,NA,NA,unpleasant,pleasant,NA,NA,NA,NA,NA,right,1923,true,NA,NA,NA,NA,NA
1tfGvBOW,32k26u12eq14p7ktnmss8y5zd9bdv8,3txmy6ucai142rgsst897pk1dzuqcu,1tfGvBOW,2020-0188,2021-10-14,09:59:11,11:30:15,NA,incomplete,false,true,NA,6,31,NA,yellow,n_l_042.jpg,NA,NA,unpleasant,pleasant,NA,NA,NA,NA,NA,left,1841.20000001788,true,NA,NA,NA,NA,NA
1tfGvBOW,32k26u12eq14p7ktnmss8y5zd9bdv8,3txmy6ucai142rgsst897pk1dzuqcu,1tfGvBOW,2020-0188,2021-10-14,09:59:11,11:30:15,NA,incomplete,false,true,NA,6,32,NA,yellow,n_s_037.jpg,NA,NA,unpleasant,pleasant,NA,NA,NA,NA,NA,left,2316.59999999404,true,NA,NA,NA,NA,NA
1tfGvBOW,32k26u12eq14p7ktnmss8y5zd9bdv8,3txmy6ucai142rgsst897pk1dzuqcu,1tfGvBOW,2020-0188,2021-10-14,09:59:11,11:30:15,NA,incomplete,false,true,NA,6,33,NA,yellow,n_l_034.jpg,NA,NA,pleasant,unpleasant,NA,NA,NA,NA,NA,right,2256.69999998808,true,NA,NA,NA,NA,NA
1tfGvBOW,32k26u12eq14p7ktnmss8y5zd9bdv8,3txmy6ucai142rgsst897pk1dzuqcu,1tfGvBOW,2020-0188,2021-10-14,09:59:11,11:30:15,NA,incomplete,false,true,NA,6,34,NA,yellow,m_l_079.jpg,NA,NA,unpleasant,pleasant,NA,NA,NA,NA,NA,left,2133.5,true,NA,NA,NA,NA,NA
1tfGvBOW,32k26u12eq14p7ktnmss8y5zd9bdv8,3txmy6ucai142rgsst897pk1dzuqcu,1tfGvBOW,2020-0188,2021-10-14,09:59:11,11:30:15,NA,incomplete,false,true,NA,6,35,NA,yellow,m_l_060.jpg,NA,NA,pleasant,unpleasant,NA,NA,NA,NA,NA,left,1865,true,NA,NA,NA,NA,NA
1tfGvBOW,32k26u12eq14p7ktnmss8y5zd9bdv8,3txmy6ucai142rgsst897pk1dzuqcu,1tfGvBOW,2020-0188,2021-10-14,09:59:11,11:30:15,NA,incomplete,false,NA,true,6,0,NA,NA,NA,right,present,NA,NA,m_l_083.jpg,black,n_l_076.jpg,white,between,NA,NaN,NA,right,9845.09999999404,1,3,3044.899999976158
1tfGvBOW,32k26u12eq14p7ktnmss8y5zd9bdv8,3txmy6ucai142rgsst897pk1dzuqcu,1tfGvBOW,2020-0188,2021-10-14,09:59:11,11:30:15,NA,incomplete,false,NA,true,6,1,NA,NA,NA,left,present,NA,NA,m_l_030.jpg,white,n_l_012.jpg,white,within,NA,NaN,NA,left,3998.899999976158,1,1,1998.8999999761581
1tfGvBOW,32k26u12eq14p7ktnmss8y5zd9bdv8,3txmy6ucai142rgsst897pk1dzuqcu,1tfGvBOW,2020-0188,2021-10-14,09:59:11,11:30:15,NA,incomplete,false,NA,true,6,2,NA,NA,NA,left,present,NA,NA,n_s_086.jpg,black,n_s_095.jpg,black,within,NA,NaN,NA,right,14526.699999988079,0,1,3205
1tfGvBOW,32k26u12eq14p7ktnmss8y5zd9bdv8,3txmy6ucai142rgsst897pk1dzuqcu,1tfGvBOW,2020-0188,2021-10-14,09:59:11,11:30:15,NA,incomplete,false,NA,true,6,3,NA,NA,NA,left,present,NA,NA,m_s_056.jpg,purple,m_l_066.jpg,purple,within,NA,NaN,NA,left,5333.5,1,1,1425.0999999940395
1tfGvBOW,32k26u12eq14p7ktnmss8y5zd9bdv8,3txmy6ucai142rgsst897pk1dzuqcu,1tfGvBOW,2020-0188,2021-10-14,09:59:11,11:30:15,NA,incomplete,false,NA,true,6,4,NA,NA,NA,left,present,NA,NA,m_s_032.jpg,orange,m_s_021.jpg,orange,within,NA,NaN,NA,left,4190.800000011921,1,0,3099
1tfGvBOW,32k26u12eq14p7ktnmss8y5zd9bdv8,3txmy6ucai142rgsst897pk1dzuqcu,1tfGvBOW,2020-0188,2021-10-14,09:59:11,11:30:15,NA,incomplete,false,NA,true,6,5,NA,NA,NA,right,present,NA,NA,m_l_059.jpg,green,m_l_042.jpg,green,within,NA,NaN,NA,right,16316.59999999404,1,0,6794.899999976158
1tfGvBOW,32k26u12eq14p7ktnmss8y5zd9bdv8,3txmy6ucai142rgsst897pk1dzuqcu,1tfGvBOW,2020-0188,2021-10-14,09:59:11,11:30:15,NA,incomplete,false,NA,true,6,6,NA,NA,NA,left,present,NA,NA,n_l_042.jpg,yellow,m_l_060.jpg,yellow,within,NA,NaN,NA,right,4188.899999976158,0,0,1493.300000011921
1tfGvBOW,32k26u12eq14p7ktnmss8y5zd9bdv8,3txmy6ucai142rgsst897pk1dzuqcu,1tfGvBOW,2020-0188,2021-10-14,09:59:11,11:30:15,NA,incomplete,false,NA,true,6,7,NA,NA,NA,right,present,NA,NA,n_s_037.jpg,yellow,n_l_052.jpg,orange,between,NA,NaN,NA,right,4093.2999999821186,1,2,2516.699999988079
1tfGvBOW,32k26u12eq14p7ktnmss8y5zd9bdv8,3txmy6ucai142rgsst897pk1dzuqcu,1tfGvBOW,2020-0188,2021-10-14,09:59:11,11:30:15,NA,incomplete,false,NA,true,6,8,NA,NA,NA,left,present,NA,NA,m_s_111.jpg,black,m_s_016.jpg,green,between,NA,NaN,NA,left,15988.799999982119,1,3,2779
1tfGvBOW,32k26u12eq14p7ktnmss8y5zd9bdv8,3txmy6ucai142rgsst897pk1dzuqcu,1tfGvBOW,2020-0188,2021-10-14,09:59:11,11:30:15,NA,incomplete,false,NA,true,6,9,NA,NA,NA,left,present,NA,NA,n_l_047.jpg,purple,m_l_014.jpg,white,between,NA,NaN,NA,left,4869,1,3,1407.0999999940395
1tfGvBOW,32k26u12eq14p7ktnmss8y5zd9bdv8,3txmy6ucai142rgsst897pk1dzuqcu,1tfGvBOW,2020-0188,2021-10-14,09:59:11,11:30:15,NA,incomplete,false,NA,true,6,10,NA,NA,NA,right,present,NA,NA,m_s_098.jpg,orange,m_l_107.jpg,green,between,NA,NaN,NA,left,3108.7000000178814,0,2,1167.0999999940395
1tfGvBOW,32k26u12eq14p7ktnmss8y5zd9bdv8,3txmy6ucai142rgsst897pk1dzuqcu,1tfGvBOW,2020-0188,2021-10-14,09:59:11,11:30:15,NA,incomplete,false,true,NA,7,0,NA,orange,m_l_111.jpg,NA,NA,pleasant,unpleasant,NA,NA,NA,NA,NA,none,0,false,NA,NA,NA,NA,NA
1tfGvBOW,32k26u12eq14p7ktnmss8y5zd9bdv8,3txmy6ucai142rgsst897pk1dzuqcu,1tfGvBOW,2020-0188,2021-10-14,09:59:11,11:30:15,NA,incomplete,false,true,NA,7,1,NA,orange,m_l_112.jpg,NA,NA,unpleasant,pleasant,NA,NA,NA,NA,NA,left,1989.29999998212,true,NA,NA,NA,NA,NA
1tfGvBOW,32k26u12eq14p7ktnmss8y5zd9bdv8,3txmy6ucai142rgsst897pk1dzuqcu,1tfGvBOW,2020-0188,2021-10-14,09:59:11,11:30:15,NA,incomplete,false,true,NA,7,2,NA,orange,n_l_003.jpg,NA,NA,unpleasant,pleasant,NA,NA,NA,NA,NA,left,1505.30000001192,true,NA,NA,NA,NA,NA
1tfGvBOW,32k26u12eq14p7ktnmss8y5zd9bdv8,3txmy6ucai142rgsst897pk1dzuqcu,1tfGvBOW,2020-0188,2021-10-14,09:59:11,11:30:15,NA,incomplete,false,true,NA,7,3,NA,orange,n_s_099.jpg,NA,NA,unpleasant,pleasant,NA,NA,NA,NA,NA,none,0,false,NA,NA,NA,NA,NA
1tfGvBOW,32k26u12eq14p7ktnmss8y5zd9bdv8,3txmy6ucai142rgsst897pk1dzuqcu,1tfGvBOW,2020-0188,2021-10-14,09:59:11,11:30:15,NA,incomplete,false,true,NA,7,4,NA,orange,n_s_019.jpg,NA,NA,pleasant,unpleasant,NA,NA,NA,NA,NA,none,0,false,NA,NA,NA,NA,NA
1tfGvBOW,32k26u12eq14p7ktnmss8y5zd9bdv8,3txmy6ucai142rgsst897pk1dzuqcu,1tfGvBOW,2020-0188,2021-10-14,09:59:11,11:30:15,NA,incomplete,false,true,NA,7,5,NA,orange,n_s_062.jpg,NA,NA,unpleasant,pleasant,NA,NA,NA,NA,NA,none,0,false,NA,NA,NA,NA,NA
1tfGvBOW,32k26u12eq14p7ktnmss8y5zd9bdv8,3txmy6ucai142rgsst897pk1dzuqcu,1tfGvBOW,2020-0188,2021-10-14,09:59:11,11:30:15,NA,incomplete,false,true,NA,7,6,NA,white,m_l_012.jpg,NA,NA,pleasant,unpleasant,NA,NA,NA,NA,NA,none,0,false,NA,NA,NA,NA,NA
1tfGvBOW,32k26u12eq14p7ktnmss8y5zd9bdv8,3txmy6ucai142rgsst897pk1dzuqcu,1tfGvBOW,2020-0188,2021-10-14,09:59:11,11:30:15,NA,incomplete,false,true,NA,7,7,NA,white,n_l_060.jpg,NA,NA,pleasant,unpleasant,NA,NA,NA,NA,NA,none,0,false,NA,NA,NA,NA,NA
1tfGvBOW,32k26u12eq14p7ktnmss8y5zd9bdv8,3txmy6ucai142rgsst897pk1dzuqcu,1tfGvBOW,2020-0188,2021-10-14,09:59:11,11:30:15,NA,incomplete,false,true,NA,7,8,NA,white,m_l_061.jpg,NA,NA,pleasant,unpleasant,NA,NA,NA,NA,NA,none,0,false,NA,NA,NA,NA,NA
1tfGvBOW,32k26u12eq14p7ktnmss8y5zd9bdv8,3txmy6ucai142rgsst897pk1dzuqcu,1tfGvBOW,2020-0188,2021-10-14,09:59:11,11:30:15,NA,incomplete,false,true,NA,7,9,NA,white,n_l_067.jpg,NA,NA,unpleasant,pleasant,NA,NA,NA,NA,NA,none,0,false,NA,NA,NA,NA,NA
1tfGvBOW,32k26u12eq14p7ktnmss8y5zd9bdv8,3txmy6ucai142rgsst897pk1dzuqcu,1tfGvBOW,2020-0188,2021-10-14,09:59:11,11:30:15,NA,incomplete,false,true,NA,7,10,NA,white,n_s_031.jpg,NA,NA,unpleasant,pleasant,NA,NA,NA,NA,NA,none,0,false,NA,NA,NA,NA,NA
1tfGvBOW,32k26u12eq14p7ktnmss8y5zd9bdv8,3txmy6ucai142rgsst897pk1dzuqcu,1tfGvBOW,2020-0188,2021-10-14,09:59:11,11:30:15,NA,incomplete,false,true,NA,7,11,NA,white,n_l_105.jpg,NA,NA,unpleasant,pleasant,NA,NA,NA,NA,NA,none,0,false,NA,NA,NA,NA,NA
1tfGvBOW,32k26u12eq14p7ktnmss8y5zd9bdv8,3txmy6ucai142rgsst897pk1dzuqcu,1tfGvBOW,2020-0188,2021-10-14,09:59:11,11:30:15,NA,incomplete,false,true,NA,7,12,NA,purple,m_l_096.jpg,NA,NA,unpleasant,pleasant,NA,NA,NA,NA,NA,none,0,false,NA,NA,NA,NA,NA
1tfGvBOW,32k26u12eq14p7ktnmss8y5zd9bdv8,3txmy6ucai142rgsst897pk1dzuqcu,1tfGvBOW,2020-0188,2021-10-14,09:59:11,11:30:15,NA,incomplete,false,true,NA,7,13,NA,purple,m_l_077.jpg,NA,NA,pleasant,unpleasant,NA,NA,NA,NA,NA,none,0,false,NA,NA,NA,NA,NA
1tfGvBOW,32k26u12eq14p7ktnmss8y5zd9bdv8,3txmy6ucai142rgsst897pk1dzuqcu,1tfGvBOW,2020-0188,2021-10-14,09:59:11,11:30:15,NA,incomplete,false,true,NA,7,14,NA,purple,m_l_056.jpg,NA,NA,unpleasant,pleasant,NA,NA,NA,NA,NA,none,0,false,NA,NA,NA,NA,NA
1tfGvBOW,32k26u12eq14p7ktnmss8y5zd9bdv8,3txmy6ucai142rgsst897pk1dzuqcu,1tfGvBOW,2020-0188,2021-10-14,09:59:11,11:30:15,NA,incomplete,false,true,NA,7,15,NA,purple,m_l_046.jpg,NA,NA,pleasant,unpleasant,NA,NA,NA,NA,NA,none,0,false,NA,NA,NA,NA,NA
1tfGvBOW,32k26u12eq14p7ktnmss8y5zd9bdv8,3txmy6ucai142rgsst897pk1dzuqcu,1tfGvBOW,2020-0188,2021-10-14,09:59:11,11:30:15,NA,incomplete,false,true,NA,7,16,NA,purple,m_s_074.jpg,NA,NA,unpleasant,pleasant,NA,NA,NA,NA,NA,none,0,false,NA,NA,NA,NA,NA
1tfGvBOW,32k26u12eq14p7ktnmss8y5zd9bdv8,3txmy6ucai142rgsst897pk1dzuqcu,1tfGvBOW,2020-0188,2021-10-14,09:59:11,11:30:15,NA,incomplete,false,true,NA,7,17,NA,purple,m_s_035.jpg,NA,NA,pleasant,unpleasant,NA,NA,NA,NA,NA,none,0,false,NA,NA,NA,NA,NA
1tfGvBOW,32k26u12eq14p7ktnmss8y5zd9bdv8,3txmy6ucai142rgsst897pk1dzuqcu,1tfGvBOW,2020-0188,2021-10-14,09:59:11,11:30:15,NA,incomplete,false,true,NA,7,18,NA,gray,m_s_100.jpg,NA,NA,unpleasant,pleasant,NA,NA,NA,NA,NA,none,0,false,NA,NA,NA,NA,NA
1tfGvBOW,32k26u12eq14p7ktnmss8y5zd9bdv8,3txmy6ucai142rgsst897pk1dzuqcu,1tfGvBOW,2020-0188,2021-10-14,09:59:11,11:30:15,NA,incomplete,false,true,NA,7,19,NA,gray,m_l_065.jpg,NA,NA,unpleasant,pleasant,NA,NA,NA,NA,NA,none,0,false,NA,NA,NA,NA,NA
1tfGvBOW,32k26u12eq14p7ktnmss8y5zd9bdv8,3txmy6ucai142rgsst897pk1dzuqcu,1tfGvBOW,2020-0188,2021-10-14,09:59:11,11:30:15,NA,incomplete,false,true,NA,7,20,NA,gray,m_s_011.jpg,NA,NA,pleasant,unpleasant,NA,NA,NA,NA,NA,none,0,false,NA,NA,NA,NA,NA
1tfGvBOW,32k26u12eq14p7ktnmss8y5zd9bdv8,3txmy6ucai142rgsst897pk1dzuqcu,1tfGvBOW,2020-0188,2021-10-14,09:59:11,11:30:15,NA,incomplete,false,true,NA,7,21,NA,gray,n_s_088.jpg,NA,NA,unpleasant,pleasant,NA,NA,NA,NA,NA,none,0,false,NA,NA,NA,NA,NA
1tfGvBOW,32k26u12eq14p7ktnmss8y5zd9bdv8,3txmy6ucai142rgsst897pk1dzuqcu,1tfGvBOW,2020-0188,2021-10-14,09:59:11,11:30:15,NA,incomplete,false,true,NA,7,22,NA,gray,m_l_082.jpg,NA,NA,unpleasant,pleasant,NA,NA,NA,NA,NA,none,0,false,NA,NA,NA,NA,NA
1tfGvBOW,32k26u12eq14p7ktnmss8y5zd9bdv8,3txmy6ucai142rgsst897pk1dzuqcu,1tfGvBOW,2020-0188,2021-10-14,09:59:11,11:30:15,NA,incomplete,false,true,NA,7,23,NA,gray,n_s_017.jpg,NA,NA,pleasant,unpleasant,NA,NA,NA,NA,NA,none,0,false,NA,NA,NA,NA,NA
1tfGvBOW,32k26u12eq14p7ktnmss8y5zd9bdv8,3txmy6ucai142rgsst897pk1dzuqcu,1tfGvBOW,2020-0188,2021-10-14,09:59:11,11:30:15,NA,incomplete,false,true,NA,7,24,NA,yellow,m_l_044.jpg,NA,NA,pleasant,unpleasant,NA,NA,NA,NA,NA,none,0,false,NA,NA,NA,NA,NA
1tfGvBOW,32k26u12eq14p7ktnmss8y5zd9bdv8,3txmy6ucai142rgsst897pk1dzuqcu,1tfGvBOW,2020-0188,2021-10-14,09:59:11,11:30:15,NA,incomplete,false,true,NA,7,25,NA,yellow,n_l_044.jpg,NA,NA,unpleasant,pleasant,NA,NA,NA,NA,NA,none,0,false,NA,NA,NA,NA,NA
1tfGvBOW,32k26u12eq14p7ktnmss8y5zd9bdv8,3txmy6ucai142rgsst897pk1dzuqcu,1tfGvBOW,2020-0188,2021-10-14,09:59:11,11:30:15,NA,incomplete,false,true,NA,7,26,NA,yellow,m_s_055.jpg,NA,NA,unpleasant,pleasant,NA,NA,NA,NA,NA,none,0,false,NA,NA,NA,NA,NA
1tfGvBOW,32k26u12eq14p7ktnmss8y5zd9bdv8,3txmy6ucai142rgsst897pk1dzuqcu,1tfGvBOW,2020-0188,2021-10-14,09:59:11,11:30:15,NA,incomplete,false,true,NA,7,27,NA,yellow,n_s_112.jpg,NA,NA,unpleasant,pleasant,NA,NA,NA,NA,NA,none,0,false,NA,NA,NA,NA,NA
1tfGvBOW,32k26u12eq14p7ktnmss8y5zd9bdv8,3txmy6ucai142rgsst897pk1dzuqcu,1tfGvBOW,2020-0188,2021-10-14,09:59:11,11:30:15,NA,incomplete,false,true,NA,7,28,NA,yellow,n_l_023.jpg,NA,NA,pleasant,unpleasant,NA,NA,NA,NA,NA,none,0,false,NA,NA,NA,NA,NA
1tfGvBOW,32k26u12eq14p7ktnmss8y5zd9bdv8,3txmy6ucai142rgsst897pk1dzuqcu,1tfGvBOW,2020-0188,2021-10-14,09:59:11,11:30:15,NA,incomplete,false,true,NA,7,29,NA,yellow,m_l_017.jpg,NA,NA,unpleasant,pleasant,NA,NA,NA,NA,NA,none,0,false,NA,NA,NA,NA,NA
1tfGvBOW,32k26u12eq14p7ktnmss8y5zd9bdv8,3txmy6ucai142rgsst897pk1dzuqcu,1tfGvBOW,2020-0188,2021-10-14,09:59:11,11:30:15,NA,incomplete,false,true,NA,7,30,NA,red,n_l_037.jpg,NA,NA,pleasant,unpleasant,NA,NA,NA,NA,NA,none,0,false,NA,NA,NA,NA,NA
1tfGvBOW,32k26u12eq14p7ktnmss8y5zd9bdv8,3txmy6ucai142rgsst897pk1dzuqcu,1tfGvBOW,2020-0188,2021-10-14,09:59:11,11:30:15,NA,incomplete,false,true,NA,7,31,NA,red,m_s_068.jpg,NA,NA,unpleasant,pleasant,NA,NA,NA,NA,NA,none,0,false,NA,NA,NA,NA,NA
1tfGvBOW,32k26u12eq14p7ktnmss8y5zd9bdv8,3txmy6ucai142rgsst897pk1dzuqcu,1tfGvBOW,2020-0188,2021-10-14,09:59:11,11:30:15,NA,incomplete,false,true,NA,7,32,NA,red,n_l_116.jpg,NA,NA,pleasant,unpleasant,NA,NA,NA,NA,NA,none,0,false,NA,NA,NA,NA,NA
1tfGvBOW,32k26u12eq14p7ktnmss8y5zd9bdv8,3txmy6ucai142rgsst897pk1dzuqcu,1tfGvBOW,2020-0188,2021-10-14,09:59:11,11:30:15,NA,incomplete,false,true,NA,7,33,NA,red,n_s_079.jpg,NA,NA,pleasant,unpleasant,NA,NA,NA,NA,NA,none,0,false,NA,NA,NA,NA,NA
1tfGvBOW,32k26u12eq14p7ktnmss8y5zd9bdv8,3txmy6ucai142rgsst897pk1dzuqcu,1tfGvBOW,2020-0188,2021-10-14,09:59:11,11:30:15,NA,incomplete,false,true,NA,7,34,NA,red,m_s_014.jpg,NA,NA,unpleasant,pleasant,NA,NA,NA,NA,NA,none,0,false,NA,NA,NA,NA,NA
1tfGvBOW,32k26u12eq14p7ktnmss8y5zd9bdv8,3txmy6ucai142rgsst897pk1dzuqcu,1tfGvBOW,2020-0188,2021-10-14,09:59:11,11:30:15,NA,incomplete,false,true,NA,7,35,NA,red,n_l_089.jpg,NA,NA,unpleasant,pleasant,NA,NA,NA,NA,NA,none,0,false,NA,NA,NA,NA,NA
1tfGvBOW,32k26u12eq14p7ktnmss8y5zd9bdv8,3txmy6ucai142rgsst897pk1dzuqcu,1tfGvBOW,2020-0188,2021-10-14,09:59:11,11:30:15,NA,incomplete,false,NA,true,7,0,NA,NA,NA,left,present,NA,NA,n_s_019.jpg,orange,m_l_061.jpg,white,between,NA,NaN,NA,right,6222.800000011921,0,2,1944.9000000059605
1tfGvBOW,32k26u12eq14p7ktnmss8y5zd9bdv8,3txmy6ucai142rgsst897pk1dzuqcu,1tfGvBOW,2020-0188,2021-10-14,09:59:11,11:30:15,NA,incomplete,false,NA,true,7,1,NA,NA,NA,right,present,NA,NA,m_s_011.jpg,gray,m_s_074.jpg,purple,between,NA,NaN,NA,right,12757.09999999404,1,2,2270.9000000059605
1tfGvBOW,32k26u12eq14p7ktnmss8y5zd9bdv8,3txmy6ucai142rgsst897pk1dzuqcu,1tfGvBOW,2020-0188,2021-10-14,09:59:11,11:30:15,NA,incomplete,false,NA,true,7,2,NA,NA,NA,right,present,NA,NA,n_l_105.jpg,white,n_l_060.jpg,white,within,NA,NaN,NA,right,3387.2999999821186,1,1,1825.2000000178814
1tfGvBOW,32k26u12eq14p7ktnmss8y5zd9bdv8,3txmy6ucai142rgsst897pk1dzuqcu,1tfGvBOW,2020-0188,2021-10-14,09:59:11,11:30:15,NA,incomplete,false,NA,true,7,3,NA,NA,NA,left,present,NA,NA,m_l_082.jpg,gray,m_s_055.jpg,yellow,between,NA,NaN,NA,left,5526.899999976158,1,2,1981
1tfGvBOW,32k26u12eq14p7ktnmss8y5zd9bdv8,3txmy6ucai142rgsst897pk1dzuqcu,1tfGvBOW,2020-0188,2021-10-14,09:59:11,11:30:15,NA,incomplete,false,NA,true,7,4,NA,NA,NA,right,present,NA,NA,m_l_056.jpg,purple,n_s_031.jpg,white,between,NA,NaN,NA,left,4649.4000000059605,0,2,1908.8999999761581
1tfGvBOW,32k26u12eq14p7ktnmss8y5zd9bdv8,3txmy6ucai142rgsst897pk1dzuqcu,1tfGvBOW,2020-0188,2021-10-14,09:59:11,11:30:15,NA,incomplete,false,NA,true,7,5,NA,NA,NA,left,present,NA,NA,m_l_112.jpg,orange,n_s_062.jpg,orange,within,NA,NaN,NA,right,3953,0,0,3485.0999999940395
1tfGvBOW,32k26u12eq14p7ktnmss8y5zd9bdv8,3txmy6ucai142rgsst897pk1dzuqcu,1tfGvBOW,2020-0188,2021-10-14,09:59:11,11:30:15,NA,incomplete,false,NA,true,7,6,NA,NA,NA,left,present,NA,NA,m_l_065.jpg,gray,n_s_017.jpg,gray,within,NA,NaN,NA,left,9303.09999999404,1,0,1653
1tfGvBOW,32k26u12eq14p7ktnmss8y5zd9bdv8,3txmy6ucai142rgsst897pk1dzuqcu,1tfGvBOW,2020-0188,2021-10-14,09:59:11,11:30:15,NA,incomplete,false,NA,true,7,7,NA,NA,NA,left,present,NA,NA,m_l_077.jpg,purple,m_s_035.jpg,purple,within,NA,NaN,NA,left,2779.199999988079,1,0,2779.0999999940395
1tfGvBOW,32k26u12eq14p7ktnmss8y5zd9bdv8,3txmy6ucai142rgsst897pk1dzuqcu,1tfGvBOW,2020-0188,2021-10-14,09:59:11,11:30:15,NA,incomplete,false,NA,true,7,8,NA,NA,NA,right,present,NA,NA,m_l_017.jpg,yellow,n_l_044.jpg,yellow,within,NA,NaN,NA,left,3454.800000011921,0,0,1599.0999999940395
1tfGvBOW,32k26u12eq14p7ktnmss8y5zd9bdv8,3txmy6ucai142rgsst897pk1dzuqcu,1tfGvBOW,2020-0188,2021-10-14,09:59:11,11:30:15,NA,incomplete,false,NA,true,7,9,NA,NA,NA,right,present,NA,NA,n_l_116.jpg,red,n_l_023.jpg,yellow,between,NA,NaN,NA,right,4005.2000000178814,1,1,2251.100000023842
1tfGvBOW,32k26u12eq14p7ktnmss8y5zd9bdv8,3txmy6ucai142rgsst897pk1dzuqcu,1tfGvBOW,2020-0188,2021-10-14,09:59:11,11:30:15,NA,incomplete,false,NA,true,7,10,NA,NA,NA,right,present,NA,NA,n_l_089.jpg,red,m_s_068.jpg,red,within,NA,NaN,NA,left,3963.100000023842,0,0,4331.200000017881
1tfGvBOW,32k26u12eq14p7ktnmss8y5zd9bdv8,3txmy6ucai142rgsst897pk1dzuqcu,1tfGvBOW,2020-0188,2021-10-14,09:59:11,11:30:15,NA,incomplete,false,true,NA,8,0,NA,black,n_s_081.jpg,NA,NA,unpleasant,pleasant,NA,NA,NA,NA,NA,left,2781.10000002384,true,NA,NA,NA,NA,NA
1tfGvBOW,32k26u12eq14p7ktnmss8y5zd9bdv8,3txmy6ucai142rgsst897pk1dzuqcu,1tfGvBOW,2020-0188,2021-10-14,09:59:11,11:30:15,NA,incomplete,false,true,NA,8,1,NA,black,n_l_020.jpg,NA,NA,unpleasant,pleasant,NA,NA,NA,NA,NA,left,1866.19999998808,true,NA,NA,NA,NA,NA
1tfGvBOW,32k26u12eq14p7ktnmss8y5zd9bdv8,3txmy6ucai142rgsst897pk1dzuqcu,1tfGvBOW,2020-0188,2021-10-14,09:59:11,11:30:15,NA,incomplete,false,true,NA,8,2,NA,black,n_l_054.jpg,NA,NA,unpleasant,pleasant,NA,NA,NA,NA,NA,left,2686.80000001192,true,NA,NA,NA,NA,NA
1tfGvBOW,32k26u12eq14p7ktnmss8y5zd9bdv8,3txmy6ucai142rgsst897pk1dzuqcu,1tfGvBOW,2020-0188,2021-10-14,09:59:11,11:30:15,NA,incomplete,false,true,NA,8,3,NA,black,m_l_102.jpg,NA,NA,pleasant,unpleasant,NA,NA,NA,NA,NA,none,0,false,NA,NA,NA,NA,NA
1tfGvBOW,32k26u12eq14p7ktnmss8y5zd9bdv8,3txmy6ucai142rgsst897pk1dzuqcu,1tfGvBOW,2020-0188,2021-10-14,09:59:11,11:30:15,NA,incomplete,false,true,NA,8,4,NA,black,n_l_103.jpg,NA,NA,pleasant,unpleasant,NA,NA,NA,NA,NA,none,0,false,NA,NA,NA,NA,NA
1tfGvBOW,32k26u12eq14p7ktnmss8y5zd9bdv8,3txmy6ucai142rgsst897pk1dzuqcu,1tfGvBOW,2020-0188,2021-10-14,09:59:11,11:30:15,NA,incomplete,false,true,NA,8,5,NA,black,n_s_060.jpg,NA,NA,pleasant,unpleasant,NA,NA,NA,NA,NA,none,0,false,NA,NA,NA,NA,NA
1tfGvBOW,32k26u12eq14p7ktnmss8y5zd9bdv8,3txmy6ucai142rgsst897pk1dzuqcu,1tfGvBOW,2020-0188,2021-10-14,09:59:11,11:30:15,NA,incomplete,false,true,NA,8,6,NA,green,n_s_036.jpg,NA,NA,pleasant,unpleasant,NA,NA,NA,NA,NA,none,0,false,NA,NA,NA,NA,NA
1tfGvBOW,32k26u12eq14p7ktnmss8y5zd9bdv8,3txmy6ucai142rgsst897pk1dzuqcu,1tfGvBOW,2020-0188,2021-10-14,09:59:11,11:30:15,NA,incomplete,false,true,NA,8,7,NA,green,n_s_014.jpg,NA,NA,pleasant,unpleasant,NA,NA,NA,NA,NA,none,0,false,NA,NA,NA,NA,NA
1tfGvBOW,32k26u12eq14p7ktnmss8y5zd9bdv8,3txmy6ucai142rgsst897pk1dzuqcu,1tfGvBOW,2020-0188,2021-10-14,09:59:11,11:30:15,NA,incomplete,false,true,NA,8,8,NA,green,m_s_101.jpg,NA,NA,pleasant,unpleasant,NA,NA,NA,NA,NA,none,0,false,NA,NA,NA,NA,NA
1tfGvBOW,32k26u12eq14p7ktnmss8y5zd9bdv8,3txmy6ucai142rgsst897pk1dzuqcu,1tfGvBOW,2020-0188,2021-10-14,09:59:11,11:30:15,NA,incomplete,false,true,NA,8,9,NA,green,m_l_039.jpg,NA,NA,pleasant,unpleasant,NA,NA,NA,NA,NA,none,0,false,NA,NA,NA,NA,NA
1tfGvBOW,32k26u12eq14p7ktnmss8y5zd9bdv8,3txmy6ucai142rgsst897pk1dzuqcu,1tfGvBOW,2020-0188,2021-10-14,09:59:11,11:30:15,NA,incomplete,false,true,NA,8,10,NA,green,n_s_113.jpg,NA,NA,unpleasant,pleasant,NA,NA,NA,NA,NA,none,0,false,NA,NA,NA,NA,NA
1tfGvBOW,32k26u12eq14p7ktnmss8y5zd9bdv8,3txmy6ucai142rgsst897pk1dzuqcu,1tfGvBOW,2020-0188,2021-10-14,09:59:11,11:30:15,NA,incomplete,false,true,NA,8,11,NA,green,m_s_037.jpg,NA,NA,unpleasant,pleasant,NA,NA,NA,NA,NA,none,0,false,NA,NA,NA,NA,NA
