workerId,hitId,assignmentId,subject,studyid,exp_date,exp_start,exp_end,time_start,time_end,practice,encoding,memory,block,trial,event_order,event,stim,answer,context_type,label_left,label_right,left_image,left_event,right_image,right_event,condition,response,response_time,response_acc,order_response,order_response_time,order_acc,distance_response,distance_response_time
3GnOCmNx,3uy4pis8ruyxp7v852m6xfad2fzn1g,3fe7txl1lm0r49oqv0j3vcbf1k4q2w,3GnOCmNx,2020-0188,2021-10-17,11:23:40,12:52:22,NA,incomplete,true,true,NA,0,0,NA,green,m_s_038.jpg,NA,NA,pleasant,unpleasant,NA,NA,NA,NA,NA,left,2560.09999999404,true,NA,NA,NA,NA,NA
3GnOCmNx,3uy4pis8ruyxp7v852m6xfad2fzn1g,3fe7txl1lm0r49oqv0j3vcbf1k4q2w,3GnOCmNx,2020-0188,2021-10-17,11:23:40,12:52:22,NA,incomplete,true,true,NA,0,1,NA,green,n_s_066.jpg,NA,NA,unpleasant,pleasant,NA,NA,NA,NA,NA,left,2167.20000000298,true,NA,NA,NA,NA,NA
3GnOCmNx,3uy4pis8ruyxp7v852m6xfad2fzn1g,3fe7txl1lm0r49oqv0j3vcbf1k4q2w,3GnOCmNx,2020-0188,2021-10-17,11:23:40,12:52:22,NA,incomplete,true,true,NA,0,2,NA,green,n_l_004.jpg,NA,NA,pleasant,unpleasant,NA,NA,NA,NA,NA,left,1915.5,true,NA,NA,NA,NA,NA
3GnOCmNx,3uy4pis8ruyxp7v852m6xfad2fzn1g,3fe7txl1lm0r49oqv0j3vcbf1k4q2w,3GnOCmNx,2020-0188,2021-10-17,11:23:40,12:52:22,NA,incomplete,true,true,NA,0,3,NA,green,n_s_023.jpg,NA,NA,unpleasant,pleasant,NA,NA,NA,NA,NA,left,1551.10000000894,true,NA,NA,NA,NA,NA
3GnOCmNx,3uy4pis8ruyxp7v852m6xfad2fzn1g,3fe7txl1lm0r49oqv0j3vcbf1k4q2w,3GnOCmNx,2020-0188,2021-10-17,11:23:40,12:52:22,NA,incomplete,true,true,NA,0,4,NA,green,m_s_092.jpg,NA,NA,pleasant,unpleasant,NA,NA,NA,NA,NA,right,2492.09999999404,true,NA,NA,NA,NA,NA
3GnOCmNx,3uy4pis8ruyxp7v852m6xfad2fzn1g,3fe7txl1lm0r49oqv0j3vcbf1k4q2w,3GnOCmNx,2020-0188,2021-10-17,11:23:40,12:52:22,NA,incomplete,true,true,NA,0,5,NA,green,m_s_093.jpg,NA,NA,unpleasant,pleasant,NA,NA,NA,NA,NA,left,2618.79999999702,true,NA,NA,NA,NA,NA
3GnOCmNx,3uy4pis8ruyxp7v852m6xfad2fzn1g,3fe7txl1lm0r49oqv0j3vcbf1k4q2w,3GnOCmNx,2020-0188,2021-10-17,11:23:40,12:52:22,NA,incomplete,true,true,NA,0,6,NA,white,n_l_028.jpg,NA,NA,unpleasant,pleasant,NA,NA,NA,NA,NA,right,2306.40000000596,true,NA,NA,NA,NA,NA
3GnOCmNx,3uy4pis8ruyxp7v852m6xfad2fzn1g,3fe7txl1lm0r49oqv0j3vcbf1k4q2w,3GnOCmNx,2020-0188,2021-10-17,11:23:40,12:52:22,NA,incomplete,true,true,NA,0,7,NA,white,n_s_040.jpg,NA,NA,unpleasant,pleasant,NA,NA,NA,NA,NA,left,1575.69999998808,true,NA,NA,NA,NA,NA
3GnOCmNx,3uy4pis8ruyxp7v852m6xfad2fzn1g,3fe7txl1lm0r49oqv0j3vcbf1k4q2w,3GnOCmNx,2020-0188,2021-10-17,11:23:40,12:52:22,NA,incomplete,true,true,NA,0,8,NA,white,m_s_113.jpg,NA,NA,unpleasant,pleasant,NA,NA,NA,NA,NA,right,1702.09999999404,true,NA,NA,NA,NA,NA
3GnOCmNx,3uy4pis8ruyxp7v852m6xfad2fzn1g,3fe7txl1lm0r49oqv0j3vcbf1k4q2w,3GnOCmNx,2020-0188,2021-10-17,11:23:40,12:52:22,NA,incomplete,true,true,NA,0,9,NA,white,n_l_030.jpg,NA,NA,unpleasant,pleasant,NA,NA,NA,NA,NA,left,1350.39999999106,true,NA,NA,NA,NA,NA
3GnOCmNx,3uy4pis8ruyxp7v852m6xfad2fzn1g,3fe7txl1lm0r49oqv0j3vcbf1k4q2w,3GnOCmNx,2020-0188,2021-10-17,11:23:40,12:52:22,NA,incomplete,true,true,NA,0,10,NA,white,m_s_040.jpg,NA,NA,pleasant,unpleasant,NA,NA,NA,NA,NA,left,1630.09999999404,true,NA,NA,NA,NA,NA
3GnOCmNx,3uy4pis8ruyxp7v852m6xfad2fzn1g,3fe7txl1lm0r49oqv0j3vcbf1k4q2w,3GnOCmNx,2020-0188,2021-10-17,11:23:40,12:52:22,NA,incomplete,true,true,NA,0,11,NA,white,m_l_048.jpg,NA,NA,unpleasant,pleasant,NA,NA,NA,NA,NA,right,1157.69999998808,true,NA,NA,NA,NA,NA
3GnOCmNx,3uy4pis8ruyxp7v852m6xfad2fzn1g,3fe7txl1lm0r49oqv0j3vcbf1k4q2w,3GnOCmNx,2020-0188,2021-10-17,11:23:40,12:52:22,NA,incomplete,true,true,NA,0,12,NA,blue,n_s_042.jpg,NA,NA,pleasant,unpleasant,NA,NA,NA,NA,NA,left,2208.40000000596,true,NA,NA,NA,NA,NA
3GnOCmNx,3uy4pis8ruyxp7v852m6xfad2fzn1g,3fe7txl1lm0r49oqv0j3vcbf1k4q2w,3GnOCmNx,2020-0188,2021-10-17,11:23:40,12:52:22,NA,incomplete,true,true,NA,0,13,NA,blue,m_l_035.jpg,NA,NA,unpleasant,pleasant,NA,NA,NA,NA,NA,right,1599,true,NA,NA,NA,NA,NA
3GnOCmNx,3uy4pis8ruyxp7v852m6xfad2fzn1g,3fe7txl1lm0r49oqv0j3vcbf1k4q2w,3GnOCmNx,2020-0188,2021-10-17,11:23:40,12:52:22,NA,incomplete,true,true,NA,0,14,NA,blue,n_l_087.jpg,NA,NA,pleasant,unpleasant,NA,NA,NA,NA,NA,right,1820,true,NA,NA,NA,NA,NA
3GnOCmNx,3uy4pis8ruyxp7v852m6xfad2fzn1g,3fe7txl1lm0r49oqv0j3vcbf1k4q2w,3GnOCmNx,2020-0188,2021-10-17,11:23:40,12:52:22,NA,incomplete,true,true,NA,0,15,NA,blue,n_l_015.jpg,NA,NA,unpleasant,pleasant,NA,NA,NA,NA,NA,left,1327.09999999404,true,NA,NA,NA,NA,NA
3GnOCmNx,3uy4pis8ruyxp7v852m6xfad2fzn1g,3fe7txl1lm0r49oqv0j3vcbf1k4q2w,3GnOCmNx,2020-0188,2021-10-17,11:23:40,12:52:22,NA,incomplete,true,true,NA,0,16,NA,blue,m_s_056.jpg,NA,NA,pleasant,unpleasant,NA,NA,NA,NA,NA,left,1499.79999999702,true,NA,NA,NA,NA,NA
3GnOCmNx,3uy4pis8ruyxp7v852m6xfad2fzn1g,3fe7txl1lm0r49oqv0j3vcbf1k4q2w,3GnOCmNx,2020-0188,2021-10-17,11:23:40,12:52:22,NA,incomplete,true,true,NA,0,17,NA,blue,n_l_067.jpg,NA,NA,pleasant,unpleasant,NA,NA,NA,NA,NA,right,1325.5,true,NA,NA,NA,NA,NA
3GnOCmNx,3uy4pis8ruyxp7v852m6xfad2fzn1g,3fe7txl1lm0r49oqv0j3vcbf1k4q2w,3GnOCmNx,2020-0188,2021-10-17,11:23:40,12:52:22,NA,incomplete,true,true,NA,0,18,NA,purple,n_s_101.jpg,NA,NA,pleasant,unpleasant,NA,NA,NA,NA,NA,right,1415.30000001192,true,NA,NA,NA,NA,NA
3GnOCmNx,3uy4pis8ruyxp7v852m6xfad2fzn1g,3fe7txl1lm0r49oqv0j3vcbf1k4q2w,3GnOCmNx,2020-0188,2021-10-17,11:23:40,12:52:22,NA,incomplete,true,true,NA,0,19,NA,purple,n_l_090.jpg,NA,NA,pleasant,unpleasant,NA,NA,NA,NA,NA,right,1804.29999999702,true,NA,NA,NA,NA,NA
3GnOCmNx,3uy4pis8ruyxp7v852m6xfad2fzn1g,3fe7txl1lm0r49oqv0j3vcbf1k4q2w,3GnOCmNx,2020-0188,2021-10-17,11:23:40,12:52:22,NA,incomplete,true,true,NA,0,20,NA,purple,n_l_095.jpg,NA,NA,pleasant,unpleasant,NA,NA,NA,NA,NA,right,1231.5,true,NA,NA,NA,NA,NA
3GnOCmNx,3uy4pis8ruyxp7v852m6xfad2fzn1g,3fe7txl1lm0r49oqv0j3vcbf1k4q2w,3GnOCmNx,2020-0188,2021-10-17,11:23:40,12:52:22,NA,incomplete,true,true,NA,0,21,NA,purple,n_l_075.jpg,NA,NA,pleasant,unpleasant,NA,NA,NA,NA,NA,left,1484.90000000596,true,NA,NA,NA,NA,NA
3GnOCmNx,3uy4pis8ruyxp7v852m6xfad2fzn1g,3fe7txl1lm0r49oqv0j3vcbf1k4q2w,3GnOCmNx,2020-0188,2021-10-17,11:23:40,12:52:22,NA,incomplete,true,true,NA,0,22,NA,purple,n_s_115.jpg,NA,NA,unpleasant,pleasant,NA,NA,NA,NA,NA,right,2018.30000001192,true,NA,NA,NA,NA,NA
3GnOCmNx,3uy4pis8ruyxp7v852m6xfad2fzn1g,3fe7txl1lm0r49oqv0j3vcbf1k4q2w,3GnOCmNx,2020-0188,2021-10-17,11:23:40,12:52:22,NA,incomplete,true,true,NA,0,23,NA,purple,n_l_096.jpg,NA,NA,unpleasant,pleasant,NA,NA,NA,NA,NA,left,1211.29999999702,true,NA,NA,NA,NA,NA
3GnOCmNx,3uy4pis8ruyxp7v852m6xfad2fzn1g,3fe7txl1lm0r49oqv0j3vcbf1k4q2w,3GnOCmNx,2020-0188,2021-10-17,11:23:40,12:52:22,NA,incomplete,true,true,NA,0,24,NA,orange,m_l_068.jpg,NA,NA,unpleasant,pleasant,NA,NA,NA,NA,NA,right,1407.40000000596,true,NA,NA,NA,NA,NA
3GnOCmNx,3uy4pis8ruyxp7v852m6xfad2fzn1g,3fe7txl1lm0r49oqv0j3vcbf1k4q2w,3GnOCmNx,2020-0188,2021-10-17,11:23:40,12:52:22,NA,incomplete,true,true,NA,0,25,NA,orange,n_s_086.jpg,NA,NA,pleasant,unpleasant,NA,NA,NA,NA,NA,right,1977.59999999404,true,NA,NA,NA,NA,NA
3GnOCmNx,3uy4pis8ruyxp7v852m6xfad2fzn1g,3fe7txl1lm0r49oqv0j3vcbf1k4q2w,3GnOCmNx,2020-0188,2021-10-17,11:23:40,12:52:22,NA,incomplete,true,true,NA,0,26,NA,orange,m_s_067.jpg,NA,NA,unpleasant,pleasant,NA,NA,NA,NA,NA,left,2118.90000000596,true,NA,NA,NA,NA,NA
3GnOCmNx,3uy4pis8ruyxp7v852m6xfad2fzn1g,3fe7txl1lm0r49oqv0j3vcbf1k4q2w,3GnOCmNx,2020-0188,2021-10-17,11:23:40,12:52:22,NA,incomplete,true,true,NA,0,27,NA,orange,m_s_063.jpg,NA,NA,unpleasant,pleasant,NA,NA,NA,NA,NA,right,1073,true,NA,NA,NA,NA,NA
3GnOCmNx,3uy4pis8ruyxp7v852m6xfad2fzn1g,3fe7txl1lm0r49oqv0j3vcbf1k4q2w,3GnOCmNx,2020-0188,2021-10-17,11:23:40,12:52:22,NA,incomplete,true,true,NA,0,28,NA,orange,m_l_067.jpg,NA,NA,unpleasant,pleasant,NA,NA,NA,NA,NA,right,1909.70000000298,true,NA,NA,NA,NA,NA
3GnOCmNx,3uy4pis8ruyxp7v852m6xfad2fzn1g,3fe7txl1lm0r49oqv0j3vcbf1k4q2w,3GnOCmNx,2020-0188,2021-10-17,11:23:40,12:52:22,NA,incomplete,true,true,NA,0,29,NA,orange,n_l_099.jpg,NA,NA,pleasant,unpleasant,NA,NA,NA,NA,NA,right,1410.5,true,NA,NA,NA,NA,NA
3GnOCmNx,3uy4pis8ruyxp7v852m6xfad2fzn1g,3fe7txl1lm0r49oqv0j3vcbf1k4q2w,3GnOCmNx,2020-0188,2021-10-17,11:23:40,12:52:22,NA,incomplete,true,true,NA,0,30,NA,red,n_l_116.jpg,NA,NA,pleasant,unpleasant,NA,NA,NA,NA,NA,right,1774.10000000894,true,NA,NA,NA,NA,NA
3GnOCmNx,3uy4pis8ruyxp7v852m6xfad2fzn1g,3fe7txl1lm0r49oqv0j3vcbf1k4q2w,3GnOCmNx,2020-0188,2021-10-17,11:23:40,12:52:22,NA,incomplete,true,true,NA,0,31,NA,red,m_l_073.jpg,NA,NA,pleasant,unpleasant,NA,NA,NA,NA,NA,left,1895.40000000596,true,NA,NA,NA,NA,NA
3GnOCmNx,3uy4pis8ruyxp7v852m6xfad2fzn1g,3fe7txl1lm0r49oqv0j3vcbf1k4q2w,3GnOCmNx,2020-0188,2021-10-17,11:23:40,12:52:22,NA,incomplete,true,true,NA,0,32,NA,red,n_s_013.jpg,NA,NA,unpleasant,pleasant,NA,NA,NA,NA,NA,right,1379.20000000298,true,NA,NA,NA,NA,NA
3GnOCmNx,3uy4pis8ruyxp7v852m6xfad2fzn1g,3fe7txl1lm0r49oqv0j3vcbf1k4q2w,3GnOCmNx,2020-0188,2021-10-17,11:23:40,12:52:22,NA,incomplete,true,true,NA,0,33,NA,red,m_s_061.jpg,NA,NA,pleasant,unpleasant,NA,NA,NA,NA,NA,left,1344.70000000298,true,NA,NA,NA,NA,NA
3GnOCmNx,3uy4pis8ruyxp7v852m6xfad2fzn1g,3fe7txl1lm0r49oqv0j3vcbf1k4q2w,3GnOCmNx,2020-0188,2021-10-17,11:23:40,12:52:22,NA,incomplete,true,true,NA,0,34,NA,red,n_l_046.jpg,NA,NA,pleasant,unpleasant,NA,NA,NA,NA,NA,right,1167.59999999404,true,NA,NA,NA,NA,NA
3GnOCmNx,3uy4pis8ruyxp7v852m6xfad2fzn1g,3fe7txl1lm0r49oqv0j3vcbf1k4q2w,3GnOCmNx,2020-0188,2021-10-17,11:23:40,12:52:22,NA,incomplete,true,true,NA,0,35,NA,red,m_s_041.jpg,NA,NA,unpleasant,pleasant,NA,NA,NA,NA,NA,right,1323.5,true,NA,NA,NA,NA,NA
3GnOCmNx,3uy4pis8ruyxp7v852m6xfad2fzn1g,3fe7txl1lm0r49oqv0j3vcbf1k4q2w,3GnOCmNx,2020-0188,2021-10-17,11:23:40,12:52:22,NA,incomplete,true,NA,true,0,0,NA,NA,NA,right,present,NA,NA,n_l_067.jpg,blue,m_l_035.jpg,blue,within,NA,NaN,NA,left,4099.4000000059605,0,1,3026.4000000059605
3GnOCmNx,3uy4pis8ruyxp7v852m6xfad2fzn1g,3fe7txl1lm0r49oqv0j3vcbf1k4q2w,3GnOCmNx,2020-0188,2021-10-17,11:23:40,12:52:22,NA,incomplete,true,NA,true,0,1,NA,NA,NA,left,absent,NA,NA,m_s_092.jpg,green,m_s_113.jpg,white,between,NA,NaN,NA,left,3541.5,1,1,3272.7000000029802
3GnOCmNx,3uy4pis8ruyxp7v852m6xfad2fzn1g,3fe7txl1lm0r49oqv0j3vcbf1k4q2w,3GnOCmNx,2020-0188,2021-10-17,11:23:40,12:52:22,NA,incomplete,true,NA,true,0,2,NA,NA,NA,right,present,NA,NA,n_s_013.jpg,red,m_l_067.jpg,orange,between,NA,NaN,NA,right,3003,1,2,2279.5
3GnOCmNx,3uy4pis8ruyxp7v852m6xfad2fzn1g,3fe7txl1lm0r49oqv0j3vcbf1k4q2w,3GnOCmNx,2020-0188,2021-10-17,11:23:40,12:52:22,NA,incomplete,true,NA,true,0,3,NA,NA,NA,right,absent,NA,NA,m_s_093.jpg,green,n_s_066.jpg,green,within,NA,NaN,NA,right,3864.4000000059605,1,1,1921.699999988079
3GnOCmNx,3uy4pis8ruyxp7v852m6xfad2fzn1g,3fe7txl1lm0r49oqv0j3vcbf1k4q2w,3GnOCmNx,2020-0188,2021-10-17,11:23:40,12:52:22,NA,incomplete,true,NA,true,0,4,NA,NA,NA,right,present,NA,NA,n_l_096.jpg,purple,n_l_090.jpg,purple,within,NA,NaN,NA,right,3647.5,1,1,1982.4000000059605
3GnOCmNx,3uy4pis8ruyxp7v852m6xfad2fzn1g,3fe7txl1lm0r49oqv0j3vcbf1k4q2w,3GnOCmNx,2020-0188,2021-10-17,11:23:40,12:52:22,NA,incomplete,true,NA,true,0,5,NA,NA,NA,right,absent,NA,NA,n_l_099.jpg,orange,n_s_086.jpg,orange,within,NA,NaN,NA,left,4788.20000000298,0,0,1556.5999999940395
3GnOCmNx,3uy4pis8ruyxp7v852m6xfad2fzn1g,3fe7txl1lm0r49oqv0j3vcbf1k4q2w,3GnOCmNx,2020-0188,2021-10-17,11:23:40,12:52:22,NA,incomplete,true,NA,true,0,6,NA,NA,NA,right,present,NA,NA,m_s_041.jpg,red,m_l_073.jpg,red,within,NA,NaN,NA,left,4565.29999999702,0,0,2020.9000000059605
3GnOCmNx,3uy4pis8ruyxp7v852m6xfad2fzn1g,3fe7txl1lm0r49oqv0j3vcbf1k4q2w,3GnOCmNx,2020-0188,2021-10-17,11:23:40,12:52:22,NA,incomplete,true,NA,true,0,7,NA,NA,NA,left,present,NA,NA,n_s_115.jpg,purple,m_s_067.jpg,orange,between,NA,NaN,NA,left,5344.399999991059,1,2,1331.5999999940395
3GnOCmNx,3uy4pis8ruyxp7v852m6xfad2fzn1g,3fe7txl1lm0r49oqv0j3vcbf1k4q2w,3GnOCmNx,2020-0188,2021-10-17,11:23:40,12:52:22,NA,incomplete,true,NA,true,0,8,NA,NA,NA,right,absent,NA,NA,n_l_095.jpg,purple,m_s_056.jpg,blue,between,NA,NaN,NA,left,4823.4000000059605,0,1,2104.7999999970198
3GnOCmNx,3uy4pis8ruyxp7v852m6xfad2fzn1g,3fe7txl1lm0r49oqv0j3vcbf1k4q2w,3GnOCmNx,2020-0188,2021-10-17,11:23:40,12:52:22,NA,incomplete,true,NA,true,0,9,NA,NA,NA,right,absent,NA,NA,m_l_048.jpg,white,n_s_040.jpg,white,within,NA,NaN,NA,left,2878.800000011921,0,1,1573.5
3GnOCmNx,3uy4pis8ruyxp7v852m6xfad2fzn1g,3fe7txl1lm0r49oqv0j3vcbf1k4q2w,3GnOCmNx,2020-0188,2021-10-17,11:23:40,12:52:22,NA,incomplete,true,NA,true,0,10,NA,NA,NA,left,absent,NA,NA,m_s_040.jpg,white,n_l_087.jpg,blue,between,NA,NaN,NA,left,2484.7999999970198,1,0,2539.5999999940395
3GnOCmNx,3uy4pis8ruyxp7v852m6xfad2fzn1g,3fe7txl1lm0r49oqv0j3vcbf1k4q2w,3GnOCmNx,2020-0188,2021-10-17,11:23:40,12:52:22,NA,incomplete,false,true,NA,1,0,NA,gray,m_s_003.jpg,NA,NA,unpleasant,pleasant,NA,NA,NA,NA,NA,left,2888.39999999106,true,NA,NA,NA,NA,NA
3GnOCmNx,3uy4pis8ruyxp7v852m6xfad2fzn1g,3fe7txl1lm0r49oqv0j3vcbf1k4q2w,3GnOCmNx,2020-0188,2021-10-17,11:23:40,12:52:22,NA,incomplete,false,true,NA,1,1,NA,gray,m_s_096.jpg,NA,NA,pleasant,unpleasant,NA,NA,NA,NA,NA,left,2513.70000000298,true,NA,NA,NA,NA,NA
3GnOCmNx,3uy4pis8ruyxp7v852m6xfad2fzn1g,3fe7txl1lm0r49oqv0j3vcbf1k4q2w,3GnOCmNx,2020-0188,2021-10-17,11:23:40,12:52:22,NA,incomplete,false,true,NA,1,2,NA,gray,m_l_075.jpg,NA,NA,pleasant,unpleasant,NA,NA,NA,NA,NA,left,1856.90000000596,true,NA,NA,NA,NA,NA
3GnOCmNx,3uy4pis8ruyxp7v852m6xfad2fzn1g,3fe7txl1lm0r49oqv0j3vcbf1k4q2w,3GnOCmNx,2020-0188,2021-10-17,11:23:40,12:52:22,NA,incomplete,false,true,NA,1,3,NA,gray,n_s_011.jpg,NA,NA,unpleasant,pleasant,NA,NA,NA,NA,NA,left,2278.59999999404,true,NA,NA,NA,NA,NA
3GnOCmNx,3uy4pis8ruyxp7v852m6xfad2fzn1g,3fe7txl1lm0r49oqv0j3vcbf1k4q2w,3GnOCmNx,2020-0188,2021-10-17,11:23:40,12:52:22,NA,incomplete,false,true,NA,1,4,NA,gray,m_s_007.jpg,NA,NA,unpleasant,pleasant,NA,NA,NA,NA,NA,left,2397.90000000596,true,NA,NA,NA,NA,NA
3GnOCmNx,3uy4pis8ruyxp7v852m6xfad2fzn1g,3fe7txl1lm0r49oqv0j3vcbf1k4q2w,3GnOCmNx,2020-0188,2021-10-17,11:23:40,12:52:22,NA,incomplete,false,true,NA,1,5,NA,gray,m_s_059.jpg,NA,NA,pleasant,unpleasant,NA,NA,NA,NA,NA,right,1845.70000000298,true,NA,NA,NA,NA,NA
3GnOCmNx,3uy4pis8ruyxp7v852m6xfad2fzn1g,3fe7txl1lm0r49oqv0j3vcbf1k4q2w,3GnOCmNx,2020-0188,2021-10-17,11:23:40,12:52:22,NA,incomplete,false,true,NA,1,6,NA,yellow,m_l_012.jpg,NA,NA,unpleasant,pleasant,NA,NA,NA,NA,NA,right,2458.79999999702,true,NA,NA,NA,NA,NA
3GnOCmNx,3uy4pis8ruyxp7v852m6xfad2fzn1g,3fe7txl1lm0r49oqv0j3vcbf1k4q2w,3GnOCmNx,2020-0188,2021-10-17,11:23:40,12:52:22,NA,incomplete,false,true,NA,1,7,NA,yellow,m_s_046.jpg,NA,NA,unpleasant,pleasant,NA,NA,NA,NA,NA,right,1969.59999999404,true,NA,NA,NA,NA,NA
3GnOCmNx,3uy4pis8ruyxp7v852m6xfad2fzn1g,3fe7txl1lm0r49oqv0j3vcbf1k4q2w,3GnOCmNx,2020-0188,2021-10-17,11:23:40,12:52:22,NA,incomplete,false,true,NA,1,8,NA,yellow,n_s_037.jpg,NA,NA,pleasant,unpleasant,NA,NA,NA,NA,NA,right,2376.79999999702,true,NA,NA,NA,NA,NA
3GnOCmNx,3uy4pis8ruyxp7v852m6xfad2fzn1g,3fe7txl1lm0r49oqv0j3vcbf1k4q2w,3GnOCmNx,2020-0188,2021-10-17,11:23:40,12:52:22,NA,incomplete,false,true,NA,1,9,NA,yellow,n_l_103.jpg,NA,NA,pleasant,unpleasant,NA,NA,NA,NA,NA,left,2202.79999999702,true,NA,NA,NA,NA,NA
3GnOCmNx,3uy4pis8ruyxp7v852m6xfad2fzn1g,3fe7txl1lm0r49oqv0j3vcbf1k4q2w,3GnOCmNx,2020-0188,2021-10-17,11:23:40,12:52:22,NA,incomplete,false,true,NA,1,10,NA,yellow,m_l_080.jpg,NA,NA,unpleasant,pleasant,NA,NA,NA,NA,NA,right,1886.29999999702,true,NA,NA,NA,NA,NA
3GnOCmNx,3uy4pis8ruyxp7v852m6xfad2fzn1g,3fe7txl1lm0r49oqv0j3vcbf1k4q2w,3GnOCmNx,2020-0188,2021-10-17,11:23:40,12:52:22,NA,incomplete,false,true,NA,1,11,NA,yellow,m_s_024.jpg,NA,NA,pleasant,unpleasant,NA,NA,NA,NA,NA,left,2258.79999999702,true,NA,NA,NA,NA,NA
3GnOCmNx,3uy4pis8ruyxp7v852m6xfad2fzn1g,3fe7txl1lm0r49oqv0j3vcbf1k4q2w,3GnOCmNx,2020-0188,2021-10-17,11:23:40,12:52:22,NA,incomplete,false,true,NA,1,12,NA,black,n_l_088.jpg,NA,NA,pleasant,unpleasant,NA,NA,NA,NA,NA,right,2062.79999999702,true,NA,NA,NA,NA,NA
3GnOCmNx,3uy4pis8ruyxp7v852m6xfad2fzn1g,3fe7txl1lm0r49oqv0j3vcbf1k4q2w,3GnOCmNx,2020-0188,2021-10-17,11:23:40,12:52:22,NA,incomplete,false,true,NA,1,13,NA,black,m_l_026.jpg,NA,NA,unpleasant,pleasant,NA,NA,NA,NA,NA,right,1922.29999999702,true,NA,NA,NA,NA,NA
3GnOCmNx,3uy4pis8ruyxp7v852m6xfad2fzn1g,3fe7txl1lm0r49oqv0j3vcbf1k4q2w,3GnOCmNx,2020-0188,2021-10-17,11:23:40,12:52:22,NA,incomplete,false,true,NA,1,14,NA,black,n_l_109.jpg,NA,NA,unpleasant,pleasant,NA,NA,NA,NA,NA,right,1873.09999999404,true,NA,NA,NA,NA,NA
3GnOCmNx,3uy4pis8ruyxp7v852m6xfad2fzn1g,3fe7txl1lm0r49oqv0j3vcbf1k4q2w,3GnOCmNx,2020-0188,2021-10-17,11:23:40,12:52:22,NA,incomplete,false,true,NA,1,15,NA,black,n_l_011.jpg,NA,NA,pleasant,unpleasant,NA,NA,NA,NA,NA,left,1713.10000000894,true,NA,NA,NA,NA,NA
3GnOCmNx,3uy4pis8ruyxp7v852m6xfad2fzn1g,3fe7txl1lm0r49oqv0j3vcbf1k4q2w,3GnOCmNx,2020-0188,2021-10-17,11:23:40,12:52:22,NA,incomplete,false,true,NA,1,16,NA,black,m_s_089.jpg,NA,NA,unpleasant,pleasant,NA,NA,NA,NA,NA,right,1746.5,true,NA,NA,NA,NA,NA
3GnOCmNx,3uy4pis8ruyxp7v852m6xfad2fzn1g,3fe7txl1lm0r49oqv0j3vcbf1k4q2w,3GnOCmNx,2020-0188,2021-10-17,11:23:40,12:52:22,NA,incomplete,false,true,NA,1,17,NA,black,m_l_102.jpg,NA,NA,unpleasant,pleasant,NA,NA,NA,NA,NA,left,1958.40000000596,true,NA,NA,NA,NA,NA
3GnOCmNx,3uy4pis8ruyxp7v852m6xfad2fzn1g,3fe7txl1lm0r49oqv0j3vcbf1k4q2w,3GnOCmNx,2020-0188,2021-10-17,11:23:40,12:52:22,NA,incomplete,false,true,NA,1,18,NA,orange,m_s_112.jpg,NA,NA,unpleasant,pleasant,NA,NA,NA,NA,NA,right,1746.40000000596,true,NA,NA,NA,NA,NA
3GnOCmNx,3uy4pis8ruyxp7v852m6xfad2fzn1g,3fe7txl1lm0r49oqv0j3vcbf1k4q2w,3GnOCmNx,2020-0188,2021-10-17,11:23:40,12:52:22,NA,incomplete,false,true,NA,1,19,NA,orange,m_s_117.jpg,NA,NA,pleasant,unpleasant,NA,NA,NA,NA,NA,left,1876.70000000298,true,NA,NA,NA,NA,NA
3GnOCmNx,3uy4pis8ruyxp7v852m6xfad2fzn1g,3fe7txl1lm0r49oqv0j3vcbf1k4q2w,3GnOCmNx,2020-0188,2021-10-17,11:23:40,12:52:22,NA,incomplete,false,true,NA,1,20,NA,orange,n_s_059.jpg,NA,NA,unpleasant,pleasant,NA,NA,NA,NA,NA,left,2306,true,NA,NA,NA,NA,NA
3GnOCmNx,3uy4pis8ruyxp7v852m6xfad2fzn1g,3fe7txl1lm0r49oqv0j3vcbf1k4q2w,3GnOCmNx,2020-0188,2021-10-17,11:23:40,12:52:22,NA,incomplete,false,true,NA,1,21,NA,orange,m_l_097.jpg,NA,NA,unpleasant,pleasant,NA,NA,NA,NA,NA,right,1853.09999999404,true,NA,NA,NA,NA,NA
3GnOCmNx,3uy4pis8ruyxp7v852m6xfad2fzn1g,3fe7txl1lm0r49oqv0j3vcbf1k4q2w,3GnOCmNx,2020-0188,2021-10-17,11:23:40,12:52:22,NA,incomplete,false,true,NA,1,22,NA,orange,n_l_039.jpg,NA,NA,unpleasant,pleasant,NA,NA,NA,NA,NA,left,1539.20000000298,true,NA,NA,NA,NA,NA
3GnOCmNx,3uy4pis8ruyxp7v852m6xfad2fzn1g,3fe7txl1lm0r49oqv0j3vcbf1k4q2w,3GnOCmNx,2020-0188,2021-10-17,11:23:40,12:52:22,NA,incomplete,false,true,NA,1,23,NA,orange,m_s_032.jpg,NA,NA,pleasant,unpleasant,NA,NA,NA,NA,NA,left,2201.79999999702,true,NA,NA,NA,NA,NA
3GnOCmNx,3uy4pis8ruyxp7v852m6xfad2fzn1g,3fe7txl1lm0r49oqv0j3vcbf1k4q2w,3GnOCmNx,2020-0188,2021-10-17,11:23:40,12:52:22,NA,incomplete,false,true,NA,1,24,NA,purple,m_l_025.jpg,NA,NA,unpleasant,pleasant,NA,NA,NA,NA,NA,right,2332.70000000298,true,NA,NA,NA,NA,NA
3GnOCmNx,3uy4pis8ruyxp7v852m6xfad2fzn1g,3fe7txl1lm0r49oqv0j3vcbf1k4q2w,3GnOCmNx,2020-0188,2021-10-17,11:23:40,12:52:22,NA,incomplete,false,true,NA,1,25,NA,purple,m_s_009.jpg,NA,NA,pleasant,unpleasant,NA,NA,NA,NA,NA,right,2311.69999998808,true,NA,NA,NA,NA,NA
3GnOCmNx,3uy4pis8ruyxp7v852m6xfad2fzn1g,3fe7txl1lm0r49oqv0j3vcbf1k4q2w,3GnOCmNx,2020-0188,2021-10-17,11:23:40,12:52:22,NA,incomplete,false,true,NA,1,26,NA,purple,n_s_068.jpg,NA,NA,pleasant,unpleasant,NA,NA,NA,NA,NA,right,1982.70000000298,true,NA,NA,NA,NA,NA
3GnOCmNx,3uy4pis8ruyxp7v852m6xfad2fzn1g,3fe7txl1lm0r49oqv0j3vcbf1k4q2w,3GnOCmNx,2020-0188,2021-10-17,11:23:40,12:52:22,NA,incomplete,false,true,NA,1,27,NA,purple,n_s_036.jpg,NA,NA,unpleasant,pleasant,NA,NA,NA,NA,NA,left,2377.89999999106,true,NA,NA,NA,NA,NA
3GnOCmNx,3uy4pis8ruyxp7v852m6xfad2fzn1g,3fe7txl1lm0r49oqv0j3vcbf1k4q2w,3GnOCmNx,2020-0188,2021-10-17,11:23:40,12:52:22,NA,incomplete,false,true,NA,1,28,NA,purple,m_s_036.jpg,NA,NA,pleasant,unpleasant,NA,NA,NA,NA,NA,left,1952.29999999702,true,NA,NA,NA,NA,NA
3GnOCmNx,3uy4pis8ruyxp7v852m6xfad2fzn1g,3fe7txl1lm0r49oqv0j3vcbf1k4q2w,3GnOCmNx,2020-0188,2021-10-17,11:23:40,12:52:22,NA,incomplete,false,true,NA,1,29,NA,purple,n_s_084.jpg,NA,NA,unpleasant,pleasant,NA,NA,NA,NA,NA,left,1857.5,true,NA,NA,NA,NA,NA
3GnOCmNx,3uy4pis8ruyxp7v852m6xfad2fzn1g,3fe7txl1lm0r49oqv0j3vcbf1k4q2w,3GnOCmNx,2020-0188,2021-10-17,11:23:40,12:52:22,NA,incomplete,false,true,NA,1,30,NA,green,n_l_012.jpg,NA,NA,unpleasant,pleasant,NA,NA,NA,NA,NA,left,1513,true,NA,NA,NA,NA,NA
3GnOCmNx,3uy4pis8ruyxp7v852m6xfad2fzn1g,3fe7txl1lm0r49oqv0j3vcbf1k4q2w,3GnOCmNx,2020-0188,2021-10-17,11:23:40,12:52:22,NA,incomplete,false,true,NA,1,31,NA,green,m_l_083.jpg,NA,NA,pleasant,unpleasant,NA,NA,NA,NA,NA,left,1364.90000000596,true,NA,NA,NA,NA,NA
3GnOCmNx,3uy4pis8ruyxp7v852m6xfad2fzn1g,3fe7txl1lm0r49oqv0j3vcbf1k4q2w,3GnOCmNx,2020-0188,2021-10-17,11:23:40,12:52:22,NA,incomplete,false,true,NA,1,32,NA,green,n_l_053.jpg,NA,NA,pleasant,unpleasant,NA,NA,NA,NA,NA,right,1499.60000000894,true,NA,NA,NA,NA,NA
3GnOCmNx,3uy4pis8ruyxp7v852m6xfad2fzn1g,3fe7txl1lm0r49oqv0j3vcbf1k4q2w,3GnOCmNx,2020-0188,2021-10-17,11:23:40,12:52:22,NA,incomplete,false,true,NA,1,33,NA,green,m_l_043.jpg,NA,NA,unpleasant,pleasant,NA,NA,NA,NA,NA,right,1368.20000000298,true,NA,NA,NA,NA,NA
3GnOCmNx,3uy4pis8ruyxp7v852m6xfad2fzn1g,3fe7txl1lm0r49oqv0j3vcbf1k4q2w,3GnOCmNx,2020-0188,2021-10-17,11:23:40,12:52:22,NA,incomplete,false,true,NA,1,34,NA,green,m_l_050.jpg,NA,NA,unpleasant,pleasant,NA,NA,NA,NA,NA,right,1343.89999999106,true,NA,NA,NA,NA,NA
3GnOCmNx,3uy4pis8ruyxp7v852m6xfad2fzn1g,3fe7txl1lm0r49oqv0j3vcbf1k4q2w,3GnOCmNx,2020-0188,2021-10-17,11:23:40,12:52:22,NA,incomplete,false,true,NA,1,35,NA,green,m_s_035.jpg,NA,NA,pleasant,unpleasant,NA,NA,NA,NA,NA,right,1627.40000000596,true,NA,NA,NA,NA,NA
3GnOCmNx,3uy4pis8ruyxp7v852m6xfad2fzn1g,3fe7txl1lm0r49oqv0j3vcbf1k4q2w,3GnOCmNx,2020-0188,2021-10-17,11:23:40,12:52:22,NA,incomplete,false,NA,true,1,0,NA,NA,NA,left,present,NA,NA,m_s_009.jpg,purple,n_s_084.jpg,purple,within,NA,NaN,NA,left,3867.5,1,0,1714.5999999940395
3GnOCmNx,3uy4pis8ruyxp7v852m6xfad2fzn1g,3fe7txl1lm0r49oqv0j3vcbf1k4q2w,3GnOCmNx,2020-0188,2021-10-17,11:23:40,12:52:22,NA,incomplete,false,NA,true,1,1,NA,NA,NA,left,present,NA,NA,m_l_083.jpg,green,m_s_035.jpg,green,within,NA,NaN,NA,left,6276.20000000298,1,0,2264
3GnOCmNx,3uy4pis8ruyxp7v852m6xfad2fzn1g,3fe7txl1lm0r49oqv0j3vcbf1k4q2w,3GnOCmNx,2020-0188,2021-10-17,11:23:40,12:52:22,NA,incomplete,false,NA,true,1,2,NA,NA,NA,left,present,NA,NA,m_s_089.jpg,black,n_s_059.jpg,orange,between,NA,NaN,NA,left,6199.699999988079,1,2,2332.7000000029802
3GnOCmNx,3uy4pis8ruyxp7v852m6xfad2fzn1g,3fe7txl1lm0r49oqv0j3vcbf1k4q2w,3GnOCmNx,2020-0188,2021-10-17,11:23:40,12:52:22,NA,incomplete,false,NA,true,1,3,NA,NA,NA,left,present,NA,NA,m_l_080.jpg,yellow,n_l_109.jpg,black,between,NA,NaN,NA,left,3316.7999999970198,1,1,1916
3GnOCmNx,3uy4pis8ruyxp7v852m6xfad2fzn1g,3fe7txl1lm0r49oqv0j3vcbf1k4q2w,3GnOCmNx,2020-0188,2021-10-17,11:23:40,12:52:22,NA,incomplete,false,NA,true,1,4,NA,NA,NA,left,present,NA,NA,m_s_096.jpg,gray,m_s_059.jpg,gray,within,NA,NaN,NA,right,3122.7999999970198,0,0,2269.6000000089407
3GnOCmNx,3uy4pis8ruyxp7v852m6xfad2fzn1g,3fe7txl1lm0r49oqv0j3vcbf1k4q2w,3GnOCmNx,2020-0188,2021-10-17,11:23:40,12:52:22,NA,incomplete,false,NA,true,1,5,NA,NA,NA,right,present,NA,NA,n_s_068.jpg,purple,n_l_039.jpg,orange,between,NA,NaN,NA,right,3514.2000000029802,1,1,1514
3GnOCmNx,3uy4pis8ruyxp7v852m6xfad2fzn1g,3fe7txl1lm0r49oqv0j3vcbf1k4q2w,3GnOCmNx,2020-0188,2021-10-17,11:23:40,12:52:22,NA,incomplete,false,NA,true,1,6,NA,NA,NA,left,present,NA,NA,m_s_046.jpg,yellow,m_s_024.jpg,yellow,within,NA,NaN,NA,left,3963.0999999940395,1,0,2260.7999999970198
3GnOCmNx,3uy4pis8ruyxp7v852m6xfad2fzn1g,3fe7txl1lm0r49oqv0j3vcbf1k4q2w,3GnOCmNx,2020-0188,2021-10-17,11:23:40,12:52:22,NA,incomplete,false,NA,true,1,7,NA,NA,NA,left,present,NA,NA,m_s_117.jpg,orange,m_s_032.jpg,orange,within,NA,NaN,NA,left,2529.8999999910593,1,0,2109
3GnOCmNx,3uy4pis8ruyxp7v852m6xfad2fzn1g,3fe7txl1lm0r49oqv0j3vcbf1k4q2w,3GnOCmNx,2020-0188,2021-10-17,11:23:40,12:52:22,NA,incomplete,false,NA,true,1,8,NA,NA,NA,left,present,NA,NA,m_s_036.jpg,purple,n_l_053.jpg,green,between,NA,NaN,NA,left,4301.79999999702,1,1,2822.9000000059605
3GnOCmNx,3uy4pis8ruyxp7v852m6xfad2fzn1g,3fe7txl1lm0r49oqv0j3vcbf1k4q2w,3GnOCmNx,2020-0188,2021-10-17,11:23:40,12:52:22,NA,incomplete,false,NA,true,1,9,NA,NA,NA,left,present,NA,NA,m_l_026.jpg,black,m_l_102.jpg,black,within,NA,NaN,NA,left,3564,1,0,1878.1000000089407
3GnOCmNx,3uy4pis8ruyxp7v852m6xfad2fzn1g,3fe7txl1lm0r49oqv0j3vcbf1k4q2w,3GnOCmNx,2020-0188,2021-10-17,11:23:40,12:52:22,NA,incomplete,false,NA,true,1,10,NA,NA,NA,left,present,NA,NA,m_s_007.jpg,gray,n_s_037.jpg,yellow,between,NA,NaN,NA,left,3376.2999999970198,1,1,2164.9000000059605
3GnOCmNx,3uy4pis8ruyxp7v852m6xfad2fzn1g,3fe7txl1lm0r49oqv0j3vcbf1k4q2w,3GnOCmNx,2020-0188,2021-10-17,11:23:40,12:52:22,NA,incomplete,false,true,NA,2,0,NA,yellow,m_l_103.jpg,NA,NA,pleasant,unpleasant,NA,NA,NA,NA,NA,left,1886.59999999404,true,NA,NA,NA,NA,NA
3GnOCmNx,3uy4pis8ruyxp7v852m6xfad2fzn1g,3fe7txl1lm0r49oqv0j3vcbf1k4q2w,3GnOCmNx,2020-0188,2021-10-17,11:23:40,12:52:22,NA,incomplete,false,true,NA,2,1,NA,yellow,m_s_021.jpg,NA,NA,unpleasant,pleasant,NA,NA,NA,NA,NA,right,2235.5,true,NA,NA,NA,NA,NA
3GnOCmNx,3uy4pis8ruyxp7v852m6xfad2fzn1g,3fe7txl1lm0r49oqv0j3vcbf1k4q2w,3GnOCmNx,2020-0188,2021-10-17,11:23:40,12:52:22,NA,incomplete,false,true,NA,2,2,NA,yellow,m_l_019.jpg,NA,NA,unpleasant,pleasant,NA,NA,NA,NA,NA,left,2412.5,true,NA,NA,NA,NA,NA
3GnOCmNx,3uy4pis8ruyxp7v852m6xfad2fzn1g,3fe7txl1lm0r49oqv0j3vcbf1k4q2w,3GnOCmNx,2020-0188,2021-10-17,11:23:40,12:52:22,NA,incomplete,false,true,NA,2,3,NA,yellow,n_s_051.jpg,NA,NA,unpleasant,pleasant,NA,NA,NA,NA,NA,left,1236.29999999702,true,NA,NA,NA,NA,NA
3GnOCmNx,3uy4pis8ruyxp7v852m6xfad2fzn1g,3fe7txl1lm0r49oqv0j3vcbf1k4q2w,3GnOCmNx,2020-0188,2021-10-17,11:23:40,12:52:22,NA,incomplete,false,true,NA,2,4,NA,yellow,n_s_076.jpg,NA,NA,unpleasant,pleasant,NA,NA,NA,NA,NA,left,2397.70000000298,true,NA,NA,NA,NA,NA
3GnOCmNx,3uy4pis8ruyxp7v852m6xfad2fzn1g,3fe7txl1lm0r49oqv0j3vcbf1k4q2w,3GnOCmNx,2020-0188,2021-10-17,11:23:40,12:52:22,NA,incomplete,false,true,NA,2,5,NA,yellow,n_l_002.jpg,NA,NA,unpleasant,pleasant,NA,NA,NA,NA,NA,left,1164.09999999404,true,NA,NA,NA,NA,NA
3GnOCmNx,3uy4pis8ruyxp7v852m6xfad2fzn1g,3fe7txl1lm0r49oqv0j3vcbf1k4q2w,3GnOCmNx,2020-0188,2021-10-17,11:23:40,12:52:22,NA,incomplete,false,true,NA,2,6,NA,purple,n_s_030.jpg,NA,NA,pleasant,unpleasant,NA,NA,NA,NA,NA,right,2033.90000000596,true,NA,NA,NA,NA,NA
3GnOCmNx,3uy4pis8ruyxp7v852m6xfad2fzn1g,3fe7txl1lm0r49oqv0j3vcbf1k4q2w,3GnOCmNx,2020-0188,2021-10-17,11:23:40,12:52:22,NA,incomplete,false,true,NA,2,7,NA,purple,n_s_015.jpg,NA,NA,pleasant,unpleasant,NA,NA,NA,NA,NA,left,1194.40000000596,true,NA,NA,NA,NA,NA
3GnOCmNx,3uy4pis8ruyxp7v852m6xfad2fzn1g,3fe7txl1lm0r49oqv0j3vcbf1k4q2w,3GnOCmNx,2020-0188,2021-10-17,11:23:40,12:52:22,NA,incomplete,false,true,NA,2,8,NA,purple,m_l_109.jpg,NA,NA,pleasant,unpleasant,NA,NA,NA,NA,NA,left,1272,true,NA,NA,NA,NA,NA
3GnOCmNx,3uy4pis8ruyxp7v852m6xfad2fzn1g,3fe7txl1lm0r49oqv0j3vcbf1k4q2w,3GnOCmNx,2020-0188,2021-10-17,11:23:40,12:52:22,NA,incomplete,false,true,NA,2,9,NA,purple,n_s_099.jpg,NA,NA,unpleasant,pleasant,NA,NA,NA,NA,NA,left,1550.09999999404,true,NA,NA,NA,NA,NA
3GnOCmNx,3uy4pis8ruyxp7v852m6xfad2fzn1g,3fe7txl1lm0r49oqv0j3vcbf1k4q2w,3GnOCmNx,2020-0188,2021-10-17,11:23:40,12:52:22,NA,incomplete,false,true,NA,2,10,NA,purple,m_l_024.jpg,NA,NA,unpleasant,pleasant,NA,NA,NA,NA,NA,right,1426.30000001192,true,NA,NA,NA,NA,NA
3GnOCmNx,3uy4pis8ruyxp7v852m6xfad2fzn1g,3fe7txl1lm0r49oqv0j3vcbf1k4q2w,3GnOCmNx,2020-0188,2021-10-17,11:23:40,12:52:22,NA,incomplete,false,true,NA,2,11,NA,purple,m_l_091.jpg,NA,NA,unpleasant,pleasant,NA,NA,NA,NA,NA,right,1783.79999999702,true,NA,NA,NA,NA,NA
3GnOCmNx,3uy4pis8ruyxp7v852m6xfad2fzn1g,3fe7txl1lm0r49oqv0j3vcbf1k4q2w,3GnOCmNx,2020-0188,2021-10-17,11:23:40,12:52:22,NA,incomplete,false,true,NA,2,12,NA,green,n_s_075.jpg,NA,NA,pleasant,unpleasant,NA,NA,NA,NA,NA,left,1857.70000000298,true,NA,NA,NA,NA,NA
3GnOCmNx,3uy4pis8ruyxp7v852m6xfad2fzn1g,3fe7txl1lm0r49oqv0j3vcbf1k4q2w,3GnOCmNx,2020-0188,2021-10-17,11:23:40,12:52:22,NA,incomplete,false,true,NA,2,13,NA,green,m_l_062.jpg,NA,NA,unpleasant,pleasant,NA,NA,NA,NA,NA,right,1631.19999998808,true,NA,NA,NA,NA,NA
3GnOCmNx,3uy4pis8ruyxp7v852m6xfad2fzn1g,3fe7txl1lm0r49oqv0j3vcbf1k4q2w,3GnOCmNx,2020-0188,2021-10-17,11:23:40,12:52:22,NA,incomplete,false,true,NA,2,14,NA,green,m_s_084.jpg,NA,NA,pleasant,unpleasant,NA,NA,NA,NA,NA,left,1596.5,true,NA,NA,NA,NA,NA
3GnOCmNx,3uy4pis8ruyxp7v852m6xfad2fzn1g,3fe7txl1lm0r49oqv0j3vcbf1k4q2w,3GnOCmNx,2020-0188,2021-10-17,11:23:40,12:52:22,NA,incomplete,false,true,NA,2,15,NA,green,n_s_029.jpg,NA,NA,pleasant,unpleasant,NA,NA,NA,NA,NA,left,1333.60000000894,true,NA,NA,NA,NA,NA
3GnOCmNx,3uy4pis8ruyxp7v852m6xfad2fzn1g,3fe7txl1lm0r49oqv0j3vcbf1k4q2w,3GnOCmNx,2020-0188,2021-10-17,11:23:40,12:52:22,NA,incomplete,false,true,NA,2,16,NA,green,n_s_047.jpg,NA,NA,unpleasant,pleasant,NA,NA,NA,NA,NA,right,1510.09999999404,true,NA,NA,NA,NA,NA
3GnOCmNx,3uy4pis8ruyxp7v852m6xfad2fzn1g,3fe7txl1lm0r49oqv0j3vcbf1k4q2w,3GnOCmNx,2020-0188,2021-10-17,11:23:40,12:52:22,NA,incomplete,false,true,NA,2,17,NA,green,n_s_113.jpg,NA,NA,unpleasant,pleasant,NA,NA,NA,NA,NA,left,1281.79999999702,true,NA,NA,NA,NA,NA
3GnOCmNx,3uy4pis8ruyxp7v852m6xfad2fzn1g,3fe7txl1lm0r49oqv0j3vcbf1k4q2w,3GnOCmNx,2020-0188,2021-10-17,11:23:40,12:52:22,NA,incomplete,false,true,NA,2,18,NA,orange,m_l_060.jpg,NA,NA,unpleasant,pleasant,NA,NA,NA,NA,NA,right,1995.79999999702,true,NA,NA,NA,NA,NA
3GnOCmNx,3uy4pis8ruyxp7v852m6xfad2fzn1g,3fe7txl1lm0r49oqv0j3vcbf1k4q2w,3GnOCmNx,2020-0188,2021-10-17,11:23:40,12:52:22,NA,incomplete,false,true,NA,2,19,NA,orange,n_s_117.jpg,NA,NA,unpleasant,pleasant,NA,NA,NA,NA,NA,left,1417,true,NA,NA,NA,NA,NA
3GnOCmNx,3uy4pis8ruyxp7v852m6xfad2fzn1g,3fe7txl1lm0r49oqv0j3vcbf1k4q2w,3GnOCmNx,2020-0188,2021-10-17,11:23:40,12:52:22,NA,incomplete,false,true,NA,2,20,NA,orange,m_l_099.jpg,NA,NA,pleasant,unpleasant,NA,NA,NA,NA,NA,right,3009.10000000894,true,NA,NA,NA,NA,NA
3GnOCmNx,3uy4pis8ruyxp7v852m6xfad2fzn1g,3fe7txl1lm0r49oqv0j3vcbf1k4q2w,3GnOCmNx,2020-0188,2021-10-17,11:23:40,12:52:22,NA,incomplete,false,true,NA,2,21,NA,orange,n_l_100.jpg,NA,NA,pleasant,unpleasant,NA,NA,NA,NA,NA,right,1572.59999999404,true,NA,NA,NA,NA,NA
3GnOCmNx,3uy4pis8ruyxp7v852m6xfad2fzn1g,3fe7txl1lm0r49oqv0j3vcbf1k4q2w,3GnOCmNx,2020-0188,2021-10-17,11:23:40,12:52:22,NA,incomplete,false,true,NA,2,22,NA,orange,n_l_114.jpg,NA,NA,pleasant,unpleasant,NA,NA,NA,NA,NA,right,1750,true,NA,NA,NA,NA,NA
3GnOCmNx,3uy4pis8ruyxp7v852m6xfad2fzn1g,3fe7txl1lm0r49oqv0j3vcbf1k4q2w,3GnOCmNx,2020-0188,2021-10-17,11:23:40,12:52:22,NA,incomplete,false,true,NA,2,23,NA,orange,m_l_013.jpg,NA,NA,unpleasant,pleasant,NA,NA,NA,NA,NA,right,1976.59999999404,true,NA,NA,NA,NA,NA
3GnOCmNx,3uy4pis8ruyxp7v852m6xfad2fzn1g,3fe7txl1lm0r49oqv0j3vcbf1k4q2w,3GnOCmNx,2020-0188,2021-10-17,11:23:40,12:52:22,NA,incomplete,false,true,NA,2,24,NA,brown,n_l_026.jpg,NA,NA,pleasant,unpleasant,NA,NA,NA,NA,NA,left,1902.29999999702,true,NA,NA,NA,NA,NA
3GnOCmNx,3uy4pis8ruyxp7v852m6xfad2fzn1g,3fe7txl1lm0r49oqv0j3vcbf1k4q2w,3GnOCmNx,2020-0188,2021-10-17,11:23:40,12:52:22,NA,incomplete,false,true,NA,2,25,NA,brown,m_l_081.jpg,NA,NA,unpleasant,pleasant,NA,NA,NA,NA,NA,right,1941.59999999404,true,NA,NA,NA,NA,NA
3GnOCmNx,3uy4pis8ruyxp7v852m6xfad2fzn1g,3fe7txl1lm0r49oqv0j3vcbf1k4q2w,3GnOCmNx,2020-0188,2021-10-17,11:23:40,12:52:22,NA,incomplete,false,true,NA,2,26,NA,brown,m_s_001.jpg,NA,NA,pleasant,unpleasant,NA,NA,NA,NA,NA,left,1900.60000000894,true,NA,NA,NA,NA,NA
3GnOCmNx,3uy4pis8ruyxp7v852m6xfad2fzn1g,3fe7txl1lm0r49oqv0j3vcbf1k4q2w,3GnOCmNx,2020-0188,2021-10-17,11:23:40,12:52:22,NA,incomplete,false,true,NA,2,27,NA,brown,m_l_114.jpg,NA,NA,unpleasant,pleasant,NA,NA,NA,NA,NA,right,2457.5,true,NA,NA,NA,NA,NA
3GnOCmNx,3uy4pis8ruyxp7v852m6xfad2fzn1g,3fe7txl1lm0r49oqv0j3vcbf1k4q2w,3GnOCmNx,2020-0188,2021-10-17,11:23:40,12:52:22,NA,incomplete,false,true,NA,2,28,NA,brown,m_l_040.jpg,NA,NA,unpleasant,pleasant,NA,NA,NA,NA,NA,right,1498.20000000298,true,NA,NA,NA,NA,NA
3GnOCmNx,3uy4pis8ruyxp7v852m6xfad2fzn1g,3fe7txl1lm0r49oqv0j3vcbf1k4q2w,3GnOCmNx,2020-0188,2021-10-17,11:23:40,12:52:22,NA,incomplete,false,true,NA,2,29,NA,brown,m_l_066.jpg,NA,NA,pleasant,unpleasant,NA,NA,NA,NA,NA,right,2304.70000000298,true,NA,NA,NA,NA,NA
3GnOCmNx,3uy4pis8ruyxp7v852m6xfad2fzn1g,3fe7txl1lm0r49oqv0j3vcbf1k4q2w,3GnOCmNx,2020-0188,2021-10-17,11:23:40,12:52:22,NA,incomplete,false,true,NA,2,30,NA,black,m_s_016.jpg,NA,NA,unpleasant,pleasant,NA,NA,NA,NA,NA,right,1641.20000000298,true,NA,NA,NA,NA,NA
3GnOCmNx,3uy4pis8ruyxp7v852m6xfad2fzn1g,3fe7txl1lm0r49oqv0j3vcbf1k4q2w,3GnOCmNx,2020-0188,2021-10-17,11:23:40,12:52:22,NA,incomplete,false,true,NA,2,31,NA,black,m_s_076.jpg,NA,NA,unpleasant,pleasant,NA,NA,NA,NA,NA,right,1799.29999999702,true,NA,NA,NA,NA,NA
3GnOCmNx,3uy4pis8ruyxp7v852m6xfad2fzn1g,3fe7txl1lm0r49oqv0j3vcbf1k4q2w,3GnOCmNx,2020-0188,2021-10-17,11:23:40,12:52:22,NA,incomplete,false,true,NA,2,32,NA,black,n_l_021.jpg,NA,NA,unpleasant,pleasant,NA,NA,NA,NA,NA,right,2183,true,NA,NA,NA,NA,NA
3GnOCmNx,3uy4pis8ruyxp7v852m6xfad2fzn1g,3fe7txl1lm0r49oqv0j3vcbf1k4q2w,3GnOCmNx,2020-0188,2021-10-17,11:23:40,12:52:22,NA,incomplete,false,true,NA,2,33,NA,black,n_l_086.jpg,NA,NA,pleasant,unpleasant,NA,NA,NA,NA,NA,left,1279.29999999702,true,NA,NA,NA,NA,NA
3GnOCmNx,3uy4pis8ruyxp7v852m6xfad2fzn1g,3fe7txl1lm0r49oqv0j3vcbf1k4q2w,3GnOCmNx,2020-0188,2021-10-17,11:23:40,12:52:22,NA,incomplete,false,true,NA,2,34,NA,black,n_l_079.jpg,NA,NA,unpleasant,pleasant,NA,NA,NA,NA,NA,right,1595.89999999106,true,NA,NA,NA,NA,NA
3GnOCmNx,3uy4pis8ruyxp7v852m6xfad2fzn1g,3fe7txl1lm0r49oqv0j3vcbf1k4q2w,3GnOCmNx,2020-0188,2021-10-17,11:23:40,12:52:22,NA,incomplete,false,true,NA,2,35,NA,black,m_l_069.jpg,NA,NA,unpleasant,pleasant,NA,NA,NA,NA,NA,left,2025.70000000298,true,NA,NA,NA,NA,NA
3GnOCmNx,3uy4pis8ruyxp7v852m6xfad2fzn1g,3fe7txl1lm0r49oqv0j3vcbf1k4q2w,3GnOCmNx,2020-0188,2021-10-17,11:23:40,12:52:22,NA,incomplete,false,NA,true,2,0,NA,NA,NA,left,present,NA,NA,m_l_081.jpg,brown,m_l_066.jpg,brown,within,NA,NaN,NA,left,3186.5,1,0,3679.5
3GnOCmNx,3uy4pis8ruyxp7v852m6xfad2fzn1g,3fe7txl1lm0r49oqv0j3vcbf1k4q2w,3GnOCmNx,2020-0188,2021-10-17,11:23:40,12:52:22,NA,incomplete,false,NA,true,2,1,NA,NA,NA,left,present,NA,NA,n_s_047.jpg,green,m_l_099.jpg,orange,between,NA,NaN,NA,left,5519.5,1,1,2915.0999999940395
3GnOCmNx,3uy4pis8ruyxp7v852m6xfad2fzn1g,3fe7txl1lm0r49oqv0j3vcbf1k4q2w,3GnOCmNx,2020-0188,2021-10-17,11:23:40,12:52:22,NA,incomplete,false,NA,true,2,2,NA,NA,NA,right,present,NA,NA,m_s_001.jpg,brown,n_l_114.jpg,orange,between,NA,NaN,NA,left,5357.79999999702,0,1,1255.5
3GnOCmNx,3uy4pis8ruyxp7v852m6xfad2fzn1g,3fe7txl1lm0r49oqv0j3vcbf1k4q2w,3GnOCmNx,2020-0188,2021-10-17,11:23:40,12:52:22,NA,incomplete,false,NA,true,2,3,NA,NA,NA,right,present,NA,NA,m_l_013.jpg,orange,n_s_117.jpg,orange,within,NA,NaN,NA,right,5599.600000008941,1,0,1601.5
3GnOCmNx,3uy4pis8ruyxp7v852m6xfad2fzn1g,3fe7txl1lm0r49oqv0j3vcbf1k4q2w,3GnOCmNx,2020-0188,2021-10-17,11:23:40,12:52:22,NA,incomplete,false,NA,true,2,4,NA,NA,NA,right,present,NA,NA,m_l_091.jpg,purple,n_s_015.jpg,purple,within,NA,NaN,NA,left,6134.600000008941,0,0,1443.6000000089407
3GnOCmNx,3uy4pis8ruyxp7v852m6xfad2fzn1g,3fe7txl1lm0r49oqv0j3vcbf1k4q2w,3GnOCmNx,2020-0188,2021-10-17,11:23:40,12:52:22,NA,incomplete,false,NA,true,2,5,NA,NA,NA,right,present,NA,NA,m_l_069.jpg,black,m_s_076.jpg,black,within,NA,NaN,NA,right,2382.7999999970198,1,0,1155.5
3GnOCmNx,3uy4pis8ruyxp7v852m6xfad2fzn1g,3fe7txl1lm0r49oqv0j3vcbf1k4q2w,3GnOCmNx,2020-0188,2021-10-17,11:23:40,12:52:22,NA,incomplete,false,NA,true,2,6,NA,NA,NA,left,present,NA,NA,n_s_076.jpg,yellow,m_l_109.jpg,purple,between,NA,NaN,NA,left,2451.7999999970198,1,1,1490.6000000089407
3GnOCmNx,3uy4pis8ruyxp7v852m6xfad2fzn1g,3fe7txl1lm0r49oqv0j3vcbf1k4q2w,3GnOCmNx,2020-0188,2021-10-17,11:23:40,12:52:22,NA,incomplete,false,NA,true,2,7,NA,NA,NA,left,present,NA,NA,m_s_021.jpg,yellow,n_l_002.jpg,yellow,within,NA,NaN,NA,left,3955.1000000089407,1,0,1862.0999999940395
3GnOCmNx,3uy4pis8ruyxp7v852m6xfad2fzn1g,3fe7txl1lm0r49oqv0j3vcbf1k4q2w,3GnOCmNx,2020-0188,2021-10-17,11:23:40,12:52:22,NA,incomplete,false,NA,true,2,8,NA,NA,NA,left,present,NA,NA,m_l_062.jpg,green,n_s_113.jpg,green,within,NA,NaN,NA,right,2493.9000000059605,0,0,1415.2999999970198
3GnOCmNx,3uy4pis8ruyxp7v852m6xfad2fzn1g,3fe7txl1lm0r49oqv0j3vcbf1k4q2w,3GnOCmNx,2020-0188,2021-10-17,11:23:40,12:52:22,NA,incomplete,false,NA,true,2,9,NA,NA,NA,right,present,NA,NA,n_l_021.jpg,black,m_l_040.jpg,brown,between,NA,NaN,NA,right,3253.4000000059605,1,2,2247.0999999940395
3GnOCmNx,3uy4pis8ruyxp7v852m6xfad2fzn1g,3fe7txl1lm0r49oqv0j3vcbf1k4q2w,3GnOCmNx,2020-0188,2021-10-17,11:23:40,12:52:22,NA,incomplete,false,NA,true,2,10,NA,NA,NA,right,present,NA,NA,m_s_084.jpg,green,m_l_024.jpg,purple,between,NA,NaN,NA,right,3343.2000000029802,1,1,3889.7000000029802
3GnOCmNx,3uy4pis8ruyxp7v852m6xfad2fzn1g,3fe7txl1lm0r49oqv0j3vcbf1k4q2w,3GnOCmNx,2020-0188,2021-10-17,11:23:40,12:52:22,NA,incomplete,false,true,NA,3,0,NA,brown,n_l_074.jpg,NA,NA,unpleasant,pleasant,NA,NA,NA,NA,NA,right,2201.60000000894,true,NA,NA,NA,NA,NA
3GnOCmNx,3uy4pis8ruyxp7v852m6xfad2fzn1g,3fe7txl1lm0r49oqv0j3vcbf1k4q2w,3GnOCmNx,2020-0188,2021-10-17,11:23:40,12:52:22,NA,incomplete,false,true,NA,3,1,NA,brown,n_s_085.jpg,NA,NA,unpleasant,pleasant,NA,NA,NA,NA,NA,left,2052.90000000596,true,NA,NA,NA,NA,NA
3GnOCmNx,3uy4pis8ruyxp7v852m6xfad2fzn1g,3fe7txl1lm0r49oqv0j3vcbf1k4q2w,3GnOCmNx,2020-0188,2021-10-17,11:23:40,12:52:22,NA,incomplete,false,true,NA,3,2,NA,brown,m_l_005.jpg,NA,NA,pleasant,unpleasant,NA,NA,NA,NA,NA,left,2012.39999999106,true,NA,NA,NA,NA,NA
3GnOCmNx,3uy4pis8ruyxp7v852m6xfad2fzn1g,3fe7txl1lm0r49oqv0j3vcbf1k4q2w,3GnOCmNx,2020-0188,2021-10-17,11:23:40,12:52:22,NA,incomplete,false,true,NA,3,3,NA,brown,n_l_010.jpg,NA,NA,pleasant,unpleasant,NA,NA,NA,NA,NA,right,2386.5,true,NA,NA,NA,NA,NA
3GnOCmNx,3uy4pis8ruyxp7v852m6xfad2fzn1g,3fe7txl1lm0r49oqv0j3vcbf1k4q2w,3GnOCmNx,2020-0188,2021-10-17,11:23:40,12:52:22,NA,incomplete,false,true,NA,3,4,NA,brown,m_s_010.jpg,NA,NA,unpleasant,pleasant,NA,NA,NA,NA,NA,right,1299.29999999702,true,NA,NA,NA,NA,NA
3GnOCmNx,3uy4pis8ruyxp7v852m6xfad2fzn1g,3fe7txl1lm0r49oqv0j3vcbf1k4q2w,3GnOCmNx,2020-0188,2021-10-17,11:23:40,12:52:22,NA,incomplete,false,true,NA,3,5,NA,brown,n_l_016.jpg,NA,NA,unpleasant,pleasant,NA,NA,NA,NA,NA,right,1195.90000000596,true,NA,NA,NA,NA,NA
3GnOCmNx,3uy4pis8ruyxp7v852m6xfad2fzn1g,3fe7txl1lm0r49oqv0j3vcbf1k4q2w,3GnOCmNx,2020-0188,2021-10-17,11:23:40,12:52:22,NA,incomplete,false,true,NA,3,6,NA,orange,m_s_086.jpg,NA,NA,unpleasant,pleasant,NA,NA,NA,NA,NA,right,1811.29999999702,true,NA,NA,NA,NA,NA
3GnOCmNx,3uy4pis8ruyxp7v852m6xfad2fzn1g,3fe7txl1lm0r49oqv0j3vcbf1k4q2w,3GnOCmNx,2020-0188,2021-10-17,11:23:40,12:52:22,NA,incomplete,false,true,NA,3,7,NA,orange,m_l_020.jpg,NA,NA,pleasant,unpleasant,NA,NA,NA,NA,NA,left,1779.20000000298,true,NA,NA,NA,NA,NA
3GnOCmNx,3uy4pis8ruyxp7v852m6xfad2fzn1g,3fe7txl1lm0r49oqv0j3vcbf1k4q2w,3GnOCmNx,2020-0188,2021-10-17,11:23:40,12:52:22,NA,incomplete,false,true,NA,3,8,NA,orange,m_l_079.jpg,NA,NA,unpleasant,pleasant,NA,NA,NA,NA,NA,left,1733.39999999106,true,NA,NA,NA,NA,NA
3GnOCmNx,3uy4pis8ruyxp7v852m6xfad2fzn1g,3fe7txl1lm0r49oqv0j3vcbf1k4q2w,3GnOCmNx,2020-0188,2021-10-17,11:23:40,12:52:22,NA,incomplete,false,true,NA,3,9,NA,orange,m_l_088.jpg,NA,NA,unpleasant,pleasant,NA,NA,NA,NA,NA,right,2481.90000000596,true,NA,NA,NA,NA,NA
3GnOCmNx,3uy4pis8ruyxp7v852m6xfad2fzn1g,3fe7txl1lm0r49oqv0j3vcbf1k4q2w,3GnOCmNx,2020-0188,2021-10-17,11:23:40,12:52:22,NA,incomplete,false,true,NA,3,10,NA,orange,n_l_018.jpg,NA,NA,unpleasant,pleasant,NA,NA,NA,NA,NA,left,1748.20000000298,true,NA,NA,NA,NA,NA
3GnOCmNx,3uy4pis8ruyxp7v852m6xfad2fzn1g,3fe7txl1lm0r49oqv0j3vcbf1k4q2w,3GnOCmNx,2020-0188,2021-10-17,11:23:40,12:52:22,NA,incomplete,false,true,NA,3,11,NA,orange,m_l_053.jpg,NA,NA,pleasant,unpleasant,NA,NA,NA,NA,NA,left,1701.20000000298,true,NA,NA,NA,NA,NA
3GnOCmNx,3uy4pis8ruyxp7v852m6xfad2fzn1g,3fe7txl1lm0r49oqv0j3vcbf1k4q2w,3GnOCmNx,2020-0188,2021-10-17,11:23:40,12:52:22,NA,incomplete,false,true,NA,3,12,NA,purple,n_s_077.jpg,NA,NA,pleasant,unpleasant,NA,NA,NA,NA,NA,right,1708.5,true,NA,NA,NA,NA,NA
3GnOCmNx,3uy4pis8ruyxp7v852m6xfad2fzn1g,3fe7txl1lm0r49oqv0j3vcbf1k4q2w,3GnOCmNx,2020-0188,2021-10-17,11:23:40,12:52:22,NA,incomplete,false,true,NA,3,13,NA,purple,n_s_087.jpg,NA,NA,pleasant,unpleasant,NA,NA,NA,NA,NA,right,1649.30000001192,true,NA,NA,NA,NA,NA
3GnOCmNx,3uy4pis8ruyxp7v852m6xfad2fzn1g,3fe7txl1lm0r49oqv0j3vcbf1k4q2w,3GnOCmNx,2020-0188,2021-10-17,11:23:40,12:52:22,NA,incomplete,false,true,NA,3,14,NA,purple,n_s_072.jpg,NA,NA,unpleasant,pleasant,NA,NA,NA,NA,NA,left,1805.09999999404,true,NA,NA,NA,NA,NA
3GnOCmNx,3uy4pis8ruyxp7v852m6xfad2fzn1g,3fe7txl1lm0r49oqv0j3vcbf1k4q2w,3GnOCmNx,2020-0188,2021-10-17,11:23:40,12:52:22,NA,incomplete,false,true,NA,3,15,NA,purple,m_l_051.jpg,NA,NA,unpleasant,pleasant,NA,NA,NA,NA,NA,right,2190.90000000596,true,NA,NA,NA,NA,NA
3GnOCmNx,3uy4pis8ruyxp7v852m6xfad2fzn1g,3fe7txl1lm0r49oqv0j3vcbf1k4q2w,3GnOCmNx,2020-0188,2021-10-17,11:23:40,12:52:22,NA,incomplete,false,true,NA,3,16,NA,purple,m_l_065.jpg,NA,NA,pleasant,unpleasant,NA,NA,NA,NA,NA,left,1906.70000000298,true,NA,NA,NA,NA,NA
3GnOCmNx,3uy4pis8ruyxp7v852m6xfad2fzn1g,3fe7txl1lm0r49oqv0j3vcbf1k4q2w,3GnOCmNx,2020-0188,2021-10-17,11:23:40,12:52:22,NA,incomplete,false,true,NA,3,17,NA,purple,m_l_061.jpg,NA,NA,pleasant,unpleasant,NA,NA,NA,NA,NA,right,1818,true,NA,NA,NA,NA,NA
3GnOCmNx,3uy4pis8ruyxp7v852m6xfad2fzn1g,3fe7txl1lm0r49oqv0j3vcbf1k4q2w,3GnOCmNx,2020-0188,2021-10-17,11:23:40,12:52:22,NA,incomplete,false,true,NA,3,18,NA,red,n_s_069.jpg,NA,NA,pleasant,unpleasant,NA,NA,NA,NA,NA,left,1569.69999998808,true,NA,NA,NA,NA,NA
3GnOCmNx,3uy4pis8ruyxp7v852m6xfad2fzn1g,3fe7txl1lm0r49oqv0j3vcbf1k4q2w,3GnOCmNx,2020-0188,2021-10-17,11:23:40,12:52:22,NA,incomplete,false,true,NA,3,19,NA,red,n_s_014.jpg,NA,NA,unpleasant,pleasant,NA,NA,NA,NA,NA,left,1658.20000000298,true,NA,NA,NA,NA,NA
3GnOCmNx,3uy4pis8ruyxp7v852m6xfad2fzn1g,3fe7txl1lm0r49oqv0j3vcbf1k4q2w,3GnOCmNx,2020-0188,2021-10-17,11:23:40,12:52:22,NA,incomplete,false,true,NA,3,20,NA,red,n_s_008.jpg,NA,NA,pleasant,unpleasant,NA,NA,NA,NA,NA,right,1572.29999999702,true,NA,NA,NA,NA,NA
3GnOCmNx,3uy4pis8ruyxp7v852m6xfad2fzn1g,3fe7txl1lm0r49oqv0j3vcbf1k4q2w,3GnOCmNx,2020-0188,2021-10-17,11:23:40,12:52:22,NA,incomplete,false,true,NA,3,21,NA,red,n_s_048.jpg,NA,NA,unpleasant,pleasant,NA,NA,NA,NA,NA,left,1811.59999999404,true,NA,NA,NA,NA,NA
3GnOCmNx,3uy4pis8ruyxp7v852m6xfad2fzn1g,3fe7txl1lm0r49oqv0j3vcbf1k4q2w,3GnOCmNx,2020-0188,2021-10-17,11:23:40,12:52:22,NA,incomplete,false,true,NA,3,22,NA,red,n_l_108.jpg,NA,NA,unpleasant,pleasant,NA,NA,NA,NA,NA,left,1698.20000000298,true,NA,NA,NA,NA,NA
3GnOCmNx,3uy4pis8ruyxp7v852m6xfad2fzn1g,3fe7txl1lm0r49oqv0j3vcbf1k4q2w,3GnOCmNx,2020-0188,2021-10-17,11:23:40,12:52:22,NA,incomplete,false,true,NA,3,23,NA,red,n_s_081.jpg,NA,NA,pleasant,unpleasant,NA,NA,NA,NA,NA,right,1632,true,NA,NA,NA,NA,NA
3GnOCmNx,3uy4pis8ruyxp7v852m6xfad2fzn1g,3fe7txl1lm0r49oqv0j3vcbf1k4q2w,3GnOCmNx,2020-0188,2021-10-17,11:23:40,12:52:22,NA,incomplete,false,true,NA,3,24,NA,yellow,m_l_084.jpg,NA,NA,pleasant,unpleasant,NA,NA,NA,NA,NA,right,1197.20000000298,true,NA,NA,NA,NA,NA
3GnOCmNx,3uy4pis8ruyxp7v852m6xfad2fzn1g,3fe7txl1lm0r49oqv0j3vcbf1k4q2w,3GnOCmNx,2020-0188,2021-10-17,11:23:40,12:52:22,NA,incomplete,false,true,NA,3,25,NA,yellow,n_l_062.jpg,NA,NA,unpleasant,pleasant,NA,NA,NA,NA,NA,right,1936.79999999702,true,NA,NA,NA,NA,NA
3GnOCmNx,3uy4pis8ruyxp7v852m6xfad2fzn1g,3fe7txl1lm0r49oqv0j3vcbf1k4q2w,3GnOCmNx,2020-0188,2021-10-17,11:23:40,12:52:22,NA,incomplete,false,true,NA,3,26,NA,yellow,n_l_077.jpg,NA,NA,unpleasant,pleasant,NA,NA,NA,NA,NA,left,1929.5,true,NA,NA,NA,NA,NA
3GnOCmNx,3uy4pis8ruyxp7v852m6xfad2fzn1g,3fe7txl1lm0r49oqv0j3vcbf1k4q2w,3GnOCmNx,2020-0188,2021-10-17,11:23:40,12:52:22,NA,incomplete,false,true,NA,3,27,NA,yellow,m_l_096.jpg,NA,NA,unpleasant,pleasant,NA,NA,NA,NA,NA,right,1675,true,NA,NA,NA,NA,NA
3GnOCmNx,3uy4pis8ruyxp7v852m6xfad2fzn1g,3fe7txl1lm0r49oqv0j3vcbf1k4q2w,3GnOCmNx,2020-0188,2021-10-17,11:23:40,12:52:22,NA,incomplete,false,true,NA,3,28,NA,yellow,n_s_020.jpg,NA,NA,pleasant,unpleasant,NA,NA,NA,NA,NA,right,1447.20000000298,true,NA,NA,NA,NA,NA
3GnOCmNx,3uy4pis8ruyxp7v852m6xfad2fzn1g,3fe7txl1lm0r49oqv0j3vcbf1k4q2w,3GnOCmNx,2020-0188,2021-10-17,11:23:40,12:52:22,NA,incomplete,false,true,NA,3,29,NA,yellow,n_s_112.jpg,NA,NA,pleasant,unpleasant,NA,NA,NA,NA,NA,left,2229,true,NA,NA,NA,NA,NA
3GnOCmNx,3uy4pis8ruyxp7v852m6xfad2fzn1g,3fe7txl1lm0r49oqv0j3vcbf1k4q2w,3GnOCmNx,2020-0188,2021-10-17,11:23:40,12:52:22,NA,incomplete,false,true,NA,3,30,NA,blue,n_s_092.jpg,NA,NA,pleasant,unpleasant,NA,NA,NA,NA,NA,right,1410,true,NA,NA,NA,NA,NA
3GnOCmNx,3uy4pis8ruyxp7v852m6xfad2fzn1g,3fe7txl1lm0r49oqv0j3vcbf1k4q2w,3GnOCmNx,2020-0188,2021-10-17,11:23:40,12:52:22,NA,incomplete,false,true,NA,3,31,NA,blue,n_s_058.jpg,NA,NA,unpleasant,pleasant,NA,NA,NA,NA,NA,left,1829.40000000596,true,NA,NA,NA,NA,NA
3GnOCmNx,3uy4pis8ruyxp7v852m6xfad2fzn1g,3fe7txl1lm0r49oqv0j3vcbf1k4q2w,3GnOCmNx,2020-0188,2021-10-17,11:23:40,12:52:22,NA,incomplete,false,true,NA,3,32,NA,blue,m_l_037.jpg,NA,NA,unpleasant,pleasant,NA,NA,NA,NA,NA,right,1243.10000000894,true,NA,NA,NA,NA,NA
3GnOCmNx,3uy4pis8ruyxp7v852m6xfad2fzn1g,3fe7txl1lm0r49oqv0j3vcbf1k4q2w,3GnOCmNx,2020-0188,2021-10-17,11:23:40,12:52:22,NA,incomplete,false,true,NA,3,33,NA,blue,m_s_015.jpg,NA,NA,pleasant,unpleasant,NA,NA,NA,NA,NA,left,1642.20000000298,true,NA,NA,NA,NA,NA
3GnOCmNx,3uy4pis8ruyxp7v852m6xfad2fzn1g,3fe7txl1lm0r49oqv0j3vcbf1k4q2w,3GnOCmNx,2020-0188,2021-10-17,11:23:40,12:52:22,NA,incomplete,false,true,NA,3,34,NA,blue,m_s_080.jpg,NA,NA,pleasant,unpleasant,NA,NA,NA,NA,NA,left,2042.90000000596,true,NA,NA,NA,NA,NA
3GnOCmNx,3uy4pis8ruyxp7v852m6xfad2fzn1g,3fe7txl1lm0r49oqv0j3vcbf1k4q2w,3GnOCmNx,2020-0188,2021-10-17,11:23:40,12:52:22,NA,incomplete,false,true,NA,3,35,NA,blue,m_l_033.jpg,NA,NA,unpleasant,pleasant,NA,NA,NA,NA,NA,right,1828.29999999702,true,NA,NA,NA,NA,NA
3GnOCmNx,3uy4pis8ruyxp7v852m6xfad2fzn1g,3fe7txl1lm0r49oqv0j3vcbf1k4q2w,3GnOCmNx,2020-0188,2021-10-17,11:23:40,12:52:22,NA,incomplete,false,NA,true,3,0,NA,NA,NA,right,absent,NA,NA,m_l_079.jpg,orange,m_s_010.jpg,brown,between,NA,NaN,NA,right,7407.4000000059605,1,1,2809.7999999970198
3GnOCmNx,3uy4pis8ruyxp7v852m6xfad2fzn1g,3fe7txl1lm0r49oqv0j3vcbf1k4q2w,3GnOCmNx,2020-0188,2021-10-17,11:23:40,12:52:22,NA,incomplete,false,NA,true,3,1,NA,NA,NA,right,absent,NA,NA,n_s_072.jpg,purple,n_l_018.jpg,orange,between,NA,NaN,NA,left,6595.600000008941,0,1,1401.800000011921
3GnOCmNx,3uy4pis8ruyxp7v852m6xfad2fzn1g,3fe7txl1lm0r49oqv0j3vcbf1k4q2w,3GnOCmNx,2020-0188,2021-10-17,11:23:40,12:52:22,NA,incomplete,false,NA,true,3,2,NA,NA,NA,right,absent,NA,NA,n_s_112.jpg,yellow,n_l_062.jpg,yellow,within,NA,NaN,NA,right,6431.300000011921,1,2,6060.70000000298
3GnOCmNx,3uy4pis8ruyxp7v852m6xfad2fzn1g,3fe7txl1lm0r49oqv0j3vcbf1k4q2w,3GnOCmNx,2020-0188,2021-10-17,11:23:40,12:52:22,NA,incomplete,false,NA,true,3,3,NA,NA,NA,right,absent,NA,NA,n_s_008.jpg,red,m_l_065.jpg,purple,between,NA,NaN,NA,right,4804.29999999702,1,1,3078.1000000089407
3GnOCmNx,3uy4pis8ruyxp7v852m6xfad2fzn1g,3fe7txl1lm0r49oqv0j3vcbf1k4q2w,3GnOCmNx,2020-0188,2021-10-17,11:23:40,12:52:22,NA,incomplete,false,NA,true,3,4,NA,NA,NA,right,absent,NA,NA,m_l_037.jpg,blue,n_s_020.jpg,yellow,between,NA,NaN,NA,left,6555.70000000298,0,1,1928.2000000029802
3GnOCmNx,3uy4pis8ruyxp7v852m6xfad2fzn1g,3fe7txl1lm0r49oqv0j3vcbf1k4q2w,3GnOCmNx,2020-0188,2021-10-17,11:23:40,12:52:22,NA,incomplete,false,NA,true,3,5,NA,NA,NA,left,absent,NA,NA,n_l_108.jpg,red,n_l_077.jpg,yellow,between,NA,NaN,NA,right,6332.29999999702,0,2,1826.7999999970198
3GnOCmNx,3uy4pis8ruyxp7v852m6xfad2fzn1g,3fe7txl1lm0r49oqv0j3vcbf1k4q2w,3GnOCmNx,2020-0188,2021-10-17,11:23:40,12:52:22,NA,incomplete,false,NA,true,3,6,NA,NA,NA,left,absent,NA,NA,m_l_020.jpg,orange,m_l_053.jpg,orange,within,NA,NaN,NA,left,5226.20000000298,1,0,1093.4000000059605
3GnOCmNx,3uy4pis8ruyxp7v852m6xfad2fzn1g,3fe7txl1lm0r49oqv0j3vcbf1k4q2w,3GnOCmNx,2020-0188,2021-10-17,11:23:40,12:52:22,NA,incomplete,false,NA,true,3,7,NA,NA,NA,right,absent,NA,NA,m_l_061.jpg,purple,n_s_087.jpg,purple,within,NA,NaN,NA,left,4484.5,0,0,1152.7000000029802
3GnOCmNx,3uy4pis8ruyxp7v852m6xfad2fzn1g,3fe7txl1lm0r49oqv0j3vcbf1k4q2w,3GnOCmNx,2020-0188,2021-10-17,11:23:40,12:52:22,NA,incomplete,false,NA,true,3,8,NA,NA,NA,left,absent,NA,NA,n_s_014.jpg,red,n_s_081.jpg,red,within,NA,NaN,NA,right,6820.0999999940395,0,2,1303.7000000029802
3GnOCmNx,3uy4pis8ruyxp7v852m6xfad2fzn1g,3fe7txl1lm0r49oqv0j3vcbf1k4q2w,3GnOCmNx,2020-0188,2021-10-17,11:23:40,12:52:22,NA,incomplete,false,NA,true,3,9,NA,NA,NA,right,absent,NA,NA,n_l_016.jpg,brown,n_s_085.jpg,brown,within,NA,NaN,NA,right,6309.100000008941,1,0,1308.4000000059605
3GnOCmNx,3uy4pis8ruyxp7v852m6xfad2fzn1g,3fe7txl1lm0r49oqv0j3vcbf1k4q2w,3GnOCmNx,2020-0188,2021-10-17,11:23:40,12:52:22,NA,incomplete,false,NA,true,3,10,NA,NA,NA,left,absent,NA,NA,n_s_058.jpg,blue,m_l_033.jpg,blue,within,NA,NaN,NA,right,2617.6000000089407,0,2,1353.5
3GnOCmNx,3uy4pis8ruyxp7v852m6xfad2fzn1g,3fe7txl1lm0r49oqv0j3vcbf1k4q2w,3GnOCmNx,2020-0188,2021-10-17,11:23:40,12:52:22,NA,incomplete,false,true,NA,4,0,NA,green,m_l_070.jpg,NA,NA,pleasant,unpleasant,NA,NA,NA,NA,NA,right,3054.20000000298,true,NA,NA,NA,NA,NA
3GnOCmNx,3uy4pis8ruyxp7v852m6xfad2fzn1g,3fe7txl1lm0r49oqv0j3vcbf1k4q2w,3GnOCmNx,2020-0188,2021-10-17,11:23:40,12:52:22,NA,incomplete,false,true,NA,4,1,NA,green,n_l_020.jpg,NA,NA,pleasant,unpleasant,NA,NA,NA,NA,NA,right,1637.40000000596,true,NA,NA,NA,NA,NA
3GnOCmNx,3uy4pis8ruyxp7v852m6xfad2fzn1g,3fe7txl1lm0r49oqv0j3vcbf1k4q2w,3GnOCmNx,2020-0188,2021-10-17,11:23:40,12:52:22,NA,incomplete,false,true,NA,4,2,NA,green,n_s_016.jpg,NA,NA,unpleasant,pleasant,NA,NA,NA,NA,NA,left,2299.70000000298,true,NA,NA,NA,NA,NA
3GnOCmNx,3uy4pis8ruyxp7v852m6xfad2fzn1g,3fe7txl1lm0r49oqv0j3vcbf1k4q2w,3GnOCmNx,2020-0188,2021-10-17,11:23:40,12:52:22,NA,incomplete,false,true,NA,4,3,NA,green,n_l_031.jpg,NA,NA,unpleasant,pleasant,NA,NA,NA,NA,NA,left,2453,true,NA,NA,NA,NA,NA
3GnOCmNx,3uy4pis8ruyxp7v852m6xfad2fzn1g,3fe7txl1lm0r49oqv0j3vcbf1k4q2w,3GnOCmNx,2020-0188,2021-10-17,11:23:40,12:52:22,NA,incomplete,false,true,NA,4,4,NA,green,n_l_023.jpg,NA,NA,unpleasant,pleasant,NA,NA,NA,NA,NA,right,2024.20000000298,true,NA,NA,NA,NA,NA
3GnOCmNx,3uy4pis8ruyxp7v852m6xfad2fzn1g,3fe7txl1lm0r49oqv0j3vcbf1k4q2w,3GnOCmNx,2020-0188,2021-10-17,11:23:40,12:52:22,NA,incomplete,false,true,NA,4,5,NA,green,n_s_019.jpg,NA,NA,unpleasant,pleasant,NA,NA,NA,NA,NA,right,1422.29999999702,true,NA,NA,NA,NA,NA
3GnOCmNx,3uy4pis8ruyxp7v852m6xfad2fzn1g,3fe7txl1lm0r49oqv0j3vcbf1k4q2w,3GnOCmNx,2020-0188,2021-10-17,11:23:40,12:52:22,NA,incomplete,false,true,NA,4,6,NA,white,n_s_009.jpg,NA,NA,unpleasant,pleasant,NA,NA,NA,NA,NA,left,1808.79999999702,true,NA,NA,NA,NA,NA
3GnOCmNx,3uy4pis8ruyxp7v852m6xfad2fzn1g,3fe7txl1lm0r49oqv0j3vcbf1k4q2w,3GnOCmNx,2020-0188,2021-10-17,11:23:40,12:52:22,NA,incomplete,false,true,NA,4,7,NA,white,m_l_017.jpg,NA,NA,unpleasant,pleasant,NA,NA,NA,NA,NA,right,1827.5,true,NA,NA,NA,NA,NA
3GnOCmNx,3uy4pis8ruyxp7v852m6xfad2fzn1g,3fe7txl1lm0r49oqv0j3vcbf1k4q2w,3GnOCmNx,2020-0188,2021-10-17,11:23:40,12:52:22,NA,incomplete,false,true,NA,4,8,NA,white,m_l_074.jpg,NA,NA,unpleasant,pleasant,NA,NA,NA,NA,NA,right,2641,true,NA,NA,NA,NA,NA
3GnOCmNx,3uy4pis8ruyxp7v852m6xfad2fzn1g,3fe7txl1lm0r49oqv0j3vcbf1k4q2w,3GnOCmNx,2020-0188,2021-10-17,11:23:40,12:52:22,NA,incomplete,false,true,NA,4,9,NA,white,n_s_055.jpg,NA,NA,pleasant,unpleasant,NA,NA,NA,NA,NA,right,2689.90000000596,true,NA,NA,NA,NA,NA
3GnOCmNx,3uy4pis8ruyxp7v852m6xfad2fzn1g,3fe7txl1lm0r49oqv0j3vcbf1k4q2w,3GnOCmNx,2020-0188,2021-10-17,11:23:40,12:52:22,NA,incomplete,false,true,NA,4,10,NA,white,m_l_044.jpg,NA,NA,unpleasant,pleasant,NA,NA,NA,NA,NA,right,2619.79999999702,true,NA,NA,NA,NA,NA
3GnOCmNx,3uy4pis8ruyxp7v852m6xfad2fzn1g,3fe7txl1lm0r49oqv0j3vcbf1k4q2w,3GnOCmNx,2020-0188,2021-10-17,11:23:40,12:52:22,NA,incomplete,false,true,NA,4,11,NA,white,n_s_054.jpg,NA,NA,unpleasant,pleasant,NA,NA,NA,NA,NA,left,1938.5,true,NA,NA,NA,NA,NA
3GnOCmNx,3uy4pis8ruyxp7v852m6xfad2fzn1g,3fe7txl1lm0r49oqv0j3vcbf1k4q2w,3GnOCmNx,2020-0188,2021-10-17,11:23:40,12:52:22,NA,incomplete,false,true,NA,4,12,NA,brown,m_s_071.jpg,NA,NA,unpleasant,pleasant,NA,NA,NA,NA,NA,left,2156.29999999702,true,NA,NA,NA,NA,NA
3GnOCmNx,3uy4pis8ruyxp7v852m6xfad2fzn1g,3fe7txl1lm0r49oqv0j3vcbf1k4q2w,3GnOCmNx,2020-0188,2021-10-17,11:23:40,12:52:22,NA,incomplete,false,true,NA,4,13,NA,brown,m_l_057.jpg,NA,NA,pleasant,unpleasant,NA,NA,NA,NA,NA,right,2340.59999999404,true,NA,NA,NA,NA,NA
3GnOCmNx,3uy4pis8ruyxp7v852m6xfad2fzn1g,3fe7txl1lm0r49oqv0j3vcbf1k4q2w,3GnOCmNx,2020-0188,2021-10-17,11:23:40,12:52:22,NA,incomplete,false,true,NA,4,14,NA,brown,n_l_024.jpg,NA,NA,pleasant,unpleasant,NA,NA,NA,NA,NA,left,2357.79999999702,true,NA,NA,NA,NA,NA
3GnOCmNx,3uy4pis8ruyxp7v852m6xfad2fzn1g,3fe7txl1lm0r49oqv0j3vcbf1k4q2w,3GnOCmNx,2020-0188,2021-10-17,11:23:40,12:52:22,NA,incomplete,false,true,NA,4,15,NA,brown,m_s_073.jpg,NA,NA,pleasant,unpleasant,NA,NA,NA,NA,NA,left,2079.70000000298,true,NA,NA,NA,NA,NA
3GnOCmNx,3uy4pis8ruyxp7v852m6xfad2fzn1g,3fe7txl1lm0r49oqv0j3vcbf1k4q2w,3GnOCmNx,2020-0188,2021-10-17,11:23:40,12:52:22,NA,incomplete,false,true,NA,4,16,NA,brown,n_l_043.jpg,NA,NA,pleasant,unpleasant,NA,NA,NA,NA,NA,left,1605.09999999404,true,NA,NA,NA,NA,NA
3GnOCmNx,3uy4pis8ruyxp7v852m6xfad2fzn1g,3fe7txl1lm0r49oqv0j3vcbf1k4q2w,3GnOCmNx,2020-0188,2021-10-17,11:23:40,12:52:22,NA,incomplete,false,true,NA,4,17,NA,brown,m_s_103.jpg,NA,NA,unpleasant,pleasant,NA,NA,NA,NA,NA,right,1476.5,true,NA,NA,NA,NA,NA
3GnOCmNx,3uy4pis8ruyxp7v852m6xfad2fzn1g,3fe7txl1lm0r49oqv0j3vcbf1k4q2w,3GnOCmNx,2020-0188,2021-10-17,11:23:40,12:52:22,NA,incomplete,false,true,NA,4,18,NA,orange,m_l_032.jpg,NA,NA,pleasant,unpleasant,NA,NA,NA,NA,NA,right,1914.29999999702,true,NA,NA,NA,NA,NA
3GnOCmNx,3uy4pis8ruyxp7v852m6xfad2fzn1g,3fe7txl1lm0r49oqv0j3vcbf1k4q2w,3GnOCmNx,2020-0188,2021-10-17,11:23:40,12:52:22,NA,incomplete,false,true,NA,4,19,NA,orange,m_s_050.jpg,NA,NA,unpleasant,pleasant,NA,NA,NA,NA,NA,right,1888.09999999404,true,NA,NA,NA,NA,NA
3GnOCmNx,3uy4pis8ruyxp7v852m6xfad2fzn1g,3fe7txl1lm0r49oqv0j3vcbf1k4q2w,3GnOCmNx,2020-0188,2021-10-17,11:23:40,12:52:22,NA,incomplete,false,true,NA,4,20,NA,orange,n_s_064.jpg,NA,NA,pleasant,unpleasant,NA,NA,NA,NA,NA,right,1605.29999999702,true,NA,NA,NA,NA,NA
3GnOCmNx,3uy4pis8ruyxp7v852m6xfad2fzn1g,3fe7txl1lm0r49oqv0j3vcbf1k4q2w,3GnOCmNx,2020-0188,2021-10-17,11:23:40,12:52:22,NA,incomplete,false,true,NA,4,21,NA,orange,n_l_038.jpg,NA,NA,pleasant,unpleasant,NA,NA,NA,NA,NA,right,1310,true,NA,NA,NA,NA,NA
3GnOCmNx,3uy4pis8ruyxp7v852m6xfad2fzn1g,3fe7txl1lm0r49oqv0j3vcbf1k4q2w,3GnOCmNx,2020-0188,2021-10-17,11:23:40,12:52:22,NA,incomplete,false,true,NA,4,22,NA,orange,m_l_027.jpg,NA,NA,pleasant,unpleasant,NA,NA,NA,NA,NA,right,1388.60000000894,true,NA,NA,NA,NA,NA
3GnOCmNx,3uy4pis8ruyxp7v852m6xfad2fzn1g,3fe7txl1lm0r49oqv0j3vcbf1k4q2w,3GnOCmNx,2020-0188,2021-10-17,11:23:40,12:52:22,NA,incomplete,false,true,NA,4,23,NA,orange,m_s_019.jpg,NA,NA,pleasant,unpleasant,NA,NA,NA,NA,NA,left,2532.09999999404,true,NA,NA,NA,NA,NA
3GnOCmNx,3uy4pis8ruyxp7v852m6xfad2fzn1g,3fe7txl1lm0r49oqv0j3vcbf1k4q2w,3GnOCmNx,2020-0188,2021-10-17,11:23:40,12:52:22,NA,incomplete,false,true,NA,4,24,NA,red,m_l_021.jpg,NA,NA,unpleasant,pleasant,NA,NA,NA,NA,NA,right,1489.20000000298,true,NA,NA,NA,NA,NA
3GnOCmNx,3uy4pis8ruyxp7v852m6xfad2fzn1g,3fe7txl1lm0r49oqv0j3vcbf1k4q2w,3GnOCmNx,2020-0188,2021-10-17,11:23:40,12:52:22,NA,incomplete,false,true,NA,4,25,NA,red,m_l_071.jpg,NA,NA,pleasant,unpleasant,NA,NA,NA,NA,NA,left,1818.40000000596,true,NA,NA,NA,NA,NA
3GnOCmNx,3uy4pis8ruyxp7v852m6xfad2fzn1g,3fe7txl1lm0r49oqv0j3vcbf1k4q2w,3GnOCmNx,2020-0188,2021-10-17,11:23:40,12:52:22,NA,incomplete,false,true,NA,4,26,NA,red,n_l_029.jpg,NA,NA,pleasant,unpleasant,NA,NA,NA,NA,NA,right,1451.70000000298,true,NA,NA,NA,NA,NA
3GnOCmNx,3uy4pis8ruyxp7v852m6xfad2fzn1g,3fe7txl1lm0r49oqv0j3vcbf1k4q2w,3GnOCmNx,2020-0188,2021-10-17,11:23:40,12:52:22,NA,incomplete,false,true,NA,4,27,NA,red,n_l_056.jpg,NA,NA,unpleasant,pleasant,NA,NA,NA,NA,NA,left,1794.09999999404,true,NA,NA,NA,NA,NA
3GnOCmNx,3uy4pis8ruyxp7v852m6xfad2fzn1g,3fe7txl1lm0r49oqv0j3vcbf1k4q2w,3GnOCmNx,2020-0188,2021-10-17,11:23:40,12:52:22,NA,incomplete,false,true,NA,4,28,NA,red,m_l_092.jpg,NA,NA,unpleasant,pleasant,NA,NA,NA,NA,NA,right,1566.29999999702,true,NA,NA,NA,NA,NA
3GnOCmNx,3uy4pis8ruyxp7v852m6xfad2fzn1g,3fe7txl1lm0r49oqv0j3vcbf1k4q2w,3GnOCmNx,2020-0188,2021-10-17,11:23:40,12:52:22,NA,incomplete,false,true,NA,4,29,NA,red,n_s_021.jpg,NA,NA,pleasant,unpleasant,NA,NA,NA,NA,NA,right,2345.5,true,NA,NA,NA,NA,NA
3GnOCmNx,3uy4pis8ruyxp7v852m6xfad2fzn1g,3fe7txl1lm0r49oqv0j3vcbf1k4q2w,3GnOCmNx,2020-0188,2021-10-17,11:23:40,12:52:22,NA,incomplete,false,true,NA,4,30,NA,purple,n_l_007.jpg,NA,NA,pleasant,unpleasant,NA,NA,NA,NA,NA,right,2349.60000000894,true,NA,NA,NA,NA,NA
3GnOCmNx,3uy4pis8ruyxp7v852m6xfad2fzn1g,3fe7txl1lm0r49oqv0j3vcbf1k4q2w,3GnOCmNx,2020-0188,2021-10-17,11:23:40,12:52:22,NA,incomplete,false,true,NA,4,31,NA,purple,m_s_088.jpg,NA,NA,pleasant,unpleasant,NA,NA,NA,NA,NA,left,1287.30000001192,true,NA,NA,NA,NA,NA
3GnOCmNx,3uy4pis8ruyxp7v852m6xfad2fzn1g,3fe7txl1lm0r49oqv0j3vcbf1k4q2w,3GnOCmNx,2020-0188,2021-10-17,11:23:40,12:52:22,NA,incomplete,false,true,NA,4,32,NA,purple,m_s_047.jpg,NA,NA,pleasant,unpleasant,NA,NA,NA,NA,NA,left,2283.69999998808,true,NA,NA,NA,NA,NA
3GnOCmNx,3uy4pis8ruyxp7v852m6xfad2fzn1g,3fe7txl1lm0r49oqv0j3vcbf1k4q2w,3GnOCmNx,2020-0188,2021-10-17,11:23:40,12:52:22,NA,incomplete,false,true,NA,4,33,NA,purple,m_l_031.jpg,NA,NA,unpleasant,pleasant,NA,NA,NA,NA,NA,left,1759.90000000596,true,NA,NA,NA,NA,NA
3GnOCmNx,3uy4pis8ruyxp7v852m6xfad2fzn1g,3fe7txl1lm0r49oqv0j3vcbf1k4q2w,3GnOCmNx,2020-0188,2021-10-17,11:23:40,12:52:22,NA,incomplete,false,true,NA,4,34,NA,purple,n_s_073.jpg,NA,NA,pleasant,unpleasant,NA,NA,NA,NA,NA,right,1960.59999999404,true,NA,NA,NA,NA,NA
3GnOCmNx,3uy4pis8ruyxp7v852m6xfad2fzn1g,3fe7txl1lm0r49oqv0j3vcbf1k4q2w,3GnOCmNx,2020-0188,2021-10-17,11:23:40,12:52:22,NA,incomplete,false,true,NA,4,35,NA,purple,n_l_105.jpg,NA,NA,unpleasant,pleasant,NA,NA,NA,NA,NA,left,1826.70000000298,true,NA,NA,NA,NA,NA
3GnOCmNx,3uy4pis8ruyxp7v852m6xfad2fzn1g,3fe7txl1lm0r49oqv0j3vcbf1k4q2w,3GnOCmNx,2020-0188,2021-10-17,11:23:40,12:52:22,NA,incomplete,false,NA,true,4,0,NA,NA,NA,left,present,NA,NA,m_s_050.jpg,orange,m_s_019.jpg,orange,within,NA,NaN,NA,right,4367.899999991059,0,0,2069.0999999940395
3GnOCmNx,3uy4pis8ruyxp7v852m6xfad2fzn1g,3fe7txl1lm0r49oqv0j3vcbf1k4q2w,3GnOCmNx,2020-0188,2021-10-17,11:23:40,12:52:22,NA,incomplete,false,NA,true,4,1,NA,NA,NA,left,present,NA,NA,n_l_020.jpg,green,n_s_019.jpg,green,within,NA,NaN,NA,right,2784.0999999940395,0,1,1444.3999999910593
3GnOCmNx,3uy4pis8ruyxp7v852m6xfad2fzn1g,3fe7txl1lm0r49oqv0j3vcbf1k4q2w,3GnOCmNx,2020-0188,2021-10-17,11:23:40,12:52:22,NA,incomplete,false,NA,true,4,2,NA,NA,NA,right,present,NA,NA,n_s_064.jpg,orange,n_l_043.jpg,brown,between,NA,NaN,NA,right,6021.5,1,1,2473.0999999940395
3GnOCmNx,3uy4pis8ruyxp7v852m6xfad2fzn1g,3fe7txl1lm0r49oqv0j3vcbf1k4q2w,3GnOCmNx,2020-0188,2021-10-17,11:23:40,12:52:22,NA,incomplete,false,NA,true,4,3,NA,NA,NA,left,present,NA,NA,m_l_017.jpg,white,n_s_054.jpg,white,within,NA,NaN,NA,right,4804.29999999702,0,0,2376
3GnOCmNx,3uy4pis8ruyxp7v852m6xfad2fzn1g,3fe7txl1lm0r49oqv0j3vcbf1k4q2w,3GnOCmNx,2020-0188,2021-10-17,11:23:40,12:52:22,NA,incomplete,false,NA,true,4,4,NA,NA,NA,right,present,NA,NA,m_s_103.jpg,brown,m_l_057.jpg,brown,within,NA,NaN,NA,left,3006.199999988079,0,0,1197.6000000089407
3GnOCmNx,3uy4pis8ruyxp7v852m6xfad2fzn1g,3fe7txl1lm0r49oqv0j3vcbf1k4q2w,3GnOCmNx,2020-0188,2021-10-17,11:23:40,12:52:22,NA,incomplete,false,NA,true,4,5,NA,NA,NA,right,present,NA,NA,n_l_029.jpg,red,m_l_027.jpg,orange,between,NA,NaN,NA,right,3225.2000000029802,1,1,1519.9000000059605
3GnOCmNx,3uy4pis8ruyxp7v852m6xfad2fzn1g,3fe7txl1lm0r49oqv0j3vcbf1k4q2w,3GnOCmNx,2020-0188,2021-10-17,11:23:40,12:52:22,NA,incomplete,false,NA,true,4,6,NA,NA,NA,right,present,NA,NA,n_l_105.jpg,purple,m_s_088.jpg,purple,within,NA,NaN,NA,right,3722.5999999940395,1,0,1144.7000000029802
3GnOCmNx,3uy4pis8ruyxp7v852m6xfad2fzn1g,3fe7txl1lm0r49oqv0j3vcbf1k4q2w,3GnOCmNx,2020-0188,2021-10-17,11:23:40,12:52:22,NA,incomplete,false,NA,true,4,7,NA,NA,NA,left,present,NA,NA,n_l_023.jpg,green,m_l_074.jpg,white,between,NA,NaN,NA,left,2716.199999988079,1,2,2079.2000000029802
3GnOCmNx,3uy4pis8ruyxp7v852m6xfad2fzn1g,3fe7txl1lm0r49oqv0j3vcbf1k4q2w,3GnOCmNx,2020-0188,2021-10-17,11:23:40,12:52:22,NA,incomplete,false,NA,true,4,8,NA,NA,NA,left,present,NA,NA,m_l_071.jpg,red,n_s_021.jpg,red,within,NA,NaN,NA,left,6422.399999991059,1,0,1160
3GnOCmNx,3uy4pis8ruyxp7v852m6xfad2fzn1g,3fe7txl1lm0r49oqv0j3vcbf1k4q2w,3GnOCmNx,2020-0188,2021-10-17,11:23:40,12:52:22,NA,incomplete,false,NA,true,4,9,NA,NA,NA,left,present,NA,NA,m_l_092.jpg,red,m_s_047.jpg,purple,between,NA,NaN,NA,left,3768.4000000059605,1,1,1887.3999999910593
3GnOCmNx,3uy4pis8ruyxp7v852m6xfad2fzn1g,3fe7txl1lm0r49oqv0j3vcbf1k4q2w,3GnOCmNx,2020-0188,2021-10-17,11:23:40,12:52:22,NA,incomplete,false,NA,true,4,10,NA,NA,NA,left,present,NA,NA,m_l_044.jpg,white,n_l_024.jpg,brown,between,NA,NaN,NA,left,6500.5,1,2,1230.800000011921
3GnOCmNx,3uy4pis8ruyxp7v852m6xfad2fzn1g,3fe7txl1lm0r49oqv0j3vcbf1k4q2w,3GnOCmNx,2020-0188,2021-10-17,11:23:40,12:52:22,NA,incomplete,false,true,NA,5,0,NA,yellow,m_s_094.jpg,NA,NA,pleasant,unpleasant,NA,NA,NA,NA,NA,left,1669.79999999702,true,NA,NA,NA,NA,NA
3GnOCmNx,3uy4pis8ruyxp7v852m6xfad2fzn1g,3fe7txl1lm0r49oqv0j3vcbf1k4q2w,3GnOCmNx,2020-0188,2021-10-17,11:23:40,12:52:22,NA,incomplete,false,true,NA,5,1,NA,yellow,m_s_108.jpg,NA,NA,pleasant,unpleasant,NA,NA,NA,NA,NA,left,2105.70000000298,true,NA,NA,NA,NA,NA
3GnOCmNx,3uy4pis8ruyxp7v852m6xfad2fzn1g,3fe7txl1lm0r49oqv0j3vcbf1k4q2w,3GnOCmNx,2020-0188,2021-10-17,11:23:40,12:52:22,NA,incomplete,false,true,NA,5,2,NA,yellow,m_l_016.jpg,NA,NA,pleasant,unpleasant,NA,NA,NA,NA,NA,right,2014.5,true,NA,NA,NA,NA,NA
3GnOCmNx,3uy4pis8ruyxp7v852m6xfad2fzn1g,3fe7txl1lm0r49oqv0j3vcbf1k4q2w,3GnOCmNx,2020-0188,2021-10-17,11:23:40,12:52:22,NA,incomplete,false,true,NA,5,3,NA,yellow,m_l_028.jpg,NA,NA,unpleasant,pleasant,NA,NA,NA,NA,NA,left,1420.60000000894,true,NA,NA,NA,NA,NA
3GnOCmNx,3uy4pis8ruyxp7v852m6xfad2fzn1g,3fe7txl1lm0r49oqv0j3vcbf1k4q2w,3GnOCmNx,2020-0188,2021-10-17,11:23:40,12:52:22,NA,incomplete,false,true,NA,5,4,NA,yellow,m_s_105.jpg,NA,NA,unpleasant,pleasant,NA,NA,NA,NA,NA,right,1242.40000000596,true,NA,NA,NA,NA,NA
3GnOCmNx,3uy4pis8ruyxp7v852m6xfad2fzn1g,3fe7txl1lm0r49oqv0j3vcbf1k4q2w,3GnOCmNx,2020-0188,2021-10-17,11:23:40,12:52:22,NA,incomplete,false,true,NA,5,5,NA,yellow,m_l_082.jpg,NA,NA,unpleasant,pleasant,NA,NA,NA,NA,NA,left,1728.19999998808,true,NA,NA,NA,NA,NA
3GnOCmNx,3uy4pis8ruyxp7v852m6xfad2fzn1g,3fe7txl1lm0r49oqv0j3vcbf1k4q2w,3GnOCmNx,2020-0188,2021-10-17,11:23:40,12:52:22,NA,incomplete,false,true,NA,5,6,NA,red,n_l_111.jpg,NA,NA,unpleasant,pleasant,NA,NA,NA,NA,NA,right,1638.39999999106,true,NA,NA,NA,NA,NA
3GnOCmNx,3uy4pis8ruyxp7v852m6xfad2fzn1g,3fe7txl1lm0r49oqv0j3vcbf1k4q2w,3GnOCmNx,2020-0188,2021-10-17,11:23:40,12:52:22,NA,incomplete,false,true,NA,5,7,NA,red,m_s_064.jpg,NA,NA,pleasant,unpleasant,NA,NA,NA,NA,NA,left,1284.79999999702,true,NA,NA,NA,NA,NA
3GnOCmNx,3uy4pis8ruyxp7v852m6xfad2fzn1g,3fe7txl1lm0r49oqv0j3vcbf1k4q2w,3GnOCmNx,2020-0188,2021-10-17,11:23:40,12:52:22,NA,incomplete,false,true,NA,5,8,NA,red,m_s_034.jpg,NA,NA,pleasant,unpleasant,NA,NA,NA,NA,NA,left,1097.29999999702,true,NA,NA,NA,NA,NA
3GnOCmNx,3uy4pis8ruyxp7v852m6xfad2fzn1g,3fe7txl1lm0r49oqv0j3vcbf1k4q2w,3GnOCmNx,2020-0188,2021-10-17,11:23:40,12:52:22,NA,incomplete,false,true,NA,5,9,NA,red,n_s_027.jpg,NA,NA,pleasant,unpleasant,NA,NA,NA,NA,NA,right,1373.20000000298,true,NA,NA,NA,NA,NA
3GnOCmNx,3uy4pis8ruyxp7v852m6xfad2fzn1g,3fe7txl1lm0r49oqv0j3vcbf1k4q2w,3GnOCmNx,2020-0188,2021-10-17,11:23:40,12:52:22,NA,incomplete,false,true,NA,5,10,NA,red,n_l_035.jpg,NA,NA,unpleasant,pleasant,NA,NA,NA,NA,NA,right,1892.40000000596,true,NA,NA,NA,NA,NA
3GnOCmNx,3uy4pis8ruyxp7v852m6xfad2fzn1g,3fe7txl1lm0r49oqv0j3vcbf1k4q2w,3GnOCmNx,2020-0188,2021-10-17,11:23:40,12:52:22,NA,incomplete,false,true,NA,5,11,NA,red,n_s_097.jpg,NA,NA,pleasant,unpleasant,NA,NA,NA,NA,NA,right,1048.79999999702,true,NA,NA,NA,NA,NA
3GnOCmNx,3uy4pis8ruyxp7v852m6xfad2fzn1g,3fe7txl1lm0r49oqv0j3vcbf1k4q2w,3GnOCmNx,2020-0188,2021-10-17,11:23:40,12:52:22,NA,incomplete,false,true,NA,5,12,NA,black,m_s_033.jpg,NA,NA,pleasant,unpleasant,NA,NA,NA,NA,NA,left,1891.60000000894,true,NA,NA,NA,NA,NA
3GnOCmNx,3uy4pis8ruyxp7v852m6xfad2fzn1g,3fe7txl1lm0r49oqv0j3vcbf1k4q2w,3GnOCmNx,2020-0188,2021-10-17,11:23:40,12:52:22,NA,incomplete,false,true,NA,5,13,NA,black,n_s_039.jpg,NA,NA,pleasant,unpleasant,NA,NA,NA,NA,NA,right,1387.30000001192,true,NA,NA,NA,NA,NA
3GnOCmNx,3uy4pis8ruyxp7v852m6xfad2fzn1g,3fe7txl1lm0r49oqv0j3vcbf1k4q2w,3GnOCmNx,2020-0188,2021-10-17,11:23:40,12:52:22,NA,incomplete,false,true,NA,5,14,NA,black,m_s_013.jpg,NA,NA,unpleasant,pleasant,NA,NA,NA,NA,NA,right,1899,true,NA,NA,NA,NA,NA
3GnOCmNx,3uy4pis8ruyxp7v852m6xfad2fzn1g,3fe7txl1lm0r49oqv0j3vcbf1k4q2w,3GnOCmNx,2020-0188,2021-10-17,11:23:40,12:52:22,NA,incomplete,false,true,NA,5,15,NA,black,n_l_051.jpg,NA,NA,unpleasant,pleasant,NA,NA,NA,NA,NA,left,1199.39999999106,true,NA,NA,NA,NA,NA
3GnOCmNx,3uy4pis8ruyxp7v852m6xfad2fzn1g,3fe7txl1lm0r49oqv0j3vcbf1k4q2w,3GnOCmNx,2020-0188,2021-10-17,11:23:40,12:52:22,NA,incomplete,false,true,NA,5,16,NA,black,n_l_097.jpg,NA,NA,unpleasant,pleasant,NA,NA,NA,NA,NA,left,1667.90000000596,true,NA,NA,NA,NA,NA
3GnOCmNx,3uy4pis8ruyxp7v852m6xfad2fzn1g,3fe7txl1lm0r49oqv0j3vcbf1k4q2w,3GnOCmNx,2020-0188,2021-10-17,11:23:40,12:52:22,NA,incomplete,false,true,NA,5,17,NA,black,m_l_010.jpg,NA,NA,pleasant,unpleasant,NA,NA,NA,NA,NA,left,1579.09999999404,true,NA,NA,NA,NA,NA
3GnOCmNx,3uy4pis8ruyxp7v852m6xfad2fzn1g,3fe7txl1lm0r49oqv0j3vcbf1k4q2w,3GnOCmNx,2020-0188,2021-10-17,11:23:40,12:52:22,NA,incomplete,false,true,NA,5,18,NA,purple,m_l_104.jpg,NA,NA,unpleasant,pleasant,NA,NA,NA,NA,NA,left,1600.29999999702,true,NA,NA,NA,NA,NA
3GnOCmNx,3uy4pis8ruyxp7v852m6xfad2fzn1g,3fe7txl1lm0r49oqv0j3vcbf1k4q2w,3GnOCmNx,2020-0188,2021-10-17,11:23:40,12:52:22,NA,incomplete,false,true,NA,5,19,NA,purple,n_l_061.jpg,NA,NA,unpleasant,pleasant,NA,NA,NA,NA,NA,left,1762.59999999404,true,NA,NA,NA,NA,NA
3GnOCmNx,3uy4pis8ruyxp7v852m6xfad2fzn1g,3fe7txl1lm0r49oqv0j3vcbf1k4q2w,3GnOCmNx,2020-0188,2021-10-17,11:23:40,12:52:22,NA,incomplete,false,true,NA,5,20,NA,purple,m_l_059.jpg,NA,NA,unpleasant,pleasant,NA,NA,NA,NA,NA,right,1411,true,NA,NA,NA,NA,NA
3GnOCmNx,3uy4pis8ruyxp7v852m6xfad2fzn1g,3fe7txl1lm0r49oqv0j3vcbf1k4q2w,3GnOCmNx,2020-0188,2021-10-17,11:23:40,12:52:22,NA,incomplete,false,true,NA,5,21,NA,purple,n_s_031.jpg,NA,NA,pleasant,unpleasant,NA,NA,NA,NA,NA,right,1379,true,NA,NA,NA,NA,NA
3GnOCmNx,3uy4pis8ruyxp7v852m6xfad2fzn1g,3fe7txl1lm0r49oqv0j3vcbf1k4q2w,3GnOCmNx,2020-0188,2021-10-17,11:23:40,12:52:22,NA,incomplete,false,true,NA,5,22,NA,purple,n_s_024.jpg,NA,NA,pleasant,unpleasant,NA,NA,NA,NA,NA,right,1679.39999999106,true,NA,NA,NA,NA,NA
3GnOCmNx,3uy4pis8ruyxp7v852m6xfad2fzn1g,3fe7txl1lm0r49oqv0j3vcbf1k4q2w,3GnOCmNx,2020-0188,2021-10-17,11:23:40,12:52:22,NA,incomplete,false,true,NA,5,23,NA,purple,n_s_074.jpg,NA,NA,pleasant,unpleasant,NA,NA,NA,NA,NA,right,1357.89999999106,true,NA,NA,NA,NA,NA
3GnOCmNx,3uy4pis8ruyxp7v852m6xfad2fzn1g,3fe7txl1lm0r49oqv0j3vcbf1k4q2w,3GnOCmNx,2020-0188,2021-10-17,11:23:40,12:52:22,NA,incomplete,false,true,NA,5,24,NA,white,n_s_105.jpg,NA,NA,pleasant,unpleasant,NA,NA,NA,NA,NA,right,2241.10000000894,true,NA,NA,NA,NA,NA
3GnOCmNx,3uy4pis8ruyxp7v852m6xfad2fzn1g,3fe7txl1lm0r49oqv0j3vcbf1k4q2w,3GnOCmNx,2020-0188,2021-10-17,11:23:40,12:52:22,NA,incomplete,false,true,NA,5,25,NA,white,n_s_018.jpg,NA,NA,pleasant,unpleasant,NA,NA,NA,NA,NA,right,2018.5,true,NA,NA,NA,NA,NA
3GnOCmNx,3uy4pis8ruyxp7v852m6xfad2fzn1g,3fe7txl1lm0r49oqv0j3vcbf1k4q2w,3GnOCmNx,2020-0188,2021-10-17,11:23:40,12:52:22,NA,incomplete,false,true,NA,5,26,NA,white,n_s_050.jpg,NA,NA,pleasant,unpleasant,NA,NA,NA,NA,NA,left,1497.30000001192,true,NA,NA,NA,NA,NA
3GnOCmNx,3uy4pis8ruyxp7v852m6xfad2fzn1g,3fe7txl1lm0r49oqv0j3vcbf1k4q2w,3GnOCmNx,2020-0188,2021-10-17,11:23:40,12:52:22,NA,incomplete,false,true,NA,5,27,NA,white,m_s_072.jpg,NA,NA,pleasant,unpleasant,NA,NA,NA,NA,NA,right,1304.19999998808,true,NA,NA,NA,NA,NA
3GnOCmNx,3uy4pis8ruyxp7v852m6xfad2fzn1g,3fe7txl1lm0r49oqv0j3vcbf1k4q2w,3GnOCmNx,2020-0188,2021-10-17,11:23:40,12:52:22,NA,incomplete,false,true,NA,5,28,NA,white,m_l_089.jpg,NA,NA,unpleasant,pleasant,NA,NA,NA,NA,NA,right,1951.70000000298,true,NA,NA,NA,NA,NA
3GnOCmNx,3uy4pis8ruyxp7v852m6xfad2fzn1g,3fe7txl1lm0r49oqv0j3vcbf1k4q2w,3GnOCmNx,2020-0188,2021-10-17,11:23:40,12:52:22,NA,incomplete,false,true,NA,5,29,NA,white,m_l_034.jpg,NA,NA,pleasant,unpleasant,NA,NA,NA,NA,NA,left,1172,true,NA,NA,NA,NA,NA
3GnOCmNx,3uy4pis8ruyxp7v852m6xfad2fzn1g,3fe7txl1lm0r49oqv0j3vcbf1k4q2w,3GnOCmNx,2020-0188,2021-10-17,11:23:40,12:52:22,NA,incomplete,false,true,NA,5,30,NA,orange,m_l_008.jpg,NA,NA,pleasant,unpleasant,NA,NA,NA,NA,NA,left,1577.29999999702,true,NA,NA,NA,NA,NA
3GnOCmNx,3uy4pis8ruyxp7v852m6xfad2fzn1g,3fe7txl1lm0r49oqv0j3vcbf1k4q2w,3GnOCmNx,2020-0188,2021-10-17,11:23:40,12:52:22,NA,incomplete,false,true,NA,5,31,NA,orange,m_l_022.jpg,NA,NA,pleasant,unpleasant,NA,NA,NA,NA,NA,left,1495.90000000596,true,NA,NA,NA,NA,NA
3GnOCmNx,3uy4pis8ruyxp7v852m6xfad2fzn1g,3fe7txl1lm0r49oqv0j3vcbf1k4q2w,3GnOCmNx,2020-0188,2021-10-17,11:23:40,12:52:22,NA,incomplete,false,true,NA,5,32,NA,orange,n_l_066.jpg,NA,NA,unpleasant,pleasant,NA,NA,NA,NA,NA,left,1690,true,NA,NA,NA,NA,NA
3GnOCmNx,3uy4pis8ruyxp7v852m6xfad2fzn1g,3fe7txl1lm0r49oqv0j3vcbf1k4q2w,3GnOCmNx,2020-0188,2021-10-17,11:23:40,12:52:22,NA,incomplete,false,true,NA,5,33,NA,orange,n_s_088.jpg,NA,NA,unpleasant,pleasant,NA,NA,NA,NA,NA,right,1365.89999999106,true,NA,NA,NA,NA,NA
3GnOCmNx,3uy4pis8ruyxp7v852m6xfad2fzn1g,3fe7txl1lm0r49oqv0j3vcbf1k4q2w,3GnOCmNx,2020-0188,2021-10-17,11:23:40,12:52:22,NA,incomplete,false,true,NA,5,34,NA,orange,n_l_080.jpg,NA,NA,unpleasant,pleasant,NA,NA,NA,NA,NA,right,1224.5,true,NA,NA,NA,NA,NA
3GnOCmNx,3uy4pis8ruyxp7v852m6xfad2fzn1g,3fe7txl1lm0r49oqv0j3vcbf1k4q2w,3GnOCmNx,2020-0188,2021-10-17,11:23:40,12:52:22,NA,incomplete,false,true,NA,5,35,NA,orange,n_l_064.jpg,NA,NA,pleasant,unpleasant,NA,NA,NA,NA,NA,right,1255.59999999404,true,NA,NA,NA,NA,NA
3GnOCmNx,3uy4pis8ruyxp7v852m6xfad2fzn1g,3fe7txl1lm0r49oqv0j3vcbf1k4q2w,3GnOCmNx,2020-0188,2021-10-17,11:23:40,12:52:22,NA,incomplete,false,NA,true,5,0,NA,NA,NA,left,present,NA,NA,m_l_022.jpg,orange,n_l_064.jpg,orange,within,NA,NaN,NA,left,3836.5,1,0,1828.9000000059605
3GnOCmNx,3uy4pis8ruyxp7v852m6xfad2fzn1g,3fe7txl1lm0r49oqv0j3vcbf1k4q2w,3GnOCmNx,2020-0188,2021-10-17,11:23:40,12:52:22,NA,incomplete,false,NA,true,5,1,NA,NA,NA,right,present,NA,NA,m_l_082.jpg,yellow,m_s_108.jpg,yellow,within,NA,NaN,NA,right,3838.6000000089407,1,0,2453
3GnOCmNx,3uy4pis8ruyxp7v852m6xfad2fzn1g,3fe7txl1lm0r49oqv0j3vcbf1k4q2w,3GnOCmNx,2020-0188,2021-10-17,11:23:40,12:52:22,NA,incomplete,false,NA,true,5,2,NA,NA,NA,left,present,NA,NA,m_s_064.jpg,red,n_s_097.jpg,red,within,NA,NaN,NA,left,6328.899999991059,1,0,2526.6000000089407
3GnOCmNx,3uy4pis8ruyxp7v852m6xfad2fzn1g,3fe7txl1lm0r49oqv0j3vcbf1k4q2w,3GnOCmNx,2020-0188,2021-10-17,11:23:40,12:52:22,NA,incomplete,false,NA,true,5,3,NA,NA,NA,left,present,NA,NA,m_l_089.jpg,white,n_l_066.jpg,orange,between,NA,NaN,NA,left,5921.899999991059,1,1,3540.9000000059605
3GnOCmNx,3uy4pis8ruyxp7v852m6xfad2fzn1g,3fe7txl1lm0r49oqv0j3vcbf1k4q2w,3GnOCmNx,2020-0188,2021-10-17,11:23:40,12:52:22,NA,incomplete,false,NA,true,5,4,NA,NA,NA,left,present,NA,NA,m_s_105.jpg,yellow,m_s_034.jpg,red,between,NA,NaN,NA,left,3028.5,1,2,1910.7999999970198
3GnOCmNx,3uy4pis8ruyxp7v852m6xfad2fzn1g,3fe7txl1lm0r49oqv0j3vcbf1k4q2w,3GnOCmNx,2020-0188,2021-10-17,11:23:40,12:52:22,NA,incomplete,false,NA,true,5,5,NA,NA,NA,left,present,NA,NA,n_l_061.jpg,purple,n_s_074.jpg,purple,within,NA,NaN,NA,left,2866.800000011921,1,0,1500.4000000059605
3GnOCmNx,3uy4pis8ruyxp7v852m6xfad2fzn1g,3fe7txl1lm0r49oqv0j3vcbf1k4q2w,3GnOCmNx,2020-0188,2021-10-17,11:23:40,12:52:22,NA,incomplete,false,NA,true,5,6,NA,NA,NA,right,present,NA,NA,m_s_013.jpg,black,n_l_035.jpg,red,between,NA,NaN,NA,right,3845.6000000089407,1,1,2252.7000000029802
3GnOCmNx,3uy4pis8ruyxp7v852m6xfad2fzn1g,3fe7txl1lm0r49oqv0j3vcbf1k4q2w,3GnOCmNx,2020-0188,2021-10-17,11:23:40,12:52:22,NA,incomplete,false,NA,true,5,7,NA,NA,NA,right,present,NA,NA,m_l_059.jpg,purple,n_l_097.jpg,black,between,NA,NaN,NA,right,4103.899999991059,1,2,1369
3GnOCmNx,3uy4pis8ruyxp7v852m6xfad2fzn1g,3fe7txl1lm0r49oqv0j3vcbf1k4q2w,3GnOCmNx,2020-0188,2021-10-17,11:23:40,12:52:22,NA,incomplete,false,NA,true,5,8,NA,NA,NA,right,present,NA,NA,n_s_050.jpg,white,n_s_024.jpg,purple,between,NA,NaN,NA,right,4921.600000008941,1,1,1345.7000000029802
3GnOCmNx,3uy4pis8ruyxp7v852m6xfad2fzn1g,3fe7txl1lm0r49oqv0j3vcbf1k4q2w,3GnOCmNx,2020-0188,2021-10-17,11:23:40,12:52:22,NA,incomplete,false,NA,true,5,9,NA,NA,NA,right,present,NA,NA,m_l_010.jpg,black,n_s_039.jpg,black,within,NA,NaN,NA,left,2822.5999999940395,0,0,1802.5999999940395
3GnOCmNx,3uy4pis8ruyxp7v852m6xfad2fzn1g,3fe7txl1lm0r49oqv0j3vcbf1k4q2w,3GnOCmNx,2020-0188,2021-10-17,11:23:40,12:52:22,NA,incomplete,false,NA,true,5,10,NA,NA,NA,right,present,NA,NA,m_l_034.jpg,white,n_s_018.jpg,white,within,NA,NaN,NA,left,3092.800000011921,0,0,1301.4000000059605
3GnOCmNx,3uy4pis8ruyxp7v852m6xfad2fzn1g,3fe7txl1lm0r49oqv0j3vcbf1k4q2w,3GnOCmNx,2020-0188,2021-10-17,11:23:40,12:52:22,NA,incomplete,false,true,NA,6,0,NA,black,n_l_081.jpg,NA,NA,unpleasant,pleasant,NA,NA,NA,NA,NA,right,2229.29999999702,true,NA,NA,NA,NA,NA
3GnOCmNx,3uy4pis8ruyxp7v852m6xfad2fzn1g,3fe7txl1lm0r49oqv0j3vcbf1k4q2w,3GnOCmNx,2020-0188,2021-10-17,11:23:40,12:52:22,NA,incomplete,false,true,NA,6,1,NA,black,m_l_054.jpg,NA,NA,pleasant,unpleasant,NA,NA,NA,NA,NA,left,2823.20000000298,true,NA,NA,NA,NA,NA
3GnOCmNx,3uy4pis8ruyxp7v852m6xfad2fzn1g,3fe7txl1lm0r49oqv0j3vcbf1k4q2w,3GnOCmNx,2020-0188,2021-10-17,11:23:40,12:52:22,NA,incomplete,false,true,NA,6,2,NA,black,n_s_056.jpg,NA,NA,pleasant,unpleasant,NA,NA,NA,NA,NA,right,1984.09999999404,true,NA,NA,NA,NA,NA
3GnOCmNx,3uy4pis8ruyxp7v852m6xfad2fzn1g,3fe7txl1lm0r49oqv0j3vcbf1k4q2w,3GnOCmNx,2020-0188,2021-10-17,11:23:40,12:52:22,NA,incomplete,false,true,NA,6,3,NA,black,n_l_017.jpg,NA,NA,pleasant,unpleasant,NA,NA,NA,NA,NA,right,1631,true,NA,NA,NA,NA,NA
3GnOCmNx,3uy4pis8ruyxp7v852m6xfad2fzn1g,3fe7txl1lm0r49oqv0j3vcbf1k4q2w,3GnOCmNx,2020-0188,2021-10-17,11:23:40,12:52:22,NA,incomplete,false,true,NA,6,4,NA,black,n_l_009.jpg,NA,NA,unpleasant,pleasant,NA,NA,NA,NA,NA,right,1935.40000000596,true,NA,NA,NA,NA,NA
3GnOCmNx,3uy4pis8ruyxp7v852m6xfad2fzn1g,3fe7txl1lm0r49oqv0j3vcbf1k4q2w,3GnOCmNx,2020-0188,2021-10-17,11:23:40,12:52:22,NA,incomplete,false,true,NA,6,5,NA,black,n_l_089.jpg,NA,NA,pleasant,unpleasant,NA,NA,NA,NA,NA,right,1651.29999999702,true,NA,NA,NA,NA,NA
3GnOCmNx,3uy4pis8ruyxp7v852m6xfad2fzn1g,3fe7txl1lm0r49oqv0j3vcbf1k4q2w,3GnOCmNx,2020-0188,2021-10-17,11:23:40,12:52:22,NA,incomplete,false,true,NA,6,6,NA,purple,n_s_049.jpg,NA,NA,unpleasant,pleasant,NA,NA,NA,NA,NA,left,1432.19999998808,true,NA,NA,NA,NA,NA
3GnOCmNx,3uy4pis8ruyxp7v852m6xfad2fzn1g,3fe7txl1lm0r49oqv0j3vcbf1k4q2w,3GnOCmNx,2020-0188,2021-10-17,11:23:40,12:52:22,NA,incomplete,false,true,NA,6,7,NA,purple,m_l_063.jpg,NA,NA,unpleasant,pleasant,NA,NA,NA,NA,NA,right,1510.10000000894,true,NA,NA,NA,NA,NA
3GnOCmNx,3uy4pis8ruyxp7v852m6xfad2fzn1g,3fe7txl1lm0r49oqv0j3vcbf1k4q2w,3GnOCmNx,2020-0188,2021-10-17,11:23:40,12:52:22,NA,incomplete,false,true,NA,6,8,NA,purple,m_s_020.jpg,NA,NA,unpleasant,pleasant,NA,NA,NA,NA,NA,right,1230.80000001192,true,NA,NA,NA,NA,NA
3GnOCmNx,3uy4pis8ruyxp7v852m6xfad2fzn1g,3fe7txl1lm0r49oqv0j3vcbf1k4q2w,3GnOCmNx,2020-0188,2021-10-17,11:23:40,12:52:22,NA,incomplete,false,true,NA,6,9,NA,purple,n_s_080.jpg,NA,NA,unpleasant,pleasant,NA,NA,NA,NA,NA,left,1472.5,true,NA,NA,NA,NA,NA
3GnOCmNx,3uy4pis8ruyxp7v852m6xfad2fzn1g,3fe7txl1lm0r49oqv0j3vcbf1k4q2w,3GnOCmNx,2020-0188,2021-10-17,11:23:40,12:52:22,NA,incomplete,false,true,NA,6,10,NA,purple,m_s_028.jpg,NA,NA,unpleasant,pleasant,NA,NA,NA,NA,NA,right,1562,true,NA,NA,NA,NA,NA
3GnOCmNx,3uy4pis8ruyxp7v852m6xfad2fzn1g,3fe7txl1lm0r49oqv0j3vcbf1k4q2w,3GnOCmNx,2020-0188,2021-10-17,11:23:40,12:52:22,NA,incomplete,false,true,NA,6,11,NA,purple,n_s_060.jpg,NA,NA,pleasant,unpleasant,NA,NA,NA,NA,NA,right,1143.59999999404,true,NA,NA,NA,NA,NA
3GnOCmNx,3uy4pis8ruyxp7v852m6xfad2fzn1g,3fe7txl1lm0r49oqv0j3vcbf1k4q2w,3GnOCmNx,2020-0188,2021-10-17,11:23:40,12:52:22,NA,incomplete,false,true,NA,6,12,NA,blue,n_s_052.jpg,NA,NA,unpleasant,pleasant,NA,NA,NA,NA,NA,left,1283.79999999702,true,NA,NA,NA,NA,NA
3GnOCmNx,3uy4pis8ruyxp7v852m6xfad2fzn1g,3fe7txl1lm0r49oqv0j3vcbf1k4q2w,3GnOCmNx,2020-0188,2021-10-17,11:23:40,12:52:22,NA,incomplete,false,true,NA,6,13,NA,blue,m_s_012.jpg,NA,NA,pleasant,unpleasant,NA,NA,NA,NA,NA,left,1491.09999999404,true,NA,NA,NA,NA,NA
3GnOCmNx,3uy4pis8ruyxp7v852m6xfad2fzn1g,3fe7txl1lm0r49oqv0j3vcbf1k4q2w,3GnOCmNx,2020-0188,2021-10-17,11:23:40,12:52:22,NA,incomplete,false,true,NA,6,14,NA,blue,n_s_070.jpg,NA,NA,unpleasant,pleasant,NA,NA,NA,NA,NA,left,1626.09999999404,true,NA,NA,NA,NA,NA
3GnOCmNx,3uy4pis8ruyxp7v852m6xfad2fzn1g,3fe7txl1lm0r49oqv0j3vcbf1k4q2w,3GnOCmNx,2020-0188,2021-10-17,11:23:40,12:52:22,NA,incomplete,false,true,NA,6,15,NA,blue,m_l_049.jpg,NA,NA,unpleasant,pleasant,NA,NA,NA,NA,NA,right,1818.90000000596,true,NA,NA,NA,NA,NA
3GnOCmNx,3uy4pis8ruyxp7v852m6xfad2fzn1g,3fe7txl1lm0r49oqv0j3vcbf1k4q2w,3GnOCmNx,2020-0188,2021-10-17,11:23:40,12:52:22,NA,incomplete,false,true,NA,6,16,NA,blue,m_l_076.jpg,NA,NA,unpleasant,pleasant,NA,NA,NA,NA,NA,right,988,true,NA,NA,NA,NA,NA
3GnOCmNx,3uy4pis8ruyxp7v852m6xfad2fzn1g,3fe7txl1lm0r49oqv0j3vcbf1k4q2w,3GnOCmNx,2020-0188,2021-10-17,11:23:40,12:52:22,NA,incomplete,false,true,NA,6,17,NA,blue,m_s_074.jpg,NA,NA,unpleasant,pleasant,NA,NA,NA,NA,NA,left,1819.89999999106,true,NA,NA,NA,NA,NA
3GnOCmNx,3uy4pis8ruyxp7v852m6xfad2fzn1g,3fe7txl1lm0r49oqv0j3vcbf1k4q2w,3GnOCmNx,2020-0188,2021-10-17,11:23:40,12:52:22,NA,incomplete,false,true,NA,6,18,NA,white,n_s_005.jpg,NA,NA,pleasant,unpleasant,NA,NA,NA,NA,NA,left,1984.70000000298,true,NA,NA,NA,NA,NA
3GnOCmNx,3uy4pis8ruyxp7v852m6xfad2fzn1g,3fe7txl1lm0r49oqv0j3vcbf1k4q2w,3GnOCmNx,2020-0188,2021-10-17,11:23:40,12:52:22,NA,incomplete,false,true,NA,6,19,NA,white,m_l_113.jpg,NA,NA,unpleasant,pleasant,NA,NA,NA,NA,NA,right,1798.20000000298,true,NA,NA,NA,NA,NA
3GnOCmNx,3uy4pis8ruyxp7v852m6xfad2fzn1g,3fe7txl1lm0r49oqv0j3vcbf1k4q2w,3GnOCmNx,2020-0188,2021-10-17,11:23:40,12:52:22,NA,incomplete,false,true,NA,6,20,NA,white,n_l_052.jpg,NA,NA,unpleasant,pleasant,NA,NA,NA,NA,NA,left,1784.20000000298,true,NA,NA,NA,NA,NA
3GnOCmNx,3uy4pis8ruyxp7v852m6xfad2fzn1g,3fe7txl1lm0r49oqv0j3vcbf1k4q2w,3GnOCmNx,2020-0188,2021-10-17,11:23:40,12:52:22,NA,incomplete,false,true,NA,6,21,NA,white,m_s_060.jpg,NA,NA,unpleasant,pleasant,NA,NA,NA,NA,NA,right,1271,true,NA,NA,NA,NA,NA
3GnOCmNx,3uy4pis8ruyxp7v852m6xfad2fzn1g,3fe7txl1lm0r49oqv0j3vcbf1k4q2w,3GnOCmNx,2020-0188,2021-10-17,11:23:40,12:52:22,NA,incomplete,false,true,NA,6,22,NA,white,m_l_018.jpg,NA,NA,pleasant,unpleasant,NA,NA,NA,NA,NA,left,1715.30000001192,true,NA,NA,NA,NA,NA
3GnOCmNx,3uy4pis8ruyxp7v852m6xfad2fzn1g,3fe7txl1lm0r49oqv0j3vcbf1k4q2w,3GnOCmNx,2020-0188,2021-10-17,11:23:40,12:52:22,NA,incomplete,false,true,NA,6,23,NA,white,m_s_115.jpg,NA,NA,unpleasant,pleasant,NA,NA,NA,NA,NA,right,1437,true,NA,NA,NA,NA,NA
3GnOCmNx,3uy4pis8ruyxp7v852m6xfad2fzn1g,3fe7txl1lm0r49oqv0j3vcbf1k4q2w,3GnOCmNx,2020-0188,2021-10-17,11:23:40,12:52:22,NA,incomplete,false,true,NA,6,24,NA,orange,m_s_017.jpg,NA,NA,unpleasant,pleasant,NA,NA,NA,NA,NA,right,1998.40000000596,true,NA,NA,NA,NA,NA
3GnOCmNx,3uy4pis8ruyxp7v852m6xfad2fzn1g,3fe7txl1lm0r49oqv0j3vcbf1k4q2w,3GnOCmNx,2020-0188,2021-10-17,11:23:40,12:52:22,NA,incomplete,false,true,NA,6,25,NA,orange,n_l_078.jpg,NA,NA,unpleasant,pleasant,NA,NA,NA,NA,NA,left,1506.79999999702,true,NA,NA,NA,NA,NA
3GnOCmNx,3uy4pis8ruyxp7v852m6xfad2fzn1g,3fe7txl1lm0r49oqv0j3vcbf1k4q2w,3GnOCmNx,2020-0188,2021-10-17,11:23:40,12:52:22,NA,incomplete,false,true,NA,6,26,NA,orange,n_l_019.jpg,NA,NA,unpleasant,pleasant,NA,NA,NA,NA,NA,left,2012.90000000596,true,NA,NA,NA,NA,NA
3GnOCmNx,3uy4pis8ruyxp7v852m6xfad2fzn1g,3fe7txl1lm0r49oqv0j3vcbf1k4q2w,3GnOCmNx,2020-0188,2021-10-17,11:23:40,12:52:22,NA,incomplete,false,true,NA,6,27,NA,orange,n_s_102.jpg,NA,NA,pleasant,unpleasant,NA,NA,NA,NA,NA,left,1503.70000000298,true,NA,NA,NA,NA,NA
3GnOCmNx,3uy4pis8ruyxp7v852m6xfad2fzn1g,3fe7txl1lm0r49oqv0j3vcbf1k4q2w,3GnOCmNx,2020-0188,2021-10-17,11:23:40,12:52:22,NA,incomplete,false,true,NA,6,28,NA,orange,n_s_057.jpg,NA,NA,pleasant,unpleasant,NA,NA,NA,NA,NA,right,1116.59999999404,true,NA,NA,NA,NA,NA
3GnOCmNx,3uy4pis8ruyxp7v852m6xfad2fzn1g,3fe7txl1lm0r49oqv0j3vcbf1k4q2w,3GnOCmNx,2020-0188,2021-10-17,11:23:40,12:52:22,NA,incomplete,false,true,NA,6,29,NA,orange,m_l_112.jpg,NA,NA,pleasant,unpleasant,NA,NA,NA,NA,NA,right,1842.70000000298,true,NA,NA,NA,NA,NA
3GnOCmNx,3uy4pis8ruyxp7v852m6xfad2fzn1g,3fe7txl1lm0r49oqv0j3vcbf1k4q2w,3GnOCmNx,2020-0188,2021-10-17,11:23:40,12:52:22,NA,incomplete,false,true,NA,6,30,NA,yellow,n_l_071.jpg,NA,NA,unpleasant,pleasant,NA,NA,NA,NA,NA,left,2230,true,NA,NA,NA,NA,NA
3GnOCmNx,3uy4pis8ruyxp7v852m6xfad2fzn1g,3fe7txl1lm0r49oqv0j3vcbf1k4q2w,3GnOCmNx,2020-0188,2021-10-17,11:23:40,12:52:22,NA,incomplete,false,true,NA,6,31,NA,yellow,m_s_111.jpg,NA,NA,pleasant,unpleasant,NA,NA,NA,NA,NA,right,2343.29999999702,true,NA,NA,NA,NA,NA
3GnOCmNx,3uy4pis8ruyxp7v852m6xfad2fzn1g,3fe7txl1lm0r49oqv0j3vcbf1k4q2w,3GnOCmNx,2020-0188,2021-10-17,11:23:40,12:52:22,NA,incomplete,false,true,NA,6,32,NA,yellow,n_s_012.jpg,NA,NA,pleasant,unpleasant,NA,NA,NA,NA,NA,left,1269.5,true,NA,NA,NA,NA,NA
3GnOCmNx,3uy4pis8ruyxp7v852m6xfad2fzn1g,3fe7txl1lm0r49oqv0j3vcbf1k4q2w,3GnOCmNx,2020-0188,2021-10-17,11:23:40,12:52:22,NA,incomplete,false,true,NA,6,33,NA,yellow,m_l_052.jpg,NA,NA,pleasant,unpleasant,NA,NA,NA,NA,NA,left,1536.39999999106,true,NA,NA,NA,NA,NA
3GnOCmNx,3uy4pis8ruyxp7v852m6xfad2fzn1g,3fe7txl1lm0r49oqv0j3vcbf1k4q2w,3GnOCmNx,2020-0188,2021-10-17,11:23:40,12:52:22,NA,incomplete,false,true,NA,6,34,NA,yellow,n_s_082.jpg,NA,NA,unpleasant,pleasant,NA,NA,NA,NA,NA,left,1494.29999999702,true,NA,NA,NA,NA,NA
3GnOCmNx,3uy4pis8ruyxp7v852m6xfad2fzn1g,3fe7txl1lm0r49oqv0j3vcbf1k4q2w,3GnOCmNx,2020-0188,2021-10-17,11:23:40,12:52:22,NA,incomplete,false,true,NA,6,35,NA,yellow,n_s_108.jpg,NA,NA,pleasant,unpleasant,NA,NA,NA,NA,NA,right,1453.79999999702,true,NA,NA,NA,NA,NA
3GnOCmNx,3uy4pis8ruyxp7v852m6xfad2fzn1g,3fe7txl1lm0r49oqv0j3vcbf1k4q2w,3GnOCmNx,2020-0188,2021-10-17,11:23:40,12:52:22,NA,incomplete,false,NA,true,6,0,NA,NA,NA,left,absent,NA,NA,n_l_078.jpg,orange,m_l_112.jpg,orange,within,NA,NaN,NA,right,13769.59999999404,0,1,2543.2000000029802
3GnOCmNx,3uy4pis8ruyxp7v852m6xfad2fzn1g,3fe7txl1lm0r49oqv0j3vcbf1k4q2w,3GnOCmNx,2020-0188,2021-10-17,11:23:40,12:52:22,NA,incomplete,false,NA,true,6,1,NA,NA,NA,left,absent,NA,NA,n_l_009.jpg,black,m_s_020.jpg,purple,between,NA,NaN,NA,right,3633.7000000029802,0,1,1490.5
3GnOCmNx,3uy4pis8ruyxp7v852m6xfad2fzn1g,3fe7txl1lm0r49oqv0j3vcbf1k4q2w,3GnOCmNx,2020-0188,2021-10-17,11:23:40,12:52:22,NA,incomplete,false,NA,true,6,2,NA,NA,NA,right,absent,NA,NA,m_s_074.jpg,blue,m_s_012.jpg,blue,within,NA,NaN,NA,right,4585.20000000298,1,2,1789.7000000029802
3GnOCmNx,3uy4pis8ruyxp7v852m6xfad2fzn1g,3fe7txl1lm0r49oqv0j3vcbf1k4q2w,3GnOCmNx,2020-0188,2021-10-17,11:23:40,12:52:22,NA,incomplete,false,NA,true,6,3,NA,NA,NA,left,absent,NA,NA,m_l_113.jpg,white,m_s_115.jpg,white,within,NA,NaN,NA,left,5994.100000008941,1,0,1570.7000000029802
3GnOCmNx,3uy4pis8ruyxp7v852m6xfad2fzn1g,3fe7txl1lm0r49oqv0j3vcbf1k4q2w,3GnOCmNx,2020-0188,2021-10-17,11:23:40,12:52:22,NA,incomplete,false,NA,true,6,4,NA,NA,NA,right,absent,NA,NA,n_s_070.jpg,blue,m_s_028.jpg,purple,between,NA,NaN,NA,right,8693.09999999404,1,0,939.0999999940395
3GnOCmNx,3uy4pis8ruyxp7v852m6xfad2fzn1g,3fe7txl1lm0r49oqv0j3vcbf1k4q2w,3GnOCmNx,2020-0188,2021-10-17,11:23:40,12:52:22,NA,incomplete,false,NA,true,6,5,NA,NA,NA,right,absent,NA,NA,n_s_108.jpg,yellow,m_s_111.jpg,yellow,within,NA,NaN,NA,left,2918.5,0,2,1646.7999999970198
3GnOCmNx,3uy4pis8ruyxp7v852m6xfad2fzn1g,3fe7txl1lm0r49oqv0j3vcbf1k4q2w,3GnOCmNx,2020-0188,2021-10-17,11:23:40,12:52:22,NA,incomplete,false,NA,true,6,6,NA,NA,NA,left,absent,NA,NA,m_l_063.jpg,purple,n_s_060.jpg,purple,within,NA,NaN,NA,left,2913.2999999970198,1,0,1903.4000000059605
3GnOCmNx,3uy4pis8ruyxp7v852m6xfad2fzn1g,3fe7txl1lm0r49oqv0j3vcbf1k4q2w,3GnOCmNx,2020-0188,2021-10-17,11:23:40,12:52:22,NA,incomplete,false,NA,true,6,7,NA,NA,NA,right,absent,NA,NA,n_s_012.jpg,yellow,n_s_057.jpg,orange,between,NA,NaN,NA,right,6353.600000008941,1,2,1789.5
3GnOCmNx,3uy4pis8ruyxp7v852m6xfad2fzn1g,3fe7txl1lm0r49oqv0j3vcbf1k4q2w,3GnOCmNx,2020-0188,2021-10-17,11:23:40,12:52:22,NA,incomplete,false,NA,true,6,8,NA,NA,NA,right,absent,NA,NA,n_l_052.jpg,white,m_l_076.jpg,blue,between,NA,NaN,NA,right,1980.4000000059605,1,1,1253.6000000089407
3GnOCmNx,3uy4pis8ruyxp7v852m6xfad2fzn1g,3fe7txl1lm0r49oqv0j3vcbf1k4q2w,3GnOCmNx,2020-0188,2021-10-17,11:23:40,12:52:22,NA,incomplete,false,NA,true,6,9,NA,NA,NA,right,absent,NA,NA,n_l_089.jpg,black,m_l_054.jpg,black,within,NA,NaN,NA,right,3092.2000000029802,1,1,2847.6000000089407
3GnOCmNx,3uy4pis8ruyxp7v852m6xfad2fzn1g,3fe7txl1lm0r49oqv0j3vcbf1k4q2w,3GnOCmNx,2020-0188,2021-10-17,11:23:40,12:52:22,NA,incomplete,false,NA,true,6,10,NA,NA,NA,left,absent,NA,NA,m_l_018.jpg,white,n_l_019.jpg,orange,between,NA,NaN,NA,left,5394.0999999940395,1,2,1468.7999999970198
3GnOCmNx,3uy4pis8ruyxp7v852m6xfad2fzn1g,3fe7txl1lm0r49oqv0j3vcbf1k4q2w,3GnOCmNx,2020-0188,2021-10-17,11:23:40,12:52:22,NA,incomplete,false,true,NA,7,0,NA,yellow,m_s_083.jpg,NA,NA,pleasant,unpleasant,NA,NA,NA,NA,NA,left,1886.79999999702,true,NA,NA,NA,NA,NA
3GnOCmNx,3uy4pis8ruyxp7v852m6xfad2fzn1g,3fe7txl1lm0r49oqv0j3vcbf1k4q2w,3GnOCmNx,2020-0188,2021-10-17,11:23:40,12:52:22,NA,incomplete,false,true,NA,7,1,NA,yellow,n_l_042.jpg,NA,NA,unpleasant,pleasant,NA,NA,NA,NA,NA,left,2272.60000000894,true,NA,NA,NA,NA,NA
3GnOCmNx,3uy4pis8ruyxp7v852m6xfad2fzn1g,3fe7txl1lm0r49oqv0j3vcbf1k4q2w,3GnOCmNx,2020-0188,2021-10-17,11:23:40,12:52:22,NA,incomplete,false,true,NA,7,2,NA,yellow,n_l_049.jpg,NA,NA,pleasant,unpleasant,NA,NA,NA,NA,NA,right,2255.09999999404,true,NA,NA,NA,NA,NA
3GnOCmNx,3uy4pis8ruyxp7v852m6xfad2fzn1g,3fe7txl1lm0r49oqv0j3vcbf1k4q2w,3GnOCmNx,2020-0188,2021-10-17,11:23:40,12:52:22,NA,incomplete,false,true,NA,7,3,NA,yellow,n_l_063.jpg,NA,NA,pleasant,unpleasant,NA,NA,NA,NA,NA,right,1596.39999999106,true,NA,NA,NA,NA,NA
3GnOCmNx,3uy4pis8ruyxp7v852m6xfad2fzn1g,3fe7txl1lm0r49oqv0j3vcbf1k4q2w,3GnOCmNx,2020-0188,2021-10-17,11:23:40,12:52:22,NA,incomplete,false,true,NA,7,4,NA,yellow,n_l_070.jpg,NA,NA,pleasant,unpleasant,NA,NA,NA,NA,NA,left,2053.09999999404,true,NA,NA,NA,NA,NA
3GnOCmNx,3uy4pis8ruyxp7v852m6xfad2fzn1g,3fe7txl1lm0r49oqv0j3vcbf1k4q2w,3GnOCmNx,2020-0188,2021-10-17,11:23:40,12:52:22,NA,incomplete,false,true,NA,7,5,NA,yellow,n_l_112.jpg,NA,NA,unpleasant,pleasant,NA,NA,NA,NA,NA,left,1428.29999999702,true,NA,NA,NA,NA,NA
3GnOCmNx,3uy4pis8ruyxp7v852m6xfad2fzn1g,3fe7txl1lm0r49oqv0j3vcbf1k4q2w,3GnOCmNx,2020-0188,2021-10-17,11:23:40,12:52:22,NA,incomplete,false,true,NA,7,6,NA,gray,m_s_049.jpg,NA,NA,pleasant,unpleasant,NA,NA,NA,NA,NA,left,1499.89999999106,true,NA,NA,NA,NA,NA
3GnOCmNx,3uy4pis8ruyxp7v852m6xfad2fzn1g,3fe7txl1lm0r49oqv0j3vcbf1k4q2w,3GnOCmNx,2020-0188,2021-10-17,11:23:40,12:52:22,NA,incomplete,false,true,NA,7,7,NA,gray,n_s_067.jpg,NA,NA,unpleasant,pleasant,NA,NA,NA,NA,NA,left,1329.70000000298,true,NA,NA,NA,NA,NA
3GnOCmNx,3uy4pis8ruyxp7v852m6xfad2fzn1g,3fe7txl1lm0r49oqv0j3vcbf1k4q2w,3GnOCmNx,2020-0188,2021-10-17,11:23:40,12:52:22,NA,incomplete,false,true,NA,7,8,NA,gray,n_l_048.jpg,NA,NA,unpleasant,pleasant,NA,NA,NA,NA,NA,right,1602,true,NA,NA,NA,NA,NA
3GnOCmNx,3uy4pis8ruyxp7v852m6xfad2fzn1g,3fe7txl1lm0r49oqv0j3vcbf1k4q2w,3GnOCmNx,2020-0188,2021-10-17,11:23:40,12:52:22,NA,incomplete,false,true,NA,7,9,NA,gray,n_l_085.jpg,NA,NA,unpleasant,pleasant,NA,NA,NA,NA,NA,right,2239.70000000298,true,NA,NA,NA,NA,NA
3GnOCmNx,3uy4pis8ruyxp7v852m6xfad2fzn1g,3fe7txl1lm0r49oqv0j3vcbf1k4q2w,3GnOCmNx,2020-0188,2021-10-17,11:23:40,12:52:22,NA,incomplete,false,true,NA,7,10,NA,gray,n_l_033.jpg,NA,NA,unpleasant,pleasant,NA,NA,NA,NA,NA,right,1465.5,true,NA,NA,NA,NA,NA
3GnOCmNx,3uy4pis8ruyxp7v852m6xfad2fzn1g,3fe7txl1lm0r49oqv0j3vcbf1k4q2w,3GnOCmNx,2020-0188,2021-10-17,11:23:40,12:52:22,NA,incomplete,false,true,NA,7,11,NA,gray,m_s_091.jpg,NA,NA,unpleasant,pleasant,NA,NA,NA,NA,NA,right,1190,true,NA,NA,NA,NA,NA
3GnOCmNx,3uy4pis8ruyxp7v852m6xfad2fzn1g,3fe7txl1lm0r49oqv0j3vcbf1k4q2w,3GnOCmNx,2020-0188,2021-10-17,11:23:40,12:52:22,NA,incomplete,false,true,NA,7,12,NA,white,m_l_117.jpg,NA,NA,pleasant,unpleasant,NA,NA,NA,NA,NA,left,1924.29999999702,true,NA,NA,NA,NA,NA
3GnOCmNx,3uy4pis8ruyxp7v852m6xfad2fzn1g,3fe7txl1lm0r49oqv0j3vcbf1k4q2w,3GnOCmNx,2020-0188,2021-10-17,11:23:40,12:52:22,NA,incomplete,false,true,NA,7,13,NA,white,n_l_076.jpg,NA,NA,unpleasant,pleasant,NA,NA,NA,NA,NA,left,2332.5,true,NA,NA,NA,NA,NA
3GnOCmNx,3uy4pis8ruyxp7v852m6xfad2fzn1g,3fe7txl1lm0r49oqv0j3vcbf1k4q2w,3GnOCmNx,2020-0188,2021-10-17,11:23:40,12:52:22,NA,incomplete,false,true,NA,7,14,NA,white,m_l_094.jpg,NA,NA,pleasant,unpleasant,NA,NA,NA,NA,NA,right,1667.09999999404,true,NA,NA,NA,NA,NA
3GnOCmNx,3uy4pis8ruyxp7v852m6xfad2fzn1g,3fe7txl1lm0r49oqv0j3vcbf1k4q2w,3GnOCmNx,2020-0188,2021-10-17,11:23:40,12:52:22,NA,incomplete,false,true,NA,7,15,NA,white,n_s_065.jpg,NA,NA,pleasant,unpleasant,NA,NA,NA,NA,NA,right,1301.89999999106,true,NA,NA,NA,NA,NA
3GnOCmNx,3uy4pis8ruyxp7v852m6xfad2fzn1g,3fe7txl1lm0r49oqv0j3vcbf1k4q2w,3GnOCmNx,2020-0188,2021-10-17,11:23:40,12:52:22,NA,incomplete,false,true,NA,7,16,NA,white,m_l_011.jpg,NA,NA,pleasant,unpleasant,NA,NA,NA,NA,NA,right,2426.40000000596,true,NA,NA,NA,NA,NA
3GnOCmNx,3uy4pis8ruyxp7v852m6xfad2fzn1g,3fe7txl1lm0r49oqv0j3vcbf1k4q2w,3GnOCmNx,2020-0188,2021-10-17,11:23:40,12:52:22,NA,incomplete,false,true,NA,7,17,NA,white,m_s_026.jpg,NA,NA,unpleasant,pleasant,NA,NA,NA,NA,NA,right,2258.5,true,NA,NA,NA,NA,NA
3GnOCmNx,3uy4pis8ruyxp7v852m6xfad2fzn1g,3fe7txl1lm0r49oqv0j3vcbf1k4q2w,3GnOCmNx,2020-0188,2021-10-17,11:23:40,12:52:22,NA,incomplete,false,true,NA,7,18,NA,green,m_s_030.jpg,NA,NA,unpleasant,pleasant,NA,NA,NA,NA,NA,left,2356.20000000298,true,NA,NA,NA,NA,NA
3GnOCmNx,3uy4pis8ruyxp7v852m6xfad2fzn1g,3fe7txl1lm0r49oqv0j3vcbf1k4q2w,3GnOCmNx,2020-0188,2021-10-17,11:23:40,12:52:22,NA,incomplete,false,true,NA,7,19,NA,green,n_l_106.jpg,NA,NA,unpleasant,pleasant,NA,NA,NA,NA,NA,left,1814.09999999404,true,NA,NA,NA,NA,NA
3GnOCmNx,3uy4pis8ruyxp7v852m6xfad2fzn1g,3fe7txl1lm0r49oqv0j3vcbf1k4q2w,3GnOCmNx,2020-0188,2021-10-17,11:23:40,12:52:22,NA,incomplete,false,true,NA,7,20,NA,green,n_s_038.jpg,NA,NA,pleasant,unpleasant,NA,NA,NA,NA,NA,right,1910.70000000298,true,NA,NA,NA,NA,NA
3GnOCmNx,3uy4pis8ruyxp7v852m6xfad2fzn1g,3fe7txl1lm0r49oqv0j3vcbf1k4q2w,3GnOCmNx,2020-0188,2021-10-17,11:23:40,12:52:22,NA,incomplete,false,true,NA,7,21,NA,green,m_s_090.jpg,NA,NA,unpleasant,pleasant,NA,NA,NA,NA,NA,left,1662.79999999702,true,NA,NA,NA,NA,NA
3GnOCmNx,3uy4pis8ruyxp7v852m6xfad2fzn1g,3fe7txl1lm0r49oqv0j3vcbf1k4q2w,3GnOCmNx,2020-0188,2021-10-17,11:23:40,12:52:22,NA,incomplete,false,true,NA,7,22,NA,green,n_s_062.jpg,NA,NA,unpleasant,pleasant,NA,NA,NA,NA,NA,right,1513.70000000298,true,NA,NA,NA,NA,NA
3GnOCmNx,3uy4pis8ruyxp7v852m6xfad2fzn1g,3fe7txl1lm0r49oqv0j3vcbf1k4q2w,3GnOCmNx,2020-0188,2021-10-17,11:23:40,12:52:22,NA,incomplete,false,true,NA,7,23,NA,green,m_s_055.jpg,NA,NA,pleasant,unpleasant,NA,NA,NA,NA,NA,right,1723.5,true,NA,NA,NA,NA,NA
3GnOCmNx,3uy4pis8ruyxp7v852m6xfad2fzn1g,3fe7txl1lm0r49oqv0j3vcbf1k4q2w,3GnOCmNx,2020-0188,2021-10-17,11:23:40,12:52:22,NA,incomplete,false,true,NA,7,24,NA,red,m_l_042.jpg,NA,NA,pleasant,unpleasant,NA,NA,NA,NA,NA,left,1756,true,NA,NA,NA,NA,NA
3GnOCmNx,3uy4pis8ruyxp7v852m6xfad2fzn1g,3fe7txl1lm0r49oqv0j3vcbf1k4q2w,3GnOCmNx,2020-0188,2021-10-17,11:23:40,12:52:22,NA,incomplete,false,true,NA,7,25,NA,red,m_l_111.jpg,NA,NA,pleasant,unpleasant,NA,NA,NA,NA,NA,left,2224.70000000298,true,NA,NA,NA,NA,NA
3GnOCmNx,3uy4pis8ruyxp7v852m6xfad2fzn1g,3fe7txl1lm0r49oqv0j3vcbf1k4q2w,3GnOCmNx,2020-0188,2021-10-17,11:23:40,12:52:22,NA,incomplete,false,true,NA,7,26,NA,red,m_s_101.jpg,NA,NA,pleasant,unpleasant,NA,NA,NA,NA,NA,right,1986.40000000596,true,NA,NA,NA,NA,NA
3GnOCmNx,3uy4pis8ruyxp7v852m6xfad2fzn1g,3fe7txl1lm0r49oqv0j3vcbf1k4q2w,3GnOCmNx,2020-0188,2021-10-17,11:23:40,12:52:22,NA,incomplete,false,true,NA,7,27,NA,red,m_s_042.jpg,NA,NA,unpleasant,pleasant,NA,NA,NA,NA,NA,right,1603.69999998808,true,NA,NA,NA,NA,NA
3GnOCmNx,3uy4pis8ruyxp7v852m6xfad2fzn1g,3fe7txl1lm0r49oqv0j3vcbf1k4q2w,3GnOCmNx,2020-0188,2021-10-17,11:23:40,12:52:22,NA,incomplete,false,true,NA,7,28,NA,red,m_l_029.jpg,NA,NA,unpleasant,pleasant,NA,NA,NA,NA,NA,right,1193.90000000596,true,NA,NA,NA,NA,NA
3GnOCmNx,3uy4pis8ruyxp7v852m6xfad2fzn1g,3fe7txl1lm0r49oqv0j3vcbf1k4q2w,3GnOCmNx,2020-0188,2021-10-17,11:23:40,12:52:22,NA,incomplete,false,true,NA,7,29,NA,red,m_s_045.jpg,NA,NA,pleasant,unpleasant,NA,NA,NA,NA,NA,left,1739.5,true,NA,NA,NA,NA,NA
3GnOCmNx,3uy4pis8ruyxp7v852m6xfad2fzn1g,3fe7txl1lm0r49oqv0j3vcbf1k4q2w,3GnOCmNx,2020-0188,2021-10-17,11:23:40,12:52:22,NA,incomplete,false,true,NA,7,30,NA,orange,m_l_038.jpg,NA,NA,unpleasant,pleasant,NA,NA,NA,NA,NA,left,2085.69999998808,true,NA,NA,NA,NA,NA
3GnOCmNx,3uy4pis8ruyxp7v852m6xfad2fzn1g,3fe7txl1lm0r49oqv0j3vcbf1k4q2w,3GnOCmNx,2020-0188,2021-10-17,11:23:40,12:52:22,NA,incomplete,false,true,NA,7,31,NA,orange,n_s_104.jpg,NA,NA,pleasant,unpleasant,NA,NA,NA,NA,NA,right,1915.59999999404,true,NA,NA,NA,NA,NA
3GnOCmNx,3uy4pis8ruyxp7v852m6xfad2fzn1g,3fe7txl1lm0r49oqv0j3vcbf1k4q2w,3GnOCmNx,2020-0188,2021-10-17,11:23:40,12:52:22,NA,incomplete,false,true,NA,7,32,NA,orange,n_l_036.jpg,NA,NA,pleasant,unpleasant,NA,NA,NA,NA,NA,right,1612,true,NA,NA,NA,NA,NA
3GnOCmNx,3uy4pis8ruyxp7v852m6xfad2fzn1g,3fe7txl1lm0r49oqv0j3vcbf1k4q2w,3GnOCmNx,2020-0188,2021-10-17,11:23:40,12:52:22,NA,incomplete,false,true,NA,7,33,NA,orange,n_l_022.jpg,NA,NA,pleasant,unpleasant,NA,NA,NA,NA,NA,right,1618.29999999702,true,NA,NA,NA,NA,NA
3GnOCmNx,3uy4pis8ruyxp7v852m6xfad2fzn1g,3fe7txl1lm0r49oqv0j3vcbf1k4q2w,3GnOCmNx,2020-0188,2021-10-17,11:23:40,12:52:22,NA,incomplete,false,true,NA,7,34,NA,orange,n_s_045.jpg,NA,NA,unpleasant,pleasant,NA,NA,NA,NA,NA,right,1299.80000001192,true,NA,NA,NA,NA,NA
3GnOCmNx,3uy4pis8ruyxp7v852m6xfad2fzn1g,3fe7txl1lm0r49oqv0j3vcbf1k4q2w,3GnOCmNx,2020-0188,2021-10-17,11:23:40,12:52:22,NA,incomplete,false,true,NA,7,35,NA,orange,m_l_095.jpg,NA,NA,pleasant,unpleasant,NA,NA,NA,NA,NA,left,1990.40000000596,true,NA,NA,NA,NA,NA
3GnOCmNx,3uy4pis8ruyxp7v852m6xfad2fzn1g,3fe7txl1lm0r49oqv0j3vcbf1k4q2w,3GnOCmNx,2020-0188,2021-10-17,11:23:40,12:52:22,NA,incomplete,false,NA,true,7,0,NA,NA,NA,right,absent,NA,NA,n_l_112.jpg,yellow,n_l_042.jpg,yellow,within,NA,NaN,NA,right,2904.8999999910593,1,3,1586.2999999970198
3GnOCmNx,3uy4pis8ruyxp7v852m6xfad2fzn1g,3fe7txl1lm0r49oqv0j3vcbf1k4q2w,3GnOCmNx,2020-0188,2021-10-17,11:23:40,12:52:22,NA,incomplete,false,NA,true,7,1,NA,NA,NA,left,absent,NA,NA,n_s_067.jpg,gray,m_s_091.jpg,gray,within,NA,NaN,NA,right,2798.7000000029802,0,1,1590.2999999970198
3GnOCmNx,3uy4pis8ruyxp7v852m6xfad2fzn1g,3fe7txl1lm0r49oqv0j3vcbf1k4q2w,3GnOCmNx,2020-0188,2021-10-17,11:23:40,12:52:22,NA,incomplete,false,NA,true,7,2,NA,NA,NA,left,absent,NA,NA,m_l_111.jpg,red,m_s_045.jpg,red,within,NA,NaN,NA,left,3310,1,1,1786.4000000059605
3GnOCmNx,3uy4pis8ruyxp7v852m6xfad2fzn1g,3fe7txl1lm0r49oqv0j3vcbf1k4q2w,3GnOCmNx,2020-0188,2021-10-17,11:23:40,12:52:22,NA,incomplete,false,NA,true,7,3,NA,NA,NA,right,absent,NA,NA,n_l_036.jpg,orange,m_l_029.jpg,red,between,NA,NaN,NA,right,3857.2000000029802,1,1,2010.0999999940395
3GnOCmNx,3uy4pis8ruyxp7v852m6xfad2fzn1g,3fe7txl1lm0r49oqv0j3vcbf1k4q2w,3GnOCmNx,2020-0188,2021-10-17,11:23:40,12:52:22,NA,incomplete,false,NA,true,7,4,NA,NA,NA,left,absent,NA,NA,m_l_011.jpg,white,n_s_038.jpg,green,between,NA,NaN,NA,left,2603.1000000089407,1,2,1465.6000000089407
3GnOCmNx,3uy4pis8ruyxp7v852m6xfad2fzn1g,3fe7txl1lm0r49oqv0j3vcbf1k4q2w,3GnOCmNx,2020-0188,2021-10-17,11:23:40,12:52:22,NA,incomplete,false,NA,true,7,5,NA,NA,NA,right,absent,NA,NA,n_l_048.jpg,gray,n_l_070.jpg,yellow,between,NA,NaN,NA,right,2113.5,1,3,2356.5
3GnOCmNx,3uy4pis8ruyxp7v852m6xfad2fzn1g,3fe7txl1lm0r49oqv0j3vcbf1k4q2w,3GnOCmNx,2020-0188,2021-10-17,11:23:40,12:52:22,NA,incomplete,false,NA,true,7,6,NA,NA,NA,left,absent,NA,NA,n_l_076.jpg,white,m_s_026.jpg,white,within,NA,NaN,NA,left,3327.0999999940395,1,0,1537.4000000059605
3GnOCmNx,3uy4pis8ruyxp7v852m6xfad2fzn1g,3fe7txl1lm0r49oqv0j3vcbf1k4q2w,3GnOCmNx,2020-0188,2021-10-17,11:23:40,12:52:22,NA,incomplete,false,NA,true,7,7,NA,NA,NA,left,absent,NA,NA,n_s_062.jpg,green,m_s_101.jpg,red,between,NA,NaN,NA,left,7140.29999999702,1,1,1947.1000000089407
3GnOCmNx,3uy4pis8ruyxp7v852m6xfad2fzn1g,3fe7txl1lm0r49oqv0j3vcbf1k4q2w,3GnOCmNx,2020-0188,2021-10-17,11:23:40,12:52:22,NA,incomplete,false,NA,true,7,8,NA,NA,NA,right,absent,NA,NA,m_l_095.jpg,orange,n_s_104.jpg,orange,within,NA,NaN,NA,right,6062.5999999940395,1,0,2033.8999999910593
3GnOCmNx,3uy4pis8ruyxp7v852m6xfad2fzn1g,3fe7txl1lm0r49oqv0j3vcbf1k4q2w,3GnOCmNx,2020-0188,2021-10-17,11:23:40,12:52:22,NA,incomplete,false,NA,true,7,9,NA,NA,NA,left,absent,NA,NA,n_l_106.jpg,green,m_s_055.jpg,green,within,NA,NaN,NA,left,3497.2999999970198,1,1,2107
3GnOCmNx,3uy4pis8ruyxp7v852m6xfad2fzn1g,3fe7txl1lm0r49oqv0j3vcbf1k4q2w,3GnOCmNx,2020-0188,2021-10-17,11:23:40,12:52:22,NA,incomplete,false,NA,true,7,10,NA,NA,NA,left,absent,NA,NA,n_l_033.jpg,gray,m_l_094.jpg,white,between,NA,NaN,NA,left,5680.9000000059605,1,1,1879.2000000029802
3GnOCmNx,3uy4pis8ruyxp7v852m6xfad2fzn1g,3fe7txl1lm0r49oqv0j3vcbf1k4q2w,3GnOCmNx,2020-0188,2021-10-17,11:23:40,12:52:22,NA,incomplete,false,true,NA,8,0,NA,green,n_s_079.jpg,NA,NA,pleasant,unpleasant,NA,NA,NA,NA,NA,right,2320.5,true,NA,NA,NA,NA,NA
3GnOCmNx,3uy4pis8ruyxp7v852m6xfad2fzn1g,3fe7txl1lm0r49oqv0j3vcbf1k4q2w,3GnOCmNx,2020-0188,2021-10-17,11:23:40,12:52:22,NA,incomplete,false,true,NA,8,1,NA,green,n_s_111.jpg,NA,NA,unpleasant,pleasant,NA,NA,NA,NA,NA,left,2532.70000000298,true,NA,NA,NA,NA,NA
3GnOCmNx,3uy4pis8ruyxp7v852m6xfad2fzn1g,3fe7txl1lm0r49oqv0j3vcbf1k4q2w,3GnOCmNx,2020-0188,2021-10-17,11:23:40,12:52:22,NA,incomplete,false,true,NA,8,2,NA,green,n_l_068.jpg,NA,NA,pleasant,unpleasant,NA,NA,NA,NA,NA,left,2013.89999999106,true,NA,NA,NA,NA,NA
3GnOCmNx,3uy4pis8ruyxp7v852m6xfad2fzn1g,3fe7txl1lm0r49oqv0j3vcbf1k4q2w,3GnOCmNx,2020-0188,2021-10-17,11:23:40,12:52:22,NA,incomplete,false,true,NA,8,3,NA,green,m_s_005.jpg,NA,NA,unpleasant,pleasant,NA,NA,NA,NA,NA,right,2325.40000000596,true,NA,NA,NA,NA,NA
3GnOCmNx,3uy4pis8ruyxp7v852m6xfad2fzn1g,3fe7txl1lm0r49oqv0j3vcbf1k4q2w,3GnOCmNx,2020-0188,2021-10-17,11:23:40,12:52:22,NA,incomplete,false,true,NA,8,4,NA,green,n_s_003.jpg,NA,NA,pleasant,unpleasant,NA,NA,NA,NA,NA,right,1874.59999999404,true,NA,NA,NA,NA,NA
3GnOCmNx,3uy4pis8ruyxp7v852m6xfad2fzn1g,3fe7txl1lm0r49oqv0j3vcbf1k4q2w,3GnOCmNx,2020-0188,2021-10-17,11:23:40,12:52:22,NA,incomplete,false,true,NA,8,5,NA,green,m_s_097.jpg,NA,NA,unpleasant,pleasant,NA,NA,NA,NA,NA,left,2055.79999999702,true,NA,NA,NA,NA,NA
3GnOCmNx,3uy4pis8ruyxp7v852m6xfad2fzn1g,3fe7txl1lm0r49oqv0j3vcbf1k4q2w,3GnOCmNx,2020-0188,2021-10-17,11:23:40,12:52:22,NA,incomplete,false,true,NA,8,6,NA,blue,m_l_064.jpg,NA,NA,pleasant,unpleasant,NA,NA,NA,NA,NA,left,1877.90000000596,true,NA,NA,NA,NA,NA
3GnOCmNx,3uy4pis8ruyxp7v852m6xfad2fzn1g,3fe7txl1lm0r49oqv0j3vcbf1k4q2w,3GnOCmNx,2020-0188,2021-10-17,11:23:40,12:52:22,NA,incomplete,false,true,NA,8,7,NA,blue,m_s_082.jpg,NA,NA,pleasant,unpleasant,NA,NA,NA,NA,NA,left,1270.79999999702,true,NA,NA,NA,NA,NA
3GnOCmNx,3uy4pis8ruyxp7v852m6xfad2fzn1g,3fe7txl1lm0r49oqv0j3vcbf1k4q2w,3GnOCmNx,2020-0188,2021-10-17,11:23:40,12:52:22,NA,incomplete,false,true,NA,8,8,NA,blue,m_s_110.jpg,NA,NA,unpleasant,pleasant,NA,NA,NA,NA,NA,left,1484.20000000298,true,NA,NA,NA,NA,NA
