workerId,hitId,assignmentId,subject,studyid,exp_date,exp_start,exp_end,time_start,time_end,practice,encoding,memory,block,trial,event_order,event,stim,answer,context_type,label_left,label_right,left_image,left_event,right_image,right_event,condition,response,response_time,response_acc,order_response,order_response_time,order_acc,distance_response,distance_response_time
4ozmjj1y,3r0wocg22pm4csvtiwincc3gz22duj,3mrnmeiqw9j3gm6t0kvoa93potjld0,4ozmjj1y,2020-0188,2021-10-14,10:18:43,13:23:38,NA,incomplete,true,true,NA,0,0,NA,brown,m_l_004.jpg,NA,NA,unpleasant,pleasant,NA,NA,NA,NA,NA,left,2157,true,NA,NA,NA,NA,NA
4ozmjj1y,3r0wocg22pm4csvtiwincc3gz22duj,3mrnmeiqw9j3gm6t0kvoa93potjld0,4ozmjj1y,2020-0188,2021-10-14,10:18:43,13:23:38,NA,incomplete,true,true,NA,0,1,NA,brown,n_l_100.jpg,NA,NA,pleasant,unpleasant,NA,NA,NA,NA,NA,left,3313,true,NA,NA,NA,NA,NA
4ozmjj1y,3r0wocg22pm4csvtiwincc3gz22duj,3mrnmeiqw9j3gm6t0kvoa93potjld0,4ozmjj1y,2020-0188,2021-10-14,10:18:43,13:23:38,NA,incomplete,true,true,NA,0,2,NA,brown,n_l_078.jpg,NA,NA,unpleasant,pleasant,NA,NA,NA,NA,NA,left,3431,true,NA,NA,NA,NA,NA
4ozmjj1y,3r0wocg22pm4csvtiwincc3gz22duj,3mrnmeiqw9j3gm6t0kvoa93potjld0,4ozmjj1y,2020-0188,2021-10-14,10:18:43,13:23:38,NA,incomplete,true,true,NA,0,3,NA,brown,n_l_048.jpg,NA,NA,pleasant,unpleasant,NA,NA,NA,NA,NA,left,2178,true,NA,NA,NA,NA,NA
4ozmjj1y,3r0wocg22pm4csvtiwincc3gz22duj,3mrnmeiqw9j3gm6t0kvoa93potjld0,4ozmjj1y,2020-0188,2021-10-14,10:18:43,13:23:38,NA,incomplete,true,true,NA,0,4,NA,brown,n_l_020.jpg,NA,NA,unpleasant,pleasant,NA,NA,NA,NA,NA,right,1418,true,NA,NA,NA,NA,NA
4ozmjj1y,3r0wocg22pm4csvtiwincc3gz22duj,3mrnmeiqw9j3gm6t0kvoa93potjld0,4ozmjj1y,2020-0188,2021-10-14,10:18:43,13:23:38,NA,incomplete,true,true,NA,0,5,NA,brown,m_s_068.jpg,NA,NA,unpleasant,pleasant,NA,NA,NA,NA,NA,right,1889,true,NA,NA,NA,NA,NA
4ozmjj1y,3r0wocg22pm4csvtiwincc3gz22duj,3mrnmeiqw9j3gm6t0kvoa93potjld0,4ozmjj1y,2020-0188,2021-10-14,10:18:43,13:23:38,NA,incomplete,true,true,NA,0,6,NA,gray,m_l_073.jpg,NA,NA,pleasant,unpleasant,NA,NA,NA,NA,NA,left,1378,true,NA,NA,NA,NA,NA
4ozmjj1y,3r0wocg22pm4csvtiwincc3gz22duj,3mrnmeiqw9j3gm6t0kvoa93potjld0,4ozmjj1y,2020-0188,2021-10-14,10:18:43,13:23:38,NA,incomplete,true,true,NA,0,7,NA,gray,m_s_104.jpg,NA,NA,unpleasant,pleasant,NA,NA,NA,NA,NA,left,2355,true,NA,NA,NA,NA,NA
4ozmjj1y,3r0wocg22pm4csvtiwincc3gz22duj,3mrnmeiqw9j3gm6t0kvoa93potjld0,4ozmjj1y,2020-0188,2021-10-14,10:18:43,13:23:38,NA,incomplete,true,true,NA,0,8,NA,gray,n_l_036.jpg,NA,NA,pleasant,unpleasant,NA,NA,NA,NA,NA,right,1559,true,NA,NA,NA,NA,NA
4ozmjj1y,3r0wocg22pm4csvtiwincc3gz22duj,3mrnmeiqw9j3gm6t0kvoa93potjld0,4ozmjj1y,2020-0188,2021-10-14,10:18:43,13:23:38,NA,incomplete,true,true,NA,0,9,NA,gray,n_s_116.jpg,NA,NA,unpleasant,pleasant,NA,NA,NA,NA,NA,left,2139,true,NA,NA,NA,NA,NA
4ozmjj1y,3r0wocg22pm4csvtiwincc3gz22duj,3mrnmeiqw9j3gm6t0kvoa93potjld0,4ozmjj1y,2020-0188,2021-10-14,10:18:43,13:23:38,NA,incomplete,true,true,NA,0,10,NA,gray,n_s_058.jpg,NA,NA,unpleasant,pleasant,NA,NA,NA,NA,NA,right,2071,true,NA,NA,NA,NA,NA
4ozmjj1y,3r0wocg22pm4csvtiwincc3gz22duj,3mrnmeiqw9j3gm6t0kvoa93potjld0,4ozmjj1y,2020-0188,2021-10-14,10:18:43,13:23:38,NA,incomplete,true,true,NA,0,11,NA,gray,m_s_020.jpg,NA,NA,pleasant,unpleasant,NA,NA,NA,NA,NA,left,2958,true,NA,NA,NA,NA,NA
4ozmjj1y,3r0wocg22pm4csvtiwincc3gz22duj,3mrnmeiqw9j3gm6t0kvoa93potjld0,4ozmjj1y,2020-0188,2021-10-14,10:18:43,13:23:38,NA,incomplete,true,true,NA,0,12,NA,purple,n_s_050.jpg,NA,NA,unpleasant,pleasant,NA,NA,NA,NA,NA,right,2449,true,NA,NA,NA,NA,NA
4ozmjj1y,3r0wocg22pm4csvtiwincc3gz22duj,3mrnmeiqw9j3gm6t0kvoa93potjld0,4ozmjj1y,2020-0188,2021-10-14,10:18:43,13:23:38,NA,incomplete,true,true,NA,0,13,NA,purple,n_l_101.jpg,NA,NA,pleasant,unpleasant,NA,NA,NA,NA,NA,right,1859,true,NA,NA,NA,NA,NA
4ozmjj1y,3r0wocg22pm4csvtiwincc3gz22duj,3mrnmeiqw9j3gm6t0kvoa93potjld0,4ozmjj1y,2020-0188,2021-10-14,10:18:43,13:23:38,NA,incomplete,true,true,NA,0,14,NA,purple,m_l_078.jpg,NA,NA,unpleasant,pleasant,NA,NA,NA,NA,NA,right,2235,true,NA,NA,NA,NA,NA
4ozmjj1y,3r0wocg22pm4csvtiwincc3gz22duj,3mrnmeiqw9j3gm6t0kvoa93potjld0,4ozmjj1y,2020-0188,2021-10-14,10:18:43,13:23:38,NA,incomplete,true,true,NA,0,15,NA,purple,n_s_048.jpg,NA,NA,pleasant,unpleasant,NA,NA,NA,NA,NA,right,2503,true,NA,NA,NA,NA,NA
4ozmjj1y,3r0wocg22pm4csvtiwincc3gz22duj,3mrnmeiqw9j3gm6t0kvoa93potjld0,4ozmjj1y,2020-0188,2021-10-14,10:18:43,13:23:38,NA,incomplete,true,true,NA,0,16,NA,purple,m_s_110.jpg,NA,NA,pleasant,unpleasant,NA,NA,NA,NA,NA,left,2462,true,NA,NA,NA,NA,NA
4ozmjj1y,3r0wocg22pm4csvtiwincc3gz22duj,3mrnmeiqw9j3gm6t0kvoa93potjld0,4ozmjj1y,2020-0188,2021-10-14,10:18:43,13:23:38,NA,incomplete,true,true,NA,0,17,NA,purple,m_s_029.jpg,NA,NA,unpleasant,pleasant,NA,NA,NA,NA,NA,right,1583,true,NA,NA,NA,NA,NA
4ozmjj1y,3r0wocg22pm4csvtiwincc3gz22duj,3mrnmeiqw9j3gm6t0kvoa93potjld0,4ozmjj1y,2020-0188,2021-10-14,10:18:43,13:23:38,NA,incomplete,true,true,NA,0,18,NA,red,m_s_067.jpg,NA,NA,unpleasant,pleasant,NA,NA,NA,NA,NA,right,2468,true,NA,NA,NA,NA,NA
4ozmjj1y,3r0wocg22pm4csvtiwincc3gz22duj,3mrnmeiqw9j3gm6t0kvoa93potjld0,4ozmjj1y,2020-0188,2021-10-14,10:18:43,13:23:38,NA,incomplete,true,true,NA,0,19,NA,red,n_l_109.jpg,NA,NA,pleasant,unpleasant,NA,NA,NA,NA,NA,none,0,false,NA,NA,NA,NA,NA
4ozmjj1y,3r0wocg22pm4csvtiwincc3gz22duj,3mrnmeiqw9j3gm6t0kvoa93potjld0,4ozmjj1y,2020-0188,2021-10-14,10:18:43,13:23:38,NA,incomplete,true,true,NA,0,20,NA,red,m_l_028.jpg,NA,NA,unpleasant,pleasant,NA,NA,NA,NA,NA,left,2133,true,NA,NA,NA,NA,NA
4ozmjj1y,3r0wocg22pm4csvtiwincc3gz22duj,3mrnmeiqw9j3gm6t0kvoa93potjld0,4ozmjj1y,2020-0188,2021-10-14,10:18:43,13:23:38,NA,incomplete,true,true,NA,0,21,NA,red,m_l_097.jpg,NA,NA,pleasant,unpleasant,NA,NA,NA,NA,NA,right,2782,true,NA,NA,NA,NA,NA
4ozmjj1y,3r0wocg22pm4csvtiwincc3gz22duj,3mrnmeiqw9j3gm6t0kvoa93potjld0,4ozmjj1y,2020-0188,2021-10-14,10:18:43,13:23:38,NA,incomplete,true,true,NA,0,22,NA,red,m_l_105.jpg,NA,NA,unpleasant,pleasant,NA,NA,NA,NA,NA,right,2703,true,NA,NA,NA,NA,NA
4ozmjj1y,3r0wocg22pm4csvtiwincc3gz22duj,3mrnmeiqw9j3gm6t0kvoa93potjld0,4ozmjj1y,2020-0188,2021-10-14,10:18:43,13:23:38,NA,incomplete,true,true,NA,0,23,NA,red,n_s_061.jpg,NA,NA,pleasant,unpleasant,NA,NA,NA,NA,NA,left,2476,true,NA,NA,NA,NA,NA
4ozmjj1y,3r0wocg22pm4csvtiwincc3gz22duj,3mrnmeiqw9j3gm6t0kvoa93potjld0,4ozmjj1y,2020-0188,2021-10-14,10:18:43,13:23:38,NA,incomplete,true,true,NA,0,24,NA,white,n_l_024.jpg,NA,NA,pleasant,unpleasant,NA,NA,NA,NA,NA,right,2544,true,NA,NA,NA,NA,NA
4ozmjj1y,3r0wocg22pm4csvtiwincc3gz22duj,3mrnmeiqw9j3gm6t0kvoa93potjld0,4ozmjj1y,2020-0188,2021-10-14,10:18:43,13:23:38,NA,incomplete,true,true,NA,0,25,NA,white,n_l_031.jpg,NA,NA,unpleasant,pleasant,NA,NA,NA,NA,NA,left,1954,true,NA,NA,NA,NA,NA
4ozmjj1y,3r0wocg22pm4csvtiwincc3gz22duj,3mrnmeiqw9j3gm6t0kvoa93potjld0,4ozmjj1y,2020-0188,2021-10-14,10:18:43,13:23:38,NA,incomplete,true,true,NA,0,26,NA,white,m_l_035.jpg,NA,NA,pleasant,unpleasant,NA,NA,NA,NA,NA,left,1916,true,NA,NA,NA,NA,NA
4ozmjj1y,3r0wocg22pm4csvtiwincc3gz22duj,3mrnmeiqw9j3gm6t0kvoa93potjld0,4ozmjj1y,2020-0188,2021-10-14,10:18:43,13:23:38,NA,incomplete,true,true,NA,0,27,NA,white,n_l_102.jpg,NA,NA,unpleasant,pleasant,NA,NA,NA,NA,NA,left,2971,true,NA,NA,NA,NA,NA
4ozmjj1y,3r0wocg22pm4csvtiwincc3gz22duj,3mrnmeiqw9j3gm6t0kvoa93potjld0,4ozmjj1y,2020-0188,2021-10-14,10:18:43,13:23:38,NA,incomplete,true,true,NA,0,28,NA,white,n_l_070.jpg,NA,NA,unpleasant,pleasant,NA,NA,NA,NA,NA,right,1957,true,NA,NA,NA,NA,NA
4ozmjj1y,3r0wocg22pm4csvtiwincc3gz22duj,3mrnmeiqw9j3gm6t0kvoa93potjld0,4ozmjj1y,2020-0188,2021-10-14,10:18:43,13:23:38,NA,incomplete,true,true,NA,0,29,NA,white,m_s_016.jpg,NA,NA,pleasant,unpleasant,NA,NA,NA,NA,NA,left,2178,true,NA,NA,NA,NA,NA
4ozmjj1y,3r0wocg22pm4csvtiwincc3gz22duj,3mrnmeiqw9j3gm6t0kvoa93potjld0,4ozmjj1y,2020-0188,2021-10-14,10:18:43,13:23:38,NA,incomplete,true,true,NA,0,30,NA,blue,n_l_058.jpg,NA,NA,pleasant,unpleasant,NA,NA,NA,NA,NA,left,2067,true,NA,NA,NA,NA,NA
4ozmjj1y,3r0wocg22pm4csvtiwincc3gz22duj,3mrnmeiqw9j3gm6t0kvoa93potjld0,4ozmjj1y,2020-0188,2021-10-14,10:18:43,13:23:38,NA,incomplete,true,true,NA,0,31,NA,blue,n_l_086.jpg,NA,NA,unpleasant,pleasant,NA,NA,NA,NA,NA,left,1548,true,NA,NA,NA,NA,NA
4ozmjj1y,3r0wocg22pm4csvtiwincc3gz22duj,3mrnmeiqw9j3gm6t0kvoa93potjld0,4ozmjj1y,2020-0188,2021-10-14,10:18:43,13:23:38,NA,incomplete,true,true,NA,0,32,NA,blue,m_l_031.jpg,NA,NA,unpleasant,pleasant,NA,NA,NA,NA,NA,none,0,false,NA,NA,NA,NA,NA
4ozmjj1y,3r0wocg22pm4csvtiwincc3gz22duj,3mrnmeiqw9j3gm6t0kvoa93potjld0,4ozmjj1y,2020-0188,2021-10-14,10:18:43,13:23:38,NA,incomplete,true,true,NA,0,33,NA,blue,n_s_100.jpg,NA,NA,pleasant,unpleasant,NA,NA,NA,NA,NA,left,2200,true,NA,NA,NA,NA,NA
4ozmjj1y,3r0wocg22pm4csvtiwincc3gz22duj,3mrnmeiqw9j3gm6t0kvoa93potjld0,4ozmjj1y,2020-0188,2021-10-14,10:18:43,13:23:38,NA,incomplete,true,true,NA,0,34,NA,blue,m_s_083.jpg,NA,NA,pleasant,unpleasant,NA,NA,NA,NA,NA,left,2173,true,NA,NA,NA,NA,NA
4ozmjj1y,3r0wocg22pm4csvtiwincc3gz22duj,3mrnmeiqw9j3gm6t0kvoa93potjld0,4ozmjj1y,2020-0188,2021-10-14,10:18:43,13:23:38,NA,incomplete,true,true,NA,0,35,NA,blue,n_s_060.jpg,NA,NA,pleasant,unpleasant,NA,NA,NA,NA,NA,left,2324,true,NA,NA,NA,NA,NA
4ozmjj1y,3r0wocg22pm4csvtiwincc3gz22duj,3mrnmeiqw9j3gm6t0kvoa93potjld0,4ozmjj1y,2020-0188,2021-10-14,10:18:43,13:23:38,NA,incomplete,true,NA,true,0,0,NA,NA,NA,left,present,NA,NA,n_l_031.jpg,white,m_s_016.jpg,white,within,NA,NaN,NA,left,6982,1,1,2945
4ozmjj1y,3r0wocg22pm4csvtiwincc3gz22duj,3mrnmeiqw9j3gm6t0kvoa93potjld0,4ozmjj1y,2020-0188,2021-10-14,10:18:43,13:23:38,NA,incomplete,true,NA,true,0,1,NA,NA,NA,left,absent,NA,NA,n_l_020.jpg,brown,n_l_036.jpg,gray,between,NA,NaN,NA,left,2921,1,0,3037
4ozmjj1y,3r0wocg22pm4csvtiwincc3gz22duj,3mrnmeiqw9j3gm6t0kvoa93potjld0,4ozmjj1y,2020-0188,2021-10-14,10:18:43,13:23:38,NA,incomplete,true,NA,true,0,2,NA,NA,NA,left,present,NA,NA,n_l_101.jpg,purple,m_s_029.jpg,purple,within,NA,NaN,NA,right,4100,0,1,2399
4ozmjj1y,3r0wocg22pm4csvtiwincc3gz22duj,3mrnmeiqw9j3gm6t0kvoa93potjld0,4ozmjj1y,2020-0188,2021-10-14,10:18:43,13:23:38,NA,incomplete,true,NA,true,0,3,NA,NA,NA,left,absent,NA,NA,n_l_100.jpg,brown,m_s_068.jpg,brown,within,NA,NaN,NA,right,2772,0,2,2049
4ozmjj1y,3r0wocg22pm4csvtiwincc3gz22duj,3mrnmeiqw9j3gm6t0kvoa93potjld0,4ozmjj1y,2020-0188,2021-10-14,10:18:43,13:23:38,NA,incomplete,true,NA,true,0,4,NA,NA,NA,left,absent,NA,NA,m_s_110.jpg,purple,m_l_028.jpg,red,between,NA,NaN,NA,left,2281,1,2,1967
4ozmjj1y,3r0wocg22pm4csvtiwincc3gz22duj,3mrnmeiqw9j3gm6t0kvoa93potjld0,4ozmjj1y,2020-0188,2021-10-14,10:18:43,13:23:38,NA,incomplete,true,NA,true,0,5,NA,NA,NA,right,absent,NA,NA,m_l_078.jpg,purple,n_s_058.jpg,gray,between,NA,NaN,NA,right,2839,1,1,174299
4ozmjj1y,3r0wocg22pm4csvtiwincc3gz22duj,3mrnmeiqw9j3gm6t0kvoa93potjld0,4ozmjj1y,2020-0188,2021-10-14,10:18:43,13:23:38,NA,incomplete,true,NA,true,0,6,NA,NA,NA,left,absent,NA,NA,n_l_109.jpg,red,n_s_061.jpg,red,within,NA,NaN,NA,left,3161,1,1,1889
4ozmjj1y,3r0wocg22pm4csvtiwincc3gz22duj,3mrnmeiqw9j3gm6t0kvoa93potjld0,4ozmjj1y,2020-0188,2021-10-14,10:18:43,13:23:38,NA,incomplete,true,NA,true,0,7,NA,NA,NA,right,present,NA,NA,m_l_035.jpg,white,m_l_105.jpg,red,between,NA,NaN,NA,right,2505,1,1,1809
4ozmjj1y,3r0wocg22pm4csvtiwincc3gz22duj,3mrnmeiqw9j3gm6t0kvoa93potjld0,4ozmjj1y,2020-0188,2021-10-14,10:18:43,13:23:38,NA,incomplete,true,NA,true,0,8,NA,NA,NA,left,absent,NA,NA,m_s_104.jpg,gray,m_s_020.jpg,gray,within,NA,NaN,NA,right,1985,0,1,2597
4ozmjj1y,3r0wocg22pm4csvtiwincc3gz22duj,3mrnmeiqw9j3gm6t0kvoa93potjld0,4ozmjj1y,2020-0188,2021-10-14,10:18:43,13:23:38,NA,incomplete,true,NA,true,0,9,NA,NA,NA,right,present,NA,NA,m_l_031.jpg,blue,n_l_070.jpg,white,between,NA,NaN,NA,right,3874,1,1,3057
4ozmjj1y,3r0wocg22pm4csvtiwincc3gz22duj,3mrnmeiqw9j3gm6t0kvoa93potjld0,4ozmjj1y,2020-0188,2021-10-14,10:18:43,13:23:38,NA,incomplete,true,NA,true,0,10,NA,NA,NA,right,present,NA,NA,n_s_060.jpg,blue,n_l_086.jpg,blue,within,NA,NaN,NA,right,2299,1,1,5034
4ozmjj1y,3r0wocg22pm4csvtiwincc3gz22duj,3mrnmeiqw9j3gm6t0kvoa93potjld0,4ozmjj1y,2020-0188,2021-10-14,10:18:43,13:23:38,NA,incomplete,false,true,NA,1,0,NA,orange,n_s_095.jpg,NA,NA,unpleasant,pleasant,NA,NA,NA,NA,NA,none,0,false,NA,NA,NA,NA,NA
4ozmjj1y,3r0wocg22pm4csvtiwincc3gz22duj,3mrnmeiqw9j3gm6t0kvoa93potjld0,4ozmjj1y,2020-0188,2021-10-14,10:18:43,13:23:38,NA,incomplete,false,true,NA,1,1,NA,orange,m_s_066.jpg,NA,NA,unpleasant,pleasant,NA,NA,NA,NA,NA,right,1472,true,NA,NA,NA,NA,NA
4ozmjj1y,3r0wocg22pm4csvtiwincc3gz22duj,3mrnmeiqw9j3gm6t0kvoa93potjld0,4ozmjj1y,2020-0188,2021-10-14,10:18:43,13:23:38,NA,incomplete,false,true,NA,1,2,NA,orange,m_l_055.jpg,NA,NA,pleasant,unpleasant,NA,NA,NA,NA,NA,left,1657,true,NA,NA,NA,NA,NA
4ozmjj1y,3r0wocg22pm4csvtiwincc3gz22duj,3mrnmeiqw9j3gm6t0kvoa93potjld0,4ozmjj1y,2020-0188,2021-10-14,10:18:43,13:23:38,NA,incomplete,false,true,NA,1,3,NA,orange,n_s_049.jpg,NA,NA,unpleasant,pleasant,NA,NA,NA,NA,NA,left,2198,true,NA,NA,NA,NA,NA
4ozmjj1y,3r0wocg22pm4csvtiwincc3gz22duj,3mrnmeiqw9j3gm6t0kvoa93potjld0,4ozmjj1y,2020-0188,2021-10-14,10:18:43,13:23:38,NA,incomplete,false,true,NA,1,4,NA,orange,n_s_064.jpg,NA,NA,pleasant,unpleasant,NA,NA,NA,NA,NA,right,3013,true,NA,NA,NA,NA,NA
4ozmjj1y,3r0wocg22pm4csvtiwincc3gz22duj,3mrnmeiqw9j3gm6t0kvoa93potjld0,4ozmjj1y,2020-0188,2021-10-14,10:18:43,13:23:38,NA,incomplete,false,true,NA,1,5,NA,orange,m_s_102.jpg,NA,NA,pleasant,unpleasant,NA,NA,NA,NA,NA,left,2893,true,NA,NA,NA,NA,NA
4ozmjj1y,3r0wocg22pm4csvtiwincc3gz22duj,3mrnmeiqw9j3gm6t0kvoa93potjld0,4ozmjj1y,2020-0188,2021-10-14,10:18:43,13:23:38,NA,incomplete,false,true,NA,1,6,NA,black,m_l_068.jpg,NA,NA,pleasant,unpleasant,NA,NA,NA,NA,NA,left,1435,true,NA,NA,NA,NA,NA
4ozmjj1y,3r0wocg22pm4csvtiwincc3gz22duj,3mrnmeiqw9j3gm6t0kvoa93potjld0,4ozmjj1y,2020-0188,2021-10-14,10:18:43,13:23:38,NA,incomplete,false,true,NA,1,7,NA,black,m_s_017.jpg,NA,NA,pleasant,unpleasant,NA,NA,NA,NA,NA,left,1273,true,NA,NA,NA,NA,NA
4ozmjj1y,3r0wocg22pm4csvtiwincc3gz22duj,3mrnmeiqw9j3gm6t0kvoa93potjld0,4ozmjj1y,2020-0188,2021-10-14,10:18:43,13:23:38,NA,incomplete,false,true,NA,1,8,NA,black,n_s_062.jpg,NA,NA,unpleasant,pleasant,NA,NA,NA,NA,NA,right,1050,true,NA,NA,NA,NA,NA
4ozmjj1y,3r0wocg22pm4csvtiwincc3gz22duj,3mrnmeiqw9j3gm6t0kvoa93potjld0,4ozmjj1y,2020-0188,2021-10-14,10:18:43,13:23:38,NA,incomplete,false,true,NA,1,9,NA,black,m_l_101.jpg,NA,NA,pleasant,unpleasant,NA,NA,NA,NA,NA,left,2233,true,NA,NA,NA,NA,NA
4ozmjj1y,3r0wocg22pm4csvtiwincc3gz22duj,3mrnmeiqw9j3gm6t0kvoa93potjld0,4ozmjj1y,2020-0188,2021-10-14,10:18:43,13:23:38,NA,incomplete,false,true,NA,1,10,NA,black,n_l_014.jpg,NA,NA,pleasant,unpleasant,NA,NA,NA,NA,NA,right,2794,true,NA,NA,NA,NA,NA
4ozmjj1y,3r0wocg22pm4csvtiwincc3gz22duj,3mrnmeiqw9j3gm6t0kvoa93potjld0,4ozmjj1y,2020-0188,2021-10-14,10:18:43,13:23:38,NA,incomplete,false,true,NA,1,11,NA,black,n_s_090.jpg,NA,NA,unpleasant,pleasant,NA,NA,NA,NA,NA,none,0,false,NA,NA,NA,NA,NA
4ozmjj1y,3r0wocg22pm4csvtiwincc3gz22duj,3mrnmeiqw9j3gm6t0kvoa93potjld0,4ozmjj1y,2020-0188,2021-10-14,10:18:43,13:23:38,NA,incomplete,false,true,NA,1,12,NA,white,m_l_072.jpg,NA,NA,unpleasant,pleasant,NA,NA,NA,NA,NA,right,1324,true,NA,NA,NA,NA,NA
4ozmjj1y,3r0wocg22pm4csvtiwincc3gz22duj,3mrnmeiqw9j3gm6t0kvoa93potjld0,4ozmjj1y,2020-0188,2021-10-14,10:18:43,13:23:38,NA,incomplete,false,true,NA,1,13,NA,white,m_l_117.jpg,NA,NA,pleasant,unpleasant,NA,NA,NA,NA,NA,left,2053,true,NA,NA,NA,NA,NA
4ozmjj1y,3r0wocg22pm4csvtiwincc3gz22duj,3mrnmeiqw9j3gm6t0kvoa93potjld0,4ozmjj1y,2020-0188,2021-10-14,10:18:43,13:23:38,NA,incomplete,false,true,NA,1,14,NA,white,m_s_098.jpg,NA,NA,unpleasant,pleasant,NA,NA,NA,NA,NA,right,2097,true,NA,NA,NA,NA,NA
4ozmjj1y,3r0wocg22pm4csvtiwincc3gz22duj,3mrnmeiqw9j3gm6t0kvoa93potjld0,4ozmjj1y,2020-0188,2021-10-14,10:18:43,13:23:38,NA,incomplete,false,true,NA,1,15,NA,white,m_s_072.jpg,NA,NA,unpleasant,pleasant,NA,NA,NA,NA,NA,right,1717,true,NA,NA,NA,NA,NA
4ozmjj1y,3r0wocg22pm4csvtiwincc3gz22duj,3mrnmeiqw9j3gm6t0kvoa93potjld0,4ozmjj1y,2020-0188,2021-10-14,10:18:43,13:23:38,NA,incomplete,false,true,NA,1,16,NA,white,n_s_076.jpg,NA,NA,pleasant,unpleasant,NA,NA,NA,NA,NA,left,2098,true,NA,NA,NA,NA,NA
4ozmjj1y,3r0wocg22pm4csvtiwincc3gz22duj,3mrnmeiqw9j3gm6t0kvoa93potjld0,4ozmjj1y,2020-0188,2021-10-14,10:18:43,13:23:38,NA,incomplete,false,true,NA,1,17,NA,white,n_l_064.jpg,NA,NA,unpleasant,pleasant,NA,NA,NA,NA,NA,left,2098,true,NA,NA,NA,NA,NA
4ozmjj1y,3r0wocg22pm4csvtiwincc3gz22duj,3mrnmeiqw9j3gm6t0kvoa93potjld0,4ozmjj1y,2020-0188,2021-10-14,10:18:43,13:23:38,NA,incomplete,false,true,NA,1,18,NA,gray,n_s_044.jpg,NA,NA,pleasant,unpleasant,NA,NA,NA,NA,NA,left,2268,true,NA,NA,NA,NA,NA
4ozmjj1y,3r0wocg22pm4csvtiwincc3gz22duj,3mrnmeiqw9j3gm6t0kvoa93potjld0,4ozmjj1y,2020-0188,2021-10-14,10:18:43,13:23:38,NA,incomplete,false,true,NA,1,19,NA,gray,n_s_035.jpg,NA,NA,unpleasant,pleasant,NA,NA,NA,NA,NA,right,1498,true,NA,NA,NA,NA,NA
4ozmjj1y,3r0wocg22pm4csvtiwincc3gz22duj,3mrnmeiqw9j3gm6t0kvoa93potjld0,4ozmjj1y,2020-0188,2021-10-14,10:18:43,13:23:38,NA,incomplete,false,true,NA,1,20,NA,gray,m_s_019.jpg,NA,NA,unpleasant,pleasant,NA,NA,NA,NA,NA,right,2138,true,NA,NA,NA,NA,NA
4ozmjj1y,3r0wocg22pm4csvtiwincc3gz22duj,3mrnmeiqw9j3gm6t0kvoa93potjld0,4ozmjj1y,2020-0188,2021-10-14,10:18:43,13:23:38,NA,incomplete,false,true,NA,1,21,NA,gray,m_l_012.jpg,NA,NA,pleasant,unpleasant,NA,NA,NA,NA,NA,left,2179,true,NA,NA,NA,NA,NA
4ozmjj1y,3r0wocg22pm4csvtiwincc3gz22duj,3mrnmeiqw9j3gm6t0kvoa93potjld0,4ozmjj1y,2020-0188,2021-10-14,10:18:43,13:23:38,NA,incomplete,false,true,NA,1,22,NA,gray,n_l_076.jpg,NA,NA,pleasant,unpleasant,NA,NA,NA,NA,NA,right,2699,true,NA,NA,NA,NA,NA
4ozmjj1y,3r0wocg22pm4csvtiwincc3gz22duj,3mrnmeiqw9j3gm6t0kvoa93potjld0,4ozmjj1y,2020-0188,2021-10-14,10:18:43,13:23:38,NA,incomplete,false,true,NA,1,23,NA,gray,m_s_058.jpg,NA,NA,pleasant,unpleasant,NA,NA,NA,NA,NA,left,2129,true,NA,NA,NA,NA,NA
4ozmjj1y,3r0wocg22pm4csvtiwincc3gz22duj,3mrnmeiqw9j3gm6t0kvoa93potjld0,4ozmjj1y,2020-0188,2021-10-14,10:18:43,13:23:38,NA,incomplete,false,true,NA,1,24,NA,blue,m_s_079.jpg,NA,NA,pleasant,unpleasant,NA,NA,NA,NA,NA,left,1777,true,NA,NA,NA,NA,NA
4ozmjj1y,3r0wocg22pm4csvtiwincc3gz22duj,3mrnmeiqw9j3gm6t0kvoa93potjld0,4ozmjj1y,2020-0188,2021-10-14,10:18:43,13:23:38,NA,incomplete,false,true,NA,1,25,NA,blue,m_l_057.jpg,NA,NA,unpleasant,pleasant,NA,NA,NA,NA,NA,right,1587,true,NA,NA,NA,NA,NA
4ozmjj1y,3r0wocg22pm4csvtiwincc3gz22duj,3mrnmeiqw9j3gm6t0kvoa93potjld0,4ozmjj1y,2020-0188,2021-10-14,10:18:43,13:23:38,NA,incomplete,false,true,NA,1,26,NA,blue,n_s_099.jpg,NA,NA,pleasant,unpleasant,NA,NA,NA,NA,NA,left,2143,true,NA,NA,NA,NA,NA
4ozmjj1y,3r0wocg22pm4csvtiwincc3gz22duj,3mrnmeiqw9j3gm6t0kvoa93potjld0,4ozmjj1y,2020-0188,2021-10-14,10:18:43,13:23:38,NA,incomplete,false,true,NA,1,27,NA,blue,m_s_116.jpg,NA,NA,pleasant,unpleasant,NA,NA,NA,NA,NA,left,1892,true,NA,NA,NA,NA,NA
4ozmjj1y,3r0wocg22pm4csvtiwincc3gz22duj,3mrnmeiqw9j3gm6t0kvoa93potjld0,4ozmjj1y,2020-0188,2021-10-14,10:18:43,13:23:38,NA,incomplete,false,true,NA,1,28,NA,blue,n_l_073.jpg,NA,NA,unpleasant,pleasant,NA,NA,NA,NA,NA,right,1663,true,NA,NA,NA,NA,NA
4ozmjj1y,3r0wocg22pm4csvtiwincc3gz22duj,3mrnmeiqw9j3gm6t0kvoa93potjld0,4ozmjj1y,2020-0188,2021-10-14,10:18:43,13:23:38,NA,incomplete,false,true,NA,1,29,NA,blue,n_s_117.jpg,NA,NA,unpleasant,pleasant,NA,NA,NA,NA,NA,right,2111,true,NA,NA,NA,NA,NA
4ozmjj1y,3r0wocg22pm4csvtiwincc3gz22duj,3mrnmeiqw9j3gm6t0kvoa93potjld0,4ozmjj1y,2020-0188,2021-10-14,10:18:43,13:23:38,NA,incomplete,false,true,NA,1,30,NA,yellow,n_s_071.jpg,NA,NA,pleasant,unpleasant,NA,NA,NA,NA,NA,left,1674,true,NA,NA,NA,NA,NA
4ozmjj1y,3r0wocg22pm4csvtiwincc3gz22duj,3mrnmeiqw9j3gm6t0kvoa93potjld0,4ozmjj1y,2020-0188,2021-10-14,10:18:43,13:23:38,NA,incomplete,false,true,NA,1,31,NA,yellow,m_s_022.jpg,NA,NA,pleasant,unpleasant,NA,NA,NA,NA,NA,left,1884,true,NA,NA,NA,NA,NA
4ozmjj1y,3r0wocg22pm4csvtiwincc3gz22duj,3mrnmeiqw9j3gm6t0kvoa93potjld0,4ozmjj1y,2020-0188,2021-10-14,10:18:43,13:23:38,NA,incomplete,false,true,NA,1,32,NA,yellow,n_l_066.jpg,NA,NA,unpleasant,pleasant,NA,NA,NA,NA,NA,right,1503,true,NA,NA,NA,NA,NA
4ozmjj1y,3r0wocg22pm4csvtiwincc3gz22duj,3mrnmeiqw9j3gm6t0kvoa93potjld0,4ozmjj1y,2020-0188,2021-10-14,10:18:43,13:23:38,NA,incomplete,false,true,NA,1,33,NA,yellow,m_l_069.jpg,NA,NA,unpleasant,pleasant,NA,NA,NA,NA,NA,right,1363,true,NA,NA,NA,NA,NA
4ozmjj1y,3r0wocg22pm4csvtiwincc3gz22duj,3mrnmeiqw9j3gm6t0kvoa93potjld0,4ozmjj1y,2020-0188,2021-10-14,10:18:43,13:23:38,NA,incomplete,false,true,NA,1,34,NA,yellow,m_s_024.jpg,NA,NA,pleasant,unpleasant,NA,NA,NA,NA,NA,left,1835,true,NA,NA,NA,NA,NA
4ozmjj1y,3r0wocg22pm4csvtiwincc3gz22duj,3mrnmeiqw9j3gm6t0kvoa93potjld0,4ozmjj1y,2020-0188,2021-10-14,10:18:43,13:23:38,NA,incomplete,false,true,NA,1,35,NA,yellow,n_l_096.jpg,NA,NA,unpleasant,pleasant,NA,NA,NA,NA,NA,right,2457,true,NA,NA,NA,NA,NA
4ozmjj1y,3r0wocg22pm4csvtiwincc3gz22duj,3mrnmeiqw9j3gm6t0kvoa93potjld0,4ozmjj1y,2020-0188,2021-10-14,10:18:43,13:23:38,NA,incomplete,false,NA,true,1,0,NA,NA,NA,right,absent,NA,NA,m_s_098.jpg,white,n_l_014.jpg,black,between,NA,NaN,NA,right,4599,1,1,1703
4ozmjj1y,3r0wocg22pm4csvtiwincc3gz22duj,3mrnmeiqw9j3gm6t0kvoa93potjld0,4ozmjj1y,2020-0188,2021-10-14,10:18:43,13:23:38,NA,incomplete,false,NA,true,1,1,NA,NA,NA,left,absent,NA,NA,n_s_076.jpg,white,m_s_019.jpg,gray,between,NA,NaN,NA,left,1720,1,2,1548
4ozmjj1y,3r0wocg22pm4csvtiwincc3gz22duj,3mrnmeiqw9j3gm6t0kvoa93potjld0,4ozmjj1y,2020-0188,2021-10-14,10:18:43,13:23:38,NA,incomplete,false,NA,true,1,2,NA,NA,NA,right,absent,NA,NA,n_l_064.jpg,white,m_l_117.jpg,white,within,NA,NaN,NA,left,2195,0,1,1309
4ozmjj1y,3r0wocg22pm4csvtiwincc3gz22duj,3mrnmeiqw9j3gm6t0kvoa93potjld0,4ozmjj1y,2020-0188,2021-10-14,10:18:43,13:23:38,NA,incomplete,false,NA,true,1,3,NA,NA,NA,right,absent,NA,NA,m_s_058.jpg,gray,n_s_035.jpg,gray,within,NA,NaN,NA,right,3686,1,1,2182
4ozmjj1y,3r0wocg22pm4csvtiwincc3gz22duj,3mrnmeiqw9j3gm6t0kvoa93potjld0,4ozmjj1y,2020-0188,2021-10-14,10:18:43,13:23:38,NA,incomplete,false,NA,true,1,4,NA,NA,NA,left,absent,NA,NA,n_l_073.jpg,blue,n_l_066.jpg,yellow,between,NA,NaN,NA,left,1988,1,0,1975
4ozmjj1y,3r0wocg22pm4csvtiwincc3gz22duj,3mrnmeiqw9j3gm6t0kvoa93potjld0,4ozmjj1y,2020-0188,2021-10-14,10:18:43,13:23:38,NA,incomplete,false,NA,true,1,5,NA,NA,NA,left,absent,NA,NA,m_l_057.jpg,blue,n_s_117.jpg,blue,within,NA,NaN,NA,right,1978,0,0,2123
4ozmjj1y,3r0wocg22pm4csvtiwincc3gz22duj,3mrnmeiqw9j3gm6t0kvoa93potjld0,4ozmjj1y,2020-0188,2021-10-14,10:18:43,13:23:38,NA,incomplete,false,NA,true,1,6,NA,NA,NA,right,absent,NA,NA,n_s_062.jpg,black,n_s_064.jpg,orange,between,NA,NaN,NA,right,1872,1,0,1284
4ozmjj1y,3r0wocg22pm4csvtiwincc3gz22duj,3mrnmeiqw9j3gm6t0kvoa93potjld0,4ozmjj1y,2020-0188,2021-10-14,10:18:43,13:23:38,NA,incomplete,false,NA,true,1,7,NA,NA,NA,right,absent,NA,NA,n_s_090.jpg,black,m_s_017.jpg,black,within,NA,NaN,NA,right,2409,1,1,4188
4ozmjj1y,3r0wocg22pm4csvtiwincc3gz22duj,3mrnmeiqw9j3gm6t0kvoa93potjld0,4ozmjj1y,2020-0188,2021-10-14,10:18:43,13:23:38,NA,incomplete,false,NA,true,1,8,NA,NA,NA,right,absent,NA,NA,n_l_096.jpg,yellow,m_s_022.jpg,yellow,within,NA,NaN,NA,right,2749,1,0,1364
4ozmjj1y,3r0wocg22pm4csvtiwincc3gz22duj,3mrnmeiqw9j3gm6t0kvoa93potjld0,4ozmjj1y,2020-0188,2021-10-14,10:18:43,13:23:38,NA,incomplete,false,NA,true,1,9,NA,NA,NA,left,absent,NA,NA,m_s_066.jpg,orange,m_s_102.jpg,orange,within,NA,NaN,NA,left,2513,1,1,2203
4ozmjj1y,3r0wocg22pm4csvtiwincc3gz22duj,3mrnmeiqw9j3gm6t0kvoa93potjld0,4ozmjj1y,2020-0188,2021-10-14,10:18:43,13:23:38,NA,incomplete,false,NA,true,1,10,NA,NA,NA,left,absent,NA,NA,n_l_076.jpg,gray,n_s_099.jpg,blue,between,NA,NaN,NA,right,2409,0,0,1959
4ozmjj1y,3r0wocg22pm4csvtiwincc3gz22duj,3mrnmeiqw9j3gm6t0kvoa93potjld0,4ozmjj1y,2020-0188,2021-10-14,10:18:43,13:23:38,NA,incomplete,false,true,NA,2,0,NA,purple,m_l_007.jpg,NA,NA,pleasant,unpleasant,NA,NA,NA,NA,NA,none,0,false,NA,NA,NA,NA,NA
4ozmjj1y,3r0wocg22pm4csvtiwincc3gz22duj,3mrnmeiqw9j3gm6t0kvoa93potjld0,4ozmjj1y,2020-0188,2021-10-14,10:18:43,13:23:38,NA,incomplete,false,true,NA,2,1,NA,purple,n_s_082.jpg,NA,NA,unpleasant,pleasant,NA,NA,NA,NA,NA,right,2474,true,NA,NA,NA,NA,NA
4ozmjj1y,3r0wocg22pm4csvtiwincc3gz22duj,3mrnmeiqw9j3gm6t0kvoa93potjld0,4ozmjj1y,2020-0188,2021-10-14,10:18:43,13:23:38,NA,incomplete,false,true,NA,2,2,NA,purple,m_s_112.jpg,NA,NA,unpleasant,pleasant,NA,NA,NA,NA,NA,right,1959,true,NA,NA,NA,NA,NA
4ozmjj1y,3r0wocg22pm4csvtiwincc3gz22duj,3mrnmeiqw9j3gm6t0kvoa93potjld0,4ozmjj1y,2020-0188,2021-10-14,10:18:43,13:23:38,NA,incomplete,false,true,NA,2,3,NA,purple,n_s_097.jpg,NA,NA,pleasant,unpleasant,NA,NA,NA,NA,NA,right,2292,true,NA,NA,NA,NA,NA
4ozmjj1y,3r0wocg22pm4csvtiwincc3gz22duj,3mrnmeiqw9j3gm6t0kvoa93potjld0,4ozmjj1y,2020-0188,2021-10-14,10:18:43,13:23:38,NA,incomplete,false,true,NA,2,4,NA,purple,n_s_023.jpg,NA,NA,pleasant,unpleasant,NA,NA,NA,NA,NA,left,1164,true,NA,NA,NA,NA,NA
4ozmjj1y,3r0wocg22pm4csvtiwincc3gz22duj,3mrnmeiqw9j3gm6t0kvoa93potjld0,4ozmjj1y,2020-0188,2021-10-14,10:18:43,13:23:38,NA,incomplete,false,true,NA,2,5,NA,purple,n_s_054.jpg,NA,NA,pleasant,unpleasant,NA,NA,NA,NA,NA,left,1036,true,NA,NA,NA,NA,NA
4ozmjj1y,3r0wocg22pm4csvtiwincc3gz22duj,3mrnmeiqw9j3gm6t0kvoa93potjld0,4ozmjj1y,2020-0188,2021-10-14,10:18:43,13:23:38,NA,incomplete,false,true,NA,2,6,NA,green,n_s_006.jpg,NA,NA,pleasant,unpleasant,NA,NA,NA,NA,NA,left,922,true,NA,NA,NA,NA,NA
4ozmjj1y,3r0wocg22pm4csvtiwincc3gz22duj,3mrnmeiqw9j3gm6t0kvoa93potjld0,4ozmjj1y,2020-0188,2021-10-14,10:18:43,13:23:38,NA,incomplete,false,true,NA,2,7,NA,green,n_s_036.jpg,NA,NA,pleasant,unpleasant,NA,NA,NA,NA,NA,left,1303,true,NA,NA,NA,NA,NA
4ozmjj1y,3r0wocg22pm4csvtiwincc3gz22duj,3mrnmeiqw9j3gm6t0kvoa93potjld0,4ozmjj1y,2020-0188,2021-10-14,10:18:43,13:23:38,NA,incomplete,false,true,NA,2,8,NA,green,m_s_012.jpg,NA,NA,pleasant,unpleasant,NA,NA,NA,NA,NA,right,2149,true,NA,NA,NA,NA,NA
4ozmjj1y,3r0wocg22pm4csvtiwincc3gz22duj,3mrnmeiqw9j3gm6t0kvoa93potjld0,4ozmjj1y,2020-0188,2021-10-14,10:18:43,13:23:38,NA,incomplete,false,true,NA,2,9,NA,green,m_s_038.jpg,NA,NA,pleasant,unpleasant,NA,NA,NA,NA,NA,left,1625,true,NA,NA,NA,NA,NA
4ozmjj1y,3r0wocg22pm4csvtiwincc3gz22duj,3mrnmeiqw9j3gm6t0kvoa93potjld0,4ozmjj1y,2020-0188,2021-10-14,10:18:43,13:23:38,NA,incomplete,false,true,NA,2,10,NA,green,n_l_075.jpg,NA,NA,pleasant,unpleasant,NA,NA,NA,NA,NA,right,1458,true,NA,NA,NA,NA,NA
4ozmjj1y,3r0wocg22pm4csvtiwincc3gz22duj,3mrnmeiqw9j3gm6t0kvoa93potjld0,4ozmjj1y,2020-0188,2021-10-14,10:18:43,13:23:38,NA,incomplete,false,true,NA,2,11,NA,green,n_s_096.jpg,NA,NA,unpleasant,pleasant,NA,NA,NA,NA,NA,right,1248,true,NA,NA,NA,NA,NA
4ozmjj1y,3r0wocg22pm4csvtiwincc3gz22duj,3mrnmeiqw9j3gm6t0kvoa93potjld0,4ozmjj1y,2020-0188,2021-10-14,10:18:43,13:23:38,NA,incomplete,false,true,NA,2,12,NA,black,n_s_070.jpg,NA,NA,pleasant,unpleasant,NA,NA,NA,NA,NA,left,1988,true,NA,NA,NA,NA,NA
4ozmjj1y,3r0wocg22pm4csvtiwincc3gz22duj,3mrnmeiqw9j3gm6t0kvoa93potjld0,4ozmjj1y,2020-0188,2021-10-14,10:18:43,13:23:38,NA,incomplete,false,true,NA,2,13,NA,black,n_l_037.jpg,NA,NA,unpleasant,pleasant,NA,NA,NA,NA,NA,left,1999,true,NA,NA,NA,NA,NA
4ozmjj1y,3r0wocg22pm4csvtiwincc3gz22duj,3mrnmeiqw9j3gm6t0kvoa93potjld0,4ozmjj1y,2020-0188,2021-10-14,10:18:43,13:23:38,NA,incomplete,false,true,NA,2,14,NA,black,n_l_106.jpg,NA,NA,unpleasant,pleasant,NA,NA,NA,NA,NA,left,1322,true,NA,NA,NA,NA,NA
4ozmjj1y,3r0wocg22pm4csvtiwincc3gz22duj,3mrnmeiqw9j3gm6t0kvoa93potjld0,4ozmjj1y,2020-0188,2021-10-14,10:18:43,13:23:38,NA,incomplete,false,true,NA,2,15,NA,black,n_s_112.jpg,NA,NA,unpleasant,pleasant,NA,NA,NA,NA,NA,right,1298,true,NA,NA,NA,NA,NA
4ozmjj1y,3r0wocg22pm4csvtiwincc3gz22duj,3mrnmeiqw9j3gm6t0kvoa93potjld0,4ozmjj1y,2020-0188,2021-10-14,10:18:43,13:23:38,NA,incomplete,false,true,NA,2,16,NA,black,m_s_075.jpg,NA,NA,unpleasant,pleasant,NA,NA,NA,NA,NA,right,1461,true,NA,NA,NA,NA,NA
4ozmjj1y,3r0wocg22pm4csvtiwincc3gz22duj,3mrnmeiqw9j3gm6t0kvoa93potjld0,4ozmjj1y,2020-0188,2021-10-14,10:18:43,13:23:38,NA,incomplete,false,true,NA,2,17,NA,black,n_s_038.jpg,NA,NA,pleasant,unpleasant,NA,NA,NA,NA,NA,left,1358,true,NA,NA,NA,NA,NA
4ozmjj1y,3r0wocg22pm4csvtiwincc3gz22duj,3mrnmeiqw9j3gm6t0kvoa93potjld0,4ozmjj1y,2020-0188,2021-10-14,10:18:43,13:23:38,NA,incomplete,false,true,NA,2,18,NA,yellow,m_l_058.jpg,NA,NA,pleasant,unpleasant,NA,NA,NA,NA,NA,left,1332,true,NA,NA,NA,NA,NA
4ozmjj1y,3r0wocg22pm4csvtiwincc3gz22duj,3mrnmeiqw9j3gm6t0kvoa93potjld0,4ozmjj1y,2020-0188,2021-10-14,10:18:43,13:23:38,NA,incomplete,false,true,NA,2,19,NA,yellow,m_l_108.jpg,NA,NA,pleasant,unpleasant,NA,NA,NA,NA,NA,left,1153,true,NA,NA,NA,NA,NA
4ozmjj1y,3r0wocg22pm4csvtiwincc3gz22duj,3mrnmeiqw9j3gm6t0kvoa93potjld0,4ozmjj1y,2020-0188,2021-10-14,10:18:43,13:23:38,NA,incomplete,false,true,NA,2,20,NA,yellow,n_l_077.jpg,NA,NA,unpleasant,pleasant,NA,NA,NA,NA,NA,left,1773,true,NA,NA,NA,NA,NA
4ozmjj1y,3r0wocg22pm4csvtiwincc3gz22duj,3mrnmeiqw9j3gm6t0kvoa93potjld0,4ozmjj1y,2020-0188,2021-10-14,10:18:43,13:23:38,NA,incomplete,false,true,NA,2,21,NA,yellow,n_l_011.jpg,NA,NA,pleasant,unpleasant,NA,NA,NA,NA,NA,right,1233,true,NA,NA,NA,NA,NA
4ozmjj1y,3r0wocg22pm4csvtiwincc3gz22duj,3mrnmeiqw9j3gm6t0kvoa93potjld0,4ozmjj1y,2020-0188,2021-10-14,10:18:43,13:23:38,NA,incomplete,false,true,NA,2,22,NA,yellow,m_s_108.jpg,NA,NA,pleasant,unpleasant,NA,NA,NA,NA,NA,left,1352,true,NA,NA,NA,NA,NA
4ozmjj1y,3r0wocg22pm4csvtiwincc3gz22duj,3mrnmeiqw9j3gm6t0kvoa93potjld0,4ozmjj1y,2020-0188,2021-10-14,10:18:43,13:23:38,NA,incomplete,false,true,NA,2,23,NA,yellow,m_l_065.jpg,NA,NA,pleasant,unpleasant,NA,NA,NA,NA,NA,left,1103,true,NA,NA,NA,NA,NA
4ozmjj1y,3r0wocg22pm4csvtiwincc3gz22duj,3mrnmeiqw9j3gm6t0kvoa93potjld0,4ozmjj1y,2020-0188,2021-10-14,10:18:43,13:23:38,NA,incomplete,false,true,NA,2,24,NA,blue,n_l_114.jpg,NA,NA,unpleasant,pleasant,NA,NA,NA,NA,NA,right,1434,true,NA,NA,NA,NA,NA
4ozmjj1y,3r0wocg22pm4csvtiwincc3gz22duj,3mrnmeiqw9j3gm6t0kvoa93potjld0,4ozmjj1y,2020-0188,2021-10-14,10:18:43,13:23:38,NA,incomplete,false,true,NA,2,25,NA,blue,n_l_018.jpg,NA,NA,pleasant,unpleasant,NA,NA,NA,NA,NA,left,1654,true,NA,NA,NA,NA,NA
4ozmjj1y,3r0wocg22pm4csvtiwincc3gz22duj,3mrnmeiqw9j3gm6t0kvoa93potjld0,4ozmjj1y,2020-0188,2021-10-14,10:18:43,13:23:38,NA,incomplete,false,true,NA,2,26,NA,blue,n_l_084.jpg,NA,NA,unpleasant,pleasant,NA,NA,NA,NA,NA,left,1538,true,NA,NA,NA,NA,NA
4ozmjj1y,3r0wocg22pm4csvtiwincc3gz22duj,3mrnmeiqw9j3gm6t0kvoa93potjld0,4ozmjj1y,2020-0188,2021-10-14,10:18:43,13:23:38,NA,incomplete,false,true,NA,2,27,NA,blue,m_s_076.jpg,NA,NA,unpleasant,pleasant,NA,NA,NA,NA,NA,right,1713,true,NA,NA,NA,NA,NA
4ozmjj1y,3r0wocg22pm4csvtiwincc3gz22duj,3mrnmeiqw9j3gm6t0kvoa93potjld0,4ozmjj1y,2020-0188,2021-10-14,10:18:43,13:23:38,NA,incomplete,false,true,NA,2,28,NA,blue,n_l_054.jpg,NA,NA,pleasant,unpleasant,NA,NA,NA,NA,NA,left,1473,true,NA,NA,NA,NA,NA
4ozmjj1y,3r0wocg22pm4csvtiwincc3gz22duj,3mrnmeiqw9j3gm6t0kvoa93potjld0,4ozmjj1y,2020-0188,2021-10-14,10:18:43,13:23:38,NA,incomplete,false,true,NA,2,29,NA,blue,n_s_094.jpg,NA,NA,unpleasant,pleasant,NA,NA,NA,NA,NA,left,1323,true,NA,NA,NA,NA,NA
4ozmjj1y,3r0wocg22pm4csvtiwincc3gz22duj,3mrnmeiqw9j3gm6t0kvoa93potjld0,4ozmjj1y,2020-0188,2021-10-14,10:18:43,13:23:38,NA,incomplete,false,true,NA,2,30,NA,brown,n_l_104.jpg,NA,NA,pleasant,unpleasant,NA,NA,NA,NA,NA,right,1780,true,NA,NA,NA,NA,NA
4ozmjj1y,3r0wocg22pm4csvtiwincc3gz22duj,3mrnmeiqw9j3gm6t0kvoa93potjld0,4ozmjj1y,2020-0188,2021-10-14,10:18:43,13:23:38,NA,incomplete,false,true,NA,2,31,NA,brown,m_s_099.jpg,NA,NA,pleasant,unpleasant,NA,NA,NA,NA,NA,left,1743,true,NA,NA,NA,NA,NA
4ozmjj1y,3r0wocg22pm4csvtiwincc3gz22duj,3mrnmeiqw9j3gm6t0kvoa93potjld0,4ozmjj1y,2020-0188,2021-10-14,10:18:43,13:23:38,NA,incomplete,false,true,NA,2,32,NA,brown,n_l_003.jpg,NA,NA,pleasant,unpleasant,NA,NA,NA,NA,NA,left,1503,true,NA,NA,NA,NA,NA
4ozmjj1y,3r0wocg22pm4csvtiwincc3gz22duj,3mrnmeiqw9j3gm6t0kvoa93potjld0,4ozmjj1y,2020-0188,2021-10-14,10:18:43,13:23:38,NA,incomplete,false,true,NA,2,33,NA,brown,n_l_027.jpg,NA,NA,unpleasant,pleasant,NA,NA,NA,NA,NA,left,1874,true,NA,NA,NA,NA,NA
4ozmjj1y,3r0wocg22pm4csvtiwincc3gz22duj,3mrnmeiqw9j3gm6t0kvoa93potjld0,4ozmjj1y,2020-0188,2021-10-14,10:18:43,13:23:38,NA,incomplete,false,true,NA,2,34,NA,brown,m_s_025.jpg,NA,NA,pleasant,unpleasant,NA,NA,NA,NA,NA,left,1534,true,NA,NA,NA,NA,NA
4ozmjj1y,3r0wocg22pm4csvtiwincc3gz22duj,3mrnmeiqw9j3gm6t0kvoa93potjld0,4ozmjj1y,2020-0188,2021-10-14,10:18:43,13:23:38,NA,incomplete,false,true,NA,2,35,NA,brown,m_s_053.jpg,NA,NA,pleasant,unpleasant,NA,NA,NA,NA,NA,left,1703,true,NA,NA,NA,NA,NA
4ozmjj1y,3r0wocg22pm4csvtiwincc3gz22duj,3mrnmeiqw9j3gm6t0kvoa93potjld0,4ozmjj1y,2020-0188,2021-10-14,10:18:43,13:23:38,NA,incomplete,false,NA,true,2,0,NA,NA,NA,right,present,NA,NA,n_s_054.jpg,purple,n_s_082.jpg,purple,within,NA,NaN,NA,right,4164,1,1,1919
4ozmjj1y,3r0wocg22pm4csvtiwincc3gz22duj,3mrnmeiqw9j3gm6t0kvoa93potjld0,4ozmjj1y,2020-0188,2021-10-14,10:18:43,13:23:38,NA,incomplete,false,NA,true,2,1,NA,NA,NA,left,present,NA,NA,n_l_054.jpg,blue,n_l_003.jpg,brown,between,NA,NaN,NA,left,2528,1,1,1782
4ozmjj1y,3r0wocg22pm4csvtiwincc3gz22duj,3mrnmeiqw9j3gm6t0kvoa93potjld0,4ozmjj1y,2020-0188,2021-10-14,10:18:43,13:23:38,NA,incomplete,false,NA,true,2,2,NA,NA,NA,left,present,NA,NA,n_l_018.jpg,blue,n_s_094.jpg,blue,within,NA,NaN,NA,left,3761,1,1,1716
4ozmjj1y,3r0wocg22pm4csvtiwincc3gz22duj,3mrnmeiqw9j3gm6t0kvoa93potjld0,4ozmjj1y,2020-0188,2021-10-14,10:18:43,13:23:38,NA,incomplete,false,NA,true,2,3,NA,NA,NA,right,present,NA,NA,m_s_012.jpg,green,n_s_023.jpg,purple,between,NA,NaN,NA,right,2875,1,1,1502
4ozmjj1y,3r0wocg22pm4csvtiwincc3gz22duj,3mrnmeiqw9j3gm6t0kvoa93potjld0,4ozmjj1y,2020-0188,2021-10-14,10:18:43,13:23:38,NA,incomplete,false,NA,true,2,4,NA,NA,NA,left,present,NA,NA,n_l_037.jpg,black,n_s_038.jpg,black,within,NA,NaN,NA,left,3533,1,1,1739
4ozmjj1y,3r0wocg22pm4csvtiwincc3gz22duj,3mrnmeiqw9j3gm6t0kvoa93potjld0,4ozmjj1y,2020-0188,2021-10-14,10:18:43,13:23:38,NA,incomplete,false,NA,true,2,5,NA,NA,NA,left,present,NA,NA,m_s_108.jpg,yellow,n_l_084.jpg,blue,between,NA,NaN,NA,left,7162,1,1,6070
4ozmjj1y,3r0wocg22pm4csvtiwincc3gz22duj,3mrnmeiqw9j3gm6t0kvoa93potjld0,4ozmjj1y,2020-0188,2021-10-14,10:18:43,13:23:38,NA,incomplete,false,NA,true,2,6,NA,NA,NA,left,present,NA,NA,n_s_036.jpg,green,n_s_096.jpg,green,within,NA,NaN,NA,left,4130,1,1,1844
4ozmjj1y,3r0wocg22pm4csvtiwincc3gz22duj,3mrnmeiqw9j3gm6t0kvoa93potjld0,4ozmjj1y,2020-0188,2021-10-14,10:18:43,13:23:38,NA,incomplete,false,NA,true,2,7,NA,NA,NA,right,present,NA,NA,n_l_106.jpg,black,n_l_075.jpg,green,between,NA,NaN,NA,right,3920,1,1,1848
4ozmjj1y,3r0wocg22pm4csvtiwincc3gz22duj,3mrnmeiqw9j3gm6t0kvoa93potjld0,4ozmjj1y,2020-0188,2021-10-14,10:18:43,13:23:38,NA,incomplete,false,NA,true,2,8,NA,NA,NA,left,present,NA,NA,m_s_099.jpg,brown,m_s_053.jpg,brown,within,NA,NaN,NA,right,3465,0,0,1229
4ozmjj1y,3r0wocg22pm4csvtiwincc3gz22duj,3mrnmeiqw9j3gm6t0kvoa93potjld0,4ozmjj1y,2020-0188,2021-10-14,10:18:43,13:23:38,NA,incomplete,false,NA,true,2,9,NA,NA,NA,right,present,NA,NA,n_l_077.jpg,yellow,m_s_075.jpg,black,between,NA,NaN,NA,right,2968,1,1,1527
4ozmjj1y,3r0wocg22pm4csvtiwincc3gz22duj,3mrnmeiqw9j3gm6t0kvoa93potjld0,4ozmjj1y,2020-0188,2021-10-14,10:18:43,13:23:38,NA,incomplete,false,NA,true,2,10,NA,NA,NA,left,present,NA,NA,m_l_108.jpg,yellow,m_l_065.jpg,yellow,within,NA,NaN,NA,right,3688,0,0,1616
4ozmjj1y,3r0wocg22pm4csvtiwincc3gz22duj,3mrnmeiqw9j3gm6t0kvoa93potjld0,4ozmjj1y,2020-0188,2021-10-14,10:18:43,13:23:38,NA,incomplete,false,true,NA,3,0,NA,purple,n_s_056.jpg,NA,NA,pleasant,unpleasant,NA,NA,NA,NA,NA,left,2687,true,NA,NA,NA,NA,NA
4ozmjj1y,3r0wocg22pm4csvtiwincc3gz22duj,3mrnmeiqw9j3gm6t0kvoa93potjld0,4ozmjj1y,2020-0188,2021-10-14,10:18:43,13:23:38,NA,incomplete,false,true,NA,3,1,NA,purple,m_s_091.jpg,NA,NA,unpleasant,pleasant,NA,NA,NA,NA,NA,right,1642,true,NA,NA,NA,NA,NA
4ozmjj1y,3r0wocg22pm4csvtiwincc3gz22duj,3mrnmeiqw9j3gm6t0kvoa93potjld0,4ozmjj1y,2020-0188,2021-10-14,10:18:43,13:23:38,NA,incomplete,false,true,NA,3,2,NA,purple,m_s_115.jpg,NA,NA,unpleasant,pleasant,NA,NA,NA,NA,NA,right,1318,true,NA,NA,NA,NA,NA
4ozmjj1y,3r0wocg22pm4csvtiwincc3gz22duj,3mrnmeiqw9j3gm6t0kvoa93potjld0,4ozmjj1y,2020-0188,2021-10-14,10:18:43,13:23:38,NA,incomplete,false,true,NA,3,3,NA,purple,n_s_057.jpg,NA,NA,pleasant,unpleasant,NA,NA,NA,NA,NA,right,2509,true,NA,NA,NA,NA,NA
4ozmjj1y,3r0wocg22pm4csvtiwincc3gz22duj,3mrnmeiqw9j3gm6t0kvoa93potjld0,4ozmjj1y,2020-0188,2021-10-14,10:18:43,13:23:38,NA,incomplete,false,true,NA,3,4,NA,purple,m_l_094.jpg,NA,NA,pleasant,unpleasant,NA,NA,NA,NA,NA,right,2146,true,NA,NA,NA,NA,NA
4ozmjj1y,3r0wocg22pm4csvtiwincc3gz22duj,3mrnmeiqw9j3gm6t0kvoa93potjld0,4ozmjj1y,2020-0188,2021-10-14,10:18:43,13:23:38,NA,incomplete,false,true,NA,3,5,NA,purple,m_l_075.jpg,NA,NA,unpleasant,pleasant,NA,NA,NA,NA,NA,right,1410,true,NA,NA,NA,NA,NA
4ozmjj1y,3r0wocg22pm4csvtiwincc3gz22duj,3mrnmeiqw9j3gm6t0kvoa93potjld0,4ozmjj1y,2020-0188,2021-10-14,10:18:43,13:23:38,NA,incomplete,false,true,NA,3,6,NA,brown,n_s_040.jpg,NA,NA,unpleasant,pleasant,NA,NA,NA,NA,NA,left,1953,true,NA,NA,NA,NA,NA
4ozmjj1y,3r0wocg22pm4csvtiwincc3gz22duj,3mrnmeiqw9j3gm6t0kvoa93potjld0,4ozmjj1y,2020-0188,2021-10-14,10:18:43,13:23:38,NA,incomplete,false,true,NA,3,7,NA,brown,n_l_057.jpg,NA,NA,unpleasant,pleasant,NA,NA,NA,NA,NA,left,2774,true,NA,NA,NA,NA,NA
4ozmjj1y,3r0wocg22pm4csvtiwincc3gz22duj,3mrnmeiqw9j3gm6t0kvoa93potjld0,4ozmjj1y,2020-0188,2021-10-14,10:18:43,13:23:38,NA,incomplete,false,true,NA,3,8,NA,brown,n_l_110.jpg,NA,NA,pleasant,unpleasant,NA,NA,NA,NA,NA,left,2619,true,NA,NA,NA,NA,NA
4ozmjj1y,3r0wocg22pm4csvtiwincc3gz22duj,3mrnmeiqw9j3gm6t0kvoa93potjld0,4ozmjj1y,2020-0188,2021-10-14,10:18:43,13:23:38,NA,incomplete,false,true,NA,3,9,NA,brown,n_s_089.jpg,NA,NA,pleasant,unpleasant,NA,NA,NA,NA,NA,right,1677,true,NA,NA,NA,NA,NA
4ozmjj1y,3r0wocg22pm4csvtiwincc3gz22duj,3mrnmeiqw9j3gm6t0kvoa93potjld0,4ozmjj1y,2020-0188,2021-10-14,10:18:43,13:23:38,NA,incomplete,false,true,NA,3,10,NA,brown,n_l_044.jpg,NA,NA,unpleasant,pleasant,NA,NA,NA,NA,NA,right,1268,true,NA,NA,NA,NA,NA
4ozmjj1y,3r0wocg22pm4csvtiwincc3gz22duj,3mrnmeiqw9j3gm6t0kvoa93potjld0,4ozmjj1y,2020-0188,2021-10-14,10:18:43,13:23:38,NA,incomplete,false,true,NA,3,11,NA,brown,m_s_003.jpg,NA,NA,pleasant,unpleasant,NA,NA,NA,NA,NA,right,1437,true,NA,NA,NA,NA,NA
4ozmjj1y,3r0wocg22pm4csvtiwincc3gz22duj,3mrnmeiqw9j3gm6t0kvoa93potjld0,4ozmjj1y,2020-0188,2021-10-14,10:18:43,13:23:38,NA,incomplete,false,true,NA,3,12,NA,gray,n_s_009.jpg,NA,NA,unpleasant,pleasant,NA,NA,NA,NA,NA,right,1368,true,NA,NA,NA,NA,NA
4ozmjj1y,3r0wocg22pm4csvtiwincc3gz22duj,3mrnmeiqw9j3gm6t0kvoa93potjld0,4ozmjj1y,2020-0188,2021-10-14,10:18:43,13:23:38,NA,incomplete,false,true,NA,3,13,NA,gray,m_s_007.jpg,NA,NA,unpleasant,pleasant,NA,NA,NA,NA,NA,right,1328,true,NA,NA,NA,NA,NA
4ozmjj1y,3r0wocg22pm4csvtiwincc3gz22duj,3mrnmeiqw9j3gm6t0kvoa93potjld0,4ozmjj1y,2020-0188,2021-10-14,10:18:43,13:23:38,NA,incomplete,false,true,NA,3,14,NA,gray,m_s_005.jpg,NA,NA,pleasant,unpleasant,NA,NA,NA,NA,NA,left,1609,true,NA,NA,NA,NA,NA
4ozmjj1y,3r0wocg22pm4csvtiwincc3gz22duj,3mrnmeiqw9j3gm6t0kvoa93potjld0,4ozmjj1y,2020-0188,2021-10-14,10:18:43,13:23:38,NA,incomplete,false,true,NA,3,15,NA,gray,m_l_109.jpg,NA,NA,pleasant,unpleasant,NA,NA,NA,NA,NA,left,1468,true,NA,NA,NA,NA,NA
4ozmjj1y,3r0wocg22pm4csvtiwincc3gz22duj,3mrnmeiqw9j3gm6t0kvoa93potjld0,4ozmjj1y,2020-0188,2021-10-14,10:18:43,13:23:38,NA,incomplete,false,true,NA,3,16,NA,gray,m_s_061.jpg,NA,NA,unpleasant,pleasant,NA,NA,NA,NA,NA,left,1531,true,NA,NA,NA,NA,NA
4ozmjj1y,3r0wocg22pm4csvtiwincc3gz22duj,3mrnmeiqw9j3gm6t0kvoa93potjld0,4ozmjj1y,2020-0188,2021-10-14,10:18:43,13:23:38,NA,incomplete,false,true,NA,3,17,NA,gray,m_l_107.jpg,NA,NA,unpleasant,pleasant,NA,NA,NA,NA,NA,right,1343,true,NA,NA,NA,NA,NA
4ozmjj1y,3r0wocg22pm4csvtiwincc3gz22duj,3mrnmeiqw9j3gm6t0kvoa93potjld0,4ozmjj1y,2020-0188,2021-10-14,10:18:43,13:23:38,NA,incomplete,false,true,NA,3,18,NA,white,m_s_089.jpg,NA,NA,unpleasant,pleasant,NA,NA,NA,NA,NA,right,1151,true,NA,NA,NA,NA,NA
4ozmjj1y,3r0wocg22pm4csvtiwincc3gz22duj,3mrnmeiqw9j3gm6t0kvoa93potjld0,4ozmjj1y,2020-0188,2021-10-14,10:18:43,13:23:38,NA,incomplete,false,true,NA,3,19,NA,white,m_s_013.jpg,NA,NA,unpleasant,pleasant,NA,NA,NA,NA,NA,right,1453,true,NA,NA,NA,NA,NA
4ozmjj1y,3r0wocg22pm4csvtiwincc3gz22duj,3mrnmeiqw9j3gm6t0kvoa93potjld0,4ozmjj1y,2020-0188,2021-10-14,10:18:43,13:23:38,NA,incomplete,false,true,NA,3,20,NA,white,n_l_089.jpg,NA,NA,unpleasant,pleasant,NA,NA,NA,NA,NA,right,2373,true,NA,NA,NA,NA,NA
4ozmjj1y,3r0wocg22pm4csvtiwincc3gz22duj,3mrnmeiqw9j3gm6t0kvoa93potjld0,4ozmjj1y,2020-0188,2021-10-14,10:18:43,13:23:38,NA,incomplete,false,true,NA,3,21,NA,white,m_s_096.jpg,NA,NA,unpleasant,pleasant,NA,NA,NA,NA,NA,right,1684,true,NA,NA,NA,NA,NA
4ozmjj1y,3r0wocg22pm4csvtiwincc3gz22duj,3mrnmeiqw9j3gm6t0kvoa93potjld0,4ozmjj1y,2020-0188,2021-10-14,10:18:43,13:23:38,NA,incomplete,false,true,NA,3,22,NA,white,m_l_017.jpg,NA,NA,unpleasant,pleasant,NA,NA,NA,NA,NA,right,2286,true,NA,NA,NA,NA,NA
4ozmjj1y,3r0wocg22pm4csvtiwincc3gz22duj,3mrnmeiqw9j3gm6t0kvoa93potjld0,4ozmjj1y,2020-0188,2021-10-14,10:18:43,13:23:38,NA,incomplete,false,true,NA,3,23,NA,white,n_l_028.jpg,NA,NA,unpleasant,pleasant,NA,NA,NA,NA,NA,right,1687,true,NA,NA,NA,NA,NA
4ozmjj1y,3r0wocg22pm4csvtiwincc3gz22duj,3mrnmeiqw9j3gm6t0kvoa93potjld0,4ozmjj1y,2020-0188,2021-10-14,10:18:43,13:23:38,NA,incomplete,false,true,NA,3,24,NA,red,m_s_087.jpg,NA,NA,unpleasant,pleasant,NA,NA,NA,NA,NA,right,1270,true,NA,NA,NA,NA,NA
4ozmjj1y,3r0wocg22pm4csvtiwincc3gz22duj,3mrnmeiqw9j3gm6t0kvoa93potjld0,4ozmjj1y,2020-0188,2021-10-14,10:18:43,13:23:38,NA,incomplete,false,true,NA,3,25,NA,red,n_s_018.jpg,NA,NA,unpleasant,pleasant,NA,NA,NA,NA,NA,left,1038,true,NA,NA,NA,NA,NA
4ozmjj1y,3r0wocg22pm4csvtiwincc3gz22duj,3mrnmeiqw9j3gm6t0kvoa93potjld0,4ozmjj1y,2020-0188,2021-10-14,10:18:43,13:23:38,NA,incomplete,false,true,NA,3,26,NA,red,m_l_063.jpg,NA,NA,unpleasant,pleasant,NA,NA,NA,NA,NA,right,2128,true,NA,NA,NA,NA,NA
4ozmjj1y,3r0wocg22pm4csvtiwincc3gz22duj,3mrnmeiqw9j3gm6t0kvoa93potjld0,4ozmjj1y,2020-0188,2021-10-14,10:18:43,13:23:38,NA,incomplete,false,true,NA,3,27,NA,red,m_s_056.jpg,NA,NA,unpleasant,pleasant,NA,NA,NA,NA,NA,right,1398,true,NA,NA,NA,NA,NA
4ozmjj1y,3r0wocg22pm4csvtiwincc3gz22duj,3mrnmeiqw9j3gm6t0kvoa93potjld0,4ozmjj1y,2020-0188,2021-10-14,10:18:43,13:23:38,NA,incomplete,false,true,NA,3,28,NA,red,n_s_041.jpg,NA,NA,unpleasant,pleasant,NA,NA,NA,NA,NA,left,1509,true,NA,NA,NA,NA,NA
4ozmjj1y,3r0wocg22pm4csvtiwincc3gz22duj,3mrnmeiqw9j3gm6t0kvoa93potjld0,4ozmjj1y,2020-0188,2021-10-14,10:18:43,13:23:38,NA,incomplete,false,true,NA,3,29,NA,red,m_l_052.jpg,NA,NA,pleasant,unpleasant,NA,NA,NA,NA,NA,right,2154,true,NA,NA,NA,NA,NA
4ozmjj1y,3r0wocg22pm4csvtiwincc3gz22duj,3mrnmeiqw9j3gm6t0kvoa93potjld0,4ozmjj1y,2020-0188,2021-10-14,10:18:43,13:23:38,NA,incomplete,false,true,NA,3,30,NA,blue,m_l_084.jpg,NA,NA,unpleasant,pleasant,NA,NA,NA,NA,NA,left,2561,true,NA,NA,NA,NA,NA
4ozmjj1y,3r0wocg22pm4csvtiwincc3gz22duj,3mrnmeiqw9j3gm6t0kvoa93potjld0,4ozmjj1y,2020-0188,2021-10-14,10:18:43,13:23:38,NA,incomplete,false,true,NA,3,31,NA,blue,m_l_062.jpg,NA,NA,pleasant,unpleasant,NA,NA,NA,NA,NA,left,1786,true,NA,NA,NA,NA,NA
4ozmjj1y,3r0wocg22pm4csvtiwincc3gz22duj,3mrnmeiqw9j3gm6t0kvoa93potjld0,4ozmjj1y,2020-0188,2021-10-14,10:18:43,13:23:38,NA,incomplete,false,true,NA,3,32,NA,blue,m_s_088.jpg,NA,NA,unpleasant,pleasant,NA,NA,NA,NA,NA,right,1411,true,NA,NA,NA,NA,NA
4ozmjj1y,3r0wocg22pm4csvtiwincc3gz22duj,3mrnmeiqw9j3gm6t0kvoa93potjld0,4ozmjj1y,2020-0188,2021-10-14,10:18:43,13:23:38,NA,incomplete,false,true,NA,3,33,NA,blue,n_s_004.jpg,NA,NA,pleasant,unpleasant,NA,NA,NA,NA,NA,right,1582,true,NA,NA,NA,NA,NA
4ozmjj1y,3r0wocg22pm4csvtiwincc3gz22duj,3mrnmeiqw9j3gm6t0kvoa93potjld0,4ozmjj1y,2020-0188,2021-10-14,10:18:43,13:23:38,NA,incomplete,false,true,NA,3,34,NA,blue,m_l_020.jpg,NA,NA,pleasant,unpleasant,NA,NA,NA,NA,NA,left,1848,true,NA,NA,NA,NA,NA
4ozmjj1y,3r0wocg22pm4csvtiwincc3gz22duj,3mrnmeiqw9j3gm6t0kvoa93potjld0,4ozmjj1y,2020-0188,2021-10-14,10:18:43,13:23:38,NA,incomplete,false,true,NA,3,35,NA,blue,m_l_018.jpg,NA,NA,pleasant,unpleasant,NA,NA,NA,NA,NA,left,2373,true,NA,NA,NA,NA,NA
4ozmjj1y,3r0wocg22pm4csvtiwincc3gz22duj,3mrnmeiqw9j3gm6t0kvoa93potjld0,4ozmjj1y,2020-0188,2021-10-14,10:18:43,13:23:38,NA,incomplete,false,NA,true,3,0,NA,NA,NA,left,absent,NA,NA,m_s_061.jpg,gray,n_l_089.jpg,white,between,NA,NaN,NA,right,4649,0,1,1858
4ozmjj1y,3r0wocg22pm4csvtiwincc3gz22duj,3mrnmeiqw9j3gm6t0kvoa93potjld0,4ozmjj1y,2020-0188,2021-10-14,10:18:43,13:23:38,NA,incomplete,false,NA,true,3,1,NA,NA,NA,right,absent,NA,NA,m_s_088.jpg,blue,n_s_041.jpg,red,between,NA,NaN,NA,left,2449,0,1,1668
4ozmjj1y,3r0wocg22pm4csvtiwincc3gz22duj,3mrnmeiqw9j3gm6t0kvoa93potjld0,4ozmjj1y,2020-0188,2021-10-14,10:18:43,13:23:38,NA,incomplete,false,NA,true,3,2,NA,NA,NA,left,absent,NA,NA,n_l_057.jpg,brown,m_s_003.jpg,brown,within,NA,NaN,NA,right,4344,0,0,2250
4ozmjj1y,3r0wocg22pm4csvtiwincc3gz22duj,3mrnmeiqw9j3gm6t0kvoa93potjld0,4ozmjj1y,2020-0188,2021-10-14,10:18:43,13:23:38,NA,incomplete,false,NA,true,3,3,NA,NA,NA,left,absent,NA,NA,m_s_091.jpg,purple,m_l_075.jpg,purple,within,NA,NaN,NA,right,3256,0,0,1678
4ozmjj1y,3r0wocg22pm4csvtiwincc3gz22duj,3mrnmeiqw9j3gm6t0kvoa93potjld0,4ozmjj1y,2020-0188,2021-10-14,10:18:43,13:23:38,NA,incomplete,false,NA,true,3,4,NA,NA,NA,right,absent,NA,NA,m_s_005.jpg,gray,n_l_044.jpg,brown,between,NA,NaN,NA,right,2199,1,0,1217
4ozmjj1y,3r0wocg22pm4csvtiwincc3gz22duj,3mrnmeiqw9j3gm6t0kvoa93potjld0,4ozmjj1y,2020-0188,2021-10-14,10:18:43,13:23:38,NA,incomplete,false,NA,true,3,5,NA,NA,NA,right,absent,NA,NA,n_l_028.jpg,white,m_s_013.jpg,white,within,NA,NaN,NA,left,2950,0,2,1840
4ozmjj1y,3r0wocg22pm4csvtiwincc3gz22duj,3mrnmeiqw9j3gm6t0kvoa93potjld0,4ozmjj1y,2020-0188,2021-10-14,10:18:43,13:23:38,NA,incomplete,false,NA,true,3,6,NA,NA,NA,left,absent,NA,NA,m_l_017.jpg,white,m_l_063.jpg,red,between,NA,NaN,NA,left,1833,1,1,1477
4ozmjj1y,3r0wocg22pm4csvtiwincc3gz22duj,3mrnmeiqw9j3gm6t0kvoa93potjld0,4ozmjj1y,2020-0188,2021-10-14,10:18:43,13:23:38,NA,incomplete,false,NA,true,3,7,NA,NA,NA,left,absent,NA,NA,m_l_062.jpg,blue,m_l_018.jpg,blue,within,NA,NaN,NA,left,1577,1,3,1752
4ozmjj1y,3r0wocg22pm4csvtiwincc3gz22duj,3mrnmeiqw9j3gm6t0kvoa93potjld0,4ozmjj1y,2020-0188,2021-10-14,10:18:43,13:23:38,NA,incomplete,false,NA,true,3,8,NA,NA,NA,right,absent,NA,NA,n_l_110.jpg,brown,m_l_094.jpg,purple,between,NA,NaN,NA,left,1840,0,1,1580
4ozmjj1y,3r0wocg22pm4csvtiwincc3gz22duj,3mrnmeiqw9j3gm6t0kvoa93potjld0,4ozmjj1y,2020-0188,2021-10-14,10:18:43,13:23:38,NA,incomplete,false,NA,true,3,9,NA,NA,NA,left,absent,NA,NA,n_s_018.jpg,red,m_l_052.jpg,red,within,NA,NaN,NA,left,1648,1,1,1571
4ozmjj1y,3r0wocg22pm4csvtiwincc3gz22duj,3mrnmeiqw9j3gm6t0kvoa93potjld0,4ozmjj1y,2020-0188,2021-10-14,10:18:43,13:23:38,NA,incomplete,false,NA,true,3,10,NA,NA,NA,left,absent,NA,NA,m_s_007.jpg,gray,m_l_107.jpg,gray,within,NA,NaN,NA,left,1879,1,2,1810
4ozmjj1y,3r0wocg22pm4csvtiwincc3gz22duj,3mrnmeiqw9j3gm6t0kvoa93potjld0,4ozmjj1y,2020-0188,2021-10-14,10:18:43,13:23:38,NA,incomplete,false,true,NA,4,0,NA,blue,n_s_093.jpg,NA,NA,unpleasant,pleasant,NA,NA,NA,NA,NA,left,2453,true,NA,NA,NA,NA,NA
4ozmjj1y,3r0wocg22pm4csvtiwincc3gz22duj,3mrnmeiqw9j3gm6t0kvoa93potjld0,4ozmjj1y,2020-0188,2021-10-14,10:18:43,13:23:38,NA,incomplete,false,true,NA,4,1,NA,blue,m_l_077.jpg,NA,NA,unpleasant,pleasant,NA,NA,NA,NA,NA,right,1467,true,NA,NA,NA,NA,NA
4ozmjj1y,3r0wocg22pm4csvtiwincc3gz22duj,3mrnmeiqw9j3gm6t0kvoa93potjld0,4ozmjj1y,2020-0188,2021-10-14,10:18:43,13:23:38,NA,incomplete,false,true,NA,4,2,NA,blue,m_l_082.jpg,NA,NA,unpleasant,pleasant,NA,NA,NA,NA,NA,left,1331,true,NA,NA,NA,NA,NA
4ozmjj1y,3r0wocg22pm4csvtiwincc3gz22duj,3mrnmeiqw9j3gm6t0kvoa93potjld0,4ozmjj1y,2020-0188,2021-10-14,10:18:43,13:23:38,NA,incomplete,false,true,NA,4,3,NA,blue,m_s_074.jpg,NA,NA,pleasant,unpleasant,NA,NA,NA,NA,NA,left,1419,true,NA,NA,NA,NA,NA
4ozmjj1y,3r0wocg22pm4csvtiwincc3gz22duj,3mrnmeiqw9j3gm6t0kvoa93potjld0,4ozmjj1y,2020-0188,2021-10-14,10:18:43,13:23:38,NA,incomplete,false,true,NA,4,4,NA,blue,n_l_074.jpg,NA,NA,unpleasant,pleasant,NA,NA,NA,NA,NA,right,1509,true,NA,NA,NA,NA,NA
4ozmjj1y,3r0wocg22pm4csvtiwincc3gz22duj,3mrnmeiqw9j3gm6t0kvoa93potjld0,4ozmjj1y,2020-0188,2021-10-14,10:18:43,13:23:38,NA,incomplete,false,true,NA,4,5,NA,blue,n_l_091.jpg,NA,NA,unpleasant,pleasant,NA,NA,NA,NA,NA,right,1159,true,NA,NA,NA,NA,NA
4ozmjj1y,3r0wocg22pm4csvtiwincc3gz22duj,3mrnmeiqw9j3gm6t0kvoa93potjld0,4ozmjj1y,2020-0188,2021-10-14,10:18:43,13:23:38,NA,incomplete,false,true,NA,4,6,NA,purple,n_s_083.jpg,NA,NA,unpleasant,pleasant,NA,NA,NA,NA,NA,right,1228,true,NA,NA,NA,NA,NA
4ozmjj1y,3r0wocg22pm4csvtiwincc3gz22duj,3mrnmeiqw9j3gm6t0kvoa93potjld0,4ozmjj1y,2020-0188,2021-10-14,10:18:43,13:23:38,NA,incomplete,false,true,NA,4,7,NA,purple,m_l_098.jpg,NA,NA,pleasant,unpleasant,NA,NA,NA,NA,NA,left,1303,true,NA,NA,NA,NA,NA
4ozmjj1y,3r0wocg22pm4csvtiwincc3gz22duj,3mrnmeiqw9j3gm6t0kvoa93potjld0,4ozmjj1y,2020-0188,2021-10-14,10:18:43,13:23:38,NA,incomplete,false,true,NA,4,8,NA,purple,n_s_102.jpg,NA,NA,pleasant,unpleasant,NA,NA,NA,NA,NA,left,1139,true,NA,NA,NA,NA,NA
4ozmjj1y,3r0wocg22pm4csvtiwincc3gz22duj,3mrnmeiqw9j3gm6t0kvoa93potjld0,4ozmjj1y,2020-0188,2021-10-14,10:18:43,13:23:38,NA,incomplete,false,true,NA,4,9,NA,purple,m_l_029.jpg,NA,NA,pleasant,unpleasant,NA,NA,NA,NA,NA,left,968,true,NA,NA,NA,NA,NA
4ozmjj1y,3r0wocg22pm4csvtiwincc3gz22duj,3mrnmeiqw9j3gm6t0kvoa93potjld0,4ozmjj1y,2020-0188,2021-10-14,10:18:43,13:23:38,NA,incomplete,false,true,NA,4,10,NA,purple,n_l_092.jpg,NA,NA,unpleasant,pleasant,NA,NA,NA,NA,NA,right,1604,true,NA,NA,NA,NA,NA
4ozmjj1y,3r0wocg22pm4csvtiwincc3gz22duj,3mrnmeiqw9j3gm6t0kvoa93potjld0,4ozmjj1y,2020-0188,2021-10-14,10:18:43,13:23:38,NA,incomplete,false,true,NA,4,11,NA,purple,m_s_041.jpg,NA,NA,unpleasant,pleasant,NA,NA,NA,NA,NA,right,1818,true,NA,NA,NA,NA,NA
4ozmjj1y,3r0wocg22pm4csvtiwincc3gz22duj,3mrnmeiqw9j3gm6t0kvoa93potjld0,4ozmjj1y,2020-0188,2021-10-14,10:18:43,13:23:38,NA,incomplete,false,true,NA,4,12,NA,black,n_s_101.jpg,NA,NA,pleasant,unpleasant,NA,NA,NA,NA,NA,right,1588,true,NA,NA,NA,NA,NA
4ozmjj1y,3r0wocg22pm4csvtiwincc3gz22duj,3mrnmeiqw9j3gm6t0kvoa93potjld0,4ozmjj1y,2020-0188,2021-10-14,10:18:43,13:23:38,NA,incomplete,false,true,NA,4,13,NA,black,n_s_106.jpg,NA,NA,pleasant,unpleasant,NA,NA,NA,NA,NA,left,1392,true,NA,NA,NA,NA,NA
4ozmjj1y,3r0wocg22pm4csvtiwincc3gz22duj,3mrnmeiqw9j3gm6t0kvoa93potjld0,4ozmjj1y,2020-0188,2021-10-14,10:18:43,13:23:38,NA,incomplete,false,true,NA,4,14,NA,black,m_s_070.jpg,NA,NA,pleasant,unpleasant,NA,NA,NA,NA,NA,right,2529,true,NA,NA,NA,NA,NA
4ozmjj1y,3r0wocg22pm4csvtiwincc3gz22duj,3mrnmeiqw9j3gm6t0kvoa93potjld0,4ozmjj1y,2020-0188,2021-10-14,10:18:43,13:23:38,NA,incomplete,false,true,NA,4,15,NA,black,m_s_021.jpg,NA,NA,pleasant,unpleasant,NA,NA,NA,NA,NA,right,1581,true,NA,NA,NA,NA,NA
4ozmjj1y,3r0wocg22pm4csvtiwincc3gz22duj,3mrnmeiqw9j3gm6t0kvoa93potjld0,4ozmjj1y,2020-0188,2021-10-14,10:18:43,13:23:38,NA,incomplete,false,true,NA,4,16,NA,black,m_s_033.jpg,NA,NA,unpleasant,pleasant,NA,NA,NA,NA,NA,right,1173,true,NA,NA,NA,NA,NA
4ozmjj1y,3r0wocg22pm4csvtiwincc3gz22duj,3mrnmeiqw9j3gm6t0kvoa93potjld0,4ozmjj1y,2020-0188,2021-10-14,10:18:43,13:23:38,NA,incomplete,false,true,NA,4,17,NA,black,m_s_064.jpg,NA,NA,pleasant,unpleasant,NA,NA,NA,NA,NA,left,1693,true,NA,NA,NA,NA,NA
4ozmjj1y,3r0wocg22pm4csvtiwincc3gz22duj,3mrnmeiqw9j3gm6t0kvoa93potjld0,4ozmjj1y,2020-0188,2021-10-14,10:18:43,13:23:38,NA,incomplete,false,true,NA,4,18,NA,green,m_l_079.jpg,NA,NA,pleasant,unpleasant,NA,NA,NA,NA,NA,right,1424,true,NA,NA,NA,NA,NA
4ozmjj1y,3r0wocg22pm4csvtiwincc3gz22duj,3mrnmeiqw9j3gm6t0kvoa93potjld0,4ozmjj1y,2020-0188,2021-10-14,10:18:43,13:23:38,NA,incomplete,false,true,NA,4,19,NA,green,n_l_055.jpg,NA,NA,pleasant,unpleasant,NA,NA,NA,NA,NA,left,1835,true,NA,NA,NA,NA,NA
4ozmjj1y,3r0wocg22pm4csvtiwincc3gz22duj,3mrnmeiqw9j3gm6t0kvoa93potjld0,4ozmjj1y,2020-0188,2021-10-14,10:18:43,13:23:38,NA,incomplete,false,true,NA,4,20,NA,green,n_l_059.jpg,NA,NA,pleasant,unpleasant,NA,NA,NA,NA,NA,right,1323,true,NA,NA,NA,NA,NA
4ozmjj1y,3r0wocg22pm4csvtiwincc3gz22duj,3mrnmeiqw9j3gm6t0kvoa93potjld0,4ozmjj1y,2020-0188,2021-10-14,10:18:43,13:23:38,NA,incomplete,false,true,NA,4,21,NA,green,m_l_047.jpg,NA,NA,unpleasant,pleasant,NA,NA,NA,NA,NA,right,2388,true,NA,NA,NA,NA,NA
4ozmjj1y,3r0wocg22pm4csvtiwincc3gz22duj,3mrnmeiqw9j3gm6t0kvoa93potjld0,4ozmjj1y,2020-0188,2021-10-14,10:18:43,13:23:38,NA,incomplete,false,true,NA,4,22,NA,green,m_l_116.jpg,NA,NA,pleasant,unpleasant,NA,NA,NA,NA,NA,left,1724,true,NA,NA,NA,NA,NA
4ozmjj1y,3r0wocg22pm4csvtiwincc3gz22duj,3mrnmeiqw9j3gm6t0kvoa93potjld0,4ozmjj1y,2020-0188,2021-10-14,10:18:43,13:23:38,NA,incomplete,false,true,NA,4,23,NA,green,m_l_090.jpg,NA,NA,pleasant,unpleasant,NA,NA,NA,NA,NA,left,1337,true,NA,NA,NA,NA,NA
4ozmjj1y,3r0wocg22pm4csvtiwincc3gz22duj,3mrnmeiqw9j3gm6t0kvoa93potjld0,4ozmjj1y,2020-0188,2021-10-14,10:18:43,13:23:38,NA,incomplete,false,true,NA,4,24,NA,orange,m_s_090.jpg,NA,NA,pleasant,unpleasant,NA,NA,NA,NA,NA,left,1098,true,NA,NA,NA,NA,NA
4ozmjj1y,3r0wocg22pm4csvtiwincc3gz22duj,3mrnmeiqw9j3gm6t0kvoa93potjld0,4ozmjj1y,2020-0188,2021-10-14,10:18:43,13:23:38,NA,incomplete,false,true,NA,4,25,NA,orange,n_s_109.jpg,NA,NA,pleasant,unpleasant,NA,NA,NA,NA,NA,right,1407,true,NA,NA,NA,NA,NA
4ozmjj1y,3r0wocg22pm4csvtiwincc3gz22duj,3mrnmeiqw9j3gm6t0kvoa93potjld0,4ozmjj1y,2020-0188,2021-10-14,10:18:43,13:23:38,NA,incomplete,false,true,NA,4,26,NA,orange,m_l_081.jpg,NA,NA,unpleasant,pleasant,NA,NA,NA,NA,NA,right,1358,true,NA,NA,NA,NA,NA
4ozmjj1y,3r0wocg22pm4csvtiwincc3gz22duj,3mrnmeiqw9j3gm6t0kvoa93potjld0,4ozmjj1y,2020-0188,2021-10-14,10:18:43,13:23:38,NA,incomplete,false,true,NA,4,27,NA,orange,n_s_077.jpg,NA,NA,pleasant,unpleasant,NA,NA,NA,NA,NA,left,1448,true,NA,NA,NA,NA,NA
4ozmjj1y,3r0wocg22pm4csvtiwincc3gz22duj,3mrnmeiqw9j3gm6t0kvoa93potjld0,4ozmjj1y,2020-0188,2021-10-14,10:18:43,13:23:38,NA,incomplete,false,true,NA,4,28,NA,orange,m_l_067.jpg,NA,NA,pleasant,unpleasant,NA,NA,NA,NA,NA,left,1232,true,NA,NA,NA,NA,NA
4ozmjj1y,3r0wocg22pm4csvtiwincc3gz22duj,3mrnmeiqw9j3gm6t0kvoa93potjld0,4ozmjj1y,2020-0188,2021-10-14,10:18:43,13:23:38,NA,incomplete,false,true,NA,4,29,NA,orange,n_s_021.jpg,NA,NA,pleasant,unpleasant,NA,NA,NA,NA,NA,right,1223,true,NA,NA,NA,NA,NA
4ozmjj1y,3r0wocg22pm4csvtiwincc3gz22duj,3mrnmeiqw9j3gm6t0kvoa93potjld0,4ozmjj1y,2020-0188,2021-10-14,10:18:43,13:23:38,NA,incomplete,false,true,NA,4,30,NA,yellow,m_l_044.jpg,NA,NA,unpleasant,pleasant,NA,NA,NA,NA,NA,right,1487,true,NA,NA,NA,NA,NA
4ozmjj1y,3r0wocg22pm4csvtiwincc3gz22duj,3mrnmeiqw9j3gm6t0kvoa93potjld0,4ozmjj1y,2020-0188,2021-10-14,10:18:43,13:23:38,NA,incomplete,false,true,NA,4,31,NA,yellow,n_l_021.jpg,NA,NA,unpleasant,pleasant,NA,NA,NA,NA,NA,right,1249,true,NA,NA,NA,NA,NA
4ozmjj1y,3r0wocg22pm4csvtiwincc3gz22duj,3mrnmeiqw9j3gm6t0kvoa93potjld0,4ozmjj1y,2020-0188,2021-10-14,10:18:43,13:23:38,NA,incomplete,false,true,NA,4,32,NA,yellow,m_l_023.jpg,NA,NA,pleasant,unpleasant,NA,NA,NA,NA,NA,left,1285,true,NA,NA,NA,NA,NA
4ozmjj1y,3r0wocg22pm4csvtiwincc3gz22duj,3mrnmeiqw9j3gm6t0kvoa93potjld0,4ozmjj1y,2020-0188,2021-10-14,10:18:43,13:23:38,NA,incomplete,false,true,NA,4,33,NA,yellow,n_l_087.jpg,NA,NA,unpleasant,pleasant,NA,NA,NA,NA,NA,right,1000,true,NA,NA,NA,NA,NA
4ozmjj1y,3r0wocg22pm4csvtiwincc3gz22duj,3mrnmeiqw9j3gm6t0kvoa93potjld0,4ozmjj1y,2020-0188,2021-10-14,10:18:43,13:23:38,NA,incomplete,false,true,NA,4,34,NA,yellow,m_l_112.jpg,NA,NA,unpleasant,pleasant,NA,NA,NA,NA,NA,right,1179,true,NA,NA,NA,NA,NA
4ozmjj1y,3r0wocg22pm4csvtiwincc3gz22duj,3mrnmeiqw9j3gm6t0kvoa93potjld0,4ozmjj1y,2020-0188,2021-10-14,10:18:43,13:23:38,NA,incomplete,false,true,NA,4,35,NA,yellow,m_l_043.jpg,NA,NA,pleasant,unpleasant,NA,NA,NA,NA,NA,left,1173,true,NA,NA,NA,NA,NA
4ozmjj1y,3r0wocg22pm4csvtiwincc3gz22duj,3mrnmeiqw9j3gm6t0kvoa93potjld0,4ozmjj1y,2020-0188,2021-10-14,10:18:43,13:23:38,NA,incomplete,false,NA,true,4,0,NA,NA,NA,left,absent,NA,NA,n_s_109.jpg,orange,n_s_021.jpg,orange,within,NA,NaN,NA,right,3372,0,1,1504
4ozmjj1y,3r0wocg22pm4csvtiwincc3gz22duj,3mrnmeiqw9j3gm6t0kvoa93potjld0,4ozmjj1y,2020-0188,2021-10-14,10:18:43,13:23:38,NA,incomplete,false,NA,true,4,1,NA,NA,NA,left,absent,NA,NA,n_l_074.jpg,blue,n_s_102.jpg,purple,between,NA,NaN,NA,left,1559,1,1,1249
4ozmjj1y,3r0wocg22pm4csvtiwincc3gz22duj,3mrnmeiqw9j3gm6t0kvoa93potjld0,4ozmjj1y,2020-0188,2021-10-14,10:18:43,13:23:38,NA,incomplete,false,NA,true,4,2,NA,NA,NA,left,absent,NA,NA,n_s_106.jpg,black,m_s_064.jpg,black,within,NA,NaN,NA,right,1808,0,1,1474
4ozmjj1y,3r0wocg22pm4csvtiwincc3gz22duj,3mrnmeiqw9j3gm6t0kvoa93potjld0,4ozmjj1y,2020-0188,2021-10-14,10:18:43,13:23:38,NA,incomplete,false,NA,true,4,3,NA,NA,NA,left,absent,NA,NA,n_l_021.jpg,yellow,m_l_043.jpg,yellow,within,NA,NaN,NA,left,2229,1,2,1702
4ozmjj1y,3r0wocg22pm4csvtiwincc3gz22duj,3mrnmeiqw9j3gm6t0kvoa93potjld0,4ozmjj1y,2020-0188,2021-10-14,10:18:43,13:23:38,NA,incomplete,false,NA,true,4,4,NA,NA,NA,right,absent,NA,NA,m_s_041.jpg,purple,m_l_098.jpg,purple,within,NA,NaN,NA,left,1991,0,1,1588
4ozmjj1y,3r0wocg22pm4csvtiwincc3gz22duj,3mrnmeiqw9j3gm6t0kvoa93potjld0,4ozmjj1y,2020-0188,2021-10-14,10:18:43,13:23:38,NA,incomplete,false,NA,true,4,5,NA,NA,NA,left,absent,NA,NA,m_l_116.jpg,green,m_l_081.jpg,orange,between,NA,NaN,NA,left,1663,1,1,1610
4ozmjj1y,3r0wocg22pm4csvtiwincc3gz22duj,3mrnmeiqw9j3gm6t0kvoa93potjld0,4ozmjj1y,2020-0188,2021-10-14,10:18:43,13:23:38,NA,incomplete,false,NA,true,4,6,NA,NA,NA,left,absent,NA,NA,n_l_092.jpg,purple,m_s_070.jpg,black,between,NA,NaN,NA,right,5579,0,1,2681
4ozmjj1y,3r0wocg22pm4csvtiwincc3gz22duj,3mrnmeiqw9j3gm6t0kvoa93potjld0,4ozmjj1y,2020-0188,2021-10-14,10:18:43,13:23:38,NA,incomplete,false,NA,true,4,7,NA,NA,NA,right,absent,NA,NA,n_l_091.jpg,blue,m_l_077.jpg,blue,within,NA,NaN,NA,right,12649,1,1,3148
4ozmjj1y,3r0wocg22pm4csvtiwincc3gz22duj,3mrnmeiqw9j3gm6t0kvoa93potjld0,4ozmjj1y,2020-0188,2021-10-14,10:18:43,13:23:38,NA,incomplete,false,NA,true,4,8,NA,NA,NA,left,absent,NA,NA,m_s_033.jpg,black,n_l_059.jpg,green,between,NA,NaN,NA,left,1901,1,1,1579
4ozmjj1y,3r0wocg22pm4csvtiwincc3gz22duj,3mrnmeiqw9j3gm6t0kvoa93potjld0,4ozmjj1y,2020-0188,2021-10-14,10:18:43,13:23:38,NA,incomplete,false,NA,true,4,9,NA,NA,NA,left,absent,NA,NA,n_l_055.jpg,green,m_l_090.jpg,green,within,NA,NaN,NA,left,1501,1,1,86089
4ozmjj1y,3r0wocg22pm4csvtiwincc3gz22duj,3mrnmeiqw9j3gm6t0kvoa93potjld0,4ozmjj1y,2020-0188,2021-10-14,10:18:43,13:23:38,NA,incomplete,false,NA,true,4,10,NA,NA,NA,left,absent,NA,NA,m_l_067.jpg,orange,m_l_023.jpg,yellow,between,NA,NaN,NA,left,1998,1,2,1521
4ozmjj1y,3r0wocg22pm4csvtiwincc3gz22duj,3mrnmeiqw9j3gm6t0kvoa93potjld0,4ozmjj1y,2020-0188,2021-10-14,10:18:43,13:23:38,NA,incomplete,false,true,NA,5,0,NA,blue,m_l_037.jpg,NA,NA,unpleasant,pleasant,NA,NA,NA,NA,NA,right,2533,true,NA,NA,NA,NA,NA
4ozmjj1y,3r0wocg22pm4csvtiwincc3gz22duj,3mrnmeiqw9j3gm6t0kvoa93potjld0,4ozmjj1y,2020-0188,2021-10-14,10:18:43,13:23:38,NA,incomplete,false,true,NA,5,1,NA,blue,m_s_037.jpg,NA,NA,unpleasant,pleasant,NA,NA,NA,NA,NA,right,1347,true,NA,NA,NA,NA,NA
4ozmjj1y,3r0wocg22pm4csvtiwincc3gz22duj,3mrnmeiqw9j3gm6t0kvoa93potjld0,4ozmjj1y,2020-0188,2021-10-14,10:18:43,13:23:38,NA,incomplete,false,true,NA,5,2,NA,blue,m_l_005.jpg,NA,NA,unpleasant,pleasant,NA,NA,NA,NA,NA,right,1897,true,NA,NA,NA,NA,NA
4ozmjj1y,3r0wocg22pm4csvtiwincc3gz22duj,3mrnmeiqw9j3gm6t0kvoa93potjld0,4ozmjj1y,2020-0188,2021-10-14,10:18:43,13:23:38,NA,incomplete,false,true,NA,5,3,NA,blue,m_s_052.jpg,NA,NA,pleasant,unpleasant,NA,NA,NA,NA,NA,left,1263,true,NA,NA,NA,NA,NA
4ozmjj1y,3r0wocg22pm4csvtiwincc3gz22duj,3mrnmeiqw9j3gm6t0kvoa93potjld0,4ozmjj1y,2020-0188,2021-10-14,10:18:43,13:23:38,NA,incomplete,false,true,NA,5,4,NA,blue,m_l_009.jpg,NA,NA,unpleasant,pleasant,NA,NA,NA,NA,NA,right,1295,true,NA,NA,NA,NA,NA
4ozmjj1y,3r0wocg22pm4csvtiwincc3gz22duj,3mrnmeiqw9j3gm6t0kvoa93potjld0,4ozmjj1y,2020-0188,2021-10-14,10:18:43,13:23:38,NA,incomplete,false,true,NA,5,5,NA,blue,m_l_042.jpg,NA,NA,pleasant,unpleasant,NA,NA,NA,NA,NA,left,1203,true,NA,NA,NA,NA,NA
4ozmjj1y,3r0wocg22pm4csvtiwincc3gz22duj,3mrnmeiqw9j3gm6t0kvoa93potjld0,4ozmjj1y,2020-0188,2021-10-14,10:18:43,13:23:38,NA,incomplete,false,true,NA,5,6,NA,white,n_l_013.jpg,NA,NA,unpleasant,pleasant,NA,NA,NA,NA,NA,right,1402,true,NA,NA,NA,NA,NA
4ozmjj1y,3r0wocg22pm4csvtiwincc3gz22duj,3mrnmeiqw9j3gm6t0kvoa93potjld0,4ozmjj1y,2020-0188,2021-10-14,10:18:43,13:23:38,NA,incomplete,false,true,NA,5,7,NA,white,m_l_104.jpg,NA,NA,pleasant,unpleasant,NA,NA,NA,NA,NA,left,1673,true,NA,NA,NA,NA,NA
4ozmjj1y,3r0wocg22pm4csvtiwincc3gz22duj,3mrnmeiqw9j3gm6t0kvoa93potjld0,4ozmjj1y,2020-0188,2021-10-14,10:18:43,13:23:38,NA,incomplete,false,true,NA,5,8,NA,white,m_s_101.jpg,NA,NA,unpleasant,pleasant,NA,NA,NA,NA,NA,right,1745,true,NA,NA,NA,NA,NA
4ozmjj1y,3r0wocg22pm4csvtiwincc3gz22duj,3mrnmeiqw9j3gm6t0kvoa93potjld0,4ozmjj1y,2020-0188,2021-10-14,10:18:43,13:23:38,NA,incomplete,false,true,NA,5,9,NA,white,m_s_039.jpg,NA,NA,unpleasant,pleasant,NA,NA,NA,NA,NA,right,1125,true,NA,NA,NA,NA,NA
4ozmjj1y,3r0wocg22pm4csvtiwincc3gz22duj,3mrnmeiqw9j3gm6t0kvoa93potjld0,4ozmjj1y,2020-0188,2021-10-14,10:18:43,13:23:38,NA,incomplete,false,true,NA,5,10,NA,white,n_l_080.jpg,NA,NA,pleasant,unpleasant,NA,NA,NA,NA,NA,left,1486,true,NA,NA,NA,NA,NA
4ozmjj1y,3r0wocg22pm4csvtiwincc3gz22duj,3mrnmeiqw9j3gm6t0kvoa93potjld0,4ozmjj1y,2020-0188,2021-10-14,10:18:43,13:23:38,NA,incomplete,false,true,NA,5,11,NA,white,m_s_048.jpg,NA,NA,unpleasant,pleasant,NA,NA,NA,NA,NA,right,758,true,NA,NA,NA,NA,NA
4ozmjj1y,3r0wocg22pm4csvtiwincc3gz22duj,3mrnmeiqw9j3gm6t0kvoa93potjld0,4ozmjj1y,2020-0188,2021-10-14,10:18:43,13:23:38,NA,incomplete,false,true,NA,5,12,NA,purple,n_l_042.jpg,NA,NA,pleasant,unpleasant,NA,NA,NA,NA,NA,left,1367,true,NA,NA,NA,NA,NA
4ozmjj1y,3r0wocg22pm4csvtiwincc3gz22duj,3mrnmeiqw9j3gm6t0kvoa93potjld0,4ozmjj1y,2020-0188,2021-10-14,10:18:43,13:23:38,NA,incomplete,false,true,NA,5,13,NA,purple,m_l_066.jpg,NA,NA,unpleasant,pleasant,NA,NA,NA,NA,NA,right,1228,true,NA,NA,NA,NA,NA
4ozmjj1y,3r0wocg22pm4csvtiwincc3gz22duj,3mrnmeiqw9j3gm6t0kvoa93potjld0,4ozmjj1y,2020-0188,2021-10-14,10:18:43,13:23:38,NA,incomplete,false,true,NA,5,14,NA,purple,m_s_011.jpg,NA,NA,pleasant,unpleasant,NA,NA,NA,NA,NA,left,2279,true,NA,NA,NA,NA,NA
4ozmjj1y,3r0wocg22pm4csvtiwincc3gz22duj,3mrnmeiqw9j3gm6t0kvoa93potjld0,4ozmjj1y,2020-0188,2021-10-14,10:18:43,13:23:38,NA,incomplete,false,true,NA,5,15,NA,purple,n_s_020.jpg,NA,NA,unpleasant,pleasant,NA,NA,NA,NA,NA,right,981,true,NA,NA,NA,NA,NA
4ozmjj1y,3r0wocg22pm4csvtiwincc3gz22duj,3mrnmeiqw9j3gm6t0kvoa93potjld0,4ozmjj1y,2020-0188,2021-10-14,10:18:43,13:23:38,NA,incomplete,false,true,NA,5,16,NA,purple,m_l_074.jpg,NA,NA,pleasant,unpleasant,NA,NA,NA,NA,NA,left,1838,true,NA,NA,NA,NA,NA
4ozmjj1y,3r0wocg22pm4csvtiwincc3gz22duj,3mrnmeiqw9j3gm6t0kvoa93potjld0,4ozmjj1y,2020-0188,2021-10-14,10:18:43,13:23:38,NA,incomplete,false,true,NA,5,17,NA,purple,n_s_084.jpg,NA,NA,pleasant,unpleasant,NA,NA,NA,NA,NA,left,1059,true,NA,NA,NA,NA,NA
4ozmjj1y,3r0wocg22pm4csvtiwincc3gz22duj,3mrnmeiqw9j3gm6t0kvoa93potjld0,4ozmjj1y,2020-0188,2021-10-14,10:18:43,13:23:38,NA,incomplete,false,true,NA,5,18,NA,yellow,m_s_084.jpg,NA,NA,unpleasant,pleasant,NA,NA,NA,NA,NA,right,1461,true,NA,NA,NA,NA,NA
4ozmjj1y,3r0wocg22pm4csvtiwincc3gz22duj,3mrnmeiqw9j3gm6t0kvoa93potjld0,4ozmjj1y,2020-0188,2021-10-14,10:18:43,13:23:38,NA,incomplete,false,true,NA,5,19,NA,yellow,m_l_070.jpg,NA,NA,unpleasant,pleasant,NA,NA,NA,NA,NA,right,1172,true,NA,NA,NA,NA,NA
4ozmjj1y,3r0wocg22pm4csvtiwincc3gz22duj,3mrnmeiqw9j3gm6t0kvoa93potjld0,4ozmjj1y,2020-0188,2021-10-14,10:18:43,13:23:38,NA,incomplete,false,true,NA,5,20,NA,yellow,m_l_006.jpg,NA,NA,pleasant,unpleasant,NA,NA,NA,NA,NA,left,1113,true,NA,NA,NA,NA,NA
4ozmjj1y,3r0wocg22pm4csvtiwincc3gz22duj,3mrnmeiqw9j3gm6t0kvoa93potjld0,4ozmjj1y,2020-0188,2021-10-14,10:18:43,13:23:38,NA,incomplete,false,true,NA,5,21,NA,yellow,m_l_015.jpg,NA,NA,unpleasant,pleasant,NA,NA,NA,NA,NA,right,1064,true,NA,NA,NA,NA,NA
4ozmjj1y,3r0wocg22pm4csvtiwincc3gz22duj,3mrnmeiqw9j3gm6t0kvoa93potjld0,4ozmjj1y,2020-0188,2021-10-14,10:18:43,13:23:38,NA,incomplete,false,true,NA,5,22,NA,yellow,m_l_086.jpg,NA,NA,unpleasant,pleasant,NA,NA,NA,NA,NA,right,1397,true,NA,NA,NA,NA,NA
4ozmjj1y,3r0wocg22pm4csvtiwincc3gz22duj,3mrnmeiqw9j3gm6t0kvoa93potjld0,4ozmjj1y,2020-0188,2021-10-14,10:18:43,13:23:38,NA,incomplete,false,true,NA,5,23,NA,yellow,n_l_088.jpg,NA,NA,unpleasant,pleasant,NA,NA,NA,NA,NA,right,1312,true,NA,NA,NA,NA,NA
4ozmjj1y,3r0wocg22pm4csvtiwincc3gz22duj,3mrnmeiqw9j3gm6t0kvoa93potjld0,4ozmjj1y,2020-0188,2021-10-14,10:18:43,13:23:38,NA,incomplete,false,true,NA,5,24,NA,gray,m_l_093.jpg,NA,NA,unpleasant,pleasant,NA,NA,NA,NA,NA,right,1518,true,NA,NA,NA,NA,NA
4ozmjj1y,3r0wocg22pm4csvtiwincc3gz22duj,3mrnmeiqw9j3gm6t0kvoa93potjld0,4ozmjj1y,2020-0188,2021-10-14,10:18:43,13:23:38,NA,incomplete,false,true,NA,5,25,NA,gray,n_s_088.jpg,NA,NA,pleasant,unpleasant,NA,NA,NA,NA,NA,left,1442,true,NA,NA,NA,NA,NA
4ozmjj1y,3r0wocg22pm4csvtiwincc3gz22duj,3mrnmeiqw9j3gm6t0kvoa93potjld0,4ozmjj1y,2020-0188,2021-10-14,10:18:43,13:23:38,NA,incomplete,false,true,NA,5,26,NA,gray,m_s_042.jpg,NA,NA,unpleasant,pleasant,NA,NA,NA,NA,NA,right,1030,true,NA,NA,NA,NA,NA
4ozmjj1y,3r0wocg22pm4csvtiwincc3gz22duj,3mrnmeiqw9j3gm6t0kvoa93potjld0,4ozmjj1y,2020-0188,2021-10-14,10:18:43,13:23:38,NA,incomplete,false,true,NA,5,27,NA,gray,n_s_085.jpg,NA,NA,unpleasant,pleasant,NA,NA,NA,NA,NA,right,1453,true,NA,NA,NA,NA,NA
4ozmjj1y,3r0wocg22pm4csvtiwincc3gz22duj,3mrnmeiqw9j3gm6t0kvoa93potjld0,4ozmjj1y,2020-0188,2021-10-14,10:18:43,13:23:38,NA,incomplete,false,true,NA,5,28,NA,gray,m_l_092.jpg,NA,NA,pleasant,unpleasant,NA,NA,NA,NA,NA,left,1492,true,NA,NA,NA,NA,NA
4ozmjj1y,3r0wocg22pm4csvtiwincc3gz22duj,3mrnmeiqw9j3gm6t0kvoa93potjld0,4ozmjj1y,2020-0188,2021-10-14,10:18:43,13:23:38,NA,incomplete,false,true,NA,5,29,NA,gray,n_l_085.jpg,NA,NA,unpleasant,pleasant,NA,NA,NA,NA,NA,right,1153,true,NA,NA,NA,NA,NA
4ozmjj1y,3r0wocg22pm4csvtiwincc3gz22duj,3mrnmeiqw9j3gm6t0kvoa93potjld0,4ozmjj1y,2020-0188,2021-10-14,10:18:43,13:23:38,NA,incomplete,false,true,NA,5,30,NA,brown,m_s_103.jpg,NA,NA,pleasant,unpleasant,NA,NA,NA,NA,NA,left,1144,true,NA,NA,NA,NA,NA
4ozmjj1y,3r0wocg22pm4csvtiwincc3gz22duj,3mrnmeiqw9j3gm6t0kvoa93potjld0,4ozmjj1y,2020-0188,2021-10-14,10:18:43,13:23:38,NA,incomplete,false,true,NA,5,31,NA,brown,n_l_049.jpg,NA,NA,pleasant,unpleasant,NA,NA,NA,NA,NA,left,2155,true,NA,NA,NA,NA,NA
4ozmjj1y,3r0wocg22pm4csvtiwincc3gz22duj,3mrnmeiqw9j3gm6t0kvoa93potjld0,4ozmjj1y,2020-0188,2021-10-14,10:18:43,13:23:38,NA,incomplete,false,true,NA,5,32,NA,brown,m_s_027.jpg,NA,NA,unpleasant,pleasant,NA,NA,NA,NA,NA,right,900,true,NA,NA,NA,NA,NA
4ozmjj1y,3r0wocg22pm4csvtiwincc3gz22duj,3mrnmeiqw9j3gm6t0kvoa93potjld0,4ozmjj1y,2020-0188,2021-10-14,10:18:43,13:23:38,NA,incomplete,false,true,NA,5,33,NA,brown,m_l_071.jpg,NA,NA,unpleasant,pleasant,NA,NA,NA,NA,NA,right,1483,true,NA,NA,NA,NA,NA
4ozmjj1y,3r0wocg22pm4csvtiwincc3gz22duj,3mrnmeiqw9j3gm6t0kvoa93potjld0,4ozmjj1y,2020-0188,2021-10-14,10:18:43,13:23:38,NA,incomplete,false,true,NA,5,34,NA,brown,n_l_030.jpg,NA,NA,unpleasant,pleasant,NA,NA,NA,NA,NA,right,1222,true,NA,NA,NA,NA,NA
4ozmjj1y,3r0wocg22pm4csvtiwincc3gz22duj,3mrnmeiqw9j3gm6t0kvoa93potjld0,4ozmjj1y,2020-0188,2021-10-14,10:18:43,13:23:38,NA,incomplete,false,true,NA,5,35,NA,brown,n_s_034.jpg,NA,NA,pleasant,unpleasant,NA,NA,NA,NA,NA,left,1448,true,NA,NA,NA,NA,NA
4ozmjj1y,3r0wocg22pm4csvtiwincc3gz22duj,3mrnmeiqw9j3gm6t0kvoa93potjld0,4ozmjj1y,2020-0188,2021-10-14,10:18:43,13:23:38,NA,incomplete,false,NA,true,5,0,NA,NA,NA,right,present,NA,NA,n_l_088.jpg,yellow,m_l_070.jpg,yellow,within,NA,NaN,NA,right,4528,1,1,1764
4ozmjj1y,3r0wocg22pm4csvtiwincc3gz22duj,3mrnmeiqw9j3gm6t0kvoa93potjld0,4ozmjj1y,2020-0188,2021-10-14,10:18:43,13:23:38,NA,incomplete,false,NA,true,5,1,NA,NA,NA,right,present,NA,NA,m_l_006.jpg,yellow,m_l_074.jpg,purple,between,NA,NaN,NA,left,2472,0,2,4377
4ozmjj1y,3r0wocg22pm4csvtiwincc3gz22duj,3mrnmeiqw9j3gm6t0kvoa93potjld0,4ozmjj1y,2020-0188,2021-10-14,10:18:43,13:23:38,NA,incomplete,false,NA,true,5,2,NA,NA,NA,left,present,NA,NA,m_l_104.jpg,white,m_s_048.jpg,white,within,NA,NaN,NA,left,1589,1,1,2808
4ozmjj1y,3r0wocg22pm4csvtiwincc3gz22duj,3mrnmeiqw9j3gm6t0kvoa93potjld0,4ozmjj1y,2020-0188,2021-10-14,10:18:43,13:23:38,NA,incomplete,false,NA,true,5,3,NA,NA,NA,left,present,NA,NA,m_l_066.jpg,purple,n_s_084.jpg,purple,within,NA,NaN,NA,right,2159,0,0,1448
4ozmjj1y,3r0wocg22pm4csvtiwincc3gz22duj,3mrnmeiqw9j3gm6t0kvoa93potjld0,4ozmjj1y,2020-0188,2021-10-14,10:18:43,13:23:38,NA,incomplete,false,NA,true,5,4,NA,NA,NA,left,present,NA,NA,m_l_086.jpg,yellow,m_s_042.jpg,gray,between,NA,NaN,NA,right,2338,0,0,1206
4ozmjj1y,3r0wocg22pm4csvtiwincc3gz22duj,3mrnmeiqw9j3gm6t0kvoa93potjld0,4ozmjj1y,2020-0188,2021-10-14,10:18:43,13:23:38,NA,incomplete,false,NA,true,5,5,NA,NA,NA,right,present,NA,NA,n_s_034.jpg,brown,n_l_049.jpg,brown,within,NA,NaN,NA,right,11581,1,0,2528
4ozmjj1y,3r0wocg22pm4csvtiwincc3gz22duj,3mrnmeiqw9j3gm6t0kvoa93potjld0,4ozmjj1y,2020-0188,2021-10-14,10:18:43,13:23:38,NA,incomplete,false,NA,true,5,6,NA,NA,NA,left,present,NA,NA,n_s_088.jpg,gray,n_l_085.jpg,gray,within,NA,NaN,NA,left,5120,1,1,1759
4ozmjj1y,3r0wocg22pm4csvtiwincc3gz22duj,3mrnmeiqw9j3gm6t0kvoa93potjld0,4ozmjj1y,2020-0188,2021-10-14,10:18:43,13:23:38,NA,incomplete,false,NA,true,5,7,NA,NA,NA,right,present,NA,NA,m_l_042.jpg,blue,m_s_037.jpg,blue,within,NA,NaN,NA,right,2808,1,1,24406
4ozmjj1y,3r0wocg22pm4csvtiwincc3gz22duj,3mrnmeiqw9j3gm6t0kvoa93potjld0,4ozmjj1y,2020-0188,2021-10-14,10:18:43,13:23:38,NA,incomplete,false,NA,true,5,8,NA,NA,NA,left,present,NA,NA,m_l_092.jpg,gray,m_s_027.jpg,brown,between,NA,NaN,NA,right,3583,0,0,2319
4ozmjj1y,3r0wocg22pm4csvtiwincc3gz22duj,3mrnmeiqw9j3gm6t0kvoa93potjld0,4ozmjj1y,2020-0188,2021-10-14,10:18:43,13:23:38,NA,incomplete,false,NA,true,5,9,NA,NA,NA,left,present,NA,NA,m_l_009.jpg,blue,m_s_101.jpg,white,between,NA,NaN,NA,left,2668,1,2,3182
4ozmjj1y,3r0wocg22pm4csvtiwincc3gz22duj,3mrnmeiqw9j3gm6t0kvoa93potjld0,4ozmjj1y,2020-0188,2021-10-14,10:18:43,13:23:38,NA,incomplete,false,NA,true,5,10,NA,NA,NA,right,present,NA,NA,m_s_011.jpg,purple,n_l_080.jpg,white,between,NA,NaN,NA,right,3358,1,0,1790
4ozmjj1y,3r0wocg22pm4csvtiwincc3gz22duj,3mrnmeiqw9j3gm6t0kvoa93potjld0,4ozmjj1y,2020-0188,2021-10-14,10:18:43,13:23:38,NA,incomplete,false,true,NA,6,0,NA,purple,m_s_117.jpg,NA,NA,unpleasant,pleasant,NA,NA,NA,NA,NA,right,2128,true,NA,NA,NA,NA,NA
4ozmjj1y,3r0wocg22pm4csvtiwincc3gz22duj,3mrnmeiqw9j3gm6t0kvoa93potjld0,4ozmjj1y,2020-0188,2021-10-14,10:18:43,13:23:38,NA,incomplete,false,true,NA,6,1,NA,purple,n_l_063.jpg,NA,NA,unpleasant,pleasant,NA,NA,NA,NA,NA,left,2031,true,NA,NA,NA,NA,NA
4ozmjj1y,3r0wocg22pm4csvtiwincc3gz22duj,3mrnmeiqw9j3gm6t0kvoa93potjld0,4ozmjj1y,2020-0188,2021-10-14,10:18:43,13:23:38,NA,incomplete,false,true,NA,6,2,NA,purple,n_s_075.jpg,NA,NA,pleasant,unpleasant,NA,NA,NA,NA,NA,right,2636,true,NA,NA,NA,NA,NA
4ozmjj1y,3r0wocg22pm4csvtiwincc3gz22duj,3mrnmeiqw9j3gm6t0kvoa93potjld0,4ozmjj1y,2020-0188,2021-10-14,10:18:43,13:23:38,NA,incomplete,false,true,NA,6,3,NA,purple,m_l_103.jpg,NA,NA,unpleasant,pleasant,NA,NA,NA,NA,NA,right,2116,true,NA,NA,NA,NA,NA
4ozmjj1y,3r0wocg22pm4csvtiwincc3gz22duj,3mrnmeiqw9j3gm6t0kvoa93potjld0,4ozmjj1y,2020-0188,2021-10-14,10:18:43,13:23:38,NA,incomplete,false,true,NA,6,4,NA,purple,m_l_049.jpg,NA,NA,unpleasant,pleasant,NA,NA,NA,NA,NA,right,1731,true,NA,NA,NA,NA,NA
4ozmjj1y,3r0wocg22pm4csvtiwincc3gz22duj,3mrnmeiqw9j3gm6t0kvoa93potjld0,4ozmjj1y,2020-0188,2021-10-14,10:18:43,13:23:38,NA,incomplete,false,true,NA,6,5,NA,purple,m_l_106.jpg,NA,NA,unpleasant,pleasant,NA,NA,NA,NA,NA,right,1445,true,NA,NA,NA,NA,NA
4ozmjj1y,3r0wocg22pm4csvtiwincc3gz22duj,3mrnmeiqw9j3gm6t0kvoa93potjld0,4ozmjj1y,2020-0188,2021-10-14,10:18:43,13:23:38,NA,incomplete,false,true,NA,6,6,NA,white,n_s_104.jpg,NA,NA,pleasant,unpleasant,NA,NA,NA,NA,NA,left,1576,true,NA,NA,NA,NA,NA
4ozmjj1y,3r0wocg22pm4csvtiwincc3gz22duj,3mrnmeiqw9j3gm6t0kvoa93potjld0,4ozmjj1y,2020-0188,2021-10-14,10:18:43,13:23:38,NA,incomplete,false,true,NA,6,7,NA,white,m_s_035.jpg,NA,NA,unpleasant,pleasant,NA,NA,NA,NA,NA,right,1015,true,NA,NA,NA,NA,NA
4ozmjj1y,3r0wocg22pm4csvtiwincc3gz22duj,3mrnmeiqw9j3gm6t0kvoa93potjld0,4ozmjj1y,2020-0188,2021-10-14,10:18:43,13:23:38,NA,incomplete,false,true,NA,6,8,NA,white,n_s_026.jpg,NA,NA,unpleasant,pleasant,NA,NA,NA,NA,NA,left,2450,true,NA,NA,NA,NA,NA
4ozmjj1y,3r0wocg22pm4csvtiwincc3gz22duj,3mrnmeiqw9j3gm6t0kvoa93potjld0,4ozmjj1y,2020-0188,2021-10-14,10:18:43,13:23:38,NA,incomplete,false,true,NA,6,9,NA,white,n_s_002.jpg,NA,NA,unpleasant,pleasant,NA,NA,NA,NA,NA,right,1312,true,NA,NA,NA,NA,NA
4ozmjj1y,3r0wocg22pm4csvtiwincc3gz22duj,3mrnmeiqw9j3gm6t0kvoa93potjld0,4ozmjj1y,2020-0188,2021-10-14,10:18:43,13:23:38,NA,incomplete,false,true,NA,6,10,NA,white,n_l_017.jpg,NA,NA,unpleasant,pleasant,NA,NA,NA,NA,NA,left,2147,true,NA,NA,NA,NA,NA
4ozmjj1y,3r0wocg22pm4csvtiwincc3gz22duj,3mrnmeiqw9j3gm6t0kvoa93potjld0,4ozmjj1y,2020-0188,2021-10-14,10:18:43,13:23:38,NA,incomplete,false,true,NA,6,11,NA,white,n_l_105.jpg,NA,NA,pleasant,unpleasant,NA,NA,NA,NA,NA,right,2157,true,NA,NA,NA,NA,NA
4ozmjj1y,3r0wocg22pm4csvtiwincc3gz22duj,3mrnmeiqw9j3gm6t0kvoa93potjld0,4ozmjj1y,2020-0188,2021-10-14,10:18:43,13:23:38,NA,incomplete,false,true,NA,6,12,NA,green,n_s_068.jpg,NA,NA,pleasant,unpleasant,NA,NA,NA,NA,NA,left,1708,true,NA,NA,NA,NA,NA
4ozmjj1y,3r0wocg22pm4csvtiwincc3gz22duj,3mrnmeiqw9j3gm6t0kvoa93potjld0,4ozmjj1y,2020-0188,2021-10-14,10:18:43,13:23:38,NA,incomplete,false,true,NA,6,13,NA,green,n_l_053.jpg,NA,NA,pleasant,unpleasant,NA,NA,NA,NA,NA,right,1720,true,NA,NA,NA,NA,NA
4ozmjj1y,3r0wocg22pm4csvtiwincc3gz22duj,3mrnmeiqw9j3gm6t0kvoa93potjld0,4ozmjj1y,2020-0188,2021-10-14,10:18:43,13:23:38,NA,incomplete,false,true,NA,6,14,NA,green,n_l_098.jpg,NA,NA,unpleasant,pleasant,NA,NA,NA,NA,NA,right,2829,true,NA,NA,NA,NA,NA
4ozmjj1y,3r0wocg22pm4csvtiwincc3gz22duj,3mrnmeiqw9j3gm6t0kvoa93potjld0,4ozmjj1y,2020-0188,2021-10-14,10:18:43,13:23:38,NA,incomplete,false,true,NA,6,15,NA,green,m_l_102.jpg,NA,NA,pleasant,unpleasant,NA,NA,NA,NA,NA,left,2065,true,NA,NA,NA,NA,NA
4ozmjj1y,3r0wocg22pm4csvtiwincc3gz22duj,3mrnmeiqw9j3gm6t0kvoa93potjld0,4ozmjj1y,2020-0188,2021-10-14,10:18:43,13:23:38,NA,incomplete,false,true,NA,6,16,NA,green,m_s_057.jpg,NA,NA,pleasant,unpleasant,NA,NA,NA,NA,NA,left,1738,true,NA,NA,NA,NA,NA
4ozmjj1y,3r0wocg22pm4csvtiwincc3gz22duj,3mrnmeiqw9j3gm6t0kvoa93potjld0,4ozmjj1y,2020-0188,2021-10-14,10:18:43,13:23:38,NA,incomplete,false,true,NA,6,17,NA,green,n_l_095.jpg,NA,NA,unpleasant,pleasant,NA,NA,NA,NA,NA,right,1957,true,NA,NA,NA,NA,NA
4ozmjj1y,3r0wocg22pm4csvtiwincc3gz22duj,3mrnmeiqw9j3gm6t0kvoa93potjld0,4ozmjj1y,2020-0188,2021-10-14,10:18:43,13:23:38,NA,incomplete,false,true,NA,6,18,NA,black,n_l_039.jpg,NA,NA,unpleasant,pleasant,NA,NA,NA,NA,NA,right,2335,true,NA,NA,NA,NA,NA
4ozmjj1y,3r0wocg22pm4csvtiwincc3gz22duj,3mrnmeiqw9j3gm6t0kvoa93potjld0,4ozmjj1y,2020-0188,2021-10-14,10:18:43,13:23:38,NA,incomplete,false,true,NA,6,19,NA,black,n_s_059.jpg,NA,NA,pleasant,unpleasant,NA,NA,NA,NA,NA,left,3027,true,NA,NA,NA,NA,NA
4ozmjj1y,3r0wocg22pm4csvtiwincc3gz22duj,3mrnmeiqw9j3gm6t0kvoa93potjld0,4ozmjj1y,2020-0188,2021-10-14,10:18:43,13:23:38,NA,incomplete,false,true,NA,6,20,NA,black,n_s_027.jpg,NA,NA,unpleasant,pleasant,NA,NA,NA,NA,NA,right,1466,true,NA,NA,NA,NA,NA
4ozmjj1y,3r0wocg22pm4csvtiwincc3gz22duj,3mrnmeiqw9j3gm6t0kvoa93potjld0,4ozmjj1y,2020-0188,2021-10-14,10:18:43,13:23:38,NA,incomplete,false,true,NA,6,21,NA,black,m_l_089.jpg,NA,NA,unpleasant,pleasant,NA,NA,NA,NA,NA,left,1469,true,NA,NA,NA,NA,NA
4ozmjj1y,3r0wocg22pm4csvtiwincc3gz22duj,3mrnmeiqw9j3gm6t0kvoa93potjld0,4ozmjj1y,2020-0188,2021-10-14,10:18:43,13:23:38,NA,incomplete,false,true,NA,6,22,NA,black,n_l_035.jpg,NA,NA,unpleasant,pleasant,NA,NA,NA,NA,NA,right,1076,true,NA,NA,NA,NA,NA
4ozmjj1y,3r0wocg22pm4csvtiwincc3gz22duj,3mrnmeiqw9j3gm6t0kvoa93potjld0,4ozmjj1y,2020-0188,2021-10-14,10:18:43,13:23:38,NA,incomplete,false,true,NA,6,23,NA,black,n_s_110.jpg,NA,NA,pleasant,unpleasant,NA,NA,NA,NA,NA,right,2437,true,NA,NA,NA,NA,NA
4ozmjj1y,3r0wocg22pm4csvtiwincc3gz22duj,3mrnmeiqw9j3gm6t0kvoa93potjld0,4ozmjj1y,2020-0188,2021-10-14,10:18:43,13:23:38,NA,incomplete,false,true,NA,6,24,NA,blue,n_l_022.jpg,NA,NA,unpleasant,pleasant,NA,NA,NA,NA,NA,right,1407,true,NA,NA,NA,NA,NA
4ozmjj1y,3r0wocg22pm4csvtiwincc3gz22duj,3mrnmeiqw9j3gm6t0kvoa93potjld0,4ozmjj1y,2020-0188,2021-10-14,10:18:43,13:23:38,NA,incomplete,false,true,NA,6,25,NA,blue,n_s_103.jpg,NA,NA,pleasant,unpleasant,NA,NA,NA,NA,NA,left,1338,true,NA,NA,NA,NA,NA
4ozmjj1y,3r0wocg22pm4csvtiwincc3gz22duj,3mrnmeiqw9j3gm6t0kvoa93potjld0,4ozmjj1y,2020-0188,2021-10-14,10:18:43,13:23:38,NA,incomplete,false,true,NA,6,26,NA,blue,n_l_026.jpg,NA,NA,unpleasant,pleasant,NA,NA,NA,NA,NA,right,1575,true,NA,NA,NA,NA,NA
4ozmjj1y,3r0wocg22pm4csvtiwincc3gz22duj,3mrnmeiqw9j3gm6t0kvoa93potjld0,4ozmjj1y,2020-0188,2021-10-14,10:18:43,13:23:38,NA,incomplete,false,true,NA,6,27,NA,blue,n_l_112.jpg,NA,NA,unpleasant,pleasant,NA,NA,NA,NA,NA,left,1608,true,NA,NA,NA,NA,NA
4ozmjj1y,3r0wocg22pm4csvtiwincc3gz22duj,3mrnmeiqw9j3gm6t0kvoa93potjld0,4ozmjj1y,2020-0188,2021-10-14,10:18:43,13:23:38,NA,incomplete,false,true,NA,6,28,NA,blue,m_s_085.jpg,NA,NA,pleasant,unpleasant,NA,NA,NA,NA,NA,right,2119,true,NA,NA,NA,NA,NA
4ozmjj1y,3r0wocg22pm4csvtiwincc3gz22duj,3mrnmeiqw9j3gm6t0kvoa93potjld0,4ozmjj1y,2020-0188,2021-10-14,10:18:43,13:23:38,NA,incomplete,false,true,NA,6,29,NA,blue,m_l_050.jpg,NA,NA,pleasant,unpleasant,NA,NA,NA,NA,NA,none,0,false,NA,NA,NA,NA,NA
4ozmjj1y,3r0wocg22pm4csvtiwincc3gz22duj,3mrnmeiqw9j3gm6t0kvoa93potjld0,4ozmjj1y,2020-0188,2021-10-14,10:18:43,13:23:38,NA,incomplete,false,true,NA,6,30,NA,yellow,n_l_047.jpg,NA,NA,unpleasant,pleasant,NA,NA,NA,NA,NA,right,1645,true,NA,NA,NA,NA,NA
4ozmjj1y,3r0wocg22pm4csvtiwincc3gz22duj,3mrnmeiqw9j3gm6t0kvoa93potjld0,4ozmjj1y,2020-0188,2021-10-14,10:18:43,13:23:38,NA,incomplete,false,true,NA,6,31,NA,yellow,n_s_033.jpg,NA,NA,pleasant,unpleasant,NA,NA,NA,NA,NA,left,1723,true,NA,NA,NA,NA,NA
4ozmjj1y,3r0wocg22pm4csvtiwincc3gz22duj,3mrnmeiqw9j3gm6t0kvoa93potjld0,4ozmjj1y,2020-0188,2021-10-14,10:18:43,13:23:38,NA,incomplete,false,true,NA,6,32,NA,yellow,n_s_073.jpg,NA,NA,unpleasant,pleasant,NA,NA,NA,NA,NA,right,1337,true,NA,NA,NA,NA,NA
4ozmjj1y,3r0wocg22pm4csvtiwincc3gz22duj,3mrnmeiqw9j3gm6t0kvoa93potjld0,4ozmjj1y,2020-0188,2021-10-14,10:18:43,13:23:38,NA,incomplete,false,true,NA,6,33,NA,yellow,n_l_103.jpg,NA,NA,unpleasant,pleasant,NA,NA,NA,NA,NA,right,1929,true,NA,NA,NA,NA,NA
4ozmjj1y,3r0wocg22pm4csvtiwincc3gz22duj,3mrnmeiqw9j3gm6t0kvoa93potjld0,4ozmjj1y,2020-0188,2021-10-14,10:18:43,13:23:38,NA,incomplete,false,true,NA,6,34,NA,yellow,n_s_005.jpg,NA,NA,unpleasant,pleasant,NA,NA,NA,NA,NA,right,1274,true,NA,NA,NA,NA,NA
4ozmjj1y,3r0wocg22pm4csvtiwincc3gz22duj,3mrnmeiqw9j3gm6t0kvoa93potjld0,4ozmjj1y,2020-0188,2021-10-14,10:18:43,13:23:38,NA,incomplete,false,true,NA,6,35,NA,yellow,m_s_107.jpg,NA,NA,unpleasant,pleasant,NA,NA,NA,NA,NA,left,1426,true,NA,NA,NA,NA,NA
4ozmjj1y,3r0wocg22pm4csvtiwincc3gz22duj,3mrnmeiqw9j3gm6t0kvoa93potjld0,4ozmjj1y,2020-0188,2021-10-14,10:18:43,13:23:38,NA,incomplete,false,NA,true,6,0,NA,NA,NA,right,present,NA,NA,m_l_106.jpg,purple,n_l_063.jpg,purple,within,NA,NaN,NA,left,2079,0,1,4313
4ozmjj1y,3r0wocg22pm4csvtiwincc3gz22duj,3mrnmeiqw9j3gm6t0kvoa93potjld0,4ozmjj1y,2020-0188,2021-10-14,10:18:43,13:23:38,NA,incomplete,false,NA,true,6,1,NA,NA,NA,left,present,NA,NA,n_s_033.jpg,yellow,m_s_107.jpg,yellow,within,NA,NaN,NA,left,3112,1,1,2798
4ozmjj1y,3r0wocg22pm4csvtiwincc3gz22duj,3mrnmeiqw9j3gm6t0kvoa93potjld0,4ozmjj1y,2020-0188,2021-10-14,10:18:43,13:23:38,NA,incomplete,false,NA,true,6,2,NA,NA,NA,right,present,NA,NA,n_s_073.jpg,yellow,m_s_085.jpg,blue,between,NA,NaN,NA,right,12565,1,0,2237
4ozmjj1y,3r0wocg22pm4csvtiwincc3gz22duj,3mrnmeiqw9j3gm6t0kvoa93potjld0,4ozmjj1y,2020-0188,2021-10-14,10:18:43,13:23:38,NA,incomplete,false,NA,true,6,3,NA,NA,NA,right,present,NA,NA,n_s_027.jpg,black,m_s_057.jpg,green,between,NA,NaN,NA,right,3018,1,0,1599
4ozmjj1y,3r0wocg22pm4csvtiwincc3gz22duj,3mrnmeiqw9j3gm6t0kvoa93potjld0,4ozmjj1y,2020-0188,2021-10-14,10:18:43,13:23:38,NA,incomplete,false,NA,true,6,4,NA,NA,NA,left,present,NA,NA,n_l_017.jpg,white,n_l_098.jpg,green,between,NA,NaN,NA,left,2624,1,0,2410
4ozmjj1y,3r0wocg22pm4csvtiwincc3gz22duj,3mrnmeiqw9j3gm6t0kvoa93potjld0,4ozmjj1y,2020-0188,2021-10-14,10:18:43,13:23:38,NA,incomplete,false,NA,true,6,5,NA,NA,NA,right,present,NA,NA,n_l_095.jpg,green,n_l_053.jpg,green,within,NA,NaN,NA,right,3718,1,1,12024
4ozmjj1y,3r0wocg22pm4csvtiwincc3gz22duj,3mrnmeiqw9j3gm6t0kvoa93potjld0,4ozmjj1y,2020-0188,2021-10-14,10:18:43,13:23:38,NA,incomplete,false,NA,true,6,6,NA,NA,NA,left,present,NA,NA,n_s_103.jpg,blue,m_l_050.jpg,blue,within,NA,NaN,NA,left,4870,1,0,1837
4ozmjj1y,3r0wocg22pm4csvtiwincc3gz22duj,3mrnmeiqw9j3gm6t0kvoa93potjld0,4ozmjj1y,2020-0188,2021-10-14,10:18:43,13:23:38,NA,incomplete,false,NA,true,6,7,NA,NA,NA,left,present,NA,NA,m_l_049.jpg,purple,n_s_026.jpg,white,between,NA,NaN,NA,left,15356,1,1,1998
4ozmjj1y,3r0wocg22pm4csvtiwincc3gz22duj,3mrnmeiqw9j3gm6t0kvoa93potjld0,4ozmjj1y,2020-0188,2021-10-14,10:18:43,13:23:38,NA,incomplete,false,NA,true,6,8,NA,NA,NA,right,present,NA,NA,n_l_105.jpg,white,m_s_035.jpg,white,within,NA,NaN,NA,left,2320,0,1,2459
4ozmjj1y,3r0wocg22pm4csvtiwincc3gz22duj,3mrnmeiqw9j3gm6t0kvoa93potjld0,4ozmjj1y,2020-0188,2021-10-14,10:18:43,13:23:38,NA,incomplete,false,NA,true,6,9,NA,NA,NA,left,present,NA,NA,n_l_035.jpg,black,n_l_026.jpg,blue,between,NA,NaN,NA,left,1569,1,1,1740
4ozmjj1y,3r0wocg22pm4csvtiwincc3gz22duj,3mrnmeiqw9j3gm6t0kvoa93potjld0,4ozmjj1y,2020-0188,2021-10-14,10:18:43,13:23:38,NA,incomplete,false,NA,true,6,10,NA,NA,NA,left,present,NA,NA,n_s_059.jpg,black,n_s_110.jpg,black,within,NA,NaN,NA,left,1978,1,1,516684
4ozmjj1y,3r0wocg22pm4csvtiwincc3gz22duj,3mrnmeiqw9j3gm6t0kvoa93potjld0,4ozmjj1y,2020-0188,2021-10-14,10:18:43,13:23:38,NA,incomplete,false,true,NA,7,0,NA,blue,n_l_071.jpg,NA,NA,pleasant,unpleasant,NA,NA,NA,NA,NA,none,0,false,NA,NA,NA,NA,NA
4ozmjj1y,3r0wocg22pm4csvtiwincc3gz22duj,3mrnmeiqw9j3gm6t0kvoa93potjld0,4ozmjj1y,2020-0188,2021-10-14,10:18:43,13:23:38,NA,incomplete,false,true,NA,7,1,NA,blue,n_s_042.jpg,NA,NA,pleasant,unpleasant,NA,NA,NA,NA,NA,right,2213,true,NA,NA,NA,NA,NA
4ozmjj1y,3r0wocg22pm4csvtiwincc3gz22duj,3mrnmeiqw9j3gm6t0kvoa93potjld0,4ozmjj1y,2020-0188,2021-10-14,10:18:43,13:23:38,NA,incomplete,false,true,NA,7,2,NA,blue,n_s_030.jpg,NA,NA,unpleasant,pleasant,NA,NA,NA,NA,NA,right,1902,true,NA,NA,NA,NA,NA
4ozmjj1y,3r0wocg22pm4csvtiwincc3gz22duj,3mrnmeiqw9j3gm6t0kvoa93potjld0,4ozmjj1y,2020-0188,2021-10-14,10:18:43,13:23:38,NA,incomplete,false,true,NA,7,3,NA,blue,m_l_003.jpg,NA,NA,pleasant,unpleasant,NA,NA,NA,NA,NA,none,0,false,NA,NA,NA,NA,NA
4ozmjj1y,3r0wocg22pm4csvtiwincc3gz22duj,3mrnmeiqw9j3gm6t0kvoa93potjld0,4ozmjj1y,2020-0188,2021-10-14,10:18:43,13:23:38,NA,incomplete,false,true,NA,7,4,NA,blue,n_l_041.jpg,NA,NA,pleasant,unpleasant,NA,NA,NA,NA,NA,left,1992,true,NA,NA,NA,NA,NA
4ozmjj1y,3r0wocg22pm4csvtiwincc3gz22duj,3mrnmeiqw9j3gm6t0kvoa93potjld0,4ozmjj1y,2020-0188,2021-10-14,10:18:43,13:23:38,NA,incomplete,false,true,NA,7,5,NA,blue,n_s_069.jpg,NA,NA,pleasant,unpleasant,NA,NA,NA,NA,NA,right,713,true,NA,NA,NA,NA,NA
4ozmjj1y,3r0wocg22pm4csvtiwincc3gz22duj,3mrnmeiqw9j3gm6t0kvoa93potjld0,4ozmjj1y,2020-0188,2021-10-14,10:18:43,13:23:38,NA,incomplete,false,true,NA,7,6,NA,white,m_s_018.jpg,NA,NA,unpleasant,pleasant,NA,NA,NA,NA,NA,left,54,true,NA,NA,NA,NA,NA
4ozmjj1y,3r0wocg22pm4csvtiwincc3gz22duj,3mrnmeiqw9j3gm6t0kvoa93potjld0,4ozmjj1y,2020-0188,2021-10-14,10:18:43,13:23:38,NA,incomplete,false,true,NA,7,7,NA,white,m_s_060.jpg,NA,NA,unpleasant,pleasant,NA,NA,NA,NA,NA,left,1557,true,NA,NA,NA,NA,NA
4ozmjj1y,3r0wocg22pm4csvtiwincc3gz22duj,3mrnmeiqw9j3gm6t0kvoa93potjld0,4ozmjj1y,2020-0188,2021-10-14,10:18:43,13:23:38,NA,incomplete,false,true,NA,7,8,NA,white,m_s_054.jpg,NA,NA,unpleasant,pleasant,NA,NA,NA,NA,NA,right,498,true,NA,NA,NA,NA,NA
4ozmjj1y,3r0wocg22pm4csvtiwincc3gz22duj,3mrnmeiqw9j3gm6t0kvoa93potjld0,4ozmjj1y,2020-0188,2021-10-14,10:18:43,13:23:38,NA,incomplete,false,true,NA,7,9,NA,white,n_s_039.jpg,NA,NA,pleasant,unpleasant,NA,NA,NA,NA,NA,right,1906,true,NA,NA,NA,NA,NA
4ozmjj1y,3r0wocg22pm4csvtiwincc3gz22duj,3mrnmeiqw9j3gm6t0kvoa93potjld0,4ozmjj1y,2020-0188,2021-10-14,10:18:43,13:23:38,NA,incomplete,false,true,NA,7,10,NA,white,n_s_029.jpg,NA,NA,unpleasant,pleasant,NA,NA,NA,NA,NA,left,1348,true,NA,NA,NA,NA,NA
4ozmjj1y,3r0wocg22pm4csvtiwincc3gz22duj,3mrnmeiqw9j3gm6t0kvoa93potjld0,4ozmjj1y,2020-0188,2021-10-14,10:18:43,13:23:38,NA,incomplete,false,true,NA,7,11,NA,white,m_l_011.jpg,NA,NA,pleasant,unpleasant,NA,NA,NA,NA,NA,left,2048,true,NA,NA,NA,NA,NA
4ozmjj1y,3r0wocg22pm4csvtiwincc3gz22duj,3mrnmeiqw9j3gm6t0kvoa93potjld0,4ozmjj1y,2020-0188,2021-10-14,10:18:43,13:23:38,NA,incomplete,false,true,NA,7,12,NA,gray,m_l_008.jpg,NA,NA,unpleasant,pleasant,NA,NA,NA,NA,NA,right,1999,true,NA,NA,NA,NA,NA
4ozmjj1y,3r0wocg22pm4csvtiwincc3gz22duj,3mrnmeiqw9j3gm6t0kvoa93potjld0,4ozmjj1y,2020-0188,2021-10-14,10:18:43,13:23:38,NA,incomplete,false,true,NA,7,13,NA,gray,n_l_097.jpg,NA,NA,pleasant,unpleasant,NA,NA,NA,NA,NA,right,2077,true,NA,NA,NA,NA,NA
4ozmjj1y,3r0wocg22pm4csvtiwincc3gz22duj,3mrnmeiqw9j3gm6t0kvoa93potjld0,4ozmjj1y,2020-0188,2021-10-14,10:18:43,13:23:38,NA,incomplete,false,true,NA,7,14,NA,gray,m_l_099.jpg,NA,NA,unpleasant,pleasant,NA,NA,NA,NA,NA,left,2859,true,NA,NA,NA,NA,NA
4ozmjj1y,3r0wocg22pm4csvtiwincc3gz22duj,3mrnmeiqw9j3gm6t0kvoa93potjld0,4ozmjj1y,2020-0188,2021-10-14,10:18:43,13:23:38,NA,incomplete,false,true,NA,7,15,NA,gray,m_l_115.jpg,NA,NA,unpleasant,pleasant,NA,NA,NA,NA,NA,none,0,false,NA,NA,NA,NA,NA
4ozmjj1y,3r0wocg22pm4csvtiwincc3gz22duj,3mrnmeiqw9j3gm6t0kvoa93potjld0,4ozmjj1y,2020-0188,2021-10-14,10:18:43,13:23:38,NA,incomplete,false,true,NA,7,16,NA,gray,n_s_024.jpg,NA,NA,pleasant,unpleasant,NA,NA,NA,NA,NA,right,33,true,NA,NA,NA,NA,NA
4ozmjj1y,3r0wocg22pm4csvtiwincc3gz22duj,3mrnmeiqw9j3gm6t0kvoa93potjld0,4ozmjj1y,2020-0188,2021-10-14,10:18:43,13:23:38,NA,incomplete,false,true,NA,7,17,NA,gray,n_l_072.jpg,NA,NA,pleasant,unpleasant,NA,NA,NA,NA,NA,right,1563,true,NA,NA,NA,NA,NA
4ozmjj1y,3r0wocg22pm4csvtiwincc3gz22duj,3mrnmeiqw9j3gm6t0kvoa93potjld0,4ozmjj1y,2020-0188,2021-10-14,10:18:43,13:23:38,NA,incomplete,false,true,NA,7,18,NA,red,m_s_008.jpg,NA,NA,unpleasant,pleasant,NA,NA,NA,NA,NA,right,1587,true,NA,NA,NA,NA,NA
4ozmjj1y,3r0wocg22pm4csvtiwincc3gz22duj,3mrnmeiqw9j3gm6t0kvoa93potjld0,4ozmjj1y,2020-0188,2021-10-14,10:18:43,13:23:38,NA,incomplete,false,true,NA,7,19,NA,red,m_l_114.jpg,NA,NA,unpleasant,pleasant,NA,NA,NA,NA,NA,left,1522,true,NA,NA,NA,NA,NA
4ozmjj1y,3r0wocg22pm4csvtiwincc3gz22duj,3mrnmeiqw9j3gm6t0kvoa93potjld0,4ozmjj1y,2020-0188,2021-10-14,10:18:43,13:23:38,NA,incomplete,false,true,NA,7,20,NA,red,m_s_093.jpg,NA,NA,unpleasant,pleasant,NA,NA,NA,NA,NA,none,0,false,NA,NA,NA,NA,NA
4ozmjj1y,3r0wocg22pm4csvtiwincc3gz22duj,3mrnmeiqw9j3gm6t0kvoa93potjld0,4ozmjj1y,2020-0188,2021-10-14,10:18:43,13:23:38,NA,incomplete,false,true,NA,7,21,NA,red,n_l_002.jpg,NA,NA,unpleasant,pleasant,NA,NA,NA,NA,NA,none,0,false,NA,NA,NA,NA,NA
4ozmjj1y,3r0wocg22pm4csvtiwincc3gz22duj,3mrnmeiqw9j3gm6t0kvoa93potjld0,4ozmjj1y,2020-0188,2021-10-14,10:18:43,13:23:38,NA,incomplete,false,true,NA,7,22,NA,red,m_s_062.jpg,NA,NA,unpleasant,pleasant,NA,NA,NA,NA,NA,right,842,true,NA,NA,NA,NA,NA
4ozmjj1y,3r0wocg22pm4csvtiwincc3gz22duj,3mrnmeiqw9j3gm6t0kvoa93potjld0,4ozmjj1y,2020-0188,2021-10-14,10:18:43,13:23:38,NA,incomplete,false,true,NA,7,23,NA,red,m_s_063.jpg,NA,NA,unpleasant,pleasant,NA,NA,NA,NA,NA,right,1108,true,NA,NA,NA,NA,NA
4ozmjj1y,3r0wocg22pm4csvtiwincc3gz22duj,3mrnmeiqw9j3gm6t0kvoa93potjld0,4ozmjj1y,2020-0188,2021-10-14,10:18:43,13:23:38,NA,incomplete,false,true,NA,7,24,NA,yellow,n_s_010.jpg,NA,NA,unpleasant,pleasant,NA,NA,NA,NA,NA,left,1268,true,NA,NA,NA,NA,NA
4ozmjj1y,3r0wocg22pm4csvtiwincc3gz22duj,3mrnmeiqw9j3gm6t0kvoa93potjld0,4ozmjj1y,2020-0188,2021-10-14,10:18:43,13:23:38,NA,incomplete,false,true,NA,7,25,NA,yellow,m_l_087.jpg,NA,NA,pleasant,unpleasant,NA,NA,NA,NA,NA,right,918,true,NA,NA,NA,NA,NA
4ozmjj1y,3r0wocg22pm4csvtiwincc3gz22duj,3mrnmeiqw9j3gm6t0kvoa93potjld0,4ozmjj1y,2020-0188,2021-10-14,10:18:43,13:23:38,NA,incomplete,false,true,NA,7,26,NA,yellow,m_l_021.jpg,NA,NA,pleasant,unpleasant,NA,NA,NA,NA,NA,left,1357,true,NA,NA,NA,NA,NA
4ozmjj1y,3r0wocg22pm4csvtiwincc3gz22duj,3mrnmeiqw9j3gm6t0kvoa93potjld0,4ozmjj1y,2020-0188,2021-10-14,10:18:43,13:23:38,NA,incomplete,false,true,NA,7,27,NA,yellow,m_s_009.jpg,NA,NA,unpleasant,pleasant,NA,NA,NA,NA,NA,none,0,false,NA,NA,NA,NA,NA
4ozmjj1y,3r0wocg22pm4csvtiwincc3gz22duj,3mrnmeiqw9j3gm6t0kvoa93potjld0,4ozmjj1y,2020-0188,2021-10-14,10:18:43,13:23:38,NA,incomplete,false,true,NA,7,28,NA,yellow,m_s_078.jpg,NA,NA,pleasant,unpleasant,NA,NA,NA,NA,NA,none,0,false,NA,NA,NA,NA,NA
4ozmjj1y,3r0wocg22pm4csvtiwincc3gz22duj,3mrnmeiqw9j3gm6t0kvoa93potjld0,4ozmjj1y,2020-0188,2021-10-14,10:18:43,13:23:38,NA,incomplete,false,true,NA,7,29,NA,yellow,m_s_014.jpg,NA,NA,pleasant,unpleasant,NA,NA,NA,NA,NA,right,2597,true,NA,NA,NA,NA,NA
4ozmjj1y,3r0wocg22pm4csvtiwincc3gz22duj,3mrnmeiqw9j3gm6t0kvoa93potjld0,4ozmjj1y,2020-0188,2021-10-14,10:18:43,13:23:38,NA,incomplete,false,true,NA,7,30,NA,black,n_s_113.jpg,NA,NA,unpleasant,pleasant,NA,NA,NA,NA,NA,none,0,false,NA,NA,NA,NA,NA
4ozmjj1y,3r0wocg22pm4csvtiwincc3gz22duj,3mrnmeiqw9j3gm6t0kvoa93potjld0,4ozmjj1y,2020-0188,2021-10-14,10:18:43,13:23:38,NA,incomplete,false,true,NA,7,31,NA,black,n_l_016.jpg,NA,NA,pleasant,unpleasant,NA,NA,NA,NA,NA,none,0,false,NA,NA,NA,NA,NA
4ozmjj1y,3r0wocg22pm4csvtiwincc3gz22duj,3mrnmeiqw9j3gm6t0kvoa93potjld0,4ozmjj1y,2020-0188,2021-10-14,10:18:43,13:23:38,NA,incomplete,false,true,NA,7,32,NA,black,n_s_017.jpg,NA,NA,unpleasant,pleasant,NA,NA,NA,NA,NA,right,147,true,NA,NA,NA,NA,NA
4ozmjj1y,3r0wocg22pm4csvtiwincc3gz22duj,3mrnmeiqw9j3gm6t0kvoa93potjld0,4ozmjj1y,2020-0188,2021-10-14,10:18:43,13:23:38,NA,incomplete,false,true,NA,7,33,NA,black,m_l_010.jpg,NA,NA,pleasant,unpleasant,NA,NA,NA,NA,NA,right,2419,true,NA,NA,NA,NA,NA
4ozmjj1y,3r0wocg22pm4csvtiwincc3gz22duj,3mrnmeiqw9j3gm6t0kvoa93potjld0,4ozmjj1y,2020-0188,2021-10-14,10:18:43,13:23:38,NA,incomplete,false,true,NA,7,34,NA,black,n_s_046.jpg,NA,NA,unpleasant,pleasant,NA,NA,NA,NA,NA,none,0,false,NA,NA,NA,NA,NA
4ozmjj1y,3r0wocg22pm4csvtiwincc3gz22duj,3mrnmeiqw9j3gm6t0kvoa93potjld0,4ozmjj1y,2020-0188,2021-10-14,10:18:43,13:23:38,NA,incomplete,false,true,NA,7,35,NA,black,m_l_100.jpg,NA,NA,unpleasant,pleasant,NA,NA,NA,NA,NA,none,0,false,NA,NA,NA,NA,NA
4ozmjj1y,3r0wocg22pm4csvtiwincc3gz22duj,3mrnmeiqw9j3gm6t0kvoa93potjld0,4ozmjj1y,2020-0188,2021-10-14,10:18:43,13:23:38,NA,incomplete,false,NA,true,7,0,NA,NA,NA,right,present,NA,NA,m_s_093.jpg,red,n_s_024.jpg,gray,between,NA,NaN,NA,right,8549,1,1,4308
4ozmjj1y,3r0wocg22pm4csvtiwincc3gz22duj,3mrnmeiqw9j3gm6t0kvoa93potjld0,4ozmjj1y,2020-0188,2021-10-14,10:18:43,13:23:38,NA,incomplete,false,NA,true,7,1,NA,NA,NA,left,present,NA,NA,n_s_029.jpg,white,m_l_099.jpg,gray,between,NA,NaN,NA,left,4199,1,2,3539
4ozmjj1y,3r0wocg22pm4csvtiwincc3gz22duj,3mrnmeiqw9j3gm6t0kvoa93potjld0,4ozmjj1y,2020-0188,2021-10-14,10:18:43,13:23:38,NA,incomplete,false,NA,true,7,2,NA,NA,NA,right,present,NA,NA,n_s_069.jpg,blue,n_s_042.jpg,blue,within,NA,NaN,NA,left,5967,0,1,1660
4ozmjj1y,3r0wocg22pm4csvtiwincc3gz22duj,3mrnmeiqw9j3gm6t0kvoa93potjld0,4ozmjj1y,2020-0188,2021-10-14,10:18:43,13:23:38,NA,incomplete,false,NA,true,7,3,NA,NA,NA,right,present,NA,NA,m_s_063.jpg,red,m_l_114.jpg,red,within,NA,NaN,NA,left,5874,0,2,1900
4ozmjj1y,3r0wocg22pm4csvtiwincc3gz22duj,3mrnmeiqw9j3gm6t0kvoa93potjld0,4ozmjj1y,2020-0188,2021-10-14,10:18:43,13:23:38,NA,incomplete,false,NA,true,7,4,NA,NA,NA,left,present,NA,NA,m_s_078.jpg,yellow,n_s_017.jpg,black,between,NA,NaN,NA,right,2583,0,1,2139
4ozmjj1y,3r0wocg22pm4csvtiwincc3gz22duj,3mrnmeiqw9j3gm6t0kvoa93potjld0,4ozmjj1y,2020-0188,2021-10-14,10:18:43,13:23:38,NA,incomplete,false,NA,true,7,5,NA,NA,NA,right,present,NA,NA,m_l_021.jpg,yellow,m_s_062.jpg,red,between,NA,NaN,NA,right,2179,1,0,1135
4ozmjj1y,3r0wocg22pm4csvtiwincc3gz22duj,3mrnmeiqw9j3gm6t0kvoa93potjld0,4ozmjj1y,2020-0188,2021-10-14,10:18:43,13:23:38,NA,incomplete,false,NA,true,7,6,NA,NA,NA,right,present,NA,NA,n_l_072.jpg,gray,n_l_097.jpg,gray,within,NA,NaN,NA,right,2504,1,1,1959
4ozmjj1y,3r0wocg22pm4csvtiwincc3gz22duj,3mrnmeiqw9j3gm6t0kvoa93potjld0,4ozmjj1y,2020-0188,2021-10-14,10:18:43,13:23:38,NA,incomplete,false,NA,true,7,7,NA,NA,NA,left,present,NA,NA,n_l_041.jpg,blue,m_s_054.jpg,white,between,NA,NaN,NA,right,2623,0,1,3104
4ozmjj1y,3r0wocg22pm4csvtiwincc3gz22duj,3mrnmeiqw9j3gm6t0kvoa93potjld0,4ozmjj1y,2020-0188,2021-10-14,10:18:43,13:23:38,NA,incomplete,false,NA,true,7,8,NA,NA,NA,right,present,NA,NA,m_l_100.jpg,black,n_l_016.jpg,black,within,NA,NaN,NA,right,3134,1,2,3221
4ozmjj1y,3r0wocg22pm4csvtiwincc3gz22duj,3mrnmeiqw9j3gm6t0kvoa93potjld0,4ozmjj1y,2020-0188,2021-10-14,10:18:43,13:23:38,NA,incomplete,false,NA,true,7,9,NA,NA,NA,right,present,NA,NA,m_s_014.jpg,yellow,m_l_087.jpg,yellow,within,NA,NaN,NA,left,2058,0,1,2029
4ozmjj1y,3r0wocg22pm4csvtiwincc3gz22duj,3mrnmeiqw9j3gm6t0kvoa93potjld0,4ozmjj1y,2020-0188,2021-10-14,10:18:43,13:23:38,NA,incomplete,false,NA,true,7,10,NA,NA,NA,left,present,NA,NA,m_s_060.jpg,white,m_l_011.jpg,white,within,NA,NaN,NA,right,2782,0,2,7775
4ozmjj1y,3r0wocg22pm4csvtiwincc3gz22duj,3mrnmeiqw9j3gm6t0kvoa93potjld0,4ozmjj1y,2020-0188,2021-10-14,10:18:43,13:23:38,NA,incomplete,false,true,NA,8,0,NA,orange,n_s_111.jpg,NA,NA,pleasant,unpleasant,NA,NA,NA,NA,NA,none,0,false,NA,NA,NA,NA,NA
4ozmjj1y,3r0wocg22pm4csvtiwincc3gz22duj,3mrnmeiqw9j3gm6t0kvoa93potjld0,4ozmjj1y,2020-0188,2021-10-14,10:18:43,13:23:38,NA,incomplete,false,true,NA,8,1,NA,orange,m_s_105.jpg,NA,NA,unpleasant,pleasant,NA,NA,NA,NA,NA,right,3377,true,NA,NA,NA,NA,NA
4ozmjj1y,3r0wocg22pm4csvtiwincc3gz22duj,3mrnmeiqw9j3gm6t0kvoa93potjld0,4ozmjj1y,2020-0188,2021-10-14,10:18:43,13:23:38,NA,incomplete,false,true,NA,8,2,NA,orange,m_s_049.jpg,NA,NA,unpleasant,pleasant,NA,NA,NA,NA,NA,right,1997,true,NA,NA,NA,NA,NA
4ozmjj1y,3r0wocg22pm4csvtiwincc3gz22duj,3mrnmeiqw9j3gm6t0kvoa93potjld0,4ozmjj1y,2020-0188,2021-10-14,10:18:43,13:23:38,NA,incomplete,false,true,NA,8,3,NA,orange,m_s_080.jpg,NA,NA,unpleasant,pleasant,NA,NA,NA,NA,NA,none,0,false,NA,NA,NA,NA,NA
4ozmjj1y,3r0wocg22pm4csvtiwincc3gz22duj,3mrnmeiqw9j3gm6t0kvoa93potjld0,4ozmjj1y,2020-0188,2021-10-14,10:18:43,13:23:38,NA,incomplete,false,true,NA,8,4,NA,orange,n_l_025.jpg,NA,NA,unpleasant,pleasant,NA,NA,NA,NA,NA,none,0,false,NA,NA,NA,NA,NA
4ozmjj1y,3r0wocg22pm4csvtiwincc3gz22duj,3mrnmeiqw9j3gm6t0kvoa93potjld0,4ozmjj1y,2020-0188,2021-10-14,10:18:43,13:23:38,NA,incomplete,false,true,NA,8,5,NA,orange,n_l_038.jpg,NA,NA,pleasant,unpleasant,NA,NA,NA,NA,NA,right,1483,true,NA,NA,NA,NA,NA
4ozmjj1y,3r0wocg22pm4csvtiwincc3gz22duj,3mrnmeiqw9j3gm6t0kvoa93potjld0,4ozmjj1y,2020-0188,2021-10-14,10:18:43,13:23:38,NA,incomplete,false,true,NA,8,6,NA,brown,m_s_006.jpg,NA,NA,pleasant,unpleasant,NA,NA,NA,NA,NA,none,0,false,NA,NA,NA,NA,NA
4ozmjj1y,3r0wocg22pm4csvtiwincc3gz22duj,3mrnmeiqw9j3gm6t0kvoa93potjld0,4ozmjj1y,2020-0188,2021-10-14,10:18:43,13:23:38,NA,incomplete,false,true,NA,8,7,NA,brown,m_s_002.jpg,NA,NA,unpleasant,pleasant,NA,NA,NA,NA,NA,none,0,false,NA,NA,NA,NA,NA
4ozmjj1y,3r0wocg22pm4csvtiwincc3gz22duj,3mrnmeiqw9j3gm6t0kvoa93potjld0,4ozmjj1y,2020-0188,2021-10-14,10:18:43,13:23:38,NA,incomplete,false,true,NA,8,8,NA,brown,n_s_001.jpg,NA,NA,unpleasant,pleasant,NA,NA,NA,NA,NA,right,2448,true,NA,NA,NA,NA,NA
4ozmjj1y,3r0wocg22pm4csvtiwincc3gz22duj,3mrnmeiqw9j3gm6t0kvoa93potjld0,4ozmjj1y,2020-0188,2021-10-14,10:18:43,13:23:38,NA,incomplete,false,true,NA,8,9,NA,brown,n_s_011.jpg,NA,NA,unpleasant,pleasant,NA,NA,NA,NA,NA,none,0,false,NA,NA,NA,NA,NA
4ozmjj1y,3r0wocg22pm4csvtiwincc3gz22duj,3mrnmeiqw9j3gm6t0kvoa93potjld0,4ozmjj1y,2020-0188,2021-10-14,10:18:43,13:23:38,NA,incomplete,false,true,NA,8,10,NA,brown,m_s_073.jpg,NA,NA,pleasant,unpleasant,NA,NA,NA,NA,NA,none,0,false,NA,NA,NA,NA,NA
4ozmjj1y,3r0wocg22pm4csvtiwincc3gz22duj,3mrnmeiqw9j3gm6t0kvoa93potjld0,4ozmjj1y,2020-0188,2021-10-14,10:18:43,13:23:38,NA,incomplete,false,true,NA,8,11,NA,brown,n_l_040.jpg,NA,NA,pleasant,unpleasant,NA,NA,NA,NA,NA,none,0,false,NA,NA,NA,NA,NA
4ozmjj1y,3r0wocg22pm4csvtiwincc3gz22duj,3mrnmeiqw9j3gm6t0kvoa93potjld0,4ozmjj1y,2020-0188,2021-10-14,10:18:43,13:23:38,NA,incomplete,false,true,NA,8,12,NA,white,m_s_055.jpg,NA,NA,unpleasant,pleasant,NA,NA,NA,NA,NA,right,2768,true,NA,NA,NA,NA,NA
4ozmjj1y,3r0wocg22pm4csvtiwincc3gz22duj,3mrnmeiqw9j3gm6t0kvoa93potjld0,4ozmjj1y,2020-0188,2021-10-14,10:18:43,13:23:38,NA,incomplete,false,true,NA,8,13,NA,white,n_s_031.jpg,NA,NA,unpleasant,pleasant,NA,NA,NA,NA,NA,right,1859,true,NA,NA,NA,NA,NA
4ozmjj1y,3r0wocg22pm4csvtiwincc3gz22duj,3mrnmeiqw9j3gm6t0kvoa93potjld0,4ozmjj1y,2020-0188,2021-10-14,10:18:43,13:23:38,NA,incomplete,false,true,NA,8,14,NA,white,m_s_015.jpg,NA,NA,unpleasant,pleasant,NA,NA,NA,NA,NA,none,0,false,NA,NA,NA,NA,NA
4ozmjj1y,3r0wocg22pm4csvtiwincc3gz22duj,3mrnmeiqw9j3gm6t0kvoa93potjld0,4ozmjj1y,2020-0188,2021-10-14,10:18:43,13:23:38,NA,incomplete,false,true,NA,8,15,NA,white,n_s_067.jpg,NA,NA,pleasant,unpleasant,NA,NA,NA,NA,NA,right,1919,true,NA,NA,NA,NA,NA
4ozmjj1y,3r0wocg22pm4csvtiwincc3gz22duj,3mrnmeiqw9j3gm6t0kvoa93potjld0,4ozmjj1y,2020-0188,2021-10-14,10:18:43,13:23:38,NA,incomplete,false,true,NA,8,16,NA,white,n_s_078.jpg,NA,NA,pleasant,unpleasant,NA,NA,NA,NA,NA,none,0,false,NA,NA,NA,NA,NA
4ozmjj1y,3r0wocg22pm4csvtiwincc3gz22duj,3mrnmeiqw9j3gm6t0kvoa93potjld0,4ozmjj1y,2020-0188,2021-10-14,10:18:43,13:23:38,NA,incomplete,false,true,NA,8,17,NA,white,m_l_027.jpg,NA,NA,pleasant,unpleasant,NA,NA,NA,NA,NA,right,1119,true,NA,NA,NA,NA,NA
4ozmjj1y,3r0wocg22pm4csvtiwincc3gz22duj,3mrnmeiqw9j3gm6t0kvoa93potjld0,4ozmjj1y,2020-0188,2021-10-14,10:18:43,13:23:38,NA,incomplete,false,true,NA,8,18,NA,black,m_s_100.jpg,NA,NA,pleasant,unpleasant,NA,NA,NA,NA,NA,right,1152,true,NA,NA,NA,NA,NA
4ozmjj1y,3r0wocg22pm4csvtiwincc3gz22duj,3mrnmeiqw9j3gm6t0kvoa93potjld0,4ozmjj1y,2020-0188,2021-10-14,10:18:43,13:23:38,NA,incomplete,false,true,NA,8,19,NA,black,m_l_095.jpg,NA,NA,unpleasant,pleasant,NA,NA,NA,NA,NA,right,1883,true,NA,NA,NA,NA,NA
4ozmjj1y,3r0wocg22pm4csvtiwincc3gz22duj,3mrnmeiqw9j3gm6t0kvoa93potjld0,4ozmjj1y,2020-0188,2021-10-14,10:18:43,13:23:38,NA,incomplete,false,true,NA,8,20,NA,black,n_l_093.jpg,NA,NA,pleasant,unpleasant,NA,NA,NA,NA,NA,none,0,false,NA,NA,NA,NA,NA
4ozmjj1y,3r0wocg22pm4csvtiwincc3gz22duj,3mrnmeiqw9j3gm6t0kvoa93potjld0,4ozmjj1y,2020-0188,2021-10-14,10:18:43,13:23:38,NA,incomplete,false,true,NA,8,21,NA,black,m_l_022.jpg,NA,NA,pleasant,unpleasant,NA,NA,NA,NA,NA,none,0,false,NA,NA,NA,NA,NA
4ozmjj1y,3r0wocg22pm4csvtiwincc3gz22duj,3mrnmeiqw9j3gm6t0kvoa93potjld0,4ozmjj1y,2020-0188,2021-10-14,10:18:43,13:23:38,NA,incomplete,false,true,NA,8,22,NA,black,m_l_013.jpg,NA,NA,unpleasant,pleasant,NA,NA,NA,NA,NA,none,0,false,NA,NA,NA,NA,NA
4ozmjj1y,3r0wocg22pm4csvtiwincc3gz22duj,3mrnmeiqw9j3gm6t0kvoa93potjld0,4ozmjj1y,2020-0188,2021-10-14,10:18:43,13:23:38,NA,incomplete,false,true,NA,8,23,NA,black,n_s_022.jpg,NA,NA,pleasant,unpleasant,NA,NA,NA,NA,NA,none,0,false,NA,NA,NA,NA,NA
4ozmjj1y,3r0wocg22pm4csvtiwincc3gz22duj,3mrnmeiqw9j3gm6t0kvoa93potjld0,4ozmjj1y,2020-0188,2021-10-14,10:18:43,13:23:38,NA,incomplete,false,true,NA,8,24,NA,red,m_s_044.jpg,NA,NA,unpleasant,pleasant,NA,NA,NA,NA,NA,left,3,true,NA,NA,NA,NA,NA
4ozmjj1y,3r0wocg22pm4csvtiwincc3gz22duj,3mrnmeiqw9j3gm6t0kvoa93potjld0,4ozmjj1y,2020-0188,2021-10-14,10:18:43,13:23:38,NA,incomplete,false,true,NA,8,25,NA,red,n_l_043.jpg,NA,NA,pleasant,unpleasant,NA,NA,NA,NA,NA,none,0,false,NA,NA,NA,NA,NA
4ozmjj1y,3r0wocg22pm4csvtiwincc3gz22duj,3mrnmeiqw9j3gm6t0kvoa93potjld0,4ozmjj1y,2020-0188,2021-10-14,10:18:43,13:23:38,NA,incomplete,false,true,NA,8,26,NA,red,n_l_094.jpg,NA,NA,pleasant,unpleasant,NA,NA,NA,NA,NA,none,0,false,NA,NA,NA,NA,NA
4ozmjj1y,3r0wocg22pm4csvtiwincc3gz22duj,3mrnmeiqw9j3gm6t0kvoa93potjld0,4ozmjj1y,2020-0188,2021-10-14,10:18:43,13:23:38,NA,incomplete,false,true,NA,8,27,NA,red,m_s_113.jpg,NA,NA,unpleasant,pleasant,NA,NA,NA,NA,NA,none,0,false,NA,NA,NA,NA,NA
4ozmjj1y,3r0wocg22pm4csvtiwincc3gz22duj,3mrnmeiqw9j3gm6t0kvoa93potjld0,4ozmjj1y,2020-0188,2021-10-14,10:18:43,13:23:38,NA,incomplete,false,true,NA,8,28,NA,red,n_s_032.jpg,NA,NA,pleasant,unpleasant,NA,NA,NA,NA,NA,none,0,false,NA,NA,NA,NA,NA
