workerId,hitId,assignmentId,subject,studyid,exp_date,exp_start,exp_end,time_start,time_end,practice,encoding,memory,block,trial,event_order,event,stim,answer,context_type,label_left,label_right,left_image,left_event,right_image,right_event,condition,response,response_time,response_acc,order_response,order_response_time,order_acc,distance_response,distance_response_time
5noeJdMe,3t2hw4qdvykwn81ckpslwayk1hg9co,3uwn2hhpu2iz6bsw9n6si0teurtsn3,5noeJdMe,2020-0188,2021-10-14,09:41:00,11:24:06,NA,incomplete,true,true,NA,0,0,NA,red,m_s_089.jpg,NA,NA,unpleasant,pleasant,NA,NA,NA,NA,NA,left,1108.30000007153,true,NA,NA,NA,NA,NA
5noeJdMe,3t2hw4qdvykwn81ckpslwayk1hg9co,3uwn2hhpu2iz6bsw9n6si0teurtsn3,5noeJdMe,2020-0188,2021-10-14,09:41:00,11:24:06,NA,incomplete,true,true,NA,0,1,NA,red,m_l_051.jpg,NA,NA,unpleasant,pleasant,NA,NA,NA,NA,NA,left,737.699999928474,true,NA,NA,NA,NA,NA
5noeJdMe,3t2hw4qdvykwn81ckpslwayk1hg9co,3uwn2hhpu2iz6bsw9n6si0teurtsn3,5noeJdMe,2020-0188,2021-10-14,09:41:00,11:24:06,NA,incomplete,true,true,NA,0,2,NA,red,m_s_036.jpg,NA,NA,unpleasant,pleasant,NA,NA,NA,NA,NA,left,739,true,NA,NA,NA,NA,NA
5noeJdMe,3t2hw4qdvykwn81ckpslwayk1hg9co,3uwn2hhpu2iz6bsw9n6si0teurtsn3,5noeJdMe,2020-0188,2021-10-14,09:41:00,11:24:06,NA,incomplete,true,true,NA,0,3,NA,red,n_s_108.jpg,NA,NA,unpleasant,pleasant,NA,NA,NA,NA,NA,left,708.599999904633,true,NA,NA,NA,NA,NA
5noeJdMe,3t2hw4qdvykwn81ckpslwayk1hg9co,3uwn2hhpu2iz6bsw9n6si0teurtsn3,5noeJdMe,2020-0188,2021-10-14,09:41:00,11:24:06,NA,incomplete,true,true,NA,0,4,NA,red,n_s_039.jpg,NA,NA,unpleasant,pleasant,NA,NA,NA,NA,NA,left,686.899999976158,true,NA,NA,NA,NA,NA
5noeJdMe,3t2hw4qdvykwn81ckpslwayk1hg9co,3uwn2hhpu2iz6bsw9n6si0teurtsn3,5noeJdMe,2020-0188,2021-10-14,09:41:00,11:24:06,NA,incomplete,true,true,NA,0,5,NA,red,n_s_020.jpg,NA,NA,pleasant,unpleasant,NA,NA,NA,NA,NA,left,770.899999976158,true,NA,NA,NA,NA,NA
5noeJdMe,3t2hw4qdvykwn81ckpslwayk1hg9co,3uwn2hhpu2iz6bsw9n6si0teurtsn3,5noeJdMe,2020-0188,2021-10-14,09:41:00,11:24:06,NA,incomplete,true,true,NA,0,6,NA,brown,n_l_043.jpg,NA,NA,pleasant,unpleasant,NA,NA,NA,NA,NA,left,2276.30000007153,true,NA,NA,NA,NA,NA
5noeJdMe,3t2hw4qdvykwn81ckpslwayk1hg9co,3uwn2hhpu2iz6bsw9n6si0teurtsn3,5noeJdMe,2020-0188,2021-10-14,09:41:00,11:24:06,NA,incomplete,true,true,NA,0,7,NA,brown,n_l_088.jpg,NA,NA,pleasant,unpleasant,NA,NA,NA,NA,NA,left,901.899999976158,true,NA,NA,NA,NA,NA
5noeJdMe,3t2hw4qdvykwn81ckpslwayk1hg9co,3uwn2hhpu2iz6bsw9n6si0teurtsn3,5noeJdMe,2020-0188,2021-10-14,09:41:00,11:24:06,NA,incomplete,true,true,NA,0,8,NA,brown,n_s_110.jpg,NA,NA,unpleasant,pleasant,NA,NA,NA,NA,NA,right,2290.30000007153,true,NA,NA,NA,NA,NA
5noeJdMe,3t2hw4qdvykwn81ckpslwayk1hg9co,3uwn2hhpu2iz6bsw9n6si0teurtsn3,5noeJdMe,2020-0188,2021-10-14,09:41:00,11:24:06,NA,incomplete,true,true,NA,0,9,NA,brown,n_s_091.jpg,NA,NA,unpleasant,pleasant,NA,NA,NA,NA,NA,right,945.100000023842,true,NA,NA,NA,NA,NA
5noeJdMe,3t2hw4qdvykwn81ckpslwayk1hg9co,3uwn2hhpu2iz6bsw9n6si0teurtsn3,5noeJdMe,2020-0188,2021-10-14,09:41:00,11:24:06,NA,incomplete,true,true,NA,0,10,NA,brown,m_s_096.jpg,NA,NA,pleasant,unpleasant,NA,NA,NA,NA,NA,left,1067.69999992847,true,NA,NA,NA,NA,NA
5noeJdMe,3t2hw4qdvykwn81ckpslwayk1hg9co,3uwn2hhpu2iz6bsw9n6si0teurtsn3,5noeJdMe,2020-0188,2021-10-14,09:41:00,11:24:06,NA,incomplete,true,true,NA,0,11,NA,brown,n_s_019.jpg,NA,NA,unpleasant,pleasant,NA,NA,NA,NA,NA,right,1198.39999997616,true,NA,NA,NA,NA,NA
5noeJdMe,3t2hw4qdvykwn81ckpslwayk1hg9co,3uwn2hhpu2iz6bsw9n6si0teurtsn3,5noeJdMe,2020-0188,2021-10-14,09:41:00,11:24:06,NA,incomplete,true,true,NA,0,12,NA,orange,m_l_003.jpg,NA,NA,pleasant,unpleasant,NA,NA,NA,NA,NA,left,1280.70000004768,true,NA,NA,NA,NA,NA
5noeJdMe,3t2hw4qdvykwn81ckpslwayk1hg9co,3uwn2hhpu2iz6bsw9n6si0teurtsn3,5noeJdMe,2020-0188,2021-10-14,09:41:00,11:24:06,NA,incomplete,true,true,NA,0,13,NA,orange,m_l_036.jpg,NA,NA,unpleasant,pleasant,NA,NA,NA,NA,NA,left,1593.10000002384,true,NA,NA,NA,NA,NA
5noeJdMe,3t2hw4qdvykwn81ckpslwayk1hg9co,3uwn2hhpu2iz6bsw9n6si0teurtsn3,5noeJdMe,2020-0188,2021-10-14,09:41:00,11:24:06,NA,incomplete,true,true,NA,0,14,NA,orange,n_s_040.jpg,NA,NA,pleasant,unpleasant,NA,NA,NA,NA,NA,right,1229.70000004768,true,NA,NA,NA,NA,NA
5noeJdMe,3t2hw4qdvykwn81ckpslwayk1hg9co,3uwn2hhpu2iz6bsw9n6si0teurtsn3,5noeJdMe,2020-0188,2021-10-14,09:41:00,11:24:06,NA,incomplete,true,true,NA,0,15,NA,orange,m_s_053.jpg,NA,NA,pleasant,unpleasant,NA,NA,NA,NA,NA,left,1287.10000002384,true,NA,NA,NA,NA,NA
5noeJdMe,3t2hw4qdvykwn81ckpslwayk1hg9co,3uwn2hhpu2iz6bsw9n6si0teurtsn3,5noeJdMe,2020-0188,2021-10-14,09:41:00,11:24:06,NA,incomplete,true,true,NA,0,16,NA,orange,n_l_099.jpg,NA,NA,unpleasant,pleasant,NA,NA,NA,NA,NA,left,1690.10000002384,true,NA,NA,NA,NA,NA
5noeJdMe,3t2hw4qdvykwn81ckpslwayk1hg9co,3uwn2hhpu2iz6bsw9n6si0teurtsn3,5noeJdMe,2020-0188,2021-10-14,09:41:00,11:24:06,NA,incomplete,true,true,NA,0,17,NA,orange,n_l_025.jpg,NA,NA,pleasant,unpleasant,NA,NA,NA,NA,NA,left,1551,true,NA,NA,NA,NA,NA
5noeJdMe,3t2hw4qdvykwn81ckpslwayk1hg9co,3uwn2hhpu2iz6bsw9n6si0teurtsn3,5noeJdMe,2020-0188,2021-10-14,09:41:00,11:24:06,NA,incomplete,true,true,NA,0,18,NA,yellow,m_l_024.jpg,NA,NA,pleasant,unpleasant,NA,NA,NA,NA,NA,left,1910.10000002384,true,NA,NA,NA,NA,NA
5noeJdMe,3t2hw4qdvykwn81ckpslwayk1hg9co,3uwn2hhpu2iz6bsw9n6si0teurtsn3,5noeJdMe,2020-0188,2021-10-14,09:41:00,11:24:06,NA,incomplete,true,true,NA,0,19,NA,yellow,n_s_017.jpg,NA,NA,pleasant,unpleasant,NA,NA,NA,NA,NA,right,1920.30000007153,true,NA,NA,NA,NA,NA
5noeJdMe,3t2hw4qdvykwn81ckpslwayk1hg9co,3uwn2hhpu2iz6bsw9n6si0teurtsn3,5noeJdMe,2020-0188,2021-10-14,09:41:00,11:24:06,NA,incomplete,true,true,NA,0,20,NA,yellow,m_s_111.jpg,NA,NA,pleasant,unpleasant,NA,NA,NA,NA,NA,left,1152.60000002384,true,NA,NA,NA,NA,NA
5noeJdMe,3t2hw4qdvykwn81ckpslwayk1hg9co,3uwn2hhpu2iz6bsw9n6si0teurtsn3,5noeJdMe,2020-0188,2021-10-14,09:41:00,11:24:06,NA,incomplete,true,true,NA,0,21,NA,yellow,n_s_081.jpg,NA,NA,pleasant,unpleasant,NA,NA,NA,NA,NA,left,1288.79999995232,true,NA,NA,NA,NA,NA
5noeJdMe,3t2hw4qdvykwn81ckpslwayk1hg9co,3uwn2hhpu2iz6bsw9n6si0teurtsn3,5noeJdMe,2020-0188,2021-10-14,09:41:00,11:24:06,NA,incomplete,true,true,NA,0,22,NA,yellow,n_s_087.jpg,NA,NA,unpleasant,pleasant,NA,NA,NA,NA,NA,left,1575.10000002384,true,NA,NA,NA,NA,NA
5noeJdMe,3t2hw4qdvykwn81ckpslwayk1hg9co,3uwn2hhpu2iz6bsw9n6si0teurtsn3,5noeJdMe,2020-0188,2021-10-14,09:41:00,11:24:06,NA,incomplete,true,true,NA,0,23,NA,yellow,m_l_008.jpg,NA,NA,unpleasant,pleasant,NA,NA,NA,NA,NA,right,1295.60000002384,true,NA,NA,NA,NA,NA
5noeJdMe,3t2hw4qdvykwn81ckpslwayk1hg9co,3uwn2hhpu2iz6bsw9n6si0teurtsn3,5noeJdMe,2020-0188,2021-10-14,09:41:00,11:24:06,NA,incomplete,true,true,NA,0,24,NA,green,m_s_040.jpg,NA,NA,pleasant,unpleasant,NA,NA,NA,NA,NA,left,1576,true,NA,NA,NA,NA,NA
5noeJdMe,3t2hw4qdvykwn81ckpslwayk1hg9co,3uwn2hhpu2iz6bsw9n6si0teurtsn3,5noeJdMe,2020-0188,2021-10-14,09:41:00,11:24:06,NA,incomplete,true,true,NA,0,25,NA,green,m_s_009.jpg,NA,NA,unpleasant,pleasant,NA,NA,NA,NA,NA,right,1321.59999990463,true,NA,NA,NA,NA,NA
5noeJdMe,3t2hw4qdvykwn81ckpslwayk1hg9co,3uwn2hhpu2iz6bsw9n6si0teurtsn3,5noeJdMe,2020-0188,2021-10-14,09:41:00,11:24:06,NA,incomplete,true,true,NA,0,26,NA,green,n_s_070.jpg,NA,NA,unpleasant,pleasant,NA,NA,NA,NA,NA,right,1074.79999995232,true,NA,NA,NA,NA,NA
5noeJdMe,3t2hw4qdvykwn81ckpslwayk1hg9co,3uwn2hhpu2iz6bsw9n6si0teurtsn3,5noeJdMe,2020-0188,2021-10-14,09:41:00,11:24:06,NA,incomplete,true,true,NA,0,27,NA,green,n_l_062.jpg,NA,NA,unpleasant,pleasant,NA,NA,NA,NA,NA,right,1664.30000007153,true,NA,NA,NA,NA,NA
5noeJdMe,3t2hw4qdvykwn81ckpslwayk1hg9co,3uwn2hhpu2iz6bsw9n6si0teurtsn3,5noeJdMe,2020-0188,2021-10-14,09:41:00,11:24:06,NA,incomplete,true,true,NA,0,28,NA,green,m_l_029.jpg,NA,NA,unpleasant,pleasant,NA,NA,NA,NA,NA,right,1042.59999990463,true,NA,NA,NA,NA,NA
5noeJdMe,3t2hw4qdvykwn81ckpslwayk1hg9co,3uwn2hhpu2iz6bsw9n6si0teurtsn3,5noeJdMe,2020-0188,2021-10-14,09:41:00,11:24:06,NA,incomplete,true,true,NA,0,29,NA,green,m_s_100.jpg,NA,NA,unpleasant,pleasant,NA,NA,NA,NA,NA,right,1027.5,true,NA,NA,NA,NA,NA
5noeJdMe,3t2hw4qdvykwn81ckpslwayk1hg9co,3uwn2hhpu2iz6bsw9n6si0teurtsn3,5noeJdMe,2020-0188,2021-10-14,09:41:00,11:24:06,NA,incomplete,true,true,NA,0,30,NA,black,m_s_029.jpg,NA,NA,unpleasant,pleasant,NA,NA,NA,NA,NA,left,1565.09999990463,true,NA,NA,NA,NA,NA
5noeJdMe,3t2hw4qdvykwn81ckpslwayk1hg9co,3uwn2hhpu2iz6bsw9n6si0teurtsn3,5noeJdMe,2020-0188,2021-10-14,09:41:00,11:24:06,NA,incomplete,true,true,NA,0,31,NA,black,n_s_059.jpg,NA,NA,pleasant,unpleasant,NA,NA,NA,NA,NA,right,1158.39999997616,true,NA,NA,NA,NA,NA
5noeJdMe,3t2hw4qdvykwn81ckpslwayk1hg9co,3uwn2hhpu2iz6bsw9n6si0teurtsn3,5noeJdMe,2020-0188,2021-10-14,09:41:00,11:24:06,NA,incomplete,true,true,NA,0,32,NA,black,n_l_092.jpg,NA,NA,unpleasant,pleasant,NA,NA,NA,NA,NA,left,1342.29999995232,true,NA,NA,NA,NA,NA
5noeJdMe,3t2hw4qdvykwn81ckpslwayk1hg9co,3uwn2hhpu2iz6bsw9n6si0teurtsn3,5noeJdMe,2020-0188,2021-10-14,09:41:00,11:24:06,NA,incomplete,true,true,NA,0,33,NA,black,n_l_047.jpg,NA,NA,unpleasant,pleasant,NA,NA,NA,NA,NA,left,1706.29999995232,true,NA,NA,NA,NA,NA
5noeJdMe,3t2hw4qdvykwn81ckpslwayk1hg9co,3uwn2hhpu2iz6bsw9n6si0teurtsn3,5noeJdMe,2020-0188,2021-10-14,09:41:00,11:24:06,NA,incomplete,true,true,NA,0,34,NA,black,m_l_016.jpg,NA,NA,unpleasant,pleasant,NA,NA,NA,NA,NA,right,1197.09999990463,true,NA,NA,NA,NA,NA
5noeJdMe,3t2hw4qdvykwn81ckpslwayk1hg9co,3uwn2hhpu2iz6bsw9n6si0teurtsn3,5noeJdMe,2020-0188,2021-10-14,09:41:00,11:24:06,NA,incomplete,true,true,NA,0,35,NA,black,n_s_042.jpg,NA,NA,pleasant,unpleasant,NA,NA,NA,NA,NA,right,1865.5,true,NA,NA,NA,NA,NA
5noeJdMe,3t2hw4qdvykwn81ckpslwayk1hg9co,3uwn2hhpu2iz6bsw9n6si0teurtsn3,5noeJdMe,2020-0188,2021-10-14,09:41:00,11:24:06,NA,incomplete,true,NA,true,0,0,NA,NA,NA,right,present,NA,NA,m_s_111.jpg,yellow,n_l_099.jpg,orange,between,NA,NaN,NA,left,4642.700000047684,0,2,3419.7999999523163
5noeJdMe,3t2hw4qdvykwn81ckpslwayk1hg9co,3uwn2hhpu2iz6bsw9n6si0teurtsn3,5noeJdMe,2020-0188,2021-10-14,09:41:00,11:24:06,NA,incomplete,true,NA,true,0,1,NA,NA,NA,left,absent,NA,NA,m_l_029.jpg,green,n_l_092.jpg,black,between,NA,NaN,NA,left,2978.7000000476837,1,1,2450.5
5noeJdMe,3t2hw4qdvykwn81ckpslwayk1hg9co,3uwn2hhpu2iz6bsw9n6si0teurtsn3,5noeJdMe,2020-0188,2021-10-14,09:41:00,11:24:06,NA,incomplete,true,NA,true,0,2,NA,NA,NA,left,present,NA,NA,m_s_096.jpg,brown,n_s_040.jpg,orange,between,NA,NaN,NA,right,4449.299999952316,0,1,1945.3999999761581
5noeJdMe,3t2hw4qdvykwn81ckpslwayk1hg9co,3uwn2hhpu2iz6bsw9n6si0teurtsn3,5noeJdMe,2020-0188,2021-10-14,09:41:00,11:24:06,NA,incomplete,true,NA,true,0,3,NA,NA,NA,right,absent,NA,NA,n_s_042.jpg,black,n_s_059.jpg,black,within,NA,NaN,NA,right,2006.2999999523163,1,1,2074.100000023842
5noeJdMe,3t2hw4qdvykwn81ckpslwayk1hg9co,3uwn2hhpu2iz6bsw9n6si0teurtsn3,5noeJdMe,2020-0188,2021-10-14,09:41:00,11:24:06,NA,incomplete,true,NA,true,0,4,NA,NA,NA,right,present,NA,NA,n_s_070.jpg,green,n_s_087.jpg,yellow,between,NA,NaN,NA,right,2347.600000023842,1,1,2821.600000023842
5noeJdMe,3t2hw4qdvykwn81ckpslwayk1hg9co,3uwn2hhpu2iz6bsw9n6si0teurtsn3,5noeJdMe,2020-0188,2021-10-14,09:41:00,11:24:06,NA,incomplete,true,NA,true,0,5,NA,NA,NA,right,present,NA,NA,n_s_020.jpg,red,m_l_051.jpg,red,within,NA,NaN,NA,right,2717.2999999523163,1,0,1596.2000000476837
5noeJdMe,3t2hw4qdvykwn81ckpslwayk1hg9co,3uwn2hhpu2iz6bsw9n6si0teurtsn3,5noeJdMe,2020-0188,2021-10-14,09:41:00,11:24:06,NA,incomplete,true,NA,true,0,6,NA,NA,NA,left,absent,NA,NA,n_s_017.jpg,yellow,m_l_008.jpg,yellow,within,NA,NaN,NA,right,1565.3000000715256,0,3,2489
5noeJdMe,3t2hw4qdvykwn81ckpslwayk1hg9co,3uwn2hhpu2iz6bsw9n6si0teurtsn3,5noeJdMe,2020-0188,2021-10-14,09:41:00,11:24:06,NA,incomplete,true,NA,true,0,7,NA,NA,NA,left,present,NA,NA,m_l_036.jpg,orange,n_l_025.jpg,orange,within,NA,NaN,NA,left,3309.5,1,0,789.8000000715256
5noeJdMe,3t2hw4qdvykwn81ckpslwayk1hg9co,3uwn2hhpu2iz6bsw9n6si0teurtsn3,5noeJdMe,2020-0188,2021-10-14,09:41:00,11:24:06,NA,incomplete,true,NA,true,0,8,NA,NA,NA,left,absent,NA,NA,n_l_088.jpg,brown,n_s_019.jpg,brown,within,NA,NaN,NA,right,2318,0,0,1592.7999999523163
5noeJdMe,3t2hw4qdvykwn81ckpslwayk1hg9co,3uwn2hhpu2iz6bsw9n6si0teurtsn3,5noeJdMe,2020-0188,2021-10-14,09:41:00,11:24:06,NA,incomplete,true,NA,true,0,9,NA,NA,NA,right,absent,NA,NA,n_s_110.jpg,brown,n_s_039.jpg,red,between,NA,NaN,NA,right,1977.3000000715256,1,1,1916.1999999284744
5noeJdMe,3t2hw4qdvykwn81ckpslwayk1hg9co,3uwn2hhpu2iz6bsw9n6si0teurtsn3,5noeJdMe,2020-0188,2021-10-14,09:41:00,11:24:06,NA,incomplete,true,NA,true,0,10,NA,NA,NA,left,present,NA,NA,m_s_009.jpg,green,m_s_100.jpg,green,within,NA,NaN,NA,left,3418.100000023842,1,0,2255.8000000715256
5noeJdMe,3t2hw4qdvykwn81ckpslwayk1hg9co,3uwn2hhpu2iz6bsw9n6si0teurtsn3,5noeJdMe,2020-0188,2021-10-14,09:41:00,11:24:06,NA,incomplete,false,true,NA,1,0,NA,brown,n_l_001.jpg,NA,NA,unpleasant,pleasant,NA,NA,NA,NA,NA,right,2603.19999992847,true,NA,NA,NA,NA,NA
5noeJdMe,3t2hw4qdvykwn81ckpslwayk1hg9co,3uwn2hhpu2iz6bsw9n6si0teurtsn3,5noeJdMe,2020-0188,2021-10-14,09:41:00,11:24:06,NA,incomplete,false,true,NA,1,1,NA,brown,n_s_065.jpg,NA,NA,unpleasant,pleasant,NA,NA,NA,NA,NA,right,2212.40000009537,true,NA,NA,NA,NA,NA
5noeJdMe,3t2hw4qdvykwn81ckpslwayk1hg9co,3uwn2hhpu2iz6bsw9n6si0teurtsn3,5noeJdMe,2020-0188,2021-10-14,09:41:00,11:24:06,NA,incomplete,false,true,NA,1,2,NA,brown,n_l_013.jpg,NA,NA,unpleasant,pleasant,NA,NA,NA,NA,NA,right,1544.90000009537,true,NA,NA,NA,NA,NA
5noeJdMe,3t2hw4qdvykwn81ckpslwayk1hg9co,3uwn2hhpu2iz6bsw9n6si0teurtsn3,5noeJdMe,2020-0188,2021-10-14,09:41:00,11:24:06,NA,incomplete,false,true,NA,1,3,NA,brown,m_l_039.jpg,NA,NA,unpleasant,pleasant,NA,NA,NA,NA,NA,right,1275.79999995232,true,NA,NA,NA,NA,NA
5noeJdMe,3t2hw4qdvykwn81ckpslwayk1hg9co,3uwn2hhpu2iz6bsw9n6si0teurtsn3,5noeJdMe,2020-0188,2021-10-14,09:41:00,11:24:06,NA,incomplete,false,true,NA,1,4,NA,brown,m_s_107.jpg,NA,NA,pleasant,unpleasant,NA,NA,NA,NA,NA,right,1277.5,true,NA,NA,NA,NA,NA
5noeJdMe,3t2hw4qdvykwn81ckpslwayk1hg9co,3uwn2hhpu2iz6bsw9n6si0teurtsn3,5noeJdMe,2020-0188,2021-10-14,09:41:00,11:24:06,NA,incomplete,false,true,NA,1,5,NA,brown,m_s_043.jpg,NA,NA,unpleasant,pleasant,NA,NA,NA,NA,NA,right,1603.60000002384,true,NA,NA,NA,NA,NA
5noeJdMe,3t2hw4qdvykwn81ckpslwayk1hg9co,3uwn2hhpu2iz6bsw9n6si0teurtsn3,5noeJdMe,2020-0188,2021-10-14,09:41:00,11:24:06,NA,incomplete,false,true,NA,1,6,NA,white,m_s_117.jpg,NA,NA,unpleasant,pleasant,NA,NA,NA,NA,NA,right,1637.10000002384,true,NA,NA,NA,NA,NA
5noeJdMe,3t2hw4qdvykwn81ckpslwayk1hg9co,3uwn2hhpu2iz6bsw9n6si0teurtsn3,5noeJdMe,2020-0188,2021-10-14,09:41:00,11:24:06,NA,incomplete,false,true,NA,1,7,NA,white,n_l_058.jpg,NA,NA,unpleasant,pleasant,NA,NA,NA,NA,NA,left,2144.59999990463,true,NA,NA,NA,NA,NA
5noeJdMe,3t2hw4qdvykwn81ckpslwayk1hg9co,3uwn2hhpu2iz6bsw9n6si0teurtsn3,5noeJdMe,2020-0188,2021-10-14,09:41:00,11:24:06,NA,incomplete,false,true,NA,1,8,NA,white,n_l_090.jpg,NA,NA,pleasant,unpleasant,NA,NA,NA,NA,NA,right,2049.5,true,NA,NA,NA,NA,NA
5noeJdMe,3t2hw4qdvykwn81ckpslwayk1hg9co,3uwn2hhpu2iz6bsw9n6si0teurtsn3,5noeJdMe,2020-0188,2021-10-14,09:41:00,11:24:06,NA,incomplete,false,true,NA,1,9,NA,white,n_l_008.jpg,NA,NA,pleasant,unpleasant,NA,NA,NA,NA,NA,right,2881.29999995232,true,NA,NA,NA,NA,NA
5noeJdMe,3t2hw4qdvykwn81ckpslwayk1hg9co,3uwn2hhpu2iz6bsw9n6si0teurtsn3,5noeJdMe,2020-0188,2021-10-14,09:41:00,11:24:06,NA,incomplete,false,true,NA,1,10,NA,white,n_l_071.jpg,NA,NA,pleasant,unpleasant,NA,NA,NA,NA,NA,right,1961.59999990463,true,NA,NA,NA,NA,NA
5noeJdMe,3t2hw4qdvykwn81ckpslwayk1hg9co,3uwn2hhpu2iz6bsw9n6si0teurtsn3,5noeJdMe,2020-0188,2021-10-14,09:41:00,11:24:06,NA,incomplete,false,true,NA,1,11,NA,white,n_l_027.jpg,NA,NA,unpleasant,pleasant,NA,NA,NA,NA,NA,left,1649,true,NA,NA,NA,NA,NA
5noeJdMe,3t2hw4qdvykwn81ckpslwayk1hg9co,3uwn2hhpu2iz6bsw9n6si0teurtsn3,5noeJdMe,2020-0188,2021-10-14,09:41:00,11:24:06,NA,incomplete,false,true,NA,1,12,NA,yellow,m_l_067.jpg,NA,NA,unpleasant,pleasant,NA,NA,NA,NA,NA,left,2535.79999995232,true,NA,NA,NA,NA,NA
5noeJdMe,3t2hw4qdvykwn81ckpslwayk1hg9co,3uwn2hhpu2iz6bsw9n6si0teurtsn3,5noeJdMe,2020-0188,2021-10-14,09:41:00,11:24:06,NA,incomplete,false,true,NA,1,13,NA,yellow,n_s_023.jpg,NA,NA,unpleasant,pleasant,NA,NA,NA,NA,NA,left,1207.30000007153,true,NA,NA,NA,NA,NA
5noeJdMe,3t2hw4qdvykwn81ckpslwayk1hg9co,3uwn2hhpu2iz6bsw9n6si0teurtsn3,5noeJdMe,2020-0188,2021-10-14,09:41:00,11:24:06,NA,incomplete,false,true,NA,1,14,NA,yellow,n_s_111.jpg,NA,NA,unpleasant,pleasant,NA,NA,NA,NA,NA,left,1235.5,true,NA,NA,NA,NA,NA
5noeJdMe,3t2hw4qdvykwn81ckpslwayk1hg9co,3uwn2hhpu2iz6bsw9n6si0teurtsn3,5noeJdMe,2020-0188,2021-10-14,09:41:00,11:24:06,NA,incomplete,false,true,NA,1,15,NA,yellow,m_s_110.jpg,NA,NA,pleasant,unpleasant,NA,NA,NA,NA,NA,left,1166.69999992847,true,NA,NA,NA,NA,NA
5noeJdMe,3t2hw4qdvykwn81ckpslwayk1hg9co,3uwn2hhpu2iz6bsw9n6si0teurtsn3,5noeJdMe,2020-0188,2021-10-14,09:41:00,11:24:06,NA,incomplete,false,true,NA,1,16,NA,yellow,n_s_103.jpg,NA,NA,pleasant,unpleasant,NA,NA,NA,NA,NA,right,1005.60000002384,true,NA,NA,NA,NA,NA
5noeJdMe,3t2hw4qdvykwn81ckpslwayk1hg9co,3uwn2hhpu2iz6bsw9n6si0teurtsn3,5noeJdMe,2020-0188,2021-10-14,09:41:00,11:24:06,NA,incomplete,false,true,NA,1,17,NA,yellow,n_s_074.jpg,NA,NA,unpleasant,pleasant,NA,NA,NA,NA,NA,right,2015.10000002384,true,NA,NA,NA,NA,NA
5noeJdMe,3t2hw4qdvykwn81ckpslwayk1hg9co,3uwn2hhpu2iz6bsw9n6si0teurtsn3,5noeJdMe,2020-0188,2021-10-14,09:41:00,11:24:06,NA,incomplete,false,true,NA,1,18,NA,black,n_s_067.jpg,NA,NA,pleasant,unpleasant,NA,NA,NA,NA,NA,right,1212.90000009537,true,NA,NA,NA,NA,NA
5noeJdMe,3t2hw4qdvykwn81ckpslwayk1hg9co,3uwn2hhpu2iz6bsw9n6si0teurtsn3,5noeJdMe,2020-0188,2021-10-14,09:41:00,11:24:06,NA,incomplete,false,true,NA,1,19,NA,black,n_s_018.jpg,NA,NA,pleasant,unpleasant,NA,NA,NA,NA,NA,right,1396.60000002384,true,NA,NA,NA,NA,NA
5noeJdMe,3t2hw4qdvykwn81ckpslwayk1hg9co,3uwn2hhpu2iz6bsw9n6si0teurtsn3,5noeJdMe,2020-0188,2021-10-14,09:41:00,11:24:06,NA,incomplete,false,true,NA,1,20,NA,black,m_s_026.jpg,NA,NA,unpleasant,pleasant,NA,NA,NA,NA,NA,left,2325.30000007153,true,NA,NA,NA,NA,NA
5noeJdMe,3t2hw4qdvykwn81ckpslwayk1hg9co,3uwn2hhpu2iz6bsw9n6si0teurtsn3,5noeJdMe,2020-0188,2021-10-14,09:41:00,11:24:06,NA,incomplete,false,true,NA,1,21,NA,black,n_s_001.jpg,NA,NA,unpleasant,pleasant,NA,NA,NA,NA,NA,left,1068.60000002384,true,NA,NA,NA,NA,NA
5noeJdMe,3t2hw4qdvykwn81ckpslwayk1hg9co,3uwn2hhpu2iz6bsw9n6si0teurtsn3,5noeJdMe,2020-0188,2021-10-14,09:41:00,11:24:06,NA,incomplete,false,true,NA,1,22,NA,black,m_s_006.jpg,NA,NA,unpleasant,pleasant,NA,NA,NA,NA,NA,left,1433.70000004768,true,NA,NA,NA,NA,NA
5noeJdMe,3t2hw4qdvykwn81ckpslwayk1hg9co,3uwn2hhpu2iz6bsw9n6si0teurtsn3,5noeJdMe,2020-0188,2021-10-14,09:41:00,11:24:06,NA,incomplete,false,true,NA,1,23,NA,black,m_s_058.jpg,NA,NA,pleasant,unpleasant,NA,NA,NA,NA,NA,right,1838.60000002384,true,NA,NA,NA,NA,NA
5noeJdMe,3t2hw4qdvykwn81ckpslwayk1hg9co,3uwn2hhpu2iz6bsw9n6si0teurtsn3,5noeJdMe,2020-0188,2021-10-14,09:41:00,11:24:06,NA,incomplete,false,true,NA,1,24,NA,red,m_l_055.jpg,NA,NA,pleasant,unpleasant,NA,NA,NA,NA,NA,right,1011,true,NA,NA,NA,NA,NA
5noeJdMe,3t2hw4qdvykwn81ckpslwayk1hg9co,3uwn2hhpu2iz6bsw9n6si0teurtsn3,5noeJdMe,2020-0188,2021-10-14,09:41:00,11:24:06,NA,incomplete,false,true,NA,1,25,NA,red,m_l_042.jpg,NA,NA,unpleasant,pleasant,NA,NA,NA,NA,NA,left,1276.60000002384,true,NA,NA,NA,NA,NA
5noeJdMe,3t2hw4qdvykwn81ckpslwayk1hg9co,3uwn2hhpu2iz6bsw9n6si0teurtsn3,5noeJdMe,2020-0188,2021-10-14,09:41:00,11:24:06,NA,incomplete,false,true,NA,1,26,NA,red,n_s_073.jpg,NA,NA,pleasant,unpleasant,NA,NA,NA,NA,NA,right,1156.20000004768,true,NA,NA,NA,NA,NA
5noeJdMe,3t2hw4qdvykwn81ckpslwayk1hg9co,3uwn2hhpu2iz6bsw9n6si0teurtsn3,5noeJdMe,2020-0188,2021-10-14,09:41:00,11:24:06,NA,incomplete,false,true,NA,1,27,NA,red,n_s_041.jpg,NA,NA,unpleasant,pleasant,NA,NA,NA,NA,NA,left,996.600000023842,true,NA,NA,NA,NA,NA
5noeJdMe,3t2hw4qdvykwn81ckpslwayk1hg9co,3uwn2hhpu2iz6bsw9n6si0teurtsn3,5noeJdMe,2020-0188,2021-10-14,09:41:00,11:24:06,NA,incomplete,false,true,NA,1,28,NA,red,m_s_044.jpg,NA,NA,unpleasant,pleasant,NA,NA,NA,NA,NA,left,1113.19999992847,true,NA,NA,NA,NA,NA
5noeJdMe,3t2hw4qdvykwn81ckpslwayk1hg9co,3uwn2hhpu2iz6bsw9n6si0teurtsn3,5noeJdMe,2020-0188,2021-10-14,09:41:00,11:24:06,NA,incomplete,false,true,NA,1,29,NA,red,n_l_085.jpg,NA,NA,unpleasant,pleasant,NA,NA,NA,NA,NA,left,2097.39999997616,true,NA,NA,NA,NA,NA
5noeJdMe,3t2hw4qdvykwn81ckpslwayk1hg9co,3uwn2hhpu2iz6bsw9n6si0teurtsn3,5noeJdMe,2020-0188,2021-10-14,09:41:00,11:24:06,NA,incomplete,false,true,NA,1,30,NA,green,n_s_014.jpg,NA,NA,unpleasant,pleasant,NA,NA,NA,NA,NA,right,1793.70000004768,true,NA,NA,NA,NA,NA
5noeJdMe,3t2hw4qdvykwn81ckpslwayk1hg9co,3uwn2hhpu2iz6bsw9n6si0teurtsn3,5noeJdMe,2020-0188,2021-10-14,09:41:00,11:24:06,NA,incomplete,false,true,NA,1,31,NA,green,n_s_075.jpg,NA,NA,pleasant,unpleasant,NA,NA,NA,NA,NA,left,2792.70000004768,true,NA,NA,NA,NA,NA
5noeJdMe,3t2hw4qdvykwn81ckpslwayk1hg9co,3uwn2hhpu2iz6bsw9n6si0teurtsn3,5noeJdMe,2020-0188,2021-10-14,09:41:00,11:24:06,NA,incomplete,false,true,NA,1,32,NA,green,n_l_074.jpg,NA,NA,unpleasant,pleasant,NA,NA,NA,NA,NA,left,917.5,true,NA,NA,NA,NA,NA
5noeJdMe,3t2hw4qdvykwn81ckpslwayk1hg9co,3uwn2hhpu2iz6bsw9n6si0teurtsn3,5noeJdMe,2020-0188,2021-10-14,09:41:00,11:24:06,NA,incomplete,false,true,NA,1,33,NA,green,n_l_048.jpg,NA,NA,unpleasant,pleasant,NA,NA,NA,NA,NA,left,1319.89999997616,true,NA,NA,NA,NA,NA
5noeJdMe,3t2hw4qdvykwn81ckpslwayk1hg9co,3uwn2hhpu2iz6bsw9n6si0teurtsn3,5noeJdMe,2020-0188,2021-10-14,09:41:00,11:24:06,NA,incomplete,false,true,NA,1,34,NA,green,n_l_015.jpg,NA,NA,pleasant,unpleasant,NA,NA,NA,NA,NA,left,1298.70000004768,true,NA,NA,NA,NA,NA
5noeJdMe,3t2hw4qdvykwn81ckpslwayk1hg9co,3uwn2hhpu2iz6bsw9n6si0teurtsn3,5noeJdMe,2020-0188,2021-10-14,09:41:00,11:24:06,NA,incomplete,false,true,NA,1,35,NA,green,m_s_024.jpg,NA,NA,pleasant,unpleasant,NA,NA,NA,NA,NA,right,2943,true,NA,NA,NA,NA,NA
5noeJdMe,3t2hw4qdvykwn81ckpslwayk1hg9co,3uwn2hhpu2iz6bsw9n6si0teurtsn3,5noeJdMe,2020-0188,2021-10-14,09:41:00,11:24:06,NA,incomplete,false,NA,true,1,0,NA,NA,NA,right,absent,NA,NA,n_l_085.jpg,red,m_l_042.jpg,red,within,NA,NaN,NA,right,3895.5,1,1,1880
5noeJdMe,3t2hw4qdvykwn81ckpslwayk1hg9co,3uwn2hhpu2iz6bsw9n6si0teurtsn3,5noeJdMe,2020-0188,2021-10-14,09:41:00,11:24:06,NA,incomplete,false,NA,true,1,1,NA,NA,NA,right,absent,NA,NA,n_s_074.jpg,yellow,n_s_023.jpg,yellow,within,NA,NaN,NA,right,2146.2999999523163,1,2,2108.6999999284744
5noeJdMe,3t2hw4qdvykwn81ckpslwayk1hg9co,3uwn2hhpu2iz6bsw9n6si0teurtsn3,5noeJdMe,2020-0188,2021-10-14,09:41:00,11:24:06,NA,incomplete,false,NA,true,1,2,NA,NA,NA,right,absent,NA,NA,n_s_073.jpg,red,m_s_006.jpg,black,between,NA,NaN,NA,right,2078,1,0,6195.700000047684
5noeJdMe,3t2hw4qdvykwn81ckpslwayk1hg9co,3uwn2hhpu2iz6bsw9n6si0teurtsn3,5noeJdMe,2020-0188,2021-10-14,09:41:00,11:24:06,NA,incomplete,false,NA,true,1,3,NA,NA,NA,left,absent,NA,NA,n_s_018.jpg,black,m_s_058.jpg,black,within,NA,NaN,NA,right,1463.6000000238419,0,2,1829.6000000238419
5noeJdMe,3t2hw4qdvykwn81ckpslwayk1hg9co,3uwn2hhpu2iz6bsw9n6si0teurtsn3,5noeJdMe,2020-0188,2021-10-14,09:41:00,11:24:06,NA,incomplete,false,NA,true,1,4,NA,NA,NA,right,absent,NA,NA,n_l_027.jpg,white,n_l_058.jpg,white,within,NA,NaN,NA,right,2496.0999999046326,1,1,1719.7000000476837
5noeJdMe,3t2hw4qdvykwn81ckpslwayk1hg9co,3uwn2hhpu2iz6bsw9n6si0teurtsn3,5noeJdMe,2020-0188,2021-10-14,09:41:00,11:24:06,NA,incomplete,false,NA,true,1,5,NA,NA,NA,right,absent,NA,NA,n_s_111.jpg,yellow,n_l_071.jpg,white,between,NA,NaN,NA,right,2108.2000000476837,1,1,2078.399999976158
5noeJdMe,3t2hw4qdvykwn81ckpslwayk1hg9co,3uwn2hhpu2iz6bsw9n6si0teurtsn3,5noeJdMe,2020-0188,2021-10-14,09:41:00,11:24:06,NA,incomplete,false,NA,true,1,6,NA,NA,NA,right,absent,NA,NA,m_s_043.jpg,brown,n_s_065.jpg,brown,within,NA,NaN,NA,left,1285.7999999523163,0,2,1114.5999999046326
5noeJdMe,3t2hw4qdvykwn81ckpslwayk1hg9co,3uwn2hhpu2iz6bsw9n6si0teurtsn3,5noeJdMe,2020-0188,2021-10-14,09:41:00,11:24:06,NA,incomplete,false,NA,true,1,7,NA,NA,NA,left,absent,NA,NA,n_s_103.jpg,yellow,m_s_026.jpg,black,between,NA,NaN,NA,left,3644.4000000953674,1,1,2123.600000023842
5noeJdMe,3t2hw4qdvykwn81ckpslwayk1hg9co,3uwn2hhpu2iz6bsw9n6si0teurtsn3,5noeJdMe,2020-0188,2021-10-14,09:41:00,11:24:06,NA,incomplete,false,NA,true,1,8,NA,NA,NA,right,absent,NA,NA,n_l_074.jpg,green,m_s_044.jpg,red,between,NA,NaN,NA,right,1775.2999999523163,1,1,1526.6000000238419
5noeJdMe,3t2hw4qdvykwn81ckpslwayk1hg9co,3uwn2hhpu2iz6bsw9n6si0teurtsn3,5noeJdMe,2020-0188,2021-10-14,09:41:00,11:24:06,NA,incomplete,false,NA,true,1,9,NA,NA,NA,left,absent,NA,NA,n_s_075.jpg,green,m_s_024.jpg,green,within,NA,NaN,NA,right,2014.3999999761581,0,2,1946.1000000238419
5noeJdMe,3t2hw4qdvykwn81ckpslwayk1hg9co,3uwn2hhpu2iz6bsw9n6si0teurtsn3,5noeJdMe,2020-0188,2021-10-14,09:41:00,11:24:06,NA,incomplete,false,NA,true,1,10,NA,NA,NA,right,absent,NA,NA,n_l_090.jpg,white,m_s_107.jpg,brown,between,NA,NaN,NA,left,1764.6999999284744,0,1,1961.2000000476837
5noeJdMe,3t2hw4qdvykwn81ckpslwayk1hg9co,3uwn2hhpu2iz6bsw9n6si0teurtsn3,5noeJdMe,2020-0188,2021-10-14,09:41:00,11:24:06,NA,incomplete,false,true,NA,2,0,NA,green,n_s_085.jpg,NA,NA,unpleasant,pleasant,NA,NA,NA,NA,NA,right,1062.20000004768,true,NA,NA,NA,NA,NA
5noeJdMe,3t2hw4qdvykwn81ckpslwayk1hg9co,3uwn2hhpu2iz6bsw9n6si0teurtsn3,5noeJdMe,2020-0188,2021-10-14,09:41:00,11:24:06,NA,incomplete,false,true,NA,2,1,NA,green,m_s_039.jpg,NA,NA,pleasant,unpleasant,NA,NA,NA,NA,NA,right,1641.40000009537,true,NA,NA,NA,NA,NA
5noeJdMe,3t2hw4qdvykwn81ckpslwayk1hg9co,3uwn2hhpu2iz6bsw9n6si0teurtsn3,5noeJdMe,2020-0188,2021-10-14,09:41:00,11:24:06,NA,incomplete,false,true,NA,2,2,NA,green,m_s_019.jpg,NA,NA,pleasant,unpleasant,NA,NA,NA,NA,NA,right,2003.79999995232,true,NA,NA,NA,NA,NA
5noeJdMe,3t2hw4qdvykwn81ckpslwayk1hg9co,3uwn2hhpu2iz6bsw9n6si0teurtsn3,5noeJdMe,2020-0188,2021-10-14,09:41:00,11:24:06,NA,incomplete,false,true,NA,2,3,NA,green,m_s_093.jpg,NA,NA,unpleasant,pleasant,NA,NA,NA,NA,NA,right,3103.30000007153,true,NA,NA,NA,NA,NA
5noeJdMe,3t2hw4qdvykwn81ckpslwayk1hg9co,3uwn2hhpu2iz6bsw9n6si0teurtsn3,5noeJdMe,2020-0188,2021-10-14,09:41:00,11:24:06,NA,incomplete,false,true,NA,2,4,NA,green,n_s_076.jpg,NA,NA,pleasant,unpleasant,NA,NA,NA,NA,NA,right,1330.09999990463,true,NA,NA,NA,NA,NA
5noeJdMe,3t2hw4qdvykwn81ckpslwayk1hg9co,3uwn2hhpu2iz6bsw9n6si0teurtsn3,5noeJdMe,2020-0188,2021-10-14,09:41:00,11:24:06,NA,incomplete,false,true,NA,2,5,NA,green,n_s_048.jpg,NA,NA,pleasant,unpleasant,NA,NA,NA,NA,NA,right,1395.20000004768,true,NA,NA,NA,NA,NA
5noeJdMe,3t2hw4qdvykwn81ckpslwayk1hg9co,3uwn2hhpu2iz6bsw9n6si0teurtsn3,5noeJdMe,2020-0188,2021-10-14,09:41:00,11:24:06,NA,incomplete,false,true,NA,2,6,NA,brown,n_s_101.jpg,NA,NA,unpleasant,pleasant,NA,NA,NA,NA,NA,right,1427.70000004768,true,NA,NA,NA,NA,NA
5noeJdMe,3t2hw4qdvykwn81ckpslwayk1hg9co,3uwn2hhpu2iz6bsw9n6si0teurtsn3,5noeJdMe,2020-0188,2021-10-14,09:41:00,11:24:06,NA,incomplete,false,true,NA,2,7,NA,brown,n_s_022.jpg,NA,NA,pleasant,unpleasant,NA,NA,NA,NA,NA,left,1485.70000004768,true,NA,NA,NA,NA,NA
5noeJdMe,3t2hw4qdvykwn81ckpslwayk1hg9co,3uwn2hhpu2iz6bsw9n6si0teurtsn3,5noeJdMe,2020-0188,2021-10-14,09:41:00,11:24:06,NA,incomplete,false,true,NA,2,8,NA,brown,n_l_038.jpg,NA,NA,unpleasant,pleasant,NA,NA,NA,NA,NA,left,2514.39999997616,true,NA,NA,NA,NA,NA
5noeJdMe,3t2hw4qdvykwn81ckpslwayk1hg9co,3uwn2hhpu2iz6bsw9n6si0teurtsn3,5noeJdMe,2020-0188,2021-10-14,09:41:00,11:24:06,NA,incomplete,false,true,NA,2,9,NA,brown,n_l_105.jpg,NA,NA,pleasant,unpleasant,NA,NA,NA,NA,NA,left,1401.29999995232,true,NA,NA,NA,NA,NA
5noeJdMe,3t2hw4qdvykwn81ckpslwayk1hg9co,3uwn2hhpu2iz6bsw9n6si0teurtsn3,5noeJdMe,2020-0188,2021-10-14,09:41:00,11:24:06,NA,incomplete,false,true,NA,2,10,NA,brown,n_l_018.jpg,NA,NA,unpleasant,pleasant,NA,NA,NA,NA,NA,right,1170,true,NA,NA,NA,NA,NA
5noeJdMe,3t2hw4qdvykwn81ckpslwayk1hg9co,3uwn2hhpu2iz6bsw9n6si0teurtsn3,5noeJdMe,2020-0188,2021-10-14,09:41:00,11:24:06,NA,incomplete,false,true,NA,2,11,NA,brown,m_s_048.jpg,NA,NA,unpleasant,pleasant,NA,NA,NA,NA,NA,right,1500.20000004768,true,NA,NA,NA,NA,NA
5noeJdMe,3t2hw4qdvykwn81ckpslwayk1hg9co,3uwn2hhpu2iz6bsw9n6si0teurtsn3,5noeJdMe,2020-0188,2021-10-14,09:41:00,11:24:06,NA,incomplete,false,true,NA,2,12,NA,black,m_s_023.jpg,NA,NA,unpleasant,pleasant,NA,NA,NA,NA,NA,left,1404.89999997616,true,NA,NA,NA,NA,NA
5noeJdMe,3t2hw4qdvykwn81ckpslwayk1hg9co,3uwn2hhpu2iz6bsw9n6si0teurtsn3,5noeJdMe,2020-0188,2021-10-14,09:41:00,11:24:06,NA,incomplete,false,true,NA,2,13,NA,black,m_s_075.jpg,NA,NA,unpleasant,pleasant,NA,NA,NA,NA,NA,left,2531.79999995232,true,NA,NA,NA,NA,NA
5noeJdMe,3t2hw4qdvykwn81ckpslwayk1hg9co,3uwn2hhpu2iz6bsw9n6si0teurtsn3,5noeJdMe,2020-0188,2021-10-14,09:41:00,11:24:06,NA,incomplete,false,true,NA,2,14,NA,black,n_l_006.jpg,NA,NA,pleasant,unpleasant,NA,NA,NA,NA,NA,right,1141.19999992847,true,NA,NA,NA,NA,NA
5noeJdMe,3t2hw4qdvykwn81ckpslwayk1hg9co,3uwn2hhpu2iz6bsw9n6si0teurtsn3,5noeJdMe,2020-0188,2021-10-14,09:41:00,11:24:06,NA,incomplete,false,true,NA,2,15,NA,black,n_s_057.jpg,NA,NA,unpleasant,pleasant,NA,NA,NA,NA,NA,left,1343.79999995232,true,NA,NA,NA,NA,NA
5noeJdMe,3t2hw4qdvykwn81ckpslwayk1hg9co,3uwn2hhpu2iz6bsw9n6si0teurtsn3,5noeJdMe,2020-0188,2021-10-14,09:41:00,11:24:06,NA,incomplete,false,true,NA,2,16,NA,black,n_s_086.jpg,NA,NA,unpleasant,pleasant,NA,NA,NA,NA,NA,left,1244.60000002384,true,NA,NA,NA,NA,NA
5noeJdMe,3t2hw4qdvykwn81ckpslwayk1hg9co,3uwn2hhpu2iz6bsw9n6si0teurtsn3,5noeJdMe,2020-0188,2021-10-14,09:41:00,11:24:06,NA,incomplete,false,true,NA,2,17,NA,black,n_l_103.jpg,NA,NA,unpleasant,pleasant,NA,NA,NA,NA,NA,left,1469.60000002384,true,NA,NA,NA,NA,NA
5noeJdMe,3t2hw4qdvykwn81ckpslwayk1hg9co,3uwn2hhpu2iz6bsw9n6si0teurtsn3,5noeJdMe,2020-0188,2021-10-14,09:41:00,11:24:06,NA,incomplete,false,true,NA,2,18,NA,red,m_l_070.jpg,NA,NA,unpleasant,pleasant,NA,NA,NA,NA,NA,left,1900.29999995232,true,NA,NA,NA,NA,NA
5noeJdMe,3t2hw4qdvykwn81ckpslwayk1hg9co,3uwn2hhpu2iz6bsw9n6si0teurtsn3,5noeJdMe,2020-0188,2021-10-14,09:41:00,11:24:06,NA,incomplete,false,true,NA,2,19,NA,red,n_l_046.jpg,NA,NA,unpleasant,pleasant,NA,NA,NA,NA,NA,left,1195.79999995232,true,NA,NA,NA,NA,NA
5noeJdMe,3t2hw4qdvykwn81ckpslwayk1hg9co,3uwn2hhpu2iz6bsw9n6si0teurtsn3,5noeJdMe,2020-0188,2021-10-14,09:41:00,11:24:06,NA,incomplete,false,true,NA,2,20,NA,red,n_l_014.jpg,NA,NA,unpleasant,pleasant,NA,NA,NA,NA,NA,left,1268.5,true,NA,NA,NA,NA,NA
5noeJdMe,3t2hw4qdvykwn81ckpslwayk1hg9co,3uwn2hhpu2iz6bsw9n6si0teurtsn3,5noeJdMe,2020-0188,2021-10-14,09:41:00,11:24:06,NA,incomplete,false,true,NA,2,21,NA,red,m_l_064.jpg,NA,NA,pleasant,unpleasant,NA,NA,NA,NA,NA,left,1150.10000002384,true,NA,NA,NA,NA,NA
5noeJdMe,3t2hw4qdvykwn81ckpslwayk1hg9co,3uwn2hhpu2iz6bsw9n6si0teurtsn3,5noeJdMe,2020-0188,2021-10-14,09:41:00,11:24:06,NA,incomplete,false,true,NA,2,22,NA,red,m_l_074.jpg,NA,NA,pleasant,unpleasant,NA,NA,NA,NA,NA,right,1249.60000002384,true,NA,NA,NA,NA,NA
5noeJdMe,3t2hw4qdvykwn81ckpslwayk1hg9co,3uwn2hhpu2iz6bsw9n6si0teurtsn3,5noeJdMe,2020-0188,2021-10-14,09:41:00,11:24:06,NA,incomplete,false,true,NA,2,23,NA,red,m_l_080.jpg,NA,NA,pleasant,unpleasant,NA,NA,NA,NA,NA,right,1199.59999990463,true,NA,NA,NA,NA,NA
5noeJdMe,3t2hw4qdvykwn81ckpslwayk1hg9co,3uwn2hhpu2iz6bsw9n6si0teurtsn3,5noeJdMe,2020-0188,2021-10-14,09:41:00,11:24:06,NA,incomplete,false,true,NA,2,24,NA,orange,m_l_021.jpg,NA,NA,unpleasant,pleasant,NA,NA,NA,NA,NA,right,2050.19999992847,true,NA,NA,NA,NA,NA
5noeJdMe,3t2hw4qdvykwn81ckpslwayk1hg9co,3uwn2hhpu2iz6bsw9n6si0teurtsn3,5noeJdMe,2020-0188,2021-10-14,09:41:00,11:24:06,NA,incomplete,false,true,NA,2,25,NA,orange,m_s_050.jpg,NA,NA,unpleasant,pleasant,NA,NA,NA,NA,NA,left,2040.30000007153,true,NA,NA,NA,NA,NA
5noeJdMe,3t2hw4qdvykwn81ckpslwayk1hg9co,3uwn2hhpu2iz6bsw9n6si0teurtsn3,5noeJdMe,2020-0188,2021-10-14,09:41:00,11:24:06,NA,incomplete,false,true,NA,2,26,NA,orange,m_l_086.jpg,NA,NA,pleasant,unpleasant,NA,NA,NA,NA,NA,right,2682.70000004768,true,NA,NA,NA,NA,NA
5noeJdMe,3t2hw4qdvykwn81ckpslwayk1hg9co,3uwn2hhpu2iz6bsw9n6si0teurtsn3,5noeJdMe,2020-0188,2021-10-14,09:41:00,11:24:06,NA,incomplete,false,true,NA,2,27,NA,orange,m_s_007.jpg,NA,NA,unpleasant,pleasant,NA,NA,NA,NA,NA,left,1701.5,true,NA,NA,NA,NA,NA
5noeJdMe,3t2hw4qdvykwn81ckpslwayk1hg9co,3uwn2hhpu2iz6bsw9n6si0teurtsn3,5noeJdMe,2020-0188,2021-10-14,09:41:00,11:24:06,NA,incomplete,false,true,NA,2,28,NA,orange,n_l_003.jpg,NA,NA,pleasant,unpleasant,NA,NA,NA,NA,NA,right,2018.60000002384,true,NA,NA,NA,NA,NA
5noeJdMe,3t2hw4qdvykwn81ckpslwayk1hg9co,3uwn2hhpu2iz6bsw9n6si0teurtsn3,5noeJdMe,2020-0188,2021-10-14,09:41:00,11:24:06,NA,incomplete,false,true,NA,2,29,NA,orange,m_l_014.jpg,NA,NA,pleasant,unpleasant,NA,NA,NA,NA,NA,right,2859.70000004768,true,NA,NA,NA,NA,NA
5noeJdMe,3t2hw4qdvykwn81ckpslwayk1hg9co,3uwn2hhpu2iz6bsw9n6si0teurtsn3,5noeJdMe,2020-0188,2021-10-14,09:41:00,11:24:06,NA,incomplete,false,true,NA,2,30,NA,gray,m_s_095.jpg,NA,NA,unpleasant,pleasant,NA,NA,NA,NA,NA,left,1317.70000004768,true,NA,NA,NA,NA,NA
5noeJdMe,3t2hw4qdvykwn81ckpslwayk1hg9co,3uwn2hhpu2iz6bsw9n6si0teurtsn3,5noeJdMe,2020-0188,2021-10-14,09:41:00,11:24:06,NA,incomplete,false,true,NA,2,31,NA,gray,m_l_104.jpg,NA,NA,pleasant,unpleasant,NA,NA,NA,NA,NA,right,1377.60000002384,true,NA,NA,NA,NA,NA
5noeJdMe,3t2hw4qdvykwn81ckpslwayk1hg9co,3uwn2hhpu2iz6bsw9n6si0teurtsn3,5noeJdMe,2020-0188,2021-10-14,09:41:00,11:24:06,NA,incomplete,false,true,NA,2,32,NA,gray,m_l_028.jpg,NA,NA,unpleasant,pleasant,NA,NA,NA,NA,NA,left,1812.20000004768,true,NA,NA,NA,NA,NA
5noeJdMe,3t2hw4qdvykwn81ckpslwayk1hg9co,3uwn2hhpu2iz6bsw9n6si0teurtsn3,5noeJdMe,2020-0188,2021-10-14,09:41:00,11:24:06,NA,incomplete,false,true,NA,2,33,NA,gray,n_s_030.jpg,NA,NA,unpleasant,pleasant,NA,NA,NA,NA,NA,left,1177.5,true,NA,NA,NA,NA,NA
5noeJdMe,3t2hw4qdvykwn81ckpslwayk1hg9co,3uwn2hhpu2iz6bsw9n6si0teurtsn3,5noeJdMe,2020-0188,2021-10-14,09:41:00,11:24:06,NA,incomplete,false,true,NA,2,34,NA,gray,n_s_082.jpg,NA,NA,unpleasant,pleasant,NA,NA,NA,NA,NA,left,1867.39999997616,true,NA,NA,NA,NA,NA
5noeJdMe,3t2hw4qdvykwn81ckpslwayk1hg9co,3uwn2hhpu2iz6bsw9n6si0teurtsn3,5noeJdMe,2020-0188,2021-10-14,09:41:00,11:24:06,NA,incomplete,false,true,NA,2,35,NA,gray,m_l_052.jpg,NA,NA,pleasant,unpleasant,NA,NA,NA,NA,NA,left,1114.60000002384,true,NA,NA,NA,NA,NA
5noeJdMe,3t2hw4qdvykwn81ckpslwayk1hg9co,3uwn2hhpu2iz6bsw9n6si0teurtsn3,5noeJdMe,2020-0188,2021-10-14,09:41:00,11:24:06,NA,incomplete,false,NA,true,2,0,NA,NA,NA,right,present,NA,NA,n_l_038.jpg,brown,n_s_076.jpg,green,between,NA,NaN,NA,right,3129.2999999523163,1,2,2240.100000023842
5noeJdMe,3t2hw4qdvykwn81ckpslwayk1hg9co,3uwn2hhpu2iz6bsw9n6si0teurtsn3,5noeJdMe,2020-0188,2021-10-14,09:41:00,11:24:06,NA,incomplete,false,NA,true,2,1,NA,NA,NA,right,present,NA,NA,m_l_014.jpg,orange,m_s_050.jpg,orange,within,NA,NaN,NA,right,3407.7999999523163,1,1,1747.3999999761581
5noeJdMe,3t2hw4qdvykwn81ckpslwayk1hg9co,3uwn2hhpu2iz6bsw9n6si0teurtsn3,5noeJdMe,2020-0188,2021-10-14,09:41:00,11:24:06,NA,incomplete,false,NA,true,2,2,NA,NA,NA,right,present,NA,NA,m_l_028.jpg,gray,n_l_003.jpg,orange,between,NA,NaN,NA,right,2200.1999999284744,1,1,1417.8999999761581
5noeJdMe,3t2hw4qdvykwn81ckpslwayk1hg9co,3uwn2hhpu2iz6bsw9n6si0teurtsn3,5noeJdMe,2020-0188,2021-10-14,09:41:00,11:24:06,NA,incomplete,false,NA,true,2,3,NA,NA,NA,right,present,NA,NA,n_l_014.jpg,red,n_s_086.jpg,black,between,NA,NaN,NA,right,2022.1000000238419,1,2,1695.8999999761581
5noeJdMe,3t2hw4qdvykwn81ckpslwayk1hg9co,3uwn2hhpu2iz6bsw9n6si0teurtsn3,5noeJdMe,2020-0188,2021-10-14,09:41:00,11:24:06,NA,incomplete,false,NA,true,2,4,NA,NA,NA,right,present,NA,NA,m_l_052.jpg,gray,m_l_104.jpg,gray,within,NA,NaN,NA,left,1860.3000000715256,0,1,1434.5
5noeJdMe,3t2hw4qdvykwn81ckpslwayk1hg9co,3uwn2hhpu2iz6bsw9n6si0teurtsn3,5noeJdMe,2020-0188,2021-10-14,09:41:00,11:24:06,NA,incomplete,false,NA,true,2,5,NA,NA,NA,left,present,NA,NA,m_s_039.jpg,green,n_s_048.jpg,green,within,NA,NaN,NA,left,14666.100000023842,1,1,1256.4000000953674
5noeJdMe,3t2hw4qdvykwn81ckpslwayk1hg9co,3uwn2hhpu2iz6bsw9n6si0teurtsn3,5noeJdMe,2020-0188,2021-10-14,09:41:00,11:24:06,NA,incomplete,false,NA,true,2,6,NA,NA,NA,right,present,NA,NA,m_s_048.jpg,brown,n_s_022.jpg,brown,within,NA,NaN,NA,left,1976.3000000715256,0,2,907.2999999523163
5noeJdMe,3t2hw4qdvykwn81ckpslwayk1hg9co,3uwn2hhpu2iz6bsw9n6si0teurtsn3,5noeJdMe,2020-0188,2021-10-14,09:41:00,11:24:06,NA,incomplete,false,NA,true,2,7,NA,NA,NA,right,present,NA,NA,n_l_006.jpg,black,n_l_018.jpg,brown,between,NA,NaN,NA,right,1410.1000000238419,1,2,2203
5noeJdMe,3t2hw4qdvykwn81ckpslwayk1hg9co,3uwn2hhpu2iz6bsw9n6si0teurtsn3,5noeJdMe,2020-0188,2021-10-14,09:41:00,11:24:06,NA,incomplete,false,NA,true,2,8,NA,NA,NA,right,present,NA,NA,m_l_086.jpg,orange,m_l_074.jpg,red,between,NA,NaN,NA,left,1469.5,0,3,1024.3000000715256
5noeJdMe,3t2hw4qdvykwn81ckpslwayk1hg9co,3uwn2hhpu2iz6bsw9n6si0teurtsn3,5noeJdMe,2020-0188,2021-10-14,09:41:00,11:24:06,NA,incomplete,false,NA,true,2,9,NA,NA,NA,right,present,NA,NA,n_l_103.jpg,black,m_s_075.jpg,black,within,NA,NaN,NA,left,1479.5999999046326,0,2,1386.8999999761581
5noeJdMe,3t2hw4qdvykwn81ckpslwayk1hg9co,3uwn2hhpu2iz6bsw9n6si0teurtsn3,5noeJdMe,2020-0188,2021-10-14,09:41:00,11:24:06,NA,incomplete,false,NA,true,2,10,NA,NA,NA,left,present,NA,NA,n_l_046.jpg,red,m_l_080.jpg,red,within,NA,NaN,NA,right,1898.8999999761581,0,1,1804
5noeJdMe,3t2hw4qdvykwn81ckpslwayk1hg9co,3uwn2hhpu2iz6bsw9n6si0teurtsn3,5noeJdMe,2020-0188,2021-10-14,09:41:00,11:24:06,NA,incomplete,false,true,NA,3,0,NA,white,m_l_038.jpg,NA,NA,unpleasant,pleasant,NA,NA,NA,NA,NA,right,2171.5,true,NA,NA,NA,NA,NA
5noeJdMe,3t2hw4qdvykwn81ckpslwayk1hg9co,3uwn2hhpu2iz6bsw9n6si0teurtsn3,5noeJdMe,2020-0188,2021-10-14,09:41:00,11:24:06,NA,incomplete,false,true,NA,3,1,NA,white,n_s_049.jpg,NA,NA,pleasant,unpleasant,NA,NA,NA,NA,NA,right,1684.40000009537,true,NA,NA,NA,NA,NA
5noeJdMe,3t2hw4qdvykwn81ckpslwayk1hg9co,3uwn2hhpu2iz6bsw9n6si0teurtsn3,5noeJdMe,2020-0188,2021-10-14,09:41:00,11:24:06,NA,incomplete,false,true,NA,3,2,NA,white,n_l_059.jpg,NA,NA,pleasant,unpleasant,NA,NA,NA,NA,NA,left,1357.20000004768,true,NA,NA,NA,NA,NA
5noeJdMe,3t2hw4qdvykwn81ckpslwayk1hg9co,3uwn2hhpu2iz6bsw9n6si0teurtsn3,5noeJdMe,2020-0188,2021-10-14,09:41:00,11:24:06,NA,incomplete,false,true,NA,3,3,NA,white,m_l_077.jpg,NA,NA,unpleasant,pleasant,NA,NA,NA,NA,NA,right,1658,true,NA,NA,NA,NA,NA
5noeJdMe,3t2hw4qdvykwn81ckpslwayk1hg9co,3uwn2hhpu2iz6bsw9n6si0teurtsn3,5noeJdMe,2020-0188,2021-10-14,09:41:00,11:24:06,NA,incomplete,false,true,NA,3,4,NA,white,m_s_080.jpg,NA,NA,pleasant,unpleasant,NA,NA,NA,NA,NA,right,1608.30000007153,true,NA,NA,NA,NA,NA
5noeJdMe,3t2hw4qdvykwn81ckpslwayk1hg9co,3uwn2hhpu2iz6bsw9n6si0teurtsn3,5noeJdMe,2020-0188,2021-10-14,09:41:00,11:24:06,NA,incomplete,false,true,NA,3,5,NA,white,m_s_038.jpg,NA,NA,pleasant,unpleasant,NA,NA,NA,NA,NA,left,1248.29999995232,true,NA,NA,NA,NA,NA
5noeJdMe,3t2hw4qdvykwn81ckpslwayk1hg9co,3uwn2hhpu2iz6bsw9n6si0teurtsn3,5noeJdMe,2020-0188,2021-10-14,09:41:00,11:24:06,NA,incomplete,false,true,NA,3,6,NA,black,m_l_078.jpg,NA,NA,unpleasant,pleasant,NA,NA,NA,NA,NA,right,1257.60000002384,true,NA,NA,NA,NA,NA
5noeJdMe,3t2hw4qdvykwn81ckpslwayk1hg9co,3uwn2hhpu2iz6bsw9n6si0teurtsn3,5noeJdMe,2020-0188,2021-10-14,09:41:00,11:24:06,NA,incomplete,false,true,NA,3,7,NA,black,n_l_063.jpg,NA,NA,unpleasant,pleasant,NA,NA,NA,NA,NA,left,1697.29999995232,true,NA,NA,NA,NA,NA
5noeJdMe,3t2hw4qdvykwn81ckpslwayk1hg9co,3uwn2hhpu2iz6bsw9n6si0teurtsn3,5noeJdMe,2020-0188,2021-10-14,09:41:00,11:24:06,NA,incomplete,false,true,NA,3,8,NA,black,n_s_009.jpg,NA,NA,pleasant,unpleasant,NA,NA,NA,NA,NA,right,1315.79999995232,true,NA,NA,NA,NA,NA
5noeJdMe,3t2hw4qdvykwn81ckpslwayk1hg9co,3uwn2hhpu2iz6bsw9n6si0teurtsn3,5noeJdMe,2020-0188,2021-10-14,09:41:00,11:24:06,NA,incomplete,false,true,NA,3,9,NA,black,n_s_038.jpg,NA,NA,pleasant,unpleasant,NA,NA,NA,NA,NA,right,1495.79999995232,true,NA,NA,NA,NA,NA
5noeJdMe,3t2hw4qdvykwn81ckpslwayk1hg9co,3uwn2hhpu2iz6bsw9n6si0teurtsn3,5noeJdMe,2020-0188,2021-10-14,09:41:00,11:24:06,NA,incomplete,false,true,NA,3,10,NA,black,n_l_115.jpg,NA,NA,pleasant,unpleasant,NA,NA,NA,NA,NA,right,1364.60000002384,true,NA,NA,NA,NA,NA
5noeJdMe,3t2hw4qdvykwn81ckpslwayk1hg9co,3uwn2hhpu2iz6bsw9n6si0teurtsn3,5noeJdMe,2020-0188,2021-10-14,09:41:00,11:24:06,NA,incomplete,false,true,NA,3,11,NA,black,n_s_008.jpg,NA,NA,unpleasant,pleasant,NA,NA,NA,NA,NA,left,1346.60000002384,true,NA,NA,NA,NA,NA
5noeJdMe,3t2hw4qdvykwn81ckpslwayk1hg9co,3uwn2hhpu2iz6bsw9n6si0teurtsn3,5noeJdMe,2020-0188,2021-10-14,09:41:00,11:24:06,NA,incomplete,false,true,NA,3,12,NA,yellow,m_l_018.jpg,NA,NA,pleasant,unpleasant,NA,NA,NA,NA,NA,left,1686.10000002384,true,NA,NA,NA,NA,NA
5noeJdMe,3t2hw4qdvykwn81ckpslwayk1hg9co,3uwn2hhpu2iz6bsw9n6si0teurtsn3,5noeJdMe,2020-0188,2021-10-14,09:41:00,11:24:06,NA,incomplete,false,true,NA,3,13,NA,yellow,m_s_012.jpg,NA,NA,pleasant,unpleasant,NA,NA,NA,NA,NA,left,1846.70000004768,true,NA,NA,NA,NA,NA
5noeJdMe,3t2hw4qdvykwn81ckpslwayk1hg9co,3uwn2hhpu2iz6bsw9n6si0teurtsn3,5noeJdMe,2020-0188,2021-10-14,09:41:00,11:24:06,NA,incomplete,false,true,NA,3,14,NA,yellow,n_s_034.jpg,NA,NA,unpleasant,pleasant,NA,NA,NA,NA,NA,right,1255,true,NA,NA,NA,NA,NA
5noeJdMe,3t2hw4qdvykwn81ckpslwayk1hg9co,3uwn2hhpu2iz6bsw9n6si0teurtsn3,5noeJdMe,2020-0188,2021-10-14,09:41:00,11:24:06,NA,incomplete,false,true,NA,3,15,NA,yellow,n_l_042.jpg,NA,NA,pleasant,unpleasant,NA,NA,NA,NA,NA,right,924.899999976158,true,NA,NA,NA,NA,NA
5noeJdMe,3t2hw4qdvykwn81ckpslwayk1hg9co,3uwn2hhpu2iz6bsw9n6si0teurtsn3,5noeJdMe,2020-0188,2021-10-14,09:41:00,11:24:06,NA,incomplete,false,true,NA,3,16,NA,yellow,n_s_096.jpg,NA,NA,pleasant,unpleasant,NA,NA,NA,NA,NA,left,1140.19999992847,true,NA,NA,NA,NA,NA
5noeJdMe,3t2hw4qdvykwn81ckpslwayk1hg9co,3uwn2hhpu2iz6bsw9n6si0teurtsn3,5noeJdMe,2020-0188,2021-10-14,09:41:00,11:24:06,NA,incomplete,false,true,NA,3,17,NA,yellow,m_l_065.jpg,NA,NA,unpleasant,pleasant,NA,NA,NA,NA,NA,right,1339.5,true,NA,NA,NA,NA,NA
5noeJdMe,3t2hw4qdvykwn81ckpslwayk1hg9co,3uwn2hhpu2iz6bsw9n6si0teurtsn3,5noeJdMe,2020-0188,2021-10-14,09:41:00,11:24:06,NA,incomplete,false,true,NA,3,18,NA,green,n_l_112.jpg,NA,NA,unpleasant,pleasant,NA,NA,NA,NA,NA,right,1618.20000004768,true,NA,NA,NA,NA,NA
5noeJdMe,3t2hw4qdvykwn81ckpslwayk1hg9co,3uwn2hhpu2iz6bsw9n6si0teurtsn3,5noeJdMe,2020-0188,2021-10-14,09:41:00,11:24:06,NA,incomplete,false,true,NA,3,19,NA,green,m_s_033.jpg,NA,NA,unpleasant,pleasant,NA,NA,NA,NA,NA,right,1319.5,true,NA,NA,NA,NA,NA
5noeJdMe,3t2hw4qdvykwn81ckpslwayk1hg9co,3uwn2hhpu2iz6bsw9n6si0teurtsn3,5noeJdMe,2020-0188,2021-10-14,09:41:00,11:24:06,NA,incomplete,false,true,NA,3,20,NA,green,n_s_029.jpg,NA,NA,unpleasant,pleasant,NA,NA,NA,NA,NA,right,1313.40000009537,true,NA,NA,NA,NA,NA
5noeJdMe,3t2hw4qdvykwn81ckpslwayk1hg9co,3uwn2hhpu2iz6bsw9n6si0teurtsn3,5noeJdMe,2020-0188,2021-10-14,09:41:00,11:24:06,NA,incomplete,false,true,NA,3,21,NA,green,n_s_094.jpg,NA,NA,pleasant,unpleasant,NA,NA,NA,NA,NA,left,1451.5,true,NA,NA,NA,NA,NA
5noeJdMe,3t2hw4qdvykwn81ckpslwayk1hg9co,3uwn2hhpu2iz6bsw9n6si0teurtsn3,5noeJdMe,2020-0188,2021-10-14,09:41:00,11:24:06,NA,incomplete,false,true,NA,3,22,NA,green,m_s_099.jpg,NA,NA,pleasant,unpleasant,NA,NA,NA,NA,NA,left,1420.89999997616,true,NA,NA,NA,NA,NA
5noeJdMe,3t2hw4qdvykwn81ckpslwayk1hg9co,3uwn2hhpu2iz6bsw9n6si0teurtsn3,5noeJdMe,2020-0188,2021-10-14,09:41:00,11:24:06,NA,incomplete,false,true,NA,3,23,NA,green,n_s_025.jpg,NA,NA,unpleasant,pleasant,NA,NA,NA,NA,NA,right,1881.89999997616,true,NA,NA,NA,NA,NA
5noeJdMe,3t2hw4qdvykwn81ckpslwayk1hg9co,3uwn2hhpu2iz6bsw9n6si0teurtsn3,5noeJdMe,2020-0188,2021-10-14,09:41:00,11:24:06,NA,incomplete,false,true,NA,3,24,NA,red,n_l_080.jpg,NA,NA,unpleasant,pleasant,NA,NA,NA,NA,NA,left,1041.5,true,NA,NA,NA,NA,NA
5noeJdMe,3t2hw4qdvykwn81ckpslwayk1hg9co,3uwn2hhpu2iz6bsw9n6si0teurtsn3,5noeJdMe,2020-0188,2021-10-14,09:41:00,11:24:06,NA,incomplete,false,true,NA,3,25,NA,red,n_l_094.jpg,NA,NA,pleasant,unpleasant,NA,NA,NA,NA,NA,right,1246.79999995232,true,NA,NA,NA,NA,NA
5noeJdMe,3t2hw4qdvykwn81ckpslwayk1hg9co,3uwn2hhpu2iz6bsw9n6si0teurtsn3,5noeJdMe,2020-0188,2021-10-14,09:41:00,11:24:06,NA,incomplete,false,true,NA,3,26,NA,red,n_l_100.jpg,NA,NA,pleasant,unpleasant,NA,NA,NA,NA,NA,left,2168.5,true,NA,NA,NA,NA,NA
5noeJdMe,3t2hw4qdvykwn81ckpslwayk1hg9co,3uwn2hhpu2iz6bsw9n6si0teurtsn3,5noeJdMe,2020-0188,2021-10-14,09:41:00,11:24:06,NA,incomplete,false,true,NA,3,27,NA,red,m_s_104.jpg,NA,NA,pleasant,unpleasant,NA,NA,NA,NA,NA,right,2151.5,true,NA,NA,NA,NA,NA
5noeJdMe,3t2hw4qdvykwn81ckpslwayk1hg9co,3uwn2hhpu2iz6bsw9n6si0teurtsn3,5noeJdMe,2020-0188,2021-10-14,09:41:00,11:24:06,NA,incomplete,false,true,NA,3,28,NA,red,n_s_100.jpg,NA,NA,unpleasant,pleasant,NA,NA,NA,NA,NA,left,1787.29999995232,true,NA,NA,NA,NA,NA
5noeJdMe,3t2hw4qdvykwn81ckpslwayk1hg9co,3uwn2hhpu2iz6bsw9n6si0teurtsn3,5noeJdMe,2020-0188,2021-10-14,09:41:00,11:24:06,NA,incomplete,false,true,NA,3,29,NA,red,m_l_017.jpg,NA,NA,pleasant,unpleasant,NA,NA,NA,NA,NA,right,2322,true,NA,NA,NA,NA,NA
5noeJdMe,3t2hw4qdvykwn81ckpslwayk1hg9co,3uwn2hhpu2iz6bsw9n6si0teurtsn3,5noeJdMe,2020-0188,2021-10-14,09:41:00,11:24:06,NA,incomplete,false,true,NA,3,30,NA,orange,n_s_002.jpg,NA,NA,unpleasant,pleasant,NA,NA,NA,NA,NA,right,1426.29999995232,true,NA,NA,NA,NA,NA
5noeJdMe,3t2hw4qdvykwn81ckpslwayk1hg9co,3uwn2hhpu2iz6bsw9n6si0teurtsn3,5noeJdMe,2020-0188,2021-10-14,09:41:00,11:24:06,NA,incomplete,false,true,NA,3,31,NA,orange,n_s_056.jpg,NA,NA,unpleasant,pleasant,NA,NA,NA,NA,NA,left,1090.39999997616,true,NA,NA,NA,NA,NA
5noeJdMe,3t2hw4qdvykwn81ckpslwayk1hg9co,3uwn2hhpu2iz6bsw9n6si0teurtsn3,5noeJdMe,2020-0188,2021-10-14,09:41:00,11:24:06,NA,incomplete,false,true,NA,3,32,NA,orange,n_s_071.jpg,NA,NA,unpleasant,pleasant,NA,NA,NA,NA,NA,right,3007.89999997616,true,NA,NA,NA,NA,NA
5noeJdMe,3t2hw4qdvykwn81ckpslwayk1hg9co,3uwn2hhpu2iz6bsw9n6si0teurtsn3,5noeJdMe,2020-0188,2021-10-14,09:41:00,11:24:06,NA,incomplete,false,true,NA,3,33,NA,orange,n_s_063.jpg,NA,NA,pleasant,unpleasant,NA,NA,NA,NA,NA,left,1785.89999997616,true,NA,NA,NA,NA,NA
5noeJdMe,3t2hw4qdvykwn81ckpslwayk1hg9co,3uwn2hhpu2iz6bsw9n6si0teurtsn3,5noeJdMe,2020-0188,2021-10-14,09:41:00,11:24:06,NA,incomplete,false,true,NA,3,34,NA,orange,m_l_110.jpg,NA,NA,pleasant,unpleasant,NA,NA,NA,NA,NA,left,2856.70000004768,true,NA,NA,NA,NA,NA
5noeJdMe,3t2hw4qdvykwn81ckpslwayk1hg9co,3uwn2hhpu2iz6bsw9n6si0teurtsn3,5noeJdMe,2020-0188,2021-10-14,09:41:00,11:24:06,NA,incomplete,false,true,NA,3,35,NA,orange,n_s_051.jpg,NA,NA,pleasant,unpleasant,NA,NA,NA,NA,NA,right,1197.70000004768,true,NA,NA,NA,NA,NA
5noeJdMe,3t2hw4qdvykwn81ckpslwayk1hg9co,3uwn2hhpu2iz6bsw9n6si0teurtsn3,5noeJdMe,2020-0188,2021-10-14,09:41:00,11:24:06,NA,incomplete,false,NA,true,3,0,NA,NA,NA,right,present,NA,NA,n_s_071.jpg,orange,n_s_100.jpg,red,between,NA,NaN,NA,right,3627.5999999046326,1,1,1350.7999999523163
5noeJdMe,3t2hw4qdvykwn81ckpslwayk1hg9co,3uwn2hhpu2iz6bsw9n6si0teurtsn3,5noeJdMe,2020-0188,2021-10-14,09:41:00,11:24:06,NA,incomplete,false,NA,true,3,1,NA,NA,NA,right,present,NA,NA,m_l_017.jpg,red,n_l_094.jpg,red,within,NA,NaN,NA,right,1914,1,1,1558.3999999761581
5noeJdMe,3t2hw4qdvykwn81ckpslwayk1hg9co,3uwn2hhpu2iz6bsw9n6si0teurtsn3,5noeJdMe,2020-0188,2021-10-14,09:41:00,11:24:06,NA,incomplete,false,NA,true,3,2,NA,NA,NA,left,present,NA,NA,n_s_056.jpg,orange,n_s_051.jpg,orange,within,NA,NaN,NA,left,2073.5,1,1,1463.2000000476837
5noeJdMe,3t2hw4qdvykwn81ckpslwayk1hg9co,3uwn2hhpu2iz6bsw9n6si0teurtsn3,5noeJdMe,2020-0188,2021-10-14,09:41:00,11:24:06,NA,incomplete,false,NA,true,3,3,NA,NA,NA,right,present,NA,NA,m_s_038.jpg,white,n_s_049.jpg,white,within,NA,NaN,NA,right,1711.5,1,1,1833.7000000476837
5noeJdMe,3t2hw4qdvykwn81ckpslwayk1hg9co,3uwn2hhpu2iz6bsw9n6si0teurtsn3,5noeJdMe,2020-0188,2021-10-14,09:41:00,11:24:06,NA,incomplete,false,NA,true,3,4,NA,NA,NA,right,present,NA,NA,n_l_100.jpg,red,m_s_099.jpg,green,between,NA,NaN,NA,right,1688.6999999284744,1,0,1588.3999999761581
5noeJdMe,3t2hw4qdvykwn81ckpslwayk1hg9co,3uwn2hhpu2iz6bsw9n6si0teurtsn3,5noeJdMe,2020-0188,2021-10-14,09:41:00,11:24:06,NA,incomplete,false,NA,true,3,5,NA,NA,NA,left,present,NA,NA,m_s_012.jpg,yellow,m_l_065.jpg,yellow,within,NA,NaN,NA,left,1357.2000000476837,1,3,1137.6999999284744
5noeJdMe,3t2hw4qdvykwn81ckpslwayk1hg9co,3uwn2hhpu2iz6bsw9n6si0teurtsn3,5noeJdMe,2020-0188,2021-10-14,09:41:00,11:24:06,NA,incomplete,false,NA,true,3,6,NA,NA,NA,left,present,NA,NA,m_s_080.jpg,white,n_s_009.jpg,black,between,NA,NaN,NA,left,2974.399999976158,1,3,1396
5noeJdMe,3t2hw4qdvykwn81ckpslwayk1hg9co,3uwn2hhpu2iz6bsw9n6si0teurtsn3,5noeJdMe,2020-0188,2021-10-14,09:41:00,11:24:06,NA,incomplete,false,NA,true,3,7,NA,NA,NA,right,present,NA,NA,n_s_008.jpg,black,n_l_063.jpg,black,within,NA,NaN,NA,right,1392.0999999046326,1,3,1097
5noeJdMe,3t2hw4qdvykwn81ckpslwayk1hg9co,3uwn2hhpu2iz6bsw9n6si0teurtsn3,5noeJdMe,2020-0188,2021-10-14,09:41:00,11:24:06,NA,incomplete,false,NA,true,3,8,NA,NA,NA,left,present,NA,NA,n_s_096.jpg,yellow,n_s_029.jpg,green,between,NA,NaN,NA,left,1740.7000000476837,1,3,1172.8999999761581
5noeJdMe,3t2hw4qdvykwn81ckpslwayk1hg9co,3uwn2hhpu2iz6bsw9n6si0teurtsn3,5noeJdMe,2020-0188,2021-10-14,09:41:00,11:24:06,NA,incomplete,false,NA,true,3,9,NA,NA,NA,right,present,NA,NA,n_s_034.jpg,yellow,n_l_115.jpg,black,between,NA,NaN,NA,right,1006.7000000476837,1,1,2533.600000023842
5noeJdMe,3t2hw4qdvykwn81ckpslwayk1hg9co,3uwn2hhpu2iz6bsw9n6si0teurtsn3,5noeJdMe,2020-0188,2021-10-14,09:41:00,11:24:06,NA,incomplete,false,NA,true,3,10,NA,NA,NA,left,present,NA,NA,m_s_033.jpg,green,n_s_025.jpg,green,within,NA,NaN,NA,right,1565.3000000715256,0,1,1710.8000000715256
5noeJdMe,3t2hw4qdvykwn81ckpslwayk1hg9co,3uwn2hhpu2iz6bsw9n6si0teurtsn3,5noeJdMe,2020-0188,2021-10-14,09:41:00,11:24:06,NA,incomplete,false,true,NA,4,0,NA,black,m_l_040.jpg,NA,NA,pleasant,unpleasant,NA,NA,NA,NA,NA,left,2292.20000004768,true,NA,NA,NA,NA,NA
5noeJdMe,3t2hw4qdvykwn81ckpslwayk1hg9co,3uwn2hhpu2iz6bsw9n6si0teurtsn3,5noeJdMe,2020-0188,2021-10-14,09:41:00,11:24:06,NA,incomplete,false,true,NA,4,1,NA,black,n_s_112.jpg,NA,NA,pleasant,unpleasant,NA,NA,NA,NA,NA,right,1068.79999995232,true,NA,NA,NA,NA,NA
5noeJdMe,3t2hw4qdvykwn81ckpslwayk1hg9co,3uwn2hhpu2iz6bsw9n6si0teurtsn3,5noeJdMe,2020-0188,2021-10-14,09:41:00,11:24:06,NA,incomplete,false,true,NA,4,2,NA,black,m_s_108.jpg,NA,NA,unpleasant,pleasant,NA,NA,NA,NA,NA,left,1622.60000002384,true,NA,NA,NA,NA,NA
5noeJdMe,3t2hw4qdvykwn81ckpslwayk1hg9co,3uwn2hhpu2iz6bsw9n6si0teurtsn3,5noeJdMe,2020-0188,2021-10-14,09:41:00,11:24:06,NA,incomplete,false,true,NA,4,3,NA,black,n_l_084.jpg,NA,NA,unpleasant,pleasant,NA,NA,NA,NA,NA,left,1823.39999997616,true,NA,NA,NA,NA,NA
5noeJdMe,3t2hw4qdvykwn81ckpslwayk1hg9co,3uwn2hhpu2iz6bsw9n6si0teurtsn3,5noeJdMe,2020-0188,2021-10-14,09:41:00,11:24:06,NA,incomplete,false,true,NA,4,4,NA,black,m_l_013.jpg,NA,NA,pleasant,unpleasant,NA,NA,NA,NA,NA,right,1001.19999992847,true,NA,NA,NA,NA,NA
5noeJdMe,3t2hw4qdvykwn81ckpslwayk1hg9co,3uwn2hhpu2iz6bsw9n6si0teurtsn3,5noeJdMe,2020-0188,2021-10-14,09:41:00,11:24:06,NA,incomplete,false,true,NA,4,5,NA,black,n_l_068.jpg,NA,NA,unpleasant,pleasant,NA,NA,NA,NA,NA,left,1248.39999997616,true,NA,NA,NA,NA,NA
5noeJdMe,3t2hw4qdvykwn81ckpslwayk1hg9co,3uwn2hhpu2iz6bsw9n6si0teurtsn3,5noeJdMe,2020-0188,2021-10-14,09:41:00,11:24:06,NA,incomplete,false,true,NA,4,6,NA,purple,m_s_003.jpg,NA,NA,unpleasant,pleasant,NA,NA,NA,NA,NA,right,2588.60000002384,true,NA,NA,NA,NA,NA
5noeJdMe,3t2hw4qdvykwn81ckpslwayk1hg9co,3uwn2hhpu2iz6bsw9n6si0teurtsn3,5noeJdMe,2020-0188,2021-10-14,09:41:00,11:24:06,NA,incomplete,false,true,NA,4,7,NA,purple,m_l_097.jpg,NA,NA,pleasant,unpleasant,NA,NA,NA,NA,NA,left,3021.5,true,NA,NA,NA,NA,NA
5noeJdMe,3t2hw4qdvykwn81ckpslwayk1hg9co,3uwn2hhpu2iz6bsw9n6si0teurtsn3,5noeJdMe,2020-0188,2021-10-14,09:41:00,11:24:06,NA,incomplete,false,true,NA,4,8,NA,purple,n_s_012.jpg,NA,NA,unpleasant,pleasant,NA,NA,NA,NA,NA,right,1234,true,NA,NA,NA,NA,NA
5noeJdMe,3t2hw4qdvykwn81ckpslwayk1hg9co,3uwn2hhpu2iz6bsw9n6si0teurtsn3,5noeJdMe,2020-0188,2021-10-14,09:41:00,11:24:06,NA,incomplete,false,true,NA,4,9,NA,purple,m_l_116.jpg,NA,NA,pleasant,unpleasant,NA,NA,NA,NA,NA,right,1272.89999997616,true,NA,NA,NA,NA,NA
5noeJdMe,3t2hw4qdvykwn81ckpslwayk1hg9co,3uwn2hhpu2iz6bsw9n6si0teurtsn3,5noeJdMe,2020-0188,2021-10-14,09:41:00,11:24:06,NA,incomplete,false,true,NA,4,10,NA,purple,m_s_114.jpg,NA,NA,pleasant,unpleasant,NA,NA,NA,NA,NA,left,1910.39999997616,true,NA,NA,NA,NA,NA
5noeJdMe,3t2hw4qdvykwn81ckpslwayk1hg9co,3uwn2hhpu2iz6bsw9n6si0teurtsn3,5noeJdMe,2020-0188,2021-10-14,09:41:00,11:24:06,NA,incomplete,false,true,NA,4,11,NA,purple,n_s_072.jpg,NA,NA,unpleasant,pleasant,NA,NA,NA,NA,NA,left,1274.29999995232,true,NA,NA,NA,NA,NA
5noeJdMe,3t2hw4qdvykwn81ckpslwayk1hg9co,3uwn2hhpu2iz6bsw9n6si0teurtsn3,5noeJdMe,2020-0188,2021-10-14,09:41:00,11:24:06,NA,incomplete,false,true,NA,4,12,NA,gray,m_s_064.jpg,NA,NA,unpleasant,pleasant,NA,NA,NA,NA,NA,right,1337.10000002384,true,NA,NA,NA,NA,NA
5noeJdMe,3t2hw4qdvykwn81ckpslwayk1hg9co,3uwn2hhpu2iz6bsw9n6si0teurtsn3,5noeJdMe,2020-0188,2021-10-14,09:41:00,11:24:06,NA,incomplete,false,true,NA,4,13,NA,gray,m_l_105.jpg,NA,NA,unpleasant,pleasant,NA,NA,NA,NA,NA,right,955,true,NA,NA,NA,NA,NA
5noeJdMe,3t2hw4qdvykwn81ckpslwayk1hg9co,3uwn2hhpu2iz6bsw9n6si0teurtsn3,5noeJdMe,2020-0188,2021-10-14,09:41:00,11:24:06,NA,incomplete,false,true,NA,4,14,NA,gray,m_s_109.jpg,NA,NA,pleasant,unpleasant,NA,NA,NA,NA,NA,right,1123.60000002384,true,NA,NA,NA,NA,NA
5noeJdMe,3t2hw4qdvykwn81ckpslwayk1hg9co,3uwn2hhpu2iz6bsw9n6si0teurtsn3,5noeJdMe,2020-0188,2021-10-14,09:41:00,11:24:06,NA,incomplete,false,true,NA,4,15,NA,gray,m_s_047.jpg,NA,NA,unpleasant,pleasant,NA,NA,NA,NA,NA,right,1138.70000004768,true,NA,NA,NA,NA,NA
5noeJdMe,3t2hw4qdvykwn81ckpslwayk1hg9co,3uwn2hhpu2iz6bsw9n6si0teurtsn3,5noeJdMe,2020-0188,2021-10-14,09:41:00,11:24:06,NA,incomplete,false,true,NA,4,16,NA,gray,m_s_046.jpg,NA,NA,unpleasant,pleasant,NA,NA,NA,NA,NA,right,1668.5,true,NA,NA,NA,NA,NA
5noeJdMe,3t2hw4qdvykwn81ckpslwayk1hg9co,3uwn2hhpu2iz6bsw9n6si0teurtsn3,5noeJdMe,2020-0188,2021-10-14,09:41:00,11:24:06,NA,incomplete,false,true,NA,4,17,NA,gray,m_l_058.jpg,NA,NA,pleasant,unpleasant,NA,NA,NA,NA,NA,right,891.399999976158,true,NA,NA,NA,NA,NA
5noeJdMe,3t2hw4qdvykwn81ckpslwayk1hg9co,3uwn2hhpu2iz6bsw9n6si0teurtsn3,5noeJdMe,2020-0188,2021-10-14,09:41:00,11:24:06,NA,incomplete,false,true,NA,4,18,NA,red,m_l_015.jpg,NA,NA,unpleasant,pleasant,NA,NA,NA,NA,NA,left,2113.60000002384,true,NA,NA,NA,NA,NA
5noeJdMe,3t2hw4qdvykwn81ckpslwayk1hg9co,3uwn2hhpu2iz6bsw9n6si0teurtsn3,5noeJdMe,2020-0188,2021-10-14,09:41:00,11:24:06,NA,incomplete,false,true,NA,4,19,NA,red,m_l_100.jpg,NA,NA,pleasant,unpleasant,NA,NA,NA,NA,NA,left,1865.79999995232,true,NA,NA,NA,NA,NA
5noeJdMe,3t2hw4qdvykwn81ckpslwayk1hg9co,3uwn2hhpu2iz6bsw9n6si0teurtsn3,5noeJdMe,2020-0188,2021-10-14,09:41:00,11:24:06,NA,incomplete,false,true,NA,4,20,NA,red,n_s_078.jpg,NA,NA,unpleasant,pleasant,NA,NA,NA,NA,NA,left,1234.79999995232,true,NA,NA,NA,NA,NA
5noeJdMe,3t2hw4qdvykwn81ckpslwayk1hg9co,3uwn2hhpu2iz6bsw9n6si0teurtsn3,5noeJdMe,2020-0188,2021-10-14,09:41:00,11:24:06,NA,incomplete,false,true,NA,4,21,NA,red,m_s_008.jpg,NA,NA,pleasant,unpleasant,NA,NA,NA,NA,NA,right,1647.69999992847,true,NA,NA,NA,NA,NA
5noeJdMe,3t2hw4qdvykwn81ckpslwayk1hg9co,3uwn2hhpu2iz6bsw9n6si0teurtsn3,5noeJdMe,2020-0188,2021-10-14,09:41:00,11:24:06,NA,incomplete,false,true,NA,4,22,NA,red,m_s_083.jpg,NA,NA,pleasant,unpleasant,NA,NA,NA,NA,NA,left,1786.20000004768,true,NA,NA,NA,NA,NA
5noeJdMe,3t2hw4qdvykwn81ckpslwayk1hg9co,3uwn2hhpu2iz6bsw9n6si0teurtsn3,5noeJdMe,2020-0188,2021-10-14,09:41:00,11:24:06,NA,incomplete,false,true,NA,4,23,NA,red,n_s_097.jpg,NA,NA,unpleasant,pleasant,NA,NA,NA,NA,NA,right,1802.39999997616,true,NA,NA,NA,NA,NA
5noeJdMe,3t2hw4qdvykwn81ckpslwayk1hg9co,3uwn2hhpu2iz6bsw9n6si0teurtsn3,5noeJdMe,2020-0188,2021-10-14,09:41:00,11:24:06,NA,incomplete,false,true,NA,4,24,NA,orange,m_s_032.jpg,NA,NA,pleasant,unpleasant,NA,NA,NA,NA,NA,left,1596.60000002384,true,NA,NA,NA,NA,NA
5noeJdMe,3t2hw4qdvykwn81ckpslwayk1hg9co,3uwn2hhpu2iz6bsw9n6si0teurtsn3,5noeJdMe,2020-0188,2021-10-14,09:41:00,11:24:06,NA,incomplete,false,true,NA,4,25,NA,orange,m_s_103.jpg,NA,NA,unpleasant,pleasant,NA,NA,NA,NA,NA,right,1501.20000004768,true,NA,NA,NA,NA,NA
5noeJdMe,3t2hw4qdvykwn81ckpslwayk1hg9co,3uwn2hhpu2iz6bsw9n6si0teurtsn3,5noeJdMe,2020-0188,2021-10-14,09:41:00,11:24:06,NA,incomplete,false,true,NA,4,26,NA,orange,n_s_011.jpg,NA,NA,pleasant,unpleasant,NA,NA,NA,NA,NA,left,1441.80000007153,true,NA,NA,NA,NA,NA
5noeJdMe,3t2hw4qdvykwn81ckpslwayk1hg9co,3uwn2hhpu2iz6bsw9n6si0teurtsn3,5noeJdMe,2020-0188,2021-10-14,09:41:00,11:24:06,NA,incomplete,false,true,NA,4,27,NA,orange,m_l_083.jpg,NA,NA,unpleasant,pleasant,NA,NA,NA,NA,NA,right,1460.70000004768,true,NA,NA,NA,NA,NA
5noeJdMe,3t2hw4qdvykwn81ckpslwayk1hg9co,3uwn2hhpu2iz6bsw9n6si0teurtsn3,5noeJdMe,2020-0188,2021-10-14,09:41:00,11:24:06,NA,incomplete,false,true,NA,4,28,NA,orange,n_l_091.jpg,NA,NA,pleasant,unpleasant,NA,NA,NA,NA,NA,left,1172.79999995232,true,NA,NA,NA,NA,NA
5noeJdMe,3t2hw4qdvykwn81ckpslwayk1hg9co,3uwn2hhpu2iz6bsw9n6si0teurtsn3,5noeJdMe,2020-0188,2021-10-14,09:41:00,11:24:06,NA,incomplete,false,true,NA,4,29,NA,orange,n_s_116.jpg,NA,NA,pleasant,unpleasant,NA,NA,NA,NA,NA,left,2599.39999997616,true,NA,NA,NA,NA,NA
5noeJdMe,3t2hw4qdvykwn81ckpslwayk1hg9co,3uwn2hhpu2iz6bsw9n6si0teurtsn3,5noeJdMe,2020-0188,2021-10-14,09:41:00,11:24:06,NA,incomplete,false,true,NA,4,30,NA,yellow,n_l_050.jpg,NA,NA,pleasant,unpleasant,NA,NA,NA,NA,NA,right,2188.10000002384,true,NA,NA,NA,NA,NA
5noeJdMe,3t2hw4qdvykwn81ckpslwayk1hg9co,3uwn2hhpu2iz6bsw9n6si0teurtsn3,5noeJdMe,2020-0188,2021-10-14,09:41:00,11:24:06,NA,incomplete,false,true,NA,4,31,NA,yellow,n_l_081.jpg,NA,NA,unpleasant,pleasant,NA,NA,NA,NA,NA,left,1144.30000007153,true,NA,NA,NA,NA,NA
5noeJdMe,3t2hw4qdvykwn81ckpslwayk1hg9co,3uwn2hhpu2iz6bsw9n6si0teurtsn3,5noeJdMe,2020-0188,2021-10-14,09:41:00,11:24:06,NA,incomplete,false,true,NA,4,32,NA,yellow,m_s_081.jpg,NA,NA,unpleasant,pleasant,NA,NA,NA,NA,NA,right,1622.09999990463,true,NA,NA,NA,NA,NA
5noeJdMe,3t2hw4qdvykwn81ckpslwayk1hg9co,3uwn2hhpu2iz6bsw9n6si0teurtsn3,5noeJdMe,2020-0188,2021-10-14,09:41:00,11:24:06,NA,incomplete,false,true,NA,4,33,NA,yellow,m_l_041.jpg,NA,NA,pleasant,unpleasant,NA,NA,NA,NA,NA,left,1214.60000002384,true,NA,NA,NA,NA,NA
5noeJdMe,3t2hw4qdvykwn81ckpslwayk1hg9co,3uwn2hhpu2iz6bsw9n6si0teurtsn3,5noeJdMe,2020-0188,2021-10-14,09:41:00,11:24:06,NA,incomplete,false,true,NA,4,34,NA,yellow,m_l_020.jpg,NA,NA,pleasant,unpleasant,NA,NA,NA,NA,NA,left,1247.79999995232,true,NA,NA,NA,NA,NA
5noeJdMe,3t2hw4qdvykwn81ckpslwayk1hg9co,3uwn2hhpu2iz6bsw9n6si0teurtsn3,5noeJdMe,2020-0188,2021-10-14,09:41:00,11:24:06,NA,incomplete,false,true,NA,4,35,NA,yellow,m_s_035.jpg,NA,NA,pleasant,unpleasant,NA,NA,NA,NA,NA,left,1470.80000007153,true,NA,NA,NA,NA,NA
5noeJdMe,3t2hw4qdvykwn81ckpslwayk1hg9co,3uwn2hhpu2iz6bsw9n6si0teurtsn3,5noeJdMe,2020-0188,2021-10-14,09:41:00,11:24:06,NA,incomplete,false,NA,true,4,0,NA,NA,NA,right,present,NA,NA,n_s_078.jpg,red,m_s_046.jpg,gray,between,NA,NaN,NA,left,1647.5,0,1,1428
5noeJdMe,3t2hw4qdvykwn81ckpslwayk1hg9co,3uwn2hhpu2iz6bsw9n6si0teurtsn3,5noeJdMe,2020-0188,2021-10-14,09:41:00,11:24:06,NA,incomplete,false,NA,true,4,1,NA,NA,NA,right,present,NA,NA,n_l_068.jpg,black,n_s_112.jpg,black,within,NA,NaN,NA,left,2306.399999976158,0,3,1169.1999999284744
5noeJdMe,3t2hw4qdvykwn81ckpslwayk1hg9co,3uwn2hhpu2iz6bsw9n6si0teurtsn3,5noeJdMe,2020-0188,2021-10-14,09:41:00,11:24:06,NA,incomplete,false,NA,true,4,2,NA,NA,NA,left,present,NA,NA,m_l_105.jpg,gray,m_l_058.jpg,gray,within,NA,NaN,NA,right,1898.6000000238419,0,1,1290.2000000476837
5noeJdMe,3t2hw4qdvykwn81ckpslwayk1hg9co,3uwn2hhpu2iz6bsw9n6si0teurtsn3,5noeJdMe,2020-0188,2021-10-14,09:41:00,11:24:06,NA,incomplete,false,NA,true,4,3,NA,NA,NA,right,present,NA,NA,n_s_116.jpg,orange,m_s_103.jpg,orange,within,NA,NaN,NA,left,3340.2000000476837,0,1,1486.3000000715256
5noeJdMe,3t2hw4qdvykwn81ckpslwayk1hg9co,3uwn2hhpu2iz6bsw9n6si0teurtsn3,5noeJdMe,2020-0188,2021-10-14,09:41:00,11:24:06,NA,incomplete,false,NA,true,4,4,NA,NA,NA,right,present,NA,NA,m_s_109.jpg,gray,m_s_114.jpg,purple,between,NA,NaN,NA,left,2845.7000000476837,0,2,990.4000000953674
5noeJdMe,3t2hw4qdvykwn81ckpslwayk1hg9co,3uwn2hhpu2iz6bsw9n6si0teurtsn3,5noeJdMe,2020-0188,2021-10-14,09:41:00,11:24:06,NA,incomplete,false,NA,true,4,5,NA,NA,NA,left,present,NA,NA,m_s_083.jpg,red,n_s_011.jpg,orange,between,NA,NaN,NA,right,1308.1000000238419,0,1,1031.7999999523163
5noeJdMe,3t2hw4qdvykwn81ckpslwayk1hg9co,3uwn2hhpu2iz6bsw9n6si0teurtsn3,5noeJdMe,2020-0188,2021-10-14,09:41:00,11:24:06,NA,incomplete,false,NA,true,4,6,NA,NA,NA,right,present,NA,NA,n_s_012.jpg,purple,m_l_013.jpg,black,between,NA,NaN,NA,left,2930.3000000715256,0,1,1178.8000000715256
5noeJdMe,3t2hw4qdvykwn81ckpslwayk1hg9co,3uwn2hhpu2iz6bsw9n6si0teurtsn3,5noeJdMe,2020-0188,2021-10-14,09:41:00,11:24:06,NA,incomplete,false,NA,true,4,7,NA,NA,NA,left,present,NA,NA,m_l_100.jpg,red,n_s_097.jpg,red,within,NA,NaN,NA,right,1751.8999999761581,0,2,1401.8000000715256
5noeJdMe,3t2hw4qdvykwn81ckpslwayk1hg9co,3uwn2hhpu2iz6bsw9n6si0teurtsn3,5noeJdMe,2020-0188,2021-10-14,09:41:00,11:24:06,NA,incomplete,false,NA,true,4,8,NA,NA,NA,left,present,NA,NA,n_l_081.jpg,yellow,m_s_035.jpg,yellow,within,NA,NaN,NA,left,2038.2000000476837,1,1,1291.8999999761581
5noeJdMe,3t2hw4qdvykwn81ckpslwayk1hg9co,3uwn2hhpu2iz6bsw9n6si0teurtsn3,5noeJdMe,2020-0188,2021-10-14,09:41:00,11:24:06,NA,incomplete,false,NA,true,4,9,NA,NA,NA,right,present,NA,NA,n_s_072.jpg,purple,m_l_097.jpg,purple,within,NA,NaN,NA,left,1990.5999999046326,0,2,1278.0999999046326
5noeJdMe,3t2hw4qdvykwn81ckpslwayk1hg9co,3uwn2hhpu2iz6bsw9n6si0teurtsn3,5noeJdMe,2020-0188,2021-10-14,09:41:00,11:24:06,NA,incomplete,false,NA,true,4,10,NA,NA,NA,right,present,NA,NA,m_s_081.jpg,yellow,n_l_091.jpg,orange,between,NA,NaN,NA,right,1292.6999999284744,1,2,1485.5999999046326
5noeJdMe,3t2hw4qdvykwn81ckpslwayk1hg9co,3uwn2hhpu2iz6bsw9n6si0teurtsn3,5noeJdMe,2020-0188,2021-10-14,09:41:00,11:24:06,NA,incomplete,false,true,NA,5,0,NA,yellow,m_s_017.jpg,NA,NA,pleasant,unpleasant,NA,NA,NA,NA,NA,none,0,false,NA,NA,NA,NA,NA
5noeJdMe,3t2hw4qdvykwn81ckpslwayk1hg9co,3uwn2hhpu2iz6bsw9n6si0teurtsn3,5noeJdMe,2020-0188,2021-10-14,09:41:00,11:24:06,NA,incomplete,false,true,NA,5,1,NA,yellow,m_s_106.jpg,NA,NA,pleasant,unpleasant,NA,NA,NA,NA,NA,left,2701.39999997616,true,NA,NA,NA,NA,NA
5noeJdMe,3t2hw4qdvykwn81ckpslwayk1hg9co,3uwn2hhpu2iz6bsw9n6si0teurtsn3,5noeJdMe,2020-0188,2021-10-14,09:41:00,11:24:06,NA,incomplete,false,true,NA,5,2,NA,yellow,n_l_002.jpg,NA,NA,pleasant,unpleasant,NA,NA,NA,NA,NA,right,1303.70000004768,true,NA,NA,NA,NA,NA
5noeJdMe,3t2hw4qdvykwn81ckpslwayk1hg9co,3uwn2hhpu2iz6bsw9n6si0teurtsn3,5noeJdMe,2020-0188,2021-10-14,09:41:00,11:24:06,NA,incomplete,false,true,NA,5,3,NA,yellow,n_s_089.jpg,NA,NA,pleasant,unpleasant,NA,NA,NA,NA,NA,none,0,false,NA,NA,NA,NA,NA
5noeJdMe,3t2hw4qdvykwn81ckpslwayk1hg9co,3uwn2hhpu2iz6bsw9n6si0teurtsn3,5noeJdMe,2020-0188,2021-10-14,09:41:00,11:24:06,NA,incomplete,false,true,NA,5,4,NA,yellow,m_l_068.jpg,NA,NA,pleasant,unpleasant,NA,NA,NA,NA,NA,left,1258.40000009537,true,NA,NA,NA,NA,NA
5noeJdMe,3t2hw4qdvykwn81ckpslwayk1hg9co,3uwn2hhpu2iz6bsw9n6si0teurtsn3,5noeJdMe,2020-0188,2021-10-14,09:41:00,11:24:06,NA,incomplete,false,true,NA,5,5,NA,yellow,n_l_076.jpg,NA,NA,unpleasant,pleasant,NA,NA,NA,NA,NA,right,2883.70000004768,true,NA,NA,NA,NA,NA
5noeJdMe,3t2hw4qdvykwn81ckpslwayk1hg9co,3uwn2hhpu2iz6bsw9n6si0teurtsn3,5noeJdMe,2020-0188,2021-10-14,09:41:00,11:24:06,NA,incomplete,false,true,NA,5,6,NA,white,n_s_084.jpg,NA,NA,pleasant,unpleasant,NA,NA,NA,NA,NA,right,1187.10000002384,true,NA,NA,NA,NA,NA
5noeJdMe,3t2hw4qdvykwn81ckpslwayk1hg9co,3uwn2hhpu2iz6bsw9n6si0teurtsn3,5noeJdMe,2020-0188,2021-10-14,09:41:00,11:24:06,NA,incomplete,false,true,NA,5,7,NA,white,m_l_007.jpg,NA,NA,unpleasant,pleasant,NA,NA,NA,NA,NA,left,1412.60000002384,true,NA,NA,NA,NA,NA
5noeJdMe,3t2hw4qdvykwn81ckpslwayk1hg9co,3uwn2hhpu2iz6bsw9n6si0teurtsn3,5noeJdMe,2020-0188,2021-10-14,09:41:00,11:24:06,NA,incomplete,false,true,NA,5,8,NA,white,m_s_049.jpg,NA,NA,unpleasant,pleasant,NA,NA,NA,NA,NA,left,1247.60000002384,true,NA,NA,NA,NA,NA
5noeJdMe,3t2hw4qdvykwn81ckpslwayk1hg9co,3uwn2hhpu2iz6bsw9n6si0teurtsn3,5noeJdMe,2020-0188,2021-10-14,09:41:00,11:24:06,NA,incomplete,false,true,NA,5,9,NA,white,m_l_056.jpg,NA,NA,pleasant,unpleasant,NA,NA,NA,NA,NA,left,1524.70000004768,true,NA,NA,NA,NA,NA
5noeJdMe,3t2hw4qdvykwn81ckpslwayk1hg9co,3uwn2hhpu2iz6bsw9n6si0teurtsn3,5noeJdMe,2020-0188,2021-10-14,09:41:00,11:24:06,NA,incomplete,false,true,NA,5,10,NA,white,m_s_030.jpg,NA,NA,unpleasant,pleasant,NA,NA,NA,NA,NA,left,1430.5,true,NA,NA,NA,NA,NA
5noeJdMe,3t2hw4qdvykwn81ckpslwayk1hg9co,3uwn2hhpu2iz6bsw9n6si0teurtsn3,5noeJdMe,2020-0188,2021-10-14,09:41:00,11:24:06,NA,incomplete,false,true,NA,5,11,NA,white,m_l_109.jpg,NA,NA,unpleasant,pleasant,NA,NA,NA,NA,NA,right,1794.40000009537,true,NA,NA,NA,NA,NA
5noeJdMe,3t2hw4qdvykwn81ckpslwayk1hg9co,3uwn2hhpu2iz6bsw9n6si0teurtsn3,5noeJdMe,2020-0188,2021-10-14,09:41:00,11:24:06,NA,incomplete,false,true,NA,5,12,NA,blue,m_l_061.jpg,NA,NA,pleasant,unpleasant,NA,NA,NA,NA,NA,right,2149.60000002384,true,NA,NA,NA,NA,NA
5noeJdMe,3t2hw4qdvykwn81ckpslwayk1hg9co,3uwn2hhpu2iz6bsw9n6si0teurtsn3,5noeJdMe,2020-0188,2021-10-14,09:41:00,11:24:06,NA,incomplete,false,true,NA,5,13,NA,blue,m_l_001.jpg,NA,NA,unpleasant,pleasant,NA,NA,NA,NA,NA,right,1957.39999997616,true,NA,NA,NA,NA,NA
5noeJdMe,3t2hw4qdvykwn81ckpslwayk1hg9co,3uwn2hhpu2iz6bsw9n6si0teurtsn3,5noeJdMe,2020-0188,2021-10-14,09:41:00,11:24:06,NA,incomplete,false,true,NA,5,14,NA,blue,m_s_112.jpg,NA,NA,pleasant,unpleasant,NA,NA,NA,NA,NA,right,1736.39999997616,true,NA,NA,NA,NA,NA
5noeJdMe,3t2hw4qdvykwn81ckpslwayk1hg9co,3uwn2hhpu2iz6bsw9n6si0teurtsn3,5noeJdMe,2020-0188,2021-10-14,09:41:00,11:24:06,NA,incomplete,false,true,NA,5,15,NA,blue,m_l_112.jpg,NA,NA,unpleasant,pleasant,NA,NA,NA,NA,NA,right,1315.70000004768,true,NA,NA,NA,NA,NA
5noeJdMe,3t2hw4qdvykwn81ckpslwayk1hg9co,3uwn2hhpu2iz6bsw9n6si0teurtsn3,5noeJdMe,2020-0188,2021-10-14,09:41:00,11:24:06,NA,incomplete,false,true,NA,5,16,NA,blue,m_s_013.jpg,NA,NA,unpleasant,pleasant,NA,NA,NA,NA,NA,left,1290.59999990463,true,NA,NA,NA,NA,NA
5noeJdMe,3t2hw4qdvykwn81ckpslwayk1hg9co,3uwn2hhpu2iz6bsw9n6si0teurtsn3,5noeJdMe,2020-0188,2021-10-14,09:41:00,11:24:06,NA,incomplete,false,true,NA,5,17,NA,blue,n_s_079.jpg,NA,NA,pleasant,unpleasant,NA,NA,NA,NA,NA,left,1246.39999997616,true,NA,NA,NA,NA,NA
5noeJdMe,3t2hw4qdvykwn81ckpslwayk1hg9co,3uwn2hhpu2iz6bsw9n6si0teurtsn3,5noeJdMe,2020-0188,2021-10-14,09:41:00,11:24:06,NA,incomplete,false,true,NA,5,18,NA,orange,n_s_105.jpg,NA,NA,unpleasant,pleasant,NA,NA,NA,NA,NA,right,1096.09999990463,true,NA,NA,NA,NA,NA
5noeJdMe,3t2hw4qdvykwn81ckpslwayk1hg9co,3uwn2hhpu2iz6bsw9n6si0teurtsn3,5noeJdMe,2020-0188,2021-10-14,09:41:00,11:24:06,NA,incomplete,false,true,NA,5,19,NA,orange,m_s_056.jpg,NA,NA,pleasant,unpleasant,NA,NA,NA,NA,NA,left,1250.90000009537,true,NA,NA,NA,NA,NA
5noeJdMe,3t2hw4qdvykwn81ckpslwayk1hg9co,3uwn2hhpu2iz6bsw9n6si0teurtsn3,5noeJdMe,2020-0188,2021-10-14,09:41:00,11:24:06,NA,incomplete,false,true,NA,5,20,NA,orange,m_l_044.jpg,NA,NA,unpleasant,pleasant,NA,NA,NA,NA,NA,right,1192.5,true,NA,NA,NA,NA,NA
5noeJdMe,3t2hw4qdvykwn81ckpslwayk1hg9co,3uwn2hhpu2iz6bsw9n6si0teurtsn3,5noeJdMe,2020-0188,2021-10-14,09:41:00,11:24:06,NA,incomplete,false,true,NA,5,21,NA,orange,n_l_032.jpg,NA,NA,pleasant,unpleasant,NA,NA,NA,NA,NA,left,1127,true,NA,NA,NA,NA,NA
5noeJdMe,3t2hw4qdvykwn81ckpslwayk1hg9co,3uwn2hhpu2iz6bsw9n6si0teurtsn3,5noeJdMe,2020-0188,2021-10-14,09:41:00,11:24:06,NA,incomplete,false,true,NA,5,22,NA,orange,n_l_052.jpg,NA,NA,unpleasant,pleasant,NA,NA,NA,NA,NA,right,1353.79999995232,true,NA,NA,NA,NA,NA
5noeJdMe,3t2hw4qdvykwn81ckpslwayk1hg9co,3uwn2hhpu2iz6bsw9n6si0teurtsn3,5noeJdMe,2020-0188,2021-10-14,09:41:00,11:24:06,NA,incomplete,false,true,NA,5,23,NA,orange,m_l_082.jpg,NA,NA,unpleasant,pleasant,NA,NA,NA,NA,NA,right,924,true,NA,NA,NA,NA,NA
5noeJdMe,3t2hw4qdvykwn81ckpslwayk1hg9co,3uwn2hhpu2iz6bsw9n6si0teurtsn3,5noeJdMe,2020-0188,2021-10-14,09:41:00,11:24:06,NA,incomplete,false,true,NA,5,24,NA,gray,m_s_084.jpg,NA,NA,unpleasant,pleasant,NA,NA,NA,NA,NA,left,1599.60000002384,true,NA,NA,NA,NA,NA
5noeJdMe,3t2hw4qdvykwn81ckpslwayk1hg9co,3uwn2hhpu2iz6bsw9n6si0teurtsn3,5noeJdMe,2020-0188,2021-10-14,09:41:00,11:24:06,NA,incomplete,false,true,NA,5,25,NA,gray,m_l_094.jpg,NA,NA,unpleasant,pleasant,NA,NA,NA,NA,NA,left,1154.90000009537,true,NA,NA,NA,NA,NA
5noeJdMe,3t2hw4qdvykwn81ckpslwayk1hg9co,3uwn2hhpu2iz6bsw9n6si0teurtsn3,5noeJdMe,2020-0188,2021-10-14,09:41:00,11:24:06,NA,incomplete,false,true,NA,5,26,NA,gray,m_s_062.jpg,NA,NA,pleasant,unpleasant,NA,NA,NA,NA,NA,right,1348.30000007153,true,NA,NA,NA,NA,NA
5noeJdMe,3t2hw4qdvykwn81ckpslwayk1hg9co,3uwn2hhpu2iz6bsw9n6si0teurtsn3,5noeJdMe,2020-0188,2021-10-14,09:41:00,11:24:06,NA,incomplete,false,true,NA,5,27,NA,gray,n_s_115.jpg,NA,NA,unpleasant,pleasant,NA,NA,NA,NA,NA,left,1087.60000002384,true,NA,NA,NA,NA,NA
5noeJdMe,3t2hw4qdvykwn81ckpslwayk1hg9co,3uwn2hhpu2iz6bsw9n6si0teurtsn3,5noeJdMe,2020-0188,2021-10-14,09:41:00,11:24:06,NA,incomplete,false,true,NA,5,28,NA,gray,m_l_071.jpg,NA,NA,unpleasant,pleasant,NA,NA,NA,NA,NA,left,1147.09999990463,true,NA,NA,NA,NA,NA
5noeJdMe,3t2hw4qdvykwn81ckpslwayk1hg9co,3uwn2hhpu2iz6bsw9n6si0teurtsn3,5noeJdMe,2020-0188,2021-10-14,09:41:00,11:24:06,NA,incomplete,false,true,NA,5,29,NA,gray,n_l_036.jpg,NA,NA,unpleasant,pleasant,NA,NA,NA,NA,NA,right,1188,true,NA,NA,NA,NA,NA
5noeJdMe,3t2hw4qdvykwn81ckpslwayk1hg9co,3uwn2hhpu2iz6bsw9n6si0teurtsn3,5noeJdMe,2020-0188,2021-10-14,09:41:00,11:24:06,NA,incomplete,false,true,NA,5,30,NA,brown,n_l_109.jpg,NA,NA,pleasant,unpleasant,NA,NA,NA,NA,NA,left,1487.69999992847,true,NA,NA,NA,NA,NA
5noeJdMe,3t2hw4qdvykwn81ckpslwayk1hg9co,3uwn2hhpu2iz6bsw9n6si0teurtsn3,5noeJdMe,2020-0188,2021-10-14,09:41:00,11:24:06,NA,incomplete,false,true,NA,5,31,NA,brown,m_l_084.jpg,NA,NA,unpleasant,pleasant,NA,NA,NA,NA,NA,left,1765,true,NA,NA,NA,NA,NA
5noeJdMe,3t2hw4qdvykwn81ckpslwayk1hg9co,3uwn2hhpu2iz6bsw9n6si0teurtsn3,5noeJdMe,2020-0188,2021-10-14,09:41:00,11:24:06,NA,incomplete,false,true,NA,5,32,NA,brown,n_s_035.jpg,NA,NA,pleasant,unpleasant,NA,NA,NA,NA,NA,right,1199.89999997616,true,NA,NA,NA,NA,NA
5noeJdMe,3t2hw4qdvykwn81ckpslwayk1hg9co,3uwn2hhpu2iz6bsw9n6si0teurtsn3,5noeJdMe,2020-0188,2021-10-14,09:41:00,11:24:06,NA,incomplete,false,true,NA,5,33,NA,brown,m_l_073.jpg,NA,NA,unpleasant,pleasant,NA,NA,NA,NA,NA,right,1767.5,true,NA,NA,NA,NA,NA
5noeJdMe,3t2hw4qdvykwn81ckpslwayk1hg9co,3uwn2hhpu2iz6bsw9n6si0teurtsn3,5noeJdMe,2020-0188,2021-10-14,09:41:00,11:24:06,NA,incomplete,false,true,NA,5,34,NA,brown,m_l_006.jpg,NA,NA,unpleasant,pleasant,NA,NA,NA,NA,NA,right,1412.20000004768,true,NA,NA,NA,NA,NA
5noeJdMe,3t2hw4qdvykwn81ckpslwayk1hg9co,3uwn2hhpu2iz6bsw9n6si0teurtsn3,5noeJdMe,2020-0188,2021-10-14,09:41:00,11:24:06,NA,incomplete,false,true,NA,5,35,NA,brown,m_s_065.jpg,NA,NA,unpleasant,pleasant,NA,NA,NA,NA,NA,right,2707.29999995232,true,NA,NA,NA,NA,NA
5noeJdMe,3t2hw4qdvykwn81ckpslwayk1hg9co,3uwn2hhpu2iz6bsw9n6si0teurtsn3,5noeJdMe,2020-0188,2021-10-14,09:41:00,11:24:06,NA,incomplete,false,NA,true,5,0,NA,NA,NA,left,absent,NA,NA,m_l_084.jpg,brown,m_s_065.jpg,brown,within,NA,NaN,NA,right,1525.2000000476837,0,1,1440
5noeJdMe,3t2hw4qdvykwn81ckpslwayk1hg9co,3uwn2hhpu2iz6bsw9n6si0teurtsn3,5noeJdMe,2020-0188,2021-10-14,09:41:00,11:24:06,NA,incomplete,false,NA,true,5,1,NA,NA,NA,left,absent,NA,NA,m_l_094.jpg,gray,n_l_036.jpg,gray,within,NA,NaN,NA,right,1283.0999999046326,0,2,1661.8999999761581
5noeJdMe,3t2hw4qdvykwn81ckpslwayk1hg9co,3uwn2hhpu2iz6bsw9n6si0teurtsn3,5noeJdMe,2020-0188,2021-10-14,09:41:00,11:24:06,NA,incomplete,false,NA,true,5,2,NA,NA,NA,right,absent,NA,NA,n_s_079.jpg,blue,m_l_001.jpg,blue,within,NA,NaN,NA,right,2289.5,1,2,1122
5noeJdMe,3t2hw4qdvykwn81ckpslwayk1hg9co,3uwn2hhpu2iz6bsw9n6si0teurtsn3,5noeJdMe,2020-0188,2021-10-14,09:41:00,11:24:06,NA,incomplete,false,NA,true,5,3,NA,NA,NA,left,absent,NA,NA,m_s_056.jpg,orange,m_l_082.jpg,orange,within,NA,NaN,NA,left,2067.600000023842,1,3,1623.6000000238419
5noeJdMe,3t2hw4qdvykwn81ckpslwayk1hg9co,3uwn2hhpu2iz6bsw9n6si0teurtsn3,5noeJdMe,2020-0188,2021-10-14,09:41:00,11:24:06,NA,incomplete,false,NA,true,5,4,NA,NA,NA,left,absent,NA,NA,m_s_106.jpg,yellow,n_l_076.jpg,yellow,within,NA,NaN,NA,right,1368.2000000476837,0,1,1154.7999999523163
5noeJdMe,3t2hw4qdvykwn81ckpslwayk1hg9co,3uwn2hhpu2iz6bsw9n6si0teurtsn3,5noeJdMe,2020-0188,2021-10-14,09:41:00,11:24:06,NA,incomplete,false,NA,true,5,5,NA,NA,NA,right,absent,NA,NA,m_l_044.jpg,orange,m_s_013.jpg,blue,between,NA,NaN,NA,right,1324.8999999761581,1,0,1605.3000000715256
5noeJdMe,3t2hw4qdvykwn81ckpslwayk1hg9co,3uwn2hhpu2iz6bsw9n6si0teurtsn3,5noeJdMe,2020-0188,2021-10-14,09:41:00,11:24:06,NA,incomplete,false,NA,true,5,6,NA,NA,NA,right,absent,NA,NA,m_s_112.jpg,blue,m_s_030.jpg,white,between,NA,NaN,NA,right,1688.1000000238419,1,1,1262.2999999523163
5noeJdMe,3t2hw4qdvykwn81ckpslwayk1hg9co,3uwn2hhpu2iz6bsw9n6si0teurtsn3,5noeJdMe,2020-0188,2021-10-14,09:41:00,11:24:06,NA,incomplete,false,NA,true,5,7,NA,NA,NA,right,absent,NA,NA,m_s_049.jpg,white,m_l_068.jpg,yellow,between,NA,NaN,NA,right,1650.2999999523163,1,1,1890.2999999523163
5noeJdMe,3t2hw4qdvykwn81ckpslwayk1hg9co,3uwn2hhpu2iz6bsw9n6si0teurtsn3,5noeJdMe,2020-0188,2021-10-14,09:41:00,11:24:06,NA,incomplete,false,NA,true,5,8,NA,NA,NA,left,absent,NA,NA,m_l_007.jpg,white,m_l_109.jpg,white,within,NA,NaN,NA,right,1333.6000000238419,0,2,1679.2000000476837
5noeJdMe,3t2hw4qdvykwn81ckpslwayk1hg9co,3uwn2hhpu2iz6bsw9n6si0teurtsn3,5noeJdMe,2020-0188,2021-10-14,09:41:00,11:24:06,NA,incomplete,false,NA,true,5,9,NA,NA,NA,right,absent,NA,NA,n_s_035.jpg,brown,m_l_071.jpg,gray,between,NA,NaN,NA,left,1302.6000000238419,0,3,1106.5
5noeJdMe,3t2hw4qdvykwn81ckpslwayk1hg9co,3uwn2hhpu2iz6bsw9n6si0teurtsn3,5noeJdMe,2020-0188,2021-10-14,09:41:00,11:24:06,NA,incomplete,false,NA,true,5,10,NA,NA,NA,right,absent,NA,NA,m_s_062.jpg,gray,n_l_052.jpg,orange,between,NA,NaN,NA,right,2022,1,0,1502.2000000476837
5noeJdMe,3t2hw4qdvykwn81ckpslwayk1hg9co,3uwn2hhpu2iz6bsw9n6si0teurtsn3,5noeJdMe,2020-0188,2021-10-14,09:41:00,11:24:06,NA,incomplete,false,true,NA,6,0,NA,yellow,m_l_026.jpg,NA,NA,unpleasant,pleasant,NA,NA,NA,NA,NA,right,3188.10000002384,true,NA,NA,NA,NA,NA
5noeJdMe,3t2hw4qdvykwn81ckpslwayk1hg9co,3uwn2hhpu2iz6bsw9n6si0teurtsn3,5noeJdMe,2020-0188,2021-10-14,09:41:00,11:24:06,NA,incomplete,false,true,NA,6,1,NA,yellow,m_s_031.jpg,NA,NA,pleasant,unpleasant,NA,NA,NA,NA,NA,left,1651.29999995232,true,NA,NA,NA,NA,NA
5noeJdMe,3t2hw4qdvykwn81ckpslwayk1hg9co,3uwn2hhpu2iz6bsw9n6si0teurtsn3,5noeJdMe,2020-0188,2021-10-14,09:41:00,11:24:06,NA,incomplete,false,true,NA,6,2,NA,yellow,m_l_011.jpg,NA,NA,pleasant,unpleasant,NA,NA,NA,NA,NA,right,1085.29999995232,true,NA,NA,NA,NA,NA
5noeJdMe,3t2hw4qdvykwn81ckpslwayk1hg9co,3uwn2hhpu2iz6bsw9n6si0teurtsn3,5noeJdMe,2020-0188,2021-10-14,09:41:00,11:24:06,NA,incomplete,false,true,NA,6,3,NA,yellow,m_l_087.jpg,NA,NA,unpleasant,pleasant,NA,NA,NA,NA,NA,right,2373.5,true,NA,NA,NA,NA,NA
5noeJdMe,3t2hw4qdvykwn81ckpslwayk1hg9co,3uwn2hhpu2iz6bsw9n6si0teurtsn3,5noeJdMe,2020-0188,2021-10-14,09:41:00,11:24:06,NA,incomplete,false,true,NA,6,4,NA,yellow,n_l_054.jpg,NA,NA,unpleasant,pleasant,NA,NA,NA,NA,NA,right,2249.10000002384,true,NA,NA,NA,NA,NA
5noeJdMe,3t2hw4qdvykwn81ckpslwayk1hg9co,3uwn2hhpu2iz6bsw9n6si0teurtsn3,5noeJdMe,2020-0188,2021-10-14,09:41:00,11:24:06,NA,incomplete,false,true,NA,6,5,NA,yellow,n_l_102.jpg,NA,NA,pleasant,unpleasant,NA,NA,NA,NA,NA,left,1799.79999995232,true,NA,NA,NA,NA,NA
5noeJdMe,3t2hw4qdvykwn81ckpslwayk1hg9co,3uwn2hhpu2iz6bsw9n6si0teurtsn3,5noeJdMe,2020-0188,2021-10-14,09:41:00,11:24:06,NA,incomplete,false,true,NA,6,6,NA,gray,n_s_050.jpg,NA,NA,unpleasant,pleasant,NA,NA,NA,NA,NA,right,1535.39999997616,true,NA,NA,NA,NA,NA
5noeJdMe,3t2hw4qdvykwn81ckpslwayk1hg9co,3uwn2hhpu2iz6bsw9n6si0teurtsn3,5noeJdMe,2020-0188,2021-10-14,09:41:00,11:24:06,NA,incomplete,false,true,NA,6,7,NA,gray,n_l_012.jpg,NA,NA,pleasant,unpleasant,NA,NA,NA,NA,NA,right,1975.39999997616,true,NA,NA,NA,NA,NA
5noeJdMe,3t2hw4qdvykwn81ckpslwayk1hg9co,3uwn2hhpu2iz6bsw9n6si0teurtsn3,5noeJdMe,2020-0188,2021-10-14,09:41:00,11:24:06,NA,incomplete,false,true,NA,6,8,NA,gray,m_s_102.jpg,NA,NA,unpleasant,pleasant,NA,NA,NA,NA,NA,right,2129.39999997616,true,NA,NA,NA,NA,NA
5noeJdMe,3t2hw4qdvykwn81ckpslwayk1hg9co,3uwn2hhpu2iz6bsw9n6si0teurtsn3,5noeJdMe,2020-0188,2021-10-14,09:41:00,11:24:06,NA,incomplete,false,true,NA,6,9,NA,gray,n_l_016.jpg,NA,NA,unpleasant,pleasant,NA,NA,NA,NA,NA,right,2110.10000002384,true,NA,NA,NA,NA,NA
5noeJdMe,3t2hw4qdvykwn81ckpslwayk1hg9co,3uwn2hhpu2iz6bsw9n6si0teurtsn3,5noeJdMe,2020-0188,2021-10-14,09:41:00,11:24:06,NA,incomplete,false,true,NA,6,10,NA,gray,n_s_098.jpg,NA,NA,unpleasant,pleasant,NA,NA,NA,NA,NA,left,783.699999928474,true,NA,NA,NA,NA,NA
5noeJdMe,3t2hw4qdvykwn81ckpslwayk1hg9co,3uwn2hhpu2iz6bsw9n6si0teurtsn3,5noeJdMe,2020-0188,2021-10-14,09:41:00,11:24:06,NA,incomplete,false,true,NA,6,11,NA,gray,n_l_055.jpg,NA,NA,pleasant,unpleasant,NA,NA,NA,NA,NA,left,1634.19999992847,true,NA,NA,NA,NA,NA
5noeJdMe,3t2hw4qdvykwn81ckpslwayk1hg9co,3uwn2hhpu2iz6bsw9n6si0teurtsn3,5noeJdMe,2020-0188,2021-10-14,09:41:00,11:24:06,NA,incomplete,false,true,NA,6,12,NA,green,n_s_043.jpg,NA,NA,unpleasant,pleasant,NA,NA,NA,NA,NA,right,1665.80000007153,true,NA,NA,NA,NA,NA
5noeJdMe,3t2hw4qdvykwn81ckpslwayk1hg9co,3uwn2hhpu2iz6bsw9n6si0teurtsn3,5noeJdMe,2020-0188,2021-10-14,09:41:00,11:24:06,NA,incomplete,false,true,NA,6,13,NA,green,n_s_004.jpg,NA,NA,pleasant,unpleasant,NA,NA,NA,NA,NA,left,1810.29999995232,true,NA,NA,NA,NA,NA
5noeJdMe,3t2hw4qdvykwn81ckpslwayk1hg9co,3uwn2hhpu2iz6bsw9n6si0teurtsn3,5noeJdMe,2020-0188,2021-10-14,09:41:00,11:24:06,NA,incomplete,false,true,NA,6,14,NA,green,n_s_061.jpg,NA,NA,unpleasant,pleasant,NA,NA,NA,NA,NA,right,996.400000095367,true,NA,NA,NA,NA,NA
5noeJdMe,3t2hw4qdvykwn81ckpslwayk1hg9co,3uwn2hhpu2iz6bsw9n6si0teurtsn3,5noeJdMe,2020-0188,2021-10-14,09:41:00,11:24:06,NA,incomplete,false,true,NA,6,15,NA,green,m_l_103.jpg,NA,NA,unpleasant,pleasant,NA,NA,NA,NA,NA,right,1150.79999995232,true,NA,NA,NA,NA,NA
5noeJdMe,3t2hw4qdvykwn81ckpslwayk1hg9co,3uwn2hhpu2iz6bsw9n6si0teurtsn3,5noeJdMe,2020-0188,2021-10-14,09:41:00,11:24:06,NA,incomplete,false,true,NA,6,16,NA,green,n_l_107.jpg,NA,NA,pleasant,unpleasant,NA,NA,NA,NA,NA,left,1484.19999992847,true,NA,NA,NA,NA,NA
5noeJdMe,3t2hw4qdvykwn81ckpslwayk1hg9co,3uwn2hhpu2iz6bsw9n6si0teurtsn3,5noeJdMe,2020-0188,2021-10-14,09:41:00,11:24:06,NA,incomplete,false,true,NA,6,17,NA,green,m_s_021.jpg,NA,NA,unpleasant,pleasant,NA,NA,NA,NA,NA,right,2432.69999992847,true,NA,NA,NA,NA,NA
5noeJdMe,3t2hw4qdvykwn81ckpslwayk1hg9co,3uwn2hhpu2iz6bsw9n6si0teurtsn3,5noeJdMe,2020-0188,2021-10-14,09:41:00,11:24:06,NA,incomplete,false,true,NA,6,18,NA,purple,m_l_053.jpg,NA,NA,unpleasant,pleasant,NA,NA,NA,NA,NA,right,942.5,true,NA,NA,NA,NA,NA
5noeJdMe,3t2hw4qdvykwn81ckpslwayk1hg9co,3uwn2hhpu2iz6bsw9n6si0teurtsn3,5noeJdMe,2020-0188,2021-10-14,09:41:00,11:24:06,NA,incomplete,false,true,NA,6,19,NA,purple,m_l_019.jpg,NA,NA,pleasant,unpleasant,NA,NA,NA,NA,NA,left,1585.5,true,NA,NA,NA,NA,NA
5noeJdMe,3t2hw4qdvykwn81ckpslwayk1hg9co,3uwn2hhpu2iz6bsw9n6si0teurtsn3,5noeJdMe,2020-0188,2021-10-14,09:41:00,11:24:06,NA,incomplete,false,true,NA,6,20,NA,purple,n_l_073.jpg,NA,NA,unpleasant,pleasant,NA,NA,NA,NA,NA,left,1304.30000007153,true,NA,NA,NA,NA,NA
5noeJdMe,3t2hw4qdvykwn81ckpslwayk1hg9co,3uwn2hhpu2iz6bsw9n6si0teurtsn3,5noeJdMe,2020-0188,2021-10-14,09:41:00,11:24:06,NA,incomplete,false,true,NA,6,21,NA,purple,m_l_062.jpg,NA,NA,pleasant,unpleasant,NA,NA,NA,NA,NA,left,1969.40000009537,true,NA,NA,NA,NA,NA
5noeJdMe,3t2hw4qdvykwn81ckpslwayk1hg9co,3uwn2hhpu2iz6bsw9n6si0teurtsn3,5noeJdMe,2020-0188,2021-10-14,09:41:00,11:24:06,NA,incomplete,false,true,NA,6,22,NA,purple,n_s_092.jpg,NA,NA,pleasant,unpleasant,NA,NA,NA,NA,NA,left,1297.89999997616,true,NA,NA,NA,NA,NA
5noeJdMe,3t2hw4qdvykwn81ckpslwayk1hg9co,3uwn2hhpu2iz6bsw9n6si0teurtsn3,5noeJdMe,2020-0188,2021-10-14,09:41:00,11:24:06,NA,incomplete,false,true,NA,6,23,NA,purple,n_l_086.jpg,NA,NA,unpleasant,pleasant,NA,NA,NA,NA,NA,right,1379.69999992847,true,NA,NA,NA,NA,NA
5noeJdMe,3t2hw4qdvykwn81ckpslwayk1hg9co,3uwn2hhpu2iz6bsw9n6si0teurtsn3,5noeJdMe,2020-0188,2021-10-14,09:41:00,11:24:06,NA,incomplete,false,true,NA,6,24,NA,black,n_s_036.jpg,NA,NA,unpleasant,pleasant,NA,NA,NA,NA,NA,left,1172.60000002384,true,NA,NA,NA,NA,NA
5noeJdMe,3t2hw4qdvykwn81ckpslwayk1hg9co,3uwn2hhpu2iz6bsw9n6si0teurtsn3,5noeJdMe,2020-0188,2021-10-14,09:41:00,11:24:06,NA,incomplete,false,true,NA,6,25,NA,black,m_l_012.jpg,NA,NA,unpleasant,pleasant,NA,NA,NA,NA,NA,right,1259.79999995232,true,NA,NA,NA,NA,NA
5noeJdMe,3t2hw4qdvykwn81ckpslwayk1hg9co,3uwn2hhpu2iz6bsw9n6si0teurtsn3,5noeJdMe,2020-0188,2021-10-14,09:41:00,11:24:06,NA,incomplete,false,true,NA,6,26,NA,black,m_s_055.jpg,NA,NA,pleasant,unpleasant,NA,NA,NA,NA,NA,left,1090.80000007153,true,NA,NA,NA,NA,NA
5noeJdMe,3t2hw4qdvykwn81ckpslwayk1hg9co,3uwn2hhpu2iz6bsw9n6si0teurtsn3,5noeJdMe,2020-0188,2021-10-14,09:41:00,11:24:06,NA,incomplete,false,true,NA,6,27,NA,black,m_l_111.jpg,NA,NA,pleasant,unpleasant,NA,NA,NA,NA,NA,right,2490.20000004768,true,NA,NA,NA,NA,NA
5noeJdMe,3t2hw4qdvykwn81ckpslwayk1hg9co,3uwn2hhpu2iz6bsw9n6si0teurtsn3,5noeJdMe,2020-0188,2021-10-14,09:41:00,11:24:06,NA,incomplete,false,true,NA,6,28,NA,black,m_s_011.jpg,NA,NA,pleasant,unpleasant,NA,NA,NA,NA,NA,left,1247.20000004768,true,NA,NA,NA,NA,NA
5noeJdMe,3t2hw4qdvykwn81ckpslwayk1hg9co,3uwn2hhpu2iz6bsw9n6si0teurtsn3,5noeJdMe,2020-0188,2021-10-14,09:41:00,11:24:06,NA,incomplete,false,true,NA,6,29,NA,black,m_l_066.jpg,NA,NA,pleasant,unpleasant,NA,NA,NA,NA,NA,right,2714.79999995232,true,NA,NA,NA,NA,NA
5noeJdMe,3t2hw4qdvykwn81ckpslwayk1hg9co,3uwn2hhpu2iz6bsw9n6si0teurtsn3,5noeJdMe,2020-0188,2021-10-14,09:41:00,11:24:06,NA,incomplete,false,true,NA,6,30,NA,red,m_s_091.jpg,NA,NA,pleasant,unpleasant,NA,NA,NA,NA,NA,left,1584.69999992847,true,NA,NA,NA,NA,NA
5noeJdMe,3t2hw4qdvykwn81ckpslwayk1hg9co,3uwn2hhpu2iz6bsw9n6si0teurtsn3,5noeJdMe,2020-0188,2021-10-14,09:41:00,11:24:06,NA,incomplete,false,true,NA,6,31,NA,red,n_l_051.jpg,NA,NA,pleasant,unpleasant,NA,NA,NA,NA,NA,right,2332.89999997616,true,NA,NA,NA,NA,NA
5noeJdMe,3t2hw4qdvykwn81ckpslwayk1hg9co,3uwn2hhpu2iz6bsw9n6si0teurtsn3,5noeJdMe,2020-0188,2021-10-14,09:41:00,11:24:06,NA,incomplete,false,true,NA,6,32,NA,red,n_s_033.jpg,NA,NA,pleasant,unpleasant,NA,NA,NA,NA,NA,right,992.5,true,NA,NA,NA,NA,NA
5noeJdMe,3t2hw4qdvykwn81ckpslwayk1hg9co,3uwn2hhpu2iz6bsw9n6si0teurtsn3,5noeJdMe,2020-0188,2021-10-14,09:41:00,11:24:06,NA,incomplete,false,true,NA,6,33,NA,red,m_l_090.jpg,NA,NA,pleasant,unpleasant,NA,NA,NA,NA,NA,right,1086.79999995232,true,NA,NA,NA,NA,NA
5noeJdMe,3t2hw4qdvykwn81ckpslwayk1hg9co,3uwn2hhpu2iz6bsw9n6si0teurtsn3,5noeJdMe,2020-0188,2021-10-14,09:41:00,11:24:06,NA,incomplete,false,true,NA,6,34,NA,red,n_l_049.jpg,NA,NA,unpleasant,pleasant,NA,NA,NA,NA,NA,left,1202,true,NA,NA,NA,NA,NA
5noeJdMe,3t2hw4qdvykwn81ckpslwayk1hg9co,3uwn2hhpu2iz6bsw9n6si0teurtsn3,5noeJdMe,2020-0188,2021-10-14,09:41:00,11:24:06,NA,incomplete,false,true,NA,6,35,NA,red,m_l_057.jpg,NA,NA,unpleasant,pleasant,NA,NA,NA,NA,NA,left,1208.80000007153,true,NA,NA,NA,NA,NA
5noeJdMe,3t2hw4qdvykwn81ckpslwayk1hg9co,3uwn2hhpu2iz6bsw9n6si0teurtsn3,5noeJdMe,2020-0188,2021-10-14,09:41:00,11:24:06,NA,incomplete,false,NA,true,6,0,NA,NA,NA,right,absent,NA,NA,m_s_021.jpg,green,n_s_004.jpg,green,within,NA,NaN,NA,left,2029.7000000476837,0,1,1674.6000000238419
5noeJdMe,3t2hw4qdvykwn81ckpslwayk1hg9co,3uwn2hhpu2iz6bsw9n6si0teurtsn3,5noeJdMe,2020-0188,2021-10-14,09:41:00,11:24:06,NA,incomplete,false,NA,true,6,1,NA,NA,NA,right,absent,NA,NA,n_l_073.jpg,purple,n_l_107.jpg,green,between,NA,NaN,NA,right,1156.8000000715256,1,2,1402.2000000476837
5noeJdMe,3t2hw4qdvykwn81ckpslwayk1hg9co,3uwn2hhpu2iz6bsw9n6si0teurtsn3,5noeJdMe,2020-0188,2021-10-14,09:41:00,11:24:06,NA,incomplete,false,NA,true,6,2,NA,NA,NA,left,absent,NA,NA,n_s_092.jpg,purple,m_s_055.jpg,black,between,NA,NaN,NA,left,1369.4000000953674,1,3,1355.8999999761581
5noeJdMe,3t2hw4qdvykwn81ckpslwayk1hg9co,3uwn2hhpu2iz6bsw9n6si0teurtsn3,5noeJdMe,2020-0188,2021-10-14,09:41:00,11:24:06,NA,incomplete,false,NA,true,6,3,NA,NA,NA,right,absent,NA,NA,n_l_102.jpg,yellow,m_s_031.jpg,yellow,within,NA,NaN,NA,right,1473.7000000476837,1,0,2091
5noeJdMe,3t2hw4qdvykwn81ckpslwayk1hg9co,3uwn2hhpu2iz6bsw9n6si0teurtsn3,5noeJdMe,2020-0188,2021-10-14,09:41:00,11:24:06,NA,incomplete,false,NA,true,6,4,NA,NA,NA,left,absent,NA,NA,m_l_019.jpg,purple,n_l_086.jpg,purple,within,NA,NaN,NA,left,2069.2000000476837,1,3,1092.6000000238419
5noeJdMe,3t2hw4qdvykwn81ckpslwayk1hg9co,3uwn2hhpu2iz6bsw9n6si0teurtsn3,5noeJdMe,2020-0188,2021-10-14,09:41:00,11:24:06,NA,incomplete,false,NA,true,6,5,NA,NA,NA,right,absent,NA,NA,n_l_055.jpg,gray,n_l_012.jpg,gray,within,NA,NaN,NA,left,1634.7999999523163,0,3,980.5999999046326
5noeJdMe,3t2hw4qdvykwn81ckpslwayk1hg9co,3uwn2hhpu2iz6bsw9n6si0teurtsn3,5noeJdMe,2020-0188,2021-10-14,09:41:00,11:24:06,NA,incomplete,false,NA,true,6,6,NA,NA,NA,left,absent,NA,NA,m_l_012.jpg,black,m_l_066.jpg,black,within,NA,NaN,NA,right,11436.399999976158,0,1,1333.2000000476837
5noeJdMe,3t2hw4qdvykwn81ckpslwayk1hg9co,3uwn2hhpu2iz6bsw9n6si0teurtsn3,5noeJdMe,2020-0188,2021-10-14,09:41:00,11:24:06,NA,incomplete,false,NA,true,6,7,NA,NA,NA,right,absent,NA,NA,n_s_033.jpg,red,m_s_011.jpg,black,between,NA,NaN,NA,left,1806.1000000238419,0,3,1456.6000000238419
5noeJdMe,3t2hw4qdvykwn81ckpslwayk1hg9co,3uwn2hhpu2iz6bsw9n6si0teurtsn3,5noeJdMe,2020-0188,2021-10-14,09:41:00,11:24:06,NA,incomplete,false,NA,true,6,8,NA,NA,NA,right,absent,NA,NA,n_s_061.jpg,green,n_s_098.jpg,gray,between,NA,NaN,NA,left,2302.1999999284744,0,3,1346.9000000953674
5noeJdMe,3t2hw4qdvykwn81ckpslwayk1hg9co,3uwn2hhpu2iz6bsw9n6si0teurtsn3,5noeJdMe,2020-0188,2021-10-14,09:41:00,11:24:06,NA,incomplete,false,NA,true,6,9,NA,NA,NA,left,absent,NA,NA,n_l_051.jpg,red,m_l_057.jpg,red,within,NA,NaN,NA,right,1503,0,3,1588.1999999284744
5noeJdMe,3t2hw4qdvykwn81ckpslwayk1hg9co,3uwn2hhpu2iz6bsw9n6si0teurtsn3,5noeJdMe,2020-0188,2021-10-14,09:41:00,11:24:06,NA,incomplete,false,NA,true,6,10,NA,NA,NA,right,absent,NA,NA,m_s_102.jpg,gray,n_l_054.jpg,yellow,between,NA,NaN,NA,right,1330.7999999523163,1,0,1488.6999999284744
5noeJdMe,3t2hw4qdvykwn81ckpslwayk1hg9co,3uwn2hhpu2iz6bsw9n6si0teurtsn3,5noeJdMe,2020-0188,2021-10-14,09:41:00,11:24:06,NA,incomplete,false,true,NA,7,0,NA,gray,m_l_107.jpg,NA,NA,unpleasant,pleasant,NA,NA,NA,NA,NA,right,3301.39999997616,true,NA,NA,NA,NA,NA
5noeJdMe,3t2hw4qdvykwn81ckpslwayk1hg9co,3uwn2hhpu2iz6bsw9n6si0teurtsn3,5noeJdMe,2020-0188,2021-10-14,09:41:00,11:24:06,NA,incomplete,false,true,NA,7,1,NA,gray,m_l_025.jpg,NA,NA,pleasant,unpleasant,NA,NA,NA,NA,NA,left,1531.89999997616,true,NA,NA,NA,NA,NA
5noeJdMe,3t2hw4qdvykwn81ckpslwayk1hg9co,3uwn2hhpu2iz6bsw9n6si0teurtsn3,5noeJdMe,2020-0188,2021-10-14,09:41:00,11:24:06,NA,incomplete,false,true,NA,7,2,NA,gray,n_s_006.jpg,NA,NA,unpleasant,pleasant,NA,NA,NA,NA,NA,left,1044.70000004768,true,NA,NA,NA,NA,NA
5noeJdMe,3t2hw4qdvykwn81ckpslwayk1hg9co,3uwn2hhpu2iz6bsw9n6si0teurtsn3,5noeJdMe,2020-0188,2021-10-14,09:41:00,11:24:06,NA,incomplete,false,true,NA,7,3,NA,gray,n_s_099.jpg,NA,NA,pleasant,unpleasant,NA,NA,NA,NA,NA,right,1004.29999995232,true,NA,NA,NA,NA,NA
5noeJdMe,3t2hw4qdvykwn81ckpslwayk1hg9co,3uwn2hhpu2iz6bsw9n6si0teurtsn3,5noeJdMe,2020-0188,2021-10-14,09:41:00,11:24:06,NA,incomplete,false,true,NA,7,4,NA,gray,n_s_114.jpg,NA,NA,unpleasant,pleasant,NA,NA,NA,NA,NA,left,1400,true,NA,NA,NA,NA,NA
5noeJdMe,3t2hw4qdvykwn81ckpslwayk1hg9co,3uwn2hhpu2iz6bsw9n6si0teurtsn3,5noeJdMe,2020-0188,2021-10-14,09:41:00,11:24:06,NA,incomplete,false,true,NA,7,5,NA,gray,n_s_060.jpg,NA,NA,pleasant,unpleasant,NA,NA,NA,NA,NA,right,2583,true,NA,NA,NA,NA,NA
5noeJdMe,3t2hw4qdvykwn81ckpslwayk1hg9co,3uwn2hhpu2iz6bsw9n6si0teurtsn3,5noeJdMe,2020-0188,2021-10-14,09:41:00,11:24:06,NA,incomplete,false,true,NA,7,6,NA,red,n_l_070.jpg,NA,NA,pleasant,unpleasant,NA,NA,NA,NA,NA,right,1065.79999995232,true,NA,NA,NA,NA,NA
5noeJdMe,3t2hw4qdvykwn81ckpslwayk1hg9co,3uwn2hhpu2iz6bsw9n6si0teurtsn3,5noeJdMe,2020-0188,2021-10-14,09:41:00,11:24:06,NA,incomplete,false,true,NA,7,7,NA,red,m_l_045.jpg,NA,NA,pleasant,unpleasant,NA,NA,NA,NA,NA,left,2586.5,true,NA,NA,NA,NA,NA
5noeJdMe,3t2hw4qdvykwn81ckpslwayk1hg9co,3uwn2hhpu2iz6bsw9n6si0teurtsn3,5noeJdMe,2020-0188,2021-10-14,09:41:00,11:24:06,NA,incomplete,false,true,NA,7,8,NA,red,n_l_075.jpg,NA,NA,pleasant,unpleasant,NA,NA,NA,NA,NA,left,2921.5,true,NA,NA,NA,NA,NA
5noeJdMe,3t2hw4qdvykwn81ckpslwayk1hg9co,3uwn2hhpu2iz6bsw9n6si0teurtsn3,5noeJdMe,2020-0188,2021-10-14,09:41:00,11:24:06,NA,incomplete,false,true,NA,7,9,NA,red,n_s_113.jpg,NA,NA,pleasant,unpleasant,NA,NA,NA,NA,NA,left,1560.89999997616,true,NA,NA,NA,NA,NA
5noeJdMe,3t2hw4qdvykwn81ckpslwayk1hg9co,3uwn2hhpu2iz6bsw9n6si0teurtsn3,5noeJdMe,2020-0188,2021-10-14,09:41:00,11:24:06,NA,incomplete,false,true,NA,7,10,NA,red,m_l_037.jpg,NA,NA,unpleasant,pleasant,NA,NA,NA,NA,NA,right,1216.39999997616,true,NA,NA,NA,NA,NA
5noeJdMe,3t2hw4qdvykwn81ckpslwayk1hg9co,3uwn2hhpu2iz6bsw9n6si0teurtsn3,5noeJdMe,2020-0188,2021-10-14,09:41:00,11:24:06,NA,incomplete,false,true,NA,7,11,NA,red,n_s_066.jpg,NA,NA,pleasant,unpleasant,NA,NA,NA,NA,NA,left,1218.89999997616,true,NA,NA,NA,NA,NA
5noeJdMe,3t2hw4qdvykwn81ckpslwayk1hg9co,3uwn2hhpu2iz6bsw9n6si0teurtsn3,5noeJdMe,2020-0188,2021-10-14,09:41:00,11:24:06,NA,incomplete,false,true,NA,7,12,NA,black,n_s_109.jpg,NA,NA,pleasant,unpleasant,NA,NA,NA,NA,NA,right,1945.10000002384,true,NA,NA,NA,NA,NA
5noeJdMe,3t2hw4qdvykwn81ckpslwayk1hg9co,3uwn2hhpu2iz6bsw9n6si0teurtsn3,5noeJdMe,2020-0188,2021-10-14,09:41:00,11:24:06,NA,incomplete,false,true,NA,7,13,NA,black,m_s_059.jpg,NA,NA,pleasant,unpleasant,NA,NA,NA,NA,NA,left,1314.30000007153,true,NA,NA,NA,NA,NA
5noeJdMe,3t2hw4qdvykwn81ckpslwayk1hg9co,3uwn2hhpu2iz6bsw9n6si0teurtsn3,5noeJdMe,2020-0188,2021-10-14,09:41:00,11:24:06,NA,incomplete,false,true,NA,7,14,NA,black,m_s_004.jpg,NA,NA,pleasant,unpleasant,NA,NA,NA,NA,NA,left,1020.60000002384,true,NA,NA,NA,NA,NA
5noeJdMe,3t2hw4qdvykwn81ckpslwayk1hg9co,3uwn2hhpu2iz6bsw9n6si0teurtsn3,5noeJdMe,2020-0188,2021-10-14,09:41:00,11:24:06,NA,incomplete,false,true,NA,7,15,NA,black,n_s_069.jpg,NA,NA,pleasant,unpleasant,NA,NA,NA,NA,NA,right,1242.69999992847,true,NA,NA,NA,NA,NA
5noeJdMe,3t2hw4qdvykwn81ckpslwayk1hg9co,3uwn2hhpu2iz6bsw9n6si0teurtsn3,5noeJdMe,2020-0188,2021-10-14,09:41:00,11:24:06,NA,incomplete,false,true,NA,7,16,NA,black,m_l_027.jpg,NA,NA,pleasant,unpleasant,NA,NA,NA,NA,NA,right,1183.20000004768,true,NA,NA,NA,NA,NA
5noeJdMe,3t2hw4qdvykwn81ckpslwayk1hg9co,3uwn2hhpu2iz6bsw9n6si0teurtsn3,5noeJdMe,2020-0188,2021-10-14,09:41:00,11:24:06,NA,incomplete,false,true,NA,7,17,NA,black,m_l_010.jpg,NA,NA,pleasant,unpleasant,NA,NA,NA,NA,NA,right,1550.40000009537,true,NA,NA,NA,NA,NA
5noeJdMe,3t2hw4qdvykwn81ckpslwayk1hg9co,3uwn2hhpu2iz6bsw9n6si0teurtsn3,5noeJdMe,2020-0188,2021-10-14,09:41:00,11:24:06,NA,incomplete,false,true,NA,7,18,NA,orange,n_s_052.jpg,NA,NA,pleasant,unpleasant,NA,NA,NA,NA,NA,left,1367.80000007153,true,NA,NA,NA,NA,NA
5noeJdMe,3t2hw4qdvykwn81ckpslwayk1hg9co,3uwn2hhpu2iz6bsw9n6si0teurtsn3,5noeJdMe,2020-0188,2021-10-14,09:41:00,11:24:06,NA,incomplete,false,true,NA,7,19,NA,orange,n_l_093.jpg,NA,NA,pleasant,unpleasant,NA,NA,NA,NA,NA,right,845.699999928474,true,NA,NA,NA,NA,NA
5noeJdMe,3t2hw4qdvykwn81ckpslwayk1hg9co,3uwn2hhpu2iz6bsw9n6si0teurtsn3,5noeJdMe,2020-0188,2021-10-14,09:41:00,11:24:06,NA,incomplete,false,true,NA,7,20,NA,orange,m_l_115.jpg,NA,NA,unpleasant,pleasant,NA,NA,NA,NA,NA,right,2114.10000002384,true,NA,NA,NA,NA,NA
5noeJdMe,3t2hw4qdvykwn81ckpslwayk1hg9co,3uwn2hhpu2iz6bsw9n6si0teurtsn3,5noeJdMe,2020-0188,2021-10-14,09:41:00,11:24:06,NA,incomplete,false,true,NA,7,21,NA,orange,m_l_093.jpg,NA,NA,unpleasant,pleasant,NA,NA,NA,NA,NA,right,2880.29999995232,true,NA,NA,NA,NA,NA
5noeJdMe,3t2hw4qdvykwn81ckpslwayk1hg9co,3uwn2hhpu2iz6bsw9n6si0teurtsn3,5noeJdMe,2020-0188,2021-10-14,09:41:00,11:24:06,NA,incomplete,false,true,NA,7,22,NA,orange,n_l_011.jpg,NA,NA,unpleasant,pleasant,NA,NA,NA,NA,NA,right,1362,true,NA,NA,NA,NA,NA
5noeJdMe,3t2hw4qdvykwn81ckpslwayk1hg9co,3uwn2hhpu2iz6bsw9n6si0teurtsn3,5noeJdMe,2020-0188,2021-10-14,09:41:00,11:24:06,NA,incomplete,false,true,NA,7,23,NA,orange,m_l_059.jpg,NA,NA,unpleasant,pleasant,NA,NA,NA,NA,NA,left,1528.10000002384,true,NA,NA,NA,NA,NA
5noeJdMe,3t2hw4qdvykwn81ckpslwayk1hg9co,3uwn2hhpu2iz6bsw9n6si0teurtsn3,5noeJdMe,2020-0188,2021-10-14,09:41:00,11:24:06,NA,incomplete,false,true,NA,7,24,NA,blue,n_l_028.jpg,NA,NA,unpleasant,pleasant,NA,NA,NA,NA,NA,right,1114.69999992847,true,NA,NA,NA,NA,NA
5noeJdMe,3t2hw4qdvykwn81ckpslwayk1hg9co,3uwn2hhpu2iz6bsw9n6si0teurtsn3,5noeJdMe,2020-0188,2021-10-14,09:41:00,11:24:06,NA,incomplete,false,true,NA,7,25,NA,blue,n_l_064.jpg,NA,NA,pleasant,unpleasant,NA,NA,NA,NA,NA,left,1306.5,true,NA,NA,NA,NA,NA
5noeJdMe,3t2hw4qdvykwn81ckpslwayk1hg9co,3uwn2hhpu2iz6bsw9n6si0teurtsn3,5noeJdMe,2020-0188,2021-10-14,09:41:00,11:24:06,NA,incomplete,false,true,NA,7,26,NA,blue,n_s_107.jpg,NA,NA,pleasant,unpleasant,NA,NA,NA,NA,NA,left,1701.20000004768,true,NA,NA,NA,NA,NA
5noeJdMe,3t2hw4qdvykwn81ckpslwayk1hg9co,3uwn2hhpu2iz6bsw9n6si0teurtsn3,5noeJdMe,2020-0188,2021-10-14,09:41:00,11:24:06,NA,incomplete,false,true,NA,7,27,NA,blue,m_s_042.jpg,NA,NA,pleasant,unpleasant,NA,NA,NA,NA,NA,left,1233.79999995232,true,NA,NA,NA,NA,NA
5noeJdMe,3t2hw4qdvykwn81ckpslwayk1hg9co,3uwn2hhpu2iz6bsw9n6si0teurtsn3,5noeJdMe,2020-0188,2021-10-14,09:41:00,11:24:06,NA,incomplete,false,true,NA,7,28,NA,blue,n_s_062.jpg,NA,NA,unpleasant,pleasant,NA,NA,NA,NA,NA,right,1105.5,true,NA,NA,NA,NA,NA
5noeJdMe,3t2hw4qdvykwn81ckpslwayk1hg9co,3uwn2hhpu2iz6bsw9n6si0teurtsn3,5noeJdMe,2020-0188,2021-10-14,09:41:00,11:24:06,NA,incomplete,false,true,NA,7,29,NA,blue,n_l_034.jpg,NA,NA,pleasant,unpleasant,NA,NA,NA,NA,NA,left,1390.19999992847,true,NA,NA,NA,NA,NA
5noeJdMe,3t2hw4qdvykwn81ckpslwayk1hg9co,3uwn2hhpu2iz6bsw9n6si0teurtsn3,5noeJdMe,2020-0188,2021-10-14,09:41:00,11:24:06,NA,incomplete,false,true,NA,7,30,NA,green,m_s_068.jpg,NA,NA,pleasant,unpleasant,NA,NA,NA,NA,NA,left,2160.80000007153,true,NA,NA,NA,NA,NA
5noeJdMe,3t2hw4qdvykwn81ckpslwayk1hg9co,3uwn2hhpu2iz6bsw9n6si0teurtsn3,5noeJdMe,2020-0188,2021-10-14,09:41:00,11:24:06,NA,incomplete,false,true,NA,7,31,NA,green,m_s_085.jpg,NA,NA,unpleasant,pleasant,NA,NA,NA,NA,NA,right,1378.20000004768,true,NA,NA,NA,NA,NA
5noeJdMe,3t2hw4qdvykwn81ckpslwayk1hg9co,3uwn2hhpu2iz6bsw9n6si0teurtsn3,5noeJdMe,2020-0188,2021-10-14,09:41:00,11:24:06,NA,incomplete,false,true,NA,7,32,NA,green,m_l_081.jpg,NA,NA,unpleasant,pleasant,NA,NA,NA,NA,NA,right,1949.5,true,NA,NA,NA,NA,NA
5noeJdMe,3t2hw4qdvykwn81ckpslwayk1hg9co,3uwn2hhpu2iz6bsw9n6si0teurtsn3,5noeJdMe,2020-0188,2021-10-14,09:41:00,11:24:06,NA,incomplete,false,true,NA,7,33,NA,green,m_l_113.jpg,NA,NA,unpleasant,pleasant,NA,NA,NA,NA,NA,right,1646.80000007153,true,NA,NA,NA,NA,NA
5noeJdMe,3t2hw4qdvykwn81ckpslwayk1hg9co,3uwn2hhpu2iz6bsw9n6si0teurtsn3,5noeJdMe,2020-0188,2021-10-14,09:41:00,11:24:06,NA,incomplete,false,true,NA,7,34,NA,green,m_s_027.jpg,NA,NA,pleasant,unpleasant,NA,NA,NA,NA,NA,left,1312.20000004768,true,NA,NA,NA,NA,NA
5noeJdMe,3t2hw4qdvykwn81ckpslwayk1hg9co,3uwn2hhpu2iz6bsw9n6si0teurtsn3,5noeJdMe,2020-0188,2021-10-14,09:41:00,11:24:06,NA,incomplete,false,true,NA,7,35,NA,green,m_l_047.jpg,NA,NA,pleasant,unpleasant,NA,NA,NA,NA,NA,left,2213.89999997616,true,NA,NA,NA,NA,NA
5noeJdMe,3t2hw4qdvykwn81ckpslwayk1hg9co,3uwn2hhpu2iz6bsw9n6si0teurtsn3,5noeJdMe,2020-0188,2021-10-14,09:41:00,11:24:06,NA,incomplete,false,NA,true,7,0,NA,NA,NA,right,present,NA,NA,m_s_004.jpg,black,m_l_037.jpg,red,between,NA,NaN,NA,right,1252.7000000476837,1,1,1300.6000000238419
5noeJdMe,3t2hw4qdvykwn81ckpslwayk1hg9co,3uwn2hhpu2iz6bsw9n6si0teurtsn3,5noeJdMe,2020-0188,2021-10-14,09:41:00,11:24:06,NA,incomplete,false,NA,true,7,1,NA,NA,NA,left,present,NA,NA,m_s_085.jpg,green,m_l_047.jpg,green,within,NA,NaN,NA,left,1764.6000000238419,1,1,1214.3999999761581
5noeJdMe,3t2hw4qdvykwn81ckpslwayk1hg9co,3uwn2hhpu2iz6bsw9n6si0teurtsn3,5noeJdMe,2020-0188,2021-10-14,09:41:00,11:24:06,NA,incomplete,false,NA,true,7,2,NA,NA,NA,right,present,NA,NA,n_s_107.jpg,blue,n_l_011.jpg,orange,between,NA,NaN,NA,right,835.5,1,3,888.8000000715256
5noeJdMe,3t2hw4qdvykwn81ckpslwayk1hg9co,3uwn2hhpu2iz6bsw9n6si0teurtsn3,5noeJdMe,2020-0188,2021-10-14,09:41:00,11:24:06,NA,incomplete,false,NA,true,7,3,NA,NA,NA,left,present,NA,NA,n_l_093.jpg,orange,m_l_059.jpg,orange,within,NA,NaN,NA,left,3298.899999976158,1,1,1572.3999999761581
5noeJdMe,3t2hw4qdvykwn81ckpslwayk1hg9co,3uwn2hhpu2iz6bsw9n6si0teurtsn3,5noeJdMe,2020-0188,2021-10-14,09:41:00,11:24:06,NA,incomplete,false,NA,true,7,4,NA,NA,NA,left,present,NA,NA,m_s_059.jpg,black,m_l_010.jpg,black,within,NA,NaN,NA,right,1249.5,0,2,1154.6000000238419
5noeJdMe,3t2hw4qdvykwn81ckpslwayk1hg9co,3uwn2hhpu2iz6bsw9n6si0teurtsn3,5noeJdMe,2020-0188,2021-10-14,09:41:00,11:24:06,NA,incomplete,false,NA,true,7,5,NA,NA,NA,right,present,NA,NA,m_l_115.jpg,orange,m_l_027.jpg,black,between,NA,NaN,NA,right,1296.7000000476837,1,2,2743.100000023842
5noeJdMe,3t2hw4qdvykwn81ckpslwayk1hg9co,3uwn2hhpu2iz6bsw9n6si0teurtsn3,5noeJdMe,2020-0188,2021-10-14,09:41:00,11:24:06,NA,incomplete,false,NA,true,7,6,NA,NA,NA,right,present,NA,NA,n_s_060.jpg,gray,m_l_025.jpg,gray,within,NA,NaN,NA,right,1394.3999999761581,1,0,1177.4000000953674
5noeJdMe,3t2hw4qdvykwn81ckpslwayk1hg9co,3uwn2hhpu2iz6bsw9n6si0teurtsn3,5noeJdMe,2020-0188,2021-10-14,09:41:00,11:24:06,NA,incomplete,false,NA,true,7,7,NA,NA,NA,right,present,NA,NA,n_l_034.jpg,blue,n_l_064.jpg,blue,within,NA,NaN,NA,right,1281.5,1,3,1117
5noeJdMe,3t2hw4qdvykwn81ckpslwayk1hg9co,3uwn2hhpu2iz6bsw9n6si0teurtsn3,5noeJdMe,2020-0188,2021-10-14,09:41:00,11:24:06,NA,incomplete,false,NA,true,7,8,NA,NA,NA,left,present,NA,NA,m_l_045.jpg,red,n_s_066.jpg,red,within,NA,NaN,NA,left,1737.5,1,2,1363.8999999761581
5noeJdMe,3t2hw4qdvykwn81ckpslwayk1hg9co,3uwn2hhpu2iz6bsw9n6si0teurtsn3,5noeJdMe,2020-0188,2021-10-14,09:41:00,11:24:06,NA,incomplete,false,NA,true,7,9,NA,NA,NA,right,present,NA,NA,m_l_081.jpg,green,n_s_062.jpg,blue,between,NA,NaN,NA,right,1014.8000000715256,1,2,1068.5
5noeJdMe,3t2hw4qdvykwn81ckpslwayk1hg9co,3uwn2hhpu2iz6bsw9n6si0teurtsn3,5noeJdMe,2020-0188,2021-10-14,09:41:00,11:24:06,NA,incomplete,false,NA,true,7,10,NA,NA,NA,right,present,NA,NA,n_l_075.jpg,red,n_s_114.jpg,gray,between,NA,NaN,NA,right,2038.7000000476837,1,3,2020.8999999761581
5noeJdMe,3t2hw4qdvykwn81ckpslwayk1hg9co,3uwn2hhpu2iz6bsw9n6si0teurtsn3,5noeJdMe,2020-0188,2021-10-14,09:41:00,11:24:06,NA,incomplete,false,true,NA,8,0,NA,green,n_l_009.jpg,NA,NA,pleasant,unpleasant,NA,NA,NA,NA,NA,left,2174,true,NA,NA,NA,NA,NA
5noeJdMe,3t2hw4qdvykwn81ckpslwayk1hg9co,3uwn2hhpu2iz6bsw9n6si0teurtsn3,5noeJdMe,2020-0188,2021-10-14,09:41:00,11:24:06,NA,incomplete,false,true,NA,8,1,NA,green,m_s_087.jpg,NA,NA,unpleasant,pleasant,NA,NA,NA,NA,NA,right,1037.59999990463,true,NA,NA,NA,NA,NA
5noeJdMe,3t2hw4qdvykwn81ckpslwayk1hg9co,3uwn2hhpu2iz6bsw9n6si0teurtsn3,5noeJdMe,2020-0188,2021-10-14,09:41:00,11:24:06,NA,incomplete,false,true,NA,8,2,NA,green,n_s_044.jpg,NA,NA,unpleasant,pleasant,NA,NA,NA,NA,NA,right,900.399999976158,true,NA,NA,NA,NA,NA
5noeJdMe,3t2hw4qdvykwn81ckpslwayk1hg9co,3uwn2hhpu2iz6bsw9n6si0teurtsn3,5noeJdMe,2020-0188,2021-10-14,09:41:00,11:24:06,NA,incomplete,false,true,NA,8,3,NA,green,m_l_002.jpg,NA,NA,pleasant,unpleasant,NA,NA,NA,NA,NA,left,1302.5,true,NA,NA,NA,NA,NA
5noeJdMe,3t2hw4qdvykwn81ckpslwayk1hg9co,3uwn2hhpu2iz6bsw9n6si0teurtsn3,5noeJdMe,2020-0188,2021-10-14,09:41:00,11:24:06,NA,incomplete,false,true,NA,8,4,NA,green,m_l_033.jpg,NA,NA,unpleasant,pleasant,NA,NA,NA,NA,NA,right,1045.40000009537,true,NA,NA,NA,NA,NA
5noeJdMe,3t2hw4qdvykwn81ckpslwayk1hg9co,3uwn2hhpu2iz6bsw9n6si0teurtsn3,5noeJdMe,2020-0188,2021-10-14,09:41:00,11:24:06,NA,incomplete,false,true,NA,8,5,NA,green,n_l_021.jpg,NA,NA,pleasant,unpleasant,NA,NA,NA,NA,NA,left,1356,true,NA,NA,NA,NA,NA
5noeJdMe,3t2hw4qdvykwn81ckpslwayk1hg9co,3uwn2hhpu2iz6bsw9n6si0teurtsn3,5noeJdMe,2020-0188,2021-10-14,09:41:00,11:24:06,NA,incomplete,false,true,NA,8,6,NA,gray,n_l_020.jpg,NA,NA,pleasant,unpleasant,NA,NA,NA,NA,NA,right,1267.39999997616,true,NA,NA,NA,NA,NA
5noeJdMe,3t2hw4qdvykwn81ckpslwayk1hg9co,3uwn2hhpu2iz6bsw9n6si0teurtsn3,5noeJdMe,2020-0188,2021-10-14,09:41:00,11:24:06,NA,incomplete,false,true,NA,8,7,NA,gray,m_s_101.jpg,NA,NA,unpleasant,pleasant,NA,NA,NA,NA,NA,right,1115.20000004768,true,NA,NA,NA,NA,NA
5noeJdMe,3t2hw4qdvykwn81ckpslwayk1hg9co,3uwn2hhpu2iz6bsw9n6si0teurtsn3,5noeJdMe,2020-0188,2021-10-14,09:41:00,11:24:06,NA,incomplete,false,true,NA,8,8,NA,gray,m_l_095.jpg,NA,NA,unpleasant,pleasant,NA,NA,NA,NA,NA,right,1688.39999997616,true,NA,NA,NA,NA,NA
