workerId,hitId,assignmentId,subject,studyid,exp_date,exp_start,exp_end,time_start,time_end,practice,encoding,memory,block,trial,event_order,event,stim,answer,context_type,label_left,label_right,left_image,left_event,right_image,right_event,condition,response,response_time,response_acc,order_response,order_response_time,order_acc,distance_response,distance_response_time
6Kutlti4,3e6l1vr4yzzg81jodkfak6sl8ztf6z,3zgvpd4g6xuu20ju1bmcnsw9602ztr,6Kutlti4,2020-0188,2021-10-17,11:17:42,12:28:47,NA,incomplete,true,true,NA,0,0,NA,gray,m_s_075.jpg,NA,NA,pleasant,unpleasant,NA,NA,NA,NA,NA,left,3106,true,NA,NA,NA,NA,NA
6Kutlti4,3e6l1vr4yzzg81jodkfak6sl8ztf6z,3zgvpd4g6xuu20ju1bmcnsw9602ztr,6Kutlti4,2020-0188,2021-10-17,11:17:42,12:28:47,NA,incomplete,true,true,NA,0,1,NA,gray,m_l_023.jpg,NA,NA,pleasant,unpleasant,NA,NA,NA,NA,NA,left,1662,true,NA,NA,NA,NA,NA
6Kutlti4,3e6l1vr4yzzg81jodkfak6sl8ztf6z,3zgvpd4g6xuu20ju1bmcnsw9602ztr,6Kutlti4,2020-0188,2021-10-17,11:17:42,12:28:47,NA,incomplete,true,true,NA,0,2,NA,gray,n_s_046.jpg,NA,NA,unpleasant,pleasant,NA,NA,NA,NA,NA,left,2668,true,NA,NA,NA,NA,NA
6Kutlti4,3e6l1vr4yzzg81jodkfak6sl8ztf6z,3zgvpd4g6xuu20ju1bmcnsw9602ztr,6Kutlti4,2020-0188,2021-10-17,11:17:42,12:28:47,NA,incomplete,true,true,NA,0,3,NA,gray,n_l_065.jpg,NA,NA,pleasant,unpleasant,NA,NA,NA,NA,NA,right,2225,true,NA,NA,NA,NA,NA
6Kutlti4,3e6l1vr4yzzg81jodkfak6sl8ztf6z,3zgvpd4g6xuu20ju1bmcnsw9602ztr,6Kutlti4,2020-0188,2021-10-17,11:17:42,12:28:47,NA,incomplete,true,true,NA,0,4,NA,gray,m_l_049.jpg,NA,NA,unpleasant,pleasant,NA,NA,NA,NA,NA,left,2374,true,NA,NA,NA,NA,NA
6Kutlti4,3e6l1vr4yzzg81jodkfak6sl8ztf6z,3zgvpd4g6xuu20ju1bmcnsw9602ztr,6Kutlti4,2020-0188,2021-10-17,11:17:42,12:28:47,NA,incomplete,true,true,NA,0,5,NA,gray,n_s_067.jpg,NA,NA,unpleasant,pleasant,NA,NA,NA,NA,NA,right,1901,true,NA,NA,NA,NA,NA
6Kutlti4,3e6l1vr4yzzg81jodkfak6sl8ztf6z,3zgvpd4g6xuu20ju1bmcnsw9602ztr,6Kutlti4,2020-0188,2021-10-17,11:17:42,12:28:47,NA,incomplete,true,true,NA,0,6,NA,white,m_s_066.jpg,NA,NA,unpleasant,pleasant,NA,NA,NA,NA,NA,right,1730,true,NA,NA,NA,NA,NA
6Kutlti4,3e6l1vr4yzzg81jodkfak6sl8ztf6z,3zgvpd4g6xuu20ju1bmcnsw9602ztr,6Kutlti4,2020-0188,2021-10-17,11:17:42,12:28:47,NA,incomplete,true,true,NA,0,7,NA,white,m_l_026.jpg,NA,NA,unpleasant,pleasant,NA,NA,NA,NA,NA,right,1368,true,NA,NA,NA,NA,NA
6Kutlti4,3e6l1vr4yzzg81jodkfak6sl8ztf6z,3zgvpd4g6xuu20ju1bmcnsw9602ztr,6Kutlti4,2020-0188,2021-10-17,11:17:42,12:28:47,NA,incomplete,true,true,NA,0,8,NA,white,n_l_083.jpg,NA,NA,unpleasant,pleasant,NA,NA,NA,NA,NA,left,1991,true,NA,NA,NA,NA,NA
6Kutlti4,3e6l1vr4yzzg81jodkfak6sl8ztf6z,3zgvpd4g6xuu20ju1bmcnsw9602ztr,6Kutlti4,2020-0188,2021-10-17,11:17:42,12:28:47,NA,incomplete,true,true,NA,0,9,NA,white,m_s_050.jpg,NA,NA,unpleasant,pleasant,NA,NA,NA,NA,NA,right,1867,true,NA,NA,NA,NA,NA
6Kutlti4,3e6l1vr4yzzg81jodkfak6sl8ztf6z,3zgvpd4g6xuu20ju1bmcnsw9602ztr,6Kutlti4,2020-0188,2021-10-17,11:17:42,12:28:47,NA,incomplete,true,true,NA,0,10,NA,white,m_s_035.jpg,NA,NA,unpleasant,pleasant,NA,NA,NA,NA,NA,right,1636,true,NA,NA,NA,NA,NA
6Kutlti4,3e6l1vr4yzzg81jodkfak6sl8ztf6z,3zgvpd4g6xuu20ju1bmcnsw9602ztr,6Kutlti4,2020-0188,2021-10-17,11:17:42,12:28:47,NA,incomplete,true,true,NA,0,11,NA,white,n_l_013.jpg,NA,NA,pleasant,unpleasant,NA,NA,NA,NA,NA,right,1811,true,NA,NA,NA,NA,NA
6Kutlti4,3e6l1vr4yzzg81jodkfak6sl8ztf6z,3zgvpd4g6xuu20ju1bmcnsw9602ztr,6Kutlti4,2020-0188,2021-10-17,11:17:42,12:28:47,NA,incomplete,true,true,NA,0,12,NA,green,n_s_058.jpg,NA,NA,unpleasant,pleasant,NA,NA,NA,NA,NA,right,1789,true,NA,NA,NA,NA,NA
6Kutlti4,3e6l1vr4yzzg81jodkfak6sl8ztf6z,3zgvpd4g6xuu20ju1bmcnsw9602ztr,6Kutlti4,2020-0188,2021-10-17,11:17:42,12:28:47,NA,incomplete,true,true,NA,0,13,NA,green,m_s_096.jpg,NA,NA,pleasant,unpleasant,NA,NA,NA,NA,NA,left,2549,true,NA,NA,NA,NA,NA
6Kutlti4,3e6l1vr4yzzg81jodkfak6sl8ztf6z,3zgvpd4g6xuu20ju1bmcnsw9602ztr,6Kutlti4,2020-0188,2021-10-17,11:17:42,12:28:47,NA,incomplete,true,true,NA,0,14,NA,green,m_s_090.jpg,NA,NA,pleasant,unpleasant,NA,NA,NA,NA,NA,left,1754,true,NA,NA,NA,NA,NA
6Kutlti4,3e6l1vr4yzzg81jodkfak6sl8ztf6z,3zgvpd4g6xuu20ju1bmcnsw9602ztr,6Kutlti4,2020-0188,2021-10-17,11:17:42,12:28:47,NA,incomplete,true,true,NA,0,15,NA,green,m_l_022.jpg,NA,NA,unpleasant,pleasant,NA,NA,NA,NA,NA,right,1595,true,NA,NA,NA,NA,NA
6Kutlti4,3e6l1vr4yzzg81jodkfak6sl8ztf6z,3zgvpd4g6xuu20ju1bmcnsw9602ztr,6Kutlti4,2020-0188,2021-10-17,11:17:42,12:28:47,NA,incomplete,true,true,NA,0,16,NA,green,n_s_033.jpg,NA,NA,pleasant,unpleasant,NA,NA,NA,NA,NA,left,1901,true,NA,NA,NA,NA,NA
6Kutlti4,3e6l1vr4yzzg81jodkfak6sl8ztf6z,3zgvpd4g6xuu20ju1bmcnsw9602ztr,6Kutlti4,2020-0188,2021-10-17,11:17:42,12:28:47,NA,incomplete,true,true,NA,0,17,NA,green,n_s_005.jpg,NA,NA,pleasant,unpleasant,NA,NA,NA,NA,NA,left,1727,true,NA,NA,NA,NA,NA
6Kutlti4,3e6l1vr4yzzg81jodkfak6sl8ztf6z,3zgvpd4g6xuu20ju1bmcnsw9602ztr,6Kutlti4,2020-0188,2021-10-17,11:17:42,12:28:47,NA,incomplete,true,true,NA,0,18,NA,yellow,m_s_043.jpg,NA,NA,pleasant,unpleasant,NA,NA,NA,NA,NA,right,3447,true,NA,NA,NA,NA,NA
6Kutlti4,3e6l1vr4yzzg81jodkfak6sl8ztf6z,3zgvpd4g6xuu20ju1bmcnsw9602ztr,6Kutlti4,2020-0188,2021-10-17,11:17:42,12:28:47,NA,incomplete,true,true,NA,0,19,NA,yellow,n_l_062.jpg,NA,NA,pleasant,unpleasant,NA,NA,NA,NA,NA,left,2354,true,NA,NA,NA,NA,NA
6Kutlti4,3e6l1vr4yzzg81jodkfak6sl8ztf6z,3zgvpd4g6xuu20ju1bmcnsw9602ztr,6Kutlti4,2020-0188,2021-10-17,11:17:42,12:28:47,NA,incomplete,true,true,NA,0,20,NA,yellow,n_l_024.jpg,NA,NA,unpleasant,pleasant,NA,NA,NA,NA,NA,left,2926,true,NA,NA,NA,NA,NA
6Kutlti4,3e6l1vr4yzzg81jodkfak6sl8ztf6z,3zgvpd4g6xuu20ju1bmcnsw9602ztr,6Kutlti4,2020-0188,2021-10-17,11:17:42,12:28:47,NA,incomplete,true,true,NA,0,21,NA,yellow,m_s_030.jpg,NA,NA,unpleasant,pleasant,NA,NA,NA,NA,NA,right,1904,true,NA,NA,NA,NA,NA
6Kutlti4,3e6l1vr4yzzg81jodkfak6sl8ztf6z,3zgvpd4g6xuu20ju1bmcnsw9602ztr,6Kutlti4,2020-0188,2021-10-17,11:17:42,12:28:47,NA,incomplete,true,true,NA,0,22,NA,yellow,n_s_064.jpg,NA,NA,unpleasant,pleasant,NA,NA,NA,NA,NA,left,1884,true,NA,NA,NA,NA,NA
6Kutlti4,3e6l1vr4yzzg81jodkfak6sl8ztf6z,3zgvpd4g6xuu20ju1bmcnsw9602ztr,6Kutlti4,2020-0188,2021-10-17,11:17:42,12:28:47,NA,incomplete,true,true,NA,0,23,NA,yellow,n_l_060.jpg,NA,NA,unpleasant,pleasant,NA,NA,NA,NA,NA,right,1475,true,NA,NA,NA,NA,NA
6Kutlti4,3e6l1vr4yzzg81jodkfak6sl8ztf6z,3zgvpd4g6xuu20ju1bmcnsw9602ztr,6Kutlti4,2020-0188,2021-10-17,11:17:42,12:28:47,NA,incomplete,true,true,NA,0,24,NA,red,m_l_086.jpg,NA,NA,unpleasant,pleasant,NA,NA,NA,NA,NA,right,2180,true,NA,NA,NA,NA,NA
6Kutlti4,3e6l1vr4yzzg81jodkfak6sl8ztf6z,3zgvpd4g6xuu20ju1bmcnsw9602ztr,6Kutlti4,2020-0188,2021-10-17,11:17:42,12:28:47,NA,incomplete,true,true,NA,0,25,NA,red,n_s_010.jpg,NA,NA,pleasant,unpleasant,NA,NA,NA,NA,NA,left,1898,true,NA,NA,NA,NA,NA
6Kutlti4,3e6l1vr4yzzg81jodkfak6sl8ztf6z,3zgvpd4g6xuu20ju1bmcnsw9602ztr,6Kutlti4,2020-0188,2021-10-17,11:17:42,12:28:47,NA,incomplete,true,true,NA,0,26,NA,red,n_s_096.jpg,NA,NA,pleasant,unpleasant,NA,NA,NA,NA,NA,left,1833,true,NA,NA,NA,NA,NA
6Kutlti4,3e6l1vr4yzzg81jodkfak6sl8ztf6z,3zgvpd4g6xuu20ju1bmcnsw9602ztr,6Kutlti4,2020-0188,2021-10-17,11:17:42,12:28:47,NA,incomplete,true,true,NA,0,27,NA,red,n_l_102.jpg,NA,NA,unpleasant,pleasant,NA,NA,NA,NA,NA,right,1925,true,NA,NA,NA,NA,NA
6Kutlti4,3e6l1vr4yzzg81jodkfak6sl8ztf6z,3zgvpd4g6xuu20ju1bmcnsw9602ztr,6Kutlti4,2020-0188,2021-10-17,11:17:42,12:28:47,NA,incomplete,true,true,NA,0,28,NA,red,m_s_072.jpg,NA,NA,unpleasant,pleasant,NA,NA,NA,NA,NA,right,2127,true,NA,NA,NA,NA,NA
6Kutlti4,3e6l1vr4yzzg81jodkfak6sl8ztf6z,3zgvpd4g6xuu20ju1bmcnsw9602ztr,6Kutlti4,2020-0188,2021-10-17,11:17:42,12:28:47,NA,incomplete,true,true,NA,0,29,NA,red,n_l_107.jpg,NA,NA,unpleasant,pleasant,NA,NA,NA,NA,NA,left,2153,true,NA,NA,NA,NA,NA
6Kutlti4,3e6l1vr4yzzg81jodkfak6sl8ztf6z,3zgvpd4g6xuu20ju1bmcnsw9602ztr,6Kutlti4,2020-0188,2021-10-17,11:17:42,12:28:47,NA,incomplete,true,true,NA,0,30,NA,brown,m_s_110.jpg,NA,NA,pleasant,unpleasant,NA,NA,NA,NA,NA,left,2616,true,NA,NA,NA,NA,NA
6Kutlti4,3e6l1vr4yzzg81jodkfak6sl8ztf6z,3zgvpd4g6xuu20ju1bmcnsw9602ztr,6Kutlti4,2020-0188,2021-10-17,11:17:42,12:28:47,NA,incomplete,true,true,NA,0,31,NA,brown,m_l_083.jpg,NA,NA,unpleasant,pleasant,NA,NA,NA,NA,NA,right,2159,true,NA,NA,NA,NA,NA
6Kutlti4,3e6l1vr4yzzg81jodkfak6sl8ztf6z,3zgvpd4g6xuu20ju1bmcnsw9602ztr,6Kutlti4,2020-0188,2021-10-17,11:17:42,12:28:47,NA,incomplete,true,true,NA,0,32,NA,brown,m_s_004.jpg,NA,NA,unpleasant,pleasant,NA,NA,NA,NA,NA,right,2144,true,NA,NA,NA,NA,NA
6Kutlti4,3e6l1vr4yzzg81jodkfak6sl8ztf6z,3zgvpd4g6xuu20ju1bmcnsw9602ztr,6Kutlti4,2020-0188,2021-10-17,11:17:42,12:28:47,NA,incomplete,true,true,NA,0,33,NA,brown,m_l_078.jpg,NA,NA,unpleasant,pleasant,NA,NA,NA,NA,NA,right,2295,true,NA,NA,NA,NA,NA
6Kutlti4,3e6l1vr4yzzg81jodkfak6sl8ztf6z,3zgvpd4g6xuu20ju1bmcnsw9602ztr,6Kutlti4,2020-0188,2021-10-17,11:17:42,12:28:47,NA,incomplete,true,true,NA,0,34,NA,brown,n_l_101.jpg,NA,NA,unpleasant,pleasant,NA,NA,NA,NA,NA,left,1864,true,NA,NA,NA,NA,NA
6Kutlti4,3e6l1vr4yzzg81jodkfak6sl8ztf6z,3zgvpd4g6xuu20ju1bmcnsw9602ztr,6Kutlti4,2020-0188,2021-10-17,11:17:42,12:28:47,NA,incomplete,true,true,NA,0,35,NA,brown,m_l_111.jpg,NA,NA,unpleasant,pleasant,NA,NA,NA,NA,NA,right,2140,true,NA,NA,NA,NA,NA
6Kutlti4,3e6l1vr4yzzg81jodkfak6sl8ztf6z,3zgvpd4g6xuu20ju1bmcnsw9602ztr,6Kutlti4,2020-0188,2021-10-17,11:17:42,12:28:47,NA,incomplete,true,NA,true,0,0,NA,NA,NA,right,absent,NA,NA,n_s_067.jpg,gray,m_l_023.jpg,gray,within,NA,NaN,NA,right,6413,1,1,5298
6Kutlti4,3e6l1vr4yzzg81jodkfak6sl8ztf6z,3zgvpd4g6xuu20ju1bmcnsw9602ztr,6Kutlti4,2020-0188,2021-10-17,11:17:42,12:28:47,NA,incomplete,true,NA,true,0,1,NA,NA,NA,left,present,NA,NA,n_s_064.jpg,yellow,n_s_096.jpg,red,between,NA,NaN,NA,right,3015,0,1,1996
6Kutlti4,3e6l1vr4yzzg81jodkfak6sl8ztf6z,3zgvpd4g6xuu20ju1bmcnsw9602ztr,6Kutlti4,2020-0188,2021-10-17,11:17:42,12:28:47,NA,incomplete,true,NA,true,0,2,NA,NA,NA,left,present,NA,NA,m_s_035.jpg,white,m_s_090.jpg,green,between,NA,NaN,NA,right,3068,0,0,2559
6Kutlti4,3e6l1vr4yzzg81jodkfak6sl8ztf6z,3zgvpd4g6xuu20ju1bmcnsw9602ztr,6Kutlti4,2020-0188,2021-10-17,11:17:42,12:28:47,NA,incomplete,true,NA,true,0,3,NA,NA,NA,right,absent,NA,NA,n_s_005.jpg,green,m_s_096.jpg,green,within,NA,NaN,NA,right,2434,1,1,2377
6Kutlti4,3e6l1vr4yzzg81jodkfak6sl8ztf6z,3zgvpd4g6xuu20ju1bmcnsw9602ztr,6Kutlti4,2020-0188,2021-10-17,11:17:42,12:28:47,NA,incomplete,true,NA,true,0,4,NA,NA,NA,right,present,NA,NA,n_l_083.jpg,white,m_l_049.jpg,gray,between,NA,NaN,NA,right,2050,1,2,3703
6Kutlti4,3e6l1vr4yzzg81jodkfak6sl8ztf6z,3zgvpd4g6xuu20ju1bmcnsw9602ztr,6Kutlti4,2020-0188,2021-10-17,11:17:42,12:28:47,NA,incomplete,true,NA,true,0,5,NA,NA,NA,right,absent,NA,NA,n_l_013.jpg,white,m_l_026.jpg,white,within,NA,NaN,NA,right,2124,1,2,2477
6Kutlti4,3e6l1vr4yzzg81jodkfak6sl8ztf6z,3zgvpd4g6xuu20ju1bmcnsw9602ztr,6Kutlti4,2020-0188,2021-10-17,11:17:42,12:28:47,NA,incomplete,true,NA,true,0,6,NA,NA,NA,right,absent,NA,NA,n_l_107.jpg,red,n_s_010.jpg,red,within,NA,NaN,NA,right,1975,1,1,1554
6Kutlti4,3e6l1vr4yzzg81jodkfak6sl8ztf6z,3zgvpd4g6xuu20ju1bmcnsw9602ztr,6Kutlti4,2020-0188,2021-10-17,11:17:42,12:28:47,NA,incomplete,true,NA,true,0,7,NA,NA,NA,right,present,NA,NA,m_s_004.jpg,brown,m_s_072.jpg,red,between,NA,NaN,NA,right,1903,1,1,1479
6Kutlti4,3e6l1vr4yzzg81jodkfak6sl8ztf6z,3zgvpd4g6xuu20ju1bmcnsw9602ztr,6Kutlti4,2020-0188,2021-10-17,11:17:42,12:28:47,NA,incomplete,true,NA,true,0,8,NA,NA,NA,right,present,NA,NA,m_l_111.jpg,brown,m_l_083.jpg,brown,within,NA,NaN,NA,right,1474,1,1,1840
6Kutlti4,3e6l1vr4yzzg81jodkfak6sl8ztf6z,3zgvpd4g6xuu20ju1bmcnsw9602ztr,6Kutlti4,2020-0188,2021-10-17,11:17:42,12:28:47,NA,incomplete,true,NA,true,0,9,NA,NA,NA,left,absent,NA,NA,n_s_033.jpg,green,n_l_024.jpg,yellow,between,NA,NaN,NA,right,1687,0,1,2159
6Kutlti4,3e6l1vr4yzzg81jodkfak6sl8ztf6z,3zgvpd4g6xuu20ju1bmcnsw9602ztr,6Kutlti4,2020-0188,2021-10-17,11:17:42,12:28:47,NA,incomplete,true,NA,true,0,10,NA,NA,NA,left,present,NA,NA,n_l_062.jpg,yellow,n_l_060.jpg,yellow,within,NA,NaN,NA,right,1915,0,1,1639
6Kutlti4,3e6l1vr4yzzg81jodkfak6sl8ztf6z,3zgvpd4g6xuu20ju1bmcnsw9602ztr,6Kutlti4,2020-0188,2021-10-17,11:17:42,12:28:47,NA,incomplete,false,true,NA,1,0,NA,brown,n_l_072.jpg,NA,NA,unpleasant,pleasant,NA,NA,NA,NA,NA,left,2748,true,NA,NA,NA,NA,NA
6Kutlti4,3e6l1vr4yzzg81jodkfak6sl8ztf6z,3zgvpd4g6xuu20ju1bmcnsw9602ztr,6Kutlti4,2020-0188,2021-10-17,11:17:42,12:28:47,NA,incomplete,false,true,NA,1,1,NA,brown,n_l_075.jpg,NA,NA,unpleasant,pleasant,NA,NA,NA,NA,NA,left,2144,true,NA,NA,NA,NA,NA
6Kutlti4,3e6l1vr4yzzg81jodkfak6sl8ztf6z,3zgvpd4g6xuu20ju1bmcnsw9602ztr,6Kutlti4,2020-0188,2021-10-17,11:17:42,12:28:47,NA,incomplete,false,true,NA,1,2,NA,brown,m_s_029.jpg,NA,NA,pleasant,unpleasant,NA,NA,NA,NA,NA,left,2374,true,NA,NA,NA,NA,NA
6Kutlti4,3e6l1vr4yzzg81jodkfak6sl8ztf6z,3zgvpd4g6xuu20ju1bmcnsw9602ztr,6Kutlti4,2020-0188,2021-10-17,11:17:42,12:28:47,NA,incomplete,false,true,NA,1,3,NA,brown,n_s_107.jpg,NA,NA,pleasant,unpleasant,NA,NA,NA,NA,NA,left,2295,true,NA,NA,NA,NA,NA
6Kutlti4,3e6l1vr4yzzg81jodkfak6sl8ztf6z,3zgvpd4g6xuu20ju1bmcnsw9602ztr,6Kutlti4,2020-0188,2021-10-17,11:17:42,12:28:47,NA,incomplete,false,true,NA,1,4,NA,brown,m_s_046.jpg,NA,NA,pleasant,unpleasant,NA,NA,NA,NA,NA,left,1657,true,NA,NA,NA,NA,NA
6Kutlti4,3e6l1vr4yzzg81jodkfak6sl8ztf6z,3zgvpd4g6xuu20ju1bmcnsw9602ztr,6Kutlti4,2020-0188,2021-10-17,11:17:42,12:28:47,NA,incomplete,false,true,NA,1,5,NA,brown,m_s_092.jpg,NA,NA,pleasant,unpleasant,NA,NA,NA,NA,NA,left,1514,true,NA,NA,NA,NA,NA
6Kutlti4,3e6l1vr4yzzg81jodkfak6sl8ztf6z,3zgvpd4g6xuu20ju1bmcnsw9602ztr,6Kutlti4,2020-0188,2021-10-17,11:17:42,12:28:47,NA,incomplete,false,true,NA,1,6,NA,red,n_l_028.jpg,NA,NA,unpleasant,pleasant,NA,NA,NA,NA,NA,left,3102,true,NA,NA,NA,NA,NA
6Kutlti4,3e6l1vr4yzzg81jodkfak6sl8ztf6z,3zgvpd4g6xuu20ju1bmcnsw9602ztr,6Kutlti4,2020-0188,2021-10-17,11:17:42,12:28:47,NA,incomplete,false,true,NA,1,7,NA,red,n_s_022.jpg,NA,NA,unpleasant,pleasant,NA,NA,NA,NA,NA,right,2126,true,NA,NA,NA,NA,NA
6Kutlti4,3e6l1vr4yzzg81jodkfak6sl8ztf6z,3zgvpd4g6xuu20ju1bmcnsw9602ztr,6Kutlti4,2020-0188,2021-10-17,11:17:42,12:28:47,NA,incomplete,false,true,NA,1,8,NA,red,n_s_039.jpg,NA,NA,pleasant,unpleasant,NA,NA,NA,NA,NA,left,1708,true,NA,NA,NA,NA,NA
6Kutlti4,3e6l1vr4yzzg81jodkfak6sl8ztf6z,3zgvpd4g6xuu20ju1bmcnsw9602ztr,6Kutlti4,2020-0188,2021-10-17,11:17:42,12:28:47,NA,incomplete,false,true,NA,1,9,NA,red,m_s_014.jpg,NA,NA,unpleasant,pleasant,NA,NA,NA,NA,NA,right,2174,true,NA,NA,NA,NA,NA
6Kutlti4,3e6l1vr4yzzg81jodkfak6sl8ztf6z,3zgvpd4g6xuu20ju1bmcnsw9602ztr,6Kutlti4,2020-0188,2021-10-17,11:17:42,12:28:47,NA,incomplete,false,true,NA,1,10,NA,red,n_l_022.jpg,NA,NA,unpleasant,pleasant,NA,NA,NA,NA,NA,right,3480,true,NA,NA,NA,NA,NA
6Kutlti4,3e6l1vr4yzzg81jodkfak6sl8ztf6z,3zgvpd4g6xuu20ju1bmcnsw9602ztr,6Kutlti4,2020-0188,2021-10-17,11:17:42,12:28:47,NA,incomplete,false,true,NA,1,11,NA,red,m_s_079.jpg,NA,NA,unpleasant,pleasant,NA,NA,NA,NA,NA,right,2773,true,NA,NA,NA,NA,NA
6Kutlti4,3e6l1vr4yzzg81jodkfak6sl8ztf6z,3zgvpd4g6xuu20ju1bmcnsw9602ztr,6Kutlti4,2020-0188,2021-10-17,11:17:42,12:28:47,NA,incomplete,false,true,NA,1,12,NA,white,n_s_026.jpg,NA,NA,pleasant,unpleasant,NA,NA,NA,NA,NA,right,1894,true,NA,NA,NA,NA,NA
6Kutlti4,3e6l1vr4yzzg81jodkfak6sl8ztf6z,3zgvpd4g6xuu20ju1bmcnsw9602ztr,6Kutlti4,2020-0188,2021-10-17,11:17:42,12:28:47,NA,incomplete,false,true,NA,1,13,NA,white,n_l_087.jpg,NA,NA,unpleasant,pleasant,NA,NA,NA,NA,NA,left,1598,true,NA,NA,NA,NA,NA
6Kutlti4,3e6l1vr4yzzg81jodkfak6sl8ztf6z,3zgvpd4g6xuu20ju1bmcnsw9602ztr,6Kutlti4,2020-0188,2021-10-17,11:17:42,12:28:47,NA,incomplete,false,true,NA,1,14,NA,white,m_l_003.jpg,NA,NA,unpleasant,pleasant,NA,NA,NA,NA,NA,right,1574,true,NA,NA,NA,NA,NA
6Kutlti4,3e6l1vr4yzzg81jodkfak6sl8ztf6z,3zgvpd4g6xuu20ju1bmcnsw9602ztr,6Kutlti4,2020-0188,2021-10-17,11:17:42,12:28:47,NA,incomplete,false,true,NA,1,15,NA,white,m_s_069.jpg,NA,NA,pleasant,unpleasant,NA,NA,NA,NA,NA,left,1670,true,NA,NA,NA,NA,NA
6Kutlti4,3e6l1vr4yzzg81jodkfak6sl8ztf6z,3zgvpd4g6xuu20ju1bmcnsw9602ztr,6Kutlti4,2020-0188,2021-10-17,11:17:42,12:28:47,NA,incomplete,false,true,NA,1,16,NA,white,n_l_008.jpg,NA,NA,unpleasant,pleasant,NA,NA,NA,NA,NA,left,2149,true,NA,NA,NA,NA,NA
6Kutlti4,3e6l1vr4yzzg81jodkfak6sl8ztf6z,3zgvpd4g6xuu20ju1bmcnsw9602ztr,6Kutlti4,2020-0188,2021-10-17,11:17:42,12:28:47,NA,incomplete,false,true,NA,1,17,NA,white,m_s_088.jpg,NA,NA,unpleasant,pleasant,NA,NA,NA,NA,NA,left,2308,true,NA,NA,NA,NA,NA
6Kutlti4,3e6l1vr4yzzg81jodkfak6sl8ztf6z,3zgvpd4g6xuu20ju1bmcnsw9602ztr,6Kutlti4,2020-0188,2021-10-17,11:17:42,12:28:47,NA,incomplete,false,true,NA,1,18,NA,gray,n_l_103.jpg,NA,NA,unpleasant,pleasant,NA,NA,NA,NA,NA,left,3134,true,NA,NA,NA,NA,NA
6Kutlti4,3e6l1vr4yzzg81jodkfak6sl8ztf6z,3zgvpd4g6xuu20ju1bmcnsw9602ztr,6Kutlti4,2020-0188,2021-10-17,11:17:42,12:28:47,NA,incomplete,false,true,NA,1,19,NA,gray,n_l_027.jpg,NA,NA,unpleasant,pleasant,NA,NA,NA,NA,NA,right,1557,true,NA,NA,NA,NA,NA
6Kutlti4,3e6l1vr4yzzg81jodkfak6sl8ztf6z,3zgvpd4g6xuu20ju1bmcnsw9602ztr,6Kutlti4,2020-0188,2021-10-17,11:17:42,12:28:47,NA,incomplete,false,true,NA,1,20,NA,gray,m_l_040.jpg,NA,NA,unpleasant,pleasant,NA,NA,NA,NA,NA,right,2465,true,NA,NA,NA,NA,NA
6Kutlti4,3e6l1vr4yzzg81jodkfak6sl8ztf6z,3zgvpd4g6xuu20ju1bmcnsw9602ztr,6Kutlti4,2020-0188,2021-10-17,11:17:42,12:28:47,NA,incomplete,false,true,NA,1,21,NA,gray,n_s_035.jpg,NA,NA,unpleasant,pleasant,NA,NA,NA,NA,NA,right,1797,true,NA,NA,NA,NA,NA
6Kutlti4,3e6l1vr4yzzg81jodkfak6sl8ztf6z,3zgvpd4g6xuu20ju1bmcnsw9602ztr,6Kutlti4,2020-0188,2021-10-17,11:17:42,12:28:47,NA,incomplete,false,true,NA,1,22,NA,gray,n_l_019.jpg,NA,NA,pleasant,unpleasant,NA,NA,NA,NA,NA,none,0,false,NA,NA,NA,NA,NA
6Kutlti4,3e6l1vr4yzzg81jodkfak6sl8ztf6z,3zgvpd4g6xuu20ju1bmcnsw9602ztr,6Kutlti4,2020-0188,2021-10-17,11:17:42,12:28:47,NA,incomplete,false,true,NA,1,23,NA,gray,m_l_045.jpg,NA,NA,pleasant,unpleasant,NA,NA,NA,NA,NA,left,2016,true,NA,NA,NA,NA,NA
6Kutlti4,3e6l1vr4yzzg81jodkfak6sl8ztf6z,3zgvpd4g6xuu20ju1bmcnsw9602ztr,6Kutlti4,2020-0188,2021-10-17,11:17:42,12:28:47,NA,incomplete,false,true,NA,1,24,NA,purple,m_s_039.jpg,NA,NA,pleasant,unpleasant,NA,NA,NA,NA,NA,left,1828,true,NA,NA,NA,NA,NA
6Kutlti4,3e6l1vr4yzzg81jodkfak6sl8ztf6z,3zgvpd4g6xuu20ju1bmcnsw9602ztr,6Kutlti4,2020-0188,2021-10-17,11:17:42,12:28:47,NA,incomplete,false,true,NA,1,25,NA,purple,n_l_017.jpg,NA,NA,unpleasant,pleasant,NA,NA,NA,NA,NA,left,1753,true,NA,NA,NA,NA,NA
6Kutlti4,3e6l1vr4yzzg81jodkfak6sl8ztf6z,3zgvpd4g6xuu20ju1bmcnsw9602ztr,6Kutlti4,2020-0188,2021-10-17,11:17:42,12:28:47,NA,incomplete,false,true,NA,1,26,NA,purple,n_s_052.jpg,NA,NA,pleasant,unpleasant,NA,NA,NA,NA,NA,left,1798,true,NA,NA,NA,NA,NA
6Kutlti4,3e6l1vr4yzzg81jodkfak6sl8ztf6z,3zgvpd4g6xuu20ju1bmcnsw9602ztr,6Kutlti4,2020-0188,2021-10-17,11:17:42,12:28:47,NA,incomplete,false,true,NA,1,27,NA,purple,n_l_001.jpg,NA,NA,pleasant,unpleasant,NA,NA,NA,NA,NA,left,1488,true,NA,NA,NA,NA,NA
6Kutlti4,3e6l1vr4yzzg81jodkfak6sl8ztf6z,3zgvpd4g6xuu20ju1bmcnsw9602ztr,6Kutlti4,2020-0188,2021-10-17,11:17:42,12:28:47,NA,incomplete,false,true,NA,1,28,NA,purple,n_s_040.jpg,NA,NA,unpleasant,pleasant,NA,NA,NA,NA,NA,left,1652,true,NA,NA,NA,NA,NA
6Kutlti4,3e6l1vr4yzzg81jodkfak6sl8ztf6z,3zgvpd4g6xuu20ju1bmcnsw9602ztr,6Kutlti4,2020-0188,2021-10-17,11:17:42,12:28:47,NA,incomplete,false,true,NA,1,29,NA,purple,n_s_092.jpg,NA,NA,pleasant,unpleasant,NA,NA,NA,NA,NA,left,2061,true,NA,NA,NA,NA,NA
6Kutlti4,3e6l1vr4yzzg81jodkfak6sl8ztf6z,3zgvpd4g6xuu20ju1bmcnsw9602ztr,6Kutlti4,2020-0188,2021-10-17,11:17:42,12:28:47,NA,incomplete,false,true,NA,1,30,NA,black,m_s_094.jpg,NA,NA,pleasant,unpleasant,NA,NA,NA,NA,NA,left,1962,true,NA,NA,NA,NA,NA
6Kutlti4,3e6l1vr4yzzg81jodkfak6sl8ztf6z,3zgvpd4g6xuu20ju1bmcnsw9602ztr,6Kutlti4,2020-0188,2021-10-17,11:17:42,12:28:47,NA,incomplete,false,true,NA,1,31,NA,black,n_l_069.jpg,NA,NA,pleasant,unpleasant,NA,NA,NA,NA,NA,left,3091,true,NA,NA,NA,NA,NA
6Kutlti4,3e6l1vr4yzzg81jodkfak6sl8ztf6z,3zgvpd4g6xuu20ju1bmcnsw9602ztr,6Kutlti4,2020-0188,2021-10-17,11:17:42,12:28:47,NA,incomplete,false,true,NA,1,32,NA,black,n_l_012.jpg,NA,NA,unpleasant,pleasant,NA,NA,NA,NA,NA,none,0,false,NA,NA,NA,NA,NA
6Kutlti4,3e6l1vr4yzzg81jodkfak6sl8ztf6z,3zgvpd4g6xuu20ju1bmcnsw9602ztr,6Kutlti4,2020-0188,2021-10-17,11:17:42,12:28:47,NA,incomplete,false,true,NA,1,33,NA,black,m_l_104.jpg,NA,NA,pleasant,unpleasant,NA,NA,NA,NA,NA,none,0,false,NA,NA,NA,NA,NA
6Kutlti4,3e6l1vr4yzzg81jodkfak6sl8ztf6z,3zgvpd4g6xuu20ju1bmcnsw9602ztr,6Kutlti4,2020-0188,2021-10-17,11:17:42,12:28:47,NA,incomplete,false,true,NA,1,34,NA,black,m_s_020.jpg,NA,NA,unpleasant,pleasant,NA,NA,NA,NA,NA,none,0,false,NA,NA,NA,NA,NA
6Kutlti4,3e6l1vr4yzzg81jodkfak6sl8ztf6z,3zgvpd4g6xuu20ju1bmcnsw9602ztr,6Kutlti4,2020-0188,2021-10-17,11:17:42,12:28:47,NA,incomplete,false,true,NA,1,35,NA,black,m_s_058.jpg,NA,NA,pleasant,unpleasant,NA,NA,NA,NA,NA,none,0,false,NA,NA,NA,NA,NA
6Kutlti4,3e6l1vr4yzzg81jodkfak6sl8ztf6z,3zgvpd4g6xuu20ju1bmcnsw9602ztr,6Kutlti4,2020-0188,2021-10-17,11:17:42,12:28:47,NA,incomplete,false,NA,true,1,0,NA,NA,NA,left,absent,NA,NA,n_s_022.jpg,red,m_s_079.jpg,red,within,NA,NaN,NA,right,3236,0,1,2499
6Kutlti4,3e6l1vr4yzzg81jodkfak6sl8ztf6z,3zgvpd4g6xuu20ju1bmcnsw9602ztr,6Kutlti4,2020-0188,2021-10-17,11:17:42,12:28:47,NA,incomplete,false,NA,true,1,1,NA,NA,NA,right,absent,NA,NA,n_s_092.jpg,purple,n_l_017.jpg,purple,within,NA,NaN,NA,right,2471,1,1,3045
6Kutlti4,3e6l1vr4yzzg81jodkfak6sl8ztf6z,3zgvpd4g6xuu20ju1bmcnsw9602ztr,6Kutlti4,2020-0188,2021-10-17,11:17:42,12:28:47,NA,incomplete,false,NA,true,1,2,NA,NA,NA,left,absent,NA,NA,n_s_040.jpg,purple,n_l_012.jpg,black,between,NA,NaN,NA,left,2943,1,1,1736
6Kutlti4,3e6l1vr4yzzg81jodkfak6sl8ztf6z,3zgvpd4g6xuu20ju1bmcnsw9602ztr,6Kutlti4,2020-0188,2021-10-17,11:17:42,12:28:47,NA,incomplete,false,NA,true,1,3,NA,NA,NA,right,absent,NA,NA,m_s_058.jpg,black,n_l_069.jpg,black,within,NA,NaN,NA,right,2447,1,1,1664
6Kutlti4,3e6l1vr4yzzg81jodkfak6sl8ztf6z,3zgvpd4g6xuu20ju1bmcnsw9602ztr,6Kutlti4,2020-0188,2021-10-17,11:17:42,12:28:47,NA,incomplete,false,NA,true,1,4,NA,NA,NA,left,absent,NA,NA,n_l_087.jpg,white,m_s_088.jpg,white,within,NA,NaN,NA,left,2672,1,1,1167
6Kutlti4,3e6l1vr4yzzg81jodkfak6sl8ztf6z,3zgvpd4g6xuu20ju1bmcnsw9602ztr,6Kutlti4,2020-0188,2021-10-17,11:17:42,12:28:47,NA,incomplete,false,NA,true,1,5,NA,NA,NA,right,absent,NA,NA,m_s_092.jpg,brown,n_l_075.jpg,brown,within,NA,NaN,NA,right,2566,1,1,1421
6Kutlti4,3e6l1vr4yzzg81jodkfak6sl8ztf6z,3zgvpd4g6xuu20ju1bmcnsw9602ztr,6Kutlti4,2020-0188,2021-10-17,11:17:42,12:28:47,NA,incomplete,false,NA,true,1,6,NA,NA,NA,left,absent,NA,NA,n_l_027.jpg,gray,m_l_045.jpg,gray,within,NA,NaN,NA,right,2138,0,1,2180
6Kutlti4,3e6l1vr4yzzg81jodkfak6sl8ztf6z,3zgvpd4g6xuu20ju1bmcnsw9602ztr,6Kutlti4,2020-0188,2021-10-17,11:17:42,12:28:47,NA,incomplete,false,NA,true,1,7,NA,NA,NA,left,absent,NA,NA,n_l_008.jpg,white,m_l_040.jpg,gray,between,NA,NaN,NA,right,2969,0,1,1447
6Kutlti4,3e6l1vr4yzzg81jodkfak6sl8ztf6z,3zgvpd4g6xuu20ju1bmcnsw9602ztr,6Kutlti4,2020-0188,2021-10-17,11:17:42,12:28:47,NA,incomplete,false,NA,true,1,8,NA,NA,NA,left,absent,NA,NA,n_l_022.jpg,red,m_l_003.jpg,white,between,NA,NaN,NA,right,4976,0,1,1627
6Kutlti4,3e6l1vr4yzzg81jodkfak6sl8ztf6z,3zgvpd4g6xuu20ju1bmcnsw9602ztr,6Kutlti4,2020-0188,2021-10-17,11:17:42,12:28:47,NA,incomplete,false,NA,true,1,9,NA,NA,NA,right,absent,NA,NA,n_s_052.jpg,purple,n_l_019.jpg,gray,between,NA,NaN,NA,right,4035,1,1,2565
6Kutlti4,3e6l1vr4yzzg81jodkfak6sl8ztf6z,3zgvpd4g6xuu20ju1bmcnsw9602ztr,6Kutlti4,2020-0188,2021-10-17,11:17:42,12:28:47,NA,incomplete,false,NA,true,1,10,NA,NA,NA,left,absent,NA,NA,m_s_046.jpg,brown,n_s_039.jpg,red,between,NA,NaN,NA,left,3895,1,1,1801
6Kutlti4,3e6l1vr4yzzg81jodkfak6sl8ztf6z,3zgvpd4g6xuu20ju1bmcnsw9602ztr,6Kutlti4,2020-0188,2021-10-17,11:17:42,12:28:47,NA,incomplete,false,true,NA,2,0,NA,gray,n_s_048.jpg,NA,NA,unpleasant,pleasant,NA,NA,NA,NA,NA,left,2469,true,NA,NA,NA,NA,NA
6Kutlti4,3e6l1vr4yzzg81jodkfak6sl8ztf6z,3zgvpd4g6xuu20ju1bmcnsw9602ztr,6Kutlti4,2020-0188,2021-10-17,11:17:42,12:28:47,NA,incomplete,false,true,NA,2,1,NA,gray,n_s_032.jpg,NA,NA,pleasant,unpleasant,NA,NA,NA,NA,NA,left,2235,true,NA,NA,NA,NA,NA
6Kutlti4,3e6l1vr4yzzg81jodkfak6sl8ztf6z,3zgvpd4g6xuu20ju1bmcnsw9602ztr,6Kutlti4,2020-0188,2021-10-17,11:17:42,12:28:47,NA,incomplete,false,true,NA,2,2,NA,gray,m_s_067.jpg,NA,NA,unpleasant,pleasant,NA,NA,NA,NA,NA,right,2600,true,NA,NA,NA,NA,NA
6Kutlti4,3e6l1vr4yzzg81jodkfak6sl8ztf6z,3zgvpd4g6xuu20ju1bmcnsw9602ztr,6Kutlti4,2020-0188,2021-10-17,11:17:42,12:28:47,NA,incomplete,false,true,NA,2,3,NA,gray,m_l_031.jpg,NA,NA,pleasant,unpleasant,NA,NA,NA,NA,NA,left,2869,true,NA,NA,NA,NA,NA
6Kutlti4,3e6l1vr4yzzg81jodkfak6sl8ztf6z,3zgvpd4g6xuu20ju1bmcnsw9602ztr,6Kutlti4,2020-0188,2021-10-17,11:17:42,12:28:47,NA,incomplete,false,true,NA,2,4,NA,gray,m_l_090.jpg,NA,NA,unpleasant,pleasant,NA,NA,NA,NA,NA,right,1709,true,NA,NA,NA,NA,NA
6Kutlti4,3e6l1vr4yzzg81jodkfak6sl8ztf6z,3zgvpd4g6xuu20ju1bmcnsw9602ztr,6Kutlti4,2020-0188,2021-10-17,11:17:42,12:28:47,NA,incomplete,false,true,NA,2,5,NA,gray,m_l_074.jpg,NA,NA,unpleasant,pleasant,NA,NA,NA,NA,NA,right,1989,true,NA,NA,NA,NA,NA
6Kutlti4,3e6l1vr4yzzg81jodkfak6sl8ztf6z,3zgvpd4g6xuu20ju1bmcnsw9602ztr,6Kutlti4,2020-0188,2021-10-17,11:17:42,12:28:47,NA,incomplete,false,true,NA,2,6,NA,blue,m_s_073.jpg,NA,NA,pleasant,unpleasant,NA,NA,NA,NA,NA,left,1675,true,NA,NA,NA,NA,NA
6Kutlti4,3e6l1vr4yzzg81jodkfak6sl8ztf6z,3zgvpd4g6xuu20ju1bmcnsw9602ztr,6Kutlti4,2020-0188,2021-10-17,11:17:42,12:28:47,NA,incomplete,false,true,NA,2,7,NA,blue,n_s_018.jpg,NA,NA,pleasant,unpleasant,NA,NA,NA,NA,NA,right,2668,true,NA,NA,NA,NA,NA
6Kutlti4,3e6l1vr4yzzg81jodkfak6sl8ztf6z,3zgvpd4g6xuu20ju1bmcnsw9602ztr,6Kutlti4,2020-0188,2021-10-17,11:17:42,12:28:47,NA,incomplete,false,true,NA,2,8,NA,blue,n_l_095.jpg,NA,NA,unpleasant,pleasant,NA,NA,NA,NA,NA,left,2924,true,NA,NA,NA,NA,NA
6Kutlti4,3e6l1vr4yzzg81jodkfak6sl8ztf6z,3zgvpd4g6xuu20ju1bmcnsw9602ztr,6Kutlti4,2020-0188,2021-10-17,11:17:42,12:28:47,NA,incomplete,false,true,NA,2,9,NA,blue,m_l_062.jpg,NA,NA,pleasant,unpleasant,NA,NA,NA,NA,NA,left,2292,true,NA,NA,NA,NA,NA
6Kutlti4,3e6l1vr4yzzg81jodkfak6sl8ztf6z,3zgvpd4g6xuu20ju1bmcnsw9602ztr,6Kutlti4,2020-0188,2021-10-17,11:17:42,12:28:47,NA,incomplete,false,true,NA,2,10,NA,blue,n_l_021.jpg,NA,NA,pleasant,unpleasant,NA,NA,NA,NA,NA,left,2101,true,NA,NA,NA,NA,NA
6Kutlti4,3e6l1vr4yzzg81jodkfak6sl8ztf6z,3zgvpd4g6xuu20ju1bmcnsw9602ztr,6Kutlti4,2020-0188,2021-10-17,11:17:42,12:28:47,NA,incomplete,false,true,NA,2,11,NA,blue,n_l_113.jpg,NA,NA,unpleasant,pleasant,NA,NA,NA,NA,NA,left,2039,true,NA,NA,NA,NA,NA
6Kutlti4,3e6l1vr4yzzg81jodkfak6sl8ztf6z,3zgvpd4g6xuu20ju1bmcnsw9602ztr,6Kutlti4,2020-0188,2021-10-17,11:17:42,12:28:47,NA,incomplete,false,true,NA,2,12,NA,white,n_s_012.jpg,NA,NA,unpleasant,pleasant,NA,NA,NA,NA,NA,right,2304,true,NA,NA,NA,NA,NA
6Kutlti4,3e6l1vr4yzzg81jodkfak6sl8ztf6z,3zgvpd4g6xuu20ju1bmcnsw9602ztr,6Kutlti4,2020-0188,2021-10-17,11:17:42,12:28:47,NA,incomplete,false,true,NA,2,13,NA,white,m_s_091.jpg,NA,NA,pleasant,unpleasant,NA,NA,NA,NA,NA,left,2117,true,NA,NA,NA,NA,NA
6Kutlti4,3e6l1vr4yzzg81jodkfak6sl8ztf6z,3zgvpd4g6xuu20ju1bmcnsw9602ztr,6Kutlti4,2020-0188,2021-10-17,11:17:42,12:28:47,NA,incomplete,false,true,NA,2,14,NA,white,m_s_049.jpg,NA,NA,pleasant,unpleasant,NA,NA,NA,NA,NA,left,2003,true,NA,NA,NA,NA,NA
6Kutlti4,3e6l1vr4yzzg81jodkfak6sl8ztf6z,3zgvpd4g6xuu20ju1bmcnsw9602ztr,6Kutlti4,2020-0188,2021-10-17,11:17:42,12:28:47,NA,incomplete,false,true,NA,2,15,NA,white,n_s_077.jpg,NA,NA,unpleasant,pleasant,NA,NA,NA,NA,NA,right,1566,true,NA,NA,NA,NA,NA
6Kutlti4,3e6l1vr4yzzg81jodkfak6sl8ztf6z,3zgvpd4g6xuu20ju1bmcnsw9602ztr,6Kutlti4,2020-0188,2021-10-17,11:17:42,12:28:47,NA,incomplete,false,true,NA,2,16,NA,white,m_s_099.jpg,NA,NA,pleasant,unpleasant,NA,NA,NA,NA,NA,left,2028,true,NA,NA,NA,NA,NA
6Kutlti4,3e6l1vr4yzzg81jodkfak6sl8ztf6z,3zgvpd4g6xuu20ju1bmcnsw9602ztr,6Kutlti4,2020-0188,2021-10-17,11:17:42,12:28:47,NA,incomplete,false,true,NA,2,17,NA,white,n_l_056.jpg,NA,NA,unpleasant,pleasant,NA,NA,NA,NA,NA,right,2189,true,NA,NA,NA,NA,NA
6Kutlti4,3e6l1vr4yzzg81jodkfak6sl8ztf6z,3zgvpd4g6xuu20ju1bmcnsw9602ztr,6Kutlti4,2020-0188,2021-10-17,11:17:42,12:28:47,NA,incomplete,false,true,NA,2,18,NA,brown,n_s_062.jpg,NA,NA,pleasant,unpleasant,NA,NA,NA,NA,NA,right,1625,true,NA,NA,NA,NA,NA
6Kutlti4,3e6l1vr4yzzg81jodkfak6sl8ztf6z,3zgvpd4g6xuu20ju1bmcnsw9602ztr,6Kutlti4,2020-0188,2021-10-17,11:17:42,12:28:47,NA,incomplete,false,true,NA,2,19,NA,brown,m_l_066.jpg,NA,NA,unpleasant,pleasant,NA,NA,NA,NA,NA,right,1950,true,NA,NA,NA,NA,NA
6Kutlti4,3e6l1vr4yzzg81jodkfak6sl8ztf6z,3zgvpd4g6xuu20ju1bmcnsw9602ztr,6Kutlti4,2020-0188,2021-10-17,11:17:42,12:28:47,NA,incomplete,false,true,NA,2,20,NA,brown,m_s_084.jpg,NA,NA,unpleasant,pleasant,NA,NA,NA,NA,NA,right,2136,true,NA,NA,NA,NA,NA
6Kutlti4,3e6l1vr4yzzg81jodkfak6sl8ztf6z,3zgvpd4g6xuu20ju1bmcnsw9602ztr,6Kutlti4,2020-0188,2021-10-17,11:17:42,12:28:47,NA,incomplete,false,true,NA,2,21,NA,brown,m_s_034.jpg,NA,NA,pleasant,unpleasant,NA,NA,NA,NA,NA,left,2102,true,NA,NA,NA,NA,NA
6Kutlti4,3e6l1vr4yzzg81jodkfak6sl8ztf6z,3zgvpd4g6xuu20ju1bmcnsw9602ztr,6Kutlti4,2020-0188,2021-10-17,11:17:42,12:28:47,NA,incomplete,false,true,NA,2,22,NA,brown,m_s_068.jpg,NA,NA,pleasant,unpleasant,NA,NA,NA,NA,NA,left,2283,true,NA,NA,NA,NA,NA
6Kutlti4,3e6l1vr4yzzg81jodkfak6sl8ztf6z,3zgvpd4g6xuu20ju1bmcnsw9602ztr,6Kutlti4,2020-0188,2021-10-17,11:17:42,12:28:47,NA,incomplete,false,true,NA,2,23,NA,brown,m_l_069.jpg,NA,NA,unpleasant,pleasant,NA,NA,NA,NA,NA,left,2637,true,NA,NA,NA,NA,NA
6Kutlti4,3e6l1vr4yzzg81jodkfak6sl8ztf6z,3zgvpd4g6xuu20ju1bmcnsw9602ztr,6Kutlti4,2020-0188,2021-10-17,11:17:42,12:28:47,NA,incomplete,false,true,NA,2,24,NA,green,m_l_061.jpg,NA,NA,unpleasant,pleasant,NA,NA,NA,NA,NA,right,1556,true,NA,NA,NA,NA,NA
6Kutlti4,3e6l1vr4yzzg81jodkfak6sl8ztf6z,3zgvpd4g6xuu20ju1bmcnsw9602ztr,6Kutlti4,2020-0188,2021-10-17,11:17:42,12:28:47,NA,incomplete,false,true,NA,2,25,NA,green,m_l_108.jpg,NA,NA,unpleasant,pleasant,NA,NA,NA,NA,NA,right,1590,true,NA,NA,NA,NA,NA
6Kutlti4,3e6l1vr4yzzg81jodkfak6sl8ztf6z,3zgvpd4g6xuu20ju1bmcnsw9602ztr,6Kutlti4,2020-0188,2021-10-17,11:17:42,12:28:47,NA,incomplete,false,true,NA,2,26,NA,green,m_l_039.jpg,NA,NA,unpleasant,pleasant,NA,NA,NA,NA,NA,right,1376,true,NA,NA,NA,NA,NA
6Kutlti4,3e6l1vr4yzzg81jodkfak6sl8ztf6z,3zgvpd4g6xuu20ju1bmcnsw9602ztr,6Kutlti4,2020-0188,2021-10-17,11:17:42,12:28:47,NA,incomplete,false,true,NA,2,27,NA,green,m_s_078.jpg,NA,NA,pleasant,unpleasant,NA,NA,NA,NA,NA,right,1352,true,NA,NA,NA,NA,NA
6Kutlti4,3e6l1vr4yzzg81jodkfak6sl8ztf6z,3zgvpd4g6xuu20ju1bmcnsw9602ztr,6Kutlti4,2020-0188,2021-10-17,11:17:42,12:28:47,NA,incomplete,false,true,NA,2,28,NA,green,n_l_041.jpg,NA,NA,pleasant,unpleasant,NA,NA,NA,NA,NA,right,2548,true,NA,NA,NA,NA,NA
6Kutlti4,3e6l1vr4yzzg81jodkfak6sl8ztf6z,3zgvpd4g6xuu20ju1bmcnsw9602ztr,6Kutlti4,2020-0188,2021-10-17,11:17:42,12:28:47,NA,incomplete,false,true,NA,2,29,NA,green,m_l_106.jpg,NA,NA,pleasant,unpleasant,NA,NA,NA,NA,NA,left,1677,true,NA,NA,NA,NA,NA
6Kutlti4,3e6l1vr4yzzg81jodkfak6sl8ztf6z,3zgvpd4g6xuu20ju1bmcnsw9602ztr,6Kutlti4,2020-0188,2021-10-17,11:17:42,12:28:47,NA,incomplete,false,true,NA,2,30,NA,black,m_l_073.jpg,NA,NA,pleasant,unpleasant,NA,NA,NA,NA,NA,right,2059,true,NA,NA,NA,NA,NA
6Kutlti4,3e6l1vr4yzzg81jodkfak6sl8ztf6z,3zgvpd4g6xuu20ju1bmcnsw9602ztr,6Kutlti4,2020-0188,2021-10-17,11:17:42,12:28:47,NA,incomplete,false,true,NA,2,31,NA,black,n_l_039.jpg,NA,NA,pleasant,unpleasant,NA,NA,NA,NA,NA,left,3384,true,NA,NA,NA,NA,NA
6Kutlti4,3e6l1vr4yzzg81jodkfak6sl8ztf6z,3zgvpd4g6xuu20ju1bmcnsw9602ztr,6Kutlti4,2020-0188,2021-10-17,11:17:42,12:28:47,NA,incomplete,false,true,NA,2,32,NA,black,n_s_113.jpg,NA,NA,unpleasant,pleasant,NA,NA,NA,NA,NA,right,3324,true,NA,NA,NA,NA,NA
6Kutlti4,3e6l1vr4yzzg81jodkfak6sl8ztf6z,3zgvpd4g6xuu20ju1bmcnsw9602ztr,6Kutlti4,2020-0188,2021-10-17,11:17:42,12:28:47,NA,incomplete,false,true,NA,2,33,NA,black,n_s_031.jpg,NA,NA,unpleasant,pleasant,NA,NA,NA,NA,NA,right,1510,true,NA,NA,NA,NA,NA
6Kutlti4,3e6l1vr4yzzg81jodkfak6sl8ztf6z,3zgvpd4g6xuu20ju1bmcnsw9602ztr,6Kutlti4,2020-0188,2021-10-17,11:17:42,12:28:47,NA,incomplete,false,true,NA,2,34,NA,black,m_l_056.jpg,NA,NA,pleasant,unpleasant,NA,NA,NA,NA,NA,right,1273,true,NA,NA,NA,NA,NA
6Kutlti4,3e6l1vr4yzzg81jodkfak6sl8ztf6z,3zgvpd4g6xuu20ju1bmcnsw9602ztr,6Kutlti4,2020-0188,2021-10-17,11:17:42,12:28:47,NA,incomplete,false,true,NA,2,35,NA,black,m_l_098.jpg,NA,NA,unpleasant,pleasant,NA,NA,NA,NA,NA,left,2075,true,NA,NA,NA,NA,NA
6Kutlti4,3e6l1vr4yzzg81jodkfak6sl8ztf6z,3zgvpd4g6xuu20ju1bmcnsw9602ztr,6Kutlti4,2020-0188,2021-10-17,11:17:42,12:28:47,NA,incomplete,false,NA,true,2,0,NA,NA,NA,right,absent,NA,NA,n_l_056.jpg,white,m_s_091.jpg,white,within,NA,NaN,NA,right,2194,1,1,1445
6Kutlti4,3e6l1vr4yzzg81jodkfak6sl8ztf6z,3zgvpd4g6xuu20ju1bmcnsw9602ztr,6Kutlti4,2020-0188,2021-10-17,11:17:42,12:28:47,NA,incomplete,false,NA,true,2,1,NA,NA,NA,right,absent,NA,NA,m_s_084.jpg,brown,m_s_099.jpg,white,between,NA,NaN,NA,right,1792,1,1,1430
6Kutlti4,3e6l1vr4yzzg81jodkfak6sl8ztf6z,3zgvpd4g6xuu20ju1bmcnsw9602ztr,6Kutlti4,2020-0188,2021-10-17,11:17:42,12:28:47,NA,incomplete,false,NA,true,2,2,NA,NA,NA,left,absent,NA,NA,n_s_018.jpg,blue,n_l_113.jpg,blue,within,NA,NaN,NA,left,2254,1,1,1689
6Kutlti4,3e6l1vr4yzzg81jodkfak6sl8ztf6z,3zgvpd4g6xuu20ju1bmcnsw9602ztr,6Kutlti4,2020-0188,2021-10-17,11:17:42,12:28:47,NA,incomplete,false,NA,true,2,3,NA,NA,NA,left,absent,NA,NA,n_s_032.jpg,gray,m_l_074.jpg,gray,within,NA,NaN,NA,left,2375,1,1,1592
6Kutlti4,3e6l1vr4yzzg81jodkfak6sl8ztf6z,3zgvpd4g6xuu20ju1bmcnsw9602ztr,6Kutlti4,2020-0188,2021-10-17,11:17:42,12:28:47,NA,incomplete,false,NA,true,2,4,NA,NA,NA,left,absent,NA,NA,m_l_108.jpg,green,m_l_106.jpg,green,within,NA,NaN,NA,right,2139,0,1,1191
6Kutlti4,3e6l1vr4yzzg81jodkfak6sl8ztf6z,3zgvpd4g6xuu20ju1bmcnsw9602ztr,6Kutlti4,2020-0188,2021-10-17,11:17:42,12:28:47,NA,incomplete,false,NA,true,2,5,NA,NA,NA,right,absent,NA,NA,m_l_098.jpg,black,n_l_039.jpg,black,within,NA,NaN,NA,right,1384,1,1,1063
6Kutlti4,3e6l1vr4yzzg81jodkfak6sl8ztf6z,3zgvpd4g6xuu20ju1bmcnsw9602ztr,6Kutlti4,2020-0188,2021-10-17,11:17:42,12:28:47,NA,incomplete,false,NA,true,2,6,NA,NA,NA,left,absent,NA,NA,m_l_066.jpg,brown,m_l_069.jpg,brown,within,NA,NaN,NA,right,1295,0,1,1206
6Kutlti4,3e6l1vr4yzzg81jodkfak6sl8ztf6z,3zgvpd4g6xuu20ju1bmcnsw9602ztr,6Kutlti4,2020-0188,2021-10-17,11:17:42,12:28:47,NA,incomplete,false,NA,true,2,7,NA,NA,NA,left,absent,NA,NA,n_l_041.jpg,green,n_s_113.jpg,black,between,NA,NaN,NA,right,1166,0,1,1478
6Kutlti4,3e6l1vr4yzzg81jodkfak6sl8ztf6z,3zgvpd4g6xuu20ju1bmcnsw9602ztr,6Kutlti4,2020-0188,2021-10-17,11:17:42,12:28:47,NA,incomplete,false,NA,true,2,8,NA,NA,NA,left,absent,NA,NA,m_l_090.jpg,gray,n_l_095.jpg,blue,between,NA,NaN,NA,right,1071,0,1,1461
6Kutlti4,3e6l1vr4yzzg81jodkfak6sl8ztf6z,3zgvpd4g6xuu20ju1bmcnsw9602ztr,6Kutlti4,2020-0188,2021-10-17,11:17:42,12:28:47,NA,incomplete,false,NA,true,2,9,NA,NA,NA,right,absent,NA,NA,m_s_049.jpg,white,n_l_021.jpg,blue,between,NA,NaN,NA,right,1440,1,1,2654
6Kutlti4,3e6l1vr4yzzg81jodkfak6sl8ztf6z,3zgvpd4g6xuu20ju1bmcnsw9602ztr,6Kutlti4,2020-0188,2021-10-17,11:17:42,12:28:47,NA,incomplete,false,NA,true,2,10,NA,NA,NA,right,absent,NA,NA,m_l_039.jpg,green,m_s_068.jpg,brown,between,NA,NaN,NA,right,1713,1,1,1251
6Kutlti4,3e6l1vr4yzzg81jodkfak6sl8ztf6z,3zgvpd4g6xuu20ju1bmcnsw9602ztr,6Kutlti4,2020-0188,2021-10-17,11:17:42,12:28:47,NA,incomplete,false,true,NA,3,0,NA,brown,n_l_064.jpg,NA,NA,unpleasant,pleasant,NA,NA,NA,NA,NA,right,2904,true,NA,NA,NA,NA,NA
6Kutlti4,3e6l1vr4yzzg81jodkfak6sl8ztf6z,3zgvpd4g6xuu20ju1bmcnsw9602ztr,6Kutlti4,2020-0188,2021-10-17,11:17:42,12:28:47,NA,incomplete,false,true,NA,3,1,NA,brown,n_l_043.jpg,NA,NA,unpleasant,pleasant,NA,NA,NA,NA,NA,left,1596,true,NA,NA,NA,NA,NA
6Kutlti4,3e6l1vr4yzzg81jodkfak6sl8ztf6z,3zgvpd4g6xuu20ju1bmcnsw9602ztr,6Kutlti4,2020-0188,2021-10-17,11:17:42,12:28:47,NA,incomplete,false,true,NA,3,2,NA,brown,m_s_025.jpg,NA,NA,pleasant,unpleasant,NA,NA,NA,NA,NA,left,2438,true,NA,NA,NA,NA,NA
6Kutlti4,3e6l1vr4yzzg81jodkfak6sl8ztf6z,3zgvpd4g6xuu20ju1bmcnsw9602ztr,6Kutlti4,2020-0188,2021-10-17,11:17:42,12:28:47,NA,incomplete,false,true,NA,3,3,NA,brown,m_s_064.jpg,NA,NA,pleasant,unpleasant,NA,NA,NA,NA,NA,left,2425,true,NA,NA,NA,NA,NA
6Kutlti4,3e6l1vr4yzzg81jodkfak6sl8ztf6z,3zgvpd4g6xuu20ju1bmcnsw9602ztr,6Kutlti4,2020-0188,2021-10-17,11:17:42,12:28:47,NA,incomplete,false,true,NA,3,4,NA,brown,n_l_002.jpg,NA,NA,unpleasant,pleasant,NA,NA,NA,NA,NA,right,1679,true,NA,NA,NA,NA,NA
6Kutlti4,3e6l1vr4yzzg81jodkfak6sl8ztf6z,3zgvpd4g6xuu20ju1bmcnsw9602ztr,6Kutlti4,2020-0188,2021-10-17,11:17:42,12:28:47,NA,incomplete,false,true,NA,3,5,NA,brown,m_s_003.jpg,NA,NA,pleasant,unpleasant,NA,NA,NA,NA,NA,left,1973,true,NA,NA,NA,NA,NA
6Kutlti4,3e6l1vr4yzzg81jodkfak6sl8ztf6z,3zgvpd4g6xuu20ju1bmcnsw9602ztr,6Kutlti4,2020-0188,2021-10-17,11:17:42,12:28:47,NA,incomplete,false,true,NA,3,6,NA,orange,n_l_079.jpg,NA,NA,pleasant,unpleasant,NA,NA,NA,NA,NA,right,2133,true,NA,NA,NA,NA,NA
6Kutlti4,3e6l1vr4yzzg81jodkfak6sl8ztf6z,3zgvpd4g6xuu20ju1bmcnsw9602ztr,6Kutlti4,2020-0188,2021-10-17,11:17:42,12:28:47,NA,incomplete,false,true,NA,3,7,NA,orange,m_s_040.jpg,NA,NA,unpleasant,pleasant,NA,NA,NA,NA,NA,right,1704,true,NA,NA,NA,NA,NA
6Kutlti4,3e6l1vr4yzzg81jodkfak6sl8ztf6z,3zgvpd4g6xuu20ju1bmcnsw9602ztr,6Kutlti4,2020-0188,2021-10-17,11:17:42,12:28:47,NA,incomplete,false,true,NA,3,8,NA,orange,m_s_111.jpg,NA,NA,pleasant,unpleasant,NA,NA,NA,NA,NA,left,2328,true,NA,NA,NA,NA,NA
6Kutlti4,3e6l1vr4yzzg81jodkfak6sl8ztf6z,3zgvpd4g6xuu20ju1bmcnsw9602ztr,6Kutlti4,2020-0188,2021-10-17,11:17:42,12:28:47,NA,incomplete,false,true,NA,3,9,NA,orange,m_s_117.jpg,NA,NA,unpleasant,pleasant,NA,NA,NA,NA,NA,right,1671,true,NA,NA,NA,NA,NA
6Kutlti4,3e6l1vr4yzzg81jodkfak6sl8ztf6z,3zgvpd4g6xuu20ju1bmcnsw9602ztr,6Kutlti4,2020-0188,2021-10-17,11:17:42,12:28:47,NA,incomplete,false,true,NA,3,10,NA,orange,n_s_047.jpg,NA,NA,pleasant,unpleasant,NA,NA,NA,NA,NA,right,1971,true,NA,NA,NA,NA,NA
6Kutlti4,3e6l1vr4yzzg81jodkfak6sl8ztf6z,3zgvpd4g6xuu20ju1bmcnsw9602ztr,6Kutlti4,2020-0188,2021-10-17,11:17:42,12:28:47,NA,incomplete,false,true,NA,3,11,NA,orange,m_l_044.jpg,NA,NA,unpleasant,pleasant,NA,NA,NA,NA,NA,right,2382,true,NA,NA,NA,NA,NA
6Kutlti4,3e6l1vr4yzzg81jodkfak6sl8ztf6z,3zgvpd4g6xuu20ju1bmcnsw9602ztr,6Kutlti4,2020-0188,2021-10-17,11:17:42,12:28:47,NA,incomplete,false,true,NA,3,12,NA,purple,m_l_035.jpg,NA,NA,pleasant,unpleasant,NA,NA,NA,NA,NA,left,1770,true,NA,NA,NA,NA,NA
6Kutlti4,3e6l1vr4yzzg81jodkfak6sl8ztf6z,3zgvpd4g6xuu20ju1bmcnsw9602ztr,6Kutlti4,2020-0188,2021-10-17,11:17:42,12:28:47,NA,incomplete,false,true,NA,3,13,NA,purple,m_l_005.jpg,NA,NA,pleasant,unpleasant,NA,NA,NA,NA,NA,left,2111,true,NA,NA,NA,NA,NA
6Kutlti4,3e6l1vr4yzzg81jodkfak6sl8ztf6z,3zgvpd4g6xuu20ju1bmcnsw9602ztr,6Kutlti4,2020-0188,2021-10-17,11:17:42,12:28:47,NA,incomplete,false,true,NA,3,14,NA,purple,m_l_093.jpg,NA,NA,pleasant,unpleasant,NA,NA,NA,NA,NA,left,1873,true,NA,NA,NA,NA,NA
6Kutlti4,3e6l1vr4yzzg81jodkfak6sl8ztf6z,3zgvpd4g6xuu20ju1bmcnsw9602ztr,6Kutlti4,2020-0188,2021-10-17,11:17:42,12:28:47,NA,incomplete,false,true,NA,3,15,NA,purple,m_l_020.jpg,NA,NA,unpleasant,pleasant,NA,NA,NA,NA,NA,right,1766,true,NA,NA,NA,NA,NA
6Kutlti4,3e6l1vr4yzzg81jodkfak6sl8ztf6z,3zgvpd4g6xuu20ju1bmcnsw9602ztr,6Kutlti4,2020-0188,2021-10-17,11:17:42,12:28:47,NA,incomplete,false,true,NA,3,16,NA,purple,m_l_110.jpg,NA,NA,pleasant,unpleasant,NA,NA,NA,NA,NA,left,1779,true,NA,NA,NA,NA,NA
6Kutlti4,3e6l1vr4yzzg81jodkfak6sl8ztf6z,3zgvpd4g6xuu20ju1bmcnsw9602ztr,6Kutlti4,2020-0188,2021-10-17,11:17:42,12:28:47,NA,incomplete,false,true,NA,3,17,NA,purple,n_s_030.jpg,NA,NA,unpleasant,pleasant,NA,NA,NA,NA,NA,right,1559,true,NA,NA,NA,NA,NA
6Kutlti4,3e6l1vr4yzzg81jodkfak6sl8ztf6z,3zgvpd4g6xuu20ju1bmcnsw9602ztr,6Kutlti4,2020-0188,2021-10-17,11:17:42,12:28:47,NA,incomplete,false,true,NA,3,18,NA,gray,n_l_068.jpg,NA,NA,pleasant,unpleasant,NA,NA,NA,NA,NA,left,1548,true,NA,NA,NA,NA,NA
6Kutlti4,3e6l1vr4yzzg81jodkfak6sl8ztf6z,3zgvpd4g6xuu20ju1bmcnsw9602ztr,6Kutlti4,2020-0188,2021-10-17,11:17:42,12:28:47,NA,incomplete,false,true,NA,3,19,NA,gray,n_s_105.jpg,NA,NA,unpleasant,pleasant,NA,NA,NA,NA,NA,right,2305,true,NA,NA,NA,NA,NA
6Kutlti4,3e6l1vr4yzzg81jodkfak6sl8ztf6z,3zgvpd4g6xuu20ju1bmcnsw9602ztr,6Kutlti4,2020-0188,2021-10-17,11:17:42,12:28:47,NA,incomplete,false,true,NA,3,20,NA,gray,m_s_024.jpg,NA,NA,pleasant,unpleasant,NA,NA,NA,NA,NA,left,1413,true,NA,NA,NA,NA,NA
6Kutlti4,3e6l1vr4yzzg81jodkfak6sl8ztf6z,3zgvpd4g6xuu20ju1bmcnsw9602ztr,6Kutlti4,2020-0188,2021-10-17,11:17:42,12:28:47,NA,incomplete,false,true,NA,3,21,NA,gray,n_s_053.jpg,NA,NA,unpleasant,pleasant,NA,NA,NA,NA,NA,right,3295,true,NA,NA,NA,NA,NA
6Kutlti4,3e6l1vr4yzzg81jodkfak6sl8ztf6z,3zgvpd4g6xuu20ju1bmcnsw9602ztr,6Kutlti4,2020-0188,2021-10-17,11:17:42,12:28:47,NA,incomplete,false,true,NA,3,22,NA,gray,m_s_080.jpg,NA,NA,unpleasant,pleasant,NA,NA,NA,NA,NA,none,0,false,NA,NA,NA,NA,NA
6Kutlti4,3e6l1vr4yzzg81jodkfak6sl8ztf6z,3zgvpd4g6xuu20ju1bmcnsw9602ztr,6Kutlti4,2020-0188,2021-10-17,11:17:42,12:28:47,NA,incomplete,false,true,NA,3,23,NA,gray,m_s_031.jpg,NA,NA,pleasant,unpleasant,NA,NA,NA,NA,NA,none,0,false,NA,NA,NA,NA,NA
6Kutlti4,3e6l1vr4yzzg81jodkfak6sl8ztf6z,3zgvpd4g6xuu20ju1bmcnsw9602ztr,6Kutlti4,2020-0188,2021-10-17,11:17:42,12:28:47,NA,incomplete,false,true,NA,3,24,NA,blue,m_l_070.jpg,NA,NA,unpleasant,pleasant,NA,NA,NA,NA,NA,right,2354,true,NA,NA,NA,NA,NA
6Kutlti4,3e6l1vr4yzzg81jodkfak6sl8ztf6z,3zgvpd4g6xuu20ju1bmcnsw9602ztr,6Kutlti4,2020-0188,2021-10-17,11:17:42,12:28:47,NA,incomplete,false,true,NA,3,25,NA,blue,m_s_102.jpg,NA,NA,unpleasant,pleasant,NA,NA,NA,NA,NA,right,1932,true,NA,NA,NA,NA,NA
6Kutlti4,3e6l1vr4yzzg81jodkfak6sl8ztf6z,3zgvpd4g6xuu20ju1bmcnsw9602ztr,6Kutlti4,2020-0188,2021-10-17,11:17:42,12:28:47,NA,incomplete,false,true,NA,3,26,NA,blue,n_s_095.jpg,NA,NA,unpleasant,pleasant,NA,NA,NA,NA,NA,right,1603,true,NA,NA,NA,NA,NA
6Kutlti4,3e6l1vr4yzzg81jodkfak6sl8ztf6z,3zgvpd4g6xuu20ju1bmcnsw9602ztr,6Kutlti4,2020-0188,2021-10-17,11:17:42,12:28:47,NA,incomplete,false,true,NA,3,27,NA,blue,n_s_038.jpg,NA,NA,pleasant,unpleasant,NA,NA,NA,NA,NA,left,3024,true,NA,NA,NA,NA,NA
6Kutlti4,3e6l1vr4yzzg81jodkfak6sl8ztf6z,3zgvpd4g6xuu20ju1bmcnsw9602ztr,6Kutlti4,2020-0188,2021-10-17,11:17:42,12:28:47,NA,incomplete,false,true,NA,3,28,NA,blue,m_l_057.jpg,NA,NA,unpleasant,pleasant,NA,NA,NA,NA,NA,left,2122,true,NA,NA,NA,NA,NA
6Kutlti4,3e6l1vr4yzzg81jodkfak6sl8ztf6z,3zgvpd4g6xuu20ju1bmcnsw9602ztr,6Kutlti4,2020-0188,2021-10-17,11:17:42,12:28:47,NA,incomplete,false,true,NA,3,29,NA,blue,m_l_068.jpg,NA,NA,pleasant,unpleasant,NA,NA,NA,NA,NA,none,0,false,NA,NA,NA,NA,NA
6Kutlti4,3e6l1vr4yzzg81jodkfak6sl8ztf6z,3zgvpd4g6xuu20ju1bmcnsw9602ztr,6Kutlti4,2020-0188,2021-10-17,11:17:42,12:28:47,NA,incomplete,false,true,NA,3,30,NA,black,m_l_101.jpg,NA,NA,pleasant,unpleasant,NA,NA,NA,NA,NA,left,2819,true,NA,NA,NA,NA,NA
6Kutlti4,3e6l1vr4yzzg81jodkfak6sl8ztf6z,3zgvpd4g6xuu20ju1bmcnsw9602ztr,6Kutlti4,2020-0188,2021-10-17,11:17:42,12:28:47,NA,incomplete,false,true,NA,3,31,NA,black,n_l_016.jpg,NA,NA,unpleasant,pleasant,NA,NA,NA,NA,NA,left,1757,true,NA,NA,NA,NA,NA
6Kutlti4,3e6l1vr4yzzg81jodkfak6sl8ztf6z,3zgvpd4g6xuu20ju1bmcnsw9602ztr,6Kutlti4,2020-0188,2021-10-17,11:17:42,12:28:47,NA,incomplete,false,true,NA,3,32,NA,black,n_l_091.jpg,NA,NA,unpleasant,pleasant,NA,NA,NA,NA,NA,right,3433,true,NA,NA,NA,NA,NA
6Kutlti4,3e6l1vr4yzzg81jodkfak6sl8ztf6z,3zgvpd4g6xuu20ju1bmcnsw9602ztr,6Kutlti4,2020-0188,2021-10-17,11:17:42,12:28:47,NA,incomplete,false,true,NA,3,33,NA,black,n_l_085.jpg,NA,NA,unpleasant,pleasant,NA,NA,NA,NA,NA,left,2919,true,NA,NA,NA,NA,NA
6Kutlti4,3e6l1vr4yzzg81jodkfak6sl8ztf6z,3zgvpd4g6xuu20ju1bmcnsw9602ztr,6Kutlti4,2020-0188,2021-10-17,11:17:42,12:28:47,NA,incomplete,false,true,NA,3,34,NA,black,m_l_010.jpg,NA,NA,pleasant,unpleasant,NA,NA,NA,NA,NA,left,1928,true,NA,NA,NA,NA,NA
6Kutlti4,3e6l1vr4yzzg81jodkfak6sl8ztf6z,3zgvpd4g6xuu20ju1bmcnsw9602ztr,6Kutlti4,2020-0188,2021-10-17,11:17:42,12:28:47,NA,incomplete,false,true,NA,3,35,NA,black,n_s_088.jpg,NA,NA,unpleasant,pleasant,NA,NA,NA,NA,NA,right,1792,true,NA,NA,NA,NA,NA
6Kutlti4,3e6l1vr4yzzg81jodkfak6sl8ztf6z,3zgvpd4g6xuu20ju1bmcnsw9602ztr,6Kutlti4,2020-0188,2021-10-17,11:17:42,12:28:47,NA,incomplete,false,NA,true,3,0,NA,NA,NA,right,absent,NA,NA,m_s_031.jpg,gray,n_s_105.jpg,gray,within,NA,NaN,NA,right,1889,1,1,4900
6Kutlti4,3e6l1vr4yzzg81jodkfak6sl8ztf6z,3zgvpd4g6xuu20ju1bmcnsw9602ztr,6Kutlti4,2020-0188,2021-10-17,11:17:42,12:28:47,NA,incomplete,false,NA,true,3,1,NA,NA,NA,left,absent,NA,NA,m_s_102.jpg,blue,m_l_068.jpg,blue,within,NA,NaN,NA,right,5860,0,1,15142
6Kutlti4,3e6l1vr4yzzg81jodkfak6sl8ztf6z,3zgvpd4g6xuu20ju1bmcnsw9602ztr,6Kutlti4,2020-0188,2021-10-17,11:17:42,12:28:47,NA,incomplete,false,NA,true,3,2,NA,NA,NA,right,absent,NA,NA,m_l_044.jpg,orange,m_s_040.jpg,orange,within,NA,NaN,NA,right,1781,1,1,1575
6Kutlti4,3e6l1vr4yzzg81jodkfak6sl8ztf6z,3zgvpd4g6xuu20ju1bmcnsw9602ztr,6Kutlti4,2020-0188,2021-10-17,11:17:42,12:28:47,NA,incomplete,false,NA,true,3,3,NA,NA,NA,right,absent,NA,NA,n_s_095.jpg,blue,m_s_080.jpg,gray,between,NA,NaN,NA,left,2049,0,1,1911
6Kutlti4,3e6l1vr4yzzg81jodkfak6sl8ztf6z,3zgvpd4g6xuu20ju1bmcnsw9602ztr,6Kutlti4,2020-0188,2021-10-17,11:17:42,12:28:47,NA,incomplete,false,NA,true,3,4,NA,NA,NA,right,absent,NA,NA,n_l_091.jpg,black,m_l_057.jpg,blue,between,NA,NaN,NA,right,2094,1,1,1549
6Kutlti4,3e6l1vr4yzzg81jodkfak6sl8ztf6z,3zgvpd4g6xuu20ju1bmcnsw9602ztr,6Kutlti4,2020-0188,2021-10-17,11:17:42,12:28:47,NA,incomplete,false,NA,true,3,5,NA,NA,NA,right,absent,NA,NA,m_l_093.jpg,purple,n_s_047.jpg,orange,between,NA,NaN,NA,left,2996,0,1,1428
6Kutlti4,3e6l1vr4yzzg81jodkfak6sl8ztf6z,3zgvpd4g6xuu20ju1bmcnsw9602ztr,6Kutlti4,2020-0188,2021-10-17,11:17:42,12:28:47,NA,incomplete,false,NA,true,3,6,NA,NA,NA,left,absent,NA,NA,m_l_005.jpg,purple,n_s_030.jpg,purple,within,NA,NaN,NA,right,1936,0,1,1714
6Kutlti4,3e6l1vr4yzzg81jodkfak6sl8ztf6z,3zgvpd4g6xuu20ju1bmcnsw9602ztr,6Kutlti4,2020-0188,2021-10-17,11:17:42,12:28:47,NA,incomplete,false,NA,true,3,7,NA,NA,NA,right,absent,NA,NA,m_s_111.jpg,orange,n_l_002.jpg,brown,between,NA,NaN,NA,right,1617,1,1,1368
6Kutlti4,3e6l1vr4yzzg81jodkfak6sl8ztf6z,3zgvpd4g6xuu20ju1bmcnsw9602ztr,6Kutlti4,2020-0188,2021-10-17,11:17:42,12:28:47,NA,incomplete,false,NA,true,3,8,NA,NA,NA,left,absent,NA,NA,n_l_016.jpg,black,n_s_088.jpg,black,within,NA,NaN,NA,right,1358,0,1,1377
6Kutlti4,3e6l1vr4yzzg81jodkfak6sl8ztf6z,3zgvpd4g6xuu20ju1bmcnsw9602ztr,6Kutlti4,2020-0188,2021-10-17,11:17:42,12:28:47,NA,incomplete,false,NA,true,3,9,NA,NA,NA,right,absent,NA,NA,m_s_003.jpg,brown,n_l_043.jpg,brown,within,NA,NaN,NA,right,1740,1,1,1255
6Kutlti4,3e6l1vr4yzzg81jodkfak6sl8ztf6z,3zgvpd4g6xuu20ju1bmcnsw9602ztr,6Kutlti4,2020-0188,2021-10-17,11:17:42,12:28:47,NA,incomplete,false,NA,true,3,10,NA,NA,NA,right,absent,NA,NA,m_s_024.jpg,gray,m_l_110.jpg,purple,between,NA,NaN,NA,right,2161,1,1,3453
6Kutlti4,3e6l1vr4yzzg81jodkfak6sl8ztf6z,3zgvpd4g6xuu20ju1bmcnsw9602ztr,6Kutlti4,2020-0188,2021-10-17,11:17:42,12:28:47,NA,incomplete,false,true,NA,4,0,NA,yellow,m_s_081.jpg,NA,NA,pleasant,unpleasant,NA,NA,NA,NA,NA,left,2749,true,NA,NA,NA,NA,NA
6Kutlti4,3e6l1vr4yzzg81jodkfak6sl8ztf6z,3zgvpd4g6xuu20ju1bmcnsw9602ztr,6Kutlti4,2020-0188,2021-10-17,11:17:42,12:28:47,NA,incomplete,false,true,NA,4,1,NA,yellow,m_s_077.jpg,NA,NA,unpleasant,pleasant,NA,NA,NA,NA,NA,left,2168,true,NA,NA,NA,NA,NA
6Kutlti4,3e6l1vr4yzzg81jodkfak6sl8ztf6z,3zgvpd4g6xuu20ju1bmcnsw9602ztr,6Kutlti4,2020-0188,2021-10-17,11:17:42,12:28:47,NA,incomplete,false,true,NA,4,2,NA,yellow,n_s_008.jpg,NA,NA,unpleasant,pleasant,NA,NA,NA,NA,NA,right,3016,true,NA,NA,NA,NA,NA
6Kutlti4,3e6l1vr4yzzg81jodkfak6sl8ztf6z,3zgvpd4g6xuu20ju1bmcnsw9602ztr,6Kutlti4,2020-0188,2021-10-17,11:17:42,12:28:47,NA,incomplete,false,true,NA,4,3,NA,yellow,n_s_028.jpg,NA,NA,unpleasant,pleasant,NA,NA,NA,NA,NA,right,2668,true,NA,NA,NA,NA,NA
6Kutlti4,3e6l1vr4yzzg81jodkfak6sl8ztf6z,3zgvpd4g6xuu20ju1bmcnsw9602ztr,6Kutlti4,2020-0188,2021-10-17,11:17:42,12:28:47,NA,incomplete,false,true,NA,4,4,NA,yellow,m_s_105.jpg,NA,NA,unpleasant,pleasant,NA,NA,NA,NA,NA,right,2194,true,NA,NA,NA,NA,NA
6Kutlti4,3e6l1vr4yzzg81jodkfak6sl8ztf6z,3zgvpd4g6xuu20ju1bmcnsw9602ztr,6Kutlti4,2020-0188,2021-10-17,11:17:42,12:28:47,NA,incomplete,false,true,NA,4,5,NA,yellow,n_l_115.jpg,NA,NA,pleasant,unpleasant,NA,NA,NA,NA,NA,left,1976,true,NA,NA,NA,NA,NA
6Kutlti4,3e6l1vr4yzzg81jodkfak6sl8ztf6z,3zgvpd4g6xuu20ju1bmcnsw9602ztr,6Kutlti4,2020-0188,2021-10-17,11:17:42,12:28:47,NA,incomplete,false,true,NA,4,6,NA,blue,n_l_094.jpg,NA,NA,unpleasant,pleasant,NA,NA,NA,NA,NA,right,1803,true,NA,NA,NA,NA,NA
6Kutlti4,3e6l1vr4yzzg81jodkfak6sl8ztf6z,3zgvpd4g6xuu20ju1bmcnsw9602ztr,6Kutlti4,2020-0188,2021-10-17,11:17:42,12:28:47,NA,incomplete,false,true,NA,4,7,NA,blue,n_l_116.jpg,NA,NA,unpleasant,pleasant,NA,NA,NA,NA,NA,right,1777,true,NA,NA,NA,NA,NA
6Kutlti4,3e6l1vr4yzzg81jodkfak6sl8ztf6z,3zgvpd4g6xuu20ju1bmcnsw9602ztr,6Kutlti4,2020-0188,2021-10-17,11:17:42,12:28:47,NA,incomplete,false,true,NA,4,8,NA,blue,m_l_059.jpg,NA,NA,unpleasant,pleasant,NA,NA,NA,NA,NA,right,1649,true,NA,NA,NA,NA,NA
6Kutlti4,3e6l1vr4yzzg81jodkfak6sl8ztf6z,3zgvpd4g6xuu20ju1bmcnsw9602ztr,6Kutlti4,2020-0188,2021-10-17,11:17:42,12:28:47,NA,incomplete,false,true,NA,4,9,NA,blue,m_s_112.jpg,NA,NA,unpleasant,pleasant,NA,NA,NA,NA,NA,right,1827,true,NA,NA,NA,NA,NA
6Kutlti4,3e6l1vr4yzzg81jodkfak6sl8ztf6z,3zgvpd4g6xuu20ju1bmcnsw9602ztr,6Kutlti4,2020-0188,2021-10-17,11:17:42,12:28:47,NA,incomplete,false,true,NA,4,10,NA,blue,m_l_016.jpg,NA,NA,unpleasant,pleasant,NA,NA,NA,NA,NA,right,1416,true,NA,NA,NA,NA,NA
6Kutlti4,3e6l1vr4yzzg81jodkfak6sl8ztf6z,3zgvpd4g6xuu20ju1bmcnsw9602ztr,6Kutlti4,2020-0188,2021-10-17,11:17:42,12:28:47,NA,incomplete,false,true,NA,4,11,NA,blue,n_s_103.jpg,NA,NA,pleasant,unpleasant,NA,NA,NA,NA,NA,left,1745,true,NA,NA,NA,NA,NA
6Kutlti4,3e6l1vr4yzzg81jodkfak6sl8ztf6z,3zgvpd4g6xuu20ju1bmcnsw9602ztr,6Kutlti4,2020-0188,2021-10-17,11:17:42,12:28:47,NA,incomplete,false,true,NA,4,12,NA,white,n_s_066.jpg,NA,NA,pleasant,unpleasant,NA,NA,NA,NA,NA,left,1410,true,NA,NA,NA,NA,NA
6Kutlti4,3e6l1vr4yzzg81jodkfak6sl8ztf6z,3zgvpd4g6xuu20ju1bmcnsw9602ztr,6Kutlti4,2020-0188,2021-10-17,11:17:42,12:28:47,NA,incomplete,false,true,NA,4,13,NA,white,n_s_112.jpg,NA,NA,unpleasant,pleasant,NA,NA,NA,NA,NA,right,1727,true,NA,NA,NA,NA,NA
6Kutlti4,3e6l1vr4yzzg81jodkfak6sl8ztf6z,3zgvpd4g6xuu20ju1bmcnsw9602ztr,6Kutlti4,2020-0188,2021-10-17,11:17:42,12:28:47,NA,incomplete,false,true,NA,4,14,NA,white,n_s_023.jpg,NA,NA,unpleasant,pleasant,NA,NA,NA,NA,NA,right,1570,true,NA,NA,NA,NA,NA
6Kutlti4,3e6l1vr4yzzg81jodkfak6sl8ztf6z,3zgvpd4g6xuu20ju1bmcnsw9602ztr,6Kutlti4,2020-0188,2021-10-17,11:17:42,12:28:47,NA,incomplete,false,true,NA,4,15,NA,white,n_l_032.jpg,NA,NA,unpleasant,pleasant,NA,NA,NA,NA,NA,right,1459,true,NA,NA,NA,NA,NA
6Kutlti4,3e6l1vr4yzzg81jodkfak6sl8ztf6z,3zgvpd4g6xuu20ju1bmcnsw9602ztr,6Kutlti4,2020-0188,2021-10-17,11:17:42,12:28:47,NA,incomplete,false,true,NA,4,16,NA,white,n_l_050.jpg,NA,NA,pleasant,unpleasant,NA,NA,NA,NA,NA,left,3345,true,NA,NA,NA,NA,NA
6Kutlti4,3e6l1vr4yzzg81jodkfak6sl8ztf6z,3zgvpd4g6xuu20ju1bmcnsw9602ztr,6Kutlti4,2020-0188,2021-10-17,11:17:42,12:28:47,NA,incomplete,false,true,NA,4,17,NA,white,n_l_055.jpg,NA,NA,unpleasant,pleasant,NA,NA,NA,NA,NA,left,1818,true,NA,NA,NA,NA,NA
6Kutlti4,3e6l1vr4yzzg81jodkfak6sl8ztf6z,3zgvpd4g6xuu20ju1bmcnsw9602ztr,6Kutlti4,2020-0188,2021-10-17,11:17:42,12:28:47,NA,incomplete,false,true,NA,4,18,NA,red,m_s_044.jpg,NA,NA,unpleasant,pleasant,NA,NA,NA,NA,NA,right,3067,true,NA,NA,NA,NA,NA
6Kutlti4,3e6l1vr4yzzg81jodkfak6sl8ztf6z,3zgvpd4g6xuu20ju1bmcnsw9602ztr,6Kutlti4,2020-0188,2021-10-17,11:17:42,12:28:47,NA,incomplete,false,true,NA,4,19,NA,red,m_s_008.jpg,NA,NA,unpleasant,pleasant,NA,NA,NA,NA,NA,right,2081,true,NA,NA,NA,NA,NA
6Kutlti4,3e6l1vr4yzzg81jodkfak6sl8ztf6z,3zgvpd4g6xuu20ju1bmcnsw9602ztr,6Kutlti4,2020-0188,2021-10-17,11:17:42,12:28:47,NA,incomplete,false,true,NA,4,20,NA,red,n_s_074.jpg,NA,NA,unpleasant,pleasant,NA,NA,NA,NA,NA,right,1743,true,NA,NA,NA,NA,NA
6Kutlti4,3e6l1vr4yzzg81jodkfak6sl8ztf6z,3zgvpd4g6xuu20ju1bmcnsw9602ztr,6Kutlti4,2020-0188,2021-10-17,11:17:42,12:28:47,NA,incomplete,false,true,NA,4,21,NA,red,n_s_097.jpg,NA,NA,pleasant,unpleasant,NA,NA,NA,NA,NA,right,2048,true,NA,NA,NA,NA,NA
6Kutlti4,3e6l1vr4yzzg81jodkfak6sl8ztf6z,3zgvpd4g6xuu20ju1bmcnsw9602ztr,6Kutlti4,2020-0188,2021-10-17,11:17:42,12:28:47,NA,incomplete,false,true,NA,4,22,NA,red,n_s_036.jpg,NA,NA,unpleasant,pleasant,NA,NA,NA,NA,NA,none,0,false,NA,NA,NA,NA,NA
6Kutlti4,3e6l1vr4yzzg81jodkfak6sl8ztf6z,3zgvpd4g6xuu20ju1bmcnsw9602ztr,6Kutlti4,2020-0188,2021-10-17,11:17:42,12:28:47,NA,incomplete,false,true,NA,4,23,NA,red,m_s_022.jpg,NA,NA,unpleasant,pleasant,NA,NA,NA,NA,NA,right,2469,true,NA,NA,NA,NA,NA
6Kutlti4,3e6l1vr4yzzg81jodkfak6sl8ztf6z,3zgvpd4g6xuu20ju1bmcnsw9602ztr,6Kutlti4,2020-0188,2021-10-17,11:17:42,12:28:47,NA,incomplete,false,true,NA,4,24,NA,green,m_s_095.jpg,NA,NA,pleasant,unpleasant,NA,NA,NA,NA,NA,left,2373,true,NA,NA,NA,NA,NA
6Kutlti4,3e6l1vr4yzzg81jodkfak6sl8ztf6z,3zgvpd4g6xuu20ju1bmcnsw9602ztr,6Kutlti4,2020-0188,2021-10-17,11:17:42,12:28:47,NA,incomplete,false,true,NA,4,25,NA,green,n_l_109.jpg,NA,NA,unpleasant,pleasant,NA,NA,NA,NA,NA,left,2069,true,NA,NA,NA,NA,NA
6Kutlti4,3e6l1vr4yzzg81jodkfak6sl8ztf6z,3zgvpd4g6xuu20ju1bmcnsw9602ztr,6Kutlti4,2020-0188,2021-10-17,11:17:42,12:28:47,NA,incomplete,false,true,NA,4,26,NA,green,n_s_020.jpg,NA,NA,unpleasant,pleasant,NA,NA,NA,NA,NA,right,2027,true,NA,NA,NA,NA,NA
6Kutlti4,3e6l1vr4yzzg81jodkfak6sl8ztf6z,3zgvpd4g6xuu20ju1bmcnsw9602ztr,6Kutlti4,2020-0188,2021-10-17,11:17:42,12:28:47,NA,incomplete,false,true,NA,4,27,NA,green,m_s_103.jpg,NA,NA,pleasant,unpleasant,NA,NA,NA,NA,NA,left,2040,true,NA,NA,NA,NA,NA
6Kutlti4,3e6l1vr4yzzg81jodkfak6sl8ztf6z,3zgvpd4g6xuu20ju1bmcnsw9602ztr,6Kutlti4,2020-0188,2021-10-17,11:17:42,12:28:47,NA,incomplete,false,true,NA,4,28,NA,green,n_s_109.jpg,NA,NA,pleasant,unpleasant,NA,NA,NA,NA,NA,right,1681,true,NA,NA,NA,NA,NA
6Kutlti4,3e6l1vr4yzzg81jodkfak6sl8ztf6z,3zgvpd4g6xuu20ju1bmcnsw9602ztr,6Kutlti4,2020-0188,2021-10-17,11:17:42,12:28:47,NA,incomplete,false,true,NA,4,29,NA,green,n_l_054.jpg,NA,NA,unpleasant,pleasant,NA,NA,NA,NA,NA,right,1778,true,NA,NA,NA,NA,NA
6Kutlti4,3e6l1vr4yzzg81jodkfak6sl8ztf6z,3zgvpd4g6xuu20ju1bmcnsw9602ztr,6Kutlti4,2020-0188,2021-10-17,11:17:42,12:28:47,NA,incomplete,false,true,NA,4,30,NA,orange,n_l_117.jpg,NA,NA,pleasant,unpleasant,NA,NA,NA,NA,NA,right,2940,true,NA,NA,NA,NA,NA
6Kutlti4,3e6l1vr4yzzg81jodkfak6sl8ztf6z,3zgvpd4g6xuu20ju1bmcnsw9602ztr,6Kutlti4,2020-0188,2021-10-17,11:17:42,12:28:47,NA,incomplete,false,true,NA,4,31,NA,orange,m_l_095.jpg,NA,NA,pleasant,unpleasant,NA,NA,NA,NA,NA,none,0,false,NA,NA,NA,NA,NA
6Kutlti4,3e6l1vr4yzzg81jodkfak6sl8ztf6z,3zgvpd4g6xuu20ju1bmcnsw9602ztr,6Kutlti4,2020-0188,2021-10-17,11:17:42,12:28:47,NA,incomplete,false,true,NA,4,32,NA,orange,m_s_047.jpg,NA,NA,unpleasant,pleasant,NA,NA,NA,NA,NA,right,1670,true,NA,NA,NA,NA,NA
6Kutlti4,3e6l1vr4yzzg81jodkfak6sl8ztf6z,3zgvpd4g6xuu20ju1bmcnsw9602ztr,6Kutlti4,2020-0188,2021-10-17,11:17:42,12:28:47,NA,incomplete,false,true,NA,4,33,NA,orange,m_l_025.jpg,NA,NA,pleasant,unpleasant,NA,NA,NA,NA,NA,none,0,false,NA,NA,NA,NA,NA
6Kutlti4,3e6l1vr4yzzg81jodkfak6sl8ztf6z,3zgvpd4g6xuu20ju1bmcnsw9602ztr,6Kutlti4,2020-0188,2021-10-17,11:17:42,12:28:47,NA,incomplete,false,true,NA,4,34,NA,orange,n_s_065.jpg,NA,NA,unpleasant,pleasant,NA,NA,NA,NA,NA,left,1334,true,NA,NA,NA,NA,NA
6Kutlti4,3e6l1vr4yzzg81jodkfak6sl8ztf6z,3zgvpd4g6xuu20ju1bmcnsw9602ztr,6Kutlti4,2020-0188,2021-10-17,11:17:42,12:28:47,NA,incomplete,false,true,NA,4,35,NA,orange,n_l_057.jpg,NA,NA,unpleasant,pleasant,NA,NA,NA,NA,NA,left,1604,true,NA,NA,NA,NA,NA
6Kutlti4,3e6l1vr4yzzg81jodkfak6sl8ztf6z,3zgvpd4g6xuu20ju1bmcnsw9602ztr,6Kutlti4,2020-0188,2021-10-17,11:17:42,12:28:47,NA,incomplete,false,NA,true,4,0,NA,NA,NA,left,absent,NA,NA,m_s_008.jpg,red,m_s_022.jpg,red,within,NA,NaN,NA,right,1985,0,1,1480
6Kutlti4,3e6l1vr4yzzg81jodkfak6sl8ztf6z,3zgvpd4g6xuu20ju1bmcnsw9602ztr,6Kutlti4,2020-0188,2021-10-17,11:17:42,12:28:47,NA,incomplete,false,NA,true,4,1,NA,NA,NA,right,absent,NA,NA,m_s_047.jpg,orange,n_s_109.jpg,green,between,NA,NaN,NA,right,2556,1,1,1789
6Kutlti4,3e6l1vr4yzzg81jodkfak6sl8ztf6z,3zgvpd4g6xuu20ju1bmcnsw9602ztr,6Kutlti4,2020-0188,2021-10-17,11:17:42,12:28:47,NA,incomplete,false,NA,true,4,2,NA,NA,NA,right,absent,NA,NA,n_s_074.jpg,red,n_l_050.jpg,white,between,NA,NaN,NA,right,1856,1,1,1409
6Kutlti4,3e6l1vr4yzzg81jodkfak6sl8ztf6z,3zgvpd4g6xuu20ju1bmcnsw9602ztr,6Kutlti4,2020-0188,2021-10-17,11:17:42,12:28:47,NA,incomplete,false,NA,true,4,3,NA,NA,NA,left,absent,NA,NA,n_l_109.jpg,green,n_l_054.jpg,green,within,NA,NaN,NA,right,1206,0,1,2545
6Kutlti4,3e6l1vr4yzzg81jodkfak6sl8ztf6z,3zgvpd4g6xuu20ju1bmcnsw9602ztr,6Kutlti4,2020-0188,2021-10-17,11:17:42,12:28:47,NA,incomplete,false,NA,true,4,4,NA,NA,NA,left,absent,NA,NA,n_s_112.jpg,white,n_l_055.jpg,white,within,NA,NaN,NA,right,1677,0,1,1144
6Kutlti4,3e6l1vr4yzzg81jodkfak6sl8ztf6z,3zgvpd4g6xuu20ju1bmcnsw9602ztr,6Kutlti4,2020-0188,2021-10-17,11:17:42,12:28:47,NA,incomplete,false,NA,true,4,5,NA,NA,NA,left,absent,NA,NA,n_s_036.jpg,red,n_s_020.jpg,green,between,NA,NaN,NA,right,1128,0,1,1217
6Kutlti4,3e6l1vr4yzzg81jodkfak6sl8ztf6z,3zgvpd4g6xuu20ju1bmcnsw9602ztr,6Kutlti4,2020-0188,2021-10-17,11:17:42,12:28:47,NA,incomplete,false,NA,true,4,6,NA,NA,NA,right,absent,NA,NA,n_s_103.jpg,blue,n_l_116.jpg,blue,within,NA,NaN,NA,right,1700,1,1,1495
6Kutlti4,3e6l1vr4yzzg81jodkfak6sl8ztf6z,3zgvpd4g6xuu20ju1bmcnsw9602ztr,6Kutlti4,2020-0188,2021-10-17,11:17:42,12:28:47,NA,incomplete,false,NA,true,4,7,NA,NA,NA,left,absent,NA,NA,m_s_077.jpg,yellow,n_l_115.jpg,yellow,within,NA,NaN,NA,right,1591,0,1,1248
6Kutlti4,3e6l1vr4yzzg81jodkfak6sl8ztf6z,3zgvpd4g6xuu20ju1bmcnsw9602ztr,6Kutlti4,2020-0188,2021-10-17,11:17:42,12:28:47,NA,incomplete,false,NA,true,4,8,NA,NA,NA,right,absent,NA,NA,n_l_057.jpg,orange,m_l_095.jpg,orange,within,NA,NaN,NA,right,1212,1,1,1316
6Kutlti4,3e6l1vr4yzzg81jodkfak6sl8ztf6z,3zgvpd4g6xuu20ju1bmcnsw9602ztr,6Kutlti4,2020-0188,2021-10-17,11:17:42,12:28:47,NA,incomplete,false,NA,true,4,9,NA,NA,NA,left,absent,NA,NA,m_l_016.jpg,blue,n_s_023.jpg,white,between,NA,NaN,NA,right,1644,0,1,1990
6Kutlti4,3e6l1vr4yzzg81jodkfak6sl8ztf6z,3zgvpd4g6xuu20ju1bmcnsw9602ztr,6Kutlti4,2020-0188,2021-10-17,11:17:42,12:28:47,NA,incomplete,false,NA,true,4,10,NA,NA,NA,left,absent,NA,NA,m_s_105.jpg,yellow,m_l_059.jpg,blue,between,NA,NaN,NA,right,1647,0,1,1373
6Kutlti4,3e6l1vr4yzzg81jodkfak6sl8ztf6z,3zgvpd4g6xuu20ju1bmcnsw9602ztr,6Kutlti4,2020-0188,2021-10-17,11:17:42,12:28:47,NA,incomplete,false,true,NA,5,0,NA,purple,n_s_054.jpg,NA,NA,pleasant,unpleasant,NA,NA,NA,NA,NA,none,0,false,NA,NA,NA,NA,NA
6Kutlti4,3e6l1vr4yzzg81jodkfak6sl8ztf6z,3zgvpd4g6xuu20ju1bmcnsw9602ztr,6Kutlti4,2020-0188,2021-10-17,11:17:42,12:28:47,NA,incomplete,false,true,NA,5,1,NA,purple,m_l_087.jpg,NA,NA,pleasant,unpleasant,NA,NA,NA,NA,NA,left,2482,true,NA,NA,NA,NA,NA
6Kutlti4,3e6l1vr4yzzg81jodkfak6sl8ztf6z,3zgvpd4g6xuu20ju1bmcnsw9602ztr,6Kutlti4,2020-0188,2021-10-17,11:17:42,12:28:47,NA,incomplete,false,true,NA,5,2,NA,purple,n_s_003.jpg,NA,NA,pleasant,unpleasant,NA,NA,NA,NA,NA,right,2993,true,NA,NA,NA,NA,NA
6Kutlti4,3e6l1vr4yzzg81jodkfak6sl8ztf6z,3zgvpd4g6xuu20ju1bmcnsw9602ztr,6Kutlti4,2020-0188,2021-10-17,11:17:42,12:28:47,NA,incomplete,false,true,NA,5,3,NA,purple,m_s_089.jpg,NA,NA,unpleasant,pleasant,NA,NA,NA,NA,NA,right,3420,true,NA,NA,NA,NA,NA
6Kutlti4,3e6l1vr4yzzg81jodkfak6sl8ztf6z,3zgvpd4g6xuu20ju1bmcnsw9602ztr,6Kutlti4,2020-0188,2021-10-17,11:17:42,12:28:47,NA,incomplete,false,true,NA,5,4,NA,purple,m_l_011.jpg,NA,NA,unpleasant,pleasant,NA,NA,NA,NA,NA,left,1483,true,NA,NA,NA,NA,NA
6Kutlti4,3e6l1vr4yzzg81jodkfak6sl8ztf6z,3zgvpd4g6xuu20ju1bmcnsw9602ztr,6Kutlti4,2020-0188,2021-10-17,11:17:42,12:28:47,NA,incomplete,false,true,NA,5,5,NA,purple,n_s_101.jpg,NA,NA,pleasant,unpleasant,NA,NA,NA,NA,NA,right,2454,true,NA,NA,NA,NA,NA
6Kutlti4,3e6l1vr4yzzg81jodkfak6sl8ztf6z,3zgvpd4g6xuu20ju1bmcnsw9602ztr,6Kutlti4,2020-0188,2021-10-17,11:17:42,12:28:47,NA,incomplete,false,true,NA,5,6,NA,brown,n_l_073.jpg,NA,NA,pleasant,unpleasant,NA,NA,NA,NA,NA,left,1814,true,NA,NA,NA,NA,NA
6Kutlti4,3e6l1vr4yzzg81jodkfak6sl8ztf6z,3zgvpd4g6xuu20ju1bmcnsw9602ztr,6Kutlti4,2020-0188,2021-10-17,11:17:42,12:28:47,NA,incomplete,false,true,NA,5,7,NA,brown,m_s_033.jpg,NA,NA,unpleasant,pleasant,NA,NA,NA,NA,NA,right,2072,true,NA,NA,NA,NA,NA
6Kutlti4,3e6l1vr4yzzg81jodkfak6sl8ztf6z,3zgvpd4g6xuu20ju1bmcnsw9602ztr,6Kutlti4,2020-0188,2021-10-17,11:17:42,12:28:47,NA,incomplete,false,true,NA,5,8,NA,brown,n_s_115.jpg,NA,NA,pleasant,unpleasant,NA,NA,NA,NA,NA,left,1816,true,NA,NA,NA,NA,NA
6Kutlti4,3e6l1vr4yzzg81jodkfak6sl8ztf6z,3zgvpd4g6xuu20ju1bmcnsw9602ztr,6Kutlti4,2020-0188,2021-10-17,11:17:42,12:28:47,NA,incomplete,false,true,NA,5,9,NA,brown,m_l_033.jpg,NA,NA,pleasant,unpleasant,NA,NA,NA,NA,NA,left,2271,true,NA,NA,NA,NA,NA
6Kutlti4,3e6l1vr4yzzg81jodkfak6sl8ztf6z,3zgvpd4g6xuu20ju1bmcnsw9602ztr,6Kutlti4,2020-0188,2021-10-17,11:17:42,12:28:47,NA,incomplete,false,true,NA,5,10,NA,brown,m_l_079.jpg,NA,NA,pleasant,unpleasant,NA,NA,NA,NA,NA,right,1913,true,NA,NA,NA,NA,NA
6Kutlti4,3e6l1vr4yzzg81jodkfak6sl8ztf6z,3zgvpd4g6xuu20ju1bmcnsw9602ztr,6Kutlti4,2020-0188,2021-10-17,11:17:42,12:28:47,NA,incomplete,false,true,NA,5,11,NA,brown,n_l_014.jpg,NA,NA,unpleasant,pleasant,NA,NA,NA,NA,NA,left,1710,true,NA,NA,NA,NA,NA
6Kutlti4,3e6l1vr4yzzg81jodkfak6sl8ztf6z,3zgvpd4g6xuu20ju1bmcnsw9602ztr,6Kutlti4,2020-0188,2021-10-17,11:17:42,12:28:47,NA,incomplete,false,true,NA,5,12,NA,yellow,n_s_011.jpg,NA,NA,pleasant,unpleasant,NA,NA,NA,NA,NA,left,1872,true,NA,NA,NA,NA,NA
6Kutlti4,3e6l1vr4yzzg81jodkfak6sl8ztf6z,3zgvpd4g6xuu20ju1bmcnsw9602ztr,6Kutlti4,2020-0188,2021-10-17,11:17:42,12:28:47,NA,incomplete,false,true,NA,5,13,NA,yellow,n_l_045.jpg,NA,NA,unpleasant,pleasant,NA,NA,NA,NA,NA,none,0,false,NA,NA,NA,NA,NA
6Kutlti4,3e6l1vr4yzzg81jodkfak6sl8ztf6z,3zgvpd4g6xuu20ju1bmcnsw9602ztr,6Kutlti4,2020-0188,2021-10-17,11:17:42,12:28:47,NA,incomplete,false,true,NA,5,14,NA,yellow,m_l_047.jpg,NA,NA,unpleasant,pleasant,NA,NA,NA,NA,NA,right,2911,true,NA,NA,NA,NA,NA
6Kutlti4,3e6l1vr4yzzg81jodkfak6sl8ztf6z,3zgvpd4g6xuu20ju1bmcnsw9602ztr,6Kutlti4,2020-0188,2021-10-17,11:17:42,12:28:47,NA,incomplete,false,true,NA,5,15,NA,yellow,m_s_012.jpg,NA,NA,pleasant,unpleasant,NA,NA,NA,NA,NA,left,2311,true,NA,NA,NA,NA,NA
6Kutlti4,3e6l1vr4yzzg81jodkfak6sl8ztf6z,3zgvpd4g6xuu20ju1bmcnsw9602ztr,6Kutlti4,2020-0188,2021-10-17,11:17:42,12:28:47,NA,incomplete,false,true,NA,5,16,NA,yellow,n_l_080.jpg,NA,NA,pleasant,unpleasant,NA,NA,NA,NA,NA,left,3214,true,NA,NA,NA,NA,NA
6Kutlti4,3e6l1vr4yzzg81jodkfak6sl8ztf6z,3zgvpd4g6xuu20ju1bmcnsw9602ztr,6Kutlti4,2020-0188,2021-10-17,11:17:42,12:28:47,NA,incomplete,false,true,NA,5,17,NA,yellow,n_s_016.jpg,NA,NA,pleasant,unpleasant,NA,NA,NA,NA,NA,left,1605,true,NA,NA,NA,NA,NA
6Kutlti4,3e6l1vr4yzzg81jodkfak6sl8ztf6z,3zgvpd4g6xuu20ju1bmcnsw9602ztr,6Kutlti4,2020-0188,2021-10-17,11:17:42,12:28:47,NA,incomplete,false,true,NA,5,18,NA,green,m_s_109.jpg,NA,NA,pleasant,unpleasant,NA,NA,NA,NA,NA,left,2043,true,NA,NA,NA,NA,NA
6Kutlti4,3e6l1vr4yzzg81jodkfak6sl8ztf6z,3zgvpd4g6xuu20ju1bmcnsw9602ztr,6Kutlti4,2020-0188,2021-10-17,11:17:42,12:28:47,NA,incomplete,false,true,NA,5,19,NA,green,m_l_008.jpg,NA,NA,unpleasant,pleasant,NA,NA,NA,NA,NA,right,2002,true,NA,NA,NA,NA,NA
6Kutlti4,3e6l1vr4yzzg81jodkfak6sl8ztf6z,3zgvpd4g6xuu20ju1bmcnsw9602ztr,6Kutlti4,2020-0188,2021-10-17,11:17:42,12:28:47,NA,incomplete,false,true,NA,5,20,NA,green,n_s_007.jpg,NA,NA,pleasant,unpleasant,NA,NA,NA,NA,NA,right,2157,true,NA,NA,NA,NA,NA
6Kutlti4,3e6l1vr4yzzg81jodkfak6sl8ztf6z,3zgvpd4g6xuu20ju1bmcnsw9602ztr,6Kutlti4,2020-0188,2021-10-17,11:17:42,12:28:47,NA,incomplete,false,true,NA,5,21,NA,green,m_s_115.jpg,NA,NA,pleasant,unpleasant,NA,NA,NA,NA,NA,left,2158,true,NA,NA,NA,NA,NA
6Kutlti4,3e6l1vr4yzzg81jodkfak6sl8ztf6z,3zgvpd4g6xuu20ju1bmcnsw9602ztr,6Kutlti4,2020-0188,2021-10-17,11:17:42,12:28:47,NA,incomplete,false,true,NA,5,22,NA,green,n_s_082.jpg,NA,NA,unpleasant,pleasant,NA,NA,NA,NA,NA,right,2457,true,NA,NA,NA,NA,NA
6Kutlti4,3e6l1vr4yzzg81jodkfak6sl8ztf6z,3zgvpd4g6xuu20ju1bmcnsw9602ztr,6Kutlti4,2020-0188,2021-10-17,11:17:42,12:28:47,NA,incomplete,false,true,NA,5,23,NA,green,n_s_080.jpg,NA,NA,unpleasant,pleasant,NA,NA,NA,NA,NA,left,1506,true,NA,NA,NA,NA,NA
6Kutlti4,3e6l1vr4yzzg81jodkfak6sl8ztf6z,3zgvpd4g6xuu20ju1bmcnsw9602ztr,6Kutlti4,2020-0188,2021-10-17,11:17:42,12:28:47,NA,incomplete,false,true,NA,5,24,NA,white,m_l_115.jpg,NA,NA,pleasant,unpleasant,NA,NA,NA,NA,NA,left,3244,true,NA,NA,NA,NA,NA
6Kutlti4,3e6l1vr4yzzg81jodkfak6sl8ztf6z,3zgvpd4g6xuu20ju1bmcnsw9602ztr,6Kutlti4,2020-0188,2021-10-17,11:17:42,12:28:47,NA,incomplete,false,true,NA,5,25,NA,white,m_s_114.jpg,NA,NA,unpleasant,pleasant,NA,NA,NA,NA,NA,right,2535,true,NA,NA,NA,NA,NA
6Kutlti4,3e6l1vr4yzzg81jodkfak6sl8ztf6z,3zgvpd4g6xuu20ju1bmcnsw9602ztr,6Kutlti4,2020-0188,2021-10-17,11:17:42,12:28:47,NA,incomplete,false,true,NA,5,26,NA,white,n_l_004.jpg,NA,NA,unpleasant,pleasant,NA,NA,NA,NA,NA,right,2424,true,NA,NA,NA,NA,NA
6Kutlti4,3e6l1vr4yzzg81jodkfak6sl8ztf6z,3zgvpd4g6xuu20ju1bmcnsw9602ztr,6Kutlti4,2020-0188,2021-10-17,11:17:42,12:28:47,NA,incomplete,false,true,NA,5,27,NA,white,n_s_002.jpg,NA,NA,unpleasant,pleasant,NA,NA,NA,NA,NA,right,1819,true,NA,NA,NA,NA,NA
6Kutlti4,3e6l1vr4yzzg81jodkfak6sl8ztf6z,3zgvpd4g6xuu20ju1bmcnsw9602ztr,6Kutlti4,2020-0188,2021-10-17,11:17:42,12:28:47,NA,incomplete,false,true,NA,5,28,NA,white,n_s_099.jpg,NA,NA,pleasant,unpleasant,NA,NA,NA,NA,NA,left,1544,true,NA,NA,NA,NA,NA
6Kutlti4,3e6l1vr4yzzg81jodkfak6sl8ztf6z,3zgvpd4g6xuu20ju1bmcnsw9602ztr,6Kutlti4,2020-0188,2021-10-17,11:17:42,12:28:47,NA,incomplete,false,true,NA,5,29,NA,white,m_s_070.jpg,NA,NA,pleasant,unpleasant,NA,NA,NA,NA,NA,left,2571,true,NA,NA,NA,NA,NA
6Kutlti4,3e6l1vr4yzzg81jodkfak6sl8ztf6z,3zgvpd4g6xuu20ju1bmcnsw9602ztr,6Kutlti4,2020-0188,2021-10-17,11:17:42,12:28:47,NA,incomplete,false,true,NA,5,30,NA,blue,m_s_059.jpg,NA,NA,pleasant,unpleasant,NA,NA,NA,NA,NA,none,0,false,NA,NA,NA,NA,NA
6Kutlti4,3e6l1vr4yzzg81jodkfak6sl8ztf6z,3zgvpd4g6xuu20ju1bmcnsw9602ztr,6Kutlti4,2020-0188,2021-10-17,11:17:42,12:28:47,NA,incomplete,false,true,NA,5,31,NA,blue,m_s_093.jpg,NA,NA,pleasant,unpleasant,NA,NA,NA,NA,NA,left,1397,true,NA,NA,NA,NA,NA
6Kutlti4,3e6l1vr4yzzg81jodkfak6sl8ztf6z,3zgvpd4g6xuu20ju1bmcnsw9602ztr,6Kutlti4,2020-0188,2021-10-17,11:17:42,12:28:47,NA,incomplete,false,true,NA,5,32,NA,blue,m_l_064.jpg,NA,NA,pleasant,unpleasant,NA,NA,NA,NA,NA,left,1340,true,NA,NA,NA,NA,NA
6Kutlti4,3e6l1vr4yzzg81jodkfak6sl8ztf6z,3zgvpd4g6xuu20ju1bmcnsw9602ztr,6Kutlti4,2020-0188,2021-10-17,11:17:42,12:28:47,NA,incomplete,false,true,NA,5,33,NA,blue,n_s_087.jpg,NA,NA,unpleasant,pleasant,NA,NA,NA,NA,NA,right,1634,true,NA,NA,NA,NA,NA
6Kutlti4,3e6l1vr4yzzg81jodkfak6sl8ztf6z,3zgvpd4g6xuu20ju1bmcnsw9602ztr,6Kutlti4,2020-0188,2021-10-17,11:17:42,12:28:47,NA,incomplete,false,true,NA,5,34,NA,blue,n_s_029.jpg,NA,NA,unpleasant,pleasant,NA,NA,NA,NA,NA,right,2809,true,NA,NA,NA,NA,NA
6Kutlti4,3e6l1vr4yzzg81jodkfak6sl8ztf6z,3zgvpd4g6xuu20ju1bmcnsw9602ztr,6Kutlti4,2020-0188,2021-10-17,11:17:42,12:28:47,NA,incomplete,false,true,NA,5,35,NA,blue,n_l_035.jpg,NA,NA,unpleasant,pleasant,NA,NA,NA,NA,NA,right,1925,true,NA,NA,NA,NA,NA
6Kutlti4,3e6l1vr4yzzg81jodkfak6sl8ztf6z,3zgvpd4g6xuu20ju1bmcnsw9602ztr,6Kutlti4,2020-0188,2021-10-17,11:17:42,12:28:47,NA,incomplete,false,NA,true,5,0,NA,NA,NA,right,absent,NA,NA,n_s_080.jpg,green,m_l_008.jpg,green,within,NA,NaN,NA,right,2256,1,1,2377
6Kutlti4,3e6l1vr4yzzg81jodkfak6sl8ztf6z,3zgvpd4g6xuu20ju1bmcnsw9602ztr,6Kutlti4,2020-0188,2021-10-17,11:17:42,12:28:47,NA,incomplete,false,NA,true,5,1,NA,NA,NA,left,absent,NA,NA,m_l_087.jpg,purple,n_s_101.jpg,purple,within,NA,NaN,NA,right,1678,0,1,1591
6Kutlti4,3e6l1vr4yzzg81jodkfak6sl8ztf6z,3zgvpd4g6xuu20ju1bmcnsw9602ztr,6Kutlti4,2020-0188,2021-10-17,11:17:42,12:28:47,NA,incomplete,false,NA,true,5,2,NA,NA,NA,right,absent,NA,NA,n_s_016.jpg,yellow,n_l_045.jpg,yellow,within,NA,NaN,NA,right,1696,1,1,1278
6Kutlti4,3e6l1vr4yzzg81jodkfak6sl8ztf6z,3zgvpd4g6xuu20ju1bmcnsw9602ztr,6Kutlti4,2020-0188,2021-10-17,11:17:42,12:28:47,NA,incomplete,false,NA,true,5,3,NA,NA,NA,left,absent,NA,NA,n_s_082.jpg,green,n_l_004.jpg,white,between,NA,NaN,NA,right,1439,0,1,1414
6Kutlti4,3e6l1vr4yzzg81jodkfak6sl8ztf6z,3zgvpd4g6xuu20ju1bmcnsw9602ztr,6Kutlti4,2020-0188,2021-10-17,11:17:42,12:28:47,NA,incomplete,false,NA,true,5,4,NA,NA,NA,left,absent,NA,NA,m_l_011.jpg,purple,n_s_115.jpg,brown,between,NA,NaN,NA,right,1432,0,1,1584
6Kutlti4,3e6l1vr4yzzg81jodkfak6sl8ztf6z,3zgvpd4g6xuu20ju1bmcnsw9602ztr,6Kutlti4,2020-0188,2021-10-17,11:17:42,12:28:47,NA,incomplete,false,NA,true,5,5,NA,NA,NA,right,absent,NA,NA,n_s_007.jpg,green,n_l_080.jpg,yellow,between,NA,NaN,NA,right,2015,1,1,1432
6Kutlti4,3e6l1vr4yzzg81jodkfak6sl8ztf6z,3zgvpd4g6xuu20ju1bmcnsw9602ztr,6Kutlti4,2020-0188,2021-10-17,11:17:42,12:28:47,NA,incomplete,false,NA,true,5,6,NA,NA,NA,left,absent,NA,NA,m_l_079.jpg,brown,m_l_047.jpg,yellow,between,NA,NaN,NA,right,1515,0,1,1789
6Kutlti4,3e6l1vr4yzzg81jodkfak6sl8ztf6z,3zgvpd4g6xuu20ju1bmcnsw9602ztr,6Kutlti4,2020-0188,2021-10-17,11:17:42,12:28:47,NA,incomplete,false,NA,true,5,7,NA,NA,NA,right,absent,NA,NA,m_s_070.jpg,white,m_s_114.jpg,white,within,NA,NaN,NA,right,1861,1,1,1438
6Kutlti4,3e6l1vr4yzzg81jodkfak6sl8ztf6z,3zgvpd4g6xuu20ju1bmcnsw9602ztr,6Kutlti4,2020-0188,2021-10-17,11:17:42,12:28:47,NA,incomplete,false,NA,true,5,8,NA,NA,NA,left,absent,NA,NA,m_s_033.jpg,brown,n_l_014.jpg,brown,within,NA,NaN,NA,right,1406,0,1,1736
6Kutlti4,3e6l1vr4yzzg81jodkfak6sl8ztf6z,3zgvpd4g6xuu20ju1bmcnsw9602ztr,6Kutlti4,2020-0188,2021-10-17,11:17:42,12:28:47,NA,incomplete,false,NA,true,5,9,NA,NA,NA,right,absent,NA,NA,n_l_035.jpg,blue,m_s_093.jpg,blue,within,NA,NaN,NA,right,1472,1,1,1615
6Kutlti4,3e6l1vr4yzzg81jodkfak6sl8ztf6z,3zgvpd4g6xuu20ju1bmcnsw9602ztr,6Kutlti4,2020-0188,2021-10-17,11:17:42,12:28:47,NA,incomplete,false,NA,true,5,10,NA,NA,NA,left,absent,NA,NA,n_s_099.jpg,white,m_l_064.jpg,blue,between,NA,NaN,NA,right,1445,0,1,2096
6Kutlti4,3e6l1vr4yzzg81jodkfak6sl8ztf6z,3zgvpd4g6xuu20ju1bmcnsw9602ztr,6Kutlti4,2020-0188,2021-10-17,11:17:42,12:28:47,NA,incomplete,false,true,NA,6,0,NA,green,n_l_098.jpg,NA,NA,pleasant,unpleasant,NA,NA,NA,NA,NA,left,2112,true,NA,NA,NA,NA,NA
6Kutlti4,3e6l1vr4yzzg81jodkfak6sl8ztf6z,3zgvpd4g6xuu20ju1bmcnsw9602ztr,6Kutlti4,2020-0188,2021-10-17,11:17:42,12:28:47,NA,incomplete,false,true,NA,6,1,NA,green,n_l_023.jpg,NA,NA,pleasant,unpleasant,NA,NA,NA,NA,NA,left,1322,true,NA,NA,NA,NA,NA
6Kutlti4,3e6l1vr4yzzg81jodkfak6sl8ztf6z,3zgvpd4g6xuu20ju1bmcnsw9602ztr,6Kutlti4,2020-0188,2021-10-17,11:17:42,12:28:47,NA,incomplete,false,true,NA,6,2,NA,green,n_s_037.jpg,NA,NA,pleasant,unpleasant,NA,NA,NA,NA,NA,left,1705,true,NA,NA,NA,NA,NA
6Kutlti4,3e6l1vr4yzzg81jodkfak6sl8ztf6z,3zgvpd4g6xuu20ju1bmcnsw9602ztr,6Kutlti4,2020-0188,2021-10-17,11:17:42,12:28:47,NA,incomplete,false,true,NA,6,3,NA,green,m_s_108.jpg,NA,NA,pleasant,unpleasant,NA,NA,NA,NA,NA,left,1639,true,NA,NA,NA,NA,NA
6Kutlti4,3e6l1vr4yzzg81jodkfak6sl8ztf6z,3zgvpd4g6xuu20ju1bmcnsw9602ztr,6Kutlti4,2020-0188,2021-10-17,11:17:42,12:28:47,NA,incomplete,false,true,NA,6,4,NA,green,n_l_020.jpg,NA,NA,unpleasant,pleasant,NA,NA,NA,NA,NA,right,1580,true,NA,NA,NA,NA,NA
6Kutlti4,3e6l1vr4yzzg81jodkfak6sl8ztf6z,3zgvpd4g6xuu20ju1bmcnsw9602ztr,6Kutlti4,2020-0188,2021-10-17,11:17:42,12:28:47,NA,incomplete,false,true,NA,6,5,NA,green,n_l_074.jpg,NA,NA,unpleasant,pleasant,NA,NA,NA,NA,NA,right,1356,true,NA,NA,NA,NA,NA
6Kutlti4,3e6l1vr4yzzg81jodkfak6sl8ztf6z,3zgvpd4g6xuu20ju1bmcnsw9602ztr,6Kutlti4,2020-0188,2021-10-17,11:17:42,12:28:47,NA,incomplete,false,true,NA,6,6,NA,brown,n_s_001.jpg,NA,NA,unpleasant,pleasant,NA,NA,NA,NA,NA,right,2013,true,NA,NA,NA,NA,NA
6Kutlti4,3e6l1vr4yzzg81jodkfak6sl8ztf6z,3zgvpd4g6xuu20ju1bmcnsw9602ztr,6Kutlti4,2020-0188,2021-10-17,11:17:42,12:28:47,NA,incomplete,false,true,NA,6,7,NA,brown,n_s_051.jpg,NA,NA,pleasant,unpleasant,NA,NA,NA,NA,NA,left,1913,true,NA,NA,NA,NA,NA
6Kutlti4,3e6l1vr4yzzg81jodkfak6sl8ztf6z,3zgvpd4g6xuu20ju1bmcnsw9602ztr,6Kutlti4,2020-0188,2021-10-17,11:17:42,12:28:47,NA,incomplete,false,true,NA,6,8,NA,brown,m_s_071.jpg,NA,NA,unpleasant,pleasant,NA,NA,NA,NA,NA,right,1632,true,NA,NA,NA,NA,NA
6Kutlti4,3e6l1vr4yzzg81jodkfak6sl8ztf6z,3zgvpd4g6xuu20ju1bmcnsw9602ztr,6Kutlti4,2020-0188,2021-10-17,11:17:42,12:28:47,NA,incomplete,false,true,NA,6,9,NA,brown,m_l_053.jpg,NA,NA,unpleasant,pleasant,NA,NA,NA,NA,NA,right,2440,true,NA,NA,NA,NA,NA
6Kutlti4,3e6l1vr4yzzg81jodkfak6sl8ztf6z,3zgvpd4g6xuu20ju1bmcnsw9602ztr,6Kutlti4,2020-0188,2021-10-17,11:17:42,12:28:47,NA,incomplete,false,true,NA,6,10,NA,brown,n_l_084.jpg,NA,NA,unpleasant,pleasant,NA,NA,NA,NA,NA,right,2661,true,NA,NA,NA,NA,NA
6Kutlti4,3e6l1vr4yzzg81jodkfak6sl8ztf6z,3zgvpd4g6xuu20ju1bmcnsw9602ztr,6Kutlti4,2020-0188,2021-10-17,11:17:42,12:28:47,NA,incomplete,false,true,NA,6,11,NA,brown,m_l_043.jpg,NA,NA,unpleasant,pleasant,NA,NA,NA,NA,NA,right,1506,true,NA,NA,NA,NA,NA
6Kutlti4,3e6l1vr4yzzg81jodkfak6sl8ztf6z,3zgvpd4g6xuu20ju1bmcnsw9602ztr,6Kutlti4,2020-0188,2021-10-17,11:17:42,12:28:47,NA,incomplete,false,true,NA,6,12,NA,white,n_l_009.jpg,NA,NA,unpleasant,pleasant,NA,NA,NA,NA,NA,right,1655,true,NA,NA,NA,NA,NA
6Kutlti4,3e6l1vr4yzzg81jodkfak6sl8ztf6z,3zgvpd4g6xuu20ju1bmcnsw9602ztr,6Kutlti4,2020-0188,2021-10-17,11:17:42,12:28:47,NA,incomplete,false,true,NA,6,13,NA,white,m_s_045.jpg,NA,NA,pleasant,unpleasant,NA,NA,NA,NA,NA,left,1509,true,NA,NA,NA,NA,NA
6Kutlti4,3e6l1vr4yzzg81jodkfak6sl8ztf6z,3zgvpd4g6xuu20ju1bmcnsw9602ztr,6Kutlti4,2020-0188,2021-10-17,11:17:42,12:28:47,NA,incomplete,false,true,NA,6,14,NA,white,n_l_018.jpg,NA,NA,pleasant,unpleasant,NA,NA,NA,NA,NA,left,1596,true,NA,NA,NA,NA,NA
6Kutlti4,3e6l1vr4yzzg81jodkfak6sl8ztf6z,3zgvpd4g6xuu20ju1bmcnsw9602ztr,6Kutlti4,2020-0188,2021-10-17,11:17:42,12:28:47,NA,incomplete,false,true,NA,6,15,NA,white,n_s_045.jpg,NA,NA,unpleasant,pleasant,NA,NA,NA,NA,NA,right,1623,true,NA,NA,NA,NA,NA
6Kutlti4,3e6l1vr4yzzg81jodkfak6sl8ztf6z,3zgvpd4g6xuu20ju1bmcnsw9602ztr,6Kutlti4,2020-0188,2021-10-17,11:17:42,12:28:47,NA,incomplete,false,true,NA,6,16,NA,white,m_s_063.jpg,NA,NA,unpleasant,pleasant,NA,NA,NA,NA,NA,right,1442,true,NA,NA,NA,NA,NA
6Kutlti4,3e6l1vr4yzzg81jodkfak6sl8ztf6z,3zgvpd4g6xuu20ju1bmcnsw9602ztr,6Kutlti4,2020-0188,2021-10-17,11:17:42,12:28:47,NA,incomplete,false,true,NA,6,17,NA,white,m_l_076.jpg,NA,NA,unpleasant,pleasant,NA,NA,NA,NA,NA,right,1316,true,NA,NA,NA,NA,NA
6Kutlti4,3e6l1vr4yzzg81jodkfak6sl8ztf6z,3zgvpd4g6xuu20ju1bmcnsw9602ztr,6Kutlti4,2020-0188,2021-10-17,11:17:42,12:28:47,NA,incomplete,false,true,NA,6,18,NA,purple,n_l_005.jpg,NA,NA,unpleasant,pleasant,NA,NA,NA,NA,NA,right,1276,true,NA,NA,NA,NA,NA
6Kutlti4,3e6l1vr4yzzg81jodkfak6sl8ztf6z,3zgvpd4g6xuu20ju1bmcnsw9602ztr,6Kutlti4,2020-0188,2021-10-17,11:17:42,12:28:47,NA,incomplete,false,true,NA,6,19,NA,purple,n_s_098.jpg,NA,NA,pleasant,unpleasant,NA,NA,NA,NA,NA,right,1606,true,NA,NA,NA,NA,NA
6Kutlti4,3e6l1vr4yzzg81jodkfak6sl8ztf6z,3zgvpd4g6xuu20ju1bmcnsw9602ztr,6Kutlti4,2020-0188,2021-10-17,11:17:42,12:28:47,NA,incomplete,false,true,NA,6,20,NA,purple,m_s_023.jpg,NA,NA,unpleasant,pleasant,NA,NA,NA,NA,NA,right,1551,true,NA,NA,NA,NA,NA
6Kutlti4,3e6l1vr4yzzg81jodkfak6sl8ztf6z,3zgvpd4g6xuu20ju1bmcnsw9602ztr,6Kutlti4,2020-0188,2021-10-17,11:17:42,12:28:47,NA,incomplete,false,true,NA,6,21,NA,purple,n_l_046.jpg,NA,NA,pleasant,unpleasant,NA,NA,NA,NA,NA,left,1645,true,NA,NA,NA,NA,NA
6Kutlti4,3e6l1vr4yzzg81jodkfak6sl8ztf6z,3zgvpd4g6xuu20ju1bmcnsw9602ztr,6Kutlti4,2020-0188,2021-10-17,11:17:42,12:28:47,NA,incomplete,false,true,NA,6,22,NA,purple,n_s_085.jpg,NA,NA,pleasant,unpleasant,NA,NA,NA,NA,NA,left,1484,true,NA,NA,NA,NA,NA
6Kutlti4,3e6l1vr4yzzg81jodkfak6sl8ztf6z,3zgvpd4g6xuu20ju1bmcnsw9602ztr,6Kutlti4,2020-0188,2021-10-17,11:17:42,12:28:47,NA,incomplete,false,true,NA,6,23,NA,purple,n_s_015.jpg,NA,NA,unpleasant,pleasant,NA,NA,NA,NA,NA,right,1668,true,NA,NA,NA,NA,NA
6Kutlti4,3e6l1vr4yzzg81jodkfak6sl8ztf6z,3zgvpd4g6xuu20ju1bmcnsw9602ztr,6Kutlti4,2020-0188,2021-10-17,11:17:42,12:28:47,NA,incomplete,false,true,NA,6,24,NA,gray,m_l_117.jpg,NA,NA,pleasant,unpleasant,NA,NA,NA,NA,NA,left,1472,true,NA,NA,NA,NA,NA
6Kutlti4,3e6l1vr4yzzg81jodkfak6sl8ztf6z,3zgvpd4g6xuu20ju1bmcnsw9602ztr,6Kutlti4,2020-0188,2021-10-17,11:17:42,12:28:47,NA,incomplete,false,true,NA,6,25,NA,gray,m_l_007.jpg,NA,NA,pleasant,unpleasant,NA,NA,NA,NA,NA,left,3265,true,NA,NA,NA,NA,NA
6Kutlti4,3e6l1vr4yzzg81jodkfak6sl8ztf6z,3zgvpd4g6xuu20ju1bmcnsw9602ztr,6Kutlti4,2020-0188,2021-10-17,11:17:42,12:28:47,NA,incomplete,false,true,NA,6,26,NA,gray,m_l_085.jpg,NA,NA,unpleasant,pleasant,NA,NA,NA,NA,NA,right,1542,true,NA,NA,NA,NA,NA
6Kutlti4,3e6l1vr4yzzg81jodkfak6sl8ztf6z,3zgvpd4g6xuu20ju1bmcnsw9602ztr,6Kutlti4,2020-0188,2021-10-17,11:17:42,12:28:47,NA,incomplete,false,true,NA,6,27,NA,gray,m_s_017.jpg,NA,NA,pleasant,unpleasant,NA,NA,NA,NA,NA,left,1436,true,NA,NA,NA,NA,NA
6Kutlti4,3e6l1vr4yzzg81jodkfak6sl8ztf6z,3zgvpd4g6xuu20ju1bmcnsw9602ztr,6Kutlti4,2020-0188,2021-10-17,11:17:42,12:28:47,NA,incomplete,false,true,NA,6,28,NA,gray,n_l_078.jpg,NA,NA,pleasant,unpleasant,NA,NA,NA,NA,NA,left,2094,true,NA,NA,NA,NA,NA
6Kutlti4,3e6l1vr4yzzg81jodkfak6sl8ztf6z,3zgvpd4g6xuu20ju1bmcnsw9602ztr,6Kutlti4,2020-0188,2021-10-17,11:17:42,12:28:47,NA,incomplete,false,true,NA,6,29,NA,gray,m_s_019.jpg,NA,NA,unpleasant,pleasant,NA,NA,NA,NA,NA,right,1540,true,NA,NA,NA,NA,NA
6Kutlti4,3e6l1vr4yzzg81jodkfak6sl8ztf6z,3zgvpd4g6xuu20ju1bmcnsw9602ztr,6Kutlti4,2020-0188,2021-10-17,11:17:42,12:28:47,NA,incomplete,false,true,NA,6,30,NA,yellow,n_l_066.jpg,NA,NA,unpleasant,pleasant,NA,NA,NA,NA,NA,right,1465,true,NA,NA,NA,NA,NA
6Kutlti4,3e6l1vr4yzzg81jodkfak6sl8ztf6z,3zgvpd4g6xuu20ju1bmcnsw9602ztr,6Kutlti4,2020-0188,2021-10-17,11:17:42,12:28:47,NA,incomplete,false,true,NA,6,31,NA,yellow,m_l_029.jpg,NA,NA,pleasant,unpleasant,NA,NA,NA,NA,NA,left,1446,true,NA,NA,NA,NA,NA
6Kutlti4,3e6l1vr4yzzg81jodkfak6sl8ztf6z,3zgvpd4g6xuu20ju1bmcnsw9602ztr,6Kutlti4,2020-0188,2021-10-17,11:17:42,12:28:47,NA,incomplete,false,true,NA,6,32,NA,yellow,m_l_058.jpg,NA,NA,pleasant,unpleasant,NA,NA,NA,NA,NA,left,1470,true,NA,NA,NA,NA,NA
6Kutlti4,3e6l1vr4yzzg81jodkfak6sl8ztf6z,3zgvpd4g6xuu20ju1bmcnsw9602ztr,6Kutlti4,2020-0188,2021-10-17,11:17:42,12:28:47,NA,incomplete,false,true,NA,6,33,NA,yellow,m_s_057.jpg,NA,NA,pleasant,unpleasant,NA,NA,NA,NA,NA,left,1357,true,NA,NA,NA,NA,NA
6Kutlti4,3e6l1vr4yzzg81jodkfak6sl8ztf6z,3zgvpd4g6xuu20ju1bmcnsw9602ztr,6Kutlti4,2020-0188,2021-10-17,11:17:42,12:28:47,NA,incomplete,false,true,NA,6,34,NA,yellow,n_s_027.jpg,NA,NA,pleasant,unpleasant,NA,NA,NA,NA,NA,right,1470,true,NA,NA,NA,NA,NA
6Kutlti4,3e6l1vr4yzzg81jodkfak6sl8ztf6z,3zgvpd4g6xuu20ju1bmcnsw9602ztr,6Kutlti4,2020-0188,2021-10-17,11:17:42,12:28:47,NA,incomplete,false,true,NA,6,35,NA,yellow,m_l_067.jpg,NA,NA,unpleasant,pleasant,NA,NA,NA,NA,NA,right,2352,true,NA,NA,NA,NA,NA
6Kutlti4,3e6l1vr4yzzg81jodkfak6sl8ztf6z,3zgvpd4g6xuu20ju1bmcnsw9602ztr,6Kutlti4,2020-0188,2021-10-17,11:17:42,12:28:47,NA,incomplete,false,NA,true,6,0,NA,NA,NA,right,present,NA,NA,m_l_076.jpg,white,m_s_045.jpg,white,within,NA,NaN,NA,right,1695,1,1,1941
6Kutlti4,3e6l1vr4yzzg81jodkfak6sl8ztf6z,3zgvpd4g6xuu20ju1bmcnsw9602ztr,6Kutlti4,2020-0188,2021-10-17,11:17:42,12:28:47,NA,incomplete,false,NA,true,6,1,NA,NA,NA,right,present,NA,NA,n_l_074.jpg,green,n_l_023.jpg,green,within,NA,NaN,NA,right,1691,1,1,1479
6Kutlti4,3e6l1vr4yzzg81jodkfak6sl8ztf6z,3zgvpd4g6xuu20ju1bmcnsw9602ztr,6Kutlti4,2020-0188,2021-10-17,11:17:42,12:28:47,NA,incomplete,false,NA,true,6,2,NA,NA,NA,left,present,NA,NA,n_s_051.jpg,brown,m_l_043.jpg,brown,within,NA,NaN,NA,right,1374,0,1,1552
6Kutlti4,3e6l1vr4yzzg81jodkfak6sl8ztf6z,3zgvpd4g6xuu20ju1bmcnsw9602ztr,6Kutlti4,2020-0188,2021-10-17,11:17:42,12:28:47,NA,incomplete,false,NA,true,6,3,NA,NA,NA,left,present,NA,NA,n_l_084.jpg,brown,n_l_018.jpg,white,between,NA,NaN,NA,right,1152,0,1,1836
6Kutlti4,3e6l1vr4yzzg81jodkfak6sl8ztf6z,3zgvpd4g6xuu20ju1bmcnsw9602ztr,6Kutlti4,2020-0188,2021-10-17,11:17:42,12:28:47,NA,incomplete,false,NA,true,6,4,NA,NA,NA,left,present,NA,NA,m_s_063.jpg,white,m_s_023.jpg,purple,between,NA,NaN,NA,right,1239,0,1,1351
6Kutlti4,3e6l1vr4yzzg81jodkfak6sl8ztf6z,3zgvpd4g6xuu20ju1bmcnsw9602ztr,6Kutlti4,2020-0188,2021-10-17,11:17:42,12:28:47,NA,incomplete,false,NA,true,6,5,NA,NA,NA,right,present,NA,NA,n_s_015.jpg,purple,n_s_098.jpg,purple,within,NA,NaN,NA,right,1334,1,1,1237
6Kutlti4,3e6l1vr4yzzg81jodkfak6sl8ztf6z,3zgvpd4g6xuu20ju1bmcnsw9602ztr,6Kutlti4,2020-0188,2021-10-17,11:17:42,12:28:47,NA,incomplete,false,NA,true,6,6,NA,NA,NA,right,present,NA,NA,m_l_085.jpg,gray,n_s_085.jpg,purple,between,NA,NaN,NA,right,1792,1,1,2501
6Kutlti4,3e6l1vr4yzzg81jodkfak6sl8ztf6z,3zgvpd4g6xuu20ju1bmcnsw9602ztr,6Kutlti4,2020-0188,2021-10-17,11:17:42,12:28:47,NA,incomplete,false,NA,true,6,7,NA,NA,NA,left,present,NA,NA,n_l_020.jpg,green,m_s_071.jpg,brown,between,NA,NaN,NA,right,1281,0,1,1585
6Kutlti4,3e6l1vr4yzzg81jodkfak6sl8ztf6z,3zgvpd4g6xuu20ju1bmcnsw9602ztr,6Kutlti4,2020-0188,2021-10-17,11:17:42,12:28:47,NA,incomplete,false,NA,true,6,8,NA,NA,NA,right,present,NA,NA,m_l_067.jpg,yellow,m_l_029.jpg,yellow,within,NA,NaN,NA,right,1366,1,1,1178
6Kutlti4,3e6l1vr4yzzg81jodkfak6sl8ztf6z,3zgvpd4g6xuu20ju1bmcnsw9602ztr,6Kutlti4,2020-0188,2021-10-17,11:17:42,12:28:47,NA,incomplete,false,NA,true,6,9,NA,NA,NA,left,present,NA,NA,n_l_078.jpg,gray,m_l_058.jpg,yellow,between,NA,NaN,NA,right,1604,0,1,1455
6Kutlti4,3e6l1vr4yzzg81jodkfak6sl8ztf6z,3zgvpd4g6xuu20ju1bmcnsw9602ztr,6Kutlti4,2020-0188,2021-10-17,11:17:42,12:28:47,NA,incomplete,false,NA,true,6,10,NA,NA,NA,left,present,NA,NA,m_l_007.jpg,gray,m_s_019.jpg,gray,within,NA,NaN,NA,right,1495,0,1,1502
6Kutlti4,3e6l1vr4yzzg81jodkfak6sl8ztf6z,3zgvpd4g6xuu20ju1bmcnsw9602ztr,6Kutlti4,2020-0188,2021-10-17,11:17:42,12:28:47,NA,incomplete,false,true,NA,7,0,NA,green,m_l_103.jpg,NA,NA,unpleasant,pleasant,NA,NA,NA,NA,NA,right,2018,true,NA,NA,NA,NA,NA
6Kutlti4,3e6l1vr4yzzg81jodkfak6sl8ztf6z,3zgvpd4g6xuu20ju1bmcnsw9602ztr,6Kutlti4,2020-0188,2021-10-17,11:17:42,12:28:47,NA,incomplete,false,true,NA,7,1,NA,green,m_l_099.jpg,NA,NA,pleasant,unpleasant,NA,NA,NA,NA,NA,left,2415,true,NA,NA,NA,NA,NA
6Kutlti4,3e6l1vr4yzzg81jodkfak6sl8ztf6z,3zgvpd4g6xuu20ju1bmcnsw9602ztr,6Kutlti4,2020-0188,2021-10-17,11:17:42,12:28:47,NA,incomplete,false,true,NA,7,2,NA,green,n_s_094.jpg,NA,NA,unpleasant,pleasant,NA,NA,NA,NA,NA,right,1683,true,NA,NA,NA,NA,NA
6Kutlti4,3e6l1vr4yzzg81jodkfak6sl8ztf6z,3zgvpd4g6xuu20ju1bmcnsw9602ztr,6Kutlti4,2020-0188,2021-10-17,11:17:42,12:28:47,NA,incomplete,false,true,NA,7,3,NA,green,n_s_042.jpg,NA,NA,pleasant,unpleasant,NA,NA,NA,NA,NA,left,2551,true,NA,NA,NA,NA,NA
6Kutlti4,3e6l1vr4yzzg81jodkfak6sl8ztf6z,3zgvpd4g6xuu20ju1bmcnsw9602ztr,6Kutlti4,2020-0188,2021-10-17,11:17:42,12:28:47,NA,incomplete,false,true,NA,7,4,NA,green,n_s_102.jpg,NA,NA,pleasant,unpleasant,NA,NA,NA,NA,NA,left,1908,true,NA,NA,NA,NA,NA
6Kutlti4,3e6l1vr4yzzg81jodkfak6sl8ztf6z,3zgvpd4g6xuu20ju1bmcnsw9602ztr,6Kutlti4,2020-0188,2021-10-17,11:17:42,12:28:47,NA,incomplete,false,true,NA,7,5,NA,green,m_s_032.jpg,NA,NA,unpleasant,pleasant,NA,NA,NA,NA,NA,right,1884,true,NA,NA,NA,NA,NA
6Kutlti4,3e6l1vr4yzzg81jodkfak6sl8ztf6z,3zgvpd4g6xuu20ju1bmcnsw9602ztr,6Kutlti4,2020-0188,2021-10-17,11:17:42,12:28:47,NA,incomplete,false,true,NA,7,6,NA,white,m_l_036.jpg,NA,NA,unpleasant,pleasant,NA,NA,NA,NA,NA,right,1706,true,NA,NA,NA,NA,NA
6Kutlti4,3e6l1vr4yzzg81jodkfak6sl8ztf6z,3zgvpd4g6xuu20ju1bmcnsw9602ztr,6Kutlti4,2020-0188,2021-10-17,11:17:42,12:28:47,NA,incomplete,false,true,NA,7,7,NA,white,n_s_100.jpg,NA,NA,unpleasant,pleasant,NA,NA,NA,NA,NA,right,2066,true,NA,NA,NA,NA,NA
6Kutlti4,3e6l1vr4yzzg81jodkfak6sl8ztf6z,3zgvpd4g6xuu20ju1bmcnsw9602ztr,6Kutlti4,2020-0188,2021-10-17,11:17:42,12:28:47,NA,incomplete,false,true,NA,7,8,NA,white,n_s_009.jpg,NA,NA,pleasant,unpleasant,NA,NA,NA,NA,NA,left,1555,true,NA,NA,NA,NA,NA
6Kutlti4,3e6l1vr4yzzg81jodkfak6sl8ztf6z,3zgvpd4g6xuu20ju1bmcnsw9602ztr,6Kutlti4,2020-0188,2021-10-17,11:17:42,12:28:47,NA,incomplete,false,true,NA,7,9,NA,white,n_s_117.jpg,NA,NA,pleasant,unpleasant,NA,NA,NA,NA,NA,right,1627,true,NA,NA,NA,NA,NA
6Kutlti4,3e6l1vr4yzzg81jodkfak6sl8ztf6z,3zgvpd4g6xuu20ju1bmcnsw9602ztr,6Kutlti4,2020-0188,2021-10-17,11:17:42,12:28:47,NA,incomplete,false,true,NA,7,10,NA,white,m_l_071.jpg,NA,NA,pleasant,unpleasant,NA,NA,NA,NA,NA,left,2476,true,NA,NA,NA,NA,NA
6Kutlti4,3e6l1vr4yzzg81jodkfak6sl8ztf6z,3zgvpd4g6xuu20ju1bmcnsw9602ztr,6Kutlti4,2020-0188,2021-10-17,11:17:42,12:28:47,NA,incomplete,false,true,NA,7,11,NA,white,n_l_093.jpg,NA,NA,unpleasant,pleasant,NA,NA,NA,NA,NA,left,1585,true,NA,NA,NA,NA,NA
6Kutlti4,3e6l1vr4yzzg81jodkfak6sl8ztf6z,3zgvpd4g6xuu20ju1bmcnsw9602ztr,6Kutlti4,2020-0188,2021-10-17,11:17:42,12:28:47,NA,incomplete,false,true,NA,7,12,NA,blue,m_l_065.jpg,NA,NA,unpleasant,pleasant,NA,NA,NA,NA,NA,right,1903,true,NA,NA,NA,NA,NA
6Kutlti4,3e6l1vr4yzzg81jodkfak6sl8ztf6z,3zgvpd4g6xuu20ju1bmcnsw9602ztr,6Kutlti4,2020-0188,2021-10-17,11:17:42,12:28:47,NA,incomplete,false,true,NA,7,13,NA,blue,n_l_003.jpg,NA,NA,pleasant,unpleasant,NA,NA,NA,NA,NA,left,1442,true,NA,NA,NA,NA,NA
6Kutlti4,3e6l1vr4yzzg81jodkfak6sl8ztf6z,3zgvpd4g6xuu20ju1bmcnsw9602ztr,6Kutlti4,2020-0188,2021-10-17,11:17:42,12:28:47,NA,incomplete,false,true,NA,7,14,NA,blue,n_l_011.jpg,NA,NA,pleasant,unpleasant,NA,NA,NA,NA,NA,right,1547,true,NA,NA,NA,NA,NA
6Kutlti4,3e6l1vr4yzzg81jodkfak6sl8ztf6z,3zgvpd4g6xuu20ju1bmcnsw9602ztr,6Kutlti4,2020-0188,2021-10-17,11:17:42,12:28:47,NA,incomplete,false,true,NA,7,15,NA,blue,m_l_041.jpg,NA,NA,pleasant,unpleasant,NA,NA,NA,NA,NA,left,2603,true,NA,NA,NA,NA,NA
6Kutlti4,3e6l1vr4yzzg81jodkfak6sl8ztf6z,3zgvpd4g6xuu20ju1bmcnsw9602ztr,6Kutlti4,2020-0188,2021-10-17,11:17:42,12:28:47,NA,incomplete,false,true,NA,7,16,NA,blue,m_s_005.jpg,NA,NA,pleasant,unpleasant,NA,NA,NA,NA,NA,left,2222,true,NA,NA,NA,NA,NA
6Kutlti4,3e6l1vr4yzzg81jodkfak6sl8ztf6z,3zgvpd4g6xuu20ju1bmcnsw9602ztr,6Kutlti4,2020-0188,2021-10-17,11:17:42,12:28:47,NA,incomplete,false,true,NA,7,17,NA,blue,m_l_009.jpg,NA,NA,unpleasant,pleasant,NA,NA,NA,NA,NA,right,1666,true,NA,NA,NA,NA,NA
6Kutlti4,3e6l1vr4yzzg81jodkfak6sl8ztf6z,3zgvpd4g6xuu20ju1bmcnsw9602ztr,6Kutlti4,2020-0188,2021-10-17,11:17:42,12:28:47,NA,incomplete,false,true,NA,7,18,NA,orange,m_s_116.jpg,NA,NA,pleasant,unpleasant,NA,NA,NA,NA,NA,left,2664,true,NA,NA,NA,NA,NA
6Kutlti4,3e6l1vr4yzzg81jodkfak6sl8ztf6z,3zgvpd4g6xuu20ju1bmcnsw9602ztr,6Kutlti4,2020-0188,2021-10-17,11:17:42,12:28:47,NA,incomplete,false,true,NA,7,19,NA,orange,m_l_097.jpg,NA,NA,pleasant,unpleasant,NA,NA,NA,NA,NA,left,1470,true,NA,NA,NA,NA,NA
6Kutlti4,3e6l1vr4yzzg81jodkfak6sl8ztf6z,3zgvpd4g6xuu20ju1bmcnsw9602ztr,6Kutlti4,2020-0188,2021-10-17,11:17:42,12:28:47,NA,incomplete,false,true,NA,7,20,NA,orange,n_l_047.jpg,NA,NA,unpleasant,pleasant,NA,NA,NA,NA,NA,left,1589,true,NA,NA,NA,NA,NA
6Kutlti4,3e6l1vr4yzzg81jodkfak6sl8ztf6z,3zgvpd4g6xuu20ju1bmcnsw9602ztr,6Kutlti4,2020-0188,2021-10-17,11:17:42,12:28:47,NA,incomplete,false,true,NA,7,21,NA,orange,n_l_067.jpg,NA,NA,unpleasant,pleasant,NA,NA,NA,NA,NA,left,1997,true,NA,NA,NA,NA,NA
6Kutlti4,3e6l1vr4yzzg81jodkfak6sl8ztf6z,3zgvpd4g6xuu20ju1bmcnsw9602ztr,6Kutlti4,2020-0188,2021-10-17,11:17:42,12:28:47,NA,incomplete,false,true,NA,7,22,NA,orange,m_s_061.jpg,NA,NA,unpleasant,pleasant,NA,NA,NA,NA,NA,right,1587,true,NA,NA,NA,NA,NA
6Kutlti4,3e6l1vr4yzzg81jodkfak6sl8ztf6z,3zgvpd4g6xuu20ju1bmcnsw9602ztr,6Kutlti4,2020-0188,2021-10-17,11:17:42,12:28:47,NA,incomplete,false,true,NA,7,23,NA,orange,n_s_059.jpg,NA,NA,unpleasant,pleasant,NA,NA,NA,NA,NA,right,2531,true,NA,NA,NA,NA,NA
6Kutlti4,3e6l1vr4yzzg81jodkfak6sl8ztf6z,3zgvpd4g6xuu20ju1bmcnsw9602ztr,6Kutlti4,2020-0188,2021-10-17,11:17:42,12:28:47,NA,incomplete,false,true,NA,7,24,NA,gray,m_l_081.jpg,NA,NA,unpleasant,pleasant,NA,NA,NA,NA,NA,right,1552,true,NA,NA,NA,NA,NA
6Kutlti4,3e6l1vr4yzzg81jodkfak6sl8ztf6z,3zgvpd4g6xuu20ju1bmcnsw9602ztr,6Kutlti4,2020-0188,2021-10-17,11:17:42,12:28:47,NA,incomplete,false,true,NA,7,25,NA,gray,n_l_031.jpg,NA,NA,unpleasant,pleasant,NA,NA,NA,NA,NA,right,1412,true,NA,NA,NA,NA,NA
6Kutlti4,3e6l1vr4yzzg81jodkfak6sl8ztf6z,3zgvpd4g6xuu20ju1bmcnsw9602ztr,6Kutlti4,2020-0188,2021-10-17,11:17:42,12:28:47,NA,incomplete,false,true,NA,7,26,NA,gray,m_s_028.jpg,NA,NA,pleasant,unpleasant,NA,NA,NA,NA,NA,left,1588,true,NA,NA,NA,NA,NA
6Kutlti4,3e6l1vr4yzzg81jodkfak6sl8ztf6z,3zgvpd4g6xuu20ju1bmcnsw9602ztr,6Kutlti4,2020-0188,2021-10-17,11:17:42,12:28:47,NA,incomplete,false,true,NA,7,27,NA,gray,n_s_108.jpg,NA,NA,pleasant,unpleasant,NA,NA,NA,NA,NA,right,1880,true,NA,NA,NA,NA,NA
6Kutlti4,3e6l1vr4yzzg81jodkfak6sl8ztf6z,3zgvpd4g6xuu20ju1bmcnsw9602ztr,6Kutlti4,2020-0188,2021-10-17,11:17:42,12:28:47,NA,incomplete,false,true,NA,7,28,NA,gray,m_s_074.jpg,NA,NA,pleasant,unpleasant,NA,NA,NA,NA,NA,left,1628,true,NA,NA,NA,NA,NA
6Kutlti4,3e6l1vr4yzzg81jodkfak6sl8ztf6z,3zgvpd4g6xuu20ju1bmcnsw9602ztr,6Kutlti4,2020-0188,2021-10-17,11:17:42,12:28:47,NA,incomplete,false,true,NA,7,29,NA,gray,m_s_041.jpg,NA,NA,pleasant,unpleasant,NA,NA,NA,NA,NA,left,2528,true,NA,NA,NA,NA,NA
6Kutlti4,3e6l1vr4yzzg81jodkfak6sl8ztf6z,3zgvpd4g6xuu20ju1bmcnsw9602ztr,6Kutlti4,2020-0188,2021-10-17,11:17:42,12:28:47,NA,incomplete,false,true,NA,7,30,NA,purple,m_l_102.jpg,NA,NA,pleasant,unpleasant,NA,NA,NA,NA,NA,left,1508,true,NA,NA,NA,NA,NA
6Kutlti4,3e6l1vr4yzzg81jodkfak6sl8ztf6z,3zgvpd4g6xuu20ju1bmcnsw9602ztr,6Kutlti4,2020-0188,2021-10-17,11:17:42,12:28:47,NA,incomplete,false,true,NA,7,31,NA,purple,m_s_054.jpg,NA,NA,unpleasant,pleasant,NA,NA,NA,NA,NA,left,1946,true,NA,NA,NA,NA,NA
6Kutlti4,3e6l1vr4yzzg81jodkfak6sl8ztf6z,3zgvpd4g6xuu20ju1bmcnsw9602ztr,6Kutlti4,2020-0188,2021-10-17,11:17:42,12:28:47,NA,incomplete,false,true,NA,7,32,NA,purple,n_l_089.jpg,NA,NA,unpleasant,pleasant,NA,NA,NA,NA,NA,right,1916,true,NA,NA,NA,NA,NA
6Kutlti4,3e6l1vr4yzzg81jodkfak6sl8ztf6z,3zgvpd4g6xuu20ju1bmcnsw9602ztr,6Kutlti4,2020-0188,2021-10-17,11:17:42,12:28:47,NA,incomplete,false,true,NA,7,33,NA,purple,n_s_083.jpg,NA,NA,unpleasant,pleasant,NA,NA,NA,NA,NA,right,1947,true,NA,NA,NA,NA,NA
6Kutlti4,3e6l1vr4yzzg81jodkfak6sl8ztf6z,3zgvpd4g6xuu20ju1bmcnsw9602ztr,6Kutlti4,2020-0188,2021-10-17,11:17:42,12:28:47,NA,incomplete,false,true,NA,7,34,NA,purple,m_s_055.jpg,NA,NA,pleasant,unpleasant,NA,NA,NA,NA,NA,left,2561,true,NA,NA,NA,NA,NA
6Kutlti4,3e6l1vr4yzzg81jodkfak6sl8ztf6z,3zgvpd4g6xuu20ju1bmcnsw9602ztr,6Kutlti4,2020-0188,2021-10-17,11:17:42,12:28:47,NA,incomplete,false,true,NA,7,35,NA,purple,n_s_044.jpg,NA,NA,unpleasant,pleasant,NA,NA,NA,NA,NA,right,2041,true,NA,NA,NA,NA,NA
6Kutlti4,3e6l1vr4yzzg81jodkfak6sl8ztf6z,3zgvpd4g6xuu20ju1bmcnsw9602ztr,6Kutlti4,2020-0188,2021-10-17,11:17:42,12:28:47,NA,incomplete,false,NA,true,7,0,NA,NA,NA,left,present,NA,NA,n_l_003.jpg,blue,m_l_009.jpg,blue,within,NA,NaN,NA,right,1726,0,1,1711
6Kutlti4,3e6l1vr4yzzg81jodkfak6sl8ztf6z,3zgvpd4g6xuu20ju1bmcnsw9602ztr,6Kutlti4,2020-0188,2021-10-17,11:17:42,12:28:47,NA,incomplete,false,NA,true,7,1,NA,NA,NA,right,present,NA,NA,m_s_032.jpg,green,m_l_099.jpg,green,within,NA,NaN,NA,right,1456,1,1,1276
6Kutlti4,3e6l1vr4yzzg81jodkfak6sl8ztf6z,3zgvpd4g6xuu20ju1bmcnsw9602ztr,6Kutlti4,2020-0188,2021-10-17,11:17:42,12:28:47,NA,incomplete,false,NA,true,7,2,NA,NA,NA,left,present,NA,NA,n_s_102.jpg,green,n_s_009.jpg,white,between,NA,NaN,NA,right,1255,0,1,1189
6Kutlti4,3e6l1vr4yzzg81jodkfak6sl8ztf6z,3zgvpd4g6xuu20ju1bmcnsw9602ztr,6Kutlti4,2020-0188,2021-10-17,11:17:42,12:28:47,NA,incomplete,false,NA,true,7,3,NA,NA,NA,left,present,NA,NA,n_l_031.jpg,gray,m_s_041.jpg,gray,within,NA,NaN,NA,right,1109,0,1,1531
6Kutlti4,3e6l1vr4yzzg81jodkfak6sl8ztf6z,3zgvpd4g6xuu20ju1bmcnsw9602ztr,6Kutlti4,2020-0188,2021-10-17,11:17:42,12:28:47,NA,incomplete,false,NA,true,7,4,NA,NA,NA,left,present,NA,NA,m_l_071.jpg,white,n_l_011.jpg,blue,between,NA,NaN,NA,right,1671,0,1,1205
6Kutlti4,3e6l1vr4yzzg81jodkfak6sl8ztf6z,3zgvpd4g6xuu20ju1bmcnsw9602ztr,6Kutlti4,2020-0188,2021-10-17,11:17:42,12:28:47,NA,incomplete,false,NA,true,7,5,NA,NA,NA,left,present,NA,NA,m_s_005.jpg,blue,n_l_047.jpg,orange,between,NA,NaN,NA,right,1308,0,1,1381
6Kutlti4,3e6l1vr4yzzg81jodkfak6sl8ztf6z,3zgvpd4g6xuu20ju1bmcnsw9602ztr,6Kutlti4,2020-0188,2021-10-17,11:17:42,12:28:47,NA,incomplete,false,NA,true,7,6,NA,NA,NA,right,present,NA,NA,m_s_028.jpg,gray,m_s_061.jpg,orange,between,NA,NaN,NA,right,1097,1,1,1432
6Kutlti4,3e6l1vr4yzzg81jodkfak6sl8ztf6z,3zgvpd4g6xuu20ju1bmcnsw9602ztr,6Kutlti4,2020-0188,2021-10-17,11:17:42,12:28:47,NA,incomplete,false,NA,true,7,7,NA,NA,NA,left,present,NA,NA,n_s_100.jpg,white,n_l_093.jpg,white,within,NA,NaN,NA,right,1423,0,1,1613
6Kutlti4,3e6l1vr4yzzg81jodkfak6sl8ztf6z,3zgvpd4g6xuu20ju1bmcnsw9602ztr,6Kutlti4,2020-0188,2021-10-17,11:17:42,12:28:47,NA,incomplete,false,NA,true,7,8,NA,NA,NA,right,present,NA,NA,n_l_089.jpg,purple,m_s_074.jpg,gray,between,NA,NaN,NA,right,1589,1,1,1573
6Kutlti4,3e6l1vr4yzzg81jodkfak6sl8ztf6z,3zgvpd4g6xuu20ju1bmcnsw9602ztr,6Kutlti4,2020-0188,2021-10-17,11:17:42,12:28:47,NA,incomplete,false,NA,true,7,9,NA,NA,NA,right,present,NA,NA,n_s_059.jpg,orange,m_l_097.jpg,orange,within,NA,NaN,NA,right,1318,1,1,1224
6Kutlti4,3e6l1vr4yzzg81jodkfak6sl8ztf6z,3zgvpd4g6xuu20ju1bmcnsw9602ztr,6Kutlti4,2020-0188,2021-10-17,11:17:42,12:28:47,NA,incomplete,false,NA,true,7,10,NA,NA,NA,right,present,NA,NA,n_s_044.jpg,purple,m_s_054.jpg,purple,within,NA,NaN,NA,right,1742,1,1,1421
6Kutlti4,3e6l1vr4yzzg81jodkfak6sl8ztf6z,3zgvpd4g6xuu20ju1bmcnsw9602ztr,6Kutlti4,2020-0188,2021-10-17,11:17:42,12:28:47,NA,incomplete,false,true,NA,8,0,NA,brown,m_l_096.jpg,NA,NA,pleasant,unpleasant,NA,NA,NA,NA,NA,left,3238,true,NA,NA,NA,NA,NA
6Kutlti4,3e6l1vr4yzzg81jodkfak6sl8ztf6z,3zgvpd4g6xuu20ju1bmcnsw9602ztr,6Kutlti4,2020-0188,2021-10-17,11:17:42,12:28:47,NA,incomplete,false,true,NA,8,1,NA,brown,m_l_006.jpg,NA,NA,pleasant,unpleasant,NA,NA,NA,NA,NA,left,1459,true,NA,NA,NA,NA,NA
6Kutlti4,3e6l1vr4yzzg81jodkfak6sl8ztf6z,3zgvpd4g6xuu20ju1bmcnsw9602ztr,6Kutlti4,2020-0188,2021-10-17,11:17:42,12:28:47,NA,incomplete,false,true,NA,8,2,NA,brown,n_l_007.jpg,NA,NA,pleasant,unpleasant,NA,NA,NA,NA,NA,left,1491,true,NA,NA,NA,NA,NA
6Kutlti4,3e6l1vr4yzzg81jodkfak6sl8ztf6z,3zgvpd4g6xuu20ju1bmcnsw9602ztr,6Kutlti4,2020-0188,2021-10-17,11:17:42,12:28:47,NA,incomplete,false,true,NA,8,3,NA,brown,m_l_051.jpg,NA,NA,pleasant,unpleasant,NA,NA,NA,NA,NA,left,1318,true,NA,NA,NA,NA,NA
6Kutlti4,3e6l1vr4yzzg81jodkfak6sl8ztf6z,3zgvpd4g6xuu20ju1bmcnsw9602ztr,6Kutlti4,2020-0188,2021-10-17,11:17:42,12:28:47,NA,incomplete,false,true,NA,8,4,NA,brown,m_l_037.jpg,NA,NA,pleasant,unpleasant,NA,NA,NA,NA,NA,left,1880,true,NA,NA,NA,NA,NA
6Kutlti4,3e6l1vr4yzzg81jodkfak6sl8ztf6z,3zgvpd4g6xuu20ju1bmcnsw9602ztr,6Kutlti4,2020-0188,2021-10-17,11:17:42,12:28:47,NA,incomplete,false,true,NA,8,5,NA,brown,n_s_068.jpg,NA,NA,pleasant,unpleasant,NA,NA,NA,NA,NA,left,1318,true,NA,NA,NA,NA,NA
6Kutlti4,3e6l1vr4yzzg81jodkfak6sl8ztf6z,3zgvpd4g6xuu20ju1bmcnsw9602ztr,6Kutlti4,2020-0188,2021-10-17,11:17:42,12:28:47,NA,incomplete,false,true,NA,8,6,NA,purple,n_s_079.jpg,NA,NA,unpleasant,pleasant,NA,NA,NA,NA,NA,right,1820,true,NA,NA,NA,NA,NA
6Kutlti4,3e6l1vr4yzzg81jodkfak6sl8ztf6z,3zgvpd4g6xuu20ju1bmcnsw9602ztr,6Kutlti4,2020-0188,2021-10-17,11:17:42,12:28:47,NA,incomplete,false,true,NA,8,7,NA,purple,m_s_006.jpg,NA,NA,pleasant,unpleasant,NA,NA,NA,NA,NA,none,0,false,NA,NA,NA,NA,NA
6Kutlti4,3e6l1vr4yzzg81jodkfak6sl8ztf6z,3zgvpd4g6xuu20ju1bmcnsw9602ztr,6Kutlti4,2020-0188,2021-10-17,11:17:42,12:28:47,NA,incomplete,false,true,NA,8,8,NA,purple,m_s_082.jpg,NA,NA,pleasant,unpleasant,NA,NA,NA,NA,NA,left,2117,true,NA,NA,NA,NA,NA
6Kutlti4,3e6l1vr4yzzg81jodkfak6sl8ztf6z,3zgvpd4g6xuu20ju1bmcnsw9602ztr,6Kutlti4,2020-0188,2021-10-17,11:17:42,12:28:47,NA,incomplete,false,true,NA,8,9,NA,purple,m_s_002.jpg,NA,NA,pleasant,unpleasant,NA,NA,NA,NA,NA,left,1607,true,NA,NA,NA,NA,NA
6Kutlti4,3e6l1vr4yzzg81jodkfak6sl8ztf6z,3zgvpd4g6xuu20ju1bmcnsw9602ztr,6Kutlti4,2020-0188,2021-10-17,11:17:42,12:28:47,NA,incomplete,false,true,NA,8,10,NA,purple,m_l_042.jpg,NA,NA,pleasant,unpleasant,NA,NA,NA,NA,NA,left,1360,true,NA,NA,NA,NA,NA
6Kutlti4,3e6l1vr4yzzg81jodkfak6sl8ztf6z,3zgvpd4g6xuu20ju1bmcnsw9602ztr,6Kutlti4,2020-0188,2021-10-17,11:17:42,12:28:47,NA,incomplete,false,true,NA,8,11,NA,purple,n_s_025.jpg,NA,NA,unpleasant,pleasant,NA,NA,NA,NA,NA,left,1547,true,NA,NA,NA,NA,NA
6Kutlti4,3e6l1vr4yzzg81jodkfak6sl8ztf6z,3zgvpd4g6xuu20ju1bmcnsw9602ztr,6Kutlti4,2020-0188,2021-10-17,11:17:42,12:28:47,NA,incomplete,false,true,NA,8,12,NA,white,m_l_048.jpg,NA,NA,unpleasant,pleasant,NA,NA,NA,NA,NA,right,1596,true,NA,NA,NA,NA,NA
6Kutlti4,3e6l1vr4yzzg81jodkfak6sl8ztf6z,3zgvpd4g6xuu20ju1bmcnsw9602ztr,6Kutlti4,2020-0188,2021-10-17,11:17:42,12:28:47,NA,incomplete,false,true,NA,8,13,NA,white,n_l_026.jpg,NA,NA,pleasant,unpleasant,NA,NA,NA,NA,NA,left,1408,true,NA,NA,NA,NA,NA
6Kutlti4,3e6l1vr4yzzg81jodkfak6sl8ztf6z,3zgvpd4g6xuu20ju1bmcnsw9602ztr,6Kutlti4,2020-0188,2021-10-17,11:17:42,12:28:47,NA,incomplete,false,true,NA,8,14,NA,white,m_s_097.jpg,NA,NA,pleasant,unpleasant,NA,NA,NA,NA,NA,right,1598,true,NA,NA,NA,NA,NA
6Kutlti4,3e6l1vr4yzzg81jodkfak6sl8ztf6z,3zgvpd4g6xuu20ju1bmcnsw9602ztr,6Kutlti4,2020-0188,2021-10-17,11:17:42,12:28:47,NA,incomplete,false,true,NA,8,15,NA,white,n_s_014.jpg,NA,NA,pleasant,unpleasant,NA,NA,NA,NA,NA,left,1887,true,NA,NA,NA,NA,NA
6Kutlti4,3e6l1vr4yzzg81jodkfak6sl8ztf6z,3zgvpd4g6xuu20ju1bmcnsw9602ztr,6Kutlti4,2020-0188,2021-10-17,11:17:42,12:28:47,NA,incomplete,false,true,NA,8,16,NA,white,m_s_027.jpg,NA,NA,unpleasant,pleasant,NA,NA,NA,NA,NA,right,1587,true,NA,NA,NA,NA,NA
6Kutlti4,3e6l1vr4yzzg81jodkfak6sl8ztf6z,3zgvpd4g6xuu20ju1bmcnsw9602ztr,6Kutlti4,2020-0188,2021-10-17,11:17:42,12:28:47,NA,incomplete,false,true,NA,8,17,NA,white,m_s_052.jpg,NA,NA,unpleasant,pleasant,NA,NA,NA,NA,NA,right,1343,true,NA,NA,NA,NA,NA
6Kutlti4,3e6l1vr4yzzg81jodkfak6sl8ztf6z,3zgvpd4g6xuu20ju1bmcnsw9602ztr,6Kutlti4,2020-0188,2021-10-17,11:17:42,12:28:47,NA,incomplete,false,true,NA,8,18,NA,orange,m_l_024.jpg,NA,NA,unpleasant,pleasant,NA,NA,NA,NA,NA,right,1458,true,NA,NA,NA,NA,NA
6Kutlti4,3e6l1vr4yzzg81jodkfak6sl8ztf6z,3zgvpd4g6xuu20ju1bmcnsw9602ztr,6Kutlti4,2020-0188,2021-10-17,11:17:42,12:28:47,NA,incomplete,false,true,NA,8,19,NA,orange,n_s_075.jpg,NA,NA,unpleasant,pleasant,NA,NA,NA,NA,NA,left,2015,true,NA,NA,NA,NA,NA
6Kutlti4,3e6l1vr4yzzg81jodkfak6sl8ztf6z,3zgvpd4g6xuu20ju1bmcnsw9602ztr,6Kutlti4,2020-0188,2021-10-17,11:17:42,12:28:47,NA,incomplete,false,true,NA,8,20,NA,orange,n_l_040.jpg,NA,NA,unpleasant,pleasant,NA,NA,NA,NA,NA,left,1523,true,NA,NA,NA,NA,NA
6Kutlti4,3e6l1vr4yzzg81jodkfak6sl8ztf6z,3zgvpd4g6xuu20ju1bmcnsw9602ztr,6Kutlti4,2020-0188,2021-10-17,11:17:42,12:28:47,NA,incomplete,false,true,NA,8,21,NA,orange,n_l_112.jpg,NA,NA,pleasant,unpleasant,NA,NA,NA,NA,NA,right,2443,true,NA,NA,NA,NA,NA
6Kutlti4,3e6l1vr4yzzg81jodkfak6sl8ztf6z,3zgvpd4g6xuu20ju1bmcnsw9602ztr,6Kutlti4,2020-0188,2021-10-17,11:17:42,12:28:47,NA,incomplete,false,true,NA,8,22,NA,orange,n_s_106.jpg,NA,NA,unpleasant,pleasant,NA,NA,NA,NA,NA,right,1364,true,NA,NA,NA,NA,NA
6Kutlti4,3e6l1vr4yzzg81jodkfak6sl8ztf6z,3zgvpd4g6xuu20ju1bmcnsw9602ztr,6Kutlti4,2020-0188,2021-10-17,11:17:42,12:28:47,NA,incomplete,false,true,NA,8,23,NA,orange,n_s_024.jpg,NA,NA,pleasant,unpleasant,NA,NA,NA,NA,NA,left,1426,true,NA,NA,NA,NA,NA
6Kutlti4,3e6l1vr4yzzg81jodkfak6sl8ztf6z,3zgvpd4g6xuu20ju1bmcnsw9602ztr,6Kutlti4,2020-0188,2021-10-17,11:17:42,12:28:47,NA,incomplete,false,true,NA,8,24,NA,red,n_l_034.jpg,NA,NA,unpleasant,pleasant,NA,NA,NA,NA,NA,left,1468,true,NA,NA,NA,NA,NA
6Kutlti4,3e6l1vr4yzzg81jodkfak6sl8ztf6z,3zgvpd4g6xuu20ju1bmcnsw9602ztr,6Kutlti4,2020-0188,2021-10-17,11:17:42,12:28:47,NA,incomplete,false,true,NA,8,25,NA,red,n_l_053.jpg,NA,NA,unpleasant,pleasant,NA,NA,NA,NA,NA,left,1678,true,NA,NA,NA,NA,NA
6Kutlti4,3e6l1vr4yzzg81jodkfak6sl8ztf6z,3zgvpd4g6xuu20ju1bmcnsw9602ztr,6Kutlti4,2020-0188,2021-10-17,11:17:42,12:28:47,NA,incomplete,false,true,NA,8,26,NA,red,m_l_089.jpg,NA,NA,unpleasant,pleasant,NA,NA,NA,NA,NA,left,1753,true,NA,NA,NA,NA,NA
6Kutlti4,3e6l1vr4yzzg81jodkfak6sl8ztf6z,3zgvpd4g6xuu20ju1bmcnsw9602ztr,6Kutlti4,2020-0188,2021-10-17,11:17:42,12:28:47,NA,incomplete,false,true,NA,8,27,NA,red,m_l_112.jpg,NA,NA,unpleasant,pleasant,NA,NA,NA,NA,NA,left,1584,true,NA,NA,NA,NA,NA
6Kutlti4,3e6l1vr4yzzg81jodkfak6sl8ztf6z,3zgvpd4g6xuu20ju1bmcnsw9602ztr,6Kutlti4,2020-0188,2021-10-17,11:17:42,12:28:47,NA,incomplete,false,true,NA,8,28,NA,red,m_l_032.jpg,NA,NA,pleasant,unpleasant,NA,NA,NA,NA,NA,left,1613,true,NA,NA,NA,NA,NA
