workerId,hitId,assignmentId,subject,studyid,exp_date,exp_start,exp_end,time_start,time_end,practice,encoding,memory,block,trial,event_order,event,stim,answer,context_type,label_left,label_right,left_image,left_event,right_image,right_event,condition,response,response_time,response_acc,order_response,order_response_time,order_acc,distance_response,distance_response_time
72Gwf6I1,3uy4pis8ruyxp7v852m6xfad2fzn1g,3atthhxxwe1for346hznc0epnjoxib,72Gwf6I1,2020-0188,2021-10-17,11:20:47,12:26:11,NA,incomplete,true,true,NA,0,0,NA,black,m_s_069.jpg,NA,NA,unpleasant,pleasant,NA,NA,NA,NA,NA,right,1281.40000000596,true,NA,NA,NA,NA,NA
72Gwf6I1,3uy4pis8ruyxp7v852m6xfad2fzn1g,3atthhxxwe1for346hznc0epnjoxib,72Gwf6I1,2020-0188,2021-10-17,11:20:47,12:26:11,NA,incomplete,true,true,NA,0,1,NA,black,m_s_102.jpg,NA,NA,unpleasant,pleasant,NA,NA,NA,NA,NA,right,1565.5,true,NA,NA,NA,NA,NA
72Gwf6I1,3uy4pis8ruyxp7v852m6xfad2fzn1g,3atthhxxwe1for346hznc0epnjoxib,72Gwf6I1,2020-0188,2021-10-17,11:20:47,12:26:11,NA,incomplete,true,true,NA,0,2,NA,black,n_l_095.jpg,NA,NA,pleasant,unpleasant,NA,NA,NA,NA,NA,left,1831.20000001788,true,NA,NA,NA,NA,NA
72Gwf6I1,3uy4pis8ruyxp7v852m6xfad2fzn1g,3atthhxxwe1for346hznc0epnjoxib,72Gwf6I1,2020-0188,2021-10-17,11:20:47,12:26:11,NA,incomplete,true,true,NA,0,3,NA,black,n_s_089.jpg,NA,NA,pleasant,unpleasant,NA,NA,NA,NA,NA,left,1667.90000000596,true,NA,NA,NA,NA,NA
72Gwf6I1,3uy4pis8ruyxp7v852m6xfad2fzn1g,3atthhxxwe1for346hznc0epnjoxib,72Gwf6I1,2020-0188,2021-10-17,11:20:47,12:26:11,NA,incomplete,true,true,NA,0,4,NA,black,m_l_005.jpg,NA,NA,pleasant,unpleasant,NA,NA,NA,NA,NA,left,1061.80000001192,true,NA,NA,NA,NA,NA
72Gwf6I1,3uy4pis8ruyxp7v852m6xfad2fzn1g,3atthhxxwe1for346hznc0epnjoxib,72Gwf6I1,2020-0188,2021-10-17,11:20:47,12:26:11,NA,incomplete,true,true,NA,0,5,NA,black,n_s_101.jpg,NA,NA,pleasant,unpleasant,NA,NA,NA,NA,NA,left,1425,true,NA,NA,NA,NA,NA
72Gwf6I1,3uy4pis8ruyxp7v852m6xfad2fzn1g,3atthhxxwe1for346hznc0epnjoxib,72Gwf6I1,2020-0188,2021-10-17,11:20:47,12:26:11,NA,incomplete,true,true,NA,0,6,NA,white,n_l_042.jpg,NA,NA,pleasant,unpleasant,NA,NA,NA,NA,NA,left,1343.90000000596,true,NA,NA,NA,NA,NA
72Gwf6I1,3uy4pis8ruyxp7v852m6xfad2fzn1g,3atthhxxwe1for346hznc0epnjoxib,72Gwf6I1,2020-0188,2021-10-17,11:20:47,12:26:11,NA,incomplete,true,true,NA,0,7,NA,white,m_l_019.jpg,NA,NA,pleasant,unpleasant,NA,NA,NA,NA,NA,left,1402.90000000596,true,NA,NA,NA,NA,NA
72Gwf6I1,3uy4pis8ruyxp7v852m6xfad2fzn1g,3atthhxxwe1for346hznc0epnjoxib,72Gwf6I1,2020-0188,2021-10-17,11:20:47,12:26:11,NA,incomplete,true,true,NA,0,8,NA,white,m_s_115.jpg,NA,NA,pleasant,unpleasant,NA,NA,NA,NA,NA,right,1113.90000000596,true,NA,NA,NA,NA,NA
72Gwf6I1,3uy4pis8ruyxp7v852m6xfad2fzn1g,3atthhxxwe1for346hznc0epnjoxib,72Gwf6I1,2020-0188,2021-10-17,11:20:47,12:26:11,NA,incomplete,true,true,NA,0,9,NA,white,m_s_112.jpg,NA,NA,pleasant,unpleasant,NA,NA,NA,NA,NA,left,1241.40000000596,true,NA,NA,NA,NA,NA
72Gwf6I1,3uy4pis8ruyxp7v852m6xfad2fzn1g,3atthhxxwe1for346hznc0epnjoxib,72Gwf6I1,2020-0188,2021-10-17,11:20:47,12:26:11,NA,incomplete,true,true,NA,0,10,NA,white,n_l_002.jpg,NA,NA,unpleasant,pleasant,NA,NA,NA,NA,NA,right,1340.09999999404,true,NA,NA,NA,NA,NA
72Gwf6I1,3uy4pis8ruyxp7v852m6xfad2fzn1g,3atthhxxwe1for346hznc0epnjoxib,72Gwf6I1,2020-0188,2021-10-17,11:20:47,12:26:11,NA,incomplete,true,true,NA,0,11,NA,white,m_s_110.jpg,NA,NA,pleasant,unpleasant,NA,NA,NA,NA,NA,left,1697.90000000596,true,NA,NA,NA,NA,NA
72Gwf6I1,3uy4pis8ruyxp7v852m6xfad2fzn1g,3atthhxxwe1for346hznc0epnjoxib,72Gwf6I1,2020-0188,2021-10-17,11:20:47,12:26:11,NA,incomplete,true,true,NA,0,12,NA,orange,m_s_077.jpg,NA,NA,pleasant,unpleasant,NA,NA,NA,NA,NA,right,1999,true,NA,NA,NA,NA,NA
72Gwf6I1,3uy4pis8ruyxp7v852m6xfad2fzn1g,3atthhxxwe1for346hznc0epnjoxib,72Gwf6I1,2020-0188,2021-10-17,11:20:47,12:26:11,NA,incomplete,true,true,NA,0,13,NA,orange,n_l_078.jpg,NA,NA,pleasant,unpleasant,NA,NA,NA,NA,NA,right,2161.80000001192,true,NA,NA,NA,NA,NA
72Gwf6I1,3uy4pis8ruyxp7v852m6xfad2fzn1g,3atthhxxwe1for346hznc0epnjoxib,72Gwf6I1,2020-0188,2021-10-17,11:20:47,12:26:11,NA,incomplete,true,true,NA,0,14,NA,orange,m_s_065.jpg,NA,NA,unpleasant,pleasant,NA,NA,NA,NA,NA,right,1039.20000001788,true,NA,NA,NA,NA,NA
72Gwf6I1,3uy4pis8ruyxp7v852m6xfad2fzn1g,3atthhxxwe1for346hznc0epnjoxib,72Gwf6I1,2020-0188,2021-10-17,11:20:47,12:26:11,NA,incomplete,true,true,NA,0,15,NA,orange,m_s_074.jpg,NA,NA,unpleasant,pleasant,NA,NA,NA,NA,NA,right,2180.59999999404,true,NA,NA,NA,NA,NA
72Gwf6I1,3uy4pis8ruyxp7v852m6xfad2fzn1g,3atthhxxwe1for346hznc0epnjoxib,72Gwf6I1,2020-0188,2021-10-17,11:20:47,12:26:11,NA,incomplete,true,true,NA,0,16,NA,orange,m_l_046.jpg,NA,NA,unpleasant,pleasant,NA,NA,NA,NA,NA,left,1360.90000000596,true,NA,NA,NA,NA,NA
72Gwf6I1,3uy4pis8ruyxp7v852m6xfad2fzn1g,3atthhxxwe1for346hznc0epnjoxib,72Gwf6I1,2020-0188,2021-10-17,11:20:47,12:26:11,NA,incomplete,true,true,NA,0,17,NA,orange,n_s_022.jpg,NA,NA,unpleasant,pleasant,NA,NA,NA,NA,NA,left,1863.29999998212,true,NA,NA,NA,NA,NA
72Gwf6I1,3uy4pis8ruyxp7v852m6xfad2fzn1g,3atthhxxwe1for346hznc0epnjoxib,72Gwf6I1,2020-0188,2021-10-17,11:20:47,12:26:11,NA,incomplete,true,true,NA,0,18,NA,red,m_l_115.jpg,NA,NA,pleasant,unpleasant,NA,NA,NA,NA,NA,left,1780.29999998212,true,NA,NA,NA,NA,NA
72Gwf6I1,3uy4pis8ruyxp7v852m6xfad2fzn1g,3atthhxxwe1for346hznc0epnjoxib,72Gwf6I1,2020-0188,2021-10-17,11:20:47,12:26:11,NA,incomplete,true,true,NA,0,19,NA,red,n_l_073.jpg,NA,NA,unpleasant,pleasant,NA,NA,NA,NA,NA,right,2082.20000001788,true,NA,NA,NA,NA,NA
72Gwf6I1,3uy4pis8ruyxp7v852m6xfad2fzn1g,3atthhxxwe1for346hznc0epnjoxib,72Gwf6I1,2020-0188,2021-10-17,11:20:47,12:26:11,NA,incomplete,true,true,NA,0,20,NA,red,m_l_068.jpg,NA,NA,unpleasant,pleasant,NA,NA,NA,NA,NA,right,1825.20000001788,true,NA,NA,NA,NA,NA
72Gwf6I1,3uy4pis8ruyxp7v852m6xfad2fzn1g,3atthhxxwe1for346hznc0epnjoxib,72Gwf6I1,2020-0188,2021-10-17,11:20:47,12:26:11,NA,incomplete,true,true,NA,0,21,NA,red,m_l_076.jpg,NA,NA,unpleasant,pleasant,NA,NA,NA,NA,NA,right,2172,true,NA,NA,NA,NA,NA
72Gwf6I1,3uy4pis8ruyxp7v852m6xfad2fzn1g,3atthhxxwe1for346hznc0epnjoxib,72Gwf6I1,2020-0188,2021-10-17,11:20:47,12:26:11,NA,incomplete,true,true,NA,0,22,NA,red,m_l_024.jpg,NA,NA,unpleasant,pleasant,NA,NA,NA,NA,NA,left,1251,true,NA,NA,NA,NA,NA
72Gwf6I1,3uy4pis8ruyxp7v852m6xfad2fzn1g,3atthhxxwe1for346hznc0epnjoxib,72Gwf6I1,2020-0188,2021-10-17,11:20:47,12:26:11,NA,incomplete,true,true,NA,0,23,NA,red,m_s_031.jpg,NA,NA,unpleasant,pleasant,NA,NA,NA,NA,NA,right,1870.40000000596,true,NA,NA,NA,NA,NA
72Gwf6I1,3uy4pis8ruyxp7v852m6xfad2fzn1g,3atthhxxwe1for346hznc0epnjoxib,72Gwf6I1,2020-0188,2021-10-17,11:20:47,12:26:11,NA,incomplete,true,true,NA,0,24,NA,brown,n_l_067.jpg,NA,NA,unpleasant,pleasant,NA,NA,NA,NA,NA,right,1949.70000001788,true,NA,NA,NA,NA,NA
72Gwf6I1,3uy4pis8ruyxp7v852m6xfad2fzn1g,3atthhxxwe1for346hznc0epnjoxib,72Gwf6I1,2020-0188,2021-10-17,11:20:47,12:26:11,NA,incomplete,true,true,NA,0,25,NA,brown,n_s_063.jpg,NA,NA,pleasant,unpleasant,NA,NA,NA,NA,NA,left,1390.80000001192,true,NA,NA,NA,NA,NA
72Gwf6I1,3uy4pis8ruyxp7v852m6xfad2fzn1g,3atthhxxwe1for346hznc0epnjoxib,72Gwf6I1,2020-0188,2021-10-17,11:20:47,12:26:11,NA,incomplete,true,true,NA,0,26,NA,brown,n_s_048.jpg,NA,NA,pleasant,unpleasant,NA,NA,NA,NA,NA,right,1343.20000001788,true,NA,NA,NA,NA,NA
72Gwf6I1,3uy4pis8ruyxp7v852m6xfad2fzn1g,3atthhxxwe1for346hznc0epnjoxib,72Gwf6I1,2020-0188,2021-10-17,11:20:47,12:26:11,NA,incomplete,true,true,NA,0,27,NA,brown,n_l_054.jpg,NA,NA,unpleasant,pleasant,NA,NA,NA,NA,NA,right,1346.59999999404,true,NA,NA,NA,NA,NA
72Gwf6I1,3uy4pis8ruyxp7v852m6xfad2fzn1g,3atthhxxwe1for346hznc0epnjoxib,72Gwf6I1,2020-0188,2021-10-17,11:20:47,12:26:11,NA,incomplete,true,true,NA,0,28,NA,brown,m_s_027.jpg,NA,NA,pleasant,unpleasant,NA,NA,NA,NA,NA,right,2004.20000001788,true,NA,NA,NA,NA,NA
72Gwf6I1,3uy4pis8ruyxp7v852m6xfad2fzn1g,3atthhxxwe1for346hznc0epnjoxib,72Gwf6I1,2020-0188,2021-10-17,11:20:47,12:26:11,NA,incomplete,true,true,NA,0,29,NA,brown,n_s_083.jpg,NA,NA,pleasant,unpleasant,NA,NA,NA,NA,NA,left,1297.40000000596,true,NA,NA,NA,NA,NA
72Gwf6I1,3uy4pis8ruyxp7v852m6xfad2fzn1g,3atthhxxwe1for346hznc0epnjoxib,72Gwf6I1,2020-0188,2021-10-17,11:20:47,12:26:11,NA,incomplete,true,true,NA,0,30,NA,gray,m_l_084.jpg,NA,NA,unpleasant,pleasant,NA,NA,NA,NA,NA,right,1212.40000000596,true,NA,NA,NA,NA,NA
72Gwf6I1,3uy4pis8ruyxp7v852m6xfad2fzn1g,3atthhxxwe1for346hznc0epnjoxib,72Gwf6I1,2020-0188,2021-10-17,11:20:47,12:26:11,NA,incomplete,true,true,NA,0,31,NA,gray,m_l_029.jpg,NA,NA,pleasant,unpleasant,NA,NA,NA,NA,NA,left,1151.5,true,NA,NA,NA,NA,NA
72Gwf6I1,3uy4pis8ruyxp7v852m6xfad2fzn1g,3atthhxxwe1for346hznc0epnjoxib,72Gwf6I1,2020-0188,2021-10-17,11:20:47,12:26:11,NA,incomplete,true,true,NA,0,32,NA,gray,n_l_050.jpg,NA,NA,unpleasant,pleasant,NA,NA,NA,NA,NA,right,1475.09999999404,true,NA,NA,NA,NA,NA
72Gwf6I1,3uy4pis8ruyxp7v852m6xfad2fzn1g,3atthhxxwe1for346hznc0epnjoxib,72Gwf6I1,2020-0188,2021-10-17,11:20:47,12:26:11,NA,incomplete,true,true,NA,0,33,NA,gray,m_l_113.jpg,NA,NA,pleasant,unpleasant,NA,NA,NA,NA,NA,right,1953.40000000596,true,NA,NA,NA,NA,NA
72Gwf6I1,3uy4pis8ruyxp7v852m6xfad2fzn1g,3atthhxxwe1for346hznc0epnjoxib,72Gwf6I1,2020-0188,2021-10-17,11:20:47,12:26:11,NA,incomplete,true,true,NA,0,34,NA,gray,m_l_035.jpg,NA,NA,pleasant,unpleasant,NA,NA,NA,NA,NA,left,1312.40000000596,true,NA,NA,NA,NA,NA
72Gwf6I1,3uy4pis8ruyxp7v852m6xfad2fzn1g,3atthhxxwe1for346hznc0epnjoxib,72Gwf6I1,2020-0188,2021-10-17,11:20:47,12:26:11,NA,incomplete,true,true,NA,0,35,NA,gray,n_l_057.jpg,NA,NA,pleasant,unpleasant,NA,NA,NA,NA,NA,left,1338.09999999404,true,NA,NA,NA,NA,NA
72Gwf6I1,3uy4pis8ruyxp7v852m6xfad2fzn1g,3atthhxxwe1for346hznc0epnjoxib,72Gwf6I1,2020-0188,2021-10-17,11:20:47,12:26:11,NA,incomplete,true,NA,true,0,0,NA,NA,NA,right,absent,NA,NA,m_s_110.jpg,white,m_l_019.jpg,white,within,NA,NaN,NA,left,3073,0,1,2975.800000011921
72Gwf6I1,3uy4pis8ruyxp7v852m6xfad2fzn1g,3atthhxxwe1for346hznc0epnjoxib,72Gwf6I1,2020-0188,2021-10-17,11:20:47,12:26:11,NA,incomplete,true,NA,true,0,1,NA,NA,NA,right,absent,NA,NA,m_l_068.jpg,red,m_l_046.jpg,orange,between,NA,NaN,NA,right,2460,1,2,1378.0999999940395
72Gwf6I1,3uy4pis8ruyxp7v852m6xfad2fzn1g,3atthhxxwe1for346hznc0epnjoxib,72Gwf6I1,2020-0188,2021-10-17,11:20:47,12:26:11,NA,incomplete,true,NA,true,0,2,NA,NA,NA,right,present,NA,NA,m_s_065.jpg,orange,n_l_002.jpg,white,between,NA,NaN,NA,left,2425.800000011921,0,2,3321.0999999940395
72Gwf6I1,3uy4pis8ruyxp7v852m6xfad2fzn1g,3atthhxxwe1for346hznc0epnjoxib,72Gwf6I1,2020-0188,2021-10-17,11:20:47,12:26:11,NA,incomplete,true,NA,true,0,3,NA,NA,NA,right,absent,NA,NA,n_l_057.jpg,gray,m_l_029.jpg,gray,within,NA,NaN,NA,right,2854.300000011921,1,0,1216.2000000178814
72Gwf6I1,3uy4pis8ruyxp7v852m6xfad2fzn1g,3atthhxxwe1for346hznc0epnjoxib,72Gwf6I1,2020-0188,2021-10-17,11:20:47,12:26:11,NA,incomplete,true,NA,true,0,4,NA,NA,NA,right,absent,NA,NA,n_l_050.jpg,gray,m_s_027.jpg,brown,between,NA,NaN,NA,right,4931.5,1,1,1877.300000011921
72Gwf6I1,3uy4pis8ruyxp7v852m6xfad2fzn1g,3atthhxxwe1for346hznc0epnjoxib,72Gwf6I1,2020-0188,2021-10-17,11:20:47,12:26:11,NA,incomplete,true,NA,true,0,5,NA,NA,NA,right,present,NA,NA,m_s_031.jpg,red,n_l_073.jpg,red,within,NA,NaN,NA,right,1887.2999999821186,1,1,1153.5
72Gwf6I1,3uy4pis8ruyxp7v852m6xfad2fzn1g,3atthhxxwe1for346hznc0epnjoxib,72Gwf6I1,2020-0188,2021-10-17,11:20:47,12:26:11,NA,incomplete,true,NA,true,0,6,NA,NA,NA,left,absent,NA,NA,n_s_063.jpg,brown,n_s_083.jpg,brown,within,NA,NaN,NA,right,3909.2000000178814,0,1,1120.9000000059605
72Gwf6I1,3uy4pis8ruyxp7v852m6xfad2fzn1g,3atthhxxwe1for346hznc0epnjoxib,72Gwf6I1,2020-0188,2021-10-17,11:20:47,12:26:11,NA,incomplete,true,NA,true,0,7,NA,NA,NA,right,present,NA,NA,m_s_115.jpg,white,m_l_005.jpg,black,between,NA,NaN,NA,right,3045.699999988079,1,2,1083.9000000059605
72Gwf6I1,3uy4pis8ruyxp7v852m6xfad2fzn1g,3atthhxxwe1for346hznc0epnjoxib,72Gwf6I1,2020-0188,2021-10-17,11:20:47,12:26:11,NA,incomplete,true,NA,true,0,8,NA,NA,NA,left,absent,NA,NA,m_l_024.jpg,red,n_s_048.jpg,brown,between,NA,NaN,NA,left,3382.800000011921,1,1,1528.4000000059605
72Gwf6I1,3uy4pis8ruyxp7v852m6xfad2fzn1g,3atthhxxwe1for346hznc0epnjoxib,72Gwf6I1,2020-0188,2021-10-17,11:20:47,12:26:11,NA,incomplete,true,NA,true,0,9,NA,NA,NA,right,present,NA,NA,n_s_101.jpg,black,m_s_102.jpg,black,within,NA,NaN,NA,right,1504,1,2,2114.5999999940395
72Gwf6I1,3uy4pis8ruyxp7v852m6xfad2fzn1g,3atthhxxwe1for346hznc0epnjoxib,72Gwf6I1,2020-0188,2021-10-17,11:20:47,12:26:11,NA,incomplete,true,NA,true,0,10,NA,NA,NA,left,present,NA,NA,n_l_078.jpg,orange,n_s_022.jpg,orange,within,NA,NaN,NA,left,2025.699999988079,1,1,2981
72Gwf6I1,3uy4pis8ruyxp7v852m6xfad2fzn1g,3atthhxxwe1for346hznc0epnjoxib,72Gwf6I1,2020-0188,2021-10-17,11:20:47,12:26:11,NA,incomplete,false,true,NA,1,0,NA,green,n_s_020.jpg,NA,NA,pleasant,unpleasant,NA,NA,NA,NA,NA,left,1494.90000000596,true,NA,NA,NA,NA,NA
72Gwf6I1,3uy4pis8ruyxp7v852m6xfad2fzn1g,3atthhxxwe1for346hznc0epnjoxib,72Gwf6I1,2020-0188,2021-10-17,11:20:47,12:26:11,NA,incomplete,false,true,NA,1,1,NA,green,m_s_055.jpg,NA,NA,unpleasant,pleasant,NA,NA,NA,NA,NA,right,1540.80000001192,true,NA,NA,NA,NA,NA
72Gwf6I1,3uy4pis8ruyxp7v852m6xfad2fzn1g,3atthhxxwe1for346hznc0epnjoxib,72Gwf6I1,2020-0188,2021-10-17,11:20:47,12:26:11,NA,incomplete,false,true,NA,1,2,NA,green,m_l_054.jpg,NA,NA,unpleasant,pleasant,NA,NA,NA,NA,NA,left,1433.19999998808,true,NA,NA,NA,NA,NA
72Gwf6I1,3uy4pis8ruyxp7v852m6xfad2fzn1g,3atthhxxwe1for346hznc0epnjoxib,72Gwf6I1,2020-0188,2021-10-17,11:20:47,12:26:11,NA,incomplete,false,true,NA,1,3,NA,green,n_l_069.jpg,NA,NA,pleasant,unpleasant,NA,NA,NA,NA,NA,left,1573.30000001192,true,NA,NA,NA,NA,NA
72Gwf6I1,3uy4pis8ruyxp7v852m6xfad2fzn1g,3atthhxxwe1for346hznc0epnjoxib,72Gwf6I1,2020-0188,2021-10-17,11:20:47,12:26:11,NA,incomplete,false,true,NA,1,4,NA,green,m_s_020.jpg,NA,NA,pleasant,unpleasant,NA,NA,NA,NA,NA,left,1315,true,NA,NA,NA,NA,NA
72Gwf6I1,3uy4pis8ruyxp7v852m6xfad2fzn1g,3atthhxxwe1for346hznc0epnjoxib,72Gwf6I1,2020-0188,2021-10-17,11:20:47,12:26:11,NA,incomplete,false,true,NA,1,5,NA,green,n_l_101.jpg,NA,NA,unpleasant,pleasant,NA,NA,NA,NA,NA,right,1665.5,true,NA,NA,NA,NA,NA
72Gwf6I1,3uy4pis8ruyxp7v852m6xfad2fzn1g,3atthhxxwe1for346hznc0epnjoxib,72Gwf6I1,2020-0188,2021-10-17,11:20:47,12:26:11,NA,incomplete,false,true,NA,1,6,NA,yellow,n_s_061.jpg,NA,NA,pleasant,unpleasant,NA,NA,NA,NA,NA,left,1719.80000001192,true,NA,NA,NA,NA,NA
72Gwf6I1,3uy4pis8ruyxp7v852m6xfad2fzn1g,3atthhxxwe1for346hznc0epnjoxib,72Gwf6I1,2020-0188,2021-10-17,11:20:47,12:26:11,NA,incomplete,false,true,NA,1,7,NA,yellow,m_s_030.jpg,NA,NA,pleasant,unpleasant,NA,NA,NA,NA,NA,left,1551.09999999404,true,NA,NA,NA,NA,NA
72Gwf6I1,3uy4pis8ruyxp7v852m6xfad2fzn1g,3atthhxxwe1for346hznc0epnjoxib,72Gwf6I1,2020-0188,2021-10-17,11:20:47,12:26:11,NA,incomplete,false,true,NA,1,8,NA,yellow,n_l_055.jpg,NA,NA,pleasant,unpleasant,NA,NA,NA,NA,NA,left,2246.69999998808,true,NA,NA,NA,NA,NA
72Gwf6I1,3uy4pis8ruyxp7v852m6xfad2fzn1g,3atthhxxwe1for346hznc0epnjoxib,72Gwf6I1,2020-0188,2021-10-17,11:20:47,12:26:11,NA,incomplete,false,true,NA,1,9,NA,yellow,m_l_012.jpg,NA,NA,pleasant,unpleasant,NA,NA,NA,NA,NA,right,1407,true,NA,NA,NA,NA,NA
72Gwf6I1,3uy4pis8ruyxp7v852m6xfad2fzn1g,3atthhxxwe1for346hznc0epnjoxib,72Gwf6I1,2020-0188,2021-10-17,11:20:47,12:26:11,NA,incomplete,false,true,NA,1,10,NA,yellow,m_s_072.jpg,NA,NA,unpleasant,pleasant,NA,NA,NA,NA,NA,right,2277.39999997616,true,NA,NA,NA,NA,NA
72Gwf6I1,3uy4pis8ruyxp7v852m6xfad2fzn1g,3atthhxxwe1for346hznc0epnjoxib,72Gwf6I1,2020-0188,2021-10-17,11:20:47,12:26:11,NA,incomplete,false,true,NA,1,11,NA,yellow,m_s_046.jpg,NA,NA,unpleasant,pleasant,NA,NA,NA,NA,NA,right,1948.90000000596,true,NA,NA,NA,NA,NA
72Gwf6I1,3uy4pis8ruyxp7v852m6xfad2fzn1g,3atthhxxwe1for346hznc0epnjoxib,72Gwf6I1,2020-0188,2021-10-17,11:20:47,12:26:11,NA,incomplete,false,true,NA,1,12,NA,blue,m_s_053.jpg,NA,NA,unpleasant,pleasant,NA,NA,NA,NA,NA,right,1671.59999999404,true,NA,NA,NA,NA,NA
72Gwf6I1,3uy4pis8ruyxp7v852m6xfad2fzn1g,3atthhxxwe1for346hznc0epnjoxib,72Gwf6I1,2020-0188,2021-10-17,11:20:47,12:26:11,NA,incomplete,false,true,NA,1,13,NA,blue,n_s_002.jpg,NA,NA,pleasant,unpleasant,NA,NA,NA,NA,NA,left,2463.5,true,NA,NA,NA,NA,NA
72Gwf6I1,3uy4pis8ruyxp7v852m6xfad2fzn1g,3atthhxxwe1for346hznc0epnjoxib,72Gwf6I1,2020-0188,2021-10-17,11:20:47,12:26:11,NA,incomplete,false,true,NA,1,14,NA,blue,m_l_034.jpg,NA,NA,pleasant,unpleasant,NA,NA,NA,NA,NA,left,2034.29999998212,true,NA,NA,NA,NA,NA
72Gwf6I1,3uy4pis8ruyxp7v852m6xfad2fzn1g,3atthhxxwe1for346hznc0epnjoxib,72Gwf6I1,2020-0188,2021-10-17,11:20:47,12:26:11,NA,incomplete,false,true,NA,1,15,NA,blue,n_l_092.jpg,NA,NA,pleasant,unpleasant,NA,NA,NA,NA,NA,left,2438,true,NA,NA,NA,NA,NA
72Gwf6I1,3uy4pis8ruyxp7v852m6xfad2fzn1g,3atthhxxwe1for346hznc0epnjoxib,72Gwf6I1,2020-0188,2021-10-17,11:20:47,12:26:11,NA,incomplete,false,true,NA,1,16,NA,blue,n_s_077.jpg,NA,NA,pleasant,unpleasant,NA,NA,NA,NA,NA,left,2156.09999999404,true,NA,NA,NA,NA,NA
72Gwf6I1,3uy4pis8ruyxp7v852m6xfad2fzn1g,3atthhxxwe1for346hznc0epnjoxib,72Gwf6I1,2020-0188,2021-10-17,11:20:47,12:26:11,NA,incomplete,false,true,NA,1,17,NA,blue,m_l_009.jpg,NA,NA,pleasant,unpleasant,NA,NA,NA,NA,NA,left,2000.20000001788,true,NA,NA,NA,NA,NA
72Gwf6I1,3uy4pis8ruyxp7v852m6xfad2fzn1g,3atthhxxwe1for346hznc0epnjoxib,72Gwf6I1,2020-0188,2021-10-17,11:20:47,12:26:11,NA,incomplete,false,true,NA,1,18,NA,black,n_s_104.jpg,NA,NA,unpleasant,pleasant,NA,NA,NA,NA,NA,right,1136.79999998212,true,NA,NA,NA,NA,NA
72Gwf6I1,3uy4pis8ruyxp7v852m6xfad2fzn1g,3atthhxxwe1for346hznc0epnjoxib,72Gwf6I1,2020-0188,2021-10-17,11:20:47,12:26:11,NA,incomplete,false,true,NA,1,19,NA,black,n_l_108.jpg,NA,NA,unpleasant,pleasant,NA,NA,NA,NA,NA,right,1583.19999998808,true,NA,NA,NA,NA,NA
72Gwf6I1,3uy4pis8ruyxp7v852m6xfad2fzn1g,3atthhxxwe1for346hznc0epnjoxib,72Gwf6I1,2020-0188,2021-10-17,11:20:47,12:26:11,NA,incomplete,false,true,NA,1,20,NA,black,m_s_007.jpg,NA,NA,pleasant,unpleasant,NA,NA,NA,NA,NA,right,3100.29999998212,true,NA,NA,NA,NA,NA
72Gwf6I1,3uy4pis8ruyxp7v852m6xfad2fzn1g,3atthhxxwe1for346hznc0epnjoxib,72Gwf6I1,2020-0188,2021-10-17,11:20:47,12:26:11,NA,incomplete,false,true,NA,1,21,NA,black,n_s_033.jpg,NA,NA,pleasant,unpleasant,NA,NA,NA,NA,NA,left,1650.10000002384,true,NA,NA,NA,NA,NA
72Gwf6I1,3uy4pis8ruyxp7v852m6xfad2fzn1g,3atthhxxwe1for346hznc0epnjoxib,72Gwf6I1,2020-0188,2021-10-17,11:20:47,12:26:11,NA,incomplete,false,true,NA,1,22,NA,black,m_l_043.jpg,NA,NA,unpleasant,pleasant,NA,NA,NA,NA,NA,right,2122.30000001192,true,NA,NA,NA,NA,NA
72Gwf6I1,3uy4pis8ruyxp7v852m6xfad2fzn1g,3atthhxxwe1for346hznc0epnjoxib,72Gwf6I1,2020-0188,2021-10-17,11:20:47,12:26:11,NA,incomplete,false,true,NA,1,23,NA,black,n_l_066.jpg,NA,NA,pleasant,unpleasant,NA,NA,NA,NA,NA,right,2523.90000000596,true,NA,NA,NA,NA,NA
72Gwf6I1,3uy4pis8ruyxp7v852m6xfad2fzn1g,3atthhxxwe1for346hznc0epnjoxib,72Gwf6I1,2020-0188,2021-10-17,11:20:47,12:26:11,NA,incomplete,false,true,NA,1,24,NA,purple,n_l_009.jpg,NA,NA,unpleasant,pleasant,NA,NA,NA,NA,NA,right,1539.90000000596,true,NA,NA,NA,NA,NA
72Gwf6I1,3uy4pis8ruyxp7v852m6xfad2fzn1g,3atthhxxwe1for346hznc0epnjoxib,72Gwf6I1,2020-0188,2021-10-17,11:20:47,12:26:11,NA,incomplete,false,true,NA,1,25,NA,purple,n_l_096.jpg,NA,NA,unpleasant,pleasant,NA,NA,NA,NA,NA,right,1297.59999999404,true,NA,NA,NA,NA,NA
72Gwf6I1,3uy4pis8ruyxp7v852m6xfad2fzn1g,3atthhxxwe1for346hznc0epnjoxib,72Gwf6I1,2020-0188,2021-10-17,11:20:47,12:26:11,NA,incomplete,false,true,NA,1,26,NA,purple,m_l_091.jpg,NA,NA,pleasant,unpleasant,NA,NA,NA,NA,NA,left,1319.70000001788,true,NA,NA,NA,NA,NA
72Gwf6I1,3uy4pis8ruyxp7v852m6xfad2fzn1g,3atthhxxwe1for346hznc0epnjoxib,72Gwf6I1,2020-0188,2021-10-17,11:20:47,12:26:11,NA,incomplete,false,true,NA,1,27,NA,purple,m_l_071.jpg,NA,NA,pleasant,unpleasant,NA,NA,NA,NA,NA,left,1799.5,true,NA,NA,NA,NA,NA
72Gwf6I1,3uy4pis8ruyxp7v852m6xfad2fzn1g,3atthhxxwe1for346hznc0epnjoxib,72Gwf6I1,2020-0188,2021-10-17,11:20:47,12:26:11,NA,incomplete,false,true,NA,1,28,NA,purple,n_l_106.jpg,NA,NA,pleasant,unpleasant,NA,NA,NA,NA,NA,right,1250.59999999404,true,NA,NA,NA,NA,NA
72Gwf6I1,3uy4pis8ruyxp7v852m6xfad2fzn1g,3atthhxxwe1for346hznc0epnjoxib,72Gwf6I1,2020-0188,2021-10-17,11:20:47,12:26:11,NA,incomplete,false,true,NA,1,29,NA,purple,n_s_054.jpg,NA,NA,pleasant,unpleasant,NA,NA,NA,NA,NA,left,1338.30000001192,true,NA,NA,NA,NA,NA
72Gwf6I1,3uy4pis8ruyxp7v852m6xfad2fzn1g,3atthhxxwe1for346hznc0epnjoxib,72Gwf6I1,2020-0188,2021-10-17,11:20:47,12:26:11,NA,incomplete,false,true,NA,1,30,NA,orange,n_s_007.jpg,NA,NA,pleasant,unpleasant,NA,NA,NA,NA,NA,right,1823,true,NA,NA,NA,NA,NA
72Gwf6I1,3uy4pis8ruyxp7v852m6xfad2fzn1g,3atthhxxwe1for346hznc0epnjoxib,72Gwf6I1,2020-0188,2021-10-17,11:20:47,12:26:11,NA,incomplete,false,true,NA,1,31,NA,orange,m_s_103.jpg,NA,NA,unpleasant,pleasant,NA,NA,NA,NA,NA,right,2990.69999998808,true,NA,NA,NA,NA,NA
72Gwf6I1,3uy4pis8ruyxp7v852m6xfad2fzn1g,3atthhxxwe1for346hznc0epnjoxib,72Gwf6I1,2020-0188,2021-10-17,11:20:47,12:26:11,NA,incomplete,false,true,NA,1,32,NA,orange,m_s_001.jpg,NA,NA,unpleasant,pleasant,NA,NA,NA,NA,NA,right,1358.89999997616,true,NA,NA,NA,NA,NA
72Gwf6I1,3uy4pis8ruyxp7v852m6xfad2fzn1g,3atthhxxwe1for346hznc0epnjoxib,72Gwf6I1,2020-0188,2021-10-17,11:20:47,12:26:11,NA,incomplete,false,true,NA,1,33,NA,orange,n_s_085.jpg,NA,NA,unpleasant,pleasant,NA,NA,NA,NA,NA,left,2268.89999997616,true,NA,NA,NA,NA,NA
72Gwf6I1,3uy4pis8ruyxp7v852m6xfad2fzn1g,3atthhxxwe1for346hznc0epnjoxib,72Gwf6I1,2020-0188,2021-10-17,11:20:47,12:26:11,NA,incomplete,false,true,NA,1,34,NA,orange,n_l_084.jpg,NA,NA,pleasant,unpleasant,NA,NA,NA,NA,NA,right,1849.5,true,NA,NA,NA,NA,NA
72Gwf6I1,3uy4pis8ruyxp7v852m6xfad2fzn1g,3atthhxxwe1for346hznc0epnjoxib,72Gwf6I1,2020-0188,2021-10-17,11:20:47,12:26:11,NA,incomplete,false,true,NA,1,35,NA,orange,n_l_001.jpg,NA,NA,pleasant,unpleasant,NA,NA,NA,NA,NA,right,1592.39999997616,true,NA,NA,NA,NA,NA
72Gwf6I1,3uy4pis8ruyxp7v852m6xfad2fzn1g,3atthhxxwe1for346hznc0epnjoxib,72Gwf6I1,2020-0188,2021-10-17,11:20:47,12:26:11,NA,incomplete,false,NA,true,1,0,NA,NA,NA,right,present,NA,NA,m_l_009.jpg,blue,n_s_002.jpg,blue,within,NA,NaN,NA,right,3125.2999999821186,1,1,1574.800000011921
72Gwf6I1,3uy4pis8ruyxp7v852m6xfad2fzn1g,3atthhxxwe1for346hznc0epnjoxib,72Gwf6I1,2020-0188,2021-10-17,11:20:47,12:26:11,NA,incomplete,false,NA,true,1,1,NA,NA,NA,left,present,NA,NA,n_l_106.jpg,purple,m_s_001.jpg,orange,between,NA,NaN,NA,left,6123.5999999940395,1,2,2005.9000000059605
72Gwf6I1,3uy4pis8ruyxp7v852m6xfad2fzn1g,3atthhxxwe1for346hznc0epnjoxib,72Gwf6I1,2020-0188,2021-10-17,11:20:47,12:26:11,NA,incomplete,false,NA,true,1,2,NA,NA,NA,right,present,NA,NA,n_l_001.jpg,orange,m_s_103.jpg,orange,within,NA,NaN,NA,right,2367,1,1,2120.2000000178814
72Gwf6I1,3uy4pis8ruyxp7v852m6xfad2fzn1g,3atthhxxwe1for346hznc0epnjoxib,72Gwf6I1,2020-0188,2021-10-17,11:20:47,12:26:11,NA,incomplete,false,NA,true,1,3,NA,NA,NA,right,present,NA,NA,m_l_034.jpg,blue,m_s_072.jpg,yellow,between,NA,NaN,NA,right,3263.800000011921,1,2,3026.2000000178814
72Gwf6I1,3uy4pis8ruyxp7v852m6xfad2fzn1g,3atthhxxwe1for346hznc0epnjoxib,72Gwf6I1,2020-0188,2021-10-17,11:20:47,12:26:11,NA,incomplete,false,NA,true,1,4,NA,NA,NA,left,present,NA,NA,m_l_043.jpg,black,m_l_091.jpg,purple,between,NA,NaN,NA,left,4840,1,2,1421.5
72Gwf6I1,3uy4pis8ruyxp7v852m6xfad2fzn1g,3atthhxxwe1for346hznc0epnjoxib,72Gwf6I1,2020-0188,2021-10-17,11:20:47,12:26:11,NA,incomplete,false,NA,true,1,5,NA,NA,NA,right,present,NA,NA,n_l_055.jpg,yellow,m_s_020.jpg,green,between,NA,NaN,NA,right,5222.199999988079,1,2,1249.4000000059605
72Gwf6I1,3uy4pis8ruyxp7v852m6xfad2fzn1g,3atthhxxwe1for346hznc0epnjoxib,72Gwf6I1,2020-0188,2021-10-17,11:20:47,12:26:11,NA,incomplete,false,NA,true,1,6,NA,NA,NA,left,present,NA,NA,n_l_108.jpg,black,n_l_066.jpg,black,within,NA,NaN,NA,left,2765.199999988079,1,1,2317.9000000059605
72Gwf6I1,3uy4pis8ruyxp7v852m6xfad2fzn1g,3atthhxxwe1for346hznc0epnjoxib,72Gwf6I1,2020-0188,2021-10-17,11:20:47,12:26:11,NA,incomplete,false,NA,true,1,7,NA,NA,NA,left,present,NA,NA,m_s_055.jpg,green,n_l_101.jpg,green,within,NA,NaN,NA,right,6810,0,1,881.7999999821186
72Gwf6I1,3uy4pis8ruyxp7v852m6xfad2fzn1g,3atthhxxwe1for346hznc0epnjoxib,72Gwf6I1,2020-0188,2021-10-17,11:20:47,12:26:11,NA,incomplete,false,NA,true,1,8,NA,NA,NA,right,present,NA,NA,n_s_054.jpg,purple,n_l_096.jpg,purple,within,NA,NaN,NA,right,4224.4000000059605,1,1,828.3000000119209
72Gwf6I1,3uy4pis8ruyxp7v852m6xfad2fzn1g,3atthhxxwe1for346hznc0epnjoxib,72Gwf6I1,2020-0188,2021-10-17,11:20:47,12:26:11,NA,incomplete,false,NA,true,1,9,NA,NA,NA,right,present,NA,NA,m_s_046.jpg,yellow,m_s_030.jpg,yellow,within,NA,NaN,NA,right,1837.2999999821186,1,1,3697
72Gwf6I1,3uy4pis8ruyxp7v852m6xfad2fzn1g,3atthhxxwe1for346hznc0epnjoxib,72Gwf6I1,2020-0188,2021-10-17,11:20:47,12:26:11,NA,incomplete,false,NA,true,1,10,NA,NA,NA,left,present,NA,NA,n_s_077.jpg,blue,m_s_007.jpg,black,between,NA,NaN,NA,left,3825.800000011921,1,2,1612.0999999940395
72Gwf6I1,3uy4pis8ruyxp7v852m6xfad2fzn1g,3atthhxxwe1for346hznc0epnjoxib,72Gwf6I1,2020-0188,2021-10-17,11:20:47,12:26:11,NA,incomplete,false,true,NA,2,0,NA,brown,m_l_100.jpg,NA,NA,pleasant,unpleasant,NA,NA,NA,NA,NA,none,0,false,NA,NA,NA,NA,NA
72Gwf6I1,3uy4pis8ruyxp7v852m6xfad2fzn1g,3atthhxxwe1for346hznc0epnjoxib,72Gwf6I1,2020-0188,2021-10-17,11:20:47,12:26:11,NA,incomplete,false,true,NA,2,1,NA,brown,n_l_064.jpg,NA,NA,unpleasant,pleasant,NA,NA,NA,NA,NA,right,1792.39999997616,true,NA,NA,NA,NA,NA
72Gwf6I1,3uy4pis8ruyxp7v852m6xfad2fzn1g,3atthhxxwe1for346hznc0epnjoxib,72Gwf6I1,2020-0188,2021-10-17,11:20:47,12:26:11,NA,incomplete,false,true,NA,2,2,NA,brown,m_l_021.jpg,NA,NA,unpleasant,pleasant,NA,NA,NA,NA,NA,right,2401.5,true,NA,NA,NA,NA,NA
72Gwf6I1,3uy4pis8ruyxp7v852m6xfad2fzn1g,3atthhxxwe1for346hznc0epnjoxib,72Gwf6I1,2020-0188,2021-10-17,11:20:47,12:26:11,NA,incomplete,false,true,NA,2,3,NA,brown,m_l_040.jpg,NA,NA,pleasant,unpleasant,NA,NA,NA,NA,NA,left,2848,true,NA,NA,NA,NA,NA
72Gwf6I1,3uy4pis8ruyxp7v852m6xfad2fzn1g,3atthhxxwe1for346hznc0epnjoxib,72Gwf6I1,2020-0188,2021-10-17,11:20:47,12:26:11,NA,incomplete,false,true,NA,2,4,NA,brown,m_s_068.jpg,NA,NA,pleasant,unpleasant,NA,NA,NA,NA,NA,left,1269.09999999404,true,NA,NA,NA,NA,NA
72Gwf6I1,3uy4pis8ruyxp7v852m6xfad2fzn1g,3atthhxxwe1for346hznc0epnjoxib,72Gwf6I1,2020-0188,2021-10-17,11:20:47,12:26:11,NA,incomplete,false,true,NA,2,5,NA,brown,n_s_100.jpg,NA,NA,unpleasant,pleasant,NA,NA,NA,NA,NA,right,1838,true,NA,NA,NA,NA,NA
72Gwf6I1,3uy4pis8ruyxp7v852m6xfad2fzn1g,3atthhxxwe1for346hznc0epnjoxib,72Gwf6I1,2020-0188,2021-10-17,11:20:47,12:26:11,NA,incomplete,false,true,NA,2,6,NA,blue,n_l_100.jpg,NA,NA,pleasant,unpleasant,NA,NA,NA,NA,NA,left,2334.60000002384,true,NA,NA,NA,NA,NA
72Gwf6I1,3uy4pis8ruyxp7v852m6xfad2fzn1g,3atthhxxwe1for346hznc0epnjoxib,72Gwf6I1,2020-0188,2021-10-17,11:20:47,12:26:11,NA,incomplete,false,true,NA,2,7,NA,blue,m_s_052.jpg,NA,NA,pleasant,unpleasant,NA,NA,NA,NA,NA,left,1147.20000001788,true,NA,NA,NA,NA,NA
72Gwf6I1,3uy4pis8ruyxp7v852m6xfad2fzn1g,3atthhxxwe1for346hznc0epnjoxib,72Gwf6I1,2020-0188,2021-10-17,11:20:47,12:26:11,NA,incomplete,false,true,NA,2,8,NA,blue,n_s_113.jpg,NA,NA,unpleasant,pleasant,NA,NA,NA,NA,NA,right,1994.19999998808,true,NA,NA,NA,NA,NA
72Gwf6I1,3uy4pis8ruyxp7v852m6xfad2fzn1g,3atthhxxwe1for346hznc0epnjoxib,72Gwf6I1,2020-0188,2021-10-17,11:20:47,12:26:11,NA,incomplete,false,true,NA,2,9,NA,blue,m_l_077.jpg,NA,NA,pleasant,unpleasant,NA,NA,NA,NA,NA,left,1656.59999999404,true,NA,NA,NA,NA,NA
72Gwf6I1,3uy4pis8ruyxp7v852m6xfad2fzn1g,3atthhxxwe1for346hznc0epnjoxib,72Gwf6I1,2020-0188,2021-10-17,11:20:47,12:26:11,NA,incomplete,false,true,NA,2,10,NA,blue,n_s_031.jpg,NA,NA,pleasant,unpleasant,NA,NA,NA,NA,NA,right,1702,true,NA,NA,NA,NA,NA
72Gwf6I1,3uy4pis8ruyxp7v852m6xfad2fzn1g,3atthhxxwe1for346hznc0epnjoxib,72Gwf6I1,2020-0188,2021-10-17,11:20:47,12:26:11,NA,incomplete,false,true,NA,2,11,NA,blue,n_s_011.jpg,NA,NA,pleasant,unpleasant,NA,NA,NA,NA,NA,left,1413.40000000596,true,NA,NA,NA,NA,NA
72Gwf6I1,3uy4pis8ruyxp7v852m6xfad2fzn1g,3atthhxxwe1for346hznc0epnjoxib,72Gwf6I1,2020-0188,2021-10-17,11:20:47,12:26:11,NA,incomplete,false,true,NA,2,12,NA,gray,m_s_042.jpg,NA,NA,unpleasant,pleasant,NA,NA,NA,NA,NA,left,2147,true,NA,NA,NA,NA,NA
72Gwf6I1,3uy4pis8ruyxp7v852m6xfad2fzn1g,3atthhxxwe1for346hznc0epnjoxib,72Gwf6I1,2020-0188,2021-10-17,11:20:47,12:26:11,NA,incomplete,false,true,NA,2,13,NA,gray,m_l_008.jpg,NA,NA,unpleasant,pleasant,NA,NA,NA,NA,NA,right,1606.40000000596,true,NA,NA,NA,NA,NA
72Gwf6I1,3uy4pis8ruyxp7v852m6xfad2fzn1g,3atthhxxwe1for346hznc0epnjoxib,72Gwf6I1,2020-0188,2021-10-17,11:20:47,12:26:11,NA,incomplete,false,true,NA,2,14,NA,gray,m_s_070.jpg,NA,NA,unpleasant,pleasant,NA,NA,NA,NA,NA,left,1813,true,NA,NA,NA,NA,NA
72Gwf6I1,3uy4pis8ruyxp7v852m6xfad2fzn1g,3atthhxxwe1for346hznc0epnjoxib,72Gwf6I1,2020-0188,2021-10-17,11:20:47,12:26:11,NA,incomplete,false,true,NA,2,15,NA,gray,n_l_011.jpg,NA,NA,pleasant,unpleasant,NA,NA,NA,NA,NA,right,1278,true,NA,NA,NA,NA,NA
72Gwf6I1,3uy4pis8ruyxp7v852m6xfad2fzn1g,3atthhxxwe1for346hznc0epnjoxib,72Gwf6I1,2020-0188,2021-10-17,11:20:47,12:26:11,NA,incomplete,false,true,NA,2,16,NA,gray,n_s_098.jpg,NA,NA,pleasant,unpleasant,NA,NA,NA,NA,NA,right,1210.59999999404,true,NA,NA,NA,NA,NA
72Gwf6I1,3uy4pis8ruyxp7v852m6xfad2fzn1g,3atthhxxwe1for346hznc0epnjoxib,72Gwf6I1,2020-0188,2021-10-17,11:20:47,12:26:11,NA,incomplete,false,true,NA,2,17,NA,gray,m_l_110.jpg,NA,NA,unpleasant,pleasant,NA,NA,NA,NA,NA,right,1692.69999998808,true,NA,NA,NA,NA,NA
72Gwf6I1,3uy4pis8ruyxp7v852m6xfad2fzn1g,3atthhxxwe1for346hznc0epnjoxib,72Gwf6I1,2020-0188,2021-10-17,11:20:47,12:26:11,NA,incomplete,false,true,NA,2,18,NA,red,m_l_033.jpg,NA,NA,unpleasant,pleasant,NA,NA,NA,NA,NA,right,1970.30000001192,true,NA,NA,NA,NA,NA
72Gwf6I1,3uy4pis8ruyxp7v852m6xfad2fzn1g,3atthhxxwe1for346hznc0epnjoxib,72Gwf6I1,2020-0188,2021-10-17,11:20:47,12:26:11,NA,incomplete,false,true,NA,2,19,NA,red,n_s_090.jpg,NA,NA,unpleasant,pleasant,NA,NA,NA,NA,NA,right,1412.40000000596,true,NA,NA,NA,NA,NA
72Gwf6I1,3uy4pis8ruyxp7v852m6xfad2fzn1g,3atthhxxwe1for346hznc0epnjoxib,72Gwf6I1,2020-0188,2021-10-17,11:20:47,12:26:11,NA,incomplete,false,true,NA,2,20,NA,red,n_s_050.jpg,NA,NA,unpleasant,pleasant,NA,NA,NA,NA,NA,right,2002.20000001788,true,NA,NA,NA,NA,NA
72Gwf6I1,3uy4pis8ruyxp7v852m6xfad2fzn1g,3atthhxxwe1for346hznc0epnjoxib,72Gwf6I1,2020-0188,2021-10-17,11:20:47,12:26:11,NA,incomplete,false,true,NA,2,21,NA,red,n_s_026.jpg,NA,NA,pleasant,unpleasant,NA,NA,NA,NA,NA,right,1508.80000001192,true,NA,NA,NA,NA,NA
72Gwf6I1,3uy4pis8ruyxp7v852m6xfad2fzn1g,3atthhxxwe1for346hznc0epnjoxib,72Gwf6I1,2020-0188,2021-10-17,11:20:47,12:26:11,NA,incomplete,false,true,NA,2,22,NA,red,n_l_115.jpg,NA,NA,pleasant,unpleasant,NA,NA,NA,NA,NA,left,1462.59999999404,true,NA,NA,NA,NA,NA
72Gwf6I1,3uy4pis8ruyxp7v852m6xfad2fzn1g,3atthhxxwe1for346hznc0epnjoxib,72Gwf6I1,2020-0188,2021-10-17,11:20:47,12:26:11,NA,incomplete,false,true,NA,2,23,NA,red,n_l_107.jpg,NA,NA,pleasant,unpleasant,NA,NA,NA,NA,NA,right,1671.40000000596,true,NA,NA,NA,NA,NA
72Gwf6I1,3uy4pis8ruyxp7v852m6xfad2fzn1g,3atthhxxwe1for346hznc0epnjoxib,72Gwf6I1,2020-0188,2021-10-17,11:20:47,12:26:11,NA,incomplete,false,true,NA,2,24,NA,yellow,m_s_009.jpg,NA,NA,pleasant,unpleasant,NA,NA,NA,NA,NA,left,1863,true,NA,NA,NA,NA,NA
72Gwf6I1,3uy4pis8ruyxp7v852m6xfad2fzn1g,3atthhxxwe1for346hznc0epnjoxib,72Gwf6I1,2020-0188,2021-10-17,11:20:47,12:26:11,NA,incomplete,false,true,NA,2,25,NA,yellow,n_l_046.jpg,NA,NA,unpleasant,pleasant,NA,NA,NA,NA,NA,right,2070.19999998808,true,NA,NA,NA,NA,NA
72Gwf6I1,3uy4pis8ruyxp7v852m6xfad2fzn1g,3atthhxxwe1for346hznc0epnjoxib,72Gwf6I1,2020-0188,2021-10-17,11:20:47,12:26:11,NA,incomplete,false,true,NA,2,26,NA,yellow,m_s_066.jpg,NA,NA,pleasant,unpleasant,NA,NA,NA,NA,NA,right,1654.5,true,NA,NA,NA,NA,NA
72Gwf6I1,3uy4pis8ruyxp7v852m6xfad2fzn1g,3atthhxxwe1for346hznc0epnjoxib,72Gwf6I1,2020-0188,2021-10-17,11:20:47,12:26:11,NA,incomplete,false,true,NA,2,27,NA,yellow,n_l_030.jpg,NA,NA,pleasant,unpleasant,NA,NA,NA,NA,NA,left,1328.19999998808,true,NA,NA,NA,NA,NA
72Gwf6I1,3uy4pis8ruyxp7v852m6xfad2fzn1g,3atthhxxwe1for346hznc0epnjoxib,72Gwf6I1,2020-0188,2021-10-17,11:20:47,12:26:11,NA,incomplete,false,true,NA,2,28,NA,yellow,m_s_079.jpg,NA,NA,unpleasant,pleasant,NA,NA,NA,NA,NA,right,1571.90000000596,true,NA,NA,NA,NA,NA
72Gwf6I1,3uy4pis8ruyxp7v852m6xfad2fzn1g,3atthhxxwe1for346hznc0epnjoxib,72Gwf6I1,2020-0188,2021-10-17,11:20:47,12:26:11,NA,incomplete,false,true,NA,2,29,NA,yellow,n_s_117.jpg,NA,NA,unpleasant,pleasant,NA,NA,NA,NA,NA,left,1270.30000001192,true,NA,NA,NA,NA,NA
72Gwf6I1,3uy4pis8ruyxp7v852m6xfad2fzn1g,3atthhxxwe1for346hznc0epnjoxib,72Gwf6I1,2020-0188,2021-10-17,11:20:47,12:26:11,NA,incomplete,false,true,NA,2,30,NA,purple,n_l_056.jpg,NA,NA,unpleasant,pleasant,NA,NA,NA,NA,NA,right,1396.79999998212,true,NA,NA,NA,NA,NA
72Gwf6I1,3uy4pis8ruyxp7v852m6xfad2fzn1g,3atthhxxwe1for346hznc0epnjoxib,72Gwf6I1,2020-0188,2021-10-17,11:20:47,12:26:11,NA,incomplete,false,true,NA,2,31,NA,purple,n_l_081.jpg,NA,NA,pleasant,unpleasant,NA,NA,NA,NA,NA,left,1300.09999999404,true,NA,NA,NA,NA,NA
72Gwf6I1,3uy4pis8ruyxp7v852m6xfad2fzn1g,3atthhxxwe1for346hznc0epnjoxib,72Gwf6I1,2020-0188,2021-10-17,11:20:47,12:26:11,NA,incomplete,false,true,NA,2,32,NA,purple,n_s_064.jpg,NA,NA,unpleasant,pleasant,NA,NA,NA,NA,NA,right,1333.30000001192,true,NA,NA,NA,NA,NA
72Gwf6I1,3uy4pis8ruyxp7v852m6xfad2fzn1g,3atthhxxwe1for346hznc0epnjoxib,72Gwf6I1,2020-0188,2021-10-17,11:20:47,12:26:11,NA,incomplete,false,true,NA,2,33,NA,purple,m_s_010.jpg,NA,NA,pleasant,unpleasant,NA,NA,NA,NA,NA,left,1332.30000001192,true,NA,NA,NA,NA,NA
72Gwf6I1,3uy4pis8ruyxp7v852m6xfad2fzn1g,3atthhxxwe1for346hznc0epnjoxib,72Gwf6I1,2020-0188,2021-10-17,11:20:47,12:26:11,NA,incomplete,false,true,NA,2,34,NA,purple,n_s_019.jpg,NA,NA,unpleasant,pleasant,NA,NA,NA,NA,NA,right,1247.59999999404,true,NA,NA,NA,NA,NA
72Gwf6I1,3uy4pis8ruyxp7v852m6xfad2fzn1g,3atthhxxwe1for346hznc0epnjoxib,72Gwf6I1,2020-0188,2021-10-17,11:20:47,12:26:11,NA,incomplete,false,true,NA,2,35,NA,purple,m_l_028.jpg,NA,NA,pleasant,unpleasant,NA,NA,NA,NA,NA,left,1610.90000000596,true,NA,NA,NA,NA,NA
72Gwf6I1,3uy4pis8ruyxp7v852m6xfad2fzn1g,3atthhxxwe1for346hznc0epnjoxib,72Gwf6I1,2020-0188,2021-10-17,11:20:47,12:26:11,NA,incomplete,false,NA,true,2,0,NA,NA,NA,left,absent,NA,NA,m_l_008.jpg,gray,m_l_110.jpg,gray,within,NA,NaN,NA,left,5401.399999976158,1,1,2834.5
72Gwf6I1,3uy4pis8ruyxp7v852m6xfad2fzn1g,3atthhxxwe1for346hznc0epnjoxib,72Gwf6I1,2020-0188,2021-10-17,11:20:47,12:26:11,NA,incomplete,false,NA,true,2,1,NA,NA,NA,left,absent,NA,NA,m_s_068.jpg,brown,n_s_113.jpg,blue,between,NA,NaN,NA,left,3170.5999999940395,1,1,1071.9000000059605
72Gwf6I1,3uy4pis8ruyxp7v852m6xfad2fzn1g,3atthhxxwe1for346hznc0epnjoxib,72Gwf6I1,2020-0188,2021-10-17,11:20:47,12:26:11,NA,incomplete,false,NA,true,2,2,NA,NA,NA,left,absent,NA,NA,m_s_052.jpg,blue,n_s_011.jpg,blue,within,NA,NaN,NA,left,1990.699999988079,1,2,1550
72Gwf6I1,3uy4pis8ruyxp7v852m6xfad2fzn1g,3atthhxxwe1for346hznc0epnjoxib,72Gwf6I1,2020-0188,2021-10-17,11:20:47,12:26:11,NA,incomplete,false,NA,true,2,3,NA,NA,NA,left,absent,NA,NA,n_l_115.jpg,red,m_s_066.jpg,yellow,between,NA,NaN,NA,left,2699.9000000059605,1,1,1422.800000011921
72Gwf6I1,3uy4pis8ruyxp7v852m6xfad2fzn1g,3atthhxxwe1for346hznc0epnjoxib,72Gwf6I1,2020-0188,2021-10-17,11:20:47,12:26:11,NA,incomplete,false,NA,true,2,4,NA,NA,NA,left,absent,NA,NA,m_s_079.jpg,yellow,n_s_064.jpg,purple,between,NA,NaN,NA,left,2053.4000000059605,1,2,873.5999999940395
72Gwf6I1,3uy4pis8ruyxp7v852m6xfad2fzn1g,3atthhxxwe1for346hznc0epnjoxib,72Gwf6I1,2020-0188,2021-10-17,11:20:47,12:26:11,NA,incomplete,false,NA,true,2,5,NA,NA,NA,right,absent,NA,NA,n_s_100.jpg,brown,n_l_064.jpg,brown,within,NA,NaN,NA,right,2112.5999999940395,1,2,892.9000000059605
72Gwf6I1,3uy4pis8ruyxp7v852m6xfad2fzn1g,3atthhxxwe1for346hznc0epnjoxib,72Gwf6I1,2020-0188,2021-10-17,11:20:47,12:26:11,NA,incomplete,false,NA,true,2,6,NA,NA,NA,left,absent,NA,NA,n_s_090.jpg,red,n_l_107.jpg,red,within,NA,NaN,NA,right,4062.800000011921,0,2,791.0999999940395
72Gwf6I1,3uy4pis8ruyxp7v852m6xfad2fzn1g,3atthhxxwe1for346hznc0epnjoxib,72Gwf6I1,2020-0188,2021-10-17,11:20:47,12:26:11,NA,incomplete,false,NA,true,2,7,NA,NA,NA,right,absent,NA,NA,n_s_117.jpg,yellow,n_l_046.jpg,yellow,within,NA,NaN,NA,right,4127.200000017881,1,1,2527.7000000178814
72Gwf6I1,3uy4pis8ruyxp7v852m6xfad2fzn1g,3atthhxxwe1for346hznc0epnjoxib,72Gwf6I1,2020-0188,2021-10-17,11:20:47,12:26:11,NA,incomplete,false,NA,true,2,8,NA,NA,NA,right,absent,NA,NA,m_l_028.jpg,purple,n_l_081.jpg,purple,within,NA,NaN,NA,right,1624,1,2,2640.4000000059605
72Gwf6I1,3uy4pis8ruyxp7v852m6xfad2fzn1g,3atthhxxwe1for346hznc0epnjoxib,72Gwf6I1,2020-0188,2021-10-17,11:20:47,12:26:11,NA,incomplete,false,NA,true,2,9,NA,NA,NA,left,absent,NA,NA,n_s_098.jpg,gray,n_s_050.jpg,red,between,NA,NaN,NA,right,2551.699999988079,0,1,1302.800000011921
72Gwf6I1,3uy4pis8ruyxp7v852m6xfad2fzn1g,3atthhxxwe1for346hznc0epnjoxib,72Gwf6I1,2020-0188,2021-10-17,11:20:47,12:26:11,NA,incomplete,false,NA,true,2,10,NA,NA,NA,left,absent,NA,NA,n_s_031.jpg,blue,m_s_070.jpg,gray,between,NA,NaN,NA,left,2382.4000000059605,1,2,1148.4000000059605
72Gwf6I1,3uy4pis8ruyxp7v852m6xfad2fzn1g,3atthhxxwe1for346hznc0epnjoxib,72Gwf6I1,2020-0188,2021-10-17,11:20:47,12:26:11,NA,incomplete,false,true,NA,3,0,NA,red,m_l_089.jpg,NA,NA,unpleasant,pleasant,NA,NA,NA,NA,NA,right,2490.59999999404,true,NA,NA,NA,NA,NA
72Gwf6I1,3uy4pis8ruyxp7v852m6xfad2fzn1g,3atthhxxwe1for346hznc0epnjoxib,72Gwf6I1,2020-0188,2021-10-17,11:20:47,12:26:11,NA,incomplete,false,true,NA,3,1,NA,red,n_s_042.jpg,NA,NA,pleasant,unpleasant,NA,NA,NA,NA,NA,right,2151.59999999404,true,NA,NA,NA,NA,NA
72Gwf6I1,3uy4pis8ruyxp7v852m6xfad2fzn1g,3atthhxxwe1for346hznc0epnjoxib,72Gwf6I1,2020-0188,2021-10-17,11:20:47,12:26:11,NA,incomplete,false,true,NA,3,2,NA,red,n_l_041.jpg,NA,NA,unpleasant,pleasant,NA,NA,NA,NA,NA,left,2047.70000001788,true,NA,NA,NA,NA,NA
72Gwf6I1,3uy4pis8ruyxp7v852m6xfad2fzn1g,3atthhxxwe1for346hznc0epnjoxib,72Gwf6I1,2020-0188,2021-10-17,11:20:47,12:26:11,NA,incomplete,false,true,NA,3,3,NA,red,n_l_047.jpg,NA,NA,unpleasant,pleasant,NA,NA,NA,NA,NA,right,1542.19999998808,true,NA,NA,NA,NA,NA
72Gwf6I1,3uy4pis8ruyxp7v852m6xfad2fzn1g,3atthhxxwe1for346hznc0epnjoxib,72Gwf6I1,2020-0188,2021-10-17,11:20:47,12:26:11,NA,incomplete,false,true,NA,3,4,NA,red,n_l_020.jpg,NA,NA,pleasant,unpleasant,NA,NA,NA,NA,NA,left,1344.30000001192,true,NA,NA,NA,NA,NA
72Gwf6I1,3uy4pis8ruyxp7v852m6xfad2fzn1g,3atthhxxwe1for346hznc0epnjoxib,72Gwf6I1,2020-0188,2021-10-17,11:20:47,12:26:11,NA,incomplete,false,true,NA,3,5,NA,red,m_l_063.jpg,NA,NA,pleasant,unpleasant,NA,NA,NA,NA,NA,left,1627.5,true,NA,NA,NA,NA,NA
72Gwf6I1,3uy4pis8ruyxp7v852m6xfad2fzn1g,3atthhxxwe1for346hznc0epnjoxib,72Gwf6I1,2020-0188,2021-10-17,11:20:47,12:26:11,NA,incomplete,false,true,NA,3,6,NA,gray,m_l_014.jpg,NA,NA,unpleasant,pleasant,NA,NA,NA,NA,NA,right,1650.80000001192,true,NA,NA,NA,NA,NA
72Gwf6I1,3uy4pis8ruyxp7v852m6xfad2fzn1g,3atthhxxwe1for346hznc0epnjoxib,72Gwf6I1,2020-0188,2021-10-17,11:20:47,12:26:11,NA,incomplete,false,true,NA,3,7,NA,gray,n_l_085.jpg,NA,NA,pleasant,unpleasant,NA,NA,NA,NA,NA,left,1859,true,NA,NA,NA,NA,NA
72Gwf6I1,3uy4pis8ruyxp7v852m6xfad2fzn1g,3atthhxxwe1for346hznc0epnjoxib,72Gwf6I1,2020-0188,2021-10-17,11:20:47,12:26:11,NA,incomplete,false,true,NA,3,8,NA,gray,m_l_011.jpg,NA,NA,pleasant,unpleasant,NA,NA,NA,NA,NA,left,1560.20000001788,true,NA,NA,NA,NA,NA
72Gwf6I1,3uy4pis8ruyxp7v852m6xfad2fzn1g,3atthhxxwe1for346hznc0epnjoxib,72Gwf6I1,2020-0188,2021-10-17,11:20:47,12:26:11,NA,incomplete,false,true,NA,3,9,NA,gray,m_l_027.jpg,NA,NA,unpleasant,pleasant,NA,NA,NA,NA,NA,left,2107.09999999404,true,NA,NA,NA,NA,NA
72Gwf6I1,3uy4pis8ruyxp7v852m6xfad2fzn1g,3atthhxxwe1for346hznc0epnjoxib,72Gwf6I1,2020-0188,2021-10-17,11:20:47,12:26:11,NA,incomplete,false,true,NA,3,10,NA,gray,n_l_099.jpg,NA,NA,pleasant,unpleasant,NA,NA,NA,NA,NA,right,1713.79999998212,true,NA,NA,NA,NA,NA
72Gwf6I1,3uy4pis8ruyxp7v852m6xfad2fzn1g,3atthhxxwe1for346hznc0epnjoxib,72Gwf6I1,2020-0188,2021-10-17,11:20:47,12:26:11,NA,incomplete,false,true,NA,3,11,NA,gray,n_l_086.jpg,NA,NA,pleasant,unpleasant,NA,NA,NA,NA,NA,right,1660.80000001192,true,NA,NA,NA,NA,NA
72Gwf6I1,3uy4pis8ruyxp7v852m6xfad2fzn1g,3atthhxxwe1for346hznc0epnjoxib,72Gwf6I1,2020-0188,2021-10-17,11:20:47,12:26:11,NA,incomplete,false,true,NA,3,12,NA,blue,m_s_018.jpg,NA,NA,pleasant,unpleasant,NA,NA,NA,NA,NA,left,1805.19999998808,true,NA,NA,NA,NA,NA
72Gwf6I1,3uy4pis8ruyxp7v852m6xfad2fzn1g,3atthhxxwe1for346hznc0epnjoxib,72Gwf6I1,2020-0188,2021-10-17,11:20:47,12:26:11,NA,incomplete,false,true,NA,3,13,NA,blue,n_s_059.jpg,NA,NA,unpleasant,pleasant,NA,NA,NA,NA,NA,right,1996.40000000596,true,NA,NA,NA,NA,NA
72Gwf6I1,3uy4pis8ruyxp7v852m6xfad2fzn1g,3atthhxxwe1for346hznc0epnjoxib,72Gwf6I1,2020-0188,2021-10-17,11:20:47,12:26:11,NA,incomplete,false,true,NA,3,14,NA,blue,n_s_072.jpg,NA,NA,pleasant,unpleasant,NA,NA,NA,NA,NA,left,1185.29999998212,true,NA,NA,NA,NA,NA
72Gwf6I1,3uy4pis8ruyxp7v852m6xfad2fzn1g,3atthhxxwe1for346hznc0epnjoxib,72Gwf6I1,2020-0188,2021-10-17,11:20:47,12:26:11,NA,incomplete,false,true,NA,3,15,NA,blue,m_s_109.jpg,NA,NA,pleasant,unpleasant,NA,NA,NA,NA,NA,left,1152.09999999404,true,NA,NA,NA,NA,NA
72Gwf6I1,3uy4pis8ruyxp7v852m6xfad2fzn1g,3atthhxxwe1for346hznc0epnjoxib,72Gwf6I1,2020-0188,2021-10-17,11:20:47,12:26:11,NA,incomplete,false,true,NA,3,16,NA,blue,n_l_109.jpg,NA,NA,unpleasant,pleasant,NA,NA,NA,NA,NA,left,1554.69999998808,true,NA,NA,NA,NA,NA
72Gwf6I1,3uy4pis8ruyxp7v852m6xfad2fzn1g,3atthhxxwe1for346hznc0epnjoxib,72Gwf6I1,2020-0188,2021-10-17,11:20:47,12:26:11,NA,incomplete,false,true,NA,3,17,NA,blue,m_s_059.jpg,NA,NA,unpleasant,pleasant,NA,NA,NA,NA,NA,left,1739.59999999404,true,NA,NA,NA,NA,NA
72Gwf6I1,3uy4pis8ruyxp7v852m6xfad2fzn1g,3atthhxxwe1for346hznc0epnjoxib,72Gwf6I1,2020-0188,2021-10-17,11:20:47,12:26:11,NA,incomplete,false,true,NA,3,18,NA,green,m_s_006.jpg,NA,NA,unpleasant,pleasant,NA,NA,NA,NA,NA,right,1492.59999999404,true,NA,NA,NA,NA,NA
72Gwf6I1,3uy4pis8ruyxp7v852m6xfad2fzn1g,3atthhxxwe1for346hznc0epnjoxib,72Gwf6I1,2020-0188,2021-10-17,11:20:47,12:26:11,NA,incomplete,false,true,NA,3,19,NA,green,m_s_080.jpg,NA,NA,unpleasant,pleasant,NA,NA,NA,NA,NA,right,1246.90000000596,true,NA,NA,NA,NA,NA
72Gwf6I1,3uy4pis8ruyxp7v852m6xfad2fzn1g,3atthhxxwe1for346hznc0epnjoxib,72Gwf6I1,2020-0188,2021-10-17,11:20:47,12:26:11,NA,incomplete,false,true,NA,3,20,NA,green,m_l_109.jpg,NA,NA,pleasant,unpleasant,NA,NA,NA,NA,NA,right,1576.09999999404,true,NA,NA,NA,NA,NA
72Gwf6I1,3uy4pis8ruyxp7v852m6xfad2fzn1g,3atthhxxwe1for346hznc0epnjoxib,72Gwf6I1,2020-0188,2021-10-17,11:20:47,12:26:11,NA,incomplete,false,true,NA,3,21,NA,green,m_s_094.jpg,NA,NA,pleasant,unpleasant,NA,NA,NA,NA,NA,right,1755.29999998212,true,NA,NA,NA,NA,NA
72Gwf6I1,3uy4pis8ruyxp7v852m6xfad2fzn1g,3atthhxxwe1for346hznc0epnjoxib,72Gwf6I1,2020-0188,2021-10-17,11:20:47,12:26:11,NA,incomplete,false,true,NA,3,22,NA,green,m_s_017.jpg,NA,NA,unpleasant,pleasant,NA,NA,NA,NA,NA,left,1720.5,true,NA,NA,NA,NA,NA
72Gwf6I1,3uy4pis8ruyxp7v852m6xfad2fzn1g,3atthhxxwe1for346hznc0epnjoxib,72Gwf6I1,2020-0188,2021-10-17,11:20:47,12:26:11,NA,incomplete,false,true,NA,3,23,NA,green,n_s_023.jpg,NA,NA,pleasant,unpleasant,NA,NA,NA,NA,NA,left,1458.30000001192,true,NA,NA,NA,NA,NA
72Gwf6I1,3uy4pis8ruyxp7v852m6xfad2fzn1g,3atthhxxwe1for346hznc0epnjoxib,72Gwf6I1,2020-0188,2021-10-17,11:20:47,12:26:11,NA,incomplete,false,true,NA,3,24,NA,purple,n_s_112.jpg,NA,NA,unpleasant,pleasant,NA,NA,NA,NA,NA,right,1436.90000000596,true,NA,NA,NA,NA,NA
72Gwf6I1,3uy4pis8ruyxp7v852m6xfad2fzn1g,3atthhxxwe1for346hznc0epnjoxib,72Gwf6I1,2020-0188,2021-10-17,11:20:47,12:26:11,NA,incomplete,false,true,NA,3,25,NA,purple,n_l_016.jpg,NA,NA,pleasant,unpleasant,NA,NA,NA,NA,NA,left,1319.09999999404,true,NA,NA,NA,NA,NA
72Gwf6I1,3uy4pis8ruyxp7v852m6xfad2fzn1g,3atthhxxwe1for346hznc0epnjoxib,72Gwf6I1,2020-0188,2021-10-17,11:20:47,12:26:11,NA,incomplete,false,true,NA,3,26,NA,purple,n_l_065.jpg,NA,NA,pleasant,unpleasant,NA,NA,NA,NA,NA,right,1377.69999998808,true,NA,NA,NA,NA,NA
72Gwf6I1,3uy4pis8ruyxp7v852m6xfad2fzn1g,3atthhxxwe1for346hznc0epnjoxib,72Gwf6I1,2020-0188,2021-10-17,11:20:47,12:26:11,NA,incomplete,false,true,NA,3,27,NA,purple,n_l_058.jpg,NA,NA,unpleasant,pleasant,NA,NA,NA,NA,NA,right,1525.89999997616,true,NA,NA,NA,NA,NA
72Gwf6I1,3uy4pis8ruyxp7v852m6xfad2fzn1g,3atthhxxwe1for346hznc0epnjoxib,72Gwf6I1,2020-0188,2021-10-17,11:20:47,12:26:11,NA,incomplete,false,true,NA,3,28,NA,purple,n_s_086.jpg,NA,NA,unpleasant,pleasant,NA,NA,NA,NA,NA,right,1406.20000001788,true,NA,NA,NA,NA,NA
72Gwf6I1,3uy4pis8ruyxp7v852m6xfad2fzn1g,3atthhxxwe1for346hznc0epnjoxib,72Gwf6I1,2020-0188,2021-10-17,11:20:47,12:26:11,NA,incomplete,false,true,NA,3,29,NA,purple,n_l_008.jpg,NA,NA,pleasant,unpleasant,NA,NA,NA,NA,NA,right,1952.09999999404,true,NA,NA,NA,NA,NA
72Gwf6I1,3uy4pis8ruyxp7v852m6xfad2fzn1g,3atthhxxwe1for346hznc0epnjoxib,72Gwf6I1,2020-0188,2021-10-17,11:20:47,12:26:11,NA,incomplete,false,true,NA,3,30,NA,brown,n_s_004.jpg,NA,NA,unpleasant,pleasant,NA,NA,NA,NA,NA,left,1279.5,true,NA,NA,NA,NA,NA
72Gwf6I1,3uy4pis8ruyxp7v852m6xfad2fzn1g,3atthhxxwe1for346hznc0epnjoxib,72Gwf6I1,2020-0188,2021-10-17,11:20:47,12:26:11,NA,incomplete,false,true,NA,3,31,NA,brown,n_l_082.jpg,NA,NA,pleasant,unpleasant,NA,NA,NA,NA,NA,left,1196.10000002384,true,NA,NA,NA,NA,NA
72Gwf6I1,3uy4pis8ruyxp7v852m6xfad2fzn1g,3atthhxxwe1for346hznc0epnjoxib,72Gwf6I1,2020-0188,2021-10-17,11:20:47,12:26:11,NA,incomplete,false,true,NA,3,32,NA,brown,m_s_032.jpg,NA,NA,pleasant,unpleasant,NA,NA,NA,NA,NA,right,1921.20000001788,true,NA,NA,NA,NA,NA
72Gwf6I1,3uy4pis8ruyxp7v852m6xfad2fzn1g,3atthhxxwe1for346hznc0epnjoxib,72Gwf6I1,2020-0188,2021-10-17,11:20:47,12:26:11,NA,incomplete,false,true,NA,3,33,NA,brown,n_l_104.jpg,NA,NA,unpleasant,pleasant,NA,NA,NA,NA,NA,right,1718.69999998808,true,NA,NA,NA,NA,NA
72Gwf6I1,3uy4pis8ruyxp7v852m6xfad2fzn1g,3atthhxxwe1for346hznc0epnjoxib,72Gwf6I1,2020-0188,2021-10-17,11:20:47,12:26:11,NA,incomplete,false,true,NA,3,34,NA,brown,n_l_102.jpg,NA,NA,unpleasant,pleasant,NA,NA,NA,NA,NA,right,1293,true,NA,NA,NA,NA,NA
72Gwf6I1,3uy4pis8ruyxp7v852m6xfad2fzn1g,3atthhxxwe1for346hznc0epnjoxib,72Gwf6I1,2020-0188,2021-10-17,11:20:47,12:26:11,NA,incomplete,false,true,NA,3,35,NA,brown,n_s_039.jpg,NA,NA,pleasant,unpleasant,NA,NA,NA,NA,NA,left,1308.40000000596,true,NA,NA,NA,NA,NA
72Gwf6I1,3uy4pis8ruyxp7v852m6xfad2fzn1g,3atthhxxwe1for346hznc0epnjoxib,72Gwf6I1,2020-0188,2021-10-17,11:20:47,12:26:11,NA,incomplete,false,NA,true,3,0,NA,NA,NA,right,absent,NA,NA,n_s_072.jpg,blue,n_l_099.jpg,gray,between,NA,NaN,NA,left,3230.300000011921,0,2,1150.2000000178814
72Gwf6I1,3uy4pis8ruyxp7v852m6xfad2fzn1g,3atthhxxwe1for346hznc0epnjoxib,72Gwf6I1,2020-0188,2021-10-17,11:20:47,12:26:11,NA,incomplete,false,NA,true,3,1,NA,NA,NA,right,absent,NA,NA,m_s_059.jpg,blue,n_s_059.jpg,blue,within,NA,NaN,NA,right,3210.2000000178814,1,1,1263.800000011921
72Gwf6I1,3uy4pis8ruyxp7v852m6xfad2fzn1g,3atthhxxwe1for346hznc0epnjoxib,72Gwf6I1,2020-0188,2021-10-17,11:20:47,12:26:11,NA,incomplete,false,NA,true,3,2,NA,NA,NA,left,absent,NA,NA,n_l_082.jpg,brown,n_s_039.jpg,brown,within,NA,NaN,NA,left,2045,1,1,1148.8999999761581
72Gwf6I1,3uy4pis8ruyxp7v852m6xfad2fzn1g,3atthhxxwe1for346hznc0epnjoxib,72Gwf6I1,2020-0188,2021-10-17,11:20:47,12:26:11,NA,incomplete,false,NA,true,3,3,NA,NA,NA,right,absent,NA,NA,n_l_065.jpg,purple,m_s_017.jpg,green,between,NA,NaN,NA,right,1393.5999999940395,1,2,814.0999999940395
72Gwf6I1,3uy4pis8ruyxp7v852m6xfad2fzn1g,3atthhxxwe1for346hznc0epnjoxib,72Gwf6I1,2020-0188,2021-10-17,11:20:47,12:26:11,NA,incomplete,false,NA,true,3,4,NA,NA,NA,right,absent,NA,NA,n_l_008.jpg,purple,n_l_016.jpg,purple,within,NA,NaN,NA,right,2982.2000000178814,1,1,952.1000000238419
72Gwf6I1,3uy4pis8ruyxp7v852m6xfad2fzn1g,3atthhxxwe1for346hznc0epnjoxib,72Gwf6I1,2020-0188,2021-10-17,11:20:47,12:26:11,NA,incomplete,false,NA,true,3,5,NA,NA,NA,right,absent,NA,NA,m_l_011.jpg,gray,n_l_020.jpg,red,between,NA,NaN,NA,left,2383.4000000059605,0,2,737
72Gwf6I1,3uy4pis8ruyxp7v852m6xfad2fzn1g,3atthhxxwe1for346hznc0epnjoxib,72Gwf6I1,2020-0188,2021-10-17,11:20:47,12:26:11,NA,incomplete,false,NA,true,3,6,NA,NA,NA,right,absent,NA,NA,n_s_023.jpg,green,m_s_080.jpg,green,within,NA,NaN,NA,left,3601.5,0,1,1015.4000000059605
72Gwf6I1,3uy4pis8ruyxp7v852m6xfad2fzn1g,3atthhxxwe1for346hznc0epnjoxib,72Gwf6I1,2020-0188,2021-10-17,11:20:47,12:26:11,NA,incomplete,false,NA,true,3,7,NA,NA,NA,left,absent,NA,NA,n_l_085.jpg,gray,n_l_086.jpg,gray,within,NA,NaN,NA,left,2828.5,1,2,711.2000000178814
72Gwf6I1,3uy4pis8ruyxp7v852m6xfad2fzn1g,3atthhxxwe1for346hznc0epnjoxib,72Gwf6I1,2020-0188,2021-10-17,11:20:47,12:26:11,NA,incomplete,false,NA,true,3,8,NA,NA,NA,right,absent,NA,NA,m_l_109.jpg,green,n_l_109.jpg,blue,between,NA,NaN,NA,left,2756.7999999821186,0,1,758.5999999940395
72Gwf6I1,3uy4pis8ruyxp7v852m6xfad2fzn1g,3atthhxxwe1for346hznc0epnjoxib,72Gwf6I1,2020-0188,2021-10-17,11:20:47,12:26:11,NA,incomplete,false,NA,true,3,9,NA,NA,NA,left,absent,NA,NA,n_s_086.jpg,purple,m_s_032.jpg,brown,between,NA,NaN,NA,right,2821.7999999821186,0,1,787.5
72Gwf6I1,3uy4pis8ruyxp7v852m6xfad2fzn1g,3atthhxxwe1for346hznc0epnjoxib,72Gwf6I1,2020-0188,2021-10-17,11:20:47,12:26:11,NA,incomplete,false,NA,true,3,10,NA,NA,NA,right,absent,NA,NA,m_l_063.jpg,red,n_s_042.jpg,red,within,NA,NaN,NA,right,1527,1,2,919.1999999880791
72Gwf6I1,3uy4pis8ruyxp7v852m6xfad2fzn1g,3atthhxxwe1for346hznc0epnjoxib,72Gwf6I1,2020-0188,2021-10-17,11:20:47,12:26:11,NA,incomplete,false,true,NA,4,0,NA,orange,m_s_076.jpg,NA,NA,unpleasant,pleasant,NA,NA,NA,NA,NA,left,1932.90000000596,true,NA,NA,NA,NA,NA
72Gwf6I1,3uy4pis8ruyxp7v852m6xfad2fzn1g,3atthhxxwe1for346hznc0epnjoxib,72Gwf6I1,2020-0188,2021-10-17,11:20:47,12:26:11,NA,incomplete,false,true,NA,4,1,NA,orange,m_l_049.jpg,NA,NA,unpleasant,pleasant,NA,NA,NA,NA,NA,right,2019.59999999404,true,NA,NA,NA,NA,NA
72Gwf6I1,3uy4pis8ruyxp7v852m6xfad2fzn1g,3atthhxxwe1for346hznc0epnjoxib,72Gwf6I1,2020-0188,2021-10-17,11:20:47,12:26:11,NA,incomplete,false,true,NA,4,2,NA,orange,n_s_051.jpg,NA,NA,unpleasant,pleasant,NA,NA,NA,NA,NA,right,1740.69999998808,true,NA,NA,NA,NA,NA
72Gwf6I1,3uy4pis8ruyxp7v852m6xfad2fzn1g,3atthhxxwe1for346hznc0epnjoxib,72Gwf6I1,2020-0188,2021-10-17,11:20:47,12:26:11,NA,incomplete,false,true,NA,4,3,NA,orange,m_s_005.jpg,NA,NA,pleasant,unpleasant,NA,NA,NA,NA,NA,left,1708.19999998808,true,NA,NA,NA,NA,NA
72Gwf6I1,3uy4pis8ruyxp7v852m6xfad2fzn1g,3atthhxxwe1for346hznc0epnjoxib,72Gwf6I1,2020-0188,2021-10-17,11:20:47,12:26:11,NA,incomplete,false,true,NA,4,4,NA,orange,n_s_034.jpg,NA,NA,pleasant,unpleasant,NA,NA,NA,NA,NA,left,1623.29999998212,true,NA,NA,NA,NA,NA
72Gwf6I1,3uy4pis8ruyxp7v852m6xfad2fzn1g,3atthhxxwe1for346hznc0epnjoxib,72Gwf6I1,2020-0188,2021-10-17,11:20:47,12:26:11,NA,incomplete,false,true,NA,4,5,NA,orange,n_s_032.jpg,NA,NA,unpleasant,pleasant,NA,NA,NA,NA,NA,right,1277,true,NA,NA,NA,NA,NA
72Gwf6I1,3uy4pis8ruyxp7v852m6xfad2fzn1g,3atthhxxwe1for346hznc0epnjoxib,72Gwf6I1,2020-0188,2021-10-17,11:20:47,12:26:11,NA,incomplete,false,true,NA,4,6,NA,red,m_l_087.jpg,NA,NA,unpleasant,pleasant,NA,NA,NA,NA,NA,right,1155,true,NA,NA,NA,NA,NA
72Gwf6I1,3uy4pis8ruyxp7v852m6xfad2fzn1g,3atthhxxwe1for346hznc0epnjoxib,72Gwf6I1,2020-0188,2021-10-17,11:20:47,12:26:11,NA,incomplete,false,true,NA,4,7,NA,red,m_l_116.jpg,NA,NA,pleasant,unpleasant,NA,NA,NA,NA,NA,right,2043.19999998808,true,NA,NA,NA,NA,NA
72Gwf6I1,3uy4pis8ruyxp7v852m6xfad2fzn1g,3atthhxxwe1for346hznc0epnjoxib,72Gwf6I1,2020-0188,2021-10-17,11:20:47,12:26:11,NA,incomplete,false,true,NA,4,8,NA,red,m_s_029.jpg,NA,NA,unpleasant,pleasant,NA,NA,NA,NA,NA,left,1739.59999999404,true,NA,NA,NA,NA,NA
72Gwf6I1,3uy4pis8ruyxp7v852m6xfad2fzn1g,3atthhxxwe1for346hznc0epnjoxib,72Gwf6I1,2020-0188,2021-10-17,11:20:47,12:26:11,NA,incomplete,false,true,NA,4,9,NA,red,n_l_028.jpg,NA,NA,unpleasant,pleasant,NA,NA,NA,NA,NA,right,1323.19999998808,true,NA,NA,NA,NA,NA
72Gwf6I1,3uy4pis8ruyxp7v852m6xfad2fzn1g,3atthhxxwe1for346hznc0epnjoxib,72Gwf6I1,2020-0188,2021-10-17,11:20:47,12:26:11,NA,incomplete,false,true,NA,4,10,NA,red,n_s_035.jpg,NA,NA,unpleasant,pleasant,NA,NA,NA,NA,NA,right,1348.20000001788,true,NA,NA,NA,NA,NA
72Gwf6I1,3uy4pis8ruyxp7v852m6xfad2fzn1g,3atthhxxwe1for346hznc0epnjoxib,72Gwf6I1,2020-0188,2021-10-17,11:20:47,12:26:11,NA,incomplete,false,true,NA,4,11,NA,red,n_s_016.jpg,NA,NA,pleasant,unpleasant,NA,NA,NA,NA,NA,left,1437.59999999404,true,NA,NA,NA,NA,NA
72Gwf6I1,3uy4pis8ruyxp7v852m6xfad2fzn1g,3atthhxxwe1for346hznc0epnjoxib,72Gwf6I1,2020-0188,2021-10-17,11:20:47,12:26:11,NA,incomplete,false,true,NA,4,12,NA,purple,n_s_029.jpg,NA,NA,unpleasant,pleasant,NA,NA,NA,NA,NA,right,1331.89999997616,true,NA,NA,NA,NA,NA
72Gwf6I1,3uy4pis8ruyxp7v852m6xfad2fzn1g,3atthhxxwe1for346hznc0epnjoxib,72Gwf6I1,2020-0188,2021-10-17,11:20:47,12:26:11,NA,incomplete,false,true,NA,4,13,NA,purple,n_s_058.jpg,NA,NA,pleasant,unpleasant,NA,NA,NA,NA,NA,left,1380.19999998808,true,NA,NA,NA,NA,NA
72Gwf6I1,3uy4pis8ruyxp7v852m6xfad2fzn1g,3atthhxxwe1for346hznc0epnjoxib,72Gwf6I1,2020-0188,2021-10-17,11:20:47,12:26:11,NA,incomplete,false,true,NA,4,14,NA,purple,n_s_056.jpg,NA,NA,unpleasant,pleasant,NA,NA,NA,NA,NA,right,1459.09999999404,true,NA,NA,NA,NA,NA
72Gwf6I1,3uy4pis8ruyxp7v852m6xfad2fzn1g,3atthhxxwe1for346hznc0epnjoxib,72Gwf6I1,2020-0188,2021-10-17,11:20:47,12:26:11,NA,incomplete,false,true,NA,4,15,NA,purple,m_l_025.jpg,NA,NA,unpleasant,pleasant,NA,NA,NA,NA,NA,right,1301.69999998808,true,NA,NA,NA,NA,NA
72Gwf6I1,3uy4pis8ruyxp7v852m6xfad2fzn1g,3atthhxxwe1for346hznc0epnjoxib,72Gwf6I1,2020-0188,2021-10-17,11:20:47,12:26:11,NA,incomplete,false,true,NA,4,16,NA,purple,n_s_013.jpg,NA,NA,pleasant,unpleasant,NA,NA,NA,NA,NA,left,1211.29999998212,true,NA,NA,NA,NA,NA
72Gwf6I1,3uy4pis8ruyxp7v852m6xfad2fzn1g,3atthhxxwe1for346hznc0epnjoxib,72Gwf6I1,2020-0188,2021-10-17,11:20:47,12:26:11,NA,incomplete,false,true,NA,4,17,NA,purple,m_l_015.jpg,NA,NA,pleasant,unpleasant,NA,NA,NA,NA,NA,left,1269.39999997616,true,NA,NA,NA,NA,NA
72Gwf6I1,3uy4pis8ruyxp7v852m6xfad2fzn1g,3atthhxxwe1for346hznc0epnjoxib,72Gwf6I1,2020-0188,2021-10-17,11:20:47,12:26:11,NA,incomplete,false,true,NA,4,18,NA,gray,n_s_057.jpg,NA,NA,pleasant,unpleasant,NA,NA,NA,NA,NA,right,1518,true,NA,NA,NA,NA,NA
72Gwf6I1,3uy4pis8ruyxp7v852m6xfad2fzn1g,3atthhxxwe1for346hznc0epnjoxib,72Gwf6I1,2020-0188,2021-10-17,11:20:47,12:26:11,NA,incomplete,false,true,NA,4,19,NA,gray,m_s_004.jpg,NA,NA,unpleasant,pleasant,NA,NA,NA,NA,NA,right,1358.79999998212,true,NA,NA,NA,NA,NA
72Gwf6I1,3uy4pis8ruyxp7v852m6xfad2fzn1g,3atthhxxwe1for346hznc0epnjoxib,72Gwf6I1,2020-0188,2021-10-17,11:20:47,12:26:11,NA,incomplete,false,true,NA,4,20,NA,gray,n_s_108.jpg,NA,NA,pleasant,unpleasant,NA,NA,NA,NA,NA,right,1694.80000001192,true,NA,NA,NA,NA,NA
72Gwf6I1,3uy4pis8ruyxp7v852m6xfad2fzn1g,3atthhxxwe1for346hznc0epnjoxib,72Gwf6I1,2020-0188,2021-10-17,11:20:47,12:26:11,NA,incomplete,false,true,NA,4,21,NA,gray,n_l_077.jpg,NA,NA,pleasant,unpleasant,NA,NA,NA,NA,NA,right,1123,true,NA,NA,NA,NA,NA
72Gwf6I1,3uy4pis8ruyxp7v852m6xfad2fzn1g,3atthhxxwe1for346hznc0epnjoxib,72Gwf6I1,2020-0188,2021-10-17,11:20:47,12:26:11,NA,incomplete,false,true,NA,4,22,NA,gray,n_l_024.jpg,NA,NA,pleasant,unpleasant,NA,NA,NA,NA,NA,left,1332.5,true,NA,NA,NA,NA,NA
72Gwf6I1,3uy4pis8ruyxp7v852m6xfad2fzn1g,3atthhxxwe1for346hznc0epnjoxib,72Gwf6I1,2020-0188,2021-10-17,11:20:47,12:26:11,NA,incomplete,false,true,NA,4,23,NA,gray,m_s_085.jpg,NA,NA,pleasant,unpleasant,NA,NA,NA,NA,NA,right,1305.69999998808,true,NA,NA,NA,NA,NA
72Gwf6I1,3uy4pis8ruyxp7v852m6xfad2fzn1g,3atthhxxwe1for346hznc0epnjoxib,72Gwf6I1,2020-0188,2021-10-17,11:20:47,12:26:11,NA,incomplete,false,true,NA,4,24,NA,blue,n_l_032.jpg,NA,NA,unpleasant,pleasant,NA,NA,NA,NA,NA,right,1240.20000001788,true,NA,NA,NA,NA,NA
72Gwf6I1,3uy4pis8ruyxp7v852m6xfad2fzn1g,3atthhxxwe1for346hznc0epnjoxib,72Gwf6I1,2020-0188,2021-10-17,11:20:47,12:26:11,NA,incomplete,false,true,NA,4,25,NA,blue,n_s_052.jpg,NA,NA,unpleasant,pleasant,NA,NA,NA,NA,NA,right,954.5,true,NA,NA,NA,NA,NA
72Gwf6I1,3uy4pis8ruyxp7v852m6xfad2fzn1g,3atthhxxwe1for346hznc0epnjoxib,72Gwf6I1,2020-0188,2021-10-17,11:20:47,12:26:11,NA,incomplete,false,true,NA,4,26,NA,blue,m_s_021.jpg,NA,NA,pleasant,unpleasant,NA,NA,NA,NA,NA,left,1969.19999998808,true,NA,NA,NA,NA,NA
72Gwf6I1,3uy4pis8ruyxp7v852m6xfad2fzn1g,3atthhxxwe1for346hznc0epnjoxib,72Gwf6I1,2020-0188,2021-10-17,11:20:47,12:26:11,NA,incomplete,false,true,NA,4,27,NA,blue,n_l_044.jpg,NA,NA,pleasant,unpleasant,NA,NA,NA,NA,NA,left,1267.5,true,NA,NA,NA,NA,NA
72Gwf6I1,3uy4pis8ruyxp7v852m6xfad2fzn1g,3atthhxxwe1for346hznc0epnjoxib,72Gwf6I1,2020-0188,2021-10-17,11:20:47,12:26:11,NA,incomplete,false,true,NA,4,28,NA,blue,m_l_104.jpg,NA,NA,unpleasant,pleasant,NA,NA,NA,NA,NA,right,1090.09999999404,true,NA,NA,NA,NA,NA
72Gwf6I1,3uy4pis8ruyxp7v852m6xfad2fzn1g,3atthhxxwe1for346hznc0epnjoxib,72Gwf6I1,2020-0188,2021-10-17,11:20:47,12:26:11,NA,incomplete,false,true,NA,4,29,NA,blue,m_s_048.jpg,NA,NA,pleasant,unpleasant,NA,NA,NA,NA,NA,left,1479.59999999404,true,NA,NA,NA,NA,NA
72Gwf6I1,3uy4pis8ruyxp7v852m6xfad2fzn1g,3atthhxxwe1for346hznc0epnjoxib,72Gwf6I1,2020-0188,2021-10-17,11:20:47,12:26:11,NA,incomplete,false,true,NA,4,30,NA,brown,n_s_068.jpg,NA,NA,pleasant,unpleasant,NA,NA,NA,NA,NA,left,1488.59999999404,true,NA,NA,NA,NA,NA
72Gwf6I1,3uy4pis8ruyxp7v852m6xfad2fzn1g,3atthhxxwe1for346hznc0epnjoxib,72Gwf6I1,2020-0188,2021-10-17,11:20:47,12:26:11,NA,incomplete,false,true,NA,4,31,NA,brown,n_s_024.jpg,NA,NA,pleasant,unpleasant,NA,NA,NA,NA,NA,left,1299.90000000596,true,NA,NA,NA,NA,NA
72Gwf6I1,3uy4pis8ruyxp7v852m6xfad2fzn1g,3atthhxxwe1for346hznc0epnjoxib,72Gwf6I1,2020-0188,2021-10-17,11:20:47,12:26:11,NA,incomplete,false,true,NA,4,32,NA,brown,n_s_091.jpg,NA,NA,unpleasant,pleasant,NA,NA,NA,NA,NA,left,2054.5,true,NA,NA,NA,NA,NA
72Gwf6I1,3uy4pis8ruyxp7v852m6xfad2fzn1g,3atthhxxwe1for346hznc0epnjoxib,72Gwf6I1,2020-0188,2021-10-17,11:20:47,12:26:11,NA,incomplete,false,true,NA,4,33,NA,brown,m_l_102.jpg,NA,NA,unpleasant,pleasant,NA,NA,NA,NA,NA,right,1095.40000000596,true,NA,NA,NA,NA,NA
72Gwf6I1,3uy4pis8ruyxp7v852m6xfad2fzn1g,3atthhxxwe1for346hznc0epnjoxib,72Gwf6I1,2020-0188,2021-10-17,11:20:47,12:26:11,NA,incomplete,false,true,NA,4,34,NA,brown,m_s_026.jpg,NA,NA,pleasant,unpleasant,NA,NA,NA,NA,NA,left,1507.19999998808,true,NA,NA,NA,NA,NA
72Gwf6I1,3uy4pis8ruyxp7v852m6xfad2fzn1g,3atthhxxwe1for346hznc0epnjoxib,72Gwf6I1,2020-0188,2021-10-17,11:20:47,12:26:11,NA,incomplete,false,true,NA,4,35,NA,brown,n_l_117.jpg,NA,NA,unpleasant,pleasant,NA,NA,NA,NA,NA,right,1376.5,true,NA,NA,NA,NA,NA
72Gwf6I1,3uy4pis8ruyxp7v852m6xfad2fzn1g,3atthhxxwe1for346hznc0epnjoxib,72Gwf6I1,2020-0188,2021-10-17,11:20:47,12:26:11,NA,incomplete,false,NA,true,4,0,NA,NA,NA,right,present,NA,NA,m_s_048.jpg,blue,n_s_052.jpg,blue,within,NA,NaN,NA,left,3390.300000011921,0,1,995.6999999880791
72Gwf6I1,3uy4pis8ruyxp7v852m6xfad2fzn1g,3atthhxxwe1for346hznc0epnjoxib,72Gwf6I1,2020-0188,2021-10-17,11:20:47,12:26:11,NA,incomplete,false,NA,true,4,1,NA,NA,NA,right,present,NA,NA,m_s_085.jpg,gray,m_s_004.jpg,gray,within,NA,NaN,NA,left,2267.0999999940395,0,1,1108
72Gwf6I1,3uy4pis8ruyxp7v852m6xfad2fzn1g,3atthhxxwe1for346hznc0epnjoxib,72Gwf6I1,2020-0188,2021-10-17,11:20:47,12:26:11,NA,incomplete,false,NA,true,4,2,NA,NA,NA,right,present,NA,NA,m_s_029.jpg,red,n_s_034.jpg,orange,between,NA,NaN,NA,right,1751.5,1,2,928.4000000059605
72Gwf6I1,3uy4pis8ruyxp7v852m6xfad2fzn1g,3atthhxxwe1for346hznc0epnjoxib,72Gwf6I1,2020-0188,2021-10-17,11:20:47,12:26:11,NA,incomplete,false,NA,true,4,3,NA,NA,NA,left,present,NA,NA,n_s_024.jpg,brown,n_l_117.jpg,brown,within,NA,NaN,NA,right,4832.699999988079,0,1,822.5999999940395
72Gwf6I1,3uy4pis8ruyxp7v852m6xfad2fzn1g,3atthhxxwe1for346hznc0epnjoxib,72Gwf6I1,2020-0188,2021-10-17,11:20:47,12:26:11,NA,incomplete,false,NA,true,4,4,NA,NA,NA,right,present,NA,NA,m_s_021.jpg,blue,n_l_024.jpg,gray,between,NA,NaN,NA,right,4400.5,1,2,854
72Gwf6I1,3uy4pis8ruyxp7v852m6xfad2fzn1g,3atthhxxwe1for346hznc0epnjoxib,72Gwf6I1,2020-0188,2021-10-17,11:20:47,12:26:11,NA,incomplete,false,NA,true,4,5,NA,NA,NA,left,present,NA,NA,m_l_104.jpg,blue,n_s_091.jpg,brown,between,NA,NaN,NA,left,1957.1000000238419,1,2,730.1999999880791
72Gwf6I1,3uy4pis8ruyxp7v852m6xfad2fzn1g,3atthhxxwe1for346hznc0epnjoxib,72Gwf6I1,2020-0188,2021-10-17,11:20:47,12:26:11,NA,incomplete,false,NA,true,4,6,NA,NA,NA,left,present,NA,NA,m_l_116.jpg,red,n_s_016.jpg,red,within,NA,NaN,NA,left,3251.5,1,1,721.5
72Gwf6I1,3uy4pis8ruyxp7v852m6xfad2fzn1g,3atthhxxwe1for346hznc0epnjoxib,72Gwf6I1,2020-0188,2021-10-17,11:20:47,12:26:11,NA,incomplete,false,NA,true,4,7,NA,NA,NA,right,present,NA,NA,n_s_108.jpg,gray,n_s_013.jpg,purple,between,NA,NaN,NA,right,1845.6000000238419,1,2,1086.5
72Gwf6I1,3uy4pis8ruyxp7v852m6xfad2fzn1g,3atthhxxwe1for346hznc0epnjoxib,72Gwf6I1,2020-0188,2021-10-17,11:20:47,12:26:11,NA,incomplete,false,NA,true,4,8,NA,NA,NA,left,present,NA,NA,n_s_035.jpg,red,n_s_056.jpg,purple,between,NA,NaN,NA,right,5220.200000017881,0,2,1390.199999988079
72Gwf6I1,3uy4pis8ruyxp7v852m6xfad2fzn1g,3atthhxxwe1for346hznc0epnjoxib,72Gwf6I1,2020-0188,2021-10-17,11:20:47,12:26:11,NA,incomplete,false,NA,true,4,9,NA,NA,NA,left,present,NA,NA,n_s_058.jpg,purple,m_l_015.jpg,purple,within,NA,NaN,NA,left,2611.5,1,1,1356.8999999761581
72Gwf6I1,3uy4pis8ruyxp7v852m6xfad2fzn1g,3atthhxxwe1for346hznc0epnjoxib,72Gwf6I1,2020-0188,2021-10-17,11:20:47,12:26:11,NA,incomplete,false,NA,true,4,10,NA,NA,NA,left,present,NA,NA,m_l_049.jpg,orange,n_s_032.jpg,orange,within,NA,NaN,NA,left,1727.3999999761581,1,1,837.3000000119209
72Gwf6I1,3uy4pis8ruyxp7v852m6xfad2fzn1g,3atthhxxwe1for346hznc0epnjoxib,72Gwf6I1,2020-0188,2021-10-17,11:20:47,12:26:11,NA,incomplete,false,true,NA,5,0,NA,black,n_s_062.jpg,NA,NA,pleasant,unpleasant,NA,NA,NA,NA,NA,left,1492,true,NA,NA,NA,NA,NA
72Gwf6I1,3uy4pis8ruyxp7v852m6xfad2fzn1g,3atthhxxwe1for346hznc0epnjoxib,72Gwf6I1,2020-0188,2021-10-17,11:20:47,12:26:11,NA,incomplete,false,true,NA,5,1,NA,black,m_l_058.jpg,NA,NA,pleasant,unpleasant,NA,NA,NA,NA,NA,right,1107.89999997616,true,NA,NA,NA,NA,NA
72Gwf6I1,3uy4pis8ruyxp7v852m6xfad2fzn1g,3atthhxxwe1for346hznc0epnjoxib,72Gwf6I1,2020-0188,2021-10-17,11:20:47,12:26:11,NA,incomplete,false,true,NA,5,2,NA,black,m_l_075.jpg,NA,NA,pleasant,unpleasant,NA,NA,NA,NA,NA,left,1202.20000001788,true,NA,NA,NA,NA,NA
72Gwf6I1,3uy4pis8ruyxp7v852m6xfad2fzn1g,3atthhxxwe1for346hznc0epnjoxib,72Gwf6I1,2020-0188,2021-10-17,11:20:47,12:26:11,NA,incomplete,false,true,NA,5,3,NA,black,n_l_103.jpg,NA,NA,unpleasant,pleasant,NA,NA,NA,NA,NA,right,2555,true,NA,NA,NA,NA,NA
72Gwf6I1,3uy4pis8ruyxp7v852m6xfad2fzn1g,3atthhxxwe1for346hznc0epnjoxib,72Gwf6I1,2020-0188,2021-10-17,11:20:47,12:26:11,NA,incomplete,false,true,NA,5,4,NA,black,m_l_051.jpg,NA,NA,unpleasant,pleasant,NA,NA,NA,NA,NA,right,1864.80000001192,true,NA,NA,NA,NA,NA
72Gwf6I1,3uy4pis8ruyxp7v852m6xfad2fzn1g,3atthhxxwe1for346hznc0epnjoxib,72Gwf6I1,2020-0188,2021-10-17,11:20:47,12:26:11,NA,incomplete,false,true,NA,5,5,NA,black,n_l_063.jpg,NA,NA,unpleasant,pleasant,NA,NA,NA,NA,NA,left,2358.09999999404,true,NA,NA,NA,NA,NA
72Gwf6I1,3uy4pis8ruyxp7v852m6xfad2fzn1g,3atthhxxwe1for346hznc0epnjoxib,72Gwf6I1,2020-0188,2021-10-17,11:20:47,12:26:11,NA,incomplete,false,true,NA,5,6,NA,gray,m_l_003.jpg,NA,NA,unpleasant,pleasant,NA,NA,NA,NA,NA,right,1421.19999998808,true,NA,NA,NA,NA,NA
72Gwf6I1,3uy4pis8ruyxp7v852m6xfad2fzn1g,3atthhxxwe1for346hznc0epnjoxib,72Gwf6I1,2020-0188,2021-10-17,11:20:47,12:26:11,NA,incomplete,false,true,NA,5,7,NA,gray,m_s_100.jpg,NA,NA,pleasant,unpleasant,NA,NA,NA,NA,NA,left,1180.09999999404,true,NA,NA,NA,NA,NA
72Gwf6I1,3uy4pis8ruyxp7v852m6xfad2fzn1g,3atthhxxwe1for346hznc0epnjoxib,72Gwf6I1,2020-0188,2021-10-17,11:20:47,12:26:11,NA,incomplete,false,true,NA,5,8,NA,gray,m_s_116.jpg,NA,NA,unpleasant,pleasant,NA,NA,NA,NA,NA,left,2447,true,NA,NA,NA,NA,NA
72Gwf6I1,3uy4pis8ruyxp7v852m6xfad2fzn1g,3atthhxxwe1for346hznc0epnjoxib,72Gwf6I1,2020-0188,2021-10-17,11:20:47,12:26:11,NA,incomplete,false,true,NA,5,9,NA,gray,m_s_039.jpg,NA,NA,unpleasant,pleasant,NA,NA,NA,NA,NA,right,1200.09999999404,true,NA,NA,NA,NA,NA
72Gwf6I1,3uy4pis8ruyxp7v852m6xfad2fzn1g,3atthhxxwe1for346hznc0epnjoxib,72Gwf6I1,2020-0188,2021-10-17,11:20:47,12:26:11,NA,incomplete,false,true,NA,5,10,NA,gray,n_s_027.jpg,NA,NA,unpleasant,pleasant,NA,NA,NA,NA,NA,left,1288.69999998808,true,NA,NA,NA,NA,NA
72Gwf6I1,3uy4pis8ruyxp7v852m6xfad2fzn1g,3atthhxxwe1for346hznc0epnjoxib,72Gwf6I1,2020-0188,2021-10-17,11:20:47,12:26:11,NA,incomplete,false,true,NA,5,11,NA,gray,m_l_105.jpg,NA,NA,pleasant,unpleasant,NA,NA,NA,NA,NA,left,2109.90000000596,true,NA,NA,NA,NA,NA
72Gwf6I1,3uy4pis8ruyxp7v852m6xfad2fzn1g,3atthhxxwe1for346hznc0epnjoxib,72Gwf6I1,2020-0188,2021-10-17,11:20:47,12:26:11,NA,incomplete,false,true,NA,5,12,NA,white,m_l_098.jpg,NA,NA,unpleasant,pleasant,NA,NA,NA,NA,NA,left,2267.09999999404,true,NA,NA,NA,NA,NA
72Gwf6I1,3uy4pis8ruyxp7v852m6xfad2fzn1g,3atthhxxwe1for346hznc0epnjoxib,72Gwf6I1,2020-0188,2021-10-17,11:20:47,12:26:11,NA,incomplete,false,true,NA,5,13,NA,white,n_l_049.jpg,NA,NA,unpleasant,pleasant,NA,NA,NA,NA,NA,right,1108.30000001192,true,NA,NA,NA,NA,NA
72Gwf6I1,3uy4pis8ruyxp7v852m6xfad2fzn1g,3atthhxxwe1for346hznc0epnjoxib,72Gwf6I1,2020-0188,2021-10-17,11:20:47,12:26:11,NA,incomplete,false,true,NA,5,14,NA,white,n_s_045.jpg,NA,NA,pleasant,unpleasant,NA,NA,NA,NA,NA,left,1201.70000001788,true,NA,NA,NA,NA,NA
72Gwf6I1,3uy4pis8ruyxp7v852m6xfad2fzn1g,3atthhxxwe1for346hznc0epnjoxib,72Gwf6I1,2020-0188,2021-10-17,11:20:47,12:26:11,NA,incomplete,false,true,NA,5,15,NA,white,m_l_002.jpg,NA,NA,pleasant,unpleasant,NA,NA,NA,NA,NA,left,1296.5,true,NA,NA,NA,NA,NA
72Gwf6I1,3uy4pis8ruyxp7v852m6xfad2fzn1g,3atthhxxwe1for346hznc0epnjoxib,72Gwf6I1,2020-0188,2021-10-17,11:20:47,12:26:11,NA,incomplete,false,true,NA,5,16,NA,white,n_l_072.jpg,NA,NA,unpleasant,pleasant,NA,NA,NA,NA,NA,left,1792.40000000596,true,NA,NA,NA,NA,NA
72Gwf6I1,3uy4pis8ruyxp7v852m6xfad2fzn1g,3atthhxxwe1for346hznc0epnjoxib,72Gwf6I1,2020-0188,2021-10-17,11:20:47,12:26:11,NA,incomplete,false,true,NA,5,17,NA,white,n_l_038.jpg,NA,NA,pleasant,unpleasant,NA,NA,NA,NA,NA,left,2339.29999998212,true,NA,NA,NA,NA,NA
72Gwf6I1,3uy4pis8ruyxp7v852m6xfad2fzn1g,3atthhxxwe1for346hznc0epnjoxib,72Gwf6I1,2020-0188,2021-10-17,11:20:47,12:26:11,NA,incomplete,false,true,NA,5,18,NA,brown,n_s_025.jpg,NA,NA,unpleasant,pleasant,NA,NA,NA,NA,NA,left,1788.29999998212,true,NA,NA,NA,NA,NA
72Gwf6I1,3uy4pis8ruyxp7v852m6xfad2fzn1g,3atthhxxwe1for346hznc0epnjoxib,72Gwf6I1,2020-0188,2021-10-17,11:20:47,12:26:11,NA,incomplete,false,true,NA,5,19,NA,brown,m_l_001.jpg,NA,NA,unpleasant,pleasant,NA,NA,NA,NA,NA,left,1492.5,true,NA,NA,NA,NA,NA
72Gwf6I1,3uy4pis8ruyxp7v852m6xfad2fzn1g,3atthhxxwe1for346hznc0epnjoxib,72Gwf6I1,2020-0188,2021-10-17,11:20:47,12:26:11,NA,incomplete,false,true,NA,5,20,NA,brown,m_s_022.jpg,NA,NA,pleasant,unpleasant,NA,NA,NA,NA,NA,right,1790.09999999404,true,NA,NA,NA,NA,NA
72Gwf6I1,3uy4pis8ruyxp7v852m6xfad2fzn1g,3atthhxxwe1for346hznc0epnjoxib,72Gwf6I1,2020-0188,2021-10-17,11:20:47,12:26:11,NA,incomplete,false,true,NA,5,21,NA,brown,m_l_080.jpg,NA,NA,unpleasant,pleasant,NA,NA,NA,NA,NA,left,1250.90000000596,true,NA,NA,NA,NA,NA
72Gwf6I1,3uy4pis8ruyxp7v852m6xfad2fzn1g,3atthhxxwe1for346hznc0epnjoxib,72Gwf6I1,2020-0188,2021-10-17,11:20:47,12:26:11,NA,incomplete,false,true,NA,5,22,NA,brown,m_l_017.jpg,NA,NA,unpleasant,pleasant,NA,NA,NA,NA,NA,right,2010.09999999404,true,NA,NA,NA,NA,NA
72Gwf6I1,3uy4pis8ruyxp7v852m6xfad2fzn1g,3atthhxxwe1for346hznc0epnjoxib,72Gwf6I1,2020-0188,2021-10-17,11:20:47,12:26:11,NA,incomplete,false,true,NA,5,23,NA,brown,n_l_074.jpg,NA,NA,unpleasant,pleasant,NA,NA,NA,NA,NA,right,1218.5,true,NA,NA,NA,NA,NA
72Gwf6I1,3uy4pis8ruyxp7v852m6xfad2fzn1g,3atthhxxwe1for346hznc0epnjoxib,72Gwf6I1,2020-0188,2021-10-17,11:20:47,12:26:11,NA,incomplete,false,true,NA,5,24,NA,red,m_s_101.jpg,NA,NA,pleasant,unpleasant,NA,NA,NA,NA,NA,left,1452.59999999404,true,NA,NA,NA,NA,NA
72Gwf6I1,3uy4pis8ruyxp7v852m6xfad2fzn1g,3atthhxxwe1for346hznc0epnjoxib,72Gwf6I1,2020-0188,2021-10-17,11:20:47,12:26:11,NA,incomplete,false,true,NA,5,25,NA,red,n_s_003.jpg,NA,NA,unpleasant,pleasant,NA,NA,NA,NA,NA,left,1201.09999999404,true,NA,NA,NA,NA,NA
72Gwf6I1,3uy4pis8ruyxp7v852m6xfad2fzn1g,3atthhxxwe1for346hznc0epnjoxib,72Gwf6I1,2020-0188,2021-10-17,11:20:47,12:26:11,NA,incomplete,false,true,NA,5,26,NA,red,n_s_069.jpg,NA,NA,unpleasant,pleasant,NA,NA,NA,NA,NA,right,1445.59999999404,true,NA,NA,NA,NA,NA
72Gwf6I1,3uy4pis8ruyxp7v852m6xfad2fzn1g,3atthhxxwe1for346hznc0epnjoxib,72Gwf6I1,2020-0188,2021-10-17,11:20:47,12:26:11,NA,incomplete,false,true,NA,5,27,NA,red,n_s_006.jpg,NA,NA,unpleasant,pleasant,NA,NA,NA,NA,NA,right,1179.30000001192,true,NA,NA,NA,NA,NA
72Gwf6I1,3uy4pis8ruyxp7v852m6xfad2fzn1g,3atthhxxwe1for346hznc0epnjoxib,72Gwf6I1,2020-0188,2021-10-17,11:20:47,12:26:11,NA,incomplete,false,true,NA,5,28,NA,red,m_s_060.jpg,NA,NA,pleasant,unpleasant,NA,NA,NA,NA,NA,left,1761.90000000596,true,NA,NA,NA,NA,NA
72Gwf6I1,3uy4pis8ruyxp7v852m6xfad2fzn1g,3atthhxxwe1for346hznc0epnjoxib,72Gwf6I1,2020-0188,2021-10-17,11:20:47,12:26:11,NA,incomplete,false,true,NA,5,29,NA,red,m_l_073.jpg,NA,NA,unpleasant,pleasant,NA,NA,NA,NA,NA,none,0,false,NA,NA,NA,NA,NA
72Gwf6I1,3uy4pis8ruyxp7v852m6xfad2fzn1g,3atthhxxwe1for346hznc0epnjoxib,72Gwf6I1,2020-0188,2021-10-17,11:20:47,12:26:11,NA,incomplete,false,true,NA,5,30,NA,green,n_l_097.jpg,NA,NA,pleasant,unpleasant,NA,NA,NA,NA,NA,left,1066,true,NA,NA,NA,NA,NA
72Gwf6I1,3uy4pis8ruyxp7v852m6xfad2fzn1g,3atthhxxwe1for346hznc0epnjoxib,72Gwf6I1,2020-0188,2021-10-17,11:20:47,12:26:11,NA,incomplete,false,true,NA,5,31,NA,green,n_s_075.jpg,NA,NA,pleasant,unpleasant,NA,NA,NA,NA,NA,left,1372.29999998212,true,NA,NA,NA,NA,NA
72Gwf6I1,3uy4pis8ruyxp7v852m6xfad2fzn1g,3atthhxxwe1for346hznc0epnjoxib,72Gwf6I1,2020-0188,2021-10-17,11:20:47,12:26:11,NA,incomplete,false,true,NA,5,32,NA,green,m_s_019.jpg,NA,NA,unpleasant,pleasant,NA,NA,NA,NA,NA,right,1233.29999998212,true,NA,NA,NA,NA,NA
72Gwf6I1,3uy4pis8ruyxp7v852m6xfad2fzn1g,3atthhxxwe1for346hznc0epnjoxib,72Gwf6I1,2020-0188,2021-10-17,11:20:47,12:26:11,NA,incomplete,false,true,NA,5,33,NA,green,m_l_030.jpg,NA,NA,pleasant,unpleasant,NA,NA,NA,NA,NA,right,1736.20000001788,true,NA,NA,NA,NA,NA
72Gwf6I1,3uy4pis8ruyxp7v852m6xfad2fzn1g,3atthhxxwe1for346hznc0epnjoxib,72Gwf6I1,2020-0188,2021-10-17,11:20:47,12:26:11,NA,incomplete,false,true,NA,5,34,NA,green,m_l_074.jpg,NA,NA,unpleasant,pleasant,NA,NA,NA,NA,NA,right,1834.39999997616,true,NA,NA,NA,NA,NA
72Gwf6I1,3uy4pis8ruyxp7v852m6xfad2fzn1g,3atthhxxwe1for346hznc0epnjoxib,72Gwf6I1,2020-0188,2021-10-17,11:20:47,12:26:11,NA,incomplete,false,true,NA,5,35,NA,green,n_s_074.jpg,NA,NA,pleasant,unpleasant,NA,NA,NA,NA,NA,left,1034.90000000596,true,NA,NA,NA,NA,NA
72Gwf6I1,3uy4pis8ruyxp7v852m6xfad2fzn1g,3atthhxxwe1for346hznc0epnjoxib,72Gwf6I1,2020-0188,2021-10-17,11:20:47,12:26:11,NA,incomplete,false,NA,true,5,0,NA,NA,NA,left,present,NA,NA,m_l_001.jpg,brown,n_l_074.jpg,brown,within,NA,NaN,NA,right,2274.699999988079,0,1,799
72Gwf6I1,3uy4pis8ruyxp7v852m6xfad2fzn1g,3atthhxxwe1for346hznc0epnjoxib,72Gwf6I1,2020-0188,2021-10-17,11:20:47,12:26:11,NA,incomplete,false,NA,true,5,1,NA,NA,NA,left,present,NA,NA,n_s_003.jpg,red,m_l_073.jpg,red,within,NA,NaN,NA,left,2061.199999988079,1,1,802.1999999880791
72Gwf6I1,3uy4pis8ruyxp7v852m6xfad2fzn1g,3atthhxxwe1for346hznc0epnjoxib,72Gwf6I1,2020-0188,2021-10-17,11:20:47,12:26:11,NA,incomplete,false,NA,true,5,2,NA,NA,NA,right,present,NA,NA,n_l_063.jpg,black,m_l_058.jpg,black,within,NA,NaN,NA,right,1722.4000000059605,1,1,837.1999999880791
72Gwf6I1,3uy4pis8ruyxp7v852m6xfad2fzn1g,3atthhxxwe1for346hznc0epnjoxib,72Gwf6I1,2020-0188,2021-10-17,11:20:47,12:26:11,NA,incomplete,false,NA,true,5,3,NA,NA,NA,left,present,NA,NA,m_l_017.jpg,brown,n_s_069.jpg,red,between,NA,NaN,NA,left,3580.0999999940395,1,2,765.0999999940395
72Gwf6I1,3uy4pis8ruyxp7v852m6xfad2fzn1g,3atthhxxwe1for346hznc0epnjoxib,72Gwf6I1,2020-0188,2021-10-17,11:20:47,12:26:11,NA,incomplete,false,NA,true,5,4,NA,NA,NA,right,present,NA,NA,m_l_105.jpg,gray,m_s_100.jpg,gray,within,NA,NaN,NA,right,2088.2999999821186,1,1,756.0999999940395
72Gwf6I1,3uy4pis8ruyxp7v852m6xfad2fzn1g,3atthhxxwe1for346hznc0epnjoxib,72Gwf6I1,2020-0188,2021-10-17,11:20:47,12:26:11,NA,incomplete,false,NA,true,5,5,NA,NA,NA,left,present,NA,NA,n_s_075.jpg,green,n_s_074.jpg,green,within,NA,NaN,NA,right,2310.199999988079,0,1,929.7999999821186
72Gwf6I1,3uy4pis8ruyxp7v852m6xfad2fzn1g,3atthhxxwe1for346hznc0epnjoxib,72Gwf6I1,2020-0188,2021-10-17,11:20:47,12:26:11,NA,incomplete,false,NA,true,5,6,NA,NA,NA,left,present,NA,NA,n_s_027.jpg,gray,n_s_045.jpg,white,between,NA,NaN,NA,left,3812.2000000178814,1,2,961.7000000178814
72Gwf6I1,3uy4pis8ruyxp7v852m6xfad2fzn1g,3atthhxxwe1for346hznc0epnjoxib,72Gwf6I1,2020-0188,2021-10-17,11:20:47,12:26:11,NA,incomplete,false,NA,true,5,7,NA,NA,NA,left,present,NA,NA,m_l_051.jpg,black,m_s_116.jpg,gray,between,NA,NaN,NA,left,4532.5999999940395,1,2,1458.1000000238419
72Gwf6I1,3uy4pis8ruyxp7v852m6xfad2fzn1g,3atthhxxwe1for346hznc0epnjoxib,72Gwf6I1,2020-0188,2021-10-17,11:20:47,12:26:11,NA,incomplete,false,NA,true,5,8,NA,NA,NA,right,present,NA,NA,n_l_038.jpg,white,n_l_049.jpg,white,within,NA,NaN,NA,right,3637.5,1,1,729.6999999880791
72Gwf6I1,3uy4pis8ruyxp7v852m6xfad2fzn1g,3atthhxxwe1for346hznc0epnjoxib,72Gwf6I1,2020-0188,2021-10-17,11:20:47,12:26:11,NA,incomplete,false,NA,true,5,9,NA,NA,NA,right,present,NA,NA,m_s_019.jpg,green,m_s_060.jpg,red,between,NA,NaN,NA,right,2113.5999999940395,1,2,1158.4000000059605
72Gwf6I1,3uy4pis8ruyxp7v852m6xfad2fzn1g,3atthhxxwe1for346hznc0epnjoxib,72Gwf6I1,2020-0188,2021-10-17,11:20:47,12:26:11,NA,incomplete,false,NA,true,5,10,NA,NA,NA,right,present,NA,NA,m_s_022.jpg,brown,n_l_072.jpg,white,between,NA,NaN,NA,right,4598.0999999940395,1,2,971.5999999940395
72Gwf6I1,3uy4pis8ruyxp7v852m6xfad2fzn1g,3atthhxxwe1for346hznc0epnjoxib,72Gwf6I1,2020-0188,2021-10-17,11:20:47,12:26:11,NA,incomplete,false,true,NA,6,0,NA,white,m_l_072.jpg,NA,NA,unpleasant,pleasant,NA,NA,NA,NA,NA,left,1470.69999998808,true,NA,NA,NA,NA,NA
72Gwf6I1,3uy4pis8ruyxp7v852m6xfad2fzn1g,3atthhxxwe1for346hznc0epnjoxib,72Gwf6I1,2020-0188,2021-10-17,11:20:47,12:26:11,NA,incomplete,false,true,NA,6,1,NA,white,m_s_025.jpg,NA,NA,unpleasant,pleasant,NA,NA,NA,NA,NA,right,1147.40000000596,true,NA,NA,NA,NA,NA
72Gwf6I1,3uy4pis8ruyxp7v852m6xfad2fzn1g,3atthhxxwe1for346hznc0epnjoxib,72Gwf6I1,2020-0188,2021-10-17,11:20:47,12:26:11,NA,incomplete,false,true,NA,6,2,NA,white,m_s_051.jpg,NA,NA,unpleasant,pleasant,NA,NA,NA,NA,NA,right,1296.40000000596,true,NA,NA,NA,NA,NA
72Gwf6I1,3uy4pis8ruyxp7v852m6xfad2fzn1g,3atthhxxwe1for346hznc0epnjoxib,72Gwf6I1,2020-0188,2021-10-17,11:20:47,12:26:11,NA,incomplete,false,true,NA,6,3,NA,white,n_s_115.jpg,NA,NA,pleasant,unpleasant,NA,NA,NA,NA,NA,left,1318.29999998212,true,NA,NA,NA,NA,NA
72Gwf6I1,3uy4pis8ruyxp7v852m6xfad2fzn1g,3atthhxxwe1for346hznc0epnjoxib,72Gwf6I1,2020-0188,2021-10-17,11:20:47,12:26:11,NA,incomplete,false,true,NA,6,4,NA,white,n_l_053.jpg,NA,NA,unpleasant,pleasant,NA,NA,NA,NA,NA,left,1364.69999998808,true,NA,NA,NA,NA,NA
72Gwf6I1,3uy4pis8ruyxp7v852m6xfad2fzn1g,3atthhxxwe1for346hznc0epnjoxib,72Gwf6I1,2020-0188,2021-10-17,11:20:47,12:26:11,NA,incomplete,false,true,NA,6,5,NA,white,n_l_035.jpg,NA,NA,pleasant,unpleasant,NA,NA,NA,NA,NA,left,1339.19999998808,true,NA,NA,NA,NA,NA
72Gwf6I1,3uy4pis8ruyxp7v852m6xfad2fzn1g,3atthhxxwe1for346hznc0epnjoxib,72Gwf6I1,2020-0188,2021-10-17,11:20:47,12:26:11,NA,incomplete,false,true,NA,6,6,NA,red,n_s_099.jpg,NA,NA,unpleasant,pleasant,NA,NA,NA,NA,NA,right,1416.5,true,NA,NA,NA,NA,NA
72Gwf6I1,3uy4pis8ruyxp7v852m6xfad2fzn1g,3atthhxxwe1for346hznc0epnjoxib,72Gwf6I1,2020-0188,2021-10-17,11:20:47,12:26:11,NA,incomplete,false,true,NA,6,7,NA,red,m_s_111.jpg,NA,NA,pleasant,unpleasant,NA,NA,NA,NA,NA,left,1066.30000001192,true,NA,NA,NA,NA,NA
72Gwf6I1,3uy4pis8ruyxp7v852m6xfad2fzn1g,3atthhxxwe1for346hznc0epnjoxib,72Gwf6I1,2020-0188,2021-10-17,11:20:47,12:26:11,NA,incomplete,false,true,NA,6,8,NA,red,n_s_081.jpg,NA,NA,pleasant,unpleasant,NA,NA,NA,NA,NA,left,1094.09999999404,true,NA,NA,NA,NA,NA
72Gwf6I1,3uy4pis8ruyxp7v852m6xfad2fzn1g,3atthhxxwe1for346hznc0epnjoxib,72Gwf6I1,2020-0188,2021-10-17,11:20:47,12:26:11,NA,incomplete,false,true,NA,6,9,NA,red,m_l_055.jpg,NA,NA,unpleasant,pleasant,NA,NA,NA,NA,NA,left,1534.19999998808,true,NA,NA,NA,NA,NA
72Gwf6I1,3uy4pis8ruyxp7v852m6xfad2fzn1g,3atthhxxwe1for346hznc0epnjoxib,72Gwf6I1,2020-0188,2021-10-17,11:20:47,12:26:11,NA,incomplete,false,true,NA,6,10,NA,red,m_s_083.jpg,NA,NA,unpleasant,pleasant,NA,NA,NA,NA,NA,right,1143.69999998808,true,NA,NA,NA,NA,NA
72Gwf6I1,3uy4pis8ruyxp7v852m6xfad2fzn1g,3atthhxxwe1for346hznc0epnjoxib,72Gwf6I1,2020-0188,2021-10-17,11:20:47,12:26:11,NA,incomplete,false,true,NA,6,11,NA,red,m_l_090.jpg,NA,NA,pleasant,unpleasant,NA,NA,NA,NA,NA,left,1420.80000001192,true,NA,NA,NA,NA,NA
72Gwf6I1,3uy4pis8ruyxp7v852m6xfad2fzn1g,3atthhxxwe1for346hznc0epnjoxib,72Gwf6I1,2020-0188,2021-10-17,11:20:47,12:26:11,NA,incomplete,false,true,NA,6,12,NA,orange,n_s_037.jpg,NA,NA,pleasant,unpleasant,NA,NA,NA,NA,NA,left,1018.19999998808,true,NA,NA,NA,NA,NA
72Gwf6I1,3uy4pis8ruyxp7v852m6xfad2fzn1g,3atthhxxwe1for346hznc0epnjoxib,72Gwf6I1,2020-0188,2021-10-17,11:20:47,12:26:11,NA,incomplete,false,true,NA,6,13,NA,orange,m_l_044.jpg,NA,NA,unpleasant,pleasant,NA,NA,NA,NA,NA,right,1244.30000001192,true,NA,NA,NA,NA,NA
72Gwf6I1,3uy4pis8ruyxp7v852m6xfad2fzn1g,3atthhxxwe1for346hznc0epnjoxib,72Gwf6I1,2020-0188,2021-10-17,11:20:47,12:26:11,NA,incomplete,false,true,NA,6,14,NA,orange,m_l_053.jpg,NA,NA,unpleasant,pleasant,NA,NA,NA,NA,NA,right,1075.59999999404,true,NA,NA,NA,NA,NA
72Gwf6I1,3uy4pis8ruyxp7v852m6xfad2fzn1g,3atthhxxwe1for346hznc0epnjoxib,72Gwf6I1,2020-0188,2021-10-17,11:20:47,12:26:11,NA,incomplete,false,true,NA,6,15,NA,orange,n_l_094.jpg,NA,NA,pleasant,unpleasant,NA,NA,NA,NA,NA,left,1348,true,NA,NA,NA,NA,NA
72Gwf6I1,3uy4pis8ruyxp7v852m6xfad2fzn1g,3atthhxxwe1for346hznc0epnjoxib,72Gwf6I1,2020-0188,2021-10-17,11:20:47,12:26:11,NA,incomplete,false,true,NA,6,16,NA,orange,m_l_007.jpg,NA,NA,pleasant,unpleasant,NA,NA,NA,NA,NA,right,2018.70000001788,true,NA,NA,NA,NA,NA
72Gwf6I1,3uy4pis8ruyxp7v852m6xfad2fzn1g,3atthhxxwe1for346hznc0epnjoxib,72Gwf6I1,2020-0188,2021-10-17,11:20:47,12:26:11,NA,incomplete,false,true,NA,6,17,NA,orange,n_s_114.jpg,NA,NA,pleasant,unpleasant,NA,NA,NA,NA,NA,left,963.200000017881,true,NA,NA,NA,NA,NA
72Gwf6I1,3uy4pis8ruyxp7v852m6xfad2fzn1g,3atthhxxwe1for346hznc0epnjoxib,72Gwf6I1,2020-0188,2021-10-17,11:20:47,12:26:11,NA,incomplete,false,true,NA,6,18,NA,blue,n_l_045.jpg,NA,NA,unpleasant,pleasant,NA,NA,NA,NA,NA,left,2018.09999999404,true,NA,NA,NA,NA,NA
72Gwf6I1,3uy4pis8ruyxp7v852m6xfad2fzn1g,3atthhxxwe1for346hznc0epnjoxib,72Gwf6I1,2020-0188,2021-10-17,11:20:47,12:26:11,NA,incomplete,false,true,NA,6,19,NA,blue,m_s_093.jpg,NA,NA,pleasant,unpleasant,NA,NA,NA,NA,NA,left,1572.79999998212,true,NA,NA,NA,NA,NA
72Gwf6I1,3uy4pis8ruyxp7v852m6xfad2fzn1g,3atthhxxwe1for346hznc0epnjoxib,72Gwf6I1,2020-0188,2021-10-17,11:20:47,12:26:11,NA,incomplete,false,true,NA,6,20,NA,blue,m_l_095.jpg,NA,NA,pleasant,unpleasant,NA,NA,NA,NA,NA,left,2199.79999998212,true,NA,NA,NA,NA,NA
72Gwf6I1,3uy4pis8ruyxp7v852m6xfad2fzn1g,3atthhxxwe1for346hznc0epnjoxib,72Gwf6I1,2020-0188,2021-10-17,11:20:47,12:26:11,NA,incomplete,false,true,NA,6,21,NA,blue,n_l_023.jpg,NA,NA,pleasant,unpleasant,NA,NA,NA,NA,NA,left,1056,true,NA,NA,NA,NA,NA
72Gwf6I1,3uy4pis8ruyxp7v852m6xfad2fzn1g,3atthhxxwe1for346hznc0epnjoxib,72Gwf6I1,2020-0188,2021-10-17,11:20:47,12:26:11,NA,incomplete,false,true,NA,6,22,NA,blue,m_l_082.jpg,NA,NA,unpleasant,pleasant,NA,NA,NA,NA,NA,left,1459.39999997616,true,NA,NA,NA,NA,NA
72Gwf6I1,3uy4pis8ruyxp7v852m6xfad2fzn1g,3atthhxxwe1for346hznc0epnjoxib,72Gwf6I1,2020-0188,2021-10-17,11:20:47,12:26:11,NA,incomplete,false,true,NA,6,23,NA,blue,m_l_064.jpg,NA,NA,unpleasant,pleasant,NA,NA,NA,NA,NA,right,1157.19999998808,true,NA,NA,NA,NA,NA
72Gwf6I1,3uy4pis8ruyxp7v852m6xfad2fzn1g,3atthhxxwe1for346hznc0epnjoxib,72Gwf6I1,2020-0188,2021-10-17,11:20:47,12:26:11,NA,incomplete,false,true,NA,6,24,NA,black,m_l_023.jpg,NA,NA,pleasant,unpleasant,NA,NA,NA,NA,NA,left,2187.40000000596,true,NA,NA,NA,NA,NA
72Gwf6I1,3uy4pis8ruyxp7v852m6xfad2fzn1g,3atthhxxwe1for346hznc0epnjoxib,72Gwf6I1,2020-0188,2021-10-17,11:20:47,12:26:11,NA,incomplete,false,true,NA,6,25,NA,black,m_s_098.jpg,NA,NA,pleasant,unpleasant,NA,NA,NA,NA,NA,left,1347.5,true,NA,NA,NA,NA,NA
72Gwf6I1,3uy4pis8ruyxp7v852m6xfad2fzn1g,3atthhxxwe1for346hznc0epnjoxib,72Gwf6I1,2020-0188,2021-10-17,11:20:47,12:26:11,NA,incomplete,false,true,NA,6,26,NA,black,m_s_113.jpg,NA,NA,unpleasant,pleasant,NA,NA,NA,NA,NA,right,1215.09999999404,true,NA,NA,NA,NA,NA
72Gwf6I1,3uy4pis8ruyxp7v852m6xfad2fzn1g,3atthhxxwe1for346hznc0epnjoxib,72Gwf6I1,2020-0188,2021-10-17,11:20:47,12:26:11,NA,incomplete,false,true,NA,6,27,NA,black,m_s_023.jpg,NA,NA,pleasant,unpleasant,NA,NA,NA,NA,NA,left,1283.09999999404,true,NA,NA,NA,NA,NA
72Gwf6I1,3uy4pis8ruyxp7v852m6xfad2fzn1g,3atthhxxwe1for346hznc0epnjoxib,72Gwf6I1,2020-0188,2021-10-17,11:20:47,12:26:11,NA,incomplete,false,true,NA,6,28,NA,black,m_s_003.jpg,NA,NA,pleasant,unpleasant,NA,NA,NA,NA,NA,right,1235.10000002384,true,NA,NA,NA,NA,NA
72Gwf6I1,3uy4pis8ruyxp7v852m6xfad2fzn1g,3atthhxxwe1for346hznc0epnjoxib,72Gwf6I1,2020-0188,2021-10-17,11:20:47,12:26:11,NA,incomplete,false,true,NA,6,29,NA,black,m_l_099.jpg,NA,NA,pleasant,unpleasant,NA,NA,NA,NA,NA,left,1384.80000001192,true,NA,NA,NA,NA,NA
72Gwf6I1,3uy4pis8ruyxp7v852m6xfad2fzn1g,3atthhxxwe1for346hznc0epnjoxib,72Gwf6I1,2020-0188,2021-10-17,11:20:47,12:26:11,NA,incomplete,false,true,NA,6,30,NA,gray,m_s_049.jpg,NA,NA,unpleasant,pleasant,NA,NA,NA,NA,NA,right,1143.09999999404,true,NA,NA,NA,NA,NA
72Gwf6I1,3uy4pis8ruyxp7v852m6xfad2fzn1g,3atthhxxwe1for346hznc0epnjoxib,72Gwf6I1,2020-0188,2021-10-17,11:20:47,12:26:11,NA,incomplete,false,true,NA,6,31,NA,gray,m_s_012.jpg,NA,NA,unpleasant,pleasant,NA,NA,NA,NA,NA,right,1783.29999998212,true,NA,NA,NA,NA,NA
72Gwf6I1,3uy4pis8ruyxp7v852m6xfad2fzn1g,3atthhxxwe1for346hznc0epnjoxib,72Gwf6I1,2020-0188,2021-10-17,11:20:47,12:26:11,NA,incomplete,false,true,NA,6,32,NA,gray,n_s_079.jpg,NA,NA,unpleasant,pleasant,NA,NA,NA,NA,NA,right,1079,true,NA,NA,NA,NA,NA
72Gwf6I1,3uy4pis8ruyxp7v852m6xfad2fzn1g,3atthhxxwe1for346hznc0epnjoxib,72Gwf6I1,2020-0188,2021-10-17,11:20:47,12:26:11,NA,incomplete,false,true,NA,6,33,NA,gray,m_s_028.jpg,NA,NA,pleasant,unpleasant,NA,NA,NA,NA,NA,left,1156.79999998212,true,NA,NA,NA,NA,NA
72Gwf6I1,3uy4pis8ruyxp7v852m6xfad2fzn1g,3atthhxxwe1for346hznc0epnjoxib,72Gwf6I1,2020-0188,2021-10-17,11:20:47,12:26:11,NA,incomplete,false,true,NA,6,34,NA,gray,m_l_004.jpg,NA,NA,unpleasant,pleasant,NA,NA,NA,NA,NA,left,1351.10000002384,true,NA,NA,NA,NA,NA
72Gwf6I1,3uy4pis8ruyxp7v852m6xfad2fzn1g,3atthhxxwe1for346hznc0epnjoxib,72Gwf6I1,2020-0188,2021-10-17,11:20:47,12:26:11,NA,incomplete,false,true,NA,6,35,NA,gray,n_l_027.jpg,NA,NA,unpleasant,pleasant,NA,NA,NA,NA,NA,right,952.5,true,NA,NA,NA,NA,NA
72Gwf6I1,3uy4pis8ruyxp7v852m6xfad2fzn1g,3atthhxxwe1for346hznc0epnjoxib,72Gwf6I1,2020-0188,2021-10-17,11:20:47,12:26:11,NA,incomplete,false,NA,true,6,0,NA,NA,NA,left,absent,NA,NA,m_l_007.jpg,orange,m_l_095.jpg,blue,between,NA,NaN,NA,right,2192.7000000178814,0,1,1383.699999988079
72Gwf6I1,3uy4pis8ruyxp7v852m6xfad2fzn1g,3atthhxxwe1for346hznc0epnjoxib,72Gwf6I1,2020-0188,2021-10-17,11:20:47,12:26:11,NA,incomplete,false,NA,true,6,1,NA,NA,NA,left,absent,NA,NA,m_s_012.jpg,gray,n_l_027.jpg,gray,within,NA,NaN,NA,right,1530,0,2,801.7000000178814
72Gwf6I1,3uy4pis8ruyxp7v852m6xfad2fzn1g,3atthhxxwe1for346hznc0epnjoxib,72Gwf6I1,2020-0188,2021-10-17,11:20:47,12:26:11,NA,incomplete,false,NA,true,6,2,NA,NA,NA,right,absent,NA,NA,n_l_035.jpg,white,m_s_025.jpg,white,within,NA,NaN,NA,right,1861.9000000059605,1,1,973.0999999940395
72Gwf6I1,3uy4pis8ruyxp7v852m6xfad2fzn1g,3atthhxxwe1for346hznc0epnjoxib,72Gwf6I1,2020-0188,2021-10-17,11:20:47,12:26:11,NA,incomplete,false,NA,true,6,3,NA,NA,NA,right,absent,NA,NA,m_l_053.jpg,orange,m_s_083.jpg,red,between,NA,NaN,NA,left,3206.800000011921,0,1,1286.9000000059605
72Gwf6I1,3uy4pis8ruyxp7v852m6xfad2fzn1g,3atthhxxwe1for346hznc0epnjoxib,72Gwf6I1,2020-0188,2021-10-17,11:20:47,12:26:11,NA,incomplete,false,NA,true,6,4,NA,NA,NA,left,absent,NA,NA,m_l_044.jpg,orange,n_s_114.jpg,orange,within,NA,NaN,NA,left,2425.600000023842,1,2,901
72Gwf6I1,3uy4pis8ruyxp7v852m6xfad2fzn1g,3atthhxxwe1for346hznc0epnjoxib,72Gwf6I1,2020-0188,2021-10-17,11:20:47,12:26:11,NA,incomplete,false,NA,true,6,5,NA,NA,NA,right,absent,NA,NA,n_s_081.jpg,red,n_l_053.jpg,white,between,NA,NaN,NA,right,1549,1,2,673.0999999940395
72Gwf6I1,3uy4pis8ruyxp7v852m6xfad2fzn1g,3atthhxxwe1for346hznc0epnjoxib,72Gwf6I1,2020-0188,2021-10-17,11:20:47,12:26:11,NA,incomplete,false,NA,true,6,6,NA,NA,NA,right,absent,NA,NA,m_l_099.jpg,black,m_s_098.jpg,black,within,NA,NaN,NA,right,1400.9000000059605,1,2,790
72Gwf6I1,3uy4pis8ruyxp7v852m6xfad2fzn1g,3atthhxxwe1for346hznc0epnjoxib,72Gwf6I1,2020-0188,2021-10-17,11:20:47,12:26:11,NA,incomplete,false,NA,true,6,7,NA,NA,NA,left,absent,NA,NA,m_l_082.jpg,blue,m_s_113.jpg,black,between,NA,NaN,NA,right,2530.9000000059605,0,1,1485.7000000178814
72Gwf6I1,3uy4pis8ruyxp7v852m6xfad2fzn1g,3atthhxxwe1for346hznc0epnjoxib,72Gwf6I1,2020-0188,2021-10-17,11:20:47,12:26:11,NA,incomplete,false,NA,true,6,8,NA,NA,NA,left,absent,NA,NA,m_s_003.jpg,black,n_s_079.jpg,gray,between,NA,NaN,NA,left,3559.800000011921,1,1,1333.7000000178814
72Gwf6I1,3uy4pis8ruyxp7v852m6xfad2fzn1g,3atthhxxwe1for346hznc0epnjoxib,72Gwf6I1,2020-0188,2021-10-17,11:20:47,12:26:11,NA,incomplete,false,NA,true,6,9,NA,NA,NA,left,absent,NA,NA,m_s_093.jpg,blue,m_l_064.jpg,blue,within,NA,NaN,NA,right,1966.800000011921,0,1,1096.800000011921
72Gwf6I1,3uy4pis8ruyxp7v852m6xfad2fzn1g,3atthhxxwe1for346hznc0epnjoxib,72Gwf6I1,2020-0188,2021-10-17,11:20:47,12:26:11,NA,incomplete,false,NA,true,6,10,NA,NA,NA,left,absent,NA,NA,m_s_111.jpg,red,m_l_090.jpg,red,within,NA,NaN,NA,left,2457.2999999821186,1,2,1353.5
72Gwf6I1,3uy4pis8ruyxp7v852m6xfad2fzn1g,3atthhxxwe1for346hznc0epnjoxib,72Gwf6I1,2020-0188,2021-10-17,11:20:47,12:26:11,NA,incomplete,false,true,NA,7,0,NA,yellow,m_s_078.jpg,NA,NA,unpleasant,pleasant,NA,NA,NA,NA,NA,right,1198.30000001192,true,NA,NA,NA,NA,NA
72Gwf6I1,3uy4pis8ruyxp7v852m6xfad2fzn1g,3atthhxxwe1for346hznc0epnjoxib,72Gwf6I1,2020-0188,2021-10-17,11:20:47,12:26:11,NA,incomplete,false,true,NA,7,1,NA,yellow,m_l_096.jpg,NA,NA,unpleasant,pleasant,NA,NA,NA,NA,NA,right,1586.40000000596,true,NA,NA,NA,NA,NA
72Gwf6I1,3uy4pis8ruyxp7v852m6xfad2fzn1g,3atthhxxwe1for346hznc0epnjoxib,72Gwf6I1,2020-0188,2021-10-17,11:20:47,12:26:11,NA,incomplete,false,true,NA,7,2,NA,yellow,n_l_068.jpg,NA,NA,unpleasant,pleasant,NA,NA,NA,NA,NA,right,1101.59999999404,true,NA,NA,NA,NA,NA
72Gwf6I1,3uy4pis8ruyxp7v852m6xfad2fzn1g,3atthhxxwe1for346hznc0epnjoxib,72Gwf6I1,2020-0188,2021-10-17,11:20:47,12:26:11,NA,incomplete,false,true,NA,7,3,NA,yellow,m_l_112.jpg,NA,NA,pleasant,unpleasant,NA,NA,NA,NA,NA,left,1263.30000001192,true,NA,NA,NA,NA,NA
72Gwf6I1,3uy4pis8ruyxp7v852m6xfad2fzn1g,3atthhxxwe1for346hznc0epnjoxib,72Gwf6I1,2020-0188,2021-10-17,11:20:47,12:26:11,NA,incomplete,false,true,NA,7,4,NA,yellow,n_s_097.jpg,NA,NA,pleasant,unpleasant,NA,NA,NA,NA,NA,right,1311.40000000596,true,NA,NA,NA,NA,NA
72Gwf6I1,3uy4pis8ruyxp7v852m6xfad2fzn1g,3atthhxxwe1for346hznc0epnjoxib,72Gwf6I1,2020-0188,2021-10-17,11:20:47,12:26:11,NA,incomplete,false,true,NA,7,5,NA,yellow,n_s_092.jpg,NA,NA,pleasant,unpleasant,NA,NA,NA,NA,NA,left,1769.29999998212,true,NA,NA,NA,NA,NA
72Gwf6I1,3uy4pis8ruyxp7v852m6xfad2fzn1g,3atthhxxwe1for346hznc0epnjoxib,72Gwf6I1,2020-0188,2021-10-17,11:20:47,12:26:11,NA,incomplete,false,true,NA,7,6,NA,red,m_l_022.jpg,NA,NA,pleasant,unpleasant,NA,NA,NA,NA,NA,left,1871.70000001788,true,NA,NA,NA,NA,NA
72Gwf6I1,3uy4pis8ruyxp7v852m6xfad2fzn1g,3atthhxxwe1for346hznc0epnjoxib,72Gwf6I1,2020-0188,2021-10-17,11:20:47,12:26:11,NA,incomplete,false,true,NA,7,7,NA,red,m_s_045.jpg,NA,NA,unpleasant,pleasant,NA,NA,NA,NA,NA,right,1725.90000000596,true,NA,NA,NA,NA,NA
72Gwf6I1,3uy4pis8ruyxp7v852m6xfad2fzn1g,3atthhxxwe1for346hznc0epnjoxib,72Gwf6I1,2020-0188,2021-10-17,11:20:47,12:26:11,NA,incomplete,false,true,NA,7,8,NA,red,n_l_105.jpg,NA,NA,unpleasant,pleasant,NA,NA,NA,NA,NA,right,994.399999976158,true,NA,NA,NA,NA,NA
72Gwf6I1,3uy4pis8ruyxp7v852m6xfad2fzn1g,3atthhxxwe1for346hznc0epnjoxib,72Gwf6I1,2020-0188,2021-10-17,11:20:47,12:26:11,NA,incomplete,false,true,NA,7,9,NA,red,n_l_090.jpg,NA,NA,pleasant,unpleasant,NA,NA,NA,NA,NA,right,1533.69999998808,true,NA,NA,NA,NA,NA
72Gwf6I1,3uy4pis8ruyxp7v852m6xfad2fzn1g,3atthhxxwe1for346hznc0epnjoxib,72Gwf6I1,2020-0188,2021-10-17,11:20:47,12:26:11,NA,incomplete,false,true,NA,7,10,NA,red,n_s_110.jpg,NA,NA,unpleasant,pleasant,NA,NA,NA,NA,NA,left,1448.90000000596,true,NA,NA,NA,NA,NA
72Gwf6I1,3uy4pis8ruyxp7v852m6xfad2fzn1g,3atthhxxwe1for346hznc0epnjoxib,72Gwf6I1,2020-0188,2021-10-17,11:20:47,12:26:11,NA,incomplete,false,true,NA,7,11,NA,red,m_l_117.jpg,NA,NA,unpleasant,pleasant,NA,NA,NA,NA,NA,right,1119.29999998212,true,NA,NA,NA,NA,NA
72Gwf6I1,3uy4pis8ruyxp7v852m6xfad2fzn1g,3atthhxxwe1for346hznc0epnjoxib,72Gwf6I1,2020-0188,2021-10-17,11:20:47,12:26:11,NA,incomplete,false,true,NA,7,12,NA,purple,n_l_116.jpg,NA,NA,pleasant,unpleasant,NA,NA,NA,NA,NA,left,1314.89999997616,true,NA,NA,NA,NA,NA
72Gwf6I1,3uy4pis8ruyxp7v852m6xfad2fzn1g,3atthhxxwe1for346hznc0epnjoxib,72Gwf6I1,2020-0188,2021-10-17,11:20:47,12:26:11,NA,incomplete,false,true,NA,7,13,NA,purple,n_l_040.jpg,NA,NA,pleasant,unpleasant,NA,NA,NA,NA,NA,left,1075.29999998212,true,NA,NA,NA,NA,NA
72Gwf6I1,3uy4pis8ruyxp7v852m6xfad2fzn1g,3atthhxxwe1for346hznc0epnjoxib,72Gwf6I1,2020-0188,2021-10-17,11:20:47,12:26:11,NA,incomplete,false,true,NA,7,14,NA,purple,n_l_013.jpg,NA,NA,unpleasant,pleasant,NA,NA,NA,NA,NA,right,1327.70000001788,true,NA,NA,NA,NA,NA
72Gwf6I1,3uy4pis8ruyxp7v852m6xfad2fzn1g,3atthhxxwe1for346hznc0epnjoxib,72Gwf6I1,2020-0188,2021-10-17,11:20:47,12:26:11,NA,incomplete,false,true,NA,7,15,NA,purple,n_l_048.jpg,NA,NA,unpleasant,pleasant,NA,NA,NA,NA,NA,right,1223.69999998808,true,NA,NA,NA,NA,NA
72Gwf6I1,3uy4pis8ruyxp7v852m6xfad2fzn1g,3atthhxxwe1for346hznc0epnjoxib,72Gwf6I1,2020-0188,2021-10-17,11:20:47,12:26:11,NA,incomplete,false,true,NA,7,16,NA,purple,n_l_076.jpg,NA,NA,pleasant,unpleasant,NA,NA,NA,NA,NA,right,1210.89999997616,true,NA,NA,NA,NA,NA
72Gwf6I1,3uy4pis8ruyxp7v852m6xfad2fzn1g,3atthhxxwe1for346hznc0epnjoxib,72Gwf6I1,2020-0188,2021-10-17,11:20:47,12:26:11,NA,incomplete,false,true,NA,7,17,NA,purple,m_s_013.jpg,NA,NA,pleasant,unpleasant,NA,NA,NA,NA,NA,left,1555.80000001192,true,NA,NA,NA,NA,NA
72Gwf6I1,3uy4pis8ruyxp7v852m6xfad2fzn1g,3atthhxxwe1for346hznc0epnjoxib,72Gwf6I1,2020-0188,2021-10-17,11:20:47,12:26:11,NA,incomplete,false,true,NA,7,18,NA,brown,n_l_033.jpg,NA,NA,unpleasant,pleasant,NA,NA,NA,NA,NA,left,1209.5,true,NA,NA,NA,NA,NA
72Gwf6I1,3uy4pis8ruyxp7v852m6xfad2fzn1g,3atthhxxwe1for346hznc0epnjoxib,72Gwf6I1,2020-0188,2021-10-17,11:20:47,12:26:11,NA,incomplete,false,true,NA,7,19,NA,brown,n_s_096.jpg,NA,NA,unpleasant,pleasant,NA,NA,NA,NA,NA,right,1010.70000001788,true,NA,NA,NA,NA,NA
72Gwf6I1,3uy4pis8ruyxp7v852m6xfad2fzn1g,3atthhxxwe1for346hznc0epnjoxib,72Gwf6I1,2020-0188,2021-10-17,11:20:47,12:26:11,NA,incomplete,false,true,NA,7,20,NA,brown,n_l_112.jpg,NA,NA,unpleasant,pleasant,NA,NA,NA,NA,NA,left,1206.5,true,NA,NA,NA,NA,NA
72Gwf6I1,3uy4pis8ruyxp7v852m6xfad2fzn1g,3atthhxxwe1for346hznc0epnjoxib,72Gwf6I1,2020-0188,2021-10-17,11:20:47,12:26:11,NA,incomplete,false,true,NA,7,21,NA,brown,n_s_055.jpg,NA,NA,unpleasant,pleasant,NA,NA,NA,NA,NA,right,1271.59999999404,true,NA,NA,NA,NA,NA
72Gwf6I1,3uy4pis8ruyxp7v852m6xfad2fzn1g,3atthhxxwe1for346hznc0epnjoxib,72Gwf6I1,2020-0188,2021-10-17,11:20:47,12:26:11,NA,incomplete,false,true,NA,7,22,NA,brown,n_s_038.jpg,NA,NA,unpleasant,pleasant,NA,NA,NA,NA,NA,right,1283,true,NA,NA,NA,NA,NA
72Gwf6I1,3uy4pis8ruyxp7v852m6xfad2fzn1g,3atthhxxwe1for346hznc0epnjoxib,72Gwf6I1,2020-0188,2021-10-17,11:20:47,12:26:11,NA,incomplete,false,true,NA,7,23,NA,brown,m_s_092.jpg,NA,NA,pleasant,unpleasant,NA,NA,NA,NA,NA,left,1243.69999998808,true,NA,NA,NA,NA,NA
72Gwf6I1,3uy4pis8ruyxp7v852m6xfad2fzn1g,3atthhxxwe1for346hznc0epnjoxib,72Gwf6I1,2020-0188,2021-10-17,11:20:47,12:26:11,NA,incomplete,false,true,NA,7,24,NA,green,m_s_015.jpg,NA,NA,pleasant,unpleasant,NA,NA,NA,NA,NA,left,1279.70000001788,true,NA,NA,NA,NA,NA
72Gwf6I1,3uy4pis8ruyxp7v852m6xfad2fzn1g,3atthhxxwe1for346hznc0epnjoxib,72Gwf6I1,2020-0188,2021-10-17,11:20:47,12:26:11,NA,incomplete,false,true,NA,7,25,NA,green,m_s_088.jpg,NA,NA,pleasant,unpleasant,NA,NA,NA,NA,NA,right,1199.70000001788,true,NA,NA,NA,NA,NA
72Gwf6I1,3uy4pis8ruyxp7v852m6xfad2fzn1g,3atthhxxwe1for346hznc0epnjoxib,72Gwf6I1,2020-0188,2021-10-17,11:20:47,12:26:11,NA,incomplete,false,true,NA,7,26,NA,green,n_l_111.jpg,NA,NA,pleasant,unpleasant,NA,NA,NA,NA,NA,left,1150.40000000596,true,NA,NA,NA,NA,NA
72Gwf6I1,3uy4pis8ruyxp7v852m6xfad2fzn1g,3atthhxxwe1for346hznc0epnjoxib,72Gwf6I1,2020-0188,2021-10-17,11:20:47,12:26:11,NA,incomplete,false,true,NA,7,27,NA,green,m_l_020.jpg,NA,NA,unpleasant,pleasant,NA,NA,NA,NA,NA,right,1293.29999998212,true,NA,NA,NA,NA,NA
72Gwf6I1,3uy4pis8ruyxp7v852m6xfad2fzn1g,3atthhxxwe1for346hznc0epnjoxib,72Gwf6I1,2020-0188,2021-10-17,11:20:47,12:26:11,NA,incomplete,false,true,NA,7,28,NA,green,m_l_061.jpg,NA,NA,unpleasant,pleasant,NA,NA,NA,NA,NA,right,1106.19999998808,true,NA,NA,NA,NA,NA
72Gwf6I1,3uy4pis8ruyxp7v852m6xfad2fzn1g,3atthhxxwe1for346hznc0epnjoxib,72Gwf6I1,2020-0188,2021-10-17,11:20:47,12:26:11,NA,incomplete,false,true,NA,7,29,NA,green,n_l_004.jpg,NA,NA,pleasant,unpleasant,NA,NA,NA,NA,NA,left,1212.69999998808,true,NA,NA,NA,NA,NA
72Gwf6I1,3uy4pis8ruyxp7v852m6xfad2fzn1g,3atthhxxwe1for346hznc0epnjoxib,72Gwf6I1,2020-0188,2021-10-17,11:20:47,12:26:11,NA,incomplete,false,true,NA,7,30,NA,gray,m_s_054.jpg,NA,NA,pleasant,unpleasant,NA,NA,NA,NA,NA,right,1056.20000001788,true,NA,NA,NA,NA,NA
72Gwf6I1,3uy4pis8ruyxp7v852m6xfad2fzn1g,3atthhxxwe1for346hznc0epnjoxib,72Gwf6I1,2020-0188,2021-10-17,11:20:47,12:26:11,NA,incomplete,false,true,NA,7,31,NA,gray,m_l_067.jpg,NA,NA,pleasant,unpleasant,NA,NA,NA,NA,NA,left,937.90000000596,true,NA,NA,NA,NA,NA
72Gwf6I1,3uy4pis8ruyxp7v852m6xfad2fzn1g,3atthhxxwe1for346hznc0epnjoxib,72Gwf6I1,2020-0188,2021-10-17,11:20:47,12:26:11,NA,incomplete,false,true,NA,7,32,NA,gray,n_l_021.jpg,NA,NA,pleasant,unpleasant,NA,NA,NA,NA,NA,left,880.40000000596,true,NA,NA,NA,NA,NA
72Gwf6I1,3uy4pis8ruyxp7v852m6xfad2fzn1g,3atthhxxwe1for346hznc0epnjoxib,72Gwf6I1,2020-0188,2021-10-17,11:20:47,12:26:11,NA,incomplete,false,true,NA,7,33,NA,gray,n_s_044.jpg,NA,NA,unpleasant,pleasant,NA,NA,NA,NA,NA,right,1070.09999999404,true,NA,NA,NA,NA,NA
72Gwf6I1,3uy4pis8ruyxp7v852m6xfad2fzn1g,3atthhxxwe1for346hznc0epnjoxib,72Gwf6I1,2020-0188,2021-10-17,11:20:47,12:26:11,NA,incomplete,false,true,NA,7,34,NA,gray,m_s_043.jpg,NA,NA,unpleasant,pleasant,NA,NA,NA,NA,NA,left,1678.59999999404,true,NA,NA,NA,NA,NA
72Gwf6I1,3uy4pis8ruyxp7v852m6xfad2fzn1g,3atthhxxwe1for346hznc0epnjoxib,72Gwf6I1,2020-0188,2021-10-17,11:20:47,12:26:11,NA,incomplete,false,true,NA,7,35,NA,gray,n_l_003.jpg,NA,NA,pleasant,unpleasant,NA,NA,NA,NA,NA,left,1073.80000001192,true,NA,NA,NA,NA,NA
72Gwf6I1,3uy4pis8ruyxp7v852m6xfad2fzn1g,3atthhxxwe1for346hznc0epnjoxib,72Gwf6I1,2020-0188,2021-10-17,11:20:47,12:26:11,NA,incomplete,false,NA,true,7,0,NA,NA,NA,right,present,NA,NA,n_l_013.jpg,purple,n_s_110.jpg,red,between,NA,NaN,NA,right,1878.5999999940395,1,2,929.4000000059605
72Gwf6I1,3uy4pis8ruyxp7v852m6xfad2fzn1g,3atthhxxwe1for346hznc0epnjoxib,72Gwf6I1,2020-0188,2021-10-17,11:20:47,12:26:11,NA,incomplete,false,NA,true,7,1,NA,NA,NA,right,present,NA,NA,m_s_013.jpg,purple,n_l_040.jpg,purple,within,NA,NaN,NA,right,1612.699999988079,1,1,938.5999999940395
72Gwf6I1,3uy4pis8ruyxp7v852m6xfad2fzn1g,3atthhxxwe1for346hznc0epnjoxib,72Gwf6I1,2020-0188,2021-10-17,11:20:47,12:26:11,NA,incomplete,false,NA,true,7,2,NA,NA,NA,left,present,NA,NA,n_s_038.jpg,brown,n_l_111.jpg,green,between,NA,NaN,NA,left,3223.2999999821186,1,2,766
72Gwf6I1,3uy4pis8ruyxp7v852m6xfad2fzn1g,3atthhxxwe1for346hznc0epnjoxib,72Gwf6I1,2020-0188,2021-10-17,11:20:47,12:26:11,NA,incomplete,false,NA,true,7,3,NA,NA,NA,left,present,NA,NA,m_l_067.jpg,gray,n_l_003.jpg,gray,within,NA,NaN,NA,left,2370.9000000059605,1,1,841.5999999940395
72Gwf6I1,3uy4pis8ruyxp7v852m6xfad2fzn1g,3atthhxxwe1for346hznc0epnjoxib,72Gwf6I1,2020-0188,2021-10-17,11:20:47,12:26:11,NA,incomplete,false,NA,true,7,4,NA,NA,NA,right,present,NA,NA,m_l_117.jpg,red,m_s_045.jpg,red,within,NA,NaN,NA,right,3110.5999999940395,1,1,1061.5999999940395
72Gwf6I1,3uy4pis8ruyxp7v852m6xfad2fzn1g,3atthhxxwe1for346hznc0epnjoxib,72Gwf6I1,2020-0188,2021-10-17,11:20:47,12:26:11,NA,incomplete,false,NA,true,7,5,NA,NA,NA,right,present,NA,NA,m_s_092.jpg,brown,n_s_096.jpg,brown,within,NA,NaN,NA,right,2374,1,1,768.5999999940395
72Gwf6I1,3uy4pis8ruyxp7v852m6xfad2fzn1g,3atthhxxwe1for346hznc0epnjoxib,72Gwf6I1,2020-0188,2021-10-17,11:20:47,12:26:11,NA,incomplete,false,NA,true,7,6,NA,NA,NA,right,present,NA,NA,n_l_021.jpg,gray,m_l_061.jpg,green,between,NA,NaN,NA,right,2875.800000011921,1,2,754.3999999761581
72Gwf6I1,3uy4pis8ruyxp7v852m6xfad2fzn1g,3atthhxxwe1for346hznc0epnjoxib,72Gwf6I1,2020-0188,2021-10-17,11:20:47,12:26:11,NA,incomplete,false,NA,true,7,7,NA,NA,NA,right,present,NA,NA,n_l_112.jpg,brown,n_l_076.jpg,purple,between,NA,NaN,NA,right,2733.800000011921,1,2,861
72Gwf6I1,3uy4pis8ruyxp7v852m6xfad2fzn1g,3atthhxxwe1for346hznc0epnjoxib,72Gwf6I1,2020-0188,2021-10-17,11:20:47,12:26:11,NA,incomplete,false,NA,true,7,8,NA,NA,NA,right,present,NA,NA,n_l_004.jpg,green,m_s_088.jpg,green,within,NA,NaN,NA,left,3304.5,0,1,772.8000000119209
72Gwf6I1,3uy4pis8ruyxp7v852m6xfad2fzn1g,3atthhxxwe1for346hznc0epnjoxib,72Gwf6I1,2020-0188,2021-10-17,11:20:47,12:26:11,NA,incomplete,false,NA,true,7,9,NA,NA,NA,left,present,NA,NA,n_s_097.jpg,yellow,n_l_105.jpg,red,between,NA,NaN,NA,left,2878.7999999821186,1,2,798.8000000119209
72Gwf6I1,3uy4pis8ruyxp7v852m6xfad2fzn1g,3atthhxxwe1for346hznc0epnjoxib,72Gwf6I1,2020-0188,2021-10-17,11:20:47,12:26:11,NA,incomplete,false,NA,true,7,10,NA,NA,NA,left,present,NA,NA,m_l_096.jpg,yellow,n_s_092.jpg,yellow,within,NA,NaN,NA,left,2544.5,1,1,813
72Gwf6I1,3uy4pis8ruyxp7v852m6xfad2fzn1g,3atthhxxwe1for346hznc0epnjoxib,72Gwf6I1,2020-0188,2021-10-17,11:20:47,12:26:11,NA,incomplete,false,true,NA,8,0,NA,green,n_l_113.jpg,NA,NA,pleasant,unpleasant,NA,NA,NA,NA,NA,right,1721.09999999404,true,NA,NA,NA,NA,NA
72Gwf6I1,3uy4pis8ruyxp7v852m6xfad2fzn1g,3atthhxxwe1for346hznc0epnjoxib,72Gwf6I1,2020-0188,2021-10-17,11:20:47,12:26:11,NA,incomplete,false,true,NA,8,1,NA,green,m_s_064.jpg,NA,NA,pleasant,unpleasant,NA,NA,NA,NA,NA,right,1357.10000002384,true,NA,NA,NA,NA,NA
72Gwf6I1,3uy4pis8ruyxp7v852m6xfad2fzn1g,3atthhxxwe1for346hznc0epnjoxib,72Gwf6I1,2020-0188,2021-10-17,11:20:47,12:26:11,NA,incomplete,false,true,NA,8,2,NA,green,n_l_029.jpg,NA,NA,pleasant,unpleasant,NA,NA,NA,NA,NA,left,1571.79999998212,true,NA,NA,NA,NA,NA
72Gwf6I1,3uy4pis8ruyxp7v852m6xfad2fzn1g,3atthhxxwe1for346hznc0epnjoxib,72Gwf6I1,2020-0188,2021-10-17,11:20:47,12:26:11,NA,incomplete,false,true,NA,8,3,NA,green,m_l_114.jpg,NA,NA,unpleasant,pleasant,NA,NA,NA,NA,NA,right,1263.40000000596,true,NA,NA,NA,NA,NA
72Gwf6I1,3uy4pis8ruyxp7v852m6xfad2fzn1g,3atthhxxwe1for346hznc0epnjoxib,72Gwf6I1,2020-0188,2021-10-17,11:20:47,12:26:11,NA,incomplete,false,true,NA,8,4,NA,green,n_s_049.jpg,NA,NA,pleasant,unpleasant,NA,NA,NA,NA,NA,right,1480.19999998808,true,NA,NA,NA,NA,NA
72Gwf6I1,3uy4pis8ruyxp7v852m6xfad2fzn1g,3atthhxxwe1for346hznc0epnjoxib,72Gwf6I1,2020-0188,2021-10-17,11:20:47,12:26:11,NA,incomplete,false,true,NA,8,5,NA,green,n_l_036.jpg,NA,NA,pleasant,unpleasant,NA,NA,NA,NA,NA,left,1278.69999998808,true,NA,NA,NA,NA,NA
72Gwf6I1,3uy4pis8ruyxp7v852m6xfad2fzn1g,3atthhxxwe1for346hznc0epnjoxib,72Gwf6I1,2020-0188,2021-10-17,11:20:47,12:26:11,NA,incomplete,false,true,NA,8,6,NA,red,n_l_031.jpg,NA,NA,unpleasant,pleasant,NA,NA,NA,NA,NA,right,1577.89999997616,true,NA,NA,NA,NA,NA
72Gwf6I1,3uy4pis8ruyxp7v852m6xfad2fzn1g,3atthhxxwe1for346hznc0epnjoxib,72Gwf6I1,2020-0188,2021-10-17,11:20:47,12:26:11,NA,incomplete,false,true,NA,8,7,NA,red,n_s_028.jpg,NA,NA,pleasant,unpleasant,NA,NA,NA,NA,NA,left,1093.09999999404,true,NA,NA,NA,NA,NA
72Gwf6I1,3uy4pis8ruyxp7v852m6xfad2fzn1g,3atthhxxwe1for346hznc0epnjoxib,72Gwf6I1,2020-0188,2021-10-17,11:20:47,12:26:11,NA,incomplete,false,true,NA,8,8,NA,red,n_s_041.jpg,NA,NA,pleasant,unpleasant,NA,NA,NA,NA,NA,left,1411.09999999404,true,NA,NA,NA,NA,NA
72Gwf6I1,3uy4pis8ruyxp7v852m6xfad2fzn1g,3atthhxxwe1for346hznc0epnjoxib,72Gwf6I1,2020-0188,2021-10-17,11:20:47,12:26:11,NA,incomplete,false,true,NA,8,9,NA,red,m_s_036.jpg,NA,NA,pleasant,unpleasant,NA,NA,NA,NA,NA,left,1476.90000000596,true,NA,NA,NA,NA,NA
