workerId,hitId,assignmentId,subject,studyid,exp_date,exp_start,exp_end,time_start,time_end,practice,encoding,memory,block,trial,event_order,event,stim,answer,context_type,label_left,label_right,left_image,left_event,right_image,right_event,condition,response,response_time,response_acc,order_response,order_response_time,order_acc,distance_response,distance_response_time
75nzK5Bq,322zsn9z6jxccjxbpgrk4cn83gtt4w,32vnztt0abh1joidctrrthiiheg4r9,75nzK5Bq,2020-0188,2021-10-15,15:34:52,17:00:16,NA,incomplete,true,true,NA,0,0,NA,orange,m_l_077.jpg,NA,NA,unpleasant,pleasant,NA,NA,NA,NA,NA,right,2044,true,NA,NA,NA,NA,NA
75nzK5Bq,322zsn9z6jxccjxbpgrk4cn83gtt4w,32vnztt0abh1joidctrrthiiheg4r9,75nzK5Bq,2020-0188,2021-10-15,15:34:52,17:00:16,NA,incomplete,true,true,NA,0,1,NA,orange,n_s_040.jpg,NA,NA,pleasant,unpleasant,NA,NA,NA,NA,NA,right,2092,true,NA,NA,NA,NA,NA
75nzK5Bq,322zsn9z6jxccjxbpgrk4cn83gtt4w,32vnztt0abh1joidctrrthiiheg4r9,75nzK5Bq,2020-0188,2021-10-15,15:34:52,17:00:16,NA,incomplete,true,true,NA,0,2,NA,orange,m_s_091.jpg,NA,NA,pleasant,unpleasant,NA,NA,NA,NA,NA,left,2701,true,NA,NA,NA,NA,NA
75nzK5Bq,322zsn9z6jxccjxbpgrk4cn83gtt4w,32vnztt0abh1joidctrrthiiheg4r9,75nzK5Bq,2020-0188,2021-10-15,15:34:52,17:00:16,NA,incomplete,true,true,NA,0,3,NA,orange,n_l_060.jpg,NA,NA,unpleasant,pleasant,NA,NA,NA,NA,NA,right,1813,true,NA,NA,NA,NA,NA
75nzK5Bq,322zsn9z6jxccjxbpgrk4cn83gtt4w,32vnztt0abh1joidctrrthiiheg4r9,75nzK5Bq,2020-0188,2021-10-15,15:34:52,17:00:16,NA,incomplete,true,true,NA,0,4,NA,orange,m_s_056.jpg,NA,NA,unpleasant,pleasant,NA,NA,NA,NA,NA,right,1793,true,NA,NA,NA,NA,NA
75nzK5Bq,322zsn9z6jxccjxbpgrk4cn83gtt4w,32vnztt0abh1joidctrrthiiheg4r9,75nzK5Bq,2020-0188,2021-10-15,15:34:52,17:00:16,NA,incomplete,true,true,NA,0,5,NA,orange,n_s_105.jpg,NA,NA,pleasant,unpleasant,NA,NA,NA,NA,NA,left,1973,true,NA,NA,NA,NA,NA
75nzK5Bq,322zsn9z6jxccjxbpgrk4cn83gtt4w,32vnztt0abh1joidctrrthiiheg4r9,75nzK5Bq,2020-0188,2021-10-15,15:34:52,17:00:16,NA,incomplete,true,true,NA,0,6,NA,white,n_l_046.jpg,NA,NA,pleasant,unpleasant,NA,NA,NA,NA,NA,left,1335,true,NA,NA,NA,NA,NA
75nzK5Bq,322zsn9z6jxccjxbpgrk4cn83gtt4w,32vnztt0abh1joidctrrthiiheg4r9,75nzK5Bq,2020-0188,2021-10-15,15:34:52,17:00:16,NA,incomplete,true,true,NA,0,7,NA,white,n_s_050.jpg,NA,NA,unpleasant,pleasant,NA,NA,NA,NA,NA,left,1270,true,NA,NA,NA,NA,NA
75nzK5Bq,322zsn9z6jxccjxbpgrk4cn83gtt4w,32vnztt0abh1joidctrrthiiheg4r9,75nzK5Bq,2020-0188,2021-10-15,15:34:52,17:00:16,NA,incomplete,true,true,NA,0,8,NA,white,n_l_007.jpg,NA,NA,unpleasant,pleasant,NA,NA,NA,NA,NA,left,1840,true,NA,NA,NA,NA,NA
75nzK5Bq,322zsn9z6jxccjxbpgrk4cn83gtt4w,32vnztt0abh1joidctrrthiiheg4r9,75nzK5Bq,2020-0188,2021-10-15,15:34:52,17:00:16,NA,incomplete,true,true,NA,0,9,NA,white,n_l_053.jpg,NA,NA,pleasant,unpleasant,NA,NA,NA,NA,NA,right,1846,true,NA,NA,NA,NA,NA
75nzK5Bq,322zsn9z6jxccjxbpgrk4cn83gtt4w,32vnztt0abh1joidctrrthiiheg4r9,75nzK5Bq,2020-0188,2021-10-15,15:34:52,17:00:16,NA,incomplete,true,true,NA,0,10,NA,white,n_l_020.jpg,NA,NA,unpleasant,pleasant,NA,NA,NA,NA,NA,left,1718,true,NA,NA,NA,NA,NA
75nzK5Bq,322zsn9z6jxccjxbpgrk4cn83gtt4w,32vnztt0abh1joidctrrthiiheg4r9,75nzK5Bq,2020-0188,2021-10-15,15:34:52,17:00:16,NA,incomplete,true,true,NA,0,11,NA,white,n_s_048.jpg,NA,NA,pleasant,unpleasant,NA,NA,NA,NA,NA,right,1257,true,NA,NA,NA,NA,NA
75nzK5Bq,322zsn9z6jxccjxbpgrk4cn83gtt4w,32vnztt0abh1joidctrrthiiheg4r9,75nzK5Bq,2020-0188,2021-10-15,15:34:52,17:00:16,NA,incomplete,true,true,NA,0,12,NA,black,n_l_009.jpg,NA,NA,pleasant,unpleasant,NA,NA,NA,NA,NA,left,1760,true,NA,NA,NA,NA,NA
75nzK5Bq,322zsn9z6jxccjxbpgrk4cn83gtt4w,32vnztt0abh1joidctrrthiiheg4r9,75nzK5Bq,2020-0188,2021-10-15,15:34:52,17:00:16,NA,incomplete,true,true,NA,0,13,NA,black,m_l_034.jpg,NA,NA,pleasant,unpleasant,NA,NA,NA,NA,NA,left,1426,true,NA,NA,NA,NA,NA
75nzK5Bq,322zsn9z6jxccjxbpgrk4cn83gtt4w,32vnztt0abh1joidctrrthiiheg4r9,75nzK5Bq,2020-0188,2021-10-15,15:34:52,17:00:16,NA,incomplete,true,true,NA,0,14,NA,black,n_l_106.jpg,NA,NA,pleasant,unpleasant,NA,NA,NA,NA,NA,right,1950,true,NA,NA,NA,NA,NA
75nzK5Bq,322zsn9z6jxccjxbpgrk4cn83gtt4w,32vnztt0abh1joidctrrthiiheg4r9,75nzK5Bq,2020-0188,2021-10-15,15:34:52,17:00:16,NA,incomplete,true,true,NA,0,15,NA,black,n_s_090.jpg,NA,NA,pleasant,unpleasant,NA,NA,NA,NA,NA,left,1355,true,NA,NA,NA,NA,NA
75nzK5Bq,322zsn9z6jxccjxbpgrk4cn83gtt4w,32vnztt0abh1joidctrrthiiheg4r9,75nzK5Bq,2020-0188,2021-10-15,15:34:52,17:00:16,NA,incomplete,true,true,NA,0,16,NA,black,m_l_084.jpg,NA,NA,unpleasant,pleasant,NA,NA,NA,NA,NA,right,2317,true,NA,NA,NA,NA,NA
75nzK5Bq,322zsn9z6jxccjxbpgrk4cn83gtt4w,32vnztt0abh1joidctrrthiiheg4r9,75nzK5Bq,2020-0188,2021-10-15,15:34:52,17:00:16,NA,incomplete,true,true,NA,0,17,NA,black,n_l_041.jpg,NA,NA,unpleasant,pleasant,NA,NA,NA,NA,NA,left,1522,true,NA,NA,NA,NA,NA
75nzK5Bq,322zsn9z6jxccjxbpgrk4cn83gtt4w,32vnztt0abh1joidctrrthiiheg4r9,75nzK5Bq,2020-0188,2021-10-15,15:34:52,17:00:16,NA,incomplete,true,true,NA,0,18,NA,blue,m_l_045.jpg,NA,NA,pleasant,unpleasant,NA,NA,NA,NA,NA,left,1133,true,NA,NA,NA,NA,NA
75nzK5Bq,322zsn9z6jxccjxbpgrk4cn83gtt4w,32vnztt0abh1joidctrrthiiheg4r9,75nzK5Bq,2020-0188,2021-10-15,15:34:52,17:00:16,NA,incomplete,true,true,NA,0,19,NA,blue,n_l_048.jpg,NA,NA,unpleasant,pleasant,NA,NA,NA,NA,NA,left,2201,true,NA,NA,NA,NA,NA
75nzK5Bq,322zsn9z6jxccjxbpgrk4cn83gtt4w,32vnztt0abh1joidctrrthiiheg4r9,75nzK5Bq,2020-0188,2021-10-15,15:34:52,17:00:16,NA,incomplete,true,true,NA,0,20,NA,blue,m_l_093.jpg,NA,NA,unpleasant,pleasant,NA,NA,NA,NA,NA,right,1140,true,NA,NA,NA,NA,NA
75nzK5Bq,322zsn9z6jxccjxbpgrk4cn83gtt4w,32vnztt0abh1joidctrrthiiheg4r9,75nzK5Bq,2020-0188,2021-10-15,15:34:52,17:00:16,NA,incomplete,true,true,NA,0,21,NA,blue,m_s_035.jpg,NA,NA,unpleasant,pleasant,NA,NA,NA,NA,NA,right,1337,true,NA,NA,NA,NA,NA
75nzK5Bq,322zsn9z6jxccjxbpgrk4cn83gtt4w,32vnztt0abh1joidctrrthiiheg4r9,75nzK5Bq,2020-0188,2021-10-15,15:34:52,17:00:16,NA,incomplete,true,true,NA,0,22,NA,blue,m_s_005.jpg,NA,NA,pleasant,unpleasant,NA,NA,NA,NA,NA,left,1915,true,NA,NA,NA,NA,NA
75nzK5Bq,322zsn9z6jxccjxbpgrk4cn83gtt4w,32vnztt0abh1joidctrrthiiheg4r9,75nzK5Bq,2020-0188,2021-10-15,15:34:52,17:00:16,NA,incomplete,true,true,NA,0,23,NA,blue,n_s_112.jpg,NA,NA,pleasant,unpleasant,NA,NA,NA,NA,NA,left,1266,true,NA,NA,NA,NA,NA
75nzK5Bq,322zsn9z6jxccjxbpgrk4cn83gtt4w,32vnztt0abh1joidctrrthiiheg4r9,75nzK5Bq,2020-0188,2021-10-15,15:34:52,17:00:16,NA,incomplete,true,true,NA,0,24,NA,purple,m_l_055.jpg,NA,NA,pleasant,unpleasant,NA,NA,NA,NA,NA,left,1314,true,NA,NA,NA,NA,NA
75nzK5Bq,322zsn9z6jxccjxbpgrk4cn83gtt4w,32vnztt0abh1joidctrrthiiheg4r9,75nzK5Bq,2020-0188,2021-10-15,15:34:52,17:00:16,NA,incomplete,true,true,NA,0,25,NA,purple,m_s_049.jpg,NA,NA,unpleasant,pleasant,NA,NA,NA,NA,NA,right,1322,true,NA,NA,NA,NA,NA
75nzK5Bq,322zsn9z6jxccjxbpgrk4cn83gtt4w,32vnztt0abh1joidctrrthiiheg4r9,75nzK5Bq,2020-0188,2021-10-15,15:34:52,17:00:16,NA,incomplete,true,true,NA,0,26,NA,purple,n_l_066.jpg,NA,NA,unpleasant,pleasant,NA,NA,NA,NA,NA,right,2644,true,NA,NA,NA,NA,NA
75nzK5Bq,322zsn9z6jxccjxbpgrk4cn83gtt4w,32vnztt0abh1joidctrrthiiheg4r9,75nzK5Bq,2020-0188,2021-10-15,15:34:52,17:00:16,NA,incomplete,true,true,NA,0,27,NA,purple,n_s_037.jpg,NA,NA,pleasant,unpleasant,NA,NA,NA,NA,NA,left,1461,true,NA,NA,NA,NA,NA
75nzK5Bq,322zsn9z6jxccjxbpgrk4cn83gtt4w,32vnztt0abh1joidctrrthiiheg4r9,75nzK5Bq,2020-0188,2021-10-15,15:34:52,17:00:16,NA,incomplete,true,true,NA,0,28,NA,purple,n_l_113.jpg,NA,NA,pleasant,unpleasant,NA,NA,NA,NA,NA,right,1339,true,NA,NA,NA,NA,NA
75nzK5Bq,322zsn9z6jxccjxbpgrk4cn83gtt4w,32vnztt0abh1joidctrrthiiheg4r9,75nzK5Bq,2020-0188,2021-10-15,15:34:52,17:00:16,NA,incomplete,true,true,NA,0,29,NA,purple,n_l_086.jpg,NA,NA,pleasant,unpleasant,NA,NA,NA,NA,NA,right,1531,true,NA,NA,NA,NA,NA
75nzK5Bq,322zsn9z6jxccjxbpgrk4cn83gtt4w,32vnztt0abh1joidctrrthiiheg4r9,75nzK5Bq,2020-0188,2021-10-15,15:34:52,17:00:16,NA,incomplete,true,true,NA,0,30,NA,gray,n_l_108.jpg,NA,NA,pleasant,unpleasant,NA,NA,NA,NA,NA,left,1079,true,NA,NA,NA,NA,NA
75nzK5Bq,322zsn9z6jxccjxbpgrk4cn83gtt4w,32vnztt0abh1joidctrrthiiheg4r9,75nzK5Bq,2020-0188,2021-10-15,15:34:52,17:00:16,NA,incomplete,true,true,NA,0,31,NA,gray,m_s_057.jpg,NA,NA,pleasant,unpleasant,NA,NA,NA,NA,NA,right,1138,true,NA,NA,NA,NA,NA
75nzK5Bq,322zsn9z6jxccjxbpgrk4cn83gtt4w,32vnztt0abh1joidctrrthiiheg4r9,75nzK5Bq,2020-0188,2021-10-15,15:34:52,17:00:16,NA,incomplete,true,true,NA,0,32,NA,gray,m_s_001.jpg,NA,NA,unpleasant,pleasant,NA,NA,NA,NA,NA,right,1150,true,NA,NA,NA,NA,NA
75nzK5Bq,322zsn9z6jxccjxbpgrk4cn83gtt4w,32vnztt0abh1joidctrrthiiheg4r9,75nzK5Bq,2020-0188,2021-10-15,15:34:52,17:00:16,NA,incomplete,true,true,NA,0,33,NA,gray,m_l_066.jpg,NA,NA,unpleasant,pleasant,NA,NA,NA,NA,NA,right,1602,true,NA,NA,NA,NA,NA
75nzK5Bq,322zsn9z6jxccjxbpgrk4cn83gtt4w,32vnztt0abh1joidctrrthiiheg4r9,75nzK5Bq,2020-0188,2021-10-15,15:34:52,17:00:16,NA,incomplete,true,true,NA,0,34,NA,gray,n_l_075.jpg,NA,NA,pleasant,unpleasant,NA,NA,NA,NA,NA,right,1267,true,NA,NA,NA,NA,NA
75nzK5Bq,322zsn9z6jxccjxbpgrk4cn83gtt4w,32vnztt0abh1joidctrrthiiheg4r9,75nzK5Bq,2020-0188,2021-10-15,15:34:52,17:00:16,NA,incomplete,true,true,NA,0,35,NA,gray,m_l_047.jpg,NA,NA,pleasant,unpleasant,NA,NA,NA,NA,NA,left,1551,true,NA,NA,NA,NA,NA
75nzK5Bq,322zsn9z6jxccjxbpgrk4cn83gtt4w,32vnztt0abh1joidctrrthiiheg4r9,75nzK5Bq,2020-0188,2021-10-15,15:34:52,17:00:16,NA,incomplete,true,NA,true,0,0,NA,NA,NA,right,present,NA,NA,n_s_112.jpg,blue,n_l_048.jpg,blue,within,NA,NaN,NA,left,7669,0,2,2205
75nzK5Bq,322zsn9z6jxccjxbpgrk4cn83gtt4w,32vnztt0abh1joidctrrthiiheg4r9,75nzK5Bq,2020-0188,2021-10-15,15:34:52,17:00:16,NA,incomplete,true,NA,true,0,1,NA,NA,NA,left,absent,NA,NA,n_s_050.jpg,white,n_s_048.jpg,white,within,NA,NaN,NA,left,2855,1,2,2699
75nzK5Bq,322zsn9z6jxccjxbpgrk4cn83gtt4w,32vnztt0abh1joidctrrthiiheg4r9,75nzK5Bq,2020-0188,2021-10-15,15:34:52,17:00:16,NA,incomplete,true,NA,true,0,2,NA,NA,NA,left,absent,NA,NA,n_s_040.jpg,orange,n_s_105.jpg,orange,within,NA,NaN,NA,left,2885,1,1,2799
75nzK5Bq,322zsn9z6jxccjxbpgrk4cn83gtt4w,32vnztt0abh1joidctrrthiiheg4r9,75nzK5Bq,2020-0188,2021-10-15,15:34:52,17:00:16,NA,incomplete,true,NA,true,0,3,NA,NA,NA,left,absent,NA,NA,m_l_034.jpg,black,n_l_041.jpg,black,within,NA,NaN,NA,left,3502,1,2,2692
75nzK5Bq,322zsn9z6jxccjxbpgrk4cn83gtt4w,32vnztt0abh1joidctrrthiiheg4r9,75nzK5Bq,2020-0188,2021-10-15,15:34:52,17:00:16,NA,incomplete,true,NA,true,0,4,NA,NA,NA,right,absent,NA,NA,n_l_007.jpg,white,m_s_056.jpg,orange,between,NA,NaN,NA,right,5342,1,2,2294
75nzK5Bq,322zsn9z6jxccjxbpgrk4cn83gtt4w,32vnztt0abh1joidctrrthiiheg4r9,75nzK5Bq,2020-0188,2021-10-15,15:34:52,17:00:16,NA,incomplete,true,NA,true,0,5,NA,NA,NA,right,absent,NA,NA,n_l_106.jpg,black,n_l_020.jpg,white,between,NA,NaN,NA,left,3641,0,1,1680
75nzK5Bq,322zsn9z6jxccjxbpgrk4cn83gtt4w,32vnztt0abh1joidctrrthiiheg4r9,75nzK5Bq,2020-0188,2021-10-15,15:34:52,17:00:16,NA,incomplete,true,NA,true,0,6,NA,NA,NA,left,present,NA,NA,m_l_084.jpg,black,m_l_093.jpg,blue,between,NA,NaN,NA,left,2481,1,1,3393
75nzK5Bq,322zsn9z6jxccjxbpgrk4cn83gtt4w,32vnztt0abh1joidctrrthiiheg4r9,75nzK5Bq,2020-0188,2021-10-15,15:34:52,17:00:16,NA,incomplete,true,NA,true,0,7,NA,NA,NA,right,present,NA,NA,n_l_086.jpg,purple,m_s_049.jpg,purple,within,NA,NaN,NA,right,2996,1,2,1757
75nzK5Bq,322zsn9z6jxccjxbpgrk4cn83gtt4w,32vnztt0abh1joidctrrthiiheg4r9,75nzK5Bq,2020-0188,2021-10-15,15:34:52,17:00:16,NA,incomplete,true,NA,true,0,8,NA,NA,NA,left,absent,NA,NA,m_s_005.jpg,blue,n_l_066.jpg,purple,between,NA,NaN,NA,left,3276,1,0,1412
75nzK5Bq,322zsn9z6jxccjxbpgrk4cn83gtt4w,32vnztt0abh1joidctrrthiiheg4r9,75nzK5Bq,2020-0188,2021-10-15,15:34:52,17:00:16,NA,incomplete,true,NA,true,0,9,NA,NA,NA,right,present,NA,NA,m_s_001.jpg,gray,n_l_113.jpg,purple,between,NA,NaN,NA,left,9477,0,1,1967
75nzK5Bq,322zsn9z6jxccjxbpgrk4cn83gtt4w,32vnztt0abh1joidctrrthiiheg4r9,75nzK5Bq,2020-0188,2021-10-15,15:34:52,17:00:16,NA,incomplete,true,NA,true,0,10,NA,NA,NA,left,present,NA,NA,m_s_057.jpg,gray,m_l_047.jpg,gray,within,NA,NaN,NA,left,3678,1,1,1589
75nzK5Bq,322zsn9z6jxccjxbpgrk4cn83gtt4w,32vnztt0abh1joidctrrthiiheg4r9,75nzK5Bq,2020-0188,2021-10-15,15:34:52,17:00:16,NA,incomplete,false,true,NA,1,0,NA,brown,n_l_082.jpg,NA,NA,pleasant,unpleasant,NA,NA,NA,NA,NA,left,1947,true,NA,NA,NA,NA,NA
75nzK5Bq,322zsn9z6jxccjxbpgrk4cn83gtt4w,32vnztt0abh1joidctrrthiiheg4r9,75nzK5Bq,2020-0188,2021-10-15,15:34:52,17:00:16,NA,incomplete,false,true,NA,1,1,NA,brown,n_l_069.jpg,NA,NA,pleasant,unpleasant,NA,NA,NA,NA,NA,left,1694,true,NA,NA,NA,NA,NA
75nzK5Bq,322zsn9z6jxccjxbpgrk4cn83gtt4w,32vnztt0abh1joidctrrthiiheg4r9,75nzK5Bq,2020-0188,2021-10-15,15:34:52,17:00:16,NA,incomplete,false,true,NA,1,2,NA,brown,m_l_004.jpg,NA,NA,unpleasant,pleasant,NA,NA,NA,NA,NA,left,1932,true,NA,NA,NA,NA,NA
75nzK5Bq,322zsn9z6jxccjxbpgrk4cn83gtt4w,32vnztt0abh1joidctrrthiiheg4r9,75nzK5Bq,2020-0188,2021-10-15,15:34:52,17:00:16,NA,incomplete,false,true,NA,1,3,NA,brown,m_l_057.jpg,NA,NA,pleasant,unpleasant,NA,NA,NA,NA,NA,right,2409,true,NA,NA,NA,NA,NA
75nzK5Bq,322zsn9z6jxccjxbpgrk4cn83gtt4w,32vnztt0abh1joidctrrthiiheg4r9,75nzK5Bq,2020-0188,2021-10-15,15:34:52,17:00:16,NA,incomplete,false,true,NA,1,4,NA,brown,m_l_109.jpg,NA,NA,pleasant,unpleasant,NA,NA,NA,NA,NA,left,1478,true,NA,NA,NA,NA,NA
75nzK5Bq,322zsn9z6jxccjxbpgrk4cn83gtt4w,32vnztt0abh1joidctrrthiiheg4r9,75nzK5Bq,2020-0188,2021-10-15,15:34:52,17:00:16,NA,incomplete,false,true,NA,1,5,NA,brown,m_s_009.jpg,NA,NA,unpleasant,pleasant,NA,NA,NA,NA,NA,right,1246,true,NA,NA,NA,NA,NA
75nzK5Bq,322zsn9z6jxccjxbpgrk4cn83gtt4w,32vnztt0abh1joidctrrthiiheg4r9,75nzK5Bq,2020-0188,2021-10-15,15:34:52,17:00:16,NA,incomplete,false,true,NA,1,6,NA,black,n_l_078.jpg,NA,NA,pleasant,unpleasant,NA,NA,NA,NA,NA,left,2354,true,NA,NA,NA,NA,NA
75nzK5Bq,322zsn9z6jxccjxbpgrk4cn83gtt4w,32vnztt0abh1joidctrrthiiheg4r9,75nzK5Bq,2020-0188,2021-10-15,15:34:52,17:00:16,NA,incomplete,false,true,NA,1,7,NA,black,m_s_022.jpg,NA,NA,unpleasant,pleasant,NA,NA,NA,NA,NA,right,1526,true,NA,NA,NA,NA,NA
75nzK5Bq,322zsn9z6jxccjxbpgrk4cn83gtt4w,32vnztt0abh1joidctrrthiiheg4r9,75nzK5Bq,2020-0188,2021-10-15,15:34:52,17:00:16,NA,incomplete,false,true,NA,1,8,NA,black,m_s_025.jpg,NA,NA,unpleasant,pleasant,NA,NA,NA,NA,NA,left,1925,true,NA,NA,NA,NA,NA
75nzK5Bq,322zsn9z6jxccjxbpgrk4cn83gtt4w,32vnztt0abh1joidctrrthiiheg4r9,75nzK5Bq,2020-0188,2021-10-15,15:34:52,17:00:16,NA,incomplete,false,true,NA,1,9,NA,black,n_s_061.jpg,NA,NA,pleasant,unpleasant,NA,NA,NA,NA,NA,left,1464,true,NA,NA,NA,NA,NA
75nzK5Bq,322zsn9z6jxccjxbpgrk4cn83gtt4w,32vnztt0abh1joidctrrthiiheg4r9,75nzK5Bq,2020-0188,2021-10-15,15:34:52,17:00:16,NA,incomplete,false,true,NA,1,10,NA,black,m_l_009.jpg,NA,NA,pleasant,unpleasant,NA,NA,NA,NA,NA,left,1770,true,NA,NA,NA,NA,NA
75nzK5Bq,322zsn9z6jxccjxbpgrk4cn83gtt4w,32vnztt0abh1joidctrrthiiheg4r9,75nzK5Bq,2020-0188,2021-10-15,15:34:52,17:00:16,NA,incomplete,false,true,NA,1,11,NA,black,n_s_023.jpg,NA,NA,pleasant,unpleasant,NA,NA,NA,NA,NA,left,1740,true,NA,NA,NA,NA,NA
75nzK5Bq,322zsn9z6jxccjxbpgrk4cn83gtt4w,32vnztt0abh1joidctrrthiiheg4r9,75nzK5Bq,2020-0188,2021-10-15,15:34:52,17:00:16,NA,incomplete,false,true,NA,1,12,NA,gray,m_l_024.jpg,NA,NA,unpleasant,pleasant,NA,NA,NA,NA,NA,right,1608,true,NA,NA,NA,NA,NA
75nzK5Bq,322zsn9z6jxccjxbpgrk4cn83gtt4w,32vnztt0abh1joidctrrthiiheg4r9,75nzK5Bq,2020-0188,2021-10-15,15:34:52,17:00:16,NA,incomplete,false,true,NA,1,13,NA,gray,m_s_026.jpg,NA,NA,pleasant,unpleasant,NA,NA,NA,NA,NA,right,2516,true,NA,NA,NA,NA,NA
75nzK5Bq,322zsn9z6jxccjxbpgrk4cn83gtt4w,32vnztt0abh1joidctrrthiiheg4r9,75nzK5Bq,2020-0188,2021-10-15,15:34:52,17:00:16,NA,incomplete,false,true,NA,1,14,NA,gray,n_s_071.jpg,NA,NA,unpleasant,pleasant,NA,NA,NA,NA,NA,right,2088,true,NA,NA,NA,NA,NA
75nzK5Bq,322zsn9z6jxccjxbpgrk4cn83gtt4w,32vnztt0abh1joidctrrthiiheg4r9,75nzK5Bq,2020-0188,2021-10-15,15:34:52,17:00:16,NA,incomplete,false,true,NA,1,15,NA,gray,n_s_047.jpg,NA,NA,unpleasant,pleasant,NA,NA,NA,NA,NA,right,1920,true,NA,NA,NA,NA,NA
75nzK5Bq,322zsn9z6jxccjxbpgrk4cn83gtt4w,32vnztt0abh1joidctrrthiiheg4r9,75nzK5Bq,2020-0188,2021-10-15,15:34:52,17:00:16,NA,incomplete,false,true,NA,1,16,NA,gray,m_s_072.jpg,NA,NA,pleasant,unpleasant,NA,NA,NA,NA,NA,left,1269,true,NA,NA,NA,NA,NA
75nzK5Bq,322zsn9z6jxccjxbpgrk4cn83gtt4w,32vnztt0abh1joidctrrthiiheg4r9,75nzK5Bq,2020-0188,2021-10-15,15:34:52,17:00:16,NA,incomplete,false,true,NA,1,17,NA,gray,m_l_056.jpg,NA,NA,pleasant,unpleasant,NA,NA,NA,NA,NA,left,1319,true,NA,NA,NA,NA,NA
75nzK5Bq,322zsn9z6jxccjxbpgrk4cn83gtt4w,32vnztt0abh1joidctrrthiiheg4r9,75nzK5Bq,2020-0188,2021-10-15,15:34:52,17:00:16,NA,incomplete,false,true,NA,1,18,NA,orange,m_l_069.jpg,NA,NA,unpleasant,pleasant,NA,NA,NA,NA,NA,right,247,true,NA,NA,NA,NA,NA
75nzK5Bq,322zsn9z6jxccjxbpgrk4cn83gtt4w,32vnztt0abh1joidctrrthiiheg4r9,75nzK5Bq,2020-0188,2021-10-15,15:34:52,17:00:16,NA,incomplete,false,true,NA,1,19,NA,orange,m_s_077.jpg,NA,NA,pleasant,unpleasant,NA,NA,NA,NA,NA,left,1336,true,NA,NA,NA,NA,NA
75nzK5Bq,322zsn9z6jxccjxbpgrk4cn83gtt4w,32vnztt0abh1joidctrrthiiheg4r9,75nzK5Bq,2020-0188,2021-10-15,15:34:52,17:00:16,NA,incomplete,false,true,NA,1,20,NA,orange,n_l_027.jpg,NA,NA,pleasant,unpleasant,NA,NA,NA,NA,NA,right,847,true,NA,NA,NA,NA,NA
75nzK5Bq,322zsn9z6jxccjxbpgrk4cn83gtt4w,32vnztt0abh1joidctrrthiiheg4r9,75nzK5Bq,2020-0188,2021-10-15,15:34:52,17:00:16,NA,incomplete,false,true,NA,1,21,NA,orange,m_s_087.jpg,NA,NA,unpleasant,pleasant,NA,NA,NA,NA,NA,right,1314,true,NA,NA,NA,NA,NA
75nzK5Bq,322zsn9z6jxccjxbpgrk4cn83gtt4w,32vnztt0abh1joidctrrthiiheg4r9,75nzK5Bq,2020-0188,2021-10-15,15:34:52,17:00:16,NA,incomplete,false,true,NA,1,22,NA,orange,n_l_013.jpg,NA,NA,unpleasant,pleasant,NA,NA,NA,NA,NA,right,1238,true,NA,NA,NA,NA,NA
75nzK5Bq,322zsn9z6jxccjxbpgrk4cn83gtt4w,32vnztt0abh1joidctrrthiiheg4r9,75nzK5Bq,2020-0188,2021-10-15,15:34:52,17:00:16,NA,incomplete,false,true,NA,1,23,NA,orange,m_s_030.jpg,NA,NA,unpleasant,pleasant,NA,NA,NA,NA,NA,right,1099,true,NA,NA,NA,NA,NA
75nzK5Bq,322zsn9z6jxccjxbpgrk4cn83gtt4w,32vnztt0abh1joidctrrthiiheg4r9,75nzK5Bq,2020-0188,2021-10-15,15:34:52,17:00:16,NA,incomplete,false,true,NA,1,24,NA,green,m_l_007.jpg,NA,NA,unpleasant,pleasant,NA,NA,NA,NA,NA,right,1316,true,NA,NA,NA,NA,NA
75nzK5Bq,322zsn9z6jxccjxbpgrk4cn83gtt4w,32vnztt0abh1joidctrrthiiheg4r9,75nzK5Bq,2020-0188,2021-10-15,15:34:52,17:00:16,NA,incomplete,false,true,NA,1,25,NA,green,m_s_094.jpg,NA,NA,pleasant,unpleasant,NA,NA,NA,NA,NA,left,1260,true,NA,NA,NA,NA,NA
75nzK5Bq,322zsn9z6jxccjxbpgrk4cn83gtt4w,32vnztt0abh1joidctrrthiiheg4r9,75nzK5Bq,2020-0188,2021-10-15,15:34:52,17:00:16,NA,incomplete,false,true,NA,1,26,NA,green,n_l_067.jpg,NA,NA,pleasant,unpleasant,NA,NA,NA,NA,NA,right,1924,true,NA,NA,NA,NA,NA
75nzK5Bq,322zsn9z6jxccjxbpgrk4cn83gtt4w,32vnztt0abh1joidctrrthiiheg4r9,75nzK5Bq,2020-0188,2021-10-15,15:34:52,17:00:16,NA,incomplete,false,true,NA,1,27,NA,green,n_l_006.jpg,NA,NA,unpleasant,pleasant,NA,NA,NA,NA,NA,right,1219,true,NA,NA,NA,NA,NA
75nzK5Bq,322zsn9z6jxccjxbpgrk4cn83gtt4w,32vnztt0abh1joidctrrthiiheg4r9,75nzK5Bq,2020-0188,2021-10-15,15:34:52,17:00:16,NA,incomplete,false,true,NA,1,28,NA,green,m_l_074.jpg,NA,NA,unpleasant,pleasant,NA,NA,NA,NA,NA,right,1346,true,NA,NA,NA,NA,NA
75nzK5Bq,322zsn9z6jxccjxbpgrk4cn83gtt4w,32vnztt0abh1joidctrrthiiheg4r9,75nzK5Bq,2020-0188,2021-10-15,15:34:52,17:00:16,NA,incomplete,false,true,NA,1,29,NA,green,n_l_091.jpg,NA,NA,pleasant,unpleasant,NA,NA,NA,NA,NA,left,1486,true,NA,NA,NA,NA,NA
75nzK5Bq,322zsn9z6jxccjxbpgrk4cn83gtt4w,32vnztt0abh1joidctrrthiiheg4r9,75nzK5Bq,2020-0188,2021-10-15,15:34:52,17:00:16,NA,incomplete,false,true,NA,1,30,NA,purple,m_s_051.jpg,NA,NA,unpleasant,pleasant,NA,NA,NA,NA,NA,right,1662,true,NA,NA,NA,NA,NA
75nzK5Bq,322zsn9z6jxccjxbpgrk4cn83gtt4w,32vnztt0abh1joidctrrthiiheg4r9,75nzK5Bq,2020-0188,2021-10-15,15:34:52,17:00:16,NA,incomplete,false,true,NA,1,31,NA,purple,m_l_021.jpg,NA,NA,unpleasant,pleasant,NA,NA,NA,NA,NA,left,1785,true,NA,NA,NA,NA,NA
75nzK5Bq,322zsn9z6jxccjxbpgrk4cn83gtt4w,32vnztt0abh1joidctrrthiiheg4r9,75nzK5Bq,2020-0188,2021-10-15,15:34:52,17:00:16,NA,incomplete,false,true,NA,1,32,NA,purple,n_s_059.jpg,NA,NA,pleasant,unpleasant,NA,NA,NA,NA,NA,left,1755,true,NA,NA,NA,NA,NA
75nzK5Bq,322zsn9z6jxccjxbpgrk4cn83gtt4w,32vnztt0abh1joidctrrthiiheg4r9,75nzK5Bq,2020-0188,2021-10-15,15:34:52,17:00:16,NA,incomplete,false,true,NA,1,33,NA,purple,n_l_033.jpg,NA,NA,pleasant,unpleasant,NA,NA,NA,NA,NA,left,1423,true,NA,NA,NA,NA,NA
75nzK5Bq,322zsn9z6jxccjxbpgrk4cn83gtt4w,32vnztt0abh1joidctrrthiiheg4r9,75nzK5Bq,2020-0188,2021-10-15,15:34:52,17:00:16,NA,incomplete,false,true,NA,1,34,NA,purple,n_s_038.jpg,NA,NA,pleasant,unpleasant,NA,NA,NA,NA,NA,right,1512,true,NA,NA,NA,NA,NA
75nzK5Bq,322zsn9z6jxccjxbpgrk4cn83gtt4w,32vnztt0abh1joidctrrthiiheg4r9,75nzK5Bq,2020-0188,2021-10-15,15:34:52,17:00:16,NA,incomplete,false,true,NA,1,35,NA,purple,m_l_061.jpg,NA,NA,pleasant,unpleasant,NA,NA,NA,NA,NA,left,1022,true,NA,NA,NA,NA,NA
75nzK5Bq,322zsn9z6jxccjxbpgrk4cn83gtt4w,32vnztt0abh1joidctrrthiiheg4r9,75nzK5Bq,2020-0188,2021-10-15,15:34:52,17:00:16,NA,incomplete,false,NA,true,1,0,NA,NA,NA,left,absent,NA,NA,n_l_013.jpg,orange,n_l_067.jpg,green,between,NA,NaN,NA,left,2860,1,2,2072
75nzK5Bq,322zsn9z6jxccjxbpgrk4cn83gtt4w,32vnztt0abh1joidctrrthiiheg4r9,75nzK5Bq,2020-0188,2021-10-15,15:34:52,17:00:16,NA,incomplete,false,NA,true,1,1,NA,NA,NA,right,absent,NA,NA,m_s_009.jpg,brown,n_l_069.jpg,brown,within,NA,NaN,NA,right,5057,1,1,2987
75nzK5Bq,322zsn9z6jxccjxbpgrk4cn83gtt4w,32vnztt0abh1joidctrrthiiheg4r9,75nzK5Bq,2020-0188,2021-10-15,15:34:52,17:00:16,NA,incomplete,false,NA,true,1,2,NA,NA,NA,right,absent,NA,NA,n_s_071.jpg,gray,m_l_009.jpg,black,between,NA,NaN,NA,right,3093,1,2,1664
75nzK5Bq,322zsn9z6jxccjxbpgrk4cn83gtt4w,32vnztt0abh1joidctrrthiiheg4r9,75nzK5Bq,2020-0188,2021-10-15,15:34:52,17:00:16,NA,incomplete,false,NA,true,1,3,NA,NA,NA,left,absent,NA,NA,m_s_072.jpg,gray,n_l_027.jpg,orange,between,NA,NaN,NA,left,4306,1,2,2455
75nzK5Bq,322zsn9z6jxccjxbpgrk4cn83gtt4w,32vnztt0abh1joidctrrthiiheg4r9,75nzK5Bq,2020-0188,2021-10-15,15:34:52,17:00:16,NA,incomplete,false,NA,true,1,4,NA,NA,NA,right,absent,NA,NA,m_l_061.jpg,purple,m_l_021.jpg,purple,within,NA,NaN,NA,right,2815,1,2,3392
75nzK5Bq,322zsn9z6jxccjxbpgrk4cn83gtt4w,32vnztt0abh1joidctrrthiiheg4r9,75nzK5Bq,2020-0188,2021-10-15,15:34:52,17:00:16,NA,incomplete,false,NA,true,1,5,NA,NA,NA,right,absent,NA,NA,m_l_056.jpg,gray,m_s_026.jpg,gray,within,NA,NaN,NA,right,4950,1,1,2284
75nzK5Bq,322zsn9z6jxccjxbpgrk4cn83gtt4w,32vnztt0abh1joidctrrthiiheg4r9,75nzK5Bq,2020-0188,2021-10-15,15:34:52,17:00:16,NA,incomplete,false,NA,true,1,6,NA,NA,NA,left,absent,NA,NA,m_s_077.jpg,orange,m_s_030.jpg,orange,within,NA,NaN,NA,left,2752,1,2,1964
75nzK5Bq,322zsn9z6jxccjxbpgrk4cn83gtt4w,32vnztt0abh1joidctrrthiiheg4r9,75nzK5Bq,2020-0188,2021-10-15,15:34:52,17:00:16,NA,incomplete,false,NA,true,1,7,NA,NA,NA,right,absent,NA,NA,n_l_091.jpg,green,m_s_094.jpg,green,within,NA,NaN,NA,right,4314,1,2,1602
75nzK5Bq,322zsn9z6jxccjxbpgrk4cn83gtt4w,32vnztt0abh1joidctrrthiiheg4r9,75nzK5Bq,2020-0188,2021-10-15,15:34:52,17:00:16,NA,incomplete,false,NA,true,1,8,NA,NA,NA,left,absent,NA,NA,m_l_109.jpg,brown,m_s_025.jpg,black,between,NA,NaN,NA,left,2011,1,1,1728
75nzK5Bq,322zsn9z6jxccjxbpgrk4cn83gtt4w,32vnztt0abh1joidctrrthiiheg4r9,75nzK5Bq,2020-0188,2021-10-15,15:34:52,17:00:16,NA,incomplete,false,NA,true,1,9,NA,NA,NA,right,absent,NA,NA,n_s_023.jpg,black,m_s_022.jpg,black,within,NA,NaN,NA,left,2681,0,2,1418
75nzK5Bq,322zsn9z6jxccjxbpgrk4cn83gtt4w,32vnztt0abh1joidctrrthiiheg4r9,75nzK5Bq,2020-0188,2021-10-15,15:34:52,17:00:16,NA,incomplete,false,NA,true,1,10,NA,NA,NA,left,absent,NA,NA,m_l_074.jpg,green,n_s_059.jpg,purple,between,NA,NaN,NA,right,2878,0,1,1599
75nzK5Bq,322zsn9z6jxccjxbpgrk4cn83gtt4w,32vnztt0abh1joidctrrthiiheg4r9,75nzK5Bq,2020-0188,2021-10-15,15:34:52,17:00:16,NA,incomplete,false,true,NA,2,0,NA,black,n_s_107.jpg,NA,NA,pleasant,unpleasant,NA,NA,NA,NA,NA,left,1811,true,NA,NA,NA,NA,NA
75nzK5Bq,322zsn9z6jxccjxbpgrk4cn83gtt4w,32vnztt0abh1joidctrrthiiheg4r9,75nzK5Bq,2020-0188,2021-10-15,15:34:52,17:00:16,NA,incomplete,false,true,NA,2,1,NA,black,n_s_104.jpg,NA,NA,pleasant,unpleasant,NA,NA,NA,NA,NA,left,1808,true,NA,NA,NA,NA,NA
75nzK5Bq,322zsn9z6jxccjxbpgrk4cn83gtt4w,32vnztt0abh1joidctrrthiiheg4r9,75nzK5Bq,2020-0188,2021-10-15,15:34:52,17:00:16,NA,incomplete,false,true,NA,2,2,NA,black,n_s_110.jpg,NA,NA,unpleasant,pleasant,NA,NA,NA,NA,NA,left,2592,true,NA,NA,NA,NA,NA
75nzK5Bq,322zsn9z6jxccjxbpgrk4cn83gtt4w,32vnztt0abh1joidctrrthiiheg4r9,75nzK5Bq,2020-0188,2021-10-15,15:34:52,17:00:16,NA,incomplete,false,true,NA,2,3,NA,black,m_l_086.jpg,NA,NA,pleasant,unpleasant,NA,NA,NA,NA,NA,left,2076,true,NA,NA,NA,NA,NA
75nzK5Bq,322zsn9z6jxccjxbpgrk4cn83gtt4w,32vnztt0abh1joidctrrthiiheg4r9,75nzK5Bq,2020-0188,2021-10-15,15:34:52,17:00:16,NA,incomplete,false,true,NA,2,4,NA,black,n_l_061.jpg,NA,NA,unpleasant,pleasant,NA,NA,NA,NA,NA,right,1856,true,NA,NA,NA,NA,NA
75nzK5Bq,322zsn9z6jxccjxbpgrk4cn83gtt4w,32vnztt0abh1joidctrrthiiheg4r9,75nzK5Bq,2020-0188,2021-10-15,15:34:52,17:00:16,NA,incomplete,false,true,NA,2,5,NA,black,m_s_012.jpg,NA,NA,unpleasant,pleasant,NA,NA,NA,NA,NA,right,1992,true,NA,NA,NA,NA,NA
75nzK5Bq,322zsn9z6jxccjxbpgrk4cn83gtt4w,32vnztt0abh1joidctrrthiiheg4r9,75nzK5Bq,2020-0188,2021-10-15,15:34:52,17:00:16,NA,incomplete,false,true,NA,2,6,NA,blue,m_s_074.jpg,NA,NA,pleasant,unpleasant,NA,NA,NA,NA,NA,left,2128,true,NA,NA,NA,NA,NA
75nzK5Bq,322zsn9z6jxccjxbpgrk4cn83gtt4w,32vnztt0abh1joidctrrthiiheg4r9,75nzK5Bq,2020-0188,2021-10-15,15:34:52,17:00:16,NA,incomplete,false,true,NA,2,7,NA,blue,n_s_021.jpg,NA,NA,pleasant,unpleasant,NA,NA,NA,NA,NA,left,3066,true,NA,NA,NA,NA,NA
75nzK5Bq,322zsn9z6jxccjxbpgrk4cn83gtt4w,32vnztt0abh1joidctrrthiiheg4r9,75nzK5Bq,2020-0188,2021-10-15,15:34:52,17:00:16,NA,incomplete,false,true,NA,2,8,NA,blue,m_l_099.jpg,NA,NA,unpleasant,pleasant,NA,NA,NA,NA,NA,right,1945,true,NA,NA,NA,NA,NA
75nzK5Bq,322zsn9z6jxccjxbpgrk4cn83gtt4w,32vnztt0abh1joidctrrthiiheg4r9,75nzK5Bq,2020-0188,2021-10-15,15:34:52,17:00:16,NA,incomplete,false,true,NA,2,9,NA,blue,m_l_048.jpg,NA,NA,unpleasant,pleasant,NA,NA,NA,NA,NA,right,1410,true,NA,NA,NA,NA,NA
75nzK5Bq,322zsn9z6jxccjxbpgrk4cn83gtt4w,32vnztt0abh1joidctrrthiiheg4r9,75nzK5Bq,2020-0188,2021-10-15,15:34:52,17:00:16,NA,incomplete,false,true,NA,2,10,NA,blue,m_l_076.jpg,NA,NA,pleasant,unpleasant,NA,NA,NA,NA,NA,left,1440,true,NA,NA,NA,NA,NA
75nzK5Bq,322zsn9z6jxccjxbpgrk4cn83gtt4w,32vnztt0abh1joidctrrthiiheg4r9,75nzK5Bq,2020-0188,2021-10-15,15:34:52,17:00:16,NA,incomplete,false,true,NA,2,11,NA,blue,m_s_013.jpg,NA,NA,unpleasant,pleasant,NA,NA,NA,NA,NA,right,1908,true,NA,NA,NA,NA,NA
75nzK5Bq,322zsn9z6jxccjxbpgrk4cn83gtt4w,32vnztt0abh1joidctrrthiiheg4r9,75nzK5Bq,2020-0188,2021-10-15,15:34:52,17:00:16,NA,incomplete,false,true,NA,2,12,NA,orange,m_s_064.jpg,NA,NA,unpleasant,pleasant,NA,NA,NA,NA,NA,left,1338,true,NA,NA,NA,NA,NA
75nzK5Bq,322zsn9z6jxccjxbpgrk4cn83gtt4w,32vnztt0abh1joidctrrthiiheg4r9,75nzK5Bq,2020-0188,2021-10-15,15:34:52,17:00:16,NA,incomplete,false,true,NA,2,13,NA,orange,n_l_107.jpg,NA,NA,unpleasant,pleasant,NA,NA,NA,NA,NA,left,1619,true,NA,NA,NA,NA,NA
75nzK5Bq,322zsn9z6jxccjxbpgrk4cn83gtt4w,32vnztt0abh1joidctrrthiiheg4r9,75nzK5Bq,2020-0188,2021-10-15,15:34:52,17:00:16,NA,incomplete,false,true,NA,2,14,NA,orange,m_s_010.jpg,NA,NA,pleasant,unpleasant,NA,NA,NA,NA,NA,left,1551,true,NA,NA,NA,NA,NA
75nzK5Bq,322zsn9z6jxccjxbpgrk4cn83gtt4w,32vnztt0abh1joidctrrthiiheg4r9,75nzK5Bq,2020-0188,2021-10-15,15:34:52,17:00:16,NA,incomplete,false,true,NA,2,15,NA,orange,n_s_089.jpg,NA,NA,pleasant,unpleasant,NA,NA,NA,NA,NA,right,1865,true,NA,NA,NA,NA,NA
75nzK5Bq,322zsn9z6jxccjxbpgrk4cn83gtt4w,32vnztt0abh1joidctrrthiiheg4r9,75nzK5Bq,2020-0188,2021-10-15,15:34:52,17:00:16,NA,incomplete,false,true,NA,2,16,NA,orange,n_s_032.jpg,NA,NA,pleasant,unpleasant,NA,NA,NA,NA,NA,left,1389,true,NA,NA,NA,NA,NA
75nzK5Bq,322zsn9z6jxccjxbpgrk4cn83gtt4w,32vnztt0abh1joidctrrthiiheg4r9,75nzK5Bq,2020-0188,2021-10-15,15:34:52,17:00:16,NA,incomplete,false,true,NA,2,17,NA,orange,m_l_012.jpg,NA,NA,unpleasant,pleasant,NA,NA,NA,NA,NA,right,1715,true,NA,NA,NA,NA,NA
75nzK5Bq,322zsn9z6jxccjxbpgrk4cn83gtt4w,32vnztt0abh1joidctrrthiiheg4r9,75nzK5Bq,2020-0188,2021-10-15,15:34:52,17:00:16,NA,incomplete,false,true,NA,2,18,NA,yellow,n_s_116.jpg,NA,NA,pleasant,unpleasant,NA,NA,NA,NA,NA,right,2103,true,NA,NA,NA,NA,NA
75nzK5Bq,322zsn9z6jxccjxbpgrk4cn83gtt4w,32vnztt0abh1joidctrrthiiheg4r9,75nzK5Bq,2020-0188,2021-10-15,15:34:52,17:00:16,NA,incomplete,false,true,NA,2,19,NA,yellow,n_l_115.jpg,NA,NA,unpleasant,pleasant,NA,NA,NA,NA,NA,left,2473,true,NA,NA,NA,NA,NA
75nzK5Bq,322zsn9z6jxccjxbpgrk4cn83gtt4w,32vnztt0abh1joidctrrthiiheg4r9,75nzK5Bq,2020-0188,2021-10-15,15:34:52,17:00:16,NA,incomplete,false,true,NA,2,20,NA,yellow,m_l_031.jpg,NA,NA,unpleasant,pleasant,NA,NA,NA,NA,NA,right,1446,true,NA,NA,NA,NA,NA
75nzK5Bq,322zsn9z6jxccjxbpgrk4cn83gtt4w,32vnztt0abh1joidctrrthiiheg4r9,75nzK5Bq,2020-0188,2021-10-15,15:34:52,17:00:16,NA,incomplete,false,true,NA,2,21,NA,yellow,n_l_016.jpg,NA,NA,unpleasant,pleasant,NA,NA,NA,NA,NA,right,1344,true,NA,NA,NA,NA,NA
75nzK5Bq,322zsn9z6jxccjxbpgrk4cn83gtt4w,32vnztt0abh1joidctrrthiiheg4r9,75nzK5Bq,2020-0188,2021-10-15,15:34:52,17:00:16,NA,incomplete,false,true,NA,2,22,NA,yellow,n_l_076.jpg,NA,NA,pleasant,unpleasant,NA,NA,NA,NA,NA,right,1315,true,NA,NA,NA,NA,NA
75nzK5Bq,322zsn9z6jxccjxbpgrk4cn83gtt4w,32vnztt0abh1joidctrrthiiheg4r9,75nzK5Bq,2020-0188,2021-10-15,15:34:52,17:00:16,NA,incomplete,false,true,NA,2,23,NA,yellow,m_s_099.jpg,NA,NA,pleasant,unpleasant,NA,NA,NA,NA,NA,left,1200,true,NA,NA,NA,NA,NA
75nzK5Bq,322zsn9z6jxccjxbpgrk4cn83gtt4w,32vnztt0abh1joidctrrthiiheg4r9,75nzK5Bq,2020-0188,2021-10-15,15:34:52,17:00:16,NA,incomplete,false,true,NA,2,24,NA,green,n_l_015.jpg,NA,NA,pleasant,unpleasant,NA,NA,NA,NA,NA,right,1751,true,NA,NA,NA,NA,NA
75nzK5Bq,322zsn9z6jxccjxbpgrk4cn83gtt4w,32vnztt0abh1joidctrrthiiheg4r9,75nzK5Bq,2020-0188,2021-10-15,15:34:52,17:00:16,NA,incomplete,false,true,NA,2,25,NA,green,n_s_078.jpg,NA,NA,unpleasant,pleasant,NA,NA,NA,NA,NA,right,1337,true,NA,NA,NA,NA,NA
75nzK5Bq,322zsn9z6jxccjxbpgrk4cn83gtt4w,32vnztt0abh1joidctrrthiiheg4r9,75nzK5Bq,2020-0188,2021-10-15,15:34:52,17:00:16,NA,incomplete,false,true,NA,2,26,NA,green,n_s_002.jpg,NA,NA,unpleasant,pleasant,NA,NA,NA,NA,NA,right,1378,true,NA,NA,NA,NA,NA
75nzK5Bq,322zsn9z6jxccjxbpgrk4cn83gtt4w,32vnztt0abh1joidctrrthiiheg4r9,75nzK5Bq,2020-0188,2021-10-15,15:34:52,17:00:16,NA,incomplete,false,true,NA,2,27,NA,green,n_l_028.jpg,NA,NA,pleasant,unpleasant,NA,NA,NA,NA,NA,left,1622,true,NA,NA,NA,NA,NA
75nzK5Bq,322zsn9z6jxccjxbpgrk4cn83gtt4w,32vnztt0abh1joidctrrthiiheg4r9,75nzK5Bq,2020-0188,2021-10-15,15:34:52,17:00:16,NA,incomplete,false,true,NA,2,28,NA,green,n_l_096.jpg,NA,NA,unpleasant,pleasant,NA,NA,NA,NA,NA,right,1234,true,NA,NA,NA,NA,NA
75nzK5Bq,322zsn9z6jxccjxbpgrk4cn83gtt4w,32vnztt0abh1joidctrrthiiheg4r9,75nzK5Bq,2020-0188,2021-10-15,15:34:52,17:00:16,NA,incomplete,false,true,NA,2,29,NA,green,m_l_015.jpg,NA,NA,unpleasant,pleasant,NA,NA,NA,NA,NA,right,1222,true,NA,NA,NA,NA,NA
75nzK5Bq,322zsn9z6jxccjxbpgrk4cn83gtt4w,32vnztt0abh1joidctrrthiiheg4r9,75nzK5Bq,2020-0188,2021-10-15,15:34:52,17:00:16,NA,incomplete,false,true,NA,2,30,NA,brown,m_l_067.jpg,NA,NA,pleasant,unpleasant,NA,NA,NA,NA,NA,left,1483,true,NA,NA,NA,NA,NA
75nzK5Bq,322zsn9z6jxccjxbpgrk4cn83gtt4w,32vnztt0abh1joidctrrthiiheg4r9,75nzK5Bq,2020-0188,2021-10-15,15:34:52,17:00:16,NA,incomplete,false,true,NA,2,31,NA,brown,n_l_038.jpg,NA,NA,unpleasant,pleasant,NA,NA,NA,NA,NA,right,1527,true,NA,NA,NA,NA,NA
75nzK5Bq,322zsn9z6jxccjxbpgrk4cn83gtt4w,32vnztt0abh1joidctrrthiiheg4r9,75nzK5Bq,2020-0188,2021-10-15,15:34:52,17:00:16,NA,incomplete,false,true,NA,2,32,NA,brown,m_l_092.jpg,NA,NA,unpleasant,pleasant,NA,NA,NA,NA,NA,left,1801,true,NA,NA,NA,NA,NA
75nzK5Bq,322zsn9z6jxccjxbpgrk4cn83gtt4w,32vnztt0abh1joidctrrthiiheg4r9,75nzK5Bq,2020-0188,2021-10-15,15:34:52,17:00:16,NA,incomplete,false,true,NA,2,33,NA,brown,n_l_050.jpg,NA,NA,unpleasant,pleasant,NA,NA,NA,NA,NA,right,1213,true,NA,NA,NA,NA,NA
75nzK5Bq,322zsn9z6jxccjxbpgrk4cn83gtt4w,32vnztt0abh1joidctrrthiiheg4r9,75nzK5Bq,2020-0188,2021-10-15,15:34:52,17:00:16,NA,incomplete,false,true,NA,2,34,NA,brown,n_l_064.jpg,NA,NA,pleasant,unpleasant,NA,NA,NA,NA,NA,left,1168,true,NA,NA,NA,NA,NA
75nzK5Bq,322zsn9z6jxccjxbpgrk4cn83gtt4w,32vnztt0abh1joidctrrthiiheg4r9,75nzK5Bq,2020-0188,2021-10-15,15:34:52,17:00:16,NA,incomplete,false,true,NA,2,35,NA,brown,n_l_089.jpg,NA,NA,unpleasant,pleasant,NA,NA,NA,NA,NA,right,1214,true,NA,NA,NA,NA,NA
75nzK5Bq,322zsn9z6jxccjxbpgrk4cn83gtt4w,32vnztt0abh1joidctrrthiiheg4r9,75nzK5Bq,2020-0188,2021-10-15,15:34:52,17:00:16,NA,incomplete,false,NA,true,2,0,NA,NA,NA,left,present,NA,NA,n_l_076.jpg,yellow,n_s_002.jpg,green,between,NA,NaN,NA,left,6645,1,2,1938
75nzK5Bq,322zsn9z6jxccjxbpgrk4cn83gtt4w,32vnztt0abh1joidctrrthiiheg4r9,75nzK5Bq,2020-0188,2021-10-15,15:34:52,17:00:16,NA,incomplete,false,NA,true,2,1,NA,NA,NA,left,present,NA,NA,n_l_038.jpg,brown,n_l_089.jpg,brown,within,NA,NaN,NA,left,2069,1,1,2734
75nzK5Bq,322zsn9z6jxccjxbpgrk4cn83gtt4w,32vnztt0abh1joidctrrthiiheg4r9,75nzK5Bq,2020-0188,2021-10-15,15:34:52,17:00:16,NA,incomplete,false,NA,true,2,2,NA,NA,NA,right,present,NA,NA,m_l_092.jpg,brown,n_l_096.jpg,green,between,NA,NaN,NA,right,3268,1,2,1985
75nzK5Bq,322zsn9z6jxccjxbpgrk4cn83gtt4w,32vnztt0abh1joidctrrthiiheg4r9,75nzK5Bq,2020-0188,2021-10-15,15:34:52,17:00:16,NA,incomplete,false,NA,true,2,3,NA,NA,NA,left,present,NA,NA,n_l_107.jpg,orange,m_l_012.jpg,orange,within,NA,NaN,NA,left,3232,1,1,2395
75nzK5Bq,322zsn9z6jxccjxbpgrk4cn83gtt4w,32vnztt0abh1joidctrrthiiheg4r9,75nzK5Bq,2020-0188,2021-10-15,15:34:52,17:00:16,NA,incomplete,false,NA,true,2,4,NA,NA,NA,right,present,NA,NA,m_l_015.jpg,green,n_s_078.jpg,green,within,NA,NaN,NA,left,4055,0,3,2569
75nzK5Bq,322zsn9z6jxccjxbpgrk4cn83gtt4w,32vnztt0abh1joidctrrthiiheg4r9,75nzK5Bq,2020-0188,2021-10-15,15:34:52,17:00:16,NA,incomplete,false,NA,true,2,5,NA,NA,NA,right,present,NA,NA,m_s_099.jpg,yellow,n_l_115.jpg,yellow,within,NA,NaN,NA,right,5209,1,1,1725
75nzK5Bq,322zsn9z6jxccjxbpgrk4cn83gtt4w,32vnztt0abh1joidctrrthiiheg4r9,75nzK5Bq,2020-0188,2021-10-15,15:34:52,17:00:16,NA,incomplete,false,NA,true,2,6,NA,NA,NA,left,present,NA,NA,n_s_021.jpg,blue,m_s_013.jpg,blue,within,NA,NaN,NA,left,4217,1,2,2307
75nzK5Bq,322zsn9z6jxccjxbpgrk4cn83gtt4w,32vnztt0abh1joidctrrthiiheg4r9,75nzK5Bq,2020-0188,2021-10-15,15:34:52,17:00:16,NA,incomplete,false,NA,true,2,7,NA,NA,NA,left,present,NA,NA,n_l_061.jpg,black,m_l_099.jpg,blue,between,NA,NaN,NA,right,7871,0,2,2795
75nzK5Bq,322zsn9z6jxccjxbpgrk4cn83gtt4w,32vnztt0abh1joidctrrthiiheg4r9,75nzK5Bq,2020-0188,2021-10-15,15:34:52,17:00:16,NA,incomplete,false,NA,true,2,8,NA,NA,NA,right,present,NA,NA,m_s_010.jpg,orange,m_l_076.jpg,blue,between,NA,NaN,NA,right,6188,1,2,1943
75nzK5Bq,322zsn9z6jxccjxbpgrk4cn83gtt4w,32vnztt0abh1joidctrrthiiheg4r9,75nzK5Bq,2020-0188,2021-10-15,15:34:52,17:00:16,NA,incomplete,false,NA,true,2,9,NA,NA,NA,right,present,NA,NA,m_l_031.jpg,yellow,n_s_032.jpg,orange,between,NA,NaN,NA,left,10507,0,1,2383
75nzK5Bq,322zsn9z6jxccjxbpgrk4cn83gtt4w,32vnztt0abh1joidctrrthiiheg4r9,75nzK5Bq,2020-0188,2021-10-15,15:34:52,17:00:16,NA,incomplete,false,NA,true,2,10,NA,NA,NA,left,present,NA,NA,n_s_104.jpg,black,m_s_012.jpg,black,within,NA,NaN,NA,left,42341,1,1,1589
75nzK5Bq,322zsn9z6jxccjxbpgrk4cn83gtt4w,32vnztt0abh1joidctrrthiiheg4r9,75nzK5Bq,2020-0188,2021-10-15,15:34:52,17:00:16,NA,incomplete,false,true,NA,3,0,NA,yellow,n_s_045.jpg,NA,NA,pleasant,unpleasant,NA,NA,NA,NA,NA,left,1890,true,NA,NA,NA,NA,NA
75nzK5Bq,322zsn9z6jxccjxbpgrk4cn83gtt4w,32vnztt0abh1joidctrrthiiheg4r9,75nzK5Bq,2020-0188,2021-10-15,15:34:52,17:00:16,NA,incomplete,false,true,NA,3,1,NA,yellow,n_l_090.jpg,NA,NA,pleasant,unpleasant,NA,NA,NA,NA,NA,left,2813,true,NA,NA,NA,NA,NA
75nzK5Bq,322zsn9z6jxccjxbpgrk4cn83gtt4w,32vnztt0abh1joidctrrthiiheg4r9,75nzK5Bq,2020-0188,2021-10-15,15:34:52,17:00:16,NA,incomplete,false,true,NA,3,2,NA,yellow,n_l_063.jpg,NA,NA,unpleasant,pleasant,NA,NA,NA,NA,NA,right,1489,true,NA,NA,NA,NA,NA
75nzK5Bq,322zsn9z6jxccjxbpgrk4cn83gtt4w,32vnztt0abh1joidctrrthiiheg4r9,75nzK5Bq,2020-0188,2021-10-15,15:34:52,17:00:16,NA,incomplete,false,true,NA,3,3,NA,yellow,m_s_063.jpg,NA,NA,pleasant,unpleasant,NA,NA,NA,NA,NA,left,1789,true,NA,NA,NA,NA,NA
75nzK5Bq,322zsn9z6jxccjxbpgrk4cn83gtt4w,32vnztt0abh1joidctrrthiiheg4r9,75nzK5Bq,2020-0188,2021-10-15,15:34:52,17:00:16,NA,incomplete,false,true,NA,3,4,NA,yellow,n_s_062.jpg,NA,NA,unpleasant,pleasant,NA,NA,NA,NA,NA,left,1362,true,NA,NA,NA,NA,NA
75nzK5Bq,322zsn9z6jxccjxbpgrk4cn83gtt4w,32vnztt0abh1joidctrrthiiheg4r9,75nzK5Bq,2020-0188,2021-10-15,15:34:52,17:00:16,NA,incomplete,false,true,NA,3,5,NA,yellow,m_s_038.jpg,NA,NA,unpleasant,pleasant,NA,NA,NA,NA,NA,right,1157,true,NA,NA,NA,NA,NA
75nzK5Bq,322zsn9z6jxccjxbpgrk4cn83gtt4w,32vnztt0abh1joidctrrthiiheg4r9,75nzK5Bq,2020-0188,2021-10-15,15:34:52,17:00:16,NA,incomplete,false,true,NA,3,6,NA,blue,m_l_062.jpg,NA,NA,pleasant,unpleasant,NA,NA,NA,NA,NA,left,1586,true,NA,NA,NA,NA,NA
75nzK5Bq,322zsn9z6jxccjxbpgrk4cn83gtt4w,32vnztt0abh1joidctrrthiiheg4r9,75nzK5Bq,2020-0188,2021-10-15,15:34:52,17:00:16,NA,incomplete,false,true,NA,3,7,NA,blue,n_s_031.jpg,NA,NA,unpleasant,pleasant,NA,NA,NA,NA,NA,right,1100,true,NA,NA,NA,NA,NA
75nzK5Bq,322zsn9z6jxccjxbpgrk4cn83gtt4w,32vnztt0abh1joidctrrthiiheg4r9,75nzK5Bq,2020-0188,2021-10-15,15:34:52,17:00:16,NA,incomplete,false,true,NA,3,8,NA,blue,m_l_089.jpg,NA,NA,unpleasant,pleasant,NA,NA,NA,NA,NA,right,1020,true,NA,NA,NA,NA,NA
75nzK5Bq,322zsn9z6jxccjxbpgrk4cn83gtt4w,32vnztt0abh1joidctrrthiiheg4r9,75nzK5Bq,2020-0188,2021-10-15,15:34:52,17:00:16,NA,incomplete,false,true,NA,3,9,NA,blue,n_s_051.jpg,NA,NA,pleasant,unpleasant,NA,NA,NA,NA,NA,left,1203,true,NA,NA,NA,NA,NA
75nzK5Bq,322zsn9z6jxccjxbpgrk4cn83gtt4w,32vnztt0abh1joidctrrthiiheg4r9,75nzK5Bq,2020-0188,2021-10-15,15:34:52,17:00:16,NA,incomplete,false,true,NA,3,10,NA,blue,n_s_053.jpg,NA,NA,pleasant,unpleasant,NA,NA,NA,NA,NA,left,1651,true,NA,NA,NA,NA,NA
75nzK5Bq,322zsn9z6jxccjxbpgrk4cn83gtt4w,32vnztt0abh1joidctrrthiiheg4r9,75nzK5Bq,2020-0188,2021-10-15,15:34:52,17:00:16,NA,incomplete,false,true,NA,3,11,NA,blue,n_s_033.jpg,NA,NA,unpleasant,pleasant,NA,NA,NA,NA,NA,right,1289,true,NA,NA,NA,NA,NA
75nzK5Bq,322zsn9z6jxccjxbpgrk4cn83gtt4w,32vnztt0abh1joidctrrthiiheg4r9,75nzK5Bq,2020-0188,2021-10-15,15:34:52,17:00:16,NA,incomplete,false,true,NA,3,12,NA,red,m_l_112.jpg,NA,NA,pleasant,unpleasant,NA,NA,NA,NA,NA,left,1366,true,NA,NA,NA,NA,NA
75nzK5Bq,322zsn9z6jxccjxbpgrk4cn83gtt4w,32vnztt0abh1joidctrrthiiheg4r9,75nzK5Bq,2020-0188,2021-10-15,15:34:52,17:00:16,NA,incomplete,false,true,NA,3,13,NA,red,m_s_058.jpg,NA,NA,pleasant,unpleasant,NA,NA,NA,NA,NA,left,1466,true,NA,NA,NA,NA,NA
75nzK5Bq,322zsn9z6jxccjxbpgrk4cn83gtt4w,32vnztt0abh1joidctrrthiiheg4r9,75nzK5Bq,2020-0188,2021-10-15,15:34:52,17:00:16,NA,incomplete,false,true,NA,3,14,NA,red,m_l_116.jpg,NA,NA,unpleasant,pleasant,NA,NA,NA,NA,NA,right,1276,true,NA,NA,NA,NA,NA
75nzK5Bq,322zsn9z6jxccjxbpgrk4cn83gtt4w,32vnztt0abh1joidctrrthiiheg4r9,75nzK5Bq,2020-0188,2021-10-15,15:34:52,17:00:16,NA,incomplete,false,true,NA,3,15,NA,red,m_l_097.jpg,NA,NA,pleasant,unpleasant,NA,NA,NA,NA,NA,right,647,true,NA,NA,NA,NA,NA
75nzK5Bq,322zsn9z6jxccjxbpgrk4cn83gtt4w,32vnztt0abh1joidctrrthiiheg4r9,75nzK5Bq,2020-0188,2021-10-15,15:34:52,17:00:16,NA,incomplete,false,true,NA,3,16,NA,red,n_s_010.jpg,NA,NA,pleasant,unpleasant,NA,NA,NA,NA,NA,left,1157,true,NA,NA,NA,NA,NA
75nzK5Bq,322zsn9z6jxccjxbpgrk4cn83gtt4w,32vnztt0abh1joidctrrthiiheg4r9,75nzK5Bq,2020-0188,2021-10-15,15:34:52,17:00:16,NA,incomplete,false,true,NA,3,17,NA,red,n_l_056.jpg,NA,NA,unpleasant,pleasant,NA,NA,NA,NA,NA,right,1254,true,NA,NA,NA,NA,NA
75nzK5Bq,322zsn9z6jxccjxbpgrk4cn83gtt4w,32vnztt0abh1joidctrrthiiheg4r9,75nzK5Bq,2020-0188,2021-10-15,15:34:52,17:00:16,NA,incomplete,false,true,NA,3,18,NA,gray,n_l_047.jpg,NA,NA,pleasant,unpleasant,NA,NA,NA,NA,NA,left,1093,true,NA,NA,NA,NA,NA
75nzK5Bq,322zsn9z6jxccjxbpgrk4cn83gtt4w,32vnztt0abh1joidctrrthiiheg4r9,75nzK5Bq,2020-0188,2021-10-15,15:34:52,17:00:16,NA,incomplete,false,true,NA,3,19,NA,gray,m_s_082.jpg,NA,NA,unpleasant,pleasant,NA,NA,NA,NA,NA,right,1028,true,NA,NA,NA,NA,NA
75nzK5Bq,322zsn9z6jxccjxbpgrk4cn83gtt4w,32vnztt0abh1joidctrrthiiheg4r9,75nzK5Bq,2020-0188,2021-10-15,15:34:52,17:00:16,NA,incomplete,false,true,NA,3,20,NA,gray,n_s_088.jpg,NA,NA,unpleasant,pleasant,NA,NA,NA,NA,NA,right,1314,true,NA,NA,NA,NA,NA
75nzK5Bq,322zsn9z6jxccjxbpgrk4cn83gtt4w,32vnztt0abh1joidctrrthiiheg4r9,75nzK5Bq,2020-0188,2021-10-15,15:34:52,17:00:16,NA,incomplete,false,true,NA,3,21,NA,gray,n_s_114.jpg,NA,NA,unpleasant,pleasant,NA,NA,NA,NA,NA,right,1451,true,NA,NA,NA,NA,NA
75nzK5Bq,322zsn9z6jxccjxbpgrk4cn83gtt4w,32vnztt0abh1joidctrrthiiheg4r9,75nzK5Bq,2020-0188,2021-10-15,15:34:52,17:00:16,NA,incomplete,false,true,NA,3,22,NA,gray,n_s_035.jpg,NA,NA,pleasant,unpleasant,NA,NA,NA,NA,NA,left,1784,true,NA,NA,NA,NA,NA
75nzK5Bq,322zsn9z6jxccjxbpgrk4cn83gtt4w,32vnztt0abh1joidctrrthiiheg4r9,75nzK5Bq,2020-0188,2021-10-15,15:34:52,17:00:16,NA,incomplete,false,true,NA,3,23,NA,gray,m_s_036.jpg,NA,NA,pleasant,unpleasant,NA,NA,NA,NA,NA,left,2043,true,NA,NA,NA,NA,NA
75nzK5Bq,322zsn9z6jxccjxbpgrk4cn83gtt4w,32vnztt0abh1joidctrrthiiheg4r9,75nzK5Bq,2020-0188,2021-10-15,15:34:52,17:00:16,NA,incomplete,false,true,NA,3,24,NA,green,m_l_039.jpg,NA,NA,unpleasant,pleasant,NA,NA,NA,NA,NA,right,2079,true,NA,NA,NA,NA,NA
75nzK5Bq,322zsn9z6jxccjxbpgrk4cn83gtt4w,32vnztt0abh1joidctrrthiiheg4r9,75nzK5Bq,2020-0188,2021-10-15,15:34:52,17:00:16,NA,incomplete,false,true,NA,3,25,NA,green,m_s_017.jpg,NA,NA,unpleasant,pleasant,NA,NA,NA,NA,NA,right,1939,true,NA,NA,NA,NA,NA
75nzK5Bq,322zsn9z6jxccjxbpgrk4cn83gtt4w,32vnztt0abh1joidctrrthiiheg4r9,75nzK5Bq,2020-0188,2021-10-15,15:34:52,17:00:16,NA,incomplete,false,true,NA,3,26,NA,green,n_l_022.jpg,NA,NA,unpleasant,pleasant,NA,NA,NA,NA,NA,right,1334,true,NA,NA,NA,NA,NA
75nzK5Bq,322zsn9z6jxccjxbpgrk4cn83gtt4w,32vnztt0abh1joidctrrthiiheg4r9,75nzK5Bq,2020-0188,2021-10-15,15:34:52,17:00:16,NA,incomplete,false,true,NA,3,27,NA,green,m_s_033.jpg,NA,NA,unpleasant,pleasant,NA,NA,NA,NA,NA,right,1250,true,NA,NA,NA,NA,NA
75nzK5Bq,322zsn9z6jxccjxbpgrk4cn83gtt4w,32vnztt0abh1joidctrrthiiheg4r9,75nzK5Bq,2020-0188,2021-10-15,15:34:52,17:00:16,NA,incomplete,false,true,NA,3,28,NA,green,m_l_017.jpg,NA,NA,pleasant,unpleasant,NA,NA,NA,NA,NA,left,1172,true,NA,NA,NA,NA,NA
75nzK5Bq,322zsn9z6jxccjxbpgrk4cn83gtt4w,32vnztt0abh1joidctrrthiiheg4r9,75nzK5Bq,2020-0188,2021-10-15,15:34:52,17:00:16,NA,incomplete,false,true,NA,3,29,NA,green,m_s_092.jpg,NA,NA,pleasant,unpleasant,NA,NA,NA,NA,NA,left,1129,true,NA,NA,NA,NA,NA
75nzK5Bq,322zsn9z6jxccjxbpgrk4cn83gtt4w,32vnztt0abh1joidctrrthiiheg4r9,75nzK5Bq,2020-0188,2021-10-15,15:34:52,17:00:16,NA,incomplete,false,true,NA,3,30,NA,orange,m_s_016.jpg,NA,NA,pleasant,unpleasant,NA,NA,NA,NA,NA,left,1558,true,NA,NA,NA,NA,NA
75nzK5Bq,322zsn9z6jxccjxbpgrk4cn83gtt4w,32vnztt0abh1joidctrrthiiheg4r9,75nzK5Bq,2020-0188,2021-10-15,15:34:52,17:00:16,NA,incomplete,false,true,NA,3,31,NA,orange,m_l_002.jpg,NA,NA,unpleasant,pleasant,NA,NA,NA,NA,NA,right,1338,true,NA,NA,NA,NA,NA
75nzK5Bq,322zsn9z6jxccjxbpgrk4cn83gtt4w,32vnztt0abh1joidctrrthiiheg4r9,75nzK5Bq,2020-0188,2021-10-15,15:34:52,17:00:16,NA,incomplete,false,true,NA,3,32,NA,orange,n_s_070.jpg,NA,NA,pleasant,unpleasant,NA,NA,NA,NA,NA,left,1236,true,NA,NA,NA,NA,NA
75nzK5Bq,322zsn9z6jxccjxbpgrk4cn83gtt4w,32vnztt0abh1joidctrrthiiheg4r9,75nzK5Bq,2020-0188,2021-10-15,15:34:52,17:00:16,NA,incomplete,false,true,NA,3,33,NA,orange,m_s_066.jpg,NA,NA,pleasant,unpleasant,NA,NA,NA,NA,NA,left,1320,true,NA,NA,NA,NA,NA
75nzK5Bq,322zsn9z6jxccjxbpgrk4cn83gtt4w,32vnztt0abh1joidctrrthiiheg4r9,75nzK5Bq,2020-0188,2021-10-15,15:34:52,17:00:16,NA,incomplete,false,true,NA,3,34,NA,orange,n_l_102.jpg,NA,NA,pleasant,unpleasant,NA,NA,NA,NA,NA,left,1633,true,NA,NA,NA,NA,NA
75nzK5Bq,322zsn9z6jxccjxbpgrk4cn83gtt4w,32vnztt0abh1joidctrrthiiheg4r9,75nzK5Bq,2020-0188,2021-10-15,15:34:52,17:00:16,NA,incomplete,false,true,NA,3,35,NA,orange,m_s_039.jpg,NA,NA,unpleasant,pleasant,NA,NA,NA,NA,NA,right,1470,true,NA,NA,NA,NA,NA
75nzK5Bq,322zsn9z6jxccjxbpgrk4cn83gtt4w,32vnztt0abh1joidctrrthiiheg4r9,75nzK5Bq,2020-0188,2021-10-15,15:34:52,17:00:16,NA,incomplete,false,NA,true,3,0,NA,NA,NA,left,present,NA,NA,n_s_031.jpg,blue,n_s_033.jpg,blue,within,NA,NaN,NA,left,2152,1,2,2158
75nzK5Bq,322zsn9z6jxccjxbpgrk4cn83gtt4w,32vnztt0abh1joidctrrthiiheg4r9,75nzK5Bq,2020-0188,2021-10-15,15:34:52,17:00:16,NA,incomplete,false,NA,true,3,1,NA,NA,NA,right,present,NA,NA,m_s_036.jpg,gray,m_s_082.jpg,gray,within,NA,NaN,NA,right,4764,1,1,1564
75nzK5Bq,322zsn9z6jxccjxbpgrk4cn83gtt4w,32vnztt0abh1joidctrrthiiheg4r9,75nzK5Bq,2020-0188,2021-10-15,15:34:52,17:00:16,NA,incomplete,false,NA,true,3,2,NA,NA,NA,right,present,NA,NA,m_l_089.jpg,blue,n_s_062.jpg,yellow,between,NA,NaN,NA,right,2362,1,2,2219
75nzK5Bq,322zsn9z6jxccjxbpgrk4cn83gtt4w,32vnztt0abh1joidctrrthiiheg4r9,75nzK5Bq,2020-0188,2021-10-15,15:34:52,17:00:16,NA,incomplete,false,NA,true,3,3,NA,NA,NA,right,present,NA,NA,m_s_039.jpg,orange,m_l_002.jpg,orange,within,NA,NaN,NA,right,3267,1,1,2183
75nzK5Bq,322zsn9z6jxccjxbpgrk4cn83gtt4w,32vnztt0abh1joidctrrthiiheg4r9,75nzK5Bq,2020-0188,2021-10-15,15:34:52,17:00:16,NA,incomplete,false,NA,true,3,4,NA,NA,NA,left,present,NA,NA,n_s_035.jpg,gray,n_l_022.jpg,green,between,NA,NaN,NA,left,3159,1,1,1273
75nzK5Bq,322zsn9z6jxccjxbpgrk4cn83gtt4w,32vnztt0abh1joidctrrthiiheg4r9,75nzK5Bq,2020-0188,2021-10-15,15:34:52,17:00:16,NA,incomplete,false,NA,true,3,5,NA,NA,NA,left,present,NA,NA,m_l_017.jpg,green,n_s_070.jpg,orange,between,NA,NaN,NA,left,2824,1,1,2120
75nzK5Bq,322zsn9z6jxccjxbpgrk4cn83gtt4w,32vnztt0abh1joidctrrthiiheg4r9,75nzK5Bq,2020-0188,2021-10-15,15:34:52,17:00:16,NA,incomplete,false,NA,true,3,6,NA,NA,NA,right,present,NA,NA,n_l_056.jpg,red,m_s_058.jpg,red,within,NA,NaN,NA,left,3250,0,2,2117
75nzK5Bq,322zsn9z6jxccjxbpgrk4cn83gtt4w,32vnztt0abh1joidctrrthiiheg4r9,75nzK5Bq,2020-0188,2021-10-15,15:34:52,17:00:16,NA,incomplete,false,NA,true,3,7,NA,NA,NA,right,present,NA,NA,m_s_092.jpg,green,m_s_017.jpg,green,within,NA,NaN,NA,left,2773,0,1,1391
75nzK5Bq,322zsn9z6jxccjxbpgrk4cn83gtt4w,32vnztt0abh1joidctrrthiiheg4r9,75nzK5Bq,2020-0188,2021-10-15,15:34:52,17:00:16,NA,incomplete,false,NA,true,3,8,NA,NA,NA,right,present,NA,NA,n_s_088.jpg,gray,n_s_010.jpg,red,between,NA,NaN,NA,right,4368,1,2,1855
75nzK5Bq,322zsn9z6jxccjxbpgrk4cn83gtt4w,32vnztt0abh1joidctrrthiiheg4r9,75nzK5Bq,2020-0188,2021-10-15,15:34:52,17:00:16,NA,incomplete,false,NA,true,3,9,NA,NA,NA,right,present,NA,NA,m_s_038.jpg,yellow,n_l_090.jpg,yellow,within,NA,NaN,NA,right,3649,1,1,2574
75nzK5Bq,322zsn9z6jxccjxbpgrk4cn83gtt4w,32vnztt0abh1joidctrrthiiheg4r9,75nzK5Bq,2020-0188,2021-10-15,15:34:52,17:00:16,NA,incomplete,false,NA,true,3,10,NA,NA,NA,right,present,NA,NA,m_l_116.jpg,red,n_s_053.jpg,blue,between,NA,NaN,NA,left,3689,0,1,1709
75nzK5Bq,322zsn9z6jxccjxbpgrk4cn83gtt4w,32vnztt0abh1joidctrrthiiheg4r9,75nzK5Bq,2020-0188,2021-10-15,15:34:52,17:00:16,NA,incomplete,false,true,NA,4,0,NA,red,n_s_029.jpg,NA,NA,unpleasant,pleasant,NA,NA,NA,NA,NA,right,1896,true,NA,NA,NA,NA,NA
75nzK5Bq,322zsn9z6jxccjxbpgrk4cn83gtt4w,32vnztt0abh1joidctrrthiiheg4r9,75nzK5Bq,2020-0188,2021-10-15,15:34:52,17:00:16,NA,incomplete,false,true,NA,4,1,NA,red,m_s_096.jpg,NA,NA,unpleasant,pleasant,NA,NA,NA,NA,NA,none,0,false,NA,NA,NA,NA,NA
75nzK5Bq,322zsn9z6jxccjxbpgrk4cn83gtt4w,32vnztt0abh1joidctrrthiiheg4r9,75nzK5Bq,2020-0188,2021-10-15,15:34:52,17:00:16,NA,incomplete,false,true,NA,4,2,NA,red,n_s_042.jpg,NA,NA,unpleasant,pleasant,NA,NA,NA,NA,NA,none,0,false,NA,NA,NA,NA,NA
75nzK5Bq,322zsn9z6jxccjxbpgrk4cn83gtt4w,32vnztt0abh1joidctrrthiiheg4r9,75nzK5Bq,2020-0188,2021-10-15,15:34:52,17:00:16,NA,incomplete,false,true,NA,4,3,NA,red,m_s_110.jpg,NA,NA,unpleasant,pleasant,NA,NA,NA,NA,NA,none,0,false,NA,NA,NA,NA,NA
75nzK5Bq,322zsn9z6jxccjxbpgrk4cn83gtt4w,32vnztt0abh1joidctrrthiiheg4r9,75nzK5Bq,2020-0188,2021-10-15,15:34:52,17:00:16,NA,incomplete,false,true,NA,4,4,NA,red,m_s_007.jpg,NA,NA,pleasant,unpleasant,NA,NA,NA,NA,NA,left,1437,true,NA,NA,NA,NA,NA
75nzK5Bq,322zsn9z6jxccjxbpgrk4cn83gtt4w,32vnztt0abh1joidctrrthiiheg4r9,75nzK5Bq,2020-0188,2021-10-15,15:34:52,17:00:16,NA,incomplete,false,true,NA,4,5,NA,red,n_s_064.jpg,NA,NA,unpleasant,pleasant,NA,NA,NA,NA,NA,left,1970,true,NA,NA,NA,NA,NA
75nzK5Bq,322zsn9z6jxccjxbpgrk4cn83gtt4w,32vnztt0abh1joidctrrthiiheg4r9,75nzK5Bq,2020-0188,2021-10-15,15:34:52,17:00:16,NA,incomplete,false,true,NA,4,6,NA,blue,m_l_030.jpg,NA,NA,pleasant,unpleasant,NA,NA,NA,NA,NA,left,1885,true,NA,NA,NA,NA,NA
75nzK5Bq,322zsn9z6jxccjxbpgrk4cn83gtt4w,32vnztt0abh1joidctrrthiiheg4r9,75nzK5Bq,2020-0188,2021-10-15,15:34:52,17:00:16,NA,incomplete,false,true,NA,4,7,NA,blue,m_l_095.jpg,NA,NA,unpleasant,pleasant,NA,NA,NA,NA,NA,none,0,false,NA,NA,NA,NA,NA
75nzK5Bq,322zsn9z6jxccjxbpgrk4cn83gtt4w,32vnztt0abh1joidctrrthiiheg4r9,75nzK5Bq,2020-0188,2021-10-15,15:34:52,17:00:16,NA,incomplete,false,true,NA,4,8,NA,blue,m_s_085.jpg,NA,NA,unpleasant,pleasant,NA,NA,NA,NA,NA,left,1592,true,NA,NA,NA,NA,NA
75nzK5Bq,322zsn9z6jxccjxbpgrk4cn83gtt4w,32vnztt0abh1joidctrrthiiheg4r9,75nzK5Bq,2020-0188,2021-10-15,15:34:52,17:00:16,NA,incomplete,false,true,NA,4,9,NA,blue,m_s_068.jpg,NA,NA,unpleasant,pleasant,NA,NA,NA,NA,NA,right,1908,true,NA,NA,NA,NA,NA
75nzK5Bq,322zsn9z6jxccjxbpgrk4cn83gtt4w,32vnztt0abh1joidctrrthiiheg4r9,75nzK5Bq,2020-0188,2021-10-15,15:34:52,17:00:16,NA,incomplete,false,true,NA,4,10,NA,blue,m_s_089.jpg,NA,NA,pleasant,unpleasant,NA,NA,NA,NA,NA,left,1707,true,NA,NA,NA,NA,NA
75nzK5Bq,322zsn9z6jxccjxbpgrk4cn83gtt4w,32vnztt0abh1joidctrrthiiheg4r9,75nzK5Bq,2020-0188,2021-10-15,15:34:52,17:00:16,NA,incomplete,false,true,NA,4,11,NA,blue,n_l_035.jpg,NA,NA,unpleasant,pleasant,NA,NA,NA,NA,NA,right,2669,true,NA,NA,NA,NA,NA
75nzK5Bq,322zsn9z6jxccjxbpgrk4cn83gtt4w,32vnztt0abh1joidctrrthiiheg4r9,75nzK5Bq,2020-0188,2021-10-15,15:34:52,17:00:16,NA,incomplete,false,true,NA,4,12,NA,black,n_l_068.jpg,NA,NA,pleasant,unpleasant,NA,NA,NA,NA,NA,left,1490,true,NA,NA,NA,NA,NA
75nzK5Bq,322zsn9z6jxccjxbpgrk4cn83gtt4w,32vnztt0abh1joidctrrthiiheg4r9,75nzK5Bq,2020-0188,2021-10-15,15:34:52,17:00:16,NA,incomplete,false,true,NA,4,13,NA,black,m_l_052.jpg,NA,NA,pleasant,unpleasant,NA,NA,NA,NA,NA,left,1799,true,NA,NA,NA,NA,NA
75nzK5Bq,322zsn9z6jxccjxbpgrk4cn83gtt4w,32vnztt0abh1joidctrrthiiheg4r9,75nzK5Bq,2020-0188,2021-10-15,15:34:52,17:00:16,NA,incomplete,false,true,NA,4,14,NA,black,m_l_107.jpg,NA,NA,pleasant,unpleasant,NA,NA,NA,NA,NA,left,1895,true,NA,NA,NA,NA,NA
75nzK5Bq,322zsn9z6jxccjxbpgrk4cn83gtt4w,32vnztt0abh1joidctrrthiiheg4r9,75nzK5Bq,2020-0188,2021-10-15,15:34:52,17:00:16,NA,incomplete,false,true,NA,4,15,NA,black,m_s_115.jpg,NA,NA,pleasant,unpleasant,NA,NA,NA,NA,NA,left,2406,true,NA,NA,NA,NA,NA
75nzK5Bq,322zsn9z6jxccjxbpgrk4cn83gtt4w,32vnztt0abh1joidctrrthiiheg4r9,75nzK5Bq,2020-0188,2021-10-15,15:34:52,17:00:16,NA,incomplete,false,true,NA,4,16,NA,black,n_s_100.jpg,NA,NA,unpleasant,pleasant,NA,NA,NA,NA,NA,left,2520,true,NA,NA,NA,NA,NA
75nzK5Bq,322zsn9z6jxccjxbpgrk4cn83gtt4w,32vnztt0abh1joidctrrthiiheg4r9,75nzK5Bq,2020-0188,2021-10-15,15:34:52,17:00:16,NA,incomplete,false,true,NA,4,17,NA,black,m_l_032.jpg,NA,NA,pleasant,unpleasant,NA,NA,NA,NA,NA,left,1851,true,NA,NA,NA,NA,NA
75nzK5Bq,322zsn9z6jxccjxbpgrk4cn83gtt4w,32vnztt0abh1joidctrrthiiheg4r9,75nzK5Bq,2020-0188,2021-10-15,15:34:52,17:00:16,NA,incomplete,false,true,NA,4,18,NA,yellow,m_l_075.jpg,NA,NA,pleasant,unpleasant,NA,NA,NA,NA,NA,left,1773,true,NA,NA,NA,NA,NA
75nzK5Bq,322zsn9z6jxccjxbpgrk4cn83gtt4w,32vnztt0abh1joidctrrthiiheg4r9,75nzK5Bq,2020-0188,2021-10-15,15:34:52,17:00:16,NA,incomplete,false,true,NA,4,19,NA,yellow,m_l_053.jpg,NA,NA,pleasant,unpleasant,NA,NA,NA,NA,NA,left,2143,true,NA,NA,NA,NA,NA
75nzK5Bq,322zsn9z6jxccjxbpgrk4cn83gtt4w,32vnztt0abh1joidctrrthiiheg4r9,75nzK5Bq,2020-0188,2021-10-15,15:34:52,17:00:16,NA,incomplete,false,true,NA,4,20,NA,yellow,n_l_023.jpg,NA,NA,pleasant,unpleasant,NA,NA,NA,NA,NA,left,1372,true,NA,NA,NA,NA,NA
75nzK5Bq,322zsn9z6jxccjxbpgrk4cn83gtt4w,32vnztt0abh1joidctrrthiiheg4r9,75nzK5Bq,2020-0188,2021-10-15,15:34:52,17:00:16,NA,incomplete,false,true,NA,4,21,NA,yellow,m_s_108.jpg,NA,NA,pleasant,unpleasant,NA,NA,NA,NA,NA,left,1519,true,NA,NA,NA,NA,NA
75nzK5Bq,322zsn9z6jxccjxbpgrk4cn83gtt4w,32vnztt0abh1joidctrrthiiheg4r9,75nzK5Bq,2020-0188,2021-10-15,15:34:52,17:00:16,NA,incomplete,false,true,NA,4,22,NA,yellow,n_l_116.jpg,NA,NA,pleasant,unpleasant,NA,NA,NA,NA,NA,left,1986,true,NA,NA,NA,NA,NA
75nzK5Bq,322zsn9z6jxccjxbpgrk4cn83gtt4w,32vnztt0abh1joidctrrthiiheg4r9,75nzK5Bq,2020-0188,2021-10-15,15:34:52,17:00:16,NA,incomplete,false,true,NA,4,23,NA,yellow,m_s_065.jpg,NA,NA,unpleasant,pleasant,NA,NA,NA,NA,NA,right,2102,true,NA,NA,NA,NA,NA
75nzK5Bq,322zsn9z6jxccjxbpgrk4cn83gtt4w,32vnztt0abh1joidctrrthiiheg4r9,75nzK5Bq,2020-0188,2021-10-15,15:34:52,17:00:16,NA,incomplete,false,true,NA,4,24,NA,green,m_l_111.jpg,NA,NA,pleasant,unpleasant,NA,NA,NA,NA,NA,left,1041,true,NA,NA,NA,NA,NA
75nzK5Bq,322zsn9z6jxccjxbpgrk4cn83gtt4w,32vnztt0abh1joidctrrthiiheg4r9,75nzK5Bq,2020-0188,2021-10-15,15:34:52,17:00:16,NA,incomplete,false,true,NA,4,25,NA,green,n_s_103.jpg,NA,NA,pleasant,unpleasant,NA,NA,NA,NA,NA,left,1673,true,NA,NA,NA,NA,NA
75nzK5Bq,322zsn9z6jxccjxbpgrk4cn83gtt4w,32vnztt0abh1joidctrrthiiheg4r9,75nzK5Bq,2020-0188,2021-10-15,15:34:52,17:00:16,NA,incomplete,false,true,NA,4,26,NA,green,n_s_039.jpg,NA,NA,unpleasant,pleasant,NA,NA,NA,NA,NA,right,1685,true,NA,NA,NA,NA,NA
75nzK5Bq,322zsn9z6jxccjxbpgrk4cn83gtt4w,32vnztt0abh1joidctrrthiiheg4r9,75nzK5Bq,2020-0188,2021-10-15,15:34:52,17:00:16,NA,incomplete,false,true,NA,4,27,NA,green,n_s_083.jpg,NA,NA,unpleasant,pleasant,NA,NA,NA,NA,NA,right,1684,true,NA,NA,NA,NA,NA
75nzK5Bq,322zsn9z6jxccjxbpgrk4cn83gtt4w,32vnztt0abh1joidctrrthiiheg4r9,75nzK5Bq,2020-0188,2021-10-15,15:34:52,17:00:16,NA,incomplete,false,true,NA,4,28,NA,green,m_s_034.jpg,NA,NA,unpleasant,pleasant,NA,NA,NA,NA,NA,right,2602,true,NA,NA,NA,NA,NA
75nzK5Bq,322zsn9z6jxccjxbpgrk4cn83gtt4w,32vnztt0abh1joidctrrthiiheg4r9,75nzK5Bq,2020-0188,2021-10-15,15:34:52,17:00:16,NA,incomplete,false,true,NA,4,29,NA,green,n_l_040.jpg,NA,NA,pleasant,unpleasant,NA,NA,NA,NA,NA,left,2470,true,NA,NA,NA,NA,NA
75nzK5Bq,322zsn9z6jxccjxbpgrk4cn83gtt4w,32vnztt0abh1joidctrrthiiheg4r9,75nzK5Bq,2020-0188,2021-10-15,15:34:52,17:00:16,NA,incomplete,false,true,NA,4,30,NA,white,n_l_057.jpg,NA,NA,unpleasant,pleasant,NA,NA,NA,NA,NA,right,1959,true,NA,NA,NA,NA,NA
75nzK5Bq,322zsn9z6jxccjxbpgrk4cn83gtt4w,32vnztt0abh1joidctrrthiiheg4r9,75nzK5Bq,2020-0188,2021-10-15,15:34:52,17:00:16,NA,incomplete,false,true,NA,4,31,NA,white,n_l_029.jpg,NA,NA,pleasant,unpleasant,NA,NA,NA,NA,NA,right,2006,true,NA,NA,NA,NA,NA
75nzK5Bq,322zsn9z6jxccjxbpgrk4cn83gtt4w,32vnztt0abh1joidctrrthiiheg4r9,75nzK5Bq,2020-0188,2021-10-15,15:34:52,17:00:16,NA,incomplete,false,true,NA,4,32,NA,white,n_l_092.jpg,NA,NA,unpleasant,pleasant,NA,NA,NA,NA,NA,right,1816,true,NA,NA,NA,NA,NA
75nzK5Bq,322zsn9z6jxccjxbpgrk4cn83gtt4w,32vnztt0abh1joidctrrthiiheg4r9,75nzK5Bq,2020-0188,2021-10-15,15:34:52,17:00:16,NA,incomplete,false,true,NA,4,33,NA,white,m_s_067.jpg,NA,NA,unpleasant,pleasant,NA,NA,NA,NA,NA,left,1660,true,NA,NA,NA,NA,NA
75nzK5Bq,322zsn9z6jxccjxbpgrk4cn83gtt4w,32vnztt0abh1joidctrrthiiheg4r9,75nzK5Bq,2020-0188,2021-10-15,15:34:52,17:00:16,NA,incomplete,false,true,NA,4,34,NA,white,n_s_049.jpg,NA,NA,pleasant,unpleasant,NA,NA,NA,NA,NA,right,1519,true,NA,NA,NA,NA,NA
75nzK5Bq,322zsn9z6jxccjxbpgrk4cn83gtt4w,32vnztt0abh1joidctrrthiiheg4r9,75nzK5Bq,2020-0188,2021-10-15,15:34:52,17:00:16,NA,incomplete,false,true,NA,4,35,NA,white,n_s_007.jpg,NA,NA,unpleasant,pleasant,NA,NA,NA,NA,NA,left,1606,true,NA,NA,NA,NA,NA
75nzK5Bq,322zsn9z6jxccjxbpgrk4cn83gtt4w,32vnztt0abh1joidctrrthiiheg4r9,75nzK5Bq,2020-0188,2021-10-15,15:34:52,17:00:16,NA,incomplete,false,NA,true,4,0,NA,NA,NA,right,absent,NA,NA,n_l_040.jpg,green,n_s_103.jpg,green,within,NA,NaN,NA,right,21204,1,1,2124
75nzK5Bq,322zsn9z6jxccjxbpgrk4cn83gtt4w,32vnztt0abh1joidctrrthiiheg4r9,75nzK5Bq,2020-0188,2021-10-15,15:34:52,17:00:16,NA,incomplete,false,NA,true,4,1,NA,NA,NA,left,absent,NA,NA,m_l_053.jpg,yellow,m_s_065.jpg,yellow,within,NA,NaN,NA,left,6387,1,1,1421
75nzK5Bq,322zsn9z6jxccjxbpgrk4cn83gtt4w,32vnztt0abh1joidctrrthiiheg4r9,75nzK5Bq,2020-0188,2021-10-15,15:34:52,17:00:16,NA,incomplete,false,NA,true,4,2,NA,NA,NA,right,absent,NA,NA,m_l_032.jpg,black,m_l_052.jpg,black,within,NA,NaN,NA,right,14038,1,1,2149
75nzK5Bq,322zsn9z6jxccjxbpgrk4cn83gtt4w,32vnztt0abh1joidctrrthiiheg4r9,75nzK5Bq,2020-0188,2021-10-15,15:34:52,17:00:16,NA,incomplete,false,NA,true,4,3,NA,NA,NA,left,absent,NA,NA,m_s_007.jpg,red,m_s_085.jpg,blue,between,NA,NaN,NA,left,6305,1,0,2294
75nzK5Bq,322zsn9z6jxccjxbpgrk4cn83gtt4w,32vnztt0abh1joidctrrthiiheg4r9,75nzK5Bq,2020-0188,2021-10-15,15:34:52,17:00:16,NA,incomplete,false,NA,true,4,4,NA,NA,NA,right,absent,NA,NA,m_l_107.jpg,black,m_s_089.jpg,blue,between,NA,NaN,NA,right,5598,1,1,1960
75nzK5Bq,322zsn9z6jxccjxbpgrk4cn83gtt4w,32vnztt0abh1joidctrrthiiheg4r9,75nzK5Bq,2020-0188,2021-10-15,15:34:52,17:00:16,NA,incomplete,false,NA,true,4,5,NA,NA,NA,right,absent,NA,NA,n_l_092.jpg,white,m_s_034.jpg,green,between,NA,NaN,NA,right,7653,1,1,1346
75nzK5Bq,322zsn9z6jxccjxbpgrk4cn83gtt4w,32vnztt0abh1joidctrrthiiheg4r9,75nzK5Bq,2020-0188,2021-10-15,15:34:52,17:00:16,NA,incomplete,false,NA,true,4,6,NA,NA,NA,right,absent,NA,NA,n_s_007.jpg,white,n_l_029.jpg,white,within,NA,NaN,NA,right,4625,1,1,1416
75nzK5Bq,322zsn9z6jxccjxbpgrk4cn83gtt4w,32vnztt0abh1joidctrrthiiheg4r9,75nzK5Bq,2020-0188,2021-10-15,15:34:52,17:00:16,NA,incomplete,false,NA,true,4,7,NA,NA,NA,left,absent,NA,NA,m_l_095.jpg,blue,n_l_035.jpg,blue,within,NA,NaN,NA,left,7330,1,1,1248
75nzK5Bq,322zsn9z6jxccjxbpgrk4cn83gtt4w,32vnztt0abh1joidctrrthiiheg4r9,75nzK5Bq,2020-0188,2021-10-15,15:34:52,17:00:16,NA,incomplete,false,NA,true,4,8,NA,NA,NA,left,absent,NA,NA,m_s_096.jpg,red,n_s_064.jpg,red,within,NA,NaN,NA,left,2908,1,1,2301
75nzK5Bq,322zsn9z6jxccjxbpgrk4cn83gtt4w,32vnztt0abh1joidctrrthiiheg4r9,75nzK5Bq,2020-0188,2021-10-15,15:34:52,17:00:16,NA,incomplete,false,NA,true,4,9,NA,NA,NA,right,absent,NA,NA,n_l_023.jpg,yellow,n_s_100.jpg,black,between,NA,NaN,NA,right,7399,1,2,1307
75nzK5Bq,322zsn9z6jxccjxbpgrk4cn83gtt4w,32vnztt0abh1joidctrrthiiheg4r9,75nzK5Bq,2020-0188,2021-10-15,15:34:52,17:00:16,NA,incomplete,false,NA,true,4,10,NA,NA,NA,left,absent,NA,NA,n_l_116.jpg,yellow,n_s_039.jpg,green,between,NA,NaN,NA,left,7935,1,1,1547
75nzK5Bq,322zsn9z6jxccjxbpgrk4cn83gtt4w,32vnztt0abh1joidctrrthiiheg4r9,75nzK5Bq,2020-0188,2021-10-15,15:34:52,17:00:16,NA,incomplete,false,true,NA,5,0,NA,orange,m_s_018.jpg,NA,NA,pleasant,unpleasant,NA,NA,NA,NA,NA,right,2651,true,NA,NA,NA,NA,NA
75nzK5Bq,322zsn9z6jxccjxbpgrk4cn83gtt4w,32vnztt0abh1joidctrrthiiheg4r9,75nzK5Bq,2020-0188,2021-10-15,15:34:52,17:00:16,NA,incomplete,false,true,NA,5,1,NA,orange,m_s_037.jpg,NA,NA,pleasant,unpleasant,NA,NA,NA,NA,NA,left,1696,true,NA,NA,NA,NA,NA
75nzK5Bq,322zsn9z6jxccjxbpgrk4cn83gtt4w,32vnztt0abh1joidctrrthiiheg4r9,75nzK5Bq,2020-0188,2021-10-15,15:34:52,17:00:16,NA,incomplete,false,true,NA,5,2,NA,orange,n_l_039.jpg,NA,NA,pleasant,unpleasant,NA,NA,NA,NA,NA,right,1397,true,NA,NA,NA,NA,NA
75nzK5Bq,322zsn9z6jxccjxbpgrk4cn83gtt4w,32vnztt0abh1joidctrrthiiheg4r9,75nzK5Bq,2020-0188,2021-10-15,15:34:52,17:00:16,NA,incomplete,false,true,NA,5,3,NA,orange,n_s_069.jpg,NA,NA,pleasant,unpleasant,NA,NA,NA,NA,NA,left,1165,true,NA,NA,NA,NA,NA
75nzK5Bq,322zsn9z6jxccjxbpgrk4cn83gtt4w,32vnztt0abh1joidctrrthiiheg4r9,75nzK5Bq,2020-0188,2021-10-15,15:34:52,17:00:16,NA,incomplete,false,true,NA,5,4,NA,orange,m_s_050.jpg,NA,NA,pleasant,unpleasant,NA,NA,NA,NA,NA,left,1709,true,NA,NA,NA,NA,NA
75nzK5Bq,322zsn9z6jxccjxbpgrk4cn83gtt4w,32vnztt0abh1joidctrrthiiheg4r9,75nzK5Bq,2020-0188,2021-10-15,15:34:52,17:00:16,NA,incomplete,false,true,NA,5,5,NA,orange,m_s_071.jpg,NA,NA,pleasant,unpleasant,NA,NA,NA,NA,NA,right,1736,true,NA,NA,NA,NA,NA
75nzK5Bq,322zsn9z6jxccjxbpgrk4cn83gtt4w,32vnztt0abh1joidctrrthiiheg4r9,75nzK5Bq,2020-0188,2021-10-15,15:34:52,17:00:16,NA,incomplete,false,true,NA,5,6,NA,brown,m_l_044.jpg,NA,NA,unpleasant,pleasant,NA,NA,NA,NA,NA,right,1299,true,NA,NA,NA,NA,NA
75nzK5Bq,322zsn9z6jxccjxbpgrk4cn83gtt4w,32vnztt0abh1joidctrrthiiheg4r9,75nzK5Bq,2020-0188,2021-10-15,15:34:52,17:00:16,NA,incomplete,false,true,NA,5,7,NA,brown,n_l_111.jpg,NA,NA,unpleasant,pleasant,NA,NA,NA,NA,NA,right,1439,true,NA,NA,NA,NA,NA
75nzK5Bq,322zsn9z6jxccjxbpgrk4cn83gtt4w,32vnztt0abh1joidctrrthiiheg4r9,75nzK5Bq,2020-0188,2021-10-15,15:34:52,17:00:16,NA,incomplete,false,true,NA,5,8,NA,brown,n_s_011.jpg,NA,NA,unpleasant,pleasant,NA,NA,NA,NA,NA,right,1138,true,NA,NA,NA,NA,NA
75nzK5Bq,322zsn9z6jxccjxbpgrk4cn83gtt4w,32vnztt0abh1joidctrrthiiheg4r9,75nzK5Bq,2020-0188,2021-10-15,15:34:52,17:00:16,NA,incomplete,false,true,NA,5,9,NA,brown,n_s_052.jpg,NA,NA,pleasant,unpleasant,NA,NA,NA,NA,NA,left,1527,true,NA,NA,NA,NA,NA
75nzK5Bq,322zsn9z6jxccjxbpgrk4cn83gtt4w,32vnztt0abh1joidctrrthiiheg4r9,75nzK5Bq,2020-0188,2021-10-15,15:34:52,17:00:16,NA,incomplete,false,true,NA,5,10,NA,brown,n_s_068.jpg,NA,NA,unpleasant,pleasant,NA,NA,NA,NA,NA,right,1562,true,NA,NA,NA,NA,NA
75nzK5Bq,322zsn9z6jxccjxbpgrk4cn83gtt4w,32vnztt0abh1joidctrrthiiheg4r9,75nzK5Bq,2020-0188,2021-10-15,15:34:52,17:00:16,NA,incomplete,false,true,NA,5,11,NA,brown,m_l_040.jpg,NA,NA,pleasant,unpleasant,NA,NA,NA,NA,NA,right,1814,true,NA,NA,NA,NA,NA
75nzK5Bq,322zsn9z6jxccjxbpgrk4cn83gtt4w,32vnztt0abh1joidctrrthiiheg4r9,75nzK5Bq,2020-0188,2021-10-15,15:34:52,17:00:16,NA,incomplete,false,true,NA,5,12,NA,blue,n_s_006.jpg,NA,NA,unpleasant,pleasant,NA,NA,NA,NA,NA,left,952,true,NA,NA,NA,NA,NA
75nzK5Bq,322zsn9z6jxccjxbpgrk4cn83gtt4w,32vnztt0abh1joidctrrthiiheg4r9,75nzK5Bq,2020-0188,2021-10-15,15:34:52,17:00:16,NA,incomplete,false,true,NA,5,13,NA,blue,n_s_027.jpg,NA,NA,unpleasant,pleasant,NA,NA,NA,NA,NA,left,1411,true,NA,NA,NA,NA,NA
75nzK5Bq,322zsn9z6jxccjxbpgrk4cn83gtt4w,32vnztt0abh1joidctrrthiiheg4r9,75nzK5Bq,2020-0188,2021-10-15,15:34:52,17:00:16,NA,incomplete,false,true,NA,5,14,NA,blue,m_l_096.jpg,NA,NA,pleasant,unpleasant,NA,NA,NA,NA,NA,left,1561,true,NA,NA,NA,NA,NA
75nzK5Bq,322zsn9z6jxccjxbpgrk4cn83gtt4w,32vnztt0abh1joidctrrthiiheg4r9,75nzK5Bq,2020-0188,2021-10-15,15:34:52,17:00:16,NA,incomplete,false,true,NA,5,15,NA,blue,m_s_104.jpg,NA,NA,pleasant,unpleasant,NA,NA,NA,NA,NA,left,1974,true,NA,NA,NA,NA,NA
75nzK5Bq,322zsn9z6jxccjxbpgrk4cn83gtt4w,32vnztt0abh1joidctrrthiiheg4r9,75nzK5Bq,2020-0188,2021-10-15,15:34:52,17:00:16,NA,incomplete,false,true,NA,5,16,NA,blue,m_l_035.jpg,NA,NA,unpleasant,pleasant,NA,NA,NA,NA,NA,right,1600,true,NA,NA,NA,NA,NA
75nzK5Bq,322zsn9z6jxccjxbpgrk4cn83gtt4w,32vnztt0abh1joidctrrthiiheg4r9,75nzK5Bq,2020-0188,2021-10-15,15:34:52,17:00:16,NA,incomplete,false,true,NA,5,17,NA,blue,n_l_094.jpg,NA,NA,pleasant,unpleasant,NA,NA,NA,NA,NA,left,1437,true,NA,NA,NA,NA,NA
75nzK5Bq,322zsn9z6jxccjxbpgrk4cn83gtt4w,32vnztt0abh1joidctrrthiiheg4r9,75nzK5Bq,2020-0188,2021-10-15,15:34:52,17:00:16,NA,incomplete,false,true,NA,5,18,NA,white,n_l_045.jpg,NA,NA,pleasant,unpleasant,NA,NA,NA,NA,NA,left,1223,true,NA,NA,NA,NA,NA
75nzK5Bq,322zsn9z6jxccjxbpgrk4cn83gtt4w,32vnztt0abh1joidctrrthiiheg4r9,75nzK5Bq,2020-0188,2021-10-15,15:34:52,17:00:16,NA,incomplete,false,true,NA,5,19,NA,white,n_l_065.jpg,NA,NA,unpleasant,pleasant,NA,NA,NA,NA,NA,left,1538,true,NA,NA,NA,NA,NA
75nzK5Bq,322zsn9z6jxccjxbpgrk4cn83gtt4w,32vnztt0abh1joidctrrthiiheg4r9,75nzK5Bq,2020-0188,2021-10-15,15:34:52,17:00:16,NA,incomplete,false,true,NA,5,20,NA,white,n_s_067.jpg,NA,NA,unpleasant,pleasant,NA,NA,NA,NA,NA,right,1207,true,NA,NA,NA,NA,NA
75nzK5Bq,322zsn9z6jxccjxbpgrk4cn83gtt4w,32vnztt0abh1joidctrrthiiheg4r9,75nzK5Bq,2020-0188,2021-10-15,15:34:52,17:00:16,NA,incomplete,false,true,NA,5,21,NA,white,m_s_046.jpg,NA,NA,unpleasant,pleasant,NA,NA,NA,NA,NA,right,1668,true,NA,NA,NA,NA,NA
75nzK5Bq,322zsn9z6jxccjxbpgrk4cn83gtt4w,32vnztt0abh1joidctrrthiiheg4r9,75nzK5Bq,2020-0188,2021-10-15,15:34:52,17:00:16,NA,incomplete,false,true,NA,5,22,NA,white,m_l_006.jpg,NA,NA,pleasant,unpleasant,NA,NA,NA,NA,NA,left,1821,true,NA,NA,NA,NA,NA
75nzK5Bq,322zsn9z6jxccjxbpgrk4cn83gtt4w,32vnztt0abh1joidctrrthiiheg4r9,75nzK5Bq,2020-0188,2021-10-15,15:34:52,17:00:16,NA,incomplete,false,true,NA,5,23,NA,white,m_l_016.jpg,NA,NA,unpleasant,pleasant,NA,NA,NA,NA,NA,right,1096,true,NA,NA,NA,NA,NA
75nzK5Bq,322zsn9z6jxccjxbpgrk4cn83gtt4w,32vnztt0abh1joidctrrthiiheg4r9,75nzK5Bq,2020-0188,2021-10-15,15:34:52,17:00:16,NA,incomplete,false,true,NA,5,24,NA,green,n_s_109.jpg,NA,NA,pleasant,unpleasant,NA,NA,NA,NA,NA,right,1519,true,NA,NA,NA,NA,NA
75nzK5Bq,322zsn9z6jxccjxbpgrk4cn83gtt4w,32vnztt0abh1joidctrrthiiheg4r9,75nzK5Bq,2020-0188,2021-10-15,15:34:52,17:00:16,NA,incomplete,false,true,NA,5,25,NA,green,m_l_065.jpg,NA,NA,pleasant,unpleasant,NA,NA,NA,NA,NA,left,2366,true,NA,NA,NA,NA,NA
75nzK5Bq,322zsn9z6jxccjxbpgrk4cn83gtt4w,32vnztt0abh1joidctrrthiiheg4r9,75nzK5Bq,2020-0188,2021-10-15,15:34:52,17:00:16,NA,incomplete,false,true,NA,5,26,NA,green,m_s_079.jpg,NA,NA,pleasant,unpleasant,NA,NA,NA,NA,NA,left,1768,true,NA,NA,NA,NA,NA
75nzK5Bq,322zsn9z6jxccjxbpgrk4cn83gtt4w,32vnztt0abh1joidctrrthiiheg4r9,75nzK5Bq,2020-0188,2021-10-15,15:34:52,17:00:16,NA,incomplete,false,true,NA,5,27,NA,green,n_l_025.jpg,NA,NA,pleasant,unpleasant,NA,NA,NA,NA,NA,right,2428,true,NA,NA,NA,NA,NA
75nzK5Bq,322zsn9z6jxccjxbpgrk4cn83gtt4w,32vnztt0abh1joidctrrthiiheg4r9,75nzK5Bq,2020-0188,2021-10-15,15:34:52,17:00:16,NA,incomplete,false,true,NA,5,28,NA,green,n_s_014.jpg,NA,NA,unpleasant,pleasant,NA,NA,NA,NA,NA,right,1341,true,NA,NA,NA,NA,NA
75nzK5Bq,322zsn9z6jxccjxbpgrk4cn83gtt4w,32vnztt0abh1joidctrrthiiheg4r9,75nzK5Bq,2020-0188,2021-10-15,15:34:52,17:00:16,NA,incomplete,false,true,NA,5,29,NA,green,n_s_066.jpg,NA,NA,unpleasant,pleasant,NA,NA,NA,NA,NA,right,1386,true,NA,NA,NA,NA,NA
75nzK5Bq,322zsn9z6jxccjxbpgrk4cn83gtt4w,32vnztt0abh1joidctrrthiiheg4r9,75nzK5Bq,2020-0188,2021-10-15,15:34:52,17:00:16,NA,incomplete,false,true,NA,5,30,NA,yellow,n_s_005.jpg,NA,NA,pleasant,unpleasant,NA,NA,NA,NA,NA,left,1630,true,NA,NA,NA,NA,NA
75nzK5Bq,322zsn9z6jxccjxbpgrk4cn83gtt4w,32vnztt0abh1joidctrrthiiheg4r9,75nzK5Bq,2020-0188,2021-10-15,15:34:52,17:00:16,NA,incomplete,false,true,NA,5,31,NA,yellow,n_s_086.jpg,NA,NA,pleasant,unpleasant,NA,NA,NA,NA,NA,right,2176,true,NA,NA,NA,NA,NA
75nzK5Bq,322zsn9z6jxccjxbpgrk4cn83gtt4w,32vnztt0abh1joidctrrthiiheg4r9,75nzK5Bq,2020-0188,2021-10-15,15:34:52,17:00:16,NA,incomplete,false,true,NA,5,32,NA,yellow,n_l_012.jpg,NA,NA,pleasant,unpleasant,NA,NA,NA,NA,NA,left,1347,true,NA,NA,NA,NA,NA
75nzK5Bq,322zsn9z6jxccjxbpgrk4cn83gtt4w,32vnztt0abh1joidctrrthiiheg4r9,75nzK5Bq,2020-0188,2021-10-15,15:34:52,17:00:16,NA,incomplete,false,true,NA,5,33,NA,yellow,m_s_021.jpg,NA,NA,pleasant,unpleasant,NA,NA,NA,NA,NA,right,1933,true,NA,NA,NA,NA,NA
75nzK5Bq,322zsn9z6jxccjxbpgrk4cn83gtt4w,32vnztt0abh1joidctrrthiiheg4r9,75nzK5Bq,2020-0188,2021-10-15,15:34:52,17:00:16,NA,incomplete,false,true,NA,5,34,NA,yellow,m_l_020.jpg,NA,NA,unpleasant,pleasant,NA,NA,NA,NA,NA,right,1373,true,NA,NA,NA,NA,NA
75nzK5Bq,322zsn9z6jxccjxbpgrk4cn83gtt4w,32vnztt0abh1joidctrrthiiheg4r9,75nzK5Bq,2020-0188,2021-10-15,15:34:52,17:00:16,NA,incomplete,false,true,NA,5,35,NA,yellow,n_s_019.jpg,NA,NA,pleasant,unpleasant,NA,NA,NA,NA,NA,left,1332,true,NA,NA,NA,NA,NA
75nzK5Bq,322zsn9z6jxccjxbpgrk4cn83gtt4w,32vnztt0abh1joidctrrthiiheg4r9,75nzK5Bq,2020-0188,2021-10-15,15:34:52,17:00:16,NA,incomplete,false,NA,true,5,0,NA,NA,NA,left,present,NA,NA,m_s_037.jpg,orange,m_s_071.jpg,orange,within,NA,NaN,NA,left,4885,1,1,1428
75nzK5Bq,322zsn9z6jxccjxbpgrk4cn83gtt4w,32vnztt0abh1joidctrrthiiheg4r9,75nzK5Bq,2020-0188,2021-10-15,15:34:52,17:00:16,NA,incomplete,false,NA,true,5,1,NA,NA,NA,right,present,NA,NA,m_l_040.jpg,brown,n_l_111.jpg,brown,within,NA,NaN,NA,right,6693,1,2,1434
75nzK5Bq,322zsn9z6jxccjxbpgrk4cn83gtt4w,32vnztt0abh1joidctrrthiiheg4r9,75nzK5Bq,2020-0188,2021-10-15,15:34:52,17:00:16,NA,incomplete,false,NA,true,5,2,NA,NA,NA,right,present,NA,NA,n_l_094.jpg,blue,n_s_027.jpg,blue,within,NA,NaN,NA,right,19889,1,1,2395
75nzK5Bq,322zsn9z6jxccjxbpgrk4cn83gtt4w,32vnztt0abh1joidctrrthiiheg4r9,75nzK5Bq,2020-0188,2021-10-15,15:34:52,17:00:16,NA,incomplete,false,NA,true,5,3,NA,NA,NA,right,present,NA,NA,n_s_011.jpg,brown,m_s_050.jpg,orange,between,NA,NaN,NA,right,4306,1,1,1725
75nzK5Bq,322zsn9z6jxccjxbpgrk4cn83gtt4w,32vnztt0abh1joidctrrthiiheg4r9,75nzK5Bq,2020-0188,2021-10-15,15:34:52,17:00:16,NA,incomplete,false,NA,true,5,4,NA,NA,NA,left,present,NA,NA,m_l_006.jpg,white,m_s_079.jpg,green,between,NA,NaN,NA,left,10685,1,1,1543
75nzK5Bq,322zsn9z6jxccjxbpgrk4cn83gtt4w,32vnztt0abh1joidctrrthiiheg4r9,75nzK5Bq,2020-0188,2021-10-15,15:34:52,17:00:16,NA,incomplete,false,NA,true,5,5,NA,NA,NA,right,present,NA,NA,n_l_012.jpg,yellow,n_s_014.jpg,green,between,NA,NaN,NA,right,3639,1,1,1569
75nzK5Bq,322zsn9z6jxccjxbpgrk4cn83gtt4w,32vnztt0abh1joidctrrthiiheg4r9,75nzK5Bq,2020-0188,2021-10-15,15:34:52,17:00:16,NA,incomplete,false,NA,true,5,6,NA,NA,NA,left,present,NA,NA,n_l_065.jpg,white,m_l_016.jpg,white,within,NA,NaN,NA,left,12850,1,2,2870
75nzK5Bq,322zsn9z6jxccjxbpgrk4cn83gtt4w,32vnztt0abh1joidctrrthiiheg4r9,75nzK5Bq,2020-0188,2021-10-15,15:34:52,17:00:16,NA,incomplete,false,NA,true,5,7,NA,NA,NA,right,present,NA,NA,n_s_066.jpg,green,m_l_065.jpg,green,within,NA,NaN,NA,right,10697,1,1,2110
75nzK5Bq,322zsn9z6jxccjxbpgrk4cn83gtt4w,32vnztt0abh1joidctrrthiiheg4r9,75nzK5Bq,2020-0188,2021-10-15,15:34:52,17:00:16,NA,incomplete,false,NA,true,5,8,NA,NA,NA,right,present,NA,NA,n_s_019.jpg,yellow,n_s_086.jpg,yellow,within,NA,NaN,NA,right,8953,1,1,2225
75nzK5Bq,322zsn9z6jxccjxbpgrk4cn83gtt4w,32vnztt0abh1joidctrrthiiheg4r9,75nzK5Bq,2020-0188,2021-10-15,15:34:52,17:00:16,NA,incomplete,false,NA,true,5,9,NA,NA,NA,left,present,NA,NA,n_s_068.jpg,brown,m_l_096.jpg,blue,between,NA,NaN,NA,right,4566,0,2,1999
75nzK5Bq,322zsn9z6jxccjxbpgrk4cn83gtt4w,32vnztt0abh1joidctrrthiiheg4r9,75nzK5Bq,2020-0188,2021-10-15,15:34:52,17:00:16,NA,incomplete,false,NA,true,5,10,NA,NA,NA,right,present,NA,NA,n_s_067.jpg,white,m_l_035.jpg,blue,between,NA,NaN,NA,right,5198,1,2,1918
75nzK5Bq,322zsn9z6jxccjxbpgrk4cn83gtt4w,32vnztt0abh1joidctrrthiiheg4r9,75nzK5Bq,2020-0188,2021-10-15,15:34:52,17:00:16,NA,incomplete,false,true,NA,6,0,NA,white,n_l_114.jpg,NA,NA,unpleasant,pleasant,NA,NA,NA,NA,NA,right,2305,true,NA,NA,NA,NA,NA
75nzK5Bq,322zsn9z6jxccjxbpgrk4cn83gtt4w,32vnztt0abh1joidctrrthiiheg4r9,75nzK5Bq,2020-0188,2021-10-15,15:34:52,17:00:16,NA,incomplete,false,true,NA,6,1,NA,white,n_l_104.jpg,NA,NA,unpleasant,pleasant,NA,NA,NA,NA,NA,right,2641,true,NA,NA,NA,NA,NA
75nzK5Bq,322zsn9z6jxccjxbpgrk4cn83gtt4w,32vnztt0abh1joidctrrthiiheg4r9,75nzK5Bq,2020-0188,2021-10-15,15:34:52,17:00:16,NA,incomplete,false,true,NA,6,2,NA,white,m_l_037.jpg,NA,NA,unpleasant,pleasant,NA,NA,NA,NA,NA,right,1508,true,NA,NA,NA,NA,NA
75nzK5Bq,322zsn9z6jxccjxbpgrk4cn83gtt4w,32vnztt0abh1joidctrrthiiheg4r9,75nzK5Bq,2020-0188,2021-10-15,15:34:52,17:00:16,NA,incomplete,false,true,NA,6,3,NA,white,n_l_074.jpg,NA,NA,unpleasant,pleasant,NA,NA,NA,NA,NA,left,1335,true,NA,NA,NA,NA,NA
75nzK5Bq,322zsn9z6jxccjxbpgrk4cn83gtt4w,32vnztt0abh1joidctrrthiiheg4r9,75nzK5Bq,2020-0188,2021-10-15,15:34:52,17:00:16,NA,incomplete,false,true,NA,6,4,NA,white,m_l_105.jpg,NA,NA,pleasant,unpleasant,NA,NA,NA,NA,NA,left,1382,true,NA,NA,NA,NA,NA
75nzK5Bq,322zsn9z6jxccjxbpgrk4cn83gtt4w,32vnztt0abh1joidctrrthiiheg4r9,75nzK5Bq,2020-0188,2021-10-15,15:34:52,17:00:16,NA,incomplete,false,true,NA,6,5,NA,white,m_l_068.jpg,NA,NA,pleasant,unpleasant,NA,NA,NA,NA,NA,left,1823,true,NA,NA,NA,NA,NA
75nzK5Bq,322zsn9z6jxccjxbpgrk4cn83gtt4w,32vnztt0abh1joidctrrthiiheg4r9,75nzK5Bq,2020-0188,2021-10-15,15:34:52,17:00:16,NA,incomplete,false,true,NA,6,6,NA,brown,n_s_030.jpg,NA,NA,unpleasant,pleasant,NA,NA,NA,NA,NA,right,1482,true,NA,NA,NA,NA,NA
75nzK5Bq,322zsn9z6jxccjxbpgrk4cn83gtt4w,32vnztt0abh1joidctrrthiiheg4r9,75nzK5Bq,2020-0188,2021-10-15,15:34:52,17:00:16,NA,incomplete,false,true,NA,6,7,NA,brown,m_s_004.jpg,NA,NA,pleasant,unpleasant,NA,NA,NA,NA,NA,left,1808,true,NA,NA,NA,NA,NA
75nzK5Bq,322zsn9z6jxccjxbpgrk4cn83gtt4w,32vnztt0abh1joidctrrthiiheg4r9,75nzK5Bq,2020-0188,2021-10-15,15:34:52,17:00:16,NA,incomplete,false,true,NA,6,8,NA,brown,n_l_062.jpg,NA,NA,unpleasant,pleasant,NA,NA,NA,NA,NA,right,1739,true,NA,NA,NA,NA,NA
75nzK5Bq,322zsn9z6jxccjxbpgrk4cn83gtt4w,32vnztt0abh1joidctrrthiiheg4r9,75nzK5Bq,2020-0188,2021-10-15,15:34:52,17:00:16,NA,incomplete,false,true,NA,6,9,NA,brown,n_s_041.jpg,NA,NA,unpleasant,pleasant,NA,NA,NA,NA,NA,left,1653,true,NA,NA,NA,NA,NA
75nzK5Bq,322zsn9z6jxccjxbpgrk4cn83gtt4w,32vnztt0abh1joidctrrthiiheg4r9,75nzK5Bq,2020-0188,2021-10-15,15:34:52,17:00:16,NA,incomplete,false,true,NA,6,10,NA,brown,m_s_061.jpg,NA,NA,pleasant,unpleasant,NA,NA,NA,NA,NA,right,1626,true,NA,NA,NA,NA,NA
75nzK5Bq,322zsn9z6jxccjxbpgrk4cn83gtt4w,32vnztt0abh1joidctrrthiiheg4r9,75nzK5Bq,2020-0188,2021-10-15,15:34:52,17:00:16,NA,incomplete,false,true,NA,6,11,NA,brown,m_l_027.jpg,NA,NA,pleasant,unpleasant,NA,NA,NA,NA,NA,left,1853,true,NA,NA,NA,NA,NA
75nzK5Bq,322zsn9z6jxccjxbpgrk4cn83gtt4w,32vnztt0abh1joidctrrthiiheg4r9,75nzK5Bq,2020-0188,2021-10-15,15:34:52,17:00:16,NA,incomplete,false,true,NA,6,12,NA,orange,m_l_063.jpg,NA,NA,unpleasant,pleasant,NA,NA,NA,NA,NA,right,1245,true,NA,NA,NA,NA,NA
75nzK5Bq,322zsn9z6jxccjxbpgrk4cn83gtt4w,32vnztt0abh1joidctrrthiiheg4r9,75nzK5Bq,2020-0188,2021-10-15,15:34:52,17:00:16,NA,incomplete,false,true,NA,6,13,NA,orange,m_s_105.jpg,NA,NA,unpleasant,pleasant,NA,NA,NA,NA,NA,right,2653,true,NA,NA,NA,NA,NA
75nzK5Bq,322zsn9z6jxccjxbpgrk4cn83gtt4w,32vnztt0abh1joidctrrthiiheg4r9,75nzK5Bq,2020-0188,2021-10-15,15:34:52,17:00:16,NA,incomplete,false,true,NA,6,14,NA,orange,n_s_072.jpg,NA,NA,pleasant,unpleasant,NA,NA,NA,NA,NA,left,2096,true,NA,NA,NA,NA,NA
75nzK5Bq,322zsn9z6jxccjxbpgrk4cn83gtt4w,32vnztt0abh1joidctrrthiiheg4r9,75nzK5Bq,2020-0188,2021-10-15,15:34:52,17:00:16,NA,incomplete,false,true,NA,6,15,NA,orange,m_s_059.jpg,NA,NA,pleasant,unpleasant,NA,NA,NA,NA,NA,left,1776,true,NA,NA,NA,NA,NA
75nzK5Bq,322zsn9z6jxccjxbpgrk4cn83gtt4w,32vnztt0abh1joidctrrthiiheg4r9,75nzK5Bq,2020-0188,2021-10-15,15:34:52,17:00:16,NA,incomplete,false,true,NA,6,16,NA,orange,n_l_077.jpg,NA,NA,pleasant,unpleasant,NA,NA,NA,NA,NA,right,1558,true,NA,NA,NA,NA,NA
75nzK5Bq,322zsn9z6jxccjxbpgrk4cn83gtt4w,32vnztt0abh1joidctrrthiiheg4r9,75nzK5Bq,2020-0188,2021-10-15,15:34:52,17:00:16,NA,incomplete,false,true,NA,6,17,NA,orange,n_s_085.jpg,NA,NA,unpleasant,pleasant,NA,NA,NA,NA,NA,right,1897,true,NA,NA,NA,NA,NA
75nzK5Bq,322zsn9z6jxccjxbpgrk4cn83gtt4w,32vnztt0abh1joidctrrthiiheg4r9,75nzK5Bq,2020-0188,2021-10-15,15:34:52,17:00:16,NA,incomplete,false,true,NA,6,18,NA,red,n_l_044.jpg,NA,NA,pleasant,unpleasant,NA,NA,NA,NA,NA,left,1590,true,NA,NA,NA,NA,NA
75nzK5Bq,322zsn9z6jxccjxbpgrk4cn83gtt4w,32vnztt0abh1joidctrrthiiheg4r9,75nzK5Bq,2020-0188,2021-10-15,15:34:52,17:00:16,NA,incomplete,false,true,NA,6,19,NA,red,m_s_111.jpg,NA,NA,unpleasant,pleasant,NA,NA,NA,NA,NA,left,1767,true,NA,NA,NA,NA,NA
75nzK5Bq,322zsn9z6jxccjxbpgrk4cn83gtt4w,32vnztt0abh1joidctrrthiiheg4r9,75nzK5Bq,2020-0188,2021-10-15,15:34:52,17:00:16,NA,incomplete,false,true,NA,6,20,NA,red,m_s_011.jpg,NA,NA,unpleasant,pleasant,NA,NA,NA,NA,NA,right,1763,true,NA,NA,NA,NA,NA
75nzK5Bq,322zsn9z6jxccjxbpgrk4cn83gtt4w,32vnztt0abh1joidctrrthiiheg4r9,75nzK5Bq,2020-0188,2021-10-15,15:34:52,17:00:16,NA,incomplete,false,true,NA,6,21,NA,red,m_s_044.jpg,NA,NA,unpleasant,pleasant,NA,NA,NA,NA,NA,right,1277,true,NA,NA,NA,NA,NA
75nzK5Bq,322zsn9z6jxccjxbpgrk4cn83gtt4w,32vnztt0abh1joidctrrthiiheg4r9,75nzK5Bq,2020-0188,2021-10-15,15:34:52,17:00:16,NA,incomplete,false,true,NA,6,22,NA,red,m_l_001.jpg,NA,NA,pleasant,unpleasant,NA,NA,NA,NA,NA,left,1404,true,NA,NA,NA,NA,NA
75nzK5Bq,322zsn9z6jxccjxbpgrk4cn83gtt4w,32vnztt0abh1joidctrrthiiheg4r9,75nzK5Bq,2020-0188,2021-10-15,15:34:52,17:00:16,NA,incomplete,false,true,NA,6,23,NA,red,n_s_099.jpg,NA,NA,unpleasant,pleasant,NA,NA,NA,NA,NA,right,1190,true,NA,NA,NA,NA,NA
75nzK5Bq,322zsn9z6jxccjxbpgrk4cn83gtt4w,32vnztt0abh1joidctrrthiiheg4r9,75nzK5Bq,2020-0188,2021-10-15,15:34:52,17:00:16,NA,incomplete,false,true,NA,6,24,NA,green,n_l_071.jpg,NA,NA,pleasant,unpleasant,NA,NA,NA,NA,NA,left,1456,true,NA,NA,NA,NA,NA
75nzK5Bq,322zsn9z6jxccjxbpgrk4cn83gtt4w,32vnztt0abh1joidctrrthiiheg4r9,75nzK5Bq,2020-0188,2021-10-15,15:34:52,17:00:16,NA,incomplete,false,true,NA,6,25,NA,green,n_s_065.jpg,NA,NA,pleasant,unpleasant,NA,NA,NA,NA,NA,left,1459,true,NA,NA,NA,NA,NA
75nzK5Bq,322zsn9z6jxccjxbpgrk4cn83gtt4w,32vnztt0abh1joidctrrthiiheg4r9,75nzK5Bq,2020-0188,2021-10-15,15:34:52,17:00:16,NA,incomplete,false,true,NA,6,26,NA,green,n_s_076.jpg,NA,NA,pleasant,unpleasant,NA,NA,NA,NA,NA,left,1200,true,NA,NA,NA,NA,NA
75nzK5Bq,322zsn9z6jxccjxbpgrk4cn83gtt4w,32vnztt0abh1joidctrrthiiheg4r9,75nzK5Bq,2020-0188,2021-10-15,15:34:52,17:00:16,NA,incomplete,false,true,NA,6,27,NA,green,n_s_096.jpg,NA,NA,unpleasant,pleasant,NA,NA,NA,NA,NA,right,1099,true,NA,NA,NA,NA,NA
75nzK5Bq,322zsn9z6jxccjxbpgrk4cn83gtt4w,32vnztt0abh1joidctrrthiiheg4r9,75nzK5Bq,2020-0188,2021-10-15,15:34:52,17:00:16,NA,incomplete,false,true,NA,6,28,NA,green,m_s_019.jpg,NA,NA,unpleasant,pleasant,NA,NA,NA,NA,NA,right,1753,true,NA,NA,NA,NA,NA
75nzK5Bq,322zsn9z6jxccjxbpgrk4cn83gtt4w,32vnztt0abh1joidctrrthiiheg4r9,75nzK5Bq,2020-0188,2021-10-15,15:34:52,17:00:16,NA,incomplete,false,true,NA,6,29,NA,green,m_s_100.jpg,NA,NA,unpleasant,pleasant,NA,NA,NA,NA,NA,right,1698,true,NA,NA,NA,NA,NA
75nzK5Bq,322zsn9z6jxccjxbpgrk4cn83gtt4w,32vnztt0abh1joidctrrthiiheg4r9,75nzK5Bq,2020-0188,2021-10-15,15:34:52,17:00:16,NA,incomplete,false,true,NA,6,30,NA,black,n_s_028.jpg,NA,NA,unpleasant,pleasant,NA,NA,NA,NA,NA,right,1448,true,NA,NA,NA,NA,NA
75nzK5Bq,322zsn9z6jxccjxbpgrk4cn83gtt4w,32vnztt0abh1joidctrrthiiheg4r9,75nzK5Bq,2020-0188,2021-10-15,15:34:52,17:00:16,NA,incomplete,false,true,NA,6,31,NA,black,m_l_042.jpg,NA,NA,unpleasant,pleasant,NA,NA,NA,NA,NA,right,1475,true,NA,NA,NA,NA,NA
75nzK5Bq,322zsn9z6jxccjxbpgrk4cn83gtt4w,32vnztt0abh1joidctrrthiiheg4r9,75nzK5Bq,2020-0188,2021-10-15,15:34:52,17:00:16,NA,incomplete,false,true,NA,6,32,NA,black,m_s_081.jpg,NA,NA,pleasant,unpleasant,NA,NA,NA,NA,NA,left,1053,true,NA,NA,NA,NA,NA
75nzK5Bq,322zsn9z6jxccjxbpgrk4cn83gtt4w,32vnztt0abh1joidctrrthiiheg4r9,75nzK5Bq,2020-0188,2021-10-15,15:34:52,17:00:16,NA,incomplete,false,true,NA,6,33,NA,black,n_l_084.jpg,NA,NA,pleasant,unpleasant,NA,NA,NA,NA,NA,right,1460,true,NA,NA,NA,NA,NA
75nzK5Bq,322zsn9z6jxccjxbpgrk4cn83gtt4w,32vnztt0abh1joidctrrthiiheg4r9,75nzK5Bq,2020-0188,2021-10-15,15:34:52,17:00:16,NA,incomplete,false,true,NA,6,34,NA,black,n_s_036.jpg,NA,NA,unpleasant,pleasant,NA,NA,NA,NA,NA,left,1790,true,NA,NA,NA,NA,NA
75nzK5Bq,322zsn9z6jxccjxbpgrk4cn83gtt4w,32vnztt0abh1joidctrrthiiheg4r9,75nzK5Bq,2020-0188,2021-10-15,15:34:52,17:00:16,NA,incomplete,false,true,NA,6,35,NA,black,m_l_011.jpg,NA,NA,unpleasant,pleasant,NA,NA,NA,NA,NA,right,1289,true,NA,NA,NA,NA,NA
75nzK5Bq,322zsn9z6jxccjxbpgrk4cn83gtt4w,32vnztt0abh1joidctrrthiiheg4r9,75nzK5Bq,2020-0188,2021-10-15,15:34:52,17:00:16,NA,incomplete,false,NA,true,6,0,NA,NA,NA,right,absent,NA,NA,m_l_011.jpg,black,m_l_042.jpg,black,within,NA,NaN,NA,right,8917,1,2,1321
75nzK5Bq,322zsn9z6jxccjxbpgrk4cn83gtt4w,32vnztt0abh1joidctrrthiiheg4r9,75nzK5Bq,2020-0188,2021-10-15,15:34:52,17:00:16,NA,incomplete,false,NA,true,6,1,NA,NA,NA,left,absent,NA,NA,n_s_065.jpg,green,m_s_100.jpg,green,within,NA,NaN,NA,left,16031,1,1,1269
75nzK5Bq,322zsn9z6jxccjxbpgrk4cn83gtt4w,32vnztt0abh1joidctrrthiiheg4r9,75nzK5Bq,2020-0188,2021-10-15,15:34:52,17:00:16,NA,incomplete,false,NA,true,6,2,NA,NA,NA,left,absent,NA,NA,m_s_019.jpg,green,m_s_081.jpg,black,between,NA,NaN,NA,left,3310,1,2,1117
75nzK5Bq,322zsn9z6jxccjxbpgrk4cn83gtt4w,32vnztt0abh1joidctrrthiiheg4r9,75nzK5Bq,2020-0188,2021-10-15,15:34:52,17:00:16,NA,incomplete,false,NA,true,6,3,NA,NA,NA,left,absent,NA,NA,n_l_077.jpg,orange,m_s_011.jpg,red,between,NA,NaN,NA,left,8934,1,2,1748
75nzK5Bq,322zsn9z6jxccjxbpgrk4cn83gtt4w,32vnztt0abh1joidctrrthiiheg4r9,75nzK5Bq,2020-0188,2021-10-15,15:34:52,17:00:16,NA,incomplete,false,NA,true,6,4,NA,NA,NA,right,absent,NA,NA,n_s_085.jpg,orange,m_s_105.jpg,orange,within,NA,NaN,NA,left,7999,0,2,1565
75nzK5Bq,322zsn9z6jxccjxbpgrk4cn83gtt4w,32vnztt0abh1joidctrrthiiheg4r9,75nzK5Bq,2020-0188,2021-10-15,15:34:52,17:00:16,NA,incomplete,false,NA,true,6,5,NA,NA,NA,right,absent,NA,NA,n_l_062.jpg,brown,m_l_105.jpg,white,between,NA,NaN,NA,right,6150,1,1,1556
75nzK5Bq,322zsn9z6jxccjxbpgrk4cn83gtt4w,32vnztt0abh1joidctrrthiiheg4r9,75nzK5Bq,2020-0188,2021-10-15,15:34:52,17:00:16,NA,incomplete,false,NA,true,6,6,NA,NA,NA,left,absent,NA,NA,m_s_004.jpg,brown,m_l_027.jpg,brown,within,NA,NaN,NA,left,6357,1,1,2013
75nzK5Bq,322zsn9z6jxccjxbpgrk4cn83gtt4w,32vnztt0abh1joidctrrthiiheg4r9,75nzK5Bq,2020-0188,2021-10-15,15:34:52,17:00:16,NA,incomplete,false,NA,true,6,7,NA,NA,NA,left,absent,NA,NA,m_s_061.jpg,brown,n_s_072.jpg,orange,between,NA,NaN,NA,left,18396,1,2,1549
75nzK5Bq,322zsn9z6jxccjxbpgrk4cn83gtt4w,32vnztt0abh1joidctrrthiiheg4r9,75nzK5Bq,2020-0188,2021-10-15,15:34:52,17:00:16,NA,incomplete,false,NA,true,6,8,NA,NA,NA,left,absent,NA,NA,n_l_104.jpg,white,m_l_068.jpg,white,within,NA,NaN,NA,left,2751,1,1,1173
75nzK5Bq,322zsn9z6jxccjxbpgrk4cn83gtt4w,32vnztt0abh1joidctrrthiiheg4r9,75nzK5Bq,2020-0188,2021-10-15,15:34:52,17:00:16,NA,incomplete,false,NA,true,6,9,NA,NA,NA,left,absent,NA,NA,m_s_111.jpg,red,n_s_099.jpg,red,within,NA,NaN,NA,right,10045,0,2,1992
75nzK5Bq,322zsn9z6jxccjxbpgrk4cn83gtt4w,32vnztt0abh1joidctrrthiiheg4r9,75nzK5Bq,2020-0188,2021-10-15,15:34:52,17:00:16,NA,incomplete,false,NA,true,6,10,NA,NA,NA,left,absent,NA,NA,m_l_001.jpg,red,n_s_076.jpg,green,between,NA,NaN,NA,right,2670,0,1,1360
75nzK5Bq,322zsn9z6jxccjxbpgrk4cn83gtt4w,32vnztt0abh1joidctrrthiiheg4r9,75nzK5Bq,2020-0188,2021-10-15,15:34:52,17:00:16,NA,incomplete,false,true,NA,7,0,NA,white,m_s_117.jpg,NA,NA,unpleasant,pleasant,NA,NA,NA,NA,NA,right,1318,true,NA,NA,NA,NA,NA
75nzK5Bq,322zsn9z6jxccjxbpgrk4cn83gtt4w,32vnztt0abh1joidctrrthiiheg4r9,75nzK5Bq,2020-0188,2021-10-15,15:34:52,17:00:16,NA,incomplete,false,true,NA,7,1,NA,white,n_l_043.jpg,NA,NA,pleasant,unpleasant,NA,NA,NA,NA,NA,right,2061,true,NA,NA,NA,NA,NA
75nzK5Bq,322zsn9z6jxccjxbpgrk4cn83gtt4w,32vnztt0abh1joidctrrthiiheg4r9,75nzK5Bq,2020-0188,2021-10-15,15:34:52,17:00:16,NA,incomplete,false,true,NA,7,2,NA,white,n_s_094.jpg,NA,NA,unpleasant,pleasant,NA,NA,NA,NA,NA,right,1439,true,NA,NA,NA,NA,NA
75nzK5Bq,322zsn9z6jxccjxbpgrk4cn83gtt4w,32vnztt0abh1joidctrrthiiheg4r9,75nzK5Bq,2020-0188,2021-10-15,15:34:52,17:00:16,NA,incomplete,false,true,NA,7,3,NA,white,n_s_013.jpg,NA,NA,unpleasant,pleasant,NA,NA,NA,NA,NA,right,1463,true,NA,NA,NA,NA,NA
75nzK5Bq,322zsn9z6jxccjxbpgrk4cn83gtt4w,32vnztt0abh1joidctrrthiiheg4r9,75nzK5Bq,2020-0188,2021-10-15,15:34:52,17:00:16,NA,incomplete,false,true,NA,7,4,NA,white,n_s_008.jpg,NA,NA,unpleasant,pleasant,NA,NA,NA,NA,NA,left,2011,true,NA,NA,NA,NA,NA
75nzK5Bq,322zsn9z6jxccjxbpgrk4cn83gtt4w,32vnztt0abh1joidctrrthiiheg4r9,75nzK5Bq,2020-0188,2021-10-15,15:34:52,17:00:16,NA,incomplete,false,true,NA,7,5,NA,white,m_s_014.jpg,NA,NA,unpleasant,pleasant,NA,NA,NA,NA,NA,right,1110,true,NA,NA,NA,NA,NA
75nzK5Bq,322zsn9z6jxccjxbpgrk4cn83gtt4w,32vnztt0abh1joidctrrthiiheg4r9,75nzK5Bq,2020-0188,2021-10-15,15:34:52,17:00:16,NA,incomplete,false,true,NA,7,6,NA,yellow,m_s_040.jpg,NA,NA,pleasant,unpleasant,NA,NA,NA,NA,NA,left,1642,true,NA,NA,NA,NA,NA
75nzK5Bq,322zsn9z6jxccjxbpgrk4cn83gtt4w,32vnztt0abh1joidctrrthiiheg4r9,75nzK5Bq,2020-0188,2021-10-15,15:34:52,17:00:16,NA,incomplete,false,true,NA,7,7,NA,yellow,m_l_110.jpg,NA,NA,pleasant,unpleasant,NA,NA,NA,NA,NA,left,1920,true,NA,NA,NA,NA,NA
75nzK5Bq,322zsn9z6jxccjxbpgrk4cn83gtt4w,32vnztt0abh1joidctrrthiiheg4r9,75nzK5Bq,2020-0188,2021-10-15,15:34:52,17:00:16,NA,incomplete,false,true,NA,7,8,NA,yellow,n_l_031.jpg,NA,NA,unpleasant,pleasant,NA,NA,NA,NA,NA,right,1387,true,NA,NA,NA,NA,NA
75nzK5Bq,322zsn9z6jxccjxbpgrk4cn83gtt4w,32vnztt0abh1joidctrrthiiheg4r9,75nzK5Bq,2020-0188,2021-10-15,15:34:52,17:00:16,NA,incomplete,false,true,NA,7,9,NA,yellow,n_s_075.jpg,NA,NA,pleasant,unpleasant,NA,NA,NA,NA,NA,left,1431,true,NA,NA,NA,NA,NA
75nzK5Bq,322zsn9z6jxccjxbpgrk4cn83gtt4w,32vnztt0abh1joidctrrthiiheg4r9,75nzK5Bq,2020-0188,2021-10-15,15:34:52,17:00:16,NA,incomplete,false,true,NA,7,10,NA,yellow,n_s_101.jpg,NA,NA,pleasant,unpleasant,NA,NA,NA,NA,NA,right,1443,true,NA,NA,NA,NA,NA
75nzK5Bq,322zsn9z6jxccjxbpgrk4cn83gtt4w,32vnztt0abh1joidctrrthiiheg4r9,75nzK5Bq,2020-0188,2021-10-15,15:34:52,17:00:16,NA,incomplete,false,true,NA,7,11,NA,yellow,m_l_087.jpg,NA,NA,pleasant,unpleasant,NA,NA,NA,NA,NA,left,1043,true,NA,NA,NA,NA,NA
75nzK5Bq,322zsn9z6jxccjxbpgrk4cn83gtt4w,32vnztt0abh1joidctrrthiiheg4r9,75nzK5Bq,2020-0188,2021-10-15,15:34:52,17:00:16,NA,incomplete,false,true,NA,7,12,NA,brown,m_l_080.jpg,NA,NA,unpleasant,pleasant,NA,NA,NA,NA,NA,right,1218,true,NA,NA,NA,NA,NA
75nzK5Bq,322zsn9z6jxccjxbpgrk4cn83gtt4w,32vnztt0abh1joidctrrthiiheg4r9,75nzK5Bq,2020-0188,2021-10-15,15:34:52,17:00:16,NA,incomplete,false,true,NA,7,13,NA,brown,m_l_018.jpg,NA,NA,pleasant,unpleasant,NA,NA,NA,NA,NA,left,1142,true,NA,NA,NA,NA,NA
75nzK5Bq,322zsn9z6jxccjxbpgrk4cn83gtt4w,32vnztt0abh1joidctrrthiiheg4r9,75nzK5Bq,2020-0188,2021-10-15,15:34:52,17:00:16,NA,incomplete,false,true,NA,7,14,NA,brown,m_l_073.jpg,NA,NA,unpleasant,pleasant,NA,NA,NA,NA,NA,right,1136,true,NA,NA,NA,NA,NA
75nzK5Bq,322zsn9z6jxccjxbpgrk4cn83gtt4w,32vnztt0abh1joidctrrthiiheg4r9,75nzK5Bq,2020-0188,2021-10-15,15:34:52,17:00:16,NA,incomplete,false,true,NA,7,15,NA,brown,n_s_056.jpg,NA,NA,unpleasant,pleasant,NA,NA,NA,NA,NA,right,1268,true,NA,NA,NA,NA,NA
75nzK5Bq,322zsn9z6jxccjxbpgrk4cn83gtt4w,32vnztt0abh1joidctrrthiiheg4r9,75nzK5Bq,2020-0188,2021-10-15,15:34:52,17:00:16,NA,incomplete,false,true,NA,7,16,NA,brown,m_s_048.jpg,NA,NA,unpleasant,pleasant,NA,NA,NA,NA,NA,right,1008,true,NA,NA,NA,NA,NA
75nzK5Bq,322zsn9z6jxccjxbpgrk4cn83gtt4w,32vnztt0abh1joidctrrthiiheg4r9,75nzK5Bq,2020-0188,2021-10-15,15:34:52,17:00:16,NA,incomplete,false,true,NA,7,17,NA,brown,n_s_079.jpg,NA,NA,unpleasant,pleasant,NA,NA,NA,NA,NA,left,1670,true,NA,NA,NA,NA,NA
75nzK5Bq,322zsn9z6jxccjxbpgrk4cn83gtt4w,32vnztt0abh1joidctrrthiiheg4r9,75nzK5Bq,2020-0188,2021-10-15,15:34:52,17:00:16,NA,incomplete,false,true,NA,7,18,NA,gray,n_s_001.jpg,NA,NA,unpleasant,pleasant,NA,NA,NA,NA,NA,right,1673,true,NA,NA,NA,NA,NA
75nzK5Bq,322zsn9z6jxccjxbpgrk4cn83gtt4w,32vnztt0abh1joidctrrthiiheg4r9,75nzK5Bq,2020-0188,2021-10-15,15:34:52,17:00:16,NA,incomplete,false,true,NA,7,19,NA,gray,n_l_109.jpg,NA,NA,pleasant,unpleasant,NA,NA,NA,NA,NA,right,1538,true,NA,NA,NA,NA,NA
75nzK5Bq,322zsn9z6jxccjxbpgrk4cn83gtt4w,32vnztt0abh1joidctrrthiiheg4r9,75nzK5Bq,2020-0188,2021-10-15,15:34:52,17:00:16,NA,incomplete,false,true,NA,7,20,NA,gray,n_s_058.jpg,NA,NA,pleasant,unpleasant,NA,NA,NA,NA,NA,left,1416,true,NA,NA,NA,NA,NA
75nzK5Bq,322zsn9z6jxccjxbpgrk4cn83gtt4w,32vnztt0abh1joidctrrthiiheg4r9,75nzK5Bq,2020-0188,2021-10-15,15:34:52,17:00:16,NA,incomplete,false,true,NA,7,21,NA,gray,m_l_117.jpg,NA,NA,pleasant,unpleasant,NA,NA,NA,NA,NA,left,1418,true,NA,NA,NA,NA,NA
75nzK5Bq,322zsn9z6jxccjxbpgrk4cn83gtt4w,32vnztt0abh1joidctrrthiiheg4r9,75nzK5Bq,2020-0188,2021-10-15,15:34:52,17:00:16,NA,incomplete,false,true,NA,7,22,NA,gray,n_s_063.jpg,NA,NA,unpleasant,pleasant,NA,NA,NA,NA,NA,right,1718,true,NA,NA,NA,NA,NA
75nzK5Bq,322zsn9z6jxccjxbpgrk4cn83gtt4w,32vnztt0abh1joidctrrthiiheg4r9,75nzK5Bq,2020-0188,2021-10-15,15:34:52,17:00:16,NA,incomplete,false,true,NA,7,23,NA,gray,n_s_097.jpg,NA,NA,pleasant,unpleasant,NA,NA,NA,NA,NA,left,1196,true,NA,NA,NA,NA,NA
75nzK5Bq,322zsn9z6jxccjxbpgrk4cn83gtt4w,32vnztt0abh1joidctrrthiiheg4r9,75nzK5Bq,2020-0188,2021-10-15,15:34:52,17:00:16,NA,incomplete,false,true,NA,7,24,NA,blue,m_l_059.jpg,NA,NA,pleasant,unpleasant,NA,NA,NA,NA,NA,left,1201,true,NA,NA,NA,NA,NA
75nzK5Bq,322zsn9z6jxccjxbpgrk4cn83gtt4w,32vnztt0abh1joidctrrthiiheg4r9,75nzK5Bq,2020-0188,2021-10-15,15:34:52,17:00:16,NA,incomplete,false,true,NA,7,25,NA,blue,n_s_060.jpg,NA,NA,unpleasant,pleasant,NA,NA,NA,NA,NA,right,1330,true,NA,NA,NA,NA,NA
75nzK5Bq,322zsn9z6jxccjxbpgrk4cn83gtt4w,32vnztt0abh1joidctrrthiiheg4r9,75nzK5Bq,2020-0188,2021-10-15,15:34:52,17:00:16,NA,incomplete,false,true,NA,7,26,NA,blue,m_l_043.jpg,NA,NA,pleasant,unpleasant,NA,NA,NA,NA,NA,left,1249,true,NA,NA,NA,NA,NA
75nzK5Bq,322zsn9z6jxccjxbpgrk4cn83gtt4w,32vnztt0abh1joidctrrthiiheg4r9,75nzK5Bq,2020-0188,2021-10-15,15:34:52,17:00:16,NA,incomplete,false,true,NA,7,27,NA,blue,n_l_021.jpg,NA,NA,pleasant,unpleasant,NA,NA,NA,NA,NA,left,1097,true,NA,NA,NA,NA,NA
75nzK5Bq,322zsn9z6jxccjxbpgrk4cn83gtt4w,32vnztt0abh1joidctrrthiiheg4r9,75nzK5Bq,2020-0188,2021-10-15,15:34:52,17:00:16,NA,incomplete,false,true,NA,7,28,NA,blue,m_l_003.jpg,NA,NA,unpleasant,pleasant,NA,NA,NA,NA,NA,right,1718,true,NA,NA,NA,NA,NA
75nzK5Bq,322zsn9z6jxccjxbpgrk4cn83gtt4w,32vnztt0abh1joidctrrthiiheg4r9,75nzK5Bq,2020-0188,2021-10-15,15:34:52,17:00:16,NA,incomplete,false,true,NA,7,29,NA,blue,n_l_110.jpg,NA,NA,unpleasant,pleasant,NA,NA,NA,NA,NA,right,1363,true,NA,NA,NA,NA,NA
75nzK5Bq,322zsn9z6jxccjxbpgrk4cn83gtt4w,32vnztt0abh1joidctrrthiiheg4r9,75nzK5Bq,2020-0188,2021-10-15,15:34:52,17:00:16,NA,incomplete,false,true,NA,7,30,NA,red,n_s_055.jpg,NA,NA,pleasant,unpleasant,NA,NA,NA,NA,NA,right,2549,true,NA,NA,NA,NA,NA
75nzK5Bq,322zsn9z6jxccjxbpgrk4cn83gtt4w,32vnztt0abh1joidctrrthiiheg4r9,75nzK5Bq,2020-0188,2021-10-15,15:34:52,17:00:16,NA,incomplete,false,true,NA,7,31,NA,red,n_l_101.jpg,NA,NA,unpleasant,pleasant,NA,NA,NA,NA,NA,left,1711,true,NA,NA,NA,NA,NA
75nzK5Bq,322zsn9z6jxccjxbpgrk4cn83gtt4w,32vnztt0abh1joidctrrthiiheg4r9,75nzK5Bq,2020-0188,2021-10-15,15:34:52,17:00:16,NA,incomplete,false,true,NA,7,32,NA,red,n_l_001.jpg,NA,NA,pleasant,unpleasant,NA,NA,NA,NA,NA,left,1859,true,NA,NA,NA,NA,NA
75nzK5Bq,322zsn9z6jxccjxbpgrk4cn83gtt4w,32vnztt0abh1joidctrrthiiheg4r9,75nzK5Bq,2020-0188,2021-10-15,15:34:52,17:00:16,NA,incomplete,false,true,NA,7,33,NA,red,m_l_046.jpg,NA,NA,unpleasant,pleasant,NA,NA,NA,NA,NA,right,1469,true,NA,NA,NA,NA,NA
75nzK5Bq,322zsn9z6jxccjxbpgrk4cn83gtt4w,32vnztt0abh1joidctrrthiiheg4r9,75nzK5Bq,2020-0188,2021-10-15,15:34:52,17:00:16,NA,incomplete,false,true,NA,7,34,NA,red,m_s_075.jpg,NA,NA,unpleasant,pleasant,NA,NA,NA,NA,NA,right,1211,true,NA,NA,NA,NA,NA
75nzK5Bq,322zsn9z6jxccjxbpgrk4cn83gtt4w,32vnztt0abh1joidctrrthiiheg4r9,75nzK5Bq,2020-0188,2021-10-15,15:34:52,17:00:16,NA,incomplete,false,true,NA,7,35,NA,red,m_l_019.jpg,NA,NA,pleasant,unpleasant,NA,NA,NA,NA,NA,left,1352,true,NA,NA,NA,NA,NA
75nzK5Bq,322zsn9z6jxccjxbpgrk4cn83gtt4w,32vnztt0abh1joidctrrthiiheg4r9,75nzK5Bq,2020-0188,2021-10-15,15:34:52,17:00:16,NA,incomplete,false,NA,true,7,0,NA,NA,NA,left,absent,NA,NA,m_l_018.jpg,brown,n_s_079.jpg,brown,within,NA,NaN,NA,left,6293,1,1,1502
75nzK5Bq,322zsn9z6jxccjxbpgrk4cn83gtt4w,32vnztt0abh1joidctrrthiiheg4r9,75nzK5Bq,2020-0188,2021-10-15,15:34:52,17:00:16,NA,incomplete,false,NA,true,7,1,NA,NA,NA,right,absent,NA,NA,m_s_014.jpg,white,n_l_043.jpg,white,within,NA,NaN,NA,left,5618,0,1,1893
75nzK5Bq,322zsn9z6jxccjxbpgrk4cn83gtt4w,32vnztt0abh1joidctrrthiiheg4r9,75nzK5Bq,2020-0188,2021-10-15,15:34:52,17:00:16,NA,incomplete,false,NA,true,7,2,NA,NA,NA,left,absent,NA,NA,n_l_109.jpg,gray,n_s_097.jpg,gray,within,NA,NaN,NA,left,11847,1,1,1475
75nzK5Bq,322zsn9z6jxccjxbpgrk4cn83gtt4w,32vnztt0abh1joidctrrthiiheg4r9,75nzK5Bq,2020-0188,2021-10-15,15:34:52,17:00:16,NA,incomplete,false,NA,true,7,3,NA,NA,NA,left,absent,NA,NA,n_l_101.jpg,red,m_l_019.jpg,red,within,NA,NaN,NA,left,8965,1,1,2059
75nzK5Bq,322zsn9z6jxccjxbpgrk4cn83gtt4w,32vnztt0abh1joidctrrthiiheg4r9,75nzK5Bq,2020-0188,2021-10-15,15:34:52,17:00:16,NA,incomplete,false,NA,true,7,4,NA,NA,NA,left,absent,NA,NA,m_l_003.jpg,blue,n_l_001.jpg,red,between,NA,NaN,NA,left,4615,1,2,1552
75nzK5Bq,322zsn9z6jxccjxbpgrk4cn83gtt4w,32vnztt0abh1joidctrrthiiheg4r9,75nzK5Bq,2020-0188,2021-10-15,15:34:52,17:00:16,NA,incomplete,false,NA,true,7,5,NA,NA,NA,left,absent,NA,NA,m_s_048.jpg,brown,n_s_058.jpg,gray,between,NA,NaN,NA,left,6797,1,1,1669
75nzK5Bq,322zsn9z6jxccjxbpgrk4cn83gtt4w,32vnztt0abh1joidctrrthiiheg4r9,75nzK5Bq,2020-0188,2021-10-15,15:34:52,17:00:16,NA,incomplete,false,NA,true,7,6,NA,NA,NA,left,absent,NA,NA,n_s_060.jpg,blue,n_l_110.jpg,blue,within,NA,NaN,NA,right,7563,0,1,2146
75nzK5Bq,322zsn9z6jxccjxbpgrk4cn83gtt4w,32vnztt0abh1joidctrrthiiheg4r9,75nzK5Bq,2020-0188,2021-10-15,15:34:52,17:00:16,NA,incomplete,false,NA,true,7,7,NA,NA,NA,left,absent,NA,NA,n_s_008.jpg,white,n_l_031.jpg,yellow,between,NA,NaN,NA,left,7901,1,1,1621
75nzK5Bq,322zsn9z6jxccjxbpgrk4cn83gtt4w,32vnztt0abh1joidctrrthiiheg4r9,75nzK5Bq,2020-0188,2021-10-15,15:34:52,17:00:16,NA,incomplete,false,NA,true,7,8,NA,NA,NA,left,absent,NA,NA,m_l_110.jpg,yellow,m_l_087.jpg,yellow,within,NA,NaN,NA,right,9979,0,2,1822
75nzK5Bq,322zsn9z6jxccjxbpgrk4cn83gtt4w,32vnztt0abh1joidctrrthiiheg4r9,75nzK5Bq,2020-0188,2021-10-15,15:34:52,17:00:16,NA,incomplete,false,NA,true,7,9,NA,NA,NA,left,absent,NA,NA,n_s_101.jpg,yellow,m_l_073.jpg,brown,between,NA,NaN,NA,left,10933,1,1,1729
75nzK5Bq,322zsn9z6jxccjxbpgrk4cn83gtt4w,32vnztt0abh1joidctrrthiiheg4r9,75nzK5Bq,2020-0188,2021-10-15,15:34:52,17:00:16,NA,incomplete,false,NA,true,7,10,NA,NA,NA,left,absent,NA,NA,n_s_063.jpg,gray,m_l_043.jpg,blue,between,NA,NaN,NA,right,2045,0,2,1415
75nzK5Bq,322zsn9z6jxccjxbpgrk4cn83gtt4w,32vnztt0abh1joidctrrthiiheg4r9,75nzK5Bq,2020-0188,2021-10-15,15:34:52,17:00:16,NA,incomplete,false,true,NA,8,0,NA,orange,m_l_054.jpg,NA,NA,pleasant,unpleasant,NA,NA,NA,NA,NA,right,1266,true,NA,NA,NA,NA,NA
75nzK5Bq,322zsn9z6jxccjxbpgrk4cn83gtt4w,32vnztt0abh1joidctrrthiiheg4r9,75nzK5Bq,2020-0188,2021-10-15,15:34:52,17:00:16,NA,incomplete,false,true,NA,8,1,NA,orange,n_l_055.jpg,NA,NA,pleasant,unpleasant,NA,NA,NA,NA,NA,left,1861,true,NA,NA,NA,NA,NA
75nzK5Bq,322zsn9z6jxccjxbpgrk4cn83gtt4w,32vnztt0abh1joidctrrthiiheg4r9,75nzK5Bq,2020-0188,2021-10-15,15:34:52,17:00:16,NA,incomplete,false,true,NA,8,2,NA,orange,m_l_025.jpg,NA,NA,pleasant,unpleasant,NA,NA,NA,NA,NA,left,989,true,NA,NA,NA,NA,NA
75nzK5Bq,322zsn9z6jxccjxbpgrk4cn83gtt4w,32vnztt0abh1joidctrrthiiheg4r9,75nzK5Bq,2020-0188,2021-10-15,15:34:52,17:00:16,NA,incomplete,false,true,NA,8,3,NA,orange,m_l_106.jpg,NA,NA,pleasant,unpleasant,NA,NA,NA,NA,NA,left,1521,true,NA,NA,NA,NA,NA
75nzK5Bq,322zsn9z6jxccjxbpgrk4cn83gtt4w,32vnztt0abh1joidctrrthiiheg4r9,75nzK5Bq,2020-0188,2021-10-15,15:34:52,17:00:16,NA,incomplete,false,true,NA,8,4,NA,orange,n_l_002.jpg,NA,NA,unpleasant,pleasant,NA,NA,NA,NA,NA,right,1405,true,NA,NA,NA,NA,NA
75nzK5Bq,322zsn9z6jxccjxbpgrk4cn83gtt4w,32vnztt0abh1joidctrrthiiheg4r9,75nzK5Bq,2020-0188,2021-10-15,15:34:52,17:00:16,NA,incomplete,false,true,NA,8,5,NA,orange,m_l_101.jpg,NA,NA,unpleasant,pleasant,NA,NA,NA,NA,NA,right,1423,true,NA,NA,NA,NA,NA
75nzK5Bq,322zsn9z6jxccjxbpgrk4cn83gtt4w,32vnztt0abh1joidctrrthiiheg4r9,75nzK5Bq,2020-0188,2021-10-15,15:34:52,17:00:16,NA,incomplete,false,true,NA,8,6,NA,brown,n_s_012.jpg,NA,NA,pleasant,unpleasant,NA,NA,NA,NA,NA,left,1146,true,NA,NA,NA,NA,NA
75nzK5Bq,322zsn9z6jxccjxbpgrk4cn83gtt4w,32vnztt0abh1joidctrrthiiheg4r9,75nzK5Bq,2020-0188,2021-10-15,15:34:52,17:00:16,NA,incomplete,false,true,NA,8,7,NA,brown,n_s_044.jpg,NA,NA,pleasant,unpleasant,NA,NA,NA,NA,NA,left,1342,true,NA,NA,NA,NA,NA
75nzK5Bq,322zsn9z6jxccjxbpgrk4cn83gtt4w,32vnztt0abh1joidctrrthiiheg4r9,75nzK5Bq,2020-0188,2021-10-15,15:34:52,17:00:16,NA,incomplete,false,true,NA,8,8,NA,brown,m_s_041.jpg,NA,NA,pleasant,unpleasant,NA,NA,NA,NA,NA,left,1403,true,NA,NA,NA,NA,NA
75nzK5Bq,322zsn9z6jxccjxbpgrk4cn83gtt4w,32vnztt0abh1joidctrrthiiheg4r9,75nzK5Bq,2020-0188,2021-10-15,15:34:52,17:00:16,NA,incomplete,false,true,NA,8,9,NA,brown,m_l_023.jpg,NA,NA,pleasant,unpleasant,NA,NA,NA,NA,NA,left,1196,true,NA,NA,NA,NA,NA
75nzK5Bq,322zsn9z6jxccjxbpgrk4cn83gtt4w,32vnztt0abh1joidctrrthiiheg4r9,75nzK5Bq,2020-0188,2021-10-15,15:34:52,17:00:16,NA,incomplete,false,true,NA,8,10,NA,brown,m_l_115.jpg,NA,NA,pleasant,unpleasant,NA,NA,NA,NA,NA,left,1563,true,NA,NA,NA,NA,NA
75nzK5Bq,322zsn9z6jxccjxbpgrk4cn83gtt4w,32vnztt0abh1joidctrrthiiheg4r9,75nzK5Bq,2020-0188,2021-10-15,15:34:52,17:00:16,NA,incomplete,false,true,NA,8,11,NA,brown,m_l_060.jpg,NA,NA,pleasant,unpleasant,NA,NA,NA,NA,NA,left,1268,true,NA,NA,NA,NA,NA
75nzK5Bq,322zsn9z6jxccjxbpgrk4cn83gtt4w,32vnztt0abh1joidctrrthiiheg4r9,75nzK5Bq,2020-0188,2021-10-15,15:34:52,17:00:16,NA,incomplete,false,true,NA,8,12,NA,yellow,m_s_083.jpg,NA,NA,unpleasant,pleasant,NA,NA,NA,NA,NA,left,1550,true,NA,NA,NA,NA,NA
75nzK5Bq,322zsn9z6jxccjxbpgrk4cn83gtt4w,32vnztt0abh1joidctrrthiiheg4r9,75nzK5Bq,2020-0188,2021-10-15,15:34:52,17:00:16,NA,incomplete,false,true,NA,8,13,NA,yellow,n_s_098.jpg,NA,NA,pleasant,unpleasant,NA,NA,NA,NA,NA,right,1472,true,NA,NA,NA,NA,NA
75nzK5Bq,322zsn9z6jxccjxbpgrk4cn83gtt4w,32vnztt0abh1joidctrrthiiheg4r9,75nzK5Bq,2020-0188,2021-10-15,15:34:52,17:00:16,NA,incomplete,false,true,NA,8,14,NA,yellow,n_l_070.jpg,NA,NA,pleasant,unpleasant,NA,NA,NA,NA,NA,left,1488,true,NA,NA,NA,NA,NA
75nzK5Bq,322zsn9z6jxccjxbpgrk4cn83gtt4w,32vnztt0abh1joidctrrthiiheg4r9,75nzK5Bq,2020-0188,2021-10-15,15:34:52,17:00:16,NA,incomplete,false,true,NA,8,15,NA,yellow,n_l_049.jpg,NA,NA,unpleasant,pleasant,NA,NA,NA,NA,NA,right,1369,true,NA,NA,NA,NA,NA
75nzK5Bq,322zsn9z6jxccjxbpgrk4cn83gtt4w,32vnztt0abh1joidctrrthiiheg4r9,75nzK5Bq,2020-0188,2021-10-15,15:34:52,17:00:16,NA,incomplete,false,true,NA,8,16,NA,yellow,m_l_049.jpg,NA,NA,pleasant,unpleasant,NA,NA,NA,NA,NA,left,1308,true,NA,NA,NA,NA,NA
75nzK5Bq,322zsn9z6jxccjxbpgrk4cn83gtt4w,32vnztt0abh1joidctrrthiiheg4r9,75nzK5Bq,2020-0188,2021-10-15,15:34:52,17:00:16,NA,incomplete,false,true,NA,8,17,NA,yellow,n_s_054.jpg,NA,NA,pleasant,unpleasant,NA,NA,NA,NA,NA,left,1312,true,NA,NA,NA,NA,NA
75nzK5Bq,322zsn9z6jxccjxbpgrk4cn83gtt4w,32vnztt0abh1joidctrrthiiheg4r9,75nzK5Bq,2020-0188,2021-10-15,15:34:52,17:00:16,NA,incomplete,false,true,NA,8,18,NA,black,n_s_003.jpg,NA,NA,unpleasant,pleasant,NA,NA,NA,NA,NA,left,1414,true,NA,NA,NA,NA,NA
75nzK5Bq,322zsn9z6jxccjxbpgrk4cn83gtt4w,32vnztt0abh1joidctrrthiiheg4r9,75nzK5Bq,2020-0188,2021-10-15,15:34:52,17:00:16,NA,incomplete,false,true,NA,8,19,NA,black,m_l_094.jpg,NA,NA,pleasant,unpleasant,NA,NA,NA,NA,NA,right,1236,true,NA,NA,NA,NA,NA
75nzK5Bq,322zsn9z6jxccjxbpgrk4cn83gtt4w,32vnztt0abh1joidctrrthiiheg4r9,75nzK5Bq,2020-0188,2021-10-15,15:34:52,17:00:16,NA,incomplete,false,true,NA,8,20,NA,black,m_s_045.jpg,NA,NA,pleasant,unpleasant,NA,NA,NA,NA,NA,left,1152,true,NA,NA,NA,NA,NA
75nzK5Bq,322zsn9z6jxccjxbpgrk4cn83gtt4w,32vnztt0abh1joidctrrthiiheg4r9,75nzK5Bq,2020-0188,2021-10-15,15:34:52,17:00:16,NA,incomplete,false,true,NA,8,21,NA,black,m_s_107.jpg,NA,NA,unpleasant,pleasant,NA,NA,NA,NA,NA,left,1938,true,NA,NA,NA,NA,NA
75nzK5Bq,322zsn9z6jxccjxbpgrk4cn83gtt4w,32vnztt0abh1joidctrrthiiheg4r9,75nzK5Bq,2020-0188,2021-10-15,15:34:52,17:00:16,NA,incomplete,false,true,NA,8,22,NA,black,m_l_091.jpg,NA,NA,unpleasant,pleasant,NA,NA,NA,NA,NA,right,1450,true,NA,NA,NA,NA,NA
75nzK5Bq,322zsn9z6jxccjxbpgrk4cn83gtt4w,32vnztt0abh1joidctrrthiiheg4r9,75nzK5Bq,2020-0188,2021-10-15,15:34:52,17:00:16,NA,incomplete,false,true,NA,8,23,NA,black,m_l_083.jpg,NA,NA,unpleasant,pleasant,NA,NA,NA,NA,NA,right,1351,true,NA,NA,NA,NA,NA
75nzK5Bq,322zsn9z6jxccjxbpgrk4cn83gtt4w,32vnztt0abh1joidctrrthiiheg4r9,75nzK5Bq,2020-0188,2021-10-15,15:34:52,17:00:16,NA,incomplete,false,true,NA,8,24,NA,gray,m_s_103.jpg,NA,NA,unpleasant,pleasant,NA,NA,NA,NA,NA,right,1945,true,NA,NA,NA,NA,NA
75nzK5Bq,322zsn9z6jxccjxbpgrk4cn83gtt4w,32vnztt0abh1joidctrrthiiheg4r9,75nzK5Bq,2020-0188,2021-10-15,15:34:52,17:00:16,NA,incomplete,false,true,NA,8,25,NA,gray,n_s_026.jpg,NA,NA,pleasant,unpleasant,NA,NA,NA,NA,NA,right,1885,true,NA,NA,NA,NA,NA
75nzK5Bq,322zsn9z6jxccjxbpgrk4cn83gtt4w,32vnztt0abh1joidctrrthiiheg4r9,75nzK5Bq,2020-0188,2021-10-15,15:34:52,17:00:16,NA,incomplete,false,true,NA,8,26,NA,gray,m_s_031.jpg,NA,NA,unpleasant,pleasant,NA,NA,NA,NA,NA,right,1304,true,NA,NA,NA,NA,NA
75nzK5Bq,322zsn9z6jxccjxbpgrk4cn83gtt4w,32vnztt0abh1joidctrrthiiheg4r9,75nzK5Bq,2020-0188,2021-10-15,15:34:52,17:00:16,NA,incomplete,false,true,NA,8,27,NA,gray,m_s_028.jpg,NA,NA,pleasant,unpleasant,NA,NA,NA,NA,NA,left,1317,true,NA,NA,NA,NA,NA
75nzK5Bq,322zsn9z6jxccjxbpgrk4cn83gtt4w,32vnztt0abh1joidctrrthiiheg4r9,75nzK5Bq,2020-0188,2021-10-15,15:34:52,17:00:16,NA,incomplete,false,true,NA,8,28,NA,gray,n_l_081.jpg,NA,NA,unpleasant,pleasant,NA,NA,NA,NA,NA,right,1375,true,NA,NA,NA,NA,NA
