workerId,hitId,assignmentId,subject,studyid,exp_date,exp_start,exp_end,time_start,time_end,practice,encoding,memory,block,trial,event_order,event,stim,answer,context_type,label_left,label_right,left_image,left_event,right_image,right_event,condition,response,response_time,response_acc,order_response,order_response_time,order_acc,distance_response,distance_response_time
7O9rHPVY,322zsn9z6jxccjxbpgrk4cn83gtt4w,3uxuoq9okia63uefcg3c13di8co7au,7O9rHPVY,2020-0188,2021-10-15,18:15:34,19:52:35,NA,incomplete,true,true,NA,0,0,NA,purple,m_s_112.jpg,NA,NA,unpleasant,pleasant,NA,NA,NA,NA,NA,right,2237.80000000447,true,NA,NA,NA,NA,NA
7O9rHPVY,322zsn9z6jxccjxbpgrk4cn83gtt4w,3uxuoq9okia63uefcg3c13di8co7au,7O9rHPVY,2020-0188,2021-10-15,18:15:34,19:52:35,NA,incomplete,true,true,NA,0,1,NA,purple,m_s_111.jpg,NA,NA,unpleasant,pleasant,NA,NA,NA,NA,NA,right,1369.10000000149,true,NA,NA,NA,NA,NA
7O9rHPVY,322zsn9z6jxccjxbpgrk4cn83gtt4w,3uxuoq9okia63uefcg3c13di8co7au,7O9rHPVY,2020-0188,2021-10-15,18:15:34,19:52:35,NA,incomplete,true,true,NA,0,2,NA,purple,m_l_093.jpg,NA,NA,pleasant,unpleasant,NA,NA,NA,NA,NA,right,1822.39999999851,true,NA,NA,NA,NA,NA
7O9rHPVY,322zsn9z6jxccjxbpgrk4cn83gtt4w,3uxuoq9okia63uefcg3c13di8co7au,7O9rHPVY,2020-0188,2021-10-15,18:15:34,19:52:35,NA,incomplete,true,true,NA,0,3,NA,purple,n_l_081.jpg,NA,NA,pleasant,unpleasant,NA,NA,NA,NA,NA,left,1401.5,true,NA,NA,NA,NA,NA
7O9rHPVY,322zsn9z6jxccjxbpgrk4cn83gtt4w,3uxuoq9okia63uefcg3c13di8co7au,7O9rHPVY,2020-0188,2021-10-15,18:15:34,19:52:35,NA,incomplete,true,true,NA,0,4,NA,purple,m_s_025.jpg,NA,NA,unpleasant,pleasant,NA,NA,NA,NA,NA,right,1429.5,true,NA,NA,NA,NA,NA
7O9rHPVY,322zsn9z6jxccjxbpgrk4cn83gtt4w,3uxuoq9okia63uefcg3c13di8co7au,7O9rHPVY,2020-0188,2021-10-15,18:15:34,19:52:35,NA,incomplete,true,true,NA,0,5,NA,purple,m_s_021.jpg,NA,NA,unpleasant,pleasant,NA,NA,NA,NA,NA,right,1850.5,true,NA,NA,NA,NA,NA
7O9rHPVY,322zsn9z6jxccjxbpgrk4cn83gtt4w,3uxuoq9okia63uefcg3c13di8co7au,7O9rHPVY,2020-0188,2021-10-15,18:15:34,19:52:35,NA,incomplete,true,true,NA,0,6,NA,brown,m_l_116.jpg,NA,NA,unpleasant,pleasant,NA,NA,NA,NA,NA,left,2022.60000000149,true,NA,NA,NA,NA,NA
7O9rHPVY,322zsn9z6jxccjxbpgrk4cn83gtt4w,3uxuoq9okia63uefcg3c13di8co7au,7O9rHPVY,2020-0188,2021-10-15,18:15:34,19:52:35,NA,incomplete,true,true,NA,0,7,NA,brown,n_l_062.jpg,NA,NA,pleasant,unpleasant,NA,NA,NA,NA,NA,right,946.59999999404,true,NA,NA,NA,NA,NA
7O9rHPVY,322zsn9z6jxccjxbpgrk4cn83gtt4w,3uxuoq9okia63uefcg3c13di8co7au,7O9rHPVY,2020-0188,2021-10-15,18:15:34,19:52:35,NA,incomplete,true,true,NA,0,8,NA,brown,m_s_066.jpg,NA,NA,pleasant,unpleasant,NA,NA,NA,NA,NA,left,1327.89999999851,true,NA,NA,NA,NA,NA
7O9rHPVY,322zsn9z6jxccjxbpgrk4cn83gtt4w,3uxuoq9okia63uefcg3c13di8co7au,7O9rHPVY,2020-0188,2021-10-15,18:15:34,19:52:35,NA,incomplete,true,true,NA,0,9,NA,brown,m_s_093.jpg,NA,NA,unpleasant,pleasant,NA,NA,NA,NA,NA,right,1155.80000000447,true,NA,NA,NA,NA,NA
7O9rHPVY,322zsn9z6jxccjxbpgrk4cn83gtt4w,3uxuoq9okia63uefcg3c13di8co7au,7O9rHPVY,2020-0188,2021-10-15,18:15:34,19:52:35,NA,incomplete,true,true,NA,0,10,NA,brown,m_l_021.jpg,NA,NA,unpleasant,pleasant,NA,NA,NA,NA,NA,right,1599.69999999553,true,NA,NA,NA,NA,NA
7O9rHPVY,322zsn9z6jxccjxbpgrk4cn83gtt4w,3uxuoq9okia63uefcg3c13di8co7au,7O9rHPVY,2020-0188,2021-10-15,18:15:34,19:52:35,NA,incomplete,true,true,NA,0,11,NA,brown,m_s_100.jpg,NA,NA,pleasant,unpleasant,NA,NA,NA,NA,NA,left,2757.29999999702,true,NA,NA,NA,NA,NA
7O9rHPVY,322zsn9z6jxccjxbpgrk4cn83gtt4w,3uxuoq9okia63uefcg3c13di8co7au,7O9rHPVY,2020-0188,2021-10-15,18:15:34,19:52:35,NA,incomplete,true,true,NA,0,12,NA,blue,n_l_067.jpg,NA,NA,unpleasant,pleasant,NA,NA,NA,NA,NA,left,2072.60000000149,true,NA,NA,NA,NA,NA
7O9rHPVY,322zsn9z6jxccjxbpgrk4cn83gtt4w,3uxuoq9okia63uefcg3c13di8co7au,7O9rHPVY,2020-0188,2021-10-15,18:15:34,19:52:35,NA,incomplete,true,true,NA,0,13,NA,blue,n_l_056.jpg,NA,NA,pleasant,unpleasant,NA,NA,NA,NA,NA,left,3212.40000000596,true,NA,NA,NA,NA,NA
7O9rHPVY,322zsn9z6jxccjxbpgrk4cn83gtt4w,3uxuoq9okia63uefcg3c13di8co7au,7O9rHPVY,2020-0188,2021-10-15,18:15:34,19:52:35,NA,incomplete,true,true,NA,0,14,NA,blue,m_s_107.jpg,NA,NA,unpleasant,pleasant,NA,NA,NA,NA,NA,left,2521.59999999404,true,NA,NA,NA,NA,NA
7O9rHPVY,322zsn9z6jxccjxbpgrk4cn83gtt4w,3uxuoq9okia63uefcg3c13di8co7au,7O9rHPVY,2020-0188,2021-10-15,18:15:34,19:52:35,NA,incomplete,true,true,NA,0,15,NA,blue,m_l_085.jpg,NA,NA,pleasant,unpleasant,NA,NA,NA,NA,NA,left,2637.10000000149,true,NA,NA,NA,NA,NA
7O9rHPVY,322zsn9z6jxccjxbpgrk4cn83gtt4w,3uxuoq9okia63uefcg3c13di8co7au,7O9rHPVY,2020-0188,2021-10-15,18:15:34,19:52:35,NA,incomplete,true,true,NA,0,16,NA,blue,n_l_107.jpg,NA,NA,unpleasant,pleasant,NA,NA,NA,NA,NA,none,0,false,NA,NA,NA,NA,NA
7O9rHPVY,322zsn9z6jxccjxbpgrk4cn83gtt4w,3uxuoq9okia63uefcg3c13di8co7au,7O9rHPVY,2020-0188,2021-10-15,18:15:34,19:52:35,NA,incomplete,true,true,NA,0,17,NA,blue,m_l_095.jpg,NA,NA,pleasant,unpleasant,NA,NA,NA,NA,NA,left,1548.69999999553,true,NA,NA,NA,NA,NA
7O9rHPVY,322zsn9z6jxccjxbpgrk4cn83gtt4w,3uxuoq9okia63uefcg3c13di8co7au,7O9rHPVY,2020-0188,2021-10-15,18:15:34,19:52:35,NA,incomplete,true,true,NA,0,18,NA,orange,n_s_056.jpg,NA,NA,pleasant,unpleasant,NA,NA,NA,NA,NA,left,1297.5,true,NA,NA,NA,NA,NA
7O9rHPVY,322zsn9z6jxccjxbpgrk4cn83gtt4w,3uxuoq9okia63uefcg3c13di8co7au,7O9rHPVY,2020-0188,2021-10-15,18:15:34,19:52:35,NA,incomplete,true,true,NA,0,19,NA,orange,m_l_003.jpg,NA,NA,unpleasant,pleasant,NA,NA,NA,NA,NA,right,1310.89999999851,true,NA,NA,NA,NA,NA
7O9rHPVY,322zsn9z6jxccjxbpgrk4cn83gtt4w,3uxuoq9okia63uefcg3c13di8co7au,7O9rHPVY,2020-0188,2021-10-15,18:15:34,19:52:35,NA,incomplete,true,true,NA,0,20,NA,orange,m_s_030.jpg,NA,NA,unpleasant,pleasant,NA,NA,NA,NA,NA,right,1290.70000000298,true,NA,NA,NA,NA,NA
7O9rHPVY,322zsn9z6jxccjxbpgrk4cn83gtt4w,3uxuoq9okia63uefcg3c13di8co7au,7O9rHPVY,2020-0188,2021-10-15,18:15:34,19:52:35,NA,incomplete,true,true,NA,0,21,NA,orange,m_l_111.jpg,NA,NA,unpleasant,pleasant,NA,NA,NA,NA,NA,right,1326.80000000447,true,NA,NA,NA,NA,NA
7O9rHPVY,322zsn9z6jxccjxbpgrk4cn83gtt4w,3uxuoq9okia63uefcg3c13di8co7au,7O9rHPVY,2020-0188,2021-10-15,18:15:34,19:52:35,NA,incomplete,true,true,NA,0,22,NA,orange,m_l_112.jpg,NA,NA,pleasant,unpleasant,NA,NA,NA,NA,NA,right,1820,true,NA,NA,NA,NA,NA
7O9rHPVY,322zsn9z6jxccjxbpgrk4cn83gtt4w,3uxuoq9okia63uefcg3c13di8co7au,7O9rHPVY,2020-0188,2021-10-15,18:15:34,19:52:35,NA,incomplete,true,true,NA,0,23,NA,orange,n_s_049.jpg,NA,NA,pleasant,unpleasant,NA,NA,NA,NA,NA,right,1727.29999999702,true,NA,NA,NA,NA,NA
7O9rHPVY,322zsn9z6jxccjxbpgrk4cn83gtt4w,3uxuoq9okia63uefcg3c13di8co7au,7O9rHPVY,2020-0188,2021-10-15,18:15:34,19:52:35,NA,incomplete,true,true,NA,0,24,NA,red,m_s_069.jpg,NA,NA,pleasant,unpleasant,NA,NA,NA,NA,NA,left,1708,true,NA,NA,NA,NA,NA
7O9rHPVY,322zsn9z6jxccjxbpgrk4cn83gtt4w,3uxuoq9okia63uefcg3c13di8co7au,7O9rHPVY,2020-0188,2021-10-15,18:15:34,19:52:35,NA,incomplete,true,true,NA,0,25,NA,red,n_s_069.jpg,NA,NA,unpleasant,pleasant,NA,NA,NA,NA,NA,right,1360.69999999553,true,NA,NA,NA,NA,NA
7O9rHPVY,322zsn9z6jxccjxbpgrk4cn83gtt4w,3uxuoq9okia63uefcg3c13di8co7au,7O9rHPVY,2020-0188,2021-10-15,18:15:34,19:52:35,NA,incomplete,true,true,NA,0,26,NA,red,m_s_114.jpg,NA,NA,unpleasant,pleasant,NA,NA,NA,NA,NA,right,2516.79999999702,true,NA,NA,NA,NA,NA
7O9rHPVY,322zsn9z6jxccjxbpgrk4cn83gtt4w,3uxuoq9okia63uefcg3c13di8co7au,7O9rHPVY,2020-0188,2021-10-15,18:15:34,19:52:35,NA,incomplete,true,true,NA,0,27,NA,red,m_l_038.jpg,NA,NA,unpleasant,pleasant,NA,NA,NA,NA,NA,left,1449.10000000149,true,NA,NA,NA,NA,NA
7O9rHPVY,322zsn9z6jxccjxbpgrk4cn83gtt4w,3uxuoq9okia63uefcg3c13di8co7au,7O9rHPVY,2020-0188,2021-10-15,18:15:34,19:52:35,NA,incomplete,true,true,NA,0,28,NA,red,n_l_108.jpg,NA,NA,pleasant,unpleasant,NA,NA,NA,NA,NA,left,1958.59999999404,true,NA,NA,NA,NA,NA
7O9rHPVY,322zsn9z6jxccjxbpgrk4cn83gtt4w,3uxuoq9okia63uefcg3c13di8co7au,7O9rHPVY,2020-0188,2021-10-15,18:15:34,19:52:35,NA,incomplete,true,true,NA,0,29,NA,red,m_l_055.jpg,NA,NA,unpleasant,pleasant,NA,NA,NA,NA,NA,right,1578.5,true,NA,NA,NA,NA,NA
7O9rHPVY,322zsn9z6jxccjxbpgrk4cn83gtt4w,3uxuoq9okia63uefcg3c13di8co7au,7O9rHPVY,2020-0188,2021-10-15,18:15:34,19:52:35,NA,incomplete,true,true,NA,0,30,NA,gray,m_l_115.jpg,NA,NA,unpleasant,pleasant,NA,NA,NA,NA,NA,right,1311.10000000149,true,NA,NA,NA,NA,NA
7O9rHPVY,322zsn9z6jxccjxbpgrk4cn83gtt4w,3uxuoq9okia63uefcg3c13di8co7au,7O9rHPVY,2020-0188,2021-10-15,18:15:34,19:52:35,NA,incomplete,true,true,NA,0,31,NA,gray,n_s_109.jpg,NA,NA,pleasant,unpleasant,NA,NA,NA,NA,NA,right,3124.5,true,NA,NA,NA,NA,NA
7O9rHPVY,322zsn9z6jxccjxbpgrk4cn83gtt4w,3uxuoq9okia63uefcg3c13di8co7au,7O9rHPVY,2020-0188,2021-10-15,18:15:34,19:52:35,NA,incomplete,true,true,NA,0,32,NA,gray,n_l_003.jpg,NA,NA,pleasant,unpleasant,NA,NA,NA,NA,NA,left,1039.5,true,NA,NA,NA,NA,NA
7O9rHPVY,322zsn9z6jxccjxbpgrk4cn83gtt4w,3uxuoq9okia63uefcg3c13di8co7au,7O9rHPVY,2020-0188,2021-10-15,18:15:34,19:52:35,NA,incomplete,true,true,NA,0,33,NA,gray,m_l_009.jpg,NA,NA,pleasant,unpleasant,NA,NA,NA,NA,NA,left,1099.70000000298,true,NA,NA,NA,NA,NA
7O9rHPVY,322zsn9z6jxccjxbpgrk4cn83gtt4w,3uxuoq9okia63uefcg3c13di8co7au,7O9rHPVY,2020-0188,2021-10-15,18:15:34,19:52:35,NA,incomplete,true,true,NA,0,34,NA,gray,n_s_024.jpg,NA,NA,pleasant,unpleasant,NA,NA,NA,NA,NA,right,1505.09999999404,true,NA,NA,NA,NA,NA
7O9rHPVY,322zsn9z6jxccjxbpgrk4cn83gtt4w,3uxuoq9okia63uefcg3c13di8co7au,7O9rHPVY,2020-0188,2021-10-15,18:15:34,19:52:35,NA,incomplete,true,true,NA,0,35,NA,gray,n_l_080.jpg,NA,NA,unpleasant,pleasant,NA,NA,NA,NA,NA,right,1268.20000000298,true,NA,NA,NA,NA,NA
7O9rHPVY,322zsn9z6jxccjxbpgrk4cn83gtt4w,3uxuoq9okia63uefcg3c13di8co7au,7O9rHPVY,2020-0188,2021-10-15,18:15:34,19:52:35,NA,incomplete,true,NA,true,0,0,NA,NA,NA,right,present,NA,NA,n_s_049.jpg,orange,m_l_003.jpg,orange,within,NA,NaN,NA,right,6787.0999999940395,1,2,5125
7O9rHPVY,322zsn9z6jxccjxbpgrk4cn83gtt4w,3uxuoq9okia63uefcg3c13di8co7au,7O9rHPVY,2020-0188,2021-10-15,18:15:34,19:52:35,NA,incomplete,true,NA,true,0,1,NA,NA,NA,left,absent,NA,NA,n_l_062.jpg,brown,m_s_100.jpg,brown,within,NA,NaN,NA,left,4080.5,1,1,1172.2999999970198
7O9rHPVY,322zsn9z6jxccjxbpgrk4cn83gtt4w,3uxuoq9okia63uefcg3c13di8co7au,7O9rHPVY,2020-0188,2021-10-15,18:15:34,19:52:35,NA,incomplete,true,NA,true,0,2,NA,NA,NA,right,present,NA,NA,m_s_114.jpg,red,m_l_112.jpg,orange,between,NA,NaN,NA,left,3703.3000000044703,0,2,2746.5
7O9rHPVY,322zsn9z6jxccjxbpgrk4cn83gtt4w,3uxuoq9okia63uefcg3c13di8co7au,7O9rHPVY,2020-0188,2021-10-15,18:15:34,19:52:35,NA,incomplete,true,NA,true,0,3,NA,NA,NA,left,absent,NA,NA,n_s_109.jpg,gray,n_l_080.jpg,gray,within,NA,NaN,NA,right,7195.19999999553,0,1,2739.39999999851
7O9rHPVY,322zsn9z6jxccjxbpgrk4cn83gtt4w,3uxuoq9okia63uefcg3c13di8co7au,7O9rHPVY,2020-0188,2021-10-15,18:15:34,19:52:35,NA,incomplete,true,NA,true,0,4,NA,NA,NA,right,absent,NA,NA,m_s_030.jpg,orange,n_l_107.jpg,blue,between,NA,NaN,NA,left,3400.5,0,2,2077.39999999851
7O9rHPVY,322zsn9z6jxccjxbpgrk4cn83gtt4w,3uxuoq9okia63uefcg3c13di8co7au,7O9rHPVY,2020-0188,2021-10-15,18:15:34,19:52:35,NA,incomplete,true,NA,true,0,5,NA,NA,NA,right,absent,NA,NA,m_s_066.jpg,brown,m_s_025.jpg,purple,between,NA,NaN,NA,left,6748.39999999851,0,2,2433.89999999851
7O9rHPVY,322zsn9z6jxccjxbpgrk4cn83gtt4w,3uxuoq9okia63uefcg3c13di8co7au,7O9rHPVY,2020-0188,2021-10-15,18:15:34,19:52:35,NA,incomplete,true,NA,true,0,6,NA,NA,NA,right,present,NA,NA,m_l_055.jpg,red,n_s_069.jpg,red,within,NA,NaN,NA,right,4395.20000000298,1,2,2371.2999999970198
7O9rHPVY,322zsn9z6jxccjxbpgrk4cn83gtt4w,3uxuoq9okia63uefcg3c13di8co7au,7O9rHPVY,2020-0188,2021-10-15,18:15:34,19:52:35,NA,incomplete,true,NA,true,0,7,NA,NA,NA,right,absent,NA,NA,m_s_107.jpg,blue,m_l_021.jpg,brown,between,NA,NaN,NA,right,2718.39999999851,1,1,1617.6000000014901
7O9rHPVY,322zsn9z6jxccjxbpgrk4cn83gtt4w,3uxuoq9okia63uefcg3c13di8co7au,7O9rHPVY,2020-0188,2021-10-15,18:15:34,19:52:35,NA,incomplete,true,NA,true,0,8,NA,NA,NA,right,absent,NA,NA,m_s_021.jpg,purple,m_s_111.jpg,purple,within,NA,NaN,NA,right,3645.7000000029802,1,0,2708.5
7O9rHPVY,322zsn9z6jxccjxbpgrk4cn83gtt4w,3uxuoq9okia63uefcg3c13di8co7au,7O9rHPVY,2020-0188,2021-10-15,18:15:34,19:52:35,NA,incomplete,true,NA,true,0,9,NA,NA,NA,left,absent,NA,NA,n_l_108.jpg,red,n_l_003.jpg,gray,between,NA,NaN,NA,left,5934.19999999553,1,3,1562.5
7O9rHPVY,322zsn9z6jxccjxbpgrk4cn83gtt4w,3uxuoq9okia63uefcg3c13di8co7au,7O9rHPVY,2020-0188,2021-10-15,18:15:34,19:52:35,NA,incomplete,true,NA,true,0,10,NA,NA,NA,left,absent,NA,NA,n_l_056.jpg,blue,m_l_095.jpg,blue,within,NA,NaN,NA,left,5446.39999999851,1,2,2432.1999999955297
7O9rHPVY,322zsn9z6jxccjxbpgrk4cn83gtt4w,3uxuoq9okia63uefcg3c13di8co7au,7O9rHPVY,2020-0188,2021-10-15,18:15:34,19:52:35,NA,incomplete,false,true,NA,1,0,NA,purple,n_l_116.jpg,NA,NA,unpleasant,pleasant,NA,NA,NA,NA,NA,none,0,false,NA,NA,NA,NA,NA
7O9rHPVY,322zsn9z6jxccjxbpgrk4cn83gtt4w,3uxuoq9okia63uefcg3c13di8co7au,7O9rHPVY,2020-0188,2021-10-15,18:15:34,19:52:35,NA,incomplete,false,true,NA,1,1,NA,purple,n_s_097.jpg,NA,NA,unpleasant,pleasant,NA,NA,NA,NA,NA,left,3485.69999999553,true,NA,NA,NA,NA,NA
7O9rHPVY,322zsn9z6jxccjxbpgrk4cn83gtt4w,3uxuoq9okia63uefcg3c13di8co7au,7O9rHPVY,2020-0188,2021-10-15,18:15:34,19:52:35,NA,incomplete,false,true,NA,1,2,NA,purple,n_l_008.jpg,NA,NA,unpleasant,pleasant,NA,NA,NA,NA,NA,left,1442.30000000447,true,NA,NA,NA,NA,NA
7O9rHPVY,322zsn9z6jxccjxbpgrk4cn83gtt4w,3uxuoq9okia63uefcg3c13di8co7au,7O9rHPVY,2020-0188,2021-10-15,18:15:34,19:52:35,NA,incomplete,false,true,NA,1,3,NA,purple,m_l_044.jpg,NA,NA,pleasant,unpleasant,NA,NA,NA,NA,NA,left,2006.5,true,NA,NA,NA,NA,NA
7O9rHPVY,322zsn9z6jxccjxbpgrk4cn83gtt4w,3uxuoq9okia63uefcg3c13di8co7au,7O9rHPVY,2020-0188,2021-10-15,18:15:34,19:52:35,NA,incomplete,false,true,NA,1,4,NA,purple,m_s_050.jpg,NA,NA,unpleasant,pleasant,NA,NA,NA,NA,NA,right,1202.60000000149,true,NA,NA,NA,NA,NA
7O9rHPVY,322zsn9z6jxccjxbpgrk4cn83gtt4w,3uxuoq9okia63uefcg3c13di8co7au,7O9rHPVY,2020-0188,2021-10-15,18:15:34,19:52:35,NA,incomplete,false,true,NA,1,5,NA,purple,n_s_005.jpg,NA,NA,pleasant,unpleasant,NA,NA,NA,NA,NA,left,1463.29999999702,true,NA,NA,NA,NA,NA
7O9rHPVY,322zsn9z6jxccjxbpgrk4cn83gtt4w,3uxuoq9okia63uefcg3c13di8co7au,7O9rHPVY,2020-0188,2021-10-15,18:15:34,19:52:35,NA,incomplete,false,true,NA,1,6,NA,blue,n_s_066.jpg,NA,NA,unpleasant,pleasant,NA,NA,NA,NA,NA,right,1555.20000000298,true,NA,NA,NA,NA,NA
7O9rHPVY,322zsn9z6jxccjxbpgrk4cn83gtt4w,3uxuoq9okia63uefcg3c13di8co7au,7O9rHPVY,2020-0188,2021-10-15,18:15:34,19:52:35,NA,incomplete,false,true,NA,1,7,NA,blue,n_l_090.jpg,NA,NA,pleasant,unpleasant,NA,NA,NA,NA,NA,left,1399.20000000298,true,NA,NA,NA,NA,NA
7O9rHPVY,322zsn9z6jxccjxbpgrk4cn83gtt4w,3uxuoq9okia63uefcg3c13di8co7au,7O9rHPVY,2020-0188,2021-10-15,18:15:34,19:52:35,NA,incomplete,false,true,NA,1,8,NA,blue,n_l_027.jpg,NA,NA,unpleasant,pleasant,NA,NA,NA,NA,NA,right,1363.39999999851,true,NA,NA,NA,NA,NA
7O9rHPVY,322zsn9z6jxccjxbpgrk4cn83gtt4w,3uxuoq9okia63uefcg3c13di8co7au,7O9rHPVY,2020-0188,2021-10-15,18:15:34,19:52:35,NA,incomplete,false,true,NA,1,9,NA,blue,n_s_017.jpg,NA,NA,pleasant,unpleasant,NA,NA,NA,NA,NA,right,2080.5,true,NA,NA,NA,NA,NA
7O9rHPVY,322zsn9z6jxccjxbpgrk4cn83gtt4w,3uxuoq9okia63uefcg3c13di8co7au,7O9rHPVY,2020-0188,2021-10-15,18:15:34,19:52:35,NA,incomplete,false,true,NA,1,10,NA,blue,n_l_063.jpg,NA,NA,pleasant,unpleasant,NA,NA,NA,NA,NA,right,2093.69999999553,true,NA,NA,NA,NA,NA
7O9rHPVY,322zsn9z6jxccjxbpgrk4cn83gtt4w,3uxuoq9okia63uefcg3c13di8co7au,7O9rHPVY,2020-0188,2021-10-15,18:15:34,19:52:35,NA,incomplete,false,true,NA,1,11,NA,blue,n_l_070.jpg,NA,NA,pleasant,unpleasant,NA,NA,NA,NA,NA,left,1553.60000000149,true,NA,NA,NA,NA,NA
7O9rHPVY,322zsn9z6jxccjxbpgrk4cn83gtt4w,3uxuoq9okia63uefcg3c13di8co7au,7O9rHPVY,2020-0188,2021-10-15,18:15:34,19:52:35,NA,incomplete,false,true,NA,1,12,NA,orange,m_s_040.jpg,NA,NA,unpleasant,pleasant,NA,NA,NA,NA,NA,right,1805.70000000298,true,NA,NA,NA,NA,NA
7O9rHPVY,322zsn9z6jxccjxbpgrk4cn83gtt4w,3uxuoq9okia63uefcg3c13di8co7au,7O9rHPVY,2020-0188,2021-10-15,18:15:34,19:52:35,NA,incomplete,false,true,NA,1,13,NA,orange,n_s_116.jpg,NA,NA,pleasant,unpleasant,NA,NA,NA,NA,NA,right,1682.29999999702,true,NA,NA,NA,NA,NA
7O9rHPVY,322zsn9z6jxccjxbpgrk4cn83gtt4w,3uxuoq9okia63uefcg3c13di8co7au,7O9rHPVY,2020-0188,2021-10-15,18:15:34,19:52:35,NA,incomplete,false,true,NA,1,14,NA,orange,m_l_059.jpg,NA,NA,unpleasant,pleasant,NA,NA,NA,NA,NA,left,3078.30000000447,true,NA,NA,NA,NA,NA
7O9rHPVY,322zsn9z6jxccjxbpgrk4cn83gtt4w,3uxuoq9okia63uefcg3c13di8co7au,7O9rHPVY,2020-0188,2021-10-15,18:15:34,19:52:35,NA,incomplete,false,true,NA,1,15,NA,orange,n_s_023.jpg,NA,NA,pleasant,unpleasant,NA,NA,NA,NA,NA,left,1714.80000000447,true,NA,NA,NA,NA,NA
7O9rHPVY,322zsn9z6jxccjxbpgrk4cn83gtt4w,3uxuoq9okia63uefcg3c13di8co7au,7O9rHPVY,2020-0188,2021-10-15,18:15:34,19:52:35,NA,incomplete,false,true,NA,1,16,NA,orange,n_l_100.jpg,NA,NA,unpleasant,pleasant,NA,NA,NA,NA,NA,left,2056.29999999702,true,NA,NA,NA,NA,NA
7O9rHPVY,322zsn9z6jxccjxbpgrk4cn83gtt4w,3uxuoq9okia63uefcg3c13di8co7au,7O9rHPVY,2020-0188,2021-10-15,18:15:34,19:52:35,NA,incomplete,false,true,NA,1,17,NA,orange,n_s_040.jpg,NA,NA,unpleasant,pleasant,NA,NA,NA,NA,NA,left,1491.5,true,NA,NA,NA,NA,NA
7O9rHPVY,322zsn9z6jxccjxbpgrk4cn83gtt4w,3uxuoq9okia63uefcg3c13di8co7au,7O9rHPVY,2020-0188,2021-10-15,18:15:34,19:52:35,NA,incomplete,false,true,NA,1,18,NA,green,m_s_027.jpg,NA,NA,pleasant,unpleasant,NA,NA,NA,NA,NA,right,2607.60000000149,true,NA,NA,NA,NA,NA
7O9rHPVY,322zsn9z6jxccjxbpgrk4cn83gtt4w,3uxuoq9okia63uefcg3c13di8co7au,7O9rHPVY,2020-0188,2021-10-15,18:15:34,19:52:35,NA,incomplete,false,true,NA,1,19,NA,green,n_s_045.jpg,NA,NA,unpleasant,pleasant,NA,NA,NA,NA,NA,right,1323.89999999851,true,NA,NA,NA,NA,NA
7O9rHPVY,322zsn9z6jxccjxbpgrk4cn83gtt4w,3uxuoq9okia63uefcg3c13di8co7au,7O9rHPVY,2020-0188,2021-10-15,18:15:34,19:52:35,NA,incomplete,false,true,NA,1,20,NA,green,n_l_019.jpg,NA,NA,pleasant,unpleasant,NA,NA,NA,NA,NA,right,1503.39999999851,true,NA,NA,NA,NA,NA
7O9rHPVY,322zsn9z6jxccjxbpgrk4cn83gtt4w,3uxuoq9okia63uefcg3c13di8co7au,7O9rHPVY,2020-0188,2021-10-15,18:15:34,19:52:35,NA,incomplete,false,true,NA,1,21,NA,green,m_l_017.jpg,NA,NA,unpleasant,pleasant,NA,NA,NA,NA,NA,right,1451.20000000298,true,NA,NA,NA,NA,NA
7O9rHPVY,322zsn9z6jxccjxbpgrk4cn83gtt4w,3uxuoq9okia63uefcg3c13di8co7au,7O9rHPVY,2020-0188,2021-10-15,18:15:34,19:52:35,NA,incomplete,false,true,NA,1,22,NA,green,n_l_068.jpg,NA,NA,pleasant,unpleasant,NA,NA,NA,NA,NA,left,1416.09999999404,true,NA,NA,NA,NA,NA
7O9rHPVY,322zsn9z6jxccjxbpgrk4cn83gtt4w,3uxuoq9okia63uefcg3c13di8co7au,7O9rHPVY,2020-0188,2021-10-15,18:15:34,19:52:35,NA,incomplete,false,true,NA,1,23,NA,green,n_s_008.jpg,NA,NA,unpleasant,pleasant,NA,NA,NA,NA,NA,left,1756.10000000149,true,NA,NA,NA,NA,NA
7O9rHPVY,322zsn9z6jxccjxbpgrk4cn83gtt4w,3uxuoq9okia63uefcg3c13di8co7au,7O9rHPVY,2020-0188,2021-10-15,18:15:34,19:52:35,NA,incomplete,false,true,NA,1,24,NA,gray,n_l_053.jpg,NA,NA,unpleasant,pleasant,NA,NA,NA,NA,NA,left,1640,true,NA,NA,NA,NA,NA
7O9rHPVY,322zsn9z6jxccjxbpgrk4cn83gtt4w,3uxuoq9okia63uefcg3c13di8co7au,7O9rHPVY,2020-0188,2021-10-15,18:15:34,19:52:35,NA,incomplete,false,true,NA,1,25,NA,gray,m_s_004.jpg,NA,NA,pleasant,unpleasant,NA,NA,NA,NA,NA,left,1852.59999999404,true,NA,NA,NA,NA,NA
7O9rHPVY,322zsn9z6jxccjxbpgrk4cn83gtt4w,3uxuoq9okia63uefcg3c13di8co7au,7O9rHPVY,2020-0188,2021-10-15,18:15:34,19:52:35,NA,incomplete,false,true,NA,1,26,NA,gray,m_l_033.jpg,NA,NA,pleasant,unpleasant,NA,NA,NA,NA,NA,none,0,false,NA,NA,NA,NA,NA
7O9rHPVY,322zsn9z6jxccjxbpgrk4cn83gtt4w,3uxuoq9okia63uefcg3c13di8co7au,7O9rHPVY,2020-0188,2021-10-15,18:15:34,19:52:35,NA,incomplete,false,true,NA,1,27,NA,gray,m_l_114.jpg,NA,NA,unpleasant,pleasant,NA,NA,NA,NA,NA,right,1363.40000000596,true,NA,NA,NA,NA,NA
7O9rHPVY,322zsn9z6jxccjxbpgrk4cn83gtt4w,3uxuoq9okia63uefcg3c13di8co7au,7O9rHPVY,2020-0188,2021-10-15,18:15:34,19:52:35,NA,incomplete,false,true,NA,1,28,NA,gray,m_l_090.jpg,NA,NA,unpleasant,pleasant,NA,NA,NA,NA,NA,right,1561.09999999404,true,NA,NA,NA,NA,NA
7O9rHPVY,322zsn9z6jxccjxbpgrk4cn83gtt4w,3uxuoq9okia63uefcg3c13di8co7au,7O9rHPVY,2020-0188,2021-10-15,18:15:34,19:52:35,NA,incomplete,false,true,NA,1,29,NA,gray,n_l_043.jpg,NA,NA,pleasant,unpleasant,NA,NA,NA,NA,NA,right,1389.20000000298,true,NA,NA,NA,NA,NA
7O9rHPVY,322zsn9z6jxccjxbpgrk4cn83gtt4w,3uxuoq9okia63uefcg3c13di8co7au,7O9rHPVY,2020-0188,2021-10-15,18:15:34,19:52:35,NA,incomplete,false,true,NA,1,30,NA,white,m_s_028.jpg,NA,NA,unpleasant,pleasant,NA,NA,NA,NA,NA,right,1152.5,true,NA,NA,NA,NA,NA
7O9rHPVY,322zsn9z6jxccjxbpgrk4cn83gtt4w,3uxuoq9okia63uefcg3c13di8co7au,7O9rHPVY,2020-0188,2021-10-15,18:15:34,19:52:35,NA,incomplete,false,true,NA,1,31,NA,white,n_s_113.jpg,NA,NA,pleasant,unpleasant,NA,NA,NA,NA,NA,left,1492.89999999851,true,NA,NA,NA,NA,NA
7O9rHPVY,322zsn9z6jxccjxbpgrk4cn83gtt4w,3uxuoq9okia63uefcg3c13di8co7au,7O9rHPVY,2020-0188,2021-10-15,18:15:34,19:52:35,NA,incomplete,false,true,NA,1,32,NA,white,m_l_035.jpg,NA,NA,unpleasant,pleasant,NA,NA,NA,NA,NA,right,2297.70000000298,true,NA,NA,NA,NA,NA
7O9rHPVY,322zsn9z6jxccjxbpgrk4cn83gtt4w,3uxuoq9okia63uefcg3c13di8co7au,7O9rHPVY,2020-0188,2021-10-15,18:15:34,19:52:35,NA,incomplete,false,true,NA,1,33,NA,white,m_l_070.jpg,NA,NA,unpleasant,pleasant,NA,NA,NA,NA,NA,right,1242.19999999553,true,NA,NA,NA,NA,NA
7O9rHPVY,322zsn9z6jxccjxbpgrk4cn83gtt4w,3uxuoq9okia63uefcg3c13di8co7au,7O9rHPVY,2020-0188,2021-10-15,18:15:34,19:52:35,NA,incomplete,false,true,NA,1,34,NA,white,m_l_069.jpg,NA,NA,unpleasant,pleasant,NA,NA,NA,NA,NA,left,1659.60000000149,true,NA,NA,NA,NA,NA
7O9rHPVY,322zsn9z6jxccjxbpgrk4cn83gtt4w,3uxuoq9okia63uefcg3c13di8co7au,7O9rHPVY,2020-0188,2021-10-15,18:15:34,19:52:35,NA,incomplete,false,true,NA,1,35,NA,white,n_s_031.jpg,NA,NA,pleasant,unpleasant,NA,NA,NA,NA,NA,right,1911.70000000298,true,NA,NA,NA,NA,NA
7O9rHPVY,322zsn9z6jxccjxbpgrk4cn83gtt4w,3uxuoq9okia63uefcg3c13di8co7au,7O9rHPVY,2020-0188,2021-10-15,18:15:34,19:52:35,NA,incomplete,false,NA,true,1,0,NA,NA,NA,right,present,NA,NA,m_l_059.jpg,orange,n_l_063.jpg,blue,between,NA,NaN,NA,left,3066.2000000029802,0,2,1657
7O9rHPVY,322zsn9z6jxccjxbpgrk4cn83gtt4w,3uxuoq9okia63uefcg3c13di8co7au,7O9rHPVY,2020-0188,2021-10-15,18:15:34,19:52:35,NA,incomplete,false,NA,true,1,1,NA,NA,NA,right,present,NA,NA,m_l_033.jpg,gray,n_l_068.jpg,green,between,NA,NaN,NA,right,5176.30000000447,1,2,2974
7O9rHPVY,322zsn9z6jxccjxbpgrk4cn83gtt4w,3uxuoq9okia63uefcg3c13di8co7au,7O9rHPVY,2020-0188,2021-10-15,18:15:34,19:52:35,NA,incomplete,false,NA,true,1,2,NA,NA,NA,left,present,NA,NA,n_s_113.jpg,white,n_s_031.jpg,white,within,NA,NaN,NA,right,4677.10000000149,0,1,2666.3000000044703
7O9rHPVY,322zsn9z6jxccjxbpgrk4cn83gtt4w,3uxuoq9okia63uefcg3c13di8co7au,7O9rHPVY,2020-0188,2021-10-15,18:15:34,19:52:35,NA,incomplete,false,NA,true,1,3,NA,NA,NA,left,present,NA,NA,m_l_090.jpg,gray,m_l_035.jpg,white,between,NA,NaN,NA,left,3545.2000000029802,1,2,4149.20000000298
7O9rHPVY,322zsn9z6jxccjxbpgrk4cn83gtt4w,3uxuoq9okia63uefcg3c13di8co7au,7O9rHPVY,2020-0188,2021-10-15,18:15:34,19:52:35,NA,incomplete,false,NA,true,1,4,NA,NA,NA,right,present,NA,NA,n_s_005.jpg,purple,n_s_097.jpg,purple,within,NA,NaN,NA,left,7922.20000000298,0,2,3624.5999999940395
7O9rHPVY,322zsn9z6jxccjxbpgrk4cn83gtt4w,3uxuoq9okia63uefcg3c13di8co7au,7O9rHPVY,2020-0188,2021-10-15,18:15:34,19:52:35,NA,incomplete,false,NA,true,1,5,NA,NA,NA,right,present,NA,NA,n_s_040.jpg,orange,n_s_116.jpg,orange,within,NA,NaN,NA,left,4064.2999999970198,0,2,3117
7O9rHPVY,322zsn9z6jxccjxbpgrk4cn83gtt4w,3uxuoq9okia63uefcg3c13di8co7au,7O9rHPVY,2020-0188,2021-10-15,18:15:34,19:52:35,NA,incomplete,false,NA,true,1,6,NA,NA,NA,right,present,NA,NA,n_l_043.jpg,gray,m_s_004.jpg,gray,within,NA,NaN,NA,right,2550.39999999851,1,2,1864.2000000029802
7O9rHPVY,322zsn9z6jxccjxbpgrk4cn83gtt4w,3uxuoq9okia63uefcg3c13di8co7au,7O9rHPVY,2020-0188,2021-10-15,18:15:34,19:52:35,NA,incomplete,false,NA,true,1,7,NA,NA,NA,left,present,NA,NA,n_l_090.jpg,blue,n_l_070.jpg,blue,within,NA,NaN,NA,left,4508.19999999553,1,2,2953.2999999970198
7O9rHPVY,322zsn9z6jxccjxbpgrk4cn83gtt4w,3uxuoq9okia63uefcg3c13di8co7au,7O9rHPVY,2020-0188,2021-10-15,18:15:34,19:52:35,NA,incomplete,false,NA,true,1,8,NA,NA,NA,left,present,NA,NA,n_s_045.jpg,green,n_s_008.jpg,green,within,NA,NaN,NA,left,3319.39999999851,1,1,2295.1999999955297
7O9rHPVY,322zsn9z6jxccjxbpgrk4cn83gtt4w,3uxuoq9okia63uefcg3c13di8co7au,7O9rHPVY,2020-0188,2021-10-15,18:15:34,19:52:35,NA,incomplete,false,NA,true,1,9,NA,NA,NA,right,present,NA,NA,n_l_019.jpg,green,n_l_100.jpg,orange,between,NA,NaN,NA,left,9780.19999999553,0,2,3006.2999999970198
7O9rHPVY,322zsn9z6jxccjxbpgrk4cn83gtt4w,3uxuoq9okia63uefcg3c13di8co7au,7O9rHPVY,2020-0188,2021-10-15,18:15:34,19:52:35,NA,incomplete,false,NA,true,1,10,NA,NA,NA,left,present,NA,NA,m_s_050.jpg,purple,n_l_027.jpg,blue,between,NA,NaN,NA,left,3086.2999999970198,1,2,3984.2999999970198
7O9rHPVY,322zsn9z6jxccjxbpgrk4cn83gtt4w,3uxuoq9okia63uefcg3c13di8co7au,7O9rHPVY,2020-0188,2021-10-15,18:15:34,19:52:35,NA,incomplete,false,true,NA,2,0,NA,black,n_l_016.jpg,NA,NA,unpleasant,pleasant,NA,NA,NA,NA,NA,left,3176,true,NA,NA,NA,NA,NA
7O9rHPVY,322zsn9z6jxccjxbpgrk4cn83gtt4w,3uxuoq9okia63uefcg3c13di8co7au,7O9rHPVY,2020-0188,2021-10-15,18:15:34,19:52:35,NA,incomplete,false,true,NA,2,1,NA,black,n_l_032.jpg,NA,NA,pleasant,unpleasant,NA,NA,NA,NA,NA,left,1364.39999999851,true,NA,NA,NA,NA,NA
7O9rHPVY,322zsn9z6jxccjxbpgrk4cn83gtt4w,3uxuoq9okia63uefcg3c13di8co7au,7O9rHPVY,2020-0188,2021-10-15,18:15:34,19:52:35,NA,incomplete,false,true,NA,2,2,NA,black,n_l_020.jpg,NA,NA,pleasant,unpleasant,NA,NA,NA,NA,NA,left,1834.10000000149,true,NA,NA,NA,NA,NA
7O9rHPVY,322zsn9z6jxccjxbpgrk4cn83gtt4w,3uxuoq9okia63uefcg3c13di8co7au,7O9rHPVY,2020-0188,2021-10-15,18:15:34,19:52:35,NA,incomplete,false,true,NA,2,3,NA,black,n_l_014.jpg,NA,NA,unpleasant,pleasant,NA,NA,NA,NA,NA,right,1421.39999999851,true,NA,NA,NA,NA,NA
7O9rHPVY,322zsn9z6jxccjxbpgrk4cn83gtt4w,3uxuoq9okia63uefcg3c13di8co7au,7O9rHPVY,2020-0188,2021-10-15,18:15:34,19:52:35,NA,incomplete,false,true,NA,2,4,NA,black,m_s_044.jpg,NA,NA,pleasant,unpleasant,NA,NA,NA,NA,NA,left,1489.30000000447,true,NA,NA,NA,NA,NA
7O9rHPVY,322zsn9z6jxccjxbpgrk4cn83gtt4w,3uxuoq9okia63uefcg3c13di8co7au,7O9rHPVY,2020-0188,2021-10-15,18:15:34,19:52:35,NA,incomplete,false,true,NA,2,5,NA,black,m_s_109.jpg,NA,NA,pleasant,unpleasant,NA,NA,NA,NA,NA,left,1205.89999999851,true,NA,NA,NA,NA,NA
7O9rHPVY,322zsn9z6jxccjxbpgrk4cn83gtt4w,3uxuoq9okia63uefcg3c13di8co7au,7O9rHPVY,2020-0188,2021-10-15,18:15:34,19:52:35,NA,incomplete,false,true,NA,2,6,NA,purple,n_s_079.jpg,NA,NA,unpleasant,pleasant,NA,NA,NA,NA,NA,left,1905.20000000298,true,NA,NA,NA,NA,NA
7O9rHPVY,322zsn9z6jxccjxbpgrk4cn83gtt4w,3uxuoq9okia63uefcg3c13di8co7au,7O9rHPVY,2020-0188,2021-10-15,18:15:34,19:52:35,NA,incomplete,false,true,NA,2,7,NA,purple,n_l_115.jpg,NA,NA,pleasant,unpleasant,NA,NA,NA,NA,NA,left,1796.29999999702,true,NA,NA,NA,NA,NA
7O9rHPVY,322zsn9z6jxccjxbpgrk4cn83gtt4w,3uxuoq9okia63uefcg3c13di8co7au,7O9rHPVY,2020-0188,2021-10-15,18:15:34,19:52:35,NA,incomplete,false,true,NA,2,8,NA,purple,n_l_097.jpg,NA,NA,pleasant,unpleasant,NA,NA,NA,NA,NA,left,1802.70000000298,true,NA,NA,NA,NA,NA
7O9rHPVY,322zsn9z6jxccjxbpgrk4cn83gtt4w,3uxuoq9okia63uefcg3c13di8co7au,7O9rHPVY,2020-0188,2021-10-15,18:15:34,19:52:35,NA,incomplete,false,true,NA,2,9,NA,purple,n_s_104.jpg,NA,NA,unpleasant,pleasant,NA,NA,NA,NA,NA,right,1325.79999999702,true,NA,NA,NA,NA,NA
7O9rHPVY,322zsn9z6jxccjxbpgrk4cn83gtt4w,3uxuoq9okia63uefcg3c13di8co7au,7O9rHPVY,2020-0188,2021-10-15,18:15:34,19:52:35,NA,incomplete,false,true,NA,2,10,NA,purple,m_l_089.jpg,NA,NA,pleasant,unpleasant,NA,NA,NA,NA,NA,right,2378.5,true,NA,NA,NA,NA,NA
7O9rHPVY,322zsn9z6jxccjxbpgrk4cn83gtt4w,3uxuoq9okia63uefcg3c13di8co7au,7O9rHPVY,2020-0188,2021-10-15,18:15:34,19:52:35,NA,incomplete,false,true,NA,2,11,NA,purple,n_l_072.jpg,NA,NA,pleasant,unpleasant,NA,NA,NA,NA,NA,right,1783.79999999702,true,NA,NA,NA,NA,NA
7O9rHPVY,322zsn9z6jxccjxbpgrk4cn83gtt4w,3uxuoq9okia63uefcg3c13di8co7au,7O9rHPVY,2020-0188,2021-10-15,18:15:34,19:52:35,NA,incomplete,false,true,NA,2,12,NA,blue,n_l_102.jpg,NA,NA,pleasant,unpleasant,NA,NA,NA,NA,NA,left,1403.60000000149,true,NA,NA,NA,NA,NA
7O9rHPVY,322zsn9z6jxccjxbpgrk4cn83gtt4w,3uxuoq9okia63uefcg3c13di8co7au,7O9rHPVY,2020-0188,2021-10-15,18:15:34,19:52:35,NA,incomplete,false,true,NA,2,13,NA,blue,m_l_110.jpg,NA,NA,pleasant,unpleasant,NA,NA,NA,NA,NA,left,1551.60000000149,true,NA,NA,NA,NA,NA
7O9rHPVY,322zsn9z6jxccjxbpgrk4cn83gtt4w,3uxuoq9okia63uefcg3c13di8co7au,7O9rHPVY,2020-0188,2021-10-15,18:15:34,19:52:35,NA,incomplete,false,true,NA,2,14,NA,blue,n_s_067.jpg,NA,NA,unpleasant,pleasant,NA,NA,NA,NA,NA,right,1332.29999999702,true,NA,NA,NA,NA,NA
7O9rHPVY,322zsn9z6jxccjxbpgrk4cn83gtt4w,3uxuoq9okia63uefcg3c13di8co7au,7O9rHPVY,2020-0188,2021-10-15,18:15:34,19:52:35,NA,incomplete,false,true,NA,2,15,NA,blue,m_l_048.jpg,NA,NA,unpleasant,pleasant,NA,NA,NA,NA,NA,right,1320.30000000447,true,NA,NA,NA,NA,NA
7O9rHPVY,322zsn9z6jxccjxbpgrk4cn83gtt4w,3uxuoq9okia63uefcg3c13di8co7au,7O9rHPVY,2020-0188,2021-10-15,18:15:34,19:52:35,NA,incomplete,false,true,NA,2,16,NA,blue,m_s_056.jpg,NA,NA,pleasant,unpleasant,NA,NA,NA,NA,NA,left,3277,true,NA,NA,NA,NA,NA
7O9rHPVY,322zsn9z6jxccjxbpgrk4cn83gtt4w,3uxuoq9okia63uefcg3c13di8co7au,7O9rHPVY,2020-0188,2021-10-15,18:15:34,19:52:35,NA,incomplete,false,true,NA,2,17,NA,blue,n_s_022.jpg,NA,NA,pleasant,unpleasant,NA,NA,NA,NA,NA,left,1664.69999999553,true,NA,NA,NA,NA,NA
7O9rHPVY,322zsn9z6jxccjxbpgrk4cn83gtt4w,3uxuoq9okia63uefcg3c13di8co7au,7O9rHPVY,2020-0188,2021-10-15,18:15:34,19:52:35,NA,incomplete,false,true,NA,2,18,NA,gray,m_s_002.jpg,NA,NA,pleasant,unpleasant,NA,NA,NA,NA,NA,left,1701.39999999851,true,NA,NA,NA,NA,NA
7O9rHPVY,322zsn9z6jxccjxbpgrk4cn83gtt4w,3uxuoq9okia63uefcg3c13di8co7au,7O9rHPVY,2020-0188,2021-10-15,18:15:34,19:52:35,NA,incomplete,false,true,NA,2,19,NA,gray,n_s_030.jpg,NA,NA,unpleasant,pleasant,NA,NA,NA,NA,NA,right,1330.29999999702,true,NA,NA,NA,NA,NA
7O9rHPVY,322zsn9z6jxccjxbpgrk4cn83gtt4w,3uxuoq9okia63uefcg3c13di8co7au,7O9rHPVY,2020-0188,2021-10-15,18:15:34,19:52:35,NA,incomplete,false,true,NA,2,20,NA,gray,n_l_095.jpg,NA,NA,unpleasant,pleasant,NA,NA,NA,NA,NA,none,0,false,NA,NA,NA,NA,NA
7O9rHPVY,322zsn9z6jxccjxbpgrk4cn83gtt4w,3uxuoq9okia63uefcg3c13di8co7au,7O9rHPVY,2020-0188,2021-10-15,18:15:34,19:52:35,NA,incomplete,false,true,NA,2,21,NA,gray,m_l_020.jpg,NA,NA,pleasant,unpleasant,NA,NA,NA,NA,NA,left,1545.89999999851,true,NA,NA,NA,NA,NA
7O9rHPVY,322zsn9z6jxccjxbpgrk4cn83gtt4w,3uxuoq9okia63uefcg3c13di8co7au,7O9rHPVY,2020-0188,2021-10-15,18:15:34,19:52:35,NA,incomplete,false,true,NA,2,22,NA,gray,n_l_010.jpg,NA,NA,pleasant,unpleasant,NA,NA,NA,NA,NA,left,999.30000000447,true,NA,NA,NA,NA,NA
7O9rHPVY,322zsn9z6jxccjxbpgrk4cn83gtt4w,3uxuoq9okia63uefcg3c13di8co7au,7O9rHPVY,2020-0188,2021-10-15,18:15:34,19:52:35,NA,incomplete,false,true,NA,2,23,NA,gray,n_l_110.jpg,NA,NA,unpleasant,pleasant,NA,NA,NA,NA,NA,right,2258,true,NA,NA,NA,NA,NA
7O9rHPVY,322zsn9z6jxccjxbpgrk4cn83gtt4w,3uxuoq9okia63uefcg3c13di8co7au,7O9rHPVY,2020-0188,2021-10-15,18:15:34,19:52:35,NA,incomplete,false,true,NA,2,24,NA,green,m_l_051.jpg,NA,NA,unpleasant,pleasant,NA,NA,NA,NA,NA,right,1399,true,NA,NA,NA,NA,NA
7O9rHPVY,322zsn9z6jxccjxbpgrk4cn83gtt4w,3uxuoq9okia63uefcg3c13di8co7au,7O9rHPVY,2020-0188,2021-10-15,18:15:34,19:52:35,NA,incomplete,false,true,NA,2,25,NA,green,m_s_076.jpg,NA,NA,unpleasant,pleasant,NA,NA,NA,NA,NA,right,1476.69999999553,true,NA,NA,NA,NA,NA
7O9rHPVY,322zsn9z6jxccjxbpgrk4cn83gtt4w,3uxuoq9okia63uefcg3c13di8co7au,7O9rHPVY,2020-0188,2021-10-15,18:15:34,19:52:35,NA,incomplete,false,true,NA,2,26,NA,green,m_l_004.jpg,NA,NA,pleasant,unpleasant,NA,NA,NA,NA,NA,right,3024.5,true,NA,NA,NA,NA,NA
7O9rHPVY,322zsn9z6jxccjxbpgrk4cn83gtt4w,3uxuoq9okia63uefcg3c13di8co7au,7O9rHPVY,2020-0188,2021-10-15,18:15:34,19:52:35,NA,incomplete,false,true,NA,2,27,NA,green,m_s_097.jpg,NA,NA,pleasant,unpleasant,NA,NA,NA,NA,NA,right,1228.19999999553,true,NA,NA,NA,NA,NA
7O9rHPVY,322zsn9z6jxccjxbpgrk4cn83gtt4w,3uxuoq9okia63uefcg3c13di8co7au,7O9rHPVY,2020-0188,2021-10-15,18:15:34,19:52:35,NA,incomplete,false,true,NA,2,28,NA,green,m_l_113.jpg,NA,NA,unpleasant,pleasant,NA,NA,NA,NA,NA,right,1310,true,NA,NA,NA,NA,NA
7O9rHPVY,322zsn9z6jxccjxbpgrk4cn83gtt4w,3uxuoq9okia63uefcg3c13di8co7au,7O9rHPVY,2020-0188,2021-10-15,18:15:34,19:52:35,NA,incomplete,false,true,NA,2,29,NA,green,m_s_105.jpg,NA,NA,unpleasant,pleasant,NA,NA,NA,NA,NA,right,2997.89999999851,true,NA,NA,NA,NA,NA
7O9rHPVY,322zsn9z6jxccjxbpgrk4cn83gtt4w,3uxuoq9okia63uefcg3c13di8co7au,7O9rHPVY,2020-0188,2021-10-15,18:15:34,19:52:35,NA,incomplete,false,true,NA,2,30,NA,brown,n_l_005.jpg,NA,NA,unpleasant,pleasant,NA,NA,NA,NA,NA,right,962.29999999702,true,NA,NA,NA,NA,NA
7O9rHPVY,322zsn9z6jxccjxbpgrk4cn83gtt4w,3uxuoq9okia63uefcg3c13di8co7au,7O9rHPVY,2020-0188,2021-10-15,18:15:34,19:52:35,NA,incomplete,false,true,NA,2,31,NA,brown,n_s_098.jpg,NA,NA,pleasant,unpleasant,NA,NA,NA,NA,NA,left,1167.70000000298,true,NA,NA,NA,NA,NA
7O9rHPVY,322zsn9z6jxccjxbpgrk4cn83gtt4w,3uxuoq9okia63uefcg3c13di8co7au,7O9rHPVY,2020-0188,2021-10-15,18:15:34,19:52:35,NA,incomplete,false,true,NA,2,32,NA,brown,m_s_003.jpg,NA,NA,unpleasant,pleasant,NA,NA,NA,NA,NA,right,3091.20000000298,true,NA,NA,NA,NA,NA
7O9rHPVY,322zsn9z6jxccjxbpgrk4cn83gtt4w,3uxuoq9okia63uefcg3c13di8co7au,7O9rHPVY,2020-0188,2021-10-15,18:15:34,19:52:35,NA,incomplete,false,true,NA,2,33,NA,brown,n_s_041.jpg,NA,NA,pleasant,unpleasant,NA,NA,NA,NA,NA,right,1895.10000000149,true,NA,NA,NA,NA,NA
7O9rHPVY,322zsn9z6jxccjxbpgrk4cn83gtt4w,3uxuoq9okia63uefcg3c13di8co7au,7O9rHPVY,2020-0188,2021-10-15,18:15:34,19:52:35,NA,incomplete,false,true,NA,2,34,NA,brown,n_s_055.jpg,NA,NA,unpleasant,pleasant,NA,NA,NA,NA,NA,none,0,false,NA,NA,NA,NA,NA
7O9rHPVY,322zsn9z6jxccjxbpgrk4cn83gtt4w,3uxuoq9okia63uefcg3c13di8co7au,7O9rHPVY,2020-0188,2021-10-15,18:15:34,19:52:35,NA,incomplete,false,true,NA,2,35,NA,brown,n_l_050.jpg,NA,NA,pleasant,unpleasant,NA,NA,NA,NA,NA,left,1167.39999999851,true,NA,NA,NA,NA,NA
7O9rHPVY,322zsn9z6jxccjxbpgrk4cn83gtt4w,3uxuoq9okia63uefcg3c13di8co7au,7O9rHPVY,2020-0188,2021-10-15,18:15:34,19:52:35,NA,incomplete,false,NA,true,2,0,NA,NA,NA,left,absent,NA,NA,n_l_010.jpg,gray,m_l_004.jpg,green,between,NA,NaN,NA,right,4423.69999999553,0,2,1864.1000000014901
7O9rHPVY,322zsn9z6jxccjxbpgrk4cn83gtt4w,3uxuoq9okia63uefcg3c13di8co7au,7O9rHPVY,2020-0188,2021-10-15,18:15:34,19:52:35,NA,incomplete,false,NA,true,2,1,NA,NA,NA,left,absent,NA,NA,m_l_089.jpg,purple,n_s_067.jpg,blue,between,NA,NaN,NA,right,3349.2000000029802,0,2,1307.2999999970198
7O9rHPVY,322zsn9z6jxccjxbpgrk4cn83gtt4w,3uxuoq9okia63uefcg3c13di8co7au,7O9rHPVY,2020-0188,2021-10-15,18:15:34,19:52:35,NA,incomplete,false,NA,true,2,2,NA,NA,NA,right,absent,NA,NA,n_l_050.jpg,brown,n_s_098.jpg,brown,within,NA,NaN,NA,left,4624.10000000149,0,1,1450.7000000029802
7O9rHPVY,322zsn9z6jxccjxbpgrk4cn83gtt4w,3uxuoq9okia63uefcg3c13di8co7au,7O9rHPVY,2020-0188,2021-10-15,18:15:34,19:52:35,NA,incomplete,false,NA,true,2,3,NA,NA,NA,right,absent,NA,NA,n_l_097.jpg,purple,m_s_044.jpg,black,between,NA,NaN,NA,right,6163.60000000149,1,2,1869.3999999985099
7O9rHPVY,322zsn9z6jxccjxbpgrk4cn83gtt4w,3uxuoq9okia63uefcg3c13di8co7au,7O9rHPVY,2020-0188,2021-10-15,18:15:34,19:52:35,NA,incomplete,false,NA,true,2,4,NA,NA,NA,left,absent,NA,NA,m_l_113.jpg,green,m_s_003.jpg,brown,between,NA,NaN,NA,left,2903.5,1,3,1345.5
7O9rHPVY,322zsn9z6jxccjxbpgrk4cn83gtt4w,3uxuoq9okia63uefcg3c13di8co7au,7O9rHPVY,2020-0188,2021-10-15,18:15:34,19:52:35,NA,incomplete,false,NA,true,2,5,NA,NA,NA,left,absent,NA,NA,n_l_032.jpg,black,m_s_109.jpg,black,within,NA,NaN,NA,left,6081.29999999702,1,2,2137.60000000149
7O9rHPVY,322zsn9z6jxccjxbpgrk4cn83gtt4w,3uxuoq9okia63uefcg3c13di8co7au,7O9rHPVY,2020-0188,2021-10-15,18:15:34,19:52:35,NA,incomplete,false,NA,true,2,6,NA,NA,NA,right,absent,NA,NA,n_l_095.jpg,gray,m_s_056.jpg,blue,between,NA,NaN,NA,left,5577.39999999851,0,2,2880.5
7O9rHPVY,322zsn9z6jxccjxbpgrk4cn83gtt4w,3uxuoq9okia63uefcg3c13di8co7au,7O9rHPVY,2020-0188,2021-10-15,18:15:34,19:52:35,NA,incomplete,false,NA,true,2,7,NA,NA,NA,right,absent,NA,NA,n_l_110.jpg,gray,n_s_030.jpg,gray,within,NA,NaN,NA,right,3662.39999999851,1,1,2096.39999999851
7O9rHPVY,322zsn9z6jxccjxbpgrk4cn83gtt4w,3uxuoq9okia63uefcg3c13di8co7au,7O9rHPVY,2020-0188,2021-10-15,18:15:34,19:52:35,NA,incomplete,false,NA,true,2,8,NA,NA,NA,right,absent,NA,NA,m_s_105.jpg,green,m_s_076.jpg,green,within,NA,NaN,NA,right,3358.2999999970198,1,2,2421.39999999851
7O9rHPVY,322zsn9z6jxccjxbpgrk4cn83gtt4w,3uxuoq9okia63uefcg3c13di8co7au,7O9rHPVY,2020-0188,2021-10-15,18:15:34,19:52:35,NA,incomplete,false,NA,true,2,9,NA,NA,NA,right,absent,NA,NA,n_l_072.jpg,purple,n_l_115.jpg,purple,within,NA,NaN,NA,right,4084.2999999970198,1,2,1983.5
7O9rHPVY,322zsn9z6jxccjxbpgrk4cn83gtt4w,3uxuoq9okia63uefcg3c13di8co7au,7O9rHPVY,2020-0188,2021-10-15,18:15:34,19:52:35,NA,incomplete,false,NA,true,2,10,NA,NA,NA,left,absent,NA,NA,m_l_110.jpg,blue,n_s_022.jpg,blue,within,NA,NaN,NA,left,4092.5,1,1,6841.70000000298
7O9rHPVY,322zsn9z6jxccjxbpgrk4cn83gtt4w,3uxuoq9okia63uefcg3c13di8co7au,7O9rHPVY,2020-0188,2021-10-15,18:15:34,19:52:35,NA,incomplete,false,true,NA,3,0,NA,black,m_l_031.jpg,NA,NA,unpleasant,pleasant,NA,NA,NA,NA,NA,right,3001.20000000298,true,NA,NA,NA,NA,NA
7O9rHPVY,322zsn9z6jxccjxbpgrk4cn83gtt4w,3uxuoq9okia63uefcg3c13di8co7au,7O9rHPVY,2020-0188,2021-10-15,18:15:34,19:52:35,NA,incomplete,false,true,NA,3,1,NA,black,m_s_013.jpg,NA,NA,unpleasant,pleasant,NA,NA,NA,NA,NA,right,2325,true,NA,NA,NA,NA,NA
7O9rHPVY,322zsn9z6jxccjxbpgrk4cn83gtt4w,3uxuoq9okia63uefcg3c13di8co7au,7O9rHPVY,2020-0188,2021-10-15,18:15:34,19:52:35,NA,incomplete,false,true,NA,3,2,NA,black,n_l_044.jpg,NA,NA,pleasant,unpleasant,NA,NA,NA,NA,NA,left,1962.60000000149,true,NA,NA,NA,NA,NA
7O9rHPVY,322zsn9z6jxccjxbpgrk4cn83gtt4w,3uxuoq9okia63uefcg3c13di8co7au,7O9rHPVY,2020-0188,2021-10-15,18:15:34,19:52:35,NA,incomplete,false,true,NA,3,3,NA,black,m_l_064.jpg,NA,NA,pleasant,unpleasant,NA,NA,NA,NA,NA,left,1294.60000000149,true,NA,NA,NA,NA,NA
7O9rHPVY,322zsn9z6jxccjxbpgrk4cn83gtt4w,3uxuoq9okia63uefcg3c13di8co7au,7O9rHPVY,2020-0188,2021-10-15,18:15:34,19:52:35,NA,incomplete,false,true,NA,3,4,NA,black,m_l_050.jpg,NA,NA,unpleasant,pleasant,NA,NA,NA,NA,NA,right,1538,true,NA,NA,NA,NA,NA
7O9rHPVY,322zsn9z6jxccjxbpgrk4cn83gtt4w,3uxuoq9okia63uefcg3c13di8co7au,7O9rHPVY,2020-0188,2021-10-15,18:15:34,19:52:35,NA,incomplete,false,true,NA,3,5,NA,black,n_s_111.jpg,NA,NA,pleasant,unpleasant,NA,NA,NA,NA,NA,left,1559.89999999851,true,NA,NA,NA,NA,NA
7O9rHPVY,322zsn9z6jxccjxbpgrk4cn83gtt4w,3uxuoq9okia63uefcg3c13di8co7au,7O9rHPVY,2020-0188,2021-10-15,18:15:34,19:52:35,NA,incomplete,false,true,NA,3,6,NA,blue,m_s_047.jpg,NA,NA,pleasant,unpleasant,NA,NA,NA,NA,NA,left,1675.60000000149,true,NA,NA,NA,NA,NA
7O9rHPVY,322zsn9z6jxccjxbpgrk4cn83gtt4w,3uxuoq9okia63uefcg3c13di8co7au,7O9rHPVY,2020-0188,2021-10-15,18:15:34,19:52:35,NA,incomplete,false,true,NA,3,7,NA,blue,n_s_081.jpg,NA,NA,pleasant,unpleasant,NA,NA,NA,NA,NA,left,1215.5,true,NA,NA,NA,NA,NA
7O9rHPVY,322zsn9z6jxccjxbpgrk4cn83gtt4w,3uxuoq9okia63uefcg3c13di8co7au,7O9rHPVY,2020-0188,2021-10-15,18:15:34,19:52:35,NA,incomplete,false,true,NA,3,8,NA,blue,n_l_031.jpg,NA,NA,pleasant,unpleasant,NA,NA,NA,NA,NA,left,1013.79999999702,true,NA,NA,NA,NA,NA
7O9rHPVY,322zsn9z6jxccjxbpgrk4cn83gtt4w,3uxuoq9okia63uefcg3c13di8co7au,7O9rHPVY,2020-0188,2021-10-15,18:15:34,19:52:35,NA,incomplete,false,true,NA,3,9,NA,blue,m_l_104.jpg,NA,NA,pleasant,unpleasant,NA,NA,NA,NA,NA,left,2217.80000000447,true,NA,NA,NA,NA,NA
7O9rHPVY,322zsn9z6jxccjxbpgrk4cn83gtt4w,3uxuoq9okia63uefcg3c13di8co7au,7O9rHPVY,2020-0188,2021-10-15,18:15:34,19:52:35,NA,incomplete,false,true,NA,3,10,NA,blue,n_l_064.jpg,NA,NA,unpleasant,pleasant,NA,NA,NA,NA,NA,left,2382.39999999851,true,NA,NA,NA,NA,NA
7O9rHPVY,322zsn9z6jxccjxbpgrk4cn83gtt4w,3uxuoq9okia63uefcg3c13di8co7au,7O9rHPVY,2020-0188,2021-10-15,18:15:34,19:52:35,NA,incomplete,false,true,NA,3,11,NA,blue,n_l_038.jpg,NA,NA,unpleasant,pleasant,NA,NA,NA,NA,NA,left,1330,true,NA,NA,NA,NA,NA
7O9rHPVY,322zsn9z6jxccjxbpgrk4cn83gtt4w,3uxuoq9okia63uefcg3c13di8co7au,7O9rHPVY,2020-0188,2021-10-15,18:15:34,19:52:35,NA,incomplete,false,true,NA,3,12,NA,brown,n_s_065.jpg,NA,NA,unpleasant,pleasant,NA,NA,NA,NA,NA,left,1694.89999999851,true,NA,NA,NA,NA,NA
7O9rHPVY,322zsn9z6jxccjxbpgrk4cn83gtt4w,3uxuoq9okia63uefcg3c13di8co7au,7O9rHPVY,2020-0188,2021-10-15,18:15:34,19:52:35,NA,incomplete,false,true,NA,3,13,NA,brown,m_l_099.jpg,NA,NA,unpleasant,pleasant,NA,NA,NA,NA,NA,right,1436.09999999404,true,NA,NA,NA,NA,NA
7O9rHPVY,322zsn9z6jxccjxbpgrk4cn83gtt4w,3uxuoq9okia63uefcg3c13di8co7au,7O9rHPVY,2020-0188,2021-10-15,18:15:34,19:52:35,NA,incomplete,false,true,NA,3,14,NA,brown,n_s_027.jpg,NA,NA,pleasant,unpleasant,NA,NA,NA,NA,NA,right,1767.5,true,NA,NA,NA,NA,NA
7O9rHPVY,322zsn9z6jxccjxbpgrk4cn83gtt4w,3uxuoq9okia63uefcg3c13di8co7au,7O9rHPVY,2020-0188,2021-10-15,18:15:34,19:52:35,NA,incomplete,false,true,NA,3,15,NA,brown,n_s_117.jpg,NA,NA,unpleasant,pleasant,NA,NA,NA,NA,NA,left,1324,true,NA,NA,NA,NA,NA
7O9rHPVY,322zsn9z6jxccjxbpgrk4cn83gtt4w,3uxuoq9okia63uefcg3c13di8co7au,7O9rHPVY,2020-0188,2021-10-15,18:15:34,19:52:35,NA,incomplete,false,true,NA,3,16,NA,brown,n_s_007.jpg,NA,NA,unpleasant,pleasant,NA,NA,NA,NA,NA,left,1920.09999999404,true,NA,NA,NA,NA,NA
7O9rHPVY,322zsn9z6jxccjxbpgrk4cn83gtt4w,3uxuoq9okia63uefcg3c13di8co7au,7O9rHPVY,2020-0188,2021-10-15,18:15:34,19:52:35,NA,incomplete,false,true,NA,3,17,NA,brown,m_l_071.jpg,NA,NA,unpleasant,pleasant,NA,NA,NA,NA,NA,right,1587.29999999702,true,NA,NA,NA,NA,NA
7O9rHPVY,322zsn9z6jxccjxbpgrk4cn83gtt4w,3uxuoq9okia63uefcg3c13di8co7au,7O9rHPVY,2020-0188,2021-10-15,18:15:34,19:52:35,NA,incomplete,false,true,NA,3,18,NA,orange,m_l_083.jpg,NA,NA,pleasant,unpleasant,NA,NA,NA,NA,NA,left,1335.39999999851,true,NA,NA,NA,NA,NA
7O9rHPVY,322zsn9z6jxccjxbpgrk4cn83gtt4w,3uxuoq9okia63uefcg3c13di8co7au,7O9rHPVY,2020-0188,2021-10-15,18:15:34,19:52:35,NA,incomplete,false,true,NA,3,19,NA,orange,n_s_083.jpg,NA,NA,unpleasant,pleasant,NA,NA,NA,NA,NA,right,1892.09999999404,true,NA,NA,NA,NA,NA
7O9rHPVY,322zsn9z6jxccjxbpgrk4cn83gtt4w,3uxuoq9okia63uefcg3c13di8co7au,7O9rHPVY,2020-0188,2021-10-15,18:15:34,19:52:35,NA,incomplete,false,true,NA,3,20,NA,orange,n_l_017.jpg,NA,NA,pleasant,unpleasant,NA,NA,NA,NA,NA,right,1464,true,NA,NA,NA,NA,NA
7O9rHPVY,322zsn9z6jxccjxbpgrk4cn83gtt4w,3uxuoq9okia63uefcg3c13di8co7au,7O9rHPVY,2020-0188,2021-10-15,18:15:34,19:52:35,NA,incomplete,false,true,NA,3,21,NA,orange,m_l_012.jpg,NA,NA,pleasant,unpleasant,NA,NA,NA,NA,NA,left,1564.5,true,NA,NA,NA,NA,NA
7O9rHPVY,322zsn9z6jxccjxbpgrk4cn83gtt4w,3uxuoq9okia63uefcg3c13di8co7au,7O9rHPVY,2020-0188,2021-10-15,18:15:34,19:52:35,NA,incomplete,false,true,NA,3,22,NA,orange,n_s_086.jpg,NA,NA,pleasant,unpleasant,NA,NA,NA,NA,NA,left,2569.90000000596,true,NA,NA,NA,NA,NA
7O9rHPVY,322zsn9z6jxccjxbpgrk4cn83gtt4w,3uxuoq9okia63uefcg3c13di8co7au,7O9rHPVY,2020-0188,2021-10-15,18:15:34,19:52:35,NA,incomplete,false,true,NA,3,23,NA,orange,m_l_108.jpg,NA,NA,pleasant,unpleasant,NA,NA,NA,NA,NA,left,1917.30000000447,true,NA,NA,NA,NA,NA
7O9rHPVY,322zsn9z6jxccjxbpgrk4cn83gtt4w,3uxuoq9okia63uefcg3c13di8co7au,7O9rHPVY,2020-0188,2021-10-15,18:15:34,19:52:35,NA,incomplete,false,true,NA,3,24,NA,red,n_s_092.jpg,NA,NA,unpleasant,pleasant,NA,NA,NA,NA,NA,left,2089.79999999702,true,NA,NA,NA,NA,NA
7O9rHPVY,322zsn9z6jxccjxbpgrk4cn83gtt4w,3uxuoq9okia63uefcg3c13di8co7au,7O9rHPVY,2020-0188,2021-10-15,18:15:34,19:52:35,NA,incomplete,false,true,NA,3,25,NA,red,n_l_109.jpg,NA,NA,pleasant,unpleasant,NA,NA,NA,NA,NA,right,2694.5,true,NA,NA,NA,NA,NA
7O9rHPVY,322zsn9z6jxccjxbpgrk4cn83gtt4w,3uxuoq9okia63uefcg3c13di8co7au,7O9rHPVY,2020-0188,2021-10-15,18:15:34,19:52:35,NA,incomplete,false,true,NA,3,26,NA,red,m_l_045.jpg,NA,NA,unpleasant,pleasant,NA,NA,NA,NA,NA,right,2890.39999999851,true,NA,NA,NA,NA,NA
7O9rHPVY,322zsn9z6jxccjxbpgrk4cn83gtt4w,3uxuoq9okia63uefcg3c13di8co7au,7O9rHPVY,2020-0188,2021-10-15,18:15:34,19:52:35,NA,incomplete,false,true,NA,3,27,NA,red,n_s_057.jpg,NA,NA,pleasant,unpleasant,NA,NA,NA,NA,NA,right,1662.19999999553,true,NA,NA,NA,NA,NA
7O9rHPVY,322zsn9z6jxccjxbpgrk4cn83gtt4w,3uxuoq9okia63uefcg3c13di8co7au,7O9rHPVY,2020-0188,2021-10-15,18:15:34,19:52:35,NA,incomplete,false,true,NA,3,28,NA,red,n_s_070.jpg,NA,NA,unpleasant,pleasant,NA,NA,NA,NA,NA,right,2955.69999999553,true,NA,NA,NA,NA,NA
7O9rHPVY,322zsn9z6jxccjxbpgrk4cn83gtt4w,3uxuoq9okia63uefcg3c13di8co7au,7O9rHPVY,2020-0188,2021-10-15,18:15:34,19:52:35,NA,incomplete,false,true,NA,3,29,NA,red,m_s_089.jpg,NA,NA,pleasant,unpleasant,NA,NA,NA,NA,NA,right,2390.89999999851,true,NA,NA,NA,NA,NA
7O9rHPVY,322zsn9z6jxccjxbpgrk4cn83gtt4w,3uxuoq9okia63uefcg3c13di8co7au,7O9rHPVY,2020-0188,2021-10-15,18:15:34,19:52:35,NA,incomplete,false,true,NA,3,30,NA,purple,m_l_086.jpg,NA,NA,pleasant,unpleasant,NA,NA,NA,NA,NA,left,1338.89999999851,true,NA,NA,NA,NA,NA
7O9rHPVY,322zsn9z6jxccjxbpgrk4cn83gtt4w,3uxuoq9okia63uefcg3c13di8co7au,7O9rHPVY,2020-0188,2021-10-15,18:15:34,19:52:35,NA,incomplete,false,true,NA,3,31,NA,purple,m_s_032.jpg,NA,NA,unpleasant,pleasant,NA,NA,NA,NA,NA,right,1535.60000000149,true,NA,NA,NA,NA,NA
7O9rHPVY,322zsn9z6jxccjxbpgrk4cn83gtt4w,3uxuoq9okia63uefcg3c13di8co7au,7O9rHPVY,2020-0188,2021-10-15,18:15:34,19:52:35,NA,incomplete,false,true,NA,3,32,NA,purple,m_s_117.jpg,NA,NA,unpleasant,pleasant,NA,NA,NA,NA,NA,right,1298.19999999553,true,NA,NA,NA,NA,NA
7O9rHPVY,322zsn9z6jxccjxbpgrk4cn83gtt4w,3uxuoq9okia63uefcg3c13di8co7au,7O9rHPVY,2020-0188,2021-10-15,18:15:34,19:52:35,NA,incomplete,false,true,NA,3,33,NA,purple,m_s_062.jpg,NA,NA,pleasant,unpleasant,NA,NA,NA,NA,NA,left,1511.60000000149,true,NA,NA,NA,NA,NA
7O9rHPVY,322zsn9z6jxccjxbpgrk4cn83gtt4w,3uxuoq9okia63uefcg3c13di8co7au,7O9rHPVY,2020-0188,2021-10-15,18:15:34,19:52:35,NA,incomplete,false,true,NA,3,34,NA,purple,n_l_076.jpg,NA,NA,pleasant,unpleasant,NA,NA,NA,NA,NA,right,2407.10000000149,true,NA,NA,NA,NA,NA
7O9rHPVY,322zsn9z6jxccjxbpgrk4cn83gtt4w,3uxuoq9okia63uefcg3c13di8co7au,7O9rHPVY,2020-0188,2021-10-15,18:15:34,19:52:35,NA,incomplete,false,true,NA,3,35,NA,purple,m_s_058.jpg,NA,NA,unpleasant,pleasant,NA,NA,NA,NA,NA,right,2824.10000000149,true,NA,NA,NA,NA,NA
7O9rHPVY,322zsn9z6jxccjxbpgrk4cn83gtt4w,3uxuoq9okia63uefcg3c13di8co7au,7O9rHPVY,2020-0188,2021-10-15,18:15:34,19:52:35,NA,incomplete,false,NA,true,3,0,NA,NA,NA,left,absent,NA,NA,n_s_083.jpg,orange,m_l_108.jpg,orange,within,NA,NaN,NA,right,4874.39999999851,0,2,2448.3000000044703
7O9rHPVY,322zsn9z6jxccjxbpgrk4cn83gtt4w,3uxuoq9okia63uefcg3c13di8co7au,7O9rHPVY,2020-0188,2021-10-15,18:15:34,19:52:35,NA,incomplete,false,NA,true,3,1,NA,NA,NA,left,absent,NA,NA,n_s_070.jpg,red,m_s_117.jpg,purple,between,NA,NaN,NA,right,2487.10000000149,0,2,2652.39999999851
7O9rHPVY,322zsn9z6jxccjxbpgrk4cn83gtt4w,3uxuoq9okia63uefcg3c13di8co7au,7O9rHPVY,2020-0188,2021-10-15,18:15:34,19:52:35,NA,incomplete,false,NA,true,3,2,NA,NA,NA,right,absent,NA,NA,n_s_027.jpg,brown,n_l_064.jpg,blue,between,NA,NaN,NA,left,2736.3000000044703,0,1,1728.2999999970198
7O9rHPVY,322zsn9z6jxccjxbpgrk4cn83gtt4w,3uxuoq9okia63uefcg3c13di8co7au,7O9rHPVY,2020-0188,2021-10-15,18:15:34,19:52:35,NA,incomplete,false,NA,true,3,3,NA,NA,NA,left,absent,NA,NA,m_l_050.jpg,black,n_l_031.jpg,blue,between,NA,NaN,NA,left,3050.60000000149,1,1,1400.1999999955297
7O9rHPVY,322zsn9z6jxccjxbpgrk4cn83gtt4w,3uxuoq9okia63uefcg3c13di8co7au,7O9rHPVY,2020-0188,2021-10-15,18:15:34,19:52:35,NA,incomplete,false,NA,true,3,4,NA,NA,NA,left,absent,NA,NA,n_s_081.jpg,blue,n_l_038.jpg,blue,within,NA,NaN,NA,left,3739.39999999851,1,2,2575.2999999970198
7O9rHPVY,322zsn9z6jxccjxbpgrk4cn83gtt4w,3uxuoq9okia63uefcg3c13di8co7au,7O9rHPVY,2020-0188,2021-10-15,18:15:34,19:52:35,NA,incomplete,false,NA,true,3,5,NA,NA,NA,left,absent,NA,NA,n_l_109.jpg,red,m_s_089.jpg,red,within,NA,NaN,NA,left,2875.2999999970198,1,2,3045.39999999851
7O9rHPVY,322zsn9z6jxccjxbpgrk4cn83gtt4w,3uxuoq9okia63uefcg3c13di8co7au,7O9rHPVY,2020-0188,2021-10-15,18:15:34,19:52:35,NA,incomplete,false,NA,true,3,6,NA,NA,NA,right,absent,NA,NA,n_s_111.jpg,black,m_s_013.jpg,black,within,NA,NaN,NA,left,3341.39999999851,0,0,15959.29999999702
7O9rHPVY,322zsn9z6jxccjxbpgrk4cn83gtt4w,3uxuoq9okia63uefcg3c13di8co7au,7O9rHPVY,2020-0188,2021-10-15,18:15:34,19:52:35,NA,incomplete,false,NA,true,3,7,NA,NA,NA,left,absent,NA,NA,m_l_099.jpg,brown,m_l_071.jpg,brown,within,NA,NaN,NA,left,4019.2000000029802,1,2,2644.2999999970198
7O9rHPVY,322zsn9z6jxccjxbpgrk4cn83gtt4w,3uxuoq9okia63uefcg3c13di8co7au,7O9rHPVY,2020-0188,2021-10-15,18:15:34,19:52:35,NA,incomplete,false,NA,true,3,8,NA,NA,NA,right,absent,NA,NA,n_l_017.jpg,orange,n_s_007.jpg,brown,between,NA,NaN,NA,right,2496.2999999970198,1,2,1797.2999999970198
7O9rHPVY,322zsn9z6jxccjxbpgrk4cn83gtt4w,3uxuoq9okia63uefcg3c13di8co7au,7O9rHPVY,2020-0188,2021-10-15,18:15:34,19:52:35,NA,incomplete,false,NA,true,3,9,NA,NA,NA,right,absent,NA,NA,m_l_045.jpg,red,n_s_086.jpg,orange,between,NA,NaN,NA,left,2902.1999999955297,0,2,2702.89999999851
7O9rHPVY,322zsn9z6jxccjxbpgrk4cn83gtt4w,3uxuoq9okia63uefcg3c13di8co7au,7O9rHPVY,2020-0188,2021-10-15,18:15:34,19:52:35,NA,incomplete,false,NA,true,3,10,NA,NA,NA,right,absent,NA,NA,m_s_058.jpg,purple,m_s_032.jpg,purple,within,NA,NaN,NA,left,8673.39999999851,0,2,3019.2999999970198
7O9rHPVY,322zsn9z6jxccjxbpgrk4cn83gtt4w,3uxuoq9okia63uefcg3c13di8co7au,7O9rHPVY,2020-0188,2021-10-15,18:15:34,19:52:35,NA,incomplete,false,true,NA,4,0,NA,orange,n_s_025.jpg,NA,NA,unpleasant,pleasant,NA,NA,NA,NA,NA,left,1251,true,NA,NA,NA,NA,NA
7O9rHPVY,322zsn9z6jxccjxbpgrk4cn83gtt4w,3uxuoq9okia63uefcg3c13di8co7au,7O9rHPVY,2020-0188,2021-10-15,18:15:34,19:52:35,NA,incomplete,false,true,NA,4,1,NA,orange,n_s_021.jpg,NA,NA,pleasant,unpleasant,NA,NA,NA,NA,NA,left,1502.89999999851,true,NA,NA,NA,NA,NA
7O9rHPVY,322zsn9z6jxccjxbpgrk4cn83gtt4w,3uxuoq9okia63uefcg3c13di8co7au,7O9rHPVY,2020-0188,2021-10-15,18:15:34,19:52:35,NA,incomplete,false,true,NA,4,2,NA,orange,n_l_045.jpg,NA,NA,pleasant,unpleasant,NA,NA,NA,NA,NA,left,1267.60000000149,true,NA,NA,NA,NA,NA
7O9rHPVY,322zsn9z6jxccjxbpgrk4cn83gtt4w,3uxuoq9okia63uefcg3c13di8co7au,7O9rHPVY,2020-0188,2021-10-15,18:15:34,19:52:35,NA,incomplete,false,true,NA,4,3,NA,orange,m_s_049.jpg,NA,NA,unpleasant,pleasant,NA,NA,NA,NA,NA,right,1518.80000000447,true,NA,NA,NA,NA,NA
7O9rHPVY,322zsn9z6jxccjxbpgrk4cn83gtt4w,3uxuoq9okia63uefcg3c13di8co7au,7O9rHPVY,2020-0188,2021-10-15,18:15:34,19:52:35,NA,incomplete,false,true,NA,4,4,NA,orange,m_l_060.jpg,NA,NA,unpleasant,pleasant,NA,NA,NA,NA,NA,right,1242.89999999851,true,NA,NA,NA,NA,NA
7O9rHPVY,322zsn9z6jxccjxbpgrk4cn83gtt4w,3uxuoq9okia63uefcg3c13di8co7au,7O9rHPVY,2020-0188,2021-10-15,18:15:34,19:52:35,NA,incomplete,false,true,NA,4,5,NA,orange,m_s_079.jpg,NA,NA,unpleasant,pleasant,NA,NA,NA,NA,NA,right,1160.09999999404,true,NA,NA,NA,NA,NA
7O9rHPVY,322zsn9z6jxccjxbpgrk4cn83gtt4w,3uxuoq9okia63uefcg3c13di8co7au,7O9rHPVY,2020-0188,2021-10-15,18:15:34,19:52:35,NA,incomplete,false,true,NA,4,6,NA,white,m_s_078.jpg,NA,NA,unpleasant,pleasant,NA,NA,NA,NA,NA,right,1156,true,NA,NA,NA,NA,NA
7O9rHPVY,322zsn9z6jxccjxbpgrk4cn83gtt4w,3uxuoq9okia63uefcg3c13di8co7au,7O9rHPVY,2020-0188,2021-10-15,18:15:34,19:52:35,NA,incomplete,false,true,NA,4,7,NA,white,m_l_028.jpg,NA,NA,pleasant,unpleasant,NA,NA,NA,NA,NA,left,1336.10000000149,true,NA,NA,NA,NA,NA
7O9rHPVY,322zsn9z6jxccjxbpgrk4cn83gtt4w,3uxuoq9okia63uefcg3c13di8co7au,7O9rHPVY,2020-0188,2021-10-15,18:15:34,19:52:35,NA,incomplete,false,true,NA,4,8,NA,white,n_s_016.jpg,NA,NA,unpleasant,pleasant,NA,NA,NA,NA,NA,right,1972.5,true,NA,NA,NA,NA,NA
7O9rHPVY,322zsn9z6jxccjxbpgrk4cn83gtt4w,3uxuoq9okia63uefcg3c13di8co7au,7O9rHPVY,2020-0188,2021-10-15,18:15:34,19:52:35,NA,incomplete,false,true,NA,4,9,NA,white,m_s_101.jpg,NA,NA,unpleasant,pleasant,NA,NA,NA,NA,NA,right,1208,true,NA,NA,NA,NA,NA
7O9rHPVY,322zsn9z6jxccjxbpgrk4cn83gtt4w,3uxuoq9okia63uefcg3c13di8co7au,7O9rHPVY,2020-0188,2021-10-15,18:15:34,19:52:35,NA,incomplete,false,true,NA,4,10,NA,white,m_s_016.jpg,NA,NA,unpleasant,pleasant,NA,NA,NA,NA,NA,right,1820,true,NA,NA,NA,NA,NA
7O9rHPVY,322zsn9z6jxccjxbpgrk4cn83gtt4w,3uxuoq9okia63uefcg3c13di8co7au,7O9rHPVY,2020-0188,2021-10-15,18:15:34,19:52:35,NA,incomplete,false,true,NA,4,11,NA,white,m_l_029.jpg,NA,NA,pleasant,unpleasant,NA,NA,NA,NA,NA,left,1312.5,true,NA,NA,NA,NA,NA
7O9rHPVY,322zsn9z6jxccjxbpgrk4cn83gtt4w,3uxuoq9okia63uefcg3c13di8co7au,7O9rHPVY,2020-0188,2021-10-15,18:15:34,19:52:35,NA,incomplete,false,true,NA,4,12,NA,blue,n_s_096.jpg,NA,NA,pleasant,unpleasant,NA,NA,NA,NA,NA,left,1100.60000000149,true,NA,NA,NA,NA,NA
7O9rHPVY,322zsn9z6jxccjxbpgrk4cn83gtt4w,3uxuoq9okia63uefcg3c13di8co7au,7O9rHPVY,2020-0188,2021-10-15,18:15:34,19:52:35,NA,incomplete,false,true,NA,4,13,NA,blue,n_l_086.jpg,NA,NA,unpleasant,pleasant,NA,NA,NA,NA,NA,left,1785.10000000149,true,NA,NA,NA,NA,NA
7O9rHPVY,322zsn9z6jxccjxbpgrk4cn83gtt4w,3uxuoq9okia63uefcg3c13di8co7au,7O9rHPVY,2020-0188,2021-10-15,18:15:34,19:52:35,NA,incomplete,false,true,NA,4,14,NA,blue,m_l_084.jpg,NA,NA,unpleasant,pleasant,NA,NA,NA,NA,NA,right,1613.80000000447,true,NA,NA,NA,NA,NA
7O9rHPVY,322zsn9z6jxccjxbpgrk4cn83gtt4w,3uxuoq9okia63uefcg3c13di8co7au,7O9rHPVY,2020-0188,2021-10-15,18:15:34,19:52:35,NA,incomplete,false,true,NA,4,15,NA,blue,m_l_076.jpg,NA,NA,pleasant,unpleasant,NA,NA,NA,NA,NA,left,1513.29999999702,true,NA,NA,NA,NA,NA
7O9rHPVY,322zsn9z6jxccjxbpgrk4cn83gtt4w,3uxuoq9okia63uefcg3c13di8co7au,7O9rHPVY,2020-0188,2021-10-15,18:15:34,19:52:35,NA,incomplete,false,true,NA,4,16,NA,blue,n_l_082.jpg,NA,NA,unpleasant,pleasant,NA,NA,NA,NA,NA,right,1414.29999999702,true,NA,NA,NA,NA,NA
7O9rHPVY,322zsn9z6jxccjxbpgrk4cn83gtt4w,3uxuoq9okia63uefcg3c13di8co7au,7O9rHPVY,2020-0188,2021-10-15,18:15:34,19:52:35,NA,incomplete,false,true,NA,4,17,NA,blue,m_s_090.jpg,NA,NA,unpleasant,pleasant,NA,NA,NA,NA,NA,right,1459.70000000298,true,NA,NA,NA,NA,NA
7O9rHPVY,322zsn9z6jxccjxbpgrk4cn83gtt4w,3uxuoq9okia63uefcg3c13di8co7au,7O9rHPVY,2020-0188,2021-10-15,18:15:34,19:52:35,NA,incomplete,false,true,NA,4,18,NA,purple,n_s_002.jpg,NA,NA,pleasant,unpleasant,NA,NA,NA,NA,NA,left,1455.80000000447,true,NA,NA,NA,NA,NA
7O9rHPVY,322zsn9z6jxccjxbpgrk4cn83gtt4w,3uxuoq9okia63uefcg3c13di8co7au,7O9rHPVY,2020-0188,2021-10-15,18:15:34,19:52:35,NA,incomplete,false,true,NA,4,19,NA,purple,m_s_092.jpg,NA,NA,pleasant,unpleasant,NA,NA,NA,NA,NA,left,1947.70000000298,true,NA,NA,NA,NA,NA
7O9rHPVY,322zsn9z6jxccjxbpgrk4cn83gtt4w,3uxuoq9okia63uefcg3c13di8co7au,7O9rHPVY,2020-0188,2021-10-15,18:15:34,19:52:35,NA,incomplete,false,true,NA,4,20,NA,purple,m_l_080.jpg,NA,NA,unpleasant,pleasant,NA,NA,NA,NA,NA,right,1633,true,NA,NA,NA,NA,NA
7O9rHPVY,322zsn9z6jxccjxbpgrk4cn83gtt4w,3uxuoq9okia63uefcg3c13di8co7au,7O9rHPVY,2020-0188,2021-10-15,18:15:34,19:52:35,NA,incomplete,false,true,NA,4,21,NA,purple,m_l_068.jpg,NA,NA,unpleasant,pleasant,NA,NA,NA,NA,NA,right,1724.60000000149,true,NA,NA,NA,NA,NA
7O9rHPVY,322zsn9z6jxccjxbpgrk4cn83gtt4w,3uxuoq9okia63uefcg3c13di8co7au,7O9rHPVY,2020-0188,2021-10-15,18:15:34,19:52:35,NA,incomplete,false,true,NA,4,22,NA,purple,n_s_095.jpg,NA,NA,pleasant,unpleasant,NA,NA,NA,NA,NA,left,1847.60000000149,true,NA,NA,NA,NA,NA
7O9rHPVY,322zsn9z6jxccjxbpgrk4cn83gtt4w,3uxuoq9okia63uefcg3c13di8co7au,7O9rHPVY,2020-0188,2021-10-15,18:15:34,19:52:35,NA,incomplete,false,true,NA,4,23,NA,purple,n_s_020.jpg,NA,NA,pleasant,unpleasant,NA,NA,NA,NA,NA,left,2502.39999999851,true,NA,NA,NA,NA,NA
7O9rHPVY,322zsn9z6jxccjxbpgrk4cn83gtt4w,3uxuoq9okia63uefcg3c13di8co7au,7O9rHPVY,2020-0188,2021-10-15,18:15:34,19:52:35,NA,incomplete,false,true,NA,4,24,NA,gray,n_s_099.jpg,NA,NA,pleasant,unpleasant,NA,NA,NA,NA,NA,left,1417.60000000149,true,NA,NA,NA,NA,NA
7O9rHPVY,322zsn9z6jxccjxbpgrk4cn83gtt4w,3uxuoq9okia63uefcg3c13di8co7au,7O9rHPVY,2020-0188,2021-10-15,18:15:34,19:52:35,NA,incomplete,false,true,NA,4,25,NA,gray,n_l_004.jpg,NA,NA,pleasant,unpleasant,NA,NA,NA,NA,NA,left,1013.5,true,NA,NA,NA,NA,NA
7O9rHPVY,322zsn9z6jxccjxbpgrk4cn83gtt4w,3uxuoq9okia63uefcg3c13di8co7au,7O9rHPVY,2020-0188,2021-10-15,18:15:34,19:52:35,NA,incomplete,false,true,NA,4,26,NA,gray,n_l_085.jpg,NA,NA,pleasant,unpleasant,NA,NA,NA,NA,NA,left,1649.30000000447,true,NA,NA,NA,NA,NA
7O9rHPVY,322zsn9z6jxccjxbpgrk4cn83gtt4w,3uxuoq9okia63uefcg3c13di8co7au,7O9rHPVY,2020-0188,2021-10-15,18:15:34,19:52:35,NA,incomplete,false,true,NA,4,27,NA,gray,m_s_087.jpg,NA,NA,pleasant,unpleasant,NA,NA,NA,NA,NA,left,1286.69999999553,true,NA,NA,NA,NA,NA
7O9rHPVY,322zsn9z6jxccjxbpgrk4cn83gtt4w,3uxuoq9okia63uefcg3c13di8co7au,7O9rHPVY,2020-0188,2021-10-15,18:15:34,19:52:35,NA,incomplete,false,true,NA,4,28,NA,gray,n_s_051.jpg,NA,NA,pleasant,unpleasant,NA,NA,NA,NA,NA,left,1746.69999999553,true,NA,NA,NA,NA,NA
7O9rHPVY,322zsn9z6jxccjxbpgrk4cn83gtt4w,3uxuoq9okia63uefcg3c13di8co7au,7O9rHPVY,2020-0188,2021-10-15,18:15:34,19:52:35,NA,incomplete,false,true,NA,4,29,NA,gray,n_l_104.jpg,NA,NA,pleasant,unpleasant,NA,NA,NA,NA,NA,right,2120,true,NA,NA,NA,NA,NA
7O9rHPVY,322zsn9z6jxccjxbpgrk4cn83gtt4w,3uxuoq9okia63uefcg3c13di8co7au,7O9rHPVY,2020-0188,2021-10-15,18:15:34,19:52:35,NA,incomplete,false,true,NA,4,30,NA,brown,m_l_072.jpg,NA,NA,unpleasant,pleasant,NA,NA,NA,NA,NA,right,1417,true,NA,NA,NA,NA,NA
7O9rHPVY,322zsn9z6jxccjxbpgrk4cn83gtt4w,3uxuoq9okia63uefcg3c13di8co7au,7O9rHPVY,2020-0188,2021-10-15,18:15:34,19:52:35,NA,incomplete,false,true,NA,4,31,NA,brown,m_l_079.jpg,NA,NA,pleasant,unpleasant,NA,NA,NA,NA,NA,right,2247.89999999851,true,NA,NA,NA,NA,NA
7O9rHPVY,322zsn9z6jxccjxbpgrk4cn83gtt4w,3uxuoq9okia63uefcg3c13di8co7au,7O9rHPVY,2020-0188,2021-10-15,18:15:34,19:52:35,NA,incomplete,false,true,NA,4,32,NA,brown,n_l_048.jpg,NA,NA,pleasant,unpleasant,NA,NA,NA,NA,NA,right,2556.70000000298,true,NA,NA,NA,NA,NA
7O9rHPVY,322zsn9z6jxccjxbpgrk4cn83gtt4w,3uxuoq9okia63uefcg3c13di8co7au,7O9rHPVY,2020-0188,2021-10-15,18:15:34,19:52:35,NA,incomplete,false,true,NA,4,33,NA,brown,n_l_023.jpg,NA,NA,pleasant,unpleasant,NA,NA,NA,NA,NA,left,1136.5,true,NA,NA,NA,NA,NA
7O9rHPVY,322zsn9z6jxccjxbpgrk4cn83gtt4w,3uxuoq9okia63uefcg3c13di8co7au,7O9rHPVY,2020-0188,2021-10-15,18:15:34,19:52:35,NA,incomplete,false,true,NA,4,34,NA,brown,n_s_014.jpg,NA,NA,unpleasant,pleasant,NA,NA,NA,NA,NA,left,2540.5,true,NA,NA,NA,NA,NA
7O9rHPVY,322zsn9z6jxccjxbpgrk4cn83gtt4w,3uxuoq9okia63uefcg3c13di8co7au,7O9rHPVY,2020-0188,2021-10-15,18:15:34,19:52:35,NA,incomplete,false,true,NA,4,35,NA,brown,n_s_015.jpg,NA,NA,unpleasant,pleasant,NA,NA,NA,NA,NA,right,1344.79999999702,true,NA,NA,NA,NA,NA
7O9rHPVY,322zsn9z6jxccjxbpgrk4cn83gtt4w,3uxuoq9okia63uefcg3c13di8co7au,7O9rHPVY,2020-0188,2021-10-15,18:15:34,19:52:35,NA,incomplete,false,NA,true,4,0,NA,NA,NA,right,absent,NA,NA,n_s_020.jpg,purple,m_s_092.jpg,purple,within,NA,NaN,NA,left,3369.2999999970198,0,1,1320.6999999955297
7O9rHPVY,322zsn9z6jxccjxbpgrk4cn83gtt4w,3uxuoq9okia63uefcg3c13di8co7au,7O9rHPVY,2020-0188,2021-10-15,18:15:34,19:52:35,NA,incomplete,false,NA,true,4,1,NA,NA,NA,right,absent,NA,NA,m_s_090.jpg,blue,n_l_086.jpg,blue,within,NA,NaN,NA,left,2467.1999999955297,0,2,1784.1000000014901
7O9rHPVY,322zsn9z6jxccjxbpgrk4cn83gtt4w,3uxuoq9okia63uefcg3c13di8co7au,7O9rHPVY,2020-0188,2021-10-15,18:15:34,19:52:35,NA,incomplete,false,NA,true,4,2,NA,NA,NA,right,absent,NA,NA,n_l_104.jpg,gray,n_l_004.jpg,gray,within,NA,NaN,NA,right,3014.39999999851,1,2,2431.39999999851
7O9rHPVY,322zsn9z6jxccjxbpgrk4cn83gtt4w,3uxuoq9okia63uefcg3c13di8co7au,7O9rHPVY,2020-0188,2021-10-15,18:15:34,19:52:35,NA,incomplete,false,NA,true,4,3,NA,NA,NA,right,absent,NA,NA,n_l_085.jpg,gray,n_s_095.jpg,purple,between,NA,NaN,NA,right,2761.2999999970198,1,1,1788.1999999955297
7O9rHPVY,322zsn9z6jxccjxbpgrk4cn83gtt4w,3uxuoq9okia63uefcg3c13di8co7au,7O9rHPVY,2020-0188,2021-10-15,18:15:34,19:52:35,NA,incomplete,false,NA,true,4,4,NA,NA,NA,left,absent,NA,NA,m_l_028.jpg,white,m_l_029.jpg,white,within,NA,NaN,NA,right,2939.39999999851,0,1,1828.2999999970198
7O9rHPVY,322zsn9z6jxccjxbpgrk4cn83gtt4w,3uxuoq9okia63uefcg3c13di8co7au,7O9rHPVY,2020-0188,2021-10-15,18:15:34,19:52:35,NA,incomplete,false,NA,true,4,5,NA,NA,NA,right,absent,NA,NA,n_s_016.jpg,white,m_l_060.jpg,orange,between,NA,NaN,NA,left,6765.5,0,2,2473.5
7O9rHPVY,322zsn9z6jxccjxbpgrk4cn83gtt4w,3uxuoq9okia63uefcg3c13di8co7au,7O9rHPVY,2020-0188,2021-10-15,18:15:34,19:52:35,NA,incomplete,false,NA,true,4,6,NA,NA,NA,right,absent,NA,NA,n_s_015.jpg,brown,m_l_079.jpg,brown,within,NA,NaN,NA,left,2485.39999999851,0,2,2555.89999999851
7O9rHPVY,322zsn9z6jxccjxbpgrk4cn83gtt4w,3uxuoq9okia63uefcg3c13di8co7au,7O9rHPVY,2020-0188,2021-10-15,18:15:34,19:52:35,NA,incomplete,false,NA,true,4,7,NA,NA,NA,left,absent,NA,NA,n_s_051.jpg,gray,n_l_048.jpg,brown,between,NA,NaN,NA,left,3393.60000000149,1,1,1745.3999999985099
7O9rHPVY,322zsn9z6jxccjxbpgrk4cn83gtt4w,3uxuoq9okia63uefcg3c13di8co7au,7O9rHPVY,2020-0188,2021-10-15,18:15:34,19:52:35,NA,incomplete,false,NA,true,4,8,NA,NA,NA,right,absent,NA,NA,m_s_079.jpg,orange,n_s_021.jpg,orange,within,NA,NaN,NA,right,3393.2999999970198,1,0,2527.39999999851
7O9rHPVY,322zsn9z6jxccjxbpgrk4cn83gtt4w,3uxuoq9okia63uefcg3c13di8co7au,7O9rHPVY,2020-0188,2021-10-15,18:15:34,19:52:35,NA,incomplete,false,NA,true,4,9,NA,NA,NA,left,absent,NA,NA,n_l_082.jpg,blue,m_l_080.jpg,purple,between,NA,NaN,NA,left,2817.2999999970198,1,1,2369.1999999955297
7O9rHPVY,322zsn9z6jxccjxbpgrk4cn83gtt4w,3uxuoq9okia63uefcg3c13di8co7au,7O9rHPVY,2020-0188,2021-10-15,18:15:34,19:52:35,NA,incomplete,false,NA,true,4,10,NA,NA,NA,left,absent,NA,NA,m_s_016.jpg,white,m_l_084.jpg,blue,between,NA,NaN,NA,left,6487.20000000298,1,1,2705.7000000029802
7O9rHPVY,322zsn9z6jxccjxbpgrk4cn83gtt4w,3uxuoq9okia63uefcg3c13di8co7au,7O9rHPVY,2020-0188,2021-10-15,18:15:34,19:52:35,NA,incomplete,false,true,NA,5,0,NA,green,m_s_064.jpg,NA,NA,pleasant,unpleasant,NA,NA,NA,NA,NA,right,2015.89999999851,true,NA,NA,NA,NA,NA
7O9rHPVY,322zsn9z6jxccjxbpgrk4cn83gtt4w,3uxuoq9okia63uefcg3c13di8co7au,7O9rHPVY,2020-0188,2021-10-15,18:15:34,19:52:35,NA,incomplete,false,true,NA,5,1,NA,green,n_s_011.jpg,NA,NA,pleasant,unpleasant,NA,NA,NA,NA,NA,left,1629.69999999553,true,NA,NA,NA,NA,NA
7O9rHPVY,322zsn9z6jxccjxbpgrk4cn83gtt4w,3uxuoq9okia63uefcg3c13di8co7au,7O9rHPVY,2020-0188,2021-10-15,18:15:34,19:52:35,NA,incomplete,false,true,NA,5,2,NA,green,n_l_069.jpg,NA,NA,pleasant,unpleasant,NA,NA,NA,NA,NA,left,1257.30000000447,true,NA,NA,NA,NA,NA
7O9rHPVY,322zsn9z6jxccjxbpgrk4cn83gtt4w,3uxuoq9okia63uefcg3c13di8co7au,7O9rHPVY,2020-0188,2021-10-15,18:15:34,19:52:35,NA,incomplete,false,true,NA,5,3,NA,green,n_l_059.jpg,NA,NA,unpleasant,pleasant,NA,NA,NA,NA,NA,left,1653.40000000596,true,NA,NA,NA,NA,NA
7O9rHPVY,322zsn9z6jxccjxbpgrk4cn83gtt4w,3uxuoq9okia63uefcg3c13di8co7au,7O9rHPVY,2020-0188,2021-10-15,18:15:34,19:52:35,NA,incomplete,false,true,NA,5,4,NA,green,n_l_033.jpg,NA,NA,pleasant,unpleasant,NA,NA,NA,NA,NA,right,1626.10000000149,true,NA,NA,NA,NA,NA
7O9rHPVY,322zsn9z6jxccjxbpgrk4cn83gtt4w,3uxuoq9okia63uefcg3c13di8co7au,7O9rHPVY,2020-0188,2021-10-15,18:15:34,19:52:35,NA,incomplete,false,true,NA,5,5,NA,green,n_l_040.jpg,NA,NA,pleasant,unpleasant,NA,NA,NA,NA,NA,left,1166,true,NA,NA,NA,NA,NA
7O9rHPVY,322zsn9z6jxccjxbpgrk4cn83gtt4w,3uxuoq9okia63uefcg3c13di8co7au,7O9rHPVY,2020-0188,2021-10-15,18:15:34,19:52:35,NA,incomplete,false,true,NA,5,6,NA,orange,m_s_060.jpg,NA,NA,unpleasant,pleasant,NA,NA,NA,NA,NA,right,1538.60000000149,true,NA,NA,NA,NA,NA
7O9rHPVY,322zsn9z6jxccjxbpgrk4cn83gtt4w,3uxuoq9okia63uefcg3c13di8co7au,7O9rHPVY,2020-0188,2021-10-15,18:15:34,19:52:35,NA,incomplete,false,true,NA,5,7,NA,orange,m_l_073.jpg,NA,NA,unpleasant,pleasant,NA,NA,NA,NA,NA,left,1943.29999999702,true,NA,NA,NA,NA,NA
7O9rHPVY,322zsn9z6jxccjxbpgrk4cn83gtt4w,3uxuoq9okia63uefcg3c13di8co7au,7O9rHPVY,2020-0188,2021-10-15,18:15:34,19:52:35,NA,incomplete,false,true,NA,5,8,NA,orange,m_s_012.jpg,NA,NA,unpleasant,pleasant,NA,NA,NA,NA,NA,right,1331.20000000298,true,NA,NA,NA,NA,NA
7O9rHPVY,322zsn9z6jxccjxbpgrk4cn83gtt4w,3uxuoq9okia63uefcg3c13di8co7au,7O9rHPVY,2020-0188,2021-10-15,18:15:34,19:52:35,NA,incomplete,false,true,NA,5,9,NA,orange,m_s_116.jpg,NA,NA,pleasant,unpleasant,NA,NA,NA,NA,NA,left,1519.80000000447,true,NA,NA,NA,NA,NA
7O9rHPVY,322zsn9z6jxccjxbpgrk4cn83gtt4w,3uxuoq9okia63uefcg3c13di8co7au,7O9rHPVY,2020-0188,2021-10-15,18:15:34,19:52:35,NA,incomplete,false,true,NA,5,10,NA,orange,m_s_083.jpg,NA,NA,pleasant,unpleasant,NA,NA,NA,NA,NA,left,1444.5,true,NA,NA,NA,NA,NA
7O9rHPVY,322zsn9z6jxccjxbpgrk4cn83gtt4w,3uxuoq9okia63uefcg3c13di8co7au,7O9rHPVY,2020-0188,2021-10-15,18:15:34,19:52:35,NA,incomplete,false,true,NA,5,11,NA,orange,n_l_037.jpg,NA,NA,unpleasant,pleasant,NA,NA,NA,NA,NA,left,1576.5,true,NA,NA,NA,NA,NA
7O9rHPVY,322zsn9z6jxccjxbpgrk4cn83gtt4w,3uxuoq9okia63uefcg3c13di8co7au,7O9rHPVY,2020-0188,2021-10-15,18:15:34,19:52:35,NA,incomplete,false,true,NA,5,12,NA,black,n_l_009.jpg,NA,NA,pleasant,unpleasant,NA,NA,NA,NA,NA,left,1188.29999999702,true,NA,NA,NA,NA,NA
7O9rHPVY,322zsn9z6jxccjxbpgrk4cn83gtt4w,3uxuoq9okia63uefcg3c13di8co7au,7O9rHPVY,2020-0188,2021-10-15,18:15:34,19:52:35,NA,incomplete,false,true,NA,5,13,NA,black,n_s_103.jpg,NA,NA,pleasant,unpleasant,NA,NA,NA,NA,NA,left,1257.69999999553,true,NA,NA,NA,NA,NA
7O9rHPVY,322zsn9z6jxccjxbpgrk4cn83gtt4w,3uxuoq9okia63uefcg3c13di8co7au,7O9rHPVY,2020-0188,2021-10-15,18:15:34,19:52:35,NA,incomplete,false,true,NA,5,14,NA,black,n_s_062.jpg,NA,NA,pleasant,unpleasant,NA,NA,NA,NA,NA,right,1205.10000000149,true,NA,NA,NA,NA,NA
7O9rHPVY,322zsn9z6jxccjxbpgrk4cn83gtt4w,3uxuoq9okia63uefcg3c13di8co7au,7O9rHPVY,2020-0188,2021-10-15,18:15:34,19:52:35,NA,incomplete,false,true,NA,5,15,NA,black,n_s_032.jpg,NA,NA,pleasant,unpleasant,NA,NA,NA,NA,NA,right,2481.69999999553,true,NA,NA,NA,NA,NA
7O9rHPVY,322zsn9z6jxccjxbpgrk4cn83gtt4w,3uxuoq9okia63uefcg3c13di8co7au,7O9rHPVY,2020-0188,2021-10-15,18:15:34,19:52:35,NA,incomplete,false,true,NA,5,16,NA,black,m_l_008.jpg,NA,NA,pleasant,unpleasant,NA,NA,NA,NA,NA,left,1029.39999999851,true,NA,NA,NA,NA,NA
7O9rHPVY,322zsn9z6jxccjxbpgrk4cn83gtt4w,3uxuoq9okia63uefcg3c13di8co7au,7O9rHPVY,2020-0188,2021-10-15,18:15:34,19:52:35,NA,incomplete,false,true,NA,5,17,NA,black,m_l_024.jpg,NA,NA,unpleasant,pleasant,NA,NA,NA,NA,NA,right,2994.30000000447,true,NA,NA,NA,NA,NA
7O9rHPVY,322zsn9z6jxccjxbpgrk4cn83gtt4w,3uxuoq9okia63uefcg3c13di8co7au,7O9rHPVY,2020-0188,2021-10-15,18:15:34,19:52:35,NA,incomplete,false,true,NA,5,18,NA,purple,n_s_036.jpg,NA,NA,unpleasant,pleasant,NA,NA,NA,NA,NA,right,2968.79999999702,true,NA,NA,NA,NA,NA
7O9rHPVY,322zsn9z6jxccjxbpgrk4cn83gtt4w,3uxuoq9okia63uefcg3c13di8co7au,7O9rHPVY,2020-0188,2021-10-15,18:15:34,19:52:35,NA,incomplete,false,true,NA,5,19,NA,purple,n_s_100.jpg,NA,NA,unpleasant,pleasant,NA,NA,NA,NA,NA,right,1242.59999999404,true,NA,NA,NA,NA,NA
7O9rHPVY,322zsn9z6jxccjxbpgrk4cn83gtt4w,3uxuoq9okia63uefcg3c13di8co7au,7O9rHPVY,2020-0188,2021-10-15,18:15:34,19:52:35,NA,incomplete,false,true,NA,5,20,NA,purple,m_s_068.jpg,NA,NA,unpleasant,pleasant,NA,NA,NA,NA,NA,right,1575.39999999851,true,NA,NA,NA,NA,NA
7O9rHPVY,322zsn9z6jxccjxbpgrk4cn83gtt4w,3uxuoq9okia63uefcg3c13di8co7au,7O9rHPVY,2020-0188,2021-10-15,18:15:34,19:52:35,NA,incomplete,false,true,NA,5,21,NA,purple,m_s_063.jpg,NA,NA,unpleasant,pleasant,NA,NA,NA,NA,NA,right,1285,true,NA,NA,NA,NA,NA
7O9rHPVY,322zsn9z6jxccjxbpgrk4cn83gtt4w,3uxuoq9okia63uefcg3c13di8co7au,7O9rHPVY,2020-0188,2021-10-15,18:15:34,19:52:35,NA,incomplete,false,true,NA,5,22,NA,purple,m_l_018.jpg,NA,NA,pleasant,unpleasant,NA,NA,NA,NA,NA,left,1543.79999999702,true,NA,NA,NA,NA,NA
7O9rHPVY,322zsn9z6jxccjxbpgrk4cn83gtt4w,3uxuoq9okia63uefcg3c13di8co7au,7O9rHPVY,2020-0188,2021-10-15,18:15:34,19:52:35,NA,incomplete,false,true,NA,5,23,NA,purple,m_l_007.jpg,NA,NA,unpleasant,pleasant,NA,NA,NA,NA,NA,right,2156.80000000447,true,NA,NA,NA,NA,NA
7O9rHPVY,322zsn9z6jxccjxbpgrk4cn83gtt4w,3uxuoq9okia63uefcg3c13di8co7au,7O9rHPVY,2020-0188,2021-10-15,18:15:34,19:52:35,NA,incomplete,false,true,NA,5,24,NA,white,m_l_103.jpg,NA,NA,unpleasant,pleasant,NA,NA,NA,NA,NA,right,1233.20000000298,true,NA,NA,NA,NA,NA
7O9rHPVY,322zsn9z6jxccjxbpgrk4cn83gtt4w,3uxuoq9okia63uefcg3c13di8co7au,7O9rHPVY,2020-0188,2021-10-15,18:15:34,19:52:35,NA,incomplete,false,true,NA,5,25,NA,white,m_s_081.jpg,NA,NA,pleasant,unpleasant,NA,NA,NA,NA,NA,left,1197.20000000298,true,NA,NA,NA,NA,NA
7O9rHPVY,322zsn9z6jxccjxbpgrk4cn83gtt4w,3uxuoq9okia63uefcg3c13di8co7au,7O9rHPVY,2020-0188,2021-10-15,18:15:34,19:52:35,NA,incomplete,false,true,NA,5,26,NA,white,m_s_094.jpg,NA,NA,unpleasant,pleasant,NA,NA,NA,NA,NA,right,1345.79999999702,true,NA,NA,NA,NA,NA
7O9rHPVY,322zsn9z6jxccjxbpgrk4cn83gtt4w,3uxuoq9okia63uefcg3c13di8co7au,7O9rHPVY,2020-0188,2021-10-15,18:15:34,19:52:35,NA,incomplete,false,true,NA,5,27,NA,white,m_l_065.jpg,NA,NA,unpleasant,pleasant,NA,NA,NA,NA,NA,right,2023.20000000298,true,NA,NA,NA,NA,NA
7O9rHPVY,322zsn9z6jxccjxbpgrk4cn83gtt4w,3uxuoq9okia63uefcg3c13di8co7au,7O9rHPVY,2020-0188,2021-10-15,18:15:34,19:52:35,NA,incomplete,false,true,NA,5,28,NA,white,m_s_006.jpg,NA,NA,unpleasant,pleasant,NA,NA,NA,NA,NA,right,2682.60000000149,true,NA,NA,NA,NA,NA
7O9rHPVY,322zsn9z6jxccjxbpgrk4cn83gtt4w,3uxuoq9okia63uefcg3c13di8co7au,7O9rHPVY,2020-0188,2021-10-15,18:15:34,19:52:35,NA,incomplete,false,true,NA,5,29,NA,white,m_l_052.jpg,NA,NA,pleasant,unpleasant,NA,NA,NA,NA,NA,left,1295.39999999851,true,NA,NA,NA,NA,NA
7O9rHPVY,322zsn9z6jxccjxbpgrk4cn83gtt4w,3uxuoq9okia63uefcg3c13di8co7au,7O9rHPVY,2020-0188,2021-10-15,18:15:34,19:52:35,NA,incomplete,false,true,NA,5,30,NA,yellow,m_s_046.jpg,NA,NA,unpleasant,pleasant,NA,NA,NA,NA,NA,right,1236.5,true,NA,NA,NA,NA,NA
7O9rHPVY,322zsn9z6jxccjxbpgrk4cn83gtt4w,3uxuoq9okia63uefcg3c13di8co7au,7O9rHPVY,2020-0188,2021-10-15,18:15:34,19:52:35,NA,incomplete,false,true,NA,5,31,NA,yellow,m_l_082.jpg,NA,NA,pleasant,unpleasant,NA,NA,NA,NA,NA,right,1687.80000000447,true,NA,NA,NA,NA,NA
7O9rHPVY,322zsn9z6jxccjxbpgrk4cn83gtt4w,3uxuoq9okia63uefcg3c13di8co7au,7O9rHPVY,2020-0188,2021-10-15,18:15:34,19:52:35,NA,incomplete,false,true,NA,5,32,NA,yellow,m_l_094.jpg,NA,NA,pleasant,unpleasant,NA,NA,NA,NA,NA,right,2252.30000000447,true,NA,NA,NA,NA,NA
7O9rHPVY,322zsn9z6jxccjxbpgrk4cn83gtt4w,3uxuoq9okia63uefcg3c13di8co7au,7O9rHPVY,2020-0188,2021-10-15,18:15:34,19:52:35,NA,incomplete,false,true,NA,5,33,NA,yellow,m_l_013.jpg,NA,NA,pleasant,unpleasant,NA,NA,NA,NA,NA,left,1447.70000000298,true,NA,NA,NA,NA,NA
7O9rHPVY,322zsn9z6jxccjxbpgrk4cn83gtt4w,3uxuoq9okia63uefcg3c13di8co7au,7O9rHPVY,2020-0188,2021-10-15,18:15:34,19:52:35,NA,incomplete,false,true,NA,5,34,NA,yellow,n_l_083.jpg,NA,NA,unpleasant,pleasant,NA,NA,NA,NA,NA,right,2988.29999999702,true,NA,NA,NA,NA,NA
7O9rHPVY,322zsn9z6jxccjxbpgrk4cn83gtt4w,3uxuoq9okia63uefcg3c13di8co7au,7O9rHPVY,2020-0188,2021-10-15,18:15:34,19:52:35,NA,incomplete,false,true,NA,5,35,NA,yellow,n_s_038.jpg,NA,NA,pleasant,unpleasant,NA,NA,NA,NA,NA,left,1800.79999999702,true,NA,NA,NA,NA,NA
7O9rHPVY,322zsn9z6jxccjxbpgrk4cn83gtt4w,3uxuoq9okia63uefcg3c13di8co7au,7O9rHPVY,2020-0188,2021-10-15,18:15:34,19:52:35,NA,incomplete,false,NA,true,5,0,NA,NA,NA,right,present,NA,NA,m_l_094.jpg,yellow,m_s_006.jpg,white,between,NA,NaN,NA,left,4206.20000000298,0,2,2390.1999999955297
7O9rHPVY,322zsn9z6jxccjxbpgrk4cn83gtt4w,3uxuoq9okia63uefcg3c13di8co7au,7O9rHPVY,2020-0188,2021-10-15,18:15:34,19:52:35,NA,incomplete,false,NA,true,5,1,NA,NA,NA,left,present,NA,NA,m_l_082.jpg,yellow,n_s_038.jpg,yellow,within,NA,NaN,NA,left,2717.2999999970198,1,2,2211.89999999851
7O9rHPVY,322zsn9z6jxccjxbpgrk4cn83gtt4w,3uxuoq9okia63uefcg3c13di8co7au,7O9rHPVY,2020-0188,2021-10-15,18:15:34,19:52:35,NA,incomplete,false,NA,true,5,2,NA,NA,NA,left,present,NA,NA,m_l_008.jpg,black,m_s_068.jpg,purple,between,NA,NaN,NA,left,4591.20000000298,1,1,1434.7000000029802
7O9rHPVY,322zsn9z6jxccjxbpgrk4cn83gtt4w,3uxuoq9okia63uefcg3c13di8co7au,7O9rHPVY,2020-0188,2021-10-15,18:15:34,19:52:35,NA,incomplete,false,NA,true,5,3,NA,NA,NA,right,present,NA,NA,n_l_037.jpg,orange,m_l_073.jpg,orange,within,NA,NaN,NA,right,3858.5,1,2,1965.3999999985099
7O9rHPVY,322zsn9z6jxccjxbpgrk4cn83gtt4w,3uxuoq9okia63uefcg3c13di8co7au,7O9rHPVY,2020-0188,2021-10-15,18:15:34,19:52:35,NA,incomplete,false,NA,true,5,4,NA,NA,NA,left,present,NA,NA,n_s_011.jpg,green,n_l_040.jpg,green,within,NA,NaN,NA,right,1750.3999999985099,0,1,2516.39999999851
7O9rHPVY,322zsn9z6jxccjxbpgrk4cn83gtt4w,3uxuoq9okia63uefcg3c13di8co7au,7O9rHPVY,2020-0188,2021-10-15,18:15:34,19:52:35,NA,incomplete,false,NA,true,5,5,NA,NA,NA,right,present,NA,NA,m_s_094.jpg,white,m_l_018.jpg,purple,between,NA,NaN,NA,right,3822.2000000029802,1,1,2077.39999999851
7O9rHPVY,322zsn9z6jxccjxbpgrk4cn83gtt4w,3uxuoq9okia63uefcg3c13di8co7au,7O9rHPVY,2020-0188,2021-10-15,18:15:34,19:52:35,NA,incomplete,false,NA,true,5,6,NA,NA,NA,left,present,NA,NA,m_s_081.jpg,white,m_l_052.jpg,white,within,NA,NaN,NA,left,3025.1999999955297,1,2,1935.5
7O9rHPVY,322zsn9z6jxccjxbpgrk4cn83gtt4w,3uxuoq9okia63uefcg3c13di8co7au,7O9rHPVY,2020-0188,2021-10-15,18:15:34,19:52:35,NA,incomplete,false,NA,true,5,7,NA,NA,NA,left,present,NA,NA,n_l_033.jpg,green,m_s_012.jpg,orange,between,NA,NaN,NA,left,3650.2999999970198,1,2,4265.5
7O9rHPVY,322zsn9z6jxccjxbpgrk4cn83gtt4w,3uxuoq9okia63uefcg3c13di8co7au,7O9rHPVY,2020-0188,2021-10-15,18:15:34,19:52:35,NA,incomplete,false,NA,true,5,8,NA,NA,NA,right,present,NA,NA,n_s_062.jpg,black,m_s_083.jpg,orange,between,NA,NaN,NA,right,4674.0999999940395,1,1,2004.2999999970198
7O9rHPVY,322zsn9z6jxccjxbpgrk4cn83gtt4w,3uxuoq9okia63uefcg3c13di8co7au,7O9rHPVY,2020-0188,2021-10-15,18:15:34,19:52:35,NA,incomplete,false,NA,true,5,9,NA,NA,NA,right,present,NA,NA,m_l_007.jpg,purple,n_s_100.jpg,purple,within,NA,NaN,NA,right,5687.10000000149,1,1,2291.0999999940395
7O9rHPVY,322zsn9z6jxccjxbpgrk4cn83gtt4w,3uxuoq9okia63uefcg3c13di8co7au,7O9rHPVY,2020-0188,2021-10-15,18:15:34,19:52:35,NA,incomplete,false,NA,true,5,10,NA,NA,NA,right,present,NA,NA,m_l_024.jpg,black,n_s_103.jpg,black,within,NA,NaN,NA,left,5244.5,0,1,3163.1999999955297
7O9rHPVY,322zsn9z6jxccjxbpgrk4cn83gtt4w,3uxuoq9okia63uefcg3c13di8co7au,7O9rHPVY,2020-0188,2021-10-15,18:15:34,19:52:35,NA,incomplete,false,true,NA,6,0,NA,black,m_s_015.jpg,NA,NA,pleasant,unpleasant,NA,NA,NA,NA,NA,right,2051.10000000149,true,NA,NA,NA,NA,NA
7O9rHPVY,322zsn9z6jxccjxbpgrk4cn83gtt4w,3uxuoq9okia63uefcg3c13di8co7au,7O9rHPVY,2020-0188,2021-10-15,18:15:34,19:52:35,NA,incomplete,false,true,NA,6,1,NA,black,n_s_112.jpg,NA,NA,pleasant,unpleasant,NA,NA,NA,NA,NA,left,2726.70000000298,true,NA,NA,NA,NA,NA
7O9rHPVY,322zsn9z6jxccjxbpgrk4cn83gtt4w,3uxuoq9okia63uefcg3c13di8co7au,7O9rHPVY,2020-0188,2021-10-15,18:15:34,19:52:35,NA,incomplete,false,true,NA,6,2,NA,black,m_s_099.jpg,NA,NA,unpleasant,pleasant,NA,NA,NA,NA,NA,right,1723,true,NA,NA,NA,NA,NA
7O9rHPVY,322zsn9z6jxccjxbpgrk4cn83gtt4w,3uxuoq9okia63uefcg3c13di8co7au,7O9rHPVY,2020-0188,2021-10-15,18:15:34,19:52:35,NA,incomplete,false,true,NA,6,3,NA,black,n_l_078.jpg,NA,NA,pleasant,unpleasant,NA,NA,NA,NA,NA,right,1400.20000000298,true,NA,NA,NA,NA,NA
7O9rHPVY,322zsn9z6jxccjxbpgrk4cn83gtt4w,3uxuoq9okia63uefcg3c13di8co7au,7O9rHPVY,2020-0188,2021-10-15,18:15:34,19:52:35,NA,incomplete,false,true,NA,6,4,NA,black,m_s_020.jpg,NA,NA,pleasant,unpleasant,NA,NA,NA,NA,NA,left,1171.90000000596,true,NA,NA,NA,NA,NA
7O9rHPVY,322zsn9z6jxccjxbpgrk4cn83gtt4w,3uxuoq9okia63uefcg3c13di8co7au,7O9rHPVY,2020-0188,2021-10-15,18:15:34,19:52:35,NA,incomplete,false,true,NA,6,5,NA,black,m_s_080.jpg,NA,NA,pleasant,unpleasant,NA,NA,NA,NA,NA,left,2255.89999999851,true,NA,NA,NA,NA,NA
7O9rHPVY,322zsn9z6jxccjxbpgrk4cn83gtt4w,3uxuoq9okia63uefcg3c13di8co7au,7O9rHPVY,2020-0188,2021-10-15,18:15:34,19:52:35,NA,incomplete,false,true,NA,6,6,NA,purple,n_l_091.jpg,NA,NA,unpleasant,pleasant,NA,NA,NA,NA,NA,right,1972.5,true,NA,NA,NA,NA,NA
7O9rHPVY,322zsn9z6jxccjxbpgrk4cn83gtt4w,3uxuoq9okia63uefcg3c13di8co7au,7O9rHPVY,2020-0188,2021-10-15,18:15:34,19:52:35,NA,incomplete,false,true,NA,6,7,NA,purple,m_s_072.jpg,NA,NA,pleasant,unpleasant,NA,NA,NA,NA,NA,left,2151.70000000298,true,NA,NA,NA,NA,NA
7O9rHPVY,322zsn9z6jxccjxbpgrk4cn83gtt4w,3uxuoq9okia63uefcg3c13di8co7au,7O9rHPVY,2020-0188,2021-10-15,18:15:34,19:52:35,NA,incomplete,false,true,NA,6,8,NA,purple,n_l_025.jpg,NA,NA,pleasant,unpleasant,NA,NA,NA,NA,NA,right,1939.70000000298,true,NA,NA,NA,NA,NA
7O9rHPVY,322zsn9z6jxccjxbpgrk4cn83gtt4w,3uxuoq9okia63uefcg3c13di8co7au,7O9rHPVY,2020-0188,2021-10-15,18:15:34,19:52:35,NA,incomplete,false,true,NA,6,9,NA,purple,n_l_028.jpg,NA,NA,pleasant,unpleasant,NA,NA,NA,NA,NA,right,1584.39999999851,true,NA,NA,NA,NA,NA
7O9rHPVY,322zsn9z6jxccjxbpgrk4cn83gtt4w,3uxuoq9okia63uefcg3c13di8co7au,7O9rHPVY,2020-0188,2021-10-15,18:15:34,19:52:35,NA,incomplete,false,true,NA,6,10,NA,purple,m_s_045.jpg,NA,NA,unpleasant,pleasant,NA,NA,NA,NA,NA,right,1688.29999999702,true,NA,NA,NA,NA,NA
7O9rHPVY,322zsn9z6jxccjxbpgrk4cn83gtt4w,3uxuoq9okia63uefcg3c13di8co7au,7O9rHPVY,2020-0188,2021-10-15,18:15:34,19:52:35,NA,incomplete,false,true,NA,6,11,NA,purple,n_l_006.jpg,NA,NA,unpleasant,pleasant,NA,NA,NA,NA,NA,right,2840.39999999851,true,NA,NA,NA,NA,NA
7O9rHPVY,322zsn9z6jxccjxbpgrk4cn83gtt4w,3uxuoq9okia63uefcg3c13di8co7au,7O9rHPVY,2020-0188,2021-10-15,18:15:34,19:52:35,NA,incomplete,false,true,NA,6,12,NA,blue,m_s_082.jpg,NA,NA,unpleasant,pleasant,NA,NA,NA,NA,NA,right,1667.5,true,NA,NA,NA,NA,NA
7O9rHPVY,322zsn9z6jxccjxbpgrk4cn83gtt4w,3uxuoq9okia63uefcg3c13di8co7au,7O9rHPVY,2020-0188,2021-10-15,18:15:34,19:52:35,NA,incomplete,false,true,NA,6,13,NA,blue,m_s_061.jpg,NA,NA,unpleasant,pleasant,NA,NA,NA,NA,NA,right,1234.70000000298,true,NA,NA,NA,NA,NA
7O9rHPVY,322zsn9z6jxccjxbpgrk4cn83gtt4w,3uxuoq9okia63uefcg3c13di8co7au,7O9rHPVY,2020-0188,2021-10-15,18:15:34,19:52:35,NA,incomplete,false,true,NA,6,14,NA,blue,n_l_114.jpg,NA,NA,unpleasant,pleasant,NA,NA,NA,NA,NA,left,1476.10000000149,true,NA,NA,NA,NA,NA
7O9rHPVY,322zsn9z6jxccjxbpgrk4cn83gtt4w,3uxuoq9okia63uefcg3c13di8co7au,7O9rHPVY,2020-0188,2021-10-15,18:15:34,19:52:35,NA,incomplete,false,true,NA,6,15,NA,blue,n_s_072.jpg,NA,NA,unpleasant,pleasant,NA,NA,NA,NA,NA,right,1136.10000000149,true,NA,NA,NA,NA,NA
7O9rHPVY,322zsn9z6jxccjxbpgrk4cn83gtt4w,3uxuoq9okia63uefcg3c13di8co7au,7O9rHPVY,2020-0188,2021-10-15,18:15:34,19:52:35,NA,incomplete,false,true,NA,6,16,NA,blue,n_s_093.jpg,NA,NA,pleasant,unpleasant,NA,NA,NA,NA,NA,right,1444.20000000298,true,NA,NA,NA,NA,NA
7O9rHPVY,322zsn9z6jxccjxbpgrk4cn83gtt4w,3uxuoq9okia63uefcg3c13di8co7au,7O9rHPVY,2020-0188,2021-10-15,18:15:34,19:52:35,NA,incomplete,false,true,NA,6,17,NA,blue,n_s_060.jpg,NA,NA,unpleasant,pleasant,NA,NA,NA,NA,NA,right,1393.39999999851,true,NA,NA,NA,NA,NA
7O9rHPVY,322zsn9z6jxccjxbpgrk4cn83gtt4w,3uxuoq9okia63uefcg3c13di8co7au,7O9rHPVY,2020-0188,2021-10-15,18:15:34,19:52:35,NA,incomplete,false,true,NA,6,18,NA,yellow,m_s_014.jpg,NA,NA,unpleasant,pleasant,NA,NA,NA,NA,NA,right,1197.70000000298,true,NA,NA,NA,NA,NA
7O9rHPVY,322zsn9z6jxccjxbpgrk4cn83gtt4w,3uxuoq9okia63uefcg3c13di8co7au,7O9rHPVY,2020-0188,2021-10-15,18:15:34,19:52:35,NA,incomplete,false,true,NA,6,19,NA,yellow,m_l_109.jpg,NA,NA,pleasant,unpleasant,NA,NA,NA,NA,NA,left,1570.20000000298,true,NA,NA,NA,NA,NA
7O9rHPVY,322zsn9z6jxccjxbpgrk4cn83gtt4w,3uxuoq9okia63uefcg3c13di8co7au,7O9rHPVY,2020-0188,2021-10-15,18:15:34,19:52:35,NA,incomplete,false,true,NA,6,20,NA,yellow,m_l_034.jpg,NA,NA,unpleasant,pleasant,NA,NA,NA,NA,NA,right,1214.70000000298,true,NA,NA,NA,NA,NA
7O9rHPVY,322zsn9z6jxccjxbpgrk4cn83gtt4w,3uxuoq9okia63uefcg3c13di8co7au,7O9rHPVY,2020-0188,2021-10-15,18:15:34,19:52:35,NA,incomplete,false,true,NA,6,21,NA,yellow,n_s_080.jpg,NA,NA,unpleasant,pleasant,NA,NA,NA,NA,NA,left,1282.60000000149,true,NA,NA,NA,NA,NA
7O9rHPVY,322zsn9z6jxccjxbpgrk4cn83gtt4w,3uxuoq9okia63uefcg3c13di8co7au,7O9rHPVY,2020-0188,2021-10-15,18:15:34,19:52:35,NA,incomplete,false,true,NA,6,22,NA,yellow,n_l_007.jpg,NA,NA,unpleasant,pleasant,NA,NA,NA,NA,NA,right,1391.20000000298,true,NA,NA,NA,NA,NA
7O9rHPVY,322zsn9z6jxccjxbpgrk4cn83gtt4w,3uxuoq9okia63uefcg3c13di8co7au,7O9rHPVY,2020-0188,2021-10-15,18:15:34,19:52:35,NA,incomplete,false,true,NA,6,23,NA,yellow,m_l_037.jpg,NA,NA,unpleasant,pleasant,NA,NA,NA,NA,NA,left,1691.89999999851,true,NA,NA,NA,NA,NA
7O9rHPVY,322zsn9z6jxccjxbpgrk4cn83gtt4w,3uxuoq9okia63uefcg3c13di8co7au,7O9rHPVY,2020-0188,2021-10-15,18:15:34,19:52:35,NA,incomplete,false,true,NA,6,24,NA,green,m_s_026.jpg,NA,NA,pleasant,unpleasant,NA,NA,NA,NA,NA,right,2400.10000000149,true,NA,NA,NA,NA,NA
7O9rHPVY,322zsn9z6jxccjxbpgrk4cn83gtt4w,3uxuoq9okia63uefcg3c13di8co7au,7O9rHPVY,2020-0188,2021-10-15,18:15:34,19:52:35,NA,incomplete,false,true,NA,6,25,NA,green,m_s_010.jpg,NA,NA,unpleasant,pleasant,NA,NA,NA,NA,NA,right,1764.70000000298,true,NA,NA,NA,NA,NA
7O9rHPVY,322zsn9z6jxccjxbpgrk4cn83gtt4w,3uxuoq9okia63uefcg3c13di8co7au,7O9rHPVY,2020-0188,2021-10-15,18:15:34,19:52:35,NA,incomplete,false,true,NA,6,26,NA,green,n_l_001.jpg,NA,NA,pleasant,unpleasant,NA,NA,NA,NA,NA,left,1465.80000000447,true,NA,NA,NA,NA,NA
7O9rHPVY,322zsn9z6jxccjxbpgrk4cn83gtt4w,3uxuoq9okia63uefcg3c13di8co7au,7O9rHPVY,2020-0188,2021-10-15,18:15:34,19:52:35,NA,incomplete,false,true,NA,6,27,NA,green,m_s_088.jpg,NA,NA,pleasant,unpleasant,NA,NA,NA,NA,NA,right,1701.79999999702,true,NA,NA,NA,NA,NA
7O9rHPVY,322zsn9z6jxccjxbpgrk4cn83gtt4w,3uxuoq9okia63uefcg3c13di8co7au,7O9rHPVY,2020-0188,2021-10-15,18:15:34,19:52:35,NA,incomplete,false,true,NA,6,28,NA,green,m_l_077.jpg,NA,NA,pleasant,unpleasant,NA,NA,NA,NA,NA,right,2097.70000000298,true,NA,NA,NA,NA,NA
7O9rHPVY,322zsn9z6jxccjxbpgrk4cn83gtt4w,3uxuoq9okia63uefcg3c13di8co7au,7O9rHPVY,2020-0188,2021-10-15,18:15:34,19:52:35,NA,incomplete,false,true,NA,6,29,NA,green,m_s_017.jpg,NA,NA,unpleasant,pleasant,NA,NA,NA,NA,NA,right,1679.10000000149,true,NA,NA,NA,NA,NA
7O9rHPVY,322zsn9z6jxccjxbpgrk4cn83gtt4w,3uxuoq9okia63uefcg3c13di8co7au,7O9rHPVY,2020-0188,2021-10-15,18:15:34,19:52:35,NA,incomplete,false,true,NA,6,30,NA,white,n_s_106.jpg,NA,NA,unpleasant,pleasant,NA,NA,NA,NA,NA,right,1467.10000000149,true,NA,NA,NA,NA,NA
7O9rHPVY,322zsn9z6jxccjxbpgrk4cn83gtt4w,3uxuoq9okia63uefcg3c13di8co7au,7O9rHPVY,2020-0188,2021-10-15,18:15:34,19:52:35,NA,incomplete,false,true,NA,6,31,NA,white,n_l_041.jpg,NA,NA,unpleasant,pleasant,NA,NA,NA,NA,NA,left,1684.39999999851,true,NA,NA,NA,NA,NA
7O9rHPVY,322zsn9z6jxccjxbpgrk4cn83gtt4w,3uxuoq9okia63uefcg3c13di8co7au,7O9rHPVY,2020-0188,2021-10-15,18:15:34,19:52:35,NA,incomplete,false,true,NA,6,32,NA,white,n_l_074.jpg,NA,NA,pleasant,unpleasant,NA,NA,NA,NA,NA,left,1524,true,NA,NA,NA,NA,NA
7O9rHPVY,322zsn9z6jxccjxbpgrk4cn83gtt4w,3uxuoq9okia63uefcg3c13di8co7au,7O9rHPVY,2020-0188,2021-10-15,18:15:34,19:52:35,NA,incomplete,false,true,NA,6,33,NA,white,m_l_061.jpg,NA,NA,pleasant,unpleasant,NA,NA,NA,NA,NA,left,1399.70000000298,true,NA,NA,NA,NA,NA
7O9rHPVY,322zsn9z6jxccjxbpgrk4cn83gtt4w,3uxuoq9okia63uefcg3c13di8co7au,7O9rHPVY,2020-0188,2021-10-15,18:15:34,19:52:35,NA,incomplete,false,true,NA,6,34,NA,white,n_s_094.jpg,NA,NA,unpleasant,pleasant,NA,NA,NA,NA,NA,left,2244.10000000149,true,NA,NA,NA,NA,NA
7O9rHPVY,322zsn9z6jxccjxbpgrk4cn83gtt4w,3uxuoq9okia63uefcg3c13di8co7au,7O9rHPVY,2020-0188,2021-10-15,18:15:34,19:52:35,NA,incomplete,false,true,NA,6,35,NA,white,m_l_040.jpg,NA,NA,unpleasant,pleasant,NA,NA,NA,NA,NA,right,3480.60000000149,true,NA,NA,NA,NA,NA
7O9rHPVY,322zsn9z6jxccjxbpgrk4cn83gtt4w,3uxuoq9okia63uefcg3c13di8co7au,7O9rHPVY,2020-0188,2021-10-15,18:15:34,19:52:35,NA,incomplete,false,NA,true,6,0,NA,NA,NA,left,present,NA,NA,m_l_109.jpg,yellow,m_l_037.jpg,yellow,within,NA,NaN,NA,right,2985.10000000149,0,1,1622.3999999985099
7O9rHPVY,322zsn9z6jxccjxbpgrk4cn83gtt4w,3uxuoq9okia63uefcg3c13di8co7au,7O9rHPVY,2020-0188,2021-10-15,18:15:34,19:52:35,NA,incomplete,false,NA,true,6,1,NA,NA,NA,left,present,NA,NA,m_s_045.jpg,purple,n_l_114.jpg,blue,between,NA,NaN,NA,left,3884.39999999851,1,1,1558.1999999955297
7O9rHPVY,322zsn9z6jxccjxbpgrk4cn83gtt4w,3uxuoq9okia63uefcg3c13di8co7au,7O9rHPVY,2020-0188,2021-10-15,18:15:34,19:52:35,NA,incomplete,false,NA,true,6,2,NA,NA,NA,right,present,NA,NA,n_l_025.jpg,purple,m_s_020.jpg,black,between,NA,NaN,NA,right,5561.39999999851,1,2,1431.2999999970198
7O9rHPVY,322zsn9z6jxccjxbpgrk4cn83gtt4w,3uxuoq9okia63uefcg3c13di8co7au,7O9rHPVY,2020-0188,2021-10-15,18:15:34,19:52:35,NA,incomplete,false,NA,true,6,3,NA,NA,NA,right,present,NA,NA,m_l_034.jpg,yellow,n_s_093.jpg,blue,between,NA,NaN,NA,left,2455.1999999955297,0,2,2331.1999999955297
7O9rHPVY,322zsn9z6jxccjxbpgrk4cn83gtt4w,3uxuoq9okia63uefcg3c13di8co7au,7O9rHPVY,2020-0188,2021-10-15,18:15:34,19:52:35,NA,incomplete,false,NA,true,6,4,NA,NA,NA,right,present,NA,NA,n_l_001.jpg,green,n_l_007.jpg,yellow,between,NA,NaN,NA,left,5984.39999999851,0,1,1349.1999999955297
7O9rHPVY,322zsn9z6jxccjxbpgrk4cn83gtt4w,3uxuoq9okia63uefcg3c13di8co7au,7O9rHPVY,2020-0188,2021-10-15,18:15:34,19:52:35,NA,incomplete,false,NA,true,6,5,NA,NA,NA,right,present,NA,NA,m_s_080.jpg,black,n_s_112.jpg,black,within,NA,NaN,NA,right,4513.39999999851,1,1,1753.2999999970198
7O9rHPVY,322zsn9z6jxccjxbpgrk4cn83gtt4w,3uxuoq9okia63uefcg3c13di8co7au,7O9rHPVY,2020-0188,2021-10-15,18:15:34,19:52:35,NA,incomplete,false,NA,true,6,6,NA,NA,NA,left,present,NA,NA,m_s_072.jpg,purple,n_l_006.jpg,purple,within,NA,NaN,NA,left,2294.2999999970198,1,2,2376.10000000149
7O9rHPVY,322zsn9z6jxccjxbpgrk4cn83gtt4w,3uxuoq9okia63uefcg3c13di8co7au,7O9rHPVY,2020-0188,2021-10-15,18:15:34,19:52:35,NA,incomplete,false,NA,true,6,7,NA,NA,NA,left,present,NA,NA,m_s_061.jpg,blue,n_s_060.jpg,blue,within,NA,NaN,NA,right,2670.2999999970198,0,2,3004.2999999970198
7O9rHPVY,322zsn9z6jxccjxbpgrk4cn83gtt4w,3uxuoq9okia63uefcg3c13di8co7au,7O9rHPVY,2020-0188,2021-10-15,18:15:34,19:52:35,NA,incomplete,false,NA,true,6,8,NA,NA,NA,right,present,NA,NA,m_s_017.jpg,green,m_s_010.jpg,green,within,NA,NaN,NA,left,5931.20000000298,0,2,1800.3000000044703
7O9rHPVY,322zsn9z6jxccjxbpgrk4cn83gtt4w,3uxuoq9okia63uefcg3c13di8co7au,7O9rHPVY,2020-0188,2021-10-15,18:15:34,19:52:35,NA,incomplete,false,NA,true,6,9,NA,NA,NA,right,present,NA,NA,n_l_074.jpg,white,m_l_077.jpg,green,between,NA,NaN,NA,left,6446.20000000298,0,1,2561.2000000029802
7O9rHPVY,322zsn9z6jxccjxbpgrk4cn83gtt4w,3uxuoq9okia63uefcg3c13di8co7au,7O9rHPVY,2020-0188,2021-10-15,18:15:34,19:52:35,NA,incomplete,false,NA,true,6,10,NA,NA,NA,left,present,NA,NA,n_l_041.jpg,white,m_l_040.jpg,white,within,NA,NaN,NA,right,1761.2999999970198,0,2,1691.1999999955297
7O9rHPVY,322zsn9z6jxccjxbpgrk4cn83gtt4w,3uxuoq9okia63uefcg3c13di8co7au,7O9rHPVY,2020-0188,2021-10-15,18:15:34,19:52:35,NA,incomplete,false,true,NA,7,0,NA,purple,n_s_073.jpg,NA,NA,unpleasant,pleasant,NA,NA,NA,NA,NA,right,2808.29999999702,true,NA,NA,NA,NA,NA
7O9rHPVY,322zsn9z6jxccjxbpgrk4cn83gtt4w,3uxuoq9okia63uefcg3c13di8co7au,7O9rHPVY,2020-0188,2021-10-15,18:15:34,19:52:35,NA,incomplete,false,true,NA,7,1,NA,purple,n_l_073.jpg,NA,NA,pleasant,unpleasant,NA,NA,NA,NA,NA,left,1388.60000000149,true,NA,NA,NA,NA,NA
7O9rHPVY,322zsn9z6jxccjxbpgrk4cn83gtt4w,3uxuoq9okia63uefcg3c13di8co7au,7O9rHPVY,2020-0188,2021-10-15,18:15:34,19:52:35,NA,incomplete,false,true,NA,7,2,NA,purple,m_l_058.jpg,NA,NA,unpleasant,pleasant,NA,NA,NA,NA,NA,right,2809.19999999553,true,NA,NA,NA,NA,NA
7O9rHPVY,322zsn9z6jxccjxbpgrk4cn83gtt4w,3uxuoq9okia63uefcg3c13di8co7au,7O9rHPVY,2020-0188,2021-10-15,18:15:34,19:52:35,NA,incomplete,false,true,NA,7,3,NA,purple,m_s_031.jpg,NA,NA,unpleasant,pleasant,NA,NA,NA,NA,NA,right,1468.89999999851,true,NA,NA,NA,NA,NA
7O9rHPVY,322zsn9z6jxccjxbpgrk4cn83gtt4w,3uxuoq9okia63uefcg3c13di8co7au,7O9rHPVY,2020-0188,2021-10-15,18:15:34,19:52:35,NA,incomplete,false,true,NA,7,4,NA,purple,n_l_052.jpg,NA,NA,pleasant,unpleasant,NA,NA,NA,NA,NA,right,3177.30000000447,true,NA,NA,NA,NA,NA
7O9rHPVY,322zsn9z6jxccjxbpgrk4cn83gtt4w,3uxuoq9okia63uefcg3c13di8co7au,7O9rHPVY,2020-0188,2021-10-15,18:15:34,19:52:35,NA,incomplete,false,true,NA,7,5,NA,purple,n_s_039.jpg,NA,NA,pleasant,unpleasant,NA,NA,NA,NA,NA,left,1766.10000000149,true,NA,NA,NA,NA,NA
7O9rHPVY,322zsn9z6jxccjxbpgrk4cn83gtt4w,3uxuoq9okia63uefcg3c13di8co7au,7O9rHPVY,2020-0188,2021-10-15,18:15:34,19:52:35,NA,incomplete,false,true,NA,7,6,NA,red,m_s_008.jpg,NA,NA,unpleasant,pleasant,NA,NA,NA,NA,NA,right,1202.29999999702,true,NA,NA,NA,NA,NA
7O9rHPVY,322zsn9z6jxccjxbpgrk4cn83gtt4w,3uxuoq9okia63uefcg3c13di8co7au,7O9rHPVY,2020-0188,2021-10-15,18:15:34,19:52:35,NA,incomplete,false,true,NA,7,7,NA,red,n_s_009.jpg,NA,NA,pleasant,unpleasant,NA,NA,NA,NA,NA,left,1910.39999999851,true,NA,NA,NA,NA,NA
7O9rHPVY,322zsn9z6jxccjxbpgrk4cn83gtt4w,3uxuoq9okia63uefcg3c13di8co7au,7O9rHPVY,2020-0188,2021-10-15,18:15:34,19:52:35,NA,incomplete,false,true,NA,7,8,NA,red,m_l_032.jpg,NA,NA,pleasant,unpleasant,NA,NA,NA,NA,NA,left,1299.79999999702,true,NA,NA,NA,NA,NA
7O9rHPVY,322zsn9z6jxccjxbpgrk4cn83gtt4w,3uxuoq9okia63uefcg3c13di8co7au,7O9rHPVY,2020-0188,2021-10-15,18:15:34,19:52:35,NA,incomplete,false,true,NA,7,9,NA,red,m_s_001.jpg,NA,NA,pleasant,unpleasant,NA,NA,NA,NA,NA,left,1183.80000000447,true,NA,NA,NA,NA,NA
7O9rHPVY,322zsn9z6jxccjxbpgrk4cn83gtt4w,3uxuoq9okia63uefcg3c13di8co7au,7O9rHPVY,2020-0188,2021-10-15,18:15:34,19:52:35,NA,incomplete,false,true,NA,7,10,NA,red,n_s_046.jpg,NA,NA,pleasant,unpleasant,NA,NA,NA,NA,NA,right,1140.30000000447,true,NA,NA,NA,NA,NA
7O9rHPVY,322zsn9z6jxccjxbpgrk4cn83gtt4w,3uxuoq9okia63uefcg3c13di8co7au,7O9rHPVY,2020-0188,2021-10-15,18:15:34,19:52:35,NA,incomplete,false,true,NA,7,11,NA,red,m_l_019.jpg,NA,NA,pleasant,unpleasant,NA,NA,NA,NA,NA,left,1840.89999999851,true,NA,NA,NA,NA,NA
7O9rHPVY,322zsn9z6jxccjxbpgrk4cn83gtt4w,3uxuoq9okia63uefcg3c13di8co7au,7O9rHPVY,2020-0188,2021-10-15,18:15:34,19:52:35,NA,incomplete,false,true,NA,7,12,NA,brown,m_s_019.jpg,NA,NA,unpleasant,pleasant,NA,NA,NA,NA,NA,right,1548.30000000447,true,NA,NA,NA,NA,NA
7O9rHPVY,322zsn9z6jxccjxbpgrk4cn83gtt4w,3uxuoq9okia63uefcg3c13di8co7au,7O9rHPVY,2020-0188,2021-10-15,18:15:34,19:52:35,NA,incomplete,false,true,NA,7,13,NA,brown,n_s_108.jpg,NA,NA,unpleasant,pleasant,NA,NA,NA,NA,NA,left,1496.79999999702,true,NA,NA,NA,NA,NA
7O9rHPVY,322zsn9z6jxccjxbpgrk4cn83gtt4w,3uxuoq9okia63uefcg3c13di8co7au,7O9rHPVY,2020-0188,2021-10-15,18:15:34,19:52:35,NA,incomplete,false,true,NA,7,14,NA,brown,m_s_054.jpg,NA,NA,unpleasant,pleasant,NA,NA,NA,NA,NA,left,1302.19999999553,true,NA,NA,NA,NA,NA
7O9rHPVY,322zsn9z6jxccjxbpgrk4cn83gtt4w,3uxuoq9okia63uefcg3c13di8co7au,7O9rHPVY,2020-0188,2021-10-15,18:15:34,19:52:35,NA,incomplete,false,true,NA,7,15,NA,brown,m_l_011.jpg,NA,NA,pleasant,unpleasant,NA,NA,NA,NA,NA,right,1985.39999999851,true,NA,NA,NA,NA,NA
7O9rHPVY,322zsn9z6jxccjxbpgrk4cn83gtt4w,3uxuoq9okia63uefcg3c13di8co7au,7O9rHPVY,2020-0188,2021-10-15,18:15:34,19:52:35,NA,incomplete,false,true,NA,7,16,NA,brown,m_l_074.jpg,NA,NA,unpleasant,pleasant,NA,NA,NA,NA,NA,right,1773.29999999702,true,NA,NA,NA,NA,NA
7O9rHPVY,322zsn9z6jxccjxbpgrk4cn83gtt4w,3uxuoq9okia63uefcg3c13di8co7au,7O9rHPVY,2020-0188,2021-10-15,18:15:34,19:52:35,NA,incomplete,false,true,NA,7,17,NA,brown,n_s_115.jpg,NA,NA,unpleasant,pleasant,NA,NA,NA,NA,NA,right,1697.89999999851,true,NA,NA,NA,NA,NA
7O9rHPVY,322zsn9z6jxccjxbpgrk4cn83gtt4w,3uxuoq9okia63uefcg3c13di8co7au,7O9rHPVY,2020-0188,2021-10-15,18:15:34,19:52:35,NA,incomplete,false,true,NA,7,18,NA,gray,n_s_026.jpg,NA,NA,unpleasant,pleasant,NA,NA,NA,NA,NA,left,1566,true,NA,NA,NA,NA,NA
7O9rHPVY,322zsn9z6jxccjxbpgrk4cn83gtt4w,3uxuoq9okia63uefcg3c13di8co7au,7O9rHPVY,2020-0188,2021-10-15,18:15:34,19:52:35,NA,incomplete,false,true,NA,7,19,NA,gray,m_l_002.jpg,NA,NA,unpleasant,pleasant,NA,NA,NA,NA,NA,right,1394.70000000298,true,NA,NA,NA,NA,NA
7O9rHPVY,322zsn9z6jxccjxbpgrk4cn83gtt4w,3uxuoq9okia63uefcg3c13di8co7au,7O9rHPVY,2020-0188,2021-10-15,18:15:34,19:52:35,NA,incomplete,false,true,NA,7,20,NA,gray,m_s_018.jpg,NA,NA,unpleasant,pleasant,NA,NA,NA,NA,NA,right,1480,true,NA,NA,NA,NA,NA
7O9rHPVY,322zsn9z6jxccjxbpgrk4cn83gtt4w,3uxuoq9okia63uefcg3c13di8co7au,7O9rHPVY,2020-0188,2021-10-15,18:15:34,19:52:35,NA,incomplete,false,true,NA,7,21,NA,gray,n_s_019.jpg,NA,NA,unpleasant,pleasant,NA,NA,NA,NA,NA,right,1819.89999999851,true,NA,NA,NA,NA,NA
7O9rHPVY,322zsn9z6jxccjxbpgrk4cn83gtt4w,3uxuoq9okia63uefcg3c13di8co7au,7O9rHPVY,2020-0188,2021-10-15,18:15:34,19:52:35,NA,incomplete,false,true,NA,7,22,NA,gray,m_s_023.jpg,NA,NA,unpleasant,pleasant,NA,NA,NA,NA,NA,right,1175.79999999702,true,NA,NA,NA,NA,NA
7O9rHPVY,322zsn9z6jxccjxbpgrk4cn83gtt4w,3uxuoq9okia63uefcg3c13di8co7au,7O9rHPVY,2020-0188,2021-10-15,18:15:34,19:52:35,NA,incomplete,false,true,NA,7,23,NA,gray,m_s_115.jpg,NA,NA,pleasant,unpleasant,NA,NA,NA,NA,NA,left,1645.20000000298,true,NA,NA,NA,NA,NA
7O9rHPVY,322zsn9z6jxccjxbpgrk4cn83gtt4w,3uxuoq9okia63uefcg3c13di8co7au,7O9rHPVY,2020-0188,2021-10-15,18:15:34,19:52:35,NA,incomplete,false,true,NA,7,24,NA,green,n_s_013.jpg,NA,NA,unpleasant,pleasant,NA,NA,NA,NA,NA,right,1657.20000000298,true,NA,NA,NA,NA,NA
7O9rHPVY,322zsn9z6jxccjxbpgrk4cn83gtt4w,3uxuoq9okia63uefcg3c13di8co7au,7O9rHPVY,2020-0188,2021-10-15,18:15:34,19:52:35,NA,incomplete,false,true,NA,7,25,NA,green,m_s_073.jpg,NA,NA,unpleasant,pleasant,NA,NA,NA,NA,NA,right,1221,true,NA,NA,NA,NA,NA
7O9rHPVY,322zsn9z6jxccjxbpgrk4cn83gtt4w,3uxuoq9okia63uefcg3c13di8co7au,7O9rHPVY,2020-0188,2021-10-15,18:15:34,19:52:35,NA,incomplete,false,true,NA,7,26,NA,green,m_l_101.jpg,NA,NA,unpleasant,pleasant,NA,NA,NA,NA,NA,right,1313.70000000298,true,NA,NA,NA,NA,NA
7O9rHPVY,322zsn9z6jxccjxbpgrk4cn83gtt4w,3uxuoq9okia63uefcg3c13di8co7au,7O9rHPVY,2020-0188,2021-10-15,18:15:34,19:52:35,NA,incomplete,false,true,NA,7,27,NA,green,n_s_018.jpg,NA,NA,unpleasant,pleasant,NA,NA,NA,NA,NA,left,1405.70000000298,true,NA,NA,NA,NA,NA
7O9rHPVY,322zsn9z6jxccjxbpgrk4cn83gtt4w,3uxuoq9okia63uefcg3c13di8co7au,7O9rHPVY,2020-0188,2021-10-15,18:15:34,19:52:35,NA,incomplete,false,true,NA,7,28,NA,green,n_l_060.jpg,NA,NA,unpleasant,pleasant,NA,NA,NA,NA,NA,right,1329.60000000149,true,NA,NA,NA,NA,NA
7O9rHPVY,322zsn9z6jxccjxbpgrk4cn83gtt4w,3uxuoq9okia63uefcg3c13di8co7au,7O9rHPVY,2020-0188,2021-10-15,18:15:34,19:52:35,NA,incomplete,false,true,NA,7,29,NA,green,m_s_071.jpg,NA,NA,pleasant,unpleasant,NA,NA,NA,NA,NA,left,2758.89999999851,true,NA,NA,NA,NA,NA
7O9rHPVY,322zsn9z6jxccjxbpgrk4cn83gtt4w,3uxuoq9okia63uefcg3c13di8co7au,7O9rHPVY,2020-0188,2021-10-15,18:15:34,19:52:35,NA,incomplete,false,true,NA,7,30,NA,blue,n_l_024.jpg,NA,NA,pleasant,unpleasant,NA,NA,NA,NA,NA,right,1426.89999999851,true,NA,NA,NA,NA,NA
7O9rHPVY,322zsn9z6jxccjxbpgrk4cn83gtt4w,3uxuoq9okia63uefcg3c13di8co7au,7O9rHPVY,2020-0188,2021-10-15,18:15:34,19:52:35,NA,incomplete,false,true,NA,7,31,NA,blue,m_s_067.jpg,NA,NA,pleasant,unpleasant,NA,NA,NA,NA,NA,left,1295.5,true,NA,NA,NA,NA,NA
7O9rHPVY,322zsn9z6jxccjxbpgrk4cn83gtt4w,3uxuoq9okia63uefcg3c13di8co7au,7O9rHPVY,2020-0188,2021-10-15,18:15:34,19:52:35,NA,incomplete,false,true,NA,7,32,NA,blue,m_l_026.jpg,NA,NA,unpleasant,pleasant,NA,NA,NA,NA,NA,right,1476.80000000447,true,NA,NA,NA,NA,NA
7O9rHPVY,322zsn9z6jxccjxbpgrk4cn83gtt4w,3uxuoq9okia63uefcg3c13di8co7au,7O9rHPVY,2020-0188,2021-10-15,18:15:34,19:52:35,NA,incomplete,false,true,NA,7,33,NA,blue,m_l_117.jpg,NA,NA,unpleasant,pleasant,NA,NA,NA,NA,NA,right,1144.89999999851,true,NA,NA,NA,NA,NA
7O9rHPVY,322zsn9z6jxccjxbpgrk4cn83gtt4w,3uxuoq9okia63uefcg3c13di8co7au,7O9rHPVY,2020-0188,2021-10-15,18:15:34,19:52:35,NA,incomplete,false,true,NA,7,34,NA,blue,n_s_114.jpg,NA,NA,unpleasant,pleasant,NA,NA,NA,NA,NA,right,1725.39999999851,true,NA,NA,NA,NA,NA
7O9rHPVY,322zsn9z6jxccjxbpgrk4cn83gtt4w,3uxuoq9okia63uefcg3c13di8co7au,7O9rHPVY,2020-0188,2021-10-15,18:15:34,19:52:35,NA,incomplete,false,true,NA,7,35,NA,blue,m_s_085.jpg,NA,NA,unpleasant,pleasant,NA,NA,NA,NA,NA,left,1490.70000000298,true,NA,NA,NA,NA,NA
7O9rHPVY,322zsn9z6jxccjxbpgrk4cn83gtt4w,3uxuoq9okia63uefcg3c13di8co7au,7O9rHPVY,2020-0188,2021-10-15,18:15:34,19:52:35,NA,incomplete,false,NA,true,7,0,NA,NA,NA,right,absent,NA,NA,m_l_026.jpg,blue,n_l_060.jpg,green,between,NA,NaN,NA,right,2561.10000000149,1,2,2346.39999999851
7O9rHPVY,322zsn9z6jxccjxbpgrk4cn83gtt4w,3uxuoq9okia63uefcg3c13di8co7au,7O9rHPVY,2020-0188,2021-10-15,18:15:34,19:52:35,NA,incomplete,false,NA,true,7,1,NA,NA,NA,left,absent,NA,NA,n_l_073.jpg,purple,n_s_039.jpg,purple,within,NA,NaN,NA,right,8045.29999999702,0,2,1697.2999999970198
7O9rHPVY,322zsn9z6jxccjxbpgrk4cn83gtt4w,3uxuoq9okia63uefcg3c13di8co7au,7O9rHPVY,2020-0188,2021-10-15,18:15:34,19:52:35,NA,incomplete,false,NA,true,7,2,NA,NA,NA,left,absent,NA,NA,m_s_067.jpg,blue,m_s_085.jpg,blue,within,NA,NaN,NA,left,2536.60000000149,1,2,1697.3999999985099
7O9rHPVY,322zsn9z6jxccjxbpgrk4cn83gtt4w,3uxuoq9okia63uefcg3c13di8co7au,7O9rHPVY,2020-0188,2021-10-15,18:15:34,19:52:35,NA,incomplete,false,NA,true,7,3,NA,NA,NA,right,absent,NA,NA,m_l_019.jpg,red,n_s_009.jpg,red,within,NA,NaN,NA,left,2930.39999999851,0,1,1019.3999999985099
7O9rHPVY,322zsn9z6jxccjxbpgrk4cn83gtt4w,3uxuoq9okia63uefcg3c13di8co7au,7O9rHPVY,2020-0188,2021-10-15,18:15:34,19:52:35,NA,incomplete,false,NA,true,7,4,NA,NA,NA,left,absent,NA,NA,m_s_023.jpg,gray,m_l_101.jpg,green,between,NA,NaN,NA,left,3031.39999999851,1,2,2225.1999999955297
7O9rHPVY,322zsn9z6jxccjxbpgrk4cn83gtt4w,3uxuoq9okia63uefcg3c13di8co7au,7O9rHPVY,2020-0188,2021-10-15,18:15:34,19:52:35,NA,incomplete,false,NA,true,7,5,NA,NA,NA,right,absent,NA,NA,m_l_032.jpg,red,n_l_052.jpg,purple,between,NA,NaN,NA,left,5005.39999999851,0,1,1721.2000000029802
7O9rHPVY,322zsn9z6jxccjxbpgrk4cn83gtt4w,3uxuoq9okia63uefcg3c13di8co7au,7O9rHPVY,2020-0188,2021-10-15,18:15:34,19:52:35,NA,incomplete,false,NA,true,7,6,NA,NA,NA,right,absent,NA,NA,m_s_054.jpg,brown,n_s_046.jpg,red,between,NA,NaN,NA,left,5036.5,0,1,1988.2999999970198
7O9rHPVY,322zsn9z6jxccjxbpgrk4cn83gtt4w,3uxuoq9okia63uefcg3c13di8co7au,7O9rHPVY,2020-0188,2021-10-15,18:15:34,19:52:35,NA,incomplete,false,NA,true,7,7,NA,NA,NA,right,absent,NA,NA,m_s_115.jpg,gray,m_l_002.jpg,gray,within,NA,NaN,NA,right,2418.2999999970198,1,1,1950.5
7O9rHPVY,322zsn9z6jxccjxbpgrk4cn83gtt4w,3uxuoq9okia63uefcg3c13di8co7au,7O9rHPVY,2020-0188,2021-10-15,18:15:34,19:52:35,NA,incomplete,false,NA,true,7,8,NA,NA,NA,right,absent,NA,NA,m_s_018.jpg,gray,m_l_074.jpg,brown,between,NA,NaN,NA,left,2791.1999999955297,0,1,1784.2999999970198
7O9rHPVY,322zsn9z6jxccjxbpgrk4cn83gtt4w,3uxuoq9okia63uefcg3c13di8co7au,7O9rHPVY,2020-0188,2021-10-15,18:15:34,19:52:35,NA,incomplete,false,NA,true,7,9,NA,NA,NA,right,absent,NA,NA,n_s_115.jpg,brown,n_s_108.jpg,brown,within,NA,NaN,NA,right,2853.2000000029802,1,2,1644.5
7O9rHPVY,322zsn9z6jxccjxbpgrk4cn83gtt4w,3uxuoq9okia63uefcg3c13di8co7au,7O9rHPVY,2020-0188,2021-10-15,18:15:34,19:52:35,NA,incomplete,false,NA,true,7,10,NA,NA,NA,left,absent,NA,NA,m_s_073.jpg,green,m_s_071.jpg,green,within,NA,NaN,NA,left,7369.5,1,2,1879.3999999985099
7O9rHPVY,322zsn9z6jxccjxbpgrk4cn83gtt4w,3uxuoq9okia63uefcg3c13di8co7au,7O9rHPVY,2020-0188,2021-10-15,18:15:34,19:52:35,NA,incomplete,false,true,NA,8,0,NA,red,n_s_101.jpg,NA,NA,pleasant,unpleasant,NA,NA,NA,NA,NA,right,1976.10000000149,true,NA,NA,NA,NA,NA
7O9rHPVY,322zsn9z6jxccjxbpgrk4cn83gtt4w,3uxuoq9okia63uefcg3c13di8co7au,7O9rHPVY,2020-0188,2021-10-15,18:15:34,19:52:35,NA,incomplete,false,true,NA,8,1,NA,red,m_s_070.jpg,NA,NA,unpleasant,pleasant,NA,NA,NA,NA,NA,right,1813.69999999553,true,NA,NA,NA,NA,NA
7O9rHPVY,322zsn9z6jxccjxbpgrk4cn83gtt4w,3uxuoq9okia63uefcg3c13di8co7au,7O9rHPVY,2020-0188,2021-10-15,18:15:34,19:52:35,NA,incomplete,false,true,NA,8,2,NA,red,m_l_049.jpg,NA,NA,pleasant,unpleasant,NA,NA,NA,NA,NA,none,0,false,NA,NA,NA,NA,NA
7O9rHPVY,322zsn9z6jxccjxbpgrk4cn83gtt4w,3uxuoq9okia63uefcg3c13di8co7au,7O9rHPVY,2020-0188,2021-10-15,18:15:34,19:52:35,NA,incomplete,false,true,NA,8,3,NA,red,m_s_011.jpg,NA,NA,pleasant,unpleasant,NA,NA,NA,NA,NA,left,1149.79999999702,true,NA,NA,NA,NA,NA
7O9rHPVY,322zsn9z6jxccjxbpgrk4cn83gtt4w,3uxuoq9okia63uefcg3c13di8co7au,7O9rHPVY,2020-0188,2021-10-15,18:15:34,19:52:35,NA,incomplete,false,true,NA,8,4,NA,red,m_s_009.jpg,NA,NA,pleasant,unpleasant,NA,NA,NA,NA,NA,left,1483.20000000298,true,NA,NA,NA,NA,NA
7O9rHPVY,322zsn9z6jxccjxbpgrk4cn83gtt4w,3uxuoq9okia63uefcg3c13di8co7au,7O9rHPVY,2020-0188,2021-10-15,18:15:34,19:52:35,NA,incomplete,false,true,NA,8,5,NA,red,m_l_081.jpg,NA,NA,unpleasant,pleasant,NA,NA,NA,NA,NA,right,1567.09999999404,true,NA,NA,NA,NA,NA
7O9rHPVY,322zsn9z6jxccjxbpgrk4cn83gtt4w,3uxuoq9okia63uefcg3c13di8co7au,7O9rHPVY,2020-0188,2021-10-15,18:15:34,19:52:35,NA,incomplete,false,true,NA,8,6,NA,white,m_s_103.jpg,NA,NA,pleasant,unpleasant,NA,NA,NA,NA,NA,left,1459.60000000149,true,NA,NA,NA,NA,NA
7O9rHPVY,322zsn9z6jxccjxbpgrk4cn83gtt4w,3uxuoq9okia63uefcg3c13di8co7au,7O9rHPVY,2020-0188,2021-10-15,18:15:34,19:52:35,NA,incomplete,false,true,NA,8,7,NA,white,n_s_047.jpg,NA,NA,pleasant,unpleasant,NA,NA,NA,NA,NA,left,1801,true,NA,NA,NA,NA,NA
7O9rHPVY,322zsn9z6jxccjxbpgrk4cn83gtt4w,3uxuoq9okia63uefcg3c13di8co7au,7O9rHPVY,2020-0188,2021-10-15,18:15:34,19:52:35,NA,incomplete,false,true,NA,8,8,NA,white,m_l_078.jpg,NA,NA,pleasant,unpleasant,NA,NA,NA,NA,NA,left,1780.29999999702,true,NA,NA,NA,NA,NA
