workerId,hitId,assignmentId,subject,studyid,exp_date,exp_start,exp_end,time_start,time_end,practice,encoding,memory,block,trial,event_order,event,stim,answer,context_type,label_left,label_right,left_image,left_event,right_image,right_event,condition,response,response_time,response_acc,order_response,order_response_time,order_acc,distance_response,distance_response_time
AdoKkTgM,344m16ozllsw98pkhqhl4zt7rn1nev,3l4pim1gqxthhvwx10fy96mpcfiryk,AdoKkTgM,2020-0188,2021-10-15,15:20:57,16:14:21,NA,incomplete,true,true,NA,0,0,NA,black,n_l_051.jpg,NA,NA,pleasant,unpleasant,NA,NA,NA,NA,NA,left,695.399999856949,true,NA,NA,NA,NA,NA
AdoKkTgM,344m16ozllsw98pkhqhl4zt7rn1nev,3l4pim1gqxthhvwx10fy96mpcfiryk,AdoKkTgM,2020-0188,2021-10-15,15:20:57,16:14:21,NA,incomplete,true,true,NA,0,1,NA,black,m_s_021.jpg,NA,NA,pleasant,unpleasant,NA,NA,NA,NA,NA,right,1189.19999980927,true,NA,NA,NA,NA,NA
AdoKkTgM,344m16ozllsw98pkhqhl4zt7rn1nev,3l4pim1gqxthhvwx10fy96mpcfiryk,AdoKkTgM,2020-0188,2021-10-15,15:20:57,16:14:21,NA,incomplete,true,true,NA,0,2,NA,black,n_s_098.jpg,NA,NA,pleasant,unpleasant,NA,NA,NA,NA,NA,left,1175,true,NA,NA,NA,NA,NA
AdoKkTgM,344m16ozllsw98pkhqhl4zt7rn1nev,3l4pim1gqxthhvwx10fy96mpcfiryk,AdoKkTgM,2020-0188,2021-10-15,15:20:57,16:14:21,NA,incomplete,true,true,NA,0,3,NA,black,m_l_111.jpg,NA,NA,pleasant,unpleasant,NA,NA,NA,NA,NA,left,966.899999856949,true,NA,NA,NA,NA,NA
AdoKkTgM,344m16ozllsw98pkhqhl4zt7rn1nev,3l4pim1gqxthhvwx10fy96mpcfiryk,AdoKkTgM,2020-0188,2021-10-15,15:20:57,16:14:21,NA,incomplete,true,true,NA,0,4,NA,black,n_s_114.jpg,NA,NA,pleasant,unpleasant,NA,NA,NA,NA,NA,right,614.400000095367,true,NA,NA,NA,NA,NA
AdoKkTgM,344m16ozllsw98pkhqhl4zt7rn1nev,3l4pim1gqxthhvwx10fy96mpcfiryk,AdoKkTgM,2020-0188,2021-10-15,15:20:57,16:14:21,NA,incomplete,true,true,NA,0,5,NA,black,n_l_071.jpg,NA,NA,pleasant,unpleasant,NA,NA,NA,NA,NA,right,795.100000143051,true,NA,NA,NA,NA,NA
AdoKkTgM,344m16ozllsw98pkhqhl4zt7rn1nev,3l4pim1gqxthhvwx10fy96mpcfiryk,AdoKkTgM,2020-0188,2021-10-15,15:20:57,16:14:21,NA,incomplete,true,true,NA,0,6,NA,white,m_l_099.jpg,NA,NA,pleasant,unpleasant,NA,NA,NA,NA,NA,right,734.099999904633,true,NA,NA,NA,NA,NA
AdoKkTgM,344m16ozllsw98pkhqhl4zt7rn1nev,3l4pim1gqxthhvwx10fy96mpcfiryk,AdoKkTgM,2020-0188,2021-10-15,15:20:57,16:14:21,NA,incomplete,true,true,NA,0,7,NA,white,m_s_094.jpg,NA,NA,unpleasant,pleasant,NA,NA,NA,NA,NA,left,606.599999904633,true,NA,NA,NA,NA,NA
AdoKkTgM,344m16ozllsw98pkhqhl4zt7rn1nev,3l4pim1gqxthhvwx10fy96mpcfiryk,AdoKkTgM,2020-0188,2021-10-15,15:20:57,16:14:21,NA,incomplete,true,true,NA,0,8,NA,white,m_s_069.jpg,NA,NA,pleasant,unpleasant,NA,NA,NA,NA,NA,left,849.799999952316,true,NA,NA,NA,NA,NA
AdoKkTgM,344m16ozllsw98pkhqhl4zt7rn1nev,3l4pim1gqxthhvwx10fy96mpcfiryk,AdoKkTgM,2020-0188,2021-10-15,15:20:57,16:14:21,NA,incomplete,true,true,NA,0,9,NA,white,m_l_070.jpg,NA,NA,pleasant,unpleasant,NA,NA,NA,NA,NA,left,789.400000095367,true,NA,NA,NA,NA,NA
AdoKkTgM,344m16ozllsw98pkhqhl4zt7rn1nev,3l4pim1gqxthhvwx10fy96mpcfiryk,AdoKkTgM,2020-0188,2021-10-15,15:20:57,16:14:21,NA,incomplete,true,true,NA,0,10,NA,white,n_s_084.jpg,NA,NA,pleasant,unpleasant,NA,NA,NA,NA,NA,left,702.900000095367,true,NA,NA,NA,NA,NA
AdoKkTgM,344m16ozllsw98pkhqhl4zt7rn1nev,3l4pim1gqxthhvwx10fy96mpcfiryk,AdoKkTgM,2020-0188,2021-10-15,15:20:57,16:14:21,NA,incomplete,true,true,NA,0,11,NA,white,n_s_083.jpg,NA,NA,unpleasant,pleasant,NA,NA,NA,NA,NA,left,640.400000095367,true,NA,NA,NA,NA,NA
AdoKkTgM,344m16ozllsw98pkhqhl4zt7rn1nev,3l4pim1gqxthhvwx10fy96mpcfiryk,AdoKkTgM,2020-0188,2021-10-15,15:20:57,16:14:21,NA,incomplete,true,true,NA,0,12,NA,green,m_l_065.jpg,NA,NA,unpleasant,pleasant,NA,NA,NA,NA,NA,left,1002,true,NA,NA,NA,NA,NA
AdoKkTgM,344m16ozllsw98pkhqhl4zt7rn1nev,3l4pim1gqxthhvwx10fy96mpcfiryk,AdoKkTgM,2020-0188,2021-10-15,15:20:57,16:14:21,NA,incomplete,true,true,NA,0,13,NA,green,m_s_031.jpg,NA,NA,pleasant,unpleasant,NA,NA,NA,NA,NA,left,760.700000047684,true,NA,NA,NA,NA,NA
AdoKkTgM,344m16ozllsw98pkhqhl4zt7rn1nev,3l4pim1gqxthhvwx10fy96mpcfiryk,AdoKkTgM,2020-0188,2021-10-15,15:20:57,16:14:21,NA,incomplete,true,true,NA,0,14,NA,green,n_l_115.jpg,NA,NA,unpleasant,pleasant,NA,NA,NA,NA,NA,right,822.899999856949,true,NA,NA,NA,NA,NA
AdoKkTgM,344m16ozllsw98pkhqhl4zt7rn1nev,3l4pim1gqxthhvwx10fy96mpcfiryk,AdoKkTgM,2020-0188,2021-10-15,15:20:57,16:14:21,NA,incomplete,true,true,NA,0,15,NA,green,n_l_092.jpg,NA,NA,pleasant,unpleasant,NA,NA,NA,NA,NA,left,921.900000095367,true,NA,NA,NA,NA,NA
AdoKkTgM,344m16ozllsw98pkhqhl4zt7rn1nev,3l4pim1gqxthhvwx10fy96mpcfiryk,AdoKkTgM,2020-0188,2021-10-15,15:20:57,16:14:21,NA,incomplete,true,true,NA,0,16,NA,green,n_l_013.jpg,NA,NA,pleasant,unpleasant,NA,NA,NA,NA,NA,left,822.600000143051,true,NA,NA,NA,NA,NA
AdoKkTgM,344m16ozllsw98pkhqhl4zt7rn1nev,3l4pim1gqxthhvwx10fy96mpcfiryk,AdoKkTgM,2020-0188,2021-10-15,15:20:57,16:14:21,NA,incomplete,true,true,NA,0,17,NA,green,n_l_080.jpg,NA,NA,unpleasant,pleasant,NA,NA,NA,NA,NA,left,892.899999856949,true,NA,NA,NA,NA,NA
AdoKkTgM,344m16ozllsw98pkhqhl4zt7rn1nev,3l4pim1gqxthhvwx10fy96mpcfiryk,AdoKkTgM,2020-0188,2021-10-15,15:20:57,16:14:21,NA,incomplete,true,true,NA,0,18,NA,brown,m_s_027.jpg,NA,NA,pleasant,unpleasant,NA,NA,NA,NA,NA,right,1015,true,NA,NA,NA,NA,NA
AdoKkTgM,344m16ozllsw98pkhqhl4zt7rn1nev,3l4pim1gqxthhvwx10fy96mpcfiryk,AdoKkTgM,2020-0188,2021-10-15,15:20:57,16:14:21,NA,incomplete,true,true,NA,0,19,NA,brown,n_l_067.jpg,NA,NA,unpleasant,pleasant,NA,NA,NA,NA,NA,left,923.900000095367,true,NA,NA,NA,NA,NA
AdoKkTgM,344m16ozllsw98pkhqhl4zt7rn1nev,3l4pim1gqxthhvwx10fy96mpcfiryk,AdoKkTgM,2020-0188,2021-10-15,15:20:57,16:14:21,NA,incomplete,true,true,NA,0,20,NA,brown,n_s_027.jpg,NA,NA,unpleasant,pleasant,NA,NA,NA,NA,NA,left,879.699999809265,true,NA,NA,NA,NA,NA
AdoKkTgM,344m16ozllsw98pkhqhl4zt7rn1nev,3l4pim1gqxthhvwx10fy96mpcfiryk,AdoKkTgM,2020-0188,2021-10-15,15:20:57,16:14:21,NA,incomplete,true,true,NA,0,21,NA,brown,m_l_005.jpg,NA,NA,unpleasant,pleasant,NA,NA,NA,NA,NA,right,731,true,NA,NA,NA,NA,NA
AdoKkTgM,344m16ozllsw98pkhqhl4zt7rn1nev,3l4pim1gqxthhvwx10fy96mpcfiryk,AdoKkTgM,2020-0188,2021-10-15,15:20:57,16:14:21,NA,incomplete,true,true,NA,0,22,NA,brown,n_l_023.jpg,NA,NA,unpleasant,pleasant,NA,NA,NA,NA,NA,right,702.700000047684,true,NA,NA,NA,NA,NA
AdoKkTgM,344m16ozllsw98pkhqhl4zt7rn1nev,3l4pim1gqxthhvwx10fy96mpcfiryk,AdoKkTgM,2020-0188,2021-10-15,15:20:57,16:14:21,NA,incomplete,true,true,NA,0,23,NA,brown,n_l_005.jpg,NA,NA,unpleasant,pleasant,NA,NA,NA,NA,NA,right,791,true,NA,NA,NA,NA,NA
AdoKkTgM,344m16ozllsw98pkhqhl4zt7rn1nev,3l4pim1gqxthhvwx10fy96mpcfiryk,AdoKkTgM,2020-0188,2021-10-15,15:20:57,16:14:21,NA,incomplete,true,true,NA,0,24,NA,yellow,m_l_004.jpg,NA,NA,unpleasant,pleasant,NA,NA,NA,NA,NA,left,967.600000143051,true,NA,NA,NA,NA,NA
AdoKkTgM,344m16ozllsw98pkhqhl4zt7rn1nev,3l4pim1gqxthhvwx10fy96mpcfiryk,AdoKkTgM,2020-0188,2021-10-15,15:20:57,16:14:21,NA,incomplete,true,true,NA,0,25,NA,yellow,n_s_040.jpg,NA,NA,unpleasant,pleasant,NA,NA,NA,NA,NA,right,838.200000047684,true,NA,NA,NA,NA,NA
AdoKkTgM,344m16ozllsw98pkhqhl4zt7rn1nev,3l4pim1gqxthhvwx10fy96mpcfiryk,AdoKkTgM,2020-0188,2021-10-15,15:20:57,16:14:21,NA,incomplete,true,true,NA,0,26,NA,yellow,n_s_043.jpg,NA,NA,unpleasant,pleasant,NA,NA,NA,NA,NA,left,920.299999952316,true,NA,NA,NA,NA,NA
AdoKkTgM,344m16ozllsw98pkhqhl4zt7rn1nev,3l4pim1gqxthhvwx10fy96mpcfiryk,AdoKkTgM,2020-0188,2021-10-15,15:20:57,16:14:21,NA,incomplete,true,true,NA,0,27,NA,yellow,n_s_103.jpg,NA,NA,unpleasant,pleasant,NA,NA,NA,NA,NA,left,991.200000047684,true,NA,NA,NA,NA,NA
AdoKkTgM,344m16ozllsw98pkhqhl4zt7rn1nev,3l4pim1gqxthhvwx10fy96mpcfiryk,AdoKkTgM,2020-0188,2021-10-15,15:20:57,16:14:21,NA,incomplete,true,true,NA,0,28,NA,yellow,m_l_017.jpg,NA,NA,pleasant,unpleasant,NA,NA,NA,NA,NA,left,1326.79999995232,true,NA,NA,NA,NA,NA
AdoKkTgM,344m16ozllsw98pkhqhl4zt7rn1nev,3l4pim1gqxthhvwx10fy96mpcfiryk,AdoKkTgM,2020-0188,2021-10-15,15:20:57,16:14:21,NA,incomplete,true,true,NA,0,29,NA,yellow,n_s_075.jpg,NA,NA,unpleasant,pleasant,NA,NA,NA,NA,NA,right,706.299999952316,true,NA,NA,NA,NA,NA
AdoKkTgM,344m16ozllsw98pkhqhl4zt7rn1nev,3l4pim1gqxthhvwx10fy96mpcfiryk,AdoKkTgM,2020-0188,2021-10-15,15:20:57,16:14:21,NA,incomplete,true,true,NA,0,30,NA,gray,n_s_079.jpg,NA,NA,pleasant,unpleasant,NA,NA,NA,NA,NA,left,1087.19999980927,true,NA,NA,NA,NA,NA
AdoKkTgM,344m16ozllsw98pkhqhl4zt7rn1nev,3l4pim1gqxthhvwx10fy96mpcfiryk,AdoKkTgM,2020-0188,2021-10-15,15:20:57,16:14:21,NA,incomplete,true,true,NA,0,31,NA,gray,m_l_086.jpg,NA,NA,unpleasant,pleasant,NA,NA,NA,NA,NA,right,1091.59999990463,true,NA,NA,NA,NA,NA
AdoKkTgM,344m16ozllsw98pkhqhl4zt7rn1nev,3l4pim1gqxthhvwx10fy96mpcfiryk,AdoKkTgM,2020-0188,2021-10-15,15:20:57,16:14:21,NA,incomplete,true,true,NA,0,32,NA,gray,n_l_073.jpg,NA,NA,pleasant,unpleasant,NA,NA,NA,NA,NA,left,837.700000047684,true,NA,NA,NA,NA,NA
AdoKkTgM,344m16ozllsw98pkhqhl4zt7rn1nev,3l4pim1gqxthhvwx10fy96mpcfiryk,AdoKkTgM,2020-0188,2021-10-15,15:20:57,16:14:21,NA,incomplete,true,true,NA,0,33,NA,gray,n_l_021.jpg,NA,NA,unpleasant,pleasant,NA,NA,NA,NA,NA,right,1140.20000004768,true,NA,NA,NA,NA,NA
AdoKkTgM,344m16ozllsw98pkhqhl4zt7rn1nev,3l4pim1gqxthhvwx10fy96mpcfiryk,AdoKkTgM,2020-0188,2021-10-15,15:20:57,16:14:21,NA,incomplete,true,true,NA,0,34,NA,gray,m_l_112.jpg,NA,NA,unpleasant,pleasant,NA,NA,NA,NA,NA,right,810.399999856949,true,NA,NA,NA,NA,NA
AdoKkTgM,344m16ozllsw98pkhqhl4zt7rn1nev,3l4pim1gqxthhvwx10fy96mpcfiryk,AdoKkTgM,2020-0188,2021-10-15,15:20:57,16:14:21,NA,incomplete,true,true,NA,0,35,NA,gray,m_l_020.jpg,NA,NA,pleasant,unpleasant,NA,NA,NA,NA,NA,right,746.899999856949,true,NA,NA,NA,NA,NA
AdoKkTgM,344m16ozllsw98pkhqhl4zt7rn1nev,3l4pim1gqxthhvwx10fy96mpcfiryk,AdoKkTgM,2020-0188,2021-10-15,15:20:57,16:14:21,NA,incomplete,true,NA,true,0,0,NA,NA,NA,left,absent,NA,NA,n_s_040.jpg,yellow,n_s_075.jpg,yellow,within,NA,NaN,NA,left,2424.4000000953674,1,1,2301.399999856949
AdoKkTgM,344m16ozllsw98pkhqhl4zt7rn1nev,3l4pim1gqxthhvwx10fy96mpcfiryk,AdoKkTgM,2020-0188,2021-10-15,15:20:57,16:14:21,NA,incomplete,true,NA,true,0,1,NA,NA,NA,left,absent,NA,NA,m_l_086.jpg,gray,m_l_020.jpg,gray,within,NA,NaN,NA,right,2299.600000143051,0,2,1173.2000000476837
AdoKkTgM,344m16ozllsw98pkhqhl4zt7rn1nev,3l4pim1gqxthhvwx10fy96mpcfiryk,AdoKkTgM,2020-0188,2021-10-15,15:20:57,16:14:21,NA,incomplete,true,NA,true,0,2,NA,NA,NA,right,present,NA,NA,n_l_073.jpg,gray,m_l_017.jpg,yellow,between,NA,NaN,NA,left,2137.5,0,2,1740.4000000953674
AdoKkTgM,344m16ozllsw98pkhqhl4zt7rn1nev,3l4pim1gqxthhvwx10fy96mpcfiryk,AdoKkTgM,2020-0188,2021-10-15,15:20:57,16:14:21,NA,incomplete,true,NA,true,0,3,NA,NA,NA,right,present,NA,NA,n_l_071.jpg,black,m_s_021.jpg,black,within,NA,NaN,NA,left,2579.2999999523163,0,0,1141.5999999046326
AdoKkTgM,344m16ozllsw98pkhqhl4zt7rn1nev,3l4pim1gqxthhvwx10fy96mpcfiryk,AdoKkTgM,2020-0188,2021-10-15,15:20:57,16:14:21,NA,incomplete,true,NA,true,0,4,NA,NA,NA,left,present,NA,NA,m_s_031.jpg,green,n_l_080.jpg,green,within,NA,NaN,NA,left,2301.5,1,0,2051.5
AdoKkTgM,344m16ozllsw98pkhqhl4zt7rn1nev,3l4pim1gqxthhvwx10fy96mpcfiryk,AdoKkTgM,2020-0188,2021-10-15,15:20:57,16:14:21,NA,incomplete,true,NA,true,0,5,NA,NA,NA,left,present,NA,NA,m_s_094.jpg,white,n_s_083.jpg,white,within,NA,NaN,NA,left,1849.2999999523163,1,0,993.2999999523163
AdoKkTgM,344m16ozllsw98pkhqhl4zt7rn1nev,3l4pim1gqxthhvwx10fy96mpcfiryk,AdoKkTgM,2020-0188,2021-10-15,15:20:57,16:14:21,NA,incomplete,true,NA,true,0,6,NA,NA,NA,right,present,NA,NA,m_s_069.jpg,white,n_s_114.jpg,black,between,NA,NaN,NA,right,2602.899999856949,1,2,1571.7000000476837
AdoKkTgM,344m16ozllsw98pkhqhl4zt7rn1nev,3l4pim1gqxthhvwx10fy96mpcfiryk,AdoKkTgM,2020-0188,2021-10-15,15:20:57,16:14:21,NA,incomplete,true,NA,true,0,7,NA,NA,NA,right,absent,NA,NA,n_s_027.jpg,brown,n_l_013.jpg,green,between,NA,NaN,NA,right,1618.2000000476837,1,1,1421.2999999523163
AdoKkTgM,344m16ozllsw98pkhqhl4zt7rn1nev,3l4pim1gqxthhvwx10fy96mpcfiryk,AdoKkTgM,2020-0188,2021-10-15,15:20:57,16:14:21,NA,incomplete,true,NA,true,0,8,NA,NA,NA,right,absent,NA,NA,n_l_115.jpg,green,n_s_084.jpg,white,between,NA,NaN,NA,left,1739.5999999046326,0,3,754.3000001907349
AdoKkTgM,344m16ozllsw98pkhqhl4zt7rn1nev,3l4pim1gqxthhvwx10fy96mpcfiryk,AdoKkTgM,2020-0188,2021-10-15,15:20:57,16:14:21,NA,incomplete,true,NA,true,0,9,NA,NA,NA,right,present,NA,NA,n_s_043.jpg,yellow,n_l_023.jpg,brown,between,NA,NaN,NA,left,3699.5,0,2,1251.7000000476837
AdoKkTgM,344m16ozllsw98pkhqhl4zt7rn1nev,3l4pim1gqxthhvwx10fy96mpcfiryk,AdoKkTgM,2020-0188,2021-10-15,15:20:57,16:14:21,NA,incomplete,true,NA,true,0,10,NA,NA,NA,left,present,NA,NA,n_l_067.jpg,brown,n_l_005.jpg,brown,within,NA,NaN,NA,left,2027.0999999046326,1,1,1313.9000000953674
AdoKkTgM,344m16ozllsw98pkhqhl4zt7rn1nev,3l4pim1gqxthhvwx10fy96mpcfiryk,AdoKkTgM,2020-0188,2021-10-15,15:20:57,16:14:21,NA,incomplete,false,true,NA,1,0,NA,red,m_l_090.jpg,NA,NA,pleasant,unpleasant,NA,NA,NA,NA,NA,right,1369.39999985695,true,NA,NA,NA,NA,NA
AdoKkTgM,344m16ozllsw98pkhqhl4zt7rn1nev,3l4pim1gqxthhvwx10fy96mpcfiryk,AdoKkTgM,2020-0188,2021-10-15,15:20:57,16:14:21,NA,incomplete,false,true,NA,1,1,NA,red,m_l_080.jpg,NA,NA,pleasant,unpleasant,NA,NA,NA,NA,NA,right,1185.5,true,NA,NA,NA,NA,NA
AdoKkTgM,344m16ozllsw98pkhqhl4zt7rn1nev,3l4pim1gqxthhvwx10fy96mpcfiryk,AdoKkTgM,2020-0188,2021-10-15,15:20:57,16:14:21,NA,incomplete,false,true,NA,1,2,NA,red,m_s_115.jpg,NA,NA,unpleasant,pleasant,NA,NA,NA,NA,NA,right,1199.69999980927,true,NA,NA,NA,NA,NA
AdoKkTgM,344m16ozllsw98pkhqhl4zt7rn1nev,3l4pim1gqxthhvwx10fy96mpcfiryk,AdoKkTgM,2020-0188,2021-10-15,15:20:57,16:14:21,NA,incomplete,false,true,NA,1,3,NA,red,n_l_111.jpg,NA,NA,pleasant,unpleasant,NA,NA,NA,NA,NA,left,1164.39999985695,true,NA,NA,NA,NA,NA
AdoKkTgM,344m16ozllsw98pkhqhl4zt7rn1nev,3l4pim1gqxthhvwx10fy96mpcfiryk,AdoKkTgM,2020-0188,2021-10-15,15:20:57,16:14:21,NA,incomplete,false,true,NA,1,4,NA,red,n_s_041.jpg,NA,NA,unpleasant,pleasant,NA,NA,NA,NA,NA,right,1562,true,NA,NA,NA,NA,NA
AdoKkTgM,344m16ozllsw98pkhqhl4zt7rn1nev,3l4pim1gqxthhvwx10fy96mpcfiryk,AdoKkTgM,2020-0188,2021-10-15,15:20:57,16:14:21,NA,incomplete,false,true,NA,1,5,NA,red,m_s_064.jpg,NA,NA,pleasant,unpleasant,NA,NA,NA,NA,NA,left,1331.09999990463,true,NA,NA,NA,NA,NA
AdoKkTgM,344m16ozllsw98pkhqhl4zt7rn1nev,3l4pim1gqxthhvwx10fy96mpcfiryk,AdoKkTgM,2020-0188,2021-10-15,15:20:57,16:14:21,NA,incomplete,false,true,NA,1,6,NA,blue,n_s_062.jpg,NA,NA,pleasant,unpleasant,NA,NA,NA,NA,NA,left,1395.79999995232,true,NA,NA,NA,NA,NA
AdoKkTgM,344m16ozllsw98pkhqhl4zt7rn1nev,3l4pim1gqxthhvwx10fy96mpcfiryk,AdoKkTgM,2020-0188,2021-10-15,15:20:57,16:14:21,NA,incomplete,false,true,NA,1,7,NA,blue,m_l_003.jpg,NA,NA,unpleasant,pleasant,NA,NA,NA,NA,NA,right,1314.10000014305,true,NA,NA,NA,NA,NA
AdoKkTgM,344m16ozllsw98pkhqhl4zt7rn1nev,3l4pim1gqxthhvwx10fy96mpcfiryk,AdoKkTgM,2020-0188,2021-10-15,15:20:57,16:14:21,NA,incomplete,false,true,NA,1,8,NA,blue,m_s_103.jpg,NA,NA,unpleasant,pleasant,NA,NA,NA,NA,NA,right,973.399999856949,true,NA,NA,NA,NA,NA
AdoKkTgM,344m16ozllsw98pkhqhl4zt7rn1nev,3l4pim1gqxthhvwx10fy96mpcfiryk,AdoKkTgM,2020-0188,2021-10-15,15:20:57,16:14:21,NA,incomplete,false,true,NA,1,9,NA,blue,m_s_063.jpg,NA,NA,unpleasant,pleasant,NA,NA,NA,NA,NA,right,1417.70000004768,true,NA,NA,NA,NA,NA
AdoKkTgM,344m16ozllsw98pkhqhl4zt7rn1nev,3l4pim1gqxthhvwx10fy96mpcfiryk,AdoKkTgM,2020-0188,2021-10-15,15:20:57,16:14:21,NA,incomplete,false,true,NA,1,10,NA,blue,m_l_068.jpg,NA,NA,pleasant,unpleasant,NA,NA,NA,NA,NA,left,1163.70000004768,true,NA,NA,NA,NA,NA
AdoKkTgM,344m16ozllsw98pkhqhl4zt7rn1nev,3l4pim1gqxthhvwx10fy96mpcfiryk,AdoKkTgM,2020-0188,2021-10-15,15:20:57,16:14:21,NA,incomplete,false,true,NA,1,11,NA,blue,n_l_098.jpg,NA,NA,unpleasant,pleasant,NA,NA,NA,NA,NA,left,1120.59999990463,true,NA,NA,NA,NA,NA
AdoKkTgM,344m16ozllsw98pkhqhl4zt7rn1nev,3l4pim1gqxthhvwx10fy96mpcfiryk,AdoKkTgM,2020-0188,2021-10-15,15:20:57,16:14:21,NA,incomplete,false,true,NA,1,12,NA,orange,n_s_052.jpg,NA,NA,unpleasant,pleasant,NA,NA,NA,NA,NA,right,1266.70000004768,true,NA,NA,NA,NA,NA
AdoKkTgM,344m16ozllsw98pkhqhl4zt7rn1nev,3l4pim1gqxthhvwx10fy96mpcfiryk,AdoKkTgM,2020-0188,2021-10-15,15:20:57,16:14:21,NA,incomplete,false,true,NA,1,13,NA,orange,m_s_105.jpg,NA,NA,pleasant,unpleasant,NA,NA,NA,NA,NA,right,809.5,true,NA,NA,NA,NA,NA
AdoKkTgM,344m16ozllsw98pkhqhl4zt7rn1nev,3l4pim1gqxthhvwx10fy96mpcfiryk,AdoKkTgM,2020-0188,2021-10-15,15:20:57,16:14:21,NA,incomplete,false,true,NA,1,14,NA,orange,n_s_003.jpg,NA,NA,unpleasant,pleasant,NA,NA,NA,NA,NA,left,1070.30000019073,true,NA,NA,NA,NA,NA
AdoKkTgM,344m16ozllsw98pkhqhl4zt7rn1nev,3l4pim1gqxthhvwx10fy96mpcfiryk,AdoKkTgM,2020-0188,2021-10-15,15:20:57,16:14:21,NA,incomplete,false,true,NA,1,15,NA,orange,n_l_016.jpg,NA,NA,unpleasant,pleasant,NA,NA,NA,NA,NA,right,1023.20000004768,true,NA,NA,NA,NA,NA
AdoKkTgM,344m16ozllsw98pkhqhl4zt7rn1nev,3l4pim1gqxthhvwx10fy96mpcfiryk,AdoKkTgM,2020-0188,2021-10-15,15:20:57,16:14:21,NA,incomplete,false,true,NA,1,16,NA,orange,n_s_025.jpg,NA,NA,pleasant,unpleasant,NA,NA,NA,NA,NA,right,1043.10000014305,true,NA,NA,NA,NA,NA
AdoKkTgM,344m16ozllsw98pkhqhl4zt7rn1nev,3l4pim1gqxthhvwx10fy96mpcfiryk,AdoKkTgM,2020-0188,2021-10-15,15:20:57,16:14:21,NA,incomplete,false,true,NA,1,17,NA,orange,m_s_074.jpg,NA,NA,unpleasant,pleasant,NA,NA,NA,NA,NA,left,1031.09999990463,true,NA,NA,NA,NA,NA
AdoKkTgM,344m16ozllsw98pkhqhl4zt7rn1nev,3l4pim1gqxthhvwx10fy96mpcfiryk,AdoKkTgM,2020-0188,2021-10-15,15:20:57,16:14:21,NA,incomplete,false,true,NA,1,18,NA,brown,n_s_061.jpg,NA,NA,pleasant,unpleasant,NA,NA,NA,NA,NA,right,1494.09999990463,true,NA,NA,NA,NA,NA
AdoKkTgM,344m16ozllsw98pkhqhl4zt7rn1nev,3l4pim1gqxthhvwx10fy96mpcfiryk,AdoKkTgM,2020-0188,2021-10-15,15:20:57,16:14:21,NA,incomplete,false,true,NA,1,19,NA,brown,m_s_037.jpg,NA,NA,unpleasant,pleasant,NA,NA,NA,NA,NA,right,1098.29999995232,true,NA,NA,NA,NA,NA
AdoKkTgM,344m16ozllsw98pkhqhl4zt7rn1nev,3l4pim1gqxthhvwx10fy96mpcfiryk,AdoKkTgM,2020-0188,2021-10-15,15:20:57,16:14:21,NA,incomplete,false,true,NA,1,20,NA,brown,n_s_039.jpg,NA,NA,pleasant,unpleasant,NA,NA,NA,NA,NA,left,726.700000047684,true,NA,NA,NA,NA,NA
AdoKkTgM,344m16ozllsw98pkhqhl4zt7rn1nev,3l4pim1gqxthhvwx10fy96mpcfiryk,AdoKkTgM,2020-0188,2021-10-15,15:20:57,16:14:21,NA,incomplete,false,true,NA,1,21,NA,brown,n_s_112.jpg,NA,NA,unpleasant,pleasant,NA,NA,NA,NA,NA,right,1178.20000004768,true,NA,NA,NA,NA,NA
AdoKkTgM,344m16ozllsw98pkhqhl4zt7rn1nev,3l4pim1gqxthhvwx10fy96mpcfiryk,AdoKkTgM,2020-0188,2021-10-15,15:20:57,16:14:21,NA,incomplete,false,true,NA,1,22,NA,brown,n_l_002.jpg,NA,NA,unpleasant,pleasant,NA,NA,NA,NA,NA,right,977.5,true,NA,NA,NA,NA,NA
AdoKkTgM,344m16ozllsw98pkhqhl4zt7rn1nev,3l4pim1gqxthhvwx10fy96mpcfiryk,AdoKkTgM,2020-0188,2021-10-15,15:20:57,16:14:21,NA,incomplete,false,true,NA,1,23,NA,brown,m_s_099.jpg,NA,NA,pleasant,unpleasant,NA,NA,NA,NA,NA,left,940.099999904633,true,NA,NA,NA,NA,NA
AdoKkTgM,344m16ozllsw98pkhqhl4zt7rn1nev,3l4pim1gqxthhvwx10fy96mpcfiryk,AdoKkTgM,2020-0188,2021-10-15,15:20:57,16:14:21,NA,incomplete,false,true,NA,1,24,NA,black,m_l_038.jpg,NA,NA,pleasant,unpleasant,NA,NA,NA,NA,NA,right,1265.60000014305,true,NA,NA,NA,NA,NA
AdoKkTgM,344m16ozllsw98pkhqhl4zt7rn1nev,3l4pim1gqxthhvwx10fy96mpcfiryk,AdoKkTgM,2020-0188,2021-10-15,15:20:57,16:14:21,NA,incomplete,false,true,NA,1,25,NA,black,n_l_031.jpg,NA,NA,unpleasant,pleasant,NA,NA,NA,NA,NA,right,895.200000047684,true,NA,NA,NA,NA,NA
AdoKkTgM,344m16ozllsw98pkhqhl4zt7rn1nev,3l4pim1gqxthhvwx10fy96mpcfiryk,AdoKkTgM,2020-0188,2021-10-15,15:20:57,16:14:21,NA,incomplete,false,true,NA,1,26,NA,black,m_l_098.jpg,NA,NA,pleasant,unpleasant,NA,NA,NA,NA,NA,left,1214.79999995232,true,NA,NA,NA,NA,NA
AdoKkTgM,344m16ozllsw98pkhqhl4zt7rn1nev,3l4pim1gqxthhvwx10fy96mpcfiryk,AdoKkTgM,2020-0188,2021-10-15,15:20:57,16:14:21,NA,incomplete,false,true,NA,1,27,NA,black,n_l_037.jpg,NA,NA,unpleasant,pleasant,NA,NA,NA,NA,NA,right,1303.5,true,NA,NA,NA,NA,NA
AdoKkTgM,344m16ozllsw98pkhqhl4zt7rn1nev,3l4pim1gqxthhvwx10fy96mpcfiryk,AdoKkTgM,2020-0188,2021-10-15,15:20:57,16:14:21,NA,incomplete,false,true,NA,1,28,NA,black,m_s_014.jpg,NA,NA,unpleasant,pleasant,NA,NA,NA,NA,NA,right,1007,true,NA,NA,NA,NA,NA
AdoKkTgM,344m16ozllsw98pkhqhl4zt7rn1nev,3l4pim1gqxthhvwx10fy96mpcfiryk,AdoKkTgM,2020-0188,2021-10-15,15:20:57,16:14:21,NA,incomplete,false,true,NA,1,29,NA,black,n_l_117.jpg,NA,NA,pleasant,unpleasant,NA,NA,NA,NA,NA,right,1149.79999995232,true,NA,NA,NA,NA,NA
AdoKkTgM,344m16ozllsw98pkhqhl4zt7rn1nev,3l4pim1gqxthhvwx10fy96mpcfiryk,AdoKkTgM,2020-0188,2021-10-15,15:20:57,16:14:21,NA,incomplete,false,true,NA,1,30,NA,yellow,n_s_033.jpg,NA,NA,pleasant,unpleasant,NA,NA,NA,NA,NA,left,1120.60000014305,true,NA,NA,NA,NA,NA
AdoKkTgM,344m16ozllsw98pkhqhl4zt7rn1nev,3l4pim1gqxthhvwx10fy96mpcfiryk,AdoKkTgM,2020-0188,2021-10-15,15:20:57,16:14:21,NA,incomplete,false,true,NA,1,31,NA,yellow,n_l_109.jpg,NA,NA,unpleasant,pleasant,NA,NA,NA,NA,NA,right,920.5,true,NA,NA,NA,NA,NA
AdoKkTgM,344m16ozllsw98pkhqhl4zt7rn1nev,3l4pim1gqxthhvwx10fy96mpcfiryk,AdoKkTgM,2020-0188,2021-10-15,15:20:57,16:14:21,NA,incomplete,false,true,NA,1,32,NA,yellow,n_s_073.jpg,NA,NA,pleasant,unpleasant,NA,NA,NA,NA,NA,right,890.299999952316,true,NA,NA,NA,NA,NA
AdoKkTgM,344m16ozllsw98pkhqhl4zt7rn1nev,3l4pim1gqxthhvwx10fy96mpcfiryk,AdoKkTgM,2020-0188,2021-10-15,15:20:57,16:14:21,NA,incomplete,false,true,NA,1,33,NA,yellow,n_l_058.jpg,NA,NA,unpleasant,pleasant,NA,NA,NA,NA,NA,right,1154.79999995232,true,NA,NA,NA,NA,NA
AdoKkTgM,344m16ozllsw98pkhqhl4zt7rn1nev,3l4pim1gqxthhvwx10fy96mpcfiryk,AdoKkTgM,2020-0188,2021-10-15,15:20:57,16:14:21,NA,incomplete,false,true,NA,1,34,NA,yellow,m_s_068.jpg,NA,NA,pleasant,unpleasant,NA,NA,NA,NA,NA,left,1111.29999995232,true,NA,NA,NA,NA,NA
AdoKkTgM,344m16ozllsw98pkhqhl4zt7rn1nev,3l4pim1gqxthhvwx10fy96mpcfiryk,AdoKkTgM,2020-0188,2021-10-15,15:20:57,16:14:21,NA,incomplete,false,true,NA,1,35,NA,yellow,n_s_072.jpg,NA,NA,pleasant,unpleasant,NA,NA,NA,NA,NA,left,933.899999856949,true,NA,NA,NA,NA,NA
AdoKkTgM,344m16ozllsw98pkhqhl4zt7rn1nev,3l4pim1gqxthhvwx10fy96mpcfiryk,AdoKkTgM,2020-0188,2021-10-15,15:20:57,16:14:21,NA,incomplete,false,NA,true,1,0,NA,NA,NA,left,present,NA,NA,m_l_003.jpg,blue,n_l_098.jpg,blue,within,NA,NaN,NA,right,1694.2000000476837,0,0,1743.2000000476837
AdoKkTgM,344m16ozllsw98pkhqhl4zt7rn1nev,3l4pim1gqxthhvwx10fy96mpcfiryk,AdoKkTgM,2020-0188,2021-10-15,15:20:57,16:14:21,NA,incomplete,false,NA,true,1,1,NA,NA,NA,right,present,NA,NA,n_s_003.jpg,orange,m_l_068.jpg,blue,between,NA,NaN,NA,right,3809.5,1,1,1561.3999998569489
AdoKkTgM,344m16ozllsw98pkhqhl4zt7rn1nev,3l4pim1gqxthhvwx10fy96mpcfiryk,AdoKkTgM,2020-0188,2021-10-15,15:20:57,16:14:21,NA,incomplete,false,NA,true,1,2,NA,NA,NA,left,present,NA,NA,n_s_025.jpg,orange,n_s_039.jpg,brown,between,NA,NaN,NA,left,2743.600000143051,1,1,3273
AdoKkTgM,344m16ozllsw98pkhqhl4zt7rn1nev,3l4pim1gqxthhvwx10fy96mpcfiryk,AdoKkTgM,2020-0188,2021-10-15,15:20:57,16:14:21,NA,incomplete,false,NA,true,1,3,NA,NA,NA,left,present,NA,NA,n_l_031.jpg,black,n_l_117.jpg,black,within,NA,NaN,NA,right,2821.2000000476837,0,0,1118.7999999523163
AdoKkTgM,344m16ozllsw98pkhqhl4zt7rn1nev,3l4pim1gqxthhvwx10fy96mpcfiryk,AdoKkTgM,2020-0188,2021-10-15,15:20:57,16:14:21,NA,incomplete,false,NA,true,1,4,NA,NA,NA,left,present,NA,NA,n_l_002.jpg,brown,m_l_098.jpg,black,between,NA,NaN,NA,left,2797.399999856949,1,2,1639.5
AdoKkTgM,344m16ozllsw98pkhqhl4zt7rn1nev,3l4pim1gqxthhvwx10fy96mpcfiryk,AdoKkTgM,2020-0188,2021-10-15,15:20:57,16:14:21,NA,incomplete,false,NA,true,1,5,NA,NA,NA,left,present,NA,NA,m_l_080.jpg,red,m_s_064.jpg,red,within,NA,NaN,NA,left,2719.899999856949,1,0,1369.4000000953674
AdoKkTgM,344m16ozllsw98pkhqhl4zt7rn1nev,3l4pim1gqxthhvwx10fy96mpcfiryk,AdoKkTgM,2020-0188,2021-10-15,15:20:57,16:14:21,NA,incomplete,false,NA,true,1,6,NA,NA,NA,left,present,NA,NA,n_l_109.jpg,yellow,n_s_072.jpg,yellow,within,NA,NaN,NA,left,2455.5999999046326,1,0,1103.6000001430511
AdoKkTgM,344m16ozllsw98pkhqhl4zt7rn1nev,3l4pim1gqxthhvwx10fy96mpcfiryk,AdoKkTgM,2020-0188,2021-10-15,15:20:57,16:14:21,NA,incomplete,false,NA,true,1,7,NA,NA,NA,left,present,NA,NA,n_s_041.jpg,red,m_s_103.jpg,blue,between,NA,NaN,NA,left,2146,1,1,925.2000000476837
AdoKkTgM,344m16ozllsw98pkhqhl4zt7rn1nev,3l4pim1gqxthhvwx10fy96mpcfiryk,AdoKkTgM,2020-0188,2021-10-15,15:20:57,16:14:21,NA,incomplete,false,NA,true,1,8,NA,NA,NA,left,present,NA,NA,m_s_105.jpg,orange,m_s_074.jpg,orange,within,NA,NaN,NA,left,2075.0999999046326,1,0,855.2999999523163
AdoKkTgM,344m16ozllsw98pkhqhl4zt7rn1nev,3l4pim1gqxthhvwx10fy96mpcfiryk,AdoKkTgM,2020-0188,2021-10-15,15:20:57,16:14:21,NA,incomplete,false,NA,true,1,9,NA,NA,NA,right,present,NA,NA,n_s_073.jpg,yellow,m_s_014.jpg,black,between,NA,NaN,NA,right,2417.5,1,1,1406.9000000953674
AdoKkTgM,344m16ozllsw98pkhqhl4zt7rn1nev,3l4pim1gqxthhvwx10fy96mpcfiryk,AdoKkTgM,2020-0188,2021-10-15,15:20:57,16:14:21,NA,incomplete,false,NA,true,1,10,NA,NA,NA,left,present,NA,NA,m_s_037.jpg,brown,m_s_099.jpg,brown,within,NA,NaN,NA,left,2969.5,1,0,1353.3999998569489
AdoKkTgM,344m16ozllsw98pkhqhl4zt7rn1nev,3l4pim1gqxthhvwx10fy96mpcfiryk,AdoKkTgM,2020-0188,2021-10-15,15:20:57,16:14:21,NA,incomplete,false,true,NA,2,0,NA,red,m_s_052.jpg,NA,NA,pleasant,unpleasant,NA,NA,NA,NA,NA,left,1293.39999985695,true,NA,NA,NA,NA,NA
AdoKkTgM,344m16ozllsw98pkhqhl4zt7rn1nev,3l4pim1gqxthhvwx10fy96mpcfiryk,AdoKkTgM,2020-0188,2021-10-15,15:20:57,16:14:21,NA,incomplete,false,true,NA,2,1,NA,red,n_s_101.jpg,NA,NA,pleasant,unpleasant,NA,NA,NA,NA,NA,right,1152.20000004768,true,NA,NA,NA,NA,NA
AdoKkTgM,344m16ozllsw98pkhqhl4zt7rn1nev,3l4pim1gqxthhvwx10fy96mpcfiryk,AdoKkTgM,2020-0188,2021-10-15,15:20:57,16:14:21,NA,incomplete,false,true,NA,2,2,NA,red,m_s_101.jpg,NA,NA,unpleasant,pleasant,NA,NA,NA,NA,NA,right,1055.40000009537,true,NA,NA,NA,NA,NA
AdoKkTgM,344m16ozllsw98pkhqhl4zt7rn1nev,3l4pim1gqxthhvwx10fy96mpcfiryk,AdoKkTgM,2020-0188,2021-10-15,15:20:57,16:14:21,NA,incomplete,false,true,NA,2,3,NA,red,n_l_048.jpg,NA,NA,pleasant,unpleasant,NA,NA,NA,NA,NA,left,826.5,true,NA,NA,NA,NA,NA
AdoKkTgM,344m16ozllsw98pkhqhl4zt7rn1nev,3l4pim1gqxthhvwx10fy96mpcfiryk,AdoKkTgM,2020-0188,2021-10-15,15:20:57,16:14:21,NA,incomplete,false,true,NA,2,4,NA,red,n_l_004.jpg,NA,NA,pleasant,unpleasant,NA,NA,NA,NA,NA,left,747.800000190735,true,NA,NA,NA,NA,NA
AdoKkTgM,344m16ozllsw98pkhqhl4zt7rn1nev,3l4pim1gqxthhvwx10fy96mpcfiryk,AdoKkTgM,2020-0188,2021-10-15,15:20:57,16:14:21,NA,incomplete,false,true,NA,2,5,NA,red,m_l_117.jpg,NA,NA,pleasant,unpleasant,NA,NA,NA,NA,NA,left,784.400000095367,true,NA,NA,NA,NA,NA
AdoKkTgM,344m16ozllsw98pkhqhl4zt7rn1nev,3l4pim1gqxthhvwx10fy96mpcfiryk,AdoKkTgM,2020-0188,2021-10-15,15:20:57,16:14:21,NA,incomplete,false,true,NA,2,6,NA,orange,m_s_090.jpg,NA,NA,unpleasant,pleasant,NA,NA,NA,NA,NA,right,945.100000143051,true,NA,NA,NA,NA,NA
AdoKkTgM,344m16ozllsw98pkhqhl4zt7rn1nev,3l4pim1gqxthhvwx10fy96mpcfiryk,AdoKkTgM,2020-0188,2021-10-15,15:20:57,16:14:21,NA,incomplete,false,true,NA,2,7,NA,orange,m_s_056.jpg,NA,NA,unpleasant,pleasant,NA,NA,NA,NA,NA,left,1124.40000009537,true,NA,NA,NA,NA,NA
AdoKkTgM,344m16ozllsw98pkhqhl4zt7rn1nev,3l4pim1gqxthhvwx10fy96mpcfiryk,AdoKkTgM,2020-0188,2021-10-15,15:20:57,16:14:21,NA,incomplete,false,true,NA,2,8,NA,orange,m_s_005.jpg,NA,NA,pleasant,unpleasant,NA,NA,NA,NA,NA,left,1087.09999990463,true,NA,NA,NA,NA,NA
AdoKkTgM,344m16ozllsw98pkhqhl4zt7rn1nev,3l4pim1gqxthhvwx10fy96mpcfiryk,AdoKkTgM,2020-0188,2021-10-15,15:20:57,16:14:21,NA,incomplete,false,true,NA,2,9,NA,orange,n_s_093.jpg,NA,NA,unpleasant,pleasant,NA,NA,NA,NA,NA,left,831.099999904633,true,NA,NA,NA,NA,NA
AdoKkTgM,344m16ozllsw98pkhqhl4zt7rn1nev,3l4pim1gqxthhvwx10fy96mpcfiryk,AdoKkTgM,2020-0188,2021-10-15,15:20:57,16:14:21,NA,incomplete,false,true,NA,2,10,NA,orange,n_l_082.jpg,NA,NA,unpleasant,pleasant,NA,NA,NA,NA,NA,left,1453.70000004768,true,NA,NA,NA,NA,NA
AdoKkTgM,344m16ozllsw98pkhqhl4zt7rn1nev,3l4pim1gqxthhvwx10fy96mpcfiryk,AdoKkTgM,2020-0188,2021-10-15,15:20:57,16:14:21,NA,incomplete,false,true,NA,2,11,NA,orange,m_l_074.jpg,NA,NA,unpleasant,pleasant,NA,NA,NA,NA,NA,right,816.700000047684,true,NA,NA,NA,NA,NA
AdoKkTgM,344m16ozllsw98pkhqhl4zt7rn1nev,3l4pim1gqxthhvwx10fy96mpcfiryk,AdoKkTgM,2020-0188,2021-10-15,15:20:57,16:14:21,NA,incomplete,false,true,NA,2,12,NA,brown,m_s_041.jpg,NA,NA,pleasant,unpleasant,NA,NA,NA,NA,NA,right,1325.70000004768,true,NA,NA,NA,NA,NA
AdoKkTgM,344m16ozllsw98pkhqhl4zt7rn1nev,3l4pim1gqxthhvwx10fy96mpcfiryk,AdoKkTgM,2020-0188,2021-10-15,15:20:57,16:14:21,NA,incomplete,false,true,NA,2,13,NA,brown,m_l_015.jpg,NA,NA,unpleasant,pleasant,NA,NA,NA,NA,NA,right,1162.90000009537,true,NA,NA,NA,NA,NA
AdoKkTgM,344m16ozllsw98pkhqhl4zt7rn1nev,3l4pim1gqxthhvwx10fy96mpcfiryk,AdoKkTgM,2020-0188,2021-10-15,15:20:57,16:14:21,NA,incomplete,false,true,NA,2,14,NA,brown,m_s_034.jpg,NA,NA,pleasant,unpleasant,NA,NA,NA,NA,NA,right,1301.29999995232,true,NA,NA,NA,NA,NA
AdoKkTgM,344m16ozllsw98pkhqhl4zt7rn1nev,3l4pim1gqxthhvwx10fy96mpcfiryk,AdoKkTgM,2020-0188,2021-10-15,15:20:57,16:14:21,NA,incomplete,false,true,NA,2,15,NA,brown,m_s_022.jpg,NA,NA,pleasant,unpleasant,NA,NA,NA,NA,NA,right,888,true,NA,NA,NA,NA,NA
AdoKkTgM,344m16ozllsw98pkhqhl4zt7rn1nev,3l4pim1gqxthhvwx10fy96mpcfiryk,AdoKkTgM,2020-0188,2021-10-15,15:20:57,16:14:21,NA,incomplete,false,true,NA,2,16,NA,brown,n_s_031.jpg,NA,NA,unpleasant,pleasant,NA,NA,NA,NA,NA,right,1042.5,true,NA,NA,NA,NA,NA
AdoKkTgM,344m16ozllsw98pkhqhl4zt7rn1nev,3l4pim1gqxthhvwx10fy96mpcfiryk,AdoKkTgM,2020-0188,2021-10-15,15:20:57,16:14:21,NA,incomplete,false,true,NA,2,17,NA,brown,m_l_067.jpg,NA,NA,pleasant,unpleasant,NA,NA,NA,NA,NA,left,1017.79999995232,true,NA,NA,NA,NA,NA
AdoKkTgM,344m16ozllsw98pkhqhl4zt7rn1nev,3l4pim1gqxthhvwx10fy96mpcfiryk,AdoKkTgM,2020-0188,2021-10-15,15:20:57,16:14:21,NA,incomplete,false,true,NA,2,18,NA,white,n_l_012.jpg,NA,NA,pleasant,unpleasant,NA,NA,NA,NA,NA,left,1323.79999995232,true,NA,NA,NA,NA,NA
AdoKkTgM,344m16ozllsw98pkhqhl4zt7rn1nev,3l4pim1gqxthhvwx10fy96mpcfiryk,AdoKkTgM,2020-0188,2021-10-15,15:20:57,16:14:21,NA,incomplete,false,true,NA,2,19,NA,white,m_s_087.jpg,NA,NA,pleasant,unpleasant,NA,NA,NA,NA,NA,left,764.599999904633,true,NA,NA,NA,NA,NA
AdoKkTgM,344m16ozllsw98pkhqhl4zt7rn1nev,3l4pim1gqxthhvwx10fy96mpcfiryk,AdoKkTgM,2020-0188,2021-10-15,15:20:57,16:14:21,NA,incomplete,false,true,NA,2,20,NA,white,m_s_023.jpg,NA,NA,unpleasant,pleasant,NA,NA,NA,NA,NA,left,637.5,true,NA,NA,NA,NA,NA
AdoKkTgM,344m16ozllsw98pkhqhl4zt7rn1nev,3l4pim1gqxthhvwx10fy96mpcfiryk,AdoKkTgM,2020-0188,2021-10-15,15:20:57,16:14:21,NA,incomplete,false,true,NA,2,21,NA,white,m_l_061.jpg,NA,NA,unpleasant,pleasant,NA,NA,NA,NA,NA,left,1070.39999985695,true,NA,NA,NA,NA,NA
AdoKkTgM,344m16ozllsw98pkhqhl4zt7rn1nev,3l4pim1gqxthhvwx10fy96mpcfiryk,AdoKkTgM,2020-0188,2021-10-15,15:20:57,16:14:21,NA,incomplete,false,true,NA,2,22,NA,white,m_s_085.jpg,NA,NA,unpleasant,pleasant,NA,NA,NA,NA,NA,left,846.700000047684,true,NA,NA,NA,NA,NA
AdoKkTgM,344m16ozllsw98pkhqhl4zt7rn1nev,3l4pim1gqxthhvwx10fy96mpcfiryk,AdoKkTgM,2020-0188,2021-10-15,15:20:57,16:14:21,NA,incomplete,false,true,NA,2,23,NA,white,m_s_098.jpg,NA,NA,unpleasant,pleasant,NA,NA,NA,NA,NA,right,697.599999904633,true,NA,NA,NA,NA,NA
AdoKkTgM,344m16ozllsw98pkhqhl4zt7rn1nev,3l4pim1gqxthhvwx10fy96mpcfiryk,AdoKkTgM,2020-0188,2021-10-15,15:20:57,16:14:21,NA,incomplete,false,true,NA,2,24,NA,blue,m_l_001.jpg,NA,NA,unpleasant,pleasant,NA,NA,NA,NA,NA,left,956.200000047684,true,NA,NA,NA,NA,NA
AdoKkTgM,344m16ozllsw98pkhqhl4zt7rn1nev,3l4pim1gqxthhvwx10fy96mpcfiryk,AdoKkTgM,2020-0188,2021-10-15,15:20:57,16:14:21,NA,incomplete,false,true,NA,2,25,NA,blue,n_s_026.jpg,NA,NA,pleasant,unpleasant,NA,NA,NA,NA,NA,right,802.799999952316,true,NA,NA,NA,NA,NA
AdoKkTgM,344m16ozllsw98pkhqhl4zt7rn1nev,3l4pim1gqxthhvwx10fy96mpcfiryk,AdoKkTgM,2020-0188,2021-10-15,15:20:57,16:14:21,NA,incomplete,false,true,NA,2,26,NA,blue,n_l_028.jpg,NA,NA,pleasant,unpleasant,NA,NA,NA,NA,NA,left,784.5,true,NA,NA,NA,NA,NA
AdoKkTgM,344m16ozllsw98pkhqhl4zt7rn1nev,3l4pim1gqxthhvwx10fy96mpcfiryk,AdoKkTgM,2020-0188,2021-10-15,15:20:57,16:14:21,NA,incomplete,false,true,NA,2,27,NA,blue,n_l_001.jpg,NA,NA,pleasant,unpleasant,NA,NA,NA,NA,NA,left,833.600000143051,true,NA,NA,NA,NA,NA
AdoKkTgM,344m16ozllsw98pkhqhl4zt7rn1nev,3l4pim1gqxthhvwx10fy96mpcfiryk,AdoKkTgM,2020-0188,2021-10-15,15:20:57,16:14:21,NA,incomplete,false,true,NA,2,28,NA,blue,m_s_049.jpg,NA,NA,pleasant,unpleasant,NA,NA,NA,NA,NA,left,721.200000047684,true,NA,NA,NA,NA,NA
AdoKkTgM,344m16ozllsw98pkhqhl4zt7rn1nev,3l4pim1gqxthhvwx10fy96mpcfiryk,AdoKkTgM,2020-0188,2021-10-15,15:20:57,16:14:21,NA,incomplete,false,true,NA,2,29,NA,blue,m_s_078.jpg,NA,NA,pleasant,unpleasant,NA,NA,NA,NA,NA,left,772.100000143051,true,NA,NA,NA,NA,NA
AdoKkTgM,344m16ozllsw98pkhqhl4zt7rn1nev,3l4pim1gqxthhvwx10fy96mpcfiryk,AdoKkTgM,2020-0188,2021-10-15,15:20:57,16:14:21,NA,incomplete,false,true,NA,2,30,NA,black,m_s_097.jpg,NA,NA,unpleasant,pleasant,NA,NA,NA,NA,NA,left,1055.10000014305,true,NA,NA,NA,NA,NA
AdoKkTgM,344m16ozllsw98pkhqhl4zt7rn1nev,3l4pim1gqxthhvwx10fy96mpcfiryk,AdoKkTgM,2020-0188,2021-10-15,15:20:57,16:14:21,NA,incomplete,false,true,NA,2,31,NA,black,n_s_023.jpg,NA,NA,pleasant,unpleasant,NA,NA,NA,NA,NA,left,921.799999952316,true,NA,NA,NA,NA,NA
AdoKkTgM,344m16ozllsw98pkhqhl4zt7rn1nev,3l4pim1gqxthhvwx10fy96mpcfiryk,AdoKkTgM,2020-0188,2021-10-15,15:20:57,16:14:21,NA,incomplete,false,true,NA,2,32,NA,black,m_s_083.jpg,NA,NA,unpleasant,pleasant,NA,NA,NA,NA,NA,right,1501.5,true,NA,NA,NA,NA,NA
AdoKkTgM,344m16ozllsw98pkhqhl4zt7rn1nev,3l4pim1gqxthhvwx10fy96mpcfiryk,AdoKkTgM,2020-0188,2021-10-15,15:20:57,16:14:21,NA,incomplete,false,true,NA,2,33,NA,black,n_l_064.jpg,NA,NA,unpleasant,pleasant,NA,NA,NA,NA,NA,right,738,true,NA,NA,NA,NA,NA
AdoKkTgM,344m16ozllsw98pkhqhl4zt7rn1nev,3l4pim1gqxthhvwx10fy96mpcfiryk,AdoKkTgM,2020-0188,2021-10-15,15:20:57,16:14:21,NA,incomplete,false,true,NA,2,34,NA,black,m_l_105.jpg,NA,NA,unpleasant,pleasant,NA,NA,NA,NA,NA,right,731.900000095367,true,NA,NA,NA,NA,NA
AdoKkTgM,344m16ozllsw98pkhqhl4zt7rn1nev,3l4pim1gqxthhvwx10fy96mpcfiryk,AdoKkTgM,2020-0188,2021-10-15,15:20:57,16:14:21,NA,incomplete,false,true,NA,2,35,NA,black,n_l_020.jpg,NA,NA,unpleasant,pleasant,NA,NA,NA,NA,NA,right,724.099999904633,true,NA,NA,NA,NA,NA
AdoKkTgM,344m16ozllsw98pkhqhl4zt7rn1nev,3l4pim1gqxthhvwx10fy96mpcfiryk,AdoKkTgM,2020-0188,2021-10-15,15:20:57,16:14:21,NA,incomplete,false,NA,true,2,0,NA,NA,NA,right,absent,NA,NA,m_l_067.jpg,brown,m_l_015.jpg,brown,within,NA,NaN,NA,right,3410,1,1,1691.5999999046326
AdoKkTgM,344m16ozllsw98pkhqhl4zt7rn1nev,3l4pim1gqxthhvwx10fy96mpcfiryk,AdoKkTgM,2020-0188,2021-10-15,15:20:57,16:14:21,NA,incomplete,false,NA,true,2,1,NA,NA,NA,right,absent,NA,NA,n_l_020.jpg,black,n_s_023.jpg,black,within,NA,NaN,NA,right,1695.7999999523163,1,3,847.7999999523163
AdoKkTgM,344m16ozllsw98pkhqhl4zt7rn1nev,3l4pim1gqxthhvwx10fy96mpcfiryk,AdoKkTgM,2020-0188,2021-10-15,15:20:57,16:14:21,NA,incomplete,false,NA,true,2,2,NA,NA,NA,right,absent,NA,NA,m_s_023.jpg,white,n_s_031.jpg,brown,between,NA,NaN,NA,right,3250.2000000476837,1,1,1143.5
AdoKkTgM,344m16ozllsw98pkhqhl4zt7rn1nev,3l4pim1gqxthhvwx10fy96mpcfiryk,AdoKkTgM,2020-0188,2021-10-15,15:20:57,16:14:21,NA,incomplete,false,NA,true,2,3,NA,NA,NA,right,absent,NA,NA,m_l_117.jpg,red,n_s_101.jpg,red,within,NA,NaN,NA,right,1507.7000000476837,1,3,1047.3000001907349
AdoKkTgM,344m16ozllsw98pkhqhl4zt7rn1nev,3l4pim1gqxthhvwx10fy96mpcfiryk,AdoKkTgM,2020-0188,2021-10-15,15:20:57,16:14:21,NA,incomplete,false,NA,true,2,4,NA,NA,NA,left,absent,NA,NA,n_l_004.jpg,red,m_s_005.jpg,orange,between,NA,NaN,NA,left,2353.5,1,1,993.3999998569489
AdoKkTgM,344m16ozllsw98pkhqhl4zt7rn1nev,3l4pim1gqxthhvwx10fy96mpcfiryk,AdoKkTgM,2020-0188,2021-10-15,15:20:57,16:14:21,NA,incomplete,false,NA,true,2,5,NA,NA,NA,left,absent,NA,NA,m_s_087.jpg,white,m_s_098.jpg,white,within,NA,NaN,NA,right,1485.9000000953674,0,2,1213.3999998569489
AdoKkTgM,344m16ozllsw98pkhqhl4zt7rn1nev,3l4pim1gqxthhvwx10fy96mpcfiryk,AdoKkTgM,2020-0188,2021-10-15,15:20:57,16:14:21,NA,incomplete,false,NA,true,2,6,NA,NA,NA,right,absent,NA,NA,m_l_074.jpg,orange,m_s_056.jpg,orange,within,NA,NaN,NA,left,1501.7999999523163,0,1,1072.1999998092651
AdoKkTgM,344m16ozllsw98pkhqhl4zt7rn1nev,3l4pim1gqxthhvwx10fy96mpcfiryk,AdoKkTgM,2020-0188,2021-10-15,15:20:57,16:14:21,NA,incomplete,false,NA,true,2,7,NA,NA,NA,left,absent,NA,NA,n_s_026.jpg,blue,m_s_078.jpg,blue,within,NA,NaN,NA,left,2247.5,1,1,1889.7999999523163
AdoKkTgM,344m16ozllsw98pkhqhl4zt7rn1nev,3l4pim1gqxthhvwx10fy96mpcfiryk,AdoKkTgM,2020-0188,2021-10-15,15:20:57,16:14:21,NA,incomplete,false,NA,true,2,8,NA,NA,NA,left,absent,NA,NA,n_l_082.jpg,orange,m_s_034.jpg,brown,between,NA,NaN,NA,left,1569.7000000476837,1,2,1437.2999999523163
AdoKkTgM,344m16ozllsw98pkhqhl4zt7rn1nev,3l4pim1gqxthhvwx10fy96mpcfiryk,AdoKkTgM,2020-0188,2021-10-15,15:20:57,16:14:21,NA,incomplete,false,NA,true,2,9,NA,NA,NA,left,absent,NA,NA,m_s_085.jpg,white,n_l_028.jpg,blue,between,NA,NaN,NA,left,1731.3999998569489,1,2,1795.7000000476837
AdoKkTgM,344m16ozllsw98pkhqhl4zt7rn1nev,3l4pim1gqxthhvwx10fy96mpcfiryk,AdoKkTgM,2020-0188,2021-10-15,15:20:57,16:14:21,NA,incomplete,false,NA,true,2,10,NA,NA,NA,right,absent,NA,NA,m_s_083.jpg,black,m_s_049.jpg,blue,between,NA,NaN,NA,right,1321.3999998569489,1,1,915.2999999523163
AdoKkTgM,344m16ozllsw98pkhqhl4zt7rn1nev,3l4pim1gqxthhvwx10fy96mpcfiryk,AdoKkTgM,2020-0188,2021-10-15,15:20:57,16:14:21,NA,incomplete,false,true,NA,3,0,NA,yellow,m_l_085.jpg,NA,NA,pleasant,unpleasant,NA,NA,NA,NA,NA,left,2927.5,true,NA,NA,NA,NA,NA
AdoKkTgM,344m16ozllsw98pkhqhl4zt7rn1nev,3l4pim1gqxthhvwx10fy96mpcfiryk,AdoKkTgM,2020-0188,2021-10-15,15:20:57,16:14:21,NA,incomplete,false,true,NA,3,1,NA,yellow,m_l_045.jpg,NA,NA,pleasant,unpleasant,NA,NA,NA,NA,NA,left,1527.59999990463,true,NA,NA,NA,NA,NA
AdoKkTgM,344m16ozllsw98pkhqhl4zt7rn1nev,3l4pim1gqxthhvwx10fy96mpcfiryk,AdoKkTgM,2020-0188,2021-10-15,15:20:57,16:14:21,NA,incomplete,false,true,NA,3,2,NA,yellow,m_s_111.jpg,NA,NA,pleasant,unpleasant,NA,NA,NA,NA,NA,left,742.200000047684,true,NA,NA,NA,NA,NA
AdoKkTgM,344m16ozllsw98pkhqhl4zt7rn1nev,3l4pim1gqxthhvwx10fy96mpcfiryk,AdoKkTgM,2020-0188,2021-10-15,15:20:57,16:14:21,NA,incomplete,false,true,NA,3,3,NA,yellow,n_l_103.jpg,NA,NA,unpleasant,pleasant,NA,NA,NA,NA,NA,left,918.5,true,NA,NA,NA,NA,NA
AdoKkTgM,344m16ozllsw98pkhqhl4zt7rn1nev,3l4pim1gqxthhvwx10fy96mpcfiryk,AdoKkTgM,2020-0188,2021-10-15,15:20:57,16:14:21,NA,incomplete,false,true,NA,3,4,NA,yellow,n_s_070.jpg,NA,NA,pleasant,unpleasant,NA,NA,NA,NA,NA,left,772.900000095367,true,NA,NA,NA,NA,NA
AdoKkTgM,344m16ozllsw98pkhqhl4zt7rn1nev,3l4pim1gqxthhvwx10fy96mpcfiryk,AdoKkTgM,2020-0188,2021-10-15,15:20:57,16:14:21,NA,incomplete,false,true,NA,3,5,NA,yellow,m_s_029.jpg,NA,NA,pleasant,unpleasant,NA,NA,NA,NA,NA,left,745.800000190735,true,NA,NA,NA,NA,NA
AdoKkTgM,344m16ozllsw98pkhqhl4zt7rn1nev,3l4pim1gqxthhvwx10fy96mpcfiryk,AdoKkTgM,2020-0188,2021-10-15,15:20:57,16:14:21,NA,incomplete,false,true,NA,3,6,NA,purple,n_l_056.jpg,NA,NA,pleasant,unpleasant,NA,NA,NA,NA,NA,left,1412.90000009537,true,NA,NA,NA,NA,NA
AdoKkTgM,344m16ozllsw98pkhqhl4zt7rn1nev,3l4pim1gqxthhvwx10fy96mpcfiryk,AdoKkTgM,2020-0188,2021-10-15,15:20:57,16:14:21,NA,incomplete,false,true,NA,3,7,NA,purple,n_s_064.jpg,NA,NA,pleasant,unpleasant,NA,NA,NA,NA,NA,right,842.200000047684,true,NA,NA,NA,NA,NA
AdoKkTgM,344m16ozllsw98pkhqhl4zt7rn1nev,3l4pim1gqxthhvwx10fy96mpcfiryk,AdoKkTgM,2020-0188,2021-10-15,15:20:57,16:14:21,NA,incomplete,false,true,NA,3,8,NA,purple,n_l_050.jpg,NA,NA,pleasant,unpleasant,NA,NA,NA,NA,NA,right,710.699999809265,true,NA,NA,NA,NA,NA
AdoKkTgM,344m16ozllsw98pkhqhl4zt7rn1nev,3l4pim1gqxthhvwx10fy96mpcfiryk,AdoKkTgM,2020-0188,2021-10-15,15:20:57,16:14:21,NA,incomplete,false,true,NA,3,9,NA,purple,m_s_058.jpg,NA,NA,unpleasant,pleasant,NA,NA,NA,NA,NA,left,847.799999952316,true,NA,NA,NA,NA,NA
AdoKkTgM,344m16ozllsw98pkhqhl4zt7rn1nev,3l4pim1gqxthhvwx10fy96mpcfiryk,AdoKkTgM,2020-0188,2021-10-15,15:20:57,16:14:21,NA,incomplete,false,true,NA,3,10,NA,purple,n_s_115.jpg,NA,NA,pleasant,unpleasant,NA,NA,NA,NA,NA,left,841.299999952316,true,NA,NA,NA,NA,NA
AdoKkTgM,344m16ozllsw98pkhqhl4zt7rn1nev,3l4pim1gqxthhvwx10fy96mpcfiryk,AdoKkTgM,2020-0188,2021-10-15,15:20:57,16:14:21,NA,incomplete,false,true,NA,3,11,NA,purple,n_s_082.jpg,NA,NA,pleasant,unpleasant,NA,NA,NA,NA,NA,right,1825.70000004768,true,NA,NA,NA,NA,NA
AdoKkTgM,344m16ozllsw98pkhqhl4zt7rn1nev,3l4pim1gqxthhvwx10fy96mpcfiryk,AdoKkTgM,2020-0188,2021-10-15,15:20:57,16:14:21,NA,incomplete,false,true,NA,3,12,NA,blue,m_l_072.jpg,NA,NA,pleasant,unpleasant,NA,NA,NA,NA,NA,left,1371.79999995232,true,NA,NA,NA,NA,NA
AdoKkTgM,344m16ozllsw98pkhqhl4zt7rn1nev,3l4pim1gqxthhvwx10fy96mpcfiryk,AdoKkTgM,2020-0188,2021-10-15,15:20:57,16:14:21,NA,incomplete,false,true,NA,3,13,NA,blue,m_l_023.jpg,NA,NA,unpleasant,pleasant,NA,NA,NA,NA,NA,left,1363.40000009537,true,NA,NA,NA,NA,NA
AdoKkTgM,344m16ozllsw98pkhqhl4zt7rn1nev,3l4pim1gqxthhvwx10fy96mpcfiryk,AdoKkTgM,2020-0188,2021-10-15,15:20:57,16:14:21,NA,incomplete,false,true,NA,3,14,NA,blue,n_s_037.jpg,NA,NA,unpleasant,pleasant,NA,NA,NA,NA,NA,left,1299.10000014305,true,NA,NA,NA,NA,NA
AdoKkTgM,344m16ozllsw98pkhqhl4zt7rn1nev,3l4pim1gqxthhvwx10fy96mpcfiryk,AdoKkTgM,2020-0188,2021-10-15,15:20:57,16:14:21,NA,incomplete,false,true,NA,3,15,NA,blue,n_l_075.jpg,NA,NA,pleasant,unpleasant,NA,NA,NA,NA,NA,left,1326.70000004768,true,NA,NA,NA,NA,NA
AdoKkTgM,344m16ozllsw98pkhqhl4zt7rn1nev,3l4pim1gqxthhvwx10fy96mpcfiryk,AdoKkTgM,2020-0188,2021-10-15,15:20:57,16:14:21,NA,incomplete,false,true,NA,3,16,NA,blue,m_l_095.jpg,NA,NA,unpleasant,pleasant,NA,NA,NA,NA,NA,right,1157.29999995232,true,NA,NA,NA,NA,NA
AdoKkTgM,344m16ozllsw98pkhqhl4zt7rn1nev,3l4pim1gqxthhvwx10fy96mpcfiryk,AdoKkTgM,2020-0188,2021-10-15,15:20:57,16:14:21,NA,incomplete,false,true,NA,3,17,NA,blue,m_l_049.jpg,NA,NA,unpleasant,pleasant,NA,NA,NA,NA,NA,right,1220.29999995232,true,NA,NA,NA,NA,NA
AdoKkTgM,344m16ozllsw98pkhqhl4zt7rn1nev,3l4pim1gqxthhvwx10fy96mpcfiryk,AdoKkTgM,2020-0188,2021-10-15,15:20:57,16:14:21,NA,incomplete,false,true,NA,3,18,NA,brown,n_s_105.jpg,NA,NA,unpleasant,pleasant,NA,NA,NA,NA,NA,left,813.099999904633,true,NA,NA,NA,NA,NA
AdoKkTgM,344m16ozllsw98pkhqhl4zt7rn1nev,3l4pim1gqxthhvwx10fy96mpcfiryk,AdoKkTgM,2020-0188,2021-10-15,15:20:57,16:14:21,NA,incomplete,false,true,NA,3,19,NA,brown,m_l_092.jpg,NA,NA,unpleasant,pleasant,NA,NA,NA,NA,NA,right,1038.29999995232,true,NA,NA,NA,NA,NA
AdoKkTgM,344m16ozllsw98pkhqhl4zt7rn1nev,3l4pim1gqxthhvwx10fy96mpcfiryk,AdoKkTgM,2020-0188,2021-10-15,15:20:57,16:14:21,NA,incomplete,false,true,NA,3,20,NA,brown,n_l_097.jpg,NA,NA,pleasant,unpleasant,NA,NA,NA,NA,NA,left,808.700000047684,true,NA,NA,NA,NA,NA
AdoKkTgM,344m16ozllsw98pkhqhl4zt7rn1nev,3l4pim1gqxthhvwx10fy96mpcfiryk,AdoKkTgM,2020-0188,2021-10-15,15:20:57,16:14:21,NA,incomplete,false,true,NA,3,21,NA,brown,n_l_068.jpg,NA,NA,unpleasant,pleasant,NA,NA,NA,NA,NA,right,839.399999856949,true,NA,NA,NA,NA,NA
AdoKkTgM,344m16ozllsw98pkhqhl4zt7rn1nev,3l4pim1gqxthhvwx10fy96mpcfiryk,AdoKkTgM,2020-0188,2021-10-15,15:20:57,16:14:21,NA,incomplete,false,true,NA,3,22,NA,brown,n_l_086.jpg,NA,NA,pleasant,unpleasant,NA,NA,NA,NA,NA,left,803.100000143051,true,NA,NA,NA,NA,NA
AdoKkTgM,344m16ozllsw98pkhqhl4zt7rn1nev,3l4pim1gqxthhvwx10fy96mpcfiryk,AdoKkTgM,2020-0188,2021-10-15,15:20:57,16:14:21,NA,incomplete,false,true,NA,3,23,NA,brown,m_l_064.jpg,NA,NA,unpleasant,pleasant,NA,NA,NA,NA,NA,right,851.299999952316,true,NA,NA,NA,NA,NA
AdoKkTgM,344m16ozllsw98pkhqhl4zt7rn1nev,3l4pim1gqxthhvwx10fy96mpcfiryk,AdoKkTgM,2020-0188,2021-10-15,15:20:57,16:14:21,NA,incomplete,false,true,NA,3,24,NA,green,m_s_082.jpg,NA,NA,unpleasant,pleasant,NA,NA,NA,NA,NA,right,1013.5,true,NA,NA,NA,NA,NA
AdoKkTgM,344m16ozllsw98pkhqhl4zt7rn1nev,3l4pim1gqxthhvwx10fy96mpcfiryk,AdoKkTgM,2020-0188,2021-10-15,15:20:57,16:14:21,NA,incomplete,false,true,NA,3,25,NA,green,n_l_034.jpg,NA,NA,pleasant,unpleasant,NA,NA,NA,NA,NA,left,713.5,true,NA,NA,NA,NA,NA
AdoKkTgM,344m16ozllsw98pkhqhl4zt7rn1nev,3l4pim1gqxthhvwx10fy96mpcfiryk,AdoKkTgM,2020-0188,2021-10-15,15:20:57,16:14:21,NA,incomplete,false,true,NA,3,26,NA,green,n_l_061.jpg,NA,NA,unpleasant,pleasant,NA,NA,NA,NA,NA,right,761.799999952316,true,NA,NA,NA,NA,NA
AdoKkTgM,344m16ozllsw98pkhqhl4zt7rn1nev,3l4pim1gqxthhvwx10fy96mpcfiryk,AdoKkTgM,2020-0188,2021-10-15,15:20:57,16:14:21,NA,incomplete,false,true,NA,3,27,NA,green,n_s_038.jpg,NA,NA,pleasant,unpleasant,NA,NA,NA,NA,NA,right,942.599999904633,true,NA,NA,NA,NA,NA
AdoKkTgM,344m16ozllsw98pkhqhl4zt7rn1nev,3l4pim1gqxthhvwx10fy96mpcfiryk,AdoKkTgM,2020-0188,2021-10-15,15:20:57,16:14:21,NA,incomplete,false,true,NA,3,28,NA,green,m_l_039.jpg,NA,NA,pleasant,unpleasant,NA,NA,NA,NA,NA,left,926.700000047684,true,NA,NA,NA,NA,NA
AdoKkTgM,344m16ozllsw98pkhqhl4zt7rn1nev,3l4pim1gqxthhvwx10fy96mpcfiryk,AdoKkTgM,2020-0188,2021-10-15,15:20:57,16:14:21,NA,incomplete,false,true,NA,3,29,NA,green,m_l_078.jpg,NA,NA,pleasant,unpleasant,NA,NA,NA,NA,NA,left,949.400000095367,true,NA,NA,NA,NA,NA
AdoKkTgM,344m16ozllsw98pkhqhl4zt7rn1nev,3l4pim1gqxthhvwx10fy96mpcfiryk,AdoKkTgM,2020-0188,2021-10-15,15:20:57,16:14:21,NA,incomplete,false,true,NA,3,30,NA,orange,m_s_114.jpg,NA,NA,unpleasant,pleasant,NA,NA,NA,NA,NA,right,1451.30000019073,true,NA,NA,NA,NA,NA
AdoKkTgM,344m16ozllsw98pkhqhl4zt7rn1nev,3l4pim1gqxthhvwx10fy96mpcfiryk,AdoKkTgM,2020-0188,2021-10-15,15:20:57,16:14:21,NA,incomplete,false,true,NA,3,31,NA,orange,m_s_039.jpg,NA,NA,unpleasant,pleasant,NA,NA,NA,NA,NA,right,859.200000047684,true,NA,NA,NA,NA,NA
AdoKkTgM,344m16ozllsw98pkhqhl4zt7rn1nev,3l4pim1gqxthhvwx10fy96mpcfiryk,AdoKkTgM,2020-0188,2021-10-15,15:20:57,16:14:21,NA,incomplete,false,true,NA,3,32,NA,orange,m_l_053.jpg,NA,NA,unpleasant,pleasant,NA,NA,NA,NA,NA,right,776.099999904633,true,NA,NA,NA,NA,NA
AdoKkTgM,344m16ozllsw98pkhqhl4zt7rn1nev,3l4pim1gqxthhvwx10fy96mpcfiryk,AdoKkTgM,2020-0188,2021-10-15,15:20:57,16:14:21,NA,incomplete,false,true,NA,3,33,NA,orange,m_l_025.jpg,NA,NA,pleasant,unpleasant,NA,NA,NA,NA,NA,left,855,true,NA,NA,NA,NA,NA
AdoKkTgM,344m16ozllsw98pkhqhl4zt7rn1nev,3l4pim1gqxthhvwx10fy96mpcfiryk,AdoKkTgM,2020-0188,2021-10-15,15:20:57,16:14:21,NA,incomplete,false,true,NA,3,34,NA,orange,m_s_077.jpg,NA,NA,unpleasant,pleasant,NA,NA,NA,NA,NA,right,822.599999904633,true,NA,NA,NA,NA,NA
AdoKkTgM,344m16ozllsw98pkhqhl4zt7rn1nev,3l4pim1gqxthhvwx10fy96mpcfiryk,AdoKkTgM,2020-0188,2021-10-15,15:20:57,16:14:21,NA,incomplete,false,true,NA,3,35,NA,orange,m_l_101.jpg,NA,NA,pleasant,unpleasant,NA,NA,NA,NA,NA,left,892.5,true,NA,NA,NA,NA,NA
AdoKkTgM,344m16ozllsw98pkhqhl4zt7rn1nev,3l4pim1gqxthhvwx10fy96mpcfiryk,AdoKkTgM,2020-0188,2021-10-15,15:20:57,16:14:21,NA,incomplete,false,NA,true,3,0,NA,NA,NA,right,present,NA,NA,n_l_097.jpg,brown,m_l_095.jpg,blue,between,NA,NaN,NA,right,3825.2000000476837,1,1,2348.100000143051
AdoKkTgM,344m16ozllsw98pkhqhl4zt7rn1nev,3l4pim1gqxthhvwx10fy96mpcfiryk,AdoKkTgM,2020-0188,2021-10-15,15:20:57,16:14:21,NA,incomplete,false,NA,true,3,1,NA,NA,NA,left,present,NA,NA,m_l_045.jpg,yellow,m_s_029.jpg,yellow,within,NA,NaN,NA,right,1701.1000001430511,0,0,831.7999999523163
AdoKkTgM,344m16ozllsw98pkhqhl4zt7rn1nev,3l4pim1gqxthhvwx10fy96mpcfiryk,AdoKkTgM,2020-0188,2021-10-15,15:20:57,16:14:21,NA,incomplete,false,NA,true,3,2,NA,NA,NA,right,present,NA,NA,m_l_078.jpg,green,n_l_034.jpg,green,within,NA,NaN,NA,right,2129.100000143051,1,0,839.3999998569489
AdoKkTgM,344m16ozllsw98pkhqhl4zt7rn1nev,3l4pim1gqxthhvwx10fy96mpcfiryk,AdoKkTgM,2020-0188,2021-10-15,15:20:57,16:14:21,NA,incomplete,false,NA,true,3,3,NA,NA,NA,right,present,NA,NA,n_l_050.jpg,purple,n_s_070.jpg,yellow,between,NA,NaN,NA,right,2013.5,1,1,1319.7000000476837
AdoKkTgM,344m16ozllsw98pkhqhl4zt7rn1nev,3l4pim1gqxthhvwx10fy96mpcfiryk,AdoKkTgM,2020-0188,2021-10-15,15:20:57,16:14:21,NA,incomplete,false,NA,true,3,4,NA,NA,NA,left,present,NA,NA,n_s_115.jpg,purple,n_s_037.jpg,blue,between,NA,NaN,NA,left,2471.2999999523163,1,1,1189.3999998569489
AdoKkTgM,344m16ozllsw98pkhqhl4zt7rn1nev,3l4pim1gqxthhvwx10fy96mpcfiryk,AdoKkTgM,2020-0188,2021-10-15,15:20:57,16:14:21,NA,incomplete,false,NA,true,3,5,NA,NA,NA,right,present,NA,NA,m_l_049.jpg,blue,m_l_023.jpg,blue,within,NA,NaN,NA,right,1647.2999999523163,1,0,793.2000000476837
AdoKkTgM,344m16ozllsw98pkhqhl4zt7rn1nev,3l4pim1gqxthhvwx10fy96mpcfiryk,AdoKkTgM,2020-0188,2021-10-15,15:20:57,16:14:21,NA,incomplete,false,NA,true,3,6,NA,NA,NA,left,present,NA,NA,m_l_039.jpg,green,m_l_053.jpg,orange,between,NA,NaN,NA,left,4454.900000095367,1,1,923.5999999046326
AdoKkTgM,344m16ozllsw98pkhqhl4zt7rn1nev,3l4pim1gqxthhvwx10fy96mpcfiryk,AdoKkTgM,2020-0188,2021-10-15,15:20:57,16:14:21,NA,incomplete,false,NA,true,3,7,NA,NA,NA,right,present,NA,NA,m_l_064.jpg,brown,m_l_092.jpg,brown,within,NA,NaN,NA,right,1709.9000000953674,1,0,964.1999998092651
AdoKkTgM,344m16ozllsw98pkhqhl4zt7rn1nev,3l4pim1gqxthhvwx10fy96mpcfiryk,AdoKkTgM,2020-0188,2021-10-15,15:20:57,16:14:21,NA,incomplete,false,NA,true,3,8,NA,NA,NA,right,present,NA,NA,n_s_082.jpg,purple,n_s_064.jpg,purple,within,NA,NaN,NA,right,1593,1,0,901.5
AdoKkTgM,344m16ozllsw98pkhqhl4zt7rn1nev,3l4pim1gqxthhvwx10fy96mpcfiryk,AdoKkTgM,2020-0188,2021-10-15,15:20:57,16:14:21,NA,incomplete,false,NA,true,3,9,NA,NA,NA,right,present,NA,NA,n_l_061.jpg,green,n_l_086.jpg,brown,between,NA,NaN,NA,right,4873.200000047684,1,1,925.2999999523163
AdoKkTgM,344m16ozllsw98pkhqhl4zt7rn1nev,3l4pim1gqxthhvwx10fy96mpcfiryk,AdoKkTgM,2020-0188,2021-10-15,15:20:57,16:14:21,NA,incomplete,false,NA,true,3,10,NA,NA,NA,right,present,NA,NA,m_l_101.jpg,orange,m_s_039.jpg,orange,within,NA,NaN,NA,right,1367.7999999523163,1,0,823.3000001907349
AdoKkTgM,344m16ozllsw98pkhqhl4zt7rn1nev,3l4pim1gqxthhvwx10fy96mpcfiryk,AdoKkTgM,2020-0188,2021-10-15,15:20:57,16:14:21,NA,incomplete,false,true,NA,4,0,NA,brown,n_s_035.jpg,NA,NA,unpleasant,pleasant,NA,NA,NA,NA,NA,right,1173.70000004768,true,NA,NA,NA,NA,NA
AdoKkTgM,344m16ozllsw98pkhqhl4zt7rn1nev,3l4pim1gqxthhvwx10fy96mpcfiryk,AdoKkTgM,2020-0188,2021-10-15,15:20:57,16:14:21,NA,incomplete,false,true,NA,4,1,NA,brown,m_l_032.jpg,NA,NA,pleasant,unpleasant,NA,NA,NA,NA,NA,left,929.700000047684,true,NA,NA,NA,NA,NA
AdoKkTgM,344m16ozllsw98pkhqhl4zt7rn1nev,3l4pim1gqxthhvwx10fy96mpcfiryk,AdoKkTgM,2020-0188,2021-10-15,15:20:57,16:14:21,NA,incomplete,false,true,NA,4,2,NA,brown,m_l_093.jpg,NA,NA,unpleasant,pleasant,NA,NA,NA,NA,NA,right,1068.29999995232,true,NA,NA,NA,NA,NA
AdoKkTgM,344m16ozllsw98pkhqhl4zt7rn1nev,3l4pim1gqxthhvwx10fy96mpcfiryk,AdoKkTgM,2020-0188,2021-10-15,15:20:57,16:14:21,NA,incomplete,false,true,NA,4,3,NA,brown,m_l_035.jpg,NA,NA,pleasant,unpleasant,NA,NA,NA,NA,NA,right,1463.79999995232,true,NA,NA,NA,NA,NA
AdoKkTgM,344m16ozllsw98pkhqhl4zt7rn1nev,3l4pim1gqxthhvwx10fy96mpcfiryk,AdoKkTgM,2020-0188,2021-10-15,15:20:57,16:14:21,NA,incomplete,false,true,NA,4,4,NA,brown,m_l_083.jpg,NA,NA,pleasant,unpleasant,NA,NA,NA,NA,NA,left,1248.69999980927,true,NA,NA,NA,NA,NA
AdoKkTgM,344m16ozllsw98pkhqhl4zt7rn1nev,3l4pim1gqxthhvwx10fy96mpcfiryk,AdoKkTgM,2020-0188,2021-10-15,15:20:57,16:14:21,NA,incomplete,false,true,NA,4,5,NA,brown,n_s_109.jpg,NA,NA,pleasant,unpleasant,NA,NA,NA,NA,NA,right,1341.69999980927,true,NA,NA,NA,NA,NA
AdoKkTgM,344m16ozllsw98pkhqhl4zt7rn1nev,3l4pim1gqxthhvwx10fy96mpcfiryk,AdoKkTgM,2020-0188,2021-10-15,15:20:57,16:14:21,NA,incomplete,false,true,NA,4,6,NA,yellow,m_s_060.jpg,NA,NA,pleasant,unpleasant,NA,NA,NA,NA,NA,left,1542.70000004768,true,NA,NA,NA,NA,NA
AdoKkTgM,344m16ozllsw98pkhqhl4zt7rn1nev,3l4pim1gqxthhvwx10fy96mpcfiryk,AdoKkTgM,2020-0188,2021-10-15,15:20:57,16:14:21,NA,incomplete,false,true,NA,4,7,NA,yellow,m_l_076.jpg,NA,NA,pleasant,unpleasant,NA,NA,NA,NA,NA,left,932.600000143051,true,NA,NA,NA,NA,NA
AdoKkTgM,344m16ozllsw98pkhqhl4zt7rn1nev,3l4pim1gqxthhvwx10fy96mpcfiryk,AdoKkTgM,2020-0188,2021-10-15,15:20:57,16:14:21,NA,incomplete,false,true,NA,4,8,NA,yellow,n_s_015.jpg,NA,NA,pleasant,unpleasant,NA,NA,NA,NA,NA,left,768.699999809265,true,NA,NA,NA,NA,NA
AdoKkTgM,344m16ozllsw98pkhqhl4zt7rn1nev,3l4pim1gqxthhvwx10fy96mpcfiryk,AdoKkTgM,2020-0188,2021-10-15,15:20:57,16:14:21,NA,incomplete,false,true,NA,4,9,NA,yellow,n_s_030.jpg,NA,NA,unpleasant,pleasant,NA,NA,NA,NA,NA,right,1116.20000004768,true,NA,NA,NA,NA,NA
AdoKkTgM,344m16ozllsw98pkhqhl4zt7rn1nev,3l4pim1gqxthhvwx10fy96mpcfiryk,AdoKkTgM,2020-0188,2021-10-15,15:20:57,16:14:21,NA,incomplete,false,true,NA,4,10,NA,yellow,n_s_020.jpg,NA,NA,unpleasant,pleasant,NA,NA,NA,NA,NA,right,835.599999904633,true,NA,NA,NA,NA,NA
AdoKkTgM,344m16ozllsw98pkhqhl4zt7rn1nev,3l4pim1gqxthhvwx10fy96mpcfiryk,AdoKkTgM,2020-0188,2021-10-15,15:20:57,16:14:21,NA,incomplete,false,true,NA,4,11,NA,yellow,n_s_099.jpg,NA,NA,pleasant,unpleasant,NA,NA,NA,NA,NA,left,1112.19999980927,true,NA,NA,NA,NA,NA
AdoKkTgM,344m16ozllsw98pkhqhl4zt7rn1nev,3l4pim1gqxthhvwx10fy96mpcfiryk,AdoKkTgM,2020-0188,2021-10-15,15:20:57,16:14:21,NA,incomplete,false,true,NA,4,12,NA,black,n_s_092.jpg,NA,NA,pleasant,unpleasant,NA,NA,NA,NA,NA,right,1145,true,NA,NA,NA,NA,NA
AdoKkTgM,344m16ozllsw98pkhqhl4zt7rn1nev,3l4pim1gqxthhvwx10fy96mpcfiryk,AdoKkTgM,2020-0188,2021-10-15,15:20:57,16:14:21,NA,incomplete,false,true,NA,4,13,NA,black,n_s_113.jpg,NA,NA,unpleasant,pleasant,NA,NA,NA,NA,NA,right,1173.40000009537,true,NA,NA,NA,NA,NA
AdoKkTgM,344m16ozllsw98pkhqhl4zt7rn1nev,3l4pim1gqxthhvwx10fy96mpcfiryk,AdoKkTgM,2020-0188,2021-10-15,15:20:57,16:14:21,NA,incomplete,false,true,NA,4,14,NA,black,m_l_110.jpg,NA,NA,pleasant,unpleasant,NA,NA,NA,NA,NA,left,1469.40000009537,true,NA,NA,NA,NA,NA
AdoKkTgM,344m16ozllsw98pkhqhl4zt7rn1nev,3l4pim1gqxthhvwx10fy96mpcfiryk,AdoKkTgM,2020-0188,2021-10-15,15:20:57,16:14:21,NA,incomplete,false,true,NA,4,15,NA,black,m_l_079.jpg,NA,NA,pleasant,unpleasant,NA,NA,NA,NA,NA,right,798.399999856949,true,NA,NA,NA,NA,NA
AdoKkTgM,344m16ozllsw98pkhqhl4zt7rn1nev,3l4pim1gqxthhvwx10fy96mpcfiryk,AdoKkTgM,2020-0188,2021-10-15,15:20:57,16:14:21,NA,incomplete,false,true,NA,4,16,NA,black,m_l_089.jpg,NA,NA,pleasant,unpleasant,NA,NA,NA,NA,NA,left,1017.5,true,NA,NA,NA,NA,NA
AdoKkTgM,344m16ozllsw98pkhqhl4zt7rn1nev,3l4pim1gqxthhvwx10fy96mpcfiryk,AdoKkTgM,2020-0188,2021-10-15,15:20:57,16:14:21,NA,incomplete,false,true,NA,4,17,NA,black,m_s_010.jpg,NA,NA,unpleasant,pleasant,NA,NA,NA,NA,NA,right,852.299999952316,true,NA,NA,NA,NA,NA
AdoKkTgM,344m16ozllsw98pkhqhl4zt7rn1nev,3l4pim1gqxthhvwx10fy96mpcfiryk,AdoKkTgM,2020-0188,2021-10-15,15:20:57,16:14:21,NA,incomplete,false,true,NA,4,18,NA,gray,m_l_036.jpg,NA,NA,unpleasant,pleasant,NA,NA,NA,NA,NA,left,1018,true,NA,NA,NA,NA,NA
AdoKkTgM,344m16ozllsw98pkhqhl4zt7rn1nev,3l4pim1gqxthhvwx10fy96mpcfiryk,AdoKkTgM,2020-0188,2021-10-15,15:20:57,16:14:21,NA,incomplete,false,true,NA,4,19,NA,gray,n_l_107.jpg,NA,NA,pleasant,unpleasant,NA,NA,NA,NA,NA,right,1543.29999995232,true,NA,NA,NA,NA,NA
AdoKkTgM,344m16ozllsw98pkhqhl4zt7rn1nev,3l4pim1gqxthhvwx10fy96mpcfiryk,AdoKkTgM,2020-0188,2021-10-15,15:20:57,16:14:21,NA,incomplete,false,true,NA,4,20,NA,gray,m_s_116.jpg,NA,NA,unpleasant,pleasant,NA,NA,NA,NA,NA,right,1365.5,true,NA,NA,NA,NA,NA
AdoKkTgM,344m16ozllsw98pkhqhl4zt7rn1nev,3l4pim1gqxthhvwx10fy96mpcfiryk,AdoKkTgM,2020-0188,2021-10-15,15:20:57,16:14:21,NA,incomplete,false,true,NA,4,21,NA,gray,n_s_004.jpg,NA,NA,unpleasant,pleasant,NA,NA,NA,NA,NA,left,828.900000095367,true,NA,NA,NA,NA,NA
AdoKkTgM,344m16ozllsw98pkhqhl4zt7rn1nev,3l4pim1gqxthhvwx10fy96mpcfiryk,AdoKkTgM,2020-0188,2021-10-15,15:20:57,16:14:21,NA,incomplete,false,true,NA,4,22,NA,gray,m_s_084.jpg,NA,NA,unpleasant,pleasant,NA,NA,NA,NA,NA,right,661.099999904633,true,NA,NA,NA,NA,NA
AdoKkTgM,344m16ozllsw98pkhqhl4zt7rn1nev,3l4pim1gqxthhvwx10fy96mpcfiryk,AdoKkTgM,2020-0188,2021-10-15,15:20:57,16:14:21,NA,incomplete,false,true,NA,4,23,NA,gray,m_s_054.jpg,NA,NA,pleasant,unpleasant,NA,NA,NA,NA,NA,right,954.299999952316,true,NA,NA,NA,NA,NA
AdoKkTgM,344m16ozllsw98pkhqhl4zt7rn1nev,3l4pim1gqxthhvwx10fy96mpcfiryk,AdoKkTgM,2020-0188,2021-10-15,15:20:57,16:14:21,NA,incomplete,false,true,NA,4,24,NA,blue,n_l_065.jpg,NA,NA,unpleasant,pleasant,NA,NA,NA,NA,NA,right,1175.59999990463,true,NA,NA,NA,NA,NA
AdoKkTgM,344m16ozllsw98pkhqhl4zt7rn1nev,3l4pim1gqxthhvwx10fy96mpcfiryk,AdoKkTgM,2020-0188,2021-10-15,15:20:57,16:14:21,NA,incomplete,false,true,NA,4,25,NA,blue,n_s_071.jpg,NA,NA,pleasant,unpleasant,NA,NA,NA,NA,NA,left,920.400000095367,true,NA,NA,NA,NA,NA
AdoKkTgM,344m16ozllsw98pkhqhl4zt7rn1nev,3l4pim1gqxthhvwx10fy96mpcfiryk,AdoKkTgM,2020-0188,2021-10-15,15:20:57,16:14:21,NA,incomplete,false,true,NA,4,26,NA,blue,n_l_038.jpg,NA,NA,pleasant,unpleasant,NA,NA,NA,NA,NA,left,806.799999952316,true,NA,NA,NA,NA,NA
AdoKkTgM,344m16ozllsw98pkhqhl4zt7rn1nev,3l4pim1gqxthhvwx10fy96mpcfiryk,AdoKkTgM,2020-0188,2021-10-15,15:20:57,16:14:21,NA,incomplete,false,true,NA,4,27,NA,blue,n_s_085.jpg,NA,NA,unpleasant,pleasant,NA,NA,NA,NA,NA,right,914.199999809265,true,NA,NA,NA,NA,NA
AdoKkTgM,344m16ozllsw98pkhqhl4zt7rn1nev,3l4pim1gqxthhvwx10fy96mpcfiryk,AdoKkTgM,2020-0188,2021-10-15,15:20:57,16:14:21,NA,incomplete,false,true,NA,4,28,NA,blue,n_s_029.jpg,NA,NA,unpleasant,pleasant,NA,NA,NA,NA,NA,right,1275.30000019073,true,NA,NA,NA,NA,NA
AdoKkTgM,344m16ozllsw98pkhqhl4zt7rn1nev,3l4pim1gqxthhvwx10fy96mpcfiryk,AdoKkTgM,2020-0188,2021-10-15,15:20:57,16:14:21,NA,incomplete,false,true,NA,4,29,NA,blue,m_s_033.jpg,NA,NA,pleasant,unpleasant,NA,NA,NA,NA,NA,left,808.199999809265,true,NA,NA,NA,NA,NA
AdoKkTgM,344m16ozllsw98pkhqhl4zt7rn1nev,3l4pim1gqxthhvwx10fy96mpcfiryk,AdoKkTgM,2020-0188,2021-10-15,15:20:57,16:14:21,NA,incomplete,false,true,NA,4,30,NA,red,n_s_100.jpg,NA,NA,unpleasant,pleasant,NA,NA,NA,NA,NA,right,1131.09999990463,true,NA,NA,NA,NA,NA
AdoKkTgM,344m16ozllsw98pkhqhl4zt7rn1nev,3l4pim1gqxthhvwx10fy96mpcfiryk,AdoKkTgM,2020-0188,2021-10-15,15:20:57,16:14:21,NA,incomplete,false,true,NA,4,31,NA,red,m_l_058.jpg,NA,NA,pleasant,unpleasant,NA,NA,NA,NA,NA,right,1004.5,true,NA,NA,NA,NA,NA
AdoKkTgM,344m16ozllsw98pkhqhl4zt7rn1nev,3l4pim1gqxthhvwx10fy96mpcfiryk,AdoKkTgM,2020-0188,2021-10-15,15:20:57,16:14:21,NA,incomplete,false,true,NA,4,32,NA,red,m_l_091.jpg,NA,NA,unpleasant,pleasant,NA,NA,NA,NA,NA,right,868.799999952316,true,NA,NA,NA,NA,NA
AdoKkTgM,344m16ozllsw98pkhqhl4zt7rn1nev,3l4pim1gqxthhvwx10fy96mpcfiryk,AdoKkTgM,2020-0188,2021-10-15,15:20:57,16:14:21,NA,incomplete,false,true,NA,4,33,NA,red,m_l_026.jpg,NA,NA,pleasant,unpleasant,NA,NA,NA,NA,NA,left,752.400000095367,true,NA,NA,NA,NA,NA
AdoKkTgM,344m16ozllsw98pkhqhl4zt7rn1nev,3l4pim1gqxthhvwx10fy96mpcfiryk,AdoKkTgM,2020-0188,2021-10-15,15:20:57,16:14:21,NA,incomplete,false,true,NA,4,34,NA,red,m_l_052.jpg,NA,NA,pleasant,unpleasant,NA,NA,NA,NA,NA,right,1443.90000009537,true,NA,NA,NA,NA,NA
AdoKkTgM,344m16ozllsw98pkhqhl4zt7rn1nev,3l4pim1gqxthhvwx10fy96mpcfiryk,AdoKkTgM,2020-0188,2021-10-15,15:20:57,16:14:21,NA,incomplete,false,true,NA,4,35,NA,red,n_s_095.jpg,NA,NA,unpleasant,pleasant,NA,NA,NA,NA,NA,right,1263,true,NA,NA,NA,NA,NA
AdoKkTgM,344m16ozllsw98pkhqhl4zt7rn1nev,3l4pim1gqxthhvwx10fy96mpcfiryk,AdoKkTgM,2020-0188,2021-10-15,15:20:57,16:14:21,NA,incomplete,false,NA,true,4,0,NA,NA,NA,right,absent,NA,NA,n_s_109.jpg,brown,m_l_032.jpg,brown,within,NA,NaN,NA,left,3536.300000190735,0,0,1048.9000000953674
AdoKkTgM,344m16ozllsw98pkhqhl4zt7rn1nev,3l4pim1gqxthhvwx10fy96mpcfiryk,AdoKkTgM,2020-0188,2021-10-15,15:20:57,16:14:21,NA,incomplete,false,NA,true,4,1,NA,NA,NA,right,absent,NA,NA,m_s_054.jpg,gray,n_l_107.jpg,gray,within,NA,NaN,NA,right,2299.7000000476837,1,0,1343.8999998569489
AdoKkTgM,344m16ozllsw98pkhqhl4zt7rn1nev,3l4pim1gqxthhvwx10fy96mpcfiryk,AdoKkTgM,2020-0188,2021-10-15,15:20:57,16:14:21,NA,incomplete,false,NA,true,4,2,NA,NA,NA,left,absent,NA,NA,m_s_084.jpg,gray,n_l_038.jpg,blue,between,NA,NaN,NA,right,2003.6000001430511,0,1,823.7000000476837
AdoKkTgM,344m16ozllsw98pkhqhl4zt7rn1nev,3l4pim1gqxthhvwx10fy96mpcfiryk,AdoKkTgM,2020-0188,2021-10-15,15:20:57,16:14:21,NA,incomplete,false,NA,true,4,3,NA,NA,NA,right,absent,NA,NA,n_s_015.jpg,yellow,m_l_083.jpg,brown,between,NA,NaN,NA,right,3047.5,1,1,777.4000000953674
AdoKkTgM,344m16ozllsw98pkhqhl4zt7rn1nev,3l4pim1gqxthhvwx10fy96mpcfiryk,AdoKkTgM,2020-0188,2021-10-15,15:20:57,16:14:21,NA,incomplete,false,NA,true,4,4,NA,NA,NA,right,absent,NA,NA,m_l_091.jpg,red,n_s_029.jpg,blue,between,NA,NaN,NA,left,1771.6999998092651,0,1,971.5999999046326
AdoKkTgM,344m16ozllsw98pkhqhl4zt7rn1nev,3l4pim1gqxthhvwx10fy96mpcfiryk,AdoKkTgM,2020-0188,2021-10-15,15:20:57,16:14:21,NA,incomplete,false,NA,true,4,5,NA,NA,NA,left,absent,NA,NA,n_s_020.jpg,yellow,m_l_110.jpg,black,between,NA,NaN,NA,right,2393.7999999523163,0,1,963.3999998569489
AdoKkTgM,344m16ozllsw98pkhqhl4zt7rn1nev,3l4pim1gqxthhvwx10fy96mpcfiryk,AdoKkTgM,2020-0188,2021-10-15,15:20:57,16:14:21,NA,incomplete,false,NA,true,4,6,NA,NA,NA,right,absent,NA,NA,m_s_033.jpg,blue,n_s_071.jpg,blue,within,NA,NaN,NA,right,1267.4000000953674,1,1,1095.6000001430511
AdoKkTgM,344m16ozllsw98pkhqhl4zt7rn1nev,3l4pim1gqxthhvwx10fy96mpcfiryk,AdoKkTgM,2020-0188,2021-10-15,15:20:57,16:14:21,NA,incomplete,false,NA,true,4,7,NA,NA,NA,right,absent,NA,NA,m_s_116.jpg,gray,m_l_089.jpg,black,between,NA,NaN,NA,right,1591.5,1,2,1003.0999999046326
AdoKkTgM,344m16ozllsw98pkhqhl4zt7rn1nev,3l4pim1gqxthhvwx10fy96mpcfiryk,AdoKkTgM,2020-0188,2021-10-15,15:20:57,16:14:21,NA,incomplete,false,NA,true,4,8,NA,NA,NA,right,absent,NA,NA,m_s_010.jpg,black,n_s_113.jpg,black,within,NA,NaN,NA,right,1655.3999998569489,1,2,1453.1999998092651
AdoKkTgM,344m16ozllsw98pkhqhl4zt7rn1nev,3l4pim1gqxthhvwx10fy96mpcfiryk,AdoKkTgM,2020-0188,2021-10-15,15:20:57,16:14:21,NA,incomplete,false,NA,true,4,9,NA,NA,NA,left,absent,NA,NA,m_l_076.jpg,yellow,n_s_099.jpg,yellow,within,NA,NaN,NA,left,1513.7000000476837,1,2,931.7999999523163
AdoKkTgM,344m16ozllsw98pkhqhl4zt7rn1nev,3l4pim1gqxthhvwx10fy96mpcfiryk,AdoKkTgM,2020-0188,2021-10-15,15:20:57,16:14:21,NA,incomplete,false,NA,true,4,10,NA,NA,NA,left,absent,NA,NA,m_l_058.jpg,red,n_s_095.jpg,red,within,NA,NaN,NA,left,2014.3000001907349,1,1,869.5
AdoKkTgM,344m16ozllsw98pkhqhl4zt7rn1nev,3l4pim1gqxthhvwx10fy96mpcfiryk,AdoKkTgM,2020-0188,2021-10-15,15:20:57,16:14:21,NA,incomplete,false,true,NA,5,0,NA,blue,n_s_011.jpg,NA,NA,unpleasant,pleasant,NA,NA,NA,NA,NA,right,1078.09999990463,true,NA,NA,NA,NA,NA
AdoKkTgM,344m16ozllsw98pkhqhl4zt7rn1nev,3l4pim1gqxthhvwx10fy96mpcfiryk,AdoKkTgM,2020-0188,2021-10-15,15:20:57,16:14:21,NA,incomplete,false,true,NA,5,1,NA,blue,m_s_065.jpg,NA,NA,unpleasant,pleasant,NA,NA,NA,NA,NA,right,1164.20000004768,true,NA,NA,NA,NA,NA
AdoKkTgM,344m16ozllsw98pkhqhl4zt7rn1nev,3l4pim1gqxthhvwx10fy96mpcfiryk,AdoKkTgM,2020-0188,2021-10-15,15:20:57,16:14:21,NA,incomplete,false,true,NA,5,2,NA,blue,m_s_053.jpg,NA,NA,unpleasant,pleasant,NA,NA,NA,NA,NA,right,931.599999904633,true,NA,NA,NA,NA,NA
AdoKkTgM,344m16ozllsw98pkhqhl4zt7rn1nev,3l4pim1gqxthhvwx10fy96mpcfiryk,AdoKkTgM,2020-0188,2021-10-15,15:20:57,16:14:21,NA,incomplete,false,true,NA,5,3,NA,blue,m_s_040.jpg,NA,NA,pleasant,unpleasant,NA,NA,NA,NA,NA,left,1057.59999990463,true,NA,NA,NA,NA,NA
AdoKkTgM,344m16ozllsw98pkhqhl4zt7rn1nev,3l4pim1gqxthhvwx10fy96mpcfiryk,AdoKkTgM,2020-0188,2021-10-15,15:20:57,16:14:21,NA,incomplete,false,true,NA,5,4,NA,blue,m_s_048.jpg,NA,NA,unpleasant,pleasant,NA,NA,NA,NA,NA,right,1266.80000019073,true,NA,NA,NA,NA,NA
AdoKkTgM,344m16ozllsw98pkhqhl4zt7rn1nev,3l4pim1gqxthhvwx10fy96mpcfiryk,AdoKkTgM,2020-0188,2021-10-15,15:20:57,16:14:21,NA,incomplete,false,true,NA,5,5,NA,blue,m_s_070.jpg,NA,NA,unpleasant,pleasant,NA,NA,NA,NA,NA,right,1461.19999980927,true,NA,NA,NA,NA,NA
AdoKkTgM,344m16ozllsw98pkhqhl4zt7rn1nev,3l4pim1gqxthhvwx10fy96mpcfiryk,AdoKkTgM,2020-0188,2021-10-15,15:20:57,16:14:21,NA,incomplete,false,true,NA,5,6,NA,brown,n_l_102.jpg,NA,NA,unpleasant,pleasant,NA,NA,NA,NA,NA,right,799.399999856949,true,NA,NA,NA,NA,NA
AdoKkTgM,344m16ozllsw98pkhqhl4zt7rn1nev,3l4pim1gqxthhvwx10fy96mpcfiryk,AdoKkTgM,2020-0188,2021-10-15,15:20:57,16:14:21,NA,incomplete,false,true,NA,5,7,NA,brown,n_l_030.jpg,NA,NA,pleasant,unpleasant,NA,NA,NA,NA,NA,left,1058.5,true,NA,NA,NA,NA,NA
AdoKkTgM,344m16ozllsw98pkhqhl4zt7rn1nev,3l4pim1gqxthhvwx10fy96mpcfiryk,AdoKkTgM,2020-0188,2021-10-15,15:20:57,16:14:21,NA,incomplete,false,true,NA,5,8,NA,brown,n_l_085.jpg,NA,NA,pleasant,unpleasant,NA,NA,NA,NA,NA,right,956.400000095367,true,NA,NA,NA,NA,NA
AdoKkTgM,344m16ozllsw98pkhqhl4zt7rn1nev,3l4pim1gqxthhvwx10fy96mpcfiryk,AdoKkTgM,2020-0188,2021-10-15,15:20:57,16:14:21,NA,incomplete,false,true,NA,5,9,NA,brown,m_l_034.jpg,NA,NA,pleasant,unpleasant,NA,NA,NA,NA,NA,left,838,true,NA,NA,NA,NA,NA
AdoKkTgM,344m16ozllsw98pkhqhl4zt7rn1nev,3l4pim1gqxthhvwx10fy96mpcfiryk,AdoKkTgM,2020-0188,2021-10-15,15:20:57,16:14:21,NA,incomplete,false,true,NA,5,10,NA,brown,n_s_044.jpg,NA,NA,pleasant,unpleasant,NA,NA,NA,NA,NA,left,876.599999904633,true,NA,NA,NA,NA,NA
AdoKkTgM,344m16ozllsw98pkhqhl4zt7rn1nev,3l4pim1gqxthhvwx10fy96mpcfiryk,AdoKkTgM,2020-0188,2021-10-15,15:20:57,16:14:21,NA,incomplete,false,true,NA,5,11,NA,brown,n_s_056.jpg,NA,NA,unpleasant,pleasant,NA,NA,NA,NA,NA,right,1256.10000014305,true,NA,NA,NA,NA,NA
AdoKkTgM,344m16ozllsw98pkhqhl4zt7rn1nev,3l4pim1gqxthhvwx10fy96mpcfiryk,AdoKkTgM,2020-0188,2021-10-15,15:20:57,16:14:21,NA,incomplete,false,true,NA,5,12,NA,white,n_s_060.jpg,NA,NA,unpleasant,pleasant,NA,NA,NA,NA,NA,right,1366.90000009537,true,NA,NA,NA,NA,NA
AdoKkTgM,344m16ozllsw98pkhqhl4zt7rn1nev,3l4pim1gqxthhvwx10fy96mpcfiryk,AdoKkTgM,2020-0188,2021-10-15,15:20:57,16:14:21,NA,incomplete,false,true,NA,5,13,NA,white,m_s_051.jpg,NA,NA,unpleasant,pleasant,NA,NA,NA,NA,NA,left,1303,true,NA,NA,NA,NA,NA
AdoKkTgM,344m16ozllsw98pkhqhl4zt7rn1nev,3l4pim1gqxthhvwx10fy96mpcfiryk,AdoKkTgM,2020-0188,2021-10-15,15:20:57,16:14:21,NA,incomplete,false,true,NA,5,14,NA,white,m_s_020.jpg,NA,NA,unpleasant,pleasant,NA,NA,NA,NA,NA,right,1897.59999990463,true,NA,NA,NA,NA,NA
AdoKkTgM,344m16ozllsw98pkhqhl4zt7rn1nev,3l4pim1gqxthhvwx10fy96mpcfiryk,AdoKkTgM,2020-0188,2021-10-15,15:20:57,16:14:21,NA,incomplete,false,true,NA,5,15,NA,white,n_s_047.jpg,NA,NA,pleasant,unpleasant,NA,NA,NA,NA,NA,right,1230.10000014305,true,NA,NA,NA,NA,NA
AdoKkTgM,344m16ozllsw98pkhqhl4zt7rn1nev,3l4pim1gqxthhvwx10fy96mpcfiryk,AdoKkTgM,2020-0188,2021-10-15,15:20:57,16:14:21,NA,incomplete,false,true,NA,5,16,NA,white,m_s_012.jpg,NA,NA,unpleasant,pleasant,NA,NA,NA,NA,NA,right,2022.19999980927,true,NA,NA,NA,NA,NA
AdoKkTgM,344m16ozllsw98pkhqhl4zt7rn1nev,3l4pim1gqxthhvwx10fy96mpcfiryk,AdoKkTgM,2020-0188,2021-10-15,15:20:57,16:14:21,NA,incomplete,false,true,NA,5,17,NA,white,m_l_041.jpg,NA,NA,pleasant,unpleasant,NA,NA,NA,NA,NA,right,2491.59999990463,true,NA,NA,NA,NA,NA
AdoKkTgM,344m16ozllsw98pkhqhl4zt7rn1nev,3l4pim1gqxthhvwx10fy96mpcfiryk,AdoKkTgM,2020-0188,2021-10-15,15:20:57,16:14:21,NA,incomplete,false,true,NA,5,18,NA,black,m_s_018.jpg,NA,NA,pleasant,unpleasant,NA,NA,NA,NA,NA,none,0,false,NA,NA,NA,NA,NA
AdoKkTgM,344m16ozllsw98pkhqhl4zt7rn1nev,3l4pim1gqxthhvwx10fy96mpcfiryk,AdoKkTgM,2020-0188,2021-10-15,15:20:57,16:14:21,NA,incomplete,false,true,NA,5,19,NA,black,n_l_017.jpg,NA,NA,pleasant,unpleasant,NA,NA,NA,NA,NA,left,1128.60000014305,true,NA,NA,NA,NA,NA
AdoKkTgM,344m16ozllsw98pkhqhl4zt7rn1nev,3l4pim1gqxthhvwx10fy96mpcfiryk,AdoKkTgM,2020-0188,2021-10-15,15:20:57,16:14:21,NA,incomplete,false,true,NA,5,20,NA,black,n_l_095.jpg,NA,NA,pleasant,unpleasant,NA,NA,NA,NA,NA,left,1534.40000009537,true,NA,NA,NA,NA,NA
AdoKkTgM,344m16ozllsw98pkhqhl4zt7rn1nev,3l4pim1gqxthhvwx10fy96mpcfiryk,AdoKkTgM,2020-0188,2021-10-15,15:20:57,16:14:21,NA,incomplete,false,true,NA,5,21,NA,black,m_s_013.jpg,NA,NA,unpleasant,pleasant,NA,NA,NA,NA,NA,right,1515,true,NA,NA,NA,NA,NA
AdoKkTgM,344m16ozllsw98pkhqhl4zt7rn1nev,3l4pim1gqxthhvwx10fy96mpcfiryk,AdoKkTgM,2020-0188,2021-10-15,15:20:57,16:14:21,NA,incomplete,false,true,NA,5,22,NA,black,n_s_022.jpg,NA,NA,pleasant,unpleasant,NA,NA,NA,NA,NA,left,1668.70000004768,true,NA,NA,NA,NA,NA
AdoKkTgM,344m16ozllsw98pkhqhl4zt7rn1nev,3l4pim1gqxthhvwx10fy96mpcfiryk,AdoKkTgM,2020-0188,2021-10-15,15:20:57,16:14:21,NA,incomplete,false,true,NA,5,23,NA,black,n_s_096.jpg,NA,NA,pleasant,unpleasant,NA,NA,NA,NA,NA,left,1666.29999995232,true,NA,NA,NA,NA,NA
AdoKkTgM,344m16ozllsw98pkhqhl4zt7rn1nev,3l4pim1gqxthhvwx10fy96mpcfiryk,AdoKkTgM,2020-0188,2021-10-15,15:20:57,16:14:21,NA,incomplete,false,true,NA,5,24,NA,gray,m_s_079.jpg,NA,NA,pleasant,unpleasant,NA,NA,NA,NA,NA,right,1237,true,NA,NA,NA,NA,NA
AdoKkTgM,344m16ozllsw98pkhqhl4zt7rn1nev,3l4pim1gqxthhvwx10fy96mpcfiryk,AdoKkTgM,2020-0188,2021-10-15,15:20:57,16:14:21,NA,incomplete,false,true,NA,5,25,NA,gray,m_l_108.jpg,NA,NA,unpleasant,pleasant,NA,NA,NA,NA,NA,right,1508.20000004768,true,NA,NA,NA,NA,NA
AdoKkTgM,344m16ozllsw98pkhqhl4zt7rn1nev,3l4pim1gqxthhvwx10fy96mpcfiryk,AdoKkTgM,2020-0188,2021-10-15,15:20:57,16:14:21,NA,incomplete,false,true,NA,5,26,NA,gray,m_s_104.jpg,NA,NA,unpleasant,pleasant,NA,NA,NA,NA,NA,right,1036.80000019073,true,NA,NA,NA,NA,NA
AdoKkTgM,344m16ozllsw98pkhqhl4zt7rn1nev,3l4pim1gqxthhvwx10fy96mpcfiryk,AdoKkTgM,2020-0188,2021-10-15,15:20:57,16:14:21,NA,incomplete,false,true,NA,5,27,NA,gray,n_s_019.jpg,NA,NA,pleasant,unpleasant,NA,NA,NA,NA,NA,left,1514.90000009537,true,NA,NA,NA,NA,NA
AdoKkTgM,344m16ozllsw98pkhqhl4zt7rn1nev,3l4pim1gqxthhvwx10fy96mpcfiryk,AdoKkTgM,2020-0188,2021-10-15,15:20:57,16:14:21,NA,incomplete,false,true,NA,5,28,NA,gray,m_s_055.jpg,NA,NA,pleasant,unpleasant,NA,NA,NA,NA,NA,right,1283.40000009537,true,NA,NA,NA,NA,NA
AdoKkTgM,344m16ozllsw98pkhqhl4zt7rn1nev,3l4pim1gqxthhvwx10fy96mpcfiryk,AdoKkTgM,2020-0188,2021-10-15,15:20:57,16:14:21,NA,incomplete,false,true,NA,5,29,NA,gray,m_l_040.jpg,NA,NA,pleasant,unpleasant,NA,NA,NA,NA,NA,right,1168.40000009537,true,NA,NA,NA,NA,NA
AdoKkTgM,344m16ozllsw98pkhqhl4zt7rn1nev,3l4pim1gqxthhvwx10fy96mpcfiryk,AdoKkTgM,2020-0188,2021-10-15,15:20:57,16:14:21,NA,incomplete,false,true,NA,5,30,NA,orange,m_l_056.jpg,NA,NA,unpleasant,pleasant,NA,NA,NA,NA,NA,right,1583.70000004768,true,NA,NA,NA,NA,NA
AdoKkTgM,344m16ozllsw98pkhqhl4zt7rn1nev,3l4pim1gqxthhvwx10fy96mpcfiryk,AdoKkTgM,2020-0188,2021-10-15,15:20:57,16:14:21,NA,incomplete,false,true,NA,5,31,NA,orange,n_s_108.jpg,NA,NA,pleasant,unpleasant,NA,NA,NA,NA,NA,right,1410.09999990463,true,NA,NA,NA,NA,NA
AdoKkTgM,344m16ozllsw98pkhqhl4zt7rn1nev,3l4pim1gqxthhvwx10fy96mpcfiryk,AdoKkTgM,2020-0188,2021-10-15,15:20:57,16:14:21,NA,incomplete,false,true,NA,5,32,NA,orange,n_s_117.jpg,NA,NA,unpleasant,pleasant,NA,NA,NA,NA,NA,left,2201.5,true,NA,NA,NA,NA,NA
AdoKkTgM,344m16ozllsw98pkhqhl4zt7rn1nev,3l4pim1gqxthhvwx10fy96mpcfiryk,AdoKkTgM,2020-0188,2021-10-15,15:20:57,16:14:21,NA,incomplete,false,true,NA,5,33,NA,orange,m_s_093.jpg,NA,NA,unpleasant,pleasant,NA,NA,NA,NA,NA,right,1151.90000009537,true,NA,NA,NA,NA,NA
AdoKkTgM,344m16ozllsw98pkhqhl4zt7rn1nev,3l4pim1gqxthhvwx10fy96mpcfiryk,AdoKkTgM,2020-0188,2021-10-15,15:20:57,16:14:21,NA,incomplete,false,true,NA,5,34,NA,orange,m_l_008.jpg,NA,NA,unpleasant,pleasant,NA,NA,NA,NA,NA,right,1220,true,NA,NA,NA,NA,NA
AdoKkTgM,344m16ozllsw98pkhqhl4zt7rn1nev,3l4pim1gqxthhvwx10fy96mpcfiryk,AdoKkTgM,2020-0188,2021-10-15,15:20:57,16:14:21,NA,incomplete,false,true,NA,5,35,NA,orange,m_l_048.jpg,NA,NA,pleasant,unpleasant,NA,NA,NA,NA,NA,left,1291.20000004768,true,NA,NA,NA,NA,NA
AdoKkTgM,344m16ozllsw98pkhqhl4zt7rn1nev,3l4pim1gqxthhvwx10fy96mpcfiryk,AdoKkTgM,2020-0188,2021-10-15,15:20:57,16:14:21,NA,incomplete,false,NA,true,5,0,NA,NA,NA,left,absent,NA,NA,n_l_017.jpg,black,n_s_096.jpg,black,within,NA,NaN,NA,right,3179.5,0,0,1049.5999999046326
AdoKkTgM,344m16ozllsw98pkhqhl4zt7rn1nev,3l4pim1gqxthhvwx10fy96mpcfiryk,AdoKkTgM,2020-0188,2021-10-15,15:20:57,16:14:21,NA,incomplete,false,NA,true,5,1,NA,NA,NA,right,absent,NA,NA,n_s_117.jpg,orange,m_s_055.jpg,gray,between,NA,NaN,NA,right,2238.2000000476837,1,1,1009.3000001907349
AdoKkTgM,344m16ozllsw98pkhqhl4zt7rn1nev,3l4pim1gqxthhvwx10fy96mpcfiryk,AdoKkTgM,2020-0188,2021-10-15,15:20:57,16:14:21,NA,incomplete,false,NA,true,5,2,NA,NA,NA,right,absent,NA,NA,m_l_048.jpg,orange,n_s_108.jpg,orange,within,NA,NaN,NA,right,1491.5,1,1,677.6999998092651
AdoKkTgM,344m16ozllsw98pkhqhl4zt7rn1nev,3l4pim1gqxthhvwx10fy96mpcfiryk,AdoKkTgM,2020-0188,2021-10-15,15:20:57,16:14:21,NA,incomplete,false,NA,true,5,3,NA,NA,NA,left,absent,NA,NA,m_s_048.jpg,blue,n_l_085.jpg,brown,between,NA,NaN,NA,left,2517.399999856949,1,1,909.4000000953674
AdoKkTgM,344m16ozllsw98pkhqhl4zt7rn1nev,3l4pim1gqxthhvwx10fy96mpcfiryk,AdoKkTgM,2020-0188,2021-10-15,15:20:57,16:14:21,NA,incomplete,false,NA,true,5,4,NA,NA,NA,right,absent,NA,NA,m_l_041.jpg,white,m_s_051.jpg,white,within,NA,NaN,NA,right,2557.4000000953674,1,1,728.4000000953674
AdoKkTgM,344m16ozllsw98pkhqhl4zt7rn1nev,3l4pim1gqxthhvwx10fy96mpcfiryk,AdoKkTgM,2020-0188,2021-10-15,15:20:57,16:14:21,NA,incomplete,false,NA,true,5,5,NA,NA,NA,right,absent,NA,NA,n_s_056.jpg,brown,n_l_030.jpg,brown,within,NA,NaN,NA,right,1297.2000000476837,1,1,1057.5
AdoKkTgM,344m16ozllsw98pkhqhl4zt7rn1nev,3l4pim1gqxthhvwx10fy96mpcfiryk,AdoKkTgM,2020-0188,2021-10-15,15:20:57,16:14:21,NA,incomplete,false,NA,true,5,6,NA,NA,NA,left,absent,NA,NA,m_s_012.jpg,white,n_l_095.jpg,black,between,NA,NaN,NA,right,2361.2000000476837,0,1,919.5
AdoKkTgM,344m16ozllsw98pkhqhl4zt7rn1nev,3l4pim1gqxthhvwx10fy96mpcfiryk,AdoKkTgM,2020-0188,2021-10-15,15:20:57,16:14:21,NA,incomplete,false,NA,true,5,7,NA,NA,NA,right,absent,NA,NA,m_s_070.jpg,blue,m_s_065.jpg,blue,within,NA,NaN,NA,right,3092.0999999046326,1,0,1049.4000000953674
AdoKkTgM,344m16ozllsw98pkhqhl4zt7rn1nev,3l4pim1gqxthhvwx10fy96mpcfiryk,AdoKkTgM,2020-0188,2021-10-15,15:20:57,16:14:21,NA,incomplete,false,NA,true,5,8,NA,NA,NA,right,absent,NA,NA,m_s_020.jpg,white,n_s_044.jpg,brown,between,NA,NaN,NA,right,1639.4000000953674,1,1,753.5
AdoKkTgM,344m16ozllsw98pkhqhl4zt7rn1nev,3l4pim1gqxthhvwx10fy96mpcfiryk,AdoKkTgM,2020-0188,2021-10-15,15:20:57,16:14:21,NA,incomplete,false,NA,true,5,9,NA,NA,NA,left,absent,NA,NA,n_s_022.jpg,black,m_s_104.jpg,gray,between,NA,NaN,NA,right,1451.3999998569489,0,1,855.5999999046326
AdoKkTgM,344m16ozllsw98pkhqhl4zt7rn1nev,3l4pim1gqxthhvwx10fy96mpcfiryk,AdoKkTgM,2020-0188,2021-10-15,15:20:57,16:14:21,NA,incomplete,false,NA,true,5,10,NA,NA,NA,left,absent,NA,NA,m_l_108.jpg,gray,m_l_040.jpg,gray,within,NA,NaN,NA,right,1717.8999998569489,0,1,767.7999999523163
AdoKkTgM,344m16ozllsw98pkhqhl4zt7rn1nev,3l4pim1gqxthhvwx10fy96mpcfiryk,AdoKkTgM,2020-0188,2021-10-15,15:20:57,16:14:21,NA,incomplete,false,true,NA,6,0,NA,gray,n_l_083.jpg,NA,NA,unpleasant,pleasant,NA,NA,NA,NA,NA,right,1287.5,true,NA,NA,NA,NA,NA
AdoKkTgM,344m16ozllsw98pkhqhl4zt7rn1nev,3l4pim1gqxthhvwx10fy96mpcfiryk,AdoKkTgM,2020-0188,2021-10-15,15:20:57,16:14:21,NA,incomplete,false,true,NA,6,1,NA,gray,m_l_011.jpg,NA,NA,unpleasant,pleasant,NA,NA,NA,NA,NA,left,1520,true,NA,NA,NA,NA,NA
AdoKkTgM,344m16ozllsw98pkhqhl4zt7rn1nev,3l4pim1gqxthhvwx10fy96mpcfiryk,AdoKkTgM,2020-0188,2021-10-15,15:20:57,16:14:21,NA,incomplete,false,true,NA,6,2,NA,gray,m_l_006.jpg,NA,NA,unpleasant,pleasant,NA,NA,NA,NA,NA,right,1141.79999995232,true,NA,NA,NA,NA,NA
AdoKkTgM,344m16ozllsw98pkhqhl4zt7rn1nev,3l4pim1gqxthhvwx10fy96mpcfiryk,AdoKkTgM,2020-0188,2021-10-15,15:20:57,16:14:21,NA,incomplete,false,true,NA,6,3,NA,gray,m_l_113.jpg,NA,NA,unpleasant,pleasant,NA,NA,NA,NA,NA,right,1254.29999995232,true,NA,NA,NA,NA,NA
AdoKkTgM,344m16ozllsw98pkhqhl4zt7rn1nev,3l4pim1gqxthhvwx10fy96mpcfiryk,AdoKkTgM,2020-0188,2021-10-15,15:20:57,16:14:21,NA,incomplete,false,true,NA,6,4,NA,gray,m_l_084.jpg,NA,NA,unpleasant,pleasant,NA,NA,NA,NA,NA,right,1258.59999990463,true,NA,NA,NA,NA,NA
AdoKkTgM,344m16ozllsw98pkhqhl4zt7rn1nev,3l4pim1gqxthhvwx10fy96mpcfiryk,AdoKkTgM,2020-0188,2021-10-15,15:20:57,16:14:21,NA,incomplete,false,true,NA,6,5,NA,gray,m_s_028.jpg,NA,NA,unpleasant,pleasant,NA,NA,NA,NA,NA,right,1365.09999990463,true,NA,NA,NA,NA,NA
AdoKkTgM,344m16ozllsw98pkhqhl4zt7rn1nev,3l4pim1gqxthhvwx10fy96mpcfiryk,AdoKkTgM,2020-0188,2021-10-15,15:20:57,16:14:21,NA,incomplete,false,true,NA,6,6,NA,brown,m_l_051.jpg,NA,NA,unpleasant,pleasant,NA,NA,NA,NA,NA,right,1399.29999995232,true,NA,NA,NA,NA,NA
AdoKkTgM,344m16ozllsw98pkhqhl4zt7rn1nev,3l4pim1gqxthhvwx10fy96mpcfiryk,AdoKkTgM,2020-0188,2021-10-15,15:20:57,16:14:21,NA,incomplete,false,true,NA,6,7,NA,brown,m_l_057.jpg,NA,NA,pleasant,unpleasant,NA,NA,NA,NA,NA,right,2053.40000009537,true,NA,NA,NA,NA,NA
AdoKkTgM,344m16ozllsw98pkhqhl4zt7rn1nev,3l4pim1gqxthhvwx10fy96mpcfiryk,AdoKkTgM,2020-0188,2021-10-15,15:20:57,16:14:21,NA,incomplete,false,true,NA,6,8,NA,brown,m_s_081.jpg,NA,NA,pleasant,unpleasant,NA,NA,NA,NA,NA,left,1379.59999990463,true,NA,NA,NA,NA,NA
AdoKkTgM,344m16ozllsw98pkhqhl4zt7rn1nev,3l4pim1gqxthhvwx10fy96mpcfiryk,AdoKkTgM,2020-0188,2021-10-15,15:20:57,16:14:21,NA,incomplete,false,true,NA,6,9,NA,brown,m_l_073.jpg,NA,NA,unpleasant,pleasant,NA,NA,NA,NA,NA,left,1101,true,NA,NA,NA,NA,NA
AdoKkTgM,344m16ozllsw98pkhqhl4zt7rn1nev,3l4pim1gqxthhvwx10fy96mpcfiryk,AdoKkTgM,2020-0188,2021-10-15,15:20:57,16:14:21,NA,incomplete,false,true,NA,6,10,NA,brown,n_l_049.jpg,NA,NA,unpleasant,pleasant,NA,NA,NA,NA,NA,right,1021.70000004768,true,NA,NA,NA,NA,NA
AdoKkTgM,344m16ozllsw98pkhqhl4zt7rn1nev,3l4pim1gqxthhvwx10fy96mpcfiryk,AdoKkTgM,2020-0188,2021-10-15,15:20:57,16:14:21,NA,incomplete,false,true,NA,6,11,NA,brown,m_s_092.jpg,NA,NA,pleasant,unpleasant,NA,NA,NA,NA,NA,left,1020.10000014305,true,NA,NA,NA,NA,NA
AdoKkTgM,344m16ozllsw98pkhqhl4zt7rn1nev,3l4pim1gqxthhvwx10fy96mpcfiryk,AdoKkTgM,2020-0188,2021-10-15,15:20:57,16:14:21,NA,incomplete,false,true,NA,6,12,NA,purple,n_s_005.jpg,NA,NA,pleasant,unpleasant,NA,NA,NA,NA,NA,left,1155.5,true,NA,NA,NA,NA,NA
AdoKkTgM,344m16ozllsw98pkhqhl4zt7rn1nev,3l4pim1gqxthhvwx10fy96mpcfiryk,AdoKkTgM,2020-0188,2021-10-15,15:20:57,16:14:21,NA,incomplete,false,true,NA,6,13,NA,purple,n_l_044.jpg,NA,NA,unpleasant,pleasant,NA,NA,NA,NA,NA,right,1089.20000004768,true,NA,NA,NA,NA,NA
AdoKkTgM,344m16ozllsw98pkhqhl4zt7rn1nev,3l4pim1gqxthhvwx10fy96mpcfiryk,AdoKkTgM,2020-0188,2021-10-15,15:20:57,16:14:21,NA,incomplete,false,true,NA,6,14,NA,purple,m_s_057.jpg,NA,NA,unpleasant,pleasant,NA,NA,NA,NA,NA,left,1405.29999995232,true,NA,NA,NA,NA,NA
AdoKkTgM,344m16ozllsw98pkhqhl4zt7rn1nev,3l4pim1gqxthhvwx10fy96mpcfiryk,AdoKkTgM,2020-0188,2021-10-15,15:20:57,16:14:21,NA,incomplete,false,true,NA,6,15,NA,purple,m_l_050.jpg,NA,NA,pleasant,unpleasant,NA,NA,NA,NA,NA,left,1155.70000004768,true,NA,NA,NA,NA,NA
AdoKkTgM,344m16ozllsw98pkhqhl4zt7rn1nev,3l4pim1gqxthhvwx10fy96mpcfiryk,AdoKkTgM,2020-0188,2021-10-15,15:20:57,16:14:21,NA,incomplete,false,true,NA,6,16,NA,purple,n_l_041.jpg,NA,NA,pleasant,unpleasant,NA,NA,NA,NA,NA,right,1255.29999995232,true,NA,NA,NA,NA,NA
AdoKkTgM,344m16ozllsw98pkhqhl4zt7rn1nev,3l4pim1gqxthhvwx10fy96mpcfiryk,AdoKkTgM,2020-0188,2021-10-15,15:20:57,16:14:21,NA,incomplete,false,true,NA,6,17,NA,purple,m_l_115.jpg,NA,NA,unpleasant,pleasant,NA,NA,NA,NA,NA,right,959.700000047684,true,NA,NA,NA,NA,NA
AdoKkTgM,344m16ozllsw98pkhqhl4zt7rn1nev,3l4pim1gqxthhvwx10fy96mpcfiryk,AdoKkTgM,2020-0188,2021-10-15,15:20:57,16:14:21,NA,incomplete,false,true,NA,6,18,NA,red,m_l_042.jpg,NA,NA,pleasant,unpleasant,NA,NA,NA,NA,NA,left,1122.59999990463,true,NA,NA,NA,NA,NA
AdoKkTgM,344m16ozllsw98pkhqhl4zt7rn1nev,3l4pim1gqxthhvwx10fy96mpcfiryk,AdoKkTgM,2020-0188,2021-10-15,15:20:57,16:14:21,NA,incomplete,false,true,NA,6,19,NA,red,n_s_057.jpg,NA,NA,pleasant,unpleasant,NA,NA,NA,NA,NA,right,1273.20000004768,true,NA,NA,NA,NA,NA
AdoKkTgM,344m16ozllsw98pkhqhl4zt7rn1nev,3l4pim1gqxthhvwx10fy96mpcfiryk,AdoKkTgM,2020-0188,2021-10-15,15:20:57,16:14:21,NA,incomplete,false,true,NA,6,20,NA,red,m_s_001.jpg,NA,NA,unpleasant,pleasant,NA,NA,NA,NA,NA,right,1201.79999995232,true,NA,NA,NA,NA,NA
AdoKkTgM,344m16ozllsw98pkhqhl4zt7rn1nev,3l4pim1gqxthhvwx10fy96mpcfiryk,AdoKkTgM,2020-0188,2021-10-15,15:20:57,16:14:21,NA,incomplete,false,true,NA,6,21,NA,red,n_l_062.jpg,NA,NA,unpleasant,pleasant,NA,NA,NA,NA,NA,right,1059.70000004768,true,NA,NA,NA,NA,NA
AdoKkTgM,344m16ozllsw98pkhqhl4zt7rn1nev,3l4pim1gqxthhvwx10fy96mpcfiryk,AdoKkTgM,2020-0188,2021-10-15,15:20:57,16:14:21,NA,incomplete,false,true,NA,6,22,NA,red,m_l_009.jpg,NA,NA,unpleasant,pleasant,NA,NA,NA,NA,NA,right,1632.59999990463,true,NA,NA,NA,NA,NA
AdoKkTgM,344m16ozllsw98pkhqhl4zt7rn1nev,3l4pim1gqxthhvwx10fy96mpcfiryk,AdoKkTgM,2020-0188,2021-10-15,15:20:57,16:14:21,NA,incomplete,false,true,NA,6,23,NA,red,n_l_079.jpg,NA,NA,unpleasant,pleasant,NA,NA,NA,NA,NA,right,1704.89999985695,true,NA,NA,NA,NA,NA
AdoKkTgM,344m16ozllsw98pkhqhl4zt7rn1nev,3l4pim1gqxthhvwx10fy96mpcfiryk,AdoKkTgM,2020-0188,2021-10-15,15:20:57,16:14:21,NA,incomplete,false,true,NA,6,24,NA,yellow,n_l_076.jpg,NA,NA,pleasant,unpleasant,NA,NA,NA,NA,NA,right,1572.09999990463,true,NA,NA,NA,NA,NA
AdoKkTgM,344m16ozllsw98pkhqhl4zt7rn1nev,3l4pim1gqxthhvwx10fy96mpcfiryk,AdoKkTgM,2020-0188,2021-10-15,15:20:57,16:14:21,NA,incomplete,false,true,NA,6,25,NA,yellow,n_s_110.jpg,NA,NA,pleasant,unpleasant,NA,NA,NA,NA,NA,right,1563.39999985695,true,NA,NA,NA,NA,NA
AdoKkTgM,344m16ozllsw98pkhqhl4zt7rn1nev,3l4pim1gqxthhvwx10fy96mpcfiryk,AdoKkTgM,2020-0188,2021-10-15,15:20:57,16:14:21,NA,incomplete,false,true,NA,6,26,NA,yellow,m_s_030.jpg,NA,NA,unpleasant,pleasant,NA,NA,NA,NA,NA,right,1328,true,NA,NA,NA,NA,NA
AdoKkTgM,344m16ozllsw98pkhqhl4zt7rn1nev,3l4pim1gqxthhvwx10fy96mpcfiryk,AdoKkTgM,2020-0188,2021-10-15,15:20:57,16:14:21,NA,incomplete,false,true,NA,6,27,NA,yellow,m_s_096.jpg,NA,NA,unpleasant,pleasant,NA,NA,NA,NA,NA,left,1239.70000004768,true,NA,NA,NA,NA,NA
AdoKkTgM,344m16ozllsw98pkhqhl4zt7rn1nev,3l4pim1gqxthhvwx10fy96mpcfiryk,AdoKkTgM,2020-0188,2021-10-15,15:20:57,16:14:21,NA,incomplete,false,true,NA,6,28,NA,yellow,n_l_057.jpg,NA,NA,pleasant,unpleasant,NA,NA,NA,NA,NA,left,1424.29999995232,true,NA,NA,NA,NA,NA
AdoKkTgM,344m16ozllsw98pkhqhl4zt7rn1nev,3l4pim1gqxthhvwx10fy96mpcfiryk,AdoKkTgM,2020-0188,2021-10-15,15:20:57,16:14:21,NA,incomplete,false,true,NA,6,29,NA,yellow,m_s_003.jpg,NA,NA,unpleasant,pleasant,NA,NA,NA,NA,NA,left,1531.30000019073,true,NA,NA,NA,NA,NA
AdoKkTgM,344m16ozllsw98pkhqhl4zt7rn1nev,3l4pim1gqxthhvwx10fy96mpcfiryk,AdoKkTgM,2020-0188,2021-10-15,15:20:57,16:14:21,NA,incomplete,false,true,NA,6,30,NA,orange,n_s_024.jpg,NA,NA,pleasant,unpleasant,NA,NA,NA,NA,NA,left,1442.69999980927,true,NA,NA,NA,NA,NA
AdoKkTgM,344m16ozllsw98pkhqhl4zt7rn1nev,3l4pim1gqxthhvwx10fy96mpcfiryk,AdoKkTgM,2020-0188,2021-10-15,15:20:57,16:14:21,NA,incomplete,false,true,NA,6,31,NA,orange,m_l_044.jpg,NA,NA,unpleasant,pleasant,NA,NA,NA,NA,NA,right,1267.5,true,NA,NA,NA,NA,NA
AdoKkTgM,344m16ozllsw98pkhqhl4zt7rn1nev,3l4pim1gqxthhvwx10fy96mpcfiryk,AdoKkTgM,2020-0188,2021-10-15,15:20:57,16:14:21,NA,incomplete,false,true,NA,6,32,NA,orange,m_s_107.jpg,NA,NA,pleasant,unpleasant,NA,NA,NA,NA,NA,right,1157.09999990463,true,NA,NA,NA,NA,NA
AdoKkTgM,344m16ozllsw98pkhqhl4zt7rn1nev,3l4pim1gqxthhvwx10fy96mpcfiryk,AdoKkTgM,2020-0188,2021-10-15,15:20:57,16:14:21,NA,incomplete,false,true,NA,6,33,NA,orange,n_l_081.jpg,NA,NA,pleasant,unpleasant,NA,NA,NA,NA,NA,left,1260.20000004768,true,NA,NA,NA,NA,NA
AdoKkTgM,344m16ozllsw98pkhqhl4zt7rn1nev,3l4pim1gqxthhvwx10fy96mpcfiryk,AdoKkTgM,2020-0188,2021-10-15,15:20:57,16:14:21,NA,incomplete,false,true,NA,6,34,NA,orange,n_s_097.jpg,NA,NA,unpleasant,pleasant,NA,NA,NA,NA,NA,right,1372.59999990463,true,NA,NA,NA,NA,NA
AdoKkTgM,344m16ozllsw98pkhqhl4zt7rn1nev,3l4pim1gqxthhvwx10fy96mpcfiryk,AdoKkTgM,2020-0188,2021-10-15,15:20:57,16:14:21,NA,incomplete,false,true,NA,6,35,NA,orange,n_s_066.jpg,NA,NA,pleasant,unpleasant,NA,NA,NA,NA,NA,left,1365.80000019073,true,NA,NA,NA,NA,NA
AdoKkTgM,344m16ozllsw98pkhqhl4zt7rn1nev,3l4pim1gqxthhvwx10fy96mpcfiryk,AdoKkTgM,2020-0188,2021-10-15,15:20:57,16:14:21,NA,incomplete,false,NA,true,6,0,NA,NA,NA,right,present,NA,NA,m_s_107.jpg,orange,n_l_057.jpg,yellow,between,NA,NaN,NA,right,2940.5999999046326,1,1,2019.6999998092651
AdoKkTgM,344m16ozllsw98pkhqhl4zt7rn1nev,3l4pim1gqxthhvwx10fy96mpcfiryk,AdoKkTgM,2020-0188,2021-10-15,15:20:57,16:14:21,NA,incomplete,false,NA,true,6,1,NA,NA,NA,left,present,NA,NA,m_l_011.jpg,gray,m_s_028.jpg,gray,within,NA,NaN,NA,left,2977.600000143051,1,0,793.8999998569489
AdoKkTgM,344m16ozllsw98pkhqhl4zt7rn1nev,3l4pim1gqxthhvwx10fy96mpcfiryk,AdoKkTgM,2020-0188,2021-10-15,15:20:57,16:14:21,NA,incomplete,false,NA,true,6,2,NA,NA,NA,left,present,NA,NA,m_l_057.jpg,brown,m_s_092.jpg,brown,within,NA,NaN,NA,left,2627.0999999046326,1,0,1203.5999999046326
AdoKkTgM,344m16ozllsw98pkhqhl4zt7rn1nev,3l4pim1gqxthhvwx10fy96mpcfiryk,AdoKkTgM,2020-0188,2021-10-15,15:20:57,16:14:21,NA,incomplete,false,NA,true,6,3,NA,NA,NA,right,present,NA,NA,m_s_003.jpg,yellow,n_s_110.jpg,yellow,within,NA,NaN,NA,right,2431.5999999046326,1,0,932.2000000476837
AdoKkTgM,344m16ozllsw98pkhqhl4zt7rn1nev,3l4pim1gqxthhvwx10fy96mpcfiryk,AdoKkTgM,2020-0188,2021-10-15,15:20:57,16:14:21,NA,incomplete,false,NA,true,6,4,NA,NA,NA,left,present,NA,NA,m_l_009.jpg,red,m_s_030.jpg,yellow,between,NA,NaN,NA,left,2938.399999856949,1,1,955.5
AdoKkTgM,344m16ozllsw98pkhqhl4zt7rn1nev,3l4pim1gqxthhvwx10fy96mpcfiryk,AdoKkTgM,2020-0188,2021-10-15,15:20:57,16:14:21,NA,incomplete,false,NA,true,6,5,NA,NA,NA,right,present,NA,NA,n_s_066.jpg,orange,m_l_044.jpg,orange,within,NA,NaN,NA,right,1803.2999999523163,1,0,949.3000001907349
AdoKkTgM,344m16ozllsw98pkhqhl4zt7rn1nev,3l4pim1gqxthhvwx10fy96mpcfiryk,AdoKkTgM,2020-0188,2021-10-15,15:20:57,16:14:21,NA,incomplete,false,NA,true,6,6,NA,NA,NA,right,present,NA,NA,m_s_081.jpg,brown,m_l_084.jpg,gray,between,NA,NaN,NA,right,4205.299999952316,1,1,815.5999999046326
AdoKkTgM,344m16ozllsw98pkhqhl4zt7rn1nev,3l4pim1gqxthhvwx10fy96mpcfiryk,AdoKkTgM,2020-0188,2021-10-15,15:20:57,16:14:21,NA,incomplete,false,NA,true,6,7,NA,NA,NA,left,present,NA,NA,n_s_057.jpg,red,n_l_079.jpg,red,within,NA,NaN,NA,left,3016.800000190735,1,0,1275.3999998569489
AdoKkTgM,344m16ozllsw98pkhqhl4zt7rn1nev,3l4pim1gqxthhvwx10fy96mpcfiryk,AdoKkTgM,2020-0188,2021-10-15,15:20:57,16:14:21,NA,incomplete,false,NA,true,6,8,NA,NA,NA,right,present,NA,NA,m_s_057.jpg,purple,n_l_049.jpg,brown,between,NA,NaN,NA,right,2797.7000000476837,1,1,915.7999999523163
AdoKkTgM,344m16ozllsw98pkhqhl4zt7rn1nev,3l4pim1gqxthhvwx10fy96mpcfiryk,AdoKkTgM,2020-0188,2021-10-15,15:20:57,16:14:21,NA,incomplete,false,NA,true,6,9,NA,NA,NA,right,present,NA,NA,m_l_115.jpg,purple,n_l_044.jpg,purple,within,NA,NaN,NA,right,2121.199999809265,1,0,839.6999998092651
AdoKkTgM,344m16ozllsw98pkhqhl4zt7rn1nev,3l4pim1gqxthhvwx10fy96mpcfiryk,AdoKkTgM,2020-0188,2021-10-15,15:20:57,16:14:21,NA,incomplete,false,NA,true,6,10,NA,NA,NA,left,present,NA,NA,n_l_041.jpg,purple,m_s_001.jpg,red,between,NA,NaN,NA,left,3527.399999856949,1,1,964
AdoKkTgM,344m16ozllsw98pkhqhl4zt7rn1nev,3l4pim1gqxthhvwx10fy96mpcfiryk,AdoKkTgM,2020-0188,2021-10-15,15:20:57,16:14:21,NA,incomplete,false,true,NA,7,0,NA,red,n_s_028.jpg,NA,NA,unpleasant,pleasant,NA,NA,NA,NA,NA,right,1005.5,true,NA,NA,NA,NA,NA
AdoKkTgM,344m16ozllsw98pkhqhl4zt7rn1nev,3l4pim1gqxthhvwx10fy96mpcfiryk,AdoKkTgM,2020-0188,2021-10-15,15:20:57,16:14:21,NA,incomplete,false,true,NA,7,1,NA,red,m_s_073.jpg,NA,NA,pleasant,unpleasant,NA,NA,NA,NA,NA,left,939.200000047684,true,NA,NA,NA,NA,NA
AdoKkTgM,344m16ozllsw98pkhqhl4zt7rn1nev,3l4pim1gqxthhvwx10fy96mpcfiryk,AdoKkTgM,2020-0188,2021-10-15,15:20:57,16:14:21,NA,incomplete,false,true,NA,7,2,NA,red,n_l_087.jpg,NA,NA,pleasant,unpleasant,NA,NA,NA,NA,NA,left,836.199999809265,true,NA,NA,NA,NA,NA
AdoKkTgM,344m16ozllsw98pkhqhl4zt7rn1nev,3l4pim1gqxthhvwx10fy96mpcfiryk,AdoKkTgM,2020-0188,2021-10-15,15:20:57,16:14:21,NA,incomplete,false,true,NA,7,3,NA,red,n_s_018.jpg,NA,NA,pleasant,unpleasant,NA,NA,NA,NA,NA,right,1127.10000014305,true,NA,NA,NA,NA,NA
AdoKkTgM,344m16ozllsw98pkhqhl4zt7rn1nev,3l4pim1gqxthhvwx10fy96mpcfiryk,AdoKkTgM,2020-0188,2021-10-15,15:20:57,16:14:21,NA,incomplete,false,true,NA,7,4,NA,red,n_l_033.jpg,NA,NA,unpleasant,pleasant,NA,NA,NA,NA,NA,left,900.100000143051,true,NA,NA,NA,NA,NA
AdoKkTgM,344m16ozllsw98pkhqhl4zt7rn1nev,3l4pim1gqxthhvwx10fy96mpcfiryk,AdoKkTgM,2020-0188,2021-10-15,15:20:57,16:14:21,NA,incomplete,false,true,NA,7,5,NA,red,n_s_091.jpg,NA,NA,unpleasant,pleasant,NA,NA,NA,NA,NA,left,684.800000190735,true,NA,NA,NA,NA,NA
AdoKkTgM,344m16ozllsw98pkhqhl4zt7rn1nev,3l4pim1gqxthhvwx10fy96mpcfiryk,AdoKkTgM,2020-0188,2021-10-15,15:20:57,16:14:21,NA,incomplete,false,true,NA,7,6,NA,blue,n_s_014.jpg,NA,NA,unpleasant,pleasant,NA,NA,NA,NA,NA,right,971.700000047684,true,NA,NA,NA,NA,NA
AdoKkTgM,344m16ozllsw98pkhqhl4zt7rn1nev,3l4pim1gqxthhvwx10fy96mpcfiryk,AdoKkTgM,2020-0188,2021-10-15,15:20:57,16:14:21,NA,incomplete,false,true,NA,7,7,NA,blue,m_s_106.jpg,NA,NA,pleasant,unpleasant,NA,NA,NA,NA,NA,left,1060.09999990463,true,NA,NA,NA,NA,NA
AdoKkTgM,344m16ozllsw98pkhqhl4zt7rn1nev,3l4pim1gqxthhvwx10fy96mpcfiryk,AdoKkTgM,2020-0188,2021-10-15,15:20:57,16:14:21,NA,incomplete,false,true,NA,7,8,NA,blue,m_s_017.jpg,NA,NA,pleasant,unpleasant,NA,NA,NA,NA,NA,right,1290.30000019073,true,NA,NA,NA,NA,NA
AdoKkTgM,344m16ozllsw98pkhqhl4zt7rn1nev,3l4pim1gqxthhvwx10fy96mpcfiryk,AdoKkTgM,2020-0188,2021-10-15,15:20:57,16:14:21,NA,incomplete,false,true,NA,7,9,NA,blue,n_l_029.jpg,NA,NA,unpleasant,pleasant,NA,NA,NA,NA,NA,left,897.700000047684,true,NA,NA,NA,NA,NA
AdoKkTgM,344m16ozllsw98pkhqhl4zt7rn1nev,3l4pim1gqxthhvwx10fy96mpcfiryk,AdoKkTgM,2020-0188,2021-10-15,15:20:57,16:14:21,NA,incomplete,false,true,NA,7,10,NA,blue,m_s_045.jpg,NA,NA,unpleasant,pleasant,NA,NA,NA,NA,NA,right,916.799999952316,true,NA,NA,NA,NA,NA
AdoKkTgM,344m16ozllsw98pkhqhl4zt7rn1nev,3l4pim1gqxthhvwx10fy96mpcfiryk,AdoKkTgM,2020-0188,2021-10-15,15:20:57,16:14:21,NA,incomplete,false,true,NA,7,11,NA,blue,m_s_015.jpg,NA,NA,unpleasant,pleasant,NA,NA,NA,NA,NA,right,834.200000047684,true,NA,NA,NA,NA,NA
AdoKkTgM,344m16ozllsw98pkhqhl4zt7rn1nev,3l4pim1gqxthhvwx10fy96mpcfiryk,AdoKkTgM,2020-0188,2021-10-15,15:20:57,16:14:21,NA,incomplete,false,true,NA,7,12,NA,white,n_l_042.jpg,NA,NA,pleasant,unpleasant,NA,NA,NA,NA,NA,left,1085,true,NA,NA,NA,NA,NA
AdoKkTgM,344m16ozllsw98pkhqhl4zt7rn1nev,3l4pim1gqxthhvwx10fy96mpcfiryk,AdoKkTgM,2020-0188,2021-10-15,15:20:57,16:14:21,NA,incomplete,false,true,NA,7,13,NA,white,m_l_102.jpg,NA,NA,pleasant,unpleasant,NA,NA,NA,NA,NA,left,913.299999952316,true,NA,NA,NA,NA,NA
AdoKkTgM,344m16ozllsw98pkhqhl4zt7rn1nev,3l4pim1gqxthhvwx10fy96mpcfiryk,AdoKkTgM,2020-0188,2021-10-15,15:20:57,16:14:21,NA,incomplete,false,true,NA,7,14,NA,white,n_l_104.jpg,NA,NA,pleasant,unpleasant,NA,NA,NA,NA,NA,left,1018.80000019073,true,NA,NA,NA,NA,NA
AdoKkTgM,344m16ozllsw98pkhqhl4zt7rn1nev,3l4pim1gqxthhvwx10fy96mpcfiryk,AdoKkTgM,2020-0188,2021-10-15,15:20:57,16:14:21,NA,incomplete,false,true,NA,7,15,NA,white,n_l_072.jpg,NA,NA,unpleasant,pleasant,NA,NA,NA,NA,NA,left,1023.20000004768,true,NA,NA,NA,NA,NA
AdoKkTgM,344m16ozllsw98pkhqhl4zt7rn1nev,3l4pim1gqxthhvwx10fy96mpcfiryk,AdoKkTgM,2020-0188,2021-10-15,15:20:57,16:14:21,NA,incomplete,false,true,NA,7,16,NA,white,n_s_049.jpg,NA,NA,unpleasant,pleasant,NA,NA,NA,NA,NA,left,968.299999952316,true,NA,NA,NA,NA,NA
AdoKkTgM,344m16ozllsw98pkhqhl4zt7rn1nev,3l4pim1gqxthhvwx10fy96mpcfiryk,AdoKkTgM,2020-0188,2021-10-15,15:20:57,16:14:21,NA,incomplete,false,true,NA,7,17,NA,white,n_l_096.jpg,NA,NA,pleasant,unpleasant,NA,NA,NA,NA,NA,left,1208.89999985695,true,NA,NA,NA,NA,NA
AdoKkTgM,344m16ozllsw98pkhqhl4zt7rn1nev,3l4pim1gqxthhvwx10fy96mpcfiryk,AdoKkTgM,2020-0188,2021-10-15,15:20:57,16:14:21,NA,incomplete,false,true,NA,7,18,NA,yellow,m_l_046.jpg,NA,NA,unpleasant,pleasant,NA,NA,NA,NA,NA,right,1129.30000019073,true,NA,NA,NA,NA,NA
AdoKkTgM,344m16ozllsw98pkhqhl4zt7rn1nev,3l4pim1gqxthhvwx10fy96mpcfiryk,AdoKkTgM,2020-0188,2021-10-15,15:20:57,16:14:21,NA,incomplete,false,true,NA,7,19,NA,yellow,n_l_060.jpg,NA,NA,unpleasant,pleasant,NA,NA,NA,NA,NA,right,1329.29999995232,true,NA,NA,NA,NA,NA
AdoKkTgM,344m16ozllsw98pkhqhl4zt7rn1nev,3l4pim1gqxthhvwx10fy96mpcfiryk,AdoKkTgM,2020-0188,2021-10-15,15:20:57,16:14:21,NA,incomplete,false,true,NA,7,20,NA,yellow,n_l_078.jpg,NA,NA,unpleasant,pleasant,NA,NA,NA,NA,NA,right,1220.5,true,NA,NA,NA,NA,NA
AdoKkTgM,344m16ozllsw98pkhqhl4zt7rn1nev,3l4pim1gqxthhvwx10fy96mpcfiryk,AdoKkTgM,2020-0188,2021-10-15,15:20:57,16:14:21,NA,incomplete,false,true,NA,7,21,NA,yellow,m_s_002.jpg,NA,NA,pleasant,unpleasant,NA,NA,NA,NA,NA,left,1193.5,true,NA,NA,NA,NA,NA
AdoKkTgM,344m16ozllsw98pkhqhl4zt7rn1nev,3l4pim1gqxthhvwx10fy96mpcfiryk,AdoKkTgM,2020-0188,2021-10-15,15:20:57,16:14:21,NA,incomplete,false,true,NA,7,22,NA,yellow,n_s_010.jpg,NA,NA,pleasant,unpleasant,NA,NA,NA,NA,NA,right,945.800000190735,true,NA,NA,NA,NA,NA
AdoKkTgM,344m16ozllsw98pkhqhl4zt7rn1nev,3l4pim1gqxthhvwx10fy96mpcfiryk,AdoKkTgM,2020-0188,2021-10-15,15:20:57,16:14:21,NA,incomplete,false,true,NA,7,23,NA,yellow,n_s_045.jpg,NA,NA,pleasant,unpleasant,NA,NA,NA,NA,NA,right,919.400000095367,true,NA,NA,NA,NA,NA
AdoKkTgM,344m16ozllsw98pkhqhl4zt7rn1nev,3l4pim1gqxthhvwx10fy96mpcfiryk,AdoKkTgM,2020-0188,2021-10-15,15:20:57,16:14:21,NA,incomplete,false,true,NA,7,24,NA,orange,n_l_091.jpg,NA,NA,unpleasant,pleasant,NA,NA,NA,NA,NA,right,906.5,true,NA,NA,NA,NA,NA
AdoKkTgM,344m16ozllsw98pkhqhl4zt7rn1nev,3l4pim1gqxthhvwx10fy96mpcfiryk,AdoKkTgM,2020-0188,2021-10-15,15:20:57,16:14:21,NA,incomplete,false,true,NA,7,25,NA,orange,n_l_036.jpg,NA,NA,pleasant,unpleasant,NA,NA,NA,NA,NA,right,920,true,NA,NA,NA,NA,NA
AdoKkTgM,344m16ozllsw98pkhqhl4zt7rn1nev,3l4pim1gqxthhvwx10fy96mpcfiryk,AdoKkTgM,2020-0188,2021-10-15,15:20:57,16:14:21,NA,incomplete,false,true,NA,7,26,NA,orange,m_s_009.jpg,NA,NA,pleasant,unpleasant,NA,NA,NA,NA,NA,left,774.5,true,NA,NA,NA,NA,NA
AdoKkTgM,344m16ozllsw98pkhqhl4zt7rn1nev,3l4pim1gqxthhvwx10fy96mpcfiryk,AdoKkTgM,2020-0188,2021-10-15,15:20:57,16:14:21,NA,incomplete,false,true,NA,7,27,NA,orange,n_s_042.jpg,NA,NA,pleasant,unpleasant,NA,NA,NA,NA,NA,left,1114.29999995232,true,NA,NA,NA,NA,NA
AdoKkTgM,344m16ozllsw98pkhqhl4zt7rn1nev,3l4pim1gqxthhvwx10fy96mpcfiryk,AdoKkTgM,2020-0188,2021-10-15,15:20:57,16:14:21,NA,incomplete,false,true,NA,7,28,NA,orange,m_l_016.jpg,NA,NA,pleasant,unpleasant,NA,NA,NA,NA,NA,left,855.900000095367,true,NA,NA,NA,NA,NA
AdoKkTgM,344m16ozllsw98pkhqhl4zt7rn1nev,3l4pim1gqxthhvwx10fy96mpcfiryk,AdoKkTgM,2020-0188,2021-10-15,15:20:57,16:14:21,NA,incomplete,false,true,NA,7,29,NA,orange,n_l_113.jpg,NA,NA,unpleasant,pleasant,NA,NA,NA,NA,NA,left,995.299999952316,true,NA,NA,NA,NA,NA
AdoKkTgM,344m16ozllsw98pkhqhl4zt7rn1nev,3l4pim1gqxthhvwx10fy96mpcfiryk,AdoKkTgM,2020-0188,2021-10-15,15:20:57,16:14:21,NA,incomplete,false,true,NA,7,30,NA,green,n_l_069.jpg,NA,NA,unpleasant,pleasant,NA,NA,NA,NA,NA,right,839.100000143051,true,NA,NA,NA,NA,NA
AdoKkTgM,344m16ozllsw98pkhqhl4zt7rn1nev,3l4pim1gqxthhvwx10fy96mpcfiryk,AdoKkTgM,2020-0188,2021-10-15,15:20:57,16:14:21,NA,incomplete,false,true,NA,7,31,NA,green,n_l_055.jpg,NA,NA,unpleasant,pleasant,NA,NA,NA,NA,NA,left,808.599999904633,true,NA,NA,NA,NA,NA
AdoKkTgM,344m16ozllsw98pkhqhl4zt7rn1nev,3l4pim1gqxthhvwx10fy96mpcfiryk,AdoKkTgM,2020-0188,2021-10-15,15:20:57,16:14:21,NA,incomplete,false,true,NA,7,32,NA,green,n_s_058.jpg,NA,NA,unpleasant,pleasant,NA,NA,NA,NA,NA,right,996.899999856949,true,NA,NA,NA,NA,NA
AdoKkTgM,344m16ozllsw98pkhqhl4zt7rn1nev,3l4pim1gqxthhvwx10fy96mpcfiryk,AdoKkTgM,2020-0188,2021-10-15,15:20:57,16:14:21,NA,incomplete,false,true,NA,7,33,NA,green,m_l_066.jpg,NA,NA,unpleasant,pleasant,NA,NA,NA,NA,NA,right,1149.80000019073,true,NA,NA,NA,NA,NA
AdoKkTgM,344m16ozllsw98pkhqhl4zt7rn1nev,3l4pim1gqxthhvwx10fy96mpcfiryk,AdoKkTgM,2020-0188,2021-10-15,15:20:57,16:14:21,NA,incomplete,false,true,NA,7,34,NA,green,m_s_016.jpg,NA,NA,pleasant,unpleasant,NA,NA,NA,NA,NA,left,814.099999904633,true,NA,NA,NA,NA,NA
AdoKkTgM,344m16ozllsw98pkhqhl4zt7rn1nev,3l4pim1gqxthhvwx10fy96mpcfiryk,AdoKkTgM,2020-0188,2021-10-15,15:20:57,16:14:21,NA,incomplete,false,true,NA,7,35,NA,green,n_l_011.jpg,NA,NA,unpleasant,pleasant,NA,NA,NA,NA,NA,left,1364.30000019073,true,NA,NA,NA,NA,NA
AdoKkTgM,344m16ozllsw98pkhqhl4zt7rn1nev,3l4pim1gqxthhvwx10fy96mpcfiryk,AdoKkTgM,2020-0188,2021-10-15,15:20:57,16:14:21,NA,incomplete,false,NA,true,7,0,NA,NA,NA,left,present,NA,NA,n_s_049.jpg,white,n_l_078.jpg,yellow,between,NA,NaN,NA,left,4148.600000143051,1,1,3117.2999999523163
AdoKkTgM,344m16ozllsw98pkhqhl4zt7rn1nev,3l4pim1gqxthhvwx10fy96mpcfiryk,AdoKkTgM,2020-0188,2021-10-15,15:20:57,16:14:21,NA,incomplete,false,NA,true,7,1,NA,NA,NA,right,present,NA,NA,m_s_015.jpg,blue,m_s_106.jpg,blue,within,NA,NaN,NA,right,2875.5,1,0,915.3999998569489
AdoKkTgM,344m16ozllsw98pkhqhl4zt7rn1nev,3l4pim1gqxthhvwx10fy96mpcfiryk,AdoKkTgM,2020-0188,2021-10-15,15:20:57,16:14:21,NA,incomplete,false,NA,true,7,2,NA,NA,NA,left,present,NA,NA,n_l_055.jpg,green,n_l_011.jpg,green,within,NA,NaN,NA,left,2059.399999856949,1,0,1065.5
AdoKkTgM,344m16ozllsw98pkhqhl4zt7rn1nev,3l4pim1gqxthhvwx10fy96mpcfiryk,AdoKkTgM,2020-0188,2021-10-15,15:20:57,16:14:21,NA,incomplete,false,NA,true,7,3,NA,NA,NA,left,present,NA,NA,n_l_036.jpg,orange,n_l_113.jpg,orange,within,NA,NaN,NA,left,1660.9000000953674,1,0,1437.4000000953674
AdoKkTgM,344m16ozllsw98pkhqhl4zt7rn1nev,3l4pim1gqxthhvwx10fy96mpcfiryk,AdoKkTgM,2020-0188,2021-10-15,15:20:57,16:14:21,NA,incomplete,false,NA,true,7,4,NA,NA,NA,right,present,NA,NA,n_l_104.jpg,white,m_s_045.jpg,blue,between,NA,NaN,NA,right,2735.5,1,1,1711.4000000953674
AdoKkTgM,344m16ozllsw98pkhqhl4zt7rn1nev,3l4pim1gqxthhvwx10fy96mpcfiryk,AdoKkTgM,2020-0188,2021-10-15,15:20:57,16:14:21,NA,incomplete,false,NA,true,7,5,NA,NA,NA,right,present,NA,NA,m_s_017.jpg,blue,n_l_033.jpg,red,between,NA,NaN,NA,right,1787.7999999523163,1,1,1243.7999999523163
AdoKkTgM,344m16ozllsw98pkhqhl4zt7rn1nev,3l4pim1gqxthhvwx10fy96mpcfiryk,AdoKkTgM,2020-0188,2021-10-15,15:20:57,16:14:21,NA,incomplete,false,NA,true,7,6,NA,NA,NA,left,present,NA,NA,m_l_102.jpg,white,n_l_096.jpg,white,within,NA,NaN,NA,left,2425.399999856949,1,0,1081.5
AdoKkTgM,344m16ozllsw98pkhqhl4zt7rn1nev,3l4pim1gqxthhvwx10fy96mpcfiryk,AdoKkTgM,2020-0188,2021-10-15,15:20:57,16:14:21,NA,incomplete,false,NA,true,7,7,NA,NA,NA,right,present,NA,NA,m_s_009.jpg,orange,n_s_010.jpg,yellow,between,NA,NaN,NA,right,2649.600000143051,1,1,2207.7000000476837
AdoKkTgM,344m16ozllsw98pkhqhl4zt7rn1nev,3l4pim1gqxthhvwx10fy96mpcfiryk,AdoKkTgM,2020-0188,2021-10-15,15:20:57,16:14:21,NA,incomplete,false,NA,true,7,8,NA,NA,NA,left,present,NA,NA,n_l_060.jpg,yellow,n_s_045.jpg,yellow,within,NA,NaN,NA,left,1685.5999999046326,1,0,767.5
AdoKkTgM,344m16ozllsw98pkhqhl4zt7rn1nev,3l4pim1gqxthhvwx10fy96mpcfiryk,AdoKkTgM,2020-0188,2021-10-15,15:20:57,16:14:21,NA,incomplete,false,NA,true,7,9,NA,NA,NA,left,present,NA,NA,m_s_073.jpg,red,n_s_091.jpg,red,within,NA,NaN,NA,left,1711.2000000476837,1,0,949.2000000476837
AdoKkTgM,344m16ozllsw98pkhqhl4zt7rn1nev,3l4pim1gqxthhvwx10fy96mpcfiryk,AdoKkTgM,2020-0188,2021-10-15,15:20:57,16:14:21,NA,incomplete,false,NA,true,7,10,NA,NA,NA,right,present,NA,NA,n_s_058.jpg,green,m_l_016.jpg,orange,between,NA,NaN,NA,right,3171.2999999523163,1,1,823.3999998569489
AdoKkTgM,344m16ozllsw98pkhqhl4zt7rn1nev,3l4pim1gqxthhvwx10fy96mpcfiryk,AdoKkTgM,2020-0188,2021-10-15,15:20:57,16:14:21,NA,incomplete,false,true,NA,8,0,NA,blue,m_l_033.jpg,NA,NA,unpleasant,pleasant,NA,NA,NA,NA,NA,right,1134.29999995232,true,NA,NA,NA,NA,NA
AdoKkTgM,344m16ozllsw98pkhqhl4zt7rn1nev,3l4pim1gqxthhvwx10fy96mpcfiryk,AdoKkTgM,2020-0188,2021-10-15,15:20:57,16:14:21,NA,incomplete,false,true,NA,8,1,NA,blue,n_s_102.jpg,NA,NA,unpleasant,pleasant,NA,NA,NA,NA,NA,right,780.599999904633,true,NA,NA,NA,NA,NA
AdoKkTgM,344m16ozllsw98pkhqhl4zt7rn1nev,3l4pim1gqxthhvwx10fy96mpcfiryk,AdoKkTgM,2020-0188,2021-10-15,15:20:57,16:14:21,NA,incomplete,false,true,NA,8,2,NA,blue,m_s_066.jpg,NA,NA,unpleasant,pleasant,NA,NA,NA,NA,NA,left,1055.09999990463,true,NA,NA,NA,NA,NA
AdoKkTgM,344m16ozllsw98pkhqhl4zt7rn1nev,3l4pim1gqxthhvwx10fy96mpcfiryk,AdoKkTgM,2020-0188,2021-10-15,15:20:57,16:14:21,NA,incomplete,false,true,NA,8,3,NA,blue,m_l_109.jpg,NA,NA,unpleasant,pleasant,NA,NA,NA,NA,NA,right,826.5,true,NA,NA,NA,NA,NA
AdoKkTgM,344m16ozllsw98pkhqhl4zt7rn1nev,3l4pim1gqxthhvwx10fy96mpcfiryk,AdoKkTgM,2020-0188,2021-10-15,15:20:57,16:14:21,NA,incomplete,false,true,NA,8,4,NA,blue,n_l_018.jpg,NA,NA,unpleasant,pleasant,NA,NA,NA,NA,NA,right,830.700000047684,true,NA,NA,NA,NA,NA
AdoKkTgM,344m16ozllsw98pkhqhl4zt7rn1nev,3l4pim1gqxthhvwx10fy96mpcfiryk,AdoKkTgM,2020-0188,2021-10-15,15:20:57,16:14:21,NA,incomplete,false,true,NA,8,5,NA,blue,n_l_108.jpg,NA,NA,pleasant,unpleasant,NA,NA,NA,NA,NA,left,1048.5,true,NA,NA,NA,NA,NA
AdoKkTgM,344m16ozllsw98pkhqhl4zt7rn1nev,3l4pim1gqxthhvwx10fy96mpcfiryk,AdoKkTgM,2020-0188,2021-10-15,15:20:57,16:14:21,NA,incomplete,false,true,NA,8,6,NA,white,m_l_075.jpg,NA,NA,unpleasant,pleasant,NA,NA,NA,NA,NA,left,940.300000190735,true,NA,NA,NA,NA,NA
AdoKkTgM,344m16ozllsw98pkhqhl4zt7rn1nev,3l4pim1gqxthhvwx10fy96mpcfiryk,AdoKkTgM,2020-0188,2021-10-15,15:20:57,16:14:21,NA,incomplete,false,true,NA,8,7,NA,white,m_s_072.jpg,NA,NA,pleasant,unpleasant,NA,NA,NA,NA,NA,left,995.399999856949,true,NA,NA,NA,NA,NA
AdoKkTgM,344m16ozllsw98pkhqhl4zt7rn1nev,3l4pim1gqxthhvwx10fy96mpcfiryk,AdoKkTgM,2020-0188,2021-10-15,15:20:57,16:14:21,NA,incomplete,false,true,NA,8,8,NA,white,m_l_028.jpg,NA,NA,unpleasant,pleasant,NA,NA,NA,NA,NA,right,860.900000095367,true,NA,NA,NA,NA,NA
