workerId,hitId,assignmentId,subject,studyid,exp_date,exp_start,exp_end,time_start,time_end,practice,encoding,memory,block,trial,event_order,event,stim,answer,context_type,label_left,label_right,left_image,left_event,right_image,right_event,condition,response,response_time,response_acc,order_response,order_response_time,order_acc,distance_response,distance_response_time
ArR8MCjh,3mdwe879vkfdd3966pwqlqs2jwg9bh,3napmvf0z0shyrjbz1axvlukwiq270,ArR8MCjh,2020-0188,2021-10-14,10:21:51,11:34:30,NA,incomplete,true,true,NA,0,0,NA,purple,n_s_110.jpg,NA,NA,pleasant,unpleasant,NA,NA,NA,NA,NA,left,1876.69999999972,true,NA,NA,NA,NA,NA
ArR8MCjh,3mdwe879vkfdd3966pwqlqs2jwg9bh,3napmvf0z0shyrjbz1axvlukwiq270,ArR8MCjh,2020-0188,2021-10-14,10:21:51,11:34:30,NA,incomplete,true,true,NA,0,1,NA,purple,n_s_050.jpg,NA,NA,unpleasant,pleasant,NA,NA,NA,NA,NA,right,1665.70000000019,true,NA,NA,NA,NA,NA
ArR8MCjh,3mdwe879vkfdd3966pwqlqs2jwg9bh,3napmvf0z0shyrjbz1axvlukwiq270,ArR8MCjh,2020-0188,2021-10-14,10:21:51,11:34:30,NA,incomplete,true,true,NA,0,2,NA,purple,n_l_022.jpg,NA,NA,pleasant,unpleasant,NA,NA,NA,NA,NA,left,1312.10000000009,true,NA,NA,NA,NA,NA
ArR8MCjh,3mdwe879vkfdd3966pwqlqs2jwg9bh,3napmvf0z0shyrjbz1axvlukwiq270,ArR8MCjh,2020-0188,2021-10-14,10:21:51,11:34:30,NA,incomplete,true,true,NA,0,3,NA,purple,m_l_115.jpg,NA,NA,pleasant,unpleasant,NA,NA,NA,NA,NA,left,1295.80000000028,true,NA,NA,NA,NA,NA
ArR8MCjh,3mdwe879vkfdd3966pwqlqs2jwg9bh,3napmvf0z0shyrjbz1axvlukwiq270,ArR8MCjh,2020-0188,2021-10-14,10:21:51,11:34:30,NA,incomplete,true,true,NA,0,4,NA,purple,m_l_031.jpg,NA,NA,pleasant,unpleasant,NA,NA,NA,NA,NA,left,2333,true,NA,NA,NA,NA,NA
ArR8MCjh,3mdwe879vkfdd3966pwqlqs2jwg9bh,3napmvf0z0shyrjbz1axvlukwiq270,ArR8MCjh,2020-0188,2021-10-14,10:21:51,11:34:30,NA,incomplete,true,true,NA,0,5,NA,purple,m_l_106.jpg,NA,NA,unpleasant,pleasant,NA,NA,NA,NA,NA,right,1668.79999999981,true,NA,NA,NA,NA,NA
ArR8MCjh,3mdwe879vkfdd3966pwqlqs2jwg9bh,3napmvf0z0shyrjbz1axvlukwiq270,ArR8MCjh,2020-0188,2021-10-14,10:21:51,11:34:30,NA,incomplete,true,true,NA,0,6,NA,white,n_s_091.jpg,NA,NA,pleasant,unpleasant,NA,NA,NA,NA,NA,right,1426.89999999991,true,NA,NA,NA,NA,NA
ArR8MCjh,3mdwe879vkfdd3966pwqlqs2jwg9bh,3napmvf0z0shyrjbz1axvlukwiq270,ArR8MCjh,2020-0188,2021-10-14,10:21:51,11:34:30,NA,incomplete,true,true,NA,0,7,NA,white,m_l_054.jpg,NA,NA,unpleasant,pleasant,NA,NA,NA,NA,NA,left,2081.60000000009,true,NA,NA,NA,NA,NA
ArR8MCjh,3mdwe879vkfdd3966pwqlqs2jwg9bh,3napmvf0z0shyrjbz1axvlukwiq270,ArR8MCjh,2020-0188,2021-10-14,10:21:51,11:34:30,NA,incomplete,true,true,NA,0,8,NA,white,m_l_066.jpg,NA,NA,pleasant,unpleasant,NA,NA,NA,NA,NA,left,2745.5,true,NA,NA,NA,NA,NA
ArR8MCjh,3mdwe879vkfdd3966pwqlqs2jwg9bh,3napmvf0z0shyrjbz1axvlukwiq270,ArR8MCjh,2020-0188,2021-10-14,10:21:51,11:34:30,NA,incomplete,true,true,NA,0,9,NA,white,n_l_043.jpg,NA,NA,unpleasant,pleasant,NA,NA,NA,NA,NA,right,2133.20000000019,true,NA,NA,NA,NA,NA
ArR8MCjh,3mdwe879vkfdd3966pwqlqs2jwg9bh,3napmvf0z0shyrjbz1axvlukwiq270,ArR8MCjh,2020-0188,2021-10-14,10:21:51,11:34:30,NA,incomplete,true,true,NA,0,10,NA,white,m_s_027.jpg,NA,NA,unpleasant,pleasant,NA,NA,NA,NA,NA,right,2243.19999999972,true,NA,NA,NA,NA,NA
ArR8MCjh,3mdwe879vkfdd3966pwqlqs2jwg9bh,3napmvf0z0shyrjbz1axvlukwiq270,ArR8MCjh,2020-0188,2021-10-14,10:21:51,11:34:30,NA,incomplete,true,true,NA,0,11,NA,white,n_l_049.jpg,NA,NA,pleasant,unpleasant,NA,NA,NA,NA,NA,left,1302.79999999981,true,NA,NA,NA,NA,NA
ArR8MCjh,3mdwe879vkfdd3966pwqlqs2jwg9bh,3napmvf0z0shyrjbz1axvlukwiq270,ArR8MCjh,2020-0188,2021-10-14,10:21:51,11:34:30,NA,incomplete,true,true,NA,0,12,NA,brown,m_s_059.jpg,NA,NA,pleasant,unpleasant,NA,NA,NA,NA,NA,left,1357.69999999972,true,NA,NA,NA,NA,NA
ArR8MCjh,3mdwe879vkfdd3966pwqlqs2jwg9bh,3napmvf0z0shyrjbz1axvlukwiq270,ArR8MCjh,2020-0188,2021-10-14,10:21:51,11:34:30,NA,incomplete,true,true,NA,0,13,NA,brown,m_s_004.jpg,NA,NA,unpleasant,pleasant,NA,NA,NA,NA,NA,right,1429,true,NA,NA,NA,NA,NA
ArR8MCjh,3mdwe879vkfdd3966pwqlqs2jwg9bh,3napmvf0z0shyrjbz1axvlukwiq270,ArR8MCjh,2020-0188,2021-10-14,10:21:51,11:34:30,NA,incomplete,true,true,NA,0,14,NA,brown,m_l_076.jpg,NA,NA,unpleasant,pleasant,NA,NA,NA,NA,NA,right,1190.10000000009,true,NA,NA,NA,NA,NA
ArR8MCjh,3mdwe879vkfdd3966pwqlqs2jwg9bh,3napmvf0z0shyrjbz1axvlukwiq270,ArR8MCjh,2020-0188,2021-10-14,10:21:51,11:34:30,NA,incomplete,true,true,NA,0,15,NA,brown,m_s_091.jpg,NA,NA,unpleasant,pleasant,NA,NA,NA,NA,NA,right,1374.39999999991,true,NA,NA,NA,NA,NA
ArR8MCjh,3mdwe879vkfdd3966pwqlqs2jwg9bh,3napmvf0z0shyrjbz1axvlukwiq270,ArR8MCjh,2020-0188,2021-10-14,10:21:51,11:34:30,NA,incomplete,true,true,NA,0,16,NA,brown,m_s_008.jpg,NA,NA,unpleasant,pleasant,NA,NA,NA,NA,NA,right,1508.89999999991,true,NA,NA,NA,NA,NA
ArR8MCjh,3mdwe879vkfdd3966pwqlqs2jwg9bh,3napmvf0z0shyrjbz1axvlukwiq270,ArR8MCjh,2020-0188,2021-10-14,10:21:51,11:34:30,NA,incomplete,true,true,NA,0,17,NA,brown,m_s_023.jpg,NA,NA,pleasant,unpleasant,NA,NA,NA,NA,NA,right,1813.19999999972,true,NA,NA,NA,NA,NA
ArR8MCjh,3mdwe879vkfdd3966pwqlqs2jwg9bh,3napmvf0z0shyrjbz1axvlukwiq270,ArR8MCjh,2020-0188,2021-10-14,10:21:51,11:34:30,NA,incomplete,true,true,NA,0,18,NA,blue,n_l_042.jpg,NA,NA,pleasant,unpleasant,NA,NA,NA,NA,NA,left,2021.10000000009,true,NA,NA,NA,NA,NA
ArR8MCjh,3mdwe879vkfdd3966pwqlqs2jwg9bh,3napmvf0z0shyrjbz1axvlukwiq270,ArR8MCjh,2020-0188,2021-10-14,10:21:51,11:34:30,NA,incomplete,true,true,NA,0,19,NA,blue,n_s_103.jpg,NA,NA,pleasant,unpleasant,NA,NA,NA,NA,NA,left,1349.20000000019,true,NA,NA,NA,NA,NA
ArR8MCjh,3mdwe879vkfdd3966pwqlqs2jwg9bh,3napmvf0z0shyrjbz1axvlukwiq270,ArR8MCjh,2020-0188,2021-10-14,10:21:51,11:34:30,NA,incomplete,true,true,NA,0,20,NA,blue,n_s_025.jpg,NA,NA,unpleasant,pleasant,NA,NA,NA,NA,NA,left,1949.79999999981,true,NA,NA,NA,NA,NA
ArR8MCjh,3mdwe879vkfdd3966pwqlqs2jwg9bh,3napmvf0z0shyrjbz1axvlukwiq270,ArR8MCjh,2020-0188,2021-10-14,10:21:51,11:34:30,NA,incomplete,true,true,NA,0,21,NA,blue,n_s_081.jpg,NA,NA,unpleasant,pleasant,NA,NA,NA,NA,NA,right,1132.89999999991,true,NA,NA,NA,NA,NA
ArR8MCjh,3mdwe879vkfdd3966pwqlqs2jwg9bh,3napmvf0z0shyrjbz1axvlukwiq270,ArR8MCjh,2020-0188,2021-10-14,10:21:51,11:34:30,NA,incomplete,true,true,NA,0,22,NA,blue,m_s_055.jpg,NA,NA,pleasant,unpleasant,NA,NA,NA,NA,NA,left,1804.69999999972,true,NA,NA,NA,NA,NA
ArR8MCjh,3mdwe879vkfdd3966pwqlqs2jwg9bh,3napmvf0z0shyrjbz1axvlukwiq270,ArR8MCjh,2020-0188,2021-10-14,10:21:51,11:34:30,NA,incomplete,true,true,NA,0,23,NA,blue,n_s_001.jpg,NA,NA,pleasant,unpleasant,NA,NA,NA,NA,NA,left,1187.29999999981,true,NA,NA,NA,NA,NA
ArR8MCjh,3mdwe879vkfdd3966pwqlqs2jwg9bh,3napmvf0z0shyrjbz1axvlukwiq270,ArR8MCjh,2020-0188,2021-10-14,10:21:51,11:34:30,NA,incomplete,true,true,NA,0,24,NA,orange,m_l_053.jpg,NA,NA,pleasant,unpleasant,NA,NA,NA,NA,NA,left,1271.89999999991,true,NA,NA,NA,NA,NA
ArR8MCjh,3mdwe879vkfdd3966pwqlqs2jwg9bh,3napmvf0z0shyrjbz1axvlukwiq270,ArR8MCjh,2020-0188,2021-10-14,10:21:51,11:34:30,NA,incomplete,true,true,NA,0,25,NA,orange,m_s_051.jpg,NA,NA,unpleasant,pleasant,NA,NA,NA,NA,NA,right,1308.10000000009,true,NA,NA,NA,NA,NA
ArR8MCjh,3mdwe879vkfdd3966pwqlqs2jwg9bh,3napmvf0z0shyrjbz1axvlukwiq270,ArR8MCjh,2020-0188,2021-10-14,10:21:51,11:34:30,NA,incomplete,true,true,NA,0,26,NA,orange,n_l_017.jpg,NA,NA,pleasant,unpleasant,NA,NA,NA,NA,NA,right,1523.89999999991,true,NA,NA,NA,NA,NA
ArR8MCjh,3mdwe879vkfdd3966pwqlqs2jwg9bh,3napmvf0z0shyrjbz1axvlukwiq270,ArR8MCjh,2020-0188,2021-10-14,10:21:51,11:34:30,NA,incomplete,true,true,NA,0,27,NA,orange,m_l_083.jpg,NA,NA,unpleasant,pleasant,NA,NA,NA,NA,NA,left,1754,true,NA,NA,NA,NA,NA
ArR8MCjh,3mdwe879vkfdd3966pwqlqs2jwg9bh,3napmvf0z0shyrjbz1axvlukwiq270,ArR8MCjh,2020-0188,2021-10-14,10:21:51,11:34:30,NA,incomplete,true,true,NA,0,28,NA,orange,n_l_090.jpg,NA,NA,unpleasant,pleasant,NA,NA,NA,NA,NA,left,1924.39999999991,true,NA,NA,NA,NA,NA
ArR8MCjh,3mdwe879vkfdd3966pwqlqs2jwg9bh,3napmvf0z0shyrjbz1axvlukwiq270,ArR8MCjh,2020-0188,2021-10-14,10:21:51,11:34:30,NA,incomplete,true,true,NA,0,29,NA,orange,m_l_070.jpg,NA,NA,pleasant,unpleasant,NA,NA,NA,NA,NA,right,2122.39999999991,true,NA,NA,NA,NA,NA
ArR8MCjh,3mdwe879vkfdd3966pwqlqs2jwg9bh,3napmvf0z0shyrjbz1axvlukwiq270,ArR8MCjh,2020-0188,2021-10-14,10:21:51,11:34:30,NA,incomplete,true,true,NA,0,30,NA,black,n_s_022.jpg,NA,NA,unpleasant,pleasant,NA,NA,NA,NA,NA,right,1465.5,true,NA,NA,NA,NA,NA
ArR8MCjh,3mdwe879vkfdd3966pwqlqs2jwg9bh,3napmvf0z0shyrjbz1axvlukwiq270,ArR8MCjh,2020-0188,2021-10-14,10:21:51,11:34:30,NA,incomplete,true,true,NA,0,31,NA,black,n_l_104.jpg,NA,NA,unpleasant,pleasant,NA,NA,NA,NA,NA,right,2282.10000000009,true,NA,NA,NA,NA,NA
ArR8MCjh,3mdwe879vkfdd3966pwqlqs2jwg9bh,3napmvf0z0shyrjbz1axvlukwiq270,ArR8MCjh,2020-0188,2021-10-14,10:21:51,11:34:30,NA,incomplete,true,true,NA,0,32,NA,black,n_s_038.jpg,NA,NA,unpleasant,pleasant,NA,NA,NA,NA,NA,left,2217.69999999972,true,NA,NA,NA,NA,NA
ArR8MCjh,3mdwe879vkfdd3966pwqlqs2jwg9bh,3napmvf0z0shyrjbz1axvlukwiq270,ArR8MCjh,2020-0188,2021-10-14,10:21:51,11:34:30,NA,incomplete,true,true,NA,0,33,NA,black,n_s_109.jpg,NA,NA,pleasant,unpleasant,NA,NA,NA,NA,NA,right,1630.39999999991,true,NA,NA,NA,NA,NA
ArR8MCjh,3mdwe879vkfdd3966pwqlqs2jwg9bh,3napmvf0z0shyrjbz1axvlukwiq270,ArR8MCjh,2020-0188,2021-10-14,10:21:51,11:34:30,NA,incomplete,true,true,NA,0,34,NA,black,m_l_061.jpg,NA,NA,pleasant,unpleasant,NA,NA,NA,NA,NA,left,1710.39999999991,true,NA,NA,NA,NA,NA
ArR8MCjh,3mdwe879vkfdd3966pwqlqs2jwg9bh,3napmvf0z0shyrjbz1axvlukwiq270,ArR8MCjh,2020-0188,2021-10-14,10:21:51,11:34:30,NA,incomplete,true,true,NA,0,35,NA,black,n_l_041.jpg,NA,NA,pleasant,unpleasant,NA,NA,NA,NA,NA,left,1561,true,NA,NA,NA,NA,NA
ArR8MCjh,3mdwe879vkfdd3966pwqlqs2jwg9bh,3napmvf0z0shyrjbz1axvlukwiq270,ArR8MCjh,2020-0188,2021-10-14,10:21:51,11:34:30,NA,incomplete,true,NA,true,0,0,NA,NA,NA,right,present,NA,NA,n_l_041.jpg,black,n_l_104.jpg,black,within,NA,NaN,NA,right,4111,1,0,3580.1999999997206
ArR8MCjh,3mdwe879vkfdd3966pwqlqs2jwg9bh,3napmvf0z0shyrjbz1axvlukwiq270,ArR8MCjh,2020-0188,2021-10-14,10:21:51,11:34:30,NA,incomplete,true,NA,true,0,1,NA,NA,NA,right,absent,NA,NA,m_l_106.jpg,purple,n_s_050.jpg,purple,within,NA,NaN,NA,right,7022.299999999814,1,0,1693.2000000001863
ArR8MCjh,3mdwe879vkfdd3966pwqlqs2jwg9bh,3napmvf0z0shyrjbz1axvlukwiq270,ArR8MCjh,2020-0188,2021-10-14,10:21:51,11:34:30,NA,incomplete,true,NA,true,0,2,NA,NA,NA,left,absent,NA,NA,m_s_027.jpg,white,m_l_076.jpg,brown,between,NA,NaN,NA,left,1910.6999999997206,1,2,2796.4000000003725
ArR8MCjh,3mdwe879vkfdd3966pwqlqs2jwg9bh,3napmvf0z0shyrjbz1axvlukwiq270,ArR8MCjh,2020-0188,2021-10-14,10:21:51,11:34:30,NA,incomplete,true,NA,true,0,3,NA,NA,NA,left,present,NA,NA,m_l_031.jpg,purple,m_l_066.jpg,white,between,NA,NaN,NA,left,4313.299999999814,1,1,7289.299999999814
ArR8MCjh,3mdwe879vkfdd3966pwqlqs2jwg9bh,3napmvf0z0shyrjbz1axvlukwiq270,ArR8MCjh,2020-0188,2021-10-14,10:21:51,11:34:30,NA,incomplete,true,NA,true,0,4,NA,NA,NA,left,absent,NA,NA,m_l_054.jpg,white,n_l_049.jpg,white,within,NA,NaN,NA,left,5288.600000000093,1,0,1558.3999999999069
ArR8MCjh,3mdwe879vkfdd3966pwqlqs2jwg9bh,3napmvf0z0shyrjbz1axvlukwiq270,ArR8MCjh,2020-0188,2021-10-14,10:21:51,11:34:30,NA,incomplete,true,NA,true,0,5,NA,NA,NA,right,present,NA,NA,m_l_070.jpg,orange,m_s_051.jpg,orange,within,NA,NaN,NA,left,2572.3000000002794,0,1,1887.5
ArR8MCjh,3mdwe879vkfdd3966pwqlqs2jwg9bh,3napmvf0z0shyrjbz1axvlukwiq270,ArR8MCjh,2020-0188,2021-10-14,10:21:51,11:34:30,NA,incomplete,true,NA,true,0,6,NA,NA,NA,left,absent,NA,NA,n_l_090.jpg,orange,n_s_038.jpg,black,between,NA,NaN,NA,left,2846.2000000001863,1,1,2306.600000000093
ArR8MCjh,3mdwe879vkfdd3966pwqlqs2jwg9bh,3napmvf0z0shyrjbz1axvlukwiq270,ArR8MCjh,2020-0188,2021-10-14,10:21:51,11:34:30,NA,incomplete,true,NA,true,0,7,NA,NA,NA,right,absent,NA,NA,n_s_025.jpg,blue,m_s_008.jpg,brown,between,NA,NaN,NA,right,5323.199999999721,1,2,3597.1999999997206
ArR8MCjh,3mdwe879vkfdd3966pwqlqs2jwg9bh,3napmvf0z0shyrjbz1axvlukwiq270,ArR8MCjh,2020-0188,2021-10-14,10:21:51,11:34:30,NA,incomplete,true,NA,true,0,8,NA,NA,NA,right,present,NA,NA,n_l_017.jpg,orange,m_s_055.jpg,blue,between,NA,NaN,NA,left,2555.399999999907,0,1,2703.100000000093
ArR8MCjh,3mdwe879vkfdd3966pwqlqs2jwg9bh,3napmvf0z0shyrjbz1axvlukwiq270,ArR8MCjh,2020-0188,2021-10-14,10:21:51,11:34:30,NA,incomplete,true,NA,true,0,9,NA,NA,NA,left,absent,NA,NA,n_s_103.jpg,blue,n_s_001.jpg,blue,within,NA,NaN,NA,right,5604.600000000093,0,2,2294.600000000093
ArR8MCjh,3mdwe879vkfdd3966pwqlqs2jwg9bh,3napmvf0z0shyrjbz1axvlukwiq270,ArR8MCjh,2020-0188,2021-10-14,10:21:51,11:34:30,NA,incomplete,true,NA,true,0,10,NA,NA,NA,left,absent,NA,NA,m_s_004.jpg,brown,m_s_023.jpg,brown,within,NA,NaN,NA,left,2228.5,1,1,2213.5
ArR8MCjh,3mdwe879vkfdd3966pwqlqs2jwg9bh,3napmvf0z0shyrjbz1axvlukwiq270,ArR8MCjh,2020-0188,2021-10-14,10:21:51,11:34:30,NA,incomplete,false,true,NA,1,0,NA,gray,m_s_075.jpg,NA,NA,pleasant,unpleasant,NA,NA,NA,NA,NA,left,1781.69999999972,true,NA,NA,NA,NA,NA
ArR8MCjh,3mdwe879vkfdd3966pwqlqs2jwg9bh,3napmvf0z0shyrjbz1axvlukwiq270,ArR8MCjh,2020-0188,2021-10-14,10:21:51,11:34:30,NA,incomplete,false,true,NA,1,1,NA,gray,n_s_061.jpg,NA,NA,unpleasant,pleasant,NA,NA,NA,NA,NA,right,1559.20000000019,true,NA,NA,NA,NA,NA
ArR8MCjh,3mdwe879vkfdd3966pwqlqs2jwg9bh,3napmvf0z0shyrjbz1axvlukwiq270,ArR8MCjh,2020-0188,2021-10-14,10:21:51,11:34:30,NA,incomplete,false,true,NA,1,2,NA,gray,m_s_112.jpg,NA,NA,unpleasant,pleasant,NA,NA,NA,NA,NA,right,1534.60000000009,true,NA,NA,NA,NA,NA
ArR8MCjh,3mdwe879vkfdd3966pwqlqs2jwg9bh,3napmvf0z0shyrjbz1axvlukwiq270,ArR8MCjh,2020-0188,2021-10-14,10:21:51,11:34:30,NA,incomplete,false,true,NA,1,3,NA,gray,m_s_005.jpg,NA,NA,pleasant,unpleasant,NA,NA,NA,NA,NA,left,1670.09999999963,true,NA,NA,NA,NA,NA
ArR8MCjh,3mdwe879vkfdd3966pwqlqs2jwg9bh,3napmvf0z0shyrjbz1axvlukwiq270,ArR8MCjh,2020-0188,2021-10-14,10:21:51,11:34:30,NA,incomplete,false,true,NA,1,4,NA,gray,n_s_007.jpg,NA,NA,unpleasant,pleasant,NA,NA,NA,NA,NA,left,2102.30000000028,true,NA,NA,NA,NA,NA
ArR8MCjh,3mdwe879vkfdd3966pwqlqs2jwg9bh,3napmvf0z0shyrjbz1axvlukwiq270,ArR8MCjh,2020-0188,2021-10-14,10:21:51,11:34:30,NA,incomplete,false,true,NA,1,5,NA,gray,m_l_013.jpg,NA,NA,unpleasant,pleasant,NA,NA,NA,NA,NA,right,2657.39999999991,true,NA,NA,NA,NA,NA
ArR8MCjh,3mdwe879vkfdd3966pwqlqs2jwg9bh,3napmvf0z0shyrjbz1axvlukwiq270,ArR8MCjh,2020-0188,2021-10-14,10:21:51,11:34:30,NA,incomplete,false,true,NA,1,6,NA,yellow,m_s_089.jpg,NA,NA,unpleasant,pleasant,NA,NA,NA,NA,NA,right,2501.89999999991,true,NA,NA,NA,NA,NA
ArR8MCjh,3mdwe879vkfdd3966pwqlqs2jwg9bh,3napmvf0z0shyrjbz1axvlukwiq270,ArR8MCjh,2020-0188,2021-10-14,10:21:51,11:34:30,NA,incomplete,false,true,NA,1,7,NA,yellow,n_s_092.jpg,NA,NA,pleasant,unpleasant,NA,NA,NA,NA,NA,left,1744.20000000019,true,NA,NA,NA,NA,NA
ArR8MCjh,3mdwe879vkfdd3966pwqlqs2jwg9bh,3napmvf0z0shyrjbz1axvlukwiq270,ArR8MCjh,2020-0188,2021-10-14,10:21:51,11:34:30,NA,incomplete,false,true,NA,1,8,NA,yellow,m_l_101.jpg,NA,NA,unpleasant,pleasant,NA,NA,NA,NA,NA,left,2906.70000000019,true,NA,NA,NA,NA,NA
ArR8MCjh,3mdwe879vkfdd3966pwqlqs2jwg9bh,3napmvf0z0shyrjbz1axvlukwiq270,ArR8MCjh,2020-0188,2021-10-14,10:21:51,11:34:30,NA,incomplete,false,true,NA,1,9,NA,yellow,n_s_032.jpg,NA,NA,pleasant,unpleasant,NA,NA,NA,NA,NA,left,1350.30000000028,true,NA,NA,NA,NA,NA
ArR8MCjh,3mdwe879vkfdd3966pwqlqs2jwg9bh,3napmvf0z0shyrjbz1axvlukwiq270,ArR8MCjh,2020-0188,2021-10-14,10:21:51,11:34:30,NA,incomplete,false,true,NA,1,10,NA,yellow,m_s_067.jpg,NA,NA,pleasant,unpleasant,NA,NA,NA,NA,NA,left,1284,true,NA,NA,NA,NA,NA
ArR8MCjh,3mdwe879vkfdd3966pwqlqs2jwg9bh,3napmvf0z0shyrjbz1axvlukwiq270,ArR8MCjh,2020-0188,2021-10-14,10:21:51,11:34:30,NA,incomplete,false,true,NA,1,11,NA,yellow,n_l_116.jpg,NA,NA,unpleasant,pleasant,NA,NA,NA,NA,NA,left,2012.80000000028,true,NA,NA,NA,NA,NA
ArR8MCjh,3mdwe879vkfdd3966pwqlqs2jwg9bh,3napmvf0z0shyrjbz1axvlukwiq270,ArR8MCjh,2020-0188,2021-10-14,10:21:51,11:34:30,NA,incomplete,false,true,NA,1,12,NA,brown,m_s_025.jpg,NA,NA,unpleasant,pleasant,NA,NA,NA,NA,NA,right,1626.90000000037,true,NA,NA,NA,NA,NA
ArR8MCjh,3mdwe879vkfdd3966pwqlqs2jwg9bh,3napmvf0z0shyrjbz1axvlukwiq270,ArR8MCjh,2020-0188,2021-10-14,10:21:51,11:34:30,NA,incomplete,false,true,NA,1,13,NA,brown,m_l_029.jpg,NA,NA,unpleasant,pleasant,NA,NA,NA,NA,NA,right,1910.60000000009,true,NA,NA,NA,NA,NA
ArR8MCjh,3mdwe879vkfdd3966pwqlqs2jwg9bh,3napmvf0z0shyrjbz1axvlukwiq270,ArR8MCjh,2020-0188,2021-10-14,10:21:51,11:34:30,NA,incomplete,false,true,NA,1,14,NA,brown,n_l_014.jpg,NA,NA,pleasant,unpleasant,NA,NA,NA,NA,NA,left,1601.19999999972,true,NA,NA,NA,NA,NA
ArR8MCjh,3mdwe879vkfdd3966pwqlqs2jwg9bh,3napmvf0z0shyrjbz1axvlukwiq270,ArR8MCjh,2020-0188,2021-10-14,10:21:51,11:34:30,NA,incomplete,false,true,NA,1,15,NA,brown,m_s_029.jpg,NA,NA,pleasant,unpleasant,NA,NA,NA,NA,NA,left,2594.90000000037,true,NA,NA,NA,NA,NA
ArR8MCjh,3mdwe879vkfdd3966pwqlqs2jwg9bh,3napmvf0z0shyrjbz1axvlukwiq270,ArR8MCjh,2020-0188,2021-10-14,10:21:51,11:34:30,NA,incomplete,false,true,NA,1,16,NA,brown,m_l_033.jpg,NA,NA,unpleasant,pleasant,NA,NA,NA,NA,NA,right,1974.89999999991,true,NA,NA,NA,NA,NA
ArR8MCjh,3mdwe879vkfdd3966pwqlqs2jwg9bh,3napmvf0z0shyrjbz1axvlukwiq270,ArR8MCjh,2020-0188,2021-10-14,10:21:51,11:34:30,NA,incomplete,false,true,NA,1,17,NA,brown,m_l_016.jpg,NA,NA,unpleasant,pleasant,NA,NA,NA,NA,NA,right,2961.59999999963,true,NA,NA,NA,NA,NA
ArR8MCjh,3mdwe879vkfdd3966pwqlqs2jwg9bh,3napmvf0z0shyrjbz1axvlukwiq270,ArR8MCjh,2020-0188,2021-10-14,10:21:51,11:34:30,NA,incomplete,false,true,NA,1,18,NA,orange,n_l_072.jpg,NA,NA,pleasant,unpleasant,NA,NA,NA,NA,NA,right,2130.40000000037,true,NA,NA,NA,NA,NA
ArR8MCjh,3mdwe879vkfdd3966pwqlqs2jwg9bh,3napmvf0z0shyrjbz1axvlukwiq270,ArR8MCjh,2020-0188,2021-10-14,10:21:51,11:34:30,NA,incomplete,false,true,NA,1,19,NA,orange,m_s_058.jpg,NA,NA,unpleasant,pleasant,NA,NA,NA,NA,NA,right,1755.89999999991,true,NA,NA,NA,NA,NA
ArR8MCjh,3mdwe879vkfdd3966pwqlqs2jwg9bh,3napmvf0z0shyrjbz1axvlukwiq270,ArR8MCjh,2020-0188,2021-10-14,10:21:51,11:34:30,NA,incomplete,false,true,NA,1,20,NA,orange,m_l_088.jpg,NA,NA,unpleasant,pleasant,NA,NA,NA,NA,NA,right,2068.20000000019,true,NA,NA,NA,NA,NA
ArR8MCjh,3mdwe879vkfdd3966pwqlqs2jwg9bh,3napmvf0z0shyrjbz1axvlukwiq270,ArR8MCjh,2020-0188,2021-10-14,10:21:51,11:34:30,NA,incomplete,false,true,NA,1,21,NA,orange,n_s_006.jpg,NA,NA,unpleasant,pleasant,NA,NA,NA,NA,NA,right,1655.89999999991,true,NA,NA,NA,NA,NA
ArR8MCjh,3mdwe879vkfdd3966pwqlqs2jwg9bh,3napmvf0z0shyrjbz1axvlukwiq270,ArR8MCjh,2020-0188,2021-10-14,10:21:51,11:34:30,NA,incomplete,false,true,NA,1,22,NA,orange,n_l_110.jpg,NA,NA,unpleasant,pleasant,NA,NA,NA,NA,NA,right,1358.60000000009,true,NA,NA,NA,NA,NA
ArR8MCjh,3mdwe879vkfdd3966pwqlqs2jwg9bh,3napmvf0z0shyrjbz1axvlukwiq270,ArR8MCjh,2020-0188,2021-10-14,10:21:51,11:34:30,NA,incomplete,false,true,NA,1,23,NA,orange,n_l_009.jpg,NA,NA,unpleasant,pleasant,NA,NA,NA,NA,NA,right,1709.39999999991,true,NA,NA,NA,NA,NA
ArR8MCjh,3mdwe879vkfdd3966pwqlqs2jwg9bh,3napmvf0z0shyrjbz1axvlukwiq270,ArR8MCjh,2020-0188,2021-10-14,10:21:51,11:34:30,NA,incomplete,false,true,NA,1,24,NA,blue,m_s_114.jpg,NA,NA,unpleasant,pleasant,NA,NA,NA,NA,NA,right,1367.5,true,NA,NA,NA,NA,NA
ArR8MCjh,3mdwe879vkfdd3966pwqlqs2jwg9bh,3napmvf0z0shyrjbz1axvlukwiq270,ArR8MCjh,2020-0188,2021-10-14,10:21:51,11:34:30,NA,incomplete,false,true,NA,1,25,NA,blue,m_l_011.jpg,NA,NA,pleasant,unpleasant,NA,NA,NA,NA,NA,left,1650.80000000028,true,NA,NA,NA,NA,NA
ArR8MCjh,3mdwe879vkfdd3966pwqlqs2jwg9bh,3napmvf0z0shyrjbz1axvlukwiq270,ArR8MCjh,2020-0188,2021-10-14,10:21:51,11:34:30,NA,incomplete,false,true,NA,1,26,NA,blue,n_s_049.jpg,NA,NA,unpleasant,pleasant,NA,NA,NA,NA,NA,left,1545.5,true,NA,NA,NA,NA,NA
ArR8MCjh,3mdwe879vkfdd3966pwqlqs2jwg9bh,3napmvf0z0shyrjbz1axvlukwiq270,ArR8MCjh,2020-0188,2021-10-14,10:21:51,11:34:30,NA,incomplete,false,true,NA,1,27,NA,blue,n_l_035.jpg,NA,NA,unpleasant,pleasant,NA,NA,NA,NA,NA,right,1723.5,true,NA,NA,NA,NA,NA
ArR8MCjh,3mdwe879vkfdd3966pwqlqs2jwg9bh,3napmvf0z0shyrjbz1axvlukwiq270,ArR8MCjh,2020-0188,2021-10-14,10:21:51,11:34:30,NA,incomplete,false,true,NA,1,28,NA,blue,n_l_030.jpg,NA,NA,pleasant,unpleasant,NA,NA,NA,NA,NA,left,1660.69999999972,true,NA,NA,NA,NA,NA
ArR8MCjh,3mdwe879vkfdd3966pwqlqs2jwg9bh,3napmvf0z0shyrjbz1axvlukwiq270,ArR8MCjh,2020-0188,2021-10-14,10:21:51,11:34:30,NA,incomplete,false,true,NA,1,29,NA,blue,n_s_027.jpg,NA,NA,unpleasant,pleasant,NA,NA,NA,NA,NA,right,1339.69999999972,true,NA,NA,NA,NA,NA
ArR8MCjh,3mdwe879vkfdd3966pwqlqs2jwg9bh,3napmvf0z0shyrjbz1axvlukwiq270,ArR8MCjh,2020-0188,2021-10-14,10:21:51,11:34:30,NA,incomplete,false,true,NA,1,30,NA,white,m_l_113.jpg,NA,NA,unpleasant,pleasant,NA,NA,NA,NA,NA,right,1237.5,true,NA,NA,NA,NA,NA
ArR8MCjh,3mdwe879vkfdd3966pwqlqs2jwg9bh,3napmvf0z0shyrjbz1axvlukwiq270,ArR8MCjh,2020-0188,2021-10-14,10:21:51,11:34:30,NA,incomplete,false,true,NA,1,31,NA,white,n_l_114.jpg,NA,NA,unpleasant,pleasant,NA,NA,NA,NA,NA,right,2104.29999999981,true,NA,NA,NA,NA,NA
ArR8MCjh,3mdwe879vkfdd3966pwqlqs2jwg9bh,3napmvf0z0shyrjbz1axvlukwiq270,ArR8MCjh,2020-0188,2021-10-14,10:21:51,11:34:30,NA,incomplete,false,true,NA,1,32,NA,white,n_l_046.jpg,NA,NA,unpleasant,pleasant,NA,NA,NA,NA,NA,right,1852.39999999991,true,NA,NA,NA,NA,NA
ArR8MCjh,3mdwe879vkfdd3966pwqlqs2jwg9bh,3napmvf0z0shyrjbz1axvlukwiq270,ArR8MCjh,2020-0188,2021-10-14,10:21:51,11:34:30,NA,incomplete,false,true,NA,1,33,NA,white,n_s_082.jpg,NA,NA,pleasant,unpleasant,NA,NA,NA,NA,NA,right,2497.60000000009,true,NA,NA,NA,NA,NA
ArR8MCjh,3mdwe879vkfdd3966pwqlqs2jwg9bh,3napmvf0z0shyrjbz1axvlukwiq270,ArR8MCjh,2020-0188,2021-10-14,10:21:51,11:34:30,NA,incomplete,false,true,NA,1,34,NA,white,m_s_056.jpg,NA,NA,unpleasant,pleasant,NA,NA,NA,NA,NA,right,2991.89999999991,true,NA,NA,NA,NA,NA
ArR8MCjh,3mdwe879vkfdd3966pwqlqs2jwg9bh,3napmvf0z0shyrjbz1axvlukwiq270,ArR8MCjh,2020-0188,2021-10-14,10:21:51,11:34:30,NA,incomplete,false,true,NA,1,35,NA,white,n_s_044.jpg,NA,NA,pleasant,unpleasant,NA,NA,NA,NA,NA,left,1585.5,true,NA,NA,NA,NA,NA
ArR8MCjh,3mdwe879vkfdd3966pwqlqs2jwg9bh,3napmvf0z0shyrjbz1axvlukwiq270,ArR8MCjh,2020-0188,2021-10-14,10:21:51,11:34:30,NA,incomplete,false,NA,true,1,0,NA,NA,NA,right,absent,NA,NA,n_s_049.jpg,blue,n_l_110.jpg,orange,between,NA,NaN,NA,left,4185.399999999907,0,1,1551.1999999997206
ArR8MCjh,3mdwe879vkfdd3966pwqlqs2jwg9bh,3napmvf0z0shyrjbz1axvlukwiq270,ArR8MCjh,2020-0188,2021-10-14,10:21:51,11:34:30,NA,incomplete,false,NA,true,1,1,NA,NA,NA,right,absent,NA,NA,n_l_009.jpg,orange,m_s_058.jpg,orange,within,NA,NaN,NA,left,6452.5999999996275,0,2,1832
ArR8MCjh,3mdwe879vkfdd3966pwqlqs2jwg9bh,3napmvf0z0shyrjbz1axvlukwiq270,ArR8MCjh,2020-0188,2021-10-14,10:21:51,11:34:30,NA,incomplete,false,NA,true,1,2,NA,NA,NA,left,absent,NA,NA,n_s_061.jpg,gray,m_l_013.jpg,gray,within,NA,NaN,NA,left,2835.600000000093,1,1,1165.5
ArR8MCjh,3mdwe879vkfdd3966pwqlqs2jwg9bh,3napmvf0z0shyrjbz1axvlukwiq270,ArR8MCjh,2020-0188,2021-10-14,10:21:51,11:34:30,NA,incomplete,false,NA,true,1,3,NA,NA,NA,right,absent,NA,NA,n_s_044.jpg,white,n_l_114.jpg,white,within,NA,NaN,NA,left,3599.7999999998137,0,1,1195.5999999996275
ArR8MCjh,3mdwe879vkfdd3966pwqlqs2jwg9bh,3napmvf0z0shyrjbz1axvlukwiq270,ArR8MCjh,2020-0188,2021-10-14,10:21:51,11:34:30,NA,incomplete,false,NA,true,1,4,NA,NA,NA,left,absent,NA,NA,n_s_092.jpg,yellow,n_l_116.jpg,yellow,within,NA,NaN,NA,left,4354.399999999907,1,2,1749
ArR8MCjh,3mdwe879vkfdd3966pwqlqs2jwg9bh,3napmvf0z0shyrjbz1axvlukwiq270,ArR8MCjh,2020-0188,2021-10-14,10:21:51,11:34:30,NA,incomplete,false,NA,true,1,5,NA,NA,NA,left,absent,NA,NA,n_s_007.jpg,gray,m_l_101.jpg,yellow,between,NA,NaN,NA,right,4206.800000000279,0,2,1703
ArR8MCjh,3mdwe879vkfdd3966pwqlqs2jwg9bh,3napmvf0z0shyrjbz1axvlukwiq270,ArR8MCjh,2020-0188,2021-10-14,10:21:51,11:34:30,NA,incomplete,false,NA,true,1,6,NA,NA,NA,right,absent,NA,NA,n_l_046.jpg,white,n_l_030.jpg,blue,between,NA,NaN,NA,right,4968,1,1,3514.6999999997206
ArR8MCjh,3mdwe879vkfdd3966pwqlqs2jwg9bh,3napmvf0z0shyrjbz1axvlukwiq270,ArR8MCjh,2020-0188,2021-10-14,10:21:51,11:34:30,NA,incomplete,false,NA,true,1,7,NA,NA,NA,right,absent,NA,NA,n_s_027.jpg,blue,m_l_011.jpg,blue,within,NA,NaN,NA,left,3614,0,2,1436.1999999997206
ArR8MCjh,3mdwe879vkfdd3966pwqlqs2jwg9bh,3napmvf0z0shyrjbz1axvlukwiq270,ArR8MCjh,2020-0188,2021-10-14,10:21:51,11:34:30,NA,incomplete,false,NA,true,1,8,NA,NA,NA,right,absent,NA,NA,m_l_016.jpg,brown,m_l_029.jpg,brown,within,NA,NaN,NA,right,4774.399999999907,1,1,1490
ArR8MCjh,3mdwe879vkfdd3966pwqlqs2jwg9bh,3napmvf0z0shyrjbz1axvlukwiq270,ArR8MCjh,2020-0188,2021-10-14,10:21:51,11:34:30,NA,incomplete,false,NA,true,1,9,NA,NA,NA,left,absent,NA,NA,m_l_033.jpg,brown,m_l_088.jpg,orange,between,NA,NaN,NA,left,2266.399999999907,1,0,1842.6000000000931
ArR8MCjh,3mdwe879vkfdd3966pwqlqs2jwg9bh,3napmvf0z0shyrjbz1axvlukwiq270,ArR8MCjh,2020-0188,2021-10-14,10:21:51,11:34:30,NA,incomplete,false,NA,true,1,10,NA,NA,NA,right,absent,NA,NA,n_l_014.jpg,brown,m_s_067.jpg,yellow,between,NA,NaN,NA,right,4362.5999999996275,1,0,1528.3999999999069
ArR8MCjh,3mdwe879vkfdd3966pwqlqs2jwg9bh,3napmvf0z0shyrjbz1axvlukwiq270,ArR8MCjh,2020-0188,2021-10-14,10:21:51,11:34:30,NA,incomplete,false,true,NA,2,0,NA,black,n_s_090.jpg,NA,NA,pleasant,unpleasant,NA,NA,NA,NA,NA,left,2149.30000000028,true,NA,NA,NA,NA,NA
ArR8MCjh,3mdwe879vkfdd3966pwqlqs2jwg9bh,3napmvf0z0shyrjbz1axvlukwiq270,ArR8MCjh,2020-0188,2021-10-14,10:21:51,11:34:30,NA,incomplete,false,true,NA,2,1,NA,black,m_s_002.jpg,NA,NA,unpleasant,pleasant,NA,NA,NA,NA,NA,right,2273.89999999991,true,NA,NA,NA,NA,NA
ArR8MCjh,3mdwe879vkfdd3966pwqlqs2jwg9bh,3napmvf0z0shyrjbz1axvlukwiq270,ArR8MCjh,2020-0188,2021-10-14,10:21:51,11:34:30,NA,incomplete,false,true,NA,2,2,NA,black,n_s_089.jpg,NA,NA,unpleasant,pleasant,NA,NA,NA,NA,NA,right,1703.69999999972,true,NA,NA,NA,NA,NA
ArR8MCjh,3mdwe879vkfdd3966pwqlqs2jwg9bh,3napmvf0z0shyrjbz1axvlukwiq270,ArR8MCjh,2020-0188,2021-10-14,10:21:51,11:34:30,NA,incomplete,false,true,NA,2,3,NA,black,n_s_008.jpg,NA,NA,pleasant,unpleasant,NA,NA,NA,NA,NA,left,2226.89999999991,true,NA,NA,NA,NA,NA
ArR8MCjh,3mdwe879vkfdd3966pwqlqs2jwg9bh,3napmvf0z0shyrjbz1axvlukwiq270,ArR8MCjh,2020-0188,2021-10-14,10:21:51,11:34:30,NA,incomplete,false,true,NA,2,4,NA,black,m_s_069.jpg,NA,NA,unpleasant,pleasant,NA,NA,NA,NA,NA,right,1701.20000000019,true,NA,NA,NA,NA,NA
ArR8MCjh,3mdwe879vkfdd3966pwqlqs2jwg9bh,3napmvf0z0shyrjbz1axvlukwiq270,ArR8MCjh,2020-0188,2021-10-14,10:21:51,11:34:30,NA,incomplete,false,true,NA,2,5,NA,black,m_s_036.jpg,NA,NA,unpleasant,pleasant,NA,NA,NA,NA,NA,right,1475.5,true,NA,NA,NA,NA,NA
ArR8MCjh,3mdwe879vkfdd3966pwqlqs2jwg9bh,3napmvf0z0shyrjbz1axvlukwiq270,ArR8MCjh,2020-0188,2021-10-14,10:21:51,11:34:30,NA,incomplete,false,true,NA,2,6,NA,red,n_s_047.jpg,NA,NA,unpleasant,pleasant,NA,NA,NA,NA,NA,right,1995.39999999991,true,NA,NA,NA,NA,NA
ArR8MCjh,3mdwe879vkfdd3966pwqlqs2jwg9bh,3napmvf0z0shyrjbz1axvlukwiq270,ArR8MCjh,2020-0188,2021-10-14,10:21:51,11:34:30,NA,incomplete,false,true,NA,2,7,NA,red,n_l_075.jpg,NA,NA,pleasant,unpleasant,NA,NA,NA,NA,NA,left,3227.70000000019,true,NA,NA,NA,NA,NA
ArR8MCjh,3mdwe879vkfdd3966pwqlqs2jwg9bh,3napmvf0z0shyrjbz1axvlukwiq270,ArR8MCjh,2020-0188,2021-10-14,10:21:51,11:34:30,NA,incomplete,false,true,NA,2,8,NA,red,m_s_107.jpg,NA,NA,pleasant,unpleasant,NA,NA,NA,NA,NA,left,1659.60000000009,true,NA,NA,NA,NA,NA
ArR8MCjh,3mdwe879vkfdd3966pwqlqs2jwg9bh,3napmvf0z0shyrjbz1axvlukwiq270,ArR8MCjh,2020-0188,2021-10-14,10:21:51,11:34:30,NA,incomplete,false,true,NA,2,9,NA,red,n_s_023.jpg,NA,NA,unpleasant,pleasant,NA,NA,NA,NA,NA,right,1711.29999999981,true,NA,NA,NA,NA,NA
ArR8MCjh,3mdwe879vkfdd3966pwqlqs2jwg9bh,3napmvf0z0shyrjbz1axvlukwiq270,ArR8MCjh,2020-0188,2021-10-14,10:21:51,11:34:30,NA,incomplete,false,true,NA,2,10,NA,red,n_l_100.jpg,NA,NA,unpleasant,pleasant,NA,NA,NA,NA,NA,right,2696.79999999981,true,NA,NA,NA,NA,NA
ArR8MCjh,3mdwe879vkfdd3966pwqlqs2jwg9bh,3napmvf0z0shyrjbz1axvlukwiq270,ArR8MCjh,2020-0188,2021-10-14,10:21:51,11:34:30,NA,incomplete,false,true,NA,2,11,NA,red,m_l_117.jpg,NA,NA,pleasant,unpleasant,NA,NA,NA,NA,NA,left,1331.30000000028,true,NA,NA,NA,NA,NA
ArR8MCjh,3mdwe879vkfdd3966pwqlqs2jwg9bh,3napmvf0z0shyrjbz1axvlukwiq270,ArR8MCjh,2020-0188,2021-10-14,10:21:51,11:34:30,NA,incomplete,false,true,NA,2,12,NA,orange,m_s_077.jpg,NA,NA,unpleasant,pleasant,NA,NA,NA,NA,NA,right,2226.60000000009,true,NA,NA,NA,NA,NA
ArR8MCjh,3mdwe879vkfdd3966pwqlqs2jwg9bh,3napmvf0z0shyrjbz1axvlukwiq270,ArR8MCjh,2020-0188,2021-10-14,10:21:51,11:34:30,NA,incomplete,false,true,NA,2,13,NA,orange,n_s_088.jpg,NA,NA,unpleasant,pleasant,NA,NA,NA,NA,NA,right,1814,true,NA,NA,NA,NA,NA
ArR8MCjh,3mdwe879vkfdd3966pwqlqs2jwg9bh,3napmvf0z0shyrjbz1axvlukwiq270,ArR8MCjh,2020-0188,2021-10-14,10:21:51,11:34:30,NA,incomplete,false,true,NA,2,14,NA,orange,m_l_008.jpg,NA,NA,unpleasant,pleasant,NA,NA,NA,NA,NA,right,1736.29999999981,true,NA,NA,NA,NA,NA
ArR8MCjh,3mdwe879vkfdd3966pwqlqs2jwg9bh,3napmvf0z0shyrjbz1axvlukwiq270,ArR8MCjh,2020-0188,2021-10-14,10:21:51,11:34:30,NA,incomplete,false,true,NA,2,15,NA,orange,n_l_024.jpg,NA,NA,pleasant,unpleasant,NA,NA,NA,NA,NA,left,2145.20000000019,true,NA,NA,NA,NA,NA
ArR8MCjh,3mdwe879vkfdd3966pwqlqs2jwg9bh,3napmvf0z0shyrjbz1axvlukwiq270,ArR8MCjh,2020-0188,2021-10-14,10:21:51,11:34:30,NA,incomplete,false,true,NA,2,16,NA,orange,m_l_109.jpg,NA,NA,unpleasant,pleasant,NA,NA,NA,NA,NA,left,2335.69999999972,true,NA,NA,NA,NA,NA
ArR8MCjh,3mdwe879vkfdd3966pwqlqs2jwg9bh,3napmvf0z0shyrjbz1axvlukwiq270,ArR8MCjh,2020-0188,2021-10-14,10:21:51,11:34:30,NA,incomplete,false,true,NA,2,17,NA,orange,n_l_068.jpg,NA,NA,pleasant,unpleasant,NA,NA,NA,NA,NA,left,2315.5,true,NA,NA,NA,NA,NA
ArR8MCjh,3mdwe879vkfdd3966pwqlqs2jwg9bh,3napmvf0z0shyrjbz1axvlukwiq270,ArR8MCjh,2020-0188,2021-10-14,10:21:51,11:34:30,NA,incomplete,false,true,NA,2,18,NA,gray,n_s_064.jpg,NA,NA,unpleasant,pleasant,NA,NA,NA,NA,NA,right,1746,true,NA,NA,NA,NA,NA
ArR8MCjh,3mdwe879vkfdd3966pwqlqs2jwg9bh,3napmvf0z0shyrjbz1axvlukwiq270,ArR8MCjh,2020-0188,2021-10-14,10:21:51,11:34:30,NA,incomplete,false,true,NA,2,19,NA,gray,m_s_021.jpg,NA,NA,pleasant,unpleasant,NA,NA,NA,NA,NA,left,1882.39999999991,true,NA,NA,NA,NA,NA
ArR8MCjh,3mdwe879vkfdd3966pwqlqs2jwg9bh,3napmvf0z0shyrjbz1axvlukwiq270,ArR8MCjh,2020-0188,2021-10-14,10:21:51,11:34:30,NA,incomplete,false,true,NA,2,20,NA,gray,m_l_098.jpg,NA,NA,pleasant,unpleasant,NA,NA,NA,NA,NA,left,1902.20000000019,true,NA,NA,NA,NA,NA
ArR8MCjh,3mdwe879vkfdd3966pwqlqs2jwg9bh,3napmvf0z0shyrjbz1axvlukwiq270,ArR8MCjh,2020-0188,2021-10-14,10:21:51,11:34:30,NA,incomplete,false,true,NA,2,21,NA,gray,n_s_070.jpg,NA,NA,pleasant,unpleasant,NA,NA,NA,NA,NA,left,2250.70000000019,true,NA,NA,NA,NA,NA
ArR8MCjh,3mdwe879vkfdd3966pwqlqs2jwg9bh,3napmvf0z0shyrjbz1axvlukwiq270,ArR8MCjh,2020-0188,2021-10-14,10:21:51,11:34:30,NA,incomplete,false,true,NA,2,22,NA,gray,n_l_018.jpg,NA,NA,pleasant,unpleasant,NA,NA,NA,NA,NA,left,2570.60000000009,true,NA,NA,NA,NA,NA
ArR8MCjh,3mdwe879vkfdd3966pwqlqs2jwg9bh,3napmvf0z0shyrjbz1axvlukwiq270,ArR8MCjh,2020-0188,2021-10-14,10:21:51,11:34:30,NA,incomplete,false,true,NA,2,23,NA,gray,n_l_004.jpg,NA,NA,unpleasant,pleasant,NA,NA,NA,NA,NA,right,1380.79999999981,true,NA,NA,NA,NA,NA
ArR8MCjh,3mdwe879vkfdd3966pwqlqs2jwg9bh,3napmvf0z0shyrjbz1axvlukwiq270,ArR8MCjh,2020-0188,2021-10-14,10:21:51,11:34:30,NA,incomplete,false,true,NA,2,24,NA,green,n_l_054.jpg,NA,NA,pleasant,unpleasant,NA,NA,NA,NA,NA,left,1420,true,NA,NA,NA,NA,NA
ArR8MCjh,3mdwe879vkfdd3966pwqlqs2jwg9bh,3napmvf0z0shyrjbz1axvlukwiq270,ArR8MCjh,2020-0188,2021-10-14,10:21:51,11:34:30,NA,incomplete,false,true,NA,2,25,NA,green,n_s_062.jpg,NA,NA,unpleasant,pleasant,NA,NA,NA,NA,NA,right,1684.20000000019,true,NA,NA,NA,NA,NA
ArR8MCjh,3mdwe879vkfdd3966pwqlqs2jwg9bh,3napmvf0z0shyrjbz1axvlukwiq270,ArR8MCjh,2020-0188,2021-10-14,10:21:51,11:34:30,NA,incomplete,false,true,NA,2,26,NA,green,n_s_051.jpg,NA,NA,unpleasant,pleasant,NA,NA,NA,NA,NA,right,2049.39999999991,true,NA,NA,NA,NA,NA
ArR8MCjh,3mdwe879vkfdd3966pwqlqs2jwg9bh,3napmvf0z0shyrjbz1axvlukwiq270,ArR8MCjh,2020-0188,2021-10-14,10:21:51,11:34:30,NA,incomplete,false,true,NA,2,27,NA,green,m_l_074.jpg,NA,NA,unpleasant,pleasant,NA,NA,NA,NA,NA,right,1760.60000000009,true,NA,NA,NA,NA,NA
ArR8MCjh,3mdwe879vkfdd3966pwqlqs2jwg9bh,3napmvf0z0shyrjbz1axvlukwiq270,ArR8MCjh,2020-0188,2021-10-14,10:21:51,11:34:30,NA,incomplete,false,true,NA,2,28,NA,green,m_l_048.jpg,NA,NA,unpleasant,pleasant,NA,NA,NA,NA,NA,right,1554.20000000019,true,NA,NA,NA,NA,NA
ArR8MCjh,3mdwe879vkfdd3966pwqlqs2jwg9bh,3napmvf0z0shyrjbz1axvlukwiq270,ArR8MCjh,2020-0188,2021-10-14,10:21:51,11:34:30,NA,incomplete,false,true,NA,2,29,NA,green,m_l_080.jpg,NA,NA,pleasant,unpleasant,NA,NA,NA,NA,NA,right,2083.29999999981,true,NA,NA,NA,NA,NA
ArR8MCjh,3mdwe879vkfdd3966pwqlqs2jwg9bh,3napmvf0z0shyrjbz1axvlukwiq270,ArR8MCjh,2020-0188,2021-10-14,10:21:51,11:34:30,NA,incomplete,false,true,NA,2,30,NA,yellow,m_l_026.jpg,NA,NA,unpleasant,pleasant,NA,NA,NA,NA,NA,right,1434.20000000019,true,NA,NA,NA,NA,NA
ArR8MCjh,3mdwe879vkfdd3966pwqlqs2jwg9bh,3napmvf0z0shyrjbz1axvlukwiq270,ArR8MCjh,2020-0188,2021-10-14,10:21:51,11:34:30,NA,incomplete,false,true,NA,2,31,NA,yellow,m_l_056.jpg,NA,NA,pleasant,unpleasant,NA,NA,NA,NA,NA,left,1835.29999999981,true,NA,NA,NA,NA,NA
ArR8MCjh,3mdwe879vkfdd3966pwqlqs2jwg9bh,3napmvf0z0shyrjbz1axvlukwiq270,ArR8MCjh,2020-0188,2021-10-14,10:21:51,11:34:30,NA,incomplete,false,true,NA,2,32,NA,yellow,m_s_080.jpg,NA,NA,unpleasant,pleasant,NA,NA,NA,NA,NA,right,1485.29999999981,true,NA,NA,NA,NA,NA
ArR8MCjh,3mdwe879vkfdd3966pwqlqs2jwg9bh,3napmvf0z0shyrjbz1axvlukwiq270,ArR8MCjh,2020-0188,2021-10-14,10:21:51,11:34:30,NA,incomplete,false,true,NA,2,33,NA,yellow,n_l_006.jpg,NA,NA,pleasant,unpleasant,NA,NA,NA,NA,NA,left,1626.70000000019,true,NA,NA,NA,NA,NA
ArR8MCjh,3mdwe879vkfdd3966pwqlqs2jwg9bh,3napmvf0z0shyrjbz1axvlukwiq270,ArR8MCjh,2020-0188,2021-10-14,10:21:51,11:34:30,NA,incomplete,false,true,NA,2,34,NA,yellow,m_l_084.jpg,NA,NA,pleasant,unpleasant,NA,NA,NA,NA,NA,left,1613.29999999981,true,NA,NA,NA,NA,NA
ArR8MCjh,3mdwe879vkfdd3966pwqlqs2jwg9bh,3napmvf0z0shyrjbz1axvlukwiq270,ArR8MCjh,2020-0188,2021-10-14,10:21:51,11:34:30,NA,incomplete,false,true,NA,2,35,NA,yellow,n_l_033.jpg,NA,NA,unpleasant,pleasant,NA,NA,NA,NA,NA,left,1760.69999999972,true,NA,NA,NA,NA,NA
ArR8MCjh,3mdwe879vkfdd3966pwqlqs2jwg9bh,3napmvf0z0shyrjbz1axvlukwiq270,ArR8MCjh,2020-0188,2021-10-14,10:21:51,11:34:30,NA,incomplete,false,NA,true,2,0,NA,NA,NA,left,present,NA,NA,n_s_062.jpg,green,m_l_080.jpg,green,within,NA,NaN,NA,left,3092.600000000093,1,2,3083.0999999996275
ArR8MCjh,3mdwe879vkfdd3966pwqlqs2jwg9bh,3napmvf0z0shyrjbz1axvlukwiq270,ArR8MCjh,2020-0188,2021-10-14,10:21:51,11:34:30,NA,incomplete,false,NA,true,2,1,NA,NA,NA,left,present,NA,NA,m_l_048.jpg,green,m_s_080.jpg,yellow,between,NA,NaN,NA,left,4742.899999999907,1,1,1168.6000000000931
ArR8MCjh,3mdwe879vkfdd3966pwqlqs2jwg9bh,3napmvf0z0shyrjbz1axvlukwiq270,ArR8MCjh,2020-0188,2021-10-14,10:21:51,11:34:30,NA,incomplete,false,NA,true,2,2,NA,NA,NA,left,present,NA,NA,m_s_021.jpg,gray,n_l_004.jpg,gray,within,NA,NaN,NA,left,3655.6999999997206,1,2,1700.8999999999069
ArR8MCjh,3mdwe879vkfdd3966pwqlqs2jwg9bh,3napmvf0z0shyrjbz1axvlukwiq270,ArR8MCjh,2020-0188,2021-10-14,10:21:51,11:34:30,NA,incomplete,false,NA,true,2,3,NA,NA,NA,left,present,NA,NA,m_s_069.jpg,black,m_s_107.jpg,red,between,NA,NaN,NA,left,2367.2000000001863,1,1,2883.4000000003725
ArR8MCjh,3mdwe879vkfdd3966pwqlqs2jwg9bh,3napmvf0z0shyrjbz1axvlukwiq270,ArR8MCjh,2020-0188,2021-10-14,10:21:51,11:34:30,NA,incomplete,false,NA,true,2,4,NA,NA,NA,left,present,NA,NA,m_l_056.jpg,yellow,n_l_033.jpg,yellow,within,NA,NaN,NA,right,2921.7000000001863,0,1,1570.2999999998137
ArR8MCjh,3mdwe879vkfdd3966pwqlqs2jwg9bh,3napmvf0z0shyrjbz1axvlukwiq270,ArR8MCjh,2020-0188,2021-10-14,10:21:51,11:34:30,NA,incomplete,false,NA,true,2,5,NA,NA,NA,left,present,NA,NA,n_l_075.jpg,red,m_l_117.jpg,red,within,NA,NaN,NA,left,4580.199999999721,1,1,2439.6999999997206
ArR8MCjh,3mdwe879vkfdd3966pwqlqs2jwg9bh,3napmvf0z0shyrjbz1axvlukwiq270,ArR8MCjh,2020-0188,2021-10-14,10:21:51,11:34:30,NA,incomplete,false,NA,true,2,6,NA,NA,NA,right,present,NA,NA,m_l_008.jpg,orange,n_l_100.jpg,red,between,NA,NaN,NA,left,4831,0,3,1831.1000000000931
ArR8MCjh,3mdwe879vkfdd3966pwqlqs2jwg9bh,3napmvf0z0shyrjbz1axvlukwiq270,ArR8MCjh,2020-0188,2021-10-14,10:21:51,11:34:30,NA,incomplete,false,NA,true,2,7,NA,NA,NA,right,present,NA,NA,n_s_051.jpg,green,n_l_018.jpg,gray,between,NA,NaN,NA,right,6671.5,1,2,1855
ArR8MCjh,3mdwe879vkfdd3966pwqlqs2jwg9bh,3napmvf0z0shyrjbz1axvlukwiq270,ArR8MCjh,2020-0188,2021-10-14,10:21:51,11:34:30,NA,incomplete,false,NA,true,2,8,NA,NA,NA,right,present,NA,NA,n_l_068.jpg,orange,n_s_088.jpg,orange,within,NA,NaN,NA,right,7017.0999999996275,1,1,2137.6999999997206
ArR8MCjh,3mdwe879vkfdd3966pwqlqs2jwg9bh,3napmvf0z0shyrjbz1axvlukwiq270,ArR8MCjh,2020-0188,2021-10-14,10:21:51,11:34:30,NA,incomplete,false,NA,true,2,9,NA,NA,NA,right,present,NA,NA,m_s_036.jpg,black,m_s_002.jpg,black,within,NA,NaN,NA,right,2628.2000000001863,1,0,2827.399999999907
ArR8MCjh,3mdwe879vkfdd3966pwqlqs2jwg9bh,3napmvf0z0shyrjbz1axvlukwiq270,ArR8MCjh,2020-0188,2021-10-14,10:21:51,11:34:30,NA,incomplete,false,NA,true,2,10,NA,NA,NA,right,present,NA,NA,m_l_098.jpg,gray,m_l_109.jpg,orange,between,NA,NaN,NA,left,2877.600000000093,0,2,1894.1999999997206
ArR8MCjh,3mdwe879vkfdd3966pwqlqs2jwg9bh,3napmvf0z0shyrjbz1axvlukwiq270,ArR8MCjh,2020-0188,2021-10-14,10:21:51,11:34:30,NA,incomplete,false,true,NA,3,0,NA,black,m_l_072.jpg,NA,NA,unpleasant,pleasant,NA,NA,NA,NA,NA,right,1977.29999999981,true,NA,NA,NA,NA,NA
ArR8MCjh,3mdwe879vkfdd3966pwqlqs2jwg9bh,3napmvf0z0shyrjbz1axvlukwiq270,ArR8MCjh,2020-0188,2021-10-14,10:21:51,11:34:30,NA,incomplete,false,true,NA,3,1,NA,black,n_s_099.jpg,NA,NA,pleasant,unpleasant,NA,NA,NA,NA,NA,left,1385.10000000009,true,NA,NA,NA,NA,NA
ArR8MCjh,3mdwe879vkfdd3966pwqlqs2jwg9bh,3napmvf0z0shyrjbz1axvlukwiq270,ArR8MCjh,2020-0188,2021-10-14,10:21:51,11:34:30,NA,incomplete,false,true,NA,3,2,NA,black,n_s_046.jpg,NA,NA,pleasant,unpleasant,NA,NA,NA,NA,NA,left,1855.5,true,NA,NA,NA,NA,NA
ArR8MCjh,3mdwe879vkfdd3966pwqlqs2jwg9bh,3napmvf0z0shyrjbz1axvlukwiq270,ArR8MCjh,2020-0188,2021-10-14,10:21:51,11:34:30,NA,incomplete,false,true,NA,3,3,NA,black,m_l_095.jpg,NA,NA,unpleasant,pleasant,NA,NA,NA,NA,NA,right,2908.79999999981,true,NA,NA,NA,NA,NA
ArR8MCjh,3mdwe879vkfdd3966pwqlqs2jwg9bh,3napmvf0z0shyrjbz1axvlukwiq270,ArR8MCjh,2020-0188,2021-10-14,10:21:51,11:34:30,NA,incomplete,false,true,NA,3,4,NA,black,n_s_015.jpg,NA,NA,unpleasant,pleasant,NA,NA,NA,NA,NA,right,1940.89999999991,true,NA,NA,NA,NA,NA
ArR8MCjh,3mdwe879vkfdd3966pwqlqs2jwg9bh,3napmvf0z0shyrjbz1axvlukwiq270,ArR8MCjh,2020-0188,2021-10-14,10:21:51,11:34:30,NA,incomplete,false,true,NA,3,5,NA,black,m_s_019.jpg,NA,NA,pleasant,unpleasant,NA,NA,NA,NA,NA,left,1960.19999999972,true,NA,NA,NA,NA,NA
ArR8MCjh,3mdwe879vkfdd3966pwqlqs2jwg9bh,3napmvf0z0shyrjbz1axvlukwiq270,ArR8MCjh,2020-0188,2021-10-14,10:21:51,11:34:30,NA,incomplete,false,true,NA,3,6,NA,white,n_s_108.jpg,NA,NA,unpleasant,pleasant,NA,NA,NA,NA,NA,left,1761.60000000009,true,NA,NA,NA,NA,NA
ArR8MCjh,3mdwe879vkfdd3966pwqlqs2jwg9bh,3napmvf0z0shyrjbz1axvlukwiq270,ArR8MCjh,2020-0188,2021-10-14,10:21:51,11:34:30,NA,incomplete,false,true,NA,3,7,NA,white,n_l_071.jpg,NA,NA,unpleasant,pleasant,NA,NA,NA,NA,NA,right,1765.20000000019,true,NA,NA,NA,NA,NA
ArR8MCjh,3mdwe879vkfdd3966pwqlqs2jwg9bh,3napmvf0z0shyrjbz1axvlukwiq270,ArR8MCjh,2020-0188,2021-10-14,10:21:51,11:34:30,NA,incomplete,false,true,NA,3,8,NA,white,n_l_080.jpg,NA,NA,unpleasant,pleasant,NA,NA,NA,NA,NA,right,1463,true,NA,NA,NA,NA,NA
ArR8MCjh,3mdwe879vkfdd3966pwqlqs2jwg9bh,3napmvf0z0shyrjbz1axvlukwiq270,ArR8MCjh,2020-0188,2021-10-14,10:21:51,11:34:30,NA,incomplete,false,true,NA,3,9,NA,white,m_s_074.jpg,NA,NA,unpleasant,pleasant,NA,NA,NA,NA,NA,right,1618.39999999991,true,NA,NA,NA,NA,NA
ArR8MCjh,3mdwe879vkfdd3966pwqlqs2jwg9bh,3napmvf0z0shyrjbz1axvlukwiq270,ArR8MCjh,2020-0188,2021-10-14,10:21:51,11:34:30,NA,incomplete,false,true,NA,3,10,NA,white,n_s_087.jpg,NA,NA,pleasant,unpleasant,NA,NA,NA,NA,NA,right,1590.69999999972,true,NA,NA,NA,NA,NA
ArR8MCjh,3mdwe879vkfdd3966pwqlqs2jwg9bh,3napmvf0z0shyrjbz1axvlukwiq270,ArR8MCjh,2020-0188,2021-10-14,10:21:51,11:34:30,NA,incomplete,false,true,NA,3,11,NA,white,m_s_064.jpg,NA,NA,pleasant,unpleasant,NA,NA,NA,NA,NA,left,1728.29999999981,true,NA,NA,NA,NA,NA
ArR8MCjh,3mdwe879vkfdd3966pwqlqs2jwg9bh,3napmvf0z0shyrjbz1axvlukwiq270,ArR8MCjh,2020-0188,2021-10-14,10:21:51,11:34:30,NA,incomplete,false,true,NA,3,12,NA,purple,n_s_068.jpg,NA,NA,pleasant,unpleasant,NA,NA,NA,NA,NA,left,1838.5,true,NA,NA,NA,NA,NA
ArR8MCjh,3mdwe879vkfdd3966pwqlqs2jwg9bh,3napmvf0z0shyrjbz1axvlukwiq270,ArR8MCjh,2020-0188,2021-10-14,10:21:51,11:34:30,NA,incomplete,false,true,NA,3,13,NA,purple,n_s_104.jpg,NA,NA,unpleasant,pleasant,NA,NA,NA,NA,NA,right,1336.89999999991,true,NA,NA,NA,NA,NA
ArR8MCjh,3mdwe879vkfdd3966pwqlqs2jwg9bh,3napmvf0z0shyrjbz1axvlukwiq270,ArR8MCjh,2020-0188,2021-10-14,10:21:51,11:34:30,NA,incomplete,false,true,NA,3,14,NA,purple,n_l_115.jpg,NA,NA,unpleasant,pleasant,NA,NA,NA,NA,NA,right,1678.10000000009,true,NA,NA,NA,NA,NA
ArR8MCjh,3mdwe879vkfdd3966pwqlqs2jwg9bh,3napmvf0z0shyrjbz1axvlukwiq270,ArR8MCjh,2020-0188,2021-10-14,10:21:51,11:34:30,NA,incomplete,false,true,NA,3,15,NA,purple,m_s_082.jpg,NA,NA,pleasant,unpleasant,NA,NA,NA,NA,NA,left,1875.90000000037,true,NA,NA,NA,NA,NA
ArR8MCjh,3mdwe879vkfdd3966pwqlqs2jwg9bh,3napmvf0z0shyrjbz1axvlukwiq270,ArR8MCjh,2020-0188,2021-10-14,10:21:51,11:34:30,NA,incomplete,false,true,NA,3,16,NA,purple,m_s_045.jpg,NA,NA,pleasant,unpleasant,NA,NA,NA,NA,NA,left,1445.10000000009,true,NA,NA,NA,NA,NA
ArR8MCjh,3mdwe879vkfdd3966pwqlqs2jwg9bh,3napmvf0z0shyrjbz1axvlukwiq270,ArR8MCjh,2020-0188,2021-10-14,10:21:51,11:34:30,NA,incomplete,false,true,NA,3,17,NA,purple,m_l_006.jpg,NA,NA,pleasant,unpleasant,NA,NA,NA,NA,NA,left,1410,true,NA,NA,NA,NA,NA
ArR8MCjh,3mdwe879vkfdd3966pwqlqs2jwg9bh,3napmvf0z0shyrjbz1axvlukwiq270,ArR8MCjh,2020-0188,2021-10-14,10:21:51,11:34:30,NA,incomplete,false,true,NA,3,18,NA,green,n_s_009.jpg,NA,NA,pleasant,unpleasant,NA,NA,NA,NA,NA,left,2259.5,true,NA,NA,NA,NA,NA
ArR8MCjh,3mdwe879vkfdd3966pwqlqs2jwg9bh,3napmvf0z0shyrjbz1axvlukwiq270,ArR8MCjh,2020-0188,2021-10-14,10:21:51,11:34:30,NA,incomplete,false,true,NA,3,19,NA,green,m_s_115.jpg,NA,NA,unpleasant,pleasant,NA,NA,NA,NA,NA,right,1919,true,NA,NA,NA,NA,NA
ArR8MCjh,3mdwe879vkfdd3966pwqlqs2jwg9bh,3napmvf0z0shyrjbz1axvlukwiq270,ArR8MCjh,2020-0188,2021-10-14,10:21:51,11:34:30,NA,incomplete,false,true,NA,3,20,NA,green,m_l_096.jpg,NA,NA,pleasant,unpleasant,NA,NA,NA,NA,NA,left,1402.30000000028,true,NA,NA,NA,NA,NA
ArR8MCjh,3mdwe879vkfdd3966pwqlqs2jwg9bh,3napmvf0z0shyrjbz1axvlukwiq270,ArR8MCjh,2020-0188,2021-10-14,10:21:51,11:34:30,NA,incomplete,false,true,NA,3,21,NA,green,m_s_076.jpg,NA,NA,unpleasant,pleasant,NA,NA,NA,NA,NA,right,1419.90000000037,true,NA,NA,NA,NA,NA
ArR8MCjh,3mdwe879vkfdd3966pwqlqs2jwg9bh,3napmvf0z0shyrjbz1axvlukwiq270,ArR8MCjh,2020-0188,2021-10-14,10:21:51,11:34:30,NA,incomplete,false,true,NA,3,22,NA,green,n_l_019.jpg,NA,NA,pleasant,unpleasant,NA,NA,NA,NA,NA,left,1500.19999999972,true,NA,NA,NA,NA,NA
ArR8MCjh,3mdwe879vkfdd3966pwqlqs2jwg9bh,3napmvf0z0shyrjbz1axvlukwiq270,ArR8MCjh,2020-0188,2021-10-14,10:21:51,11:34:30,NA,incomplete,false,true,NA,3,23,NA,green,m_l_010.jpg,NA,NA,pleasant,unpleasant,NA,NA,NA,NA,NA,left,1785.20000000019,true,NA,NA,NA,NA,NA
ArR8MCjh,3mdwe879vkfdd3966pwqlqs2jwg9bh,3napmvf0z0shyrjbz1axvlukwiq270,ArR8MCjh,2020-0188,2021-10-14,10:21:51,11:34:30,NA,incomplete,false,true,NA,3,24,NA,gray,n_s_034.jpg,NA,NA,pleasant,unpleasant,NA,NA,NA,NA,NA,left,1569.59999999963,true,NA,NA,NA,NA,NA
ArR8MCjh,3mdwe879vkfdd3966pwqlqs2jwg9bh,3napmvf0z0shyrjbz1axvlukwiq270,ArR8MCjh,2020-0188,2021-10-14,10:21:51,11:34:30,NA,incomplete,false,true,NA,3,25,NA,gray,n_s_102.jpg,NA,NA,unpleasant,pleasant,NA,NA,NA,NA,NA,right,1606,true,NA,NA,NA,NA,NA
ArR8MCjh,3mdwe879vkfdd3966pwqlqs2jwg9bh,3napmvf0z0shyrjbz1axvlukwiq270,ArR8MCjh,2020-0188,2021-10-14,10:21:51,11:34:30,NA,incomplete,false,true,NA,3,26,NA,gray,n_s_040.jpg,NA,NA,pleasant,unpleasant,NA,NA,NA,NA,NA,right,1587.5,true,NA,NA,NA,NA,NA
ArR8MCjh,3mdwe879vkfdd3966pwqlqs2jwg9bh,3napmvf0z0shyrjbz1axvlukwiq270,ArR8MCjh,2020-0188,2021-10-14,10:21:51,11:34:30,NA,incomplete,false,true,NA,3,27,NA,gray,n_l_010.jpg,NA,NA,pleasant,unpleasant,NA,NA,NA,NA,NA,left,2076.79999999981,true,NA,NA,NA,NA,NA
ArR8MCjh,3mdwe879vkfdd3966pwqlqs2jwg9bh,3napmvf0z0shyrjbz1axvlukwiq270,ArR8MCjh,2020-0188,2021-10-14,10:21:51,11:34:30,NA,incomplete,false,true,NA,3,28,NA,gray,m_l_107.jpg,NA,NA,unpleasant,pleasant,NA,NA,NA,NA,NA,left,2047.70000000019,true,NA,NA,NA,NA,NA
ArR8MCjh,3mdwe879vkfdd3966pwqlqs2jwg9bh,3napmvf0z0shyrjbz1axvlukwiq270,ArR8MCjh,2020-0188,2021-10-14,10:21:51,11:34:30,NA,incomplete,false,true,NA,3,29,NA,gray,n_s_067.jpg,NA,NA,pleasant,unpleasant,NA,NA,NA,NA,NA,left,1574.39999999991,true,NA,NA,NA,NA,NA
ArR8MCjh,3mdwe879vkfdd3966pwqlqs2jwg9bh,3napmvf0z0shyrjbz1axvlukwiq270,ArR8MCjh,2020-0188,2021-10-14,10:21:51,11:34:30,NA,incomplete,false,true,NA,3,30,NA,orange,n_s_113.jpg,NA,NA,pleasant,unpleasant,NA,NA,NA,NA,NA,left,3107,true,NA,NA,NA,NA,NA
ArR8MCjh,3mdwe879vkfdd3966pwqlqs2jwg9bh,3napmvf0z0shyrjbz1axvlukwiq270,ArR8MCjh,2020-0188,2021-10-14,10:21:51,11:34:30,NA,incomplete,false,true,NA,3,31,NA,orange,m_l_059.jpg,NA,NA,unpleasant,pleasant,NA,NA,NA,NA,NA,left,2035.59999999963,true,NA,NA,NA,NA,NA
ArR8MCjh,3mdwe879vkfdd3966pwqlqs2jwg9bh,3napmvf0z0shyrjbz1axvlukwiq270,ArR8MCjh,2020-0188,2021-10-14,10:21:51,11:34:30,NA,incomplete,false,true,NA,3,32,NA,orange,m_l_116.jpg,NA,NA,unpleasant,pleasant,NA,NA,NA,NA,NA,right,2652,true,NA,NA,NA,NA,NA
ArR8MCjh,3mdwe879vkfdd3966pwqlqs2jwg9bh,3napmvf0z0shyrjbz1axvlukwiq270,ArR8MCjh,2020-0188,2021-10-14,10:21:51,11:34:30,NA,incomplete,false,true,NA,3,33,NA,orange,m_l_092.jpg,NA,NA,unpleasant,pleasant,NA,NA,NA,NA,NA,right,1845,true,NA,NA,NA,NA,NA
ArR8MCjh,3mdwe879vkfdd3966pwqlqs2jwg9bh,3napmvf0z0shyrjbz1axvlukwiq270,ArR8MCjh,2020-0188,2021-10-14,10:21:51,11:34:30,NA,incomplete,false,true,NA,3,34,NA,orange,m_l_057.jpg,NA,NA,pleasant,unpleasant,NA,NA,NA,NA,NA,left,2593,true,NA,NA,NA,NA,NA
ArR8MCjh,3mdwe879vkfdd3966pwqlqs2jwg9bh,3napmvf0z0shyrjbz1axvlukwiq270,ArR8MCjh,2020-0188,2021-10-14,10:21:51,11:34:30,NA,incomplete,false,true,NA,3,35,NA,orange,n_l_097.jpg,NA,NA,unpleasant,pleasant,NA,NA,NA,NA,NA,right,1764.90000000037,true,NA,NA,NA,NA,NA
ArR8MCjh,3mdwe879vkfdd3966pwqlqs2jwg9bh,3napmvf0z0shyrjbz1axvlukwiq270,ArR8MCjh,2020-0188,2021-10-14,10:21:51,11:34:30,NA,incomplete,false,NA,true,3,0,NA,NA,NA,right,present,NA,NA,m_s_019.jpg,black,n_s_099.jpg,black,within,NA,NaN,NA,right,4446.399999999907,1,0,1784.4000000003725
ArR8MCjh,3mdwe879vkfdd3966pwqlqs2jwg9bh,3napmvf0z0shyrjbz1axvlukwiq270,ArR8MCjh,2020-0188,2021-10-14,10:21:51,11:34:30,NA,incomplete,false,NA,true,3,1,NA,NA,NA,right,present,NA,NA,m_l_096.jpg,green,m_s_045.jpg,purple,between,NA,NaN,NA,left,5205.5,0,1,1617.7000000001863
ArR8MCjh,3mdwe879vkfdd3966pwqlqs2jwg9bh,3napmvf0z0shyrjbz1axvlukwiq270,ArR8MCjh,2020-0188,2021-10-14,10:21:51,11:34:30,NA,incomplete,false,NA,true,3,2,NA,NA,NA,right,present,NA,NA,n_l_080.jpg,white,n_s_015.jpg,black,between,NA,NaN,NA,right,3865.399999999907,1,0,2615.399999999907
ArR8MCjh,3mdwe879vkfdd3966pwqlqs2jwg9bh,3napmvf0z0shyrjbz1axvlukwiq270,ArR8MCjh,2020-0188,2021-10-14,10:21:51,11:34:30,NA,incomplete,false,NA,true,3,3,NA,NA,NA,left,present,NA,NA,m_l_059.jpg,orange,n_l_097.jpg,orange,within,NA,NaN,NA,left,2245.600000000093,1,1,1505.3999999999069
ArR8MCjh,3mdwe879vkfdd3966pwqlqs2jwg9bh,3napmvf0z0shyrjbz1axvlukwiq270,ArR8MCjh,2020-0188,2021-10-14,10:21:51,11:34:30,NA,incomplete,false,NA,true,3,4,NA,NA,NA,left,present,NA,NA,m_l_107.jpg,gray,m_l_116.jpg,orange,between,NA,NaN,NA,left,2702.600000000093,1,0,4097.5
ArR8MCjh,3mdwe879vkfdd3966pwqlqs2jwg9bh,3napmvf0z0shyrjbz1axvlukwiq270,ArR8MCjh,2020-0188,2021-10-14,10:21:51,11:34:30,NA,incomplete,false,NA,true,3,5,NA,NA,NA,right,present,NA,NA,m_l_006.jpg,purple,n_s_104.jpg,purple,within,NA,NaN,NA,right,2656.399999999907,1,2,1873.6000000000931
ArR8MCjh,3mdwe879vkfdd3966pwqlqs2jwg9bh,3napmvf0z0shyrjbz1axvlukwiq270,ArR8MCjh,2020-0188,2021-10-14,10:21:51,11:34:30,NA,incomplete,false,NA,true,3,6,NA,NA,NA,right,present,NA,NA,m_l_010.jpg,green,m_s_115.jpg,green,within,NA,NaN,NA,left,4252.0999999996275,0,2,1748.2999999998137
ArR8MCjh,3mdwe879vkfdd3966pwqlqs2jwg9bh,3napmvf0z0shyrjbz1axvlukwiq270,ArR8MCjh,2020-0188,2021-10-14,10:21:51,11:34:30,NA,incomplete,false,NA,true,3,7,NA,NA,NA,right,present,NA,NA,n_s_040.jpg,gray,n_l_019.jpg,green,between,NA,NaN,NA,left,2408.7000000001863,0,1,1568.2000000001863
ArR8MCjh,3mdwe879vkfdd3966pwqlqs2jwg9bh,3napmvf0z0shyrjbz1axvlukwiq270,ArR8MCjh,2020-0188,2021-10-14,10:21:51,11:34:30,NA,incomplete,false,NA,true,3,8,NA,NA,NA,left,present,NA,NA,n_s_102.jpg,gray,n_s_067.jpg,gray,within,NA,NaN,NA,right,4286,0,1,1568.7999999998137
ArR8MCjh,3mdwe879vkfdd3966pwqlqs2jwg9bh,3napmvf0z0shyrjbz1axvlukwiq270,ArR8MCjh,2020-0188,2021-10-14,10:21:51,11:34:30,NA,incomplete,false,NA,true,3,9,NA,NA,NA,right,present,NA,NA,m_s_064.jpg,white,n_l_071.jpg,white,within,NA,NaN,NA,left,9125.19999999972,0,1,1326.8999999999069
ArR8MCjh,3mdwe879vkfdd3966pwqlqs2jwg9bh,3napmvf0z0shyrjbz1axvlukwiq270,ArR8MCjh,2020-0188,2021-10-14,10:21:51,11:34:30,NA,incomplete,false,NA,true,3,10,NA,NA,NA,right,present,NA,NA,n_l_115.jpg,purple,n_s_087.jpg,white,between,NA,NaN,NA,right,8462.900000000373,1,1,1951.6000000000931
ArR8MCjh,3mdwe879vkfdd3966pwqlqs2jwg9bh,3napmvf0z0shyrjbz1axvlukwiq270,ArR8MCjh,2020-0188,2021-10-14,10:21:51,11:34:30,NA,incomplete,false,true,NA,4,0,NA,brown,n_l_089.jpg,NA,NA,pleasant,unpleasant,NA,NA,NA,NA,NA,left,2023.29999999981,true,NA,NA,NA,NA,NA
ArR8MCjh,3mdwe879vkfdd3966pwqlqs2jwg9bh,3napmvf0z0shyrjbz1axvlukwiq270,ArR8MCjh,2020-0188,2021-10-14,10:21:51,11:34:30,NA,incomplete,false,true,NA,4,1,NA,brown,m_l_060.jpg,NA,NA,pleasant,unpleasant,NA,NA,NA,NA,NA,left,1175.89999999991,true,NA,NA,NA,NA,NA
ArR8MCjh,3mdwe879vkfdd3966pwqlqs2jwg9bh,3napmvf0z0shyrjbz1axvlukwiq270,ArR8MCjh,2020-0188,2021-10-14,10:21:51,11:34:30,NA,incomplete,false,true,NA,4,2,NA,brown,n_l_076.jpg,NA,NA,pleasant,unpleasant,NA,NA,NA,NA,NA,right,1714.29999999981,true,NA,NA,NA,NA,NA
ArR8MCjh,3mdwe879vkfdd3966pwqlqs2jwg9bh,3napmvf0z0shyrjbz1axvlukwiq270,ArR8MCjh,2020-0188,2021-10-14,10:21:51,11:34:30,NA,incomplete,false,true,NA,4,3,NA,brown,m_l_104.jpg,NA,NA,unpleasant,pleasant,NA,NA,NA,NA,NA,right,2354.5,true,NA,NA,NA,NA,NA
ArR8MCjh,3mdwe879vkfdd3966pwqlqs2jwg9bh,3napmvf0z0shyrjbz1axvlukwiq270,ArR8MCjh,2020-0188,2021-10-14,10:21:51,11:34:30,NA,incomplete,false,true,NA,4,4,NA,brown,m_s_078.jpg,NA,NA,pleasant,unpleasant,NA,NA,NA,NA,NA,left,1652.30000000028,true,NA,NA,NA,NA,NA
ArR8MCjh,3mdwe879vkfdd3966pwqlqs2jwg9bh,3napmvf0z0shyrjbz1axvlukwiq270,ArR8MCjh,2020-0188,2021-10-14,10:21:51,11:34:30,NA,incomplete,false,true,NA,4,5,NA,brown,n_s_002.jpg,NA,NA,pleasant,unpleasant,NA,NA,NA,NA,NA,left,1389.79999999981,true,NA,NA,NA,NA,NA
ArR8MCjh,3mdwe879vkfdd3966pwqlqs2jwg9bh,3napmvf0z0shyrjbz1axvlukwiq270,ArR8MCjh,2020-0188,2021-10-14,10:21:51,11:34:30,NA,incomplete,false,true,NA,4,6,NA,black,n_s_069.jpg,NA,NA,unpleasant,pleasant,NA,NA,NA,NA,NA,right,1787.30000000028,true,NA,NA,NA,NA,NA
ArR8MCjh,3mdwe879vkfdd3966pwqlqs2jwg9bh,3napmvf0z0shyrjbz1axvlukwiq270,ArR8MCjh,2020-0188,2021-10-14,10:21:51,11:34:30,NA,incomplete,false,true,NA,4,7,NA,black,m_l_004.jpg,NA,NA,unpleasant,pleasant,NA,NA,NA,NA,NA,right,1503.29999999981,true,NA,NA,NA,NA,NA
ArR8MCjh,3mdwe879vkfdd3966pwqlqs2jwg9bh,3napmvf0z0shyrjbz1axvlukwiq270,ArR8MCjh,2020-0188,2021-10-14,10:21:51,11:34:30,NA,incomplete,false,true,NA,4,8,NA,black,m_s_031.jpg,NA,NA,pleasant,unpleasant,NA,NA,NA,NA,NA,left,1614.70000000019,true,NA,NA,NA,NA,NA
ArR8MCjh,3mdwe879vkfdd3966pwqlqs2jwg9bh,3napmvf0z0shyrjbz1axvlukwiq270,ArR8MCjh,2020-0188,2021-10-14,10:21:51,11:34:30,NA,incomplete,false,true,NA,4,9,NA,black,n_s_097.jpg,NA,NA,pleasant,unpleasant,NA,NA,NA,NA,NA,left,2128.40000000037,true,NA,NA,NA,NA,NA
ArR8MCjh,3mdwe879vkfdd3966pwqlqs2jwg9bh,3napmvf0z0shyrjbz1axvlukwiq270,ArR8MCjh,2020-0188,2021-10-14,10:21:51,11:34:30,NA,incomplete,false,true,NA,4,10,NA,black,n_l_044.jpg,NA,NA,unpleasant,pleasant,NA,NA,NA,NA,NA,right,1724.20000000019,true,NA,NA,NA,NA,NA
ArR8MCjh,3mdwe879vkfdd3966pwqlqs2jwg9bh,3napmvf0z0shyrjbz1axvlukwiq270,ArR8MCjh,2020-0188,2021-10-14,10:21:51,11:34:30,NA,incomplete,false,true,NA,4,11,NA,black,m_s_073.jpg,NA,NA,unpleasant,pleasant,NA,NA,NA,NA,NA,right,1217.29999999981,true,NA,NA,NA,NA,NA
ArR8MCjh,3mdwe879vkfdd3966pwqlqs2jwg9bh,3napmvf0z0shyrjbz1axvlukwiq270,ArR8MCjh,2020-0188,2021-10-14,10:21:51,11:34:30,NA,incomplete,false,true,NA,4,12,NA,yellow,m_s_034.jpg,NA,NA,pleasant,unpleasant,NA,NA,NA,NA,NA,left,1457.79999999981,true,NA,NA,NA,NA,NA
ArR8MCjh,3mdwe879vkfdd3966pwqlqs2jwg9bh,3napmvf0z0shyrjbz1axvlukwiq270,ArR8MCjh,2020-0188,2021-10-14,10:21:51,11:34:30,NA,incomplete,false,true,NA,4,13,NA,yellow,m_s_085.jpg,NA,NA,unpleasant,pleasant,NA,NA,NA,NA,NA,right,2214.29999999981,true,NA,NA,NA,NA,NA
ArR8MCjh,3mdwe879vkfdd3966pwqlqs2jwg9bh,3napmvf0z0shyrjbz1axvlukwiq270,ArR8MCjh,2020-0188,2021-10-14,10:21:51,11:34:30,NA,incomplete,false,true,NA,4,14,NA,yellow,m_s_062.jpg,NA,NA,unpleasant,pleasant,NA,NA,NA,NA,NA,right,1318.29999999981,true,NA,NA,NA,NA,NA
ArR8MCjh,3mdwe879vkfdd3966pwqlqs2jwg9bh,3napmvf0z0shyrjbz1axvlukwiq270,ArR8MCjh,2020-0188,2021-10-14,10:21:51,11:34:30,NA,incomplete,false,true,NA,4,15,NA,yellow,n_l_084.jpg,NA,NA,unpleasant,pleasant,NA,NA,NA,NA,NA,right,2373.5,true,NA,NA,NA,NA,NA
ArR8MCjh,3mdwe879vkfdd3966pwqlqs2jwg9bh,3napmvf0z0shyrjbz1axvlukwiq270,ArR8MCjh,2020-0188,2021-10-14,10:21:51,11:34:30,NA,incomplete,false,true,NA,4,16,NA,yellow,n_l_055.jpg,NA,NA,pleasant,unpleasant,NA,NA,NA,NA,NA,left,1776.70000000019,true,NA,NA,NA,NA,NA
ArR8MCjh,3mdwe879vkfdd3966pwqlqs2jwg9bh,3napmvf0z0shyrjbz1axvlukwiq270,ArR8MCjh,2020-0188,2021-10-14,10:21:51,11:34:30,NA,incomplete,false,true,NA,4,17,NA,yellow,n_s_042.jpg,NA,NA,unpleasant,pleasant,NA,NA,NA,NA,NA,right,1853,true,NA,NA,NA,NA,NA
ArR8MCjh,3mdwe879vkfdd3966pwqlqs2jwg9bh,3napmvf0z0shyrjbz1axvlukwiq270,ArR8MCjh,2020-0188,2021-10-14,10:21:51,11:34:30,NA,incomplete,false,true,NA,4,18,NA,green,m_s_044.jpg,NA,NA,unpleasant,pleasant,NA,NA,NA,NA,NA,right,1372.29999999981,true,NA,NA,NA,NA,NA
ArR8MCjh,3mdwe879vkfdd3966pwqlqs2jwg9bh,3napmvf0z0shyrjbz1axvlukwiq270,ArR8MCjh,2020-0188,2021-10-14,10:21:51,11:34:30,NA,incomplete,false,true,NA,4,19,NA,green,n_s_077.jpg,NA,NA,unpleasant,pleasant,NA,NA,NA,NA,NA,right,1586.10000000009,true,NA,NA,NA,NA,NA
ArR8MCjh,3mdwe879vkfdd3966pwqlqs2jwg9bh,3napmvf0z0shyrjbz1axvlukwiq270,ArR8MCjh,2020-0188,2021-10-14,10:21:51,11:34:30,NA,incomplete,false,true,NA,4,20,NA,green,n_l_052.jpg,NA,NA,unpleasant,pleasant,NA,NA,NA,NA,NA,right,1554.39999999991,true,NA,NA,NA,NA,NA
ArR8MCjh,3mdwe879vkfdd3966pwqlqs2jwg9bh,3napmvf0z0shyrjbz1axvlukwiq270,ArR8MCjh,2020-0188,2021-10-14,10:21:51,11:34:30,NA,incomplete,false,true,NA,4,21,NA,green,n_l_111.jpg,NA,NA,unpleasant,pleasant,NA,NA,NA,NA,NA,right,2319,true,NA,NA,NA,NA,NA
ArR8MCjh,3mdwe879vkfdd3966pwqlqs2jwg9bh,3napmvf0z0shyrjbz1axvlukwiq270,ArR8MCjh,2020-0188,2021-10-14,10:21:51,11:34:30,NA,incomplete,false,true,NA,4,22,NA,green,m_s_094.jpg,NA,NA,unpleasant,pleasant,NA,NA,NA,NA,NA,right,2019.60000000009,true,NA,NA,NA,NA,NA
ArR8MCjh,3mdwe879vkfdd3966pwqlqs2jwg9bh,3napmvf0z0shyrjbz1axvlukwiq270,ArR8MCjh,2020-0188,2021-10-14,10:21:51,11:34:30,NA,incomplete,false,true,NA,4,23,NA,green,n_s_101.jpg,NA,NA,unpleasant,pleasant,NA,NA,NA,NA,NA,left,1419.5,true,NA,NA,NA,NA,NA
ArR8MCjh,3mdwe879vkfdd3966pwqlqs2jwg9bh,3napmvf0z0shyrjbz1axvlukwiq270,ArR8MCjh,2020-0188,2021-10-14,10:21:51,11:34:30,NA,incomplete,false,true,NA,4,24,NA,orange,n_s_030.jpg,NA,NA,unpleasant,pleasant,NA,NA,NA,NA,NA,right,1692.60000000009,true,NA,NA,NA,NA,NA
ArR8MCjh,3mdwe879vkfdd3966pwqlqs2jwg9bh,3napmvf0z0shyrjbz1axvlukwiq270,ArR8MCjh,2020-0188,2021-10-14,10:21:51,11:34:30,NA,incomplete,false,true,NA,4,25,NA,orange,n_l_079.jpg,NA,NA,pleasant,unpleasant,NA,NA,NA,NA,NA,left,1990.89999999991,true,NA,NA,NA,NA,NA
ArR8MCjh,3mdwe879vkfdd3966pwqlqs2jwg9bh,3napmvf0z0shyrjbz1axvlukwiq270,ArR8MCjh,2020-0188,2021-10-14,10:21:51,11:34:30,NA,incomplete,false,true,NA,4,26,NA,orange,n_s_035.jpg,NA,NA,pleasant,unpleasant,NA,NA,NA,NA,NA,left,2028,true,NA,NA,NA,NA,NA
ArR8MCjh,3mdwe879vkfdd3966pwqlqs2jwg9bh,3napmvf0z0shyrjbz1axvlukwiq270,ArR8MCjh,2020-0188,2021-10-14,10:21:51,11:34:30,NA,incomplete,false,true,NA,4,27,NA,orange,n_l_037.jpg,NA,NA,unpleasant,pleasant,NA,NA,NA,NA,NA,right,2158.40000000037,true,NA,NA,NA,NA,NA
ArR8MCjh,3mdwe879vkfdd3966pwqlqs2jwg9bh,3napmvf0z0shyrjbz1axvlukwiq270,ArR8MCjh,2020-0188,2021-10-14,10:21:51,11:34:30,NA,incomplete,false,true,NA,4,28,NA,orange,n_l_062.jpg,NA,NA,pleasant,unpleasant,NA,NA,NA,NA,NA,left,1388.89999999991,true,NA,NA,NA,NA,NA
ArR8MCjh,3mdwe879vkfdd3966pwqlqs2jwg9bh,3napmvf0z0shyrjbz1axvlukwiq270,ArR8MCjh,2020-0188,2021-10-14,10:21:51,11:34:30,NA,incomplete,false,true,NA,4,29,NA,orange,m_s_011.jpg,NA,NA,pleasant,unpleasant,NA,NA,NA,NA,NA,left,2076,true,NA,NA,NA,NA,NA
ArR8MCjh,3mdwe879vkfdd3966pwqlqs2jwg9bh,3napmvf0z0shyrjbz1axvlukwiq270,ArR8MCjh,2020-0188,2021-10-14,10:21:51,11:34:30,NA,incomplete,false,true,NA,4,30,NA,purple,n_l_087.jpg,NA,NA,pleasant,unpleasant,NA,NA,NA,NA,NA,left,1599.20000000019,true,NA,NA,NA,NA,NA
ArR8MCjh,3mdwe879vkfdd3966pwqlqs2jwg9bh,3napmvf0z0shyrjbz1axvlukwiq270,ArR8MCjh,2020-0188,2021-10-14,10:21:51,11:34:30,NA,incomplete,false,true,NA,4,31,NA,purple,n_s_010.jpg,NA,NA,unpleasant,pleasant,NA,NA,NA,NA,NA,right,1512.39999999991,true,NA,NA,NA,NA,NA
ArR8MCjh,3mdwe879vkfdd3966pwqlqs2jwg9bh,3napmvf0z0shyrjbz1axvlukwiq270,ArR8MCjh,2020-0188,2021-10-14,10:21:51,11:34:30,NA,incomplete,false,true,NA,4,32,NA,purple,n_s_063.jpg,NA,NA,unpleasant,pleasant,NA,NA,NA,NA,NA,right,1792.70000000019,true,NA,NA,NA,NA,NA
ArR8MCjh,3mdwe879vkfdd3966pwqlqs2jwg9bh,3napmvf0z0shyrjbz1axvlukwiq270,ArR8MCjh,2020-0188,2021-10-14,10:21:51,11:34:30,NA,incomplete,false,true,NA,4,33,NA,purple,m_l_035.jpg,NA,NA,unpleasant,pleasant,NA,NA,NA,NA,NA,right,1704.10000000009,true,NA,NA,NA,NA,NA
ArR8MCjh,3mdwe879vkfdd3966pwqlqs2jwg9bh,3napmvf0z0shyrjbz1axvlukwiq270,ArR8MCjh,2020-0188,2021-10-14,10:21:51,11:34:30,NA,incomplete,false,true,NA,4,34,NA,purple,m_s_081.jpg,NA,NA,pleasant,unpleasant,NA,NA,NA,NA,NA,left,1470.29999999981,true,NA,NA,NA,NA,NA
ArR8MCjh,3mdwe879vkfdd3966pwqlqs2jwg9bh,3napmvf0z0shyrjbz1axvlukwiq270,ArR8MCjh,2020-0188,2021-10-14,10:21:51,11:34:30,NA,incomplete,false,true,NA,4,35,NA,purple,n_s_105.jpg,NA,NA,unpleasant,pleasant,NA,NA,NA,NA,NA,right,1326.69999999972,true,NA,NA,NA,NA,NA
ArR8MCjh,3mdwe879vkfdd3966pwqlqs2jwg9bh,3napmvf0z0shyrjbz1axvlukwiq270,ArR8MCjh,2020-0188,2021-10-14,10:21:51,11:34:30,NA,incomplete,false,NA,true,4,0,NA,NA,NA,left,absent,NA,NA,m_s_094.jpg,green,n_s_035.jpg,orange,between,NA,NaN,NA,left,6977.600000000093,1,1,1383
ArR8MCjh,3mdwe879vkfdd3966pwqlqs2jwg9bh,3napmvf0z0shyrjbz1axvlukwiq270,ArR8MCjh,2020-0188,2021-10-14,10:21:51,11:34:30,NA,incomplete,false,NA,true,4,1,NA,NA,NA,right,absent,NA,NA,m_s_011.jpg,orange,n_l_079.jpg,orange,within,NA,NaN,NA,right,9773.600000000093,1,0,1429.1000000000931
ArR8MCjh,3mdwe879vkfdd3966pwqlqs2jwg9bh,3napmvf0z0shyrjbz1axvlukwiq270,ArR8MCjh,2020-0188,2021-10-14,10:21:51,11:34:30,NA,incomplete,false,NA,true,4,2,NA,NA,NA,right,absent,NA,NA,n_s_101.jpg,green,n_s_077.jpg,green,within,NA,NaN,NA,left,2145.600000000093,0,1,1810.5
ArR8MCjh,3mdwe879vkfdd3966pwqlqs2jwg9bh,3napmvf0z0shyrjbz1axvlukwiq270,ArR8MCjh,2020-0188,2021-10-14,10:21:51,11:34:30,NA,incomplete,false,NA,true,4,3,NA,NA,NA,left,absent,NA,NA,n_l_044.jpg,black,m_s_062.jpg,yellow,between,NA,NaN,NA,left,3420.5,1,2,1648.2000000001863
ArR8MCjh,3mdwe879vkfdd3966pwqlqs2jwg9bh,3napmvf0z0shyrjbz1axvlukwiq270,ArR8MCjh,2020-0188,2021-10-14,10:21:51,11:34:30,NA,incomplete,false,NA,true,4,4,NA,NA,NA,left,absent,NA,NA,m_s_078.jpg,brown,m_s_031.jpg,black,between,NA,NaN,NA,left,4744.100000000093,1,1,2083.600000000093
ArR8MCjh,3mdwe879vkfdd3966pwqlqs2jwg9bh,3napmvf0z0shyrjbz1axvlukwiq270,ArR8MCjh,2020-0188,2021-10-14,10:21:51,11:34:30,NA,incomplete,false,NA,true,4,5,NA,NA,NA,right,absent,NA,NA,n_s_002.jpg,brown,m_l_060.jpg,brown,within,NA,NaN,NA,right,2450.5999999996275,1,1,1732.8000000002794
ArR8MCjh,3mdwe879vkfdd3966pwqlqs2jwg9bh,3napmvf0z0shyrjbz1axvlukwiq270,ArR8MCjh,2020-0188,2021-10-14,10:21:51,11:34:30,NA,incomplete,false,NA,true,4,6,NA,NA,NA,left,absent,NA,NA,n_l_055.jpg,yellow,n_l_052.jpg,green,between,NA,NaN,NA,left,4076.0999999996275,1,2,1788.6000000000931
ArR8MCjh,3mdwe879vkfdd3966pwqlqs2jwg9bh,3napmvf0z0shyrjbz1axvlukwiq270,ArR8MCjh,2020-0188,2021-10-14,10:21:51,11:34:30,NA,incomplete,false,NA,true,4,7,NA,NA,NA,right,absent,NA,NA,m_s_073.jpg,black,m_l_004.jpg,black,within,NA,NaN,NA,right,5731.199999999721,1,1,1903.1000000000931
ArR8MCjh,3mdwe879vkfdd3966pwqlqs2jwg9bh,3napmvf0z0shyrjbz1axvlukwiq270,ArR8MCjh,2020-0188,2021-10-14,10:21:51,11:34:30,NA,incomplete,false,NA,true,4,8,NA,NA,NA,right,absent,NA,NA,n_s_105.jpg,purple,n_s_010.jpg,purple,within,NA,NaN,NA,left,5040.300000000279,0,2,1305
ArR8MCjh,3mdwe879vkfdd3966pwqlqs2jwg9bh,3napmvf0z0shyrjbz1axvlukwiq270,ArR8MCjh,2020-0188,2021-10-14,10:21:51,11:34:30,NA,incomplete,false,NA,true,4,9,NA,NA,NA,right,absent,NA,NA,n_s_063.jpg,purple,n_l_062.jpg,orange,between,NA,NaN,NA,right,3553,1,2,1686.4000000003725
ArR8MCjh,3mdwe879vkfdd3966pwqlqs2jwg9bh,3napmvf0z0shyrjbz1axvlukwiq270,ArR8MCjh,2020-0188,2021-10-14,10:21:51,11:34:30,NA,incomplete,false,NA,true,4,10,NA,NA,NA,left,absent,NA,NA,m_s_085.jpg,yellow,n_s_042.jpg,yellow,within,NA,NaN,NA,right,5089.299999999814,0,2,2563.7999999998137
ArR8MCjh,3mdwe879vkfdd3966pwqlqs2jwg9bh,3napmvf0z0shyrjbz1axvlukwiq270,ArR8MCjh,2020-0188,2021-10-14,10:21:51,11:34:30,NA,incomplete,false,true,NA,5,0,NA,blue,n_s_072.jpg,NA,NA,unpleasant,pleasant,NA,NA,NA,NA,NA,right,2254.59999999963,true,NA,NA,NA,NA,NA
ArR8MCjh,3mdwe879vkfdd3966pwqlqs2jwg9bh,3napmvf0z0shyrjbz1axvlukwiq270,ArR8MCjh,2020-0188,2021-10-14,10:21:51,11:34:30,NA,incomplete,false,true,NA,5,1,NA,blue,n_s_039.jpg,NA,NA,unpleasant,pleasant,NA,NA,NA,NA,NA,right,1603.79999999981,true,NA,NA,NA,NA,NA
ArR8MCjh,3mdwe879vkfdd3966pwqlqs2jwg9bh,3napmvf0z0shyrjbz1axvlukwiq270,ArR8MCjh,2020-0188,2021-10-14,10:21:51,11:34:30,NA,incomplete,false,true,NA,5,2,NA,blue,m_s_065.jpg,NA,NA,unpleasant,pleasant,NA,NA,NA,NA,NA,right,1641.79999999981,true,NA,NA,NA,NA,NA
ArR8MCjh,3mdwe879vkfdd3966pwqlqs2jwg9bh,3napmvf0z0shyrjbz1axvlukwiq270,ArR8MCjh,2020-0188,2021-10-14,10:21:51,11:34:30,NA,incomplete,false,true,NA,5,3,NA,blue,n_s_041.jpg,NA,NA,pleasant,unpleasant,NA,NA,NA,NA,NA,left,2048.80000000028,true,NA,NA,NA,NA,NA
ArR8MCjh,3mdwe879vkfdd3966pwqlqs2jwg9bh,3napmvf0z0shyrjbz1axvlukwiq270,ArR8MCjh,2020-0188,2021-10-14,10:21:51,11:34:30,NA,incomplete,false,true,NA,5,4,NA,blue,n_s_111.jpg,NA,NA,unpleasant,pleasant,NA,NA,NA,NA,NA,right,1863.79999999981,true,NA,NA,NA,NA,NA
ArR8MCjh,3mdwe879vkfdd3966pwqlqs2jwg9bh,3napmvf0z0shyrjbz1axvlukwiq270,ArR8MCjh,2020-0188,2021-10-14,10:21:51,11:34:30,NA,incomplete,false,true,NA,5,5,NA,blue,m_l_003.jpg,NA,NA,unpleasant,pleasant,NA,NA,NA,NA,NA,right,1557.30000000028,true,NA,NA,NA,NA,NA
ArR8MCjh,3mdwe879vkfdd3966pwqlqs2jwg9bh,3napmvf0z0shyrjbz1axvlukwiq270,ArR8MCjh,2020-0188,2021-10-14,10:21:51,11:34:30,NA,incomplete,false,true,NA,5,6,NA,purple,n_l_096.jpg,NA,NA,unpleasant,pleasant,NA,NA,NA,NA,NA,right,1902.79999999981,true,NA,NA,NA,NA,NA
ArR8MCjh,3mdwe879vkfdd3966pwqlqs2jwg9bh,3napmvf0z0shyrjbz1axvlukwiq270,ArR8MCjh,2020-0188,2021-10-14,10:21:51,11:34:30,NA,incomplete,false,true,NA,5,7,NA,purple,m_l_112.jpg,NA,NA,unpleasant,pleasant,NA,NA,NA,NA,NA,right,1826.29999999981,true,NA,NA,NA,NA,NA
ArR8MCjh,3mdwe879vkfdd3966pwqlqs2jwg9bh,3napmvf0z0shyrjbz1axvlukwiq270,ArR8MCjh,2020-0188,2021-10-14,10:21:51,11:34:30,NA,incomplete,false,true,NA,5,8,NA,purple,m_s_043.jpg,NA,NA,unpleasant,pleasant,NA,NA,NA,NA,NA,right,1904.80000000028,true,NA,NA,NA,NA,NA
ArR8MCjh,3mdwe879vkfdd3966pwqlqs2jwg9bh,3napmvf0z0shyrjbz1axvlukwiq270,ArR8MCjh,2020-0188,2021-10-14,10:21:51,11:34:30,NA,incomplete,false,true,NA,5,9,NA,purple,n_s_106.jpg,NA,NA,pleasant,unpleasant,NA,NA,NA,NA,NA,left,2335.69999999972,true,NA,NA,NA,NA,NA
ArR8MCjh,3mdwe879vkfdd3966pwqlqs2jwg9bh,3napmvf0z0shyrjbz1axvlukwiq270,ArR8MCjh,2020-0188,2021-10-14,10:21:51,11:34:30,NA,incomplete,false,true,NA,5,10,NA,purple,n_l_029.jpg,NA,NA,unpleasant,pleasant,NA,NA,NA,NA,NA,right,2517.80000000028,true,NA,NA,NA,NA,NA
ArR8MCjh,3mdwe879vkfdd3966pwqlqs2jwg9bh,3napmvf0z0shyrjbz1axvlukwiq270,ArR8MCjh,2020-0188,2021-10-14,10:21:51,11:34:30,NA,incomplete,false,true,NA,5,11,NA,purple,m_l_081.jpg,NA,NA,unpleasant,pleasant,NA,NA,NA,NA,NA,right,1880.89999999991,true,NA,NA,NA,NA,NA
ArR8MCjh,3mdwe879vkfdd3966pwqlqs2jwg9bh,3napmvf0z0shyrjbz1axvlukwiq270,ArR8MCjh,2020-0188,2021-10-14,10:21:51,11:34:30,NA,incomplete,false,true,NA,5,12,NA,orange,m_s_104.jpg,NA,NA,unpleasant,pleasant,NA,NA,NA,NA,NA,right,1526.19999999972,true,NA,NA,NA,NA,NA
ArR8MCjh,3mdwe879vkfdd3966pwqlqs2jwg9bh,3napmvf0z0shyrjbz1axvlukwiq270,ArR8MCjh,2020-0188,2021-10-14,10:21:51,11:34:30,NA,incomplete,false,true,NA,5,13,NA,orange,n_s_014.jpg,NA,NA,pleasant,unpleasant,NA,NA,NA,NA,NA,left,2034.60000000009,true,NA,NA,NA,NA,NA
ArR8MCjh,3mdwe879vkfdd3966pwqlqs2jwg9bh,3napmvf0z0shyrjbz1axvlukwiq270,ArR8MCjh,2020-0188,2021-10-14,10:21:51,11:34:30,NA,incomplete,false,true,NA,5,14,NA,orange,n_l_013.jpg,NA,NA,pleasant,unpleasant,NA,NA,NA,NA,NA,left,1780.20000000019,true,NA,NA,NA,NA,NA
ArR8MCjh,3mdwe879vkfdd3966pwqlqs2jwg9bh,3napmvf0z0shyrjbz1axvlukwiq270,ArR8MCjh,2020-0188,2021-10-14,10:21:51,11:34:30,NA,incomplete,false,true,NA,5,15,NA,orange,m_s_010.jpg,NA,NA,unpleasant,pleasant,NA,NA,NA,NA,NA,right,2331.19999999972,true,NA,NA,NA,NA,NA
ArR8MCjh,3mdwe879vkfdd3966pwqlqs2jwg9bh,3napmvf0z0shyrjbz1axvlukwiq270,ArR8MCjh,2020-0188,2021-10-14,10:21:51,11:34:30,NA,incomplete,false,true,NA,5,16,NA,orange,n_l_107.jpg,NA,NA,pleasant,unpleasant,NA,NA,NA,NA,NA,left,1861.39999999991,true,NA,NA,NA,NA,NA
ArR8MCjh,3mdwe879vkfdd3966pwqlqs2jwg9bh,3napmvf0z0shyrjbz1axvlukwiq270,ArR8MCjh,2020-0188,2021-10-14,10:21:51,11:34:30,NA,incomplete,false,true,NA,5,17,NA,orange,m_l_032.jpg,NA,NA,unpleasant,pleasant,NA,NA,NA,NA,NA,right,1482.59999999963,true,NA,NA,NA,NA,NA
ArR8MCjh,3mdwe879vkfdd3966pwqlqs2jwg9bh,3napmvf0z0shyrjbz1axvlukwiq270,ArR8MCjh,2020-0188,2021-10-14,10:21:51,11:34:30,NA,incomplete,false,true,NA,5,18,NA,black,n_s_056.jpg,NA,NA,unpleasant,pleasant,NA,NA,NA,NA,NA,right,2001,true,NA,NA,NA,NA,NA
ArR8MCjh,3mdwe879vkfdd3966pwqlqs2jwg9bh,3napmvf0z0shyrjbz1axvlukwiq270,ArR8MCjh,2020-0188,2021-10-14,10:21:51,11:34:30,NA,incomplete,false,true,NA,5,19,NA,black,n_s_018.jpg,NA,NA,unpleasant,pleasant,NA,NA,NA,NA,NA,right,1249.20000000019,true,NA,NA,NA,NA,NA
ArR8MCjh,3mdwe879vkfdd3966pwqlqs2jwg9bh,3napmvf0z0shyrjbz1axvlukwiq270,ArR8MCjh,2020-0188,2021-10-14,10:21:51,11:34:30,NA,incomplete,false,true,NA,5,20,NA,black,n_s_016.jpg,NA,NA,unpleasant,pleasant,NA,NA,NA,NA,NA,right,3001.5,true,NA,NA,NA,NA,NA
ArR8MCjh,3mdwe879vkfdd3966pwqlqs2jwg9bh,3napmvf0z0shyrjbz1axvlukwiq270,ArR8MCjh,2020-0188,2021-10-14,10:21:51,11:34:30,NA,incomplete,false,true,NA,5,21,NA,black,m_s_022.jpg,NA,NA,pleasant,unpleasant,NA,NA,NA,NA,NA,left,1723.60000000009,true,NA,NA,NA,NA,NA
ArR8MCjh,3mdwe879vkfdd3966pwqlqs2jwg9bh,3napmvf0z0shyrjbz1axvlukwiq270,ArR8MCjh,2020-0188,2021-10-14,10:21:51,11:34:30,NA,incomplete,false,true,NA,5,22,NA,black,n_l_063.jpg,NA,NA,pleasant,unpleasant,NA,NA,NA,NA,NA,left,1587.70000000019,true,NA,NA,NA,NA,NA
ArR8MCjh,3mdwe879vkfdd3966pwqlqs2jwg9bh,3napmvf0z0shyrjbz1axvlukwiq270,ArR8MCjh,2020-0188,2021-10-14,10:21:51,11:34:30,NA,incomplete,false,true,NA,5,23,NA,black,m_l_041.jpg,NA,NA,pleasant,unpleasant,NA,NA,NA,NA,NA,left,1786.30000000028,true,NA,NA,NA,NA,NA
ArR8MCjh,3mdwe879vkfdd3966pwqlqs2jwg9bh,3napmvf0z0shyrjbz1axvlukwiq270,ArR8MCjh,2020-0188,2021-10-14,10:21:51,11:34:30,NA,incomplete,false,true,NA,5,24,NA,green,n_s_036.jpg,NA,NA,pleasant,unpleasant,NA,NA,NA,NA,NA,left,1844.89999999991,true,NA,NA,NA,NA,NA
ArR8MCjh,3mdwe879vkfdd3966pwqlqs2jwg9bh,3napmvf0z0shyrjbz1axvlukwiq270,ArR8MCjh,2020-0188,2021-10-14,10:21:51,11:34:30,NA,incomplete,false,true,NA,5,25,NA,green,m_s_007.jpg,NA,NA,unpleasant,pleasant,NA,NA,NA,NA,NA,right,2058.20000000019,true,NA,NA,NA,NA,NA
ArR8MCjh,3mdwe879vkfdd3966pwqlqs2jwg9bh,3napmvf0z0shyrjbz1axvlukwiq270,ArR8MCjh,2020-0188,2021-10-14,10:21:51,11:34:30,NA,incomplete,false,true,NA,5,26,NA,green,m_l_025.jpg,NA,NA,pleasant,unpleasant,NA,NA,NA,NA,NA,left,1494.70000000019,true,NA,NA,NA,NA,NA
ArR8MCjh,3mdwe879vkfdd3966pwqlqs2jwg9bh,3napmvf0z0shyrjbz1axvlukwiq270,ArR8MCjh,2020-0188,2021-10-14,10:21:51,11:34:30,NA,incomplete,false,true,NA,5,27,NA,green,m_l_030.jpg,NA,NA,unpleasant,pleasant,NA,NA,NA,NA,NA,right,1337,true,NA,NA,NA,NA,NA
ArR8MCjh,3mdwe879vkfdd3966pwqlqs2jwg9bh,3napmvf0z0shyrjbz1axvlukwiq270,ArR8MCjh,2020-0188,2021-10-14,10:21:51,11:34:30,NA,incomplete,false,true,NA,5,28,NA,green,n_s_115.jpg,NA,NA,unpleasant,pleasant,NA,NA,NA,NA,NA,right,2326.5,true,NA,NA,NA,NA,NA
ArR8MCjh,3mdwe879vkfdd3966pwqlqs2jwg9bh,3napmvf0z0shyrjbz1axvlukwiq270,ArR8MCjh,2020-0188,2021-10-14,10:21:51,11:34:30,NA,incomplete,false,true,NA,5,29,NA,green,m_s_070.jpg,NA,NA,unpleasant,pleasant,NA,NA,NA,NA,NA,right,1732.20000000019,true,NA,NA,NA,NA,NA
ArR8MCjh,3mdwe879vkfdd3966pwqlqs2jwg9bh,3napmvf0z0shyrjbz1axvlukwiq270,ArR8MCjh,2020-0188,2021-10-14,10:21:51,11:34:30,NA,incomplete,false,true,NA,5,30,NA,gray,n_s_037.jpg,NA,NA,unpleasant,pleasant,NA,NA,NA,NA,NA,right,2140.09999999963,true,NA,NA,NA,NA,NA
ArR8MCjh,3mdwe879vkfdd3966pwqlqs2jwg9bh,3napmvf0z0shyrjbz1axvlukwiq270,ArR8MCjh,2020-0188,2021-10-14,10:21:51,11:34:30,NA,incomplete,false,true,NA,5,31,NA,gray,m_l_051.jpg,NA,NA,pleasant,unpleasant,NA,NA,NA,NA,NA,left,2881.19999999972,true,NA,NA,NA,NA,NA
ArR8MCjh,3mdwe879vkfdd3966pwqlqs2jwg9bh,3napmvf0z0shyrjbz1axvlukwiq270,ArR8MCjh,2020-0188,2021-10-14,10:21:51,11:34:30,NA,incomplete,false,true,NA,5,32,NA,gray,m_s_063.jpg,NA,NA,pleasant,unpleasant,NA,NA,NA,NA,NA,left,2329.79999999981,true,NA,NA,NA,NA,NA
ArR8MCjh,3mdwe879vkfdd3966pwqlqs2jwg9bh,3napmvf0z0shyrjbz1axvlukwiq270,ArR8MCjh,2020-0188,2021-10-14,10:21:51,11:34:30,NA,incomplete,false,true,NA,5,33,NA,gray,m_l_100.jpg,NA,NA,unpleasant,pleasant,NA,NA,NA,NA,NA,right,1162.69999999972,true,NA,NA,NA,NA,NA
ArR8MCjh,3mdwe879vkfdd3966pwqlqs2jwg9bh,3napmvf0z0shyrjbz1axvlukwiq270,ArR8MCjh,2020-0188,2021-10-14,10:21:51,11:34:30,NA,incomplete,false,true,NA,5,34,NA,gray,m_s_079.jpg,NA,NA,pleasant,unpleasant,NA,NA,NA,NA,NA,left,1750.60000000009,true,NA,NA,NA,NA,NA
ArR8MCjh,3mdwe879vkfdd3966pwqlqs2jwg9bh,3napmvf0z0shyrjbz1axvlukwiq270,ArR8MCjh,2020-0188,2021-10-14,10:21:51,11:34:30,NA,incomplete,false,true,NA,5,35,NA,gray,m_s_105.jpg,NA,NA,unpleasant,pleasant,NA,NA,NA,NA,NA,right,2317.30000000028,true,NA,NA,NA,NA,NA
ArR8MCjh,3mdwe879vkfdd3966pwqlqs2jwg9bh,3napmvf0z0shyrjbz1axvlukwiq270,ArR8MCjh,2020-0188,2021-10-14,10:21:51,11:34:30,NA,incomplete,false,NA,true,5,0,NA,NA,NA,left,present,NA,NA,n_s_014.jpg,orange,m_l_032.jpg,orange,within,NA,NaN,NA,left,9154.5,1,1,2651.199999999255
ArR8MCjh,3mdwe879vkfdd3966pwqlqs2jwg9bh,3napmvf0z0shyrjbz1axvlukwiq270,ArR8MCjh,2020-0188,2021-10-14,10:21:51,11:34:30,NA,incomplete,false,NA,true,5,1,NA,NA,NA,right,present,NA,NA,n_s_016.jpg,black,n_l_107.jpg,orange,between,NA,NaN,NA,right,6555.4000000003725,1,2,1513.4000000003725
ArR8MCjh,3mdwe879vkfdd3966pwqlqs2jwg9bh,3napmvf0z0shyrjbz1axvlukwiq270,ArR8MCjh,2020-0188,2021-10-14,10:21:51,11:34:30,NA,incomplete,false,NA,true,5,2,NA,NA,NA,left,present,NA,NA,m_l_112.jpg,purple,m_l_081.jpg,purple,within,NA,NaN,NA,left,3441.7999999998137,1,1,1776.7999999998137
ArR8MCjh,3mdwe879vkfdd3966pwqlqs2jwg9bh,3napmvf0z0shyrjbz1axvlukwiq270,ArR8MCjh,2020-0188,2021-10-14,10:21:51,11:34:30,NA,incomplete,false,NA,true,5,3,NA,NA,NA,left,present,NA,NA,n_s_018.jpg,black,m_l_041.jpg,black,within,NA,NaN,NA,left,4069,1,1,1335.2000000001863
ArR8MCjh,3mdwe879vkfdd3966pwqlqs2jwg9bh,3napmvf0z0shyrjbz1axvlukwiq270,ArR8MCjh,2020-0188,2021-10-14,10:21:51,11:34:30,NA,incomplete,false,NA,true,5,4,NA,NA,NA,left,present,NA,NA,n_l_029.jpg,purple,n_l_013.jpg,orange,between,NA,NaN,NA,left,6255,1,1,1890.300000000745
ArR8MCjh,3mdwe879vkfdd3966pwqlqs2jwg9bh,3napmvf0z0shyrjbz1axvlukwiq270,ArR8MCjh,2020-0188,2021-10-14,10:21:51,11:34:30,NA,incomplete,false,NA,true,5,5,NA,NA,NA,left,present,NA,NA,m_s_007.jpg,green,m_s_070.jpg,green,within,NA,NaN,NA,left,2977.2000000001863,1,2,1375.7000000001863
ArR8MCjh,3mdwe879vkfdd3966pwqlqs2jwg9bh,3napmvf0z0shyrjbz1axvlukwiq270,ArR8MCjh,2020-0188,2021-10-14,10:21:51,11:34:30,NA,incomplete,false,NA,true,5,6,NA,NA,NA,left,present,NA,NA,m_l_051.jpg,gray,m_s_105.jpg,gray,within,NA,NaN,NA,right,2681.600000000559,0,1,1344.5
ArR8MCjh,3mdwe879vkfdd3966pwqlqs2jwg9bh,3napmvf0z0shyrjbz1axvlukwiq270,ArR8MCjh,2020-0188,2021-10-14,10:21:51,11:34:30,NA,incomplete,false,NA,true,5,7,NA,NA,NA,right,present,NA,NA,m_s_043.jpg,purple,n_s_111.jpg,blue,between,NA,NaN,NA,left,1717.5,0,1,1584.8999999994412
ArR8MCjh,3mdwe879vkfdd3966pwqlqs2jwg9bh,3napmvf0z0shyrjbz1axvlukwiq270,ArR8MCjh,2020-0188,2021-10-14,10:21:51,11:34:30,NA,incomplete,false,NA,true,5,8,NA,NA,NA,right,present,NA,NA,m_l_003.jpg,blue,n_s_039.jpg,blue,within,NA,NaN,NA,right,4098.5999999996275,1,1,2536
ArR8MCjh,3mdwe879vkfdd3966pwqlqs2jwg9bh,3napmvf0z0shyrjbz1axvlukwiq270,ArR8MCjh,2020-0188,2021-10-14,10:21:51,11:34:30,NA,incomplete,false,NA,true,5,9,NA,NA,NA,right,present,NA,NA,m_s_063.jpg,gray,n_s_115.jpg,green,between,NA,NaN,NA,right,5237.399999999441,1,1,3132.4000000003725
ArR8MCjh,3mdwe879vkfdd3966pwqlqs2jwg9bh,3napmvf0z0shyrjbz1axvlukwiq270,ArR8MCjh,2020-0188,2021-10-14,10:21:51,11:34:30,NA,incomplete,false,NA,true,5,10,NA,NA,NA,right,present,NA,NA,m_l_025.jpg,green,n_l_063.jpg,black,between,NA,NaN,NA,right,9416.400000000373,1,2,1704.5
ArR8MCjh,3mdwe879vkfdd3966pwqlqs2jwg9bh,3napmvf0z0shyrjbz1axvlukwiq270,ArR8MCjh,2020-0188,2021-10-14,10:21:51,11:34:30,NA,incomplete,false,true,NA,6,0,NA,blue,n_s_005.jpg,NA,NA,pleasant,unpleasant,NA,NA,NA,NA,NA,left,2204.09999999963,true,NA,NA,NA,NA,NA
ArR8MCjh,3mdwe879vkfdd3966pwqlqs2jwg9bh,3napmvf0z0shyrjbz1axvlukwiq270,ArR8MCjh,2020-0188,2021-10-14,10:21:51,11:34:30,NA,incomplete,false,true,NA,6,1,NA,blue,n_l_008.jpg,NA,NA,unpleasant,pleasant,NA,NA,NA,NA,NA,right,1579.20000000019,true,NA,NA,NA,NA,NA
ArR8MCjh,3mdwe879vkfdd3966pwqlqs2jwg9bh,3napmvf0z0shyrjbz1axvlukwiq270,ArR8MCjh,2020-0188,2021-10-14,10:21:51,11:34:30,NA,incomplete,false,true,NA,6,2,NA,blue,n_l_048.jpg,NA,NA,pleasant,unpleasant,NA,NA,NA,NA,NA,left,1352.70000000019,true,NA,NA,NA,NA,NA
ArR8MCjh,3mdwe879vkfdd3966pwqlqs2jwg9bh,3napmvf0z0shyrjbz1axvlukwiq270,ArR8MCjh,2020-0188,2021-10-14,10:21:51,11:34:30,NA,incomplete,false,true,NA,6,3,NA,blue,m_s_106.jpg,NA,NA,pleasant,unpleasant,NA,NA,NA,NA,NA,left,1674.69999999925,true,NA,NA,NA,NA,NA
ArR8MCjh,3mdwe879vkfdd3966pwqlqs2jwg9bh,3napmvf0z0shyrjbz1axvlukwiq270,ArR8MCjh,2020-0188,2021-10-14,10:21:51,11:34:30,NA,incomplete,false,true,NA,6,4,NA,blue,m_s_096.jpg,NA,NA,pleasant,unpleasant,NA,NA,NA,NA,NA,left,1478,true,NA,NA,NA,NA,NA
ArR8MCjh,3mdwe879vkfdd3966pwqlqs2jwg9bh,3napmvf0z0shyrjbz1axvlukwiq270,ArR8MCjh,2020-0188,2021-10-14,10:21:51,11:34:30,NA,incomplete,false,true,NA,6,5,NA,blue,m_s_102.jpg,NA,NA,pleasant,unpleasant,NA,NA,NA,NA,NA,left,1449.79999999981,true,NA,NA,NA,NA,NA
ArR8MCjh,3mdwe879vkfdd3966pwqlqs2jwg9bh,3napmvf0z0shyrjbz1axvlukwiq270,ArR8MCjh,2020-0188,2021-10-14,10:21:51,11:34:30,NA,incomplete,false,true,NA,6,6,NA,purple,m_l_067.jpg,NA,NA,unpleasant,pleasant,NA,NA,NA,NA,NA,right,1561.20000000019,true,NA,NA,NA,NA,NA
ArR8MCjh,3mdwe879vkfdd3966pwqlqs2jwg9bh,3napmvf0z0shyrjbz1axvlukwiq270,ArR8MCjh,2020-0188,2021-10-14,10:21:51,11:34:30,NA,incomplete,false,true,NA,6,7,NA,purple,n_l_066.jpg,NA,NA,pleasant,unpleasant,NA,NA,NA,NA,NA,left,2018.20000000019,true,NA,NA,NA,NA,NA
ArR8MCjh,3mdwe879vkfdd3966pwqlqs2jwg9bh,3napmvf0z0shyrjbz1axvlukwiq270,ArR8MCjh,2020-0188,2021-10-14,10:21:51,11:34:30,NA,incomplete,false,true,NA,6,8,NA,purple,m_l_103.jpg,NA,NA,unpleasant,pleasant,NA,NA,NA,NA,NA,right,1689.70000000019,true,NA,NA,NA,NA,NA
ArR8MCjh,3mdwe879vkfdd3966pwqlqs2jwg9bh,3napmvf0z0shyrjbz1axvlukwiq270,ArR8MCjh,2020-0188,2021-10-14,10:21:51,11:34:30,NA,incomplete,false,true,NA,6,9,NA,purple,m_l_050.jpg,NA,NA,unpleasant,pleasant,NA,NA,NA,NA,NA,right,1526.60000000056,true,NA,NA,NA,NA,NA
ArR8MCjh,3mdwe879vkfdd3966pwqlqs2jwg9bh,3napmvf0z0shyrjbz1axvlukwiq270,ArR8MCjh,2020-0188,2021-10-14,10:21:51,11:34:30,NA,incomplete,false,true,NA,6,10,NA,purple,n_s_055.jpg,NA,NA,pleasant,unpleasant,NA,NA,NA,NA,NA,left,1879.70000000019,true,NA,NA,NA,NA,NA
ArR8MCjh,3mdwe879vkfdd3966pwqlqs2jwg9bh,3napmvf0z0shyrjbz1axvlukwiq270,ArR8MCjh,2020-0188,2021-10-14,10:21:51,11:34:30,NA,incomplete,false,true,NA,6,11,NA,purple,m_l_093.jpg,NA,NA,unpleasant,pleasant,NA,NA,NA,NA,NA,right,2171.10000000056,true,NA,NA,NA,NA,NA
ArR8MCjh,3mdwe879vkfdd3966pwqlqs2jwg9bh,3napmvf0z0shyrjbz1axvlukwiq270,ArR8MCjh,2020-0188,2021-10-14,10:21:51,11:34:30,NA,incomplete,false,true,NA,6,12,NA,gray,m_s_039.jpg,NA,NA,pleasant,unpleasant,NA,NA,NA,NA,NA,left,1840.29999999981,true,NA,NA,NA,NA,NA
ArR8MCjh,3mdwe879vkfdd3966pwqlqs2jwg9bh,3napmvf0z0shyrjbz1axvlukwiq270,ArR8MCjh,2020-0188,2021-10-14,10:21:51,11:34:30,NA,incomplete,false,true,NA,6,13,NA,gray,n_l_036.jpg,NA,NA,pleasant,unpleasant,NA,NA,NA,NA,NA,left,1534,true,NA,NA,NA,NA,NA
ArR8MCjh,3mdwe879vkfdd3966pwqlqs2jwg9bh,3napmvf0z0shyrjbz1axvlukwiq270,ArR8MCjh,2020-0188,2021-10-14,10:21:51,11:34:30,NA,incomplete,false,true,NA,6,14,NA,gray,m_s_013.jpg,NA,NA,unpleasant,pleasant,NA,NA,NA,NA,NA,right,1526.69999999925,true,NA,NA,NA,NA,NA
ArR8MCjh,3mdwe879vkfdd3966pwqlqs2jwg9bh,3napmvf0z0shyrjbz1axvlukwiq270,ArR8MCjh,2020-0188,2021-10-14,10:21:51,11:34:30,NA,incomplete,false,true,NA,6,15,NA,gray,m_s_015.jpg,NA,NA,pleasant,unpleasant,NA,NA,NA,NA,NA,left,1451.79999999981,true,NA,NA,NA,NA,NA
ArR8MCjh,3mdwe879vkfdd3966pwqlqs2jwg9bh,3napmvf0z0shyrjbz1axvlukwiq270,ArR8MCjh,2020-0188,2021-10-14,10:21:51,11:34:30,NA,incomplete,false,true,NA,6,16,NA,gray,n_l_082.jpg,NA,NA,unpleasant,pleasant,NA,NA,NA,NA,NA,right,1287.40000000037,true,NA,NA,NA,NA,NA
ArR8MCjh,3mdwe879vkfdd3966pwqlqs2jwg9bh,3napmvf0z0shyrjbz1axvlukwiq270,ArR8MCjh,2020-0188,2021-10-14,10:21:51,11:34:30,NA,incomplete,false,true,NA,6,17,NA,gray,n_l_117.jpg,NA,NA,unpleasant,pleasant,NA,NA,NA,NA,NA,right,1430.70000000019,true,NA,NA,NA,NA,NA
ArR8MCjh,3mdwe879vkfdd3966pwqlqs2jwg9bh,3napmvf0z0shyrjbz1axvlukwiq270,ArR8MCjh,2020-0188,2021-10-14,10:21:51,11:34:30,NA,incomplete,false,true,NA,6,18,NA,red,m_s_095.jpg,NA,NA,unpleasant,pleasant,NA,NA,NA,NA,NA,right,1594.79999999981,true,NA,NA,NA,NA,NA
ArR8MCjh,3mdwe879vkfdd3966pwqlqs2jwg9bh,3napmvf0z0shyrjbz1axvlukwiq270,ArR8MCjh,2020-0188,2021-10-14,10:21:51,11:34:30,NA,incomplete,false,true,NA,6,19,NA,red,m_l_038.jpg,NA,NA,pleasant,unpleasant,NA,NA,NA,NA,NA,right,1566.20000000019,true,NA,NA,NA,NA,NA
ArR8MCjh,3mdwe879vkfdd3966pwqlqs2jwg9bh,3napmvf0z0shyrjbz1axvlukwiq270,ArR8MCjh,2020-0188,2021-10-14,10:21:51,11:34:30,NA,incomplete,false,true,NA,6,20,NA,red,n_s_058.jpg,NA,NA,unpleasant,pleasant,NA,NA,NA,NA,NA,right,1698.90000000037,true,NA,NA,NA,NA,NA
ArR8MCjh,3mdwe879vkfdd3966pwqlqs2jwg9bh,3napmvf0z0shyrjbz1axvlukwiq270,ArR8MCjh,2020-0188,2021-10-14,10:21:51,11:34:30,NA,incomplete,false,true,NA,6,21,NA,red,m_l_082.jpg,NA,NA,pleasant,unpleasant,NA,NA,NA,NA,NA,right,2586.09999999963,true,NA,NA,NA,NA,NA
ArR8MCjh,3mdwe879vkfdd3966pwqlqs2jwg9bh,3napmvf0z0shyrjbz1axvlukwiq270,ArR8MCjh,2020-0188,2021-10-14,10:21:51,11:34:30,NA,incomplete,false,true,NA,6,22,NA,red,n_l_106.jpg,NA,NA,unpleasant,pleasant,NA,NA,NA,NA,NA,right,2029.70000000019,true,NA,NA,NA,NA,NA
ArR8MCjh,3mdwe879vkfdd3966pwqlqs2jwg9bh,3napmvf0z0shyrjbz1axvlukwiq270,ArR8MCjh,2020-0188,2021-10-14,10:21:51,11:34:30,NA,incomplete,false,true,NA,6,23,NA,red,n_s_057.jpg,NA,NA,pleasant,unpleasant,NA,NA,NA,NA,NA,right,1698.90000000037,true,NA,NA,NA,NA,NA
ArR8MCjh,3mdwe879vkfdd3966pwqlqs2jwg9bh,3napmvf0z0shyrjbz1axvlukwiq270,ArR8MCjh,2020-0188,2021-10-14,10:21:51,11:34:30,NA,incomplete,false,true,NA,6,24,NA,brown,n_l_034.jpg,NA,NA,pleasant,unpleasant,NA,NA,NA,NA,NA,left,2352.59999999963,true,NA,NA,NA,NA,NA
ArR8MCjh,3mdwe879vkfdd3966pwqlqs2jwg9bh,3napmvf0z0shyrjbz1axvlukwiq270,ArR8MCjh,2020-0188,2021-10-14,10:21:51,11:34:30,NA,incomplete,false,true,NA,6,25,NA,brown,m_s_097.jpg,NA,NA,unpleasant,pleasant,NA,NA,NA,NA,NA,right,1747.5,true,NA,NA,NA,NA,NA
ArR8MCjh,3mdwe879vkfdd3966pwqlqs2jwg9bh,3napmvf0z0shyrjbz1axvlukwiq270,ArR8MCjh,2020-0188,2021-10-14,10:21:51,11:34:30,NA,incomplete,false,true,NA,6,26,NA,brown,n_l_061.jpg,NA,NA,pleasant,unpleasant,NA,NA,NA,NA,NA,left,1944.40000000037,true,NA,NA,NA,NA,NA
ArR8MCjh,3mdwe879vkfdd3966pwqlqs2jwg9bh,3napmvf0z0shyrjbz1axvlukwiq270,ArR8MCjh,2020-0188,2021-10-14,10:21:51,11:34:30,NA,incomplete,false,true,NA,6,27,NA,brown,m_l_058.jpg,NA,NA,pleasant,unpleasant,NA,NA,NA,NA,NA,left,1312.40000000037,true,NA,NA,NA,NA,NA
ArR8MCjh,3mdwe879vkfdd3966pwqlqs2jwg9bh,3napmvf0z0shyrjbz1axvlukwiq270,ArR8MCjh,2020-0188,2021-10-14,10:21:51,11:34:30,NA,incomplete,false,true,NA,6,28,NA,brown,n_l_098.jpg,NA,NA,pleasant,unpleasant,NA,NA,NA,NA,NA,left,1249.79999999981,true,NA,NA,NA,NA,NA
ArR8MCjh,3mdwe879vkfdd3966pwqlqs2jwg9bh,3napmvf0z0shyrjbz1axvlukwiq270,ArR8MCjh,2020-0188,2021-10-14,10:21:51,11:34:30,NA,incomplete,false,true,NA,6,29,NA,brown,n_s_060.jpg,NA,NA,pleasant,unpleasant,NA,NA,NA,NA,NA,left,1520.89999999944,true,NA,NA,NA,NA,NA
ArR8MCjh,3mdwe879vkfdd3966pwqlqs2jwg9bh,3napmvf0z0shyrjbz1axvlukwiq270,ArR8MCjh,2020-0188,2021-10-14,10:21:51,11:34:30,NA,incomplete,false,true,NA,6,30,NA,black,n_l_108.jpg,NA,NA,unpleasant,pleasant,NA,NA,NA,NA,NA,right,1443.79999999981,true,NA,NA,NA,NA,NA
ArR8MCjh,3mdwe879vkfdd3966pwqlqs2jwg9bh,3napmvf0z0shyrjbz1axvlukwiq270,ArR8MCjh,2020-0188,2021-10-14,10:21:51,11:34:30,NA,incomplete,false,true,NA,6,31,NA,black,m_l_099.jpg,NA,NA,pleasant,unpleasant,NA,NA,NA,NA,NA,left,2185.80000000075,true,NA,NA,NA,NA,NA
ArR8MCjh,3mdwe879vkfdd3966pwqlqs2jwg9bh,3napmvf0z0shyrjbz1axvlukwiq270,ArR8MCjh,2020-0188,2021-10-14,10:21:51,11:34:30,NA,incomplete,false,true,NA,6,32,NA,black,m_l_089.jpg,NA,NA,unpleasant,pleasant,NA,NA,NA,NA,NA,right,1570.39999999944,true,NA,NA,NA,NA,NA
ArR8MCjh,3mdwe879vkfdd3966pwqlqs2jwg9bh,3napmvf0z0shyrjbz1axvlukwiq270,ArR8MCjh,2020-0188,2021-10-14,10:21:51,11:34:30,NA,incomplete,false,true,NA,6,33,NA,black,m_l_071.jpg,NA,NA,pleasant,unpleasant,NA,NA,NA,NA,NA,left,1506.69999999925,true,NA,NA,NA,NA,NA
ArR8MCjh,3mdwe879vkfdd3966pwqlqs2jwg9bh,3napmvf0z0shyrjbz1axvlukwiq270,ArR8MCjh,2020-0188,2021-10-14,10:21:51,11:34:30,NA,incomplete,false,true,NA,6,34,NA,black,n_s_117.jpg,NA,NA,unpleasant,pleasant,NA,NA,NA,NA,NA,left,1446.29999999981,true,NA,NA,NA,NA,NA
ArR8MCjh,3mdwe879vkfdd3966pwqlqs2jwg9bh,3napmvf0z0shyrjbz1axvlukwiq270,ArR8MCjh,2020-0188,2021-10-14,10:21:51,11:34:30,NA,incomplete,false,true,NA,6,35,NA,black,n_s_074.jpg,NA,NA,unpleasant,pleasant,NA,NA,NA,NA,NA,right,2116.09999999963,true,NA,NA,NA,NA,NA
ArR8MCjh,3mdwe879vkfdd3966pwqlqs2jwg9bh,3napmvf0z0shyrjbz1axvlukwiq270,ArR8MCjh,2020-0188,2021-10-14,10:21:51,11:34:30,NA,incomplete,false,NA,true,6,0,NA,NA,NA,left,present,NA,NA,n_l_036.jpg,gray,n_l_117.jpg,gray,within,NA,NaN,NA,right,3486.2000000001863,0,1,2079.7000000001863
ArR8MCjh,3mdwe879vkfdd3966pwqlqs2jwg9bh,3napmvf0z0shyrjbz1axvlukwiq270,ArR8MCjh,2020-0188,2021-10-14,10:21:51,11:34:30,NA,incomplete,false,NA,true,6,1,NA,NA,NA,right,present,NA,NA,m_l_089.jpg,black,n_l_098.jpg,brown,between,NA,NaN,NA,right,1802.7999999998137,1,3,2517.7000000001863
ArR8MCjh,3mdwe879vkfdd3966pwqlqs2jwg9bh,3napmvf0z0shyrjbz1axvlukwiq270,ArR8MCjh,2020-0188,2021-10-14,10:21:51,11:34:30,NA,incomplete,false,NA,true,6,2,NA,NA,NA,left,present,NA,NA,m_s_097.jpg,brown,n_s_060.jpg,brown,within,NA,NaN,NA,left,2969.5999999996275,1,1,1544.0999999996275
ArR8MCjh,3mdwe879vkfdd3966pwqlqs2jwg9bh,3napmvf0z0shyrjbz1axvlukwiq270,ArR8MCjh,2020-0188,2021-10-14,10:21:51,11:34:30,NA,incomplete,false,NA,true,6,3,NA,NA,NA,right,present,NA,NA,m_s_102.jpg,blue,n_l_008.jpg,blue,within,NA,NaN,NA,left,12223.200000000186,0,1,1157.0999999996275
ArR8MCjh,3mdwe879vkfdd3966pwqlqs2jwg9bh,3napmvf0z0shyrjbz1axvlukwiq270,ArR8MCjh,2020-0188,2021-10-14,10:21:51,11:34:30,NA,incomplete,false,NA,true,6,4,NA,NA,NA,right,present,NA,NA,n_s_057.jpg,red,m_l_038.jpg,red,within,NA,NaN,NA,left,5356.799999999814,0,2,1491.4000000003725
ArR8MCjh,3mdwe879vkfdd3966pwqlqs2jwg9bh,3napmvf0z0shyrjbz1axvlukwiq270,ArR8MCjh,2020-0188,2021-10-14,10:21:51,11:34:30,NA,incomplete,false,NA,true,6,5,NA,NA,NA,right,present,NA,NA,n_l_061.jpg,brown,n_l_106.jpg,red,between,NA,NaN,NA,left,6237.700000000186,0,2,1980.7000000001863
ArR8MCjh,3mdwe879vkfdd3966pwqlqs2jwg9bh,3napmvf0z0shyrjbz1axvlukwiq270,ArR8MCjh,2020-0188,2021-10-14,10:21:51,11:34:30,NA,incomplete,false,NA,true,6,6,NA,NA,NA,left,present,NA,NA,n_s_055.jpg,purple,m_s_013.jpg,gray,between,NA,NaN,NA,left,4485.5,1,2,2274.4000000003725
ArR8MCjh,3mdwe879vkfdd3966pwqlqs2jwg9bh,3napmvf0z0shyrjbz1axvlukwiq270,ArR8MCjh,2020-0188,2021-10-14,10:21:51,11:34:30,NA,incomplete,false,NA,true,6,7,NA,NA,NA,left,present,NA,NA,n_l_066.jpg,purple,m_l_093.jpg,purple,within,NA,NaN,NA,right,5414.799999999814,0,2,2278.0999999996275
ArR8MCjh,3mdwe879vkfdd3966pwqlqs2jwg9bh,3napmvf0z0shyrjbz1axvlukwiq270,ArR8MCjh,2020-0188,2021-10-14,10:21:51,11:34:30,NA,incomplete,false,NA,true,6,8,NA,NA,NA,right,present,NA,NA,m_l_103.jpg,purple,m_s_096.jpg,blue,between,NA,NaN,NA,right,2844.5999999996275,1,2,1870.0999999996275
ArR8MCjh,3mdwe879vkfdd3966pwqlqs2jwg9bh,3napmvf0z0shyrjbz1axvlukwiq270,ArR8MCjh,2020-0188,2021-10-14,10:21:51,11:34:30,NA,incomplete,false,NA,true,6,9,NA,NA,NA,left,present,NA,NA,m_l_099.jpg,black,n_s_074.jpg,black,within,NA,NaN,NA,right,7638.799999999814,0,1,3676.5
ArR8MCjh,3mdwe879vkfdd3966pwqlqs2jwg9bh,3napmvf0z0shyrjbz1axvlukwiq270,ArR8MCjh,2020-0188,2021-10-14,10:21:51,11:34:30,NA,incomplete,false,NA,true,6,10,NA,NA,NA,right,present,NA,NA,n_s_058.jpg,red,n_l_082.jpg,gray,between,NA,NaN,NA,left,2402.100000000559,0,1,1955.5
ArR8MCjh,3mdwe879vkfdd3966pwqlqs2jwg9bh,3napmvf0z0shyrjbz1axvlukwiq270,ArR8MCjh,2020-0188,2021-10-14,10:21:51,11:34:30,NA,incomplete,false,true,NA,7,0,NA,red,n_l_081.jpg,NA,NA,pleasant,unpleasant,NA,NA,NA,NA,NA,none,0,false,NA,NA,NA,NA,NA
ArR8MCjh,3mdwe879vkfdd3966pwqlqs2jwg9bh,3napmvf0z0shyrjbz1axvlukwiq270,ArR8MCjh,2020-0188,2021-10-14,10:21:51,11:34:30,NA,incomplete,false,true,NA,7,1,NA,red,m_s_052.jpg,NA,NA,unpleasant,pleasant,NA,NA,NA,NA,NA,none,0,false,NA,NA,NA,NA,NA
ArR8MCjh,3mdwe879vkfdd3966pwqlqs2jwg9bh,3napmvf0z0shyrjbz1axvlukwiq270,ArR8MCjh,2020-0188,2021-10-14,10:21:51,11:34:30,NA,incomplete,false,true,NA,7,2,NA,red,m_l_020.jpg,NA,NA,pleasant,unpleasant,NA,NA,NA,NA,NA,left,1708.40000000037,true,NA,NA,NA,NA,NA
ArR8MCjh,3mdwe879vkfdd3966pwqlqs2jwg9bh,3napmvf0z0shyrjbz1axvlukwiq270,ArR8MCjh,2020-0188,2021-10-14,10:21:51,11:34:30,NA,incomplete,false,true,NA,7,3,NA,red,n_l_065.jpg,NA,NA,pleasant,unpleasant,NA,NA,NA,NA,NA,left,1192.60000000056,true,NA,NA,NA,NA,NA
ArR8MCjh,3mdwe879vkfdd3966pwqlqs2jwg9bh,3napmvf0z0shyrjbz1axvlukwiq270,ArR8MCjh,2020-0188,2021-10-14,10:21:51,11:34:30,NA,incomplete,false,true,NA,7,4,NA,red,n_s_098.jpg,NA,NA,pleasant,unpleasant,NA,NA,NA,NA,NA,left,1268.70000000019,true,NA,NA,NA,NA,NA
ArR8MCjh,3mdwe879vkfdd3966pwqlqs2jwg9bh,3napmvf0z0shyrjbz1axvlukwiq270,ArR8MCjh,2020-0188,2021-10-14,10:21:51,11:34:30,NA,incomplete,false,true,NA,7,5,NA,red,n_s_095.jpg,NA,NA,unpleasant,pleasant,NA,NA,NA,NA,NA,right,1218.70000000019,true,NA,NA,NA,NA,NA
ArR8MCjh,3mdwe879vkfdd3966pwqlqs2jwg9bh,3napmvf0z0shyrjbz1axvlukwiq270,ArR8MCjh,2020-0188,2021-10-14,10:21:51,11:34:30,NA,incomplete,false,true,NA,7,6,NA,gray,n_s_024.jpg,NA,NA,pleasant,unpleasant,NA,NA,NA,NA,NA,left,1255,true,NA,NA,NA,NA,NA
ArR8MCjh,3mdwe879vkfdd3966pwqlqs2jwg9bh,3napmvf0z0shyrjbz1axvlukwiq270,ArR8MCjh,2020-0188,2021-10-14,10:21:51,11:34:30,NA,incomplete,false,true,NA,7,7,NA,gray,n_l_020.jpg,NA,NA,unpleasant,pleasant,NA,NA,NA,NA,NA,right,1197.20000000019,true,NA,NA,NA,NA,NA
ArR8MCjh,3mdwe879vkfdd3966pwqlqs2jwg9bh,3napmvf0z0shyrjbz1axvlukwiq270,ArR8MCjh,2020-0188,2021-10-14,10:21:51,11:34:30,NA,incomplete,false,true,NA,7,8,NA,gray,m_l_040.jpg,NA,NA,unpleasant,pleasant,NA,NA,NA,NA,NA,right,2084.40000000037,true,NA,NA,NA,NA,NA
ArR8MCjh,3mdwe879vkfdd3966pwqlqs2jwg9bh,3napmvf0z0shyrjbz1axvlukwiq270,ArR8MCjh,2020-0188,2021-10-14,10:21:51,11:34:30,NA,incomplete,false,true,NA,7,9,NA,gray,m_s_038.jpg,NA,NA,pleasant,unpleasant,NA,NA,NA,NA,NA,left,1392.20000000019,true,NA,NA,NA,NA,NA
ArR8MCjh,3mdwe879vkfdd3966pwqlqs2jwg9bh,3napmvf0z0shyrjbz1axvlukwiq270,ArR8MCjh,2020-0188,2021-10-14,10:21:51,11:34:30,NA,incomplete,false,true,NA,7,10,NA,gray,n_l_038.jpg,NA,NA,pleasant,unpleasant,NA,NA,NA,NA,NA,left,1319.39999999944,true,NA,NA,NA,NA,NA
ArR8MCjh,3mdwe879vkfdd3966pwqlqs2jwg9bh,3napmvf0z0shyrjbz1axvlukwiq270,ArR8MCjh,2020-0188,2021-10-14,10:21:51,11:34:30,NA,incomplete,false,true,NA,7,11,NA,gray,m_l_077.jpg,NA,NA,pleasant,unpleasant,NA,NA,NA,NA,NA,left,1266.40000000037,true,NA,NA,NA,NA,NA
ArR8MCjh,3mdwe879vkfdd3966pwqlqs2jwg9bh,3napmvf0z0shyrjbz1axvlukwiq270,ArR8MCjh,2020-0188,2021-10-14,10:21:51,11:34:30,NA,incomplete,false,true,NA,7,12,NA,orange,n_s_075.jpg,NA,NA,pleasant,unpleasant,NA,NA,NA,NA,NA,left,1947.20000000019,true,NA,NA,NA,NA,NA
ArR8MCjh,3mdwe879vkfdd3966pwqlqs2jwg9bh,3napmvf0z0shyrjbz1axvlukwiq270,ArR8MCjh,2020-0188,2021-10-14,10:21:51,11:34:30,NA,incomplete,false,true,NA,7,13,NA,orange,m_l_023.jpg,NA,NA,unpleasant,pleasant,NA,NA,NA,NA,NA,right,1517.69999999925,true,NA,NA,NA,NA,NA
ArR8MCjh,3mdwe879vkfdd3966pwqlqs2jwg9bh,3napmvf0z0shyrjbz1axvlukwiq270,ArR8MCjh,2020-0188,2021-10-14,10:21:51,11:34:30,NA,incomplete,false,true,NA,7,14,NA,orange,n_s_052.jpg,NA,NA,pleasant,unpleasant,NA,NA,NA,NA,NA,left,2592.69999999925,true,NA,NA,NA,NA,NA
ArR8MCjh,3mdwe879vkfdd3966pwqlqs2jwg9bh,3napmvf0z0shyrjbz1axvlukwiq270,ArR8MCjh,2020-0188,2021-10-14,10:21:51,11:34:30,NA,incomplete,false,true,NA,7,15,NA,orange,m_l_105.jpg,NA,NA,unpleasant,pleasant,NA,NA,NA,NA,NA,right,1950,true,NA,NA,NA,NA,NA
ArR8MCjh,3mdwe879vkfdd3966pwqlqs2jwg9bh,3napmvf0z0shyrjbz1axvlukwiq270,ArR8MCjh,2020-0188,2021-10-14,10:21:51,11:34:30,NA,incomplete,false,true,NA,7,16,NA,orange,m_l_014.jpg,NA,NA,unpleasant,pleasant,NA,NA,NA,NA,NA,right,1921.90000000037,true,NA,NA,NA,NA,NA
ArR8MCjh,3mdwe879vkfdd3966pwqlqs2jwg9bh,3napmvf0z0shyrjbz1axvlukwiq270,ArR8MCjh,2020-0188,2021-10-14,10:21:51,11:34:30,NA,incomplete,false,true,NA,7,17,NA,orange,m_l_065.jpg,NA,NA,pleasant,unpleasant,NA,NA,NA,NA,NA,left,1865.09999999963,true,NA,NA,NA,NA,NA
ArR8MCjh,3mdwe879vkfdd3966pwqlqs2jwg9bh,3napmvf0z0shyrjbz1axvlukwiq270,ArR8MCjh,2020-0188,2021-10-14,10:21:51,11:34:30,NA,incomplete,false,true,NA,7,18,NA,white,m_s_003.jpg,NA,NA,pleasant,unpleasant,NA,NA,NA,NA,NA,left,2811.79999999981,true,NA,NA,NA,NA,NA
ArR8MCjh,3mdwe879vkfdd3966pwqlqs2jwg9bh,3napmvf0z0shyrjbz1axvlukwiq270,ArR8MCjh,2020-0188,2021-10-14,10:21:51,11:34:30,NA,incomplete,false,true,NA,7,19,NA,white,n_l_031.jpg,NA,NA,unpleasant,pleasant,NA,NA,NA,NA,NA,right,1257.40000000037,true,NA,NA,NA,NA,NA
ArR8MCjh,3mdwe879vkfdd3966pwqlqs2jwg9bh,3napmvf0z0shyrjbz1axvlukwiq270,ArR8MCjh,2020-0188,2021-10-14,10:21:51,11:34:30,NA,incomplete,false,true,NA,7,20,NA,white,m_l_034.jpg,NA,NA,pleasant,unpleasant,NA,NA,NA,NA,NA,left,2135.09999999963,true,NA,NA,NA,NA,NA
ArR8MCjh,3mdwe879vkfdd3966pwqlqs2jwg9bh,3napmvf0z0shyrjbz1axvlukwiq270,ArR8MCjh,2020-0188,2021-10-14,10:21:51,11:34:30,NA,incomplete,false,true,NA,7,21,NA,white,m_s_093.jpg,NA,NA,unpleasant,pleasant,NA,NA,NA,NA,NA,right,1541.90000000037,true,NA,NA,NA,NA,NA
ArR8MCjh,3mdwe879vkfdd3966pwqlqs2jwg9bh,3napmvf0z0shyrjbz1axvlukwiq270,ArR8MCjh,2020-0188,2021-10-14,10:21:51,11:34:30,NA,incomplete,false,true,NA,7,22,NA,white,n_l_016.jpg,NA,NA,unpleasant,pleasant,NA,NA,NA,NA,NA,right,1396.20000000019,true,NA,NA,NA,NA,NA
ArR8MCjh,3mdwe879vkfdd3966pwqlqs2jwg9bh,3napmvf0z0shyrjbz1axvlukwiq270,ArR8MCjh,2020-0188,2021-10-14,10:21:51,11:34:30,NA,incomplete,false,true,NA,7,23,NA,white,n_s_003.jpg,NA,NA,pleasant,unpleasant,NA,NA,NA,NA,NA,left,1821.29999999981,true,NA,NA,NA,NA,NA
ArR8MCjh,3mdwe879vkfdd3966pwqlqs2jwg9bh,3napmvf0z0shyrjbz1axvlukwiq270,ArR8MCjh,2020-0188,2021-10-14,10:21:51,11:34:30,NA,incomplete,false,true,NA,7,24,NA,green,m_l_108.jpg,NA,NA,pleasant,unpleasant,NA,NA,NA,NA,NA,left,1708.70000000019,true,NA,NA,NA,NA,NA
ArR8MCjh,3mdwe879vkfdd3966pwqlqs2jwg9bh,3napmvf0z0shyrjbz1axvlukwiq270,ArR8MCjh,2020-0188,2021-10-14,10:21:51,11:34:30,NA,incomplete,false,true,NA,7,25,NA,green,n_s_065.jpg,NA,NA,pleasant,unpleasant,NA,NA,NA,NA,NA,left,1447.79999999981,true,NA,NA,NA,NA,NA
ArR8MCjh,3mdwe879vkfdd3966pwqlqs2jwg9bh,3napmvf0z0shyrjbz1axvlukwiq270,ArR8MCjh,2020-0188,2021-10-14,10:21:51,11:34:30,NA,incomplete,false,true,NA,7,26,NA,green,m_l_022.jpg,NA,NA,pleasant,unpleasant,NA,NA,NA,NA,NA,left,1323.29999999981,true,NA,NA,NA,NA,NA
ArR8MCjh,3mdwe879vkfdd3966pwqlqs2jwg9bh,3napmvf0z0shyrjbz1axvlukwiq270,ArR8MCjh,2020-0188,2021-10-14,10:21:51,11:34:30,NA,incomplete,false,true,NA,7,27,NA,green,m_l_111.jpg,NA,NA,pleasant,unpleasant,NA,NA,NA,NA,NA,left,2265.29999999981,true,NA,NA,NA,NA,NA
ArR8MCjh,3mdwe879vkfdd3966pwqlqs2jwg9bh,3napmvf0z0shyrjbz1axvlukwiq270,ArR8MCjh,2020-0188,2021-10-14,10:21:51,11:34:30,NA,incomplete,false,true,NA,7,28,NA,green,n_l_092.jpg,NA,NA,unpleasant,pleasant,NA,NA,NA,NA,NA,right,1628.70000000019,true,NA,NA,NA,NA,NA
ArR8MCjh,3mdwe879vkfdd3966pwqlqs2jwg9bh,3napmvf0z0shyrjbz1axvlukwiq270,ArR8MCjh,2020-0188,2021-10-14,10:21:51,11:34:30,NA,incomplete,false,true,NA,7,29,NA,green,n_s_093.jpg,NA,NA,unpleasant,pleasant,NA,NA,NA,NA,NA,left,2525.09999999963,true,NA,NA,NA,NA,NA
ArR8MCjh,3mdwe879vkfdd3966pwqlqs2jwg9bh,3napmvf0z0shyrjbz1axvlukwiq270,ArR8MCjh,2020-0188,2021-10-14,10:21:51,11:34:30,NA,incomplete,false,true,NA,7,30,NA,yellow,m_s_050.jpg,NA,NA,unpleasant,pleasant,NA,NA,NA,NA,NA,right,2147.30000000075,true,NA,NA,NA,NA,NA
ArR8MCjh,3mdwe879vkfdd3966pwqlqs2jwg9bh,3napmvf0z0shyrjbz1axvlukwiq270,ArR8MCjh,2020-0188,2021-10-14,10:21:51,11:34:30,NA,incomplete,false,true,NA,7,31,NA,yellow,m_l_110.jpg,NA,NA,unpleasant,pleasant,NA,NA,NA,NA,NA,right,1520.79999999981,true,NA,NA,NA,NA,NA
ArR8MCjh,3mdwe879vkfdd3966pwqlqs2jwg9bh,3napmvf0z0shyrjbz1axvlukwiq270,ArR8MCjh,2020-0188,2021-10-14,10:21:51,11:34:30,NA,incomplete,false,true,NA,7,32,NA,yellow,m_l_086.jpg,NA,NA,unpleasant,pleasant,NA,NA,NA,NA,NA,right,2445.70000000019,true,NA,NA,NA,NA,NA
ArR8MCjh,3mdwe879vkfdd3966pwqlqs2jwg9bh,3napmvf0z0shyrjbz1axvlukwiq270,ArR8MCjh,2020-0188,2021-10-14,10:21:51,11:34:30,NA,incomplete,false,true,NA,7,33,NA,yellow,m_l_063.jpg,NA,NA,pleasant,unpleasant,NA,NA,NA,NA,NA,left,1664.70000000019,true,NA,NA,NA,NA,NA
ArR8MCjh,3mdwe879vkfdd3966pwqlqs2jwg9bh,3napmvf0z0shyrjbz1axvlukwiq270,ArR8MCjh,2020-0188,2021-10-14,10:21:51,11:34:30,NA,incomplete,false,true,NA,7,34,NA,yellow,m_l_052.jpg,NA,NA,pleasant,unpleasant,NA,NA,NA,NA,NA,left,1304.20000000019,true,NA,NA,NA,NA,NA
ArR8MCjh,3mdwe879vkfdd3966pwqlqs2jwg9bh,3napmvf0z0shyrjbz1axvlukwiq270,ArR8MCjh,2020-0188,2021-10-14,10:21:51,11:34:30,NA,incomplete,false,true,NA,7,35,NA,yellow,m_l_028.jpg,NA,NA,unpleasant,pleasant,NA,NA,NA,NA,NA,right,1717.29999999981,true,NA,NA,NA,NA,NA
ArR8MCjh,3mdwe879vkfdd3966pwqlqs2jwg9bh,3napmvf0z0shyrjbz1axvlukwiq270,ArR8MCjh,2020-0188,2021-10-14,10:21:51,11:34:30,NA,incomplete,false,NA,true,7,0,NA,NA,NA,left,absent,NA,NA,n_s_098.jpg,red,m_l_040.jpg,gray,between,NA,NaN,NA,right,3155.4000000003725,0,1,1703.7000000001863
ArR8MCjh,3mdwe879vkfdd3966pwqlqs2jwg9bh,3napmvf0z0shyrjbz1axvlukwiq270,ArR8MCjh,2020-0188,2021-10-14,10:21:51,11:34:30,NA,incomplete,false,NA,true,7,1,NA,NA,NA,left,absent,NA,NA,n_l_092.jpg,green,m_l_086.jpg,yellow,between,NA,NaN,NA,left,2985.399999999441,1,1,1444.5
ArR8MCjh,3mdwe879vkfdd3966pwqlqs2jwg9bh,3napmvf0z0shyrjbz1axvlukwiq270,ArR8MCjh,2020-0188,2021-10-14,10:21:51,11:34:30,NA,incomplete,false,NA,true,7,2,NA,NA,NA,left,absent,NA,NA,n_s_065.jpg,green,n_s_093.jpg,green,within,NA,NaN,NA,left,2092.7000000001863,1,2,1755.1000000005588
ArR8MCjh,3mdwe879vkfdd3966pwqlqs2jwg9bh,3napmvf0z0shyrjbz1axvlukwiq270,ArR8MCjh,2020-0188,2021-10-14,10:21:51,11:34:30,NA,incomplete,false,NA,true,7,3,NA,NA,NA,right,absent,NA,NA,m_l_028.jpg,yellow,m_l_110.jpg,yellow,within,NA,NaN,NA,right,4607.4000000003725,1,0,2502.7999999998137
ArR8MCjh,3mdwe879vkfdd3966pwqlqs2jwg9bh,3napmvf0z0shyrjbz1axvlukwiq270,ArR8MCjh,2020-0188,2021-10-14,10:21:51,11:34:30,NA,incomplete,false,NA,true,7,4,NA,NA,NA,right,absent,NA,NA,m_l_065.jpg,orange,m_l_023.jpg,orange,within,NA,NaN,NA,left,2019.5,0,1,2236.7999999998137
ArR8MCjh,3mdwe879vkfdd3966pwqlqs2jwg9bh,3napmvf0z0shyrjbz1axvlukwiq270,ArR8MCjh,2020-0188,2021-10-14,10:21:51,11:34:30,NA,incomplete,false,NA,true,7,5,NA,NA,NA,left,absent,NA,NA,n_l_038.jpg,gray,n_s_052.jpg,orange,between,NA,NaN,NA,left,2339.5,1,1,1740
ArR8MCjh,3mdwe879vkfdd3966pwqlqs2jwg9bh,3napmvf0z0shyrjbz1axvlukwiq270,ArR8MCjh,2020-0188,2021-10-14,10:21:51,11:34:30,NA,incomplete,false,NA,true,7,6,NA,NA,NA,right,absent,NA,NA,m_l_077.jpg,gray,n_l_020.jpg,gray,within,NA,NaN,NA,left,5445,0,2,1372.9000000003725
ArR8MCjh,3mdwe879vkfdd3966pwqlqs2jwg9bh,3napmvf0z0shyrjbz1axvlukwiq270,ArR8MCjh,2020-0188,2021-10-14,10:21:51,11:34:30,NA,incomplete,false,NA,true,7,7,NA,NA,NA,right,absent,NA,NA,n_s_003.jpg,white,n_l_031.jpg,white,within,NA,NaN,NA,right,4349.9000000003725,1,1,2223.7000000001863
ArR8MCjh,3mdwe879vkfdd3966pwqlqs2jwg9bh,3napmvf0z0shyrjbz1axvlukwiq270,ArR8MCjh,2020-0188,2021-10-14,10:21:51,11:34:30,NA,incomplete,false,NA,true,7,8,NA,NA,NA,right,absent,NA,NA,n_s_095.jpg,red,m_s_052.jpg,red,within,NA,NaN,NA,right,3264.600000000559,1,2,2775
ArR8MCjh,3mdwe879vkfdd3966pwqlqs2jwg9bh,3napmvf0z0shyrjbz1axvlukwiq270,ArR8MCjh,2020-0188,2021-10-14,10:21:51,11:34:30,NA,incomplete,false,NA,true,7,9,NA,NA,NA,right,absent,NA,NA,m_l_022.jpg,green,n_l_016.jpg,white,between,NA,NaN,NA,right,2378.4000000003725,1,2,1298.5
ArR8MCjh,3mdwe879vkfdd3966pwqlqs2jwg9bh,3napmvf0z0shyrjbz1axvlukwiq270,ArR8MCjh,2020-0188,2021-10-14,10:21:51,11:34:30,NA,incomplete,false,NA,true,7,10,NA,NA,NA,right,absent,NA,NA,m_l_034.jpg,white,m_l_014.jpg,orange,between,NA,NaN,NA,right,2074.4000000003725,1,1,1359.7000000001863
ArR8MCjh,3mdwe879vkfdd3966pwqlqs2jwg9bh,3napmvf0z0shyrjbz1axvlukwiq270,ArR8MCjh,2020-0188,2021-10-14,10:21:51,11:34:30,NA,incomplete,false,true,NA,8,0,NA,purple,n_l_026.jpg,NA,NA,unpleasant,pleasant,NA,NA,NA,NA,NA,right,1214.70000000019,true,NA,NA,NA,NA,NA
ArR8MCjh,3mdwe879vkfdd3966pwqlqs2jwg9bh,3napmvf0z0shyrjbz1axvlukwiq270,ArR8MCjh,2020-0188,2021-10-14,10:21:51,11:34:30,NA,incomplete,false,true,NA,8,1,NA,purple,n_s_028.jpg,NA,NA,pleasant,unpleasant,NA,NA,NA,NA,NA,left,1206,true,NA,NA,NA,NA,NA
ArR8MCjh,3mdwe879vkfdd3966pwqlqs2jwg9bh,3napmvf0z0shyrjbz1axvlukwiq270,ArR8MCjh,2020-0188,2021-10-14,10:21:51,11:34:30,NA,incomplete,false,true,NA,8,2,NA,purple,m_l_097.jpg,NA,NA,unpleasant,pleasant,NA,NA,NA,NA,NA,right,1278.60000000056,true,NA,NA,NA,NA,NA
ArR8MCjh,3mdwe879vkfdd3966pwqlqs2jwg9bh,3napmvf0z0shyrjbz1axvlukwiq270,ArR8MCjh,2020-0188,2021-10-14,10:21:51,11:34:30,NA,incomplete,false,true,NA,8,3,NA,purple,m_s_068.jpg,NA,NA,pleasant,unpleasant,NA,NA,NA,NA,NA,left,1529.5,true,NA,NA,NA,NA,NA
ArR8MCjh,3mdwe879vkfdd3966pwqlqs2jwg9bh,3napmvf0z0shyrjbz1axvlukwiq270,ArR8MCjh,2020-0188,2021-10-14,10:21:51,11:34:30,NA,incomplete,false,true,NA,8,4,NA,purple,n_l_015.jpg,NA,NA,unpleasant,pleasant,NA,NA,NA,NA,NA,right,1185.30000000075,true,NA,NA,NA,NA,NA
ArR8MCjh,3mdwe879vkfdd3966pwqlqs2jwg9bh,3napmvf0z0shyrjbz1axvlukwiq270,ArR8MCjh,2020-0188,2021-10-14,10:21:51,11:34:30,NA,incomplete,false,true,NA,8,5,NA,purple,m_s_018.jpg,NA,NA,unpleasant,pleasant,NA,NA,NA,NA,NA,right,1639.20000000019,true,NA,NA,NA,NA,NA
ArR8MCjh,3mdwe879vkfdd3966pwqlqs2jwg9bh,3napmvf0z0shyrjbz1axvlukwiq270,ArR8MCjh,2020-0188,2021-10-14,10:21:51,11:34:30,NA,incomplete,false,true,NA,8,6,NA,white,n_l_083.jpg,NA,NA,pleasant,unpleasant,NA,NA,NA,NA,NA,left,1962,true,NA,NA,NA,NA,NA
ArR8MCjh,3mdwe879vkfdd3966pwqlqs2jwg9bh,3napmvf0z0shyrjbz1axvlukwiq270,ArR8MCjh,2020-0188,2021-10-14,10:21:51,11:34:30,NA,incomplete,false,true,NA,8,7,NA,white,n_s_026.jpg,NA,NA,pleasant,unpleasant,NA,NA,NA,NA,NA,left,1549,true,NA,NA,NA,NA,NA
ArR8MCjh,3mdwe879vkfdd3966pwqlqs2jwg9bh,3napmvf0z0shyrjbz1axvlukwiq270,ArR8MCjh,2020-0188,2021-10-14,10:21:51,11:34:30,NA,incomplete,false,true,NA,8,8,NA,white,n_s_078.jpg,NA,NA,pleasant,unpleasant,NA,NA,NA,NA,NA,left,1518.29999999981,true,NA,NA,NA,NA,NA
