workerId,hitId,assignmentId,subject,studyid,exp_date,exp_start,exp_end,time_start,time_end,practice,encoding,memory,block,trial,event_order,event,stim,answer,context_type,label_left,label_right,left_image,left_event,right_image,right_event,condition,response,response_time,response_acc,order_response,order_response_time,order_acc,distance_response,distance_response_time
BeK70JTU,3mdwe879vkfdd3966pwqlqs2jwg9bh,3e1qt0tdftmp9q2wy9nvw1xwwzdi80,BeK70JTU,2020-0188,2021-10-14,14:07:15,15:18:38,NA,incomplete,true,true,NA,0,0,NA,orange,n_l_052.jpg,NA,NA,unpleasant,pleasant,NA,NA,NA,NA,NA,right,1583.39999985695,true,NA,NA,NA,NA,NA
BeK70JTU,3mdwe879vkfdd3966pwqlqs2jwg9bh,3e1qt0tdftmp9q2wy9nvw1xwwzdi80,BeK70JTU,2020-0188,2021-10-14,14:07:15,15:18:38,NA,incomplete,true,true,NA,0,1,NA,orange,n_l_024.jpg,NA,NA,unpleasant,pleasant,NA,NA,NA,NA,NA,right,2370.90000009537,true,NA,NA,NA,NA,NA
BeK70JTU,3mdwe879vkfdd3966pwqlqs2jwg9bh,3e1qt0tdftmp9q2wy9nvw1xwwzdi80,BeK70JTU,2020-0188,2021-10-14,14:07:15,15:18:38,NA,incomplete,true,true,NA,0,2,NA,orange,m_l_017.jpg,NA,NA,unpleasant,pleasant,NA,NA,NA,NA,NA,left,1467.20000004768,true,NA,NA,NA,NA,NA
BeK70JTU,3mdwe879vkfdd3966pwqlqs2jwg9bh,3e1qt0tdftmp9q2wy9nvw1xwwzdi80,BeK70JTU,2020-0188,2021-10-14,14:07:15,15:18:38,NA,incomplete,true,true,NA,0,3,NA,orange,n_s_108.jpg,NA,NA,pleasant,unpleasant,NA,NA,NA,NA,NA,right,1271.80000019073,true,NA,NA,NA,NA,NA
BeK70JTU,3mdwe879vkfdd3966pwqlqs2jwg9bh,3e1qt0tdftmp9q2wy9nvw1xwwzdi80,BeK70JTU,2020-0188,2021-10-14,14:07:15,15:18:38,NA,incomplete,true,true,NA,0,4,NA,orange,n_s_085.jpg,NA,NA,pleasant,unpleasant,NA,NA,NA,NA,NA,left,1519.29999995232,true,NA,NA,NA,NA,NA
BeK70JTU,3mdwe879vkfdd3966pwqlqs2jwg9bh,3e1qt0tdftmp9q2wy9nvw1xwwzdi80,BeK70JTU,2020-0188,2021-10-14,14:07:15,15:18:38,NA,incomplete,true,true,NA,0,5,NA,orange,m_s_014.jpg,NA,NA,unpleasant,pleasant,NA,NA,NA,NA,NA,left,1900.60000014305,true,NA,NA,NA,NA,NA
BeK70JTU,3mdwe879vkfdd3966pwqlqs2jwg9bh,3e1qt0tdftmp9q2wy9nvw1xwwzdi80,BeK70JTU,2020-0188,2021-10-14,14:07:15,15:18:38,NA,incomplete,true,true,NA,0,6,NA,red,n_l_082.jpg,NA,NA,unpleasant,pleasant,NA,NA,NA,NA,NA,right,1643.90000009537,true,NA,NA,NA,NA,NA
BeK70JTU,3mdwe879vkfdd3966pwqlqs2jwg9bh,3e1qt0tdftmp9q2wy9nvw1xwwzdi80,BeK70JTU,2020-0188,2021-10-14,14:07:15,15:18:38,NA,incomplete,true,true,NA,0,7,NA,red,n_s_104.jpg,NA,NA,pleasant,unpleasant,NA,NA,NA,NA,NA,left,1801.79999995232,true,NA,NA,NA,NA,NA
BeK70JTU,3mdwe879vkfdd3966pwqlqs2jwg9bh,3e1qt0tdftmp9q2wy9nvw1xwwzdi80,BeK70JTU,2020-0188,2021-10-14,14:07:15,15:18:38,NA,incomplete,true,true,NA,0,8,NA,red,m_l_108.jpg,NA,NA,unpleasant,pleasant,NA,NA,NA,NA,NA,left,2747.59999990463,true,NA,NA,NA,NA,NA
BeK70JTU,3mdwe879vkfdd3966pwqlqs2jwg9bh,3e1qt0tdftmp9q2wy9nvw1xwwzdi80,BeK70JTU,2020-0188,2021-10-14,14:07:15,15:18:38,NA,incomplete,true,true,NA,0,9,NA,red,m_s_099.jpg,NA,NA,pleasant,unpleasant,NA,NA,NA,NA,NA,right,2354.5,true,NA,NA,NA,NA,NA
BeK70JTU,3mdwe879vkfdd3966pwqlqs2jwg9bh,3e1qt0tdftmp9q2wy9nvw1xwwzdi80,BeK70JTU,2020-0188,2021-10-14,14:07:15,15:18:38,NA,incomplete,true,true,NA,0,10,NA,red,m_l_067.jpg,NA,NA,pleasant,unpleasant,NA,NA,NA,NA,NA,right,2686.80000019073,true,NA,NA,NA,NA,NA
BeK70JTU,3mdwe879vkfdd3966pwqlqs2jwg9bh,3e1qt0tdftmp9q2wy9nvw1xwwzdi80,BeK70JTU,2020-0188,2021-10-14,14:07:15,15:18:38,NA,incomplete,true,true,NA,0,11,NA,red,m_s_015.jpg,NA,NA,unpleasant,pleasant,NA,NA,NA,NA,NA,right,1896.80000019073,true,NA,NA,NA,NA,NA
BeK70JTU,3mdwe879vkfdd3966pwqlqs2jwg9bh,3e1qt0tdftmp9q2wy9nvw1xwwzdi80,BeK70JTU,2020-0188,2021-10-14,14:07:15,15:18:38,NA,incomplete,true,true,NA,0,12,NA,purple,m_l_091.jpg,NA,NA,pleasant,unpleasant,NA,NA,NA,NA,NA,right,1657.59999990463,true,NA,NA,NA,NA,NA
BeK70JTU,3mdwe879vkfdd3966pwqlqs2jwg9bh,3e1qt0tdftmp9q2wy9nvw1xwwzdi80,BeK70JTU,2020-0188,2021-10-14,14:07:15,15:18:38,NA,incomplete,true,true,NA,0,13,NA,purple,n_s_069.jpg,NA,NA,unpleasant,pleasant,NA,NA,NA,NA,NA,right,1902.79999995232,true,NA,NA,NA,NA,NA
BeK70JTU,3mdwe879vkfdd3966pwqlqs2jwg9bh,3e1qt0tdftmp9q2wy9nvw1xwwzdi80,BeK70JTU,2020-0188,2021-10-14,14:07:15,15:18:38,NA,incomplete,true,true,NA,0,14,NA,purple,m_s_078.jpg,NA,NA,pleasant,unpleasant,NA,NA,NA,NA,NA,right,1669.70000004768,true,NA,NA,NA,NA,NA
BeK70JTU,3mdwe879vkfdd3966pwqlqs2jwg9bh,3e1qt0tdftmp9q2wy9nvw1xwwzdi80,BeK70JTU,2020-0188,2021-10-14,14:07:15,15:18:38,NA,incomplete,true,true,NA,0,15,NA,purple,n_s_049.jpg,NA,NA,unpleasant,pleasant,NA,NA,NA,NA,NA,right,1778.5,true,NA,NA,NA,NA,NA
BeK70JTU,3mdwe879vkfdd3966pwqlqs2jwg9bh,3e1qt0tdftmp9q2wy9nvw1xwwzdi80,BeK70JTU,2020-0188,2021-10-14,14:07:15,15:18:38,NA,incomplete,true,true,NA,0,16,NA,purple,m_s_065.jpg,NA,NA,pleasant,unpleasant,NA,NA,NA,NA,NA,right,1484.79999995232,true,NA,NA,NA,NA,NA
BeK70JTU,3mdwe879vkfdd3966pwqlqs2jwg9bh,3e1qt0tdftmp9q2wy9nvw1xwwzdi80,BeK70JTU,2020-0188,2021-10-14,14:07:15,15:18:38,NA,incomplete,true,true,NA,0,17,NA,purple,n_l_111.jpg,NA,NA,unpleasant,pleasant,NA,NA,NA,NA,NA,right,1671.09999990463,true,NA,NA,NA,NA,NA
BeK70JTU,3mdwe879vkfdd3966pwqlqs2jwg9bh,3e1qt0tdftmp9q2wy9nvw1xwwzdi80,BeK70JTU,2020-0188,2021-10-14,14:07:15,15:18:38,NA,incomplete,true,true,NA,0,18,NA,gray,m_s_054.jpg,NA,NA,pleasant,unpleasant,NA,NA,NA,NA,NA,right,2821.20000004768,true,NA,NA,NA,NA,NA
BeK70JTU,3mdwe879vkfdd3966pwqlqs2jwg9bh,3e1qt0tdftmp9q2wy9nvw1xwwzdi80,BeK70JTU,2020-0188,2021-10-14,14:07:15,15:18:38,NA,incomplete,true,true,NA,0,19,NA,gray,n_l_073.jpg,NA,NA,unpleasant,pleasant,NA,NA,NA,NA,NA,right,1579.39999985695,true,NA,NA,NA,NA,NA
BeK70JTU,3mdwe879vkfdd3966pwqlqs2jwg9bh,3e1qt0tdftmp9q2wy9nvw1xwwzdi80,BeK70JTU,2020-0188,2021-10-14,14:07:15,15:18:38,NA,incomplete,true,true,NA,0,20,NA,gray,n_l_020.jpg,NA,NA,pleasant,unpleasant,NA,NA,NA,NA,NA,left,1883.09999990463,true,NA,NA,NA,NA,NA
BeK70JTU,3mdwe879vkfdd3966pwqlqs2jwg9bh,3e1qt0tdftmp9q2wy9nvw1xwwzdi80,BeK70JTU,2020-0188,2021-10-14,14:07:15,15:18:38,NA,incomplete,true,true,NA,0,21,NA,gray,n_s_006.jpg,NA,NA,unpleasant,pleasant,NA,NA,NA,NA,NA,right,1353.29999995232,true,NA,NA,NA,NA,NA
BeK70JTU,3mdwe879vkfdd3966pwqlqs2jwg9bh,3e1qt0tdftmp9q2wy9nvw1xwwzdi80,BeK70JTU,2020-0188,2021-10-14,14:07:15,15:18:38,NA,incomplete,true,true,NA,0,22,NA,gray,m_l_031.jpg,NA,NA,unpleasant,pleasant,NA,NA,NA,NA,NA,left,1477.5,true,NA,NA,NA,NA,NA
BeK70JTU,3mdwe879vkfdd3966pwqlqs2jwg9bh,3e1qt0tdftmp9q2wy9nvw1xwwzdi80,BeK70JTU,2020-0188,2021-10-14,14:07:15,15:18:38,NA,incomplete,true,true,NA,0,23,NA,gray,n_l_010.jpg,NA,NA,pleasant,unpleasant,NA,NA,NA,NA,NA,left,1368,true,NA,NA,NA,NA,NA
BeK70JTU,3mdwe879vkfdd3966pwqlqs2jwg9bh,3e1qt0tdftmp9q2wy9nvw1xwwzdi80,BeK70JTU,2020-0188,2021-10-14,14:07:15,15:18:38,NA,incomplete,true,true,NA,0,24,NA,blue,n_l_040.jpg,NA,NA,unpleasant,pleasant,NA,NA,NA,NA,NA,right,1384.09999990463,true,NA,NA,NA,NA,NA
BeK70JTU,3mdwe879vkfdd3966pwqlqs2jwg9bh,3e1qt0tdftmp9q2wy9nvw1xwwzdi80,BeK70JTU,2020-0188,2021-10-14,14:07:15,15:18:38,NA,incomplete,true,true,NA,0,25,NA,blue,n_l_105.jpg,NA,NA,unpleasant,pleasant,NA,NA,NA,NA,NA,right,1387.09999990463,true,NA,NA,NA,NA,NA
BeK70JTU,3mdwe879vkfdd3966pwqlqs2jwg9bh,3e1qt0tdftmp9q2wy9nvw1xwwzdi80,BeK70JTU,2020-0188,2021-10-14,14:07:15,15:18:38,NA,incomplete,true,true,NA,0,26,NA,blue,m_s_042.jpg,NA,NA,unpleasant,pleasant,NA,NA,NA,NA,NA,left,1393.79999995232,true,NA,NA,NA,NA,NA
BeK70JTU,3mdwe879vkfdd3966pwqlqs2jwg9bh,3e1qt0tdftmp9q2wy9nvw1xwwzdi80,BeK70JTU,2020-0188,2021-10-14,14:07:15,15:18:38,NA,incomplete,true,true,NA,0,27,NA,blue,n_l_031.jpg,NA,NA,unpleasant,pleasant,NA,NA,NA,NA,NA,right,1363.5,true,NA,NA,NA,NA,NA
BeK70JTU,3mdwe879vkfdd3966pwqlqs2jwg9bh,3e1qt0tdftmp9q2wy9nvw1xwwzdi80,BeK70JTU,2020-0188,2021-10-14,14:07:15,15:18:38,NA,incomplete,true,true,NA,0,28,NA,blue,n_l_034.jpg,NA,NA,unpleasant,pleasant,NA,NA,NA,NA,NA,right,2176.40000009537,true,NA,NA,NA,NA,NA
BeK70JTU,3mdwe879vkfdd3966pwqlqs2jwg9bh,3e1qt0tdftmp9q2wy9nvw1xwwzdi80,BeK70JTU,2020-0188,2021-10-14,14:07:15,15:18:38,NA,incomplete,true,true,NA,0,29,NA,blue,m_l_074.jpg,NA,NA,pleasant,unpleasant,NA,NA,NA,NA,NA,right,1468,true,NA,NA,NA,NA,NA
BeK70JTU,3mdwe879vkfdd3966pwqlqs2jwg9bh,3e1qt0tdftmp9q2wy9nvw1xwwzdi80,BeK70JTU,2020-0188,2021-10-14,14:07:15,15:18:38,NA,incomplete,true,true,NA,0,30,NA,yellow,n_s_050.jpg,NA,NA,unpleasant,pleasant,NA,NA,NA,NA,NA,right,2760.70000004768,true,NA,NA,NA,NA,NA
BeK70JTU,3mdwe879vkfdd3966pwqlqs2jwg9bh,3e1qt0tdftmp9q2wy9nvw1xwwzdi80,BeK70JTU,2020-0188,2021-10-14,14:07:15,15:18:38,NA,incomplete,true,true,NA,0,31,NA,yellow,m_l_107.jpg,NA,NA,pleasant,unpleasant,NA,NA,NA,NA,NA,right,1747.5,true,NA,NA,NA,NA,NA
BeK70JTU,3mdwe879vkfdd3966pwqlqs2jwg9bh,3e1qt0tdftmp9q2wy9nvw1xwwzdi80,BeK70JTU,2020-0188,2021-10-14,14:07:15,15:18:38,NA,incomplete,true,true,NA,0,32,NA,yellow,m_s_058.jpg,NA,NA,unpleasant,pleasant,NA,NA,NA,NA,NA,right,1341.69999980927,true,NA,NA,NA,NA,NA
BeK70JTU,3mdwe879vkfdd3966pwqlqs2jwg9bh,3e1qt0tdftmp9q2wy9nvw1xwwzdi80,BeK70JTU,2020-0188,2021-10-14,14:07:15,15:18:38,NA,incomplete,true,true,NA,0,33,NA,yellow,m_l_106.jpg,NA,NA,pleasant,unpleasant,NA,NA,NA,NA,NA,right,1881.39999985695,true,NA,NA,NA,NA,NA
BeK70JTU,3mdwe879vkfdd3966pwqlqs2jwg9bh,3e1qt0tdftmp9q2wy9nvw1xwwzdi80,BeK70JTU,2020-0188,2021-10-14,14:07:15,15:18:38,NA,incomplete,true,true,NA,0,34,NA,yellow,m_l_075.jpg,NA,NA,unpleasant,pleasant,NA,NA,NA,NA,NA,left,1511.20000004768,true,NA,NA,NA,NA,NA
BeK70JTU,3mdwe879vkfdd3966pwqlqs2jwg9bh,3e1qt0tdftmp9q2wy9nvw1xwwzdi80,BeK70JTU,2020-0188,2021-10-14,14:07:15,15:18:38,NA,incomplete,true,true,NA,0,35,NA,yellow,n_s_017.jpg,NA,NA,pleasant,unpleasant,NA,NA,NA,NA,NA,left,1569.70000004768,true,NA,NA,NA,NA,NA
BeK70JTU,3mdwe879vkfdd3966pwqlqs2jwg9bh,3e1qt0tdftmp9q2wy9nvw1xwwzdi80,BeK70JTU,2020-0188,2021-10-14,14:07:15,15:18:38,NA,incomplete,true,NA,true,0,0,NA,NA,NA,right,absent,NA,NA,m_s_015.jpg,red,n_s_104.jpg,red,within,NA,NaN,NA,left,7455.399999856949,0,0,20041.800000190735
BeK70JTU,3mdwe879vkfdd3966pwqlqs2jwg9bh,3e1qt0tdftmp9q2wy9nvw1xwwzdi80,BeK70JTU,2020-0188,2021-10-14,14:07:15,15:18:38,NA,incomplete,true,NA,true,0,1,NA,NA,NA,left,present,NA,NA,m_l_031.jpg,gray,m_s_042.jpg,blue,between,NA,NaN,NA,right,12166.200000047684,0,0,2892.7999999523163
BeK70JTU,3mdwe879vkfdd3966pwqlqs2jwg9bh,3e1qt0tdftmp9q2wy9nvw1xwwzdi80,BeK70JTU,2020-0188,2021-10-14,14:07:15,15:18:38,NA,incomplete,true,NA,true,0,2,NA,NA,NA,right,present,NA,NA,n_l_010.jpg,gray,n_l_073.jpg,gray,within,NA,NaN,NA,right,4154.099999904633,1,0,1999.2999999523163
BeK70JTU,3mdwe879vkfdd3966pwqlqs2jwg9bh,3e1qt0tdftmp9q2wy9nvw1xwwzdi80,BeK70JTU,2020-0188,2021-10-14,14:07:15,15:18:38,NA,incomplete,true,NA,true,0,3,NA,NA,NA,right,absent,NA,NA,m_s_078.jpg,purple,m_l_067.jpg,red,between,NA,NaN,NA,left,2678.4000000953674,0,0,2569
BeK70JTU,3mdwe879vkfdd3966pwqlqs2jwg9bh,3e1qt0tdftmp9q2wy9nvw1xwwzdi80,BeK70JTU,2020-0188,2021-10-14,14:07:15,15:18:38,NA,incomplete,true,NA,true,0,4,NA,NA,NA,left,present,NA,NA,n_l_034.jpg,blue,m_s_058.jpg,yellow,between,NA,NaN,NA,left,7918.799999952316,1,0,1877.7999999523163
BeK70JTU,3mdwe879vkfdd3966pwqlqs2jwg9bh,3e1qt0tdftmp9q2wy9nvw1xwwzdi80,BeK70JTU,2020-0188,2021-10-14,14:07:15,15:18:38,NA,incomplete,true,NA,true,0,5,NA,NA,NA,right,present,NA,NA,n_l_111.jpg,purple,n_s_069.jpg,purple,within,NA,NaN,NA,right,2918.0999999046326,1,0,2850.4000000953674
BeK70JTU,3mdwe879vkfdd3966pwqlqs2jwg9bh,3e1qt0tdftmp9q2wy9nvw1xwwzdi80,BeK70JTU,2020-0188,2021-10-14,14:07:15,15:18:38,NA,incomplete,true,NA,true,0,6,NA,NA,NA,left,present,NA,NA,n_s_085.jpg,orange,m_l_108.jpg,red,between,NA,NaN,NA,right,8842.600000143051,0,0,3087.7000000476837
BeK70JTU,3mdwe879vkfdd3966pwqlqs2jwg9bh,3e1qt0tdftmp9q2wy9nvw1xwwzdi80,BeK70JTU,2020-0188,2021-10-14,14:07:15,15:18:38,NA,incomplete,true,NA,true,0,7,NA,NA,NA,right,absent,NA,NA,m_s_014.jpg,orange,n_l_024.jpg,orange,within,NA,NaN,NA,left,2448,0,0,1966.0999999046326
BeK70JTU,3mdwe879vkfdd3966pwqlqs2jwg9bh,3e1qt0tdftmp9q2wy9nvw1xwwzdi80,BeK70JTU,2020-0188,2021-10-14,14:07:15,15:18:38,NA,incomplete,true,NA,true,0,8,NA,NA,NA,left,absent,NA,NA,n_l_105.jpg,blue,m_l_074.jpg,blue,within,NA,NaN,NA,left,2219.2999999523163,1,0,1737.5
BeK70JTU,3mdwe879vkfdd3966pwqlqs2jwg9bh,3e1qt0tdftmp9q2wy9nvw1xwwzdi80,BeK70JTU,2020-0188,2021-10-14,14:07:15,15:18:38,NA,incomplete,true,NA,true,0,9,NA,NA,NA,right,present,NA,NA,n_l_020.jpg,gray,m_s_065.jpg,purple,between,NA,NaN,NA,right,4286.400000095367,1,0,2082.9000000953674
BeK70JTU,3mdwe879vkfdd3966pwqlqs2jwg9bh,3e1qt0tdftmp9q2wy9nvw1xwwzdi80,BeK70JTU,2020-0188,2021-10-14,14:07:15,15:18:38,NA,incomplete,true,NA,true,0,10,NA,NA,NA,right,absent,NA,NA,n_s_017.jpg,yellow,m_l_107.jpg,yellow,within,NA,NaN,NA,left,2575.4000000953674,0,0,1803
BeK70JTU,3mdwe879vkfdd3966pwqlqs2jwg9bh,3e1qt0tdftmp9q2wy9nvw1xwwzdi80,BeK70JTU,2020-0188,2021-10-14,14:07:15,15:18:38,NA,incomplete,false,true,NA,1,0,NA,purple,n_l_085.jpg,NA,NA,pleasant,unpleasant,NA,NA,NA,NA,NA,left,2570.29999995232,true,NA,NA,NA,NA,NA
BeK70JTU,3mdwe879vkfdd3966pwqlqs2jwg9bh,3e1qt0tdftmp9q2wy9nvw1xwwzdi80,BeK70JTU,2020-0188,2021-10-14,14:07:15,15:18:38,NA,incomplete,false,true,NA,1,1,NA,purple,m_l_110.jpg,NA,NA,pleasant,unpleasant,NA,NA,NA,NA,NA,right,1527.39999985695,true,NA,NA,NA,NA,NA
BeK70JTU,3mdwe879vkfdd3966pwqlqs2jwg9bh,3e1qt0tdftmp9q2wy9nvw1xwwzdi80,BeK70JTU,2020-0188,2021-10-14,14:07:15,15:18:38,NA,incomplete,false,true,NA,1,2,NA,purple,n_s_047.jpg,NA,NA,pleasant,unpleasant,NA,NA,NA,NA,NA,left,1325.70000004768,true,NA,NA,NA,NA,NA
BeK70JTU,3mdwe879vkfdd3966pwqlqs2jwg9bh,3e1qt0tdftmp9q2wy9nvw1xwwzdi80,BeK70JTU,2020-0188,2021-10-14,14:07:15,15:18:38,NA,incomplete,false,true,NA,1,3,NA,purple,m_s_075.jpg,NA,NA,pleasant,unpleasant,NA,NA,NA,NA,NA,right,1380.39999985695,true,NA,NA,NA,NA,NA
BeK70JTU,3mdwe879vkfdd3966pwqlqs2jwg9bh,3e1qt0tdftmp9q2wy9nvw1xwwzdi80,BeK70JTU,2020-0188,2021-10-14,14:07:15,15:18:38,NA,incomplete,false,true,NA,1,4,NA,purple,n_l_071.jpg,NA,NA,pleasant,unpleasant,NA,NA,NA,NA,NA,left,1298.20000004768,true,NA,NA,NA,NA,NA
BeK70JTU,3mdwe879vkfdd3966pwqlqs2jwg9bh,3e1qt0tdftmp9q2wy9nvw1xwwzdi80,BeK70JTU,2020-0188,2021-10-14,14:07:15,15:18:38,NA,incomplete,false,true,NA,1,5,NA,purple,n_l_094.jpg,NA,NA,unpleasant,pleasant,NA,NA,NA,NA,NA,right,1794.70000004768,true,NA,NA,NA,NA,NA
BeK70JTU,3mdwe879vkfdd3966pwqlqs2jwg9bh,3e1qt0tdftmp9q2wy9nvw1xwwzdi80,BeK70JTU,2020-0188,2021-10-14,14:07:15,15:18:38,NA,incomplete,false,true,NA,1,6,NA,brown,m_s_109.jpg,NA,NA,unpleasant,pleasant,NA,NA,NA,NA,NA,left,1319.90000009537,true,NA,NA,NA,NA,NA
BeK70JTU,3mdwe879vkfdd3966pwqlqs2jwg9bh,3e1qt0tdftmp9q2wy9nvw1xwwzdi80,BeK70JTU,2020-0188,2021-10-14,14:07:15,15:18:38,NA,incomplete,false,true,NA,1,7,NA,brown,n_l_059.jpg,NA,NA,pleasant,unpleasant,NA,NA,NA,NA,NA,left,2035.60000014305,true,NA,NA,NA,NA,NA
BeK70JTU,3mdwe879vkfdd3966pwqlqs2jwg9bh,3e1qt0tdftmp9q2wy9nvw1xwwzdi80,BeK70JTU,2020-0188,2021-10-14,14:07:15,15:18:38,NA,incomplete,false,true,NA,1,8,NA,brown,n_l_116.jpg,NA,NA,unpleasant,pleasant,NA,NA,NA,NA,NA,right,1291.69999980927,true,NA,NA,NA,NA,NA
BeK70JTU,3mdwe879vkfdd3966pwqlqs2jwg9bh,3e1qt0tdftmp9q2wy9nvw1xwwzdi80,BeK70JTU,2020-0188,2021-10-14,14:07:15,15:18:38,NA,incomplete,false,true,NA,1,9,NA,brown,n_s_057.jpg,NA,NA,pleasant,unpleasant,NA,NA,NA,NA,NA,left,1575.70000004768,true,NA,NA,NA,NA,NA
BeK70JTU,3mdwe879vkfdd3966pwqlqs2jwg9bh,3e1qt0tdftmp9q2wy9nvw1xwwzdi80,BeK70JTU,2020-0188,2021-10-14,14:07:15,15:18:38,NA,incomplete,false,true,NA,1,10,NA,brown,n_s_036.jpg,NA,NA,unpleasant,pleasant,NA,NA,NA,NA,NA,right,1515.29999995232,true,NA,NA,NA,NA,NA
BeK70JTU,3mdwe879vkfdd3966pwqlqs2jwg9bh,3e1qt0tdftmp9q2wy9nvw1xwwzdi80,BeK70JTU,2020-0188,2021-10-14,14:07:15,15:18:38,NA,incomplete,false,true,NA,1,11,NA,brown,m_s_071.jpg,NA,NA,unpleasant,pleasant,NA,NA,NA,NA,NA,left,1940.70000004768,true,NA,NA,NA,NA,NA
BeK70JTU,3mdwe879vkfdd3966pwqlqs2jwg9bh,3e1qt0tdftmp9q2wy9nvw1xwwzdi80,BeK70JTU,2020-0188,2021-10-14,14:07:15,15:18:38,NA,incomplete,false,true,NA,1,12,NA,green,n_l_070.jpg,NA,NA,pleasant,unpleasant,NA,NA,NA,NA,NA,left,1665.59999990463,true,NA,NA,NA,NA,NA
BeK70JTU,3mdwe879vkfdd3966pwqlqs2jwg9bh,3e1qt0tdftmp9q2wy9nvw1xwwzdi80,BeK70JTU,2020-0188,2021-10-14,14:07:15,15:18:38,NA,incomplete,false,true,NA,1,13,NA,green,m_l_009.jpg,NA,NA,unpleasant,pleasant,NA,NA,NA,NA,NA,right,1419.30000019073,true,NA,NA,NA,NA,NA
BeK70JTU,3mdwe879vkfdd3966pwqlqs2jwg9bh,3e1qt0tdftmp9q2wy9nvw1xwwzdi80,BeK70JTU,2020-0188,2021-10-14,14:07:15,15:18:38,NA,incomplete,false,true,NA,1,14,NA,green,n_l_054.jpg,NA,NA,unpleasant,pleasant,NA,NA,NA,NA,NA,right,1614.59999990463,true,NA,NA,NA,NA,NA
BeK70JTU,3mdwe879vkfdd3966pwqlqs2jwg9bh,3e1qt0tdftmp9q2wy9nvw1xwwzdi80,BeK70JTU,2020-0188,2021-10-14,14:07:15,15:18:38,NA,incomplete,false,true,NA,1,15,NA,green,m_s_053.jpg,NA,NA,pleasant,unpleasant,NA,NA,NA,NA,NA,right,1602.09999990463,true,NA,NA,NA,NA,NA
BeK70JTU,3mdwe879vkfdd3966pwqlqs2jwg9bh,3e1qt0tdftmp9q2wy9nvw1xwwzdi80,BeK70JTU,2020-0188,2021-10-14,14:07:15,15:18:38,NA,incomplete,false,true,NA,1,16,NA,green,n_l_037.jpg,NA,NA,pleasant,unpleasant,NA,NA,NA,NA,NA,left,1389.40000009537,true,NA,NA,NA,NA,NA
BeK70JTU,3mdwe879vkfdd3966pwqlqs2jwg9bh,3e1qt0tdftmp9q2wy9nvw1xwwzdi80,BeK70JTU,2020-0188,2021-10-14,14:07:15,15:18:38,NA,incomplete,false,true,NA,1,17,NA,green,n_s_048.jpg,NA,NA,unpleasant,pleasant,NA,NA,NA,NA,NA,right,1321.5,true,NA,NA,NA,NA,NA
BeK70JTU,3mdwe879vkfdd3966pwqlqs2jwg9bh,3e1qt0tdftmp9q2wy9nvw1xwwzdi80,BeK70JTU,2020-0188,2021-10-14,14:07:15,15:18:38,NA,incomplete,false,true,NA,1,18,NA,white,n_s_101.jpg,NA,NA,unpleasant,pleasant,NA,NA,NA,NA,NA,right,1441.90000009537,true,NA,NA,NA,NA,NA
BeK70JTU,3mdwe879vkfdd3966pwqlqs2jwg9bh,3e1qt0tdftmp9q2wy9nvw1xwwzdi80,BeK70JTU,2020-0188,2021-10-14,14:07:15,15:18:38,NA,incomplete,false,true,NA,1,19,NA,white,m_l_047.jpg,NA,NA,pleasant,unpleasant,NA,NA,NA,NA,NA,right,1712.60000014305,true,NA,NA,NA,NA,NA
BeK70JTU,3mdwe879vkfdd3966pwqlqs2jwg9bh,3e1qt0tdftmp9q2wy9nvw1xwwzdi80,BeK70JTU,2020-0188,2021-10-14,14:07:15,15:18:38,NA,incomplete,false,true,NA,1,20,NA,white,n_l_086.jpg,NA,NA,unpleasant,pleasant,NA,NA,NA,NA,NA,right,1353.59999990463,true,NA,NA,NA,NA,NA
BeK70JTU,3mdwe879vkfdd3966pwqlqs2jwg9bh,3e1qt0tdftmp9q2wy9nvw1xwwzdi80,BeK70JTU,2020-0188,2021-10-14,14:07:15,15:18:38,NA,incomplete,false,true,NA,1,21,NA,white,m_l_114.jpg,NA,NA,pleasant,unpleasant,NA,NA,NA,NA,NA,right,1602.79999995232,true,NA,NA,NA,NA,NA
BeK70JTU,3mdwe879vkfdd3966pwqlqs2jwg9bh,3e1qt0tdftmp9q2wy9nvw1xwwzdi80,BeK70JTU,2020-0188,2021-10-14,14:07:15,15:18:38,NA,incomplete,false,true,NA,1,22,NA,white,n_l_033.jpg,NA,NA,unpleasant,pleasant,NA,NA,NA,NA,NA,right,1367.79999995232,true,NA,NA,NA,NA,NA
BeK70JTU,3mdwe879vkfdd3966pwqlqs2jwg9bh,3e1qt0tdftmp9q2wy9nvw1xwwzdi80,BeK70JTU,2020-0188,2021-10-14,14:07:15,15:18:38,NA,incomplete,false,true,NA,1,23,NA,white,m_s_097.jpg,NA,NA,pleasant,unpleasant,NA,NA,NA,NA,NA,right,1972.89999985695,true,NA,NA,NA,NA,NA
BeK70JTU,3mdwe879vkfdd3966pwqlqs2jwg9bh,3e1qt0tdftmp9q2wy9nvw1xwwzdi80,BeK70JTU,2020-0188,2021-10-14,14:07:15,15:18:38,NA,incomplete,false,true,NA,1,24,NA,red,n_s_114.jpg,NA,NA,unpleasant,pleasant,NA,NA,NA,NA,NA,right,1663.40000009537,true,NA,NA,NA,NA,NA
BeK70JTU,3mdwe879vkfdd3966pwqlqs2jwg9bh,3e1qt0tdftmp9q2wy9nvw1xwwzdi80,BeK70JTU,2020-0188,2021-10-14,14:07:15,15:18:38,NA,incomplete,false,true,NA,1,25,NA,red,m_s_061.jpg,NA,NA,unpleasant,pleasant,NA,NA,NA,NA,NA,left,1513.30000019073,true,NA,NA,NA,NA,NA
BeK70JTU,3mdwe879vkfdd3966pwqlqs2jwg9bh,3e1qt0tdftmp9q2wy9nvw1xwwzdi80,BeK70JTU,2020-0188,2021-10-14,14:07:15,15:18:38,NA,incomplete,false,true,NA,1,26,NA,red,n_s_115.jpg,NA,NA,pleasant,unpleasant,NA,NA,NA,NA,NA,left,1765.19999980927,true,NA,NA,NA,NA,NA
BeK70JTU,3mdwe879vkfdd3966pwqlqs2jwg9bh,3e1qt0tdftmp9q2wy9nvw1xwwzdi80,BeK70JTU,2020-0188,2021-10-14,14:07:15,15:18:38,NA,incomplete,false,true,NA,1,27,NA,red,m_s_062.jpg,NA,NA,unpleasant,pleasant,NA,NA,NA,NA,NA,left,1335.90000009537,true,NA,NA,NA,NA,NA
BeK70JTU,3mdwe879vkfdd3966pwqlqs2jwg9bh,3e1qt0tdftmp9q2wy9nvw1xwwzdi80,BeK70JTU,2020-0188,2021-10-14,14:07:15,15:18:38,NA,incomplete,false,true,NA,1,28,NA,red,n_l_046.jpg,NA,NA,unpleasant,pleasant,NA,NA,NA,NA,NA,right,1425.79999995232,true,NA,NA,NA,NA,NA
BeK70JTU,3mdwe879vkfdd3966pwqlqs2jwg9bh,3e1qt0tdftmp9q2wy9nvw1xwwzdi80,BeK70JTU,2020-0188,2021-10-14,14:07:15,15:18:38,NA,incomplete,false,true,NA,1,29,NA,red,n_l_058.jpg,NA,NA,pleasant,unpleasant,NA,NA,NA,NA,NA,left,1809,true,NA,NA,NA,NA,NA
BeK70JTU,3mdwe879vkfdd3966pwqlqs2jwg9bh,3e1qt0tdftmp9q2wy9nvw1xwwzdi80,BeK70JTU,2020-0188,2021-10-14,14:07:15,15:18:38,NA,incomplete,false,true,NA,1,30,NA,orange,m_s_006.jpg,NA,NA,unpleasant,pleasant,NA,NA,NA,NA,NA,left,1726.29999995232,true,NA,NA,NA,NA,NA
BeK70JTU,3mdwe879vkfdd3966pwqlqs2jwg9bh,3e1qt0tdftmp9q2wy9nvw1xwwzdi80,BeK70JTU,2020-0188,2021-10-14,14:07:15,15:18:38,NA,incomplete,false,true,NA,1,31,NA,orange,m_l_060.jpg,NA,NA,unpleasant,pleasant,NA,NA,NA,NA,NA,left,1525.20000004768,true,NA,NA,NA,NA,NA
BeK70JTU,3mdwe879vkfdd3966pwqlqs2jwg9bh,3e1qt0tdftmp9q2wy9nvw1xwwzdi80,BeK70JTU,2020-0188,2021-10-14,14:07:15,15:18:38,NA,incomplete,false,true,NA,1,32,NA,orange,m_l_050.jpg,NA,NA,unpleasant,pleasant,NA,NA,NA,NA,NA,left,1421.70000004768,true,NA,NA,NA,NA,NA
BeK70JTU,3mdwe879vkfdd3966pwqlqs2jwg9bh,3e1qt0tdftmp9q2wy9nvw1xwwzdi80,BeK70JTU,2020-0188,2021-10-14,14:07:15,15:18:38,NA,incomplete,false,true,NA,1,33,NA,orange,n_s_102.jpg,NA,NA,pleasant,unpleasant,NA,NA,NA,NA,NA,left,1587.70000004768,true,NA,NA,NA,NA,NA
BeK70JTU,3mdwe879vkfdd3966pwqlqs2jwg9bh,3e1qt0tdftmp9q2wy9nvw1xwwzdi80,BeK70JTU,2020-0188,2021-10-14,14:07:15,15:18:38,NA,incomplete,false,true,NA,1,34,NA,orange,n_s_018.jpg,NA,NA,unpleasant,pleasant,NA,NA,NA,NA,NA,right,1346.69999980927,true,NA,NA,NA,NA,NA
BeK70JTU,3mdwe879vkfdd3966pwqlqs2jwg9bh,3e1qt0tdftmp9q2wy9nvw1xwwzdi80,BeK70JTU,2020-0188,2021-10-14,14:07:15,15:18:38,NA,incomplete,false,true,NA,1,35,NA,orange,n_s_109.jpg,NA,NA,pleasant,unpleasant,NA,NA,NA,NA,NA,left,1869.20000004768,true,NA,NA,NA,NA,NA
BeK70JTU,3mdwe879vkfdd3966pwqlqs2jwg9bh,3e1qt0tdftmp9q2wy9nvw1xwwzdi80,BeK70JTU,2020-0188,2021-10-14,14:07:15,15:18:38,NA,incomplete,false,NA,true,1,0,NA,NA,NA,right,absent,NA,NA,n_l_116.jpg,brown,n_l_071.jpg,purple,between,NA,NaN,NA,left,3444.300000190735,0,0,2816.7000000476837
BeK70JTU,3mdwe879vkfdd3966pwqlqs2jwg9bh,3e1qt0tdftmp9q2wy9nvw1xwwzdi80,BeK70JTU,2020-0188,2021-10-14,14:07:15,15:18:38,NA,incomplete,false,NA,true,1,1,NA,NA,NA,left,absent,NA,NA,n_l_046.jpg,red,m_l_050.jpg,orange,between,NA,NaN,NA,left,4617.699999809265,1,0,1843.4000000953674
BeK70JTU,3mdwe879vkfdd3966pwqlqs2jwg9bh,3e1qt0tdftmp9q2wy9nvw1xwwzdi80,BeK70JTU,2020-0188,2021-10-14,14:07:15,15:18:38,NA,incomplete,false,NA,true,1,2,NA,NA,NA,left,absent,NA,NA,m_l_009.jpg,green,n_s_048.jpg,green,within,NA,NaN,NA,left,2558.5999999046326,1,0,1760.5999999046326
BeK70JTU,3mdwe879vkfdd3966pwqlqs2jwg9bh,3e1qt0tdftmp9q2wy9nvw1xwwzdi80,BeK70JTU,2020-0188,2021-10-14,14:07:15,15:18:38,NA,incomplete,false,NA,true,1,3,NA,NA,NA,left,absent,NA,NA,m_l_060.jpg,orange,n_s_109.jpg,orange,within,NA,NaN,NA,right,3754.199999809265,0,0,2080.5
BeK70JTU,3mdwe879vkfdd3966pwqlqs2jwg9bh,3e1qt0tdftmp9q2wy9nvw1xwwzdi80,BeK70JTU,2020-0188,2021-10-14,14:07:15,15:18:38,NA,incomplete,false,NA,true,1,4,NA,NA,NA,right,absent,NA,NA,n_l_094.jpg,purple,m_l_110.jpg,purple,within,NA,NaN,NA,left,3202.2999999523163,0,0,2010.1999998092651
BeK70JTU,3mdwe879vkfdd3966pwqlqs2jwg9bh,3e1qt0tdftmp9q2wy9nvw1xwwzdi80,BeK70JTU,2020-0188,2021-10-14,14:07:15,15:18:38,NA,incomplete,false,NA,true,1,5,NA,NA,NA,left,absent,NA,NA,n_l_037.jpg,green,n_l_086.jpg,white,between,NA,NaN,NA,left,2556.7000000476837,1,0,1908.1000001430511
BeK70JTU,3mdwe879vkfdd3966pwqlqs2jwg9bh,3e1qt0tdftmp9q2wy9nvw1xwwzdi80,BeK70JTU,2020-0188,2021-10-14,14:07:15,15:18:38,NA,incomplete,false,NA,true,1,6,NA,NA,NA,left,absent,NA,NA,m_s_061.jpg,red,n_l_058.jpg,red,within,NA,NaN,NA,right,6099.5,0,0,1577.3999998569489
BeK70JTU,3mdwe879vkfdd3966pwqlqs2jwg9bh,3e1qt0tdftmp9q2wy9nvw1xwwzdi80,BeK70JTU,2020-0188,2021-10-14,14:07:15,15:18:38,NA,incomplete,false,NA,true,1,7,NA,NA,NA,left,absent,NA,NA,m_l_047.jpg,white,m_s_097.jpg,white,within,NA,NaN,NA,left,2564.7999999523163,1,0,1748.2000000476837
BeK70JTU,3mdwe879vkfdd3966pwqlqs2jwg9bh,3e1qt0tdftmp9q2wy9nvw1xwwzdi80,BeK70JTU,2020-0188,2021-10-14,14:07:15,15:18:38,NA,incomplete,false,NA,true,1,8,NA,NA,NA,right,absent,NA,NA,n_l_054.jpg,green,n_s_036.jpg,brown,between,NA,NaN,NA,right,2367.5999999046326,1,0,1968.2999999523163
BeK70JTU,3mdwe879vkfdd3966pwqlqs2jwg9bh,3e1qt0tdftmp9q2wy9nvw1xwwzdi80,BeK70JTU,2020-0188,2021-10-14,14:07:15,15:18:38,NA,incomplete,false,NA,true,1,9,NA,NA,NA,right,absent,NA,NA,m_s_071.jpg,brown,n_l_059.jpg,brown,within,NA,NaN,NA,right,1945.5999999046326,1,0,2384.600000143051
BeK70JTU,3mdwe879vkfdd3966pwqlqs2jwg9bh,3e1qt0tdftmp9q2wy9nvw1xwwzdi80,BeK70JTU,2020-0188,2021-10-14,14:07:15,15:18:38,NA,incomplete,false,NA,true,1,10,NA,NA,NA,left,absent,NA,NA,n_l_033.jpg,white,n_s_115.jpg,red,between,NA,NaN,NA,right,3142.7999999523163,0,0,2558.5
BeK70JTU,3mdwe879vkfdd3966pwqlqs2jwg9bh,3e1qt0tdftmp9q2wy9nvw1xwwzdi80,BeK70JTU,2020-0188,2021-10-14,14:07:15,15:18:38,NA,incomplete,false,true,NA,2,0,NA,blue,m_s_079.jpg,NA,NA,pleasant,unpleasant,NA,NA,NA,NA,NA,right,2554.60000014305,true,NA,NA,NA,NA,NA
BeK70JTU,3mdwe879vkfdd3966pwqlqs2jwg9bh,3e1qt0tdftmp9q2wy9nvw1xwwzdi80,BeK70JTU,2020-0188,2021-10-14,14:07:15,15:18:38,NA,incomplete,false,true,NA,2,1,NA,blue,n_l_074.jpg,NA,NA,unpleasant,pleasant,NA,NA,NA,NA,NA,right,1855.70000004768,true,NA,NA,NA,NA,NA
BeK70JTU,3mdwe879vkfdd3966pwqlqs2jwg9bh,3e1qt0tdftmp9q2wy9nvw1xwwzdi80,BeK70JTU,2020-0188,2021-10-14,14:07:15,15:18:38,NA,incomplete,false,true,NA,2,2,NA,blue,m_s_068.jpg,NA,NA,pleasant,unpleasant,NA,NA,NA,NA,NA,right,1526.39999985695,true,NA,NA,NA,NA,NA
BeK70JTU,3mdwe879vkfdd3966pwqlqs2jwg9bh,3e1qt0tdftmp9q2wy9nvw1xwwzdi80,BeK70JTU,2020-0188,2021-10-14,14:07:15,15:18:38,NA,incomplete,false,true,NA,2,3,NA,blue,n_s_095.jpg,NA,NA,pleasant,unpleasant,NA,NA,NA,NA,NA,left,2027.40000009537,true,NA,NA,NA,NA,NA
BeK70JTU,3mdwe879vkfdd3966pwqlqs2jwg9bh,3e1qt0tdftmp9q2wy9nvw1xwwzdi80,BeK70JTU,2020-0188,2021-10-14,14:07:15,15:18:38,NA,incomplete,false,true,NA,2,4,NA,blue,n_l_035.jpg,NA,NA,unpleasant,pleasant,NA,NA,NA,NA,NA,right,1307.29999995232,true,NA,NA,NA,NA,NA
BeK70JTU,3mdwe879vkfdd3966pwqlqs2jwg9bh,3e1qt0tdftmp9q2wy9nvw1xwwzdi80,BeK70JTU,2020-0188,2021-10-14,14:07:15,15:18:38,NA,incomplete,false,true,NA,2,5,NA,blue,n_s_060.jpg,NA,NA,pleasant,unpleasant,NA,NA,NA,NA,NA,left,2239.60000014305,true,NA,NA,NA,NA,NA
BeK70JTU,3mdwe879vkfdd3966pwqlqs2jwg9bh,3e1qt0tdftmp9q2wy9nvw1xwwzdi80,BeK70JTU,2020-0188,2021-10-14,14:07:15,15:18:38,NA,incomplete,false,true,NA,2,6,NA,white,m_s_066.jpg,NA,NA,pleasant,unpleasant,NA,NA,NA,NA,NA,right,2089.89999985695,true,NA,NA,NA,NA,NA
BeK70JTU,3mdwe879vkfdd3966pwqlqs2jwg9bh,3e1qt0tdftmp9q2wy9nvw1xwwzdi80,BeK70JTU,2020-0188,2021-10-14,14:07:15,15:18:38,NA,incomplete,false,true,NA,2,7,NA,white,n_s_087.jpg,NA,NA,unpleasant,pleasant,NA,NA,NA,NA,NA,right,1430.59999990463,true,NA,NA,NA,NA,NA
BeK70JTU,3mdwe879vkfdd3966pwqlqs2jwg9bh,3e1qt0tdftmp9q2wy9nvw1xwwzdi80,BeK70JTU,2020-0188,2021-10-14,14:07:15,15:18:38,NA,incomplete,false,true,NA,2,8,NA,white,n_s_029.jpg,NA,NA,unpleasant,pleasant,NA,NA,NA,NA,NA,right,1287.39999985695,true,NA,NA,NA,NA,NA
BeK70JTU,3mdwe879vkfdd3966pwqlqs2jwg9bh,3e1qt0tdftmp9q2wy9nvw1xwwzdi80,BeK70JTU,2020-0188,2021-10-14,14:07:15,15:18:38,NA,incomplete,false,true,NA,2,9,NA,white,n_l_079.jpg,NA,NA,pleasant,unpleasant,NA,NA,NA,NA,NA,left,1342.20000004768,true,NA,NA,NA,NA,NA
BeK70JTU,3mdwe879vkfdd3966pwqlqs2jwg9bh,3e1qt0tdftmp9q2wy9nvw1xwwzdi80,BeK70JTU,2020-0188,2021-10-14,14:07:15,15:18:38,NA,incomplete,false,true,NA,2,10,NA,white,m_l_072.jpg,NA,NA,unpleasant,pleasant,NA,NA,NA,NA,NA,left,1877.79999995232,true,NA,NA,NA,NA,NA
BeK70JTU,3mdwe879vkfdd3966pwqlqs2jwg9bh,3e1qt0tdftmp9q2wy9nvw1xwwzdi80,BeK70JTU,2020-0188,2021-10-14,14:07:15,15:18:38,NA,incomplete,false,true,NA,2,11,NA,white,n_s_028.jpg,NA,NA,unpleasant,pleasant,NA,NA,NA,NA,NA,right,1343.39999985695,true,NA,NA,NA,NA,NA
BeK70JTU,3mdwe879vkfdd3966pwqlqs2jwg9bh,3e1qt0tdftmp9q2wy9nvw1xwwzdi80,BeK70JTU,2020-0188,2021-10-14,14:07:15,15:18:38,NA,incomplete,false,true,NA,2,12,NA,purple,m_l_057.jpg,NA,NA,unpleasant,pleasant,NA,NA,NA,NA,NA,left,2094.40000009537,true,NA,NA,NA,NA,NA
BeK70JTU,3mdwe879vkfdd3966pwqlqs2jwg9bh,3e1qt0tdftmp9q2wy9nvw1xwwzdi80,BeK70JTU,2020-0188,2021-10-14,14:07:15,15:18:38,NA,incomplete,false,true,NA,2,13,NA,purple,m_l_101.jpg,NA,NA,pleasant,unpleasant,NA,NA,NA,NA,NA,right,1335.79999995232,true,NA,NA,NA,NA,NA
BeK70JTU,3mdwe879vkfdd3966pwqlqs2jwg9bh,3e1qt0tdftmp9q2wy9nvw1xwwzdi80,BeK70JTU,2020-0188,2021-10-14,14:07:15,15:18:38,NA,incomplete,false,true,NA,2,14,NA,purple,n_s_055.jpg,NA,NA,pleasant,unpleasant,NA,NA,NA,NA,NA,left,2706,true,NA,NA,NA,NA,NA
BeK70JTU,3mdwe879vkfdd3966pwqlqs2jwg9bh,3e1qt0tdftmp9q2wy9nvw1xwwzdi80,BeK70JTU,2020-0188,2021-10-14,14:07:15,15:18:38,NA,incomplete,false,true,NA,2,15,NA,purple,m_s_084.jpg,NA,NA,pleasant,unpleasant,NA,NA,NA,NA,NA,right,1496.5,true,NA,NA,NA,NA,NA
BeK70JTU,3mdwe879vkfdd3966pwqlqs2jwg9bh,3e1qt0tdftmp9q2wy9nvw1xwwzdi80,BeK70JTU,2020-0188,2021-10-14,14:07:15,15:18:38,NA,incomplete,false,true,NA,2,16,NA,purple,n_s_080.jpg,NA,NA,unpleasant,pleasant,NA,NA,NA,NA,NA,right,1349.09999990463,true,NA,NA,NA,NA,NA
BeK70JTU,3mdwe879vkfdd3966pwqlqs2jwg9bh,3e1qt0tdftmp9q2wy9nvw1xwwzdi80,BeK70JTU,2020-0188,2021-10-14,14:07:15,15:18:38,NA,incomplete,false,true,NA,2,17,NA,purple,n_s_046.jpg,NA,NA,pleasant,unpleasant,NA,NA,NA,NA,NA,left,1506.20000004768,true,NA,NA,NA,NA,NA
BeK70JTU,3mdwe879vkfdd3966pwqlqs2jwg9bh,3e1qt0tdftmp9q2wy9nvw1xwwzdi80,BeK70JTU,2020-0188,2021-10-14,14:07:15,15:18:38,NA,incomplete,false,true,NA,2,18,NA,brown,m_s_016.jpg,NA,NA,unpleasant,pleasant,NA,NA,NA,NA,NA,left,1597.29999995232,true,NA,NA,NA,NA,NA
BeK70JTU,3mdwe879vkfdd3966pwqlqs2jwg9bh,3e1qt0tdftmp9q2wy9nvw1xwwzdi80,BeK70JTU,2020-0188,2021-10-14,14:07:15,15:18:38,NA,incomplete,false,true,NA,2,19,NA,brown,m_l_098.jpg,NA,NA,pleasant,unpleasant,NA,NA,NA,NA,NA,right,2487.20000004768,true,NA,NA,NA,NA,NA
BeK70JTU,3mdwe879vkfdd3966pwqlqs2jwg9bh,3e1qt0tdftmp9q2wy9nvw1xwwzdi80,BeK70JTU,2020-0188,2021-10-14,14:07:15,15:18:38,NA,incomplete,false,true,NA,2,20,NA,brown,m_l_065.jpg,NA,NA,unpleasant,pleasant,NA,NA,NA,NA,NA,right,3317.70000004768,true,NA,NA,NA,NA,NA
BeK70JTU,3mdwe879vkfdd3966pwqlqs2jwg9bh,3e1qt0tdftmp9q2wy9nvw1xwwzdi80,BeK70JTU,2020-0188,2021-10-14,14:07:15,15:18:38,NA,incomplete,false,true,NA,2,21,NA,brown,m_s_026.jpg,NA,NA,pleasant,unpleasant,NA,NA,NA,NA,NA,right,2148,true,NA,NA,NA,NA,NA
BeK70JTU,3mdwe879vkfdd3966pwqlqs2jwg9bh,3e1qt0tdftmp9q2wy9nvw1xwwzdi80,BeK70JTU,2020-0188,2021-10-14,14:07:15,15:18:38,NA,incomplete,false,true,NA,2,22,NA,brown,m_l_115.jpg,NA,NA,pleasant,unpleasant,NA,NA,NA,NA,NA,right,1370.09999990463,true,NA,NA,NA,NA,NA
BeK70JTU,3mdwe879vkfdd3966pwqlqs2jwg9bh,3e1qt0tdftmp9q2wy9nvw1xwwzdi80,BeK70JTU,2020-0188,2021-10-14,14:07:15,15:18:38,NA,incomplete,false,true,NA,2,23,NA,brown,n_s_065.jpg,NA,NA,pleasant,unpleasant,NA,NA,NA,NA,NA,left,1330,true,NA,NA,NA,NA,NA
BeK70JTU,3mdwe879vkfdd3966pwqlqs2jwg9bh,3e1qt0tdftmp9q2wy9nvw1xwwzdi80,BeK70JTU,2020-0188,2021-10-14,14:07:15,15:18:38,NA,incomplete,false,true,NA,2,24,NA,red,m_s_081.jpg,NA,NA,pleasant,unpleasant,NA,NA,NA,NA,NA,right,1522.5,true,NA,NA,NA,NA,NA
BeK70JTU,3mdwe879vkfdd3966pwqlqs2jwg9bh,3e1qt0tdftmp9q2wy9nvw1xwwzdi80,BeK70JTU,2020-0188,2021-10-14,14:07:15,15:18:38,NA,incomplete,false,true,NA,2,25,NA,red,m_s_113.jpg,NA,NA,pleasant,unpleasant,NA,NA,NA,NA,NA,right,1946.89999985695,true,NA,NA,NA,NA,NA
BeK70JTU,3mdwe879vkfdd3966pwqlqs2jwg9bh,3e1qt0tdftmp9q2wy9nvw1xwwzdi80,BeK70JTU,2020-0188,2021-10-14,14:07:15,15:18:38,NA,incomplete,false,true,NA,2,26,NA,red,m_s_059.jpg,NA,NA,unpleasant,pleasant,NA,NA,NA,NA,NA,right,2193.09999990463,true,NA,NA,NA,NA,NA
BeK70JTU,3mdwe879vkfdd3966pwqlqs2jwg9bh,3e1qt0tdftmp9q2wy9nvw1xwwzdi80,BeK70JTU,2020-0188,2021-10-14,14:07:15,15:18:38,NA,incomplete,false,true,NA,2,27,NA,red,m_l_078.jpg,NA,NA,unpleasant,pleasant,NA,NA,NA,NA,NA,left,1643.60000014305,true,NA,NA,NA,NA,NA
BeK70JTU,3mdwe879vkfdd3966pwqlqs2jwg9bh,3e1qt0tdftmp9q2wy9nvw1xwwzdi80,BeK70JTU,2020-0188,2021-10-14,14:07:15,15:18:38,NA,incomplete,false,true,NA,2,28,NA,red,m_l_103.jpg,NA,NA,unpleasant,pleasant,NA,NA,NA,NA,NA,left,2073.5,true,NA,NA,NA,NA,NA
BeK70JTU,3mdwe879vkfdd3966pwqlqs2jwg9bh,3e1qt0tdftmp9q2wy9nvw1xwwzdi80,BeK70JTU,2020-0188,2021-10-14,14:07:15,15:18:38,NA,incomplete,false,true,NA,2,29,NA,red,n_l_110.jpg,NA,NA,unpleasant,pleasant,NA,NA,NA,NA,NA,right,2678.09999990463,true,NA,NA,NA,NA,NA
BeK70JTU,3mdwe879vkfdd3966pwqlqs2jwg9bh,3e1qt0tdftmp9q2wy9nvw1xwwzdi80,BeK70JTU,2020-0188,2021-10-14,14:07:15,15:18:38,NA,incomplete,false,true,NA,2,30,NA,gray,n_s_003.jpg,NA,NA,pleasant,unpleasant,NA,NA,NA,NA,NA,left,2817.39999985695,true,NA,NA,NA,NA,NA
BeK70JTU,3mdwe879vkfdd3966pwqlqs2jwg9bh,3e1qt0tdftmp9q2wy9nvw1xwwzdi80,BeK70JTU,2020-0188,2021-10-14,14:07:15,15:18:38,NA,incomplete,false,true,NA,2,31,NA,gray,m_s_045.jpg,NA,NA,unpleasant,pleasant,NA,NA,NA,NA,NA,left,2007.29999995232,true,NA,NA,NA,NA,NA
BeK70JTU,3mdwe879vkfdd3966pwqlqs2jwg9bh,3e1qt0tdftmp9q2wy9nvw1xwwzdi80,BeK70JTU,2020-0188,2021-10-14,14:07:15,15:18:38,NA,incomplete,false,true,NA,2,32,NA,gray,n_s_022.jpg,NA,NA,unpleasant,pleasant,NA,NA,NA,NA,NA,right,1447.70000004768,true,NA,NA,NA,NA,NA
BeK70JTU,3mdwe879vkfdd3966pwqlqs2jwg9bh,3e1qt0tdftmp9q2wy9nvw1xwwzdi80,BeK70JTU,2020-0188,2021-10-14,14:07:15,15:18:38,NA,incomplete,false,true,NA,2,33,NA,gray,m_s_013.jpg,NA,NA,pleasant,unpleasant,NA,NA,NA,NA,NA,right,1432.59999990463,true,NA,NA,NA,NA,NA
BeK70JTU,3mdwe879vkfdd3966pwqlqs2jwg9bh,3e1qt0tdftmp9q2wy9nvw1xwwzdi80,BeK70JTU,2020-0188,2021-10-14,14:07:15,15:18:38,NA,incomplete,false,true,NA,2,34,NA,gray,m_l_037.jpg,NA,NA,pleasant,unpleasant,NA,NA,NA,NA,NA,right,1439.40000009537,true,NA,NA,NA,NA,NA
BeK70JTU,3mdwe879vkfdd3966pwqlqs2jwg9bh,3e1qt0tdftmp9q2wy9nvw1xwwzdi80,BeK70JTU,2020-0188,2021-10-14,14:07:15,15:18:38,NA,incomplete,false,true,NA,2,35,NA,gray,m_l_090.jpg,NA,NA,pleasant,unpleasant,NA,NA,NA,NA,NA,right,1603.5,true,NA,NA,NA,NA,NA
BeK70JTU,3mdwe879vkfdd3966pwqlqs2jwg9bh,3e1qt0tdftmp9q2wy9nvw1xwwzdi80,BeK70JTU,2020-0188,2021-10-14,14:07:15,15:18:38,NA,incomplete,false,NA,true,2,0,NA,NA,NA,left,present,NA,NA,m_s_113.jpg,red,n_l_110.jpg,red,within,NA,NaN,NA,left,4205.599999904633,1,0,3126.9000000953674
BeK70JTU,3mdwe879vkfdd3966pwqlqs2jwg9bh,3e1qt0tdftmp9q2wy9nvw1xwwzdi80,BeK70JTU,2020-0188,2021-10-14,14:07:15,15:18:38,NA,incomplete,false,NA,true,2,1,NA,NA,NA,left,present,NA,NA,n_l_074.jpg,blue,n_s_060.jpg,blue,within,NA,NaN,NA,left,3227.800000190735,1,0,1396.5
BeK70JTU,3mdwe879vkfdd3966pwqlqs2jwg9bh,3e1qt0tdftmp9q2wy9nvw1xwwzdi80,BeK70JTU,2020-0188,2021-10-14,14:07:15,15:18:38,NA,incomplete,false,NA,true,2,2,NA,NA,NA,right,present,NA,NA,n_s_046.jpg,purple,m_l_101.jpg,purple,within,NA,NaN,NA,left,2918,0,0,2277.0999999046326
BeK70JTU,3mdwe879vkfdd3966pwqlqs2jwg9bh,3e1qt0tdftmp9q2wy9nvw1xwwzdi80,BeK70JTU,2020-0188,2021-10-14,14:07:15,15:18:38,NA,incomplete,false,NA,true,2,3,NA,NA,NA,left,present,NA,NA,n_l_035.jpg,blue,n_s_029.jpg,white,between,NA,NaN,NA,right,3028.2999999523163,0,0,1507.5999999046326
BeK70JTU,3mdwe879vkfdd3966pwqlqs2jwg9bh,3e1qt0tdftmp9q2wy9nvw1xwwzdi80,BeK70JTU,2020-0188,2021-10-14,14:07:15,15:18:38,NA,incomplete,false,NA,true,2,4,NA,NA,NA,left,present,NA,NA,m_l_115.jpg,brown,m_s_059.jpg,red,between,NA,NaN,NA,left,2756.899999856949,1,0,1695.5
BeK70JTU,3mdwe879vkfdd3966pwqlqs2jwg9bh,3e1qt0tdftmp9q2wy9nvw1xwwzdi80,BeK70JTU,2020-0188,2021-10-14,14:07:15,15:18:38,NA,incomplete,false,NA,true,2,5,NA,NA,NA,left,present,NA,NA,m_l_072.jpg,white,n_s_055.jpg,purple,between,NA,NaN,NA,right,3305.899999856949,0,0,1822.1000001430511
BeK70JTU,3mdwe879vkfdd3966pwqlqs2jwg9bh,3e1qt0tdftmp9q2wy9nvw1xwwzdi80,BeK70JTU,2020-0188,2021-10-14,14:07:15,15:18:38,NA,incomplete,false,NA,true,2,6,NA,NA,NA,left,present,NA,NA,m_l_098.jpg,brown,n_s_065.jpg,brown,within,NA,NaN,NA,left,5092.5,1,0,1737.5
BeK70JTU,3mdwe879vkfdd3966pwqlqs2jwg9bh,3e1qt0tdftmp9q2wy9nvw1xwwzdi80,BeK70JTU,2020-0188,2021-10-14,14:07:15,15:18:38,NA,incomplete,false,NA,true,2,7,NA,NA,NA,right,present,NA,NA,n_s_022.jpg,gray,m_l_103.jpg,red,between,NA,NaN,NA,left,3277.4000000953674,0,0,1827.4000000953674
BeK70JTU,3mdwe879vkfdd3966pwqlqs2jwg9bh,3e1qt0tdftmp9q2wy9nvw1xwwzdi80,BeK70JTU,2020-0188,2021-10-14,14:07:15,15:18:38,NA,incomplete,false,NA,true,2,8,NA,NA,NA,left,present,NA,NA,n_s_080.jpg,purple,m_l_065.jpg,brown,between,NA,NaN,NA,left,3188.100000143051,1,0,1488.3000001907349
BeK70JTU,3mdwe879vkfdd3966pwqlqs2jwg9bh,3e1qt0tdftmp9q2wy9nvw1xwwzdi80,BeK70JTU,2020-0188,2021-10-14,14:07:15,15:18:38,NA,incomplete,false,NA,true,2,9,NA,NA,NA,left,present,NA,NA,n_s_087.jpg,white,n_s_028.jpg,white,within,NA,NaN,NA,left,4418.5,1,0,1792.2000000476837
BeK70JTU,3mdwe879vkfdd3966pwqlqs2jwg9bh,3e1qt0tdftmp9q2wy9nvw1xwwzdi80,BeK70JTU,2020-0188,2021-10-14,14:07:15,15:18:38,NA,incomplete,false,NA,true,2,10,NA,NA,NA,left,present,NA,NA,m_s_045.jpg,gray,m_l_090.jpg,gray,within,NA,NaN,NA,right,3130.2999999523163,0,0,3644.2999999523163
BeK70JTU,3mdwe879vkfdd3966pwqlqs2jwg9bh,3e1qt0tdftmp9q2wy9nvw1xwwzdi80,BeK70JTU,2020-0188,2021-10-14,14:07:15,15:18:38,NA,incomplete,false,true,NA,3,0,NA,orange,n_s_020.jpg,NA,NA,unpleasant,pleasant,NA,NA,NA,NA,NA,left,3344.09999990463,true,NA,NA,NA,NA,NA
BeK70JTU,3mdwe879vkfdd3966pwqlqs2jwg9bh,3e1qt0tdftmp9q2wy9nvw1xwwzdi80,BeK70JTU,2020-0188,2021-10-14,14:07:15,15:18:38,NA,incomplete,false,true,NA,3,1,NA,orange,n_s_051.jpg,NA,NA,pleasant,unpleasant,NA,NA,NA,NA,NA,left,1594.09999990463,true,NA,NA,NA,NA,NA
BeK70JTU,3mdwe879vkfdd3966pwqlqs2jwg9bh,3e1qt0tdftmp9q2wy9nvw1xwwzdi80,BeK70JTU,2020-0188,2021-10-14,14:07:15,15:18:38,NA,incomplete,false,true,NA,3,2,NA,orange,n_s_062.jpg,NA,NA,pleasant,unpleasant,NA,NA,NA,NA,NA,left,1444.39999985695,true,NA,NA,NA,NA,NA
BeK70JTU,3mdwe879vkfdd3966pwqlqs2jwg9bh,3e1qt0tdftmp9q2wy9nvw1xwwzdi80,BeK70JTU,2020-0188,2021-10-14,14:07:15,15:18:38,NA,incomplete,false,true,NA,3,3,NA,orange,m_l_028.jpg,NA,NA,pleasant,unpleasant,NA,NA,NA,NA,NA,right,1653.19999980927,true,NA,NA,NA,NA,NA
BeK70JTU,3mdwe879vkfdd3966pwqlqs2jwg9bh,3e1qt0tdftmp9q2wy9nvw1xwwzdi80,BeK70JTU,2020-0188,2021-10-14,14:07:15,15:18:38,NA,incomplete,false,true,NA,3,4,NA,orange,n_l_098.jpg,NA,NA,pleasant,unpleasant,NA,NA,NA,NA,NA,left,1406,true,NA,NA,NA,NA,NA
BeK70JTU,3mdwe879vkfdd3966pwqlqs2jwg9bh,3e1qt0tdftmp9q2wy9nvw1xwwzdi80,BeK70JTU,2020-0188,2021-10-14,14:07:15,15:18:38,NA,incomplete,false,true,NA,3,5,NA,orange,n_s_061.jpg,NA,NA,unpleasant,pleasant,NA,NA,NA,NA,NA,right,1718,true,NA,NA,NA,NA,NA
BeK70JTU,3mdwe879vkfdd3966pwqlqs2jwg9bh,3e1qt0tdftmp9q2wy9nvw1xwwzdi80,BeK70JTU,2020-0188,2021-10-14,14:07:15,15:18:38,NA,incomplete,false,true,NA,3,6,NA,gray,n_s_091.jpg,NA,NA,pleasant,unpleasant,NA,NA,NA,NA,NA,left,1408.40000009537,true,NA,NA,NA,NA,NA
BeK70JTU,3mdwe879vkfdd3966pwqlqs2jwg9bh,3e1qt0tdftmp9q2wy9nvw1xwwzdi80,BeK70JTU,2020-0188,2021-10-14,14:07:15,15:18:38,NA,incomplete,false,true,NA,3,7,NA,gray,m_l_071.jpg,NA,NA,unpleasant,pleasant,NA,NA,NA,NA,NA,left,1897.20000004768,true,NA,NA,NA,NA,NA
BeK70JTU,3mdwe879vkfdd3966pwqlqs2jwg9bh,3e1qt0tdftmp9q2wy9nvw1xwwzdi80,BeK70JTU,2020-0188,2021-10-14,14:07:15,15:18:38,NA,incomplete,false,true,NA,3,8,NA,gray,m_l_004.jpg,NA,NA,pleasant,unpleasant,NA,NA,NA,NA,NA,right,1355,true,NA,NA,NA,NA,NA
BeK70JTU,3mdwe879vkfdd3966pwqlqs2jwg9bh,3e1qt0tdftmp9q2wy9nvw1xwwzdi80,BeK70JTU,2020-0188,2021-10-14,14:07:15,15:18:38,NA,incomplete,false,true,NA,3,9,NA,gray,n_s_100.jpg,NA,NA,pleasant,unpleasant,NA,NA,NA,NA,NA,left,1500,true,NA,NA,NA,NA,NA
BeK70JTU,3mdwe879vkfdd3966pwqlqs2jwg9bh,3e1qt0tdftmp9q2wy9nvw1xwwzdi80,BeK70JTU,2020-0188,2021-10-14,14:07:15,15:18:38,NA,incomplete,false,true,NA,3,10,NA,gray,n_l_036.jpg,NA,NA,pleasant,unpleasant,NA,NA,NA,NA,NA,left,1440.79999995232,true,NA,NA,NA,NA,NA
BeK70JTU,3mdwe879vkfdd3966pwqlqs2jwg9bh,3e1qt0tdftmp9q2wy9nvw1xwwzdi80,BeK70JTU,2020-0188,2021-10-14,14:07:15,15:18:38,NA,incomplete,false,true,NA,3,11,NA,gray,m_l_079.jpg,NA,NA,unpleasant,pleasant,NA,NA,NA,NA,NA,left,1391.59999990463,true,NA,NA,NA,NA,NA
BeK70JTU,3mdwe879vkfdd3966pwqlqs2jwg9bh,3e1qt0tdftmp9q2wy9nvw1xwwzdi80,BeK70JTU,2020-0188,2021-10-14,14:07:15,15:18:38,NA,incomplete,false,true,NA,3,12,NA,yellow,n_l_100.jpg,NA,NA,unpleasant,pleasant,NA,NA,NA,NA,NA,right,1212.59999990463,true,NA,NA,NA,NA,NA
BeK70JTU,3mdwe879vkfdd3966pwqlqs2jwg9bh,3e1qt0tdftmp9q2wy9nvw1xwwzdi80,BeK70JTU,2020-0188,2021-10-14,14:07:15,15:18:38,NA,incomplete,false,true,NA,3,13,NA,yellow,m_l_076.jpg,NA,NA,unpleasant,pleasant,NA,NA,NA,NA,NA,left,1583.29999995232,true,NA,NA,NA,NA,NA
BeK70JTU,3mdwe879vkfdd3966pwqlqs2jwg9bh,3e1qt0tdftmp9q2wy9nvw1xwwzdi80,BeK70JTU,2020-0188,2021-10-14,14:07:15,15:18:38,NA,incomplete,false,true,NA,3,14,NA,yellow,m_s_085.jpg,NA,NA,unpleasant,pleasant,NA,NA,NA,NA,NA,left,1390.19999980927,true,NA,NA,NA,NA,NA
BeK70JTU,3mdwe879vkfdd3966pwqlqs2jwg9bh,3e1qt0tdftmp9q2wy9nvw1xwwzdi80,BeK70JTU,2020-0188,2021-10-14,14:07:15,15:18:38,NA,incomplete,false,true,NA,3,15,NA,yellow,n_s_094.jpg,NA,NA,pleasant,unpleasant,NA,NA,NA,NA,NA,left,1625.60000014305,true,NA,NA,NA,NA,NA
BeK70JTU,3mdwe879vkfdd3966pwqlqs2jwg9bh,3e1qt0tdftmp9q2wy9nvw1xwwzdi80,BeK70JTU,2020-0188,2021-10-14,14:07:15,15:18:38,NA,incomplete,false,true,NA,3,16,NA,yellow,n_l_103.jpg,NA,NA,unpleasant,pleasant,NA,NA,NA,NA,NA,right,1255.79999995232,true,NA,NA,NA,NA,NA
BeK70JTU,3mdwe879vkfdd3966pwqlqs2jwg9bh,3e1qt0tdftmp9q2wy9nvw1xwwzdi80,BeK70JTU,2020-0188,2021-10-14,14:07:15,15:18:38,NA,incomplete,false,true,NA,3,17,NA,yellow,n_l_007.jpg,NA,NA,unpleasant,pleasant,NA,NA,NA,NA,NA,right,1277.40000009537,true,NA,NA,NA,NA,NA
BeK70JTU,3mdwe879vkfdd3966pwqlqs2jwg9bh,3e1qt0tdftmp9q2wy9nvw1xwwzdi80,BeK70JTU,2020-0188,2021-10-14,14:07:15,15:18:38,NA,incomplete,false,true,NA,3,18,NA,brown,m_s_070.jpg,NA,NA,pleasant,unpleasant,NA,NA,NA,NA,NA,right,1445.79999995232,true,NA,NA,NA,NA,NA
BeK70JTU,3mdwe879vkfdd3966pwqlqs2jwg9bh,3e1qt0tdftmp9q2wy9nvw1xwwzdi80,BeK70JTU,2020-0188,2021-10-14,14:07:15,15:18:38,NA,incomplete,false,true,NA,3,19,NA,brown,n_l_002.jpg,NA,NA,pleasant,unpleasant,NA,NA,NA,NA,NA,left,1266.79999995232,true,NA,NA,NA,NA,NA
BeK70JTU,3mdwe879vkfdd3966pwqlqs2jwg9bh,3e1qt0tdftmp9q2wy9nvw1xwwzdi80,BeK70JTU,2020-0188,2021-10-14,14:07:15,15:18:38,NA,incomplete,false,true,NA,3,20,NA,brown,n_s_099.jpg,NA,NA,unpleasant,pleasant,NA,NA,NA,NA,NA,right,1697.5,true,NA,NA,NA,NA,NA
BeK70JTU,3mdwe879vkfdd3966pwqlqs2jwg9bh,3e1qt0tdftmp9q2wy9nvw1xwwzdi80,BeK70JTU,2020-0188,2021-10-14,14:07:15,15:18:38,NA,incomplete,false,true,NA,3,21,NA,brown,m_s_096.jpg,NA,NA,unpleasant,pleasant,NA,NA,NA,NA,NA,left,1446.70000004768,true,NA,NA,NA,NA,NA
BeK70JTU,3mdwe879vkfdd3966pwqlqs2jwg9bh,3e1qt0tdftmp9q2wy9nvw1xwwzdi80,BeK70JTU,2020-0188,2021-10-14,14:07:15,15:18:38,NA,incomplete,false,true,NA,3,22,NA,brown,m_l_010.jpg,NA,NA,unpleasant,pleasant,NA,NA,NA,NA,NA,left,1347,true,NA,NA,NA,NA,NA
BeK70JTU,3mdwe879vkfdd3966pwqlqs2jwg9bh,3e1qt0tdftmp9q2wy9nvw1xwwzdi80,BeK70JTU,2020-0188,2021-10-14,14:07:15,15:18:38,NA,incomplete,false,true,NA,3,23,NA,brown,m_s_095.jpg,NA,NA,unpleasant,pleasant,NA,NA,NA,NA,NA,left,1338.39999985695,true,NA,NA,NA,NA,NA
BeK70JTU,3mdwe879vkfdd3966pwqlqs2jwg9bh,3e1qt0tdftmp9q2wy9nvw1xwwzdi80,BeK70JTU,2020-0188,2021-10-14,14:07:15,15:18:38,NA,incomplete,false,true,NA,3,24,NA,white,m_l_049.jpg,NA,NA,pleasant,unpleasant,NA,NA,NA,NA,NA,right,2249.70000004768,true,NA,NA,NA,NA,NA
BeK70JTU,3mdwe879vkfdd3966pwqlqs2jwg9bh,3e1qt0tdftmp9q2wy9nvw1xwwzdi80,BeK70JTU,2020-0188,2021-10-14,14:07:15,15:18:38,NA,incomplete,false,true,NA,3,25,NA,white,n_l_028.jpg,NA,NA,pleasant,unpleasant,NA,NA,NA,NA,NA,left,1329.79999995232,true,NA,NA,NA,NA,NA
BeK70JTU,3mdwe879vkfdd3966pwqlqs2jwg9bh,3e1qt0tdftmp9q2wy9nvw1xwwzdi80,BeK70JTU,2020-0188,2021-10-14,14:07:15,15:18:38,NA,incomplete,false,true,NA,3,26,NA,white,n_l_075.jpg,NA,NA,unpleasant,pleasant,NA,NA,NA,NA,NA,right,2894.89999985695,true,NA,NA,NA,NA,NA
BeK70JTU,3mdwe879vkfdd3966pwqlqs2jwg9bh,3e1qt0tdftmp9q2wy9nvw1xwwzdi80,BeK70JTU,2020-0188,2021-10-14,14:07:15,15:18:38,NA,incomplete,false,true,NA,3,27,NA,white,m_l_034.jpg,NA,NA,unpleasant,pleasant,NA,NA,NA,NA,NA,left,1392.40000009537,true,NA,NA,NA,NA,NA
BeK70JTU,3mdwe879vkfdd3966pwqlqs2jwg9bh,3e1qt0tdftmp9q2wy9nvw1xwwzdi80,BeK70JTU,2020-0188,2021-10-14,14:07:15,15:18:38,NA,incomplete,false,true,NA,3,28,NA,white,n_s_056.jpg,NA,NA,unpleasant,pleasant,NA,NA,NA,NA,NA,right,1328.29999995232,true,NA,NA,NA,NA,NA
BeK70JTU,3mdwe879vkfdd3966pwqlqs2jwg9bh,3e1qt0tdftmp9q2wy9nvw1xwwzdi80,BeK70JTU,2020-0188,2021-10-14,14:07:15,15:18:38,NA,incomplete,false,true,NA,3,29,NA,white,m_s_110.jpg,NA,NA,unpleasant,pleasant,NA,NA,NA,NA,NA,right,1635.20000004768,true,NA,NA,NA,NA,NA
BeK70JTU,3mdwe879vkfdd3966pwqlqs2jwg9bh,3e1qt0tdftmp9q2wy9nvw1xwwzdi80,BeK70JTU,2020-0188,2021-10-14,14:07:15,15:18:38,NA,incomplete,false,true,NA,3,30,NA,purple,n_l_087.jpg,NA,NA,pleasant,unpleasant,NA,NA,NA,NA,NA,left,1415.10000014305,true,NA,NA,NA,NA,NA
BeK70JTU,3mdwe879vkfdd3966pwqlqs2jwg9bh,3e1qt0tdftmp9q2wy9nvw1xwwzdi80,BeK70JTU,2020-0188,2021-10-14,14:07:15,15:18:38,NA,incomplete,false,true,NA,3,31,NA,purple,m_l_086.jpg,NA,NA,unpleasant,pleasant,NA,NA,NA,NA,NA,left,2423.79999995232,true,NA,NA,NA,NA,NA
BeK70JTU,3mdwe879vkfdd3966pwqlqs2jwg9bh,3e1qt0tdftmp9q2wy9nvw1xwwzdi80,BeK70JTU,2020-0188,2021-10-14,14:07:15,15:18:38,NA,incomplete,false,true,NA,3,32,NA,purple,n_l_113.jpg,NA,NA,unpleasant,pleasant,NA,NA,NA,NA,NA,right,2736.60000014305,true,NA,NA,NA,NA,NA
BeK70JTU,3mdwe879vkfdd3966pwqlqs2jwg9bh,3e1qt0tdftmp9q2wy9nvw1xwwzdi80,BeK70JTU,2020-0188,2021-10-14,14:07:15,15:18:38,NA,incomplete,false,true,NA,3,33,NA,purple,n_s_052.jpg,NA,NA,pleasant,unpleasant,NA,NA,NA,NA,NA,left,1577.10000014305,true,NA,NA,NA,NA,NA
BeK70JTU,3mdwe879vkfdd3966pwqlqs2jwg9bh,3e1qt0tdftmp9q2wy9nvw1xwwzdi80,BeK70JTU,2020-0188,2021-10-14,14:07:15,15:18:38,NA,incomplete,false,true,NA,3,34,NA,purple,m_s_005.jpg,NA,NA,unpleasant,pleasant,NA,NA,NA,NA,NA,left,1528,true,NA,NA,NA,NA,NA
BeK70JTU,3mdwe879vkfdd3966pwqlqs2jwg9bh,3e1qt0tdftmp9q2wy9nvw1xwwzdi80,BeK70JTU,2020-0188,2021-10-14,14:07:15,15:18:38,NA,incomplete,false,true,NA,3,35,NA,purple,m_l_033.jpg,NA,NA,unpleasant,pleasant,NA,NA,NA,NA,NA,left,1548.5,true,NA,NA,NA,NA,NA
BeK70JTU,3mdwe879vkfdd3966pwqlqs2jwg9bh,3e1qt0tdftmp9q2wy9nvw1xwwzdi80,BeK70JTU,2020-0188,2021-10-14,14:07:15,15:18:38,NA,incomplete,false,NA,true,3,0,NA,NA,NA,right,present,NA,NA,m_l_004.jpg,gray,n_l_098.jpg,orange,between,NA,NaN,NA,right,5974.900000095367,1,0,2138
BeK70JTU,3mdwe879vkfdd3966pwqlqs2jwg9bh,3e1qt0tdftmp9q2wy9nvw1xwwzdi80,BeK70JTU,2020-0188,2021-10-14,14:07:15,15:18:38,NA,incomplete,false,NA,true,3,1,NA,NA,NA,left,present,NA,NA,m_l_076.jpg,yellow,n_l_007.jpg,yellow,within,NA,NaN,NA,right,2897.699999809265,0,0,1728.1000001430511
BeK70JTU,3mdwe879vkfdd3966pwqlqs2jwg9bh,3e1qt0tdftmp9q2wy9nvw1xwwzdi80,BeK70JTU,2020-0188,2021-10-14,14:07:15,15:18:38,NA,incomplete,false,NA,true,3,2,NA,NA,NA,left,present,NA,NA,n_l_028.jpg,white,m_s_110.jpg,white,within,NA,NaN,NA,left,3867.9000000953674,1,0,1754.2000000476837
BeK70JTU,3mdwe879vkfdd3966pwqlqs2jwg9bh,3e1qt0tdftmp9q2wy9nvw1xwwzdi80,BeK70JTU,2020-0188,2021-10-14,14:07:15,15:18:38,NA,incomplete,false,NA,true,3,3,NA,NA,NA,right,present,NA,NA,n_s_061.jpg,orange,n_s_051.jpg,orange,within,NA,NaN,NA,right,3157.100000143051,1,0,1417.0999999046326
BeK70JTU,3mdwe879vkfdd3966pwqlqs2jwg9bh,3e1qt0tdftmp9q2wy9nvw1xwwzdi80,BeK70JTU,2020-0188,2021-10-14,14:07:15,15:18:38,NA,incomplete,false,NA,true,3,4,NA,NA,NA,left,present,NA,NA,m_l_071.jpg,gray,m_l_079.jpg,gray,within,NA,NaN,NA,right,2829.4000000953674,0,0,3497.5999999046326
BeK70JTU,3mdwe879vkfdd3966pwqlqs2jwg9bh,3e1qt0tdftmp9q2wy9nvw1xwwzdi80,BeK70JTU,2020-0188,2021-10-14,14:07:15,15:18:38,NA,incomplete,false,NA,true,3,5,NA,NA,NA,left,present,NA,NA,m_l_086.jpg,purple,m_l_033.jpg,purple,within,NA,NaN,NA,left,4314,1,0,2570.2999999523163
BeK70JTU,3mdwe879vkfdd3966pwqlqs2jwg9bh,3e1qt0tdftmp9q2wy9nvw1xwwzdi80,BeK70JTU,2020-0188,2021-10-14,14:07:15,15:18:38,NA,incomplete,false,NA,true,3,6,NA,NA,NA,right,present,NA,NA,n_l_113.jpg,purple,n_s_056.jpg,white,between,NA,NaN,NA,right,2222.399999856949,1,0,1856.8999998569489
BeK70JTU,3mdwe879vkfdd3966pwqlqs2jwg9bh,3e1qt0tdftmp9q2wy9nvw1xwwzdi80,BeK70JTU,2020-0188,2021-10-14,14:07:15,15:18:38,NA,incomplete,false,NA,true,3,7,NA,NA,NA,left,present,NA,NA,n_l_036.jpg,gray,m_s_085.jpg,yellow,between,NA,NaN,NA,left,2917.399999856949,1,0,2966.399999856949
BeK70JTU,3mdwe879vkfdd3966pwqlqs2jwg9bh,3e1qt0tdftmp9q2wy9nvw1xwwzdi80,BeK70JTU,2020-0188,2021-10-14,14:07:15,15:18:38,NA,incomplete,false,NA,true,3,8,NA,NA,NA,left,present,NA,NA,m_l_010.jpg,brown,n_l_075.jpg,white,between,NA,NaN,NA,right,5690.599999904633,0,3,30177.300000190735
BeK70JTU,3mdwe879vkfdd3966pwqlqs2jwg9bh,3e1qt0tdftmp9q2wy9nvw1xwwzdi80,BeK70JTU,2020-0188,2021-10-14,14:07:15,15:18:38,NA,incomplete,false,NA,true,3,9,NA,NA,NA,left,present,NA,NA,n_l_002.jpg,brown,m_s_095.jpg,brown,within,NA,NaN,NA,right,9028.299999952316,0,0,4541.900000095367
BeK70JTU,3mdwe879vkfdd3966pwqlqs2jwg9bh,3e1qt0tdftmp9q2wy9nvw1xwwzdi80,BeK70JTU,2020-0188,2021-10-14,14:07:15,15:18:38,NA,incomplete,false,NA,true,3,10,NA,NA,NA,left,present,NA,NA,n_l_103.jpg,yellow,n_s_099.jpg,brown,between,NA,NaN,NA,right,5892.200000047684,0,0,1762
BeK70JTU,3mdwe879vkfdd3966pwqlqs2jwg9bh,3e1qt0tdftmp9q2wy9nvw1xwwzdi80,BeK70JTU,2020-0188,2021-10-14,14:07:15,15:18:38,NA,incomplete,false,true,NA,4,0,NA,gray,m_l_013.jpg,NA,NA,pleasant,unpleasant,NA,NA,NA,NA,NA,right,2707.90000009537,true,NA,NA,NA,NA,NA
BeK70JTU,3mdwe879vkfdd3966pwqlqs2jwg9bh,3e1qt0tdftmp9q2wy9nvw1xwwzdi80,BeK70JTU,2020-0188,2021-10-14,14:07:15,15:18:38,NA,incomplete,false,true,NA,4,1,NA,gray,m_s_114.jpg,NA,NA,unpleasant,pleasant,NA,NA,NA,NA,NA,left,1572.09999990463,true,NA,NA,NA,NA,NA
BeK70JTU,3mdwe879vkfdd3966pwqlqs2jwg9bh,3e1qt0tdftmp9q2wy9nvw1xwwzdi80,BeK70JTU,2020-0188,2021-10-14,14:07:15,15:18:38,NA,incomplete,false,true,NA,4,2,NA,gray,m_l_048.jpg,NA,NA,unpleasant,pleasant,NA,NA,NA,NA,NA,left,1457.10000014305,true,NA,NA,NA,NA,NA
BeK70JTU,3mdwe879vkfdd3966pwqlqs2jwg9bh,3e1qt0tdftmp9q2wy9nvw1xwwzdi80,BeK70JTU,2020-0188,2021-10-14,14:07:15,15:18:38,NA,incomplete,false,true,NA,4,3,NA,gray,n_s_019.jpg,NA,NA,pleasant,unpleasant,NA,NA,NA,NA,NA,left,1238.20000004768,true,NA,NA,NA,NA,NA
BeK70JTU,3mdwe879vkfdd3966pwqlqs2jwg9bh,3e1qt0tdftmp9q2wy9nvw1xwwzdi80,BeK70JTU,2020-0188,2021-10-14,14:07:15,15:18:38,NA,incomplete,false,true,NA,4,4,NA,gray,n_l_115.jpg,NA,NA,pleasant,unpleasant,NA,NA,NA,NA,NA,left,1219.79999995232,true,NA,NA,NA,NA,NA
BeK70JTU,3mdwe879vkfdd3966pwqlqs2jwg9bh,3e1qt0tdftmp9q2wy9nvw1xwwzdi80,BeK70JTU,2020-0188,2021-10-14,14:07:15,15:18:38,NA,incomplete,false,true,NA,4,5,NA,gray,m_l_002.jpg,NA,NA,pleasant,unpleasant,NA,NA,NA,NA,NA,right,1326,true,NA,NA,NA,NA,NA
BeK70JTU,3mdwe879vkfdd3966pwqlqs2jwg9bh,3e1qt0tdftmp9q2wy9nvw1xwwzdi80,BeK70JTU,2020-0188,2021-10-14,14:07:15,15:18:38,NA,incomplete,false,true,NA,4,6,NA,orange,m_s_032.jpg,NA,NA,pleasant,unpleasant,NA,NA,NA,NA,NA,right,1881.20000004768,true,NA,NA,NA,NA,NA
BeK70JTU,3mdwe879vkfdd3966pwqlqs2jwg9bh,3e1qt0tdftmp9q2wy9nvw1xwwzdi80,BeK70JTU,2020-0188,2021-10-14,14:07:15,15:18:38,NA,incomplete,false,true,NA,4,7,NA,orange,m_l_041.jpg,NA,NA,pleasant,unpleasant,NA,NA,NA,NA,NA,right,1797.40000009537,true,NA,NA,NA,NA,NA
BeK70JTU,3mdwe879vkfdd3966pwqlqs2jwg9bh,3e1qt0tdftmp9q2wy9nvw1xwwzdi80,BeK70JTU,2020-0188,2021-10-14,14:07:15,15:18:38,NA,incomplete,false,true,NA,4,8,NA,orange,n_s_001.jpg,NA,NA,pleasant,unpleasant,NA,NA,NA,NA,NA,left,1278.79999995232,true,NA,NA,NA,NA,NA
BeK70JTU,3mdwe879vkfdd3966pwqlqs2jwg9bh,3e1qt0tdftmp9q2wy9nvw1xwwzdi80,BeK70JTU,2020-0188,2021-10-14,14:07:15,15:18:38,NA,incomplete,false,true,NA,4,9,NA,orange,n_l_011.jpg,NA,NA,pleasant,unpleasant,NA,NA,NA,NA,NA,left,1119.29999995232,true,NA,NA,NA,NA,NA
BeK70JTU,3mdwe879vkfdd3966pwqlqs2jwg9bh,3e1qt0tdftmp9q2wy9nvw1xwwzdi80,BeK70JTU,2020-0188,2021-10-14,14:07:15,15:18:38,NA,incomplete,false,true,NA,4,10,NA,orange,m_s_098.jpg,NA,NA,unpleasant,pleasant,NA,NA,NA,NA,NA,left,1448.09999990463,true,NA,NA,NA,NA,NA
BeK70JTU,3mdwe879vkfdd3966pwqlqs2jwg9bh,3e1qt0tdftmp9q2wy9nvw1xwwzdi80,BeK70JTU,2020-0188,2021-10-14,14:07:15,15:18:38,NA,incomplete,false,true,NA,4,11,NA,orange,n_l_106.jpg,NA,NA,pleasant,unpleasant,NA,NA,NA,NA,NA,left,1198.20000004768,true,NA,NA,NA,NA,NA
BeK70JTU,3mdwe879vkfdd3966pwqlqs2jwg9bh,3e1qt0tdftmp9q2wy9nvw1xwwzdi80,BeK70JTU,2020-0188,2021-10-14,14:07:15,15:18:38,NA,incomplete,false,true,NA,4,12,NA,brown,m_l_040.jpg,NA,NA,unpleasant,pleasant,NA,NA,NA,NA,NA,left,1502.90000009537,true,NA,NA,NA,NA,NA
BeK70JTU,3mdwe879vkfdd3966pwqlqs2jwg9bh,3e1qt0tdftmp9q2wy9nvw1xwwzdi80,BeK70JTU,2020-0188,2021-10-14,14:07:15,15:18:38,NA,incomplete,false,true,NA,4,13,NA,brown,n_l_029.jpg,NA,NA,unpleasant,pleasant,NA,NA,NA,NA,NA,right,1371.70000004768,true,NA,NA,NA,NA,NA
BeK70JTU,3mdwe879vkfdd3966pwqlqs2jwg9bh,3e1qt0tdftmp9q2wy9nvw1xwwzdi80,BeK70JTU,2020-0188,2021-10-14,14:07:15,15:18:38,NA,incomplete,false,true,NA,4,14,NA,brown,n_l_061.jpg,NA,NA,pleasant,unpleasant,NA,NA,NA,NA,NA,left,1232.40000009537,true,NA,NA,NA,NA,NA
BeK70JTU,3mdwe879vkfdd3966pwqlqs2jwg9bh,3e1qt0tdftmp9q2wy9nvw1xwwzdi80,BeK70JTU,2020-0188,2021-10-14,14:07:15,15:18:38,NA,incomplete,false,true,NA,4,15,NA,brown,m_l_059.jpg,NA,NA,unpleasant,pleasant,NA,NA,NA,NA,NA,left,1472.70000004768,true,NA,NA,NA,NA,NA
BeK70JTU,3mdwe879vkfdd3966pwqlqs2jwg9bh,3e1qt0tdftmp9q2wy9nvw1xwwzdi80,BeK70JTU,2020-0188,2021-10-14,14:07:15,15:18:38,NA,incomplete,false,true,NA,4,16,NA,brown,n_s_031.jpg,NA,NA,pleasant,unpleasant,NA,NA,NA,NA,NA,left,1281.5,true,NA,NA,NA,NA,NA
BeK70JTU,3mdwe879vkfdd3966pwqlqs2jwg9bh,3e1qt0tdftmp9q2wy9nvw1xwwzdi80,BeK70JTU,2020-0188,2021-10-14,14:07:15,15:18:38,NA,incomplete,false,true,NA,4,17,NA,brown,m_l_054.jpg,NA,NA,unpleasant,pleasant,NA,NA,NA,NA,NA,left,1432.79999995232,true,NA,NA,NA,NA,NA
BeK70JTU,3mdwe879vkfdd3966pwqlqs2jwg9bh,3e1qt0tdftmp9q2wy9nvw1xwwzdi80,BeK70JTU,2020-0188,2021-10-14,14:07:15,15:18:38,NA,incomplete,false,true,NA,4,18,NA,red,n_s_106.jpg,NA,NA,pleasant,unpleasant,NA,NA,NA,NA,NA,left,1827.69999980927,true,NA,NA,NA,NA,NA
BeK70JTU,3mdwe879vkfdd3966pwqlqs2jwg9bh,3e1qt0tdftmp9q2wy9nvw1xwwzdi80,BeK70JTU,2020-0188,2021-10-14,14:07:15,15:18:38,NA,incomplete,false,true,NA,4,19,NA,red,m_l_032.jpg,NA,NA,pleasant,unpleasant,NA,NA,NA,NA,NA,right,2456,true,NA,NA,NA,NA,NA
BeK70JTU,3mdwe879vkfdd3966pwqlqs2jwg9bh,3e1qt0tdftmp9q2wy9nvw1xwwzdi80,BeK70JTU,2020-0188,2021-10-14,14:07:15,15:18:38,NA,incomplete,false,true,NA,4,20,NA,red,n_s_066.jpg,NA,NA,pleasant,unpleasant,NA,NA,NA,NA,NA,left,1505.29999995232,true,NA,NA,NA,NA,NA
BeK70JTU,3mdwe879vkfdd3966pwqlqs2jwg9bh,3e1qt0tdftmp9q2wy9nvw1xwwzdi80,BeK70JTU,2020-0188,2021-10-14,14:07:15,15:18:38,NA,incomplete,false,true,NA,4,21,NA,red,m_s_002.jpg,NA,NA,pleasant,unpleasant,NA,NA,NA,NA,NA,right,3105,true,NA,NA,NA,NA,NA
BeK70JTU,3mdwe879vkfdd3966pwqlqs2jwg9bh,3e1qt0tdftmp9q2wy9nvw1xwwzdi80,BeK70JTU,2020-0188,2021-10-14,14:07:15,15:18:38,NA,incomplete,false,true,NA,4,22,NA,red,n_s_025.jpg,NA,NA,unpleasant,pleasant,NA,NA,NA,NA,NA,right,1315.79999995232,true,NA,NA,NA,NA,NA
BeK70JTU,3mdwe879vkfdd3966pwqlqs2jwg9bh,3e1qt0tdftmp9q2wy9nvw1xwwzdi80,BeK70JTU,2020-0188,2021-10-14,14:07:15,15:18:38,NA,incomplete,false,true,NA,4,23,NA,red,n_s_063.jpg,NA,NA,unpleasant,pleasant,NA,NA,NA,NA,NA,right,1365.70000004768,true,NA,NA,NA,NA,NA
BeK70JTU,3mdwe879vkfdd3966pwqlqs2jwg9bh,3e1qt0tdftmp9q2wy9nvw1xwwzdi80,BeK70JTU,2020-0188,2021-10-14,14:07:15,15:18:38,NA,incomplete,false,true,NA,4,24,NA,black,n_l_039.jpg,NA,NA,pleasant,unpleasant,NA,NA,NA,NA,NA,left,1275.70000004768,true,NA,NA,NA,NA,NA
BeK70JTU,3mdwe879vkfdd3966pwqlqs2jwg9bh,3e1qt0tdftmp9q2wy9nvw1xwwzdi80,BeK70JTU,2020-0188,2021-10-14,14:07:15,15:18:38,NA,incomplete,false,true,NA,4,25,NA,black,n_l_108.jpg,NA,NA,pleasant,unpleasant,NA,NA,NA,NA,NA,left,1208.09999990463,true,NA,NA,NA,NA,NA
BeK70JTU,3mdwe879vkfdd3966pwqlqs2jwg9bh,3e1qt0tdftmp9q2wy9nvw1xwwzdi80,BeK70JTU,2020-0188,2021-10-14,14:07:15,15:18:38,NA,incomplete,false,true,NA,4,26,NA,black,m_l_082.jpg,NA,NA,unpleasant,pleasant,NA,NA,NA,NA,NA,left,1199.39999985695,true,NA,NA,NA,NA,NA
BeK70JTU,3mdwe879vkfdd3966pwqlqs2jwg9bh,3e1qt0tdftmp9q2wy9nvw1xwwzdi80,BeK70JTU,2020-0188,2021-10-14,14:07:15,15:18:38,NA,incomplete,false,true,NA,4,27,NA,black,n_l_076.jpg,NA,NA,unpleasant,pleasant,NA,NA,NA,NA,NA,right,1694,true,NA,NA,NA,NA,NA
BeK70JTU,3mdwe879vkfdd3966pwqlqs2jwg9bh,3e1qt0tdftmp9q2wy9nvw1xwwzdi80,BeK70JTU,2020-0188,2021-10-14,14:07:15,15:18:38,NA,incomplete,false,true,NA,4,28,NA,black,m_s_003.jpg,NA,NA,pleasant,unpleasant,NA,NA,NA,NA,NA,right,1637.5,true,NA,NA,NA,NA,NA
BeK70JTU,3mdwe879vkfdd3966pwqlqs2jwg9bh,3e1qt0tdftmp9q2wy9nvw1xwwzdi80,BeK70JTU,2020-0188,2021-10-14,14:07:15,15:18:38,NA,incomplete,false,true,NA,4,29,NA,black,m_l_105.jpg,NA,NA,unpleasant,pleasant,NA,NA,NA,NA,NA,left,1448.60000014305,true,NA,NA,NA,NA,NA
BeK70JTU,3mdwe879vkfdd3966pwqlqs2jwg9bh,3e1qt0tdftmp9q2wy9nvw1xwwzdi80,BeK70JTU,2020-0188,2021-10-14,14:07:15,15:18:38,NA,incomplete,false,true,NA,4,30,NA,purple,n_s_030.jpg,NA,NA,pleasant,unpleasant,NA,NA,NA,NA,NA,left,1368.59999990463,true,NA,NA,NA,NA,NA
BeK70JTU,3mdwe879vkfdd3966pwqlqs2jwg9bh,3e1qt0tdftmp9q2wy9nvw1xwwzdi80,BeK70JTU,2020-0188,2021-10-14,14:07:15,15:18:38,NA,incomplete,false,true,NA,4,31,NA,purple,m_s_004.jpg,NA,NA,pleasant,unpleasant,NA,NA,NA,NA,NA,right,1304.20000004768,true,NA,NA,NA,NA,NA
BeK70JTU,3mdwe879vkfdd3966pwqlqs2jwg9bh,3e1qt0tdftmp9q2wy9nvw1xwwzdi80,BeK70JTU,2020-0188,2021-10-14,14:07:15,15:18:38,NA,incomplete,false,true,NA,4,32,NA,purple,n_l_090.jpg,NA,NA,unpleasant,pleasant,NA,NA,NA,NA,NA,left,1630.09999990463,true,NA,NA,NA,NA,NA
BeK70JTU,3mdwe879vkfdd3966pwqlqs2jwg9bh,3e1qt0tdftmp9q2wy9nvw1xwwzdi80,BeK70JTU,2020-0188,2021-10-14,14:07:15,15:18:38,NA,incomplete,false,true,NA,4,33,NA,purple,n_s_110.jpg,NA,NA,unpleasant,pleasant,NA,NA,NA,NA,NA,right,1249.69999980927,true,NA,NA,NA,NA,NA
BeK70JTU,3mdwe879vkfdd3966pwqlqs2jwg9bh,3e1qt0tdftmp9q2wy9nvw1xwwzdi80,BeK70JTU,2020-0188,2021-10-14,14:07:15,15:18:38,NA,incomplete,false,true,NA,4,34,NA,purple,m_l_089.jpg,NA,NA,pleasant,unpleasant,NA,NA,NA,NA,NA,right,1811.39999985695,true,NA,NA,NA,NA,NA
BeK70JTU,3mdwe879vkfdd3966pwqlqs2jwg9bh,3e1qt0tdftmp9q2wy9nvw1xwwzdi80,BeK70JTU,2020-0188,2021-10-14,14:07:15,15:18:38,NA,incomplete,false,true,NA,4,35,NA,purple,n_l_064.jpg,NA,NA,pleasant,unpleasant,NA,NA,NA,NA,NA,left,1383.20000004768,true,NA,NA,NA,NA,NA
BeK70JTU,3mdwe879vkfdd3966pwqlqs2jwg9bh,3e1qt0tdftmp9q2wy9nvw1xwwzdi80,BeK70JTU,2020-0188,2021-10-14,14:07:15,15:18:38,NA,incomplete,false,NA,true,4,0,NA,NA,NA,left,absent,NA,NA,n_l_108.jpg,black,m_l_105.jpg,black,within,NA,NaN,NA,left,2917.899999856949,1,0,1835.5
BeK70JTU,3mdwe879vkfdd3966pwqlqs2jwg9bh,3e1qt0tdftmp9q2wy9nvw1xwwzdi80,BeK70JTU,2020-0188,2021-10-14,14:07:15,15:18:38,NA,incomplete,false,NA,true,4,1,NA,NA,NA,left,absent,NA,NA,m_l_041.jpg,orange,n_l_106.jpg,orange,within,NA,NaN,NA,right,3657.7000000476837,0,0,1568
BeK70JTU,3mdwe879vkfdd3966pwqlqs2jwg9bh,3e1qt0tdftmp9q2wy9nvw1xwwzdi80,BeK70JTU,2020-0188,2021-10-14,14:07:15,15:18:38,NA,incomplete,false,NA,true,4,2,NA,NA,NA,right,absent,NA,NA,n_l_064.jpg,purple,m_s_004.jpg,purple,within,NA,NaN,NA,left,2478.4000000953674,0,0,1279
BeK70JTU,3mdwe879vkfdd3966pwqlqs2jwg9bh,3e1qt0tdftmp9q2wy9nvw1xwwzdi80,BeK70JTU,2020-0188,2021-10-14,14:07:15,15:18:38,NA,incomplete,false,NA,true,4,3,NA,NA,NA,left,absent,NA,NA,n_l_029.jpg,brown,m_l_054.jpg,brown,within,NA,NaN,NA,right,4677,0,0,1387.6000001430511
BeK70JTU,3mdwe879vkfdd3966pwqlqs2jwg9bh,3e1qt0tdftmp9q2wy9nvw1xwwzdi80,BeK70JTU,2020-0188,2021-10-14,14:07:15,15:18:38,NA,incomplete,false,NA,true,4,4,NA,NA,NA,left,absent,NA,NA,n_l_115.jpg,gray,n_s_001.jpg,orange,between,NA,NaN,NA,left,2018.7999999523163,1,0,1486.6000001430511
BeK70JTU,3mdwe879vkfdd3966pwqlqs2jwg9bh,3e1qt0tdftmp9q2wy9nvw1xwwzdi80,BeK70JTU,2020-0188,2021-10-14,14:07:15,15:18:38,NA,incomplete,false,NA,true,4,5,NA,NA,NA,left,absent,NA,NA,n_s_031.jpg,brown,n_s_066.jpg,red,between,NA,NaN,NA,left,3088.5,1,0,2197.7999999523163
BeK70JTU,3mdwe879vkfdd3966pwqlqs2jwg9bh,3e1qt0tdftmp9q2wy9nvw1xwwzdi80,BeK70JTU,2020-0188,2021-10-14,14:07:15,15:18:38,NA,incomplete,false,NA,true,4,6,NA,NA,NA,left,absent,NA,NA,m_s_114.jpg,gray,m_l_002.jpg,gray,within,NA,NaN,NA,left,3619.399999856949,1,0,1628.4000000953674
BeK70JTU,3mdwe879vkfdd3966pwqlqs2jwg9bh,3e1qt0tdftmp9q2wy9nvw1xwwzdi80,BeK70JTU,2020-0188,2021-10-14,14:07:15,15:18:38,NA,incomplete,false,NA,true,4,7,NA,NA,NA,right,absent,NA,NA,n_s_063.jpg,red,m_l_032.jpg,red,within,NA,NaN,NA,left,2402.899999856949,0,0,1718.0999999046326
BeK70JTU,3mdwe879vkfdd3966pwqlqs2jwg9bh,3e1qt0tdftmp9q2wy9nvw1xwwzdi80,BeK70JTU,2020-0188,2021-10-14,14:07:15,15:18:38,NA,incomplete,false,NA,true,4,8,NA,NA,NA,left,absent,NA,NA,n_s_025.jpg,red,m_l_082.jpg,black,between,NA,NaN,NA,left,2788.2999999523163,1,0,1598.7999999523163
BeK70JTU,3mdwe879vkfdd3966pwqlqs2jwg9bh,3e1qt0tdftmp9q2wy9nvw1xwwzdi80,BeK70JTU,2020-0188,2021-10-14,14:07:15,15:18:38,NA,incomplete,false,NA,true,4,9,NA,NA,NA,right,absent,NA,NA,n_l_061.jpg,brown,m_s_098.jpg,orange,between,NA,NaN,NA,left,2288.2000000476837,0,0,1746.2000000476837
BeK70JTU,3mdwe879vkfdd3966pwqlqs2jwg9bh,3e1qt0tdftmp9q2wy9nvw1xwwzdi80,BeK70JTU,2020-0188,2021-10-14,14:07:15,15:18:38,NA,incomplete,false,NA,true,4,10,NA,NA,NA,right,absent,NA,NA,n_l_090.jpg,purple,m_s_003.jpg,black,between,NA,NaN,NA,right,7038.299999952316,1,0,1552
BeK70JTU,3mdwe879vkfdd3966pwqlqs2jwg9bh,3e1qt0tdftmp9q2wy9nvw1xwwzdi80,BeK70JTU,2020-0188,2021-10-14,14:07:15,15:18:38,NA,incomplete,false,true,NA,5,0,NA,red,n_l_022.jpg,NA,NA,unpleasant,pleasant,NA,NA,NA,NA,NA,right,1930.59999990463,true,NA,NA,NA,NA,NA
BeK70JTU,3mdwe879vkfdd3966pwqlqs2jwg9bh,3e1qt0tdftmp9q2wy9nvw1xwwzdi80,BeK70JTU,2020-0188,2021-10-14,14:07:15,15:18:38,NA,incomplete,false,true,NA,5,1,NA,red,m_l_019.jpg,NA,NA,pleasant,unpleasant,NA,NA,NA,NA,NA,left,1263,true,NA,NA,NA,NA,NA
BeK70JTU,3mdwe879vkfdd3966pwqlqs2jwg9bh,3e1qt0tdftmp9q2wy9nvw1xwwzdi80,BeK70JTU,2020-0188,2021-10-14,14:07:15,15:18:38,NA,incomplete,false,true,NA,5,2,NA,red,n_s_053.jpg,NA,NA,pleasant,unpleasant,NA,NA,NA,NA,NA,left,2149.19999980927,true,NA,NA,NA,NA,NA
BeK70JTU,3mdwe879vkfdd3966pwqlqs2jwg9bh,3e1qt0tdftmp9q2wy9nvw1xwwzdi80,BeK70JTU,2020-0188,2021-10-14,14:07:15,15:18:38,NA,incomplete,false,true,NA,5,3,NA,red,n_l_032.jpg,NA,NA,unpleasant,pleasant,NA,NA,NA,NA,NA,right,1192.90000009537,true,NA,NA,NA,NA,NA
BeK70JTU,3mdwe879vkfdd3966pwqlqs2jwg9bh,3e1qt0tdftmp9q2wy9nvw1xwwzdi80,BeK70JTU,2020-0188,2021-10-14,14:07:15,15:18:38,NA,incomplete,false,true,NA,5,4,NA,red,m_s_108.jpg,NA,NA,unpleasant,pleasant,NA,NA,NA,NA,NA,left,1343.5,true,NA,NA,NA,NA,NA
BeK70JTU,3mdwe879vkfdd3966pwqlqs2jwg9bh,3e1qt0tdftmp9q2wy9nvw1xwwzdi80,BeK70JTU,2020-0188,2021-10-14,14:07:15,15:18:38,NA,incomplete,false,true,NA,5,5,NA,red,n_l_009.jpg,NA,NA,pleasant,unpleasant,NA,NA,NA,NA,NA,left,1355.69999980927,true,NA,NA,NA,NA,NA
BeK70JTU,3mdwe879vkfdd3966pwqlqs2jwg9bh,3e1qt0tdftmp9q2wy9nvw1xwwzdi80,BeK70JTU,2020-0188,2021-10-14,14:07:15,15:18:38,NA,incomplete,false,true,NA,5,6,NA,green,n_s_026.jpg,NA,NA,unpleasant,pleasant,NA,NA,NA,NA,NA,right,1184.5,true,NA,NA,NA,NA,NA
BeK70JTU,3mdwe879vkfdd3966pwqlqs2jwg9bh,3e1qt0tdftmp9q2wy9nvw1xwwzdi80,BeK70JTU,2020-0188,2021-10-14,14:07:15,15:18:38,NA,incomplete,false,true,NA,5,7,NA,green,m_s_089.jpg,NA,NA,pleasant,unpleasant,NA,NA,NA,NA,NA,right,1538,true,NA,NA,NA,NA,NA
BeK70JTU,3mdwe879vkfdd3966pwqlqs2jwg9bh,3e1qt0tdftmp9q2wy9nvw1xwwzdi80,BeK70JTU,2020-0188,2021-10-14,14:07:15,15:18:38,NA,incomplete,false,true,NA,5,8,NA,green,n_s_042.jpg,NA,NA,unpleasant,pleasant,NA,NA,NA,NA,NA,right,1268.19999980927,true,NA,NA,NA,NA,NA
BeK70JTU,3mdwe879vkfdd3966pwqlqs2jwg9bh,3e1qt0tdftmp9q2wy9nvw1xwwzdi80,BeK70JTU,2020-0188,2021-10-14,14:07:15,15:18:38,NA,incomplete,false,true,NA,5,9,NA,green,m_s_007.jpg,NA,NA,unpleasant,pleasant,NA,NA,NA,NA,NA,left,1677.79999995232,true,NA,NA,NA,NA,NA
BeK70JTU,3mdwe879vkfdd3966pwqlqs2jwg9bh,3e1qt0tdftmp9q2wy9nvw1xwwzdi80,BeK70JTU,2020-0188,2021-10-14,14:07:15,15:18:38,NA,incomplete,false,true,NA,5,10,NA,green,m_s_020.jpg,NA,NA,pleasant,unpleasant,NA,NA,NA,NA,NA,right,1808.40000009537,true,NA,NA,NA,NA,NA
BeK70JTU,3mdwe879vkfdd3966pwqlqs2jwg9bh,3e1qt0tdftmp9q2wy9nvw1xwwzdi80,BeK70JTU,2020-0188,2021-10-14,14:07:15,15:18:38,NA,incomplete,false,true,NA,5,11,NA,green,m_l_069.jpg,NA,NA,pleasant,unpleasant,NA,NA,NA,NA,NA,right,1595.29999995232,true,NA,NA,NA,NA,NA
BeK70JTU,3mdwe879vkfdd3966pwqlqs2jwg9bh,3e1qt0tdftmp9q2wy9nvw1xwwzdi80,BeK70JTU,2020-0188,2021-10-14,14:07:15,15:18:38,NA,incomplete,false,true,NA,5,12,NA,blue,m_l_005.jpg,NA,NA,unpleasant,pleasant,NA,NA,NA,NA,NA,left,1315,true,NA,NA,NA,NA,NA
BeK70JTU,3mdwe879vkfdd3966pwqlqs2jwg9bh,3e1qt0tdftmp9q2wy9nvw1xwwzdi80,BeK70JTU,2020-0188,2021-10-14,14:07:15,15:18:38,NA,incomplete,false,true,NA,5,13,NA,blue,m_s_104.jpg,NA,NA,unpleasant,pleasant,NA,NA,NA,NA,NA,left,2713.89999985695,true,NA,NA,NA,NA,NA
BeK70JTU,3mdwe879vkfdd3966pwqlqs2jwg9bh,3e1qt0tdftmp9q2wy9nvw1xwwzdi80,BeK70JTU,2020-0188,2021-10-14,14:07:15,15:18:38,NA,incomplete,false,true,NA,5,14,NA,blue,n_s_083.jpg,NA,NA,pleasant,unpleasant,NA,NA,NA,NA,NA,left,1331,true,NA,NA,NA,NA,NA
BeK70JTU,3mdwe879vkfdd3966pwqlqs2jwg9bh,3e1qt0tdftmp9q2wy9nvw1xwwzdi80,BeK70JTU,2020-0188,2021-10-14,14:07:15,15:18:38,NA,incomplete,false,true,NA,5,15,NA,blue,n_l_047.jpg,NA,NA,pleasant,unpleasant,NA,NA,NA,NA,NA,left,1174.70000004768,true,NA,NA,NA,NA,NA
BeK70JTU,3mdwe879vkfdd3966pwqlqs2jwg9bh,3e1qt0tdftmp9q2wy9nvw1xwwzdi80,BeK70JTU,2020-0188,2021-10-14,14:07:15,15:18:38,NA,incomplete,false,true,NA,5,16,NA,blue,n_l_045.jpg,NA,NA,pleasant,unpleasant,NA,NA,NA,NA,NA,left,1113.30000019073,true,NA,NA,NA,NA,NA
BeK70JTU,3mdwe879vkfdd3966pwqlqs2jwg9bh,3e1qt0tdftmp9q2wy9nvw1xwwzdi80,BeK70JTU,2020-0188,2021-10-14,14:07:15,15:18:38,NA,incomplete,false,true,NA,5,17,NA,blue,n_l_066.jpg,NA,NA,unpleasant,pleasant,NA,NA,NA,NA,NA,right,1293.09999990463,true,NA,NA,NA,NA,NA
BeK70JTU,3mdwe879vkfdd3966pwqlqs2jwg9bh,3e1qt0tdftmp9q2wy9nvw1xwwzdi80,BeK70JTU,2020-0188,2021-10-14,14:07:15,15:18:38,NA,incomplete,false,true,NA,5,18,NA,yellow,m_s_041.jpg,NA,NA,pleasant,unpleasant,NA,NA,NA,NA,NA,right,1334.20000004768,true,NA,NA,NA,NA,NA
BeK70JTU,3mdwe879vkfdd3966pwqlqs2jwg9bh,3e1qt0tdftmp9q2wy9nvw1xwwzdi80,BeK70JTU,2020-0188,2021-10-14,14:07:15,15:18:38,NA,incomplete,false,true,NA,5,19,NA,yellow,m_s_008.jpg,NA,NA,unpleasant,pleasant,NA,NA,NA,NA,NA,left,1829.20000004768,true,NA,NA,NA,NA,NA
BeK70JTU,3mdwe879vkfdd3966pwqlqs2jwg9bh,3e1qt0tdftmp9q2wy9nvw1xwwzdi80,BeK70JTU,2020-0188,2021-10-14,14:07:15,15:18:38,NA,incomplete,false,true,NA,5,20,NA,yellow,m_s_018.jpg,NA,NA,pleasant,unpleasant,NA,NA,NA,NA,NA,right,1256.89999985695,true,NA,NA,NA,NA,NA
BeK70JTU,3mdwe879vkfdd3966pwqlqs2jwg9bh,3e1qt0tdftmp9q2wy9nvw1xwwzdi80,BeK70JTU,2020-0188,2021-10-14,14:07:15,15:18:38,NA,incomplete,false,true,NA,5,21,NA,yellow,m_s_067.jpg,NA,NA,unpleasant,pleasant,NA,NA,NA,NA,NA,left,1516.30000019073,true,NA,NA,NA,NA,NA
BeK70JTU,3mdwe879vkfdd3966pwqlqs2jwg9bh,3e1qt0tdftmp9q2wy9nvw1xwwzdi80,BeK70JTU,2020-0188,2021-10-14,14:07:15,15:18:38,NA,incomplete,false,true,NA,5,22,NA,yellow,n_s_010.jpg,NA,NA,pleasant,unpleasant,NA,NA,NA,NA,NA,left,1527.80000019073,true,NA,NA,NA,NA,NA
BeK70JTU,3mdwe879vkfdd3966pwqlqs2jwg9bh,3e1qt0tdftmp9q2wy9nvw1xwwzdi80,BeK70JTU,2020-0188,2021-10-14,14:07:15,15:18:38,NA,incomplete,false,true,NA,5,23,NA,yellow,m_s_086.jpg,NA,NA,unpleasant,pleasant,NA,NA,NA,NA,NA,left,1358.40000009537,true,NA,NA,NA,NA,NA
BeK70JTU,3mdwe879vkfdd3966pwqlqs2jwg9bh,3e1qt0tdftmp9q2wy9nvw1xwwzdi80,BeK70JTU,2020-0188,2021-10-14,14:07:15,15:18:38,NA,incomplete,false,true,NA,5,24,NA,brown,n_l_104.jpg,NA,NA,unpleasant,pleasant,NA,NA,NA,NA,NA,right,1329,true,NA,NA,NA,NA,NA
BeK70JTU,3mdwe879vkfdd3966pwqlqs2jwg9bh,3e1qt0tdftmp9q2wy9nvw1xwwzdi80,BeK70JTU,2020-0188,2021-10-14,14:07:15,15:18:38,NA,incomplete,false,true,NA,5,25,NA,brown,m_s_072.jpg,NA,NA,unpleasant,pleasant,NA,NA,NA,NA,NA,left,1432.20000004768,true,NA,NA,NA,NA,NA
BeK70JTU,3mdwe879vkfdd3966pwqlqs2jwg9bh,3e1qt0tdftmp9q2wy9nvw1xwwzdi80,BeK70JTU,2020-0188,2021-10-14,14:07:15,15:18:38,NA,incomplete,false,true,NA,5,26,NA,brown,n_s_111.jpg,NA,NA,unpleasant,pleasant,NA,NA,NA,NA,NA,right,1881.80000019073,true,NA,NA,NA,NA,NA
BeK70JTU,3mdwe879vkfdd3966pwqlqs2jwg9bh,3e1qt0tdftmp9q2wy9nvw1xwwzdi80,BeK70JTU,2020-0188,2021-10-14,14:07:15,15:18:38,NA,incomplete,false,true,NA,5,27,NA,brown,n_l_081.jpg,NA,NA,pleasant,unpleasant,NA,NA,NA,NA,NA,left,1610.5,true,NA,NA,NA,NA,NA
BeK70JTU,3mdwe879vkfdd3966pwqlqs2jwg9bh,3e1qt0tdftmp9q2wy9nvw1xwwzdi80,BeK70JTU,2020-0188,2021-10-14,14:07:15,15:18:38,NA,incomplete,false,true,NA,5,28,NA,brown,m_l_044.jpg,NA,NA,unpleasant,pleasant,NA,NA,NA,NA,NA,left,1744.70000004768,true,NA,NA,NA,NA,NA
BeK70JTU,3mdwe879vkfdd3966pwqlqs2jwg9bh,3e1qt0tdftmp9q2wy9nvw1xwwzdi80,BeK70JTU,2020-0188,2021-10-14,14:07:15,15:18:38,NA,incomplete,false,true,NA,5,29,NA,brown,n_s_002.jpg,NA,NA,unpleasant,pleasant,NA,NA,NA,NA,NA,right,1285.59999990463,true,NA,NA,NA,NA,NA
BeK70JTU,3mdwe879vkfdd3966pwqlqs2jwg9bh,3e1qt0tdftmp9q2wy9nvw1xwwzdi80,BeK70JTU,2020-0188,2021-10-14,14:07:15,15:18:38,NA,incomplete,false,true,NA,5,30,NA,purple,n_s_075.jpg,NA,NA,unpleasant,pleasant,NA,NA,NA,NA,NA,right,1536.59999990463,true,NA,NA,NA,NA,NA
BeK70JTU,3mdwe879vkfdd3966pwqlqs2jwg9bh,3e1qt0tdftmp9q2wy9nvw1xwwzdi80,BeK70JTU,2020-0188,2021-10-14,14:07:15,15:18:38,NA,incomplete,false,true,NA,5,31,NA,purple,n_s_086.jpg,NA,NA,unpleasant,pleasant,NA,NA,NA,NA,NA,right,1244.79999995232,true,NA,NA,NA,NA,NA
BeK70JTU,3mdwe879vkfdd3966pwqlqs2jwg9bh,3e1qt0tdftmp9q2wy9nvw1xwwzdi80,BeK70JTU,2020-0188,2021-10-14,14:07:15,15:18:38,NA,incomplete,false,true,NA,5,32,NA,purple,m_l_043.jpg,NA,NA,unpleasant,pleasant,NA,NA,NA,NA,NA,left,1285.89999985695,true,NA,NA,NA,NA,NA
BeK70JTU,3mdwe879vkfdd3966pwqlqs2jwg9bh,3e1qt0tdftmp9q2wy9nvw1xwwzdi80,BeK70JTU,2020-0188,2021-10-14,14:07:15,15:18:38,NA,incomplete,false,true,NA,5,33,NA,purple,n_l_030.jpg,NA,NA,unpleasant,pleasant,NA,NA,NA,NA,NA,right,1456.29999995232,true,NA,NA,NA,NA,NA
BeK70JTU,3mdwe879vkfdd3966pwqlqs2jwg9bh,3e1qt0tdftmp9q2wy9nvw1xwwzdi80,BeK70JTU,2020-0188,2021-10-14,14:07:15,15:18:38,NA,incomplete,false,true,NA,5,34,NA,purple,m_s_024.jpg,NA,NA,pleasant,unpleasant,NA,NA,NA,NA,NA,left,1097.40000009537,true,NA,NA,NA,NA,NA
BeK70JTU,3mdwe879vkfdd3966pwqlqs2jwg9bh,3e1qt0tdftmp9q2wy9nvw1xwwzdi80,BeK70JTU,2020-0188,2021-10-14,14:07:15,15:18:38,NA,incomplete,false,true,NA,5,35,NA,purple,n_l_027.jpg,NA,NA,pleasant,unpleasant,NA,NA,NA,NA,NA,left,1349.90000009537,true,NA,NA,NA,NA,NA
BeK70JTU,3mdwe879vkfdd3966pwqlqs2jwg9bh,3e1qt0tdftmp9q2wy9nvw1xwwzdi80,BeK70JTU,2020-0188,2021-10-14,14:07:15,15:18:38,NA,incomplete,false,NA,true,5,0,NA,NA,NA,left,absent,NA,NA,m_l_044.jpg,brown,m_l_043.jpg,purple,between,NA,NaN,NA,left,2895.5,1,0,2307.899999856949
BeK70JTU,3mdwe879vkfdd3966pwqlqs2jwg9bh,3e1qt0tdftmp9q2wy9nvw1xwwzdi80,BeK70JTU,2020-0188,2021-10-14,14:07:15,15:18:38,NA,incomplete,false,NA,true,5,1,NA,NA,NA,right,absent,NA,NA,m_s_018.jpg,yellow,n_l_045.jpg,blue,between,NA,NaN,NA,left,3498.899999856949,0,0,1504.1000001430511
BeK70JTU,3mdwe879vkfdd3966pwqlqs2jwg9bh,3e1qt0tdftmp9q2wy9nvw1xwwzdi80,BeK70JTU,2020-0188,2021-10-14,14:07:15,15:18:38,NA,incomplete,false,NA,true,5,2,NA,NA,NA,left,absent,NA,NA,m_s_072.jpg,brown,n_s_002.jpg,brown,within,NA,NaN,NA,right,5073.900000095367,0,3,8494.200000047684
BeK70JTU,3mdwe879vkfdd3966pwqlqs2jwg9bh,3e1qt0tdftmp9q2wy9nvw1xwwzdi80,BeK70JTU,2020-0188,2021-10-14,14:07:15,15:18:38,NA,incomplete,false,NA,true,5,3,NA,NA,NA,left,absent,NA,NA,m_l_019.jpg,red,n_l_009.jpg,red,within,NA,NaN,NA,left,2569.0999999046326,1,3,2423.7000000476837
BeK70JTU,3mdwe879vkfdd3966pwqlqs2jwg9bh,3e1qt0tdftmp9q2wy9nvw1xwwzdi80,BeK70JTU,2020-0188,2021-10-14,14:07:15,15:18:38,NA,incomplete,false,NA,true,5,4,NA,NA,NA,left,absent,NA,NA,m_s_108.jpg,red,n_s_042.jpg,green,between,NA,NaN,NA,left,1908,1,0,1549.2000000476837
BeK70JTU,3mdwe879vkfdd3966pwqlqs2jwg9bh,3e1qt0tdftmp9q2wy9nvw1xwwzdi80,BeK70JTU,2020-0188,2021-10-14,14:07:15,15:18:38,NA,incomplete,false,NA,true,5,5,NA,NA,NA,left,absent,NA,NA,m_s_104.jpg,blue,n_l_066.jpg,blue,within,NA,NaN,NA,right,2868.300000190735,0,3,2427.300000190735
BeK70JTU,3mdwe879vkfdd3966pwqlqs2jwg9bh,3e1qt0tdftmp9q2wy9nvw1xwwzdi80,BeK70JTU,2020-0188,2021-10-14,14:07:15,15:18:38,NA,incomplete,false,NA,true,5,6,NA,NA,NA,right,absent,NA,NA,m_l_069.jpg,green,m_s_089.jpg,green,within,NA,NaN,NA,right,3887.5999999046326,1,3,2478.699999809265
BeK70JTU,3mdwe879vkfdd3966pwqlqs2jwg9bh,3e1qt0tdftmp9q2wy9nvw1xwwzdi80,BeK70JTU,2020-0188,2021-10-14,14:07:15,15:18:38,NA,incomplete,false,NA,true,5,7,NA,NA,NA,right,absent,NA,NA,n_s_083.jpg,blue,m_s_020.jpg,green,between,NA,NaN,NA,left,3833.9000000953674,0,0,2989
BeK70JTU,3mdwe879vkfdd3966pwqlqs2jwg9bh,3e1qt0tdftmp9q2wy9nvw1xwwzdi80,BeK70JTU,2020-0188,2021-10-14,14:07:15,15:18:38,NA,incomplete,false,NA,true,5,8,NA,NA,NA,left,absent,NA,NA,m_s_008.jpg,yellow,m_s_086.jpg,yellow,within,NA,NaN,NA,left,3470.2000000476837,1,0,1396.7000000476837
BeK70JTU,3mdwe879vkfdd3966pwqlqs2jwg9bh,3e1qt0tdftmp9q2wy9nvw1xwwzdi80,BeK70JTU,2020-0188,2021-10-14,14:07:15,15:18:38,NA,incomplete,false,NA,true,5,9,NA,NA,NA,left,absent,NA,NA,n_s_010.jpg,yellow,n_s_111.jpg,brown,between,NA,NaN,NA,left,3762.5999999046326,1,3,1827.5999999046326
BeK70JTU,3mdwe879vkfdd3966pwqlqs2jwg9bh,3e1qt0tdftmp9q2wy9nvw1xwwzdi80,BeK70JTU,2020-0188,2021-10-14,14:07:15,15:18:38,NA,incomplete,false,NA,true,5,10,NA,NA,NA,left,absent,NA,NA,n_s_086.jpg,purple,n_l_027.jpg,purple,within,NA,NaN,NA,left,2044.2000000476837,1,3,1618.4000000953674
BeK70JTU,3mdwe879vkfdd3966pwqlqs2jwg9bh,3e1qt0tdftmp9q2wy9nvw1xwwzdi80,BeK70JTU,2020-0188,2021-10-14,14:07:15,15:18:38,NA,incomplete,false,true,NA,6,0,NA,blue,n_l_019.jpg,NA,NA,pleasant,unpleasant,NA,NA,NA,NA,NA,left,1777.79999995232,true,NA,NA,NA,NA,NA
BeK70JTU,3mdwe879vkfdd3966pwqlqs2jwg9bh,3e1qt0tdftmp9q2wy9nvw1xwwzdi80,BeK70JTU,2020-0188,2021-10-14,14:07:15,15:18:38,NA,incomplete,false,true,NA,6,1,NA,blue,n_s_079.jpg,NA,NA,unpleasant,pleasant,NA,NA,NA,NA,NA,right,1308.20000004768,true,NA,NA,NA,NA,NA
BeK70JTU,3mdwe879vkfdd3966pwqlqs2jwg9bh,3e1qt0tdftmp9q2wy9nvw1xwwzdi80,BeK70JTU,2020-0188,2021-10-14,14:07:15,15:18:38,NA,incomplete,false,true,NA,6,2,NA,blue,n_l_025.jpg,NA,NA,pleasant,unpleasant,NA,NA,NA,NA,NA,left,1528.5,true,NA,NA,NA,NA,NA
BeK70JTU,3mdwe879vkfdd3966pwqlqs2jwg9bh,3e1qt0tdftmp9q2wy9nvw1xwwzdi80,BeK70JTU,2020-0188,2021-10-14,14:07:15,15:18:38,NA,incomplete,false,true,NA,6,3,NA,blue,n_l_004.jpg,NA,NA,pleasant,unpleasant,NA,NA,NA,NA,NA,left,1179,true,NA,NA,NA,NA,NA
BeK70JTU,3mdwe879vkfdd3966pwqlqs2jwg9bh,3e1qt0tdftmp9q2wy9nvw1xwwzdi80,BeK70JTU,2020-0188,2021-10-14,14:07:15,15:18:38,NA,incomplete,false,true,NA,6,4,NA,blue,m_s_023.jpg,NA,NA,unpleasant,pleasant,NA,NA,NA,NA,NA,left,1410.30000019073,true,NA,NA,NA,NA,NA
BeK70JTU,3mdwe879vkfdd3966pwqlqs2jwg9bh,3e1qt0tdftmp9q2wy9nvw1xwwzdi80,BeK70JTU,2020-0188,2021-10-14,14:07:15,15:18:38,NA,incomplete,false,true,NA,6,5,NA,blue,m_s_033.jpg,NA,NA,unpleasant,pleasant,NA,NA,NA,NA,NA,left,1262.5,true,NA,NA,NA,NA,NA
BeK70JTU,3mdwe879vkfdd3966pwqlqs2jwg9bh,3e1qt0tdftmp9q2wy9nvw1xwwzdi80,BeK70JTU,2020-0188,2021-10-14,14:07:15,15:18:38,NA,incomplete,false,true,NA,6,6,NA,orange,n_s_090.jpg,NA,NA,unpleasant,pleasant,NA,NA,NA,NA,NA,right,1325.79999995232,true,NA,NA,NA,NA,NA
BeK70JTU,3mdwe879vkfdd3966pwqlqs2jwg9bh,3e1qt0tdftmp9q2wy9nvw1xwwzdi80,BeK70JTU,2020-0188,2021-10-14,14:07:15,15:18:38,NA,incomplete,false,true,NA,6,7,NA,orange,m_s_102.jpg,NA,NA,pleasant,unpleasant,NA,NA,NA,NA,NA,right,1592,true,NA,NA,NA,NA,NA
BeK70JTU,3mdwe879vkfdd3966pwqlqs2jwg9bh,3e1qt0tdftmp9q2wy9nvw1xwwzdi80,BeK70JTU,2020-0188,2021-10-14,14:07:15,15:18:38,NA,incomplete,false,true,NA,6,8,NA,orange,n_s_067.jpg,NA,NA,pleasant,unpleasant,NA,NA,NA,NA,NA,none,0,false,NA,NA,NA,NA,NA
BeK70JTU,3mdwe879vkfdd3966pwqlqs2jwg9bh,3e1qt0tdftmp9q2wy9nvw1xwwzdi80,BeK70JTU,2020-0188,2021-10-14,14:07:15,15:18:38,NA,incomplete,false,true,NA,6,9,NA,orange,n_l_097.jpg,NA,NA,unpleasant,pleasant,NA,NA,NA,NA,NA,right,1364,true,NA,NA,NA,NA,NA
BeK70JTU,3mdwe879vkfdd3966pwqlqs2jwg9bh,3e1qt0tdftmp9q2wy9nvw1xwwzdi80,BeK70JTU,2020-0188,2021-10-14,14:07:15,15:18:38,NA,incomplete,false,true,NA,6,10,NA,orange,m_l_100.jpg,NA,NA,unpleasant,pleasant,NA,NA,NA,NA,NA,left,1694.39999985695,true,NA,NA,NA,NA,NA
BeK70JTU,3mdwe879vkfdd3966pwqlqs2jwg9bh,3e1qt0tdftmp9q2wy9nvw1xwwzdi80,BeK70JTU,2020-0188,2021-10-14,14:07:15,15:18:38,NA,incomplete,false,true,NA,6,11,NA,orange,n_l_016.jpg,NA,NA,pleasant,unpleasant,NA,NA,NA,NA,NA,left,1360.59999990463,true,NA,NA,NA,NA,NA
BeK70JTU,3mdwe879vkfdd3966pwqlqs2jwg9bh,3e1qt0tdftmp9q2wy9nvw1xwwzdi80,BeK70JTU,2020-0188,2021-10-14,14:07:15,15:18:38,NA,incomplete,false,true,NA,6,12,NA,yellow,n_s_097.jpg,NA,NA,pleasant,unpleasant,NA,NA,NA,NA,NA,left,1191.70000004768,true,NA,NA,NA,NA,NA
BeK70JTU,3mdwe879vkfdd3966pwqlqs2jwg9bh,3e1qt0tdftmp9q2wy9nvw1xwwzdi80,BeK70JTU,2020-0188,2021-10-14,14:07:15,15:18:38,NA,incomplete,false,true,NA,6,13,NA,yellow,n_l_107.jpg,NA,NA,unpleasant,pleasant,NA,NA,NA,NA,NA,right,1774.40000009537,true,NA,NA,NA,NA,NA
BeK70JTU,3mdwe879vkfdd3966pwqlqs2jwg9bh,3e1qt0tdftmp9q2wy9nvw1xwwzdi80,BeK70JTU,2020-0188,2021-10-14,14:07:15,15:18:38,NA,incomplete,false,true,NA,6,14,NA,yellow,n_s_044.jpg,NA,NA,pleasant,unpleasant,NA,NA,NA,NA,NA,left,1364.20000004768,true,NA,NA,NA,NA,NA
BeK70JTU,3mdwe879vkfdd3966pwqlqs2jwg9bh,3e1qt0tdftmp9q2wy9nvw1xwwzdi80,BeK70JTU,2020-0188,2021-10-14,14:07:15,15:18:38,NA,incomplete,false,true,NA,6,15,NA,yellow,m_s_046.jpg,NA,NA,unpleasant,pleasant,NA,NA,NA,NA,NA,left,1664.10000014305,true,NA,NA,NA,NA,NA
BeK70JTU,3mdwe879vkfdd3966pwqlqs2jwg9bh,3e1qt0tdftmp9q2wy9nvw1xwwzdi80,BeK70JTU,2020-0188,2021-10-14,14:07:15,15:18:38,NA,incomplete,false,true,NA,6,16,NA,yellow,n_l_080.jpg,NA,NA,pleasant,unpleasant,NA,NA,NA,NA,NA,left,1350.30000019073,true,NA,NA,NA,NA,NA
BeK70JTU,3mdwe879vkfdd3966pwqlqs2jwg9bh,3e1qt0tdftmp9q2wy9nvw1xwwzdi80,BeK70JTU,2020-0188,2021-10-14,14:07:15,15:18:38,NA,incomplete,false,true,NA,6,17,NA,yellow,m_s_052.jpg,NA,NA,unpleasant,pleasant,NA,NA,NA,NA,NA,left,1327.29999995232,true,NA,NA,NA,NA,NA
BeK70JTU,3mdwe879vkfdd3966pwqlqs2jwg9bh,3e1qt0tdftmp9q2wy9nvw1xwwzdi80,BeK70JTU,2020-0188,2021-10-14,14:07:15,15:18:38,NA,incomplete,false,true,NA,6,18,NA,black,n_l_026.jpg,NA,NA,unpleasant,pleasant,NA,NA,NA,NA,NA,right,1157.39999985695,true,NA,NA,NA,NA,NA
BeK70JTU,3mdwe879vkfdd3966pwqlqs2jwg9bh,3e1qt0tdftmp9q2wy9nvw1xwwzdi80,BeK70JTU,2020-0188,2021-10-14,14:07:15,15:18:38,NA,incomplete,false,true,NA,6,19,NA,black,m_s_112.jpg,NA,NA,pleasant,unpleasant,NA,NA,NA,NA,NA,right,1413.20000004768,true,NA,NA,NA,NA,NA
BeK70JTU,3mdwe879vkfdd3966pwqlqs2jwg9bh,3e1qt0tdftmp9q2wy9nvw1xwwzdi80,BeK70JTU,2020-0188,2021-10-14,14:07:15,15:18:38,NA,incomplete,false,true,NA,6,20,NA,black,n_s_105.jpg,NA,NA,pleasant,unpleasant,NA,NA,NA,NA,NA,left,1242.90000009537,true,NA,NA,NA,NA,NA
BeK70JTU,3mdwe879vkfdd3966pwqlqs2jwg9bh,3e1qt0tdftmp9q2wy9nvw1xwwzdi80,BeK70JTU,2020-0188,2021-10-14,14:07:15,15:18:38,NA,incomplete,false,true,NA,6,21,NA,black,m_l_025.jpg,NA,NA,unpleasant,pleasant,NA,NA,NA,NA,NA,right,2402.09999990463,true,NA,NA,NA,NA,NA
BeK70JTU,3mdwe879vkfdd3966pwqlqs2jwg9bh,3e1qt0tdftmp9q2wy9nvw1xwwzdi80,BeK70JTU,2020-0188,2021-10-14,14:07:15,15:18:38,NA,incomplete,false,true,NA,6,22,NA,black,n_l_065.jpg,NA,NA,unpleasant,pleasant,NA,NA,NA,NA,NA,right,1489.70000004768,true,NA,NA,NA,NA,NA
BeK70JTU,3mdwe879vkfdd3966pwqlqs2jwg9bh,3e1qt0tdftmp9q2wy9nvw1xwwzdi80,BeK70JTU,2020-0188,2021-10-14,14:07:15,15:18:38,NA,incomplete,false,true,NA,6,23,NA,black,m_s_073.jpg,NA,NA,pleasant,unpleasant,NA,NA,NA,NA,NA,right,1578,true,NA,NA,NA,NA,NA
BeK70JTU,3mdwe879vkfdd3966pwqlqs2jwg9bh,3e1qt0tdftmp9q2wy9nvw1xwwzdi80,BeK70JTU,2020-0188,2021-10-14,14:07:15,15:18:38,NA,incomplete,false,true,NA,6,24,NA,white,n_s_112.jpg,NA,NA,unpleasant,pleasant,NA,NA,NA,NA,NA,right,1210.70000004768,true,NA,NA,NA,NA,NA
BeK70JTU,3mdwe879vkfdd3966pwqlqs2jwg9bh,3e1qt0tdftmp9q2wy9nvw1xwwzdi80,BeK70JTU,2020-0188,2021-10-14,14:07:15,15:18:38,NA,incomplete,false,true,NA,6,25,NA,white,n_s_016.jpg,NA,NA,unpleasant,pleasant,NA,NA,NA,NA,NA,right,2191.5,true,NA,NA,NA,NA,NA
BeK70JTU,3mdwe879vkfdd3966pwqlqs2jwg9bh,3e1qt0tdftmp9q2wy9nvw1xwwzdi80,BeK70JTU,2020-0188,2021-10-14,14:07:15,15:18:38,NA,incomplete,false,true,NA,6,26,NA,white,n_l_021.jpg,NA,NA,unpleasant,pleasant,NA,NA,NA,NA,NA,right,1183,true,NA,NA,NA,NA,NA
BeK70JTU,3mdwe879vkfdd3966pwqlqs2jwg9bh,3e1qt0tdftmp9q2wy9nvw1xwwzdi80,BeK70JTU,2020-0188,2021-10-14,14:07:15,15:18:38,NA,incomplete,false,true,NA,6,27,NA,white,n_s_004.jpg,NA,NA,pleasant,unpleasant,NA,NA,NA,NA,NA,left,1322.60000014305,true,NA,NA,NA,NA,NA
BeK70JTU,3mdwe879vkfdd3966pwqlqs2jwg9bh,3e1qt0tdftmp9q2wy9nvw1xwwzdi80,BeK70JTU,2020-0188,2021-10-14,14:07:15,15:18:38,NA,incomplete,false,true,NA,6,28,NA,white,m_l_055.jpg,NA,NA,unpleasant,pleasant,NA,NA,NA,NA,NA,left,1493.29999995232,true,NA,NA,NA,NA,NA
BeK70JTU,3mdwe879vkfdd3966pwqlqs2jwg9bh,3e1qt0tdftmp9q2wy9nvw1xwwzdi80,BeK70JTU,2020-0188,2021-10-14,14:07:15,15:18:38,NA,incomplete,false,true,NA,6,29,NA,white,m_s_034.jpg,NA,NA,unpleasant,pleasant,NA,NA,NA,NA,NA,left,1440.90000009537,true,NA,NA,NA,NA,NA
BeK70JTU,3mdwe879vkfdd3966pwqlqs2jwg9bh,3e1qt0tdftmp9q2wy9nvw1xwwzdi80,BeK70JTU,2020-0188,2021-10-14,14:07:15,15:18:38,NA,incomplete,false,true,NA,6,30,NA,purple,m_l_021.jpg,NA,NA,pleasant,unpleasant,NA,NA,NA,NA,NA,right,1384.59999990463,true,NA,NA,NA,NA,NA
BeK70JTU,3mdwe879vkfdd3966pwqlqs2jwg9bh,3e1qt0tdftmp9q2wy9nvw1xwwzdi80,BeK70JTU,2020-0188,2021-10-14,14:07:15,15:18:38,NA,incomplete,false,true,NA,6,31,NA,purple,m_l_096.jpg,NA,NA,pleasant,unpleasant,NA,NA,NA,NA,NA,right,1396,true,NA,NA,NA,NA,NA
BeK70JTU,3mdwe879vkfdd3966pwqlqs2jwg9bh,3e1qt0tdftmp9q2wy9nvw1xwwzdi80,BeK70JTU,2020-0188,2021-10-14,14:07:15,15:18:38,NA,incomplete,false,true,NA,6,32,NA,purple,m_l_080.jpg,NA,NA,unpleasant,pleasant,NA,NA,NA,NA,NA,left,1255.79999995232,true,NA,NA,NA,NA,NA
BeK70JTU,3mdwe879vkfdd3966pwqlqs2jwg9bh,3e1qt0tdftmp9q2wy9nvw1xwwzdi80,BeK70JTU,2020-0188,2021-10-14,14:07:15,15:18:38,NA,incomplete,false,true,NA,6,33,NA,purple,m_s_077.jpg,NA,NA,unpleasant,pleasant,NA,NA,NA,NA,NA,left,2116,true,NA,NA,NA,NA,NA
BeK70JTU,3mdwe879vkfdd3966pwqlqs2jwg9bh,3e1qt0tdftmp9q2wy9nvw1xwwzdi80,BeK70JTU,2020-0188,2021-10-14,14:07:15,15:18:38,NA,incomplete,false,true,NA,6,34,NA,purple,n_s_058.jpg,NA,NA,unpleasant,pleasant,NA,NA,NA,NA,NA,right,1648.40000009537,true,NA,NA,NA,NA,NA
BeK70JTU,3mdwe879vkfdd3966pwqlqs2jwg9bh,3e1qt0tdftmp9q2wy9nvw1xwwzdi80,BeK70JTU,2020-0188,2021-10-14,14:07:15,15:18:38,NA,incomplete,false,true,NA,6,35,NA,purple,m_l_066.jpg,NA,NA,pleasant,unpleasant,NA,NA,NA,NA,NA,right,1707.70000004768,true,NA,NA,NA,NA,NA
BeK70JTU,3mdwe879vkfdd3966pwqlqs2jwg9bh,3e1qt0tdftmp9q2wy9nvw1xwwzdi80,BeK70JTU,2020-0188,2021-10-14,14:07:15,15:18:38,NA,incomplete,false,NA,true,6,0,NA,NA,NA,left,present,NA,NA,m_s_112.jpg,black,m_s_073.jpg,black,within,NA,NaN,NA,right,4027.9000000953674,0,3,2599.2000000476837
BeK70JTU,3mdwe879vkfdd3966pwqlqs2jwg9bh,3e1qt0tdftmp9q2wy9nvw1xwwzdi80,BeK70JTU,2020-0188,2021-10-14,14:07:15,15:18:38,NA,incomplete,false,NA,true,6,1,NA,NA,NA,left,present,NA,NA,n_s_079.jpg,blue,m_s_033.jpg,blue,within,NA,NaN,NA,right,3221.100000143051,0,0,2978
BeK70JTU,3mdwe879vkfdd3966pwqlqs2jwg9bh,3e1qt0tdftmp9q2wy9nvw1xwwzdi80,BeK70JTU,2020-0188,2021-10-14,14:07:15,15:18:38,NA,incomplete,false,NA,true,6,2,NA,NA,NA,right,present,NA,NA,m_l_080.jpg,purple,m_l_055.jpg,white,between,NA,NaN,NA,right,4057.7999999523163,1,3,1997.7999999523163
BeK70JTU,3mdwe879vkfdd3966pwqlqs2jwg9bh,3e1qt0tdftmp9q2wy9nvw1xwwzdi80,BeK70JTU,2020-0188,2021-10-14,14:07:15,15:18:38,NA,incomplete,false,NA,true,6,3,NA,NA,NA,left,present,NA,NA,n_l_080.jpg,yellow,n_s_105.jpg,black,between,NA,NaN,NA,left,2447.5999999046326,1,0,1872.2999999523163
BeK70JTU,3mdwe879vkfdd3966pwqlqs2jwg9bh,3e1qt0tdftmp9q2wy9nvw1xwwzdi80,BeK70JTU,2020-0188,2021-10-14,14:07:15,15:18:38,NA,incomplete,false,NA,true,6,4,NA,NA,NA,right,present,NA,NA,n_l_016.jpg,orange,m_s_102.jpg,orange,within,NA,NaN,NA,left,2223.899999856949,0,3,1906.7999999523163
BeK70JTU,3mdwe879vkfdd3966pwqlqs2jwg9bh,3e1qt0tdftmp9q2wy9nvw1xwwzdi80,BeK70JTU,2020-0188,2021-10-14,14:07:15,15:18:38,NA,incomplete,false,NA,true,6,5,NA,NA,NA,left,present,NA,NA,n_s_016.jpg,white,m_s_034.jpg,white,within,NA,NaN,NA,right,3109.7000000476837,0,0,2837
BeK70JTU,3mdwe879vkfdd3966pwqlqs2jwg9bh,3e1qt0tdftmp9q2wy9nvw1xwwzdi80,BeK70JTU,2020-0188,2021-10-14,14:07:15,15:18:38,NA,incomplete,false,NA,true,6,6,NA,NA,NA,right,present,NA,NA,n_l_021.jpg,white,n_l_065.jpg,black,between,NA,NaN,NA,left,5738.200000047684,0,3,4688.5
BeK70JTU,3mdwe879vkfdd3966pwqlqs2jwg9bh,3e1qt0tdftmp9q2wy9nvw1xwwzdi80,BeK70JTU,2020-0188,2021-10-14,14:07:15,15:18:38,NA,incomplete,false,NA,true,6,7,NA,NA,NA,left,present,NA,NA,n_l_107.jpg,yellow,m_s_052.jpg,yellow,within,NA,NaN,NA,right,4088.9000000953674,0,3,3067.4000000953674
BeK70JTU,3mdwe879vkfdd3966pwqlqs2jwg9bh,3e1qt0tdftmp9q2wy9nvw1xwwzdi80,BeK70JTU,2020-0188,2021-10-14,14:07:15,15:18:38,NA,incomplete,false,NA,true,6,8,NA,NA,NA,left,present,NA,NA,m_s_023.jpg,blue,n_s_067.jpg,orange,between,NA,NaN,NA,right,5816.400000095367,0,0,7916.100000143051
BeK70JTU,3mdwe879vkfdd3966pwqlqs2jwg9bh,3e1qt0tdftmp9q2wy9nvw1xwwzdi80,BeK70JTU,2020-0188,2021-10-14,14:07:15,15:18:38,NA,incomplete,false,NA,true,6,9,NA,NA,NA,left,present,NA,NA,m_l_100.jpg,orange,n_s_044.jpg,yellow,between,NA,NaN,NA,right,4481.5,0,3,1683.2000000476837
BeK70JTU,3mdwe879vkfdd3966pwqlqs2jwg9bh,3e1qt0tdftmp9q2wy9nvw1xwwzdi80,BeK70JTU,2020-0188,2021-10-14,14:07:15,15:18:38,NA,incomplete,false,NA,true,6,10,NA,NA,NA,right,present,NA,NA,m_l_066.jpg,purple,m_l_096.jpg,purple,within,NA,NaN,NA,left,5172.900000095367,0,3,2543.4000000953674
BeK70JTU,3mdwe879vkfdd3966pwqlqs2jwg9bh,3e1qt0tdftmp9q2wy9nvw1xwwzdi80,BeK70JTU,2020-0188,2021-10-14,14:07:15,15:18:38,NA,incomplete,false,true,NA,7,0,NA,orange,m_s_048.jpg,NA,NA,pleasant,unpleasant,NA,NA,NA,NA,NA,right,2668.19999980927,true,NA,NA,NA,NA,NA
BeK70JTU,3mdwe879vkfdd3966pwqlqs2jwg9bh,3e1qt0tdftmp9q2wy9nvw1xwwzdi80,BeK70JTU,2020-0188,2021-10-14,14:07:15,15:18:38,NA,incomplete,false,true,NA,7,1,NA,orange,m_s_030.jpg,NA,NA,pleasant,unpleasant,NA,NA,NA,NA,NA,right,1566.09999990463,true,NA,NA,NA,NA,NA
BeK70JTU,3mdwe879vkfdd3966pwqlqs2jwg9bh,3e1qt0tdftmp9q2wy9nvw1xwwzdi80,BeK70JTU,2020-0188,2021-10-14,14:07:15,15:18:38,NA,incomplete,false,true,NA,7,2,NA,orange,n_s_059.jpg,NA,NA,unpleasant,pleasant,NA,NA,NA,NA,NA,right,1688.90000009537,true,NA,NA,NA,NA,NA
BeK70JTU,3mdwe879vkfdd3966pwqlqs2jwg9bh,3e1qt0tdftmp9q2wy9nvw1xwwzdi80,BeK70JTU,2020-0188,2021-10-14,14:07:15,15:18:38,NA,incomplete,false,true,NA,7,3,NA,orange,m_l_085.jpg,NA,NA,unpleasant,pleasant,NA,NA,NA,NA,NA,left,1356.89999985695,true,NA,NA,NA,NA,NA
BeK70JTU,3mdwe879vkfdd3966pwqlqs2jwg9bh,3e1qt0tdftmp9q2wy9nvw1xwwzdi80,BeK70JTU,2020-0188,2021-10-14,14:07:15,15:18:38,NA,incomplete,false,true,NA,7,4,NA,orange,m_s_039.jpg,NA,NA,unpleasant,pleasant,NA,NA,NA,NA,NA,left,1863.5,true,NA,NA,NA,NA,NA
BeK70JTU,3mdwe879vkfdd3966pwqlqs2jwg9bh,3e1qt0tdftmp9q2wy9nvw1xwwzdi80,BeK70JTU,2020-0188,2021-10-14,14:07:15,15:18:38,NA,incomplete,false,true,NA,7,5,NA,orange,m_l_018.jpg,NA,NA,unpleasant,pleasant,NA,NA,NA,NA,NA,left,1059.69999980927,true,NA,NA,NA,NA,NA
BeK70JTU,3mdwe879vkfdd3966pwqlqs2jwg9bh,3e1qt0tdftmp9q2wy9nvw1xwwzdi80,BeK70JTU,2020-0188,2021-10-14,14:07:15,15:18:38,NA,incomplete,false,true,NA,7,6,NA,gray,n_s_093.jpg,NA,NA,unpleasant,pleasant,NA,NA,NA,NA,NA,right,1280.5,true,NA,NA,NA,NA,NA
BeK70JTU,3mdwe879vkfdd3966pwqlqs2jwg9bh,3e1qt0tdftmp9q2wy9nvw1xwwzdi80,BeK70JTU,2020-0188,2021-10-14,14:07:15,15:18:38,NA,incomplete,false,true,NA,7,7,NA,gray,m_l_093.jpg,NA,NA,pleasant,unpleasant,NA,NA,NA,NA,NA,right,1331.39999985695,true,NA,NA,NA,NA,NA
BeK70JTU,3mdwe879vkfdd3966pwqlqs2jwg9bh,3e1qt0tdftmp9q2wy9nvw1xwwzdi80,BeK70JTU,2020-0188,2021-10-14,14:07:15,15:18:38,NA,incomplete,false,true,NA,7,8,NA,gray,m_s_038.jpg,NA,NA,pleasant,unpleasant,NA,NA,NA,NA,NA,right,1563.39999985695,true,NA,NA,NA,NA,NA
BeK70JTU,3mdwe879vkfdd3966pwqlqs2jwg9bh,3e1qt0tdftmp9q2wy9nvw1xwwzdi80,BeK70JTU,2020-0188,2021-10-14,14:07:15,15:18:38,NA,incomplete,false,true,NA,7,9,NA,gray,m_l_088.jpg,NA,NA,pleasant,unpleasant,NA,NA,NA,NA,NA,right,1764.30000019073,true,NA,NA,NA,NA,NA
BeK70JTU,3mdwe879vkfdd3966pwqlqs2jwg9bh,3e1qt0tdftmp9q2wy9nvw1xwwzdi80,BeK70JTU,2020-0188,2021-10-14,14:07:15,15:18:38,NA,incomplete,false,true,NA,7,10,NA,gray,n_s_012.jpg,NA,NA,unpleasant,pleasant,NA,NA,NA,NA,NA,right,1454.09999990463,true,NA,NA,NA,NA,NA
BeK70JTU,3mdwe879vkfdd3966pwqlqs2jwg9bh,3e1qt0tdftmp9q2wy9nvw1xwwzdi80,BeK70JTU,2020-0188,2021-10-14,14:07:15,15:18:38,NA,incomplete,false,true,NA,7,11,NA,gray,n_s_038.jpg,NA,NA,pleasant,unpleasant,NA,NA,NA,NA,NA,left,1396.60000014305,true,NA,NA,NA,NA,NA
BeK70JTU,3mdwe879vkfdd3966pwqlqs2jwg9bh,3e1qt0tdftmp9q2wy9nvw1xwwzdi80,BeK70JTU,2020-0188,2021-10-14,14:07:15,15:18:38,NA,incomplete,false,true,NA,7,12,NA,white,m_s_044.jpg,NA,NA,unpleasant,pleasant,NA,NA,NA,NA,NA,left,1208.5,true,NA,NA,NA,NA,NA
BeK70JTU,3mdwe879vkfdd3966pwqlqs2jwg9bh,3e1qt0tdftmp9q2wy9nvw1xwwzdi80,BeK70JTU,2020-0188,2021-10-14,14:07:15,15:18:38,NA,incomplete,false,true,NA,7,13,NA,white,n_s_005.jpg,NA,NA,pleasant,unpleasant,NA,NA,NA,NA,NA,left,1538.19999980927,true,NA,NA,NA,NA,NA
BeK70JTU,3mdwe879vkfdd3966pwqlqs2jwg9bh,3e1qt0tdftmp9q2wy9nvw1xwwzdi80,BeK70JTU,2020-0188,2021-10-14,14:07:15,15:18:38,NA,incomplete,false,true,NA,7,14,NA,white,m_l_052.jpg,NA,NA,unpleasant,pleasant,NA,NA,NA,NA,NA,left,1878.79999995232,true,NA,NA,NA,NA,NA
BeK70JTU,3mdwe879vkfdd3966pwqlqs2jwg9bh,3e1qt0tdftmp9q2wy9nvw1xwwzdi80,BeK70JTU,2020-0188,2021-10-14,14:07:15,15:18:38,NA,incomplete,false,true,NA,7,15,NA,white,m_l_087.jpg,NA,NA,pleasant,unpleasant,NA,NA,NA,NA,NA,right,1407.29999995232,true,NA,NA,NA,NA,NA
BeK70JTU,3mdwe879vkfdd3966pwqlqs2jwg9bh,3e1qt0tdftmp9q2wy9nvw1xwwzdi80,BeK70JTU,2020-0188,2021-10-14,14:07:15,15:18:38,NA,incomplete,false,true,NA,7,16,NA,white,m_l_012.jpg,NA,NA,pleasant,unpleasant,NA,NA,NA,NA,NA,right,1445.30000019073,true,NA,NA,NA,NA,NA
BeK70JTU,3mdwe879vkfdd3966pwqlqs2jwg9bh,3e1qt0tdftmp9q2wy9nvw1xwwzdi80,BeK70JTU,2020-0188,2021-10-14,14:07:15,15:18:38,NA,incomplete,false,true,NA,7,17,NA,white,m_s_036.jpg,NA,NA,pleasant,unpleasant,NA,NA,NA,NA,NA,right,2447.40000009537,true,NA,NA,NA,NA,NA
BeK70JTU,3mdwe879vkfdd3966pwqlqs2jwg9bh,3e1qt0tdftmp9q2wy9nvw1xwwzdi80,BeK70JTU,2020-0188,2021-10-14,14:07:15,15:18:38,NA,incomplete,false,true,NA,7,18,NA,red,m_s_105.jpg,NA,NA,unpleasant,pleasant,NA,NA,NA,NA,NA,left,2458.5,true,NA,NA,NA,NA,NA
BeK70JTU,3mdwe879vkfdd3966pwqlqs2jwg9bh,3e1qt0tdftmp9q2wy9nvw1xwwzdi80,BeK70JTU,2020-0188,2021-10-14,14:07:15,15:18:38,NA,incomplete,false,true,NA,7,19,NA,red,n_s_082.jpg,NA,NA,pleasant,unpleasant,NA,NA,NA,NA,NA,right,2239.79999995232,true,NA,NA,NA,NA,NA
BeK70JTU,3mdwe879vkfdd3966pwqlqs2jwg9bh,3e1qt0tdftmp9q2wy9nvw1xwwzdi80,BeK70JTU,2020-0188,2021-10-14,14:07:15,15:18:38,NA,incomplete,false,true,NA,7,20,NA,red,m_l_030.jpg,NA,NA,pleasant,unpleasant,NA,NA,NA,NA,NA,right,1290.70000004768,true,NA,NA,NA,NA,NA
BeK70JTU,3mdwe879vkfdd3966pwqlqs2jwg9bh,3e1qt0tdftmp9q2wy9nvw1xwwzdi80,BeK70JTU,2020-0188,2021-10-14,14:07:15,15:18:38,NA,incomplete,false,true,NA,7,21,NA,red,n_l_117.jpg,NA,NA,pleasant,unpleasant,NA,NA,NA,NA,NA,left,1553.20000004768,true,NA,NA,NA,NA,NA
BeK70JTU,3mdwe879vkfdd3966pwqlqs2jwg9bh,3e1qt0tdftmp9q2wy9nvw1xwwzdi80,BeK70JTU,2020-0188,2021-10-14,14:07:15,15:18:38,NA,incomplete,false,true,NA,7,22,NA,red,n_l_017.jpg,NA,NA,unpleasant,pleasant,NA,NA,NA,NA,NA,right,1250.79999995232,true,NA,NA,NA,NA,NA
BeK70JTU,3mdwe879vkfdd3966pwqlqs2jwg9bh,3e1qt0tdftmp9q2wy9nvw1xwwzdi80,BeK70JTU,2020-0188,2021-10-14,14:07:15,15:18:38,NA,incomplete,false,true,NA,7,23,NA,red,m_s_040.jpg,NA,NA,unpleasant,pleasant,NA,NA,NA,NA,NA,left,1747,true,NA,NA,NA,NA,NA
BeK70JTU,3mdwe879vkfdd3966pwqlqs2jwg9bh,3e1qt0tdftmp9q2wy9nvw1xwwzdi80,BeK70JTU,2020-0188,2021-10-14,14:07:15,15:18:38,NA,incomplete,false,true,NA,7,24,NA,green,m_l_070.jpg,NA,NA,pleasant,unpleasant,NA,NA,NA,NA,NA,right,1700,true,NA,NA,NA,NA,NA
BeK70JTU,3mdwe879vkfdd3966pwqlqs2jwg9bh,3e1qt0tdftmp9q2wy9nvw1xwwzdi80,BeK70JTU,2020-0188,2021-10-14,14:07:15,15:18:38,NA,incomplete,false,true,NA,7,25,NA,green,m_l_007.jpg,NA,NA,pleasant,unpleasant,NA,NA,NA,NA,NA,right,1731,true,NA,NA,NA,NA,NA
BeK70JTU,3mdwe879vkfdd3966pwqlqs2jwg9bh,3e1qt0tdftmp9q2wy9nvw1xwwzdi80,BeK70JTU,2020-0188,2021-10-14,14:07:15,15:18:38,NA,incomplete,false,true,NA,7,26,NA,green,m_l_001.jpg,NA,NA,unpleasant,pleasant,NA,NA,NA,NA,NA,left,1233.09999990463,true,NA,NA,NA,NA,NA
BeK70JTU,3mdwe879vkfdd3966pwqlqs2jwg9bh,3e1qt0tdftmp9q2wy9nvw1xwwzdi80,BeK70JTU,2020-0188,2021-10-14,14:07:15,15:18:38,NA,incomplete,false,true,NA,7,27,NA,green,n_s_092.jpg,NA,NA,unpleasant,pleasant,NA,NA,NA,NA,NA,right,1542.59999990463,true,NA,NA,NA,NA,NA
BeK70JTU,3mdwe879vkfdd3966pwqlqs2jwg9bh,3e1qt0tdftmp9q2wy9nvw1xwwzdi80,BeK70JTU,2020-0188,2021-10-14,14:07:15,15:18:38,NA,incomplete,false,true,NA,7,28,NA,green,m_l_077.jpg,NA,NA,pleasant,unpleasant,NA,NA,NA,NA,NA,right,1451.19999980927,true,NA,NA,NA,NA,NA
BeK70JTU,3mdwe879vkfdd3966pwqlqs2jwg9bh,3e1qt0tdftmp9q2wy9nvw1xwwzdi80,BeK70JTU,2020-0188,2021-10-14,14:07:15,15:18:38,NA,incomplete,false,true,NA,7,29,NA,green,m_s_056.jpg,NA,NA,unpleasant,pleasant,NA,NA,NA,NA,NA,left,1463.20000004768,true,NA,NA,NA,NA,NA
BeK70JTU,3mdwe879vkfdd3966pwqlqs2jwg9bh,3e1qt0tdftmp9q2wy9nvw1xwwzdi80,BeK70JTU,2020-0188,2021-10-14,14:07:15,15:18:38,NA,incomplete,false,true,NA,7,30,NA,purple,n_l_057.jpg,NA,NA,pleasant,unpleasant,NA,NA,NA,NA,NA,left,1432.39999985695,true,NA,NA,NA,NA,NA
BeK70JTU,3mdwe879vkfdd3966pwqlqs2jwg9bh,3e1qt0tdftmp9q2wy9nvw1xwwzdi80,BeK70JTU,2020-0188,2021-10-14,14:07:15,15:18:38,NA,incomplete,false,true,NA,7,31,NA,purple,n_s_023.jpg,NA,NA,pleasant,unpleasant,NA,NA,NA,NA,NA,left,1306.69999980927,true,NA,NA,NA,NA,NA
BeK70JTU,3mdwe879vkfdd3966pwqlqs2jwg9bh,3e1qt0tdftmp9q2wy9nvw1xwwzdi80,BeK70JTU,2020-0188,2021-10-14,14:07:15,15:18:38,NA,incomplete,false,true,NA,7,32,NA,purple,m_s_082.jpg,NA,NA,pleasant,unpleasant,NA,NA,NA,NA,NA,left,1416.60000014305,true,NA,NA,NA,NA,NA
BeK70JTU,3mdwe879vkfdd3966pwqlqs2jwg9bh,3e1qt0tdftmp9q2wy9nvw1xwwzdi80,BeK70JTU,2020-0188,2021-10-14,14:07:15,15:18:38,NA,incomplete,false,true,NA,7,33,NA,purple,n_s_037.jpg,NA,NA,pleasant,unpleasant,NA,NA,NA,NA,NA,left,1282.19999980927,true,NA,NA,NA,NA,NA
BeK70JTU,3mdwe879vkfdd3966pwqlqs2jwg9bh,3e1qt0tdftmp9q2wy9nvw1xwwzdi80,BeK70JTU,2020-0188,2021-10-14,14:07:15,15:18:38,NA,incomplete,false,true,NA,7,34,NA,purple,n_l_063.jpg,NA,NA,unpleasant,pleasant,NA,NA,NA,NA,NA,right,1450.09999990463,true,NA,NA,NA,NA,NA
BeK70JTU,3mdwe879vkfdd3966pwqlqs2jwg9bh,3e1qt0tdftmp9q2wy9nvw1xwwzdi80,BeK70JTU,2020-0188,2021-10-14,14:07:15,15:18:38,NA,incomplete,false,true,NA,7,35,NA,purple,m_l_063.jpg,NA,NA,unpleasant,pleasant,NA,NA,NA,NA,NA,left,1267.39999985695,true,NA,NA,NA,NA,NA
BeK70JTU,3mdwe879vkfdd3966pwqlqs2jwg9bh,3e1qt0tdftmp9q2wy9nvw1xwwzdi80,BeK70JTU,2020-0188,2021-10-14,14:07:15,15:18:38,NA,incomplete,false,NA,true,7,0,NA,NA,NA,right,present,NA,NA,m_s_040.jpg,red,n_s_082.jpg,red,within,NA,NaN,NA,right,2852.0999999046326,1,0,1765.1999998092651
BeK70JTU,3mdwe879vkfdd3966pwqlqs2jwg9bh,3e1qt0tdftmp9q2wy9nvw1xwwzdi80,BeK70JTU,2020-0188,2021-10-14,14:07:15,15:18:38,NA,incomplete,false,NA,true,7,1,NA,NA,NA,right,present,NA,NA,n_s_038.jpg,gray,m_l_093.jpg,gray,within,NA,NaN,NA,left,4093.9000000953674,0,1,2568.2000000476837
BeK70JTU,3mdwe879vkfdd3966pwqlqs2jwg9bh,3e1qt0tdftmp9q2wy9nvw1xwwzdi80,BeK70JTU,2020-0188,2021-10-14,14:07:15,15:18:38,NA,incomplete,false,NA,true,7,2,NA,NA,NA,right,present,NA,NA,m_l_001.jpg,green,n_l_017.jpg,red,between,NA,NaN,NA,left,5632.700000047684,0,3,1520.7999999523163
BeK70JTU,3mdwe879vkfdd3966pwqlqs2jwg9bh,3e1qt0tdftmp9q2wy9nvw1xwwzdi80,BeK70JTU,2020-0188,2021-10-14,14:07:15,15:18:38,NA,incomplete,false,NA,true,7,3,NA,NA,NA,left,present,NA,NA,n_s_005.jpg,white,m_s_036.jpg,white,within,NA,NaN,NA,right,3281.7999999523163,0,1,2429.2999999523163
BeK70JTU,3mdwe879vkfdd3966pwqlqs2jwg9bh,3e1qt0tdftmp9q2wy9nvw1xwwzdi80,BeK70JTU,2020-0188,2021-10-14,14:07:15,15:18:38,NA,incomplete,false,NA,true,7,4,NA,NA,NA,left,present,NA,NA,m_l_012.jpg,white,m_l_030.jpg,red,between,NA,NaN,NA,right,2467.2999999523163,0,3,3228.699999809265
BeK70JTU,3mdwe879vkfdd3966pwqlqs2jwg9bh,3e1qt0tdftmp9q2wy9nvw1xwwzdi80,BeK70JTU,2020-0188,2021-10-14,14:07:15,15:18:38,NA,incomplete,false,NA,true,7,5,NA,NA,NA,left,present,NA,NA,m_s_030.jpg,orange,m_l_018.jpg,orange,within,NA,NaN,NA,left,2530.399999856949,1,0,2203.899999856949
BeK70JTU,3mdwe879vkfdd3966pwqlqs2jwg9bh,3e1qt0tdftmp9q2wy9nvw1xwwzdi80,BeK70JTU,2020-0188,2021-10-14,14:07:15,15:18:38,NA,incomplete,false,NA,true,7,6,NA,NA,NA,left,present,NA,NA,m_l_077.jpg,green,m_s_082.jpg,purple,between,NA,NaN,NA,left,2538.5,1,1,4238.899999856949
BeK70JTU,3mdwe879vkfdd3966pwqlqs2jwg9bh,3e1qt0tdftmp9q2wy9nvw1xwwzdi80,BeK70JTU,2020-0188,2021-10-14,14:07:15,15:18:38,NA,incomplete,false,NA,true,7,7,NA,NA,NA,left,present,NA,NA,n_s_012.jpg,gray,m_l_052.jpg,white,between,NA,NaN,NA,left,3597.899999856949,1,3,1787.9000000953674
BeK70JTU,3mdwe879vkfdd3966pwqlqs2jwg9bh,3e1qt0tdftmp9q2wy9nvw1xwwzdi80,BeK70JTU,2020-0188,2021-10-14,14:07:15,15:18:38,NA,incomplete,false,NA,true,7,8,NA,NA,NA,left,present,NA,NA,n_s_023.jpg,purple,m_l_063.jpg,purple,within,NA,NaN,NA,left,2678,1,1,1870.4000000953674
BeK70JTU,3mdwe879vkfdd3966pwqlqs2jwg9bh,3e1qt0tdftmp9q2wy9nvw1xwwzdi80,BeK70JTU,2020-0188,2021-10-14,14:07:15,15:18:38,NA,incomplete,false,NA,true,7,9,NA,NA,NA,right,present,NA,NA,m_s_056.jpg,green,m_l_007.jpg,green,within,NA,NaN,NA,left,3867.2999999523163,0,1,8753.700000047684
BeK70JTU,3mdwe879vkfdd3966pwqlqs2jwg9bh,3e1qt0tdftmp9q2wy9nvw1xwwzdi80,BeK70JTU,2020-0188,2021-10-14,14:07:15,15:18:38,NA,incomplete,false,NA,true,7,10,NA,NA,NA,right,present,NA,NA,m_s_038.jpg,gray,m_s_039.jpg,orange,between,NA,NaN,NA,right,5517.699999809265,1,3,3442.399999856949
BeK70JTU,3mdwe879vkfdd3966pwqlqs2jwg9bh,3e1qt0tdftmp9q2wy9nvw1xwwzdi80,BeK70JTU,2020-0188,2021-10-14,14:07:15,15:18:38,NA,incomplete,false,true,NA,8,0,NA,white,n_s_113.jpg,NA,NA,unpleasant,pleasant,NA,NA,NA,NA,NA,right,1749.29999995232,true,NA,NA,NA,NA,NA
BeK70JTU,3mdwe879vkfdd3966pwqlqs2jwg9bh,3e1qt0tdftmp9q2wy9nvw1xwwzdi80,BeK70JTU,2020-0188,2021-10-14,14:07:15,15:18:38,NA,incomplete,false,true,NA,8,1,NA,white,m_l_016.jpg,NA,NA,unpleasant,pleasant,NA,NA,NA,NA,NA,left,1328.90000009537,true,NA,NA,NA,NA,NA
BeK70JTU,3mdwe879vkfdd3966pwqlqs2jwg9bh,3e1qt0tdftmp9q2wy9nvw1xwwzdi80,BeK70JTU,2020-0188,2021-10-14,14:07:15,15:18:38,NA,incomplete,false,true,NA,8,2,NA,white,n_l_089.jpg,NA,NA,unpleasant,pleasant,NA,NA,NA,NA,NA,right,1517.79999995232,true,NA,NA,NA,NA,NA
BeK70JTU,3mdwe879vkfdd3966pwqlqs2jwg9bh,3e1qt0tdftmp9q2wy9nvw1xwwzdi80,BeK70JTU,2020-0188,2021-10-14,14:07:15,15:18:38,NA,incomplete,false,true,NA,8,3,NA,white,m_s_092.jpg,NA,NA,pleasant,unpleasant,NA,NA,NA,NA,NA,left,1592.89999985695,true,NA,NA,NA,NA,NA
BeK70JTU,3mdwe879vkfdd3966pwqlqs2jwg9bh,3e1qt0tdftmp9q2wy9nvw1xwwzdi80,BeK70JTU,2020-0188,2021-10-14,14:07:15,15:18:38,NA,incomplete,false,true,NA,8,4,NA,white,m_l_084.jpg,NA,NA,pleasant,unpleasant,NA,NA,NA,NA,NA,right,1404,true,NA,NA,NA,NA,NA
BeK70JTU,3mdwe879vkfdd3966pwqlqs2jwg9bh,3e1qt0tdftmp9q2wy9nvw1xwwzdi80,BeK70JTU,2020-0188,2021-10-14,14:07:15,15:18:38,NA,incomplete,false,true,NA,8,5,NA,white,n_s_039.jpg,NA,NA,pleasant,unpleasant,NA,NA,NA,NA,NA,left,1292.90000009537,true,NA,NA,NA,NA,NA
BeK70JTU,3mdwe879vkfdd3966pwqlqs2jwg9bh,3e1qt0tdftmp9q2wy9nvw1xwwzdi80,BeK70JTU,2020-0188,2021-10-14,14:07:15,15:18:38,NA,incomplete,false,true,NA,8,6,NA,red,n_s_033.jpg,NA,NA,unpleasant,pleasant,NA,NA,NA,NA,NA,right,1361.80000019073,true,NA,NA,NA,NA,NA
BeK70JTU,3mdwe879vkfdd3966pwqlqs2jwg9bh,3e1qt0tdftmp9q2wy9nvw1xwwzdi80,BeK70JTU,2020-0188,2021-10-14,14:07:15,15:18:38,NA,incomplete,false,true,NA,8,7,NA,red,n_s_035.jpg,NA,NA,unpleasant,pleasant,NA,NA,NA,NA,NA,right,2125,true,NA,NA,NA,NA,NA
BeK70JTU,3mdwe879vkfdd3966pwqlqs2jwg9bh,3e1qt0tdftmp9q2wy9nvw1xwwzdi80,BeK70JTU,2020-0188,2021-10-14,14:07:15,15:18:38,NA,incomplete,false,true,NA,8,8,NA,red,n_s_081.jpg,NA,NA,pleasant,unpleasant,NA,NA,NA,NA,NA,left,1337.10000014305,true,NA,NA,NA,NA,NA
