workerId,hitId,assignmentId,subject,studyid,exp_date,exp_start,exp_end,time_start,time_end,practice,encoding,memory,block,trial,event_order,event,stim,answer,context_type,label_left,label_right,left_image,left_event,right_image,right_event,condition,response,response_time,response_acc,order_response,order_response_time,order_acc,distance_response,distance_response_time
BWkSLKcb,32k26u12eq14p7ktnmss8y5zd9bdv8,3lotdfnyabcgp0wov4xg7knqyd3fwy,BWkSLKcb,2020-0188,2021-10-14,06:51:36,07:57:04,NA,incomplete,true,true,NA,0,0,NA,orange,n_s_021.jpg,NA,NA,pleasant,unpleasant,NA,NA,NA,NA,NA,none,0,false,NA,NA,NA,NA,NA
BWkSLKcb,32k26u12eq14p7ktnmss8y5zd9bdv8,3lotdfnyabcgp0wov4xg7knqyd3fwy,BWkSLKcb,2020-0188,2021-10-14,06:51:36,07:57:04,NA,incomplete,true,true,NA,0,1,NA,orange,m_l_088.jpg,NA,NA,pleasant,unpleasant,NA,NA,NA,NA,NA,right,2266.10000002384,true,NA,NA,NA,NA,NA
BWkSLKcb,32k26u12eq14p7ktnmss8y5zd9bdv8,3lotdfnyabcgp0wov4xg7knqyd3fwy,BWkSLKcb,2020-0188,2021-10-14,06:51:36,07:57:04,NA,incomplete,true,true,NA,0,2,NA,orange,n_l_084.jpg,NA,NA,pleasant,unpleasant,NA,NA,NA,NA,NA,right,1611.40000003576,true,NA,NA,NA,NA,NA
BWkSLKcb,32k26u12eq14p7ktnmss8y5zd9bdv8,3lotdfnyabcgp0wov4xg7knqyd3fwy,BWkSLKcb,2020-0188,2021-10-14,06:51:36,07:57:04,NA,incomplete,true,true,NA,0,3,NA,orange,n_l_058.jpg,NA,NA,unpleasant,pleasant,NA,NA,NA,NA,NA,right,1677,true,NA,NA,NA,NA,NA
BWkSLKcb,32k26u12eq14p7ktnmss8y5zd9bdv8,3lotdfnyabcgp0wov4xg7knqyd3fwy,BWkSLKcb,2020-0188,2021-10-14,06:51:36,07:57:04,NA,incomplete,true,true,NA,0,4,NA,orange,n_s_079.jpg,NA,NA,pleasant,unpleasant,NA,NA,NA,NA,NA,right,2182,true,NA,NA,NA,NA,NA
BWkSLKcb,32k26u12eq14p7ktnmss8y5zd9bdv8,3lotdfnyabcgp0wov4xg7knqyd3fwy,BWkSLKcb,2020-0188,2021-10-14,06:51:36,07:57:04,NA,incomplete,true,true,NA,0,5,NA,orange,n_l_064.jpg,NA,NA,pleasant,unpleasant,NA,NA,NA,NA,NA,left,2193.30000001192,true,NA,NA,NA,NA,NA
BWkSLKcb,32k26u12eq14p7ktnmss8y5zd9bdv8,3lotdfnyabcgp0wov4xg7knqyd3fwy,BWkSLKcb,2020-0188,2021-10-14,06:51:36,07:57:04,NA,incomplete,true,true,NA,0,6,NA,purple,n_s_054.jpg,NA,NA,pleasant,unpleasant,NA,NA,NA,NA,NA,left,1334.79999995232,true,NA,NA,NA,NA,NA
BWkSLKcb,32k26u12eq14p7ktnmss8y5zd9bdv8,3lotdfnyabcgp0wov4xg7knqyd3fwy,BWkSLKcb,2020-0188,2021-10-14,06:51:36,07:57:04,NA,incomplete,true,true,NA,0,7,NA,purple,n_s_113.jpg,NA,NA,pleasant,unpleasant,NA,NA,NA,NA,NA,left,2425.5,true,NA,NA,NA,NA,NA
BWkSLKcb,32k26u12eq14p7ktnmss8y5zd9bdv8,3lotdfnyabcgp0wov4xg7knqyd3fwy,BWkSLKcb,2020-0188,2021-10-14,06:51:36,07:57:04,NA,incomplete,true,true,NA,0,8,NA,purple,n_l_073.jpg,NA,NA,unpleasant,pleasant,NA,NA,NA,NA,NA,left,1439.89999997616,true,NA,NA,NA,NA,NA
BWkSLKcb,32k26u12eq14p7ktnmss8y5zd9bdv8,3lotdfnyabcgp0wov4xg7knqyd3fwy,BWkSLKcb,2020-0188,2021-10-14,06:51:36,07:57:04,NA,incomplete,true,true,NA,0,9,NA,purple,n_l_018.jpg,NA,NA,pleasant,unpleasant,NA,NA,NA,NA,NA,left,2177.79999995232,true,NA,NA,NA,NA,NA
BWkSLKcb,32k26u12eq14p7ktnmss8y5zd9bdv8,3lotdfnyabcgp0wov4xg7knqyd3fwy,BWkSLKcb,2020-0188,2021-10-14,06:51:36,07:57:04,NA,incomplete,true,true,NA,0,10,NA,purple,n_s_005.jpg,NA,NA,pleasant,unpleasant,NA,NA,NA,NA,NA,right,2301.19999998808,true,NA,NA,NA,NA,NA
BWkSLKcb,32k26u12eq14p7ktnmss8y5zd9bdv8,3lotdfnyabcgp0wov4xg7knqyd3fwy,BWkSLKcb,2020-0188,2021-10-14,06:51:36,07:57:04,NA,incomplete,true,true,NA,0,11,NA,purple,m_s_063.jpg,NA,NA,pleasant,unpleasant,NA,NA,NA,NA,NA,left,2702.80000001192,true,NA,NA,NA,NA,NA
BWkSLKcb,32k26u12eq14p7ktnmss8y5zd9bdv8,3lotdfnyabcgp0wov4xg7knqyd3fwy,BWkSLKcb,2020-0188,2021-10-14,06:51:36,07:57:04,NA,incomplete,true,true,NA,0,12,NA,red,n_s_107.jpg,NA,NA,unpleasant,pleasant,NA,NA,NA,NA,NA,left,3245.39999997616,true,NA,NA,NA,NA,NA
BWkSLKcb,32k26u12eq14p7ktnmss8y5zd9bdv8,3lotdfnyabcgp0wov4xg7knqyd3fwy,BWkSLKcb,2020-0188,2021-10-14,06:51:36,07:57:04,NA,incomplete,true,true,NA,0,13,NA,red,n_l_075.jpg,NA,NA,unpleasant,pleasant,NA,NA,NA,NA,NA,right,2601.79999995232,true,NA,NA,NA,NA,NA
BWkSLKcb,32k26u12eq14p7ktnmss8y5zd9bdv8,3lotdfnyabcgp0wov4xg7knqyd3fwy,BWkSLKcb,2020-0188,2021-10-14,06:51:36,07:57:04,NA,incomplete,true,true,NA,0,14,NA,red,m_l_025.jpg,NA,NA,pleasant,unpleasant,NA,NA,NA,NA,NA,right,1955.40000003576,true,NA,NA,NA,NA,NA
BWkSLKcb,32k26u12eq14p7ktnmss8y5zd9bdv8,3lotdfnyabcgp0wov4xg7knqyd3fwy,BWkSLKcb,2020-0188,2021-10-14,06:51:36,07:57:04,NA,incomplete,true,true,NA,0,15,NA,red,n_l_093.jpg,NA,NA,unpleasant,pleasant,NA,NA,NA,NA,NA,left,3240.40000003576,true,NA,NA,NA,NA,NA
BWkSLKcb,32k26u12eq14p7ktnmss8y5zd9bdv8,3lotdfnyabcgp0wov4xg7knqyd3fwy,BWkSLKcb,2020-0188,2021-10-14,06:51:36,07:57:04,NA,incomplete,true,true,NA,0,16,NA,red,m_l_029.jpg,NA,NA,pleasant,unpleasant,NA,NA,NA,NA,NA,none,0,false,NA,NA,NA,NA,NA
BWkSLKcb,32k26u12eq14p7ktnmss8y5zd9bdv8,3lotdfnyabcgp0wov4xg7knqyd3fwy,BWkSLKcb,2020-0188,2021-10-14,06:51:36,07:57:04,NA,incomplete,true,true,NA,0,17,NA,red,m_l_078.jpg,NA,NA,pleasant,unpleasant,NA,NA,NA,NA,NA,right,2102.20000004768,true,NA,NA,NA,NA,NA
BWkSLKcb,32k26u12eq14p7ktnmss8y5zd9bdv8,3lotdfnyabcgp0wov4xg7knqyd3fwy,BWkSLKcb,2020-0188,2021-10-14,06:51:36,07:57:04,NA,incomplete,true,true,NA,0,18,NA,blue,m_s_021.jpg,NA,NA,unpleasant,pleasant,NA,NA,NA,NA,NA,right,2261.89999997616,true,NA,NA,NA,NA,NA
BWkSLKcb,32k26u12eq14p7ktnmss8y5zd9bdv8,3lotdfnyabcgp0wov4xg7knqyd3fwy,BWkSLKcb,2020-0188,2021-10-14,06:51:36,07:57:04,NA,incomplete,true,true,NA,0,19,NA,blue,m_s_081.jpg,NA,NA,unpleasant,pleasant,NA,NA,NA,NA,NA,right,1830.69999998808,true,NA,NA,NA,NA,NA
BWkSLKcb,32k26u12eq14p7ktnmss8y5zd9bdv8,3lotdfnyabcgp0wov4xg7knqyd3fwy,BWkSLKcb,2020-0188,2021-10-14,06:51:36,07:57:04,NA,incomplete,true,true,NA,0,20,NA,blue,m_s_064.jpg,NA,NA,pleasant,unpleasant,NA,NA,NA,NA,NA,none,0,false,NA,NA,NA,NA,NA
BWkSLKcb,32k26u12eq14p7ktnmss8y5zd9bdv8,3lotdfnyabcgp0wov4xg7knqyd3fwy,BWkSLKcb,2020-0188,2021-10-14,06:51:36,07:57:04,NA,incomplete,true,true,NA,0,21,NA,blue,n_l_035.jpg,NA,NA,pleasant,unpleasant,NA,NA,NA,NA,NA,left,1725.60000002384,true,NA,NA,NA,NA,NA
BWkSLKcb,32k26u12eq14p7ktnmss8y5zd9bdv8,3lotdfnyabcgp0wov4xg7knqyd3fwy,BWkSLKcb,2020-0188,2021-10-14,06:51:36,07:57:04,NA,incomplete,true,true,NA,0,22,NA,blue,n_s_096.jpg,NA,NA,pleasant,unpleasant,NA,NA,NA,NA,NA,left,1776.39999997616,true,NA,NA,NA,NA,NA
BWkSLKcb,32k26u12eq14p7ktnmss8y5zd9bdv8,3lotdfnyabcgp0wov4xg7knqyd3fwy,BWkSLKcb,2020-0188,2021-10-14,06:51:36,07:57:04,NA,incomplete,true,true,NA,0,23,NA,blue,n_l_007.jpg,NA,NA,pleasant,unpleasant,NA,NA,NA,NA,NA,right,1945.30000001192,true,NA,NA,NA,NA,NA
BWkSLKcb,32k26u12eq14p7ktnmss8y5zd9bdv8,3lotdfnyabcgp0wov4xg7knqyd3fwy,BWkSLKcb,2020-0188,2021-10-14,06:51:36,07:57:04,NA,incomplete,true,true,NA,0,24,NA,green,n_l_012.jpg,NA,NA,pleasant,unpleasant,NA,NA,NA,NA,NA,right,2338.89999997616,true,NA,NA,NA,NA,NA
BWkSLKcb,32k26u12eq14p7ktnmss8y5zd9bdv8,3lotdfnyabcgp0wov4xg7knqyd3fwy,BWkSLKcb,2020-0188,2021-10-14,06:51:36,07:57:04,NA,incomplete,true,true,NA,0,25,NA,green,m_l_091.jpg,NA,NA,unpleasant,pleasant,NA,NA,NA,NA,NA,left,1732.10000002384,true,NA,NA,NA,NA,NA
BWkSLKcb,32k26u12eq14p7ktnmss8y5zd9bdv8,3lotdfnyabcgp0wov4xg7knqyd3fwy,BWkSLKcb,2020-0188,2021-10-14,06:51:36,07:57:04,NA,incomplete,true,true,NA,0,26,NA,green,n_s_098.jpg,NA,NA,pleasant,unpleasant,NA,NA,NA,NA,NA,right,2854.5,true,NA,NA,NA,NA,NA
BWkSLKcb,32k26u12eq14p7ktnmss8y5zd9bdv8,3lotdfnyabcgp0wov4xg7knqyd3fwy,BWkSLKcb,2020-0188,2021-10-14,06:51:36,07:57:04,NA,incomplete,true,true,NA,0,27,NA,green,n_l_027.jpg,NA,NA,unpleasant,pleasant,NA,NA,NA,NA,NA,right,1440.10000002384,true,NA,NA,NA,NA,NA
BWkSLKcb,32k26u12eq14p7ktnmss8y5zd9bdv8,3lotdfnyabcgp0wov4xg7knqyd3fwy,BWkSLKcb,2020-0188,2021-10-14,06:51:36,07:57:04,NA,incomplete,true,true,NA,0,28,NA,green,m_s_094.jpg,NA,NA,pleasant,unpleasant,NA,NA,NA,NA,NA,left,2421.39999997616,true,NA,NA,NA,NA,NA
BWkSLKcb,32k26u12eq14p7ktnmss8y5zd9bdv8,3lotdfnyabcgp0wov4xg7knqyd3fwy,BWkSLKcb,2020-0188,2021-10-14,06:51:36,07:57:04,NA,incomplete,true,true,NA,0,29,NA,green,n_l_105.jpg,NA,NA,unpleasant,pleasant,NA,NA,NA,NA,NA,left,2272.90000003576,true,NA,NA,NA,NA,NA
BWkSLKcb,32k26u12eq14p7ktnmss8y5zd9bdv8,3lotdfnyabcgp0wov4xg7knqyd3fwy,BWkSLKcb,2020-0188,2021-10-14,06:51:36,07:57:04,NA,incomplete,true,true,NA,0,30,NA,yellow,n_s_092.jpg,NA,NA,pleasant,unpleasant,NA,NA,NA,NA,NA,left,2024.69999998808,true,NA,NA,NA,NA,NA
BWkSLKcb,32k26u12eq14p7ktnmss8y5zd9bdv8,3lotdfnyabcgp0wov4xg7knqyd3fwy,BWkSLKcb,2020-0188,2021-10-14,06:51:36,07:57:04,NA,incomplete,true,true,NA,0,31,NA,yellow,n_s_047.jpg,NA,NA,pleasant,unpleasant,NA,NA,NA,NA,NA,left,2070.39999997616,true,NA,NA,NA,NA,NA
BWkSLKcb,32k26u12eq14p7ktnmss8y5zd9bdv8,3lotdfnyabcgp0wov4xg7knqyd3fwy,BWkSLKcb,2020-0188,2021-10-14,06:51:36,07:57:04,NA,incomplete,true,true,NA,0,32,NA,yellow,m_s_070.jpg,NA,NA,pleasant,unpleasant,NA,NA,NA,NA,NA,left,1561.5,true,NA,NA,NA,NA,NA
BWkSLKcb,32k26u12eq14p7ktnmss8y5zd9bdv8,3lotdfnyabcgp0wov4xg7knqyd3fwy,BWkSLKcb,2020-0188,2021-10-14,06:51:36,07:57:04,NA,incomplete,true,true,NA,0,33,NA,yellow,m_s_053.jpg,NA,NA,unpleasant,pleasant,NA,NA,NA,NA,NA,right,3162.60000002384,true,NA,NA,NA,NA,NA
BWkSLKcb,32k26u12eq14p7ktnmss8y5zd9bdv8,3lotdfnyabcgp0wov4xg7knqyd3fwy,BWkSLKcb,2020-0188,2021-10-14,06:51:36,07:57:04,NA,incomplete,true,true,NA,0,34,NA,yellow,m_s_091.jpg,NA,NA,pleasant,unpleasant,NA,NA,NA,NA,NA,left,1970.60000002384,true,NA,NA,NA,NA,NA
BWkSLKcb,32k26u12eq14p7ktnmss8y5zd9bdv8,3lotdfnyabcgp0wov4xg7knqyd3fwy,BWkSLKcb,2020-0188,2021-10-14,06:51:36,07:57:04,NA,incomplete,true,true,NA,0,35,NA,yellow,n_s_012.jpg,NA,NA,unpleasant,pleasant,NA,NA,NA,NA,NA,right,1736.30000001192,true,NA,NA,NA,NA,NA
BWkSLKcb,32k26u12eq14p7ktnmss8y5zd9bdv8,3lotdfnyabcgp0wov4xg7knqyd3fwy,BWkSLKcb,2020-0188,2021-10-14,06:51:36,07:57:04,NA,incomplete,true,NA,true,0,0,NA,NA,NA,right,absent,NA,NA,n_s_012.jpg,yellow,n_s_047.jpg,yellow,within,NA,NaN,NA,left,6437.600000023842,0,1,10066.5
BWkSLKcb,32k26u12eq14p7ktnmss8y5zd9bdv8,3lotdfnyabcgp0wov4xg7knqyd3fwy,BWkSLKcb,2020-0188,2021-10-14,06:51:36,07:57:04,NA,incomplete,true,NA,true,0,1,NA,NA,NA,left,absent,NA,NA,n_s_005.jpg,purple,m_l_025.jpg,red,between,NA,NaN,NA,right,7789,0,2,5598.300000011921
BWkSLKcb,32k26u12eq14p7ktnmss8y5zd9bdv8,3lotdfnyabcgp0wov4xg7knqyd3fwy,BWkSLKcb,2020-0188,2021-10-14,06:51:36,07:57:04,NA,incomplete,true,NA,true,0,2,NA,NA,NA,left,absent,NA,NA,m_l_029.jpg,red,m_s_064.jpg,blue,between,NA,NaN,NA,left,6536.100000023842,1,2,4400.699999988079
BWkSLKcb,32k26u12eq14p7ktnmss8y5zd9bdv8,3lotdfnyabcgp0wov4xg7knqyd3fwy,BWkSLKcb,2020-0188,2021-10-14,06:51:36,07:57:04,NA,incomplete,true,NA,true,0,3,NA,NA,NA,left,absent,NA,NA,m_s_081.jpg,blue,n_l_007.jpg,blue,within,NA,NaN,NA,left,4917.099999964237,1,1,1890.5
BWkSLKcb,32k26u12eq14p7ktnmss8y5zd9bdv8,3lotdfnyabcgp0wov4xg7knqyd3fwy,BWkSLKcb,2020-0188,2021-10-14,06:51:36,07:57:04,NA,incomplete,true,NA,true,0,4,NA,NA,NA,left,present,NA,NA,m_l_091.jpg,green,n_l_105.jpg,green,within,NA,NaN,NA,right,5727.800000011921,0,2,2451.899999976158
BWkSLKcb,32k26u12eq14p7ktnmss8y5zd9bdv8,3lotdfnyabcgp0wov4xg7knqyd3fwy,BWkSLKcb,2020-0188,2021-10-14,06:51:36,07:57:04,NA,incomplete,true,NA,true,0,5,NA,NA,NA,right,absent,NA,NA,m_s_063.jpg,purple,n_s_113.jpg,purple,within,NA,NaN,NA,left,3519.699999988079,0,1,1734.9000000357628
BWkSLKcb,32k26u12eq14p7ktnmss8y5zd9bdv8,3lotdfnyabcgp0wov4xg7knqyd3fwy,BWkSLKcb,2020-0188,2021-10-14,06:51:36,07:57:04,NA,incomplete,true,NA,true,0,6,NA,NA,NA,left,absent,NA,NA,n_l_075.jpg,red,m_l_078.jpg,red,within,NA,NaN,NA,right,5500.300000011921,0,1,1323.6000000238419
BWkSLKcb,32k26u12eq14p7ktnmss8y5zd9bdv8,3lotdfnyabcgp0wov4xg7knqyd3fwy,BWkSLKcb,2020-0188,2021-10-14,06:51:36,07:57:04,NA,incomplete,true,NA,true,0,7,NA,NA,NA,right,absent,NA,NA,n_l_073.jpg,purple,n_s_079.jpg,orange,between,NA,NaN,NA,right,2670.300000011921,1,1,1987.1000000238419
BWkSLKcb,32k26u12eq14p7ktnmss8y5zd9bdv8,3lotdfnyabcgp0wov4xg7knqyd3fwy,BWkSLKcb,2020-0188,2021-10-14,06:51:36,07:57:04,NA,incomplete,true,NA,true,0,8,NA,NA,NA,left,absent,NA,NA,m_l_088.jpg,orange,n_l_064.jpg,orange,within,NA,NaN,NA,left,5270.400000035763,1,2,1510.199999988079
BWkSLKcb,32k26u12eq14p7ktnmss8y5zd9bdv8,3lotdfnyabcgp0wov4xg7knqyd3fwy,BWkSLKcb,2020-0188,2021-10-14,06:51:36,07:57:04,NA,incomplete,true,NA,true,0,9,NA,NA,NA,left,present,NA,NA,n_s_096.jpg,blue,n_s_098.jpg,green,between,NA,NaN,NA,left,2959.199999988079,1,2,2127.600000023842
BWkSLKcb,32k26u12eq14p7ktnmss8y5zd9bdv8,3lotdfnyabcgp0wov4xg7knqyd3fwy,BWkSLKcb,2020-0188,2021-10-14,06:51:36,07:57:04,NA,incomplete,true,NA,true,0,10,NA,NA,NA,right,present,NA,NA,m_s_070.jpg,yellow,m_s_094.jpg,green,between,NA,NaN,NA,right,4582.800000011921,1,1,3688.5
BWkSLKcb,32k26u12eq14p7ktnmss8y5zd9bdv8,3lotdfnyabcgp0wov4xg7knqyd3fwy,BWkSLKcb,2020-0188,2021-10-14,06:51:36,07:57:04,NA,incomplete,false,true,NA,1,0,NA,white,m_s_030.jpg,NA,NA,unpleasant,pleasant,NA,NA,NA,NA,NA,right,2010,true,NA,NA,NA,NA,NA
BWkSLKcb,32k26u12eq14p7ktnmss8y5zd9bdv8,3lotdfnyabcgp0wov4xg7knqyd3fwy,BWkSLKcb,2020-0188,2021-10-14,06:51:36,07:57:04,NA,incomplete,false,true,NA,1,1,NA,white,m_s_038.jpg,NA,NA,unpleasant,pleasant,NA,NA,NA,NA,NA,right,1540.40000003576,true,NA,NA,NA,NA,NA
BWkSLKcb,32k26u12eq14p7ktnmss8y5zd9bdv8,3lotdfnyabcgp0wov4xg7knqyd3fwy,BWkSLKcb,2020-0188,2021-10-14,06:51:36,07:57:04,NA,incomplete,false,true,NA,1,2,NA,white,m_l_081.jpg,NA,NA,pleasant,unpleasant,NA,NA,NA,NA,NA,left,1828.10000002384,true,NA,NA,NA,NA,NA
BWkSLKcb,32k26u12eq14p7ktnmss8y5zd9bdv8,3lotdfnyabcgp0wov4xg7knqyd3fwy,BWkSLKcb,2020-0188,2021-10-14,06:51:36,07:57:04,NA,incomplete,false,true,NA,1,3,NA,white,n_s_046.jpg,NA,NA,unpleasant,pleasant,NA,NA,NA,NA,NA,right,1890.19999998808,true,NA,NA,NA,NA,NA
BWkSLKcb,32k26u12eq14p7ktnmss8y5zd9bdv8,3lotdfnyabcgp0wov4xg7knqyd3fwy,BWkSLKcb,2020-0188,2021-10-14,06:51:36,07:57:04,NA,incomplete,false,true,NA,1,4,NA,white,m_l_001.jpg,NA,NA,unpleasant,pleasant,NA,NA,NA,NA,NA,right,2409.80000001192,true,NA,NA,NA,NA,NA
BWkSLKcb,32k26u12eq14p7ktnmss8y5zd9bdv8,3lotdfnyabcgp0wov4xg7knqyd3fwy,BWkSLKcb,2020-0188,2021-10-14,06:51:36,07:57:04,NA,incomplete,false,true,NA,1,5,NA,white,m_s_086.jpg,NA,NA,pleasant,unpleasant,NA,NA,NA,NA,NA,left,2077.60000002384,true,NA,NA,NA,NA,NA
BWkSLKcb,32k26u12eq14p7ktnmss8y5zd9bdv8,3lotdfnyabcgp0wov4xg7knqyd3fwy,BWkSLKcb,2020-0188,2021-10-14,06:51:36,07:57:04,NA,incomplete,false,true,NA,1,6,NA,yellow,n_l_002.jpg,NA,NA,pleasant,unpleasant,NA,NA,NA,NA,NA,right,2310.69999998808,true,NA,NA,NA,NA,NA
BWkSLKcb,32k26u12eq14p7ktnmss8y5zd9bdv8,3lotdfnyabcgp0wov4xg7knqyd3fwy,BWkSLKcb,2020-0188,2021-10-14,06:51:36,07:57:04,NA,incomplete,false,true,NA,1,7,NA,yellow,m_l_006.jpg,NA,NA,unpleasant,pleasant,NA,NA,NA,NA,NA,left,1769.20000004768,true,NA,NA,NA,NA,NA
BWkSLKcb,32k26u12eq14p7ktnmss8y5zd9bdv8,3lotdfnyabcgp0wov4xg7knqyd3fwy,BWkSLKcb,2020-0188,2021-10-14,06:51:36,07:57:04,NA,incomplete,false,true,NA,1,8,NA,yellow,n_s_033.jpg,NA,NA,unpleasant,pleasant,NA,NA,NA,NA,NA,right,1985.69999998808,true,NA,NA,NA,NA,NA
BWkSLKcb,32k26u12eq14p7ktnmss8y5zd9bdv8,3lotdfnyabcgp0wov4xg7knqyd3fwy,BWkSLKcb,2020-0188,2021-10-14,06:51:36,07:57:04,NA,incomplete,false,true,NA,1,9,NA,yellow,m_l_077.jpg,NA,NA,pleasant,unpleasant,NA,NA,NA,NA,NA,right,1960.69999998808,true,NA,NA,NA,NA,NA
BWkSLKcb,32k26u12eq14p7ktnmss8y5zd9bdv8,3lotdfnyabcgp0wov4xg7knqyd3fwy,BWkSLKcb,2020-0188,2021-10-14,06:51:36,07:57:04,NA,incomplete,false,true,NA,1,10,NA,yellow,m_s_084.jpg,NA,NA,unpleasant,pleasant,NA,NA,NA,NA,NA,right,1837.09999996424,true,NA,NA,NA,NA,NA
BWkSLKcb,32k26u12eq14p7ktnmss8y5zd9bdv8,3lotdfnyabcgp0wov4xg7knqyd3fwy,BWkSLKcb,2020-0188,2021-10-14,06:51:36,07:57:04,NA,incomplete,false,true,NA,1,11,NA,yellow,m_l_112.jpg,NA,NA,unpleasant,pleasant,NA,NA,NA,NA,NA,left,1586.19999998808,true,NA,NA,NA,NA,NA
BWkSLKcb,32k26u12eq14p7ktnmss8y5zd9bdv8,3lotdfnyabcgp0wov4xg7knqyd3fwy,BWkSLKcb,2020-0188,2021-10-14,06:51:36,07:57:04,NA,incomplete,false,true,NA,1,12,NA,green,n_s_038.jpg,NA,NA,pleasant,unpleasant,NA,NA,NA,NA,NA,left,2092,true,NA,NA,NA,NA,NA
BWkSLKcb,32k26u12eq14p7ktnmss8y5zd9bdv8,3lotdfnyabcgp0wov4xg7knqyd3fwy,BWkSLKcb,2020-0188,2021-10-14,06:51:36,07:57:04,NA,incomplete,false,true,NA,1,13,NA,green,m_s_106.jpg,NA,NA,unpleasant,pleasant,NA,NA,NA,NA,NA,right,3419.69999998808,true,NA,NA,NA,NA,NA
BWkSLKcb,32k26u12eq14p7ktnmss8y5zd9bdv8,3lotdfnyabcgp0wov4xg7knqyd3fwy,BWkSLKcb,2020-0188,2021-10-14,06:51:36,07:57:04,NA,incomplete,false,true,NA,1,14,NA,green,n_s_088.jpg,NA,NA,unpleasant,pleasant,NA,NA,NA,NA,NA,right,2187.30000001192,true,NA,NA,NA,NA,NA
BWkSLKcb,32k26u12eq14p7ktnmss8y5zd9bdv8,3lotdfnyabcgp0wov4xg7knqyd3fwy,BWkSLKcb,2020-0188,2021-10-14,06:51:36,07:57:04,NA,incomplete,false,true,NA,1,15,NA,green,n_s_115.jpg,NA,NA,pleasant,unpleasant,NA,NA,NA,NA,NA,left,2502.69999998808,true,NA,NA,NA,NA,NA
BWkSLKcb,32k26u12eq14p7ktnmss8y5zd9bdv8,3lotdfnyabcgp0wov4xg7knqyd3fwy,BWkSLKcb,2020-0188,2021-10-14,06:51:36,07:57:04,NA,incomplete,false,true,NA,1,16,NA,green,m_l_107.jpg,NA,NA,unpleasant,pleasant,NA,NA,NA,NA,NA,left,1946.80000001192,true,NA,NA,NA,NA,NA
BWkSLKcb,32k26u12eq14p7ktnmss8y5zd9bdv8,3lotdfnyabcgp0wov4xg7knqyd3fwy,BWkSLKcb,2020-0188,2021-10-14,06:51:36,07:57:04,NA,incomplete,false,true,NA,1,17,NA,green,m_s_100.jpg,NA,NA,pleasant,unpleasant,NA,NA,NA,NA,NA,right,2869.40000003576,true,NA,NA,NA,NA,NA
BWkSLKcb,32k26u12eq14p7ktnmss8y5zd9bdv8,3lotdfnyabcgp0wov4xg7knqyd3fwy,BWkSLKcb,2020-0188,2021-10-14,06:51:36,07:57:04,NA,incomplete,false,true,NA,1,18,NA,orange,n_l_068.jpg,NA,NA,pleasant,unpleasant,NA,NA,NA,NA,NA,right,1876.09999996424,true,NA,NA,NA,NA,NA
BWkSLKcb,32k26u12eq14p7ktnmss8y5zd9bdv8,3lotdfnyabcgp0wov4xg7knqyd3fwy,BWkSLKcb,2020-0188,2021-10-14,06:51:36,07:57:04,NA,incomplete,false,true,NA,1,19,NA,orange,m_l_053.jpg,NA,NA,unpleasant,pleasant,NA,NA,NA,NA,NA,left,1949.60000002384,true,NA,NA,NA,NA,NA
BWkSLKcb,32k26u12eq14p7ktnmss8y5zd9bdv8,3lotdfnyabcgp0wov4xg7knqyd3fwy,BWkSLKcb,2020-0188,2021-10-14,06:51:36,07:57:04,NA,incomplete,false,true,NA,1,20,NA,orange,n_l_046.jpg,NA,NA,unpleasant,pleasant,NA,NA,NA,NA,NA,left,2077.39999997616,true,NA,NA,NA,NA,NA
BWkSLKcb,32k26u12eq14p7ktnmss8y5zd9bdv8,3lotdfnyabcgp0wov4xg7knqyd3fwy,BWkSLKcb,2020-0188,2021-10-14,06:51:36,07:57:04,NA,incomplete,false,true,NA,1,21,NA,orange,m_l_104.jpg,NA,NA,unpleasant,pleasant,NA,NA,NA,NA,NA,left,2574.30000001192,true,NA,NA,NA,NA,NA
BWkSLKcb,32k26u12eq14p7ktnmss8y5zd9bdv8,3lotdfnyabcgp0wov4xg7knqyd3fwy,BWkSLKcb,2020-0188,2021-10-14,06:51:36,07:57:04,NA,incomplete,false,true,NA,1,22,NA,orange,m_l_030.jpg,NA,NA,pleasant,unpleasant,NA,NA,NA,NA,NA,right,2105.60000002384,true,NA,NA,NA,NA,NA
BWkSLKcb,32k26u12eq14p7ktnmss8y5zd9bdv8,3lotdfnyabcgp0wov4xg7knqyd3fwy,BWkSLKcb,2020-0188,2021-10-14,06:51:36,07:57:04,NA,incomplete,false,true,NA,1,23,NA,orange,m_s_049.jpg,NA,NA,unpleasant,pleasant,NA,NA,NA,NA,NA,right,1423.5,true,NA,NA,NA,NA,NA
BWkSLKcb,32k26u12eq14p7ktnmss8y5zd9bdv8,3lotdfnyabcgp0wov4xg7knqyd3fwy,BWkSLKcb,2020-0188,2021-10-14,06:51:36,07:57:04,NA,incomplete,false,true,NA,1,24,NA,blue,m_s_056.jpg,NA,NA,unpleasant,pleasant,NA,NA,NA,NA,NA,right,2572.69999998808,true,NA,NA,NA,NA,NA
BWkSLKcb,32k26u12eq14p7ktnmss8y5zd9bdv8,3lotdfnyabcgp0wov4xg7knqyd3fwy,BWkSLKcb,2020-0188,2021-10-14,06:51:36,07:57:04,NA,incomplete,false,true,NA,1,25,NA,blue,n_l_010.jpg,NA,NA,pleasant,unpleasant,NA,NA,NA,NA,NA,left,2567.19999998808,true,NA,NA,NA,NA,NA
BWkSLKcb,32k26u12eq14p7ktnmss8y5zd9bdv8,3lotdfnyabcgp0wov4xg7knqyd3fwy,BWkSLKcb,2020-0188,2021-10-14,06:51:36,07:57:04,NA,incomplete,false,true,NA,1,26,NA,blue,m_s_045.jpg,NA,NA,pleasant,unpleasant,NA,NA,NA,NA,NA,left,3013.40000003576,true,NA,NA,NA,NA,NA
BWkSLKcb,32k26u12eq14p7ktnmss8y5zd9bdv8,3lotdfnyabcgp0wov4xg7knqyd3fwy,BWkSLKcb,2020-0188,2021-10-14,06:51:36,07:57:04,NA,incomplete,false,true,NA,1,27,NA,blue,m_l_015.jpg,NA,NA,unpleasant,pleasant,NA,NA,NA,NA,NA,left,1414,true,NA,NA,NA,NA,NA
BWkSLKcb,32k26u12eq14p7ktnmss8y5zd9bdv8,3lotdfnyabcgp0wov4xg7knqyd3fwy,BWkSLKcb,2020-0188,2021-10-14,06:51:36,07:57:04,NA,incomplete,false,true,NA,1,28,NA,blue,m_l_099.jpg,NA,NA,pleasant,unpleasant,NA,NA,NA,NA,NA,right,2406.70000004768,true,NA,NA,NA,NA,NA
BWkSLKcb,32k26u12eq14p7ktnmss8y5zd9bdv8,3lotdfnyabcgp0wov4xg7knqyd3fwy,BWkSLKcb,2020-0188,2021-10-14,06:51:36,07:57:04,NA,incomplete,false,true,NA,1,29,NA,blue,n_l_003.jpg,NA,NA,unpleasant,pleasant,NA,NA,NA,NA,NA,right,1598.10000002384,true,NA,NA,NA,NA,NA
BWkSLKcb,32k26u12eq14p7ktnmss8y5zd9bdv8,3lotdfnyabcgp0wov4xg7knqyd3fwy,BWkSLKcb,2020-0188,2021-10-14,06:51:36,07:57:04,NA,incomplete,false,true,NA,1,30,NA,brown,m_l_057.jpg,NA,NA,unpleasant,pleasant,NA,NA,NA,NA,NA,left,2482.79999995232,true,NA,NA,NA,NA,NA
BWkSLKcb,32k26u12eq14p7ktnmss8y5zd9bdv8,3lotdfnyabcgp0wov4xg7knqyd3fwy,BWkSLKcb,2020-0188,2021-10-14,06:51:36,07:57:04,NA,incomplete,false,true,NA,1,31,NA,brown,n_s_004.jpg,NA,NA,unpleasant,pleasant,NA,NA,NA,NA,NA,right,1463.5,true,NA,NA,NA,NA,NA
BWkSLKcb,32k26u12eq14p7ktnmss8y5zd9bdv8,3lotdfnyabcgp0wov4xg7knqyd3fwy,BWkSLKcb,2020-0188,2021-10-14,06:51:36,07:57:04,NA,incomplete,false,true,NA,1,32,NA,brown,n_s_043.jpg,NA,NA,unpleasant,pleasant,NA,NA,NA,NA,NA,left,1549.30000001192,true,NA,NA,NA,NA,NA
BWkSLKcb,32k26u12eq14p7ktnmss8y5zd9bdv8,3lotdfnyabcgp0wov4xg7knqyd3fwy,BWkSLKcb,2020-0188,2021-10-14,06:51:36,07:57:04,NA,incomplete,false,true,NA,1,33,NA,brown,n_s_100.jpg,NA,NA,unpleasant,pleasant,NA,NA,NA,NA,NA,right,1444.30000001192,true,NA,NA,NA,NA,NA
BWkSLKcb,32k26u12eq14p7ktnmss8y5zd9bdv8,3lotdfnyabcgp0wov4xg7knqyd3fwy,BWkSLKcb,2020-0188,2021-10-14,06:51:36,07:57:04,NA,incomplete,false,true,NA,1,34,NA,brown,n_s_024.jpg,NA,NA,unpleasant,pleasant,NA,NA,NA,NA,NA,right,2014.80000001192,true,NA,NA,NA,NA,NA
BWkSLKcb,32k26u12eq14p7ktnmss8y5zd9bdv8,3lotdfnyabcgp0wov4xg7knqyd3fwy,BWkSLKcb,2020-0188,2021-10-14,06:51:36,07:57:04,NA,incomplete,false,true,NA,1,35,NA,brown,n_s_023.jpg,NA,NA,pleasant,unpleasant,NA,NA,NA,NA,NA,right,2219.39999997616,true,NA,NA,NA,NA,NA
BWkSLKcb,32k26u12eq14p7ktnmss8y5zd9bdv8,3lotdfnyabcgp0wov4xg7knqyd3fwy,BWkSLKcb,2020-0188,2021-10-14,06:51:36,07:57:04,NA,incomplete,false,NA,true,1,0,NA,NA,NA,right,absent,NA,NA,m_s_049.jpg,orange,m_l_053.jpg,orange,within,NA,NaN,NA,left,6879.5,0,2,5543
BWkSLKcb,32k26u12eq14p7ktnmss8y5zd9bdv8,3lotdfnyabcgp0wov4xg7knqyd3fwy,BWkSLKcb,2020-0188,2021-10-14,06:51:36,07:57:04,NA,incomplete,false,NA,true,1,1,NA,NA,NA,right,absent,NA,NA,m_s_086.jpg,white,m_s_038.jpg,white,within,NA,NaN,NA,right,4037.800000011921,1,1,1537.0999999642372
BWkSLKcb,32k26u12eq14p7ktnmss8y5zd9bdv8,3lotdfnyabcgp0wov4xg7knqyd3fwy,BWkSLKcb,2020-0188,2021-10-14,06:51:36,07:57:04,NA,incomplete,false,NA,true,1,2,NA,NA,NA,right,absent,NA,NA,n_s_033.jpg,yellow,m_l_001.jpg,white,between,NA,NaN,NA,right,3632.599999964237,1,1,1661.699999988079
BWkSLKcb,32k26u12eq14p7ktnmss8y5zd9bdv8,3lotdfnyabcgp0wov4xg7knqyd3fwy,BWkSLKcb,2020-0188,2021-10-14,06:51:36,07:57:04,NA,incomplete,false,NA,true,1,3,NA,NA,NA,right,absent,NA,NA,n_l_003.jpg,blue,n_l_010.jpg,blue,within,NA,NaN,NA,right,2399.300000011921,1,2,3012.2000000476837
BWkSLKcb,32k26u12eq14p7ktnmss8y5zd9bdv8,3lotdfnyabcgp0wov4xg7knqyd3fwy,BWkSLKcb,2020-0188,2021-10-14,06:51:36,07:57:04,NA,incomplete,false,NA,true,1,4,NA,NA,NA,left,absent,NA,NA,m_l_099.jpg,blue,n_s_043.jpg,brown,between,NA,NaN,NA,right,2478.2999999523163,0,2,2361.5
BWkSLKcb,32k26u12eq14p7ktnmss8y5zd9bdv8,3lotdfnyabcgp0wov4xg7knqyd3fwy,BWkSLKcb,2020-0188,2021-10-14,06:51:36,07:57:04,NA,incomplete,false,NA,true,1,5,NA,NA,NA,left,absent,NA,NA,n_s_004.jpg,brown,n_s_023.jpg,brown,within,NA,NaN,NA,left,2427.099999964237,1,2,1793.699999988079
BWkSLKcb,32k26u12eq14p7ktnmss8y5zd9bdv8,3lotdfnyabcgp0wov4xg7knqyd3fwy,BWkSLKcb,2020-0188,2021-10-14,06:51:36,07:57:04,NA,incomplete,false,NA,true,1,6,NA,NA,NA,right,absent,NA,NA,m_s_045.jpg,blue,m_l_030.jpg,orange,between,NA,NaN,NA,left,2427.300000011921,0,2,2187.100000023842
BWkSLKcb,32k26u12eq14p7ktnmss8y5zd9bdv8,3lotdfnyabcgp0wov4xg7knqyd3fwy,BWkSLKcb,2020-0188,2021-10-14,06:51:36,07:57:04,NA,incomplete,false,NA,true,1,7,NA,NA,NA,left,absent,NA,NA,m_l_107.jpg,green,n_l_046.jpg,orange,between,NA,NaN,NA,right,2207.099999964237,0,1,2490.7000000476837
BWkSLKcb,32k26u12eq14p7ktnmss8y5zd9bdv8,3lotdfnyabcgp0wov4xg7knqyd3fwy,BWkSLKcb,2020-0188,2021-10-14,06:51:36,07:57:04,NA,incomplete,false,NA,true,1,8,NA,NA,NA,right,absent,NA,NA,m_l_112.jpg,yellow,m_l_006.jpg,yellow,within,NA,NaN,NA,left,4581.5,0,2,3818.599999964237
BWkSLKcb,32k26u12eq14p7ktnmss8y5zd9bdv8,3lotdfnyabcgp0wov4xg7knqyd3fwy,BWkSLKcb,2020-0188,2021-10-14,06:51:36,07:57:04,NA,incomplete,false,NA,true,1,9,NA,NA,NA,left,absent,NA,NA,m_s_106.jpg,green,m_s_100.jpg,green,within,NA,NaN,NA,left,3882.399999976158,1,1,1357.6000000238419
BWkSLKcb,32k26u12eq14p7ktnmss8y5zd9bdv8,3lotdfnyabcgp0wov4xg7knqyd3fwy,BWkSLKcb,2020-0188,2021-10-14,06:51:36,07:57:04,NA,incomplete,false,NA,true,1,10,NA,NA,NA,left,absent,NA,NA,m_s_084.jpg,yellow,n_s_088.jpg,green,between,NA,NaN,NA,right,2408.900000035763,0,2,1724.5
BWkSLKcb,32k26u12eq14p7ktnmss8y5zd9bdv8,3lotdfnyabcgp0wov4xg7knqyd3fwy,BWkSLKcb,2020-0188,2021-10-14,06:51:36,07:57:04,NA,incomplete,false,true,NA,2,0,NA,red,n_s_114.jpg,NA,NA,pleasant,unpleasant,NA,NA,NA,NA,NA,right,2969.69999998808,true,NA,NA,NA,NA,NA
BWkSLKcb,32k26u12eq14p7ktnmss8y5zd9bdv8,3lotdfnyabcgp0wov4xg7knqyd3fwy,BWkSLKcb,2020-0188,2021-10-14,06:51:36,07:57:04,NA,incomplete,false,true,NA,2,1,NA,red,n_s_057.jpg,NA,NA,pleasant,unpleasant,NA,NA,NA,NA,NA,right,1785.10000002384,true,NA,NA,NA,NA,NA
BWkSLKcb,32k26u12eq14p7ktnmss8y5zd9bdv8,3lotdfnyabcgp0wov4xg7knqyd3fwy,BWkSLKcb,2020-0188,2021-10-14,06:51:36,07:57:04,NA,incomplete,false,true,NA,2,2,NA,red,n_s_071.jpg,NA,NA,pleasant,unpleasant,NA,NA,NA,NA,NA,right,2462.19999998808,true,NA,NA,NA,NA,NA
BWkSLKcb,32k26u12eq14p7ktnmss8y5zd9bdv8,3lotdfnyabcgp0wov4xg7knqyd3fwy,BWkSLKcb,2020-0188,2021-10-14,06:51:36,07:57:04,NA,incomplete,false,true,NA,2,3,NA,red,n_l_033.jpg,NA,NA,pleasant,unpleasant,NA,NA,NA,NA,NA,right,1506.60000002384,true,NA,NA,NA,NA,NA
BWkSLKcb,32k26u12eq14p7ktnmss8y5zd9bdv8,3lotdfnyabcgp0wov4xg7knqyd3fwy,BWkSLKcb,2020-0188,2021-10-14,06:51:36,07:57:04,NA,incomplete,false,true,NA,2,4,NA,red,m_s_067.jpg,NA,NA,pleasant,unpleasant,NA,NA,NA,NA,NA,left,1963.30000001192,true,NA,NA,NA,NA,NA
BWkSLKcb,32k26u12eq14p7ktnmss8y5zd9bdv8,3lotdfnyabcgp0wov4xg7knqyd3fwy,BWkSLKcb,2020-0188,2021-10-14,06:51:36,07:57:04,NA,incomplete,false,true,NA,2,5,NA,red,m_s_039.jpg,NA,NA,pleasant,unpleasant,NA,NA,NA,NA,NA,right,1901.89999997616,true,NA,NA,NA,NA,NA
BWkSLKcb,32k26u12eq14p7ktnmss8y5zd9bdv8,3lotdfnyabcgp0wov4xg7knqyd3fwy,BWkSLKcb,2020-0188,2021-10-14,06:51:36,07:57:04,NA,incomplete,false,true,NA,2,6,NA,brown,n_s_108.jpg,NA,NA,pleasant,unpleasant,NA,NA,NA,NA,NA,left,1905.10000002384,true,NA,NA,NA,NA,NA
BWkSLKcb,32k26u12eq14p7ktnmss8y5zd9bdv8,3lotdfnyabcgp0wov4xg7knqyd3fwy,BWkSLKcb,2020-0188,2021-10-14,06:51:36,07:57:04,NA,incomplete,false,true,NA,2,7,NA,brown,n_s_064.jpg,NA,NA,pleasant,unpleasant,NA,NA,NA,NA,NA,left,1389.69999998808,true,NA,NA,NA,NA,NA
BWkSLKcb,32k26u12eq14p7ktnmss8y5zd9bdv8,3lotdfnyabcgp0wov4xg7knqyd3fwy,BWkSLKcb,2020-0188,2021-10-14,06:51:36,07:57:04,NA,incomplete,false,true,NA,2,8,NA,brown,m_s_029.jpg,NA,NA,unpleasant,pleasant,NA,NA,NA,NA,NA,left,1426.39999997616,true,NA,NA,NA,NA,NA
BWkSLKcb,32k26u12eq14p7ktnmss8y5zd9bdv8,3lotdfnyabcgp0wov4xg7knqyd3fwy,BWkSLKcb,2020-0188,2021-10-14,06:51:36,07:57:04,NA,incomplete,false,true,NA,2,9,NA,brown,m_l_042.jpg,NA,NA,unpleasant,pleasant,NA,NA,NA,NA,NA,right,1497.30000001192,true,NA,NA,NA,NA,NA
BWkSLKcb,32k26u12eq14p7ktnmss8y5zd9bdv8,3lotdfnyabcgp0wov4xg7knqyd3fwy,BWkSLKcb,2020-0188,2021-10-14,06:51:36,07:57:04,NA,incomplete,false,true,NA,2,10,NA,brown,m_s_092.jpg,NA,NA,pleasant,unpleasant,NA,NA,NA,NA,NA,right,1292.59999996424,true,NA,NA,NA,NA,NA
BWkSLKcb,32k26u12eq14p7ktnmss8y5zd9bdv8,3lotdfnyabcgp0wov4xg7knqyd3fwy,BWkSLKcb,2020-0188,2021-10-14,06:51:36,07:57:04,NA,incomplete,false,true,NA,2,11,NA,brown,n_l_062.jpg,NA,NA,pleasant,unpleasant,NA,NA,NA,NA,NA,left,1578.5,true,NA,NA,NA,NA,NA
BWkSLKcb,32k26u12eq14p7ktnmss8y5zd9bdv8,3lotdfnyabcgp0wov4xg7knqyd3fwy,BWkSLKcb,2020-0188,2021-10-14,06:51:36,07:57:04,NA,incomplete,false,true,NA,2,12,NA,blue,m_l_033.jpg,NA,NA,unpleasant,pleasant,NA,NA,NA,NA,NA,right,1517.79999995232,true,NA,NA,NA,NA,NA
BWkSLKcb,32k26u12eq14p7ktnmss8y5zd9bdv8,3lotdfnyabcgp0wov4xg7knqyd3fwy,BWkSLKcb,2020-0188,2021-10-14,06:51:36,07:57:04,NA,incomplete,false,true,NA,2,13,NA,blue,m_l_027.jpg,NA,NA,unpleasant,pleasant,NA,NA,NA,NA,NA,right,1597.5,true,NA,NA,NA,NA,NA
BWkSLKcb,32k26u12eq14p7ktnmss8y5zd9bdv8,3lotdfnyabcgp0wov4xg7knqyd3fwy,BWkSLKcb,2020-0188,2021-10-14,06:51:36,07:57:04,NA,incomplete,false,true,NA,2,14,NA,blue,n_s_117.jpg,NA,NA,unpleasant,pleasant,NA,NA,NA,NA,NA,right,1663.30000001192,true,NA,NA,NA,NA,NA
BWkSLKcb,32k26u12eq14p7ktnmss8y5zd9bdv8,3lotdfnyabcgp0wov4xg7knqyd3fwy,BWkSLKcb,2020-0188,2021-10-14,06:51:36,07:57:04,NA,incomplete,false,true,NA,2,15,NA,blue,n_l_060.jpg,NA,NA,unpleasant,pleasant,NA,NA,NA,NA,NA,right,1405.60000002384,true,NA,NA,NA,NA,NA
BWkSLKcb,32k26u12eq14p7ktnmss8y5zd9bdv8,3lotdfnyabcgp0wov4xg7knqyd3fwy,BWkSLKcb,2020-0188,2021-10-14,06:51:36,07:57:04,NA,incomplete,false,true,NA,2,16,NA,blue,m_s_073.jpg,NA,NA,unpleasant,pleasant,NA,NA,NA,NA,NA,right,1394.39999997616,true,NA,NA,NA,NA,NA
BWkSLKcb,32k26u12eq14p7ktnmss8y5zd9bdv8,3lotdfnyabcgp0wov4xg7knqyd3fwy,BWkSLKcb,2020-0188,2021-10-14,06:51:36,07:57:04,NA,incomplete,false,true,NA,2,17,NA,blue,n_l_107.jpg,NA,NA,unpleasant,pleasant,NA,NA,NA,NA,NA,right,1686.5,true,NA,NA,NA,NA,NA
BWkSLKcb,32k26u12eq14p7ktnmss8y5zd9bdv8,3lotdfnyabcgp0wov4xg7knqyd3fwy,BWkSLKcb,2020-0188,2021-10-14,06:51:36,07:57:04,NA,incomplete,false,true,NA,2,18,NA,black,m_s_087.jpg,NA,NA,pleasant,unpleasant,NA,NA,NA,NA,NA,left,2035,true,NA,NA,NA,NA,NA
BWkSLKcb,32k26u12eq14p7ktnmss8y5zd9bdv8,3lotdfnyabcgp0wov4xg7knqyd3fwy,BWkSLKcb,2020-0188,2021-10-14,06:51:36,07:57:04,NA,incomplete,false,true,NA,2,19,NA,black,n_l_095.jpg,NA,NA,unpleasant,pleasant,NA,NA,NA,NA,NA,right,1687.60000002384,true,NA,NA,NA,NA,NA
BWkSLKcb,32k26u12eq14p7ktnmss8y5zd9bdv8,3lotdfnyabcgp0wov4xg7knqyd3fwy,BWkSLKcb,2020-0188,2021-10-14,06:51:36,07:57:04,NA,incomplete,false,true,NA,2,20,NA,black,m_s_117.jpg,NA,NA,unpleasant,pleasant,NA,NA,NA,NA,NA,right,1148.19999998808,true,NA,NA,NA,NA,NA
BWkSLKcb,32k26u12eq14p7ktnmss8y5zd9bdv8,3lotdfnyabcgp0wov4xg7knqyd3fwy,BWkSLKcb,2020-0188,2021-10-14,06:51:36,07:57:04,NA,incomplete,false,true,NA,2,21,NA,black,n_s_006.jpg,NA,NA,unpleasant,pleasant,NA,NA,NA,NA,NA,right,1533,true,NA,NA,NA,NA,NA
BWkSLKcb,32k26u12eq14p7ktnmss8y5zd9bdv8,3lotdfnyabcgp0wov4xg7knqyd3fwy,BWkSLKcb,2020-0188,2021-10-14,06:51:36,07:57:04,NA,incomplete,false,true,NA,2,22,NA,black,m_s_076.jpg,NA,NA,pleasant,unpleasant,NA,NA,NA,NA,NA,left,1358.19999998808,true,NA,NA,NA,NA,NA
BWkSLKcb,32k26u12eq14p7ktnmss8y5zd9bdv8,3lotdfnyabcgp0wov4xg7knqyd3fwy,BWkSLKcb,2020-0188,2021-10-14,06:51:36,07:57:04,NA,incomplete,false,true,NA,2,23,NA,black,n_s_094.jpg,NA,NA,unpleasant,pleasant,NA,NA,NA,NA,NA,right,1864.69999998808,true,NA,NA,NA,NA,NA
BWkSLKcb,32k26u12eq14p7ktnmss8y5zd9bdv8,3lotdfnyabcgp0wov4xg7knqyd3fwy,BWkSLKcb,2020-0188,2021-10-14,06:51:36,07:57:04,NA,incomplete,false,true,NA,2,24,NA,orange,m_l_114.jpg,NA,NA,unpleasant,pleasant,NA,NA,NA,NA,NA,right,1397.10000002384,true,NA,NA,NA,NA,NA
BWkSLKcb,32k26u12eq14p7ktnmss8y5zd9bdv8,3lotdfnyabcgp0wov4xg7knqyd3fwy,BWkSLKcb,2020-0188,2021-10-14,06:51:36,07:57:04,NA,incomplete,false,true,NA,2,25,NA,orange,n_l_069.jpg,NA,NA,pleasant,unpleasant,NA,NA,NA,NA,NA,left,2522.60000002384,true,NA,NA,NA,NA,NA
BWkSLKcb,32k26u12eq14p7ktnmss8y5zd9bdv8,3lotdfnyabcgp0wov4xg7knqyd3fwy,BWkSLKcb,2020-0188,2021-10-14,06:51:36,07:57:04,NA,incomplete,false,true,NA,2,26,NA,orange,m_l_109.jpg,NA,NA,pleasant,unpleasant,NA,NA,NA,NA,NA,left,1432.5,true,NA,NA,NA,NA,NA
BWkSLKcb,32k26u12eq14p7ktnmss8y5zd9bdv8,3lotdfnyabcgp0wov4xg7knqyd3fwy,BWkSLKcb,2020-0188,2021-10-14,06:51:36,07:57:04,NA,incomplete,false,true,NA,2,27,NA,orange,n_s_116.jpg,NA,NA,unpleasant,pleasant,NA,NA,NA,NA,NA,left,1534.10000002384,true,NA,NA,NA,NA,NA
BWkSLKcb,32k26u12eq14p7ktnmss8y5zd9bdv8,3lotdfnyabcgp0wov4xg7knqyd3fwy,BWkSLKcb,2020-0188,2021-10-14,06:51:36,07:57:04,NA,incomplete,false,true,NA,2,28,NA,orange,m_s_102.jpg,NA,NA,pleasant,unpleasant,NA,NA,NA,NA,NA,right,1555.19999998808,true,NA,NA,NA,NA,NA
BWkSLKcb,32k26u12eq14p7ktnmss8y5zd9bdv8,3lotdfnyabcgp0wov4xg7knqyd3fwy,BWkSLKcb,2020-0188,2021-10-14,06:51:36,07:57:04,NA,incomplete,false,true,NA,2,29,NA,orange,m_l_095.jpg,NA,NA,pleasant,unpleasant,NA,NA,NA,NA,NA,right,1658.10000002384,true,NA,NA,NA,NA,NA
BWkSLKcb,32k26u12eq14p7ktnmss8y5zd9bdv8,3lotdfnyabcgp0wov4xg7knqyd3fwy,BWkSLKcb,2020-0188,2021-10-14,06:51:36,07:57:04,NA,incomplete,false,true,NA,2,30,NA,gray,n_l_016.jpg,NA,NA,unpleasant,pleasant,NA,NA,NA,NA,NA,right,1462.30000001192,true,NA,NA,NA,NA,NA
BWkSLKcb,32k26u12eq14p7ktnmss8y5zd9bdv8,3lotdfnyabcgp0wov4xg7knqyd3fwy,BWkSLKcb,2020-0188,2021-10-14,06:51:36,07:57:04,NA,incomplete,false,true,NA,2,31,NA,gray,n_l_017.jpg,NA,NA,unpleasant,pleasant,NA,NA,NA,NA,NA,right,1355.10000002384,true,NA,NA,NA,NA,NA
BWkSLKcb,32k26u12eq14p7ktnmss8y5zd9bdv8,3lotdfnyabcgp0wov4xg7knqyd3fwy,BWkSLKcb,2020-0188,2021-10-14,06:51:36,07:57:04,NA,incomplete,false,true,NA,2,32,NA,gray,n_s_001.jpg,NA,NA,unpleasant,pleasant,NA,NA,NA,NA,NA,right,1287.59999996424,true,NA,NA,NA,NA,NA
BWkSLKcb,32k26u12eq14p7ktnmss8y5zd9bdv8,3lotdfnyabcgp0wov4xg7knqyd3fwy,BWkSLKcb,2020-0188,2021-10-14,06:51:36,07:57:04,NA,incomplete,false,true,NA,2,33,NA,gray,m_l_003.jpg,NA,NA,unpleasant,pleasant,NA,NA,NA,NA,NA,right,1156,true,NA,NA,NA,NA,NA
BWkSLKcb,32k26u12eq14p7ktnmss8y5zd9bdv8,3lotdfnyabcgp0wov4xg7knqyd3fwy,BWkSLKcb,2020-0188,2021-10-14,06:51:36,07:57:04,NA,incomplete,false,true,NA,2,34,NA,gray,n_l_061.jpg,NA,NA,unpleasant,pleasant,NA,NA,NA,NA,NA,right,1356.19999998808,true,NA,NA,NA,NA,NA
BWkSLKcb,32k26u12eq14p7ktnmss8y5zd9bdv8,3lotdfnyabcgp0wov4xg7knqyd3fwy,BWkSLKcb,2020-0188,2021-10-14,06:51:36,07:57:04,NA,incomplete,false,true,NA,2,35,NA,gray,n_s_009.jpg,NA,NA,unpleasant,pleasant,NA,NA,NA,NA,NA,right,1166.89999997616,true,NA,NA,NA,NA,NA
BWkSLKcb,32k26u12eq14p7ktnmss8y5zd9bdv8,3lotdfnyabcgp0wov4xg7knqyd3fwy,BWkSLKcb,2020-0188,2021-10-14,06:51:36,07:57:04,NA,incomplete,false,NA,true,2,0,NA,NA,NA,left,present,NA,NA,n_l_095.jpg,black,n_s_094.jpg,black,within,NA,NaN,NA,right,2827.100000023842,0,2,2195.2000000476837
BWkSLKcb,32k26u12eq14p7ktnmss8y5zd9bdv8,3lotdfnyabcgp0wov4xg7knqyd3fwy,BWkSLKcb,2020-0188,2021-10-14,06:51:36,07:57:04,NA,incomplete,false,NA,true,2,1,NA,NA,NA,right,present,NA,NA,n_s_009.jpg,gray,n_l_017.jpg,gray,within,NA,NaN,NA,left,4605,0,1,2019.800000011921
BWkSLKcb,32k26u12eq14p7ktnmss8y5zd9bdv8,3lotdfnyabcgp0wov4xg7knqyd3fwy,BWkSLKcb,2020-0188,2021-10-14,06:51:36,07:57:04,NA,incomplete,false,NA,true,2,2,NA,NA,NA,left,present,NA,NA,m_s_092.jpg,brown,n_s_117.jpg,blue,between,NA,NaN,NA,left,3792.199999988079,1,2,1625
BWkSLKcb,32k26u12eq14p7ktnmss8y5zd9bdv8,3lotdfnyabcgp0wov4xg7knqyd3fwy,BWkSLKcb,2020-0188,2021-10-14,06:51:36,07:57:04,NA,incomplete,false,NA,true,2,3,NA,NA,NA,right,present,NA,NA,m_s_117.jpg,black,m_s_073.jpg,blue,between,NA,NaN,NA,left,6973.900000035763,0,2,3102.399999976158
BWkSLKcb,32k26u12eq14p7ktnmss8y5zd9bdv8,3lotdfnyabcgp0wov4xg7knqyd3fwy,BWkSLKcb,2020-0188,2021-10-14,06:51:36,07:57:04,NA,incomplete,false,NA,true,2,4,NA,NA,NA,right,present,NA,NA,n_s_001.jpg,gray,m_s_102.jpg,orange,between,NA,NaN,NA,right,2672,1,1,1487.199999988079
BWkSLKcb,32k26u12eq14p7ktnmss8y5zd9bdv8,3lotdfnyabcgp0wov4xg7knqyd3fwy,BWkSLKcb,2020-0188,2021-10-14,06:51:36,07:57:04,NA,incomplete,false,NA,true,2,5,NA,NA,NA,left,present,NA,NA,n_s_057.jpg,red,m_s_039.jpg,red,within,NA,NaN,NA,left,2511.699999988079,1,1,1807.800000011921
BWkSLKcb,32k26u12eq14p7ktnmss8y5zd9bdv8,3lotdfnyabcgp0wov4xg7knqyd3fwy,BWkSLKcb,2020-0188,2021-10-14,06:51:36,07:57:04,NA,incomplete,false,NA,true,2,6,NA,NA,NA,right,present,NA,NA,m_l_109.jpg,orange,m_s_076.jpg,black,between,NA,NaN,NA,right,4559.199999988079,1,2,1466.1000000238419
BWkSLKcb,32k26u12eq14p7ktnmss8y5zd9bdv8,3lotdfnyabcgp0wov4xg7knqyd3fwy,BWkSLKcb,2020-0188,2021-10-14,06:51:36,07:57:04,NA,incomplete,false,NA,true,2,7,NA,NA,NA,right,present,NA,NA,n_l_062.jpg,brown,n_s_064.jpg,brown,within,NA,NaN,NA,left,3340.599999964237,0,1,1654.5999999642372
BWkSLKcb,32k26u12eq14p7ktnmss8y5zd9bdv8,3lotdfnyabcgp0wov4xg7knqyd3fwy,BWkSLKcb,2020-0188,2021-10-14,06:51:36,07:57:04,NA,incomplete,false,NA,true,2,8,NA,NA,NA,right,present,NA,NA,m_l_095.jpg,orange,n_l_069.jpg,orange,within,NA,NaN,NA,right,3459.800000011921,1,2,2566.899999976158
BWkSLKcb,32k26u12eq14p7ktnmss8y5zd9bdv8,3lotdfnyabcgp0wov4xg7knqyd3fwy,BWkSLKcb,2020-0188,2021-10-14,06:51:36,07:57:04,NA,incomplete,false,NA,true,2,9,NA,NA,NA,right,present,NA,NA,n_l_107.jpg,blue,m_l_027.jpg,blue,within,NA,NaN,NA,left,5643.300000011921,0,1,2240.300000011921
BWkSLKcb,32k26u12eq14p7ktnmss8y5zd9bdv8,3lotdfnyabcgp0wov4xg7knqyd3fwy,BWkSLKcb,2020-0188,2021-10-14,06:51:36,07:57:04,NA,incomplete,false,NA,true,2,10,NA,NA,NA,left,present,NA,NA,m_s_067.jpg,red,m_s_029.jpg,brown,between,NA,NaN,NA,right,3513.100000023842,0,1,2903.899999976158
BWkSLKcb,32k26u12eq14p7ktnmss8y5zd9bdv8,3lotdfnyabcgp0wov4xg7knqyd3fwy,BWkSLKcb,2020-0188,2021-10-14,06:51:36,07:57:04,NA,incomplete,false,true,NA,3,0,NA,gray,n_l_031.jpg,NA,NA,unpleasant,pleasant,NA,NA,NA,NA,NA,right,2636.19999998808,true,NA,NA,NA,NA,NA
BWkSLKcb,32k26u12eq14p7ktnmss8y5zd9bdv8,3lotdfnyabcgp0wov4xg7knqyd3fwy,BWkSLKcb,2020-0188,2021-10-14,06:51:36,07:57:04,NA,incomplete,false,true,NA,3,1,NA,gray,n_l_026.jpg,NA,NA,unpleasant,pleasant,NA,NA,NA,NA,NA,right,2244.19999998808,true,NA,NA,NA,NA,NA
BWkSLKcb,32k26u12eq14p7ktnmss8y5zd9bdv8,3lotdfnyabcgp0wov4xg7knqyd3fwy,BWkSLKcb,2020-0188,2021-10-14,06:51:36,07:57:04,NA,incomplete,false,true,NA,3,2,NA,gray,n_l_110.jpg,NA,NA,unpleasant,pleasant,NA,NA,NA,NA,NA,right,1849.30000001192,true,NA,NA,NA,NA,NA
BWkSLKcb,32k26u12eq14p7ktnmss8y5zd9bdv8,3lotdfnyabcgp0wov4xg7knqyd3fwy,BWkSLKcb,2020-0188,2021-10-14,06:51:36,07:57:04,NA,incomplete,false,true,NA,3,3,NA,gray,m_l_058.jpg,NA,NA,pleasant,unpleasant,NA,NA,NA,NA,NA,left,1711.20000004768,true,NA,NA,NA,NA,NA
BWkSLKcb,32k26u12eq14p7ktnmss8y5zd9bdv8,3lotdfnyabcgp0wov4xg7knqyd3fwy,BWkSLKcb,2020-0188,2021-10-14,06:51:36,07:57:04,NA,incomplete,false,true,NA,3,4,NA,gray,n_s_014.jpg,NA,NA,pleasant,unpleasant,NA,NA,NA,NA,NA,left,1670.80000001192,true,NA,NA,NA,NA,NA
BWkSLKcb,32k26u12eq14p7ktnmss8y5zd9bdv8,3lotdfnyabcgp0wov4xg7knqyd3fwy,BWkSLKcb,2020-0188,2021-10-14,06:51:36,07:57:04,NA,incomplete,false,true,NA,3,5,NA,gray,n_s_034.jpg,NA,NA,pleasant,unpleasant,NA,NA,NA,NA,NA,left,1403.69999998808,true,NA,NA,NA,NA,NA
BWkSLKcb,32k26u12eq14p7ktnmss8y5zd9bdv8,3lotdfnyabcgp0wov4xg7knqyd3fwy,BWkSLKcb,2020-0188,2021-10-14,06:51:36,07:57:04,NA,incomplete,false,true,NA,3,6,NA,purple,m_s_002.jpg,NA,NA,pleasant,unpleasant,NA,NA,NA,NA,NA,left,1951.30000001192,true,NA,NA,NA,NA,NA
BWkSLKcb,32k26u12eq14p7ktnmss8y5zd9bdv8,3lotdfnyabcgp0wov4xg7knqyd3fwy,BWkSLKcb,2020-0188,2021-10-14,06:51:36,07:57:04,NA,incomplete,false,true,NA,3,7,NA,purple,m_l_017.jpg,NA,NA,pleasant,unpleasant,NA,NA,NA,NA,NA,right,1638,true,NA,NA,NA,NA,NA
BWkSLKcb,32k26u12eq14p7ktnmss8y5zd9bdv8,3lotdfnyabcgp0wov4xg7knqyd3fwy,BWkSLKcb,2020-0188,2021-10-14,06:51:36,07:57:04,NA,incomplete,false,true,NA,3,8,NA,purple,m_s_074.jpg,NA,NA,pleasant,unpleasant,NA,NA,NA,NA,NA,right,2836.29999995232,true,NA,NA,NA,NA,NA
BWkSLKcb,32k26u12eq14p7ktnmss8y5zd9bdv8,3lotdfnyabcgp0wov4xg7knqyd3fwy,BWkSLKcb,2020-0188,2021-10-14,06:51:36,07:57:04,NA,incomplete,false,true,NA,3,9,NA,purple,n_l_077.jpg,NA,NA,unpleasant,pleasant,NA,NA,NA,NA,NA,left,1701.30000001192,true,NA,NA,NA,NA,NA
BWkSLKcb,32k26u12eq14p7ktnmss8y5zd9bdv8,3lotdfnyabcgp0wov4xg7knqyd3fwy,BWkSLKcb,2020-0188,2021-10-14,06:51:36,07:57:04,NA,incomplete,false,true,NA,3,10,NA,purple,m_l_050.jpg,NA,NA,unpleasant,pleasant,NA,NA,NA,NA,NA,right,1377.69999998808,true,NA,NA,NA,NA,NA
BWkSLKcb,32k26u12eq14p7ktnmss8y5zd9bdv8,3lotdfnyabcgp0wov4xg7knqyd3fwy,BWkSLKcb,2020-0188,2021-10-14,06:51:36,07:57:04,NA,incomplete,false,true,NA,3,11,NA,purple,m_l_034.jpg,NA,NA,unpleasant,pleasant,NA,NA,NA,NA,NA,right,1744.5,true,NA,NA,NA,NA,NA
BWkSLKcb,32k26u12eq14p7ktnmss8y5zd9bdv8,3lotdfnyabcgp0wov4xg7knqyd3fwy,BWkSLKcb,2020-0188,2021-10-14,06:51:36,07:57:04,NA,incomplete,false,true,NA,3,12,NA,white,m_l_067.jpg,NA,NA,unpleasant,pleasant,NA,NA,NA,NA,NA,right,1659,true,NA,NA,NA,NA,NA
BWkSLKcb,32k26u12eq14p7ktnmss8y5zd9bdv8,3lotdfnyabcgp0wov4xg7knqyd3fwy,BWkSLKcb,2020-0188,2021-10-14,06:51:36,07:57:04,NA,incomplete,false,true,NA,3,13,NA,white,m_l_020.jpg,NA,NA,unpleasant,pleasant,NA,NA,NA,NA,NA,right,1409.40000003576,true,NA,NA,NA,NA,NA
BWkSLKcb,32k26u12eq14p7ktnmss8y5zd9bdv8,3lotdfnyabcgp0wov4xg7knqyd3fwy,BWkSLKcb,2020-0188,2021-10-14,06:51:36,07:57:04,NA,incomplete,false,true,NA,3,14,NA,white,m_l_016.jpg,NA,NA,unpleasant,pleasant,NA,NA,NA,NA,NA,right,1101.60000002384,true,NA,NA,NA,NA,NA
BWkSLKcb,32k26u12eq14p7ktnmss8y5zd9bdv8,3lotdfnyabcgp0wov4xg7knqyd3fwy,BWkSLKcb,2020-0188,2021-10-14,06:51:36,07:57:04,NA,incomplete,false,true,NA,3,15,NA,white,m_s_055.jpg,NA,NA,unpleasant,pleasant,NA,NA,NA,NA,NA,right,1271.80000001192,true,NA,NA,NA,NA,NA
BWkSLKcb,32k26u12eq14p7ktnmss8y5zd9bdv8,3lotdfnyabcgp0wov4xg7knqyd3fwy,BWkSLKcb,2020-0188,2021-10-14,06:51:36,07:57:04,NA,incomplete,false,true,NA,3,16,NA,white,n_s_070.jpg,NA,NA,unpleasant,pleasant,NA,NA,NA,NA,NA,right,1243.80000001192,true,NA,NA,NA,NA,NA
BWkSLKcb,32k26u12eq14p7ktnmss8y5zd9bdv8,3lotdfnyabcgp0wov4xg7knqyd3fwy,BWkSLKcb,2020-0188,2021-10-14,06:51:36,07:57:04,NA,incomplete,false,true,NA,3,17,NA,white,m_l_038.jpg,NA,NA,unpleasant,pleasant,NA,NA,NA,NA,NA,right,1086.09999996424,true,NA,NA,NA,NA,NA
BWkSLKcb,32k26u12eq14p7ktnmss8y5zd9bdv8,3lotdfnyabcgp0wov4xg7knqyd3fwy,BWkSLKcb,2020-0188,2021-10-14,06:51:36,07:57:04,NA,incomplete,false,true,NA,3,18,NA,blue,n_l_036.jpg,NA,NA,unpleasant,pleasant,NA,NA,NA,NA,NA,left,3080.29999995232,true,NA,NA,NA,NA,NA
BWkSLKcb,32k26u12eq14p7ktnmss8y5zd9bdv8,3lotdfnyabcgp0wov4xg7knqyd3fwy,BWkSLKcb,2020-0188,2021-10-14,06:51:36,07:57:04,NA,incomplete,false,true,NA,3,19,NA,blue,n_s_109.jpg,NA,NA,pleasant,unpleasant,NA,NA,NA,NA,NA,right,1878.80000001192,true,NA,NA,NA,NA,NA
BWkSLKcb,32k26u12eq14p7ktnmss8y5zd9bdv8,3lotdfnyabcgp0wov4xg7knqyd3fwy,BWkSLKcb,2020-0188,2021-10-14,06:51:36,07:57:04,NA,incomplete,false,true,NA,3,20,NA,blue,n_l_097.jpg,NA,NA,pleasant,unpleasant,NA,NA,NA,NA,NA,right,2457.30000001192,true,NA,NA,NA,NA,NA
BWkSLKcb,32k26u12eq14p7ktnmss8y5zd9bdv8,3lotdfnyabcgp0wov4xg7knqyd3fwy,BWkSLKcb,2020-0188,2021-10-14,06:51:36,07:57:04,NA,incomplete,false,true,NA,3,21,NA,blue,n_s_042.jpg,NA,NA,unpleasant,pleasant,NA,NA,NA,NA,NA,right,1776.90000003576,true,NA,NA,NA,NA,NA
BWkSLKcb,32k26u12eq14p7ktnmss8y5zd9bdv8,3lotdfnyabcgp0wov4xg7knqyd3fwy,BWkSLKcb,2020-0188,2021-10-14,06:51:36,07:57:04,NA,incomplete,false,true,NA,3,22,NA,blue,m_s_013.jpg,NA,NA,pleasant,unpleasant,NA,NA,NA,NA,NA,right,2225.29999995232,true,NA,NA,NA,NA,NA
BWkSLKcb,32k26u12eq14p7ktnmss8y5zd9bdv8,3lotdfnyabcgp0wov4xg7knqyd3fwy,BWkSLKcb,2020-0188,2021-10-14,06:51:36,07:57:04,NA,incomplete,false,true,NA,3,23,NA,blue,n_l_094.jpg,NA,NA,pleasant,unpleasant,NA,NA,NA,NA,NA,right,3159.60000002384,true,NA,NA,NA,NA,NA
BWkSLKcb,32k26u12eq14p7ktnmss8y5zd9bdv8,3lotdfnyabcgp0wov4xg7knqyd3fwy,BWkSLKcb,2020-0188,2021-10-14,06:51:36,07:57:04,NA,incomplete,false,true,NA,3,24,NA,yellow,n_s_091.jpg,NA,NA,unpleasant,pleasant,NA,NA,NA,NA,NA,right,2172.70000004768,true,NA,NA,NA,NA,NA
BWkSLKcb,32k26u12eq14p7ktnmss8y5zd9bdv8,3lotdfnyabcgp0wov4xg7knqyd3fwy,BWkSLKcb,2020-0188,2021-10-14,06:51:36,07:57:04,NA,incomplete,false,true,NA,3,25,NA,yellow,n_s_055.jpg,NA,NA,unpleasant,pleasant,NA,NA,NA,NA,NA,left,1569.90000003576,true,NA,NA,NA,NA,NA
BWkSLKcb,32k26u12eq14p7ktnmss8y5zd9bdv8,3lotdfnyabcgp0wov4xg7knqyd3fwy,BWkSLKcb,2020-0188,2021-10-14,06:51:36,07:57:04,NA,incomplete,false,true,NA,3,26,NA,yellow,n_l_091.jpg,NA,NA,pleasant,unpleasant,NA,NA,NA,NA,NA,right,2037.89999997616,true,NA,NA,NA,NA,NA
BWkSLKcb,32k26u12eq14p7ktnmss8y5zd9bdv8,3lotdfnyabcgp0wov4xg7knqyd3fwy,BWkSLKcb,2020-0188,2021-10-14,06:51:36,07:57:04,NA,incomplete,false,true,NA,3,27,NA,yellow,n_l_009.jpg,NA,NA,unpleasant,pleasant,NA,NA,NA,NA,NA,left,2593.30000001192,true,NA,NA,NA,NA,NA
BWkSLKcb,32k26u12eq14p7ktnmss8y5zd9bdv8,3lotdfnyabcgp0wov4xg7knqyd3fwy,BWkSLKcb,2020-0188,2021-10-14,06:51:36,07:57:04,NA,incomplete,false,true,NA,3,28,NA,yellow,m_l_080.jpg,NA,NA,unpleasant,pleasant,NA,NA,NA,NA,NA,left,1313.09999996424,true,NA,NA,NA,NA,NA
BWkSLKcb,32k26u12eq14p7ktnmss8y5zd9bdv8,3lotdfnyabcgp0wov4xg7knqyd3fwy,BWkSLKcb,2020-0188,2021-10-14,06:51:36,07:57:04,NA,incomplete,false,true,NA,3,29,NA,yellow,m_l_096.jpg,NA,NA,pleasant,unpleasant,NA,NA,NA,NA,NA,left,1691.30000001192,true,NA,NA,NA,NA,NA
BWkSLKcb,32k26u12eq14p7ktnmss8y5zd9bdv8,3lotdfnyabcgp0wov4xg7knqyd3fwy,BWkSLKcb,2020-0188,2021-10-14,06:51:36,07:57:04,NA,incomplete,false,true,NA,3,30,NA,brown,m_l_054.jpg,NA,NA,unpleasant,pleasant,NA,NA,NA,NA,NA,none,0,false,NA,NA,NA,NA,NA
BWkSLKcb,32k26u12eq14p7ktnmss8y5zd9bdv8,3lotdfnyabcgp0wov4xg7knqyd3fwy,BWkSLKcb,2020-0188,2021-10-14,06:51:36,07:57:04,NA,incomplete,false,true,NA,3,31,NA,brown,n_l_080.jpg,NA,NA,unpleasant,pleasant,NA,NA,NA,NA,NA,right,2869.30000001192,true,NA,NA,NA,NA,NA
BWkSLKcb,32k26u12eq14p7ktnmss8y5zd9bdv8,3lotdfnyabcgp0wov4xg7knqyd3fwy,BWkSLKcb,2020-0188,2021-10-14,06:51:36,07:57:04,NA,incomplete,false,true,NA,3,32,NA,brown,n_l_055.jpg,NA,NA,pleasant,unpleasant,NA,NA,NA,NA,NA,left,2230.80000001192,true,NA,NA,NA,NA,NA
BWkSLKcb,32k26u12eq14p7ktnmss8y5zd9bdv8,3lotdfnyabcgp0wov4xg7knqyd3fwy,BWkSLKcb,2020-0188,2021-10-14,06:51:36,07:57:04,NA,incomplete,false,true,NA,3,33,NA,brown,m_l_079.jpg,NA,NA,pleasant,unpleasant,NA,NA,NA,NA,NA,right,2086.59999996424,true,NA,NA,NA,NA,NA
BWkSLKcb,32k26u12eq14p7ktnmss8y5zd9bdv8,3lotdfnyabcgp0wov4xg7knqyd3fwy,BWkSLKcb,2020-0188,2021-10-14,06:51:36,07:57:04,NA,incomplete,false,true,NA,3,34,NA,brown,m_l_110.jpg,NA,NA,unpleasant,pleasant,NA,NA,NA,NA,NA,right,1763.39999997616,true,NA,NA,NA,NA,NA
BWkSLKcb,32k26u12eq14p7ktnmss8y5zd9bdv8,3lotdfnyabcgp0wov4xg7knqyd3fwy,BWkSLKcb,2020-0188,2021-10-14,06:51:36,07:57:04,NA,incomplete,false,true,NA,3,35,NA,brown,n_s_051.jpg,NA,NA,pleasant,unpleasant,NA,NA,NA,NA,NA,left,1903.5,true,NA,NA,NA,NA,NA
BWkSLKcb,32k26u12eq14p7ktnmss8y5zd9bdv8,3lotdfnyabcgp0wov4xg7knqyd3fwy,BWkSLKcb,2020-0188,2021-10-14,06:51:36,07:57:04,NA,incomplete,false,NA,true,3,0,NA,NA,NA,left,present,NA,NA,m_l_050.jpg,purple,m_l_016.jpg,white,between,NA,NaN,NA,right,5877,0,1,3002.899999976158
BWkSLKcb,32k26u12eq14p7ktnmss8y5zd9bdv8,3lotdfnyabcgp0wov4xg7knqyd3fwy,BWkSLKcb,2020-0188,2021-10-14,06:51:36,07:57:04,NA,incomplete,false,NA,true,3,1,NA,NA,NA,left,present,NA,NA,n_s_109.jpg,blue,n_l_094.jpg,blue,within,NA,NaN,NA,left,6658.299999952316,1,1,3503.399999976158
BWkSLKcb,32k26u12eq14p7ktnmss8y5zd9bdv8,3lotdfnyabcgp0wov4xg7knqyd3fwy,BWkSLKcb,2020-0188,2021-10-14,06:51:36,07:57:04,NA,incomplete,false,NA,true,3,2,NA,NA,NA,left,present,NA,NA,n_s_070.jpg,white,n_l_097.jpg,blue,between,NA,NaN,NA,left,6307,1,2,1562.6000000238419
BWkSLKcb,32k26u12eq14p7ktnmss8y5zd9bdv8,3lotdfnyabcgp0wov4xg7knqyd3fwy,BWkSLKcb,2020-0188,2021-10-14,06:51:36,07:57:04,NA,incomplete,false,NA,true,3,3,NA,NA,NA,left,present,NA,NA,n_l_026.jpg,gray,n_s_034.jpg,gray,within,NA,NaN,NA,left,4732,1,1,1359.199999988079
BWkSLKcb,32k26u12eq14p7ktnmss8y5zd9bdv8,3lotdfnyabcgp0wov4xg7knqyd3fwy,BWkSLKcb,2020-0188,2021-10-14,06:51:36,07:57:04,NA,incomplete,false,NA,true,3,4,NA,NA,NA,left,present,NA,NA,m_l_020.jpg,white,m_l_038.jpg,white,within,NA,NaN,NA,left,2388.199999988079,1,1,1619.8999999761581
BWkSLKcb,32k26u12eq14p7ktnmss8y5zd9bdv8,3lotdfnyabcgp0wov4xg7knqyd3fwy,BWkSLKcb,2020-0188,2021-10-14,06:51:36,07:57:04,NA,incomplete,false,NA,true,3,5,NA,NA,NA,right,present,NA,NA,m_l_096.jpg,yellow,n_s_055.jpg,yellow,within,NA,NaN,NA,left,2526.399999976158,0,2,1296.699999988079
BWkSLKcb,32k26u12eq14p7ktnmss8y5zd9bdv8,3lotdfnyabcgp0wov4xg7knqyd3fwy,BWkSLKcb,2020-0188,2021-10-14,06:51:36,07:57:04,NA,incomplete,false,NA,true,3,6,NA,NA,NA,right,present,NA,NA,n_s_051.jpg,brown,n_l_080.jpg,brown,within,NA,NaN,NA,right,4167,1,1,1309.9000000357628
BWkSLKcb,32k26u12eq14p7ktnmss8y5zd9bdv8,3lotdfnyabcgp0wov4xg7knqyd3fwy,BWkSLKcb,2020-0188,2021-10-14,06:51:36,07:57:04,NA,incomplete,false,NA,true,3,7,NA,NA,NA,left,present,NA,NA,m_l_080.jpg,yellow,n_l_055.jpg,brown,between,NA,NaN,NA,left,2287,1,1,1389.199999988079
BWkSLKcb,32k26u12eq14p7ktnmss8y5zd9bdv8,3lotdfnyabcgp0wov4xg7knqyd3fwy,BWkSLKcb,2020-0188,2021-10-14,06:51:36,07:57:04,NA,incomplete,false,NA,true,3,8,NA,NA,NA,right,present,NA,NA,n_l_091.jpg,yellow,m_s_013.jpg,blue,between,NA,NaN,NA,left,2387.300000011921,0,1,3637.199999988079
BWkSLKcb,32k26u12eq14p7ktnmss8y5zd9bdv8,3lotdfnyabcgp0wov4xg7knqyd3fwy,BWkSLKcb,2020-0188,2021-10-14,06:51:36,07:57:04,NA,incomplete,false,NA,true,3,9,NA,NA,NA,right,present,NA,NA,m_l_034.jpg,purple,m_l_017.jpg,purple,within,NA,NaN,NA,left,2707.800000011921,0,1,1817.5
BWkSLKcb,32k26u12eq14p7ktnmss8y5zd9bdv8,3lotdfnyabcgp0wov4xg7knqyd3fwy,BWkSLKcb,2020-0188,2021-10-14,06:51:36,07:57:04,NA,incomplete,false,NA,true,3,10,NA,NA,NA,right,present,NA,NA,m_s_074.jpg,purple,n_s_014.jpg,gray,between,NA,NaN,NA,right,2857.600000023842,1,2,2348.300000011921
BWkSLKcb,32k26u12eq14p7ktnmss8y5zd9bdv8,3lotdfnyabcgp0wov4xg7knqyd3fwy,BWkSLKcb,2020-0188,2021-10-14,06:51:36,07:57:04,NA,incomplete,false,true,NA,4,0,NA,brown,n_l_028.jpg,NA,NA,pleasant,unpleasant,NA,NA,NA,NA,NA,right,2406.79999995232,true,NA,NA,NA,NA,NA
BWkSLKcb,32k26u12eq14p7ktnmss8y5zd9bdv8,3lotdfnyabcgp0wov4xg7knqyd3fwy,BWkSLKcb,2020-0188,2021-10-14,06:51:36,07:57:04,NA,incomplete,false,true,NA,4,1,NA,brown,n_l_030.jpg,NA,NA,unpleasant,pleasant,NA,NA,NA,NA,NA,right,2414.40000003576,true,NA,NA,NA,NA,NA
BWkSLKcb,32k26u12eq14p7ktnmss8y5zd9bdv8,3lotdfnyabcgp0wov4xg7knqyd3fwy,BWkSLKcb,2020-0188,2021-10-14,06:51:36,07:57:04,NA,incomplete,false,true,NA,4,2,NA,brown,n_l_042.jpg,NA,NA,unpleasant,pleasant,NA,NA,NA,NA,NA,right,2216.5,true,NA,NA,NA,NA,NA
BWkSLKcb,32k26u12eq14p7ktnmss8y5zd9bdv8,3lotdfnyabcgp0wov4xg7knqyd3fwy,BWkSLKcb,2020-0188,2021-10-14,06:51:36,07:57:04,NA,incomplete,false,true,NA,4,3,NA,brown,n_s_078.jpg,NA,NA,pleasant,unpleasant,NA,NA,NA,NA,NA,right,1694.39999997616,true,NA,NA,NA,NA,NA
BWkSLKcb,32k26u12eq14p7ktnmss8y5zd9bdv8,3lotdfnyabcgp0wov4xg7knqyd3fwy,BWkSLKcb,2020-0188,2021-10-14,06:51:36,07:57:04,NA,incomplete,false,true,NA,4,4,NA,brown,m_s_031.jpg,NA,NA,pleasant,unpleasant,NA,NA,NA,NA,NA,left,1705.30000001192,true,NA,NA,NA,NA,NA
BWkSLKcb,32k26u12eq14p7ktnmss8y5zd9bdv8,3lotdfnyabcgp0wov4xg7knqyd3fwy,BWkSLKcb,2020-0188,2021-10-14,06:51:36,07:57:04,NA,incomplete,false,true,NA,4,5,NA,brown,n_l_078.jpg,NA,NA,unpleasant,pleasant,NA,NA,NA,NA,NA,left,2451.90000003576,true,NA,NA,NA,NA,NA
BWkSLKcb,32k26u12eq14p7ktnmss8y5zd9bdv8,3lotdfnyabcgp0wov4xg7knqyd3fwy,BWkSLKcb,2020-0188,2021-10-14,06:51:36,07:57:04,NA,incomplete,false,true,NA,4,6,NA,blue,m_s_050.jpg,NA,NA,unpleasant,pleasant,NA,NA,NA,NA,NA,right,1594.89999997616,true,NA,NA,NA,NA,NA
BWkSLKcb,32k26u12eq14p7ktnmss8y5zd9bdv8,3lotdfnyabcgp0wov4xg7knqyd3fwy,BWkSLKcb,2020-0188,2021-10-14,06:51:36,07:57:04,NA,incomplete,false,true,NA,4,7,NA,blue,n_s_017.jpg,NA,NA,pleasant,unpleasant,NA,NA,NA,NA,NA,left,2807,true,NA,NA,NA,NA,NA
BWkSLKcb,32k26u12eq14p7ktnmss8y5zd9bdv8,3lotdfnyabcgp0wov4xg7knqyd3fwy,BWkSLKcb,2020-0188,2021-10-14,06:51:36,07:57:04,NA,incomplete,false,true,NA,4,8,NA,blue,m_l_047.jpg,NA,NA,pleasant,unpleasant,NA,NA,NA,NA,NA,left,3198.90000003576,true,NA,NA,NA,NA,NA
BWkSLKcb,32k26u12eq14p7ktnmss8y5zd9bdv8,3lotdfnyabcgp0wov4xg7knqyd3fwy,BWkSLKcb,2020-0188,2021-10-14,06:51:36,07:57:04,NA,incomplete,false,true,NA,4,9,NA,blue,n_s_028.jpg,NA,NA,pleasant,unpleasant,NA,NA,NA,NA,NA,right,1432.09999996424,true,NA,NA,NA,NA,NA
BWkSLKcb,32k26u12eq14p7ktnmss8y5zd9bdv8,3lotdfnyabcgp0wov4xg7knqyd3fwy,BWkSLKcb,2020-0188,2021-10-14,06:51:36,07:57:04,NA,incomplete,false,true,NA,4,10,NA,blue,n_s_030.jpg,NA,NA,pleasant,unpleasant,NA,NA,NA,NA,NA,left,1730.5,true,NA,NA,NA,NA,NA
BWkSLKcb,32k26u12eq14p7ktnmss8y5zd9bdv8,3lotdfnyabcgp0wov4xg7knqyd3fwy,BWkSLKcb,2020-0188,2021-10-14,06:51:36,07:57:04,NA,incomplete,false,true,NA,4,11,NA,blue,m_s_078.jpg,NA,NA,pleasant,unpleasant,NA,NA,NA,NA,NA,left,1247.30000001192,true,NA,NA,NA,NA,NA
BWkSLKcb,32k26u12eq14p7ktnmss8y5zd9bdv8,3lotdfnyabcgp0wov4xg7knqyd3fwy,BWkSLKcb,2020-0188,2021-10-14,06:51:36,07:57:04,NA,incomplete,false,true,NA,4,12,NA,white,n_l_070.jpg,NA,NA,pleasant,unpleasant,NA,NA,NA,NA,NA,left,2439.69999998808,true,NA,NA,NA,NA,NA
BWkSLKcb,32k26u12eq14p7ktnmss8y5zd9bdv8,3lotdfnyabcgp0wov4xg7knqyd3fwy,BWkSLKcb,2020-0188,2021-10-14,06:51:36,07:57:04,NA,incomplete,false,true,NA,4,13,NA,white,m_l_076.jpg,NA,NA,pleasant,unpleasant,NA,NA,NA,NA,NA,left,2612.80000001192,true,NA,NA,NA,NA,NA
BWkSLKcb,32k26u12eq14p7ktnmss8y5zd9bdv8,3lotdfnyabcgp0wov4xg7knqyd3fwy,BWkSLKcb,2020-0188,2021-10-14,06:51:36,07:57:04,NA,incomplete,false,true,NA,4,14,NA,white,m_s_001.jpg,NA,NA,pleasant,unpleasant,NA,NA,NA,NA,NA,left,1874,true,NA,NA,NA,NA,NA
BWkSLKcb,32k26u12eq14p7ktnmss8y5zd9bdv8,3lotdfnyabcgp0wov4xg7knqyd3fwy,BWkSLKcb,2020-0188,2021-10-14,06:51:36,07:57:04,NA,incomplete,false,true,NA,4,15,NA,white,m_l_103.jpg,NA,NA,unpleasant,pleasant,NA,NA,NA,NA,NA,left,1120.69999998808,true,NA,NA,NA,NA,NA
BWkSLKcb,32k26u12eq14p7ktnmss8y5zd9bdv8,3lotdfnyabcgp0wov4xg7knqyd3fwy,BWkSLKcb,2020-0188,2021-10-14,06:51:36,07:57:04,NA,incomplete,false,true,NA,4,16,NA,white,m_l_043.jpg,NA,NA,pleasant,unpleasant,NA,NA,NA,NA,NA,left,1530.59999996424,true,NA,NA,NA,NA,NA
BWkSLKcb,32k26u12eq14p7ktnmss8y5zd9bdv8,3lotdfnyabcgp0wov4xg7knqyd3fwy,BWkSLKcb,2020-0188,2021-10-14,06:51:36,07:57:04,NA,incomplete,false,true,NA,4,17,NA,white,m_s_017.jpg,NA,NA,pleasant,unpleasant,NA,NA,NA,NA,NA,left,1356.19999998808,true,NA,NA,NA,NA,NA
BWkSLKcb,32k26u12eq14p7ktnmss8y5zd9bdv8,3lotdfnyabcgp0wov4xg7knqyd3fwy,BWkSLKcb,2020-0188,2021-10-14,06:51:36,07:57:04,NA,incomplete,false,true,NA,4,18,NA,purple,m_s_077.jpg,NA,NA,pleasant,unpleasant,NA,NA,NA,NA,NA,right,1506.20000004768,true,NA,NA,NA,NA,NA
BWkSLKcb,32k26u12eq14p7ktnmss8y5zd9bdv8,3lotdfnyabcgp0wov4xg7knqyd3fwy,BWkSLKcb,2020-0188,2021-10-14,06:51:36,07:57:04,NA,incomplete,false,true,NA,4,19,NA,purple,m_s_040.jpg,NA,NA,unpleasant,pleasant,NA,NA,NA,NA,NA,left,1968.09999996424,true,NA,NA,NA,NA,NA
BWkSLKcb,32k26u12eq14p7ktnmss8y5zd9bdv8,3lotdfnyabcgp0wov4xg7knqyd3fwy,BWkSLKcb,2020-0188,2021-10-14,06:51:36,07:57:04,NA,incomplete,false,true,NA,4,20,NA,purple,m_l_010.jpg,NA,NA,pleasant,unpleasant,NA,NA,NA,NA,NA,right,1296.69999998808,true,NA,NA,NA,NA,NA
BWkSLKcb,32k26u12eq14p7ktnmss8y5zd9bdv8,3lotdfnyabcgp0wov4xg7knqyd3fwy,BWkSLKcb,2020-0188,2021-10-14,06:51:36,07:57:04,NA,incomplete,false,true,NA,4,21,NA,purple,m_l_031.jpg,NA,NA,pleasant,unpleasant,NA,NA,NA,NA,NA,right,2256.10000002384,true,NA,NA,NA,NA,NA
BWkSLKcb,32k26u12eq14p7ktnmss8y5zd9bdv8,3lotdfnyabcgp0wov4xg7knqyd3fwy,BWkSLKcb,2020-0188,2021-10-14,06:51:36,07:57:04,NA,incomplete,false,true,NA,4,22,NA,purple,m_l_014.jpg,NA,NA,unpleasant,pleasant,NA,NA,NA,NA,NA,right,1575.59999996424,true,NA,NA,NA,NA,NA
BWkSLKcb,32k26u12eq14p7ktnmss8y5zd9bdv8,3lotdfnyabcgp0wov4xg7knqyd3fwy,BWkSLKcb,2020-0188,2021-10-14,06:51:36,07:57:04,NA,incomplete,false,true,NA,4,23,NA,purple,n_s_050.jpg,NA,NA,unpleasant,pleasant,NA,NA,NA,NA,NA,right,2043.89999997616,true,NA,NA,NA,NA,NA
BWkSLKcb,32k26u12eq14p7ktnmss8y5zd9bdv8,3lotdfnyabcgp0wov4xg7knqyd3fwy,BWkSLKcb,2020-0188,2021-10-14,06:51:36,07:57:04,NA,incomplete,false,true,NA,4,24,NA,green,n_s_060.jpg,NA,NA,pleasant,unpleasant,NA,NA,NA,NA,NA,left,2202.69999998808,true,NA,NA,NA,NA,NA
BWkSLKcb,32k26u12eq14p7ktnmss8y5zd9bdv8,3lotdfnyabcgp0wov4xg7knqyd3fwy,BWkSLKcb,2020-0188,2021-10-14,06:51:36,07:57:04,NA,incomplete,false,true,NA,4,25,NA,green,n_s_007.jpg,NA,NA,unpleasant,pleasant,NA,NA,NA,NA,NA,right,1529.30000001192,true,NA,NA,NA,NA,NA
BWkSLKcb,32k26u12eq14p7ktnmss8y5zd9bdv8,3lotdfnyabcgp0wov4xg7knqyd3fwy,BWkSLKcb,2020-0188,2021-10-14,06:51:36,07:57:04,NA,incomplete,false,true,NA,4,26,NA,green,n_l_072.jpg,NA,NA,pleasant,unpleasant,NA,NA,NA,NA,NA,left,1545.5,true,NA,NA,NA,NA,NA
BWkSLKcb,32k26u12eq14p7ktnmss8y5zd9bdv8,3lotdfnyabcgp0wov4xg7knqyd3fwy,BWkSLKcb,2020-0188,2021-10-14,06:51:36,07:57:04,NA,incomplete,false,true,NA,4,27,NA,green,n_l_088.jpg,NA,NA,unpleasant,pleasant,NA,NA,NA,NA,NA,right,1938.90000003576,true,NA,NA,NA,NA,NA
BWkSLKcb,32k26u12eq14p7ktnmss8y5zd9bdv8,3lotdfnyabcgp0wov4xg7knqyd3fwy,BWkSLKcb,2020-0188,2021-10-14,06:51:36,07:57:04,NA,incomplete,false,true,NA,4,28,NA,green,n_l_059.jpg,NA,NA,unpleasant,pleasant,NA,NA,NA,NA,NA,left,2159.5,true,NA,NA,NA,NA,NA
BWkSLKcb,32k26u12eq14p7ktnmss8y5zd9bdv8,3lotdfnyabcgp0wov4xg7knqyd3fwy,BWkSLKcb,2020-0188,2021-10-14,06:51:36,07:57:04,NA,incomplete,false,true,NA,4,29,NA,green,n_l_005.jpg,NA,NA,unpleasant,pleasant,NA,NA,NA,NA,NA,right,1445.29999995232,true,NA,NA,NA,NA,NA
BWkSLKcb,32k26u12eq14p7ktnmss8y5zd9bdv8,3lotdfnyabcgp0wov4xg7knqyd3fwy,BWkSLKcb,2020-0188,2021-10-14,06:51:36,07:57:04,NA,incomplete,false,true,NA,4,30,NA,red,m_s_018.jpg,NA,NA,unpleasant,pleasant,NA,NA,NA,NA,NA,left,1905.90000003576,true,NA,NA,NA,NA,NA
BWkSLKcb,32k26u12eq14p7ktnmss8y5zd9bdv8,3lotdfnyabcgp0wov4xg7knqyd3fwy,BWkSLKcb,2020-0188,2021-10-14,06:51:36,07:57:04,NA,incomplete,false,true,NA,4,31,NA,red,n_l_001.jpg,NA,NA,unpleasant,pleasant,NA,NA,NA,NA,NA,left,1644.19999998808,true,NA,NA,NA,NA,NA
BWkSLKcb,32k26u12eq14p7ktnmss8y5zd9bdv8,3lotdfnyabcgp0wov4xg7knqyd3fwy,BWkSLKcb,2020-0188,2021-10-14,06:51:36,07:57:04,NA,incomplete,false,true,NA,4,32,NA,red,n_l_092.jpg,NA,NA,pleasant,unpleasant,NA,NA,NA,NA,NA,right,1827,true,NA,NA,NA,NA,NA
BWkSLKcb,32k26u12eq14p7ktnmss8y5zd9bdv8,3lotdfnyabcgp0wov4xg7knqyd3fwy,BWkSLKcb,2020-0188,2021-10-14,06:51:36,07:57:04,NA,incomplete,false,true,NA,4,33,NA,red,m_l_019.jpg,NA,NA,unpleasant,pleasant,NA,NA,NA,NA,NA,right,1297.70000004768,true,NA,NA,NA,NA,NA
BWkSLKcb,32k26u12eq14p7ktnmss8y5zd9bdv8,3lotdfnyabcgp0wov4xg7knqyd3fwy,BWkSLKcb,2020-0188,2021-10-14,06:51:36,07:57:04,NA,incomplete,false,true,NA,4,34,NA,red,m_s_037.jpg,NA,NA,pleasant,unpleasant,NA,NA,NA,NA,NA,right,1858,true,NA,NA,NA,NA,NA
BWkSLKcb,32k26u12eq14p7ktnmss8y5zd9bdv8,3lotdfnyabcgp0wov4xg7knqyd3fwy,BWkSLKcb,2020-0188,2021-10-14,06:51:36,07:57:04,NA,incomplete,false,true,NA,4,35,NA,red,m_s_054.jpg,NA,NA,pleasant,unpleasant,NA,NA,NA,NA,NA,left,1891.19999998808,true,NA,NA,NA,NA,NA
BWkSLKcb,32k26u12eq14p7ktnmss8y5zd9bdv8,3lotdfnyabcgp0wov4xg7knqyd3fwy,BWkSLKcb,2020-0188,2021-10-14,06:51:36,07:57:04,NA,incomplete,false,NA,true,4,0,NA,NA,NA,right,absent,NA,NA,m_s_017.jpg,white,m_l_076.jpg,white,within,NA,NaN,NA,left,4582.199999988079,0,1,1839.199999988079
BWkSLKcb,32k26u12eq14p7ktnmss8y5zd9bdv8,3lotdfnyabcgp0wov4xg7knqyd3fwy,BWkSLKcb,2020-0188,2021-10-14,06:51:36,07:57:04,NA,incomplete,false,NA,true,4,1,NA,NA,NA,left,absent,NA,NA,n_s_030.jpg,blue,m_s_001.jpg,white,between,NA,NaN,NA,left,2217.300000011921,1,1,1599.1000000238419
BWkSLKcb,32k26u12eq14p7ktnmss8y5zd9bdv8,3lotdfnyabcgp0wov4xg7knqyd3fwy,BWkSLKcb,2020-0188,2021-10-14,06:51:36,07:57:04,NA,incomplete,false,NA,true,4,2,NA,NA,NA,left,absent,NA,NA,n_s_017.jpg,blue,m_s_078.jpg,blue,within,NA,NaN,NA,left,2688.2999999523163,1,2,1621
BWkSLKcb,32k26u12eq14p7ktnmss8y5zd9bdv8,3lotdfnyabcgp0wov4xg7knqyd3fwy,BWkSLKcb,2020-0188,2021-10-14,06:51:36,07:57:04,NA,incomplete,false,NA,true,4,3,NA,NA,NA,left,absent,NA,NA,m_s_031.jpg,brown,m_l_047.jpg,blue,between,NA,NaN,NA,left,3949.099999964237,1,2,1530.7000000476837
BWkSLKcb,32k26u12eq14p7ktnmss8y5zd9bdv8,3lotdfnyabcgp0wov4xg7knqyd3fwy,BWkSLKcb,2020-0188,2021-10-14,06:51:36,07:57:04,NA,incomplete,false,NA,true,4,4,NA,NA,NA,left,absent,NA,NA,m_l_014.jpg,purple,n_l_072.jpg,green,between,NA,NaN,NA,left,2035.2000000476837,1,2,1176.800000011921
BWkSLKcb,32k26u12eq14p7ktnmss8y5zd9bdv8,3lotdfnyabcgp0wov4xg7knqyd3fwy,BWkSLKcb,2020-0188,2021-10-14,06:51:36,07:57:04,NA,incomplete,false,NA,true,4,5,NA,NA,NA,right,absent,NA,NA,n_l_092.jpg,red,n_l_059.jpg,green,between,NA,NaN,NA,left,2058.699999988079,0,1,1758.5
BWkSLKcb,32k26u12eq14p7ktnmss8y5zd9bdv8,3lotdfnyabcgp0wov4xg7knqyd3fwy,BWkSLKcb,2020-0188,2021-10-14,06:51:36,07:57:04,NA,incomplete,false,NA,true,4,6,NA,NA,NA,left,absent,NA,NA,n_l_001.jpg,red,m_s_054.jpg,red,within,NA,NaN,NA,right,4656.399999976158,0,1,1640.2000000476837
BWkSLKcb,32k26u12eq14p7ktnmss8y5zd9bdv8,3lotdfnyabcgp0wov4xg7knqyd3fwy,BWkSLKcb,2020-0188,2021-10-14,06:51:36,07:57:04,NA,incomplete,false,NA,true,4,7,NA,NA,NA,right,absent,NA,NA,n_l_005.jpg,green,n_s_007.jpg,green,within,NA,NaN,NA,left,1909.699999988079,0,2,1357.8999999761581
BWkSLKcb,32k26u12eq14p7ktnmss8y5zd9bdv8,3lotdfnyabcgp0wov4xg7knqyd3fwy,BWkSLKcb,2020-0188,2021-10-14,06:51:36,07:57:04,NA,incomplete,false,NA,true,4,8,NA,NA,NA,left,absent,NA,NA,n_l_030.jpg,brown,n_l_078.jpg,brown,within,NA,NaN,NA,left,2961.300000011921,1,1,1490.699999988079
BWkSLKcb,32k26u12eq14p7ktnmss8y5zd9bdv8,3lotdfnyabcgp0wov4xg7knqyd3fwy,BWkSLKcb,2020-0188,2021-10-14,06:51:36,07:57:04,NA,incomplete,false,NA,true,4,9,NA,NA,NA,right,absent,NA,NA,n_s_050.jpg,purple,m_s_040.jpg,purple,within,NA,NaN,NA,left,2938.599999964237,0,1,1618
BWkSLKcb,32k26u12eq14p7ktnmss8y5zd9bdv8,3lotdfnyabcgp0wov4xg7knqyd3fwy,BWkSLKcb,2020-0188,2021-10-14,06:51:36,07:57:04,NA,incomplete,false,NA,true,4,10,NA,NA,NA,right,absent,NA,NA,m_l_010.jpg,purple,m_l_043.jpg,white,between,NA,NaN,NA,left,2499,0,2,2046.300000011921
BWkSLKcb,32k26u12eq14p7ktnmss8y5zd9bdv8,3lotdfnyabcgp0wov4xg7knqyd3fwy,BWkSLKcb,2020-0188,2021-10-14,06:51:36,07:57:04,NA,incomplete,false,true,NA,5,0,NA,gray,n_l_045.jpg,NA,NA,unpleasant,pleasant,NA,NA,NA,NA,NA,right,1924,true,NA,NA,NA,NA,NA
BWkSLKcb,32k26u12eq14p7ktnmss8y5zd9bdv8,3lotdfnyabcgp0wov4xg7knqyd3fwy,BWkSLKcb,2020-0188,2021-10-14,06:51:36,07:57:04,NA,incomplete,false,true,NA,5,1,NA,gray,n_s_103.jpg,NA,NA,pleasant,unpleasant,NA,NA,NA,NA,NA,left,1675.89999997616,true,NA,NA,NA,NA,NA
BWkSLKcb,32k26u12eq14p7ktnmss8y5zd9bdv8,3lotdfnyabcgp0wov4xg7knqyd3fwy,BWkSLKcb,2020-0188,2021-10-14,06:51:36,07:57:04,NA,incomplete,false,true,NA,5,2,NA,gray,m_s_075.jpg,NA,NA,pleasant,unpleasant,NA,NA,NA,NA,NA,left,1333.39999997616,true,NA,NA,NA,NA,NA
BWkSLKcb,32k26u12eq14p7ktnmss8y5zd9bdv8,3lotdfnyabcgp0wov4xg7knqyd3fwy,BWkSLKcb,2020-0188,2021-10-14,06:51:36,07:57:04,NA,incomplete,false,true,NA,5,3,NA,gray,m_s_010.jpg,NA,NA,pleasant,unpleasant,NA,NA,NA,NA,NA,left,1192.19999998808,true,NA,NA,NA,NA,NA
BWkSLKcb,32k26u12eq14p7ktnmss8y5zd9bdv8,3lotdfnyabcgp0wov4xg7knqyd3fwy,BWkSLKcb,2020-0188,2021-10-14,06:51:36,07:57:04,NA,incomplete,false,true,NA,5,4,NA,gray,m_s_014.jpg,NA,NA,unpleasant,pleasant,NA,NA,NA,NA,NA,right,1468.59999996424,true,NA,NA,NA,NA,NA
BWkSLKcb,32k26u12eq14p7ktnmss8y5zd9bdv8,3lotdfnyabcgp0wov4xg7knqyd3fwy,BWkSLKcb,2020-0188,2021-10-14,06:51:36,07:57:04,NA,incomplete,false,true,NA,5,5,NA,gray,m_s_034.jpg,NA,NA,unpleasant,pleasant,NA,NA,NA,NA,NA,right,1287.69999998808,true,NA,NA,NA,NA,NA
BWkSLKcb,32k26u12eq14p7ktnmss8y5zd9bdv8,3lotdfnyabcgp0wov4xg7knqyd3fwy,BWkSLKcb,2020-0188,2021-10-14,06:51:36,07:57:04,NA,incomplete,false,true,NA,5,6,NA,purple,m_l_101.jpg,NA,NA,unpleasant,pleasant,NA,NA,NA,NA,NA,right,1757.60000002384,true,NA,NA,NA,NA,NA
BWkSLKcb,32k26u12eq14p7ktnmss8y5zd9bdv8,3lotdfnyabcgp0wov4xg7knqyd3fwy,BWkSLKcb,2020-0188,2021-10-14,06:51:36,07:57:04,NA,incomplete,false,true,NA,5,7,NA,purple,n_s_067.jpg,NA,NA,pleasant,unpleasant,NA,NA,NA,NA,NA,left,1194.69999998808,true,NA,NA,NA,NA,NA
BWkSLKcb,32k26u12eq14p7ktnmss8y5zd9bdv8,3lotdfnyabcgp0wov4xg7knqyd3fwy,BWkSLKcb,2020-0188,2021-10-14,06:51:36,07:57:04,NA,incomplete,false,true,NA,5,8,NA,purple,m_l_106.jpg,NA,NA,pleasant,unpleasant,NA,NA,NA,NA,NA,right,1825,true,NA,NA,NA,NA,NA
BWkSLKcb,32k26u12eq14p7ktnmss8y5zd9bdv8,3lotdfnyabcgp0wov4xg7knqyd3fwy,BWkSLKcb,2020-0188,2021-10-14,06:51:36,07:57:04,NA,incomplete,false,true,NA,5,9,NA,purple,m_s_098.jpg,NA,NA,unpleasant,pleasant,NA,NA,NA,NA,NA,right,1521.69999998808,true,NA,NA,NA,NA,NA
BWkSLKcb,32k26u12eq14p7ktnmss8y5zd9bdv8,3lotdfnyabcgp0wov4xg7knqyd3fwy,BWkSLKcb,2020-0188,2021-10-14,06:51:36,07:57:04,NA,incomplete,false,true,NA,5,10,NA,purple,n_l_034.jpg,NA,NA,unpleasant,pleasant,NA,NA,NA,NA,NA,left,1773.19999998808,true,NA,NA,NA,NA,NA
BWkSLKcb,32k26u12eq14p7ktnmss8y5zd9bdv8,3lotdfnyabcgp0wov4xg7knqyd3fwy,BWkSLKcb,2020-0188,2021-10-14,06:51:36,07:57:04,NA,incomplete,false,true,NA,5,11,NA,purple,m_l_008.jpg,NA,NA,unpleasant,pleasant,NA,NA,NA,NA,NA,left,1532.80000001192,true,NA,NA,NA,NA,NA
BWkSLKcb,32k26u12eq14p7ktnmss8y5zd9bdv8,3lotdfnyabcgp0wov4xg7knqyd3fwy,BWkSLKcb,2020-0188,2021-10-14,06:51:36,07:57:04,NA,incomplete,false,true,NA,5,12,NA,orange,m_s_083.jpg,NA,NA,pleasant,unpleasant,NA,NA,NA,NA,NA,left,1775.5,true,NA,NA,NA,NA,NA
BWkSLKcb,32k26u12eq14p7ktnmss8y5zd9bdv8,3lotdfnyabcgp0wov4xg7knqyd3fwy,BWkSLKcb,2020-0188,2021-10-14,06:51:36,07:57:04,NA,incomplete,false,true,NA,5,13,NA,orange,m_l_059.jpg,NA,NA,pleasant,unpleasant,NA,NA,NA,NA,NA,left,2598.5,true,NA,NA,NA,NA,NA
BWkSLKcb,32k26u12eq14p7ktnmss8y5zd9bdv8,3lotdfnyabcgp0wov4xg7knqyd3fwy,BWkSLKcb,2020-0188,2021-10-14,06:51:36,07:57:04,NA,incomplete,false,true,NA,5,14,NA,orange,n_l_038.jpg,NA,NA,pleasant,unpleasant,NA,NA,NA,NA,NA,right,1265.79999995232,true,NA,NA,NA,NA,NA
BWkSLKcb,32k26u12eq14p7ktnmss8y5zd9bdv8,3lotdfnyabcgp0wov4xg7knqyd3fwy,BWkSLKcb,2020-0188,2021-10-14,06:51:36,07:57:04,NA,incomplete,false,true,NA,5,15,NA,orange,n_s_063.jpg,NA,NA,unpleasant,pleasant,NA,NA,NA,NA,NA,right,1818.89999997616,true,NA,NA,NA,NA,NA
BWkSLKcb,32k26u12eq14p7ktnmss8y5zd9bdv8,3lotdfnyabcgp0wov4xg7knqyd3fwy,BWkSLKcb,2020-0188,2021-10-14,06:51:36,07:57:04,NA,incomplete,false,true,NA,5,16,NA,orange,m_l_056.jpg,NA,NA,pleasant,unpleasant,NA,NA,NA,NA,NA,right,1673.29999995232,true,NA,NA,NA,NA,NA
BWkSLKcb,32k26u12eq14p7ktnmss8y5zd9bdv8,3lotdfnyabcgp0wov4xg7knqyd3fwy,BWkSLKcb,2020-0188,2021-10-14,06:51:36,07:57:04,NA,incomplete,false,true,NA,5,17,NA,orange,m_l_092.jpg,NA,NA,unpleasant,pleasant,NA,NA,NA,NA,NA,right,2158.60000002384,true,NA,NA,NA,NA,NA
BWkSLKcb,32k26u12eq14p7ktnmss8y5zd9bdv8,3lotdfnyabcgp0wov4xg7knqyd3fwy,BWkSLKcb,2020-0188,2021-10-14,06:51:36,07:57:04,NA,incomplete,false,true,NA,5,18,NA,red,m_l_070.jpg,NA,NA,pleasant,unpleasant,NA,NA,NA,NA,NA,left,1428.89999997616,true,NA,NA,NA,NA,NA
BWkSLKcb,32k26u12eq14p7ktnmss8y5zd9bdv8,3lotdfnyabcgp0wov4xg7knqyd3fwy,BWkSLKcb,2020-0188,2021-10-14,06:51:36,07:57:04,NA,incomplete,false,true,NA,5,19,NA,red,m_s_033.jpg,NA,NA,pleasant,unpleasant,NA,NA,NA,NA,NA,left,3253.69999998808,true,NA,NA,NA,NA,NA
BWkSLKcb,32k26u12eq14p7ktnmss8y5zd9bdv8,3lotdfnyabcgp0wov4xg7knqyd3fwy,BWkSLKcb,2020-0188,2021-10-14,06:51:36,07:57:04,NA,incomplete,false,true,NA,5,20,NA,red,n_l_043.jpg,NA,NA,pleasant,unpleasant,NA,NA,NA,NA,NA,right,2234.09999996424,true,NA,NA,NA,NA,NA
BWkSLKcb,32k26u12eq14p7ktnmss8y5zd9bdv8,3lotdfnyabcgp0wov4xg7knqyd3fwy,BWkSLKcb,2020-0188,2021-10-14,06:51:36,07:57:04,NA,incomplete,false,true,NA,5,21,NA,red,m_l_097.jpg,NA,NA,unpleasant,pleasant,NA,NA,NA,NA,NA,right,1328.69999998808,true,NA,NA,NA,NA,NA
BWkSLKcb,32k26u12eq14p7ktnmss8y5zd9bdv8,3lotdfnyabcgp0wov4xg7knqyd3fwy,BWkSLKcb,2020-0188,2021-10-14,06:51:36,07:57:04,NA,incomplete,false,true,NA,5,22,NA,red,n_s_039.jpg,NA,NA,unpleasant,pleasant,NA,NA,NA,NA,NA,right,1238.60000002384,true,NA,NA,NA,NA,NA
BWkSLKcb,32k26u12eq14p7ktnmss8y5zd9bdv8,3lotdfnyabcgp0wov4xg7knqyd3fwy,BWkSLKcb,2020-0188,2021-10-14,06:51:36,07:57:04,NA,incomplete,false,true,NA,5,23,NA,red,n_l_116.jpg,NA,NA,pleasant,unpleasant,NA,NA,NA,NA,NA,left,2030.60000002384,true,NA,NA,NA,NA,NA
BWkSLKcb,32k26u12eq14p7ktnmss8y5zd9bdv8,3lotdfnyabcgp0wov4xg7knqyd3fwy,BWkSLKcb,2020-0188,2021-10-14,06:51:36,07:57:04,NA,incomplete,false,true,NA,5,24,NA,yellow,m_l_009.jpg,NA,NA,pleasant,unpleasant,NA,NA,NA,NA,NA,left,1780.30000001192,true,NA,NA,NA,NA,NA
BWkSLKcb,32k26u12eq14p7ktnmss8y5zd9bdv8,3lotdfnyabcgp0wov4xg7knqyd3fwy,BWkSLKcb,2020-0188,2021-10-14,06:51:36,07:57:04,NA,incomplete,false,true,NA,5,25,NA,yellow,m_l_061.jpg,NA,NA,pleasant,unpleasant,NA,NA,NA,NA,NA,none,0,false,NA,NA,NA,NA,NA
BWkSLKcb,32k26u12eq14p7ktnmss8y5zd9bdv8,3lotdfnyabcgp0wov4xg7knqyd3fwy,BWkSLKcb,2020-0188,2021-10-14,06:51:36,07:57:04,NA,incomplete,false,true,NA,5,26,NA,yellow,n_s_097.jpg,NA,NA,pleasant,unpleasant,NA,NA,NA,NA,NA,left,1576,true,NA,NA,NA,NA,NA
BWkSLKcb,32k26u12eq14p7ktnmss8y5zd9bdv8,3lotdfnyabcgp0wov4xg7knqyd3fwy,BWkSLKcb,2020-0188,2021-10-14,06:51:36,07:57:04,NA,incomplete,false,true,NA,5,27,NA,yellow,n_l_020.jpg,NA,NA,pleasant,unpleasant,NA,NA,NA,NA,NA,left,1175.59999996424,true,NA,NA,NA,NA,NA
BWkSLKcb,32k26u12eq14p7ktnmss8y5zd9bdv8,3lotdfnyabcgp0wov4xg7knqyd3fwy,BWkSLKcb,2020-0188,2021-10-14,06:51:36,07:57:04,NA,incomplete,false,true,NA,5,28,NA,yellow,m_l_055.jpg,NA,NA,unpleasant,pleasant,NA,NA,NA,NA,NA,right,1623.09999996424,true,NA,NA,NA,NA,NA
BWkSLKcb,32k26u12eq14p7ktnmss8y5zd9bdv8,3lotdfnyabcgp0wov4xg7knqyd3fwy,BWkSLKcb,2020-0188,2021-10-14,06:51:36,07:57:04,NA,incomplete,false,true,NA,5,29,NA,yellow,n_l_044.jpg,NA,NA,pleasant,unpleasant,NA,NA,NA,NA,NA,left,1504.60000002384,true,NA,NA,NA,NA,NA
BWkSLKcb,32k26u12eq14p7ktnmss8y5zd9bdv8,3lotdfnyabcgp0wov4xg7knqyd3fwy,BWkSLKcb,2020-0188,2021-10-14,06:51:36,07:57:04,NA,incomplete,false,true,NA,5,30,NA,brown,m_s_047.jpg,NA,NA,unpleasant,pleasant,NA,NA,NA,NA,NA,right,1357.09999996424,true,NA,NA,NA,NA,NA
BWkSLKcb,32k26u12eq14p7ktnmss8y5zd9bdv8,3lotdfnyabcgp0wov4xg7knqyd3fwy,BWkSLKcb,2020-0188,2021-10-14,06:51:36,07:57:04,NA,incomplete,false,true,NA,5,31,NA,brown,n_s_020.jpg,NA,NA,unpleasant,pleasant,NA,NA,NA,NA,NA,right,1543.69999998808,true,NA,NA,NA,NA,NA
BWkSLKcb,32k26u12eq14p7ktnmss8y5zd9bdv8,3lotdfnyabcgp0wov4xg7knqyd3fwy,BWkSLKcb,2020-0188,2021-10-14,06:51:36,07:57:04,NA,incomplete,false,true,NA,5,32,NA,brown,m_s_085.jpg,NA,NA,pleasant,unpleasant,NA,NA,NA,NA,NA,left,1474,true,NA,NA,NA,NA,NA
BWkSLKcb,32k26u12eq14p7ktnmss8y5zd9bdv8,3lotdfnyabcgp0wov4xg7knqyd3fwy,BWkSLKcb,2020-0188,2021-10-14,06:51:36,07:57:04,NA,incomplete,false,true,NA,5,33,NA,brown,m_s_090.jpg,NA,NA,pleasant,unpleasant,NA,NA,NA,NA,NA,left,1706.80000001192,true,NA,NA,NA,NA,NA
BWkSLKcb,32k26u12eq14p7ktnmss8y5zd9bdv8,3lotdfnyabcgp0wov4xg7knqyd3fwy,BWkSLKcb,2020-0188,2021-10-14,06:51:36,07:57:04,NA,incomplete,false,true,NA,5,34,NA,brown,n_l_074.jpg,NA,NA,pleasant,unpleasant,NA,NA,NA,NA,NA,left,1512.60000002384,true,NA,NA,NA,NA,NA
BWkSLKcb,32k26u12eq14p7ktnmss8y5zd9bdv8,3lotdfnyabcgp0wov4xg7knqyd3fwy,BWkSLKcb,2020-0188,2021-10-14,06:51:36,07:57:04,NA,incomplete,false,true,NA,5,35,NA,brown,m_l_116.jpg,NA,NA,pleasant,unpleasant,NA,NA,NA,NA,NA,left,1150,true,NA,NA,NA,NA,NA
BWkSLKcb,32k26u12eq14p7ktnmss8y5zd9bdv8,3lotdfnyabcgp0wov4xg7knqyd3fwy,BWkSLKcb,2020-0188,2021-10-14,06:51:36,07:57:04,NA,incomplete,false,NA,true,5,0,NA,NA,NA,right,absent,NA,NA,n_l_116.jpg,red,m_s_033.jpg,red,within,NA,NaN,NA,right,6922.100000023842,1,1,1364.800000011921
BWkSLKcb,32k26u12eq14p7ktnmss8y5zd9bdv8,3lotdfnyabcgp0wov4xg7knqyd3fwy,BWkSLKcb,2020-0188,2021-10-14,06:51:36,07:57:04,NA,incomplete,false,NA,true,5,1,NA,NA,NA,left,absent,NA,NA,m_s_014.jpg,gray,m_l_106.jpg,purple,between,NA,NaN,NA,right,3799.5,0,2,1970.9000000357628
BWkSLKcb,32k26u12eq14p7ktnmss8y5zd9bdv8,3lotdfnyabcgp0wov4xg7knqyd3fwy,BWkSLKcb,2020-0188,2021-10-14,06:51:36,07:57:04,NA,incomplete,false,NA,true,5,2,NA,NA,NA,left,absent,NA,NA,n_s_020.jpg,brown,m_l_116.jpg,brown,within,NA,NaN,NA,left,2019,1,2,1350.800000011921
BWkSLKcb,32k26u12eq14p7ktnmss8y5zd9bdv8,3lotdfnyabcgp0wov4xg7knqyd3fwy,BWkSLKcb,2020-0188,2021-10-14,06:51:36,07:57:04,NA,incomplete,false,NA,true,5,3,NA,NA,NA,left,absent,NA,NA,m_l_061.jpg,yellow,n_l_044.jpg,yellow,within,NA,NaN,NA,right,2358,0,2,1258.800000011921
BWkSLKcb,32k26u12eq14p7ktnmss8y5zd9bdv8,3lotdfnyabcgp0wov4xg7knqyd3fwy,BWkSLKcb,2020-0188,2021-10-14,06:51:36,07:57:04,NA,incomplete,false,NA,true,5,4,NA,NA,NA,left,absent,NA,NA,m_l_056.jpg,orange,n_l_043.jpg,red,between,NA,NaN,NA,left,3734.399999976158,1,2,1398.800000011921
BWkSLKcb,32k26u12eq14p7ktnmss8y5zd9bdv8,3lotdfnyabcgp0wov4xg7knqyd3fwy,BWkSLKcb,2020-0188,2021-10-14,06:51:36,07:57:04,NA,incomplete,false,NA,true,5,5,NA,NA,NA,left,absent,NA,NA,n_s_067.jpg,purple,m_l_008.jpg,purple,within,NA,NaN,NA,left,1937,1,2,1087.199999988079
BWkSLKcb,32k26u12eq14p7ktnmss8y5zd9bdv8,3lotdfnyabcgp0wov4xg7knqyd3fwy,BWkSLKcb,2020-0188,2021-10-14,06:51:36,07:57:04,NA,incomplete,false,NA,true,5,6,NA,NA,NA,right,absent,NA,NA,m_l_092.jpg,orange,m_l_059.jpg,orange,within,NA,NaN,NA,right,1906,1,1,1487.6000000238419
BWkSLKcb,32k26u12eq14p7ktnmss8y5zd9bdv8,3lotdfnyabcgp0wov4xg7knqyd3fwy,BWkSLKcb,2020-0188,2021-10-14,06:51:36,07:57:04,NA,incomplete,false,NA,true,5,7,NA,NA,NA,left,absent,NA,NA,m_l_055.jpg,yellow,m_s_085.jpg,brown,between,NA,NaN,NA,left,2089.5,1,1,1668
BWkSLKcb,32k26u12eq14p7ktnmss8y5zd9bdv8,3lotdfnyabcgp0wov4xg7knqyd3fwy,BWkSLKcb,2020-0188,2021-10-14,06:51:36,07:57:04,NA,incomplete,false,NA,true,5,8,NA,NA,NA,right,absent,NA,NA,n_l_038.jpg,orange,n_l_034.jpg,purple,between,NA,NaN,NA,left,3835.399999976158,0,2,1438.5
BWkSLKcb,32k26u12eq14p7ktnmss8y5zd9bdv8,3lotdfnyabcgp0wov4xg7knqyd3fwy,BWkSLKcb,2020-0188,2021-10-14,06:51:36,07:57:04,NA,incomplete,false,NA,true,5,9,NA,NA,NA,right,absent,NA,NA,n_s_097.jpg,yellow,n_s_039.jpg,red,between,NA,NaN,NA,left,2080.599999964237,0,1,1730
BWkSLKcb,32k26u12eq14p7ktnmss8y5zd9bdv8,3lotdfnyabcgp0wov4xg7knqyd3fwy,BWkSLKcb,2020-0188,2021-10-14,06:51:36,07:57:04,NA,incomplete,false,NA,true,5,10,NA,NA,NA,right,absent,NA,NA,m_s_034.jpg,gray,n_s_103.jpg,gray,within,NA,NaN,NA,right,2167.7999999523163,1,1,3610.300000011921
BWkSLKcb,32k26u12eq14p7ktnmss8y5zd9bdv8,3lotdfnyabcgp0wov4xg7knqyd3fwy,BWkSLKcb,2020-0188,2021-10-14,06:51:36,07:57:04,NA,incomplete,false,true,NA,6,0,NA,gray,m_s_080.jpg,NA,NA,pleasant,unpleasant,NA,NA,NA,NA,NA,left,2292.30000001192,true,NA,NA,NA,NA,NA
BWkSLKcb,32k26u12eq14p7ktnmss8y5zd9bdv8,3lotdfnyabcgp0wov4xg7knqyd3fwy,BWkSLKcb,2020-0188,2021-10-14,06:51:36,07:57:04,NA,incomplete,false,true,NA,6,1,NA,gray,n_l_019.jpg,NA,NA,pleasant,unpleasant,NA,NA,NA,NA,NA,left,1552.5,true,NA,NA,NA,NA,NA
BWkSLKcb,32k26u12eq14p7ktnmss8y5zd9bdv8,3lotdfnyabcgp0wov4xg7knqyd3fwy,BWkSLKcb,2020-0188,2021-10-14,06:51:36,07:57:04,NA,incomplete,false,true,NA,6,2,NA,gray,n_s_019.jpg,NA,NA,pleasant,unpleasant,NA,NA,NA,NA,NA,left,1188.39999997616,true,NA,NA,NA,NA,NA
BWkSLKcb,32k26u12eq14p7ktnmss8y5zd9bdv8,3lotdfnyabcgp0wov4xg7knqyd3fwy,BWkSLKcb,2020-0188,2021-10-14,06:51:36,07:57:04,NA,incomplete,false,true,NA,6,3,NA,gray,m_s_093.jpg,NA,NA,unpleasant,pleasant,NA,NA,NA,NA,NA,right,1425.09999996424,true,NA,NA,NA,NA,NA
BWkSLKcb,32k26u12eq14p7ktnmss8y5zd9bdv8,3lotdfnyabcgp0wov4xg7knqyd3fwy,BWkSLKcb,2020-0188,2021-10-14,06:51:36,07:57:04,NA,incomplete,false,true,NA,6,4,NA,gray,m_s_116.jpg,NA,NA,pleasant,unpleasant,NA,NA,NA,NA,NA,left,1195.09999996424,true,NA,NA,NA,NA,NA
BWkSLKcb,32k26u12eq14p7ktnmss8y5zd9bdv8,3lotdfnyabcgp0wov4xg7knqyd3fwy,BWkSLKcb,2020-0188,2021-10-14,06:51:36,07:57:04,NA,incomplete,false,true,NA,6,5,NA,gray,m_s_096.jpg,NA,NA,unpleasant,pleasant,NA,NA,NA,NA,NA,right,1432.40000003576,true,NA,NA,NA,NA,NA
BWkSLKcb,32k26u12eq14p7ktnmss8y5zd9bdv8,3lotdfnyabcgp0wov4xg7knqyd3fwy,BWkSLKcb,2020-0188,2021-10-14,06:51:36,07:57:04,NA,incomplete,false,true,NA,6,6,NA,red,m_s_069.jpg,NA,NA,unpleasant,pleasant,NA,NA,NA,NA,NA,left,1629.40000003576,true,NA,NA,NA,NA,NA
BWkSLKcb,32k26u12eq14p7ktnmss8y5zd9bdv8,3lotdfnyabcgp0wov4xg7knqyd3fwy,BWkSLKcb,2020-0188,2021-10-14,06:51:36,07:57:04,NA,incomplete,false,true,NA,6,7,NA,red,n_l_102.jpg,NA,NA,unpleasant,pleasant,NA,NA,NA,NA,NA,left,1657.5,true,NA,NA,NA,NA,NA
BWkSLKcb,32k26u12eq14p7ktnmss8y5zd9bdv8,3lotdfnyabcgp0wov4xg7knqyd3fwy,BWkSLKcb,2020-0188,2021-10-14,06:51:36,07:57:04,NA,incomplete,false,true,NA,6,8,NA,red,m_s_008.jpg,NA,NA,unpleasant,pleasant,NA,NA,NA,NA,NA,left,1641.30000001192,true,NA,NA,NA,NA,NA
BWkSLKcb,32k26u12eq14p7ktnmss8y5zd9bdv8,3lotdfnyabcgp0wov4xg7knqyd3fwy,BWkSLKcb,2020-0188,2021-10-14,06:51:36,07:57:04,NA,incomplete,false,true,NA,6,9,NA,red,m_l_087.jpg,NA,NA,pleasant,unpleasant,NA,NA,NA,NA,NA,right,2316.29999995232,true,NA,NA,NA,NA,NA
BWkSLKcb,32k26u12eq14p7ktnmss8y5zd9bdv8,3lotdfnyabcgp0wov4xg7knqyd3fwy,BWkSLKcb,2020-0188,2021-10-14,06:51:36,07:57:04,NA,incomplete,false,true,NA,6,10,NA,red,n_l_014.jpg,NA,NA,unpleasant,pleasant,NA,NA,NA,NA,NA,right,1737.59999996424,true,NA,NA,NA,NA,NA
BWkSLKcb,32k26u12eq14p7ktnmss8y5zd9bdv8,3lotdfnyabcgp0wov4xg7knqyd3fwy,BWkSLKcb,2020-0188,2021-10-14,06:51:36,07:57:04,NA,incomplete,false,true,NA,6,11,NA,red,m_s_103.jpg,NA,NA,pleasant,unpleasant,NA,NA,NA,NA,NA,left,1539.79999995232,true,NA,NA,NA,NA,NA
BWkSLKcb,32k26u12eq14p7ktnmss8y5zd9bdv8,3lotdfnyabcgp0wov4xg7knqyd3fwy,BWkSLKcb,2020-0188,2021-10-14,06:51:36,07:57:04,NA,incomplete,false,true,NA,6,12,NA,white,n_s_029.jpg,NA,NA,unpleasant,pleasant,NA,NA,NA,NA,NA,right,1300,true,NA,NA,NA,NA,NA
BWkSLKcb,32k26u12eq14p7ktnmss8y5zd9bdv8,3lotdfnyabcgp0wov4xg7knqyd3fwy,BWkSLKcb,2020-0188,2021-10-14,06:51:36,07:57:04,NA,incomplete,false,true,NA,6,13,NA,white,m_l_108.jpg,NA,NA,pleasant,unpleasant,NA,NA,NA,NA,NA,left,1289,true,NA,NA,NA,NA,NA
BWkSLKcb,32k26u12eq14p7ktnmss8y5zd9bdv8,3lotdfnyabcgp0wov4xg7knqyd3fwy,BWkSLKcb,2020-0188,2021-10-14,06:51:36,07:57:04,NA,incomplete,false,true,NA,6,14,NA,white,n_s_035.jpg,NA,NA,unpleasant,pleasant,NA,NA,NA,NA,NA,right,1459,true,NA,NA,NA,NA,NA
BWkSLKcb,32k26u12eq14p7ktnmss8y5zd9bdv8,3lotdfnyabcgp0wov4xg7knqyd3fwy,BWkSLKcb,2020-0188,2021-10-14,06:51:36,07:57:04,NA,incomplete,false,true,NA,6,15,NA,white,m_l_073.jpg,NA,NA,pleasant,unpleasant,NA,NA,NA,NA,NA,left,1383.69999998808,true,NA,NA,NA,NA,NA
BWkSLKcb,32k26u12eq14p7ktnmss8y5zd9bdv8,3lotdfnyabcgp0wov4xg7knqyd3fwy,BWkSLKcb,2020-0188,2021-10-14,06:51:36,07:57:04,NA,incomplete,false,true,NA,6,16,NA,white,m_l_035.jpg,NA,NA,unpleasant,pleasant,NA,NA,NA,NA,NA,right,1176.90000003576,true,NA,NA,NA,NA,NA
BWkSLKcb,32k26u12eq14p7ktnmss8y5zd9bdv8,3lotdfnyabcgp0wov4xg7knqyd3fwy,BWkSLKcb,2020-0188,2021-10-14,06:51:36,07:57:04,NA,incomplete,false,true,NA,6,17,NA,white,m_s_060.jpg,NA,NA,unpleasant,pleasant,NA,NA,NA,NA,NA,right,2052,true,NA,NA,NA,NA,NA
BWkSLKcb,32k26u12eq14p7ktnmss8y5zd9bdv8,3lotdfnyabcgp0wov4xg7knqyd3fwy,BWkSLKcb,2020-0188,2021-10-14,06:51:36,07:57:04,NA,incomplete,false,true,NA,6,18,NA,orange,n_s_068.jpg,NA,NA,pleasant,unpleasant,NA,NA,NA,NA,NA,right,1809.30000001192,true,NA,NA,NA,NA,NA
BWkSLKcb,32k26u12eq14p7ktnmss8y5zd9bdv8,3lotdfnyabcgp0wov4xg7knqyd3fwy,BWkSLKcb,2020-0188,2021-10-14,06:51:36,07:57:04,NA,incomplete,false,true,NA,6,19,NA,orange,n_l_008.jpg,NA,NA,unpleasant,pleasant,NA,NA,NA,NA,NA,left,2032.89999997616,true,NA,NA,NA,NA,NA
BWkSLKcb,32k26u12eq14p7ktnmss8y5zd9bdv8,3lotdfnyabcgp0wov4xg7knqyd3fwy,BWkSLKcb,2020-0188,2021-10-14,06:51:36,07:57:04,NA,incomplete,false,true,NA,6,20,NA,orange,m_s_113.jpg,NA,NA,pleasant,unpleasant,NA,NA,NA,NA,NA,right,1538.10000002384,true,NA,NA,NA,NA,NA
BWkSLKcb,32k26u12eq14p7ktnmss8y5zd9bdv8,3lotdfnyabcgp0wov4xg7knqyd3fwy,BWkSLKcb,2020-0188,2021-10-14,06:51:36,07:57:04,NA,incomplete,false,true,NA,6,21,NA,orange,m_l_098.jpg,NA,NA,pleasant,unpleasant,NA,NA,NA,NA,NA,left,1766,true,NA,NA,NA,NA,NA
BWkSLKcb,32k26u12eq14p7ktnmss8y5zd9bdv8,3lotdfnyabcgp0wov4xg7knqyd3fwy,BWkSLKcb,2020-0188,2021-10-14,06:51:36,07:57:04,NA,incomplete,false,true,NA,6,22,NA,orange,m_s_099.jpg,NA,NA,unpleasant,pleasant,NA,NA,NA,NA,NA,right,1755.80000001192,true,NA,NA,NA,NA,NA
BWkSLKcb,32k26u12eq14p7ktnmss8y5zd9bdv8,3lotdfnyabcgp0wov4xg7knqyd3fwy,BWkSLKcb,2020-0188,2021-10-14,06:51:36,07:57:04,NA,incomplete,false,true,NA,6,23,NA,orange,m_l_049.jpg,NA,NA,unpleasant,pleasant,NA,NA,NA,NA,NA,left,1906.69999998808,true,NA,NA,NA,NA,NA
BWkSLKcb,32k26u12eq14p7ktnmss8y5zd9bdv8,3lotdfnyabcgp0wov4xg7knqyd3fwy,BWkSLKcb,2020-0188,2021-10-14,06:51:36,07:57:04,NA,incomplete,false,true,NA,6,24,NA,black,n_l_099.jpg,NA,NA,pleasant,unpleasant,NA,NA,NA,NA,NA,left,1668.79999995232,true,NA,NA,NA,NA,NA
BWkSLKcb,32k26u12eq14p7ktnmss8y5zd9bdv8,3lotdfnyabcgp0wov4xg7knqyd3fwy,BWkSLKcb,2020-0188,2021-10-14,06:51:36,07:57:04,NA,incomplete,false,true,NA,6,25,NA,black,m_l_105.jpg,NA,NA,pleasant,unpleasant,NA,NA,NA,NA,NA,left,1658.69999998808,true,NA,NA,NA,NA,NA
BWkSLKcb,32k26u12eq14p7ktnmss8y5zd9bdv8,3lotdfnyabcgp0wov4xg7knqyd3fwy,BWkSLKcb,2020-0188,2021-10-14,06:51:36,07:57:04,NA,incomplete,false,true,NA,6,26,NA,black,m_s_115.jpg,NA,NA,pleasant,unpleasant,NA,NA,NA,NA,NA,left,1629.59999996424,true,NA,NA,NA,NA,NA
BWkSLKcb,32k26u12eq14p7ktnmss8y5zd9bdv8,3lotdfnyabcgp0wov4xg7knqyd3fwy,BWkSLKcb,2020-0188,2021-10-14,06:51:36,07:57:04,NA,incomplete,false,true,NA,6,27,NA,black,m_s_058.jpg,NA,NA,pleasant,unpleasant,NA,NA,NA,NA,NA,left,1562.40000003576,true,NA,NA,NA,NA,NA
BWkSLKcb,32k26u12eq14p7ktnmss8y5zd9bdv8,3lotdfnyabcgp0wov4xg7knqyd3fwy,BWkSLKcb,2020-0188,2021-10-14,06:51:36,07:57:04,NA,incomplete,false,true,NA,6,28,NA,black,n_s_053.jpg,NA,NA,unpleasant,pleasant,NA,NA,NA,NA,NA,right,1660.89999997616,true,NA,NA,NA,NA,NA
BWkSLKcb,32k26u12eq14p7ktnmss8y5zd9bdv8,3lotdfnyabcgp0wov4xg7knqyd3fwy,BWkSLKcb,2020-0188,2021-10-14,06:51:36,07:57:04,NA,incomplete,false,true,NA,6,29,NA,black,n_l_115.jpg,NA,NA,unpleasant,pleasant,NA,NA,NA,NA,NA,right,1831.40000003576,true,NA,NA,NA,NA,NA
BWkSLKcb,32k26u12eq14p7ktnmss8y5zd9bdv8,3lotdfnyabcgp0wov4xg7knqyd3fwy,BWkSLKcb,2020-0188,2021-10-14,06:51:36,07:57:04,NA,incomplete,false,true,NA,6,30,NA,purple,n_l_103.jpg,NA,NA,pleasant,unpleasant,NA,NA,NA,NA,NA,right,2098.30000001192,true,NA,NA,NA,NA,NA
BWkSLKcb,32k26u12eq14p7ktnmss8y5zd9bdv8,3lotdfnyabcgp0wov4xg7knqyd3fwy,BWkSLKcb,2020-0188,2021-10-14,06:51:36,07:57:04,NA,incomplete,false,true,NA,6,31,NA,purple,m_l_083.jpg,NA,NA,unpleasant,pleasant,NA,NA,NA,NA,NA,left,1810.5,true,NA,NA,NA,NA,NA
BWkSLKcb,32k26u12eq14p7ktnmss8y5zd9bdv8,3lotdfnyabcgp0wov4xg7knqyd3fwy,BWkSLKcb,2020-0188,2021-10-14,06:51:36,07:57:04,NA,incomplete,false,true,NA,6,32,NA,purple,m_l_037.jpg,NA,NA,pleasant,unpleasant,NA,NA,NA,NA,NA,right,2009.60000002384,true,NA,NA,NA,NA,NA
BWkSLKcb,32k26u12eq14p7ktnmss8y5zd9bdv8,3lotdfnyabcgp0wov4xg7knqyd3fwy,BWkSLKcb,2020-0188,2021-10-14,06:51:36,07:57:04,NA,incomplete,false,true,NA,6,33,NA,purple,m_s_046.jpg,NA,NA,pleasant,unpleasant,NA,NA,NA,NA,NA,right,1567.60000002384,true,NA,NA,NA,NA,NA
BWkSLKcb,32k26u12eq14p7ktnmss8y5zd9bdv8,3lotdfnyabcgp0wov4xg7knqyd3fwy,BWkSLKcb,2020-0188,2021-10-14,06:51:36,07:57:04,NA,incomplete,false,true,NA,6,34,NA,purple,n_l_079.jpg,NA,NA,pleasant,unpleasant,NA,NA,NA,NA,NA,none,0,false,NA,NA,NA,NA,NA
BWkSLKcb,32k26u12eq14p7ktnmss8y5zd9bdv8,3lotdfnyabcgp0wov4xg7knqyd3fwy,BWkSLKcb,2020-0188,2021-10-14,06:51:36,07:57:04,NA,incomplete,false,true,NA,6,35,NA,purple,m_s_022.jpg,NA,NA,pleasant,unpleasant,NA,NA,NA,NA,NA,right,3202.10000002384,true,NA,NA,NA,NA,NA
BWkSLKcb,32k26u12eq14p7ktnmss8y5zd9bdv8,3lotdfnyabcgp0wov4xg7knqyd3fwy,BWkSLKcb,2020-0188,2021-10-14,06:51:36,07:57:04,NA,incomplete,false,NA,true,6,0,NA,NA,NA,right,absent,NA,NA,m_s_096.jpg,gray,n_l_019.jpg,gray,within,NA,NaN,NA,right,3046.800000011921,1,2,1308.800000011921
BWkSLKcb,32k26u12eq14p7ktnmss8y5zd9bdv8,3lotdfnyabcgp0wov4xg7knqyd3fwy,BWkSLKcb,2020-0188,2021-10-14,06:51:36,07:57:04,NA,incomplete,false,NA,true,6,1,NA,NA,NA,right,absent,NA,NA,n_s_035.jpg,white,n_l_014.jpg,red,between,NA,NaN,NA,right,2236.199999988079,1,1,1189.199999988079
BWkSLKcb,32k26u12eq14p7ktnmss8y5zd9bdv8,3lotdfnyabcgp0wov4xg7knqyd3fwy,BWkSLKcb,2020-0188,2021-10-14,06:51:36,07:57:04,NA,incomplete,false,NA,true,6,2,NA,NA,NA,left,absent,NA,NA,n_l_102.jpg,red,m_s_103.jpg,red,within,NA,NaN,NA,right,2888.699999988079,0,2,985
BWkSLKcb,32k26u12eq14p7ktnmss8y5zd9bdv8,3lotdfnyabcgp0wov4xg7knqyd3fwy,BWkSLKcb,2020-0188,2021-10-14,06:51:36,07:57:04,NA,incomplete,false,NA,true,6,3,NA,NA,NA,right,absent,NA,NA,m_s_008.jpg,red,m_s_116.jpg,gray,between,NA,NaN,NA,left,1737.5,0,2,1404.3999999761581
BWkSLKcb,32k26u12eq14p7ktnmss8y5zd9bdv8,3lotdfnyabcgp0wov4xg7knqyd3fwy,BWkSLKcb,2020-0188,2021-10-14,06:51:36,07:57:04,NA,incomplete,false,NA,true,6,4,NA,NA,NA,left,absent,NA,NA,n_s_053.jpg,black,m_l_037.jpg,purple,between,NA,NaN,NA,right,2301.099999964237,0,2,1130.8999999761581
BWkSLKcb,32k26u12eq14p7ktnmss8y5zd9bdv8,3lotdfnyabcgp0wov4xg7knqyd3fwy,BWkSLKcb,2020-0188,2021-10-14,06:51:36,07:57:04,NA,incomplete,false,NA,true,6,5,NA,NA,NA,left,absent,NA,NA,m_l_035.jpg,white,m_s_113.jpg,orange,between,NA,NaN,NA,left,4318,1,1,1746.199999988079
BWkSLKcb,32k26u12eq14p7ktnmss8y5zd9bdv8,3lotdfnyabcgp0wov4xg7knqyd3fwy,BWkSLKcb,2020-0188,2021-10-14,06:51:36,07:57:04,NA,incomplete,false,NA,true,6,6,NA,NA,NA,left,absent,NA,NA,n_l_008.jpg,orange,m_l_049.jpg,orange,within,NA,NaN,NA,left,2628.899999976158,1,2,1451
BWkSLKcb,32k26u12eq14p7ktnmss8y5zd9bdv8,3lotdfnyabcgp0wov4xg7knqyd3fwy,BWkSLKcb,2020-0188,2021-10-14,06:51:36,07:57:04,NA,incomplete,false,NA,true,6,7,NA,NA,NA,left,absent,NA,NA,m_l_108.jpg,white,m_s_060.jpg,white,within,NA,NaN,NA,right,2192.899999976158,0,2,1391
BWkSLKcb,32k26u12eq14p7ktnmss8y5zd9bdv8,3lotdfnyabcgp0wov4xg7knqyd3fwy,BWkSLKcb,2020-0188,2021-10-14,06:51:36,07:57:04,NA,incomplete,false,NA,true,6,8,NA,NA,NA,right,absent,NA,NA,m_s_022.jpg,purple,m_l_083.jpg,purple,within,NA,NaN,NA,right,1855.5,1,2,1666.6000000238419
BWkSLKcb,32k26u12eq14p7ktnmss8y5zd9bdv8,3lotdfnyabcgp0wov4xg7knqyd3fwy,BWkSLKcb,2020-0188,2021-10-14,06:51:36,07:57:04,NA,incomplete,false,NA,true,6,9,NA,NA,NA,right,absent,NA,NA,n_l_115.jpg,black,m_l_105.jpg,black,within,NA,NaN,NA,left,1939.1000000238419,0,1,1682.699999988079
BWkSLKcb,32k26u12eq14p7ktnmss8y5zd9bdv8,3lotdfnyabcgp0wov4xg7knqyd3fwy,BWkSLKcb,2020-0188,2021-10-14,06:51:36,07:57:04,NA,incomplete,false,NA,true,6,10,NA,NA,NA,left,absent,NA,NA,m_s_099.jpg,orange,m_s_115.jpg,black,between,NA,NaN,NA,left,2515.100000023842,1,1,1181.300000011921
BWkSLKcb,32k26u12eq14p7ktnmss8y5zd9bdv8,3lotdfnyabcgp0wov4xg7knqyd3fwy,BWkSLKcb,2020-0188,2021-10-14,06:51:36,07:57:04,NA,incomplete,false,true,NA,7,0,NA,yellow,m_l_075.jpg,NA,NA,unpleasant,pleasant,NA,NA,NA,NA,NA,left,2338.5,true,NA,NA,NA,NA,NA
BWkSLKcb,32k26u12eq14p7ktnmss8y5zd9bdv8,3lotdfnyabcgp0wov4xg7knqyd3fwy,BWkSLKcb,2020-0188,2021-10-14,06:51:36,07:57:04,NA,incomplete,false,true,NA,7,1,NA,yellow,n_s_069.jpg,NA,NA,pleasant,unpleasant,NA,NA,NA,NA,NA,right,2581.89999997616,true,NA,NA,NA,NA,NA
BWkSLKcb,32k26u12eq14p7ktnmss8y5zd9bdv8,3lotdfnyabcgp0wov4xg7knqyd3fwy,BWkSLKcb,2020-0188,2021-10-14,06:51:36,07:57:04,NA,incomplete,false,true,NA,7,2,NA,yellow,n_s_045.jpg,NA,NA,unpleasant,pleasant,NA,NA,NA,NA,NA,left,1840.60000002384,true,NA,NA,NA,NA,NA
BWkSLKcb,32k26u12eq14p7ktnmss8y5zd9bdv8,3lotdfnyabcgp0wov4xg7knqyd3fwy,BWkSLKcb,2020-0188,2021-10-14,06:51:36,07:57:04,NA,incomplete,false,true,NA,7,3,NA,yellow,m_s_005.jpg,NA,NA,unpleasant,pleasant,NA,NA,NA,NA,NA,right,1834.89999997616,true,NA,NA,NA,NA,NA
BWkSLKcb,32k26u12eq14p7ktnmss8y5zd9bdv8,3lotdfnyabcgp0wov4xg7knqyd3fwy,BWkSLKcb,2020-0188,2021-10-14,06:51:36,07:57:04,NA,incomplete,false,true,NA,7,4,NA,yellow,m_s_026.jpg,NA,NA,unpleasant,pleasant,NA,NA,NA,NA,NA,right,1240,true,NA,NA,NA,NA,NA
BWkSLKcb,32k26u12eq14p7ktnmss8y5zd9bdv8,3lotdfnyabcgp0wov4xg7knqyd3fwy,BWkSLKcb,2020-0188,2021-10-14,06:51:36,07:57:04,NA,incomplete,false,true,NA,7,5,NA,yellow,m_l_052.jpg,NA,NA,pleasant,unpleasant,NA,NA,NA,NA,NA,left,1589.40000003576,true,NA,NA,NA,NA,NA
BWkSLKcb,32k26u12eq14p7ktnmss8y5zd9bdv8,3lotdfnyabcgp0wov4xg7knqyd3fwy,BWkSLKcb,2020-0188,2021-10-14,06:51:36,07:57:04,NA,incomplete,false,true,NA,7,6,NA,white,m_s_016.jpg,NA,NA,pleasant,unpleasant,NA,NA,NA,NA,NA,left,1398,true,NA,NA,NA,NA,NA
BWkSLKcb,32k26u12eq14p7ktnmss8y5zd9bdv8,3lotdfnyabcgp0wov4xg7knqyd3fwy,BWkSLKcb,2020-0188,2021-10-14,06:51:36,07:57:04,NA,incomplete,false,true,NA,7,7,NA,white,m_s_097.jpg,NA,NA,pleasant,unpleasant,NA,NA,NA,NA,NA,left,1093.59999996424,true,NA,NA,NA,NA,NA
BWkSLKcb,32k26u12eq14p7ktnmss8y5zd9bdv8,3lotdfnyabcgp0wov4xg7knqyd3fwy,BWkSLKcb,2020-0188,2021-10-14,06:51:36,07:57:04,NA,incomplete,false,true,NA,7,8,NA,white,n_l_117.jpg,NA,NA,unpleasant,pleasant,NA,NA,NA,NA,NA,right,1362,true,NA,NA,NA,NA,NA
BWkSLKcb,32k26u12eq14p7ktnmss8y5zd9bdv8,3lotdfnyabcgp0wov4xg7knqyd3fwy,BWkSLKcb,2020-0188,2021-10-14,06:51:36,07:57:04,NA,incomplete,false,true,NA,7,9,NA,white,m_s_051.jpg,NA,NA,unpleasant,pleasant,NA,NA,NA,NA,NA,right,1343,true,NA,NA,NA,NA,NA
BWkSLKcb,32k26u12eq14p7ktnmss8y5zd9bdv8,3lotdfnyabcgp0wov4xg7knqyd3fwy,BWkSLKcb,2020-0188,2021-10-14,06:51:36,07:57:04,NA,incomplete,false,true,NA,7,10,NA,white,n_s_076.jpg,NA,NA,unpleasant,pleasant,NA,NA,NA,NA,NA,right,1064.10000002384,true,NA,NA,NA,NA,NA
BWkSLKcb,32k26u12eq14p7ktnmss8y5zd9bdv8,3lotdfnyabcgp0wov4xg7knqyd3fwy,BWkSLKcb,2020-0188,2021-10-14,06:51:36,07:57:04,NA,incomplete,false,true,NA,7,11,NA,white,m_s_101.jpg,NA,NA,unpleasant,pleasant,NA,NA,NA,NA,NA,right,1100.80000001192,true,NA,NA,NA,NA,NA
BWkSLKcb,32k26u12eq14p7ktnmss8y5zd9bdv8,3lotdfnyabcgp0wov4xg7knqyd3fwy,BWkSLKcb,2020-0188,2021-10-14,06:51:36,07:57:04,NA,incomplete,false,true,NA,7,12,NA,purple,n_l_096.jpg,NA,NA,unpleasant,pleasant,NA,NA,NA,NA,NA,left,1424.39999997616,true,NA,NA,NA,NA,NA
BWkSLKcb,32k26u12eq14p7ktnmss8y5zd9bdv8,3lotdfnyabcgp0wov4xg7knqyd3fwy,BWkSLKcb,2020-0188,2021-10-14,06:51:36,07:57:04,NA,incomplete,false,true,NA,7,13,NA,purple,m_l_074.jpg,NA,NA,unpleasant,pleasant,NA,NA,NA,NA,NA,left,1255.40000003576,true,NA,NA,NA,NA,NA
BWkSLKcb,32k26u12eq14p7ktnmss8y5zd9bdv8,3lotdfnyabcgp0wov4xg7knqyd3fwy,BWkSLKcb,2020-0188,2021-10-14,06:51:36,07:57:04,NA,incomplete,false,true,NA,7,14,NA,purple,m_s_035.jpg,NA,NA,unpleasant,pleasant,NA,NA,NA,NA,NA,left,1369.69999998808,true,NA,NA,NA,NA,NA
BWkSLKcb,32k26u12eq14p7ktnmss8y5zd9bdv8,3lotdfnyabcgp0wov4xg7knqyd3fwy,BWkSLKcb,2020-0188,2021-10-14,06:51:36,07:57:04,NA,incomplete,false,true,NA,7,15,NA,purple,n_s_087.jpg,NA,NA,unpleasant,pleasant,NA,NA,NA,NA,NA,right,1610.40000003576,true,NA,NA,NA,NA,NA
BWkSLKcb,32k26u12eq14p7ktnmss8y5zd9bdv8,3lotdfnyabcgp0wov4xg7knqyd3fwy,BWkSLKcb,2020-0188,2021-10-14,06:51:36,07:57:04,NA,incomplete,false,true,NA,7,16,NA,purple,n_l_040.jpg,NA,NA,unpleasant,pleasant,NA,NA,NA,NA,NA,right,1297.09999996424,true,NA,NA,NA,NA,NA
BWkSLKcb,32k26u12eq14p7ktnmss8y5zd9bdv8,3lotdfnyabcgp0wov4xg7knqyd3fwy,BWkSLKcb,2020-0188,2021-10-14,06:51:36,07:57:04,NA,incomplete,false,true,NA,7,17,NA,purple,m_s_110.jpg,NA,NA,pleasant,unpleasant,NA,NA,NA,NA,NA,right,1919.59999996424,true,NA,NA,NA,NA,NA
BWkSLKcb,32k26u12eq14p7ktnmss8y5zd9bdv8,3lotdfnyabcgp0wov4xg7knqyd3fwy,BWkSLKcb,2020-0188,2021-10-14,06:51:36,07:57:04,NA,incomplete,false,true,NA,7,18,NA,green,n_l_085.jpg,NA,NA,pleasant,unpleasant,NA,NA,NA,NA,NA,right,1884.09999996424,true,NA,NA,NA,NA,NA
BWkSLKcb,32k26u12eq14p7ktnmss8y5zd9bdv8,3lotdfnyabcgp0wov4xg7knqyd3fwy,BWkSLKcb,2020-0188,2021-10-14,06:51:36,07:57:04,NA,incomplete,false,true,NA,7,19,NA,green,n_s_056.jpg,NA,NA,pleasant,unpleasant,NA,NA,NA,NA,NA,left,1491.39999997616,true,NA,NA,NA,NA,NA
BWkSLKcb,32k26u12eq14p7ktnmss8y5zd9bdv8,3lotdfnyabcgp0wov4xg7knqyd3fwy,BWkSLKcb,2020-0188,2021-10-14,06:51:36,07:57:04,NA,incomplete,false,true,NA,7,20,NA,green,n_s_081.jpg,NA,NA,pleasant,unpleasant,NA,NA,NA,NA,NA,left,1989.59999996424,true,NA,NA,NA,NA,NA
BWkSLKcb,32k26u12eq14p7ktnmss8y5zd9bdv8,3lotdfnyabcgp0wov4xg7knqyd3fwy,BWkSLKcb,2020-0188,2021-10-14,06:51:36,07:57:04,NA,incomplete,false,true,NA,7,21,NA,green,n_s_082.jpg,NA,NA,unpleasant,pleasant,NA,NA,NA,NA,NA,left,2100.40000003576,true,NA,NA,NA,NA,NA
BWkSLKcb,32k26u12eq14p7ktnmss8y5zd9bdv8,3lotdfnyabcgp0wov4xg7knqyd3fwy,BWkSLKcb,2020-0188,2021-10-14,06:51:36,07:57:04,NA,incomplete,false,true,NA,7,22,NA,green,n_l_089.jpg,NA,NA,unpleasant,pleasant,NA,NA,NA,NA,NA,right,2142.59999996424,true,NA,NA,NA,NA,NA
BWkSLKcb,32k26u12eq14p7ktnmss8y5zd9bdv8,3lotdfnyabcgp0wov4xg7knqyd3fwy,BWkSLKcb,2020-0188,2021-10-14,06:51:36,07:57:04,NA,incomplete,false,true,NA,7,23,NA,green,n_s_032.jpg,NA,NA,pleasant,unpleasant,NA,NA,NA,NA,NA,left,2185.69999998808,true,NA,NA,NA,NA,NA
BWkSLKcb,32k26u12eq14p7ktnmss8y5zd9bdv8,3lotdfnyabcgp0wov4xg7knqyd3fwy,BWkSLKcb,2020-0188,2021-10-14,06:51:36,07:57:04,NA,incomplete,false,true,NA,7,24,NA,orange,n_l_048.jpg,NA,NA,unpleasant,pleasant,NA,NA,NA,NA,NA,left,1881.80000001192,true,NA,NA,NA,NA,NA
BWkSLKcb,32k26u12eq14p7ktnmss8y5zd9bdv8,3lotdfnyabcgp0wov4xg7knqyd3fwy,BWkSLKcb,2020-0188,2021-10-14,06:51:36,07:57:04,NA,incomplete,false,true,NA,7,25,NA,orange,n_l_071.jpg,NA,NA,pleasant,unpleasant,NA,NA,NA,NA,NA,right,1723.70000004768,true,NA,NA,NA,NA,NA
BWkSLKcb,32k26u12eq14p7ktnmss8y5zd9bdv8,3lotdfnyabcgp0wov4xg7knqyd3fwy,BWkSLKcb,2020-0188,2021-10-14,06:51:36,07:57:04,NA,incomplete,false,true,NA,7,26,NA,orange,m_l_094.jpg,NA,NA,unpleasant,pleasant,NA,NA,NA,NA,NA,left,1896.69999998808,true,NA,NA,NA,NA,NA
BWkSLKcb,32k26u12eq14p7ktnmss8y5zd9bdv8,3lotdfnyabcgp0wov4xg7knqyd3fwy,BWkSLKcb,2020-0188,2021-10-14,06:51:36,07:57:04,NA,incomplete,false,true,NA,7,27,NA,orange,n_s_048.jpg,NA,NA,pleasant,unpleasant,NA,NA,NA,NA,NA,right,1753.39999997616,true,NA,NA,NA,NA,NA
BWkSLKcb,32k26u12eq14p7ktnmss8y5zd9bdv8,3lotdfnyabcgp0wov4xg7knqyd3fwy,BWkSLKcb,2020-0188,2021-10-14,06:51:36,07:57:04,NA,incomplete,false,true,NA,7,28,NA,orange,n_l_101.jpg,NA,NA,pleasant,unpleasant,NA,NA,NA,NA,NA,right,1528.20000004768,true,NA,NA,NA,NA,NA
BWkSLKcb,32k26u12eq14p7ktnmss8y5zd9bdv8,3lotdfnyabcgp0wov4xg7knqyd3fwy,BWkSLKcb,2020-0188,2021-10-14,06:51:36,07:57:04,NA,incomplete,false,true,NA,7,29,NA,orange,n_s_106.jpg,NA,NA,pleasant,unpleasant,NA,NA,NA,NA,NA,right,1429,true,NA,NA,NA,NA,NA
BWkSLKcb,32k26u12eq14p7ktnmss8y5zd9bdv8,3lotdfnyabcgp0wov4xg7knqyd3fwy,BWkSLKcb,2020-0188,2021-10-14,06:51:36,07:57:04,NA,incomplete,false,true,NA,7,30,NA,gray,n_s_102.jpg,NA,NA,pleasant,unpleasant,NA,NA,NA,NA,NA,left,1559.69999998808,true,NA,NA,NA,NA,NA
BWkSLKcb,32k26u12eq14p7ktnmss8y5zd9bdv8,3lotdfnyabcgp0wov4xg7knqyd3fwy,BWkSLKcb,2020-0188,2021-10-14,06:51:36,07:57:04,NA,incomplete,false,true,NA,7,31,NA,gray,m_l_062.jpg,NA,NA,unpleasant,pleasant,NA,NA,NA,NA,NA,right,1314.5,true,NA,NA,NA,NA,NA
BWkSLKcb,32k26u12eq14p7ktnmss8y5zd9bdv8,3lotdfnyabcgp0wov4xg7knqyd3fwy,BWkSLKcb,2020-0188,2021-10-14,06:51:36,07:57:04,NA,incomplete,false,true,NA,7,32,NA,gray,n_s_018.jpg,NA,NA,unpleasant,pleasant,NA,NA,NA,NA,NA,right,1146,true,NA,NA,NA,NA,NA
BWkSLKcb,32k26u12eq14p7ktnmss8y5zd9bdv8,3lotdfnyabcgp0wov4xg7knqyd3fwy,BWkSLKcb,2020-0188,2021-10-14,06:51:36,07:57:04,NA,incomplete,false,true,NA,7,33,NA,gray,n_l_054.jpg,NA,NA,unpleasant,pleasant,NA,NA,NA,NA,NA,right,1155.39999997616,true,NA,NA,NA,NA,NA
BWkSLKcb,32k26u12eq14p7ktnmss8y5zd9bdv8,3lotdfnyabcgp0wov4xg7knqyd3fwy,BWkSLKcb,2020-0188,2021-10-14,06:51:36,07:57:04,NA,incomplete,false,true,NA,7,34,NA,gray,n_s_104.jpg,NA,NA,unpleasant,pleasant,NA,NA,NA,NA,NA,right,1147.69999998808,true,NA,NA,NA,NA,NA
BWkSLKcb,32k26u12eq14p7ktnmss8y5zd9bdv8,3lotdfnyabcgp0wov4xg7knqyd3fwy,BWkSLKcb,2020-0188,2021-10-14,06:51:36,07:57:04,NA,incomplete,false,true,NA,7,35,NA,gray,m_s_043.jpg,NA,NA,unpleasant,pleasant,NA,NA,NA,NA,NA,right,1211.60000002384,true,NA,NA,NA,NA,NA
BWkSLKcb,32k26u12eq14p7ktnmss8y5zd9bdv8,3lotdfnyabcgp0wov4xg7knqyd3fwy,BWkSLKcb,2020-0188,2021-10-14,06:51:36,07:57:04,NA,incomplete,false,NA,true,7,0,NA,NA,NA,right,absent,NA,NA,m_s_110.jpg,purple,m_l_074.jpg,purple,within,NA,NaN,NA,left,7247.299999952316,0,2,1392.8999999761581
BWkSLKcb,32k26u12eq14p7ktnmss8y5zd9bdv8,3lotdfnyabcgp0wov4xg7knqyd3fwy,BWkSLKcb,2020-0188,2021-10-14,06:51:36,07:57:04,NA,incomplete,false,NA,true,7,1,NA,NA,NA,left,absent,NA,NA,n_l_101.jpg,orange,n_s_018.jpg,gray,between,NA,NaN,NA,right,2519.2000000476837,0,2,2373.399999976158
BWkSLKcb,32k26u12eq14p7ktnmss8y5zd9bdv8,3lotdfnyabcgp0wov4xg7knqyd3fwy,BWkSLKcb,2020-0188,2021-10-14,06:51:36,07:57:04,NA,incomplete,false,NA,true,7,2,NA,NA,NA,left,absent,NA,NA,n_s_056.jpg,green,n_s_032.jpg,green,within,NA,NaN,NA,left,1996.199999988079,1,1,1278.699999988079
BWkSLKcb,32k26u12eq14p7ktnmss8y5zd9bdv8,3lotdfnyabcgp0wov4xg7knqyd3fwy,BWkSLKcb,2020-0188,2021-10-14,06:51:36,07:57:04,NA,incomplete,false,NA,true,7,3,NA,NA,NA,right,absent,NA,NA,m_s_035.jpg,purple,n_s_076.jpg,white,between,NA,NaN,NA,right,2985.600000023842,1,2,1343.5999999642372
BWkSLKcb,32k26u12eq14p7ktnmss8y5zd9bdv8,3lotdfnyabcgp0wov4xg7knqyd3fwy,BWkSLKcb,2020-0188,2021-10-14,06:51:36,07:57:04,NA,incomplete,false,NA,true,7,4,NA,NA,NA,left,absent,NA,NA,n_s_069.jpg,yellow,m_l_052.jpg,yellow,within,NA,NaN,NA,left,1849,1,2,3213.199999988079
BWkSLKcb,32k26u12eq14p7ktnmss8y5zd9bdv8,3lotdfnyabcgp0wov4xg7knqyd3fwy,BWkSLKcb,2020-0188,2021-10-14,06:51:36,07:57:04,NA,incomplete,false,NA,true,7,5,NA,NA,NA,right,absent,NA,NA,m_s_043.jpg,gray,m_l_062.jpg,gray,within,NA,NaN,NA,right,2222.199999988079,1,2,1469.6000000238419
BWkSLKcb,32k26u12eq14p7ktnmss8y5zd9bdv8,3lotdfnyabcgp0wov4xg7knqyd3fwy,BWkSLKcb,2020-0188,2021-10-14,06:51:36,07:57:04,NA,incomplete,false,NA,true,7,6,NA,NA,NA,right,absent,NA,NA,n_s_081.jpg,green,n_l_040.jpg,purple,between,NA,NaN,NA,left,2554.199999988079,0,1,1803.3999999761581
BWkSLKcb,32k26u12eq14p7ktnmss8y5zd9bdv8,3lotdfnyabcgp0wov4xg7knqyd3fwy,BWkSLKcb,2020-0188,2021-10-14,06:51:36,07:57:04,NA,incomplete,false,NA,true,7,7,NA,NA,NA,right,absent,NA,NA,m_l_094.jpg,orange,n_l_089.jpg,green,between,NA,NaN,NA,right,2457.300000011921,1,2,1292.300000011921
BWkSLKcb,32k26u12eq14p7ktnmss8y5zd9bdv8,3lotdfnyabcgp0wov4xg7knqyd3fwy,BWkSLKcb,2020-0188,2021-10-14,06:51:36,07:57:04,NA,incomplete,false,NA,true,7,8,NA,NA,NA,right,absent,NA,NA,n_l_117.jpg,white,m_s_026.jpg,yellow,between,NA,NaN,NA,left,2453.599999964237,0,2,1352.6000000238419
BWkSLKcb,32k26u12eq14p7ktnmss8y5zd9bdv8,3lotdfnyabcgp0wov4xg7knqyd3fwy,BWkSLKcb,2020-0188,2021-10-14,06:51:36,07:57:04,NA,incomplete,false,NA,true,7,9,NA,NA,NA,left,absent,NA,NA,n_l_071.jpg,orange,n_s_106.jpg,orange,within,NA,NaN,NA,right,2586.800000011921,0,1,1753.8999999761581
BWkSLKcb,32k26u12eq14p7ktnmss8y5zd9bdv8,3lotdfnyabcgp0wov4xg7knqyd3fwy,BWkSLKcb,2020-0188,2021-10-14,06:51:36,07:57:04,NA,incomplete,false,NA,true,7,10,NA,NA,NA,right,absent,NA,NA,m_s_101.jpg,white,m_s_097.jpg,white,within,NA,NaN,NA,left,4649.900000035763,0,2,1742.5999999642372
BWkSLKcb,32k26u12eq14p7ktnmss8y5zd9bdv8,3lotdfnyabcgp0wov4xg7knqyd3fwy,BWkSLKcb,2020-0188,2021-10-14,06:51:36,07:57:04,NA,incomplete,false,true,NA,8,0,NA,yellow,n_l_025.jpg,NA,NA,pleasant,unpleasant,NA,NA,NA,NA,NA,right,1802.5,true,NA,NA,NA,NA,NA
BWkSLKcb,32k26u12eq14p7ktnmss8y5zd9bdv8,3lotdfnyabcgp0wov4xg7knqyd3fwy,BWkSLKcb,2020-0188,2021-10-14,06:51:36,07:57:04,NA,incomplete,false,true,NA,8,1,NA,yellow,m_l_002.jpg,NA,NA,pleasant,unpleasant,NA,NA,NA,NA,NA,right,1485.30000001192,true,NA,NA,NA,NA,NA
BWkSLKcb,32k26u12eq14p7ktnmss8y5zd9bdv8,3lotdfnyabcgp0wov4xg7knqyd3fwy,BWkSLKcb,2020-0188,2021-10-14,06:51:36,07:57:04,NA,incomplete,false,true,NA,8,2,NA,yellow,m_s_071.jpg,NA,NA,pleasant,unpleasant,NA,NA,NA,NA,NA,right,1214.69999998808,true,NA,NA,NA,NA,NA
BWkSLKcb,32k26u12eq14p7ktnmss8y5zd9bdv8,3lotdfnyabcgp0wov4xg7knqyd3fwy,BWkSLKcb,2020-0188,2021-10-14,06:51:36,07:57:04,NA,incomplete,false,true,NA,8,3,NA,yellow,n_l_015.jpg,NA,NA,unpleasant,pleasant,NA,NA,NA,NA,NA,left,2714.5,true,NA,NA,NA,NA,NA
BWkSLKcb,32k26u12eq14p7ktnmss8y5zd9bdv8,3lotdfnyabcgp0wov4xg7knqyd3fwy,BWkSLKcb,2020-0188,2021-10-14,06:51:36,07:57:04,NA,incomplete,false,true,NA,8,4,NA,yellow,m_l_022.jpg,NA,NA,pleasant,unpleasant,NA,NA,NA,NA,NA,left,1683.60000002384,true,NA,NA,NA,NA,NA
BWkSLKcb,32k26u12eq14p7ktnmss8y5zd9bdv8,3lotdfnyabcgp0wov4xg7knqyd3fwy,BWkSLKcb,2020-0188,2021-10-14,06:51:36,07:57:04,NA,incomplete,false,true,NA,8,5,NA,yellow,m_s_027.jpg,NA,NA,pleasant,unpleasant,NA,NA,NA,NA,NA,right,1585.40000003576,true,NA,NA,NA,NA,NA
BWkSLKcb,32k26u12eq14p7ktnmss8y5zd9bdv8,3lotdfnyabcgp0wov4xg7knqyd3fwy,BWkSLKcb,2020-0188,2021-10-14,06:51:36,07:57:04,NA,incomplete,false,true,NA,8,6,NA,gray,m_s_088.jpg,NA,NA,pleasant,unpleasant,NA,NA,NA,NA,NA,left,1475,true,NA,NA,NA,NA,NA
BWkSLKcb,32k26u12eq14p7ktnmss8y5zd9bdv8,3lotdfnyabcgp0wov4xg7knqyd3fwy,BWkSLKcb,2020-0188,2021-10-14,06:51:36,07:57:04,NA,incomplete,false,true,NA,8,7,NA,gray,n_s_002.jpg,NA,NA,unpleasant,pleasant,NA,NA,NA,NA,NA,right,1360.19999998808,true,NA,NA,NA,NA,NA
BWkSLKcb,32k26u12eq14p7ktnmss8y5zd9bdv8,3lotdfnyabcgp0wov4xg7knqyd3fwy,BWkSLKcb,2020-0188,2021-10-14,06:51:36,07:57:04,NA,incomplete,false,true,NA,8,8,NA,gray,n_s_003.jpg,NA,NA,unpleasant,pleasant,NA,NA,NA,NA,NA,right,1714,true,NA,NA,NA,NA,NA
BWkSLKcb,32k26u12eq14p7ktnmss8y5zd9bdv8,3lotdfnyabcgp0wov4xg7knqyd3fwy,BWkSLKcb,2020-0188,2021-10-14,06:51:36,07:57:04,NA,incomplete,false,true,NA,8,9,NA,gray,m_l_040.jpg,NA,NA,unpleasant,pleasant,NA,NA,NA,NA,NA,right,1497.80000001192,true,NA,NA,NA,NA,NA
