workerId,hitId,assignmentId,subject,studyid,exp_date,exp_start,exp_end,time_start,time_end,practice,encoding,memory,block,trial,event_order,event,stim,answer,context_type,label_left,label_right,left_image,left_event,right_image,right_event,condition,response,response_time,response_acc,order_response,order_response_time,order_acc,distance_response,distance_response_time
CI4hqnO4,3uy4pis8ruyxp7v852m6xfad2fzn1g,378xpawrugq3sevbv779ss3rmygiat,CI4hqnO4,2020-0188,2021-10-17,13:18:10,14:38:16,NA,incomplete,true,true,NA,0,0,NA,white,m_l_022.jpg,NA,NA,pleasant,unpleasant,NA,NA,NA,NA,NA,left,974.199999988079,true,NA,NA,NA,NA,NA
CI4hqnO4,3uy4pis8ruyxp7v852m6xfad2fzn1g,378xpawrugq3sevbv779ss3rmygiat,CI4hqnO4,2020-0188,2021-10-17,13:18:10,14:38:16,NA,incomplete,true,true,NA,0,1,NA,white,m_s_076.jpg,NA,NA,unpleasant,pleasant,NA,NA,NA,NA,NA,left,1375.70000000298,true,NA,NA,NA,NA,NA
CI4hqnO4,3uy4pis8ruyxp7v852m6xfad2fzn1g,378xpawrugq3sevbv779ss3rmygiat,CI4hqnO4,2020-0188,2021-10-17,13:18:10,14:38:16,NA,incomplete,true,true,NA,0,2,NA,white,m_l_107.jpg,NA,NA,pleasant,unpleasant,NA,NA,NA,NA,NA,right,1410.79999999702,true,NA,NA,NA,NA,NA
CI4hqnO4,3uy4pis8ruyxp7v852m6xfad2fzn1g,378xpawrugq3sevbv779ss3rmygiat,CI4hqnO4,2020-0188,2021-10-17,13:18:10,14:38:16,NA,incomplete,true,true,NA,0,3,NA,white,n_s_006.jpg,NA,NA,pleasant,unpleasant,NA,NA,NA,NA,NA,left,1371.40000000596,true,NA,NA,NA,NA,NA
CI4hqnO4,3uy4pis8ruyxp7v852m6xfad2fzn1g,378xpawrugq3sevbv779ss3rmygiat,CI4hqnO4,2020-0188,2021-10-17,13:18:10,14:38:16,NA,incomplete,true,true,NA,0,4,NA,white,m_s_052.jpg,NA,NA,unpleasant,pleasant,NA,NA,NA,NA,NA,right,1744.69999998808,true,NA,NA,NA,NA,NA
CI4hqnO4,3uy4pis8ruyxp7v852m6xfad2fzn1g,378xpawrugq3sevbv779ss3rmygiat,CI4hqnO4,2020-0188,2021-10-17,13:18:10,14:38:16,NA,incomplete,true,true,NA,0,5,NA,white,n_s_056.jpg,NA,NA,unpleasant,pleasant,NA,NA,NA,NA,NA,right,1036.89999999106,true,NA,NA,NA,NA,NA
CI4hqnO4,3uy4pis8ruyxp7v852m6xfad2fzn1g,378xpawrugq3sevbv779ss3rmygiat,CI4hqnO4,2020-0188,2021-10-17,13:18:10,14:38:16,NA,incomplete,true,true,NA,0,6,NA,blue,n_s_051.jpg,NA,NA,unpleasant,pleasant,NA,NA,NA,NA,NA,right,919.29999999702,true,NA,NA,NA,NA,NA
CI4hqnO4,3uy4pis8ruyxp7v852m6xfad2fzn1g,378xpawrugq3sevbv779ss3rmygiat,CI4hqnO4,2020-0188,2021-10-17,13:18:10,14:38:16,NA,incomplete,true,true,NA,0,7,NA,blue,n_s_014.jpg,NA,NA,unpleasant,pleasant,NA,NA,NA,NA,NA,right,1310.40000000596,true,NA,NA,NA,NA,NA
CI4hqnO4,3uy4pis8ruyxp7v852m6xfad2fzn1g,378xpawrugq3sevbv779ss3rmygiat,CI4hqnO4,2020-0188,2021-10-17,13:18:10,14:38:16,NA,incomplete,true,true,NA,0,8,NA,blue,m_s_080.jpg,NA,NA,unpleasant,pleasant,NA,NA,NA,NA,NA,left,726.5,true,NA,NA,NA,NA,NA
CI4hqnO4,3uy4pis8ruyxp7v852m6xfad2fzn1g,378xpawrugq3sevbv779ss3rmygiat,CI4hqnO4,2020-0188,2021-10-17,13:18:10,14:38:16,NA,incomplete,true,true,NA,0,9,NA,blue,n_s_062.jpg,NA,NA,unpleasant,pleasant,NA,NA,NA,NA,NA,left,958.70000000298,true,NA,NA,NA,NA,NA
CI4hqnO4,3uy4pis8ruyxp7v852m6xfad2fzn1g,378xpawrugq3sevbv779ss3rmygiat,CI4hqnO4,2020-0188,2021-10-17,13:18:10,14:38:16,NA,incomplete,true,true,NA,0,10,NA,blue,n_s_028.jpg,NA,NA,unpleasant,pleasant,NA,NA,NA,NA,NA,right,1183,true,NA,NA,NA,NA,NA
CI4hqnO4,3uy4pis8ruyxp7v852m6xfad2fzn1g,378xpawrugq3sevbv779ss3rmygiat,CI4hqnO4,2020-0188,2021-10-17,13:18:10,14:38:16,NA,incomplete,true,true,NA,0,11,NA,blue,n_l_052.jpg,NA,NA,pleasant,unpleasant,NA,NA,NA,NA,NA,right,1459.20000000298,true,NA,NA,NA,NA,NA
CI4hqnO4,3uy4pis8ruyxp7v852m6xfad2fzn1g,378xpawrugq3sevbv779ss3rmygiat,CI4hqnO4,2020-0188,2021-10-17,13:18:10,14:38:16,NA,incomplete,true,true,NA,0,12,NA,gray,m_s_049.jpg,NA,NA,unpleasant,pleasant,NA,NA,NA,NA,NA,right,1169.29999999702,true,NA,NA,NA,NA,NA
CI4hqnO4,3uy4pis8ruyxp7v852m6xfad2fzn1g,378xpawrugq3sevbv779ss3rmygiat,CI4hqnO4,2020-0188,2021-10-17,13:18:10,14:38:16,NA,incomplete,true,true,NA,0,13,NA,gray,n_s_030.jpg,NA,NA,unpleasant,pleasant,NA,NA,NA,NA,NA,right,1091.69999998808,true,NA,NA,NA,NA,NA
CI4hqnO4,3uy4pis8ruyxp7v852m6xfad2fzn1g,378xpawrugq3sevbv779ss3rmygiat,CI4hqnO4,2020-0188,2021-10-17,13:18:10,14:38:16,NA,incomplete,true,true,NA,0,14,NA,gray,m_s_088.jpg,NA,NA,pleasant,unpleasant,NA,NA,NA,NA,NA,left,658.70000000298,true,NA,NA,NA,NA,NA
CI4hqnO4,3uy4pis8ruyxp7v852m6xfad2fzn1g,378xpawrugq3sevbv779ss3rmygiat,CI4hqnO4,2020-0188,2021-10-17,13:18:10,14:38:16,NA,incomplete,true,true,NA,0,15,NA,gray,n_s_007.jpg,NA,NA,pleasant,unpleasant,NA,NA,NA,NA,NA,right,1129.89999999106,true,NA,NA,NA,NA,NA
CI4hqnO4,3uy4pis8ruyxp7v852m6xfad2fzn1g,378xpawrugq3sevbv779ss3rmygiat,CI4hqnO4,2020-0188,2021-10-17,13:18:10,14:38:16,NA,incomplete,true,true,NA,0,16,NA,gray,m_s_017.jpg,NA,NA,unpleasant,pleasant,NA,NA,NA,NA,NA,right,21.1000000089407,true,NA,NA,NA,NA,NA
CI4hqnO4,3uy4pis8ruyxp7v852m6xfad2fzn1g,378xpawrugq3sevbv779ss3rmygiat,CI4hqnO4,2020-0188,2021-10-17,13:18:10,14:38:16,NA,incomplete,true,true,NA,0,17,NA,gray,m_l_009.jpg,NA,NA,unpleasant,pleasant,NA,NA,NA,NA,NA,right,1262.59999999404,true,NA,NA,NA,NA,NA
CI4hqnO4,3uy4pis8ruyxp7v852m6xfad2fzn1g,378xpawrugq3sevbv779ss3rmygiat,CI4hqnO4,2020-0188,2021-10-17,13:18:10,14:38:16,NA,incomplete,true,true,NA,0,18,NA,orange,n_l_007.jpg,NA,NA,unpleasant,pleasant,NA,NA,NA,NA,NA,right,818.70000000298,true,NA,NA,NA,NA,NA
CI4hqnO4,3uy4pis8ruyxp7v852m6xfad2fzn1g,378xpawrugq3sevbv779ss3rmygiat,CI4hqnO4,2020-0188,2021-10-17,13:18:10,14:38:16,NA,incomplete,true,true,NA,0,19,NA,orange,n_s_097.jpg,NA,NA,pleasant,unpleasant,NA,NA,NA,NA,NA,left,1571.09999999404,true,NA,NA,NA,NA,NA
CI4hqnO4,3uy4pis8ruyxp7v852m6xfad2fzn1g,378xpawrugq3sevbv779ss3rmygiat,CI4hqnO4,2020-0188,2021-10-17,13:18:10,14:38:16,NA,incomplete,true,true,NA,0,20,NA,orange,m_l_010.jpg,NA,NA,pleasant,unpleasant,NA,NA,NA,NA,NA,left,1234.20000000298,true,NA,NA,NA,NA,NA
CI4hqnO4,3uy4pis8ruyxp7v852m6xfad2fzn1g,378xpawrugq3sevbv779ss3rmygiat,CI4hqnO4,2020-0188,2021-10-17,13:18:10,14:38:16,NA,incomplete,true,true,NA,0,21,NA,orange,m_s_071.jpg,NA,NA,pleasant,unpleasant,NA,NA,NA,NA,NA,right,1439,true,NA,NA,NA,NA,NA
CI4hqnO4,3uy4pis8ruyxp7v852m6xfad2fzn1g,378xpawrugq3sevbv779ss3rmygiat,CI4hqnO4,2020-0188,2021-10-17,13:18:10,14:38:16,NA,incomplete,true,true,NA,0,22,NA,orange,n_l_054.jpg,NA,NA,pleasant,unpleasant,NA,NA,NA,NA,NA,left,1163.70000000298,true,NA,NA,NA,NA,NA
CI4hqnO4,3uy4pis8ruyxp7v852m6xfad2fzn1g,378xpawrugq3sevbv779ss3rmygiat,CI4hqnO4,2020-0188,2021-10-17,13:18:10,14:38:16,NA,incomplete,true,true,NA,0,23,NA,orange,n_s_060.jpg,NA,NA,pleasant,unpleasant,NA,NA,NA,NA,NA,left,1107.59999999404,true,NA,NA,NA,NA,NA
CI4hqnO4,3uy4pis8ruyxp7v852m6xfad2fzn1g,378xpawrugq3sevbv779ss3rmygiat,CI4hqnO4,2020-0188,2021-10-17,13:18:10,14:38:16,NA,incomplete,true,true,NA,0,24,NA,green,m_l_081.jpg,NA,NA,unpleasant,pleasant,NA,NA,NA,NA,NA,right,1756.5,true,NA,NA,NA,NA,NA
CI4hqnO4,3uy4pis8ruyxp7v852m6xfad2fzn1g,378xpawrugq3sevbv779ss3rmygiat,CI4hqnO4,2020-0188,2021-10-17,13:18:10,14:38:16,NA,incomplete,true,true,NA,0,25,NA,green,m_s_097.jpg,NA,NA,unpleasant,pleasant,NA,NA,NA,NA,NA,left,1134.69999998808,true,NA,NA,NA,NA,NA
CI4hqnO4,3uy4pis8ruyxp7v852m6xfad2fzn1g,378xpawrugq3sevbv779ss3rmygiat,CI4hqnO4,2020-0188,2021-10-17,13:18:10,14:38:16,NA,incomplete,true,true,NA,0,26,NA,green,n_l_031.jpg,NA,NA,pleasant,unpleasant,NA,NA,NA,NA,NA,none,0,false,NA,NA,NA,NA,NA
CI4hqnO4,3uy4pis8ruyxp7v852m6xfad2fzn1g,378xpawrugq3sevbv779ss3rmygiat,CI4hqnO4,2020-0188,2021-10-17,13:18:10,14:38:16,NA,incomplete,true,true,NA,0,27,NA,green,m_l_020.jpg,NA,NA,pleasant,unpleasant,NA,NA,NA,NA,NA,left,940.70000000298,true,NA,NA,NA,NA,NA
CI4hqnO4,3uy4pis8ruyxp7v852m6xfad2fzn1g,378xpawrugq3sevbv779ss3rmygiat,CI4hqnO4,2020-0188,2021-10-17,13:18:10,14:38:16,NA,incomplete,true,true,NA,0,28,NA,green,m_s_064.jpg,NA,NA,unpleasant,pleasant,NA,NA,NA,NA,NA,right,1585,true,NA,NA,NA,NA,NA
CI4hqnO4,3uy4pis8ruyxp7v852m6xfad2fzn1g,378xpawrugq3sevbv779ss3rmygiat,CI4hqnO4,2020-0188,2021-10-17,13:18:10,14:38:16,NA,incomplete,true,true,NA,0,29,NA,green,m_s_075.jpg,NA,NA,pleasant,unpleasant,NA,NA,NA,NA,NA,left,1594.30000001192,true,NA,NA,NA,NA,NA
CI4hqnO4,3uy4pis8ruyxp7v852m6xfad2fzn1g,378xpawrugq3sevbv779ss3rmygiat,CI4hqnO4,2020-0188,2021-10-17,13:18:10,14:38:16,NA,incomplete,true,true,NA,0,30,NA,purple,m_l_078.jpg,NA,NA,unpleasant,pleasant,NA,NA,NA,NA,NA,right,1469.70000000298,true,NA,NA,NA,NA,NA
CI4hqnO4,3uy4pis8ruyxp7v852m6xfad2fzn1g,378xpawrugq3sevbv779ss3rmygiat,CI4hqnO4,2020-0188,2021-10-17,13:18:10,14:38:16,NA,incomplete,true,true,NA,0,31,NA,purple,n_s_084.jpg,NA,NA,unpleasant,pleasant,NA,NA,NA,NA,NA,right,1016.20000000298,true,NA,NA,NA,NA,NA
CI4hqnO4,3uy4pis8ruyxp7v852m6xfad2fzn1g,378xpawrugq3sevbv779ss3rmygiat,CI4hqnO4,2020-0188,2021-10-17,13:18:10,14:38:16,NA,incomplete,true,true,NA,0,32,NA,purple,m_s_070.jpg,NA,NA,pleasant,unpleasant,NA,NA,NA,NA,NA,left,1121.40000000596,true,NA,NA,NA,NA,NA
CI4hqnO4,3uy4pis8ruyxp7v852m6xfad2fzn1g,378xpawrugq3sevbv779ss3rmygiat,CI4hqnO4,2020-0188,2021-10-17,13:18:10,14:38:16,NA,incomplete,true,true,NA,0,33,NA,purple,n_l_012.jpg,NA,NA,unpleasant,pleasant,NA,NA,NA,NA,NA,right,1271.29999999702,true,NA,NA,NA,NA,NA
CI4hqnO4,3uy4pis8ruyxp7v852m6xfad2fzn1g,378xpawrugq3sevbv779ss3rmygiat,CI4hqnO4,2020-0188,2021-10-17,13:18:10,14:38:16,NA,incomplete,true,true,NA,0,34,NA,purple,m_s_011.jpg,NA,NA,pleasant,unpleasant,NA,NA,NA,NA,NA,left,1311.70000000298,true,NA,NA,NA,NA,NA
CI4hqnO4,3uy4pis8ruyxp7v852m6xfad2fzn1g,378xpawrugq3sevbv779ss3rmygiat,CI4hqnO4,2020-0188,2021-10-17,13:18:10,14:38:16,NA,incomplete,true,true,NA,0,35,NA,purple,m_s_003.jpg,NA,NA,unpleasant,pleasant,NA,NA,NA,NA,NA,right,1479,true,NA,NA,NA,NA,NA
CI4hqnO4,3uy4pis8ruyxp7v852m6xfad2fzn1g,378xpawrugq3sevbv779ss3rmygiat,CI4hqnO4,2020-0188,2021-10-17,13:18:10,14:38:16,NA,incomplete,true,NA,true,0,0,NA,NA,NA,right,present,NA,NA,n_s_056.jpg,white,m_s_076.jpg,white,within,NA,NaN,NA,right,5207.70000000298,1,1,2245.0999999940395
CI4hqnO4,3uy4pis8ruyxp7v852m6xfad2fzn1g,378xpawrugq3sevbv779ss3rmygiat,CI4hqnO4,2020-0188,2021-10-17,13:18:10,14:38:16,NA,incomplete,true,NA,true,0,1,NA,NA,NA,left,present,NA,NA,n_s_030.jpg,gray,m_l_009.jpg,gray,within,NA,NaN,NA,right,1174.1000000089407,0,1,682.6000000089407
CI4hqnO4,3uy4pis8ruyxp7v852m6xfad2fzn1g,378xpawrugq3sevbv779ss3rmygiat,CI4hqnO4,2020-0188,2021-10-17,13:18:10,14:38:16,NA,incomplete,true,NA,true,0,2,NA,NA,NA,right,absent,NA,NA,m_s_080.jpg,blue,m_s_052.jpg,white,between,NA,NaN,NA,left,1000,0,2,866.3999999910593
CI4hqnO4,3uy4pis8ruyxp7v852m6xfad2fzn1g,378xpawrugq3sevbv779ss3rmygiat,CI4hqnO4,2020-0188,2021-10-17,13:18:10,14:38:16,NA,incomplete,true,NA,true,0,3,NA,NA,NA,left,present,NA,NA,n_s_084.jpg,purple,m_s_003.jpg,purple,within,NA,NaN,NA,left,914.8999999910593,1,2,3522.5
CI4hqnO4,3uy4pis8ruyxp7v852m6xfad2fzn1g,378xpawrugq3sevbv779ss3rmygiat,CI4hqnO4,2020-0188,2021-10-17,13:18:10,14:38:16,NA,incomplete,true,NA,true,0,4,NA,NA,NA,left,present,NA,NA,n_s_028.jpg,blue,m_s_088.jpg,gray,between,NA,NaN,NA,left,1228.300000011921,1,0,809.0999999940395
CI4hqnO4,3uy4pis8ruyxp7v852m6xfad2fzn1g,378xpawrugq3sevbv779ss3rmygiat,CI4hqnO4,2020-0188,2021-10-17,13:18:10,14:38:16,NA,incomplete,true,NA,true,0,5,NA,NA,NA,left,present,NA,NA,n_s_014.jpg,blue,n_l_052.jpg,blue,within,NA,NaN,NA,right,945.2000000029802,0,1,737.2999999970198
CI4hqnO4,3uy4pis8ruyxp7v852m6xfad2fzn1g,378xpawrugq3sevbv779ss3rmygiat,CI4hqnO4,2020-0188,2021-10-17,13:18:10,14:38:16,NA,incomplete,true,NA,true,0,6,NA,NA,NA,left,present,NA,NA,n_l_054.jpg,orange,n_l_031.jpg,green,between,NA,NaN,NA,left,801.2999999970198,1,1,609.0999999940395
CI4hqnO4,3uy4pis8ruyxp7v852m6xfad2fzn1g,378xpawrugq3sevbv779ss3rmygiat,CI4hqnO4,2020-0188,2021-10-17,13:18:10,14:38:16,NA,incomplete,true,NA,true,0,7,NA,NA,NA,left,present,NA,NA,m_s_097.jpg,green,m_s_075.jpg,green,within,NA,NaN,NA,right,884.7000000029802,0,2,897.4000000059605
CI4hqnO4,3uy4pis8ruyxp7v852m6xfad2fzn1g,378xpawrugq3sevbv779ss3rmygiat,CI4hqnO4,2020-0188,2021-10-17,13:18:10,14:38:16,NA,incomplete,true,NA,true,0,8,NA,NA,NA,left,present,NA,NA,m_s_064.jpg,green,m_s_070.jpg,purple,between,NA,NaN,NA,left,802.9000000059605,1,1,646.7000000029802
CI4hqnO4,3uy4pis8ruyxp7v852m6xfad2fzn1g,378xpawrugq3sevbv779ss3rmygiat,CI4hqnO4,2020-0188,2021-10-17,13:18:10,14:38:16,NA,incomplete,true,NA,true,0,9,NA,NA,NA,right,absent,NA,NA,m_l_010.jpg,orange,m_s_017.jpg,gray,between,NA,NaN,NA,right,676.7000000029802,1,2,808
CI4hqnO4,3uy4pis8ruyxp7v852m6xfad2fzn1g,378xpawrugq3sevbv779ss3rmygiat,CI4hqnO4,2020-0188,2021-10-17,13:18:10,14:38:16,NA,incomplete,true,NA,true,0,10,NA,NA,NA,right,absent,NA,NA,n_s_060.jpg,orange,n_s_097.jpg,orange,within,NA,NaN,NA,left,795.8999999910593,0,1,581.0999999940395
CI4hqnO4,3uy4pis8ruyxp7v852m6xfad2fzn1g,378xpawrugq3sevbv779ss3rmygiat,CI4hqnO4,2020-0188,2021-10-17,13:18:10,14:38:16,NA,incomplete,false,true,NA,1,0,NA,blue,m_s_031.jpg,NA,NA,unpleasant,pleasant,NA,NA,NA,NA,NA,right,3137.20000000298,true,NA,NA,NA,NA,NA
CI4hqnO4,3uy4pis8ruyxp7v852m6xfad2fzn1g,378xpawrugq3sevbv779ss3rmygiat,CI4hqnO4,2020-0188,2021-10-17,13:18:10,14:38:16,NA,incomplete,false,true,NA,1,1,NA,blue,n_l_038.jpg,NA,NA,pleasant,unpleasant,NA,NA,NA,NA,NA,left,1357.79999999702,true,NA,NA,NA,NA,NA
CI4hqnO4,3uy4pis8ruyxp7v852m6xfad2fzn1g,378xpawrugq3sevbv779ss3rmygiat,CI4hqnO4,2020-0188,2021-10-17,13:18:10,14:38:16,NA,incomplete,false,true,NA,1,2,NA,blue,n_l_112.jpg,NA,NA,pleasant,unpleasant,NA,NA,NA,NA,NA,right,1050.09999999404,true,NA,NA,NA,NA,NA
CI4hqnO4,3uy4pis8ruyxp7v852m6xfad2fzn1g,378xpawrugq3sevbv779ss3rmygiat,CI4hqnO4,2020-0188,2021-10-17,13:18:10,14:38:16,NA,incomplete,false,true,NA,1,3,NA,blue,n_l_091.jpg,NA,NA,unpleasant,pleasant,NA,NA,NA,NA,NA,right,1380.5,true,NA,NA,NA,NA,NA
CI4hqnO4,3uy4pis8ruyxp7v852m6xfad2fzn1g,378xpawrugq3sevbv779ss3rmygiat,CI4hqnO4,2020-0188,2021-10-17,13:18:10,14:38:16,NA,incomplete,false,true,NA,1,4,NA,blue,n_s_010.jpg,NA,NA,pleasant,unpleasant,NA,NA,NA,NA,NA,right,1556.09999999404,true,NA,NA,NA,NA,NA
CI4hqnO4,3uy4pis8ruyxp7v852m6xfad2fzn1g,378xpawrugq3sevbv779ss3rmygiat,CI4hqnO4,2020-0188,2021-10-17,13:18:10,14:38:16,NA,incomplete,false,true,NA,1,5,NA,blue,n_s_047.jpg,NA,NA,pleasant,unpleasant,NA,NA,NA,NA,NA,right,844.90000000596,true,NA,NA,NA,NA,NA
CI4hqnO4,3uy4pis8ruyxp7v852m6xfad2fzn1g,378xpawrugq3sevbv779ss3rmygiat,CI4hqnO4,2020-0188,2021-10-17,13:18:10,14:38:16,NA,incomplete,false,true,NA,1,6,NA,yellow,n_s_029.jpg,NA,NA,pleasant,unpleasant,NA,NA,NA,NA,NA,left,1140.09999999404,true,NA,NA,NA,NA,NA
CI4hqnO4,3uy4pis8ruyxp7v852m6xfad2fzn1g,378xpawrugq3sevbv779ss3rmygiat,CI4hqnO4,2020-0188,2021-10-17,13:18:10,14:38:16,NA,incomplete,false,true,NA,1,7,NA,yellow,n_l_045.jpg,NA,NA,pleasant,unpleasant,NA,NA,NA,NA,NA,left,1093.79999999702,true,NA,NA,NA,NA,NA
CI4hqnO4,3uy4pis8ruyxp7v852m6xfad2fzn1g,378xpawrugq3sevbv779ss3rmygiat,CI4hqnO4,2020-0188,2021-10-17,13:18:10,14:38:16,NA,incomplete,false,true,NA,1,8,NA,yellow,m_l_060.jpg,NA,NA,unpleasant,pleasant,NA,NA,NA,NA,NA,right,1274.70000000298,true,NA,NA,NA,NA,NA
CI4hqnO4,3uy4pis8ruyxp7v852m6xfad2fzn1g,378xpawrugq3sevbv779ss3rmygiat,CI4hqnO4,2020-0188,2021-10-17,13:18:10,14:38:16,NA,incomplete,false,true,NA,1,9,NA,yellow,m_s_083.jpg,NA,NA,pleasant,unpleasant,NA,NA,NA,NA,NA,left,1097.40000000596,true,NA,NA,NA,NA,NA
CI4hqnO4,3uy4pis8ruyxp7v852m6xfad2fzn1g,378xpawrugq3sevbv779ss3rmygiat,CI4hqnO4,2020-0188,2021-10-17,13:18:10,14:38:16,NA,incomplete,false,true,NA,1,10,NA,yellow,m_l_059.jpg,NA,NA,unpleasant,pleasant,NA,NA,NA,NA,NA,left,1146.10000000894,true,NA,NA,NA,NA,NA
CI4hqnO4,3uy4pis8ruyxp7v852m6xfad2fzn1g,378xpawrugq3sevbv779ss3rmygiat,CI4hqnO4,2020-0188,2021-10-17,13:18:10,14:38:16,NA,incomplete,false,true,NA,1,11,NA,yellow,m_s_095.jpg,NA,NA,pleasant,unpleasant,NA,NA,NA,NA,NA,right,875.600000008941,true,NA,NA,NA,NA,NA
CI4hqnO4,3uy4pis8ruyxp7v852m6xfad2fzn1g,378xpawrugq3sevbv779ss3rmygiat,CI4hqnO4,2020-0188,2021-10-17,13:18:10,14:38:16,NA,incomplete,false,true,NA,1,12,NA,white,n_s_110.jpg,NA,NA,pleasant,unpleasant,NA,NA,NA,NA,NA,left,1234.79999999702,true,NA,NA,NA,NA,NA
CI4hqnO4,3uy4pis8ruyxp7v852m6xfad2fzn1g,378xpawrugq3sevbv779ss3rmygiat,CI4hqnO4,2020-0188,2021-10-17,13:18:10,14:38:16,NA,incomplete,false,true,NA,1,13,NA,white,n_l_020.jpg,NA,NA,pleasant,unpleasant,NA,NA,NA,NA,NA,left,1185.10000000894,true,NA,NA,NA,NA,NA
CI4hqnO4,3uy4pis8ruyxp7v852m6xfad2fzn1g,378xpawrugq3sevbv779ss3rmygiat,CI4hqnO4,2020-0188,2021-10-17,13:18:10,14:38:16,NA,incomplete,false,true,NA,1,14,NA,white,m_l_019.jpg,NA,NA,unpleasant,pleasant,NA,NA,NA,NA,NA,right,896.09999999404,true,NA,NA,NA,NA,NA
CI4hqnO4,3uy4pis8ruyxp7v852m6xfad2fzn1g,378xpawrugq3sevbv779ss3rmygiat,CI4hqnO4,2020-0188,2021-10-17,13:18:10,14:38:16,NA,incomplete,false,true,NA,1,15,NA,white,n_s_101.jpg,NA,NA,pleasant,unpleasant,NA,NA,NA,NA,NA,right,1130.10000000894,true,NA,NA,NA,NA,NA
CI4hqnO4,3uy4pis8ruyxp7v852m6xfad2fzn1g,378xpawrugq3sevbv779ss3rmygiat,CI4hqnO4,2020-0188,2021-10-17,13:18:10,14:38:16,NA,incomplete,false,true,NA,1,16,NA,white,m_l_055.jpg,NA,NA,unpleasant,pleasant,NA,NA,NA,NA,NA,left,1652.59999999404,true,NA,NA,NA,NA,NA
CI4hqnO4,3uy4pis8ruyxp7v852m6xfad2fzn1g,378xpawrugq3sevbv779ss3rmygiat,CI4hqnO4,2020-0188,2021-10-17,13:18:10,14:38:16,NA,incomplete,false,true,NA,1,17,NA,white,m_l_115.jpg,NA,NA,unpleasant,pleasant,NA,NA,NA,NA,NA,right,924.79999999702,true,NA,NA,NA,NA,NA
CI4hqnO4,3uy4pis8ruyxp7v852m6xfad2fzn1g,378xpawrugq3sevbv779ss3rmygiat,CI4hqnO4,2020-0188,2021-10-17,13:18:10,14:38:16,NA,incomplete,false,true,NA,1,18,NA,gray,m_l_011.jpg,NA,NA,pleasant,unpleasant,NA,NA,NA,NA,NA,left,1089.19999998808,true,NA,NA,NA,NA,NA
CI4hqnO4,3uy4pis8ruyxp7v852m6xfad2fzn1g,378xpawrugq3sevbv779ss3rmygiat,CI4hqnO4,2020-0188,2021-10-17,13:18:10,14:38:16,NA,incomplete,false,true,NA,1,19,NA,gray,n_s_111.jpg,NA,NA,pleasant,unpleasant,NA,NA,NA,NA,NA,left,1275.09999999404,true,NA,NA,NA,NA,NA
CI4hqnO4,3uy4pis8ruyxp7v852m6xfad2fzn1g,378xpawrugq3sevbv779ss3rmygiat,CI4hqnO4,2020-0188,2021-10-17,13:18:10,14:38:16,NA,incomplete,false,true,NA,1,20,NA,gray,n_l_034.jpg,NA,NA,unpleasant,pleasant,NA,NA,NA,NA,NA,right,1203.69999998808,true,NA,NA,NA,NA,NA
CI4hqnO4,3uy4pis8ruyxp7v852m6xfad2fzn1g,378xpawrugq3sevbv779ss3rmygiat,CI4hqnO4,2020-0188,2021-10-17,13:18:10,14:38:16,NA,incomplete,false,true,NA,1,21,NA,gray,n_s_114.jpg,NA,NA,unpleasant,pleasant,NA,NA,NA,NA,NA,right,1154.59999999404,true,NA,NA,NA,NA,NA
CI4hqnO4,3uy4pis8ruyxp7v852m6xfad2fzn1g,378xpawrugq3sevbv779ss3rmygiat,CI4hqnO4,2020-0188,2021-10-17,13:18:10,14:38:16,NA,incomplete,false,true,NA,1,22,NA,gray,m_s_093.jpg,NA,NA,pleasant,unpleasant,NA,NA,NA,NA,NA,left,1296.29999999702,true,NA,NA,NA,NA,NA
CI4hqnO4,3uy4pis8ruyxp7v852m6xfad2fzn1g,378xpawrugq3sevbv779ss3rmygiat,CI4hqnO4,2020-0188,2021-10-17,13:18:10,14:38:16,NA,incomplete,false,true,NA,1,23,NA,gray,m_s_024.jpg,NA,NA,unpleasant,pleasant,NA,NA,NA,NA,NA,right,1458.20000000298,true,NA,NA,NA,NA,NA
CI4hqnO4,3uy4pis8ruyxp7v852m6xfad2fzn1g,378xpawrugq3sevbv779ss3rmygiat,CI4hqnO4,2020-0188,2021-10-17,13:18:10,14:38:16,NA,incomplete,false,true,NA,1,24,NA,black,n_s_054.jpg,NA,NA,pleasant,unpleasant,NA,NA,NA,NA,NA,left,972.5,true,NA,NA,NA,NA,NA
CI4hqnO4,3uy4pis8ruyxp7v852m6xfad2fzn1g,378xpawrugq3sevbv779ss3rmygiat,CI4hqnO4,2020-0188,2021-10-17,13:18:10,14:38:16,NA,incomplete,false,true,NA,1,25,NA,black,n_s_042.jpg,NA,NA,pleasant,unpleasant,NA,NA,NA,NA,NA,left,1690.20000000298,true,NA,NA,NA,NA,NA
CI4hqnO4,3uy4pis8ruyxp7v852m6xfad2fzn1g,378xpawrugq3sevbv779ss3rmygiat,CI4hqnO4,2020-0188,2021-10-17,13:18:10,14:38:16,NA,incomplete,false,true,NA,1,26,NA,black,n_l_016.jpg,NA,NA,pleasant,unpleasant,NA,NA,NA,NA,NA,left,1252.20000000298,true,NA,NA,NA,NA,NA
CI4hqnO4,3uy4pis8ruyxp7v852m6xfad2fzn1g,378xpawrugq3sevbv779ss3rmygiat,CI4hqnO4,2020-0188,2021-10-17,13:18:10,14:38:16,NA,incomplete,false,true,NA,1,27,NA,black,n_s_064.jpg,NA,NA,unpleasant,pleasant,NA,NA,NA,NA,NA,right,893.600000008941,true,NA,NA,NA,NA,NA
CI4hqnO4,3uy4pis8ruyxp7v852m6xfad2fzn1g,378xpawrugq3sevbv779ss3rmygiat,CI4hqnO4,2020-0188,2021-10-17,13:18:10,14:38:16,NA,incomplete,false,true,NA,1,28,NA,black,n_l_104.jpg,NA,NA,pleasant,unpleasant,NA,NA,NA,NA,NA,left,1753.5,true,NA,NA,NA,NA,NA
CI4hqnO4,3uy4pis8ruyxp7v852m6xfad2fzn1g,378xpawrugq3sevbv779ss3rmygiat,CI4hqnO4,2020-0188,2021-10-17,13:18:10,14:38:16,NA,incomplete,false,true,NA,1,29,NA,black,n_s_115.jpg,NA,NA,unpleasant,pleasant,NA,NA,NA,NA,NA,right,1253.70000000298,true,NA,NA,NA,NA,NA
CI4hqnO4,3uy4pis8ruyxp7v852m6xfad2fzn1g,378xpawrugq3sevbv779ss3rmygiat,CI4hqnO4,2020-0188,2021-10-17,13:18:10,14:38:16,NA,incomplete,false,true,NA,1,30,NA,red,m_l_110.jpg,NA,NA,pleasant,unpleasant,NA,NA,NA,NA,NA,left,1044.10000000894,true,NA,NA,NA,NA,NA
CI4hqnO4,3uy4pis8ruyxp7v852m6xfad2fzn1g,378xpawrugq3sevbv779ss3rmygiat,CI4hqnO4,2020-0188,2021-10-17,13:18:10,14:38:16,NA,incomplete,false,true,NA,1,31,NA,red,m_s_057.jpg,NA,NA,unpleasant,pleasant,NA,NA,NA,NA,NA,right,1055.39999999106,true,NA,NA,NA,NA,NA
CI4hqnO4,3uy4pis8ruyxp7v852m6xfad2fzn1g,378xpawrugq3sevbv779ss3rmygiat,CI4hqnO4,2020-0188,2021-10-17,13:18:10,14:38:16,NA,incomplete,false,true,NA,1,32,NA,red,m_l_105.jpg,NA,NA,unpleasant,pleasant,NA,NA,NA,NA,NA,right,1081.60000000894,true,NA,NA,NA,NA,NA
CI4hqnO4,3uy4pis8ruyxp7v852m6xfad2fzn1g,378xpawrugq3sevbv779ss3rmygiat,CI4hqnO4,2020-0188,2021-10-17,13:18:10,14:38:16,NA,incomplete,false,true,NA,1,33,NA,red,m_l_030.jpg,NA,NA,pleasant,unpleasant,NA,NA,NA,NA,NA,left,1950,true,NA,NA,NA,NA,NA
CI4hqnO4,3uy4pis8ruyxp7v852m6xfad2fzn1g,378xpawrugq3sevbv779ss3rmygiat,CI4hqnO4,2020-0188,2021-10-17,13:18:10,14:38:16,NA,incomplete,false,true,NA,1,34,NA,red,n_s_088.jpg,NA,NA,unpleasant,pleasant,NA,NA,NA,NA,NA,right,694.300000011921,true,NA,NA,NA,NA,NA
CI4hqnO4,3uy4pis8ruyxp7v852m6xfad2fzn1g,378xpawrugq3sevbv779ss3rmygiat,CI4hqnO4,2020-0188,2021-10-17,13:18:10,14:38:16,NA,incomplete,false,true,NA,1,35,NA,red,n_s_032.jpg,NA,NA,unpleasant,pleasant,NA,NA,NA,NA,NA,right,911.90000000596,true,NA,NA,NA,NA,NA
CI4hqnO4,3uy4pis8ruyxp7v852m6xfad2fzn1g,378xpawrugq3sevbv779ss3rmygiat,CI4hqnO4,2020-0188,2021-10-17,13:18:10,14:38:16,NA,incomplete,false,NA,true,1,0,NA,NA,NA,left,present,NA,NA,n_s_111.jpg,gray,m_s_024.jpg,gray,within,NA,NaN,NA,right,2290.4000000059605,0,1,702
CI4hqnO4,3uy4pis8ruyxp7v852m6xfad2fzn1g,378xpawrugq3sevbv779ss3rmygiat,CI4hqnO4,2020-0188,2021-10-17,13:18:10,14:38:16,NA,incomplete,false,NA,true,1,1,NA,NA,NA,left,present,NA,NA,n_s_042.jpg,black,n_s_115.jpg,black,within,NA,NaN,NA,left,3203.300000011921,1,1,781.0999999940395
CI4hqnO4,3uy4pis8ruyxp7v852m6xfad2fzn1g,378xpawrugq3sevbv779ss3rmygiat,CI4hqnO4,2020-0188,2021-10-17,13:18:10,14:38:16,NA,incomplete,false,NA,true,1,2,NA,NA,NA,right,present,NA,NA,m_l_019.jpg,white,m_l_059.jpg,yellow,between,NA,NaN,NA,left,1442.2000000029802,0,2,957.9000000059605
CI4hqnO4,3uy4pis8ruyxp7v852m6xfad2fzn1g,378xpawrugq3sevbv779ss3rmygiat,CI4hqnO4,2020-0188,2021-10-17,13:18:10,14:38:16,NA,incomplete,false,NA,true,1,3,NA,NA,NA,left,present,NA,NA,m_s_057.jpg,red,n_s_032.jpg,red,within,NA,NaN,NA,left,1971.0999999940395,1,1,1260.7999999970198
CI4hqnO4,3uy4pis8ruyxp7v852m6xfad2fzn1g,378xpawrugq3sevbv779ss3rmygiat,CI4hqnO4,2020-0188,2021-10-17,13:18:10,14:38:16,NA,incomplete,false,NA,true,1,4,NA,NA,NA,left,present,NA,NA,n_l_038.jpg,blue,n_s_047.jpg,blue,within,NA,NaN,NA,right,4631.5,0,2,838.7000000029802
CI4hqnO4,3uy4pis8ruyxp7v852m6xfad2fzn1g,378xpawrugq3sevbv779ss3rmygiat,CI4hqnO4,2020-0188,2021-10-17,13:18:10,14:38:16,NA,incomplete,false,NA,true,1,5,NA,NA,NA,right,present,NA,NA,m_l_115.jpg,white,n_l_020.jpg,white,within,NA,NaN,NA,right,904,1,3,875.5
CI4hqnO4,3uy4pis8ruyxp7v852m6xfad2fzn1g,378xpawrugq3sevbv779ss3rmygiat,CI4hqnO4,2020-0188,2021-10-17,13:18:10,14:38:16,NA,incomplete,false,NA,true,1,6,NA,NA,NA,left,present,NA,NA,m_l_055.jpg,white,n_l_034.jpg,gray,between,NA,NaN,NA,left,1198.7999999970198,1,1,410.6000000089407
CI4hqnO4,3uy4pis8ruyxp7v852m6xfad2fzn1g,378xpawrugq3sevbv779ss3rmygiat,CI4hqnO4,2020-0188,2021-10-17,13:18:10,14:38:16,NA,incomplete,false,NA,true,1,7,NA,NA,NA,left,present,NA,NA,m_s_093.jpg,gray,n_l_016.jpg,black,between,NA,NaN,NA,left,884.5999999940395,1,2,722.7999999970198
CI4hqnO4,3uy4pis8ruyxp7v852m6xfad2fzn1g,378xpawrugq3sevbv779ss3rmygiat,CI4hqnO4,2020-0188,2021-10-17,13:18:10,14:38:16,NA,incomplete,false,NA,true,1,8,NA,NA,NA,left,present,NA,NA,n_s_010.jpg,blue,m_l_060.jpg,yellow,between,NA,NaN,NA,left,1363.5999999940395,1,2,771.3000000119209
CI4hqnO4,3uy4pis8ruyxp7v852m6xfad2fzn1g,378xpawrugq3sevbv779ss3rmygiat,CI4hqnO4,2020-0188,2021-10-17,13:18:10,14:38:16,NA,incomplete,false,NA,true,1,9,NA,NA,NA,left,present,NA,NA,n_l_045.jpg,yellow,m_s_095.jpg,yellow,within,NA,NaN,NA,right,1540.6000000089407,0,2,850.2000000029802
CI4hqnO4,3uy4pis8ruyxp7v852m6xfad2fzn1g,378xpawrugq3sevbv779ss3rmygiat,CI4hqnO4,2020-0188,2021-10-17,13:18:10,14:38:16,NA,incomplete,false,NA,true,1,10,NA,NA,NA,right,present,NA,NA,m_l_105.jpg,red,n_l_104.jpg,black,between,NA,NaN,NA,right,1550.7999999970198,1,2,835.2000000029802
CI4hqnO4,3uy4pis8ruyxp7v852m6xfad2fzn1g,378xpawrugq3sevbv779ss3rmygiat,CI4hqnO4,2020-0188,2021-10-17,13:18:10,14:38:16,NA,incomplete,false,true,NA,2,0,NA,red,n_s_093.jpg,NA,NA,pleasant,unpleasant,NA,NA,NA,NA,NA,none,0,false,NA,NA,NA,NA,NA
CI4hqnO4,3uy4pis8ruyxp7v852m6xfad2fzn1g,378xpawrugq3sevbv779ss3rmygiat,CI4hqnO4,2020-0188,2021-10-17,13:18:10,14:38:16,NA,incomplete,false,true,NA,2,1,NA,red,n_s_035.jpg,NA,NA,pleasant,unpleasant,NA,NA,NA,NA,NA,left,1628.5,true,NA,NA,NA,NA,NA
CI4hqnO4,3uy4pis8ruyxp7v852m6xfad2fzn1g,378xpawrugq3sevbv779ss3rmygiat,CI4hqnO4,2020-0188,2021-10-17,13:18:10,14:38:16,NA,incomplete,false,true,NA,2,2,NA,red,m_s_099.jpg,NA,NA,pleasant,unpleasant,NA,NA,NA,NA,NA,left,1100.89999999106,true,NA,NA,NA,NA,NA
CI4hqnO4,3uy4pis8ruyxp7v852m6xfad2fzn1g,378xpawrugq3sevbv779ss3rmygiat,CI4hqnO4,2020-0188,2021-10-17,13:18:10,14:38:16,NA,incomplete,false,true,NA,2,3,NA,red,n_l_017.jpg,NA,NA,pleasant,unpleasant,NA,NA,NA,NA,NA,left,1031.40000000596,true,NA,NA,NA,NA,NA
CI4hqnO4,3uy4pis8ruyxp7v852m6xfad2fzn1g,378xpawrugq3sevbv779ss3rmygiat,CI4hqnO4,2020-0188,2021-10-17,13:18:10,14:38:16,NA,incomplete,false,true,NA,2,4,NA,red,n_l_063.jpg,NA,NA,unpleasant,pleasant,NA,NA,NA,NA,NA,left,572.800000011921,true,NA,NA,NA,NA,NA
CI4hqnO4,3uy4pis8ruyxp7v852m6xfad2fzn1g,378xpawrugq3sevbv779ss3rmygiat,CI4hqnO4,2020-0188,2021-10-17,13:18:10,14:38:16,NA,incomplete,false,true,NA,2,5,NA,red,m_s_039.jpg,NA,NA,pleasant,unpleasant,NA,NA,NA,NA,NA,right,1014.40000000596,true,NA,NA,NA,NA,NA
CI4hqnO4,3uy4pis8ruyxp7v852m6xfad2fzn1g,378xpawrugq3sevbv779ss3rmygiat,CI4hqnO4,2020-0188,2021-10-17,13:18:10,14:38:16,NA,incomplete,false,true,NA,2,6,NA,gray,m_s_086.jpg,NA,NA,pleasant,unpleasant,NA,NA,NA,NA,NA,left,449.399999991059,true,NA,NA,NA,NA,NA
CI4hqnO4,3uy4pis8ruyxp7v852m6xfad2fzn1g,378xpawrugq3sevbv779ss3rmygiat,CI4hqnO4,2020-0188,2021-10-17,13:18:10,14:38:16,NA,incomplete,false,true,NA,2,7,NA,gray,m_l_080.jpg,NA,NA,unpleasant,pleasant,NA,NA,NA,NA,NA,right,1343.40000000596,true,NA,NA,NA,NA,NA
CI4hqnO4,3uy4pis8ruyxp7v852m6xfad2fzn1g,378xpawrugq3sevbv779ss3rmygiat,CI4hqnO4,2020-0188,2021-10-17,13:18:10,14:38:16,NA,incomplete,false,true,NA,2,8,NA,gray,n_l_113.jpg,NA,NA,unpleasant,pleasant,NA,NA,NA,NA,NA,right,873.70000000298,true,NA,NA,NA,NA,NA
CI4hqnO4,3uy4pis8ruyxp7v852m6xfad2fzn1g,378xpawrugq3sevbv779ss3rmygiat,CI4hqnO4,2020-0188,2021-10-17,13:18:10,14:38:16,NA,incomplete,false,true,NA,2,9,NA,gray,m_s_081.jpg,NA,NA,pleasant,unpleasant,NA,NA,NA,NA,NA,left,879.600000008941,true,NA,NA,NA,NA,NA
CI4hqnO4,3uy4pis8ruyxp7v852m6xfad2fzn1g,378xpawrugq3sevbv779ss3rmygiat,CI4hqnO4,2020-0188,2021-10-17,13:18:10,14:38:16,NA,incomplete,false,true,NA,2,10,NA,gray,n_l_006.jpg,NA,NA,pleasant,unpleasant,NA,NA,NA,NA,NA,left,934,true,NA,NA,NA,NA,NA
CI4hqnO4,3uy4pis8ruyxp7v852m6xfad2fzn1g,378xpawrugq3sevbv779ss3rmygiat,CI4hqnO4,2020-0188,2021-10-17,13:18:10,14:38:16,NA,incomplete,false,true,NA,2,11,NA,gray,n_l_068.jpg,NA,NA,pleasant,unpleasant,NA,NA,NA,NA,NA,left,989.899999991059,true,NA,NA,NA,NA,NA
CI4hqnO4,3uy4pis8ruyxp7v852m6xfad2fzn1g,378xpawrugq3sevbv779ss3rmygiat,CI4hqnO4,2020-0188,2021-10-17,13:18:10,14:38:16,NA,incomplete,false,true,NA,2,12,NA,white,n_s_002.jpg,NA,NA,unpleasant,pleasant,NA,NA,NA,NA,NA,left,831.29999999702,true,NA,NA,NA,NA,NA
CI4hqnO4,3uy4pis8ruyxp7v852m6xfad2fzn1g,378xpawrugq3sevbv779ss3rmygiat,CI4hqnO4,2020-0188,2021-10-17,13:18:10,14:38:16,NA,incomplete,false,true,NA,2,13,NA,white,m_l_036.jpg,NA,NA,pleasant,unpleasant,NA,NA,NA,NA,NA,left,1518.79999999702,true,NA,NA,NA,NA,NA
CI4hqnO4,3uy4pis8ruyxp7v852m6xfad2fzn1g,378xpawrugq3sevbv779ss3rmygiat,CI4hqnO4,2020-0188,2021-10-17,13:18:10,14:38:16,NA,incomplete,false,true,NA,2,14,NA,white,n_l_108.jpg,NA,NA,pleasant,unpleasant,NA,NA,NA,NA,NA,left,1055.79999999702,true,NA,NA,NA,NA,NA
CI4hqnO4,3uy4pis8ruyxp7v852m6xfad2fzn1g,378xpawrugq3sevbv779ss3rmygiat,CI4hqnO4,2020-0188,2021-10-17,13:18:10,14:38:16,NA,incomplete,false,true,NA,2,15,NA,white,m_l_048.jpg,NA,NA,unpleasant,pleasant,NA,NA,NA,NA,NA,right,756.09999999404,true,NA,NA,NA,NA,NA
CI4hqnO4,3uy4pis8ruyxp7v852m6xfad2fzn1g,378xpawrugq3sevbv779ss3rmygiat,CI4hqnO4,2020-0188,2021-10-17,13:18:10,14:38:16,NA,incomplete,false,true,NA,2,16,NA,white,m_l_015.jpg,NA,NA,pleasant,unpleasant,NA,NA,NA,NA,NA,left,1034.29999999702,true,NA,NA,NA,NA,NA
CI4hqnO4,3uy4pis8ruyxp7v852m6xfad2fzn1g,378xpawrugq3sevbv779ss3rmygiat,CI4hqnO4,2020-0188,2021-10-17,13:18:10,14:38:16,NA,incomplete,false,true,NA,2,17,NA,white,m_l_067.jpg,NA,NA,unpleasant,pleasant,NA,NA,NA,NA,NA,right,1092.79999999702,true,NA,NA,NA,NA,NA
CI4hqnO4,3uy4pis8ruyxp7v852m6xfad2fzn1g,378xpawrugq3sevbv779ss3rmygiat,CI4hqnO4,2020-0188,2021-10-17,13:18:10,14:38:16,NA,incomplete,false,true,NA,2,18,NA,black,m_l_029.jpg,NA,NA,pleasant,unpleasant,NA,NA,NA,NA,NA,left,1310.5,true,NA,NA,NA,NA,NA
CI4hqnO4,3uy4pis8ruyxp7v852m6xfad2fzn1g,378xpawrugq3sevbv779ss3rmygiat,CI4hqnO4,2020-0188,2021-10-17,13:18:10,14:38:16,NA,incomplete,false,true,NA,2,19,NA,black,n_s_098.jpg,NA,NA,unpleasant,pleasant,NA,NA,NA,NA,NA,right,979,true,NA,NA,NA,NA,NA
CI4hqnO4,3uy4pis8ruyxp7v852m6xfad2fzn1g,378xpawrugq3sevbv779ss3rmygiat,CI4hqnO4,2020-0188,2021-10-17,13:18:10,14:38:16,NA,incomplete,false,true,NA,2,20,NA,black,m_l_018.jpg,NA,NA,unpleasant,pleasant,NA,NA,NA,NA,NA,right,860.199999988079,true,NA,NA,NA,NA,NA
CI4hqnO4,3uy4pis8ruyxp7v852m6xfad2fzn1g,378xpawrugq3sevbv779ss3rmygiat,CI4hqnO4,2020-0188,2021-10-17,13:18:10,14:38:16,NA,incomplete,false,true,NA,2,21,NA,black,n_l_116.jpg,NA,NA,unpleasant,pleasant,NA,NA,NA,NA,NA,right,855.29999999702,true,NA,NA,NA,NA,NA
CI4hqnO4,3uy4pis8ruyxp7v852m6xfad2fzn1g,378xpawrugq3sevbv779ss3rmygiat,CI4hqnO4,2020-0188,2021-10-17,13:18:10,14:38:16,NA,incomplete,false,true,NA,2,22,NA,black,m_s_079.jpg,NA,NA,unpleasant,pleasant,NA,NA,NA,NA,NA,right,1129.5,true,NA,NA,NA,NA,NA
CI4hqnO4,3uy4pis8ruyxp7v852m6xfad2fzn1g,378xpawrugq3sevbv779ss3rmygiat,CI4hqnO4,2020-0188,2021-10-17,13:18:10,14:38:16,NA,incomplete,false,true,NA,2,23,NA,black,n_s_008.jpg,NA,NA,unpleasant,pleasant,NA,NA,NA,NA,NA,left,1129.09999999404,true,NA,NA,NA,NA,NA
CI4hqnO4,3uy4pis8ruyxp7v852m6xfad2fzn1g,378xpawrugq3sevbv779ss3rmygiat,CI4hqnO4,2020-0188,2021-10-17,13:18:10,14:38:16,NA,incomplete,false,true,NA,2,24,NA,purple,m_l_093.jpg,NA,NA,pleasant,unpleasant,NA,NA,NA,NA,NA,right,875.100000008941,true,NA,NA,NA,NA,NA
CI4hqnO4,3uy4pis8ruyxp7v852m6xfad2fzn1g,378xpawrugq3sevbv779ss3rmygiat,CI4hqnO4,2020-0188,2021-10-17,13:18:10,14:38:16,NA,incomplete,false,true,NA,2,25,NA,purple,n_l_079.jpg,NA,NA,pleasant,unpleasant,NA,NA,NA,NA,NA,left,1141.90000000596,true,NA,NA,NA,NA,NA
CI4hqnO4,3uy4pis8ruyxp7v852m6xfad2fzn1g,378xpawrugq3sevbv779ss3rmygiat,CI4hqnO4,2020-0188,2021-10-17,13:18:10,14:38:16,NA,incomplete,false,true,NA,2,26,NA,purple,n_s_085.jpg,NA,NA,pleasant,unpleasant,NA,NA,NA,NA,NA,left,1027.59999999404,true,NA,NA,NA,NA,NA
CI4hqnO4,3uy4pis8ruyxp7v852m6xfad2fzn1g,378xpawrugq3sevbv779ss3rmygiat,CI4hqnO4,2020-0188,2021-10-17,13:18:10,14:38:16,NA,incomplete,false,true,NA,2,27,NA,purple,m_l_046.jpg,NA,NA,pleasant,unpleasant,NA,NA,NA,NA,NA,left,899.90000000596,true,NA,NA,NA,NA,NA
CI4hqnO4,3uy4pis8ruyxp7v852m6xfad2fzn1g,378xpawrugq3sevbv779ss3rmygiat,CI4hqnO4,2020-0188,2021-10-17,13:18:10,14:38:16,NA,incomplete,false,true,NA,2,28,NA,purple,m_l_044.jpg,NA,NA,unpleasant,pleasant,NA,NA,NA,NA,NA,right,918.699999988079,true,NA,NA,NA,NA,NA
CI4hqnO4,3uy4pis8ruyxp7v852m6xfad2fzn1g,378xpawrugq3sevbv779ss3rmygiat,CI4hqnO4,2020-0188,2021-10-17,13:18:10,14:38:16,NA,incomplete,false,true,NA,2,29,NA,purple,n_l_044.jpg,NA,NA,unpleasant,pleasant,NA,NA,NA,NA,NA,right,997.5,true,NA,NA,NA,NA,NA
CI4hqnO4,3uy4pis8ruyxp7v852m6xfad2fzn1g,378xpawrugq3sevbv779ss3rmygiat,CI4hqnO4,2020-0188,2021-10-17,13:18:10,14:38:16,NA,incomplete,false,true,NA,2,30,NA,green,m_s_020.jpg,NA,NA,pleasant,unpleasant,NA,NA,NA,NA,NA,left,1423.5,true,NA,NA,NA,NA,NA
CI4hqnO4,3uy4pis8ruyxp7v852m6xfad2fzn1g,378xpawrugq3sevbv779ss3rmygiat,CI4hqnO4,2020-0188,2021-10-17,13:18:10,14:38:16,NA,incomplete,false,true,NA,2,31,NA,green,m_s_111.jpg,NA,NA,pleasant,unpleasant,NA,NA,NA,NA,NA,left,1187.19999998808,true,NA,NA,NA,NA,NA
CI4hqnO4,3uy4pis8ruyxp7v852m6xfad2fzn1g,378xpawrugq3sevbv779ss3rmygiat,CI4hqnO4,2020-0188,2021-10-17,13:18:10,14:38:16,NA,incomplete,false,true,NA,2,32,NA,green,m_s_101.jpg,NA,NA,pleasant,unpleasant,NA,NA,NA,NA,NA,left,1252.5,true,NA,NA,NA,NA,NA
CI4hqnO4,3uy4pis8ruyxp7v852m6xfad2fzn1g,378xpawrugq3sevbv779ss3rmygiat,CI4hqnO4,2020-0188,2021-10-17,13:18:10,14:38:16,NA,incomplete,false,true,NA,2,33,NA,green,m_s_103.jpg,NA,NA,unpleasant,pleasant,NA,NA,NA,NA,NA,left,1214.10000000894,true,NA,NA,NA,NA,NA
CI4hqnO4,3uy4pis8ruyxp7v852m6xfad2fzn1g,378xpawrugq3sevbv779ss3rmygiat,CI4hqnO4,2020-0188,2021-10-17,13:18:10,14:38:16,NA,incomplete,false,true,NA,2,34,NA,green,m_l_056.jpg,NA,NA,pleasant,unpleasant,NA,NA,NA,NA,NA,left,1302.70000000298,true,NA,NA,NA,NA,NA
CI4hqnO4,3uy4pis8ruyxp7v852m6xfad2fzn1g,378xpawrugq3sevbv779ss3rmygiat,CI4hqnO4,2020-0188,2021-10-17,13:18:10,14:38:16,NA,incomplete,false,true,NA,2,35,NA,green,n_l_111.jpg,NA,NA,unpleasant,pleasant,NA,NA,NA,NA,NA,right,805,true,NA,NA,NA,NA,NA
CI4hqnO4,3uy4pis8ruyxp7v852m6xfad2fzn1g,378xpawrugq3sevbv779ss3rmygiat,CI4hqnO4,2020-0188,2021-10-17,13:18:10,14:38:16,NA,incomplete,false,NA,true,2,0,NA,NA,NA,right,present,NA,NA,m_s_039.jpg,red,n_s_035.jpg,red,within,NA,NaN,NA,left,2375.2999999970198,0,1,1010.7000000029802
CI4hqnO4,3uy4pis8ruyxp7v852m6xfad2fzn1g,378xpawrugq3sevbv779ss3rmygiat,CI4hqnO4,2020-0188,2021-10-17,13:18:10,14:38:16,NA,incomplete,false,NA,true,2,1,NA,NA,NA,right,present,NA,NA,n_s_085.jpg,purple,m_s_079.jpg,black,between,NA,NaN,NA,left,1604.300000011921,0,1,547.2999999970198
CI4hqnO4,3uy4pis8ruyxp7v852m6xfad2fzn1g,378xpawrugq3sevbv779ss3rmygiat,CI4hqnO4,2020-0188,2021-10-17,13:18:10,14:38:16,NA,incomplete,false,NA,true,2,2,NA,NA,NA,left,present,NA,NA,n_l_079.jpg,purple,n_l_044.jpg,purple,within,NA,NaN,NA,left,1248.2999999970198,1,2,723.0999999940395
CI4hqnO4,3uy4pis8ruyxp7v852m6xfad2fzn1g,378xpawrugq3sevbv779ss3rmygiat,CI4hqnO4,2020-0188,2021-10-17,13:18:10,14:38:16,NA,incomplete,false,NA,true,2,3,NA,NA,NA,left,present,NA,NA,n_l_063.jpg,red,n_l_113.jpg,gray,between,NA,NaN,NA,right,884.4000000059605,0,1,707.6000000089407
CI4hqnO4,3uy4pis8ruyxp7v852m6xfad2fzn1g,378xpawrugq3sevbv779ss3rmygiat,CI4hqnO4,2020-0188,2021-10-17,13:18:10,14:38:16,NA,incomplete,false,NA,true,2,4,NA,NA,NA,right,present,NA,NA,m_l_067.jpg,white,m_l_036.jpg,white,within,NA,NaN,NA,right,1283.9000000059605,1,2,750.3000000119209
CI4hqnO4,3uy4pis8ruyxp7v852m6xfad2fzn1g,378xpawrugq3sevbv779ss3rmygiat,CI4hqnO4,2020-0188,2021-10-17,13:18:10,14:38:16,NA,incomplete,false,NA,true,2,5,NA,NA,NA,left,present,NA,NA,m_s_111.jpg,green,n_l_111.jpg,green,within,NA,NaN,NA,left,1069.7999999970198,1,1,524
CI4hqnO4,3uy4pis8ruyxp7v852m6xfad2fzn1g,378xpawrugq3sevbv779ss3rmygiat,CI4hqnO4,2020-0188,2021-10-17,13:18:10,14:38:16,NA,incomplete,false,NA,true,2,6,NA,NA,NA,left,present,NA,NA,n_s_098.jpg,black,n_s_008.jpg,black,within,NA,NaN,NA,right,1206.6000000089407,0,2,686.1000000089407
CI4hqnO4,3uy4pis8ruyxp7v852m6xfad2fzn1g,378xpawrugq3sevbv779ss3rmygiat,CI4hqnO4,2020-0188,2021-10-17,13:18:10,14:38:16,NA,incomplete,false,NA,true,2,7,NA,NA,NA,right,present,NA,NA,m_l_018.jpg,black,m_l_015.jpg,white,between,NA,NaN,NA,left,1561.9000000059605,0,2,737.5
CI4hqnO4,3uy4pis8ruyxp7v852m6xfad2fzn1g,378xpawrugq3sevbv779ss3rmygiat,CI4hqnO4,2020-0188,2021-10-17,13:18:10,14:38:16,NA,incomplete,false,NA,true,2,8,NA,NA,NA,right,present,NA,NA,n_l_068.jpg,gray,m_l_080.jpg,gray,within,NA,NaN,NA,right,1386.5,1,2,755.7999999970198
CI4hqnO4,3uy4pis8ruyxp7v852m6xfad2fzn1g,378xpawrugq3sevbv779ss3rmygiat,CI4hqnO4,2020-0188,2021-10-17,13:18:10,14:38:16,NA,incomplete,false,NA,true,2,9,NA,NA,NA,right,present,NA,NA,n_l_108.jpg,white,n_l_006.jpg,gray,between,NA,NaN,NA,right,1127.5999999940395,1,1,433.79999999701977
CI4hqnO4,3uy4pis8ruyxp7v852m6xfad2fzn1g,378xpawrugq3sevbv779ss3rmygiat,CI4hqnO4,2020-0188,2021-10-17,13:18:10,14:38:16,NA,incomplete,false,NA,true,2,10,NA,NA,NA,left,present,NA,NA,m_l_044.jpg,purple,m_s_101.jpg,green,between,NA,NaN,NA,left,1833.9000000059605,1,2,979.9000000059605
CI4hqnO4,3uy4pis8ruyxp7v852m6xfad2fzn1g,378xpawrugq3sevbv779ss3rmygiat,CI4hqnO4,2020-0188,2021-10-17,13:18:10,14:38:16,NA,incomplete,false,true,NA,3,0,NA,yellow,m_s_015.jpg,NA,NA,pleasant,unpleasant,NA,NA,NA,NA,NA,left,1961.90000000596,true,NA,NA,NA,NA,NA
CI4hqnO4,3uy4pis8ruyxp7v852m6xfad2fzn1g,378xpawrugq3sevbv779ss3rmygiat,CI4hqnO4,2020-0188,2021-10-17,13:18:10,14:38:16,NA,incomplete,false,true,NA,3,1,NA,yellow,m_l_072.jpg,NA,NA,pleasant,unpleasant,NA,NA,NA,NA,NA,left,1436.20000000298,true,NA,NA,NA,NA,NA
CI4hqnO4,3uy4pis8ruyxp7v852m6xfad2fzn1g,378xpawrugq3sevbv779ss3rmygiat,CI4hqnO4,2020-0188,2021-10-17,13:18:10,14:38:16,NA,incomplete,false,true,NA,3,2,NA,yellow,m_l_051.jpg,NA,NA,pleasant,unpleasant,NA,NA,NA,NA,NA,left,1221.59999999404,true,NA,NA,NA,NA,NA
CI4hqnO4,3uy4pis8ruyxp7v852m6xfad2fzn1g,378xpawrugq3sevbv779ss3rmygiat,CI4hqnO4,2020-0188,2021-10-17,13:18:10,14:38:16,NA,incomplete,false,true,NA,3,3,NA,yellow,m_s_038.jpg,NA,NA,pleasant,unpleasant,NA,NA,NA,NA,NA,left,1287.19999998808,true,NA,NA,NA,NA,NA
CI4hqnO4,3uy4pis8ruyxp7v852m6xfad2fzn1g,378xpawrugq3sevbv779ss3rmygiat,CI4hqnO4,2020-0188,2021-10-17,13:18:10,14:38:16,NA,incomplete,false,true,NA,3,4,NA,yellow,m_l_068.jpg,NA,NA,pleasant,unpleasant,NA,NA,NA,NA,NA,left,1020,true,NA,NA,NA,NA,NA
CI4hqnO4,3uy4pis8ruyxp7v852m6xfad2fzn1g,378xpawrugq3sevbv779ss3rmygiat,CI4hqnO4,2020-0188,2021-10-17,13:18:10,14:38:16,NA,incomplete,false,true,NA,3,5,NA,yellow,n_l_097.jpg,NA,NA,unpleasant,pleasant,NA,NA,NA,NA,NA,right,1159.10000000894,true,NA,NA,NA,NA,NA
CI4hqnO4,3uy4pis8ruyxp7v852m6xfad2fzn1g,378xpawrugq3sevbv779ss3rmygiat,CI4hqnO4,2020-0188,2021-10-17,13:18:10,14:38:16,NA,incomplete,false,true,NA,3,6,NA,purple,n_l_005.jpg,NA,NA,pleasant,unpleasant,NA,NA,NA,NA,NA,left,868.09999999404,true,NA,NA,NA,NA,NA
CI4hqnO4,3uy4pis8ruyxp7v852m6xfad2fzn1g,378xpawrugq3sevbv779ss3rmygiat,CI4hqnO4,2020-0188,2021-10-17,13:18:10,14:38:16,NA,incomplete,false,true,NA,3,7,NA,purple,m_l_013.jpg,NA,NA,unpleasant,pleasant,NA,NA,NA,NA,NA,right,843.40000000596,true,NA,NA,NA,NA,NA
CI4hqnO4,3uy4pis8ruyxp7v852m6xfad2fzn1g,378xpawrugq3sevbv779ss3rmygiat,CI4hqnO4,2020-0188,2021-10-17,13:18:10,14:38:16,NA,incomplete,false,true,NA,3,8,NA,purple,n_l_002.jpg,NA,NA,pleasant,unpleasant,NA,NA,NA,NA,NA,left,1198.79999999702,true,NA,NA,NA,NA,NA
CI4hqnO4,3uy4pis8ruyxp7v852m6xfad2fzn1g,378xpawrugq3sevbv779ss3rmygiat,CI4hqnO4,2020-0188,2021-10-17,13:18:10,14:38:16,NA,incomplete,false,true,NA,3,9,NA,purple,m_s_113.jpg,NA,NA,pleasant,unpleasant,NA,NA,NA,NA,NA,left,964.59999999404,true,NA,NA,NA,NA,NA
CI4hqnO4,3uy4pis8ruyxp7v852m6xfad2fzn1g,378xpawrugq3sevbv779ss3rmygiat,CI4hqnO4,2020-0188,2021-10-17,13:18:10,14:38:16,NA,incomplete,false,true,NA,3,10,NA,purple,m_l_082.jpg,NA,NA,pleasant,unpleasant,NA,NA,NA,NA,NA,left,946.20000000298,true,NA,NA,NA,NA,NA
CI4hqnO4,3uy4pis8ruyxp7v852m6xfad2fzn1g,378xpawrugq3sevbv779ss3rmygiat,CI4hqnO4,2020-0188,2021-10-17,13:18:10,14:38:16,NA,incomplete,false,true,NA,3,11,NA,purple,n_s_050.jpg,NA,NA,unpleasant,pleasant,NA,NA,NA,NA,NA,right,1061.90000000596,true,NA,NA,NA,NA,NA
CI4hqnO4,3uy4pis8ruyxp7v852m6xfad2fzn1g,378xpawrugq3sevbv779ss3rmygiat,CI4hqnO4,2020-0188,2021-10-17,13:18:10,14:38:16,NA,incomplete,false,true,NA,3,12,NA,orange,n_s_070.jpg,NA,NA,unpleasant,pleasant,NA,NA,NA,NA,NA,none,0,false,NA,NA,NA,NA,NA
CI4hqnO4,3uy4pis8ruyxp7v852m6xfad2fzn1g,378xpawrugq3sevbv779ss3rmygiat,CI4hqnO4,2020-0188,2021-10-17,13:18:10,14:38:16,NA,incomplete,false,true,NA,3,13,NA,orange,n_l_087.jpg,NA,NA,unpleasant,pleasant,NA,NA,NA,NA,NA,right,1168.5,true,NA,NA,NA,NA,NA
CI4hqnO4,3uy4pis8ruyxp7v852m6xfad2fzn1g,378xpawrugq3sevbv779ss3rmygiat,CI4hqnO4,2020-0188,2021-10-17,13:18:10,14:38:16,NA,incomplete,false,true,NA,3,14,NA,orange,m_s_053.jpg,NA,NA,pleasant,unpleasant,NA,NA,NA,NA,NA,left,1581.29999999702,true,NA,NA,NA,NA,NA
CI4hqnO4,3uy4pis8ruyxp7v852m6xfad2fzn1g,378xpawrugq3sevbv779ss3rmygiat,CI4hqnO4,2020-0188,2021-10-17,13:18:10,14:38:16,NA,incomplete,false,true,NA,3,15,NA,orange,m_s_046.jpg,NA,NA,pleasant,unpleasant,NA,NA,NA,NA,NA,left,1020.20000000298,true,NA,NA,NA,NA,NA
CI4hqnO4,3uy4pis8ruyxp7v852m6xfad2fzn1g,378xpawrugq3sevbv779ss3rmygiat,CI4hqnO4,2020-0188,2021-10-17,13:18:10,14:38:16,NA,incomplete,false,true,NA,3,16,NA,orange,m_l_116.jpg,NA,NA,unpleasant,pleasant,NA,NA,NA,NA,NA,right,964.79999999702,true,NA,NA,NA,NA,NA
CI4hqnO4,3uy4pis8ruyxp7v852m6xfad2fzn1g,378xpawrugq3sevbv779ss3rmygiat,CI4hqnO4,2020-0188,2021-10-17,13:18:10,14:38:16,NA,incomplete,false,true,NA,3,17,NA,orange,m_s_014.jpg,NA,NA,pleasant,unpleasant,NA,NA,NA,NA,NA,left,821.100000008941,true,NA,NA,NA,NA,NA
CI4hqnO4,3uy4pis8ruyxp7v852m6xfad2fzn1g,378xpawrugq3sevbv779ss3rmygiat,CI4hqnO4,2020-0188,2021-10-17,13:18:10,14:38:16,NA,incomplete,false,true,NA,3,18,NA,green,n_s_025.jpg,NA,NA,unpleasant,pleasant,NA,NA,NA,NA,NA,right,784.59999999404,true,NA,NA,NA,NA,NA
CI4hqnO4,3uy4pis8ruyxp7v852m6xfad2fzn1g,378xpawrugq3sevbv779ss3rmygiat,CI4hqnO4,2020-0188,2021-10-17,13:18:10,14:38:16,NA,incomplete,false,true,NA,3,19,NA,green,n_s_075.jpg,NA,NA,unpleasant,pleasant,NA,NA,NA,NA,NA,right,1038.40000000596,true,NA,NA,NA,NA,NA
CI4hqnO4,3uy4pis8ruyxp7v852m6xfad2fzn1g,378xpawrugq3sevbv779ss3rmygiat,CI4hqnO4,2020-0188,2021-10-17,13:18:10,14:38:16,NA,incomplete,false,true,NA,3,20,NA,green,n_l_082.jpg,NA,NA,unpleasant,pleasant,NA,NA,NA,NA,NA,right,1224.89999999106,true,NA,NA,NA,NA,NA
CI4hqnO4,3uy4pis8ruyxp7v852m6xfad2fzn1g,378xpawrugq3sevbv779ss3rmygiat,CI4hqnO4,2020-0188,2021-10-17,13:18:10,14:38:16,NA,incomplete,false,true,NA,3,21,NA,green,m_s_012.jpg,NA,NA,unpleasant,pleasant,NA,NA,NA,NA,NA,right,854.79999999702,true,NA,NA,NA,NA,NA
CI4hqnO4,3uy4pis8ruyxp7v852m6xfad2fzn1g,378xpawrugq3sevbv779ss3rmygiat,CI4hqnO4,2020-0188,2021-10-17,13:18:10,14:38:16,NA,incomplete,false,true,NA,3,22,NA,green,n_l_059.jpg,NA,NA,pleasant,unpleasant,NA,NA,NA,NA,NA,left,843.20000000298,true,NA,NA,NA,NA,NA
CI4hqnO4,3uy4pis8ruyxp7v852m6xfad2fzn1g,378xpawrugq3sevbv779ss3rmygiat,CI4hqnO4,2020-0188,2021-10-17,13:18:10,14:38:16,NA,incomplete,false,true,NA,3,23,NA,green,n_l_057.jpg,NA,NA,pleasant,unpleasant,NA,NA,NA,NA,NA,left,1027.90000000596,true,NA,NA,NA,NA,NA
CI4hqnO4,3uy4pis8ruyxp7v852m6xfad2fzn1g,378xpawrugq3sevbv779ss3rmygiat,CI4hqnO4,2020-0188,2021-10-17,13:18:10,14:38:16,NA,incomplete,false,true,NA,3,24,NA,brown,m_s_007.jpg,NA,NA,unpleasant,pleasant,NA,NA,NA,NA,NA,right,1202.19999998808,true,NA,NA,NA,NA,NA
CI4hqnO4,3uy4pis8ruyxp7v852m6xfad2fzn1g,378xpawrugq3sevbv779ss3rmygiat,CI4hqnO4,2020-0188,2021-10-17,13:18:10,14:38:16,NA,incomplete,false,true,NA,3,25,NA,brown,n_s_080.jpg,NA,NA,pleasant,unpleasant,NA,NA,NA,NA,NA,right,1226.09999999404,true,NA,NA,NA,NA,NA
CI4hqnO4,3uy4pis8ruyxp7v852m6xfad2fzn1g,378xpawrugq3sevbv779ss3rmygiat,CI4hqnO4,2020-0188,2021-10-17,13:18:10,14:38:16,NA,incomplete,false,true,NA,3,26,NA,brown,m_l_073.jpg,NA,NA,unpleasant,pleasant,NA,NA,NA,NA,NA,right,875.29999999702,true,NA,NA,NA,NA,NA
CI4hqnO4,3uy4pis8ruyxp7v852m6xfad2fzn1g,378xpawrugq3sevbv779ss3rmygiat,CI4hqnO4,2020-0188,2021-10-17,13:18:10,14:38:16,NA,incomplete,false,true,NA,3,27,NA,brown,n_l_049.jpg,NA,NA,pleasant,unpleasant,NA,NA,NA,NA,NA,left,742.5,true,NA,NA,NA,NA,NA
CI4hqnO4,3uy4pis8ruyxp7v852m6xfad2fzn1g,378xpawrugq3sevbv779ss3rmygiat,CI4hqnO4,2020-0188,2021-10-17,13:18:10,14:38:16,NA,incomplete,false,true,NA,3,28,NA,brown,m_s_032.jpg,NA,NA,pleasant,unpleasant,NA,NA,NA,NA,NA,left,796.29999999702,true,NA,NA,NA,NA,NA
CI4hqnO4,3uy4pis8ruyxp7v852m6xfad2fzn1g,378xpawrugq3sevbv779ss3rmygiat,CI4hqnO4,2020-0188,2021-10-17,13:18:10,14:38:16,NA,incomplete,false,true,NA,3,29,NA,brown,m_s_110.jpg,NA,NA,pleasant,unpleasant,NA,NA,NA,NA,NA,left,858.40000000596,true,NA,NA,NA,NA,NA
CI4hqnO4,3uy4pis8ruyxp7v852m6xfad2fzn1g,378xpawrugq3sevbv779ss3rmygiat,CI4hqnO4,2020-0188,2021-10-17,13:18:10,14:38:16,NA,incomplete,false,true,NA,3,30,NA,red,m_l_037.jpg,NA,NA,unpleasant,pleasant,NA,NA,NA,NA,NA,right,1255.89999999106,true,NA,NA,NA,NA,NA
CI4hqnO4,3uy4pis8ruyxp7v852m6xfad2fzn1g,378xpawrugq3sevbv779ss3rmygiat,CI4hqnO4,2020-0188,2021-10-17,13:18:10,14:38:16,NA,incomplete,false,true,NA,3,31,NA,red,m_s_085.jpg,NA,NA,unpleasant,pleasant,NA,NA,NA,NA,NA,left,1411.19999998808,true,NA,NA,NA,NA,NA
CI4hqnO4,3uy4pis8ruyxp7v852m6xfad2fzn1g,378xpawrugq3sevbv779ss3rmygiat,CI4hqnO4,2020-0188,2021-10-17,13:18:10,14:38:16,NA,incomplete,false,true,NA,3,32,NA,red,n_l_088.jpg,NA,NA,pleasant,unpleasant,NA,NA,NA,NA,NA,right,3447.70000000298,true,NA,NA,NA,NA,NA
CI4hqnO4,3uy4pis8ruyxp7v852m6xfad2fzn1g,378xpawrugq3sevbv779ss3rmygiat,CI4hqnO4,2020-0188,2021-10-17,13:18:10,14:38:16,NA,incomplete,false,true,NA,3,33,NA,red,n_l_093.jpg,NA,NA,unpleasant,pleasant,NA,NA,NA,NA,NA,right,843.300000011921,true,NA,NA,NA,NA,NA
CI4hqnO4,3uy4pis8ruyxp7v852m6xfad2fzn1g,378xpawrugq3sevbv779ss3rmygiat,CI4hqnO4,2020-0188,2021-10-17,13:18:10,14:38:16,NA,incomplete,false,true,NA,3,34,NA,red,n_s_057.jpg,NA,NA,pleasant,unpleasant,NA,NA,NA,NA,NA,left,680.29999999702,true,NA,NA,NA,NA,NA
CI4hqnO4,3uy4pis8ruyxp7v852m6xfad2fzn1g,378xpawrugq3sevbv779ss3rmygiat,CI4hqnO4,2020-0188,2021-10-17,13:18:10,14:38:16,NA,incomplete,false,true,NA,3,35,NA,red,m_s_010.jpg,NA,NA,unpleasant,pleasant,NA,NA,NA,NA,NA,right,987.399999991059,true,NA,NA,NA,NA,NA
CI4hqnO4,3uy4pis8ruyxp7v852m6xfad2fzn1g,378xpawrugq3sevbv779ss3rmygiat,CI4hqnO4,2020-0188,2021-10-17,13:18:10,14:38:16,NA,incomplete,false,NA,true,3,0,NA,NA,NA,left,absent,NA,NA,m_l_068.jpg,yellow,n_l_002.jpg,purple,between,NA,NaN,NA,right,2003.8999999910593,0,2,821.7999999970198
CI4hqnO4,3uy4pis8ruyxp7v852m6xfad2fzn1g,378xpawrugq3sevbv779ss3rmygiat,CI4hqnO4,2020-0188,2021-10-17,13:18:10,14:38:16,NA,incomplete,false,NA,true,3,1,NA,NA,NA,right,absent,NA,NA,n_l_057.jpg,green,n_s_075.jpg,green,within,NA,NaN,NA,left,1362,0,2,764.5
CI4hqnO4,3uy4pis8ruyxp7v852m6xfad2fzn1g,378xpawrugq3sevbv779ss3rmygiat,CI4hqnO4,2020-0188,2021-10-17,13:18:10,14:38:16,NA,incomplete,false,NA,true,3,2,NA,NA,NA,left,absent,NA,NA,m_l_013.jpg,purple,n_s_050.jpg,purple,within,NA,NaN,NA,right,1087.2000000029802,0,1,429.70000000298023
CI4hqnO4,3uy4pis8ruyxp7v852m6xfad2fzn1g,378xpawrugq3sevbv779ss3rmygiat,CI4hqnO4,2020-0188,2021-10-17,13:18:10,14:38:16,NA,incomplete,false,NA,true,3,3,NA,NA,NA,left,absent,NA,NA,m_l_082.jpg,purple,m_s_053.jpg,orange,between,NA,NaN,NA,left,1227.1000000089407,1,2,654.6999999880791
CI4hqnO4,3uy4pis8ruyxp7v852m6xfad2fzn1g,378xpawrugq3sevbv779ss3rmygiat,CI4hqnO4,2020-0188,2021-10-17,13:18:10,14:38:16,NA,incomplete,false,NA,true,3,4,NA,NA,NA,right,absent,NA,NA,n_l_082.jpg,green,m_l_116.jpg,orange,between,NA,NaN,NA,left,1224.5999999940395,0,1,498.09999999403954
CI4hqnO4,3uy4pis8ruyxp7v852m6xfad2fzn1g,378xpawrugq3sevbv779ss3rmygiat,CI4hqnO4,2020-0188,2021-10-17,13:18:10,14:38:16,NA,incomplete,false,NA,true,3,5,NA,NA,NA,left,absent,NA,NA,m_s_032.jpg,brown,n_l_088.jpg,red,between,NA,NaN,NA,left,1179.5999999940395,1,3,992
CI4hqnO4,3uy4pis8ruyxp7v852m6xfad2fzn1g,378xpawrugq3sevbv779ss3rmygiat,CI4hqnO4,2020-0188,2021-10-17,13:18:10,14:38:16,NA,incomplete,false,NA,true,3,6,NA,NA,NA,left,absent,NA,NA,m_s_085.jpg,red,m_s_010.jpg,red,within,NA,NaN,NA,right,1287.7000000029802,0,1,452.20000000298023
CI4hqnO4,3uy4pis8ruyxp7v852m6xfad2fzn1g,378xpawrugq3sevbv779ss3rmygiat,CI4hqnO4,2020-0188,2021-10-17,13:18:10,14:38:16,NA,incomplete,false,NA,true,3,7,NA,NA,NA,left,absent,NA,NA,m_l_072.jpg,yellow,n_l_097.jpg,yellow,within,NA,NaN,NA,right,1375.7999999970198,0,2,719.0999999940395
CI4hqnO4,3uy4pis8ruyxp7v852m6xfad2fzn1g,378xpawrugq3sevbv779ss3rmygiat,CI4hqnO4,2020-0188,2021-10-17,13:18:10,14:38:16,NA,incomplete,false,NA,true,3,8,NA,NA,NA,left,absent,NA,NA,n_s_080.jpg,brown,m_s_110.jpg,brown,within,NA,NaN,NA,left,931,1,2,638
CI4hqnO4,3uy4pis8ruyxp7v852m6xfad2fzn1g,378xpawrugq3sevbv779ss3rmygiat,CI4hqnO4,2020-0188,2021-10-17,13:18:10,14:38:16,NA,incomplete,false,NA,true,3,9,NA,NA,NA,left,absent,NA,NA,n_l_087.jpg,orange,m_s_014.jpg,orange,within,NA,NaN,NA,left,829.6000000089407,1,2,786.2000000029802
CI4hqnO4,3uy4pis8ruyxp7v852m6xfad2fzn1g,378xpawrugq3sevbv779ss3rmygiat,CI4hqnO4,2020-0188,2021-10-17,13:18:10,14:38:16,NA,incomplete,false,NA,true,3,10,NA,NA,NA,left,absent,NA,NA,n_l_059.jpg,green,m_l_073.jpg,brown,between,NA,NaN,NA,left,923,1,1,612.5
CI4hqnO4,3uy4pis8ruyxp7v852m6xfad2fzn1g,378xpawrugq3sevbv779ss3rmygiat,CI4hqnO4,2020-0188,2021-10-17,13:18:10,14:38:16,NA,incomplete,false,true,NA,4,0,NA,orange,m_l_005.jpg,NA,NA,unpleasant,pleasant,NA,NA,NA,NA,NA,right,1845.5,true,NA,NA,NA,NA,NA
CI4hqnO4,3uy4pis8ruyxp7v852m6xfad2fzn1g,378xpawrugq3sevbv779ss3rmygiat,CI4hqnO4,2020-0188,2021-10-17,13:18:10,14:38:16,NA,incomplete,false,true,NA,4,1,NA,orange,m_l_025.jpg,NA,NA,pleasant,unpleasant,NA,NA,NA,NA,NA,left,960,true,NA,NA,NA,NA,NA
CI4hqnO4,3uy4pis8ruyxp7v852m6xfad2fzn1g,378xpawrugq3sevbv779ss3rmygiat,CI4hqnO4,2020-0188,2021-10-17,13:18:10,14:38:16,NA,incomplete,false,true,NA,4,2,NA,orange,m_s_019.jpg,NA,NA,pleasant,unpleasant,NA,NA,NA,NA,NA,left,1380.10000000894,true,NA,NA,NA,NA,NA
CI4hqnO4,3uy4pis8ruyxp7v852m6xfad2fzn1g,378xpawrugq3sevbv779ss3rmygiat,CI4hqnO4,2020-0188,2021-10-17,13:18:10,14:38:16,NA,incomplete,false,true,NA,4,3,NA,orange,m_l_096.jpg,NA,NA,unpleasant,pleasant,NA,NA,NA,NA,NA,left,708.79999999702,true,NA,NA,NA,NA,NA
CI4hqnO4,3uy4pis8ruyxp7v852m6xfad2fzn1g,378xpawrugq3sevbv779ss3rmygiat,CI4hqnO4,2020-0188,2021-10-17,13:18:10,14:38:16,NA,incomplete,false,true,NA,4,4,NA,orange,m_l_047.jpg,NA,NA,unpleasant,pleasant,NA,NA,NA,NA,NA,right,935.79999999702,true,NA,NA,NA,NA,NA
CI4hqnO4,3uy4pis8ruyxp7v852m6xfad2fzn1g,378xpawrugq3sevbv779ss3rmygiat,CI4hqnO4,2020-0188,2021-10-17,13:18:10,14:38:16,NA,incomplete,false,true,NA,4,5,NA,orange,n_s_061.jpg,NA,NA,pleasant,unpleasant,NA,NA,NA,NA,NA,left,781,true,NA,NA,NA,NA,NA
CI4hqnO4,3uy4pis8ruyxp7v852m6xfad2fzn1g,378xpawrugq3sevbv779ss3rmygiat,CI4hqnO4,2020-0188,2021-10-17,13:18:10,14:38:16,NA,incomplete,false,true,NA,4,6,NA,purple,n_s_099.jpg,NA,NA,unpleasant,pleasant,NA,NA,NA,NA,NA,right,1070.20000000298,true,NA,NA,NA,NA,NA
CI4hqnO4,3uy4pis8ruyxp7v852m6xfad2fzn1g,378xpawrugq3sevbv779ss3rmygiat,CI4hqnO4,2020-0188,2021-10-17,13:18:10,14:38:16,NA,incomplete,false,true,NA,4,7,NA,purple,m_s_021.jpg,NA,NA,pleasant,unpleasant,NA,NA,NA,NA,NA,left,1125.79999999702,true,NA,NA,NA,NA,NA
CI4hqnO4,3uy4pis8ruyxp7v852m6xfad2fzn1g,378xpawrugq3sevbv779ss3rmygiat,CI4hqnO4,2020-0188,2021-10-17,13:18:10,14:38:16,NA,incomplete,false,true,NA,4,8,NA,purple,m_l_001.jpg,NA,NA,unpleasant,pleasant,NA,NA,NA,NA,NA,right,1310.70000000298,true,NA,NA,NA,NA,NA
CI4hqnO4,3uy4pis8ruyxp7v852m6xfad2fzn1g,378xpawrugq3sevbv779ss3rmygiat,CI4hqnO4,2020-0188,2021-10-17,13:18:10,14:38:16,NA,incomplete,false,true,NA,4,9,NA,purple,m_l_108.jpg,NA,NA,unpleasant,pleasant,NA,NA,NA,NA,NA,right,819.600000008941,true,NA,NA,NA,NA,NA
CI4hqnO4,3uy4pis8ruyxp7v852m6xfad2fzn1g,378xpawrugq3sevbv779ss3rmygiat,CI4hqnO4,2020-0188,2021-10-17,13:18:10,14:38:16,NA,incomplete,false,true,NA,4,10,NA,purple,n_l_073.jpg,NA,NA,pleasant,unpleasant,NA,NA,NA,NA,NA,left,966,true,NA,NA,NA,NA,NA
CI4hqnO4,3uy4pis8ruyxp7v852m6xfad2fzn1g,378xpawrugq3sevbv779ss3rmygiat,CI4hqnO4,2020-0188,2021-10-17,13:18:10,14:38:16,NA,incomplete,false,true,NA,4,11,NA,purple,n_l_011.jpg,NA,NA,unpleasant,pleasant,NA,NA,NA,NA,NA,right,824.79999999702,true,NA,NA,NA,NA,NA
CI4hqnO4,3uy4pis8ruyxp7v852m6xfad2fzn1g,378xpawrugq3sevbv779ss3rmygiat,CI4hqnO4,2020-0188,2021-10-17,13:18:10,14:38:16,NA,incomplete,false,true,NA,4,12,NA,white,n_s_100.jpg,NA,NA,pleasant,unpleasant,NA,NA,NA,NA,NA,left,1018.5,true,NA,NA,NA,NA,NA
CI4hqnO4,3uy4pis8ruyxp7v852m6xfad2fzn1g,378xpawrugq3sevbv779ss3rmygiat,CI4hqnO4,2020-0188,2021-10-17,13:18:10,14:38:16,NA,incomplete,false,true,NA,4,13,NA,white,m_l_031.jpg,NA,NA,pleasant,unpleasant,NA,NA,NA,NA,NA,left,773.5,true,NA,NA,NA,NA,NA
CI4hqnO4,3uy4pis8ruyxp7v852m6xfad2fzn1g,378xpawrugq3sevbv779ss3rmygiat,CI4hqnO4,2020-0188,2021-10-17,13:18:10,14:38:16,NA,incomplete,false,true,NA,4,14,NA,white,m_s_040.jpg,NA,NA,unpleasant,pleasant,NA,NA,NA,NA,NA,right,791.100000008941,true,NA,NA,NA,NA,NA
CI4hqnO4,3uy4pis8ruyxp7v852m6xfad2fzn1g,378xpawrugq3sevbv779ss3rmygiat,CI4hqnO4,2020-0188,2021-10-17,13:18:10,14:38:16,NA,incomplete,false,true,NA,4,15,NA,white,n_l_100.jpg,NA,NA,unpleasant,pleasant,NA,NA,NA,NA,NA,right,866.20000000298,true,NA,NA,NA,NA,NA
CI4hqnO4,3uy4pis8ruyxp7v852m6xfad2fzn1g,378xpawrugq3sevbv779ss3rmygiat,CI4hqnO4,2020-0188,2021-10-17,13:18:10,14:38:16,NA,incomplete,false,true,NA,4,16,NA,white,m_l_023.jpg,NA,NA,pleasant,unpleasant,NA,NA,NA,NA,NA,left,806.800000011921,true,NA,NA,NA,NA,NA
CI4hqnO4,3uy4pis8ruyxp7v852m6xfad2fzn1g,378xpawrugq3sevbv779ss3rmygiat,CI4hqnO4,2020-0188,2021-10-17,13:18:10,14:38:16,NA,incomplete,false,true,NA,4,17,NA,white,m_l_064.jpg,NA,NA,unpleasant,pleasant,NA,NA,NA,NA,NA,right,790.59999999404,true,NA,NA,NA,NA,NA
CI4hqnO4,3uy4pis8ruyxp7v852m6xfad2fzn1g,378xpawrugq3sevbv779ss3rmygiat,CI4hqnO4,2020-0188,2021-10-17,13:18:10,14:38:16,NA,incomplete,false,true,NA,4,18,NA,blue,m_s_073.jpg,NA,NA,pleasant,unpleasant,NA,NA,NA,NA,NA,left,764.40000000596,true,NA,NA,NA,NA,NA
CI4hqnO4,3uy4pis8ruyxp7v852m6xfad2fzn1g,378xpawrugq3sevbv779ss3rmygiat,CI4hqnO4,2020-0188,2021-10-17,13:18:10,14:38:16,NA,incomplete,false,true,NA,4,19,NA,blue,n_s_018.jpg,NA,NA,unpleasant,pleasant,NA,NA,NA,NA,NA,right,824.59999999404,true,NA,NA,NA,NA,NA
CI4hqnO4,3uy4pis8ruyxp7v852m6xfad2fzn1g,378xpawrugq3sevbv779ss3rmygiat,CI4hqnO4,2020-0188,2021-10-17,13:18:10,14:38:16,NA,incomplete,false,true,NA,4,20,NA,blue,m_l_079.jpg,NA,NA,pleasant,unpleasant,NA,NA,NA,NA,NA,left,722.399999991059,true,NA,NA,NA,NA,NA
CI4hqnO4,3uy4pis8ruyxp7v852m6xfad2fzn1g,378xpawrugq3sevbv779ss3rmygiat,CI4hqnO4,2020-0188,2021-10-17,13:18:10,14:38:16,NA,incomplete,false,true,NA,4,21,NA,blue,m_l_057.jpg,NA,NA,pleasant,unpleasant,NA,NA,NA,NA,NA,left,1088.70000000298,true,NA,NA,NA,NA,NA
CI4hqnO4,3uy4pis8ruyxp7v852m6xfad2fzn1g,378xpawrugq3sevbv779ss3rmygiat,CI4hqnO4,2020-0188,2021-10-17,13:18:10,14:38:16,NA,incomplete,false,true,NA,4,22,NA,blue,n_s_107.jpg,NA,NA,pleasant,unpleasant,NA,NA,NA,NA,NA,left,2214.29999999702,true,NA,NA,NA,NA,NA
CI4hqnO4,3uy4pis8ruyxp7v852m6xfad2fzn1g,378xpawrugq3sevbv779ss3rmygiat,CI4hqnO4,2020-0188,2021-10-17,13:18:10,14:38:16,NA,incomplete,false,true,NA,4,23,NA,blue,m_s_029.jpg,NA,NA,unpleasant,pleasant,NA,NA,NA,NA,NA,right,1022.09999999404,true,NA,NA,NA,NA,NA
CI4hqnO4,3uy4pis8ruyxp7v852m6xfad2fzn1g,378xpawrugq3sevbv779ss3rmygiat,CI4hqnO4,2020-0188,2021-10-17,13:18:10,14:38:16,NA,incomplete,false,true,NA,4,24,NA,red,m_s_065.jpg,NA,NA,pleasant,unpleasant,NA,NA,NA,NA,NA,left,884.29999999702,true,NA,NA,NA,NA,NA
CI4hqnO4,3uy4pis8ruyxp7v852m6xfad2fzn1g,378xpawrugq3sevbv779ss3rmygiat,CI4hqnO4,2020-0188,2021-10-17,13:18:10,14:38:16,NA,incomplete,false,true,NA,4,25,NA,red,m_s_091.jpg,NA,NA,unpleasant,pleasant,NA,NA,NA,NA,NA,right,812.79999999702,true,NA,NA,NA,NA,NA
CI4hqnO4,3uy4pis8ruyxp7v852m6xfad2fzn1g,378xpawrugq3sevbv779ss3rmygiat,CI4hqnO4,2020-0188,2021-10-17,13:18:10,14:38:16,NA,incomplete,false,true,NA,4,26,NA,red,m_s_025.jpg,NA,NA,pleasant,unpleasant,NA,NA,NA,NA,NA,left,738.29999999702,true,NA,NA,NA,NA,NA
CI4hqnO4,3uy4pis8ruyxp7v852m6xfad2fzn1g,378xpawrugq3sevbv779ss3rmygiat,CI4hqnO4,2020-0188,2021-10-17,13:18:10,14:38:16,NA,incomplete,false,true,NA,4,27,NA,red,n_s_012.jpg,NA,NA,pleasant,unpleasant,NA,NA,NA,NA,NA,left,989.40000000596,true,NA,NA,NA,NA,NA
CI4hqnO4,3uy4pis8ruyxp7v852m6xfad2fzn1g,378xpawrugq3sevbv779ss3rmygiat,CI4hqnO4,2020-0188,2021-10-17,13:18:10,14:38:16,NA,incomplete,false,true,NA,4,28,NA,red,m_l_086.jpg,NA,NA,pleasant,unpleasant,NA,NA,NA,NA,NA,left,1005.79999999702,true,NA,NA,NA,NA,NA
CI4hqnO4,3uy4pis8ruyxp7v852m6xfad2fzn1g,378xpawrugq3sevbv779ss3rmygiat,CI4hqnO4,2020-0188,2021-10-17,13:18:10,14:38:16,NA,incomplete,false,true,NA,4,29,NA,red,n_l_064.jpg,NA,NA,pleasant,unpleasant,NA,NA,NA,NA,NA,left,798.5,true,NA,NA,NA,NA,NA
CI4hqnO4,3uy4pis8ruyxp7v852m6xfad2fzn1g,378xpawrugq3sevbv779ss3rmygiat,CI4hqnO4,2020-0188,2021-10-17,13:18:10,14:38:16,NA,incomplete,false,true,NA,4,30,NA,gray,m_l_070.jpg,NA,NA,pleasant,unpleasant,NA,NA,NA,NA,NA,left,609.29999999702,true,NA,NA,NA,NA,NA
CI4hqnO4,3uy4pis8ruyxp7v852m6xfad2fzn1g,378xpawrugq3sevbv779ss3rmygiat,CI4hqnO4,2020-0188,2021-10-17,13:18:10,14:38:16,NA,incomplete,false,true,NA,4,31,NA,gray,m_l_114.jpg,NA,NA,pleasant,unpleasant,NA,NA,NA,NA,NA,left,600.5,true,NA,NA,NA,NA,NA
CI4hqnO4,3uy4pis8ruyxp7v852m6xfad2fzn1g,378xpawrugq3sevbv779ss3rmygiat,CI4hqnO4,2020-0188,2021-10-17,13:18:10,14:38:16,NA,incomplete,false,true,NA,4,32,NA,gray,m_s_098.jpg,NA,NA,unpleasant,pleasant,NA,NA,NA,NA,NA,left,569.29999999702,true,NA,NA,NA,NA,NA
CI4hqnO4,3uy4pis8ruyxp7v852m6xfad2fzn1g,378xpawrugq3sevbv779ss3rmygiat,CI4hqnO4,2020-0188,2021-10-17,13:18:10,14:38:16,NA,incomplete,false,true,NA,4,33,NA,gray,m_l_088.jpg,NA,NA,unpleasant,pleasant,NA,NA,NA,NA,NA,right,1618.79999999702,true,NA,NA,NA,NA,NA
CI4hqnO4,3uy4pis8ruyxp7v852m6xfad2fzn1g,378xpawrugq3sevbv779ss3rmygiat,CI4hqnO4,2020-0188,2021-10-17,13:18:10,14:38:16,NA,incomplete,false,true,NA,4,34,NA,gray,m_s_058.jpg,NA,NA,pleasant,unpleasant,NA,NA,NA,NA,NA,left,1657.20000000298,true,NA,NA,NA,NA,NA
CI4hqnO4,3uy4pis8ruyxp7v852m6xfad2fzn1g,378xpawrugq3sevbv779ss3rmygiat,CI4hqnO4,2020-0188,2021-10-17,13:18:10,14:38:16,NA,incomplete,false,true,NA,4,35,NA,gray,n_l_083.jpg,NA,NA,pleasant,unpleasant,NA,NA,NA,NA,NA,left,810.399999991059,true,NA,NA,NA,NA,NA
CI4hqnO4,3uy4pis8ruyxp7v852m6xfad2fzn1g,378xpawrugq3sevbv779ss3rmygiat,CI4hqnO4,2020-0188,2021-10-17,13:18:10,14:38:16,NA,incomplete,false,NA,true,4,0,NA,NA,NA,right,absent,NA,NA,m_l_001.jpg,purple,m_l_047.jpg,orange,between,NA,NaN,NA,right,1287.9000000059605,1,1,495.59999999403954
CI4hqnO4,3uy4pis8ruyxp7v852m6xfad2fzn1g,378xpawrugq3sevbv779ss3rmygiat,CI4hqnO4,2020-0188,2021-10-17,13:18:10,14:38:16,NA,incomplete,false,NA,true,4,1,NA,NA,NA,left,absent,NA,NA,n_s_107.jpg,blue,m_s_025.jpg,red,between,NA,NaN,NA,left,785.5999999940395,1,2,619.7999999970198
CI4hqnO4,3uy4pis8ruyxp7v852m6xfad2fzn1g,378xpawrugq3sevbv779ss3rmygiat,CI4hqnO4,2020-0188,2021-10-17,13:18:10,14:38:16,NA,incomplete,false,NA,true,4,2,NA,NA,NA,right,absent,NA,NA,m_s_040.jpg,white,n_l_073.jpg,purple,between,NA,NaN,NA,left,939.5,0,2,758.8000000119209
CI4hqnO4,3uy4pis8ruyxp7v852m6xfad2fzn1g,378xpawrugq3sevbv779ss3rmygiat,CI4hqnO4,2020-0188,2021-10-17,13:18:10,14:38:16,NA,incomplete,false,NA,true,4,3,NA,NA,NA,right,absent,NA,NA,n_l_064.jpg,red,m_s_091.jpg,red,within,NA,NaN,NA,left,829.1000000089407,0,2,783.5
CI4hqnO4,3uy4pis8ruyxp7v852m6xfad2fzn1g,378xpawrugq3sevbv779ss3rmygiat,CI4hqnO4,2020-0188,2021-10-17,13:18:10,14:38:16,NA,incomplete,false,NA,true,4,4,NA,NA,NA,right,absent,NA,NA,m_s_029.jpg,blue,n_s_018.jpg,blue,within,NA,NaN,NA,right,1213.4000000059605,1,1,487.79999999701977
CI4hqnO4,3uy4pis8ruyxp7v852m6xfad2fzn1g,378xpawrugq3sevbv779ss3rmygiat,CI4hqnO4,2020-0188,2021-10-17,13:18:10,14:38:16,NA,incomplete,false,NA,true,4,5,NA,NA,NA,right,absent,NA,NA,m_s_098.jpg,gray,m_l_086.jpg,red,between,NA,NaN,NA,right,643,1,2,711.5
CI4hqnO4,3uy4pis8ruyxp7v852m6xfad2fzn1g,378xpawrugq3sevbv779ss3rmygiat,CI4hqnO4,2020-0188,2021-10-17,13:18:10,14:38:16,NA,incomplete,false,NA,true,4,6,NA,NA,NA,right,absent,NA,NA,m_l_064.jpg,white,m_l_031.jpg,white,within,NA,NaN,NA,right,820.9000000059605,1,1,711.1000000089407
CI4hqnO4,3uy4pis8ruyxp7v852m6xfad2fzn1g,378xpawrugq3sevbv779ss3rmygiat,CI4hqnO4,2020-0188,2021-10-17,13:18:10,14:38:16,NA,incomplete,false,NA,true,4,7,NA,NA,NA,right,absent,NA,NA,n_l_083.jpg,gray,m_l_114.jpg,gray,within,NA,NaN,NA,left,801.3000000119209,0,2,734.6000000089407
CI4hqnO4,3uy4pis8ruyxp7v852m6xfad2fzn1g,378xpawrugq3sevbv779ss3rmygiat,CI4hqnO4,2020-0188,2021-10-17,13:18:10,14:38:16,NA,incomplete,false,NA,true,4,8,NA,NA,NA,left,absent,NA,NA,m_l_025.jpg,orange,n_s_061.jpg,orange,within,NA,NaN,NA,left,918.7000000029802,1,2,748.4000000059605
CI4hqnO4,3uy4pis8ruyxp7v852m6xfad2fzn1g,378xpawrugq3sevbv779ss3rmygiat,CI4hqnO4,2020-0188,2021-10-17,13:18:10,14:38:16,NA,incomplete,false,NA,true,4,9,NA,NA,NA,left,absent,NA,NA,m_l_023.jpg,white,m_l_079.jpg,blue,between,NA,NaN,NA,right,687.6000000089407,0,1,541.3999999910593
CI4hqnO4,3uy4pis8ruyxp7v852m6xfad2fzn1g,378xpawrugq3sevbv779ss3rmygiat,CI4hqnO4,2020-0188,2021-10-17,13:18:10,14:38:16,NA,incomplete,false,NA,true,4,10,NA,NA,NA,left,absent,NA,NA,m_s_021.jpg,purple,n_l_011.jpg,purple,within,NA,NaN,NA,right,663.3999999910593,0,1,472
CI4hqnO4,3uy4pis8ruyxp7v852m6xfad2fzn1g,378xpawrugq3sevbv779ss3rmygiat,CI4hqnO4,2020-0188,2021-10-17,13:18:10,14:38:16,NA,incomplete,false,true,NA,5,0,NA,green,n_l_014.jpg,NA,NA,unpleasant,pleasant,NA,NA,NA,NA,NA,right,1841.70000000298,true,NA,NA,NA,NA,NA
CI4hqnO4,3uy4pis8ruyxp7v852m6xfad2fzn1g,378xpawrugq3sevbv779ss3rmygiat,CI4hqnO4,2020-0188,2021-10-17,13:18:10,14:38:16,NA,incomplete,false,true,NA,5,1,NA,green,n_l_092.jpg,NA,NA,pleasant,unpleasant,NA,NA,NA,NA,NA,left,1498.5,true,NA,NA,NA,NA,NA
CI4hqnO4,3uy4pis8ruyxp7v852m6xfad2fzn1g,378xpawrugq3sevbv779ss3rmygiat,CI4hqnO4,2020-0188,2021-10-17,13:18:10,14:38:16,NA,incomplete,false,true,NA,5,2,NA,green,m_l_062.jpg,NA,NA,pleasant,unpleasant,NA,NA,NA,NA,NA,left,1686.09999999404,true,NA,NA,NA,NA,NA
CI4hqnO4,3uy4pis8ruyxp7v852m6xfad2fzn1g,378xpawrugq3sevbv779ss3rmygiat,CI4hqnO4,2020-0188,2021-10-17,13:18:10,14:38:16,NA,incomplete,false,true,NA,5,3,NA,green,n_l_084.jpg,NA,NA,pleasant,unpleasant,NA,NA,NA,NA,NA,left,1618.29999999702,true,NA,NA,NA,NA,NA
CI4hqnO4,3uy4pis8ruyxp7v852m6xfad2fzn1g,378xpawrugq3sevbv779ss3rmygiat,CI4hqnO4,2020-0188,2021-10-17,13:18:10,14:38:16,NA,incomplete,false,true,NA,5,4,NA,green,n_s_116.jpg,NA,NA,unpleasant,pleasant,NA,NA,NA,NA,NA,left,1359.89999999106,true,NA,NA,NA,NA,NA
CI4hqnO4,3uy4pis8ruyxp7v852m6xfad2fzn1g,378xpawrugq3sevbv779ss3rmygiat,CI4hqnO4,2020-0188,2021-10-17,13:18:10,14:38:16,NA,incomplete,false,true,NA,5,5,NA,green,n_s_016.jpg,NA,NA,unpleasant,pleasant,NA,NA,NA,NA,NA,right,1273,true,NA,NA,NA,NA,NA
CI4hqnO4,3uy4pis8ruyxp7v852m6xfad2fzn1g,378xpawrugq3sevbv779ss3rmygiat,CI4hqnO4,2020-0188,2021-10-17,13:18:10,14:38:16,NA,incomplete,false,true,NA,5,6,NA,brown,m_s_037.jpg,NA,NA,pleasant,unpleasant,NA,NA,NA,NA,NA,left,941.800000011921,true,NA,NA,NA,NA,NA
CI4hqnO4,3uy4pis8ruyxp7v852m6xfad2fzn1g,378xpawrugq3sevbv779ss3rmygiat,CI4hqnO4,2020-0188,2021-10-17,13:18:10,14:38:16,NA,incomplete,false,true,NA,5,7,NA,brown,m_l_002.jpg,NA,NA,pleasant,unpleasant,NA,NA,NA,NA,NA,left,970.29999999702,true,NA,NA,NA,NA,NA
CI4hqnO4,3uy4pis8ruyxp7v852m6xfad2fzn1g,378xpawrugq3sevbv779ss3rmygiat,CI4hqnO4,2020-0188,2021-10-17,13:18:10,14:38:16,NA,incomplete,false,true,NA,5,8,NA,brown,n_l_069.jpg,NA,NA,unpleasant,pleasant,NA,NA,NA,NA,NA,right,946.90000000596,true,NA,NA,NA,NA,NA
CI4hqnO4,3uy4pis8ruyxp7v852m6xfad2fzn1g,378xpawrugq3sevbv779ss3rmygiat,CI4hqnO4,2020-0188,2021-10-17,13:18:10,14:38:16,NA,incomplete,false,true,NA,5,9,NA,brown,n_l_078.jpg,NA,NA,unpleasant,pleasant,NA,NA,NA,NA,NA,right,945.199999988079,true,NA,NA,NA,NA,NA
CI4hqnO4,3uy4pis8ruyxp7v852m6xfad2fzn1g,378xpawrugq3sevbv779ss3rmygiat,CI4hqnO4,2020-0188,2021-10-17,13:18:10,14:38:16,NA,incomplete,false,true,NA,5,10,NA,brown,n_l_003.jpg,NA,NA,unpleasant,pleasant,NA,NA,NA,NA,NA,right,1647.29999999702,true,NA,NA,NA,NA,NA
CI4hqnO4,3uy4pis8ruyxp7v852m6xfad2fzn1g,378xpawrugq3sevbv779ss3rmygiat,CI4hqnO4,2020-0188,2021-10-17,13:18:10,14:38:16,NA,incomplete,false,true,NA,5,11,NA,brown,n_s_041.jpg,NA,NA,pleasant,unpleasant,NA,NA,NA,NA,NA,left,1598.59999999404,true,NA,NA,NA,NA,NA
CI4hqnO4,3uy4pis8ruyxp7v852m6xfad2fzn1g,378xpawrugq3sevbv779ss3rmygiat,CI4hqnO4,2020-0188,2021-10-17,13:18:10,14:38:16,NA,incomplete,false,true,NA,5,12,NA,black,n_l_075.jpg,NA,NA,unpleasant,pleasant,NA,NA,NA,NA,NA,left,973.100000008941,true,NA,NA,NA,NA,NA
CI4hqnO4,3uy4pis8ruyxp7v852m6xfad2fzn1g,378xpawrugq3sevbv779ss3rmygiat,CI4hqnO4,2020-0188,2021-10-17,13:18:10,14:38:16,NA,incomplete,false,true,NA,5,13,NA,black,n_l_107.jpg,NA,NA,unpleasant,pleasant,NA,NA,NA,NA,NA,right,886.699999988079,true,NA,NA,NA,NA,NA
CI4hqnO4,3uy4pis8ruyxp7v852m6xfad2fzn1g,378xpawrugq3sevbv779ss3rmygiat,CI4hqnO4,2020-0188,2021-10-17,13:18:10,14:38:16,NA,incomplete,false,true,NA,5,14,NA,black,m_l_050.jpg,NA,NA,unpleasant,pleasant,NA,NA,NA,NA,NA,right,934.5,true,NA,NA,NA,NA,NA
CI4hqnO4,3uy4pis8ruyxp7v852m6xfad2fzn1g,378xpawrugq3sevbv779ss3rmygiat,CI4hqnO4,2020-0188,2021-10-17,13:18:10,14:38:16,NA,incomplete,false,true,NA,5,15,NA,black,n_s_020.jpg,NA,NA,pleasant,unpleasant,NA,NA,NA,NA,NA,left,974.79999999702,true,NA,NA,NA,NA,NA
CI4hqnO4,3uy4pis8ruyxp7v852m6xfad2fzn1g,378xpawrugq3sevbv779ss3rmygiat,CI4hqnO4,2020-0188,2021-10-17,13:18:10,14:38:16,NA,incomplete,false,true,NA,5,16,NA,black,n_s_108.jpg,NA,NA,pleasant,unpleasant,NA,NA,NA,NA,NA,right,1252.80000001192,true,NA,NA,NA,NA,NA
CI4hqnO4,3uy4pis8ruyxp7v852m6xfad2fzn1g,378xpawrugq3sevbv779ss3rmygiat,CI4hqnO4,2020-0188,2021-10-17,13:18:10,14:38:16,NA,incomplete,false,true,NA,5,17,NA,black,n_s_022.jpg,NA,NA,unpleasant,pleasant,NA,NA,NA,NA,NA,left,1145.70000000298,true,NA,NA,NA,NA,NA
CI4hqnO4,3uy4pis8ruyxp7v852m6xfad2fzn1g,378xpawrugq3sevbv779ss3rmygiat,CI4hqnO4,2020-0188,2021-10-17,13:18:10,14:38:16,NA,incomplete,false,true,NA,5,18,NA,yellow,m_l_103.jpg,NA,NA,unpleasant,pleasant,NA,NA,NA,NA,NA,right,1072.29999999702,true,NA,NA,NA,NA,NA
CI4hqnO4,3uy4pis8ruyxp7v852m6xfad2fzn1g,378xpawrugq3sevbv779ss3rmygiat,CI4hqnO4,2020-0188,2021-10-17,13:18:10,14:38:16,NA,incomplete,false,true,NA,5,19,NA,yellow,n_l_106.jpg,NA,NA,pleasant,unpleasant,NA,NA,NA,NA,NA,left,906.5,true,NA,NA,NA,NA,NA
CI4hqnO4,3uy4pis8ruyxp7v852m6xfad2fzn1g,378xpawrugq3sevbv779ss3rmygiat,CI4hqnO4,2020-0188,2021-10-17,13:18:10,14:38:16,NA,incomplete,false,true,NA,5,20,NA,yellow,m_l_065.jpg,NA,NA,unpleasant,pleasant,NA,NA,NA,NA,NA,right,800.59999999404,true,NA,NA,NA,NA,NA
CI4hqnO4,3uy4pis8ruyxp7v852m6xfad2fzn1g,378xpawrugq3sevbv779ss3rmygiat,CI4hqnO4,2020-0188,2021-10-17,13:18:10,14:38:16,NA,incomplete,false,true,NA,5,21,NA,yellow,m_s_108.jpg,NA,NA,pleasant,unpleasant,NA,NA,NA,NA,NA,left,1106.40000000596,true,NA,NA,NA,NA,NA
CI4hqnO4,3uy4pis8ruyxp7v852m6xfad2fzn1g,378xpawrugq3sevbv779ss3rmygiat,CI4hqnO4,2020-0188,2021-10-17,13:18:10,14:38:16,NA,incomplete,false,true,NA,5,22,NA,yellow,n_l_051.jpg,NA,NA,pleasant,unpleasant,NA,NA,NA,NA,NA,left,882.40000000596,true,NA,NA,NA,NA,NA
CI4hqnO4,3uy4pis8ruyxp7v852m6xfad2fzn1g,378xpawrugq3sevbv779ss3rmygiat,CI4hqnO4,2020-0188,2021-10-17,13:18:10,14:38:16,NA,incomplete,false,true,NA,5,23,NA,yellow,m_l_113.jpg,NA,NA,unpleasant,pleasant,NA,NA,NA,NA,NA,right,822.5,true,NA,NA,NA,NA,NA
CI4hqnO4,3uy4pis8ruyxp7v852m6xfad2fzn1g,378xpawrugq3sevbv779ss3rmygiat,CI4hqnO4,2020-0188,2021-10-17,13:18:10,14:38:16,NA,incomplete,false,true,NA,5,24,NA,gray,m_l_085.jpg,NA,NA,unpleasant,pleasant,NA,NA,NA,NA,NA,right,813.40000000596,true,NA,NA,NA,NA,NA
CI4hqnO4,3uy4pis8ruyxp7v852m6xfad2fzn1g,378xpawrugq3sevbv779ss3rmygiat,CI4hqnO4,2020-0188,2021-10-17,13:18:10,14:38:16,NA,incomplete,false,true,NA,5,25,NA,gray,n_s_005.jpg,NA,NA,unpleasant,pleasant,NA,NA,NA,NA,NA,right,677.70000000298,true,NA,NA,NA,NA,NA
CI4hqnO4,3uy4pis8ruyxp7v852m6xfad2fzn1g,378xpawrugq3sevbv779ss3rmygiat,CI4hqnO4,2020-0188,2021-10-17,13:18:10,14:38:16,NA,incomplete,false,true,NA,5,26,NA,gray,n_s_049.jpg,NA,NA,pleasant,unpleasant,NA,NA,NA,NA,NA,left,1203.59999999404,true,NA,NA,NA,NA,NA
CI4hqnO4,3uy4pis8ruyxp7v852m6xfad2fzn1g,378xpawrugq3sevbv779ss3rmygiat,CI4hqnO4,2020-0188,2021-10-17,13:18:10,14:38:16,NA,incomplete,false,true,NA,5,27,NA,gray,m_s_094.jpg,NA,NA,pleasant,unpleasant,NA,NA,NA,NA,NA,right,1293.19999998808,true,NA,NA,NA,NA,NA
CI4hqnO4,3uy4pis8ruyxp7v852m6xfad2fzn1g,378xpawrugq3sevbv779ss3rmygiat,CI4hqnO4,2020-0188,2021-10-17,13:18:10,14:38:16,NA,incomplete,false,true,NA,5,28,NA,gray,m_l_111.jpg,NA,NA,pleasant,unpleasant,NA,NA,NA,NA,NA,left,838.70000000298,true,NA,NA,NA,NA,NA
CI4hqnO4,3uy4pis8ruyxp7v852m6xfad2fzn1g,378xpawrugq3sevbv779ss3rmygiat,CI4hqnO4,2020-0188,2021-10-17,13:18:10,14:38:16,NA,incomplete,false,true,NA,5,29,NA,gray,n_l_018.jpg,NA,NA,unpleasant,pleasant,NA,NA,NA,NA,NA,left,789.59999999404,true,NA,NA,NA,NA,NA
CI4hqnO4,3uy4pis8ruyxp7v852m6xfad2fzn1g,378xpawrugq3sevbv779ss3rmygiat,CI4hqnO4,2020-0188,2021-10-17,13:18:10,14:38:16,NA,incomplete,false,true,NA,5,30,NA,white,n_l_114.jpg,NA,NA,unpleasant,pleasant,NA,NA,NA,NA,NA,right,731.09999999404,true,NA,NA,NA,NA,NA
CI4hqnO4,3uy4pis8ruyxp7v852m6xfad2fzn1g,378xpawrugq3sevbv779ss3rmygiat,CI4hqnO4,2020-0188,2021-10-17,13:18:10,14:38:16,NA,incomplete,false,true,NA,5,31,NA,white,m_l_058.jpg,NA,NA,pleasant,unpleasant,NA,NA,NA,NA,NA,left,1354.70000000298,true,NA,NA,NA,NA,NA
CI4hqnO4,3uy4pis8ruyxp7v852m6xfad2fzn1g,378xpawrugq3sevbv779ss3rmygiat,CI4hqnO4,2020-0188,2021-10-17,13:18:10,14:38:16,NA,incomplete,false,true,NA,5,32,NA,white,n_s_083.jpg,NA,NA,pleasant,unpleasant,NA,NA,NA,NA,NA,right,717.79999999702,true,NA,NA,NA,NA,NA
CI4hqnO4,3uy4pis8ruyxp7v852m6xfad2fzn1g,378xpawrugq3sevbv779ss3rmygiat,CI4hqnO4,2020-0188,2021-10-17,13:18:10,14:38:16,NA,incomplete,false,true,NA,5,33,NA,white,n_l_076.jpg,NA,NA,unpleasant,pleasant,NA,NA,NA,NA,NA,right,1294.5,true,NA,NA,NA,NA,NA
CI4hqnO4,3uy4pis8ruyxp7v852m6xfad2fzn1g,378xpawrugq3sevbv779ss3rmygiat,CI4hqnO4,2020-0188,2021-10-17,13:18:10,14:38:16,NA,incomplete,false,true,NA,5,34,NA,white,n_s_015.jpg,NA,NA,unpleasant,pleasant,NA,NA,NA,NA,NA,left,920.70000000298,true,NA,NA,NA,NA,NA
CI4hqnO4,3uy4pis8ruyxp7v852m6xfad2fzn1g,378xpawrugq3sevbv779ss3rmygiat,CI4hqnO4,2020-0188,2021-10-17,13:18:10,14:38:16,NA,incomplete,false,true,NA,5,35,NA,white,n_l_021.jpg,NA,NA,pleasant,unpleasant,NA,NA,NA,NA,NA,right,711.79999999702,true,NA,NA,NA,NA,NA
CI4hqnO4,3uy4pis8ruyxp7v852m6xfad2fzn1g,378xpawrugq3sevbv779ss3rmygiat,CI4hqnO4,2020-0188,2021-10-17,13:18:10,14:38:16,NA,incomplete,false,NA,true,5,0,NA,NA,NA,left,present,NA,NA,n_s_108.jpg,black,m_l_065.jpg,yellow,between,NA,NaN,NA,right,1677.7999999970198,0,2,674.7000000029802
CI4hqnO4,3uy4pis8ruyxp7v852m6xfad2fzn1g,378xpawrugq3sevbv779ss3rmygiat,CI4hqnO4,2020-0188,2021-10-17,13:18:10,14:38:16,NA,incomplete,false,NA,true,5,1,NA,NA,NA,right,present,NA,NA,n_l_021.jpg,white,m_l_058.jpg,white,within,NA,NaN,NA,right,929.2000000029802,1,1,1098.2000000029802
CI4hqnO4,3uy4pis8ruyxp7v852m6xfad2fzn1g,378xpawrugq3sevbv779ss3rmygiat,CI4hqnO4,2020-0188,2021-10-17,13:18:10,14:38:16,NA,incomplete,false,NA,true,5,2,NA,NA,NA,left,present,NA,NA,n_l_092.jpg,green,n_s_016.jpg,green,within,NA,NaN,NA,right,767.4000000059605,0,1,491.40000000596046
CI4hqnO4,3uy4pis8ruyxp7v852m6xfad2fzn1g,378xpawrugq3sevbv779ss3rmygiat,CI4hqnO4,2020-0188,2021-10-17,13:18:10,14:38:16,NA,incomplete,false,NA,true,5,3,NA,NA,NA,left,present,NA,NA,m_l_111.jpg,gray,n_s_083.jpg,white,between,NA,NaN,NA,left,869.7999999970198,1,1,439.70000000298023
CI4hqnO4,3uy4pis8ruyxp7v852m6xfad2fzn1g,378xpawrugq3sevbv779ss3rmygiat,CI4hqnO4,2020-0188,2021-10-17,13:18:10,14:38:16,NA,incomplete,false,NA,true,5,4,NA,NA,NA,left,present,NA,NA,n_s_116.jpg,green,n_l_069.jpg,brown,between,NA,NaN,NA,left,1449.7999999970198,1,2,653.1000000089407
CI4hqnO4,3uy4pis8ruyxp7v852m6xfad2fzn1g,378xpawrugq3sevbv779ss3rmygiat,CI4hqnO4,2020-0188,2021-10-17,13:18:10,14:38:16,NA,incomplete,false,NA,true,5,5,NA,NA,NA,right,present,NA,NA,m_l_050.jpg,black,n_l_003.jpg,brown,between,NA,NaN,NA,left,802.8000000119209,0,2,693.5999999940395
CI4hqnO4,3uy4pis8ruyxp7v852m6xfad2fzn1g,378xpawrugq3sevbv779ss3rmygiat,CI4hqnO4,2020-0188,2021-10-17,13:18:10,14:38:16,NA,incomplete,false,NA,true,5,6,NA,NA,NA,left,present,NA,NA,n_l_107.jpg,black,n_s_022.jpg,black,within,NA,NaN,NA,left,990.2999999970198,1,2,618.5
CI4hqnO4,3uy4pis8ruyxp7v852m6xfad2fzn1g,378xpawrugq3sevbv779ss3rmygiat,CI4hqnO4,2020-0188,2021-10-17,13:18:10,14:38:16,NA,incomplete,false,NA,true,5,7,NA,NA,NA,right,present,NA,NA,m_l_113.jpg,yellow,n_l_106.jpg,yellow,within,NA,NaN,NA,right,764.5999999940395,1,1,331.80000001192093
CI4hqnO4,3uy4pis8ruyxp7v852m6xfad2fzn1g,378xpawrugq3sevbv779ss3rmygiat,CI4hqnO4,2020-0188,2021-10-17,13:18:10,14:38:16,NA,incomplete,false,NA,true,5,8,NA,NA,NA,left,present,NA,NA,n_s_005.jpg,gray,n_l_018.jpg,gray,within,NA,NaN,NA,left,888.8000000119209,1,1,1161
CI4hqnO4,3uy4pis8ruyxp7v852m6xfad2fzn1g,378xpawrugq3sevbv779ss3rmygiat,CI4hqnO4,2020-0188,2021-10-17,13:18:10,14:38:16,NA,incomplete,false,NA,true,5,9,NA,NA,NA,right,present,NA,NA,n_s_049.jpg,gray,n_l_051.jpg,yellow,between,NA,NaN,NA,left,978.2000000029802,0,2,739.8999999910593
CI4hqnO4,3uy4pis8ruyxp7v852m6xfad2fzn1g,378xpawrugq3sevbv779ss3rmygiat,CI4hqnO4,2020-0188,2021-10-17,13:18:10,14:38:16,NA,incomplete,false,NA,true,5,10,NA,NA,NA,left,present,NA,NA,m_l_002.jpg,brown,n_s_041.jpg,brown,within,NA,NaN,NA,right,595,0,1,618.3999999910593
CI4hqnO4,3uy4pis8ruyxp7v852m6xfad2fzn1g,378xpawrugq3sevbv779ss3rmygiat,CI4hqnO4,2020-0188,2021-10-17,13:18:10,14:38:16,NA,incomplete,false,true,NA,6,0,NA,gray,n_s_063.jpg,NA,NA,pleasant,unpleasant,NA,NA,NA,NA,NA,left,1727.79999999702,true,NA,NA,NA,NA,NA
CI4hqnO4,3uy4pis8ruyxp7v852m6xfad2fzn1g,378xpawrugq3sevbv779ss3rmygiat,CI4hqnO4,2020-0188,2021-10-17,13:18:10,14:38:16,NA,incomplete,false,true,NA,6,1,NA,gray,n_s_058.jpg,NA,NA,unpleasant,pleasant,NA,NA,NA,NA,NA,right,1407,true,NA,NA,NA,NA,NA
CI4hqnO4,3uy4pis8ruyxp7v852m6xfad2fzn1g,378xpawrugq3sevbv779ss3rmygiat,CI4hqnO4,2020-0188,2021-10-17,13:18:10,14:38:16,NA,incomplete,false,true,NA,6,2,NA,gray,m_s_033.jpg,NA,NA,unpleasant,pleasant,NA,NA,NA,NA,NA,right,1256.19999998808,true,NA,NA,NA,NA,NA
CI4hqnO4,3uy4pis8ruyxp7v852m6xfad2fzn1g,378xpawrugq3sevbv779ss3rmygiat,CI4hqnO4,2020-0188,2021-10-17,13:18:10,14:38:16,NA,incomplete,false,true,NA,6,3,NA,gray,n_s_068.jpg,NA,NA,unpleasant,pleasant,NA,NA,NA,NA,NA,right,1340.10000000894,true,NA,NA,NA,NA,NA
CI4hqnO4,3uy4pis8ruyxp7v852m6xfad2fzn1g,378xpawrugq3sevbv779ss3rmygiat,CI4hqnO4,2020-0188,2021-10-17,13:18:10,14:38:16,NA,incomplete,false,true,NA,6,4,NA,gray,n_s_102.jpg,NA,NA,pleasant,unpleasant,NA,NA,NA,NA,NA,right,857.5,true,NA,NA,NA,NA,NA
CI4hqnO4,3uy4pis8ruyxp7v852m6xfad2fzn1g,378xpawrugq3sevbv779ss3rmygiat,CI4hqnO4,2020-0188,2021-10-17,13:18:10,14:38:16,NA,incomplete,false,true,NA,6,5,NA,gray,m_l_101.jpg,NA,NA,unpleasant,pleasant,NA,NA,NA,NA,NA,right,1216.59999999404,true,NA,NA,NA,NA,NA
CI4hqnO4,3uy4pis8ruyxp7v852m6xfad2fzn1g,378xpawrugq3sevbv779ss3rmygiat,CI4hqnO4,2020-0188,2021-10-17,13:18:10,14:38:16,NA,incomplete,false,true,NA,6,6,NA,black,m_l_043.jpg,NA,NA,unpleasant,pleasant,NA,NA,NA,NA,NA,right,759.59999999404,true,NA,NA,NA,NA,NA
CI4hqnO4,3uy4pis8ruyxp7v852m6xfad2fzn1g,378xpawrugq3sevbv779ss3rmygiat,CI4hqnO4,2020-0188,2021-10-17,13:18:10,14:38:16,NA,incomplete,false,true,NA,6,7,NA,black,n_s_091.jpg,NA,NA,unpleasant,pleasant,NA,NA,NA,NA,NA,left,1236.70000000298,true,NA,NA,NA,NA,NA
CI4hqnO4,3uy4pis8ruyxp7v852m6xfad2fzn1g,378xpawrugq3sevbv779ss3rmygiat,CI4hqnO4,2020-0188,2021-10-17,13:18:10,14:38:16,NA,incomplete,false,true,NA,6,8,NA,black,m_s_006.jpg,NA,NA,unpleasant,pleasant,NA,NA,NA,NA,NA,right,1391.90000000596,true,NA,NA,NA,NA,NA
CI4hqnO4,3uy4pis8ruyxp7v852m6xfad2fzn1g,378xpawrugq3sevbv779ss3rmygiat,CI4hqnO4,2020-0188,2021-10-17,13:18:10,14:38:16,NA,incomplete,false,true,NA,6,9,NA,black,n_s_105.jpg,NA,NA,pleasant,unpleasant,NA,NA,NA,NA,NA,right,1642.70000000298,true,NA,NA,NA,NA,NA
CI4hqnO4,3uy4pis8ruyxp7v852m6xfad2fzn1g,378xpawrugq3sevbv779ss3rmygiat,CI4hqnO4,2020-0188,2021-10-17,13:18:10,14:38:16,NA,incomplete,false,true,NA,6,10,NA,black,n_s_011.jpg,NA,NA,unpleasant,pleasant,NA,NA,NA,NA,NA,right,2070.10000000894,true,NA,NA,NA,NA,NA
CI4hqnO4,3uy4pis8ruyxp7v852m6xfad2fzn1g,378xpawrugq3sevbv779ss3rmygiat,CI4hqnO4,2020-0188,2021-10-17,13:18:10,14:38:16,NA,incomplete,false,true,NA,6,11,NA,black,n_s_092.jpg,NA,NA,pleasant,unpleasant,NA,NA,NA,NA,NA,left,993,true,NA,NA,NA,NA,NA
CI4hqnO4,3uy4pis8ruyxp7v852m6xfad2fzn1g,378xpawrugq3sevbv779ss3rmygiat,CI4hqnO4,2020-0188,2021-10-17,13:18:10,14:38:16,NA,incomplete,false,true,NA,6,12,NA,brown,m_l_017.jpg,NA,NA,pleasant,unpleasant,NA,NA,NA,NA,NA,right,1431.69999998808,true,NA,NA,NA,NA,NA
CI4hqnO4,3uy4pis8ruyxp7v852m6xfad2fzn1g,378xpawrugq3sevbv779ss3rmygiat,CI4hqnO4,2020-0188,2021-10-17,13:18:10,14:38:16,NA,incomplete,false,true,NA,6,13,NA,brown,n_l_081.jpg,NA,NA,unpleasant,pleasant,NA,NA,NA,NA,NA,right,1218,true,NA,NA,NA,NA,NA
CI4hqnO4,3uy4pis8ruyxp7v852m6xfad2fzn1g,378xpawrugq3sevbv779ss3rmygiat,CI4hqnO4,2020-0188,2021-10-17,13:18:10,14:38:16,NA,incomplete,false,true,NA,6,14,NA,brown,m_s_082.jpg,NA,NA,pleasant,unpleasant,NA,NA,NA,NA,NA,left,2040.39999999106,true,NA,NA,NA,NA,NA
CI4hqnO4,3uy4pis8ruyxp7v852m6xfad2fzn1g,378xpawrugq3sevbv779ss3rmygiat,CI4hqnO4,2020-0188,2021-10-17,13:18:10,14:38:16,NA,incomplete,false,true,NA,6,15,NA,brown,m_l_049.jpg,NA,NA,unpleasant,pleasant,NA,NA,NA,NA,NA,right,1129.70000000298,true,NA,NA,NA,NA,NA
CI4hqnO4,3uy4pis8ruyxp7v852m6xfad2fzn1g,378xpawrugq3sevbv779ss3rmygiat,CI4hqnO4,2020-0188,2021-10-17,13:18:10,14:38:16,NA,incomplete,false,true,NA,6,16,NA,brown,m_s_030.jpg,NA,NA,unpleasant,pleasant,NA,NA,NA,NA,NA,right,1329.5,true,NA,NA,NA,NA,NA
CI4hqnO4,3uy4pis8ruyxp7v852m6xfad2fzn1g,378xpawrugq3sevbv779ss3rmygiat,CI4hqnO4,2020-0188,2021-10-17,13:18:10,14:38:16,NA,incomplete,false,true,NA,6,17,NA,brown,m_s_005.jpg,NA,NA,unpleasant,pleasant,NA,NA,NA,NA,NA,right,1117.5,true,NA,NA,NA,NA,NA
CI4hqnO4,3uy4pis8ruyxp7v852m6xfad2fzn1g,378xpawrugq3sevbv779ss3rmygiat,CI4hqnO4,2020-0188,2021-10-17,13:18:10,14:38:16,NA,incomplete,false,true,NA,6,18,NA,green,n_l_027.jpg,NA,NA,unpleasant,pleasant,NA,NA,NA,NA,NA,right,618.199999988079,true,NA,NA,NA,NA,NA
CI4hqnO4,3uy4pis8ruyxp7v852m6xfad2fzn1g,378xpawrugq3sevbv779ss3rmygiat,CI4hqnO4,2020-0188,2021-10-17,13:18:10,14:38:16,NA,incomplete,false,true,NA,6,19,NA,green,m_l_016.jpg,NA,NA,pleasant,unpleasant,NA,NA,NA,NA,NA,right,1970.29999999702,true,NA,NA,NA,NA,NA
CI4hqnO4,3uy4pis8ruyxp7v852m6xfad2fzn1g,378xpawrugq3sevbv779ss3rmygiat,CI4hqnO4,2020-0188,2021-10-17,13:18:10,14:38:16,NA,incomplete,false,true,NA,6,20,NA,green,n_l_067.jpg,NA,NA,pleasant,unpleasant,NA,NA,NA,NA,NA,left,1804.40000000596,true,NA,NA,NA,NA,NA
CI4hqnO4,3uy4pis8ruyxp7v852m6xfad2fzn1g,378xpawrugq3sevbv779ss3rmygiat,CI4hqnO4,2020-0188,2021-10-17,13:18:10,14:38:16,NA,incomplete,false,true,NA,6,21,NA,green,m_l_007.jpg,NA,NA,pleasant,unpleasant,NA,NA,NA,NA,NA,left,1383.89999999106,true,NA,NA,NA,NA,NA
CI4hqnO4,3uy4pis8ruyxp7v852m6xfad2fzn1g,378xpawrugq3sevbv779ss3rmygiat,CI4hqnO4,2020-0188,2021-10-17,13:18:10,14:38:16,NA,incomplete,false,true,NA,6,22,NA,green,m_s_013.jpg,NA,NA,unpleasant,pleasant,NA,NA,NA,NA,NA,left,1543.70000000298,true,NA,NA,NA,NA,NA
CI4hqnO4,3uy4pis8ruyxp7v852m6xfad2fzn1g,378xpawrugq3sevbv779ss3rmygiat,CI4hqnO4,2020-0188,2021-10-17,13:18:10,14:38:16,NA,incomplete,false,true,NA,6,23,NA,green,n_l_009.jpg,NA,NA,pleasant,unpleasant,NA,NA,NA,NA,NA,left,1525,true,NA,NA,NA,NA,NA
CI4hqnO4,3uy4pis8ruyxp7v852m6xfad2fzn1g,378xpawrugq3sevbv779ss3rmygiat,CI4hqnO4,2020-0188,2021-10-17,13:18:10,14:38:16,NA,incomplete,false,true,NA,6,24,NA,yellow,m_l_035.jpg,NA,NA,pleasant,unpleasant,NA,NA,NA,NA,NA,left,1071.59999999404,true,NA,NA,NA,NA,NA
CI4hqnO4,3uy4pis8ruyxp7v852m6xfad2fzn1g,378xpawrugq3sevbv779ss3rmygiat,CI4hqnO4,2020-0188,2021-10-17,13:18:10,14:38:16,NA,incomplete,false,true,NA,6,25,NA,yellow,n_l_043.jpg,NA,NA,pleasant,unpleasant,NA,NA,NA,NA,NA,left,1317.5,true,NA,NA,NA,NA,NA
CI4hqnO4,3uy4pis8ruyxp7v852m6xfad2fzn1g,378xpawrugq3sevbv779ss3rmygiat,CI4hqnO4,2020-0188,2021-10-17,13:18:10,14:38:16,NA,incomplete,false,true,NA,6,26,NA,yellow,m_s_035.jpg,NA,NA,pleasant,unpleasant,NA,NA,NA,NA,NA,left,1707.5,true,NA,NA,NA,NA,NA
CI4hqnO4,3uy4pis8ruyxp7v852m6xfad2fzn1g,378xpawrugq3sevbv779ss3rmygiat,CI4hqnO4,2020-0188,2021-10-17,13:18:10,14:38:16,NA,incomplete,false,true,NA,6,27,NA,yellow,n_l_035.jpg,NA,NA,unpleasant,pleasant,NA,NA,NA,NA,NA,right,1429,true,NA,NA,NA,NA,NA
CI4hqnO4,3uy4pis8ruyxp7v852m6xfad2fzn1g,378xpawrugq3sevbv779ss3rmygiat,CI4hqnO4,2020-0188,2021-10-17,13:18:10,14:38:16,NA,incomplete,false,true,NA,6,28,NA,yellow,m_l_104.jpg,NA,NA,unpleasant,pleasant,NA,NA,NA,NA,NA,right,1061,true,NA,NA,NA,NA,NA
CI4hqnO4,3uy4pis8ruyxp7v852m6xfad2fzn1g,378xpawrugq3sevbv779ss3rmygiat,CI4hqnO4,2020-0188,2021-10-17,13:18:10,14:38:16,NA,incomplete,false,true,NA,6,29,NA,yellow,m_l_089.jpg,NA,NA,pleasant,unpleasant,NA,NA,NA,NA,NA,right,1311.30000001192,true,NA,NA,NA,NA,NA
CI4hqnO4,3uy4pis8ruyxp7v852m6xfad2fzn1g,378xpawrugq3sevbv779ss3rmygiat,CI4hqnO4,2020-0188,2021-10-17,13:18:10,14:38:16,NA,incomplete,false,true,NA,6,30,NA,blue,m_l_052.jpg,NA,NA,unpleasant,pleasant,NA,NA,NA,NA,NA,right,1217.60000000894,true,NA,NA,NA,NA,NA
CI4hqnO4,3uy4pis8ruyxp7v852m6xfad2fzn1g,378xpawrugq3sevbv779ss3rmygiat,CI4hqnO4,2020-0188,2021-10-17,13:18:10,14:38:16,NA,incomplete,false,true,NA,6,31,NA,blue,n_l_004.jpg,NA,NA,pleasant,unpleasant,NA,NA,NA,NA,NA,left,1361.5,true,NA,NA,NA,NA,NA
CI4hqnO4,3uy4pis8ruyxp7v852m6xfad2fzn1g,378xpawrugq3sevbv779ss3rmygiat,CI4hqnO4,2020-0188,2021-10-17,13:18:10,14:38:16,NA,incomplete,false,true,NA,6,32,NA,blue,m_l_034.jpg,NA,NA,pleasant,unpleasant,NA,NA,NA,NA,NA,left,1036.10000000894,true,NA,NA,NA,NA,NA
CI4hqnO4,3uy4pis8ruyxp7v852m6xfad2fzn1g,378xpawrugq3sevbv779ss3rmygiat,CI4hqnO4,2020-0188,2021-10-17,13:18:10,14:38:16,NA,incomplete,false,true,NA,6,33,NA,blue,m_s_048.jpg,NA,NA,unpleasant,pleasant,NA,NA,NA,NA,NA,right,1188.70000000298,true,NA,NA,NA,NA,NA
CI4hqnO4,3uy4pis8ruyxp7v852m6xfad2fzn1g,378xpawrugq3sevbv779ss3rmygiat,CI4hqnO4,2020-0188,2021-10-17,13:18:10,14:38:16,NA,incomplete,false,true,NA,6,34,NA,blue,m_l_117.jpg,NA,NA,unpleasant,pleasant,NA,NA,NA,NA,NA,right,855.59999999404,true,NA,NA,NA,NA,NA
CI4hqnO4,3uy4pis8ruyxp7v852m6xfad2fzn1g,378xpawrugq3sevbv779ss3rmygiat,CI4hqnO4,2020-0188,2021-10-17,13:18:10,14:38:16,NA,incomplete,false,true,NA,6,35,NA,blue,n_l_047.jpg,NA,NA,pleasant,unpleasant,NA,NA,NA,NA,NA,left,1493.19999998808,true,NA,NA,NA,NA,NA
CI4hqnO4,3uy4pis8ruyxp7v852m6xfad2fzn1g,378xpawrugq3sevbv779ss3rmygiat,CI4hqnO4,2020-0188,2021-10-17,13:18:10,14:38:16,NA,incomplete,false,NA,true,6,0,NA,NA,NA,right,absent,NA,NA,m_s_082.jpg,brown,n_s_011.jpg,black,between,NA,NaN,NA,left,1808.7999999970198,0,1,540.5
CI4hqnO4,3uy4pis8ruyxp7v852m6xfad2fzn1g,378xpawrugq3sevbv779ss3rmygiat,CI4hqnO4,2020-0188,2021-10-17,13:18:10,14:38:16,NA,incomplete,false,NA,true,6,1,NA,NA,NA,left,absent,NA,NA,m_l_104.jpg,yellow,m_l_034.jpg,blue,between,NA,NaN,NA,left,821.4000000059605,1,2,3355.6000000089407
CI4hqnO4,3uy4pis8ruyxp7v852m6xfad2fzn1g,378xpawrugq3sevbv779ss3rmygiat,CI4hqnO4,2020-0188,2021-10-17,13:18:10,14:38:16,NA,incomplete,false,NA,true,6,2,NA,NA,NA,right,absent,NA,NA,m_l_089.jpg,yellow,n_l_043.jpg,yellow,within,NA,NaN,NA,left,811.2000000029802,0,2,765.8999999910593
CI4hqnO4,3uy4pis8ruyxp7v852m6xfad2fzn1g,378xpawrugq3sevbv779ss3rmygiat,CI4hqnO4,2020-0188,2021-10-17,13:18:10,14:38:16,NA,incomplete,false,NA,true,6,3,NA,NA,NA,right,absent,NA,NA,m_s_005.jpg,brown,n_l_081.jpg,brown,within,NA,NaN,NA,left,830,0,1,987.1999999880791
CI4hqnO4,3uy4pis8ruyxp7v852m6xfad2fzn1g,378xpawrugq3sevbv779ss3rmygiat,CI4hqnO4,2020-0188,2021-10-17,13:18:10,14:38:16,NA,incomplete,false,NA,true,6,4,NA,NA,NA,right,absent,NA,NA,m_s_006.jpg,black,n_s_102.jpg,gray,between,NA,NaN,NA,right,586.5999999940395,1,1,452.19999998807907
CI4hqnO4,3uy4pis8ruyxp7v852m6xfad2fzn1g,378xpawrugq3sevbv779ss3rmygiat,CI4hqnO4,2020-0188,2021-10-17,13:18:10,14:38:16,NA,incomplete,false,NA,true,6,5,NA,NA,NA,left,absent,NA,NA,n_s_058.jpg,gray,m_l_101.jpg,gray,within,NA,NaN,NA,right,708.5999999940395,0,2,696.1000000089407
CI4hqnO4,3uy4pis8ruyxp7v852m6xfad2fzn1g,378xpawrugq3sevbv779ss3rmygiat,CI4hqnO4,2020-0188,2021-10-17,13:18:10,14:38:16,NA,incomplete,false,NA,true,6,6,NA,NA,NA,right,absent,NA,NA,m_s_035.jpg,yellow,m_s_013.jpg,green,between,NA,NaN,NA,left,744,0,1,532.5999999940395
CI4hqnO4,3uy4pis8ruyxp7v852m6xfad2fzn1g,378xpawrugq3sevbv779ss3rmygiat,CI4hqnO4,2020-0188,2021-10-17,13:18:10,14:38:16,NA,incomplete,false,NA,true,6,7,NA,NA,NA,left,absent,NA,NA,n_l_004.jpg,blue,n_l_047.jpg,blue,within,NA,NaN,NA,left,799.3999999910593,1,1,671.6000000089407
CI4hqnO4,3uy4pis8ruyxp7v852m6xfad2fzn1g,378xpawrugq3sevbv779ss3rmygiat,CI4hqnO4,2020-0188,2021-10-17,13:18:10,14:38:16,NA,incomplete,false,NA,true,6,8,NA,NA,NA,left,absent,NA,NA,n_s_091.jpg,black,n_s_092.jpg,black,within,NA,NaN,NA,right,702.2999999970198,0,1,490
CI4hqnO4,3uy4pis8ruyxp7v852m6xfad2fzn1g,378xpawrugq3sevbv779ss3rmygiat,CI4hqnO4,2020-0188,2021-10-17,13:18:10,14:38:16,NA,incomplete,false,NA,true,6,9,NA,NA,NA,left,absent,NA,NA,m_l_016.jpg,green,n_l_009.jpg,green,within,NA,NaN,NA,left,955.5999999940395,1,2,693.7999999970198
CI4hqnO4,3uy4pis8ruyxp7v852m6xfad2fzn1g,378xpawrugq3sevbv779ss3rmygiat,CI4hqnO4,2020-0188,2021-10-17,13:18:10,14:38:16,NA,incomplete,false,NA,true,6,10,NA,NA,NA,right,absent,NA,NA,n_l_067.jpg,green,m_s_030.jpg,brown,between,NA,NaN,NA,right,613.9000000059605,1,1,445.70000000298023
CI4hqnO4,3uy4pis8ruyxp7v852m6xfad2fzn1g,378xpawrugq3sevbv779ss3rmygiat,CI4hqnO4,2020-0188,2021-10-17,13:18:10,14:38:16,NA,incomplete,false,true,NA,7,0,NA,orange,m_l_006.jpg,NA,NA,unpleasant,pleasant,NA,NA,NA,NA,NA,right,1590.80000001192,true,NA,NA,NA,NA,NA
CI4hqnO4,3uy4pis8ruyxp7v852m6xfad2fzn1g,378xpawrugq3sevbv779ss3rmygiat,CI4hqnO4,2020-0188,2021-10-17,13:18:10,14:38:16,NA,incomplete,false,true,NA,7,1,NA,orange,m_l_074.jpg,NA,NA,pleasant,unpleasant,NA,NA,NA,NA,NA,left,1198.70000000298,true,NA,NA,NA,NA,NA
CI4hqnO4,3uy4pis8ruyxp7v852m6xfad2fzn1g,378xpawrugq3sevbv779ss3rmygiat,CI4hqnO4,2020-0188,2021-10-17,13:18:10,14:38:16,NA,incomplete,false,true,NA,7,2,NA,orange,n_l_048.jpg,NA,NA,unpleasant,pleasant,NA,NA,NA,NA,NA,right,1154.60000000894,true,NA,NA,NA,NA,NA
CI4hqnO4,3uy4pis8ruyxp7v852m6xfad2fzn1g,378xpawrugq3sevbv779ss3rmygiat,CI4hqnO4,2020-0188,2021-10-17,13:18:10,14:38:16,NA,incomplete,false,true,NA,7,3,NA,orange,m_l_102.jpg,NA,NA,unpleasant,pleasant,NA,NA,NA,NA,NA,right,1195.89999999106,true,NA,NA,NA,NA,NA
CI4hqnO4,3uy4pis8ruyxp7v852m6xfad2fzn1g,378xpawrugq3sevbv779ss3rmygiat,CI4hqnO4,2020-0188,2021-10-17,13:18:10,14:38:16,NA,incomplete,false,true,NA,7,4,NA,orange,m_s_042.jpg,NA,NA,unpleasant,pleasant,NA,NA,NA,NA,NA,right,1047.70000000298,true,NA,NA,NA,NA,NA
CI4hqnO4,3uy4pis8ruyxp7v852m6xfad2fzn1g,378xpawrugq3sevbv779ss3rmygiat,CI4hqnO4,2020-0188,2021-10-17,13:18:10,14:38:16,NA,incomplete,false,true,NA,7,5,NA,orange,m_l_024.jpg,NA,NA,unpleasant,pleasant,NA,NA,NA,NA,NA,right,1155.90000000596,true,NA,NA,NA,NA,NA
CI4hqnO4,3uy4pis8ruyxp7v852m6xfad2fzn1g,378xpawrugq3sevbv779ss3rmygiat,CI4hqnO4,2020-0188,2021-10-17,13:18:10,14:38:16,NA,incomplete,false,true,NA,7,6,NA,purple,m_l_098.jpg,NA,NA,unpleasant,pleasant,NA,NA,NA,NA,NA,right,1796.09999999404,true,NA,NA,NA,NA,NA
CI4hqnO4,3uy4pis8ruyxp7v852m6xfad2fzn1g,378xpawrugq3sevbv779ss3rmygiat,CI4hqnO4,2020-0188,2021-10-17,13:18:10,14:38:16,NA,incomplete,false,true,NA,7,7,NA,purple,n_s_073.jpg,NA,NA,pleasant,unpleasant,NA,NA,NA,NA,NA,left,1683.20000000298,true,NA,NA,NA,NA,NA
CI4hqnO4,3uy4pis8ruyxp7v852m6xfad2fzn1g,378xpawrugq3sevbv779ss3rmygiat,CI4hqnO4,2020-0188,2021-10-17,13:18:10,14:38:16,NA,incomplete,false,true,NA,7,8,NA,purple,n_s_044.jpg,NA,NA,pleasant,unpleasant,NA,NA,NA,NA,NA,left,1380.79999999702,true,NA,NA,NA,NA,NA
CI4hqnO4,3uy4pis8ruyxp7v852m6xfad2fzn1g,378xpawrugq3sevbv779ss3rmygiat,CI4hqnO4,2020-0188,2021-10-17,13:18:10,14:38:16,NA,incomplete,false,true,NA,7,9,NA,purple,m_s_116.jpg,NA,NA,pleasant,unpleasant,NA,NA,NA,NA,NA,right,1825.29999999702,true,NA,NA,NA,NA,NA
CI4hqnO4,3uy4pis8ruyxp7v852m6xfad2fzn1g,378xpawrugq3sevbv779ss3rmygiat,CI4hqnO4,2020-0188,2021-10-17,13:18:10,14:38:16,NA,incomplete,false,true,NA,7,10,NA,purple,n_l_008.jpg,NA,NA,pleasant,unpleasant,NA,NA,NA,NA,NA,left,837.09999999404,true,NA,NA,NA,NA,NA
CI4hqnO4,3uy4pis8ruyxp7v852m6xfad2fzn1g,378xpawrugq3sevbv779ss3rmygiat,CI4hqnO4,2020-0188,2021-10-17,13:18:10,14:38:16,NA,incomplete,false,true,NA,7,11,NA,purple,n_s_024.jpg,NA,NA,unpleasant,pleasant,NA,NA,NA,NA,NA,right,694.699999988079,true,NA,NA,NA,NA,NA
CI4hqnO4,3uy4pis8ruyxp7v852m6xfad2fzn1g,378xpawrugq3sevbv779ss3rmygiat,CI4hqnO4,2020-0188,2021-10-17,13:18:10,14:38:16,NA,incomplete,false,true,NA,7,12,NA,blue,n_s_074.jpg,NA,NA,pleasant,unpleasant,NA,NA,NA,NA,NA,right,816.20000000298,true,NA,NA,NA,NA,NA
CI4hqnO4,3uy4pis8ruyxp7v852m6xfad2fzn1g,378xpawrugq3sevbv779ss3rmygiat,CI4hqnO4,2020-0188,2021-10-17,13:18:10,14:38:16,NA,incomplete,false,true,NA,7,13,NA,blue,m_s_028.jpg,NA,NA,unpleasant,pleasant,NA,NA,NA,NA,NA,right,844.699999988079,true,NA,NA,NA,NA,NA
CI4hqnO4,3uy4pis8ruyxp7v852m6xfad2fzn1g,378xpawrugq3sevbv779ss3rmygiat,CI4hqnO4,2020-0188,2021-10-17,13:18:10,14:38:16,NA,incomplete,false,true,NA,7,14,NA,blue,n_l_090.jpg,NA,NA,unpleasant,pleasant,NA,NA,NA,NA,NA,right,714.100000008941,true,NA,NA,NA,NA,NA
CI4hqnO4,3uy4pis8ruyxp7v852m6xfad2fzn1g,378xpawrugq3sevbv779ss3rmygiat,CI4hqnO4,2020-0188,2021-10-17,13:18:10,14:38:16,NA,incomplete,false,true,NA,7,15,NA,blue,n_l_099.jpg,NA,NA,pleasant,unpleasant,NA,NA,NA,NA,NA,right,1314.90000000596,true,NA,NA,NA,NA,NA
CI4hqnO4,3uy4pis8ruyxp7v852m6xfad2fzn1g,378xpawrugq3sevbv779ss3rmygiat,CI4hqnO4,2020-0188,2021-10-17,13:18:10,14:38:16,NA,incomplete,false,true,NA,7,16,NA,blue,m_s_105.jpg,NA,NA,pleasant,unpleasant,NA,NA,NA,NA,NA,right,666.20000000298,true,NA,NA,NA,NA,NA
CI4hqnO4,3uy4pis8ruyxp7v852m6xfad2fzn1g,378xpawrugq3sevbv779ss3rmygiat,CI4hqnO4,2020-0188,2021-10-17,13:18:10,14:38:16,NA,incomplete,false,true,NA,7,17,NA,blue,m_s_078.jpg,NA,NA,unpleasant,pleasant,NA,NA,NA,NA,NA,right,1103.60000000894,true,NA,NA,NA,NA,NA
CI4hqnO4,3uy4pis8ruyxp7v852m6xfad2fzn1g,378xpawrugq3sevbv779ss3rmygiat,CI4hqnO4,2020-0188,2021-10-17,13:18:10,14:38:16,NA,incomplete,false,true,NA,7,18,NA,red,n_l_101.jpg,NA,NA,unpleasant,pleasant,NA,NA,NA,NA,NA,right,1001,true,NA,NA,NA,NA,NA
CI4hqnO4,3uy4pis8ruyxp7v852m6xfad2fzn1g,378xpawrugq3sevbv779ss3rmygiat,CI4hqnO4,2020-0188,2021-10-17,13:18:10,14:38:16,NA,incomplete,false,true,NA,7,19,NA,red,n_l_066.jpg,NA,NA,unpleasant,pleasant,NA,NA,NA,NA,NA,left,1691,true,NA,NA,NA,NA,NA
CI4hqnO4,3uy4pis8ruyxp7v852m6xfad2fzn1g,378xpawrugq3sevbv779ss3rmygiat,CI4hqnO4,2020-0188,2021-10-17,13:18:10,14:38:16,NA,incomplete,false,true,NA,7,20,NA,red,m_s_062.jpg,NA,NA,unpleasant,pleasant,NA,NA,NA,NA,NA,right,1288.59999999404,true,NA,NA,NA,NA,NA
CI4hqnO4,3uy4pis8ruyxp7v852m6xfad2fzn1g,378xpawrugq3sevbv779ss3rmygiat,CI4hqnO4,2020-0188,2021-10-17,13:18:10,14:38:16,NA,incomplete,false,true,NA,7,21,NA,red,n_s_043.jpg,NA,NA,pleasant,unpleasant,NA,NA,NA,NA,NA,left,1829.59999999404,true,NA,NA,NA,NA,NA
CI4hqnO4,3uy4pis8ruyxp7v852m6xfad2fzn1g,378xpawrugq3sevbv779ss3rmygiat,CI4hqnO4,2020-0188,2021-10-17,13:18:10,14:38:16,NA,incomplete,false,true,NA,7,22,NA,red,n_l_050.jpg,NA,NA,unpleasant,pleasant,NA,NA,NA,NA,NA,right,936.79999999702,true,NA,NA,NA,NA,NA
CI4hqnO4,3uy4pis8ruyxp7v852m6xfad2fzn1g,378xpawrugq3sevbv779ss3rmygiat,CI4hqnO4,2020-0188,2021-10-17,13:18:10,14:38:16,NA,incomplete,false,true,NA,7,23,NA,red,m_s_045.jpg,NA,NA,unpleasant,pleasant,NA,NA,NA,NA,NA,right,978.699999988079,true,NA,NA,NA,NA,NA
CI4hqnO4,3uy4pis8ruyxp7v852m6xfad2fzn1g,378xpawrugq3sevbv779ss3rmygiat,CI4hqnO4,2020-0188,2021-10-17,13:18:10,14:38:16,NA,incomplete,false,true,NA,7,24,NA,brown,m_s_068.jpg,NA,NA,unpleasant,pleasant,NA,NA,NA,NA,NA,right,664.09999999404,true,NA,NA,NA,NA,NA
CI4hqnO4,3uy4pis8ruyxp7v852m6xfad2fzn1g,378xpawrugq3sevbv779ss3rmygiat,CI4hqnO4,2020-0188,2021-10-17,13:18:10,14:38:16,NA,incomplete,false,true,NA,7,25,NA,brown,n_l_096.jpg,NA,NA,unpleasant,pleasant,NA,NA,NA,NA,NA,right,825,true,NA,NA,NA,NA,NA
CI4hqnO4,3uy4pis8ruyxp7v852m6xfad2fzn1g,378xpawrugq3sevbv779ss3rmygiat,CI4hqnO4,2020-0188,2021-10-17,13:18:10,14:38:16,NA,incomplete,false,true,NA,7,26,NA,brown,m_s_107.jpg,NA,NA,unpleasant,pleasant,NA,NA,NA,NA,NA,right,616,true,NA,NA,NA,NA,NA
CI4hqnO4,3uy4pis8ruyxp7v852m6xfad2fzn1g,378xpawrugq3sevbv779ss3rmygiat,CI4hqnO4,2020-0188,2021-10-17,13:18:10,14:38:16,NA,incomplete,false,true,NA,7,27,NA,brown,m_s_036.jpg,NA,NA,pleasant,unpleasant,NA,NA,NA,NA,NA,left,1331.09999999404,true,NA,NA,NA,NA,NA
CI4hqnO4,3uy4pis8ruyxp7v852m6xfad2fzn1g,378xpawrugq3sevbv779ss3rmygiat,CI4hqnO4,2020-0188,2021-10-17,13:18:10,14:38:16,NA,incomplete,false,true,NA,7,28,NA,brown,m_l_106.jpg,NA,NA,pleasant,unpleasant,NA,NA,NA,NA,NA,left,1008,true,NA,NA,NA,NA,NA
CI4hqnO4,3uy4pis8ruyxp7v852m6xfad2fzn1g,378xpawrugq3sevbv779ss3rmygiat,CI4hqnO4,2020-0188,2021-10-17,13:18:10,14:38:16,NA,incomplete,false,true,NA,7,29,NA,brown,n_s_095.jpg,NA,NA,unpleasant,pleasant,NA,NA,NA,NA,NA,left,999.399999991059,true,NA,NA,NA,NA,NA
CI4hqnO4,3uy4pis8ruyxp7v852m6xfad2fzn1g,378xpawrugq3sevbv779ss3rmygiat,CI4hqnO4,2020-0188,2021-10-17,13:18:10,14:38:16,NA,incomplete,false,true,NA,7,30,NA,white,m_l_071.jpg,NA,NA,unpleasant,pleasant,NA,NA,NA,NA,NA,right,781.09999999404,true,NA,NA,NA,NA,NA
CI4hqnO4,3uy4pis8ruyxp7v852m6xfad2fzn1g,378xpawrugq3sevbv779ss3rmygiat,CI4hqnO4,2020-0188,2021-10-17,13:18:10,14:38:16,NA,incomplete,false,true,NA,7,31,NA,white,n_s_055.jpg,NA,NA,unpleasant,pleasant,NA,NA,NA,NA,NA,right,1360.70000000298,true,NA,NA,NA,NA,NA
CI4hqnO4,3uy4pis8ruyxp7v852m6xfad2fzn1g,378xpawrugq3sevbv779ss3rmygiat,CI4hqnO4,2020-0188,2021-10-17,13:18:10,14:38:16,NA,incomplete,false,true,NA,7,32,NA,white,m_s_051.jpg,NA,NA,unpleasant,pleasant,NA,NA,NA,NA,NA,right,734.899999991059,true,NA,NA,NA,NA,NA
CI4hqnO4,3uy4pis8ruyxp7v852m6xfad2fzn1g,378xpawrugq3sevbv779ss3rmygiat,CI4hqnO4,2020-0188,2021-10-17,13:18:10,14:38:16,NA,incomplete,false,true,NA,7,33,NA,white,n_l_055.jpg,NA,NA,unpleasant,pleasant,NA,NA,NA,NA,NA,right,744.20000000298,true,NA,NA,NA,NA,NA
CI4hqnO4,3uy4pis8ruyxp7v852m6xfad2fzn1g,378xpawrugq3sevbv779ss3rmygiat,CI4hqnO4,2020-0188,2021-10-17,13:18:10,14:38:16,NA,incomplete,false,true,NA,7,34,NA,white,n_s_038.jpg,NA,NA,pleasant,unpleasant,NA,NA,NA,NA,NA,left,1231.09999999404,true,NA,NA,NA,NA,NA
CI4hqnO4,3uy4pis8ruyxp7v852m6xfad2fzn1g,378xpawrugq3sevbv779ss3rmygiat,CI4hqnO4,2020-0188,2021-10-17,13:18:10,14:38:16,NA,incomplete,false,true,NA,7,35,NA,white,n_l_065.jpg,NA,NA,pleasant,unpleasant,NA,NA,NA,NA,NA,left,1122.29999999702,true,NA,NA,NA,NA,NA
CI4hqnO4,3uy4pis8ruyxp7v852m6xfad2fzn1g,378xpawrugq3sevbv779ss3rmygiat,CI4hqnO4,2020-0188,2021-10-17,13:18:10,14:38:16,NA,incomplete,false,NA,true,7,0,NA,NA,NA,left,present,NA,NA,n_l_096.jpg,brown,n_s_095.jpg,brown,within,NA,NaN,NA,right,683.2000000029802,0,1,570.7000000029802
CI4hqnO4,3uy4pis8ruyxp7v852m6xfad2fzn1g,378xpawrugq3sevbv779ss3rmygiat,CI4hqnO4,2020-0188,2021-10-17,13:18:10,14:38:16,NA,incomplete,false,NA,true,7,1,NA,NA,NA,right,present,NA,NA,m_s_107.jpg,brown,n_l_050.jpg,red,between,NA,NaN,NA,left,698.1000000089407,0,1,557.7999999970198
CI4hqnO4,3uy4pis8ruyxp7v852m6xfad2fzn1g,378xpawrugq3sevbv779ss3rmygiat,CI4hqnO4,2020-0188,2021-10-17,13:18:10,14:38:16,NA,incomplete,false,NA,true,7,2,NA,NA,NA,left,present,NA,NA,n_s_055.jpg,white,n_l_065.jpg,white,within,NA,NaN,NA,left,1190.5999999940395,1,1,641
CI4hqnO4,3uy4pis8ruyxp7v852m6xfad2fzn1g,378xpawrugq3sevbv779ss3rmygiat,CI4hqnO4,2020-0188,2021-10-17,13:18:10,14:38:16,NA,incomplete,false,NA,true,7,3,NA,NA,NA,left,present,NA,NA,m_s_028.jpg,blue,m_s_078.jpg,blue,within,NA,NaN,NA,right,661.7999999970198,0,1,411.5
CI4hqnO4,3uy4pis8ruyxp7v852m6xfad2fzn1g,378xpawrugq3sevbv779ss3rmygiat,CI4hqnO4,2020-0188,2021-10-17,13:18:10,14:38:16,NA,incomplete,false,NA,true,7,4,NA,NA,NA,right,present,NA,NA,m_s_062.jpg,red,m_s_105.jpg,blue,between,NA,NaN,NA,left,763.5999999940395,0,2,778.7999999970198
CI4hqnO4,3uy4pis8ruyxp7v852m6xfad2fzn1g,378xpawrugq3sevbv779ss3rmygiat,CI4hqnO4,2020-0188,2021-10-17,13:18:10,14:38:16,NA,incomplete,false,NA,true,7,5,NA,NA,NA,right,present,NA,NA,m_s_045.jpg,red,n_l_066.jpg,red,within,NA,NaN,NA,right,628,1,1,586.2000000029802
CI4hqnO4,3uy4pis8ruyxp7v852m6xfad2fzn1g,378xpawrugq3sevbv779ss3rmygiat,CI4hqnO4,2020-0188,2021-10-17,13:18:10,14:38:16,NA,incomplete,false,NA,true,7,6,NA,NA,NA,left,present,NA,NA,m_s_042.jpg,orange,n_s_044.jpg,purple,between,NA,NaN,NA,right,684.8000000119209,0,2,631.2000000029802
CI4hqnO4,3uy4pis8ruyxp7v852m6xfad2fzn1g,378xpawrugq3sevbv779ss3rmygiat,CI4hqnO4,2020-0188,2021-10-17,13:18:10,14:38:16,NA,incomplete,false,NA,true,7,7,NA,NA,NA,right,present,NA,NA,m_l_024.jpg,orange,m_l_074.jpg,orange,within,NA,NaN,NA,left,647.6999999880791,0,1,974.8000000119209
CI4hqnO4,3uy4pis8ruyxp7v852m6xfad2fzn1g,378xpawrugq3sevbv779ss3rmygiat,CI4hqnO4,2020-0188,2021-10-17,13:18:10,14:38:16,NA,incomplete,false,NA,true,7,8,NA,NA,NA,right,present,NA,NA,n_s_024.jpg,purple,n_s_073.jpg,purple,within,NA,NaN,NA,right,533.2999999970198,1,2,720.2000000029802
CI4hqnO4,3uy4pis8ruyxp7v852m6xfad2fzn1g,378xpawrugq3sevbv779ss3rmygiat,CI4hqnO4,2020-0188,2021-10-17,13:18:10,14:38:16,NA,incomplete,false,NA,true,7,9,NA,NA,NA,left,present,NA,NA,n_l_008.jpg,purple,n_l_090.jpg,blue,between,NA,NaN,NA,right,519.2000000029802,0,2,745.5
CI4hqnO4,3uy4pis8ruyxp7v852m6xfad2fzn1g,378xpawrugq3sevbv779ss3rmygiat,CI4hqnO4,2020-0188,2021-10-17,13:18:10,14:38:16,NA,incomplete,false,NA,true,7,10,NA,NA,NA,right,present,NA,NA,m_s_051.jpg,white,m_l_106.jpg,brown,between,NA,NaN,NA,left,770.1999999880791,0,1,834.2000000029802
CI4hqnO4,3uy4pis8ruyxp7v852m6xfad2fzn1g,378xpawrugq3sevbv779ss3rmygiat,CI4hqnO4,2020-0188,2021-10-17,13:18:10,14:38:16,NA,incomplete,false,true,NA,8,0,NA,gray,m_l_004.jpg,NA,NA,unpleasant,pleasant,NA,NA,NA,NA,NA,right,1449.79999999702,true,NA,NA,NA,NA,NA
CI4hqnO4,3uy4pis8ruyxp7v852m6xfad2fzn1g,378xpawrugq3sevbv779ss3rmygiat,CI4hqnO4,2020-0188,2021-10-17,13:18:10,14:38:16,NA,incomplete,false,true,NA,8,1,NA,gray,n_s_059.jpg,NA,NA,unpleasant,pleasant,NA,NA,NA,NA,NA,right,833.800000011921,true,NA,NA,NA,NA,NA
CI4hqnO4,3uy4pis8ruyxp7v852m6xfad2fzn1g,378xpawrugq3sevbv779ss3rmygiat,CI4hqnO4,2020-0188,2021-10-17,13:18:10,14:38:16,NA,incomplete,false,true,NA,8,2,NA,gray,m_s_023.jpg,NA,NA,unpleasant,pleasant,NA,NA,NA,NA,NA,right,888.29999999702,true,NA,NA,NA,NA,NA
CI4hqnO4,3uy4pis8ruyxp7v852m6xfad2fzn1g,378xpawrugq3sevbv779ss3rmygiat,CI4hqnO4,2020-0188,2021-10-17,13:18:10,14:38:16,NA,incomplete,false,true,NA,8,3,NA,gray,m_s_008.jpg,NA,NA,unpleasant,pleasant,NA,NA,NA,NA,NA,right,940.29999999702,true,NA,NA,NA,NA,NA
CI4hqnO4,3uy4pis8ruyxp7v852m6xfad2fzn1g,378xpawrugq3sevbv779ss3rmygiat,CI4hqnO4,2020-0188,2021-10-17,13:18:10,14:38:16,NA,incomplete,false,true,NA,8,4,NA,gray,n_l_061.jpg,NA,NA,unpleasant,pleasant,NA,NA,NA,NA,NA,right,876.699999988079,true,NA,NA,NA,NA,NA
CI4hqnO4,3uy4pis8ruyxp7v852m6xfad2fzn1g,378xpawrugq3sevbv779ss3rmygiat,CI4hqnO4,2020-0188,2021-10-17,13:18:10,14:38:16,NA,incomplete,false,true,NA,8,5,NA,gray,m_s_102.jpg,NA,NA,pleasant,unpleasant,NA,NA,NA,NA,NA,left,1043.60000000894,true,NA,NA,NA,NA,NA
CI4hqnO4,3uy4pis8ruyxp7v852m6xfad2fzn1g,378xpawrugq3sevbv779ss3rmygiat,CI4hqnO4,2020-0188,2021-10-17,13:18:10,14:38:16,NA,incomplete,false,true,NA,8,6,NA,white,m_l_091.jpg,NA,NA,unpleasant,pleasant,NA,NA,NA,NA,NA,right,735.5,true,NA,NA,NA,NA,NA
CI4hqnO4,3uy4pis8ruyxp7v852m6xfad2fzn1g,378xpawrugq3sevbv779ss3rmygiat,CI4hqnO4,2020-0188,2021-10-17,13:18:10,14:38:16,NA,incomplete,false,true,NA,8,7,NA,white,n_s_112.jpg,NA,NA,unpleasant,pleasant,NA,NA,NA,NA,NA,right,705.5,true,NA,NA,NA,NA,NA
CI4hqnO4,3uy4pis8ruyxp7v852m6xfad2fzn1g,378xpawrugq3sevbv779ss3rmygiat,CI4hqnO4,2020-0188,2021-10-17,13:18:10,14:38:16,NA,incomplete,false,true,NA,8,8,NA,white,m_l_042.jpg,NA,NA,unpleasant,pleasant,NA,NA,NA,NA,NA,right,780.600000008941,true,NA,NA,NA,NA,NA
CI4hqnO4,3uy4pis8ruyxp7v852m6xfad2fzn1g,378xpawrugq3sevbv779ss3rmygiat,CI4hqnO4,2020-0188,2021-10-17,13:18:10,14:38:16,NA,incomplete,false,true,NA,8,9,NA,white,n_l_023.jpg,NA,NA,pleasant,unpleasant,NA,NA,NA,NA,NA,left,774.70000000298,true,NA,NA,NA,NA,NA
