workerId,hitId,assignmentId,subject,studyid,exp_date,exp_start,exp_end,time_start,time_end,practice,encoding,memory,block,trial,event_order,event,stim,answer,context_type,label_left,label_right,left_image,left_event,right_image,right_event,condition,response,response_time,response_acc,order_response,order_response_time,order_acc,distance_response,distance_response_time
CPEgiN83,3e6l1vr4yzzg81jodkfak6sl8ztf6z,3z3zlgnnsm7gprk9z0x8emg77y4q37,CPEgiN83,2020-0188,2021-10-17,13:30:57,14:57:53,NA,incomplete,true,true,NA,0,0,NA,white,m_l_031.jpg,NA,NA,unpleasant,pleasant,NA,NA,NA,NA,NA,right,2432,true,NA,NA,NA,NA,NA
CPEgiN83,3e6l1vr4yzzg81jodkfak6sl8ztf6z,3z3zlgnnsm7gprk9z0x8emg77y4q37,CPEgiN83,2020-0188,2021-10-17,13:30:57,14:57:53,NA,incomplete,true,true,NA,0,1,NA,white,m_s_036.jpg,NA,NA,unpleasant,pleasant,NA,NA,NA,NA,NA,right,1323,true,NA,NA,NA,NA,NA
CPEgiN83,3e6l1vr4yzzg81jodkfak6sl8ztf6z,3z3zlgnnsm7gprk9z0x8emg77y4q37,CPEgiN83,2020-0188,2021-10-17,13:30:57,14:57:53,NA,incomplete,true,true,NA,0,2,NA,white,n_s_002.jpg,NA,NA,unpleasant,pleasant,NA,NA,NA,NA,NA,right,1359,true,NA,NA,NA,NA,NA
CPEgiN83,3e6l1vr4yzzg81jodkfak6sl8ztf6z,3z3zlgnnsm7gprk9z0x8emg77y4q37,CPEgiN83,2020-0188,2021-10-17,13:30:57,14:57:53,NA,incomplete,true,true,NA,0,3,NA,white,n_l_064.jpg,NA,NA,pleasant,unpleasant,NA,NA,NA,NA,NA,left,2602,true,NA,NA,NA,NA,NA
CPEgiN83,3e6l1vr4yzzg81jodkfak6sl8ztf6z,3z3zlgnnsm7gprk9z0x8emg77y4q37,CPEgiN83,2020-0188,2021-10-17,13:30:57,14:57:53,NA,incomplete,true,true,NA,0,4,NA,white,n_s_105.jpg,NA,NA,pleasant,unpleasant,NA,NA,NA,NA,NA,left,1559,true,NA,NA,NA,NA,NA
CPEgiN83,3e6l1vr4yzzg81jodkfak6sl8ztf6z,3z3zlgnnsm7gprk9z0x8emg77y4q37,CPEgiN83,2020-0188,2021-10-17,13:30:57,14:57:53,NA,incomplete,true,true,NA,0,5,NA,white,m_l_113.jpg,NA,NA,unpleasant,pleasant,NA,NA,NA,NA,NA,right,1417,true,NA,NA,NA,NA,NA
CPEgiN83,3e6l1vr4yzzg81jodkfak6sl8ztf6z,3z3zlgnnsm7gprk9z0x8emg77y4q37,CPEgiN83,2020-0188,2021-10-17,13:30:57,14:57:53,NA,incomplete,true,true,NA,0,6,NA,red,m_l_081.jpg,NA,NA,unpleasant,pleasant,NA,NA,NA,NA,NA,right,1172,true,NA,NA,NA,NA,NA
CPEgiN83,3e6l1vr4yzzg81jodkfak6sl8ztf6z,3z3zlgnnsm7gprk9z0x8emg77y4q37,CPEgiN83,2020-0188,2021-10-17,13:30:57,14:57:53,NA,incomplete,true,true,NA,0,7,NA,red,n_s_030.jpg,NA,NA,unpleasant,pleasant,NA,NA,NA,NA,NA,right,1224,true,NA,NA,NA,NA,NA
CPEgiN83,3e6l1vr4yzzg81jodkfak6sl8ztf6z,3z3zlgnnsm7gprk9z0x8emg77y4q37,CPEgiN83,2020-0188,2021-10-17,13:30:57,14:57:53,NA,incomplete,true,true,NA,0,8,NA,red,m_s_007.jpg,NA,NA,pleasant,unpleasant,NA,NA,NA,NA,NA,left,1843,true,NA,NA,NA,NA,NA
CPEgiN83,3e6l1vr4yzzg81jodkfak6sl8ztf6z,3z3zlgnnsm7gprk9z0x8emg77y4q37,CPEgiN83,2020-0188,2021-10-17,13:30:57,14:57:53,NA,incomplete,true,true,NA,0,9,NA,red,m_l_067.jpg,NA,NA,unpleasant,pleasant,NA,NA,NA,NA,NA,right,2376,true,NA,NA,NA,NA,NA
CPEgiN83,3e6l1vr4yzzg81jodkfak6sl8ztf6z,3z3zlgnnsm7gprk9z0x8emg77y4q37,CPEgiN83,2020-0188,2021-10-17,13:30:57,14:57:53,NA,incomplete,true,true,NA,0,10,NA,red,m_s_001.jpg,NA,NA,unpleasant,pleasant,NA,NA,NA,NA,NA,right,1245,true,NA,NA,NA,NA,NA
CPEgiN83,3e6l1vr4yzzg81jodkfak6sl8ztf6z,3z3zlgnnsm7gprk9z0x8emg77y4q37,CPEgiN83,2020-0188,2021-10-17,13:30:57,14:57:53,NA,incomplete,true,true,NA,0,11,NA,red,n_l_063.jpg,NA,NA,pleasant,unpleasant,NA,NA,NA,NA,NA,left,2624,true,NA,NA,NA,NA,NA
CPEgiN83,3e6l1vr4yzzg81jodkfak6sl8ztf6z,3z3zlgnnsm7gprk9z0x8emg77y4q37,CPEgiN83,2020-0188,2021-10-17,13:30:57,14:57:53,NA,incomplete,true,true,NA,0,12,NA,purple,m_s_043.jpg,NA,NA,unpleasant,pleasant,NA,NA,NA,NA,NA,right,1168,true,NA,NA,NA,NA,NA
CPEgiN83,3e6l1vr4yzzg81jodkfak6sl8ztf6z,3z3zlgnnsm7gprk9z0x8emg77y4q37,CPEgiN83,2020-0188,2021-10-17,13:30:57,14:57:53,NA,incomplete,true,true,NA,0,13,NA,purple,n_l_106.jpg,NA,NA,unpleasant,pleasant,NA,NA,NA,NA,NA,right,2564,true,NA,NA,NA,NA,NA
CPEgiN83,3e6l1vr4yzzg81jodkfak6sl8ztf6z,3z3zlgnnsm7gprk9z0x8emg77y4q37,CPEgiN83,2020-0188,2021-10-17,13:30:57,14:57:53,NA,incomplete,true,true,NA,0,14,NA,purple,n_s_014.jpg,NA,NA,unpleasant,pleasant,NA,NA,NA,NA,NA,right,1682,true,NA,NA,NA,NA,NA
CPEgiN83,3e6l1vr4yzzg81jodkfak6sl8ztf6z,3z3zlgnnsm7gprk9z0x8emg77y4q37,CPEgiN83,2020-0188,2021-10-17,13:30:57,14:57:53,NA,incomplete,true,true,NA,0,15,NA,purple,n_l_090.jpg,NA,NA,pleasant,unpleasant,NA,NA,NA,NA,NA,left,2156,true,NA,NA,NA,NA,NA
CPEgiN83,3e6l1vr4yzzg81jodkfak6sl8ztf6z,3z3zlgnnsm7gprk9z0x8emg77y4q37,CPEgiN83,2020-0188,2021-10-17,13:30:57,14:57:53,NA,incomplete,true,true,NA,0,16,NA,purple,n_s_114.jpg,NA,NA,unpleasant,pleasant,NA,NA,NA,NA,NA,right,2101,true,NA,NA,NA,NA,NA
CPEgiN83,3e6l1vr4yzzg81jodkfak6sl8ztf6z,3z3zlgnnsm7gprk9z0x8emg77y4q37,CPEgiN83,2020-0188,2021-10-17,13:30:57,14:57:53,NA,incomplete,true,true,NA,0,17,NA,purple,m_l_021.jpg,NA,NA,pleasant,unpleasant,NA,NA,NA,NA,NA,left,1863,true,NA,NA,NA,NA,NA
CPEgiN83,3e6l1vr4yzzg81jodkfak6sl8ztf6z,3z3zlgnnsm7gprk9z0x8emg77y4q37,CPEgiN83,2020-0188,2021-10-17,13:30:57,14:57:53,NA,incomplete,true,true,NA,0,18,NA,orange,m_s_009.jpg,NA,NA,pleasant,unpleasant,NA,NA,NA,NA,NA,left,1649,true,NA,NA,NA,NA,NA
CPEgiN83,3e6l1vr4yzzg81jodkfak6sl8ztf6z,3z3zlgnnsm7gprk9z0x8emg77y4q37,CPEgiN83,2020-0188,2021-10-17,13:30:57,14:57:53,NA,incomplete,true,true,NA,0,19,NA,orange,m_l_007.jpg,NA,NA,pleasant,unpleasant,NA,NA,NA,NA,NA,left,1676,true,NA,NA,NA,NA,NA
CPEgiN83,3e6l1vr4yzzg81jodkfak6sl8ztf6z,3z3zlgnnsm7gprk9z0x8emg77y4q37,CPEgiN83,2020-0188,2021-10-17,13:30:57,14:57:53,NA,incomplete,true,true,NA,0,20,NA,orange,n_s_003.jpg,NA,NA,pleasant,unpleasant,NA,NA,NA,NA,NA,left,1591,true,NA,NA,NA,NA,NA
CPEgiN83,3e6l1vr4yzzg81jodkfak6sl8ztf6z,3z3zlgnnsm7gprk9z0x8emg77y4q37,CPEgiN83,2020-0188,2021-10-17,13:30:57,14:57:53,NA,incomplete,true,true,NA,0,21,NA,orange,n_s_106.jpg,NA,NA,unpleasant,pleasant,NA,NA,NA,NA,NA,right,1715,true,NA,NA,NA,NA,NA
CPEgiN83,3e6l1vr4yzzg81jodkfak6sl8ztf6z,3z3zlgnnsm7gprk9z0x8emg77y4q37,CPEgiN83,2020-0188,2021-10-17,13:30:57,14:57:53,NA,incomplete,true,true,NA,0,22,NA,orange,n_s_092.jpg,NA,NA,pleasant,unpleasant,NA,NA,NA,NA,NA,left,1988,true,NA,NA,NA,NA,NA
CPEgiN83,3e6l1vr4yzzg81jodkfak6sl8ztf6z,3z3zlgnnsm7gprk9z0x8emg77y4q37,CPEgiN83,2020-0188,2021-10-17,13:30:57,14:57:53,NA,incomplete,true,true,NA,0,23,NA,orange,m_l_057.jpg,NA,NA,unpleasant,pleasant,NA,NA,NA,NA,NA,right,2296,true,NA,NA,NA,NA,NA
CPEgiN83,3e6l1vr4yzzg81jodkfak6sl8ztf6z,3z3zlgnnsm7gprk9z0x8emg77y4q37,CPEgiN83,2020-0188,2021-10-17,13:30:57,14:57:53,NA,incomplete,true,true,NA,0,24,NA,yellow,m_s_089.jpg,NA,NA,pleasant,unpleasant,NA,NA,NA,NA,NA,left,1660,true,NA,NA,NA,NA,NA
CPEgiN83,3e6l1vr4yzzg81jodkfak6sl8ztf6z,3z3zlgnnsm7gprk9z0x8emg77y4q37,CPEgiN83,2020-0188,2021-10-17,13:30:57,14:57:53,NA,incomplete,true,true,NA,0,25,NA,yellow,m_l_002.jpg,NA,NA,unpleasant,pleasant,NA,NA,NA,NA,NA,right,1746,true,NA,NA,NA,NA,NA
CPEgiN83,3e6l1vr4yzzg81jodkfak6sl8ztf6z,3z3zlgnnsm7gprk9z0x8emg77y4q37,CPEgiN83,2020-0188,2021-10-17,13:30:57,14:57:53,NA,incomplete,true,true,NA,0,26,NA,yellow,m_l_073.jpg,NA,NA,unpleasant,pleasant,NA,NA,NA,NA,NA,right,1583,true,NA,NA,NA,NA,NA
CPEgiN83,3e6l1vr4yzzg81jodkfak6sl8ztf6z,3z3zlgnnsm7gprk9z0x8emg77y4q37,CPEgiN83,2020-0188,2021-10-17,13:30:57,14:57:53,NA,incomplete,true,true,NA,0,27,NA,yellow,n_s_054.jpg,NA,NA,unpleasant,pleasant,NA,NA,NA,NA,NA,right,1719,true,NA,NA,NA,NA,NA
CPEgiN83,3e6l1vr4yzzg81jodkfak6sl8ztf6z,3z3zlgnnsm7gprk9z0x8emg77y4q37,CPEgiN83,2020-0188,2021-10-17,13:30:57,14:57:53,NA,incomplete,true,true,NA,0,28,NA,yellow,m_l_012.jpg,NA,NA,unpleasant,pleasant,NA,NA,NA,NA,NA,right,1290,true,NA,NA,NA,NA,NA
CPEgiN83,3e6l1vr4yzzg81jodkfak6sl8ztf6z,3z3zlgnnsm7gprk9z0x8emg77y4q37,CPEgiN83,2020-0188,2021-10-17,13:30:57,14:57:53,NA,incomplete,true,true,NA,0,29,NA,yellow,m_s_096.jpg,NA,NA,unpleasant,pleasant,NA,NA,NA,NA,NA,right,1773,true,NA,NA,NA,NA,NA
CPEgiN83,3e6l1vr4yzzg81jodkfak6sl8ztf6z,3z3zlgnnsm7gprk9z0x8emg77y4q37,CPEgiN83,2020-0188,2021-10-17,13:30:57,14:57:53,NA,incomplete,true,true,NA,0,30,NA,black,m_s_091.jpg,NA,NA,pleasant,unpleasant,NA,NA,NA,NA,NA,left,1730,true,NA,NA,NA,NA,NA
CPEgiN83,3e6l1vr4yzzg81jodkfak6sl8ztf6z,3z3zlgnnsm7gprk9z0x8emg77y4q37,CPEgiN83,2020-0188,2021-10-17,13:30:57,14:57:53,NA,incomplete,true,true,NA,0,31,NA,black,m_l_017.jpg,NA,NA,pleasant,unpleasant,NA,NA,NA,NA,NA,left,1353,true,NA,NA,NA,NA,NA
CPEgiN83,3e6l1vr4yzzg81jodkfak6sl8ztf6z,3z3zlgnnsm7gprk9z0x8emg77y4q37,CPEgiN83,2020-0188,2021-10-17,13:30:57,14:57:53,NA,incomplete,true,true,NA,0,32,NA,black,n_s_089.jpg,NA,NA,pleasant,unpleasant,NA,NA,NA,NA,NA,left,1584,true,NA,NA,NA,NA,NA
CPEgiN83,3e6l1vr4yzzg81jodkfak6sl8ztf6z,3z3zlgnnsm7gprk9z0x8emg77y4q37,CPEgiN83,2020-0188,2021-10-17,13:30:57,14:57:53,NA,incomplete,true,true,NA,0,33,NA,black,n_l_042.jpg,NA,NA,unpleasant,pleasant,NA,NA,NA,NA,NA,right,1745,true,NA,NA,NA,NA,NA
CPEgiN83,3e6l1vr4yzzg81jodkfak6sl8ztf6z,3z3zlgnnsm7gprk9z0x8emg77y4q37,CPEgiN83,2020-0188,2021-10-17,13:30:57,14:57:53,NA,incomplete,true,true,NA,0,34,NA,black,m_s_086.jpg,NA,NA,pleasant,unpleasant,NA,NA,NA,NA,NA,left,1447,true,NA,NA,NA,NA,NA
CPEgiN83,3e6l1vr4yzzg81jodkfak6sl8ztf6z,3z3zlgnnsm7gprk9z0x8emg77y4q37,CPEgiN83,2020-0188,2021-10-17,13:30:57,14:57:53,NA,incomplete,true,true,NA,0,35,NA,black,m_l_109.jpg,NA,NA,pleasant,unpleasant,NA,NA,NA,NA,NA,left,1565,true,NA,NA,NA,NA,NA
CPEgiN83,3e6l1vr4yzzg81jodkfak6sl8ztf6z,3z3zlgnnsm7gprk9z0x8emg77y4q37,CPEgiN83,2020-0188,2021-10-17,13:30:57,14:57:53,NA,incomplete,true,NA,true,0,0,NA,NA,NA,left,present,NA,NA,m_s_001.jpg,red,n_s_014.jpg,purple,between,NA,NaN,NA,left,5522,1,0,3082
CPEgiN83,3e6l1vr4yzzg81jodkfak6sl8ztf6z,3z3zlgnnsm7gprk9z0x8emg77y4q37,CPEgiN83,2020-0188,2021-10-17,13:30:57,14:57:53,NA,incomplete,true,NA,true,0,1,NA,NA,NA,right,present,NA,NA,m_s_096.jpg,yellow,m_l_002.jpg,yellow,within,NA,NaN,NA,right,5604,1,0,1844
CPEgiN83,3e6l1vr4yzzg81jodkfak6sl8ztf6z,3z3zlgnnsm7gprk9z0x8emg77y4q37,CPEgiN83,2020-0188,2021-10-17,13:30:57,14:57:53,NA,incomplete,true,NA,true,0,2,NA,NA,NA,right,present,NA,NA,m_l_073.jpg,yellow,n_s_092.jpg,orange,between,NA,NaN,NA,right,2679,1,2,4115
CPEgiN83,3e6l1vr4yzzg81jodkfak6sl8ztf6z,3z3zlgnnsm7gprk9z0x8emg77y4q37,CPEgiN83,2020-0188,2021-10-17,13:30:57,14:57:53,NA,incomplete,true,NA,true,0,3,NA,NA,NA,right,absent,NA,NA,n_s_003.jpg,orange,n_s_114.jpg,purple,between,NA,NaN,NA,right,5007,1,1,1853
CPEgiN83,3e6l1vr4yzzg81jodkfak6sl8ztf6z,3z3zlgnnsm7gprk9z0x8emg77y4q37,CPEgiN83,2020-0188,2021-10-17,13:30:57,14:57:53,NA,incomplete,true,NA,true,0,4,NA,NA,NA,right,present,NA,NA,n_l_063.jpg,red,n_s_030.jpg,red,within,NA,NaN,NA,right,3535,1,0,2106
CPEgiN83,3e6l1vr4yzzg81jodkfak6sl8ztf6z,3z3zlgnnsm7gprk9z0x8emg77y4q37,CPEgiN83,2020-0188,2021-10-17,13:30:57,14:57:53,NA,incomplete,true,NA,true,0,5,NA,NA,NA,right,absent,NA,NA,m_l_109.jpg,black,m_l_017.jpg,black,within,NA,NaN,NA,right,5930,1,1,1707
CPEgiN83,3e6l1vr4yzzg81jodkfak6sl8ztf6z,3z3zlgnnsm7gprk9z0x8emg77y4q37,CPEgiN83,2020-0188,2021-10-17,13:30:57,14:57:53,NA,incomplete,true,NA,true,0,6,NA,NA,NA,right,absent,NA,NA,m_l_113.jpg,white,m_s_036.jpg,white,within,NA,NaN,NA,right,5536,1,0,2182
CPEgiN83,3e6l1vr4yzzg81jodkfak6sl8ztf6z,3z3zlgnnsm7gprk9z0x8emg77y4q37,CPEgiN83,2020-0188,2021-10-17,13:30:57,14:57:53,NA,incomplete,true,NA,true,0,7,NA,NA,NA,left,absent,NA,NA,m_l_012.jpg,yellow,n_s_089.jpg,black,between,NA,NaN,NA,left,6463,1,1,4690
CPEgiN83,3e6l1vr4yzzg81jodkfak6sl8ztf6z,3z3zlgnnsm7gprk9z0x8emg77y4q37,CPEgiN83,2020-0188,2021-10-17,13:30:57,14:57:53,NA,incomplete,true,NA,true,0,8,NA,NA,NA,right,absent,NA,NA,m_l_021.jpg,purple,n_l_106.jpg,purple,within,NA,NaN,NA,left,7150,0,1,1563
CPEgiN83,3e6l1vr4yzzg81jodkfak6sl8ztf6z,3z3zlgnnsm7gprk9z0x8emg77y4q37,CPEgiN83,2020-0188,2021-10-17,13:30:57,14:57:53,NA,incomplete,true,NA,true,0,9,NA,NA,NA,right,present,NA,NA,m_s_007.jpg,red,n_s_105.jpg,white,between,NA,NaN,NA,right,3637,1,2,2635
CPEgiN83,3e6l1vr4yzzg81jodkfak6sl8ztf6z,3z3zlgnnsm7gprk9z0x8emg77y4q37,CPEgiN83,2020-0188,2021-10-17,13:30:57,14:57:53,NA,incomplete,true,NA,true,0,10,NA,NA,NA,right,absent,NA,NA,m_l_057.jpg,orange,m_l_007.jpg,orange,within,NA,NaN,NA,left,5468,0,1,1914
CPEgiN83,3e6l1vr4yzzg81jodkfak6sl8ztf6z,3z3zlgnnsm7gprk9z0x8emg77y4q37,CPEgiN83,2020-0188,2021-10-17,13:30:57,14:57:53,NA,incomplete,false,true,NA,1,0,NA,black,m_s_079.jpg,NA,NA,pleasant,unpleasant,NA,NA,NA,NA,NA,left,2471,true,NA,NA,NA,NA,NA
CPEgiN83,3e6l1vr4yzzg81jodkfak6sl8ztf6z,3z3zlgnnsm7gprk9z0x8emg77y4q37,CPEgiN83,2020-0188,2021-10-17,13:30:57,14:57:53,NA,incomplete,false,true,NA,1,1,NA,black,m_s_074.jpg,NA,NA,unpleasant,pleasant,NA,NA,NA,NA,NA,right,2024,true,NA,NA,NA,NA,NA
CPEgiN83,3e6l1vr4yzzg81jodkfak6sl8ztf6z,3z3zlgnnsm7gprk9z0x8emg77y4q37,CPEgiN83,2020-0188,2021-10-17,13:30:57,14:57:53,NA,incomplete,false,true,NA,1,2,NA,black,n_l_104.jpg,NA,NA,pleasant,unpleasant,NA,NA,NA,NA,NA,left,2075,true,NA,NA,NA,NA,NA
CPEgiN83,3e6l1vr4yzzg81jodkfak6sl8ztf6z,3z3zlgnnsm7gprk9z0x8emg77y4q37,CPEgiN83,2020-0188,2021-10-17,13:30:57,14:57:53,NA,incomplete,false,true,NA,1,3,NA,black,n_s_007.jpg,NA,NA,unpleasant,pleasant,NA,NA,NA,NA,NA,left,2454,true,NA,NA,NA,NA,NA
CPEgiN83,3e6l1vr4yzzg81jodkfak6sl8ztf6z,3z3zlgnnsm7gprk9z0x8emg77y4q37,CPEgiN83,2020-0188,2021-10-17,13:30:57,14:57:53,NA,incomplete,false,true,NA,1,4,NA,black,n_l_052.jpg,NA,NA,unpleasant,pleasant,NA,NA,NA,NA,NA,right,2439,true,NA,NA,NA,NA,NA
CPEgiN83,3e6l1vr4yzzg81jodkfak6sl8ztf6z,3z3zlgnnsm7gprk9z0x8emg77y4q37,CPEgiN83,2020-0188,2021-10-17,13:30:57,14:57:53,NA,incomplete,false,true,NA,1,5,NA,black,m_s_085.jpg,NA,NA,unpleasant,pleasant,NA,NA,NA,NA,NA,right,1586,true,NA,NA,NA,NA,NA
CPEgiN83,3e6l1vr4yzzg81jodkfak6sl8ztf6z,3z3zlgnnsm7gprk9z0x8emg77y4q37,CPEgiN83,2020-0188,2021-10-17,13:30:57,14:57:53,NA,incomplete,false,true,NA,1,6,NA,yellow,m_l_042.jpg,NA,NA,unpleasant,pleasant,NA,NA,NA,NA,NA,right,1339,true,NA,NA,NA,NA,NA
CPEgiN83,3e6l1vr4yzzg81jodkfak6sl8ztf6z,3z3zlgnnsm7gprk9z0x8emg77y4q37,CPEgiN83,2020-0188,2021-10-17,13:30:57,14:57:53,NA,incomplete,false,true,NA,1,7,NA,yellow,m_s_008.jpg,NA,NA,unpleasant,pleasant,NA,NA,NA,NA,NA,right,1312,true,NA,NA,NA,NA,NA
CPEgiN83,3e6l1vr4yzzg81jodkfak6sl8ztf6z,3z3zlgnnsm7gprk9z0x8emg77y4q37,CPEgiN83,2020-0188,2021-10-17,13:30:57,14:57:53,NA,incomplete,false,true,NA,1,8,NA,yellow,m_l_009.jpg,NA,NA,pleasant,unpleasant,NA,NA,NA,NA,NA,left,1783,true,NA,NA,NA,NA,NA
CPEgiN83,3e6l1vr4yzzg81jodkfak6sl8ztf6z,3z3zlgnnsm7gprk9z0x8emg77y4q37,CPEgiN83,2020-0188,2021-10-17,13:30:57,14:57:53,NA,incomplete,false,true,NA,1,9,NA,yellow,m_l_059.jpg,NA,NA,unpleasant,pleasant,NA,NA,NA,NA,NA,right,1294,true,NA,NA,NA,NA,NA
CPEgiN83,3e6l1vr4yzzg81jodkfak6sl8ztf6z,3z3zlgnnsm7gprk9z0x8emg77y4q37,CPEgiN83,2020-0188,2021-10-17,13:30:57,14:57:53,NA,incomplete,false,true,NA,1,10,NA,yellow,m_l_032.jpg,NA,NA,unpleasant,pleasant,NA,NA,NA,NA,NA,right,1483,true,NA,NA,NA,NA,NA
CPEgiN83,3e6l1vr4yzzg81jodkfak6sl8ztf6z,3z3zlgnnsm7gprk9z0x8emg77y4q37,CPEgiN83,2020-0188,2021-10-17,13:30:57,14:57:53,NA,incomplete,false,true,NA,1,11,NA,yellow,m_s_017.jpg,NA,NA,pleasant,unpleasant,NA,NA,NA,NA,NA,left,2039,true,NA,NA,NA,NA,NA
CPEgiN83,3e6l1vr4yzzg81jodkfak6sl8ztf6z,3z3zlgnnsm7gprk9z0x8emg77y4q37,CPEgiN83,2020-0188,2021-10-17,13:30:57,14:57:53,NA,incomplete,false,true,NA,1,12,NA,brown,n_s_082.jpg,NA,NA,unpleasant,pleasant,NA,NA,NA,NA,NA,right,1403,true,NA,NA,NA,NA,NA
CPEgiN83,3e6l1vr4yzzg81jodkfak6sl8ztf6z,3z3zlgnnsm7gprk9z0x8emg77y4q37,CPEgiN83,2020-0188,2021-10-17,13:30:57,14:57:53,NA,incomplete,false,true,NA,1,13,NA,brown,n_s_059.jpg,NA,NA,pleasant,unpleasant,NA,NA,NA,NA,NA,left,1775,true,NA,NA,NA,NA,NA
CPEgiN83,3e6l1vr4yzzg81jodkfak6sl8ztf6z,3z3zlgnnsm7gprk9z0x8emg77y4q37,CPEgiN83,2020-0188,2021-10-17,13:30:57,14:57:53,NA,incomplete,false,true,NA,1,14,NA,brown,m_l_068.jpg,NA,NA,unpleasant,pleasant,NA,NA,NA,NA,NA,right,1838,true,NA,NA,NA,NA,NA
CPEgiN83,3e6l1vr4yzzg81jodkfak6sl8ztf6z,3z3zlgnnsm7gprk9z0x8emg77y4q37,CPEgiN83,2020-0188,2021-10-17,13:30:57,14:57:53,NA,incomplete,false,true,NA,1,15,NA,brown,n_s_031.jpg,NA,NA,unpleasant,pleasant,NA,NA,NA,NA,NA,right,1611,true,NA,NA,NA,NA,NA
CPEgiN83,3e6l1vr4yzzg81jodkfak6sl8ztf6z,3z3zlgnnsm7gprk9z0x8emg77y4q37,CPEgiN83,2020-0188,2021-10-17,13:30:57,14:57:53,NA,incomplete,false,true,NA,1,16,NA,brown,m_s_046.jpg,NA,NA,unpleasant,pleasant,NA,NA,NA,NA,NA,right,1315,true,NA,NA,NA,NA,NA
CPEgiN83,3e6l1vr4yzzg81jodkfak6sl8ztf6z,3z3zlgnnsm7gprk9z0x8emg77y4q37,CPEgiN83,2020-0188,2021-10-17,13:30:57,14:57:53,NA,incomplete,false,true,NA,1,17,NA,brown,m_s_039.jpg,NA,NA,unpleasant,pleasant,NA,NA,NA,NA,NA,right,1136,true,NA,NA,NA,NA,NA
CPEgiN83,3e6l1vr4yzzg81jodkfak6sl8ztf6z,3z3zlgnnsm7gprk9z0x8emg77y4q37,CPEgiN83,2020-0188,2021-10-17,13:30:57,14:57:53,NA,incomplete,false,true,NA,1,18,NA,gray,m_s_063.jpg,NA,NA,unpleasant,pleasant,NA,NA,NA,NA,NA,right,1493,true,NA,NA,NA,NA,NA
CPEgiN83,3e6l1vr4yzzg81jodkfak6sl8ztf6z,3z3zlgnnsm7gprk9z0x8emg77y4q37,CPEgiN83,2020-0188,2021-10-17,13:30:57,14:57:53,NA,incomplete,false,true,NA,1,19,NA,gray,m_s_108.jpg,NA,NA,pleasant,unpleasant,NA,NA,NA,NA,NA,left,1658,true,NA,NA,NA,NA,NA
CPEgiN83,3e6l1vr4yzzg81jodkfak6sl8ztf6z,3z3zlgnnsm7gprk9z0x8emg77y4q37,CPEgiN83,2020-0188,2021-10-17,13:30:57,14:57:53,NA,incomplete,false,true,NA,1,20,NA,gray,n_l_039.jpg,NA,NA,pleasant,unpleasant,NA,NA,NA,NA,NA,left,1313,true,NA,NA,NA,NA,NA
CPEgiN83,3e6l1vr4yzzg81jodkfak6sl8ztf6z,3z3zlgnnsm7gprk9z0x8emg77y4q37,CPEgiN83,2020-0188,2021-10-17,13:30:57,14:57:53,NA,incomplete,false,true,NA,1,21,NA,gray,n_s_110.jpg,NA,NA,pleasant,unpleasant,NA,NA,NA,NA,NA,left,2243,true,NA,NA,NA,NA,NA
CPEgiN83,3e6l1vr4yzzg81jodkfak6sl8ztf6z,3z3zlgnnsm7gprk9z0x8emg77y4q37,CPEgiN83,2020-0188,2021-10-17,13:30:57,14:57:53,NA,incomplete,false,true,NA,1,22,NA,gray,m_s_111.jpg,NA,NA,pleasant,unpleasant,NA,NA,NA,NA,NA,left,1327,true,NA,NA,NA,NA,NA
CPEgiN83,3e6l1vr4yzzg81jodkfak6sl8ztf6z,3z3zlgnnsm7gprk9z0x8emg77y4q37,CPEgiN83,2020-0188,2021-10-17,13:30:57,14:57:53,NA,incomplete,false,true,NA,1,23,NA,gray,m_s_070.jpg,NA,NA,pleasant,unpleasant,NA,NA,NA,NA,NA,left,1450,true,NA,NA,NA,NA,NA
CPEgiN83,3e6l1vr4yzzg81jodkfak6sl8ztf6z,3z3zlgnnsm7gprk9z0x8emg77y4q37,CPEgiN83,2020-0188,2021-10-17,13:30:57,14:57:53,NA,incomplete,false,true,NA,1,24,NA,red,m_s_054.jpg,NA,NA,unpleasant,pleasant,NA,NA,NA,NA,NA,right,1417,true,NA,NA,NA,NA,NA
CPEgiN83,3e6l1vr4yzzg81jodkfak6sl8ztf6z,3z3zlgnnsm7gprk9z0x8emg77y4q37,CPEgiN83,2020-0188,2021-10-17,13:30:57,14:57:53,NA,incomplete,false,true,NA,1,25,NA,red,m_s_065.jpg,NA,NA,pleasant,unpleasant,NA,NA,NA,NA,NA,left,2357,true,NA,NA,NA,NA,NA
CPEgiN83,3e6l1vr4yzzg81jodkfak6sl8ztf6z,3z3zlgnnsm7gprk9z0x8emg77y4q37,CPEgiN83,2020-0188,2021-10-17,13:30:57,14:57:53,NA,incomplete,false,true,NA,1,26,NA,red,n_l_083.jpg,NA,NA,unpleasant,pleasant,NA,NA,NA,NA,NA,left,1709,true,NA,NA,NA,NA,NA
CPEgiN83,3e6l1vr4yzzg81jodkfak6sl8ztf6z,3z3zlgnnsm7gprk9z0x8emg77y4q37,CPEgiN83,2020-0188,2021-10-17,13:30:57,14:57:53,NA,incomplete,false,true,NA,1,27,NA,red,m_l_117.jpg,NA,NA,unpleasant,pleasant,NA,NA,NA,NA,NA,right,1349,true,NA,NA,NA,NA,NA
CPEgiN83,3e6l1vr4yzzg81jodkfak6sl8ztf6z,3z3zlgnnsm7gprk9z0x8emg77y4q37,CPEgiN83,2020-0188,2021-10-17,13:30:57,14:57:53,NA,incomplete,false,true,NA,1,28,NA,red,n_l_092.jpg,NA,NA,unpleasant,pleasant,NA,NA,NA,NA,NA,left,2103,true,NA,NA,NA,NA,NA
CPEgiN83,3e6l1vr4yzzg81jodkfak6sl8ztf6z,3z3zlgnnsm7gprk9z0x8emg77y4q37,CPEgiN83,2020-0188,2021-10-17,13:30:57,14:57:53,NA,incomplete,false,true,NA,1,29,NA,red,n_l_011.jpg,NA,NA,pleasant,unpleasant,NA,NA,NA,NA,NA,right,2459,true,NA,NA,NA,NA,NA
CPEgiN83,3e6l1vr4yzzg81jodkfak6sl8ztf6z,3z3zlgnnsm7gprk9z0x8emg77y4q37,CPEgiN83,2020-0188,2021-10-17,13:30:57,14:57:53,NA,incomplete,false,true,NA,1,30,NA,white,n_l_103.jpg,NA,NA,pleasant,unpleasant,NA,NA,NA,NA,NA,left,1573,true,NA,NA,NA,NA,NA
CPEgiN83,3e6l1vr4yzzg81jodkfak6sl8ztf6z,3z3zlgnnsm7gprk9z0x8emg77y4q37,CPEgiN83,2020-0188,2021-10-17,13:30:57,14:57:53,NA,incomplete,false,true,NA,1,31,NA,white,m_s_067.jpg,NA,NA,unpleasant,pleasant,NA,NA,NA,NA,NA,right,1952,true,NA,NA,NA,NA,NA
CPEgiN83,3e6l1vr4yzzg81jodkfak6sl8ztf6z,3z3zlgnnsm7gprk9z0x8emg77y4q37,CPEgiN83,2020-0188,2021-10-17,13:30:57,14:57:53,NA,incomplete,false,true,NA,1,32,NA,white,n_l_075.jpg,NA,NA,unpleasant,pleasant,NA,NA,NA,NA,NA,right,1881,true,NA,NA,NA,NA,NA
CPEgiN83,3e6l1vr4yzzg81jodkfak6sl8ztf6z,3z3zlgnnsm7gprk9z0x8emg77y4q37,CPEgiN83,2020-0188,2021-10-17,13:30:57,14:57:53,NA,incomplete,false,true,NA,1,33,NA,white,n_l_099.jpg,NA,NA,unpleasant,pleasant,NA,NA,NA,NA,NA,left,2210,true,NA,NA,NA,NA,NA
CPEgiN83,3e6l1vr4yzzg81jodkfak6sl8ztf6z,3z3zlgnnsm7gprk9z0x8emg77y4q37,CPEgiN83,2020-0188,2021-10-17,13:30:57,14:57:53,NA,incomplete,false,true,NA,1,34,NA,white,n_s_009.jpg,NA,NA,unpleasant,pleasant,NA,NA,NA,NA,NA,right,1671,true,NA,NA,NA,NA,NA
CPEgiN83,3e6l1vr4yzzg81jodkfak6sl8ztf6z,3z3zlgnnsm7gprk9z0x8emg77y4q37,CPEgiN83,2020-0188,2021-10-17,13:30:57,14:57:53,NA,incomplete,false,true,NA,1,35,NA,white,n_s_058.jpg,NA,NA,pleasant,unpleasant,NA,NA,NA,NA,NA,left,1280,true,NA,NA,NA,NA,NA
CPEgiN83,3e6l1vr4yzzg81jodkfak6sl8ztf6z,3z3zlgnnsm7gprk9z0x8emg77y4q37,CPEgiN83,2020-0188,2021-10-17,13:30:57,14:57:53,NA,incomplete,false,NA,true,1,0,NA,NA,NA,left,absent,NA,NA,m_s_074.jpg,black,m_s_085.jpg,black,within,NA,NaN,NA,left,2719,1,1,2377
CPEgiN83,3e6l1vr4yzzg81jodkfak6sl8ztf6z,3z3zlgnnsm7gprk9z0x8emg77y4q37,CPEgiN83,2020-0188,2021-10-17,13:30:57,14:57:53,NA,incomplete,false,NA,true,1,1,NA,NA,NA,left,absent,NA,NA,m_s_008.jpg,yellow,m_s_017.jpg,yellow,within,NA,NaN,NA,right,3329,0,1,2552
CPEgiN83,3e6l1vr4yzzg81jodkfak6sl8ztf6z,3z3zlgnnsm7gprk9z0x8emg77y4q37,CPEgiN83,2020-0188,2021-10-17,13:30:57,14:57:53,NA,incomplete,false,NA,true,1,2,NA,NA,NA,right,absent,NA,NA,n_l_039.jpg,gray,m_s_046.jpg,brown,between,NA,NaN,NA,right,3118,1,1,3718
CPEgiN83,3e6l1vr4yzzg81jodkfak6sl8ztf6z,3z3zlgnnsm7gprk9z0x8emg77y4q37,CPEgiN83,2020-0188,2021-10-17,13:30:57,14:57:53,NA,incomplete,false,NA,true,1,3,NA,NA,NA,left,absent,NA,NA,m_s_111.jpg,gray,n_l_083.jpg,red,between,NA,NaN,NA,left,3927,1,1,1864
CPEgiN83,3e6l1vr4yzzg81jodkfak6sl8ztf6z,3z3zlgnnsm7gprk9z0x8emg77y4q37,CPEgiN83,2020-0188,2021-10-17,13:30:57,14:57:53,NA,incomplete,false,NA,true,1,4,NA,NA,NA,right,absent,NA,NA,m_l_068.jpg,brown,m_l_032.jpg,yellow,between,NA,NaN,NA,left,3384,0,1,2129
CPEgiN83,3e6l1vr4yzzg81jodkfak6sl8ztf6z,3z3zlgnnsm7gprk9z0x8emg77y4q37,CPEgiN83,2020-0188,2021-10-17,13:30:57,14:57:53,NA,incomplete,false,NA,true,1,5,NA,NA,NA,left,absent,NA,NA,m_s_065.jpg,red,n_l_011.jpg,red,within,NA,NaN,NA,left,7847,1,1,1437
CPEgiN83,3e6l1vr4yzzg81jodkfak6sl8ztf6z,3z3zlgnnsm7gprk9z0x8emg77y4q37,CPEgiN83,2020-0188,2021-10-17,13:30:57,14:57:53,NA,incomplete,false,NA,true,1,6,NA,NA,NA,right,absent,NA,NA,m_l_009.jpg,yellow,n_l_052.jpg,black,between,NA,NaN,NA,left,4313,0,0,1558
CPEgiN83,3e6l1vr4yzzg81jodkfak6sl8ztf6z,3z3zlgnnsm7gprk9z0x8emg77y4q37,CPEgiN83,2020-0188,2021-10-17,13:30:57,14:57:53,NA,incomplete,false,NA,true,1,7,NA,NA,NA,right,absent,NA,NA,n_l_075.jpg,white,n_l_092.jpg,red,between,NA,NaN,NA,right,4005,1,3,2062
CPEgiN83,3e6l1vr4yzzg81jodkfak6sl8ztf6z,3z3zlgnnsm7gprk9z0x8emg77y4q37,CPEgiN83,2020-0188,2021-10-17,13:30:57,14:57:53,NA,incomplete,false,NA,true,1,8,NA,NA,NA,left,absent,NA,NA,m_s_067.jpg,white,n_s_058.jpg,white,within,NA,NaN,NA,right,4218,0,1,1809
CPEgiN83,3e6l1vr4yzzg81jodkfak6sl8ztf6z,3z3zlgnnsm7gprk9z0x8emg77y4q37,CPEgiN83,2020-0188,2021-10-17,13:30:57,14:57:53,NA,incomplete,false,NA,true,1,9,NA,NA,NA,right,absent,NA,NA,m_s_039.jpg,brown,n_s_059.jpg,brown,within,NA,NaN,NA,right,5465,1,1,1303
CPEgiN83,3e6l1vr4yzzg81jodkfak6sl8ztf6z,3z3zlgnnsm7gprk9z0x8emg77y4q37,CPEgiN83,2020-0188,2021-10-17,13:30:57,14:57:53,NA,incomplete,false,NA,true,1,10,NA,NA,NA,right,absent,NA,NA,m_s_070.jpg,gray,m_s_108.jpg,gray,within,NA,NaN,NA,right,3479,1,1,1510
CPEgiN83,3e6l1vr4yzzg81jodkfak6sl8ztf6z,3z3zlgnnsm7gprk9z0x8emg77y4q37,CPEgiN83,2020-0188,2021-10-17,13:30:57,14:57:53,NA,incomplete,false,true,NA,2,0,NA,brown,m_s_042.jpg,NA,NA,pleasant,unpleasant,NA,NA,NA,NA,NA,left,1990,true,NA,NA,NA,NA,NA
CPEgiN83,3e6l1vr4yzzg81jodkfak6sl8ztf6z,3z3zlgnnsm7gprk9z0x8emg77y4q37,CPEgiN83,2020-0188,2021-10-17,13:30:57,14:57:53,NA,incomplete,false,true,NA,2,1,NA,brown,m_s_097.jpg,NA,NA,unpleasant,pleasant,NA,NA,NA,NA,NA,left,1482,true,NA,NA,NA,NA,NA
CPEgiN83,3e6l1vr4yzzg81jodkfak6sl8ztf6z,3z3zlgnnsm7gprk9z0x8emg77y4q37,CPEgiN83,2020-0188,2021-10-17,13:30:57,14:57:53,NA,incomplete,false,true,NA,2,2,NA,brown,m_l_083.jpg,NA,NA,unpleasant,pleasant,NA,NA,NA,NA,NA,right,1466,true,NA,NA,NA,NA,NA
CPEgiN83,3e6l1vr4yzzg81jodkfak6sl8ztf6z,3z3zlgnnsm7gprk9z0x8emg77y4q37,CPEgiN83,2020-0188,2021-10-17,13:30:57,14:57:53,NA,incomplete,false,true,NA,2,3,NA,brown,m_l_070.jpg,NA,NA,pleasant,unpleasant,NA,NA,NA,NA,NA,left,1385,true,NA,NA,NA,NA,NA
CPEgiN83,3e6l1vr4yzzg81jodkfak6sl8ztf6z,3z3zlgnnsm7gprk9z0x8emg77y4q37,CPEgiN83,2020-0188,2021-10-17,13:30:57,14:57:53,NA,incomplete,false,true,NA,2,4,NA,brown,m_s_103.jpg,NA,NA,unpleasant,pleasant,NA,NA,NA,NA,NA,right,1256,true,NA,NA,NA,NA,NA
CPEgiN83,3e6l1vr4yzzg81jodkfak6sl8ztf6z,3z3zlgnnsm7gprk9z0x8emg77y4q37,CPEgiN83,2020-0188,2021-10-17,13:30:57,14:57:53,NA,incomplete,false,true,NA,2,5,NA,brown,n_l_091.jpg,NA,NA,unpleasant,pleasant,NA,NA,NA,NA,NA,right,1879,true,NA,NA,NA,NA,NA
CPEgiN83,3e6l1vr4yzzg81jodkfak6sl8ztf6z,3z3zlgnnsm7gprk9z0x8emg77y4q37,CPEgiN83,2020-0188,2021-10-17,13:30:57,14:57:53,NA,incomplete,false,true,NA,2,6,NA,red,n_l_035.jpg,NA,NA,unpleasant,pleasant,NA,NA,NA,NA,NA,right,2445,true,NA,NA,NA,NA,NA
CPEgiN83,3e6l1vr4yzzg81jodkfak6sl8ztf6z,3z3zlgnnsm7gprk9z0x8emg77y4q37,CPEgiN83,2020-0188,2021-10-17,13:30:57,14:57:53,NA,incomplete,false,true,NA,2,7,NA,red,n_s_097.jpg,NA,NA,unpleasant,pleasant,NA,NA,NA,NA,NA,right,1577,true,NA,NA,NA,NA,NA
CPEgiN83,3e6l1vr4yzzg81jodkfak6sl8ztf6z,3z3zlgnnsm7gprk9z0x8emg77y4q37,CPEgiN83,2020-0188,2021-10-17,13:30:57,14:57:53,NA,incomplete,false,true,NA,2,8,NA,red,m_l_013.jpg,NA,NA,pleasant,unpleasant,NA,NA,NA,NA,NA,left,1979,true,NA,NA,NA,NA,NA
CPEgiN83,3e6l1vr4yzzg81jodkfak6sl8ztf6z,3z3zlgnnsm7gprk9z0x8emg77y4q37,CPEgiN83,2020-0188,2021-10-17,13:30:57,14:57:53,NA,incomplete,false,true,NA,2,9,NA,red,n_l_033.jpg,NA,NA,unpleasant,pleasant,NA,NA,NA,NA,NA,right,1248,true,NA,NA,NA,NA,NA
CPEgiN83,3e6l1vr4yzzg81jodkfak6sl8ztf6z,3z3zlgnnsm7gprk9z0x8emg77y4q37,CPEgiN83,2020-0188,2021-10-17,13:30:57,14:57:53,NA,incomplete,false,true,NA,2,10,NA,red,m_l_092.jpg,NA,NA,pleasant,unpleasant,NA,NA,NA,NA,NA,left,2049,true,NA,NA,NA,NA,NA
CPEgiN83,3e6l1vr4yzzg81jodkfak6sl8ztf6z,3z3zlgnnsm7gprk9z0x8emg77y4q37,CPEgiN83,2020-0188,2021-10-17,13:30:57,14:57:53,NA,incomplete,false,true,NA,2,11,NA,red,m_s_095.jpg,NA,NA,unpleasant,pleasant,NA,NA,NA,NA,NA,right,1517,true,NA,NA,NA,NA,NA
CPEgiN83,3e6l1vr4yzzg81jodkfak6sl8ztf6z,3z3zlgnnsm7gprk9z0x8emg77y4q37,CPEgiN83,2020-0188,2021-10-17,13:30:57,14:57:53,NA,incomplete,false,true,NA,2,12,NA,gray,n_l_070.jpg,NA,NA,pleasant,unpleasant,NA,NA,NA,NA,NA,left,1768,true,NA,NA,NA,NA,NA
CPEgiN83,3e6l1vr4yzzg81jodkfak6sl8ztf6z,3z3zlgnnsm7gprk9z0x8emg77y4q37,CPEgiN83,2020-0188,2021-10-17,13:30:57,14:57:53,NA,incomplete,false,true,NA,2,13,NA,gray,m_l_048.jpg,NA,NA,pleasant,unpleasant,NA,NA,NA,NA,NA,left,1650,true,NA,NA,NA,NA,NA
CPEgiN83,3e6l1vr4yzzg81jodkfak6sl8ztf6z,3z3zlgnnsm7gprk9z0x8emg77y4q37,CPEgiN83,2020-0188,2021-10-17,13:30:57,14:57:53,NA,incomplete,false,true,NA,2,14,NA,gray,m_l_078.jpg,NA,NA,unpleasant,pleasant,NA,NA,NA,NA,NA,right,1354,true,NA,NA,NA,NA,NA
CPEgiN83,3e6l1vr4yzzg81jodkfak6sl8ztf6z,3z3zlgnnsm7gprk9z0x8emg77y4q37,CPEgiN83,2020-0188,2021-10-17,13:30:57,14:57:53,NA,incomplete,false,true,NA,2,15,NA,gray,n_l_020.jpg,NA,NA,unpleasant,pleasant,NA,NA,NA,NA,NA,right,1671,true,NA,NA,NA,NA,NA
CPEgiN83,3e6l1vr4yzzg81jodkfak6sl8ztf6z,3z3zlgnnsm7gprk9z0x8emg77y4q37,CPEgiN83,2020-0188,2021-10-17,13:30:57,14:57:53,NA,incomplete,false,true,NA,2,16,NA,gray,n_l_111.jpg,NA,NA,pleasant,unpleasant,NA,NA,NA,NA,NA,left,1988,true,NA,NA,NA,NA,NA
CPEgiN83,3e6l1vr4yzzg81jodkfak6sl8ztf6z,3z3zlgnnsm7gprk9z0x8emg77y4q37,CPEgiN83,2020-0188,2021-10-17,13:30:57,14:57:53,NA,incomplete,false,true,NA,2,17,NA,gray,m_l_091.jpg,NA,NA,unpleasant,pleasant,NA,NA,NA,NA,NA,right,2546,true,NA,NA,NA,NA,NA
CPEgiN83,3e6l1vr4yzzg81jodkfak6sl8ztf6z,3z3zlgnnsm7gprk9z0x8emg77y4q37,CPEgiN83,2020-0188,2021-10-17,13:30:57,14:57:53,NA,incomplete,false,true,NA,2,18,NA,green,m_s_106.jpg,NA,NA,pleasant,unpleasant,NA,NA,NA,NA,NA,left,1571,true,NA,NA,NA,NA,NA
CPEgiN83,3e6l1vr4yzzg81jodkfak6sl8ztf6z,3z3zlgnnsm7gprk9z0x8emg77y4q37,CPEgiN83,2020-0188,2021-10-17,13:30:57,14:57:53,NA,incomplete,false,true,NA,2,19,NA,green,m_l_039.jpg,NA,NA,unpleasant,pleasant,NA,NA,NA,NA,NA,right,1066,true,NA,NA,NA,NA,NA
CPEgiN83,3e6l1vr4yzzg81jodkfak6sl8ztf6z,3z3zlgnnsm7gprk9z0x8emg77y4q37,CPEgiN83,2020-0188,2021-10-17,13:30:57,14:57:53,NA,incomplete,false,true,NA,2,20,NA,green,n_l_055.jpg,NA,NA,unpleasant,pleasant,NA,NA,NA,NA,NA,right,2242,true,NA,NA,NA,NA,NA
CPEgiN83,3e6l1vr4yzzg81jodkfak6sl8ztf6z,3z3zlgnnsm7gprk9z0x8emg77y4q37,CPEgiN83,2020-0188,2021-10-17,13:30:57,14:57:53,NA,incomplete,false,true,NA,2,21,NA,green,m_s_047.jpg,NA,NA,pleasant,unpleasant,NA,NA,NA,NA,NA,left,1938,true,NA,NA,NA,NA,NA
CPEgiN83,3e6l1vr4yzzg81jodkfak6sl8ztf6z,3z3zlgnnsm7gprk9z0x8emg77y4q37,CPEgiN83,2020-0188,2021-10-17,13:30:57,14:57:53,NA,incomplete,false,true,NA,2,22,NA,green,m_s_006.jpg,NA,NA,unpleasant,pleasant,NA,NA,NA,NA,NA,right,1343,true,NA,NA,NA,NA,NA
CPEgiN83,3e6l1vr4yzzg81jodkfak6sl8ztf6z,3z3zlgnnsm7gprk9z0x8emg77y4q37,CPEgiN83,2020-0188,2021-10-17,13:30:57,14:57:53,NA,incomplete,false,true,NA,2,23,NA,green,n_s_023.jpg,NA,NA,pleasant,unpleasant,NA,NA,NA,NA,NA,left,1674,true,NA,NA,NA,NA,NA
CPEgiN83,3e6l1vr4yzzg81jodkfak6sl8ztf6z,3z3zlgnnsm7gprk9z0x8emg77y4q37,CPEgiN83,2020-0188,2021-10-17,13:30:57,14:57:53,NA,incomplete,false,true,NA,2,24,NA,black,m_s_031.jpg,NA,NA,unpleasant,pleasant,NA,NA,NA,NA,NA,right,1282,true,NA,NA,NA,NA,NA
CPEgiN83,3e6l1vr4yzzg81jodkfak6sl8ztf6z,3z3zlgnnsm7gprk9z0x8emg77y4q37,CPEgiN83,2020-0188,2021-10-17,13:30:57,14:57:53,NA,incomplete,false,true,NA,2,25,NA,black,n_s_021.jpg,NA,NA,pleasant,unpleasant,NA,NA,NA,NA,NA,left,1794,true,NA,NA,NA,NA,NA
CPEgiN83,3e6l1vr4yzzg81jodkfak6sl8ztf6z,3z3zlgnnsm7gprk9z0x8emg77y4q37,CPEgiN83,2020-0188,2021-10-17,13:30:57,14:57:53,NA,incomplete,false,true,NA,2,26,NA,black,n_l_069.jpg,NA,NA,unpleasant,pleasant,NA,NA,NA,NA,NA,right,1708,true,NA,NA,NA,NA,NA
CPEgiN83,3e6l1vr4yzzg81jodkfak6sl8ztf6z,3z3zlgnnsm7gprk9z0x8emg77y4q37,CPEgiN83,2020-0188,2021-10-17,13:30:57,14:57:53,NA,incomplete,false,true,NA,2,27,NA,black,m_l_064.jpg,NA,NA,unpleasant,pleasant,NA,NA,NA,NA,NA,right,1481,true,NA,NA,NA,NA,NA
CPEgiN83,3e6l1vr4yzzg81jodkfak6sl8ztf6z,3z3zlgnnsm7gprk9z0x8emg77y4q37,CPEgiN83,2020-0188,2021-10-17,13:30:57,14:57:53,NA,incomplete,false,true,NA,2,28,NA,black,m_l_061.jpg,NA,NA,pleasant,unpleasant,NA,NA,NA,NA,NA,left,1677,true,NA,NA,NA,NA,NA
CPEgiN83,3e6l1vr4yzzg81jodkfak6sl8ztf6z,3z3zlgnnsm7gprk9z0x8emg77y4q37,CPEgiN83,2020-0188,2021-10-17,13:30:57,14:57:53,NA,incomplete,false,true,NA,2,29,NA,black,n_l_068.jpg,NA,NA,pleasant,unpleasant,NA,NA,NA,NA,NA,left,1757,true,NA,NA,NA,NA,NA
CPEgiN83,3e6l1vr4yzzg81jodkfak6sl8ztf6z,3z3zlgnnsm7gprk9z0x8emg77y4q37,CPEgiN83,2020-0188,2021-10-17,13:30:57,14:57:53,NA,incomplete,false,true,NA,2,30,NA,blue,n_s_050.jpg,NA,NA,pleasant,unpleasant,NA,NA,NA,NA,NA,left,1829,true,NA,NA,NA,NA,NA
CPEgiN83,3e6l1vr4yzzg81jodkfak6sl8ztf6z,3z3zlgnnsm7gprk9z0x8emg77y4q37,CPEgiN83,2020-0188,2021-10-17,13:30:57,14:57:53,NA,incomplete,false,true,NA,2,31,NA,blue,m_l_040.jpg,NA,NA,unpleasant,pleasant,NA,NA,NA,NA,NA,right,2308,true,NA,NA,NA,NA,NA
CPEgiN83,3e6l1vr4yzzg81jodkfak6sl8ztf6z,3z3zlgnnsm7gprk9z0x8emg77y4q37,CPEgiN83,2020-0188,2021-10-17,13:30:57,14:57:53,NA,incomplete,false,true,NA,2,32,NA,blue,m_l_037.jpg,NA,NA,unpleasant,pleasant,NA,NA,NA,NA,NA,right,1668,true,NA,NA,NA,NA,NA
CPEgiN83,3e6l1vr4yzzg81jodkfak6sl8ztf6z,3z3zlgnnsm7gprk9z0x8emg77y4q37,CPEgiN83,2020-0188,2021-10-17,13:30:57,14:57:53,NA,incomplete,false,true,NA,2,33,NA,blue,n_s_037.jpg,NA,NA,pleasant,unpleasant,NA,NA,NA,NA,NA,left,1507,true,NA,NA,NA,NA,NA
CPEgiN83,3e6l1vr4yzzg81jodkfak6sl8ztf6z,3z3zlgnnsm7gprk9z0x8emg77y4q37,CPEgiN83,2020-0188,2021-10-17,13:30:57,14:57:53,NA,incomplete,false,true,NA,2,34,NA,blue,n_l_108.jpg,NA,NA,pleasant,unpleasant,NA,NA,NA,NA,NA,left,2400,true,NA,NA,NA,NA,NA
CPEgiN83,3e6l1vr4yzzg81jodkfak6sl8ztf6z,3z3zlgnnsm7gprk9z0x8emg77y4q37,CPEgiN83,2020-0188,2021-10-17,13:30:57,14:57:53,NA,incomplete,false,true,NA,2,35,NA,blue,n_l_113.jpg,NA,NA,unpleasant,pleasant,NA,NA,NA,NA,NA,right,1342,true,NA,NA,NA,NA,NA
CPEgiN83,3e6l1vr4yzzg81jodkfak6sl8ztf6z,3z3zlgnnsm7gprk9z0x8emg77y4q37,CPEgiN83,2020-0188,2021-10-17,13:30:57,14:57:53,NA,incomplete,false,NA,true,2,0,NA,NA,NA,left,present,NA,NA,m_l_040.jpg,blue,n_l_113.jpg,blue,within,NA,NaN,NA,left,3295,1,1,2133
CPEgiN83,3e6l1vr4yzzg81jodkfak6sl8ztf6z,3z3zlgnnsm7gprk9z0x8emg77y4q37,CPEgiN83,2020-0188,2021-10-17,13:30:57,14:57:53,NA,incomplete,false,NA,true,2,1,NA,NA,NA,right,present,NA,NA,m_l_037.jpg,blue,m_l_061.jpg,black,between,NA,NaN,NA,right,3782,1,1,1220
CPEgiN83,3e6l1vr4yzzg81jodkfak6sl8ztf6z,3z3zlgnnsm7gprk9z0x8emg77y4q37,CPEgiN83,2020-0188,2021-10-17,13:30:57,14:57:53,NA,incomplete,false,NA,true,2,2,NA,NA,NA,right,present,NA,NA,n_l_055.jpg,green,n_l_111.jpg,gray,between,NA,NaN,NA,right,4497,1,0,1520
CPEgiN83,3e6l1vr4yzzg81jodkfak6sl8ztf6z,3z3zlgnnsm7gprk9z0x8emg77y4q37,CPEgiN83,2020-0188,2021-10-17,13:30:57,14:57:53,NA,incomplete,false,NA,true,2,3,NA,NA,NA,left,present,NA,NA,m_l_092.jpg,red,m_l_078.jpg,gray,between,NA,NaN,NA,right,6420,0,0,1718
CPEgiN83,3e6l1vr4yzzg81jodkfak6sl8ztf6z,3z3zlgnnsm7gprk9z0x8emg77y4q37,CPEgiN83,2020-0188,2021-10-17,13:30:57,14:57:53,NA,incomplete,false,NA,true,2,4,NA,NA,NA,left,present,NA,NA,m_s_006.jpg,green,n_l_069.jpg,black,between,NA,NaN,NA,left,4791,1,1,3875
CPEgiN83,3e6l1vr4yzzg81jodkfak6sl8ztf6z,3z3zlgnnsm7gprk9z0x8emg77y4q37,CPEgiN83,2020-0188,2021-10-17,13:30:57,14:57:53,NA,incomplete,false,NA,true,2,5,NA,NA,NA,right,present,NA,NA,m_l_013.jpg,red,m_s_103.jpg,brown,between,NA,NaN,NA,left,4463,0,1,1744
CPEgiN83,3e6l1vr4yzzg81jodkfak6sl8ztf6z,3z3zlgnnsm7gprk9z0x8emg77y4q37,CPEgiN83,2020-0188,2021-10-17,13:30:57,14:57:53,NA,incomplete,false,NA,true,2,6,NA,NA,NA,left,present,NA,NA,m_l_048.jpg,gray,m_l_091.jpg,gray,within,NA,NaN,NA,left,5187,1,1,1856
CPEgiN83,3e6l1vr4yzzg81jodkfak6sl8ztf6z,3z3zlgnnsm7gprk9z0x8emg77y4q37,CPEgiN83,2020-0188,2021-10-17,13:30:57,14:57:53,NA,incomplete,false,NA,true,2,7,NA,NA,NA,left,present,NA,NA,n_s_097.jpg,red,m_s_095.jpg,red,within,NA,NaN,NA,left,6287,1,1,1197
CPEgiN83,3e6l1vr4yzzg81jodkfak6sl8ztf6z,3z3zlgnnsm7gprk9z0x8emg77y4q37,CPEgiN83,2020-0188,2021-10-17,13:30:57,14:57:53,NA,incomplete,false,NA,true,2,8,NA,NA,NA,right,present,NA,NA,n_l_091.jpg,brown,m_s_097.jpg,brown,within,NA,NaN,NA,right,4654,1,3,3535
CPEgiN83,3e6l1vr4yzzg81jodkfak6sl8ztf6z,3z3zlgnnsm7gprk9z0x8emg77y4q37,CPEgiN83,2020-0188,2021-10-17,13:30:57,14:57:53,NA,incomplete,false,NA,true,2,9,NA,NA,NA,right,present,NA,NA,n_l_068.jpg,black,n_s_021.jpg,black,within,NA,NaN,NA,right,3189,1,1,2128
CPEgiN83,3e6l1vr4yzzg81jodkfak6sl8ztf6z,3z3zlgnnsm7gprk9z0x8emg77y4q37,CPEgiN83,2020-0188,2021-10-17,13:30:57,14:57:53,NA,incomplete,false,NA,true,2,10,NA,NA,NA,left,present,NA,NA,m_l_039.jpg,green,n_s_023.jpg,green,within,NA,NaN,NA,right,4435,0,0,1854
CPEgiN83,3e6l1vr4yzzg81jodkfak6sl8ztf6z,3z3zlgnnsm7gprk9z0x8emg77y4q37,CPEgiN83,2020-0188,2021-10-17,13:30:57,14:57:53,NA,incomplete,false,true,NA,3,0,NA,brown,n_s_065.jpg,NA,NA,pleasant,unpleasant,NA,NA,NA,NA,NA,left,1978,true,NA,NA,NA,NA,NA
CPEgiN83,3e6l1vr4yzzg81jodkfak6sl8ztf6z,3z3zlgnnsm7gprk9z0x8emg77y4q37,CPEgiN83,2020-0188,2021-10-17,13:30:57,14:57:53,NA,incomplete,false,true,NA,3,1,NA,brown,m_s_022.jpg,NA,NA,unpleasant,pleasant,NA,NA,NA,NA,NA,right,1297,true,NA,NA,NA,NA,NA
CPEgiN83,3e6l1vr4yzzg81jodkfak6sl8ztf6z,3z3zlgnnsm7gprk9z0x8emg77y4q37,CPEgiN83,2020-0188,2021-10-17,13:30:57,14:57:53,NA,incomplete,false,true,NA,3,2,NA,brown,m_l_079.jpg,NA,NA,pleasant,unpleasant,NA,NA,NA,NA,NA,left,1347,true,NA,NA,NA,NA,NA
CPEgiN83,3e6l1vr4yzzg81jodkfak6sl8ztf6z,3z3zlgnnsm7gprk9z0x8emg77y4q37,CPEgiN83,2020-0188,2021-10-17,13:30:57,14:57:53,NA,incomplete,false,true,NA,3,3,NA,brown,n_l_049.jpg,NA,NA,unpleasant,pleasant,NA,NA,NA,NA,NA,right,2504,true,NA,NA,NA,NA,NA
CPEgiN83,3e6l1vr4yzzg81jodkfak6sl8ztf6z,3z3zlgnnsm7gprk9z0x8emg77y4q37,CPEgiN83,2020-0188,2021-10-17,13:30:57,14:57:53,NA,incomplete,false,true,NA,3,4,NA,brown,n_l_061.jpg,NA,NA,pleasant,unpleasant,NA,NA,NA,NA,NA,left,1987,true,NA,NA,NA,NA,NA
CPEgiN83,3e6l1vr4yzzg81jodkfak6sl8ztf6z,3z3zlgnnsm7gprk9z0x8emg77y4q37,CPEgiN83,2020-0188,2021-10-17,13:30:57,14:57:53,NA,incomplete,false,true,NA,3,5,NA,brown,m_s_044.jpg,NA,NA,pleasant,unpleasant,NA,NA,NA,NA,NA,left,1516,true,NA,NA,NA,NA,NA
CPEgiN83,3e6l1vr4yzzg81jodkfak6sl8ztf6z,3z3zlgnnsm7gprk9z0x8emg77y4q37,CPEgiN83,2020-0188,2021-10-17,13:30:57,14:57:53,NA,incomplete,false,true,NA,3,6,NA,green,n_s_088.jpg,NA,NA,unpleasant,pleasant,NA,NA,NA,NA,NA,right,2064,true,NA,NA,NA,NA,NA
CPEgiN83,3e6l1vr4yzzg81jodkfak6sl8ztf6z,3z3zlgnnsm7gprk9z0x8emg77y4q37,CPEgiN83,2020-0188,2021-10-17,13:30:57,14:57:53,NA,incomplete,false,true,NA,3,7,NA,green,m_s_090.jpg,NA,NA,unpleasant,pleasant,NA,NA,NA,NA,NA,right,2115,true,NA,NA,NA,NA,NA
CPEgiN83,3e6l1vr4yzzg81jodkfak6sl8ztf6z,3z3zlgnnsm7gprk9z0x8emg77y4q37,CPEgiN83,2020-0188,2021-10-17,13:30:57,14:57:53,NA,incomplete,false,true,NA,3,8,NA,green,m_s_073.jpg,NA,NA,unpleasant,pleasant,NA,NA,NA,NA,NA,right,1325,true,NA,NA,NA,NA,NA
CPEgiN83,3e6l1vr4yzzg81jodkfak6sl8ztf6z,3z3zlgnnsm7gprk9z0x8emg77y4q37,CPEgiN83,2020-0188,2021-10-17,13:30:57,14:57:53,NA,incomplete,false,true,NA,3,9,NA,green,n_s_077.jpg,NA,NA,unpleasant,pleasant,NA,NA,NA,NA,NA,right,1570,true,NA,NA,NA,NA,NA
CPEgiN83,3e6l1vr4yzzg81jodkfak6sl8ztf6z,3z3zlgnnsm7gprk9z0x8emg77y4q37,CPEgiN83,2020-0188,2021-10-17,13:30:57,14:57:53,NA,incomplete,false,true,NA,3,10,NA,green,n_s_085.jpg,NA,NA,pleasant,unpleasant,NA,NA,NA,NA,NA,left,1820,true,NA,NA,NA,NA,NA
CPEgiN83,3e6l1vr4yzzg81jodkfak6sl8ztf6z,3z3zlgnnsm7gprk9z0x8emg77y4q37,CPEgiN83,2020-0188,2021-10-17,13:30:57,14:57:53,NA,incomplete,false,true,NA,3,11,NA,green,m_l_058.jpg,NA,NA,pleasant,unpleasant,NA,NA,NA,NA,NA,left,2205,true,NA,NA,NA,NA,NA
CPEgiN83,3e6l1vr4yzzg81jodkfak6sl8ztf6z,3z3zlgnnsm7gprk9z0x8emg77y4q37,CPEgiN83,2020-0188,2021-10-17,13:30:57,14:57:53,NA,incomplete,false,true,NA,3,12,NA,black,n_l_062.jpg,NA,NA,pleasant,unpleasant,NA,NA,NA,NA,NA,right,2757,true,NA,NA,NA,NA,NA
CPEgiN83,3e6l1vr4yzzg81jodkfak6sl8ztf6z,3z3zlgnnsm7gprk9z0x8emg77y4q37,CPEgiN83,2020-0188,2021-10-17,13:30:57,14:57:53,NA,incomplete,false,true,NA,3,13,NA,black,n_s_040.jpg,NA,NA,pleasant,unpleasant,NA,NA,NA,NA,NA,right,2277,true,NA,NA,NA,NA,NA
CPEgiN83,3e6l1vr4yzzg81jodkfak6sl8ztf6z,3z3zlgnnsm7gprk9z0x8emg77y4q37,CPEgiN83,2020-0188,2021-10-17,13:30:57,14:57:53,NA,incomplete,false,true,NA,3,14,NA,black,m_l_019.jpg,NA,NA,unpleasant,pleasant,NA,NA,NA,NA,NA,right,1642,true,NA,NA,NA,NA,NA
CPEgiN83,3e6l1vr4yzzg81jodkfak6sl8ztf6z,3z3zlgnnsm7gprk9z0x8emg77y4q37,CPEgiN83,2020-0188,2021-10-17,13:30:57,14:57:53,NA,incomplete,false,true,NA,3,15,NA,black,n_l_077.jpg,NA,NA,unpleasant,pleasant,NA,NA,NA,NA,NA,left,2132,true,NA,NA,NA,NA,NA
CPEgiN83,3e6l1vr4yzzg81jodkfak6sl8ztf6z,3z3zlgnnsm7gprk9z0x8emg77y4q37,CPEgiN83,2020-0188,2021-10-17,13:30:57,14:57:53,NA,incomplete,false,true,NA,3,16,NA,black,n_s_049.jpg,NA,NA,unpleasant,pleasant,NA,NA,NA,NA,NA,right,2328,true,NA,NA,NA,NA,NA
CPEgiN83,3e6l1vr4yzzg81jodkfak6sl8ztf6z,3z3zlgnnsm7gprk9z0x8emg77y4q37,CPEgiN83,2020-0188,2021-10-17,13:30:57,14:57:53,NA,incomplete,false,true,NA,3,17,NA,black,n_s_046.jpg,NA,NA,pleasant,unpleasant,NA,NA,NA,NA,NA,left,2358,true,NA,NA,NA,NA,NA
CPEgiN83,3e6l1vr4yzzg81jodkfak6sl8ztf6z,3z3zlgnnsm7gprk9z0x8emg77y4q37,CPEgiN83,2020-0188,2021-10-17,13:30:57,14:57:53,NA,incomplete,false,true,NA,3,18,NA,blue,n_l_012.jpg,NA,NA,unpleasant,pleasant,NA,NA,NA,NA,NA,right,2287,true,NA,NA,NA,NA,NA
CPEgiN83,3e6l1vr4yzzg81jodkfak6sl8ztf6z,3z3zlgnnsm7gprk9z0x8emg77y4q37,CPEgiN83,2020-0188,2021-10-17,13:30:57,14:57:53,NA,incomplete,false,true,NA,3,19,NA,blue,n_s_064.jpg,NA,NA,pleasant,unpleasant,NA,NA,NA,NA,NA,left,1685,true,NA,NA,NA,NA,NA
CPEgiN83,3e6l1vr4yzzg81jodkfak6sl8ztf6z,3z3zlgnnsm7gprk9z0x8emg77y4q37,CPEgiN83,2020-0188,2021-10-17,13:30:57,14:57:53,NA,incomplete,false,true,NA,3,20,NA,blue,m_s_109.jpg,NA,NA,pleasant,unpleasant,NA,NA,NA,NA,NA,left,1918,true,NA,NA,NA,NA,NA
CPEgiN83,3e6l1vr4yzzg81jodkfak6sl8ztf6z,3z3zlgnnsm7gprk9z0x8emg77y4q37,CPEgiN83,2020-0188,2021-10-17,13:30:57,14:57:53,NA,incomplete,false,true,NA,3,21,NA,blue,m_s_030.jpg,NA,NA,unpleasant,pleasant,NA,NA,NA,NA,NA,right,1236,true,NA,NA,NA,NA,NA
CPEgiN83,3e6l1vr4yzzg81jodkfak6sl8ztf6z,3z3zlgnnsm7gprk9z0x8emg77y4q37,CPEgiN83,2020-0188,2021-10-17,13:30:57,14:57:53,NA,incomplete,false,true,NA,3,22,NA,blue,m_l_011.jpg,NA,NA,unpleasant,pleasant,NA,NA,NA,NA,NA,right,1276,true,NA,NA,NA,NA,NA
CPEgiN83,3e6l1vr4yzzg81jodkfak6sl8ztf6z,3z3zlgnnsm7gprk9z0x8emg77y4q37,CPEgiN83,2020-0188,2021-10-17,13:30:57,14:57:53,NA,incomplete,false,true,NA,3,23,NA,blue,m_l_053.jpg,NA,NA,unpleasant,pleasant,NA,NA,NA,NA,NA,right,1409,true,NA,NA,NA,NA,NA
CPEgiN83,3e6l1vr4yzzg81jodkfak6sl8ztf6z,3z3zlgnnsm7gprk9z0x8emg77y4q37,CPEgiN83,2020-0188,2021-10-17,13:30:57,14:57:53,NA,incomplete,false,true,NA,3,24,NA,red,m_s_041.jpg,NA,NA,unpleasant,pleasant,NA,NA,NA,NA,NA,right,1661,true,NA,NA,NA,NA,NA
CPEgiN83,3e6l1vr4yzzg81jodkfak6sl8ztf6z,3z3zlgnnsm7gprk9z0x8emg77y4q37,CPEgiN83,2020-0188,2021-10-17,13:30:57,14:57:53,NA,incomplete,false,true,NA,3,25,NA,red,n_l_009.jpg,NA,NA,pleasant,unpleasant,NA,NA,NA,NA,NA,left,1877,true,NA,NA,NA,NA,NA
CPEgiN83,3e6l1vr4yzzg81jodkfak6sl8ztf6z,3z3zlgnnsm7gprk9z0x8emg77y4q37,CPEgiN83,2020-0188,2021-10-17,13:30:57,14:57:53,NA,incomplete,false,true,NA,3,26,NA,red,n_s_094.jpg,NA,NA,pleasant,unpleasant,NA,NA,NA,NA,NA,left,1479,true,NA,NA,NA,NA,NA
CPEgiN83,3e6l1vr4yzzg81jodkfak6sl8ztf6z,3z3zlgnnsm7gprk9z0x8emg77y4q37,CPEgiN83,2020-0188,2021-10-17,13:30:57,14:57:53,NA,incomplete,false,true,NA,3,27,NA,red,n_s_055.jpg,NA,NA,pleasant,unpleasant,NA,NA,NA,NA,NA,left,1433,true,NA,NA,NA,NA,NA
CPEgiN83,3e6l1vr4yzzg81jodkfak6sl8ztf6z,3z3zlgnnsm7gprk9z0x8emg77y4q37,CPEgiN83,2020-0188,2021-10-17,13:30:57,14:57:53,NA,incomplete,false,true,NA,3,28,NA,red,n_l_032.jpg,NA,NA,unpleasant,pleasant,NA,NA,NA,NA,NA,right,1515,true,NA,NA,NA,NA,NA
CPEgiN83,3e6l1vr4yzzg81jodkfak6sl8ztf6z,3z3zlgnnsm7gprk9z0x8emg77y4q37,CPEgiN83,2020-0188,2021-10-17,13:30:57,14:57:53,NA,incomplete,false,true,NA,3,29,NA,red,n_l_006.jpg,NA,NA,pleasant,unpleasant,NA,NA,NA,NA,NA,left,1472,true,NA,NA,NA,NA,NA
CPEgiN83,3e6l1vr4yzzg81jodkfak6sl8ztf6z,3z3zlgnnsm7gprk9z0x8emg77y4q37,CPEgiN83,2020-0188,2021-10-17,13:30:57,14:57:53,NA,incomplete,false,true,NA,3,30,NA,purple,n_l_034.jpg,NA,NA,pleasant,unpleasant,NA,NA,NA,NA,NA,right,1863,true,NA,NA,NA,NA,NA
CPEgiN83,3e6l1vr4yzzg81jodkfak6sl8ztf6z,3z3zlgnnsm7gprk9z0x8emg77y4q37,CPEgiN83,2020-0188,2021-10-17,13:30:57,14:57:53,NA,incomplete,false,true,NA,3,31,NA,purple,n_s_086.jpg,NA,NA,pleasant,unpleasant,NA,NA,NA,NA,NA,left,1553,true,NA,NA,NA,NA,NA
CPEgiN83,3e6l1vr4yzzg81jodkfak6sl8ztf6z,3z3zlgnnsm7gprk9z0x8emg77y4q37,CPEgiN83,2020-0188,2021-10-17,13:30:57,14:57:53,NA,incomplete,false,true,NA,3,32,NA,purple,m_s_021.jpg,NA,NA,unpleasant,pleasant,NA,NA,NA,NA,NA,right,1606,true,NA,NA,NA,NA,NA
CPEgiN83,3e6l1vr4yzzg81jodkfak6sl8ztf6z,3z3zlgnnsm7gprk9z0x8emg77y4q37,CPEgiN83,2020-0188,2021-10-17,13:30:57,14:57:53,NA,incomplete,false,true,NA,3,33,NA,purple,n_s_022.jpg,NA,NA,unpleasant,pleasant,NA,NA,NA,NA,NA,right,1856,true,NA,NA,NA,NA,NA
CPEgiN83,3e6l1vr4yzzg81jodkfak6sl8ztf6z,3z3zlgnnsm7gprk9z0x8emg77y4q37,CPEgiN83,2020-0188,2021-10-17,13:30:57,14:57:53,NA,incomplete,false,true,NA,3,34,NA,purple,m_s_051.jpg,NA,NA,pleasant,unpleasant,NA,NA,NA,NA,NA,left,1423,true,NA,NA,NA,NA,NA
CPEgiN83,3e6l1vr4yzzg81jodkfak6sl8ztf6z,3z3zlgnnsm7gprk9z0x8emg77y4q37,CPEgiN83,2020-0188,2021-10-17,13:30:57,14:57:53,NA,incomplete,false,true,NA,3,35,NA,purple,n_s_084.jpg,NA,NA,pleasant,unpleasant,NA,NA,NA,NA,NA,left,2177,true,NA,NA,NA,NA,NA
CPEgiN83,3e6l1vr4yzzg81jodkfak6sl8ztf6z,3z3zlgnnsm7gprk9z0x8emg77y4q37,CPEgiN83,2020-0188,2021-10-17,13:30:57,14:57:53,NA,incomplete,false,NA,true,3,0,NA,NA,NA,left,absent,NA,NA,n_s_064.jpg,blue,m_l_053.jpg,blue,within,NA,NaN,NA,right,5627,0,0,2005
CPEgiN83,3e6l1vr4yzzg81jodkfak6sl8ztf6z,3z3zlgnnsm7gprk9z0x8emg77y4q37,CPEgiN83,2020-0188,2021-10-17,13:30:57,14:57:53,NA,incomplete,false,NA,true,3,1,NA,NA,NA,left,absent,NA,NA,n_s_049.jpg,black,m_s_109.jpg,blue,between,NA,NaN,NA,left,5811,1,2,1743
CPEgiN83,3e6l1vr4yzzg81jodkfak6sl8ztf6z,3z3zlgnnsm7gprk9z0x8emg77y4q37,CPEgiN83,2020-0188,2021-10-17,13:30:57,14:57:53,NA,incomplete,false,NA,true,3,2,NA,NA,NA,left,absent,NA,NA,m_l_011.jpg,blue,n_s_094.jpg,red,between,NA,NaN,NA,right,8019,0,1,1961
CPEgiN83,3e6l1vr4yzzg81jodkfak6sl8ztf6z,3z3zlgnnsm7gprk9z0x8emg77y4q37,CPEgiN83,2020-0188,2021-10-17,13:30:57,14:57:53,NA,incomplete,false,NA,true,3,3,NA,NA,NA,right,absent,NA,NA,m_s_021.jpg,purple,n_l_032.jpg,red,between,NA,NaN,NA,left,3158,0,1,2213
CPEgiN83,3e6l1vr4yzzg81jodkfak6sl8ztf6z,3z3zlgnnsm7gprk9z0x8emg77y4q37,CPEgiN83,2020-0188,2021-10-17,13:30:57,14:57:53,NA,incomplete,false,NA,true,3,4,NA,NA,NA,left,absent,NA,NA,n_l_061.jpg,brown,m_s_073.jpg,green,between,NA,NaN,NA,left,3116,1,1,1907
CPEgiN83,3e6l1vr4yzzg81jodkfak6sl8ztf6z,3z3zlgnnsm7gprk9z0x8emg77y4q37,CPEgiN83,2020-0188,2021-10-17,13:30:57,14:57:53,NA,incomplete,false,NA,true,3,5,NA,NA,NA,left,absent,NA,NA,n_l_009.jpg,red,n_l_006.jpg,red,within,NA,NaN,NA,right,3106,0,1,2782
CPEgiN83,3e6l1vr4yzzg81jodkfak6sl8ztf6z,3z3zlgnnsm7gprk9z0x8emg77y4q37,CPEgiN83,2020-0188,2021-10-17,13:30:57,14:57:53,NA,incomplete,false,NA,true,3,6,NA,NA,NA,right,absent,NA,NA,n_s_084.jpg,purple,n_s_086.jpg,purple,within,NA,NaN,NA,left,4378,0,0,1768
CPEgiN83,3e6l1vr4yzzg81jodkfak6sl8ztf6z,3z3zlgnnsm7gprk9z0x8emg77y4q37,CPEgiN83,2020-0188,2021-10-17,13:30:57,14:57:53,NA,incomplete,false,NA,true,3,7,NA,NA,NA,right,absent,NA,NA,m_l_019.jpg,black,n_s_085.jpg,green,between,NA,NaN,NA,right,3991,1,0,2984
CPEgiN83,3e6l1vr4yzzg81jodkfak6sl8ztf6z,3z3zlgnnsm7gprk9z0x8emg77y4q37,CPEgiN83,2020-0188,2021-10-17,13:30:57,14:57:53,NA,incomplete,false,NA,true,3,8,NA,NA,NA,right,absent,NA,NA,m_s_044.jpg,brown,m_s_022.jpg,brown,within,NA,NaN,NA,left,3868,0,1,1212
CPEgiN83,3e6l1vr4yzzg81jodkfak6sl8ztf6z,3z3zlgnnsm7gprk9z0x8emg77y4q37,CPEgiN83,2020-0188,2021-10-17,13:30:57,14:57:53,NA,incomplete,false,NA,true,3,9,NA,NA,NA,right,absent,NA,NA,m_l_058.jpg,green,m_s_090.jpg,green,within,NA,NaN,NA,left,3520,0,1,1561
CPEgiN83,3e6l1vr4yzzg81jodkfak6sl8ztf6z,3z3zlgnnsm7gprk9z0x8emg77y4q37,CPEgiN83,2020-0188,2021-10-17,13:30:57,14:57:53,NA,incomplete,false,NA,true,3,10,NA,NA,NA,right,absent,NA,NA,n_s_046.jpg,black,n_s_040.jpg,black,within,NA,NaN,NA,right,7289,1,2,4686
CPEgiN83,3e6l1vr4yzzg81jodkfak6sl8ztf6z,3z3zlgnnsm7gprk9z0x8emg77y4q37,CPEgiN83,2020-0188,2021-10-17,13:30:57,14:57:53,NA,incomplete,false,true,NA,4,0,NA,gray,m_l_097.jpg,NA,NA,pleasant,unpleasant,NA,NA,NA,NA,NA,left,1322,true,NA,NA,NA,NA,NA
CPEgiN83,3e6l1vr4yzzg81jodkfak6sl8ztf6z,3z3zlgnnsm7gprk9z0x8emg77y4q37,CPEgiN83,2020-0188,2021-10-17,13:30:57,14:57:53,NA,incomplete,false,true,NA,4,1,NA,gray,m_l_050.jpg,NA,NA,unpleasant,pleasant,NA,NA,NA,NA,NA,right,1326,true,NA,NA,NA,NA,NA
CPEgiN83,3e6l1vr4yzzg81jodkfak6sl8ztf6z,3z3zlgnnsm7gprk9z0x8emg77y4q37,CPEgiN83,2020-0188,2021-10-17,13:30:57,14:57:53,NA,incomplete,false,true,NA,4,2,NA,gray,n_s_005.jpg,NA,NA,pleasant,unpleasant,NA,NA,NA,NA,NA,left,1345,true,NA,NA,NA,NA,NA
CPEgiN83,3e6l1vr4yzzg81jodkfak6sl8ztf6z,3z3zlgnnsm7gprk9z0x8emg77y4q37,CPEgiN83,2020-0188,2021-10-17,13:30:57,14:57:53,NA,incomplete,false,true,NA,4,3,NA,gray,n_l_114.jpg,NA,NA,unpleasant,pleasant,NA,NA,NA,NA,NA,right,1595,true,NA,NA,NA,NA,NA
CPEgiN83,3e6l1vr4yzzg81jodkfak6sl8ztf6z,3z3zlgnnsm7gprk9z0x8emg77y4q37,CPEgiN83,2020-0188,2021-10-17,13:30:57,14:57:53,NA,incomplete,false,true,NA,4,4,NA,gray,n_s_087.jpg,NA,NA,pleasant,unpleasant,NA,NA,NA,NA,NA,left,1608,true,NA,NA,NA,NA,NA
CPEgiN83,3e6l1vr4yzzg81jodkfak6sl8ztf6z,3z3zlgnnsm7gprk9z0x8emg77y4q37,CPEgiN83,2020-0188,2021-10-17,13:30:57,14:57:53,NA,incomplete,false,true,NA,4,5,NA,gray,n_s_057.jpg,NA,NA,unpleasant,pleasant,NA,NA,NA,NA,NA,right,1394,true,NA,NA,NA,NA,NA
CPEgiN83,3e6l1vr4yzzg81jodkfak6sl8ztf6z,3z3zlgnnsm7gprk9z0x8emg77y4q37,CPEgiN83,2020-0188,2021-10-17,13:30:57,14:57:53,NA,incomplete,false,true,NA,4,6,NA,purple,m_s_080.jpg,NA,NA,pleasant,unpleasant,NA,NA,NA,NA,NA,left,1144,true,NA,NA,NA,NA,NA
CPEgiN83,3e6l1vr4yzzg81jodkfak6sl8ztf6z,3z3zlgnnsm7gprk9z0x8emg77y4q37,CPEgiN83,2020-0188,2021-10-17,13:30:57,14:57:53,NA,incomplete,false,true,NA,4,7,NA,purple,m_s_113.jpg,NA,NA,pleasant,unpleasant,NA,NA,NA,NA,NA,left,1345,true,NA,NA,NA,NA,NA
CPEgiN83,3e6l1vr4yzzg81jodkfak6sl8ztf6z,3z3zlgnnsm7gprk9z0x8emg77y4q37,CPEgiN83,2020-0188,2021-10-17,13:30:57,14:57:53,NA,incomplete,false,true,NA,4,8,NA,purple,n_l_008.jpg,NA,NA,pleasant,unpleasant,NA,NA,NA,NA,NA,left,1428,true,NA,NA,NA,NA,NA
CPEgiN83,3e6l1vr4yzzg81jodkfak6sl8ztf6z,3z3zlgnnsm7gprk9z0x8emg77y4q37,CPEgiN83,2020-0188,2021-10-17,13:30:57,14:57:53,NA,incomplete,false,true,NA,4,9,NA,purple,m_s_023.jpg,NA,NA,unpleasant,pleasant,NA,NA,NA,NA,NA,right,1356,true,NA,NA,NA,NA,NA
CPEgiN83,3e6l1vr4yzzg81jodkfak6sl8ztf6z,3z3zlgnnsm7gprk9z0x8emg77y4q37,CPEgiN83,2020-0188,2021-10-17,13:30:57,14:57:53,NA,incomplete,false,true,NA,4,10,NA,purple,m_s_037.jpg,NA,NA,unpleasant,pleasant,NA,NA,NA,NA,NA,right,1319,true,NA,NA,NA,NA,NA
CPEgiN83,3e6l1vr4yzzg81jodkfak6sl8ztf6z,3z3zlgnnsm7gprk9z0x8emg77y4q37,CPEgiN83,2020-0188,2021-10-17,13:30:57,14:57:53,NA,incomplete,false,true,NA,4,11,NA,purple,m_l_066.jpg,NA,NA,pleasant,unpleasant,NA,NA,NA,NA,NA,left,1381,true,NA,NA,NA,NA,NA
CPEgiN83,3e6l1vr4yzzg81jodkfak6sl8ztf6z,3z3zlgnnsm7gprk9z0x8emg77y4q37,CPEgiN83,2020-0188,2021-10-17,13:30:57,14:57:53,NA,incomplete,false,true,NA,4,12,NA,yellow,n_s_011.jpg,NA,NA,unpleasant,pleasant,NA,NA,NA,NA,NA,right,1617,true,NA,NA,NA,NA,NA
CPEgiN83,3e6l1vr4yzzg81jodkfak6sl8ztf6z,3z3zlgnnsm7gprk9z0x8emg77y4q37,CPEgiN83,2020-0188,2021-10-17,13:30:57,14:57:53,NA,incomplete,false,true,NA,4,13,NA,yellow,m_s_015.jpg,NA,NA,pleasant,unpleasant,NA,NA,NA,NA,NA,left,1328,true,NA,NA,NA,NA,NA
CPEgiN83,3e6l1vr4yzzg81jodkfak6sl8ztf6z,3z3zlgnnsm7gprk9z0x8emg77y4q37,CPEgiN83,2020-0188,2021-10-17,13:30:57,14:57:53,NA,incomplete,false,true,NA,4,14,NA,yellow,m_l_071.jpg,NA,NA,unpleasant,pleasant,NA,NA,NA,NA,NA,right,1119,true,NA,NA,NA,NA,NA
CPEgiN83,3e6l1vr4yzzg81jodkfak6sl8ztf6z,3z3zlgnnsm7gprk9z0x8emg77y4q37,CPEgiN83,2020-0188,2021-10-17,13:30:57,14:57:53,NA,incomplete,false,true,NA,4,15,NA,yellow,m_l_035.jpg,NA,NA,pleasant,unpleasant,NA,NA,NA,NA,NA,left,1903,true,NA,NA,NA,NA,NA
CPEgiN83,3e6l1vr4yzzg81jodkfak6sl8ztf6z,3z3zlgnnsm7gprk9z0x8emg77y4q37,CPEgiN83,2020-0188,2021-10-17,13:30:57,14:57:53,NA,incomplete,false,true,NA,4,16,NA,yellow,n_s_053.jpg,NA,NA,pleasant,unpleasant,NA,NA,NA,NA,NA,left,1565,true,NA,NA,NA,NA,NA
CPEgiN83,3e6l1vr4yzzg81jodkfak6sl8ztf6z,3z3zlgnnsm7gprk9z0x8emg77y4q37,CPEgiN83,2020-0188,2021-10-17,13:30:57,14:57:53,NA,incomplete,false,true,NA,4,17,NA,yellow,m_s_055.jpg,NA,NA,pleasant,unpleasant,NA,NA,NA,NA,NA,left,1426,true,NA,NA,NA,NA,NA
CPEgiN83,3e6l1vr4yzzg81jodkfak6sl8ztf6z,3z3zlgnnsm7gprk9z0x8emg77y4q37,CPEgiN83,2020-0188,2021-10-17,13:30:57,14:57:53,NA,incomplete,false,true,NA,4,18,NA,red,n_l_019.jpg,NA,NA,unpleasant,pleasant,NA,NA,NA,NA,NA,right,1916,true,NA,NA,NA,NA,NA
CPEgiN83,3e6l1vr4yzzg81jodkfak6sl8ztf6z,3z3zlgnnsm7gprk9z0x8emg77y4q37,CPEgiN83,2020-0188,2021-10-17,13:30:57,14:57:53,NA,incomplete,false,true,NA,4,19,NA,red,m_s_110.jpg,NA,NA,pleasant,unpleasant,NA,NA,NA,NA,NA,left,1326,true,NA,NA,NA,NA,NA
CPEgiN83,3e6l1vr4yzzg81jodkfak6sl8ztf6z,3z3zlgnnsm7gprk9z0x8emg77y4q37,CPEgiN83,2020-0188,2021-10-17,13:30:57,14:57:53,NA,incomplete,false,true,NA,4,20,NA,red,m_l_047.jpg,NA,NA,unpleasant,pleasant,NA,NA,NA,NA,NA,right,1463,true,NA,NA,NA,NA,NA
CPEgiN83,3e6l1vr4yzzg81jodkfak6sl8ztf6z,3z3zlgnnsm7gprk9z0x8emg77y4q37,CPEgiN83,2020-0188,2021-10-17,13:30:57,14:57:53,NA,incomplete,false,true,NA,4,21,NA,red,n_l_087.jpg,NA,NA,pleasant,unpleasant,NA,NA,NA,NA,NA,left,1505,true,NA,NA,NA,NA,NA
CPEgiN83,3e6l1vr4yzzg81jodkfak6sl8ztf6z,3z3zlgnnsm7gprk9z0x8emg77y4q37,CPEgiN83,2020-0188,2021-10-17,13:30:57,14:57:53,NA,incomplete,false,true,NA,4,22,NA,red,n_s_072.jpg,NA,NA,unpleasant,pleasant,NA,NA,NA,NA,NA,right,1616,true,NA,NA,NA,NA,NA
CPEgiN83,3e6l1vr4yzzg81jodkfak6sl8ztf6z,3z3zlgnnsm7gprk9z0x8emg77y4q37,CPEgiN83,2020-0188,2021-10-17,13:30:57,14:57:53,NA,incomplete,false,true,NA,4,23,NA,red,m_l_085.jpg,NA,NA,pleasant,unpleasant,NA,NA,NA,NA,NA,left,1320,true,NA,NA,NA,NA,NA
CPEgiN83,3e6l1vr4yzzg81jodkfak6sl8ztf6z,3z3zlgnnsm7gprk9z0x8emg77y4q37,CPEgiN83,2020-0188,2021-10-17,13:30:57,14:57:53,NA,incomplete,false,true,NA,4,24,NA,green,n_s_103.jpg,NA,NA,unpleasant,pleasant,NA,NA,NA,NA,NA,right,1157,true,NA,NA,NA,NA,NA
CPEgiN83,3e6l1vr4yzzg81jodkfak6sl8ztf6z,3z3zlgnnsm7gprk9z0x8emg77y4q37,CPEgiN83,2020-0188,2021-10-17,13:30:57,14:57:53,NA,incomplete,false,true,NA,4,25,NA,green,m_l_010.jpg,NA,NA,unpleasant,pleasant,NA,NA,NA,NA,NA,right,1329,true,NA,NA,NA,NA,NA
CPEgiN83,3e6l1vr4yzzg81jodkfak6sl8ztf6z,3z3zlgnnsm7gprk9z0x8emg77y4q37,CPEgiN83,2020-0188,2021-10-17,13:30:57,14:57:53,NA,incomplete,false,true,NA,4,26,NA,green,n_s_100.jpg,NA,NA,pleasant,unpleasant,NA,NA,NA,NA,NA,left,1330,true,NA,NA,NA,NA,NA
CPEgiN83,3e6l1vr4yzzg81jodkfak6sl8ztf6z,3z3zlgnnsm7gprk9z0x8emg77y4q37,CPEgiN83,2020-0188,2021-10-17,13:30:57,14:57:53,NA,incomplete,false,true,NA,4,27,NA,green,n_s_025.jpg,NA,NA,unpleasant,pleasant,NA,NA,NA,NA,NA,right,1611,true,NA,NA,NA,NA,NA
CPEgiN83,3e6l1vr4yzzg81jodkfak6sl8ztf6z,3z3zlgnnsm7gprk9z0x8emg77y4q37,CPEgiN83,2020-0188,2021-10-17,13:30:57,14:57:53,NA,incomplete,false,true,NA,4,28,NA,green,n_l_041.jpg,NA,NA,unpleasant,pleasant,NA,NA,NA,NA,NA,right,1663,true,NA,NA,NA,NA,NA
CPEgiN83,3e6l1vr4yzzg81jodkfak6sl8ztf6z,3z3zlgnnsm7gprk9z0x8emg77y4q37,CPEgiN83,2020-0188,2021-10-17,13:30:57,14:57:53,NA,incomplete,false,true,NA,4,29,NA,green,n_l_059.jpg,NA,NA,unpleasant,pleasant,NA,NA,NA,NA,NA,left,1641,true,NA,NA,NA,NA,NA
CPEgiN83,3e6l1vr4yzzg81jodkfak6sl8ztf6z,3z3zlgnnsm7gprk9z0x8emg77y4q37,CPEgiN83,2020-0188,2021-10-17,13:30:57,14:57:53,NA,incomplete,false,true,NA,4,30,NA,brown,m_s_034.jpg,NA,NA,pleasant,unpleasant,NA,NA,NA,NA,NA,left,1602,true,NA,NA,NA,NA,NA
CPEgiN83,3e6l1vr4yzzg81jodkfak6sl8ztf6z,3z3zlgnnsm7gprk9z0x8emg77y4q37,CPEgiN83,2020-0188,2021-10-17,13:30:57,14:57:53,NA,incomplete,false,true,NA,4,31,NA,brown,n_l_026.jpg,NA,NA,pleasant,unpleasant,NA,NA,NA,NA,NA,left,1519,true,NA,NA,NA,NA,NA
CPEgiN83,3e6l1vr4yzzg81jodkfak6sl8ztf6z,3z3zlgnnsm7gprk9z0x8emg77y4q37,CPEgiN83,2020-0188,2021-10-17,13:30:57,14:57:53,NA,incomplete,false,true,NA,4,32,NA,brown,m_s_112.jpg,NA,NA,pleasant,unpleasant,NA,NA,NA,NA,NA,left,1415,true,NA,NA,NA,NA,NA
CPEgiN83,3e6l1vr4yzzg81jodkfak6sl8ztf6z,3z3zlgnnsm7gprk9z0x8emg77y4q37,CPEgiN83,2020-0188,2021-10-17,13:30:57,14:57:53,NA,incomplete,false,true,NA,4,33,NA,brown,m_l_075.jpg,NA,NA,pleasant,unpleasant,NA,NA,NA,NA,NA,left,1372,true,NA,NA,NA,NA,NA
CPEgiN83,3e6l1vr4yzzg81jodkfak6sl8ztf6z,3z3zlgnnsm7gprk9z0x8emg77y4q37,CPEgiN83,2020-0188,2021-10-17,13:30:57,14:57:53,NA,incomplete,false,true,NA,4,34,NA,brown,n_l_025.jpg,NA,NA,unpleasant,pleasant,NA,NA,NA,NA,NA,left,2195,true,NA,NA,NA,NA,NA
CPEgiN83,3e6l1vr4yzzg81jodkfak6sl8ztf6z,3z3zlgnnsm7gprk9z0x8emg77y4q37,CPEgiN83,2020-0188,2021-10-17,13:30:57,14:57:53,NA,incomplete,false,true,NA,4,35,NA,brown,n_s_067.jpg,NA,NA,unpleasant,pleasant,NA,NA,NA,NA,NA,right,1323,true,NA,NA,NA,NA,NA
CPEgiN83,3e6l1vr4yzzg81jodkfak6sl8ztf6z,3z3zlgnnsm7gprk9z0x8emg77y4q37,CPEgiN83,2020-0188,2021-10-17,13:30:57,14:57:53,NA,incomplete,false,NA,true,4,0,NA,NA,NA,right,absent,NA,NA,m_l_071.jpg,yellow,m_s_037.jpg,purple,between,NA,NaN,NA,left,3563,0,1,1702
CPEgiN83,3e6l1vr4yzzg81jodkfak6sl8ztf6z,3z3zlgnnsm7gprk9z0x8emg77y4q37,CPEgiN83,2020-0188,2021-10-17,13:30:57,14:57:53,NA,incomplete,false,NA,true,4,1,NA,NA,NA,left,absent,NA,NA,n_s_072.jpg,red,n_s_100.jpg,green,between,NA,NaN,NA,right,3420,0,1,1770
CPEgiN83,3e6l1vr4yzzg81jodkfak6sl8ztf6z,3z3zlgnnsm7gprk9z0x8emg77y4q37,CPEgiN83,2020-0188,2021-10-17,13:30:57,14:57:53,NA,incomplete,false,NA,true,4,2,NA,NA,NA,left,absent,NA,NA,m_l_010.jpg,green,n_l_059.jpg,green,within,NA,NaN,NA,left,3033,1,0,1730
CPEgiN83,3e6l1vr4yzzg81jodkfak6sl8ztf6z,3z3zlgnnsm7gprk9z0x8emg77y4q37,CPEgiN83,2020-0188,2021-10-17,13:30:57,14:57:53,NA,incomplete,false,NA,true,4,3,NA,NA,NA,right,absent,NA,NA,n_s_057.jpg,gray,m_l_050.jpg,gray,within,NA,NaN,NA,left,3402,0,2,2110
CPEgiN83,3e6l1vr4yzzg81jodkfak6sl8ztf6z,3z3zlgnnsm7gprk9z0x8emg77y4q37,CPEgiN83,2020-0188,2021-10-17,13:30:57,14:57:53,NA,incomplete,false,NA,true,4,4,NA,NA,NA,left,absent,NA,NA,m_s_113.jpg,purple,m_l_066.jpg,purple,within,NA,NaN,NA,left,3200,1,1,1400
CPEgiN83,3e6l1vr4yzzg81jodkfak6sl8ztf6z,3z3zlgnnsm7gprk9z0x8emg77y4q37,CPEgiN83,2020-0188,2021-10-17,13:30:57,14:57:53,NA,incomplete,false,NA,true,4,5,NA,NA,NA,right,absent,NA,NA,m_s_055.jpg,yellow,m_s_015.jpg,yellow,within,NA,NaN,NA,right,2556,1,1,2278
CPEgiN83,3e6l1vr4yzzg81jodkfak6sl8ztf6z,3z3zlgnnsm7gprk9z0x8emg77y4q37,CPEgiN83,2020-0188,2021-10-17,13:30:57,14:57:53,NA,incomplete,false,NA,true,4,6,NA,NA,NA,right,absent,NA,NA,m_l_047.jpg,red,n_s_053.jpg,yellow,between,NA,NaN,NA,left,3092,0,1,1781
CPEgiN83,3e6l1vr4yzzg81jodkfak6sl8ztf6z,3z3zlgnnsm7gprk9z0x8emg77y4q37,CPEgiN83,2020-0188,2021-10-17,13:30:57,14:57:53,NA,incomplete,false,NA,true,4,7,NA,NA,NA,left,absent,NA,NA,n_l_041.jpg,green,m_s_112.jpg,brown,between,NA,NaN,NA,right,2956,0,1,1250
CPEgiN83,3e6l1vr4yzzg81jodkfak6sl8ztf6z,3z3zlgnnsm7gprk9z0x8emg77y4q37,CPEgiN83,2020-0188,2021-10-17,13:30:57,14:57:53,NA,incomplete,false,NA,true,4,8,NA,NA,NA,left,absent,NA,NA,n_l_026.jpg,brown,n_s_067.jpg,brown,within,NA,NaN,NA,right,7103,0,0,2200
CPEgiN83,3e6l1vr4yzzg81jodkfak6sl8ztf6z,3z3zlgnnsm7gprk9z0x8emg77y4q37,CPEgiN83,2020-0188,2021-10-17,13:30:57,14:57:53,NA,incomplete,false,NA,true,4,9,NA,NA,NA,left,absent,NA,NA,n_s_087.jpg,gray,n_l_008.jpg,purple,between,NA,NaN,NA,right,2875,0,2,2534
CPEgiN83,3e6l1vr4yzzg81jodkfak6sl8ztf6z,3z3zlgnnsm7gprk9z0x8emg77y4q37,CPEgiN83,2020-0188,2021-10-17,13:30:57,14:57:53,NA,incomplete,false,NA,true,4,10,NA,NA,NA,right,absent,NA,NA,m_l_085.jpg,red,m_s_110.jpg,red,within,NA,NaN,NA,right,6299,1,1,1365
CPEgiN83,3e6l1vr4yzzg81jodkfak6sl8ztf6z,3z3zlgnnsm7gprk9z0x8emg77y4q37,CPEgiN83,2020-0188,2021-10-17,13:30:57,14:57:53,NA,incomplete,false,true,NA,5,0,NA,red,m_s_050.jpg,NA,NA,unpleasant,pleasant,NA,NA,NA,NA,NA,right,2180,true,NA,NA,NA,NA,NA
CPEgiN83,3e6l1vr4yzzg81jodkfak6sl8ztf6z,3z3zlgnnsm7gprk9z0x8emg77y4q37,CPEgiN83,2020-0188,2021-10-17,13:30:57,14:57:53,NA,incomplete,false,true,NA,5,1,NA,red,m_s_018.jpg,NA,NA,pleasant,unpleasant,NA,NA,NA,NA,NA,left,1312,true,NA,NA,NA,NA,NA
CPEgiN83,3e6l1vr4yzzg81jodkfak6sl8ztf6z,3z3zlgnnsm7gprk9z0x8emg77y4q37,CPEgiN83,2020-0188,2021-10-17,13:30:57,14:57:53,NA,incomplete,false,true,NA,5,2,NA,red,m_s_084.jpg,NA,NA,unpleasant,pleasant,NA,NA,NA,NA,NA,right,1312,true,NA,NA,NA,NA,NA
CPEgiN83,3e6l1vr4yzzg81jodkfak6sl8ztf6z,3z3zlgnnsm7gprk9z0x8emg77y4q37,CPEgiN83,2020-0188,2021-10-17,13:30:57,14:57:53,NA,incomplete,false,true,NA,5,3,NA,red,m_l_063.jpg,NA,NA,unpleasant,pleasant,NA,NA,NA,NA,NA,right,1322,true,NA,NA,NA,NA,NA
CPEgiN83,3e6l1vr4yzzg81jodkfak6sl8ztf6z,3z3zlgnnsm7gprk9z0x8emg77y4q37,CPEgiN83,2020-0188,2021-10-17,13:30:57,14:57:53,NA,incomplete,false,true,NA,5,4,NA,red,n_l_067.jpg,NA,NA,unpleasant,pleasant,NA,NA,NA,NA,NA,right,1315,true,NA,NA,NA,NA,NA
CPEgiN83,3e6l1vr4yzzg81jodkfak6sl8ztf6z,3z3zlgnnsm7gprk9z0x8emg77y4q37,CPEgiN83,2020-0188,2021-10-17,13:30:57,14:57:53,NA,incomplete,false,true,NA,5,5,NA,red,m_l_093.jpg,NA,NA,pleasant,unpleasant,NA,NA,NA,NA,NA,left,1329,true,NA,NA,NA,NA,NA
CPEgiN83,3e6l1vr4yzzg81jodkfak6sl8ztf6z,3z3zlgnnsm7gprk9z0x8emg77y4q37,CPEgiN83,2020-0188,2021-10-17,13:30:57,14:57:53,NA,incomplete,false,true,NA,5,6,NA,black,m_l_036.jpg,NA,NA,unpleasant,pleasant,NA,NA,NA,NA,NA,right,1152,true,NA,NA,NA,NA,NA
CPEgiN83,3e6l1vr4yzzg81jodkfak6sl8ztf6z,3z3zlgnnsm7gprk9z0x8emg77y4q37,CPEgiN83,2020-0188,2021-10-17,13:30:57,14:57:53,NA,incomplete,false,true,NA,5,7,NA,black,m_l_102.jpg,NA,NA,pleasant,unpleasant,NA,NA,NA,NA,NA,left,1623,true,NA,NA,NA,NA,NA
CPEgiN83,3e6l1vr4yzzg81jodkfak6sl8ztf6z,3z3zlgnnsm7gprk9z0x8emg77y4q37,CPEgiN83,2020-0188,2021-10-17,13:30:57,14:57:53,NA,incomplete,false,true,NA,5,8,NA,black,m_s_117.jpg,NA,NA,unpleasant,pleasant,NA,NA,NA,NA,NA,right,1515,true,NA,NA,NA,NA,NA
CPEgiN83,3e6l1vr4yzzg81jodkfak6sl8ztf6z,3z3zlgnnsm7gprk9z0x8emg77y4q37,CPEgiN83,2020-0188,2021-10-17,13:30:57,14:57:53,NA,incomplete,false,true,NA,5,9,NA,black,m_l_103.jpg,NA,NA,pleasant,unpleasant,NA,NA,NA,NA,NA,left,1788,true,NA,NA,NA,NA,NA
CPEgiN83,3e6l1vr4yzzg81jodkfak6sl8ztf6z,3z3zlgnnsm7gprk9z0x8emg77y4q37,CPEgiN83,2020-0188,2021-10-17,13:30:57,14:57:53,NA,incomplete,false,true,NA,5,10,NA,black,m_l_096.jpg,NA,NA,unpleasant,pleasant,NA,NA,NA,NA,NA,right,1179,true,NA,NA,NA,NA,NA
CPEgiN83,3e6l1vr4yzzg81jodkfak6sl8ztf6z,3z3zlgnnsm7gprk9z0x8emg77y4q37,CPEgiN83,2020-0188,2021-10-17,13:30:57,14:57:53,NA,incomplete,false,true,NA,5,11,NA,black,n_s_073.jpg,NA,NA,pleasant,unpleasant,NA,NA,NA,NA,NA,left,1648,true,NA,NA,NA,NA,NA
CPEgiN83,3e6l1vr4yzzg81jodkfak6sl8ztf6z,3z3zlgnnsm7gprk9z0x8emg77y4q37,CPEgiN83,2020-0188,2021-10-17,13:30:57,14:57:53,NA,incomplete,false,true,NA,5,12,NA,purple,n_l_105.jpg,NA,NA,unpleasant,pleasant,NA,NA,NA,NA,NA,right,1881,true,NA,NA,NA,NA,NA
CPEgiN83,3e6l1vr4yzzg81jodkfak6sl8ztf6z,3z3zlgnnsm7gprk9z0x8emg77y4q37,CPEgiN83,2020-0188,2021-10-17,13:30:57,14:57:53,NA,incomplete,false,true,NA,5,13,NA,purple,n_s_048.jpg,NA,NA,pleasant,unpleasant,NA,NA,NA,NA,NA,right,1970,true,NA,NA,NA,NA,NA
CPEgiN83,3e6l1vr4yzzg81jodkfak6sl8ztf6z,3z3zlgnnsm7gprk9z0x8emg77y4q37,CPEgiN83,2020-0188,2021-10-17,13:30:57,14:57:53,NA,incomplete,false,true,NA,5,14,NA,purple,m_s_057.jpg,NA,NA,unpleasant,pleasant,NA,NA,NA,NA,NA,right,1541,true,NA,NA,NA,NA,NA
CPEgiN83,3e6l1vr4yzzg81jodkfak6sl8ztf6z,3z3zlgnnsm7gprk9z0x8emg77y4q37,CPEgiN83,2020-0188,2021-10-17,13:30:57,14:57:53,NA,incomplete,false,true,NA,5,15,NA,purple,m_s_035.jpg,NA,NA,unpleasant,pleasant,NA,NA,NA,NA,NA,right,1308,true,NA,NA,NA,NA,NA
CPEgiN83,3e6l1vr4yzzg81jodkfak6sl8ztf6z,3z3zlgnnsm7gprk9z0x8emg77y4q37,CPEgiN83,2020-0188,2021-10-17,13:30:57,14:57:53,NA,incomplete,false,true,NA,5,16,NA,purple,m_s_010.jpg,NA,NA,unpleasant,pleasant,NA,NA,NA,NA,NA,right,1544,true,NA,NA,NA,NA,NA
CPEgiN83,3e6l1vr4yzzg81jodkfak6sl8ztf6z,3z3zlgnnsm7gprk9z0x8emg77y4q37,CPEgiN83,2020-0188,2021-10-17,13:30:57,14:57:53,NA,incomplete,false,true,NA,5,17,NA,purple,n_s_051.jpg,NA,NA,unpleasant,pleasant,NA,NA,NA,NA,NA,right,1243,true,NA,NA,NA,NA,NA
CPEgiN83,3e6l1vr4yzzg81jodkfak6sl8ztf6z,3z3zlgnnsm7gprk9z0x8emg77y4q37,CPEgiN83,2020-0188,2021-10-17,13:30:57,14:57:53,NA,incomplete,false,true,NA,5,18,NA,blue,n_s_066.jpg,NA,NA,pleasant,unpleasant,NA,NA,NA,NA,NA,left,1254,true,NA,NA,NA,NA,NA
CPEgiN83,3e6l1vr4yzzg81jodkfak6sl8ztf6z,3z3zlgnnsm7gprk9z0x8emg77y4q37,CPEgiN83,2020-0188,2021-10-17,13:30:57,14:57:53,NA,incomplete,false,true,NA,5,19,NA,blue,m_l_020.jpg,NA,NA,pleasant,unpleasant,NA,NA,NA,NA,NA,left,1394,true,NA,NA,NA,NA,NA
CPEgiN83,3e6l1vr4yzzg81jodkfak6sl8ztf6z,3z3zlgnnsm7gprk9z0x8emg77y4q37,CPEgiN83,2020-0188,2021-10-17,13:30:57,14:57:53,NA,incomplete,false,true,NA,5,20,NA,blue,n_s_034.jpg,NA,NA,pleasant,unpleasant,NA,NA,NA,NA,NA,left,1595,true,NA,NA,NA,NA,NA
CPEgiN83,3e6l1vr4yzzg81jodkfak6sl8ztf6z,3z3zlgnnsm7gprk9z0x8emg77y4q37,CPEgiN83,2020-0188,2021-10-17,13:30:57,14:57:53,NA,incomplete,false,true,NA,5,21,NA,blue,n_s_017.jpg,NA,NA,unpleasant,pleasant,NA,NA,NA,NA,NA,right,1791,true,NA,NA,NA,NA,NA
CPEgiN83,3e6l1vr4yzzg81jodkfak6sl8ztf6z,3z3zlgnnsm7gprk9z0x8emg77y4q37,CPEgiN83,2020-0188,2021-10-17,13:30:57,14:57:53,NA,incomplete,false,true,NA,5,22,NA,blue,m_l_051.jpg,NA,NA,unpleasant,pleasant,NA,NA,NA,NA,NA,right,1466,true,NA,NA,NA,NA,NA
CPEgiN83,3e6l1vr4yzzg81jodkfak6sl8ztf6z,3z3zlgnnsm7gprk9z0x8emg77y4q37,CPEgiN83,2020-0188,2021-10-17,13:30:57,14:57:53,NA,incomplete,false,true,NA,5,23,NA,blue,n_l_073.jpg,NA,NA,unpleasant,pleasant,NA,NA,NA,NA,NA,right,1202,true,NA,NA,NA,NA,NA
CPEgiN83,3e6l1vr4yzzg81jodkfak6sl8ztf6z,3z3zlgnnsm7gprk9z0x8emg77y4q37,CPEgiN83,2020-0188,2021-10-17,13:30:57,14:57:53,NA,incomplete,false,true,NA,5,24,NA,gray,m_s_049.jpg,NA,NA,pleasant,unpleasant,NA,NA,NA,NA,NA,left,1100,true,NA,NA,NA,NA,NA
CPEgiN83,3e6l1vr4yzzg81jodkfak6sl8ztf6z,3z3zlgnnsm7gprk9z0x8emg77y4q37,CPEgiN83,2020-0188,2021-10-17,13:30:57,14:57:53,NA,incomplete,false,true,NA,5,25,NA,gray,n_l_017.jpg,NA,NA,pleasant,unpleasant,NA,NA,NA,NA,NA,left,2079,true,NA,NA,NA,NA,NA
CPEgiN83,3e6l1vr4yzzg81jodkfak6sl8ztf6z,3z3zlgnnsm7gprk9z0x8emg77y4q37,CPEgiN83,2020-0188,2021-10-17,13:30:57,14:57:53,NA,incomplete,false,true,NA,5,26,NA,gray,n_l_086.jpg,NA,NA,pleasant,unpleasant,NA,NA,NA,NA,NA,left,2236,true,NA,NA,NA,NA,NA
CPEgiN83,3e6l1vr4yzzg81jodkfak6sl8ztf6z,3z3zlgnnsm7gprk9z0x8emg77y4q37,CPEgiN83,2020-0188,2021-10-17,13:30:57,14:57:53,NA,incomplete,false,true,NA,5,27,NA,gray,n_s_095.jpg,NA,NA,unpleasant,pleasant,NA,NA,NA,NA,NA,right,1631,true,NA,NA,NA,NA,NA
CPEgiN83,3e6l1vr4yzzg81jodkfak6sl8ztf6z,3z3zlgnnsm7gprk9z0x8emg77y4q37,CPEgiN83,2020-0188,2021-10-17,13:30:57,14:57:53,NA,incomplete,false,true,NA,5,28,NA,gray,m_s_068.jpg,NA,NA,pleasant,unpleasant,NA,NA,NA,NA,NA,left,1450,true,NA,NA,NA,NA,NA
CPEgiN83,3e6l1vr4yzzg81jodkfak6sl8ztf6z,3z3zlgnnsm7gprk9z0x8emg77y4q37,CPEgiN83,2020-0188,2021-10-17,13:30:57,14:57:53,NA,incomplete,false,true,NA,5,29,NA,gray,m_s_038.jpg,NA,NA,pleasant,unpleasant,NA,NA,NA,NA,NA,left,1630,true,NA,NA,NA,NA,NA
CPEgiN83,3e6l1vr4yzzg81jodkfak6sl8ztf6z,3z3zlgnnsm7gprk9z0x8emg77y4q37,CPEgiN83,2020-0188,2021-10-17,13:30:57,14:57:53,NA,incomplete,false,true,NA,5,30,NA,yellow,m_l_100.jpg,NA,NA,unpleasant,pleasant,NA,NA,NA,NA,NA,right,1837,true,NA,NA,NA,NA,NA
CPEgiN83,3e6l1vr4yzzg81jodkfak6sl8ztf6z,3z3zlgnnsm7gprk9z0x8emg77y4q37,CPEgiN83,2020-0188,2021-10-17,13:30:57,14:57:53,NA,incomplete,false,true,NA,5,31,NA,yellow,m_s_115.jpg,NA,NA,pleasant,unpleasant,NA,NA,NA,NA,NA,left,2207,true,NA,NA,NA,NA,NA
CPEgiN83,3e6l1vr4yzzg81jodkfak6sl8ztf6z,3z3zlgnnsm7gprk9z0x8emg77y4q37,CPEgiN83,2020-0188,2021-10-17,13:30:57,14:57:53,NA,incomplete,false,true,NA,5,32,NA,yellow,n_s_108.jpg,NA,NA,unpleasant,pleasant,NA,NA,NA,NA,NA,right,1519,true,NA,NA,NA,NA,NA
CPEgiN83,3e6l1vr4yzzg81jodkfak6sl8ztf6z,3z3zlgnnsm7gprk9z0x8emg77y4q37,CPEgiN83,2020-0188,2021-10-17,13:30:57,14:57:53,NA,incomplete,false,true,NA,5,33,NA,yellow,n_s_008.jpg,NA,NA,pleasant,unpleasant,NA,NA,NA,NA,NA,left,2125,true,NA,NA,NA,NA,NA
CPEgiN83,3e6l1vr4yzzg81jodkfak6sl8ztf6z,3z3zlgnnsm7gprk9z0x8emg77y4q37,CPEgiN83,2020-0188,2021-10-17,13:30:57,14:57:53,NA,incomplete,false,true,NA,5,34,NA,yellow,m_l_006.jpg,NA,NA,pleasant,unpleasant,NA,NA,NA,NA,NA,left,1814,true,NA,NA,NA,NA,NA
CPEgiN83,3e6l1vr4yzzg81jodkfak6sl8ztf6z,3z3zlgnnsm7gprk9z0x8emg77y4q37,CPEgiN83,2020-0188,2021-10-17,13:30:57,14:57:53,NA,incomplete,false,true,NA,5,35,NA,yellow,n_s_001.jpg,NA,NA,pleasant,unpleasant,NA,NA,NA,NA,NA,left,1838,true,NA,NA,NA,NA,NA
CPEgiN83,3e6l1vr4yzzg81jodkfak6sl8ztf6z,3z3zlgnnsm7gprk9z0x8emg77y4q37,CPEgiN83,2020-0188,2021-10-17,13:30:57,14:57:53,NA,incomplete,false,NA,true,5,0,NA,NA,NA,right,present,NA,NA,m_s_117.jpg,black,n_l_067.jpg,red,between,NA,NaN,NA,left,4495,0,0,1947
CPEgiN83,3e6l1vr4yzzg81jodkfak6sl8ztf6z,3z3zlgnnsm7gprk9z0x8emg77y4q37,CPEgiN83,2020-0188,2021-10-17,13:30:57,14:57:53,NA,incomplete,false,NA,true,5,1,NA,NA,NA,right,present,NA,NA,n_s_001.jpg,yellow,m_s_115.jpg,yellow,within,NA,NaN,NA,left,3282,0,1,1800
CPEgiN83,3e6l1vr4yzzg81jodkfak6sl8ztf6z,3z3zlgnnsm7gprk9z0x8emg77y4q37,CPEgiN83,2020-0188,2021-10-17,13:30:57,14:57:53,NA,incomplete,false,NA,true,5,2,NA,NA,NA,right,present,NA,NA,n_s_051.jpg,purple,n_s_048.jpg,purple,within,NA,NaN,NA,left,2892,0,1,1566
CPEgiN83,3e6l1vr4yzzg81jodkfak6sl8ztf6z,3z3zlgnnsm7gprk9z0x8emg77y4q37,CPEgiN83,2020-0188,2021-10-17,13:30:57,14:57:53,NA,incomplete,false,NA,true,5,3,NA,NA,NA,right,present,NA,NA,m_s_057.jpg,purple,m_l_096.jpg,black,between,NA,NaN,NA,left,5881,0,1,1178
CPEgiN83,3e6l1vr4yzzg81jodkfak6sl8ztf6z,3z3zlgnnsm7gprk9z0x8emg77y4q37,CPEgiN83,2020-0188,2021-10-17,13:30:57,14:57:53,NA,incomplete,false,NA,true,5,4,NA,NA,NA,right,present,NA,NA,n_l_086.jpg,gray,m_l_051.jpg,blue,between,NA,NaN,NA,left,3797,0,1,2956
CPEgiN83,3e6l1vr4yzzg81jodkfak6sl8ztf6z,3z3zlgnnsm7gprk9z0x8emg77y4q37,CPEgiN83,2020-0188,2021-10-17,13:30:57,14:57:53,NA,incomplete,false,NA,true,5,5,NA,NA,NA,right,present,NA,NA,m_l_093.jpg,red,m_s_018.jpg,red,within,NA,NaN,NA,right,3778,1,0,3412
CPEgiN83,3e6l1vr4yzzg81jodkfak6sl8ztf6z,3z3zlgnnsm7gprk9z0x8emg77y4q37,CPEgiN83,2020-0188,2021-10-17,13:30:57,14:57:53,NA,incomplete,false,NA,true,5,6,NA,NA,NA,left,present,NA,NA,m_l_102.jpg,black,n_s_073.jpg,black,within,NA,NaN,NA,left,3366,1,1,2374
CPEgiN83,3e6l1vr4yzzg81jodkfak6sl8ztf6z,3z3zlgnnsm7gprk9z0x8emg77y4q37,CPEgiN83,2020-0188,2021-10-17,13:30:57,14:57:53,NA,incomplete,false,NA,true,5,7,NA,NA,NA,left,present,NA,NA,m_s_010.jpg,purple,n_s_034.jpg,blue,between,NA,NaN,NA,left,5548,1,1,1628
CPEgiN83,3e6l1vr4yzzg81jodkfak6sl8ztf6z,3z3zlgnnsm7gprk9z0x8emg77y4q37,CPEgiN83,2020-0188,2021-10-17,13:30:57,14:57:53,NA,incomplete,false,NA,true,5,8,NA,NA,NA,left,present,NA,NA,m_s_068.jpg,gray,n_s_108.jpg,yellow,between,NA,NaN,NA,right,3627,0,2,2198
CPEgiN83,3e6l1vr4yzzg81jodkfak6sl8ztf6z,3z3zlgnnsm7gprk9z0x8emg77y4q37,CPEgiN83,2020-0188,2021-10-17,13:30:57,14:57:53,NA,incomplete,false,NA,true,5,9,NA,NA,NA,right,present,NA,NA,m_s_038.jpg,gray,n_l_017.jpg,gray,within,NA,NaN,NA,left,4662,0,1,1906
CPEgiN83,3e6l1vr4yzzg81jodkfak6sl8ztf6z,3z3zlgnnsm7gprk9z0x8emg77y4q37,CPEgiN83,2020-0188,2021-10-17,13:30:57,14:57:53,NA,incomplete,false,NA,true,5,10,NA,NA,NA,right,present,NA,NA,n_l_073.jpg,blue,m_l_020.jpg,blue,within,NA,NaN,NA,right,3254,1,1,1421
CPEgiN83,3e6l1vr4yzzg81jodkfak6sl8ztf6z,3z3zlgnnsm7gprk9z0x8emg77y4q37,CPEgiN83,2020-0188,2021-10-17,13:30:57,14:57:53,NA,incomplete,false,true,NA,6,0,NA,yellow,n_l_044.jpg,NA,NA,unpleasant,pleasant,NA,NA,NA,NA,NA,right,2185,true,NA,NA,NA,NA,NA
CPEgiN83,3e6l1vr4yzzg81jodkfak6sl8ztf6z,3z3zlgnnsm7gprk9z0x8emg77y4q37,CPEgiN83,2020-0188,2021-10-17,13:30:57,14:57:53,NA,incomplete,false,true,NA,6,1,NA,yellow,n_l_015.jpg,NA,NA,pleasant,unpleasant,NA,NA,NA,NA,NA,right,2070,true,NA,NA,NA,NA,NA
CPEgiN83,3e6l1vr4yzzg81jodkfak6sl8ztf6z,3z3zlgnnsm7gprk9z0x8emg77y4q37,CPEgiN83,2020-0188,2021-10-17,13:30:57,14:57:53,NA,incomplete,false,true,NA,6,2,NA,yellow,m_s_059.jpg,NA,NA,pleasant,unpleasant,NA,NA,NA,NA,NA,left,1489,true,NA,NA,NA,NA,NA
CPEgiN83,3e6l1vr4yzzg81jodkfak6sl8ztf6z,3z3zlgnnsm7gprk9z0x8emg77y4q37,CPEgiN83,2020-0188,2021-10-17,13:30:57,14:57:53,NA,incomplete,false,true,NA,6,3,NA,yellow,m_s_012.jpg,NA,NA,unpleasant,pleasant,NA,NA,NA,NA,NA,right,1144,true,NA,NA,NA,NA,NA
CPEgiN83,3e6l1vr4yzzg81jodkfak6sl8ztf6z,3z3zlgnnsm7gprk9z0x8emg77y4q37,CPEgiN83,2020-0188,2021-10-17,13:30:57,14:57:53,NA,incomplete,false,true,NA,6,4,NA,yellow,n_s_115.jpg,NA,NA,pleasant,unpleasant,NA,NA,NA,NA,NA,left,1470,true,NA,NA,NA,NA,NA
CPEgiN83,3e6l1vr4yzzg81jodkfak6sl8ztf6z,3z3zlgnnsm7gprk9z0x8emg77y4q37,CPEgiN83,2020-0188,2021-10-17,13:30:57,14:57:53,NA,incomplete,false,true,NA,6,5,NA,yellow,m_l_110.jpg,NA,NA,pleasant,unpleasant,NA,NA,NA,NA,NA,left,1481,true,NA,NA,NA,NA,NA
CPEgiN83,3e6l1vr4yzzg81jodkfak6sl8ztf6z,3z3zlgnnsm7gprk9z0x8emg77y4q37,CPEgiN83,2020-0188,2021-10-17,13:30:57,14:57:53,NA,incomplete,false,true,NA,6,6,NA,green,n_s_061.jpg,NA,NA,pleasant,unpleasant,NA,NA,NA,NA,NA,left,1295,true,NA,NA,NA,NA,NA
CPEgiN83,3e6l1vr4yzzg81jodkfak6sl8ztf6z,3z3zlgnnsm7gprk9z0x8emg77y4q37,CPEgiN83,2020-0188,2021-10-17,13:30:57,14:57:53,NA,incomplete,false,true,NA,6,7,NA,green,n_l_089.jpg,NA,NA,pleasant,unpleasant,NA,NA,NA,NA,NA,left,1481,true,NA,NA,NA,NA,NA
CPEgiN83,3e6l1vr4yzzg81jodkfak6sl8ztf6z,3z3zlgnnsm7gprk9z0x8emg77y4q37,CPEgiN83,2020-0188,2021-10-17,13:30:57,14:57:53,NA,incomplete,false,true,NA,6,8,NA,green,n_l_085.jpg,NA,NA,pleasant,unpleasant,NA,NA,NA,NA,NA,right,1857,true,NA,NA,NA,NA,NA
CPEgiN83,3e6l1vr4yzzg81jodkfak6sl8ztf6z,3z3zlgnnsm7gprk9z0x8emg77y4q37,CPEgiN83,2020-0188,2021-10-17,13:30:57,14:57:53,NA,incomplete,false,true,NA,6,9,NA,green,n_s_091.jpg,NA,NA,unpleasant,pleasant,NA,NA,NA,NA,NA,right,1803,true,NA,NA,NA,NA,NA
CPEgiN83,3e6l1vr4yzzg81jodkfak6sl8ztf6z,3z3zlgnnsm7gprk9z0x8emg77y4q37,CPEgiN83,2020-0188,2021-10-17,13:30:57,14:57:53,NA,incomplete,false,true,NA,6,10,NA,green,m_s_069.jpg,NA,NA,unpleasant,pleasant,NA,NA,NA,NA,NA,right,1326,true,NA,NA,NA,NA,NA
CPEgiN83,3e6l1vr4yzzg81jodkfak6sl8ztf6z,3z3zlgnnsm7gprk9z0x8emg77y4q37,CPEgiN83,2020-0188,2021-10-17,13:30:57,14:57:53,NA,incomplete,false,true,NA,6,11,NA,green,m_l_041.jpg,NA,NA,unpleasant,pleasant,NA,NA,NA,NA,NA,right,1109,true,NA,NA,NA,NA,NA
CPEgiN83,3e6l1vr4yzzg81jodkfak6sl8ztf6z,3z3zlgnnsm7gprk9z0x8emg77y4q37,CPEgiN83,2020-0188,2021-10-17,13:30:57,14:57:53,NA,incomplete,false,true,NA,6,12,NA,brown,m_s_094.jpg,NA,NA,unpleasant,pleasant,NA,NA,NA,NA,NA,right,1743,true,NA,NA,NA,NA,NA
CPEgiN83,3e6l1vr4yzzg81jodkfak6sl8ztf6z,3z3zlgnnsm7gprk9z0x8emg77y4q37,CPEgiN83,2020-0188,2021-10-17,13:30:57,14:57:53,NA,incomplete,false,true,NA,6,13,NA,brown,n_l_040.jpg,NA,NA,unpleasant,pleasant,NA,NA,NA,NA,NA,right,1712,true,NA,NA,NA,NA,NA
CPEgiN83,3e6l1vr4yzzg81jodkfak6sl8ztf6z,3z3zlgnnsm7gprk9z0x8emg77y4q37,CPEgiN83,2020-0188,2021-10-17,13:30:57,14:57:53,NA,incomplete,false,true,NA,6,14,NA,brown,m_s_048.jpg,NA,NA,pleasant,unpleasant,NA,NA,NA,NA,NA,left,1543,true,NA,NA,NA,NA,NA
CPEgiN83,3e6l1vr4yzzg81jodkfak6sl8ztf6z,3z3zlgnnsm7gprk9z0x8emg77y4q37,CPEgiN83,2020-0188,2021-10-17,13:30:57,14:57:53,NA,incomplete,false,true,NA,6,15,NA,brown,m_l_094.jpg,NA,NA,pleasant,unpleasant,NA,NA,NA,NA,NA,left,1661,true,NA,NA,NA,NA,NA
CPEgiN83,3e6l1vr4yzzg81jodkfak6sl8ztf6z,3z3zlgnnsm7gprk9z0x8emg77y4q37,CPEgiN83,2020-0188,2021-10-17,13:30:57,14:57:53,NA,incomplete,false,true,NA,6,16,NA,brown,n_l_050.jpg,NA,NA,pleasant,unpleasant,NA,NA,NA,NA,NA,left,1430,true,NA,NA,NA,NA,NA
CPEgiN83,3e6l1vr4yzzg81jodkfak6sl8ztf6z,3z3zlgnnsm7gprk9z0x8emg77y4q37,CPEgiN83,2020-0188,2021-10-17,13:30:57,14:57:53,NA,incomplete,false,true,NA,6,17,NA,brown,n_l_084.jpg,NA,NA,unpleasant,pleasant,NA,NA,NA,NA,NA,left,2564,true,NA,NA,NA,NA,NA
CPEgiN83,3e6l1vr4yzzg81jodkfak6sl8ztf6z,3z3zlgnnsm7gprk9z0x8emg77y4q37,CPEgiN83,2020-0188,2021-10-17,13:30:57,14:57:53,NA,incomplete,false,true,NA,6,18,NA,white,n_l_066.jpg,NA,NA,pleasant,unpleasant,NA,NA,NA,NA,NA,right,2347,true,NA,NA,NA,NA,NA
CPEgiN83,3e6l1vr4yzzg81jodkfak6sl8ztf6z,3z3zlgnnsm7gprk9z0x8emg77y4q37,CPEgiN83,2020-0188,2021-10-17,13:30:57,14:57:53,NA,incomplete,false,true,NA,6,19,NA,white,n_s_090.jpg,NA,NA,unpleasant,pleasant,NA,NA,NA,NA,NA,right,1489,true,NA,NA,NA,NA,NA
CPEgiN83,3e6l1vr4yzzg81jodkfak6sl8ztf6z,3z3zlgnnsm7gprk9z0x8emg77y4q37,CPEgiN83,2020-0188,2021-10-17,13:30:57,14:57:53,NA,incomplete,false,true,NA,6,20,NA,white,n_l_110.jpg,NA,NA,pleasant,unpleasant,NA,NA,NA,NA,NA,left,1748,true,NA,NA,NA,NA,NA
CPEgiN83,3e6l1vr4yzzg81jodkfak6sl8ztf6z,3z3zlgnnsm7gprk9z0x8emg77y4q37,CPEgiN83,2020-0188,2021-10-17,13:30:57,14:57:53,NA,incomplete,false,true,NA,6,21,NA,white,m_l_087.jpg,NA,NA,pleasant,unpleasant,NA,NA,NA,NA,NA,left,1798,true,NA,NA,NA,NA,NA
CPEgiN83,3e6l1vr4yzzg81jodkfak6sl8ztf6z,3z3zlgnnsm7gprk9z0x8emg77y4q37,CPEgiN83,2020-0188,2021-10-17,13:30:57,14:57:53,NA,incomplete,false,true,NA,6,22,NA,white,m_s_053.jpg,NA,NA,unpleasant,pleasant,NA,NA,NA,NA,NA,right,1486,true,NA,NA,NA,NA,NA
CPEgiN83,3e6l1vr4yzzg81jodkfak6sl8ztf6z,3z3zlgnnsm7gprk9z0x8emg77y4q37,CPEgiN83,2020-0188,2021-10-17,13:30:57,14:57:53,NA,incomplete,false,true,NA,6,23,NA,white,m_s_081.jpg,NA,NA,unpleasant,pleasant,NA,NA,NA,NA,NA,right,1516,true,NA,NA,NA,NA,NA
CPEgiN83,3e6l1vr4yzzg81jodkfak6sl8ztf6z,3z3zlgnnsm7gprk9z0x8emg77y4q37,CPEgiN83,2020-0188,2021-10-17,13:30:57,14:57:53,NA,incomplete,false,true,NA,6,24,NA,orange,m_l_052.jpg,NA,NA,pleasant,unpleasant,NA,NA,NA,NA,NA,left,1661,true,NA,NA,NA,NA,NA
CPEgiN83,3e6l1vr4yzzg81jodkfak6sl8ztf6z,3z3zlgnnsm7gprk9z0x8emg77y4q37,CPEgiN83,2020-0188,2021-10-17,13:30:57,14:57:53,NA,incomplete,false,true,NA,6,25,NA,orange,n_s_043.jpg,NA,NA,unpleasant,pleasant,NA,NA,NA,NA,NA,right,1395,true,NA,NA,NA,NA,NA
CPEgiN83,3e6l1vr4yzzg81jodkfak6sl8ztf6z,3z3zlgnnsm7gprk9z0x8emg77y4q37,CPEgiN83,2020-0188,2021-10-17,13:30:57,14:57:53,NA,incomplete,false,true,NA,6,26,NA,orange,n_l_045.jpg,NA,NA,pleasant,unpleasant,NA,NA,NA,NA,NA,right,2019,true,NA,NA,NA,NA,NA
CPEgiN83,3e6l1vr4yzzg81jodkfak6sl8ztf6z,3z3zlgnnsm7gprk9z0x8emg77y4q37,CPEgiN83,2020-0188,2021-10-17,13:30:57,14:57:53,NA,incomplete,false,true,NA,6,27,NA,orange,n_l_013.jpg,NA,NA,unpleasant,pleasant,NA,NA,NA,NA,NA,right,1750,true,NA,NA,NA,NA,NA
CPEgiN83,3e6l1vr4yzzg81jodkfak6sl8ztf6z,3z3zlgnnsm7gprk9z0x8emg77y4q37,CPEgiN83,2020-0188,2021-10-17,13:30:57,14:57:53,NA,incomplete,false,true,NA,6,28,NA,orange,n_s_045.jpg,NA,NA,pleasant,unpleasant,NA,NA,NA,NA,NA,left,1271,true,NA,NA,NA,NA,NA
CPEgiN83,3e6l1vr4yzzg81jodkfak6sl8ztf6z,3z3zlgnnsm7gprk9z0x8emg77y4q37,CPEgiN83,2020-0188,2021-10-17,13:30:57,14:57:53,NA,incomplete,false,true,NA,6,29,NA,orange,m_l_088.jpg,NA,NA,pleasant,unpleasant,NA,NA,NA,NA,NA,left,1543,true,NA,NA,NA,NA,NA
CPEgiN83,3e6l1vr4yzzg81jodkfak6sl8ztf6z,3z3zlgnnsm7gprk9z0x8emg77y4q37,CPEgiN83,2020-0188,2021-10-17,13:30:57,14:57:53,NA,incomplete,false,true,NA,6,30,NA,gray,n_l_007.jpg,NA,NA,pleasant,unpleasant,NA,NA,NA,NA,NA,left,1646,true,NA,NA,NA,NA,NA
CPEgiN83,3e6l1vr4yzzg81jodkfak6sl8ztf6z,3z3zlgnnsm7gprk9z0x8emg77y4q37,CPEgiN83,2020-0188,2021-10-17,13:30:57,14:57:53,NA,incomplete,false,true,NA,6,31,NA,gray,n_s_027.jpg,NA,NA,unpleasant,pleasant,NA,NA,NA,NA,NA,left,1872,true,NA,NA,NA,NA,NA
CPEgiN83,3e6l1vr4yzzg81jodkfak6sl8ztf6z,3z3zlgnnsm7gprk9z0x8emg77y4q37,CPEgiN83,2020-0188,2021-10-17,13:30:57,14:57:53,NA,incomplete,false,true,NA,6,32,NA,gray,m_l_034.jpg,NA,NA,unpleasant,pleasant,NA,NA,NA,NA,NA,right,1255,true,NA,NA,NA,NA,NA
CPEgiN83,3e6l1vr4yzzg81jodkfak6sl8ztf6z,3z3zlgnnsm7gprk9z0x8emg77y4q37,CPEgiN83,2020-0188,2021-10-17,13:30:57,14:57:53,NA,incomplete,false,true,NA,6,33,NA,gray,m_l_095.jpg,NA,NA,unpleasant,pleasant,NA,NA,NA,NA,NA,right,1070,true,NA,NA,NA,NA,NA
CPEgiN83,3e6l1vr4yzzg81jodkfak6sl8ztf6z,3z3zlgnnsm7gprk9z0x8emg77y4q37,CPEgiN83,2020-0188,2021-10-17,13:30:57,14:57:53,NA,incomplete,false,true,NA,6,34,NA,gray,m_l_062.jpg,NA,NA,pleasant,unpleasant,NA,NA,NA,NA,NA,left,1233,true,NA,NA,NA,NA,NA
CPEgiN83,3e6l1vr4yzzg81jodkfak6sl8ztf6z,3z3zlgnnsm7gprk9z0x8emg77y4q37,CPEgiN83,2020-0188,2021-10-17,13:30:57,14:57:53,NA,incomplete,false,true,NA,6,35,NA,gray,n_s_076.jpg,NA,NA,unpleasant,pleasant,NA,NA,NA,NA,NA,right,1185,true,NA,NA,NA,NA,NA
CPEgiN83,3e6l1vr4yzzg81jodkfak6sl8ztf6z,3z3zlgnnsm7gprk9z0x8emg77y4q37,CPEgiN83,2020-0188,2021-10-17,13:30:57,14:57:53,NA,incomplete,false,NA,true,6,0,NA,NA,NA,left,absent,NA,NA,n_s_043.jpg,orange,m_l_088.jpg,orange,within,NA,NaN,NA,left,2871,1,0,2637
CPEgiN83,3e6l1vr4yzzg81jodkfak6sl8ztf6z,3z3zlgnnsm7gprk9z0x8emg77y4q37,CPEgiN83,2020-0188,2021-10-17,13:30:57,14:57:53,NA,incomplete,false,NA,true,6,1,NA,NA,NA,right,absent,NA,NA,m_l_034.jpg,gray,n_s_045.jpg,orange,between,NA,NaN,NA,left,4548,0,0,2199
CPEgiN83,3e6l1vr4yzzg81jodkfak6sl8ztf6z,3z3zlgnnsm7gprk9z0x8emg77y4q37,CPEgiN83,2020-0188,2021-10-17,13:30:57,14:57:53,NA,incomplete,false,NA,true,6,2,NA,NA,NA,right,absent,NA,NA,m_l_110.jpg,yellow,n_l_015.jpg,yellow,within,NA,NaN,NA,left,3846,0,1,1971
CPEgiN83,3e6l1vr4yzzg81jodkfak6sl8ztf6z,3z3zlgnnsm7gprk9z0x8emg77y4q37,CPEgiN83,2020-0188,2021-10-17,13:30:57,14:57:53,NA,incomplete,false,NA,true,6,3,NA,NA,NA,left,absent,NA,NA,n_s_115.jpg,yellow,n_l_085.jpg,green,between,NA,NaN,NA,left,5478,1,1,1586
CPEgiN83,3e6l1vr4yzzg81jodkfak6sl8ztf6z,3z3zlgnnsm7gprk9z0x8emg77y4q37,CPEgiN83,2020-0188,2021-10-17,13:30:57,14:57:53,NA,incomplete,false,NA,true,6,4,NA,NA,NA,right,absent,NA,NA,m_s_048.jpg,brown,m_s_069.jpg,green,between,NA,NaN,NA,left,4147,0,1,2051
CPEgiN83,3e6l1vr4yzzg81jodkfak6sl8ztf6z,3z3zlgnnsm7gprk9z0x8emg77y4q37,CPEgiN83,2020-0188,2021-10-17,13:30:57,14:57:53,NA,incomplete,false,NA,true,6,5,NA,NA,NA,left,absent,NA,NA,m_s_053.jpg,white,n_l_045.jpg,orange,between,NA,NaN,NA,left,3454,1,1,2862
CPEgiN83,3e6l1vr4yzzg81jodkfak6sl8ztf6z,3z3zlgnnsm7gprk9z0x8emg77y4q37,CPEgiN83,2020-0188,2021-10-17,13:30:57,14:57:53,NA,incomplete,false,NA,true,6,6,NA,NA,NA,left,absent,NA,NA,n_s_027.jpg,gray,n_s_076.jpg,gray,within,NA,NaN,NA,right,5036,0,1,1559
CPEgiN83,3e6l1vr4yzzg81jodkfak6sl8ztf6z,3z3zlgnnsm7gprk9z0x8emg77y4q37,CPEgiN83,2020-0188,2021-10-17,13:30:57,14:57:53,NA,incomplete,false,NA,true,6,7,NA,NA,NA,left,absent,NA,NA,n_s_090.jpg,white,m_s_081.jpg,white,within,NA,NaN,NA,right,4505,0,0,5605
CPEgiN83,3e6l1vr4yzzg81jodkfak6sl8ztf6z,3z3zlgnnsm7gprk9z0x8emg77y4q37,CPEgiN83,2020-0188,2021-10-17,13:30:57,14:57:53,NA,incomplete,false,NA,true,6,8,NA,NA,NA,left,absent,NA,NA,n_l_089.jpg,green,m_l_041.jpg,green,within,NA,NaN,NA,left,6734,1,1,4574
CPEgiN83,3e6l1vr4yzzg81jodkfak6sl8ztf6z,3z3zlgnnsm7gprk9z0x8emg77y4q37,CPEgiN83,2020-0188,2021-10-17,13:30:57,14:57:53,NA,incomplete,false,NA,true,6,9,NA,NA,NA,left,absent,NA,NA,n_l_040.jpg,brown,n_l_084.jpg,brown,within,NA,NaN,NA,left,4433,1,1,1731
CPEgiN83,3e6l1vr4yzzg81jodkfak6sl8ztf6z,3z3zlgnnsm7gprk9z0x8emg77y4q37,CPEgiN83,2020-0188,2021-10-17,13:30:57,14:57:53,NA,incomplete,false,NA,true,6,10,NA,NA,NA,right,absent,NA,NA,n_l_110.jpg,white,n_l_050.jpg,brown,between,NA,NaN,NA,right,2669,1,1,1480
CPEgiN83,3e6l1vr4yzzg81jodkfak6sl8ztf6z,3z3zlgnnsm7gprk9z0x8emg77y4q37,CPEgiN83,2020-0188,2021-10-17,13:30:57,14:57:53,NA,incomplete,false,true,NA,7,0,NA,green,n_s_109.jpg,NA,NA,unpleasant,pleasant,NA,NA,NA,NA,NA,right,2489,true,NA,NA,NA,NA,NA
CPEgiN83,3e6l1vr4yzzg81jodkfak6sl8ztf6z,3z3zlgnnsm7gprk9z0x8emg77y4q37,CPEgiN83,2020-0188,2021-10-17,13:30:57,14:57:53,NA,incomplete,false,true,NA,7,1,NA,green,m_s_052.jpg,NA,NA,pleasant,unpleasant,NA,NA,NA,NA,NA,none,0,false,NA,NA,NA,NA,NA
CPEgiN83,3e6l1vr4yzzg81jodkfak6sl8ztf6z,3z3zlgnnsm7gprk9z0x8emg77y4q37,CPEgiN83,2020-0188,2021-10-17,13:30:57,14:57:53,NA,incomplete,false,true,NA,7,2,NA,green,m_s_062.jpg,NA,NA,pleasant,unpleasant,NA,NA,NA,NA,NA,none,0,false,NA,NA,NA,NA,NA
CPEgiN83,3e6l1vr4yzzg81jodkfak6sl8ztf6z,3z3zlgnnsm7gprk9z0x8emg77y4q37,CPEgiN83,2020-0188,2021-10-17,13:30:57,14:57:53,NA,incomplete,false,true,NA,7,3,NA,green,n_l_048.jpg,NA,NA,pleasant,unpleasant,NA,NA,NA,NA,NA,left,1690,true,NA,NA,NA,NA,NA
CPEgiN83,3e6l1vr4yzzg81jodkfak6sl8ztf6z,3z3zlgnnsm7gprk9z0x8emg77y4q37,CPEgiN83,2020-0188,2021-10-17,13:30:57,14:57:53,NA,incomplete,false,true,NA,7,4,NA,green,n_l_014.jpg,NA,NA,pleasant,unpleasant,NA,NA,NA,NA,NA,left,2111,true,NA,NA,NA,NA,NA
CPEgiN83,3e6l1vr4yzzg81jodkfak6sl8ztf6z,3z3zlgnnsm7gprk9z0x8emg77y4q37,CPEgiN83,2020-0188,2021-10-17,13:30:57,14:57:53,NA,incomplete,false,true,NA,7,5,NA,green,m_l_029.jpg,NA,NA,unpleasant,pleasant,NA,NA,NA,NA,NA,right,1359,true,NA,NA,NA,NA,NA
CPEgiN83,3e6l1vr4yzzg81jodkfak6sl8ztf6z,3z3zlgnnsm7gprk9z0x8emg77y4q37,CPEgiN83,2020-0188,2021-10-17,13:30:57,14:57:53,NA,incomplete,false,true,NA,7,6,NA,orange,n_s_104.jpg,NA,NA,pleasant,unpleasant,NA,NA,NA,NA,NA,left,1278,true,NA,NA,NA,NA,NA
CPEgiN83,3e6l1vr4yzzg81jodkfak6sl8ztf6z,3z3zlgnnsm7gprk9z0x8emg77y4q37,CPEgiN83,2020-0188,2021-10-17,13:30:57,14:57:53,NA,incomplete,false,true,NA,7,7,NA,orange,n_l_102.jpg,NA,NA,pleasant,unpleasant,NA,NA,NA,NA,NA,left,1503,true,NA,NA,NA,NA,NA
CPEgiN83,3e6l1vr4yzzg81jodkfak6sl8ztf6z,3z3zlgnnsm7gprk9z0x8emg77y4q37,CPEgiN83,2020-0188,2021-10-17,13:30:57,14:57:53,NA,incomplete,false,true,NA,7,8,NA,orange,m_l_086.jpg,NA,NA,pleasant,unpleasant,NA,NA,NA,NA,NA,left,1254,true,NA,NA,NA,NA,NA
CPEgiN83,3e6l1vr4yzzg81jodkfak6sl8ztf6z,3z3zlgnnsm7gprk9z0x8emg77y4q37,CPEgiN83,2020-0188,2021-10-17,13:30:57,14:57:53,NA,incomplete,false,true,NA,7,9,NA,orange,n_l_022.jpg,NA,NA,unpleasant,pleasant,NA,NA,NA,NA,NA,right,1410,true,NA,NA,NA,NA,NA
CPEgiN83,3e6l1vr4yzzg81jodkfak6sl8ztf6z,3z3zlgnnsm7gprk9z0x8emg77y4q37,CPEgiN83,2020-0188,2021-10-17,13:30:57,14:57:53,NA,incomplete,false,true,NA,7,10,NA,orange,n_l_107.jpg,NA,NA,pleasant,unpleasant,NA,NA,NA,NA,NA,left,1413,true,NA,NA,NA,NA,NA
CPEgiN83,3e6l1vr4yzzg81jodkfak6sl8ztf6z,3z3zlgnnsm7gprk9z0x8emg77y4q37,CPEgiN83,2020-0188,2021-10-17,13:30:57,14:57:53,NA,incomplete,false,true,NA,7,11,NA,orange,n_s_060.jpg,NA,NA,unpleasant,pleasant,NA,NA,NA,NA,NA,right,1725,true,NA,NA,NA,NA,NA
CPEgiN83,3e6l1vr4yzzg81jodkfak6sl8ztf6z,3z3zlgnnsm7gprk9z0x8emg77y4q37,CPEgiN83,2020-0188,2021-10-17,13:30:57,14:57:53,NA,incomplete,false,true,NA,7,12,NA,white,m_l_024.jpg,NA,NA,pleasant,unpleasant,NA,NA,NA,NA,NA,left,1335,true,NA,NA,NA,NA,NA
CPEgiN83,3e6l1vr4yzzg81jodkfak6sl8ztf6z,3z3zlgnnsm7gprk9z0x8emg77y4q37,CPEgiN83,2020-0188,2021-10-17,13:30:57,14:57:53,NA,incomplete,false,true,NA,7,13,NA,white,m_l_065.jpg,NA,NA,unpleasant,pleasant,NA,NA,NA,NA,NA,right,1385,true,NA,NA,NA,NA,NA
CPEgiN83,3e6l1vr4yzzg81jodkfak6sl8ztf6z,3z3zlgnnsm7gprk9z0x8emg77y4q37,CPEgiN83,2020-0188,2021-10-17,13:30:57,14:57:53,NA,incomplete,false,true,NA,7,14,NA,white,n_l_010.jpg,NA,NA,unpleasant,pleasant,NA,NA,NA,NA,NA,right,1355,true,NA,NA,NA,NA,NA
CPEgiN83,3e6l1vr4yzzg81jodkfak6sl8ztf6z,3z3zlgnnsm7gprk9z0x8emg77y4q37,CPEgiN83,2020-0188,2021-10-17,13:30:57,14:57:53,NA,incomplete,false,true,NA,7,15,NA,white,n_l_101.jpg,NA,NA,pleasant,unpleasant,NA,NA,NA,NA,NA,left,1160,true,NA,NA,NA,NA,NA
CPEgiN83,3e6l1vr4yzzg81jodkfak6sl8ztf6z,3z3zlgnnsm7gprk9z0x8emg77y4q37,CPEgiN83,2020-0188,2021-10-17,13:30:57,14:57:53,NA,incomplete,false,true,NA,7,16,NA,white,n_l_037.jpg,NA,NA,pleasant,unpleasant,NA,NA,NA,NA,NA,left,2393,true,NA,NA,NA,NA,NA
CPEgiN83,3e6l1vr4yzzg81jodkfak6sl8ztf6z,3z3zlgnnsm7gprk9z0x8emg77y4q37,CPEgiN83,2020-0188,2021-10-17,13:30:57,14:57:53,NA,incomplete,false,true,NA,7,17,NA,white,m_l_027.jpg,NA,NA,pleasant,unpleasant,NA,NA,NA,NA,NA,left,1575,true,NA,NA,NA,NA,NA
CPEgiN83,3e6l1vr4yzzg81jodkfak6sl8ztf6z,3z3zlgnnsm7gprk9z0x8emg77y4q37,CPEgiN83,2020-0188,2021-10-17,13:30:57,14:57:53,NA,incomplete,false,true,NA,7,18,NA,red,n_l_018.jpg,NA,NA,unpleasant,pleasant,NA,NA,NA,NA,NA,right,1714,true,NA,NA,NA,NA,NA
CPEgiN83,3e6l1vr4yzzg81jodkfak6sl8ztf6z,3z3zlgnnsm7gprk9z0x8emg77y4q37,CPEgiN83,2020-0188,2021-10-17,13:30:57,14:57:53,NA,incomplete,false,true,NA,7,19,NA,red,n_s_020.jpg,NA,NA,pleasant,unpleasant,NA,NA,NA,NA,NA,left,1709,true,NA,NA,NA,NA,NA
CPEgiN83,3e6l1vr4yzzg81jodkfak6sl8ztf6z,3z3zlgnnsm7gprk9z0x8emg77y4q37,CPEgiN83,2020-0188,2021-10-17,13:30:57,14:57:53,NA,incomplete,false,true,NA,7,20,NA,red,n_s_006.jpg,NA,NA,pleasant,unpleasant,NA,NA,NA,NA,NA,left,1795,true,NA,NA,NA,NA,NA
CPEgiN83,3e6l1vr4yzzg81jodkfak6sl8ztf6z,3z3zlgnnsm7gprk9z0x8emg77y4q37,CPEgiN83,2020-0188,2021-10-17,13:30:57,14:57:53,NA,incomplete,false,true,NA,7,21,NA,red,m_s_026.jpg,NA,NA,unpleasant,pleasant,NA,NA,NA,NA,NA,right,1255,true,NA,NA,NA,NA,NA
CPEgiN83,3e6l1vr4yzzg81jodkfak6sl8ztf6z,3z3zlgnnsm7gprk9z0x8emg77y4q37,CPEgiN83,2020-0188,2021-10-17,13:30:57,14:57:53,NA,incomplete,false,true,NA,7,22,NA,red,n_l_051.jpg,NA,NA,unpleasant,pleasant,NA,NA,NA,NA,NA,right,2117,true,NA,NA,NA,NA,NA
CPEgiN83,3e6l1vr4yzzg81jodkfak6sl8ztf6z,3z3zlgnnsm7gprk9z0x8emg77y4q37,CPEgiN83,2020-0188,2021-10-17,13:30:57,14:57:53,NA,incomplete,false,true,NA,7,23,NA,red,n_l_060.jpg,NA,NA,unpleasant,pleasant,NA,NA,NA,NA,NA,right,1299,true,NA,NA,NA,NA,NA
CPEgiN83,3e6l1vr4yzzg81jodkfak6sl8ztf6z,3z3zlgnnsm7gprk9z0x8emg77y4q37,CPEgiN83,2020-0188,2021-10-17,13:30:57,14:57:53,NA,incomplete,false,true,NA,7,24,NA,black,m_l_028.jpg,NA,NA,pleasant,unpleasant,NA,NA,NA,NA,NA,left,1674,true,NA,NA,NA,NA,NA
CPEgiN83,3e6l1vr4yzzg81jodkfak6sl8ztf6z,3z3zlgnnsm7gprk9z0x8emg77y4q37,CPEgiN83,2020-0188,2021-10-17,13:30:57,14:57:53,NA,incomplete,false,true,NA,7,25,NA,black,n_l_036.jpg,NA,NA,unpleasant,pleasant,NA,NA,NA,NA,NA,right,1557,true,NA,NA,NA,NA,NA
CPEgiN83,3e6l1vr4yzzg81jodkfak6sl8ztf6z,3z3zlgnnsm7gprk9z0x8emg77y4q37,CPEgiN83,2020-0188,2021-10-17,13:30:57,14:57:53,NA,incomplete,false,true,NA,7,26,NA,black,m_l_023.jpg,NA,NA,unpleasant,pleasant,NA,NA,NA,NA,NA,right,1408,true,NA,NA,NA,NA,NA
CPEgiN83,3e6l1vr4yzzg81jodkfak6sl8ztf6z,3z3zlgnnsm7gprk9z0x8emg77y4q37,CPEgiN83,2020-0188,2021-10-17,13:30:57,14:57:53,NA,incomplete,false,true,NA,7,27,NA,black,n_s_044.jpg,NA,NA,unpleasant,pleasant,NA,NA,NA,NA,NA,right,1611,true,NA,NA,NA,NA,NA
CPEgiN83,3e6l1vr4yzzg81jodkfak6sl8ztf6z,3z3zlgnnsm7gprk9z0x8emg77y4q37,CPEgiN83,2020-0188,2021-10-17,13:30:57,14:57:53,NA,incomplete,false,true,NA,7,28,NA,black,m_s_019.jpg,NA,NA,unpleasant,pleasant,NA,NA,NA,NA,NA,right,1454,true,NA,NA,NA,NA,NA
CPEgiN83,3e6l1vr4yzzg81jodkfak6sl8ztf6z,3z3zlgnnsm7gprk9z0x8emg77y4q37,CPEgiN83,2020-0188,2021-10-17,13:30:57,14:57:53,NA,incomplete,false,true,NA,7,29,NA,black,m_s_060.jpg,NA,NA,unpleasant,pleasant,NA,NA,NA,NA,NA,right,1418,true,NA,NA,NA,NA,NA
CPEgiN83,3e6l1vr4yzzg81jodkfak6sl8ztf6z,3z3zlgnnsm7gprk9z0x8emg77y4q37,CPEgiN83,2020-0188,2021-10-17,13:30:57,14:57:53,NA,incomplete,false,true,NA,7,30,NA,gray,m_s_002.jpg,NA,NA,unpleasant,pleasant,NA,NA,NA,NA,NA,right,1535,true,NA,NA,NA,NA,NA
CPEgiN83,3e6l1vr4yzzg81jodkfak6sl8ztf6z,3z3zlgnnsm7gprk9z0x8emg77y4q37,CPEgiN83,2020-0188,2021-10-17,13:30:57,14:57:53,NA,incomplete,false,true,NA,7,31,NA,gray,m_l_089.jpg,NA,NA,pleasant,unpleasant,NA,NA,NA,NA,NA,left,1705,true,NA,NA,NA,NA,NA
CPEgiN83,3e6l1vr4yzzg81jodkfak6sl8ztf6z,3z3zlgnnsm7gprk9z0x8emg77y4q37,CPEgiN83,2020-0188,2021-10-17,13:30:57,14:57:53,NA,incomplete,false,true,NA,7,32,NA,gray,m_s_116.jpg,NA,NA,unpleasant,pleasant,NA,NA,NA,NA,NA,right,1540,true,NA,NA,NA,NA,NA
CPEgiN83,3e6l1vr4yzzg81jodkfak6sl8ztf6z,3z3zlgnnsm7gprk9z0x8emg77y4q37,CPEgiN83,2020-0188,2021-10-17,13:30:57,14:57:53,NA,incomplete,false,true,NA,7,33,NA,gray,m_l_076.jpg,NA,NA,pleasant,unpleasant,NA,NA,NA,NA,NA,left,1455,true,NA,NA,NA,NA,NA
CPEgiN83,3e6l1vr4yzzg81jodkfak6sl8ztf6z,3z3zlgnnsm7gprk9z0x8emg77y4q37,CPEgiN83,2020-0188,2021-10-17,13:30:57,14:57:53,NA,incomplete,false,true,NA,7,34,NA,gray,n_l_046.jpg,NA,NA,unpleasant,pleasant,NA,NA,NA,NA,NA,right,1436,true,NA,NA,NA,NA,NA
CPEgiN83,3e6l1vr4yzzg81jodkfak6sl8ztf6z,3z3zlgnnsm7gprk9z0x8emg77y4q37,CPEgiN83,2020-0188,2021-10-17,13:30:57,14:57:53,NA,incomplete,false,true,NA,7,35,NA,gray,n_l_094.jpg,NA,NA,pleasant,unpleasant,NA,NA,NA,NA,NA,left,2013,true,NA,NA,NA,NA,NA
CPEgiN83,3e6l1vr4yzzg81jodkfak6sl8ztf6z,3z3zlgnnsm7gprk9z0x8emg77y4q37,CPEgiN83,2020-0188,2021-10-17,13:30:57,14:57:53,NA,incomplete,false,NA,true,7,0,NA,NA,NA,left,present,NA,NA,m_s_052.jpg,green,m_l_029.jpg,green,within,NA,NaN,NA,left,3102,1,0,2108
CPEgiN83,3e6l1vr4yzzg81jodkfak6sl8ztf6z,3z3zlgnnsm7gprk9z0x8emg77y4q37,CPEgiN83,2020-0188,2021-10-17,13:30:57,14:57:53,NA,incomplete,false,NA,true,7,1,NA,NA,NA,left,present,NA,NA,n_l_107.jpg,orange,n_l_010.jpg,white,between,NA,NaN,NA,right,4038,0,0,2350
CPEgiN83,3e6l1vr4yzzg81jodkfak6sl8ztf6z,3z3zlgnnsm7gprk9z0x8emg77y4q37,CPEgiN83,2020-0188,2021-10-17,13:30:57,14:57:53,NA,incomplete,false,NA,true,7,2,NA,NA,NA,right,present,NA,NA,m_l_027.jpg,white,m_l_065.jpg,white,within,NA,NaN,NA,right,2993,1,1,1571
CPEgiN83,3e6l1vr4yzzg81jodkfak6sl8ztf6z,3z3zlgnnsm7gprk9z0x8emg77y4q37,CPEgiN83,2020-0188,2021-10-17,13:30:57,14:57:53,NA,incomplete,false,NA,true,7,3,NA,NA,NA,left,present,NA,NA,n_l_051.jpg,red,m_l_023.jpg,black,between,NA,NaN,NA,left,4582,1,2,2165
CPEgiN83,3e6l1vr4yzzg81jodkfak6sl8ztf6z,3z3zlgnnsm7gprk9z0x8emg77y4q37,CPEgiN83,2020-0188,2021-10-17,13:30:57,14:57:53,NA,incomplete,false,NA,true,7,4,NA,NA,NA,right,present,NA,NA,m_s_116.jpg,gray,m_s_019.jpg,black,between,NA,NaN,NA,right,5300,1,1,1953
CPEgiN83,3e6l1vr4yzzg81jodkfak6sl8ztf6z,3z3zlgnnsm7gprk9z0x8emg77y4q37,CPEgiN83,2020-0188,2021-10-17,13:30:57,14:57:53,NA,incomplete,false,NA,true,7,5,NA,NA,NA,right,present,NA,NA,n_s_060.jpg,orange,n_l_102.jpg,orange,within,NA,NaN,NA,left,6788,0,1,1674
CPEgiN83,3e6l1vr4yzzg81jodkfak6sl8ztf6z,3z3zlgnnsm7gprk9z0x8emg77y4q37,CPEgiN83,2020-0188,2021-10-17,13:30:57,14:57:53,NA,incomplete,false,NA,true,7,6,NA,NA,NA,right,present,NA,NA,n_l_060.jpg,red,n_s_020.jpg,red,within,NA,NaN,NA,right,4799,1,1,1506
CPEgiN83,3e6l1vr4yzzg81jodkfak6sl8ztf6z,3z3zlgnnsm7gprk9z0x8emg77y4q37,CPEgiN83,2020-0188,2021-10-17,13:30:57,14:57:53,NA,incomplete,false,NA,true,7,7,NA,NA,NA,right,present,NA,NA,n_s_006.jpg,red,n_l_037.jpg,white,between,NA,NaN,NA,left,4925,0,0,4496
CPEgiN83,3e6l1vr4yzzg81jodkfak6sl8ztf6z,3z3zlgnnsm7gprk9z0x8emg77y4q37,CPEgiN83,2020-0188,2021-10-17,13:30:57,14:57:53,NA,incomplete,false,NA,true,7,8,NA,NA,NA,right,present,NA,NA,m_s_060.jpg,black,n_l_036.jpg,black,within,NA,NaN,NA,left,5338,0,1,1750
CPEgiN83,3e6l1vr4yzzg81jodkfak6sl8ztf6z,3z3zlgnnsm7gprk9z0x8emg77y4q37,CPEgiN83,2020-0188,2021-10-17,13:30:57,14:57:53,NA,incomplete,false,NA,true,7,9,NA,NA,NA,right,present,NA,NA,n_l_094.jpg,gray,m_l_089.jpg,gray,within,NA,NaN,NA,right,7213,1,1,1797
CPEgiN83,3e6l1vr4yzzg81jodkfak6sl8ztf6z,3z3zlgnnsm7gprk9z0x8emg77y4q37,CPEgiN83,2020-0188,2021-10-17,13:30:57,14:57:53,NA,incomplete,false,NA,true,7,10,NA,NA,NA,left,present,NA,NA,n_l_014.jpg,green,m_l_086.jpg,orange,between,NA,NaN,NA,left,5017,1,3,3254
CPEgiN83,3e6l1vr4yzzg81jodkfak6sl8ztf6z,3z3zlgnnsm7gprk9z0x8emg77y4q37,CPEgiN83,2020-0188,2021-10-17,13:30:57,14:57:53,NA,incomplete,false,true,NA,8,0,NA,white,m_s_056.jpg,NA,NA,unpleasant,pleasant,NA,NA,NA,NA,NA,right,1730,true,NA,NA,NA,NA,NA
CPEgiN83,3e6l1vr4yzzg81jodkfak6sl8ztf6z,3z3zlgnnsm7gprk9z0x8emg77y4q37,CPEgiN83,2020-0188,2021-10-17,13:30:57,14:57:53,NA,incomplete,false,true,NA,8,1,NA,white,m_s_066.jpg,NA,NA,unpleasant,pleasant,NA,NA,NA,NA,NA,right,1629,true,NA,NA,NA,NA,NA
CPEgiN83,3e6l1vr4yzzg81jodkfak6sl8ztf6z,3z3zlgnnsm7gprk9z0x8emg77y4q37,CPEgiN83,2020-0188,2021-10-17,13:30:57,14:57:53,NA,incomplete,false,true,NA,8,2,NA,white,m_s_071.jpg,NA,NA,unpleasant,pleasant,NA,NA,NA,NA,NA,right,1478,true,NA,NA,NA,NA,NA
CPEgiN83,3e6l1vr4yzzg81jodkfak6sl8ztf6z,3z3zlgnnsm7gprk9z0x8emg77y4q37,CPEgiN83,2020-0188,2021-10-17,13:30:57,14:57:53,NA,incomplete,false,true,NA,8,3,NA,white,n_l_023.jpg,NA,NA,unpleasant,pleasant,NA,NA,NA,NA,NA,right,1337,true,NA,NA,NA,NA,NA
CPEgiN83,3e6l1vr4yzzg81jodkfak6sl8ztf6z,3z3zlgnnsm7gprk9z0x8emg77y4q37,CPEgiN83,2020-0188,2021-10-17,13:30:57,14:57:53,NA,incomplete,false,true,NA,8,4,NA,white,n_l_081.jpg,NA,NA,unpleasant,pleasant,NA,NA,NA,NA,NA,right,1354,true,NA,NA,NA,NA,NA
CPEgiN83,3e6l1vr4yzzg81jodkfak6sl8ztf6z,3z3zlgnnsm7gprk9z0x8emg77y4q37,CPEgiN83,2020-0188,2021-10-17,13:30:57,14:57:53,NA,incomplete,false,true,NA,8,5,NA,white,n_l_097.jpg,NA,NA,pleasant,unpleasant,NA,NA,NA,NA,NA,left,1625,true,NA,NA,NA,NA,NA
CPEgiN83,3e6l1vr4yzzg81jodkfak6sl8ztf6z,3z3zlgnnsm7gprk9z0x8emg77y4q37,CPEgiN83,2020-0188,2021-10-17,13:30:57,14:57:53,NA,incomplete,false,true,NA,8,6,NA,green,n_l_093.jpg,NA,NA,pleasant,unpleasant,NA,NA,NA,NA,NA,right,1748,true,NA,NA,NA,NA,NA
CPEgiN83,3e6l1vr4yzzg81jodkfak6sl8ztf6z,3z3zlgnnsm7gprk9z0x8emg77y4q37,CPEgiN83,2020-0188,2021-10-17,13:30:57,14:57:53,NA,incomplete,false,true,NA,8,7,NA,green,m_l_116.jpg,NA,NA,pleasant,unpleasant,NA,NA,NA,NA,NA,left,1294,true,NA,NA,NA,NA,NA
CPEgiN83,3e6l1vr4yzzg81jodkfak6sl8ztf6z,3z3zlgnnsm7gprk9z0x8emg77y4q37,CPEgiN83,2020-0188,2021-10-17,13:30:57,14:57:53,NA,incomplete,false,true,NA,8,8,NA,green,n_s_032.jpg,NA,NA,pleasant,unpleasant,NA,NA,NA,NA,NA,right,2209,true,NA,NA,NA,NA,NA
CPEgiN83,3e6l1vr4yzzg81jodkfak6sl8ztf6z,3z3zlgnnsm7gprk9z0x8emg77y4q37,CPEgiN83,2020-0188,2021-10-17,13:30:57,14:57:53,NA,incomplete,false,true,NA,8,9,NA,green,m_l_018.jpg,NA,NA,unpleasant,pleasant,NA,NA,NA,NA,NA,right,1580,true,NA,NA,NA,NA,NA
CPEgiN83,3e6l1vr4yzzg81jodkfak6sl8ztf6z,3z3zlgnnsm7gprk9z0x8emg77y4q37,CPEgiN83,2020-0188,2021-10-17,13:30:57,14:57:53,NA,incomplete,false,true,NA,8,10,NA,green,m_s_076.jpg,NA,NA,unpleasant,pleasant,NA,NA,NA,NA,NA,right,1586,true,NA,NA,NA,NA,NA
CPEgiN83,3e6l1vr4yzzg81jodkfak6sl8ztf6z,3z3zlgnnsm7gprk9z0x8emg77y4q37,CPEgiN83,2020-0188,2021-10-17,13:30:57,14:57:53,NA,incomplete,false,true,NA,8,11,NA,green,m_l_082.jpg,NA,NA,unpleasant,pleasant,NA,NA,NA,NA,NA,right,1148,true,NA,NA,NA,NA,NA
CPEgiN83,3e6l1vr4yzzg81jodkfak6sl8ztf6z,3z3zlgnnsm7gprk9z0x8emg77y4q37,CPEgiN83,2020-0188,2021-10-17,13:30:57,14:57:53,NA,incomplete,false,true,NA,8,12,NA,gray,n_l_082.jpg,NA,NA,unpleasant,pleasant,NA,NA,NA,NA,NA,right,2019,true,NA,NA,NA,NA,NA
CPEgiN83,3e6l1vr4yzzg81jodkfak6sl8ztf6z,3z3zlgnnsm7gprk9z0x8emg77y4q37,CPEgiN83,2020-0188,2021-10-17,13:30:57,14:57:53,NA,incomplete,false,true,NA,8,13,NA,gray,n_s_036.jpg,NA,NA,pleasant,unpleasant,NA,NA,NA,NA,NA,left,1516,true,NA,NA,NA,NA,NA
CPEgiN83,3e6l1vr4yzzg81jodkfak6sl8ztf6z,3z3zlgnnsm7gprk9z0x8emg77y4q37,CPEgiN83,2020-0188,2021-10-17,13:30:57,14:57:53,NA,incomplete,false,true,NA,8,14,NA,gray,m_l_084.jpg,NA,NA,pleasant,unpleasant,NA,NA,NA,NA,NA,left,2029,true,NA,NA,NA,NA,NA
CPEgiN83,3e6l1vr4yzzg81jodkfak6sl8ztf6z,3z3zlgnnsm7gprk9z0x8emg77y4q37,CPEgiN83,2020-0188,2021-10-17,13:30:57,14:57:53,NA,incomplete,false,true,NA,8,15,NA,gray,n_s_063.jpg,NA,NA,unpleasant,pleasant,NA,NA,NA,NA,NA,right,1447,true,NA,NA,NA,NA,NA
CPEgiN83,3e6l1vr4yzzg81jodkfak6sl8ztf6z,3z3zlgnnsm7gprk9z0x8emg77y4q37,CPEgiN83,2020-0188,2021-10-17,13:30:57,14:57:53,NA,incomplete,false,true,NA,8,16,NA,gray,m_s_083.jpg,NA,NA,unpleasant,pleasant,NA,NA,NA,NA,NA,right,1266,true,NA,NA,NA,NA,NA
CPEgiN83,3e6l1vr4yzzg81jodkfak6sl8ztf6z,3z3zlgnnsm7gprk9z0x8emg77y4q37,CPEgiN83,2020-0188,2021-10-17,13:30:57,14:57:53,NA,incomplete,false,true,NA,8,17,NA,gray,n_l_031.jpg,NA,NA,pleasant,unpleasant,NA,NA,NA,NA,NA,left,1506,true,NA,NA,NA,NA,NA
CPEgiN83,3e6l1vr4yzzg81jodkfak6sl8ztf6z,3z3zlgnnsm7gprk9z0x8emg77y4q37,CPEgiN83,2020-0188,2021-10-17,13:30:57,14:57:53,NA,incomplete,false,true,NA,8,18,NA,orange,m_l_069.jpg,NA,NA,pleasant,unpleasant,NA,NA,NA,NA,NA,left,1429,true,NA,NA,NA,NA,NA
CPEgiN83,3e6l1vr4yzzg81jodkfak6sl8ztf6z,3z3zlgnnsm7gprk9z0x8emg77y4q37,CPEgiN83,2020-0188,2021-10-17,13:30:57,14:57:53,NA,incomplete,false,true,NA,8,19,NA,orange,m_s_003.jpg,NA,NA,unpleasant,pleasant,NA,NA,NA,NA,NA,right,1321,true,NA,NA,NA,NA,NA
CPEgiN83,3e6l1vr4yzzg81jodkfak6sl8ztf6z,3z3zlgnnsm7gprk9z0x8emg77y4q37,CPEgiN83,2020-0188,2021-10-17,13:30:57,14:57:53,NA,incomplete,false,true,NA,8,20,NA,orange,n_s_041.jpg,NA,NA,unpleasant,pleasant,NA,NA,NA,NA,NA,right,1661,true,NA,NA,NA,NA,NA
CPEgiN83,3e6l1vr4yzzg81jodkfak6sl8ztf6z,3z3zlgnnsm7gprk9z0x8emg77y4q37,CPEgiN83,2020-0188,2021-10-17,13:30:57,14:57:53,NA,incomplete,false,true,NA,8,21,NA,orange,n_s_024.jpg,NA,NA,pleasant,unpleasant,NA,NA,NA,NA,NA,left,1561,true,NA,NA,NA,NA,NA
CPEgiN83,3e6l1vr4yzzg81jodkfak6sl8ztf6z,3z3zlgnnsm7gprk9z0x8emg77y4q37,CPEgiN83,2020-0188,2021-10-17,13:30:57,14:57:53,NA,incomplete,false,true,NA,8,22,NA,orange,m_l_055.jpg,NA,NA,pleasant,unpleasant,NA,NA,NA,NA,NA,left,1275,true,NA,NA,NA,NA,NA
CPEgiN83,3e6l1vr4yzzg81jodkfak6sl8ztf6z,3z3zlgnnsm7gprk9z0x8emg77y4q37,CPEgiN83,2020-0188,2021-10-17,13:30:57,14:57:53,NA,incomplete,false,true,NA,8,23,NA,orange,m_s_004.jpg,NA,NA,unpleasant,pleasant,NA,NA,NA,NA,NA,right,1480,true,NA,NA,NA,NA,NA
CPEgiN83,3e6l1vr4yzzg81jodkfak6sl8ztf6z,3z3zlgnnsm7gprk9z0x8emg77y4q37,CPEgiN83,2020-0188,2021-10-17,13:30:57,14:57:53,NA,incomplete,false,true,NA,8,24,NA,purple,m_s_032.jpg,NA,NA,unpleasant,pleasant,NA,NA,NA,NA,NA,right,1409,true,NA,NA,NA,NA,NA
CPEgiN83,3e6l1vr4yzzg81jodkfak6sl8ztf6z,3z3zlgnnsm7gprk9z0x8emg77y4q37,CPEgiN83,2020-0188,2021-10-17,13:30:57,14:57:53,NA,incomplete,false,true,NA,8,25,NA,purple,m_s_040.jpg,NA,NA,unpleasant,pleasant,NA,NA,NA,NA,NA,right,1556,true,NA,NA,NA,NA,NA
CPEgiN83,3e6l1vr4yzzg81jodkfak6sl8ztf6z,3z3zlgnnsm7gprk9z0x8emg77y4q37,CPEgiN83,2020-0188,2021-10-17,13:30:57,14:57:53,NA,incomplete,false,true,NA,8,26,NA,purple,n_s_015.jpg,NA,NA,pleasant,unpleasant,NA,NA,NA,NA,NA,left,1432,true,NA,NA,NA,NA,NA
CPEgiN83,3e6l1vr4yzzg81jodkfak6sl8ztf6z,3z3zlgnnsm7gprk9z0x8emg77y4q37,CPEgiN83,2020-0188,2021-10-17,13:30:57,14:57:53,NA,incomplete,false,true,NA,8,27,NA,purple,n_s_098.jpg,NA,NA,pleasant,unpleasant,NA,NA,NA,NA,NA,right,2124,true,NA,NA,NA,NA,NA
CPEgiN83,3e6l1vr4yzzg81jodkfak6sl8ztf6z,3z3zlgnnsm7gprk9z0x8emg77y4q37,CPEgiN83,2020-0188,2021-10-17,13:30:57,14:57:53,NA,incomplete,false,true,NA,8,28,NA,purple,n_l_072.jpg,NA,NA,pleasant,unpleasant,NA,NA,NA,NA,NA,left,1846,true,NA,NA,NA,NA,NA
