workerId,hitId,assignmentId,subject,studyid,exp_date,exp_start,exp_end,time_start,time_end,practice,encoding,memory,block,trial,event_order,event,stim,answer,context_type,label_left,label_right,left_image,left_event,right_image,right_event,condition,response,response_time,response_acc,order_response,order_response_time,order_acc,distance_response,distance_response_time
D9MPYSbr,344m16ozllsw98pkhqhl4zt7rn1nev,3hwrjooet9fvc5fjgo39sdz5g4yesg,D9MPYSbr,2020-0188,2021-10-15,11:55:01,13:02:20,NA,incomplete,true,true,NA,0,0,NA,orange,m_s_031.jpg,NA,NA,unpleasant,pleasant,NA,NA,NA,NA,NA,left,1741.70000000298,true,NA,NA,NA,NA,NA
D9MPYSbr,344m16ozllsw98pkhqhl4zt7rn1nev,3hwrjooet9fvc5fjgo39sdz5g4yesg,D9MPYSbr,2020-0188,2021-10-15,11:55:01,13:02:20,NA,incomplete,true,true,NA,0,1,NA,orange,m_l_082.jpg,NA,NA,pleasant,unpleasant,NA,NA,NA,NA,NA,left,881.20000000298,true,NA,NA,NA,NA,NA
D9MPYSbr,344m16ozllsw98pkhqhl4zt7rn1nev,3hwrjooet9fvc5fjgo39sdz5g4yesg,D9MPYSbr,2020-0188,2021-10-15,11:55:01,13:02:20,NA,incomplete,true,true,NA,0,2,NA,orange,n_s_060.jpg,NA,NA,pleasant,unpleasant,NA,NA,NA,NA,NA,left,1617.29999999702,true,NA,NA,NA,NA,NA
D9MPYSbr,344m16ozllsw98pkhqhl4zt7rn1nev,3hwrjooet9fvc5fjgo39sdz5g4yesg,D9MPYSbr,2020-0188,2021-10-15,11:55:01,13:02:20,NA,incomplete,true,true,NA,0,3,NA,orange,m_l_037.jpg,NA,NA,pleasant,unpleasant,NA,NA,NA,NA,NA,right,1183.09999999404,true,NA,NA,NA,NA,NA
D9MPYSbr,344m16ozllsw98pkhqhl4zt7rn1nev,3hwrjooet9fvc5fjgo39sdz5g4yesg,D9MPYSbr,2020-0188,2021-10-15,11:55:01,13:02:20,NA,incomplete,true,true,NA,0,4,NA,orange,n_s_025.jpg,NA,NA,pleasant,unpleasant,NA,NA,NA,NA,NA,left,1509.5,true,NA,NA,NA,NA,NA
D9MPYSbr,344m16ozllsw98pkhqhl4zt7rn1nev,3hwrjooet9fvc5fjgo39sdz5g4yesg,D9MPYSbr,2020-0188,2021-10-15,11:55:01,13:02:20,NA,incomplete,true,true,NA,0,5,NA,orange,m_s_034.jpg,NA,NA,pleasant,unpleasant,NA,NA,NA,NA,NA,right,1015,true,NA,NA,NA,NA,NA
D9MPYSbr,344m16ozllsw98pkhqhl4zt7rn1nev,3hwrjooet9fvc5fjgo39sdz5g4yesg,D9MPYSbr,2020-0188,2021-10-15,11:55:01,13:02:20,NA,incomplete,true,true,NA,0,6,NA,purple,n_s_023.jpg,NA,NA,unpleasant,pleasant,NA,NA,NA,NA,NA,left,1970.29999999702,true,NA,NA,NA,NA,NA
D9MPYSbr,344m16ozllsw98pkhqhl4zt7rn1nev,3hwrjooet9fvc5fjgo39sdz5g4yesg,D9MPYSbr,2020-0188,2021-10-15,11:55:01,13:02:20,NA,incomplete,true,true,NA,0,7,NA,purple,m_s_106.jpg,NA,NA,unpleasant,pleasant,NA,NA,NA,NA,NA,right,1694.09999999404,true,NA,NA,NA,NA,NA
D9MPYSbr,344m16ozllsw98pkhqhl4zt7rn1nev,3hwrjooet9fvc5fjgo39sdz5g4yesg,D9MPYSbr,2020-0188,2021-10-15,11:55:01,13:02:20,NA,incomplete,true,true,NA,0,8,NA,purple,n_s_010.jpg,NA,NA,pleasant,unpleasant,NA,NA,NA,NA,NA,right,1798.90000000596,true,NA,NA,NA,NA,NA
D9MPYSbr,344m16ozllsw98pkhqhl4zt7rn1nev,3hwrjooet9fvc5fjgo39sdz5g4yesg,D9MPYSbr,2020-0188,2021-10-15,11:55:01,13:02:20,NA,incomplete,true,true,NA,0,9,NA,purple,n_l_068.jpg,NA,NA,pleasant,unpleasant,NA,NA,NA,NA,NA,left,1663.79999999702,true,NA,NA,NA,NA,NA
D9MPYSbr,344m16ozllsw98pkhqhl4zt7rn1nev,3hwrjooet9fvc5fjgo39sdz5g4yesg,D9MPYSbr,2020-0188,2021-10-15,11:55:01,13:02:20,NA,incomplete,true,true,NA,0,10,NA,purple,m_s_097.jpg,NA,NA,pleasant,unpleasant,NA,NA,NA,NA,NA,right,1616.90000000596,true,NA,NA,NA,NA,NA
D9MPYSbr,344m16ozllsw98pkhqhl4zt7rn1nev,3hwrjooet9fvc5fjgo39sdz5g4yesg,D9MPYSbr,2020-0188,2021-10-15,11:55:01,13:02:20,NA,incomplete,true,true,NA,0,11,NA,purple,n_l_049.jpg,NA,NA,pleasant,unpleasant,NA,NA,NA,NA,NA,left,1192.10000000894,true,NA,NA,NA,NA,NA
D9MPYSbr,344m16ozllsw98pkhqhl4zt7rn1nev,3hwrjooet9fvc5fjgo39sdz5g4yesg,D9MPYSbr,2020-0188,2021-10-15,11:55:01,13:02:20,NA,incomplete,true,true,NA,0,12,NA,blue,m_s_056.jpg,NA,NA,pleasant,unpleasant,NA,NA,NA,NA,NA,right,1356.29999999702,true,NA,NA,NA,NA,NA
D9MPYSbr,344m16ozllsw98pkhqhl4zt7rn1nev,3hwrjooet9fvc5fjgo39sdz5g4yesg,D9MPYSbr,2020-0188,2021-10-15,11:55:01,13:02:20,NA,incomplete,true,true,NA,0,13,NA,blue,m_l_086.jpg,NA,NA,unpleasant,pleasant,NA,NA,NA,NA,NA,right,1336.79999999702,true,NA,NA,NA,NA,NA
D9MPYSbr,344m16ozllsw98pkhqhl4zt7rn1nev,3hwrjooet9fvc5fjgo39sdz5g4yesg,D9MPYSbr,2020-0188,2021-10-15,11:55:01,13:02:20,NA,incomplete,true,true,NA,0,14,NA,blue,m_s_078.jpg,NA,NA,pleasant,unpleasant,NA,NA,NA,NA,NA,left,1178.40000000596,true,NA,NA,NA,NA,NA
D9MPYSbr,344m16ozllsw98pkhqhl4zt7rn1nev,3hwrjooet9fvc5fjgo39sdz5g4yesg,D9MPYSbr,2020-0188,2021-10-15,11:55:01,13:02:20,NA,incomplete,true,true,NA,0,15,NA,blue,m_l_095.jpg,NA,NA,pleasant,unpleasant,NA,NA,NA,NA,NA,left,1901.79999999702,true,NA,NA,NA,NA,NA
D9MPYSbr,344m16ozllsw98pkhqhl4zt7rn1nev,3hwrjooet9fvc5fjgo39sdz5g4yesg,D9MPYSbr,2020-0188,2021-10-15,11:55:01,13:02:20,NA,incomplete,true,true,NA,0,16,NA,blue,n_s_095.jpg,NA,NA,pleasant,unpleasant,NA,NA,NA,NA,NA,left,1455.5,true,NA,NA,NA,NA,NA
D9MPYSbr,344m16ozllsw98pkhqhl4zt7rn1nev,3hwrjooet9fvc5fjgo39sdz5g4yesg,D9MPYSbr,2020-0188,2021-10-15,11:55:01,13:02:20,NA,incomplete,true,true,NA,0,17,NA,blue,m_l_050.jpg,NA,NA,pleasant,unpleasant,NA,NA,NA,NA,NA,right,1804,true,NA,NA,NA,NA,NA
D9MPYSbr,344m16ozllsw98pkhqhl4zt7rn1nev,3hwrjooet9fvc5fjgo39sdz5g4yesg,D9MPYSbr,2020-0188,2021-10-15,11:55:01,13:02:20,NA,incomplete,true,true,NA,0,18,NA,yellow,m_s_111.jpg,NA,NA,pleasant,unpleasant,NA,NA,NA,NA,NA,right,1032.90000000596,true,NA,NA,NA,NA,NA
D9MPYSbr,344m16ozllsw98pkhqhl4zt7rn1nev,3hwrjooet9fvc5fjgo39sdz5g4yesg,D9MPYSbr,2020-0188,2021-10-15,11:55:01,13:02:20,NA,incomplete,true,true,NA,0,19,NA,yellow,m_l_056.jpg,NA,NA,unpleasant,pleasant,NA,NA,NA,NA,NA,right,1068.90000000596,true,NA,NA,NA,NA,NA
D9MPYSbr,344m16ozllsw98pkhqhl4zt7rn1nev,3hwrjooet9fvc5fjgo39sdz5g4yesg,D9MPYSbr,2020-0188,2021-10-15,11:55:01,13:02:20,NA,incomplete,true,true,NA,0,20,NA,yellow,n_l_044.jpg,NA,NA,unpleasant,pleasant,NA,NA,NA,NA,NA,right,955.90000000596,true,NA,NA,NA,NA,NA
D9MPYSbr,344m16ozllsw98pkhqhl4zt7rn1nev,3hwrjooet9fvc5fjgo39sdz5g4yesg,D9MPYSbr,2020-0188,2021-10-15,11:55:01,13:02:20,NA,incomplete,true,true,NA,0,21,NA,yellow,m_s_060.jpg,NA,NA,unpleasant,pleasant,NA,NA,NA,NA,NA,right,1372.79999999702,true,NA,NA,NA,NA,NA
D9MPYSbr,344m16ozllsw98pkhqhl4zt7rn1nev,3hwrjooet9fvc5fjgo39sdz5g4yesg,D9MPYSbr,2020-0188,2021-10-15,11:55:01,13:02:20,NA,incomplete,true,true,NA,0,22,NA,yellow,m_s_013.jpg,NA,NA,pleasant,unpleasant,NA,NA,NA,NA,NA,left,1655.39999999106,true,NA,NA,NA,NA,NA
D9MPYSbr,344m16ozllsw98pkhqhl4zt7rn1nev,3hwrjooet9fvc5fjgo39sdz5g4yesg,D9MPYSbr,2020-0188,2021-10-15,11:55:01,13:02:20,NA,incomplete,true,true,NA,0,23,NA,yellow,m_l_091.jpg,NA,NA,pleasant,unpleasant,NA,NA,NA,NA,NA,right,1538.5,true,NA,NA,NA,NA,NA
D9MPYSbr,344m16ozllsw98pkhqhl4zt7rn1nev,3hwrjooet9fvc5fjgo39sdz5g4yesg,D9MPYSbr,2020-0188,2021-10-15,11:55:01,13:02:20,NA,incomplete,true,true,NA,0,24,NA,black,m_s_051.jpg,NA,NA,unpleasant,pleasant,NA,NA,NA,NA,NA,left,1857.70000000298,true,NA,NA,NA,NA,NA
D9MPYSbr,344m16ozllsw98pkhqhl4zt7rn1nev,3hwrjooet9fvc5fjgo39sdz5g4yesg,D9MPYSbr,2020-0188,2021-10-15,11:55:01,13:02:20,NA,incomplete,true,true,NA,0,25,NA,black,n_s_070.jpg,NA,NA,pleasant,unpleasant,NA,NA,NA,NA,NA,right,1867.5,true,NA,NA,NA,NA,NA
D9MPYSbr,344m16ozllsw98pkhqhl4zt7rn1nev,3hwrjooet9fvc5fjgo39sdz5g4yesg,D9MPYSbr,2020-0188,2021-10-15,11:55:01,13:02:20,NA,incomplete,true,true,NA,0,26,NA,black,n_s_022.jpg,NA,NA,unpleasant,pleasant,NA,NA,NA,NA,NA,left,1077.09999999404,true,NA,NA,NA,NA,NA
D9MPYSbr,344m16ozllsw98pkhqhl4zt7rn1nev,3hwrjooet9fvc5fjgo39sdz5g4yesg,D9MPYSbr,2020-0188,2021-10-15,11:55:01,13:02:20,NA,incomplete,true,true,NA,0,27,NA,black,n_s_104.jpg,NA,NA,pleasant,unpleasant,NA,NA,NA,NA,NA,right,1602.59999999404,true,NA,NA,NA,NA,NA
D9MPYSbr,344m16ozllsw98pkhqhl4zt7rn1nev,3hwrjooet9fvc5fjgo39sdz5g4yesg,D9MPYSbr,2020-0188,2021-10-15,11:55:01,13:02:20,NA,incomplete,true,true,NA,0,28,NA,black,m_s_102.jpg,NA,NA,unpleasant,pleasant,NA,NA,NA,NA,NA,right,1296,true,NA,NA,NA,NA,NA
D9MPYSbr,344m16ozllsw98pkhqhl4zt7rn1nev,3hwrjooet9fvc5fjgo39sdz5g4yesg,D9MPYSbr,2020-0188,2021-10-15,11:55:01,13:02:20,NA,incomplete,true,true,NA,0,29,NA,black,m_s_002.jpg,NA,NA,unpleasant,pleasant,NA,NA,NA,NA,NA,left,1141.90000000596,true,NA,NA,NA,NA,NA
D9MPYSbr,344m16ozllsw98pkhqhl4zt7rn1nev,3hwrjooet9fvc5fjgo39sdz5g4yesg,D9MPYSbr,2020-0188,2021-10-15,11:55:01,13:02:20,NA,incomplete,true,true,NA,0,30,NA,green,n_l_085.jpg,NA,NA,pleasant,unpleasant,NA,NA,NA,NA,NA,left,1490.5,true,NA,NA,NA,NA,NA
D9MPYSbr,344m16ozllsw98pkhqhl4zt7rn1nev,3hwrjooet9fvc5fjgo39sdz5g4yesg,D9MPYSbr,2020-0188,2021-10-15,11:55:01,13:02:20,NA,incomplete,true,true,NA,0,31,NA,green,m_l_065.jpg,NA,NA,unpleasant,pleasant,NA,NA,NA,NA,NA,right,1051,true,NA,NA,NA,NA,NA
D9MPYSbr,344m16ozllsw98pkhqhl4zt7rn1nev,3hwrjooet9fvc5fjgo39sdz5g4yesg,D9MPYSbr,2020-0188,2021-10-15,11:55:01,13:02:20,NA,incomplete,true,true,NA,0,32,NA,green,n_s_055.jpg,NA,NA,unpleasant,pleasant,NA,NA,NA,NA,NA,left,1223,true,NA,NA,NA,NA,NA
D9MPYSbr,344m16ozllsw98pkhqhl4zt7rn1nev,3hwrjooet9fvc5fjgo39sdz5g4yesg,D9MPYSbr,2020-0188,2021-10-15,11:55:01,13:02:20,NA,incomplete,true,true,NA,0,33,NA,green,n_l_032.jpg,NA,NA,pleasant,unpleasant,NA,NA,NA,NA,NA,right,1287,true,NA,NA,NA,NA,NA
D9MPYSbr,344m16ozllsw98pkhqhl4zt7rn1nev,3hwrjooet9fvc5fjgo39sdz5g4yesg,D9MPYSbr,2020-0188,2021-10-15,11:55:01,13:02:20,NA,incomplete,true,true,NA,0,34,NA,green,n_l_080.jpg,NA,NA,pleasant,unpleasant,NA,NA,NA,NA,NA,left,1027.79999999702,true,NA,NA,NA,NA,NA
D9MPYSbr,344m16ozllsw98pkhqhl4zt7rn1nev,3hwrjooet9fvc5fjgo39sdz5g4yesg,D9MPYSbr,2020-0188,2021-10-15,11:55:01,13:02:20,NA,incomplete,true,true,NA,0,35,NA,green,n_l_106.jpg,NA,NA,unpleasant,pleasant,NA,NA,NA,NA,NA,right,1110,true,NA,NA,NA,NA,NA
D9MPYSbr,344m16ozllsw98pkhqhl4zt7rn1nev,3hwrjooet9fvc5fjgo39sdz5g4yesg,D9MPYSbr,2020-0188,2021-10-15,11:55:01,13:02:20,NA,incomplete,true,NA,true,0,0,NA,NA,NA,right,present,NA,NA,m_s_002.jpg,black,n_s_070.jpg,black,within,NA,NaN,NA,right,4454.20000000298,1,1,2868.300000011921
D9MPYSbr,344m16ozllsw98pkhqhl4zt7rn1nev,3hwrjooet9fvc5fjgo39sdz5g4yesg,D9MPYSbr,2020-0188,2021-10-15,11:55:01,13:02:20,NA,incomplete,true,NA,true,0,1,NA,NA,NA,right,present,NA,NA,n_l_044.jpg,yellow,n_s_095.jpg,blue,between,NA,NaN,NA,right,4306.899999991059,1,2,1765.7000000029802
D9MPYSbr,344m16ozllsw98pkhqhl4zt7rn1nev,3hwrjooet9fvc5fjgo39sdz5g4yesg,D9MPYSbr,2020-0188,2021-10-15,11:55:01,13:02:20,NA,incomplete,true,NA,true,0,2,NA,NA,NA,left,present,NA,NA,m_l_065.jpg,green,n_l_106.jpg,green,within,NA,NaN,NA,left,3142.1000000089407,1,0,1238.4000000059605
D9MPYSbr,344m16ozllsw98pkhqhl4zt7rn1nev,3hwrjooet9fvc5fjgo39sdz5g4yesg,D9MPYSbr,2020-0188,2021-10-15,11:55:01,13:02:20,NA,incomplete,true,NA,true,0,3,NA,NA,NA,right,present,NA,NA,m_l_091.jpg,yellow,m_l_056.jpg,yellow,within,NA,NaN,NA,left,3254.5999999940395,0,0,1108.5
D9MPYSbr,344m16ozllsw98pkhqhl4zt7rn1nev,3hwrjooet9fvc5fjgo39sdz5g4yesg,D9MPYSbr,2020-0188,2021-10-15,11:55:01,13:02:20,NA,incomplete,true,NA,true,0,4,NA,NA,NA,left,absent,NA,NA,n_s_025.jpg,orange,n_s_010.jpg,purple,between,NA,NaN,NA,right,2672.6000000089407,0,2,3542.7999999970198
D9MPYSbr,344m16ozllsw98pkhqhl4zt7rn1nev,3hwrjooet9fvc5fjgo39sdz5g4yesg,D9MPYSbr,2020-0188,2021-10-15,11:55:01,13:02:20,NA,incomplete,true,NA,true,0,5,NA,NA,NA,right,absent,NA,NA,n_s_055.jpg,green,m_s_102.jpg,black,between,NA,NaN,NA,right,3046.2999999970198,1,2,1149.5
D9MPYSbr,344m16ozllsw98pkhqhl4zt7rn1nev,3hwrjooet9fvc5fjgo39sdz5g4yesg,D9MPYSbr,2020-0188,2021-10-15,11:55:01,13:02:20,NA,incomplete,true,NA,true,0,6,NA,NA,NA,left,present,NA,NA,m_s_106.jpg,purple,n_l_049.jpg,purple,within,NA,NaN,NA,left,4640.5999999940395,1,1,1481
D9MPYSbr,344m16ozllsw98pkhqhl4zt7rn1nev,3hwrjooet9fvc5fjgo39sdz5g4yesg,D9MPYSbr,2020-0188,2021-10-15,11:55:01,13:02:20,NA,incomplete,true,NA,true,0,7,NA,NA,NA,right,absent,NA,NA,n_s_022.jpg,black,m_s_013.jpg,yellow,between,NA,NaN,NA,right,4428.0999999940395,1,3,731.5
D9MPYSbr,344m16ozllsw98pkhqhl4zt7rn1nev,3hwrjooet9fvc5fjgo39sdz5g4yesg,D9MPYSbr,2020-0188,2021-10-15,11:55:01,13:02:20,NA,incomplete,true,NA,true,0,8,NA,NA,NA,right,absent,NA,NA,m_s_078.jpg,blue,m_s_097.jpg,purple,between,NA,NaN,NA,right,2899.7999999970198,1,2,1640.2999999970198
D9MPYSbr,344m16ozllsw98pkhqhl4zt7rn1nev,3hwrjooet9fvc5fjgo39sdz5g4yesg,D9MPYSbr,2020-0188,2021-10-15,11:55:01,13:02:20,NA,incomplete,true,NA,true,0,9,NA,NA,NA,left,present,NA,NA,m_l_086.jpg,blue,m_l_050.jpg,blue,within,NA,NaN,NA,left,2959.4000000059605,1,1,1291.5
D9MPYSbr,344m16ozllsw98pkhqhl4zt7rn1nev,3hwrjooet9fvc5fjgo39sdz5g4yesg,D9MPYSbr,2020-0188,2021-10-15,11:55:01,13:02:20,NA,incomplete,true,NA,true,0,10,NA,NA,NA,left,present,NA,NA,m_l_082.jpg,orange,m_s_034.jpg,orange,within,NA,NaN,NA,left,2861.7000000029802,1,0,886.8000000119209
D9MPYSbr,344m16ozllsw98pkhqhl4zt7rn1nev,3hwrjooet9fvc5fjgo39sdz5g4yesg,D9MPYSbr,2020-0188,2021-10-15,11:55:01,13:02:20,NA,incomplete,false,true,NA,1,0,NA,red,m_s_025.jpg,NA,NA,pleasant,unpleasant,NA,NA,NA,NA,NA,right,1323.79999999702,true,NA,NA,NA,NA,NA
D9MPYSbr,344m16ozllsw98pkhqhl4zt7rn1nev,3hwrjooet9fvc5fjgo39sdz5g4yesg,D9MPYSbr,2020-0188,2021-10-15,11:55:01,13:02:20,NA,incomplete,false,true,NA,1,1,NA,red,m_s_045.jpg,NA,NA,unpleasant,pleasant,NA,NA,NA,NA,NA,right,1206.09999999404,true,NA,NA,NA,NA,NA
D9MPYSbr,344m16ozllsw98pkhqhl4zt7rn1nev,3hwrjooet9fvc5fjgo39sdz5g4yesg,D9MPYSbr,2020-0188,2021-10-15,11:55:01,13:02:20,NA,incomplete,false,true,NA,1,2,NA,red,n_s_051.jpg,NA,NA,pleasant,unpleasant,NA,NA,NA,NA,NA,right,1884.89999999106,true,NA,NA,NA,NA,NA
D9MPYSbr,344m16ozllsw98pkhqhl4zt7rn1nev,3hwrjooet9fvc5fjgo39sdz5g4yesg,D9MPYSbr,2020-0188,2021-10-15,11:55:01,13:02:20,NA,incomplete,false,true,NA,1,3,NA,red,n_s_049.jpg,NA,NA,unpleasant,pleasant,NA,NA,NA,NA,NA,left,1423.30000001192,true,NA,NA,NA,NA,NA
D9MPYSbr,344m16ozllsw98pkhqhl4zt7rn1nev,3hwrjooet9fvc5fjgo39sdz5g4yesg,D9MPYSbr,2020-0188,2021-10-15,11:55:01,13:02:20,NA,incomplete,false,true,NA,1,4,NA,red,m_s_112.jpg,NA,NA,unpleasant,pleasant,NA,NA,NA,NA,NA,right,1838.40000000596,true,NA,NA,NA,NA,NA
D9MPYSbr,344m16ozllsw98pkhqhl4zt7rn1nev,3hwrjooet9fvc5fjgo39sdz5g4yesg,D9MPYSbr,2020-0188,2021-10-15,11:55:01,13:02:20,NA,incomplete,false,true,NA,1,5,NA,red,n_l_017.jpg,NA,NA,unpleasant,pleasant,NA,NA,NA,NA,NA,left,1891.59999999404,true,NA,NA,NA,NA,NA
D9MPYSbr,344m16ozllsw98pkhqhl4zt7rn1nev,3hwrjooet9fvc5fjgo39sdz5g4yesg,D9MPYSbr,2020-0188,2021-10-15,11:55:01,13:02:20,NA,incomplete,false,true,NA,1,6,NA,orange,m_l_113.jpg,NA,NA,unpleasant,pleasant,NA,NA,NA,NA,NA,right,1059,true,NA,NA,NA,NA,NA
D9MPYSbr,344m16ozllsw98pkhqhl4zt7rn1nev,3hwrjooet9fvc5fjgo39sdz5g4yesg,D9MPYSbr,2020-0188,2021-10-15,11:55:01,13:02:20,NA,incomplete,false,true,NA,1,7,NA,orange,n_s_075.jpg,NA,NA,unpleasant,pleasant,NA,NA,NA,NA,NA,right,989.90000000596,true,NA,NA,NA,NA,NA
D9MPYSbr,344m16ozllsw98pkhqhl4zt7rn1nev,3hwrjooet9fvc5fjgo39sdz5g4yesg,D9MPYSbr,2020-0188,2021-10-15,11:55:01,13:02:20,NA,incomplete,false,true,NA,1,8,NA,orange,n_s_068.jpg,NA,NA,unpleasant,pleasant,NA,NA,NA,NA,NA,left,1346.5,true,NA,NA,NA,NA,NA
D9MPYSbr,344m16ozllsw98pkhqhl4zt7rn1nev,3hwrjooet9fvc5fjgo39sdz5g4yesg,D9MPYSbr,2020-0188,2021-10-15,11:55:01,13:02:20,NA,incomplete,false,true,NA,1,9,NA,orange,n_s_018.jpg,NA,NA,pleasant,unpleasant,NA,NA,NA,NA,NA,left,1137.70000000298,true,NA,NA,NA,NA,NA
D9MPYSbr,344m16ozllsw98pkhqhl4zt7rn1nev,3hwrjooet9fvc5fjgo39sdz5g4yesg,D9MPYSbr,2020-0188,2021-10-15,11:55:01,13:02:20,NA,incomplete,false,true,NA,1,10,NA,orange,m_l_060.jpg,NA,NA,unpleasant,pleasant,NA,NA,NA,NA,NA,left,1199,true,NA,NA,NA,NA,NA
D9MPYSbr,344m16ozllsw98pkhqhl4zt7rn1nev,3hwrjooet9fvc5fjgo39sdz5g4yesg,D9MPYSbr,2020-0188,2021-10-15,11:55:01,13:02:20,NA,incomplete,false,true,NA,1,11,NA,orange,m_l_116.jpg,NA,NA,unpleasant,pleasant,NA,NA,NA,NA,NA,right,1091.89999999106,true,NA,NA,NA,NA,NA
D9MPYSbr,344m16ozllsw98pkhqhl4zt7rn1nev,3hwrjooet9fvc5fjgo39sdz5g4yesg,D9MPYSbr,2020-0188,2021-10-15,11:55:01,13:02:20,NA,incomplete,false,true,NA,1,12,NA,gray,n_s_074.jpg,NA,NA,pleasant,unpleasant,NA,NA,NA,NA,NA,right,1856,true,NA,NA,NA,NA,NA
D9MPYSbr,344m16ozllsw98pkhqhl4zt7rn1nev,3hwrjooet9fvc5fjgo39sdz5g4yesg,D9MPYSbr,2020-0188,2021-10-15,11:55:01,13:02:20,NA,incomplete,false,true,NA,1,13,NA,gray,m_l_066.jpg,NA,NA,pleasant,unpleasant,NA,NA,NA,NA,NA,left,1407,true,NA,NA,NA,NA,NA
D9MPYSbr,344m16ozllsw98pkhqhl4zt7rn1nev,3hwrjooet9fvc5fjgo39sdz5g4yesg,D9MPYSbr,2020-0188,2021-10-15,11:55:01,13:02:20,NA,incomplete,false,true,NA,1,14,NA,gray,n_s_080.jpg,NA,NA,pleasant,unpleasant,NA,NA,NA,NA,NA,left,993.09999999404,true,NA,NA,NA,NA,NA
D9MPYSbr,344m16ozllsw98pkhqhl4zt7rn1nev,3hwrjooet9fvc5fjgo39sdz5g4yesg,D9MPYSbr,2020-0188,2021-10-15,11:55:01,13:02:20,NA,incomplete,false,true,NA,1,15,NA,gray,n_l_008.jpg,NA,NA,unpleasant,pleasant,NA,NA,NA,NA,NA,right,1072.5,true,NA,NA,NA,NA,NA
D9MPYSbr,344m16ozllsw98pkhqhl4zt7rn1nev,3hwrjooet9fvc5fjgo39sdz5g4yesg,D9MPYSbr,2020-0188,2021-10-15,11:55:01,13:02:20,NA,incomplete,false,true,NA,1,16,NA,gray,m_l_102.jpg,NA,NA,pleasant,unpleasant,NA,NA,NA,NA,NA,left,1115.59999999404,true,NA,NA,NA,NA,NA
D9MPYSbr,344m16ozllsw98pkhqhl4zt7rn1nev,3hwrjooet9fvc5fjgo39sdz5g4yesg,D9MPYSbr,2020-0188,2021-10-15,11:55:01,13:02:20,NA,incomplete,false,true,NA,1,17,NA,gray,n_s_007.jpg,NA,NA,unpleasant,pleasant,NA,NA,NA,NA,NA,left,1531.20000000298,true,NA,NA,NA,NA,NA
D9MPYSbr,344m16ozllsw98pkhqhl4zt7rn1nev,3hwrjooet9fvc5fjgo39sdz5g4yesg,D9MPYSbr,2020-0188,2021-10-15,11:55:01,13:02:20,NA,incomplete,false,true,NA,1,18,NA,green,n_l_099.jpg,NA,NA,unpleasant,pleasant,NA,NA,NA,NA,NA,left,1476.39999999106,true,NA,NA,NA,NA,NA
D9MPYSbr,344m16ozllsw98pkhqhl4zt7rn1nev,3hwrjooet9fvc5fjgo39sdz5g4yesg,D9MPYSbr,2020-0188,2021-10-15,11:55:01,13:02:20,NA,incomplete,false,true,NA,1,19,NA,green,m_l_070.jpg,NA,NA,unpleasant,pleasant,NA,NA,NA,NA,NA,right,1147.90000000596,true,NA,NA,NA,NA,NA
D9MPYSbr,344m16ozllsw98pkhqhl4zt7rn1nev,3hwrjooet9fvc5fjgo39sdz5g4yesg,D9MPYSbr,2020-0188,2021-10-15,11:55:01,13:02:20,NA,incomplete,false,true,NA,1,20,NA,green,n_s_101.jpg,NA,NA,unpleasant,pleasant,NA,NA,NA,NA,NA,right,996.399999991059,true,NA,NA,NA,NA,NA
D9MPYSbr,344m16ozllsw98pkhqhl4zt7rn1nev,3hwrjooet9fvc5fjgo39sdz5g4yesg,D9MPYSbr,2020-0188,2021-10-15,11:55:01,13:02:20,NA,incomplete,false,true,NA,1,21,NA,green,n_s_058.jpg,NA,NA,pleasant,unpleasant,NA,NA,NA,NA,NA,left,1112.20000000298,true,NA,NA,NA,NA,NA
D9MPYSbr,344m16ozllsw98pkhqhl4zt7rn1nev,3hwrjooet9fvc5fjgo39sdz5g4yesg,D9MPYSbr,2020-0188,2021-10-15,11:55:01,13:02:20,NA,incomplete,false,true,NA,1,22,NA,green,m_s_084.jpg,NA,NA,pleasant,unpleasant,NA,NA,NA,NA,NA,left,1519.70000000298,true,NA,NA,NA,NA,NA
D9MPYSbr,344m16ozllsw98pkhqhl4zt7rn1nev,3hwrjooet9fvc5fjgo39sdz5g4yesg,D9MPYSbr,2020-0188,2021-10-15,11:55:01,13:02:20,NA,incomplete,false,true,NA,1,23,NA,green,m_l_020.jpg,NA,NA,unpleasant,pleasant,NA,NA,NA,NA,NA,left,1509.70000000298,true,NA,NA,NA,NA,NA
D9MPYSbr,344m16ozllsw98pkhqhl4zt7rn1nev,3hwrjooet9fvc5fjgo39sdz5g4yesg,D9MPYSbr,2020-0188,2021-10-15,11:55:01,13:02:20,NA,incomplete,false,true,NA,1,24,NA,brown,n_s_020.jpg,NA,NA,unpleasant,pleasant,NA,NA,NA,NA,NA,right,1906.60000000894,true,NA,NA,NA,NA,NA
D9MPYSbr,344m16ozllsw98pkhqhl4zt7rn1nev,3hwrjooet9fvc5fjgo39sdz5g4yesg,D9MPYSbr,2020-0188,2021-10-15,11:55:01,13:02:20,NA,incomplete,false,true,NA,1,25,NA,brown,n_l_051.jpg,NA,NA,unpleasant,pleasant,NA,NA,NA,NA,NA,right,1847.60000000894,true,NA,NA,NA,NA,NA
D9MPYSbr,344m16ozllsw98pkhqhl4zt7rn1nev,3hwrjooet9fvc5fjgo39sdz5g4yesg,D9MPYSbr,2020-0188,2021-10-15,11:55:01,13:02:20,NA,incomplete,false,true,NA,1,26,NA,brown,n_s_071.jpg,NA,NA,unpleasant,pleasant,NA,NA,NA,NA,NA,right,2151.60000000894,true,NA,NA,NA,NA,NA
D9MPYSbr,344m16ozllsw98pkhqhl4zt7rn1nev,3hwrjooet9fvc5fjgo39sdz5g4yesg,D9MPYSbr,2020-0188,2021-10-15,11:55:01,13:02:20,NA,incomplete,false,true,NA,1,27,NA,brown,m_s_040.jpg,NA,NA,unpleasant,pleasant,NA,NA,NA,NA,NA,right,1716.89999999106,true,NA,NA,NA,NA,NA
D9MPYSbr,344m16ozllsw98pkhqhl4zt7rn1nev,3hwrjooet9fvc5fjgo39sdz5g4yesg,D9MPYSbr,2020-0188,2021-10-15,11:55:01,13:02:20,NA,incomplete,false,true,NA,1,28,NA,brown,m_s_093.jpg,NA,NA,pleasant,unpleasant,NA,NA,NA,NA,NA,right,2243.5,true,NA,NA,NA,NA,NA
D9MPYSbr,344m16ozllsw98pkhqhl4zt7rn1nev,3hwrjooet9fvc5fjgo39sdz5g4yesg,D9MPYSbr,2020-0188,2021-10-15,11:55:01,13:02:20,NA,incomplete,false,true,NA,1,29,NA,brown,m_l_117.jpg,NA,NA,unpleasant,pleasant,NA,NA,NA,NA,NA,left,1260.40000000596,true,NA,NA,NA,NA,NA
D9MPYSbr,344m16ozllsw98pkhqhl4zt7rn1nev,3hwrjooet9fvc5fjgo39sdz5g4yesg,D9MPYSbr,2020-0188,2021-10-15,11:55:01,13:02:20,NA,incomplete,false,true,NA,1,30,NA,blue,n_s_013.jpg,NA,NA,unpleasant,pleasant,NA,NA,NA,NA,NA,right,2012,true,NA,NA,NA,NA,NA
D9MPYSbr,344m16ozllsw98pkhqhl4zt7rn1nev,3hwrjooet9fvc5fjgo39sdz5g4yesg,D9MPYSbr,2020-0188,2021-10-15,11:55:01,13:02:20,NA,incomplete,false,true,NA,1,31,NA,blue,n_s_012.jpg,NA,NA,pleasant,unpleasant,NA,NA,NA,NA,NA,left,1861.90000000596,true,NA,NA,NA,NA,NA
D9MPYSbr,344m16ozllsw98pkhqhl4zt7rn1nev,3hwrjooet9fvc5fjgo39sdz5g4yesg,D9MPYSbr,2020-0188,2021-10-15,11:55:01,13:02:20,NA,incomplete,false,true,NA,1,32,NA,blue,m_l_069.jpg,NA,NA,unpleasant,pleasant,NA,NA,NA,NA,NA,left,1252.79999999702,true,NA,NA,NA,NA,NA
D9MPYSbr,344m16ozllsw98pkhqhl4zt7rn1nev,3hwrjooet9fvc5fjgo39sdz5g4yesg,D9MPYSbr,2020-0188,2021-10-15,11:55:01,13:02:20,NA,incomplete,false,true,NA,1,33,NA,blue,n_s_019.jpg,NA,NA,pleasant,unpleasant,NA,NA,NA,NA,NA,right,1034.79999999702,true,NA,NA,NA,NA,NA
D9MPYSbr,344m16ozllsw98pkhqhl4zt7rn1nev,3hwrjooet9fvc5fjgo39sdz5g4yesg,D9MPYSbr,2020-0188,2021-10-15,11:55:01,13:02:20,NA,incomplete,false,true,NA,1,34,NA,blue,m_l_024.jpg,NA,NA,pleasant,unpleasant,NA,NA,NA,NA,NA,right,1502.5,true,NA,NA,NA,NA,NA
D9MPYSbr,344m16ozllsw98pkhqhl4zt7rn1nev,3hwrjooet9fvc5fjgo39sdz5g4yesg,D9MPYSbr,2020-0188,2021-10-15,11:55:01,13:02:20,NA,incomplete,false,true,NA,1,35,NA,blue,m_s_018.jpg,NA,NA,pleasant,unpleasant,NA,NA,NA,NA,NA,right,1236.90000000596,true,NA,NA,NA,NA,NA
D9MPYSbr,344m16ozllsw98pkhqhl4zt7rn1nev,3hwrjooet9fvc5fjgo39sdz5g4yesg,D9MPYSbr,2020-0188,2021-10-15,11:55:01,13:02:20,NA,incomplete,false,NA,true,1,0,NA,NA,NA,right,present,NA,NA,n_s_007.jpg,gray,m_l_066.jpg,gray,within,NA,NaN,NA,left,2904.2000000029802,0,2,1370.9000000059605
D9MPYSbr,344m16ozllsw98pkhqhl4zt7rn1nev,3hwrjooet9fvc5fjgo39sdz5g4yesg,D9MPYSbr,2020-0188,2021-10-15,11:55:01,13:02:20,NA,incomplete,false,NA,true,1,1,NA,NA,NA,right,present,NA,NA,m_l_116.jpg,orange,n_s_075.jpg,orange,within,NA,NaN,NA,right,3970.5,1,1,1577.2000000029802
D9MPYSbr,344m16ozllsw98pkhqhl4zt7rn1nev,3hwrjooet9fvc5fjgo39sdz5g4yesg,D9MPYSbr,2020-0188,2021-10-15,11:55:01,13:02:20,NA,incomplete,false,NA,true,1,2,NA,NA,NA,right,present,NA,NA,n_s_068.jpg,orange,m_s_112.jpg,red,between,NA,NaN,NA,right,2563,1,2,1217.5
D9MPYSbr,344m16ozllsw98pkhqhl4zt7rn1nev,3hwrjooet9fvc5fjgo39sdz5g4yesg,D9MPYSbr,2020-0188,2021-10-15,11:55:01,13:02:20,NA,incomplete,false,NA,true,1,3,NA,NA,NA,right,present,NA,NA,n_s_071.jpg,brown,m_s_084.jpg,green,between,NA,NaN,NA,left,3394.6000000089407,0,0,4769.70000000298
D9MPYSbr,344m16ozllsw98pkhqhl4zt7rn1nev,3hwrjooet9fvc5fjgo39sdz5g4yesg,D9MPYSbr,2020-0188,2021-10-15,11:55:01,13:02:20,NA,incomplete,false,NA,true,1,4,NA,NA,NA,left,present,NA,NA,m_l_060.jpg,orange,n_s_080.jpg,gray,between,NA,NaN,NA,right,2226,0,2,1522.2000000029802
D9MPYSbr,344m16ozllsw98pkhqhl4zt7rn1nev,3hwrjooet9fvc5fjgo39sdz5g4yesg,D9MPYSbr,2020-0188,2021-10-15,11:55:01,13:02:20,NA,incomplete,false,NA,true,1,5,NA,NA,NA,left,present,NA,NA,m_s_045.jpg,red,n_l_017.jpg,red,within,NA,NaN,NA,left,2320.7999999970198,1,0,1917.199999988079
D9MPYSbr,344m16ozllsw98pkhqhl4zt7rn1nev,3hwrjooet9fvc5fjgo39sdz5g4yesg,D9MPYSbr,2020-0188,2021-10-15,11:55:01,13:02:20,NA,incomplete,false,NA,true,1,6,NA,NA,NA,left,present,NA,NA,n_l_051.jpg,brown,m_l_117.jpg,brown,within,NA,NaN,NA,left,1739.699999988079,1,1,1569.2000000029802
D9MPYSbr,344m16ozllsw98pkhqhl4zt7rn1nev,3hwrjooet9fvc5fjgo39sdz5g4yesg,D9MPYSbr,2020-0188,2021-10-15,11:55:01,13:02:20,NA,incomplete,false,NA,true,1,7,NA,NA,NA,left,present,NA,NA,m_l_070.jpg,green,m_l_020.jpg,green,within,NA,NaN,NA,left,1859.300000011921,1,1,811.3000000119209
D9MPYSbr,344m16ozllsw98pkhqhl4zt7rn1nev,3hwrjooet9fvc5fjgo39sdz5g4yesg,D9MPYSbr,2020-0188,2021-10-15,11:55:01,13:02:20,NA,incomplete,false,NA,true,1,8,NA,NA,NA,left,present,NA,NA,n_s_012.jpg,blue,m_s_018.jpg,blue,within,NA,NaN,NA,left,2444.3999999910593,1,0,3252.300000011921
D9MPYSbr,344m16ozllsw98pkhqhl4zt7rn1nev,3hwrjooet9fvc5fjgo39sdz5g4yesg,D9MPYSbr,2020-0188,2021-10-15,11:55:01,13:02:20,NA,incomplete,false,NA,true,1,9,NA,NA,NA,right,present,NA,NA,m_l_069.jpg,blue,m_s_093.jpg,brown,between,NA,NaN,NA,right,1988.5,1,2,1036.2000000029802
D9MPYSbr,344m16ozllsw98pkhqhl4zt7rn1nev,3hwrjooet9fvc5fjgo39sdz5g4yesg,D9MPYSbr,2020-0188,2021-10-15,11:55:01,13:02:20,NA,incomplete,false,NA,true,1,10,NA,NA,NA,right,present,NA,NA,n_s_101.jpg,green,m_l_102.jpg,gray,between,NA,NaN,NA,left,2115.5,0,3,1988.2999999970198
D9MPYSbr,344m16ozllsw98pkhqhl4zt7rn1nev,3hwrjooet9fvc5fjgo39sdz5g4yesg,D9MPYSbr,2020-0188,2021-10-15,11:55:01,13:02:20,NA,incomplete,false,true,NA,2,0,NA,red,n_l_011.jpg,NA,NA,pleasant,unpleasant,NA,NA,NA,NA,NA,right,2120.89999999106,true,NA,NA,NA,NA,NA
D9MPYSbr,344m16ozllsw98pkhqhl4zt7rn1nev,3hwrjooet9fvc5fjgo39sdz5g4yesg,D9MPYSbr,2020-0188,2021-10-15,11:55:01,13:02:20,NA,incomplete,false,true,NA,2,1,NA,red,m_s_109.jpg,NA,NA,unpleasant,pleasant,NA,NA,NA,NA,NA,right,1623.90000000596,true,NA,NA,NA,NA,NA
D9MPYSbr,344m16ozllsw98pkhqhl4zt7rn1nev,3hwrjooet9fvc5fjgo39sdz5g4yesg,D9MPYSbr,2020-0188,2021-10-15,11:55:01,13:02:20,NA,incomplete,false,true,NA,2,2,NA,red,n_s_114.jpg,NA,NA,unpleasant,pleasant,NA,NA,NA,NA,NA,left,1092.39999999106,true,NA,NA,NA,NA,NA
D9MPYSbr,344m16ozllsw98pkhqhl4zt7rn1nev,3hwrjooet9fvc5fjgo39sdz5g4yesg,D9MPYSbr,2020-0188,2021-10-15,11:55:01,13:02:20,NA,incomplete,false,true,NA,2,3,NA,red,n_l_002.jpg,NA,NA,unpleasant,pleasant,NA,NA,NA,NA,NA,right,1036.70000000298,true,NA,NA,NA,NA,NA
D9MPYSbr,344m16ozllsw98pkhqhl4zt7rn1nev,3hwrjooet9fvc5fjgo39sdz5g4yesg,D9MPYSbr,2020-0188,2021-10-15,11:55:01,13:02:20,NA,incomplete,false,true,NA,2,4,NA,red,n_l_055.jpg,NA,NA,unpleasant,pleasant,NA,NA,NA,NA,NA,right,1733.40000000596,true,NA,NA,NA,NA,NA
D9MPYSbr,344m16ozllsw98pkhqhl4zt7rn1nev,3hwrjooet9fvc5fjgo39sdz5g4yesg,D9MPYSbr,2020-0188,2021-10-15,11:55:01,13:02:20,NA,incomplete,false,true,NA,2,5,NA,red,m_l_072.jpg,NA,NA,unpleasant,pleasant,NA,NA,NA,NA,NA,right,1014.39999999106,true,NA,NA,NA,NA,NA
D9MPYSbr,344m16ozllsw98pkhqhl4zt7rn1nev,3hwrjooet9fvc5fjgo39sdz5g4yesg,D9MPYSbr,2020-0188,2021-10-15,11:55:01,13:02:20,NA,incomplete,false,true,NA,2,6,NA,green,n_l_088.jpg,NA,NA,unpleasant,pleasant,NA,NA,NA,NA,NA,left,1324,true,NA,NA,NA,NA,NA
D9MPYSbr,344m16ozllsw98pkhqhl4zt7rn1nev,3hwrjooet9fvc5fjgo39sdz5g4yesg,D9MPYSbr,2020-0188,2021-10-15,11:55:01,13:02:20,NA,incomplete,false,true,NA,2,7,NA,green,n_l_033.jpg,NA,NA,pleasant,unpleasant,NA,NA,NA,NA,NA,left,1585.79999999702,true,NA,NA,NA,NA,NA
D9MPYSbr,344m16ozllsw98pkhqhl4zt7rn1nev,3hwrjooet9fvc5fjgo39sdz5g4yesg,D9MPYSbr,2020-0188,2021-10-15,11:55:01,13:02:20,NA,incomplete,false,true,NA,2,8,NA,green,n_l_056.jpg,NA,NA,unpleasant,pleasant,NA,NA,NA,NA,NA,left,2307.70000000298,true,NA,NA,NA,NA,NA
D9MPYSbr,344m16ozllsw98pkhqhl4zt7rn1nev,3hwrjooet9fvc5fjgo39sdz5g4yesg,D9MPYSbr,2020-0188,2021-10-15,11:55:01,13:02:20,NA,incomplete,false,true,NA,2,9,NA,green,n_l_092.jpg,NA,NA,unpleasant,pleasant,NA,NA,NA,NA,NA,right,1121.70000000298,true,NA,NA,NA,NA,NA
D9MPYSbr,344m16ozllsw98pkhqhl4zt7rn1nev,3hwrjooet9fvc5fjgo39sdz5g4yesg,D9MPYSbr,2020-0188,2021-10-15,11:55:01,13:02:20,NA,incomplete,false,true,NA,2,10,NA,green,n_l_113.jpg,NA,NA,unpleasant,pleasant,NA,NA,NA,NA,NA,left,1134.09999999404,true,NA,NA,NA,NA,NA
D9MPYSbr,344m16ozllsw98pkhqhl4zt7rn1nev,3hwrjooet9fvc5fjgo39sdz5g4yesg,D9MPYSbr,2020-0188,2021-10-15,11:55:01,13:02:20,NA,incomplete,false,true,NA,2,11,NA,green,n_l_102.jpg,NA,NA,pleasant,unpleasant,NA,NA,NA,NA,NA,left,1307.89999999106,true,NA,NA,NA,NA,NA
D9MPYSbr,344m16ozllsw98pkhqhl4zt7rn1nev,3hwrjooet9fvc5fjgo39sdz5g4yesg,D9MPYSbr,2020-0188,2021-10-15,11:55:01,13:02:20,NA,incomplete,false,true,NA,2,12,NA,black,n_l_091.jpg,NA,NA,pleasant,unpleasant,NA,NA,NA,NA,NA,left,1080.60000000894,true,NA,NA,NA,NA,NA
D9MPYSbr,344m16ozllsw98pkhqhl4zt7rn1nev,3hwrjooet9fvc5fjgo39sdz5g4yesg,D9MPYSbr,2020-0188,2021-10-15,11:55:01,13:02:20,NA,incomplete,false,true,NA,2,13,NA,black,n_s_083.jpg,NA,NA,unpleasant,pleasant,NA,NA,NA,NA,NA,right,1298.59999999404,true,NA,NA,NA,NA,NA
D9MPYSbr,344m16ozllsw98pkhqhl4zt7rn1nev,3hwrjooet9fvc5fjgo39sdz5g4yesg,D9MPYSbr,2020-0188,2021-10-15,11:55:01,13:02:20,NA,incomplete,false,true,NA,2,14,NA,black,m_l_092.jpg,NA,NA,pleasant,unpleasant,NA,NA,NA,NA,NA,right,1249.5,true,NA,NA,NA,NA,NA
D9MPYSbr,344m16ozllsw98pkhqhl4zt7rn1nev,3hwrjooet9fvc5fjgo39sdz5g4yesg,D9MPYSbr,2020-0188,2021-10-15,11:55:01,13:02:20,NA,incomplete,false,true,NA,2,15,NA,black,m_l_039.jpg,NA,NA,pleasant,unpleasant,NA,NA,NA,NA,NA,left,1024.90000000596,true,NA,NA,NA,NA,NA
D9MPYSbr,344m16ozllsw98pkhqhl4zt7rn1nev,3hwrjooet9fvc5fjgo39sdz5g4yesg,D9MPYSbr,2020-0188,2021-10-15,11:55:01,13:02:20,NA,incomplete,false,true,NA,2,16,NA,black,m_s_092.jpg,NA,NA,unpleasant,pleasant,NA,NA,NA,NA,NA,right,1466.29999999702,true,NA,NA,NA,NA,NA
D9MPYSbr,344m16ozllsw98pkhqhl4zt7rn1nev,3hwrjooet9fvc5fjgo39sdz5g4yesg,D9MPYSbr,2020-0188,2021-10-15,11:55:01,13:02:20,NA,incomplete,false,true,NA,2,17,NA,black,m_l_009.jpg,NA,NA,unpleasant,pleasant,NA,NA,NA,NA,NA,right,1085.79999999702,true,NA,NA,NA,NA,NA
D9MPYSbr,344m16ozllsw98pkhqhl4zt7rn1nev,3hwrjooet9fvc5fjgo39sdz5g4yesg,D9MPYSbr,2020-0188,2021-10-15,11:55:01,13:02:20,NA,incomplete,false,true,NA,2,18,NA,gray,m_l_054.jpg,NA,NA,unpleasant,pleasant,NA,NA,NA,NA,NA,left,1216.20000000298,true,NA,NA,NA,NA,NA
D9MPYSbr,344m16ozllsw98pkhqhl4zt7rn1nev,3hwrjooet9fvc5fjgo39sdz5g4yesg,D9MPYSbr,2020-0188,2021-10-15,11:55:01,13:02:20,NA,incomplete,false,true,NA,2,19,NA,gray,n_s_029.jpg,NA,NA,pleasant,unpleasant,NA,NA,NA,NA,NA,right,1323.40000000596,true,NA,NA,NA,NA,NA
D9MPYSbr,344m16ozllsw98pkhqhl4zt7rn1nev,3hwrjooet9fvc5fjgo39sdz5g4yesg,D9MPYSbr,2020-0188,2021-10-15,11:55:01,13:02:20,NA,incomplete,false,true,NA,2,20,NA,gray,n_s_106.jpg,NA,NA,pleasant,unpleasant,NA,NA,NA,NA,NA,left,1410.89999999106,true,NA,NA,NA,NA,NA
D9MPYSbr,344m16ozllsw98pkhqhl4zt7rn1nev,3hwrjooet9fvc5fjgo39sdz5g4yesg,D9MPYSbr,2020-0188,2021-10-15,11:55:01,13:02:20,NA,incomplete,false,true,NA,2,21,NA,gray,m_l_042.jpg,NA,NA,pleasant,unpleasant,NA,NA,NA,NA,NA,left,1643.40000000596,true,NA,NA,NA,NA,NA
D9MPYSbr,344m16ozllsw98pkhqhl4zt7rn1nev,3hwrjooet9fvc5fjgo39sdz5g4yesg,D9MPYSbr,2020-0188,2021-10-15,11:55:01,13:02:20,NA,incomplete,false,true,NA,2,22,NA,gray,n_l_104.jpg,NA,NA,unpleasant,pleasant,NA,NA,NA,NA,NA,right,1354.69999998808,true,NA,NA,NA,NA,NA
D9MPYSbr,344m16ozllsw98pkhqhl4zt7rn1nev,3hwrjooet9fvc5fjgo39sdz5g4yesg,D9MPYSbr,2020-0188,2021-10-15,11:55:01,13:02:20,NA,incomplete,false,true,NA,2,23,NA,gray,m_l_021.jpg,NA,NA,pleasant,unpleasant,NA,NA,NA,NA,NA,left,1254.60000000894,true,NA,NA,NA,NA,NA
D9MPYSbr,344m16ozllsw98pkhqhl4zt7rn1nev,3hwrjooet9fvc5fjgo39sdz5g4yesg,D9MPYSbr,2020-0188,2021-10-15,11:55:01,13:02:20,NA,incomplete,false,true,NA,2,24,NA,blue,n_s_103.jpg,NA,NA,unpleasant,pleasant,NA,NA,NA,NA,NA,left,1159.30000001192,true,NA,NA,NA,NA,NA
D9MPYSbr,344m16ozllsw98pkhqhl4zt7rn1nev,3hwrjooet9fvc5fjgo39sdz5g4yesg,D9MPYSbr,2020-0188,2021-10-15,11:55:01,13:02:20,NA,incomplete,false,true,NA,2,25,NA,blue,m_l_079.jpg,NA,NA,pleasant,unpleasant,NA,NA,NA,NA,NA,left,1160.90000000596,true,NA,NA,NA,NA,NA
D9MPYSbr,344m16ozllsw98pkhqhl4zt7rn1nev,3hwrjooet9fvc5fjgo39sdz5g4yesg,D9MPYSbr,2020-0188,2021-10-15,11:55:01,13:02:20,NA,incomplete,false,true,NA,2,26,NA,blue,n_s_061.jpg,NA,NA,unpleasant,pleasant,NA,NA,NA,NA,NA,left,1710.09999999404,true,NA,NA,NA,NA,NA
D9MPYSbr,344m16ozllsw98pkhqhl4zt7rn1nev,3hwrjooet9fvc5fjgo39sdz5g4yesg,D9MPYSbr,2020-0188,2021-10-15,11:55:01,13:02:20,NA,incomplete,false,true,NA,2,27,NA,blue,n_s_048.jpg,NA,NA,unpleasant,pleasant,NA,NA,NA,NA,NA,right,1027,true,NA,NA,NA,NA,NA
D9MPYSbr,344m16ozllsw98pkhqhl4zt7rn1nev,3hwrjooet9fvc5fjgo39sdz5g4yesg,D9MPYSbr,2020-0188,2021-10-15,11:55:01,13:02:20,NA,incomplete,false,true,NA,2,28,NA,blue,n_s_054.jpg,NA,NA,unpleasant,pleasant,NA,NA,NA,NA,NA,right,1699.90000000596,true,NA,NA,NA,NA,NA
D9MPYSbr,344m16ozllsw98pkhqhl4zt7rn1nev,3hwrjooet9fvc5fjgo39sdz5g4yesg,D9MPYSbr,2020-0188,2021-10-15,11:55:01,13:02:20,NA,incomplete,false,true,NA,2,29,NA,blue,n_l_048.jpg,NA,NA,unpleasant,pleasant,NA,NA,NA,NA,NA,left,1200.90000000596,true,NA,NA,NA,NA,NA
D9MPYSbr,344m16ozllsw98pkhqhl4zt7rn1nev,3hwrjooet9fvc5fjgo39sdz5g4yesg,D9MPYSbr,2020-0188,2021-10-15,11:55:01,13:02:20,NA,incomplete,false,true,NA,2,30,NA,brown,n_s_109.jpg,NA,NA,pleasant,unpleasant,NA,NA,NA,NA,NA,left,2586.40000000596,true,NA,NA,NA,NA,NA
D9MPYSbr,344m16ozllsw98pkhqhl4zt7rn1nev,3hwrjooet9fvc5fjgo39sdz5g4yesg,D9MPYSbr,2020-0188,2021-10-15,11:55:01,13:02:20,NA,incomplete,false,true,NA,2,31,NA,brown,m_s_062.jpg,NA,NA,pleasant,unpleasant,NA,NA,NA,NA,NA,right,1296.29999999702,true,NA,NA,NA,NA,NA
D9MPYSbr,344m16ozllsw98pkhqhl4zt7rn1nev,3hwrjooet9fvc5fjgo39sdz5g4yesg,D9MPYSbr,2020-0188,2021-10-15,11:55:01,13:02:20,NA,incomplete,false,true,NA,2,32,NA,brown,m_l_099.jpg,NA,NA,unpleasant,pleasant,NA,NA,NA,NA,NA,left,1284.90000000596,true,NA,NA,NA,NA,NA
D9MPYSbr,344m16ozllsw98pkhqhl4zt7rn1nev,3hwrjooet9fvc5fjgo39sdz5g4yesg,D9MPYSbr,2020-0188,2021-10-15,11:55:01,13:02:20,NA,incomplete,false,true,NA,2,33,NA,brown,n_s_082.jpg,NA,NA,pleasant,unpleasant,NA,NA,NA,NA,NA,left,1866.79999999702,true,NA,NA,NA,NA,NA
D9MPYSbr,344m16ozllsw98pkhqhl4zt7rn1nev,3hwrjooet9fvc5fjgo39sdz5g4yesg,D9MPYSbr,2020-0188,2021-10-15,11:55:01,13:02:20,NA,incomplete,false,true,NA,2,34,NA,brown,m_s_009.jpg,NA,NA,pleasant,unpleasant,NA,NA,NA,NA,NA,right,1709.90000000596,true,NA,NA,NA,NA,NA
D9MPYSbr,344m16ozllsw98pkhqhl4zt7rn1nev,3hwrjooet9fvc5fjgo39sdz5g4yesg,D9MPYSbr,2020-0188,2021-10-15,11:55:01,13:02:20,NA,incomplete,false,true,NA,2,35,NA,brown,m_l_100.jpg,NA,NA,unpleasant,pleasant,NA,NA,NA,NA,NA,right,1608.90000000596,true,NA,NA,NA,NA,NA
D9MPYSbr,344m16ozllsw98pkhqhl4zt7rn1nev,3hwrjooet9fvc5fjgo39sdz5g4yesg,D9MPYSbr,2020-0188,2021-10-15,11:55:01,13:02:20,NA,incomplete,false,NA,true,2,0,NA,NA,NA,left,absent,NA,NA,m_l_079.jpg,blue,n_l_048.jpg,blue,within,NA,NaN,NA,left,2026.3999999910593,1,2,1428.7000000029802
D9MPYSbr,344m16ozllsw98pkhqhl4zt7rn1nev,3hwrjooet9fvc5fjgo39sdz5g4yesg,D9MPYSbr,2020-0188,2021-10-15,11:55:01,13:02:20,NA,incomplete,false,NA,true,2,1,NA,NA,NA,left,absent,NA,NA,n_s_083.jpg,black,m_l_009.jpg,black,within,NA,NaN,NA,right,2646.5999999940395,0,2,956.7999999970198
D9MPYSbr,344m16ozllsw98pkhqhl4zt7rn1nev,3hwrjooet9fvc5fjgo39sdz5g4yesg,D9MPYSbr,2020-0188,2021-10-15,11:55:01,13:02:20,NA,incomplete,false,NA,true,2,2,NA,NA,NA,right,absent,NA,NA,m_l_099.jpg,brown,n_s_054.jpg,blue,between,NA,NaN,NA,right,1556.8999999910593,1,2,1098.7999999970198
D9MPYSbr,344m16ozllsw98pkhqhl4zt7rn1nev,3hwrjooet9fvc5fjgo39sdz5g4yesg,D9MPYSbr,2020-0188,2021-10-15,11:55:01,13:02:20,NA,incomplete,false,NA,true,2,3,NA,NA,NA,left,absent,NA,NA,n_l_104.jpg,gray,n_s_061.jpg,blue,between,NA,NaN,NA,right,1451.7000000029802,0,3,1140.5
D9MPYSbr,344m16ozllsw98pkhqhl4zt7rn1nev,3hwrjooet9fvc5fjgo39sdz5g4yesg,D9MPYSbr,2020-0188,2021-10-15,11:55:01,13:02:20,NA,incomplete,false,NA,true,2,4,NA,NA,NA,right,absent,NA,NA,m_l_100.jpg,brown,m_s_062.jpg,brown,within,NA,NaN,NA,left,2027.3999999910593,0,1,1012.3999999910593
D9MPYSbr,344m16ozllsw98pkhqhl4zt7rn1nev,3hwrjooet9fvc5fjgo39sdz5g4yesg,D9MPYSbr,2020-0188,2021-10-15,11:55:01,13:02:20,NA,incomplete,false,NA,true,2,5,NA,NA,NA,right,absent,NA,NA,n_l_056.jpg,green,n_l_055.jpg,red,between,NA,NaN,NA,right,2324.2999999970198,1,1,2059.9000000059605
D9MPYSbr,344m16ozllsw98pkhqhl4zt7rn1nev,3hwrjooet9fvc5fjgo39sdz5g4yesg,D9MPYSbr,2020-0188,2021-10-15,11:55:01,13:02:20,NA,incomplete,false,NA,true,2,6,NA,NA,NA,right,absent,NA,NA,n_s_106.jpg,gray,m_s_092.jpg,black,between,NA,NaN,NA,right,2028,1,3,883.7000000029802
D9MPYSbr,344m16ozllsw98pkhqhl4zt7rn1nev,3hwrjooet9fvc5fjgo39sdz5g4yesg,D9MPYSbr,2020-0188,2021-10-15,11:55:01,13:02:20,NA,incomplete,false,NA,true,2,7,NA,NA,NA,right,absent,NA,NA,m_l_092.jpg,black,n_l_113.jpg,green,between,NA,NaN,NA,left,1596.5,0,1,1116.0999999940395
D9MPYSbr,344m16ozllsw98pkhqhl4zt7rn1nev,3hwrjooet9fvc5fjgo39sdz5g4yesg,D9MPYSbr,2020-0188,2021-10-15,11:55:01,13:02:20,NA,incomplete,false,NA,true,2,8,NA,NA,NA,right,absent,NA,NA,m_l_072.jpg,red,m_s_109.jpg,red,within,NA,NaN,NA,right,3604.300000011921,1,3,1796.7000000029802
D9MPYSbr,344m16ozllsw98pkhqhl4zt7rn1nev,3hwrjooet9fvc5fjgo39sdz5g4yesg,D9MPYSbr,2020-0188,2021-10-15,11:55:01,13:02:20,NA,incomplete,false,NA,true,2,9,NA,NA,NA,right,absent,NA,NA,m_l_021.jpg,gray,n_s_029.jpg,gray,within,NA,NaN,NA,left,2860.0999999940395,0,2,1523
D9MPYSbr,344m16ozllsw98pkhqhl4zt7rn1nev,3hwrjooet9fvc5fjgo39sdz5g4yesg,D9MPYSbr,2020-0188,2021-10-15,11:55:01,13:02:20,NA,incomplete,false,NA,true,2,10,NA,NA,NA,left,absent,NA,NA,n_l_033.jpg,green,n_l_102.jpg,green,within,NA,NaN,NA,right,2539.8999999910593,0,1,2259.2999999970198
D9MPYSbr,344m16ozllsw98pkhqhl4zt7rn1nev,3hwrjooet9fvc5fjgo39sdz5g4yesg,D9MPYSbr,2020-0188,2021-10-15,11:55:01,13:02:20,NA,incomplete,false,true,NA,3,0,NA,white,n_l_028.jpg,NA,NA,unpleasant,pleasant,NA,NA,NA,NA,NA,right,2175.40000000596,true,NA,NA,NA,NA,NA
D9MPYSbr,344m16ozllsw98pkhqhl4zt7rn1nev,3hwrjooet9fvc5fjgo39sdz5g4yesg,D9MPYSbr,2020-0188,2021-10-15,11:55:01,13:02:20,NA,incomplete,false,true,NA,3,1,NA,white,m_s_043.jpg,NA,NA,pleasant,unpleasant,NA,NA,NA,NA,NA,left,2255.90000000596,true,NA,NA,NA,NA,NA
D9MPYSbr,344m16ozllsw98pkhqhl4zt7rn1nev,3hwrjooet9fvc5fjgo39sdz5g4yesg,D9MPYSbr,2020-0188,2021-10-15,11:55:01,13:02:20,NA,incomplete,false,true,NA,3,2,NA,white,n_l_071.jpg,NA,NA,unpleasant,pleasant,NA,NA,NA,NA,NA,right,1962.19999998808,true,NA,NA,NA,NA,NA
D9MPYSbr,344m16ozllsw98pkhqhl4zt7rn1nev,3hwrjooet9fvc5fjgo39sdz5g4yesg,D9MPYSbr,2020-0188,2021-10-15,11:55:01,13:02:20,NA,incomplete,false,true,NA,3,3,NA,white,m_l_077.jpg,NA,NA,unpleasant,pleasant,NA,NA,NA,NA,NA,right,991.59999999404,true,NA,NA,NA,NA,NA
D9MPYSbr,344m16ozllsw98pkhqhl4zt7rn1nev,3hwrjooet9fvc5fjgo39sdz5g4yesg,D9MPYSbr,2020-0188,2021-10-15,11:55:01,13:02:20,NA,incomplete,false,true,NA,3,4,NA,white,m_l_085.jpg,NA,NA,unpleasant,pleasant,NA,NA,NA,NA,NA,left,1467.10000000894,true,NA,NA,NA,NA,NA
D9MPYSbr,344m16ozllsw98pkhqhl4zt7rn1nev,3hwrjooet9fvc5fjgo39sdz5g4yesg,D9MPYSbr,2020-0188,2021-10-15,11:55:01,13:02:20,NA,incomplete,false,true,NA,3,5,NA,white,n_s_001.jpg,NA,NA,pleasant,unpleasant,NA,NA,NA,NA,NA,right,2557.29999999702,true,NA,NA,NA,NA,NA
D9MPYSbr,344m16ozllsw98pkhqhl4zt7rn1nev,3hwrjooet9fvc5fjgo39sdz5g4yesg,D9MPYSbr,2020-0188,2021-10-15,11:55:01,13:02:20,NA,incomplete,false,true,NA,3,6,NA,gray,n_s_066.jpg,NA,NA,unpleasant,pleasant,NA,NA,NA,NA,NA,right,1719.20000000298,true,NA,NA,NA,NA,NA
D9MPYSbr,344m16ozllsw98pkhqhl4zt7rn1nev,3hwrjooet9fvc5fjgo39sdz5g4yesg,D9MPYSbr,2020-0188,2021-10-15,11:55:01,13:02:20,NA,incomplete,false,true,NA,3,7,NA,gray,n_l_046.jpg,NA,NA,pleasant,unpleasant,NA,NA,NA,NA,NA,left,1497.70000000298,true,NA,NA,NA,NA,NA
D9MPYSbr,344m16ozllsw98pkhqhl4zt7rn1nev,3hwrjooet9fvc5fjgo39sdz5g4yesg,D9MPYSbr,2020-0188,2021-10-15,11:55:01,13:02:20,NA,incomplete,false,true,NA,3,8,NA,gray,m_s_054.jpg,NA,NA,unpleasant,pleasant,NA,NA,NA,NA,NA,left,2039.40000000596,true,NA,NA,NA,NA,NA
D9MPYSbr,344m16ozllsw98pkhqhl4zt7rn1nev,3hwrjooet9fvc5fjgo39sdz5g4yesg,D9MPYSbr,2020-0188,2021-10-15,11:55:01,13:02:20,NA,incomplete,false,true,NA,3,9,NA,gray,n_s_090.jpg,NA,NA,unpleasant,pleasant,NA,NA,NA,NA,NA,left,1453.79999999702,true,NA,NA,NA,NA,NA
D9MPYSbr,344m16ozllsw98pkhqhl4zt7rn1nev,3hwrjooet9fvc5fjgo39sdz5g4yesg,D9MPYSbr,2020-0188,2021-10-15,11:55:01,13:02:20,NA,incomplete,false,true,NA,3,10,NA,gray,m_l_043.jpg,NA,NA,unpleasant,pleasant,NA,NA,NA,NA,NA,right,1261.10000000894,true,NA,NA,NA,NA,NA
D9MPYSbr,344m16ozllsw98pkhqhl4zt7rn1nev,3hwrjooet9fvc5fjgo39sdz5g4yesg,D9MPYSbr,2020-0188,2021-10-15,11:55:01,13:02:20,NA,incomplete,false,true,NA,3,11,NA,gray,n_s_008.jpg,NA,NA,pleasant,unpleasant,NA,NA,NA,NA,NA,left,1310.40000000596,true,NA,NA,NA,NA,NA
D9MPYSbr,344m16ozllsw98pkhqhl4zt7rn1nev,3hwrjooet9fvc5fjgo39sdz5g4yesg,D9MPYSbr,2020-0188,2021-10-15,11:55:01,13:02:20,NA,incomplete,false,true,NA,3,12,NA,red,n_l_023.jpg,NA,NA,pleasant,unpleasant,NA,NA,NA,NA,NA,right,1714.5,true,NA,NA,NA,NA,NA
D9MPYSbr,344m16ozllsw98pkhqhl4zt7rn1nev,3hwrjooet9fvc5fjgo39sdz5g4yesg,D9MPYSbr,2020-0188,2021-10-15,11:55:01,13:02:20,NA,incomplete,false,true,NA,3,13,NA,red,n_l_076.jpg,NA,NA,unpleasant,pleasant,NA,NA,NA,NA,NA,left,1172.29999999702,true,NA,NA,NA,NA,NA
D9MPYSbr,344m16ozllsw98pkhqhl4zt7rn1nev,3hwrjooet9fvc5fjgo39sdz5g4yesg,D9MPYSbr,2020-0188,2021-10-15,11:55:01,13:02:20,NA,incomplete,false,true,NA,3,14,NA,red,m_s_064.jpg,NA,NA,unpleasant,pleasant,NA,NA,NA,NA,NA,right,1920.69999998808,true,NA,NA,NA,NA,NA
D9MPYSbr,344m16ozllsw98pkhqhl4zt7rn1nev,3hwrjooet9fvc5fjgo39sdz5g4yesg,D9MPYSbr,2020-0188,2021-10-15,11:55:01,13:02:20,NA,incomplete,false,true,NA,3,15,NA,red,n_l_103.jpg,NA,NA,pleasant,unpleasant,NA,NA,NA,NA,NA,left,1085.90000000596,true,NA,NA,NA,NA,NA
D9MPYSbr,344m16ozllsw98pkhqhl4zt7rn1nev,3hwrjooet9fvc5fjgo39sdz5g4yesg,D9MPYSbr,2020-0188,2021-10-15,11:55:01,13:02:20,NA,incomplete,false,true,NA,3,16,NA,red,n_s_045.jpg,NA,NA,unpleasant,pleasant,NA,NA,NA,NA,NA,right,1372.19999998808,true,NA,NA,NA,NA,NA
D9MPYSbr,344m16ozllsw98pkhqhl4zt7rn1nev,3hwrjooet9fvc5fjgo39sdz5g4yesg,D9MPYSbr,2020-0188,2021-10-15,11:55:01,13:02:20,NA,incomplete,false,true,NA,3,17,NA,red,m_s_042.jpg,NA,NA,unpleasant,pleasant,NA,NA,NA,NA,NA,left,1195.39999999106,true,NA,NA,NA,NA,NA
D9MPYSbr,344m16ozllsw98pkhqhl4zt7rn1nev,3hwrjooet9fvc5fjgo39sdz5g4yesg,D9MPYSbr,2020-0188,2021-10-15,11:55:01,13:02:20,NA,incomplete,false,true,NA,3,18,NA,green,m_s_096.jpg,NA,NA,unpleasant,pleasant,NA,NA,NA,NA,NA,right,1394,true,NA,NA,NA,NA,NA
D9MPYSbr,344m16ozllsw98pkhqhl4zt7rn1nev,3hwrjooet9fvc5fjgo39sdz5g4yesg,D9MPYSbr,2020-0188,2021-10-15,11:55:01,13:02:20,NA,incomplete,false,true,NA,3,19,NA,green,n_l_021.jpg,NA,NA,unpleasant,pleasant,NA,NA,NA,NA,NA,right,950.100000008941,true,NA,NA,NA,NA,NA
D9MPYSbr,344m16ozllsw98pkhqhl4zt7rn1nev,3hwrjooet9fvc5fjgo39sdz5g4yesg,D9MPYSbr,2020-0188,2021-10-15,11:55:01,13:02:20,NA,incomplete,false,true,NA,3,20,NA,green,m_s_069.jpg,NA,NA,unpleasant,pleasant,NA,NA,NA,NA,NA,right,1900.79999999702,true,NA,NA,NA,NA,NA
D9MPYSbr,344m16ozllsw98pkhqhl4zt7rn1nev,3hwrjooet9fvc5fjgo39sdz5g4yesg,D9MPYSbr,2020-0188,2021-10-15,11:55:01,13:02:20,NA,incomplete,false,true,NA,3,21,NA,green,m_l_106.jpg,NA,NA,unpleasant,pleasant,NA,NA,NA,NA,NA,right,1004,true,NA,NA,NA,NA,NA
D9MPYSbr,344m16ozllsw98pkhqhl4zt7rn1nev,3hwrjooet9fvc5fjgo39sdz5g4yesg,D9MPYSbr,2020-0188,2021-10-15,11:55:01,13:02:20,NA,incomplete,false,true,NA,3,22,NA,green,m_s_059.jpg,NA,NA,unpleasant,pleasant,NA,NA,NA,NA,NA,right,1021.39999999106,true,NA,NA,NA,NA,NA
D9MPYSbr,344m16ozllsw98pkhqhl4zt7rn1nev,3hwrjooet9fvc5fjgo39sdz5g4yesg,D9MPYSbr,2020-0188,2021-10-15,11:55:01,13:02:20,NA,incomplete,false,true,NA,3,23,NA,green,m_s_021.jpg,NA,NA,pleasant,unpleasant,NA,NA,NA,NA,NA,right,1256,true,NA,NA,NA,NA,NA
D9MPYSbr,344m16ozllsw98pkhqhl4zt7rn1nev,3hwrjooet9fvc5fjgo39sdz5g4yesg,D9MPYSbr,2020-0188,2021-10-15,11:55:01,13:02:20,NA,incomplete,false,true,NA,3,24,NA,purple,m_l_005.jpg,NA,NA,pleasant,unpleasant,NA,NA,NA,NA,NA,left,1043.90000000596,true,NA,NA,NA,NA,NA
D9MPYSbr,344m16ozllsw98pkhqhl4zt7rn1nev,3hwrjooet9fvc5fjgo39sdz5g4yesg,D9MPYSbr,2020-0188,2021-10-15,11:55:01,13:02:20,NA,incomplete,false,true,NA,3,25,NA,purple,m_s_089.jpg,NA,NA,pleasant,unpleasant,NA,NA,NA,NA,NA,left,1367.40000000596,true,NA,NA,NA,NA,NA
D9MPYSbr,344m16ozllsw98pkhqhl4zt7rn1nev,3hwrjooet9fvc5fjgo39sdz5g4yesg,D9MPYSbr,2020-0188,2021-10-15,11:55:01,13:02:20,NA,incomplete,false,true,NA,3,26,NA,purple,n_s_043.jpg,NA,NA,unpleasant,pleasant,NA,NA,NA,NA,NA,right,1651.79999999702,true,NA,NA,NA,NA,NA
D9MPYSbr,344m16ozllsw98pkhqhl4zt7rn1nev,3hwrjooet9fvc5fjgo39sdz5g4yesg,D9MPYSbr,2020-0188,2021-10-15,11:55:01,13:02:20,NA,incomplete,false,true,NA,3,27,NA,purple,m_s_061.jpg,NA,NA,pleasant,unpleasant,NA,NA,NA,NA,NA,left,1595.20000000298,true,NA,NA,NA,NA,NA
D9MPYSbr,344m16ozllsw98pkhqhl4zt7rn1nev,3hwrjooet9fvc5fjgo39sdz5g4yesg,D9MPYSbr,2020-0188,2021-10-15,11:55:01,13:02:20,NA,incomplete,false,true,NA,3,28,NA,purple,n_l_054.jpg,NA,NA,pleasant,unpleasant,NA,NA,NA,NA,NA,left,1236.19999998808,true,NA,NA,NA,NA,NA
D9MPYSbr,344m16ozllsw98pkhqhl4zt7rn1nev,3hwrjooet9fvc5fjgo39sdz5g4yesg,D9MPYSbr,2020-0188,2021-10-15,11:55:01,13:02:20,NA,incomplete,false,true,NA,3,29,NA,purple,m_l_023.jpg,NA,NA,unpleasant,pleasant,NA,NA,NA,NA,NA,left,1789.40000000596,true,NA,NA,NA,NA,NA
D9MPYSbr,344m16ozllsw98pkhqhl4zt7rn1nev,3hwrjooet9fvc5fjgo39sdz5g4yesg,D9MPYSbr,2020-0188,2021-10-15,11:55:01,13:02:20,NA,incomplete,false,true,NA,3,30,NA,brown,n_s_057.jpg,NA,NA,unpleasant,pleasant,NA,NA,NA,NA,NA,right,1665.29999999702,true,NA,NA,NA,NA,NA
D9MPYSbr,344m16ozllsw98pkhqhl4zt7rn1nev,3hwrjooet9fvc5fjgo39sdz5g4yesg,D9MPYSbr,2020-0188,2021-10-15,11:55:01,13:02:20,NA,incomplete,false,true,NA,3,31,NA,brown,n_l_039.jpg,NA,NA,pleasant,unpleasant,NA,NA,NA,NA,NA,left,1329.79999999702,true,NA,NA,NA,NA,NA
D9MPYSbr,344m16ozllsw98pkhqhl4zt7rn1nev,3hwrjooet9fvc5fjgo39sdz5g4yesg,D9MPYSbr,2020-0188,2021-10-15,11:55:01,13:02:20,NA,incomplete,false,true,NA,3,32,NA,brown,m_l_094.jpg,NA,NA,pleasant,unpleasant,NA,NA,NA,NA,NA,right,1400.09999999404,true,NA,NA,NA,NA,NA
D9MPYSbr,344m16ozllsw98pkhqhl4zt7rn1nev,3hwrjooet9fvc5fjgo39sdz5g4yesg,D9MPYSbr,2020-0188,2021-10-15,11:55:01,13:02:20,NA,incomplete,false,true,NA,3,33,NA,brown,m_s_082.jpg,NA,NA,unpleasant,pleasant,NA,NA,NA,NA,NA,right,1594.40000000596,true,NA,NA,NA,NA,NA
D9MPYSbr,344m16ozllsw98pkhqhl4zt7rn1nev,3hwrjooet9fvc5fjgo39sdz5g4yesg,D9MPYSbr,2020-0188,2021-10-15,11:55:01,13:02:20,NA,incomplete,false,true,NA,3,34,NA,brown,n_s_024.jpg,NA,NA,unpleasant,pleasant,NA,NA,NA,NA,NA,right,1395,true,NA,NA,NA,NA,NA
D9MPYSbr,344m16ozllsw98pkhqhl4zt7rn1nev,3hwrjooet9fvc5fjgo39sdz5g4yesg,D9MPYSbr,2020-0188,2021-10-15,11:55:01,13:02:20,NA,incomplete,false,true,NA,3,35,NA,brown,m_s_046.jpg,NA,NA,pleasant,unpleasant,NA,NA,NA,NA,NA,right,1286.59999999404,true,NA,NA,NA,NA,NA
D9MPYSbr,344m16ozllsw98pkhqhl4zt7rn1nev,3hwrjooet9fvc5fjgo39sdz5g4yesg,D9MPYSbr,2020-0188,2021-10-15,11:55:01,13:02:20,NA,incomplete,false,NA,true,3,0,NA,NA,NA,right,absent,NA,NA,m_s_064.jpg,red,m_l_043.jpg,gray,between,NA,NaN,NA,left,2182,0,1,1096.0999999940395
D9MPYSbr,344m16ozllsw98pkhqhl4zt7rn1nev,3hwrjooet9fvc5fjgo39sdz5g4yesg,D9MPYSbr,2020-0188,2021-10-15,11:55:01,13:02:20,NA,incomplete,false,NA,true,3,1,NA,NA,NA,left,absent,NA,NA,m_s_043.jpg,white,n_s_001.jpg,white,within,NA,NaN,NA,left,1847.8999999910593,1,1,2143.9000000059605
D9MPYSbr,344m16ozllsw98pkhqhl4zt7rn1nev,3hwrjooet9fvc5fjgo39sdz5g4yesg,D9MPYSbr,2020-0188,2021-10-15,11:55:01,13:02:20,NA,incomplete,false,NA,true,3,2,NA,NA,NA,left,absent,NA,NA,n_l_046.jpg,gray,n_s_008.jpg,gray,within,NA,NaN,NA,right,2075.5999999940395,0,1,1184.7000000029802
D9MPYSbr,344m16ozllsw98pkhqhl4zt7rn1nev,3hwrjooet9fvc5fjgo39sdz5g4yesg,D9MPYSbr,2020-0188,2021-10-15,11:55:01,13:02:20,NA,incomplete,false,NA,true,3,3,NA,NA,NA,left,absent,NA,NA,n_l_021.jpg,green,m_s_021.jpg,green,within,NA,NaN,NA,left,2472.699999988079,1,1,1464.2999999970198
D9MPYSbr,344m16ozllsw98pkhqhl4zt7rn1nev,3hwrjooet9fvc5fjgo39sdz5g4yesg,D9MPYSbr,2020-0188,2021-10-15,11:55:01,13:02:20,NA,incomplete,false,NA,true,3,4,NA,NA,NA,left,absent,NA,NA,n_l_076.jpg,red,m_s_042.jpg,red,within,NA,NaN,NA,right,2949.300000011921,0,2,1315.7000000029802
D9MPYSbr,344m16ozllsw98pkhqhl4zt7rn1nev,3hwrjooet9fvc5fjgo39sdz5g4yesg,D9MPYSbr,2020-0188,2021-10-15,11:55:01,13:02:20,NA,incomplete,false,NA,true,3,5,NA,NA,NA,left,absent,NA,NA,n_s_045.jpg,red,m_s_069.jpg,green,between,NA,NaN,NA,left,1520.800000011921,1,0,1100.9000000059605
D9MPYSbr,344m16ozllsw98pkhqhl4zt7rn1nev,3hwrjooet9fvc5fjgo39sdz5g4yesg,D9MPYSbr,2020-0188,2021-10-15,11:55:01,13:02:20,NA,incomplete,false,NA,true,3,6,NA,NA,NA,left,absent,NA,NA,m_s_089.jpg,purple,m_l_023.jpg,purple,within,NA,NaN,NA,right,2944.0999999940395,0,0,892.9000000059605
D9MPYSbr,344m16ozllsw98pkhqhl4zt7rn1nev,3hwrjooet9fvc5fjgo39sdz5g4yesg,D9MPYSbr,2020-0188,2021-10-15,11:55:01,13:02:20,NA,incomplete,false,NA,true,3,7,NA,NA,NA,right,absent,NA,NA,m_l_094.jpg,brown,n_l_054.jpg,purple,between,NA,NaN,NA,right,2292.7999999970198,1,3,2066.8999999910593
D9MPYSbr,344m16ozllsw98pkhqhl4zt7rn1nev,3hwrjooet9fvc5fjgo39sdz5g4yesg,D9MPYSbr,2020-0188,2021-10-15,11:55:01,13:02:20,NA,incomplete,false,NA,true,3,8,NA,NA,NA,left,absent,NA,NA,m_l_085.jpg,white,m_s_054.jpg,gray,between,NA,NaN,NA,right,1423.9000000059605,0,2,1843.7999999970198
D9MPYSbr,344m16ozllsw98pkhqhl4zt7rn1nev,3hwrjooet9fvc5fjgo39sdz5g4yesg,D9MPYSbr,2020-0188,2021-10-15,11:55:01,13:02:20,NA,incomplete,false,NA,true,3,9,NA,NA,NA,right,absent,NA,NA,n_s_043.jpg,purple,m_s_059.jpg,green,between,NA,NaN,NA,right,1706.800000011921,1,1,1813.9000000059605
D9MPYSbr,344m16ozllsw98pkhqhl4zt7rn1nev,3hwrjooet9fvc5fjgo39sdz5g4yesg,D9MPYSbr,2020-0188,2021-10-15,11:55:01,13:02:20,NA,incomplete,false,NA,true,3,10,NA,NA,NA,right,absent,NA,NA,m_s_046.jpg,brown,n_l_039.jpg,brown,within,NA,NaN,NA,right,2449.3999999910593,1,2,1491.7000000029802
D9MPYSbr,344m16ozllsw98pkhqhl4zt7rn1nev,3hwrjooet9fvc5fjgo39sdz5g4yesg,D9MPYSbr,2020-0188,2021-10-15,11:55:01,13:02:20,NA,incomplete,false,true,NA,4,0,NA,yellow,m_s_063.jpg,NA,NA,pleasant,unpleasant,NA,NA,NA,NA,NA,right,1870.09999999404,true,NA,NA,NA,NA,NA
D9MPYSbr,344m16ozllsw98pkhqhl4zt7rn1nev,3hwrjooet9fvc5fjgo39sdz5g4yesg,D9MPYSbr,2020-0188,2021-10-15,11:55:01,13:02:20,NA,incomplete,false,true,NA,4,1,NA,yellow,m_l_081.jpg,NA,NA,pleasant,unpleasant,NA,NA,NA,NA,NA,right,956.09999999404,true,NA,NA,NA,NA,NA
D9MPYSbr,344m16ozllsw98pkhqhl4zt7rn1nev,3hwrjooet9fvc5fjgo39sdz5g4yesg,D9MPYSbr,2020-0188,2021-10-15,11:55:01,13:02:20,NA,incomplete,false,true,NA,4,2,NA,yellow,m_s_041.jpg,NA,NA,unpleasant,pleasant,NA,NA,NA,NA,NA,right,1253.39999999106,true,NA,NA,NA,NA,NA
D9MPYSbr,344m16ozllsw98pkhqhl4zt7rn1nev,3hwrjooet9fvc5fjgo39sdz5g4yesg,D9MPYSbr,2020-0188,2021-10-15,11:55:01,13:02:20,NA,incomplete,false,true,NA,4,3,NA,yellow,m_s_073.jpg,NA,NA,pleasant,unpleasant,NA,NA,NA,NA,NA,right,1377.10000000894,true,NA,NA,NA,NA,NA
D9MPYSbr,344m16ozllsw98pkhqhl4zt7rn1nev,3hwrjooet9fvc5fjgo39sdz5g4yesg,D9MPYSbr,2020-0188,2021-10-15,11:55:01,13:02:20,NA,incomplete,false,true,NA,4,4,NA,yellow,n_l_024.jpg,NA,NA,pleasant,unpleasant,NA,NA,NA,NA,NA,left,1052.90000000596,true,NA,NA,NA,NA,NA
D9MPYSbr,344m16ozllsw98pkhqhl4zt7rn1nev,3hwrjooet9fvc5fjgo39sdz5g4yesg,D9MPYSbr,2020-0188,2021-10-15,11:55:01,13:02:20,NA,incomplete,false,true,NA,4,5,NA,yellow,m_s_048.jpg,NA,NA,unpleasant,pleasant,NA,NA,NA,NA,NA,right,1427.5,true,NA,NA,NA,NA,NA
D9MPYSbr,344m16ozllsw98pkhqhl4zt7rn1nev,3hwrjooet9fvc5fjgo39sdz5g4yesg,D9MPYSbr,2020-0188,2021-10-15,11:55:01,13:02:20,NA,incomplete,false,true,NA,4,6,NA,blue,m_s_080.jpg,NA,NA,unpleasant,pleasant,NA,NA,NA,NA,NA,left,1515.69999998808,true,NA,NA,NA,NA,NA
D9MPYSbr,344m16ozllsw98pkhqhl4zt7rn1nev,3hwrjooet9fvc5fjgo39sdz5g4yesg,D9MPYSbr,2020-0188,2021-10-15,11:55:01,13:02:20,NA,incomplete,false,true,NA,4,7,NA,blue,m_l_109.jpg,NA,NA,unpleasant,pleasant,NA,NA,NA,NA,NA,right,1109.90000000596,true,NA,NA,NA,NA,NA
D9MPYSbr,344m16ozllsw98pkhqhl4zt7rn1nev,3hwrjooet9fvc5fjgo39sdz5g4yesg,D9MPYSbr,2020-0188,2021-10-15,11:55:01,13:02:20,NA,incomplete,false,true,NA,4,8,NA,blue,n_s_107.jpg,NA,NA,pleasant,unpleasant,NA,NA,NA,NA,NA,left,1084.89999999106,true,NA,NA,NA,NA,NA
D9MPYSbr,344m16ozllsw98pkhqhl4zt7rn1nev,3hwrjooet9fvc5fjgo39sdz5g4yesg,D9MPYSbr,2020-0188,2021-10-15,11:55:01,13:02:20,NA,incomplete,false,true,NA,4,9,NA,blue,n_l_016.jpg,NA,NA,pleasant,unpleasant,NA,NA,NA,NA,NA,left,1629,true,NA,NA,NA,NA,NA
D9MPYSbr,344m16ozllsw98pkhqhl4zt7rn1nev,3hwrjooet9fvc5fjgo39sdz5g4yesg,D9MPYSbr,2020-0188,2021-10-15,11:55:01,13:02:20,NA,incomplete,false,true,NA,4,10,NA,blue,n_s_072.jpg,NA,NA,pleasant,unpleasant,NA,NA,NA,NA,NA,right,913.29999999702,true,NA,NA,NA,NA,NA
D9MPYSbr,344m16ozllsw98pkhqhl4zt7rn1nev,3hwrjooet9fvc5fjgo39sdz5g4yesg,D9MPYSbr,2020-0188,2021-10-15,11:55:01,13:02:20,NA,incomplete,false,true,NA,4,11,NA,blue,m_l_038.jpg,NA,NA,pleasant,unpleasant,NA,NA,NA,NA,NA,left,1060.40000000596,true,NA,NA,NA,NA,NA
D9MPYSbr,344m16ozllsw98pkhqhl4zt7rn1nev,3hwrjooet9fvc5fjgo39sdz5g4yesg,D9MPYSbr,2020-0188,2021-10-15,11:55:01,13:02:20,NA,incomplete,false,true,NA,4,12,NA,red,m_s_033.jpg,NA,NA,pleasant,unpleasant,NA,NA,NA,NA,NA,left,1512.29999999702,true,NA,NA,NA,NA,NA
D9MPYSbr,344m16ozllsw98pkhqhl4zt7rn1nev,3hwrjooet9fvc5fjgo39sdz5g4yesg,D9MPYSbr,2020-0188,2021-10-15,11:55:01,13:02:20,NA,incomplete,false,true,NA,4,13,NA,red,m_l_045.jpg,NA,NA,pleasant,unpleasant,NA,NA,NA,NA,NA,right,1219.79999999702,true,NA,NA,NA,NA,NA
D9MPYSbr,344m16ozllsw98pkhqhl4zt7rn1nev,3hwrjooet9fvc5fjgo39sdz5g4yesg,D9MPYSbr,2020-0188,2021-10-15,11:55:01,13:02:20,NA,incomplete,false,true,NA,4,14,NA,red,m_l_011.jpg,NA,NA,pleasant,unpleasant,NA,NA,NA,NA,NA,left,1530.70000000298,true,NA,NA,NA,NA,NA
D9MPYSbr,344m16ozllsw98pkhqhl4zt7rn1nev,3hwrjooet9fvc5fjgo39sdz5g4yesg,D9MPYSbr,2020-0188,2021-10-15,11:55:01,13:02:20,NA,incomplete,false,true,NA,4,15,NA,red,m_s_067.jpg,NA,NA,pleasant,unpleasant,NA,NA,NA,NA,NA,left,1158.29999999702,true,NA,NA,NA,NA,NA
D9MPYSbr,344m16ozllsw98pkhqhl4zt7rn1nev,3hwrjooet9fvc5fjgo39sdz5g4yesg,D9MPYSbr,2020-0188,2021-10-15,11:55:01,13:02:20,NA,incomplete,false,true,NA,4,16,NA,red,m_l_108.jpg,NA,NA,pleasant,unpleasant,NA,NA,NA,NA,NA,left,1300.70000000298,true,NA,NA,NA,NA,NA
D9MPYSbr,344m16ozllsw98pkhqhl4zt7rn1nev,3hwrjooet9fvc5fjgo39sdz5g4yesg,D9MPYSbr,2020-0188,2021-10-15,11:55:01,13:02:20,NA,incomplete,false,true,NA,4,17,NA,red,m_l_078.jpg,NA,NA,pleasant,unpleasant,NA,NA,NA,NA,NA,right,1515.90000000596,true,NA,NA,NA,NA,NA
D9MPYSbr,344m16ozllsw98pkhqhl4zt7rn1nev,3hwrjooet9fvc5fjgo39sdz5g4yesg,D9MPYSbr,2020-0188,2021-10-15,11:55:01,13:02:20,NA,incomplete,false,true,NA,4,18,NA,green,n_s_067.jpg,NA,NA,unpleasant,pleasant,NA,NA,NA,NA,NA,left,1262.29999999702,true,NA,NA,NA,NA,NA
D9MPYSbr,344m16ozllsw98pkhqhl4zt7rn1nev,3hwrjooet9fvc5fjgo39sdz5g4yesg,D9MPYSbr,2020-0188,2021-10-15,11:55:01,13:02:20,NA,incomplete,false,true,NA,4,19,NA,green,m_s_108.jpg,NA,NA,pleasant,unpleasant,NA,NA,NA,NA,NA,right,951.899999991059,true,NA,NA,NA,NA,NA
D9MPYSbr,344m16ozllsw98pkhqhl4zt7rn1nev,3hwrjooet9fvc5fjgo39sdz5g4yesg,D9MPYSbr,2020-0188,2021-10-15,11:55:01,13:02:20,NA,incomplete,false,true,NA,4,20,NA,green,n_s_110.jpg,NA,NA,pleasant,unpleasant,NA,NA,NA,NA,NA,left,1380.20000000298,true,NA,NA,NA,NA,NA
D9MPYSbr,344m16ozllsw98pkhqhl4zt7rn1nev,3hwrjooet9fvc5fjgo39sdz5g4yesg,D9MPYSbr,2020-0188,2021-10-15,11:55:01,13:02:20,NA,incomplete,false,true,NA,4,21,NA,green,n_s_113.jpg,NA,NA,unpleasant,pleasant,NA,NA,NA,NA,NA,right,1788.60000000894,true,NA,NA,NA,NA,NA
D9MPYSbr,344m16ozllsw98pkhqhl4zt7rn1nev,3hwrjooet9fvc5fjgo39sdz5g4yesg,D9MPYSbr,2020-0188,2021-10-15,11:55:01,13:02:20,NA,incomplete,false,true,NA,4,22,NA,green,m_s_070.jpg,NA,NA,unpleasant,pleasant,NA,NA,NA,NA,NA,right,1136.40000000596,true,NA,NA,NA,NA,NA
D9MPYSbr,344m16ozllsw98pkhqhl4zt7rn1nev,3hwrjooet9fvc5fjgo39sdz5g4yesg,D9MPYSbr,2020-0188,2021-10-15,11:55:01,13:02:20,NA,incomplete,false,true,NA,4,23,NA,green,n_s_065.jpg,NA,NA,pleasant,unpleasant,NA,NA,NA,NA,NA,right,1320.60000000894,true,NA,NA,NA,NA,NA
D9MPYSbr,344m16ozllsw98pkhqhl4zt7rn1nev,3hwrjooet9fvc5fjgo39sdz5g4yesg,D9MPYSbr,2020-0188,2021-10-15,11:55:01,13:02:20,NA,incomplete,false,true,NA,4,24,NA,black,m_l_058.jpg,NA,NA,unpleasant,pleasant,NA,NA,NA,NA,NA,right,1107.10000000894,true,NA,NA,NA,NA,NA
D9MPYSbr,344m16ozllsw98pkhqhl4zt7rn1nev,3hwrjooet9fvc5fjgo39sdz5g4yesg,D9MPYSbr,2020-0188,2021-10-15,11:55:01,13:02:20,NA,incomplete,false,true,NA,4,25,NA,black,m_s_095.jpg,NA,NA,pleasant,unpleasant,NA,NA,NA,NA,NA,left,1152.79999999702,true,NA,NA,NA,NA,NA
D9MPYSbr,344m16ozllsw98pkhqhl4zt7rn1nev,3hwrjooet9fvc5fjgo39sdz5g4yesg,D9MPYSbr,2020-0188,2021-10-15,11:55:01,13:02:20,NA,incomplete,false,true,NA,4,26,NA,black,n_s_089.jpg,NA,NA,unpleasant,pleasant,NA,NA,NA,NA,NA,left,1322.09999999404,true,NA,NA,NA,NA,NA
D9MPYSbr,344m16ozllsw98pkhqhl4zt7rn1nev,3hwrjooet9fvc5fjgo39sdz5g4yesg,D9MPYSbr,2020-0188,2021-10-15,11:55:01,13:02:20,NA,incomplete,false,true,NA,4,27,NA,black,m_s_114.jpg,NA,NA,unpleasant,pleasant,NA,NA,NA,NA,NA,right,1482.09999999404,true,NA,NA,NA,NA,NA
D9MPYSbr,344m16ozllsw98pkhqhl4zt7rn1nev,3hwrjooet9fvc5fjgo39sdz5g4yesg,D9MPYSbr,2020-0188,2021-10-15,11:55:01,13:02:20,NA,incomplete,false,true,NA,4,28,NA,black,m_l_031.jpg,NA,NA,pleasant,unpleasant,NA,NA,NA,NA,NA,right,1059.80000001192,true,NA,NA,NA,NA,NA
D9MPYSbr,344m16ozllsw98pkhqhl4zt7rn1nev,3hwrjooet9fvc5fjgo39sdz5g4yesg,D9MPYSbr,2020-0188,2021-10-15,11:55:01,13:02:20,NA,incomplete,false,true,NA,4,29,NA,black,m_l_097.jpg,NA,NA,unpleasant,pleasant,NA,NA,NA,NA,NA,right,974.90000000596,true,NA,NA,NA,NA,NA
D9MPYSbr,344m16ozllsw98pkhqhl4zt7rn1nev,3hwrjooet9fvc5fjgo39sdz5g4yesg,D9MPYSbr,2020-0188,2021-10-15,11:55:01,13:02:20,NA,incomplete,false,true,NA,4,30,NA,white,m_s_090.jpg,NA,NA,pleasant,unpleasant,NA,NA,NA,NA,NA,left,1785.59999999404,true,NA,NA,NA,NA,NA
D9MPYSbr,344m16ozllsw98pkhqhl4zt7rn1nev,3hwrjooet9fvc5fjgo39sdz5g4yesg,D9MPYSbr,2020-0188,2021-10-15,11:55:01,13:02:20,NA,incomplete,false,true,NA,4,31,NA,white,m_s_094.jpg,NA,NA,pleasant,unpleasant,NA,NA,NA,NA,NA,left,1261.89999999106,true,NA,NA,NA,NA,NA
D9MPYSbr,344m16ozllsw98pkhqhl4zt7rn1nev,3hwrjooet9fvc5fjgo39sdz5g4yesg,D9MPYSbr,2020-0188,2021-10-15,11:55:01,13:02:20,NA,incomplete,false,true,NA,4,32,NA,white,n_s_011.jpg,NA,NA,pleasant,unpleasant,NA,NA,NA,NA,NA,left,1265.80000001192,true,NA,NA,NA,NA,NA
D9MPYSbr,344m16ozllsw98pkhqhl4zt7rn1nev,3hwrjooet9fvc5fjgo39sdz5g4yesg,D9MPYSbr,2020-0188,2021-10-15,11:55:01,13:02:20,NA,incomplete,false,true,NA,4,33,NA,white,m_l_025.jpg,NA,NA,unpleasant,pleasant,NA,NA,NA,NA,NA,left,2108.70000000298,true,NA,NA,NA,NA,NA
D9MPYSbr,344m16ozllsw98pkhqhl4zt7rn1nev,3hwrjooet9fvc5fjgo39sdz5g4yesg,D9MPYSbr,2020-0188,2021-10-15,11:55:01,13:02:20,NA,incomplete,false,true,NA,4,34,NA,white,n_l_063.jpg,NA,NA,unpleasant,pleasant,NA,NA,NA,NA,NA,left,1767.29999999702,true,NA,NA,NA,NA,NA
D9MPYSbr,344m16ozllsw98pkhqhl4zt7rn1nev,3hwrjooet9fvc5fjgo39sdz5g4yesg,D9MPYSbr,2020-0188,2021-10-15,11:55:01,13:02:20,NA,incomplete,false,true,NA,4,35,NA,white,m_s_044.jpg,NA,NA,pleasant,unpleasant,NA,NA,NA,NA,NA,left,1774.09999999404,true,NA,NA,NA,NA,NA
D9MPYSbr,344m16ozllsw98pkhqhl4zt7rn1nev,3hwrjooet9fvc5fjgo39sdz5g4yesg,D9MPYSbr,2020-0188,2021-10-15,11:55:01,13:02:20,NA,incomplete,false,NA,true,4,0,NA,NA,NA,left,absent,NA,NA,m_l_109.jpg,blue,m_l_038.jpg,blue,within,NA,NaN,NA,left,1909.9000000059605,1,1,1384.7999999970198
D9MPYSbr,344m16ozllsw98pkhqhl4zt7rn1nev,3hwrjooet9fvc5fjgo39sdz5g4yesg,D9MPYSbr,2020-0188,2021-10-15,11:55:01,13:02:20,NA,incomplete,false,NA,true,4,1,NA,NA,NA,left,absent,NA,NA,m_s_070.jpg,green,n_s_089.jpg,black,between,NA,NaN,NA,left,2150.7000000029802,1,2,2017.2000000029802
D9MPYSbr,344m16ozllsw98pkhqhl4zt7rn1nev,3hwrjooet9fvc5fjgo39sdz5g4yesg,D9MPYSbr,2020-0188,2021-10-15,11:55:01,13:02:20,NA,incomplete,false,NA,true,4,2,NA,NA,NA,left,absent,NA,NA,m_s_094.jpg,white,m_s_044.jpg,white,within,NA,NaN,NA,left,1751.2999999970198,1,0,930.6999999880791
D9MPYSbr,344m16ozllsw98pkhqhl4zt7rn1nev,3hwrjooet9fvc5fjgo39sdz5g4yesg,D9MPYSbr,2020-0188,2021-10-15,11:55:01,13:02:20,NA,incomplete,false,NA,true,4,3,NA,NA,NA,right,absent,NA,NA,m_s_048.jpg,yellow,m_l_081.jpg,yellow,within,NA,NaN,NA,right,3042.199999988079,1,2,1193.800000011921
D9MPYSbr,344m16ozllsw98pkhqhl4zt7rn1nev,3hwrjooet9fvc5fjgo39sdz5g4yesg,D9MPYSbr,2020-0188,2021-10-15,11:55:01,13:02:20,NA,incomplete,false,NA,true,4,4,NA,NA,NA,left,absent,NA,NA,n_l_024.jpg,yellow,n_s_107.jpg,blue,between,NA,NaN,NA,left,1786.7999999970198,1,0,936.3999999910593
D9MPYSbr,344m16ozllsw98pkhqhl4zt7rn1nev,3hwrjooet9fvc5fjgo39sdz5g4yesg,D9MPYSbr,2020-0188,2021-10-15,11:55:01,13:02:20,NA,incomplete,false,NA,true,4,5,NA,NA,NA,right,absent,NA,NA,m_l_097.jpg,black,m_s_095.jpg,black,within,NA,NaN,NA,left,1785.7000000029802,0,2,1676.5
D9MPYSbr,344m16ozllsw98pkhqhl4zt7rn1nev,3hwrjooet9fvc5fjgo39sdz5g4yesg,D9MPYSbr,2020-0188,2021-10-15,11:55:01,13:02:20,NA,incomplete,false,NA,true,4,6,NA,NA,NA,right,absent,NA,NA,n_s_110.jpg,green,m_l_108.jpg,red,between,NA,NaN,NA,right,2449.7000000029802,1,2,2225.5999999940395
D9MPYSbr,344m16ozllsw98pkhqhl4zt7rn1nev,3hwrjooet9fvc5fjgo39sdz5g4yesg,D9MPYSbr,2020-0188,2021-10-15,11:55:01,13:02:20,NA,incomplete,false,NA,true,4,7,NA,NA,NA,right,absent,NA,NA,n_s_011.jpg,white,m_l_031.jpg,black,between,NA,NaN,NA,left,2596.4000000059605,0,2,1213.4000000059605
D9MPYSbr,344m16ozllsw98pkhqhl4zt7rn1nev,3hwrjooet9fvc5fjgo39sdz5g4yesg,D9MPYSbr,2020-0188,2021-10-15,11:55:01,13:02:20,NA,incomplete,false,NA,true,4,8,NA,NA,NA,left,absent,NA,NA,m_l_045.jpg,red,m_l_078.jpg,red,within,NA,NaN,NA,left,1853.2000000029802,1,2,3770.5999999940395
D9MPYSbr,344m16ozllsw98pkhqhl4zt7rn1nev,3hwrjooet9fvc5fjgo39sdz5g4yesg,D9MPYSbr,2020-0188,2021-10-15,11:55:01,13:02:20,NA,incomplete,false,NA,true,4,9,NA,NA,NA,left,absent,NA,NA,m_s_108.jpg,green,n_s_065.jpg,green,within,NA,NaN,NA,left,2036.7999999970198,1,2,1155.8999999910593
D9MPYSbr,344m16ozllsw98pkhqhl4zt7rn1nev,3hwrjooet9fvc5fjgo39sdz5g4yesg,D9MPYSbr,2020-0188,2021-10-15,11:55:01,13:02:20,NA,incomplete,false,NA,true,4,10,NA,NA,NA,right,absent,NA,NA,m_l_011.jpg,red,n_s_072.jpg,blue,between,NA,NaN,NA,right,2569.8999999910593,1,2,1292.7000000029802
D9MPYSbr,344m16ozllsw98pkhqhl4zt7rn1nev,3hwrjooet9fvc5fjgo39sdz5g4yesg,D9MPYSbr,2020-0188,2021-10-15,11:55:01,13:02:20,NA,incomplete,false,true,NA,5,0,NA,gray,n_s_038.jpg,NA,NA,unpleasant,pleasant,NA,NA,NA,NA,NA,right,2563.29999999702,true,NA,NA,NA,NA,NA
D9MPYSbr,344m16ozllsw98pkhqhl4zt7rn1nev,3hwrjooet9fvc5fjgo39sdz5g4yesg,D9MPYSbr,2020-0188,2021-10-15,11:55:01,13:02:20,NA,incomplete,false,true,NA,5,1,NA,gray,n_s_099.jpg,NA,NA,pleasant,unpleasant,NA,NA,NA,NA,NA,left,1093.20000000298,true,NA,NA,NA,NA,NA
D9MPYSbr,344m16ozllsw98pkhqhl4zt7rn1nev,3hwrjooet9fvc5fjgo39sdz5g4yesg,D9MPYSbr,2020-0188,2021-10-15,11:55:01,13:02:20,NA,incomplete,false,true,NA,5,2,NA,gray,m_s_068.jpg,NA,NA,pleasant,unpleasant,NA,NA,NA,NA,NA,left,1621.69999998808,true,NA,NA,NA,NA,NA
D9MPYSbr,344m16ozllsw98pkhqhl4zt7rn1nev,3hwrjooet9fvc5fjgo39sdz5g4yesg,D9MPYSbr,2020-0188,2021-10-15,11:55:01,13:02:20,NA,incomplete,false,true,NA,5,3,NA,gray,n_s_037.jpg,NA,NA,unpleasant,pleasant,NA,NA,NA,NA,NA,right,1501.40000000596,true,NA,NA,NA,NA,NA
D9MPYSbr,344m16ozllsw98pkhqhl4zt7rn1nev,3hwrjooet9fvc5fjgo39sdz5g4yesg,D9MPYSbr,2020-0188,2021-10-15,11:55:01,13:02:20,NA,incomplete,false,true,NA,5,4,NA,gray,m_s_115.jpg,NA,NA,unpleasant,pleasant,NA,NA,NA,NA,NA,left,2607.30000001192,true,NA,NA,NA,NA,NA
D9MPYSbr,344m16ozllsw98pkhqhl4zt7rn1nev,3hwrjooet9fvc5fjgo39sdz5g4yesg,D9MPYSbr,2020-0188,2021-10-15,11:55:01,13:02:20,NA,incomplete,false,true,NA,5,5,NA,gray,m_s_052.jpg,NA,NA,unpleasant,pleasant,NA,NA,NA,NA,NA,left,1906.89999999106,true,NA,NA,NA,NA,NA
D9MPYSbr,344m16ozllsw98pkhqhl4zt7rn1nev,3hwrjooet9fvc5fjgo39sdz5g4yesg,D9MPYSbr,2020-0188,2021-10-15,11:55:01,13:02:20,NA,incomplete,false,true,NA,5,6,NA,blue,m_s_019.jpg,NA,NA,pleasant,unpleasant,NA,NA,NA,NA,NA,right,1320.70000000298,true,NA,NA,NA,NA,NA
D9MPYSbr,344m16ozllsw98pkhqhl4zt7rn1nev,3hwrjooet9fvc5fjgo39sdz5g4yesg,D9MPYSbr,2020-0188,2021-10-15,11:55:01,13:02:20,NA,incomplete,false,true,NA,5,7,NA,blue,n_l_100.jpg,NA,NA,unpleasant,pleasant,NA,NA,NA,NA,NA,left,3419.70000000298,true,NA,NA,NA,NA,NA
D9MPYSbr,344m16ozllsw98pkhqhl4zt7rn1nev,3hwrjooet9fvc5fjgo39sdz5g4yesg,D9MPYSbr,2020-0188,2021-10-15,11:55:01,13:02:20,NA,incomplete,false,true,NA,5,8,NA,blue,m_l_035.jpg,NA,NA,pleasant,unpleasant,NA,NA,NA,NA,NA,right,1456.60000000894,true,NA,NA,NA,NA,NA
D9MPYSbr,344m16ozllsw98pkhqhl4zt7rn1nev,3hwrjooet9fvc5fjgo39sdz5g4yesg,D9MPYSbr,2020-0188,2021-10-15,11:55:01,13:02:20,NA,incomplete,false,true,NA,5,9,NA,blue,n_s_059.jpg,NA,NA,unpleasant,pleasant,NA,NA,NA,NA,NA,left,1501.5,true,NA,NA,NA,NA,NA
D9MPYSbr,344m16ozllsw98pkhqhl4zt7rn1nev,3hwrjooet9fvc5fjgo39sdz5g4yesg,D9MPYSbr,2020-0188,2021-10-15,11:55:01,13:02:20,NA,incomplete,false,true,NA,5,10,NA,blue,m_s_050.jpg,NA,NA,pleasant,unpleasant,NA,NA,NA,NA,NA,left,1394.09999999404,true,NA,NA,NA,NA,NA
D9MPYSbr,344m16ozllsw98pkhqhl4zt7rn1nev,3hwrjooet9fvc5fjgo39sdz5g4yesg,D9MPYSbr,2020-0188,2021-10-15,11:55:01,13:02:20,NA,incomplete,false,true,NA,5,11,NA,blue,n_l_053.jpg,NA,NA,pleasant,unpleasant,NA,NA,NA,NA,NA,left,1019.29999999702,true,NA,NA,NA,NA,NA
D9MPYSbr,344m16ozllsw98pkhqhl4zt7rn1nev,3hwrjooet9fvc5fjgo39sdz5g4yesg,D9MPYSbr,2020-0188,2021-10-15,11:55:01,13:02:20,NA,incomplete,false,true,NA,5,12,NA,purple,n_l_064.jpg,NA,NA,pleasant,unpleasant,NA,NA,NA,NA,NA,left,3062.79999999702,true,NA,NA,NA,NA,NA
D9MPYSbr,344m16ozllsw98pkhqhl4zt7rn1nev,3hwrjooet9fvc5fjgo39sdz5g4yesg,D9MPYSbr,2020-0188,2021-10-15,11:55:01,13:02:20,NA,incomplete,false,true,NA,5,13,NA,purple,m_s_039.jpg,NA,NA,unpleasant,pleasant,NA,NA,NA,NA,NA,left,1509.20000000298,true,NA,NA,NA,NA,NA
D9MPYSbr,344m16ozllsw98pkhqhl4zt7rn1nev,3hwrjooet9fvc5fjgo39sdz5g4yesg,D9MPYSbr,2020-0188,2021-10-15,11:55:01,13:02:20,NA,incomplete,false,true,NA,5,14,NA,purple,n_s_077.jpg,NA,NA,unpleasant,pleasant,NA,NA,NA,NA,NA,left,2181.90000000596,true,NA,NA,NA,NA,NA
D9MPYSbr,344m16ozllsw98pkhqhl4zt7rn1nev,3hwrjooet9fvc5fjgo39sdz5g4yesg,D9MPYSbr,2020-0188,2021-10-15,11:55:01,13:02:20,NA,incomplete,false,true,NA,5,15,NA,purple,n_s_039.jpg,NA,NA,pleasant,unpleasant,NA,NA,NA,NA,NA,left,1018.40000000596,true,NA,NA,NA,NA,NA
D9MPYSbr,344m16ozllsw98pkhqhl4zt7rn1nev,3hwrjooet9fvc5fjgo39sdz5g4yesg,D9MPYSbr,2020-0188,2021-10-15,11:55:01,13:02:20,NA,incomplete,false,true,NA,5,16,NA,purple,n_l_007.jpg,NA,NA,unpleasant,pleasant,NA,NA,NA,NA,NA,right,1682.09999999404,true,NA,NA,NA,NA,NA
D9MPYSbr,344m16ozllsw98pkhqhl4zt7rn1nev,3hwrjooet9fvc5fjgo39sdz5g4yesg,D9MPYSbr,2020-0188,2021-10-15,11:55:01,13:02:20,NA,incomplete,false,true,NA,5,17,NA,purple,m_l_010.jpg,NA,NA,pleasant,unpleasant,NA,NA,NA,NA,NA,right,1292.90000000596,true,NA,NA,NA,NA,NA
D9MPYSbr,344m16ozllsw98pkhqhl4zt7rn1nev,3hwrjooet9fvc5fjgo39sdz5g4yesg,D9MPYSbr,2020-0188,2021-10-15,11:55:01,13:02:20,NA,incomplete,false,true,NA,5,18,NA,orange,n_s_050.jpg,NA,NA,pleasant,unpleasant,NA,NA,NA,NA,NA,right,1809.60000000894,true,NA,NA,NA,NA,NA
D9MPYSbr,344m16ozllsw98pkhqhl4zt7rn1nev,3hwrjooet9fvc5fjgo39sdz5g4yesg,D9MPYSbr,2020-0188,2021-10-15,11:55:01,13:02:20,NA,incomplete,false,true,NA,5,19,NA,orange,n_s_100.jpg,NA,NA,unpleasant,pleasant,NA,NA,NA,NA,NA,left,1193.40000000596,true,NA,NA,NA,NA,NA
D9MPYSbr,344m16ozllsw98pkhqhl4zt7rn1nev,3hwrjooet9fvc5fjgo39sdz5g4yesg,D9MPYSbr,2020-0188,2021-10-15,11:55:01,13:02:20,NA,incomplete,false,true,NA,5,20,NA,orange,n_l_009.jpg,NA,NA,unpleasant,pleasant,NA,NA,NA,NA,NA,right,985.59999999404,true,NA,NA,NA,NA,NA
D9MPYSbr,344m16ozllsw98pkhqhl4zt7rn1nev,3hwrjooet9fvc5fjgo39sdz5g4yesg,D9MPYSbr,2020-0188,2021-10-15,11:55:01,13:02:20,NA,incomplete,false,true,NA,5,21,NA,orange,n_s_021.jpg,NA,NA,pleasant,unpleasant,NA,NA,NA,NA,NA,left,956.79999999702,true,NA,NA,NA,NA,NA
D9MPYSbr,344m16ozllsw98pkhqhl4zt7rn1nev,3hwrjooet9fvc5fjgo39sdz5g4yesg,D9MPYSbr,2020-0188,2021-10-15,11:55:01,13:02:20,NA,incomplete,false,true,NA,5,22,NA,orange,m_s_101.jpg,NA,NA,pleasant,unpleasant,NA,NA,NA,NA,NA,left,1435.10000000894,true,NA,NA,NA,NA,NA
D9MPYSbr,344m16ozllsw98pkhqhl4zt7rn1nev,3hwrjooet9fvc5fjgo39sdz5g4yesg,D9MPYSbr,2020-0188,2021-10-15,11:55:01,13:02:20,NA,incomplete,false,true,NA,5,23,NA,orange,m_l_004.jpg,NA,NA,pleasant,unpleasant,NA,NA,NA,NA,NA,left,1088.29999999702,true,NA,NA,NA,NA,NA
D9MPYSbr,344m16ozllsw98pkhqhl4zt7rn1nev,3hwrjooet9fvc5fjgo39sdz5g4yesg,D9MPYSbr,2020-0188,2021-10-15,11:55:01,13:02:20,NA,incomplete,false,true,NA,5,24,NA,black,n_s_081.jpg,NA,NA,unpleasant,pleasant,NA,NA,NA,NA,NA,left,1687.79999999702,true,NA,NA,NA,NA,NA
D9MPYSbr,344m16ozllsw98pkhqhl4zt7rn1nev,3hwrjooet9fvc5fjgo39sdz5g4yesg,D9MPYSbr,2020-0188,2021-10-15,11:55:01,13:02:20,NA,incomplete,false,true,NA,5,25,NA,black,m_s_035.jpg,NA,NA,unpleasant,pleasant,NA,NA,NA,NA,NA,right,1123.70000000298,true,NA,NA,NA,NA,NA
D9MPYSbr,344m16ozllsw98pkhqhl4zt7rn1nev,3hwrjooet9fvc5fjgo39sdz5g4yesg,D9MPYSbr,2020-0188,2021-10-15,11:55:01,13:02:20,NA,incomplete,false,true,NA,5,26,NA,black,n_l_109.jpg,NA,NA,pleasant,unpleasant,NA,NA,NA,NA,NA,left,1082.90000000596,true,NA,NA,NA,NA,NA
D9MPYSbr,344m16ozllsw98pkhqhl4zt7rn1nev,3hwrjooet9fvc5fjgo39sdz5g4yesg,D9MPYSbr,2020-0188,2021-10-15,11:55:01,13:02:20,NA,incomplete,false,true,NA,5,27,NA,black,n_s_117.jpg,NA,NA,unpleasant,pleasant,NA,NA,NA,NA,NA,right,1167.20000000298,true,NA,NA,NA,NA,NA
D9MPYSbr,344m16ozllsw98pkhqhl4zt7rn1nev,3hwrjooet9fvc5fjgo39sdz5g4yesg,D9MPYSbr,2020-0188,2021-10-15,11:55:01,13:02:20,NA,incomplete,false,true,NA,5,28,NA,black,n_s_105.jpg,NA,NA,unpleasant,pleasant,NA,NA,NA,NA,NA,right,1044.30000001192,true,NA,NA,NA,NA,NA
D9MPYSbr,344m16ozllsw98pkhqhl4zt7rn1nev,3hwrjooet9fvc5fjgo39sdz5g4yesg,D9MPYSbr,2020-0188,2021-10-15,11:55:01,13:02:20,NA,incomplete,false,true,NA,5,29,NA,black,n_l_030.jpg,NA,NA,pleasant,unpleasant,NA,NA,NA,NA,NA,left,1235.20000000298,true,NA,NA,NA,NA,NA
D9MPYSbr,344m16ozllsw98pkhqhl4zt7rn1nev,3hwrjooet9fvc5fjgo39sdz5g4yesg,D9MPYSbr,2020-0188,2021-10-15,11:55:01,13:02:20,NA,incomplete,false,true,NA,5,30,NA,white,m_s_011.jpg,NA,NA,pleasant,unpleasant,NA,NA,NA,NA,NA,left,1419.60000000894,true,NA,NA,NA,NA,NA
D9MPYSbr,344m16ozllsw98pkhqhl4zt7rn1nev,3hwrjooet9fvc5fjgo39sdz5g4yesg,D9MPYSbr,2020-0188,2021-10-15,11:55:01,13:02:20,NA,incomplete,false,true,NA,5,31,NA,white,m_s_014.jpg,NA,NA,pleasant,unpleasant,NA,NA,NA,NA,NA,right,926.29999999702,true,NA,NA,NA,NA,NA
D9MPYSbr,344m16ozllsw98pkhqhl4zt7rn1nev,3hwrjooet9fvc5fjgo39sdz5g4yesg,D9MPYSbr,2020-0188,2021-10-15,11:55:01,13:02:20,NA,incomplete,false,true,NA,5,32,NA,white,n_l_018.jpg,NA,NA,pleasant,unpleasant,NA,NA,NA,NA,NA,right,1314.29999999702,true,NA,NA,NA,NA,NA
D9MPYSbr,344m16ozllsw98pkhqhl4zt7rn1nev,3hwrjooet9fvc5fjgo39sdz5g4yesg,D9MPYSbr,2020-0188,2021-10-15,11:55:01,13:02:20,NA,incomplete,false,true,NA,5,33,NA,white,m_l_080.jpg,NA,NA,pleasant,unpleasant,NA,NA,NA,NA,NA,left,1219.79999999702,true,NA,NA,NA,NA,NA
D9MPYSbr,344m16ozllsw98pkhqhl4zt7rn1nev,3hwrjooet9fvc5fjgo39sdz5g4yesg,D9MPYSbr,2020-0188,2021-10-15,11:55:01,13:02:20,NA,incomplete,false,true,NA,5,34,NA,white,m_s_016.jpg,NA,NA,pleasant,unpleasant,NA,NA,NA,NA,NA,left,905.199999988079,true,NA,NA,NA,NA,NA
D9MPYSbr,344m16ozllsw98pkhqhl4zt7rn1nev,3hwrjooet9fvc5fjgo39sdz5g4yesg,D9MPYSbr,2020-0188,2021-10-15,11:55:01,13:02:20,NA,incomplete,false,true,NA,5,35,NA,white,n_l_058.jpg,NA,NA,pleasant,unpleasant,NA,NA,NA,NA,NA,left,1154.90000000596,true,NA,NA,NA,NA,NA
D9MPYSbr,344m16ozllsw98pkhqhl4zt7rn1nev,3hwrjooet9fvc5fjgo39sdz5g4yesg,D9MPYSbr,2020-0188,2021-10-15,11:55:01,13:02:20,NA,incomplete,false,NA,true,5,0,NA,NA,NA,left,absent,NA,NA,m_s_014.jpg,white,n_l_058.jpg,white,within,NA,NaN,NA,left,2083.2999999970198,1,2,1084.9000000059605
D9MPYSbr,344m16ozllsw98pkhqhl4zt7rn1nev,3hwrjooet9fvc5fjgo39sdz5g4yesg,D9MPYSbr,2020-0188,2021-10-15,11:55:01,13:02:20,NA,incomplete,false,NA,true,5,1,NA,NA,NA,left,absent,NA,NA,n_l_100.jpg,blue,n_l_053.jpg,blue,within,NA,NaN,NA,right,1956.3999999910593,0,1,2306.5
D9MPYSbr,344m16ozllsw98pkhqhl4zt7rn1nev,3hwrjooet9fvc5fjgo39sdz5g4yesg,D9MPYSbr,2020-0188,2021-10-15,11:55:01,13:02:20,NA,incomplete,false,NA,true,5,2,NA,NA,NA,left,absent,NA,NA,n_l_007.jpg,purple,n_l_009.jpg,orange,between,NA,NaN,NA,right,1617.7000000029802,0,1,1483.7999999970198
D9MPYSbr,344m16ozllsw98pkhqhl4zt7rn1nev,3hwrjooet9fvc5fjgo39sdz5g4yesg,D9MPYSbr,2020-0188,2021-10-15,11:55:01,13:02:20,NA,incomplete,false,NA,true,5,3,NA,NA,NA,left,absent,NA,NA,m_s_050.jpg,blue,n_s_077.jpg,purple,between,NA,NaN,NA,right,1546,0,0,1149
D9MPYSbr,344m16ozllsw98pkhqhl4zt7rn1nev,3hwrjooet9fvc5fjgo39sdz5g4yesg,D9MPYSbr,2020-0188,2021-10-15,11:55:01,13:02:20,NA,incomplete,false,NA,true,5,4,NA,NA,NA,left,absent,NA,NA,m_s_115.jpg,gray,m_l_035.jpg,blue,between,NA,NaN,NA,right,2260.9000000059605,0,0,971.5999999940395
D9MPYSbr,344m16ozllsw98pkhqhl4zt7rn1nev,3hwrjooet9fvc5fjgo39sdz5g4yesg,D9MPYSbr,2020-0188,2021-10-15,11:55:01,13:02:20,NA,incomplete,false,NA,true,5,5,NA,NA,NA,right,absent,NA,NA,n_l_018.jpg,white,n_s_105.jpg,black,between,NA,NaN,NA,left,2253.6000000089407,0,2,852.2000000029802
D9MPYSbr,344m16ozllsw98pkhqhl4zt7rn1nev,3hwrjooet9fvc5fjgo39sdz5g4yesg,D9MPYSbr,2020-0188,2021-10-15,11:55:01,13:02:20,NA,incomplete,false,NA,true,5,6,NA,NA,NA,left,absent,NA,NA,n_s_100.jpg,orange,m_l_004.jpg,orange,within,NA,NaN,NA,right,1819,0,3,874.5
D9MPYSbr,344m16ozllsw98pkhqhl4zt7rn1nev,3hwrjooet9fvc5fjgo39sdz5g4yesg,D9MPYSbr,2020-0188,2021-10-15,11:55:01,13:02:20,NA,incomplete,false,NA,true,5,7,NA,NA,NA,right,absent,NA,NA,m_s_052.jpg,gray,n_s_099.jpg,gray,within,NA,NaN,NA,right,1259.2999999970198,1,2,2257.8999999910593
D9MPYSbr,344m16ozllsw98pkhqhl4zt7rn1nev,3hwrjooet9fvc5fjgo39sdz5g4yesg,D9MPYSbr,2020-0188,2021-10-15,11:55:01,13:02:20,NA,incomplete,false,NA,true,5,8,NA,NA,NA,right,absent,NA,NA,n_l_109.jpg,black,m_s_101.jpg,orange,between,NA,NaN,NA,right,2316.3999999910593,1,1,981.2999999970198
D9MPYSbr,344m16ozllsw98pkhqhl4zt7rn1nev,3hwrjooet9fvc5fjgo39sdz5g4yesg,D9MPYSbr,2020-0188,2021-10-15,11:55:01,13:02:20,NA,incomplete,false,NA,true,5,9,NA,NA,NA,right,absent,NA,NA,m_l_010.jpg,purple,m_s_039.jpg,purple,within,NA,NaN,NA,left,2404.7000000029802,0,3,766.2000000029802
D9MPYSbr,344m16ozllsw98pkhqhl4zt7rn1nev,3hwrjooet9fvc5fjgo39sdz5g4yesg,D9MPYSbr,2020-0188,2021-10-15,11:55:01,13:02:20,NA,incomplete,false,NA,true,5,10,NA,NA,NA,left,absent,NA,NA,m_s_035.jpg,black,n_l_030.jpg,black,within,NA,NaN,NA,right,3724.2999999970198,0,0,964.4000000059605
D9MPYSbr,344m16ozllsw98pkhqhl4zt7rn1nev,3hwrjooet9fvc5fjgo39sdz5g4yesg,D9MPYSbr,2020-0188,2021-10-15,11:55:01,13:02:20,NA,incomplete,false,true,NA,6,0,NA,gray,n_l_035.jpg,NA,NA,unpleasant,pleasant,NA,NA,NA,NA,NA,right,1972.69999998808,true,NA,NA,NA,NA,NA
D9MPYSbr,344m16ozllsw98pkhqhl4zt7rn1nev,3hwrjooet9fvc5fjgo39sdz5g4yesg,D9MPYSbr,2020-0188,2021-10-15,11:55:01,13:02:20,NA,incomplete,false,true,NA,6,1,NA,gray,n_s_069.jpg,NA,NA,pleasant,unpleasant,NA,NA,NA,NA,NA,right,2379.70000000298,true,NA,NA,NA,NA,NA
D9MPYSbr,344m16ozllsw98pkhqhl4zt7rn1nev,3hwrjooet9fvc5fjgo39sdz5g4yesg,D9MPYSbr,2020-0188,2021-10-15,11:55:01,13:02:20,NA,incomplete,false,true,NA,6,2,NA,gray,n_s_112.jpg,NA,NA,unpleasant,pleasant,NA,NA,NA,NA,NA,right,1620.79999999702,true,NA,NA,NA,NA,NA
D9MPYSbr,344m16ozllsw98pkhqhl4zt7rn1nev,3hwrjooet9fvc5fjgo39sdz5g4yesg,D9MPYSbr,2020-0188,2021-10-15,11:55:01,13:02:20,NA,incomplete,false,true,NA,6,3,NA,gray,n_s_093.jpg,NA,NA,unpleasant,pleasant,NA,NA,NA,NA,NA,right,2523,true,NA,NA,NA,NA,NA
D9MPYSbr,344m16ozllsw98pkhqhl4zt7rn1nev,3hwrjooet9fvc5fjgo39sdz5g4yesg,D9MPYSbr,2020-0188,2021-10-15,11:55:01,13:02:20,NA,incomplete,false,true,NA,6,4,NA,gray,m_s_116.jpg,NA,NA,unpleasant,pleasant,NA,NA,NA,NA,NA,right,2066.10000000894,true,NA,NA,NA,NA,NA
D9MPYSbr,344m16ozllsw98pkhqhl4zt7rn1nev,3hwrjooet9fvc5fjgo39sdz5g4yesg,D9MPYSbr,2020-0188,2021-10-15,11:55:01,13:02:20,NA,incomplete,false,true,NA,6,5,NA,gray,m_s_113.jpg,NA,NA,unpleasant,pleasant,NA,NA,NA,NA,NA,left,1976.79999999702,true,NA,NA,NA,NA,NA
D9MPYSbr,344m16ozllsw98pkhqhl4zt7rn1nev,3hwrjooet9fvc5fjgo39sdz5g4yesg,D9MPYSbr,2020-0188,2021-10-15,11:55:01,13:02:20,NA,incomplete,false,true,NA,6,6,NA,brown,n_s_086.jpg,NA,NA,pleasant,unpleasant,NA,NA,NA,NA,NA,right,1621,true,NA,NA,NA,NA,NA
D9MPYSbr,344m16ozllsw98pkhqhl4zt7rn1nev,3hwrjooet9fvc5fjgo39sdz5g4yesg,D9MPYSbr,2020-0188,2021-10-15,11:55:01,13:02:20,NA,incomplete,false,true,NA,6,7,NA,brown,m_l_083.jpg,NA,NA,unpleasant,pleasant,NA,NA,NA,NA,NA,left,1833,true,NA,NA,NA,NA,NA
D9MPYSbr,344m16ozllsw98pkhqhl4zt7rn1nev,3hwrjooet9fvc5fjgo39sdz5g4yesg,D9MPYSbr,2020-0188,2021-10-15,11:55:01,13:02:20,NA,incomplete,false,true,NA,6,8,NA,brown,m_s_003.jpg,NA,NA,unpleasant,pleasant,NA,NA,NA,NA,NA,left,2259.09999999404,true,NA,NA,NA,NA,NA
D9MPYSbr,344m16ozllsw98pkhqhl4zt7rn1nev,3hwrjooet9fvc5fjgo39sdz5g4yesg,D9MPYSbr,2020-0188,2021-10-15,11:55:01,13:02:20,NA,incomplete,false,true,NA,6,9,NA,brown,m_l_019.jpg,NA,NA,pleasant,unpleasant,NA,NA,NA,NA,NA,right,2225.29999999702,true,NA,NA,NA,NA,NA
D9MPYSbr,344m16ozllsw98pkhqhl4zt7rn1nev,3hwrjooet9fvc5fjgo39sdz5g4yesg,D9MPYSbr,2020-0188,2021-10-15,11:55:01,13:02:20,NA,incomplete,false,true,NA,6,10,NA,brown,n_l_020.jpg,NA,NA,pleasant,unpleasant,NA,NA,NA,NA,NA,right,2069.29999999702,true,NA,NA,NA,NA,NA
D9MPYSbr,344m16ozllsw98pkhqhl4zt7rn1nev,3hwrjooet9fvc5fjgo39sdz5g4yesg,D9MPYSbr,2020-0188,2021-10-15,11:55:01,13:02:20,NA,incomplete,false,true,NA,6,11,NA,brown,n_s_062.jpg,NA,NA,pleasant,unpleasant,NA,NA,NA,NA,NA,left,1553.90000000596,true,NA,NA,NA,NA,NA
D9MPYSbr,344m16ozllsw98pkhqhl4zt7rn1nev,3hwrjooet9fvc5fjgo39sdz5g4yesg,D9MPYSbr,2020-0188,2021-10-15,11:55:01,13:02:20,NA,incomplete,false,true,NA,6,12,NA,white,n_l_004.jpg,NA,NA,pleasant,unpleasant,NA,NA,NA,NA,NA,right,1763,true,NA,NA,NA,NA,NA
D9MPYSbr,344m16ozllsw98pkhqhl4zt7rn1nev,3hwrjooet9fvc5fjgo39sdz5g4yesg,D9MPYSbr,2020-0188,2021-10-15,11:55:01,13:02:20,NA,incomplete,false,true,NA,6,13,NA,white,n_s_044.jpg,NA,NA,unpleasant,pleasant,NA,NA,NA,NA,NA,right,1558.79999999702,true,NA,NA,NA,NA,NA
D9MPYSbr,344m16ozllsw98pkhqhl4zt7rn1nev,3hwrjooet9fvc5fjgo39sdz5g4yesg,D9MPYSbr,2020-0188,2021-10-15,11:55:01,13:02:20,NA,incomplete,false,true,NA,6,14,NA,white,n_s_004.jpg,NA,NA,pleasant,unpleasant,NA,NA,NA,NA,NA,left,1808.79999999702,true,NA,NA,NA,NA,NA
D9MPYSbr,344m16ozllsw98pkhqhl4zt7rn1nev,3hwrjooet9fvc5fjgo39sdz5g4yesg,D9MPYSbr,2020-0188,2021-10-15,11:55:01,13:02:20,NA,incomplete,false,true,NA,6,15,NA,white,n_s_073.jpg,NA,NA,pleasant,unpleasant,NA,NA,NA,NA,NA,right,2037,true,NA,NA,NA,NA,NA
D9MPYSbr,344m16ozllsw98pkhqhl4zt7rn1nev,3hwrjooet9fvc5fjgo39sdz5g4yesg,D9MPYSbr,2020-0188,2021-10-15,11:55:01,13:02:20,NA,incomplete,false,true,NA,6,16,NA,white,m_l_090.jpg,NA,NA,unpleasant,pleasant,NA,NA,NA,NA,NA,left,2062.59999999404,true,NA,NA,NA,NA,NA
D9MPYSbr,344m16ozllsw98pkhqhl4zt7rn1nev,3hwrjooet9fvc5fjgo39sdz5g4yesg,D9MPYSbr,2020-0188,2021-10-15,11:55:01,13:02:20,NA,incomplete,false,true,NA,6,17,NA,white,m_l_067.jpg,NA,NA,unpleasant,pleasant,NA,NA,NA,NA,NA,left,2391.5,true,NA,NA,NA,NA,NA
D9MPYSbr,344m16ozllsw98pkhqhl4zt7rn1nev,3hwrjooet9fvc5fjgo39sdz5g4yesg,D9MPYSbr,2020-0188,2021-10-15,11:55:01,13:02:20,NA,incomplete,false,true,NA,6,18,NA,orange,m_s_024.jpg,NA,NA,unpleasant,pleasant,NA,NA,NA,NA,NA,left,2051.59999999404,true,NA,NA,NA,NA,NA
D9MPYSbr,344m16ozllsw98pkhqhl4zt7rn1nev,3hwrjooet9fvc5fjgo39sdz5g4yesg,D9MPYSbr,2020-0188,2021-10-15,11:55:01,13:02:20,NA,incomplete,false,true,NA,6,19,NA,orange,n_l_042.jpg,NA,NA,pleasant,unpleasant,NA,NA,NA,NA,NA,left,2157.5,true,NA,NA,NA,NA,NA
D9MPYSbr,344m16ozllsw98pkhqhl4zt7rn1nev,3hwrjooet9fvc5fjgo39sdz5g4yesg,D9MPYSbr,2020-0188,2021-10-15,11:55:01,13:02:20,NA,incomplete,false,true,NA,6,20,NA,orange,m_l_018.jpg,NA,NA,pleasant,unpleasant,NA,NA,NA,NA,NA,left,1679.79999999702,true,NA,NA,NA,NA,NA
D9MPYSbr,344m16ozllsw98pkhqhl4zt7rn1nev,3hwrjooet9fvc5fjgo39sdz5g4yesg,D9MPYSbr,2020-0188,2021-10-15,11:55:01,13:02:20,NA,incomplete,false,true,NA,6,21,NA,orange,n_s_098.jpg,NA,NA,pleasant,unpleasant,NA,NA,NA,NA,NA,left,1648.39999999106,true,NA,NA,NA,NA,NA
D9MPYSbr,344m16ozllsw98pkhqhl4zt7rn1nev,3hwrjooet9fvc5fjgo39sdz5g4yesg,D9MPYSbr,2020-0188,2021-10-15,11:55:01,13:02:20,NA,incomplete,false,true,NA,6,22,NA,orange,m_l_110.jpg,NA,NA,unpleasant,pleasant,NA,NA,NA,NA,NA,right,1606.29999999702,true,NA,NA,NA,NA,NA
D9MPYSbr,344m16ozllsw98pkhqhl4zt7rn1nev,3hwrjooet9fvc5fjgo39sdz5g4yesg,D9MPYSbr,2020-0188,2021-10-15,11:55:01,13:02:20,NA,incomplete,false,true,NA,6,23,NA,orange,n_l_081.jpg,NA,NA,pleasant,unpleasant,NA,NA,NA,NA,NA,left,1372.70000000298,true,NA,NA,NA,NA,NA
D9MPYSbr,344m16ozllsw98pkhqhl4zt7rn1nev,3hwrjooet9fvc5fjgo39sdz5g4yesg,D9MPYSbr,2020-0188,2021-10-15,11:55:01,13:02:20,NA,incomplete,false,true,NA,6,24,NA,blue,m_s_032.jpg,NA,NA,unpleasant,pleasant,NA,NA,NA,NA,NA,left,1673.09999999404,true,NA,NA,NA,NA,NA
D9MPYSbr,344m16ozllsw98pkhqhl4zt7rn1nev,3hwrjooet9fvc5fjgo39sdz5g4yesg,D9MPYSbr,2020-0188,2021-10-15,11:55:01,13:02:20,NA,incomplete,false,true,NA,6,25,NA,blue,m_l_111.jpg,NA,NA,unpleasant,pleasant,NA,NA,NA,NA,NA,left,1678.5,true,NA,NA,NA,NA,NA
D9MPYSbr,344m16ozllsw98pkhqhl4zt7rn1nev,3hwrjooet9fvc5fjgo39sdz5g4yesg,D9MPYSbr,2020-0188,2021-10-15,11:55:01,13:02:20,NA,incomplete,false,true,NA,6,26,NA,blue,m_l_014.jpg,NA,NA,unpleasant,pleasant,NA,NA,NA,NA,NA,right,1413.5,true,NA,NA,NA,NA,NA
D9MPYSbr,344m16ozllsw98pkhqhl4zt7rn1nev,3hwrjooet9fvc5fjgo39sdz5g4yesg,D9MPYSbr,2020-0188,2021-10-15,11:55:01,13:02:20,NA,incomplete,false,true,NA,6,27,NA,blue,n_l_027.jpg,NA,NA,pleasant,unpleasant,NA,NA,NA,NA,NA,left,1269.20000000298,true,NA,NA,NA,NA,NA
D9MPYSbr,344m16ozllsw98pkhqhl4zt7rn1nev,3hwrjooet9fvc5fjgo39sdz5g4yesg,D9MPYSbr,2020-0188,2021-10-15,11:55:01,13:02:20,NA,incomplete,false,true,NA,6,28,NA,blue,m_l_047.jpg,NA,NA,pleasant,unpleasant,NA,NA,NA,NA,NA,left,1298.29999999702,true,NA,NA,NA,NA,NA
D9MPYSbr,344m16ozllsw98pkhqhl4zt7rn1nev,3hwrjooet9fvc5fjgo39sdz5g4yesg,D9MPYSbr,2020-0188,2021-10-15,11:55:01,13:02:20,NA,incomplete,false,true,NA,6,29,NA,blue,m_l_089.jpg,NA,NA,pleasant,unpleasant,NA,NA,NA,NA,NA,right,2259.70000000298,true,NA,NA,NA,NA,NA
D9MPYSbr,344m16ozllsw98pkhqhl4zt7rn1nev,3hwrjooet9fvc5fjgo39sdz5g4yesg,D9MPYSbr,2020-0188,2021-10-15,11:55:01,13:02:20,NA,incomplete,false,true,NA,6,30,NA,purple,n_l_107.jpg,NA,NA,pleasant,unpleasant,NA,NA,NA,NA,NA,left,1441,true,NA,NA,NA,NA,NA
D9MPYSbr,344m16ozllsw98pkhqhl4zt7rn1nev,3hwrjooet9fvc5fjgo39sdz5g4yesg,D9MPYSbr,2020-0188,2021-10-15,11:55:01,13:02:20,NA,incomplete,false,true,NA,6,31,NA,purple,m_s_091.jpg,NA,NA,pleasant,unpleasant,NA,NA,NA,NA,NA,left,2092.20000000298,true,NA,NA,NA,NA,NA
D9MPYSbr,344m16ozllsw98pkhqhl4zt7rn1nev,3hwrjooet9fvc5fjgo39sdz5g4yesg,D9MPYSbr,2020-0188,2021-10-15,11:55:01,13:02:20,NA,incomplete,false,true,NA,6,32,NA,purple,n_l_090.jpg,NA,NA,unpleasant,pleasant,NA,NA,NA,NA,NA,left,1731.89999999106,true,NA,NA,NA,NA,NA
D9MPYSbr,344m16ozllsw98pkhqhl4zt7rn1nev,3hwrjooet9fvc5fjgo39sdz5g4yesg,D9MPYSbr,2020-0188,2021-10-15,11:55:01,13:02:20,NA,incomplete,false,true,NA,6,33,NA,purple,n_l_022.jpg,NA,NA,unpleasant,pleasant,NA,NA,NA,NA,NA,right,1737.69999998808,true,NA,NA,NA,NA,NA
D9MPYSbr,344m16ozllsw98pkhqhl4zt7rn1nev,3hwrjooet9fvc5fjgo39sdz5g4yesg,D9MPYSbr,2020-0188,2021-10-15,11:55:01,13:02:20,NA,incomplete,false,true,NA,6,34,NA,purple,m_s_028.jpg,NA,NA,unpleasant,pleasant,NA,NA,NA,NA,NA,right,1367,true,NA,NA,NA,NA,NA
D9MPYSbr,344m16ozllsw98pkhqhl4zt7rn1nev,3hwrjooet9fvc5fjgo39sdz5g4yesg,D9MPYSbr,2020-0188,2021-10-15,11:55:01,13:02:20,NA,incomplete,false,true,NA,6,35,NA,purple,n_l_019.jpg,NA,NA,pleasant,unpleasant,NA,NA,NA,NA,NA,right,1503.79999999702,true,NA,NA,NA,NA,NA
D9MPYSbr,344m16ozllsw98pkhqhl4zt7rn1nev,3hwrjooet9fvc5fjgo39sdz5g4yesg,D9MPYSbr,2020-0188,2021-10-15,11:55:01,13:02:20,NA,incomplete,false,NA,true,6,0,NA,NA,NA,right,present,NA,NA,m_l_067.jpg,white,n_s_044.jpg,white,within,NA,NaN,NA,right,2666.0999999940395,1,0,919.5
D9MPYSbr,344m16ozllsw98pkhqhl4zt7rn1nev,3hwrjooet9fvc5fjgo39sdz5g4yesg,D9MPYSbr,2020-0188,2021-10-15,11:55:01,13:02:20,NA,incomplete,false,NA,true,6,1,NA,NA,NA,left,present,NA,NA,m_l_083.jpg,brown,n_s_062.jpg,brown,within,NA,NaN,NA,left,1572.0999999940395,1,0,1107.2000000029802
D9MPYSbr,344m16ozllsw98pkhqhl4zt7rn1nev,3hwrjooet9fvc5fjgo39sdz5g4yesg,D9MPYSbr,2020-0188,2021-10-15,11:55:01,13:02:20,NA,incomplete,false,NA,true,6,2,NA,NA,NA,right,present,NA,NA,m_l_014.jpg,blue,m_l_110.jpg,orange,between,NA,NaN,NA,right,2445.0999999940395,1,2,972.6999999880791
D9MPYSbr,344m16ozllsw98pkhqhl4zt7rn1nev,3hwrjooet9fvc5fjgo39sdz5g4yesg,D9MPYSbr,2020-0188,2021-10-15,11:55:01,13:02:20,NA,incomplete,false,NA,true,6,3,NA,NA,NA,right,present,NA,NA,n_l_019.jpg,purple,m_s_091.jpg,purple,within,NA,NaN,NA,left,4067.7999999970198,0,1,1316.5999999940395
D9MPYSbr,344m16ozllsw98pkhqhl4zt7rn1nev,3hwrjooet9fvc5fjgo39sdz5g4yesg,D9MPYSbr,2020-0188,2021-10-15,11:55:01,13:02:20,NA,incomplete,false,NA,true,6,4,NA,NA,NA,left,present,NA,NA,n_l_020.jpg,brown,n_s_004.jpg,white,between,NA,NaN,NA,right,2532.5,0,2,1021
D9MPYSbr,344m16ozllsw98pkhqhl4zt7rn1nev,3hwrjooet9fvc5fjgo39sdz5g4yesg,D9MPYSbr,2020-0188,2021-10-15,11:55:01,13:02:20,NA,incomplete,false,NA,true,6,5,NA,NA,NA,right,present,NA,NA,m_s_113.jpg,gray,n_s_069.jpg,gray,within,NA,NaN,NA,left,2636.4000000059605,0,1,1011.9000000059605
D9MPYSbr,344m16ozllsw98pkhqhl4zt7rn1nev,3hwrjooet9fvc5fjgo39sdz5g4yesg,D9MPYSbr,2020-0188,2021-10-15,11:55:01,13:02:20,NA,incomplete,false,NA,true,6,6,NA,NA,NA,right,present,NA,NA,n_l_090.jpg,purple,m_l_047.jpg,blue,between,NA,NaN,NA,right,1851.9000000059605,1,2,1199.2000000029802
D9MPYSbr,344m16ozllsw98pkhqhl4zt7rn1nev,3hwrjooet9fvc5fjgo39sdz5g4yesg,D9MPYSbr,2020-0188,2021-10-15,11:55:01,13:02:20,NA,incomplete,false,NA,true,6,7,NA,NA,NA,right,present,NA,NA,m_l_089.jpg,blue,m_l_111.jpg,blue,within,NA,NaN,NA,right,1555.2000000029802,1,0,955.1000000089407
D9MPYSbr,344m16ozllsw98pkhqhl4zt7rn1nev,3hwrjooet9fvc5fjgo39sdz5g4yesg,D9MPYSbr,2020-0188,2021-10-15,11:55:01,13:02:20,NA,incomplete,false,NA,true,6,8,NA,NA,NA,left,present,NA,NA,m_s_116.jpg,gray,m_s_003.jpg,brown,between,NA,NaN,NA,left,1663.6000000089407,1,1,2899.5
D9MPYSbr,344m16ozllsw98pkhqhl4zt7rn1nev,3hwrjooet9fvc5fjgo39sdz5g4yesg,D9MPYSbr,2020-0188,2021-10-15,11:55:01,13:02:20,NA,incomplete,false,NA,true,6,9,NA,NA,NA,right,present,NA,NA,m_l_018.jpg,orange,m_l_090.jpg,white,between,NA,NaN,NA,right,1660.2999999970198,1,2,898.7999999970198
D9MPYSbr,344m16ozllsw98pkhqhl4zt7rn1nev,3hwrjooet9fvc5fjgo39sdz5g4yesg,D9MPYSbr,2020-0188,2021-10-15,11:55:01,13:02:20,NA,incomplete,false,NA,true,6,10,NA,NA,NA,right,present,NA,NA,n_l_081.jpg,orange,n_l_042.jpg,orange,within,NA,NaN,NA,right,3891.9000000059605,1,1,1155.1000000089407
D9MPYSbr,344m16ozllsw98pkhqhl4zt7rn1nev,3hwrjooet9fvc5fjgo39sdz5g4yesg,D9MPYSbr,2020-0188,2021-10-15,11:55:01,13:02:20,NA,incomplete,false,true,NA,7,0,NA,brown,n_s_031.jpg,NA,NA,unpleasant,pleasant,NA,NA,NA,NA,NA,left,1514.79999999702,true,NA,NA,NA,NA,NA
D9MPYSbr,344m16ozllsw98pkhqhl4zt7rn1nev,3hwrjooet9fvc5fjgo39sdz5g4yesg,D9MPYSbr,2020-0188,2021-10-15,11:55:01,13:02:20,NA,incomplete,false,true,NA,7,1,NA,brown,n_l_036.jpg,NA,NA,pleasant,unpleasant,NA,NA,NA,NA,NA,left,2400.79999999702,true,NA,NA,NA,NA,NA
D9MPYSbr,344m16ozllsw98pkhqhl4zt7rn1nev,3hwrjooet9fvc5fjgo39sdz5g4yesg,D9MPYSbr,2020-0188,2021-10-15,11:55:01,13:02:20,NA,incomplete,false,true,NA,7,2,NA,brown,m_l_075.jpg,NA,NA,pleasant,unpleasant,NA,NA,NA,NA,NA,left,944,true,NA,NA,NA,NA,NA
D9MPYSbr,344m16ozllsw98pkhqhl4zt7rn1nev,3hwrjooet9fvc5fjgo39sdz5g4yesg,D9MPYSbr,2020-0188,2021-10-15,11:55:01,13:02:20,NA,incomplete,false,true,NA,7,3,NA,brown,m_l_028.jpg,NA,NA,unpleasant,pleasant,NA,NA,NA,NA,NA,right,1179.10000000894,true,NA,NA,NA,NA,NA
D9MPYSbr,344m16ozllsw98pkhqhl4zt7rn1nev,3hwrjooet9fvc5fjgo39sdz5g4yesg,D9MPYSbr,2020-0188,2021-10-15,11:55:01,13:02:20,NA,incomplete,false,true,NA,7,4,NA,brown,m_l_087.jpg,NA,NA,pleasant,unpleasant,NA,NA,NA,NA,NA,left,958.399999991059,true,NA,NA,NA,NA,NA
D9MPYSbr,344m16ozllsw98pkhqhl4zt7rn1nev,3hwrjooet9fvc5fjgo39sdz5g4yesg,D9MPYSbr,2020-0188,2021-10-15,11:55:01,13:02:20,NA,incomplete,false,true,NA,7,5,NA,brown,n_l_073.jpg,NA,NA,unpleasant,pleasant,NA,NA,NA,NA,NA,right,1220,true,NA,NA,NA,NA,NA
D9MPYSbr,344m16ozllsw98pkhqhl4zt7rn1nev,3hwrjooet9fvc5fjgo39sdz5g4yesg,D9MPYSbr,2020-0188,2021-10-15,11:55:01,13:02:20,NA,incomplete,false,true,NA,7,6,NA,orange,m_l_048.jpg,NA,NA,unpleasant,pleasant,NA,NA,NA,NA,NA,left,1556.5,true,NA,NA,NA,NA,NA
D9MPYSbr,344m16ozllsw98pkhqhl4zt7rn1nev,3hwrjooet9fvc5fjgo39sdz5g4yesg,D9MPYSbr,2020-0188,2021-10-15,11:55:01,13:02:20,NA,incomplete,false,true,NA,7,7,NA,orange,n_s_030.jpg,NA,NA,pleasant,unpleasant,NA,NA,NA,NA,NA,left,1588.79999999702,true,NA,NA,NA,NA,NA
D9MPYSbr,344m16ozllsw98pkhqhl4zt7rn1nev,3hwrjooet9fvc5fjgo39sdz5g4yesg,D9MPYSbr,2020-0188,2021-10-15,11:55:01,13:02:20,NA,incomplete,false,true,NA,7,8,NA,orange,n_l_038.jpg,NA,NA,pleasant,unpleasant,NA,NA,NA,NA,NA,left,1524.59999999404,true,NA,NA,NA,NA,NA
D9MPYSbr,344m16ozllsw98pkhqhl4zt7rn1nev,3hwrjooet9fvc5fjgo39sdz5g4yesg,D9MPYSbr,2020-0188,2021-10-15,11:55:01,13:02:20,NA,incomplete,false,true,NA,7,9,NA,orange,n_s_006.jpg,NA,NA,unpleasant,pleasant,NA,NA,NA,NA,NA,left,1073.70000000298,true,NA,NA,NA,NA,NA
D9MPYSbr,344m16ozllsw98pkhqhl4zt7rn1nev,3hwrjooet9fvc5fjgo39sdz5g4yesg,D9MPYSbr,2020-0188,2021-10-15,11:55:01,13:02:20,NA,incomplete,false,true,NA,7,10,NA,orange,m_l_071.jpg,NA,NA,pleasant,unpleasant,NA,NA,NA,NA,NA,right,1172.90000000596,true,NA,NA,NA,NA,NA
D9MPYSbr,344m16ozllsw98pkhqhl4zt7rn1nev,3hwrjooet9fvc5fjgo39sdz5g4yesg,D9MPYSbr,2020-0188,2021-10-15,11:55:01,13:02:20,NA,incomplete,false,true,NA,7,11,NA,orange,n_l_031.jpg,NA,NA,unpleasant,pleasant,NA,NA,NA,NA,NA,right,1733.5,true,NA,NA,NA,NA,NA
D9MPYSbr,344m16ozllsw98pkhqhl4zt7rn1nev,3hwrjooet9fvc5fjgo39sdz5g4yesg,D9MPYSbr,2020-0188,2021-10-15,11:55:01,13:02:20,NA,incomplete,false,true,NA,7,12,NA,gray,m_s_004.jpg,NA,NA,unpleasant,pleasant,NA,NA,NA,NA,NA,right,1257,true,NA,NA,NA,NA,NA
D9MPYSbr,344m16ozllsw98pkhqhl4zt7rn1nev,3hwrjooet9fvc5fjgo39sdz5g4yesg,D9MPYSbr,2020-0188,2021-10-15,11:55:01,13:02:20,NA,incomplete,false,true,NA,7,13,NA,gray,m_s_036.jpg,NA,NA,pleasant,unpleasant,NA,NA,NA,NA,NA,left,2363.59999999404,true,NA,NA,NA,NA,NA
D9MPYSbr,344m16ozllsw98pkhqhl4zt7rn1nev,3hwrjooet9fvc5fjgo39sdz5g4yesg,D9MPYSbr,2020-0188,2021-10-15,11:55:01,13:02:20,NA,incomplete,false,true,NA,7,14,NA,gray,m_l_026.jpg,NA,NA,pleasant,unpleasant,NA,NA,NA,NA,NA,left,2079.40000000596,true,NA,NA,NA,NA,NA
D9MPYSbr,344m16ozllsw98pkhqhl4zt7rn1nev,3hwrjooet9fvc5fjgo39sdz5g4yesg,D9MPYSbr,2020-0188,2021-10-15,11:55:01,13:02:20,NA,incomplete,false,true,NA,7,15,NA,gray,m_s_026.jpg,NA,NA,pleasant,unpleasant,NA,NA,NA,NA,NA,right,1441.89999999106,true,NA,NA,NA,NA,NA
D9MPYSbr,344m16ozllsw98pkhqhl4zt7rn1nev,3hwrjooet9fvc5fjgo39sdz5g4yesg,D9MPYSbr,2020-0188,2021-10-15,11:55:01,13:02:20,NA,incomplete,false,true,NA,7,16,NA,gray,m_l_073.jpg,NA,NA,unpleasant,pleasant,NA,NA,NA,NA,NA,right,2844.29999999702,true,NA,NA,NA,NA,NA
D9MPYSbr,344m16ozllsw98pkhqhl4zt7rn1nev,3hwrjooet9fvc5fjgo39sdz5g4yesg,D9MPYSbr,2020-0188,2021-10-15,11:55:01,13:02:20,NA,incomplete,false,true,NA,7,17,NA,gray,m_l_029.jpg,NA,NA,unpleasant,pleasant,NA,NA,NA,NA,NA,left,1267.70000000298,true,NA,NA,NA,NA,NA
D9MPYSbr,344m16ozllsw98pkhqhl4zt7rn1nev,3hwrjooet9fvc5fjgo39sdz5g4yesg,D9MPYSbr,2020-0188,2021-10-15,11:55:01,13:02:20,NA,incomplete,false,true,NA,7,18,NA,yellow,n_l_026.jpg,NA,NA,unpleasant,pleasant,NA,NA,NA,NA,NA,left,1511.30000001192,true,NA,NA,NA,NA,NA
D9MPYSbr,344m16ozllsw98pkhqhl4zt7rn1nev,3hwrjooet9fvc5fjgo39sdz5g4yesg,D9MPYSbr,2020-0188,2021-10-15,11:55:01,13:02:20,NA,incomplete,false,true,NA,7,19,NA,yellow,m_s_086.jpg,NA,NA,pleasant,unpleasant,NA,NA,NA,NA,NA,right,1187.79999999702,true,NA,NA,NA,NA,NA
D9MPYSbr,344m16ozllsw98pkhqhl4zt7rn1nev,3hwrjooet9fvc5fjgo39sdz5g4yesg,D9MPYSbr,2020-0188,2021-10-15,11:55:01,13:02:20,NA,incomplete,false,true,NA,7,20,NA,yellow,n_s_085.jpg,NA,NA,unpleasant,pleasant,NA,NA,NA,NA,NA,right,1261.20000000298,true,NA,NA,NA,NA,NA
D9MPYSbr,344m16ozllsw98pkhqhl4zt7rn1nev,3hwrjooet9fvc5fjgo39sdz5g4yesg,D9MPYSbr,2020-0188,2021-10-15,11:55:01,13:02:20,NA,incomplete,false,true,NA,7,21,NA,yellow,n_l_105.jpg,NA,NA,pleasant,unpleasant,NA,NA,NA,NA,NA,right,1125.10000000894,true,NA,NA,NA,NA,NA
D9MPYSbr,344m16ozllsw98pkhqhl4zt7rn1nev,3hwrjooet9fvc5fjgo39sdz5g4yesg,D9MPYSbr,2020-0188,2021-10-15,11:55:01,13:02:20,NA,incomplete,false,true,NA,7,22,NA,yellow,n_l_025.jpg,NA,NA,unpleasant,pleasant,NA,NA,NA,NA,NA,right,1321.29999999702,true,NA,NA,NA,NA,NA
D9MPYSbr,344m16ozllsw98pkhqhl4zt7rn1nev,3hwrjooet9fvc5fjgo39sdz5g4yesg,D9MPYSbr,2020-0188,2021-10-15,11:55:01,13:02:20,NA,incomplete,false,true,NA,7,23,NA,yellow,n_l_010.jpg,NA,NA,unpleasant,pleasant,NA,NA,NA,NA,NA,right,1691.59999999404,true,NA,NA,NA,NA,NA
D9MPYSbr,344m16ozllsw98pkhqhl4zt7rn1nev,3hwrjooet9fvc5fjgo39sdz5g4yesg,D9MPYSbr,2020-0188,2021-10-15,11:55:01,13:02:20,NA,incomplete,false,true,NA,7,24,NA,red,n_s_111.jpg,NA,NA,pleasant,unpleasant,NA,NA,NA,NA,NA,right,1842.79999999702,true,NA,NA,NA,NA,NA
D9MPYSbr,344m16ozllsw98pkhqhl4zt7rn1nev,3hwrjooet9fvc5fjgo39sdz5g4yesg,D9MPYSbr,2020-0188,2021-10-15,11:55:01,13:02:20,NA,incomplete,false,true,NA,7,25,NA,red,m_s_022.jpg,NA,NA,pleasant,unpleasant,NA,NA,NA,NA,NA,left,1539,true,NA,NA,NA,NA,NA
D9MPYSbr,344m16ozllsw98pkhqhl4zt7rn1nev,3hwrjooet9fvc5fjgo39sdz5g4yesg,D9MPYSbr,2020-0188,2021-10-15,11:55:01,13:02:20,NA,incomplete,false,true,NA,7,26,NA,red,n_l_101.jpg,NA,NA,pleasant,unpleasant,NA,NA,NA,NA,NA,right,1154.10000000894,true,NA,NA,NA,NA,NA
D9MPYSbr,344m16ozllsw98pkhqhl4zt7rn1nev,3hwrjooet9fvc5fjgo39sdz5g4yesg,D9MPYSbr,2020-0188,2021-10-15,11:55:01,13:02:20,NA,incomplete,false,true,NA,7,27,NA,red,m_s_081.jpg,NA,NA,pleasant,unpleasant,NA,NA,NA,NA,NA,left,1231.60000000894,true,NA,NA,NA,NA,NA
D9MPYSbr,344m16ozllsw98pkhqhl4zt7rn1nev,3hwrjooet9fvc5fjgo39sdz5g4yesg,D9MPYSbr,2020-0188,2021-10-15,11:55:01,13:02:20,NA,incomplete,false,true,NA,7,28,NA,red,m_s_077.jpg,NA,NA,unpleasant,pleasant,NA,NA,NA,NA,NA,right,1432.09999999404,true,NA,NA,NA,NA,NA
D9MPYSbr,344m16ozllsw98pkhqhl4zt7rn1nev,3hwrjooet9fvc5fjgo39sdz5g4yesg,D9MPYSbr,2020-0188,2021-10-15,11:55:01,13:02:20,NA,incomplete,false,true,NA,7,29,NA,red,n_s_076.jpg,NA,NA,unpleasant,pleasant,NA,NA,NA,NA,NA,left,1039.70000000298,true,NA,NA,NA,NA,NA
D9MPYSbr,344m16ozllsw98pkhqhl4zt7rn1nev,3hwrjooet9fvc5fjgo39sdz5g4yesg,D9MPYSbr,2020-0188,2021-10-15,11:55:01,13:02:20,NA,incomplete,false,true,NA,7,30,NA,green,m_s_001.jpg,NA,NA,pleasant,unpleasant,NA,NA,NA,NA,NA,right,1119.39999999106,true,NA,NA,NA,NA,NA
D9MPYSbr,344m16ozllsw98pkhqhl4zt7rn1nev,3hwrjooet9fvc5fjgo39sdz5g4yesg,D9MPYSbr,2020-0188,2021-10-15,11:55:01,13:02:20,NA,incomplete,false,true,NA,7,31,NA,green,n_l_060.jpg,NA,NA,unpleasant,pleasant,NA,NA,NA,NA,NA,right,1222.40000000596,true,NA,NA,NA,NA,NA
D9MPYSbr,344m16ozllsw98pkhqhl4zt7rn1nev,3hwrjooet9fvc5fjgo39sdz5g4yesg,D9MPYSbr,2020-0188,2021-10-15,11:55:01,13:02:20,NA,incomplete,false,true,NA,7,32,NA,green,n_s_063.jpg,NA,NA,pleasant,unpleasant,NA,NA,NA,NA,NA,left,1262.29999999702,true,NA,NA,NA,NA,NA
D9MPYSbr,344m16ozllsw98pkhqhl4zt7rn1nev,3hwrjooet9fvc5fjgo39sdz5g4yesg,D9MPYSbr,2020-0188,2021-10-15,11:55:01,13:02:20,NA,incomplete,false,true,NA,7,33,NA,green,n_s_002.jpg,NA,NA,pleasant,unpleasant,NA,NA,NA,NA,NA,left,1096.79999999702,true,NA,NA,NA,NA,NA
D9MPYSbr,344m16ozllsw98pkhqhl4zt7rn1nev,3hwrjooet9fvc5fjgo39sdz5g4yesg,D9MPYSbr,2020-0188,2021-10-15,11:55:01,13:02:20,NA,incomplete,false,true,NA,7,34,NA,green,n_l_111.jpg,NA,NA,pleasant,unpleasant,NA,NA,NA,NA,NA,left,1282.29999999702,true,NA,NA,NA,NA,NA
D9MPYSbr,344m16ozllsw98pkhqhl4zt7rn1nev,3hwrjooet9fvc5fjgo39sdz5g4yesg,D9MPYSbr,2020-0188,2021-10-15,11:55:01,13:02:20,NA,incomplete,false,true,NA,7,35,NA,green,n_l_045.jpg,NA,NA,pleasant,unpleasant,NA,NA,NA,NA,NA,left,1427.29999999702,true,NA,NA,NA,NA,NA
D9MPYSbr,344m16ozllsw98pkhqhl4zt7rn1nev,3hwrjooet9fvc5fjgo39sdz5g4yesg,D9MPYSbr,2020-0188,2021-10-15,11:55:01,13:02:20,NA,incomplete,false,NA,true,7,0,NA,NA,NA,right,present,NA,NA,n_l_101.jpg,red,n_l_025.jpg,yellow,between,NA,NaN,NA,right,2247.2999999970198,1,1,1227.4000000059605
D9MPYSbr,344m16ozllsw98pkhqhl4zt7rn1nev,3hwrjooet9fvc5fjgo39sdz5g4yesg,D9MPYSbr,2020-0188,2021-10-15,11:55:01,13:02:20,NA,incomplete,false,NA,true,7,1,NA,NA,NA,right,present,NA,NA,n_l_073.jpg,brown,n_l_036.jpg,brown,within,NA,NaN,NA,right,3075.5999999940395,1,0,909.7999999970198
D9MPYSbr,344m16ozllsw98pkhqhl4zt7rn1nev,3hwrjooet9fvc5fjgo39sdz5g4yesg,D9MPYSbr,2020-0188,2021-10-15,11:55:01,13:02:20,NA,incomplete,false,NA,true,7,2,NA,NA,NA,right,present,NA,NA,n_l_045.jpg,green,n_l_060.jpg,green,within,NA,NaN,NA,left,2250.7000000029802,0,0,1355.7999999970198
D9MPYSbr,344m16ozllsw98pkhqhl4zt7rn1nev,3hwrjooet9fvc5fjgo39sdz5g4yesg,D9MPYSbr,2020-0188,2021-10-15,11:55:01,13:02:20,NA,incomplete,false,NA,true,7,3,NA,NA,NA,left,present,NA,NA,m_s_022.jpg,red,n_s_076.jpg,red,within,NA,NaN,NA,left,3131.2999999970198,1,1,1174.4000000059605
D9MPYSbr,344m16ozllsw98pkhqhl4zt7rn1nev,3hwrjooet9fvc5fjgo39sdz5g4yesg,D9MPYSbr,2020-0188,2021-10-15,11:55:01,13:02:20,NA,incomplete,false,NA,true,7,4,NA,NA,NA,right,present,NA,NA,n_l_010.jpg,yellow,m_s_086.jpg,yellow,within,NA,NaN,NA,left,2640.4000000059605,0,0,2199.7999999970198
D9MPYSbr,344m16ozllsw98pkhqhl4zt7rn1nev,3hwrjooet9fvc5fjgo39sdz5g4yesg,D9MPYSbr,2020-0188,2021-10-15,11:55:01,13:02:20,NA,incomplete,false,NA,true,7,5,NA,NA,NA,left,present,NA,NA,m_s_036.jpg,gray,m_l_029.jpg,gray,within,NA,NaN,NA,left,3674.199999988079,1,2,3217.5999999940395
D9MPYSbr,344m16ozllsw98pkhqhl4zt7rn1nev,3hwrjooet9fvc5fjgo39sdz5g4yesg,D9MPYSbr,2020-0188,2021-10-15,11:55:01,13:02:20,NA,incomplete,false,NA,true,7,6,NA,NA,NA,right,present,NA,NA,m_l_026.jpg,gray,m_l_071.jpg,orange,between,NA,NaN,NA,right,1812,1,3,1405
D9MPYSbr,344m16ozllsw98pkhqhl4zt7rn1nev,3hwrjooet9fvc5fjgo39sdz5g4yesg,D9MPYSbr,2020-0188,2021-10-15,11:55:01,13:02:20,NA,incomplete,false,NA,true,7,7,NA,NA,NA,left,present,NA,NA,m_s_077.jpg,red,n_s_063.jpg,green,between,NA,NaN,NA,left,3604.6000000089407,1,1,1725.7000000029802
D9MPYSbr,344m16ozllsw98pkhqhl4zt7rn1nev,3hwrjooet9fvc5fjgo39sdz5g4yesg,D9MPYSbr,2020-0188,2021-10-15,11:55:01,13:02:20,NA,incomplete,false,NA,true,7,8,NA,NA,NA,left,present,NA,NA,m_l_087.jpg,brown,n_l_038.jpg,orange,between,NA,NaN,NA,left,1939.699999988079,1,1,1492.2999999970198
D9MPYSbr,344m16ozllsw98pkhqhl4zt7rn1nev,3hwrjooet9fvc5fjgo39sdz5g4yesg,D9MPYSbr,2020-0188,2021-10-15,11:55:01,13:02:20,NA,incomplete,false,NA,true,7,9,NA,NA,NA,left,present,NA,NA,n_s_030.jpg,orange,n_l_031.jpg,orange,within,NA,NaN,NA,left,2212.199999988079,1,0,2715
D9MPYSbr,344m16ozllsw98pkhqhl4zt7rn1nev,3hwrjooet9fvc5fjgo39sdz5g4yesg,D9MPYSbr,2020-0188,2021-10-15,11:55:01,13:02:20,NA,incomplete,false,NA,true,7,10,NA,NA,NA,right,present,NA,NA,n_s_085.jpg,yellow,m_l_073.jpg,gray,between,NA,NaN,NA,right,2219.300000011921,1,1,2028.0999999940395
D9MPYSbr,344m16ozllsw98pkhqhl4zt7rn1nev,3hwrjooet9fvc5fjgo39sdz5g4yesg,D9MPYSbr,2020-0188,2021-10-15,11:55:01,13:02:20,NA,incomplete,false,true,NA,8,0,NA,black,n_l_057.jpg,NA,NA,pleasant,unpleasant,NA,NA,NA,NA,NA,right,2162.20000000298,true,NA,NA,NA,NA,NA
D9MPYSbr,344m16ozllsw98pkhqhl4zt7rn1nev,3hwrjooet9fvc5fjgo39sdz5g4yesg,D9MPYSbr,2020-0188,2021-10-15,11:55:01,13:02:20,NA,incomplete,false,true,NA,8,1,NA,black,m_s_005.jpg,NA,NA,unpleasant,pleasant,NA,NA,NA,NA,NA,right,1471.69999998808,true,NA,NA,NA,NA,NA
D9MPYSbr,344m16ozllsw98pkhqhl4zt7rn1nev,3hwrjooet9fvc5fjgo39sdz5g4yesg,D9MPYSbr,2020-0188,2021-10-15,11:55:01,13:02:20,NA,incomplete,false,true,NA,8,2,NA,black,n_l_095.jpg,NA,NA,pleasant,unpleasant,NA,NA,NA,NA,NA,left,1255.09999999404,true,NA,NA,NA,NA,NA
D9MPYSbr,344m16ozllsw98pkhqhl4zt7rn1nev,3hwrjooet9fvc5fjgo39sdz5g4yesg,D9MPYSbr,2020-0188,2021-10-15,11:55:01,13:02:20,NA,incomplete,false,true,NA,8,3,NA,black,m_s_055.jpg,NA,NA,pleasant,unpleasant,NA,NA,NA,NA,NA,left,1988.29999999702,true,NA,NA,NA,NA,NA
D9MPYSbr,344m16ozllsw98pkhqhl4zt7rn1nev,3hwrjooet9fvc5fjgo39sdz5g4yesg,D9MPYSbr,2020-0188,2021-10-15,11:55:01,13:02:20,NA,incomplete,false,true,NA,8,4,NA,black,n_l_074.jpg,NA,NA,unpleasant,pleasant,NA,NA,NA,NA,NA,right,1106.39999999106,true,NA,NA,NA,NA,NA
D9MPYSbr,344m16ozllsw98pkhqhl4zt7rn1nev,3hwrjooet9fvc5fjgo39sdz5g4yesg,D9MPYSbr,2020-0188,2021-10-15,11:55:01,13:02:20,NA,incomplete,false,true,NA,8,5,NA,black,n_l_034.jpg,NA,NA,unpleasant,pleasant,NA,NA,NA,NA,NA,left,1610.79999999702,true,NA,NA,NA,NA,NA
D9MPYSbr,344m16ozllsw98pkhqhl4zt7rn1nev,3hwrjooet9fvc5fjgo39sdz5g4yesg,D9MPYSbr,2020-0188,2021-10-15,11:55:01,13:02:20,NA,incomplete,false,true,NA,8,6,NA,white,m_l_064.jpg,NA,NA,unpleasant,pleasant,NA,NA,NA,NA,NA,right,1454.19999998808,true,NA,NA,NA,NA,NA
D9MPYSbr,344m16ozllsw98pkhqhl4zt7rn1nev,3hwrjooet9fvc5fjgo39sdz5g4yesg,D9MPYSbr,2020-0188,2021-10-15,11:55:01,13:02:20,NA,incomplete,false,true,NA,8,7,NA,white,m_l_032.jpg,NA,NA,unpleasant,pleasant,NA,NA,NA,NA,NA,right,1436.89999999106,true,NA,NA,NA,NA,NA
D9MPYSbr,344m16ozllsw98pkhqhl4zt7rn1nev,3hwrjooet9fvc5fjgo39sdz5g4yesg,D9MPYSbr,2020-0188,2021-10-15,11:55:01,13:02:20,NA,incomplete,false,true,NA,8,8,NA,white,m_l_107.jpg,NA,NA,unpleasant,pleasant,NA,NA,NA,NA,NA,right,1239.60000000894,true,NA,NA,NA,NA,NA
