workerId,hitId,assignmentId,subject,studyid,exp_date,exp_start,exp_end,time_start,time_end,practice,encoding,memory,block,trial,event_order,event,stim,answer,context_type,label_left,label_right,left_image,left_event,right_image,right_event,condition,response,response_time,response_acc,order_response,order_response_time,order_acc,distance_response,distance_response_time
gDFT4aTX,33tgb4g0msu3alll9rtp1nk6wbyxtf,3ts1ar6uqur1zlvnnwp4f4o95rm7fq,gDFT4aTX,2020-0188,2021-10-15,11:32:19,12:47:26,NA,incomplete,true,true,NA,0,0,NA,green,n_l_013.jpg,NA,NA,pleasant,unpleasant,NA,NA,NA,NA,NA,left,1981.70000000112,true,NA,NA,NA,NA,NA
gDFT4aTX,33tgb4g0msu3alll9rtp1nk6wbyxtf,3ts1ar6uqur1zlvnnwp4f4o95rm7fq,gDFT4aTX,2020-0188,2021-10-15,11:32:19,12:47:26,NA,incomplete,true,true,NA,0,1,NA,green,n_l_097.jpg,NA,NA,pleasant,unpleasant,NA,NA,NA,NA,NA,right,875.200000001118,true,NA,NA,NA,NA,NA
gDFT4aTX,33tgb4g0msu3alll9rtp1nk6wbyxtf,3ts1ar6uqur1zlvnnwp4f4o95rm7fq,gDFT4aTX,2020-0188,2021-10-15,11:32:19,12:47:26,NA,incomplete,true,true,NA,0,2,NA,green,m_l_107.jpg,NA,NA,pleasant,unpleasant,NA,NA,NA,NA,NA,right,832,true,NA,NA,NA,NA,NA
gDFT4aTX,33tgb4g0msu3alll9rtp1nk6wbyxtf,3ts1ar6uqur1zlvnnwp4f4o95rm7fq,gDFT4aTX,2020-0188,2021-10-15,11:32:19,12:47:26,NA,incomplete,true,true,NA,0,3,NA,green,m_l_116.jpg,NA,NA,pleasant,unpleasant,NA,NA,NA,NA,NA,left,906.200000001118,true,NA,NA,NA,NA,NA
gDFT4aTX,33tgb4g0msu3alll9rtp1nk6wbyxtf,3ts1ar6uqur1zlvnnwp4f4o95rm7fq,gDFT4aTX,2020-0188,2021-10-15,11:32:19,12:47:26,NA,incomplete,true,true,NA,0,4,NA,green,n_l_037.jpg,NA,NA,unpleasant,pleasant,NA,NA,NA,NA,NA,right,1070.59999999963,true,NA,NA,NA,NA,NA
gDFT4aTX,33tgb4g0msu3alll9rtp1nk6wbyxtf,3ts1ar6uqur1zlvnnwp4f4o95rm7fq,gDFT4aTX,2020-0188,2021-10-15,11:32:19,12:47:26,NA,incomplete,true,true,NA,0,5,NA,green,n_l_059.jpg,NA,NA,pleasant,unpleasant,NA,NA,NA,NA,NA,left,1309.09999999963,true,NA,NA,NA,NA,NA
gDFT4aTX,33tgb4g0msu3alll9rtp1nk6wbyxtf,3ts1ar6uqur1zlvnnwp4f4o95rm7fq,gDFT4aTX,2020-0188,2021-10-15,11:32:19,12:47:26,NA,incomplete,true,true,NA,0,6,NA,black,m_s_102.jpg,NA,NA,pleasant,unpleasant,NA,NA,NA,NA,NA,left,1685.09999999963,true,NA,NA,NA,NA,NA
gDFT4aTX,33tgb4g0msu3alll9rtp1nk6wbyxtf,3ts1ar6uqur1zlvnnwp4f4o95rm7fq,gDFT4aTX,2020-0188,2021-10-15,11:32:19,12:47:26,NA,incomplete,true,true,NA,0,7,NA,black,m_l_001.jpg,NA,NA,unpleasant,pleasant,NA,NA,NA,NA,NA,right,1533.30000000075,true,NA,NA,NA,NA,NA
gDFT4aTX,33tgb4g0msu3alll9rtp1nk6wbyxtf,3ts1ar6uqur1zlvnnwp4f4o95rm7fq,gDFT4aTX,2020-0188,2021-10-15,11:32:19,12:47:26,NA,incomplete,true,true,NA,0,8,NA,black,n_s_079.jpg,NA,NA,pleasant,unpleasant,NA,NA,NA,NA,NA,left,2128.20000000112,true,NA,NA,NA,NA,NA
gDFT4aTX,33tgb4g0msu3alll9rtp1nk6wbyxtf,3ts1ar6uqur1zlvnnwp4f4o95rm7fq,gDFT4aTX,2020-0188,2021-10-15,11:32:19,12:47:26,NA,incomplete,true,true,NA,0,9,NA,black,m_s_088.jpg,NA,NA,pleasant,unpleasant,NA,NA,NA,NA,NA,left,1329.09999999963,true,NA,NA,NA,NA,NA
gDFT4aTX,33tgb4g0msu3alll9rtp1nk6wbyxtf,3ts1ar6uqur1zlvnnwp4f4o95rm7fq,gDFT4aTX,2020-0188,2021-10-15,11:32:19,12:47:26,NA,incomplete,true,true,NA,0,10,NA,black,m_s_092.jpg,NA,NA,pleasant,unpleasant,NA,NA,NA,NA,NA,none,0,false,NA,NA,NA,NA,NA
gDFT4aTX,33tgb4g0msu3alll9rtp1nk6wbyxtf,3ts1ar6uqur1zlvnnwp4f4o95rm7fq,gDFT4aTX,2020-0188,2021-10-15,11:32:19,12:47:26,NA,incomplete,true,true,NA,0,11,NA,black,n_l_019.jpg,NA,NA,unpleasant,pleasant,NA,NA,NA,NA,NA,right,734.299999998882,true,NA,NA,NA,NA,NA
gDFT4aTX,33tgb4g0msu3alll9rtp1nk6wbyxtf,3ts1ar6uqur1zlvnnwp4f4o95rm7fq,gDFT4aTX,2020-0188,2021-10-15,11:32:19,12:47:26,NA,incomplete,true,true,NA,0,12,NA,white,m_l_029.jpg,NA,NA,unpleasant,pleasant,NA,NA,NA,NA,NA,right,1203.59999999963,true,NA,NA,NA,NA,NA
gDFT4aTX,33tgb4g0msu3alll9rtp1nk6wbyxtf,3ts1ar6uqur1zlvnnwp4f4o95rm7fq,gDFT4aTX,2020-0188,2021-10-15,11:32:19,12:47:26,NA,incomplete,true,true,NA,0,13,NA,white,m_l_033.jpg,NA,NA,unpleasant,pleasant,NA,NA,NA,NA,NA,right,1682.90000000037,true,NA,NA,NA,NA,NA
gDFT4aTX,33tgb4g0msu3alll9rtp1nk6wbyxtf,3ts1ar6uqur1zlvnnwp4f4o95rm7fq,gDFT4aTX,2020-0188,2021-10-15,11:32:19,12:47:26,NA,incomplete,true,true,NA,0,14,NA,white,n_s_004.jpg,NA,NA,pleasant,unpleasant,NA,NA,NA,NA,NA,none,0,false,NA,NA,NA,NA,NA
gDFT4aTX,33tgb4g0msu3alll9rtp1nk6wbyxtf,3ts1ar6uqur1zlvnnwp4f4o95rm7fq,gDFT4aTX,2020-0188,2021-10-15,11:32:19,12:47:26,NA,incomplete,true,true,NA,0,15,NA,white,m_l_075.jpg,NA,NA,pleasant,unpleasant,NA,NA,NA,NA,NA,right,354.60000000149,true,NA,NA,NA,NA,NA
gDFT4aTX,33tgb4g0msu3alll9rtp1nk6wbyxtf,3ts1ar6uqur1zlvnnwp4f4o95rm7fq,gDFT4aTX,2020-0188,2021-10-15,11:32:19,12:47:26,NA,incomplete,true,true,NA,0,16,NA,white,m_s_068.jpg,NA,NA,unpleasant,pleasant,NA,NA,NA,NA,NA,left,503.699999999255,true,NA,NA,NA,NA,NA
gDFT4aTX,33tgb4g0msu3alll9rtp1nk6wbyxtf,3ts1ar6uqur1zlvnnwp4f4o95rm7fq,gDFT4aTX,2020-0188,2021-10-15,11:32:19,12:47:26,NA,incomplete,true,true,NA,0,17,NA,white,n_s_086.jpg,NA,NA,unpleasant,pleasant,NA,NA,NA,NA,NA,right,1821.29999999888,true,NA,NA,NA,NA,NA
gDFT4aTX,33tgb4g0msu3alll9rtp1nk6wbyxtf,3ts1ar6uqur1zlvnnwp4f4o95rm7fq,gDFT4aTX,2020-0188,2021-10-15,11:32:19,12:47:26,NA,incomplete,true,true,NA,0,18,NA,blue,n_s_110.jpg,NA,NA,unpleasant,pleasant,NA,NA,NA,NA,NA,left,1193.90000000037,true,NA,NA,NA,NA,NA
gDFT4aTX,33tgb4g0msu3alll9rtp1nk6wbyxtf,3ts1ar6uqur1zlvnnwp4f4o95rm7fq,gDFT4aTX,2020-0188,2021-10-15,11:32:19,12:47:26,NA,incomplete,true,true,NA,0,19,NA,blue,n_s_028.jpg,NA,NA,unpleasant,pleasant,NA,NA,NA,NA,NA,left,383,true,NA,NA,NA,NA,NA
gDFT4aTX,33tgb4g0msu3alll9rtp1nk6wbyxtf,3ts1ar6uqur1zlvnnwp4f4o95rm7fq,gDFT4aTX,2020-0188,2021-10-15,11:32:19,12:47:26,NA,incomplete,true,true,NA,0,20,NA,blue,n_l_045.jpg,NA,NA,unpleasant,pleasant,NA,NA,NA,NA,NA,left,991.699999999255,true,NA,NA,NA,NA,NA
gDFT4aTX,33tgb4g0msu3alll9rtp1nk6wbyxtf,3ts1ar6uqur1zlvnnwp4f4o95rm7fq,gDFT4aTX,2020-0188,2021-10-15,11:32:19,12:47:26,NA,incomplete,true,true,NA,0,21,NA,blue,m_l_056.jpg,NA,NA,unpleasant,pleasant,NA,NA,NA,NA,NA,right,1058.90000000037,true,NA,NA,NA,NA,NA
gDFT4aTX,33tgb4g0msu3alll9rtp1nk6wbyxtf,3ts1ar6uqur1zlvnnwp4f4o95rm7fq,gDFT4aTX,2020-0188,2021-10-15,11:32:19,12:47:26,NA,incomplete,true,true,NA,0,22,NA,blue,n_s_077.jpg,NA,NA,unpleasant,pleasant,NA,NA,NA,NA,NA,right,1261.09999999963,true,NA,NA,NA,NA,NA
gDFT4aTX,33tgb4g0msu3alll9rtp1nk6wbyxtf,3ts1ar6uqur1zlvnnwp4f4o95rm7fq,gDFT4aTX,2020-0188,2021-10-15,11:32:19,12:47:26,NA,incomplete,true,true,NA,0,23,NA,blue,n_l_063.jpg,NA,NA,unpleasant,pleasant,NA,NA,NA,NA,NA,right,995.099999999627,true,NA,NA,NA,NA,NA
gDFT4aTX,33tgb4g0msu3alll9rtp1nk6wbyxtf,3ts1ar6uqur1zlvnnwp4f4o95rm7fq,gDFT4aTX,2020-0188,2021-10-15,11:32:19,12:47:26,NA,incomplete,true,true,NA,0,24,NA,purple,m_l_034.jpg,NA,NA,unpleasant,pleasant,NA,NA,NA,NA,NA,left,1842.29999999888,true,NA,NA,NA,NA,NA
gDFT4aTX,33tgb4g0msu3alll9rtp1nk6wbyxtf,3ts1ar6uqur1zlvnnwp4f4o95rm7fq,gDFT4aTX,2020-0188,2021-10-15,11:32:19,12:47:26,NA,incomplete,true,true,NA,0,25,NA,purple,n_l_002.jpg,NA,NA,unpleasant,pleasant,NA,NA,NA,NA,NA,left,3369.90000000037,true,NA,NA,NA,NA,NA
gDFT4aTX,33tgb4g0msu3alll9rtp1nk6wbyxtf,3ts1ar6uqur1zlvnnwp4f4o95rm7fq,gDFT4aTX,2020-0188,2021-10-15,11:32:19,12:47:26,NA,incomplete,true,true,NA,0,26,NA,purple,n_l_076.jpg,NA,NA,unpleasant,pleasant,NA,NA,NA,NA,NA,left,2017.59999999963,true,NA,NA,NA,NA,NA
gDFT4aTX,33tgb4g0msu3alll9rtp1nk6wbyxtf,3ts1ar6uqur1zlvnnwp4f4o95rm7fq,gDFT4aTX,2020-0188,2021-10-15,11:32:19,12:47:26,NA,incomplete,true,true,NA,0,27,NA,purple,m_l_049.jpg,NA,NA,unpleasant,pleasant,NA,NA,NA,NA,NA,left,1799.20000000112,true,NA,NA,NA,NA,NA
gDFT4aTX,33tgb4g0msu3alll9rtp1nk6wbyxtf,3ts1ar6uqur1zlvnnwp4f4o95rm7fq,gDFT4aTX,2020-0188,2021-10-15,11:32:19,12:47:26,NA,incomplete,true,true,NA,0,28,NA,purple,n_s_106.jpg,NA,NA,unpleasant,pleasant,NA,NA,NA,NA,NA,left,962.099999999627,true,NA,NA,NA,NA,NA
gDFT4aTX,33tgb4g0msu3alll9rtp1nk6wbyxtf,3ts1ar6uqur1zlvnnwp4f4o95rm7fq,gDFT4aTX,2020-0188,2021-10-15,11:32:19,12:47:26,NA,incomplete,true,true,NA,0,29,NA,purple,m_s_115.jpg,NA,NA,unpleasant,pleasant,NA,NA,NA,NA,NA,right,1486.70000000112,true,NA,NA,NA,NA,NA
gDFT4aTX,33tgb4g0msu3alll9rtp1nk6wbyxtf,3ts1ar6uqur1zlvnnwp4f4o95rm7fq,gDFT4aTX,2020-0188,2021-10-15,11:32:19,12:47:26,NA,incomplete,true,true,NA,0,30,NA,yellow,m_s_009.jpg,NA,NA,unpleasant,pleasant,NA,NA,NA,NA,NA,right,2093.40000000037,true,NA,NA,NA,NA,NA
gDFT4aTX,33tgb4g0msu3alll9rtp1nk6wbyxtf,3ts1ar6uqur1zlvnnwp4f4o95rm7fq,gDFT4aTX,2020-0188,2021-10-15,11:32:19,12:47:26,NA,incomplete,true,true,NA,0,31,NA,yellow,m_s_026.jpg,NA,NA,pleasant,unpleasant,NA,NA,NA,NA,NA,right,1233.59999999963,true,NA,NA,NA,NA,NA
gDFT4aTX,33tgb4g0msu3alll9rtp1nk6wbyxtf,3ts1ar6uqur1zlvnnwp4f4o95rm7fq,gDFT4aTX,2020-0188,2021-10-15,11:32:19,12:47:26,NA,incomplete,true,true,NA,0,32,NA,yellow,m_l_023.jpg,NA,NA,unpleasant,pleasant,NA,NA,NA,NA,NA,right,1788.5,true,NA,NA,NA,NA,NA
gDFT4aTX,33tgb4g0msu3alll9rtp1nk6wbyxtf,3ts1ar6uqur1zlvnnwp4f4o95rm7fq,gDFT4aTX,2020-0188,2021-10-15,11:32:19,12:47:26,NA,incomplete,true,true,NA,0,33,NA,yellow,n_l_021.jpg,NA,NA,unpleasant,pleasant,NA,NA,NA,NA,NA,right,1597.19999999925,true,NA,NA,NA,NA,NA
gDFT4aTX,33tgb4g0msu3alll9rtp1nk6wbyxtf,3ts1ar6uqur1zlvnnwp4f4o95rm7fq,gDFT4aTX,2020-0188,2021-10-15,11:32:19,12:47:26,NA,incomplete,true,true,NA,0,34,NA,yellow,m_l_014.jpg,NA,NA,unpleasant,pleasant,NA,NA,NA,NA,NA,right,1142.30000000075,true,NA,NA,NA,NA,NA
gDFT4aTX,33tgb4g0msu3alll9rtp1nk6wbyxtf,3ts1ar6uqur1zlvnnwp4f4o95rm7fq,gDFT4aTX,2020-0188,2021-10-15,11:32:19,12:47:26,NA,incomplete,true,true,NA,0,35,NA,yellow,m_s_003.jpg,NA,NA,pleasant,unpleasant,NA,NA,NA,NA,NA,none,0,false,NA,NA,NA,NA,NA
gDFT4aTX,33tgb4g0msu3alll9rtp1nk6wbyxtf,3ts1ar6uqur1zlvnnwp4f4o95rm7fq,gDFT4aTX,2020-0188,2021-10-15,11:32:19,12:47:26,NA,incomplete,true,NA,true,0,0,NA,NA,NA,right,absent,NA,NA,n_l_076.jpg,purple,n_s_077.jpg,blue,between,NA,NaN,NA,right,3431.10000000149,1,2,3183.5999999996275
gDFT4aTX,33tgb4g0msu3alll9rtp1nk6wbyxtf,3ts1ar6uqur1zlvnnwp4f4o95rm7fq,gDFT4aTX,2020-0188,2021-10-15,11:32:19,12:47:26,NA,incomplete,true,NA,true,0,1,NA,NA,NA,left,present,NA,NA,m_s_092.jpg,black,n_s_004.jpg,white,between,NA,NaN,NA,right,3191,0,3,1945.5999999996275
gDFT4aTX,33tgb4g0msu3alll9rtp1nk6wbyxtf,3ts1ar6uqur1zlvnnwp4f4o95rm7fq,gDFT4aTX,2020-0188,2021-10-15,11:32:19,12:47:26,NA,incomplete,true,NA,true,0,2,NA,NA,NA,right,present,NA,NA,n_l_063.jpg,blue,n_s_028.jpg,blue,within,NA,NaN,NA,left,2775.4000000003725,0,2,2446.7999999988824
gDFT4aTX,33tgb4g0msu3alll9rtp1nk6wbyxtf,3ts1ar6uqur1zlvnnwp4f4o95rm7fq,gDFT4aTX,2020-0188,2021-10-15,11:32:19,12:47:26,NA,incomplete,true,NA,true,0,3,NA,NA,NA,right,absent,NA,NA,m_s_003.jpg,yellow,m_s_026.jpg,yellow,within,NA,NaN,NA,right,1632.0999999996275,1,3,1375.2999999988824
gDFT4aTX,33tgb4g0msu3alll9rtp1nk6wbyxtf,3ts1ar6uqur1zlvnnwp4f4o95rm7fq,gDFT4aTX,2020-0188,2021-10-15,11:32:19,12:47:26,NA,incomplete,true,NA,true,0,4,NA,NA,NA,left,absent,NA,NA,n_l_097.jpg,green,n_l_059.jpg,green,within,NA,NaN,NA,left,10794.099999999627,1,3,1245
gDFT4aTX,33tgb4g0msu3alll9rtp1nk6wbyxtf,3ts1ar6uqur1zlvnnwp4f4o95rm7fq,gDFT4aTX,2020-0188,2021-10-15,11:32:19,12:47:26,NA,incomplete,true,NA,true,0,5,NA,NA,NA,left,absent,NA,NA,n_s_106.jpg,purple,m_l_023.jpg,yellow,between,NA,NaN,NA,left,2999.0999999996275,1,1,1144
gDFT4aTX,33tgb4g0msu3alll9rtp1nk6wbyxtf,3ts1ar6uqur1zlvnnwp4f4o95rm7fq,gDFT4aTX,2020-0188,2021-10-15,11:32:19,12:47:26,NA,incomplete,true,NA,true,0,6,NA,NA,NA,right,absent,NA,NA,m_s_115.jpg,purple,n_l_002.jpg,purple,within,NA,NaN,NA,left,4092,0,2,1545.5999999996275
gDFT4aTX,33tgb4g0msu3alll9rtp1nk6wbyxtf,3ts1ar6uqur1zlvnnwp4f4o95rm7fq,gDFT4aTX,2020-0188,2021-10-15,11:32:19,12:47:26,NA,incomplete,true,NA,true,0,7,NA,NA,NA,left,absent,NA,NA,m_l_001.jpg,black,n_l_019.jpg,black,within,NA,NaN,NA,left,2613.7999999988824,1,2,1198
gDFT4aTX,33tgb4g0msu3alll9rtp1nk6wbyxtf,3ts1ar6uqur1zlvnnwp4f4o95rm7fq,gDFT4aTX,2020-0188,2021-10-15,11:32:19,12:47:26,NA,incomplete,true,NA,true,0,8,NA,NA,NA,right,present,NA,NA,n_s_086.jpg,white,m_l_033.jpg,white,within,NA,NaN,NA,left,1515.3999999985099,0,3,1264.9000000003725
gDFT4aTX,33tgb4g0msu3alll9rtp1nk6wbyxtf,3ts1ar6uqur1zlvnnwp4f4o95rm7fq,gDFT4aTX,2020-0188,2021-10-15,11:32:19,12:47:26,NA,incomplete,true,NA,true,0,9,NA,NA,NA,left,present,NA,NA,m_s_068.jpg,white,n_l_045.jpg,blue,between,NA,NaN,NA,right,37301.199999999255,0,3,1141.4000000003725
gDFT4aTX,33tgb4g0msu3alll9rtp1nk6wbyxtf,3ts1ar6uqur1zlvnnwp4f4o95rm7fq,gDFT4aTX,2020-0188,2021-10-15,11:32:19,12:47:26,NA,incomplete,true,NA,true,0,10,NA,NA,NA,right,absent,NA,NA,n_s_079.jpg,black,n_l_037.jpg,green,between,NA,NaN,NA,right,52981.29999999888,1,3,1095.5
gDFT4aTX,33tgb4g0msu3alll9rtp1nk6wbyxtf,3ts1ar6uqur1zlvnnwp4f4o95rm7fq,gDFT4aTX,2020-0188,2021-10-15,11:32:19,12:47:26,NA,incomplete,false,true,NA,1,0,NA,white,n_s_053.jpg,NA,NA,pleasant,unpleasant,NA,NA,NA,NA,NA,right,2739.59999999963,true,NA,NA,NA,NA,NA
gDFT4aTX,33tgb4g0msu3alll9rtp1nk6wbyxtf,3ts1ar6uqur1zlvnnwp4f4o95rm7fq,gDFT4aTX,2020-0188,2021-10-15,11:32:19,12:47:26,NA,incomplete,false,true,NA,1,1,NA,white,m_s_082.jpg,NA,NA,pleasant,unpleasant,NA,NA,NA,NA,NA,right,790.099999999627,true,NA,NA,NA,NA,NA
gDFT4aTX,33tgb4g0msu3alll9rtp1nk6wbyxtf,3ts1ar6uqur1zlvnnwp4f4o95rm7fq,gDFT4aTX,2020-0188,2021-10-15,11:32:19,12:47:26,NA,incomplete,false,true,NA,1,2,NA,white,n_l_101.jpg,NA,NA,pleasant,unpleasant,NA,NA,NA,NA,NA,none,0,false,NA,NA,NA,NA,NA
gDFT4aTX,33tgb4g0msu3alll9rtp1nk6wbyxtf,3ts1ar6uqur1zlvnnwp4f4o95rm7fq,gDFT4aTX,2020-0188,2021-10-15,11:32:19,12:47:26,NA,incomplete,false,true,NA,1,3,NA,white,m_s_036.jpg,NA,NA,pleasant,unpleasant,NA,NA,NA,NA,NA,left,912.599999999627,true,NA,NA,NA,NA,NA
gDFT4aTX,33tgb4g0msu3alll9rtp1nk6wbyxtf,3ts1ar6uqur1zlvnnwp4f4o95rm7fq,gDFT4aTX,2020-0188,2021-10-15,11:32:19,12:47:26,NA,incomplete,false,true,NA,1,4,NA,white,n_l_079.jpg,NA,NA,unpleasant,pleasant,NA,NA,NA,NA,NA,right,1524.90000000037,true,NA,NA,NA,NA,NA
gDFT4aTX,33tgb4g0msu3alll9rtp1nk6wbyxtf,3ts1ar6uqur1zlvnnwp4f4o95rm7fq,gDFT4aTX,2020-0188,2021-10-15,11:32:19,12:47:26,NA,incomplete,false,true,NA,1,5,NA,white,n_s_098.jpg,NA,NA,unpleasant,pleasant,NA,NA,NA,NA,NA,right,2137.5,true,NA,NA,NA,NA,NA
gDFT4aTX,33tgb4g0msu3alll9rtp1nk6wbyxtf,3ts1ar6uqur1zlvnnwp4f4o95rm7fq,gDFT4aTX,2020-0188,2021-10-15,11:32:19,12:47:26,NA,incomplete,false,true,NA,1,6,NA,green,m_l_037.jpg,NA,NA,unpleasant,pleasant,NA,NA,NA,NA,NA,right,923.300000000745,true,NA,NA,NA,NA,NA
gDFT4aTX,33tgb4g0msu3alll9rtp1nk6wbyxtf,3ts1ar6uqur1zlvnnwp4f4o95rm7fq,gDFT4aTX,2020-0188,2021-10-15,11:32:19,12:47:26,NA,incomplete,false,true,NA,1,7,NA,green,m_l_016.jpg,NA,NA,unpleasant,pleasant,NA,NA,NA,NA,NA,right,1208.09999999963,true,NA,NA,NA,NA,NA
gDFT4aTX,33tgb4g0msu3alll9rtp1nk6wbyxtf,3ts1ar6uqur1zlvnnwp4f4o95rm7fq,gDFT4aTX,2020-0188,2021-10-15,11:32:19,12:47:26,NA,incomplete,false,true,NA,1,8,NA,green,m_s_015.jpg,NA,NA,unpleasant,pleasant,NA,NA,NA,NA,NA,right,1321,true,NA,NA,NA,NA,NA
gDFT4aTX,33tgb4g0msu3alll9rtp1nk6wbyxtf,3ts1ar6uqur1zlvnnwp4f4o95rm7fq,gDFT4aTX,2020-0188,2021-10-15,11:32:19,12:47:26,NA,incomplete,false,true,NA,1,9,NA,green,n_s_021.jpg,NA,NA,unpleasant,pleasant,NA,NA,NA,NA,NA,right,600.700000001118,true,NA,NA,NA,NA,NA
gDFT4aTX,33tgb4g0msu3alll9rtp1nk6wbyxtf,3ts1ar6uqur1zlvnnwp4f4o95rm7fq,gDFT4aTX,2020-0188,2021-10-15,11:32:19,12:47:26,NA,incomplete,false,true,NA,1,10,NA,green,n_s_015.jpg,NA,NA,pleasant,unpleasant,NA,NA,NA,NA,NA,right,2435.90000000037,true,NA,NA,NA,NA,NA
gDFT4aTX,33tgb4g0msu3alll9rtp1nk6wbyxtf,3ts1ar6uqur1zlvnnwp4f4o95rm7fq,gDFT4aTX,2020-0188,2021-10-15,11:32:19,12:47:26,NA,incomplete,false,true,NA,1,11,NA,green,m_s_051.jpg,NA,NA,unpleasant,pleasant,NA,NA,NA,NA,NA,left,380.200000001118,true,NA,NA,NA,NA,NA
gDFT4aTX,33tgb4g0msu3alll9rtp1nk6wbyxtf,3ts1ar6uqur1zlvnnwp4f4o95rm7fq,gDFT4aTX,2020-0188,2021-10-15,11:32:19,12:47:26,NA,incomplete,false,true,NA,1,12,NA,orange,n_l_061.jpg,NA,NA,pleasant,unpleasant,NA,NA,NA,NA,NA,left,1123.70000000112,true,NA,NA,NA,NA,NA
gDFT4aTX,33tgb4g0msu3alll9rtp1nk6wbyxtf,3ts1ar6uqur1zlvnnwp4f4o95rm7fq,gDFT4aTX,2020-0188,2021-10-15,11:32:19,12:47:26,NA,incomplete,false,true,NA,1,13,NA,orange,m_s_006.jpg,NA,NA,pleasant,unpleasant,NA,NA,NA,NA,NA,left,1092.5,true,NA,NA,NA,NA,NA
gDFT4aTX,33tgb4g0msu3alll9rtp1nk6wbyxtf,3ts1ar6uqur1zlvnnwp4f4o95rm7fq,gDFT4aTX,2020-0188,2021-10-15,11:32:19,12:47:26,NA,incomplete,false,true,NA,1,14,NA,orange,m_l_076.jpg,NA,NA,unpleasant,pleasant,NA,NA,NA,NA,NA,right,1136.30000000075,true,NA,NA,NA,NA,NA
gDFT4aTX,33tgb4g0msu3alll9rtp1nk6wbyxtf,3ts1ar6uqur1zlvnnwp4f4o95rm7fq,gDFT4aTX,2020-0188,2021-10-15,11:32:19,12:47:26,NA,incomplete,false,true,NA,1,15,NA,orange,n_l_111.jpg,NA,NA,pleasant,unpleasant,NA,NA,NA,NA,NA,none,0,false,NA,NA,NA,NA,NA
gDFT4aTX,33tgb4g0msu3alll9rtp1nk6wbyxtf,3ts1ar6uqur1zlvnnwp4f4o95rm7fq,gDFT4aTX,2020-0188,2021-10-15,11:32:19,12:47:26,NA,incomplete,false,true,NA,1,16,NA,orange,m_l_069.jpg,NA,NA,pleasant,unpleasant,NA,NA,NA,NA,NA,right,1950.39999999851,true,NA,NA,NA,NA,NA
gDFT4aTX,33tgb4g0msu3alll9rtp1nk6wbyxtf,3ts1ar6uqur1zlvnnwp4f4o95rm7fq,gDFT4aTX,2020-0188,2021-10-15,11:32:19,12:47:26,NA,incomplete,false,true,NA,1,17,NA,orange,m_l_060.jpg,NA,NA,unpleasant,pleasant,NA,NA,NA,NA,NA,right,1470.80000000075,true,NA,NA,NA,NA,NA
gDFT4aTX,33tgb4g0msu3alll9rtp1nk6wbyxtf,3ts1ar6uqur1zlvnnwp4f4o95rm7fq,gDFT4aTX,2020-0188,2021-10-15,11:32:19,12:47:26,NA,incomplete,false,true,NA,1,18,NA,black,n_s_063.jpg,NA,NA,unpleasant,pleasant,NA,NA,NA,NA,NA,right,1002.40000000037,true,NA,NA,NA,NA,NA
gDFT4aTX,33tgb4g0msu3alll9rtp1nk6wbyxtf,3ts1ar6uqur1zlvnnwp4f4o95rm7fq,gDFT4aTX,2020-0188,2021-10-15,11:32:19,12:47:26,NA,incomplete,false,true,NA,1,19,NA,black,n_s_050.jpg,NA,NA,pleasant,unpleasant,NA,NA,NA,NA,NA,right,1658.09999999963,true,NA,NA,NA,NA,NA
gDFT4aTX,33tgb4g0msu3alll9rtp1nk6wbyxtf,3ts1ar6uqur1zlvnnwp4f4o95rm7fq,gDFT4aTX,2020-0188,2021-10-15,11:32:19,12:47:26,NA,incomplete,false,true,NA,1,20,NA,black,n_s_018.jpg,NA,NA,unpleasant,pleasant,NA,NA,NA,NA,NA,left,1824.19999999925,true,NA,NA,NA,NA,NA
gDFT4aTX,33tgb4g0msu3alll9rtp1nk6wbyxtf,3ts1ar6uqur1zlvnnwp4f4o95rm7fq,gDFT4aTX,2020-0188,2021-10-15,11:32:19,12:47:26,NA,incomplete,false,true,NA,1,21,NA,black,n_l_047.jpg,NA,NA,pleasant,unpleasant,NA,NA,NA,NA,NA,left,1561,true,NA,NA,NA,NA,NA
gDFT4aTX,33tgb4g0msu3alll9rtp1nk6wbyxtf,3ts1ar6uqur1zlvnnwp4f4o95rm7fq,gDFT4aTX,2020-0188,2021-10-15,11:32:19,12:47:26,NA,incomplete,false,true,NA,1,22,NA,black,m_l_068.jpg,NA,NA,pleasant,unpleasant,NA,NA,NA,NA,NA,right,1216.59999999963,true,NA,NA,NA,NA,NA
gDFT4aTX,33tgb4g0msu3alll9rtp1nk6wbyxtf,3ts1ar6uqur1zlvnnwp4f4o95rm7fq,gDFT4aTX,2020-0188,2021-10-15,11:32:19,12:47:26,NA,incomplete,false,true,NA,1,23,NA,black,m_s_107.jpg,NA,NA,unpleasant,pleasant,NA,NA,NA,NA,NA,right,1446.09999999963,true,NA,NA,NA,NA,NA
gDFT4aTX,33tgb4g0msu3alll9rtp1nk6wbyxtf,3ts1ar6uqur1zlvnnwp4f4o95rm7fq,gDFT4aTX,2020-0188,2021-10-15,11:32:19,12:47:26,NA,incomplete,false,true,NA,1,24,NA,red,m_s_060.jpg,NA,NA,pleasant,unpleasant,NA,NA,NA,NA,NA,left,1485.80000000075,true,NA,NA,NA,NA,NA
gDFT4aTX,33tgb4g0msu3alll9rtp1nk6wbyxtf,3ts1ar6uqur1zlvnnwp4f4o95rm7fq,gDFT4aTX,2020-0188,2021-10-15,11:32:19,12:47:26,NA,incomplete,false,true,NA,1,25,NA,red,m_l_070.jpg,NA,NA,pleasant,unpleasant,NA,NA,NA,NA,NA,left,1203.59999999963,true,NA,NA,NA,NA,NA
gDFT4aTX,33tgb4g0msu3alll9rtp1nk6wbyxtf,3ts1ar6uqur1zlvnnwp4f4o95rm7fq,gDFT4aTX,2020-0188,2021-10-15,11:32:19,12:47:26,NA,incomplete,false,true,NA,1,26,NA,red,m_l_090.jpg,NA,NA,unpleasant,pleasant,NA,NA,NA,NA,NA,right,1243.90000000037,true,NA,NA,NA,NA,NA
gDFT4aTX,33tgb4g0msu3alll9rtp1nk6wbyxtf,3ts1ar6uqur1zlvnnwp4f4o95rm7fq,gDFT4aTX,2020-0188,2021-10-15,11:32:19,12:47:26,NA,incomplete,false,true,NA,1,27,NA,red,n_l_108.jpg,NA,NA,pleasant,unpleasant,NA,NA,NA,NA,NA,right,2052.19999999925,true,NA,NA,NA,NA,NA
gDFT4aTX,33tgb4g0msu3alll9rtp1nk6wbyxtf,3ts1ar6uqur1zlvnnwp4f4o95rm7fq,gDFT4aTX,2020-0188,2021-10-15,11:32:19,12:47:26,NA,incomplete,false,true,NA,1,28,NA,red,m_l_004.jpg,NA,NA,unpleasant,pleasant,NA,NA,NA,NA,NA,none,0,false,NA,NA,NA,NA,NA
gDFT4aTX,33tgb4g0msu3alll9rtp1nk6wbyxtf,3ts1ar6uqur1zlvnnwp4f4o95rm7fq,gDFT4aTX,2020-0188,2021-10-15,11:32:19,12:47:26,NA,incomplete,false,true,NA,1,29,NA,red,m_l_114.jpg,NA,NA,unpleasant,pleasant,NA,NA,NA,NA,NA,none,0,false,NA,NA,NA,NA,NA
gDFT4aTX,33tgb4g0msu3alll9rtp1nk6wbyxtf,3ts1ar6uqur1zlvnnwp4f4o95rm7fq,gDFT4aTX,2020-0188,2021-10-15,11:32:19,12:47:26,NA,incomplete,false,true,NA,1,30,NA,yellow,n_l_066.jpg,NA,NA,pleasant,unpleasant,NA,NA,NA,NA,NA,left,1447.19999999925,true,NA,NA,NA,NA,NA
gDFT4aTX,33tgb4g0msu3alll9rtp1nk6wbyxtf,3ts1ar6uqur1zlvnnwp4f4o95rm7fq,gDFT4aTX,2020-0188,2021-10-15,11:32:19,12:47:26,NA,incomplete,false,true,NA,1,31,NA,yellow,n_s_025.jpg,NA,NA,pleasant,unpleasant,NA,NA,NA,NA,NA,left,944.400000000373,true,NA,NA,NA,NA,NA
gDFT4aTX,33tgb4g0msu3alll9rtp1nk6wbyxtf,3ts1ar6uqur1zlvnnwp4f4o95rm7fq,gDFT4aTX,2020-0188,2021-10-15,11:32:19,12:47:26,NA,incomplete,false,true,NA,1,32,NA,yellow,m_s_117.jpg,NA,NA,pleasant,unpleasant,NA,NA,NA,NA,NA,left,1603,true,NA,NA,NA,NA,NA
gDFT4aTX,33tgb4g0msu3alll9rtp1nk6wbyxtf,3ts1ar6uqur1zlvnnwp4f4o95rm7fq,gDFT4aTX,2020-0188,2021-10-15,11:32:19,12:47:26,NA,incomplete,false,true,NA,1,33,NA,yellow,n_s_042.jpg,NA,NA,unpleasant,pleasant,NA,NA,NA,NA,NA,left,1268.30000000075,true,NA,NA,NA,NA,NA
gDFT4aTX,33tgb4g0msu3alll9rtp1nk6wbyxtf,3ts1ar6uqur1zlvnnwp4f4o95rm7fq,gDFT4aTX,2020-0188,2021-10-15,11:32:19,12:47:26,NA,incomplete,false,true,NA,1,34,NA,yellow,m_l_026.jpg,NA,NA,pleasant,unpleasant,NA,NA,NA,NA,NA,left,1052.40000000037,true,NA,NA,NA,NA,NA
gDFT4aTX,33tgb4g0msu3alll9rtp1nk6wbyxtf,3ts1ar6uqur1zlvnnwp4f4o95rm7fq,gDFT4aTX,2020-0188,2021-10-15,11:32:19,12:47:26,NA,incomplete,false,true,NA,1,35,NA,yellow,m_s_078.jpg,NA,NA,unpleasant,pleasant,NA,NA,NA,NA,NA,right,1322.89999999851,true,NA,NA,NA,NA,NA
gDFT4aTX,33tgb4g0msu3alll9rtp1nk6wbyxtf,3ts1ar6uqur1zlvnnwp4f4o95rm7fq,gDFT4aTX,2020-0188,2021-10-15,11:32:19,12:47:26,NA,incomplete,false,NA,true,1,0,NA,NA,NA,left,absent,NA,NA,m_s_006.jpg,orange,m_l_060.jpg,orange,within,NA,NaN,NA,right,2820.7000000011176,0,3,4618.5999999996275
gDFT4aTX,33tgb4g0msu3alll9rtp1nk6wbyxtf,3ts1ar6uqur1zlvnnwp4f4o95rm7fq,gDFT4aTX,2020-0188,2021-10-15,11:32:19,12:47:26,NA,incomplete,false,NA,true,1,1,NA,NA,NA,left,absent,NA,NA,m_l_016.jpg,green,m_s_051.jpg,green,within,NA,NaN,NA,right,1747.0999999996275,0,3,3472.9000000003725
gDFT4aTX,33tgb4g0msu3alll9rtp1nk6wbyxtf,3ts1ar6uqur1zlvnnwp4f4o95rm7fq,gDFT4aTX,2020-0188,2021-10-15,11:32:19,12:47:26,NA,incomplete,false,NA,true,1,2,NA,NA,NA,left,absent,NA,NA,m_s_082.jpg,white,n_s_098.jpg,white,within,NA,NaN,NA,left,1398.4000000003725,1,1,1820.4000000003725
gDFT4aTX,33tgb4g0msu3alll9rtp1nk6wbyxtf,3ts1ar6uqur1zlvnnwp4f4o95rm7fq,gDFT4aTX,2020-0188,2021-10-15,11:32:19,12:47:26,NA,incomplete,false,NA,true,1,3,NA,NA,NA,left,absent,NA,NA,m_l_004.jpg,red,m_s_117.jpg,yellow,between,NA,NaN,NA,right,1714.199999999255,0,3,1884.7000000011176
gDFT4aTX,33tgb4g0msu3alll9rtp1nk6wbyxtf,3ts1ar6uqur1zlvnnwp4f4o95rm7fq,gDFT4aTX,2020-0188,2021-10-15,11:32:19,12:47:26,NA,incomplete,false,NA,true,1,4,NA,NA,NA,left,absent,NA,NA,n_s_015.jpg,green,m_l_076.jpg,orange,between,NA,NaN,NA,left,1741,1,2,1189.5999999996275
gDFT4aTX,33tgb4g0msu3alll9rtp1nk6wbyxtf,3ts1ar6uqur1zlvnnwp4f4o95rm7fq,gDFT4aTX,2020-0188,2021-10-15,11:32:19,12:47:26,NA,incomplete,false,NA,true,1,5,NA,NA,NA,left,absent,NA,NA,m_l_068.jpg,black,m_l_090.jpg,red,between,NA,NaN,NA,right,2939.9000000003725,0,3,1538.2999999988824
gDFT4aTX,33tgb4g0msu3alll9rtp1nk6wbyxtf,3ts1ar6uqur1zlvnnwp4f4o95rm7fq,gDFT4aTX,2020-0188,2021-10-15,11:32:19,12:47:26,NA,incomplete,false,NA,true,1,6,NA,NA,NA,right,absent,NA,NA,m_s_107.jpg,black,n_s_050.jpg,black,within,NA,NaN,NA,right,1576,1,3,9117.199999999255
gDFT4aTX,33tgb4g0msu3alll9rtp1nk6wbyxtf,3ts1ar6uqur1zlvnnwp4f4o95rm7fq,gDFT4aTX,2020-0188,2021-10-15,11:32:19,12:47:26,NA,incomplete,false,NA,true,1,7,NA,NA,NA,left,absent,NA,NA,n_l_079.jpg,white,m_s_015.jpg,green,between,NA,NaN,NA,left,3155.800000000745,1,0,1099.5
gDFT4aTX,33tgb4g0msu3alll9rtp1nk6wbyxtf,3ts1ar6uqur1zlvnnwp4f4o95rm7fq,gDFT4aTX,2020-0188,2021-10-15,11:32:19,12:47:26,NA,incomplete,false,NA,true,1,8,NA,NA,NA,right,absent,NA,NA,m_s_078.jpg,yellow,n_s_025.jpg,yellow,within,NA,NaN,NA,right,8280.900000000373,1,0,1167.199999999255
gDFT4aTX,33tgb4g0msu3alll9rtp1nk6wbyxtf,3ts1ar6uqur1zlvnnwp4f4o95rm7fq,gDFT4aTX,2020-0188,2021-10-15,11:32:19,12:47:26,NA,incomplete,false,NA,true,1,9,NA,NA,NA,right,absent,NA,NA,m_l_114.jpg,red,m_l_070.jpg,red,within,NA,NaN,NA,left,1315,0,3,1041.9000000003725
gDFT4aTX,33tgb4g0msu3alll9rtp1nk6wbyxtf,3ts1ar6uqur1zlvnnwp4f4o95rm7fq,gDFT4aTX,2020-0188,2021-10-15,11:32:19,12:47:26,NA,incomplete,false,NA,true,1,10,NA,NA,NA,left,absent,NA,NA,m_l_069.jpg,orange,n_s_018.jpg,black,between,NA,NaN,NA,right,1360.800000000745,0,1,1918.9000000003725
gDFT4aTX,33tgb4g0msu3alll9rtp1nk6wbyxtf,3ts1ar6uqur1zlvnnwp4f4o95rm7fq,gDFT4aTX,2020-0188,2021-10-15,11:32:19,12:47:26,NA,incomplete,false,true,NA,2,0,NA,yellow,n_s_062.jpg,NA,NA,pleasant,unpleasant,NA,NA,NA,NA,NA,left,1493.69999999925,true,NA,NA,NA,NA,NA
gDFT4aTX,33tgb4g0msu3alll9rtp1nk6wbyxtf,3ts1ar6uqur1zlvnnwp4f4o95rm7fq,gDFT4aTX,2020-0188,2021-10-15,11:32:19,12:47:26,NA,incomplete,false,true,NA,2,1,NA,yellow,m_s_030.jpg,NA,NA,pleasant,unpleasant,NA,NA,NA,NA,NA,left,1464,true,NA,NA,NA,NA,NA
gDFT4aTX,33tgb4g0msu3alll9rtp1nk6wbyxtf,3ts1ar6uqur1zlvnnwp4f4o95rm7fq,gDFT4aTX,2020-0188,2021-10-15,11:32:19,12:47:26,NA,incomplete,false,true,NA,2,2,NA,yellow,n_l_098.jpg,NA,NA,unpleasant,pleasant,NA,NA,NA,NA,NA,left,848.89999999851,true,NA,NA,NA,NA,NA
gDFT4aTX,33tgb4g0msu3alll9rtp1nk6wbyxtf,3ts1ar6uqur1zlvnnwp4f4o95rm7fq,gDFT4aTX,2020-0188,2021-10-15,11:32:19,12:47:26,NA,incomplete,false,true,NA,2,3,NA,yellow,m_s_001.jpg,NA,NA,unpleasant,pleasant,NA,NA,NA,NA,NA,right,1809,true,NA,NA,NA,NA,NA
gDFT4aTX,33tgb4g0msu3alll9rtp1nk6wbyxtf,3ts1ar6uqur1zlvnnwp4f4o95rm7fq,gDFT4aTX,2020-0188,2021-10-15,11:32:19,12:47:26,NA,incomplete,false,true,NA,2,4,NA,yellow,m_s_085.jpg,NA,NA,pleasant,unpleasant,NA,NA,NA,NA,NA,none,0,false,NA,NA,NA,NA,NA
gDFT4aTX,33tgb4g0msu3alll9rtp1nk6wbyxtf,3ts1ar6uqur1zlvnnwp4f4o95rm7fq,gDFT4aTX,2020-0188,2021-10-15,11:32:19,12:47:26,NA,incomplete,false,true,NA,2,5,NA,yellow,m_s_020.jpg,NA,NA,pleasant,unpleasant,NA,NA,NA,NA,NA,none,0,false,NA,NA,NA,NA,NA
gDFT4aTX,33tgb4g0msu3alll9rtp1nk6wbyxtf,3ts1ar6uqur1zlvnnwp4f4o95rm7fq,gDFT4aTX,2020-0188,2021-10-15,11:32:19,12:47:26,NA,incomplete,false,true,NA,2,6,NA,black,n_s_101.jpg,NA,NA,unpleasant,pleasant,NA,NA,NA,NA,NA,left,2300.29999999888,true,NA,NA,NA,NA,NA
gDFT4aTX,33tgb4g0msu3alll9rtp1nk6wbyxtf,3ts1ar6uqur1zlvnnwp4f4o95rm7fq,gDFT4aTX,2020-0188,2021-10-15,11:32:19,12:47:26,NA,incomplete,false,true,NA,2,7,NA,black,n_s_048.jpg,NA,NA,pleasant,unpleasant,NA,NA,NA,NA,NA,left,1895.40000000037,true,NA,NA,NA,NA,NA
gDFT4aTX,33tgb4g0msu3alll9rtp1nk6wbyxtf,3ts1ar6uqur1zlvnnwp4f4o95rm7fq,gDFT4aTX,2020-0188,2021-10-15,11:32:19,12:47:26,NA,incomplete,false,true,NA,2,8,NA,black,m_l_086.jpg,NA,NA,unpleasant,pleasant,NA,NA,NA,NA,NA,right,2901.59999999963,true,NA,NA,NA,NA,NA
gDFT4aTX,33tgb4g0msu3alll9rtp1nk6wbyxtf,3ts1ar6uqur1zlvnnwp4f4o95rm7fq,gDFT4aTX,2020-0188,2021-10-15,11:32:19,12:47:26,NA,incomplete,false,true,NA,2,9,NA,black,n_l_110.jpg,NA,NA,unpleasant,pleasant,NA,NA,NA,NA,NA,right,997.400000000373,true,NA,NA,NA,NA,NA
gDFT4aTX,33tgb4g0msu3alll9rtp1nk6wbyxtf,3ts1ar6uqur1zlvnnwp4f4o95rm7fq,gDFT4aTX,2020-0188,2021-10-15,11:32:19,12:47:26,NA,incomplete,false,true,NA,2,10,NA,black,n_s_046.jpg,NA,NA,unpleasant,pleasant,NA,NA,NA,NA,NA,left,2728.80000000075,true,NA,NA,NA,NA,NA
gDFT4aTX,33tgb4g0msu3alll9rtp1nk6wbyxtf,3ts1ar6uqur1zlvnnwp4f4o95rm7fq,gDFT4aTX,2020-0188,2021-10-15,11:32:19,12:47:26,NA,incomplete,false,true,NA,2,11,NA,black,m_s_024.jpg,NA,NA,unpleasant,pleasant,NA,NA,NA,NA,NA,right,1450.19999999925,true,NA,NA,NA,NA,NA
gDFT4aTX,33tgb4g0msu3alll9rtp1nk6wbyxtf,3ts1ar6uqur1zlvnnwp4f4o95rm7fq,gDFT4aTX,2020-0188,2021-10-15,11:32:19,12:47:26,NA,incomplete,false,true,NA,2,12,NA,green,n_s_060.jpg,NA,NA,unpleasant,pleasant,NA,NA,NA,NA,NA,right,1158,true,NA,NA,NA,NA,NA
gDFT4aTX,33tgb4g0msu3alll9rtp1nk6wbyxtf,3ts1ar6uqur1zlvnnwp4f4o95rm7fq,gDFT4aTX,2020-0188,2021-10-15,11:32:19,12:47:26,NA,incomplete,false,true,NA,2,13,NA,green,n_s_114.jpg,NA,NA,pleasant,unpleasant,NA,NA,NA,NA,NA,none,0,false,NA,NA,NA,NA,NA
gDFT4aTX,33tgb4g0msu3alll9rtp1nk6wbyxtf,3ts1ar6uqur1zlvnnwp4f4o95rm7fq,gDFT4aTX,2020-0188,2021-10-15,11:32:19,12:47:26,NA,incomplete,false,true,NA,2,14,NA,green,m_l_025.jpg,NA,NA,pleasant,unpleasant,NA,NA,NA,NA,NA,left,1145.19999999925,true,NA,NA,NA,NA,NA
gDFT4aTX,33tgb4g0msu3alll9rtp1nk6wbyxtf,3ts1ar6uqur1zlvnnwp4f4o95rm7fq,gDFT4aTX,2020-0188,2021-10-15,11:32:19,12:47:26,NA,incomplete,false,true,NA,2,15,NA,green,m_s_074.jpg,NA,NA,pleasant,unpleasant,NA,NA,NA,NA,NA,left,1328.09999999963,true,NA,NA,NA,NA,NA
gDFT4aTX,33tgb4g0msu3alll9rtp1nk6wbyxtf,3ts1ar6uqur1zlvnnwp4f4o95rm7fq,gDFT4aTX,2020-0188,2021-10-15,11:32:19,12:47:26,NA,incomplete,false,true,NA,2,16,NA,green,m_s_084.jpg,NA,NA,pleasant,unpleasant,NA,NA,NA,NA,NA,left,1588.39999999851,true,NA,NA,NA,NA,NA
gDFT4aTX,33tgb4g0msu3alll9rtp1nk6wbyxtf,3ts1ar6uqur1zlvnnwp4f4o95rm7fq,gDFT4aTX,2020-0188,2021-10-15,11:32:19,12:47:26,NA,incomplete,false,true,NA,2,17,NA,green,m_s_048.jpg,NA,NA,pleasant,unpleasant,NA,NA,NA,NA,NA,left,1654.40000000037,true,NA,NA,NA,NA,NA
gDFT4aTX,33tgb4g0msu3alll9rtp1nk6wbyxtf,3ts1ar6uqur1zlvnnwp4f4o95rm7fq,gDFT4aTX,2020-0188,2021-10-15,11:32:19,12:47:26,NA,incomplete,false,true,NA,2,18,NA,purple,m_l_064.jpg,NA,NA,pleasant,unpleasant,NA,NA,NA,NA,NA,none,0,false,NA,NA,NA,NA,NA
gDFT4aTX,33tgb4g0msu3alll9rtp1nk6wbyxtf,3ts1ar6uqur1zlvnnwp4f4o95rm7fq,gDFT4aTX,2020-0188,2021-10-15,11:32:19,12:47:26,NA,incomplete,false,true,NA,2,19,NA,purple,n_l_014.jpg,NA,NA,unpleasant,pleasant,NA,NA,NA,NA,NA,none,0,false,NA,NA,NA,NA,NA
gDFT4aTX,33tgb4g0msu3alll9rtp1nk6wbyxtf,3ts1ar6uqur1zlvnnwp4f4o95rm7fq,gDFT4aTX,2020-0188,2021-10-15,11:32:19,12:47:26,NA,incomplete,false,true,NA,2,20,NA,purple,n_s_074.jpg,NA,NA,unpleasant,pleasant,NA,NA,NA,NA,NA,left,2652.59999999963,true,NA,NA,NA,NA,NA
gDFT4aTX,33tgb4g0msu3alll9rtp1nk6wbyxtf,3ts1ar6uqur1zlvnnwp4f4o95rm7fq,gDFT4aTX,2020-0188,2021-10-15,11:32:19,12:47:26,NA,incomplete,false,true,NA,2,21,NA,purple,m_s_071.jpg,NA,NA,unpleasant,pleasant,NA,NA,NA,NA,NA,right,2093.69999999925,true,NA,NA,NA,NA,NA
gDFT4aTX,33tgb4g0msu3alll9rtp1nk6wbyxtf,3ts1ar6uqur1zlvnnwp4f4o95rm7fq,gDFT4aTX,2020-0188,2021-10-15,11:32:19,12:47:26,NA,incomplete,false,true,NA,2,22,NA,purple,n_l_091.jpg,NA,NA,unpleasant,pleasant,NA,NA,NA,NA,NA,none,0,false,NA,NA,NA,NA,NA
gDFT4aTX,33tgb4g0msu3alll9rtp1nk6wbyxtf,3ts1ar6uqur1zlvnnwp4f4o95rm7fq,gDFT4aTX,2020-0188,2021-10-15,11:32:19,12:47:26,NA,incomplete,false,true,NA,2,23,NA,purple,m_l_080.jpg,NA,NA,unpleasant,pleasant,NA,NA,NA,NA,NA,right,2158.79999999888,true,NA,NA,NA,NA,NA
gDFT4aTX,33tgb4g0msu3alll9rtp1nk6wbyxtf,3ts1ar6uqur1zlvnnwp4f4o95rm7fq,gDFT4aTX,2020-0188,2021-10-15,11:32:19,12:47:26,NA,incomplete,false,true,NA,2,24,NA,brown,m_s_072.jpg,NA,NA,unpleasant,pleasant,NA,NA,NA,NA,NA,right,1504,true,NA,NA,NA,NA,NA
gDFT4aTX,33tgb4g0msu3alll9rtp1nk6wbyxtf,3ts1ar6uqur1zlvnnwp4f4o95rm7fq,gDFT4aTX,2020-0188,2021-10-15,11:32:19,12:47:26,NA,incomplete,false,true,NA,2,25,NA,brown,n_s_031.jpg,NA,NA,pleasant,unpleasant,NA,NA,NA,NA,NA,left,1494.80000000075,true,NA,NA,NA,NA,NA
gDFT4aTX,33tgb4g0msu3alll9rtp1nk6wbyxtf,3ts1ar6uqur1zlvnnwp4f4o95rm7fq,gDFT4aTX,2020-0188,2021-10-15,11:32:19,12:47:26,NA,incomplete,false,true,NA,2,26,NA,brown,m_l_102.jpg,NA,NA,pleasant,unpleasant,NA,NA,NA,NA,NA,left,1551.70000000112,true,NA,NA,NA,NA,NA
gDFT4aTX,33tgb4g0msu3alll9rtp1nk6wbyxtf,3ts1ar6uqur1zlvnnwp4f4o95rm7fq,gDFT4aTX,2020-0188,2021-10-15,11:32:19,12:47:26,NA,incomplete,false,true,NA,2,27,NA,brown,n_s_030.jpg,NA,NA,unpleasant,pleasant,NA,NA,NA,NA,NA,none,0,false,NA,NA,NA,NA,NA
gDFT4aTX,33tgb4g0msu3alll9rtp1nk6wbyxtf,3ts1ar6uqur1zlvnnwp4f4o95rm7fq,gDFT4aTX,2020-0188,2021-10-15,11:32:19,12:47:26,NA,incomplete,false,true,NA,2,28,NA,brown,n_l_048.jpg,NA,NA,unpleasant,pleasant,NA,NA,NA,NA,NA,right,1271.09999999963,true,NA,NA,NA,NA,NA
gDFT4aTX,33tgb4g0msu3alll9rtp1nk6wbyxtf,3ts1ar6uqur1zlvnnwp4f4o95rm7fq,gDFT4aTX,2020-0188,2021-10-15,11:32:19,12:47:26,NA,incomplete,false,true,NA,2,29,NA,brown,m_s_099.jpg,NA,NA,pleasant,unpleasant,NA,NA,NA,NA,NA,left,1329,true,NA,NA,NA,NA,NA
gDFT4aTX,33tgb4g0msu3alll9rtp1nk6wbyxtf,3ts1ar6uqur1zlvnnwp4f4o95rm7fq,gDFT4aTX,2020-0188,2021-10-15,11:32:19,12:47:26,NA,incomplete,false,true,NA,2,30,NA,blue,m_l_095.jpg,NA,NA,unpleasant,pleasant,NA,NA,NA,NA,NA,right,1939.39999999851,true,NA,NA,NA,NA,NA
gDFT4aTX,33tgb4g0msu3alll9rtp1nk6wbyxtf,3ts1ar6uqur1zlvnnwp4f4o95rm7fq,gDFT4aTX,2020-0188,2021-10-15,11:32:19,12:47:26,NA,incomplete,false,true,NA,2,31,NA,blue,m_l_108.jpg,NA,NA,pleasant,unpleasant,NA,NA,NA,NA,NA,left,1474.69999999925,true,NA,NA,NA,NA,NA
gDFT4aTX,33tgb4g0msu3alll9rtp1nk6wbyxtf,3ts1ar6uqur1zlvnnwp4f4o95rm7fq,gDFT4aTX,2020-0188,2021-10-15,11:32:19,12:47:26,NA,incomplete,false,true,NA,2,32,NA,blue,m_l_091.jpg,NA,NA,pleasant,unpleasant,NA,NA,NA,NA,NA,left,1438.80000000075,true,NA,NA,NA,NA,NA
gDFT4aTX,33tgb4g0msu3alll9rtp1nk6wbyxtf,3ts1ar6uqur1zlvnnwp4f4o95rm7fq,gDFT4aTX,2020-0188,2021-10-15,11:32:19,12:47:26,NA,incomplete,false,true,NA,2,33,NA,blue,n_s_026.jpg,NA,NA,pleasant,unpleasant,NA,NA,NA,NA,NA,left,960.5,true,NA,NA,NA,NA,NA
gDFT4aTX,33tgb4g0msu3alll9rtp1nk6wbyxtf,3ts1ar6uqur1zlvnnwp4f4o95rm7fq,gDFT4aTX,2020-0188,2021-10-15,11:32:19,12:47:26,NA,incomplete,false,true,NA,2,34,NA,blue,m_s_005.jpg,NA,NA,pleasant,unpleasant,NA,NA,NA,NA,NA,left,3083.30000000075,true,NA,NA,NA,NA,NA
gDFT4aTX,33tgb4g0msu3alll9rtp1nk6wbyxtf,3ts1ar6uqur1zlvnnwp4f4o95rm7fq,gDFT4aTX,2020-0188,2021-10-15,11:32:19,12:47:26,NA,incomplete,false,true,NA,2,35,NA,blue,m_l_105.jpg,NA,NA,unpleasant,pleasant,NA,NA,NA,NA,NA,none,0,false,NA,NA,NA,NA,NA
gDFT4aTX,33tgb4g0msu3alll9rtp1nk6wbyxtf,3ts1ar6uqur1zlvnnwp4f4o95rm7fq,gDFT4aTX,2020-0188,2021-10-15,11:32:19,12:47:26,NA,incomplete,false,NA,true,2,0,NA,NA,NA,left,present,NA,NA,n_s_031.jpg,brown,m_s_099.jpg,brown,within,NA,NaN,NA,left,4363.5,1,0,1916.699999999255
gDFT4aTX,33tgb4g0msu3alll9rtp1nk6wbyxtf,3ts1ar6uqur1zlvnnwp4f4o95rm7fq,gDFT4aTX,2020-0188,2021-10-15,11:32:19,12:47:26,NA,incomplete,false,NA,true,2,1,NA,NA,NA,left,present,NA,NA,m_l_108.jpg,blue,m_l_105.jpg,blue,within,NA,NaN,NA,left,3349.39999999851,1,1,1444.4000000003725
gDFT4aTX,33tgb4g0msu3alll9rtp1nk6wbyxtf,3ts1ar6uqur1zlvnnwp4f4o95rm7fq,gDFT4aTX,2020-0188,2021-10-15,11:32:19,12:47:26,NA,incomplete,false,NA,true,2,2,NA,NA,NA,left,present,NA,NA,n_s_046.jpg,black,m_l_025.jpg,green,between,NA,NaN,NA,right,2194.699999999255,0,1,1445.5999999996275
gDFT4aTX,33tgb4g0msu3alll9rtp1nk6wbyxtf,3ts1ar6uqur1zlvnnwp4f4o95rm7fq,gDFT4aTX,2020-0188,2021-10-15,11:32:19,12:47:26,NA,incomplete,false,NA,true,2,3,NA,NA,NA,right,present,NA,NA,m_s_048.jpg,green,n_s_114.jpg,green,within,NA,NaN,NA,right,2890.699999999255,1,2,1367.199999999255
gDFT4aTX,33tgb4g0msu3alll9rtp1nk6wbyxtf,3ts1ar6uqur1zlvnnwp4f4o95rm7fq,gDFT4aTX,2020-0188,2021-10-15,11:32:19,12:47:26,NA,incomplete,false,NA,true,2,4,NA,NA,NA,right,present,NA,NA,m_l_091.jpg,blue,n_l_048.jpg,brown,between,NA,NaN,NA,left,1553.4000000003725,0,2,1319.4000000003725
gDFT4aTX,33tgb4g0msu3alll9rtp1nk6wbyxtf,3ts1ar6uqur1zlvnnwp4f4o95rm7fq,gDFT4aTX,2020-0188,2021-10-15,11:32:19,12:47:26,NA,incomplete,false,NA,true,2,5,NA,NA,NA,right,present,NA,NA,m_l_102.jpg,brown,n_l_091.jpg,purple,between,NA,NaN,NA,left,1575.300000000745,0,2,2173
gDFT4aTX,33tgb4g0msu3alll9rtp1nk6wbyxtf,3ts1ar6uqur1zlvnnwp4f4o95rm7fq,gDFT4aTX,2020-0188,2021-10-15,11:32:19,12:47:26,NA,incomplete,false,NA,true,2,6,NA,NA,NA,left,present,NA,NA,n_l_014.jpg,purple,m_l_080.jpg,purple,within,NA,NaN,NA,right,1445.800000000745,0,3,972.5999999996275
gDFT4aTX,33tgb4g0msu3alll9rtp1nk6wbyxtf,3ts1ar6uqur1zlvnnwp4f4o95rm7fq,gDFT4aTX,2020-0188,2021-10-15,11:32:19,12:47:26,NA,incomplete,false,NA,true,2,7,NA,NA,NA,right,present,NA,NA,n_s_074.jpg,purple,m_s_084.jpg,green,between,NA,NaN,NA,left,2257.5,0,2,1421.7000000011176
gDFT4aTX,33tgb4g0msu3alll9rtp1nk6wbyxtf,3ts1ar6uqur1zlvnnwp4f4o95rm7fq,gDFT4aTX,2020-0188,2021-10-15,11:32:19,12:47:26,NA,incomplete,false,NA,true,2,8,NA,NA,NA,right,present,NA,NA,m_s_024.jpg,black,n_s_048.jpg,black,within,NA,NaN,NA,right,2049.800000000745,1,0,1229.6000000014901
gDFT4aTX,33tgb4g0msu3alll9rtp1nk6wbyxtf,3ts1ar6uqur1zlvnnwp4f4o95rm7fq,gDFT4aTX,2020-0188,2021-10-15,11:32:19,12:47:26,NA,incomplete,false,NA,true,2,9,NA,NA,NA,right,present,NA,NA,m_s_020.jpg,yellow,m_s_030.jpg,yellow,within,NA,NaN,NA,right,2389.5,1,3,2056.5
gDFT4aTX,33tgb4g0msu3alll9rtp1nk6wbyxtf,3ts1ar6uqur1zlvnnwp4f4o95rm7fq,gDFT4aTX,2020-0188,2021-10-15,11:32:19,12:47:26,NA,incomplete,false,NA,true,2,10,NA,NA,NA,left,present,NA,NA,m_s_085.jpg,yellow,m_l_086.jpg,black,between,NA,NaN,NA,right,3079.5,0,3,1029.300000000745
gDFT4aTX,33tgb4g0msu3alll9rtp1nk6wbyxtf,3ts1ar6uqur1zlvnnwp4f4o95rm7fq,gDFT4aTX,2020-0188,2021-10-15,11:32:19,12:47:26,NA,incomplete,false,true,NA,3,0,NA,blue,m_s_081.jpg,NA,NA,pleasant,unpleasant,NA,NA,NA,NA,NA,left,1615.09999999963,true,NA,NA,NA,NA,NA
gDFT4aTX,33tgb4g0msu3alll9rtp1nk6wbyxtf,3ts1ar6uqur1zlvnnwp4f4o95rm7fq,gDFT4aTX,2020-0188,2021-10-15,11:32:19,12:47:26,NA,incomplete,false,true,NA,3,1,NA,blue,m_s_111.jpg,NA,NA,unpleasant,pleasant,NA,NA,NA,NA,NA,left,863.5,true,NA,NA,NA,NA,NA
gDFT4aTX,33tgb4g0msu3alll9rtp1nk6wbyxtf,3ts1ar6uqur1zlvnnwp4f4o95rm7fq,gDFT4aTX,2020-0188,2021-10-15,11:32:19,12:47:26,NA,incomplete,false,true,NA,3,2,NA,blue,n_s_095.jpg,NA,NA,pleasant,unpleasant,NA,NA,NA,NA,NA,left,1159.69999999925,true,NA,NA,NA,NA,NA
gDFT4aTX,33tgb4g0msu3alll9rtp1nk6wbyxtf,3ts1ar6uqur1zlvnnwp4f4o95rm7fq,gDFT4aTX,2020-0188,2021-10-15,11:32:19,12:47:26,NA,incomplete,false,true,NA,3,3,NA,blue,m_l_053.jpg,NA,NA,pleasant,unpleasant,NA,NA,NA,NA,NA,left,1319.10000000149,true,NA,NA,NA,NA,NA
gDFT4aTX,33tgb4g0msu3alll9rtp1nk6wbyxtf,3ts1ar6uqur1zlvnnwp4f4o95rm7fq,gDFT4aTX,2020-0188,2021-10-15,11:32:19,12:47:26,NA,incomplete,false,true,NA,3,4,NA,blue,n_l_015.jpg,NA,NA,unpleasant,pleasant,NA,NA,NA,NA,NA,right,1069.70000000112,true,NA,NA,NA,NA,NA
gDFT4aTX,33tgb4g0msu3alll9rtp1nk6wbyxtf,3ts1ar6uqur1zlvnnwp4f4o95rm7fq,gDFT4aTX,2020-0188,2021-10-15,11:32:19,12:47:26,NA,incomplete,false,true,NA,3,5,NA,blue,m_s_097.jpg,NA,NA,unpleasant,pleasant,NA,NA,NA,NA,NA,left,963.60000000149,true,NA,NA,NA,NA,NA
gDFT4aTX,33tgb4g0msu3alll9rtp1nk6wbyxtf,3ts1ar6uqur1zlvnnwp4f4o95rm7fq,gDFT4aTX,2020-0188,2021-10-15,11:32:19,12:47:26,NA,incomplete,false,true,NA,3,6,NA,black,n_s_073.jpg,NA,NA,unpleasant,pleasant,NA,NA,NA,NA,NA,left,1158.30000000075,true,NA,NA,NA,NA,NA
gDFT4aTX,33tgb4g0msu3alll9rtp1nk6wbyxtf,3ts1ar6uqur1zlvnnwp4f4o95rm7fq,gDFT4aTX,2020-0188,2021-10-15,11:32:19,12:47:26,NA,incomplete,false,true,NA,3,7,NA,black,m_s_039.jpg,NA,NA,pleasant,unpleasant,NA,NA,NA,NA,NA,left,1317.89999999851,true,NA,NA,NA,NA,NA
gDFT4aTX,33tgb4g0msu3alll9rtp1nk6wbyxtf,3ts1ar6uqur1zlvnnwp4f4o95rm7fq,gDFT4aTX,2020-0188,2021-10-15,11:32:19,12:47:26,NA,incomplete,false,true,NA,3,8,NA,black,m_l_088.jpg,NA,NA,pleasant,unpleasant,NA,NA,NA,NA,NA,left,961.400000000373,true,NA,NA,NA,NA,NA
gDFT4aTX,33tgb4g0msu3alll9rtp1nk6wbyxtf,3ts1ar6uqur1zlvnnwp4f4o95rm7fq,gDFT4aTX,2020-0188,2021-10-15,11:32:19,12:47:26,NA,incomplete,false,true,NA,3,9,NA,black,m_l_027.jpg,NA,NA,pleasant,unpleasant,NA,NA,NA,NA,NA,right,3269.90000000037,true,NA,NA,NA,NA,NA
gDFT4aTX,33tgb4g0msu3alll9rtp1nk6wbyxtf,3ts1ar6uqur1zlvnnwp4f4o95rm7fq,gDFT4aTX,2020-0188,2021-10-15,11:32:19,12:47:26,NA,incomplete,false,true,NA,3,10,NA,black,n_s_115.jpg,NA,NA,pleasant,unpleasant,NA,NA,NA,NA,NA,left,1368.5,true,NA,NA,NA,NA,NA
gDFT4aTX,33tgb4g0msu3alll9rtp1nk6wbyxtf,3ts1ar6uqur1zlvnnwp4f4o95rm7fq,gDFT4aTX,2020-0188,2021-10-15,11:32:19,12:47:26,NA,incomplete,false,true,NA,3,11,NA,black,n_l_062.jpg,NA,NA,pleasant,unpleasant,NA,NA,NA,NA,NA,right,1494.30000000075,true,NA,NA,NA,NA,NA
gDFT4aTX,33tgb4g0msu3alll9rtp1nk6wbyxtf,3ts1ar6uqur1zlvnnwp4f4o95rm7fq,gDFT4aTX,2020-0188,2021-10-15,11:32:19,12:47:26,NA,incomplete,false,true,NA,3,12,NA,purple,m_s_114.jpg,NA,NA,unpleasant,pleasant,NA,NA,NA,NA,NA,right,1953.5,true,NA,NA,NA,NA,NA
gDFT4aTX,33tgb4g0msu3alll9rtp1nk6wbyxtf,3ts1ar6uqur1zlvnnwp4f4o95rm7fq,gDFT4aTX,2020-0188,2021-10-15,11:32:19,12:47:26,NA,incomplete,false,true,NA,3,13,NA,purple,n_l_077.jpg,NA,NA,unpleasant,pleasant,NA,NA,NA,NA,NA,right,1474.90000000037,true,NA,NA,NA,NA,NA
gDFT4aTX,33tgb4g0msu3alll9rtp1nk6wbyxtf,3ts1ar6uqur1zlvnnwp4f4o95rm7fq,gDFT4aTX,2020-0188,2021-10-15,11:32:19,12:47:26,NA,incomplete,false,true,NA,3,14,NA,purple,m_s_053.jpg,NA,NA,unpleasant,pleasant,NA,NA,NA,NA,NA,right,1260.40000000037,true,NA,NA,NA,NA,NA
gDFT4aTX,33tgb4g0msu3alll9rtp1nk6wbyxtf,3ts1ar6uqur1zlvnnwp4f4o95rm7fq,gDFT4aTX,2020-0188,2021-10-15,11:32:19,12:47:26,NA,incomplete,false,true,NA,3,15,NA,purple,n_l_085.jpg,NA,NA,unpleasant,pleasant,NA,NA,NA,NA,NA,right,997,true,NA,NA,NA,NA,NA
gDFT4aTX,33tgb4g0msu3alll9rtp1nk6wbyxtf,3ts1ar6uqur1zlvnnwp4f4o95rm7fq,gDFT4aTX,2020-0188,2021-10-15,11:32:19,12:47:26,NA,incomplete,false,true,NA,3,16,NA,purple,n_s_116.jpg,NA,NA,pleasant,unpleasant,NA,NA,NA,NA,NA,right,1171.90000000037,true,NA,NA,NA,NA,NA
gDFT4aTX,33tgb4g0msu3alll9rtp1nk6wbyxtf,3ts1ar6uqur1zlvnnwp4f4o95rm7fq,gDFT4aTX,2020-0188,2021-10-15,11:32:19,12:47:26,NA,incomplete,false,true,NA,3,17,NA,purple,n_l_090.jpg,NA,NA,unpleasant,pleasant,NA,NA,NA,NA,NA,left,985.299999998882,true,NA,NA,NA,NA,NA
gDFT4aTX,33tgb4g0msu3alll9rtp1nk6wbyxtf,3ts1ar6uqur1zlvnnwp4f4o95rm7fq,gDFT4aTX,2020-0188,2021-10-15,11:32:19,12:47:26,NA,incomplete,false,true,NA,3,18,NA,gray,n_l_088.jpg,NA,NA,pleasant,unpleasant,NA,NA,NA,NA,NA,left,2101.20000000112,true,NA,NA,NA,NA,NA
gDFT4aTX,33tgb4g0msu3alll9rtp1nk6wbyxtf,3ts1ar6uqur1zlvnnwp4f4o95rm7fq,gDFT4aTX,2020-0188,2021-10-15,11:32:19,12:47:26,NA,incomplete,false,true,NA,3,19,NA,gray,n_s_043.jpg,NA,NA,pleasant,unpleasant,NA,NA,NA,NA,NA,left,1767.80000000075,true,NA,NA,NA,NA,NA
gDFT4aTX,33tgb4g0msu3alll9rtp1nk6wbyxtf,3ts1ar6uqur1zlvnnwp4f4o95rm7fq,gDFT4aTX,2020-0188,2021-10-15,11:32:19,12:47:26,NA,incomplete,false,true,NA,3,20,NA,gray,n_s_044.jpg,NA,NA,unpleasant,pleasant,NA,NA,NA,NA,NA,right,1375.20000000112,true,NA,NA,NA,NA,NA
gDFT4aTX,33tgb4g0msu3alll9rtp1nk6wbyxtf,3ts1ar6uqur1zlvnnwp4f4o95rm7fq,gDFT4aTX,2020-0188,2021-10-15,11:32:19,12:47:26,NA,incomplete,false,true,NA,3,21,NA,gray,n_l_092.jpg,NA,NA,pleasant,unpleasant,NA,NA,NA,NA,NA,left,1708.09999999963,true,NA,NA,NA,NA,NA
gDFT4aTX,33tgb4g0msu3alll9rtp1nk6wbyxtf,3ts1ar6uqur1zlvnnwp4f4o95rm7fq,gDFT4aTX,2020-0188,2021-10-15,11:32:19,12:47:26,NA,incomplete,false,true,NA,3,22,NA,gray,m_s_104.jpg,NA,NA,unpleasant,pleasant,NA,NA,NA,NA,NA,right,1034.70000000112,true,NA,NA,NA,NA,NA
gDFT4aTX,33tgb4g0msu3alll9rtp1nk6wbyxtf,3ts1ar6uqur1zlvnnwp4f4o95rm7fq,gDFT4aTX,2020-0188,2021-10-15,11:32:19,12:47:26,NA,incomplete,false,true,NA,3,23,NA,gray,n_s_104.jpg,NA,NA,pleasant,unpleasant,NA,NA,NA,NA,NA,left,1052.69999999925,true,NA,NA,NA,NA,NA
gDFT4aTX,33tgb4g0msu3alll9rtp1nk6wbyxtf,3ts1ar6uqur1zlvnnwp4f4o95rm7fq,gDFT4aTX,2020-0188,2021-10-15,11:32:19,12:47:26,NA,incomplete,false,true,NA,3,24,NA,white,n_s_038.jpg,NA,NA,pleasant,unpleasant,NA,NA,NA,NA,NA,right,1878.59999999963,true,NA,NA,NA,NA,NA
gDFT4aTX,33tgb4g0msu3alll9rtp1nk6wbyxtf,3ts1ar6uqur1zlvnnwp4f4o95rm7fq,gDFT4aTX,2020-0188,2021-10-15,11:32:19,12:47:26,NA,incomplete,false,true,NA,3,25,NA,white,n_s_085.jpg,NA,NA,pleasant,unpleasant,NA,NA,NA,NA,NA,left,2087.5,true,NA,NA,NA,NA,NA
gDFT4aTX,33tgb4g0msu3alll9rtp1nk6wbyxtf,3ts1ar6uqur1zlvnnwp4f4o95rm7fq,gDFT4aTX,2020-0188,2021-10-15,11:32:19,12:47:26,NA,incomplete,false,true,NA,3,26,NA,white,n_l_102.jpg,NA,NA,unpleasant,pleasant,NA,NA,NA,NA,NA,right,2086.09999999963,true,NA,NA,NA,NA,NA
gDFT4aTX,33tgb4g0msu3alll9rtp1nk6wbyxtf,3ts1ar6uqur1zlvnnwp4f4o95rm7fq,gDFT4aTX,2020-0188,2021-10-15,11:32:19,12:47:26,NA,incomplete,false,true,NA,3,27,NA,white,m_l_059.jpg,NA,NA,unpleasant,pleasant,NA,NA,NA,NA,NA,right,1059.79999999888,true,NA,NA,NA,NA,NA
gDFT4aTX,33tgb4g0msu3alll9rtp1nk6wbyxtf,3ts1ar6uqur1zlvnnwp4f4o95rm7fq,gDFT4aTX,2020-0188,2021-10-15,11:32:19,12:47:26,NA,incomplete,false,true,NA,3,28,NA,white,m_s_058.jpg,NA,NA,pleasant,unpleasant,NA,NA,NA,NA,NA,right,966.799999998882,true,NA,NA,NA,NA,NA
gDFT4aTX,33tgb4g0msu3alll9rtp1nk6wbyxtf,3ts1ar6uqur1zlvnnwp4f4o95rm7fq,gDFT4aTX,2020-0188,2021-10-15,11:32:19,12:47:26,NA,incomplete,false,true,NA,3,29,NA,white,n_s_022.jpg,NA,NA,unpleasant,pleasant,NA,NA,NA,NA,NA,right,1283.39999999851,true,NA,NA,NA,NA,NA
gDFT4aTX,33tgb4g0msu3alll9rtp1nk6wbyxtf,3ts1ar6uqur1zlvnnwp4f4o95rm7fq,gDFT4aTX,2020-0188,2021-10-15,11:32:19,12:47:26,NA,incomplete,false,true,NA,3,30,NA,green,n_l_029.jpg,NA,NA,pleasant,unpleasant,NA,NA,NA,NA,NA,left,1110.69999999925,true,NA,NA,NA,NA,NA
gDFT4aTX,33tgb4g0msu3alll9rtp1nk6wbyxtf,3ts1ar6uqur1zlvnnwp4f4o95rm7fq,gDFT4aTX,2020-0188,2021-10-15,11:32:19,12:47:26,NA,incomplete,false,true,NA,3,31,NA,green,n_s_045.jpg,NA,NA,pleasant,unpleasant,NA,NA,NA,NA,NA,left,978.699999999255,true,NA,NA,NA,NA,NA
gDFT4aTX,33tgb4g0msu3alll9rtp1nk6wbyxtf,3ts1ar6uqur1zlvnnwp4f4o95rm7fq,gDFT4aTX,2020-0188,2021-10-15,11:32:19,12:47:26,NA,incomplete,false,true,NA,3,32,NA,green,m_s_031.jpg,NA,NA,pleasant,unpleasant,NA,NA,NA,NA,NA,left,1414.19999999925,true,NA,NA,NA,NA,NA
gDFT4aTX,33tgb4g0msu3alll9rtp1nk6wbyxtf,3ts1ar6uqur1zlvnnwp4f4o95rm7fq,gDFT4aTX,2020-0188,2021-10-15,11:32:19,12:47:26,NA,incomplete,false,true,NA,3,33,NA,green,m_l_015.jpg,NA,NA,unpleasant,pleasant,NA,NA,NA,NA,NA,left,1305.30000000075,true,NA,NA,NA,NA,NA
gDFT4aTX,33tgb4g0msu3alll9rtp1nk6wbyxtf,3ts1ar6uqur1zlvnnwp4f4o95rm7fq,gDFT4aTX,2020-0188,2021-10-15,11:32:19,12:47:26,NA,incomplete,false,true,NA,3,34,NA,green,n_s_051.jpg,NA,NA,unpleasant,pleasant,NA,NA,NA,NA,NA,right,1094.69999999925,true,NA,NA,NA,NA,NA
gDFT4aTX,33tgb4g0msu3alll9rtp1nk6wbyxtf,3ts1ar6uqur1zlvnnwp4f4o95rm7fq,gDFT4aTX,2020-0188,2021-10-15,11:32:19,12:47:26,NA,incomplete,false,true,NA,3,35,NA,green,m_s_011.jpg,NA,NA,pleasant,unpleasant,NA,NA,NA,NA,NA,left,1185,true,NA,NA,NA,NA,NA
gDFT4aTX,33tgb4g0msu3alll9rtp1nk6wbyxtf,3ts1ar6uqur1zlvnnwp4f4o95rm7fq,gDFT4aTX,2020-0188,2021-10-15,11:32:19,12:47:26,NA,incomplete,false,NA,true,3,0,NA,NA,NA,right,present,NA,NA,m_s_011.jpg,green,n_s_045.jpg,green,within,NA,NaN,NA,right,2462.4000000003725,1,3,2393.2000000011176
gDFT4aTX,33tgb4g0msu3alll9rtp1nk6wbyxtf,3ts1ar6uqur1zlvnnwp4f4o95rm7fq,gDFT4aTX,2020-0188,2021-10-15,11:32:19,12:47:26,NA,incomplete,false,NA,true,3,1,NA,NA,NA,right,present,NA,NA,m_s_031.jpg,green,m_s_058.jpg,white,between,NA,NaN,NA,left,1766.4000000003725,0,1,1095.6000000014901
gDFT4aTX,33tgb4g0msu3alll9rtp1nk6wbyxtf,3ts1ar6uqur1zlvnnwp4f4o95rm7fq,gDFT4aTX,2020-0188,2021-10-15,11:32:19,12:47:26,NA,incomplete,false,NA,true,3,2,NA,NA,NA,left,present,NA,NA,n_l_077.jpg,purple,n_l_090.jpg,purple,within,NA,NaN,NA,left,1631,1,3,2033.5999999996275
gDFT4aTX,33tgb4g0msu3alll9rtp1nk6wbyxtf,3ts1ar6uqur1zlvnnwp4f4o95rm7fq,gDFT4aTX,2020-0188,2021-10-15,11:32:19,12:47:26,NA,incomplete,false,NA,true,3,3,NA,NA,NA,left,present,NA,NA,m_s_111.jpg,blue,m_s_097.jpg,blue,within,NA,NaN,NA,left,2119.4000000003725,1,2,1614.7999999988824
gDFT4aTX,33tgb4g0msu3alll9rtp1nk6wbyxtf,3ts1ar6uqur1zlvnnwp4f4o95rm7fq,gDFT4aTX,2020-0188,2021-10-15,11:32:19,12:47:26,NA,incomplete,false,NA,true,3,4,NA,NA,NA,right,present,NA,NA,m_s_053.jpg,purple,n_s_115.jpg,black,between,NA,NaN,NA,left,1615.7000000011176,0,2,1437.3999999985099
gDFT4aTX,33tgb4g0msu3alll9rtp1nk6wbyxtf,3ts1ar6uqur1zlvnnwp4f4o95rm7fq,gDFT4aTX,2020-0188,2021-10-15,11:32:19,12:47:26,NA,incomplete,false,NA,true,3,5,NA,NA,NA,right,present,NA,NA,n_s_104.jpg,gray,n_s_043.jpg,gray,within,NA,NaN,NA,right,2580.800000000745,1,2,1320.5999999996275
gDFT4aTX,33tgb4g0msu3alll9rtp1nk6wbyxtf,3ts1ar6uqur1zlvnnwp4f4o95rm7fq,gDFT4aTX,2020-0188,2021-10-15,11:32:19,12:47:26,NA,incomplete,false,NA,true,3,6,NA,NA,NA,left,present,NA,NA,n_s_116.jpg,purple,n_s_044.jpg,gray,between,NA,NaN,NA,right,1692.5,0,1,1281.4000000003725
gDFT4aTX,33tgb4g0msu3alll9rtp1nk6wbyxtf,3ts1ar6uqur1zlvnnwp4f4o95rm7fq,gDFT4aTX,2020-0188,2021-10-15,11:32:19,12:47:26,NA,incomplete,false,NA,true,3,7,NA,NA,NA,right,present,NA,NA,n_l_102.jpg,white,m_s_104.jpg,gray,between,NA,NaN,NA,left,2240.2999999988824,0,2,1065.2999999988824
gDFT4aTX,33tgb4g0msu3alll9rtp1nk6wbyxtf,3ts1ar6uqur1zlvnnwp4f4o95rm7fq,gDFT4aTX,2020-0188,2021-10-15,11:32:19,12:47:26,NA,incomplete,false,NA,true,3,8,NA,NA,NA,left,present,NA,NA,n_l_015.jpg,blue,m_l_088.jpg,black,between,NA,NaN,NA,left,4579.300000000745,1,2,1041.5999999996275
gDFT4aTX,33tgb4g0msu3alll9rtp1nk6wbyxtf,3ts1ar6uqur1zlvnnwp4f4o95rm7fq,gDFT4aTX,2020-0188,2021-10-15,11:32:19,12:47:26,NA,incomplete,false,NA,true,3,9,NA,NA,NA,left,present,NA,NA,n_s_085.jpg,white,n_s_022.jpg,white,within,NA,NaN,NA,right,1683.5,0,1,1691.699999999255
gDFT4aTX,33tgb4g0msu3alll9rtp1nk6wbyxtf,3ts1ar6uqur1zlvnnwp4f4o95rm7fq,gDFT4aTX,2020-0188,2021-10-15,11:32:19,12:47:26,NA,incomplete,false,NA,true,3,10,NA,NA,NA,right,present,NA,NA,n_l_062.jpg,black,m_s_039.jpg,black,within,NA,NaN,NA,right,2025.5,1,2,2294.9000000003725
gDFT4aTX,33tgb4g0msu3alll9rtp1nk6wbyxtf,3ts1ar6uqur1zlvnnwp4f4o95rm7fq,gDFT4aTX,2020-0188,2021-10-15,11:32:19,12:47:26,NA,incomplete,false,true,NA,4,0,NA,black,n_s_041.jpg,NA,NA,pleasant,unpleasant,NA,NA,NA,NA,NA,left,2362.29999999888,true,NA,NA,NA,NA,NA
gDFT4aTX,33tgb4g0msu3alll9rtp1nk6wbyxtf,3ts1ar6uqur1zlvnnwp4f4o95rm7fq,gDFT4aTX,2020-0188,2021-10-15,11:32:19,12:47:26,NA,incomplete,false,true,NA,4,1,NA,black,m_l_101.jpg,NA,NA,unpleasant,pleasant,NA,NA,NA,NA,NA,right,1468.79999999888,true,NA,NA,NA,NA,NA
gDFT4aTX,33tgb4g0msu3alll9rtp1nk6wbyxtf,3ts1ar6uqur1zlvnnwp4f4o95rm7fq,gDFT4aTX,2020-0188,2021-10-15,11:32:19,12:47:26,NA,incomplete,false,true,NA,4,2,NA,black,n_s_078.jpg,NA,NA,pleasant,unpleasant,NA,NA,NA,NA,NA,left,1969,true,NA,NA,NA,NA,NA
gDFT4aTX,33tgb4g0msu3alll9rtp1nk6wbyxtf,3ts1ar6uqur1zlvnnwp4f4o95rm7fq,gDFT4aTX,2020-0188,2021-10-15,11:32:19,12:47:26,NA,incomplete,false,true,NA,4,3,NA,black,m_l_008.jpg,NA,NA,pleasant,unpleasant,NA,NA,NA,NA,NA,left,199.300000000745,true,NA,NA,NA,NA,NA
gDFT4aTX,33tgb4g0msu3alll9rtp1nk6wbyxtf,3ts1ar6uqur1zlvnnwp4f4o95rm7fq,gDFT4aTX,2020-0188,2021-10-15,11:32:19,12:47:26,NA,incomplete,false,true,NA,4,4,NA,black,n_l_075.jpg,NA,NA,pleasant,unpleasant,NA,NA,NA,NA,NA,right,1344.69999999925,true,NA,NA,NA,NA,NA
gDFT4aTX,33tgb4g0msu3alll9rtp1nk6wbyxtf,3ts1ar6uqur1zlvnnwp4f4o95rm7fq,gDFT4aTX,2020-0188,2021-10-15,11:32:19,12:47:26,NA,incomplete,false,true,NA,4,5,NA,black,n_s_034.jpg,NA,NA,unpleasant,pleasant,NA,NA,NA,NA,NA,right,998.300000000745,true,NA,NA,NA,NA,NA
gDFT4aTX,33tgb4g0msu3alll9rtp1nk6wbyxtf,3ts1ar6uqur1zlvnnwp4f4o95rm7fq,gDFT4aTX,2020-0188,2021-10-15,11:32:19,12:47:26,NA,incomplete,false,true,NA,4,6,NA,brown,n_l_031.jpg,NA,NA,unpleasant,pleasant,NA,NA,NA,NA,NA,right,942.299999998882,true,NA,NA,NA,NA,NA
gDFT4aTX,33tgb4g0msu3alll9rtp1nk6wbyxtf,3ts1ar6uqur1zlvnnwp4f4o95rm7fq,gDFT4aTX,2020-0188,2021-10-15,11:32:19,12:47:26,NA,incomplete,false,true,NA,4,7,NA,brown,n_l_083.jpg,NA,NA,unpleasant,pleasant,NA,NA,NA,NA,NA,right,940.299999998882,true,NA,NA,NA,NA,NA
gDFT4aTX,33tgb4g0msu3alll9rtp1nk6wbyxtf,3ts1ar6uqur1zlvnnwp4f4o95rm7fq,gDFT4aTX,2020-0188,2021-10-15,11:32:19,12:47:26,NA,incomplete,false,true,NA,4,8,NA,brown,m_s_063.jpg,NA,NA,pleasant,unpleasant,NA,NA,NA,NA,NA,left,981.199999999255,true,NA,NA,NA,NA,NA
gDFT4aTX,33tgb4g0msu3alll9rtp1nk6wbyxtf,3ts1ar6uqur1zlvnnwp4f4o95rm7fq,gDFT4aTX,2020-0188,2021-10-15,11:32:19,12:47:26,NA,incomplete,false,true,NA,4,9,NA,brown,n_l_100.jpg,NA,NA,pleasant,unpleasant,NA,NA,NA,NA,NA,left,994,true,NA,NA,NA,NA,NA
gDFT4aTX,33tgb4g0msu3alll9rtp1nk6wbyxtf,3ts1ar6uqur1zlvnnwp4f4o95rm7fq,gDFT4aTX,2020-0188,2021-10-15,11:32:19,12:47:26,NA,incomplete,false,true,NA,4,10,NA,brown,n_l_087.jpg,NA,NA,pleasant,unpleasant,NA,NA,NA,NA,NA,left,1026.19999999925,true,NA,NA,NA,NA,NA
gDFT4aTX,33tgb4g0msu3alll9rtp1nk6wbyxtf,3ts1ar6uqur1zlvnnwp4f4o95rm7fq,gDFT4aTX,2020-0188,2021-10-15,11:32:19,12:47:26,NA,incomplete,false,true,NA,4,11,NA,brown,n_l_104.jpg,NA,NA,unpleasant,pleasant,NA,NA,NA,NA,NA,right,974.299999998882,true,NA,NA,NA,NA,NA
gDFT4aTX,33tgb4g0msu3alll9rtp1nk6wbyxtf,3ts1ar6uqur1zlvnnwp4f4o95rm7fq,gDFT4aTX,2020-0188,2021-10-15,11:32:19,12:47:26,NA,incomplete,false,true,NA,4,12,NA,green,n_s_036.jpg,NA,NA,unpleasant,pleasant,NA,NA,NA,NA,NA,right,875.300000000745,true,NA,NA,NA,NA,NA
gDFT4aTX,33tgb4g0msu3alll9rtp1nk6wbyxtf,3ts1ar6uqur1zlvnnwp4f4o95rm7fq,gDFT4aTX,2020-0188,2021-10-15,11:32:19,12:47:26,NA,incomplete,false,true,NA,4,13,NA,green,m_l_113.jpg,NA,NA,pleasant,unpleasant,NA,NA,NA,NA,NA,left,1078,true,NA,NA,NA,NA,NA
gDFT4aTX,33tgb4g0msu3alll9rtp1nk6wbyxtf,3ts1ar6uqur1zlvnnwp4f4o95rm7fq,gDFT4aTX,2020-0188,2021-10-15,11:32:19,12:47:26,NA,incomplete,false,true,NA,4,14,NA,green,n_l_001.jpg,NA,NA,pleasant,unpleasant,NA,NA,NA,NA,NA,left,760.900000000373,true,NA,NA,NA,NA,NA
gDFT4aTX,33tgb4g0msu3alll9rtp1nk6wbyxtf,3ts1ar6uqur1zlvnnwp4f4o95rm7fq,gDFT4aTX,2020-0188,2021-10-15,11:32:19,12:47:26,NA,incomplete,false,true,NA,4,15,NA,green,m_s_067.jpg,NA,NA,pleasant,unpleasant,NA,NA,NA,NA,NA,left,824.300000000745,true,NA,NA,NA,NA,NA
gDFT4aTX,33tgb4g0msu3alll9rtp1nk6wbyxtf,3ts1ar6uqur1zlvnnwp4f4o95rm7fq,gDFT4aTX,2020-0188,2021-10-15,11:32:19,12:47:26,NA,incomplete,false,true,NA,4,16,NA,green,m_s_007.jpg,NA,NA,unpleasant,pleasant,NA,NA,NA,NA,NA,right,1335.5,true,NA,NA,NA,NA,NA
gDFT4aTX,33tgb4g0msu3alll9rtp1nk6wbyxtf,3ts1ar6uqur1zlvnnwp4f4o95rm7fq,gDFT4aTX,2020-0188,2021-10-15,11:32:19,12:47:26,NA,incomplete,false,true,NA,4,17,NA,green,n_l_078.jpg,NA,NA,pleasant,unpleasant,NA,NA,NA,NA,NA,left,920,true,NA,NA,NA,NA,NA
gDFT4aTX,33tgb4g0msu3alll9rtp1nk6wbyxtf,3ts1ar6uqur1zlvnnwp4f4o95rm7fq,gDFT4aTX,2020-0188,2021-10-15,11:32:19,12:47:26,NA,incomplete,false,true,NA,4,18,NA,orange,n_l_011.jpg,NA,NA,pleasant,unpleasant,NA,NA,NA,NA,NA,left,1321.5,true,NA,NA,NA,NA,NA
gDFT4aTX,33tgb4g0msu3alll9rtp1nk6wbyxtf,3ts1ar6uqur1zlvnnwp4f4o95rm7fq,gDFT4aTX,2020-0188,2021-10-15,11:32:19,12:47:26,NA,incomplete,false,true,NA,4,19,NA,orange,m_s_101.jpg,NA,NA,unpleasant,pleasant,NA,NA,NA,NA,NA,left,1083.5,true,NA,NA,NA,NA,NA
gDFT4aTX,33tgb4g0msu3alll9rtp1nk6wbyxtf,3ts1ar6uqur1zlvnnwp4f4o95rm7fq,gDFT4aTX,2020-0188,2021-10-15,11:32:19,12:47:26,NA,incomplete,false,true,NA,4,20,NA,orange,n_s_059.jpg,NA,NA,pleasant,unpleasant,NA,NA,NA,NA,NA,left,1052.80000000075,true,NA,NA,NA,NA,NA
gDFT4aTX,33tgb4g0msu3alll9rtp1nk6wbyxtf,3ts1ar6uqur1zlvnnwp4f4o95rm7fq,gDFT4aTX,2020-0188,2021-10-15,11:32:19,12:47:26,NA,incomplete,false,true,NA,4,21,NA,orange,n_s_001.jpg,NA,NA,unpleasant,pleasant,NA,NA,NA,NA,NA,right,1135.19999999925,true,NA,NA,NA,NA,NA
gDFT4aTX,33tgb4g0msu3alll9rtp1nk6wbyxtf,3ts1ar6uqur1zlvnnwp4f4o95rm7fq,gDFT4aTX,2020-0188,2021-10-15,11:32:19,12:47:26,NA,incomplete,false,true,NA,4,22,NA,orange,m_l_100.jpg,NA,NA,pleasant,unpleasant,NA,NA,NA,NA,NA,left,1705.90000000037,true,NA,NA,NA,NA,NA
gDFT4aTX,33tgb4g0msu3alll9rtp1nk6wbyxtf,3ts1ar6uqur1zlvnnwp4f4o95rm7fq,gDFT4aTX,2020-0188,2021-10-15,11:32:19,12:47:26,NA,incomplete,false,true,NA,4,23,NA,orange,m_l_018.jpg,NA,NA,unpleasant,pleasant,NA,NA,NA,NA,NA,right,1069.59999999963,true,NA,NA,NA,NA,NA
gDFT4aTX,33tgb4g0msu3alll9rtp1nk6wbyxtf,3ts1ar6uqur1zlvnnwp4f4o95rm7fq,gDFT4aTX,2020-0188,2021-10-15,11:32:19,12:47:26,NA,incomplete,false,true,NA,4,24,NA,white,m_l_067.jpg,NA,NA,unpleasant,pleasant,NA,NA,NA,NA,NA,right,977,true,NA,NA,NA,NA,NA
gDFT4aTX,33tgb4g0msu3alll9rtp1nk6wbyxtf,3ts1ar6uqur1zlvnnwp4f4o95rm7fq,gDFT4aTX,2020-0188,2021-10-15,11:32:19,12:47:26,NA,incomplete,false,true,NA,4,25,NA,white,m_s_089.jpg,NA,NA,unpleasant,pleasant,NA,NA,NA,NA,NA,right,1061.69999999925,true,NA,NA,NA,NA,NA
gDFT4aTX,33tgb4g0msu3alll9rtp1nk6wbyxtf,3ts1ar6uqur1zlvnnwp4f4o95rm7fq,gDFT4aTX,2020-0188,2021-10-15,11:32:19,12:47:26,NA,incomplete,false,true,NA,4,26,NA,white,n_s_067.jpg,NA,NA,pleasant,unpleasant,NA,NA,NA,NA,NA,left,1020,true,NA,NA,NA,NA,NA
gDFT4aTX,33tgb4g0msu3alll9rtp1nk6wbyxtf,3ts1ar6uqur1zlvnnwp4f4o95rm7fq,gDFT4aTX,2020-0188,2021-10-15,11:32:19,12:47:26,NA,incomplete,false,true,NA,4,27,NA,white,m_l_051.jpg,NA,NA,pleasant,unpleasant,NA,NA,NA,NA,NA,left,873.400000000373,true,NA,NA,NA,NA,NA
gDFT4aTX,33tgb4g0msu3alll9rtp1nk6wbyxtf,3ts1ar6uqur1zlvnnwp4f4o95rm7fq,gDFT4aTX,2020-0188,2021-10-15,11:32:19,12:47:26,NA,incomplete,false,true,NA,4,28,NA,white,m_s_037.jpg,NA,NA,pleasant,unpleasant,NA,NA,NA,NA,NA,left,1200.40000000037,true,NA,NA,NA,NA,NA
gDFT4aTX,33tgb4g0msu3alll9rtp1nk6wbyxtf,3ts1ar6uqur1zlvnnwp4f4o95rm7fq,gDFT4aTX,2020-0188,2021-10-15,11:32:19,12:47:26,NA,incomplete,false,true,NA,4,29,NA,white,m_s_091.jpg,NA,NA,pleasant,unpleasant,NA,NA,NA,NA,NA,right,1490.5,true,NA,NA,NA,NA,NA
gDFT4aTX,33tgb4g0msu3alll9rtp1nk6wbyxtf,3ts1ar6uqur1zlvnnwp4f4o95rm7fq,gDFT4aTX,2020-0188,2021-10-15,11:32:19,12:47:26,NA,incomplete,false,true,NA,4,30,NA,purple,n_s_103.jpg,NA,NA,pleasant,unpleasant,NA,NA,NA,NA,NA,left,1752,true,NA,NA,NA,NA,NA
gDFT4aTX,33tgb4g0msu3alll9rtp1nk6wbyxtf,3ts1ar6uqur1zlvnnwp4f4o95rm7fq,gDFT4aTX,2020-0188,2021-10-15,11:32:19,12:47:26,NA,incomplete,false,true,NA,4,31,NA,purple,n_s_005.jpg,NA,NA,unpleasant,pleasant,NA,NA,NA,NA,NA,right,892.900000000373,true,NA,NA,NA,NA,NA
gDFT4aTX,33tgb4g0msu3alll9rtp1nk6wbyxtf,3ts1ar6uqur1zlvnnwp4f4o95rm7fq,gDFT4aTX,2020-0188,2021-10-15,11:32:19,12:47:26,NA,incomplete,false,true,NA,4,32,NA,purple,n_s_023.jpg,NA,NA,unpleasant,pleasant,NA,NA,NA,NA,NA,right,817,true,NA,NA,NA,NA,NA
gDFT4aTX,33tgb4g0msu3alll9rtp1nk6wbyxtf,3ts1ar6uqur1zlvnnwp4f4o95rm7fq,gDFT4aTX,2020-0188,2021-10-15,11:32:19,12:47:26,NA,incomplete,false,true,NA,4,33,NA,purple,m_l_050.jpg,NA,NA,pleasant,unpleasant,NA,NA,NA,NA,NA,left,790.900000000373,true,NA,NA,NA,NA,NA
gDFT4aTX,33tgb4g0msu3alll9rtp1nk6wbyxtf,3ts1ar6uqur1zlvnnwp4f4o95rm7fq,gDFT4aTX,2020-0188,2021-10-15,11:32:19,12:47:26,NA,incomplete,false,true,NA,4,34,NA,purple,n_l_080.jpg,NA,NA,pleasant,unpleasant,NA,NA,NA,NA,NA,left,859.400000000373,true,NA,NA,NA,NA,NA
gDFT4aTX,33tgb4g0msu3alll9rtp1nk6wbyxtf,3ts1ar6uqur1zlvnnwp4f4o95rm7fq,gDFT4aTX,2020-0188,2021-10-15,11:32:19,12:47:26,NA,incomplete,false,true,NA,4,35,NA,purple,m_s_087.jpg,NA,NA,unpleasant,pleasant,NA,NA,NA,NA,NA,right,1106.59999999963,true,NA,NA,NA,NA,NA
gDFT4aTX,33tgb4g0msu3alll9rtp1nk6wbyxtf,3ts1ar6uqur1zlvnnwp4f4o95rm7fq,gDFT4aTX,2020-0188,2021-10-15,11:32:19,12:47:26,NA,incomplete,false,NA,true,4,0,NA,NA,NA,right,present,NA,NA,n_s_059.jpg,orange,m_s_007.jpg,green,between,NA,NaN,NA,right,3154.0999999996275,1,1,1450
gDFT4aTX,33tgb4g0msu3alll9rtp1nk6wbyxtf,3ts1ar6uqur1zlvnnwp4f4o95rm7fq,gDFT4aTX,2020-0188,2021-10-15,11:32:19,12:47:26,NA,incomplete,false,NA,true,4,1,NA,NA,NA,left,present,NA,NA,m_l_113.jpg,green,n_l_078.jpg,green,within,NA,NaN,NA,right,1390.0999999996275,0,2,1311.9000000003725
gDFT4aTX,33tgb4g0msu3alll9rtp1nk6wbyxtf,3ts1ar6uqur1zlvnnwp4f4o95rm7fq,gDFT4aTX,2020-0188,2021-10-15,11:32:19,12:47:26,NA,incomplete,false,NA,true,4,2,NA,NA,NA,right,present,NA,NA,n_s_067.jpg,white,m_l_100.jpg,orange,between,NA,NaN,NA,left,2070.699999999255,0,1,1644.5
gDFT4aTX,33tgb4g0msu3alll9rtp1nk6wbyxtf,3ts1ar6uqur1zlvnnwp4f4o95rm7fq,gDFT4aTX,2020-0188,2021-10-15,11:32:19,12:47:26,NA,incomplete,false,NA,true,4,3,NA,NA,NA,right,present,NA,NA,m_l_018.jpg,orange,m_s_101.jpg,orange,within,NA,NaN,NA,left,2226.5,0,2,973
gDFT4aTX,33tgb4g0msu3alll9rtp1nk6wbyxtf,3ts1ar6uqur1zlvnnwp4f4o95rm7fq,gDFT4aTX,2020-0188,2021-10-15,11:32:19,12:47:26,NA,incomplete,false,NA,true,4,4,NA,NA,NA,left,present,NA,NA,n_s_005.jpg,purple,m_s_087.jpg,purple,within,NA,NaN,NA,left,2364.0999999996275,1,1,1134.699999999255
gDFT4aTX,33tgb4g0msu3alll9rtp1nk6wbyxtf,3ts1ar6uqur1zlvnnwp4f4o95rm7fq,gDFT4aTX,2020-0188,2021-10-15,11:32:19,12:47:26,NA,incomplete,false,NA,true,4,5,NA,NA,NA,left,present,NA,NA,n_l_087.jpg,brown,n_l_001.jpg,green,between,NA,NaN,NA,left,1513.2999999988824,1,2,1151.5999999996275
gDFT4aTX,33tgb4g0msu3alll9rtp1nk6wbyxtf,3ts1ar6uqur1zlvnnwp4f4o95rm7fq,gDFT4aTX,2020-0188,2021-10-15,11:32:19,12:47:26,NA,incomplete,false,NA,true,4,6,NA,NA,NA,left,present,NA,NA,m_s_037.jpg,white,n_s_023.jpg,purple,between,NA,NaN,NA,right,1485.4000000003725,0,2,1213.2999999988824
gDFT4aTX,33tgb4g0msu3alll9rtp1nk6wbyxtf,3ts1ar6uqur1zlvnnwp4f4o95rm7fq,gDFT4aTX,2020-0188,2021-10-15,11:32:19,12:47:26,NA,incomplete,false,NA,true,4,7,NA,NA,NA,left,present,NA,NA,m_l_101.jpg,black,n_s_034.jpg,black,within,NA,NaN,NA,right,1701,0,1,1313.4000000003725
gDFT4aTX,33tgb4g0msu3alll9rtp1nk6wbyxtf,3ts1ar6uqur1zlvnnwp4f4o95rm7fq,gDFT4aTX,2020-0188,2021-10-15,11:32:19,12:47:26,NA,incomplete,false,NA,true,4,8,NA,NA,NA,right,present,NA,NA,m_s_063.jpg,brown,n_l_075.jpg,black,between,NA,NaN,NA,left,2427.4000000003725,0,1,1313.5
gDFT4aTX,33tgb4g0msu3alll9rtp1nk6wbyxtf,3ts1ar6uqur1zlvnnwp4f4o95rm7fq,gDFT4aTX,2020-0188,2021-10-15,11:32:19,12:47:26,NA,incomplete,false,NA,true,4,9,NA,NA,NA,right,present,NA,NA,m_s_091.jpg,white,m_s_089.jpg,white,within,NA,NaN,NA,left,1884.5,0,2,1359.3999999985099
gDFT4aTX,33tgb4g0msu3alll9rtp1nk6wbyxtf,3ts1ar6uqur1zlvnnwp4f4o95rm7fq,gDFT4aTX,2020-0188,2021-10-15,11:32:19,12:47:26,NA,incomplete,false,NA,true,4,10,NA,NA,NA,left,present,NA,NA,n_l_083.jpg,brown,n_l_104.jpg,brown,within,NA,NaN,NA,left,2424.7999999988824,1,2,1151
gDFT4aTX,33tgb4g0msu3alll9rtp1nk6wbyxtf,3ts1ar6uqur1zlvnnwp4f4o95rm7fq,gDFT4aTX,2020-0188,2021-10-15,11:32:19,12:47:26,NA,incomplete,false,true,NA,5,0,NA,yellow,m_s_098.jpg,NA,NA,unpleasant,pleasant,NA,NA,NA,NA,NA,right,1786.69999999925,true,NA,NA,NA,NA,NA
gDFT4aTX,33tgb4g0msu3alll9rtp1nk6wbyxtf,3ts1ar6uqur1zlvnnwp4f4o95rm7fq,gDFT4aTX,2020-0188,2021-10-15,11:32:19,12:47:26,NA,incomplete,false,true,NA,5,1,NA,yellow,m_s_010.jpg,NA,NA,unpleasant,pleasant,NA,NA,NA,NA,NA,right,894.5,true,NA,NA,NA,NA,NA
gDFT4aTX,33tgb4g0msu3alll9rtp1nk6wbyxtf,3ts1ar6uqur1zlvnnwp4f4o95rm7fq,gDFT4aTX,2020-0188,2021-10-15,11:32:19,12:47:26,NA,incomplete,false,true,NA,5,2,NA,yellow,n_s_027.jpg,NA,NA,unpleasant,pleasant,NA,NA,NA,NA,NA,left,1178.59999999963,true,NA,NA,NA,NA,NA
gDFT4aTX,33tgb4g0msu3alll9rtp1nk6wbyxtf,3ts1ar6uqur1zlvnnwp4f4o95rm7fq,gDFT4aTX,2020-0188,2021-10-15,11:32:19,12:47:26,NA,incomplete,false,true,NA,5,3,NA,yellow,m_s_014.jpg,NA,NA,pleasant,unpleasant,NA,NA,NA,NA,NA,right,1500.90000000037,true,NA,NA,NA,NA,NA
gDFT4aTX,33tgb4g0msu3alll9rtp1nk6wbyxtf,3ts1ar6uqur1zlvnnwp4f4o95rm7fq,gDFT4aTX,2020-0188,2021-10-15,11:32:19,12:47:26,NA,incomplete,false,true,NA,5,4,NA,yellow,m_s_056.jpg,NA,NA,unpleasant,pleasant,NA,NA,NA,NA,NA,right,1368.30000000075,true,NA,NA,NA,NA,NA
gDFT4aTX,33tgb4g0msu3alll9rtp1nk6wbyxtf,3ts1ar6uqur1zlvnnwp4f4o95rm7fq,gDFT4aTX,2020-0188,2021-10-15,11:32:19,12:47:26,NA,incomplete,false,true,NA,5,5,NA,yellow,n_s_040.jpg,NA,NA,unpleasant,pleasant,NA,NA,NA,NA,NA,left,1263.20000000112,true,NA,NA,NA,NA,NA
gDFT4aTX,33tgb4g0msu3alll9rtp1nk6wbyxtf,3ts1ar6uqur1zlvnnwp4f4o95rm7fq,gDFT4aTX,2020-0188,2021-10-15,11:32:19,12:47:26,NA,incomplete,false,true,NA,5,6,NA,blue,m_l_092.jpg,NA,NA,unpleasant,pleasant,NA,NA,NA,NA,NA,left,1871.90000000037,true,NA,NA,NA,NA,NA
gDFT4aTX,33tgb4g0msu3alll9rtp1nk6wbyxtf,3ts1ar6uqur1zlvnnwp4f4o95rm7fq,gDFT4aTX,2020-0188,2021-10-15,11:32:19,12:47:26,NA,incomplete,false,true,NA,5,7,NA,blue,n_s_091.jpg,NA,NA,unpleasant,pleasant,NA,NA,NA,NA,NA,left,2095.59999999963,true,NA,NA,NA,NA,NA
gDFT4aTX,33tgb4g0msu3alll9rtp1nk6wbyxtf,3ts1ar6uqur1zlvnnwp4f4o95rm7fq,gDFT4aTX,2020-0188,2021-10-15,11:32:19,12:47:26,NA,incomplete,false,true,NA,5,8,NA,blue,m_s_061.jpg,NA,NA,pleasant,unpleasant,NA,NA,NA,NA,NA,right,2359.59999999963,true,NA,NA,NA,NA,NA
gDFT4aTX,33tgb4g0msu3alll9rtp1nk6wbyxtf,3ts1ar6uqur1zlvnnwp4f4o95rm7fq,gDFT4aTX,2020-0188,2021-10-15,11:32:19,12:47:26,NA,incomplete,false,true,NA,5,9,NA,blue,m_l_094.jpg,NA,NA,unpleasant,pleasant,NA,NA,NA,NA,NA,left,988.199999999255,true,NA,NA,NA,NA,NA
gDFT4aTX,33tgb4g0msu3alll9rtp1nk6wbyxtf,3ts1ar6uqur1zlvnnwp4f4o95rm7fq,gDFT4aTX,2020-0188,2021-10-15,11:32:19,12:47:26,NA,incomplete,false,true,NA,5,10,NA,blue,m_s_110.jpg,NA,NA,pleasant,unpleasant,NA,NA,NA,NA,NA,right,2034.40000000037,true,NA,NA,NA,NA,NA
gDFT4aTX,33tgb4g0msu3alll9rtp1nk6wbyxtf,3ts1ar6uqur1zlvnnwp4f4o95rm7fq,gDFT4aTX,2020-0188,2021-10-15,11:32:19,12:47:26,NA,incomplete,false,true,NA,5,11,NA,blue,m_s_106.jpg,NA,NA,pleasant,unpleasant,NA,NA,NA,NA,NA,none,0,false,NA,NA,NA,NA,NA
gDFT4aTX,33tgb4g0msu3alll9rtp1nk6wbyxtf,3ts1ar6uqur1zlvnnwp4f4o95rm7fq,gDFT4aTX,2020-0188,2021-10-15,11:32:19,12:47:26,NA,incomplete,false,true,NA,5,12,NA,green,m_l_047.jpg,NA,NA,unpleasant,pleasant,NA,NA,NA,NA,NA,right,2057.29999999888,true,NA,NA,NA,NA,NA
gDFT4aTX,33tgb4g0msu3alll9rtp1nk6wbyxtf,3ts1ar6uqur1zlvnnwp4f4o95rm7fq,gDFT4aTX,2020-0188,2021-10-15,11:32:19,12:47:26,NA,incomplete,false,true,NA,5,13,NA,green,m_l_006.jpg,NA,NA,pleasant,unpleasant,NA,NA,NA,NA,NA,left,1301.59999999963,true,NA,NA,NA,NA,NA
gDFT4aTX,33tgb4g0msu3alll9rtp1nk6wbyxtf,3ts1ar6uqur1zlvnnwp4f4o95rm7fq,gDFT4aTX,2020-0188,2021-10-15,11:32:19,12:47:26,NA,incomplete,false,true,NA,5,14,NA,green,m_l_117.jpg,NA,NA,pleasant,unpleasant,NA,NA,NA,NA,NA,none,0,false,NA,NA,NA,NA,NA
gDFT4aTX,33tgb4g0msu3alll9rtp1nk6wbyxtf,3ts1ar6uqur1zlvnnwp4f4o95rm7fq,gDFT4aTX,2020-0188,2021-10-15,11:32:19,12:47:26,NA,incomplete,false,true,NA,5,15,NA,green,m_s_012.jpg,NA,NA,pleasant,unpleasant,NA,NA,NA,NA,NA,none,0,false,NA,NA,NA,NA,NA
gDFT4aTX,33tgb4g0msu3alll9rtp1nk6wbyxtf,3ts1ar6uqur1zlvnnwp4f4o95rm7fq,gDFT4aTX,2020-0188,2021-10-15,11:32:19,12:47:26,NA,incomplete,false,true,NA,5,16,NA,green,n_s_016.jpg,NA,NA,unpleasant,pleasant,NA,NA,NA,NA,NA,none,0,false,NA,NA,NA,NA,NA
gDFT4aTX,33tgb4g0msu3alll9rtp1nk6wbyxtf,3ts1ar6uqur1zlvnnwp4f4o95rm7fq,gDFT4aTX,2020-0188,2021-10-15,11:32:19,12:47:26,NA,incomplete,false,true,NA,5,17,NA,green,n_s_061.jpg,NA,NA,unpleasant,pleasant,NA,NA,NA,NA,NA,none,0,false,NA,NA,NA,NA,NA
gDFT4aTX,33tgb4g0msu3alll9rtp1nk6wbyxtf,3ts1ar6uqur1zlvnnwp4f4o95rm7fq,gDFT4aTX,2020-0188,2021-10-15,11:32:19,12:47:26,NA,incomplete,false,true,NA,5,18,NA,orange,m_s_049.jpg,NA,NA,unpleasant,pleasant,NA,NA,NA,NA,NA,right,2673.90000000037,true,NA,NA,NA,NA,NA
gDFT4aTX,33tgb4g0msu3alll9rtp1nk6wbyxtf,3ts1ar6uqur1zlvnnwp4f4o95rm7fq,gDFT4aTX,2020-0188,2021-10-15,11:32:19,12:47:26,NA,incomplete,false,true,NA,5,19,NA,orange,n_l_051.jpg,NA,NA,pleasant,unpleasant,NA,NA,NA,NA,NA,left,1284.5,true,NA,NA,NA,NA,NA
gDFT4aTX,33tgb4g0msu3alll9rtp1nk6wbyxtf,3ts1ar6uqur1zlvnnwp4f4o95rm7fq,gDFT4aTX,2020-0188,2021-10-15,11:32:19,12:47:26,NA,incomplete,false,true,NA,5,20,NA,orange,n_s_070.jpg,NA,NA,unpleasant,pleasant,NA,NA,NA,NA,NA,none,0,false,NA,NA,NA,NA,NA
gDFT4aTX,33tgb4g0msu3alll9rtp1nk6wbyxtf,3ts1ar6uqur1zlvnnwp4f4o95rm7fq,gDFT4aTX,2020-0188,2021-10-15,11:32:19,12:47:26,NA,incomplete,false,true,NA,5,21,NA,orange,n_s_058.jpg,NA,NA,unpleasant,pleasant,NA,NA,NA,NA,NA,none,0,false,NA,NA,NA,NA,NA
gDFT4aTX,33tgb4g0msu3alll9rtp1nk6wbyxtf,3ts1ar6uqur1zlvnnwp4f4o95rm7fq,gDFT4aTX,2020-0188,2021-10-15,11:32:19,12:47:26,NA,incomplete,false,true,NA,5,22,NA,orange,m_s_043.jpg,NA,NA,pleasant,unpleasant,NA,NA,NA,NA,NA,right,2047.29999999888,true,NA,NA,NA,NA,NA
gDFT4aTX,33tgb4g0msu3alll9rtp1nk6wbyxtf,3ts1ar6uqur1zlvnnwp4f4o95rm7fq,gDFT4aTX,2020-0188,2021-10-15,11:32:19,12:47:26,NA,incomplete,false,true,NA,5,23,NA,orange,n_l_040.jpg,NA,NA,unpleasant,pleasant,NA,NA,NA,NA,NA,right,1619.70000000112,true,NA,NA,NA,NA,NA
gDFT4aTX,33tgb4g0msu3alll9rtp1nk6wbyxtf,3ts1ar6uqur1zlvnnwp4f4o95rm7fq,gDFT4aTX,2020-0188,2021-10-15,11:32:19,12:47:26,NA,incomplete,false,true,NA,5,24,NA,gray,n_l_054.jpg,NA,NA,unpleasant,pleasant,NA,NA,NA,NA,NA,right,812.699999999255,true,NA,NA,NA,NA,NA
gDFT4aTX,33tgb4g0msu3alll9rtp1nk6wbyxtf,3ts1ar6uqur1zlvnnwp4f4o95rm7fq,gDFT4aTX,2020-0188,2021-10-15,11:32:19,12:47:26,NA,incomplete,false,true,NA,5,25,NA,gray,m_s_113.jpg,NA,NA,unpleasant,pleasant,NA,NA,NA,NA,NA,right,1080.5,true,NA,NA,NA,NA,NA
gDFT4aTX,33tgb4g0msu3alll9rtp1nk6wbyxtf,3ts1ar6uqur1zlvnnwp4f4o95rm7fq,gDFT4aTX,2020-0188,2021-10-15,11:32:19,12:47:26,NA,incomplete,false,true,NA,5,26,NA,gray,n_l_027.jpg,NA,NA,unpleasant,pleasant,NA,NA,NA,NA,NA,right,835,true,NA,NA,NA,NA,NA
gDFT4aTX,33tgb4g0msu3alll9rtp1nk6wbyxtf,3ts1ar6uqur1zlvnnwp4f4o95rm7fq,gDFT4aTX,2020-0188,2021-10-15,11:32:19,12:47:26,NA,incomplete,false,true,NA,5,27,NA,gray,m_s_019.jpg,NA,NA,pleasant,unpleasant,NA,NA,NA,NA,NA,left,2249.09999999963,true,NA,NA,NA,NA,NA
gDFT4aTX,33tgb4g0msu3alll9rtp1nk6wbyxtf,3ts1ar6uqur1zlvnnwp4f4o95rm7fq,gDFT4aTX,2020-0188,2021-10-15,11:32:19,12:47:26,NA,incomplete,false,true,NA,5,28,NA,gray,n_l_050.jpg,NA,NA,unpleasant,pleasant,NA,NA,NA,NA,NA,left,670.099999999627,true,NA,NA,NA,NA,NA
gDFT4aTX,33tgb4g0msu3alll9rtp1nk6wbyxtf,3ts1ar6uqur1zlvnnwp4f4o95rm7fq,gDFT4aTX,2020-0188,2021-10-15,11:32:19,12:47:26,NA,incomplete,false,true,NA,5,29,NA,gray,m_s_054.jpg,NA,NA,unpleasant,pleasant,NA,NA,NA,NA,NA,right,639.300000000745,true,NA,NA,NA,NA,NA
gDFT4aTX,33tgb4g0msu3alll9rtp1nk6wbyxtf,3ts1ar6uqur1zlvnnwp4f4o95rm7fq,gDFT4aTX,2020-0188,2021-10-15,11:32:19,12:47:26,NA,incomplete,false,true,NA,5,30,NA,red,n_l_070.jpg,NA,NA,unpleasant,pleasant,NA,NA,NA,NA,NA,right,1346.59999999963,true,NA,NA,NA,NA,NA
gDFT4aTX,33tgb4g0msu3alll9rtp1nk6wbyxtf,3ts1ar6uqur1zlvnnwp4f4o95rm7fq,gDFT4aTX,2020-0188,2021-10-15,11:32:19,12:47:26,NA,incomplete,false,true,NA,5,31,NA,red,n_l_068.jpg,NA,NA,unpleasant,pleasant,NA,NA,NA,NA,NA,left,1217,true,NA,NA,NA,NA,NA
gDFT4aTX,33tgb4g0msu3alll9rtp1nk6wbyxtf,3ts1ar6uqur1zlvnnwp4f4o95rm7fq,gDFT4aTX,2020-0188,2021-10-15,11:32:19,12:47:26,NA,incomplete,false,true,NA,5,32,NA,red,m_l_081.jpg,NA,NA,pleasant,unpleasant,NA,NA,NA,NA,NA,right,2019.70000000112,true,NA,NA,NA,NA,NA
gDFT4aTX,33tgb4g0msu3alll9rtp1nk6wbyxtf,3ts1ar6uqur1zlvnnwp4f4o95rm7fq,gDFT4aTX,2020-0188,2021-10-15,11:32:19,12:47:26,NA,incomplete,false,true,NA,5,33,NA,red,n_l_105.jpg,NA,NA,unpleasant,pleasant,NA,NA,NA,NA,NA,left,1293.69999999925,true,NA,NA,NA,NA,NA
gDFT4aTX,33tgb4g0msu3alll9rtp1nk6wbyxtf,3ts1ar6uqur1zlvnnwp4f4o95rm7fq,gDFT4aTX,2020-0188,2021-10-15,11:32:19,12:47:26,NA,incomplete,false,true,NA,5,34,NA,red,n_l_026.jpg,NA,NA,pleasant,unpleasant,NA,NA,NA,NA,NA,left,1037,true,NA,NA,NA,NA,NA
gDFT4aTX,33tgb4g0msu3alll9rtp1nk6wbyxtf,3ts1ar6uqur1zlvnnwp4f4o95rm7fq,gDFT4aTX,2020-0188,2021-10-15,11:32:19,12:47:26,NA,incomplete,false,true,NA,5,35,NA,red,m_l_078.jpg,NA,NA,pleasant,unpleasant,NA,NA,NA,NA,NA,left,2592.09999999963,true,NA,NA,NA,NA,NA
gDFT4aTX,33tgb4g0msu3alll9rtp1nk6wbyxtf,3ts1ar6uqur1zlvnnwp4f4o95rm7fq,gDFT4aTX,2020-0188,2021-10-15,11:32:19,12:47:26,NA,incomplete,false,NA,true,5,0,NA,NA,NA,left,absent,NA,NA,m_s_056.jpg,yellow,m_s_061.jpg,blue,between,NA,NaN,NA,left,2230.5999999996275,1,2,1738
gDFT4aTX,33tgb4g0msu3alll9rtp1nk6wbyxtf,3ts1ar6uqur1zlvnnwp4f4o95rm7fq,gDFT4aTX,2020-0188,2021-10-15,11:32:19,12:47:26,NA,incomplete,false,NA,true,5,1,NA,NA,NA,right,absent,NA,NA,m_s_054.jpg,gray,m_s_113.jpg,gray,within,NA,NaN,NA,right,1281.4000000003725,1,3,1195.7000000011176
gDFT4aTX,33tgb4g0msu3alll9rtp1nk6wbyxtf,3ts1ar6uqur1zlvnnwp4f4o95rm7fq,gDFT4aTX,2020-0188,2021-10-15,11:32:19,12:47:26,NA,incomplete,false,NA,true,5,2,NA,NA,NA,left,absent,NA,NA,n_l_050.jpg,gray,m_l_081.jpg,red,between,NA,NaN,NA,right,2614.0999999996275,0,1,2127.5999999996275
gDFT4aTX,33tgb4g0msu3alll9rtp1nk6wbyxtf,3ts1ar6uqur1zlvnnwp4f4o95rm7fq,gDFT4aTX,2020-0188,2021-10-15,11:32:19,12:47:26,NA,incomplete,false,NA,true,5,3,NA,NA,NA,left,absent,NA,NA,n_l_068.jpg,red,m_l_078.jpg,red,within,NA,NaN,NA,left,2614,1,2,1128
gDFT4aTX,33tgb4g0msu3alll9rtp1nk6wbyxtf,3ts1ar6uqur1zlvnnwp4f4o95rm7fq,gDFT4aTX,2020-0188,2021-10-15,11:32:19,12:47:26,NA,incomplete,false,NA,true,5,4,NA,NA,NA,right,absent,NA,NA,n_l_040.jpg,orange,n_l_051.jpg,orange,within,NA,NaN,NA,right,1731.5999999996275,1,1,1413.9000000003725
gDFT4aTX,33tgb4g0msu3alll9rtp1nk6wbyxtf,3ts1ar6uqur1zlvnnwp4f4o95rm7fq,gDFT4aTX,2020-0188,2021-10-15,11:32:19,12:47:26,NA,incomplete,false,NA,true,5,5,NA,NA,NA,left,absent,NA,NA,m_s_010.jpg,yellow,n_s_040.jpg,yellow,within,NA,NaN,NA,left,2381.300000000745,1,1,1112
gDFT4aTX,33tgb4g0msu3alll9rtp1nk6wbyxtf,3ts1ar6uqur1zlvnnwp4f4o95rm7fq,gDFT4aTX,2020-0188,2021-10-15,11:32:19,12:47:26,NA,incomplete,false,NA,true,5,6,NA,NA,NA,right,absent,NA,NA,m_l_117.jpg,green,m_s_110.jpg,blue,between,NA,NaN,NA,right,1661.300000000745,1,1,1437.300000000745
gDFT4aTX,33tgb4g0msu3alll9rtp1nk6wbyxtf,3ts1ar6uqur1zlvnnwp4f4o95rm7fq,gDFT4aTX,2020-0188,2021-10-15,11:32:19,12:47:26,NA,incomplete,false,NA,true,5,7,NA,NA,NA,left,absent,NA,NA,m_s_043.jpg,orange,n_l_027.jpg,gray,between,NA,NaN,NA,left,1653.5999999996275,1,3,1537.5
gDFT4aTX,33tgb4g0msu3alll9rtp1nk6wbyxtf,3ts1ar6uqur1zlvnnwp4f4o95rm7fq,gDFT4aTX,2020-0188,2021-10-15,11:32:19,12:47:26,NA,incomplete,false,NA,true,5,8,NA,NA,NA,right,absent,NA,NA,m_s_106.jpg,blue,n_s_091.jpg,blue,within,NA,NaN,NA,right,1987.5999999996275,1,1,1693.9000000003725
gDFT4aTX,33tgb4g0msu3alll9rtp1nk6wbyxtf,3ts1ar6uqur1zlvnnwp4f4o95rm7fq,gDFT4aTX,2020-0188,2021-10-15,11:32:19,12:47:26,NA,incomplete,false,NA,true,5,9,NA,NA,NA,right,absent,NA,NA,n_s_061.jpg,green,m_l_006.jpg,green,within,NA,NaN,NA,right,1993.5999999996275,1,2,1415.5999999996275
gDFT4aTX,33tgb4g0msu3alll9rtp1nk6wbyxtf,3ts1ar6uqur1zlvnnwp4f4o95rm7fq,gDFT4aTX,2020-0188,2021-10-15,11:32:19,12:47:26,NA,incomplete,false,NA,true,5,10,NA,NA,NA,right,absent,NA,NA,n_s_070.jpg,orange,n_s_016.jpg,green,between,NA,NaN,NA,right,1567.699999999255,1,1,1282
gDFT4aTX,33tgb4g0msu3alll9rtp1nk6wbyxtf,3ts1ar6uqur1zlvnnwp4f4o95rm7fq,gDFT4aTX,2020-0188,2021-10-15,11:32:19,12:47:26,NA,incomplete,false,true,NA,6,0,NA,blue,n_l_056.jpg,NA,NA,pleasant,unpleasant,NA,NA,NA,NA,NA,left,2782.80000000075,true,NA,NA,NA,NA,NA
gDFT4aTX,33tgb4g0msu3alll9rtp1nk6wbyxtf,3ts1ar6uqur1zlvnnwp4f4o95rm7fq,gDFT4aTX,2020-0188,2021-10-15,11:32:19,12:47:26,NA,incomplete,false,true,NA,6,1,NA,blue,m_s_109.jpg,NA,NA,unpleasant,pleasant,NA,NA,NA,NA,NA,right,1083.89999999851,true,NA,NA,NA,NA,NA
gDFT4aTX,33tgb4g0msu3alll9rtp1nk6wbyxtf,3ts1ar6uqur1zlvnnwp4f4o95rm7fq,gDFT4aTX,2020-0188,2021-10-15,11:32:19,12:47:26,NA,incomplete,false,true,NA,6,2,NA,blue,n_s_002.jpg,NA,NA,pleasant,unpleasant,NA,NA,NA,NA,NA,left,906.5,true,NA,NA,NA,NA,NA
gDFT4aTX,33tgb4g0msu3alll9rtp1nk6wbyxtf,3ts1ar6uqur1zlvnnwp4f4o95rm7fq,gDFT4aTX,2020-0188,2021-10-15,11:32:19,12:47:26,NA,incomplete,false,true,NA,6,3,NA,blue,n_s_097.jpg,NA,NA,unpleasant,pleasant,NA,NA,NA,NA,NA,left,1208.70000000112,true,NA,NA,NA,NA,NA
gDFT4aTX,33tgb4g0msu3alll9rtp1nk6wbyxtf,3ts1ar6uqur1zlvnnwp4f4o95rm7fq,gDFT4aTX,2020-0188,2021-10-15,11:32:19,12:47:26,NA,incomplete,false,true,NA,6,4,NA,blue,n_l_039.jpg,NA,NA,unpleasant,pleasant,NA,NA,NA,NA,NA,left,126.699999999255,true,NA,NA,NA,NA,NA
gDFT4aTX,33tgb4g0msu3alll9rtp1nk6wbyxtf,3ts1ar6uqur1zlvnnwp4f4o95rm7fq,gDFT4aTX,2020-0188,2021-10-15,11:32:19,12:47:26,NA,incomplete,false,true,NA,6,5,NA,blue,n_s_094.jpg,NA,NA,pleasant,unpleasant,NA,NA,NA,NA,NA,right,117.599999999627,true,NA,NA,NA,NA,NA
gDFT4aTX,33tgb4g0msu3alll9rtp1nk6wbyxtf,3ts1ar6uqur1zlvnnwp4f4o95rm7fq,gDFT4aTX,2020-0188,2021-10-15,11:32:19,12:47:26,NA,incomplete,false,true,NA,6,6,NA,black,n_l_025.jpg,NA,NA,unpleasant,pleasant,NA,NA,NA,NA,NA,left,2225.90000000037,true,NA,NA,NA,NA,NA
gDFT4aTX,33tgb4g0msu3alll9rtp1nk6wbyxtf,3ts1ar6uqur1zlvnnwp4f4o95rm7fq,gDFT4aTX,2020-0188,2021-10-15,11:32:19,12:47:26,NA,incomplete,false,true,NA,6,7,NA,black,n_l_033.jpg,NA,NA,pleasant,unpleasant,NA,NA,NA,NA,NA,right,414.900000000373,true,NA,NA,NA,NA,NA
gDFT4aTX,33tgb4g0msu3alll9rtp1nk6wbyxtf,3ts1ar6uqur1zlvnnwp4f4o95rm7fq,gDFT4aTX,2020-0188,2021-10-15,11:32:19,12:47:26,NA,incomplete,false,true,NA,6,8,NA,black,n_s_084.jpg,NA,NA,unpleasant,pleasant,NA,NA,NA,NA,NA,right,2200.29999999888,true,NA,NA,NA,NA,NA
gDFT4aTX,33tgb4g0msu3alll9rtp1nk6wbyxtf,3ts1ar6uqur1zlvnnwp4f4o95rm7fq,gDFT4aTX,2020-0188,2021-10-15,11:32:19,12:47:26,NA,incomplete,false,true,NA,6,9,NA,black,m_l_041.jpg,NA,NA,unpleasant,pleasant,NA,NA,NA,NA,NA,right,1683.20000000112,true,NA,NA,NA,NA,NA
gDFT4aTX,33tgb4g0msu3alll9rtp1nk6wbyxtf,3ts1ar6uqur1zlvnnwp4f4o95rm7fq,gDFT4aTX,2020-0188,2021-10-15,11:32:19,12:47:26,NA,incomplete,false,true,NA,6,10,NA,black,n_s_090.jpg,NA,NA,pleasant,unpleasant,NA,NA,NA,NA,NA,right,838.800000000745,true,NA,NA,NA,NA,NA
gDFT4aTX,33tgb4g0msu3alll9rtp1nk6wbyxtf,3ts1ar6uqur1zlvnnwp4f4o95rm7fq,gDFT4aTX,2020-0188,2021-10-15,11:32:19,12:47:26,NA,incomplete,false,true,NA,6,11,NA,black,n_l_034.jpg,NA,NA,pleasant,unpleasant,NA,NA,NA,NA,NA,left,1047.80000000075,true,NA,NA,NA,NA,NA
gDFT4aTX,33tgb4g0msu3alll9rtp1nk6wbyxtf,3ts1ar6uqur1zlvnnwp4f4o95rm7fq,gDFT4aTX,2020-0188,2021-10-15,11:32:19,12:47:26,NA,incomplete,false,true,NA,6,12,NA,purple,n_s_107.jpg,NA,NA,pleasant,unpleasant,NA,NA,NA,NA,NA,right,1371.5,true,NA,NA,NA,NA,NA
gDFT4aTX,33tgb4g0msu3alll9rtp1nk6wbyxtf,3ts1ar6uqur1zlvnnwp4f4o95rm7fq,gDFT4aTX,2020-0188,2021-10-15,11:32:19,12:47:26,NA,incomplete,false,true,NA,6,13,NA,purple,n_s_065.jpg,NA,NA,unpleasant,pleasant,NA,NA,NA,NA,NA,left,1165,true,NA,NA,NA,NA,NA
gDFT4aTX,33tgb4g0msu3alll9rtp1nk6wbyxtf,3ts1ar6uqur1zlvnnwp4f4o95rm7fq,gDFT4aTX,2020-0188,2021-10-15,11:32:19,12:47:26,NA,incomplete,false,true,NA,6,14,NA,purple,n_s_017.jpg,NA,NA,pleasant,unpleasant,NA,NA,NA,NA,NA,left,1126.90000000037,true,NA,NA,NA,NA,NA
gDFT4aTX,33tgb4g0msu3alll9rtp1nk6wbyxtf,3ts1ar6uqur1zlvnnwp4f4o95rm7fq,gDFT4aTX,2020-0188,2021-10-15,11:32:19,12:47:26,NA,incomplete,false,true,NA,6,15,NA,purple,m_s_093.jpg,NA,NA,pleasant,unpleasant,NA,NA,NA,NA,NA,left,766.700000001118,true,NA,NA,NA,NA,NA
gDFT4aTX,33tgb4g0msu3alll9rtp1nk6wbyxtf,3ts1ar6uqur1zlvnnwp4f4o95rm7fq,gDFT4aTX,2020-0188,2021-10-15,11:32:19,12:47:26,NA,incomplete,false,true,NA,6,16,NA,purple,n_s_008.jpg,NA,NA,unpleasant,pleasant,NA,NA,NA,NA,NA,left,799.300000000745,true,NA,NA,NA,NA,NA
gDFT4aTX,33tgb4g0msu3alll9rtp1nk6wbyxtf,3ts1ar6uqur1zlvnnwp4f4o95rm7fq,gDFT4aTX,2020-0188,2021-10-15,11:32:19,12:47:26,NA,incomplete,false,true,NA,6,17,NA,purple,m_l_002.jpg,NA,NA,unpleasant,pleasant,NA,NA,NA,NA,NA,left,557.39999999851,true,NA,NA,NA,NA,NA
gDFT4aTX,33tgb4g0msu3alll9rtp1nk6wbyxtf,3ts1ar6uqur1zlvnnwp4f4o95rm7fq,gDFT4aTX,2020-0188,2021-10-15,11:32:19,12:47:26,NA,incomplete,false,true,NA,6,18,NA,brown,n_l_109.jpg,NA,NA,pleasant,unpleasant,NA,NA,NA,NA,NA,left,1514.09999999963,true,NA,NA,NA,NA,NA
gDFT4aTX,33tgb4g0msu3alll9rtp1nk6wbyxtf,3ts1ar6uqur1zlvnnwp4f4o95rm7fq,gDFT4aTX,2020-0188,2021-10-15,11:32:19,12:47:26,NA,incomplete,false,true,NA,6,19,NA,brown,n_l_089.jpg,NA,NA,pleasant,unpleasant,NA,NA,NA,NA,NA,right,881.39999999851,true,NA,NA,NA,NA,NA
gDFT4aTX,33tgb4g0msu3alll9rtp1nk6wbyxtf,3ts1ar6uqur1zlvnnwp4f4o95rm7fq,gDFT4aTX,2020-0188,2021-10-15,11:32:19,12:47:26,NA,incomplete,false,true,NA,6,20,NA,brown,n_s_100.jpg,NA,NA,unpleasant,pleasant,NA,NA,NA,NA,NA,left,800.400000000373,true,NA,NA,NA,NA,NA
gDFT4aTX,33tgb4g0msu3alll9rtp1nk6wbyxtf,3ts1ar6uqur1zlvnnwp4f4o95rm7fq,gDFT4aTX,2020-0188,2021-10-15,11:32:19,12:47:26,NA,incomplete,false,true,NA,6,21,NA,brown,n_l_060.jpg,NA,NA,unpleasant,pleasant,NA,NA,NA,NA,NA,right,1176.59999999963,true,NA,NA,NA,NA,NA
gDFT4aTX,33tgb4g0msu3alll9rtp1nk6wbyxtf,3ts1ar6uqur1zlvnnwp4f4o95rm7fq,gDFT4aTX,2020-0188,2021-10-15,11:32:19,12:47:26,NA,incomplete,false,true,NA,6,22,NA,brown,n_l_049.jpg,NA,NA,pleasant,unpleasant,NA,NA,NA,NA,NA,right,599.099999999627,true,NA,NA,NA,NA,NA
gDFT4aTX,33tgb4g0msu3alll9rtp1nk6wbyxtf,3ts1ar6uqur1zlvnnwp4f4o95rm7fq,gDFT4aTX,2020-0188,2021-10-15,11:32:19,12:47:26,NA,incomplete,false,true,NA,6,23,NA,brown,m_s_050.jpg,NA,NA,unpleasant,pleasant,NA,NA,NA,NA,NA,right,1018.79999999888,true,NA,NA,NA,NA,NA
gDFT4aTX,33tgb4g0msu3alll9rtp1nk6wbyxtf,3ts1ar6uqur1zlvnnwp4f4o95rm7fq,gDFT4aTX,2020-0188,2021-10-15,11:32:19,12:47:26,NA,incomplete,false,true,NA,6,24,NA,orange,m_s_032.jpg,NA,NA,pleasant,unpleasant,NA,NA,NA,NA,NA,left,945.400000000373,true,NA,NA,NA,NA,NA
gDFT4aTX,33tgb4g0msu3alll9rtp1nk6wbyxtf,3ts1ar6uqur1zlvnnwp4f4o95rm7fq,gDFT4aTX,2020-0188,2021-10-15,11:32:19,12:47:26,NA,incomplete,false,true,NA,6,25,NA,orange,m_s_076.jpg,NA,NA,unpleasant,pleasant,NA,NA,NA,NA,NA,right,1019.19999999925,true,NA,NA,NA,NA,NA
gDFT4aTX,33tgb4g0msu3alll9rtp1nk6wbyxtf,3ts1ar6uqur1zlvnnwp4f4o95rm7fq,gDFT4aTX,2020-0188,2021-10-15,11:32:19,12:47:26,NA,incomplete,false,true,NA,6,26,NA,orange,n_s_102.jpg,NA,NA,pleasant,unpleasant,NA,NA,NA,NA,NA,right,1009.5,true,NA,NA,NA,NA,NA
gDFT4aTX,33tgb4g0msu3alll9rtp1nk6wbyxtf,3ts1ar6uqur1zlvnnwp4f4o95rm7fq,gDFT4aTX,2020-0188,2021-10-15,11:32:19,12:47:26,NA,incomplete,false,true,NA,6,27,NA,orange,m_l_103.jpg,NA,NA,unpleasant,pleasant,NA,NA,NA,NA,NA,right,93.5,true,NA,NA,NA,NA,NA
gDFT4aTX,33tgb4g0msu3alll9rtp1nk6wbyxtf,3ts1ar6uqur1zlvnnwp4f4o95rm7fq,gDFT4aTX,2020-0188,2021-10-15,11:32:19,12:47:26,NA,incomplete,false,true,NA,6,28,NA,orange,m_l_082.jpg,NA,NA,pleasant,unpleasant,NA,NA,NA,NA,NA,left,935.900000000373,true,NA,NA,NA,NA,NA
gDFT4aTX,33tgb4g0msu3alll9rtp1nk6wbyxtf,3ts1ar6uqur1zlvnnwp4f4o95rm7fq,gDFT4aTX,2020-0188,2021-10-15,11:32:19,12:47:26,NA,incomplete,false,true,NA,6,29,NA,orange,m_s_077.jpg,NA,NA,pleasant,unpleasant,NA,NA,NA,NA,NA,right,1734.40000000037,true,NA,NA,NA,NA,NA
gDFT4aTX,33tgb4g0msu3alll9rtp1nk6wbyxtf,3ts1ar6uqur1zlvnnwp4f4o95rm7fq,gDFT4aTX,2020-0188,2021-10-15,11:32:19,12:47:26,NA,incomplete,false,true,NA,6,30,NA,white,m_l_084.jpg,NA,NA,pleasant,unpleasant,NA,NA,NA,NA,NA,left,1432.70000000112,true,NA,NA,NA,NA,NA
gDFT4aTX,33tgb4g0msu3alll9rtp1nk6wbyxtf,3ts1ar6uqur1zlvnnwp4f4o95rm7fq,gDFT4aTX,2020-0188,2021-10-15,11:32:19,12:47:26,NA,incomplete,false,true,NA,6,31,NA,white,n_l_095.jpg,NA,NA,unpleasant,pleasant,NA,NA,NA,NA,NA,left,929.900000000373,true,NA,NA,NA,NA,NA
gDFT4aTX,33tgb4g0msu3alll9rtp1nk6wbyxtf,3ts1ar6uqur1zlvnnwp4f4o95rm7fq,gDFT4aTX,2020-0188,2021-10-15,11:32:19,12:47:26,NA,incomplete,false,true,NA,6,32,NA,white,m_l_055.jpg,NA,NA,unpleasant,pleasant,NA,NA,NA,NA,NA,left,1008.69999999925,true,NA,NA,NA,NA,NA
gDFT4aTX,33tgb4g0msu3alll9rtp1nk6wbyxtf,3ts1ar6uqur1zlvnnwp4f4o95rm7fq,gDFT4aTX,2020-0188,2021-10-15,11:32:19,12:47:26,NA,incomplete,false,true,NA,6,33,NA,white,n_l_003.jpg,NA,NA,unpleasant,pleasant,NA,NA,NA,NA,NA,left,810.5,true,NA,NA,NA,NA,NA
gDFT4aTX,33tgb4g0msu3alll9rtp1nk6wbyxtf,3ts1ar6uqur1zlvnnwp4f4o95rm7fq,gDFT4aTX,2020-0188,2021-10-15,11:32:19,12:47:26,NA,incomplete,false,true,NA,6,34,NA,white,n_l_010.jpg,NA,NA,unpleasant,pleasant,NA,NA,NA,NA,NA,right,1639.79999999888,true,NA,NA,NA,NA,NA
gDFT4aTX,33tgb4g0msu3alll9rtp1nk6wbyxtf,3ts1ar6uqur1zlvnnwp4f4o95rm7fq,gDFT4aTX,2020-0188,2021-10-15,11:32:19,12:47:26,NA,incomplete,false,true,NA,6,35,NA,white,n_s_064.jpg,NA,NA,pleasant,unpleasant,NA,NA,NA,NA,NA,right,185.900000000373,true,NA,NA,NA,NA,NA
gDFT4aTX,33tgb4g0msu3alll9rtp1nk6wbyxtf,3ts1ar6uqur1zlvnnwp4f4o95rm7fq,gDFT4aTX,2020-0188,2021-10-15,11:32:19,12:47:26,NA,incomplete,false,NA,true,6,0,NA,NA,NA,left,present,NA,NA,n_l_089.jpg,brown,m_s_050.jpg,brown,within,NA,NaN,NA,left,4013.300000000745,1,2,1825.300000000745
gDFT4aTX,33tgb4g0msu3alll9rtp1nk6wbyxtf,3ts1ar6uqur1zlvnnwp4f4o95rm7fq,gDFT4aTX,2020-0188,2021-10-15,11:32:19,12:47:26,NA,incomplete,false,NA,true,6,1,NA,NA,NA,right,present,NA,NA,n_s_064.jpg,white,n_l_095.jpg,white,within,NA,NaN,NA,left,1575.3999999985099,0,2,3346
gDFT4aTX,33tgb4g0msu3alll9rtp1nk6wbyxtf,3ts1ar6uqur1zlvnnwp4f4o95rm7fq,gDFT4aTX,2020-0188,2021-10-15,11:32:19,12:47:26,NA,incomplete,false,NA,true,6,2,NA,NA,NA,right,present,NA,NA,m_s_077.jpg,orange,m_s_076.jpg,orange,within,NA,NaN,NA,right,1281.0999999996275,1,2,1554.199999999255
gDFT4aTX,33tgb4g0msu3alll9rtp1nk6wbyxtf,3ts1ar6uqur1zlvnnwp4f4o95rm7fq,gDFT4aTX,2020-0188,2021-10-15,11:32:19,12:47:26,NA,incomplete,false,NA,true,6,3,NA,NA,NA,right,present,NA,NA,m_l_055.jpg,white,m_l_082.jpg,orange,between,NA,NaN,NA,right,2867,1,2,1141
gDFT4aTX,33tgb4g0msu3alll9rtp1nk6wbyxtf,3ts1ar6uqur1zlvnnwp4f4o95rm7fq,gDFT4aTX,2020-0188,2021-10-15,11:32:19,12:47:26,NA,incomplete,false,NA,true,6,4,NA,NA,NA,left,present,NA,NA,n_s_090.jpg,black,n_s_017.jpg,purple,between,NA,NaN,NA,right,1568.7000000011176,0,3,6761.5
gDFT4aTX,33tgb4g0msu3alll9rtp1nk6wbyxtf,3ts1ar6uqur1zlvnnwp4f4o95rm7fq,gDFT4aTX,2020-0188,2021-10-15,11:32:19,12:47:26,NA,incomplete,false,NA,true,6,5,NA,NA,NA,right,present,NA,NA,n_s_084.jpg,black,n_l_039.jpg,blue,between,NA,NaN,NA,right,1528.8999999985099,1,1,1079.5999999996275
gDFT4aTX,33tgb4g0msu3alll9rtp1nk6wbyxtf,3ts1ar6uqur1zlvnnwp4f4o95rm7fq,gDFT4aTX,2020-0188,2021-10-15,11:32:19,12:47:26,NA,incomplete,false,NA,true,6,6,NA,NA,NA,right,present,NA,NA,n_s_094.jpg,blue,m_s_109.jpg,blue,within,NA,NaN,NA,right,1257.5999999996275,1,2,1521.5
gDFT4aTX,33tgb4g0msu3alll9rtp1nk6wbyxtf,3ts1ar6uqur1zlvnnwp4f4o95rm7fq,gDFT4aTX,2020-0188,2021-10-15,11:32:19,12:47:26,NA,incomplete,false,NA,true,6,7,NA,NA,NA,right,present,NA,NA,n_l_034.jpg,black,n_l_033.jpg,black,within,NA,NaN,NA,left,2984.39999999851,0,2,1010.5
gDFT4aTX,33tgb4g0msu3alll9rtp1nk6wbyxtf,3ts1ar6uqur1zlvnnwp4f4o95rm7fq,gDFT4aTX,2020-0188,2021-10-15,11:32:19,12:47:26,NA,incomplete,false,NA,true,6,8,NA,NA,NA,right,present,NA,NA,n_s_100.jpg,brown,n_s_008.jpg,purple,between,NA,NaN,NA,left,1466.7999999988824,0,2,2427
gDFT4aTX,33tgb4g0msu3alll9rtp1nk6wbyxtf,3ts1ar6uqur1zlvnnwp4f4o95rm7fq,gDFT4aTX,2020-0188,2021-10-15,11:32:19,12:47:26,NA,incomplete,false,NA,true,6,9,NA,NA,NA,left,present,NA,NA,n_l_049.jpg,brown,n_s_102.jpg,orange,between,NA,NaN,NA,left,1624.7999999988824,1,2,1475.5
gDFT4aTX,33tgb4g0msu3alll9rtp1nk6wbyxtf,3ts1ar6uqur1zlvnnwp4f4o95rm7fq,gDFT4aTX,2020-0188,2021-10-15,11:32:19,12:47:26,NA,incomplete,false,NA,true,6,10,NA,NA,NA,left,present,NA,NA,n_s_065.jpg,purple,m_l_002.jpg,purple,within,NA,NaN,NA,left,5421.699999999255,1,2,1823.2000000011176
gDFT4aTX,33tgb4g0msu3alll9rtp1nk6wbyxtf,3ts1ar6uqur1zlvnnwp4f4o95rm7fq,gDFT4aTX,2020-0188,2021-10-15,11:32:19,12:47:26,NA,incomplete,false,true,NA,7,0,NA,yellow,m_s_052.jpg,NA,NA,pleasant,unpleasant,NA,NA,NA,NA,NA,left,1401.70000000298,true,NA,NA,NA,NA,NA
gDFT4aTX,33tgb4g0msu3alll9rtp1nk6wbyxtf,3ts1ar6uqur1zlvnnwp4f4o95rm7fq,gDFT4aTX,2020-0188,2021-10-15,11:32:19,12:47:26,NA,incomplete,false,true,NA,7,1,NA,yellow,m_l_028.jpg,NA,NA,pleasant,unpleasant,NA,NA,NA,NA,NA,right,1533.90000000224,true,NA,NA,NA,NA,NA
gDFT4aTX,33tgb4g0msu3alll9rtp1nk6wbyxtf,3ts1ar6uqur1zlvnnwp4f4o95rm7fq,gDFT4aTX,2020-0188,2021-10-15,11:32:19,12:47:26,NA,incomplete,false,true,NA,7,2,NA,yellow,m_l_007.jpg,NA,NA,pleasant,unpleasant,NA,NA,NA,NA,NA,left,811.39999999851,true,NA,NA,NA,NA,NA
gDFT4aTX,33tgb4g0msu3alll9rtp1nk6wbyxtf,3ts1ar6uqur1zlvnnwp4f4o95rm7fq,gDFT4aTX,2020-0188,2021-10-15,11:32:19,12:47:26,NA,incomplete,false,true,NA,7,3,NA,yellow,m_l_052.jpg,NA,NA,pleasant,unpleasant,NA,NA,NA,NA,NA,left,872.699999999255,true,NA,NA,NA,NA,NA
gDFT4aTX,33tgb4g0msu3alll9rtp1nk6wbyxtf,3ts1ar6uqur1zlvnnwp4f4o95rm7fq,gDFT4aTX,2020-0188,2021-10-15,11:32:19,12:47:26,NA,incomplete,false,true,NA,7,4,NA,yellow,m_l_106.jpg,NA,NA,pleasant,unpleasant,NA,NA,NA,NA,NA,left,1045.40000000224,true,NA,NA,NA,NA,NA
gDFT4aTX,33tgb4g0msu3alll9rtp1nk6wbyxtf,3ts1ar6uqur1zlvnnwp4f4o95rm7fq,gDFT4aTX,2020-0188,2021-10-15,11:32:19,12:47:26,NA,incomplete,false,true,NA,7,5,NA,yellow,m_l_013.jpg,NA,NA,unpleasant,pleasant,NA,NA,NA,NA,NA,left,331.199999999255,true,NA,NA,NA,NA,NA
gDFT4aTX,33tgb4g0msu3alll9rtp1nk6wbyxtf,3ts1ar6uqur1zlvnnwp4f4o95rm7fq,gDFT4aTX,2020-0188,2021-10-15,11:32:19,12:47:26,NA,incomplete,false,true,NA,7,6,NA,black,m_l_083.jpg,NA,NA,pleasant,unpleasant,NA,NA,NA,NA,NA,left,1026.60000000149,true,NA,NA,NA,NA,NA
gDFT4aTX,33tgb4g0msu3alll9rtp1nk6wbyxtf,3ts1ar6uqur1zlvnnwp4f4o95rm7fq,gDFT4aTX,2020-0188,2021-10-15,11:32:19,12:47:26,NA,incomplete,false,true,NA,7,7,NA,black,m_s_079.jpg,NA,NA,unpleasant,pleasant,NA,NA,NA,NA,NA,left,594,true,NA,NA,NA,NA,NA
gDFT4aTX,33tgb4g0msu3alll9rtp1nk6wbyxtf,3ts1ar6uqur1zlvnnwp4f4o95rm7fq,gDFT4aTX,2020-0188,2021-10-15,11:32:19,12:47:26,NA,incomplete,false,true,NA,7,8,NA,black,m_l_019.jpg,NA,NA,pleasant,unpleasant,NA,NA,NA,NA,NA,right,604.10000000149,true,NA,NA,NA,NA,NA
gDFT4aTX,33tgb4g0msu3alll9rtp1nk6wbyxtf,3ts1ar6uqur1zlvnnwp4f4o95rm7fq,gDFT4aTX,2020-0188,2021-10-15,11:32:19,12:47:26,NA,incomplete,false,true,NA,7,9,NA,black,m_s_059.jpg,NA,NA,unpleasant,pleasant,NA,NA,NA,NA,NA,right,1200.69999999925,true,NA,NA,NA,NA,NA
gDFT4aTX,33tgb4g0msu3alll9rtp1nk6wbyxtf,3ts1ar6uqur1zlvnnwp4f4o95rm7fq,gDFT4aTX,2020-0188,2021-10-15,11:32:19,12:47:26,NA,incomplete,false,true,NA,7,10,NA,black,n_l_016.jpg,NA,NA,pleasant,unpleasant,NA,NA,NA,NA,NA,right,374.29999999702,true,NA,NA,NA,NA,NA
gDFT4aTX,33tgb4g0msu3alll9rtp1nk6wbyxtf,3ts1ar6uqur1zlvnnwp4f4o95rm7fq,gDFT4aTX,2020-0188,2021-10-15,11:32:19,12:47:26,NA,incomplete,false,true,NA,7,11,NA,black,n_s_099.jpg,NA,NA,pleasant,unpleasant,NA,NA,NA,NA,NA,left,899.800000000745,true,NA,NA,NA,NA,NA
gDFT4aTX,33tgb4g0msu3alll9rtp1nk6wbyxtf,3ts1ar6uqur1zlvnnwp4f4o95rm7fq,gDFT4aTX,2020-0188,2021-10-15,11:32:19,12:47:26,NA,incomplete,false,true,NA,7,12,NA,gray,m_l_062.jpg,NA,NA,unpleasant,pleasant,NA,NA,NA,NA,NA,left,606.199999999255,true,NA,NA,NA,NA,NA
gDFT4aTX,33tgb4g0msu3alll9rtp1nk6wbyxtf,3ts1ar6uqur1zlvnnwp4f4o95rm7fq,gDFT4aTX,2020-0188,2021-10-15,11:32:19,12:47:26,NA,incomplete,false,true,NA,7,13,NA,gray,m_s_034.jpg,NA,NA,pleasant,unpleasant,NA,NA,NA,NA,NA,right,327.800000000745,true,NA,NA,NA,NA,NA
gDFT4aTX,33tgb4g0msu3alll9rtp1nk6wbyxtf,3ts1ar6uqur1zlvnnwp4f4o95rm7fq,gDFT4aTX,2020-0188,2021-10-15,11:32:19,12:47:26,NA,incomplete,false,true,NA,7,14,NA,gray,n_l_117.jpg,NA,NA,pleasant,unpleasant,NA,NA,NA,NA,NA,right,1118.5,true,NA,NA,NA,NA,NA
gDFT4aTX,33tgb4g0msu3alll9rtp1nk6wbyxtf,3ts1ar6uqur1zlvnnwp4f4o95rm7fq,gDFT4aTX,2020-0188,2021-10-15,11:32:19,12:47:26,NA,incomplete,false,true,NA,7,15,NA,gray,n_s_066.jpg,NA,NA,pleasant,unpleasant,NA,NA,NA,NA,NA,left,794.699999999255,true,NA,NA,NA,NA,NA
gDFT4aTX,33tgb4g0msu3alll9rtp1nk6wbyxtf,3ts1ar6uqur1zlvnnwp4f4o95rm7fq,gDFT4aTX,2020-0188,2021-10-15,11:32:19,12:47:26,NA,incomplete,false,true,NA,7,16,NA,gray,n_s_037.jpg,NA,NA,pleasant,unpleasant,NA,NA,NA,NA,NA,right,162.099999997765,true,NA,NA,NA,NA,NA
gDFT4aTX,33tgb4g0msu3alll9rtp1nk6wbyxtf,3ts1ar6uqur1zlvnnwp4f4o95rm7fq,gDFT4aTX,2020-0188,2021-10-15,11:32:19,12:47:26,NA,incomplete,false,true,NA,7,17,NA,gray,m_l_066.jpg,NA,NA,pleasant,unpleasant,NA,NA,NA,NA,NA,left,1498.69999999925,true,NA,NA,NA,NA,NA
gDFT4aTX,33tgb4g0msu3alll9rtp1nk6wbyxtf,3ts1ar6uqur1zlvnnwp4f4o95rm7fq,gDFT4aTX,2020-0188,2021-10-15,11:32:19,12:47:26,NA,incomplete,false,true,NA,7,18,NA,orange,n_s_057.jpg,NA,NA,pleasant,unpleasant,NA,NA,NA,NA,NA,right,467,true,NA,NA,NA,NA,NA
gDFT4aTX,33tgb4g0msu3alll9rtp1nk6wbyxtf,3ts1ar6uqur1zlvnnwp4f4o95rm7fq,gDFT4aTX,2020-0188,2021-10-15,11:32:19,12:47:26,NA,incomplete,false,true,NA,7,19,NA,orange,n_s_010.jpg,NA,NA,unpleasant,pleasant,NA,NA,NA,NA,NA,right,633.39999999851,true,NA,NA,NA,NA,NA
gDFT4aTX,33tgb4g0msu3alll9rtp1nk6wbyxtf,3ts1ar6uqur1zlvnnwp4f4o95rm7fq,gDFT4aTX,2020-0188,2021-10-15,11:32:19,12:47:26,NA,incomplete,false,true,NA,7,20,NA,orange,m_s_035.jpg,NA,NA,unpleasant,pleasant,NA,NA,NA,NA,NA,left,534.300000000745,true,NA,NA,NA,NA,NA
gDFT4aTX,33tgb4g0msu3alll9rtp1nk6wbyxtf,3ts1ar6uqur1zlvnnwp4f4o95rm7fq,gDFT4aTX,2020-0188,2021-10-15,11:32:19,12:47:26,NA,incomplete,false,true,NA,7,21,NA,orange,m_s_112.jpg,NA,NA,pleasant,unpleasant,NA,NA,NA,NA,NA,left,840.199999999255,true,NA,NA,NA,NA,NA
gDFT4aTX,33tgb4g0msu3alll9rtp1nk6wbyxtf,3ts1ar6uqur1zlvnnwp4f4o95rm7fq,gDFT4aTX,2020-0188,2021-10-15,11:32:19,12:47:26,NA,incomplete,false,true,NA,7,22,NA,orange,m_s_040.jpg,NA,NA,unpleasant,pleasant,NA,NA,NA,NA,NA,left,577.79999999702,true,NA,NA,NA,NA,NA
gDFT4aTX,33tgb4g0msu3alll9rtp1nk6wbyxtf,3ts1ar6uqur1zlvnnwp4f4o95rm7fq,gDFT4aTX,2020-0188,2021-10-15,11:32:19,12:47:26,NA,incomplete,false,true,NA,7,23,NA,orange,n_s_081.jpg,NA,NA,unpleasant,pleasant,NA,NA,NA,NA,NA,left,2116.90000000224,true,NA,NA,NA,NA,NA
gDFT4aTX,33tgb4g0msu3alll9rtp1nk6wbyxtf,3ts1ar6uqur1zlvnnwp4f4o95rm7fq,gDFT4aTX,2020-0188,2021-10-15,11:32:19,12:47:26,NA,incomplete,false,true,NA,7,24,NA,red,m_s_057.jpg,NA,NA,unpleasant,pleasant,NA,NA,NA,NA,NA,left,401.800000000745,true,NA,NA,NA,NA,NA
gDFT4aTX,33tgb4g0msu3alll9rtp1nk6wbyxtf,3ts1ar6uqur1zlvnnwp4f4o95rm7fq,gDFT4aTX,2020-0188,2021-10-15,11:32:19,12:47:26,NA,incomplete,false,true,NA,7,25,NA,red,m_s_090.jpg,NA,NA,pleasant,unpleasant,NA,NA,NA,NA,NA,right,412.800000000745,true,NA,NA,NA,NA,NA
gDFT4aTX,33tgb4g0msu3alll9rtp1nk6wbyxtf,3ts1ar6uqur1zlvnnwp4f4o95rm7fq,gDFT4aTX,2020-0188,2021-10-15,11:32:19,12:47:26,NA,incomplete,false,true,NA,7,26,NA,red,n_s_003.jpg,NA,NA,pleasant,unpleasant,NA,NA,NA,NA,NA,left,396.199999999255,true,NA,NA,NA,NA,NA
gDFT4aTX,33tgb4g0msu3alll9rtp1nk6wbyxtf,3ts1ar6uqur1zlvnnwp4f4o95rm7fq,gDFT4aTX,2020-0188,2021-10-15,11:32:19,12:47:26,NA,incomplete,false,true,NA,7,27,NA,red,m_l_061.jpg,NA,NA,pleasant,unpleasant,NA,NA,NA,NA,NA,left,565.79999999702,true,NA,NA,NA,NA,NA
gDFT4aTX,33tgb4g0msu3alll9rtp1nk6wbyxtf,3ts1ar6uqur1zlvnnwp4f4o95rm7fq,gDFT4aTX,2020-0188,2021-10-15,11:32:19,12:47:26,NA,incomplete,false,true,NA,7,28,NA,red,m_l_054.jpg,NA,NA,unpleasant,pleasant,NA,NA,NA,NA,NA,right,463.60000000149,true,NA,NA,NA,NA,NA
gDFT4aTX,33tgb4g0msu3alll9rtp1nk6wbyxtf,3ts1ar6uqur1zlvnnwp4f4o95rm7fq,gDFT4aTX,2020-0188,2021-10-15,11:32:19,12:47:26,NA,incomplete,false,true,NA,7,29,NA,red,m_l_011.jpg,NA,NA,pleasant,unpleasant,NA,NA,NA,NA,NA,left,496.900000002235,true,NA,NA,NA,NA,NA
gDFT4aTX,33tgb4g0msu3alll9rtp1nk6wbyxtf,3ts1ar6uqur1zlvnnwp4f4o95rm7fq,gDFT4aTX,2020-0188,2021-10-15,11:32:19,12:47:26,NA,incomplete,false,true,NA,7,30,NA,blue,n_l_041.jpg,NA,NA,unpleasant,pleasant,NA,NA,NA,NA,NA,left,1257.29999999702,true,NA,NA,NA,NA,NA
gDFT4aTX,33tgb4g0msu3alll9rtp1nk6wbyxtf,3ts1ar6uqur1zlvnnwp4f4o95rm7fq,gDFT4aTX,2020-0188,2021-10-15,11:32:19,12:47:26,NA,incomplete,false,true,NA,7,31,NA,blue,n_l_012.jpg,NA,NA,unpleasant,pleasant,NA,NA,NA,NA,NA,left,1820.5,true,NA,NA,NA,NA,NA
gDFT4aTX,33tgb4g0msu3alll9rtp1nk6wbyxtf,3ts1ar6uqur1zlvnnwp4f4o95rm7fq,gDFT4aTX,2020-0188,2021-10-15,11:32:19,12:47:26,NA,incomplete,false,true,NA,7,32,NA,blue,m_l_099.jpg,NA,NA,unpleasant,pleasant,NA,NA,NA,NA,NA,left,1354.10000000149,true,NA,NA,NA,NA,NA
gDFT4aTX,33tgb4g0msu3alll9rtp1nk6wbyxtf,3ts1ar6uqur1zlvnnwp4f4o95rm7fq,gDFT4aTX,2020-0188,2021-10-15,11:32:19,12:47:26,NA,incomplete,false,true,NA,7,33,NA,blue,m_l_085.jpg,NA,NA,pleasant,unpleasant,NA,NA,NA,NA,NA,right,1213.80000000075,true,NA,NA,NA,NA,NA
gDFT4aTX,33tgb4g0msu3alll9rtp1nk6wbyxtf,3ts1ar6uqur1zlvnnwp4f4o95rm7fq,gDFT4aTX,2020-0188,2021-10-15,11:32:19,12:47:26,NA,incomplete,false,true,NA,7,34,NA,blue,m_s_103.jpg,NA,NA,unpleasant,pleasant,NA,NA,NA,NA,NA,left,874.39999999851,true,NA,NA,NA,NA,NA
gDFT4aTX,33tgb4g0msu3alll9rtp1nk6wbyxtf,3ts1ar6uqur1zlvnnwp4f4o95rm7fq,gDFT4aTX,2020-0188,2021-10-15,11:32:19,12:47:26,NA,incomplete,false,true,NA,7,35,NA,blue,m_s_055.jpg,NA,NA,pleasant,unpleasant,NA,NA,NA,NA,NA,left,939.699999999255,true,NA,NA,NA,NA,NA
gDFT4aTX,33tgb4g0msu3alll9rtp1nk6wbyxtf,3ts1ar6uqur1zlvnnwp4f4o95rm7fq,gDFT4aTX,2020-0188,2021-10-15,11:32:19,12:47:26,NA,incomplete,false,NA,true,7,0,NA,NA,NA,right,present,NA,NA,n_s_081.jpg,orange,n_s_010.jpg,orange,within,NA,NaN,NA,left,3022.199999999255,0,2,1150.2000000029802
gDFT4aTX,33tgb4g0msu3alll9rtp1nk6wbyxtf,3ts1ar6uqur1zlvnnwp4f4o95rm7fq,gDFT4aTX,2020-0188,2021-10-15,11:32:19,12:47:26,NA,incomplete,false,NA,true,7,1,NA,NA,NA,right,present,NA,NA,m_l_011.jpg,red,m_s_090.jpg,red,within,NA,NaN,NA,right,1379.800000000745,1,2,1311.800000000745
gDFT4aTX,33tgb4g0msu3alll9rtp1nk6wbyxtf,3ts1ar6uqur1zlvnnwp4f4o95rm7fq,gDFT4aTX,2020-0188,2021-10-15,11:32:19,12:47:26,NA,incomplete,false,NA,true,7,2,NA,NA,NA,left,present,NA,NA,m_l_054.jpg,red,m_l_099.jpg,blue,between,NA,NaN,NA,left,1514.199999999255,1,3,854.7999999970198
gDFT4aTX,33tgb4g0msu3alll9rtp1nk6wbyxtf,3ts1ar6uqur1zlvnnwp4f4o95rm7fq,gDFT4aTX,2020-0188,2021-10-15,11:32:19,12:47:26,NA,incomplete,false,NA,true,7,3,NA,NA,NA,right,present,NA,NA,n_l_117.jpg,gray,n_l_016.jpg,black,between,NA,NaN,NA,right,1303.3999999985099,1,1,1010.8000000007451
gDFT4aTX,33tgb4g0msu3alll9rtp1nk6wbyxtf,3ts1ar6uqur1zlvnnwp4f4o95rm7fq,gDFT4aTX,2020-0188,2021-10-15,11:32:19,12:47:26,NA,incomplete,false,NA,true,7,4,NA,NA,NA,right,present,NA,NA,m_s_055.jpg,blue,n_l_012.jpg,blue,within,NA,NaN,NA,right,2447,1,3,1315.5999999977648
gDFT4aTX,33tgb4g0msu3alll9rtp1nk6wbyxtf,3ts1ar6uqur1zlvnnwp4f4o95rm7fq,gDFT4aTX,2020-0188,2021-10-15,11:32:19,12:47:26,NA,incomplete,false,NA,true,7,5,NA,NA,NA,left,present,NA,NA,m_l_028.jpg,yellow,m_l_013.jpg,yellow,within,NA,NaN,NA,left,1686.699999999255,1,2,1848.3999999985099
gDFT4aTX,33tgb4g0msu3alll9rtp1nk6wbyxtf,3ts1ar6uqur1zlvnnwp4f4o95rm7fq,gDFT4aTX,2020-0188,2021-10-15,11:32:19,12:47:26,NA,incomplete,false,NA,true,7,6,NA,NA,NA,left,present,NA,NA,m_s_079.jpg,black,n_s_099.jpg,black,within,NA,NaN,NA,right,1267,0,3,1161.300000000745
gDFT4aTX,33tgb4g0msu3alll9rtp1nk6wbyxtf,3ts1ar6uqur1zlvnnwp4f4o95rm7fq,gDFT4aTX,2020-0188,2021-10-15,11:32:19,12:47:26,NA,incomplete,false,NA,true,7,7,NA,NA,NA,right,present,NA,NA,n_s_003.jpg,red,m_s_040.jpg,orange,between,NA,NaN,NA,left,1315.0999999977648,0,1,1531.199999999255
gDFT4aTX,33tgb4g0msu3alll9rtp1nk6wbyxtf,3ts1ar6uqur1zlvnnwp4f4o95rm7fq,gDFT4aTX,2020-0188,2021-10-15,11:32:19,12:47:26,NA,incomplete,false,NA,true,7,8,NA,NA,NA,left,present,NA,NA,m_l_106.jpg,yellow,m_l_019.jpg,black,between,NA,NaN,NA,right,1492.3999999985099,0,0,1243.5999999977648
gDFT4aTX,33tgb4g0msu3alll9rtp1nk6wbyxtf,3ts1ar6uqur1zlvnnwp4f4o95rm7fq,gDFT4aTX,2020-0188,2021-10-15,11:32:19,12:47:26,NA,incomplete,false,NA,true,7,9,NA,NA,NA,right,present,NA,NA,m_s_035.jpg,orange,n_s_037.jpg,gray,between,NA,NaN,NA,left,1506.300000000745,0,1,1569.199999999255
gDFT4aTX,33tgb4g0msu3alll9rtp1nk6wbyxtf,3ts1ar6uqur1zlvnnwp4f4o95rm7fq,gDFT4aTX,2020-0188,2021-10-15,11:32:19,12:47:26,NA,incomplete,false,NA,true,7,10,NA,NA,NA,right,present,NA,NA,m_l_066.jpg,gray,m_s_034.jpg,gray,within,NA,NaN,NA,right,1050.3999999985099,1,2,1607.199999999255
gDFT4aTX,33tgb4g0msu3alll9rtp1nk6wbyxtf,3ts1ar6uqur1zlvnnwp4f4o95rm7fq,gDFT4aTX,2020-0188,2021-10-15,11:32:19,12:47:26,NA,incomplete,false,true,NA,8,0,NA,red,m_l_063.jpg,NA,NA,pleasant,unpleasant,NA,NA,NA,NA,NA,right,1612.80000000075,true,NA,NA,NA,NA,NA
gDFT4aTX,33tgb4g0msu3alll9rtp1nk6wbyxtf,3ts1ar6uqur1zlvnnwp4f4o95rm7fq,gDFT4aTX,2020-0188,2021-10-15,11:32:19,12:47:26,NA,incomplete,false,true,NA,8,1,NA,red,n_s_108.jpg,NA,NA,unpleasant,pleasant,NA,NA,NA,NA,NA,right,839.89999999851,true,NA,NA,NA,NA,NA
gDFT4aTX,33tgb4g0msu3alll9rtp1nk6wbyxtf,3ts1ar6uqur1zlvnnwp4f4o95rm7fq,gDFT4aTX,2020-0188,2021-10-15,11:32:19,12:47:26,NA,incomplete,false,true,NA,8,2,NA,red,n_s_047.jpg,NA,NA,unpleasant,pleasant,NA,NA,NA,NA,NA,left,1185.30000000075,true,NA,NA,NA,NA,NA
gDFT4aTX,33tgb4g0msu3alll9rtp1nk6wbyxtf,3ts1ar6uqur1zlvnnwp4f4o95rm7fq,gDFT4aTX,2020-0188,2021-10-15,11:32:19,12:47:26,NA,incomplete,false,true,NA,8,3,NA,red,n_l_103.jpg,NA,NA,unpleasant,pleasant,NA,NA,NA,NA,NA,right,1309.39999999851,true,NA,NA,NA,NA,NA
gDFT4aTX,33tgb4g0msu3alll9rtp1nk6wbyxtf,3ts1ar6uqur1zlvnnwp4f4o95rm7fq,gDFT4aTX,2020-0188,2021-10-15,11:32:19,12:47:26,NA,incomplete,false,true,NA,8,4,NA,red,m_l_104.jpg,NA,NA,unpleasant,pleasant,NA,NA,NA,NA,NA,left,363,true,NA,NA,NA,NA,NA
gDFT4aTX,33tgb4g0msu3alll9rtp1nk6wbyxtf,3ts1ar6uqur1zlvnnwp4f4o95rm7fq,gDFT4aTX,2020-0188,2021-10-15,11:32:19,12:47:26,NA,incomplete,false,true,NA,8,5,NA,red,n_s_113.jpg,NA,NA,pleasant,unpleasant,NA,NA,NA,NA,NA,left,279,true,NA,NA,NA,NA,NA
gDFT4aTX,33tgb4g0msu3alll9rtp1nk6wbyxtf,3ts1ar6uqur1zlvnnwp4f4o95rm7fq,gDFT4aTX,2020-0188,2021-10-15,11:32:19,12:47:26,NA,incomplete,false,true,NA,8,6,NA,blue,m_s_075.jpg,NA,NA,pleasant,unpleasant,NA,NA,NA,NA,NA,left,676.5,true,NA,NA,NA,NA,NA
gDFT4aTX,33tgb4g0msu3alll9rtp1nk6wbyxtf,3ts1ar6uqur1zlvnnwp4f4o95rm7fq,gDFT4aTX,2020-0188,2021-10-15,11:32:19,12:47:26,NA,incomplete,false,true,NA,8,7,NA,blue,n_s_024.jpg,NA,NA,pleasant,unpleasant,NA,NA,NA,NA,NA,left,240.900000002235,true,NA,NA,NA,NA,NA
gDFT4aTX,33tgb4g0msu3alll9rtp1nk6wbyxtf,3ts1ar6uqur1zlvnnwp4f4o95rm7fq,gDFT4aTX,2020-0188,2021-10-15,11:32:19,12:47:26,NA,incomplete,false,true,NA,8,8,NA,blue,n_s_007.jpg,NA,NA,pleasant,unpleasant,NA,NA,NA,NA,NA,right,147.89999999851,true,NA,NA,NA,NA,NA
gDFT4aTX,33tgb4g0msu3alll9rtp1nk6wbyxtf,3ts1ar6uqur1zlvnnwp4f4o95rm7fq,gDFT4aTX,2020-0188,2021-10-15,11:32:19,12:47:26,NA,incomplete,false,true,NA,8,9,NA,blue,n_l_115.jpg,NA,NA,unpleasant,pleasant,NA,NA,NA,NA,NA,right,289.699999999255,true,NA,NA,NA,NA,NA
