workerId,hitId,assignmentId,subject,studyid,exp_date,exp_start,exp_end,time_start,time_end,practice,encoding,memory,block,trial,event_order,event,stim,answer,context_type,label_left,label_right,left_image,left_event,right_image,right_event,condition,response,response_time,response_acc,order_response,order_response_time,order_acc,distance_response,distance_response_time
H4SdRgf0,3o4vwc1gfzjxgki2d88xs18tr9fj3v,337rc3ow09fpa36fr5vigv9wo1cvl0,H4SdRgf0,2020-0188,2021-10-14,14:58:21,16:51:24,NA,incomplete,true,true,NA,0,0,NA,white,m_l_042.jpg,NA,NA,unpleasant,pleasant,NA,NA,NA,NA,NA,left,2823.19999980927,true,NA,NA,NA,NA,NA
H4SdRgf0,3o4vwc1gfzjxgki2d88xs18tr9fj3v,337rc3ow09fpa36fr5vigv9wo1cvl0,H4SdRgf0,2020-0188,2021-10-14,14:58:21,16:51:24,NA,incomplete,true,true,NA,0,1,NA,white,n_l_052.jpg,NA,NA,pleasant,unpleasant,NA,NA,NA,NA,NA,none,0,false,NA,NA,NA,NA,NA
H4SdRgf0,3o4vwc1gfzjxgki2d88xs18tr9fj3v,337rc3ow09fpa36fr5vigv9wo1cvl0,H4SdRgf0,2020-0188,2021-10-14,14:58:21,16:51:24,NA,incomplete,true,true,NA,0,2,NA,white,m_s_108.jpg,NA,NA,pleasant,unpleasant,NA,NA,NA,NA,NA,right,3071.30000019073,true,NA,NA,NA,NA,NA
H4SdRgf0,3o4vwc1gfzjxgki2d88xs18tr9fj3v,337rc3ow09fpa36fr5vigv9wo1cvl0,H4SdRgf0,2020-0188,2021-10-14,14:58:21,16:51:24,NA,incomplete,true,true,NA,0,3,NA,white,m_l_109.jpg,NA,NA,pleasant,unpleasant,NA,NA,NA,NA,NA,right,3292.19999980927,true,NA,NA,NA,NA,NA
H4SdRgf0,3o4vwc1gfzjxgki2d88xs18tr9fj3v,337rc3ow09fpa36fr5vigv9wo1cvl0,H4SdRgf0,2020-0188,2021-10-14,14:58:21,16:51:24,NA,incomplete,true,true,NA,0,4,NA,white,n_l_006.jpg,NA,NA,unpleasant,pleasant,NA,NA,NA,NA,NA,right,2976.2999997139,true,NA,NA,NA,NA,NA
H4SdRgf0,3o4vwc1gfzjxgki2d88xs18tr9fj3v,337rc3ow09fpa36fr5vigv9wo1cvl0,H4SdRgf0,2020-0188,2021-10-14,14:58:21,16:51:24,NA,incomplete,true,true,NA,0,5,NA,white,m_s_102.jpg,NA,NA,pleasant,unpleasant,NA,NA,NA,NA,NA,right,2493.2000002861,true,NA,NA,NA,NA,NA
H4SdRgf0,3o4vwc1gfzjxgki2d88xs18tr9fj3v,337rc3ow09fpa36fr5vigv9wo1cvl0,H4SdRgf0,2020-0188,2021-10-14,14:58:21,16:51:24,NA,incomplete,true,true,NA,0,6,NA,black,n_s_060.jpg,NA,NA,unpleasant,pleasant,NA,NA,NA,NA,NA,left,2586.2999997139,true,NA,NA,NA,NA,NA
H4SdRgf0,3o4vwc1gfzjxgki2d88xs18tr9fj3v,337rc3ow09fpa36fr5vigv9wo1cvl0,H4SdRgf0,2020-0188,2021-10-14,14:58:21,16:51:24,NA,incomplete,true,true,NA,0,7,NA,black,m_s_019.jpg,NA,NA,unpleasant,pleasant,NA,NA,NA,NA,NA,none,0,false,NA,NA,NA,NA,NA
H4SdRgf0,3o4vwc1gfzjxgki2d88xs18tr9fj3v,337rc3ow09fpa36fr5vigv9wo1cvl0,H4SdRgf0,2020-0188,2021-10-14,14:58:21,16:51:24,NA,incomplete,true,true,NA,0,8,NA,black,n_l_077.jpg,NA,NA,unpleasant,pleasant,NA,NA,NA,NA,NA,left,2649.19999980927,true,NA,NA,NA,NA,NA
H4SdRgf0,3o4vwc1gfzjxgki2d88xs18tr9fj3v,337rc3ow09fpa36fr5vigv9wo1cvl0,H4SdRgf0,2020-0188,2021-10-14,14:58:21,16:51:24,NA,incomplete,true,true,NA,0,9,NA,black,m_l_015.jpg,NA,NA,unpleasant,pleasant,NA,NA,NA,NA,NA,right,2334.90000009537,true,NA,NA,NA,NA,NA
H4SdRgf0,3o4vwc1gfzjxgki2d88xs18tr9fj3v,337rc3ow09fpa36fr5vigv9wo1cvl0,H4SdRgf0,2020-0188,2021-10-14,14:58:21,16:51:24,NA,incomplete,true,true,NA,0,10,NA,black,m_l_114.jpg,NA,NA,unpleasant,pleasant,NA,NA,NA,NA,NA,right,2306.5,true,NA,NA,NA,NA,NA
H4SdRgf0,3o4vwc1gfzjxgki2d88xs18tr9fj3v,337rc3ow09fpa36fr5vigv9wo1cvl0,H4SdRgf0,2020-0188,2021-10-14,14:58:21,16:51:24,NA,incomplete,true,true,NA,0,11,NA,black,m_s_103.jpg,NA,NA,pleasant,unpleasant,NA,NA,NA,NA,NA,left,2686.30000019073,true,NA,NA,NA,NA,NA
H4SdRgf0,3o4vwc1gfzjxgki2d88xs18tr9fj3v,337rc3ow09fpa36fr5vigv9wo1cvl0,H4SdRgf0,2020-0188,2021-10-14,14:58:21,16:51:24,NA,incomplete,true,true,NA,0,12,NA,green,m_l_041.jpg,NA,NA,unpleasant,pleasant,NA,NA,NA,NA,NA,left,2891.09999990463,true,NA,NA,NA,NA,NA
H4SdRgf0,3o4vwc1gfzjxgki2d88xs18tr9fj3v,337rc3ow09fpa36fr5vigv9wo1cvl0,H4SdRgf0,2020-0188,2021-10-14,14:58:21,16:51:24,NA,incomplete,true,true,NA,0,13,NA,green,m_s_065.jpg,NA,NA,pleasant,unpleasant,NA,NA,NA,NA,NA,left,1782.80000019073,true,NA,NA,NA,NA,NA
H4SdRgf0,3o4vwc1gfzjxgki2d88xs18tr9fj3v,337rc3ow09fpa36fr5vigv9wo1cvl0,H4SdRgf0,2020-0188,2021-10-14,14:58:21,16:51:24,NA,incomplete,true,true,NA,0,14,NA,green,n_l_022.jpg,NA,NA,pleasant,unpleasant,NA,NA,NA,NA,NA,left,1163.60000038147,true,NA,NA,NA,NA,NA
H4SdRgf0,3o4vwc1gfzjxgki2d88xs18tr9fj3v,337rc3ow09fpa36fr5vigv9wo1cvl0,H4SdRgf0,2020-0188,2021-10-14,14:58:21,16:51:24,NA,incomplete,true,true,NA,0,15,NA,green,m_s_033.jpg,NA,NA,unpleasant,pleasant,NA,NA,NA,NA,NA,right,2655.80000019073,true,NA,NA,NA,NA,NA
H4SdRgf0,3o4vwc1gfzjxgki2d88xs18tr9fj3v,337rc3ow09fpa36fr5vigv9wo1cvl0,H4SdRgf0,2020-0188,2021-10-14,14:58:21,16:51:24,NA,incomplete,true,true,NA,0,16,NA,green,n_l_009.jpg,NA,NA,pleasant,unpleasant,NA,NA,NA,NA,NA,right,2396.2000002861,true,NA,NA,NA,NA,NA
H4SdRgf0,3o4vwc1gfzjxgki2d88xs18tr9fj3v,337rc3ow09fpa36fr5vigv9wo1cvl0,H4SdRgf0,2020-0188,2021-10-14,14:58:21,16:51:24,NA,incomplete,true,true,NA,0,17,NA,green,n_l_084.jpg,NA,NA,unpleasant,pleasant,NA,NA,NA,NA,NA,left,2064.7999997139,true,NA,NA,NA,NA,NA
H4SdRgf0,3o4vwc1gfzjxgki2d88xs18tr9fj3v,337rc3ow09fpa36fr5vigv9wo1cvl0,H4SdRgf0,2020-0188,2021-10-14,14:58:21,16:51:24,NA,incomplete,true,true,NA,0,18,NA,orange,n_s_081.jpg,NA,NA,unpleasant,pleasant,NA,NA,NA,NA,NA,right,2285.2000002861,true,NA,NA,NA,NA,NA
H4SdRgf0,3o4vwc1gfzjxgki2d88xs18tr9fj3v,337rc3ow09fpa36fr5vigv9wo1cvl0,H4SdRgf0,2020-0188,2021-10-14,14:58:21,16:51:24,NA,incomplete,true,true,NA,0,19,NA,orange,m_s_066.jpg,NA,NA,pleasant,unpleasant,NA,NA,NA,NA,NA,left,2768.7000002861,true,NA,NA,NA,NA,NA
H4SdRgf0,3o4vwc1gfzjxgki2d88xs18tr9fj3v,337rc3ow09fpa36fr5vigv9wo1cvl0,H4SdRgf0,2020-0188,2021-10-14,14:58:21,16:51:24,NA,incomplete,true,true,NA,0,20,NA,orange,n_s_045.jpg,NA,NA,pleasant,unpleasant,NA,NA,NA,NA,NA,left,1236,true,NA,NA,NA,NA,NA
H4SdRgf0,3o4vwc1gfzjxgki2d88xs18tr9fj3v,337rc3ow09fpa36fr5vigv9wo1cvl0,H4SdRgf0,2020-0188,2021-10-14,14:58:21,16:51:24,NA,incomplete,true,true,NA,0,21,NA,orange,n_s_043.jpg,NA,NA,unpleasant,pleasant,NA,NA,NA,NA,NA,right,1849.80000019073,true,NA,NA,NA,NA,NA
H4SdRgf0,3o4vwc1gfzjxgki2d88xs18tr9fj3v,337rc3ow09fpa36fr5vigv9wo1cvl0,H4SdRgf0,2020-0188,2021-10-14,14:58:21,16:51:24,NA,incomplete,true,true,NA,0,22,NA,orange,m_l_030.jpg,NA,NA,unpleasant,pleasant,NA,NA,NA,NA,NA,left,1934.5,true,NA,NA,NA,NA,NA
H4SdRgf0,3o4vwc1gfzjxgki2d88xs18tr9fj3v,337rc3ow09fpa36fr5vigv9wo1cvl0,H4SdRgf0,2020-0188,2021-10-14,14:58:21,16:51:24,NA,incomplete,true,true,NA,0,23,NA,orange,n_l_095.jpg,NA,NA,unpleasant,pleasant,NA,NA,NA,NA,NA,right,1825.69999980927,true,NA,NA,NA,NA,NA
H4SdRgf0,3o4vwc1gfzjxgki2d88xs18tr9fj3v,337rc3ow09fpa36fr5vigv9wo1cvl0,H4SdRgf0,2020-0188,2021-10-14,14:58:21,16:51:24,NA,incomplete,true,true,NA,0,24,NA,brown,m_l_090.jpg,NA,NA,pleasant,unpleasant,NA,NA,NA,NA,NA,left,2319,true,NA,NA,NA,NA,NA
H4SdRgf0,3o4vwc1gfzjxgki2d88xs18tr9fj3v,337rc3ow09fpa36fr5vigv9wo1cvl0,H4SdRgf0,2020-0188,2021-10-14,14:58:21,16:51:24,NA,incomplete,true,true,NA,0,25,NA,brown,n_l_106.jpg,NA,NA,unpleasant,pleasant,NA,NA,NA,NA,NA,right,2154.5,true,NA,NA,NA,NA,NA
H4SdRgf0,3o4vwc1gfzjxgki2d88xs18tr9fj3v,337rc3ow09fpa36fr5vigv9wo1cvl0,H4SdRgf0,2020-0188,2021-10-14,14:58:21,16:51:24,NA,incomplete,true,true,NA,0,26,NA,brown,n_s_094.jpg,NA,NA,pleasant,unpleasant,NA,NA,NA,NA,NA,left,2399,true,NA,NA,NA,NA,NA
H4SdRgf0,3o4vwc1gfzjxgki2d88xs18tr9fj3v,337rc3ow09fpa36fr5vigv9wo1cvl0,H4SdRgf0,2020-0188,2021-10-14,14:58:21,16:51:24,NA,incomplete,true,true,NA,0,27,NA,brown,m_s_117.jpg,NA,NA,pleasant,unpleasant,NA,NA,NA,NA,NA,right,2092.19999980927,true,NA,NA,NA,NA,NA
H4SdRgf0,3o4vwc1gfzjxgki2d88xs18tr9fj3v,337rc3ow09fpa36fr5vigv9wo1cvl0,H4SdRgf0,2020-0188,2021-10-14,14:58:21,16:51:24,NA,incomplete,true,true,NA,0,28,NA,brown,n_s_077.jpg,NA,NA,pleasant,unpleasant,NA,NA,NA,NA,NA,right,2255.30000019073,true,NA,NA,NA,NA,NA
H4SdRgf0,3o4vwc1gfzjxgki2d88xs18tr9fj3v,337rc3ow09fpa36fr5vigv9wo1cvl0,H4SdRgf0,2020-0188,2021-10-14,14:58:21,16:51:24,NA,incomplete,true,true,NA,0,29,NA,brown,m_l_044.jpg,NA,NA,pleasant,unpleasant,NA,NA,NA,NA,NA,left,2156.40000009537,true,NA,NA,NA,NA,NA
H4SdRgf0,3o4vwc1gfzjxgki2d88xs18tr9fj3v,337rc3ow09fpa36fr5vigv9wo1cvl0,H4SdRgf0,2020-0188,2021-10-14,14:58:21,16:51:24,NA,incomplete,true,true,NA,0,30,NA,blue,n_l_024.jpg,NA,NA,unpleasant,pleasant,NA,NA,NA,NA,NA,right,2664.2000002861,true,NA,NA,NA,NA,NA
H4SdRgf0,3o4vwc1gfzjxgki2d88xs18tr9fj3v,337rc3ow09fpa36fr5vigv9wo1cvl0,H4SdRgf0,2020-0188,2021-10-14,14:58:21,16:51:24,NA,incomplete,true,true,NA,0,31,NA,blue,n_s_075.jpg,NA,NA,unpleasant,pleasant,NA,NA,NA,NA,NA,left,2253,true,NA,NA,NA,NA,NA
H4SdRgf0,3o4vwc1gfzjxgki2d88xs18tr9fj3v,337rc3ow09fpa36fr5vigv9wo1cvl0,H4SdRgf0,2020-0188,2021-10-14,14:58:21,16:51:24,NA,incomplete,true,true,NA,0,32,NA,blue,m_s_057.jpg,NA,NA,unpleasant,pleasant,NA,NA,NA,NA,NA,right,2952.7000002861,true,NA,NA,NA,NA,NA
H4SdRgf0,3o4vwc1gfzjxgki2d88xs18tr9fj3v,337rc3ow09fpa36fr5vigv9wo1cvl0,H4SdRgf0,2020-0188,2021-10-14,14:58:21,16:51:24,NA,incomplete,true,true,NA,0,33,NA,blue,m_l_016.jpg,NA,NA,unpleasant,pleasant,NA,NA,NA,NA,NA,left,2245.59999990463,true,NA,NA,NA,NA,NA
H4SdRgf0,3o4vwc1gfzjxgki2d88xs18tr9fj3v,337rc3ow09fpa36fr5vigv9wo1cvl0,H4SdRgf0,2020-0188,2021-10-14,14:58:21,16:51:24,NA,incomplete,true,true,NA,0,34,NA,blue,n_l_069.jpg,NA,NA,pleasant,unpleasant,NA,NA,NA,NA,NA,left,2129.59999990463,true,NA,NA,NA,NA,NA
H4SdRgf0,3o4vwc1gfzjxgki2d88xs18tr9fj3v,337rc3ow09fpa36fr5vigv9wo1cvl0,H4SdRgf0,2020-0188,2021-10-14,14:58:21,16:51:24,NA,incomplete,true,true,NA,0,35,NA,blue,m_l_054.jpg,NA,NA,pleasant,unpleasant,NA,NA,NA,NA,NA,left,2246.7000002861,true,NA,NA,NA,NA,NA
H4SdRgf0,3o4vwc1gfzjxgki2d88xs18tr9fj3v,337rc3ow09fpa36fr5vigv9wo1cvl0,H4SdRgf0,2020-0188,2021-10-14,14:58:21,16:51:24,NA,incomplete,true,NA,true,0,0,NA,NA,NA,right,absent,NA,NA,n_s_094.jpg,brown,m_l_030.jpg,orange,between,NA,NaN,NA,right,7479,1,1,5503.400000095367
H4SdRgf0,3o4vwc1gfzjxgki2d88xs18tr9fj3v,337rc3ow09fpa36fr5vigv9wo1cvl0,H4SdRgf0,2020-0188,2021-10-14,14:58:21,16:51:24,NA,incomplete,true,NA,true,0,1,NA,NA,NA,right,present,NA,NA,m_s_103.jpg,black,m_s_019.jpg,black,within,NA,NaN,NA,right,6862.700000286102,1,1,13287.400000095367
H4SdRgf0,3o4vwc1gfzjxgki2d88xs18tr9fj3v,337rc3ow09fpa36fr5vigv9wo1cvl0,H4SdRgf0,2020-0188,2021-10-14,14:58:21,16:51:24,NA,incomplete,true,NA,true,0,2,NA,NA,NA,left,present,NA,NA,m_l_114.jpg,black,n_l_022.jpg,green,between,NA,NaN,NA,right,12390.300000190735,0,0,1886.8000001907349
H4SdRgf0,3o4vwc1gfzjxgki2d88xs18tr9fj3v,337rc3ow09fpa36fr5vigv9wo1cvl0,H4SdRgf0,2020-0188,2021-10-14,14:58:21,16:51:24,NA,incomplete,true,NA,true,0,3,NA,NA,NA,right,absent,NA,NA,n_s_045.jpg,orange,n_l_009.jpg,green,between,NA,NaN,NA,left,8750.900000095367,0,2,1694.9000000953674
H4SdRgf0,3o4vwc1gfzjxgki2d88xs18tr9fj3v,337rc3ow09fpa36fr5vigv9wo1cvl0,H4SdRgf0,2020-0188,2021-10-14,14:58:21,16:51:24,NA,incomplete,true,NA,true,0,4,NA,NA,NA,left,present,NA,NA,m_s_066.jpg,orange,n_l_095.jpg,orange,within,NA,NaN,NA,right,45646.2999997139,0,1,1318.3000001907349
H4SdRgf0,3o4vwc1gfzjxgki2d88xs18tr9fj3v,337rc3ow09fpa36fr5vigv9wo1cvl0,H4SdRgf0,2020-0188,2021-10-14,14:58:21,16:51:24,NA,incomplete,true,NA,true,0,5,NA,NA,NA,left,present,NA,NA,n_l_052.jpg,white,m_s_102.jpg,white,within,NA,NaN,NA,left,10615,1,0,1727.2999997138977
H4SdRgf0,3o4vwc1gfzjxgki2d88xs18tr9fj3v,337rc3ow09fpa36fr5vigv9wo1cvl0,H4SdRgf0,2020-0188,2021-10-14,14:58:21,16:51:24,NA,incomplete,true,NA,true,0,6,NA,NA,NA,left,present,NA,NA,n_s_077.jpg,brown,m_s_057.jpg,blue,between,NA,NaN,NA,left,7847.599999904633,1,1,3007.300000190735
H4SdRgf0,3o4vwc1gfzjxgki2d88xs18tr9fj3v,337rc3ow09fpa36fr5vigv9wo1cvl0,H4SdRgf0,2020-0188,2021-10-14,14:58:21,16:51:24,NA,incomplete,true,NA,true,0,7,NA,NA,NA,right,present,NA,NA,m_l_044.jpg,brown,n_l_106.jpg,brown,within,NA,NaN,NA,left,30559.200000286102,0,0,7766.800000190735
H4SdRgf0,3o4vwc1gfzjxgki2d88xs18tr9fj3v,337rc3ow09fpa36fr5vigv9wo1cvl0,H4SdRgf0,2020-0188,2021-10-14,14:58:21,16:51:24,NA,incomplete,true,NA,true,0,8,NA,NA,NA,left,absent,NA,NA,n_s_075.jpg,blue,m_l_054.jpg,blue,within,NA,NaN,NA,left,22646.599999904633,1,1,4967.300000190735
H4SdRgf0,3o4vwc1gfzjxgki2d88xs18tr9fj3v,337rc3ow09fpa36fr5vigv9wo1cvl0,H4SdRgf0,2020-0188,2021-10-14,14:58:21,16:51:24,NA,incomplete,true,NA,true,0,9,NA,NA,NA,left,present,NA,NA,m_s_065.jpg,green,n_l_084.jpg,green,within,NA,NaN,NA,left,9919.300000190735,1,2,1287
H4SdRgf0,3o4vwc1gfzjxgki2d88xs18tr9fj3v,337rc3ow09fpa36fr5vigv9wo1cvl0,H4SdRgf0,2020-0188,2021-10-14,14:58:21,16:51:24,NA,incomplete,true,NA,true,0,10,NA,NA,NA,left,absent,NA,NA,n_l_006.jpg,white,n_l_077.jpg,black,between,NA,NaN,NA,right,7439.60000038147,0,2,1111.0999999046326
H4SdRgf0,3o4vwc1gfzjxgki2d88xs18tr9fj3v,337rc3ow09fpa36fr5vigv9wo1cvl0,H4SdRgf0,2020-0188,2021-10-14,14:58:21,16:51:24,NA,incomplete,false,true,NA,1,0,NA,purple,n_s_113.jpg,NA,NA,unpleasant,pleasant,NA,NA,NA,NA,NA,right,1876.5,true,NA,NA,NA,NA,NA
H4SdRgf0,3o4vwc1gfzjxgki2d88xs18tr9fj3v,337rc3ow09fpa36fr5vigv9wo1cvl0,H4SdRgf0,2020-0188,2021-10-14,14:58:21,16:51:24,NA,incomplete,false,true,NA,1,1,NA,purple,n_l_114.jpg,NA,NA,unpleasant,pleasant,NA,NA,NA,NA,NA,left,2065.59999990463,true,NA,NA,NA,NA,NA
H4SdRgf0,3o4vwc1gfzjxgki2d88xs18tr9fj3v,337rc3ow09fpa36fr5vigv9wo1cvl0,H4SdRgf0,2020-0188,2021-10-14,14:58:21,16:51:24,NA,incomplete,false,true,NA,1,2,NA,purple,n_s_074.jpg,NA,NA,unpleasant,pleasant,NA,NA,NA,NA,NA,left,2566.69999980927,true,NA,NA,NA,NA,NA
H4SdRgf0,3o4vwc1gfzjxgki2d88xs18tr9fj3v,337rc3ow09fpa36fr5vigv9wo1cvl0,H4SdRgf0,2020-0188,2021-10-14,14:58:21,16:51:24,NA,incomplete,false,true,NA,1,3,NA,purple,m_s_063.jpg,NA,NA,unpleasant,pleasant,NA,NA,NA,NA,NA,right,1626.80000019073,true,NA,NA,NA,NA,NA
H4SdRgf0,3o4vwc1gfzjxgki2d88xs18tr9fj3v,337rc3ow09fpa36fr5vigv9wo1cvl0,H4SdRgf0,2020-0188,2021-10-14,14:58:21,16:51:24,NA,incomplete,false,true,NA,1,4,NA,purple,n_s_061.jpg,NA,NA,unpleasant,pleasant,NA,NA,NA,NA,NA,right,1935,true,NA,NA,NA,NA,NA
H4SdRgf0,3o4vwc1gfzjxgki2d88xs18tr9fj3v,337rc3ow09fpa36fr5vigv9wo1cvl0,H4SdRgf0,2020-0188,2021-10-14,14:58:21,16:51:24,NA,incomplete,false,true,NA,1,5,NA,purple,n_s_062.jpg,NA,NA,pleasant,unpleasant,NA,NA,NA,NA,NA,right,2820,true,NA,NA,NA,NA,NA
H4SdRgf0,3o4vwc1gfzjxgki2d88xs18tr9fj3v,337rc3ow09fpa36fr5vigv9wo1cvl0,H4SdRgf0,2020-0188,2021-10-14,14:58:21,16:51:24,NA,incomplete,false,true,NA,1,6,NA,red,m_l_061.jpg,NA,NA,pleasant,unpleasant,NA,NA,NA,NA,NA,right,2798.90000009537,true,NA,NA,NA,NA,NA
H4SdRgf0,3o4vwc1gfzjxgki2d88xs18tr9fj3v,337rc3ow09fpa36fr5vigv9wo1cvl0,H4SdRgf0,2020-0188,2021-10-14,14:58:21,16:51:24,NA,incomplete,false,true,NA,1,7,NA,red,n_l_041.jpg,NA,NA,pleasant,unpleasant,NA,NA,NA,NA,NA,right,2180.2999997139,true,NA,NA,NA,NA,NA
H4SdRgf0,3o4vwc1gfzjxgki2d88xs18tr9fj3v,337rc3ow09fpa36fr5vigv9wo1cvl0,H4SdRgf0,2020-0188,2021-10-14,14:58:21,16:51:24,NA,incomplete,false,true,NA,1,8,NA,red,n_l_031.jpg,NA,NA,unpleasant,pleasant,NA,NA,NA,NA,NA,left,1697.60000038147,true,NA,NA,NA,NA,NA
H4SdRgf0,3o4vwc1gfzjxgki2d88xs18tr9fj3v,337rc3ow09fpa36fr5vigv9wo1cvl0,H4SdRgf0,2020-0188,2021-10-14,14:58:21,16:51:24,NA,incomplete,false,true,NA,1,9,NA,red,n_s_073.jpg,NA,NA,unpleasant,pleasant,NA,NA,NA,NA,NA,left,2334,true,NA,NA,NA,NA,NA
H4SdRgf0,3o4vwc1gfzjxgki2d88xs18tr9fj3v,337rc3ow09fpa36fr5vigv9wo1cvl0,H4SdRgf0,2020-0188,2021-10-14,14:58:21,16:51:24,NA,incomplete,false,true,NA,1,10,NA,red,n_l_026.jpg,NA,NA,pleasant,unpleasant,NA,NA,NA,NA,NA,left,2578.5,true,NA,NA,NA,NA,NA
H4SdRgf0,3o4vwc1gfzjxgki2d88xs18tr9fj3v,337rc3ow09fpa36fr5vigv9wo1cvl0,H4SdRgf0,2020-0188,2021-10-14,14:58:21,16:51:24,NA,incomplete,false,true,NA,1,11,NA,red,m_s_055.jpg,NA,NA,pleasant,unpleasant,NA,NA,NA,NA,NA,left,2503,true,NA,NA,NA,NA,NA
H4SdRgf0,3o4vwc1gfzjxgki2d88xs18tr9fj3v,337rc3ow09fpa36fr5vigv9wo1cvl0,H4SdRgf0,2020-0188,2021-10-14,14:58:21,16:51:24,NA,incomplete,false,true,NA,1,12,NA,gray,n_l_013.jpg,NA,NA,pleasant,unpleasant,NA,NA,NA,NA,NA,left,3170.7000002861,true,NA,NA,NA,NA,NA
H4SdRgf0,3o4vwc1gfzjxgki2d88xs18tr9fj3v,337rc3ow09fpa36fr5vigv9wo1cvl0,H4SdRgf0,2020-0188,2021-10-14,14:58:21,16:51:24,NA,incomplete,false,true,NA,1,13,NA,gray,n_l_091.jpg,NA,NA,pleasant,unpleasant,NA,NA,NA,NA,NA,right,2534.69999980927,true,NA,NA,NA,NA,NA
H4SdRgf0,3o4vwc1gfzjxgki2d88xs18tr9fj3v,337rc3ow09fpa36fr5vigv9wo1cvl0,H4SdRgf0,2020-0188,2021-10-14,14:58:21,16:51:24,NA,incomplete,false,true,NA,1,14,NA,gray,m_s_024.jpg,NA,NA,unpleasant,pleasant,NA,NA,NA,NA,NA,left,2731.7999997139,true,NA,NA,NA,NA,NA
H4SdRgf0,3o4vwc1gfzjxgki2d88xs18tr9fj3v,337rc3ow09fpa36fr5vigv9wo1cvl0,H4SdRgf0,2020-0188,2021-10-14,14:58:21,16:51:24,NA,incomplete,false,true,NA,1,15,NA,gray,n_s_057.jpg,NA,NA,unpleasant,pleasant,NA,NA,NA,NA,NA,left,2095.40000009537,true,NA,NA,NA,NA,NA
H4SdRgf0,3o4vwc1gfzjxgki2d88xs18tr9fj3v,337rc3ow09fpa36fr5vigv9wo1cvl0,H4SdRgf0,2020-0188,2021-10-14,14:58:21,16:51:24,NA,incomplete,false,true,NA,1,16,NA,gray,m_l_096.jpg,NA,NA,pleasant,unpleasant,NA,NA,NA,NA,NA,right,2292.80000019073,true,NA,NA,NA,NA,NA
H4SdRgf0,3o4vwc1gfzjxgki2d88xs18tr9fj3v,337rc3ow09fpa36fr5vigv9wo1cvl0,H4SdRgf0,2020-0188,2021-10-14,14:58:21,16:51:24,NA,incomplete,false,true,NA,1,17,NA,gray,n_s_011.jpg,NA,NA,unpleasant,pleasant,NA,NA,NA,NA,NA,right,2433.59999990463,true,NA,NA,NA,NA,NA
H4SdRgf0,3o4vwc1gfzjxgki2d88xs18tr9fj3v,337rc3ow09fpa36fr5vigv9wo1cvl0,H4SdRgf0,2020-0188,2021-10-14,14:58:21,16:51:24,NA,incomplete,false,true,NA,1,18,NA,brown,m_l_009.jpg,NA,NA,pleasant,unpleasant,NA,NA,NA,NA,NA,left,1869.09999990463,true,NA,NA,NA,NA,NA
H4SdRgf0,3o4vwc1gfzjxgki2d88xs18tr9fj3v,337rc3ow09fpa36fr5vigv9wo1cvl0,H4SdRgf0,2020-0188,2021-10-14,14:58:21,16:51:24,NA,incomplete,false,true,NA,1,19,NA,brown,n_l_050.jpg,NA,NA,unpleasant,pleasant,NA,NA,NA,NA,NA,right,2729.59999990463,true,NA,NA,NA,NA,NA
H4SdRgf0,3o4vwc1gfzjxgki2d88xs18tr9fj3v,337rc3ow09fpa36fr5vigv9wo1cvl0,H4SdRgf0,2020-0188,2021-10-14,14:58:21,16:51:24,NA,incomplete,false,true,NA,1,20,NA,brown,n_s_006.jpg,NA,NA,unpleasant,pleasant,NA,NA,NA,NA,NA,left,1646.40000009537,true,NA,NA,NA,NA,NA
H4SdRgf0,3o4vwc1gfzjxgki2d88xs18tr9fj3v,337rc3ow09fpa36fr5vigv9wo1cvl0,H4SdRgf0,2020-0188,2021-10-14,14:58:21,16:51:24,NA,incomplete,false,true,NA,1,21,NA,brown,n_l_057.jpg,NA,NA,pleasant,unpleasant,NA,NA,NA,NA,NA,left,1818.5,true,NA,NA,NA,NA,NA
H4SdRgf0,3o4vwc1gfzjxgki2d88xs18tr9fj3v,337rc3ow09fpa36fr5vigv9wo1cvl0,H4SdRgf0,2020-0188,2021-10-14,14:58:21,16:51:24,NA,incomplete,false,true,NA,1,22,NA,brown,m_s_089.jpg,NA,NA,pleasant,unpleasant,NA,NA,NA,NA,NA,left,1686.5,true,NA,NA,NA,NA,NA
H4SdRgf0,3o4vwc1gfzjxgki2d88xs18tr9fj3v,337rc3ow09fpa36fr5vigv9wo1cvl0,H4SdRgf0,2020-0188,2021-10-14,14:58:21,16:51:24,NA,incomplete,false,true,NA,1,23,NA,brown,m_s_109.jpg,NA,NA,unpleasant,pleasant,NA,NA,NA,NA,NA,left,2683.19999980927,true,NA,NA,NA,NA,NA
H4SdRgf0,3o4vwc1gfzjxgki2d88xs18tr9fj3v,337rc3ow09fpa36fr5vigv9wo1cvl0,H4SdRgf0,2020-0188,2021-10-14,14:58:21,16:51:24,NA,incomplete,false,true,NA,1,24,NA,black,n_l_079.jpg,NA,NA,pleasant,unpleasant,NA,NA,NA,NA,NA,left,2967.10000038147,true,NA,NA,NA,NA,NA
H4SdRgf0,3o4vwc1gfzjxgki2d88xs18tr9fj3v,337rc3ow09fpa36fr5vigv9wo1cvl0,H4SdRgf0,2020-0188,2021-10-14,14:58:21,16:51:24,NA,incomplete,false,true,NA,1,25,NA,black,m_l_014.jpg,NA,NA,pleasant,unpleasant,NA,NA,NA,NA,NA,left,2459.80000019073,true,NA,NA,NA,NA,NA
H4SdRgf0,3o4vwc1gfzjxgki2d88xs18tr9fj3v,337rc3ow09fpa36fr5vigv9wo1cvl0,H4SdRgf0,2020-0188,2021-10-14,14:58:21,16:51:24,NA,incomplete,false,true,NA,1,26,NA,black,m_l_001.jpg,NA,NA,pleasant,unpleasant,NA,NA,NA,NA,NA,left,1520.59999990463,true,NA,NA,NA,NA,NA
H4SdRgf0,3o4vwc1gfzjxgki2d88xs18tr9fj3v,337rc3ow09fpa36fr5vigv9wo1cvl0,H4SdRgf0,2020-0188,2021-10-14,14:58:21,16:51:24,NA,incomplete,false,true,NA,1,27,NA,black,n_l_082.jpg,NA,NA,unpleasant,pleasant,NA,NA,NA,NA,NA,left,1876.5,true,NA,NA,NA,NA,NA
H4SdRgf0,3o4vwc1gfzjxgki2d88xs18tr9fj3v,337rc3ow09fpa36fr5vigv9wo1cvl0,H4SdRgf0,2020-0188,2021-10-14,14:58:21,16:51:24,NA,incomplete,false,true,NA,1,28,NA,black,m_s_045.jpg,NA,NA,unpleasant,pleasant,NA,NA,NA,NA,NA,right,2033.80000019073,true,NA,NA,NA,NA,NA
H4SdRgf0,3o4vwc1gfzjxgki2d88xs18tr9fj3v,337rc3ow09fpa36fr5vigv9wo1cvl0,H4SdRgf0,2020-0188,2021-10-14,14:58:21,16:51:24,NA,incomplete,false,true,NA,1,29,NA,black,m_s_079.jpg,NA,NA,unpleasant,pleasant,NA,NA,NA,NA,NA,right,2630.2999997139,true,NA,NA,NA,NA,NA
H4SdRgf0,3o4vwc1gfzjxgki2d88xs18tr9fj3v,337rc3ow09fpa36fr5vigv9wo1cvl0,H4SdRgf0,2020-0188,2021-10-14,14:58:21,16:51:24,NA,incomplete,false,true,NA,1,30,NA,orange,n_s_070.jpg,NA,NA,unpleasant,pleasant,NA,NA,NA,NA,NA,right,1675,true,NA,NA,NA,NA,NA
H4SdRgf0,3o4vwc1gfzjxgki2d88xs18tr9fj3v,337rc3ow09fpa36fr5vigv9wo1cvl0,H4SdRgf0,2020-0188,2021-10-14,14:58:21,16:51:24,NA,incomplete,false,true,NA,1,31,NA,orange,m_s_058.jpg,NA,NA,pleasant,unpleasant,NA,NA,NA,NA,NA,left,2805.10000038147,true,NA,NA,NA,NA,NA
H4SdRgf0,3o4vwc1gfzjxgki2d88xs18tr9fj3v,337rc3ow09fpa36fr5vigv9wo1cvl0,H4SdRgf0,2020-0188,2021-10-14,14:58:21,16:51:24,NA,incomplete,false,true,NA,1,32,NA,orange,m_s_104.jpg,NA,NA,unpleasant,pleasant,NA,NA,NA,NA,NA,right,1859.59999990463,true,NA,NA,NA,NA,NA
H4SdRgf0,3o4vwc1gfzjxgki2d88xs18tr9fj3v,337rc3ow09fpa36fr5vigv9wo1cvl0,H4SdRgf0,2020-0188,2021-10-14,14:58:21,16:51:24,NA,incomplete,false,true,NA,1,33,NA,orange,m_s_088.jpg,NA,NA,pleasant,unpleasant,NA,NA,NA,NA,NA,left,2391.90000009537,true,NA,NA,NA,NA,NA
H4SdRgf0,3o4vwc1gfzjxgki2d88xs18tr9fj3v,337rc3ow09fpa36fr5vigv9wo1cvl0,H4SdRgf0,2020-0188,2021-10-14,14:58:21,16:51:24,NA,incomplete,false,true,NA,1,34,NA,orange,n_l_046.jpg,NA,NA,unpleasant,pleasant,NA,NA,NA,NA,NA,left,2067.90000009537,true,NA,NA,NA,NA,NA
H4SdRgf0,3o4vwc1gfzjxgki2d88xs18tr9fj3v,337rc3ow09fpa36fr5vigv9wo1cvl0,H4SdRgf0,2020-0188,2021-10-14,14:58:21,16:51:24,NA,incomplete,false,true,NA,1,35,NA,orange,n_l_076.jpg,NA,NA,unpleasant,pleasant,NA,NA,NA,NA,NA,left,2416.5,true,NA,NA,NA,NA,NA
H4SdRgf0,3o4vwc1gfzjxgki2d88xs18tr9fj3v,337rc3ow09fpa36fr5vigv9wo1cvl0,H4SdRgf0,2020-0188,2021-10-14,14:58:21,16:51:24,NA,incomplete,false,NA,true,1,0,NA,NA,NA,right,absent,NA,NA,n_s_011.jpg,gray,n_l_091.jpg,gray,within,NA,NaN,NA,right,6942.200000286102,1,2,1742.4000000953674
H4SdRgf0,3o4vwc1gfzjxgki2d88xs18tr9fj3v,337rc3ow09fpa36fr5vigv9wo1cvl0,H4SdRgf0,2020-0188,2021-10-14,14:58:21,16:51:24,NA,incomplete,false,NA,true,1,1,NA,NA,NA,left,absent,NA,NA,n_l_041.jpg,red,m_s_055.jpg,red,within,NA,NaN,NA,right,12374,0,3,1389.9000000953674
H4SdRgf0,3o4vwc1gfzjxgki2d88xs18tr9fj3v,337rc3ow09fpa36fr5vigv9wo1cvl0,H4SdRgf0,2020-0188,2021-10-14,14:58:21,16:51:24,NA,incomplete,false,NA,true,1,2,NA,NA,NA,left,absent,NA,NA,n_s_061.jpg,purple,n_l_031.jpg,red,between,NA,NaN,NA,left,6597.699999809265,1,2,1462.4000000953674
H4SdRgf0,3o4vwc1gfzjxgki2d88xs18tr9fj3v,337rc3ow09fpa36fr5vigv9wo1cvl0,H4SdRgf0,2020-0188,2021-10-14,14:58:21,16:51:24,NA,incomplete,false,NA,true,1,3,NA,NA,NA,left,absent,NA,NA,n_l_050.jpg,brown,m_s_109.jpg,brown,within,NA,NaN,NA,right,11415,0,0,1670.9000000953674
H4SdRgf0,3o4vwc1gfzjxgki2d88xs18tr9fj3v,337rc3ow09fpa36fr5vigv9wo1cvl0,H4SdRgf0,2020-0188,2021-10-14,14:58:21,16:51:24,NA,incomplete,false,NA,true,1,4,NA,NA,NA,left,absent,NA,NA,m_s_045.jpg,black,m_s_104.jpg,orange,between,NA,NaN,NA,right,15774.799999713898,0,0,1710.5999999046326
H4SdRgf0,3o4vwc1gfzjxgki2d88xs18tr9fj3v,337rc3ow09fpa36fr5vigv9wo1cvl0,H4SdRgf0,2020-0188,2021-10-14,14:58:21,16:51:24,NA,incomplete,false,NA,true,1,5,NA,NA,NA,right,absent,NA,NA,m_l_001.jpg,black,m_s_089.jpg,brown,between,NA,NaN,NA,left,14327.5,0,0,1551.1999998092651
H4SdRgf0,3o4vwc1gfzjxgki2d88xs18tr9fj3v,337rc3ow09fpa36fr5vigv9wo1cvl0,H4SdRgf0,2020-0188,2021-10-14,14:58:21,16:51:24,NA,incomplete,false,NA,true,1,6,NA,NA,NA,left,absent,NA,NA,n_l_026.jpg,red,m_s_024.jpg,gray,between,NA,NaN,NA,left,26094.5,1,0,1862.5
H4SdRgf0,3o4vwc1gfzjxgki2d88xs18tr9fj3v,337rc3ow09fpa36fr5vigv9wo1cvl0,H4SdRgf0,2020-0188,2021-10-14,14:58:21,16:51:24,NA,incomplete,false,NA,true,1,7,NA,NA,NA,left,absent,NA,NA,m_l_096.jpg,gray,n_s_006.jpg,brown,between,NA,NaN,NA,right,15462.699999809265,0,0,1672.0999999046326
H4SdRgf0,3o4vwc1gfzjxgki2d88xs18tr9fj3v,337rc3ow09fpa36fr5vigv9wo1cvl0,H4SdRgf0,2020-0188,2021-10-14,14:58:21,16:51:24,NA,incomplete,false,NA,true,1,8,NA,NA,NA,left,absent,NA,NA,n_l_114.jpg,purple,n_s_062.jpg,purple,within,NA,NaN,NA,right,12855,0,1,2614.8999996185303
H4SdRgf0,3o4vwc1gfzjxgki2d88xs18tr9fj3v,337rc3ow09fpa36fr5vigv9wo1cvl0,H4SdRgf0,2020-0188,2021-10-14,14:58:21,16:51:24,NA,incomplete,false,NA,true,1,9,NA,NA,NA,right,absent,NA,NA,n_l_076.jpg,orange,m_s_058.jpg,orange,within,NA,NaN,NA,left,9551.5,0,0,1392
H4SdRgf0,3o4vwc1gfzjxgki2d88xs18tr9fj3v,337rc3ow09fpa36fr5vigv9wo1cvl0,H4SdRgf0,2020-0188,2021-10-14,14:58:21,16:51:24,NA,incomplete,false,NA,true,1,10,NA,NA,NA,left,absent,NA,NA,m_l_014.jpg,black,m_s_079.jpg,black,within,NA,NaN,NA,left,24631.300000190735,1,0,1071.6999998092651
H4SdRgf0,3o4vwc1gfzjxgki2d88xs18tr9fj3v,337rc3ow09fpa36fr5vigv9wo1cvl0,H4SdRgf0,2020-0188,2021-10-14,14:58:21,16:51:24,NA,incomplete,false,true,NA,2,0,NA,white,n_s_108.jpg,NA,NA,unpleasant,pleasant,NA,NA,NA,NA,NA,left,1786.40000009537,true,NA,NA,NA,NA,NA
H4SdRgf0,3o4vwc1gfzjxgki2d88xs18tr9fj3v,337rc3ow09fpa36fr5vigv9wo1cvl0,H4SdRgf0,2020-0188,2021-10-14,14:58:21,16:51:24,NA,incomplete,false,true,NA,2,1,NA,white,m_l_117.jpg,NA,NA,pleasant,unpleasant,NA,NA,NA,NA,NA,right,1646.2000002861,true,NA,NA,NA,NA,NA
H4SdRgf0,3o4vwc1gfzjxgki2d88xs18tr9fj3v,337rc3ow09fpa36fr5vigv9wo1cvl0,H4SdRgf0,2020-0188,2021-10-14,14:58:21,16:51:24,NA,incomplete,false,true,NA,2,2,NA,white,m_s_042.jpg,NA,NA,unpleasant,pleasant,NA,NA,NA,NA,NA,right,1715.90000009537,true,NA,NA,NA,NA,NA
H4SdRgf0,3o4vwc1gfzjxgki2d88xs18tr9fj3v,337rc3ow09fpa36fr5vigv9wo1cvl0,H4SdRgf0,2020-0188,2021-10-14,14:58:21,16:51:24,NA,incomplete,false,true,NA,2,3,NA,white,m_s_094.jpg,NA,NA,unpleasant,pleasant,NA,NA,NA,NA,NA,right,2519.7999997139,true,NA,NA,NA,NA,NA
H4SdRgf0,3o4vwc1gfzjxgki2d88xs18tr9fj3v,337rc3ow09fpa36fr5vigv9wo1cvl0,H4SdRgf0,2020-0188,2021-10-14,14:58:21,16:51:24,NA,incomplete,false,true,NA,2,4,NA,white,m_l_074.jpg,NA,NA,pleasant,unpleasant,NA,NA,NA,NA,NA,left,2164.2999997139,true,NA,NA,NA,NA,NA
H4SdRgf0,3o4vwc1gfzjxgki2d88xs18tr9fj3v,337rc3ow09fpa36fr5vigv9wo1cvl0,H4SdRgf0,2020-0188,2021-10-14,14:58:21,16:51:24,NA,incomplete,false,true,NA,2,5,NA,white,n_s_104.jpg,NA,NA,unpleasant,pleasant,NA,NA,NA,NA,NA,left,2849.39999961853,true,NA,NA,NA,NA,NA
H4SdRgf0,3o4vwc1gfzjxgki2d88xs18tr9fj3v,337rc3ow09fpa36fr5vigv9wo1cvl0,H4SdRgf0,2020-0188,2021-10-14,14:58:21,16:51:24,NA,incomplete,false,true,NA,2,6,NA,green,m_s_090.jpg,NA,NA,unpleasant,pleasant,NA,NA,NA,NA,NA,left,2653.5,true,NA,NA,NA,NA,NA
H4SdRgf0,3o4vwc1gfzjxgki2d88xs18tr9fj3v,337rc3ow09fpa36fr5vigv9wo1cvl0,H4SdRgf0,2020-0188,2021-10-14,14:58:21,16:51:24,NA,incomplete,false,true,NA,2,7,NA,green,n_l_075.jpg,NA,NA,unpleasant,pleasant,NA,NA,NA,NA,NA,left,2249.90000009537,true,NA,NA,NA,NA,NA
H4SdRgf0,3o4vwc1gfzjxgki2d88xs18tr9fj3v,337rc3ow09fpa36fr5vigv9wo1cvl0,H4SdRgf0,2020-0188,2021-10-14,14:58:21,16:51:24,NA,incomplete,false,true,NA,2,8,NA,green,m_l_032.jpg,NA,NA,unpleasant,pleasant,NA,NA,NA,NA,NA,right,2966.80000019073,true,NA,NA,NA,NA,NA
H4SdRgf0,3o4vwc1gfzjxgki2d88xs18tr9fj3v,337rc3ow09fpa36fr5vigv9wo1cvl0,H4SdRgf0,2020-0188,2021-10-14,14:58:21,16:51:24,NA,incomplete,false,true,NA,2,9,NA,green,n_s_044.jpg,NA,NA,unpleasant,pleasant,NA,NA,NA,NA,NA,right,2379.09999990463,true,NA,NA,NA,NA,NA
H4SdRgf0,3o4vwc1gfzjxgki2d88xs18tr9fj3v,337rc3ow09fpa36fr5vigv9wo1cvl0,H4SdRgf0,2020-0188,2021-10-14,14:58:21,16:51:24,NA,incomplete,false,true,NA,2,10,NA,green,m_s_007.jpg,NA,NA,pleasant,unpleasant,NA,NA,NA,NA,NA,left,2319.60000038147,true,NA,NA,NA,NA,NA
H4SdRgf0,3o4vwc1gfzjxgki2d88xs18tr9fj3v,337rc3ow09fpa36fr5vigv9wo1cvl0,H4SdRgf0,2020-0188,2021-10-14,14:58:21,16:51:24,NA,incomplete,false,true,NA,2,11,NA,green,n_l_053.jpg,NA,NA,unpleasant,pleasant,NA,NA,NA,NA,NA,left,2148.7000002861,true,NA,NA,NA,NA,NA
H4SdRgf0,3o4vwc1gfzjxgki2d88xs18tr9fj3v,337rc3ow09fpa36fr5vigv9wo1cvl0,H4SdRgf0,2020-0188,2021-10-14,14:58:21,16:51:24,NA,incomplete,false,true,NA,2,12,NA,gray,m_s_025.jpg,NA,NA,pleasant,unpleasant,NA,NA,NA,NA,NA,left,1416.5,true,NA,NA,NA,NA,NA
H4SdRgf0,3o4vwc1gfzjxgki2d88xs18tr9fj3v,337rc3ow09fpa36fr5vigv9wo1cvl0,H4SdRgf0,2020-0188,2021-10-14,14:58:21,16:51:24,NA,incomplete,false,true,NA,2,13,NA,gray,n_l_005.jpg,NA,NA,unpleasant,pleasant,NA,NA,NA,NA,NA,left,2812.5,true,NA,NA,NA,NA,NA
H4SdRgf0,3o4vwc1gfzjxgki2d88xs18tr9fj3v,337rc3ow09fpa36fr5vigv9wo1cvl0,H4SdRgf0,2020-0188,2021-10-14,14:58:21,16:51:24,NA,incomplete,false,true,NA,2,14,NA,gray,n_s_079.jpg,NA,NA,pleasant,unpleasant,NA,NA,NA,NA,NA,right,2162.5,true,NA,NA,NA,NA,NA
H4SdRgf0,3o4vwc1gfzjxgki2d88xs18tr9fj3v,337rc3ow09fpa36fr5vigv9wo1cvl0,H4SdRgf0,2020-0188,2021-10-14,14:58:21,16:51:24,NA,incomplete,false,true,NA,2,15,NA,gray,n_l_017.jpg,NA,NA,unpleasant,pleasant,NA,NA,NA,NA,NA,left,2838.30000019073,true,NA,NA,NA,NA,NA
H4SdRgf0,3o4vwc1gfzjxgki2d88xs18tr9fj3v,337rc3ow09fpa36fr5vigv9wo1cvl0,H4SdRgf0,2020-0188,2021-10-14,14:58:21,16:51:24,NA,incomplete,false,true,NA,2,16,NA,gray,m_l_065.jpg,NA,NA,unpleasant,pleasant,NA,NA,NA,NA,NA,right,2922.69999980927,true,NA,NA,NA,NA,NA
H4SdRgf0,3o4vwc1gfzjxgki2d88xs18tr9fj3v,337rc3ow09fpa36fr5vigv9wo1cvl0,H4SdRgf0,2020-0188,2021-10-14,14:58:21,16:51:24,NA,incomplete,false,true,NA,2,17,NA,gray,n_l_047.jpg,NA,NA,unpleasant,pleasant,NA,NA,NA,NA,NA,right,1679.09999990463,true,NA,NA,NA,NA,NA
H4SdRgf0,3o4vwc1gfzjxgki2d88xs18tr9fj3v,337rc3ow09fpa36fr5vigv9wo1cvl0,H4SdRgf0,2020-0188,2021-10-14,14:58:21,16:51:24,NA,incomplete,false,true,NA,2,18,NA,black,m_s_106.jpg,NA,NA,pleasant,unpleasant,NA,NA,NA,NA,NA,right,2675.40000009537,true,NA,NA,NA,NA,NA
H4SdRgf0,3o4vwc1gfzjxgki2d88xs18tr9fj3v,337rc3ow09fpa36fr5vigv9wo1cvl0,H4SdRgf0,2020-0188,2021-10-14,14:58:21,16:51:24,NA,incomplete,false,true,NA,2,19,NA,black,m_l_101.jpg,NA,NA,pleasant,unpleasant,NA,NA,NA,NA,NA,right,3032.40000009537,true,NA,NA,NA,NA,NA
H4SdRgf0,3o4vwc1gfzjxgki2d88xs18tr9fj3v,337rc3ow09fpa36fr5vigv9wo1cvl0,H4SdRgf0,2020-0188,2021-10-14,14:58:21,16:51:24,NA,incomplete,false,true,NA,2,20,NA,black,m_s_043.jpg,NA,NA,pleasant,unpleasant,NA,NA,NA,NA,NA,left,3324.5,true,NA,NA,NA,NA,NA
H4SdRgf0,3o4vwc1gfzjxgki2d88xs18tr9fj3v,337rc3ow09fpa36fr5vigv9wo1cvl0,H4SdRgf0,2020-0188,2021-10-14,14:58:21,16:51:24,NA,incomplete,false,true,NA,2,21,NA,black,n_s_099.jpg,NA,NA,unpleasant,pleasant,NA,NA,NA,NA,NA,left,2697.10000038147,true,NA,NA,NA,NA,NA
H4SdRgf0,3o4vwc1gfzjxgki2d88xs18tr9fj3v,337rc3ow09fpa36fr5vigv9wo1cvl0,H4SdRgf0,2020-0188,2021-10-14,14:58:21,16:51:24,NA,incomplete,false,true,NA,2,22,NA,black,m_s_022.jpg,NA,NA,unpleasant,pleasant,NA,NA,NA,NA,NA,left,3102.19999980927,true,NA,NA,NA,NA,NA
H4SdRgf0,3o4vwc1gfzjxgki2d88xs18tr9fj3v,337rc3ow09fpa36fr5vigv9wo1cvl0,H4SdRgf0,2020-0188,2021-10-14,14:58:21,16:51:24,NA,incomplete,false,true,NA,2,23,NA,black,n_s_090.jpg,NA,NA,unpleasant,pleasant,NA,NA,NA,NA,NA,left,2346.19999980927,true,NA,NA,NA,NA,NA
H4SdRgf0,3o4vwc1gfzjxgki2d88xs18tr9fj3v,337rc3ow09fpa36fr5vigv9wo1cvl0,H4SdRgf0,2020-0188,2021-10-14,14:58:21,16:51:24,NA,incomplete,false,true,NA,2,24,NA,purple,n_l_025.jpg,NA,NA,unpleasant,pleasant,NA,NA,NA,NA,NA,left,2454.59999990463,true,NA,NA,NA,NA,NA
H4SdRgf0,3o4vwc1gfzjxgki2d88xs18tr9fj3v,337rc3ow09fpa36fr5vigv9wo1cvl0,H4SdRgf0,2020-0188,2021-10-14,14:58:21,16:51:24,NA,incomplete,false,true,NA,2,25,NA,purple,n_l_033.jpg,NA,NA,unpleasant,pleasant,NA,NA,NA,NA,NA,left,1691.2999997139,true,NA,NA,NA,NA,NA
H4SdRgf0,3o4vwc1gfzjxgki2d88xs18tr9fj3v,337rc3ow09fpa36fr5vigv9wo1cvl0,H4SdRgf0,2020-0188,2021-10-14,14:58:21,16:51:24,NA,incomplete,false,true,NA,2,26,NA,purple,m_l_082.jpg,NA,NA,unpleasant,pleasant,NA,NA,NA,NA,NA,right,2718.30000019073,true,NA,NA,NA,NA,NA
H4SdRgf0,3o4vwc1gfzjxgki2d88xs18tr9fj3v,337rc3ow09fpa36fr5vigv9wo1cvl0,H4SdRgf0,2020-0188,2021-10-14,14:58:21,16:51:24,NA,incomplete,false,true,NA,2,27,NA,purple,m_l_103.jpg,NA,NA,unpleasant,pleasant,NA,NA,NA,NA,NA,right,1507,true,NA,NA,NA,NA,NA
H4SdRgf0,3o4vwc1gfzjxgki2d88xs18tr9fj3v,337rc3ow09fpa36fr5vigv9wo1cvl0,H4SdRgf0,2020-0188,2021-10-14,14:58:21,16:51:24,NA,incomplete,false,true,NA,2,28,NA,purple,n_l_035.jpg,NA,NA,pleasant,unpleasant,NA,NA,NA,NA,NA,left,2871.40000009537,true,NA,NA,NA,NA,NA
H4SdRgf0,3o4vwc1gfzjxgki2d88xs18tr9fj3v,337rc3ow09fpa36fr5vigv9wo1cvl0,H4SdRgf0,2020-0188,2021-10-14,14:58:21,16:51:24,NA,incomplete,false,true,NA,2,29,NA,purple,n_s_027.jpg,NA,NA,unpleasant,pleasant,NA,NA,NA,NA,NA,left,2898.09999990463,true,NA,NA,NA,NA,NA
H4SdRgf0,3o4vwc1gfzjxgki2d88xs18tr9fj3v,337rc3ow09fpa36fr5vigv9wo1cvl0,H4SdRgf0,2020-0188,2021-10-14,14:58:21,16:51:24,NA,incomplete,false,true,NA,2,30,NA,blue,n_s_024.jpg,NA,NA,unpleasant,pleasant,NA,NA,NA,NA,NA,left,2127.5,true,NA,NA,NA,NA,NA
H4SdRgf0,3o4vwc1gfzjxgki2d88xs18tr9fj3v,337rc3ow09fpa36fr5vigv9wo1cvl0,H4SdRgf0,2020-0188,2021-10-14,14:58:21,16:51:24,NA,incomplete,false,true,NA,2,31,NA,blue,m_l_033.jpg,NA,NA,unpleasant,pleasant,NA,NA,NA,NA,NA,right,1556.5,true,NA,NA,NA,NA,NA
H4SdRgf0,3o4vwc1gfzjxgki2d88xs18tr9fj3v,337rc3ow09fpa36fr5vigv9wo1cvl0,H4SdRgf0,2020-0188,2021-10-14,14:58:21,16:51:24,NA,incomplete,false,true,NA,2,32,NA,blue,m_s_071.jpg,NA,NA,unpleasant,pleasant,NA,NA,NA,NA,NA,right,1928.40000009537,true,NA,NA,NA,NA,NA
H4SdRgf0,3o4vwc1gfzjxgki2d88xs18tr9fj3v,337rc3ow09fpa36fr5vigv9wo1cvl0,H4SdRgf0,2020-0188,2021-10-14,14:58:21,16:51:24,NA,incomplete,false,true,NA,2,33,NA,blue,n_s_109.jpg,NA,NA,pleasant,unpleasant,NA,NA,NA,NA,NA,left,2589.40000009537,true,NA,NA,NA,NA,NA
H4SdRgf0,3o4vwc1gfzjxgki2d88xs18tr9fj3v,337rc3ow09fpa36fr5vigv9wo1cvl0,H4SdRgf0,2020-0188,2021-10-14,14:58:21,16:51:24,NA,incomplete,false,true,NA,2,34,NA,blue,m_s_023.jpg,NA,NA,unpleasant,pleasant,NA,NA,NA,NA,NA,right,1697.30000019073,true,NA,NA,NA,NA,NA
H4SdRgf0,3o4vwc1gfzjxgki2d88xs18tr9fj3v,337rc3ow09fpa36fr5vigv9wo1cvl0,H4SdRgf0,2020-0188,2021-10-14,14:58:21,16:51:24,NA,incomplete,false,true,NA,2,35,NA,blue,n_l_066.jpg,NA,NA,unpleasant,pleasant,NA,NA,NA,NA,NA,left,2693.40000009537,true,NA,NA,NA,NA,NA
H4SdRgf0,3o4vwc1gfzjxgki2d88xs18tr9fj3v,337rc3ow09fpa36fr5vigv9wo1cvl0,H4SdRgf0,2020-0188,2021-10-14,14:58:21,16:51:24,NA,incomplete,false,NA,true,2,0,NA,NA,NA,right,present,NA,NA,m_s_071.jpg,blue,n_l_035.jpg,purple,between,NA,NaN,NA,left,13685.89999961853,0,1,5063.799999713898
H4SdRgf0,3o4vwc1gfzjxgki2d88xs18tr9fj3v,337rc3ow09fpa36fr5vigv9wo1cvl0,H4SdRgf0,2020-0188,2021-10-14,14:58:21,16:51:24,NA,incomplete,false,NA,true,2,1,NA,NA,NA,left,present,NA,NA,m_l_074.jpg,white,m_l_032.jpg,green,between,NA,NaN,NA,left,57887.5,1,1,1110.6000003814697
H4SdRgf0,3o4vwc1gfzjxgki2d88xs18tr9fj3v,337rc3ow09fpa36fr5vigv9wo1cvl0,H4SdRgf0,2020-0188,2021-10-14,14:58:21,16:51:24,NA,incomplete,false,NA,true,2,2,NA,NA,NA,right,present,NA,NA,n_l_066.jpg,blue,m_l_033.jpg,blue,within,NA,NaN,NA,right,8126.400000095367,1,0,1470.3000001907349
H4SdRgf0,3o4vwc1gfzjxgki2d88xs18tr9fj3v,337rc3ow09fpa36fr5vigv9wo1cvl0,H4SdRgf0,2020-0188,2021-10-14,14:58:21,16:51:24,NA,incomplete,false,NA,true,2,3,NA,NA,NA,left,present,NA,NA,n_l_075.jpg,green,n_l_053.jpg,green,within,NA,NaN,NA,right,14223.300000190735,0,0,1110.1000003814697
H4SdRgf0,3o4vwc1gfzjxgki2d88xs18tr9fj3v,337rc3ow09fpa36fr5vigv9wo1cvl0,H4SdRgf0,2020-0188,2021-10-14,14:58:21,16:51:24,NA,incomplete,false,NA,true,2,4,NA,NA,NA,left,present,NA,NA,m_s_007.jpg,green,n_s_079.jpg,gray,between,NA,NaN,NA,left,7158,1,2,1423.4000000953674
H4SdRgf0,3o4vwc1gfzjxgki2d88xs18tr9fj3v,337rc3ow09fpa36fr5vigv9wo1cvl0,H4SdRgf0,2020-0188,2021-10-14,14:58:21,16:51:24,NA,incomplete,false,NA,true,2,5,NA,NA,NA,right,present,NA,NA,n_s_090.jpg,black,m_l_101.jpg,black,within,NA,NaN,NA,left,13071.400000095367,0,1,2926.9000000953674
H4SdRgf0,3o4vwc1gfzjxgki2d88xs18tr9fj3v,337rc3ow09fpa36fr5vigv9wo1cvl0,H4SdRgf0,2020-0188,2021-10-14,14:58:21,16:51:24,NA,incomplete,false,NA,true,2,6,NA,NA,NA,left,present,NA,NA,n_l_005.jpg,gray,n_l_047.jpg,gray,within,NA,NaN,NA,left,18126.700000286102,1,0,1135.5
H4SdRgf0,3o4vwc1gfzjxgki2d88xs18tr9fj3v,337rc3ow09fpa36fr5vigv9wo1cvl0,H4SdRgf0,2020-0188,2021-10-14,14:58:21,16:51:24,NA,incomplete,false,NA,true,2,7,NA,NA,NA,right,present,NA,NA,n_s_104.jpg,white,m_l_117.jpg,white,within,NA,NaN,NA,left,9350.700000286102,0,0,1263.4000000953674
H4SdRgf0,3o4vwc1gfzjxgki2d88xs18tr9fj3v,337rc3ow09fpa36fr5vigv9wo1cvl0,H4SdRgf0,2020-0188,2021-10-14,14:58:21,16:51:24,NA,incomplete,false,NA,true,2,8,NA,NA,NA,left,present,NA,NA,n_l_033.jpg,purple,n_s_027.jpg,purple,within,NA,NaN,NA,left,19526.599999904633,1,0,1518.5999999046326
H4SdRgf0,3o4vwc1gfzjxgki2d88xs18tr9fj3v,337rc3ow09fpa36fr5vigv9wo1cvl0,H4SdRgf0,2020-0188,2021-10-14,14:58:21,16:51:24,NA,incomplete,false,NA,true,2,9,NA,NA,NA,left,present,NA,NA,m_l_065.jpg,gray,m_s_043.jpg,black,between,NA,NaN,NA,right,10918,0,1,3590.800000190735
H4SdRgf0,3o4vwc1gfzjxgki2d88xs18tr9fj3v,337rc3ow09fpa36fr5vigv9wo1cvl0,H4SdRgf0,2020-0188,2021-10-14,14:58:21,16:51:24,NA,incomplete,false,NA,true,2,10,NA,NA,NA,left,present,NA,NA,m_s_022.jpg,black,m_l_082.jpg,purple,between,NA,NaN,NA,left,11846.89999961853,1,2,1911
H4SdRgf0,3o4vwc1gfzjxgki2d88xs18tr9fj3v,337rc3ow09fpa36fr5vigv9wo1cvl0,H4SdRgf0,2020-0188,2021-10-14,14:58:21,16:51:24,NA,incomplete,false,true,NA,3,0,NA,blue,n_s_084.jpg,NA,NA,pleasant,unpleasant,NA,NA,NA,NA,NA,right,2490.30000019073,true,NA,NA,NA,NA,NA
H4SdRgf0,3o4vwc1gfzjxgki2d88xs18tr9fj3v,337rc3ow09fpa36fr5vigv9wo1cvl0,H4SdRgf0,2020-0188,2021-10-14,14:58:21,16:51:24,NA,incomplete,false,true,NA,3,1,NA,blue,n_l_043.jpg,NA,NA,pleasant,unpleasant,NA,NA,NA,NA,NA,right,2037.80000019073,true,NA,NA,NA,NA,NA
H4SdRgf0,3o4vwc1gfzjxgki2d88xs18tr9fj3v,337rc3ow09fpa36fr5vigv9wo1cvl0,H4SdRgf0,2020-0188,2021-10-14,14:58:21,16:51:24,NA,incomplete,false,true,NA,3,2,NA,blue,n_l_087.jpg,NA,NA,pleasant,unpleasant,NA,NA,NA,NA,NA,right,2952.59999990463,true,NA,NA,NA,NA,NA
H4SdRgf0,3o4vwc1gfzjxgki2d88xs18tr9fj3v,337rc3ow09fpa36fr5vigv9wo1cvl0,H4SdRgf0,2020-0188,2021-10-14,14:58:21,16:51:24,NA,incomplete,false,true,NA,3,3,NA,blue,m_l_012.jpg,NA,NA,pleasant,unpleasant,NA,NA,NA,NA,NA,left,2526.2999997139,true,NA,NA,NA,NA,NA
H4SdRgf0,3o4vwc1gfzjxgki2d88xs18tr9fj3v,337rc3ow09fpa36fr5vigv9wo1cvl0,H4SdRgf0,2020-0188,2021-10-14,14:58:21,16:51:24,NA,incomplete,false,true,NA,3,4,NA,blue,m_l_070.jpg,NA,NA,pleasant,unpleasant,NA,NA,NA,NA,NA,left,2193.7000002861,true,NA,NA,NA,NA,NA
H4SdRgf0,3o4vwc1gfzjxgki2d88xs18tr9fj3v,337rc3ow09fpa36fr5vigv9wo1cvl0,H4SdRgf0,2020-0188,2021-10-14,14:58:21,16:51:24,NA,incomplete,false,true,NA,3,5,NA,blue,n_s_054.jpg,NA,NA,unpleasant,pleasant,NA,NA,NA,NA,NA,left,1904,true,NA,NA,NA,NA,NA
H4SdRgf0,3o4vwc1gfzjxgki2d88xs18tr9fj3v,337rc3ow09fpa36fr5vigv9wo1cvl0,H4SdRgf0,2020-0188,2021-10-14,14:58:21,16:51:24,NA,incomplete,false,true,NA,3,6,NA,red,m_l_113.jpg,NA,NA,pleasant,unpleasant,NA,NA,NA,NA,NA,left,2915.7000002861,true,NA,NA,NA,NA,NA
H4SdRgf0,3o4vwc1gfzjxgki2d88xs18tr9fj3v,337rc3ow09fpa36fr5vigv9wo1cvl0,H4SdRgf0,2020-0188,2021-10-14,14:58:21,16:51:24,NA,incomplete,false,true,NA,3,7,NA,red,m_s_026.jpg,NA,NA,unpleasant,pleasant,NA,NA,NA,NA,NA,right,2376.5,true,NA,NA,NA,NA,NA
H4SdRgf0,3o4vwc1gfzjxgki2d88xs18tr9fj3v,337rc3ow09fpa36fr5vigv9wo1cvl0,H4SdRgf0,2020-0188,2021-10-14,14:58:21,16:51:24,NA,incomplete,false,true,NA,3,8,NA,red,n_l_072.jpg,NA,NA,unpleasant,pleasant,NA,NA,NA,NA,NA,right,1701.30000019073,true,NA,NA,NA,NA,NA
H4SdRgf0,3o4vwc1gfzjxgki2d88xs18tr9fj3v,337rc3ow09fpa36fr5vigv9wo1cvl0,H4SdRgf0,2020-0188,2021-10-14,14:58:21,16:51:24,NA,incomplete,false,true,NA,3,9,NA,red,n_l_074.jpg,NA,NA,pleasant,unpleasant,NA,NA,NA,NA,NA,left,2369.2000002861,true,NA,NA,NA,NA,NA
H4SdRgf0,3o4vwc1gfzjxgki2d88xs18tr9fj3v,337rc3ow09fpa36fr5vigv9wo1cvl0,H4SdRgf0,2020-0188,2021-10-14,14:58:21,16:51:24,NA,incomplete,false,true,NA,3,10,NA,red,n_l_012.jpg,NA,NA,unpleasant,pleasant,NA,NA,NA,NA,NA,left,2388.7000002861,true,NA,NA,NA,NA,NA
H4SdRgf0,3o4vwc1gfzjxgki2d88xs18tr9fj3v,337rc3ow09fpa36fr5vigv9wo1cvl0,H4SdRgf0,2020-0188,2021-10-14,14:58:21,16:51:24,NA,incomplete,false,true,NA,3,11,NA,red,m_s_113.jpg,NA,NA,pleasant,unpleasant,NA,NA,NA,NA,NA,left,2241.59999990463,true,NA,NA,NA,NA,NA
H4SdRgf0,3o4vwc1gfzjxgki2d88xs18tr9fj3v,337rc3ow09fpa36fr5vigv9wo1cvl0,H4SdRgf0,2020-0188,2021-10-14,14:58:21,16:51:24,NA,incomplete,false,true,NA,3,12,NA,green,n_l_089.jpg,NA,NA,pleasant,unpleasant,NA,NA,NA,NA,NA,left,2876.7000002861,true,NA,NA,NA,NA,NA
H4SdRgf0,3o4vwc1gfzjxgki2d88xs18tr9fj3v,337rc3ow09fpa36fr5vigv9wo1cvl0,H4SdRgf0,2020-0188,2021-10-14,14:58:21,16:51:24,NA,incomplete,false,true,NA,3,13,NA,green,m_l_095.jpg,NA,NA,unpleasant,pleasant,NA,NA,NA,NA,NA,right,2129.69999980927,true,NA,NA,NA,NA,NA
H4SdRgf0,3o4vwc1gfzjxgki2d88xs18tr9fj3v,337rc3ow09fpa36fr5vigv9wo1cvl0,H4SdRgf0,2020-0188,2021-10-14,14:58:21,16:51:24,NA,incomplete,false,true,NA,3,14,NA,green,m_l_028.jpg,NA,NA,pleasant,unpleasant,NA,NA,NA,NA,NA,left,3014.59999990463,true,NA,NA,NA,NA,NA
H4SdRgf0,3o4vwc1gfzjxgki2d88xs18tr9fj3v,337rc3ow09fpa36fr5vigv9wo1cvl0,H4SdRgf0,2020-0188,2021-10-14,14:58:21,16:51:24,NA,incomplete,false,true,NA,3,15,NA,green,n_s_096.jpg,NA,NA,unpleasant,pleasant,NA,NA,NA,NA,NA,right,2458.69999980927,true,NA,NA,NA,NA,NA
H4SdRgf0,3o4vwc1gfzjxgki2d88xs18tr9fj3v,337rc3ow09fpa36fr5vigv9wo1cvl0,H4SdRgf0,2020-0188,2021-10-14,14:58:21,16:51:24,NA,incomplete,false,true,NA,3,16,NA,green,m_l_079.jpg,NA,NA,unpleasant,pleasant,NA,NA,NA,NA,NA,left,2927.7000002861,true,NA,NA,NA,NA,NA
H4SdRgf0,3o4vwc1gfzjxgki2d88xs18tr9fj3v,337rc3ow09fpa36fr5vigv9wo1cvl0,H4SdRgf0,2020-0188,2021-10-14,14:58:21,16:51:24,NA,incomplete,false,true,NA,3,17,NA,green,m_l_029.jpg,NA,NA,pleasant,unpleasant,NA,NA,NA,NA,NA,left,1396.80000019073,true,NA,NA,NA,NA,NA
H4SdRgf0,3o4vwc1gfzjxgki2d88xs18tr9fj3v,337rc3ow09fpa36fr5vigv9wo1cvl0,H4SdRgf0,2020-0188,2021-10-14,14:58:21,16:51:24,NA,incomplete,false,true,NA,3,18,NA,brown,m_l_048.jpg,NA,NA,unpleasant,pleasant,NA,NA,NA,NA,NA,right,2073.2999997139,true,NA,NA,NA,NA,NA
H4SdRgf0,3o4vwc1gfzjxgki2d88xs18tr9fj3v,337rc3ow09fpa36fr5vigv9wo1cvl0,H4SdRgf0,2020-0188,2021-10-14,14:58:21,16:51:24,NA,incomplete,false,true,NA,3,19,NA,brown,m_s_111.jpg,NA,NA,unpleasant,pleasant,NA,NA,NA,NA,NA,left,1845.09999990463,true,NA,NA,NA,NA,NA
H4SdRgf0,3o4vwc1gfzjxgki2d88xs18tr9fj3v,337rc3ow09fpa36fr5vigv9wo1cvl0,H4SdRgf0,2020-0188,2021-10-14,14:58:21,16:51:24,NA,incomplete,false,true,NA,3,20,NA,brown,m_s_091.jpg,NA,NA,pleasant,unpleasant,NA,NA,NA,NA,NA,right,2033.69999980927,true,NA,NA,NA,NA,NA
H4SdRgf0,3o4vwc1gfzjxgki2d88xs18tr9fj3v,337rc3ow09fpa36fr5vigv9wo1cvl0,H4SdRgf0,2020-0188,2021-10-14,14:58:21,16:51:24,NA,incomplete,false,true,NA,3,21,NA,brown,n_s_110.jpg,NA,NA,unpleasant,pleasant,NA,NA,NA,NA,NA,right,1837,true,NA,NA,NA,NA,NA
H4SdRgf0,3o4vwc1gfzjxgki2d88xs18tr9fj3v,337rc3ow09fpa36fr5vigv9wo1cvl0,H4SdRgf0,2020-0188,2021-10-14,14:58:21,16:51:24,NA,incomplete,false,true,NA,3,22,NA,brown,m_l_035.jpg,NA,NA,pleasant,unpleasant,NA,NA,NA,NA,NA,left,2401.30000019073,true,NA,NA,NA,NA,NA
H4SdRgf0,3o4vwc1gfzjxgki2d88xs18tr9fj3v,337rc3ow09fpa36fr5vigv9wo1cvl0,H4SdRgf0,2020-0188,2021-10-14,14:58:21,16:51:24,NA,incomplete,false,true,NA,3,23,NA,brown,m_s_100.jpg,NA,NA,pleasant,unpleasant,NA,NA,NA,NA,NA,right,2326.40000009537,true,NA,NA,NA,NA,NA
H4SdRgf0,3o4vwc1gfzjxgki2d88xs18tr9fj3v,337rc3ow09fpa36fr5vigv9wo1cvl0,H4SdRgf0,2020-0188,2021-10-14,14:58:21,16:51:24,NA,incomplete,false,true,NA,3,24,NA,yellow,n_l_018.jpg,NA,NA,pleasant,unpleasant,NA,NA,NA,NA,NA,right,2210.80000019073,true,NA,NA,NA,NA,NA
H4SdRgf0,3o4vwc1gfzjxgki2d88xs18tr9fj3v,337rc3ow09fpa36fr5vigv9wo1cvl0,H4SdRgf0,2020-0188,2021-10-14,14:58:21,16:51:24,NA,incomplete,false,true,NA,3,25,NA,yellow,m_s_101.jpg,NA,NA,pleasant,unpleasant,NA,NA,NA,NA,NA,right,1687.2000002861,true,NA,NA,NA,NA,NA
H4SdRgf0,3o4vwc1gfzjxgki2d88xs18tr9fj3v,337rc3ow09fpa36fr5vigv9wo1cvl0,H4SdRgf0,2020-0188,2021-10-14,14:58:21,16:51:24,NA,incomplete,false,true,NA,3,26,NA,yellow,m_l_097.jpg,NA,NA,pleasant,unpleasant,NA,NA,NA,NA,NA,right,1692.09999990463,true,NA,NA,NA,NA,NA
H4SdRgf0,3o4vwc1gfzjxgki2d88xs18tr9fj3v,337rc3ow09fpa36fr5vigv9wo1cvl0,H4SdRgf0,2020-0188,2021-10-14,14:58:21,16:51:24,NA,incomplete,false,true,NA,3,27,NA,yellow,m_s_056.jpg,NA,NA,unpleasant,pleasant,NA,NA,NA,NA,NA,right,1704.09999990463,true,NA,NA,NA,NA,NA
H4SdRgf0,3o4vwc1gfzjxgki2d88xs18tr9fj3v,337rc3ow09fpa36fr5vigv9wo1cvl0,H4SdRgf0,2020-0188,2021-10-14,14:58:21,16:51:24,NA,incomplete,false,true,NA,3,28,NA,yellow,m_l_085.jpg,NA,NA,pleasant,unpleasant,NA,NA,NA,NA,NA,right,1467.7999997139,true,NA,NA,NA,NA,NA
H4SdRgf0,3o4vwc1gfzjxgki2d88xs18tr9fj3v,337rc3ow09fpa36fr5vigv9wo1cvl0,H4SdRgf0,2020-0188,2021-10-14,14:58:21,16:51:24,NA,incomplete,false,true,NA,3,29,NA,yellow,m_l_060.jpg,NA,NA,pleasant,unpleasant,NA,NA,NA,NA,NA,left,1256.2999997139,true,NA,NA,NA,NA,NA
H4SdRgf0,3o4vwc1gfzjxgki2d88xs18tr9fj3v,337rc3ow09fpa36fr5vigv9wo1cvl0,H4SdRgf0,2020-0188,2021-10-14,14:58:21,16:51:24,NA,incomplete,false,true,NA,3,30,NA,black,n_s_047.jpg,NA,NA,unpleasant,pleasant,NA,NA,NA,NA,NA,left,2923.90000009537,true,NA,NA,NA,NA,NA
H4SdRgf0,3o4vwc1gfzjxgki2d88xs18tr9fj3v,337rc3ow09fpa36fr5vigv9wo1cvl0,H4SdRgf0,2020-0188,2021-10-14,14:58:21,16:51:24,NA,incomplete,false,true,NA,3,31,NA,black,m_l_051.jpg,NA,NA,unpleasant,pleasant,NA,NA,NA,NA,NA,left,2400.30000019073,true,NA,NA,NA,NA,NA
H4SdRgf0,3o4vwc1gfzjxgki2d88xs18tr9fj3v,337rc3ow09fpa36fr5vigv9wo1cvl0,H4SdRgf0,2020-0188,2021-10-14,14:58:21,16:51:24,NA,incomplete,false,true,NA,3,32,NA,black,m_s_046.jpg,NA,NA,unpleasant,pleasant,NA,NA,NA,NA,NA,right,1508.09999990463,true,NA,NA,NA,NA,NA
H4SdRgf0,3o4vwc1gfzjxgki2d88xs18tr9fj3v,337rc3ow09fpa36fr5vigv9wo1cvl0,H4SdRgf0,2020-0188,2021-10-14,14:58:21,16:51:24,NA,incomplete,false,true,NA,3,33,NA,black,n_s_021.jpg,NA,NA,pleasant,unpleasant,NA,NA,NA,NA,NA,right,1960.30000019073,true,NA,NA,NA,NA,NA
H4SdRgf0,3o4vwc1gfzjxgki2d88xs18tr9fj3v,337rc3ow09fpa36fr5vigv9wo1cvl0,H4SdRgf0,2020-0188,2021-10-14,14:58:21,16:51:24,NA,incomplete,false,true,NA,3,34,NA,black,n_l_108.jpg,NA,NA,unpleasant,pleasant,NA,NA,NA,NA,NA,left,2517.69999980927,true,NA,NA,NA,NA,NA
H4SdRgf0,3o4vwc1gfzjxgki2d88xs18tr9fj3v,337rc3ow09fpa36fr5vigv9wo1cvl0,H4SdRgf0,2020-0188,2021-10-14,14:58:21,16:51:24,NA,incomplete,false,true,NA,3,35,NA,black,m_l_056.jpg,NA,NA,pleasant,unpleasant,NA,NA,NA,NA,NA,right,2233.5,true,NA,NA,NA,NA,NA
H4SdRgf0,3o4vwc1gfzjxgki2d88xs18tr9fj3v,337rc3ow09fpa36fr5vigv9wo1cvl0,H4SdRgf0,2020-0188,2021-10-14,14:58:21,16:51:24,NA,incomplete,false,NA,true,3,0,NA,NA,NA,left,absent,NA,NA,m_l_051.jpg,black,m_l_056.jpg,black,within,NA,NaN,NA,left,14094.700000286102,1,3,1159
H4SdRgf0,3o4vwc1gfzjxgki2d88xs18tr9fj3v,337rc3ow09fpa36fr5vigv9wo1cvl0,H4SdRgf0,2020-0188,2021-10-14,14:58:21,16:51:24,NA,incomplete,false,NA,true,3,1,NA,NA,NA,right,absent,NA,NA,m_s_091.jpg,brown,m_l_079.jpg,green,between,NA,NaN,NA,right,5678.699999809265,1,1,1094.9000000953674
H4SdRgf0,3o4vwc1gfzjxgki2d88xs18tr9fj3v,337rc3ow09fpa36fr5vigv9wo1cvl0,H4SdRgf0,2020-0188,2021-10-14,14:58:21,16:51:24,NA,incomplete,false,NA,true,3,2,NA,NA,NA,right,absent,NA,NA,m_l_028.jpg,green,n_l_012.jpg,red,between,NA,NaN,NA,left,16695.700000286102,0,1,3150.3999996185303
H4SdRgf0,3o4vwc1gfzjxgki2d88xs18tr9fj3v,337rc3ow09fpa36fr5vigv9wo1cvl0,H4SdRgf0,2020-0188,2021-10-14,14:58:21,16:51:24,NA,incomplete,false,NA,true,3,3,NA,NA,NA,left,absent,NA,NA,m_s_026.jpg,red,m_s_113.jpg,red,within,NA,NaN,NA,left,13103.5,1,0,1702.1999998092651
H4SdRgf0,3o4vwc1gfzjxgki2d88xs18tr9fj3v,337rc3ow09fpa36fr5vigv9wo1cvl0,H4SdRgf0,2020-0188,2021-10-14,14:58:21,16:51:24,NA,incomplete,false,NA,true,3,4,NA,NA,NA,right,absent,NA,NA,m_l_097.jpg,yellow,m_l_035.jpg,brown,between,NA,NaN,NA,left,20510.89999961853,0,1,1559.5
H4SdRgf0,3o4vwc1gfzjxgki2d88xs18tr9fj3v,337rc3ow09fpa36fr5vigv9wo1cvl0,H4SdRgf0,2020-0188,2021-10-14,14:58:21,16:51:24,NA,incomplete,false,NA,true,3,5,NA,NA,NA,left,absent,NA,NA,m_l_070.jpg,blue,n_l_072.jpg,red,between,NA,NaN,NA,left,12270.39999961853,1,2,1135.5
H4SdRgf0,3o4vwc1gfzjxgki2d88xs18tr9fj3v,337rc3ow09fpa36fr5vigv9wo1cvl0,H4SdRgf0,2020-0188,2021-10-14,14:58:21,16:51:24,NA,incomplete,false,NA,true,3,6,NA,NA,NA,left,absent,NA,NA,n_l_043.jpg,blue,n_s_054.jpg,blue,within,NA,NaN,NA,right,37943.699999809265,0,1,1262.9000000953674
H4SdRgf0,3o4vwc1gfzjxgki2d88xs18tr9fj3v,337rc3ow09fpa36fr5vigv9wo1cvl0,H4SdRgf0,2020-0188,2021-10-14,14:58:21,16:51:24,NA,incomplete,false,NA,true,3,7,NA,NA,NA,left,absent,NA,NA,m_l_095.jpg,green,m_l_029.jpg,green,within,NA,NaN,NA,left,43247.7000002861,1,1,1303.5999999046326
H4SdRgf0,3o4vwc1gfzjxgki2d88xs18tr9fj3v,337rc3ow09fpa36fr5vigv9wo1cvl0,H4SdRgf0,2020-0188,2021-10-14,14:58:21,16:51:24,NA,incomplete,false,NA,true,3,8,NA,NA,NA,right,absent,NA,NA,m_s_100.jpg,brown,m_s_111.jpg,brown,within,NA,NaN,NA,right,39590.90000009537,1,1,1414.5999999046326
H4SdRgf0,3o4vwc1gfzjxgki2d88xs18tr9fj3v,337rc3ow09fpa36fr5vigv9wo1cvl0,H4SdRgf0,2020-0188,2021-10-14,14:58:21,16:51:24,NA,incomplete,false,NA,true,3,9,NA,NA,NA,right,absent,NA,NA,m_l_060.jpg,yellow,m_s_101.jpg,yellow,within,NA,NaN,NA,left,15430.799999713898,0,1,1655.0999999046326
H4SdRgf0,3o4vwc1gfzjxgki2d88xs18tr9fj3v,337rc3ow09fpa36fr5vigv9wo1cvl0,H4SdRgf0,2020-0188,2021-10-14,14:58:21,16:51:24,NA,incomplete,false,NA,true,3,10,NA,NA,NA,left,absent,NA,NA,m_l_085.jpg,yellow,m_s_046.jpg,black,between,NA,NaN,NA,left,4847.099999904633,1,1,1287.3000001907349
H4SdRgf0,3o4vwc1gfzjxgki2d88xs18tr9fj3v,337rc3ow09fpa36fr5vigv9wo1cvl0,H4SdRgf0,2020-0188,2021-10-14,14:58:21,16:51:24,NA,incomplete,false,true,NA,4,0,NA,orange,n_s_056.jpg,NA,NA,pleasant,unpleasant,NA,NA,NA,NA,NA,left,1563.59999990463,true,NA,NA,NA,NA,NA
H4SdRgf0,3o4vwc1gfzjxgki2d88xs18tr9fj3v,337rc3ow09fpa36fr5vigv9wo1cvl0,H4SdRgf0,2020-0188,2021-10-14,14:58:21,16:51:24,NA,incomplete,false,true,NA,4,1,NA,orange,m_s_003.jpg,NA,NA,pleasant,unpleasant,NA,NA,NA,NA,NA,left,2304.30000019073,true,NA,NA,NA,NA,NA
H4SdRgf0,3o4vwc1gfzjxgki2d88xs18tr9fj3v,337rc3ow09fpa36fr5vigv9wo1cvl0,H4SdRgf0,2020-0188,2021-10-14,14:58:21,16:51:24,NA,incomplete,false,true,NA,4,2,NA,orange,m_l_050.jpg,NA,NA,unpleasant,pleasant,NA,NA,NA,NA,NA,right,2148.90000009537,true,NA,NA,NA,NA,NA
H4SdRgf0,3o4vwc1gfzjxgki2d88xs18tr9fj3v,337rc3ow09fpa36fr5vigv9wo1cvl0,H4SdRgf0,2020-0188,2021-10-14,14:58:21,16:51:24,NA,incomplete,false,true,NA,4,3,NA,orange,n_s_076.jpg,NA,NA,pleasant,unpleasant,NA,NA,NA,NA,NA,left,2000.59999990463,true,NA,NA,NA,NA,NA
H4SdRgf0,3o4vwc1gfzjxgki2d88xs18tr9fj3v,337rc3ow09fpa36fr5vigv9wo1cvl0,H4SdRgf0,2020-0188,2021-10-14,14:58:21,16:51:24,NA,incomplete,false,true,NA,4,4,NA,orange,m_l_094.jpg,NA,NA,unpleasant,pleasant,NA,NA,NA,NA,NA,right,1941.09999990463,true,NA,NA,NA,NA,NA
H4SdRgf0,3o4vwc1gfzjxgki2d88xs18tr9fj3v,337rc3ow09fpa36fr5vigv9wo1cvl0,H4SdRgf0,2020-0188,2021-10-14,14:58:21,16:51:24,NA,incomplete,false,true,NA,4,5,NA,orange,n_s_041.jpg,NA,NA,unpleasant,pleasant,NA,NA,NA,NA,NA,right,2809.7000002861,true,NA,NA,NA,NA,NA
H4SdRgf0,3o4vwc1gfzjxgki2d88xs18tr9fj3v,337rc3ow09fpa36fr5vigv9wo1cvl0,H4SdRgf0,2020-0188,2021-10-14,14:58:21,16:51:24,NA,incomplete,false,true,NA,4,6,NA,purple,n_l_049.jpg,NA,NA,unpleasant,pleasant,NA,NA,NA,NA,NA,right,2685.90000009537,true,NA,NA,NA,NA,NA
H4SdRgf0,3o4vwc1gfzjxgki2d88xs18tr9fj3v,337rc3ow09fpa36fr5vigv9wo1cvl0,H4SdRgf0,2020-0188,2021-10-14,14:58:21,16:51:24,NA,incomplete,false,true,NA,4,7,NA,purple,m_l_045.jpg,NA,NA,unpleasant,pleasant,NA,NA,NA,NA,NA,right,1633.69999980927,true,NA,NA,NA,NA,NA
H4SdRgf0,3o4vwc1gfzjxgki2d88xs18tr9fj3v,337rc3ow09fpa36fr5vigv9wo1cvl0,H4SdRgf0,2020-0188,2021-10-14,14:58:21,16:51:24,NA,incomplete,false,true,NA,4,8,NA,purple,m_l_053.jpg,NA,NA,unpleasant,pleasant,NA,NA,NA,NA,NA,right,2479.40000009537,true,NA,NA,NA,NA,NA
H4SdRgf0,3o4vwc1gfzjxgki2d88xs18tr9fj3v,337rc3ow09fpa36fr5vigv9wo1cvl0,H4SdRgf0,2020-0188,2021-10-14,14:58:21,16:51:24,NA,incomplete,false,true,NA,4,9,NA,purple,m_l_072.jpg,NA,NA,unpleasant,pleasant,NA,NA,NA,NA,NA,right,2227.80000019073,true,NA,NA,NA,NA,NA
H4SdRgf0,3o4vwc1gfzjxgki2d88xs18tr9fj3v,337rc3ow09fpa36fr5vigv9wo1cvl0,H4SdRgf0,2020-0188,2021-10-14,14:58:21,16:51:24,NA,incomplete,false,true,NA,4,10,NA,purple,m_l_011.jpg,NA,NA,pleasant,unpleasant,NA,NA,NA,NA,NA,right,2406.80000019073,true,NA,NA,NA,NA,NA
H4SdRgf0,3o4vwc1gfzjxgki2d88xs18tr9fj3v,337rc3ow09fpa36fr5vigv9wo1cvl0,H4SdRgf0,2020-0188,2021-10-14,14:58:21,16:51:24,NA,incomplete,false,true,NA,4,11,NA,purple,m_s_010.jpg,NA,NA,pleasant,unpleasant,NA,NA,NA,NA,NA,right,1820,true,NA,NA,NA,NA,NA
H4SdRgf0,3o4vwc1gfzjxgki2d88xs18tr9fj3v,337rc3ow09fpa36fr5vigv9wo1cvl0,H4SdRgf0,2020-0188,2021-10-14,14:58:21,16:51:24,NA,incomplete,false,true,NA,4,12,NA,green,n_s_002.jpg,NA,NA,pleasant,unpleasant,NA,NA,NA,NA,NA,left,1871.59999990463,true,NA,NA,NA,NA,NA
H4SdRgf0,3o4vwc1gfzjxgki2d88xs18tr9fj3v,337rc3ow09fpa36fr5vigv9wo1cvl0,H4SdRgf0,2020-0188,2021-10-14,14:58:21,16:51:24,NA,incomplete,false,true,NA,4,13,NA,green,n_s_049.jpg,NA,NA,unpleasant,pleasant,NA,NA,NA,NA,NA,right,2722.80000019073,true,NA,NA,NA,NA,NA
H4SdRgf0,3o4vwc1gfzjxgki2d88xs18tr9fj3v,337rc3ow09fpa36fr5vigv9wo1cvl0,H4SdRgf0,2020-0188,2021-10-14,14:58:21,16:51:24,NA,incomplete,false,true,NA,4,14,NA,green,n_s_087.jpg,NA,NA,unpleasant,pleasant,NA,NA,NA,NA,NA,left,2040.7000002861,true,NA,NA,NA,NA,NA
H4SdRgf0,3o4vwc1gfzjxgki2d88xs18tr9fj3v,337rc3ow09fpa36fr5vigv9wo1cvl0,H4SdRgf0,2020-0188,2021-10-14,14:58:21,16:51:24,NA,incomplete,false,true,NA,4,15,NA,green,m_s_034.jpg,NA,NA,pleasant,unpleasant,NA,NA,NA,NA,NA,left,1548.19999980927,true,NA,NA,NA,NA,NA
H4SdRgf0,3o4vwc1gfzjxgki2d88xs18tr9fj3v,337rc3ow09fpa36fr5vigv9wo1cvl0,H4SdRgf0,2020-0188,2021-10-14,14:58:21,16:51:24,NA,incomplete,false,true,NA,4,16,NA,green,n_s_066.jpg,NA,NA,unpleasant,pleasant,NA,NA,NA,NA,NA,left,2225.09999990463,true,NA,NA,NA,NA,NA
H4SdRgf0,3o4vwc1gfzjxgki2d88xs18tr9fj3v,337rc3ow09fpa36fr5vigv9wo1cvl0,H4SdRgf0,2020-0188,2021-10-14,14:58:21,16:51:24,NA,incomplete,false,true,NA,4,17,NA,green,n_l_101.jpg,NA,NA,pleasant,unpleasant,NA,NA,NA,NA,NA,right,2022,true,NA,NA,NA,NA,NA
H4SdRgf0,3o4vwc1gfzjxgki2d88xs18tr9fj3v,337rc3ow09fpa36fr5vigv9wo1cvl0,H4SdRgf0,2020-0188,2021-10-14,14:58:21,16:51:24,NA,incomplete,false,true,NA,4,18,NA,white,m_l_020.jpg,NA,NA,pleasant,unpleasant,NA,NA,NA,NA,NA,left,1537,true,NA,NA,NA,NA,NA
H4SdRgf0,3o4vwc1gfzjxgki2d88xs18tr9fj3v,337rc3ow09fpa36fr5vigv9wo1cvl0,H4SdRgf0,2020-0188,2021-10-14,14:58:21,16:51:24,NA,incomplete,false,true,NA,4,19,NA,white,m_l_031.jpg,NA,NA,pleasant,unpleasant,NA,NA,NA,NA,NA,right,2909.19999980927,true,NA,NA,NA,NA,NA
H4SdRgf0,3o4vwc1gfzjxgki2d88xs18tr9fj3v,337rc3ow09fpa36fr5vigv9wo1cvl0,H4SdRgf0,2020-0188,2021-10-14,14:58:21,16:51:24,NA,incomplete,false,true,NA,4,20,NA,white,n_s_103.jpg,NA,NA,pleasant,unpleasant,NA,NA,NA,NA,NA,right,2777.60000038147,true,NA,NA,NA,NA,NA
H4SdRgf0,3o4vwc1gfzjxgki2d88xs18tr9fj3v,337rc3ow09fpa36fr5vigv9wo1cvl0,H4SdRgf0,2020-0188,2021-10-14,14:58:21,16:51:24,NA,incomplete,false,true,NA,4,21,NA,white,m_l_066.jpg,NA,NA,pleasant,unpleasant,NA,NA,NA,NA,NA,left,2342.30000019073,true,NA,NA,NA,NA,NA
H4SdRgf0,3o4vwc1gfzjxgki2d88xs18tr9fj3v,337rc3ow09fpa36fr5vigv9wo1cvl0,H4SdRgf0,2020-0188,2021-10-14,14:58:21,16:51:24,NA,incomplete,false,true,NA,4,22,NA,white,m_s_051.jpg,NA,NA,pleasant,unpleasant,NA,NA,NA,NA,NA,left,2043.80000019073,true,NA,NA,NA,NA,NA
H4SdRgf0,3o4vwc1gfzjxgki2d88xs18tr9fj3v,337rc3ow09fpa36fr5vigv9wo1cvl0,H4SdRgf0,2020-0188,2021-10-14,14:58:21,16:51:24,NA,incomplete,false,true,NA,4,23,NA,white,m_s_002.jpg,NA,NA,pleasant,unpleasant,NA,NA,NA,NA,NA,right,2720.30000019073,true,NA,NA,NA,NA,NA
H4SdRgf0,3o4vwc1gfzjxgki2d88xs18tr9fj3v,337rc3ow09fpa36fr5vigv9wo1cvl0,H4SdRgf0,2020-0188,2021-10-14,14:58:21,16:51:24,NA,incomplete,false,true,NA,4,24,NA,blue,m_l_040.jpg,NA,NA,unpleasant,pleasant,NA,NA,NA,NA,NA,right,2220.09999990463,true,NA,NA,NA,NA,NA
H4SdRgf0,3o4vwc1gfzjxgki2d88xs18tr9fj3v,337rc3ow09fpa36fr5vigv9wo1cvl0,H4SdRgf0,2020-0188,2021-10-14,14:58:21,16:51:24,NA,incomplete,false,true,NA,4,25,NA,blue,m_l_069.jpg,NA,NA,pleasant,unpleasant,NA,NA,NA,NA,NA,right,2512.7000002861,true,NA,NA,NA,NA,NA
H4SdRgf0,3o4vwc1gfzjxgki2d88xs18tr9fj3v,337rc3ow09fpa36fr5vigv9wo1cvl0,H4SdRgf0,2020-0188,2021-10-14,14:58:21,16:51:24,NA,incomplete,false,true,NA,4,26,NA,blue,n_l_073.jpg,NA,NA,unpleasant,pleasant,NA,NA,NA,NA,NA,right,2141.5,true,NA,NA,NA,NA,NA
H4SdRgf0,3o4vwc1gfzjxgki2d88xs18tr9fj3v,337rc3ow09fpa36fr5vigv9wo1cvl0,H4SdRgf0,2020-0188,2021-10-14,14:58:21,16:51:24,NA,incomplete,false,true,NA,4,27,NA,blue,m_l_049.jpg,NA,NA,unpleasant,pleasant,NA,NA,NA,NA,NA,right,2953,true,NA,NA,NA,NA,NA
H4SdRgf0,3o4vwc1gfzjxgki2d88xs18tr9fj3v,337rc3ow09fpa36fr5vigv9wo1cvl0,H4SdRgf0,2020-0188,2021-10-14,14:58:21,16:51:24,NA,incomplete,false,true,NA,4,28,NA,blue,m_l_008.jpg,NA,NA,unpleasant,pleasant,NA,NA,NA,NA,NA,right,1485.19999980927,true,NA,NA,NA,NA,NA
H4SdRgf0,3o4vwc1gfzjxgki2d88xs18tr9fj3v,337rc3ow09fpa36fr5vigv9wo1cvl0,H4SdRgf0,2020-0188,2021-10-14,14:58:21,16:51:24,NA,incomplete,false,true,NA,4,29,NA,blue,m_s_041.jpg,NA,NA,pleasant,unpleasant,NA,NA,NA,NA,NA,left,1441,true,NA,NA,NA,NA,NA
H4SdRgf0,3o4vwc1gfzjxgki2d88xs18tr9fj3v,337rc3ow09fpa36fr5vigv9wo1cvl0,H4SdRgf0,2020-0188,2021-10-14,14:58:21,16:51:24,NA,incomplete,false,true,NA,4,30,NA,yellow,n_s_005.jpg,NA,NA,pleasant,unpleasant,NA,NA,NA,NA,NA,left,1860.09999990463,true,NA,NA,NA,NA,NA
H4SdRgf0,3o4vwc1gfzjxgki2d88xs18tr9fj3v,337rc3ow09fpa36fr5vigv9wo1cvl0,H4SdRgf0,2020-0188,2021-10-14,14:58:21,16:51:24,NA,incomplete,false,true,NA,4,31,NA,yellow,n_s_038.jpg,NA,NA,pleasant,unpleasant,NA,NA,NA,NA,NA,right,2579.2999997139,true,NA,NA,NA,NA,NA
H4SdRgf0,3o4vwc1gfzjxgki2d88xs18tr9fj3v,337rc3ow09fpa36fr5vigv9wo1cvl0,H4SdRgf0,2020-0188,2021-10-14,14:58:21,16:51:24,NA,incomplete,false,true,NA,4,32,NA,yellow,n_l_065.jpg,NA,NA,unpleasant,pleasant,NA,NA,NA,NA,NA,left,1767.2999997139,true,NA,NA,NA,NA,NA
H4SdRgf0,3o4vwc1gfzjxgki2d88xs18tr9fj3v,337rc3ow09fpa36fr5vigv9wo1cvl0,H4SdRgf0,2020-0188,2021-10-14,14:58:21,16:51:24,NA,incomplete,false,true,NA,4,33,NA,yellow,n_l_055.jpg,NA,NA,unpleasant,pleasant,NA,NA,NA,NA,NA,left,1458.80000019073,true,NA,NA,NA,NA,NA
H4SdRgf0,3o4vwc1gfzjxgki2d88xs18tr9fj3v,337rc3ow09fpa36fr5vigv9wo1cvl0,H4SdRgf0,2020-0188,2021-10-14,14:58:21,16:51:24,NA,incomplete,false,true,NA,4,34,NA,yellow,n_s_029.jpg,NA,NA,pleasant,unpleasant,NA,NA,NA,NA,NA,left,1728.5,true,NA,NA,NA,NA,NA
H4SdRgf0,3o4vwc1gfzjxgki2d88xs18tr9fj3v,337rc3ow09fpa36fr5vigv9wo1cvl0,H4SdRgf0,2020-0188,2021-10-14,14:58:21,16:51:24,NA,incomplete,false,true,NA,4,35,NA,yellow,m_l_036.jpg,NA,NA,unpleasant,pleasant,NA,NA,NA,NA,NA,right,1828.30000019073,true,NA,NA,NA,NA,NA
H4SdRgf0,3o4vwc1gfzjxgki2d88xs18tr9fj3v,337rc3ow09fpa36fr5vigv9wo1cvl0,H4SdRgf0,2020-0188,2021-10-14,14:58:21,16:51:24,NA,incomplete,false,NA,true,4,0,NA,NA,NA,left,absent,NA,NA,m_l_094.jpg,orange,m_l_053.jpg,purple,between,NA,NaN,NA,left,22839.299999713898,1,1,1198.6999998092651
H4SdRgf0,3o4vwc1gfzjxgki2d88xs18tr9fj3v,337rc3ow09fpa36fr5vigv9wo1cvl0,H4SdRgf0,2020-0188,2021-10-14,14:58:21,16:51:24,NA,incomplete,false,NA,true,4,1,NA,NA,NA,right,absent,NA,NA,m_s_002.jpg,white,m_l_031.jpg,white,within,NA,NaN,NA,right,9662.89999961853,1,0,1142.8000001907349
H4SdRgf0,3o4vwc1gfzjxgki2d88xs18tr9fj3v,337rc3ow09fpa36fr5vigv9wo1cvl0,H4SdRgf0,2020-0188,2021-10-14,14:58:21,16:51:24,NA,incomplete,false,NA,true,4,2,NA,NA,NA,left,absent,NA,NA,m_l_045.jpg,purple,m_s_010.jpg,purple,within,NA,NaN,NA,left,79614.89999961853,1,0,1126.6000003814697
H4SdRgf0,3o4vwc1gfzjxgki2d88xs18tr9fj3v,337rc3ow09fpa36fr5vigv9wo1cvl0,H4SdRgf0,2020-0188,2021-10-14,14:58:21,16:51:24,NA,incomplete,false,NA,true,4,3,NA,NA,NA,right,absent,NA,NA,m_s_041.jpg,blue,m_l_069.jpg,blue,within,NA,NaN,NA,right,7790.699999809265,1,0,1503.9000000953674
H4SdRgf0,3o4vwc1gfzjxgki2d88xs18tr9fj3v,337rc3ow09fpa36fr5vigv9wo1cvl0,H4SdRgf0,2020-0188,2021-10-14,14:58:21,16:51:24,NA,incomplete,false,NA,true,4,4,NA,NA,NA,left,absent,NA,NA,n_s_066.jpg,green,n_s_103.jpg,white,between,NA,NaN,NA,left,13958.900000095367,1,1,1358.4000000953674
H4SdRgf0,3o4vwc1gfzjxgki2d88xs18tr9fj3v,337rc3ow09fpa36fr5vigv9wo1cvl0,H4SdRgf0,2020-0188,2021-10-14,14:58:21,16:51:24,NA,incomplete,false,NA,true,4,5,NA,NA,NA,left,absent,NA,NA,n_s_038.jpg,yellow,m_l_036.jpg,yellow,within,NA,NaN,NA,left,12655.5,1,0,1374.6000003814697
H4SdRgf0,3o4vwc1gfzjxgki2d88xs18tr9fj3v,337rc3ow09fpa36fr5vigv9wo1cvl0,H4SdRgf0,2020-0188,2021-10-14,14:58:21,16:51:24,NA,incomplete,false,NA,true,4,6,NA,NA,NA,left,absent,NA,NA,n_s_049.jpg,green,n_l_101.jpg,green,within,NA,NaN,NA,left,9886.199999809265,1,2,1790.8000001907349
H4SdRgf0,3o4vwc1gfzjxgki2d88xs18tr9fj3v,337rc3ow09fpa36fr5vigv9wo1cvl0,H4SdRgf0,2020-0188,2021-10-14,14:58:21,16:51:24,NA,incomplete,false,NA,true,4,7,NA,NA,NA,right,absent,NA,NA,n_s_087.jpg,green,m_l_011.jpg,purple,between,NA,NaN,NA,right,18006.900000095367,1,2,1727.2000002861023
H4SdRgf0,3o4vwc1gfzjxgki2d88xs18tr9fj3v,337rc3ow09fpa36fr5vigv9wo1cvl0,H4SdRgf0,2020-0188,2021-10-14,14:58:21,16:51:24,NA,incomplete,false,NA,true,4,8,NA,NA,NA,right,absent,NA,NA,n_s_041.jpg,orange,m_s_003.jpg,orange,within,NA,NaN,NA,right,12342.699999809265,1,3,1431
H4SdRgf0,3o4vwc1gfzjxgki2d88xs18tr9fj3v,337rc3ow09fpa36fr5vigv9wo1cvl0,H4SdRgf0,2020-0188,2021-10-14,14:58:21,16:51:24,NA,incomplete,false,NA,true,4,9,NA,NA,NA,left,absent,NA,NA,m_s_051.jpg,white,n_l_073.jpg,blue,between,NA,NaN,NA,right,7734.5,0,2,2022.5999999046326
H4SdRgf0,3o4vwc1gfzjxgki2d88xs18tr9fj3v,337rc3ow09fpa36fr5vigv9wo1cvl0,H4SdRgf0,2020-0188,2021-10-14,14:58:21,16:51:24,NA,incomplete,false,NA,true,4,10,NA,NA,NA,left,absent,NA,NA,m_l_008.jpg,blue,n_l_065.jpg,yellow,between,NA,NaN,NA,left,10590.5,1,2,1375
H4SdRgf0,3o4vwc1gfzjxgki2d88xs18tr9fj3v,337rc3ow09fpa36fr5vigv9wo1cvl0,H4SdRgf0,2020-0188,2021-10-14,14:58:21,16:51:24,NA,incomplete,false,true,NA,5,0,NA,orange,m_s_004.jpg,NA,NA,unpleasant,pleasant,NA,NA,NA,NA,NA,right,1581.90000009537,true,NA,NA,NA,NA,NA
H4SdRgf0,3o4vwc1gfzjxgki2d88xs18tr9fj3v,337rc3ow09fpa36fr5vigv9wo1cvl0,H4SdRgf0,2020-0188,2021-10-14,14:58:21,16:51:24,NA,incomplete,false,true,NA,5,1,NA,orange,n_s_092.jpg,NA,NA,unpleasant,pleasant,NA,NA,NA,NA,NA,left,2034.69999980927,true,NA,NA,NA,NA,NA
H4SdRgf0,3o4vwc1gfzjxgki2d88xs18tr9fj3v,337rc3ow09fpa36fr5vigv9wo1cvl0,H4SdRgf0,2020-0188,2021-10-14,14:58:21,16:51:24,NA,incomplete,false,true,NA,5,2,NA,orange,m_s_017.jpg,NA,NA,pleasant,unpleasant,NA,NA,NA,NA,NA,left,2047.7999997139,true,NA,NA,NA,NA,NA
H4SdRgf0,3o4vwc1gfzjxgki2d88xs18tr9fj3v,337rc3ow09fpa36fr5vigv9wo1cvl0,H4SdRgf0,2020-0188,2021-10-14,14:58:21,16:51:24,NA,incomplete,false,true,NA,5,3,NA,orange,n_l_014.jpg,NA,NA,unpleasant,pleasant,NA,NA,NA,NA,NA,left,2196,true,NA,NA,NA,NA,NA
H4SdRgf0,3o4vwc1gfzjxgki2d88xs18tr9fj3v,337rc3ow09fpa36fr5vigv9wo1cvl0,H4SdRgf0,2020-0188,2021-10-14,14:58:21,16:51:24,NA,incomplete,false,true,NA,5,4,NA,orange,n_s_089.jpg,NA,NA,unpleasant,pleasant,NA,NA,NA,NA,NA,left,2504.80000019073,true,NA,NA,NA,NA,NA
H4SdRgf0,3o4vwc1gfzjxgki2d88xs18tr9fj3v,337rc3ow09fpa36fr5vigv9wo1cvl0,H4SdRgf0,2020-0188,2021-10-14,14:58:21,16:51:24,NA,incomplete,false,true,NA,5,5,NA,orange,m_l_105.jpg,NA,NA,pleasant,unpleasant,NA,NA,NA,NA,NA,right,2901,true,NA,NA,NA,NA,NA
H4SdRgf0,3o4vwc1gfzjxgki2d88xs18tr9fj3v,337rc3ow09fpa36fr5vigv9wo1cvl0,H4SdRgf0,2020-0188,2021-10-14,14:58:21,16:51:24,NA,incomplete,false,true,NA,5,6,NA,green,m_s_081.jpg,NA,NA,pleasant,unpleasant,NA,NA,NA,NA,NA,left,2289,true,NA,NA,NA,NA,NA
H4SdRgf0,3o4vwc1gfzjxgki2d88xs18tr9fj3v,337rc3ow09fpa36fr5vigv9wo1cvl0,H4SdRgf0,2020-0188,2021-10-14,14:58:21,16:51:24,NA,incomplete,false,true,NA,5,7,NA,green,m_s_087.jpg,NA,NA,pleasant,unpleasant,NA,NA,NA,NA,NA,left,2300.7999997139,true,NA,NA,NA,NA,NA
H4SdRgf0,3o4vwc1gfzjxgki2d88xs18tr9fj3v,337rc3ow09fpa36fr5vigv9wo1cvl0,H4SdRgf0,2020-0188,2021-10-14,14:58:21,16:51:24,NA,incomplete,false,true,NA,5,8,NA,green,n_l_008.jpg,NA,NA,pleasant,unpleasant,NA,NA,NA,NA,NA,right,2345.69999980927,true,NA,NA,NA,NA,NA
H4SdRgf0,3o4vwc1gfzjxgki2d88xs18tr9fj3v,337rc3ow09fpa36fr5vigv9wo1cvl0,H4SdRgf0,2020-0188,2021-10-14,14:58:21,16:51:24,NA,incomplete,false,true,NA,5,9,NA,green,m_l_039.jpg,NA,NA,pleasant,unpleasant,NA,NA,NA,NA,NA,left,1325.5,true,NA,NA,NA,NA,NA
H4SdRgf0,3o4vwc1gfzjxgki2d88xs18tr9fj3v,337rc3ow09fpa36fr5vigv9wo1cvl0,H4SdRgf0,2020-0188,2021-10-14,14:58:21,16:51:24,NA,incomplete,false,true,NA,5,10,NA,green,m_s_114.jpg,NA,NA,pleasant,unpleasant,NA,NA,NA,NA,NA,left,1905.80000019073,true,NA,NA,NA,NA,NA
H4SdRgf0,3o4vwc1gfzjxgki2d88xs18tr9fj3v,337rc3ow09fpa36fr5vigv9wo1cvl0,H4SdRgf0,2020-0188,2021-10-14,14:58:21,16:51:24,NA,incomplete,false,true,NA,5,11,NA,green,n_s_003.jpg,NA,NA,pleasant,unpleasant,NA,NA,NA,NA,NA,right,2374.90000009537,true,NA,NA,NA,NA,NA
H4SdRgf0,3o4vwc1gfzjxgki2d88xs18tr9fj3v,337rc3ow09fpa36fr5vigv9wo1cvl0,H4SdRgf0,2020-0188,2021-10-14,14:58:21,16:51:24,NA,incomplete,false,true,NA,5,12,NA,gray,m_l_110.jpg,NA,NA,unpleasant,pleasant,NA,NA,NA,NA,NA,left,3001.59999990463,true,NA,NA,NA,NA,NA
H4SdRgf0,3o4vwc1gfzjxgki2d88xs18tr9fj3v,337rc3ow09fpa36fr5vigv9wo1cvl0,H4SdRgf0,2020-0188,2021-10-14,14:58:21,16:51:24,NA,incomplete,false,true,NA,5,13,NA,gray,n_l_080.jpg,NA,NA,pleasant,unpleasant,NA,NA,NA,NA,NA,right,2141.90000009537,true,NA,NA,NA,NA,NA
H4SdRgf0,3o4vwc1gfzjxgki2d88xs18tr9fj3v,337rc3ow09fpa36fr5vigv9wo1cvl0,H4SdRgf0,2020-0188,2021-10-14,14:58:21,16:51:24,NA,incomplete,false,true,NA,5,14,NA,gray,m_l_055.jpg,NA,NA,unpleasant,pleasant,NA,NA,NA,NA,NA,left,2002.90000009537,true,NA,NA,NA,NA,NA
H4SdRgf0,3o4vwc1gfzjxgki2d88xs18tr9fj3v,337rc3ow09fpa36fr5vigv9wo1cvl0,H4SdRgf0,2020-0188,2021-10-14,14:58:21,16:51:24,NA,incomplete,false,true,NA,5,15,NA,gray,n_s_058.jpg,NA,NA,pleasant,unpleasant,NA,NA,NA,NA,NA,right,1462.60000038147,true,NA,NA,NA,NA,NA
H4SdRgf0,3o4vwc1gfzjxgki2d88xs18tr9fj3v,337rc3ow09fpa36fr5vigv9wo1cvl0,H4SdRgf0,2020-0188,2021-10-14,14:58:21,16:51:24,NA,incomplete,false,true,NA,5,16,NA,gray,m_l_081.jpg,NA,NA,pleasant,unpleasant,NA,NA,NA,NA,NA,left,1723.5,true,NA,NA,NA,NA,NA
H4SdRgf0,3o4vwc1gfzjxgki2d88xs18tr9fj3v,337rc3ow09fpa36fr5vigv9wo1cvl0,H4SdRgf0,2020-0188,2021-10-14,14:58:21,16:51:24,NA,incomplete,false,true,NA,5,17,NA,gray,n_l_093.jpg,NA,NA,unpleasant,pleasant,NA,NA,NA,NA,NA,left,2471.69999980927,true,NA,NA,NA,NA,NA
H4SdRgf0,3o4vwc1gfzjxgki2d88xs18tr9fj3v,337rc3ow09fpa36fr5vigv9wo1cvl0,H4SdRgf0,2020-0188,2021-10-14,14:58:21,16:51:24,NA,incomplete,false,true,NA,5,18,NA,black,m_l_063.jpg,NA,NA,unpleasant,pleasant,NA,NA,NA,NA,NA,right,2603.59999990463,true,NA,NA,NA,NA,NA
H4SdRgf0,3o4vwc1gfzjxgki2d88xs18tr9fj3v,337rc3ow09fpa36fr5vigv9wo1cvl0,H4SdRgf0,2020-0188,2021-10-14,14:58:21,16:51:24,NA,incomplete,false,true,NA,5,19,NA,black,n_l_021.jpg,NA,NA,unpleasant,pleasant,NA,NA,NA,NA,NA,left,2271.59999990463,true,NA,NA,NA,NA,NA
H4SdRgf0,3o4vwc1gfzjxgki2d88xs18tr9fj3v,337rc3ow09fpa36fr5vigv9wo1cvl0,H4SdRgf0,2020-0188,2021-10-14,14:58:21,16:51:24,NA,incomplete,false,true,NA,5,20,NA,black,n_l_060.jpg,NA,NA,pleasant,unpleasant,NA,NA,NA,NA,NA,right,1682.40000009537,true,NA,NA,NA,NA,NA
H4SdRgf0,3o4vwc1gfzjxgki2d88xs18tr9fj3v,337rc3ow09fpa36fr5vigv9wo1cvl0,H4SdRgf0,2020-0188,2021-10-14,14:58:21,16:51:24,NA,incomplete,false,true,NA,5,21,NA,black,n_s_059.jpg,NA,NA,pleasant,unpleasant,NA,NA,NA,NA,NA,right,1681,true,NA,NA,NA,NA,NA
H4SdRgf0,3o4vwc1gfzjxgki2d88xs18tr9fj3v,337rc3ow09fpa36fr5vigv9wo1cvl0,H4SdRgf0,2020-0188,2021-10-14,14:58:21,16:51:24,NA,incomplete,false,true,NA,5,22,NA,black,m_l_038.jpg,NA,NA,unpleasant,pleasant,NA,NA,NA,NA,NA,right,2645.5,true,NA,NA,NA,NA,NA
H4SdRgf0,3o4vwc1gfzjxgki2d88xs18tr9fj3v,337rc3ow09fpa36fr5vigv9wo1cvl0,H4SdRgf0,2020-0188,2021-10-14,14:58:21,16:51:24,NA,incomplete,false,true,NA,5,23,NA,black,m_l_116.jpg,NA,NA,pleasant,unpleasant,NA,NA,NA,NA,NA,right,2306,true,NA,NA,NA,NA,NA
H4SdRgf0,3o4vwc1gfzjxgki2d88xs18tr9fj3v,337rc3ow09fpa36fr5vigv9wo1cvl0,H4SdRgf0,2020-0188,2021-10-14,14:58:21,16:51:24,NA,incomplete,false,true,NA,5,24,NA,white,m_l_111.jpg,NA,NA,pleasant,unpleasant,NA,NA,NA,NA,NA,left,2692.90000009537,true,NA,NA,NA,NA,NA
H4SdRgf0,3o4vwc1gfzjxgki2d88xs18tr9fj3v,337rc3ow09fpa36fr5vigv9wo1cvl0,H4SdRgf0,2020-0188,2021-10-14,14:58:21,16:51:24,NA,incomplete,false,true,NA,5,25,NA,white,n_s_112.jpg,NA,NA,unpleasant,pleasant,NA,NA,NA,NA,NA,left,1731.19999980927,true,NA,NA,NA,NA,NA
H4SdRgf0,3o4vwc1gfzjxgki2d88xs18tr9fj3v,337rc3ow09fpa36fr5vigv9wo1cvl0,H4SdRgf0,2020-0188,2021-10-14,14:58:21,16:51:24,NA,incomplete,false,true,NA,5,26,NA,white,n_l_030.jpg,NA,NA,pleasant,unpleasant,NA,NA,NA,NA,NA,right,2111.59999990463,true,NA,NA,NA,NA,NA
H4SdRgf0,3o4vwc1gfzjxgki2d88xs18tr9fj3v,337rc3ow09fpa36fr5vigv9wo1cvl0,H4SdRgf0,2020-0188,2021-10-14,14:58:21,16:51:24,NA,incomplete,false,true,NA,5,27,NA,white,m_l_112.jpg,NA,NA,unpleasant,pleasant,NA,NA,NA,NA,NA,right,2427.90000009537,true,NA,NA,NA,NA,NA
H4SdRgf0,3o4vwc1gfzjxgki2d88xs18tr9fj3v,337rc3ow09fpa36fr5vigv9wo1cvl0,H4SdRgf0,2020-0188,2021-10-14,14:58:21,16:51:24,NA,incomplete,false,true,NA,5,28,NA,white,n_l_036.jpg,NA,NA,unpleasant,pleasant,NA,NA,NA,NA,NA,right,1616.69999980927,true,NA,NA,NA,NA,NA
H4SdRgf0,3o4vwc1gfzjxgki2d88xs18tr9fj3v,337rc3ow09fpa36fr5vigv9wo1cvl0,H4SdRgf0,2020-0188,2021-10-14,14:58:21,16:51:24,NA,incomplete,false,true,NA,5,29,NA,white,m_l_034.jpg,NA,NA,pleasant,unpleasant,NA,NA,NA,NA,NA,left,1892.7999997139,true,NA,NA,NA,NA,NA
H4SdRgf0,3o4vwc1gfzjxgki2d88xs18tr9fj3v,337rc3ow09fpa36fr5vigv9wo1cvl0,H4SdRgf0,2020-0188,2021-10-14,14:58:21,16:51:24,NA,incomplete,false,true,NA,5,30,NA,red,n_s_097.jpg,NA,NA,pleasant,unpleasant,NA,NA,NA,NA,NA,right,1888.19999980927,true,NA,NA,NA,NA,NA
H4SdRgf0,3o4vwc1gfzjxgki2d88xs18tr9fj3v,337rc3ow09fpa36fr5vigv9wo1cvl0,H4SdRgf0,2020-0188,2021-10-14,14:58:21,16:51:24,NA,incomplete,false,true,NA,5,31,NA,red,n_l_092.jpg,NA,NA,unpleasant,pleasant,NA,NA,NA,NA,NA,left,1509,true,NA,NA,NA,NA,NA
H4SdRgf0,3o4vwc1gfzjxgki2d88xs18tr9fj3v,337rc3ow09fpa36fr5vigv9wo1cvl0,H4SdRgf0,2020-0188,2021-10-14,14:58:21,16:51:24,NA,incomplete,false,true,NA,5,32,NA,red,n_s_111.jpg,NA,NA,unpleasant,pleasant,NA,NA,NA,NA,NA,right,1578.40000009537,true,NA,NA,NA,NA,NA
H4SdRgf0,3o4vwc1gfzjxgki2d88xs18tr9fj3v,337rc3ow09fpa36fr5vigv9wo1cvl0,H4SdRgf0,2020-0188,2021-10-14,14:58:21,16:51:24,NA,incomplete,false,true,NA,5,33,NA,red,m_l_100.jpg,NA,NA,unpleasant,pleasant,NA,NA,NA,NA,NA,right,1670.5,true,NA,NA,NA,NA,NA
H4SdRgf0,3o4vwc1gfzjxgki2d88xs18tr9fj3v,337rc3ow09fpa36fr5vigv9wo1cvl0,H4SdRgf0,2020-0188,2021-10-14,14:58:21,16:51:24,NA,incomplete,false,true,NA,5,34,NA,red,m_s_078.jpg,NA,NA,unpleasant,pleasant,NA,NA,NA,NA,NA,right,1865.80000019073,true,NA,NA,NA,NA,NA
H4SdRgf0,3o4vwc1gfzjxgki2d88xs18tr9fj3v,337rc3ow09fpa36fr5vigv9wo1cvl0,H4SdRgf0,2020-0188,2021-10-14,14:58:21,16:51:24,NA,incomplete,false,true,NA,5,35,NA,red,n_s_018.jpg,NA,NA,pleasant,unpleasant,NA,NA,NA,NA,NA,right,1631.5,true,NA,NA,NA,NA,NA
H4SdRgf0,3o4vwc1gfzjxgki2d88xs18tr9fj3v,337rc3ow09fpa36fr5vigv9wo1cvl0,H4SdRgf0,2020-0188,2021-10-14,14:58:21,16:51:24,NA,incomplete,false,NA,true,5,0,NA,NA,NA,left,absent,NA,NA,n_l_092.jpg,red,n_s_018.jpg,red,within,NA,NaN,NA,left,4869.200000286102,1,2,1253.5
H4SdRgf0,3o4vwc1gfzjxgki2d88xs18tr9fj3v,337rc3ow09fpa36fr5vigv9wo1cvl0,H4SdRgf0,2020-0188,2021-10-14,14:58:21,16:51:24,NA,incomplete,false,NA,true,5,1,NA,NA,NA,right,absent,NA,NA,n_s_111.jpg,red,n_l_036.jpg,white,between,NA,NaN,NA,right,7774.300000190735,1,1,1254.8000001907349
H4SdRgf0,3o4vwc1gfzjxgki2d88xs18tr9fj3v,337rc3ow09fpa36fr5vigv9wo1cvl0,H4SdRgf0,2020-0188,2021-10-14,14:58:21,16:51:24,NA,incomplete,false,NA,true,5,2,NA,NA,NA,left,absent,NA,NA,n_l_021.jpg,black,m_l_116.jpg,black,within,NA,NaN,NA,left,8574.5,1,0,1383.5999999046326
H4SdRgf0,3o4vwc1gfzjxgki2d88xs18tr9fj3v,337rc3ow09fpa36fr5vigv9wo1cvl0,H4SdRgf0,2020-0188,2021-10-14,14:58:21,16:51:24,NA,incomplete,false,NA,true,5,3,NA,NA,NA,left,absent,NA,NA,m_l_081.jpg,gray,n_l_060.jpg,black,between,NA,NaN,NA,left,13327.10000038147,1,2,1303.5
H4SdRgf0,3o4vwc1gfzjxgki2d88xs18tr9fj3v,337rc3ow09fpa36fr5vigv9wo1cvl0,H4SdRgf0,2020-0188,2021-10-14,14:58:21,16:51:24,NA,incomplete,false,NA,true,5,4,NA,NA,NA,right,absent,NA,NA,n_l_030.jpg,white,m_l_038.jpg,black,between,NA,NaN,NA,right,17063.699999809265,1,1,1382.9000000953674
H4SdRgf0,3o4vwc1gfzjxgki2d88xs18tr9fj3v,337rc3ow09fpa36fr5vigv9wo1cvl0,H4SdRgf0,2020-0188,2021-10-14,14:58:21,16:51:24,NA,incomplete,false,NA,true,5,5,NA,NA,NA,right,absent,NA,NA,n_l_008.jpg,green,n_s_089.jpg,orange,between,NA,NaN,NA,right,11654.799999713898,1,2,1958.2999997138977
H4SdRgf0,3o4vwc1gfzjxgki2d88xs18tr9fj3v,337rc3ow09fpa36fr5vigv9wo1cvl0,H4SdRgf0,2020-0188,2021-10-14,14:58:21,16:51:24,NA,incomplete,false,NA,true,5,6,NA,NA,NA,left,absent,NA,NA,n_s_112.jpg,white,m_l_034.jpg,white,within,NA,NaN,NA,left,5111.199999809265,1,0,1310.1999998092651
H4SdRgf0,3o4vwc1gfzjxgki2d88xs18tr9fj3v,337rc3ow09fpa36fr5vigv9wo1cvl0,H4SdRgf0,2020-0188,2021-10-14,14:58:21,16:51:24,NA,incomplete,false,NA,true,5,7,NA,NA,NA,left,absent,NA,NA,n_l_080.jpg,gray,n_l_093.jpg,gray,within,NA,NaN,NA,left,8542.89999961853,1,1,1255.6999998092651
H4SdRgf0,3o4vwc1gfzjxgki2d88xs18tr9fj3v,337rc3ow09fpa36fr5vigv9wo1cvl0,H4SdRgf0,2020-0188,2021-10-14,14:58:21,16:51:24,NA,incomplete,false,NA,true,5,8,NA,NA,NA,left,absent,NA,NA,m_s_114.jpg,green,m_l_055.jpg,gray,between,NA,NaN,NA,left,10295.300000190735,1,1,1263
H4SdRgf0,3o4vwc1gfzjxgki2d88xs18tr9fj3v,337rc3ow09fpa36fr5vigv9wo1cvl0,H4SdRgf0,2020-0188,2021-10-14,14:58:21,16:51:24,NA,incomplete,false,NA,true,5,9,NA,NA,NA,right,absent,NA,NA,m_l_105.jpg,orange,n_s_092.jpg,orange,within,NA,NaN,NA,left,9238.700000286102,0,1,1174.7000002861023
H4SdRgf0,3o4vwc1gfzjxgki2d88xs18tr9fj3v,337rc3ow09fpa36fr5vigv9wo1cvl0,H4SdRgf0,2020-0188,2021-10-14,14:58:21,16:51:24,NA,incomplete,false,NA,true,5,10,NA,NA,NA,left,absent,NA,NA,m_s_087.jpg,green,n_s_003.jpg,green,within,NA,NaN,NA,left,7878.400000095367,1,0,1127.2000002861023
H4SdRgf0,3o4vwc1gfzjxgki2d88xs18tr9fj3v,337rc3ow09fpa36fr5vigv9wo1cvl0,H4SdRgf0,2020-0188,2021-10-14,14:58:21,16:51:24,NA,incomplete,false,true,NA,6,0,NA,black,n_l_028.jpg,NA,NA,pleasant,unpleasant,NA,NA,NA,NA,NA,right,1999.5,true,NA,NA,NA,NA,NA
H4SdRgf0,3o4vwc1gfzjxgki2d88xs18tr9fj3v,337rc3ow09fpa36fr5vigv9wo1cvl0,H4SdRgf0,2020-0188,2021-10-14,14:58:21,16:51:24,NA,incomplete,false,true,NA,6,1,NA,black,n_s_115.jpg,NA,NA,unpleasant,pleasant,NA,NA,NA,NA,NA,left,1635.90000009537,true,NA,NA,NA,NA,NA
H4SdRgf0,3o4vwc1gfzjxgki2d88xs18tr9fj3v,337rc3ow09fpa36fr5vigv9wo1cvl0,H4SdRgf0,2020-0188,2021-10-14,14:58:21,16:51:24,NA,incomplete,false,true,NA,6,2,NA,black,n_s_053.jpg,NA,NA,unpleasant,pleasant,NA,NA,NA,NA,NA,left,2024.5,true,NA,NA,NA,NA,NA
H4SdRgf0,3o4vwc1gfzjxgki2d88xs18tr9fj3v,337rc3ow09fpa36fr5vigv9wo1cvl0,H4SdRgf0,2020-0188,2021-10-14,14:58:21,16:51:24,NA,incomplete,false,true,NA,6,3,NA,black,m_l_098.jpg,NA,NA,pleasant,unpleasant,NA,NA,NA,NA,NA,left,2139.69999980927,true,NA,NA,NA,NA,NA
H4SdRgf0,3o4vwc1gfzjxgki2d88xs18tr9fj3v,337rc3ow09fpa36fr5vigv9wo1cvl0,H4SdRgf0,2020-0188,2021-10-14,14:58:21,16:51:24,NA,incomplete,false,true,NA,6,4,NA,black,n_l_016.jpg,NA,NA,pleasant,unpleasant,NA,NA,NA,NA,NA,left,2224.30000019073,true,NA,NA,NA,NA,NA
H4SdRgf0,3o4vwc1gfzjxgki2d88xs18tr9fj3v,337rc3ow09fpa36fr5vigv9wo1cvl0,H4SdRgf0,2020-0188,2021-10-14,14:58:21,16:51:24,NA,incomplete,false,true,NA,6,5,NA,black,n_s_037.jpg,NA,NA,unpleasant,pleasant,NA,NA,NA,NA,NA,left,1484.5,true,NA,NA,NA,NA,NA
H4SdRgf0,3o4vwc1gfzjxgki2d88xs18tr9fj3v,337rc3ow09fpa36fr5vigv9wo1cvl0,H4SdRgf0,2020-0188,2021-10-14,14:58:21,16:51:24,NA,incomplete,false,true,NA,6,6,NA,gray,n_l_068.jpg,NA,NA,unpleasant,pleasant,NA,NA,NA,NA,NA,left,2536.19999980927,true,NA,NA,NA,NA,NA
H4SdRgf0,3o4vwc1gfzjxgki2d88xs18tr9fj3v,337rc3ow09fpa36fr5vigv9wo1cvl0,H4SdRgf0,2020-0188,2021-10-14,14:58:21,16:51:24,NA,incomplete,false,true,NA,6,7,NA,gray,n_s_001.jpg,NA,NA,pleasant,unpleasant,NA,NA,NA,NA,NA,right,1659.90000009537,true,NA,NA,NA,NA,NA
H4SdRgf0,3o4vwc1gfzjxgki2d88xs18tr9fj3v,337rc3ow09fpa36fr5vigv9wo1cvl0,H4SdRgf0,2020-0188,2021-10-14,14:58:21,16:51:24,NA,incomplete,false,true,NA,6,8,NA,gray,m_s_086.jpg,NA,NA,unpleasant,pleasant,NA,NA,NA,NA,NA,right,2288.69999980927,true,NA,NA,NA,NA,NA
H4SdRgf0,3o4vwc1gfzjxgki2d88xs18tr9fj3v,337rc3ow09fpa36fr5vigv9wo1cvl0,H4SdRgf0,2020-0188,2021-10-14,14:58:21,16:51:24,NA,incomplete,false,true,NA,6,9,NA,gray,m_s_020.jpg,NA,NA,pleasant,unpleasant,NA,NA,NA,NA,NA,left,1876.60000038147,true,NA,NA,NA,NA,NA
H4SdRgf0,3o4vwc1gfzjxgki2d88xs18tr9fj3v,337rc3ow09fpa36fr5vigv9wo1cvl0,H4SdRgf0,2020-0188,2021-10-14,14:58:21,16:51:24,NA,incomplete,false,true,NA,6,10,NA,gray,n_s_086.jpg,NA,NA,pleasant,unpleasant,NA,NA,NA,NA,NA,right,1673.59999990463,true,NA,NA,NA,NA,NA
H4SdRgf0,3o4vwc1gfzjxgki2d88xs18tr9fj3v,337rc3ow09fpa36fr5vigv9wo1cvl0,H4SdRgf0,2020-0188,2021-10-14,14:58:21,16:51:24,NA,incomplete,false,true,NA,6,11,NA,gray,m_s_040.jpg,NA,NA,unpleasant,pleasant,NA,NA,NA,NA,NA,right,2118.10000038147,true,NA,NA,NA,NA,NA
H4SdRgf0,3o4vwc1gfzjxgki2d88xs18tr9fj3v,337rc3ow09fpa36fr5vigv9wo1cvl0,H4SdRgf0,2020-0188,2021-10-14,14:58:21,16:51:24,NA,incomplete,false,true,NA,6,12,NA,white,m_s_083.jpg,NA,NA,unpleasant,pleasant,NA,NA,NA,NA,NA,right,2089.2999997139,true,NA,NA,NA,NA,NA
H4SdRgf0,3o4vwc1gfzjxgki2d88xs18tr9fj3v,337rc3ow09fpa36fr5vigv9wo1cvl0,H4SdRgf0,2020-0188,2021-10-14,14:58:21,16:51:24,NA,incomplete,false,true,NA,6,13,NA,white,m_s_031.jpg,NA,NA,pleasant,unpleasant,NA,NA,NA,NA,NA,left,2589.19999980927,true,NA,NA,NA,NA,NA
H4SdRgf0,3o4vwc1gfzjxgki2d88xs18tr9fj3v,337rc3ow09fpa36fr5vigv9wo1cvl0,H4SdRgf0,2020-0188,2021-10-14,14:58:21,16:51:24,NA,incomplete,false,true,NA,6,14,NA,white,m_s_036.jpg,NA,NA,unpleasant,pleasant,NA,NA,NA,NA,NA,right,1594.09999990463,true,NA,NA,NA,NA,NA
H4SdRgf0,3o4vwc1gfzjxgki2d88xs18tr9fj3v,337rc3ow09fpa36fr5vigv9wo1cvl0,H4SdRgf0,2020-0188,2021-10-14,14:58:21,16:51:24,NA,incomplete,false,true,NA,6,15,NA,white,n_s_080.jpg,NA,NA,pleasant,unpleasant,NA,NA,NA,NA,NA,right,2485.80000019073,true,NA,NA,NA,NA,NA
H4SdRgf0,3o4vwc1gfzjxgki2d88xs18tr9fj3v,337rc3ow09fpa36fr5vigv9wo1cvl0,H4SdRgf0,2020-0188,2021-10-14,14:58:21,16:51:24,NA,incomplete,false,true,NA,6,16,NA,white,n_s_016.jpg,NA,NA,unpleasant,pleasant,NA,NA,NA,NA,NA,left,2266.30000019073,true,NA,NA,NA,NA,NA
H4SdRgf0,3o4vwc1gfzjxgki2d88xs18tr9fj3v,337rc3ow09fpa36fr5vigv9wo1cvl0,H4SdRgf0,2020-0188,2021-10-14,14:58:21,16:51:24,NA,incomplete,false,true,NA,6,17,NA,white,n_l_038.jpg,NA,NA,unpleasant,pleasant,NA,NA,NA,NA,NA,right,1719.09999990463,true,NA,NA,NA,NA,NA
H4SdRgf0,3o4vwc1gfzjxgki2d88xs18tr9fj3v,337rc3ow09fpa36fr5vigv9wo1cvl0,H4SdRgf0,2020-0188,2021-10-14,14:58:21,16:51:24,NA,incomplete,false,true,NA,6,18,NA,red,m_l_047.jpg,NA,NA,pleasant,unpleasant,NA,NA,NA,NA,NA,left,2634.39999961853,true,NA,NA,NA,NA,NA
H4SdRgf0,3o4vwc1gfzjxgki2d88xs18tr9fj3v,337rc3ow09fpa36fr5vigv9wo1cvl0,H4SdRgf0,2020-0188,2021-10-14,14:58:21,16:51:24,NA,incomplete,false,true,NA,6,19,NA,red,n_s_025.jpg,NA,NA,pleasant,unpleasant,NA,NA,NA,NA,NA,left,2717.09999990463,true,NA,NA,NA,NA,NA
H4SdRgf0,3o4vwc1gfzjxgki2d88xs18tr9fj3v,337rc3ow09fpa36fr5vigv9wo1cvl0,H4SdRgf0,2020-0188,2021-10-14,14:58:21,16:51:24,NA,incomplete,false,true,NA,6,20,NA,red,m_l_068.jpg,NA,NA,unpleasant,pleasant,NA,NA,NA,NA,NA,right,1531.40000009537,true,NA,NA,NA,NA,NA
H4SdRgf0,3o4vwc1gfzjxgki2d88xs18tr9fj3v,337rc3ow09fpa36fr5vigv9wo1cvl0,H4SdRgf0,2020-0188,2021-10-14,14:58:21,16:51:24,NA,incomplete,false,true,NA,6,21,NA,red,n_l_003.jpg,NA,NA,pleasant,unpleasant,NA,NA,NA,NA,NA,left,1383.80000019073,true,NA,NA,NA,NA,NA
H4SdRgf0,3o4vwc1gfzjxgki2d88xs18tr9fj3v,337rc3ow09fpa36fr5vigv9wo1cvl0,H4SdRgf0,2020-0188,2021-10-14,14:58:21,16:51:24,NA,incomplete,false,true,NA,6,22,NA,red,n_s_010.jpg,NA,NA,unpleasant,pleasant,NA,NA,NA,NA,NA,left,2076.2999997139,true,NA,NA,NA,NA,NA
H4SdRgf0,3o4vwc1gfzjxgki2d88xs18tr9fj3v,337rc3ow09fpa36fr5vigv9wo1cvl0,H4SdRgf0,2020-0188,2021-10-14,14:58:21,16:51:24,NA,incomplete,false,true,NA,6,23,NA,red,n_l_010.jpg,NA,NA,pleasant,unpleasant,NA,NA,NA,NA,NA,left,1489.39999961853,true,NA,NA,NA,NA,NA
H4SdRgf0,3o4vwc1gfzjxgki2d88xs18tr9fj3v,337rc3ow09fpa36fr5vigv9wo1cvl0,H4SdRgf0,2020-0188,2021-10-14,14:58:21,16:51:24,NA,incomplete,false,true,NA,6,24,NA,green,m_l_108.jpg,NA,NA,unpleasant,pleasant,NA,NA,NA,NA,NA,left,2853.30000019073,true,NA,NA,NA,NA,NA
H4SdRgf0,3o4vwc1gfzjxgki2d88xs18tr9fj3v,337rc3ow09fpa36fr5vigv9wo1cvl0,H4SdRgf0,2020-0188,2021-10-14,14:58:21,16:51:24,NA,incomplete,false,true,NA,6,25,NA,green,n_l_086.jpg,NA,NA,pleasant,unpleasant,NA,NA,NA,NA,NA,right,1544.2999997139,true,NA,NA,NA,NA,NA
H4SdRgf0,3o4vwc1gfzjxgki2d88xs18tr9fj3v,337rc3ow09fpa36fr5vigv9wo1cvl0,H4SdRgf0,2020-0188,2021-10-14,14:58:21,16:51:24,NA,incomplete,false,true,NA,6,26,NA,green,n_s_116.jpg,NA,NA,unpleasant,pleasant,NA,NA,NA,NA,NA,left,2278.59999990463,true,NA,NA,NA,NA,NA
H4SdRgf0,3o4vwc1gfzjxgki2d88xs18tr9fj3v,337rc3ow09fpa36fr5vigv9wo1cvl0,H4SdRgf0,2020-0188,2021-10-14,14:58:21,16:51:24,NA,incomplete,false,true,NA,6,27,NA,green,n_l_115.jpg,NA,NA,pleasant,unpleasant,NA,NA,NA,NA,NA,right,1722.2000002861,true,NA,NA,NA,NA,NA
H4SdRgf0,3o4vwc1gfzjxgki2d88xs18tr9fj3v,337rc3ow09fpa36fr5vigv9wo1cvl0,H4SdRgf0,2020-0188,2021-10-14,14:58:21,16:51:24,NA,incomplete,false,true,NA,6,28,NA,green,n_s_015.jpg,NA,NA,pleasant,unpleasant,NA,NA,NA,NA,NA,left,2317.80000019073,true,NA,NA,NA,NA,NA
H4SdRgf0,3o4vwc1gfzjxgki2d88xs18tr9fj3v,337rc3ow09fpa36fr5vigv9wo1cvl0,H4SdRgf0,2020-0188,2021-10-14,14:58:21,16:51:24,NA,incomplete,false,true,NA,6,29,NA,green,m_l_037.jpg,NA,NA,pleasant,unpleasant,NA,NA,NA,NA,NA,left,2170.90000009537,true,NA,NA,NA,NA,NA
H4SdRgf0,3o4vwc1gfzjxgki2d88xs18tr9fj3v,337rc3ow09fpa36fr5vigv9wo1cvl0,H4SdRgf0,2020-0188,2021-10-14,14:58:21,16:51:24,NA,incomplete,false,true,NA,6,30,NA,brown,n_l_078.jpg,NA,NA,pleasant,unpleasant,NA,NA,NA,NA,NA,right,2238.40000009537,true,NA,NA,NA,NA,NA
H4SdRgf0,3o4vwc1gfzjxgki2d88xs18tr9fj3v,337rc3ow09fpa36fr5vigv9wo1cvl0,H4SdRgf0,2020-0188,2021-10-14,14:58:21,16:51:24,NA,incomplete,false,true,NA,6,31,NA,brown,n_l_004.jpg,NA,NA,pleasant,unpleasant,NA,NA,NA,NA,NA,right,1626.59999990463,true,NA,NA,NA,NA,NA
H4SdRgf0,3o4vwc1gfzjxgki2d88xs18tr9fj3v,337rc3ow09fpa36fr5vigv9wo1cvl0,H4SdRgf0,2020-0188,2021-10-14,14:58:21,16:51:24,NA,incomplete,false,true,NA,6,32,NA,brown,m_s_052.jpg,NA,NA,unpleasant,pleasant,NA,NA,NA,NA,NA,right,2208,true,NA,NA,NA,NA,NA
H4SdRgf0,3o4vwc1gfzjxgki2d88xs18tr9fj3v,337rc3ow09fpa36fr5vigv9wo1cvl0,H4SdRgf0,2020-0188,2021-10-14,14:58:21,16:51:24,NA,incomplete,false,true,NA,6,33,NA,brown,n_s_036.jpg,NA,NA,pleasant,unpleasant,NA,NA,NA,NA,NA,right,1626.90000009537,true,NA,NA,NA,NA,NA
H4SdRgf0,3o4vwc1gfzjxgki2d88xs18tr9fj3v,337rc3ow09fpa36fr5vigv9wo1cvl0,H4SdRgf0,2020-0188,2021-10-14,14:58:21,16:51:24,NA,incomplete,false,true,NA,6,34,NA,brown,n_s_012.jpg,NA,NA,pleasant,unpleasant,NA,NA,NA,NA,NA,right,1560.2000002861,true,NA,NA,NA,NA,NA
H4SdRgf0,3o4vwc1gfzjxgki2d88xs18tr9fj3v,337rc3ow09fpa36fr5vigv9wo1cvl0,H4SdRgf0,2020-0188,2021-10-14,14:58:21,16:51:24,NA,incomplete,false,true,NA,6,35,NA,brown,m_l_024.jpg,NA,NA,pleasant,unpleasant,NA,NA,NA,NA,NA,right,1981.2999997139,true,NA,NA,NA,NA,NA
H4SdRgf0,3o4vwc1gfzjxgki2d88xs18tr9fj3v,337rc3ow09fpa36fr5vigv9wo1cvl0,H4SdRgf0,2020-0188,2021-10-14,14:58:21,16:51:24,NA,incomplete,false,NA,true,6,0,NA,NA,NA,right,present,NA,NA,n_l_038.jpg,white,m_s_031.jpg,white,within,NA,NaN,NA,right,14413.5,1,1,1174.3999996185303
H4SdRgf0,3o4vwc1gfzjxgki2d88xs18tr9fj3v,337rc3ow09fpa36fr5vigv9wo1cvl0,H4SdRgf0,2020-0188,2021-10-14,14:58:21,16:51:24,NA,incomplete,false,NA,true,6,1,NA,NA,NA,right,present,NA,NA,m_s_040.jpg,gray,n_s_001.jpg,gray,within,NA,NaN,NA,left,7366.400000095367,0,0,1733.0999999046326
H4SdRgf0,3o4vwc1gfzjxgki2d88xs18tr9fj3v,337rc3ow09fpa36fr5vigv9wo1cvl0,H4SdRgf0,2020-0188,2021-10-14,14:58:21,16:51:24,NA,incomplete,false,NA,true,6,2,NA,NA,NA,left,present,NA,NA,n_l_016.jpg,black,m_s_086.jpg,gray,between,NA,NaN,NA,left,6461.300000190735,1,2,1079
H4SdRgf0,3o4vwc1gfzjxgki2d88xs18tr9fj3v,337rc3ow09fpa36fr5vigv9wo1cvl0,H4SdRgf0,2020-0188,2021-10-14,14:58:21,16:51:24,NA,incomplete,false,NA,true,6,3,NA,NA,NA,left,present,NA,NA,n_s_086.jpg,gray,m_s_036.jpg,white,between,NA,NaN,NA,left,7870.599999904633,1,1,1382.6999998092651
H4SdRgf0,3o4vwc1gfzjxgki2d88xs18tr9fj3v,337rc3ow09fpa36fr5vigv9wo1cvl0,H4SdRgf0,2020-0188,2021-10-14,14:58:21,16:51:24,NA,incomplete,false,NA,true,6,4,NA,NA,NA,right,present,NA,NA,n_s_116.jpg,green,n_s_010.jpg,red,between,NA,NaN,NA,right,9382,1,1,1294.5999999046326
H4SdRgf0,3o4vwc1gfzjxgki2d88xs18tr9fj3v,337rc3ow09fpa36fr5vigv9wo1cvl0,H4SdRgf0,2020-0188,2021-10-14,14:58:21,16:51:24,NA,incomplete,false,NA,true,6,5,NA,NA,NA,right,present,NA,NA,n_l_010.jpg,red,n_s_025.jpg,red,within,NA,NaN,NA,right,6039.299999713898,1,0,1639.4000000953674
H4SdRgf0,3o4vwc1gfzjxgki2d88xs18tr9fj3v,337rc3ow09fpa36fr5vigv9wo1cvl0,H4SdRgf0,2020-0188,2021-10-14,14:58:21,16:51:24,NA,incomplete,false,NA,true,6,6,NA,NA,NA,left,present,NA,NA,n_s_016.jpg,white,m_l_068.jpg,red,between,NA,NaN,NA,left,5823.300000190735,1,1,2054.5999999046326
H4SdRgf0,3o4vwc1gfzjxgki2d88xs18tr9fj3v,337rc3ow09fpa36fr5vigv9wo1cvl0,H4SdRgf0,2020-0188,2021-10-14,14:58:21,16:51:24,NA,incomplete,false,NA,true,6,7,NA,NA,NA,left,present,NA,NA,n_l_004.jpg,brown,m_l_024.jpg,brown,within,NA,NaN,NA,left,5382.900000095367,1,0,1591
H4SdRgf0,3o4vwc1gfzjxgki2d88xs18tr9fj3v,337rc3ow09fpa36fr5vigv9wo1cvl0,H4SdRgf0,2020-0188,2021-10-14,14:58:21,16:51:24,NA,incomplete,false,NA,true,6,8,NA,NA,NA,left,present,NA,NA,n_l_086.jpg,green,m_l_037.jpg,green,within,NA,NaN,NA,right,3278.2000002861023,0,0,1207
H4SdRgf0,3o4vwc1gfzjxgki2d88xs18tr9fj3v,337rc3ow09fpa36fr5vigv9wo1cvl0,H4SdRgf0,2020-0188,2021-10-14,14:58:21,16:51:24,NA,incomplete,false,NA,true,6,9,NA,NA,NA,left,present,NA,NA,n_s_115.jpg,black,n_s_037.jpg,black,within,NA,NaN,NA,left,6438.599999904633,1,0,1551
H4SdRgf0,3o4vwc1gfzjxgki2d88xs18tr9fj3v,337rc3ow09fpa36fr5vigv9wo1cvl0,H4SdRgf0,2020-0188,2021-10-14,14:58:21,16:51:24,NA,incomplete,false,NA,true,6,10,NA,NA,NA,left,present,NA,NA,n_s_015.jpg,green,m_s_052.jpg,brown,between,NA,NaN,NA,left,8126.400000095367,1,2,6447.200000286102
H4SdRgf0,3o4vwc1gfzjxgki2d88xs18tr9fj3v,337rc3ow09fpa36fr5vigv9wo1cvl0,H4SdRgf0,2020-0188,2021-10-14,14:58:21,16:51:24,NA,incomplete,false,true,NA,7,0,NA,brown,m_l_107.jpg,NA,NA,unpleasant,pleasant,NA,NA,NA,NA,NA,left,1653.80000019073,true,NA,NA,NA,NA,NA
H4SdRgf0,3o4vwc1gfzjxgki2d88xs18tr9fj3v,337rc3ow09fpa36fr5vigv9wo1cvl0,H4SdRgf0,2020-0188,2021-10-14,14:58:21,16:51:24,NA,incomplete,false,true,NA,7,1,NA,brown,m_l_091.jpg,NA,NA,pleasant,unpleasant,NA,NA,NA,NA,NA,right,1402.5,true,NA,NA,NA,NA,NA
H4SdRgf0,3o4vwc1gfzjxgki2d88xs18tr9fj3v,337rc3ow09fpa36fr5vigv9wo1cvl0,H4SdRgf0,2020-0188,2021-10-14,14:58:21,16:51:24,NA,incomplete,false,true,NA,7,2,NA,brown,n_s_071.jpg,NA,NA,pleasant,unpleasant,NA,NA,NA,NA,NA,right,1254.40000009537,true,NA,NA,NA,NA,NA
H4SdRgf0,3o4vwc1gfzjxgki2d88xs18tr9fj3v,337rc3ow09fpa36fr5vigv9wo1cvl0,H4SdRgf0,2020-0188,2021-10-14,14:58:21,16:51:24,NA,incomplete,false,true,NA,7,3,NA,brown,m_s_049.jpg,NA,NA,unpleasant,pleasant,NA,NA,NA,NA,NA,left,1515.10000038147,true,NA,NA,NA,NA,NA
H4SdRgf0,3o4vwc1gfzjxgki2d88xs18tr9fj3v,337rc3ow09fpa36fr5vigv9wo1cvl0,H4SdRgf0,2020-0188,2021-10-14,14:58:21,16:51:24,NA,incomplete,false,true,NA,7,4,NA,brown,m_s_018.jpg,NA,NA,pleasant,unpleasant,NA,NA,NA,NA,NA,right,1808,true,NA,NA,NA,NA,NA
H4SdRgf0,3o4vwc1gfzjxgki2d88xs18tr9fj3v,337rc3ow09fpa36fr5vigv9wo1cvl0,H4SdRgf0,2020-0188,2021-10-14,14:58:21,16:51:24,NA,incomplete,false,true,NA,7,5,NA,brown,m_s_098.jpg,NA,NA,pleasant,unpleasant,NA,NA,NA,NA,NA,right,1932.5,true,NA,NA,NA,NA,NA
H4SdRgf0,3o4vwc1gfzjxgki2d88xs18tr9fj3v,337rc3ow09fpa36fr5vigv9wo1cvl0,H4SdRgf0,2020-0188,2021-10-14,14:58:21,16:51:24,NA,incomplete,false,true,NA,7,6,NA,black,m_s_107.jpg,NA,NA,unpleasant,pleasant,NA,NA,NA,NA,NA,right,2328.69999980927,true,NA,NA,NA,NA,NA
H4SdRgf0,3o4vwc1gfzjxgki2d88xs18tr9fj3v,337rc3ow09fpa36fr5vigv9wo1cvl0,H4SdRgf0,2020-0188,2021-10-14,14:58:21,16:51:24,NA,incomplete,false,true,NA,7,7,NA,black,n_s_028.jpg,NA,NA,pleasant,unpleasant,NA,NA,NA,NA,NA,right,1869.5,true,NA,NA,NA,NA,NA
H4SdRgf0,3o4vwc1gfzjxgki2d88xs18tr9fj3v,337rc3ow09fpa36fr5vigv9wo1cvl0,H4SdRgf0,2020-0188,2021-10-14,14:58:21,16:51:24,NA,incomplete,false,true,NA,7,8,NA,black,m_s_105.jpg,NA,NA,pleasant,unpleasant,NA,NA,NA,NA,NA,right,2169.30000019073,true,NA,NA,NA,NA,NA
H4SdRgf0,3o4vwc1gfzjxgki2d88xs18tr9fj3v,337rc3ow09fpa36fr5vigv9wo1cvl0,H4SdRgf0,2020-0188,2021-10-14,14:58:21,16:51:24,NA,incomplete,false,true,NA,7,9,NA,black,n_s_101.jpg,NA,NA,pleasant,unpleasant,NA,NA,NA,NA,NA,right,2421.40000009537,true,NA,NA,NA,NA,NA
H4SdRgf0,3o4vwc1gfzjxgki2d88xs18tr9fj3v,337rc3ow09fpa36fr5vigv9wo1cvl0,H4SdRgf0,2020-0188,2021-10-14,14:58:21,16:51:24,NA,incomplete,false,true,NA,7,10,NA,black,m_l_006.jpg,NA,NA,unpleasant,pleasant,NA,NA,NA,NA,NA,right,1497.59999990463,true,NA,NA,NA,NA,NA
H4SdRgf0,3o4vwc1gfzjxgki2d88xs18tr9fj3v,337rc3ow09fpa36fr5vigv9wo1cvl0,H4SdRgf0,2020-0188,2021-10-14,14:58:21,16:51:24,NA,incomplete,false,true,NA,7,11,NA,black,m_s_050.jpg,NA,NA,pleasant,unpleasant,NA,NA,NA,NA,NA,right,1606.69999980927,true,NA,NA,NA,NA,NA
H4SdRgf0,3o4vwc1gfzjxgki2d88xs18tr9fj3v,337rc3ow09fpa36fr5vigv9wo1cvl0,H4SdRgf0,2020-0188,2021-10-14,14:58:21,16:51:24,NA,incomplete,false,true,NA,7,12,NA,purple,m_l_005.jpg,NA,NA,pleasant,unpleasant,NA,NA,NA,NA,NA,left,2434.5,true,NA,NA,NA,NA,NA
H4SdRgf0,3o4vwc1gfzjxgki2d88xs18tr9fj3v,337rc3ow09fpa36fr5vigv9wo1cvl0,H4SdRgf0,2020-0188,2021-10-14,14:58:21,16:51:24,NA,incomplete,false,true,NA,7,13,NA,purple,m_s_077.jpg,NA,NA,pleasant,unpleasant,NA,NA,NA,NA,NA,left,1333.80000019073,true,NA,NA,NA,NA,NA
H4SdRgf0,3o4vwc1gfzjxgki2d88xs18tr9fj3v,337rc3ow09fpa36fr5vigv9wo1cvl0,H4SdRgf0,2020-0188,2021-10-14,14:58:21,16:51:24,NA,incomplete,false,true,NA,7,14,NA,purple,m_l_089.jpg,NA,NA,pleasant,unpleasant,NA,NA,NA,NA,NA,left,1586.2999997139,true,NA,NA,NA,NA,NA
H4SdRgf0,3o4vwc1gfzjxgki2d88xs18tr9fj3v,337rc3ow09fpa36fr5vigv9wo1cvl0,H4SdRgf0,2020-0188,2021-10-14,14:58:21,16:51:24,NA,incomplete,false,true,NA,7,15,NA,purple,m_l_018.jpg,NA,NA,pleasant,unpleasant,NA,NA,NA,NA,NA,right,2117.2999997139,true,NA,NA,NA,NA,NA
H4SdRgf0,3o4vwc1gfzjxgki2d88xs18tr9fj3v,337rc3ow09fpa36fr5vigv9wo1cvl0,H4SdRgf0,2020-0188,2021-10-14,14:58:21,16:51:24,NA,incomplete,false,true,NA,7,16,NA,purple,m_s_009.jpg,NA,NA,pleasant,unpleasant,NA,NA,NA,NA,NA,left,1490.30000019073,true,NA,NA,NA,NA,NA
H4SdRgf0,3o4vwc1gfzjxgki2d88xs18tr9fj3v,337rc3ow09fpa36fr5vigv9wo1cvl0,H4SdRgf0,2020-0188,2021-10-14,14:58:21,16:51:24,NA,incomplete,false,true,NA,7,17,NA,purple,m_s_115.jpg,NA,NA,unpleasant,pleasant,NA,NA,NA,NA,NA,right,1694.5,true,NA,NA,NA,NA,NA
H4SdRgf0,3o4vwc1gfzjxgki2d88xs18tr9fj3v,337rc3ow09fpa36fr5vigv9wo1cvl0,H4SdRgf0,2020-0188,2021-10-14,14:58:21,16:51:24,NA,incomplete,false,true,NA,7,18,NA,white,n_s_022.jpg,NA,NA,unpleasant,pleasant,NA,NA,NA,NA,NA,right,2530.7999997139,true,NA,NA,NA,NA,NA
H4SdRgf0,3o4vwc1gfzjxgki2d88xs18tr9fj3v,337rc3ow09fpa36fr5vigv9wo1cvl0,H4SdRgf0,2020-0188,2021-10-14,14:58:21,16:51:24,NA,incomplete,false,true,NA,7,19,NA,white,m_l_092.jpg,NA,NA,pleasant,unpleasant,NA,NA,NA,NA,NA,left,2046.59999990463,true,NA,NA,NA,NA,NA
H4SdRgf0,3o4vwc1gfzjxgki2d88xs18tr9fj3v,337rc3ow09fpa36fr5vigv9wo1cvl0,H4SdRgf0,2020-0188,2021-10-14,14:58:21,16:51:24,NA,incomplete,false,true,NA,7,20,NA,white,n_l_071.jpg,NA,NA,unpleasant,pleasant,NA,NA,NA,NA,NA,left,2108.5,true,NA,NA,NA,NA,NA
H4SdRgf0,3o4vwc1gfzjxgki2d88xs18tr9fj3v,337rc3ow09fpa36fr5vigv9wo1cvl0,H4SdRgf0,2020-0188,2021-10-14,14:58:21,16:51:24,NA,incomplete,false,true,NA,7,21,NA,white,m_l_115.jpg,NA,NA,pleasant,unpleasant,NA,NA,NA,NA,NA,right,2401,true,NA,NA,NA,NA,NA
H4SdRgf0,3o4vwc1gfzjxgki2d88xs18tr9fj3v,337rc3ow09fpa36fr5vigv9wo1cvl0,H4SdRgf0,2020-0188,2021-10-14,14:58:21,16:51:24,NA,incomplete,false,true,NA,7,22,NA,white,m_l_064.jpg,NA,NA,unpleasant,pleasant,NA,NA,NA,NA,NA,left,1972.89999961853,true,NA,NA,NA,NA,NA
H4SdRgf0,3o4vwc1gfzjxgki2d88xs18tr9fj3v,337rc3ow09fpa36fr5vigv9wo1cvl0,H4SdRgf0,2020-0188,2021-10-14,14:58:21,16:51:24,NA,incomplete,false,true,NA,7,23,NA,white,n_l_111.jpg,NA,NA,unpleasant,pleasant,NA,NA,NA,NA,NA,left,1585.69999980927,true,NA,NA,NA,NA,NA
H4SdRgf0,3o4vwc1gfzjxgki2d88xs18tr9fj3v,337rc3ow09fpa36fr5vigv9wo1cvl0,H4SdRgf0,2020-0188,2021-10-14,14:58:21,16:51:24,NA,incomplete,false,true,NA,7,24,NA,red,n_l_100.jpg,NA,NA,pleasant,unpleasant,NA,NA,NA,NA,NA,left,2444.90000009537,true,NA,NA,NA,NA,NA
H4SdRgf0,3o4vwc1gfzjxgki2d88xs18tr9fj3v,337rc3ow09fpa36fr5vigv9wo1cvl0,H4SdRgf0,2020-0188,2021-10-14,14:58:21,16:51:24,NA,incomplete,false,true,NA,7,25,NA,red,n_l_054.jpg,NA,NA,unpleasant,pleasant,NA,NA,NA,NA,NA,left,1737.5,true,NA,NA,NA,NA,NA
H4SdRgf0,3o4vwc1gfzjxgki2d88xs18tr9fj3v,337rc3ow09fpa36fr5vigv9wo1cvl0,H4SdRgf0,2020-0188,2021-10-14,14:58:21,16:51:24,NA,incomplete,false,true,NA,7,26,NA,red,n_s_114.jpg,NA,NA,pleasant,unpleasant,NA,NA,NA,NA,NA,right,1574.2000002861,true,NA,NA,NA,NA,NA
H4SdRgf0,3o4vwc1gfzjxgki2d88xs18tr9fj3v,337rc3ow09fpa36fr5vigv9wo1cvl0,H4SdRgf0,2020-0188,2021-10-14,14:58:21,16:51:24,NA,incomplete,false,true,NA,7,27,NA,red,n_l_015.jpg,NA,NA,pleasant,unpleasant,NA,NA,NA,NA,NA,right,2385,true,NA,NA,NA,NA,NA
H4SdRgf0,3o4vwc1gfzjxgki2d88xs18tr9fj3v,337rc3ow09fpa36fr5vigv9wo1cvl0,H4SdRgf0,2020-0188,2021-10-14,14:58:21,16:51:24,NA,incomplete,false,true,NA,7,28,NA,red,n_l_083.jpg,NA,NA,pleasant,unpleasant,NA,NA,NA,NA,NA,right,1299.19999980927,true,NA,NA,NA,NA,NA
H4SdRgf0,3o4vwc1gfzjxgki2d88xs18tr9fj3v,337rc3ow09fpa36fr5vigv9wo1cvl0,H4SdRgf0,2020-0188,2021-10-14,14:58:21,16:51:24,NA,incomplete,false,true,NA,7,29,NA,red,n_s_033.jpg,NA,NA,pleasant,unpleasant,NA,NA,NA,NA,NA,left,1922.60000038147,true,NA,NA,NA,NA,NA
H4SdRgf0,3o4vwc1gfzjxgki2d88xs18tr9fj3v,337rc3ow09fpa36fr5vigv9wo1cvl0,H4SdRgf0,2020-0188,2021-10-14,14:58:21,16:51:24,NA,incomplete,false,true,NA,7,30,NA,orange,m_s_062.jpg,NA,NA,unpleasant,pleasant,NA,NA,NA,NA,NA,right,1838.5,true,NA,NA,NA,NA,NA
H4SdRgf0,3o4vwc1gfzjxgki2d88xs18tr9fj3v,337rc3ow09fpa36fr5vigv9wo1cvl0,H4SdRgf0,2020-0188,2021-10-14,14:58:21,16:51:24,NA,incomplete,false,true,NA,7,31,NA,orange,n_l_051.jpg,NA,NA,unpleasant,pleasant,NA,NA,NA,NA,NA,right,2122.5,true,NA,NA,NA,NA,NA
H4SdRgf0,3o4vwc1gfzjxgki2d88xs18tr9fj3v,337rc3ow09fpa36fr5vigv9wo1cvl0,H4SdRgf0,2020-0188,2021-10-14,14:58:21,16:51:24,NA,incomplete,false,true,NA,7,32,NA,orange,n_l_020.jpg,NA,NA,unpleasant,pleasant,NA,NA,NA,NA,NA,right,1999,true,NA,NA,NA,NA,NA
H4SdRgf0,3o4vwc1gfzjxgki2d88xs18tr9fj3v,337rc3ow09fpa36fr5vigv9wo1cvl0,H4SdRgf0,2020-0188,2021-10-14,14:58:21,16:51:24,NA,incomplete,false,true,NA,7,33,NA,orange,n_s_013.jpg,NA,NA,pleasant,unpleasant,NA,NA,NA,NA,NA,right,1659.59999990463,true,NA,NA,NA,NA,NA
H4SdRgf0,3o4vwc1gfzjxgki2d88xs18tr9fj3v,337rc3ow09fpa36fr5vigv9wo1cvl0,H4SdRgf0,2020-0188,2021-10-14,14:58:21,16:51:24,NA,incomplete,false,true,NA,7,34,NA,orange,n_l_107.jpg,NA,NA,pleasant,unpleasant,NA,NA,NA,NA,NA,right,1903.09999990463,true,NA,NA,NA,NA,NA
H4SdRgf0,3o4vwc1gfzjxgki2d88xs18tr9fj3v,337rc3ow09fpa36fr5vigv9wo1cvl0,H4SdRgf0,2020-0188,2021-10-14,14:58:21,16:51:24,NA,incomplete,false,true,NA,7,35,NA,orange,m_s_076.jpg,NA,NA,unpleasant,pleasant,NA,NA,NA,NA,NA,right,1980.2000002861,true,NA,NA,NA,NA,NA
H4SdRgf0,3o4vwc1gfzjxgki2d88xs18tr9fj3v,337rc3ow09fpa36fr5vigv9wo1cvl0,H4SdRgf0,2020-0188,2021-10-14,14:58:21,16:51:24,NA,incomplete,false,NA,true,7,0,NA,NA,NA,right,present,NA,NA,n_s_114.jpg,red,m_l_064.jpg,white,between,NA,NaN,NA,right,10518.400000095367,1,1,3014.9000000953674
H4SdRgf0,3o4vwc1gfzjxgki2d88xs18tr9fj3v,337rc3ow09fpa36fr5vigv9wo1cvl0,H4SdRgf0,2020-0188,2021-10-14,14:58:21,16:51:24,NA,incomplete,false,NA,true,7,1,NA,NA,NA,right,present,NA,NA,n_s_033.jpg,red,n_l_054.jpg,red,within,NA,NaN,NA,right,14871.699999809265,1,0,1478.3000001907349
H4SdRgf0,3o4vwc1gfzjxgki2d88xs18tr9fj3v,337rc3ow09fpa36fr5vigv9wo1cvl0,H4SdRgf0,2020-0188,2021-10-14,14:58:21,16:51:24,NA,incomplete,false,NA,true,7,2,NA,NA,NA,left,present,NA,NA,m_l_091.jpg,brown,m_s_098.jpg,brown,within,NA,NaN,NA,left,13285.900000095367,1,0,1262.4000000953674
H4SdRgf0,3o4vwc1gfzjxgki2d88xs18tr9fj3v,337rc3ow09fpa36fr5vigv9wo1cvl0,H4SdRgf0,2020-0188,2021-10-14,14:58:21,16:51:24,NA,incomplete,false,NA,true,7,3,NA,NA,NA,left,present,NA,NA,m_s_009.jpg,purple,n_l_071.jpg,white,between,NA,NaN,NA,left,14054.400000095367,1,2,1166.7000002861023
H4SdRgf0,3o4vwc1gfzjxgki2d88xs18tr9fj3v,337rc3ow09fpa36fr5vigv9wo1cvl0,H4SdRgf0,2020-0188,2021-10-14,14:58:21,16:51:24,NA,incomplete,false,NA,true,7,4,NA,NA,NA,left,present,NA,NA,m_l_006.jpg,black,m_l_089.jpg,purple,between,NA,NaN,NA,left,13270.400000095367,1,1,1078.7999997138977
H4SdRgf0,3o4vwc1gfzjxgki2d88xs18tr9fj3v,337rc3ow09fpa36fr5vigv9wo1cvl0,H4SdRgf0,2020-0188,2021-10-14,14:58:21,16:51:24,NA,incomplete,false,NA,true,7,5,NA,NA,NA,left,present,NA,NA,n_l_051.jpg,orange,m_s_076.jpg,orange,within,NA,NaN,NA,left,6359.10000038147,1,0,1263.8000001907349
H4SdRgf0,3o4vwc1gfzjxgki2d88xs18tr9fj3v,337rc3ow09fpa36fr5vigv9wo1cvl0,H4SdRgf0,2020-0188,2021-10-14,14:58:21,16:51:24,NA,incomplete,false,NA,true,7,6,NA,NA,NA,left,present,NA,NA,n_l_083.jpg,red,n_l_020.jpg,orange,between,NA,NaN,NA,left,6494.400000095367,1,2,3151.199999809265
H4SdRgf0,3o4vwc1gfzjxgki2d88xs18tr9fj3v,337rc3ow09fpa36fr5vigv9wo1cvl0,H4SdRgf0,2020-0188,2021-10-14,14:58:21,16:51:24,NA,incomplete,false,NA,true,7,7,NA,NA,NA,left,present,NA,NA,m_l_092.jpg,white,n_l_111.jpg,white,within,NA,NaN,NA,left,4687.099999904633,1,0,1223.5
H4SdRgf0,3o4vwc1gfzjxgki2d88xs18tr9fj3v,337rc3ow09fpa36fr5vigv9wo1cvl0,H4SdRgf0,2020-0188,2021-10-14,14:58:21,16:51:24,NA,incomplete,false,NA,true,7,8,NA,NA,NA,right,present,NA,NA,m_s_105.jpg,black,m_s_018.jpg,brown,between,NA,NaN,NA,right,6782.400000095367,1,1,918.5
H4SdRgf0,3o4vwc1gfzjxgki2d88xs18tr9fj3v,337rc3ow09fpa36fr5vigv9wo1cvl0,H4SdRgf0,2020-0188,2021-10-14,14:58:21,16:51:24,NA,incomplete,false,NA,true,7,9,NA,NA,NA,right,present,NA,NA,m_s_050.jpg,black,n_s_028.jpg,black,within,NA,NaN,NA,right,10831.39999961853,1,0,1286.1000003814697
H4SdRgf0,3o4vwc1gfzjxgki2d88xs18tr9fj3v,337rc3ow09fpa36fr5vigv9wo1cvl0,H4SdRgf0,2020-0188,2021-10-14,14:58:21,16:51:24,NA,incomplete,false,NA,true,7,10,NA,NA,NA,left,present,NA,NA,m_s_077.jpg,purple,m_s_115.jpg,purple,within,NA,NaN,NA,left,3966.300000190735,1,0,1142.2000002861023
H4SdRgf0,3o4vwc1gfzjxgki2d88xs18tr9fj3v,337rc3ow09fpa36fr5vigv9wo1cvl0,H4SdRgf0,2020-0188,2021-10-14,14:58:21,16:51:24,NA,incomplete,false,true,NA,8,0,NA,green,n_l_002.jpg,NA,NA,unpleasant,pleasant,NA,NA,NA,NA,NA,left,1976.90000009537,true,NA,NA,NA,NA,NA
H4SdRgf0,3o4vwc1gfzjxgki2d88xs18tr9fj3v,337rc3ow09fpa36fr5vigv9wo1cvl0,H4SdRgf0,2020-0188,2021-10-14,14:58:21,16:51:24,NA,incomplete,false,true,NA,8,1,NA,green,n_l_097.jpg,NA,NA,pleasant,unpleasant,NA,NA,NA,NA,NA,right,1596.30000019073,true,NA,NA,NA,NA,NA
H4SdRgf0,3o4vwc1gfzjxgki2d88xs18tr9fj3v,337rc3ow09fpa36fr5vigv9wo1cvl0,H4SdRgf0,2020-0188,2021-10-14,14:58:21,16:51:24,NA,incomplete,false,true,NA,8,2,NA,green,m_s_067.jpg,NA,NA,unpleasant,pleasant,NA,NA,NA,NA,NA,left,1361.90000009537,true,NA,NA,NA,NA,NA
H4SdRgf0,3o4vwc1gfzjxgki2d88xs18tr9fj3v,337rc3ow09fpa36fr5vigv9wo1cvl0,H4SdRgf0,2020-0188,2021-10-14,14:58:21,16:51:24,NA,incomplete,false,true,NA,8,3,NA,green,m_l_007.jpg,NA,NA,pleasant,unpleasant,NA,NA,NA,NA,NA,left,1342.40000009537,true,NA,NA,NA,NA,NA
H4SdRgf0,3o4vwc1gfzjxgki2d88xs18tr9fj3v,337rc3ow09fpa36fr5vigv9wo1cvl0,H4SdRgf0,2020-0188,2021-10-14,14:58:21,16:51:24,NA,incomplete,false,true,NA,8,4,NA,green,n_s_048.jpg,NA,NA,unpleasant,pleasant,NA,NA,NA,NA,NA,right,1770.7000002861,true,NA,NA,NA,NA,NA
H4SdRgf0,3o4vwc1gfzjxgki2d88xs18tr9fj3v,337rc3ow09fpa36fr5vigv9wo1cvl0,H4SdRgf0,2020-0188,2021-10-14,14:58:21,16:51:24,NA,incomplete,false,true,NA,8,5,NA,green,m_l_075.jpg,NA,NA,pleasant,unpleasant,NA,NA,NA,NA,NA,left,1455.30000019073,true,NA,NA,NA,NA,NA
H4SdRgf0,3o4vwc1gfzjxgki2d88xs18tr9fj3v,337rc3ow09fpa36fr5vigv9wo1cvl0,H4SdRgf0,2020-0188,2021-10-14,14:58:21,16:51:24,NA,incomplete,false,true,NA,8,6,NA,yellow,n_l_117.jpg,NA,NA,pleasant,unpleasant,NA,NA,NA,NA,NA,left,1842.90000009537,true,NA,NA,NA,NA,NA
H4SdRgf0,3o4vwc1gfzjxgki2d88xs18tr9fj3v,337rc3ow09fpa36fr5vigv9wo1cvl0,H4SdRgf0,2020-0188,2021-10-14,14:58:21,16:51:24,NA,incomplete,false,true,NA,8,7,NA,yellow,m_l_078.jpg,NA,NA,pleasant,unpleasant,NA,NA,NA,NA,NA,right,2015.5,true,NA,NA,NA,NA,NA
H4SdRgf0,3o4vwc1gfzjxgki2d88xs18tr9fj3v,337rc3ow09fpa36fr5vigv9wo1cvl0,H4SdRgf0,2020-0188,2021-10-14,14:58:21,16:51:24,NA,incomplete,false,true,NA,8,8,NA,yellow,m_s_053.jpg,NA,NA,pleasant,unpleasant,NA,NA,NA,NA,NA,left,1908.80000019073,true,NA,NA,NA,NA,NA
H4SdRgf0,3o4vwc1gfzjxgki2d88xs18tr9fj3v,337rc3ow09fpa36fr5vigv9wo1cvl0,H4SdRgf0,2020-0188,2021-10-14,14:58:21,16:51:24,NA,incomplete,false,true,NA,8,9,NA,yellow,n_l_094.jpg,NA,NA,pleasant,unpleasant,NA,NA,NA,NA,NA,right,1897.19999980927,true,NA,NA,NA,NA,NA
