workerId,hitId,assignmentId,subject,studyid,exp_date,exp_start,exp_end,time_start,time_end,practice,encoding,memory,block,trial,event_order,event,stim,answer,context_type,label_left,label_right,left_image,left_event,right_image,right_event,condition,response,response_time,response_acc,order_response,order_response_time,order_acc,distance_response,distance_response_time
H5MhNoDh,33tgb4g0msu3alll9rtp1nk6wbyxtf,3z7vu45ip2uttg7lzs22hmdeec31z2,H5MhNoDh,2020-0188,2021-10-15,16:03:29,17:33:27,NA,incomplete,true,true,NA,0,0,NA,black,n_s_001.jpg,NA,NA,pleasant,unpleasant,NA,NA,NA,NA,NA,left,1872.90000000596,true,NA,NA,NA,NA,NA
H5MhNoDh,33tgb4g0msu3alll9rtp1nk6wbyxtf,3z7vu45ip2uttg7lzs22hmdeec31z2,H5MhNoDh,2020-0188,2021-10-15,16:03:29,17:33:27,NA,incomplete,true,true,NA,0,1,NA,black,n_s_089.jpg,NA,NA,pleasant,unpleasant,NA,NA,NA,NA,NA,left,1991.29999999702,true,NA,NA,NA,NA,NA
H5MhNoDh,33tgb4g0msu3alll9rtp1nk6wbyxtf,3z7vu45ip2uttg7lzs22hmdeec31z2,H5MhNoDh,2020-0188,2021-10-15,16:03:29,17:33:27,NA,incomplete,true,true,NA,0,2,NA,black,n_l_050.jpg,NA,NA,pleasant,unpleasant,NA,NA,NA,NA,NA,right,1453,true,NA,NA,NA,NA,NA
H5MhNoDh,33tgb4g0msu3alll9rtp1nk6wbyxtf,3z7vu45ip2uttg7lzs22hmdeec31z2,H5MhNoDh,2020-0188,2021-10-15,16:03:29,17:33:27,NA,incomplete,true,true,NA,0,3,NA,black,m_s_017.jpg,NA,NA,unpleasant,pleasant,NA,NA,NA,NA,NA,right,2389.89999999106,true,NA,NA,NA,NA,NA
H5MhNoDh,33tgb4g0msu3alll9rtp1nk6wbyxtf,3z7vu45ip2uttg7lzs22hmdeec31z2,H5MhNoDh,2020-0188,2021-10-15,16:03:29,17:33:27,NA,incomplete,true,true,NA,0,4,NA,black,m_s_013.jpg,NA,NA,pleasant,unpleasant,NA,NA,NA,NA,NA,right,1931.5,true,NA,NA,NA,NA,NA
H5MhNoDh,33tgb4g0msu3alll9rtp1nk6wbyxtf,3z7vu45ip2uttg7lzs22hmdeec31z2,H5MhNoDh,2020-0188,2021-10-15,16:03:29,17:33:27,NA,incomplete,true,true,NA,0,5,NA,black,n_l_099.jpg,NA,NA,pleasant,unpleasant,NA,NA,NA,NA,NA,right,1531.89999999106,true,NA,NA,NA,NA,NA
H5MhNoDh,33tgb4g0msu3alll9rtp1nk6wbyxtf,3z7vu45ip2uttg7lzs22hmdeec31z2,H5MhNoDh,2020-0188,2021-10-15,16:03:29,17:33:27,NA,incomplete,true,true,NA,0,6,NA,gray,m_l_043.jpg,NA,NA,pleasant,unpleasant,NA,NA,NA,NA,NA,left,1598.90000000596,true,NA,NA,NA,NA,NA
H5MhNoDh,33tgb4g0msu3alll9rtp1nk6wbyxtf,3z7vu45ip2uttg7lzs22hmdeec31z2,H5MhNoDh,2020-0188,2021-10-15,16:03:29,17:33:27,NA,incomplete,true,true,NA,0,7,NA,gray,n_s_064.jpg,NA,NA,pleasant,unpleasant,NA,NA,NA,NA,NA,left,1308.10000000894,true,NA,NA,NA,NA,NA
H5MhNoDh,33tgb4g0msu3alll9rtp1nk6wbyxtf,3z7vu45ip2uttg7lzs22hmdeec31z2,H5MhNoDh,2020-0188,2021-10-15,16:03:29,17:33:27,NA,incomplete,true,true,NA,0,8,NA,gray,n_l_046.jpg,NA,NA,pleasant,unpleasant,NA,NA,NA,NA,NA,left,1156.20000000298,true,NA,NA,NA,NA,NA
H5MhNoDh,33tgb4g0msu3alll9rtp1nk6wbyxtf,3z7vu45ip2uttg7lzs22hmdeec31z2,H5MhNoDh,2020-0188,2021-10-15,16:03:29,17:33:27,NA,incomplete,true,true,NA,0,9,NA,gray,m_s_043.jpg,NA,NA,pleasant,unpleasant,NA,NA,NA,NA,NA,right,1341.30000001192,true,NA,NA,NA,NA,NA
H5MhNoDh,33tgb4g0msu3alll9rtp1nk6wbyxtf,3z7vu45ip2uttg7lzs22hmdeec31z2,H5MhNoDh,2020-0188,2021-10-15,16:03:29,17:33:27,NA,incomplete,true,true,NA,0,10,NA,gray,m_l_082.jpg,NA,NA,unpleasant,pleasant,NA,NA,NA,NA,NA,right,1791.20000000298,true,NA,NA,NA,NA,NA
H5MhNoDh,33tgb4g0msu3alll9rtp1nk6wbyxtf,3z7vu45ip2uttg7lzs22hmdeec31z2,H5MhNoDh,2020-0188,2021-10-15,16:03:29,17:33:27,NA,incomplete,true,true,NA,0,11,NA,gray,n_l_037.jpg,NA,NA,pleasant,unpleasant,NA,NA,NA,NA,NA,right,1965.89999999106,true,NA,NA,NA,NA,NA
H5MhNoDh,33tgb4g0msu3alll9rtp1nk6wbyxtf,3z7vu45ip2uttg7lzs22hmdeec31z2,H5MhNoDh,2020-0188,2021-10-15,16:03:29,17:33:27,NA,incomplete,true,true,NA,0,12,NA,red,n_s_046.jpg,NA,NA,pleasant,unpleasant,NA,NA,NA,NA,NA,left,2208.89999999106,true,NA,NA,NA,NA,NA
H5MhNoDh,33tgb4g0msu3alll9rtp1nk6wbyxtf,3z7vu45ip2uttg7lzs22hmdeec31z2,H5MhNoDh,2020-0188,2021-10-15,16:03:29,17:33:27,NA,incomplete,true,true,NA,0,13,NA,red,n_l_021.jpg,NA,NA,unpleasant,pleasant,NA,NA,NA,NA,NA,right,1238.5,true,NA,NA,NA,NA,NA
H5MhNoDh,33tgb4g0msu3alll9rtp1nk6wbyxtf,3z7vu45ip2uttg7lzs22hmdeec31z2,H5MhNoDh,2020-0188,2021-10-15,16:03:29,17:33:27,NA,incomplete,true,true,NA,0,14,NA,red,m_l_027.jpg,NA,NA,pleasant,unpleasant,NA,NA,NA,NA,NA,left,2359.40000000596,true,NA,NA,NA,NA,NA
H5MhNoDh,33tgb4g0msu3alll9rtp1nk6wbyxtf,3z7vu45ip2uttg7lzs22hmdeec31z2,H5MhNoDh,2020-0188,2021-10-15,16:03:29,17:33:27,NA,incomplete,true,true,NA,0,15,NA,red,m_s_065.jpg,NA,NA,unpleasant,pleasant,NA,NA,NA,NA,NA,left,1922.70000000298,true,NA,NA,NA,NA,NA
H5MhNoDh,33tgb4g0msu3alll9rtp1nk6wbyxtf,3z7vu45ip2uttg7lzs22hmdeec31z2,H5MhNoDh,2020-0188,2021-10-15,16:03:29,17:33:27,NA,incomplete,true,true,NA,0,16,NA,red,n_s_007.jpg,NA,NA,pleasant,unpleasant,NA,NA,NA,NA,NA,right,1788.29999999702,true,NA,NA,NA,NA,NA
H5MhNoDh,33tgb4g0msu3alll9rtp1nk6wbyxtf,3z7vu45ip2uttg7lzs22hmdeec31z2,H5MhNoDh,2020-0188,2021-10-15,16:03:29,17:33:27,NA,incomplete,true,true,NA,0,17,NA,red,m_s_072.jpg,NA,NA,unpleasant,pleasant,NA,NA,NA,NA,NA,right,1364.40000000596,true,NA,NA,NA,NA,NA
H5MhNoDh,33tgb4g0msu3alll9rtp1nk6wbyxtf,3z7vu45ip2uttg7lzs22hmdeec31z2,H5MhNoDh,2020-0188,2021-10-15,16:03:29,17:33:27,NA,incomplete,true,true,NA,0,18,NA,yellow,m_l_091.jpg,NA,NA,pleasant,unpleasant,NA,NA,NA,NA,NA,left,1959.80000001192,true,NA,NA,NA,NA,NA
H5MhNoDh,33tgb4g0msu3alll9rtp1nk6wbyxtf,3z7vu45ip2uttg7lzs22hmdeec31z2,H5MhNoDh,2020-0188,2021-10-15,16:03:29,17:33:27,NA,incomplete,true,true,NA,0,19,NA,yellow,m_l_004.jpg,NA,NA,pleasant,unpleasant,NA,NA,NA,NA,NA,right,1906.60000000894,true,NA,NA,NA,NA,NA
H5MhNoDh,33tgb4g0msu3alll9rtp1nk6wbyxtf,3z7vu45ip2uttg7lzs22hmdeec31z2,H5MhNoDh,2020-0188,2021-10-15,16:03:29,17:33:27,NA,incomplete,true,true,NA,0,20,NA,yellow,n_s_056.jpg,NA,NA,unpleasant,pleasant,NA,NA,NA,NA,NA,right,1756.29999999702,true,NA,NA,NA,NA,NA
H5MhNoDh,33tgb4g0msu3alll9rtp1nk6wbyxtf,3z7vu45ip2uttg7lzs22hmdeec31z2,H5MhNoDh,2020-0188,2021-10-15,16:03:29,17:33:27,NA,incomplete,true,true,NA,0,21,NA,yellow,m_s_050.jpg,NA,NA,unpleasant,pleasant,NA,NA,NA,NA,NA,right,1678.10000000894,true,NA,NA,NA,NA,NA
H5MhNoDh,33tgb4g0msu3alll9rtp1nk6wbyxtf,3z7vu45ip2uttg7lzs22hmdeec31z2,H5MhNoDh,2020-0188,2021-10-15,16:03:29,17:33:27,NA,incomplete,true,true,NA,0,22,NA,yellow,n_l_093.jpg,NA,NA,pleasant,unpleasant,NA,NA,NA,NA,NA,right,1610,true,NA,NA,NA,NA,NA
H5MhNoDh,33tgb4g0msu3alll9rtp1nk6wbyxtf,3z7vu45ip2uttg7lzs22hmdeec31z2,H5MhNoDh,2020-0188,2021-10-15,16:03:29,17:33:27,NA,incomplete,true,true,NA,0,23,NA,yellow,m_l_112.jpg,NA,NA,unpleasant,pleasant,NA,NA,NA,NA,NA,right,2135.10000000894,true,NA,NA,NA,NA,NA
H5MhNoDh,33tgb4g0msu3alll9rtp1nk6wbyxtf,3z7vu45ip2uttg7lzs22hmdeec31z2,H5MhNoDh,2020-0188,2021-10-15,16:03:29,17:33:27,NA,incomplete,true,true,NA,0,24,NA,white,m_s_088.jpg,NA,NA,pleasant,unpleasant,NA,NA,NA,NA,NA,right,1894,true,NA,NA,NA,NA,NA
H5MhNoDh,33tgb4g0msu3alll9rtp1nk6wbyxtf,3z7vu45ip2uttg7lzs22hmdeec31z2,H5MhNoDh,2020-0188,2021-10-15,16:03:29,17:33:27,NA,incomplete,true,true,NA,0,25,NA,white,m_s_071.jpg,NA,NA,unpleasant,pleasant,NA,NA,NA,NA,NA,left,1783.79999999702,true,NA,NA,NA,NA,NA
H5MhNoDh,33tgb4g0msu3alll9rtp1nk6wbyxtf,3z7vu45ip2uttg7lzs22hmdeec31z2,H5MhNoDh,2020-0188,2021-10-15,16:03:29,17:33:27,NA,incomplete,true,true,NA,0,26,NA,white,n_s_023.jpg,NA,NA,pleasant,unpleasant,NA,NA,NA,NA,NA,left,1604.60000000894,true,NA,NA,NA,NA,NA
H5MhNoDh,33tgb4g0msu3alll9rtp1nk6wbyxtf,3z7vu45ip2uttg7lzs22hmdeec31z2,H5MhNoDh,2020-0188,2021-10-15,16:03:29,17:33:27,NA,incomplete,true,true,NA,0,27,NA,white,n_s_115.jpg,NA,NA,pleasant,unpleasant,NA,NA,NA,NA,NA,left,1599.39999999106,true,NA,NA,NA,NA,NA
H5MhNoDh,33tgb4g0msu3alll9rtp1nk6wbyxtf,3z7vu45ip2uttg7lzs22hmdeec31z2,H5MhNoDh,2020-0188,2021-10-15,16:03:29,17:33:27,NA,incomplete,true,true,NA,0,28,NA,white,m_l_051.jpg,NA,NA,unpleasant,pleasant,NA,NA,NA,NA,NA,right,2270.29999999702,true,NA,NA,NA,NA,NA
H5MhNoDh,33tgb4g0msu3alll9rtp1nk6wbyxtf,3z7vu45ip2uttg7lzs22hmdeec31z2,H5MhNoDh,2020-0188,2021-10-15,16:03:29,17:33:27,NA,incomplete,true,true,NA,0,29,NA,white,m_s_067.jpg,NA,NA,pleasant,unpleasant,NA,NA,NA,NA,NA,left,1911.5,true,NA,NA,NA,NA,NA
H5MhNoDh,33tgb4g0msu3alll9rtp1nk6wbyxtf,3z7vu45ip2uttg7lzs22hmdeec31z2,H5MhNoDh,2020-0188,2021-10-15,16:03:29,17:33:27,NA,incomplete,true,true,NA,0,30,NA,purple,m_l_067.jpg,NA,NA,unpleasant,pleasant,NA,NA,NA,NA,NA,right,1470.39999999106,true,NA,NA,NA,NA,NA
H5MhNoDh,33tgb4g0msu3alll9rtp1nk6wbyxtf,3z7vu45ip2uttg7lzs22hmdeec31z2,H5MhNoDh,2020-0188,2021-10-15,16:03:29,17:33:27,NA,incomplete,true,true,NA,0,31,NA,purple,m_s_094.jpg,NA,NA,pleasant,unpleasant,NA,NA,NA,NA,NA,left,1650.90000000596,true,NA,NA,NA,NA,NA
H5MhNoDh,33tgb4g0msu3alll9rtp1nk6wbyxtf,3z7vu45ip2uttg7lzs22hmdeec31z2,H5MhNoDh,2020-0188,2021-10-15,16:03:29,17:33:27,NA,incomplete,true,true,NA,0,32,NA,purple,m_s_057.jpg,NA,NA,unpleasant,pleasant,NA,NA,NA,NA,NA,right,1685.39999999106,true,NA,NA,NA,NA,NA
H5MhNoDh,33tgb4g0msu3alll9rtp1nk6wbyxtf,3z7vu45ip2uttg7lzs22hmdeec31z2,H5MhNoDh,2020-0188,2021-10-15,16:03:29,17:33:27,NA,incomplete,true,true,NA,0,33,NA,purple,m_s_032.jpg,NA,NA,unpleasant,pleasant,NA,NA,NA,NA,NA,right,1697,true,NA,NA,NA,NA,NA
H5MhNoDh,33tgb4g0msu3alll9rtp1nk6wbyxtf,3z7vu45ip2uttg7lzs22hmdeec31z2,H5MhNoDh,2020-0188,2021-10-15,16:03:29,17:33:27,NA,incomplete,true,true,NA,0,34,NA,purple,n_l_008.jpg,NA,NA,unpleasant,pleasant,NA,NA,NA,NA,NA,right,1618.39999999106,true,NA,NA,NA,NA,NA
H5MhNoDh,33tgb4g0msu3alll9rtp1nk6wbyxtf,3z7vu45ip2uttg7lzs22hmdeec31z2,H5MhNoDh,2020-0188,2021-10-15,16:03:29,17:33:27,NA,incomplete,true,true,NA,0,35,NA,purple,m_s_024.jpg,NA,NA,unpleasant,pleasant,NA,NA,NA,NA,NA,right,1775.79999999702,true,NA,NA,NA,NA,NA
H5MhNoDh,33tgb4g0msu3alll9rtp1nk6wbyxtf,3z7vu45ip2uttg7lzs22hmdeec31z2,H5MhNoDh,2020-0188,2021-10-15,16:03:29,17:33:27,NA,incomplete,true,NA,true,0,0,NA,NA,NA,right,present,NA,NA,m_s_057.jpg,purple,m_l_051.jpg,white,between,NA,NaN,NA,right,4799.0999999940395,1,3,2952.5
H5MhNoDh,33tgb4g0msu3alll9rtp1nk6wbyxtf,3z7vu45ip2uttg7lzs22hmdeec31z2,H5MhNoDh,2020-0188,2021-10-15,16:03:29,17:33:27,NA,incomplete,true,NA,true,0,1,NA,NA,NA,left,absent,NA,NA,n_l_093.jpg,yellow,n_s_023.jpg,white,between,NA,NaN,NA,left,11319.79999999702,1,1,3310.7999999970198
H5MhNoDh,33tgb4g0msu3alll9rtp1nk6wbyxtf,3z7vu45ip2uttg7lzs22hmdeec31z2,H5MhNoDh,2020-0188,2021-10-15,16:03:29,17:33:27,NA,incomplete,true,NA,true,0,2,NA,NA,NA,left,present,NA,NA,n_l_021.jpg,red,m_s_072.jpg,red,within,NA,NaN,NA,left,17483.09999999404,1,0,2493.5
H5MhNoDh,33tgb4g0msu3alll9rtp1nk6wbyxtf,3z7vu45ip2uttg7lzs22hmdeec31z2,H5MhNoDh,2020-0188,2021-10-15,16:03:29,17:33:27,NA,incomplete,true,NA,true,0,3,NA,NA,NA,right,present,NA,NA,n_s_056.jpg,yellow,n_s_007.jpg,red,between,NA,NaN,NA,right,3085,1,1,3240.6000000089407
H5MhNoDh,33tgb4g0msu3alll9rtp1nk6wbyxtf,3z7vu45ip2uttg7lzs22hmdeec31z2,H5MhNoDh,2020-0188,2021-10-15,16:03:29,17:33:27,NA,incomplete,true,NA,true,0,4,NA,NA,NA,right,present,NA,NA,m_l_112.jpg,yellow,m_l_004.jpg,yellow,within,NA,NaN,NA,left,9418.29999999702,0,0,1908.7999999970198
H5MhNoDh,33tgb4g0msu3alll9rtp1nk6wbyxtf,3z7vu45ip2uttg7lzs22hmdeec31z2,H5MhNoDh,2020-0188,2021-10-15,16:03:29,17:33:27,NA,incomplete,true,NA,true,0,5,NA,NA,NA,left,present,NA,NA,n_s_089.jpg,black,n_l_099.jpg,black,within,NA,NaN,NA,left,2977.5,1,1,2476.9000000059605
H5MhNoDh,33tgb4g0msu3alll9rtp1nk6wbyxtf,3z7vu45ip2uttg7lzs22hmdeec31z2,H5MhNoDh,2020-0188,2021-10-15,16:03:29,17:33:27,NA,incomplete,true,NA,true,0,6,NA,NA,NA,right,absent,NA,NA,m_s_024.jpg,purple,m_s_094.jpg,purple,within,NA,NaN,NA,left,10168.40000000596,0,0,2570.5999999940395
H5MhNoDh,33tgb4g0msu3alll9rtp1nk6wbyxtf,3z7vu45ip2uttg7lzs22hmdeec31z2,H5MhNoDh,2020-0188,2021-10-15,16:03:29,17:33:27,NA,incomplete,true,NA,true,0,7,NA,NA,NA,right,absent,NA,NA,m_s_067.jpg,white,m_s_071.jpg,white,within,NA,NaN,NA,left,20098.09999999404,0,0,3288.7999999970198
H5MhNoDh,33tgb4g0msu3alll9rtp1nk6wbyxtf,3z7vu45ip2uttg7lzs22hmdeec31z2,H5MhNoDh,2020-0188,2021-10-15,16:03:29,17:33:27,NA,incomplete,true,NA,true,0,8,NA,NA,NA,right,present,NA,NA,m_l_027.jpg,red,m_l_082.jpg,gray,between,NA,NaN,NA,right,6679.4000000059605,1,2,6499.100000008941
H5MhNoDh,33tgb4g0msu3alll9rtp1nk6wbyxtf,3z7vu45ip2uttg7lzs22hmdeec31z2,H5MhNoDh,2020-0188,2021-10-15,16:03:29,17:33:27,NA,incomplete,true,NA,true,0,9,NA,NA,NA,right,present,NA,NA,n_l_037.jpg,gray,n_s_064.jpg,gray,within,NA,NaN,NA,left,10504.70000000298,0,0,3682.9000000059605
H5MhNoDh,33tgb4g0msu3alll9rtp1nk6wbyxtf,3z7vu45ip2uttg7lzs22hmdeec31z2,H5MhNoDh,2020-0188,2021-10-15,16:03:29,17:33:27,NA,incomplete,true,NA,true,0,10,NA,NA,NA,left,absent,NA,NA,m_s_013.jpg,black,n_l_046.jpg,gray,between,NA,NaN,NA,left,3582.8999999910593,1,0,2563.0999999940395
H5MhNoDh,33tgb4g0msu3alll9rtp1nk6wbyxtf,3z7vu45ip2uttg7lzs22hmdeec31z2,H5MhNoDh,2020-0188,2021-10-15,16:03:29,17:33:27,NA,incomplete,false,true,NA,1,0,NA,green,n_l_061.jpg,NA,NA,unpleasant,pleasant,NA,NA,NA,NA,NA,left,3431.79999999702,true,NA,NA,NA,NA,NA
H5MhNoDh,33tgb4g0msu3alll9rtp1nk6wbyxtf,3z7vu45ip2uttg7lzs22hmdeec31z2,H5MhNoDh,2020-0188,2021-10-15,16:03:29,17:33:27,NA,incomplete,false,true,NA,1,1,NA,green,m_s_111.jpg,NA,NA,pleasant,unpleasant,NA,NA,NA,NA,NA,left,2211.70000000298,true,NA,NA,NA,NA,NA
H5MhNoDh,33tgb4g0msu3alll9rtp1nk6wbyxtf,3z7vu45ip2uttg7lzs22hmdeec31z2,H5MhNoDh,2020-0188,2021-10-15,16:03:29,17:33:27,NA,incomplete,false,true,NA,1,2,NA,green,n_s_083.jpg,NA,NA,pleasant,unpleasant,NA,NA,NA,NA,NA,left,2154,true,NA,NA,NA,NA,NA
H5MhNoDh,33tgb4g0msu3alll9rtp1nk6wbyxtf,3z7vu45ip2uttg7lzs22hmdeec31z2,H5MhNoDh,2020-0188,2021-10-15,16:03:29,17:33:27,NA,incomplete,false,true,NA,1,3,NA,green,n_l_045.jpg,NA,NA,unpleasant,pleasant,NA,NA,NA,NA,NA,left,2477.09999999404,true,NA,NA,NA,NA,NA
H5MhNoDh,33tgb4g0msu3alll9rtp1nk6wbyxtf,3z7vu45ip2uttg7lzs22hmdeec31z2,H5MhNoDh,2020-0188,2021-10-15,16:03:29,17:33:27,NA,incomplete,false,true,NA,1,4,NA,green,n_s_065.jpg,NA,NA,unpleasant,pleasant,NA,NA,NA,NA,NA,right,2480.10000000894,true,NA,NA,NA,NA,NA
H5MhNoDh,33tgb4g0msu3alll9rtp1nk6wbyxtf,3z7vu45ip2uttg7lzs22hmdeec31z2,H5MhNoDh,2020-0188,2021-10-15,16:03:29,17:33:27,NA,incomplete,false,true,NA,1,5,NA,green,m_l_111.jpg,NA,NA,pleasant,unpleasant,NA,NA,NA,NA,NA,left,2077.20000000298,true,NA,NA,NA,NA,NA
H5MhNoDh,33tgb4g0msu3alll9rtp1nk6wbyxtf,3z7vu45ip2uttg7lzs22hmdeec31z2,H5MhNoDh,2020-0188,2021-10-15,16:03:29,17:33:27,NA,incomplete,false,true,NA,1,6,NA,white,n_s_117.jpg,NA,NA,unpleasant,pleasant,NA,NA,NA,NA,NA,left,2111.5,true,NA,NA,NA,NA,NA
H5MhNoDh,33tgb4g0msu3alll9rtp1nk6wbyxtf,3z7vu45ip2uttg7lzs22hmdeec31z2,H5MhNoDh,2020-0188,2021-10-15,16:03:29,17:33:27,NA,incomplete,false,true,NA,1,7,NA,white,n_s_053.jpg,NA,NA,unpleasant,pleasant,NA,NA,NA,NA,NA,left,2071.5,true,NA,NA,NA,NA,NA
H5MhNoDh,33tgb4g0msu3alll9rtp1nk6wbyxtf,3z7vu45ip2uttg7lzs22hmdeec31z2,H5MhNoDh,2020-0188,2021-10-15,16:03:29,17:33:27,NA,incomplete,false,true,NA,1,8,NA,white,m_l_016.jpg,NA,NA,unpleasant,pleasant,NA,NA,NA,NA,NA,right,1156.10000000894,true,NA,NA,NA,NA,NA
H5MhNoDh,33tgb4g0msu3alll9rtp1nk6wbyxtf,3z7vu45ip2uttg7lzs22hmdeec31z2,H5MhNoDh,2020-0188,2021-10-15,16:03:29,17:33:27,NA,incomplete,false,true,NA,1,9,NA,white,m_l_015.jpg,NA,NA,unpleasant,pleasant,NA,NA,NA,NA,NA,right,2242.60000000894,true,NA,NA,NA,NA,NA
H5MhNoDh,33tgb4g0msu3alll9rtp1nk6wbyxtf,3z7vu45ip2uttg7lzs22hmdeec31z2,H5MhNoDh,2020-0188,2021-10-15,16:03:29,17:33:27,NA,incomplete,false,true,NA,1,10,NA,white,m_l_081.jpg,NA,NA,unpleasant,pleasant,NA,NA,NA,NA,NA,right,1474.60000000894,true,NA,NA,NA,NA,NA
H5MhNoDh,33tgb4g0msu3alll9rtp1nk6wbyxtf,3z7vu45ip2uttg7lzs22hmdeec31z2,H5MhNoDh,2020-0188,2021-10-15,16:03:29,17:33:27,NA,incomplete,false,true,NA,1,11,NA,white,n_s_044.jpg,NA,NA,unpleasant,pleasant,NA,NA,NA,NA,NA,right,1663.39999999106,true,NA,NA,NA,NA,NA
H5MhNoDh,33tgb4g0msu3alll9rtp1nk6wbyxtf,3z7vu45ip2uttg7lzs22hmdeec31z2,H5MhNoDh,2020-0188,2021-10-15,16:03:29,17:33:27,NA,incomplete,false,true,NA,1,12,NA,gray,m_l_079.jpg,NA,NA,unpleasant,pleasant,NA,NA,NA,NA,NA,left,2370.29999999702,true,NA,NA,NA,NA,NA
H5MhNoDh,33tgb4g0msu3alll9rtp1nk6wbyxtf,3z7vu45ip2uttg7lzs22hmdeec31z2,H5MhNoDh,2020-0188,2021-10-15,16:03:29,17:33:27,NA,incomplete,false,true,NA,1,13,NA,gray,m_l_064.jpg,NA,NA,pleasant,unpleasant,NA,NA,NA,NA,NA,left,1413.40000000596,true,NA,NA,NA,NA,NA
H5MhNoDh,33tgb4g0msu3alll9rtp1nk6wbyxtf,3z7vu45ip2uttg7lzs22hmdeec31z2,H5MhNoDh,2020-0188,2021-10-15,16:03:29,17:33:27,NA,incomplete,false,true,NA,1,14,NA,gray,n_s_093.jpg,NA,NA,pleasant,unpleasant,NA,NA,NA,NA,NA,right,1489.59999999404,true,NA,NA,NA,NA,NA
H5MhNoDh,33tgb4g0msu3alll9rtp1nk6wbyxtf,3z7vu45ip2uttg7lzs22hmdeec31z2,H5MhNoDh,2020-0188,2021-10-15,16:03:29,17:33:27,NA,incomplete,false,true,NA,1,15,NA,gray,n_l_113.jpg,NA,NA,unpleasant,pleasant,NA,NA,NA,NA,NA,right,1783.79999999702,true,NA,NA,NA,NA,NA
H5MhNoDh,33tgb4g0msu3alll9rtp1nk6wbyxtf,3z7vu45ip2uttg7lzs22hmdeec31z2,H5MhNoDh,2020-0188,2021-10-15,16:03:29,17:33:27,NA,incomplete,false,true,NA,1,16,NA,gray,n_s_101.jpg,NA,NA,unpleasant,pleasant,NA,NA,NA,NA,NA,left,1678.40000000596,true,NA,NA,NA,NA,NA
H5MhNoDh,33tgb4g0msu3alll9rtp1nk6wbyxtf,3z7vu45ip2uttg7lzs22hmdeec31z2,H5MhNoDh,2020-0188,2021-10-15,16:03:29,17:33:27,NA,incomplete,false,true,NA,1,17,NA,gray,n_l_107.jpg,NA,NA,pleasant,unpleasant,NA,NA,NA,NA,NA,left,1737.20000000298,true,NA,NA,NA,NA,NA
H5MhNoDh,33tgb4g0msu3alll9rtp1nk6wbyxtf,3z7vu45ip2uttg7lzs22hmdeec31z2,H5MhNoDh,2020-0188,2021-10-15,16:03:29,17:33:27,NA,incomplete,false,true,NA,1,18,NA,yellow,n_l_065.jpg,NA,NA,pleasant,unpleasant,NA,NA,NA,NA,NA,left,1477.09999999404,true,NA,NA,NA,NA,NA
H5MhNoDh,33tgb4g0msu3alll9rtp1nk6wbyxtf,3z7vu45ip2uttg7lzs22hmdeec31z2,H5MhNoDh,2020-0188,2021-10-15,16:03:29,17:33:27,NA,incomplete,false,true,NA,1,19,NA,yellow,n_l_101.jpg,NA,NA,unpleasant,pleasant,NA,NA,NA,NA,NA,left,2617,true,NA,NA,NA,NA,NA
H5MhNoDh,33tgb4g0msu3alll9rtp1nk6wbyxtf,3z7vu45ip2uttg7lzs22hmdeec31z2,H5MhNoDh,2020-0188,2021-10-15,16:03:29,17:33:27,NA,incomplete,false,true,NA,1,20,NA,yellow,m_l_010.jpg,NA,NA,pleasant,unpleasant,NA,NA,NA,NA,NA,left,2075.20000000298,true,NA,NA,NA,NA,NA
H5MhNoDh,33tgb4g0msu3alll9rtp1nk6wbyxtf,3z7vu45ip2uttg7lzs22hmdeec31z2,H5MhNoDh,2020-0188,2021-10-15,16:03:29,17:33:27,NA,incomplete,false,true,NA,1,21,NA,yellow,n_l_083.jpg,NA,NA,pleasant,unpleasant,NA,NA,NA,NA,NA,left,1936.20000000298,true,NA,NA,NA,NA,NA
H5MhNoDh,33tgb4g0msu3alll9rtp1nk6wbyxtf,3z7vu45ip2uttg7lzs22hmdeec31z2,H5MhNoDh,2020-0188,2021-10-15,16:03:29,17:33:27,NA,incomplete,false,true,NA,1,22,NA,yellow,m_s_008.jpg,NA,NA,pleasant,unpleasant,NA,NA,NA,NA,NA,left,2346.30000001192,true,NA,NA,NA,NA,NA
H5MhNoDh,33tgb4g0msu3alll9rtp1nk6wbyxtf,3z7vu45ip2uttg7lzs22hmdeec31z2,H5MhNoDh,2020-0188,2021-10-15,16:03:29,17:33:27,NA,incomplete,false,true,NA,1,23,NA,yellow,n_l_030.jpg,NA,NA,pleasant,unpleasant,NA,NA,NA,NA,NA,left,1142.90000000596,true,NA,NA,NA,NA,NA
H5MhNoDh,33tgb4g0msu3alll9rtp1nk6wbyxtf,3z7vu45ip2uttg7lzs22hmdeec31z2,H5MhNoDh,2020-0188,2021-10-15,16:03:29,17:33:27,NA,incomplete,false,true,NA,1,24,NA,orange,m_l_022.jpg,NA,NA,unpleasant,pleasant,NA,NA,NA,NA,NA,right,2398.5,true,NA,NA,NA,NA,NA
H5MhNoDh,33tgb4g0msu3alll9rtp1nk6wbyxtf,3z7vu45ip2uttg7lzs22hmdeec31z2,H5MhNoDh,2020-0188,2021-10-15,16:03:29,17:33:27,NA,incomplete,false,true,NA,1,25,NA,orange,m_l_072.jpg,NA,NA,pleasant,unpleasant,NA,NA,NA,NA,NA,left,1728.60000000894,true,NA,NA,NA,NA,NA
H5MhNoDh,33tgb4g0msu3alll9rtp1nk6wbyxtf,3z7vu45ip2uttg7lzs22hmdeec31z2,H5MhNoDh,2020-0188,2021-10-15,16:03:29,17:33:27,NA,incomplete,false,true,NA,1,26,NA,orange,m_s_009.jpg,NA,NA,pleasant,unpleasant,NA,NA,NA,NA,NA,left,2035.79999999702,true,NA,NA,NA,NA,NA
H5MhNoDh,33tgb4g0msu3alll9rtp1nk6wbyxtf,3z7vu45ip2uttg7lzs22hmdeec31z2,H5MhNoDh,2020-0188,2021-10-15,16:03:29,17:33:27,NA,incomplete,false,true,NA,1,27,NA,orange,m_l_089.jpg,NA,NA,unpleasant,pleasant,NA,NA,NA,NA,NA,left,2272.90000000596,true,NA,NA,NA,NA,NA
H5MhNoDh,33tgb4g0msu3alll9rtp1nk6wbyxtf,3z7vu45ip2uttg7lzs22hmdeec31z2,H5MhNoDh,2020-0188,2021-10-15,16:03:29,17:33:27,NA,incomplete,false,true,NA,1,28,NA,orange,m_l_077.jpg,NA,NA,unpleasant,pleasant,NA,NA,NA,NA,NA,left,1989,true,NA,NA,NA,NA,NA
H5MhNoDh,33tgb4g0msu3alll9rtp1nk6wbyxtf,3z7vu45ip2uttg7lzs22hmdeec31z2,H5MhNoDh,2020-0188,2021-10-15,16:03:29,17:33:27,NA,incomplete,false,true,NA,1,29,NA,orange,n_l_039.jpg,NA,NA,pleasant,unpleasant,NA,NA,NA,NA,NA,left,1377.59999999404,true,NA,NA,NA,NA,NA
H5MhNoDh,33tgb4g0msu3alll9rtp1nk6wbyxtf,3z7vu45ip2uttg7lzs22hmdeec31z2,H5MhNoDh,2020-0188,2021-10-15,16:03:29,17:33:27,NA,incomplete,false,true,NA,1,30,NA,red,n_s_036.jpg,NA,NA,pleasant,unpleasant,NA,NA,NA,NA,NA,left,1364.09999999404,true,NA,NA,NA,NA,NA
H5MhNoDh,33tgb4g0msu3alll9rtp1nk6wbyxtf,3z7vu45ip2uttg7lzs22hmdeec31z2,H5MhNoDh,2020-0188,2021-10-15,16:03:29,17:33:27,NA,incomplete,false,true,NA,1,31,NA,red,n_s_082.jpg,NA,NA,pleasant,unpleasant,NA,NA,NA,NA,NA,left,2144,true,NA,NA,NA,NA,NA
H5MhNoDh,33tgb4g0msu3alll9rtp1nk6wbyxtf,3z7vu45ip2uttg7lzs22hmdeec31z2,H5MhNoDh,2020-0188,2021-10-15,16:03:29,17:33:27,NA,incomplete,false,true,NA,1,32,NA,red,m_l_036.jpg,NA,NA,unpleasant,pleasant,NA,NA,NA,NA,NA,right,2241.79999999702,true,NA,NA,NA,NA,NA
H5MhNoDh,33tgb4g0msu3alll9rtp1nk6wbyxtf,3z7vu45ip2uttg7lzs22hmdeec31z2,H5MhNoDh,2020-0188,2021-10-15,16:03:29,17:33:27,NA,incomplete,false,true,NA,1,33,NA,red,n_s_019.jpg,NA,NA,pleasant,unpleasant,NA,NA,NA,NA,NA,left,1367.79999999702,true,NA,NA,NA,NA,NA
H5MhNoDh,33tgb4g0msu3alll9rtp1nk6wbyxtf,3z7vu45ip2uttg7lzs22hmdeec31z2,H5MhNoDh,2020-0188,2021-10-15,16:03:29,17:33:27,NA,incomplete,false,true,NA,1,34,NA,red,m_s_028.jpg,NA,NA,unpleasant,pleasant,NA,NA,NA,NA,NA,right,1935.89999999106,true,NA,NA,NA,NA,NA
H5MhNoDh,33tgb4g0msu3alll9rtp1nk6wbyxtf,3z7vu45ip2uttg7lzs22hmdeec31z2,H5MhNoDh,2020-0188,2021-10-15,16:03:29,17:33:27,NA,incomplete,false,true,NA,1,35,NA,red,m_l_025.jpg,NA,NA,pleasant,unpleasant,NA,NA,NA,NA,NA,left,1368.20000000298,true,NA,NA,NA,NA,NA
H5MhNoDh,33tgb4g0msu3alll9rtp1nk6wbyxtf,3z7vu45ip2uttg7lzs22hmdeec31z2,H5MhNoDh,2020-0188,2021-10-15,16:03:29,17:33:27,NA,incomplete,false,NA,true,1,0,NA,NA,NA,left,present,NA,NA,m_l_072.jpg,orange,n_l_039.jpg,orange,within,NA,NaN,NA,left,4518,1,0,2133.3999999910593
H5MhNoDh,33tgb4g0msu3alll9rtp1nk6wbyxtf,3z7vu45ip2uttg7lzs22hmdeec31z2,H5MhNoDh,2020-0188,2021-10-15,16:03:29,17:33:27,NA,incomplete,false,NA,true,1,1,NA,NA,NA,left,present,NA,NA,m_l_081.jpg,white,n_s_093.jpg,gray,between,NA,NaN,NA,left,2890.9000000059605,1,1,4487.70000000298
H5MhNoDh,33tgb4g0msu3alll9rtp1nk6wbyxtf,3z7vu45ip2uttg7lzs22hmdeec31z2,H5MhNoDh,2020-0188,2021-10-15,16:03:29,17:33:27,NA,incomplete,false,NA,true,1,2,NA,NA,NA,right,present,NA,NA,m_l_016.jpg,white,n_s_065.jpg,green,between,NA,NaN,NA,right,4953.100000008941,1,1,3083.0999999940395
H5MhNoDh,33tgb4g0msu3alll9rtp1nk6wbyxtf,3z7vu45ip2uttg7lzs22hmdeec31z2,H5MhNoDh,2020-0188,2021-10-15,16:03:29,17:33:27,NA,incomplete,false,NA,true,1,3,NA,NA,NA,right,present,NA,NA,m_s_009.jpg,orange,m_s_008.jpg,yellow,between,NA,NaN,NA,right,4899.199999988079,1,1,5398.4000000059605
H5MhNoDh,33tgb4g0msu3alll9rtp1nk6wbyxtf,3z7vu45ip2uttg7lzs22hmdeec31z2,H5MhNoDh,2020-0188,2021-10-15,16:03:29,17:33:27,NA,incomplete,false,NA,true,1,4,NA,NA,NA,right,present,NA,NA,m_l_111.jpg,green,m_s_111.jpg,green,within,NA,NaN,NA,left,8779.20000000298,0,0,1953.7000000029802
H5MhNoDh,33tgb4g0msu3alll9rtp1nk6wbyxtf,3z7vu45ip2uttg7lzs22hmdeec31z2,H5MhNoDh,2020-0188,2021-10-15,16:03:29,17:33:27,NA,incomplete,false,NA,true,1,5,NA,NA,NA,right,present,NA,NA,m_l_010.jpg,yellow,n_s_101.jpg,gray,between,NA,NaN,NA,right,3162.2000000029802,1,1,5695
H5MhNoDh,33tgb4g0msu3alll9rtp1nk6wbyxtf,3z7vu45ip2uttg7lzs22hmdeec31z2,H5MhNoDh,2020-0188,2021-10-15,16:03:29,17:33:27,NA,incomplete,false,NA,true,1,6,NA,NA,NA,left,present,NA,NA,m_l_064.jpg,gray,n_l_107.jpg,gray,within,NA,NaN,NA,right,3707.0999999940395,0,0,2424.199999988079
H5MhNoDh,33tgb4g0msu3alll9rtp1nk6wbyxtf,3z7vu45ip2uttg7lzs22hmdeec31z2,H5MhNoDh,2020-0188,2021-10-15,16:03:29,17:33:27,NA,incomplete,false,NA,true,1,7,NA,NA,NA,left,present,NA,NA,n_l_101.jpg,yellow,n_l_030.jpg,yellow,within,NA,NaN,NA,left,3412.2000000029802,1,0,1523.800000011921
H5MhNoDh,33tgb4g0msu3alll9rtp1nk6wbyxtf,3z7vu45ip2uttg7lzs22hmdeec31z2,H5MhNoDh,2020-0188,2021-10-15,16:03:29,17:33:27,NA,incomplete,false,NA,true,1,8,NA,NA,NA,left,present,NA,NA,n_s_082.jpg,red,m_l_025.jpg,red,within,NA,NaN,NA,left,2805.5,1,0,1821.4000000059605
H5MhNoDh,33tgb4g0msu3alll9rtp1nk6wbyxtf,3z7vu45ip2uttg7lzs22hmdeec31z2,H5MhNoDh,2020-0188,2021-10-15,16:03:29,17:33:27,NA,incomplete,false,NA,true,1,9,NA,NA,NA,left,present,NA,NA,n_s_053.jpg,white,n_s_044.jpg,white,within,NA,NaN,NA,left,8845.20000000298,1,0,1922
H5MhNoDh,33tgb4g0msu3alll9rtp1nk6wbyxtf,3z7vu45ip2uttg7lzs22hmdeec31z2,H5MhNoDh,2020-0188,2021-10-15,16:03:29,17:33:27,NA,incomplete,false,NA,true,1,10,NA,NA,NA,right,present,NA,NA,m_l_036.jpg,red,m_l_077.jpg,orange,between,NA,NaN,NA,right,7976.79999999702,1,1,7986.79999999702
H5MhNoDh,33tgb4g0msu3alll9rtp1nk6wbyxtf,3z7vu45ip2uttg7lzs22hmdeec31z2,H5MhNoDh,2020-0188,2021-10-15,16:03:29,17:33:27,NA,incomplete,false,true,NA,2,0,NA,green,m_l_017.jpg,NA,NA,pleasant,unpleasant,NA,NA,NA,NA,NA,left,2426.20000000298,true,NA,NA,NA,NA,NA
H5MhNoDh,33tgb4g0msu3alll9rtp1nk6wbyxtf,3z7vu45ip2uttg7lzs22hmdeec31z2,H5MhNoDh,2020-0188,2021-10-15,16:03:29,17:33:27,NA,incomplete,false,true,NA,2,1,NA,green,m_s_045.jpg,NA,NA,unpleasant,pleasant,NA,NA,NA,NA,NA,right,1576.30000001192,true,NA,NA,NA,NA,NA
H5MhNoDh,33tgb4g0msu3alll9rtp1nk6wbyxtf,3z7vu45ip2uttg7lzs22hmdeec31z2,H5MhNoDh,2020-0188,2021-10-15,16:03:29,17:33:27,NA,incomplete,false,true,NA,2,2,NA,green,m_s_103.jpg,NA,NA,pleasant,unpleasant,NA,NA,NA,NA,NA,left,2199.90000000596,true,NA,NA,NA,NA,NA
H5MhNoDh,33tgb4g0msu3alll9rtp1nk6wbyxtf,3z7vu45ip2uttg7lzs22hmdeec31z2,H5MhNoDh,2020-0188,2021-10-15,16:03:29,17:33:27,NA,incomplete,false,true,NA,2,3,NA,green,m_s_114.jpg,NA,NA,pleasant,unpleasant,NA,NA,NA,NA,NA,left,1978.20000000298,true,NA,NA,NA,NA,NA
H5MhNoDh,33tgb4g0msu3alll9rtp1nk6wbyxtf,3z7vu45ip2uttg7lzs22hmdeec31z2,H5MhNoDh,2020-0188,2021-10-15,16:03:29,17:33:27,NA,incomplete,false,true,NA,2,4,NA,green,n_l_014.jpg,NA,NA,pleasant,unpleasant,NA,NA,NA,NA,NA,right,2021.40000000596,true,NA,NA,NA,NA,NA
H5MhNoDh,33tgb4g0msu3alll9rtp1nk6wbyxtf,3z7vu45ip2uttg7lzs22hmdeec31z2,H5MhNoDh,2020-0188,2021-10-15,16:03:29,17:33:27,NA,incomplete,false,true,NA,2,5,NA,green,n_l_028.jpg,NA,NA,pleasant,unpleasant,NA,NA,NA,NA,NA,left,1283.79999999702,true,NA,NA,NA,NA,NA
H5MhNoDh,33tgb4g0msu3alll9rtp1nk6wbyxtf,3z7vu45ip2uttg7lzs22hmdeec31z2,H5MhNoDh,2020-0188,2021-10-15,16:03:29,17:33:27,NA,incomplete,false,true,NA,2,6,NA,gray,n_l_104.jpg,NA,NA,pleasant,unpleasant,NA,NA,NA,NA,NA,right,2039.39999999106,true,NA,NA,NA,NA,NA
H5MhNoDh,33tgb4g0msu3alll9rtp1nk6wbyxtf,3z7vu45ip2uttg7lzs22hmdeec31z2,H5MhNoDh,2020-0188,2021-10-15,16:03:29,17:33:27,NA,incomplete,false,true,NA,2,7,NA,gray,n_s_100.jpg,NA,NA,pleasant,unpleasant,NA,NA,NA,NA,NA,left,1239.90000000596,true,NA,NA,NA,NA,NA
H5MhNoDh,33tgb4g0msu3alll9rtp1nk6wbyxtf,3z7vu45ip2uttg7lzs22hmdeec31z2,H5MhNoDh,2020-0188,2021-10-15,16:03:29,17:33:27,NA,incomplete,false,true,NA,2,8,NA,gray,m_s_101.jpg,NA,NA,pleasant,unpleasant,NA,NA,NA,NA,NA,left,2214.5,true,NA,NA,NA,NA,NA
H5MhNoDh,33tgb4g0msu3alll9rtp1nk6wbyxtf,3z7vu45ip2uttg7lzs22hmdeec31z2,H5MhNoDh,2020-0188,2021-10-15,16:03:29,17:33:27,NA,incomplete,false,true,NA,2,9,NA,gray,n_l_088.jpg,NA,NA,pleasant,unpleasant,NA,NA,NA,NA,NA,left,1464.19999998808,true,NA,NA,NA,NA,NA
H5MhNoDh,33tgb4g0msu3alll9rtp1nk6wbyxtf,3z7vu45ip2uttg7lzs22hmdeec31z2,H5MhNoDh,2020-0188,2021-10-15,16:03:29,17:33:27,NA,incomplete,false,true,NA,2,10,NA,gray,m_l_090.jpg,NA,NA,unpleasant,pleasant,NA,NA,NA,NA,NA,left,2289.79999999702,true,NA,NA,NA,NA,NA
H5MhNoDh,33tgb4g0msu3alll9rtp1nk6wbyxtf,3z7vu45ip2uttg7lzs22hmdeec31z2,H5MhNoDh,2020-0188,2021-10-15,16:03:29,17:33:27,NA,incomplete,false,true,NA,2,11,NA,gray,m_l_076.jpg,NA,NA,pleasant,unpleasant,NA,NA,NA,NA,NA,left,1626.80000001192,true,NA,NA,NA,NA,NA
H5MhNoDh,33tgb4g0msu3alll9rtp1nk6wbyxtf,3z7vu45ip2uttg7lzs22hmdeec31z2,H5MhNoDh,2020-0188,2021-10-15,16:03:29,17:33:27,NA,incomplete,false,true,NA,2,12,NA,blue,m_l_105.jpg,NA,NA,unpleasant,pleasant,NA,NA,NA,NA,NA,right,1997.29999999702,true,NA,NA,NA,NA,NA
H5MhNoDh,33tgb4g0msu3alll9rtp1nk6wbyxtf,3z7vu45ip2uttg7lzs22hmdeec31z2,H5MhNoDh,2020-0188,2021-10-15,16:03:29,17:33:27,NA,incomplete,false,true,NA,2,13,NA,blue,n_l_114.jpg,NA,NA,unpleasant,pleasant,NA,NA,NA,NA,NA,left,2071.60000000894,true,NA,NA,NA,NA,NA
H5MhNoDh,33tgb4g0msu3alll9rtp1nk6wbyxtf,3z7vu45ip2uttg7lzs22hmdeec31z2,H5MhNoDh,2020-0188,2021-10-15,16:03:29,17:33:27,NA,incomplete,false,true,NA,2,14,NA,blue,n_s_052.jpg,NA,NA,pleasant,unpleasant,NA,NA,NA,NA,NA,left,1474.79999999702,true,NA,NA,NA,NA,NA
H5MhNoDh,33tgb4g0msu3alll9rtp1nk6wbyxtf,3z7vu45ip2uttg7lzs22hmdeec31z2,H5MhNoDh,2020-0188,2021-10-15,16:03:29,17:33:27,NA,incomplete,false,true,NA,2,15,NA,blue,n_s_057.jpg,NA,NA,pleasant,unpleasant,NA,NA,NA,NA,NA,right,1878.60000000894,true,NA,NA,NA,NA,NA
H5MhNoDh,33tgb4g0msu3alll9rtp1nk6wbyxtf,3z7vu45ip2uttg7lzs22hmdeec31z2,H5MhNoDh,2020-0188,2021-10-15,16:03:29,17:33:27,NA,incomplete,false,true,NA,2,16,NA,blue,m_l_007.jpg,NA,NA,pleasant,unpleasant,NA,NA,NA,NA,NA,left,1517.5,true,NA,NA,NA,NA,NA
H5MhNoDh,33tgb4g0msu3alll9rtp1nk6wbyxtf,3z7vu45ip2uttg7lzs22hmdeec31z2,H5MhNoDh,2020-0188,2021-10-15,16:03:29,17:33:27,NA,incomplete,false,true,NA,2,17,NA,blue,n_l_006.jpg,NA,NA,pleasant,unpleasant,NA,NA,NA,NA,NA,left,1144.29999999702,true,NA,NA,NA,NA,NA
H5MhNoDh,33tgb4g0msu3alll9rtp1nk6wbyxtf,3z7vu45ip2uttg7lzs22hmdeec31z2,H5MhNoDh,2020-0188,2021-10-15,16:03:29,17:33:27,NA,incomplete,false,true,NA,2,18,NA,orange,m_s_022.jpg,NA,NA,pleasant,unpleasant,NA,NA,NA,NA,NA,left,2113.5,true,NA,NA,NA,NA,NA
H5MhNoDh,33tgb4g0msu3alll9rtp1nk6wbyxtf,3z7vu45ip2uttg7lzs22hmdeec31z2,H5MhNoDh,2020-0188,2021-10-15,16:03:29,17:33:27,NA,incomplete,false,true,NA,2,19,NA,orange,n_s_112.jpg,NA,NA,pleasant,unpleasant,NA,NA,NA,NA,NA,left,1143.29999999702,true,NA,NA,NA,NA,NA
H5MhNoDh,33tgb4g0msu3alll9rtp1nk6wbyxtf,3z7vu45ip2uttg7lzs22hmdeec31z2,H5MhNoDh,2020-0188,2021-10-15,16:03:29,17:33:27,NA,incomplete,false,true,NA,2,20,NA,orange,n_l_110.jpg,NA,NA,pleasant,unpleasant,NA,NA,NA,NA,NA,left,1778.39999999106,true,NA,NA,NA,NA,NA
H5MhNoDh,33tgb4g0msu3alll9rtp1nk6wbyxtf,3z7vu45ip2uttg7lzs22hmdeec31z2,H5MhNoDh,2020-0188,2021-10-15,16:03:29,17:33:27,NA,incomplete,false,true,NA,2,21,NA,orange,m_l_085.jpg,NA,NA,pleasant,unpleasant,NA,NA,NA,NA,NA,left,2223.70000000298,true,NA,NA,NA,NA,NA
H5MhNoDh,33tgb4g0msu3alll9rtp1nk6wbyxtf,3z7vu45ip2uttg7lzs22hmdeec31z2,H5MhNoDh,2020-0188,2021-10-15,16:03:29,17:33:27,NA,incomplete,false,true,NA,2,22,NA,orange,n_l_049.jpg,NA,NA,unpleasant,pleasant,NA,NA,NA,NA,NA,right,1320.89999999106,true,NA,NA,NA,NA,NA
H5MhNoDh,33tgb4g0msu3alll9rtp1nk6wbyxtf,3z7vu45ip2uttg7lzs22hmdeec31z2,H5MhNoDh,2020-0188,2021-10-15,16:03:29,17:33:27,NA,incomplete,false,true,NA,2,23,NA,orange,m_s_091.jpg,NA,NA,unpleasant,pleasant,NA,NA,NA,NA,NA,right,1265.89999999106,true,NA,NA,NA,NA,NA
H5MhNoDh,33tgb4g0msu3alll9rtp1nk6wbyxtf,3z7vu45ip2uttg7lzs22hmdeec31z2,H5MhNoDh,2020-0188,2021-10-15,16:03:29,17:33:27,NA,incomplete,false,true,NA,2,24,NA,white,n_l_072.jpg,NA,NA,pleasant,unpleasant,NA,NA,NA,NA,NA,right,1760,true,NA,NA,NA,NA,NA
H5MhNoDh,33tgb4g0msu3alll9rtp1nk6wbyxtf,3z7vu45ip2uttg7lzs22hmdeec31z2,H5MhNoDh,2020-0188,2021-10-15,16:03:29,17:33:27,NA,incomplete,false,true,NA,2,25,NA,white,m_s_112.jpg,NA,NA,pleasant,unpleasant,NA,NA,NA,NA,NA,left,1275.40000000596,true,NA,NA,NA,NA,NA
H5MhNoDh,33tgb4g0msu3alll9rtp1nk6wbyxtf,3z7vu45ip2uttg7lzs22hmdeec31z2,H5MhNoDh,2020-0188,2021-10-15,16:03:29,17:33:27,NA,incomplete,false,true,NA,2,26,NA,white,m_l_035.jpg,NA,NA,unpleasant,pleasant,NA,NA,NA,NA,NA,right,1813,true,NA,NA,NA,NA,NA
H5MhNoDh,33tgb4g0msu3alll9rtp1nk6wbyxtf,3z7vu45ip2uttg7lzs22hmdeec31z2,H5MhNoDh,2020-0188,2021-10-15,16:03:29,17:33:27,NA,incomplete,false,true,NA,2,27,NA,white,n_l_020.jpg,NA,NA,pleasant,unpleasant,NA,NA,NA,NA,NA,left,1469.80000001192,true,NA,NA,NA,NA,NA
H5MhNoDh,33tgb4g0msu3alll9rtp1nk6wbyxtf,3z7vu45ip2uttg7lzs22hmdeec31z2,H5MhNoDh,2020-0188,2021-10-15,16:03:29,17:33:27,NA,incomplete,false,true,NA,2,28,NA,white,n_s_070.jpg,NA,NA,unpleasant,pleasant,NA,NA,NA,NA,NA,right,1535.60000000894,true,NA,NA,NA,NA,NA
H5MhNoDh,33tgb4g0msu3alll9rtp1nk6wbyxtf,3z7vu45ip2uttg7lzs22hmdeec31z2,H5MhNoDh,2020-0188,2021-10-15,16:03:29,17:33:27,NA,incomplete,false,true,NA,2,29,NA,white,m_l_031.jpg,NA,NA,unpleasant,pleasant,NA,NA,NA,NA,NA,right,1064.70000000298,true,NA,NA,NA,NA,NA
H5MhNoDh,33tgb4g0msu3alll9rtp1nk6wbyxtf,3z7vu45ip2uttg7lzs22hmdeec31z2,H5MhNoDh,2020-0188,2021-10-15,16:03:29,17:33:27,NA,incomplete,false,true,NA,2,30,NA,brown,m_s_034.jpg,NA,NA,pleasant,unpleasant,NA,NA,NA,NA,NA,right,2177.30000001192,true,NA,NA,NA,NA,NA
H5MhNoDh,33tgb4g0msu3alll9rtp1nk6wbyxtf,3z7vu45ip2uttg7lzs22hmdeec31z2,H5MhNoDh,2020-0188,2021-10-15,16:03:29,17:33:27,NA,incomplete,false,true,NA,2,31,NA,brown,n_s_069.jpg,NA,NA,unpleasant,pleasant,NA,NA,NA,NA,NA,right,1920.40000000596,true,NA,NA,NA,NA,NA
H5MhNoDh,33tgb4g0msu3alll9rtp1nk6wbyxtf,3z7vu45ip2uttg7lzs22hmdeec31z2,H5MhNoDh,2020-0188,2021-10-15,16:03:29,17:33:27,NA,incomplete,false,true,NA,2,32,NA,brown,n_s_097.jpg,NA,NA,unpleasant,pleasant,NA,NA,NA,NA,NA,right,2024.20000000298,true,NA,NA,NA,NA,NA
H5MhNoDh,33tgb4g0msu3alll9rtp1nk6wbyxtf,3z7vu45ip2uttg7lzs22hmdeec31z2,H5MhNoDh,2020-0188,2021-10-15,16:03:29,17:33:27,NA,incomplete,false,true,NA,2,33,NA,brown,m_s_086.jpg,NA,NA,pleasant,unpleasant,NA,NA,NA,NA,NA,left,2327.90000000596,true,NA,NA,NA,NA,NA
H5MhNoDh,33tgb4g0msu3alll9rtp1nk6wbyxtf,3z7vu45ip2uttg7lzs22hmdeec31z2,H5MhNoDh,2020-0188,2021-10-15,16:03:29,17:33:27,NA,incomplete,false,true,NA,2,34,NA,brown,n_s_088.jpg,NA,NA,pleasant,unpleasant,NA,NA,NA,NA,NA,left,1898.10000000894,true,NA,NA,NA,NA,NA
H5MhNoDh,33tgb4g0msu3alll9rtp1nk6wbyxtf,3z7vu45ip2uttg7lzs22hmdeec31z2,H5MhNoDh,2020-0188,2021-10-15,16:03:29,17:33:27,NA,incomplete,false,true,NA,2,35,NA,brown,n_s_080.jpg,NA,NA,unpleasant,pleasant,NA,NA,NA,NA,NA,left,1450.70000000298,true,NA,NA,NA,NA,NA
H5MhNoDh,33tgb4g0msu3alll9rtp1nk6wbyxtf,3z7vu45ip2uttg7lzs22hmdeec31z2,H5MhNoDh,2020-0188,2021-10-15,16:03:29,17:33:27,NA,incomplete,false,NA,true,2,0,NA,NA,NA,right,present,NA,NA,m_l_076.jpg,gray,n_s_100.jpg,gray,within,NA,NaN,NA,right,11343.70000000298,1,0,2687.0999999940395
H5MhNoDh,33tgb4g0msu3alll9rtp1nk6wbyxtf,3z7vu45ip2uttg7lzs22hmdeec31z2,H5MhNoDh,2020-0188,2021-10-15,16:03:29,17:33:27,NA,incomplete,false,NA,true,2,1,NA,NA,NA,right,present,NA,NA,n_s_097.jpg,brown,n_s_070.jpg,white,between,NA,NaN,NA,right,4113.29999999702,1,2,3708.2999999970198
H5MhNoDh,33tgb4g0msu3alll9rtp1nk6wbyxtf,3z7vu45ip2uttg7lzs22hmdeec31z2,H5MhNoDh,2020-0188,2021-10-15,16:03:29,17:33:27,NA,incomplete,false,NA,true,2,2,NA,NA,NA,right,present,NA,NA,n_s_080.jpg,brown,n_s_069.jpg,brown,within,NA,NaN,NA,right,3776.7999999970198,1,0,2350.5
H5MhNoDh,33tgb4g0msu3alll9rtp1nk6wbyxtf,3z7vu45ip2uttg7lzs22hmdeec31z2,H5MhNoDh,2020-0188,2021-10-15,16:03:29,17:33:27,NA,incomplete,false,NA,true,2,3,NA,NA,NA,left,present,NA,NA,n_l_049.jpg,orange,m_l_035.jpg,white,between,NA,NaN,NA,right,10643.40000000596,0,1,1643.2000000029802
H5MhNoDh,33tgb4g0msu3alll9rtp1nk6wbyxtf,3z7vu45ip2uttg7lzs22hmdeec31z2,H5MhNoDh,2020-0188,2021-10-15,16:03:29,17:33:27,NA,incomplete,false,NA,true,2,4,NA,NA,NA,left,present,NA,NA,m_s_112.jpg,white,m_l_031.jpg,white,within,NA,NaN,NA,left,13708.5,1,0,2240.7999999970198
H5MhNoDh,33tgb4g0msu3alll9rtp1nk6wbyxtf,3z7vu45ip2uttg7lzs22hmdeec31z2,H5MhNoDh,2020-0188,2021-10-15,16:03:29,17:33:27,NA,incomplete,false,NA,true,2,5,NA,NA,NA,left,present,NA,NA,m_l_090.jpg,gray,n_s_052.jpg,blue,between,NA,NaN,NA,left,11076.699999988079,1,1,3402.300000011921
H5MhNoDh,33tgb4g0msu3alll9rtp1nk6wbyxtf,3z7vu45ip2uttg7lzs22hmdeec31z2,H5MhNoDh,2020-0188,2021-10-15,16:03:29,17:33:27,NA,incomplete,false,NA,true,2,6,NA,NA,NA,left,present,NA,NA,m_l_007.jpg,blue,n_l_110.jpg,orange,between,NA,NaN,NA,left,5944.20000000298,1,2,6933.0999999940395
H5MhNoDh,33tgb4g0msu3alll9rtp1nk6wbyxtf,3z7vu45ip2uttg7lzs22hmdeec31z2,H5MhNoDh,2020-0188,2021-10-15,16:03:29,17:33:27,NA,incomplete,false,NA,true,2,7,NA,NA,NA,right,present,NA,NA,n_l_028.jpg,green,m_s_045.jpg,green,within,NA,NaN,NA,left,9778.60000000894,0,0,2227.1000000089407
H5MhNoDh,33tgb4g0msu3alll9rtp1nk6wbyxtf,3z7vu45ip2uttg7lzs22hmdeec31z2,H5MhNoDh,2020-0188,2021-10-15,16:03:29,17:33:27,NA,incomplete,false,NA,true,2,8,NA,NA,NA,left,present,NA,NA,n_l_114.jpg,blue,n_l_006.jpg,blue,within,NA,NaN,NA,left,3775.800000011921,1,0,2002.800000011921
H5MhNoDh,33tgb4g0msu3alll9rtp1nk6wbyxtf,3z7vu45ip2uttg7lzs22hmdeec31z2,H5MhNoDh,2020-0188,2021-10-15,16:03:29,17:33:27,NA,incomplete,false,NA,true,2,9,NA,NA,NA,right,present,NA,NA,m_s_091.jpg,orange,n_s_112.jpg,orange,within,NA,NaN,NA,right,5632.20000000298,1,0,1954.300000011921
H5MhNoDh,33tgb4g0msu3alll9rtp1nk6wbyxtf,3z7vu45ip2uttg7lzs22hmdeec31z2,H5MhNoDh,2020-0188,2021-10-15,16:03:29,17:33:27,NA,incomplete,false,NA,true,2,10,NA,NA,NA,right,present,NA,NA,m_s_101.jpg,gray,n_l_014.jpg,green,between,NA,NaN,NA,right,3076.699999988079,1,0,1728
H5MhNoDh,33tgb4g0msu3alll9rtp1nk6wbyxtf,3z7vu45ip2uttg7lzs22hmdeec31z2,H5MhNoDh,2020-0188,2021-10-15,16:03:29,17:33:27,NA,incomplete,false,true,NA,3,0,NA,green,m_s_035.jpg,NA,NA,unpleasant,pleasant,NA,NA,NA,NA,NA,right,1468.40000000596,true,NA,NA,NA,NA,NA
H5MhNoDh,33tgb4g0msu3alll9rtp1nk6wbyxtf,3z7vu45ip2uttg7lzs22hmdeec31z2,H5MhNoDh,2020-0188,2021-10-15,16:03:29,17:33:27,NA,incomplete,false,true,NA,3,1,NA,green,n_s_072.jpg,NA,NA,pleasant,unpleasant,NA,NA,NA,NA,NA,left,1715.5,true,NA,NA,NA,NA,NA
H5MhNoDh,33tgb4g0msu3alll9rtp1nk6wbyxtf,3z7vu45ip2uttg7lzs22hmdeec31z2,H5MhNoDh,2020-0188,2021-10-15,16:03:29,17:33:27,NA,incomplete,false,true,NA,3,2,NA,green,m_s_023.jpg,NA,NA,unpleasant,pleasant,NA,NA,NA,NA,NA,right,1792.89999999106,true,NA,NA,NA,NA,NA
H5MhNoDh,33tgb4g0msu3alll9rtp1nk6wbyxtf,3z7vu45ip2uttg7lzs22hmdeec31z2,H5MhNoDh,2020-0188,2021-10-15,16:03:29,17:33:27,NA,incomplete,false,true,NA,3,3,NA,green,n_l_044.jpg,NA,NA,pleasant,unpleasant,NA,NA,NA,NA,NA,left,2306.59999999404,true,NA,NA,NA,NA,NA
H5MhNoDh,33tgb4g0msu3alll9rtp1nk6wbyxtf,3z7vu45ip2uttg7lzs22hmdeec31z2,H5MhNoDh,2020-0188,2021-10-15,16:03:29,17:33:27,NA,incomplete,false,true,NA,3,4,NA,green,n_l_112.jpg,NA,NA,unpleasant,pleasant,NA,NA,NA,NA,NA,right,1739.60000000894,true,NA,NA,NA,NA,NA
H5MhNoDh,33tgb4g0msu3alll9rtp1nk6wbyxtf,3z7vu45ip2uttg7lzs22hmdeec31z2,H5MhNoDh,2020-0188,2021-10-15,16:03:29,17:33:27,NA,incomplete,false,true,NA,3,5,NA,green,m_s_038.jpg,NA,NA,pleasant,unpleasant,NA,NA,NA,NA,NA,left,2140.89999999106,true,NA,NA,NA,NA,NA
H5MhNoDh,33tgb4g0msu3alll9rtp1nk6wbyxtf,3z7vu45ip2uttg7lzs22hmdeec31z2,H5MhNoDh,2020-0188,2021-10-15,16:03:29,17:33:27,NA,incomplete,false,true,NA,3,6,NA,white,n_l_086.jpg,NA,NA,unpleasant,pleasant,NA,NA,NA,NA,NA,right,1689.79999999702,true,NA,NA,NA,NA,NA
H5MhNoDh,33tgb4g0msu3alll9rtp1nk6wbyxtf,3z7vu45ip2uttg7lzs22hmdeec31z2,H5MhNoDh,2020-0188,2021-10-15,16:03:29,17:33:27,NA,incomplete,false,true,NA,3,7,NA,white,m_s_011.jpg,NA,NA,unpleasant,pleasant,NA,NA,NA,NA,NA,right,2032.09999999404,true,NA,NA,NA,NA,NA
H5MhNoDh,33tgb4g0msu3alll9rtp1nk6wbyxtf,3z7vu45ip2uttg7lzs22hmdeec31z2,H5MhNoDh,2020-0188,2021-10-15,16:03:29,17:33:27,NA,incomplete,false,true,NA,3,8,NA,white,n_s_058.jpg,NA,NA,unpleasant,pleasant,NA,NA,NA,NA,NA,left,2101.20000000298,true,NA,NA,NA,NA,NA
H5MhNoDh,33tgb4g0msu3alll9rtp1nk6wbyxtf,3z7vu45ip2uttg7lzs22hmdeec31z2,H5MhNoDh,2020-0188,2021-10-15,16:03:29,17:33:27,NA,incomplete,false,true,NA,3,9,NA,white,n_s_073.jpg,NA,NA,unpleasant,pleasant,NA,NA,NA,NA,NA,right,1500.59999999404,true,NA,NA,NA,NA,NA
H5MhNoDh,33tgb4g0msu3alll9rtp1nk6wbyxtf,3z7vu45ip2uttg7lzs22hmdeec31z2,H5MhNoDh,2020-0188,2021-10-15,16:03:29,17:33:27,NA,incomplete,false,true,NA,3,10,NA,white,m_l_115.jpg,NA,NA,unpleasant,pleasant,NA,NA,NA,NA,NA,right,1664.09999999404,true,NA,NA,NA,NA,NA
H5MhNoDh,33tgb4g0msu3alll9rtp1nk6wbyxtf,3z7vu45ip2uttg7lzs22hmdeec31z2,H5MhNoDh,2020-0188,2021-10-15,16:03:29,17:33:27,NA,incomplete,false,true,NA,3,11,NA,white,n_s_038.jpg,NA,NA,pleasant,unpleasant,NA,NA,NA,NA,NA,right,1543.19999998808,true,NA,NA,NA,NA,NA
H5MhNoDh,33tgb4g0msu3alll9rtp1nk6wbyxtf,3z7vu45ip2uttg7lzs22hmdeec31z2,H5MhNoDh,2020-0188,2021-10-15,16:03:29,17:33:27,NA,incomplete,false,true,NA,3,12,NA,brown,m_l_048.jpg,NA,NA,pleasant,unpleasant,NA,NA,NA,NA,NA,left,1164.19999998808,true,NA,NA,NA,NA,NA
H5MhNoDh,33tgb4g0msu3alll9rtp1nk6wbyxtf,3z7vu45ip2uttg7lzs22hmdeec31z2,H5MhNoDh,2020-0188,2021-10-15,16:03:29,17:33:27,NA,incomplete,false,true,NA,3,13,NA,brown,n_s_055.jpg,NA,NA,unpleasant,pleasant,NA,NA,NA,NA,NA,left,2653,true,NA,NA,NA,NA,NA
H5MhNoDh,33tgb4g0msu3alll9rtp1nk6wbyxtf,3z7vu45ip2uttg7lzs22hmdeec31z2,H5MhNoDh,2020-0188,2021-10-15,16:03:29,17:33:27,NA,incomplete,false,true,NA,3,14,NA,brown,m_l_045.jpg,NA,NA,unpleasant,pleasant,NA,NA,NA,NA,NA,left,1572.09999999404,true,NA,NA,NA,NA,NA
H5MhNoDh,33tgb4g0msu3alll9rtp1nk6wbyxtf,3z7vu45ip2uttg7lzs22hmdeec31z2,H5MhNoDh,2020-0188,2021-10-15,16:03:29,17:33:27,NA,incomplete,false,true,NA,3,15,NA,brown,m_s_087.jpg,NA,NA,pleasant,unpleasant,NA,NA,NA,NA,NA,left,1673.60000000894,true,NA,NA,NA,NA,NA
H5MhNoDh,33tgb4g0msu3alll9rtp1nk6wbyxtf,3z7vu45ip2uttg7lzs22hmdeec31z2,H5MhNoDh,2020-0188,2021-10-15,16:03:29,17:33:27,NA,incomplete,false,true,NA,3,16,NA,brown,m_s_055.jpg,NA,NA,unpleasant,pleasant,NA,NA,NA,NA,NA,left,2543.70000000298,true,NA,NA,NA,NA,NA
H5MhNoDh,33tgb4g0msu3alll9rtp1nk6wbyxtf,3z7vu45ip2uttg7lzs22hmdeec31z2,H5MhNoDh,2020-0188,2021-10-15,16:03:29,17:33:27,NA,incomplete,false,true,NA,3,17,NA,brown,m_s_107.jpg,NA,NA,pleasant,unpleasant,NA,NA,NA,NA,NA,right,2402.60000000894,true,NA,NA,NA,NA,NA
H5MhNoDh,33tgb4g0msu3alll9rtp1nk6wbyxtf,3z7vu45ip2uttg7lzs22hmdeec31z2,H5MhNoDh,2020-0188,2021-10-15,16:03:29,17:33:27,NA,incomplete,false,true,NA,3,18,NA,purple,m_l_087.jpg,NA,NA,unpleasant,pleasant,NA,NA,NA,NA,NA,right,2061.09999999404,true,NA,NA,NA,NA,NA
H5MhNoDh,33tgb4g0msu3alll9rtp1nk6wbyxtf,3z7vu45ip2uttg7lzs22hmdeec31z2,H5MhNoDh,2020-0188,2021-10-15,16:03:29,17:33:27,NA,incomplete,false,true,NA,3,19,NA,purple,n_l_015.jpg,NA,NA,unpleasant,pleasant,NA,NA,NA,NA,NA,right,1261.59999999404,true,NA,NA,NA,NA,NA
H5MhNoDh,33tgb4g0msu3alll9rtp1nk6wbyxtf,3z7vu45ip2uttg7lzs22hmdeec31z2,H5MhNoDh,2020-0188,2021-10-15,16:03:29,17:33:27,NA,incomplete,false,true,NA,3,20,NA,purple,m_s_006.jpg,NA,NA,unpleasant,pleasant,NA,NA,NA,NA,NA,right,1576.09999999404,true,NA,NA,NA,NA,NA
H5MhNoDh,33tgb4g0msu3alll9rtp1nk6wbyxtf,3z7vu45ip2uttg7lzs22hmdeec31z2,H5MhNoDh,2020-0188,2021-10-15,16:03:29,17:33:27,NA,incomplete,false,true,NA,3,21,NA,purple,m_s_104.jpg,NA,NA,unpleasant,pleasant,NA,NA,NA,NA,NA,right,1564.89999999106,true,NA,NA,NA,NA,NA
H5MhNoDh,33tgb4g0msu3alll9rtp1nk6wbyxtf,3z7vu45ip2uttg7lzs22hmdeec31z2,H5MhNoDh,2020-0188,2021-10-15,16:03:29,17:33:27,NA,incomplete,false,true,NA,3,22,NA,purple,m_s_069.jpg,NA,NA,pleasant,unpleasant,NA,NA,NA,NA,NA,left,1379.10000000894,true,NA,NA,NA,NA,NA
H5MhNoDh,33tgb4g0msu3alll9rtp1nk6wbyxtf,3z7vu45ip2uttg7lzs22hmdeec31z2,H5MhNoDh,2020-0188,2021-10-15,16:03:29,17:33:27,NA,incomplete,false,true,NA,3,23,NA,purple,m_s_076.jpg,NA,NA,pleasant,unpleasant,NA,NA,NA,NA,NA,left,1437.20000000298,true,NA,NA,NA,NA,NA
H5MhNoDh,33tgb4g0msu3alll9rtp1nk6wbyxtf,3z7vu45ip2uttg7lzs22hmdeec31z2,H5MhNoDh,2020-0188,2021-10-15,16:03:29,17:33:27,NA,incomplete,false,true,NA,3,24,NA,gray,n_s_066.jpg,NA,NA,pleasant,unpleasant,NA,NA,NA,NA,NA,left,1532.60000000894,true,NA,NA,NA,NA,NA
H5MhNoDh,33tgb4g0msu3alll9rtp1nk6wbyxtf,3z7vu45ip2uttg7lzs22hmdeec31z2,H5MhNoDh,2020-0188,2021-10-15,16:03:29,17:33:27,NA,incomplete,false,true,NA,3,25,NA,gray,m_l_047.jpg,NA,NA,pleasant,unpleasant,NA,NA,NA,NA,NA,left,2259.5,true,NA,NA,NA,NA,NA
H5MhNoDh,33tgb4g0msu3alll9rtp1nk6wbyxtf,3z7vu45ip2uttg7lzs22hmdeec31z2,H5MhNoDh,2020-0188,2021-10-15,16:03:29,17:33:27,NA,incomplete,false,true,NA,3,26,NA,gray,n_l_079.jpg,NA,NA,pleasant,unpleasant,NA,NA,NA,NA,NA,left,1600.20000000298,true,NA,NA,NA,NA,NA
H5MhNoDh,33tgb4g0msu3alll9rtp1nk6wbyxtf,3z7vu45ip2uttg7lzs22hmdeec31z2,H5MhNoDh,2020-0188,2021-10-15,16:03:29,17:33:27,NA,incomplete,false,true,NA,3,27,NA,gray,n_l_116.jpg,NA,NA,unpleasant,pleasant,NA,NA,NA,NA,NA,left,2482,true,NA,NA,NA,NA,NA
H5MhNoDh,33tgb4g0msu3alll9rtp1nk6wbyxtf,3z7vu45ip2uttg7lzs22hmdeec31z2,H5MhNoDh,2020-0188,2021-10-15,16:03:29,17:33:27,NA,incomplete,false,true,NA,3,28,NA,gray,m_s_036.jpg,NA,NA,pleasant,unpleasant,NA,NA,NA,NA,NA,left,1548.40000000596,true,NA,NA,NA,NA,NA
H5MhNoDh,33tgb4g0msu3alll9rtp1nk6wbyxtf,3z7vu45ip2uttg7lzs22hmdeec31z2,H5MhNoDh,2020-0188,2021-10-15,16:03:29,17:33:27,NA,incomplete,false,true,NA,3,29,NA,gray,n_s_092.jpg,NA,NA,unpleasant,pleasant,NA,NA,NA,NA,NA,right,1332.20000000298,true,NA,NA,NA,NA,NA
H5MhNoDh,33tgb4g0msu3alll9rtp1nk6wbyxtf,3z7vu45ip2uttg7lzs22hmdeec31z2,H5MhNoDh,2020-0188,2021-10-15,16:03:29,17:33:27,NA,incomplete,false,true,NA,3,30,NA,blue,m_s_012.jpg,NA,NA,pleasant,unpleasant,NA,NA,NA,NA,NA,left,2044.79999999702,true,NA,NA,NA,NA,NA
H5MhNoDh,33tgb4g0msu3alll9rtp1nk6wbyxtf,3z7vu45ip2uttg7lzs22hmdeec31z2,H5MhNoDh,2020-0188,2021-10-15,16:03:29,17:33:27,NA,incomplete,false,true,NA,3,31,NA,blue,m_l_097.jpg,NA,NA,pleasant,unpleasant,NA,NA,NA,NA,NA,left,1488.5,true,NA,NA,NA,NA,NA
H5MhNoDh,33tgb4g0msu3alll9rtp1nk6wbyxtf,3z7vu45ip2uttg7lzs22hmdeec31z2,H5MhNoDh,2020-0188,2021-10-15,16:03:29,17:33:27,NA,incomplete,false,true,NA,3,32,NA,blue,m_s_078.jpg,NA,NA,unpleasant,pleasant,NA,NA,NA,NA,NA,right,1961.70000000298,true,NA,NA,NA,NA,NA
H5MhNoDh,33tgb4g0msu3alll9rtp1nk6wbyxtf,3z7vu45ip2uttg7lzs22hmdeec31z2,H5MhNoDh,2020-0188,2021-10-15,16:03:29,17:33:27,NA,incomplete,false,true,NA,3,33,NA,blue,n_l_027.jpg,NA,NA,unpleasant,pleasant,NA,NA,NA,NA,NA,right,1090.5,true,NA,NA,NA,NA,NA
H5MhNoDh,33tgb4g0msu3alll9rtp1nk6wbyxtf,3z7vu45ip2uttg7lzs22hmdeec31z2,H5MhNoDh,2020-0188,2021-10-15,16:03:29,17:33:27,NA,incomplete,false,true,NA,3,34,NA,blue,m_s_100.jpg,NA,NA,unpleasant,pleasant,NA,NA,NA,NA,NA,right,1863.09999999404,true,NA,NA,NA,NA,NA
H5MhNoDh,33tgb4g0msu3alll9rtp1nk6wbyxtf,3z7vu45ip2uttg7lzs22hmdeec31z2,H5MhNoDh,2020-0188,2021-10-15,16:03:29,17:33:27,NA,incomplete,false,true,NA,3,35,NA,blue,n_l_032.jpg,NA,NA,pleasant,unpleasant,NA,NA,NA,NA,NA,left,2005.90000000596,true,NA,NA,NA,NA,NA
H5MhNoDh,33tgb4g0msu3alll9rtp1nk6wbyxtf,3z7vu45ip2uttg7lzs22hmdeec31z2,H5MhNoDh,2020-0188,2021-10-15,16:03:29,17:33:27,NA,incomplete,false,NA,true,3,0,NA,NA,NA,left,absent,NA,NA,m_s_069.jpg,purple,n_l_079.jpg,gray,between,NA,NaN,NA,left,5413.29999999702,1,0,2030.4000000059605
H5MhNoDh,33tgb4g0msu3alll9rtp1nk6wbyxtf,3z7vu45ip2uttg7lzs22hmdeec31z2,H5MhNoDh,2020-0188,2021-10-15,16:03:29,17:33:27,NA,incomplete,false,NA,true,3,1,NA,NA,NA,right,absent,NA,NA,m_s_078.jpg,blue,m_s_036.jpg,gray,between,NA,NaN,NA,right,11918.40000000596,1,0,2173.2000000029802
H5MhNoDh,33tgb4g0msu3alll9rtp1nk6wbyxtf,3z7vu45ip2uttg7lzs22hmdeec31z2,H5MhNoDh,2020-0188,2021-10-15,16:03:29,17:33:27,NA,incomplete,false,NA,true,3,2,NA,NA,NA,left,absent,NA,NA,n_l_015.jpg,purple,m_s_076.jpg,purple,within,NA,NaN,NA,left,7487.5999999940395,1,0,1984.7000000029802
H5MhNoDh,33tgb4g0msu3alll9rtp1nk6wbyxtf,3z7vu45ip2uttg7lzs22hmdeec31z2,H5MhNoDh,2020-0188,2021-10-15,16:03:29,17:33:27,NA,incomplete,false,NA,true,3,3,NA,NA,NA,left,absent,NA,NA,n_s_072.jpg,green,m_s_038.jpg,green,within,NA,NaN,NA,left,3312.2999999970198,1,0,3435.2000000029802
H5MhNoDh,33tgb4g0msu3alll9rtp1nk6wbyxtf,3z7vu45ip2uttg7lzs22hmdeec31z2,H5MhNoDh,2020-0188,2021-10-15,16:03:29,17:33:27,NA,incomplete,false,NA,true,3,4,NA,NA,NA,left,absent,NA,NA,m_l_097.jpg,blue,n_l_032.jpg,blue,within,NA,NaN,NA,right,27722.79999999702,0,1,3193.9000000059605
H5MhNoDh,33tgb4g0msu3alll9rtp1nk6wbyxtf,3z7vu45ip2uttg7lzs22hmdeec31z2,H5MhNoDh,2020-0188,2021-10-15,16:03:29,17:33:27,NA,incomplete,false,NA,true,3,5,NA,NA,NA,left,absent,NA,NA,m_s_011.jpg,white,n_s_038.jpg,white,within,NA,NaN,NA,left,5928.5,1,1,2033.3999999910593
H5MhNoDh,33tgb4g0msu3alll9rtp1nk6wbyxtf,3z7vu45ip2uttg7lzs22hmdeec31z2,H5MhNoDh,2020-0188,2021-10-15,16:03:29,17:33:27,NA,incomplete,false,NA,true,3,6,NA,NA,NA,left,absent,NA,NA,n_l_112.jpg,green,n_s_058.jpg,white,between,NA,NaN,NA,right,5095,0,1,7986.5999999940395
H5MhNoDh,33tgb4g0msu3alll9rtp1nk6wbyxtf,3z7vu45ip2uttg7lzs22hmdeec31z2,H5MhNoDh,2020-0188,2021-10-15,16:03:29,17:33:27,NA,incomplete,false,NA,true,3,7,NA,NA,NA,right,absent,NA,NA,m_s_006.jpg,purple,m_s_055.jpg,brown,between,NA,NaN,NA,left,3216.9000000059605,0,2,3326.699999988079
H5MhNoDh,33tgb4g0msu3alll9rtp1nk6wbyxtf,3z7vu45ip2uttg7lzs22hmdeec31z2,H5MhNoDh,2020-0188,2021-10-15,16:03:29,17:33:27,NA,incomplete,false,NA,true,3,8,NA,NA,NA,left,absent,NA,NA,m_l_115.jpg,white,m_l_045.jpg,brown,between,NA,NaN,NA,right,4097,0,1,5351.20000000298
H5MhNoDh,33tgb4g0msu3alll9rtp1nk6wbyxtf,3z7vu45ip2uttg7lzs22hmdeec31z2,H5MhNoDh,2020-0188,2021-10-15,16:03:29,17:33:27,NA,incomplete,false,NA,true,3,9,NA,NA,NA,left,absent,NA,NA,n_s_055.jpg,brown,m_s_107.jpg,brown,within,NA,NaN,NA,left,7261.100000008941,1,1,1955.0999999940395
H5MhNoDh,33tgb4g0msu3alll9rtp1nk6wbyxtf,3z7vu45ip2uttg7lzs22hmdeec31z2,H5MhNoDh,2020-0188,2021-10-15,16:03:29,17:33:27,NA,incomplete,false,NA,true,3,10,NA,NA,NA,right,absent,NA,NA,n_s_092.jpg,gray,m_l_047.jpg,gray,within,NA,NaN,NA,left,11764.90000000596,0,2,2786.4000000059605
H5MhNoDh,33tgb4g0msu3alll9rtp1nk6wbyxtf,3z7vu45ip2uttg7lzs22hmdeec31z2,H5MhNoDh,2020-0188,2021-10-15,16:03:29,17:33:27,NA,incomplete,false,true,NA,4,0,NA,green,m_l_042.jpg,NA,NA,pleasant,unpleasant,NA,NA,NA,NA,NA,left,1623.90000000596,true,NA,NA,NA,NA,NA
H5MhNoDh,33tgb4g0msu3alll9rtp1nk6wbyxtf,3z7vu45ip2uttg7lzs22hmdeec31z2,H5MhNoDh,2020-0188,2021-10-15,16:03:29,17:33:27,NA,incomplete,false,true,NA,4,1,NA,green,m_l_084.jpg,NA,NA,unpleasant,pleasant,NA,NA,NA,NA,NA,right,1847.10000000894,true,NA,NA,NA,NA,NA
H5MhNoDh,33tgb4g0msu3alll9rtp1nk6wbyxtf,3z7vu45ip2uttg7lzs22hmdeec31z2,H5MhNoDh,2020-0188,2021-10-15,16:03:29,17:33:27,NA,incomplete,false,true,NA,4,2,NA,green,n_s_104.jpg,NA,NA,unpleasant,pleasant,NA,NA,NA,NA,NA,right,1195.20000000298,true,NA,NA,NA,NA,NA
H5MhNoDh,33tgb4g0msu3alll9rtp1nk6wbyxtf,3z7vu45ip2uttg7lzs22hmdeec31z2,H5MhNoDh,2020-0188,2021-10-15,16:03:29,17:33:27,NA,incomplete,false,true,NA,4,3,NA,green,m_s_021.jpg,NA,NA,pleasant,unpleasant,NA,NA,NA,NA,NA,left,1450.70000000298,true,NA,NA,NA,NA,NA
H5MhNoDh,33tgb4g0msu3alll9rtp1nk6wbyxtf,3z7vu45ip2uttg7lzs22hmdeec31z2,H5MhNoDh,2020-0188,2021-10-15,16:03:29,17:33:27,NA,incomplete,false,true,NA,4,4,NA,green,m_l_058.jpg,NA,NA,unpleasant,pleasant,NA,NA,NA,NA,NA,left,2124.29999999702,true,NA,NA,NA,NA,NA
H5MhNoDh,33tgb4g0msu3alll9rtp1nk6wbyxtf,3z7vu45ip2uttg7lzs22hmdeec31z2,H5MhNoDh,2020-0188,2021-10-15,16:03:29,17:33:27,NA,incomplete,false,true,NA,4,5,NA,green,n_l_055.jpg,NA,NA,pleasant,unpleasant,NA,NA,NA,NA,NA,left,1433.40000000596,true,NA,NA,NA,NA,NA
H5MhNoDh,33tgb4g0msu3alll9rtp1nk6wbyxtf,3z7vu45ip2uttg7lzs22hmdeec31z2,H5MhNoDh,2020-0188,2021-10-15,16:03:29,17:33:27,NA,incomplete,false,true,NA,4,6,NA,red,n_l_102.jpg,NA,NA,pleasant,unpleasant,NA,NA,NA,NA,NA,left,1525.79999999702,true,NA,NA,NA,NA,NA
H5MhNoDh,33tgb4g0msu3alll9rtp1nk6wbyxtf,3z7vu45ip2uttg7lzs22hmdeec31z2,H5MhNoDh,2020-0188,2021-10-15,16:03:29,17:33:27,NA,incomplete,false,true,NA,4,7,NA,red,m_s_081.jpg,NA,NA,pleasant,unpleasant,NA,NA,NA,NA,NA,left,1999.59999999404,true,NA,NA,NA,NA,NA
H5MhNoDh,33tgb4g0msu3alll9rtp1nk6wbyxtf,3z7vu45ip2uttg7lzs22hmdeec31z2,H5MhNoDh,2020-0188,2021-10-15,16:03:29,17:33:27,NA,incomplete,false,true,NA,4,8,NA,red,n_l_089.jpg,NA,NA,pleasant,unpleasant,NA,NA,NA,NA,NA,left,1763.60000000894,true,NA,NA,NA,NA,NA
H5MhNoDh,33tgb4g0msu3alll9rtp1nk6wbyxtf,3z7vu45ip2uttg7lzs22hmdeec31z2,H5MhNoDh,2020-0188,2021-10-15,16:03:29,17:33:27,NA,incomplete,false,true,NA,4,9,NA,red,n_l_042.jpg,NA,NA,pleasant,unpleasant,NA,NA,NA,NA,NA,left,1160.10000000894,true,NA,NA,NA,NA,NA
H5MhNoDh,33tgb4g0msu3alll9rtp1nk6wbyxtf,3z7vu45ip2uttg7lzs22hmdeec31z2,H5MhNoDh,2020-0188,2021-10-15,16:03:29,17:33:27,NA,incomplete,false,true,NA,4,10,NA,red,m_l_018.jpg,NA,NA,pleasant,unpleasant,NA,NA,NA,NA,NA,left,2153.09999999404,true,NA,NA,NA,NA,NA
H5MhNoDh,33tgb4g0msu3alll9rtp1nk6wbyxtf,3z7vu45ip2uttg7lzs22hmdeec31z2,H5MhNoDh,2020-0188,2021-10-15,16:03:29,17:33:27,NA,incomplete,false,true,NA,4,11,NA,red,n_s_027.jpg,NA,NA,pleasant,unpleasant,NA,NA,NA,NA,NA,right,1883.89999999106,true,NA,NA,NA,NA,NA
H5MhNoDh,33tgb4g0msu3alll9rtp1nk6wbyxtf,3z7vu45ip2uttg7lzs22hmdeec31z2,H5MhNoDh,2020-0188,2021-10-15,16:03:29,17:33:27,NA,incomplete,false,true,NA,4,12,NA,white,m_l_050.jpg,NA,NA,unpleasant,pleasant,NA,NA,NA,NA,NA,left,2274.60000000894,true,NA,NA,NA,NA,NA
H5MhNoDh,33tgb4g0msu3alll9rtp1nk6wbyxtf,3z7vu45ip2uttg7lzs22hmdeec31z2,H5MhNoDh,2020-0188,2021-10-15,16:03:29,17:33:27,NA,incomplete,false,true,NA,4,13,NA,white,m_l_104.jpg,NA,NA,pleasant,unpleasant,NA,NA,NA,NA,NA,right,1409.69999998808,true,NA,NA,NA,NA,NA
H5MhNoDh,33tgb4g0msu3alll9rtp1nk6wbyxtf,3z7vu45ip2uttg7lzs22hmdeec31z2,H5MhNoDh,2020-0188,2021-10-15,16:03:29,17:33:27,NA,incomplete,false,true,NA,4,14,NA,white,n_l_082.jpg,NA,NA,unpleasant,pleasant,NA,NA,NA,NA,NA,right,2039.29999999702,true,NA,NA,NA,NA,NA
H5MhNoDh,33tgb4g0msu3alll9rtp1nk6wbyxtf,3z7vu45ip2uttg7lzs22hmdeec31z2,H5MhNoDh,2020-0188,2021-10-15,16:03:29,17:33:27,NA,incomplete,false,true,NA,4,15,NA,white,m_l_049.jpg,NA,NA,pleasant,unpleasant,NA,NA,NA,NA,NA,right,2416.09999999404,true,NA,NA,NA,NA,NA
H5MhNoDh,33tgb4g0msu3alll9rtp1nk6wbyxtf,3z7vu45ip2uttg7lzs22hmdeec31z2,H5MhNoDh,2020-0188,2021-10-15,16:03:29,17:33:27,NA,incomplete,false,true,NA,4,16,NA,white,n_l_087.jpg,NA,NA,pleasant,unpleasant,NA,NA,NA,NA,NA,left,1370.60000000894,true,NA,NA,NA,NA,NA
H5MhNoDh,33tgb4g0msu3alll9rtp1nk6wbyxtf,3z7vu45ip2uttg7lzs22hmdeec31z2,H5MhNoDh,2020-0188,2021-10-15,16:03:29,17:33:27,NA,incomplete,false,true,NA,4,17,NA,white,m_l_019.jpg,NA,NA,unpleasant,pleasant,NA,NA,NA,NA,NA,right,2202.40000000596,true,NA,NA,NA,NA,NA
H5MhNoDh,33tgb4g0msu3alll9rtp1nk6wbyxtf,3z7vu45ip2uttg7lzs22hmdeec31z2,H5MhNoDh,2020-0188,2021-10-15,16:03:29,17:33:27,NA,incomplete,false,true,NA,4,18,NA,black,n_s_002.jpg,NA,NA,pleasant,unpleasant,NA,NA,NA,NA,NA,left,2008.40000000596,true,NA,NA,NA,NA,NA
H5MhNoDh,33tgb4g0msu3alll9rtp1nk6wbyxtf,3z7vu45ip2uttg7lzs22hmdeec31z2,H5MhNoDh,2020-0188,2021-10-15,16:03:29,17:33:27,NA,incomplete,false,true,NA,4,19,NA,black,n_s_059.jpg,NA,NA,unpleasant,pleasant,NA,NA,NA,NA,NA,right,1591.19999998808,true,NA,NA,NA,NA,NA
H5MhNoDh,33tgb4g0msu3alll9rtp1nk6wbyxtf,3z7vu45ip2uttg7lzs22hmdeec31z2,H5MhNoDh,2020-0188,2021-10-15,16:03:29,17:33:27,NA,incomplete,false,true,NA,4,20,NA,black,m_l_098.jpg,NA,NA,pleasant,unpleasant,NA,NA,NA,NA,NA,left,1424.29999999702,true,NA,NA,NA,NA,NA
H5MhNoDh,33tgb4g0msu3alll9rtp1nk6wbyxtf,3z7vu45ip2uttg7lzs22hmdeec31z2,H5MhNoDh,2020-0188,2021-10-15,16:03:29,17:33:27,NA,incomplete,false,true,NA,4,21,NA,black,n_s_041.jpg,NA,NA,pleasant,unpleasant,NA,NA,NA,NA,NA,left,1932.09999999404,true,NA,NA,NA,NA,NA
H5MhNoDh,33tgb4g0msu3alll9rtp1nk6wbyxtf,3z7vu45ip2uttg7lzs22hmdeec31z2,H5MhNoDh,2020-0188,2021-10-15,16:03:29,17:33:27,NA,incomplete,false,true,NA,4,22,NA,black,n_l_056.jpg,NA,NA,pleasant,unpleasant,NA,NA,NA,NA,NA,left,1900.5,true,NA,NA,NA,NA,NA
H5MhNoDh,33tgb4g0msu3alll9rtp1nk6wbyxtf,3z7vu45ip2uttg7lzs22hmdeec31z2,H5MhNoDh,2020-0188,2021-10-15,16:03:29,17:33:27,NA,incomplete,false,true,NA,4,23,NA,black,m_l_074.jpg,NA,NA,unpleasant,pleasant,NA,NA,NA,NA,NA,right,1530.89999999106,true,NA,NA,NA,NA,NA
H5MhNoDh,33tgb4g0msu3alll9rtp1nk6wbyxtf,3z7vu45ip2uttg7lzs22hmdeec31z2,H5MhNoDh,2020-0188,2021-10-15,16:03:29,17:33:27,NA,incomplete,false,true,NA,4,24,NA,brown,n_s_091.jpg,NA,NA,pleasant,unpleasant,NA,NA,NA,NA,NA,right,2058.20000000298,true,NA,NA,NA,NA,NA
H5MhNoDh,33tgb4g0msu3alll9rtp1nk6wbyxtf,3z7vu45ip2uttg7lzs22hmdeec31z2,H5MhNoDh,2020-0188,2021-10-15,16:03:29,17:33:27,NA,incomplete,false,true,NA,4,25,NA,brown,n_l_070.jpg,NA,NA,pleasant,unpleasant,NA,NA,NA,NA,NA,left,2336,true,NA,NA,NA,NA,NA
H5MhNoDh,33tgb4g0msu3alll9rtp1nk6wbyxtf,3z7vu45ip2uttg7lzs22hmdeec31z2,H5MhNoDh,2020-0188,2021-10-15,16:03:29,17:33:27,NA,incomplete,false,true,NA,4,26,NA,brown,n_s_030.jpg,NA,NA,pleasant,unpleasant,NA,NA,NA,NA,NA,left,1756.79999999702,true,NA,NA,NA,NA,NA
H5MhNoDh,33tgb4g0msu3alll9rtp1nk6wbyxtf,3z7vu45ip2uttg7lzs22hmdeec31z2,H5MhNoDh,2020-0188,2021-10-15,16:03:29,17:33:27,NA,incomplete,false,true,NA,4,27,NA,brown,m_l_008.jpg,NA,NA,pleasant,unpleasant,NA,NA,NA,NA,NA,left,1565.70000000298,true,NA,NA,NA,NA,NA
H5MhNoDh,33tgb4g0msu3alll9rtp1nk6wbyxtf,3z7vu45ip2uttg7lzs22hmdeec31z2,H5MhNoDh,2020-0188,2021-10-15,16:03:29,17:33:27,NA,incomplete,false,true,NA,4,28,NA,brown,m_l_116.jpg,NA,NA,pleasant,unpleasant,NA,NA,NA,NA,NA,right,1829.09999999404,true,NA,NA,NA,NA,NA
H5MhNoDh,33tgb4g0msu3alll9rtp1nk6wbyxtf,3z7vu45ip2uttg7lzs22hmdeec31z2,H5MhNoDh,2020-0188,2021-10-15,16:03:29,17:33:27,NA,incomplete,false,true,NA,4,29,NA,brown,m_s_010.jpg,NA,NA,unpleasant,pleasant,NA,NA,NA,NA,NA,left,1936.70000000298,true,NA,NA,NA,NA,NA
H5MhNoDh,33tgb4g0msu3alll9rtp1nk6wbyxtf,3z7vu45ip2uttg7lzs22hmdeec31z2,H5MhNoDh,2020-0188,2021-10-15,16:03:29,17:33:27,NA,incomplete,false,true,NA,4,30,NA,orange,m_s_005.jpg,NA,NA,unpleasant,pleasant,NA,NA,NA,NA,NA,right,2208.09999999404,true,NA,NA,NA,NA,NA
H5MhNoDh,33tgb4g0msu3alll9rtp1nk6wbyxtf,3z7vu45ip2uttg7lzs22hmdeec31z2,H5MhNoDh,2020-0188,2021-10-15,16:03:29,17:33:27,NA,incomplete,false,true,NA,4,31,NA,orange,m_s_070.jpg,NA,NA,unpleasant,pleasant,NA,NA,NA,NA,NA,right,2196.5,true,NA,NA,NA,NA,NA
H5MhNoDh,33tgb4g0msu3alll9rtp1nk6wbyxtf,3z7vu45ip2uttg7lzs22hmdeec31z2,H5MhNoDh,2020-0188,2021-10-15,16:03:29,17:33:27,NA,incomplete,false,true,NA,4,32,NA,orange,m_l_054.jpg,NA,NA,unpleasant,pleasant,NA,NA,NA,NA,NA,right,1855.40000000596,true,NA,NA,NA,NA,NA
H5MhNoDh,33tgb4g0msu3alll9rtp1nk6wbyxtf,3z7vu45ip2uttg7lzs22hmdeec31z2,H5MhNoDh,2020-0188,2021-10-15,16:03:29,17:33:27,NA,incomplete,false,true,NA,4,33,NA,orange,n_l_004.jpg,NA,NA,unpleasant,pleasant,NA,NA,NA,NA,NA,right,1168.39999999106,true,NA,NA,NA,NA,NA
H5MhNoDh,33tgb4g0msu3alll9rtp1nk6wbyxtf,3z7vu45ip2uttg7lzs22hmdeec31z2,H5MhNoDh,2020-0188,2021-10-15,16:03:29,17:33:27,NA,incomplete,false,true,NA,4,34,NA,orange,n_l_060.jpg,NA,NA,pleasant,unpleasant,NA,NA,NA,NA,NA,left,1511.29999999702,true,NA,NA,NA,NA,NA
H5MhNoDh,33tgb4g0msu3alll9rtp1nk6wbyxtf,3z7vu45ip2uttg7lzs22hmdeec31z2,H5MhNoDh,2020-0188,2021-10-15,16:03:29,17:33:27,NA,incomplete,false,true,NA,4,35,NA,orange,n_l_109.jpg,NA,NA,pleasant,unpleasant,NA,NA,NA,NA,NA,right,1452.20000000298,true,NA,NA,NA,NA,NA
H5MhNoDh,33tgb4g0msu3alll9rtp1nk6wbyxtf,3z7vu45ip2uttg7lzs22hmdeec31z2,H5MhNoDh,2020-0188,2021-10-15,16:03:29,17:33:27,NA,incomplete,false,NA,true,4,0,NA,NA,NA,right,present,NA,NA,n_s_027.jpg,red,m_s_081.jpg,red,within,NA,NaN,NA,left,8605.5,0,0,1853.5999999940395
H5MhNoDh,33tgb4g0msu3alll9rtp1nk6wbyxtf,3z7vu45ip2uttg7lzs22hmdeec31z2,H5MhNoDh,2020-0188,2021-10-15,16:03:29,17:33:27,NA,incomplete,false,NA,true,4,1,NA,NA,NA,left,present,NA,NA,m_l_084.jpg,green,n_l_055.jpg,green,within,NA,NaN,NA,left,3685.0999999940395,1,0,1807.5999999940395
H5MhNoDh,33tgb4g0msu3alll9rtp1nk6wbyxtf,3z7vu45ip2uttg7lzs22hmdeec31z2,H5MhNoDh,2020-0188,2021-10-15,16:03:29,17:33:27,NA,incomplete,false,NA,true,4,2,NA,NA,NA,left,present,NA,NA,m_l_104.jpg,white,m_l_019.jpg,white,within,NA,NaN,NA,right,2625.5,0,0,1688.7000000029802
H5MhNoDh,33tgb4g0msu3alll9rtp1nk6wbyxtf,3z7vu45ip2uttg7lzs22hmdeec31z2,H5MhNoDh,2020-0188,2021-10-15,16:03:29,17:33:27,NA,incomplete,false,NA,true,4,3,NA,NA,NA,left,present,NA,NA,m_l_018.jpg,red,n_l_082.jpg,white,between,NA,NaN,NA,left,10915.09999999404,1,1,4120.699999988079
H5MhNoDh,33tgb4g0msu3alll9rtp1nk6wbyxtf,3z7vu45ip2uttg7lzs22hmdeec31z2,H5MhNoDh,2020-0188,2021-10-15,16:03:29,17:33:27,NA,incomplete,false,NA,true,4,4,NA,NA,NA,right,present,NA,NA,m_l_074.jpg,black,n_s_059.jpg,black,within,NA,NaN,NA,right,14210.59999999404,1,0,1939.4000000059605
H5MhNoDh,33tgb4g0msu3alll9rtp1nk6wbyxtf,3z7vu45ip2uttg7lzs22hmdeec31z2,H5MhNoDh,2020-0188,2021-10-15,16:03:29,17:33:27,NA,incomplete,false,NA,true,4,5,NA,NA,NA,right,present,NA,NA,n_s_030.jpg,brown,n_l_056.jpg,black,between,NA,NaN,NA,right,5476.0999999940395,1,1,1533.9000000059605
H5MhNoDh,33tgb4g0msu3alll9rtp1nk6wbyxtf,3z7vu45ip2uttg7lzs22hmdeec31z2,H5MhNoDh,2020-0188,2021-10-15,16:03:29,17:33:27,NA,incomplete,false,NA,true,4,6,NA,NA,NA,right,present,NA,NA,m_l_098.jpg,black,n_l_087.jpg,white,between,NA,NaN,NA,right,4564.70000000298,1,1,1228.5
H5MhNoDh,33tgb4g0msu3alll9rtp1nk6wbyxtf,3z7vu45ip2uttg7lzs22hmdeec31z2,H5MhNoDh,2020-0188,2021-10-15,16:03:29,17:33:27,NA,incomplete,false,NA,true,4,7,NA,NA,NA,left,present,NA,NA,m_s_070.jpg,orange,n_l_109.jpg,orange,within,NA,NaN,NA,left,9278.59999999404,1,0,1682.5
H5MhNoDh,33tgb4g0msu3alll9rtp1nk6wbyxtf,3z7vu45ip2uttg7lzs22hmdeec31z2,H5MhNoDh,2020-0188,2021-10-15,16:03:29,17:33:27,NA,incomplete,false,NA,true,4,8,NA,NA,NA,right,present,NA,NA,m_s_010.jpg,brown,n_l_070.jpg,brown,within,NA,NaN,NA,right,3480.9000000059605,1,0,1906.7000000029802
H5MhNoDh,33tgb4g0msu3alll9rtp1nk6wbyxtf,3z7vu45ip2uttg7lzs22hmdeec31z2,H5MhNoDh,2020-0188,2021-10-15,16:03:29,17:33:27,NA,incomplete,false,NA,true,4,9,NA,NA,NA,right,present,NA,NA,m_l_054.jpg,orange,m_l_116.jpg,brown,between,NA,NaN,NA,right,11639.300000011921,1,1,2143.3999999910593
H5MhNoDh,33tgb4g0msu3alll9rtp1nk6wbyxtf,3z7vu45ip2uttg7lzs22hmdeec31z2,H5MhNoDh,2020-0188,2021-10-15,16:03:29,17:33:27,NA,incomplete,false,NA,true,4,10,NA,NA,NA,right,present,NA,NA,n_l_089.jpg,red,m_l_058.jpg,green,between,NA,NaN,NA,right,2226.7000000029802,1,1,4555.0999999940395
H5MhNoDh,33tgb4g0msu3alll9rtp1nk6wbyxtf,3z7vu45ip2uttg7lzs22hmdeec31z2,H5MhNoDh,2020-0188,2021-10-15,16:03:29,17:33:27,NA,incomplete,false,true,NA,5,0,NA,black,n_l_048.jpg,NA,NA,pleasant,unpleasant,NA,NA,NA,NA,NA,left,1660.40000000596,true,NA,NA,NA,NA,NA
H5MhNoDh,33tgb4g0msu3alll9rtp1nk6wbyxtf,3z7vu45ip2uttg7lzs22hmdeec31z2,H5MhNoDh,2020-0188,2021-10-15,16:03:29,17:33:27,NA,incomplete,false,true,NA,5,1,NA,black,m_s_037.jpg,NA,NA,unpleasant,pleasant,NA,NA,NA,NA,NA,none,0,false,NA,NA,NA,NA,NA
H5MhNoDh,33tgb4g0msu3alll9rtp1nk6wbyxtf,3z7vu45ip2uttg7lzs22hmdeec31z2,H5MhNoDh,2020-0188,2021-10-15,16:03:29,17:33:27,NA,incomplete,false,true,NA,5,2,NA,black,n_s_012.jpg,NA,NA,pleasant,unpleasant,NA,NA,NA,NA,NA,left,1367.5,true,NA,NA,NA,NA,NA
H5MhNoDh,33tgb4g0msu3alll9rtp1nk6wbyxtf,3z7vu45ip2uttg7lzs22hmdeec31z2,H5MhNoDh,2020-0188,2021-10-15,16:03:29,17:33:27,NA,incomplete,false,true,NA,5,3,NA,black,n_l_090.jpg,NA,NA,pleasant,unpleasant,NA,NA,NA,NA,NA,none,0,false,NA,NA,NA,NA,NA
H5MhNoDh,33tgb4g0msu3alll9rtp1nk6wbyxtf,3z7vu45ip2uttg7lzs22hmdeec31z2,H5MhNoDh,2020-0188,2021-10-15,16:03:29,17:33:27,NA,incomplete,false,true,NA,5,4,NA,black,n_s_114.jpg,NA,NA,unpleasant,pleasant,NA,NA,NA,NA,NA,none,0,false,NA,NA,NA,NA,NA
H5MhNoDh,33tgb4g0msu3alll9rtp1nk6wbyxtf,3z7vu45ip2uttg7lzs22hmdeec31z2,H5MhNoDh,2020-0188,2021-10-15,16:03:29,17:33:27,NA,incomplete,false,true,NA,5,5,NA,black,m_l_039.jpg,NA,NA,unpleasant,pleasant,NA,NA,NA,NA,NA,none,0,false,NA,NA,NA,NA,NA
H5MhNoDh,33tgb4g0msu3alll9rtp1nk6wbyxtf,3z7vu45ip2uttg7lzs22hmdeec31z2,H5MhNoDh,2020-0188,2021-10-15,16:03:29,17:33:27,NA,incomplete,false,true,NA,5,6,NA,purple,m_l_044.jpg,NA,NA,unpleasant,pleasant,NA,NA,NA,NA,NA,none,0,false,NA,NA,NA,NA,NA
H5MhNoDh,33tgb4g0msu3alll9rtp1nk6wbyxtf,3z7vu45ip2uttg7lzs22hmdeec31z2,H5MhNoDh,2020-0188,2021-10-15,16:03:29,17:33:27,NA,incomplete,false,true,NA,5,7,NA,purple,n_l_017.jpg,NA,NA,pleasant,unpleasant,NA,NA,NA,NA,NA,left,1815.40000000596,true,NA,NA,NA,NA,NA
H5MhNoDh,33tgb4g0msu3alll9rtp1nk6wbyxtf,3z7vu45ip2uttg7lzs22hmdeec31z2,H5MhNoDh,2020-0188,2021-10-15,16:03:29,17:33:27,NA,incomplete,false,true,NA,5,8,NA,purple,m_l_083.jpg,NA,NA,unpleasant,pleasant,NA,NA,NA,NA,NA,none,0,false,NA,NA,NA,NA,NA
H5MhNoDh,33tgb4g0msu3alll9rtp1nk6wbyxtf,3z7vu45ip2uttg7lzs22hmdeec31z2,H5MhNoDh,2020-0188,2021-10-15,16:03:29,17:33:27,NA,incomplete,false,true,NA,5,9,NA,purple,n_s_107.jpg,NA,NA,unpleasant,pleasant,NA,NA,NA,NA,NA,none,0,false,NA,NA,NA,NA,NA
H5MhNoDh,33tgb4g0msu3alll9rtp1nk6wbyxtf,3z7vu45ip2uttg7lzs22hmdeec31z2,H5MhNoDh,2020-0188,2021-10-15,16:03:29,17:33:27,NA,incomplete,false,true,NA,5,10,NA,purple,n_s_050.jpg,NA,NA,pleasant,unpleasant,NA,NA,NA,NA,NA,left,1816,true,NA,NA,NA,NA,NA
H5MhNoDh,33tgb4g0msu3alll9rtp1nk6wbyxtf,3z7vu45ip2uttg7lzs22hmdeec31z2,H5MhNoDh,2020-0188,2021-10-15,16:03:29,17:33:27,NA,incomplete,false,true,NA,5,11,NA,purple,m_l_095.jpg,NA,NA,pleasant,unpleasant,NA,NA,NA,NA,NA,left,1720.20000000298,true,NA,NA,NA,NA,NA
H5MhNoDh,33tgb4g0msu3alll9rtp1nk6wbyxtf,3z7vu45ip2uttg7lzs22hmdeec31z2,H5MhNoDh,2020-0188,2021-10-15,16:03:29,17:33:27,NA,incomplete,false,true,NA,5,12,NA,blue,n_l_013.jpg,NA,NA,pleasant,unpleasant,NA,NA,NA,NA,NA,left,2279.60000000894,true,NA,NA,NA,NA,NA
H5MhNoDh,33tgb4g0msu3alll9rtp1nk6wbyxtf,3z7vu45ip2uttg7lzs22hmdeec31z2,H5MhNoDh,2020-0188,2021-10-15,16:03:29,17:33:27,NA,incomplete,false,true,NA,5,13,NA,blue,n_l_016.jpg,NA,NA,pleasant,unpleasant,NA,NA,NA,NA,NA,left,1464.39999999106,true,NA,NA,NA,NA,NA
H5MhNoDh,33tgb4g0msu3alll9rtp1nk6wbyxtf,3z7vu45ip2uttg7lzs22hmdeec31z2,H5MhNoDh,2020-0188,2021-10-15,16:03:29,17:33:27,NA,incomplete,false,true,NA,5,14,NA,blue,n_l_054.jpg,NA,NA,pleasant,unpleasant,NA,NA,NA,NA,NA,left,1110.40000000596,true,NA,NA,NA,NA,NA
H5MhNoDh,33tgb4g0msu3alll9rtp1nk6wbyxtf,3z7vu45ip2uttg7lzs22hmdeec31z2,H5MhNoDh,2020-0188,2021-10-15,16:03:29,17:33:27,NA,incomplete,false,true,NA,5,15,NA,blue,m_s_053.jpg,NA,NA,unpleasant,pleasant,NA,NA,NA,NA,NA,left,2378.20000000298,true,NA,NA,NA,NA,NA
H5MhNoDh,33tgb4g0msu3alll9rtp1nk6wbyxtf,3z7vu45ip2uttg7lzs22hmdeec31z2,H5MhNoDh,2020-0188,2021-10-15,16:03:29,17:33:27,NA,incomplete,false,true,NA,5,16,NA,blue,n_s_094.jpg,NA,NA,unpleasant,pleasant,NA,NA,NA,NA,NA,none,0,false,NA,NA,NA,NA,NA
H5MhNoDh,33tgb4g0msu3alll9rtp1nk6wbyxtf,3z7vu45ip2uttg7lzs22hmdeec31z2,H5MhNoDh,2020-0188,2021-10-15,16:03:29,17:33:27,NA,incomplete,false,true,NA,5,17,NA,blue,n_s_009.jpg,NA,NA,unpleasant,pleasant,NA,NA,NA,NA,NA,none,0,false,NA,NA,NA,NA,NA
H5MhNoDh,33tgb4g0msu3alll9rtp1nk6wbyxtf,3z7vu45ip2uttg7lzs22hmdeec31z2,H5MhNoDh,2020-0188,2021-10-15,16:03:29,17:33:27,NA,incomplete,false,true,NA,5,18,NA,yellow,n_s_084.jpg,NA,NA,pleasant,unpleasant,NA,NA,NA,NA,NA,left,2458,true,NA,NA,NA,NA,NA
H5MhNoDh,33tgb4g0msu3alll9rtp1nk6wbyxtf,3z7vu45ip2uttg7lzs22hmdeec31z2,H5MhNoDh,2020-0188,2021-10-15,16:03:29,17:33:27,NA,incomplete,false,true,NA,5,19,NA,yellow,n_s_060.jpg,NA,NA,unpleasant,pleasant,NA,NA,NA,NA,NA,none,0,false,NA,NA,NA,NA,NA
H5MhNoDh,33tgb4g0msu3alll9rtp1nk6wbyxtf,3z7vu45ip2uttg7lzs22hmdeec31z2,H5MhNoDh,2020-0188,2021-10-15,16:03:29,17:33:27,NA,incomplete,false,true,NA,5,20,NA,yellow,m_s_048.jpg,NA,NA,pleasant,unpleasant,NA,NA,NA,NA,NA,left,1926.39999999106,true,NA,NA,NA,NA,NA
H5MhNoDh,33tgb4g0msu3alll9rtp1nk6wbyxtf,3z7vu45ip2uttg7lzs22hmdeec31z2,H5MhNoDh,2020-0188,2021-10-15,16:03:29,17:33:27,NA,incomplete,false,true,NA,5,21,NA,yellow,n_l_036.jpg,NA,NA,unpleasant,pleasant,NA,NA,NA,NA,NA,none,0,false,NA,NA,NA,NA,NA
H5MhNoDh,33tgb4g0msu3alll9rtp1nk6wbyxtf,3z7vu45ip2uttg7lzs22hmdeec31z2,H5MhNoDh,2020-0188,2021-10-15,16:03:29,17:33:27,NA,incomplete,false,true,NA,5,22,NA,yellow,n_l_074.jpg,NA,NA,pleasant,unpleasant,NA,NA,NA,NA,NA,left,1784.90000000596,true,NA,NA,NA,NA,NA
H5MhNoDh,33tgb4g0msu3alll9rtp1nk6wbyxtf,3z7vu45ip2uttg7lzs22hmdeec31z2,H5MhNoDh,2020-0188,2021-10-15,16:03:29,17:33:27,NA,incomplete,false,true,NA,5,23,NA,yellow,m_l_029.jpg,NA,NA,pleasant,unpleasant,NA,NA,NA,NA,NA,left,1237.70000000298,true,NA,NA,NA,NA,NA
H5MhNoDh,33tgb4g0msu3alll9rtp1nk6wbyxtf,3z7vu45ip2uttg7lzs22hmdeec31z2,H5MhNoDh,2020-0188,2021-10-15,16:03:29,17:33:27,NA,incomplete,false,true,NA,5,24,NA,brown,n_s_086.jpg,NA,NA,pleasant,unpleasant,NA,NA,NA,NA,NA,left,2142.5,true,NA,NA,NA,NA,NA
H5MhNoDh,33tgb4g0msu3alll9rtp1nk6wbyxtf,3z7vu45ip2uttg7lzs22hmdeec31z2,H5MhNoDh,2020-0188,2021-10-15,16:03:29,17:33:27,NA,incomplete,false,true,NA,5,25,NA,brown,m_s_031.jpg,NA,NA,unpleasant,pleasant,NA,NA,NA,NA,NA,none,0,false,NA,NA,NA,NA,NA
H5MhNoDh,33tgb4g0msu3alll9rtp1nk6wbyxtf,3z7vu45ip2uttg7lzs22hmdeec31z2,H5MhNoDh,2020-0188,2021-10-15,16:03:29,17:33:27,NA,incomplete,false,true,NA,5,26,NA,brown,m_s_019.jpg,NA,NA,unpleasant,pleasant,NA,NA,NA,NA,NA,none,0,false,NA,NA,NA,NA,NA
H5MhNoDh,33tgb4g0msu3alll9rtp1nk6wbyxtf,3z7vu45ip2uttg7lzs22hmdeec31z2,H5MhNoDh,2020-0188,2021-10-15,16:03:29,17:33:27,NA,incomplete,false,true,NA,5,27,NA,brown,m_s_002.jpg,NA,NA,unpleasant,pleasant,NA,NA,NA,NA,NA,left,1442.80000001192,true,NA,NA,NA,NA,NA
H5MhNoDh,33tgb4g0msu3alll9rtp1nk6wbyxtf,3z7vu45ip2uttg7lzs22hmdeec31z2,H5MhNoDh,2020-0188,2021-10-15,16:03:29,17:33:27,NA,incomplete,false,true,NA,5,28,NA,brown,m_l_011.jpg,NA,NA,pleasant,unpleasant,NA,NA,NA,NA,NA,left,2038.09999999404,true,NA,NA,NA,NA,NA
H5MhNoDh,33tgb4g0msu3alll9rtp1nk6wbyxtf,3z7vu45ip2uttg7lzs22hmdeec31z2,H5MhNoDh,2020-0188,2021-10-15,16:03:29,17:33:27,NA,incomplete,false,true,NA,5,29,NA,brown,n_s_016.jpg,NA,NA,unpleasant,pleasant,NA,NA,NA,NA,NA,left,1991.80000001192,true,NA,NA,NA,NA,NA
H5MhNoDh,33tgb4g0msu3alll9rtp1nk6wbyxtf,3z7vu45ip2uttg7lzs22hmdeec31z2,H5MhNoDh,2020-0188,2021-10-15,16:03:29,17:33:27,NA,incomplete,false,true,NA,5,30,NA,orange,n_s_034.jpg,NA,NA,pleasant,unpleasant,NA,NA,NA,NA,NA,left,2026.20000000298,true,NA,NA,NA,NA,NA
H5MhNoDh,33tgb4g0msu3alll9rtp1nk6wbyxtf,3z7vu45ip2uttg7lzs22hmdeec31z2,H5MhNoDh,2020-0188,2021-10-15,16:03:29,17:33:27,NA,incomplete,false,true,NA,5,31,NA,orange,m_l_006.jpg,NA,NA,unpleasant,pleasant,NA,NA,NA,NA,NA,left,2287.60000000894,true,NA,NA,NA,NA,NA
H5MhNoDh,33tgb4g0msu3alll9rtp1nk6wbyxtf,3z7vu45ip2uttg7lzs22hmdeec31z2,H5MhNoDh,2020-0188,2021-10-15,16:03:29,17:33:27,NA,incomplete,false,true,NA,5,32,NA,orange,n_s_014.jpg,NA,NA,unpleasant,pleasant,NA,NA,NA,NA,NA,left,1404.09999999404,true,NA,NA,NA,NA,NA
H5MhNoDh,33tgb4g0msu3alll9rtp1nk6wbyxtf,3z7vu45ip2uttg7lzs22hmdeec31z2,H5MhNoDh,2020-0188,2021-10-15,16:03:29,17:33:27,NA,incomplete,false,true,NA,5,33,NA,orange,n_l_067.jpg,NA,NA,pleasant,unpleasant,NA,NA,NA,NA,NA,left,1835,true,NA,NA,NA,NA,NA
H5MhNoDh,33tgb4g0msu3alll9rtp1nk6wbyxtf,3z7vu45ip2uttg7lzs22hmdeec31z2,H5MhNoDh,2020-0188,2021-10-15,16:03:29,17:33:27,NA,incomplete,false,true,NA,5,34,NA,orange,m_l_028.jpg,NA,NA,unpleasant,pleasant,NA,NA,NA,NA,NA,none,0,false,NA,NA,NA,NA,NA
H5MhNoDh,33tgb4g0msu3alll9rtp1nk6wbyxtf,3z7vu45ip2uttg7lzs22hmdeec31z2,H5MhNoDh,2020-0188,2021-10-15,16:03:29,17:33:27,NA,incomplete,false,true,NA,5,35,NA,orange,n_s_085.jpg,NA,NA,unpleasant,pleasant,NA,NA,NA,NA,NA,none,0,false,NA,NA,NA,NA,NA
H5MhNoDh,33tgb4g0msu3alll9rtp1nk6wbyxtf,3z7vu45ip2uttg7lzs22hmdeec31z2,H5MhNoDh,2020-0188,2021-10-15,16:03:29,17:33:27,NA,incomplete,false,NA,true,5,0,NA,NA,NA,right,present,NA,NA,m_l_083.jpg,purple,n_s_114.jpg,black,between,NA,NaN,NA,right,6177.29999999702,1,1,1173.800000011921
H5MhNoDh,33tgb4g0msu3alll9rtp1nk6wbyxtf,3z7vu45ip2uttg7lzs22hmdeec31z2,H5MhNoDh,2020-0188,2021-10-15,16:03:29,17:33:27,NA,incomplete,false,NA,true,5,1,NA,NA,NA,right,present,NA,NA,m_l_039.jpg,black,m_s_037.jpg,black,within,NA,NaN,NA,right,4423.100000008941,1,0,2258
H5MhNoDh,33tgb4g0msu3alll9rtp1nk6wbyxtf,3z7vu45ip2uttg7lzs22hmdeec31z2,H5MhNoDh,2020-0188,2021-10-15,16:03:29,17:33:27,NA,incomplete,false,NA,true,5,2,NA,NA,NA,right,present,NA,NA,n_s_016.jpg,brown,m_s_031.jpg,brown,within,NA,NaN,NA,right,6092.399999991059,1,0,1602.5999999940395
H5MhNoDh,33tgb4g0msu3alll9rtp1nk6wbyxtf,3z7vu45ip2uttg7lzs22hmdeec31z2,H5MhNoDh,2020-0188,2021-10-15,16:03:29,17:33:27,NA,incomplete,false,NA,true,5,3,NA,NA,NA,right,present,NA,NA,m_l_095.jpg,purple,n_l_017.jpg,purple,within,NA,NaN,NA,right,17534.5,1,0,1345.7999999970198
H5MhNoDh,33tgb4g0msu3alll9rtp1nk6wbyxtf,3z7vu45ip2uttg7lzs22hmdeec31z2,H5MhNoDh,2020-0188,2021-10-15,16:03:29,17:33:27,NA,incomplete,false,NA,true,5,4,NA,NA,NA,right,present,NA,NA,n_s_009.jpg,blue,n_l_016.jpg,blue,within,NA,NaN,NA,right,5344.800000011921,1,0,1204.2999999970198
H5MhNoDh,33tgb4g0msu3alll9rtp1nk6wbyxtf,3z7vu45ip2uttg7lzs22hmdeec31z2,H5MhNoDh,2020-0188,2021-10-15,16:03:29,17:33:27,NA,incomplete,false,NA,true,5,5,NA,NA,NA,left,present,NA,NA,n_s_060.jpg,yellow,m_l_029.jpg,yellow,within,NA,NaN,NA,left,3155.2000000029802,1,0,2539.2000000029802
H5MhNoDh,33tgb4g0msu3alll9rtp1nk6wbyxtf,3z7vu45ip2uttg7lzs22hmdeec31z2,H5MhNoDh,2020-0188,2021-10-15,16:03:29,17:33:27,NA,incomplete,false,NA,true,5,6,NA,NA,NA,left,present,NA,NA,m_l_006.jpg,orange,n_s_085.jpg,orange,within,NA,NaN,NA,left,4260,1,0,1454.7000000029802
H5MhNoDh,33tgb4g0msu3alll9rtp1nk6wbyxtf,3z7vu45ip2uttg7lzs22hmdeec31z2,H5MhNoDh,2020-0188,2021-10-15,16:03:29,17:33:27,NA,incomplete,false,NA,true,5,7,NA,NA,NA,right,present,NA,NA,n_l_054.jpg,blue,n_s_050.jpg,purple,between,NA,NaN,NA,right,4687.600000008941,1,1,2359.0999999940395
H5MhNoDh,33tgb4g0msu3alll9rtp1nk6wbyxtf,3z7vu45ip2uttg7lzs22hmdeec31z2,H5MhNoDh,2020-0188,2021-10-15,16:03:29,17:33:27,NA,incomplete,false,NA,true,5,8,NA,NA,NA,left,present,NA,NA,n_s_094.jpg,blue,m_s_048.jpg,yellow,between,NA,NaN,NA,left,4650.5,1,1,1800.1000000089407
H5MhNoDh,33tgb4g0msu3alll9rtp1nk6wbyxtf,3z7vu45ip2uttg7lzs22hmdeec31z2,H5MhNoDh,2020-0188,2021-10-15,16:03:29,17:33:27,NA,incomplete,false,NA,true,5,9,NA,NA,NA,right,present,NA,NA,m_s_019.jpg,brown,n_l_074.jpg,yellow,between,NA,NaN,NA,right,5609.100000008941,1,1,3854.699999988079
H5MhNoDh,33tgb4g0msu3alll9rtp1nk6wbyxtf,3z7vu45ip2uttg7lzs22hmdeec31z2,H5MhNoDh,2020-0188,2021-10-15,16:03:29,17:33:27,NA,incomplete,false,NA,true,5,10,NA,NA,NA,left,present,NA,NA,m_l_011.jpg,brown,n_s_014.jpg,orange,between,NA,NaN,NA,left,6722.699999988079,1,1,2296.9000000059605
H5MhNoDh,33tgb4g0msu3alll9rtp1nk6wbyxtf,3z7vu45ip2uttg7lzs22hmdeec31z2,H5MhNoDh,2020-0188,2021-10-15,16:03:29,17:33:27,NA,incomplete,false,true,NA,6,0,NA,green,n_l_097.jpg,NA,NA,pleasant,unpleasant,NA,NA,NA,NA,NA,left,2025,true,NA,NA,NA,NA,NA
H5MhNoDh,33tgb4g0msu3alll9rtp1nk6wbyxtf,3z7vu45ip2uttg7lzs22hmdeec31z2,H5MhNoDh,2020-0188,2021-10-15,16:03:29,17:33:27,NA,incomplete,false,true,NA,6,1,NA,green,n_l_115.jpg,NA,NA,pleasant,unpleasant,NA,NA,NA,NA,NA,left,1699.20000000298,true,NA,NA,NA,NA,NA
H5MhNoDh,33tgb4g0msu3alll9rtp1nk6wbyxtf,3z7vu45ip2uttg7lzs22hmdeec31z2,H5MhNoDh,2020-0188,2021-10-15,16:03:29,17:33:27,NA,incomplete,false,true,NA,6,2,NA,green,n_s_003.jpg,NA,NA,pleasant,unpleasant,NA,NA,NA,NA,NA,right,1273.90000000596,true,NA,NA,NA,NA,NA
H5MhNoDh,33tgb4g0msu3alll9rtp1nk6wbyxtf,3z7vu45ip2uttg7lzs22hmdeec31z2,H5MhNoDh,2020-0188,2021-10-15,16:03:29,17:33:27,NA,incomplete,false,true,NA,6,3,NA,green,n_l_053.jpg,NA,NA,pleasant,unpleasant,NA,NA,NA,NA,NA,left,1651.59999999404,true,NA,NA,NA,NA,NA
H5MhNoDh,33tgb4g0msu3alll9rtp1nk6wbyxtf,3z7vu45ip2uttg7lzs22hmdeec31z2,H5MhNoDh,2020-0188,2021-10-15,16:03:29,17:33:27,NA,incomplete,false,true,NA,6,4,NA,green,n_s_081.jpg,NA,NA,pleasant,unpleasant,NA,NA,NA,NA,NA,left,1592.70000000298,true,NA,NA,NA,NA,NA
H5MhNoDh,33tgb4g0msu3alll9rtp1nk6wbyxtf,3z7vu45ip2uttg7lzs22hmdeec31z2,H5MhNoDh,2020-0188,2021-10-15,16:03:29,17:33:27,NA,incomplete,false,true,NA,6,5,NA,green,m_s_079.jpg,NA,NA,pleasant,unpleasant,NA,NA,NA,NA,NA,left,2267.5,true,NA,NA,NA,NA,NA
H5MhNoDh,33tgb4g0msu3alll9rtp1nk6wbyxtf,3z7vu45ip2uttg7lzs22hmdeec31z2,H5MhNoDh,2020-0188,2021-10-15,16:03:29,17:33:27,NA,incomplete,false,true,NA,6,6,NA,blue,n_l_022.jpg,NA,NA,unpleasant,pleasant,NA,NA,NA,NA,NA,right,1456.40000000596,true,NA,NA,NA,NA,NA
H5MhNoDh,33tgb4g0msu3alll9rtp1nk6wbyxtf,3z7vu45ip2uttg7lzs22hmdeec31z2,H5MhNoDh,2020-0188,2021-10-15,16:03:29,17:33:27,NA,incomplete,false,true,NA,6,7,NA,blue,m_l_021.jpg,NA,NA,unpleasant,pleasant,NA,NA,NA,NA,NA,right,1451.5,true,NA,NA,NA,NA,NA
H5MhNoDh,33tgb4g0msu3alll9rtp1nk6wbyxtf,3z7vu45ip2uttg7lzs22hmdeec31z2,H5MhNoDh,2020-0188,2021-10-15,16:03:29,17:33:27,NA,incomplete,false,true,NA,6,8,NA,blue,m_l_060.jpg,NA,NA,unpleasant,pleasant,NA,NA,NA,NA,NA,right,1924,true,NA,NA,NA,NA,NA
H5MhNoDh,33tgb4g0msu3alll9rtp1nk6wbyxtf,3z7vu45ip2uttg7lzs22hmdeec31z2,H5MhNoDh,2020-0188,2021-10-15,16:03:29,17:33:27,NA,incomplete,false,true,NA,6,9,NA,blue,n_l_076.jpg,NA,NA,pleasant,unpleasant,NA,NA,NA,NA,NA,right,2454.80000001192,true,NA,NA,NA,NA,NA
H5MhNoDh,33tgb4g0msu3alll9rtp1nk6wbyxtf,3z7vu45ip2uttg7lzs22hmdeec31z2,H5MhNoDh,2020-0188,2021-10-15,16:03:29,17:33:27,NA,incomplete,false,true,NA,6,10,NA,blue,m_l_066.jpg,NA,NA,unpleasant,pleasant,NA,NA,NA,NA,NA,right,1869.5,true,NA,NA,NA,NA,NA
H5MhNoDh,33tgb4g0msu3alll9rtp1nk6wbyxtf,3z7vu45ip2uttg7lzs22hmdeec31z2,H5MhNoDh,2020-0188,2021-10-15,16:03:29,17:33:27,NA,incomplete,false,true,NA,6,11,NA,blue,m_s_062.jpg,NA,NA,pleasant,unpleasant,NA,NA,NA,NA,NA,left,1635.70000000298,true,NA,NA,NA,NA,NA
H5MhNoDh,33tgb4g0msu3alll9rtp1nk6wbyxtf,3z7vu45ip2uttg7lzs22hmdeec31z2,H5MhNoDh,2020-0188,2021-10-15,16:03:29,17:33:27,NA,incomplete,false,true,NA,6,12,NA,yellow,m_s_063.jpg,NA,NA,unpleasant,pleasant,NA,NA,NA,NA,NA,right,2462.89999999106,true,NA,NA,NA,NA,NA
H5MhNoDh,33tgb4g0msu3alll9rtp1nk6wbyxtf,3z7vu45ip2uttg7lzs22hmdeec31z2,H5MhNoDh,2020-0188,2021-10-15,16:03:29,17:33:27,NA,incomplete,false,true,NA,6,13,NA,yellow,n_s_051.jpg,NA,NA,unpleasant,pleasant,NA,NA,NA,NA,NA,left,1551.5,true,NA,NA,NA,NA,NA
H5MhNoDh,33tgb4g0msu3alll9rtp1nk6wbyxtf,3z7vu45ip2uttg7lzs22hmdeec31z2,H5MhNoDh,2020-0188,2021-10-15,16:03:29,17:33:27,NA,incomplete,false,true,NA,6,14,NA,yellow,m_l_102.jpg,NA,NA,unpleasant,pleasant,NA,NA,NA,NA,NA,right,1930.90000000596,true,NA,NA,NA,NA,NA
H5MhNoDh,33tgb4g0msu3alll9rtp1nk6wbyxtf,3z7vu45ip2uttg7lzs22hmdeec31z2,H5MhNoDh,2020-0188,2021-10-15,16:03:29,17:33:27,NA,incomplete,false,true,NA,6,15,NA,yellow,m_s_084.jpg,NA,NA,unpleasant,pleasant,NA,NA,NA,NA,NA,right,2127.90000000596,true,NA,NA,NA,NA,NA
H5MhNoDh,33tgb4g0msu3alll9rtp1nk6wbyxtf,3z7vu45ip2uttg7lzs22hmdeec31z2,H5MhNoDh,2020-0188,2021-10-15,16:03:29,17:33:27,NA,incomplete,false,true,NA,6,16,NA,yellow,m_l_026.jpg,NA,NA,unpleasant,pleasant,NA,NA,NA,NA,NA,right,1424.70000000298,true,NA,NA,NA,NA,NA
H5MhNoDh,33tgb4g0msu3alll9rtp1nk6wbyxtf,3z7vu45ip2uttg7lzs22hmdeec31z2,H5MhNoDh,2020-0188,2021-10-15,16:03:29,17:33:27,NA,incomplete,false,true,NA,6,17,NA,yellow,m_l_068.jpg,NA,NA,unpleasant,pleasant,NA,NA,NA,NA,NA,right,1767.09999999404,true,NA,NA,NA,NA,NA
H5MhNoDh,33tgb4g0msu3alll9rtp1nk6wbyxtf,3z7vu45ip2uttg7lzs22hmdeec31z2,H5MhNoDh,2020-0188,2021-10-15,16:03:29,17:33:27,NA,incomplete,false,true,NA,6,18,NA,purple,m_l_113.jpg,NA,NA,pleasant,unpleasant,NA,NA,NA,NA,NA,left,1830.60000000894,true,NA,NA,NA,NA,NA
H5MhNoDh,33tgb4g0msu3alll9rtp1nk6wbyxtf,3z7vu45ip2uttg7lzs22hmdeec31z2,H5MhNoDh,2020-0188,2021-10-15,16:03:29,17:33:27,NA,incomplete,false,true,NA,6,19,NA,purple,m_l_046.jpg,NA,NA,pleasant,unpleasant,NA,NA,NA,NA,NA,left,1194.09999999404,true,NA,NA,NA,NA,NA
H5MhNoDh,33tgb4g0msu3alll9rtp1nk6wbyxtf,3z7vu45ip2uttg7lzs22hmdeec31z2,H5MhNoDh,2020-0188,2021-10-15,16:03:29,17:33:27,NA,incomplete,false,true,NA,6,20,NA,purple,m_l_038.jpg,NA,NA,unpleasant,pleasant,NA,NA,NA,NA,NA,left,1468.79999999702,true,NA,NA,NA,NA,NA
H5MhNoDh,33tgb4g0msu3alll9rtp1nk6wbyxtf,3z7vu45ip2uttg7lzs22hmdeec31z2,H5MhNoDh,2020-0188,2021-10-15,16:03:29,17:33:27,NA,incomplete,false,true,NA,6,21,NA,purple,n_l_003.jpg,NA,NA,pleasant,unpleasant,NA,NA,NA,NA,NA,left,1290.60000000894,true,NA,NA,NA,NA,NA
H5MhNoDh,33tgb4g0msu3alll9rtp1nk6wbyxtf,3z7vu45ip2uttg7lzs22hmdeec31z2,H5MhNoDh,2020-0188,2021-10-15,16:03:29,17:33:27,NA,incomplete,false,true,NA,6,22,NA,purple,m_l_032.jpg,NA,NA,unpleasant,pleasant,NA,NA,NA,NA,NA,right,1747.79999999702,true,NA,NA,NA,NA,NA
H5MhNoDh,33tgb4g0msu3alll9rtp1nk6wbyxtf,3z7vu45ip2uttg7lzs22hmdeec31z2,H5MhNoDh,2020-0188,2021-10-15,16:03:29,17:33:27,NA,incomplete,false,true,NA,6,23,NA,purple,m_s_090.jpg,NA,NA,unpleasant,pleasant,NA,NA,NA,NA,NA,right,2022.79999999702,true,NA,NA,NA,NA,NA
H5MhNoDh,33tgb4g0msu3alll9rtp1nk6wbyxtf,3z7vu45ip2uttg7lzs22hmdeec31z2,H5MhNoDh,2020-0188,2021-10-15,16:03:29,17:33:27,NA,incomplete,false,true,NA,6,24,NA,black,n_s_040.jpg,NA,NA,unpleasant,pleasant,NA,NA,NA,NA,NA,left,1563.39999999106,true,NA,NA,NA,NA,NA
H5MhNoDh,33tgb4g0msu3alll9rtp1nk6wbyxtf,3z7vu45ip2uttg7lzs22hmdeec31z2,H5MhNoDh,2020-0188,2021-10-15,16:03:29,17:33:27,NA,incomplete,false,true,NA,6,25,NA,black,n_l_077.jpg,NA,NA,pleasant,unpleasant,NA,NA,NA,NA,NA,right,1470.60000000894,true,NA,NA,NA,NA,NA
H5MhNoDh,33tgb4g0msu3alll9rtp1nk6wbyxtf,3z7vu45ip2uttg7lzs22hmdeec31z2,H5MhNoDh,2020-0188,2021-10-15,16:03:29,17:33:27,NA,incomplete,false,true,NA,6,26,NA,black,m_l_001.jpg,NA,NA,pleasant,unpleasant,NA,NA,NA,NA,NA,right,1956.70000000298,true,NA,NA,NA,NA,NA
H5MhNoDh,33tgb4g0msu3alll9rtp1nk6wbyxtf,3z7vu45ip2uttg7lzs22hmdeec31z2,H5MhNoDh,2020-0188,2021-10-15,16:03:29,17:33:27,NA,incomplete,false,true,NA,6,27,NA,black,n_l_047.jpg,NA,NA,unpleasant,pleasant,NA,NA,NA,NA,NA,right,1338.70000000298,true,NA,NA,NA,NA,NA
H5MhNoDh,33tgb4g0msu3alll9rtp1nk6wbyxtf,3z7vu45ip2uttg7lzs22hmdeec31z2,H5MhNoDh,2020-0188,2021-10-15,16:03:29,17:33:27,NA,incomplete,false,true,NA,6,28,NA,black,m_s_098.jpg,NA,NA,pleasant,unpleasant,NA,NA,NA,NA,NA,left,1941.80000001192,true,NA,NA,NA,NA,NA
H5MhNoDh,33tgb4g0msu3alll9rtp1nk6wbyxtf,3z7vu45ip2uttg7lzs22hmdeec31z2,H5MhNoDh,2020-0188,2021-10-15,16:03:29,17:33:27,NA,incomplete,false,true,NA,6,29,NA,black,m_s_049.jpg,NA,NA,unpleasant,pleasant,NA,NA,NA,NA,NA,right,1304.29999999702,true,NA,NA,NA,NA,NA
H5MhNoDh,33tgb4g0msu3alll9rtp1nk6wbyxtf,3z7vu45ip2uttg7lzs22hmdeec31z2,H5MhNoDh,2020-0188,2021-10-15,16:03:29,17:33:27,NA,incomplete,false,true,NA,6,30,NA,white,n_s_035.jpg,NA,NA,pleasant,unpleasant,NA,NA,NA,NA,NA,left,2569,true,NA,NA,NA,NA,NA
H5MhNoDh,33tgb4g0msu3alll9rtp1nk6wbyxtf,3z7vu45ip2uttg7lzs22hmdeec31z2,H5MhNoDh,2020-0188,2021-10-15,16:03:29,17:33:27,NA,incomplete,false,true,NA,6,31,NA,white,n_l_084.jpg,NA,NA,unpleasant,pleasant,NA,NA,NA,NA,NA,right,2278,true,NA,NA,NA,NA,NA
H5MhNoDh,33tgb4g0msu3alll9rtp1nk6wbyxtf,3z7vu45ip2uttg7lzs22hmdeec31z2,H5MhNoDh,2020-0188,2021-10-15,16:03:29,17:33:27,NA,incomplete,false,true,NA,6,32,NA,white,n_l_018.jpg,NA,NA,unpleasant,pleasant,NA,NA,NA,NA,NA,right,1249,true,NA,NA,NA,NA,NA
H5MhNoDh,33tgb4g0msu3alll9rtp1nk6wbyxtf,3z7vu45ip2uttg7lzs22hmdeec31z2,H5MhNoDh,2020-0188,2021-10-15,16:03:29,17:33:27,NA,incomplete,false,true,NA,6,33,NA,white,n_s_048.jpg,NA,NA,pleasant,unpleasant,NA,NA,NA,NA,NA,left,1552.10000000894,true,NA,NA,NA,NA,NA
H5MhNoDh,33tgb4g0msu3alll9rtp1nk6wbyxtf,3z7vu45ip2uttg7lzs22hmdeec31z2,H5MhNoDh,2020-0188,2021-10-15,16:03:29,17:33:27,NA,incomplete,false,true,NA,6,34,NA,white,m_s_074.jpg,NA,NA,pleasant,unpleasant,NA,NA,NA,NA,NA,left,1779.5,true,NA,NA,NA,NA,NA
H5MhNoDh,33tgb4g0msu3alll9rtp1nk6wbyxtf,3z7vu45ip2uttg7lzs22hmdeec31z2,H5MhNoDh,2020-0188,2021-10-15,16:03:29,17:33:27,NA,incomplete,false,true,NA,6,35,NA,white,m_s_056.jpg,NA,NA,unpleasant,pleasant,NA,NA,NA,NA,NA,right,1378.79999999702,true,NA,NA,NA,NA,NA
H5MhNoDh,33tgb4g0msu3alll9rtp1nk6wbyxtf,3z7vu45ip2uttg7lzs22hmdeec31z2,H5MhNoDh,2020-0188,2021-10-15,16:03:29,17:33:27,NA,incomplete,false,NA,true,6,0,NA,NA,NA,right,present,NA,NA,m_s_090.jpg,purple,m_l_046.jpg,purple,within,NA,NaN,NA,right,4541,1,0,2247
H5MhNoDh,33tgb4g0msu3alll9rtp1nk6wbyxtf,3z7vu45ip2uttg7lzs22hmdeec31z2,H5MhNoDh,2020-0188,2021-10-15,16:03:29,17:33:27,NA,incomplete,false,NA,true,6,1,NA,NA,NA,left,present,NA,NA,n_l_115.jpg,green,m_s_079.jpg,green,within,NA,NaN,NA,left,9193.70000000298,1,0,1400.5
H5MhNoDh,33tgb4g0msu3alll9rtp1nk6wbyxtf,3z7vu45ip2uttg7lzs22hmdeec31z2,H5MhNoDh,2020-0188,2021-10-15,16:03:29,17:33:27,NA,incomplete,false,NA,true,6,2,NA,NA,NA,left,present,NA,NA,m_l_066.jpg,blue,m_l_102.jpg,yellow,between,NA,NaN,NA,left,6106.5,1,1,1189.5999999940395
H5MhNoDh,33tgb4g0msu3alll9rtp1nk6wbyxtf,3z7vu45ip2uttg7lzs22hmdeec31z2,H5MhNoDh,2020-0188,2021-10-15,16:03:29,17:33:27,NA,incomplete,false,NA,true,6,3,NA,NA,NA,left,present,NA,NA,m_l_026.jpg,yellow,m_l_038.jpg,purple,between,NA,NaN,NA,right,7160.9000000059605,0,2,2213.7000000029802
H5MhNoDh,33tgb4g0msu3alll9rtp1nk6wbyxtf,3z7vu45ip2uttg7lzs22hmdeec31z2,H5MhNoDh,2020-0188,2021-10-15,16:03:29,17:33:27,NA,incomplete,false,NA,true,6,4,NA,NA,NA,left,present,NA,NA,n_l_084.jpg,white,m_s_056.jpg,white,within,NA,NaN,NA,left,5272.5,1,0,2867.3999999910593
H5MhNoDh,33tgb4g0msu3alll9rtp1nk6wbyxtf,3z7vu45ip2uttg7lzs22hmdeec31z2,H5MhNoDh,2020-0188,2021-10-15,16:03:29,17:33:27,NA,incomplete,false,NA,true,6,5,NA,NA,NA,right,present,NA,NA,m_s_049.jpg,black,n_l_077.jpg,black,within,NA,NaN,NA,right,5165.5999999940395,1,0,2522.699999988079
H5MhNoDh,33tgb4g0msu3alll9rtp1nk6wbyxtf,3z7vu45ip2uttg7lzs22hmdeec31z2,H5MhNoDh,2020-0188,2021-10-15,16:03:29,17:33:27,NA,incomplete,false,NA,true,6,6,NA,NA,NA,left,present,NA,NA,m_l_032.jpg,purple,m_l_001.jpg,black,between,NA,NaN,NA,left,16801.30000001192,1,2,5522.70000000298
H5MhNoDh,33tgb4g0msu3alll9rtp1nk6wbyxtf,3z7vu45ip2uttg7lzs22hmdeec31z2,H5MhNoDh,2020-0188,2021-10-15,16:03:29,17:33:27,NA,incomplete,false,NA,true,6,7,NA,NA,NA,left,present,NA,NA,m_s_098.jpg,black,n_l_018.jpg,white,between,NA,NaN,NA,left,4125.9000000059605,1,1,2296.1000000089407
H5MhNoDh,33tgb4g0msu3alll9rtp1nk6wbyxtf,3z7vu45ip2uttg7lzs22hmdeec31z2,H5MhNoDh,2020-0188,2021-10-15,16:03:29,17:33:27,NA,incomplete,false,NA,true,6,8,NA,NA,NA,left,present,NA,NA,n_s_081.jpg,green,m_l_060.jpg,blue,between,NA,NaN,NA,left,2406.4000000059605,1,2,8266.40000000596
H5MhNoDh,33tgb4g0msu3alll9rtp1nk6wbyxtf,3z7vu45ip2uttg7lzs22hmdeec31z2,H5MhNoDh,2020-0188,2021-10-15,16:03:29,17:33:27,NA,incomplete,false,NA,true,6,9,NA,NA,NA,right,present,NA,NA,m_s_062.jpg,blue,m_l_021.jpg,blue,within,NA,NaN,NA,right,2624.2999999970198,1,0,2312.5999999940395
H5MhNoDh,33tgb4g0msu3alll9rtp1nk6wbyxtf,3z7vu45ip2uttg7lzs22hmdeec31z2,H5MhNoDh,2020-0188,2021-10-15,16:03:29,17:33:27,NA,incomplete,false,NA,true,6,10,NA,NA,NA,left,present,NA,NA,n_s_051.jpg,yellow,m_l_068.jpg,yellow,within,NA,NaN,NA,left,18332.70000000298,1,0,1815.5999999940395
H5MhNoDh,33tgb4g0msu3alll9rtp1nk6wbyxtf,3z7vu45ip2uttg7lzs22hmdeec31z2,H5MhNoDh,2020-0188,2021-10-15,16:03:29,17:33:27,NA,incomplete,false,true,NA,7,0,NA,white,m_l_103.jpg,NA,NA,pleasant,unpleasant,NA,NA,NA,NA,NA,left,1215.79999999702,true,NA,NA,NA,NA,NA
H5MhNoDh,33tgb4g0msu3alll9rtp1nk6wbyxtf,3z7vu45ip2uttg7lzs22hmdeec31z2,H5MhNoDh,2020-0188,2021-10-15,16:03:29,17:33:27,NA,incomplete,false,true,NA,7,1,NA,white,n_s_078.jpg,NA,NA,pleasant,unpleasant,NA,NA,NA,NA,NA,left,1793.79999999702,true,NA,NA,NA,NA,NA
H5MhNoDh,33tgb4g0msu3alll9rtp1nk6wbyxtf,3z7vu45ip2uttg7lzs22hmdeec31z2,H5MhNoDh,2020-0188,2021-10-15,16:03:29,17:33:27,NA,incomplete,false,true,NA,7,2,NA,white,m_s_089.jpg,NA,NA,unpleasant,pleasant,NA,NA,NA,NA,NA,right,1443.40000000596,true,NA,NA,NA,NA,NA
H5MhNoDh,33tgb4g0msu3alll9rtp1nk6wbyxtf,3z7vu45ip2uttg7lzs22hmdeec31z2,H5MhNoDh,2020-0188,2021-10-15,16:03:29,17:33:27,NA,incomplete,false,true,NA,7,3,NA,white,n_s_045.jpg,NA,NA,pleasant,unpleasant,NA,NA,NA,NA,NA,left,1255,true,NA,NA,NA,NA,NA
H5MhNoDh,33tgb4g0msu3alll9rtp1nk6wbyxtf,3z7vu45ip2uttg7lzs22hmdeec31z2,H5MhNoDh,2020-0188,2021-10-15,16:03:29,17:33:27,NA,incomplete,false,true,NA,7,4,NA,white,n_l_081.jpg,NA,NA,pleasant,unpleasant,NA,NA,NA,NA,NA,left,1131.29999999702,true,NA,NA,NA,NA,NA
H5MhNoDh,33tgb4g0msu3alll9rtp1nk6wbyxtf,3z7vu45ip2uttg7lzs22hmdeec31z2,H5MhNoDh,2020-0188,2021-10-15,16:03:29,17:33:27,NA,incomplete,false,true,NA,7,5,NA,white,n_l_091.jpg,NA,NA,unpleasant,pleasant,NA,NA,NA,NA,NA,right,1623.30000001192,true,NA,NA,NA,NA,NA
H5MhNoDh,33tgb4g0msu3alll9rtp1nk6wbyxtf,3z7vu45ip2uttg7lzs22hmdeec31z2,H5MhNoDh,2020-0188,2021-10-15,16:03:29,17:33:27,NA,incomplete,false,true,NA,7,6,NA,black,n_s_103.jpg,NA,NA,pleasant,unpleasant,NA,NA,NA,NA,NA,left,1861.79999999702,true,NA,NA,NA,NA,NA
H5MhNoDh,33tgb4g0msu3alll9rtp1nk6wbyxtf,3z7vu45ip2uttg7lzs22hmdeec31z2,H5MhNoDh,2020-0188,2021-10-15,16:03:29,17:33:27,NA,incomplete,false,true,NA,7,7,NA,black,n_s_049.jpg,NA,NA,unpleasant,pleasant,NA,NA,NA,NA,NA,left,1577.40000000596,true,NA,NA,NA,NA,NA
H5MhNoDh,33tgb4g0msu3alll9rtp1nk6wbyxtf,3z7vu45ip2uttg7lzs22hmdeec31z2,H5MhNoDh,2020-0188,2021-10-15,16:03:29,17:33:27,NA,incomplete,false,true,NA,7,8,NA,black,n_l_106.jpg,NA,NA,unpleasant,pleasant,NA,NA,NA,NA,NA,left,1656.29999999702,true,NA,NA,NA,NA,NA
H5MhNoDh,33tgb4g0msu3alll9rtp1nk6wbyxtf,3z7vu45ip2uttg7lzs22hmdeec31z2,H5MhNoDh,2020-0188,2021-10-15,16:03:29,17:33:27,NA,incomplete,false,true,NA,7,9,NA,black,m_l_002.jpg,NA,NA,pleasant,unpleasant,NA,NA,NA,NA,NA,left,2181.40000000596,true,NA,NA,NA,NA,NA
H5MhNoDh,33tgb4g0msu3alll9rtp1nk6wbyxtf,3z7vu45ip2uttg7lzs22hmdeec31z2,H5MhNoDh,2020-0188,2021-10-15,16:03:29,17:33:27,NA,incomplete,false,true,NA,7,10,NA,black,n_s_026.jpg,NA,NA,unpleasant,pleasant,NA,NA,NA,NA,NA,left,1373.09999999404,true,NA,NA,NA,NA,NA
H5MhNoDh,33tgb4g0msu3alll9rtp1nk6wbyxtf,3z7vu45ip2uttg7lzs22hmdeec31z2,H5MhNoDh,2020-0188,2021-10-15,16:03:29,17:33:27,NA,incomplete,false,true,NA,7,11,NA,black,m_s_115.jpg,NA,NA,unpleasant,pleasant,NA,NA,NA,NA,NA,left,1525,true,NA,NA,NA,NA,NA
H5MhNoDh,33tgb4g0msu3alll9rtp1nk6wbyxtf,3z7vu45ip2uttg7lzs22hmdeec31z2,H5MhNoDh,2020-0188,2021-10-15,16:03:29,17:33:27,NA,incomplete,false,true,NA,7,12,NA,orange,n_s_106.jpg,NA,NA,unpleasant,pleasant,NA,NA,NA,NA,NA,right,2036.09999999404,true,NA,NA,NA,NA,NA
H5MhNoDh,33tgb4g0msu3alll9rtp1nk6wbyxtf,3z7vu45ip2uttg7lzs22hmdeec31z2,H5MhNoDh,2020-0188,2021-10-15,16:03:29,17:33:27,NA,incomplete,false,true,NA,7,13,NA,orange,m_s_044.jpg,NA,NA,unpleasant,pleasant,NA,NA,NA,NA,NA,left,2000.89999999106,true,NA,NA,NA,NA,NA
H5MhNoDh,33tgb4g0msu3alll9rtp1nk6wbyxtf,3z7vu45ip2uttg7lzs22hmdeec31z2,H5MhNoDh,2020-0188,2021-10-15,16:03:29,17:33:27,NA,incomplete,false,true,NA,7,14,NA,orange,n_l_075.jpg,NA,NA,pleasant,unpleasant,NA,NA,NA,NA,NA,right,1737.90000000596,true,NA,NA,NA,NA,NA
H5MhNoDh,33tgb4g0msu3alll9rtp1nk6wbyxtf,3z7vu45ip2uttg7lzs22hmdeec31z2,H5MhNoDh,2020-0188,2021-10-15,16:03:29,17:33:27,NA,incomplete,false,true,NA,7,15,NA,orange,n_s_105.jpg,NA,NA,pleasant,unpleasant,NA,NA,NA,NA,NA,left,2028.09999999404,true,NA,NA,NA,NA,NA
H5MhNoDh,33tgb4g0msu3alll9rtp1nk6wbyxtf,3z7vu45ip2uttg7lzs22hmdeec31z2,H5MhNoDh,2020-0188,2021-10-15,16:03:29,17:33:27,NA,incomplete,false,true,NA,7,16,NA,orange,m_l_080.jpg,NA,NA,pleasant,unpleasant,NA,NA,NA,NA,NA,left,1202.80000001192,true,NA,NA,NA,NA,NA
H5MhNoDh,33tgb4g0msu3alll9rtp1nk6wbyxtf,3z7vu45ip2uttg7lzs22hmdeec31z2,H5MhNoDh,2020-0188,2021-10-15,16:03:29,17:33:27,NA,incomplete,false,true,NA,7,17,NA,orange,m_s_066.jpg,NA,NA,pleasant,unpleasant,NA,NA,NA,NA,NA,left,2284.79999999702,true,NA,NA,NA,NA,NA
H5MhNoDh,33tgb4g0msu3alll9rtp1nk6wbyxtf,3z7vu45ip2uttg7lzs22hmdeec31z2,H5MhNoDh,2020-0188,2021-10-15,16:03:29,17:33:27,NA,incomplete,false,true,NA,7,18,NA,green,m_s_018.jpg,NA,NA,unpleasant,pleasant,NA,NA,NA,NA,NA,right,1974.70000000298,true,NA,NA,NA,NA,NA
H5MhNoDh,33tgb4g0msu3alll9rtp1nk6wbyxtf,3z7vu45ip2uttg7lzs22hmdeec31z2,H5MhNoDh,2020-0188,2021-10-15,16:03:29,17:33:27,NA,incomplete,false,true,NA,7,19,NA,green,m_s_092.jpg,NA,NA,unpleasant,pleasant,NA,NA,NA,NA,NA,right,2064.70000000298,true,NA,NA,NA,NA,NA
H5MhNoDh,33tgb4g0msu3alll9rtp1nk6wbyxtf,3z7vu45ip2uttg7lzs22hmdeec31z2,H5MhNoDh,2020-0188,2021-10-15,16:03:29,17:33:27,NA,incomplete,false,true,NA,7,20,NA,green,m_s_020.jpg,NA,NA,unpleasant,pleasant,NA,NA,NA,NA,NA,right,1486.30000001192,true,NA,NA,NA,NA,NA
H5MhNoDh,33tgb4g0msu3alll9rtp1nk6wbyxtf,3z7vu45ip2uttg7lzs22hmdeec31z2,H5MhNoDh,2020-0188,2021-10-15,16:03:29,17:33:27,NA,incomplete,false,true,NA,7,21,NA,green,n_s_039.jpg,NA,NA,unpleasant,pleasant,NA,NA,NA,NA,NA,right,1302.29999999702,true,NA,NA,NA,NA,NA
H5MhNoDh,33tgb4g0msu3alll9rtp1nk6wbyxtf,3z7vu45ip2uttg7lzs22hmdeec31z2,H5MhNoDh,2020-0188,2021-10-15,16:03:29,17:33:27,NA,incomplete,false,true,NA,7,22,NA,green,m_l_110.jpg,NA,NA,unpleasant,pleasant,NA,NA,NA,NA,NA,left,1912.60000000894,true,NA,NA,NA,NA,NA
H5MhNoDh,33tgb4g0msu3alll9rtp1nk6wbyxtf,3z7vu45ip2uttg7lzs22hmdeec31z2,H5MhNoDh,2020-0188,2021-10-15,16:03:29,17:33:27,NA,incomplete,false,true,NA,7,23,NA,green,n_s_074.jpg,NA,NA,unpleasant,pleasant,NA,NA,NA,NA,NA,left,1810.79999999702,true,NA,NA,NA,NA,NA
H5MhNoDh,33tgb4g0msu3alll9rtp1nk6wbyxtf,3z7vu45ip2uttg7lzs22hmdeec31z2,H5MhNoDh,2020-0188,2021-10-15,16:03:29,17:33:27,NA,incomplete,false,true,NA,7,24,NA,blue,n_s_099.jpg,NA,NA,pleasant,unpleasant,NA,NA,NA,NA,NA,left,2033.70000000298,true,NA,NA,NA,NA,NA
H5MhNoDh,33tgb4g0msu3alll9rtp1nk6wbyxtf,3z7vu45ip2uttg7lzs22hmdeec31z2,H5MhNoDh,2020-0188,2021-10-15,16:03:29,17:33:27,NA,incomplete,false,true,NA,7,25,NA,blue,m_s_015.jpg,NA,NA,pleasant,unpleasant,NA,NA,NA,NA,NA,left,2204.10000000894,true,NA,NA,NA,NA,NA
H5MhNoDh,33tgb4g0msu3alll9rtp1nk6wbyxtf,3z7vu45ip2uttg7lzs22hmdeec31z2,H5MhNoDh,2020-0188,2021-10-15,16:03:29,17:33:27,NA,incomplete,false,true,NA,7,26,NA,blue,m_s_026.jpg,NA,NA,pleasant,unpleasant,NA,NA,NA,NA,NA,left,1814.29999999702,true,NA,NA,NA,NA,NA
H5MhNoDh,33tgb4g0msu3alll9rtp1nk6wbyxtf,3z7vu45ip2uttg7lzs22hmdeec31z2,H5MhNoDh,2020-0188,2021-10-15,16:03:29,17:33:27,NA,incomplete,false,true,NA,7,27,NA,blue,n_s_033.jpg,NA,NA,pleasant,unpleasant,NA,NA,NA,NA,NA,left,1238.59999999404,true,NA,NA,NA,NA,NA
H5MhNoDh,33tgb4g0msu3alll9rtp1nk6wbyxtf,3z7vu45ip2uttg7lzs22hmdeec31z2,H5MhNoDh,2020-0188,2021-10-15,16:03:29,17:33:27,NA,incomplete,false,true,NA,7,28,NA,blue,n_s_098.jpg,NA,NA,pleasant,unpleasant,NA,NA,NA,NA,NA,right,1182,true,NA,NA,NA,NA,NA
H5MhNoDh,33tgb4g0msu3alll9rtp1nk6wbyxtf,3z7vu45ip2uttg7lzs22hmdeec31z2,H5MhNoDh,2020-0188,2021-10-15,16:03:29,17:33:27,NA,incomplete,false,true,NA,7,29,NA,blue,n_s_095.jpg,NA,NA,pleasant,unpleasant,NA,NA,NA,NA,NA,left,2248.79999999702,true,NA,NA,NA,NA,NA
H5MhNoDh,33tgb4g0msu3alll9rtp1nk6wbyxtf,3z7vu45ip2uttg7lzs22hmdeec31z2,H5MhNoDh,2020-0188,2021-10-15,16:03:29,17:33:27,NA,incomplete,false,true,NA,7,30,NA,yellow,n_s_102.jpg,NA,NA,unpleasant,pleasant,NA,NA,NA,NA,NA,right,2814.79999999702,true,NA,NA,NA,NA,NA
H5MhNoDh,33tgb4g0msu3alll9rtp1nk6wbyxtf,3z7vu45ip2uttg7lzs22hmdeec31z2,H5MhNoDh,2020-0188,2021-10-15,16:03:29,17:33:27,NA,incomplete,false,true,NA,7,31,NA,yellow,m_l_078.jpg,NA,NA,pleasant,unpleasant,NA,NA,NA,NA,NA,left,2686.5,true,NA,NA,NA,NA,NA
H5MhNoDh,33tgb4g0msu3alll9rtp1nk6wbyxtf,3z7vu45ip2uttg7lzs22hmdeec31z2,H5MhNoDh,2020-0188,2021-10-15,16:03:29,17:33:27,NA,incomplete,false,true,NA,7,32,NA,yellow,n_s_037.jpg,NA,NA,pleasant,unpleasant,NA,NA,NA,NA,NA,left,1435.19999998808,true,NA,NA,NA,NA,NA
H5MhNoDh,33tgb4g0msu3alll9rtp1nk6wbyxtf,3z7vu45ip2uttg7lzs22hmdeec31z2,H5MhNoDh,2020-0188,2021-10-15,16:03:29,17:33:27,NA,incomplete,false,true,NA,7,33,NA,yellow,n_l_058.jpg,NA,NA,unpleasant,pleasant,NA,NA,NA,NA,NA,right,2461.79999999702,true,NA,NA,NA,NA,NA
H5MhNoDh,33tgb4g0msu3alll9rtp1nk6wbyxtf,3z7vu45ip2uttg7lzs22hmdeec31z2,H5MhNoDh,2020-0188,2021-10-15,16:03:29,17:33:27,NA,incomplete,false,true,NA,7,34,NA,yellow,n_l_078.jpg,NA,NA,pleasant,unpleasant,NA,NA,NA,NA,NA,left,2035.39999999106,true,NA,NA,NA,NA,NA
H5MhNoDh,33tgb4g0msu3alll9rtp1nk6wbyxtf,3z7vu45ip2uttg7lzs22hmdeec31z2,H5MhNoDh,2020-0188,2021-10-15,16:03:29,17:33:27,NA,incomplete,false,true,NA,7,35,NA,yellow,m_l_117.jpg,NA,NA,pleasant,unpleasant,NA,NA,NA,NA,NA,left,2372,true,NA,NA,NA,NA,NA
H5MhNoDh,33tgb4g0msu3alll9rtp1nk6wbyxtf,3z7vu45ip2uttg7lzs22hmdeec31z2,H5MhNoDh,2020-0188,2021-10-15,16:03:29,17:33:27,NA,incomplete,false,NA,true,7,0,NA,NA,NA,right,present,NA,NA,n_l_106.jpg,black,n_l_081.jpg,white,between,NA,NaN,NA,right,6161.70000000298,1,1,2007.5999999940395
H5MhNoDh,33tgb4g0msu3alll9rtp1nk6wbyxtf,3z7vu45ip2uttg7lzs22hmdeec31z2,H5MhNoDh,2020-0188,2021-10-15,16:03:29,17:33:27,NA,incomplete,false,NA,true,7,1,NA,NA,NA,left,present,NA,NA,m_l_080.jpg,orange,m_s_020.jpg,green,between,NA,NaN,NA,left,26319.90000000596,1,1,2817
H5MhNoDh,33tgb4g0msu3alll9rtp1nk6wbyxtf,3z7vu45ip2uttg7lzs22hmdeec31z2,H5MhNoDh,2020-0188,2021-10-15,16:03:29,17:33:27,NA,incomplete,false,NA,true,7,2,NA,NA,NA,right,present,NA,NA,m_s_066.jpg,orange,m_s_044.jpg,orange,within,NA,NaN,NA,left,16151.39999999106,0,0,1650.7999999970198
H5MhNoDh,33tgb4g0msu3alll9rtp1nk6wbyxtf,3z7vu45ip2uttg7lzs22hmdeec31z2,H5MhNoDh,2020-0188,2021-10-15,16:03:29,17:33:27,NA,incomplete,false,NA,true,7,3,NA,NA,NA,right,present,NA,NA,n_l_091.jpg,white,n_s_078.jpg,white,within,NA,NaN,NA,right,5126.600000008941,1,0,2156.4000000059605
H5MhNoDh,33tgb4g0msu3alll9rtp1nk6wbyxtf,3z7vu45ip2uttg7lzs22hmdeec31z2,H5MhNoDh,2020-0188,2021-10-15,16:03:29,17:33:27,NA,incomplete,false,NA,true,7,4,NA,NA,NA,right,present,NA,NA,n_s_074.jpg,green,m_s_092.jpg,green,within,NA,NaN,NA,right,2599.7999999970198,1,0,1409
H5MhNoDh,33tgb4g0msu3alll9rtp1nk6wbyxtf,3z7vu45ip2uttg7lzs22hmdeec31z2,H5MhNoDh,2020-0188,2021-10-15,16:03:29,17:33:27,NA,incomplete,false,NA,true,7,5,NA,NA,NA,left,present,NA,NA,m_s_015.jpg,blue,n_s_095.jpg,blue,within,NA,NaN,NA,left,4968.29999999702,1,0,1729.7000000029802
H5MhNoDh,33tgb4g0msu3alll9rtp1nk6wbyxtf,3z7vu45ip2uttg7lzs22hmdeec31z2,H5MhNoDh,2020-0188,2021-10-15,16:03:29,17:33:27,NA,incomplete,false,NA,true,7,6,NA,NA,NA,right,present,NA,NA,n_s_037.jpg,yellow,n_s_098.jpg,blue,between,NA,NaN,NA,right,6529,1,1,2334.7000000029802
H5MhNoDh,33tgb4g0msu3alll9rtp1nk6wbyxtf,3z7vu45ip2uttg7lzs22hmdeec31z2,H5MhNoDh,2020-0188,2021-10-15,16:03:29,17:33:27,NA,incomplete,false,NA,true,7,7,NA,NA,NA,left,present,NA,NA,n_s_049.jpg,black,m_s_115.jpg,black,within,NA,NaN,NA,left,3304,1,0,1790.7999999970198
H5MhNoDh,33tgb4g0msu3alll9rtp1nk6wbyxtf,3z7vu45ip2uttg7lzs22hmdeec31z2,H5MhNoDh,2020-0188,2021-10-15,16:03:29,17:33:27,NA,incomplete,false,NA,true,7,8,NA,NA,NA,left,present,NA,NA,m_l_078.jpg,yellow,m_l_117.jpg,yellow,within,NA,NaN,NA,left,5288.79999999702,1,0,1447.4000000059605
H5MhNoDh,33tgb4g0msu3alll9rtp1nk6wbyxtf,3z7vu45ip2uttg7lzs22hmdeec31z2,H5MhNoDh,2020-0188,2021-10-15,16:03:29,17:33:27,NA,incomplete,false,NA,true,7,9,NA,NA,NA,right,present,NA,NA,m_s_026.jpg,blue,m_l_110.jpg,green,between,NA,NaN,NA,right,4080.0999999940395,1,2,7196.79999999702
H5MhNoDh,33tgb4g0msu3alll9rtp1nk6wbyxtf,3z7vu45ip2uttg7lzs22hmdeec31z2,H5MhNoDh,2020-0188,2021-10-15,16:03:29,17:33:27,NA,incomplete,false,NA,true,7,10,NA,NA,NA,left,present,NA,NA,n_s_026.jpg,black,n_l_075.jpg,orange,between,NA,NaN,NA,left,3969.7000000029802,1,1,1737
H5MhNoDh,33tgb4g0msu3alll9rtp1nk6wbyxtf,3z7vu45ip2uttg7lzs22hmdeec31z2,H5MhNoDh,2020-0188,2021-10-15,16:03:29,17:33:27,NA,incomplete,false,true,NA,8,0,NA,yellow,n_s_043.jpg,NA,NA,unpleasant,pleasant,NA,NA,NA,NA,NA,left,1964.79999999702,true,NA,NA,NA,NA,NA
H5MhNoDh,33tgb4g0msu3alll9rtp1nk6wbyxtf,3z7vu45ip2uttg7lzs22hmdeec31z2,H5MhNoDh,2020-0188,2021-10-15,16:03:29,17:33:27,NA,incomplete,false,true,NA,8,1,NA,yellow,n_l_068.jpg,NA,NA,pleasant,unpleasant,NA,NA,NA,NA,NA,left,1802.29999999702,true,NA,NA,NA,NA,NA
H5MhNoDh,33tgb4g0msu3alll9rtp1nk6wbyxtf,3z7vu45ip2uttg7lzs22hmdeec31z2,H5MhNoDh,2020-0188,2021-10-15,16:03:29,17:33:27,NA,incomplete,false,true,NA,8,2,NA,yellow,n_l_063.jpg,NA,NA,unpleasant,pleasant,NA,NA,NA,NA,NA,right,1885.20000000298,true,NA,NA,NA,NA,NA
H5MhNoDh,33tgb4g0msu3alll9rtp1nk6wbyxtf,3z7vu45ip2uttg7lzs22hmdeec31z2,H5MhNoDh,2020-0188,2021-10-15,16:03:29,17:33:27,NA,incomplete,false,true,NA,8,3,NA,yellow,m_l_034.jpg,NA,NA,pleasant,unpleasant,NA,NA,NA,NA,NA,left,1457.5,true,NA,NA,NA,NA,NA
H5MhNoDh,33tgb4g0msu3alll9rtp1nk6wbyxtf,3z7vu45ip2uttg7lzs22hmdeec31z2,H5MhNoDh,2020-0188,2021-10-15,16:03:29,17:33:27,NA,incomplete,false,true,NA,8,4,NA,yellow,n_s_054.jpg,NA,NA,pleasant,unpleasant,NA,NA,NA,NA,NA,left,2047,true,NA,NA,NA,NA,NA
H5MhNoDh,33tgb4g0msu3alll9rtp1nk6wbyxtf,3z7vu45ip2uttg7lzs22hmdeec31z2,H5MhNoDh,2020-0188,2021-10-15,16:03:29,17:33:27,NA,incomplete,false,true,NA,8,5,NA,yellow,n_l_034.jpg,NA,NA,unpleasant,pleasant,NA,NA,NA,NA,NA,right,1256.20000000298,true,NA,NA,NA,NA,NA
H5MhNoDh,33tgb4g0msu3alll9rtp1nk6wbyxtf,3z7vu45ip2uttg7lzs22hmdeec31z2,H5MhNoDh,2020-0188,2021-10-15,16:03:29,17:33:27,NA,incomplete,false,true,NA,8,6,NA,orange,n_l_002.jpg,NA,NA,unpleasant,pleasant,NA,NA,NA,NA,NA,right,1759.90000000596,true,NA,NA,NA,NA,NA
H5MhNoDh,33tgb4g0msu3alll9rtp1nk6wbyxtf,3z7vu45ip2uttg7lzs22hmdeec31z2,H5MhNoDh,2020-0188,2021-10-15,16:03:29,17:33:27,NA,incomplete,false,true,NA,8,7,NA,orange,m_s_058.jpg,NA,NA,pleasant,unpleasant,NA,NA,NA,NA,NA,left,2787.59999999404,true,NA,NA,NA,NA,NA
H5MhNoDh,33tgb4g0msu3alll9rtp1nk6wbyxtf,3z7vu45ip2uttg7lzs22hmdeec31z2,H5MhNoDh,2020-0188,2021-10-15,16:03:29,17:33:27,NA,incomplete,false,true,NA,8,8,NA,orange,m_l_101.jpg,NA,NA,unpleasant,pleasant,NA,NA,NA,NA,NA,right,2061.20000000298,true,NA,NA,NA,NA,NA
