workerId,hitId,assignmentId,subject,studyid,exp_date,exp_start,exp_end,time_start,time_end,practice,encoding,memory,block,trial,event_order,event,stim,answer,context_type,label_left,label_right,left_image,left_event,right_image,right_event,condition,response,response_time,response_acc,order_response,order_response_time,order_acc,distance_response,distance_response_time
h6vV5rrU,322zsn9z6jxccjxbpgrk4cn83gtt4w,3rkntxvs3qb9k7wwai55yrt8h9ja4w,h6vV5rrU,2020-0188,2021-10-15,16:42:21,18:44:34,NA,incomplete,true,true,NA,0,0,NA,orange,m_l_017.jpg,NA,NA,pleasant,unpleasant,NA,NA,NA,NA,NA,left,1202,true,NA,NA,NA,NA,NA
h6vV5rrU,322zsn9z6jxccjxbpgrk4cn83gtt4w,3rkntxvs3qb9k7wwai55yrt8h9ja4w,h6vV5rrU,2020-0188,2021-10-15,16:42:21,18:44:34,NA,incomplete,true,true,NA,0,1,NA,orange,m_s_077.jpg,NA,NA,pleasant,unpleasant,NA,NA,NA,NA,NA,right,1115,true,NA,NA,NA,NA,NA
h6vV5rrU,322zsn9z6jxccjxbpgrk4cn83gtt4w,3rkntxvs3qb9k7wwai55yrt8h9ja4w,h6vV5rrU,2020-0188,2021-10-15,16:42:21,18:44:34,NA,incomplete,true,true,NA,0,2,NA,orange,n_s_057.jpg,NA,NA,pleasant,unpleasant,NA,NA,NA,NA,NA,right,1257,true,NA,NA,NA,NA,NA
h6vV5rrU,322zsn9z6jxccjxbpgrk4cn83gtt4w,3rkntxvs3qb9k7wwai55yrt8h9ja4w,h6vV5rrU,2020-0188,2021-10-15,16:42:21,18:44:34,NA,incomplete,true,true,NA,0,3,NA,orange,m_s_068.jpg,NA,NA,pleasant,unpleasant,NA,NA,NA,NA,NA,right,2567,true,NA,NA,NA,NA,NA
h6vV5rrU,322zsn9z6jxccjxbpgrk4cn83gtt4w,3rkntxvs3qb9k7wwai55yrt8h9ja4w,h6vV5rrU,2020-0188,2021-10-15,16:42:21,18:44:34,NA,incomplete,true,true,NA,0,4,NA,orange,m_l_103.jpg,NA,NA,pleasant,unpleasant,NA,NA,NA,NA,NA,left,1119,true,NA,NA,NA,NA,NA
h6vV5rrU,322zsn9z6jxccjxbpgrk4cn83gtt4w,3rkntxvs3qb9k7wwai55yrt8h9ja4w,h6vV5rrU,2020-0188,2021-10-15,16:42:21,18:44:34,NA,incomplete,true,true,NA,0,5,NA,orange,m_l_001.jpg,NA,NA,pleasant,unpleasant,NA,NA,NA,NA,NA,right,3192,true,NA,NA,NA,NA,NA
h6vV5rrU,322zsn9z6jxccjxbpgrk4cn83gtt4w,3rkntxvs3qb9k7wwai55yrt8h9ja4w,h6vV5rrU,2020-0188,2021-10-15,16:42:21,18:44:34,NA,incomplete,true,true,NA,0,6,NA,gray,n_s_080.jpg,NA,NA,pleasant,unpleasant,NA,NA,NA,NA,NA,right,1459,true,NA,NA,NA,NA,NA
h6vV5rrU,322zsn9z6jxccjxbpgrk4cn83gtt4w,3rkntxvs3qb9k7wwai55yrt8h9ja4w,h6vV5rrU,2020-0188,2021-10-15,16:42:21,18:44:34,NA,incomplete,true,true,NA,0,7,NA,gray,m_l_052.jpg,NA,NA,unpleasant,pleasant,NA,NA,NA,NA,NA,left,1103,true,NA,NA,NA,NA,NA
h6vV5rrU,322zsn9z6jxccjxbpgrk4cn83gtt4w,3rkntxvs3qb9k7wwai55yrt8h9ja4w,h6vV5rrU,2020-0188,2021-10-15,16:42:21,18:44:34,NA,incomplete,true,true,NA,0,8,NA,gray,m_l_101.jpg,NA,NA,unpleasant,pleasant,NA,NA,NA,NA,NA,right,1627,true,NA,NA,NA,NA,NA
h6vV5rrU,322zsn9z6jxccjxbpgrk4cn83gtt4w,3rkntxvs3qb9k7wwai55yrt8h9ja4w,h6vV5rrU,2020-0188,2021-10-15,16:42:21,18:44:34,NA,incomplete,true,true,NA,0,9,NA,gray,m_l_030.jpg,NA,NA,unpleasant,pleasant,NA,NA,NA,NA,NA,right,1265,true,NA,NA,NA,NA,NA
h6vV5rrU,322zsn9z6jxccjxbpgrk4cn83gtt4w,3rkntxvs3qb9k7wwai55yrt8h9ja4w,h6vV5rrU,2020-0188,2021-10-15,16:42:21,18:44:34,NA,incomplete,true,true,NA,0,10,NA,gray,m_s_091.jpg,NA,NA,unpleasant,pleasant,NA,NA,NA,NA,NA,left,1650,true,NA,NA,NA,NA,NA
h6vV5rrU,322zsn9z6jxccjxbpgrk4cn83gtt4w,3rkntxvs3qb9k7wwai55yrt8h9ja4w,h6vV5rrU,2020-0188,2021-10-15,16:42:21,18:44:34,NA,incomplete,true,true,NA,0,11,NA,gray,m_l_074.jpg,NA,NA,pleasant,unpleasant,NA,NA,NA,NA,NA,right,2100,true,NA,NA,NA,NA,NA
h6vV5rrU,322zsn9z6jxccjxbpgrk4cn83gtt4w,3rkntxvs3qb9k7wwai55yrt8h9ja4w,h6vV5rrU,2020-0188,2021-10-15,16:42:21,18:44:34,NA,incomplete,true,true,NA,0,12,NA,blue,m_l_051.jpg,NA,NA,unpleasant,pleasant,NA,NA,NA,NA,NA,right,1898,true,NA,NA,NA,NA,NA
h6vV5rrU,322zsn9z6jxccjxbpgrk4cn83gtt4w,3rkntxvs3qb9k7wwai55yrt8h9ja4w,h6vV5rrU,2020-0188,2021-10-15,16:42:21,18:44:34,NA,incomplete,true,true,NA,0,13,NA,blue,m_l_034.jpg,NA,NA,pleasant,unpleasant,NA,NA,NA,NA,NA,left,1581,true,NA,NA,NA,NA,NA
h6vV5rrU,322zsn9z6jxccjxbpgrk4cn83gtt4w,3rkntxvs3qb9k7wwai55yrt8h9ja4w,h6vV5rrU,2020-0188,2021-10-15,16:42:21,18:44:34,NA,incomplete,true,true,NA,0,14,NA,blue,n_l_112.jpg,NA,NA,unpleasant,pleasant,NA,NA,NA,NA,NA,left,1468,true,NA,NA,NA,NA,NA
h6vV5rrU,322zsn9z6jxccjxbpgrk4cn83gtt4w,3rkntxvs3qb9k7wwai55yrt8h9ja4w,h6vV5rrU,2020-0188,2021-10-15,16:42:21,18:44:34,NA,incomplete,true,true,NA,0,15,NA,blue,m_l_053.jpg,NA,NA,pleasant,unpleasant,NA,NA,NA,NA,NA,left,1419,true,NA,NA,NA,NA,NA
h6vV5rrU,322zsn9z6jxccjxbpgrk4cn83gtt4w,3rkntxvs3qb9k7wwai55yrt8h9ja4w,h6vV5rrU,2020-0188,2021-10-15,16:42:21,18:44:34,NA,incomplete,true,true,NA,0,16,NA,blue,n_s_112.jpg,NA,NA,pleasant,unpleasant,NA,NA,NA,NA,NA,right,1606,true,NA,NA,NA,NA,NA
h6vV5rrU,322zsn9z6jxccjxbpgrk4cn83gtt4w,3rkntxvs3qb9k7wwai55yrt8h9ja4w,h6vV5rrU,2020-0188,2021-10-15,16:42:21,18:44:34,NA,incomplete,true,true,NA,0,17,NA,blue,n_s_054.jpg,NA,NA,pleasant,unpleasant,NA,NA,NA,NA,NA,right,1635,true,NA,NA,NA,NA,NA
h6vV5rrU,322zsn9z6jxccjxbpgrk4cn83gtt4w,3rkntxvs3qb9k7wwai55yrt8h9ja4w,h6vV5rrU,2020-0188,2021-10-15,16:42:21,18:44:34,NA,incomplete,true,true,NA,0,18,NA,yellow,n_l_010.jpg,NA,NA,pleasant,unpleasant,NA,NA,NA,NA,NA,left,1511,true,NA,NA,NA,NA,NA
h6vV5rrU,322zsn9z6jxccjxbpgrk4cn83gtt4w,3rkntxvs3qb9k7wwai55yrt8h9ja4w,h6vV5rrU,2020-0188,2021-10-15,16:42:21,18:44:34,NA,incomplete,true,true,NA,0,19,NA,yellow,n_s_001.jpg,NA,NA,pleasant,unpleasant,NA,NA,NA,NA,NA,left,1586,true,NA,NA,NA,NA,NA
h6vV5rrU,322zsn9z6jxccjxbpgrk4cn83gtt4w,3rkntxvs3qb9k7wwai55yrt8h9ja4w,h6vV5rrU,2020-0188,2021-10-15,16:42:21,18:44:34,NA,incomplete,true,true,NA,0,20,NA,yellow,m_s_045.jpg,NA,NA,unpleasant,pleasant,NA,NA,NA,NA,NA,right,1543,true,NA,NA,NA,NA,NA
h6vV5rrU,322zsn9z6jxccjxbpgrk4cn83gtt4w,3rkntxvs3qb9k7wwai55yrt8h9ja4w,h6vV5rrU,2020-0188,2021-10-15,16:42:21,18:44:34,NA,incomplete,true,true,NA,0,21,NA,yellow,n_l_036.jpg,NA,NA,pleasant,unpleasant,NA,NA,NA,NA,NA,left,1146,true,NA,NA,NA,NA,NA
h6vV5rrU,322zsn9z6jxccjxbpgrk4cn83gtt4w,3rkntxvs3qb9k7wwai55yrt8h9ja4w,h6vV5rrU,2020-0188,2021-10-15,16:42:21,18:44:34,NA,incomplete,true,true,NA,0,22,NA,yellow,n_l_041.jpg,NA,NA,unpleasant,pleasant,NA,NA,NA,NA,NA,left,2307,true,NA,NA,NA,NA,NA
h6vV5rrU,322zsn9z6jxccjxbpgrk4cn83gtt4w,3rkntxvs3qb9k7wwai55yrt8h9ja4w,h6vV5rrU,2020-0188,2021-10-15,16:42:21,18:44:34,NA,incomplete,true,true,NA,0,23,NA,yellow,n_s_049.jpg,NA,NA,unpleasant,pleasant,NA,NA,NA,NA,NA,left,2100,true,NA,NA,NA,NA,NA
h6vV5rrU,322zsn9z6jxccjxbpgrk4cn83gtt4w,3rkntxvs3qb9k7wwai55yrt8h9ja4w,h6vV5rrU,2020-0188,2021-10-15,16:42:21,18:44:34,NA,incomplete,true,true,NA,0,24,NA,green,n_s_101.jpg,NA,NA,unpleasant,pleasant,NA,NA,NA,NA,NA,left,2954,true,NA,NA,NA,NA,NA
h6vV5rrU,322zsn9z6jxccjxbpgrk4cn83gtt4w,3rkntxvs3qb9k7wwai55yrt8h9ja4w,h6vV5rrU,2020-0188,2021-10-15,16:42:21,18:44:34,NA,incomplete,true,true,NA,0,25,NA,green,m_l_079.jpg,NA,NA,unpleasant,pleasant,NA,NA,NA,NA,NA,right,2183,true,NA,NA,NA,NA,NA
h6vV5rrU,322zsn9z6jxccjxbpgrk4cn83gtt4w,3rkntxvs3qb9k7wwai55yrt8h9ja4w,h6vV5rrU,2020-0188,2021-10-15,16:42:21,18:44:34,NA,incomplete,true,true,NA,0,26,NA,green,n_s_077.jpg,NA,NA,pleasant,unpleasant,NA,NA,NA,NA,NA,left,1594,true,NA,NA,NA,NA,NA
h6vV5rrU,322zsn9z6jxccjxbpgrk4cn83gtt4w,3rkntxvs3qb9k7wwai55yrt8h9ja4w,h6vV5rrU,2020-0188,2021-10-15,16:42:21,18:44:34,NA,incomplete,true,true,NA,0,27,NA,green,n_s_086.jpg,NA,NA,unpleasant,pleasant,NA,NA,NA,NA,NA,right,1893,true,NA,NA,NA,NA,NA
h6vV5rrU,322zsn9z6jxccjxbpgrk4cn83gtt4w,3rkntxvs3qb9k7wwai55yrt8h9ja4w,h6vV5rrU,2020-0188,2021-10-15,16:42:21,18:44:34,NA,incomplete,true,true,NA,0,28,NA,green,m_l_043.jpg,NA,NA,pleasant,unpleasant,NA,NA,NA,NA,NA,left,1465,true,NA,NA,NA,NA,NA
h6vV5rrU,322zsn9z6jxccjxbpgrk4cn83gtt4w,3rkntxvs3qb9k7wwai55yrt8h9ja4w,h6vV5rrU,2020-0188,2021-10-15,16:42:21,18:44:34,NA,incomplete,true,true,NA,0,29,NA,green,m_l_093.jpg,NA,NA,unpleasant,pleasant,NA,NA,NA,NA,NA,right,1738,true,NA,NA,NA,NA,NA
h6vV5rrU,322zsn9z6jxccjxbpgrk4cn83gtt4w,3rkntxvs3qb9k7wwai55yrt8h9ja4w,h6vV5rrU,2020-0188,2021-10-15,16:42:21,18:44:34,NA,incomplete,true,true,NA,0,30,NA,white,n_l_043.jpg,NA,NA,pleasant,unpleasant,NA,NA,NA,NA,NA,left,999,true,NA,NA,NA,NA,NA
h6vV5rrU,322zsn9z6jxccjxbpgrk4cn83gtt4w,3rkntxvs3qb9k7wwai55yrt8h9ja4w,h6vV5rrU,2020-0188,2021-10-15,16:42:21,18:44:34,NA,incomplete,true,true,NA,0,31,NA,white,n_s_050.jpg,NA,NA,pleasant,unpleasant,NA,NA,NA,NA,NA,right,1849,true,NA,NA,NA,NA,NA
h6vV5rrU,322zsn9z6jxccjxbpgrk4cn83gtt4w,3rkntxvs3qb9k7wwai55yrt8h9ja4w,h6vV5rrU,2020-0188,2021-10-15,16:42:21,18:44:34,NA,incomplete,true,true,NA,0,32,NA,white,n_l_056.jpg,NA,NA,pleasant,unpleasant,NA,NA,NA,NA,NA,left,1581,true,NA,NA,NA,NA,NA
h6vV5rrU,322zsn9z6jxccjxbpgrk4cn83gtt4w,3rkntxvs3qb9k7wwai55yrt8h9ja4w,h6vV5rrU,2020-0188,2021-10-15,16:42:21,18:44:34,NA,incomplete,true,true,NA,0,33,NA,white,n_s_114.jpg,NA,NA,unpleasant,pleasant,NA,NA,NA,NA,NA,left,1801,true,NA,NA,NA,NA,NA
h6vV5rrU,322zsn9z6jxccjxbpgrk4cn83gtt4w,3rkntxvs3qb9k7wwai55yrt8h9ja4w,h6vV5rrU,2020-0188,2021-10-15,16:42:21,18:44:34,NA,incomplete,true,true,NA,0,34,NA,white,m_l_058.jpg,NA,NA,pleasant,unpleasant,NA,NA,NA,NA,NA,left,1443,true,NA,NA,NA,NA,NA
h6vV5rrU,322zsn9z6jxccjxbpgrk4cn83gtt4w,3rkntxvs3qb9k7wwai55yrt8h9ja4w,h6vV5rrU,2020-0188,2021-10-15,16:42:21,18:44:34,NA,incomplete,true,true,NA,0,35,NA,white,m_l_075.jpg,NA,NA,pleasant,unpleasant,NA,NA,NA,NA,NA,right,2008,true,NA,NA,NA,NA,NA
h6vV5rrU,322zsn9z6jxccjxbpgrk4cn83gtt4w,3rkntxvs3qb9k7wwai55yrt8h9ja4w,h6vV5rrU,2020-0188,2021-10-15,16:42:21,18:44:34,NA,incomplete,true,NA,true,0,0,NA,NA,NA,left,absent,NA,NA,m_l_043.jpg,green,n_l_056.jpg,white,between,NA,NaN,NA,right,6973,0,1,15039
h6vV5rrU,322zsn9z6jxccjxbpgrk4cn83gtt4w,3rkntxvs3qb9k7wwai55yrt8h9ja4w,h6vV5rrU,2020-0188,2021-10-15,16:42:21,18:44:34,NA,incomplete,true,NA,true,0,1,NA,NA,NA,right,absent,NA,NA,n_s_054.jpg,blue,m_l_034.jpg,blue,within,NA,NaN,NA,right,14277,1,0,4350
h6vV5rrU,322zsn9z6jxccjxbpgrk4cn83gtt4w,3rkntxvs3qb9k7wwai55yrt8h9ja4w,h6vV5rrU,2020-0188,2021-10-15,16:42:21,18:44:34,NA,incomplete,true,NA,true,0,2,NA,NA,NA,right,absent,NA,NA,m_s_045.jpg,yellow,n_s_112.jpg,blue,between,NA,NaN,NA,left,3975,0,1,4977
h6vV5rrU,322zsn9z6jxccjxbpgrk4cn83gtt4w,3rkntxvs3qb9k7wwai55yrt8h9ja4w,h6vV5rrU,2020-0188,2021-10-15,16:42:21,18:44:34,NA,incomplete,true,NA,true,0,3,NA,NA,NA,left,absent,NA,NA,m_s_091.jpg,gray,n_l_112.jpg,blue,between,NA,NaN,NA,left,3460,1,2,2296
h6vV5rrU,322zsn9z6jxccjxbpgrk4cn83gtt4w,3rkntxvs3qb9k7wwai55yrt8h9ja4w,h6vV5rrU,2020-0188,2021-10-15,16:42:21,18:44:34,NA,incomplete,true,NA,true,0,4,NA,NA,NA,left,present,NA,NA,n_l_041.jpg,yellow,n_s_077.jpg,green,between,NA,NaN,NA,right,4619,0,1,2094
h6vV5rrU,322zsn9z6jxccjxbpgrk4cn83gtt4w,3rkntxvs3qb9k7wwai55yrt8h9ja4w,h6vV5rrU,2020-0188,2021-10-15,16:42:21,18:44:34,NA,incomplete,true,NA,true,0,5,NA,NA,NA,left,present,NA,NA,m_s_077.jpg,orange,m_l_001.jpg,orange,within,NA,NaN,NA,left,5567,1,0,2925
h6vV5rrU,322zsn9z6jxccjxbpgrk4cn83gtt4w,3rkntxvs3qb9k7wwai55yrt8h9ja4w,h6vV5rrU,2020-0188,2021-10-15,16:42:21,18:44:34,NA,incomplete,true,NA,true,0,6,NA,NA,NA,right,absent,NA,NA,n_s_049.jpg,yellow,n_s_001.jpg,yellow,within,NA,NaN,NA,right,4170,1,2,2746
h6vV5rrU,322zsn9z6jxccjxbpgrk4cn83gtt4w,3rkntxvs3qb9k7wwai55yrt8h9ja4w,h6vV5rrU,2020-0188,2021-10-15,16:42:21,18:44:34,NA,incomplete,true,NA,true,0,7,NA,NA,NA,right,absent,NA,NA,m_l_093.jpg,green,m_l_079.jpg,green,within,NA,NaN,NA,right,2328,1,2,1837
h6vV5rrU,322zsn9z6jxccjxbpgrk4cn83gtt4w,3rkntxvs3qb9k7wwai55yrt8h9ja4w,h6vV5rrU,2020-0188,2021-10-15,16:42:21,18:44:34,NA,incomplete,true,NA,true,0,8,NA,NA,NA,left,absent,NA,NA,m_l_052.jpg,gray,m_l_074.jpg,gray,within,NA,NaN,NA,right,5760,0,3,2024
h6vV5rrU,322zsn9z6jxccjxbpgrk4cn83gtt4w,3rkntxvs3qb9k7wwai55yrt8h9ja4w,h6vV5rrU,2020-0188,2021-10-15,16:42:21,18:44:34,NA,incomplete,true,NA,true,0,9,NA,NA,NA,right,absent,NA,NA,m_l_101.jpg,gray,m_l_103.jpg,orange,between,NA,NaN,NA,left,2603,0,2,1691
h6vV5rrU,322zsn9z6jxccjxbpgrk4cn83gtt4w,3rkntxvs3qb9k7wwai55yrt8h9ja4w,h6vV5rrU,2020-0188,2021-10-15,16:42:21,18:44:34,NA,incomplete,true,NA,true,0,10,NA,NA,NA,right,absent,NA,NA,m_l_075.jpg,white,n_s_050.jpg,white,within,NA,NaN,NA,right,4169,1,2,1781
h6vV5rrU,322zsn9z6jxccjxbpgrk4cn83gtt4w,3rkntxvs3qb9k7wwai55yrt8h9ja4w,h6vV5rrU,2020-0188,2021-10-15,16:42:21,18:44:34,NA,incomplete,false,true,NA,1,0,NA,purple,n_l_074.jpg,NA,NA,unpleasant,pleasant,NA,NA,NA,NA,NA,right,2477,true,NA,NA,NA,NA,NA
h6vV5rrU,322zsn9z6jxccjxbpgrk4cn83gtt4w,3rkntxvs3qb9k7wwai55yrt8h9ja4w,h6vV5rrU,2020-0188,2021-10-15,16:42:21,18:44:34,NA,incomplete,false,true,NA,1,1,NA,purple,m_l_045.jpg,NA,NA,unpleasant,pleasant,NA,NA,NA,NA,NA,right,2402,true,NA,NA,NA,NA,NA
h6vV5rrU,322zsn9z6jxccjxbpgrk4cn83gtt4w,3rkntxvs3qb9k7wwai55yrt8h9ja4w,h6vV5rrU,2020-0188,2021-10-15,16:42:21,18:44:34,NA,incomplete,false,true,NA,1,2,NA,purple,m_s_022.jpg,NA,NA,pleasant,unpleasant,NA,NA,NA,NA,NA,right,2695,true,NA,NA,NA,NA,NA
h6vV5rrU,322zsn9z6jxccjxbpgrk4cn83gtt4w,3rkntxvs3qb9k7wwai55yrt8h9ja4w,h6vV5rrU,2020-0188,2021-10-15,16:42:21,18:44:34,NA,incomplete,false,true,NA,1,3,NA,purple,n_l_085.jpg,NA,NA,unpleasant,pleasant,NA,NA,NA,NA,NA,right,1560,true,NA,NA,NA,NA,NA
h6vV5rrU,322zsn9z6jxccjxbpgrk4cn83gtt4w,3rkntxvs3qb9k7wwai55yrt8h9ja4w,h6vV5rrU,2020-0188,2021-10-15,16:42:21,18:44:34,NA,incomplete,false,true,NA,1,4,NA,purple,m_l_013.jpg,NA,NA,pleasant,unpleasant,NA,NA,NA,NA,NA,right,3344,true,NA,NA,NA,NA,NA
h6vV5rrU,322zsn9z6jxccjxbpgrk4cn83gtt4w,3rkntxvs3qb9k7wwai55yrt8h9ja4w,h6vV5rrU,2020-0188,2021-10-15,16:42:21,18:44:34,NA,incomplete,false,true,NA,1,5,NA,purple,m_l_033.jpg,NA,NA,pleasant,unpleasant,NA,NA,NA,NA,NA,right,1720,true,NA,NA,NA,NA,NA
h6vV5rrU,322zsn9z6jxccjxbpgrk4cn83gtt4w,3rkntxvs3qb9k7wwai55yrt8h9ja4w,h6vV5rrU,2020-0188,2021-10-15,16:42:21,18:44:34,NA,incomplete,false,true,NA,1,6,NA,orange,m_l_100.jpg,NA,NA,pleasant,unpleasant,NA,NA,NA,NA,NA,left,2308,true,NA,NA,NA,NA,NA
h6vV5rrU,322zsn9z6jxccjxbpgrk4cn83gtt4w,3rkntxvs3qb9k7wwai55yrt8h9ja4w,h6vV5rrU,2020-0188,2021-10-15,16:42:21,18:44:34,NA,incomplete,false,true,NA,1,7,NA,orange,n_s_093.jpg,NA,NA,pleasant,unpleasant,NA,NA,NA,NA,NA,right,1734,true,NA,NA,NA,NA,NA
h6vV5rrU,322zsn9z6jxccjxbpgrk4cn83gtt4w,3rkntxvs3qb9k7wwai55yrt8h9ja4w,h6vV5rrU,2020-0188,2021-10-15,16:42:21,18:44:34,NA,incomplete,false,true,NA,1,8,NA,orange,n_s_046.jpg,NA,NA,unpleasant,pleasant,NA,NA,NA,NA,NA,left,2531,true,NA,NA,NA,NA,NA
h6vV5rrU,322zsn9z6jxccjxbpgrk4cn83gtt4w,3rkntxvs3qb9k7wwai55yrt8h9ja4w,h6vV5rrU,2020-0188,2021-10-15,16:42:21,18:44:34,NA,incomplete,false,true,NA,1,9,NA,orange,m_s_028.jpg,NA,NA,unpleasant,pleasant,NA,NA,NA,NA,NA,right,1697,true,NA,NA,NA,NA,NA
h6vV5rrU,322zsn9z6jxccjxbpgrk4cn83gtt4w,3rkntxvs3qb9k7wwai55yrt8h9ja4w,h6vV5rrU,2020-0188,2021-10-15,16:42:21,18:44:34,NA,incomplete,false,true,NA,1,10,NA,orange,n_s_091.jpg,NA,NA,unpleasant,pleasant,NA,NA,NA,NA,NA,left,1955,true,NA,NA,NA,NA,NA
h6vV5rrU,322zsn9z6jxccjxbpgrk4cn83gtt4w,3rkntxvs3qb9k7wwai55yrt8h9ja4w,h6vV5rrU,2020-0188,2021-10-15,16:42:21,18:44:34,NA,incomplete,false,true,NA,1,11,NA,orange,m_s_017.jpg,NA,NA,pleasant,unpleasant,NA,NA,NA,NA,NA,left,2092,true,NA,NA,NA,NA,NA
h6vV5rrU,322zsn9z6jxccjxbpgrk4cn83gtt4w,3rkntxvs3qb9k7wwai55yrt8h9ja4w,h6vV5rrU,2020-0188,2021-10-15,16:42:21,18:44:34,NA,incomplete,false,true,NA,1,12,NA,blue,m_s_075.jpg,NA,NA,unpleasant,pleasant,NA,NA,NA,NA,NA,left,3001,true,NA,NA,NA,NA,NA
h6vV5rrU,322zsn9z6jxccjxbpgrk4cn83gtt4w,3rkntxvs3qb9k7wwai55yrt8h9ja4w,h6vV5rrU,2020-0188,2021-10-15,16:42:21,18:44:34,NA,incomplete,false,true,NA,1,13,NA,blue,m_s_038.jpg,NA,NA,unpleasant,pleasant,NA,NA,NA,NA,NA,left,2219,true,NA,NA,NA,NA,NA
h6vV5rrU,322zsn9z6jxccjxbpgrk4cn83gtt4w,3rkntxvs3qb9k7wwai55yrt8h9ja4w,h6vV5rrU,2020-0188,2021-10-15,16:42:21,18:44:34,NA,incomplete,false,true,NA,1,14,NA,blue,n_l_077.jpg,NA,NA,unpleasant,pleasant,NA,NA,NA,NA,NA,right,2079,true,NA,NA,NA,NA,NA
h6vV5rrU,322zsn9z6jxccjxbpgrk4cn83gtt4w,3rkntxvs3qb9k7wwai55yrt8h9ja4w,h6vV5rrU,2020-0188,2021-10-15,16:42:21,18:44:34,NA,incomplete,false,true,NA,1,15,NA,blue,n_l_021.jpg,NA,NA,unpleasant,pleasant,NA,NA,NA,NA,NA,right,1563,true,NA,NA,NA,NA,NA
h6vV5rrU,322zsn9z6jxccjxbpgrk4cn83gtt4w,3rkntxvs3qb9k7wwai55yrt8h9ja4w,h6vV5rrU,2020-0188,2021-10-15,16:42:21,18:44:34,NA,incomplete,false,true,NA,1,16,NA,blue,m_s_090.jpg,NA,NA,unpleasant,pleasant,NA,NA,NA,NA,NA,left,1653,true,NA,NA,NA,NA,NA
h6vV5rrU,322zsn9z6jxccjxbpgrk4cn83gtt4w,3rkntxvs3qb9k7wwai55yrt8h9ja4w,h6vV5rrU,2020-0188,2021-10-15,16:42:21,18:44:34,NA,incomplete,false,true,NA,1,17,NA,blue,m_s_079.jpg,NA,NA,unpleasant,pleasant,NA,NA,NA,NA,NA,left,2239,true,NA,NA,NA,NA,NA
h6vV5rrU,322zsn9z6jxccjxbpgrk4cn83gtt4w,3rkntxvs3qb9k7wwai55yrt8h9ja4w,h6vV5rrU,2020-0188,2021-10-15,16:42:21,18:44:34,NA,incomplete,false,true,NA,1,18,NA,black,m_s_063.jpg,NA,NA,unpleasant,pleasant,NA,NA,NA,NA,NA,left,2340,true,NA,NA,NA,NA,NA
h6vV5rrU,322zsn9z6jxccjxbpgrk4cn83gtt4w,3rkntxvs3qb9k7wwai55yrt8h9ja4w,h6vV5rrU,2020-0188,2021-10-15,16:42:21,18:44:34,NA,incomplete,false,true,NA,1,19,NA,black,n_l_023.jpg,NA,NA,unpleasant,pleasant,NA,NA,NA,NA,NA,right,1365,true,NA,NA,NA,NA,NA
h6vV5rrU,322zsn9z6jxccjxbpgrk4cn83gtt4w,3rkntxvs3qb9k7wwai55yrt8h9ja4w,h6vV5rrU,2020-0188,2021-10-15,16:42:21,18:44:34,NA,incomplete,false,true,NA,1,20,NA,black,m_l_080.jpg,NA,NA,pleasant,unpleasant,NA,NA,NA,NA,NA,left,2809,true,NA,NA,NA,NA,NA
h6vV5rrU,322zsn9z6jxccjxbpgrk4cn83gtt4w,3rkntxvs3qb9k7wwai55yrt8h9ja4w,h6vV5rrU,2020-0188,2021-10-15,16:42:21,18:44:34,NA,incomplete,false,true,NA,1,21,NA,black,m_s_005.jpg,NA,NA,unpleasant,pleasant,NA,NA,NA,NA,NA,right,2004,true,NA,NA,NA,NA,NA
h6vV5rrU,322zsn9z6jxccjxbpgrk4cn83gtt4w,3rkntxvs3qb9k7wwai55yrt8h9ja4w,h6vV5rrU,2020-0188,2021-10-15,16:42:21,18:44:34,NA,incomplete,false,true,NA,1,22,NA,black,m_s_080.jpg,NA,NA,pleasant,unpleasant,NA,NA,NA,NA,NA,left,2969,true,NA,NA,NA,NA,NA
h6vV5rrU,322zsn9z6jxccjxbpgrk4cn83gtt4w,3rkntxvs3qb9k7wwai55yrt8h9ja4w,h6vV5rrU,2020-0188,2021-10-15,16:42:21,18:44:34,NA,incomplete,false,true,NA,1,23,NA,black,m_l_117.jpg,NA,NA,unpleasant,pleasant,NA,NA,NA,NA,NA,right,2003,true,NA,NA,NA,NA,NA
h6vV5rrU,322zsn9z6jxccjxbpgrk4cn83gtt4w,3rkntxvs3qb9k7wwai55yrt8h9ja4w,h6vV5rrU,2020-0188,2021-10-15,16:42:21,18:44:34,NA,incomplete,false,true,NA,1,24,NA,white,m_s_048.jpg,NA,NA,pleasant,unpleasant,NA,NA,NA,NA,NA,right,2192,true,NA,NA,NA,NA,NA
h6vV5rrU,322zsn9z6jxccjxbpgrk4cn83gtt4w,3rkntxvs3qb9k7wwai55yrt8h9ja4w,h6vV5rrU,2020-0188,2021-10-15,16:42:21,18:44:34,NA,incomplete,false,true,NA,1,25,NA,white,n_s_074.jpg,NA,NA,unpleasant,pleasant,NA,NA,NA,NA,NA,left,1644,true,NA,NA,NA,NA,NA
h6vV5rrU,322zsn9z6jxccjxbpgrk4cn83gtt4w,3rkntxvs3qb9k7wwai55yrt8h9ja4w,h6vV5rrU,2020-0188,2021-10-15,16:42:21,18:44:34,NA,incomplete,false,true,NA,1,26,NA,white,n_s_033.jpg,NA,NA,pleasant,unpleasant,NA,NA,NA,NA,NA,right,2095,true,NA,NA,NA,NA,NA
h6vV5rrU,322zsn9z6jxccjxbpgrk4cn83gtt4w,3rkntxvs3qb9k7wwai55yrt8h9ja4w,h6vV5rrU,2020-0188,2021-10-15,16:42:21,18:44:34,NA,incomplete,false,true,NA,1,27,NA,white,m_l_056.jpg,NA,NA,pleasant,unpleasant,NA,NA,NA,NA,NA,left,1563,true,NA,NA,NA,NA,NA
h6vV5rrU,322zsn9z6jxccjxbpgrk4cn83gtt4w,3rkntxvs3qb9k7wwai55yrt8h9ja4w,h6vV5rrU,2020-0188,2021-10-15,16:42:21,18:44:34,NA,incomplete,false,true,NA,1,28,NA,white,m_l_021.jpg,NA,NA,pleasant,unpleasant,NA,NA,NA,NA,NA,right,1446,true,NA,NA,NA,NA,NA
h6vV5rrU,322zsn9z6jxccjxbpgrk4cn83gtt4w,3rkntxvs3qb9k7wwai55yrt8h9ja4w,h6vV5rrU,2020-0188,2021-10-15,16:42:21,18:44:34,NA,incomplete,false,true,NA,1,29,NA,white,n_l_005.jpg,NA,NA,pleasant,unpleasant,NA,NA,NA,NA,NA,left,1129,true,NA,NA,NA,NA,NA
h6vV5rrU,322zsn9z6jxccjxbpgrk4cn83gtt4w,3rkntxvs3qb9k7wwai55yrt8h9ja4w,h6vV5rrU,2020-0188,2021-10-15,16:42:21,18:44:34,NA,incomplete,false,true,NA,1,30,NA,yellow,m_l_116.jpg,NA,NA,pleasant,unpleasant,NA,NA,NA,NA,NA,left,1702,true,NA,NA,NA,NA,NA
h6vV5rrU,322zsn9z6jxccjxbpgrk4cn83gtt4w,3rkntxvs3qb9k7wwai55yrt8h9ja4w,h6vV5rrU,2020-0188,2021-10-15,16:42:21,18:44:34,NA,incomplete,false,true,NA,1,31,NA,yellow,n_l_047.jpg,NA,NA,pleasant,unpleasant,NA,NA,NA,NA,NA,right,1650,true,NA,NA,NA,NA,NA
h6vV5rrU,322zsn9z6jxccjxbpgrk4cn83gtt4w,3rkntxvs3qb9k7wwai55yrt8h9ja4w,h6vV5rrU,2020-0188,2021-10-15,16:42:21,18:44:34,NA,incomplete,false,true,NA,1,32,NA,yellow,m_s_043.jpg,NA,NA,unpleasant,pleasant,NA,NA,NA,NA,NA,left,1917,true,NA,NA,NA,NA,NA
h6vV5rrU,322zsn9z6jxccjxbpgrk4cn83gtt4w,3rkntxvs3qb9k7wwai55yrt8h9ja4w,h6vV5rrU,2020-0188,2021-10-15,16:42:21,18:44:34,NA,incomplete,false,true,NA,1,33,NA,yellow,n_s_110.jpg,NA,NA,pleasant,unpleasant,NA,NA,NA,NA,NA,left,1840,true,NA,NA,NA,NA,NA
h6vV5rrU,322zsn9z6jxccjxbpgrk4cn83gtt4w,3rkntxvs3qb9k7wwai55yrt8h9ja4w,h6vV5rrU,2020-0188,2021-10-15,16:42:21,18:44:34,NA,incomplete,false,true,NA,1,34,NA,yellow,m_s_051.jpg,NA,NA,pleasant,unpleasant,NA,NA,NA,NA,NA,right,2190,true,NA,NA,NA,NA,NA
h6vV5rrU,322zsn9z6jxccjxbpgrk4cn83gtt4w,3rkntxvs3qb9k7wwai55yrt8h9ja4w,h6vV5rrU,2020-0188,2021-10-15,16:42:21,18:44:34,NA,incomplete,false,true,NA,1,35,NA,yellow,m_l_088.jpg,NA,NA,pleasant,unpleasant,NA,NA,NA,NA,NA,left,2183,true,NA,NA,NA,NA,NA
h6vV5rrU,322zsn9z6jxccjxbpgrk4cn83gtt4w,3rkntxvs3qb9k7wwai55yrt8h9ja4w,h6vV5rrU,2020-0188,2021-10-15,16:42:21,18:44:34,NA,incomplete,false,NA,true,1,0,NA,NA,NA,right,absent,NA,NA,m_l_033.jpg,purple,m_l_045.jpg,purple,within,NA,NaN,NA,left,5070,0,2,1854
h6vV5rrU,322zsn9z6jxccjxbpgrk4cn83gtt4w,3rkntxvs3qb9k7wwai55yrt8h9ja4w,h6vV5rrU,2020-0188,2021-10-15,16:42:21,18:44:34,NA,incomplete,false,NA,true,1,1,NA,NA,NA,left,absent,NA,NA,m_l_013.jpg,purple,n_s_046.jpg,orange,between,NA,NaN,NA,right,3012,0,1,72325
h6vV5rrU,322zsn9z6jxccjxbpgrk4cn83gtt4w,3rkntxvs3qb9k7wwai55yrt8h9ja4w,h6vV5rrU,2020-0188,2021-10-15,16:42:21,18:44:34,NA,incomplete,false,NA,true,1,2,NA,NA,NA,right,absent,NA,NA,m_s_079.jpg,blue,m_s_038.jpg,blue,within,NA,NaN,NA,left,2077,0,1,2382
h6vV5rrU,322zsn9z6jxccjxbpgrk4cn83gtt4w,3rkntxvs3qb9k7wwai55yrt8h9ja4w,h6vV5rrU,2020-0188,2021-10-15,16:42:21,18:44:34,NA,incomplete,false,NA,true,1,3,NA,NA,NA,right,absent,NA,NA,n_l_005.jpg,white,n_s_074.jpg,white,within,NA,NaN,NA,right,8022,1,2,2889
h6vV5rrU,322zsn9z6jxccjxbpgrk4cn83gtt4w,3rkntxvs3qb9k7wwai55yrt8h9ja4w,h6vV5rrU,2020-0188,2021-10-15,16:42:21,18:44:34,NA,incomplete,false,NA,true,1,4,NA,NA,NA,right,absent,NA,NA,m_s_017.jpg,orange,n_s_093.jpg,orange,within,NA,NaN,NA,right,3247,1,1,6520
h6vV5rrU,322zsn9z6jxccjxbpgrk4cn83gtt4w,3rkntxvs3qb9k7wwai55yrt8h9ja4w,h6vV5rrU,2020-0188,2021-10-15,16:42:21,18:44:34,NA,incomplete,false,NA,true,1,5,NA,NA,NA,left,absent,NA,NA,n_s_091.jpg,orange,n_l_077.jpg,blue,between,NA,NaN,NA,left,4574,1,1,3119
h6vV5rrU,322zsn9z6jxccjxbpgrk4cn83gtt4w,3rkntxvs3qb9k7wwai55yrt8h9ja4w,h6vV5rrU,2020-0188,2021-10-15,16:42:21,18:44:34,NA,incomplete,false,NA,true,1,6,NA,NA,NA,left,absent,NA,NA,m_s_090.jpg,blue,m_l_080.jpg,black,between,NA,NaN,NA,right,4879,0,1,4008
h6vV5rrU,322zsn9z6jxccjxbpgrk4cn83gtt4w,3rkntxvs3qb9k7wwai55yrt8h9ja4w,h6vV5rrU,2020-0188,2021-10-15,16:42:21,18:44:34,NA,incomplete,false,NA,true,1,7,NA,NA,NA,left,absent,NA,NA,n_l_047.jpg,yellow,m_l_088.jpg,yellow,within,NA,NaN,NA,left,3343,1,1,2319
h6vV5rrU,322zsn9z6jxccjxbpgrk4cn83gtt4w,3rkntxvs3qb9k7wwai55yrt8h9ja4w,h6vV5rrU,2020-0188,2021-10-15,16:42:21,18:44:34,NA,incomplete,false,NA,true,1,8,NA,NA,NA,left,absent,NA,NA,m_s_080.jpg,black,n_s_033.jpg,white,between,NA,NaN,NA,left,3919,1,1,4280
h6vV5rrU,322zsn9z6jxccjxbpgrk4cn83gtt4w,3rkntxvs3qb9k7wwai55yrt8h9ja4w,h6vV5rrU,2020-0188,2021-10-15,16:42:21,18:44:34,NA,incomplete,false,NA,true,1,9,NA,NA,NA,right,absent,NA,NA,m_l_117.jpg,black,n_l_023.jpg,black,within,NA,NaN,NA,left,9262,0,2,43509
h6vV5rrU,322zsn9z6jxccjxbpgrk4cn83gtt4w,3rkntxvs3qb9k7wwai55yrt8h9ja4w,h6vV5rrU,2020-0188,2021-10-15,16:42:21,18:44:34,NA,incomplete,false,NA,true,1,10,NA,NA,NA,right,absent,NA,NA,m_s_043.jpg,yellow,m_l_021.jpg,white,between,NA,NaN,NA,left,3918,0,3,1070
h6vV5rrU,322zsn9z6jxccjxbpgrk4cn83gtt4w,3rkntxvs3qb9k7wwai55yrt8h9ja4w,h6vV5rrU,2020-0188,2021-10-15,16:42:21,18:44:34,NA,incomplete,false,true,NA,2,0,NA,white,m_l_047.jpg,NA,NA,unpleasant,pleasant,NA,NA,NA,NA,NA,right,2211,true,NA,NA,NA,NA,NA
h6vV5rrU,322zsn9z6jxccjxbpgrk4cn83gtt4w,3rkntxvs3qb9k7wwai55yrt8h9ja4w,h6vV5rrU,2020-0188,2021-10-15,16:42:21,18:44:34,NA,incomplete,false,true,NA,2,1,NA,white,m_s_101.jpg,NA,NA,unpleasant,pleasant,NA,NA,NA,NA,NA,left,2943,true,NA,NA,NA,NA,NA
h6vV5rrU,322zsn9z6jxccjxbpgrk4cn83gtt4w,3rkntxvs3qb9k7wwai55yrt8h9ja4w,h6vV5rrU,2020-0188,2021-10-15,16:42:21,18:44:34,NA,incomplete,false,true,NA,2,2,NA,white,m_s_064.jpg,NA,NA,pleasant,unpleasant,NA,NA,NA,NA,NA,left,2852,true,NA,NA,NA,NA,NA
h6vV5rrU,322zsn9z6jxccjxbpgrk4cn83gtt4w,3rkntxvs3qb9k7wwai55yrt8h9ja4w,h6vV5rrU,2020-0188,2021-10-15,16:42:21,18:44:34,NA,incomplete,false,true,NA,2,3,NA,white,m_l_077.jpg,NA,NA,pleasant,unpleasant,NA,NA,NA,NA,NA,left,1919,true,NA,NA,NA,NA,NA
h6vV5rrU,322zsn9z6jxccjxbpgrk4cn83gtt4w,3rkntxvs3qb9k7wwai55yrt8h9ja4w,h6vV5rrU,2020-0188,2021-10-15,16:42:21,18:44:34,NA,incomplete,false,true,NA,2,4,NA,white,n_s_067.jpg,NA,NA,pleasant,unpleasant,NA,NA,NA,NA,NA,right,2155,true,NA,NA,NA,NA,NA
h6vV5rrU,322zsn9z6jxccjxbpgrk4cn83gtt4w,3rkntxvs3qb9k7wwai55yrt8h9ja4w,h6vV5rrU,2020-0188,2021-10-15,16:42:21,18:44:34,NA,incomplete,false,true,NA,2,5,NA,white,n_s_089.jpg,NA,NA,unpleasant,pleasant,NA,NA,NA,NA,NA,right,1965,true,NA,NA,NA,NA,NA
h6vV5rrU,322zsn9z6jxccjxbpgrk4cn83gtt4w,3rkntxvs3qb9k7wwai55yrt8h9ja4w,h6vV5rrU,2020-0188,2021-10-15,16:42:21,18:44:34,NA,incomplete,false,true,NA,2,6,NA,green,n_s_094.jpg,NA,NA,unpleasant,pleasant,NA,NA,NA,NA,NA,right,3496,true,NA,NA,NA,NA,NA
h6vV5rrU,322zsn9z6jxccjxbpgrk4cn83gtt4w,3rkntxvs3qb9k7wwai55yrt8h9ja4w,h6vV5rrU,2020-0188,2021-10-15,16:42:21,18:44:34,NA,incomplete,false,true,NA,2,7,NA,green,m_s_099.jpg,NA,NA,pleasant,unpleasant,NA,NA,NA,NA,NA,right,1851,true,NA,NA,NA,NA,NA
h6vV5rrU,322zsn9z6jxccjxbpgrk4cn83gtt4w,3rkntxvs3qb9k7wwai55yrt8h9ja4w,h6vV5rrU,2020-0188,2021-10-15,16:42:21,18:44:34,NA,incomplete,false,true,NA,2,8,NA,green,m_l_027.jpg,NA,NA,pleasant,unpleasant,NA,NA,NA,NA,NA,left,2137,true,NA,NA,NA,NA,NA
h6vV5rrU,322zsn9z6jxccjxbpgrk4cn83gtt4w,3rkntxvs3qb9k7wwai55yrt8h9ja4w,h6vV5rrU,2020-0188,2021-10-15,16:42:21,18:44:34,NA,incomplete,false,true,NA,2,9,NA,green,n_l_003.jpg,NA,NA,unpleasant,pleasant,NA,NA,NA,NA,NA,right,1996,true,NA,NA,NA,NA,NA
h6vV5rrU,322zsn9z6jxccjxbpgrk4cn83gtt4w,3rkntxvs3qb9k7wwai55yrt8h9ja4w,h6vV5rrU,2020-0188,2021-10-15,16:42:21,18:44:34,NA,incomplete,false,true,NA,2,10,NA,green,n_l_092.jpg,NA,NA,pleasant,unpleasant,NA,NA,NA,NA,NA,left,1583,true,NA,NA,NA,NA,NA
h6vV5rrU,322zsn9z6jxccjxbpgrk4cn83gtt4w,3rkntxvs3qb9k7wwai55yrt8h9ja4w,h6vV5rrU,2020-0188,2021-10-15,16:42:21,18:44:34,NA,incomplete,false,true,NA,2,11,NA,green,m_l_057.jpg,NA,NA,unpleasant,pleasant,NA,NA,NA,NA,NA,left,2299,true,NA,NA,NA,NA,NA
h6vV5rrU,322zsn9z6jxccjxbpgrk4cn83gtt4w,3rkntxvs3qb9k7wwai55yrt8h9ja4w,h6vV5rrU,2020-0188,2021-10-15,16:42:21,18:44:34,NA,incomplete,false,true,NA,2,12,NA,blue,m_s_006.jpg,NA,NA,unpleasant,pleasant,NA,NA,NA,NA,NA,right,2277,true,NA,NA,NA,NA,NA
h6vV5rrU,322zsn9z6jxccjxbpgrk4cn83gtt4w,3rkntxvs3qb9k7wwai55yrt8h9ja4w,h6vV5rrU,2020-0188,2021-10-15,16:42:21,18:44:34,NA,incomplete,false,true,NA,2,13,NA,blue,n_s_003.jpg,NA,NA,pleasant,unpleasant,NA,NA,NA,NA,NA,right,1736,true,NA,NA,NA,NA,NA
h6vV5rrU,322zsn9z6jxccjxbpgrk4cn83gtt4w,3rkntxvs3qb9k7wwai55yrt8h9ja4w,h6vV5rrU,2020-0188,2021-10-15,16:42:21,18:44:34,NA,incomplete,false,true,NA,2,14,NA,blue,m_l_062.jpg,NA,NA,unpleasant,pleasant,NA,NA,NA,NA,NA,right,2156,true,NA,NA,NA,NA,NA
h6vV5rrU,322zsn9z6jxccjxbpgrk4cn83gtt4w,3rkntxvs3qb9k7wwai55yrt8h9ja4w,h6vV5rrU,2020-0188,2021-10-15,16:42:21,18:44:34,NA,incomplete,false,true,NA,2,15,NA,blue,m_s_049.jpg,NA,NA,pleasant,unpleasant,NA,NA,NA,NA,NA,right,1344,true,NA,NA,NA,NA,NA
h6vV5rrU,322zsn9z6jxccjxbpgrk4cn83gtt4w,3rkntxvs3qb9k7wwai55yrt8h9ja4w,h6vV5rrU,2020-0188,2021-10-15,16:42:21,18:44:34,NA,incomplete,false,true,NA,2,16,NA,blue,n_s_069.jpg,NA,NA,pleasant,unpleasant,NA,NA,NA,NA,NA,left,1267,true,NA,NA,NA,NA,NA
h6vV5rrU,322zsn9z6jxccjxbpgrk4cn83gtt4w,3rkntxvs3qb9k7wwai55yrt8h9ja4w,h6vV5rrU,2020-0188,2021-10-15,16:42:21,18:44:34,NA,incomplete,false,true,NA,2,17,NA,blue,n_s_018.jpg,NA,NA,pleasant,unpleasant,NA,NA,NA,NA,NA,right,1383,true,NA,NA,NA,NA,NA
h6vV5rrU,322zsn9z6jxccjxbpgrk4cn83gtt4w,3rkntxvs3qb9k7wwai55yrt8h9ja4w,h6vV5rrU,2020-0188,2021-10-15,16:42:21,18:44:34,NA,incomplete,false,true,NA,2,18,NA,orange,m_s_044.jpg,NA,NA,unpleasant,pleasant,NA,NA,NA,NA,NA,right,2434,true,NA,NA,NA,NA,NA
h6vV5rrU,322zsn9z6jxccjxbpgrk4cn83gtt4w,3rkntxvs3qb9k7wwai55yrt8h9ja4w,h6vV5rrU,2020-0188,2021-10-15,16:42:21,18:44:34,NA,incomplete,false,true,NA,2,19,NA,orange,m_l_024.jpg,NA,NA,unpleasant,pleasant,NA,NA,NA,NA,NA,right,2605,true,NA,NA,NA,NA,NA
h6vV5rrU,322zsn9z6jxccjxbpgrk4cn83gtt4w,3rkntxvs3qb9k7wwai55yrt8h9ja4w,h6vV5rrU,2020-0188,2021-10-15,16:42:21,18:44:34,NA,incomplete,false,true,NA,2,20,NA,orange,m_s_113.jpg,NA,NA,pleasant,unpleasant,NA,NA,NA,NA,NA,left,2201,true,NA,NA,NA,NA,NA
h6vV5rrU,322zsn9z6jxccjxbpgrk4cn83gtt4w,3rkntxvs3qb9k7wwai55yrt8h9ja4w,h6vV5rrU,2020-0188,2021-10-15,16:42:21,18:44:34,NA,incomplete,false,true,NA,2,21,NA,orange,m_s_015.jpg,NA,NA,pleasant,unpleasant,NA,NA,NA,NA,NA,right,1629,true,NA,NA,NA,NA,NA
h6vV5rrU,322zsn9z6jxccjxbpgrk4cn83gtt4w,3rkntxvs3qb9k7wwai55yrt8h9ja4w,h6vV5rrU,2020-0188,2021-10-15,16:42:21,18:44:34,NA,incomplete,false,true,NA,2,22,NA,orange,m_l_054.jpg,NA,NA,unpleasant,pleasant,NA,NA,NA,NA,NA,left,2708,true,NA,NA,NA,NA,NA
h6vV5rrU,322zsn9z6jxccjxbpgrk4cn83gtt4w,3rkntxvs3qb9k7wwai55yrt8h9ja4w,h6vV5rrU,2020-0188,2021-10-15,16:42:21,18:44:34,NA,incomplete,false,true,NA,2,23,NA,orange,n_l_053.jpg,NA,NA,pleasant,unpleasant,NA,NA,NA,NA,NA,left,1805,true,NA,NA,NA,NA,NA
h6vV5rrU,322zsn9z6jxccjxbpgrk4cn83gtt4w,3rkntxvs3qb9k7wwai55yrt8h9ja4w,h6vV5rrU,2020-0188,2021-10-15,16:42:21,18:44:34,NA,incomplete,false,true,NA,2,24,NA,black,n_l_015.jpg,NA,NA,unpleasant,pleasant,NA,NA,NA,NA,NA,right,1712,true,NA,NA,NA,NA,NA
h6vV5rrU,322zsn9z6jxccjxbpgrk4cn83gtt4w,3rkntxvs3qb9k7wwai55yrt8h9ja4w,h6vV5rrU,2020-0188,2021-10-15,16:42:21,18:44:34,NA,incomplete,false,true,NA,2,25,NA,black,n_l_102.jpg,NA,NA,pleasant,unpleasant,NA,NA,NA,NA,NA,left,1835,true,NA,NA,NA,NA,NA
h6vV5rrU,322zsn9z6jxccjxbpgrk4cn83gtt4w,3rkntxvs3qb9k7wwai55yrt8h9ja4w,h6vV5rrU,2020-0188,2021-10-15,16:42:21,18:44:34,NA,incomplete,false,true,NA,2,26,NA,black,n_l_071.jpg,NA,NA,pleasant,unpleasant,NA,NA,NA,NA,NA,left,2566,true,NA,NA,NA,NA,NA
h6vV5rrU,322zsn9z6jxccjxbpgrk4cn83gtt4w,3rkntxvs3qb9k7wwai55yrt8h9ja4w,h6vV5rrU,2020-0188,2021-10-15,16:42:21,18:44:34,NA,incomplete,false,true,NA,2,27,NA,black,n_s_036.jpg,NA,NA,unpleasant,pleasant,NA,NA,NA,NA,NA,right,1416,true,NA,NA,NA,NA,NA
h6vV5rrU,322zsn9z6jxccjxbpgrk4cn83gtt4w,3rkntxvs3qb9k7wwai55yrt8h9ja4w,h6vV5rrU,2020-0188,2021-10-15,16:42:21,18:44:34,NA,incomplete,false,true,NA,2,28,NA,black,m_l_083.jpg,NA,NA,pleasant,unpleasant,NA,NA,NA,NA,NA,right,2430,true,NA,NA,NA,NA,NA
h6vV5rrU,322zsn9z6jxccjxbpgrk4cn83gtt4w,3rkntxvs3qb9k7wwai55yrt8h9ja4w,h6vV5rrU,2020-0188,2021-10-15,16:42:21,18:44:34,NA,incomplete,false,true,NA,2,29,NA,black,m_l_104.jpg,NA,NA,pleasant,unpleasant,NA,NA,NA,NA,NA,left,2457,true,NA,NA,NA,NA,NA
h6vV5rrU,322zsn9z6jxccjxbpgrk4cn83gtt4w,3rkntxvs3qb9k7wwai55yrt8h9ja4w,h6vV5rrU,2020-0188,2021-10-15,16:42:21,18:44:34,NA,incomplete,false,true,NA,2,30,NA,yellow,n_l_117.jpg,NA,NA,unpleasant,pleasant,NA,NA,NA,NA,NA,right,988,true,NA,NA,NA,NA,NA
h6vV5rrU,322zsn9z6jxccjxbpgrk4cn83gtt4w,3rkntxvs3qb9k7wwai55yrt8h9ja4w,h6vV5rrU,2020-0188,2021-10-15,16:42:21,18:44:34,NA,incomplete,false,true,NA,2,31,NA,yellow,m_s_007.jpg,NA,NA,pleasant,unpleasant,NA,NA,NA,NA,NA,left,1744,true,NA,NA,NA,NA,NA
h6vV5rrU,322zsn9z6jxccjxbpgrk4cn83gtt4w,3rkntxvs3qb9k7wwai55yrt8h9ja4w,h6vV5rrU,2020-0188,2021-10-15,16:42:21,18:44:34,NA,incomplete,false,true,NA,2,32,NA,yellow,n_l_075.jpg,NA,NA,unpleasant,pleasant,NA,NA,NA,NA,NA,left,1844,true,NA,NA,NA,NA,NA
h6vV5rrU,322zsn9z6jxccjxbpgrk4cn83gtt4w,3rkntxvs3qb9k7wwai55yrt8h9ja4w,h6vV5rrU,2020-0188,2021-10-15,16:42:21,18:44:34,NA,incomplete,false,true,NA,2,33,NA,yellow,m_l_022.jpg,NA,NA,unpleasant,pleasant,NA,NA,NA,NA,NA,right,1333,true,NA,NA,NA,NA,NA
h6vV5rrU,322zsn9z6jxccjxbpgrk4cn83gtt4w,3rkntxvs3qb9k7wwai55yrt8h9ja4w,h6vV5rrU,2020-0188,2021-10-15,16:42:21,18:44:34,NA,incomplete,false,true,NA,2,34,NA,yellow,n_l_116.jpg,NA,NA,unpleasant,pleasant,NA,NA,NA,NA,NA,right,1538,true,NA,NA,NA,NA,NA
h6vV5rrU,322zsn9z6jxccjxbpgrk4cn83gtt4w,3rkntxvs3qb9k7wwai55yrt8h9ja4w,h6vV5rrU,2020-0188,2021-10-15,16:42:21,18:44:34,NA,incomplete,false,true,NA,2,35,NA,yellow,n_l_101.jpg,NA,NA,pleasant,unpleasant,NA,NA,NA,NA,NA,right,1678,true,NA,NA,NA,NA,NA
h6vV5rrU,322zsn9z6jxccjxbpgrk4cn83gtt4w,3rkntxvs3qb9k7wwai55yrt8h9ja4w,h6vV5rrU,2020-0188,2021-10-15,16:42:21,18:44:34,NA,incomplete,false,NA,true,2,0,NA,NA,NA,left,present,NA,NA,m_l_054.jpg,orange,n_l_071.jpg,black,between,NA,NaN,NA,left,3870,1,2,2525
h6vV5rrU,322zsn9z6jxccjxbpgrk4cn83gtt4w,3rkntxvs3qb9k7wwai55yrt8h9ja4w,h6vV5rrU,2020-0188,2021-10-15,16:42:21,18:44:34,NA,incomplete,false,NA,true,2,1,NA,NA,NA,right,present,NA,NA,m_l_062.jpg,blue,n_l_092.jpg,green,between,NA,NaN,NA,left,4030,0,2,2653
h6vV5rrU,322zsn9z6jxccjxbpgrk4cn83gtt4w,3rkntxvs3qb9k7wwai55yrt8h9ja4w,h6vV5rrU,2020-0188,2021-10-15,16:42:21,18:44:34,NA,incomplete,false,NA,true,2,2,NA,NA,NA,left,present,NA,NA,m_l_024.jpg,orange,n_l_053.jpg,orange,within,NA,NaN,NA,left,10125,1,1,2391
h6vV5rrU,322zsn9z6jxccjxbpgrk4cn83gtt4w,3rkntxvs3qb9k7wwai55yrt8h9ja4w,h6vV5rrU,2020-0188,2021-10-15,16:42:21,18:44:34,NA,incomplete,false,NA,true,2,3,NA,NA,NA,left,present,NA,NA,m_s_099.jpg,green,m_l_057.jpg,green,within,NA,NaN,NA,left,4110,1,2,1680
h6vV5rrU,322zsn9z6jxccjxbpgrk4cn83gtt4w,3rkntxvs3qb9k7wwai55yrt8h9ja4w,h6vV5rrU,2020-0188,2021-10-15,16:42:21,18:44:34,NA,incomplete,false,NA,true,2,4,NA,NA,NA,left,present,NA,NA,n_s_067.jpg,white,m_l_027.jpg,green,between,NA,NaN,NA,right,46391,0,2,2471
h6vV5rrU,322zsn9z6jxccjxbpgrk4cn83gtt4w,3rkntxvs3qb9k7wwai55yrt8h9ja4w,h6vV5rrU,2020-0188,2021-10-15,16:42:21,18:44:34,NA,incomplete,false,NA,true,2,5,NA,NA,NA,right,present,NA,NA,n_s_089.jpg,white,m_s_101.jpg,white,within,NA,NaN,NA,right,3476,1,1,2215
h6vV5rrU,322zsn9z6jxccjxbpgrk4cn83gtt4w,3rkntxvs3qb9k7wwai55yrt8h9ja4w,h6vV5rrU,2020-0188,2021-10-15,16:42:21,18:44:34,NA,incomplete,false,NA,true,2,6,NA,NA,NA,right,present,NA,NA,n_s_018.jpg,blue,n_s_003.jpg,blue,within,NA,NaN,NA,left,3367,0,2,2480
h6vV5rrU,322zsn9z6jxccjxbpgrk4cn83gtt4w,3rkntxvs3qb9k7wwai55yrt8h9ja4w,h6vV5rrU,2020-0188,2021-10-15,16:42:21,18:44:34,NA,incomplete,false,NA,true,2,7,NA,NA,NA,left,present,NA,NA,m_s_007.jpg,yellow,n_l_101.jpg,yellow,within,NA,NaN,NA,left,3919,1,0,4071
h6vV5rrU,322zsn9z6jxccjxbpgrk4cn83gtt4w,3rkntxvs3qb9k7wwai55yrt8h9ja4w,h6vV5rrU,2020-0188,2021-10-15,16:42:21,18:44:34,NA,incomplete,false,NA,true,2,8,NA,NA,NA,right,present,NA,NA,n_l_075.jpg,yellow,m_l_083.jpg,black,between,NA,NaN,NA,right,3364,1,1,1319
h6vV5rrU,322zsn9z6jxccjxbpgrk4cn83gtt4w,3rkntxvs3qb9k7wwai55yrt8h9ja4w,h6vV5rrU,2020-0188,2021-10-15,16:42:21,18:44:34,NA,incomplete,false,NA,true,2,9,NA,NA,NA,right,present,NA,NA,m_l_104.jpg,black,n_l_102.jpg,black,within,NA,NaN,NA,left,3031,0,2,1350
h6vV5rrU,322zsn9z6jxccjxbpgrk4cn83gtt4w,3rkntxvs3qb9k7wwai55yrt8h9ja4w,h6vV5rrU,2020-0188,2021-10-15,16:42:21,18:44:34,NA,incomplete,false,NA,true,2,10,NA,NA,NA,left,present,NA,NA,n_s_069.jpg,blue,m_s_113.jpg,orange,between,NA,NaN,NA,left,2733,1,1,1728
h6vV5rrU,322zsn9z6jxccjxbpgrk4cn83gtt4w,3rkntxvs3qb9k7wwai55yrt8h9ja4w,h6vV5rrU,2020-0188,2021-10-15,16:42:21,18:44:34,NA,incomplete,false,true,NA,3,0,NA,black,m_s_056.jpg,NA,NA,pleasant,unpleasant,NA,NA,NA,NA,NA,left,1942,true,NA,NA,NA,NA,NA
h6vV5rrU,322zsn9z6jxccjxbpgrk4cn83gtt4w,3rkntxvs3qb9k7wwai55yrt8h9ja4w,h6vV5rrU,2020-0188,2021-10-15,16:42:21,18:44:34,NA,incomplete,false,true,NA,3,1,NA,black,n_l_095.jpg,NA,NA,unpleasant,pleasant,NA,NA,NA,NA,NA,right,1248,true,NA,NA,NA,NA,NA
h6vV5rrU,322zsn9z6jxccjxbpgrk4cn83gtt4w,3rkntxvs3qb9k7wwai55yrt8h9ja4w,h6vV5rrU,2020-0188,2021-10-15,16:42:21,18:44:34,NA,incomplete,false,true,NA,3,2,NA,black,n_s_008.jpg,NA,NA,pleasant,unpleasant,NA,NA,NA,NA,NA,right,1967,true,NA,NA,NA,NA,NA
h6vV5rrU,322zsn9z6jxccjxbpgrk4cn83gtt4w,3rkntxvs3qb9k7wwai55yrt8h9ja4w,h6vV5rrU,2020-0188,2021-10-15,16:42:21,18:44:34,NA,incomplete,false,true,NA,3,3,NA,black,n_s_020.jpg,NA,NA,pleasant,unpleasant,NA,NA,NA,NA,NA,left,2646,true,NA,NA,NA,NA,NA
h6vV5rrU,322zsn9z6jxccjxbpgrk4cn83gtt4w,3rkntxvs3qb9k7wwai55yrt8h9ja4w,h6vV5rrU,2020-0188,2021-10-15,16:42:21,18:44:34,NA,incomplete,false,true,NA,3,4,NA,black,m_l_061.jpg,NA,NA,unpleasant,pleasant,NA,NA,NA,NA,NA,left,1756,true,NA,NA,NA,NA,NA
h6vV5rrU,322zsn9z6jxccjxbpgrk4cn83gtt4w,3rkntxvs3qb9k7wwai55yrt8h9ja4w,h6vV5rrU,2020-0188,2021-10-15,16:42:21,18:44:34,NA,incomplete,false,true,NA,3,5,NA,black,m_l_042.jpg,NA,NA,unpleasant,pleasant,NA,NA,NA,NA,NA,right,1615,true,NA,NA,NA,NA,NA
h6vV5rrU,322zsn9z6jxccjxbpgrk4cn83gtt4w,3rkntxvs3qb9k7wwai55yrt8h9ja4w,h6vV5rrU,2020-0188,2021-10-15,16:42:21,18:44:34,NA,incomplete,false,true,NA,3,6,NA,blue,n_s_098.jpg,NA,NA,pleasant,unpleasant,NA,NA,NA,NA,NA,left,1578,true,NA,NA,NA,NA,NA
h6vV5rrU,322zsn9z6jxccjxbpgrk4cn83gtt4w,3rkntxvs3qb9k7wwai55yrt8h9ja4w,h6vV5rrU,2020-0188,2021-10-15,16:42:21,18:44:34,NA,incomplete,false,true,NA,3,7,NA,blue,n_s_025.jpg,NA,NA,pleasant,unpleasant,NA,NA,NA,NA,NA,right,1645,true,NA,NA,NA,NA,NA
h6vV5rrU,322zsn9z6jxccjxbpgrk4cn83gtt4w,3rkntxvs3qb9k7wwai55yrt8h9ja4w,h6vV5rrU,2020-0188,2021-10-15,16:42:21,18:44:34,NA,incomplete,false,true,NA,3,8,NA,blue,m_s_070.jpg,NA,NA,pleasant,unpleasant,NA,NA,NA,NA,NA,right,2133,true,NA,NA,NA,NA,NA
h6vV5rrU,322zsn9z6jxccjxbpgrk4cn83gtt4w,3rkntxvs3qb9k7wwai55yrt8h9ja4w,h6vV5rrU,2020-0188,2021-10-15,16:42:21,18:44:34,NA,incomplete,false,true,NA,3,9,NA,blue,m_l_016.jpg,NA,NA,unpleasant,pleasant,NA,NA,NA,NA,NA,right,1869,true,NA,NA,NA,NA,NA
h6vV5rrU,322zsn9z6jxccjxbpgrk4cn83gtt4w,3rkntxvs3qb9k7wwai55yrt8h9ja4w,h6vV5rrU,2020-0188,2021-10-15,16:42:21,18:44:34,NA,incomplete,false,true,NA,3,10,NA,blue,m_l_094.jpg,NA,NA,pleasant,unpleasant,NA,NA,NA,NA,NA,right,2351,true,NA,NA,NA,NA,NA
h6vV5rrU,322zsn9z6jxccjxbpgrk4cn83gtt4w,3rkntxvs3qb9k7wwai55yrt8h9ja4w,h6vV5rrU,2020-0188,2021-10-15,16:42:21,18:44:34,NA,incomplete,false,true,NA,3,11,NA,blue,n_s_035.jpg,NA,NA,pleasant,unpleasant,NA,NA,NA,NA,NA,right,1892,true,NA,NA,NA,NA,NA
h6vV5rrU,322zsn9z6jxccjxbpgrk4cn83gtt4w,3rkntxvs3qb9k7wwai55yrt8h9ja4w,h6vV5rrU,2020-0188,2021-10-15,16:42:21,18:44:34,NA,incomplete,false,true,NA,3,12,NA,purple,n_s_037.jpg,NA,NA,pleasant,unpleasant,NA,NA,NA,NA,NA,left,1911,true,NA,NA,NA,NA,NA
h6vV5rrU,322zsn9z6jxccjxbpgrk4cn83gtt4w,3rkntxvs3qb9k7wwai55yrt8h9ja4w,h6vV5rrU,2020-0188,2021-10-15,16:42:21,18:44:34,NA,incomplete,false,true,NA,3,13,NA,purple,m_s_097.jpg,NA,NA,pleasant,unpleasant,NA,NA,NA,NA,NA,right,1363,true,NA,NA,NA,NA,NA
h6vV5rrU,322zsn9z6jxccjxbpgrk4cn83gtt4w,3rkntxvs3qb9k7wwai55yrt8h9ja4w,h6vV5rrU,2020-0188,2021-10-15,16:42:21,18:44:34,NA,incomplete,false,true,NA,3,14,NA,purple,n_l_052.jpg,NA,NA,pleasant,unpleasant,NA,NA,NA,NA,NA,right,1877,true,NA,NA,NA,NA,NA
h6vV5rrU,322zsn9z6jxccjxbpgrk4cn83gtt4w,3rkntxvs3qb9k7wwai55yrt8h9ja4w,h6vV5rrU,2020-0188,2021-10-15,16:42:21,18:44:34,NA,incomplete,false,true,NA,3,15,NA,purple,m_l_069.jpg,NA,NA,unpleasant,pleasant,NA,NA,NA,NA,NA,right,2689,true,NA,NA,NA,NA,NA
h6vV5rrU,322zsn9z6jxccjxbpgrk4cn83gtt4w,3rkntxvs3qb9k7wwai55yrt8h9ja4w,h6vV5rrU,2020-0188,2021-10-15,16:42:21,18:44:34,NA,incomplete,false,true,NA,3,16,NA,purple,n_s_060.jpg,NA,NA,unpleasant,pleasant,NA,NA,NA,NA,NA,right,2212,true,NA,NA,NA,NA,NA
h6vV5rrU,322zsn9z6jxccjxbpgrk4cn83gtt4w,3rkntxvs3qb9k7wwai55yrt8h9ja4w,h6vV5rrU,2020-0188,2021-10-15,16:42:21,18:44:34,NA,incomplete,false,true,NA,3,17,NA,purple,n_s_102.jpg,NA,NA,unpleasant,pleasant,NA,NA,NA,NA,NA,left,2081,true,NA,NA,NA,NA,NA
h6vV5rrU,322zsn9z6jxccjxbpgrk4cn83gtt4w,3rkntxvs3qb9k7wwai55yrt8h9ja4w,h6vV5rrU,2020-0188,2021-10-15,16:42:21,18:44:34,NA,incomplete,false,true,NA,3,18,NA,gray,n_s_107.jpg,NA,NA,pleasant,unpleasant,NA,NA,NA,NA,NA,right,2685,true,NA,NA,NA,NA,NA
h6vV5rrU,322zsn9z6jxccjxbpgrk4cn83gtt4w,3rkntxvs3qb9k7wwai55yrt8h9ja4w,h6vV5rrU,2020-0188,2021-10-15,16:42:21,18:44:34,NA,incomplete,false,true,NA,3,19,NA,gray,m_l_039.jpg,NA,NA,pleasant,unpleasant,NA,NA,NA,NA,NA,right,2574,true,NA,NA,NA,NA,NA
h6vV5rrU,322zsn9z6jxccjxbpgrk4cn83gtt4w,3rkntxvs3qb9k7wwai55yrt8h9ja4w,h6vV5rrU,2020-0188,2021-10-15,16:42:21,18:44:34,NA,incomplete,false,true,NA,3,20,NA,gray,m_l_067.jpg,NA,NA,pleasant,unpleasant,NA,NA,NA,NA,NA,right,3085,true,NA,NA,NA,NA,NA
h6vV5rrU,322zsn9z6jxccjxbpgrk4cn83gtt4w,3rkntxvs3qb9k7wwai55yrt8h9ja4w,h6vV5rrU,2020-0188,2021-10-15,16:42:21,18:44:34,NA,incomplete,false,true,NA,3,21,NA,gray,n_s_065.jpg,NA,NA,pleasant,unpleasant,NA,NA,NA,NA,NA,left,1358,true,NA,NA,NA,NA,NA
h6vV5rrU,322zsn9z6jxccjxbpgrk4cn83gtt4w,3rkntxvs3qb9k7wwai55yrt8h9ja4w,h6vV5rrU,2020-0188,2021-10-15,16:42:21,18:44:34,NA,incomplete,false,true,NA,3,22,NA,gray,n_l_031.jpg,NA,NA,pleasant,unpleasant,NA,NA,NA,NA,NA,left,1570,true,NA,NA,NA,NA,NA
h6vV5rrU,322zsn9z6jxccjxbpgrk4cn83gtt4w,3rkntxvs3qb9k7wwai55yrt8h9ja4w,h6vV5rrU,2020-0188,2021-10-15,16:42:21,18:44:34,NA,incomplete,false,true,NA,3,23,NA,gray,n_s_005.jpg,NA,NA,unpleasant,pleasant,NA,NA,NA,NA,NA,right,1797,true,NA,NA,NA,NA,NA
h6vV5rrU,322zsn9z6jxccjxbpgrk4cn83gtt4w,3rkntxvs3qb9k7wwai55yrt8h9ja4w,h6vV5rrU,2020-0188,2021-10-15,16:42:21,18:44:34,NA,incomplete,false,true,NA,3,24,NA,white,m_s_105.jpg,NA,NA,unpleasant,pleasant,NA,NA,NA,NA,NA,left,2001,true,NA,NA,NA,NA,NA
h6vV5rrU,322zsn9z6jxccjxbpgrk4cn83gtt4w,3rkntxvs3qb9k7wwai55yrt8h9ja4w,h6vV5rrU,2020-0188,2021-10-15,16:42:21,18:44:34,NA,incomplete,false,true,NA,3,25,NA,white,n_l_022.jpg,NA,NA,pleasant,unpleasant,NA,NA,NA,NA,NA,left,1709,true,NA,NA,NA,NA,NA
h6vV5rrU,322zsn9z6jxccjxbpgrk4cn83gtt4w,3rkntxvs3qb9k7wwai55yrt8h9ja4w,h6vV5rrU,2020-0188,2021-10-15,16:42:21,18:44:34,NA,incomplete,false,true,NA,3,26,NA,white,m_l_041.jpg,NA,NA,pleasant,unpleasant,NA,NA,NA,NA,NA,right,1120,true,NA,NA,NA,NA,NA
h6vV5rrU,322zsn9z6jxccjxbpgrk4cn83gtt4w,3rkntxvs3qb9k7wwai55yrt8h9ja4w,h6vV5rrU,2020-0188,2021-10-15,16:42:21,18:44:34,NA,incomplete,false,true,NA,3,27,NA,white,m_l_009.jpg,NA,NA,pleasant,unpleasant,NA,NA,NA,NA,NA,left,1214,true,NA,NA,NA,NA,NA
h6vV5rrU,322zsn9z6jxccjxbpgrk4cn83gtt4w,3rkntxvs3qb9k7wwai55yrt8h9ja4w,h6vV5rrU,2020-0188,2021-10-15,16:42:21,18:44:34,NA,incomplete,false,true,NA,3,28,NA,white,m_l_036.jpg,NA,NA,unpleasant,pleasant,NA,NA,NA,NA,NA,right,1934,true,NA,NA,NA,NA,NA
h6vV5rrU,322zsn9z6jxccjxbpgrk4cn83gtt4w,3rkntxvs3qb9k7wwai55yrt8h9ja4w,h6vV5rrU,2020-0188,2021-10-15,16:42:21,18:44:34,NA,incomplete,false,true,NA,3,29,NA,white,n_l_060.jpg,NA,NA,unpleasant,pleasant,NA,NA,NA,NA,NA,right,1346,true,NA,NA,NA,NA,NA
h6vV5rrU,322zsn9z6jxccjxbpgrk4cn83gtt4w,3rkntxvs3qb9k7wwai55yrt8h9ja4w,h6vV5rrU,2020-0188,2021-10-15,16:42:21,18:44:34,NA,incomplete,false,true,NA,3,30,NA,green,m_s_052.jpg,NA,NA,pleasant,unpleasant,NA,NA,NA,NA,NA,right,1349,true,NA,NA,NA,NA,NA
h6vV5rrU,322zsn9z6jxccjxbpgrk4cn83gtt4w,3rkntxvs3qb9k7wwai55yrt8h9ja4w,h6vV5rrU,2020-0188,2021-10-15,16:42:21,18:44:34,NA,incomplete,false,true,NA,3,31,NA,green,m_l_026.jpg,NA,NA,pleasant,unpleasant,NA,NA,NA,NA,NA,left,1289,true,NA,NA,NA,NA,NA
h6vV5rrU,322zsn9z6jxccjxbpgrk4cn83gtt4w,3rkntxvs3qb9k7wwai55yrt8h9ja4w,h6vV5rrU,2020-0188,2021-10-15,16:42:21,18:44:34,NA,incomplete,false,true,NA,3,32,NA,green,m_l_049.jpg,NA,NA,pleasant,unpleasant,NA,NA,NA,NA,NA,left,1460,true,NA,NA,NA,NA,NA
h6vV5rrU,322zsn9z6jxccjxbpgrk4cn83gtt4w,3rkntxvs3qb9k7wwai55yrt8h9ja4w,h6vV5rrU,2020-0188,2021-10-15,16:42:21,18:44:34,NA,incomplete,false,true,NA,3,33,NA,green,m_l_010.jpg,NA,NA,unpleasant,pleasant,NA,NA,NA,NA,NA,right,1429,true,NA,NA,NA,NA,NA
h6vV5rrU,322zsn9z6jxccjxbpgrk4cn83gtt4w,3rkntxvs3qb9k7wwai55yrt8h9ja4w,h6vV5rrU,2020-0188,2021-10-15,16:42:21,18:44:34,NA,incomplete,false,true,NA,3,34,NA,green,n_l_020.jpg,NA,NA,unpleasant,pleasant,NA,NA,NA,NA,NA,right,1164,true,NA,NA,NA,NA,NA
h6vV5rrU,322zsn9z6jxccjxbpgrk4cn83gtt4w,3rkntxvs3qb9k7wwai55yrt8h9ja4w,h6vV5rrU,2020-0188,2021-10-15,16:42:21,18:44:34,NA,incomplete,false,true,NA,3,35,NA,green,n_s_028.jpg,NA,NA,unpleasant,pleasant,NA,NA,NA,NA,NA,right,3007,true,NA,NA,NA,NA,NA
h6vV5rrU,322zsn9z6jxccjxbpgrk4cn83gtt4w,3rkntxvs3qb9k7wwai55yrt8h9ja4w,h6vV5rrU,2020-0188,2021-10-15,16:42:21,18:44:34,NA,incomplete,false,NA,true,3,0,NA,NA,NA,left,absent,NA,NA,m_l_026.jpg,green,n_s_028.jpg,green,within,NA,NaN,NA,right,2983,0,2,1774
h6vV5rrU,322zsn9z6jxccjxbpgrk4cn83gtt4w,3rkntxvs3qb9k7wwai55yrt8h9ja4w,h6vV5rrU,2020-0188,2021-10-15,16:42:21,18:44:34,NA,incomplete,false,NA,true,3,1,NA,NA,NA,right,absent,NA,NA,m_l_041.jpg,white,n_l_031.jpg,gray,between,NA,NaN,NA,left,4805,0,2,2041
h6vV5rrU,322zsn9z6jxccjxbpgrk4cn83gtt4w,3rkntxvs3qb9k7wwai55yrt8h9ja4w,h6vV5rrU,2020-0188,2021-10-15,16:42:21,18:44:34,NA,incomplete,false,NA,true,3,2,NA,NA,NA,left,absent,NA,NA,m_l_039.jpg,gray,n_s_005.jpg,gray,within,NA,NaN,NA,right,4182,0,1,2309
h6vV5rrU,322zsn9z6jxccjxbpgrk4cn83gtt4w,3rkntxvs3qb9k7wwai55yrt8h9ja4w,h6vV5rrU,2020-0188,2021-10-15,16:42:21,18:44:34,NA,incomplete,false,NA,true,3,3,NA,NA,NA,right,absent,NA,NA,n_s_102.jpg,purple,m_s_097.jpg,purple,within,NA,NaN,NA,right,5006,1,2,2222
h6vV5rrU,322zsn9z6jxccjxbpgrk4cn83gtt4w,3rkntxvs3qb9k7wwai55yrt8h9ja4w,h6vV5rrU,2020-0188,2021-10-15,16:42:21,18:44:34,NA,incomplete,false,NA,true,3,4,NA,NA,NA,left,absent,NA,NA,m_l_094.jpg,blue,n_l_052.jpg,purple,between,NA,NaN,NA,left,3510,1,2,1566
h6vV5rrU,322zsn9z6jxccjxbpgrk4cn83gtt4w,3rkntxvs3qb9k7wwai55yrt8h9ja4w,h6vV5rrU,2020-0188,2021-10-15,16:42:21,18:44:34,NA,incomplete,false,NA,true,3,5,NA,NA,NA,left,absent,NA,NA,n_l_095.jpg,black,m_l_042.jpg,black,within,NA,NaN,NA,left,5759,1,1,2109
h6vV5rrU,322zsn9z6jxccjxbpgrk4cn83gtt4w,3rkntxvs3qb9k7wwai55yrt8h9ja4w,h6vV5rrU,2020-0188,2021-10-15,16:42:21,18:44:34,NA,incomplete,false,NA,true,3,6,NA,NA,NA,left,absent,NA,NA,n_s_025.jpg,blue,n_s_035.jpg,blue,within,NA,NaN,NA,right,4271,0,1,1631
h6vV5rrU,322zsn9z6jxccjxbpgrk4cn83gtt4w,3rkntxvs3qb9k7wwai55yrt8h9ja4w,h6vV5rrU,2020-0188,2021-10-15,16:42:21,18:44:34,NA,incomplete,false,NA,true,3,7,NA,NA,NA,left,absent,NA,NA,m_l_061.jpg,black,m_s_070.jpg,blue,between,NA,NaN,NA,left,2438,1,0,4919
h6vV5rrU,322zsn9z6jxccjxbpgrk4cn83gtt4w,3rkntxvs3qb9k7wwai55yrt8h9ja4w,h6vV5rrU,2020-0188,2021-10-15,16:42:21,18:44:34,NA,incomplete,false,NA,true,3,8,NA,NA,NA,right,absent,NA,NA,m_l_067.jpg,gray,n_s_060.jpg,purple,between,NA,NaN,NA,right,4742,1,1,1902
h6vV5rrU,322zsn9z6jxccjxbpgrk4cn83gtt4w,3rkntxvs3qb9k7wwai55yrt8h9ja4w,h6vV5rrU,2020-0188,2021-10-15,16:42:21,18:44:34,NA,incomplete,false,NA,true,3,9,NA,NA,NA,right,absent,NA,NA,n_l_060.jpg,white,n_l_022.jpg,white,within,NA,NaN,NA,right,5143,1,1,2483
h6vV5rrU,322zsn9z6jxccjxbpgrk4cn83gtt4w,3rkntxvs3qb9k7wwai55yrt8h9ja4w,h6vV5rrU,2020-0188,2021-10-15,16:42:21,18:44:34,NA,incomplete,false,NA,true,3,10,NA,NA,NA,left,absent,NA,NA,m_l_036.jpg,white,m_l_049.jpg,green,between,NA,NaN,NA,left,2839,1,2,2942
h6vV5rrU,322zsn9z6jxccjxbpgrk4cn83gtt4w,3rkntxvs3qb9k7wwai55yrt8h9ja4w,h6vV5rrU,2020-0188,2021-10-15,16:42:21,18:44:34,NA,incomplete,false,true,NA,4,0,NA,brown,n_s_016.jpg,NA,NA,pleasant,unpleasant,NA,NA,NA,NA,NA,left,2524,true,NA,NA,NA,NA,NA
h6vV5rrU,322zsn9z6jxccjxbpgrk4cn83gtt4w,3rkntxvs3qb9k7wwai55yrt8h9ja4w,h6vV5rrU,2020-0188,2021-10-15,16:42:21,18:44:34,NA,incomplete,false,true,NA,4,1,NA,brown,n_s_099.jpg,NA,NA,pleasant,unpleasant,NA,NA,NA,NA,NA,left,1534,true,NA,NA,NA,NA,NA
h6vV5rrU,322zsn9z6jxccjxbpgrk4cn83gtt4w,3rkntxvs3qb9k7wwai55yrt8h9ja4w,h6vV5rrU,2020-0188,2021-10-15,16:42:21,18:44:34,NA,incomplete,false,true,NA,4,2,NA,brown,m_l_090.jpg,NA,NA,unpleasant,pleasant,NA,NA,NA,NA,NA,right,1946,true,NA,NA,NA,NA,NA
h6vV5rrU,322zsn9z6jxccjxbpgrk4cn83gtt4w,3rkntxvs3qb9k7wwai55yrt8h9ja4w,h6vV5rrU,2020-0188,2021-10-15,16:42:21,18:44:34,NA,incomplete,false,true,NA,4,3,NA,brown,n_l_028.jpg,NA,NA,pleasant,unpleasant,NA,NA,NA,NA,NA,left,2070,true,NA,NA,NA,NA,NA
h6vV5rrU,322zsn9z6jxccjxbpgrk4cn83gtt4w,3rkntxvs3qb9k7wwai55yrt8h9ja4w,h6vV5rrU,2020-0188,2021-10-15,16:42:21,18:44:34,NA,incomplete,false,true,NA,4,4,NA,brown,m_s_013.jpg,NA,NA,pleasant,unpleasant,NA,NA,NA,NA,NA,left,1370,true,NA,NA,NA,NA,NA
h6vV5rrU,322zsn9z6jxccjxbpgrk4cn83gtt4w,3rkntxvs3qb9k7wwai55yrt8h9ja4w,h6vV5rrU,2020-0188,2021-10-15,16:42:21,18:44:34,NA,incomplete,false,true,NA,4,5,NA,brown,m_l_025.jpg,NA,NA,pleasant,unpleasant,NA,NA,NA,NA,NA,right,1878,true,NA,NA,NA,NA,NA
h6vV5rrU,322zsn9z6jxccjxbpgrk4cn83gtt4w,3rkntxvs3qb9k7wwai55yrt8h9ja4w,h6vV5rrU,2020-0188,2021-10-15,16:42:21,18:44:34,NA,incomplete,false,true,NA,4,6,NA,blue,n_l_110.jpg,NA,NA,pleasant,unpleasant,NA,NA,NA,NA,NA,right,2201,true,NA,NA,NA,NA,NA
h6vV5rrU,322zsn9z6jxccjxbpgrk4cn83gtt4w,3rkntxvs3qb9k7wwai55yrt8h9ja4w,h6vV5rrU,2020-0188,2021-10-15,16:42:21,18:44:34,NA,incomplete,false,true,NA,4,7,NA,blue,n_s_117.jpg,NA,NA,pleasant,unpleasant,NA,NA,NA,NA,NA,right,1261,true,NA,NA,NA,NA,NA
h6vV5rrU,322zsn9z6jxccjxbpgrk4cn83gtt4w,3rkntxvs3qb9k7wwai55yrt8h9ja4w,h6vV5rrU,2020-0188,2021-10-15,16:42:21,18:44:34,NA,incomplete,false,true,NA,4,8,NA,blue,n_l_104.jpg,NA,NA,unpleasant,pleasant,NA,NA,NA,NA,NA,right,3472,true,NA,NA,NA,NA,NA
h6vV5rrU,322zsn9z6jxccjxbpgrk4cn83gtt4w,3rkntxvs3qb9k7wwai55yrt8h9ja4w,h6vV5rrU,2020-0188,2021-10-15,16:42:21,18:44:34,NA,incomplete,false,true,NA,4,9,NA,blue,n_l_087.jpg,NA,NA,pleasant,unpleasant,NA,NA,NA,NA,NA,left,2127,true,NA,NA,NA,NA,NA
h6vV5rrU,322zsn9z6jxccjxbpgrk4cn83gtt4w,3rkntxvs3qb9k7wwai55yrt8h9ja4w,h6vV5rrU,2020-0188,2021-10-15,16:42:21,18:44:34,NA,incomplete,false,true,NA,4,10,NA,blue,m_l_038.jpg,NA,NA,pleasant,unpleasant,NA,NA,NA,NA,NA,left,2242,true,NA,NA,NA,NA,NA
h6vV5rrU,322zsn9z6jxccjxbpgrk4cn83gtt4w,3rkntxvs3qb9k7wwai55yrt8h9ja4w,h6vV5rrU,2020-0188,2021-10-15,16:42:21,18:44:34,NA,incomplete,false,true,NA,4,11,NA,blue,n_l_033.jpg,NA,NA,unpleasant,pleasant,NA,NA,NA,NA,NA,left,2299,true,NA,NA,NA,NA,NA
h6vV5rrU,322zsn9z6jxccjxbpgrk4cn83gtt4w,3rkntxvs3qb9k7wwai55yrt8h9ja4w,h6vV5rrU,2020-0188,2021-10-15,16:42:21,18:44:34,NA,incomplete,false,true,NA,4,12,NA,purple,m_s_001.jpg,NA,NA,unpleasant,pleasant,NA,NA,NA,NA,NA,left,1670,true,NA,NA,NA,NA,NA
h6vV5rrU,322zsn9z6jxccjxbpgrk4cn83gtt4w,3rkntxvs3qb9k7wwai55yrt8h9ja4w,h6vV5rrU,2020-0188,2021-10-15,16:42:21,18:44:34,NA,incomplete,false,true,NA,4,13,NA,purple,n_l_009.jpg,NA,NA,unpleasant,pleasant,NA,NA,NA,NA,NA,right,1634,true,NA,NA,NA,NA,NA
h6vV5rrU,322zsn9z6jxccjxbpgrk4cn83gtt4w,3rkntxvs3qb9k7wwai55yrt8h9ja4w,h6vV5rrU,2020-0188,2021-10-15,16:42:21,18:44:34,NA,incomplete,false,true,NA,4,14,NA,purple,n_s_032.jpg,NA,NA,pleasant,unpleasant,NA,NA,NA,NA,NA,right,2621,true,NA,NA,NA,NA,NA
h6vV5rrU,322zsn9z6jxccjxbpgrk4cn83gtt4w,3rkntxvs3qb9k7wwai55yrt8h9ja4w,h6vV5rrU,2020-0188,2021-10-15,16:42:21,18:44:34,NA,incomplete,false,true,NA,4,15,NA,purple,m_s_096.jpg,NA,NA,pleasant,unpleasant,NA,NA,NA,NA,NA,right,2346,true,NA,NA,NA,NA,NA
h6vV5rrU,322zsn9z6jxccjxbpgrk4cn83gtt4w,3rkntxvs3qb9k7wwai55yrt8h9ja4w,h6vV5rrU,2020-0188,2021-10-15,16:42:21,18:44:34,NA,incomplete,false,true,NA,4,16,NA,purple,n_s_061.jpg,NA,NA,pleasant,unpleasant,NA,NA,NA,NA,NA,left,2014,true,NA,NA,NA,NA,NA
h6vV5rrU,322zsn9z6jxccjxbpgrk4cn83gtt4w,3rkntxvs3qb9k7wwai55yrt8h9ja4w,h6vV5rrU,2020-0188,2021-10-15,16:42:21,18:44:34,NA,incomplete,false,true,NA,4,17,NA,purple,n_l_051.jpg,NA,NA,unpleasant,pleasant,NA,NA,NA,NA,NA,right,1881,true,NA,NA,NA,NA,NA
h6vV5rrU,322zsn9z6jxccjxbpgrk4cn83gtt4w,3rkntxvs3qb9k7wwai55yrt8h9ja4w,h6vV5rrU,2020-0188,2021-10-15,16:42:21,18:44:34,NA,incomplete,false,true,NA,4,18,NA,black,m_l_071.jpg,NA,NA,unpleasant,pleasant,NA,NA,NA,NA,NA,right,1659,true,NA,NA,NA,NA,NA
h6vV5rrU,322zsn9z6jxccjxbpgrk4cn83gtt4w,3rkntxvs3qb9k7wwai55yrt8h9ja4w,h6vV5rrU,2020-0188,2021-10-15,16:42:21,18:44:34,NA,incomplete,false,true,NA,4,19,NA,black,m_l_108.jpg,NA,NA,unpleasant,pleasant,NA,NA,NA,NA,NA,right,1648,true,NA,NA,NA,NA,NA
h6vV5rrU,322zsn9z6jxccjxbpgrk4cn83gtt4w,3rkntxvs3qb9k7wwai55yrt8h9ja4w,h6vV5rrU,2020-0188,2021-10-15,16:42:21,18:44:34,NA,incomplete,false,true,NA,4,20,NA,black,m_l_060.jpg,NA,NA,unpleasant,pleasant,NA,NA,NA,NA,NA,left,2364,true,NA,NA,NA,NA,NA
h6vV5rrU,322zsn9z6jxccjxbpgrk4cn83gtt4w,3rkntxvs3qb9k7wwai55yrt8h9ja4w,h6vV5rrU,2020-0188,2021-10-15,16:42:21,18:44:34,NA,incomplete,false,true,NA,4,21,NA,black,n_s_087.jpg,NA,NA,pleasant,unpleasant,NA,NA,NA,NA,NA,left,1759,true,NA,NA,NA,NA,NA
h6vV5rrU,322zsn9z6jxccjxbpgrk4cn83gtt4w,3rkntxvs3qb9k7wwai55yrt8h9ja4w,h6vV5rrU,2020-0188,2021-10-15,16:42:21,18:44:34,NA,incomplete,false,true,NA,4,22,NA,black,m_s_029.jpg,NA,NA,unpleasant,pleasant,NA,NA,NA,NA,NA,right,1988,true,NA,NA,NA,NA,NA
h6vV5rrU,322zsn9z6jxccjxbpgrk4cn83gtt4w,3rkntxvs3qb9k7wwai55yrt8h9ja4w,h6vV5rrU,2020-0188,2021-10-15,16:42:21,18:44:34,NA,incomplete,false,true,NA,4,23,NA,black,n_l_070.jpg,NA,NA,pleasant,unpleasant,NA,NA,NA,NA,NA,left,1678,true,NA,NA,NA,NA,NA
h6vV5rrU,322zsn9z6jxccjxbpgrk4cn83gtt4w,3rkntxvs3qb9k7wwai55yrt8h9ja4w,h6vV5rrU,2020-0188,2021-10-15,16:42:21,18:44:34,NA,incomplete,false,true,NA,4,24,NA,orange,m_s_041.jpg,NA,NA,pleasant,unpleasant,NA,NA,NA,NA,NA,right,1513,true,NA,NA,NA,NA,NA
h6vV5rrU,322zsn9z6jxccjxbpgrk4cn83gtt4w,3rkntxvs3qb9k7wwai55yrt8h9ja4w,h6vV5rrU,2020-0188,2021-10-15,16:42:21,18:44:34,NA,incomplete,false,true,NA,4,25,NA,orange,n_s_004.jpg,NA,NA,pleasant,unpleasant,NA,NA,NA,NA,NA,left,2445,true,NA,NA,NA,NA,NA
h6vV5rrU,322zsn9z6jxccjxbpgrk4cn83gtt4w,3rkntxvs3qb9k7wwai55yrt8h9ja4w,h6vV5rrU,2020-0188,2021-10-15,16:42:21,18:44:34,NA,incomplete,false,true,NA,4,26,NA,orange,n_s_053.jpg,NA,NA,pleasant,unpleasant,NA,NA,NA,NA,NA,right,1226,true,NA,NA,NA,NA,NA
h6vV5rrU,322zsn9z6jxccjxbpgrk4cn83gtt4w,3rkntxvs3qb9k7wwai55yrt8h9ja4w,h6vV5rrU,2020-0188,2021-10-15,16:42:21,18:44:34,NA,incomplete,false,true,NA,4,27,NA,orange,n_s_106.jpg,NA,NA,pleasant,unpleasant,NA,NA,NA,NA,NA,left,1750,true,NA,NA,NA,NA,NA
h6vV5rrU,322zsn9z6jxccjxbpgrk4cn83gtt4w,3rkntxvs3qb9k7wwai55yrt8h9ja4w,h6vV5rrU,2020-0188,2021-10-15,16:42:21,18:44:34,NA,incomplete,false,true,NA,4,28,NA,orange,n_l_007.jpg,NA,NA,unpleasant,pleasant,NA,NA,NA,NA,NA,right,1721,true,NA,NA,NA,NA,NA
h6vV5rrU,322zsn9z6jxccjxbpgrk4cn83gtt4w,3rkntxvs3qb9k7wwai55yrt8h9ja4w,h6vV5rrU,2020-0188,2021-10-15,16:42:21,18:44:34,NA,incomplete,false,true,NA,4,29,NA,orange,n_l_057.jpg,NA,NA,pleasant,unpleasant,NA,NA,NA,NA,NA,left,2732,true,NA,NA,NA,NA,NA
h6vV5rrU,322zsn9z6jxccjxbpgrk4cn83gtt4w,3rkntxvs3qb9k7wwai55yrt8h9ja4w,h6vV5rrU,2020-0188,2021-10-15,16:42:21,18:44:34,NA,incomplete,false,true,NA,4,30,NA,gray,m_s_112.jpg,NA,NA,unpleasant,pleasant,NA,NA,NA,NA,NA,left,1928,true,NA,NA,NA,NA,NA
h6vV5rrU,322zsn9z6jxccjxbpgrk4cn83gtt4w,3rkntxvs3qb9k7wwai55yrt8h9ja4w,h6vV5rrU,2020-0188,2021-10-15,16:42:21,18:44:34,NA,incomplete,false,true,NA,4,31,NA,gray,m_s_021.jpg,NA,NA,pleasant,unpleasant,NA,NA,NA,NA,NA,right,2044,true,NA,NA,NA,NA,NA
h6vV5rrU,322zsn9z6jxccjxbpgrk4cn83gtt4w,3rkntxvs3qb9k7wwai55yrt8h9ja4w,h6vV5rrU,2020-0188,2021-10-15,16:42:21,18:44:34,NA,incomplete,false,true,NA,4,32,NA,gray,n_s_072.jpg,NA,NA,unpleasant,pleasant,NA,NA,NA,NA,NA,left,2421,true,NA,NA,NA,NA,NA
h6vV5rrU,322zsn9z6jxccjxbpgrk4cn83gtt4w,3rkntxvs3qb9k7wwai55yrt8h9ja4w,h6vV5rrU,2020-0188,2021-10-15,16:42:21,18:44:34,NA,incomplete,false,true,NA,4,33,NA,gray,m_s_069.jpg,NA,NA,unpleasant,pleasant,NA,NA,NA,NA,NA,right,2019,true,NA,NA,NA,NA,NA
h6vV5rrU,322zsn9z6jxccjxbpgrk4cn83gtt4w,3rkntxvs3qb9k7wwai55yrt8h9ja4w,h6vV5rrU,2020-0188,2021-10-15,16:42:21,18:44:34,NA,incomplete,false,true,NA,4,34,NA,gray,m_s_060.jpg,NA,NA,pleasant,unpleasant,NA,NA,NA,NA,NA,right,1646,true,NA,NA,NA,NA,NA
h6vV5rrU,322zsn9z6jxccjxbpgrk4cn83gtt4w,3rkntxvs3qb9k7wwai55yrt8h9ja4w,h6vV5rrU,2020-0188,2021-10-15,16:42:21,18:44:34,NA,incomplete,false,true,NA,4,35,NA,gray,n_s_026.jpg,NA,NA,pleasant,unpleasant,NA,NA,NA,NA,NA,right,1896,true,NA,NA,NA,NA,NA
h6vV5rrU,322zsn9z6jxccjxbpgrk4cn83gtt4w,3rkntxvs3qb9k7wwai55yrt8h9ja4w,h6vV5rrU,2020-0188,2021-10-15,16:42:21,18:44:34,NA,incomplete,false,NA,true,4,0,NA,NA,NA,left,present,NA,NA,m_l_108.jpg,black,n_l_070.jpg,black,within,NA,NaN,NA,right,3765,0,2,2307
h6vV5rrU,322zsn9z6jxccjxbpgrk4cn83gtt4w,3rkntxvs3qb9k7wwai55yrt8h9ja4w,h6vV5rrU,2020-0188,2021-10-15,16:42:21,18:44:34,NA,incomplete,false,NA,true,4,1,NA,NA,NA,left,present,NA,NA,n_s_099.jpg,brown,m_l_025.jpg,brown,within,NA,NaN,NA,left,3270,1,1,1342
h6vV5rrU,322zsn9z6jxccjxbpgrk4cn83gtt4w,3rkntxvs3qb9k7wwai55yrt8h9ja4w,h6vV5rrU,2020-0188,2021-10-15,16:42:21,18:44:34,NA,incomplete,false,NA,true,4,2,NA,NA,NA,left,present,NA,NA,m_l_038.jpg,blue,n_s_032.jpg,purple,between,NA,NaN,NA,left,3400,1,2,2791
h6vV5rrU,322zsn9z6jxccjxbpgrk4cn83gtt4w,3rkntxvs3qb9k7wwai55yrt8h9ja4w,h6vV5rrU,2020-0188,2021-10-15,16:42:21,18:44:34,NA,incomplete,false,NA,true,4,3,NA,NA,NA,left,present,NA,NA,m_s_029.jpg,black,n_s_053.jpg,orange,between,NA,NaN,NA,right,3391,0,1,2127
h6vV5rrU,322zsn9z6jxccjxbpgrk4cn83gtt4w,3rkntxvs3qb9k7wwai55yrt8h9ja4w,h6vV5rrU,2020-0188,2021-10-15,16:42:21,18:44:34,NA,incomplete,false,NA,true,4,4,NA,NA,NA,left,present,NA,NA,n_s_061.jpg,purple,m_l_060.jpg,black,between,NA,NaN,NA,right,5439,0,1,1831
h6vV5rrU,322zsn9z6jxccjxbpgrk4cn83gtt4w,3rkntxvs3qb9k7wwai55yrt8h9ja4w,h6vV5rrU,2020-0188,2021-10-15,16:42:21,18:44:34,NA,incomplete,false,NA,true,4,5,NA,NA,NA,right,present,NA,NA,n_l_057.jpg,orange,n_s_004.jpg,orange,within,NA,NaN,NA,right,3136,1,1,1903
h6vV5rrU,322zsn9z6jxccjxbpgrk4cn83gtt4w,3rkntxvs3qb9k7wwai55yrt8h9ja4w,h6vV5rrU,2020-0188,2021-10-15,16:42:21,18:44:34,NA,incomplete,false,NA,true,4,6,NA,NA,NA,right,present,NA,NA,n_l_033.jpg,blue,n_s_117.jpg,blue,within,NA,NaN,NA,right,4021,1,2,1551
h6vV5rrU,322zsn9z6jxccjxbpgrk4cn83gtt4w,3rkntxvs3qb9k7wwai55yrt8h9ja4w,h6vV5rrU,2020-0188,2021-10-15,16:42:21,18:44:34,NA,incomplete,false,NA,true,4,7,NA,NA,NA,left,present,NA,NA,n_l_009.jpg,purple,n_l_051.jpg,purple,within,NA,NaN,NA,left,2807,1,1,3375
h6vV5rrU,322zsn9z6jxccjxbpgrk4cn83gtt4w,3rkntxvs3qb9k7wwai55yrt8h9ja4w,h6vV5rrU,2020-0188,2021-10-15,16:42:21,18:44:34,NA,incomplete,false,NA,true,4,8,NA,NA,NA,left,present,NA,NA,m_s_013.jpg,brown,n_l_104.jpg,blue,between,NA,NaN,NA,left,4098,1,1,4614
h6vV5rrU,322zsn9z6jxccjxbpgrk4cn83gtt4w,3rkntxvs3qb9k7wwai55yrt8h9ja4w,h6vV5rrU,2020-0188,2021-10-15,16:42:21,18:44:34,NA,incomplete,false,NA,true,4,9,NA,NA,NA,right,present,NA,NA,n_s_026.jpg,gray,m_s_021.jpg,gray,within,NA,NaN,NA,left,5317,0,2,1633
h6vV5rrU,322zsn9z6jxccjxbpgrk4cn83gtt4w,3rkntxvs3qb9k7wwai55yrt8h9ja4w,h6vV5rrU,2020-0188,2021-10-15,16:42:21,18:44:34,NA,incomplete,false,NA,true,4,10,NA,NA,NA,left,present,NA,NA,n_l_007.jpg,orange,n_s_072.jpg,gray,between,NA,NaN,NA,left,4110,1,1,2295
h6vV5rrU,322zsn9z6jxccjxbpgrk4cn83gtt4w,3rkntxvs3qb9k7wwai55yrt8h9ja4w,h6vV5rrU,2020-0188,2021-10-15,16:42:21,18:44:34,NA,incomplete,false,true,NA,5,0,NA,red,n_s_090.jpg,NA,NA,unpleasant,pleasant,NA,NA,NA,NA,NA,none,0,false,NA,NA,NA,NA,NA
h6vV5rrU,322zsn9z6jxccjxbpgrk4cn83gtt4w,3rkntxvs3qb9k7wwai55yrt8h9ja4w,h6vV5rrU,2020-0188,2021-10-15,16:42:21,18:44:34,NA,incomplete,false,true,NA,5,1,NA,red,n_s_103.jpg,NA,NA,pleasant,unpleasant,NA,NA,NA,NA,NA,left,1914,true,NA,NA,NA,NA,NA
h6vV5rrU,322zsn9z6jxccjxbpgrk4cn83gtt4w,3rkntxvs3qb9k7wwai55yrt8h9ja4w,h6vV5rrU,2020-0188,2021-10-15,16:42:21,18:44:34,NA,incomplete,false,true,NA,5,2,NA,red,m_l_081.jpg,NA,NA,unpleasant,pleasant,NA,NA,NA,NA,NA,none,0,false,NA,NA,NA,NA,NA
h6vV5rrU,322zsn9z6jxccjxbpgrk4cn83gtt4w,3rkntxvs3qb9k7wwai55yrt8h9ja4w,h6vV5rrU,2020-0188,2021-10-15,16:42:21,18:44:34,NA,incomplete,false,true,NA,5,3,NA,red,n_l_065.jpg,NA,NA,pleasant,unpleasant,NA,NA,NA,NA,NA,left,1874,true,NA,NA,NA,NA,NA
h6vV5rrU,322zsn9z6jxccjxbpgrk4cn83gtt4w,3rkntxvs3qb9k7wwai55yrt8h9ja4w,h6vV5rrU,2020-0188,2021-10-15,16:42:21,18:44:34,NA,incomplete,false,true,NA,5,4,NA,red,m_s_065.jpg,NA,NA,pleasant,unpleasant,NA,NA,NA,NA,NA,none,0,false,NA,NA,NA,NA,NA
h6vV5rrU,322zsn9z6jxccjxbpgrk4cn83gtt4w,3rkntxvs3qb9k7wwai55yrt8h9ja4w,h6vV5rrU,2020-0188,2021-10-15,16:42:21,18:44:34,NA,incomplete,false,true,NA,5,5,NA,red,n_l_078.jpg,NA,NA,pleasant,unpleasant,NA,NA,NA,NA,NA,left,2785,true,NA,NA,NA,NA,NA
h6vV5rrU,322zsn9z6jxccjxbpgrk4cn83gtt4w,3rkntxvs3qb9k7wwai55yrt8h9ja4w,h6vV5rrU,2020-0188,2021-10-15,16:42:21,18:44:34,NA,incomplete,false,true,NA,5,6,NA,white,n_l_099.jpg,NA,NA,unpleasant,pleasant,NA,NA,NA,NA,NA,left,1542,true,NA,NA,NA,NA,NA
h6vV5rrU,322zsn9z6jxccjxbpgrk4cn83gtt4w,3rkntxvs3qb9k7wwai55yrt8h9ja4w,h6vV5rrU,2020-0188,2021-10-15,16:42:21,18:44:34,NA,incomplete,false,true,NA,5,7,NA,white,m_l_048.jpg,NA,NA,unpleasant,pleasant,NA,NA,NA,NA,NA,none,0,false,NA,NA,NA,NA,NA
h6vV5rrU,322zsn9z6jxccjxbpgrk4cn83gtt4w,3rkntxvs3qb9k7wwai55yrt8h9ja4w,h6vV5rrU,2020-0188,2021-10-15,16:42:21,18:44:34,NA,incomplete,false,true,NA,5,8,NA,white,m_s_050.jpg,NA,NA,unpleasant,pleasant,NA,NA,NA,NA,NA,left,2902,true,NA,NA,NA,NA,NA
h6vV5rrU,322zsn9z6jxccjxbpgrk4cn83gtt4w,3rkntxvs3qb9k7wwai55yrt8h9ja4w,h6vV5rrU,2020-0188,2021-10-15,16:42:21,18:44:34,NA,incomplete,false,true,NA,5,9,NA,white,m_l_112.jpg,NA,NA,unpleasant,pleasant,NA,NA,NA,NA,NA,none,0,false,NA,NA,NA,NA,NA
h6vV5rrU,322zsn9z6jxccjxbpgrk4cn83gtt4w,3rkntxvs3qb9k7wwai55yrt8h9ja4w,h6vV5rrU,2020-0188,2021-10-15,16:42:21,18:44:34,NA,incomplete,false,true,NA,5,10,NA,white,n_s_100.jpg,NA,NA,unpleasant,pleasant,NA,NA,NA,NA,NA,left,2348,true,NA,NA,NA,NA,NA
h6vV5rrU,322zsn9z6jxccjxbpgrk4cn83gtt4w,3rkntxvs3qb9k7wwai55yrt8h9ja4w,h6vV5rrU,2020-0188,2021-10-15,16:42:21,18:44:34,NA,incomplete,false,true,NA,5,11,NA,white,m_l_105.jpg,NA,NA,unpleasant,pleasant,NA,NA,NA,NA,NA,none,0,false,NA,NA,NA,NA,NA
h6vV5rrU,322zsn9z6jxccjxbpgrk4cn83gtt4w,3rkntxvs3qb9k7wwai55yrt8h9ja4w,h6vV5rrU,2020-0188,2021-10-15,16:42:21,18:44:34,NA,incomplete,false,true,NA,5,12,NA,blue,n_s_092.jpg,NA,NA,unpleasant,pleasant,NA,NA,NA,NA,NA,none,0,false,NA,NA,NA,NA,NA
h6vV5rrU,322zsn9z6jxccjxbpgrk4cn83gtt4w,3rkntxvs3qb9k7wwai55yrt8h9ja4w,h6vV5rrU,2020-0188,2021-10-15,16:42:21,18:44:34,NA,incomplete,false,true,NA,5,13,NA,blue,n_l_054.jpg,NA,NA,unpleasant,pleasant,NA,NA,NA,NA,NA,none,0,false,NA,NA,NA,NA,NA
h6vV5rrU,322zsn9z6jxccjxbpgrk4cn83gtt4w,3rkntxvs3qb9k7wwai55yrt8h9ja4w,h6vV5rrU,2020-0188,2021-10-15,16:42:21,18:44:34,NA,incomplete,false,true,NA,5,14,NA,blue,n_s_097.jpg,NA,NA,unpleasant,pleasant,NA,NA,NA,NA,NA,none,0,false,NA,NA,NA,NA,NA
h6vV5rrU,322zsn9z6jxccjxbpgrk4cn83gtt4w,3rkntxvs3qb9k7wwai55yrt8h9ja4w,h6vV5rrU,2020-0188,2021-10-15,16:42:21,18:44:34,NA,incomplete,false,true,NA,5,15,NA,blue,n_s_088.jpg,NA,NA,unpleasant,pleasant,NA,NA,NA,NA,NA,none,0,false,NA,NA,NA,NA,NA
h6vV5rrU,322zsn9z6jxccjxbpgrk4cn83gtt4w,3rkntxvs3qb9k7wwai55yrt8h9ja4w,h6vV5rrU,2020-0188,2021-10-15,16:42:21,18:44:34,NA,incomplete,false,true,NA,5,16,NA,blue,m_s_109.jpg,NA,NA,unpleasant,pleasant,NA,NA,NA,NA,NA,left,1411,true,NA,NA,NA,NA,NA
h6vV5rrU,322zsn9z6jxccjxbpgrk4cn83gtt4w,3rkntxvs3qb9k7wwai55yrt8h9ja4w,h6vV5rrU,2020-0188,2021-10-15,16:42:21,18:44:34,NA,incomplete,false,true,NA,5,17,NA,blue,m_l_014.jpg,NA,NA,pleasant,unpleasant,NA,NA,NA,NA,NA,left,2190,true,NA,NA,NA,NA,NA
h6vV5rrU,322zsn9z6jxccjxbpgrk4cn83gtt4w,3rkntxvs3qb9k7wwai55yrt8h9ja4w,h6vV5rrU,2020-0188,2021-10-15,16:42:21,18:44:34,NA,incomplete,false,true,NA,5,18,NA,brown,n_l_061.jpg,NA,NA,unpleasant,pleasant,NA,NA,NA,NA,NA,none,0,false,NA,NA,NA,NA,NA
h6vV5rrU,322zsn9z6jxccjxbpgrk4cn83gtt4w,3rkntxvs3qb9k7wwai55yrt8h9ja4w,h6vV5rrU,2020-0188,2021-10-15,16:42:21,18:44:34,NA,incomplete,false,true,NA,5,19,NA,brown,m_s_025.jpg,NA,NA,unpleasant,pleasant,NA,NA,NA,NA,NA,none,0,false,NA,NA,NA,NA,NA
h6vV5rrU,322zsn9z6jxccjxbpgrk4cn83gtt4w,3rkntxvs3qb9k7wwai55yrt8h9ja4w,h6vV5rrU,2020-0188,2021-10-15,16:42:21,18:44:34,NA,incomplete,false,true,NA,5,20,NA,brown,m_l_106.jpg,NA,NA,unpleasant,pleasant,NA,NA,NA,NA,NA,none,0,false,NA,NA,NA,NA,NA
h6vV5rrU,322zsn9z6jxccjxbpgrk4cn83gtt4w,3rkntxvs3qb9k7wwai55yrt8h9ja4w,h6vV5rrU,2020-0188,2021-10-15,16:42:21,18:44:34,NA,incomplete,false,true,NA,5,21,NA,brown,n_l_017.jpg,NA,NA,unpleasant,pleasant,NA,NA,NA,NA,NA,left,2742,true,NA,NA,NA,NA,NA
h6vV5rrU,322zsn9z6jxccjxbpgrk4cn83gtt4w,3rkntxvs3qb9k7wwai55yrt8h9ja4w,h6vV5rrU,2020-0188,2021-10-15,16:42:21,18:44:34,NA,incomplete,false,true,NA,5,22,NA,brown,m_l_064.jpg,NA,NA,unpleasant,pleasant,NA,NA,NA,NA,NA,none,0,false,NA,NA,NA,NA,NA
h6vV5rrU,322zsn9z6jxccjxbpgrk4cn83gtt4w,3rkntxvs3qb9k7wwai55yrt8h9ja4w,h6vV5rrU,2020-0188,2021-10-15,16:42:21,18:44:34,NA,incomplete,false,true,NA,5,23,NA,brown,m_l_087.jpg,NA,NA,pleasant,unpleasant,NA,NA,NA,NA,NA,left,2038,true,NA,NA,NA,NA,NA
h6vV5rrU,322zsn9z6jxccjxbpgrk4cn83gtt4w,3rkntxvs3qb9k7wwai55yrt8h9ja4w,h6vV5rrU,2020-0188,2021-10-15,16:42:21,18:44:34,NA,incomplete,false,true,NA,5,24,NA,gray,n_s_031.jpg,NA,NA,unpleasant,pleasant,NA,NA,NA,NA,NA,none,0,false,NA,NA,NA,NA,NA
h6vV5rrU,322zsn9z6jxccjxbpgrk4cn83gtt4w,3rkntxvs3qb9k7wwai55yrt8h9ja4w,h6vV5rrU,2020-0188,2021-10-15,16:42:21,18:44:34,NA,incomplete,false,true,NA,5,25,NA,gray,n_l_011.jpg,NA,NA,pleasant,unpleasant,NA,NA,NA,NA,NA,left,2325,true,NA,NA,NA,NA,NA
h6vV5rrU,322zsn9z6jxccjxbpgrk4cn83gtt4w,3rkntxvs3qb9k7wwai55yrt8h9ja4w,h6vV5rrU,2020-0188,2021-10-15,16:42:21,18:44:34,NA,incomplete,false,true,NA,5,26,NA,gray,m_s_108.jpg,NA,NA,pleasant,unpleasant,NA,NA,NA,NA,NA,none,0,false,NA,NA,NA,NA,NA
h6vV5rrU,322zsn9z6jxccjxbpgrk4cn83gtt4w,3rkntxvs3qb9k7wwai55yrt8h9ja4w,h6vV5rrU,2020-0188,2021-10-15,16:42:21,18:44:34,NA,incomplete,false,true,NA,5,27,NA,gray,n_s_021.jpg,NA,NA,pleasant,unpleasant,NA,NA,NA,NA,NA,none,0,false,NA,NA,NA,NA,NA
h6vV5rrU,322zsn9z6jxccjxbpgrk4cn83gtt4w,3rkntxvs3qb9k7wwai55yrt8h9ja4w,h6vV5rrU,2020-0188,2021-10-15,16:42:21,18:44:34,NA,incomplete,false,true,NA,5,28,NA,gray,m_l_072.jpg,NA,NA,unpleasant,pleasant,NA,NA,NA,NA,NA,right,3109,true,NA,NA,NA,NA,NA
h6vV5rrU,322zsn9z6jxccjxbpgrk4cn83gtt4w,3rkntxvs3qb9k7wwai55yrt8h9ja4w,h6vV5rrU,2020-0188,2021-10-15,16:42:21,18:44:34,NA,incomplete,false,true,NA,5,29,NA,gray,m_l_063.jpg,NA,NA,unpleasant,pleasant,NA,NA,NA,NA,NA,right,1858,true,NA,NA,NA,NA,NA
h6vV5rrU,322zsn9z6jxccjxbpgrk4cn83gtt4w,3rkntxvs3qb9k7wwai55yrt8h9ja4w,h6vV5rrU,2020-0188,2021-10-15,16:42:21,18:44:34,NA,incomplete,false,true,NA,5,30,NA,black,n_l_055.jpg,NA,NA,pleasant,unpleasant,NA,NA,NA,NA,NA,left,1478,true,NA,NA,NA,NA,NA
h6vV5rrU,322zsn9z6jxccjxbpgrk4cn83gtt4w,3rkntxvs3qb9k7wwai55yrt8h9ja4w,h6vV5rrU,2020-0188,2021-10-15,16:42:21,18:44:34,NA,incomplete,false,true,NA,5,31,NA,black,n_l_094.jpg,NA,NA,pleasant,unpleasant,NA,NA,NA,NA,NA,left,1369,true,NA,NA,NA,NA,NA
h6vV5rrU,322zsn9z6jxccjxbpgrk4cn83gtt4w,3rkntxvs3qb9k7wwai55yrt8h9ja4w,h6vV5rrU,2020-0188,2021-10-15,16:42:21,18:44:34,NA,incomplete,false,true,NA,5,32,NA,black,n_l_030.jpg,NA,NA,unpleasant,pleasant,NA,NA,NA,NA,NA,right,2164,true,NA,NA,NA,NA,NA
h6vV5rrU,322zsn9z6jxccjxbpgrk4cn83gtt4w,3rkntxvs3qb9k7wwai55yrt8h9ja4w,h6vV5rrU,2020-0188,2021-10-15,16:42:21,18:44:34,NA,incomplete,false,true,NA,5,33,NA,black,m_s_002.jpg,NA,NA,pleasant,unpleasant,NA,NA,NA,NA,NA,left,1575,true,NA,NA,NA,NA,NA
h6vV5rrU,322zsn9z6jxccjxbpgrk4cn83gtt4w,3rkntxvs3qb9k7wwai55yrt8h9ja4w,h6vV5rrU,2020-0188,2021-10-15,16:42:21,18:44:34,NA,incomplete,false,true,NA,5,34,NA,black,m_s_008.jpg,NA,NA,pleasant,unpleasant,NA,NA,NA,NA,NA,left,1310,true,NA,NA,NA,NA,NA
h6vV5rrU,322zsn9z6jxccjxbpgrk4cn83gtt4w,3rkntxvs3qb9k7wwai55yrt8h9ja4w,h6vV5rrU,2020-0188,2021-10-15,16:42:21,18:44:34,NA,incomplete,false,true,NA,5,35,NA,black,m_s_020.jpg,NA,NA,unpleasant,pleasant,NA,NA,NA,NA,NA,left,1481,true,NA,NA,NA,NA,NA
h6vV5rrU,322zsn9z6jxccjxbpgrk4cn83gtt4w,3rkntxvs3qb9k7wwai55yrt8h9ja4w,h6vV5rrU,2020-0188,2021-10-15,16:42:21,18:44:34,NA,incomplete,false,NA,true,5,0,NA,NA,NA,right,absent,NA,NA,m_l_106.jpg,brown,m_s_109.jpg,blue,between,NA,NaN,NA,right,3164,1,1,1390
h6vV5rrU,322zsn9z6jxccjxbpgrk4cn83gtt4w,3rkntxvs3qb9k7wwai55yrt8h9ja4w,h6vV5rrU,2020-0188,2021-10-15,16:42:21,18:44:34,NA,incomplete,false,NA,true,5,1,NA,NA,NA,left,absent,NA,NA,n_l_054.jpg,blue,m_l_014.jpg,blue,within,NA,NaN,NA,left,4735,1,2,1758
h6vV5rrU,322zsn9z6jxccjxbpgrk4cn83gtt4w,3rkntxvs3qb9k7wwai55yrt8h9ja4w,h6vV5rrU,2020-0188,2021-10-15,16:42:21,18:44:34,NA,incomplete,false,NA,true,5,2,NA,NA,NA,left,absent,NA,NA,n_l_011.jpg,gray,m_l_063.jpg,gray,within,NA,NaN,NA,right,5206,0,3,4494
h6vV5rrU,322zsn9z6jxccjxbpgrk4cn83gtt4w,3rkntxvs3qb9k7wwai55yrt8h9ja4w,h6vV5rrU,2020-0188,2021-10-15,16:42:21,18:44:34,NA,incomplete,false,NA,true,5,3,NA,NA,NA,left,absent,NA,NA,m_l_072.jpg,gray,n_l_030.jpg,black,between,NA,NaN,NA,left,3816,1,1,2328
h6vV5rrU,322zsn9z6jxccjxbpgrk4cn83gtt4w,3rkntxvs3qb9k7wwai55yrt8h9ja4w,h6vV5rrU,2020-0188,2021-10-15,16:42:21,18:44:34,NA,incomplete,false,NA,true,5,4,NA,NA,NA,left,absent,NA,NA,m_l_064.jpg,brown,m_s_108.jpg,gray,between,NA,NaN,NA,left,4159,1,1,1350
h6vV5rrU,322zsn9z6jxccjxbpgrk4cn83gtt4w,3rkntxvs3qb9k7wwai55yrt8h9ja4w,h6vV5rrU,2020-0188,2021-10-15,16:42:21,18:44:34,NA,incomplete,false,NA,true,5,5,NA,NA,NA,left,absent,NA,NA,m_l_048.jpg,white,m_l_105.jpg,white,within,NA,NaN,NA,right,3495,0,1,3639
h6vV5rrU,322zsn9z6jxccjxbpgrk4cn83gtt4w,3rkntxvs3qb9k7wwai55yrt8h9ja4w,h6vV5rrU,2020-0188,2021-10-15,16:42:21,18:44:34,NA,incomplete,false,NA,true,5,6,NA,NA,NA,right,absent,NA,NA,m_s_050.jpg,white,m_s_065.jpg,red,between,NA,NaN,NA,left,7359,0,1,4555
h6vV5rrU,322zsn9z6jxccjxbpgrk4cn83gtt4w,3rkntxvs3qb9k7wwai55yrt8h9ja4w,h6vV5rrU,2020-0188,2021-10-15,16:42:21,18:44:34,NA,incomplete,false,NA,true,5,7,NA,NA,NA,left,absent,NA,NA,n_l_094.jpg,black,m_s_020.jpg,black,within,NA,NaN,NA,left,3750,1,0,1919
h6vV5rrU,322zsn9z6jxccjxbpgrk4cn83gtt4w,3rkntxvs3qb9k7wwai55yrt8h9ja4w,h6vV5rrU,2020-0188,2021-10-15,16:42:21,18:44:34,NA,incomplete,false,NA,true,5,8,NA,NA,NA,right,absent,NA,NA,n_s_097.jpg,blue,n_s_100.jpg,white,between,NA,NaN,NA,right,6352,1,1,2182
h6vV5rrU,322zsn9z6jxccjxbpgrk4cn83gtt4w,3rkntxvs3qb9k7wwai55yrt8h9ja4w,h6vV5rrU,2020-0188,2021-10-15,16:42:21,18:44:34,NA,incomplete,false,NA,true,5,9,NA,NA,NA,right,absent,NA,NA,n_l_078.jpg,red,n_s_103.jpg,red,within,NA,NaN,NA,right,3104,1,1,2791
h6vV5rrU,322zsn9z6jxccjxbpgrk4cn83gtt4w,3rkntxvs3qb9k7wwai55yrt8h9ja4w,h6vV5rrU,2020-0188,2021-10-15,16:42:21,18:44:34,NA,incomplete,false,NA,true,5,10,NA,NA,NA,right,absent,NA,NA,m_l_087.jpg,brown,m_s_025.jpg,brown,within,NA,NaN,NA,left,3843,0,1,1479
h6vV5rrU,322zsn9z6jxccjxbpgrk4cn83gtt4w,3rkntxvs3qb9k7wwai55yrt8h9ja4w,h6vV5rrU,2020-0188,2021-10-15,16:42:21,18:44:34,NA,incomplete,false,true,NA,6,0,NA,yellow,m_l_089.jpg,NA,NA,unpleasant,pleasant,NA,NA,NA,NA,NA,left,1525,true,NA,NA,NA,NA,NA
h6vV5rrU,322zsn9z6jxccjxbpgrk4cn83gtt4w,3rkntxvs3qb9k7wwai55yrt8h9ja4w,h6vV5rrU,2020-0188,2021-10-15,16:42:21,18:44:34,NA,incomplete,false,true,NA,6,1,NA,yellow,m_l_065.jpg,NA,NA,unpleasant,pleasant,NA,NA,NA,NA,NA,right,2083,true,NA,NA,NA,NA,NA
h6vV5rrU,322zsn9z6jxccjxbpgrk4cn83gtt4w,3rkntxvs3qb9k7wwai55yrt8h9ja4w,h6vV5rrU,2020-0188,2021-10-15,16:42:21,18:44:34,NA,incomplete,false,true,NA,6,2,NA,yellow,m_s_031.jpg,NA,NA,pleasant,unpleasant,NA,NA,NA,NA,NA,right,2318,true,NA,NA,NA,NA,NA
h6vV5rrU,322zsn9z6jxccjxbpgrk4cn83gtt4w,3rkntxvs3qb9k7wwai55yrt8h9ja4w,h6vV5rrU,2020-0188,2021-10-15,16:42:21,18:44:34,NA,incomplete,false,true,NA,6,3,NA,yellow,m_s_083.jpg,NA,NA,pleasant,unpleasant,NA,NA,NA,NA,NA,right,1826,true,NA,NA,NA,NA,NA
h6vV5rrU,322zsn9z6jxccjxbpgrk4cn83gtt4w,3rkntxvs3qb9k7wwai55yrt8h9ja4w,h6vV5rrU,2020-0188,2021-10-15,16:42:21,18:44:34,NA,incomplete,false,true,NA,6,4,NA,yellow,m_s_016.jpg,NA,NA,pleasant,unpleasant,NA,NA,NA,NA,NA,left,1431,true,NA,NA,NA,NA,NA
h6vV5rrU,322zsn9z6jxccjxbpgrk4cn83gtt4w,3rkntxvs3qb9k7wwai55yrt8h9ja4w,h6vV5rrU,2020-0188,2021-10-15,16:42:21,18:44:34,NA,incomplete,false,true,NA,6,5,NA,yellow,n_s_055.jpg,NA,NA,pleasant,unpleasant,NA,NA,NA,NA,NA,left,2258,true,NA,NA,NA,NA,NA
h6vV5rrU,322zsn9z6jxccjxbpgrk4cn83gtt4w,3rkntxvs3qb9k7wwai55yrt8h9ja4w,h6vV5rrU,2020-0188,2021-10-15,16:42:21,18:44:34,NA,incomplete,false,true,NA,6,6,NA,orange,n_l_048.jpg,NA,NA,pleasant,unpleasant,NA,NA,NA,NA,NA,right,2294,true,NA,NA,NA,NA,NA
h6vV5rrU,322zsn9z6jxccjxbpgrk4cn83gtt4w,3rkntxvs3qb9k7wwai55yrt8h9ja4w,h6vV5rrU,2020-0188,2021-10-15,16:42:21,18:44:34,NA,incomplete,false,true,NA,6,7,NA,orange,m_s_106.jpg,NA,NA,unpleasant,pleasant,NA,NA,NA,NA,NA,right,1882,true,NA,NA,NA,NA,NA
h6vV5rrU,322zsn9z6jxccjxbpgrk4cn83gtt4w,3rkntxvs3qb9k7wwai55yrt8h9ja4w,h6vV5rrU,2020-0188,2021-10-15,16:42:21,18:44:34,NA,incomplete,false,true,NA,6,8,NA,orange,n_s_045.jpg,NA,NA,unpleasant,pleasant,NA,NA,NA,NA,NA,right,1597,true,NA,NA,NA,NA,NA
h6vV5rrU,322zsn9z6jxccjxbpgrk4cn83gtt4w,3rkntxvs3qb9k7wwai55yrt8h9ja4w,h6vV5rrU,2020-0188,2021-10-15,16:42:21,18:44:34,NA,incomplete,false,true,NA,6,9,NA,orange,m_s_092.jpg,NA,NA,pleasant,unpleasant,NA,NA,NA,NA,NA,left,1473,true,NA,NA,NA,NA,NA
h6vV5rrU,322zsn9z6jxccjxbpgrk4cn83gtt4w,3rkntxvs3qb9k7wwai55yrt8h9ja4w,h6vV5rrU,2020-0188,2021-10-15,16:42:21,18:44:34,NA,incomplete,false,true,NA,6,10,NA,orange,n_l_114.jpg,NA,NA,pleasant,unpleasant,NA,NA,NA,NA,NA,right,2693,true,NA,NA,NA,NA,NA
h6vV5rrU,322zsn9z6jxccjxbpgrk4cn83gtt4w,3rkntxvs3qb9k7wwai55yrt8h9ja4w,h6vV5rrU,2020-0188,2021-10-15,16:42:21,18:44:34,NA,incomplete,false,true,NA,6,11,NA,orange,m_s_076.jpg,NA,NA,pleasant,unpleasant,NA,NA,NA,NA,NA,left,1936,true,NA,NA,NA,NA,NA
h6vV5rrU,322zsn9z6jxccjxbpgrk4cn83gtt4w,3rkntxvs3qb9k7wwai55yrt8h9ja4w,h6vV5rrU,2020-0188,2021-10-15,16:42:21,18:44:34,NA,incomplete,false,true,NA,6,12,NA,gray,m_l_066.jpg,NA,NA,pleasant,unpleasant,NA,NA,NA,NA,NA,left,2042,true,NA,NA,NA,NA,NA
h6vV5rrU,322zsn9z6jxccjxbpgrk4cn83gtt4w,3rkntxvs3qb9k7wwai55yrt8h9ja4w,h6vV5rrU,2020-0188,2021-10-15,16:42:21,18:44:34,NA,incomplete,false,true,NA,6,13,NA,gray,n_l_042.jpg,NA,NA,pleasant,unpleasant,NA,NA,NA,NA,NA,left,1247,true,NA,NA,NA,NA,NA
h6vV5rrU,322zsn9z6jxccjxbpgrk4cn83gtt4w,3rkntxvs3qb9k7wwai55yrt8h9ja4w,h6vV5rrU,2020-0188,2021-10-15,16:42:21,18:44:34,NA,incomplete,false,true,NA,6,14,NA,gray,n_l_064.jpg,NA,NA,pleasant,unpleasant,NA,NA,NA,NA,NA,left,1235,true,NA,NA,NA,NA,NA
h6vV5rrU,322zsn9z6jxccjxbpgrk4cn83gtt4w,3rkntxvs3qb9k7wwai55yrt8h9ja4w,h6vV5rrU,2020-0188,2021-10-15,16:42:21,18:44:34,NA,incomplete,false,true,NA,6,15,NA,gray,m_l_012.jpg,NA,NA,unpleasant,pleasant,NA,NA,NA,NA,NA,left,2014,true,NA,NA,NA,NA,NA
h6vV5rrU,322zsn9z6jxccjxbpgrk4cn83gtt4w,3rkntxvs3qb9k7wwai55yrt8h9ja4w,h6vV5rrU,2020-0188,2021-10-15,16:42:21,18:44:34,NA,incomplete,false,true,NA,6,16,NA,gray,m_l_028.jpg,NA,NA,pleasant,unpleasant,NA,NA,NA,NA,NA,right,1642,true,NA,NA,NA,NA,NA
h6vV5rrU,322zsn9z6jxccjxbpgrk4cn83gtt4w,3rkntxvs3qb9k7wwai55yrt8h9ja4w,h6vV5rrU,2020-0188,2021-10-15,16:42:21,18:44:34,NA,incomplete,false,true,NA,6,17,NA,gray,m_l_110.jpg,NA,NA,pleasant,unpleasant,NA,NA,NA,NA,NA,right,2229,true,NA,NA,NA,NA,NA
h6vV5rrU,322zsn9z6jxccjxbpgrk4cn83gtt4w,3rkntxvs3qb9k7wwai55yrt8h9ja4w,h6vV5rrU,2020-0188,2021-10-15,16:42:21,18:44:34,NA,incomplete,false,true,NA,6,18,NA,brown,m_l_007.jpg,NA,NA,unpleasant,pleasant,NA,NA,NA,NA,NA,right,1913,true,NA,NA,NA,NA,NA
h6vV5rrU,322zsn9z6jxccjxbpgrk4cn83gtt4w,3rkntxvs3qb9k7wwai55yrt8h9ja4w,h6vV5rrU,2020-0188,2021-10-15,16:42:21,18:44:34,NA,incomplete,false,true,NA,6,19,NA,brown,m_s_073.jpg,NA,NA,unpleasant,pleasant,NA,NA,NA,NA,NA,left,1606,true,NA,NA,NA,NA,NA
h6vV5rrU,322zsn9z6jxccjxbpgrk4cn83gtt4w,3rkntxvs3qb9k7wwai55yrt8h9ja4w,h6vV5rrU,2020-0188,2021-10-15,16:42:21,18:44:34,NA,incomplete,false,true,NA,6,20,NA,brown,n_l_045.jpg,NA,NA,pleasant,unpleasant,NA,NA,NA,NA,NA,left,2337,true,NA,NA,NA,NA,NA
h6vV5rrU,322zsn9z6jxccjxbpgrk4cn83gtt4w,3rkntxvs3qb9k7wwai55yrt8h9ja4w,h6vV5rrU,2020-0188,2021-10-15,16:42:21,18:44:34,NA,incomplete,false,true,NA,6,21,NA,brown,n_s_068.jpg,NA,NA,unpleasant,pleasant,NA,NA,NA,NA,NA,left,1604,true,NA,NA,NA,NA,NA
h6vV5rrU,322zsn9z6jxccjxbpgrk4cn83gtt4w,3rkntxvs3qb9k7wwai55yrt8h9ja4w,h6vV5rrU,2020-0188,2021-10-15,16:42:21,18:44:34,NA,incomplete,false,true,NA,6,22,NA,brown,m_l_114.jpg,NA,NA,unpleasant,pleasant,NA,NA,NA,NA,NA,right,1903,true,NA,NA,NA,NA,NA
h6vV5rrU,322zsn9z6jxccjxbpgrk4cn83gtt4w,3rkntxvs3qb9k7wwai55yrt8h9ja4w,h6vV5rrU,2020-0188,2021-10-15,16:42:21,18:44:34,NA,incomplete,false,true,NA,6,23,NA,brown,n_s_083.jpg,NA,NA,pleasant,unpleasant,NA,NA,NA,NA,NA,right,1546,true,NA,NA,NA,NA,NA
h6vV5rrU,322zsn9z6jxccjxbpgrk4cn83gtt4w,3rkntxvs3qb9k7wwai55yrt8h9ja4w,h6vV5rrU,2020-0188,2021-10-15,16:42:21,18:44:34,NA,incomplete,false,true,NA,6,24,NA,white,n_l_049.jpg,NA,NA,unpleasant,pleasant,NA,NA,NA,NA,NA,right,1817,true,NA,NA,NA,NA,NA
h6vV5rrU,322zsn9z6jxccjxbpgrk4cn83gtt4w,3rkntxvs3qb9k7wwai55yrt8h9ja4w,h6vV5rrU,2020-0188,2021-10-15,16:42:21,18:44:34,NA,incomplete,false,true,NA,6,25,NA,white,n_s_116.jpg,NA,NA,pleasant,unpleasant,NA,NA,NA,NA,NA,left,1803,true,NA,NA,NA,NA,NA
h6vV5rrU,322zsn9z6jxccjxbpgrk4cn83gtt4w,3rkntxvs3qb9k7wwai55yrt8h9ja4w,h6vV5rrU,2020-0188,2021-10-15,16:42:21,18:44:34,NA,incomplete,false,true,NA,6,26,NA,white,m_l_005.jpg,NA,NA,unpleasant,pleasant,NA,NA,NA,NA,NA,right,1469,true,NA,NA,NA,NA,NA
h6vV5rrU,322zsn9z6jxccjxbpgrk4cn83gtt4w,3rkntxvs3qb9k7wwai55yrt8h9ja4w,h6vV5rrU,2020-0188,2021-10-15,16:42:21,18:44:34,NA,incomplete,false,true,NA,6,27,NA,white,m_s_078.jpg,NA,NA,unpleasant,pleasant,NA,NA,NA,NA,NA,left,2312,true,NA,NA,NA,NA,NA
h6vV5rrU,322zsn9z6jxccjxbpgrk4cn83gtt4w,3rkntxvs3qb9k7wwai55yrt8h9ja4w,h6vV5rrU,2020-0188,2021-10-15,16:42:21,18:44:34,NA,incomplete,false,true,NA,6,28,NA,white,n_l_076.jpg,NA,NA,unpleasant,pleasant,NA,NA,NA,NA,NA,left,1621,true,NA,NA,NA,NA,NA
h6vV5rrU,322zsn9z6jxccjxbpgrk4cn83gtt4w,3rkntxvs3qb9k7wwai55yrt8h9ja4w,h6vV5rrU,2020-0188,2021-10-15,16:42:21,18:44:34,NA,incomplete,false,true,NA,6,29,NA,white,m_s_034.jpg,NA,NA,unpleasant,pleasant,NA,NA,NA,NA,NA,right,1767,true,NA,NA,NA,NA,NA
h6vV5rrU,322zsn9z6jxccjxbpgrk4cn83gtt4w,3rkntxvs3qb9k7wwai55yrt8h9ja4w,h6vV5rrU,2020-0188,2021-10-15,16:42:21,18:44:34,NA,incomplete,false,true,NA,6,30,NA,green,n_l_038.jpg,NA,NA,pleasant,unpleasant,NA,NA,NA,NA,NA,left,2883,true,NA,NA,NA,NA,NA
h6vV5rrU,322zsn9z6jxccjxbpgrk4cn83gtt4w,3rkntxvs3qb9k7wwai55yrt8h9ja4w,h6vV5rrU,2020-0188,2021-10-15,16:42:21,18:44:34,NA,incomplete,false,true,NA,6,31,NA,green,n_s_029.jpg,NA,NA,unpleasant,pleasant,NA,NA,NA,NA,NA,left,1567,true,NA,NA,NA,NA,NA
h6vV5rrU,322zsn9z6jxccjxbpgrk4cn83gtt4w,3rkntxvs3qb9k7wwai55yrt8h9ja4w,h6vV5rrU,2020-0188,2021-10-15,16:42:21,18:44:34,NA,incomplete,false,true,NA,6,32,NA,green,m_s_095.jpg,NA,NA,pleasant,unpleasant,NA,NA,NA,NA,NA,left,1395,true,NA,NA,NA,NA,NA
h6vV5rrU,322zsn9z6jxccjxbpgrk4cn83gtt4w,3rkntxvs3qb9k7wwai55yrt8h9ja4w,h6vV5rrU,2020-0188,2021-10-15,16:42:21,18:44:34,NA,incomplete,false,true,NA,6,33,NA,green,n_s_013.jpg,NA,NA,pleasant,unpleasant,NA,NA,NA,NA,NA,left,1285,true,NA,NA,NA,NA,NA
h6vV5rrU,322zsn9z6jxccjxbpgrk4cn83gtt4w,3rkntxvs3qb9k7wwai55yrt8h9ja4w,h6vV5rrU,2020-0188,2021-10-15,16:42:21,18:44:34,NA,incomplete,false,true,NA,6,34,NA,green,m_l_055.jpg,NA,NA,pleasant,unpleasant,NA,NA,NA,NA,NA,left,1145,true,NA,NA,NA,NA,NA
h6vV5rrU,322zsn9z6jxccjxbpgrk4cn83gtt4w,3rkntxvs3qb9k7wwai55yrt8h9ja4w,h6vV5rrU,2020-0188,2021-10-15,16:42:21,18:44:34,NA,incomplete,false,true,NA,6,35,NA,green,n_l_040.jpg,NA,NA,pleasant,unpleasant,NA,NA,NA,NA,NA,left,1244,true,NA,NA,NA,NA,NA
h6vV5rrU,322zsn9z6jxccjxbpgrk4cn83gtt4w,3rkntxvs3qb9k7wwai55yrt8h9ja4w,h6vV5rrU,2020-0188,2021-10-15,16:42:21,18:44:34,NA,incomplete,false,NA,true,6,0,NA,NA,NA,left,present,NA,NA,n_l_114.jpg,orange,n_l_064.jpg,gray,between,NA,NaN,NA,right,8127,0,2,2398
h6vV5rrU,322zsn9z6jxccjxbpgrk4cn83gtt4w,3rkntxvs3qb9k7wwai55yrt8h9ja4w,h6vV5rrU,2020-0188,2021-10-15,16:42:21,18:44:34,NA,incomplete,false,NA,true,6,1,NA,NA,NA,left,present,NA,NA,m_l_028.jpg,gray,n_l_045.jpg,brown,between,NA,NaN,NA,left,2470,1,1,1662
h6vV5rrU,322zsn9z6jxccjxbpgrk4cn83gtt4w,3rkntxvs3qb9k7wwai55yrt8h9ja4w,h6vV5rrU,2020-0188,2021-10-15,16:42:21,18:44:34,NA,incomplete,false,NA,true,6,2,NA,NA,NA,left,present,NA,NA,m_l_065.jpg,yellow,n_s_055.jpg,yellow,within,NA,NaN,NA,right,4996,0,1,1640
h6vV5rrU,322zsn9z6jxccjxbpgrk4cn83gtt4w,3rkntxvs3qb9k7wwai55yrt8h9ja4w,h6vV5rrU,2020-0188,2021-10-15,16:42:21,18:44:34,NA,incomplete,false,NA,true,6,3,NA,NA,NA,right,present,NA,NA,n_s_083.jpg,brown,m_s_073.jpg,brown,within,NA,NaN,NA,right,6792,1,3,3061
h6vV5rrU,322zsn9z6jxccjxbpgrk4cn83gtt4w,3rkntxvs3qb9k7wwai55yrt8h9ja4w,h6vV5rrU,2020-0188,2021-10-15,16:42:21,18:44:34,NA,incomplete,false,NA,true,6,4,NA,NA,NA,right,present,NA,NA,m_s_076.jpg,orange,m_s_106.jpg,orange,within,NA,NaN,NA,left,3550,0,1,1312
h6vV5rrU,322zsn9z6jxccjxbpgrk4cn83gtt4w,3rkntxvs3qb9k7wwai55yrt8h9ja4w,h6vV5rrU,2020-0188,2021-10-15,16:42:21,18:44:34,NA,incomplete,false,NA,true,6,5,NA,NA,NA,left,present,NA,NA,m_l_114.jpg,brown,m_l_005.jpg,white,between,NA,NaN,NA,right,6142,0,1,2440
h6vV5rrU,322zsn9z6jxccjxbpgrk4cn83gtt4w,3rkntxvs3qb9k7wwai55yrt8h9ja4w,h6vV5rrU,2020-0188,2021-10-15,16:42:21,18:44:34,NA,incomplete,false,NA,true,6,6,NA,NA,NA,right,present,NA,NA,n_l_040.jpg,green,n_s_029.jpg,green,within,NA,NaN,NA,left,3590,0,2,1991
h6vV5rrU,322zsn9z6jxccjxbpgrk4cn83gtt4w,3rkntxvs3qb9k7wwai55yrt8h9ja4w,h6vV5rrU,2020-0188,2021-10-15,16:42:21,18:44:34,NA,incomplete,false,NA,true,6,7,NA,NA,NA,right,present,NA,NA,m_l_110.jpg,gray,n_l_042.jpg,gray,within,NA,NaN,NA,right,2942,1,1,2191
h6vV5rrU,322zsn9z6jxccjxbpgrk4cn83gtt4w,3rkntxvs3qb9k7wwai55yrt8h9ja4w,h6vV5rrU,2020-0188,2021-10-15,16:42:21,18:44:34,NA,incomplete,false,NA,true,6,8,NA,NA,NA,left,present,NA,NA,m_s_016.jpg,yellow,n_s_045.jpg,orange,between,NA,NaN,NA,right,2791,0,3,4048
h6vV5rrU,322zsn9z6jxccjxbpgrk4cn83gtt4w,3rkntxvs3qb9k7wwai55yrt8h9ja4w,h6vV5rrU,2020-0188,2021-10-15,16:42:21,18:44:34,NA,incomplete,false,NA,true,6,9,NA,NA,NA,right,present,NA,NA,m_s_095.jpg,green,n_l_076.jpg,white,between,NA,NaN,NA,left,3010,0,2,2439
h6vV5rrU,322zsn9z6jxccjxbpgrk4cn83gtt4w,3rkntxvs3qb9k7wwai55yrt8h9ja4w,h6vV5rrU,2020-0188,2021-10-15,16:42:21,18:44:34,NA,incomplete,false,NA,true,6,10,NA,NA,NA,left,present,NA,NA,n_s_116.jpg,white,m_s_034.jpg,white,within,NA,NaN,NA,left,3255,1,1,1478
h6vV5rrU,322zsn9z6jxccjxbpgrk4cn83gtt4w,3rkntxvs3qb9k7wwai55yrt8h9ja4w,h6vV5rrU,2020-0188,2021-10-15,16:42:21,18:44:34,NA,incomplete,false,true,NA,7,0,NA,orange,n_l_072.jpg,NA,NA,unpleasant,pleasant,NA,NA,NA,NA,NA,left,1170,true,NA,NA,NA,NA,NA
h6vV5rrU,322zsn9z6jxccjxbpgrk4cn83gtt4w,3rkntxvs3qb9k7wwai55yrt8h9ja4w,h6vV5rrU,2020-0188,2021-10-15,16:42:21,18:44:34,NA,incomplete,false,true,NA,7,1,NA,orange,m_s_036.jpg,NA,NA,unpleasant,pleasant,NA,NA,NA,NA,NA,right,2261,true,NA,NA,NA,NA,NA
h6vV5rrU,322zsn9z6jxccjxbpgrk4cn83gtt4w,3rkntxvs3qb9k7wwai55yrt8h9ja4w,h6vV5rrU,2020-0188,2021-10-15,16:42:21,18:44:34,NA,incomplete,false,true,NA,7,2,NA,orange,m_l_023.jpg,NA,NA,pleasant,unpleasant,NA,NA,NA,NA,NA,right,1619,true,NA,NA,NA,NA,NA
h6vV5rrU,322zsn9z6jxccjxbpgrk4cn83gtt4w,3rkntxvs3qb9k7wwai55yrt8h9ja4w,h6vV5rrU,2020-0188,2021-10-15,16:42:21,18:44:34,NA,incomplete,false,true,NA,7,3,NA,orange,n_l_062.jpg,NA,NA,unpleasant,pleasant,NA,NA,NA,NA,NA,left,2580,true,NA,NA,NA,NA,NA
h6vV5rrU,322zsn9z6jxccjxbpgrk4cn83gtt4w,3rkntxvs3qb9k7wwai55yrt8h9ja4w,h6vV5rrU,2020-0188,2021-10-15,16:42:21,18:44:34,NA,incomplete,false,true,NA,7,4,NA,orange,m_s_061.jpg,NA,NA,pleasant,unpleasant,NA,NA,NA,NA,NA,left,2096,true,NA,NA,NA,NA,NA
h6vV5rrU,322zsn9z6jxccjxbpgrk4cn83gtt4w,3rkntxvs3qb9k7wwai55yrt8h9ja4w,h6vV5rrU,2020-0188,2021-10-15,16:42:21,18:44:34,NA,incomplete,false,true,NA,7,5,NA,orange,n_l_013.jpg,NA,NA,pleasant,unpleasant,NA,NA,NA,NA,NA,left,1965,true,NA,NA,NA,NA,NA
h6vV5rrU,322zsn9z6jxccjxbpgrk4cn83gtt4w,3rkntxvs3qb9k7wwai55yrt8h9ja4w,h6vV5rrU,2020-0188,2021-10-15,16:42:21,18:44:34,NA,incomplete,false,true,NA,7,6,NA,white,n_s_002.jpg,NA,NA,unpleasant,pleasant,NA,NA,NA,NA,NA,left,1200,true,NA,NA,NA,NA,NA
h6vV5rrU,322zsn9z6jxccjxbpgrk4cn83gtt4w,3rkntxvs3qb9k7wwai55yrt8h9ja4w,h6vV5rrU,2020-0188,2021-10-15,16:42:21,18:44:34,NA,incomplete,false,true,NA,7,7,NA,white,n_s_019.jpg,NA,NA,pleasant,unpleasant,NA,NA,NA,NA,NA,left,1780,true,NA,NA,NA,NA,NA
h6vV5rrU,322zsn9z6jxccjxbpgrk4cn83gtt4w,3rkntxvs3qb9k7wwai55yrt8h9ja4w,h6vV5rrU,2020-0188,2021-10-15,16:42:21,18:44:34,NA,incomplete,false,true,NA,7,8,NA,white,m_l_031.jpg,NA,NA,unpleasant,pleasant,NA,NA,NA,NA,NA,right,1774,true,NA,NA,NA,NA,NA
h6vV5rrU,322zsn9z6jxccjxbpgrk4cn83gtt4w,3rkntxvs3qb9k7wwai55yrt8h9ja4w,h6vV5rrU,2020-0188,2021-10-15,16:42:21,18:44:34,NA,incomplete,false,true,NA,7,9,NA,white,n_s_095.jpg,NA,NA,unpleasant,pleasant,NA,NA,NA,NA,NA,right,2183,true,NA,NA,NA,NA,NA
h6vV5rrU,322zsn9z6jxccjxbpgrk4cn83gtt4w,3rkntxvs3qb9k7wwai55yrt8h9ja4w,h6vV5rrU,2020-0188,2021-10-15,16:42:21,18:44:34,NA,incomplete,false,true,NA,7,10,NA,white,m_s_032.jpg,NA,NA,unpleasant,pleasant,NA,NA,NA,NA,NA,left,2460,true,NA,NA,NA,NA,NA
h6vV5rrU,322zsn9z6jxccjxbpgrk4cn83gtt4w,3rkntxvs3qb9k7wwai55yrt8h9ja4w,h6vV5rrU,2020-0188,2021-10-15,16:42:21,18:44:34,NA,incomplete,false,true,NA,7,11,NA,white,m_s_039.jpg,NA,NA,pleasant,unpleasant,NA,NA,NA,NA,NA,left,2256,true,NA,NA,NA,NA,NA
h6vV5rrU,322zsn9z6jxccjxbpgrk4cn83gtt4w,3rkntxvs3qb9k7wwai55yrt8h9ja4w,h6vV5rrU,2020-0188,2021-10-15,16:42:21,18:44:34,NA,incomplete,false,true,NA,7,12,NA,yellow,m_s_111.jpg,NA,NA,unpleasant,pleasant,NA,NA,NA,NA,NA,left,1746,true,NA,NA,NA,NA,NA
h6vV5rrU,322zsn9z6jxccjxbpgrk4cn83gtt4w,3rkntxvs3qb9k7wwai55yrt8h9ja4w,h6vV5rrU,2020-0188,2021-10-15,16:42:21,18:44:34,NA,incomplete,false,true,NA,7,13,NA,yellow,m_s_019.jpg,NA,NA,pleasant,unpleasant,NA,NA,NA,NA,NA,right,2118,true,NA,NA,NA,NA,NA
h6vV5rrU,322zsn9z6jxccjxbpgrk4cn83gtt4w,3rkntxvs3qb9k7wwai55yrt8h9ja4w,h6vV5rrU,2020-0188,2021-10-15,16:42:21,18:44:34,NA,incomplete,false,true,NA,7,14,NA,yellow,m_s_094.jpg,NA,NA,unpleasant,pleasant,NA,NA,NA,NA,NA,left,2370,true,NA,NA,NA,NA,NA
h6vV5rrU,322zsn9z6jxccjxbpgrk4cn83gtt4w,3rkntxvs3qb9k7wwai55yrt8h9ja4w,h6vV5rrU,2020-0188,2021-10-15,16:42:21,18:44:34,NA,incomplete,false,true,NA,7,15,NA,yellow,m_l_018.jpg,NA,NA,pleasant,unpleasant,NA,NA,NA,NA,NA,right,2364,true,NA,NA,NA,NA,NA
h6vV5rrU,322zsn9z6jxccjxbpgrk4cn83gtt4w,3rkntxvs3qb9k7wwai55yrt8h9ja4w,h6vV5rrU,2020-0188,2021-10-15,16:42:21,18:44:34,NA,incomplete,false,true,NA,7,16,NA,yellow,n_s_078.jpg,NA,NA,unpleasant,pleasant,NA,NA,NA,NA,NA,left,2209,true,NA,NA,NA,NA,NA
h6vV5rrU,322zsn9z6jxccjxbpgrk4cn83gtt4w,3rkntxvs3qb9k7wwai55yrt8h9ja4w,h6vV5rrU,2020-0188,2021-10-15,16:42:21,18:44:34,NA,incomplete,false,true,NA,7,17,NA,yellow,n_s_044.jpg,NA,NA,unpleasant,pleasant,NA,NA,NA,NA,NA,left,2378,true,NA,NA,NA,NA,NA
h6vV5rrU,322zsn9z6jxccjxbpgrk4cn83gtt4w,3rkntxvs3qb9k7wwai55yrt8h9ja4w,h6vV5rrU,2020-0188,2021-10-15,16:42:21,18:44:34,NA,incomplete,false,true,NA,7,18,NA,black,m_l_107.jpg,NA,NA,unpleasant,pleasant,NA,NA,NA,NA,NA,right,2854,true,NA,NA,NA,NA,NA
h6vV5rrU,322zsn9z6jxccjxbpgrk4cn83gtt4w,3rkntxvs3qb9k7wwai55yrt8h9ja4w,h6vV5rrU,2020-0188,2021-10-15,16:42:21,18:44:34,NA,incomplete,false,true,NA,7,19,NA,black,n_l_082.jpg,NA,NA,unpleasant,pleasant,NA,NA,NA,NA,NA,right,2034,true,NA,NA,NA,NA,NA
h6vV5rrU,322zsn9z6jxccjxbpgrk4cn83gtt4w,3rkntxvs3qb9k7wwai55yrt8h9ja4w,h6vV5rrU,2020-0188,2021-10-15,16:42:21,18:44:34,NA,incomplete,false,true,NA,7,20,NA,black,m_l_073.jpg,NA,NA,unpleasant,pleasant,NA,NA,NA,NA,NA,right,1877,true,NA,NA,NA,NA,NA
h6vV5rrU,322zsn9z6jxccjxbpgrk4cn83gtt4w,3rkntxvs3qb9k7wwai55yrt8h9ja4w,h6vV5rrU,2020-0188,2021-10-15,16:42:21,18:44:34,NA,incomplete,false,true,NA,7,21,NA,black,n_l_006.jpg,NA,NA,unpleasant,pleasant,NA,NA,NA,NA,NA,right,2474,true,NA,NA,NA,NA,NA
h6vV5rrU,322zsn9z6jxccjxbpgrk4cn83gtt4w,3rkntxvs3qb9k7wwai55yrt8h9ja4w,h6vV5rrU,2020-0188,2021-10-15,16:42:21,18:44:34,NA,incomplete,false,true,NA,7,22,NA,black,n_s_085.jpg,NA,NA,pleasant,unpleasant,NA,NA,NA,NA,NA,left,2629,true,NA,NA,NA,NA,NA
h6vV5rrU,322zsn9z6jxccjxbpgrk4cn83gtt4w,3rkntxvs3qb9k7wwai55yrt8h9ja4w,h6vV5rrU,2020-0188,2021-10-15,16:42:21,18:44:34,NA,incomplete,false,true,NA,7,23,NA,black,m_s_057.jpg,NA,NA,unpleasant,pleasant,NA,NA,NA,NA,NA,left,2337,true,NA,NA,NA,NA,NA
h6vV5rrU,322zsn9z6jxccjxbpgrk4cn83gtt4w,3rkntxvs3qb9k7wwai55yrt8h9ja4w,h6vV5rrU,2020-0188,2021-10-15,16:42:21,18:44:34,NA,incomplete,false,true,NA,7,24,NA,gray,n_s_104.jpg,NA,NA,unpleasant,pleasant,NA,NA,NA,NA,NA,right,1686,true,NA,NA,NA,NA,NA
h6vV5rrU,322zsn9z6jxccjxbpgrk4cn83gtt4w,3rkntxvs3qb9k7wwai55yrt8h9ja4w,h6vV5rrU,2020-0188,2021-10-15,16:42:21,18:44:34,NA,incomplete,false,true,NA,7,25,NA,gray,m_s_035.jpg,NA,NA,unpleasant,pleasant,NA,NA,NA,NA,NA,right,1448,true,NA,NA,NA,NA,NA
h6vV5rrU,322zsn9z6jxccjxbpgrk4cn83gtt4w,3rkntxvs3qb9k7wwai55yrt8h9ja4w,h6vV5rrU,2020-0188,2021-10-15,16:42:21,18:44:34,NA,incomplete,false,true,NA,7,26,NA,gray,n_s_081.jpg,NA,NA,pleasant,unpleasant,NA,NA,NA,NA,NA,left,2117,true,NA,NA,NA,NA,NA
h6vV5rrU,322zsn9z6jxccjxbpgrk4cn83gtt4w,3rkntxvs3qb9k7wwai55yrt8h9ja4w,h6vV5rrU,2020-0188,2021-10-15,16:42:21,18:44:34,NA,incomplete,false,true,NA,7,27,NA,gray,n_s_023.jpg,NA,NA,unpleasant,pleasant,NA,NA,NA,NA,NA,right,1536,true,NA,NA,NA,NA,NA
h6vV5rrU,322zsn9z6jxccjxbpgrk4cn83gtt4w,3rkntxvs3qb9k7wwai55yrt8h9ja4w,h6vV5rrU,2020-0188,2021-10-15,16:42:21,18:44:34,NA,incomplete,false,true,NA,7,28,NA,gray,m_s_102.jpg,NA,NA,unpleasant,pleasant,NA,NA,NA,NA,NA,right,1827,true,NA,NA,NA,NA,NA
h6vV5rrU,322zsn9z6jxccjxbpgrk4cn83gtt4w,3rkntxvs3qb9k7wwai55yrt8h9ja4w,h6vV5rrU,2020-0188,2021-10-15,16:42:21,18:44:34,NA,incomplete,false,true,NA,7,29,NA,gray,n_l_067.jpg,NA,NA,pleasant,unpleasant,NA,NA,NA,NA,NA,left,2821,true,NA,NA,NA,NA,NA
h6vV5rrU,322zsn9z6jxccjxbpgrk4cn83gtt4w,3rkntxvs3qb9k7wwai55yrt8h9ja4w,h6vV5rrU,2020-0188,2021-10-15,16:42:21,18:44:34,NA,incomplete,false,true,NA,7,30,NA,blue,n_s_071.jpg,NA,NA,unpleasant,pleasant,NA,NA,NA,NA,NA,right,1395,true,NA,NA,NA,NA,NA
h6vV5rrU,322zsn9z6jxccjxbpgrk4cn83gtt4w,3rkntxvs3qb9k7wwai55yrt8h9ja4w,h6vV5rrU,2020-0188,2021-10-15,16:42:21,18:44:34,NA,incomplete,false,true,NA,7,31,NA,blue,m_s_010.jpg,NA,NA,pleasant,unpleasant,NA,NA,NA,NA,NA,right,3198,true,NA,NA,NA,NA,NA
h6vV5rrU,322zsn9z6jxccjxbpgrk4cn83gtt4w,3rkntxvs3qb9k7wwai55yrt8h9ja4w,h6vV5rrU,2020-0188,2021-10-15,16:42:21,18:44:34,NA,incomplete,false,true,NA,7,32,NA,blue,n_s_034.jpg,NA,NA,pleasant,unpleasant,NA,NA,NA,NA,NA,left,1395,true,NA,NA,NA,NA,NA
h6vV5rrU,322zsn9z6jxccjxbpgrk4cn83gtt4w,3rkntxvs3qb9k7wwai55yrt8h9ja4w,h6vV5rrU,2020-0188,2021-10-15,16:42:21,18:44:34,NA,incomplete,false,true,NA,7,33,NA,blue,n_l_066.jpg,NA,NA,unpleasant,pleasant,NA,NA,NA,NA,NA,right,2133,true,NA,NA,NA,NA,NA
h6vV5rrU,322zsn9z6jxccjxbpgrk4cn83gtt4w,3rkntxvs3qb9k7wwai55yrt8h9ja4w,h6vV5rrU,2020-0188,2021-10-15,16:42:21,18:44:34,NA,incomplete,false,true,NA,7,34,NA,blue,m_l_032.jpg,NA,NA,pleasant,unpleasant,NA,NA,NA,NA,NA,left,1858,true,NA,NA,NA,NA,NA
h6vV5rrU,322zsn9z6jxccjxbpgrk4cn83gtt4w,3rkntxvs3qb9k7wwai55yrt8h9ja4w,h6vV5rrU,2020-0188,2021-10-15,16:42:21,18:44:34,NA,incomplete,false,true,NA,7,35,NA,blue,n_s_051.jpg,NA,NA,unpleasant,pleasant,NA,NA,NA,NA,NA,left,2370,true,NA,NA,NA,NA,NA
h6vV5rrU,322zsn9z6jxccjxbpgrk4cn83gtt4w,3rkntxvs3qb9k7wwai55yrt8h9ja4w,h6vV5rrU,2020-0188,2021-10-15,16:42:21,18:44:34,NA,incomplete,false,NA,true,7,0,NA,NA,NA,left,absent,NA,NA,m_s_102.jpg,gray,n_s_034.jpg,blue,between,NA,NaN,NA,left,3621,1,2,1647
h6vV5rrU,322zsn9z6jxccjxbpgrk4cn83gtt4w,3rkntxvs3qb9k7wwai55yrt8h9ja4w,h6vV5rrU,2020-0188,2021-10-15,16:42:21,18:44:34,NA,incomplete,false,NA,true,7,1,NA,NA,NA,left,absent,NA,NA,n_s_078.jpg,yellow,m_l_073.jpg,black,between,NA,NaN,NA,left,2733,1,1,1359
h6vV5rrU,322zsn9z6jxccjxbpgrk4cn83gtt4w,3rkntxvs3qb9k7wwai55yrt8h9ja4w,h6vV5rrU,2020-0188,2021-10-15,16:42:21,18:44:34,NA,incomplete,false,NA,true,7,2,NA,NA,NA,right,absent,NA,NA,n_l_013.jpg,orange,m_s_036.jpg,orange,within,NA,NaN,NA,right,4120,1,2,2657
h6vV5rrU,322zsn9z6jxccjxbpgrk4cn83gtt4w,3rkntxvs3qb9k7wwai55yrt8h9ja4w,h6vV5rrU,2020-0188,2021-10-15,16:42:21,18:44:34,NA,incomplete,false,NA,true,7,3,NA,NA,NA,left,absent,NA,NA,m_s_061.jpg,orange,m_l_031.jpg,white,between,NA,NaN,NA,right,5039,0,2,2664
h6vV5rrU,322zsn9z6jxccjxbpgrk4cn83gtt4w,3rkntxvs3qb9k7wwai55yrt8h9ja4w,h6vV5rrU,2020-0188,2021-10-15,16:42:21,18:44:34,NA,incomplete,false,NA,true,7,4,NA,NA,NA,left,absent,NA,NA,m_s_032.jpg,white,m_s_094.jpg,yellow,between,NA,NaN,NA,left,2790,1,1,2062
h6vV5rrU,322zsn9z6jxccjxbpgrk4cn83gtt4w,3rkntxvs3qb9k7wwai55yrt8h9ja4w,h6vV5rrU,2020-0188,2021-10-15,16:42:21,18:44:34,NA,incomplete,false,NA,true,7,5,NA,NA,NA,right,absent,NA,NA,n_s_051.jpg,blue,m_s_010.jpg,blue,within,NA,NaN,NA,right,5936,1,1,2607
h6vV5rrU,322zsn9z6jxccjxbpgrk4cn83gtt4w,3rkntxvs3qb9k7wwai55yrt8h9ja4w,h6vV5rrU,2020-0188,2021-10-15,16:42:21,18:44:34,NA,incomplete,false,NA,true,7,6,NA,NA,NA,right,absent,NA,NA,m_s_057.jpg,black,n_l_082.jpg,black,within,NA,NaN,NA,right,6815,1,2,2471
h6vV5rrU,322zsn9z6jxccjxbpgrk4cn83gtt4w,3rkntxvs3qb9k7wwai55yrt8h9ja4w,h6vV5rrU,2020-0188,2021-10-15,16:42:21,18:44:34,NA,incomplete,false,NA,true,7,7,NA,NA,NA,left,absent,NA,NA,m_s_035.jpg,gray,n_l_067.jpg,gray,within,NA,NaN,NA,left,3262,1,1,1495
h6vV5rrU,322zsn9z6jxccjxbpgrk4cn83gtt4w,3rkntxvs3qb9k7wwai55yrt8h9ja4w,h6vV5rrU,2020-0188,2021-10-15,16:42:21,18:44:34,NA,incomplete,false,NA,true,7,8,NA,NA,NA,right,absent,NA,NA,n_s_081.jpg,gray,n_s_085.jpg,black,between,NA,NaN,NA,left,4801,0,2,1856
h6vV5rrU,322zsn9z6jxccjxbpgrk4cn83gtt4w,3rkntxvs3qb9k7wwai55yrt8h9ja4w,h6vV5rrU,2020-0188,2021-10-15,16:42:21,18:44:34,NA,incomplete,false,NA,true,7,9,NA,NA,NA,left,absent,NA,NA,m_s_019.jpg,yellow,n_s_044.jpg,yellow,within,NA,NaN,NA,right,3168,0,3,1887
h6vV5rrU,322zsn9z6jxccjxbpgrk4cn83gtt4w,3rkntxvs3qb9k7wwai55yrt8h9ja4w,h6vV5rrU,2020-0188,2021-10-15,16:42:21,18:44:34,NA,incomplete,false,NA,true,7,10,NA,NA,NA,left,absent,NA,NA,n_s_019.jpg,white,m_s_039.jpg,white,within,NA,NaN,NA,left,7438,1,1,1368
h6vV5rrU,322zsn9z6jxccjxbpgrk4cn83gtt4w,3rkntxvs3qb9k7wwai55yrt8h9ja4w,h6vV5rrU,2020-0188,2021-10-15,16:42:21,18:44:34,NA,incomplete,false,true,NA,8,0,NA,white,n_l_016.jpg,NA,NA,pleasant,unpleasant,NA,NA,NA,NA,NA,left,2359,true,NA,NA,NA,NA,NA
h6vV5rrU,322zsn9z6jxccjxbpgrk4cn83gtt4w,3rkntxvs3qb9k7wwai55yrt8h9ja4w,h6vV5rrU,2020-0188,2021-10-15,16:42:21,18:44:34,NA,incomplete,false,true,NA,8,1,NA,white,n_l_034.jpg,NA,NA,unpleasant,pleasant,NA,NA,NA,NA,NA,right,1034,true,NA,NA,NA,NA,NA
h6vV5rrU,322zsn9z6jxccjxbpgrk4cn83gtt4w,3rkntxvs3qb9k7wwai55yrt8h9ja4w,h6vV5rrU,2020-0188,2021-10-15,16:42:21,18:44:34,NA,incomplete,false,true,NA,8,2,NA,white,n_l_025.jpg,NA,NA,pleasant,unpleasant,NA,NA,NA,NA,NA,left,2573,true,NA,NA,NA,NA,NA
h6vV5rrU,322zsn9z6jxccjxbpgrk4cn83gtt4w,3rkntxvs3qb9k7wwai55yrt8h9ja4w,h6vV5rrU,2020-0188,2021-10-15,16:42:21,18:44:34,NA,incomplete,false,true,NA,8,3,NA,white,n_l_029.jpg,NA,NA,pleasant,unpleasant,NA,NA,NA,NA,NA,left,1697,true,NA,NA,NA,NA,NA
h6vV5rrU,322zsn9z6jxccjxbpgrk4cn83gtt4w,3rkntxvs3qb9k7wwai55yrt8h9ja4w,h6vV5rrU,2020-0188,2021-10-15,16:42:21,18:44:34,NA,incomplete,false,true,NA,8,4,NA,white,n_s_115.jpg,NA,NA,unpleasant,pleasant,NA,NA,NA,NA,NA,right,2541,true,NA,NA,NA,NA,NA
h6vV5rrU,322zsn9z6jxccjxbpgrk4cn83gtt4w,3rkntxvs3qb9k7wwai55yrt8h9ja4w,h6vV5rrU,2020-0188,2021-10-15,16:42:21,18:44:34,NA,incomplete,false,true,NA,8,5,NA,white,m_s_082.jpg,NA,NA,unpleasant,pleasant,NA,NA,NA,NA,NA,left,2273,true,NA,NA,NA,NA,NA
h6vV5rrU,322zsn9z6jxccjxbpgrk4cn83gtt4w,3rkntxvs3qb9k7wwai55yrt8h9ja4w,h6vV5rrU,2020-0188,2021-10-15,16:42:21,18:44:34,NA,incomplete,false,true,NA,8,6,NA,brown,n_l_002.jpg,NA,NA,pleasant,unpleasant,NA,NA,NA,NA,NA,left,2844,true,NA,NA,NA,NA,NA
h6vV5rrU,322zsn9z6jxccjxbpgrk4cn83gtt4w,3rkntxvs3qb9k7wwai55yrt8h9ja4w,h6vV5rrU,2020-0188,2021-10-15,16:42:21,18:44:34,NA,incomplete,false,true,NA,8,7,NA,brown,m_s_009.jpg,NA,NA,unpleasant,pleasant,NA,NA,NA,NA,NA,left,2179,true,NA,NA,NA,NA,NA
h6vV5rrU,322zsn9z6jxccjxbpgrk4cn83gtt4w,3rkntxvs3qb9k7wwai55yrt8h9ja4w,h6vV5rrU,2020-0188,2021-10-15,16:42:21,18:44:34,NA,incomplete,false,true,NA,8,8,NA,brown,m_l_015.jpg,NA,NA,unpleasant,pleasant,NA,NA,NA,NA,NA,left,2291,true,NA,NA,NA,NA,NA
h6vV5rrU,322zsn9z6jxccjxbpgrk4cn83gtt4w,3rkntxvs3qb9k7wwai55yrt8h9ja4w,h6vV5rrU,2020-0188,2021-10-15,16:42:21,18:44:34,NA,incomplete,false,true,NA,8,9,NA,brown,m_s_004.jpg,NA,NA,pleasant,unpleasant,NA,NA,NA,NA,NA,right,2111,true,NA,NA,NA,NA,NA
h6vV5rrU,322zsn9z6jxccjxbpgrk4cn83gtt4w,3rkntxvs3qb9k7wwai55yrt8h9ja4w,h6vV5rrU,2020-0188,2021-10-15,16:42:21,18:44:34,NA,incomplete,false,true,NA,8,10,NA,brown,n_s_062.jpg,NA,NA,pleasant,unpleasant,NA,NA,NA,NA,NA,left,1483,true,NA,NA,NA,NA,NA
h6vV5rrU,322zsn9z6jxccjxbpgrk4cn83gtt4w,3rkntxvs3qb9k7wwai55yrt8h9ja4w,h6vV5rrU,2020-0188,2021-10-15,16:42:21,18:44:34,NA,incomplete,false,true,NA,8,11,NA,brown,m_s_003.jpg,NA,NA,unpleasant,pleasant,NA,NA,NA,NA,NA,left,2492,true,NA,NA,NA,NA,NA
h6vV5rrU,322zsn9z6jxccjxbpgrk4cn83gtt4w,3rkntxvs3qb9k7wwai55yrt8h9ja4w,h6vV5rrU,2020-0188,2021-10-15,16:42:21,18:44:34,NA,incomplete,false,true,NA,8,12,NA,blue,n_l_105.jpg,NA,NA,unpleasant,pleasant,NA,NA,NA,NA,NA,left,2105,true,NA,NA,NA,NA,NA
h6vV5rrU,322zsn9z6jxccjxbpgrk4cn83gtt4w,3rkntxvs3qb9k7wwai55yrt8h9ja4w,h6vV5rrU,2020-0188,2021-10-15,16:42:21,18:44:34,NA,incomplete,false,true,NA,8,13,NA,blue,m_l_002.jpg,NA,NA,pleasant,unpleasant,NA,NA,NA,NA,NA,left,1709,true,NA,NA,NA,NA,NA
h6vV5rrU,322zsn9z6jxccjxbpgrk4cn83gtt4w,3rkntxvs3qb9k7wwai55yrt8h9ja4w,h6vV5rrU,2020-0188,2021-10-15,16:42:21,18:44:34,NA,incomplete,false,true,NA,8,14,NA,blue,m_s_087.jpg,NA,NA,unpleasant,pleasant,NA,NA,NA,NA,NA,left,1304,true,NA,NA,NA,NA,NA
h6vV5rrU,322zsn9z6jxccjxbpgrk4cn83gtt4w,3rkntxvs3qb9k7wwai55yrt8h9ja4w,h6vV5rrU,2020-0188,2021-10-15,16:42:21,18:44:34,NA,incomplete,false,true,NA,8,15,NA,blue,n_l_111.jpg,NA,NA,unpleasant,pleasant,NA,NA,NA,NA,NA,right,2947,true,NA,NA,NA,NA,NA
h6vV5rrU,322zsn9z6jxccjxbpgrk4cn83gtt4w,3rkntxvs3qb9k7wwai55yrt8h9ja4w,h6vV5rrU,2020-0188,2021-10-15,16:42:21,18:44:34,NA,incomplete,false,true,NA,8,16,NA,blue,m_l_109.jpg,NA,NA,pleasant,unpleasant,NA,NA,NA,NA,NA,left,2439,true,NA,NA,NA,NA,NA
h6vV5rrU,322zsn9z6jxccjxbpgrk4cn83gtt4w,3rkntxvs3qb9k7wwai55yrt8h9ja4w,h6vV5rrU,2020-0188,2021-10-15,16:42:21,18:44:34,NA,incomplete,false,true,NA,8,17,NA,blue,m_s_062.jpg,NA,NA,unpleasant,pleasant,NA,NA,NA,NA,NA,right,1539,true,NA,NA,NA,NA,NA
h6vV5rrU,322zsn9z6jxccjxbpgrk4cn83gtt4w,3rkntxvs3qb9k7wwai55yrt8h9ja4w,h6vV5rrU,2020-0188,2021-10-15,16:42:21,18:44:34,NA,incomplete,false,true,NA,8,18,NA,yellow,n_s_022.jpg,NA,NA,pleasant,unpleasant,NA,NA,NA,NA,NA,left,2008,true,NA,NA,NA,NA,NA
h6vV5rrU,322zsn9z6jxccjxbpgrk4cn83gtt4w,3rkntxvs3qb9k7wwai55yrt8h9ja4w,h6vV5rrU,2020-0188,2021-10-15,16:42:21,18:44:34,NA,incomplete,false,true,NA,8,19,NA,yellow,n_s_043.jpg,NA,NA,unpleasant,pleasant,NA,NA,NA,NA,NA,right,1336,true,NA,NA,NA,NA,NA
h6vV5rrU,322zsn9z6jxccjxbpgrk4cn83gtt4w,3rkntxvs3qb9k7wwai55yrt8h9ja4w,h6vV5rrU,2020-0188,2021-10-15,16:42:21,18:44:34,NA,incomplete,false,true,NA,8,20,NA,yellow,m_s_014.jpg,NA,NA,unpleasant,pleasant,NA,NA,NA,NA,NA,right,1933,true,NA,NA,NA,NA,NA
h6vV5rrU,322zsn9z6jxccjxbpgrk4cn83gtt4w,3rkntxvs3qb9k7wwai55yrt8h9ja4w,h6vV5rrU,2020-0188,2021-10-15,16:42:21,18:44:34,NA,incomplete,false,true,NA,8,21,NA,yellow,n_s_009.jpg,NA,NA,pleasant,unpleasant,NA,NA,NA,NA,NA,left,1695,true,NA,NA,NA,NA,NA
h6vV5rrU,322zsn9z6jxccjxbpgrk4cn83gtt4w,3rkntxvs3qb9k7wwai55yrt8h9ja4w,h6vV5rrU,2020-0188,2021-10-15,16:42:21,18:44:34,NA,incomplete,false,true,NA,8,22,NA,yellow,n_s_024.jpg,NA,NA,unpleasant,pleasant,NA,NA,NA,NA,NA,right,1682,true,NA,NA,NA,NA,NA
h6vV5rrU,322zsn9z6jxccjxbpgrk4cn83gtt4w,3rkntxvs3qb9k7wwai55yrt8h9ja4w,h6vV5rrU,2020-0188,2021-10-15,16:42:21,18:44:34,NA,incomplete,false,true,NA,8,23,NA,yellow,n_l_014.jpg,NA,NA,unpleasant,pleasant,NA,NA,NA,NA,NA,right,2174,true,NA,NA,NA,NA,NA
h6vV5rrU,322zsn9z6jxccjxbpgrk4cn83gtt4w,3rkntxvs3qb9k7wwai55yrt8h9ja4w,h6vV5rrU,2020-0188,2021-10-15,16:42:21,18:44:34,NA,incomplete,false,true,NA,8,24,NA,black,m_l_050.jpg,NA,NA,pleasant,unpleasant,NA,NA,NA,NA,NA,left,2136,true,NA,NA,NA,NA,NA
h6vV5rrU,322zsn9z6jxccjxbpgrk4cn83gtt4w,3rkntxvs3qb9k7wwai55yrt8h9ja4w,h6vV5rrU,2020-0188,2021-10-15,16:42:21,18:44:34,NA,incomplete,false,true,NA,8,25,NA,black,m_l_084.jpg,NA,NA,pleasant,unpleasant,NA,NA,NA,NA,NA,right,1796,true,NA,NA,NA,NA,NA
h6vV5rrU,322zsn9z6jxccjxbpgrk4cn83gtt4w,3rkntxvs3qb9k7wwai55yrt8h9ja4w,h6vV5rrU,2020-0188,2021-10-15,16:42:21,18:44:34,NA,incomplete,false,true,NA,8,26,NA,black,m_s_018.jpg,NA,NA,pleasant,unpleasant,NA,NA,NA,NA,NA,right,1537,true,NA,NA,NA,NA,NA
h6vV5rrU,322zsn9z6jxccjxbpgrk4cn83gtt4w,3rkntxvs3qb9k7wwai55yrt8h9ja4w,h6vV5rrU,2020-0188,2021-10-15,16:42:21,18:44:34,NA,incomplete,false,true,NA,8,27,NA,black,n_l_100.jpg,NA,NA,pleasant,unpleasant,NA,NA,NA,NA,NA,left,1300,true,NA,NA,NA,NA,NA
h6vV5rrU,322zsn9z6jxccjxbpgrk4cn83gtt4w,3rkntxvs3qb9k7wwai55yrt8h9ja4w,h6vV5rrU,2020-0188,2021-10-15,16:42:21,18:44:34,NA,incomplete,false,true,NA,8,28,NA,black,m_s_103.jpg,NA,NA,unpleasant,pleasant,NA,NA,NA,NA,NA,right,1631,true,NA,NA,NA,NA,NA
