workerId,hitId,assignmentId,subject,studyid,exp_date,exp_start,exp_end,time_start,time_end,practice,encoding,memory,block,trial,event_order,event,stim,answer,context_type,label_left,label_right,left_image,left_event,right_image,right_event,condition,response,response_time,response_acc,order_response,order_response_time,order_acc,distance_response,distance_response_time
IpcveBma,3uy4pis8ruyxp7v852m6xfad2fzn1g,3xxu1swe8q8sljevrhi3mo3v04za0q,IpcveBma,2020-0188,2021-10-17,08:50:37,10:00:56,NA,incomplete,true,true,NA,0,0,NA,yellow,n_l_047.jpg,NA,NA,pleasant,unpleasant,NA,NA,NA,NA,NA,left,1311.69999998808,true,NA,NA,NA,NA,NA
IpcveBma,3uy4pis8ruyxp7v852m6xfad2fzn1g,3xxu1swe8q8sljevrhi3mo3v04za0q,IpcveBma,2020-0188,2021-10-17,08:50:37,10:00:56,NA,incomplete,true,true,NA,0,1,NA,yellow,n_s_089.jpg,NA,NA,pleasant,unpleasant,NA,NA,NA,NA,NA,left,1131.30000001192,true,NA,NA,NA,NA,NA
IpcveBma,3uy4pis8ruyxp7v852m6xfad2fzn1g,3xxu1swe8q8sljevrhi3mo3v04za0q,IpcveBma,2020-0188,2021-10-17,08:50:37,10:00:56,NA,incomplete,true,true,NA,0,2,NA,yellow,n_s_033.jpg,NA,NA,pleasant,unpleasant,NA,NA,NA,NA,NA,left,2216,true,NA,NA,NA,NA,NA
IpcveBma,3uy4pis8ruyxp7v852m6xfad2fzn1g,3xxu1swe8q8sljevrhi3mo3v04za0q,IpcveBma,2020-0188,2021-10-17,08:50:37,10:00:56,NA,incomplete,true,true,NA,0,3,NA,yellow,n_s_060.jpg,NA,NA,unpleasant,pleasant,NA,NA,NA,NA,NA,left,1123.30000001192,true,NA,NA,NA,NA,NA
IpcveBma,3uy4pis8ruyxp7v852m6xfad2fzn1g,3xxu1swe8q8sljevrhi3mo3v04za0q,IpcveBma,2020-0188,2021-10-17,08:50:37,10:00:56,NA,incomplete,true,true,NA,0,4,NA,yellow,n_l_090.jpg,NA,NA,unpleasant,pleasant,NA,NA,NA,NA,NA,left,1749.79999998212,true,NA,NA,NA,NA,NA
IpcveBma,3uy4pis8ruyxp7v852m6xfad2fzn1g,3xxu1swe8q8sljevrhi3mo3v04za0q,IpcveBma,2020-0188,2021-10-17,08:50:37,10:00:56,NA,incomplete,true,true,NA,0,5,NA,yellow,n_l_113.jpg,NA,NA,pleasant,unpleasant,NA,NA,NA,NA,NA,right,2885.90000000596,true,NA,NA,NA,NA,NA
IpcveBma,3uy4pis8ruyxp7v852m6xfad2fzn1g,3xxu1swe8q8sljevrhi3mo3v04za0q,IpcveBma,2020-0188,2021-10-17,08:50:37,10:00:56,NA,incomplete,true,true,NA,0,6,NA,red,m_l_057.jpg,NA,NA,unpleasant,pleasant,NA,NA,NA,NA,NA,left,1922.90000000596,true,NA,NA,NA,NA,NA
IpcveBma,3uy4pis8ruyxp7v852m6xfad2fzn1g,3xxu1swe8q8sljevrhi3mo3v04za0q,IpcveBma,2020-0188,2021-10-17,08:50:37,10:00:56,NA,incomplete,true,true,NA,0,7,NA,red,m_s_061.jpg,NA,NA,unpleasant,pleasant,NA,NA,NA,NA,NA,left,2058.30000001192,true,NA,NA,NA,NA,NA
IpcveBma,3uy4pis8ruyxp7v852m6xfad2fzn1g,3xxu1swe8q8sljevrhi3mo3v04za0q,IpcveBma,2020-0188,2021-10-17,08:50:37,10:00:56,NA,incomplete,true,true,NA,0,8,NA,red,m_l_011.jpg,NA,NA,pleasant,unpleasant,NA,NA,NA,NA,NA,right,1221.89999997616,true,NA,NA,NA,NA,NA
IpcveBma,3uy4pis8ruyxp7v852m6xfad2fzn1g,3xxu1swe8q8sljevrhi3mo3v04za0q,IpcveBma,2020-0188,2021-10-17,08:50:37,10:00:56,NA,incomplete,true,true,NA,0,9,NA,red,m_l_104.jpg,NA,NA,pleasant,unpleasant,NA,NA,NA,NA,NA,left,1429.19999998808,true,NA,NA,NA,NA,NA
IpcveBma,3uy4pis8ruyxp7v852m6xfad2fzn1g,3xxu1swe8q8sljevrhi3mo3v04za0q,IpcveBma,2020-0188,2021-10-17,08:50:37,10:00:56,NA,incomplete,true,true,NA,0,10,NA,red,m_s_105.jpg,NA,NA,unpleasant,pleasant,NA,NA,NA,NA,NA,right,1274.80000001192,true,NA,NA,NA,NA,NA
IpcveBma,3uy4pis8ruyxp7v852m6xfad2fzn1g,3xxu1swe8q8sljevrhi3mo3v04za0q,IpcveBma,2020-0188,2021-10-17,08:50:37,10:00:56,NA,incomplete,true,true,NA,0,11,NA,red,n_s_019.jpg,NA,NA,unpleasant,pleasant,NA,NA,NA,NA,NA,right,1899,true,NA,NA,NA,NA,NA
IpcveBma,3uy4pis8ruyxp7v852m6xfad2fzn1g,3xxu1swe8q8sljevrhi3mo3v04za0q,IpcveBma,2020-0188,2021-10-17,08:50:37,10:00:56,NA,incomplete,true,true,NA,0,12,NA,black,n_l_079.jpg,NA,NA,pleasant,unpleasant,NA,NA,NA,NA,NA,left,1266.59999999404,true,NA,NA,NA,NA,NA
IpcveBma,3uy4pis8ruyxp7v852m6xfad2fzn1g,3xxu1swe8q8sljevrhi3mo3v04za0q,IpcveBma,2020-0188,2021-10-17,08:50:37,10:00:56,NA,incomplete,true,true,NA,0,13,NA,black,n_s_040.jpg,NA,NA,pleasant,unpleasant,NA,NA,NA,NA,NA,right,1330.29999998212,true,NA,NA,NA,NA,NA
IpcveBma,3uy4pis8ruyxp7v852m6xfad2fzn1g,3xxu1swe8q8sljevrhi3mo3v04za0q,IpcveBma,2020-0188,2021-10-17,08:50:37,10:00:56,NA,incomplete,true,true,NA,0,14,NA,black,n_s_008.jpg,NA,NA,pleasant,unpleasant,NA,NA,NA,NA,NA,right,1315.60000002384,true,NA,NA,NA,NA,NA
IpcveBma,3uy4pis8ruyxp7v852m6xfad2fzn1g,3xxu1swe8q8sljevrhi3mo3v04za0q,IpcveBma,2020-0188,2021-10-17,08:50:37,10:00:56,NA,incomplete,true,true,NA,0,15,NA,black,n_s_077.jpg,NA,NA,pleasant,unpleasant,NA,NA,NA,NA,NA,left,1579,true,NA,NA,NA,NA,NA
IpcveBma,3uy4pis8ruyxp7v852m6xfad2fzn1g,3xxu1swe8q8sljevrhi3mo3v04za0q,IpcveBma,2020-0188,2021-10-17,08:50:37,10:00:56,NA,incomplete,true,true,NA,0,16,NA,black,m_l_069.jpg,NA,NA,unpleasant,pleasant,NA,NA,NA,NA,NA,left,1476.09999999404,true,NA,NA,NA,NA,NA
IpcveBma,3uy4pis8ruyxp7v852m6xfad2fzn1g,3xxu1swe8q8sljevrhi3mo3v04za0q,IpcveBma,2020-0188,2021-10-17,08:50:37,10:00:56,NA,incomplete,true,true,NA,0,17,NA,black,n_l_042.jpg,NA,NA,unpleasant,pleasant,NA,NA,NA,NA,NA,right,1448.90000000596,true,NA,NA,NA,NA,NA
IpcveBma,3uy4pis8ruyxp7v852m6xfad2fzn1g,3xxu1swe8q8sljevrhi3mo3v04za0q,IpcveBma,2020-0188,2021-10-17,08:50:37,10:00:56,NA,incomplete,true,true,NA,0,18,NA,brown,n_s_055.jpg,NA,NA,unpleasant,pleasant,NA,NA,NA,NA,NA,right,1959.69999998808,true,NA,NA,NA,NA,NA
IpcveBma,3uy4pis8ruyxp7v852m6xfad2fzn1g,3xxu1swe8q8sljevrhi3mo3v04za0q,IpcveBma,2020-0188,2021-10-17,08:50:37,10:00:56,NA,incomplete,true,true,NA,0,19,NA,brown,m_l_064.jpg,NA,NA,pleasant,unpleasant,NA,NA,NA,NA,NA,left,1223.5,true,NA,NA,NA,NA,NA
IpcveBma,3uy4pis8ruyxp7v852m6xfad2fzn1g,3xxu1swe8q8sljevrhi3mo3v04za0q,IpcveBma,2020-0188,2021-10-17,08:50:37,10:00:56,NA,incomplete,true,true,NA,0,20,NA,brown,m_l_101.jpg,NA,NA,pleasant,unpleasant,NA,NA,NA,NA,NA,left,1756.90000000596,true,NA,NA,NA,NA,NA
IpcveBma,3uy4pis8ruyxp7v852m6xfad2fzn1g,3xxu1swe8q8sljevrhi3mo3v04za0q,IpcveBma,2020-0188,2021-10-17,08:50:37,10:00:56,NA,incomplete,true,true,NA,0,21,NA,brown,n_l_084.jpg,NA,NA,pleasant,unpleasant,NA,NA,NA,NA,NA,right,1878.80000001192,true,NA,NA,NA,NA,NA
IpcveBma,3uy4pis8ruyxp7v852m6xfad2fzn1g,3xxu1swe8q8sljevrhi3mo3v04za0q,IpcveBma,2020-0188,2021-10-17,08:50:37,10:00:56,NA,incomplete,true,true,NA,0,22,NA,brown,m_s_033.jpg,NA,NA,pleasant,unpleasant,NA,NA,NA,NA,NA,left,1530.69999998808,true,NA,NA,NA,NA,NA
IpcveBma,3uy4pis8ruyxp7v852m6xfad2fzn1g,3xxu1swe8q8sljevrhi3mo3v04za0q,IpcveBma,2020-0188,2021-10-17,08:50:37,10:00:56,NA,incomplete,true,true,NA,0,23,NA,brown,n_l_062.jpg,NA,NA,unpleasant,pleasant,NA,NA,NA,NA,NA,right,1646.80000001192,true,NA,NA,NA,NA,NA
IpcveBma,3uy4pis8ruyxp7v852m6xfad2fzn1g,3xxu1swe8q8sljevrhi3mo3v04za0q,IpcveBma,2020-0188,2021-10-17,08:50:37,10:00:56,NA,incomplete,true,true,NA,0,24,NA,orange,m_l_114.jpg,NA,NA,pleasant,unpleasant,NA,NA,NA,NA,NA,left,1826.69999998808,true,NA,NA,NA,NA,NA
IpcveBma,3uy4pis8ruyxp7v852m6xfad2fzn1g,3xxu1swe8q8sljevrhi3mo3v04za0q,IpcveBma,2020-0188,2021-10-17,08:50:37,10:00:56,NA,incomplete,true,true,NA,0,25,NA,orange,m_l_027.jpg,NA,NA,unpleasant,pleasant,NA,NA,NA,NA,NA,right,1649.5,true,NA,NA,NA,NA,NA
IpcveBma,3uy4pis8ruyxp7v852m6xfad2fzn1g,3xxu1swe8q8sljevrhi3mo3v04za0q,IpcveBma,2020-0188,2021-10-17,08:50:37,10:00:56,NA,incomplete,true,true,NA,0,26,NA,orange,m_l_107.jpg,NA,NA,unpleasant,pleasant,NA,NA,NA,NA,NA,left,1416.90000000596,true,NA,NA,NA,NA,NA
IpcveBma,3uy4pis8ruyxp7v852m6xfad2fzn1g,3xxu1swe8q8sljevrhi3mo3v04za0q,IpcveBma,2020-0188,2021-10-17,08:50:37,10:00:56,NA,incomplete,true,true,NA,0,27,NA,orange,m_s_078.jpg,NA,NA,pleasant,unpleasant,NA,NA,NA,NA,NA,left,1197.29999998212,true,NA,NA,NA,NA,NA
IpcveBma,3uy4pis8ruyxp7v852m6xfad2fzn1g,3xxu1swe8q8sljevrhi3mo3v04za0q,IpcveBma,2020-0188,2021-10-17,08:50:37,10:00:56,NA,incomplete,true,true,NA,0,28,NA,orange,n_s_113.jpg,NA,NA,unpleasant,pleasant,NA,NA,NA,NA,NA,right,1650.70000001788,true,NA,NA,NA,NA,NA
IpcveBma,3uy4pis8ruyxp7v852m6xfad2fzn1g,3xxu1swe8q8sljevrhi3mo3v04za0q,IpcveBma,2020-0188,2021-10-17,08:50:37,10:00:56,NA,incomplete,true,true,NA,0,29,NA,orange,m_s_034.jpg,NA,NA,pleasant,unpleasant,NA,NA,NA,NA,NA,left,1600.30000001192,true,NA,NA,NA,NA,NA
IpcveBma,3uy4pis8ruyxp7v852m6xfad2fzn1g,3xxu1swe8q8sljevrhi3mo3v04za0q,IpcveBma,2020-0188,2021-10-17,08:50:37,10:00:56,NA,incomplete,true,true,NA,0,30,NA,purple,n_s_050.jpg,NA,NA,pleasant,unpleasant,NA,NA,NA,NA,NA,right,1308.5,true,NA,NA,NA,NA,NA
IpcveBma,3uy4pis8ruyxp7v852m6xfad2fzn1g,3xxu1swe8q8sljevrhi3mo3v04za0q,IpcveBma,2020-0188,2021-10-17,08:50:37,10:00:56,NA,incomplete,true,true,NA,0,31,NA,purple,n_s_015.jpg,NA,NA,pleasant,unpleasant,NA,NA,NA,NA,NA,left,1392.90000000596,true,NA,NA,NA,NA,NA
IpcveBma,3uy4pis8ruyxp7v852m6xfad2fzn1g,3xxu1swe8q8sljevrhi3mo3v04za0q,IpcveBma,2020-0188,2021-10-17,08:50:37,10:00:56,NA,incomplete,true,true,NA,0,32,NA,purple,n_s_109.jpg,NA,NA,unpleasant,pleasant,NA,NA,NA,NA,NA,left,1684.79999998212,true,NA,NA,NA,NA,NA
IpcveBma,3uy4pis8ruyxp7v852m6xfad2fzn1g,3xxu1swe8q8sljevrhi3mo3v04za0q,IpcveBma,2020-0188,2021-10-17,08:50:37,10:00:56,NA,incomplete,true,true,NA,0,33,NA,purple,n_l_040.jpg,NA,NA,unpleasant,pleasant,NA,NA,NA,NA,NA,left,1828.19999998808,true,NA,NA,NA,NA,NA
IpcveBma,3uy4pis8ruyxp7v852m6xfad2fzn1g,3xxu1swe8q8sljevrhi3mo3v04za0q,IpcveBma,2020-0188,2021-10-17,08:50:37,10:00:56,NA,incomplete,true,true,NA,0,34,NA,purple,n_l_008.jpg,NA,NA,unpleasant,pleasant,NA,NA,NA,NA,NA,right,1441.90000000596,true,NA,NA,NA,NA,NA
IpcveBma,3uy4pis8ruyxp7v852m6xfad2fzn1g,3xxu1swe8q8sljevrhi3mo3v04za0q,IpcveBma,2020-0188,2021-10-17,08:50:37,10:00:56,NA,incomplete,true,true,NA,0,35,NA,purple,n_s_064.jpg,NA,NA,unpleasant,pleasant,NA,NA,NA,NA,NA,left,1418.40000000596,true,NA,NA,NA,NA,NA
IpcveBma,3uy4pis8ruyxp7v852m6xfad2fzn1g,3xxu1swe8q8sljevrhi3mo3v04za0q,IpcveBma,2020-0188,2021-10-17,08:50:37,10:00:56,NA,incomplete,true,NA,true,0,0,NA,NA,NA,left,absent,NA,NA,m_l_027.jpg,orange,m_s_034.jpg,orange,within,NA,NaN,NA,right,5528.0999999940395,0,1,6257.0999999940395
IpcveBma,3uy4pis8ruyxp7v852m6xfad2fzn1g,3xxu1swe8q8sljevrhi3mo3v04za0q,IpcveBma,2020-0188,2021-10-17,08:50:37,10:00:56,NA,incomplete,true,NA,true,0,1,NA,NA,NA,left,absent,NA,NA,n_l_090.jpg,yellow,m_l_011.jpg,red,between,NA,NaN,NA,left,3278.800000011921,1,2,1650.300000011921
IpcveBma,3uy4pis8ruyxp7v852m6xfad2fzn1g,3xxu1swe8q8sljevrhi3mo3v04za0q,IpcveBma,2020-0188,2021-10-17,08:50:37,10:00:56,NA,incomplete,true,NA,true,0,2,NA,NA,NA,left,absent,NA,NA,n_s_113.jpg,orange,n_s_109.jpg,purple,between,NA,NaN,NA,left,2225.100000023842,1,2,3211.2000000178814
IpcveBma,3uy4pis8ruyxp7v852m6xfad2fzn1g,3xxu1swe8q8sljevrhi3mo3v04za0q,IpcveBma,2020-0188,2021-10-17,08:50:37,10:00:56,NA,incomplete,true,NA,true,0,3,NA,NA,NA,left,present,NA,NA,m_s_105.jpg,red,n_s_008.jpg,black,between,NA,NaN,NA,right,5017.300000011921,0,0,1402.699999988079
IpcveBma,3uy4pis8ruyxp7v852m6xfad2fzn1g,3xxu1swe8q8sljevrhi3mo3v04za0q,IpcveBma,2020-0188,2021-10-17,08:50:37,10:00:56,NA,incomplete,true,NA,true,0,4,NA,NA,NA,right,absent,NA,NA,n_l_062.jpg,brown,m_l_064.jpg,brown,within,NA,NaN,NA,right,3076.5999999940395,1,1,1798.699999988079
IpcveBma,3uy4pis8ruyxp7v852m6xfad2fzn1g,3xxu1swe8q8sljevrhi3mo3v04za0q,IpcveBma,2020-0188,2021-10-17,08:50:37,10:00:56,NA,incomplete,true,NA,true,0,5,NA,NA,NA,left,absent,NA,NA,n_s_040.jpg,black,n_l_042.jpg,black,within,NA,NaN,NA,right,3380.7000000178814,0,2,1154.300000011921
IpcveBma,3uy4pis8ruyxp7v852m6xfad2fzn1g,3xxu1swe8q8sljevrhi3mo3v04za0q,IpcveBma,2020-0188,2021-10-17,08:50:37,10:00:56,NA,incomplete,true,NA,true,0,6,NA,NA,NA,right,absent,NA,NA,n_s_019.jpg,red,m_s_061.jpg,red,within,NA,NaN,NA,right,2418.5,1,2,1621.2999999821186
IpcveBma,3uy4pis8ruyxp7v852m6xfad2fzn1g,3xxu1swe8q8sljevrhi3mo3v04za0q,IpcveBma,2020-0188,2021-10-17,08:50:37,10:00:56,NA,incomplete,true,NA,true,0,7,NA,NA,NA,right,absent,NA,NA,n_l_113.jpg,yellow,n_s_089.jpg,yellow,within,NA,NaN,NA,right,2768.7999999821186,1,1,1681.300000011921
IpcveBma,3uy4pis8ruyxp7v852m6xfad2fzn1g,3xxu1swe8q8sljevrhi3mo3v04za0q,IpcveBma,2020-0188,2021-10-17,08:50:37,10:00:56,NA,incomplete,true,NA,true,0,8,NA,NA,NA,right,present,NA,NA,m_l_107.jpg,orange,m_s_033.jpg,brown,between,NA,NaN,NA,left,5886.9000000059605,0,0,2480.699999988079
IpcveBma,3uy4pis8ruyxp7v852m6xfad2fzn1g,3xxu1swe8q8sljevrhi3mo3v04za0q,IpcveBma,2020-0188,2021-10-17,08:50:37,10:00:56,NA,incomplete,true,NA,true,0,9,NA,NA,NA,left,present,NA,NA,n_s_015.jpg,purple,n_s_064.jpg,purple,within,NA,NaN,NA,left,2178.9000000059605,1,2,4001
IpcveBma,3uy4pis8ruyxp7v852m6xfad2fzn1g,3xxu1swe8q8sljevrhi3mo3v04za0q,IpcveBma,2020-0188,2021-10-17,08:50:37,10:00:56,NA,incomplete,true,NA,true,0,10,NA,NA,NA,right,present,NA,NA,m_l_101.jpg,brown,m_l_069.jpg,black,between,NA,NaN,NA,right,2319.5,1,1,1672.9000000059605
IpcveBma,3uy4pis8ruyxp7v852m6xfad2fzn1g,3xxu1swe8q8sljevrhi3mo3v04za0q,IpcveBma,2020-0188,2021-10-17,08:50:37,10:00:56,NA,incomplete,false,true,NA,1,0,NA,orange,m_s_017.jpg,NA,NA,pleasant,unpleasant,NA,NA,NA,NA,NA,left,1825,true,NA,NA,NA,NA,NA
IpcveBma,3uy4pis8ruyxp7v852m6xfad2fzn1g,3xxu1swe8q8sljevrhi3mo3v04za0q,IpcveBma,2020-0188,2021-10-17,08:50:37,10:00:56,NA,incomplete,false,true,NA,1,1,NA,orange,n_s_054.jpg,NA,NA,pleasant,unpleasant,NA,NA,NA,NA,NA,right,1600.29999998212,true,NA,NA,NA,NA,NA
IpcveBma,3uy4pis8ruyxp7v852m6xfad2fzn1g,3xxu1swe8q8sljevrhi3mo3v04za0q,IpcveBma,2020-0188,2021-10-17,08:50:37,10:00:56,NA,incomplete,false,true,NA,1,2,NA,orange,n_l_117.jpg,NA,NA,unpleasant,pleasant,NA,NA,NA,NA,NA,right,1346.19999998808,true,NA,NA,NA,NA,NA
IpcveBma,3uy4pis8ruyxp7v852m6xfad2fzn1g,3xxu1swe8q8sljevrhi3mo3v04za0q,IpcveBma,2020-0188,2021-10-17,08:50:37,10:00:56,NA,incomplete,false,true,NA,1,3,NA,orange,m_l_034.jpg,NA,NA,unpleasant,pleasant,NA,NA,NA,NA,NA,right,1207,true,NA,NA,NA,NA,NA
IpcveBma,3uy4pis8ruyxp7v852m6xfad2fzn1g,3xxu1swe8q8sljevrhi3mo3v04za0q,IpcveBma,2020-0188,2021-10-17,08:50:37,10:00:56,NA,incomplete,false,true,NA,1,4,NA,orange,n_s_065.jpg,NA,NA,pleasant,unpleasant,NA,NA,NA,NA,NA,right,1831.5,true,NA,NA,NA,NA,NA
IpcveBma,3uy4pis8ruyxp7v852m6xfad2fzn1g,3xxu1swe8q8sljevrhi3mo3v04za0q,IpcveBma,2020-0188,2021-10-17,08:50:37,10:00:56,NA,incomplete,false,true,NA,1,5,NA,orange,m_s_071.jpg,NA,NA,pleasant,unpleasant,NA,NA,NA,NA,NA,left,1477.19999998808,true,NA,NA,NA,NA,NA
IpcveBma,3uy4pis8ruyxp7v852m6xfad2fzn1g,3xxu1swe8q8sljevrhi3mo3v04za0q,IpcveBma,2020-0188,2021-10-17,08:50:37,10:00:56,NA,incomplete,false,true,NA,1,6,NA,white,m_l_093.jpg,NA,NA,pleasant,unpleasant,NA,NA,NA,NA,NA,left,1634.90000000596,true,NA,NA,NA,NA,NA
IpcveBma,3uy4pis8ruyxp7v852m6xfad2fzn1g,3xxu1swe8q8sljevrhi3mo3v04za0q,IpcveBma,2020-0188,2021-10-17,08:50:37,10:00:56,NA,incomplete,false,true,NA,1,7,NA,white,m_s_088.jpg,NA,NA,unpleasant,pleasant,NA,NA,NA,NA,NA,right,1513.40000000596,true,NA,NA,NA,NA,NA
IpcveBma,3uy4pis8ruyxp7v852m6xfad2fzn1g,3xxu1swe8q8sljevrhi3mo3v04za0q,IpcveBma,2020-0188,2021-10-17,08:50:37,10:00:56,NA,incomplete,false,true,NA,1,8,NA,white,m_s_055.jpg,NA,NA,unpleasant,pleasant,NA,NA,NA,NA,NA,right,2694.89999997616,true,NA,NA,NA,NA,NA
IpcveBma,3uy4pis8ruyxp7v852m6xfad2fzn1g,3xxu1swe8q8sljevrhi3mo3v04za0q,IpcveBma,2020-0188,2021-10-17,08:50:37,10:00:56,NA,incomplete,false,true,NA,1,9,NA,white,n_l_106.jpg,NA,NA,pleasant,unpleasant,NA,NA,NA,NA,NA,left,1989.30000001192,true,NA,NA,NA,NA,NA
IpcveBma,3uy4pis8ruyxp7v852m6xfad2fzn1g,3xxu1swe8q8sljevrhi3mo3v04za0q,IpcveBma,2020-0188,2021-10-17,08:50:37,10:00:56,NA,incomplete,false,true,NA,1,10,NA,white,n_l_091.jpg,NA,NA,pleasant,unpleasant,NA,NA,NA,NA,NA,left,1808.29999998212,true,NA,NA,NA,NA,NA
IpcveBma,3uy4pis8ruyxp7v852m6xfad2fzn1g,3xxu1swe8q8sljevrhi3mo3v04za0q,IpcveBma,2020-0188,2021-10-17,08:50:37,10:00:56,NA,incomplete,false,true,NA,1,11,NA,white,n_l_089.jpg,NA,NA,pleasant,unpleasant,NA,NA,NA,NA,NA,left,1711.5,true,NA,NA,NA,NA,NA
IpcveBma,3uy4pis8ruyxp7v852m6xfad2fzn1g,3xxu1swe8q8sljevrhi3mo3v04za0q,IpcveBma,2020-0188,2021-10-17,08:50:37,10:00:56,NA,incomplete,false,true,NA,1,12,NA,green,m_l_074.jpg,NA,NA,pleasant,unpleasant,NA,NA,NA,NA,NA,left,2181.59999999404,true,NA,NA,NA,NA,NA
IpcveBma,3uy4pis8ruyxp7v852m6xfad2fzn1g,3xxu1swe8q8sljevrhi3mo3v04za0q,IpcveBma,2020-0188,2021-10-17,08:50:37,10:00:56,NA,incomplete,false,true,NA,1,13,NA,green,n_s_051.jpg,NA,NA,pleasant,unpleasant,NA,NA,NA,NA,NA,left,2571.90000000596,true,NA,NA,NA,NA,NA
IpcveBma,3uy4pis8ruyxp7v852m6xfad2fzn1g,3xxu1swe8q8sljevrhi3mo3v04za0q,IpcveBma,2020-0188,2021-10-17,08:50:37,10:00:56,NA,incomplete,false,true,NA,1,14,NA,green,n_s_079.jpg,NA,NA,unpleasant,pleasant,NA,NA,NA,NA,NA,right,2979,true,NA,NA,NA,NA,NA
IpcveBma,3uy4pis8ruyxp7v852m6xfad2fzn1g,3xxu1swe8q8sljevrhi3mo3v04za0q,IpcveBma,2020-0188,2021-10-17,08:50:37,10:00:56,NA,incomplete,false,true,NA,1,15,NA,green,m_s_012.jpg,NA,NA,unpleasant,pleasant,NA,NA,NA,NA,NA,right,2575,true,NA,NA,NA,NA,NA
IpcveBma,3uy4pis8ruyxp7v852m6xfad2fzn1g,3xxu1swe8q8sljevrhi3mo3v04za0q,IpcveBma,2020-0188,2021-10-17,08:50:37,10:00:56,NA,incomplete,false,true,NA,1,16,NA,green,n_l_107.jpg,NA,NA,pleasant,unpleasant,NA,NA,NA,NA,NA,right,2417,true,NA,NA,NA,NA,NA
IpcveBma,3uy4pis8ruyxp7v852m6xfad2fzn1g,3xxu1swe8q8sljevrhi3mo3v04za0q,IpcveBma,2020-0188,2021-10-17,08:50:37,10:00:56,NA,incomplete,false,true,NA,1,17,NA,green,n_s_094.jpg,NA,NA,unpleasant,pleasant,NA,NA,NA,NA,NA,right,1785.09999999404,true,NA,NA,NA,NA,NA
IpcveBma,3uy4pis8ruyxp7v852m6xfad2fzn1g,3xxu1swe8q8sljevrhi3mo3v04za0q,IpcveBma,2020-0188,2021-10-17,08:50:37,10:00:56,NA,incomplete,false,true,NA,1,18,NA,brown,m_l_103.jpg,NA,NA,unpleasant,pleasant,NA,NA,NA,NA,NA,right,1899.90000000596,true,NA,NA,NA,NA,NA
IpcveBma,3uy4pis8ruyxp7v852m6xfad2fzn1g,3xxu1swe8q8sljevrhi3mo3v04za0q,IpcveBma,2020-0188,2021-10-17,08:50:37,10:00:56,NA,incomplete,false,true,NA,1,19,NA,brown,m_l_108.jpg,NA,NA,pleasant,unpleasant,NA,NA,NA,NA,NA,left,1201.90000000596,true,NA,NA,NA,NA,NA
IpcveBma,3uy4pis8ruyxp7v852m6xfad2fzn1g,3xxu1swe8q8sljevrhi3mo3v04za0q,IpcveBma,2020-0188,2021-10-17,08:50:37,10:00:56,NA,incomplete,false,true,NA,1,20,NA,brown,m_s_032.jpg,NA,NA,unpleasant,pleasant,NA,NA,NA,NA,NA,right,1747.59999999404,true,NA,NA,NA,NA,NA
IpcveBma,3uy4pis8ruyxp7v852m6xfad2fzn1g,3xxu1swe8q8sljevrhi3mo3v04za0q,IpcveBma,2020-0188,2021-10-17,08:50:37,10:00:56,NA,incomplete,false,true,NA,1,21,NA,brown,n_s_024.jpg,NA,NA,unpleasant,pleasant,NA,NA,NA,NA,NA,left,1701.29999998212,true,NA,NA,NA,NA,NA
IpcveBma,3uy4pis8ruyxp7v852m6xfad2fzn1g,3xxu1swe8q8sljevrhi3mo3v04za0q,IpcveBma,2020-0188,2021-10-17,08:50:37,10:00:56,NA,incomplete,false,true,NA,1,22,NA,brown,m_l_022.jpg,NA,NA,unpleasant,pleasant,NA,NA,NA,NA,NA,right,1701,true,NA,NA,NA,NA,NA
IpcveBma,3uy4pis8ruyxp7v852m6xfad2fzn1g,3xxu1swe8q8sljevrhi3mo3v04za0q,IpcveBma,2020-0188,2021-10-17,08:50:37,10:00:56,NA,incomplete,false,true,NA,1,23,NA,brown,m_l_116.jpg,NA,NA,unpleasant,pleasant,NA,NA,NA,NA,NA,right,1623.39999997616,true,NA,NA,NA,NA,NA
IpcveBma,3uy4pis8ruyxp7v852m6xfad2fzn1g,3xxu1swe8q8sljevrhi3mo3v04za0q,IpcveBma,2020-0188,2021-10-17,08:50:37,10:00:56,NA,incomplete,false,true,NA,1,24,NA,black,n_s_071.jpg,NA,NA,unpleasant,pleasant,NA,NA,NA,NA,NA,right,1701.80000001192,true,NA,NA,NA,NA,NA
IpcveBma,3uy4pis8ruyxp7v852m6xfad2fzn1g,3xxu1swe8q8sljevrhi3mo3v04za0q,IpcveBma,2020-0188,2021-10-17,08:50:37,10:00:56,NA,incomplete,false,true,NA,1,25,NA,black,m_l_111.jpg,NA,NA,unpleasant,pleasant,NA,NA,NA,NA,NA,right,1817.5,true,NA,NA,NA,NA,NA
IpcveBma,3uy4pis8ruyxp7v852m6xfad2fzn1g,3xxu1swe8q8sljevrhi3mo3v04za0q,IpcveBma,2020-0188,2021-10-17,08:50:37,10:00:56,NA,incomplete,false,true,NA,1,26,NA,black,n_s_098.jpg,NA,NA,unpleasant,pleasant,NA,NA,NA,NA,NA,left,2055.90000000596,true,NA,NA,NA,NA,NA
IpcveBma,3uy4pis8ruyxp7v852m6xfad2fzn1g,3xxu1swe8q8sljevrhi3mo3v04za0q,IpcveBma,2020-0188,2021-10-17,08:50:37,10:00:56,NA,incomplete,false,true,NA,1,27,NA,black,m_l_099.jpg,NA,NA,pleasant,unpleasant,NA,NA,NA,NA,NA,left,1366.09999999404,true,NA,NA,NA,NA,NA
IpcveBma,3uy4pis8ruyxp7v852m6xfad2fzn1g,3xxu1swe8q8sljevrhi3mo3v04za0q,IpcveBma,2020-0188,2021-10-17,08:50:37,10:00:56,NA,incomplete,false,true,NA,1,28,NA,black,n_l_003.jpg,NA,NA,pleasant,unpleasant,NA,NA,NA,NA,NA,left,1591,true,NA,NA,NA,NA,NA
IpcveBma,3uy4pis8ruyxp7v852m6xfad2fzn1g,3xxu1swe8q8sljevrhi3mo3v04za0q,IpcveBma,2020-0188,2021-10-17,08:50:37,10:00:56,NA,incomplete,false,true,NA,1,29,NA,black,n_s_097.jpg,NA,NA,unpleasant,pleasant,NA,NA,NA,NA,NA,right,1484.30000001192,true,NA,NA,NA,NA,NA
IpcveBma,3uy4pis8ruyxp7v852m6xfad2fzn1g,3xxu1swe8q8sljevrhi3mo3v04za0q,IpcveBma,2020-0188,2021-10-17,08:50:37,10:00:56,NA,incomplete,false,true,NA,1,30,NA,purple,n_s_093.jpg,NA,NA,unpleasant,pleasant,NA,NA,NA,NA,NA,left,1106.5,true,NA,NA,NA,NA,NA
IpcveBma,3uy4pis8ruyxp7v852m6xfad2fzn1g,3xxu1swe8q8sljevrhi3mo3v04za0q,IpcveBma,2020-0188,2021-10-17,08:50:37,10:00:56,NA,incomplete,false,true,NA,1,31,NA,purple,n_l_099.jpg,NA,NA,unpleasant,pleasant,NA,NA,NA,NA,NA,left,2241.19999998808,true,NA,NA,NA,NA,NA
IpcveBma,3uy4pis8ruyxp7v852m6xfad2fzn1g,3xxu1swe8q8sljevrhi3mo3v04za0q,IpcveBma,2020-0188,2021-10-17,08:50:37,10:00:56,NA,incomplete,false,true,NA,1,32,NA,purple,m_s_091.jpg,NA,NA,pleasant,unpleasant,NA,NA,NA,NA,NA,left,1298,true,NA,NA,NA,NA,NA
IpcveBma,3uy4pis8ruyxp7v852m6xfad2fzn1g,3xxu1swe8q8sljevrhi3mo3v04za0q,IpcveBma,2020-0188,2021-10-17,08:50:37,10:00:56,NA,incomplete,false,true,NA,1,33,NA,purple,m_s_082.jpg,NA,NA,pleasant,unpleasant,NA,NA,NA,NA,NA,left,2081.19999998808,true,NA,NA,NA,NA,NA
IpcveBma,3uy4pis8ruyxp7v852m6xfad2fzn1g,3xxu1swe8q8sljevrhi3mo3v04za0q,IpcveBma,2020-0188,2021-10-17,08:50:37,10:00:56,NA,incomplete,false,true,NA,1,34,NA,purple,m_l_075.jpg,NA,NA,pleasant,unpleasant,NA,NA,NA,NA,NA,left,1634.59999999404,true,NA,NA,NA,NA,NA
IpcveBma,3uy4pis8ruyxp7v852m6xfad2fzn1g,3xxu1swe8q8sljevrhi3mo3v04za0q,IpcveBma,2020-0188,2021-10-17,08:50:37,10:00:56,NA,incomplete,false,true,NA,1,35,NA,purple,n_s_030.jpg,NA,NA,pleasant,unpleasant,NA,NA,NA,NA,NA,left,1209.70000001788,true,NA,NA,NA,NA,NA
IpcveBma,3uy4pis8ruyxp7v852m6xfad2fzn1g,3xxu1swe8q8sljevrhi3mo3v04za0q,IpcveBma,2020-0188,2021-10-17,08:50:37,10:00:56,NA,incomplete,false,NA,true,1,0,NA,NA,NA,right,present,NA,NA,m_s_071.jpg,orange,n_s_054.jpg,orange,within,NA,NaN,NA,right,5902,1,0,2147.5
IpcveBma,3uy4pis8ruyxp7v852m6xfad2fzn1g,3xxu1swe8q8sljevrhi3mo3v04za0q,IpcveBma,2020-0188,2021-10-17,08:50:37,10:00:56,NA,incomplete,false,NA,true,1,1,NA,NA,NA,left,present,NA,NA,n_l_107.jpg,green,m_s_032.jpg,brown,between,NA,NaN,NA,right,6676.5999999940395,0,2,2302.5999999940395
IpcveBma,3uy4pis8ruyxp7v852m6xfad2fzn1g,3xxu1swe8q8sljevrhi3mo3v04za0q,IpcveBma,2020-0188,2021-10-17,08:50:37,10:00:56,NA,incomplete,false,NA,true,1,2,NA,NA,NA,right,present,NA,NA,n_s_030.jpg,purple,n_l_099.jpg,purple,within,NA,NaN,NA,right,2055.699999988079,1,0,1309.800000011921
IpcveBma,3uy4pis8ruyxp7v852m6xfad2fzn1g,3xxu1swe8q8sljevrhi3mo3v04za0q,IpcveBma,2020-0188,2021-10-17,08:50:37,10:00:56,NA,incomplete,false,NA,true,1,3,NA,NA,NA,right,present,NA,NA,m_l_116.jpg,brown,m_l_108.jpg,brown,within,NA,NaN,NA,right,3939.5999999940395,1,1,1502.800000011921
IpcveBma,3uy4pis8ruyxp7v852m6xfad2fzn1g,3xxu1swe8q8sljevrhi3mo3v04za0q,IpcveBma,2020-0188,2021-10-17,08:50:37,10:00:56,NA,incomplete,false,NA,true,1,4,NA,NA,NA,left,present,NA,NA,m_l_111.jpg,black,n_s_097.jpg,black,within,NA,NaN,NA,left,3814.5999999940395,1,1,3163.2000000178814
IpcveBma,3uy4pis8ruyxp7v852m6xfad2fzn1g,3xxu1swe8q8sljevrhi3mo3v04za0q,IpcveBma,2020-0188,2021-10-17,08:50:37,10:00:56,NA,incomplete,false,NA,true,1,5,NA,NA,NA,right,present,NA,NA,n_s_098.jpg,black,m_l_022.jpg,brown,between,NA,NaN,NA,right,5436.9000000059605,1,2,1877.800000011921
IpcveBma,3uy4pis8ruyxp7v852m6xfad2fzn1g,3xxu1swe8q8sljevrhi3mo3v04za0q,IpcveBma,2020-0188,2021-10-17,08:50:37,10:00:56,NA,incomplete,false,NA,true,1,6,NA,NA,NA,left,present,NA,NA,n_l_003.jpg,black,m_s_091.jpg,purple,between,NA,NaN,NA,left,2938.800000011921,1,2,1240.2000000178814
IpcveBma,3uy4pis8ruyxp7v852m6xfad2fzn1g,3xxu1swe8q8sljevrhi3mo3v04za0q,IpcveBma,2020-0188,2021-10-17,08:50:37,10:00:56,NA,incomplete,false,NA,true,1,7,NA,NA,NA,left,present,NA,NA,n_l_091.jpg,white,n_s_079.jpg,green,between,NA,NaN,NA,right,2449,0,2,1154.7999999821186
IpcveBma,3uy4pis8ruyxp7v852m6xfad2fzn1g,3xxu1swe8q8sljevrhi3mo3v04za0q,IpcveBma,2020-0188,2021-10-17,08:50:37,10:00:56,NA,incomplete,false,NA,true,1,8,NA,NA,NA,right,present,NA,NA,n_l_089.jpg,white,m_s_088.jpg,white,within,NA,NaN,NA,left,4466.699999988079,0,0,1737
IpcveBma,3uy4pis8ruyxp7v852m6xfad2fzn1g,3xxu1swe8q8sljevrhi3mo3v04za0q,IpcveBma,2020-0188,2021-10-17,08:50:37,10:00:56,NA,incomplete,false,NA,true,1,9,NA,NA,NA,right,present,NA,NA,n_s_094.jpg,green,n_s_051.jpg,green,within,NA,NaN,NA,right,2736.7000000178814,1,1,1791.4000000059605
IpcveBma,3uy4pis8ruyxp7v852m6xfad2fzn1g,3xxu1swe8q8sljevrhi3mo3v04za0q,IpcveBma,2020-0188,2021-10-17,08:50:37,10:00:56,NA,incomplete,false,NA,true,1,10,NA,NA,NA,left,present,NA,NA,n_s_065.jpg,orange,m_s_055.jpg,white,between,NA,NaN,NA,left,3520.699999988079,1,2,1068.5999999940395
IpcveBma,3uy4pis8ruyxp7v852m6xfad2fzn1g,3xxu1swe8q8sljevrhi3mo3v04za0q,IpcveBma,2020-0188,2021-10-17,08:50:37,10:00:56,NA,incomplete,false,true,NA,2,0,NA,black,n_s_057.jpg,NA,NA,pleasant,unpleasant,NA,NA,NA,NA,NA,right,2055.30000001192,true,NA,NA,NA,NA,NA
IpcveBma,3uy4pis8ruyxp7v852m6xfad2fzn1g,3xxu1swe8q8sljevrhi3mo3v04za0q,IpcveBma,2020-0188,2021-10-17,08:50:37,10:00:56,NA,incomplete,false,true,NA,2,1,NA,black,m_l_080.jpg,NA,NA,unpleasant,pleasant,NA,NA,NA,NA,NA,right,1343,true,NA,NA,NA,NA,NA
IpcveBma,3uy4pis8ruyxp7v852m6xfad2fzn1g,3xxu1swe8q8sljevrhi3mo3v04za0q,IpcveBma,2020-0188,2021-10-17,08:50:37,10:00:56,NA,incomplete,false,true,NA,2,2,NA,black,m_s_107.jpg,NA,NA,pleasant,unpleasant,NA,NA,NA,NA,NA,left,1553.5,true,NA,NA,NA,NA,NA
IpcveBma,3uy4pis8ruyxp7v852m6xfad2fzn1g,3xxu1swe8q8sljevrhi3mo3v04za0q,IpcveBma,2020-0188,2021-10-17,08:50:37,10:00:56,NA,incomplete,false,true,NA,2,3,NA,black,n_l_097.jpg,NA,NA,pleasant,unpleasant,NA,NA,NA,NA,NA,left,965.300000011921,true,NA,NA,NA,NA,NA
IpcveBma,3uy4pis8ruyxp7v852m6xfad2fzn1g,3xxu1swe8q8sljevrhi3mo3v04za0q,IpcveBma,2020-0188,2021-10-17,08:50:37,10:00:56,NA,incomplete,false,true,NA,2,4,NA,black,n_s_042.jpg,NA,NA,unpleasant,pleasant,NA,NA,NA,NA,NA,right,1238.40000000596,true,NA,NA,NA,NA,NA
IpcveBma,3uy4pis8ruyxp7v852m6xfad2fzn1g,3xxu1swe8q8sljevrhi3mo3v04za0q,IpcveBma,2020-0188,2021-10-17,08:50:37,10:00:56,NA,incomplete,false,true,NA,2,5,NA,black,m_l_020.jpg,NA,NA,unpleasant,pleasant,NA,NA,NA,NA,NA,right,1680.80000001192,true,NA,NA,NA,NA,NA
IpcveBma,3uy4pis8ruyxp7v852m6xfad2fzn1g,3xxu1swe8q8sljevrhi3mo3v04za0q,IpcveBma,2020-0188,2021-10-17,08:50:37,10:00:56,NA,incomplete,false,true,NA,2,6,NA,gray,n_l_015.jpg,NA,NA,unpleasant,pleasant,NA,NA,NA,NA,NA,right,1309.30000001192,true,NA,NA,NA,NA,NA
IpcveBma,3uy4pis8ruyxp7v852m6xfad2fzn1g,3xxu1swe8q8sljevrhi3mo3v04za0q,IpcveBma,2020-0188,2021-10-17,08:50:37,10:00:56,NA,incomplete,false,true,NA,2,7,NA,gray,m_l_061.jpg,NA,NA,unpleasant,pleasant,NA,NA,NA,NA,NA,right,1137.80000001192,true,NA,NA,NA,NA,NA
IpcveBma,3uy4pis8ruyxp7v852m6xfad2fzn1g,3xxu1swe8q8sljevrhi3mo3v04za0q,IpcveBma,2020-0188,2021-10-17,08:50:37,10:00:56,NA,incomplete,false,true,NA,2,8,NA,gray,n_l_020.jpg,NA,NA,pleasant,unpleasant,NA,NA,NA,NA,NA,left,1059.30000001192,true,NA,NA,NA,NA,NA
IpcveBma,3uy4pis8ruyxp7v852m6xfad2fzn1g,3xxu1swe8q8sljevrhi3mo3v04za0q,IpcveBma,2020-0188,2021-10-17,08:50:37,10:00:56,NA,incomplete,false,true,NA,2,9,NA,gray,m_s_108.jpg,NA,NA,unpleasant,pleasant,NA,NA,NA,NA,NA,right,2144.59999999404,true,NA,NA,NA,NA,NA
IpcveBma,3uy4pis8ruyxp7v852m6xfad2fzn1g,3xxu1swe8q8sljevrhi3mo3v04za0q,IpcveBma,2020-0188,2021-10-17,08:50:37,10:00:56,NA,incomplete,false,true,NA,2,10,NA,gray,n_l_039.jpg,NA,NA,unpleasant,pleasant,NA,NA,NA,NA,NA,right,990.5,true,NA,NA,NA,NA,NA
IpcveBma,3uy4pis8ruyxp7v852m6xfad2fzn1g,3xxu1swe8q8sljevrhi3mo3v04za0q,IpcveBma,2020-0188,2021-10-17,08:50:37,10:00:56,NA,incomplete,false,true,NA,2,11,NA,gray,n_s_037.jpg,NA,NA,pleasant,unpleasant,NA,NA,NA,NA,NA,right,975.699999988079,true,NA,NA,NA,NA,NA
IpcveBma,3uy4pis8ruyxp7v852m6xfad2fzn1g,3xxu1swe8q8sljevrhi3mo3v04za0q,IpcveBma,2020-0188,2021-10-17,08:50:37,10:00:56,NA,incomplete,false,true,NA,2,12,NA,white,n_l_116.jpg,NA,NA,pleasant,unpleasant,NA,NA,NA,NA,NA,right,1704,true,NA,NA,NA,NA,NA
IpcveBma,3uy4pis8ruyxp7v852m6xfad2fzn1g,3xxu1swe8q8sljevrhi3mo3v04za0q,IpcveBma,2020-0188,2021-10-17,08:50:37,10:00:56,NA,incomplete,false,true,NA,2,13,NA,white,m_l_036.jpg,NA,NA,pleasant,unpleasant,NA,NA,NA,NA,NA,left,1260.79999998212,true,NA,NA,NA,NA,NA
IpcveBma,3uy4pis8ruyxp7v852m6xfad2fzn1g,3xxu1swe8q8sljevrhi3mo3v04za0q,IpcveBma,2020-0188,2021-10-17,08:50:37,10:00:56,NA,incomplete,false,true,NA,2,14,NA,white,n_l_082.jpg,NA,NA,unpleasant,pleasant,NA,NA,NA,NA,NA,right,979.699999988079,true,NA,NA,NA,NA,NA
IpcveBma,3uy4pis8ruyxp7v852m6xfad2fzn1g,3xxu1swe8q8sljevrhi3mo3v04za0q,IpcveBma,2020-0188,2021-10-17,08:50:37,10:00:56,NA,incomplete,false,true,NA,2,15,NA,white,n_l_027.jpg,NA,NA,pleasant,unpleasant,NA,NA,NA,NA,NA,left,1034.80000001192,true,NA,NA,NA,NA,NA
IpcveBma,3uy4pis8ruyxp7v852m6xfad2fzn1g,3xxu1swe8q8sljevrhi3mo3v04za0q,IpcveBma,2020-0188,2021-10-17,08:50:37,10:00:56,NA,incomplete,false,true,NA,2,16,NA,white,m_l_040.jpg,NA,NA,unpleasant,pleasant,NA,NA,NA,NA,NA,right,1208.40000000596,true,NA,NA,NA,NA,NA
IpcveBma,3uy4pis8ruyxp7v852m6xfad2fzn1g,3xxu1swe8q8sljevrhi3mo3v04za0q,IpcveBma,2020-0188,2021-10-17,08:50:37,10:00:56,NA,incomplete,false,true,NA,2,17,NA,white,m_l_007.jpg,NA,NA,pleasant,unpleasant,NA,NA,NA,NA,NA,left,1745.90000000596,true,NA,NA,NA,NA,NA
IpcveBma,3uy4pis8ruyxp7v852m6xfad2fzn1g,3xxu1swe8q8sljevrhi3mo3v04za0q,IpcveBma,2020-0188,2021-10-17,08:50:37,10:00:56,NA,incomplete,false,true,NA,2,18,NA,orange,n_l_095.jpg,NA,NA,pleasant,unpleasant,NA,NA,NA,NA,NA,left,1288,true,NA,NA,NA,NA,NA
IpcveBma,3uy4pis8ruyxp7v852m6xfad2fzn1g,3xxu1swe8q8sljevrhi3mo3v04za0q,IpcveBma,2020-0188,2021-10-17,08:50:37,10:00:56,NA,incomplete,false,true,NA,2,19,NA,orange,m_s_077.jpg,NA,NA,pleasant,unpleasant,NA,NA,NA,NA,NA,left,1043.30000001192,true,NA,NA,NA,NA,NA
IpcveBma,3uy4pis8ruyxp7v852m6xfad2fzn1g,3xxu1swe8q8sljevrhi3mo3v04za0q,IpcveBma,2020-0188,2021-10-17,08:50:37,10:00:56,NA,incomplete,false,true,NA,2,20,NA,orange,n_s_074.jpg,NA,NA,unpleasant,pleasant,NA,NA,NA,NA,NA,right,1568.59999999404,true,NA,NA,NA,NA,NA
IpcveBma,3uy4pis8ruyxp7v852m6xfad2fzn1g,3xxu1swe8q8sljevrhi3mo3v04za0q,IpcveBma,2020-0188,2021-10-17,08:50:37,10:00:56,NA,incomplete,false,true,NA,2,21,NA,orange,n_l_035.jpg,NA,NA,unpleasant,pleasant,NA,NA,NA,NA,NA,right,1082,true,NA,NA,NA,NA,NA
IpcveBma,3uy4pis8ruyxp7v852m6xfad2fzn1g,3xxu1swe8q8sljevrhi3mo3v04za0q,IpcveBma,2020-0188,2021-10-17,08:50:37,10:00:56,NA,incomplete,false,true,NA,2,22,NA,orange,n_l_064.jpg,NA,NA,unpleasant,pleasant,NA,NA,NA,NA,NA,right,1217.59999999404,true,NA,NA,NA,NA,NA
IpcveBma,3uy4pis8ruyxp7v852m6xfad2fzn1g,3xxu1swe8q8sljevrhi3mo3v04za0q,IpcveBma,2020-0188,2021-10-17,08:50:37,10:00:56,NA,incomplete,false,true,NA,2,23,NA,orange,n_l_022.jpg,NA,NA,unpleasant,pleasant,NA,NA,NA,NA,NA,right,957.299999982119,true,NA,NA,NA,NA,NA
IpcveBma,3uy4pis8ruyxp7v852m6xfad2fzn1g,3xxu1swe8q8sljevrhi3mo3v04za0q,IpcveBma,2020-0188,2021-10-17,08:50:37,10:00:56,NA,incomplete,false,true,NA,2,24,NA,red,n_l_050.jpg,NA,NA,pleasant,unpleasant,NA,NA,NA,NA,NA,left,1432.30000001192,true,NA,NA,NA,NA,NA
IpcveBma,3uy4pis8ruyxp7v852m6xfad2fzn1g,3xxu1swe8q8sljevrhi3mo3v04za0q,IpcveBma,2020-0188,2021-10-17,08:50:37,10:00:56,NA,incomplete,false,true,NA,2,25,NA,red,m_s_068.jpg,NA,NA,pleasant,unpleasant,NA,NA,NA,NA,NA,left,1218.10000002384,true,NA,NA,NA,NA,NA
IpcveBma,3uy4pis8ruyxp7v852m6xfad2fzn1g,3xxu1swe8q8sljevrhi3mo3v04za0q,IpcveBma,2020-0188,2021-10-17,08:50:37,10:00:56,NA,incomplete,false,true,NA,2,26,NA,red,m_s_045.jpg,NA,NA,pleasant,unpleasant,NA,NA,NA,NA,NA,left,1243.90000000596,true,NA,NA,NA,NA,NA
IpcveBma,3uy4pis8ruyxp7v852m6xfad2fzn1g,3xxu1swe8q8sljevrhi3mo3v04za0q,IpcveBma,2020-0188,2021-10-17,08:50:37,10:00:56,NA,incomplete,false,true,NA,2,27,NA,red,m_s_025.jpg,NA,NA,pleasant,unpleasant,NA,NA,NA,NA,NA,left,1576.90000000596,true,NA,NA,NA,NA,NA
IpcveBma,3uy4pis8ruyxp7v852m6xfad2fzn1g,3xxu1swe8q8sljevrhi3mo3v04za0q,IpcveBma,2020-0188,2021-10-17,08:50:37,10:00:56,NA,incomplete,false,true,NA,2,28,NA,red,m_l_031.jpg,NA,NA,pleasant,unpleasant,NA,NA,NA,NA,NA,right,1635,true,NA,NA,NA,NA,NA
IpcveBma,3uy4pis8ruyxp7v852m6xfad2fzn1g,3xxu1swe8q8sljevrhi3mo3v04za0q,IpcveBma,2020-0188,2021-10-17,08:50:37,10:00:56,NA,incomplete,false,true,NA,2,29,NA,red,m_s_056.jpg,NA,NA,unpleasant,pleasant,NA,NA,NA,NA,NA,right,1248.29999998212,true,NA,NA,NA,NA,NA
IpcveBma,3uy4pis8ruyxp7v852m6xfad2fzn1g,3xxu1swe8q8sljevrhi3mo3v04za0q,IpcveBma,2020-0188,2021-10-17,08:50:37,10:00:56,NA,incomplete,false,true,NA,2,30,NA,brown,m_s_050.jpg,NA,NA,unpleasant,pleasant,NA,NA,NA,NA,NA,right,1438,true,NA,NA,NA,NA,NA
IpcveBma,3uy4pis8ruyxp7v852m6xfad2fzn1g,3xxu1swe8q8sljevrhi3mo3v04za0q,IpcveBma,2020-0188,2021-10-17,08:50:37,10:00:56,NA,incomplete,false,true,NA,2,31,NA,brown,n_l_066.jpg,NA,NA,unpleasant,pleasant,NA,NA,NA,NA,NA,right,1466.5,true,NA,NA,NA,NA,NA
IpcveBma,3uy4pis8ruyxp7v852m6xfad2fzn1g,3xxu1swe8q8sljevrhi3mo3v04za0q,IpcveBma,2020-0188,2021-10-17,08:50:37,10:00:56,NA,incomplete,false,true,NA,2,32,NA,brown,n_l_034.jpg,NA,NA,pleasant,unpleasant,NA,NA,NA,NA,NA,left,1392.10000002384,true,NA,NA,NA,NA,NA
IpcveBma,3uy4pis8ruyxp7v852m6xfad2fzn1g,3xxu1swe8q8sljevrhi3mo3v04za0q,IpcveBma,2020-0188,2021-10-17,08:50:37,10:00:56,NA,incomplete,false,true,NA,2,33,NA,brown,n_l_077.jpg,NA,NA,pleasant,unpleasant,NA,NA,NA,NA,NA,right,1569.60000002384,true,NA,NA,NA,NA,NA
IpcveBma,3uy4pis8ruyxp7v852m6xfad2fzn1g,3xxu1swe8q8sljevrhi3mo3v04za0q,IpcveBma,2020-0188,2021-10-17,08:50:37,10:00:56,NA,incomplete,false,true,NA,2,34,NA,brown,n_s_004.jpg,NA,NA,unpleasant,pleasant,NA,NA,NA,NA,NA,left,1863.80000001192,true,NA,NA,NA,NA,NA
IpcveBma,3uy4pis8ruyxp7v852m6xfad2fzn1g,3xxu1swe8q8sljevrhi3mo3v04za0q,IpcveBma,2020-0188,2021-10-17,08:50:37,10:00:56,NA,incomplete,false,true,NA,2,35,NA,brown,n_s_049.jpg,NA,NA,pleasant,unpleasant,NA,NA,NA,NA,NA,right,1428.69999998808,true,NA,NA,NA,NA,NA
IpcveBma,3uy4pis8ruyxp7v852m6xfad2fzn1g,3xxu1swe8q8sljevrhi3mo3v04za0q,IpcveBma,2020-0188,2021-10-17,08:50:37,10:00:56,NA,incomplete,false,NA,true,2,0,NA,NA,NA,left,absent,NA,NA,m_s_068.jpg,red,m_s_056.jpg,red,within,NA,NaN,NA,left,5852.5999999940395,1,1,6957.5999999940395
IpcveBma,3uy4pis8ruyxp7v852m6xfad2fzn1g,3xxu1swe8q8sljevrhi3mo3v04za0q,IpcveBma,2020-0188,2021-10-17,08:50:37,10:00:56,NA,incomplete,false,NA,true,2,1,NA,NA,NA,left,absent,NA,NA,m_l_036.jpg,white,m_l_007.jpg,white,within,NA,NaN,NA,left,4009.199999988079,1,2,1317.0999999940395
IpcveBma,3uy4pis8ruyxp7v852m6xfad2fzn1g,3xxu1swe8q8sljevrhi3mo3v04za0q,IpcveBma,2020-0188,2021-10-17,08:50:37,10:00:56,NA,incomplete,false,NA,true,2,2,NA,NA,NA,left,absent,NA,NA,n_s_042.jpg,black,n_l_020.jpg,gray,between,NA,NaN,NA,right,2038.4000000059605,0,1,4357.199999988079
IpcveBma,3uy4pis8ruyxp7v852m6xfad2fzn1g,3xxu1swe8q8sljevrhi3mo3v04za0q,IpcveBma,2020-0188,2021-10-17,08:50:37,10:00:56,NA,incomplete,false,NA,true,2,3,NA,NA,NA,right,absent,NA,NA,n_l_022.jpg,orange,m_s_077.jpg,orange,within,NA,NaN,NA,right,1853.0999999940395,1,2,1185.5
IpcveBma,3uy4pis8ruyxp7v852m6xfad2fzn1g,3xxu1swe8q8sljevrhi3mo3v04za0q,IpcveBma,2020-0188,2021-10-17,08:50:37,10:00:56,NA,incomplete,false,NA,true,2,4,NA,NA,NA,left,absent,NA,NA,n_l_064.jpg,orange,m_s_045.jpg,red,between,NA,NaN,NA,left,2580.800000011921,1,2,2270.9000000059605
IpcveBma,3uy4pis8ruyxp7v852m6xfad2fzn1g,3xxu1swe8q8sljevrhi3mo3v04za0q,IpcveBma,2020-0188,2021-10-17,08:50:37,10:00:56,NA,incomplete,false,NA,true,2,5,NA,NA,NA,left,absent,NA,NA,m_l_061.jpg,gray,n_s_037.jpg,gray,within,NA,NaN,NA,left,5056.0999999940395,1,1,1365.199999988079
IpcveBma,3uy4pis8ruyxp7v852m6xfad2fzn1g,3xxu1swe8q8sljevrhi3mo3v04za0q,IpcveBma,2020-0188,2021-10-17,08:50:37,10:00:56,NA,incomplete,false,NA,true,2,6,NA,NA,NA,left,absent,NA,NA,n_l_039.jpg,gray,n_l_082.jpg,white,between,NA,NaN,NA,right,2139.199999988079,0,1,1519.0999999940395
IpcveBma,3uy4pis8ruyxp7v852m6xfad2fzn1g,3xxu1swe8q8sljevrhi3mo3v04za0q,IpcveBma,2020-0188,2021-10-17,08:50:37,10:00:56,NA,incomplete,false,NA,true,2,7,NA,NA,NA,left,absent,NA,NA,m_l_040.jpg,white,n_s_074.jpg,orange,between,NA,NaN,NA,left,1767,1,2,1208.7000000178814
IpcveBma,3uy4pis8ruyxp7v852m6xfad2fzn1g,3xxu1swe8q8sljevrhi3mo3v04za0q,IpcveBma,2020-0188,2021-10-17,08:50:37,10:00:56,NA,incomplete,false,NA,true,2,8,NA,NA,NA,right,absent,NA,NA,n_l_034.jpg,brown,m_l_031.jpg,red,between,NA,NaN,NA,right,4146.800000011921,1,0,1138.9000000059605
IpcveBma,3uy4pis8ruyxp7v852m6xfad2fzn1g,3xxu1swe8q8sljevrhi3mo3v04za0q,IpcveBma,2020-0188,2021-10-17,08:50:37,10:00:56,NA,incomplete,false,NA,true,2,9,NA,NA,NA,left,absent,NA,NA,m_l_080.jpg,black,m_l_020.jpg,black,within,NA,NaN,NA,left,2263.2999999821186,1,3,1231.2999999821186
IpcveBma,3uy4pis8ruyxp7v852m6xfad2fzn1g,3xxu1swe8q8sljevrhi3mo3v04za0q,IpcveBma,2020-0188,2021-10-17,08:50:37,10:00:56,NA,incomplete,false,NA,true,2,10,NA,NA,NA,right,absent,NA,NA,n_s_049.jpg,brown,n_l_066.jpg,brown,within,NA,NaN,NA,right,3838.600000023842,1,0,1147.0999999940395
IpcveBma,3uy4pis8ruyxp7v852m6xfad2fzn1g,3xxu1swe8q8sljevrhi3mo3v04za0q,IpcveBma,2020-0188,2021-10-17,08:50:37,10:00:56,NA,incomplete,false,true,NA,3,0,NA,yellow,n_s_013.jpg,NA,NA,pleasant,unpleasant,NA,NA,NA,NA,NA,left,1984.30000001192,true,NA,NA,NA,NA,NA
IpcveBma,3uy4pis8ruyxp7v852m6xfad2fzn1g,3xxu1swe8q8sljevrhi3mo3v04za0q,IpcveBma,2020-0188,2021-10-17,08:50:37,10:00:56,NA,incomplete,false,true,NA,3,1,NA,yellow,n_l_005.jpg,NA,NA,unpleasant,pleasant,NA,NA,NA,NA,NA,right,1351.40000000596,true,NA,NA,NA,NA,NA
IpcveBma,3uy4pis8ruyxp7v852m6xfad2fzn1g,3xxu1swe8q8sljevrhi3mo3v04za0q,IpcveBma,2020-0188,2021-10-17,08:50:37,10:00:56,NA,incomplete,false,true,NA,3,2,NA,yellow,m_s_094.jpg,NA,NA,unpleasant,pleasant,NA,NA,NA,NA,NA,right,1147.19999998808,true,NA,NA,NA,NA,NA
IpcveBma,3uy4pis8ruyxp7v852m6xfad2fzn1g,3xxu1swe8q8sljevrhi3mo3v04za0q,IpcveBma,2020-0188,2021-10-17,08:50:37,10:00:56,NA,incomplete,false,true,NA,3,3,NA,yellow,m_s_047.jpg,NA,NA,pleasant,unpleasant,NA,NA,NA,NA,NA,left,1581,true,NA,NA,NA,NA,NA
IpcveBma,3uy4pis8ruyxp7v852m6xfad2fzn1g,3xxu1swe8q8sljevrhi3mo3v04za0q,IpcveBma,2020-0188,2021-10-17,08:50:37,10:00:56,NA,incomplete,false,true,NA,3,4,NA,yellow,n_l_046.jpg,NA,NA,unpleasant,pleasant,NA,NA,NA,NA,NA,right,1410,true,NA,NA,NA,NA,NA
IpcveBma,3uy4pis8ruyxp7v852m6xfad2fzn1g,3xxu1swe8q8sljevrhi3mo3v04za0q,IpcveBma,2020-0188,2021-10-17,08:50:37,10:00:56,NA,incomplete,false,true,NA,3,5,NA,yellow,n_l_031.jpg,NA,NA,pleasant,unpleasant,NA,NA,NA,NA,NA,left,1097,true,NA,NA,NA,NA,NA
IpcveBma,3uy4pis8ruyxp7v852m6xfad2fzn1g,3xxu1swe8q8sljevrhi3mo3v04za0q,IpcveBma,2020-0188,2021-10-17,08:50:37,10:00:56,NA,incomplete,false,true,NA,3,6,NA,orange,m_s_029.jpg,NA,NA,pleasant,unpleasant,NA,NA,NA,NA,NA,left,1741.20000001788,true,NA,NA,NA,NA,NA
IpcveBma,3uy4pis8ruyxp7v852m6xfad2fzn1g,3xxu1swe8q8sljevrhi3mo3v04za0q,IpcveBma,2020-0188,2021-10-17,08:50:37,10:00:56,NA,incomplete,false,true,NA,3,7,NA,orange,m_s_058.jpg,NA,NA,pleasant,unpleasant,NA,NA,NA,NA,NA,left,1349.29999998212,true,NA,NA,NA,NA,NA
IpcveBma,3uy4pis8ruyxp7v852m6xfad2fzn1g,3xxu1swe8q8sljevrhi3mo3v04za0q,IpcveBma,2020-0188,2021-10-17,08:50:37,10:00:56,NA,incomplete,false,true,NA,3,8,NA,orange,m_s_057.jpg,NA,NA,pleasant,unpleasant,NA,NA,NA,NA,NA,left,1281.89999997616,true,NA,NA,NA,NA,NA
IpcveBma,3uy4pis8ruyxp7v852m6xfad2fzn1g,3xxu1swe8q8sljevrhi3mo3v04za0q,IpcveBma,2020-0188,2021-10-17,08:50:37,10:00:56,NA,incomplete,false,true,NA,3,9,NA,orange,n_l_002.jpg,NA,NA,unpleasant,pleasant,NA,NA,NA,NA,NA,right,1144.40000000596,true,NA,NA,NA,NA,NA
IpcveBma,3uy4pis8ruyxp7v852m6xfad2fzn1g,3xxu1swe8q8sljevrhi3mo3v04za0q,IpcveBma,2020-0188,2021-10-17,08:50:37,10:00:56,NA,incomplete,false,true,NA,3,10,NA,orange,n_s_092.jpg,NA,NA,pleasant,unpleasant,NA,NA,NA,NA,NA,left,1423.79999998212,true,NA,NA,NA,NA,NA
IpcveBma,3uy4pis8ruyxp7v852m6xfad2fzn1g,3xxu1swe8q8sljevrhi3mo3v04za0q,IpcveBma,2020-0188,2021-10-17,08:50:37,10:00:56,NA,incomplete,false,true,NA,3,11,NA,orange,m_l_056.jpg,NA,NA,unpleasant,pleasant,NA,NA,NA,NA,NA,right,1693.20000001788,true,NA,NA,NA,NA,NA
IpcveBma,3uy4pis8ruyxp7v852m6xfad2fzn1g,3xxu1swe8q8sljevrhi3mo3v04za0q,IpcveBma,2020-0188,2021-10-17,08:50:37,10:00:56,NA,incomplete,false,true,NA,3,12,NA,green,n_s_026.jpg,NA,NA,unpleasant,pleasant,NA,NA,NA,NA,NA,left,1777.19999998808,true,NA,NA,NA,NA,NA
IpcveBma,3uy4pis8ruyxp7v852m6xfad2fzn1g,3xxu1swe8q8sljevrhi3mo3v04za0q,IpcveBma,2020-0188,2021-10-17,08:50:37,10:00:56,NA,incomplete,false,true,NA,3,13,NA,green,m_l_026.jpg,NA,NA,unpleasant,pleasant,NA,NA,NA,NA,NA,right,1746.69999998808,true,NA,NA,NA,NA,NA
IpcveBma,3uy4pis8ruyxp7v852m6xfad2fzn1g,3xxu1swe8q8sljevrhi3mo3v04za0q,IpcveBma,2020-0188,2021-10-17,08:50:37,10:00:56,NA,incomplete,false,true,NA,3,14,NA,green,m_l_010.jpg,NA,NA,unpleasant,pleasant,NA,NA,NA,NA,NA,right,2117.20000001788,true,NA,NA,NA,NA,NA
IpcveBma,3uy4pis8ruyxp7v852m6xfad2fzn1g,3xxu1swe8q8sljevrhi3mo3v04za0q,IpcveBma,2020-0188,2021-10-17,08:50:37,10:00:56,NA,incomplete,false,true,NA,3,15,NA,green,n_l_016.jpg,NA,NA,unpleasant,pleasant,NA,NA,NA,NA,NA,right,1888.90000000596,true,NA,NA,NA,NA,NA
IpcveBma,3uy4pis8ruyxp7v852m6xfad2fzn1g,3xxu1swe8q8sljevrhi3mo3v04za0q,IpcveBma,2020-0188,2021-10-17,08:50:37,10:00:56,NA,incomplete,false,true,NA,3,16,NA,green,m_l_004.jpg,NA,NA,pleasant,unpleasant,NA,NA,NA,NA,NA,left,2007.09999999404,true,NA,NA,NA,NA,NA
IpcveBma,3uy4pis8ruyxp7v852m6xfad2fzn1g,3xxu1swe8q8sljevrhi3mo3v04za0q,IpcveBma,2020-0188,2021-10-17,08:50:37,10:00:56,NA,incomplete,false,true,NA,3,17,NA,green,m_s_097.jpg,NA,NA,unpleasant,pleasant,NA,NA,NA,NA,NA,left,2246,true,NA,NA,NA,NA,NA
IpcveBma,3uy4pis8ruyxp7v852m6xfad2fzn1g,3xxu1swe8q8sljevrhi3mo3v04za0q,IpcveBma,2020-0188,2021-10-17,08:50:37,10:00:56,NA,incomplete,false,true,NA,3,18,NA,white,m_l_090.jpg,NA,NA,unpleasant,pleasant,NA,NA,NA,NA,NA,right,2525,true,NA,NA,NA,NA,NA
IpcveBma,3uy4pis8ruyxp7v852m6xfad2fzn1g,3xxu1swe8q8sljevrhi3mo3v04za0q,IpcveBma,2020-0188,2021-10-17,08:50:37,10:00:56,NA,incomplete,false,true,NA,3,19,NA,white,n_s_115.jpg,NA,NA,pleasant,unpleasant,NA,NA,NA,NA,NA,right,1961.30000001192,true,NA,NA,NA,NA,NA
IpcveBma,3uy4pis8ruyxp7v852m6xfad2fzn1g,3xxu1swe8q8sljevrhi3mo3v04za0q,IpcveBma,2020-0188,2021-10-17,08:50:37,10:00:56,NA,incomplete,false,true,NA,3,20,NA,white,n_l_076.jpg,NA,NA,pleasant,unpleasant,NA,NA,NA,NA,NA,right,1938.40000000596,true,NA,NA,NA,NA,NA
IpcveBma,3uy4pis8ruyxp7v852m6xfad2fzn1g,3xxu1swe8q8sljevrhi3mo3v04za0q,IpcveBma,2020-0188,2021-10-17,08:50:37,10:00:56,NA,incomplete,false,true,NA,3,21,NA,white,m_s_044.jpg,NA,NA,pleasant,unpleasant,NA,NA,NA,NA,NA,left,1761.90000000596,true,NA,NA,NA,NA,NA
IpcveBma,3uy4pis8ruyxp7v852m6xfad2fzn1g,3xxu1swe8q8sljevrhi3mo3v04za0q,IpcveBma,2020-0188,2021-10-17,08:50:37,10:00:56,NA,incomplete,false,true,NA,3,22,NA,white,m_s_092.jpg,NA,NA,unpleasant,pleasant,NA,NA,NA,NA,NA,left,1796.5,true,NA,NA,NA,NA,NA
IpcveBma,3uy4pis8ruyxp7v852m6xfad2fzn1g,3xxu1swe8q8sljevrhi3mo3v04za0q,IpcveBma,2020-0188,2021-10-17,08:50:37,10:00:56,NA,incomplete,false,true,NA,3,23,NA,white,n_l_012.jpg,NA,NA,unpleasant,pleasant,NA,NA,NA,NA,NA,right,1511.79999998212,true,NA,NA,NA,NA,NA
IpcveBma,3uy4pis8ruyxp7v852m6xfad2fzn1g,3xxu1swe8q8sljevrhi3mo3v04za0q,IpcveBma,2020-0188,2021-10-17,08:50:37,10:00:56,NA,incomplete,false,true,NA,3,24,NA,purple,m_l_102.jpg,NA,NA,unpleasant,pleasant,NA,NA,NA,NA,NA,right,1558.70000001788,true,NA,NA,NA,NA,NA
IpcveBma,3uy4pis8ruyxp7v852m6xfad2fzn1g,3xxu1swe8q8sljevrhi3mo3v04za0q,IpcveBma,2020-0188,2021-10-17,08:50:37,10:00:56,NA,incomplete,false,true,NA,3,25,NA,purple,m_l_112.jpg,NA,NA,pleasant,unpleasant,NA,NA,NA,NA,NA,left,1561.69999998808,true,NA,NA,NA,NA,NA
IpcveBma,3uy4pis8ruyxp7v852m6xfad2fzn1g,3xxu1swe8q8sljevrhi3mo3v04za0q,IpcveBma,2020-0188,2021-10-17,08:50:37,10:00:56,NA,incomplete,false,true,NA,3,26,NA,purple,n_l_105.jpg,NA,NA,pleasant,unpleasant,NA,NA,NA,NA,NA,left,1151.40000000596,true,NA,NA,NA,NA,NA
IpcveBma,3uy4pis8ruyxp7v852m6xfad2fzn1g,3xxu1swe8q8sljevrhi3mo3v04za0q,IpcveBma,2020-0188,2021-10-17,08:50:37,10:00:56,NA,incomplete,false,true,NA,3,27,NA,purple,n_s_108.jpg,NA,NA,unpleasant,pleasant,NA,NA,NA,NA,NA,left,1797.20000001788,true,NA,NA,NA,NA,NA
IpcveBma,3uy4pis8ruyxp7v852m6xfad2fzn1g,3xxu1swe8q8sljevrhi3mo3v04za0q,IpcveBma,2020-0188,2021-10-17,08:50:37,10:00:56,NA,incomplete,false,true,NA,3,28,NA,purple,n_l_013.jpg,NA,NA,unpleasant,pleasant,NA,NA,NA,NA,NA,right,1727.59999999404,true,NA,NA,NA,NA,NA
IpcveBma,3uy4pis8ruyxp7v852m6xfad2fzn1g,3xxu1swe8q8sljevrhi3mo3v04za0q,IpcveBma,2020-0188,2021-10-17,08:50:37,10:00:56,NA,incomplete,false,true,NA,3,29,NA,purple,m_l_014.jpg,NA,NA,unpleasant,pleasant,NA,NA,NA,NA,NA,left,2180.5,true,NA,NA,NA,NA,NA
IpcveBma,3uy4pis8ruyxp7v852m6xfad2fzn1g,3xxu1swe8q8sljevrhi3mo3v04za0q,IpcveBma,2020-0188,2021-10-17,08:50:37,10:00:56,NA,incomplete,false,true,NA,3,30,NA,gray,m_l_084.jpg,NA,NA,unpleasant,pleasant,NA,NA,NA,NA,NA,right,1856.30000001192,true,NA,NA,NA,NA,NA
IpcveBma,3uy4pis8ruyxp7v852m6xfad2fzn1g,3xxu1swe8q8sljevrhi3mo3v04za0q,IpcveBma,2020-0188,2021-10-17,08:50:37,10:00:56,NA,incomplete,false,true,NA,3,31,NA,gray,n_l_083.jpg,NA,NA,pleasant,unpleasant,NA,NA,NA,NA,NA,left,1568.09999999404,true,NA,NA,NA,NA,NA
IpcveBma,3uy4pis8ruyxp7v852m6xfad2fzn1g,3xxu1swe8q8sljevrhi3mo3v04za0q,IpcveBma,2020-0188,2021-10-17,08:50:37,10:00:56,NA,incomplete,false,true,NA,3,32,NA,gray,m_s_027.jpg,NA,NA,unpleasant,pleasant,NA,NA,NA,NA,NA,right,1788.90000000596,true,NA,NA,NA,NA,NA
IpcveBma,3uy4pis8ruyxp7v852m6xfad2fzn1g,3xxu1swe8q8sljevrhi3mo3v04za0q,IpcveBma,2020-0188,2021-10-17,08:50:37,10:00:56,NA,incomplete,false,true,NA,3,33,NA,gray,m_s_074.jpg,NA,NA,pleasant,unpleasant,NA,NA,NA,NA,NA,right,1387,true,NA,NA,NA,NA,NA
IpcveBma,3uy4pis8ruyxp7v852m6xfad2fzn1g,3xxu1swe8q8sljevrhi3mo3v04za0q,IpcveBma,2020-0188,2021-10-17,08:50:37,10:00:56,NA,incomplete,false,true,NA,3,34,NA,gray,m_l_030.jpg,NA,NA,pleasant,unpleasant,NA,NA,NA,NA,NA,left,1295.70000001788,true,NA,NA,NA,NA,NA
IpcveBma,3uy4pis8ruyxp7v852m6xfad2fzn1g,3xxu1swe8q8sljevrhi3mo3v04za0q,IpcveBma,2020-0188,2021-10-17,08:50:37,10:00:56,NA,incomplete,false,true,NA,3,35,NA,gray,n_s_005.jpg,NA,NA,pleasant,unpleasant,NA,NA,NA,NA,NA,left,1125.69999998808,true,NA,NA,NA,NA,NA
IpcveBma,3uy4pis8ruyxp7v852m6xfad2fzn1g,3xxu1swe8q8sljevrhi3mo3v04za0q,IpcveBma,2020-0188,2021-10-17,08:50:37,10:00:56,NA,incomplete,false,NA,true,3,0,NA,NA,NA,left,present,NA,NA,n_l_005.jpg,yellow,n_l_031.jpg,yellow,within,NA,NaN,NA,right,5690.100000023842,0,0,1279.800000011921
IpcveBma,3uy4pis8ruyxp7v852m6xfad2fzn1g,3xxu1swe8q8sljevrhi3mo3v04za0q,IpcveBma,2020-0188,2021-10-17,08:50:37,10:00:56,NA,incomplete,false,NA,true,3,1,NA,NA,NA,left,present,NA,NA,n_s_115.jpg,white,n_l_012.jpg,white,within,NA,NaN,NA,right,1836.0999999940395,0,1,938
IpcveBma,3uy4pis8ruyxp7v852m6xfad2fzn1g,3xxu1swe8q8sljevrhi3mo3v04za0q,IpcveBma,2020-0188,2021-10-17,08:50:37,10:00:56,NA,incomplete,false,NA,true,3,2,NA,NA,NA,left,present,NA,NA,m_l_004.jpg,green,n_l_076.jpg,white,between,NA,NaN,NA,left,6078.5,1,2,1284.300000011921
IpcveBma,3uy4pis8ruyxp7v852m6xfad2fzn1g,3xxu1swe8q8sljevrhi3mo3v04za0q,IpcveBma,2020-0188,2021-10-17,08:50:37,10:00:56,NA,incomplete,false,NA,true,3,3,NA,NA,NA,left,present,NA,NA,m_l_112.jpg,purple,m_l_014.jpg,purple,within,NA,NaN,NA,left,2270.300000011921,1,1,1222.9000000059605
IpcveBma,3uy4pis8ruyxp7v852m6xfad2fzn1g,3xxu1swe8q8sljevrhi3mo3v04za0q,IpcveBma,2020-0188,2021-10-17,08:50:37,10:00:56,NA,incomplete,false,NA,true,3,4,NA,NA,NA,left,present,NA,NA,m_l_026.jpg,green,m_s_097.jpg,green,within,NA,NaN,NA,left,3829.7000000178814,1,1,2093
IpcveBma,3uy4pis8ruyxp7v852m6xfad2fzn1g,3xxu1swe8q8sljevrhi3mo3v04za0q,IpcveBma,2020-0188,2021-10-17,08:50:37,10:00:56,NA,incomplete,false,NA,true,3,5,NA,NA,NA,right,present,NA,NA,n_l_105.jpg,purple,m_s_092.jpg,white,between,NA,NaN,NA,right,4389,1,2,1325.699999988079
IpcveBma,3uy4pis8ruyxp7v852m6xfad2fzn1g,3xxu1swe8q8sljevrhi3mo3v04za0q,IpcveBma,2020-0188,2021-10-17,08:50:37,10:00:56,NA,incomplete,false,NA,true,3,6,NA,NA,NA,right,present,NA,NA,m_l_010.jpg,green,n_s_092.jpg,orange,between,NA,NaN,NA,right,2100.899999976158,1,2,921.3000000119209
IpcveBma,3uy4pis8ruyxp7v852m6xfad2fzn1g,3xxu1swe8q8sljevrhi3mo3v04za0q,IpcveBma,2020-0188,2021-10-17,08:50:37,10:00:56,NA,incomplete,false,NA,true,3,7,NA,NA,NA,left,present,NA,NA,n_l_046.jpg,yellow,m_s_057.jpg,orange,between,NA,NaN,NA,right,9608.90000000596,0,2,1333.2999999821186
IpcveBma,3uy4pis8ruyxp7v852m6xfad2fzn1g,3xxu1swe8q8sljevrhi3mo3v04za0q,IpcveBma,2020-0188,2021-10-17,08:50:37,10:00:56,NA,incomplete,false,NA,true,3,8,NA,NA,NA,right,present,NA,NA,n_s_005.jpg,gray,n_l_083.jpg,gray,within,NA,NaN,NA,left,2666.9000000059605,0,0,1907
IpcveBma,3uy4pis8ruyxp7v852m6xfad2fzn1g,3xxu1swe8q8sljevrhi3mo3v04za0q,IpcveBma,2020-0188,2021-10-17,08:50:37,10:00:56,NA,incomplete,false,NA,true,3,9,NA,NA,NA,left,present,NA,NA,n_l_013.jpg,purple,m_s_027.jpg,gray,between,NA,NaN,NA,left,2092.300000011921,1,1,1634
IpcveBma,3uy4pis8ruyxp7v852m6xfad2fzn1g,3xxu1swe8q8sljevrhi3mo3v04za0q,IpcveBma,2020-0188,2021-10-17,08:50:37,10:00:56,NA,incomplete,false,NA,true,3,10,NA,NA,NA,left,present,NA,NA,m_s_058.jpg,orange,m_l_056.jpg,orange,within,NA,NaN,NA,right,2798.9000000059605,0,0,1580.5
IpcveBma,3uy4pis8ruyxp7v852m6xfad2fzn1g,3xxu1swe8q8sljevrhi3mo3v04za0q,IpcveBma,2020-0188,2021-10-17,08:50:37,10:00:56,NA,incomplete,false,true,NA,4,0,NA,black,n_l_030.jpg,NA,NA,pleasant,unpleasant,NA,NA,NA,NA,NA,left,992,true,NA,NA,NA,NA,NA
IpcveBma,3uy4pis8ruyxp7v852m6xfad2fzn1g,3xxu1swe8q8sljevrhi3mo3v04za0q,IpcveBma,2020-0188,2021-10-17,08:50:37,10:00:56,NA,incomplete,false,true,NA,4,1,NA,black,n_l_093.jpg,NA,NA,unpleasant,pleasant,NA,NA,NA,NA,NA,left,1299,true,NA,NA,NA,NA,NA
IpcveBma,3uy4pis8ruyxp7v852m6xfad2fzn1g,3xxu1swe8q8sljevrhi3mo3v04za0q,IpcveBma,2020-0188,2021-10-17,08:50:37,10:00:56,NA,incomplete,false,true,NA,4,2,NA,black,n_l_010.jpg,NA,NA,unpleasant,pleasant,NA,NA,NA,NA,NA,right,1023.40000000596,true,NA,NA,NA,NA,NA
IpcveBma,3uy4pis8ruyxp7v852m6xfad2fzn1g,3xxu1swe8q8sljevrhi3mo3v04za0q,IpcveBma,2020-0188,2021-10-17,08:50:37,10:00:56,NA,incomplete,false,true,NA,4,3,NA,black,m_l_073.jpg,NA,NA,unpleasant,pleasant,NA,NA,NA,NA,NA,right,1398.39999997616,true,NA,NA,NA,NA,NA
IpcveBma,3uy4pis8ruyxp7v852m6xfad2fzn1g,3xxu1swe8q8sljevrhi3mo3v04za0q,IpcveBma,2020-0188,2021-10-17,08:50:37,10:00:56,NA,incomplete,false,true,NA,4,4,NA,black,m_s_076.jpg,NA,NA,pleasant,unpleasant,NA,NA,NA,NA,NA,left,1065.19999998808,true,NA,NA,NA,NA,NA
IpcveBma,3uy4pis8ruyxp7v852m6xfad2fzn1g,3xxu1swe8q8sljevrhi3mo3v04za0q,IpcveBma,2020-0188,2021-10-17,08:50:37,10:00:56,NA,incomplete,false,true,NA,4,5,NA,black,m_s_031.jpg,NA,NA,pleasant,unpleasant,NA,NA,NA,NA,NA,left,1298.09999999404,true,NA,NA,NA,NA,NA
IpcveBma,3uy4pis8ruyxp7v852m6xfad2fzn1g,3xxu1swe8q8sljevrhi3mo3v04za0q,IpcveBma,2020-0188,2021-10-17,08:50:37,10:00:56,NA,incomplete,false,true,NA,4,6,NA,white,m_l_063.jpg,NA,NA,pleasant,unpleasant,NA,NA,NA,NA,NA,left,1122,true,NA,NA,NA,NA,NA
IpcveBma,3uy4pis8ruyxp7v852m6xfad2fzn1g,3xxu1swe8q8sljevrhi3mo3v04za0q,IpcveBma,2020-0188,2021-10-17,08:50:37,10:00:56,NA,incomplete,false,true,NA,4,7,NA,white,n_s_095.jpg,NA,NA,unpleasant,pleasant,NA,NA,NA,NA,NA,right,1730,true,NA,NA,NA,NA,NA
IpcveBma,3uy4pis8ruyxp7v852m6xfad2fzn1g,3xxu1swe8q8sljevrhi3mo3v04za0q,IpcveBma,2020-0188,2021-10-17,08:50:37,10:00:56,NA,incomplete,false,true,NA,4,8,NA,white,n_s_068.jpg,NA,NA,unpleasant,pleasant,NA,NA,NA,NA,NA,right,1431.89999997616,true,NA,NA,NA,NA,NA
IpcveBma,3uy4pis8ruyxp7v852m6xfad2fzn1g,3xxu1swe8q8sljevrhi3mo3v04za0q,IpcveBma,2020-0188,2021-10-17,08:50:37,10:00:56,NA,incomplete,false,true,NA,4,9,NA,white,m_s_010.jpg,NA,NA,unpleasant,pleasant,NA,NA,NA,NA,NA,right,1276,true,NA,NA,NA,NA,NA
IpcveBma,3uy4pis8ruyxp7v852m6xfad2fzn1g,3xxu1swe8q8sljevrhi3mo3v04za0q,IpcveBma,2020-0188,2021-10-17,08:50:37,10:00:56,NA,incomplete,false,true,NA,4,10,NA,white,m_s_003.jpg,NA,NA,unpleasant,pleasant,NA,NA,NA,NA,NA,right,1343.80000001192,true,NA,NA,NA,NA,NA
IpcveBma,3uy4pis8ruyxp7v852m6xfad2fzn1g,3xxu1swe8q8sljevrhi3mo3v04za0q,IpcveBma,2020-0188,2021-10-17,08:50:37,10:00:56,NA,incomplete,false,true,NA,4,11,NA,white,n_s_116.jpg,NA,NA,pleasant,unpleasant,NA,NA,NA,NA,NA,right,1622.19999998808,true,NA,NA,NA,NA,NA
IpcveBma,3uy4pis8ruyxp7v852m6xfad2fzn1g,3xxu1swe8q8sljevrhi3mo3v04za0q,IpcveBma,2020-0188,2021-10-17,08:50:37,10:00:56,NA,incomplete,false,true,NA,4,12,NA,green,n_l_043.jpg,NA,NA,unpleasant,pleasant,NA,NA,NA,NA,NA,right,1371.5,true,NA,NA,NA,NA,NA
IpcveBma,3uy4pis8ruyxp7v852m6xfad2fzn1g,3xxu1swe8q8sljevrhi3mo3v04za0q,IpcveBma,2020-0188,2021-10-17,08:50:37,10:00:56,NA,incomplete,false,true,NA,4,13,NA,green,n_l_014.jpg,NA,NA,unpleasant,pleasant,NA,NA,NA,NA,NA,left,1341.70000001788,true,NA,NA,NA,NA,NA
IpcveBma,3uy4pis8ruyxp7v852m6xfad2fzn1g,3xxu1swe8q8sljevrhi3mo3v04za0q,IpcveBma,2020-0188,2021-10-17,08:50:37,10:00:56,NA,incomplete,false,true,NA,4,14,NA,green,m_l_018.jpg,NA,NA,unpleasant,pleasant,NA,NA,NA,NA,NA,right,1632.90000000596,true,NA,NA,NA,NA,NA
IpcveBma,3uy4pis8ruyxp7v852m6xfad2fzn1g,3xxu1swe8q8sljevrhi3mo3v04za0q,IpcveBma,2020-0188,2021-10-17,08:50:37,10:00:56,NA,incomplete,false,true,NA,4,15,NA,green,n_l_081.jpg,NA,NA,pleasant,unpleasant,NA,NA,NA,NA,NA,left,1127.40000000596,true,NA,NA,NA,NA,NA
IpcveBma,3uy4pis8ruyxp7v852m6xfad2fzn1g,3xxu1swe8q8sljevrhi3mo3v04za0q,IpcveBma,2020-0188,2021-10-17,08:50:37,10:00:56,NA,incomplete,false,true,NA,4,16,NA,green,m_s_002.jpg,NA,NA,unpleasant,pleasant,NA,NA,NA,NA,NA,left,2001.20000001788,true,NA,NA,NA,NA,NA
IpcveBma,3uy4pis8ruyxp7v852m6xfad2fzn1g,3xxu1swe8q8sljevrhi3mo3v04za0q,IpcveBma,2020-0188,2021-10-17,08:50:37,10:00:56,NA,incomplete,false,true,NA,4,17,NA,green,m_l_081.jpg,NA,NA,unpleasant,pleasant,NA,NA,NA,NA,NA,right,1509.59999999404,true,NA,NA,NA,NA,NA
IpcveBma,3uy4pis8ruyxp7v852m6xfad2fzn1g,3xxu1swe8q8sljevrhi3mo3v04za0q,IpcveBma,2020-0188,2021-10-17,08:50:37,10:00:56,NA,incomplete,false,true,NA,4,18,NA,blue,m_s_039.jpg,NA,NA,unpleasant,pleasant,NA,NA,NA,NA,NA,left,2082,true,NA,NA,NA,NA,NA
IpcveBma,3uy4pis8ruyxp7v852m6xfad2fzn1g,3xxu1swe8q8sljevrhi3mo3v04za0q,IpcveBma,2020-0188,2021-10-17,08:50:37,10:00:56,NA,incomplete,false,true,NA,4,19,NA,blue,n_l_075.jpg,NA,NA,pleasant,unpleasant,NA,NA,NA,NA,NA,right,2130.69999998808,true,NA,NA,NA,NA,NA
IpcveBma,3uy4pis8ruyxp7v852m6xfad2fzn1g,3xxu1swe8q8sljevrhi3mo3v04za0q,IpcveBma,2020-0188,2021-10-17,08:50:37,10:00:56,NA,incomplete,false,true,NA,4,20,NA,blue,n_s_080.jpg,NA,NA,unpleasant,pleasant,NA,NA,NA,NA,NA,left,1291.09999999404,true,NA,NA,NA,NA,NA
IpcveBma,3uy4pis8ruyxp7v852m6xfad2fzn1g,3xxu1swe8q8sljevrhi3mo3v04za0q,IpcveBma,2020-0188,2021-10-17,08:50:37,10:00:56,NA,incomplete,false,true,NA,4,21,NA,blue,m_s_054.jpg,NA,NA,unpleasant,pleasant,NA,NA,NA,NA,NA,left,1376.29999998212,true,NA,NA,NA,NA,NA
IpcveBma,3uy4pis8ruyxp7v852m6xfad2fzn1g,3xxu1swe8q8sljevrhi3mo3v04za0q,IpcveBma,2020-0188,2021-10-17,08:50:37,10:00:56,NA,incomplete,false,true,NA,4,22,NA,blue,n_l_058.jpg,NA,NA,unpleasant,pleasant,NA,NA,NA,NA,NA,right,1883.89999997616,true,NA,NA,NA,NA,NA
IpcveBma,3uy4pis8ruyxp7v852m6xfad2fzn1g,3xxu1swe8q8sljevrhi3mo3v04za0q,IpcveBma,2020-0188,2021-10-17,08:50:37,10:00:56,NA,incomplete,false,true,NA,4,23,NA,blue,m_s_015.jpg,NA,NA,pleasant,unpleasant,NA,NA,NA,NA,NA,left,1823.59999999404,true,NA,NA,NA,NA,NA
IpcveBma,3uy4pis8ruyxp7v852m6xfad2fzn1g,3xxu1swe8q8sljevrhi3mo3v04za0q,IpcveBma,2020-0188,2021-10-17,08:50:37,10:00:56,NA,incomplete,false,true,NA,4,24,NA,gray,m_s_069.jpg,NA,NA,unpleasant,pleasant,NA,NA,NA,NA,NA,right,1402.40000000596,true,NA,NA,NA,NA,NA
IpcveBma,3uy4pis8ruyxp7v852m6xfad2fzn1g,3xxu1swe8q8sljevrhi3mo3v04za0q,IpcveBma,2020-0188,2021-10-17,08:50:37,10:00:56,NA,incomplete,false,true,NA,4,25,NA,gray,m_l_072.jpg,NA,NA,pleasant,unpleasant,NA,NA,NA,NA,NA,left,1272.40000000596,true,NA,NA,NA,NA,NA
IpcveBma,3uy4pis8ruyxp7v852m6xfad2fzn1g,3xxu1swe8q8sljevrhi3mo3v04za0q,IpcveBma,2020-0188,2021-10-17,08:50:37,10:00:56,NA,incomplete,false,true,NA,4,26,NA,gray,n_s_032.jpg,NA,NA,unpleasant,pleasant,NA,NA,NA,NA,NA,right,1206.90000000596,true,NA,NA,NA,NA,NA
IpcveBma,3uy4pis8ruyxp7v852m6xfad2fzn1g,3xxu1swe8q8sljevrhi3mo3v04za0q,IpcveBma,2020-0188,2021-10-17,08:50:37,10:00:56,NA,incomplete,false,true,NA,4,27,NA,gray,n_l_053.jpg,NA,NA,pleasant,unpleasant,NA,NA,NA,NA,NA,left,1210.59999999404,true,NA,NA,NA,NA,NA
IpcveBma,3uy4pis8ruyxp7v852m6xfad2fzn1g,3xxu1swe8q8sljevrhi3mo3v04za0q,IpcveBma,2020-0188,2021-10-17,08:50:37,10:00:56,NA,incomplete,false,true,NA,4,28,NA,gray,n_s_056.jpg,NA,NA,unpleasant,pleasant,NA,NA,NA,NA,NA,left,2564.79999998212,true,NA,NA,NA,NA,NA
IpcveBma,3uy4pis8ruyxp7v852m6xfad2fzn1g,3xxu1swe8q8sljevrhi3mo3v04za0q,IpcveBma,2020-0188,2021-10-17,08:50:37,10:00:56,NA,incomplete,false,true,NA,4,29,NA,gray,n_s_022.jpg,NA,NA,pleasant,unpleasant,NA,NA,NA,NA,NA,left,1999.5,true,NA,NA,NA,NA,NA
IpcveBma,3uy4pis8ruyxp7v852m6xfad2fzn1g,3xxu1swe8q8sljevrhi3mo3v04za0q,IpcveBma,2020-0188,2021-10-17,08:50:37,10:00:56,NA,incomplete,false,true,NA,4,30,NA,yellow,m_l_089.jpg,NA,NA,unpleasant,pleasant,NA,NA,NA,NA,NA,right,1175.29999998212,true,NA,NA,NA,NA,NA
IpcveBma,3uy4pis8ruyxp7v852m6xfad2fzn1g,3xxu1swe8q8sljevrhi3mo3v04za0q,IpcveBma,2020-0188,2021-10-17,08:50:37,10:00:56,NA,incomplete,false,true,NA,4,31,NA,yellow,m_l_071.jpg,NA,NA,pleasant,unpleasant,NA,NA,NA,NA,NA,left,1239.40000000596,true,NA,NA,NA,NA,NA
IpcveBma,3uy4pis8ruyxp7v852m6xfad2fzn1g,3xxu1swe8q8sljevrhi3mo3v04za0q,IpcveBma,2020-0188,2021-10-17,08:50:37,10:00:56,NA,incomplete,false,true,NA,4,32,NA,yellow,m_l_083.jpg,NA,NA,unpleasant,pleasant,NA,NA,NA,NA,NA,right,1306,true,NA,NA,NA,NA,NA
IpcveBma,3uy4pis8ruyxp7v852m6xfad2fzn1g,3xxu1swe8q8sljevrhi3mo3v04za0q,IpcveBma,2020-0188,2021-10-17,08:50:37,10:00:56,NA,incomplete,false,true,NA,4,33,NA,yellow,m_l_016.jpg,NA,NA,pleasant,unpleasant,NA,NA,NA,NA,NA,left,1159.20000001788,true,NA,NA,NA,NA,NA
IpcveBma,3uy4pis8ruyxp7v852m6xfad2fzn1g,3xxu1swe8q8sljevrhi3mo3v04za0q,IpcveBma,2020-0188,2021-10-17,08:50:37,10:00:56,NA,incomplete,false,true,NA,4,34,NA,yellow,m_s_093.jpg,NA,NA,unpleasant,pleasant,NA,NA,NA,NA,NA,right,1074.40000000596,true,NA,NA,NA,NA,NA
IpcveBma,3uy4pis8ruyxp7v852m6xfad2fzn1g,3xxu1swe8q8sljevrhi3mo3v04za0q,IpcveBma,2020-0188,2021-10-17,08:50:37,10:00:56,NA,incomplete,false,true,NA,4,35,NA,yellow,m_l_065.jpg,NA,NA,pleasant,unpleasant,NA,NA,NA,NA,NA,left,1113,true,NA,NA,NA,NA,NA
IpcveBma,3uy4pis8ruyxp7v852m6xfad2fzn1g,3xxu1swe8q8sljevrhi3mo3v04za0q,IpcveBma,2020-0188,2021-10-17,08:50:37,10:00:56,NA,incomplete,false,NA,true,4,0,NA,NA,NA,left,present,NA,NA,m_s_076.jpg,black,n_s_068.jpg,white,between,NA,NaN,NA,left,3629.199999988079,1,1,1287.0999999940395
IpcveBma,3uy4pis8ruyxp7v852m6xfad2fzn1g,3xxu1swe8q8sljevrhi3mo3v04za0q,IpcveBma,2020-0188,2021-10-17,08:50:37,10:00:56,NA,incomplete,false,NA,true,4,1,NA,NA,NA,right,present,NA,NA,n_s_032.jpg,gray,n_l_058.jpg,blue,between,NA,NaN,NA,left,3248.4000000059605,0,2,1106.0999999940395
IpcveBma,3uy4pis8ruyxp7v852m6xfad2fzn1g,3xxu1swe8q8sljevrhi3mo3v04za0q,IpcveBma,2020-0188,2021-10-17,08:50:37,10:00:56,NA,incomplete,false,NA,true,4,2,NA,NA,NA,left,present,NA,NA,n_s_095.jpg,white,n_s_116.jpg,white,within,NA,NaN,NA,right,3970.9000000059605,0,0,3535.5999999940395
IpcveBma,3uy4pis8ruyxp7v852m6xfad2fzn1g,3xxu1swe8q8sljevrhi3mo3v04za0q,IpcveBma,2020-0188,2021-10-17,08:50:37,10:00:56,NA,incomplete,false,NA,true,4,3,NA,NA,NA,left,present,NA,NA,m_s_003.jpg,white,m_l_018.jpg,green,between,NA,NaN,NA,left,5041.9000000059605,1,2,946.5999999940395
IpcveBma,3uy4pis8ruyxp7v852m6xfad2fzn1g,3xxu1swe8q8sljevrhi3mo3v04za0q,IpcveBma,2020-0188,2021-10-17,08:50:37,10:00:56,NA,incomplete,false,NA,true,4,4,NA,NA,NA,left,present,NA,NA,n_s_056.jpg,gray,m_l_083.jpg,yellow,between,NA,NaN,NA,right,2597,0,2,1225.800000011921
IpcveBma,3uy4pis8ruyxp7v852m6xfad2fzn1g,3xxu1swe8q8sljevrhi3mo3v04za0q,IpcveBma,2020-0188,2021-10-17,08:50:37,10:00:56,NA,incomplete,false,NA,true,4,5,NA,NA,NA,right,present,NA,NA,m_l_081.jpg,green,n_l_014.jpg,green,within,NA,NaN,NA,right,3512.4000000059605,1,0,2729
IpcveBma,3uy4pis8ruyxp7v852m6xfad2fzn1g,3xxu1swe8q8sljevrhi3mo3v04za0q,IpcveBma,2020-0188,2021-10-17,08:50:37,10:00:56,NA,incomplete,false,NA,true,4,6,NA,NA,NA,right,present,NA,NA,n_s_022.jpg,gray,m_l_072.jpg,gray,within,NA,NaN,NA,right,2875.5999999940395,1,0,2589.800000011921
IpcveBma,3uy4pis8ruyxp7v852m6xfad2fzn1g,3xxu1swe8q8sljevrhi3mo3v04za0q,IpcveBma,2020-0188,2021-10-17,08:50:37,10:00:56,NA,incomplete,false,NA,true,4,7,NA,NA,NA,left,present,NA,NA,n_l_075.jpg,blue,m_s_015.jpg,blue,within,NA,NaN,NA,left,2666.899999976158,1,0,1526.7000000178814
IpcveBma,3uy4pis8ruyxp7v852m6xfad2fzn1g,3xxu1swe8q8sljevrhi3mo3v04za0q,IpcveBma,2020-0188,2021-10-17,08:50:37,10:00:56,NA,incomplete,false,NA,true,4,8,NA,NA,NA,right,present,NA,NA,m_l_065.jpg,yellow,m_l_071.jpg,yellow,within,NA,NaN,NA,right,1922.7999999821186,1,1,1154.5
IpcveBma,3uy4pis8ruyxp7v852m6xfad2fzn1g,3xxu1swe8q8sljevrhi3mo3v04za0q,IpcveBma,2020-0188,2021-10-17,08:50:37,10:00:56,NA,incomplete,false,NA,true,4,9,NA,NA,NA,right,present,NA,NA,n_s_080.jpg,blue,m_s_002.jpg,green,between,NA,NaN,NA,left,3978.800000011921,0,1,1736.9000000059605
IpcveBma,3uy4pis8ruyxp7v852m6xfad2fzn1g,3xxu1swe8q8sljevrhi3mo3v04za0q,IpcveBma,2020-0188,2021-10-17,08:50:37,10:00:56,NA,incomplete,false,NA,true,4,10,NA,NA,NA,right,present,NA,NA,m_s_031.jpg,black,n_l_093.jpg,black,within,NA,NaN,NA,right,2985.600000023842,1,1,928.4000000059605
IpcveBma,3uy4pis8ruyxp7v852m6xfad2fzn1g,3xxu1swe8q8sljevrhi3mo3v04za0q,IpcveBma,2020-0188,2021-10-17,08:50:37,10:00:56,NA,incomplete,false,true,NA,5,0,NA,red,m_l_100.jpg,NA,NA,unpleasant,pleasant,NA,NA,NA,NA,NA,right,1928.80000001192,true,NA,NA,NA,NA,NA
IpcveBma,3uy4pis8ruyxp7v852m6xfad2fzn1g,3xxu1swe8q8sljevrhi3mo3v04za0q,IpcveBma,2020-0188,2021-10-17,08:50:37,10:00:56,NA,incomplete,false,true,NA,5,1,NA,red,m_s_115.jpg,NA,NA,unpleasant,pleasant,NA,NA,NA,NA,NA,right,1453.59999999404,true,NA,NA,NA,NA,NA
IpcveBma,3uy4pis8ruyxp7v852m6xfad2fzn1g,3xxu1swe8q8sljevrhi3mo3v04za0q,IpcveBma,2020-0188,2021-10-17,08:50:37,10:00:56,NA,incomplete,false,true,NA,5,2,NA,red,n_l_067.jpg,NA,NA,unpleasant,pleasant,NA,NA,NA,NA,NA,right,1062.69999998808,true,NA,NA,NA,NA,NA
IpcveBma,3uy4pis8ruyxp7v852m6xfad2fzn1g,3xxu1swe8q8sljevrhi3mo3v04za0q,IpcveBma,2020-0188,2021-10-17,08:50:37,10:00:56,NA,incomplete,false,true,NA,5,3,NA,red,n_s_035.jpg,NA,NA,pleasant,unpleasant,NA,NA,NA,NA,NA,left,1278.89999997616,true,NA,NA,NA,NA,NA
IpcveBma,3uy4pis8ruyxp7v852m6xfad2fzn1g,3xxu1swe8q8sljevrhi3mo3v04za0q,IpcveBma,2020-0188,2021-10-17,08:50:37,10:00:56,NA,incomplete,false,true,NA,5,4,NA,red,m_s_101.jpg,NA,NA,pleasant,unpleasant,NA,NA,NA,NA,NA,left,1438.69999998808,true,NA,NA,NA,NA,NA
IpcveBma,3uy4pis8ruyxp7v852m6xfad2fzn1g,3xxu1swe8q8sljevrhi3mo3v04za0q,IpcveBma,2020-0188,2021-10-17,08:50:37,10:00:56,NA,incomplete,false,true,NA,5,5,NA,red,m_s_007.jpg,NA,NA,pleasant,unpleasant,NA,NA,NA,NA,NA,left,1621,true,NA,NA,NA,NA,NA
IpcveBma,3uy4pis8ruyxp7v852m6xfad2fzn1g,3xxu1swe8q8sljevrhi3mo3v04za0q,IpcveBma,2020-0188,2021-10-17,08:50:37,10:00:56,NA,incomplete,false,true,NA,5,6,NA,blue,n_l_054.jpg,NA,NA,unpleasant,pleasant,NA,NA,NA,NA,NA,right,1014.70000001788,true,NA,NA,NA,NA,NA
IpcveBma,3uy4pis8ruyxp7v852m6xfad2fzn1g,3xxu1swe8q8sljevrhi3mo3v04za0q,IpcveBma,2020-0188,2021-10-17,08:50:37,10:00:56,NA,incomplete,false,true,NA,5,7,NA,blue,n_l_057.jpg,NA,NA,pleasant,unpleasant,NA,NA,NA,NA,NA,left,935.90000000596,true,NA,NA,NA,NA,NA
IpcveBma,3uy4pis8ruyxp7v852m6xfad2fzn1g,3xxu1swe8q8sljevrhi3mo3v04za0q,IpcveBma,2020-0188,2021-10-17,08:50:37,10:00:56,NA,incomplete,false,true,NA,5,8,NA,blue,m_l_105.jpg,NA,NA,unpleasant,pleasant,NA,NA,NA,NA,NA,right,1056.5,true,NA,NA,NA,NA,NA
IpcveBma,3uy4pis8ruyxp7v852m6xfad2fzn1g,3xxu1swe8q8sljevrhi3mo3v04za0q,IpcveBma,2020-0188,2021-10-17,08:50:37,10:00:56,NA,incomplete,false,true,NA,5,9,NA,blue,m_s_073.jpg,NA,NA,unpleasant,pleasant,NA,NA,NA,NA,NA,right,1343.90000000596,true,NA,NA,NA,NA,NA
IpcveBma,3uy4pis8ruyxp7v852m6xfad2fzn1g,3xxu1swe8q8sljevrhi3mo3v04za0q,IpcveBma,2020-0188,2021-10-17,08:50:37,10:00:56,NA,incomplete,false,true,NA,5,10,NA,blue,m_s_087.jpg,NA,NA,unpleasant,pleasant,NA,NA,NA,NA,NA,right,2117.09999999404,true,NA,NA,NA,NA,NA
IpcveBma,3uy4pis8ruyxp7v852m6xfad2fzn1g,3xxu1swe8q8sljevrhi3mo3v04za0q,IpcveBma,2020-0188,2021-10-17,08:50:37,10:00:56,NA,incomplete,false,true,NA,5,11,NA,blue,m_l_078.jpg,NA,NA,pleasant,unpleasant,NA,NA,NA,NA,NA,left,1540.29999998212,true,NA,NA,NA,NA,NA
IpcveBma,3uy4pis8ruyxp7v852m6xfad2fzn1g,3xxu1swe8q8sljevrhi3mo3v04za0q,IpcveBma,2020-0188,2021-10-17,08:50:37,10:00:56,NA,incomplete,false,true,NA,5,12,NA,brown,n_l_041.jpg,NA,NA,unpleasant,pleasant,NA,NA,NA,NA,NA,left,1894.30000001192,true,NA,NA,NA,NA,NA
IpcveBma,3uy4pis8ruyxp7v852m6xfad2fzn1g,3xxu1swe8q8sljevrhi3mo3v04za0q,IpcveBma,2020-0188,2021-10-17,08:50:37,10:00:56,NA,incomplete,false,true,NA,5,13,NA,brown,m_s_046.jpg,NA,NA,unpleasant,pleasant,NA,NA,NA,NA,NA,right,2274.90000000596,true,NA,NA,NA,NA,NA
IpcveBma,3uy4pis8ruyxp7v852m6xfad2fzn1g,3xxu1swe8q8sljevrhi3mo3v04za0q,IpcveBma,2020-0188,2021-10-17,08:50:37,10:00:56,NA,incomplete,false,true,NA,5,14,NA,brown,n_l_052.jpg,NA,NA,unpleasant,pleasant,NA,NA,NA,NA,NA,right,1567.5,true,NA,NA,NA,NA,NA
IpcveBma,3uy4pis8ruyxp7v852m6xfad2fzn1g,3xxu1swe8q8sljevrhi3mo3v04za0q,IpcveBma,2020-0188,2021-10-17,08:50:37,10:00:56,NA,incomplete,false,true,NA,5,15,NA,brown,m_s_019.jpg,NA,NA,pleasant,unpleasant,NA,NA,NA,NA,NA,left,1944.90000000596,true,NA,NA,NA,NA,NA
IpcveBma,3uy4pis8ruyxp7v852m6xfad2fzn1g,3xxu1swe8q8sljevrhi3mo3v04za0q,IpcveBma,2020-0188,2021-10-17,08:50:37,10:00:56,NA,incomplete,false,true,NA,5,16,NA,brown,n_s_110.jpg,NA,NA,pleasant,unpleasant,NA,NA,NA,NA,NA,left,2351.89999997616,true,NA,NA,NA,NA,NA
IpcveBma,3uy4pis8ruyxp7v852m6xfad2fzn1g,3xxu1swe8q8sljevrhi3mo3v04za0q,IpcveBma,2020-0188,2021-10-17,08:50:37,10:00:56,NA,incomplete,false,true,NA,5,17,NA,brown,m_l_097.jpg,NA,NA,pleasant,unpleasant,NA,NA,NA,NA,NA,left,1826.90000000596,true,NA,NA,NA,NA,NA
IpcveBma,3uy4pis8ruyxp7v852m6xfad2fzn1g,3xxu1swe8q8sljevrhi3mo3v04za0q,IpcveBma,2020-0188,2021-10-17,08:50:37,10:00:56,NA,incomplete,false,true,NA,5,18,NA,gray,m_l_087.jpg,NA,NA,pleasant,unpleasant,NA,NA,NA,NA,NA,left,1511.70000001788,true,NA,NA,NA,NA,NA
IpcveBma,3uy4pis8ruyxp7v852m6xfad2fzn1g,3xxu1swe8q8sljevrhi3mo3v04za0q,IpcveBma,2020-0188,2021-10-17,08:50:37,10:00:56,NA,incomplete,false,true,NA,5,19,NA,gray,m_l_028.jpg,NA,NA,unpleasant,pleasant,NA,NA,NA,NA,NA,right,1580.29999998212,true,NA,NA,NA,NA,NA
IpcveBma,3uy4pis8ruyxp7v852m6xfad2fzn1g,3xxu1swe8q8sljevrhi3mo3v04za0q,IpcveBma,2020-0188,2021-10-17,08:50:37,10:00:56,NA,incomplete,false,true,NA,5,20,NA,gray,m_s_079.jpg,NA,NA,unpleasant,pleasant,NA,NA,NA,NA,NA,right,1771.20000001788,true,NA,NA,NA,NA,NA
IpcveBma,3uy4pis8ruyxp7v852m6xfad2fzn1g,3xxu1swe8q8sljevrhi3mo3v04za0q,IpcveBma,2020-0188,2021-10-17,08:50:37,10:00:56,NA,incomplete,false,true,NA,5,21,NA,gray,m_l_068.jpg,NA,NA,pleasant,unpleasant,NA,NA,NA,NA,NA,left,1755,true,NA,NA,NA,NA,NA
IpcveBma,3uy4pis8ruyxp7v852m6xfad2fzn1g,3xxu1swe8q8sljevrhi3mo3v04za0q,IpcveBma,2020-0188,2021-10-17,08:50:37,10:00:56,NA,incomplete,false,true,NA,5,22,NA,gray,m_s_086.jpg,NA,NA,unpleasant,pleasant,NA,NA,NA,NA,NA,left,1944.79999998212,true,NA,NA,NA,NA,NA
IpcveBma,3uy4pis8ruyxp7v852m6xfad2fzn1g,3xxu1swe8q8sljevrhi3mo3v04za0q,IpcveBma,2020-0188,2021-10-17,08:50:37,10:00:56,NA,incomplete,false,true,NA,5,23,NA,gray,n_s_084.jpg,NA,NA,pleasant,unpleasant,NA,NA,NA,NA,NA,left,2052.09999999404,true,NA,NA,NA,NA,NA
IpcveBma,3uy4pis8ruyxp7v852m6xfad2fzn1g,3xxu1swe8q8sljevrhi3mo3v04za0q,IpcveBma,2020-0188,2021-10-17,08:50:37,10:00:56,NA,incomplete,false,true,NA,5,24,NA,purple,m_l_009.jpg,NA,NA,pleasant,unpleasant,NA,NA,NA,NA,NA,left,1965.40000000596,true,NA,NA,NA,NA,NA
IpcveBma,3uy4pis8ruyxp7v852m6xfad2fzn1g,3xxu1swe8q8sljevrhi3mo3v04za0q,IpcveBma,2020-0188,2021-10-17,08:50:37,10:00:56,NA,incomplete,false,true,NA,5,25,NA,purple,m_l_051.jpg,NA,NA,pleasant,unpleasant,NA,NA,NA,NA,NA,left,1654.09999999404,true,NA,NA,NA,NA,NA
IpcveBma,3uy4pis8ruyxp7v852m6xfad2fzn1g,3xxu1swe8q8sljevrhi3mo3v04za0q,IpcveBma,2020-0188,2021-10-17,08:50:37,10:00:56,NA,incomplete,false,true,NA,5,26,NA,purple,n_s_106.jpg,NA,NA,unpleasant,pleasant,NA,NA,NA,NA,NA,right,1867.5,true,NA,NA,NA,NA,NA
IpcveBma,3uy4pis8ruyxp7v852m6xfad2fzn1g,3xxu1swe8q8sljevrhi3mo3v04za0q,IpcveBma,2020-0188,2021-10-17,08:50:37,10:00:56,NA,incomplete,false,true,NA,5,27,NA,purple,n_l_001.jpg,NA,NA,pleasant,unpleasant,NA,NA,NA,NA,NA,left,1481.90000000596,true,NA,NA,NA,NA,NA
IpcveBma,3uy4pis8ruyxp7v852m6xfad2fzn1g,3xxu1swe8q8sljevrhi3mo3v04za0q,IpcveBma,2020-0188,2021-10-17,08:50:37,10:00:56,NA,incomplete,false,true,NA,5,28,NA,purple,n_s_112.jpg,NA,NA,pleasant,unpleasant,NA,NA,NA,NA,NA,left,1900.80000001192,true,NA,NA,NA,NA,NA
IpcveBma,3uy4pis8ruyxp7v852m6xfad2fzn1g,3xxu1swe8q8sljevrhi3mo3v04za0q,IpcveBma,2020-0188,2021-10-17,08:50:37,10:00:56,NA,incomplete,false,true,NA,5,29,NA,purple,n_l_098.jpg,NA,NA,unpleasant,pleasant,NA,NA,NA,NA,NA,right,1625.59999999404,true,NA,NA,NA,NA,NA
IpcveBma,3uy4pis8ruyxp7v852m6xfad2fzn1g,3xxu1swe8q8sljevrhi3mo3v04za0q,IpcveBma,2020-0188,2021-10-17,08:50:37,10:00:56,NA,incomplete,false,true,NA,5,30,NA,yellow,m_s_060.jpg,NA,NA,unpleasant,pleasant,NA,NA,NA,NA,NA,right,1886.59999999404,true,NA,NA,NA,NA,NA
IpcveBma,3uy4pis8ruyxp7v852m6xfad2fzn1g,3xxu1swe8q8sljevrhi3mo3v04za0q,IpcveBma,2020-0188,2021-10-17,08:50:37,10:00:56,NA,incomplete,false,true,NA,5,31,NA,yellow,m_l_062.jpg,NA,NA,pleasant,unpleasant,NA,NA,NA,NA,NA,left,1436.19999998808,true,NA,NA,NA,NA,NA
IpcveBma,3uy4pis8ruyxp7v852m6xfad2fzn1g,3xxu1swe8q8sljevrhi3mo3v04za0q,IpcveBma,2020-0188,2021-10-17,08:50:37,10:00:56,NA,incomplete,false,true,NA,5,32,NA,yellow,m_l_055.jpg,NA,NA,unpleasant,pleasant,NA,NA,NA,NA,NA,right,1885,true,NA,NA,NA,NA,NA
IpcveBma,3uy4pis8ruyxp7v852m6xfad2fzn1g,3xxu1swe8q8sljevrhi3mo3v04za0q,IpcveBma,2020-0188,2021-10-17,08:50:37,10:00:56,NA,incomplete,false,true,NA,5,33,NA,yellow,n_s_070.jpg,NA,NA,pleasant,unpleasant,NA,NA,NA,NA,NA,right,2027.30000001192,true,NA,NA,NA,NA,NA
IpcveBma,3uy4pis8ruyxp7v852m6xfad2fzn1g,3xxu1swe8q8sljevrhi3mo3v04za0q,IpcveBma,2020-0188,2021-10-17,08:50:37,10:00:56,NA,incomplete,false,true,NA,5,34,NA,yellow,n_s_088.jpg,NA,NA,unpleasant,pleasant,NA,NA,NA,NA,NA,right,1952.09999999404,true,NA,NA,NA,NA,NA
IpcveBma,3uy4pis8ruyxp7v852m6xfad2fzn1g,3xxu1swe8q8sljevrhi3mo3v04za0q,IpcveBma,2020-0188,2021-10-17,08:50:37,10:00:56,NA,incomplete,false,true,NA,5,35,NA,yellow,m_s_062.jpg,NA,NA,unpleasant,pleasant,NA,NA,NA,NA,NA,right,1649.40000000596,true,NA,NA,NA,NA,NA
IpcveBma,3uy4pis8ruyxp7v852m6xfad2fzn1g,3xxu1swe8q8sljevrhi3mo3v04za0q,IpcveBma,2020-0188,2021-10-17,08:50:37,10:00:56,NA,incomplete,false,NA,true,5,0,NA,NA,NA,left,absent,NA,NA,m_s_115.jpg,red,m_s_007.jpg,red,within,NA,NaN,NA,left,2674.699999988079,1,1,1728.6000000238419
IpcveBma,3uy4pis8ruyxp7v852m6xfad2fzn1g,3xxu1swe8q8sljevrhi3mo3v04za0q,IpcveBma,2020-0188,2021-10-17,08:50:37,10:00:56,NA,incomplete,false,NA,true,5,1,NA,NA,NA,left,absent,NA,NA,m_s_046.jpg,brown,m_l_097.jpg,brown,within,NA,NaN,NA,right,2100.899999976158,0,2,1402.7999999821186
IpcveBma,3uy4pis8ruyxp7v852m6xfad2fzn1g,3xxu1swe8q8sljevrhi3mo3v04za0q,IpcveBma,2020-0188,2021-10-17,08:50:37,10:00:56,NA,incomplete,false,NA,true,5,2,NA,NA,NA,right,absent,NA,NA,m_s_079.jpg,gray,n_s_110.jpg,brown,between,NA,NaN,NA,right,2258.4000000059605,1,2,1411.7000000178814
IpcveBma,3uy4pis8ruyxp7v852m6xfad2fzn1g,3xxu1swe8q8sljevrhi3mo3v04za0q,IpcveBma,2020-0188,2021-10-17,08:50:37,10:00:56,NA,incomplete,false,NA,true,5,3,NA,NA,NA,left,absent,NA,NA,n_s_112.jpg,purple,m_l_055.jpg,yellow,between,NA,NaN,NA,left,2443,1,1,1133.0999999940395
IpcveBma,3uy4pis8ruyxp7v852m6xfad2fzn1g,3xxu1swe8q8sljevrhi3mo3v04za0q,IpcveBma,2020-0188,2021-10-17,08:50:37,10:00:56,NA,incomplete,false,NA,true,5,4,NA,NA,NA,right,absent,NA,NA,m_l_105.jpg,blue,m_s_101.jpg,red,between,NA,NaN,NA,right,2543,1,2,1286.5999999940395
IpcveBma,3uy4pis8ruyxp7v852m6xfad2fzn1g,3xxu1swe8q8sljevrhi3mo3v04za0q,IpcveBma,2020-0188,2021-10-17,08:50:37,10:00:56,NA,incomplete,false,NA,true,5,5,NA,NA,NA,left,absent,NA,NA,n_l_057.jpg,blue,m_l_078.jpg,blue,within,NA,NaN,NA,right,2170,0,1,1202.6000000238419
IpcveBma,3uy4pis8ruyxp7v852m6xfad2fzn1g,3xxu1swe8q8sljevrhi3mo3v04za0q,IpcveBma,2020-0188,2021-10-17,08:50:37,10:00:56,NA,incomplete,false,NA,true,5,6,NA,NA,NA,right,absent,NA,NA,m_s_062.jpg,yellow,m_l_062.jpg,yellow,within,NA,NaN,NA,right,1783.699999988079,1,1,3474.9000000059605
IpcveBma,3uy4pis8ruyxp7v852m6xfad2fzn1g,3xxu1swe8q8sljevrhi3mo3v04za0q,IpcveBma,2020-0188,2021-10-17,08:50:37,10:00:56,NA,incomplete,false,NA,true,5,7,NA,NA,NA,right,absent,NA,NA,n_l_052.jpg,brown,m_s_087.jpg,blue,between,NA,NaN,NA,left,2691.300000011921,0,2,1953.1000000238419
IpcveBma,3uy4pis8ruyxp7v852m6xfad2fzn1g,3xxu1swe8q8sljevrhi3mo3v04za0q,IpcveBma,2020-0188,2021-10-17,08:50:37,10:00:56,NA,incomplete,false,NA,true,5,8,NA,NA,NA,left,absent,NA,NA,m_l_028.jpg,gray,n_s_084.jpg,gray,within,NA,NaN,NA,left,3016.5,1,3,1053.199999988079
IpcveBma,3uy4pis8ruyxp7v852m6xfad2fzn1g,3xxu1swe8q8sljevrhi3mo3v04za0q,IpcveBma,2020-0188,2021-10-17,08:50:37,10:00:56,NA,incomplete,false,NA,true,5,9,NA,NA,NA,right,absent,NA,NA,n_s_106.jpg,purple,m_s_086.jpg,gray,between,NA,NaN,NA,right,6119.600000023842,1,1,1721.199999988079
IpcveBma,3uy4pis8ruyxp7v852m6xfad2fzn1g,3xxu1swe8q8sljevrhi3mo3v04za0q,IpcveBma,2020-0188,2021-10-17,08:50:37,10:00:56,NA,incomplete,false,NA,true,5,10,NA,NA,NA,left,absent,NA,NA,m_l_051.jpg,purple,n_l_098.jpg,purple,within,NA,NaN,NA,right,3356.800000011921,0,1,1017.5999999940395
IpcveBma,3uy4pis8ruyxp7v852m6xfad2fzn1g,3xxu1swe8q8sljevrhi3mo3v04za0q,IpcveBma,2020-0188,2021-10-17,08:50:37,10:00:56,NA,incomplete,false,true,NA,6,0,NA,blue,n_l_055.jpg,NA,NA,pleasant,unpleasant,NA,NA,NA,NA,NA,left,2392,true,NA,NA,NA,NA,NA
IpcveBma,3uy4pis8ruyxp7v852m6xfad2fzn1g,3xxu1swe8q8sljevrhi3mo3v04za0q,IpcveBma,2020-0188,2021-10-17,08:50:37,10:00:56,NA,incomplete,false,true,NA,6,1,NA,blue,m_s_117.jpg,NA,NA,pleasant,unpleasant,NA,NA,NA,NA,NA,left,1128.5,true,NA,NA,NA,NA,NA
IpcveBma,3uy4pis8ruyxp7v852m6xfad2fzn1g,3xxu1swe8q8sljevrhi3mo3v04za0q,IpcveBma,2020-0188,2021-10-17,08:50:37,10:00:56,NA,incomplete,false,true,NA,6,2,NA,blue,n_l_006.jpg,NA,NA,pleasant,unpleasant,NA,NA,NA,NA,NA,left,909.300000011921,true,NA,NA,NA,NA,NA
IpcveBma,3uy4pis8ruyxp7v852m6xfad2fzn1g,3xxu1swe8q8sljevrhi3mo3v04za0q,IpcveBma,2020-0188,2021-10-17,08:50:37,10:00:56,NA,incomplete,false,true,NA,6,3,NA,blue,n_s_104.jpg,NA,NA,unpleasant,pleasant,NA,NA,NA,NA,NA,right,1321.40000000596,true,NA,NA,NA,NA,NA
IpcveBma,3uy4pis8ruyxp7v852m6xfad2fzn1g,3xxu1swe8q8sljevrhi3mo3v04za0q,IpcveBma,2020-0188,2021-10-17,08:50:37,10:00:56,NA,incomplete,false,true,NA,6,4,NA,blue,n_l_078.jpg,NA,NA,unpleasant,pleasant,NA,NA,NA,NA,NA,right,1240.19999998808,true,NA,NA,NA,NA,NA
IpcveBma,3uy4pis8ruyxp7v852m6xfad2fzn1g,3xxu1swe8q8sljevrhi3mo3v04za0q,IpcveBma,2020-0188,2021-10-17,08:50:37,10:00:56,NA,incomplete,false,true,NA,6,5,NA,blue,n_s_072.jpg,NA,NA,unpleasant,pleasant,NA,NA,NA,NA,NA,right,1179.70000001788,true,NA,NA,NA,NA,NA
IpcveBma,3uy4pis8ruyxp7v852m6xfad2fzn1g,3xxu1swe8q8sljevrhi3mo3v04za0q,IpcveBma,2020-0188,2021-10-17,08:50:37,10:00:56,NA,incomplete,false,true,NA,6,6,NA,purple,n_s_078.jpg,NA,NA,pleasant,unpleasant,NA,NA,NA,NA,NA,right,1973.40000000596,true,NA,NA,NA,NA,NA
IpcveBma,3uy4pis8ruyxp7v852m6xfad2fzn1g,3xxu1swe8q8sljevrhi3mo3v04za0q,IpcveBma,2020-0188,2021-10-17,08:50:37,10:00:56,NA,incomplete,false,true,NA,6,7,NA,purple,n_s_023.jpg,NA,NA,pleasant,unpleasant,NA,NA,NA,NA,NA,left,995.59999999404,true,NA,NA,NA,NA,NA
IpcveBma,3uy4pis8ruyxp7v852m6xfad2fzn1g,3xxu1swe8q8sljevrhi3mo3v04za0q,IpcveBma,2020-0188,2021-10-17,08:50:37,10:00:56,NA,incomplete,false,true,NA,6,8,NA,purple,m_s_106.jpg,NA,NA,pleasant,unpleasant,NA,NA,NA,NA,NA,left,1597.69999998808,true,NA,NA,NA,NA,NA
IpcveBma,3uy4pis8ruyxp7v852m6xfad2fzn1g,3xxu1swe8q8sljevrhi3mo3v04za0q,IpcveBma,2020-0188,2021-10-17,08:50:37,10:00:56,NA,incomplete,false,true,NA,6,9,NA,purple,n_s_012.jpg,NA,NA,unpleasant,pleasant,NA,NA,NA,NA,NA,right,1342.40000000596,true,NA,NA,NA,NA,NA
IpcveBma,3uy4pis8ruyxp7v852m6xfad2fzn1g,3xxu1swe8q8sljevrhi3mo3v04za0q,IpcveBma,2020-0188,2021-10-17,08:50:37,10:00:56,NA,incomplete,false,true,NA,6,10,NA,purple,n_l_102.jpg,NA,NA,unpleasant,pleasant,NA,NA,NA,NA,NA,right,1557.59999999404,true,NA,NA,NA,NA,NA
IpcveBma,3uy4pis8ruyxp7v852m6xfad2fzn1g,3xxu1swe8q8sljevrhi3mo3v04za0q,IpcveBma,2020-0188,2021-10-17,08:50:37,10:00:56,NA,incomplete,false,true,NA,6,11,NA,purple,n_l_024.jpg,NA,NA,pleasant,unpleasant,NA,NA,NA,NA,NA,left,1901.19999998808,true,NA,NA,NA,NA,NA
IpcveBma,3uy4pis8ruyxp7v852m6xfad2fzn1g,3xxu1swe8q8sljevrhi3mo3v04za0q,IpcveBma,2020-0188,2021-10-17,08:50:37,10:00:56,NA,incomplete,false,true,NA,6,12,NA,red,m_l_086.jpg,NA,NA,pleasant,unpleasant,NA,NA,NA,NA,NA,left,986.699999988079,true,NA,NA,NA,NA,NA
IpcveBma,3uy4pis8ruyxp7v852m6xfad2fzn1g,3xxu1swe8q8sljevrhi3mo3v04za0q,IpcveBma,2020-0188,2021-10-17,08:50:37,10:00:56,NA,incomplete,false,true,NA,6,13,NA,red,m_l_117.jpg,NA,NA,unpleasant,pleasant,NA,NA,NA,NA,NA,right,1451.39999997616,true,NA,NA,NA,NA,NA
IpcveBma,3uy4pis8ruyxp7v852m6xfad2fzn1g,3xxu1swe8q8sljevrhi3mo3v04za0q,IpcveBma,2020-0188,2021-10-17,08:50:37,10:00:56,NA,incomplete,false,true,NA,6,14,NA,red,m_s_011.jpg,NA,NA,unpleasant,pleasant,NA,NA,NA,NA,NA,right,1987.59999999404,true,NA,NA,NA,NA,NA
IpcveBma,3uy4pis8ruyxp7v852m6xfad2fzn1g,3xxu1swe8q8sljevrhi3mo3v04za0q,IpcveBma,2020-0188,2021-10-17,08:50:37,10:00:56,NA,incomplete,false,true,NA,6,15,NA,red,n_l_028.jpg,NA,NA,unpleasant,pleasant,NA,NA,NA,NA,NA,right,1170.20000001788,true,NA,NA,NA,NA,NA
IpcveBma,3uy4pis8ruyxp7v852m6xfad2fzn1g,3xxu1swe8q8sljevrhi3mo3v04za0q,IpcveBma,2020-0188,2021-10-17,08:50:37,10:00:56,NA,incomplete,false,true,NA,6,16,NA,red,n_s_048.jpg,NA,NA,pleasant,unpleasant,NA,NA,NA,NA,NA,right,2128.90000000596,true,NA,NA,NA,NA,NA
IpcveBma,3uy4pis8ruyxp7v852m6xfad2fzn1g,3xxu1swe8q8sljevrhi3mo3v04za0q,IpcveBma,2020-0188,2021-10-17,08:50:37,10:00:56,NA,incomplete,false,true,NA,6,17,NA,red,n_s_086.jpg,NA,NA,pleasant,unpleasant,NA,NA,NA,NA,NA,left,2072.80000001192,true,NA,NA,NA,NA,NA
IpcveBma,3uy4pis8ruyxp7v852m6xfad2fzn1g,3xxu1swe8q8sljevrhi3mo3v04za0q,IpcveBma,2020-0188,2021-10-17,08:50:37,10:00:56,NA,incomplete,false,true,NA,6,18,NA,white,m_l_077.jpg,NA,NA,pleasant,unpleasant,NA,NA,NA,NA,NA,left,1597,true,NA,NA,NA,NA,NA
IpcveBma,3uy4pis8ruyxp7v852m6xfad2fzn1g,3xxu1swe8q8sljevrhi3mo3v04za0q,IpcveBma,2020-0188,2021-10-17,08:50:37,10:00:56,NA,incomplete,false,true,NA,6,19,NA,white,m_s_104.jpg,NA,NA,unpleasant,pleasant,NA,NA,NA,NA,NA,right,1197.09999999404,true,NA,NA,NA,NA,NA
IpcveBma,3uy4pis8ruyxp7v852m6xfad2fzn1g,3xxu1swe8q8sljevrhi3mo3v04za0q,IpcveBma,2020-0188,2021-10-17,08:50:37,10:00:56,NA,incomplete,false,true,NA,6,20,NA,white,n_s_053.jpg,NA,NA,unpleasant,pleasant,NA,NA,NA,NA,NA,right,1527.70000001788,true,NA,NA,NA,NA,NA
IpcveBma,3uy4pis8ruyxp7v852m6xfad2fzn1g,3xxu1swe8q8sljevrhi3mo3v04za0q,IpcveBma,2020-0188,2021-10-17,08:50:37,10:00:56,NA,incomplete,false,true,NA,6,21,NA,white,n_s_066.jpg,NA,NA,unpleasant,pleasant,NA,NA,NA,NA,NA,right,1282.80000001192,true,NA,NA,NA,NA,NA
IpcveBma,3uy4pis8ruyxp7v852m6xfad2fzn1g,3xxu1swe8q8sljevrhi3mo3v04za0q,IpcveBma,2020-0188,2021-10-17,08:50:37,10:00:56,NA,incomplete,false,true,NA,6,22,NA,white,m_l_023.jpg,NA,NA,unpleasant,pleasant,NA,NA,NA,NA,NA,right,1294,true,NA,NA,NA,NA,NA
IpcveBma,3uy4pis8ruyxp7v852m6xfad2fzn1g,3xxu1swe8q8sljevrhi3mo3v04za0q,IpcveBma,2020-0188,2021-10-17,08:50:37,10:00:56,NA,incomplete,false,true,NA,6,23,NA,white,m_l_019.jpg,NA,NA,pleasant,unpleasant,NA,NA,NA,NA,NA,left,1317.69999998808,true,NA,NA,NA,NA,NA
IpcveBma,3uy4pis8ruyxp7v852m6xfad2fzn1g,3xxu1swe8q8sljevrhi3mo3v04za0q,IpcveBma,2020-0188,2021-10-17,08:50:37,10:00:56,NA,incomplete,false,true,NA,6,24,NA,black,m_l_109.jpg,NA,NA,unpleasant,pleasant,NA,NA,NA,NA,NA,right,1031.30000001192,true,NA,NA,NA,NA,NA
IpcveBma,3uy4pis8ruyxp7v852m6xfad2fzn1g,3xxu1swe8q8sljevrhi3mo3v04za0q,IpcveBma,2020-0188,2021-10-17,08:50:37,10:00:56,NA,incomplete,false,true,NA,6,25,NA,black,m_l_053.jpg,NA,NA,pleasant,unpleasant,NA,NA,NA,NA,NA,left,1363.30000001192,true,NA,NA,NA,NA,NA
IpcveBma,3uy4pis8ruyxp7v852m6xfad2fzn1g,3xxu1swe8q8sljevrhi3mo3v04za0q,IpcveBma,2020-0188,2021-10-17,08:50:37,10:00:56,NA,incomplete,false,true,NA,6,26,NA,black,m_l_088.jpg,NA,NA,unpleasant,pleasant,NA,NA,NA,NA,NA,right,1166.5,true,NA,NA,NA,NA,NA
IpcveBma,3uy4pis8ruyxp7v852m6xfad2fzn1g,3xxu1swe8q8sljevrhi3mo3v04za0q,IpcveBma,2020-0188,2021-10-17,08:50:37,10:00:56,NA,incomplete,false,true,NA,6,27,NA,black,m_s_114.jpg,NA,NA,unpleasant,pleasant,NA,NA,NA,NA,NA,right,1215.70000001788,true,NA,NA,NA,NA,NA
IpcveBma,3uy4pis8ruyxp7v852m6xfad2fzn1g,3xxu1swe8q8sljevrhi3mo3v04za0q,IpcveBma,2020-0188,2021-10-17,08:50:37,10:00:56,NA,incomplete,false,true,NA,6,28,NA,black,m_s_037.jpg,NA,NA,unpleasant,pleasant,NA,NA,NA,NA,NA,right,1065.69999998808,true,NA,NA,NA,NA,NA
IpcveBma,3uy4pis8ruyxp7v852m6xfad2fzn1g,3xxu1swe8q8sljevrhi3mo3v04za0q,IpcveBma,2020-0188,2021-10-17,08:50:37,10:00:56,NA,incomplete,false,true,NA,6,29,NA,black,n_s_027.jpg,NA,NA,pleasant,unpleasant,NA,NA,NA,NA,NA,right,1272,true,NA,NA,NA,NA,NA
IpcveBma,3uy4pis8ruyxp7v852m6xfad2fzn1g,3xxu1swe8q8sljevrhi3mo3v04za0q,IpcveBma,2020-0188,2021-10-17,08:50:37,10:00:56,NA,incomplete,false,true,NA,6,30,NA,yellow,m_s_014.jpg,NA,NA,unpleasant,pleasant,NA,NA,NA,NA,NA,right,1142.59999999404,true,NA,NA,NA,NA,NA
IpcveBma,3uy4pis8ruyxp7v852m6xfad2fzn1g,3xxu1swe8q8sljevrhi3mo3v04za0q,IpcveBma,2020-0188,2021-10-17,08:50:37,10:00:56,NA,incomplete,false,true,NA,6,31,NA,yellow,m_l_024.jpg,NA,NA,pleasant,unpleasant,NA,NA,NA,NA,NA,left,1487.5,true,NA,NA,NA,NA,NA
IpcveBma,3uy4pis8ruyxp7v852m6xfad2fzn1g,3xxu1swe8q8sljevrhi3mo3v04za0q,IpcveBma,2020-0188,2021-10-17,08:50:37,10:00:56,NA,incomplete,false,true,NA,6,32,NA,yellow,m_s_100.jpg,NA,NA,unpleasant,pleasant,NA,NA,NA,NA,NA,right,1066,true,NA,NA,NA,NA,NA
IpcveBma,3uy4pis8ruyxp7v852m6xfad2fzn1g,3xxu1swe8q8sljevrhi3mo3v04za0q,IpcveBma,2020-0188,2021-10-17,08:50:37,10:00:56,NA,incomplete,false,true,NA,6,33,NA,yellow,n_l_045.jpg,NA,NA,pleasant,unpleasant,NA,NA,NA,NA,NA,left,1180.19999998808,true,NA,NA,NA,NA,NA
IpcveBma,3uy4pis8ruyxp7v852m6xfad2fzn1g,3xxu1swe8q8sljevrhi3mo3v04za0q,IpcveBma,2020-0188,2021-10-17,08:50:37,10:00:56,NA,incomplete,false,true,NA,6,34,NA,yellow,n_l_037.jpg,NA,NA,unpleasant,pleasant,NA,NA,NA,NA,NA,left,1762.70000001788,true,NA,NA,NA,NA,NA
IpcveBma,3uy4pis8ruyxp7v852m6xfad2fzn1g,3xxu1swe8q8sljevrhi3mo3v04za0q,IpcveBma,2020-0188,2021-10-17,08:50:37,10:00:56,NA,incomplete,false,true,NA,6,35,NA,yellow,n_l_088.jpg,NA,NA,unpleasant,pleasant,NA,NA,NA,NA,NA,right,1401.40000000596,true,NA,NA,NA,NA,NA
IpcveBma,3uy4pis8ruyxp7v852m6xfad2fzn1g,3xxu1swe8q8sljevrhi3mo3v04za0q,IpcveBma,2020-0188,2021-10-17,08:50:37,10:00:56,NA,incomplete,false,NA,true,6,0,NA,NA,NA,right,present,NA,NA,n_s_053.jpg,white,n_s_048.jpg,red,between,NA,NaN,NA,right,4667.199999988079,1,1,1563
IpcveBma,3uy4pis8ruyxp7v852m6xfad2fzn1g,3xxu1swe8q8sljevrhi3mo3v04za0q,IpcveBma,2020-0188,2021-10-17,08:50:37,10:00:56,NA,incomplete,false,NA,true,6,1,NA,NA,NA,right,present,NA,NA,m_l_088.jpg,black,m_l_023.jpg,white,between,NA,NaN,NA,left,5186.0999999940395,0,2,951.4000000059605
IpcveBma,3uy4pis8ruyxp7v852m6xfad2fzn1g,3xxu1swe8q8sljevrhi3mo3v04za0q,IpcveBma,2020-0188,2021-10-17,08:50:37,10:00:56,NA,incomplete,false,NA,true,6,2,NA,NA,NA,right,present,NA,NA,n_s_027.jpg,black,m_l_053.jpg,black,within,NA,NaN,NA,left,4707.300000011921,0,0,1162.0999999940395
IpcveBma,3uy4pis8ruyxp7v852m6xfad2fzn1g,3xxu1swe8q8sljevrhi3mo3v04za0q,IpcveBma,2020-0188,2021-10-17,08:50:37,10:00:56,NA,incomplete,false,NA,true,6,3,NA,NA,NA,right,present,NA,NA,n_l_088.jpg,yellow,m_l_024.jpg,yellow,within,NA,NaN,NA,right,1711.9000000059605,1,1,1672.9000000059605
IpcveBma,3uy4pis8ruyxp7v852m6xfad2fzn1g,3xxu1swe8q8sljevrhi3mo3v04za0q,IpcveBma,2020-0188,2021-10-17,08:50:37,10:00:56,NA,incomplete,false,NA,true,6,4,NA,NA,NA,left,present,NA,NA,n_l_102.jpg,purple,m_s_011.jpg,red,between,NA,NaN,NA,right,4596.800000011921,0,2,2132.5999999940395
IpcveBma,3uy4pis8ruyxp7v852m6xfad2fzn1g,3xxu1swe8q8sljevrhi3mo3v04za0q,IpcveBma,2020-0188,2021-10-17,08:50:37,10:00:56,NA,incomplete,false,NA,true,6,5,NA,NA,NA,left,present,NA,NA,m_l_117.jpg,red,n_s_086.jpg,red,within,NA,NaN,NA,left,3341.5,1,1,1109
IpcveBma,3uy4pis8ruyxp7v852m6xfad2fzn1g,3xxu1swe8q8sljevrhi3mo3v04za0q,IpcveBma,2020-0188,2021-10-17,08:50:37,10:00:56,NA,incomplete,false,NA,true,6,6,NA,NA,NA,right,present,NA,NA,m_s_106.jpg,purple,n_l_078.jpg,blue,between,NA,NaN,NA,right,2255.5,1,2,1154.7999999821186
IpcveBma,3uy4pis8ruyxp7v852m6xfad2fzn1g,3xxu1swe8q8sljevrhi3mo3v04za0q,IpcveBma,2020-0188,2021-10-17,08:50:37,10:00:56,NA,incomplete,false,NA,true,6,7,NA,NA,NA,left,present,NA,NA,m_s_104.jpg,white,m_l_019.jpg,white,within,NA,NaN,NA,right,5156.9000000059605,0,1,1317.5
IpcveBma,3uy4pis8ruyxp7v852m6xfad2fzn1g,3xxu1swe8q8sljevrhi3mo3v04za0q,IpcveBma,2020-0188,2021-10-17,08:50:37,10:00:56,NA,incomplete,false,NA,true,6,8,NA,NA,NA,right,present,NA,NA,n_l_024.jpg,purple,n_s_023.jpg,purple,within,NA,NaN,NA,right,2038.4000000059605,1,1,1263
IpcveBma,3uy4pis8ruyxp7v852m6xfad2fzn1g,3xxu1swe8q8sljevrhi3mo3v04za0q,IpcveBma,2020-0188,2021-10-17,08:50:37,10:00:56,NA,incomplete,false,NA,true,6,9,NA,NA,NA,left,present,NA,NA,m_s_037.jpg,black,m_s_100.jpg,yellow,between,NA,NaN,NA,left,2636.5,1,2,1055.0999999940395
IpcveBma,3uy4pis8ruyxp7v852m6xfad2fzn1g,3xxu1swe8q8sljevrhi3mo3v04za0q,IpcveBma,2020-0188,2021-10-17,08:50:37,10:00:56,NA,incomplete,false,NA,true,6,10,NA,NA,NA,right,present,NA,NA,n_s_072.jpg,blue,m_s_117.jpg,blue,within,NA,NaN,NA,right,1806.7000000178814,1,0,1464.6000000238419
IpcveBma,3uy4pis8ruyxp7v852m6xfad2fzn1g,3xxu1swe8q8sljevrhi3mo3v04za0q,IpcveBma,2020-0188,2021-10-17,08:50:37,10:00:56,NA,incomplete,false,true,NA,7,0,NA,green,n_s_034.jpg,NA,NA,unpleasant,pleasant,NA,NA,NA,NA,NA,right,1436.09999999404,true,NA,NA,NA,NA,NA
IpcveBma,3uy4pis8ruyxp7v852m6xfad2fzn1g,3xxu1swe8q8sljevrhi3mo3v04za0q,IpcveBma,2020-0188,2021-10-17,08:50:37,10:00:56,NA,incomplete,false,true,NA,7,1,NA,green,m_s_064.jpg,NA,NA,unpleasant,pleasant,NA,NA,NA,NA,NA,right,1619.79999998212,true,NA,NA,NA,NA,NA
IpcveBma,3uy4pis8ruyxp7v852m6xfad2fzn1g,3xxu1swe8q8sljevrhi3mo3v04za0q,IpcveBma,2020-0188,2021-10-17,08:50:37,10:00:56,NA,incomplete,false,true,NA,7,2,NA,green,n_s_101.jpg,NA,NA,pleasant,unpleasant,NA,NA,NA,NA,NA,right,1253.70000001788,true,NA,NA,NA,NA,NA
IpcveBma,3uy4pis8ruyxp7v852m6xfad2fzn1g,3xxu1swe8q8sljevrhi3mo3v04za0q,IpcveBma,2020-0188,2021-10-17,08:50:37,10:00:56,NA,incomplete,false,true,NA,7,3,NA,green,m_s_113.jpg,NA,NA,pleasant,unpleasant,NA,NA,NA,NA,NA,left,1758.09999999404,true,NA,NA,NA,NA,NA
IpcveBma,3uy4pis8ruyxp7v852m6xfad2fzn1g,3xxu1swe8q8sljevrhi3mo3v04za0q,IpcveBma,2020-0188,2021-10-17,08:50:37,10:00:56,NA,incomplete,false,true,NA,7,4,NA,green,n_l_049.jpg,NA,NA,unpleasant,pleasant,NA,NA,NA,NA,NA,right,1725.69999998808,true,NA,NA,NA,NA,NA
IpcveBma,3uy4pis8ruyxp7v852m6xfad2fzn1g,3xxu1swe8q8sljevrhi3mo3v04za0q,IpcveBma,2020-0188,2021-10-17,08:50:37,10:00:56,NA,incomplete,false,true,NA,7,5,NA,green,m_l_052.jpg,NA,NA,unpleasant,pleasant,NA,NA,NA,NA,NA,right,1802.80000001192,true,NA,NA,NA,NA,NA
IpcveBma,3uy4pis8ruyxp7v852m6xfad2fzn1g,3xxu1swe8q8sljevrhi3mo3v04za0q,IpcveBma,2020-0188,2021-10-17,08:50:37,10:00:56,NA,incomplete,false,true,NA,7,6,NA,yellow,m_s_099.jpg,NA,NA,pleasant,unpleasant,NA,NA,NA,NA,NA,left,1978.40000000596,true,NA,NA,NA,NA,NA
IpcveBma,3uy4pis8ruyxp7v852m6xfad2fzn1g,3xxu1swe8q8sljevrhi3mo3v04za0q,IpcveBma,2020-0188,2021-10-17,08:50:37,10:00:56,NA,incomplete,false,true,NA,7,7,NA,yellow,m_l_091.jpg,NA,NA,pleasant,unpleasant,NA,NA,NA,NA,NA,left,1848.10000002384,true,NA,NA,NA,NA,NA
IpcveBma,3uy4pis8ruyxp7v852m6xfad2fzn1g,3xxu1swe8q8sljevrhi3mo3v04za0q,IpcveBma,2020-0188,2021-10-17,08:50:37,10:00:56,NA,incomplete,false,true,NA,7,8,NA,yellow,n_s_020.jpg,NA,NA,pleasant,unpleasant,NA,NA,NA,NA,NA,left,1679.09999999404,true,NA,NA,NA,NA,NA
IpcveBma,3uy4pis8ruyxp7v852m6xfad2fzn1g,3xxu1swe8q8sljevrhi3mo3v04za0q,IpcveBma,2020-0188,2021-10-17,08:50:37,10:00:56,NA,incomplete,false,true,NA,7,9,NA,yellow,m_l_054.jpg,NA,NA,unpleasant,pleasant,NA,NA,NA,NA,NA,right,1268.89999997616,true,NA,NA,NA,NA,NA
IpcveBma,3uy4pis8ruyxp7v852m6xfad2fzn1g,3xxu1swe8q8sljevrhi3mo3v04za0q,IpcveBma,2020-0188,2021-10-17,08:50:37,10:00:56,NA,incomplete,false,true,NA,7,10,NA,yellow,n_s_102.jpg,NA,NA,unpleasant,pleasant,NA,NA,NA,NA,NA,right,972.799999982119,true,NA,NA,NA,NA,NA
IpcveBma,3uy4pis8ruyxp7v852m6xfad2fzn1g,3xxu1swe8q8sljevrhi3mo3v04za0q,IpcveBma,2020-0188,2021-10-17,08:50:37,10:00:56,NA,incomplete,false,true,NA,7,11,NA,yellow,m_s_049.jpg,NA,NA,pleasant,unpleasant,NA,NA,NA,NA,NA,left,1362,true,NA,NA,NA,NA,NA
IpcveBma,3uy4pis8ruyxp7v852m6xfad2fzn1g,3xxu1swe8q8sljevrhi3mo3v04za0q,IpcveBma,2020-0188,2021-10-17,08:50:37,10:00:56,NA,incomplete,false,true,NA,7,12,NA,gray,m_s_036.jpg,NA,NA,pleasant,unpleasant,NA,NA,NA,NA,NA,left,1524.80000001192,true,NA,NA,NA,NA,NA
IpcveBma,3uy4pis8ruyxp7v852m6xfad2fzn1g,3xxu1swe8q8sljevrhi3mo3v04za0q,IpcveBma,2020-0188,2021-10-17,08:50:37,10:00:56,NA,incomplete,false,true,NA,7,13,NA,gray,m_l_098.jpg,NA,NA,pleasant,unpleasant,NA,NA,NA,NA,NA,left,1269.60000002384,true,NA,NA,NA,NA,NA
IpcveBma,3uy4pis8ruyxp7v852m6xfad2fzn1g,3xxu1swe8q8sljevrhi3mo3v04za0q,IpcveBma,2020-0188,2021-10-17,08:50:37,10:00:56,NA,incomplete,false,true,NA,7,14,NA,gray,m_l_012.jpg,NA,NA,pleasant,unpleasant,NA,NA,NA,NA,NA,left,1513.40000000596,true,NA,NA,NA,NA,NA
IpcveBma,3uy4pis8ruyxp7v852m6xfad2fzn1g,3xxu1swe8q8sljevrhi3mo3v04za0q,IpcveBma,2020-0188,2021-10-17,08:50:37,10:00:56,NA,incomplete,false,true,NA,7,15,NA,gray,n_l_069.jpg,NA,NA,unpleasant,pleasant,NA,NA,NA,NA,NA,right,1473,true,NA,NA,NA,NA,NA
IpcveBma,3uy4pis8ruyxp7v852m6xfad2fzn1g,3xxu1swe8q8sljevrhi3mo3v04za0q,IpcveBma,2020-0188,2021-10-17,08:50:37,10:00:56,NA,incomplete,false,true,NA,7,16,NA,gray,n_s_018.jpg,NA,NA,unpleasant,pleasant,NA,NA,NA,NA,NA,right,2073.30000001192,true,NA,NA,NA,NA,NA
IpcveBma,3uy4pis8ruyxp7v852m6xfad2fzn1g,3xxu1swe8q8sljevrhi3mo3v04za0q,IpcveBma,2020-0188,2021-10-17,08:50:37,10:00:56,NA,incomplete,false,true,NA,7,17,NA,gray,n_s_061.jpg,NA,NA,pleasant,unpleasant,NA,NA,NA,NA,NA,left,1509.20000001788,true,NA,NA,NA,NA,NA
IpcveBma,3uy4pis8ruyxp7v852m6xfad2fzn1g,3xxu1swe8q8sljevrhi3mo3v04za0q,IpcveBma,2020-0188,2021-10-17,08:50:37,10:00:56,NA,incomplete,false,true,NA,7,18,NA,red,n_s_090.jpg,NA,NA,pleasant,unpleasant,NA,NA,NA,NA,NA,left,2025.30000001192,true,NA,NA,NA,NA,NA
IpcveBma,3uy4pis8ruyxp7v852m6xfad2fzn1g,3xxu1swe8q8sljevrhi3mo3v04za0q,IpcveBma,2020-0188,2021-10-17,08:50:37,10:00:56,NA,incomplete,false,true,NA,7,19,NA,red,n_l_065.jpg,NA,NA,unpleasant,pleasant,NA,NA,NA,NA,NA,right,1557.10000002384,true,NA,NA,NA,NA,NA
IpcveBma,3uy4pis8ruyxp7v852m6xfad2fzn1g,3xxu1swe8q8sljevrhi3mo3v04za0q,IpcveBma,2020-0188,2021-10-17,08:50:37,10:00:56,NA,incomplete,false,true,NA,7,20,NA,red,m_l_001.jpg,NA,NA,pleasant,unpleasant,NA,NA,NA,NA,NA,left,1932.90000000596,true,NA,NA,NA,NA,NA
IpcveBma,3uy4pis8ruyxp7v852m6xfad2fzn1g,3xxu1swe8q8sljevrhi3mo3v04za0q,IpcveBma,2020-0188,2021-10-17,08:50:37,10:00:56,NA,incomplete,false,true,NA,7,21,NA,red,n_l_011.jpg,NA,NA,pleasant,unpleasant,NA,NA,NA,NA,NA,left,1134,true,NA,NA,NA,NA,NA
IpcveBma,3uy4pis8ruyxp7v852m6xfad2fzn1g,3xxu1swe8q8sljevrhi3mo3v04za0q,IpcveBma,2020-0188,2021-10-17,08:50:37,10:00:56,NA,incomplete,false,true,NA,7,22,NA,red,n_s_069.jpg,NA,NA,unpleasant,pleasant,NA,NA,NA,NA,NA,right,1597.59999999404,true,NA,NA,NA,NA,NA
IpcveBma,3uy4pis8ruyxp7v852m6xfad2fzn1g,3xxu1swe8q8sljevrhi3mo3v04za0q,IpcveBma,2020-0188,2021-10-17,08:50:37,10:00:56,NA,incomplete,false,true,NA,7,23,NA,red,m_l_106.jpg,NA,NA,unpleasant,pleasant,NA,NA,NA,NA,NA,right,1123.10000002384,true,NA,NA,NA,NA,NA
IpcveBma,3uy4pis8ruyxp7v852m6xfad2fzn1g,3xxu1swe8q8sljevrhi3mo3v04za0q,IpcveBma,2020-0188,2021-10-17,08:50:37,10:00:56,NA,incomplete,false,true,NA,7,24,NA,black,n_l_033.jpg,NA,NA,unpleasant,pleasant,NA,NA,NA,NA,NA,left,1330.40000000596,true,NA,NA,NA,NA,NA
IpcveBma,3uy4pis8ruyxp7v852m6xfad2fzn1g,3xxu1swe8q8sljevrhi3mo3v04za0q,IpcveBma,2020-0188,2021-10-17,08:50:37,10:00:56,NA,incomplete,false,true,NA,7,25,NA,black,n_l_021.jpg,NA,NA,pleasant,unpleasant,NA,NA,NA,NA,NA,left,1281.89999997616,true,NA,NA,NA,NA,NA
IpcveBma,3uy4pis8ruyxp7v852m6xfad2fzn1g,3xxu1swe8q8sljevrhi3mo3v04za0q,IpcveBma,2020-0188,2021-10-17,08:50:37,10:00:56,NA,incomplete,false,true,NA,7,26,NA,black,m_s_040.jpg,NA,NA,pleasant,unpleasant,NA,NA,NA,NA,NA,left,1732,true,NA,NA,NA,NA,NA
IpcveBma,3uy4pis8ruyxp7v852m6xfad2fzn1g,3xxu1swe8q8sljevrhi3mo3v04za0q,IpcveBma,2020-0188,2021-10-17,08:50:37,10:00:56,NA,incomplete,false,true,NA,7,27,NA,black,m_s_072.jpg,NA,NA,unpleasant,pleasant,NA,NA,NA,NA,NA,right,1467.10000002384,true,NA,NA,NA,NA,NA
IpcveBma,3uy4pis8ruyxp7v852m6xfad2fzn1g,3xxu1swe8q8sljevrhi3mo3v04za0q,IpcveBma,2020-0188,2021-10-17,08:50:37,10:00:56,NA,incomplete,false,true,NA,7,28,NA,black,n_l_114.jpg,NA,NA,unpleasant,pleasant,NA,NA,NA,NA,NA,left,2529.80000001192,true,NA,NA,NA,NA,NA
IpcveBma,3uy4pis8ruyxp7v852m6xfad2fzn1g,3xxu1swe8q8sljevrhi3mo3v04za0q,IpcveBma,2020-0188,2021-10-17,08:50:37,10:00:56,NA,incomplete,false,true,NA,7,29,NA,black,n_s_014.jpg,NA,NA,pleasant,unpleasant,NA,NA,NA,NA,NA,left,1795.5,true,NA,NA,NA,NA,NA
IpcveBma,3uy4pis8ruyxp7v852m6xfad2fzn1g,3xxu1swe8q8sljevrhi3mo3v04za0q,IpcveBma,2020-0188,2021-10-17,08:50:37,10:00:56,NA,incomplete,false,true,NA,7,30,NA,orange,m_l_032.jpg,NA,NA,unpleasant,pleasant,NA,NA,NA,NA,NA,right,1083.5,true,NA,NA,NA,NA,NA
IpcveBma,3uy4pis8ruyxp7v852m6xfad2fzn1g,3xxu1swe8q8sljevrhi3mo3v04za0q,IpcveBma,2020-0188,2021-10-17,08:50:37,10:00:56,NA,incomplete,false,true,NA,7,31,NA,orange,n_s_111.jpg,NA,NA,unpleasant,pleasant,NA,NA,NA,NA,NA,left,1736.69999998808,true,NA,NA,NA,NA,NA
IpcveBma,3uy4pis8ruyxp7v852m6xfad2fzn1g,3xxu1swe8q8sljevrhi3mo3v04za0q,IpcveBma,2020-0188,2021-10-17,08:50:37,10:00:56,NA,incomplete,false,true,NA,7,32,NA,orange,m_l_079.jpg,NA,NA,unpleasant,pleasant,NA,NA,NA,NA,NA,right,1434.09999999404,true,NA,NA,NA,NA,NA
IpcveBma,3uy4pis8ruyxp7v852m6xfad2fzn1g,3xxu1swe8q8sljevrhi3mo3v04za0q,IpcveBma,2020-0188,2021-10-17,08:50:37,10:00:56,NA,incomplete,false,true,NA,7,33,NA,orange,m_s_021.jpg,NA,NA,unpleasant,pleasant,NA,NA,NA,NA,NA,right,1400.79999998212,true,NA,NA,NA,NA,NA
IpcveBma,3uy4pis8ruyxp7v852m6xfad2fzn1g,3xxu1swe8q8sljevrhi3mo3v04za0q,IpcveBma,2020-0188,2021-10-17,08:50:37,10:00:56,NA,incomplete,false,true,NA,7,34,NA,orange,m_s_048.jpg,NA,NA,unpleasant,pleasant,NA,NA,NA,NA,NA,right,1128,true,NA,NA,NA,NA,NA
IpcveBma,3uy4pis8ruyxp7v852m6xfad2fzn1g,3xxu1swe8q8sljevrhi3mo3v04za0q,IpcveBma,2020-0188,2021-10-17,08:50:37,10:00:56,NA,incomplete,false,true,NA,7,35,NA,orange,n_l_068.jpg,NA,NA,unpleasant,pleasant,NA,NA,NA,NA,NA,right,941.90000000596,true,NA,NA,NA,NA,NA
IpcveBma,3uy4pis8ruyxp7v852m6xfad2fzn1g,3xxu1swe8q8sljevrhi3mo3v04za0q,IpcveBma,2020-0188,2021-10-17,08:50:37,10:00:56,NA,incomplete,false,NA,true,7,0,NA,NA,NA,left,present,NA,NA,n_l_021.jpg,black,n_s_014.jpg,black,within,NA,NaN,NA,left,2881.5,1,1,1387.5
IpcveBma,3uy4pis8ruyxp7v852m6xfad2fzn1g,3xxu1swe8q8sljevrhi3mo3v04za0q,IpcveBma,2020-0188,2021-10-17,08:50:37,10:00:56,NA,incomplete,false,NA,true,7,1,NA,NA,NA,left,present,NA,NA,n_l_049.jpg,green,n_s_020.jpg,yellow,between,NA,NaN,NA,left,7110.700000017881,1,2,1332
IpcveBma,3uy4pis8ruyxp7v852m6xfad2fzn1g,3xxu1swe8q8sljevrhi3mo3v04za0q,IpcveBma,2020-0188,2021-10-17,08:50:37,10:00:56,NA,incomplete,false,NA,true,7,2,NA,NA,NA,left,present,NA,NA,n_s_069.jpg,red,m_s_040.jpg,black,between,NA,NaN,NA,left,2589.300000011921,1,2,1403.7000000178814
IpcveBma,3uy4pis8ruyxp7v852m6xfad2fzn1g,3xxu1swe8q8sljevrhi3mo3v04za0q,IpcveBma,2020-0188,2021-10-17,08:50:37,10:00:56,NA,incomplete,false,NA,true,7,3,NA,NA,NA,right,present,NA,NA,n_s_061.jpg,gray,m_l_098.jpg,gray,within,NA,NaN,NA,right,1914.7999999821186,1,1,1312
IpcveBma,3uy4pis8ruyxp7v852m6xfad2fzn1g,3xxu1swe8q8sljevrhi3mo3v04za0q,IpcveBma,2020-0188,2021-10-17,08:50:37,10:00:56,NA,incomplete,false,NA,true,7,4,NA,NA,NA,left,present,NA,NA,n_s_018.jpg,gray,m_l_001.jpg,red,between,NA,NaN,NA,left,2068.0999999940395,1,2,2774.800000011921
IpcveBma,3uy4pis8ruyxp7v852m6xfad2fzn1g,3xxu1swe8q8sljevrhi3mo3v04za0q,IpcveBma,2020-0188,2021-10-17,08:50:37,10:00:56,NA,incomplete,false,NA,true,7,5,NA,NA,NA,left,present,NA,NA,n_l_065.jpg,red,m_l_106.jpg,red,within,NA,NaN,NA,right,2051.9000000059605,0,1,1380.199999988079
IpcveBma,3uy4pis8ruyxp7v852m6xfad2fzn1g,3xxu1swe8q8sljevrhi3mo3v04za0q,IpcveBma,2020-0188,2021-10-17,08:50:37,10:00:56,NA,incomplete,false,NA,true,7,6,NA,NA,NA,right,present,NA,NA,m_l_052.jpg,green,m_s_064.jpg,green,within,NA,NaN,NA,right,2254.9000000059605,1,1,1028.300000011921
IpcveBma,3uy4pis8ruyxp7v852m6xfad2fzn1g,3xxu1swe8q8sljevrhi3mo3v04za0q,IpcveBma,2020-0188,2021-10-17,08:50:37,10:00:56,NA,incomplete,false,NA,true,7,7,NA,NA,NA,right,present,NA,NA,n_l_068.jpg,orange,n_s_111.jpg,orange,within,NA,NaN,NA,right,2938.600000023842,1,1,928.8000000119209
IpcveBma,3uy4pis8ruyxp7v852m6xfad2fzn1g,3xxu1swe8q8sljevrhi3mo3v04za0q,IpcveBma,2020-0188,2021-10-17,08:50:37,10:00:56,NA,incomplete,false,NA,true,7,8,NA,NA,NA,left,present,NA,NA,n_s_102.jpg,yellow,m_l_012.jpg,gray,between,NA,NaN,NA,right,5048.200000017881,0,2,1238.7000000178814
IpcveBma,3uy4pis8ruyxp7v852m6xfad2fzn1g,3xxu1swe8q8sljevrhi3mo3v04za0q,IpcveBma,2020-0188,2021-10-17,08:50:37,10:00:56,NA,incomplete,false,NA,true,7,9,NA,NA,NA,right,present,NA,NA,m_l_079.jpg,orange,n_l_114.jpg,black,between,NA,NaN,NA,right,1774.5,1,2,1247.5
IpcveBma,3uy4pis8ruyxp7v852m6xfad2fzn1g,3xxu1swe8q8sljevrhi3mo3v04za0q,IpcveBma,2020-0188,2021-10-17,08:50:37,10:00:56,NA,incomplete,false,NA,true,7,10,NA,NA,NA,left,present,NA,NA,m_l_091.jpg,yellow,m_s_049.jpg,yellow,within,NA,NaN,NA,left,2435.5999999940395,1,1,1316.7000000178814
IpcveBma,3uy4pis8ruyxp7v852m6xfad2fzn1g,3xxu1swe8q8sljevrhi3mo3v04za0q,IpcveBma,2020-0188,2021-10-17,08:50:37,10:00:56,NA,incomplete,false,true,NA,8,0,NA,red,n_l_060.jpg,NA,NA,unpleasant,pleasant,NA,NA,NA,NA,NA,right,1077.79999998212,true,NA,NA,NA,NA,NA
IpcveBma,3uy4pis8ruyxp7v852m6xfad2fzn1g,3xxu1swe8q8sljevrhi3mo3v04za0q,IpcveBma,2020-0188,2021-10-17,08:50:37,10:00:56,NA,incomplete,false,true,NA,8,1,NA,red,m_s_005.jpg,NA,NA,pleasant,unpleasant,NA,NA,NA,NA,NA,left,2052.90000000596,true,NA,NA,NA,NA,NA
IpcveBma,3uy4pis8ruyxp7v852m6xfad2fzn1g,3xxu1swe8q8sljevrhi3mo3v04za0q,IpcveBma,2020-0188,2021-10-17,08:50:37,10:00:56,NA,incomplete,false,true,NA,8,2,NA,red,n_s_031.jpg,NA,NA,unpleasant,pleasant,NA,NA,NA,NA,NA,right,2206.80000001192,true,NA,NA,NA,NA,NA
IpcveBma,3uy4pis8ruyxp7v852m6xfad2fzn1g,3xxu1swe8q8sljevrhi3mo3v04za0q,IpcveBma,2020-0188,2021-10-17,08:50:37,10:00:56,NA,incomplete,false,true,NA,8,3,NA,red,n_s_085.jpg,NA,NA,unpleasant,pleasant,NA,NA,NA,NA,NA,right,1514.69999998808,true,NA,NA,NA,NA,NA
IpcveBma,3uy4pis8ruyxp7v852m6xfad2fzn1g,3xxu1swe8q8sljevrhi3mo3v04za0q,IpcveBma,2020-0188,2021-10-17,08:50:37,10:00:56,NA,incomplete,false,true,NA,8,4,NA,red,n_s_105.jpg,NA,NA,unpleasant,pleasant,NA,NA,NA,NA,NA,left,1964.09999999404,true,NA,NA,NA,NA,NA
IpcveBma,3uy4pis8ruyxp7v852m6xfad2fzn1g,3xxu1swe8q8sljevrhi3mo3v04za0q,IpcveBma,2020-0188,2021-10-17,08:50:37,10:00:56,NA,incomplete,false,true,NA,8,5,NA,red,n_s_025.jpg,NA,NA,unpleasant,pleasant,NA,NA,NA,NA,NA,left,1901.09999999404,true,NA,NA,NA,NA,NA
IpcveBma,3uy4pis8ruyxp7v852m6xfad2fzn1g,3xxu1swe8q8sljevrhi3mo3v04za0q,IpcveBma,2020-0188,2021-10-17,08:50:37,10:00:56,NA,incomplete,false,true,NA,8,6,NA,green,m_s_063.jpg,NA,NA,pleasant,unpleasant,NA,NA,NA,NA,NA,left,1483.29999998212,true,NA,NA,NA,NA,NA
IpcveBma,3uy4pis8ruyxp7v852m6xfad2fzn1g,3xxu1swe8q8sljevrhi3mo3v04za0q,IpcveBma,2020-0188,2021-10-17,08:50:37,10:00:56,NA,incomplete,false,true,NA,8,7,NA,green,m_l_006.jpg,NA,NA,pleasant,unpleasant,NA,NA,NA,NA,NA,right,1356.5,true,NA,NA,NA,NA,NA
IpcveBma,3uy4pis8ruyxp7v852m6xfad2fzn1g,3xxu1swe8q8sljevrhi3mo3v04za0q,IpcveBma,2020-0188,2021-10-17,08:50:37,10:00:56,NA,incomplete,false,true,NA,8,8,NA,green,m_l_046.jpg,NA,NA,pleasant,unpleasant,NA,NA,NA,NA,NA,left,1060.79999998212,true,NA,NA,NA,NA,NA
IpcveBma,3uy4pis8ruyxp7v852m6xfad2fzn1g,3xxu1swe8q8sljevrhi3mo3v04za0q,IpcveBma,2020-0188,2021-10-17,08:50:37,10:00:56,NA,incomplete,false,true,NA,8,9,NA,green,n_s_062.jpg,NA,NA,unpleasant,pleasant,NA,NA,NA,NA,NA,right,1421.09999999404,true,NA,NA,NA,NA,NA
