workerId,hitId,assignmentId,subject,studyid,exp_date,exp_start,exp_end,time_start,time_end,practice,encoding,memory,block,trial,event_order,event,stim,answer,context_type,label_left,label_right,left_image,left_event,right_image,right_event,condition,response,response_time,response_acc,order_response,order_response_time,order_acc,distance_response,distance_response_time
Iu3YjxPt,3mdwe879vkfdd3966pwqlqs2jwg9bh,36nemu28xjqmvao5hr1t2a7zvegmwd,Iu3YjxPt,2020-0188,2021-10-14,08:49:02,09:58:23,NA,incomplete,true,true,NA,0,0,NA,blue,m_l_083.jpg,NA,NA,unpleasant,pleasant,NA,NA,NA,NA,NA,right,1257.79999999981,true,NA,NA,NA,NA,NA
Iu3YjxPt,3mdwe879vkfdd3966pwqlqs2jwg9bh,36nemu28xjqmvao5hr1t2a7zvegmwd,Iu3YjxPt,2020-0188,2021-10-14,08:49:02,09:58:23,NA,incomplete,true,true,NA,0,1,NA,blue,n_s_028.jpg,NA,NA,pleasant,unpleasant,NA,NA,NA,NA,NA,left,1538.70000000019,true,NA,NA,NA,NA,NA
Iu3YjxPt,3mdwe879vkfdd3966pwqlqs2jwg9bh,36nemu28xjqmvao5hr1t2a7zvegmwd,Iu3YjxPt,2020-0188,2021-10-14,08:49:02,09:58:23,NA,incomplete,true,true,NA,0,2,NA,blue,n_l_095.jpg,NA,NA,unpleasant,pleasant,NA,NA,NA,NA,NA,right,2034.80000000028,true,NA,NA,NA,NA,NA
Iu3YjxPt,3mdwe879vkfdd3966pwqlqs2jwg9bh,36nemu28xjqmvao5hr1t2a7zvegmwd,Iu3YjxPt,2020-0188,2021-10-14,08:49:02,09:58:23,NA,incomplete,true,true,NA,0,3,NA,blue,n_s_117.jpg,NA,NA,unpleasant,pleasant,NA,NA,NA,NA,NA,left,1364.30000000028,true,NA,NA,NA,NA,NA
Iu3YjxPt,3mdwe879vkfdd3966pwqlqs2jwg9bh,36nemu28xjqmvao5hr1t2a7zvegmwd,Iu3YjxPt,2020-0188,2021-10-14,08:49:02,09:58:23,NA,incomplete,true,true,NA,0,4,NA,blue,m_l_017.jpg,NA,NA,unpleasant,pleasant,NA,NA,NA,NA,NA,right,2011,true,NA,NA,NA,NA,NA
Iu3YjxPt,3mdwe879vkfdd3966pwqlqs2jwg9bh,36nemu28xjqmvao5hr1t2a7zvegmwd,Iu3YjxPt,2020-0188,2021-10-14,08:49:02,09:58:23,NA,incomplete,true,true,NA,0,5,NA,blue,n_l_014.jpg,NA,NA,unpleasant,pleasant,NA,NA,NA,NA,NA,right,2164.80000000028,true,NA,NA,NA,NA,NA
Iu3YjxPt,3mdwe879vkfdd3966pwqlqs2jwg9bh,36nemu28xjqmvao5hr1t2a7zvegmwd,Iu3YjxPt,2020-0188,2021-10-14,08:49:02,09:58:23,NA,incomplete,true,true,NA,0,6,NA,red,n_l_056.jpg,NA,NA,pleasant,unpleasant,NA,NA,NA,NA,NA,left,1996.10000000009,true,NA,NA,NA,NA,NA
Iu3YjxPt,3mdwe879vkfdd3966pwqlqs2jwg9bh,36nemu28xjqmvao5hr1t2a7zvegmwd,Iu3YjxPt,2020-0188,2021-10-14,08:49:02,09:58:23,NA,incomplete,true,true,NA,0,7,NA,red,m_s_086.jpg,NA,NA,pleasant,unpleasant,NA,NA,NA,NA,NA,right,2024,true,NA,NA,NA,NA,NA
Iu3YjxPt,3mdwe879vkfdd3966pwqlqs2jwg9bh,36nemu28xjqmvao5hr1t2a7zvegmwd,Iu3YjxPt,2020-0188,2021-10-14,08:49:02,09:58:23,NA,incomplete,true,true,NA,0,8,NA,red,m_s_109.jpg,NA,NA,pleasant,unpleasant,NA,NA,NA,NA,NA,left,1330.60000000009,true,NA,NA,NA,NA,NA
Iu3YjxPt,3mdwe879vkfdd3966pwqlqs2jwg9bh,36nemu28xjqmvao5hr1t2a7zvegmwd,Iu3YjxPt,2020-0188,2021-10-14,08:49:02,09:58:23,NA,incomplete,true,true,NA,0,9,NA,red,m_s_015.jpg,NA,NA,unpleasant,pleasant,NA,NA,NA,NA,NA,right,1642.70000000019,true,NA,NA,NA,NA,NA
Iu3YjxPt,3mdwe879vkfdd3966pwqlqs2jwg9bh,36nemu28xjqmvao5hr1t2a7zvegmwd,Iu3YjxPt,2020-0188,2021-10-14,08:49:02,09:58:23,NA,incomplete,true,true,NA,0,10,NA,red,m_s_023.jpg,NA,NA,unpleasant,pleasant,NA,NA,NA,NA,NA,right,1768.29999999981,true,NA,NA,NA,NA,NA
Iu3YjxPt,3mdwe879vkfdd3966pwqlqs2jwg9bh,36nemu28xjqmvao5hr1t2a7zvegmwd,Iu3YjxPt,2020-0188,2021-10-14,08:49:02,09:58:23,NA,incomplete,true,true,NA,0,11,NA,red,m_s_034.jpg,NA,NA,pleasant,unpleasant,NA,NA,NA,NA,NA,left,1831.69999999972,true,NA,NA,NA,NA,NA
Iu3YjxPt,3mdwe879vkfdd3966pwqlqs2jwg9bh,36nemu28xjqmvao5hr1t2a7zvegmwd,Iu3YjxPt,2020-0188,2021-10-14,08:49:02,09:58:23,NA,incomplete,true,true,NA,0,12,NA,white,m_s_014.jpg,NA,NA,unpleasant,pleasant,NA,NA,NA,NA,NA,right,1797.09999999963,true,NA,NA,NA,NA,NA
Iu3YjxPt,3mdwe879vkfdd3966pwqlqs2jwg9bh,36nemu28xjqmvao5hr1t2a7zvegmwd,Iu3YjxPt,2020-0188,2021-10-14,08:49:02,09:58:23,NA,incomplete,true,true,NA,0,13,NA,white,m_s_097.jpg,NA,NA,pleasant,unpleasant,NA,NA,NA,NA,NA,right,1499.79999999981,true,NA,NA,NA,NA,NA
Iu3YjxPt,3mdwe879vkfdd3966pwqlqs2jwg9bh,36nemu28xjqmvao5hr1t2a7zvegmwd,Iu3YjxPt,2020-0188,2021-10-14,08:49:02,09:58:23,NA,incomplete,true,true,NA,0,14,NA,white,n_s_070.jpg,NA,NA,unpleasant,pleasant,NA,NA,NA,NA,NA,right,1276.29999999981,true,NA,NA,NA,NA,NA
Iu3YjxPt,3mdwe879vkfdd3966pwqlqs2jwg9bh,36nemu28xjqmvao5hr1t2a7zvegmwd,Iu3YjxPt,2020-0188,2021-10-14,08:49:02,09:58:23,NA,incomplete,true,true,NA,0,15,NA,white,n_l_007.jpg,NA,NA,pleasant,unpleasant,NA,NA,NA,NA,NA,left,1356,true,NA,NA,NA,NA,NA
Iu3YjxPt,3mdwe879vkfdd3966pwqlqs2jwg9bh,36nemu28xjqmvao5hr1t2a7zvegmwd,Iu3YjxPt,2020-0188,2021-10-14,08:49:02,09:58:23,NA,incomplete,true,true,NA,0,16,NA,white,n_l_013.jpg,NA,NA,pleasant,unpleasant,NA,NA,NA,NA,NA,left,1275.70000000019,true,NA,NA,NA,NA,NA
Iu3YjxPt,3mdwe879vkfdd3966pwqlqs2jwg9bh,36nemu28xjqmvao5hr1t2a7zvegmwd,Iu3YjxPt,2020-0188,2021-10-14,08:49:02,09:58:23,NA,incomplete,true,true,NA,0,17,NA,white,n_s_101.jpg,NA,NA,pleasant,unpleasant,NA,NA,NA,NA,NA,right,1439.70000000019,true,NA,NA,NA,NA,NA
Iu3YjxPt,3mdwe879vkfdd3966pwqlqs2jwg9bh,36nemu28xjqmvao5hr1t2a7zvegmwd,Iu3YjxPt,2020-0188,2021-10-14,08:49:02,09:58:23,NA,incomplete,true,true,NA,0,18,NA,yellow,m_s_073.jpg,NA,NA,pleasant,unpleasant,NA,NA,NA,NA,NA,left,1505.69999999972,true,NA,NA,NA,NA,NA
Iu3YjxPt,3mdwe879vkfdd3966pwqlqs2jwg9bh,36nemu28xjqmvao5hr1t2a7zvegmwd,Iu3YjxPt,2020-0188,2021-10-14,08:49:02,09:58:23,NA,incomplete,true,true,NA,0,19,NA,yellow,n_l_064.jpg,NA,NA,pleasant,unpleasant,NA,NA,NA,NA,NA,left,1285.40000000037,true,NA,NA,NA,NA,NA
Iu3YjxPt,3mdwe879vkfdd3966pwqlqs2jwg9bh,36nemu28xjqmvao5hr1t2a7zvegmwd,Iu3YjxPt,2020-0188,2021-10-14,08:49:02,09:58:23,NA,incomplete,true,true,NA,0,20,NA,yellow,m_s_092.jpg,NA,NA,unpleasant,pleasant,NA,NA,NA,NA,NA,right,1343,true,NA,NA,NA,NA,NA
Iu3YjxPt,3mdwe879vkfdd3966pwqlqs2jwg9bh,36nemu28xjqmvao5hr1t2a7zvegmwd,Iu3YjxPt,2020-0188,2021-10-14,08:49:02,09:58:23,NA,incomplete,true,true,NA,0,21,NA,yellow,n_l_101.jpg,NA,NA,unpleasant,pleasant,NA,NA,NA,NA,NA,right,1724.19999999972,true,NA,NA,NA,NA,NA
Iu3YjxPt,3mdwe879vkfdd3966pwqlqs2jwg9bh,36nemu28xjqmvao5hr1t2a7zvegmwd,Iu3YjxPt,2020-0188,2021-10-14,08:49:02,09:58:23,NA,incomplete,true,true,NA,0,22,NA,yellow,m_l_056.jpg,NA,NA,unpleasant,pleasant,NA,NA,NA,NA,NA,right,1780.5,true,NA,NA,NA,NA,NA
Iu3YjxPt,3mdwe879vkfdd3966pwqlqs2jwg9bh,36nemu28xjqmvao5hr1t2a7zvegmwd,Iu3YjxPt,2020-0188,2021-10-14,08:49:02,09:58:23,NA,incomplete,true,true,NA,0,23,NA,yellow,n_l_084.jpg,NA,NA,pleasant,unpleasant,NA,NA,NA,NA,NA,left,2647,true,NA,NA,NA,NA,NA
Iu3YjxPt,3mdwe879vkfdd3966pwqlqs2jwg9bh,36nemu28xjqmvao5hr1t2a7zvegmwd,Iu3YjxPt,2020-0188,2021-10-14,08:49:02,09:58:23,NA,incomplete,true,true,NA,0,24,NA,brown,m_s_112.jpg,NA,NA,unpleasant,pleasant,NA,NA,NA,NA,NA,right,1784,true,NA,NA,NA,NA,NA
Iu3YjxPt,3mdwe879vkfdd3966pwqlqs2jwg9bh,36nemu28xjqmvao5hr1t2a7zvegmwd,Iu3YjxPt,2020-0188,2021-10-14,08:49:02,09:58:23,NA,incomplete,true,true,NA,0,25,NA,brown,m_s_047.jpg,NA,NA,unpleasant,pleasant,NA,NA,NA,NA,NA,right,1722.10000000009,true,NA,NA,NA,NA,NA
Iu3YjxPt,3mdwe879vkfdd3966pwqlqs2jwg9bh,36nemu28xjqmvao5hr1t2a7zvegmwd,Iu3YjxPt,2020-0188,2021-10-14,08:49:02,09:58:23,NA,incomplete,true,true,NA,0,26,NA,brown,m_s_004.jpg,NA,NA,unpleasant,pleasant,NA,NA,NA,NA,NA,right,1755.29999999981,true,NA,NA,NA,NA,NA
Iu3YjxPt,3mdwe879vkfdd3966pwqlqs2jwg9bh,36nemu28xjqmvao5hr1t2a7zvegmwd,Iu3YjxPt,2020-0188,2021-10-14,08:49:02,09:58:23,NA,incomplete,true,true,NA,0,27,NA,brown,n_l_011.jpg,NA,NA,unpleasant,pleasant,NA,NA,NA,NA,NA,left,1242.5,true,NA,NA,NA,NA,NA
Iu3YjxPt,3mdwe879vkfdd3966pwqlqs2jwg9bh,36nemu28xjqmvao5hr1t2a7zvegmwd,Iu3YjxPt,2020-0188,2021-10-14,08:49:02,09:58:23,NA,incomplete,true,true,NA,0,28,NA,brown,n_s_001.jpg,NA,NA,pleasant,unpleasant,NA,NA,NA,NA,NA,left,1440.79999999981,true,NA,NA,NA,NA,NA
Iu3YjxPt,3mdwe879vkfdd3966pwqlqs2jwg9bh,36nemu28xjqmvao5hr1t2a7zvegmwd,Iu3YjxPt,2020-0188,2021-10-14,08:49:02,09:58:23,NA,incomplete,true,true,NA,0,29,NA,brown,m_l_048.jpg,NA,NA,unpleasant,pleasant,NA,NA,NA,NA,NA,right,1010.10000000009,true,NA,NA,NA,NA,NA
Iu3YjxPt,3mdwe879vkfdd3966pwqlqs2jwg9bh,36nemu28xjqmvao5hr1t2a7zvegmwd,Iu3YjxPt,2020-0188,2021-10-14,08:49:02,09:58:23,NA,incomplete,true,true,NA,0,30,NA,purple,n_s_085.jpg,NA,NA,unpleasant,pleasant,NA,NA,NA,NA,NA,left,1395.29999999981,true,NA,NA,NA,NA,NA
Iu3YjxPt,3mdwe879vkfdd3966pwqlqs2jwg9bh,36nemu28xjqmvao5hr1t2a7zvegmwd,Iu3YjxPt,2020-0188,2021-10-14,08:49:02,09:58:23,NA,incomplete,true,true,NA,0,31,NA,purple,m_l_073.jpg,NA,NA,unpleasant,pleasant,NA,NA,NA,NA,NA,left,1478.69999999972,true,NA,NA,NA,NA,NA
Iu3YjxPt,3mdwe879vkfdd3966pwqlqs2jwg9bh,36nemu28xjqmvao5hr1t2a7zvegmwd,Iu3YjxPt,2020-0188,2021-10-14,08:49:02,09:58:23,NA,incomplete,true,true,NA,0,32,NA,purple,m_s_001.jpg,NA,NA,pleasant,unpleasant,NA,NA,NA,NA,NA,left,1293.5,true,NA,NA,NA,NA,NA
Iu3YjxPt,3mdwe879vkfdd3966pwqlqs2jwg9bh,36nemu28xjqmvao5hr1t2a7zvegmwd,Iu3YjxPt,2020-0188,2021-10-14,08:49:02,09:58:23,NA,incomplete,true,true,NA,0,33,NA,purple,m_l_055.jpg,NA,NA,pleasant,unpleasant,NA,NA,NA,NA,NA,right,2090.09999999963,true,NA,NA,NA,NA,NA
Iu3YjxPt,3mdwe879vkfdd3966pwqlqs2jwg9bh,36nemu28xjqmvao5hr1t2a7zvegmwd,Iu3YjxPt,2020-0188,2021-10-14,08:49:02,09:58:23,NA,incomplete,true,true,NA,0,34,NA,purple,m_l_013.jpg,NA,NA,pleasant,unpleasant,NA,NA,NA,NA,NA,left,1115.10000000009,true,NA,NA,NA,NA,NA
Iu3YjxPt,3mdwe879vkfdd3966pwqlqs2jwg9bh,36nemu28xjqmvao5hr1t2a7zvegmwd,Iu3YjxPt,2020-0188,2021-10-14,08:49:02,09:58:23,NA,incomplete,true,true,NA,0,35,NA,purple,n_l_077.jpg,NA,NA,pleasant,unpleasant,NA,NA,NA,NA,NA,right,1247.5,true,NA,NA,NA,NA,NA
Iu3YjxPt,3mdwe879vkfdd3966pwqlqs2jwg9bh,36nemu28xjqmvao5hr1t2a7zvegmwd,Iu3YjxPt,2020-0188,2021-10-14,08:49:02,09:58:23,NA,incomplete,true,NA,true,0,0,NA,NA,NA,left,absent,NA,NA,n_l_064.jpg,yellow,n_l_084.jpg,yellow,within,NA,NaN,NA,right,3567,0,2,5313.799999999814
Iu3YjxPt,3mdwe879vkfdd3966pwqlqs2jwg9bh,36nemu28xjqmvao5hr1t2a7zvegmwd,Iu3YjxPt,2020-0188,2021-10-14,08:49:02,09:58:23,NA,incomplete,true,NA,true,0,1,NA,NA,NA,right,absent,NA,NA,m_s_001.jpg,purple,n_s_001.jpg,brown,between,NA,NaN,NA,left,2663.600000000093,0,1,5191.4000000003725
Iu3YjxPt,3mdwe879vkfdd3966pwqlqs2jwg9bh,36nemu28xjqmvao5hr1t2a7zvegmwd,Iu3YjxPt,2020-0188,2021-10-14,08:49:02,09:58:23,NA,incomplete,true,NA,true,0,2,NA,NA,NA,right,present,NA,NA,n_l_077.jpg,purple,m_l_073.jpg,purple,within,NA,NaN,NA,right,2279.100000000093,1,1,2575.399999999907
Iu3YjxPt,3mdwe879vkfdd3966pwqlqs2jwg9bh,36nemu28xjqmvao5hr1t2a7zvegmwd,Iu3YjxPt,2020-0188,2021-10-14,08:49:02,09:58:23,NA,incomplete,true,NA,true,0,3,NA,NA,NA,right,present,NA,NA,n_s_070.jpg,white,m_s_023.jpg,red,between,NA,NaN,NA,right,6303.4000000003725,1,2,4655.100000000093
Iu3YjxPt,3mdwe879vkfdd3966pwqlqs2jwg9bh,36nemu28xjqmvao5hr1t2a7zvegmwd,Iu3YjxPt,2020-0188,2021-10-14,08:49:02,09:58:23,NA,incomplete,true,NA,true,0,4,NA,NA,NA,left,present,NA,NA,m_s_086.jpg,red,m_s_034.jpg,red,within,NA,NaN,NA,right,4519.200000000186,0,1,1871.3999999999069
Iu3YjxPt,3mdwe879vkfdd3966pwqlqs2jwg9bh,36nemu28xjqmvao5hr1t2a7zvegmwd,Iu3YjxPt,2020-0188,2021-10-14,08:49:02,09:58:23,NA,incomplete,true,NA,true,0,5,NA,NA,NA,right,absent,NA,NA,m_s_109.jpg,red,m_l_017.jpg,blue,between,NA,NaN,NA,right,4478.800000000279,1,2,4063.2999999998137
Iu3YjxPt,3mdwe879vkfdd3966pwqlqs2jwg9bh,36nemu28xjqmvao5hr1t2a7zvegmwd,Iu3YjxPt,2020-0188,2021-10-14,08:49:02,09:58:23,NA,incomplete,true,NA,true,0,6,NA,NA,NA,left,absent,NA,NA,m_l_056.jpg,yellow,m_s_004.jpg,brown,between,NA,NaN,NA,left,3975.5,1,1,5831.600000000093
Iu3YjxPt,3mdwe879vkfdd3966pwqlqs2jwg9bh,36nemu28xjqmvao5hr1t2a7zvegmwd,Iu3YjxPt,2020-0188,2021-10-14,08:49:02,09:58:23,NA,incomplete,true,NA,true,0,7,NA,NA,NA,right,absent,NA,NA,m_l_048.jpg,brown,m_s_047.jpg,brown,within,NA,NaN,NA,right,4095.2000000001863,1,0,3103.7999999998137
Iu3YjxPt,3mdwe879vkfdd3966pwqlqs2jwg9bh,36nemu28xjqmvao5hr1t2a7zvegmwd,Iu3YjxPt,2020-0188,2021-10-14,08:49:02,09:58:23,NA,incomplete,true,NA,true,0,8,NA,NA,NA,left,absent,NA,NA,n_l_013.jpg,white,m_s_092.jpg,yellow,between,NA,NaN,NA,left,7695.700000000186,1,1,4279.799999999814
Iu3YjxPt,3mdwe879vkfdd3966pwqlqs2jwg9bh,36nemu28xjqmvao5hr1t2a7zvegmwd,Iu3YjxPt,2020-0188,2021-10-14,08:49:02,09:58:23,NA,incomplete,true,NA,true,0,9,NA,NA,NA,left,absent,NA,NA,m_s_097.jpg,white,n_s_101.jpg,white,within,NA,NaN,NA,left,3183.0999999996275,1,2,1719.2999999998137
Iu3YjxPt,3mdwe879vkfdd3966pwqlqs2jwg9bh,36nemu28xjqmvao5hr1t2a7zvegmwd,Iu3YjxPt,2020-0188,2021-10-14,08:49:02,09:58:23,NA,incomplete,true,NA,true,0,10,NA,NA,NA,right,absent,NA,NA,n_l_014.jpg,blue,n_s_028.jpg,blue,within,NA,NaN,NA,right,3207.7999999998137,1,2,983.8999999999069
Iu3YjxPt,3mdwe879vkfdd3966pwqlqs2jwg9bh,36nemu28xjqmvao5hr1t2a7zvegmwd,Iu3YjxPt,2020-0188,2021-10-14,08:49:02,09:58:23,NA,incomplete,false,true,NA,1,0,NA,orange,m_l_049.jpg,NA,NA,pleasant,unpleasant,NA,NA,NA,NA,NA,right,2213.5,true,NA,NA,NA,NA,NA
Iu3YjxPt,3mdwe879vkfdd3966pwqlqs2jwg9bh,36nemu28xjqmvao5hr1t2a7zvegmwd,Iu3YjxPt,2020-0188,2021-10-14,08:49:02,09:58:23,NA,incomplete,false,true,NA,1,1,NA,orange,m_s_106.jpg,NA,NA,unpleasant,pleasant,NA,NA,NA,NA,NA,right,2095,true,NA,NA,NA,NA,NA
Iu3YjxPt,3mdwe879vkfdd3966pwqlqs2jwg9bh,36nemu28xjqmvao5hr1t2a7zvegmwd,Iu3YjxPt,2020-0188,2021-10-14,08:49:02,09:58:23,NA,incomplete,false,true,NA,1,2,NA,orange,n_s_109.jpg,NA,NA,pleasant,unpleasant,NA,NA,NA,NA,NA,left,2113.5,true,NA,NA,NA,NA,NA
Iu3YjxPt,3mdwe879vkfdd3966pwqlqs2jwg9bh,36nemu28xjqmvao5hr1t2a7zvegmwd,Iu3YjxPt,2020-0188,2021-10-14,08:49:02,09:58:23,NA,incomplete,false,true,NA,1,3,NA,orange,m_s_103.jpg,NA,NA,pleasant,unpleasant,NA,NA,NA,NA,NA,left,2698.20000000019,true,NA,NA,NA,NA,NA
Iu3YjxPt,3mdwe879vkfdd3966pwqlqs2jwg9bh,36nemu28xjqmvao5hr1t2a7zvegmwd,Iu3YjxPt,2020-0188,2021-10-14,08:49:02,09:58:23,NA,incomplete,false,true,NA,1,4,NA,orange,n_l_046.jpg,NA,NA,pleasant,unpleasant,NA,NA,NA,NA,NA,left,2110,true,NA,NA,NA,NA,NA
Iu3YjxPt,3mdwe879vkfdd3966pwqlqs2jwg9bh,36nemu28xjqmvao5hr1t2a7zvegmwd,Iu3YjxPt,2020-0188,2021-10-14,08:49:02,09:58:23,NA,incomplete,false,true,NA,1,5,NA,orange,n_s_041.jpg,NA,NA,pleasant,unpleasant,NA,NA,NA,NA,NA,left,1736.39999999991,true,NA,NA,NA,NA,NA
Iu3YjxPt,3mdwe879vkfdd3966pwqlqs2jwg9bh,36nemu28xjqmvao5hr1t2a7zvegmwd,Iu3YjxPt,2020-0188,2021-10-14,08:49:02,09:58:23,NA,incomplete,false,true,NA,1,6,NA,purple,m_s_095.jpg,NA,NA,unpleasant,pleasant,NA,NA,NA,NA,NA,right,2736,true,NA,NA,NA,NA,NA
Iu3YjxPt,3mdwe879vkfdd3966pwqlqs2jwg9bh,36nemu28xjqmvao5hr1t2a7zvegmwd,Iu3YjxPt,2020-0188,2021-10-14,08:49:02,09:58:23,NA,incomplete,false,true,NA,1,7,NA,purple,n_l_069.jpg,NA,NA,pleasant,unpleasant,NA,NA,NA,NA,NA,left,2013.40000000037,true,NA,NA,NA,NA,NA
Iu3YjxPt,3mdwe879vkfdd3966pwqlqs2jwg9bh,36nemu28xjqmvao5hr1t2a7zvegmwd,Iu3YjxPt,2020-0188,2021-10-14,08:49:02,09:58:23,NA,incomplete,false,true,NA,1,8,NA,purple,n_l_012.jpg,NA,NA,unpleasant,pleasant,NA,NA,NA,NA,NA,right,2232.69999999972,true,NA,NA,NA,NA,NA
Iu3YjxPt,3mdwe879vkfdd3966pwqlqs2jwg9bh,36nemu28xjqmvao5hr1t2a7zvegmwd,Iu3YjxPt,2020-0188,2021-10-14,08:49:02,09:58:23,NA,incomplete,false,true,NA,1,9,NA,purple,m_l_034.jpg,NA,NA,unpleasant,pleasant,NA,NA,NA,NA,NA,right,2185,true,NA,NA,NA,NA,NA
Iu3YjxPt,3mdwe879vkfdd3966pwqlqs2jwg9bh,36nemu28xjqmvao5hr1t2a7zvegmwd,Iu3YjxPt,2020-0188,2021-10-14,08:49:02,09:58:23,NA,incomplete,false,true,NA,1,10,NA,purple,n_l_089.jpg,NA,NA,unpleasant,pleasant,NA,NA,NA,NA,NA,right,2213.19999999972,true,NA,NA,NA,NA,NA
Iu3YjxPt,3mdwe879vkfdd3966pwqlqs2jwg9bh,36nemu28xjqmvao5hr1t2a7zvegmwd,Iu3YjxPt,2020-0188,2021-10-14,08:49:02,09:58:23,NA,incomplete,false,true,NA,1,11,NA,purple,n_s_104.jpg,NA,NA,unpleasant,pleasant,NA,NA,NA,NA,NA,right,1635.5,true,NA,NA,NA,NA,NA
Iu3YjxPt,3mdwe879vkfdd3966pwqlqs2jwg9bh,36nemu28xjqmvao5hr1t2a7zvegmwd,Iu3YjxPt,2020-0188,2021-10-14,08:49:02,09:58:23,NA,incomplete,false,true,NA,1,12,NA,white,n_l_107.jpg,NA,NA,pleasant,unpleasant,NA,NA,NA,NA,NA,right,2013.09999999963,true,NA,NA,NA,NA,NA
Iu3YjxPt,3mdwe879vkfdd3966pwqlqs2jwg9bh,36nemu28xjqmvao5hr1t2a7zvegmwd,Iu3YjxPt,2020-0188,2021-10-14,08:49:02,09:58:23,NA,incomplete,false,true,NA,1,13,NA,white,m_l_089.jpg,NA,NA,unpleasant,pleasant,NA,NA,NA,NA,NA,right,1561.60000000009,true,NA,NA,NA,NA,NA
Iu3YjxPt,3mdwe879vkfdd3966pwqlqs2jwg9bh,36nemu28xjqmvao5hr1t2a7zvegmwd,Iu3YjxPt,2020-0188,2021-10-14,08:49:02,09:58:23,NA,incomplete,false,true,NA,1,14,NA,white,n_l_058.jpg,NA,NA,unpleasant,pleasant,NA,NA,NA,NA,NA,right,2468.20000000019,true,NA,NA,NA,NA,NA
Iu3YjxPt,3mdwe879vkfdd3966pwqlqs2jwg9bh,36nemu28xjqmvao5hr1t2a7zvegmwd,Iu3YjxPt,2020-0188,2021-10-14,08:49:02,09:58:23,NA,incomplete,false,true,NA,1,15,NA,white,m_l_018.jpg,NA,NA,unpleasant,pleasant,NA,NA,NA,NA,NA,right,2131.09999999963,true,NA,NA,NA,NA,NA
Iu3YjxPt,3mdwe879vkfdd3966pwqlqs2jwg9bh,36nemu28xjqmvao5hr1t2a7zvegmwd,Iu3YjxPt,2020-0188,2021-10-14,08:49:02,09:58:23,NA,incomplete,false,true,NA,1,16,NA,white,n_s_100.jpg,NA,NA,pleasant,unpleasant,NA,NA,NA,NA,NA,left,2335.60000000009,true,NA,NA,NA,NA,NA
Iu3YjxPt,3mdwe879vkfdd3966pwqlqs2jwg9bh,36nemu28xjqmvao5hr1t2a7zvegmwd,Iu3YjxPt,2020-0188,2021-10-14,08:49:02,09:58:23,NA,incomplete,false,true,NA,1,17,NA,white,n_s_069.jpg,NA,NA,pleasant,unpleasant,NA,NA,NA,NA,NA,left,1813.40000000037,true,NA,NA,NA,NA,NA
Iu3YjxPt,3mdwe879vkfdd3966pwqlqs2jwg9bh,36nemu28xjqmvao5hr1t2a7zvegmwd,Iu3YjxPt,2020-0188,2021-10-14,08:49:02,09:58:23,NA,incomplete,false,true,NA,1,18,NA,red,n_l_091.jpg,NA,NA,unpleasant,pleasant,NA,NA,NA,NA,NA,right,1904.60000000009,true,NA,NA,NA,NA,NA
Iu3YjxPt,3mdwe879vkfdd3966pwqlqs2jwg9bh,36nemu28xjqmvao5hr1t2a7zvegmwd,Iu3YjxPt,2020-0188,2021-10-14,08:49:02,09:58:23,NA,incomplete,false,true,NA,1,19,NA,red,n_s_012.jpg,NA,NA,unpleasant,pleasant,NA,NA,NA,NA,NA,right,1385.10000000009,true,NA,NA,NA,NA,NA
Iu3YjxPt,3mdwe879vkfdd3966pwqlqs2jwg9bh,36nemu28xjqmvao5hr1t2a7zvegmwd,Iu3YjxPt,2020-0188,2021-10-14,08:49:02,09:58:23,NA,incomplete,false,true,NA,1,20,NA,red,n_l_020.jpg,NA,NA,pleasant,unpleasant,NA,NA,NA,NA,NA,left,1413.5,true,NA,NA,NA,NA,NA
Iu3YjxPt,3mdwe879vkfdd3966pwqlqs2jwg9bh,36nemu28xjqmvao5hr1t2a7zvegmwd,Iu3YjxPt,2020-0188,2021-10-14,08:49:02,09:58:23,NA,incomplete,false,true,NA,1,21,NA,red,m_s_026.jpg,NA,NA,unpleasant,pleasant,NA,NA,NA,NA,NA,right,1965.79999999981,true,NA,NA,NA,NA,NA
Iu3YjxPt,3mdwe879vkfdd3966pwqlqs2jwg9bh,36nemu28xjqmvao5hr1t2a7zvegmwd,Iu3YjxPt,2020-0188,2021-10-14,08:49:02,09:58:23,NA,incomplete,false,true,NA,1,22,NA,red,n_s_115.jpg,NA,NA,pleasant,unpleasant,NA,NA,NA,NA,NA,left,1777,true,NA,NA,NA,NA,NA
Iu3YjxPt,3mdwe879vkfdd3966pwqlqs2jwg9bh,36nemu28xjqmvao5hr1t2a7zvegmwd,Iu3YjxPt,2020-0188,2021-10-14,08:49:02,09:58:23,NA,incomplete,false,true,NA,1,23,NA,red,n_s_072.jpg,NA,NA,pleasant,unpleasant,NA,NA,NA,NA,NA,left,1488.39999999991,true,NA,NA,NA,NA,NA
Iu3YjxPt,3mdwe879vkfdd3966pwqlqs2jwg9bh,36nemu28xjqmvao5hr1t2a7zvegmwd,Iu3YjxPt,2020-0188,2021-10-14,08:49:02,09:58:23,NA,incomplete,false,true,NA,1,24,NA,yellow,n_s_049.jpg,NA,NA,unpleasant,pleasant,NA,NA,NA,NA,NA,left,1678.5,true,NA,NA,NA,NA,NA
Iu3YjxPt,3mdwe879vkfdd3966pwqlqs2jwg9bh,36nemu28xjqmvao5hr1t2a7zvegmwd,Iu3YjxPt,2020-0188,2021-10-14,08:49:02,09:58:23,NA,incomplete,false,true,NA,1,25,NA,yellow,m_s_094.jpg,NA,NA,unpleasant,pleasant,NA,NA,NA,NA,NA,right,1317.90000000037,true,NA,NA,NA,NA,NA
Iu3YjxPt,3mdwe879vkfdd3966pwqlqs2jwg9bh,36nemu28xjqmvao5hr1t2a7zvegmwd,Iu3YjxPt,2020-0188,2021-10-14,08:49:02,09:58:23,NA,incomplete,false,true,NA,1,26,NA,yellow,n_l_079.jpg,NA,NA,pleasant,unpleasant,NA,NA,NA,NA,NA,left,1909.89999999991,true,NA,NA,NA,NA,NA
Iu3YjxPt,3mdwe879vkfdd3966pwqlqs2jwg9bh,36nemu28xjqmvao5hr1t2a7zvegmwd,Iu3YjxPt,2020-0188,2021-10-14,08:49:02,09:58:23,NA,incomplete,false,true,NA,1,27,NA,yellow,m_s_070.jpg,NA,NA,pleasant,unpleasant,NA,NA,NA,NA,NA,left,1871.89999999991,true,NA,NA,NA,NA,NA
Iu3YjxPt,3mdwe879vkfdd3966pwqlqs2jwg9bh,36nemu28xjqmvao5hr1t2a7zvegmwd,Iu3YjxPt,2020-0188,2021-10-14,08:49:02,09:58:23,NA,incomplete,false,true,NA,1,28,NA,yellow,m_s_089.jpg,NA,NA,unpleasant,pleasant,NA,NA,NA,NA,NA,right,1736.39999999991,true,NA,NA,NA,NA,NA
Iu3YjxPt,3mdwe879vkfdd3966pwqlqs2jwg9bh,36nemu28xjqmvao5hr1t2a7zvegmwd,Iu3YjxPt,2020-0188,2021-10-14,08:49:02,09:58:23,NA,incomplete,false,true,NA,1,29,NA,yellow,n_s_045.jpg,NA,NA,pleasant,unpleasant,NA,NA,NA,NA,NA,left,1235.89999999991,true,NA,NA,NA,NA,NA
Iu3YjxPt,3mdwe879vkfdd3966pwqlqs2jwg9bh,36nemu28xjqmvao5hr1t2a7zvegmwd,Iu3YjxPt,2020-0188,2021-10-14,08:49:02,09:58:23,NA,incomplete,false,true,NA,1,30,NA,brown,m_s_005.jpg,NA,NA,unpleasant,pleasant,NA,NA,NA,NA,NA,right,1490,true,NA,NA,NA,NA,NA
Iu3YjxPt,3mdwe879vkfdd3966pwqlqs2jwg9bh,36nemu28xjqmvao5hr1t2a7zvegmwd,Iu3YjxPt,2020-0188,2021-10-14,08:49:02,09:58:23,NA,incomplete,false,true,NA,1,31,NA,brown,n_l_017.jpg,NA,NA,pleasant,unpleasant,NA,NA,NA,NA,NA,right,2372.29999999981,true,NA,NA,NA,NA,NA
Iu3YjxPt,3mdwe879vkfdd3966pwqlqs2jwg9bh,36nemu28xjqmvao5hr1t2a7zvegmwd,Iu3YjxPt,2020-0188,2021-10-14,08:49:02,09:58:23,NA,incomplete,false,true,NA,1,32,NA,brown,n_s_110.jpg,NA,NA,pleasant,unpleasant,NA,NA,NA,NA,NA,left,1732.89999999991,true,NA,NA,NA,NA,NA
Iu3YjxPt,3mdwe879vkfdd3966pwqlqs2jwg9bh,36nemu28xjqmvao5hr1t2a7zvegmwd,Iu3YjxPt,2020-0188,2021-10-14,08:49:02,09:58:23,NA,incomplete,false,true,NA,1,33,NA,brown,n_s_088.jpg,NA,NA,pleasant,unpleasant,NA,NA,NA,NA,NA,left,2147.79999999981,true,NA,NA,NA,NA,NA
Iu3YjxPt,3mdwe879vkfdd3966pwqlqs2jwg9bh,36nemu28xjqmvao5hr1t2a7zvegmwd,Iu3YjxPt,2020-0188,2021-10-14,08:49:02,09:58:23,NA,incomplete,false,true,NA,1,34,NA,brown,m_l_094.jpg,NA,NA,pleasant,unpleasant,NA,NA,NA,NA,NA,right,2356.10000000009,true,NA,NA,NA,NA,NA
Iu3YjxPt,3mdwe879vkfdd3966pwqlqs2jwg9bh,36nemu28xjqmvao5hr1t2a7zvegmwd,Iu3YjxPt,2020-0188,2021-10-14,08:49:02,09:58:23,NA,incomplete,false,true,NA,1,35,NA,brown,m_l_042.jpg,NA,NA,pleasant,unpleasant,NA,NA,NA,NA,NA,left,1184.30000000028,true,NA,NA,NA,NA,NA
Iu3YjxPt,3mdwe879vkfdd3966pwqlqs2jwg9bh,36nemu28xjqmvao5hr1t2a7zvegmwd,Iu3YjxPt,2020-0188,2021-10-14,08:49:02,09:58:23,NA,incomplete,false,NA,true,1,0,NA,NA,NA,right,absent,NA,NA,n_l_058.jpg,white,n_l_089.jpg,purple,between,NA,NaN,NA,right,4654,1,1,4638.5
Iu3YjxPt,3mdwe879vkfdd3966pwqlqs2jwg9bh,36nemu28xjqmvao5hr1t2a7zvegmwd,Iu3YjxPt,2020-0188,2021-10-14,08:49:02,09:58:23,NA,incomplete,false,NA,true,1,1,NA,NA,NA,left,absent,NA,NA,n_l_046.jpg,orange,n_l_012.jpg,purple,between,NA,NaN,NA,left,3799.399999999907,1,1,1567.0999999996275
Iu3YjxPt,3mdwe879vkfdd3966pwqlqs2jwg9bh,36nemu28xjqmvao5hr1t2a7zvegmwd,Iu3YjxPt,2020-0188,2021-10-14,08:49:02,09:58:23,NA,incomplete,false,NA,true,1,2,NA,NA,NA,right,absent,NA,NA,n_s_104.jpg,purple,n_l_069.jpg,purple,within,NA,NaN,NA,right,7431.600000000093,1,1,2495.5999999996275
Iu3YjxPt,3mdwe879vkfdd3966pwqlqs2jwg9bh,36nemu28xjqmvao5hr1t2a7zvegmwd,Iu3YjxPt,2020-0188,2021-10-14,08:49:02,09:58:23,NA,incomplete,false,NA,true,1,3,NA,NA,NA,left,absent,NA,NA,m_s_094.jpg,yellow,n_s_045.jpg,yellow,within,NA,NaN,NA,right,3087.2999999998137,0,1,1239.7999999998137
Iu3YjxPt,3mdwe879vkfdd3966pwqlqs2jwg9bh,36nemu28xjqmvao5hr1t2a7zvegmwd,Iu3YjxPt,2020-0188,2021-10-14,08:49:02,09:58:23,NA,incomplete,false,NA,true,1,4,NA,NA,NA,left,absent,NA,NA,m_s_106.jpg,orange,n_s_041.jpg,orange,within,NA,NaN,NA,left,4535.299999999814,1,1,1952
Iu3YjxPt,3mdwe879vkfdd3966pwqlqs2jwg9bh,36nemu28xjqmvao5hr1t2a7zvegmwd,Iu3YjxPt,2020-0188,2021-10-14,08:49:02,09:58:23,NA,incomplete,false,NA,true,1,5,NA,NA,NA,right,absent,NA,NA,n_s_069.jpg,white,m_l_089.jpg,white,within,NA,NaN,NA,right,4047.2999999998137,1,2,1343
Iu3YjxPt,3mdwe879vkfdd3966pwqlqs2jwg9bh,36nemu28xjqmvao5hr1t2a7zvegmwd,Iu3YjxPt,2020-0188,2021-10-14,08:49:02,09:58:23,NA,incomplete,false,NA,true,1,6,NA,NA,NA,left,absent,NA,NA,n_s_012.jpg,red,n_s_072.jpg,red,within,NA,NaN,NA,left,3975.600000000093,1,2,2344
Iu3YjxPt,3mdwe879vkfdd3966pwqlqs2jwg9bh,36nemu28xjqmvao5hr1t2a7zvegmwd,Iu3YjxPt,2020-0188,2021-10-14,08:49:02,09:58:23,NA,incomplete,false,NA,true,1,7,NA,NA,NA,left,absent,NA,NA,n_s_100.jpg,white,n_l_020.jpg,red,between,NA,NaN,NA,left,3151.600000000093,1,2,1615.7999999998137
Iu3YjxPt,3mdwe879vkfdd3966pwqlqs2jwg9bh,36nemu28xjqmvao5hr1t2a7zvegmwd,Iu3YjxPt,2020-0188,2021-10-14,08:49:02,09:58:23,NA,incomplete,false,NA,true,1,8,NA,NA,NA,right,absent,NA,NA,m_l_042.jpg,brown,n_l_017.jpg,brown,within,NA,NaN,NA,right,2519.1999999997206,1,1,1424
Iu3YjxPt,3mdwe879vkfdd3966pwqlqs2jwg9bh,36nemu28xjqmvao5hr1t2a7zvegmwd,Iu3YjxPt,2020-0188,2021-10-14,08:49:02,09:58:23,NA,incomplete,false,NA,true,1,9,NA,NA,NA,left,absent,NA,NA,m_s_089.jpg,yellow,n_s_110.jpg,brown,between,NA,NaN,NA,right,3551.5,0,1,1903.2999999998137
Iu3YjxPt,3mdwe879vkfdd3966pwqlqs2jwg9bh,36nemu28xjqmvao5hr1t2a7zvegmwd,Iu3YjxPt,2020-0188,2021-10-14,08:49:02,09:58:23,NA,incomplete,false,NA,true,1,10,NA,NA,NA,left,absent,NA,NA,n_s_115.jpg,red,n_l_079.jpg,yellow,between,NA,NaN,NA,left,2872.100000000093,1,2,1247.5
Iu3YjxPt,3mdwe879vkfdd3966pwqlqs2jwg9bh,36nemu28xjqmvao5hr1t2a7zvegmwd,Iu3YjxPt,2020-0188,2021-10-14,08:49:02,09:58:23,NA,incomplete,false,true,NA,2,0,NA,yellow,n_s_024.jpg,NA,NA,pleasant,unpleasant,NA,NA,NA,NA,NA,left,1346.39999999991,true,NA,NA,NA,NA,NA
Iu3YjxPt,3mdwe879vkfdd3966pwqlqs2jwg9bh,36nemu28xjqmvao5hr1t2a7zvegmwd,Iu3YjxPt,2020-0188,2021-10-14,08:49:02,09:58:23,NA,incomplete,false,true,NA,2,1,NA,yellow,m_s_009.jpg,NA,NA,unpleasant,pleasant,NA,NA,NA,NA,NA,right,1698.29999999981,true,NA,NA,NA,NA,NA
Iu3YjxPt,3mdwe879vkfdd3966pwqlqs2jwg9bh,36nemu28xjqmvao5hr1t2a7zvegmwd,Iu3YjxPt,2020-0188,2021-10-14,08:49:02,09:58:23,NA,incomplete,false,true,NA,2,2,NA,yellow,m_s_111.jpg,NA,NA,pleasant,unpleasant,NA,NA,NA,NA,NA,left,1309.19999999972,true,NA,NA,NA,NA,NA
Iu3YjxPt,3mdwe879vkfdd3966pwqlqs2jwg9bh,36nemu28xjqmvao5hr1t2a7zvegmwd,Iu3YjxPt,2020-0188,2021-10-14,08:49:02,09:58:23,NA,incomplete,false,true,NA,2,3,NA,yellow,n_l_113.jpg,NA,NA,pleasant,unpleasant,NA,NA,NA,NA,NA,right,1731.70000000019,true,NA,NA,NA,NA,NA
Iu3YjxPt,3mdwe879vkfdd3966pwqlqs2jwg9bh,36nemu28xjqmvao5hr1t2a7zvegmwd,Iu3YjxPt,2020-0188,2021-10-14,08:49:02,09:58:23,NA,incomplete,false,true,NA,2,4,NA,yellow,m_l_071.jpg,NA,NA,pleasant,unpleasant,NA,NA,NA,NA,NA,left,1320.69999999972,true,NA,NA,NA,NA,NA
Iu3YjxPt,3mdwe879vkfdd3966pwqlqs2jwg9bh,36nemu28xjqmvao5hr1t2a7zvegmwd,Iu3YjxPt,2020-0188,2021-10-14,08:49:02,09:58:23,NA,incomplete,false,true,NA,2,5,NA,yellow,m_s_064.jpg,NA,NA,pleasant,unpleasant,NA,NA,NA,NA,NA,left,1889.89999999991,true,NA,NA,NA,NA,NA
Iu3YjxPt,3mdwe879vkfdd3966pwqlqs2jwg9bh,36nemu28xjqmvao5hr1t2a7zvegmwd,Iu3YjxPt,2020-0188,2021-10-14,08:49:02,09:58:23,NA,incomplete,false,true,NA,2,6,NA,purple,m_s_017.jpg,NA,NA,unpleasant,pleasant,NA,NA,NA,NA,NA,right,2855.20000000019,true,NA,NA,NA,NA,NA
Iu3YjxPt,3mdwe879vkfdd3966pwqlqs2jwg9bh,36nemu28xjqmvao5hr1t2a7zvegmwd,Iu3YjxPt,2020-0188,2021-10-14,08:49:02,09:58:23,NA,incomplete,false,true,NA,2,7,NA,purple,n_l_009.jpg,NA,NA,unpleasant,pleasant,NA,NA,NA,NA,NA,right,1405.70000000019,true,NA,NA,NA,NA,NA
Iu3YjxPt,3mdwe879vkfdd3966pwqlqs2jwg9bh,36nemu28xjqmvao5hr1t2a7zvegmwd,Iu3YjxPt,2020-0188,2021-10-14,08:49:02,09:58:23,NA,incomplete,false,true,NA,2,8,NA,purple,n_s_106.jpg,NA,NA,unpleasant,pleasant,NA,NA,NA,NA,NA,left,1691.39999999991,true,NA,NA,NA,NA,NA
Iu3YjxPt,3mdwe879vkfdd3966pwqlqs2jwg9bh,36nemu28xjqmvao5hr1t2a7zvegmwd,Iu3YjxPt,2020-0188,2021-10-14,08:49:02,09:58:23,NA,incomplete,false,true,NA,2,9,NA,purple,m_s_012.jpg,NA,NA,pleasant,unpleasant,NA,NA,NA,NA,NA,left,2511.39999999991,true,NA,NA,NA,NA,NA
Iu3YjxPt,3mdwe879vkfdd3966pwqlqs2jwg9bh,36nemu28xjqmvao5hr1t2a7zvegmwd,Iu3YjxPt,2020-0188,2021-10-14,08:49:02,09:58:23,NA,incomplete,false,true,NA,2,10,NA,purple,m_s_022.jpg,NA,NA,pleasant,unpleasant,NA,NA,NA,NA,NA,left,1919.39999999991,true,NA,NA,NA,NA,NA
Iu3YjxPt,3mdwe879vkfdd3966pwqlqs2jwg9bh,36nemu28xjqmvao5hr1t2a7zvegmwd,Iu3YjxPt,2020-0188,2021-10-14,08:49:02,09:58:23,NA,incomplete,false,true,NA,2,11,NA,purple,n_l_076.jpg,NA,NA,unpleasant,pleasant,NA,NA,NA,NA,NA,left,1438.09999999963,true,NA,NA,NA,NA,NA
Iu3YjxPt,3mdwe879vkfdd3966pwqlqs2jwg9bh,36nemu28xjqmvao5hr1t2a7zvegmwd,Iu3YjxPt,2020-0188,2021-10-14,08:49:02,09:58:23,NA,incomplete,false,true,NA,2,12,NA,brown,n_s_026.jpg,NA,NA,unpleasant,pleasant,NA,NA,NA,NA,NA,left,1753,true,NA,NA,NA,NA,NA
Iu3YjxPt,3mdwe879vkfdd3966pwqlqs2jwg9bh,36nemu28xjqmvao5hr1t2a7zvegmwd,Iu3YjxPt,2020-0188,2021-10-14,08:49:02,09:58:23,NA,incomplete,false,true,NA,2,13,NA,brown,n_l_042.jpg,NA,NA,pleasant,unpleasant,NA,NA,NA,NA,NA,right,1638.69999999972,true,NA,NA,NA,NA,NA
Iu3YjxPt,3mdwe879vkfdd3966pwqlqs2jwg9bh,36nemu28xjqmvao5hr1t2a7zvegmwd,Iu3YjxPt,2020-0188,2021-10-14,08:49:02,09:58:23,NA,incomplete,false,true,NA,2,14,NA,brown,m_l_070.jpg,NA,NA,pleasant,unpleasant,NA,NA,NA,NA,NA,right,2227.5,true,NA,NA,NA,NA,NA
Iu3YjxPt,3mdwe879vkfdd3966pwqlqs2jwg9bh,36nemu28xjqmvao5hr1t2a7zvegmwd,Iu3YjxPt,2020-0188,2021-10-14,08:49:02,09:58:23,NA,incomplete,false,true,NA,2,15,NA,brown,m_l_053.jpg,NA,NA,unpleasant,pleasant,NA,NA,NA,NA,NA,right,2130.5,true,NA,NA,NA,NA,NA
Iu3YjxPt,3mdwe879vkfdd3966pwqlqs2jwg9bh,36nemu28xjqmvao5hr1t2a7zvegmwd,Iu3YjxPt,2020-0188,2021-10-14,08:49:02,09:58:23,NA,incomplete,false,true,NA,2,16,NA,brown,n_s_004.jpg,NA,NA,unpleasant,pleasant,NA,NA,NA,NA,NA,left,1476.69999999972,true,NA,NA,NA,NA,NA
Iu3YjxPt,3mdwe879vkfdd3966pwqlqs2jwg9bh,36nemu28xjqmvao5hr1t2a7zvegmwd,Iu3YjxPt,2020-0188,2021-10-14,08:49:02,09:58:23,NA,incomplete,false,true,NA,2,17,NA,brown,m_l_108.jpg,NA,NA,unpleasant,pleasant,NA,NA,NA,NA,NA,right,1691.79999999981,true,NA,NA,NA,NA,NA
Iu3YjxPt,3mdwe879vkfdd3966pwqlqs2jwg9bh,36nemu28xjqmvao5hr1t2a7zvegmwd,Iu3YjxPt,2020-0188,2021-10-14,08:49:02,09:58:23,NA,incomplete,false,true,NA,2,18,NA,gray,m_s_063.jpg,NA,NA,unpleasant,pleasant,NA,NA,NA,NA,NA,right,2035.30000000028,true,NA,NA,NA,NA,NA
Iu3YjxPt,3mdwe879vkfdd3966pwqlqs2jwg9bh,36nemu28xjqmvao5hr1t2a7zvegmwd,Iu3YjxPt,2020-0188,2021-10-14,08:49:02,09:58:23,NA,incomplete,false,true,NA,2,19,NA,gray,n_l_022.jpg,NA,NA,unpleasant,pleasant,NA,NA,NA,NA,NA,right,1290.59999999963,true,NA,NA,NA,NA,NA
Iu3YjxPt,3mdwe879vkfdd3966pwqlqs2jwg9bh,36nemu28xjqmvao5hr1t2a7zvegmwd,Iu3YjxPt,2020-0188,2021-10-14,08:49:02,09:58:23,NA,incomplete,false,true,NA,2,20,NA,gray,m_l_023.jpg,NA,NA,unpleasant,pleasant,NA,NA,NA,NA,NA,right,1503.30000000028,true,NA,NA,NA,NA,NA
Iu3YjxPt,3mdwe879vkfdd3966pwqlqs2jwg9bh,36nemu28xjqmvao5hr1t2a7zvegmwd,Iu3YjxPt,2020-0188,2021-10-14,08:49:02,09:58:23,NA,incomplete,false,true,NA,2,21,NA,gray,n_l_005.jpg,NA,NA,pleasant,unpleasant,NA,NA,NA,NA,NA,left,1832.90000000037,true,NA,NA,NA,NA,NA
Iu3YjxPt,3mdwe879vkfdd3966pwqlqs2jwg9bh,36nemu28xjqmvao5hr1t2a7zvegmwd,Iu3YjxPt,2020-0188,2021-10-14,08:49:02,09:58:23,NA,incomplete,false,true,NA,2,22,NA,gray,n_s_014.jpg,NA,NA,pleasant,unpleasant,NA,NA,NA,NA,NA,left,1765.80000000028,true,NA,NA,NA,NA,NA
Iu3YjxPt,3mdwe879vkfdd3966pwqlqs2jwg9bh,36nemu28xjqmvao5hr1t2a7zvegmwd,Iu3YjxPt,2020-0188,2021-10-14,08:49:02,09:58:23,NA,incomplete,false,true,NA,2,23,NA,gray,m_l_079.jpg,NA,NA,pleasant,unpleasant,NA,NA,NA,NA,NA,right,1728,true,NA,NA,NA,NA,NA
Iu3YjxPt,3mdwe879vkfdd3966pwqlqs2jwg9bh,36nemu28xjqmvao5hr1t2a7zvegmwd,Iu3YjxPt,2020-0188,2021-10-14,08:49:02,09:58:23,NA,incomplete,false,true,NA,2,24,NA,black,n_l_032.jpg,NA,NA,unpleasant,pleasant,NA,NA,NA,NA,NA,left,2290.70000000019,true,NA,NA,NA,NA,NA
Iu3YjxPt,3mdwe879vkfdd3966pwqlqs2jwg9bh,36nemu28xjqmvao5hr1t2a7zvegmwd,Iu3YjxPt,2020-0188,2021-10-14,08:49:02,09:58:23,NA,incomplete,false,true,NA,2,25,NA,black,n_l_068.jpg,NA,NA,unpleasant,pleasant,NA,NA,NA,NA,NA,right,2483.19999999972,true,NA,NA,NA,NA,NA
Iu3YjxPt,3mdwe879vkfdd3966pwqlqs2jwg9bh,36nemu28xjqmvao5hr1t2a7zvegmwd,Iu3YjxPt,2020-0188,2021-10-14,08:49:02,09:58:23,NA,incomplete,false,true,NA,2,26,NA,black,n_l_029.jpg,NA,NA,pleasant,unpleasant,NA,NA,NA,NA,NA,left,1646.39999999991,true,NA,NA,NA,NA,NA
Iu3YjxPt,3mdwe879vkfdd3966pwqlqs2jwg9bh,36nemu28xjqmvao5hr1t2a7zvegmwd,Iu3YjxPt,2020-0188,2021-10-14,08:49:02,09:58:23,NA,incomplete,false,true,NA,2,27,NA,black,m_l_060.jpg,NA,NA,unpleasant,pleasant,NA,NA,NA,NA,NA,right,1347.80000000028,true,NA,NA,NA,NA,NA
Iu3YjxPt,3mdwe879vkfdd3966pwqlqs2jwg9bh,36nemu28xjqmvao5hr1t2a7zvegmwd,Iu3YjxPt,2020-0188,2021-10-14,08:49:02,09:58:23,NA,incomplete,false,true,NA,2,28,NA,black,n_l_071.jpg,NA,NA,unpleasant,pleasant,NA,NA,NA,NA,NA,right,1714.20000000019,true,NA,NA,NA,NA,NA
Iu3YjxPt,3mdwe879vkfdd3966pwqlqs2jwg9bh,36nemu28xjqmvao5hr1t2a7zvegmwd,Iu3YjxPt,2020-0188,2021-10-14,08:49:02,09:58:23,NA,incomplete,false,true,NA,2,29,NA,black,m_l_100.jpg,NA,NA,unpleasant,pleasant,NA,NA,NA,NA,NA,right,2538.70000000019,true,NA,NA,NA,NA,NA
Iu3YjxPt,3mdwe879vkfdd3966pwqlqs2jwg9bh,36nemu28xjqmvao5hr1t2a7zvegmwd,Iu3YjxPt,2020-0188,2021-10-14,08:49:02,09:58:23,NA,incomplete,false,true,NA,2,30,NA,orange,m_s_108.jpg,NA,NA,pleasant,unpleasant,NA,NA,NA,NA,NA,left,2800.80000000028,true,NA,NA,NA,NA,NA
Iu3YjxPt,3mdwe879vkfdd3966pwqlqs2jwg9bh,36nemu28xjqmvao5hr1t2a7zvegmwd,Iu3YjxPt,2020-0188,2021-10-14,08:49:02,09:58:23,NA,incomplete,false,true,NA,2,31,NA,orange,n_s_099.jpg,NA,NA,unpleasant,pleasant,NA,NA,NA,NA,NA,right,2257.10000000009,true,NA,NA,NA,NA,NA
Iu3YjxPt,3mdwe879vkfdd3966pwqlqs2jwg9bh,36nemu28xjqmvao5hr1t2a7zvegmwd,Iu3YjxPt,2020-0188,2021-10-14,08:49:02,09:58:23,NA,incomplete,false,true,NA,2,32,NA,orange,m_l_020.jpg,NA,NA,unpleasant,pleasant,NA,NA,NA,NA,NA,right,1933.5,true,NA,NA,NA,NA,NA
Iu3YjxPt,3mdwe879vkfdd3966pwqlqs2jwg9bh,36nemu28xjqmvao5hr1t2a7zvegmwd,Iu3YjxPt,2020-0188,2021-10-14,08:49:02,09:58:23,NA,incomplete,false,true,NA,2,33,NA,orange,m_l_093.jpg,NA,NA,pleasant,unpleasant,NA,NA,NA,NA,NA,left,2012.29999999981,true,NA,NA,NA,NA,NA
Iu3YjxPt,3mdwe879vkfdd3966pwqlqs2jwg9bh,36nemu28xjqmvao5hr1t2a7zvegmwd,Iu3YjxPt,2020-0188,2021-10-14,08:49:02,09:58:23,NA,incomplete,false,true,NA,2,34,NA,orange,m_l_078.jpg,NA,NA,pleasant,unpleasant,NA,NA,NA,NA,NA,left,1558.70000000019,true,NA,NA,NA,NA,NA
Iu3YjxPt,3mdwe879vkfdd3966pwqlqs2jwg9bh,36nemu28xjqmvao5hr1t2a7zvegmwd,Iu3YjxPt,2020-0188,2021-10-14,08:49:02,09:58:23,NA,incomplete,false,true,NA,2,35,NA,orange,m_s_090.jpg,NA,NA,pleasant,unpleasant,NA,NA,NA,NA,NA,left,1202.5,true,NA,NA,NA,NA,NA
Iu3YjxPt,3mdwe879vkfdd3966pwqlqs2jwg9bh,36nemu28xjqmvao5hr1t2a7zvegmwd,Iu3YjxPt,2020-0188,2021-10-14,08:49:02,09:58:23,NA,incomplete,false,NA,true,2,0,NA,NA,NA,right,present,NA,NA,m_s_090.jpg,orange,n_s_099.jpg,orange,within,NA,NaN,NA,right,4159,1,0,1327.5999999996275
Iu3YjxPt,3mdwe879vkfdd3966pwqlqs2jwg9bh,36nemu28xjqmvao5hr1t2a7zvegmwd,Iu3YjxPt,2020-0188,2021-10-14,08:49:02,09:58:23,NA,incomplete,false,NA,true,2,1,NA,NA,NA,right,present,NA,NA,n_l_029.jpg,black,n_s_014.jpg,gray,between,NA,NaN,NA,right,4095.5,1,2,3359.5
Iu3YjxPt,3mdwe879vkfdd3966pwqlqs2jwg9bh,36nemu28xjqmvao5hr1t2a7zvegmwd,Iu3YjxPt,2020-0188,2021-10-14,08:49:02,09:58:23,NA,incomplete,false,NA,true,2,2,NA,NA,NA,right,present,NA,NA,m_l_079.jpg,gray,n_l_022.jpg,gray,within,NA,NaN,NA,left,4463.399999999907,0,0,1607.8999999999069
Iu3YjxPt,3mdwe879vkfdd3966pwqlqs2jwg9bh,36nemu28xjqmvao5hr1t2a7zvegmwd,Iu3YjxPt,2020-0188,2021-10-14,08:49:02,09:58:23,NA,incomplete,false,NA,true,2,3,NA,NA,NA,right,present,NA,NA,n_s_106.jpg,purple,m_l_071.jpg,yellow,between,NA,NaN,NA,right,2319.100000000093,1,1,1431.3000000002794
Iu3YjxPt,3mdwe879vkfdd3966pwqlqs2jwg9bh,36nemu28xjqmvao5hr1t2a7zvegmwd,Iu3YjxPt,2020-0188,2021-10-14,08:49:02,09:58:23,NA,incomplete,false,NA,true,2,4,NA,NA,NA,right,present,NA,NA,m_l_020.jpg,orange,n_l_071.jpg,black,between,NA,NaN,NA,right,2959.399999999907,1,2,2063.399999999907
Iu3YjxPt,3mdwe879vkfdd3966pwqlqs2jwg9bh,36nemu28xjqmvao5hr1t2a7zvegmwd,Iu3YjxPt,2020-0188,2021-10-14,08:49:02,09:58:23,NA,incomplete,false,NA,true,2,5,NA,NA,NA,right,present,NA,NA,m_l_108.jpg,brown,n_l_042.jpg,brown,within,NA,NaN,NA,left,4823.299999999814,0,1,2943.399999999907
Iu3YjxPt,3mdwe879vkfdd3966pwqlqs2jwg9bh,36nemu28xjqmvao5hr1t2a7zvegmwd,Iu3YjxPt,2020-0188,2021-10-14,08:49:02,09:58:23,NA,incomplete,false,NA,true,2,6,NA,NA,NA,right,present,NA,NA,m_l_023.jpg,gray,n_s_004.jpg,brown,between,NA,NaN,NA,right,3815.5,1,2,3199.5
Iu3YjxPt,3mdwe879vkfdd3966pwqlqs2jwg9bh,36nemu28xjqmvao5hr1t2a7zvegmwd,Iu3YjxPt,2020-0188,2021-10-14,08:49:02,09:58:23,NA,incomplete,false,NA,true,2,7,NA,NA,NA,right,present,NA,NA,m_l_100.jpg,black,n_l_068.jpg,black,within,NA,NaN,NA,right,2768,1,0,1031.5
Iu3YjxPt,3mdwe879vkfdd3966pwqlqs2jwg9bh,36nemu28xjqmvao5hr1t2a7zvegmwd,Iu3YjxPt,2020-0188,2021-10-14,08:49:02,09:58:23,NA,incomplete,false,NA,true,2,8,NA,NA,NA,left,present,NA,NA,m_s_009.jpg,yellow,m_s_064.jpg,yellow,within,NA,NaN,NA,left,3303.7999999998137,1,0,1471.5
Iu3YjxPt,3mdwe879vkfdd3966pwqlqs2jwg9bh,36nemu28xjqmvao5hr1t2a7zvegmwd,Iu3YjxPt,2020-0188,2021-10-14,08:49:02,09:58:23,NA,incomplete,false,NA,true,2,9,NA,NA,NA,right,present,NA,NA,n_l_076.jpg,purple,n_l_009.jpg,purple,within,NA,NaN,NA,right,3912,1,0,1335.6000000000931
Iu3YjxPt,3mdwe879vkfdd3966pwqlqs2jwg9bh,36nemu28xjqmvao5hr1t2a7zvegmwd,Iu3YjxPt,2020-0188,2021-10-14,08:49:02,09:58:23,NA,incomplete,false,NA,true,2,10,NA,NA,NA,right,present,NA,NA,m_l_070.jpg,brown,m_s_022.jpg,purple,between,NA,NaN,NA,right,3255.4000000003725,1,3,3423.5
Iu3YjxPt,3mdwe879vkfdd3966pwqlqs2jwg9bh,36nemu28xjqmvao5hr1t2a7zvegmwd,Iu3YjxPt,2020-0188,2021-10-14,08:49:02,09:58:23,NA,incomplete,false,true,NA,3,0,NA,red,m_s_037.jpg,NA,NA,unpleasant,pleasant,NA,NA,NA,NA,NA,right,1812.09999999963,true,NA,NA,NA,NA,NA
Iu3YjxPt,3mdwe879vkfdd3966pwqlqs2jwg9bh,36nemu28xjqmvao5hr1t2a7zvegmwd,Iu3YjxPt,2020-0188,2021-10-14,08:49:02,09:58:23,NA,incomplete,false,true,NA,3,1,NA,red,n_l_075.jpg,NA,NA,pleasant,unpleasant,NA,NA,NA,NA,NA,right,2176.89999999991,true,NA,NA,NA,NA,NA
Iu3YjxPt,3mdwe879vkfdd3966pwqlqs2jwg9bh,36nemu28xjqmvao5hr1t2a7zvegmwd,Iu3YjxPt,2020-0188,2021-10-14,08:49:02,09:58:23,NA,incomplete,false,true,NA,3,2,NA,red,m_l_016.jpg,NA,NA,pleasant,unpleasant,NA,NA,NA,NA,NA,left,1666.40000000037,true,NA,NA,NA,NA,NA
Iu3YjxPt,3mdwe879vkfdd3966pwqlqs2jwg9bh,36nemu28xjqmvao5hr1t2a7zvegmwd,Iu3YjxPt,2020-0188,2021-10-14,08:49:02,09:58:23,NA,incomplete,false,true,NA,3,3,NA,red,n_l_019.jpg,NA,NA,pleasant,unpleasant,NA,NA,NA,NA,NA,left,2005.70000000019,true,NA,NA,NA,NA,NA
Iu3YjxPt,3mdwe879vkfdd3966pwqlqs2jwg9bh,36nemu28xjqmvao5hr1t2a7zvegmwd,Iu3YjxPt,2020-0188,2021-10-14,08:49:02,09:58:23,NA,incomplete,false,true,NA,3,4,NA,red,m_l_024.jpg,NA,NA,unpleasant,pleasant,NA,NA,NA,NA,NA,right,2250.20000000019,true,NA,NA,NA,NA,NA
Iu3YjxPt,3mdwe879vkfdd3966pwqlqs2jwg9bh,36nemu28xjqmvao5hr1t2a7zvegmwd,Iu3YjxPt,2020-0188,2021-10-14,08:49:02,09:58:23,NA,incomplete,false,true,NA,3,5,NA,red,m_s_059.jpg,NA,NA,unpleasant,pleasant,NA,NA,NA,NA,NA,right,2444.79999999981,true,NA,NA,NA,NA,NA
Iu3YjxPt,3mdwe879vkfdd3966pwqlqs2jwg9bh,36nemu28xjqmvao5hr1t2a7zvegmwd,Iu3YjxPt,2020-0188,2021-10-14,08:49:02,09:58:23,NA,incomplete,false,true,NA,3,6,NA,white,m_l_080.jpg,NA,NA,pleasant,unpleasant,NA,NA,NA,NA,NA,left,2362.19999999972,true,NA,NA,NA,NA,NA
Iu3YjxPt,3mdwe879vkfdd3966pwqlqs2jwg9bh,36nemu28xjqmvao5hr1t2a7zvegmwd,Iu3YjxPt,2020-0188,2021-10-14,08:49:02,09:58:23,NA,incomplete,false,true,NA,3,7,NA,white,m_l_031.jpg,NA,NA,pleasant,unpleasant,NA,NA,NA,NA,NA,right,2014.79999999981,true,NA,NA,NA,NA,NA
Iu3YjxPt,3mdwe879vkfdd3966pwqlqs2jwg9bh,36nemu28xjqmvao5hr1t2a7zvegmwd,Iu3YjxPt,2020-0188,2021-10-14,08:49:02,09:58:23,NA,incomplete,false,true,NA,3,8,NA,white,n_l_110.jpg,NA,NA,unpleasant,pleasant,NA,NA,NA,NA,NA,right,1600.39999999991,true,NA,NA,NA,NA,NA
Iu3YjxPt,3mdwe879vkfdd3966pwqlqs2jwg9bh,36nemu28xjqmvao5hr1t2a7zvegmwd,Iu3YjxPt,2020-0188,2021-10-14,08:49:02,09:58:23,NA,incomplete,false,true,NA,3,9,NA,white,n_s_048.jpg,NA,NA,pleasant,unpleasant,NA,NA,NA,NA,NA,left,1479.39999999991,true,NA,NA,NA,NA,NA
Iu3YjxPt,3mdwe879vkfdd3966pwqlqs2jwg9bh,36nemu28xjqmvao5hr1t2a7zvegmwd,Iu3YjxPt,2020-0188,2021-10-14,08:49:02,09:58:23,NA,incomplete,false,true,NA,3,10,NA,white,n_s_108.jpg,NA,NA,pleasant,unpleasant,NA,NA,NA,NA,NA,right,1557,true,NA,NA,NA,NA,NA
Iu3YjxPt,3mdwe879vkfdd3966pwqlqs2jwg9bh,36nemu28xjqmvao5hr1t2a7zvegmwd,Iu3YjxPt,2020-0188,2021-10-14,08:49:02,09:58:23,NA,incomplete,false,true,NA,3,11,NA,white,n_s_043.jpg,NA,NA,pleasant,unpleasant,NA,NA,NA,NA,NA,left,1631,true,NA,NA,NA,NA,NA
Iu3YjxPt,3mdwe879vkfdd3966pwqlqs2jwg9bh,36nemu28xjqmvao5hr1t2a7zvegmwd,Iu3YjxPt,2020-0188,2021-10-14,08:49:02,09:58:23,NA,incomplete,false,true,NA,3,12,NA,purple,m_l_086.jpg,NA,NA,pleasant,unpleasant,NA,NA,NA,NA,NA,left,1364.20000000019,true,NA,NA,NA,NA,NA
Iu3YjxPt,3mdwe879vkfdd3966pwqlqs2jwg9bh,36nemu28xjqmvao5hr1t2a7zvegmwd,Iu3YjxPt,2020-0188,2021-10-14,08:49:02,09:58:23,NA,incomplete,false,true,NA,3,13,NA,purple,n_s_042.jpg,NA,NA,pleasant,unpleasant,NA,NA,NA,NA,NA,right,1854.60000000009,true,NA,NA,NA,NA,NA
Iu3YjxPt,3mdwe879vkfdd3966pwqlqs2jwg9bh,36nemu28xjqmvao5hr1t2a7zvegmwd,Iu3YjxPt,2020-0188,2021-10-14,08:49:02,09:58:23,NA,incomplete,false,true,NA,3,14,NA,purple,n_l_063.jpg,NA,NA,unpleasant,pleasant,NA,NA,NA,NA,NA,right,1572.79999999981,true,NA,NA,NA,NA,NA
Iu3YjxPt,3mdwe879vkfdd3966pwqlqs2jwg9bh,36nemu28xjqmvao5hr1t2a7zvegmwd,Iu3YjxPt,2020-0188,2021-10-14,08:49:02,09:58:23,NA,incomplete,false,true,NA,3,15,NA,purple,n_l_100.jpg,NA,NA,unpleasant,pleasant,NA,NA,NA,NA,NA,right,2057.5,true,NA,NA,NA,NA,NA
Iu3YjxPt,3mdwe879vkfdd3966pwqlqs2jwg9bh,36nemu28xjqmvao5hr1t2a7zvegmwd,Iu3YjxPt,2020-0188,2021-10-14,08:49:02,09:58:23,NA,incomplete,false,true,NA,3,16,NA,purple,m_s_057.jpg,NA,NA,pleasant,unpleasant,NA,NA,NA,NA,NA,left,1731.59999999963,true,NA,NA,NA,NA,NA
Iu3YjxPt,3mdwe879vkfdd3966pwqlqs2jwg9bh,36nemu28xjqmvao5hr1t2a7zvegmwd,Iu3YjxPt,2020-0188,2021-10-14,08:49:02,09:58:23,NA,incomplete,false,true,NA,3,17,NA,purple,m_l_012.jpg,NA,NA,unpleasant,pleasant,NA,NA,NA,NA,NA,right,1631.70000000019,true,NA,NA,NA,NA,NA
Iu3YjxPt,3mdwe879vkfdd3966pwqlqs2jwg9bh,36nemu28xjqmvao5hr1t2a7zvegmwd,Iu3YjxPt,2020-0188,2021-10-14,08:49:02,09:58:23,NA,incomplete,false,true,NA,3,18,NA,gray,n_s_065.jpg,NA,NA,pleasant,unpleasant,NA,NA,NA,NA,NA,right,2143.79999999981,true,NA,NA,NA,NA,NA
Iu3YjxPt,3mdwe879vkfdd3966pwqlqs2jwg9bh,36nemu28xjqmvao5hr1t2a7zvegmwd,Iu3YjxPt,2020-0188,2021-10-14,08:49:02,09:58:23,NA,incomplete,false,true,NA,3,19,NA,gray,n_l_015.jpg,NA,NA,unpleasant,pleasant,NA,NA,NA,NA,NA,right,1804.59999999963,true,NA,NA,NA,NA,NA
Iu3YjxPt,3mdwe879vkfdd3966pwqlqs2jwg9bh,36nemu28xjqmvao5hr1t2a7zvegmwd,Iu3YjxPt,2020-0188,2021-10-14,08:49:02,09:58:23,NA,incomplete,false,true,NA,3,20,NA,gray,m_l_010.jpg,NA,NA,pleasant,unpleasant,NA,NA,NA,NA,NA,left,1312.5,true,NA,NA,NA,NA,NA
Iu3YjxPt,3mdwe879vkfdd3966pwqlqs2jwg9bh,36nemu28xjqmvao5hr1t2a7zvegmwd,Iu3YjxPt,2020-0188,2021-10-14,08:49:02,09:58:23,NA,incomplete,false,true,NA,3,21,NA,gray,m_s_101.jpg,NA,NA,pleasant,unpleasant,NA,NA,NA,NA,NA,left,1622.30000000075,true,NA,NA,NA,NA,NA
Iu3YjxPt,3mdwe879vkfdd3966pwqlqs2jwg9bh,36nemu28xjqmvao5hr1t2a7zvegmwd,Iu3YjxPt,2020-0188,2021-10-14,08:49:02,09:58:23,NA,incomplete,false,true,NA,3,22,NA,gray,m_s_030.jpg,NA,NA,pleasant,unpleasant,NA,NA,NA,NA,NA,right,2473.80000000075,true,NA,NA,NA,NA,NA
Iu3YjxPt,3mdwe879vkfdd3966pwqlqs2jwg9bh,36nemu28xjqmvao5hr1t2a7zvegmwd,Iu3YjxPt,2020-0188,2021-10-14,08:49:02,09:58:23,NA,incomplete,false,true,NA,3,23,NA,gray,n_l_117.jpg,NA,NA,pleasant,unpleasant,NA,NA,NA,NA,NA,left,2138.29999999981,true,NA,NA,NA,NA,NA
Iu3YjxPt,3mdwe879vkfdd3966pwqlqs2jwg9bh,36nemu28xjqmvao5hr1t2a7zvegmwd,Iu3YjxPt,2020-0188,2021-10-14,08:49:02,09:58:23,NA,incomplete,false,true,NA,3,24,NA,blue,m_s_100.jpg,NA,NA,pleasant,unpleasant,NA,NA,NA,NA,NA,left,1993.5,true,NA,NA,NA,NA,NA
Iu3YjxPt,3mdwe879vkfdd3966pwqlqs2jwg9bh,36nemu28xjqmvao5hr1t2a7zvegmwd,Iu3YjxPt,2020-0188,2021-10-14,08:49:02,09:58:23,NA,incomplete,false,true,NA,3,25,NA,blue,m_l_085.jpg,NA,NA,unpleasant,pleasant,NA,NA,NA,NA,NA,right,1258.40000000037,true,NA,NA,NA,NA,NA
Iu3YjxPt,3mdwe879vkfdd3966pwqlqs2jwg9bh,36nemu28xjqmvao5hr1t2a7zvegmwd,Iu3YjxPt,2020-0188,2021-10-14,08:49:02,09:58:23,NA,incomplete,false,true,NA,3,26,NA,blue,n_s_071.jpg,NA,NA,pleasant,unpleasant,NA,NA,NA,NA,NA,left,1242,true,NA,NA,NA,NA,NA
Iu3YjxPt,3mdwe879vkfdd3966pwqlqs2jwg9bh,36nemu28xjqmvao5hr1t2a7zvegmwd,Iu3YjxPt,2020-0188,2021-10-14,08:49:02,09:58:23,NA,incomplete,false,true,NA,3,27,NA,blue,n_l_001.jpg,NA,NA,unpleasant,pleasant,NA,NA,NA,NA,NA,left,1526.20000000019,true,NA,NA,NA,NA,NA
Iu3YjxPt,3mdwe879vkfdd3966pwqlqs2jwg9bh,36nemu28xjqmvao5hr1t2a7zvegmwd,Iu3YjxPt,2020-0188,2021-10-14,08:49:02,09:58:23,NA,incomplete,false,true,NA,3,28,NA,blue,m_s_060.jpg,NA,NA,unpleasant,pleasant,NA,NA,NA,NA,NA,right,991.5,true,NA,NA,NA,NA,NA
Iu3YjxPt,3mdwe879vkfdd3966pwqlqs2jwg9bh,36nemu28xjqmvao5hr1t2a7zvegmwd,Iu3YjxPt,2020-0188,2021-10-14,08:49:02,09:58:23,NA,incomplete,false,true,NA,3,29,NA,blue,n_l_090.jpg,NA,NA,pleasant,unpleasant,NA,NA,NA,NA,NA,right,1363.70000000019,true,NA,NA,NA,NA,NA
Iu3YjxPt,3mdwe879vkfdd3966pwqlqs2jwg9bh,36nemu28xjqmvao5hr1t2a7zvegmwd,Iu3YjxPt,2020-0188,2021-10-14,08:49:02,09:58:23,NA,incomplete,false,true,NA,3,30,NA,yellow,m_s_087.jpg,NA,NA,pleasant,unpleasant,NA,NA,NA,NA,NA,left,2009.70000000019,true,NA,NA,NA,NA,NA
Iu3YjxPt,3mdwe879vkfdd3966pwqlqs2jwg9bh,36nemu28xjqmvao5hr1t2a7zvegmwd,Iu3YjxPt,2020-0188,2021-10-14,08:49:02,09:58:23,NA,incomplete,false,true,NA,3,31,NA,yellow,n_l_109.jpg,NA,NA,pleasant,unpleasant,NA,NA,NA,NA,NA,left,2355.29999999981,true,NA,NA,NA,NA,NA
Iu3YjxPt,3mdwe879vkfdd3966pwqlqs2jwg9bh,36nemu28xjqmvao5hr1t2a7zvegmwd,Iu3YjxPt,2020-0188,2021-10-14,08:49:02,09:58:23,NA,incomplete,false,true,NA,3,32,NA,yellow,n_s_084.jpg,NA,NA,unpleasant,pleasant,NA,NA,NA,NA,NA,right,1271.40000000037,true,NA,NA,NA,NA,NA
Iu3YjxPt,3mdwe879vkfdd3966pwqlqs2jwg9bh,36nemu28xjqmvao5hr1t2a7zvegmwd,Iu3YjxPt,2020-0188,2021-10-14,08:49:02,09:58:23,NA,incomplete,false,true,NA,3,33,NA,yellow,m_l_044.jpg,NA,NA,unpleasant,pleasant,NA,NA,NA,NA,NA,right,1872.5,true,NA,NA,NA,NA,NA
Iu3YjxPt,3mdwe879vkfdd3966pwqlqs2jwg9bh,36nemu28xjqmvao5hr1t2a7zvegmwd,Iu3YjxPt,2020-0188,2021-10-14,08:49:02,09:58:23,NA,incomplete,false,true,NA,3,34,NA,yellow,n_l_036.jpg,NA,NA,pleasant,unpleasant,NA,NA,NA,NA,NA,left,1881.59999999963,true,NA,NA,NA,NA,NA
Iu3YjxPt,3mdwe879vkfdd3966pwqlqs2jwg9bh,36nemu28xjqmvao5hr1t2a7zvegmwd,Iu3YjxPt,2020-0188,2021-10-14,08:49:02,09:58:23,NA,incomplete,false,true,NA,3,35,NA,yellow,n_l_038.jpg,NA,NA,unpleasant,pleasant,NA,NA,NA,NA,NA,right,1587.89999999944,true,NA,NA,NA,NA,NA
Iu3YjxPt,3mdwe879vkfdd3966pwqlqs2jwg9bh,36nemu28xjqmvao5hr1t2a7zvegmwd,Iu3YjxPt,2020-0188,2021-10-14,08:49:02,09:58:23,NA,incomplete,false,NA,true,3,0,NA,NA,NA,right,present,NA,NA,n_l_117.jpg,gray,n_l_015.jpg,gray,within,NA,NaN,NA,right,6806.5999999996275,1,0,1655.699999999255
Iu3YjxPt,3mdwe879vkfdd3966pwqlqs2jwg9bh,36nemu28xjqmvao5hr1t2a7zvegmwd,Iu3YjxPt,2020-0188,2021-10-14,08:49:02,09:58:23,NA,incomplete,false,NA,true,3,1,NA,NA,NA,left,present,NA,NA,n_s_042.jpg,purple,m_l_012.jpg,purple,within,NA,NaN,NA,right,6295.200000000186,0,0,1527
Iu3YjxPt,3mdwe879vkfdd3966pwqlqs2jwg9bh,36nemu28xjqmvao5hr1t2a7zvegmwd,Iu3YjxPt,2020-0188,2021-10-14,08:49:02,09:58:23,NA,incomplete,false,NA,true,3,2,NA,NA,NA,left,present,NA,NA,m_l_031.jpg,white,n_s_043.jpg,white,within,NA,NaN,NA,left,4471.600000000559,1,0,998.9000000003725
Iu3YjxPt,3mdwe879vkfdd3966pwqlqs2jwg9bh,36nemu28xjqmvao5hr1t2a7zvegmwd,Iu3YjxPt,2020-0188,2021-10-14,08:49:02,09:58:23,NA,incomplete,false,NA,true,3,3,NA,NA,NA,right,present,NA,NA,n_s_084.jpg,yellow,m_s_060.jpg,blue,between,NA,NaN,NA,left,4295.0999999996275,0,2,2607
Iu3YjxPt,3mdwe879vkfdd3966pwqlqs2jwg9bh,36nemu28xjqmvao5hr1t2a7zvegmwd,Iu3YjxPt,2020-0188,2021-10-14,08:49:02,09:58:23,NA,incomplete,false,NA,true,3,4,NA,NA,NA,right,present,NA,NA,n_l_090.jpg,blue,m_l_085.jpg,blue,within,NA,NaN,NA,left,5647.600000000559,0,0,2271.4000000003725
Iu3YjxPt,3mdwe879vkfdd3966pwqlqs2jwg9bh,36nemu28xjqmvao5hr1t2a7zvegmwd,Iu3YjxPt,2020-0188,2021-10-14,08:49:02,09:58:23,NA,incomplete,false,NA,true,3,5,NA,NA,NA,left,present,NA,NA,m_s_057.jpg,purple,m_l_010.jpg,gray,between,NA,NaN,NA,left,3527.0999999996275,1,1,1015.5
Iu3YjxPt,3mdwe879vkfdd3966pwqlqs2jwg9bh,36nemu28xjqmvao5hr1t2a7zvegmwd,Iu3YjxPt,2020-0188,2021-10-14,08:49:02,09:58:23,NA,incomplete,false,NA,true,3,6,NA,NA,NA,right,present,NA,NA,n_l_110.jpg,white,m_l_024.jpg,red,between,NA,NaN,NA,right,3527.5,1,1,1303.7999999998137
Iu3YjxPt,3mdwe879vkfdd3966pwqlqs2jwg9bh,36nemu28xjqmvao5hr1t2a7zvegmwd,Iu3YjxPt,2020-0188,2021-10-14,08:49:02,09:58:23,NA,incomplete,false,NA,true,3,7,NA,NA,NA,left,present,NA,NA,n_l_075.jpg,red,m_s_059.jpg,red,within,NA,NaN,NA,left,3367.4000000003725,1,0,1135.4000000003725
Iu3YjxPt,3mdwe879vkfdd3966pwqlqs2jwg9bh,36nemu28xjqmvao5hr1t2a7zvegmwd,Iu3YjxPt,2020-0188,2021-10-14,08:49:02,09:58:23,NA,incomplete,false,NA,true,3,8,NA,NA,NA,left,present,NA,NA,m_s_030.jpg,gray,n_s_071.jpg,blue,between,NA,NaN,NA,left,4023.399999999441,1,2,1928.1000000005588
Iu3YjxPt,3mdwe879vkfdd3966pwqlqs2jwg9bh,36nemu28xjqmvao5hr1t2a7zvegmwd,Iu3YjxPt,2020-0188,2021-10-14,08:49:02,09:58:23,NA,incomplete,false,NA,true,3,9,NA,NA,NA,left,present,NA,NA,n_s_108.jpg,white,n_l_063.jpg,purple,between,NA,NaN,NA,left,2695.2999999998137,1,2,1191.5
Iu3YjxPt,3mdwe879vkfdd3966pwqlqs2jwg9bh,36nemu28xjqmvao5hr1t2a7zvegmwd,Iu3YjxPt,2020-0188,2021-10-14,08:49:02,09:58:23,NA,incomplete,false,NA,true,3,10,NA,NA,NA,right,present,NA,NA,n_l_038.jpg,yellow,n_l_109.jpg,yellow,within,NA,NaN,NA,left,4503.299999999814,0,0,1007.7000000001863
Iu3YjxPt,3mdwe879vkfdd3966pwqlqs2jwg9bh,36nemu28xjqmvao5hr1t2a7zvegmwd,Iu3YjxPt,2020-0188,2021-10-14,08:49:02,09:58:23,NA,incomplete,false,true,NA,4,0,NA,blue,m_s_077.jpg,NA,NA,pleasant,unpleasant,NA,NA,NA,NA,NA,left,1796.5,true,NA,NA,NA,NA,NA
Iu3YjxPt,3mdwe879vkfdd3966pwqlqs2jwg9bh,36nemu28xjqmvao5hr1t2a7zvegmwd,Iu3YjxPt,2020-0188,2021-10-14,08:49:02,09:58:23,NA,incomplete,false,true,NA,4,1,NA,blue,n_s_116.jpg,NA,NA,pleasant,unpleasant,NA,NA,NA,NA,NA,right,1371.60000000056,true,NA,NA,NA,NA,NA
Iu3YjxPt,3mdwe879vkfdd3966pwqlqs2jwg9bh,36nemu28xjqmvao5hr1t2a7zvegmwd,Iu3YjxPt,2020-0188,2021-10-14,08:49:02,09:58:23,NA,incomplete,false,true,NA,4,2,NA,blue,n_l_105.jpg,NA,NA,unpleasant,pleasant,NA,NA,NA,NA,NA,right,1698.09999999963,true,NA,NA,NA,NA,NA
Iu3YjxPt,3mdwe879vkfdd3966pwqlqs2jwg9bh,36nemu28xjqmvao5hr1t2a7zvegmwd,Iu3YjxPt,2020-0188,2021-10-14,08:49:02,09:58:23,NA,incomplete,false,true,NA,4,3,NA,blue,n_s_068.jpg,NA,NA,pleasant,unpleasant,NA,NA,NA,NA,NA,left,1297.10000000056,true,NA,NA,NA,NA,NA
Iu3YjxPt,3mdwe879vkfdd3966pwqlqs2jwg9bh,36nemu28xjqmvao5hr1t2a7zvegmwd,Iu3YjxPt,2020-0188,2021-10-14,08:49:02,09:58:23,NA,incomplete,false,true,NA,4,4,NA,blue,n_s_082.jpg,NA,NA,unpleasant,pleasant,NA,NA,NA,NA,NA,left,1747.60000000056,true,NA,NA,NA,NA,NA
Iu3YjxPt,3mdwe879vkfdd3966pwqlqs2jwg9bh,36nemu28xjqmvao5hr1t2a7zvegmwd,Iu3YjxPt,2020-0188,2021-10-14,08:49:02,09:58:23,NA,incomplete,false,true,NA,4,5,NA,blue,n_s_033.jpg,NA,NA,unpleasant,pleasant,NA,NA,NA,NA,NA,right,1228.29999999981,true,NA,NA,NA,NA,NA
Iu3YjxPt,3mdwe879vkfdd3966pwqlqs2jwg9bh,36nemu28xjqmvao5hr1t2a7zvegmwd,Iu3YjxPt,2020-0188,2021-10-14,08:49:02,09:58:23,NA,incomplete,false,true,NA,4,6,NA,orange,n_s_052.jpg,NA,NA,unpleasant,pleasant,NA,NA,NA,NA,NA,right,2210.5,true,NA,NA,NA,NA,NA
Iu3YjxPt,3mdwe879vkfdd3966pwqlqs2jwg9bh,36nemu28xjqmvao5hr1t2a7zvegmwd,Iu3YjxPt,2020-0188,2021-10-14,08:49:02,09:58:23,NA,incomplete,false,true,NA,4,7,NA,orange,m_s_019.jpg,NA,NA,pleasant,unpleasant,NA,NA,NA,NA,NA,left,1545.70000000019,true,NA,NA,NA,NA,NA
Iu3YjxPt,3mdwe879vkfdd3966pwqlqs2jwg9bh,36nemu28xjqmvao5hr1t2a7zvegmwd,Iu3YjxPt,2020-0188,2021-10-14,08:49:02,09:58:23,NA,incomplete,false,true,NA,4,8,NA,orange,m_l_104.jpg,NA,NA,pleasant,unpleasant,NA,NA,NA,NA,NA,left,1893.70000000019,true,NA,NA,NA,NA,NA
Iu3YjxPt,3mdwe879vkfdd3966pwqlqs2jwg9bh,36nemu28xjqmvao5hr1t2a7zvegmwd,Iu3YjxPt,2020-0188,2021-10-14,08:49:02,09:58:23,NA,incomplete,false,true,NA,4,9,NA,orange,m_l_067.jpg,NA,NA,unpleasant,pleasant,NA,NA,NA,NA,NA,right,1487.29999999981,true,NA,NA,NA,NA,NA
Iu3YjxPt,3mdwe879vkfdd3966pwqlqs2jwg9bh,36nemu28xjqmvao5hr1t2a7zvegmwd,Iu3YjxPt,2020-0188,2021-10-14,08:49:02,09:58:23,NA,incomplete,false,true,NA,4,10,NA,orange,m_l_027.jpg,NA,NA,unpleasant,pleasant,NA,NA,NA,NA,NA,right,1446.79999999981,true,NA,NA,NA,NA,NA
Iu3YjxPt,3mdwe879vkfdd3966pwqlqs2jwg9bh,36nemu28xjqmvao5hr1t2a7zvegmwd,Iu3YjxPt,2020-0188,2021-10-14,08:49:02,09:58:23,NA,incomplete,false,true,NA,4,11,NA,orange,n_l_080.jpg,NA,NA,unpleasant,pleasant,NA,NA,NA,NA,NA,right,1517,true,NA,NA,NA,NA,NA
Iu3YjxPt,3mdwe879vkfdd3966pwqlqs2jwg9bh,36nemu28xjqmvao5hr1t2a7zvegmwd,Iu3YjxPt,2020-0188,2021-10-14,08:49:02,09:58:23,NA,incomplete,false,true,NA,4,12,NA,red,m_l_008.jpg,NA,NA,pleasant,unpleasant,NA,NA,NA,NA,NA,left,2072.5,true,NA,NA,NA,NA,NA
Iu3YjxPt,3mdwe879vkfdd3966pwqlqs2jwg9bh,36nemu28xjqmvao5hr1t2a7zvegmwd,Iu3YjxPt,2020-0188,2021-10-14,08:49:02,09:58:23,NA,incomplete,false,true,NA,4,13,NA,red,m_s_065.jpg,NA,NA,unpleasant,pleasant,NA,NA,NA,NA,NA,right,2147.29999999981,true,NA,NA,NA,NA,NA
Iu3YjxPt,3mdwe879vkfdd3966pwqlqs2jwg9bh,36nemu28xjqmvao5hr1t2a7zvegmwd,Iu3YjxPt,2020-0188,2021-10-14,08:49:02,09:58:23,NA,incomplete,false,true,NA,4,14,NA,red,m_s_071.jpg,NA,NA,pleasant,unpleasant,NA,NA,NA,NA,NA,right,1859.90000000037,true,NA,NA,NA,NA,NA
Iu3YjxPt,3mdwe879vkfdd3966pwqlqs2jwg9bh,36nemu28xjqmvao5hr1t2a7zvegmwd,Iu3YjxPt,2020-0188,2021-10-14,08:49:02,09:58:23,NA,incomplete,false,true,NA,4,15,NA,red,m_s_043.jpg,NA,NA,pleasant,unpleasant,NA,NA,NA,NA,NA,right,1824.20000000019,true,NA,NA,NA,NA,NA
Iu3YjxPt,3mdwe879vkfdd3966pwqlqs2jwg9bh,36nemu28xjqmvao5hr1t2a7zvegmwd,Iu3YjxPt,2020-0188,2021-10-14,08:49:02,09:58:23,NA,incomplete,false,true,NA,4,16,NA,red,n_s_064.jpg,NA,NA,unpleasant,pleasant,NA,NA,NA,NA,NA,left,1408.20000000019,true,NA,NA,NA,NA,NA
Iu3YjxPt,3mdwe879vkfdd3966pwqlqs2jwg9bh,36nemu28xjqmvao5hr1t2a7zvegmwd,Iu3YjxPt,2020-0188,2021-10-14,08:49:02,09:58:23,NA,incomplete,false,true,NA,4,17,NA,red,m_s_031.jpg,NA,NA,pleasant,unpleasant,NA,NA,NA,NA,NA,left,1314.09999999963,true,NA,NA,NA,NA,NA
Iu3YjxPt,3mdwe879vkfdd3966pwqlqs2jwg9bh,36nemu28xjqmvao5hr1t2a7zvegmwd,Iu3YjxPt,2020-0188,2021-10-14,08:49:02,09:58:23,NA,incomplete,false,true,NA,4,18,NA,white,m_s_081.jpg,NA,NA,pleasant,unpleasant,NA,NA,NA,NA,NA,left,2086.5,true,NA,NA,NA,NA,NA
Iu3YjxPt,3mdwe879vkfdd3966pwqlqs2jwg9bh,36nemu28xjqmvao5hr1t2a7zvegmwd,Iu3YjxPt,2020-0188,2021-10-14,08:49:02,09:58:23,NA,incomplete,false,true,NA,4,19,NA,white,m_s_032.jpg,NA,NA,pleasant,unpleasant,NA,NA,NA,NA,NA,left,1165,true,NA,NA,NA,NA,NA
Iu3YjxPt,3mdwe879vkfdd3966pwqlqs2jwg9bh,36nemu28xjqmvao5hr1t2a7zvegmwd,Iu3YjxPt,2020-0188,2021-10-14,08:49:02,09:58:23,NA,incomplete,false,true,NA,4,20,NA,white,n_l_025.jpg,NA,NA,unpleasant,pleasant,NA,NA,NA,NA,NA,left,1632.59999999963,true,NA,NA,NA,NA,NA
Iu3YjxPt,3mdwe879vkfdd3966pwqlqs2jwg9bh,36nemu28xjqmvao5hr1t2a7zvegmwd,Iu3YjxPt,2020-0188,2021-10-14,08:49:02,09:58:23,NA,incomplete,false,true,NA,4,21,NA,white,n_l_003.jpg,NA,NA,unpleasant,pleasant,NA,NA,NA,NA,NA,right,1569.09999999963,true,NA,NA,NA,NA,NA
Iu3YjxPt,3mdwe879vkfdd3966pwqlqs2jwg9bh,36nemu28xjqmvao5hr1t2a7zvegmwd,Iu3YjxPt,2020-0188,2021-10-14,08:49:02,09:58:23,NA,incomplete,false,true,NA,4,22,NA,white,n_l_070.jpg,NA,NA,unpleasant,pleasant,NA,NA,NA,NA,NA,right,1494.20000000019,true,NA,NA,NA,NA,NA
Iu3YjxPt,3mdwe879vkfdd3966pwqlqs2jwg9bh,36nemu28xjqmvao5hr1t2a7zvegmwd,Iu3YjxPt,2020-0188,2021-10-14,08:49:02,09:58:23,NA,incomplete,false,true,NA,4,23,NA,white,m_s_074.jpg,NA,NA,unpleasant,pleasant,NA,NA,NA,NA,NA,left,1610.59999999963,true,NA,NA,NA,NA,NA
Iu3YjxPt,3mdwe879vkfdd3966pwqlqs2jwg9bh,36nemu28xjqmvao5hr1t2a7zvegmwd,Iu3YjxPt,2020-0188,2021-10-14,08:49:02,09:58:23,NA,incomplete,false,true,NA,4,24,NA,yellow,n_s_113.jpg,NA,NA,pleasant,unpleasant,NA,NA,NA,NA,NA,left,2327.59999999963,true,NA,NA,NA,NA,NA
Iu3YjxPt,3mdwe879vkfdd3966pwqlqs2jwg9bh,36nemu28xjqmvao5hr1t2a7zvegmwd,Iu3YjxPt,2020-0188,2021-10-14,08:49:02,09:58:23,NA,incomplete,false,true,NA,4,25,NA,yellow,m_l_101.jpg,NA,NA,unpleasant,pleasant,NA,NA,NA,NA,NA,right,1567.69999999925,true,NA,NA,NA,NA,NA
Iu3YjxPt,3mdwe879vkfdd3966pwqlqs2jwg9bh,36nemu28xjqmvao5hr1t2a7zvegmwd,Iu3YjxPt,2020-0188,2021-10-14,08:49:02,09:58:23,NA,incomplete,false,true,NA,4,26,NA,yellow,m_s_040.jpg,NA,NA,unpleasant,pleasant,NA,NA,NA,NA,NA,right,1897.59999999963,true,NA,NA,NA,NA,NA
Iu3YjxPt,3mdwe879vkfdd3966pwqlqs2jwg9bh,36nemu28xjqmvao5hr1t2a7zvegmwd,Iu3YjxPt,2020-0188,2021-10-14,08:49:02,09:58:23,NA,incomplete,false,true,NA,4,27,NA,yellow,n_l_045.jpg,NA,NA,pleasant,unpleasant,NA,NA,NA,NA,NA,left,2103.09999999963,true,NA,NA,NA,NA,NA
Iu3YjxPt,3mdwe879vkfdd3966pwqlqs2jwg9bh,36nemu28xjqmvao5hr1t2a7zvegmwd,Iu3YjxPt,2020-0188,2021-10-14,08:49:02,09:58:23,NA,incomplete,false,true,NA,4,28,NA,yellow,m_l_095.jpg,NA,NA,pleasant,unpleasant,NA,NA,NA,NA,NA,left,1873.29999999981,true,NA,NA,NA,NA,NA
Iu3YjxPt,3mdwe879vkfdd3966pwqlqs2jwg9bh,36nemu28xjqmvao5hr1t2a7zvegmwd,Iu3YjxPt,2020-0188,2021-10-14,08:49:02,09:58:23,NA,incomplete,false,true,NA,4,29,NA,yellow,m_s_093.jpg,NA,NA,unpleasant,pleasant,NA,NA,NA,NA,NA,right,1777.79999999981,true,NA,NA,NA,NA,NA
Iu3YjxPt,3mdwe879vkfdd3966pwqlqs2jwg9bh,36nemu28xjqmvao5hr1t2a7zvegmwd,Iu3YjxPt,2020-0188,2021-10-14,08:49:02,09:58:23,NA,incomplete,false,true,NA,4,30,NA,gray,m_s_107.jpg,NA,NA,pleasant,unpleasant,NA,NA,NA,NA,NA,right,2938.89999999944,true,NA,NA,NA,NA,NA
Iu3YjxPt,3mdwe879vkfdd3966pwqlqs2jwg9bh,36nemu28xjqmvao5hr1t2a7zvegmwd,Iu3YjxPt,2020-0188,2021-10-14,08:49:02,09:58:23,NA,incomplete,false,true,NA,4,31,NA,gray,m_l_099.jpg,NA,NA,pleasant,unpleasant,NA,NA,NA,NA,NA,left,1788.60000000056,true,NA,NA,NA,NA,NA
Iu3YjxPt,3mdwe879vkfdd3966pwqlqs2jwg9bh,36nemu28xjqmvao5hr1t2a7zvegmwd,Iu3YjxPt,2020-0188,2021-10-14,08:49:02,09:58:23,NA,incomplete,false,true,NA,4,32,NA,gray,n_s_075.jpg,NA,NA,unpleasant,pleasant,NA,NA,NA,NA,NA,left,1441.89999999944,true,NA,NA,NA,NA,NA
Iu3YjxPt,3mdwe879vkfdd3966pwqlqs2jwg9bh,36nemu28xjqmvao5hr1t2a7zvegmwd,Iu3YjxPt,2020-0188,2021-10-14,08:49:02,09:58:23,NA,incomplete,false,true,NA,4,33,NA,gray,m_l_074.jpg,NA,NA,pleasant,unpleasant,NA,NA,NA,NA,NA,left,1824.09999999963,true,NA,NA,NA,NA,NA
Iu3YjxPt,3mdwe879vkfdd3966pwqlqs2jwg9bh,36nemu28xjqmvao5hr1t2a7zvegmwd,Iu3YjxPt,2020-0188,2021-10-14,08:49:02,09:58:23,NA,incomplete,false,true,NA,4,34,NA,gray,n_s_063.jpg,NA,NA,unpleasant,pleasant,NA,NA,NA,NA,NA,right,1808,true,NA,NA,NA,NA,NA
Iu3YjxPt,3mdwe879vkfdd3966pwqlqs2jwg9bh,36nemu28xjqmvao5hr1t2a7zvegmwd,Iu3YjxPt,2020-0188,2021-10-14,08:49:02,09:58:23,NA,incomplete,false,true,NA,4,35,NA,gray,n_s_011.jpg,NA,NA,unpleasant,pleasant,NA,NA,NA,NA,NA,right,1870.69999999925,true,NA,NA,NA,NA,NA
Iu3YjxPt,3mdwe879vkfdd3966pwqlqs2jwg9bh,36nemu28xjqmvao5hr1t2a7zvegmwd,Iu3YjxPt,2020-0188,2021-10-14,08:49:02,09:58:23,NA,incomplete,false,NA,true,4,0,NA,NA,NA,right,absent,NA,NA,n_s_075.jpg,gray,m_l_095.jpg,yellow,between,NA,NaN,NA,right,4366.700000000186,1,1,3294.7999999998137
Iu3YjxPt,3mdwe879vkfdd3966pwqlqs2jwg9bh,36nemu28xjqmvao5hr1t2a7zvegmwd,Iu3YjxPt,2020-0188,2021-10-14,08:49:02,09:58:23,NA,incomplete,false,NA,true,4,1,NA,NA,NA,left,absent,NA,NA,m_l_099.jpg,gray,n_s_011.jpg,gray,within,NA,NaN,NA,left,5302.5,1,2,1503.8999999994412
Iu3YjxPt,3mdwe879vkfdd3966pwqlqs2jwg9bh,36nemu28xjqmvao5hr1t2a7zvegmwd,Iu3YjxPt,2020-0188,2021-10-14,08:49:02,09:58:23,NA,incomplete,false,NA,true,4,2,NA,NA,NA,right,absent,NA,NA,m_s_031.jpg,red,m_s_065.jpg,red,within,NA,NaN,NA,left,4535.200000000186,0,2,2295.300000000745
Iu3YjxPt,3mdwe879vkfdd3966pwqlqs2jwg9bh,36nemu28xjqmvao5hr1t2a7zvegmwd,Iu3YjxPt,2020-0188,2021-10-14,08:49:02,09:58:23,NA,incomplete,false,NA,true,4,3,NA,NA,NA,left,absent,NA,NA,m_l_101.jpg,yellow,m_s_093.jpg,yellow,within,NA,NaN,NA,left,6505.300000000745,1,1,959.7999999998137
Iu3YjxPt,3mdwe879vkfdd3966pwqlqs2jwg9bh,36nemu28xjqmvao5hr1t2a7zvegmwd,Iu3YjxPt,2020-0188,2021-10-14,08:49:02,09:58:23,NA,incomplete,false,NA,true,4,4,NA,NA,NA,right,absent,NA,NA,m_s_040.jpg,yellow,n_l_070.jpg,white,between,NA,NaN,NA,right,2151.7000000001863,1,1,2999.2999999998137
Iu3YjxPt,3mdwe879vkfdd3966pwqlqs2jwg9bh,36nemu28xjqmvao5hr1t2a7zvegmwd,Iu3YjxPt,2020-0188,2021-10-14,08:49:02,09:58:23,NA,incomplete,false,NA,true,4,5,NA,NA,NA,left,absent,NA,NA,m_s_019.jpg,orange,n_l_080.jpg,orange,within,NA,NaN,NA,left,2488.0999999996275,1,2,1503.2999999998137
Iu3YjxPt,3mdwe879vkfdd3966pwqlqs2jwg9bh,36nemu28xjqmvao5hr1t2a7zvegmwd,Iu3YjxPt,2020-0188,2021-10-14,08:49:02,09:58:23,NA,incomplete,false,NA,true,4,6,NA,NA,NA,left,absent,NA,NA,n_s_064.jpg,red,n_l_025.jpg,white,between,NA,NaN,NA,left,3143.600000000559,1,2,1071.1000000005588
Iu3YjxPt,3mdwe879vkfdd3966pwqlqs2jwg9bh,36nemu28xjqmvao5hr1t2a7zvegmwd,Iu3YjxPt,2020-0188,2021-10-14,08:49:02,09:58:23,NA,incomplete,false,NA,true,4,7,NA,NA,NA,right,absent,NA,NA,m_l_104.jpg,orange,n_s_082.jpg,blue,between,NA,NaN,NA,right,4479.200000000186,1,1,1743.2000000001863
Iu3YjxPt,3mdwe879vkfdd3966pwqlqs2jwg9bh,36nemu28xjqmvao5hr1t2a7zvegmwd,Iu3YjxPt,2020-0188,2021-10-14,08:49:02,09:58:23,NA,incomplete,false,NA,true,4,8,NA,NA,NA,right,absent,NA,NA,m_s_071.jpg,red,m_l_027.jpg,orange,between,NA,NaN,NA,right,3583.7000000001863,1,2,2799.4000000003725
Iu3YjxPt,3mdwe879vkfdd3966pwqlqs2jwg9bh,36nemu28xjqmvao5hr1t2a7zvegmwd,Iu3YjxPt,2020-0188,2021-10-14,08:49:02,09:58:23,NA,incomplete,false,NA,true,4,9,NA,NA,NA,right,absent,NA,NA,m_s_074.jpg,white,m_s_032.jpg,white,within,NA,NaN,NA,right,2824.7999999998137,1,2,1311.4000000003725
Iu3YjxPt,3mdwe879vkfdd3966pwqlqs2jwg9bh,36nemu28xjqmvao5hr1t2a7zvegmwd,Iu3YjxPt,2020-0188,2021-10-14,08:49:02,09:58:23,NA,incomplete,false,NA,true,4,10,NA,NA,NA,left,absent,NA,NA,n_s_116.jpg,blue,n_s_033.jpg,blue,within,NA,NaN,NA,right,2784,0,1,1295.2000000001863
Iu3YjxPt,3mdwe879vkfdd3966pwqlqs2jwg9bh,36nemu28xjqmvao5hr1t2a7zvegmwd,Iu3YjxPt,2020-0188,2021-10-14,08:49:02,09:58:23,NA,incomplete,false,true,NA,5,0,NA,gray,m_s_046.jpg,NA,NA,unpleasant,pleasant,NA,NA,NA,NA,NA,right,1485.29999999981,true,NA,NA,NA,NA,NA
Iu3YjxPt,3mdwe879vkfdd3966pwqlqs2jwg9bh,36nemu28xjqmvao5hr1t2a7zvegmwd,Iu3YjxPt,2020-0188,2021-10-14,08:49:02,09:58:23,NA,incomplete,false,true,NA,5,1,NA,gray,m_s_114.jpg,NA,NA,pleasant,unpleasant,NA,NA,NA,NA,NA,left,1369.29999999981,true,NA,NA,NA,NA,NA
Iu3YjxPt,3mdwe879vkfdd3966pwqlqs2jwg9bh,36nemu28xjqmvao5hr1t2a7zvegmwd,Iu3YjxPt,2020-0188,2021-10-14,08:49:02,09:58:23,NA,incomplete,false,true,NA,5,2,NA,gray,n_s_051.jpg,NA,NA,unpleasant,pleasant,NA,NA,NA,NA,NA,left,1606.70000000019,true,NA,NA,NA,NA,NA
Iu3YjxPt,3mdwe879vkfdd3966pwqlqs2jwg9bh,36nemu28xjqmvao5hr1t2a7zvegmwd,Iu3YjxPt,2020-0188,2021-10-14,08:49:02,09:58:23,NA,incomplete,false,true,NA,5,3,NA,gray,m_s_062.jpg,NA,NA,unpleasant,pleasant,NA,NA,NA,NA,NA,right,2029.20000000019,true,NA,NA,NA,NA,NA
Iu3YjxPt,3mdwe879vkfdd3966pwqlqs2jwg9bh,36nemu28xjqmvao5hr1t2a7zvegmwd,Iu3YjxPt,2020-0188,2021-10-14,08:49:02,09:58:23,NA,incomplete,false,true,NA,5,4,NA,gray,n_l_098.jpg,NA,NA,unpleasant,pleasant,NA,NA,NA,NA,NA,right,1338.30000000075,true,NA,NA,NA,NA,NA
Iu3YjxPt,3mdwe879vkfdd3966pwqlqs2jwg9bh,36nemu28xjqmvao5hr1t2a7zvegmwd,Iu3YjxPt,2020-0188,2021-10-14,08:49:02,09:58:23,NA,incomplete,false,true,NA,5,5,NA,gray,m_l_019.jpg,NA,NA,unpleasant,pleasant,NA,NA,NA,NA,NA,right,1364.89999999944,true,NA,NA,NA,NA,NA
Iu3YjxPt,3mdwe879vkfdd3966pwqlqs2jwg9bh,36nemu28xjqmvao5hr1t2a7zvegmwd,Iu3YjxPt,2020-0188,2021-10-14,08:49:02,09:58:23,NA,incomplete,false,true,NA,5,6,NA,orange,n_l_103.jpg,NA,NA,pleasant,unpleasant,NA,NA,NA,NA,NA,left,1991.80000000075,true,NA,NA,NA,NA,NA
Iu3YjxPt,3mdwe879vkfdd3966pwqlqs2jwg9bh,36nemu28xjqmvao5hr1t2a7zvegmwd,Iu3YjxPt,2020-0188,2021-10-14,08:49:02,09:58:23,NA,incomplete,false,true,NA,5,7,NA,orange,m_l_003.jpg,NA,NA,pleasant,unpleasant,NA,NA,NA,NA,NA,left,1475.90000000037,true,NA,NA,NA,NA,NA
Iu3YjxPt,3mdwe879vkfdd3966pwqlqs2jwg9bh,36nemu28xjqmvao5hr1t2a7zvegmwd,Iu3YjxPt,2020-0188,2021-10-14,08:49:02,09:58:23,NA,incomplete,false,true,NA,5,8,NA,orange,m_l_054.jpg,NA,NA,pleasant,unpleasant,NA,NA,NA,NA,NA,left,1884.09999999963,true,NA,NA,NA,NA,NA
Iu3YjxPt,3mdwe879vkfdd3966pwqlqs2jwg9bh,36nemu28xjqmvao5hr1t2a7zvegmwd,Iu3YjxPt,2020-0188,2021-10-14,08:49:02,09:58:23,NA,incomplete,false,true,NA,5,9,NA,orange,m_s_115.jpg,NA,NA,pleasant,unpleasant,NA,NA,NA,NA,NA,left,2444.89999999944,true,NA,NA,NA,NA,NA
Iu3YjxPt,3mdwe879vkfdd3966pwqlqs2jwg9bh,36nemu28xjqmvao5hr1t2a7zvegmwd,Iu3YjxPt,2020-0188,2021-10-14,08:49:02,09:58:23,NA,incomplete,false,true,NA,5,10,NA,orange,n_s_083.jpg,NA,NA,unpleasant,pleasant,NA,NA,NA,NA,NA,right,1884.5,true,NA,NA,NA,NA,NA
Iu3YjxPt,3mdwe879vkfdd3966pwqlqs2jwg9bh,36nemu28xjqmvao5hr1t2a7zvegmwd,Iu3YjxPt,2020-0188,2021-10-14,08:49:02,09:58:23,NA,incomplete,false,true,NA,5,11,NA,orange,n_s_040.jpg,NA,NA,pleasant,unpleasant,NA,NA,NA,NA,NA,right,1306.20000000019,true,NA,NA,NA,NA,NA
Iu3YjxPt,3mdwe879vkfdd3966pwqlqs2jwg9bh,36nemu28xjqmvao5hr1t2a7zvegmwd,Iu3YjxPt,2020-0188,2021-10-14,08:49:02,09:58:23,NA,incomplete,false,true,NA,5,12,NA,black,n_l_049.jpg,NA,NA,pleasant,unpleasant,NA,NA,NA,NA,NA,left,1453.70000000019,true,NA,NA,NA,NA,NA
Iu3YjxPt,3mdwe879vkfdd3966pwqlqs2jwg9bh,36nemu28xjqmvao5hr1t2a7zvegmwd,Iu3YjxPt,2020-0188,2021-10-14,08:49:02,09:58:23,NA,incomplete,false,true,NA,5,13,NA,black,m_s_056.jpg,NA,NA,unpleasant,pleasant,NA,NA,NA,NA,NA,right,1477.40000000037,true,NA,NA,NA,NA,NA
Iu3YjxPt,3mdwe879vkfdd3966pwqlqs2jwg9bh,36nemu28xjqmvao5hr1t2a7zvegmwd,Iu3YjxPt,2020-0188,2021-10-14,08:49:02,09:58:23,NA,incomplete,false,true,NA,5,14,NA,black,m_s_044.jpg,NA,NA,pleasant,unpleasant,NA,NA,NA,NA,NA,left,2012.70000000019,true,NA,NA,NA,NA,NA
Iu3YjxPt,3mdwe879vkfdd3966pwqlqs2jwg9bh,36nemu28xjqmvao5hr1t2a7zvegmwd,Iu3YjxPt,2020-0188,2021-10-14,08:49:02,09:58:23,NA,incomplete,false,true,NA,5,15,NA,black,n_s_046.jpg,NA,NA,pleasant,unpleasant,NA,NA,NA,NA,NA,right,1538.5,true,NA,NA,NA,NA,NA
Iu3YjxPt,3mdwe879vkfdd3966pwqlqs2jwg9bh,36nemu28xjqmvao5hr1t2a7zvegmwd,Iu3YjxPt,2020-0188,2021-10-14,08:49:02,09:58:23,NA,incomplete,false,true,NA,5,16,NA,black,n_s_055.jpg,NA,NA,pleasant,unpleasant,NA,NA,NA,NA,NA,right,2167.59999999963,true,NA,NA,NA,NA,NA
Iu3YjxPt,3mdwe879vkfdd3966pwqlqs2jwg9bh,36nemu28xjqmvao5hr1t2a7zvegmwd,Iu3YjxPt,2020-0188,2021-10-14,08:49:02,09:58:23,NA,incomplete,false,true,NA,5,17,NA,black,n_l_067.jpg,NA,NA,pleasant,unpleasant,NA,NA,NA,NA,NA,left,2124.90000000037,true,NA,NA,NA,NA,NA
Iu3YjxPt,3mdwe879vkfdd3966pwqlqs2jwg9bh,36nemu28xjqmvao5hr1t2a7zvegmwd,Iu3YjxPt,2020-0188,2021-10-14,08:49:02,09:58:23,NA,incomplete,false,true,NA,5,18,NA,green,m_l_021.jpg,NA,NA,pleasant,unpleasant,NA,NA,NA,NA,NA,left,2222.20000000019,true,NA,NA,NA,NA,NA
Iu3YjxPt,3mdwe879vkfdd3966pwqlqs2jwg9bh,36nemu28xjqmvao5hr1t2a7zvegmwd,Iu3YjxPt,2020-0188,2021-10-14,08:49:02,09:58:23,NA,incomplete,false,true,NA,5,19,NA,green,n_l_044.jpg,NA,NA,pleasant,unpleasant,NA,NA,NA,NA,NA,left,1288.30000000075,true,NA,NA,NA,NA,NA
Iu3YjxPt,3mdwe879vkfdd3966pwqlqs2jwg9bh,36nemu28xjqmvao5hr1t2a7zvegmwd,Iu3YjxPt,2020-0188,2021-10-14,08:49:02,09:58:23,NA,incomplete,false,true,NA,5,20,NA,green,n_s_081.jpg,NA,NA,unpleasant,pleasant,NA,NA,NA,NA,NA,right,1646.80000000075,true,NA,NA,NA,NA,NA
Iu3YjxPt,3mdwe879vkfdd3966pwqlqs2jwg9bh,36nemu28xjqmvao5hr1t2a7zvegmwd,Iu3YjxPt,2020-0188,2021-10-14,08:49:02,09:58:23,NA,incomplete,false,true,NA,5,21,NA,green,n_l_074.jpg,NA,NA,pleasant,unpleasant,NA,NA,NA,NA,NA,left,1763,true,NA,NA,NA,NA,NA
Iu3YjxPt,3mdwe879vkfdd3966pwqlqs2jwg9bh,36nemu28xjqmvao5hr1t2a7zvegmwd,Iu3YjxPt,2020-0188,2021-10-14,08:49:02,09:58:23,NA,incomplete,false,true,NA,5,22,NA,green,n_l_116.jpg,NA,NA,unpleasant,pleasant,NA,NA,NA,NA,NA,left,2292.29999999981,true,NA,NA,NA,NA,NA
Iu3YjxPt,3mdwe879vkfdd3966pwqlqs2jwg9bh,36nemu28xjqmvao5hr1t2a7zvegmwd,Iu3YjxPt,2020-0188,2021-10-14,08:49:02,09:58:23,NA,incomplete,false,true,NA,5,23,NA,green,m_s_035.jpg,NA,NA,pleasant,unpleasant,NA,NA,NA,NA,NA,left,1302.5,true,NA,NA,NA,NA,NA
Iu3YjxPt,3mdwe879vkfdd3966pwqlqs2jwg9bh,36nemu28xjqmvao5hr1t2a7zvegmwd,Iu3YjxPt,2020-0188,2021-10-14,08:49:02,09:58:23,NA,incomplete,false,true,NA,5,24,NA,white,m_s_052.jpg,NA,NA,pleasant,unpleasant,NA,NA,NA,NA,NA,left,1514.09999999963,true,NA,NA,NA,NA,NA
Iu3YjxPt,3mdwe879vkfdd3966pwqlqs2jwg9bh,36nemu28xjqmvao5hr1t2a7zvegmwd,Iu3YjxPt,2020-0188,2021-10-14,08:49:02,09:58:23,NA,incomplete,false,true,NA,5,25,NA,white,m_s_013.jpg,NA,NA,pleasant,unpleasant,NA,NA,NA,NA,NA,left,1859.60000000056,true,NA,NA,NA,NA,NA
Iu3YjxPt,3mdwe879vkfdd3966pwqlqs2jwg9bh,36nemu28xjqmvao5hr1t2a7zvegmwd,Iu3YjxPt,2020-0188,2021-10-14,08:49:02,09:58:23,NA,incomplete,false,true,NA,5,26,NA,white,m_l_022.jpg,NA,NA,pleasant,unpleasant,NA,NA,NA,NA,NA,left,1626.10000000056,true,NA,NA,NA,NA,NA
Iu3YjxPt,3mdwe879vkfdd3966pwqlqs2jwg9bh,36nemu28xjqmvao5hr1t2a7zvegmwd,Iu3YjxPt,2020-0188,2021-10-14,08:49:02,09:58:23,NA,incomplete,false,true,NA,5,27,NA,white,n_s_095.jpg,NA,NA,pleasant,unpleasant,NA,NA,NA,NA,NA,left,2006.70000000019,true,NA,NA,NA,NA,NA
Iu3YjxPt,3mdwe879vkfdd3966pwqlqs2jwg9bh,36nemu28xjqmvao5hr1t2a7zvegmwd,Iu3YjxPt,2020-0188,2021-10-14,08:49:02,09:58:23,NA,incomplete,false,true,NA,5,28,NA,white,m_l_058.jpg,NA,NA,pleasant,unpleasant,NA,NA,NA,NA,NA,left,1568.20000000019,true,NA,NA,NA,NA,NA
Iu3YjxPt,3mdwe879vkfdd3966pwqlqs2jwg9bh,36nemu28xjqmvao5hr1t2a7zvegmwd,Iu3YjxPt,2020-0188,2021-10-14,08:49:02,09:58:23,NA,incomplete,false,true,NA,5,29,NA,white,n_s_074.jpg,NA,NA,pleasant,unpleasant,NA,NA,NA,NA,NA,left,1629.79999999981,true,NA,NA,NA,NA,NA
Iu3YjxPt,3mdwe879vkfdd3966pwqlqs2jwg9bh,36nemu28xjqmvao5hr1t2a7zvegmwd,Iu3YjxPt,2020-0188,2021-10-14,08:49:02,09:58:23,NA,incomplete,false,true,NA,5,30,NA,brown,m_l_038.jpg,NA,NA,unpleasant,pleasant,NA,NA,NA,NA,NA,left,1559,true,NA,NA,NA,NA,NA
Iu3YjxPt,3mdwe879vkfdd3966pwqlqs2jwg9bh,36nemu28xjqmvao5hr1t2a7zvegmwd,Iu3YjxPt,2020-0188,2021-10-14,08:49:02,09:58:23,NA,incomplete,false,true,NA,5,31,NA,brown,m_s_008.jpg,NA,NA,pleasant,unpleasant,NA,NA,NA,NA,NA,left,1856.29999999981,true,NA,NA,NA,NA,NA
Iu3YjxPt,3mdwe879vkfdd3966pwqlqs2jwg9bh,36nemu28xjqmvao5hr1t2a7zvegmwd,Iu3YjxPt,2020-0188,2021-10-14,08:49:02,09:58:23,NA,incomplete,false,true,NA,5,32,NA,brown,m_s_048.jpg,NA,NA,pleasant,unpleasant,NA,NA,NA,NA,NA,left,1497.40000000037,true,NA,NA,NA,NA,NA
Iu3YjxPt,3mdwe879vkfdd3966pwqlqs2jwg9bh,36nemu28xjqmvao5hr1t2a7zvegmwd,Iu3YjxPt,2020-0188,2021-10-14,08:49:02,09:58:23,NA,incomplete,false,true,NA,5,33,NA,brown,m_s_024.jpg,NA,NA,pleasant,unpleasant,NA,NA,NA,NA,NA,left,1307.30000000075,true,NA,NA,NA,NA,NA
Iu3YjxPt,3mdwe879vkfdd3966pwqlqs2jwg9bh,36nemu28xjqmvao5hr1t2a7zvegmwd,Iu3YjxPt,2020-0188,2021-10-14,08:49:02,09:58:23,NA,incomplete,false,true,NA,5,34,NA,brown,n_l_006.jpg,NA,NA,unpleasant,pleasant,NA,NA,NA,NA,NA,right,1403,true,NA,NA,NA,NA,NA
Iu3YjxPt,3mdwe879vkfdd3966pwqlqs2jwg9bh,36nemu28xjqmvao5hr1t2a7zvegmwd,Iu3YjxPt,2020-0188,2021-10-14,08:49:02,09:58:23,NA,incomplete,false,true,NA,5,35,NA,brown,m_l_025.jpg,NA,NA,pleasant,unpleasant,NA,NA,NA,NA,NA,left,1079,true,NA,NA,NA,NA,NA
Iu3YjxPt,3mdwe879vkfdd3966pwqlqs2jwg9bh,36nemu28xjqmvao5hr1t2a7zvegmwd,Iu3YjxPt,2020-0188,2021-10-14,08:49:02,09:58:23,NA,incomplete,false,NA,true,5,0,NA,NA,NA,right,present,NA,NA,m_l_054.jpg,orange,n_l_098.jpg,gray,between,NA,NaN,NA,right,2446.399999999441,1,1,1230.800000000745
Iu3YjxPt,3mdwe879vkfdd3966pwqlqs2jwg9bh,36nemu28xjqmvao5hr1t2a7zvegmwd,Iu3YjxPt,2020-0188,2021-10-14,08:49:02,09:58:23,NA,incomplete,false,NA,true,5,1,NA,NA,NA,right,present,NA,NA,m_l_019.jpg,gray,m_s_114.jpg,gray,within,NA,NaN,NA,right,2655.300000000745,1,0,1319.2000000001863
Iu3YjxPt,3mdwe879vkfdd3966pwqlqs2jwg9bh,36nemu28xjqmvao5hr1t2a7zvegmwd,Iu3YjxPt,2020-0188,2021-10-14,08:49:02,09:58:23,NA,incomplete,false,NA,true,5,2,NA,NA,NA,left,present,NA,NA,n_s_083.jpg,orange,m_s_044.jpg,black,between,NA,NaN,NA,left,3286.600000000559,1,2,1638.9000000003725
Iu3YjxPt,3mdwe879vkfdd3966pwqlqs2jwg9bh,36nemu28xjqmvao5hr1t2a7zvegmwd,Iu3YjxPt,2020-0188,2021-10-14,08:49:02,09:58:23,NA,incomplete,false,NA,true,5,3,NA,NA,NA,left,present,NA,NA,m_l_003.jpg,orange,n_s_040.jpg,orange,within,NA,NaN,NA,left,4959.0999999996275,1,0,1504.5
Iu3YjxPt,3mdwe879vkfdd3966pwqlqs2jwg9bh,36nemu28xjqmvao5hr1t2a7zvegmwd,Iu3YjxPt,2020-0188,2021-10-14,08:49:02,09:58:23,NA,incomplete,false,NA,true,5,4,NA,NA,NA,left,present,NA,NA,n_l_116.jpg,green,m_l_022.jpg,white,between,NA,NaN,NA,right,2695.2999999998137,0,1,1799.7999999998137
Iu3YjxPt,3mdwe879vkfdd3966pwqlqs2jwg9bh,36nemu28xjqmvao5hr1t2a7zvegmwd,Iu3YjxPt,2020-0188,2021-10-14,08:49:02,09:58:23,NA,incomplete,false,NA,true,5,5,NA,NA,NA,right,present,NA,NA,m_s_048.jpg,brown,m_l_058.jpg,white,between,NA,NaN,NA,right,2287.5,1,2,967.5
Iu3YjxPt,3mdwe879vkfdd3966pwqlqs2jwg9bh,36nemu28xjqmvao5hr1t2a7zvegmwd,Iu3YjxPt,2020-0188,2021-10-14,08:49:02,09:58:23,NA,incomplete,false,NA,true,5,6,NA,NA,NA,left,present,NA,NA,n_l_044.jpg,green,m_s_035.jpg,green,within,NA,NaN,NA,left,3703.600000000559,1,0,1055.2000000001863
Iu3YjxPt,3mdwe879vkfdd3966pwqlqs2jwg9bh,36nemu28xjqmvao5hr1t2a7zvegmwd,Iu3YjxPt,2020-0188,2021-10-14,08:49:02,09:58:23,NA,incomplete,false,NA,true,5,7,NA,NA,NA,right,present,NA,NA,n_l_067.jpg,black,m_s_056.jpg,black,within,NA,NaN,NA,right,4207.0999999996275,1,0,1247.2000000001863
Iu3YjxPt,3mdwe879vkfdd3966pwqlqs2jwg9bh,36nemu28xjqmvao5hr1t2a7zvegmwd,Iu3YjxPt,2020-0188,2021-10-14,08:49:02,09:58:23,NA,incomplete,false,NA,true,5,8,NA,NA,NA,left,present,NA,NA,m_s_008.jpg,brown,m_l_025.jpg,brown,within,NA,NaN,NA,left,2695.9000000003725,1,0,999.2000000001863
Iu3YjxPt,3mdwe879vkfdd3966pwqlqs2jwg9bh,36nemu28xjqmvao5hr1t2a7zvegmwd,Iu3YjxPt,2020-0188,2021-10-14,08:49:02,09:58:23,NA,incomplete,false,NA,true,5,9,NA,NA,NA,left,present,NA,NA,n_s_055.jpg,black,n_s_081.jpg,green,between,NA,NaN,NA,right,3911.7999999998137,0,1,2343.2000000001863
Iu3YjxPt,3mdwe879vkfdd3966pwqlqs2jwg9bh,36nemu28xjqmvao5hr1t2a7zvegmwd,Iu3YjxPt,2020-0188,2021-10-14,08:49:02,09:58:23,NA,incomplete,false,NA,true,5,10,NA,NA,NA,left,present,NA,NA,m_s_013.jpg,white,n_s_074.jpg,white,within,NA,NaN,NA,left,2986.7000000001863,1,0,783.9000000003725
Iu3YjxPt,3mdwe879vkfdd3966pwqlqs2jwg9bh,36nemu28xjqmvao5hr1t2a7zvegmwd,Iu3YjxPt,2020-0188,2021-10-14,08:49:02,09:58:23,NA,incomplete,false,true,NA,6,0,NA,red,n_l_083.jpg,NA,NA,unpleasant,pleasant,NA,NA,NA,NA,NA,right,1603.29999999981,true,NA,NA,NA,NA,NA
Iu3YjxPt,3mdwe879vkfdd3966pwqlqs2jwg9bh,36nemu28xjqmvao5hr1t2a7zvegmwd,Iu3YjxPt,2020-0188,2021-10-14,08:49:02,09:58:23,NA,incomplete,false,true,NA,6,1,NA,red,m_l_110.jpg,NA,NA,pleasant,unpleasant,NA,NA,NA,NA,NA,left,1350.70000000019,true,NA,NA,NA,NA,NA
Iu3YjxPt,3mdwe879vkfdd3966pwqlqs2jwg9bh,36nemu28xjqmvao5hr1t2a7zvegmwd,Iu3YjxPt,2020-0188,2021-10-14,08:49:02,09:58:23,NA,incomplete,false,true,NA,6,2,NA,red,n_l_010.jpg,NA,NA,unpleasant,pleasant,NA,NA,NA,NA,NA,right,1772.59999999963,true,NA,NA,NA,NA,NA
Iu3YjxPt,3mdwe879vkfdd3966pwqlqs2jwg9bh,36nemu28xjqmvao5hr1t2a7zvegmwd,Iu3YjxPt,2020-0188,2021-10-14,08:49:02,09:58:23,NA,incomplete,false,true,NA,6,3,NA,red,n_l_066.jpg,NA,NA,unpleasant,pleasant,NA,NA,NA,NA,NA,right,2550.30000000075,true,NA,NA,NA,NA,NA
Iu3YjxPt,3mdwe879vkfdd3966pwqlqs2jwg9bh,36nemu28xjqmvao5hr1t2a7zvegmwd,Iu3YjxPt,2020-0188,2021-10-14,08:49:02,09:58:23,NA,incomplete,false,true,NA,6,4,NA,red,m_s_011.jpg,NA,NA,unpleasant,pleasant,NA,NA,NA,NA,NA,right,2076.5,true,NA,NA,NA,NA,NA
Iu3YjxPt,3mdwe879vkfdd3966pwqlqs2jwg9bh,36nemu28xjqmvao5hr1t2a7zvegmwd,Iu3YjxPt,2020-0188,2021-10-14,08:49:02,09:58:23,NA,incomplete,false,true,NA,6,5,NA,red,m_l_066.jpg,NA,NA,unpleasant,pleasant,NA,NA,NA,NA,NA,right,1955.80000000075,true,NA,NA,NA,NA,NA
Iu3YjxPt,3mdwe879vkfdd3966pwqlqs2jwg9bh,36nemu28xjqmvao5hr1t2a7zvegmwd,Iu3YjxPt,2020-0188,2021-10-14,08:49:02,09:58:23,NA,incomplete,false,true,NA,6,6,NA,white,n_l_039.jpg,NA,NA,unpleasant,pleasant,NA,NA,NA,NA,NA,right,2292,true,NA,NA,NA,NA,NA
Iu3YjxPt,3mdwe879vkfdd3966pwqlqs2jwg9bh,36nemu28xjqmvao5hr1t2a7zvegmwd,Iu3YjxPt,2020-0188,2021-10-14,08:49:02,09:58:23,NA,incomplete,false,true,NA,6,7,NA,white,n_l_052.jpg,NA,NA,pleasant,unpleasant,NA,NA,NA,NA,NA,left,1356.40000000037,true,NA,NA,NA,NA,NA
Iu3YjxPt,3mdwe879vkfdd3966pwqlqs2jwg9bh,36nemu28xjqmvao5hr1t2a7zvegmwd,Iu3YjxPt,2020-0188,2021-10-14,08:49:02,09:58:23,NA,incomplete,false,true,NA,6,8,NA,white,n_s_058.jpg,NA,NA,unpleasant,pleasant,NA,NA,NA,NA,NA,left,1211.60000000056,true,NA,NA,NA,NA,NA
Iu3YjxPt,3mdwe879vkfdd3966pwqlqs2jwg9bh,36nemu28xjqmvao5hr1t2a7zvegmwd,Iu3YjxPt,2020-0188,2021-10-14,08:49:02,09:58:23,NA,incomplete,false,true,NA,6,9,NA,white,n_s_039.jpg,NA,NA,pleasant,unpleasant,NA,NA,NA,NA,NA,left,1226.69999999925,true,NA,NA,NA,NA,NA
Iu3YjxPt,3mdwe879vkfdd3966pwqlqs2jwg9bh,36nemu28xjqmvao5hr1t2a7zvegmwd,Iu3YjxPt,2020-0188,2021-10-14,08:49:02,09:58:23,NA,incomplete,false,true,NA,6,10,NA,white,m_l_072.jpg,NA,NA,unpleasant,pleasant,NA,NA,NA,NA,NA,right,1162.40000000037,true,NA,NA,NA,NA,NA
Iu3YjxPt,3mdwe879vkfdd3966pwqlqs2jwg9bh,36nemu28xjqmvao5hr1t2a7zvegmwd,Iu3YjxPt,2020-0188,2021-10-14,08:49:02,09:58:23,NA,incomplete,false,true,NA,6,11,NA,white,n_l_094.jpg,NA,NA,unpleasant,pleasant,NA,NA,NA,NA,NA,right,1231.29999999981,true,NA,NA,NA,NA,NA
Iu3YjxPt,3mdwe879vkfdd3966pwqlqs2jwg9bh,36nemu28xjqmvao5hr1t2a7zvegmwd,Iu3YjxPt,2020-0188,2021-10-14,08:49:02,09:58:23,NA,incomplete,false,true,NA,6,12,NA,black,n_s_016.jpg,NA,NA,pleasant,unpleasant,NA,NA,NA,NA,NA,right,2604.70000000019,true,NA,NA,NA,NA,NA
Iu3YjxPt,3mdwe879vkfdd3966pwqlqs2jwg9bh,36nemu28xjqmvao5hr1t2a7zvegmwd,Iu3YjxPt,2020-0188,2021-10-14,08:49:02,09:58:23,NA,incomplete,false,true,NA,6,13,NA,black,m_l_114.jpg,NA,NA,pleasant,unpleasant,NA,NA,NA,NA,NA,left,1219.39999999944,true,NA,NA,NA,NA,NA
Iu3YjxPt,3mdwe879vkfdd3966pwqlqs2jwg9bh,36nemu28xjqmvao5hr1t2a7zvegmwd,Iu3YjxPt,2020-0188,2021-10-14,08:49:02,09:58:23,NA,incomplete,false,true,NA,6,14,NA,black,m_s_079.jpg,NA,NA,pleasant,unpleasant,NA,NA,NA,NA,NA,left,1158.19999999925,true,NA,NA,NA,NA,NA
Iu3YjxPt,3mdwe879vkfdd3966pwqlqs2jwg9bh,36nemu28xjqmvao5hr1t2a7zvegmwd,Iu3YjxPt,2020-0188,2021-10-14,08:49:02,09:58:23,NA,incomplete,false,true,NA,6,15,NA,black,m_l_040.jpg,NA,NA,pleasant,unpleasant,NA,NA,NA,NA,NA,left,1441.69999999925,true,NA,NA,NA,NA,NA
Iu3YjxPt,3mdwe879vkfdd3966pwqlqs2jwg9bh,36nemu28xjqmvao5hr1t2a7zvegmwd,Iu3YjxPt,2020-0188,2021-10-14,08:49:02,09:58:23,NA,incomplete,false,true,NA,6,16,NA,black,n_l_106.jpg,NA,NA,pleasant,unpleasant,NA,NA,NA,NA,NA,left,1151.70000000019,true,NA,NA,NA,NA,NA
Iu3YjxPt,3mdwe879vkfdd3966pwqlqs2jwg9bh,36nemu28xjqmvao5hr1t2a7zvegmwd,Iu3YjxPt,2020-0188,2021-10-14,08:49:02,09:58:23,NA,incomplete,false,true,NA,6,17,NA,black,n_s_092.jpg,NA,NA,unpleasant,pleasant,NA,NA,NA,NA,NA,right,1350.30000000075,true,NA,NA,NA,NA,NA
Iu3YjxPt,3mdwe879vkfdd3966pwqlqs2jwg9bh,36nemu28xjqmvao5hr1t2a7zvegmwd,Iu3YjxPt,2020-0188,2021-10-14,08:49:02,09:58:23,NA,incomplete,false,true,NA,6,18,NA,yellow,n_s_025.jpg,NA,NA,pleasant,unpleasant,NA,NA,NA,NA,NA,right,2098.20000000019,true,NA,NA,NA,NA,NA
Iu3YjxPt,3mdwe879vkfdd3966pwqlqs2jwg9bh,36nemu28xjqmvao5hr1t2a7zvegmwd,Iu3YjxPt,2020-0188,2021-10-14,08:49:02,09:58:23,NA,incomplete,false,true,NA,6,19,NA,yellow,m_l_029.jpg,NA,NA,pleasant,unpleasant,NA,NA,NA,NA,NA,left,1097.29999999981,true,NA,NA,NA,NA,NA
Iu3YjxPt,3mdwe879vkfdd3966pwqlqs2jwg9bh,36nemu28xjqmvao5hr1t2a7zvegmwd,Iu3YjxPt,2020-0188,2021-10-14,08:49:02,09:58:23,NA,incomplete,false,true,NA,6,20,NA,yellow,n_s_027.jpg,NA,NA,pleasant,unpleasant,NA,NA,NA,NA,NA,right,1466,true,NA,NA,NA,NA,NA
Iu3YjxPt,3mdwe879vkfdd3966pwqlqs2jwg9bh,36nemu28xjqmvao5hr1t2a7zvegmwd,Iu3YjxPt,2020-0188,2021-10-14,08:49:02,09:58:23,NA,incomplete,false,true,NA,6,21,NA,yellow,m_s_078.jpg,NA,NA,unpleasant,pleasant,NA,NA,NA,NA,NA,right,1551.79999999981,true,NA,NA,NA,NA,NA
Iu3YjxPt,3mdwe879vkfdd3966pwqlqs2jwg9bh,36nemu28xjqmvao5hr1t2a7zvegmwd,Iu3YjxPt,2020-0188,2021-10-14,08:49:02,09:58:23,NA,incomplete,false,true,NA,6,22,NA,yellow,m_s_084.jpg,NA,NA,unpleasant,pleasant,NA,NA,NA,NA,NA,right,1282.20000000019,true,NA,NA,NA,NA,NA
Iu3YjxPt,3mdwe879vkfdd3966pwqlqs2jwg9bh,36nemu28xjqmvao5hr1t2a7zvegmwd,Iu3YjxPt,2020-0188,2021-10-14,08:49:02,09:58:23,NA,incomplete,false,true,NA,6,23,NA,yellow,m_l_046.jpg,NA,NA,pleasant,unpleasant,NA,NA,NA,NA,NA,left,1112.20000000019,true,NA,NA,NA,NA,NA
Iu3YjxPt,3mdwe879vkfdd3966pwqlqs2jwg9bh,36nemu28xjqmvao5hr1t2a7zvegmwd,Iu3YjxPt,2020-0188,2021-10-14,08:49:02,09:58:23,NA,incomplete,false,true,NA,6,24,NA,green,n_s_035.jpg,NA,NA,pleasant,unpleasant,NA,NA,NA,NA,NA,left,2015.29999999981,true,NA,NA,NA,NA,NA
Iu3YjxPt,3mdwe879vkfdd3966pwqlqs2jwg9bh,36nemu28xjqmvao5hr1t2a7zvegmwd,Iu3YjxPt,2020-0188,2021-10-14,08:49:02,09:58:23,NA,incomplete,false,true,NA,6,25,NA,green,m_s_105.jpg,NA,NA,pleasant,unpleasant,NA,NA,NA,NA,NA,left,1583.19999999925,true,NA,NA,NA,NA,NA
Iu3YjxPt,3mdwe879vkfdd3966pwqlqs2jwg9bh,36nemu28xjqmvao5hr1t2a7zvegmwd,Iu3YjxPt,2020-0188,2021-10-14,08:49:02,09:58:23,NA,incomplete,false,true,NA,6,26,NA,green,n_l_054.jpg,NA,NA,unpleasant,pleasant,NA,NA,NA,NA,NA,right,1493,true,NA,NA,NA,NA,NA
Iu3YjxPt,3mdwe879vkfdd3966pwqlqs2jwg9bh,36nemu28xjqmvao5hr1t2a7zvegmwd,Iu3YjxPt,2020-0188,2021-10-14,08:49:02,09:58:23,NA,incomplete,false,true,NA,6,27,NA,green,n_l_085.jpg,NA,NA,unpleasant,pleasant,NA,NA,NA,NA,NA,right,2277.5,true,NA,NA,NA,NA,NA
Iu3YjxPt,3mdwe879vkfdd3966pwqlqs2jwg9bh,36nemu28xjqmvao5hr1t2a7zvegmwd,Iu3YjxPt,2020-0188,2021-10-14,08:49:02,09:58:23,NA,incomplete,false,true,NA,6,28,NA,green,m_s_102.jpg,NA,NA,unpleasant,pleasant,NA,NA,NA,NA,NA,right,1436.70000000019,true,NA,NA,NA,NA,NA
Iu3YjxPt,3mdwe879vkfdd3966pwqlqs2jwg9bh,36nemu28xjqmvao5hr1t2a7zvegmwd,Iu3YjxPt,2020-0188,2021-10-14,08:49:02,09:58:23,NA,incomplete,false,true,NA,6,29,NA,green,n_s_038.jpg,NA,NA,unpleasant,pleasant,NA,NA,NA,NA,NA,left,1205.79999999981,true,NA,NA,NA,NA,NA
Iu3YjxPt,3mdwe879vkfdd3966pwqlqs2jwg9bh,36nemu28xjqmvao5hr1t2a7zvegmwd,Iu3YjxPt,2020-0188,2021-10-14,08:49:02,09:58:23,NA,incomplete,false,true,NA,6,30,NA,orange,n_l_078.jpg,NA,NA,pleasant,unpleasant,NA,NA,NA,NA,NA,left,2134,true,NA,NA,NA,NA,NA
Iu3YjxPt,3mdwe879vkfdd3966pwqlqs2jwg9bh,36nemu28xjqmvao5hr1t2a7zvegmwd,Iu3YjxPt,2020-0188,2021-10-14,08:49:02,09:58:23,NA,incomplete,false,true,NA,6,31,NA,orange,m_l_015.jpg,NA,NA,pleasant,unpleasant,NA,NA,NA,NA,NA,left,1972.39999999944,true,NA,NA,NA,NA,NA
Iu3YjxPt,3mdwe879vkfdd3966pwqlqs2jwg9bh,36nemu28xjqmvao5hr1t2a7zvegmwd,Iu3YjxPt,2020-0188,2021-10-14,08:49:02,09:58:23,NA,incomplete,false,true,NA,6,32,NA,orange,n_s_034.jpg,NA,NA,pleasant,unpleasant,NA,NA,NA,NA,NA,left,1434.89999999944,true,NA,NA,NA,NA,NA
Iu3YjxPt,3mdwe879vkfdd3966pwqlqs2jwg9bh,36nemu28xjqmvao5hr1t2a7zvegmwd,Iu3YjxPt,2020-0188,2021-10-14,08:49:02,09:58:23,NA,incomplete,false,true,NA,6,33,NA,orange,n_s_013.jpg,NA,NA,unpleasant,pleasant,NA,NA,NA,NA,NA,right,1193.40000000037,true,NA,NA,NA,NA,NA
Iu3YjxPt,3mdwe879vkfdd3966pwqlqs2jwg9bh,36nemu28xjqmvao5hr1t2a7zvegmwd,Iu3YjxPt,2020-0188,2021-10-14,08:49:02,09:58:23,NA,incomplete,false,true,NA,6,34,NA,orange,m_l_035.jpg,NA,NA,pleasant,unpleasant,NA,NA,NA,NA,NA,left,1369.09999999963,true,NA,NA,NA,NA,NA
Iu3YjxPt,3mdwe879vkfdd3966pwqlqs2jwg9bh,36nemu28xjqmvao5hr1t2a7zvegmwd,Iu3YjxPt,2020-0188,2021-10-14,08:49:02,09:58:23,NA,incomplete,false,true,NA,6,35,NA,orange,n_s_103.jpg,NA,NA,pleasant,unpleasant,NA,NA,NA,NA,NA,left,1306.29999999981,true,NA,NA,NA,NA,NA
Iu3YjxPt,3mdwe879vkfdd3966pwqlqs2jwg9bh,36nemu28xjqmvao5hr1t2a7zvegmwd,Iu3YjxPt,2020-0188,2021-10-14,08:49:02,09:58:23,NA,incomplete,false,NA,true,6,0,NA,NA,NA,right,absent,NA,NA,m_l_046.jpg,yellow,m_l_029.jpg,yellow,within,NA,NaN,NA,right,4662.5,1,1,1815.4000000003725
Iu3YjxPt,3mdwe879vkfdd3966pwqlqs2jwg9bh,36nemu28xjqmvao5hr1t2a7zvegmwd,Iu3YjxPt,2020-0188,2021-10-14,08:49:02,09:58:23,NA,incomplete,false,NA,true,6,1,NA,NA,NA,right,absent,NA,NA,n_l_094.jpg,white,n_l_052.jpg,white,within,NA,NaN,NA,left,4174.5999999996275,0,2,1912
Iu3YjxPt,3mdwe879vkfdd3966pwqlqs2jwg9bh,36nemu28xjqmvao5hr1t2a7zvegmwd,Iu3YjxPt,2020-0188,2021-10-14,08:49:02,09:58:23,NA,incomplete,false,NA,true,6,2,NA,NA,NA,left,absent,NA,NA,m_l_114.jpg,black,n_s_092.jpg,black,within,NA,NaN,NA,right,4319.299999999814,0,2,7399.199999999255
Iu3YjxPt,3mdwe879vkfdd3966pwqlqs2jwg9bh,36nemu28xjqmvao5hr1t2a7zvegmwd,Iu3YjxPt,2020-0188,2021-10-14,08:49:02,09:58:23,NA,incomplete,false,NA,true,6,3,NA,NA,NA,right,absent,NA,NA,n_s_058.jpg,white,m_s_011.jpg,red,between,NA,NaN,NA,right,3919.7000000001863,1,1,2563
Iu3YjxPt,3mdwe879vkfdd3966pwqlqs2jwg9bh,36nemu28xjqmvao5hr1t2a7zvegmwd,Iu3YjxPt,2020-0188,2021-10-14,08:49:02,09:58:23,NA,incomplete,false,NA,true,6,4,NA,NA,NA,left,absent,NA,NA,m_l_015.jpg,orange,n_s_103.jpg,orange,within,NA,NaN,NA,left,4975.600000000559,1,2,863.8999999994412
Iu3YjxPt,3mdwe879vkfdd3966pwqlqs2jwg9bh,36nemu28xjqmvao5hr1t2a7zvegmwd,Iu3YjxPt,2020-0188,2021-10-14,08:49:02,09:58:23,NA,incomplete,false,NA,true,6,5,NA,NA,NA,right,absent,NA,NA,n_s_038.jpg,green,m_s_105.jpg,green,within,NA,NaN,NA,right,1847,1,1,967.5
Iu3YjxPt,3mdwe879vkfdd3966pwqlqs2jwg9bh,36nemu28xjqmvao5hr1t2a7zvegmwd,Iu3YjxPt,2020-0188,2021-10-14,08:49:02,09:58:23,NA,incomplete,false,NA,true,6,6,NA,NA,NA,left,absent,NA,NA,m_s_102.jpg,green,n_s_034.jpg,orange,between,NA,NaN,NA,right,3375.7000000001863,0,1,1743.5
Iu3YjxPt,3mdwe879vkfdd3966pwqlqs2jwg9bh,36nemu28xjqmvao5hr1t2a7zvegmwd,Iu3YjxPt,2020-0188,2021-10-14,08:49:02,09:58:23,NA,incomplete,false,NA,true,6,7,NA,NA,NA,right,absent,NA,NA,n_l_054.jpg,green,m_s_084.jpg,yellow,between,NA,NaN,NA,right,2487,1,2,1463.2000000001863
Iu3YjxPt,3mdwe879vkfdd3966pwqlqs2jwg9bh,36nemu28xjqmvao5hr1t2a7zvegmwd,Iu3YjxPt,2020-0188,2021-10-14,08:49:02,09:58:23,NA,incomplete,false,NA,true,6,8,NA,NA,NA,left,absent,NA,NA,m_l_072.jpg,white,m_s_079.jpg,black,between,NA,NaN,NA,left,5175.200000000186,1,0,1503.6000000005588
Iu3YjxPt,3mdwe879vkfdd3966pwqlqs2jwg9bh,36nemu28xjqmvao5hr1t2a7zvegmwd,Iu3YjxPt,2020-0188,2021-10-14,08:49:02,09:58:23,NA,incomplete,false,NA,true,6,9,NA,NA,NA,left,absent,NA,NA,n_l_106.jpg,black,n_s_027.jpg,yellow,between,NA,NaN,NA,left,4463.5999999996275,1,1,1407.3999999994412
Iu3YjxPt,3mdwe879vkfdd3966pwqlqs2jwg9bh,36nemu28xjqmvao5hr1t2a7zvegmwd,Iu3YjxPt,2020-0188,2021-10-14,08:49:02,09:58:23,NA,incomplete,false,NA,true,6,10,NA,NA,NA,left,absent,NA,NA,m_l_110.jpg,red,m_l_066.jpg,red,within,NA,NaN,NA,right,3471.5999999996275,0,1,1120.2999999998137
Iu3YjxPt,3mdwe879vkfdd3966pwqlqs2jwg9bh,36nemu28xjqmvao5hr1t2a7zvegmwd,Iu3YjxPt,2020-0188,2021-10-14,08:49:02,09:58:23,NA,incomplete,false,true,NA,7,0,NA,blue,m_s_006.jpg,NA,NA,pleasant,unpleasant,NA,NA,NA,NA,NA,left,1550.10000000056,true,NA,NA,NA,NA,NA
Iu3YjxPt,3mdwe879vkfdd3966pwqlqs2jwg9bh,36nemu28xjqmvao5hr1t2a7zvegmwd,Iu3YjxPt,2020-0188,2021-10-14,08:49:02,09:58:23,NA,incomplete,false,true,NA,7,1,NA,blue,n_l_099.jpg,NA,NA,pleasant,unpleasant,NA,NA,NA,NA,NA,left,2538.20000000019,true,NA,NA,NA,NA,NA
Iu3YjxPt,3mdwe879vkfdd3966pwqlqs2jwg9bh,36nemu28xjqmvao5hr1t2a7zvegmwd,Iu3YjxPt,2020-0188,2021-10-14,08:49:02,09:58:23,NA,incomplete,false,true,NA,7,2,NA,blue,n_l_026.jpg,NA,NA,unpleasant,pleasant,NA,NA,NA,NA,NA,right,1397.20000000019,true,NA,NA,NA,NA,NA
Iu3YjxPt,3mdwe879vkfdd3966pwqlqs2jwg9bh,36nemu28xjqmvao5hr1t2a7zvegmwd,Iu3YjxPt,2020-0188,2021-10-14,08:49:02,09:58:23,NA,incomplete,false,true,NA,7,3,NA,blue,n_l_031.jpg,NA,NA,unpleasant,pleasant,NA,NA,NA,NA,NA,right,1397.40000000037,true,NA,NA,NA,NA,NA
Iu3YjxPt,3mdwe879vkfdd3966pwqlqs2jwg9bh,36nemu28xjqmvao5hr1t2a7zvegmwd,Iu3YjxPt,2020-0188,2021-10-14,08:49:02,09:58:23,NA,incomplete,false,true,NA,7,4,NA,blue,m_l_045.jpg,NA,NA,unpleasant,pleasant,NA,NA,NA,NA,NA,right,1540.60000000056,true,NA,NA,NA,NA,NA
Iu3YjxPt,3mdwe879vkfdd3966pwqlqs2jwg9bh,36nemu28xjqmvao5hr1t2a7zvegmwd,Iu3YjxPt,2020-0188,2021-10-14,08:49:02,09:58:23,NA,incomplete,false,true,NA,7,5,NA,blue,n_s_093.jpg,NA,NA,pleasant,unpleasant,NA,NA,NA,NA,NA,right,1182.29999999981,true,NA,NA,NA,NA,NA
Iu3YjxPt,3mdwe879vkfdd3966pwqlqs2jwg9bh,36nemu28xjqmvao5hr1t2a7zvegmwd,Iu3YjxPt,2020-0188,2021-10-14,08:49:02,09:58:23,NA,incomplete,false,true,NA,7,6,NA,orange,m_l_103.jpg,NA,NA,pleasant,unpleasant,NA,NA,NA,NA,NA,left,2111.5,true,NA,NA,NA,NA,NA
Iu3YjxPt,3mdwe879vkfdd3966pwqlqs2jwg9bh,36nemu28xjqmvao5hr1t2a7zvegmwd,Iu3YjxPt,2020-0188,2021-10-14,08:49:02,09:58:23,NA,incomplete,false,true,NA,7,7,NA,orange,n_s_003.jpg,NA,NA,unpleasant,pleasant,NA,NA,NA,NA,NA,left,1259.40000000037,true,NA,NA,NA,NA,NA
Iu3YjxPt,3mdwe879vkfdd3966pwqlqs2jwg9bh,36nemu28xjqmvao5hr1t2a7zvegmwd,Iu3YjxPt,2020-0188,2021-10-14,08:49:02,09:58:23,NA,incomplete,false,true,NA,7,8,NA,orange,n_l_037.jpg,NA,NA,unpleasant,pleasant,NA,NA,NA,NA,NA,left,1395,true,NA,NA,NA,NA,NA
Iu3YjxPt,3mdwe879vkfdd3966pwqlqs2jwg9bh,36nemu28xjqmvao5hr1t2a7zvegmwd,Iu3YjxPt,2020-0188,2021-10-14,08:49:02,09:58:23,NA,incomplete,false,true,NA,7,9,NA,orange,m_s_072.jpg,NA,NA,pleasant,unpleasant,NA,NA,NA,NA,NA,left,1150.5,true,NA,NA,NA,NA,NA
Iu3YjxPt,3mdwe879vkfdd3966pwqlqs2jwg9bh,36nemu28xjqmvao5hr1t2a7zvegmwd,Iu3YjxPt,2020-0188,2021-10-14,08:49:02,09:58:23,NA,incomplete,false,true,NA,7,10,NA,orange,m_s_099.jpg,NA,NA,unpleasant,pleasant,NA,NA,NA,NA,NA,right,1109,true,NA,NA,NA,NA,NA
Iu3YjxPt,3mdwe879vkfdd3966pwqlqs2jwg9bh,36nemu28xjqmvao5hr1t2a7zvegmwd,Iu3YjxPt,2020-0188,2021-10-14,08:49:02,09:58:23,NA,incomplete,false,true,NA,7,11,NA,orange,n_s_107.jpg,NA,NA,pleasant,unpleasant,NA,NA,NA,NA,NA,left,1724.60000000056,true,NA,NA,NA,NA,NA
Iu3YjxPt,3mdwe879vkfdd3966pwqlqs2jwg9bh,36nemu28xjqmvao5hr1t2a7zvegmwd,Iu3YjxPt,2020-0188,2021-10-14,08:49:02,09:58:23,NA,incomplete,false,true,NA,7,12,NA,red,n_s_090.jpg,NA,NA,pleasant,unpleasant,NA,NA,NA,NA,NA,left,2209.70000000019,true,NA,NA,NA,NA,NA
Iu3YjxPt,3mdwe879vkfdd3966pwqlqs2jwg9bh,36nemu28xjqmvao5hr1t2a7zvegmwd,Iu3YjxPt,2020-0188,2021-10-14,08:49:02,09:58:23,NA,incomplete,false,true,NA,7,13,NA,red,m_l_032.jpg,NA,NA,unpleasant,pleasant,NA,NA,NA,NA,NA,right,1177.70000000019,true,NA,NA,NA,NA,NA
Iu3YjxPt,3mdwe879vkfdd3966pwqlqs2jwg9bh,36nemu28xjqmvao5hr1t2a7zvegmwd,Iu3YjxPt,2020-0188,2021-10-14,08:49:02,09:58:23,NA,incomplete,false,true,NA,7,14,NA,red,m_l_050.jpg,NA,NA,pleasant,unpleasant,NA,NA,NA,NA,NA,left,1898.20000000019,true,NA,NA,NA,NA,NA
Iu3YjxPt,3mdwe879vkfdd3966pwqlqs2jwg9bh,36nemu28xjqmvao5hr1t2a7zvegmwd,Iu3YjxPt,2020-0188,2021-10-14,08:49:02,09:58:23,NA,incomplete,false,true,NA,7,15,NA,red,n_l_061.jpg,NA,NA,unpleasant,pleasant,NA,NA,NA,NA,NA,right,1981.40000000037,true,NA,NA,NA,NA,NA
Iu3YjxPt,3mdwe879vkfdd3966pwqlqs2jwg9bh,36nemu28xjqmvao5hr1t2a7zvegmwd,Iu3YjxPt,2020-0188,2021-10-14,08:49:02,09:58:23,NA,incomplete,false,true,NA,7,16,NA,red,m_s_029.jpg,NA,NA,unpleasant,pleasant,NA,NA,NA,NA,NA,right,1788.20000000019,true,NA,NA,NA,NA,NA
Iu3YjxPt,3mdwe879vkfdd3966pwqlqs2jwg9bh,36nemu28xjqmvao5hr1t2a7zvegmwd,Iu3YjxPt,2020-0188,2021-10-14,08:49:02,09:58:23,NA,incomplete,false,true,NA,7,17,NA,red,n_s_017.jpg,NA,NA,pleasant,unpleasant,NA,NA,NA,NA,NA,left,1864.39999999944,true,NA,NA,NA,NA,NA
Iu3YjxPt,3mdwe879vkfdd3966pwqlqs2jwg9bh,36nemu28xjqmvao5hr1t2a7zvegmwd,Iu3YjxPt,2020-0188,2021-10-14,08:49:02,09:58:23,NA,incomplete,false,true,NA,7,18,NA,yellow,n_l_002.jpg,NA,NA,unpleasant,pleasant,NA,NA,NA,NA,NA,right,1953.10000000056,true,NA,NA,NA,NA,NA
Iu3YjxPt,3mdwe879vkfdd3966pwqlqs2jwg9bh,36nemu28xjqmvao5hr1t2a7zvegmwd,Iu3YjxPt,2020-0188,2021-10-14,08:49:02,09:58:23,NA,incomplete,false,true,NA,7,19,NA,yellow,n_l_034.jpg,NA,NA,unpleasant,pleasant,NA,NA,NA,NA,NA,left,1277.19999999925,true,NA,NA,NA,NA,NA
Iu3YjxPt,3mdwe879vkfdd3966pwqlqs2jwg9bh,36nemu28xjqmvao5hr1t2a7zvegmwd,Iu3YjxPt,2020-0188,2021-10-14,08:49:02,09:58:23,NA,incomplete,false,true,NA,7,20,NA,yellow,m_l_062.jpg,NA,NA,pleasant,unpleasant,NA,NA,NA,NA,NA,left,1197.5,true,NA,NA,NA,NA,NA
Iu3YjxPt,3mdwe879vkfdd3966pwqlqs2jwg9bh,36nemu28xjqmvao5hr1t2a7zvegmwd,Iu3YjxPt,2020-0188,2021-10-14,08:49:02,09:58:23,NA,incomplete,false,true,NA,7,21,NA,yellow,n_l_081.jpg,NA,NA,unpleasant,pleasant,NA,NA,NA,NA,NA,right,1176.79999999981,true,NA,NA,NA,NA,NA
Iu3YjxPt,3mdwe879vkfdd3966pwqlqs2jwg9bh,36nemu28xjqmvao5hr1t2a7zvegmwd,Iu3YjxPt,2020-0188,2021-10-14,08:49:02,09:58:23,NA,incomplete,false,true,NA,7,22,NA,yellow,m_s_039.jpg,NA,NA,unpleasant,pleasant,NA,NA,NA,NA,NA,right,1435,true,NA,NA,NA,NA,NA
Iu3YjxPt,3mdwe879vkfdd3966pwqlqs2jwg9bh,36nemu28xjqmvao5hr1t2a7zvegmwd,Iu3YjxPt,2020-0188,2021-10-14,08:49:02,09:58:23,NA,incomplete,false,true,NA,7,23,NA,yellow,m_l_051.jpg,NA,NA,unpleasant,pleasant,NA,NA,NA,NA,NA,right,1310.20000000019,true,NA,NA,NA,NA,NA
Iu3YjxPt,3mdwe879vkfdd3966pwqlqs2jwg9bh,36nemu28xjqmvao5hr1t2a7zvegmwd,Iu3YjxPt,2020-0188,2021-10-14,08:49:02,09:58:23,NA,incomplete,false,true,NA,7,24,NA,brown,n_s_078.jpg,NA,NA,unpleasant,pleasant,NA,NA,NA,NA,NA,left,1896.19999999925,true,NA,NA,NA,NA,NA
Iu3YjxPt,3mdwe879vkfdd3966pwqlqs2jwg9bh,36nemu28xjqmvao5hr1t2a7zvegmwd,Iu3YjxPt,2020-0188,2021-10-14,08:49:02,09:58:23,NA,incomplete,false,true,NA,7,25,NA,brown,m_l_105.jpg,NA,NA,pleasant,unpleasant,NA,NA,NA,NA,NA,left,1062.5,true,NA,NA,NA,NA,NA
Iu3YjxPt,3mdwe879vkfdd3966pwqlqs2jwg9bh,36nemu28xjqmvao5hr1t2a7zvegmwd,Iu3YjxPt,2020-0188,2021-10-14,08:49:02,09:58:23,NA,incomplete,false,true,NA,7,26,NA,brown,m_s_051.jpg,NA,NA,unpleasant,pleasant,NA,NA,NA,NA,NA,right,1444.90000000037,true,NA,NA,NA,NA,NA
Iu3YjxPt,3mdwe879vkfdd3966pwqlqs2jwg9bh,36nemu28xjqmvao5hr1t2a7zvegmwd,Iu3YjxPt,2020-0188,2021-10-14,08:49:02,09:58:23,NA,incomplete,false,true,NA,7,27,NA,brown,m_l_081.jpg,NA,NA,unpleasant,pleasant,NA,NA,NA,NA,NA,right,1137.19999999925,true,NA,NA,NA,NA,NA
Iu3YjxPt,3mdwe879vkfdd3966pwqlqs2jwg9bh,36nemu28xjqmvao5hr1t2a7zvegmwd,Iu3YjxPt,2020-0188,2021-10-14,08:49:02,09:58:23,NA,incomplete,false,true,NA,7,28,NA,brown,n_s_077.jpg,NA,NA,unpleasant,pleasant,NA,NA,NA,NA,NA,right,2145.89999999944,true,NA,NA,NA,NA,NA
Iu3YjxPt,3mdwe879vkfdd3966pwqlqs2jwg9bh,36nemu28xjqmvao5hr1t2a7zvegmwd,Iu3YjxPt,2020-0188,2021-10-14,08:49:02,09:58:23,NA,incomplete,false,true,NA,7,29,NA,brown,m_l_106.jpg,NA,NA,pleasant,unpleasant,NA,NA,NA,NA,NA,left,1148,true,NA,NA,NA,NA,NA
Iu3YjxPt,3mdwe879vkfdd3966pwqlqs2jwg9bh,36nemu28xjqmvao5hr1t2a7zvegmwd,Iu3YjxPt,2020-0188,2021-10-14,08:49:02,09:58:23,NA,incomplete,false,true,NA,7,30,NA,gray,n_s_009.jpg,NA,NA,pleasant,unpleasant,NA,NA,NA,NA,NA,left,2402.70000000019,true,NA,NA,NA,NA,NA
Iu3YjxPt,3mdwe879vkfdd3966pwqlqs2jwg9bh,36nemu28xjqmvao5hr1t2a7zvegmwd,Iu3YjxPt,2020-0188,2021-10-14,08:49:02,09:58:23,NA,incomplete,false,true,NA,7,31,NA,gray,n_l_035.jpg,NA,NA,unpleasant,pleasant,NA,NA,NA,NA,NA,right,1429.59999999963,true,NA,NA,NA,NA,NA
Iu3YjxPt,3mdwe879vkfdd3966pwqlqs2jwg9bh,36nemu28xjqmvao5hr1t2a7zvegmwd,Iu3YjxPt,2020-0188,2021-10-14,08:49:02,09:58:23,NA,incomplete,false,true,NA,7,32,NA,gray,m_l_005.jpg,NA,NA,pleasant,unpleasant,NA,NA,NA,NA,NA,left,1815.20000000019,true,NA,NA,NA,NA,NA
Iu3YjxPt,3mdwe879vkfdd3966pwqlqs2jwg9bh,36nemu28xjqmvao5hr1t2a7zvegmwd,Iu3YjxPt,2020-0188,2021-10-14,08:49:02,09:58:23,NA,incomplete,false,true,NA,7,33,NA,gray,m_s_018.jpg,NA,NA,pleasant,unpleasant,NA,NA,NA,NA,NA,left,1822,true,NA,NA,NA,NA,NA
Iu3YjxPt,3mdwe879vkfdd3966pwqlqs2jwg9bh,36nemu28xjqmvao5hr1t2a7zvegmwd,Iu3YjxPt,2020-0188,2021-10-14,08:49:02,09:58:23,NA,incomplete,false,true,NA,7,34,NA,gray,m_s_002.jpg,NA,NA,pleasant,unpleasant,NA,NA,NA,NA,NA,left,1477.79999999981,true,NA,NA,NA,NA,NA
Iu3YjxPt,3mdwe879vkfdd3966pwqlqs2jwg9bh,36nemu28xjqmvao5hr1t2a7zvegmwd,Iu3YjxPt,2020-0188,2021-10-14,08:49:02,09:58:23,NA,incomplete,false,true,NA,7,35,NA,gray,n_l_115.jpg,NA,NA,unpleasant,pleasant,NA,NA,NA,NA,NA,right,1611,true,NA,NA,NA,NA,NA
Iu3YjxPt,3mdwe879vkfdd3966pwqlqs2jwg9bh,36nemu28xjqmvao5hr1t2a7zvegmwd,Iu3YjxPt,2020-0188,2021-10-14,08:49:02,09:58:23,NA,incomplete,false,NA,true,7,0,NA,NA,NA,left,present,NA,NA,m_s_099.jpg,orange,m_l_050.jpg,red,between,NA,NaN,NA,left,3575.0999999996275,1,2,1975.1000000005588
Iu3YjxPt,3mdwe879vkfdd3966pwqlqs2jwg9bh,36nemu28xjqmvao5hr1t2a7zvegmwd,Iu3YjxPt,2020-0188,2021-10-14,08:49:02,09:58:23,NA,incomplete,false,NA,true,7,1,NA,NA,NA,left,present,NA,NA,n_l_035.jpg,gray,n_l_115.jpg,gray,within,NA,NaN,NA,left,2391.800000000745,1,0,1246.800000000745
Iu3YjxPt,3mdwe879vkfdd3966pwqlqs2jwg9bh,36nemu28xjqmvao5hr1t2a7zvegmwd,Iu3YjxPt,2020-0188,2021-10-14,08:49:02,09:58:23,NA,incomplete,false,NA,true,7,2,NA,NA,NA,left,present,NA,NA,m_l_032.jpg,red,n_s_017.jpg,red,within,NA,NaN,NA,left,5535.100000000559,1,0,1560
Iu3YjxPt,3mdwe879vkfdd3966pwqlqs2jwg9bh,36nemu28xjqmvao5hr1t2a7zvegmwd,Iu3YjxPt,2020-0188,2021-10-14,08:49:02,09:58:23,NA,incomplete,false,NA,true,7,3,NA,NA,NA,right,present,NA,NA,m_s_051.jpg,brown,m_s_039.jpg,yellow,between,NA,NaN,NA,right,3751.4000000003725,1,1,1448.1000000005588
Iu3YjxPt,3mdwe879vkfdd3966pwqlqs2jwg9bh,36nemu28xjqmvao5hr1t2a7zvegmwd,Iu3YjxPt,2020-0188,2021-10-14,08:49:02,09:58:23,NA,incomplete,false,NA,true,7,4,NA,NA,NA,right,present,NA,NA,n_s_107.jpg,orange,n_s_003.jpg,orange,within,NA,NaN,NA,left,3927.2000000001863,0,0,887.1999999992549
Iu3YjxPt,3mdwe879vkfdd3966pwqlqs2jwg9bh,36nemu28xjqmvao5hr1t2a7zvegmwd,Iu3YjxPt,2020-0188,2021-10-14,08:49:02,09:58:23,NA,incomplete,false,NA,true,7,5,NA,NA,NA,right,present,NA,NA,n_s_093.jpg,blue,n_l_099.jpg,blue,within,NA,NaN,NA,right,2887.4000000003725,1,0,1383.3999999994412
Iu3YjxPt,3mdwe879vkfdd3966pwqlqs2jwg9bh,36nemu28xjqmvao5hr1t2a7zvegmwd,Iu3YjxPt,2020-0188,2021-10-14,08:49:02,09:58:23,NA,incomplete,false,NA,true,7,6,NA,NA,NA,right,present,NA,NA,n_l_037.jpg,orange,m_l_045.jpg,blue,between,NA,NaN,NA,right,1679,1,2,4639.299999999814
Iu3YjxPt,3mdwe879vkfdd3966pwqlqs2jwg9bh,36nemu28xjqmvao5hr1t2a7zvegmwd,Iu3YjxPt,2020-0188,2021-10-14,08:49:02,09:58:23,NA,incomplete,false,NA,true,7,7,NA,NA,NA,left,present,NA,NA,m_s_029.jpg,red,m_l_062.jpg,yellow,between,NA,NaN,NA,left,2999,1,2,1303.4000000003725
Iu3YjxPt,3mdwe879vkfdd3966pwqlqs2jwg9bh,36nemu28xjqmvao5hr1t2a7zvegmwd,Iu3YjxPt,2020-0188,2021-10-14,08:49:02,09:58:23,NA,incomplete,false,NA,true,7,8,NA,NA,NA,right,present,NA,NA,m_l_051.jpg,yellow,n_l_034.jpg,yellow,within,NA,NaN,NA,left,3375.0999999996275,0,0,1174.800000000745
Iu3YjxPt,3mdwe879vkfdd3966pwqlqs2jwg9bh,36nemu28xjqmvao5hr1t2a7zvegmwd,Iu3YjxPt,2020-0188,2021-10-14,08:49:02,09:58:23,NA,incomplete,false,NA,true,7,9,NA,NA,NA,left,present,NA,NA,m_l_105.jpg,brown,m_l_106.jpg,brown,within,NA,NaN,NA,right,3663.399999999441,0,0,1607.0999999996275
Iu3YjxPt,3mdwe879vkfdd3966pwqlqs2jwg9bh,36nemu28xjqmvao5hr1t2a7zvegmwd,Iu3YjxPt,2020-0188,2021-10-14,08:49:02,09:58:23,NA,incomplete,false,NA,true,7,10,NA,NA,NA,left,present,NA,NA,n_s_077.jpg,brown,m_l_005.jpg,gray,between,NA,NaN,NA,left,2855.7999999998137,1,2,1056.4000000003725
Iu3YjxPt,3mdwe879vkfdd3966pwqlqs2jwg9bh,36nemu28xjqmvao5hr1t2a7zvegmwd,Iu3YjxPt,2020-0188,2021-10-14,08:49:02,09:58:23,NA,incomplete,false,true,NA,8,0,NA,red,m_l_077.jpg,NA,NA,pleasant,unpleasant,NA,NA,NA,NA,NA,left,1355.5,true,NA,NA,NA,NA,NA
Iu3YjxPt,3mdwe879vkfdd3966pwqlqs2jwg9bh,36nemu28xjqmvao5hr1t2a7zvegmwd,Iu3YjxPt,2020-0188,2021-10-14,08:49:02,09:58:23,NA,incomplete,false,true,NA,8,1,NA,red,n_l_040.jpg,NA,NA,pleasant,unpleasant,NA,NA,NA,NA,NA,left,2548.70000000019,true,NA,NA,NA,NA,NA
Iu3YjxPt,3mdwe879vkfdd3966pwqlqs2jwg9bh,36nemu28xjqmvao5hr1t2a7zvegmwd,Iu3YjxPt,2020-0188,2021-10-14,08:49:02,09:58:23,NA,incomplete,false,true,NA,8,2,NA,red,n_s_076.jpg,NA,NA,pleasant,unpleasant,NA,NA,NA,NA,NA,left,2101.79999999981,true,NA,NA,NA,NA,NA
Iu3YjxPt,3mdwe879vkfdd3966pwqlqs2jwg9bh,36nemu28xjqmvao5hr1t2a7zvegmwd,Iu3YjxPt,2020-0188,2021-10-14,08:49:02,09:58:23,NA,incomplete,false,true,NA,8,3,NA,red,m_l_091.jpg,NA,NA,unpleasant,pleasant,NA,NA,NA,NA,NA,right,2120.79999999981,true,NA,NA,NA,NA,NA
Iu3YjxPt,3mdwe879vkfdd3966pwqlqs2jwg9bh,36nemu28xjqmvao5hr1t2a7zvegmwd,Iu3YjxPt,2020-0188,2021-10-14,08:49:02,09:58:23,NA,incomplete,false,true,NA,8,4,NA,red,m_l_084.jpg,NA,NA,pleasant,unpleasant,NA,NA,NA,NA,NA,left,1271.89999999944,true,NA,NA,NA,NA,NA
Iu3YjxPt,3mdwe879vkfdd3966pwqlqs2jwg9bh,36nemu28xjqmvao5hr1t2a7zvegmwd,Iu3YjxPt,2020-0188,2021-10-14,08:49:02,09:58:23,NA,incomplete,false,true,NA,8,5,NA,red,m_s_016.jpg,NA,NA,pleasant,unpleasant,NA,NA,NA,NA,NA,left,1345.29999999981,true,NA,NA,NA,NA,NA
Iu3YjxPt,3mdwe879vkfdd3966pwqlqs2jwg9bh,36nemu28xjqmvao5hr1t2a7zvegmwd,Iu3YjxPt,2020-0188,2021-10-14,08:49:02,09:58:23,NA,incomplete,false,true,NA,8,6,NA,black,n_l_033.jpg,NA,NA,pleasant,unpleasant,NA,NA,NA,NA,NA,right,1708.39999999944,true,NA,NA,NA,NA,NA
Iu3YjxPt,3mdwe879vkfdd3966pwqlqs2jwg9bh,36nemu28xjqmvao5hr1t2a7zvegmwd,Iu3YjxPt,2020-0188,2021-10-14,08:49:02,09:58:23,NA,incomplete,false,true,NA,8,7,NA,black,m_s_067.jpg,NA,NA,pleasant,unpleasant,NA,NA,NA,NA,NA,left,1265.09999999963,true,NA,NA,NA,NA,NA
Iu3YjxPt,3mdwe879vkfdd3966pwqlqs2jwg9bh,36nemu28xjqmvao5hr1t2a7zvegmwd,Iu3YjxPt,2020-0188,2021-10-14,08:49:02,09:58:23,NA,incomplete,false,true,NA,8,8,NA,black,m_l_069.jpg,NA,NA,unpleasant,pleasant,NA,NA,NA,NA,NA,left,1457.90000000037,true,NA,NA,NA,NA,NA
Iu3YjxPt,3mdwe879vkfdd3966pwqlqs2jwg9bh,36nemu28xjqmvao5hr1t2a7zvegmwd,Iu3YjxPt,2020-0188,2021-10-14,08:49:02,09:58:23,NA,incomplete,false,true,NA,8,9,NA,black,n_s_060.jpg,NA,NA,pleasant,unpleasant,NA,NA,NA,NA,NA,left,1368.40000000037,true,NA,NA,NA,NA,NA
