workerId,hitId,assignmentId,subject,studyid,exp_date,exp_start,exp_end,time_start,time_end,practice,encoding,memory,block,trial,event_order,event,stim,answer,context_type,label_left,label_right,left_image,left_event,right_image,right_event,condition,response,response_time,response_acc,order_response,order_response_time,order_acc,distance_response,distance_response_time
jJJRx5A1,32k26u12eq14p7ktnmss8y5zd9bdv8,3g5f9dbfotano7np0kgko3gp7ktvhj,jJJRx5A1,2020-0188,2021-10-14,11:00:04,12:32:13,NA,incomplete,true,true,NA,0,0,NA,purple,n_l_036.jpg,NA,NA,unpleasant,pleasant,NA,NA,NA,NA,NA,right,1390.09999990463,true,NA,NA,NA,NA,NA
jJJRx5A1,32k26u12eq14p7ktnmss8y5zd9bdv8,3g5f9dbfotano7np0kgko3gp7ktvhj,jJJRx5A1,2020-0188,2021-10-14,11:00:04,12:32:13,NA,incomplete,true,true,NA,0,1,NA,purple,n_l_030.jpg,NA,NA,unpleasant,pleasant,NA,NA,NA,NA,NA,right,1250.2999997139,true,NA,NA,NA,NA,NA
jJJRx5A1,32k26u12eq14p7ktnmss8y5zd9bdv8,3g5f9dbfotano7np0kgko3gp7ktvhj,jJJRx5A1,2020-0188,2021-10-14,11:00:04,12:32:13,NA,incomplete,true,true,NA,0,2,NA,purple,n_s_017.jpg,NA,NA,unpleasant,pleasant,NA,NA,NA,NA,NA,left,1311.19999980927,true,NA,NA,NA,NA,NA
jJJRx5A1,32k26u12eq14p7ktnmss8y5zd9bdv8,3g5f9dbfotano7np0kgko3gp7ktvhj,jJJRx5A1,2020-0188,2021-10-14,11:00:04,12:32:13,NA,incomplete,true,true,NA,0,3,NA,purple,m_s_114.jpg,NA,NA,unpleasant,pleasant,NA,NA,NA,NA,NA,right,1435.2999997139,true,NA,NA,NA,NA,NA
jJJRx5A1,32k26u12eq14p7ktnmss8y5zd9bdv8,3g5f9dbfotano7np0kgko3gp7ktvhj,jJJRx5A1,2020-0188,2021-10-14,11:00:04,12:32:13,NA,incomplete,true,true,NA,0,4,NA,purple,m_l_050.jpg,NA,NA,unpleasant,pleasant,NA,NA,NA,NA,NA,right,1447.30000019073,true,NA,NA,NA,NA,NA
jJJRx5A1,32k26u12eq14p7ktnmss8y5zd9bdv8,3g5f9dbfotano7np0kgko3gp7ktvhj,jJJRx5A1,2020-0188,2021-10-14,11:00:04,12:32:13,NA,incomplete,true,true,NA,0,5,NA,purple,n_l_097.jpg,NA,NA,unpleasant,pleasant,NA,NA,NA,NA,NA,right,1796.5,true,NA,NA,NA,NA,NA
jJJRx5A1,32k26u12eq14p7ktnmss8y5zd9bdv8,3g5f9dbfotano7np0kgko3gp7ktvhj,jJJRx5A1,2020-0188,2021-10-14,11:00:04,12:32:13,NA,incomplete,true,true,NA,0,6,NA,blue,m_l_002.jpg,NA,NA,pleasant,unpleasant,NA,NA,NA,NA,NA,right,1744.90000009537,true,NA,NA,NA,NA,NA
jJJRx5A1,32k26u12eq14p7ktnmss8y5zd9bdv8,3g5f9dbfotano7np0kgko3gp7ktvhj,jJJRx5A1,2020-0188,2021-10-14,11:00:04,12:32:13,NA,incomplete,true,true,NA,0,7,NA,blue,m_l_107.jpg,NA,NA,unpleasant,pleasant,NA,NA,NA,NA,NA,left,1846,true,NA,NA,NA,NA,NA
jJJRx5A1,32k26u12eq14p7ktnmss8y5zd9bdv8,3g5f9dbfotano7np0kgko3gp7ktvhj,jJJRx5A1,2020-0188,2021-10-14,11:00:04,12:32:13,NA,incomplete,true,true,NA,0,8,NA,blue,m_l_015.jpg,NA,NA,pleasant,unpleasant,NA,NA,NA,NA,NA,right,1131.10000038147,true,NA,NA,NA,NA,NA
jJJRx5A1,32k26u12eq14p7ktnmss8y5zd9bdv8,3g5f9dbfotano7np0kgko3gp7ktvhj,jJJRx5A1,2020-0188,2021-10-14,11:00:04,12:32:13,NA,incomplete,true,true,NA,0,9,NA,blue,n_s_026.jpg,NA,NA,unpleasant,pleasant,NA,NA,NA,NA,NA,left,1431.2999997139,true,NA,NA,NA,NA,NA
jJJRx5A1,32k26u12eq14p7ktnmss8y5zd9bdv8,3g5f9dbfotano7np0kgko3gp7ktvhj,jJJRx5A1,2020-0188,2021-10-14,11:00:04,12:32:13,NA,incomplete,true,true,NA,0,10,NA,blue,m_s_094.jpg,NA,NA,pleasant,unpleasant,NA,NA,NA,NA,NA,right,1580.10000038147,true,NA,NA,NA,NA,NA
jJJRx5A1,32k26u12eq14p7ktnmss8y5zd9bdv8,3g5f9dbfotano7np0kgko3gp7ktvhj,jJJRx5A1,2020-0188,2021-10-14,11:00:04,12:32:13,NA,incomplete,true,true,NA,0,11,NA,blue,n_s_057.jpg,NA,NA,pleasant,unpleasant,NA,NA,NA,NA,NA,right,2265.30000019073,true,NA,NA,NA,NA,NA
jJJRx5A1,32k26u12eq14p7ktnmss8y5zd9bdv8,3g5f9dbfotano7np0kgko3gp7ktvhj,jJJRx5A1,2020-0188,2021-10-14,11:00:04,12:32:13,NA,incomplete,true,true,NA,0,12,NA,white,n_s_090.jpg,NA,NA,unpleasant,pleasant,NA,NA,NA,NA,NA,left,2277.59999990463,true,NA,NA,NA,NA,NA
jJJRx5A1,32k26u12eq14p7ktnmss8y5zd9bdv8,3g5f9dbfotano7np0kgko3gp7ktvhj,jJJRx5A1,2020-0188,2021-10-14,11:00:04,12:32:13,NA,incomplete,true,true,NA,0,13,NA,white,m_l_012.jpg,NA,NA,pleasant,unpleasant,NA,NA,NA,NA,NA,left,2186.30000019073,true,NA,NA,NA,NA,NA
jJJRx5A1,32k26u12eq14p7ktnmss8y5zd9bdv8,3g5f9dbfotano7np0kgko3gp7ktvhj,jJJRx5A1,2020-0188,2021-10-14,11:00:04,12:32:13,NA,incomplete,true,true,NA,0,14,NA,white,m_l_105.jpg,NA,NA,pleasant,unpleasant,NA,NA,NA,NA,NA,right,1381.5,true,NA,NA,NA,NA,NA
jJJRx5A1,32k26u12eq14p7ktnmss8y5zd9bdv8,3g5f9dbfotano7np0kgko3gp7ktvhj,jJJRx5A1,2020-0188,2021-10-14,11:00:04,12:32:13,NA,incomplete,true,true,NA,0,15,NA,white,m_l_094.jpg,NA,NA,unpleasant,pleasant,NA,NA,NA,NA,NA,left,1723.30000019073,true,NA,NA,NA,NA,NA
jJJRx5A1,32k26u12eq14p7ktnmss8y5zd9bdv8,3g5f9dbfotano7np0kgko3gp7ktvhj,jJJRx5A1,2020-0188,2021-10-14,11:00:04,12:32:13,NA,incomplete,true,true,NA,0,16,NA,white,n_s_080.jpg,NA,NA,pleasant,unpleasant,NA,NA,NA,NA,NA,right,1367.2999997139,true,NA,NA,NA,NA,NA
jJJRx5A1,32k26u12eq14p7ktnmss8y5zd9bdv8,3g5f9dbfotano7np0kgko3gp7ktvhj,jJJRx5A1,2020-0188,2021-10-14,11:00:04,12:32:13,NA,incomplete,true,true,NA,0,17,NA,white,n_l_062.jpg,NA,NA,unpleasant,pleasant,NA,NA,NA,NA,NA,right,1635.69999980927,true,NA,NA,NA,NA,NA
jJJRx5A1,32k26u12eq14p7ktnmss8y5zd9bdv8,3g5f9dbfotano7np0kgko3gp7ktvhj,jJJRx5A1,2020-0188,2021-10-14,11:00:04,12:32:13,NA,incomplete,true,true,NA,0,18,NA,orange,n_s_035.jpg,NA,NA,pleasant,unpleasant,NA,NA,NA,NA,NA,left,1935.69999980927,true,NA,NA,NA,NA,NA
jJJRx5A1,32k26u12eq14p7ktnmss8y5zd9bdv8,3g5f9dbfotano7np0kgko3gp7ktvhj,jJJRx5A1,2020-0188,2021-10-14,11:00:04,12:32:13,NA,incomplete,true,true,NA,0,19,NA,orange,m_l_003.jpg,NA,NA,pleasant,unpleasant,NA,NA,NA,NA,NA,right,1435.5,true,NA,NA,NA,NA,NA
jJJRx5A1,32k26u12eq14p7ktnmss8y5zd9bdv8,3g5f9dbfotano7np0kgko3gp7ktvhj,jJJRx5A1,2020-0188,2021-10-14,11:00:04,12:32:13,NA,incomplete,true,true,NA,0,20,NA,orange,m_s_105.jpg,NA,NA,unpleasant,pleasant,NA,NA,NA,NA,NA,right,2024,true,NA,NA,NA,NA,NA
jJJRx5A1,32k26u12eq14p7ktnmss8y5zd9bdv8,3g5f9dbfotano7np0kgko3gp7ktvhj,jJJRx5A1,2020-0188,2021-10-14,11:00:04,12:32:13,NA,incomplete,true,true,NA,0,21,NA,orange,n_l_072.jpg,NA,NA,unpleasant,pleasant,NA,NA,NA,NA,NA,right,1803.80000019073,true,NA,NA,NA,NA,NA
jJJRx5A1,32k26u12eq14p7ktnmss8y5zd9bdv8,3g5f9dbfotano7np0kgko3gp7ktvhj,jJJRx5A1,2020-0188,2021-10-14,11:00:04,12:32:13,NA,incomplete,true,true,NA,0,22,NA,orange,n_l_020.jpg,NA,NA,pleasant,unpleasant,NA,NA,NA,NA,NA,left,2070.59999990463,true,NA,NA,NA,NA,NA
jJJRx5A1,32k26u12eq14p7ktnmss8y5zd9bdv8,3g5f9dbfotano7np0kgko3gp7ktvhj,jJJRx5A1,2020-0188,2021-10-14,11:00:04,12:32:13,NA,incomplete,true,true,NA,0,23,NA,orange,n_s_073.jpg,NA,NA,pleasant,unpleasant,NA,NA,NA,NA,NA,right,2363.19999980927,true,NA,NA,NA,NA,NA
jJJRx5A1,32k26u12eq14p7ktnmss8y5zd9bdv8,3g5f9dbfotano7np0kgko3gp7ktvhj,jJJRx5A1,2020-0188,2021-10-14,11:00:04,12:32:13,NA,incomplete,true,true,NA,0,24,NA,green,n_l_085.jpg,NA,NA,unpleasant,pleasant,NA,NA,NA,NA,NA,left,1792.69999980927,true,NA,NA,NA,NA,NA
jJJRx5A1,32k26u12eq14p7ktnmss8y5zd9bdv8,3g5f9dbfotano7np0kgko3gp7ktvhj,jJJRx5A1,2020-0188,2021-10-14,11:00:04,12:32:13,NA,incomplete,true,true,NA,0,25,NA,green,m_l_070.jpg,NA,NA,unpleasant,pleasant,NA,NA,NA,NA,NA,right,1821.80000019073,true,NA,NA,NA,NA,NA
jJJRx5A1,32k26u12eq14p7ktnmss8y5zd9bdv8,3g5f9dbfotano7np0kgko3gp7ktvhj,jJJRx5A1,2020-0188,2021-10-14,11:00:04,12:32:13,NA,incomplete,true,true,NA,0,26,NA,green,n_l_040.jpg,NA,NA,unpleasant,pleasant,NA,NA,NA,NA,NA,right,1408.7000002861,true,NA,NA,NA,NA,NA
jJJRx5A1,32k26u12eq14p7ktnmss8y5zd9bdv8,3g5f9dbfotano7np0kgko3gp7ktvhj,jJJRx5A1,2020-0188,2021-10-14,11:00:04,12:32:13,NA,incomplete,true,true,NA,0,27,NA,green,m_s_053.jpg,NA,NA,pleasant,unpleasant,NA,NA,NA,NA,NA,right,2126.5,true,NA,NA,NA,NA,NA
jJJRx5A1,32k26u12eq14p7ktnmss8y5zd9bdv8,3g5f9dbfotano7np0kgko3gp7ktvhj,jJJRx5A1,2020-0188,2021-10-14,11:00:04,12:32:13,NA,incomplete,true,true,NA,0,28,NA,green,n_s_109.jpg,NA,NA,pleasant,unpleasant,NA,NA,NA,NA,NA,left,1555.2000002861,true,NA,NA,NA,NA,NA
jJJRx5A1,32k26u12eq14p7ktnmss8y5zd9bdv8,3g5f9dbfotano7np0kgko3gp7ktvhj,jJJRx5A1,2020-0188,2021-10-14,11:00:04,12:32:13,NA,incomplete,true,true,NA,0,29,NA,green,m_s_046.jpg,NA,NA,unpleasant,pleasant,NA,NA,NA,NA,NA,left,2318.09999990463,true,NA,NA,NA,NA,NA
jJJRx5A1,32k26u12eq14p7ktnmss8y5zd9bdv8,3g5f9dbfotano7np0kgko3gp7ktvhj,jJJRx5A1,2020-0188,2021-10-14,11:00:04,12:32:13,NA,incomplete,true,true,NA,0,30,NA,red,n_s_110.jpg,NA,NA,unpleasant,pleasant,NA,NA,NA,NA,NA,left,2099.5,true,NA,NA,NA,NA,NA
jJJRx5A1,32k26u12eq14p7ktnmss8y5zd9bdv8,3g5f9dbfotano7np0kgko3gp7ktvhj,jJJRx5A1,2020-0188,2021-10-14,11:00:04,12:32:13,NA,incomplete,true,true,NA,0,31,NA,red,m_l_027.jpg,NA,NA,unpleasant,pleasant,NA,NA,NA,NA,NA,right,1680.39999961853,true,NA,NA,NA,NA,NA
jJJRx5A1,32k26u12eq14p7ktnmss8y5zd9bdv8,3g5f9dbfotano7np0kgko3gp7ktvhj,jJJRx5A1,2020-0188,2021-10-14,11:00:04,12:32:13,NA,incomplete,true,true,NA,0,32,NA,red,m_l_022.jpg,NA,NA,pleasant,unpleasant,NA,NA,NA,NA,NA,right,2197.09999990463,true,NA,NA,NA,NA,NA
jJJRx5A1,32k26u12eq14p7ktnmss8y5zd9bdv8,3g5f9dbfotano7np0kgko3gp7ktvhj,jJJRx5A1,2020-0188,2021-10-14,11:00:04,12:32:13,NA,incomplete,true,true,NA,0,33,NA,red,n_l_096.jpg,NA,NA,unpleasant,pleasant,NA,NA,NA,NA,NA,right,1826.2000002861,true,NA,NA,NA,NA,NA
jJJRx5A1,32k26u12eq14p7ktnmss8y5zd9bdv8,3g5f9dbfotano7np0kgko3gp7ktvhj,jJJRx5A1,2020-0188,2021-10-14,11:00:04,12:32:13,NA,incomplete,true,true,NA,0,34,NA,red,n_s_006.jpg,NA,NA,pleasant,unpleasant,NA,NA,NA,NA,NA,left,1973.40000009537,true,NA,NA,NA,NA,NA
jJJRx5A1,32k26u12eq14p7ktnmss8y5zd9bdv8,3g5f9dbfotano7np0kgko3gp7ktvhj,jJJRx5A1,2020-0188,2021-10-14,11:00:04,12:32:13,NA,incomplete,true,true,NA,0,35,NA,red,m_s_079.jpg,NA,NA,pleasant,unpleasant,NA,NA,NA,NA,NA,left,1690.90000009537,true,NA,NA,NA,NA,NA
jJJRx5A1,32k26u12eq14p7ktnmss8y5zd9bdv8,3g5f9dbfotano7np0kgko3gp7ktvhj,jJJRx5A1,2020-0188,2021-10-14,11:00:04,12:32:13,NA,incomplete,true,NA,true,0,0,NA,NA,NA,right,present,NA,NA,m_l_015.jpg,blue,m_l_050.jpg,purple,between,NA,NaN,NA,right,12511,1,1,3503.0999999046326
jJJRx5A1,32k26u12eq14p7ktnmss8y5zd9bdv8,3g5f9dbfotano7np0kgko3gp7ktvhj,jJJRx5A1,2020-0188,2021-10-14,11:00:04,12:32:13,NA,incomplete,true,NA,true,0,1,NA,NA,NA,left,absent,NA,NA,m_l_012.jpg,white,n_l_062.jpg,white,within,NA,NaN,NA,left,4086.9000000953674,1,2,2022.8999996185303
jJJRx5A1,32k26u12eq14p7ktnmss8y5zd9bdv8,3g5f9dbfotano7np0kgko3gp7ktvhj,jJJRx5A1,2020-0188,2021-10-14,11:00:04,12:32:13,NA,incomplete,true,NA,true,0,2,NA,NA,NA,right,absent,NA,NA,m_l_105.jpg,white,m_s_094.jpg,blue,between,NA,NaN,NA,right,10335.099999904633,1,0,1295.5999999046326
jJJRx5A1,32k26u12eq14p7ktnmss8y5zd9bdv8,3g5f9dbfotano7np0kgko3gp7ktvhj,jJJRx5A1,2020-0188,2021-10-14,11:00:04,12:32:13,NA,incomplete,true,NA,true,0,3,NA,NA,NA,left,present,NA,NA,n_l_020.jpg,orange,n_l_040.jpg,green,between,NA,NaN,NA,right,5447.800000190735,0,1,1599.3000001907349
jJJRx5A1,32k26u12eq14p7ktnmss8y5zd9bdv8,3g5f9dbfotano7np0kgko3gp7ktvhj,jJJRx5A1,2020-0188,2021-10-14,11:00:04,12:32:13,NA,incomplete,true,NA,true,0,4,NA,NA,NA,right,absent,NA,NA,n_l_097.jpg,purple,n_l_030.jpg,purple,within,NA,NaN,NA,right,6200,1,2,2039.5999999046326
jJJRx5A1,32k26u12eq14p7ktnmss8y5zd9bdv8,3g5f9dbfotano7np0kgko3gp7ktvhj,jJJRx5A1,2020-0188,2021-10-14,11:00:04,12:32:13,NA,incomplete,true,NA,true,0,5,NA,NA,NA,left,present,NA,NA,m_l_027.jpg,red,m_s_079.jpg,red,within,NA,NaN,NA,left,6671.700000286102,1,0,1079.2999997138977
jJJRx5A1,32k26u12eq14p7ktnmss8y5zd9bdv8,3g5f9dbfotano7np0kgko3gp7ktvhj,jJJRx5A1,2020-0188,2021-10-14,11:00:04,12:32:13,NA,incomplete,true,NA,true,0,6,NA,NA,NA,left,absent,NA,NA,m_l_003.jpg,orange,n_s_073.jpg,orange,within,NA,NaN,NA,left,3799.3999996185303,1,3,1439.7999997138977
jJJRx5A1,32k26u12eq14p7ktnmss8y5zd9bdv8,3g5f9dbfotano7np0kgko3gp7ktvhj,jJJRx5A1,2020-0188,2021-10-14,11:00:04,12:32:13,NA,incomplete,true,NA,true,0,7,NA,NA,NA,right,absent,NA,NA,n_s_057.jpg,blue,m_l_107.jpg,blue,within,NA,NaN,NA,right,7367.39999961853,1,2,1559.4000000953674
jJJRx5A1,32k26u12eq14p7ktnmss8y5zd9bdv8,3g5f9dbfotano7np0kgko3gp7ktvhj,jJJRx5A1,2020-0188,2021-10-14,11:00:04,12:32:13,NA,incomplete,true,NA,true,0,8,NA,NA,NA,right,present,NA,NA,m_l_022.jpg,red,n_s_109.jpg,green,between,NA,NaN,NA,left,11063.800000190735,0,3,1423.7999997138977
jJJRx5A1,32k26u12eq14p7ktnmss8y5zd9bdv8,3g5f9dbfotano7np0kgko3gp7ktvhj,jJJRx5A1,2020-0188,2021-10-14,11:00:04,12:32:13,NA,incomplete,true,NA,true,0,9,NA,NA,NA,right,absent,NA,NA,m_s_105.jpg,orange,n_s_080.jpg,white,between,NA,NaN,NA,right,4031.6000003814697,1,1,1231.5
jJJRx5A1,32k26u12eq14p7ktnmss8y5zd9bdv8,3g5f9dbfotano7np0kgko3gp7ktvhj,jJJRx5A1,2020-0188,2021-10-14,11:00:04,12:32:13,NA,incomplete,true,NA,true,0,10,NA,NA,NA,right,absent,NA,NA,m_s_046.jpg,green,m_l_070.jpg,green,within,NA,NaN,NA,right,4111.60000038147,1,2,1039.5
jJJRx5A1,32k26u12eq14p7ktnmss8y5zd9bdv8,3g5f9dbfotano7np0kgko3gp7ktvhj,jJJRx5A1,2020-0188,2021-10-14,11:00:04,12:32:13,NA,incomplete,false,true,NA,1,0,NA,yellow,m_l_106.jpg,NA,NA,pleasant,unpleasant,NA,NA,NA,NA,NA,left,2300.59999990463,true,NA,NA,NA,NA,NA
jJJRx5A1,32k26u12eq14p7ktnmss8y5zd9bdv8,3g5f9dbfotano7np0kgko3gp7ktvhj,jJJRx5A1,2020-0188,2021-10-14,11:00:04,12:32:13,NA,incomplete,false,true,NA,1,1,NA,yellow,m_s_022.jpg,NA,NA,pleasant,unpleasant,NA,NA,NA,NA,NA,left,1640.80000019073,true,NA,NA,NA,NA,NA
jJJRx5A1,32k26u12eq14p7ktnmss8y5zd9bdv8,3g5f9dbfotano7np0kgko3gp7ktvhj,jJJRx5A1,2020-0188,2021-10-14,11:00:04,12:32:13,NA,incomplete,false,true,NA,1,2,NA,yellow,n_s_066.jpg,NA,NA,pleasant,unpleasant,NA,NA,NA,NA,NA,right,1349.2999997139,true,NA,NA,NA,NA,NA
jJJRx5A1,32k26u12eq14p7ktnmss8y5zd9bdv8,3g5f9dbfotano7np0kgko3gp7ktvhj,jJJRx5A1,2020-0188,2021-10-14,11:00:04,12:32:13,NA,incomplete,false,true,NA,1,3,NA,yellow,m_l_095.jpg,NA,NA,pleasant,unpleasant,NA,NA,NA,NA,NA,left,1185.7999997139,true,NA,NA,NA,NA,NA
jJJRx5A1,32k26u12eq14p7ktnmss8y5zd9bdv8,3g5f9dbfotano7np0kgko3gp7ktvhj,jJJRx5A1,2020-0188,2021-10-14,11:00:04,12:32:13,NA,incomplete,false,true,NA,1,4,NA,yellow,n_l_078.jpg,NA,NA,unpleasant,pleasant,NA,NA,NA,NA,NA,right,957.799999713898,true,NA,NA,NA,NA,NA
jJJRx5A1,32k26u12eq14p7ktnmss8y5zd9bdv8,3g5f9dbfotano7np0kgko3gp7ktvhj,jJJRx5A1,2020-0188,2021-10-14,11:00:04,12:32:13,NA,incomplete,false,true,NA,1,5,NA,yellow,n_s_044.jpg,NA,NA,pleasant,unpleasant,NA,NA,NA,NA,NA,left,1722.69999980927,true,NA,NA,NA,NA,NA
jJJRx5A1,32k26u12eq14p7ktnmss8y5zd9bdv8,3g5f9dbfotano7np0kgko3gp7ktvhj,jJJRx5A1,2020-0188,2021-10-14,11:00:04,12:32:13,NA,incomplete,false,true,NA,1,6,NA,orange,m_l_044.jpg,NA,NA,unpleasant,pleasant,NA,NA,NA,NA,NA,right,1878.30000019073,true,NA,NA,NA,NA,NA
jJJRx5A1,32k26u12eq14p7ktnmss8y5zd9bdv8,3g5f9dbfotano7np0kgko3gp7ktvhj,jJJRx5A1,2020-0188,2021-10-14,11:00:04,12:32:13,NA,incomplete,false,true,NA,1,7,NA,orange,m_s_038.jpg,NA,NA,pleasant,unpleasant,NA,NA,NA,NA,NA,left,1339,true,NA,NA,NA,NA,NA
jJJRx5A1,32k26u12eq14p7ktnmss8y5zd9bdv8,3g5f9dbfotano7np0kgko3gp7ktvhj,jJJRx5A1,2020-0188,2021-10-14,11:00:04,12:32:13,NA,incomplete,false,true,NA,1,8,NA,orange,m_s_019.jpg,NA,NA,unpleasant,pleasant,NA,NA,NA,NA,NA,right,1191.09999990463,true,NA,NA,NA,NA,NA
jJJRx5A1,32k26u12eq14p7ktnmss8y5zd9bdv8,3g5f9dbfotano7np0kgko3gp7ktvhj,jJJRx5A1,2020-0188,2021-10-14,11:00:04,12:32:13,NA,incomplete,false,true,NA,1,9,NA,orange,n_s_062.jpg,NA,NA,unpleasant,pleasant,NA,NA,NA,NA,NA,right,1467.09999990463,true,NA,NA,NA,NA,NA
jJJRx5A1,32k26u12eq14p7ktnmss8y5zd9bdv8,3g5f9dbfotano7np0kgko3gp7ktvhj,jJJRx5A1,2020-0188,2021-10-14,11:00:04,12:32:13,NA,incomplete,false,true,NA,1,10,NA,orange,n_l_059.jpg,NA,NA,unpleasant,pleasant,NA,NA,NA,NA,NA,right,1623.5,true,NA,NA,NA,NA,NA
jJJRx5A1,32k26u12eq14p7ktnmss8y5zd9bdv8,3g5f9dbfotano7np0kgko3gp7ktvhj,jJJRx5A1,2020-0188,2021-10-14,11:00:04,12:32:13,NA,incomplete,false,true,NA,1,11,NA,orange,n_l_010.jpg,NA,NA,pleasant,unpleasant,NA,NA,NA,NA,NA,left,2219.59999990463,true,NA,NA,NA,NA,NA
jJJRx5A1,32k26u12eq14p7ktnmss8y5zd9bdv8,3g5f9dbfotano7np0kgko3gp7ktvhj,jJJRx5A1,2020-0188,2021-10-14,11:00:04,12:32:13,NA,incomplete,false,true,NA,1,12,NA,green,m_s_065.jpg,NA,NA,unpleasant,pleasant,NA,NA,NA,NA,NA,right,1631.59999990463,true,NA,NA,NA,NA,NA
jJJRx5A1,32k26u12eq14p7ktnmss8y5zd9bdv8,3g5f9dbfotano7np0kgko3gp7ktvhj,jJJRx5A1,2020-0188,2021-10-14,11:00:04,12:32:13,NA,incomplete,false,true,NA,1,13,NA,green,n_s_052.jpg,NA,NA,pleasant,unpleasant,NA,NA,NA,NA,NA,right,1748.40000009537,true,NA,NA,NA,NA,NA
jJJRx5A1,32k26u12eq14p7ktnmss8y5zd9bdv8,3g5f9dbfotano7np0kgko3gp7ktvhj,jJJRx5A1,2020-0188,2021-10-14,11:00:04,12:32:13,NA,incomplete,false,true,NA,1,14,NA,green,m_l_101.jpg,NA,NA,pleasant,unpleasant,NA,NA,NA,NA,NA,left,1425.2000002861,true,NA,NA,NA,NA,NA
jJJRx5A1,32k26u12eq14p7ktnmss8y5zd9bdv8,3g5f9dbfotano7np0kgko3gp7ktvhj,jJJRx5A1,2020-0188,2021-10-14,11:00:04,12:32:13,NA,incomplete,false,true,NA,1,15,NA,green,n_l_061.jpg,NA,NA,unpleasant,pleasant,NA,NA,NA,NA,NA,right,1613.90000009537,true,NA,NA,NA,NA,NA
jJJRx5A1,32k26u12eq14p7ktnmss8y5zd9bdv8,3g5f9dbfotano7np0kgko3gp7ktvhj,jJJRx5A1,2020-0188,2021-10-14,11:00:04,12:32:13,NA,incomplete,false,true,NA,1,16,NA,green,m_l_067.jpg,NA,NA,unpleasant,pleasant,NA,NA,NA,NA,NA,right,2130.5,true,NA,NA,NA,NA,NA
jJJRx5A1,32k26u12eq14p7ktnmss8y5zd9bdv8,3g5f9dbfotano7np0kgko3gp7ktvhj,jJJRx5A1,2020-0188,2021-10-14,11:00:04,12:32:13,NA,incomplete,false,true,NA,1,17,NA,green,m_l_084.jpg,NA,NA,pleasant,unpleasant,NA,NA,NA,NA,NA,left,2023.40000009537,true,NA,NA,NA,NA,NA
jJJRx5A1,32k26u12eq14p7ktnmss8y5zd9bdv8,3g5f9dbfotano7np0kgko3gp7ktvhj,jJJRx5A1,2020-0188,2021-10-14,11:00:04,12:32:13,NA,incomplete,false,true,NA,1,18,NA,brown,m_l_024.jpg,NA,NA,unpleasant,pleasant,NA,NA,NA,NA,NA,right,2211.60000038147,true,NA,NA,NA,NA,NA
jJJRx5A1,32k26u12eq14p7ktnmss8y5zd9bdv8,3g5f9dbfotano7np0kgko3gp7ktvhj,jJJRx5A1,2020-0188,2021-10-14,11:00:04,12:32:13,NA,incomplete,false,true,NA,1,19,NA,brown,n_l_038.jpg,NA,NA,unpleasant,pleasant,NA,NA,NA,NA,NA,left,1960.2000002861,true,NA,NA,NA,NA,NA
jJJRx5A1,32k26u12eq14p7ktnmss8y5zd9bdv8,3g5f9dbfotano7np0kgko3gp7ktvhj,jJJRx5A1,2020-0188,2021-10-14,11:00:04,12:32:13,NA,incomplete,false,true,NA,1,20,NA,brown,m_l_086.jpg,NA,NA,pleasant,unpleasant,NA,NA,NA,NA,NA,right,2188.2000002861,true,NA,NA,NA,NA,NA
jJJRx5A1,32k26u12eq14p7ktnmss8y5zd9bdv8,3g5f9dbfotano7np0kgko3gp7ktvhj,jJJRx5A1,2020-0188,2021-10-14,11:00:04,12:32:13,NA,incomplete,false,true,NA,1,21,NA,brown,m_s_085.jpg,NA,NA,pleasant,unpleasant,NA,NA,NA,NA,NA,left,2057.2000002861,true,NA,NA,NA,NA,NA
jJJRx5A1,32k26u12eq14p7ktnmss8y5zd9bdv8,3g5f9dbfotano7np0kgko3gp7ktvhj,jJJRx5A1,2020-0188,2021-10-14,11:00:04,12:32:13,NA,incomplete,false,true,NA,1,22,NA,brown,m_l_062.jpg,NA,NA,pleasant,unpleasant,NA,NA,NA,NA,NA,right,1685.09999990463,true,NA,NA,NA,NA,NA
jJJRx5A1,32k26u12eq14p7ktnmss8y5zd9bdv8,3g5f9dbfotano7np0kgko3gp7ktvhj,jJJRx5A1,2020-0188,2021-10-14,11:00:04,12:32:13,NA,incomplete,false,true,NA,1,23,NA,brown,m_l_048.jpg,NA,NA,unpleasant,pleasant,NA,NA,NA,NA,NA,left,1649.5,true,NA,NA,NA,NA,NA
jJJRx5A1,32k26u12eq14p7ktnmss8y5zd9bdv8,3g5f9dbfotano7np0kgko3gp7ktvhj,jJJRx5A1,2020-0188,2021-10-14,11:00:04,12:32:13,NA,incomplete,false,true,NA,1,24,NA,blue,n_l_113.jpg,NA,NA,unpleasant,pleasant,NA,NA,NA,NA,NA,right,2094.09999990463,true,NA,NA,NA,NA,NA
jJJRx5A1,32k26u12eq14p7ktnmss8y5zd9bdv8,3g5f9dbfotano7np0kgko3gp7ktvhj,jJJRx5A1,2020-0188,2021-10-14,11:00:04,12:32:13,NA,incomplete,false,true,NA,1,25,NA,blue,m_s_063.jpg,NA,NA,pleasant,unpleasant,NA,NA,NA,NA,NA,left,1754.69999980927,true,NA,NA,NA,NA,NA
jJJRx5A1,32k26u12eq14p7ktnmss8y5zd9bdv8,3g5f9dbfotano7np0kgko3gp7ktvhj,jJJRx5A1,2020-0188,2021-10-14,11:00:04,12:32:13,NA,incomplete,false,true,NA,1,26,NA,blue,n_s_032.jpg,NA,NA,unpleasant,pleasant,NA,NA,NA,NA,NA,right,1407.09999990463,true,NA,NA,NA,NA,NA
jJJRx5A1,32k26u12eq14p7ktnmss8y5zd9bdv8,3g5f9dbfotano7np0kgko3gp7ktvhj,jJJRx5A1,2020-0188,2021-10-14,11:00:04,12:32:13,NA,incomplete,false,true,NA,1,27,NA,blue,n_l_042.jpg,NA,NA,unpleasant,pleasant,NA,NA,NA,NA,NA,right,1451.2000002861,true,NA,NA,NA,NA,NA
jJJRx5A1,32k26u12eq14p7ktnmss8y5zd9bdv8,3g5f9dbfotano7np0kgko3gp7ktvhj,jJJRx5A1,2020-0188,2021-10-14,11:00:04,12:32:13,NA,incomplete,false,true,NA,1,28,NA,blue,m_l_023.jpg,NA,NA,unpleasant,pleasant,NA,NA,NA,NA,NA,right,2103.19999980927,true,NA,NA,NA,NA,NA
jJJRx5A1,32k26u12eq14p7ktnmss8y5zd9bdv8,3g5f9dbfotano7np0kgko3gp7ktvhj,jJJRx5A1,2020-0188,2021-10-14,11:00:04,12:32:13,NA,incomplete,false,true,NA,1,29,NA,blue,n_s_049.jpg,NA,NA,unpleasant,pleasant,NA,NA,NA,NA,NA,right,1963.69999980927,true,NA,NA,NA,NA,NA
jJJRx5A1,32k26u12eq14p7ktnmss8y5zd9bdv8,3g5f9dbfotano7np0kgko3gp7ktvhj,jJJRx5A1,2020-0188,2021-10-14,11:00:04,12:32:13,NA,incomplete,false,true,NA,1,30,NA,black,n_s_115.jpg,NA,NA,pleasant,unpleasant,NA,NA,NA,NA,NA,right,2351.90000009537,true,NA,NA,NA,NA,NA
jJJRx5A1,32k26u12eq14p7ktnmss8y5zd9bdv8,3g5f9dbfotano7np0kgko3gp7ktvhj,jJJRx5A1,2020-0188,2021-10-14,11:00:04,12:32:13,NA,incomplete,false,true,NA,1,31,NA,black,m_s_011.jpg,NA,NA,pleasant,unpleasant,NA,NA,NA,NA,NA,right,2188.2000002861,true,NA,NA,NA,NA,NA
jJJRx5A1,32k26u12eq14p7ktnmss8y5zd9bdv8,3g5f9dbfotano7np0kgko3gp7ktvhj,jJJRx5A1,2020-0188,2021-10-14,11:00:04,12:32:13,NA,incomplete,false,true,NA,1,32,NA,black,n_s_034.jpg,NA,NA,pleasant,unpleasant,NA,NA,NA,NA,NA,left,2168.59999990463,true,NA,NA,NA,NA,NA
jJJRx5A1,32k26u12eq14p7ktnmss8y5zd9bdv8,3g5f9dbfotano7np0kgko3gp7ktvhj,jJJRx5A1,2020-0188,2021-10-14,11:00:04,12:32:13,NA,incomplete,false,true,NA,1,33,NA,black,m_l_073.jpg,NA,NA,unpleasant,pleasant,NA,NA,NA,NA,NA,right,2236.40000009537,true,NA,NA,NA,NA,NA
jJJRx5A1,32k26u12eq14p7ktnmss8y5zd9bdv8,3g5f9dbfotano7np0kgko3gp7ktvhj,jJJRx5A1,2020-0188,2021-10-14,11:00:04,12:32:13,NA,incomplete,false,true,NA,1,34,NA,black,m_s_107.jpg,NA,NA,unpleasant,pleasant,NA,NA,NA,NA,NA,right,2040.2000002861,true,NA,NA,NA,NA,NA
jJJRx5A1,32k26u12eq14p7ktnmss8y5zd9bdv8,3g5f9dbfotano7np0kgko3gp7ktvhj,jJJRx5A1,2020-0188,2021-10-14,11:00:04,12:32:13,NA,incomplete,false,true,NA,1,35,NA,black,m_s_023.jpg,NA,NA,unpleasant,pleasant,NA,NA,NA,NA,NA,right,1348.80000019073,true,NA,NA,NA,NA,NA
jJJRx5A1,32k26u12eq14p7ktnmss8y5zd9bdv8,3g5f9dbfotano7np0kgko3gp7ktvhj,jJJRx5A1,2020-0188,2021-10-14,11:00:04,12:32:13,NA,incomplete,false,NA,true,1,0,NA,NA,NA,left,present,NA,NA,m_s_038.jpg,orange,n_l_010.jpg,orange,within,NA,NaN,NA,left,3654.8999996185303,1,3,3959.199999809265
jJJRx5A1,32k26u12eq14p7ktnmss8y5zd9bdv8,3g5f9dbfotano7np0kgko3gp7ktvhj,jJJRx5A1,2020-0188,2021-10-14,11:00:04,12:32:13,NA,incomplete,false,NA,true,1,1,NA,NA,NA,left,present,NA,NA,m_l_067.jpg,green,m_l_086.jpg,brown,between,NA,NaN,NA,right,7166.800000190735,0,1,1239.0999999046326
jJJRx5A1,32k26u12eq14p7ktnmss8y5zd9bdv8,3g5f9dbfotano7np0kgko3gp7ktvhj,jJJRx5A1,2020-0188,2021-10-14,11:00:04,12:32:13,NA,incomplete,false,NA,true,1,2,NA,NA,NA,right,present,NA,NA,m_l_101.jpg,green,n_l_059.jpg,orange,between,NA,NaN,NA,left,6031.199999809265,0,3,1839
jJJRx5A1,32k26u12eq14p7ktnmss8y5zd9bdv8,3g5f9dbfotano7np0kgko3gp7ktvhj,jJJRx5A1,2020-0188,2021-10-14,11:00:04,12:32:13,NA,incomplete,false,NA,true,1,3,NA,NA,NA,right,present,NA,NA,n_s_044.jpg,yellow,m_s_022.jpg,yellow,within,NA,NaN,NA,right,7575.900000095367,1,0,1255.2000002861023
jJJRx5A1,32k26u12eq14p7ktnmss8y5zd9bdv8,3g5f9dbfotano7np0kgko3gp7ktvhj,jJJRx5A1,2020-0188,2021-10-14,11:00:04,12:32:13,NA,incomplete,false,NA,true,1,4,NA,NA,NA,right,present,NA,NA,n_s_034.jpg,black,m_l_023.jpg,blue,between,NA,NaN,NA,right,3791.699999809265,1,2,1455.1999998092651
jJJRx5A1,32k26u12eq14p7ktnmss8y5zd9bdv8,3g5f9dbfotano7np0kgko3gp7ktvhj,jJJRx5A1,2020-0188,2021-10-14,11:00:04,12:32:13,NA,incomplete,false,NA,true,1,5,NA,NA,NA,right,present,NA,NA,m_s_023.jpg,black,m_s_011.jpg,black,within,NA,NaN,NA,left,8015.800000190735,0,2,2975.7000002861023
jJJRx5A1,32k26u12eq14p7ktnmss8y5zd9bdv8,3g5f9dbfotano7np0kgko3gp7ktvhj,jJJRx5A1,2020-0188,2021-10-14,11:00:04,12:32:13,NA,incomplete,false,NA,true,1,6,NA,NA,NA,right,present,NA,NA,m_l_048.jpg,brown,n_l_038.jpg,brown,within,NA,NaN,NA,left,6383.60000038147,0,0,1191.3000001907349
jJJRx5A1,32k26u12eq14p7ktnmss8y5zd9bdv8,3g5f9dbfotano7np0kgko3gp7ktvhj,jJJRx5A1,2020-0188,2021-10-14,11:00:04,12:32:13,NA,incomplete,false,NA,true,1,7,NA,NA,NA,left,present,NA,NA,n_l_078.jpg,yellow,m_s_019.jpg,orange,between,NA,NaN,NA,left,3383.5999999046326,1,2,919.2000002861023
jJJRx5A1,32k26u12eq14p7ktnmss8y5zd9bdv8,3g5f9dbfotano7np0kgko3gp7ktvhj,jJJRx5A1,2020-0188,2021-10-14,11:00:04,12:32:13,NA,incomplete,false,NA,true,1,8,NA,NA,NA,right,present,NA,NA,m_l_084.jpg,green,n_s_052.jpg,green,within,NA,NaN,NA,left,4831.599999904633,0,2,2607
jJJRx5A1,32k26u12eq14p7ktnmss8y5zd9bdv8,3g5f9dbfotano7np0kgko3gp7ktvhj,jJJRx5A1,2020-0188,2021-10-14,11:00:04,12:32:13,NA,incomplete,false,NA,true,1,9,NA,NA,NA,left,present,NA,NA,m_l_062.jpg,brown,n_s_032.jpg,blue,between,NA,NaN,NA,left,13224,1,2,1559.3000001907349
jJJRx5A1,32k26u12eq14p7ktnmss8y5zd9bdv8,3g5f9dbfotano7np0kgko3gp7ktvhj,jJJRx5A1,2020-0188,2021-10-14,11:00:04,12:32:13,NA,incomplete,false,NA,true,1,10,NA,NA,NA,left,present,NA,NA,m_s_063.jpg,blue,n_s_049.jpg,blue,within,NA,NaN,NA,left,4535.400000095367,1,1,1463.5999999046326
jJJRx5A1,32k26u12eq14p7ktnmss8y5zd9bdv8,3g5f9dbfotano7np0kgko3gp7ktvhj,jJJRx5A1,2020-0188,2021-10-14,11:00:04,12:32:13,NA,incomplete,false,true,NA,2,0,NA,purple,n_s_014.jpg,NA,NA,unpleasant,pleasant,NA,NA,NA,NA,NA,right,2526.2999997139,true,NA,NA,NA,NA,NA
jJJRx5A1,32k26u12eq14p7ktnmss8y5zd9bdv8,3g5f9dbfotano7np0kgko3gp7ktvhj,jJJRx5A1,2020-0188,2021-10-14,11:00:04,12:32:13,NA,incomplete,false,true,NA,2,1,NA,purple,n_l_090.jpg,NA,NA,pleasant,unpleasant,NA,NA,NA,NA,NA,left,2387.09999990463,true,NA,NA,NA,NA,NA
jJJRx5A1,32k26u12eq14p7ktnmss8y5zd9bdv8,3g5f9dbfotano7np0kgko3gp7ktvhj,jJJRx5A1,2020-0188,2021-10-14,11:00:04,12:32:13,NA,incomplete,false,true,NA,2,2,NA,purple,m_l_001.jpg,NA,NA,pleasant,unpleasant,NA,NA,NA,NA,NA,right,2375.40000009537,true,NA,NA,NA,NA,NA
jJJRx5A1,32k26u12eq14p7ktnmss8y5zd9bdv8,3g5f9dbfotano7np0kgko3gp7ktvhj,jJJRx5A1,2020-0188,2021-10-14,11:00:04,12:32:13,NA,incomplete,false,true,NA,2,3,NA,purple,n_l_044.jpg,NA,NA,unpleasant,pleasant,NA,NA,NA,NA,NA,right,2155.80000019073,true,NA,NA,NA,NA,NA
jJJRx5A1,32k26u12eq14p7ktnmss8y5zd9bdv8,3g5f9dbfotano7np0kgko3gp7ktvhj,jJJRx5A1,2020-0188,2021-10-14,11:00:04,12:32:13,NA,incomplete,false,true,NA,2,4,NA,purple,m_s_091.jpg,NA,NA,pleasant,unpleasant,NA,NA,NA,NA,NA,left,2160.19999980927,true,NA,NA,NA,NA,NA
jJJRx5A1,32k26u12eq14p7ktnmss8y5zd9bdv8,3g5f9dbfotano7np0kgko3gp7ktvhj,jJJRx5A1,2020-0188,2021-10-14,11:00:04,12:32:13,NA,incomplete,false,true,NA,2,5,NA,purple,n_s_030.jpg,NA,NA,unpleasant,pleasant,NA,NA,NA,NA,NA,right,1965.30000019073,true,NA,NA,NA,NA,NA
jJJRx5A1,32k26u12eq14p7ktnmss8y5zd9bdv8,3g5f9dbfotano7np0kgko3gp7ktvhj,jJJRx5A1,2020-0188,2021-10-14,11:00:04,12:32:13,NA,incomplete,false,true,NA,2,6,NA,gray,m_l_017.jpg,NA,NA,pleasant,unpleasant,NA,NA,NA,NA,NA,left,1937.5,true,NA,NA,NA,NA,NA
jJJRx5A1,32k26u12eq14p7ktnmss8y5zd9bdv8,3g5f9dbfotano7np0kgko3gp7ktvhj,jJJRx5A1,2020-0188,2021-10-14,11:00:04,12:32:13,NA,incomplete,false,true,NA,2,7,NA,gray,m_s_008.jpg,NA,NA,pleasant,unpleasant,NA,NA,NA,NA,NA,left,1829.7000002861,true,NA,NA,NA,NA,NA
jJJRx5A1,32k26u12eq14p7ktnmss8y5zd9bdv8,3g5f9dbfotano7np0kgko3gp7ktvhj,jJJRx5A1,2020-0188,2021-10-14,11:00:04,12:32:13,NA,incomplete,false,true,NA,2,8,NA,gray,m_s_103.jpg,NA,NA,pleasant,unpleasant,NA,NA,NA,NA,NA,right,2754.59999990463,true,NA,NA,NA,NA,NA
jJJRx5A1,32k26u12eq14p7ktnmss8y5zd9bdv8,3g5f9dbfotano7np0kgko3gp7ktvhj,jJJRx5A1,2020-0188,2021-10-14,11:00:04,12:32:13,NA,incomplete,false,true,NA,2,9,NA,gray,n_l_019.jpg,NA,NA,unpleasant,pleasant,NA,NA,NA,NA,NA,left,2678.60000038147,true,NA,NA,NA,NA,NA
jJJRx5A1,32k26u12eq14p7ktnmss8y5zd9bdv8,3g5f9dbfotano7np0kgko3gp7ktvhj,jJJRx5A1,2020-0188,2021-10-14,11:00:04,12:32:13,NA,incomplete,false,true,NA,2,10,NA,gray,m_l_030.jpg,NA,NA,unpleasant,pleasant,NA,NA,NA,NA,NA,right,2107.40000009537,true,NA,NA,NA,NA,NA
jJJRx5A1,32k26u12eq14p7ktnmss8y5zd9bdv8,3g5f9dbfotano7np0kgko3gp7ktvhj,jJJRx5A1,2020-0188,2021-10-14,11:00:04,12:32:13,NA,incomplete,false,true,NA,2,11,NA,gray,m_l_019.jpg,NA,NA,pleasant,unpleasant,NA,NA,NA,NA,NA,left,2438.7000002861,true,NA,NA,NA,NA,NA
jJJRx5A1,32k26u12eq14p7ktnmss8y5zd9bdv8,3g5f9dbfotano7np0kgko3gp7ktvhj,jJJRx5A1,2020-0188,2021-10-14,11:00:04,12:32:13,NA,incomplete,false,true,NA,2,12,NA,blue,n_l_007.jpg,NA,NA,unpleasant,pleasant,NA,NA,NA,NA,NA,left,2090,true,NA,NA,NA,NA,NA
jJJRx5A1,32k26u12eq14p7ktnmss8y5zd9bdv8,3g5f9dbfotano7np0kgko3gp7ktvhj,jJJRx5A1,2020-0188,2021-10-14,11:00:04,12:32:13,NA,incomplete,false,true,NA,2,13,NA,blue,m_l_052.jpg,NA,NA,pleasant,unpleasant,NA,NA,NA,NA,NA,right,2253.7999997139,true,NA,NA,NA,NA,NA
jJJRx5A1,32k26u12eq14p7ktnmss8y5zd9bdv8,3g5f9dbfotano7np0kgko3gp7ktvhj,jJJRx5A1,2020-0188,2021-10-14,11:00:04,12:32:13,NA,incomplete,false,true,NA,2,14,NA,blue,n_l_025.jpg,NA,NA,pleasant,unpleasant,NA,NA,NA,NA,NA,right,1498.5,true,NA,NA,NA,NA,NA
jJJRx5A1,32k26u12eq14p7ktnmss8y5zd9bdv8,3g5f9dbfotano7np0kgko3gp7ktvhj,jJJRx5A1,2020-0188,2021-10-14,11:00:04,12:32:13,NA,incomplete,false,true,NA,2,15,NA,blue,m_l_046.jpg,NA,NA,unpleasant,pleasant,NA,NA,NA,NA,NA,right,1832.69999980927,true,NA,NA,NA,NA,NA
jJJRx5A1,32k26u12eq14p7ktnmss8y5zd9bdv8,3g5f9dbfotano7np0kgko3gp7ktvhj,jJJRx5A1,2020-0188,2021-10-14,11:00:04,12:32:13,NA,incomplete,false,true,NA,2,16,NA,blue,n_s_097.jpg,NA,NA,pleasant,unpleasant,NA,NA,NA,NA,NA,right,2357.30000019073,true,NA,NA,NA,NA,NA
jJJRx5A1,32k26u12eq14p7ktnmss8y5zd9bdv8,3g5f9dbfotano7np0kgko3gp7ktvhj,jJJRx5A1,2020-0188,2021-10-14,11:00:04,12:32:13,NA,incomplete,false,true,NA,2,17,NA,blue,n_s_013.jpg,NA,NA,pleasant,unpleasant,NA,NA,NA,NA,NA,right,2001.80000019073,true,NA,NA,NA,NA,NA
jJJRx5A1,32k26u12eq14p7ktnmss8y5zd9bdv8,3g5f9dbfotano7np0kgko3gp7ktvhj,jJJRx5A1,2020-0188,2021-10-14,11:00:04,12:32:13,NA,incomplete,false,true,NA,2,18,NA,orange,n_s_079.jpg,NA,NA,pleasant,unpleasant,NA,NA,NA,NA,NA,left,2485.59999990463,true,NA,NA,NA,NA,NA
jJJRx5A1,32k26u12eq14p7ktnmss8y5zd9bdv8,3g5f9dbfotano7np0kgko3gp7ktvhj,jJJRx5A1,2020-0188,2021-10-14,11:00:04,12:32:13,NA,incomplete,false,true,NA,2,19,NA,orange,m_l_008.jpg,NA,NA,unpleasant,pleasant,NA,NA,NA,NA,NA,right,2097.59999990463,true,NA,NA,NA,NA,NA
jJJRx5A1,32k26u12eq14p7ktnmss8y5zd9bdv8,3g5f9dbfotano7np0kgko3gp7ktvhj,jJJRx5A1,2020-0188,2021-10-14,11:00:04,12:32:13,NA,incomplete,false,true,NA,2,20,NA,orange,m_s_047.jpg,NA,NA,pleasant,unpleasant,NA,NA,NA,NA,NA,left,2150.90000009537,true,NA,NA,NA,NA,NA
jJJRx5A1,32k26u12eq14p7ktnmss8y5zd9bdv8,3g5f9dbfotano7np0kgko3gp7ktvhj,jJJRx5A1,2020-0188,2021-10-14,11:00:04,12:32:13,NA,incomplete,false,true,NA,2,21,NA,orange,m_s_043.jpg,NA,NA,unpleasant,pleasant,NA,NA,NA,NA,NA,right,1538.40000009537,true,NA,NA,NA,NA,NA
jJJRx5A1,32k26u12eq14p7ktnmss8y5zd9bdv8,3g5f9dbfotano7np0kgko3gp7ktvhj,jJJRx5A1,2020-0188,2021-10-14,11:00:04,12:32:13,NA,incomplete,false,true,NA,2,22,NA,orange,m_s_086.jpg,NA,NA,pleasant,unpleasant,NA,NA,NA,NA,NA,left,1588.7999997139,true,NA,NA,NA,NA,NA
jJJRx5A1,32k26u12eq14p7ktnmss8y5zd9bdv8,3g5f9dbfotano7np0kgko3gp7ktvhj,jJJRx5A1,2020-0188,2021-10-14,11:00:04,12:32:13,NA,incomplete,false,true,NA,2,23,NA,orange,m_l_004.jpg,NA,NA,unpleasant,pleasant,NA,NA,NA,NA,NA,right,1339.19999980927,true,NA,NA,NA,NA,NA
jJJRx5A1,32k26u12eq14p7ktnmss8y5zd9bdv8,3g5f9dbfotano7np0kgko3gp7ktvhj,jJJRx5A1,2020-0188,2021-10-14,11:00:04,12:32:13,NA,incomplete,false,true,NA,2,24,NA,white,n_l_011.jpg,NA,NA,pleasant,unpleasant,NA,NA,NA,NA,NA,right,1623,true,NA,NA,NA,NA,NA
jJJRx5A1,32k26u12eq14p7ktnmss8y5zd9bdv8,3g5f9dbfotano7np0kgko3gp7ktvhj,jJJRx5A1,2020-0188,2021-10-14,11:00:04,12:32:13,NA,incomplete,false,true,NA,2,25,NA,white,m_l_018.jpg,NA,NA,pleasant,unpleasant,NA,NA,NA,NA,NA,right,1738.90000009537,true,NA,NA,NA,NA,NA
jJJRx5A1,32k26u12eq14p7ktnmss8y5zd9bdv8,3g5f9dbfotano7np0kgko3gp7ktvhj,jJJRx5A1,2020-0188,2021-10-14,11:00:04,12:32:13,NA,incomplete,false,true,NA,2,26,NA,white,n_s_100.jpg,NA,NA,pleasant,unpleasant,NA,NA,NA,NA,NA,right,1671.40000009537,true,NA,NA,NA,NA,NA
jJJRx5A1,32k26u12eq14p7ktnmss8y5zd9bdv8,3g5f9dbfotano7np0kgko3gp7ktvhj,jJJRx5A1,2020-0188,2021-10-14,11:00:04,12:32:13,NA,incomplete,false,true,NA,2,27,NA,white,m_s_003.jpg,NA,NA,pleasant,unpleasant,NA,NA,NA,NA,NA,right,2203.2000002861,true,NA,NA,NA,NA,NA
jJJRx5A1,32k26u12eq14p7ktnmss8y5zd9bdv8,3g5f9dbfotano7np0kgko3gp7ktvhj,jJJRx5A1,2020-0188,2021-10-14,11:00:04,12:32:13,NA,incomplete,false,true,NA,2,28,NA,white,n_s_065.jpg,NA,NA,unpleasant,pleasant,NA,NA,NA,NA,NA,left,2071.19999980927,true,NA,NA,NA,NA,NA
jJJRx5A1,32k26u12eq14p7ktnmss8y5zd9bdv8,3g5f9dbfotano7np0kgko3gp7ktvhj,jJJRx5A1,2020-0188,2021-10-14,11:00:04,12:32:13,NA,incomplete,false,true,NA,2,29,NA,white,m_l_085.jpg,NA,NA,pleasant,unpleasant,NA,NA,NA,NA,NA,right,1723.80000019073,true,NA,NA,NA,NA,NA
jJJRx5A1,32k26u12eq14p7ktnmss8y5zd9bdv8,3g5f9dbfotano7np0kgko3gp7ktvhj,jJJRx5A1,2020-0188,2021-10-14,11:00:04,12:32:13,NA,incomplete,false,true,NA,2,30,NA,red,n_l_029.jpg,NA,NA,unpleasant,pleasant,NA,NA,NA,NA,NA,left,2143.5,true,NA,NA,NA,NA,NA
jJJRx5A1,32k26u12eq14p7ktnmss8y5zd9bdv8,3g5f9dbfotano7np0kgko3gp7ktvhj,jJJRx5A1,2020-0188,2021-10-14,11:00:04,12:32:13,NA,incomplete,false,true,NA,2,31,NA,red,n_s_041.jpg,NA,NA,unpleasant,pleasant,NA,NA,NA,NA,NA,right,1932,true,NA,NA,NA,NA,NA
jJJRx5A1,32k26u12eq14p7ktnmss8y5zd9bdv8,3g5f9dbfotano7np0kgko3gp7ktvhj,jJJRx5A1,2020-0188,2021-10-14,11:00:04,12:32:13,NA,incomplete,false,true,NA,2,32,NA,red,m_s_042.jpg,NA,NA,unpleasant,pleasant,NA,NA,NA,NA,NA,right,1673.2000002861,true,NA,NA,NA,NA,NA
jJJRx5A1,32k26u12eq14p7ktnmss8y5zd9bdv8,3g5f9dbfotano7np0kgko3gp7ktvhj,jJJRx5A1,2020-0188,2021-10-14,11:00:04,12:32:13,NA,incomplete,false,true,NA,2,33,NA,red,m_l_066.jpg,NA,NA,pleasant,unpleasant,NA,NA,NA,NA,NA,right,2133.2000002861,true,NA,NA,NA,NA,NA
jJJRx5A1,32k26u12eq14p7ktnmss8y5zd9bdv8,3g5f9dbfotano7np0kgko3gp7ktvhj,jJJRx5A1,2020-0188,2021-10-14,11:00:04,12:32:13,NA,incomplete,false,true,NA,2,34,NA,red,n_l_018.jpg,NA,NA,unpleasant,pleasant,NA,NA,NA,NA,NA,right,1882,true,NA,NA,NA,NA,NA
jJJRx5A1,32k26u12eq14p7ktnmss8y5zd9bdv8,3g5f9dbfotano7np0kgko3gp7ktvhj,jJJRx5A1,2020-0188,2021-10-14,11:00:04,12:32:13,NA,incomplete,false,true,NA,2,35,NA,red,m_s_010.jpg,NA,NA,pleasant,unpleasant,NA,NA,NA,NA,NA,right,1951.19999980927,true,NA,NA,NA,NA,NA
jJJRx5A1,32k26u12eq14p7ktnmss8y5zd9bdv8,3g5f9dbfotano7np0kgko3gp7ktvhj,jJJRx5A1,2020-0188,2021-10-14,11:00:04,12:32:13,NA,incomplete,false,NA,true,2,0,NA,NA,NA,right,absent,NA,NA,n_l_025.jpg,blue,m_l_030.jpg,gray,between,NA,NaN,NA,left,4775.5,0,2,1639
jJJRx5A1,32k26u12eq14p7ktnmss8y5zd9bdv8,3g5f9dbfotano7np0kgko3gp7ktvhj,jJJRx5A1,2020-0188,2021-10-14,11:00:04,12:32:13,NA,incomplete,false,NA,true,2,1,NA,NA,NA,left,absent,NA,NA,n_l_090.jpg,purple,n_s_030.jpg,purple,within,NA,NaN,NA,left,3527,1,1,1447.0999999046326
jJJRx5A1,32k26u12eq14p7ktnmss8y5zd9bdv8,3g5f9dbfotano7np0kgko3gp7ktvhj,jJJRx5A1,2020-0188,2021-10-14,11:00:04,12:32:13,NA,incomplete,false,NA,true,2,2,NA,NA,NA,right,absent,NA,NA,n_s_100.jpg,white,m_s_086.jpg,orange,between,NA,NaN,NA,right,7527.5,1,2,1735.3999996185303
jJJRx5A1,32k26u12eq14p7ktnmss8y5zd9bdv8,3g5f9dbfotano7np0kgko3gp7ktvhj,jJJRx5A1,2020-0188,2021-10-14,11:00:04,12:32:13,NA,incomplete,false,NA,true,2,3,NA,NA,NA,left,absent,NA,NA,m_l_008.jpg,orange,m_l_004.jpg,orange,within,NA,NaN,NA,left,2775.199999809265,1,2,1607.2999997138977
jJJRx5A1,32k26u12eq14p7ktnmss8y5zd9bdv8,3g5f9dbfotano7np0kgko3gp7ktvhj,jJJRx5A1,2020-0188,2021-10-14,11:00:04,12:32:13,NA,incomplete,false,NA,true,2,4,NA,NA,NA,right,absent,NA,NA,m_l_085.jpg,white,m_l_018.jpg,white,within,NA,NaN,NA,left,5655.599999904633,0,2,1383.5999999046326
jJJRx5A1,32k26u12eq14p7ktnmss8y5zd9bdv8,3g5f9dbfotano7np0kgko3gp7ktvhj,jJJRx5A1,2020-0188,2021-10-14,11:00:04,12:32:13,NA,incomplete,false,NA,true,2,5,NA,NA,NA,right,absent,NA,NA,m_s_042.jpg,red,n_s_065.jpg,white,between,NA,NaN,NA,right,6055.400000095367,1,1,967.5999999046326
jJJRx5A1,32k26u12eq14p7ktnmss8y5zd9bdv8,3g5f9dbfotano7np0kgko3gp7ktvhj,jJJRx5A1,2020-0188,2021-10-14,11:00:04,12:32:13,NA,incomplete,false,NA,true,2,6,NA,NA,NA,left,absent,NA,NA,n_s_041.jpg,red,m_s_010.jpg,red,within,NA,NaN,NA,left,1919.5,1,1,3567.4000000953674
jJJRx5A1,32k26u12eq14p7ktnmss8y5zd9bdv8,3g5f9dbfotano7np0kgko3gp7ktvhj,jJJRx5A1,2020-0188,2021-10-14,11:00:04,12:32:13,NA,incomplete,false,NA,true,2,7,NA,NA,NA,left,absent,NA,NA,m_l_052.jpg,blue,n_s_013.jpg,blue,within,NA,NaN,NA,left,3079.5,1,2,2255.6000003814697
jJJRx5A1,32k26u12eq14p7ktnmss8y5zd9bdv8,3g5f9dbfotano7np0kgko3gp7ktvhj,jJJRx5A1,2020-0188,2021-10-14,11:00:04,12:32:13,NA,incomplete,false,NA,true,2,8,NA,NA,NA,right,absent,NA,NA,m_l_019.jpg,gray,m_s_008.jpg,gray,within,NA,NaN,NA,right,13296,1,2,2935.5
jJJRx5A1,32k26u12eq14p7ktnmss8y5zd9bdv8,3g5f9dbfotano7np0kgko3gp7ktvhj,jJJRx5A1,2020-0188,2021-10-14,11:00:04,12:32:13,NA,incomplete,false,NA,true,2,9,NA,NA,NA,left,absent,NA,NA,n_s_097.jpg,blue,m_s_047.jpg,orange,between,NA,NaN,NA,left,5407.5,1,2,2055.4000000953674
jJJRx5A1,32k26u12eq14p7ktnmss8y5zd9bdv8,3g5f9dbfotano7np0kgko3gp7ktvhj,jJJRx5A1,2020-0188,2021-10-14,11:00:04,12:32:13,NA,incomplete,false,NA,true,2,10,NA,NA,NA,right,absent,NA,NA,m_s_103.jpg,gray,m_s_091.jpg,purple,between,NA,NaN,NA,right,6543.799999713898,1,1,1039.5
jJJRx5A1,32k26u12eq14p7ktnmss8y5zd9bdv8,3g5f9dbfotano7np0kgko3gp7ktvhj,jJJRx5A1,2020-0188,2021-10-14,11:00:04,12:32:13,NA,incomplete,false,true,NA,3,0,NA,brown,m_s_061.jpg,NA,NA,unpleasant,pleasant,NA,NA,NA,NA,NA,right,2227.5,true,NA,NA,NA,NA,NA
jJJRx5A1,32k26u12eq14p7ktnmss8y5zd9bdv8,3g5f9dbfotano7np0kgko3gp7ktvhj,jJJRx5A1,2020-0188,2021-10-14,11:00:04,12:32:13,NA,incomplete,false,true,NA,3,1,NA,brown,n_s_028.jpg,NA,NA,unpleasant,pleasant,NA,NA,NA,NA,NA,left,2384.19999980927,true,NA,NA,NA,NA,NA
jJJRx5A1,32k26u12eq14p7ktnmss8y5zd9bdv8,3g5f9dbfotano7np0kgko3gp7ktvhj,jJJRx5A1,2020-0188,2021-10-14,11:00:04,12:32:13,NA,incomplete,false,true,NA,3,2,NA,brown,n_s_101.jpg,NA,NA,unpleasant,pleasant,NA,NA,NA,NA,NA,left,1908.7999997139,true,NA,NA,NA,NA,NA
jJJRx5A1,32k26u12eq14p7ktnmss8y5zd9bdv8,3g5f9dbfotano7np0kgko3gp7ktvhj,jJJRx5A1,2020-0188,2021-10-14,11:00:04,12:32:13,NA,incomplete,false,true,NA,3,3,NA,brown,n_s_076.jpg,NA,NA,unpleasant,pleasant,NA,NA,NA,NA,NA,left,1993.19999980927,true,NA,NA,NA,NA,NA
jJJRx5A1,32k26u12eq14p7ktnmss8y5zd9bdv8,3g5f9dbfotano7np0kgko3gp7ktvhj,jJJRx5A1,2020-0188,2021-10-14,11:00:04,12:32:13,NA,incomplete,false,true,NA,3,4,NA,brown,n_l_086.jpg,NA,NA,unpleasant,pleasant,NA,NA,NA,NA,NA,right,1917.7999997139,true,NA,NA,NA,NA,NA
jJJRx5A1,32k26u12eq14p7ktnmss8y5zd9bdv8,3g5f9dbfotano7np0kgko3gp7ktvhj,jJJRx5A1,2020-0188,2021-10-14,11:00:04,12:32:13,NA,incomplete,false,true,NA,3,5,NA,brown,m_l_115.jpg,NA,NA,pleasant,unpleasant,NA,NA,NA,NA,NA,left,1720.60000038147,true,NA,NA,NA,NA,NA
jJJRx5A1,32k26u12eq14p7ktnmss8y5zd9bdv8,3g5f9dbfotano7np0kgko3gp7ktvhj,jJJRx5A1,2020-0188,2021-10-14,11:00:04,12:32:13,NA,incomplete,false,true,NA,3,6,NA,gray,m_l_028.jpg,NA,NA,pleasant,unpleasant,NA,NA,NA,NA,NA,left,1998.2000002861,true,NA,NA,NA,NA,NA
jJJRx5A1,32k26u12eq14p7ktnmss8y5zd9bdv8,3g5f9dbfotano7np0kgko3gp7ktvhj,jJJRx5A1,2020-0188,2021-10-14,11:00:04,12:32:13,NA,incomplete,false,true,NA,3,7,NA,gray,n_l_066.jpg,NA,NA,pleasant,unpleasant,NA,NA,NA,NA,NA,right,1914.90000009537,true,NA,NA,NA,NA,NA
jJJRx5A1,32k26u12eq14p7ktnmss8y5zd9bdv8,3g5f9dbfotano7np0kgko3gp7ktvhj,jJJRx5A1,2020-0188,2021-10-14,11:00:04,12:32:13,NA,incomplete,false,true,NA,3,8,NA,gray,n_s_103.jpg,NA,NA,pleasant,unpleasant,NA,NA,NA,NA,NA,left,2055.90000009537,true,NA,NA,NA,NA,NA
jJJRx5A1,32k26u12eq14p7ktnmss8y5zd9bdv8,3g5f9dbfotano7np0kgko3gp7ktvhj,jJJRx5A1,2020-0188,2021-10-14,11:00:04,12:32:13,NA,incomplete,false,true,NA,3,9,NA,gray,m_s_116.jpg,NA,NA,pleasant,unpleasant,NA,NA,NA,NA,NA,left,2123.09999990463,true,NA,NA,NA,NA,NA
jJJRx5A1,32k26u12eq14p7ktnmss8y5zd9bdv8,3g5f9dbfotano7np0kgko3gp7ktvhj,jJJRx5A1,2020-0188,2021-10-14,11:00:04,12:32:13,NA,incomplete,false,true,NA,3,10,NA,gray,m_s_016.jpg,NA,NA,unpleasant,pleasant,NA,NA,NA,NA,NA,right,1943.90000009537,true,NA,NA,NA,NA,NA
jJJRx5A1,32k26u12eq14p7ktnmss8y5zd9bdv8,3g5f9dbfotano7np0kgko3gp7ktvhj,jJJRx5A1,2020-0188,2021-10-14,11:00:04,12:32:13,NA,incomplete,false,true,NA,3,11,NA,gray,m_l_033.jpg,NA,NA,pleasant,unpleasant,NA,NA,NA,NA,NA,right,2477,true,NA,NA,NA,NA,NA
jJJRx5A1,32k26u12eq14p7ktnmss8y5zd9bdv8,3g5f9dbfotano7np0kgko3gp7ktvhj,jJJRx5A1,2020-0188,2021-10-14,11:00:04,12:32:13,NA,incomplete,false,true,NA,3,12,NA,black,n_l_108.jpg,NA,NA,pleasant,unpleasant,NA,NA,NA,NA,NA,right,1961.39999961853,true,NA,NA,NA,NA,NA
jJJRx5A1,32k26u12eq14p7ktnmss8y5zd9bdv8,3g5f9dbfotano7np0kgko3gp7ktvhj,jJJRx5A1,2020-0188,2021-10-14,11:00:04,12:32:13,NA,incomplete,false,true,NA,3,13,NA,black,n_l_045.jpg,NA,NA,pleasant,unpleasant,NA,NA,NA,NA,NA,right,1990.30000019073,true,NA,NA,NA,NA,NA
jJJRx5A1,32k26u12eq14p7ktnmss8y5zd9bdv8,3g5f9dbfotano7np0kgko3gp7ktvhj,jJJRx5A1,2020-0188,2021-10-14,11:00:04,12:32:13,NA,incomplete,false,true,NA,3,14,NA,black,n_l_073.jpg,NA,NA,pleasant,unpleasant,NA,NA,NA,NA,NA,left,2474.59999990463,true,NA,NA,NA,NA,NA
jJJRx5A1,32k26u12eq14p7ktnmss8y5zd9bdv8,3g5f9dbfotano7np0kgko3gp7ktvhj,jJJRx5A1,2020-0188,2021-10-14,11:00:04,12:32:13,NA,incomplete,false,true,NA,3,15,NA,black,m_s_104.jpg,NA,NA,pleasant,unpleasant,NA,NA,NA,NA,NA,right,2630.40000009537,true,NA,NA,NA,NA,NA
jJJRx5A1,32k26u12eq14p7ktnmss8y5zd9bdv8,3g5f9dbfotano7np0kgko3gp7ktvhj,jJJRx5A1,2020-0188,2021-10-14,11:00:04,12:32:13,NA,incomplete,false,true,NA,3,16,NA,black,n_s_083.jpg,NA,NA,unpleasant,pleasant,NA,NA,NA,NA,NA,left,2163.19999980927,true,NA,NA,NA,NA,NA
jJJRx5A1,32k26u12eq14p7ktnmss8y5zd9bdv8,3g5f9dbfotano7np0kgko3gp7ktvhj,jJJRx5A1,2020-0188,2021-10-14,11:00:04,12:32:13,NA,incomplete,false,true,NA,3,17,NA,black,n_s_015.jpg,NA,NA,unpleasant,pleasant,NA,NA,NA,NA,NA,right,2143.09999990463,true,NA,NA,NA,NA,NA
jJJRx5A1,32k26u12eq14p7ktnmss8y5zd9bdv8,3g5f9dbfotano7np0kgko3gp7ktvhj,jJJRx5A1,2020-0188,2021-10-14,11:00:04,12:32:13,NA,incomplete,false,true,NA,3,18,NA,yellow,n_s_056.jpg,NA,NA,pleasant,unpleasant,NA,NA,NA,NA,NA,left,1612.80000019073,true,NA,NA,NA,NA,NA
jJJRx5A1,32k26u12eq14p7ktnmss8y5zd9bdv8,3g5f9dbfotano7np0kgko3gp7ktvhj,jJJRx5A1,2020-0188,2021-10-14,11:00:04,12:32:13,NA,incomplete,false,true,NA,3,19,NA,yellow,m_l_029.jpg,NA,NA,unpleasant,pleasant,NA,NA,NA,NA,NA,right,1465.40000009537,true,NA,NA,NA,NA,NA
jJJRx5A1,32k26u12eq14p7ktnmss8y5zd9bdv8,3g5f9dbfotano7np0kgko3gp7ktvhj,jJJRx5A1,2020-0188,2021-10-14,11:00:04,12:32:13,NA,incomplete,false,true,NA,3,20,NA,yellow,n_s_068.jpg,NA,NA,pleasant,unpleasant,NA,NA,NA,NA,NA,left,2150.5,true,NA,NA,NA,NA,NA
jJJRx5A1,32k26u12eq14p7ktnmss8y5zd9bdv8,3g5f9dbfotano7np0kgko3gp7ktvhj,jJJRx5A1,2020-0188,2021-10-14,11:00:04,12:32:13,NA,incomplete,false,true,NA,3,21,NA,yellow,m_l_089.jpg,NA,NA,unpleasant,pleasant,NA,NA,NA,NA,NA,right,2082.5,true,NA,NA,NA,NA,NA
jJJRx5A1,32k26u12eq14p7ktnmss8y5zd9bdv8,3g5f9dbfotano7np0kgko3gp7ktvhj,jJJRx5A1,2020-0188,2021-10-14,11:00:04,12:32:13,NA,incomplete,false,true,NA,3,22,NA,yellow,m_l_045.jpg,NA,NA,unpleasant,pleasant,NA,NA,NA,NA,NA,right,1758.90000009537,true,NA,NA,NA,NA,NA
jJJRx5A1,32k26u12eq14p7ktnmss8y5zd9bdv8,3g5f9dbfotano7np0kgko3gp7ktvhj,jJJRx5A1,2020-0188,2021-10-14,11:00:04,12:32:13,NA,incomplete,false,true,NA,3,23,NA,yellow,n_l_117.jpg,NA,NA,unpleasant,pleasant,NA,NA,NA,NA,NA,right,1988.5,true,NA,NA,NA,NA,NA
jJJRx5A1,32k26u12eq14p7ktnmss8y5zd9bdv8,3g5f9dbfotano7np0kgko3gp7ktvhj,jJJRx5A1,2020-0188,2021-10-14,11:00:04,12:32:13,NA,incomplete,false,true,NA,3,24,NA,white,m_s_072.jpg,NA,NA,unpleasant,pleasant,NA,NA,NA,NA,NA,left,1631.80000019073,true,NA,NA,NA,NA,NA
jJJRx5A1,32k26u12eq14p7ktnmss8y5zd9bdv8,3g5f9dbfotano7np0kgko3gp7ktvhj,jJJRx5A1,2020-0188,2021-10-14,11:00:04,12:32:13,NA,incomplete,false,true,NA,3,25,NA,white,n_s_099.jpg,NA,NA,pleasant,unpleasant,NA,NA,NA,NA,NA,left,2444.89999961853,true,NA,NA,NA,NA,NA
jJJRx5A1,32k26u12eq14p7ktnmss8y5zd9bdv8,3g5f9dbfotano7np0kgko3gp7ktvhj,jJJRx5A1,2020-0188,2021-10-14,11:00:04,12:32:13,NA,incomplete,false,true,NA,3,26,NA,white,m_l_047.jpg,NA,NA,pleasant,unpleasant,NA,NA,NA,NA,NA,right,2561.30000019073,true,NA,NA,NA,NA,NA
jJJRx5A1,32k26u12eq14p7ktnmss8y5zd9bdv8,3g5f9dbfotano7np0kgko3gp7ktvhj,jJJRx5A1,2020-0188,2021-10-14,11:00:04,12:32:13,NA,incomplete,false,true,NA,3,27,NA,white,n_l_016.jpg,NA,NA,unpleasant,pleasant,NA,NA,NA,NA,NA,left,2278.2999997139,true,NA,NA,NA,NA,NA
jJJRx5A1,32k26u12eq14p7ktnmss8y5zd9bdv8,3g5f9dbfotano7np0kgko3gp7ktvhj,jJJRx5A1,2020-0188,2021-10-14,11:00:04,12:32:13,NA,incomplete,false,true,NA,3,28,NA,white,n_l_064.jpg,NA,NA,pleasant,unpleasant,NA,NA,NA,NA,NA,right,2435.2000002861,true,NA,NA,NA,NA,NA
jJJRx5A1,32k26u12eq14p7ktnmss8y5zd9bdv8,3g5f9dbfotano7np0kgko3gp7ktvhj,jJJRx5A1,2020-0188,2021-10-14,11:00:04,12:32:13,NA,incomplete,false,true,NA,3,29,NA,white,n_s_085.jpg,NA,NA,pleasant,unpleasant,NA,NA,NA,NA,NA,right,1839.7999997139,true,NA,NA,NA,NA,NA
jJJRx5A1,32k26u12eq14p7ktnmss8y5zd9bdv8,3g5f9dbfotano7np0kgko3gp7ktvhj,jJJRx5A1,2020-0188,2021-10-14,11:00:04,12:32:13,NA,incomplete,false,true,NA,3,30,NA,green,n_s_038.jpg,NA,NA,unpleasant,pleasant,NA,NA,NA,NA,NA,right,2163.30000019073,true,NA,NA,NA,NA,NA
jJJRx5A1,32k26u12eq14p7ktnmss8y5zd9bdv8,3g5f9dbfotano7np0kgko3gp7ktvhj,jJJRx5A1,2020-0188,2021-10-14,11:00:04,12:32:13,NA,incomplete,false,true,NA,3,31,NA,green,m_s_027.jpg,NA,NA,pleasant,unpleasant,NA,NA,NA,NA,NA,left,2376.19999980927,true,NA,NA,NA,NA,NA
jJJRx5A1,32k26u12eq14p7ktnmss8y5zd9bdv8,3g5f9dbfotano7np0kgko3gp7ktvhj,jJJRx5A1,2020-0188,2021-10-14,11:00:04,12:32:13,NA,incomplete,false,true,NA,3,32,NA,green,n_s_113.jpg,NA,NA,unpleasant,pleasant,NA,NA,NA,NA,NA,right,2261,true,NA,NA,NA,NA,NA
jJJRx5A1,32k26u12eq14p7ktnmss8y5zd9bdv8,3g5f9dbfotano7np0kgko3gp7ktvhj,jJJRx5A1,2020-0188,2021-10-14,11:00:04,12:32:13,NA,incomplete,false,true,NA,3,33,NA,green,n_s_025.jpg,NA,NA,pleasant,unpleasant,NA,NA,NA,NA,NA,right,2337.7999997139,true,NA,NA,NA,NA,NA
jJJRx5A1,32k26u12eq14p7ktnmss8y5zd9bdv8,3g5f9dbfotano7np0kgko3gp7ktvhj,jJJRx5A1,2020-0188,2021-10-14,11:00:04,12:32:13,NA,incomplete,false,true,NA,3,34,NA,green,n_s_086.jpg,NA,NA,pleasant,unpleasant,NA,NA,NA,NA,NA,left,2021.69999980927,true,NA,NA,NA,NA,NA
jJJRx5A1,32k26u12eq14p7ktnmss8y5zd9bdv8,3g5f9dbfotano7np0kgko3gp7ktvhj,jJJRx5A1,2020-0188,2021-10-14,11:00:04,12:32:13,NA,incomplete,false,true,NA,3,35,NA,green,m_s_090.jpg,NA,NA,unpleasant,pleasant,NA,NA,NA,NA,NA,right,2242.30000019073,true,NA,NA,NA,NA,NA
jJJRx5A1,32k26u12eq14p7ktnmss8y5zd9bdv8,3g5f9dbfotano7np0kgko3gp7ktvhj,jJJRx5A1,2020-0188,2021-10-14,11:00:04,12:32:13,NA,incomplete,false,NA,true,3,0,NA,NA,NA,left,absent,NA,NA,n_l_045.jpg,black,n_s_015.jpg,black,within,NA,NaN,NA,left,4087.0999999046326,1,2,1015.3999996185303
jJJRx5A1,32k26u12eq14p7ktnmss8y5zd9bdv8,3g5f9dbfotano7np0kgko3gp7ktvhj,jJJRx5A1,2020-0188,2021-10-14,11:00:04,12:32:13,NA,incomplete,false,NA,true,3,1,NA,NA,NA,left,absent,NA,NA,n_l_086.jpg,brown,n_s_103.jpg,gray,between,NA,NaN,NA,left,2799.5999999046326,1,1,1583.2999997138977
jJJRx5A1,32k26u12eq14p7ktnmss8y5zd9bdv8,3g5f9dbfotano7np0kgko3gp7ktvhj,jJJRx5A1,2020-0188,2021-10-14,11:00:04,12:32:13,NA,incomplete,false,NA,true,3,2,NA,NA,NA,left,absent,NA,NA,n_s_083.jpg,black,n_s_068.jpg,yellow,between,NA,NaN,NA,left,4703.5,1,2,1791.2999997138977
jJJRx5A1,32k26u12eq14p7ktnmss8y5zd9bdv8,3g5f9dbfotano7np0kgko3gp7ktvhj,jJJRx5A1,2020-0188,2021-10-14,11:00:04,12:32:13,NA,incomplete,false,NA,true,3,3,NA,NA,NA,left,absent,NA,NA,n_s_028.jpg,brown,m_l_115.jpg,brown,within,NA,NaN,NA,left,2103.5,1,3,3383.4000000953674
jJJRx5A1,32k26u12eq14p7ktnmss8y5zd9bdv8,3g5f9dbfotano7np0kgko3gp7ktvhj,jJJRx5A1,2020-0188,2021-10-14,11:00:04,12:32:13,NA,incomplete,false,NA,true,3,4,NA,NA,NA,left,absent,NA,NA,n_s_099.jpg,white,n_s_085.jpg,white,within,NA,NaN,NA,left,2359.2000002861023,1,2,1414.7000002861023
jJJRx5A1,32k26u12eq14p7ktnmss8y5zd9bdv8,3g5f9dbfotano7np0kgko3gp7ktvhj,jJJRx5A1,2020-0188,2021-10-14,11:00:04,12:32:13,NA,incomplete,false,NA,true,3,5,NA,NA,NA,left,absent,NA,NA,n_l_064.jpg,white,n_s_113.jpg,green,between,NA,NaN,NA,left,6423.599999904633,1,1,958.9000000953674
jJJRx5A1,32k26u12eq14p7ktnmss8y5zd9bdv8,3g5f9dbfotano7np0kgko3gp7ktvhj,jJJRx5A1,2020-0188,2021-10-14,11:00:04,12:32:13,NA,incomplete,false,NA,true,3,6,NA,NA,NA,left,absent,NA,NA,m_l_029.jpg,yellow,n_l_117.jpg,yellow,within,NA,NaN,NA,left,7743.5,1,2,1727.4000000953674
jJJRx5A1,32k26u12eq14p7ktnmss8y5zd9bdv8,3g5f9dbfotano7np0kgko3gp7ktvhj,jJJRx5A1,2020-0188,2021-10-14,11:00:04,12:32:13,NA,incomplete,false,NA,true,3,7,NA,NA,NA,left,absent,NA,NA,m_l_045.jpg,yellow,m_l_047.jpg,white,between,NA,NaN,NA,left,2023.5999999046326,1,2,4239.5
jJJRx5A1,32k26u12eq14p7ktnmss8y5zd9bdv8,3g5f9dbfotano7np0kgko3gp7ktvhj,jJJRx5A1,2020-0188,2021-10-14,11:00:04,12:32:13,NA,incomplete,false,NA,true,3,8,NA,NA,NA,right,absent,NA,NA,n_l_073.jpg,black,m_s_016.jpg,gray,between,NA,NaN,NA,right,2647.4000000953674,1,2,2055.300000190735
jJJRx5A1,32k26u12eq14p7ktnmss8y5zd9bdv8,3g5f9dbfotano7np0kgko3gp7ktvhj,jJJRx5A1,2020-0188,2021-10-14,11:00:04,12:32:13,NA,incomplete,false,NA,true,3,9,NA,NA,NA,right,absent,NA,NA,m_s_090.jpg,green,m_s_027.jpg,green,within,NA,NaN,NA,right,6007.5,1,1,1439.4000000953674
jJJRx5A1,32k26u12eq14p7ktnmss8y5zd9bdv8,3g5f9dbfotano7np0kgko3gp7ktvhj,jJJRx5A1,2020-0188,2021-10-14,11:00:04,12:32:13,NA,incomplete,false,NA,true,3,10,NA,NA,NA,right,absent,NA,NA,m_l_033.jpg,gray,n_l_066.jpg,gray,within,NA,NaN,NA,left,5551.800000190735,0,2,1047.5
jJJRx5A1,32k26u12eq14p7ktnmss8y5zd9bdv8,3g5f9dbfotano7np0kgko3gp7ktvhj,jJJRx5A1,2020-0188,2021-10-14,11:00:04,12:32:13,NA,incomplete,false,true,NA,4,0,NA,red,n_l_075.jpg,NA,NA,unpleasant,pleasant,NA,NA,NA,NA,NA,left,1978.80000019073,true,NA,NA,NA,NA,NA
jJJRx5A1,32k26u12eq14p7ktnmss8y5zd9bdv8,3g5f9dbfotano7np0kgko3gp7ktvhj,jJJRx5A1,2020-0188,2021-10-14,11:00:04,12:32:13,NA,incomplete,false,true,NA,4,1,NA,red,m_s_013.jpg,NA,NA,unpleasant,pleasant,NA,NA,NA,NA,NA,right,1463.5,true,NA,NA,NA,NA,NA
jJJRx5A1,32k26u12eq14p7ktnmss8y5zd9bdv8,3g5f9dbfotano7np0kgko3gp7ktvhj,jJJRx5A1,2020-0188,2021-10-14,11:00:04,12:32:13,NA,incomplete,false,true,NA,4,2,NA,red,m_l_117.jpg,NA,NA,pleasant,unpleasant,NA,NA,NA,NA,NA,left,2196.2999997139,true,NA,NA,NA,NA,NA
jJJRx5A1,32k26u12eq14p7ktnmss8y5zd9bdv8,3g5f9dbfotano7np0kgko3gp7ktvhj,jJJRx5A1,2020-0188,2021-10-14,11:00:04,12:32:13,NA,incomplete,false,true,NA,4,3,NA,red,m_s_062.jpg,NA,NA,pleasant,unpleasant,NA,NA,NA,NA,NA,left,1505.19999980927,true,NA,NA,NA,NA,NA
jJJRx5A1,32k26u12eq14p7ktnmss8y5zd9bdv8,3g5f9dbfotano7np0kgko3gp7ktvhj,jJJRx5A1,2020-0188,2021-10-14,11:00:04,12:32:13,NA,incomplete,false,true,NA,4,4,NA,red,n_l_003.jpg,NA,NA,unpleasant,pleasant,NA,NA,NA,NA,NA,right,1685.10000038147,true,NA,NA,NA,NA,NA
jJJRx5A1,32k26u12eq14p7ktnmss8y5zd9bdv8,3g5f9dbfotano7np0kgko3gp7ktvhj,jJJRx5A1,2020-0188,2021-10-14,11:00:04,12:32:13,NA,incomplete,false,true,NA,4,5,NA,red,n_l_107.jpg,NA,NA,unpleasant,pleasant,NA,NA,NA,NA,NA,left,1977.40000009537,true,NA,NA,NA,NA,NA
jJJRx5A1,32k26u12eq14p7ktnmss8y5zd9bdv8,3g5f9dbfotano7np0kgko3gp7ktvhj,jJJRx5A1,2020-0188,2021-10-14,11:00:04,12:32:13,NA,incomplete,false,true,NA,4,6,NA,blue,m_l_055.jpg,NA,NA,unpleasant,pleasant,NA,NA,NA,NA,NA,right,1478.2000002861,true,NA,NA,NA,NA,NA
jJJRx5A1,32k26u12eq14p7ktnmss8y5zd9bdv8,3g5f9dbfotano7np0kgko3gp7ktvhj,jJJRx5A1,2020-0188,2021-10-14,11:00:04,12:32:13,NA,incomplete,false,true,NA,4,7,NA,blue,m_l_010.jpg,NA,NA,unpleasant,pleasant,NA,NA,NA,NA,NA,right,1074.90000009537,true,NA,NA,NA,NA,NA
jJJRx5A1,32k26u12eq14p7ktnmss8y5zd9bdv8,3g5f9dbfotano7np0kgko3gp7ktvhj,jJJRx5A1,2020-0188,2021-10-14,11:00:04,12:32:13,NA,incomplete,false,true,NA,4,8,NA,blue,n_l_093.jpg,NA,NA,pleasant,unpleasant,NA,NA,NA,NA,NA,left,1295.2000002861,true,NA,NA,NA,NA,NA
jJJRx5A1,32k26u12eq14p7ktnmss8y5zd9bdv8,3g5f9dbfotano7np0kgko3gp7ktvhj,jJJRx5A1,2020-0188,2021-10-14,11:00:04,12:32:13,NA,incomplete,false,true,NA,4,9,NA,blue,m_s_007.jpg,NA,NA,pleasant,unpleasant,NA,NA,NA,NA,NA,right,2338.5,true,NA,NA,NA,NA,NA
jJJRx5A1,32k26u12eq14p7ktnmss8y5zd9bdv8,3g5f9dbfotano7np0kgko3gp7ktvhj,jJJRx5A1,2020-0188,2021-10-14,11:00:04,12:32:13,NA,incomplete,false,true,NA,4,10,NA,blue,n_s_102.jpg,NA,NA,unpleasant,pleasant,NA,NA,NA,NA,NA,left,2174.80000019073,true,NA,NA,NA,NA,NA
jJJRx5A1,32k26u12eq14p7ktnmss8y5zd9bdv8,3g5f9dbfotano7np0kgko3gp7ktvhj,jJJRx5A1,2020-0188,2021-10-14,11:00:04,12:32:13,NA,incomplete,false,true,NA,4,11,NA,blue,m_s_033.jpg,NA,NA,pleasant,unpleasant,NA,NA,NA,NA,NA,left,1763.10000038147,true,NA,NA,NA,NA,NA
jJJRx5A1,32k26u12eq14p7ktnmss8y5zd9bdv8,3g5f9dbfotano7np0kgko3gp7ktvhj,jJJRx5A1,2020-0188,2021-10-14,11:00:04,12:32:13,NA,incomplete,false,true,NA,4,12,NA,black,n_s_005.jpg,NA,NA,pleasant,unpleasant,NA,NA,NA,NA,NA,right,2248.90000009537,true,NA,NA,NA,NA,NA
jJJRx5A1,32k26u12eq14p7ktnmss8y5zd9bdv8,3g5f9dbfotano7np0kgko3gp7ktvhj,jJJRx5A1,2020-0188,2021-10-14,11:00:04,12:32:13,NA,incomplete,false,true,NA,4,13,NA,black,m_s_100.jpg,NA,NA,pleasant,unpleasant,NA,NA,NA,NA,NA,left,2029.5,true,NA,NA,NA,NA,NA
jJJRx5A1,32k26u12eq14p7ktnmss8y5zd9bdv8,3g5f9dbfotano7np0kgko3gp7ktvhj,jJJRx5A1,2020-0188,2021-10-14,11:00:04,12:32:13,NA,incomplete,false,true,NA,4,14,NA,black,m_l_036.jpg,NA,NA,pleasant,unpleasant,NA,NA,NA,NA,NA,left,1737.90000009537,true,NA,NA,NA,NA,NA
jJJRx5A1,32k26u12eq14p7ktnmss8y5zd9bdv8,3g5f9dbfotano7np0kgko3gp7ktvhj,jJJRx5A1,2020-0188,2021-10-14,11:00:04,12:32:13,NA,incomplete,false,true,NA,4,15,NA,black,m_l_083.jpg,NA,NA,pleasant,unpleasant,NA,NA,NA,NA,NA,right,1958.40000009537,true,NA,NA,NA,NA,NA
jJJRx5A1,32k26u12eq14p7ktnmss8y5zd9bdv8,3g5f9dbfotano7np0kgko3gp7ktvhj,jJJRx5A1,2020-0188,2021-10-14,11:00:04,12:32:13,NA,incomplete,false,true,NA,4,16,NA,black,n_l_024.jpg,NA,NA,unpleasant,pleasant,NA,NA,NA,NA,NA,right,1707.5,true,NA,NA,NA,NA,NA
jJJRx5A1,32k26u12eq14p7ktnmss8y5zd9bdv8,3g5f9dbfotano7np0kgko3gp7ktvhj,jJJRx5A1,2020-0188,2021-10-14,11:00:04,12:32:13,NA,incomplete,false,true,NA,4,17,NA,black,n_l_034.jpg,NA,NA,unpleasant,pleasant,NA,NA,NA,NA,NA,left,1855.59999990463,true,NA,NA,NA,NA,NA
jJJRx5A1,32k26u12eq14p7ktnmss8y5zd9bdv8,3g5f9dbfotano7np0kgko3gp7ktvhj,jJJRx5A1,2020-0188,2021-10-14,11:00:04,12:32:13,NA,incomplete,false,true,NA,4,18,NA,gray,m_s_109.jpg,NA,NA,unpleasant,pleasant,NA,NA,NA,NA,NA,left,2123.40000009537,true,NA,NA,NA,NA,NA
jJJRx5A1,32k26u12eq14p7ktnmss8y5zd9bdv8,3g5f9dbfotano7np0kgko3gp7ktvhj,jJJRx5A1,2020-0188,2021-10-14,11:00:04,12:32:13,NA,incomplete,false,true,NA,4,19,NA,gray,n_s_016.jpg,NA,NA,unpleasant,pleasant,NA,NA,NA,NA,NA,right,1759.59999990463,true,NA,NA,NA,NA,NA
jJJRx5A1,32k26u12eq14p7ktnmss8y5zd9bdv8,3g5f9dbfotano7np0kgko3gp7ktvhj,jJJRx5A1,2020-0188,2021-10-14,11:00:04,12:32:13,NA,incomplete,false,true,NA,4,20,NA,gray,n_s_078.jpg,NA,NA,pleasant,unpleasant,NA,NA,NA,NA,NA,left,1812.2000002861,true,NA,NA,NA,NA,NA
jJJRx5A1,32k26u12eq14p7ktnmss8y5zd9bdv8,3g5f9dbfotano7np0kgko3gp7ktvhj,jJJRx5A1,2020-0188,2021-10-14,11:00:04,12:32:13,NA,incomplete,false,true,NA,4,21,NA,gray,m_s_097.jpg,NA,NA,pleasant,unpleasant,NA,NA,NA,NA,NA,right,1337.09999990463,true,NA,NA,NA,NA,NA
jJJRx5A1,32k26u12eq14p7ktnmss8y5zd9bdv8,3g5f9dbfotano7np0kgko3gp7ktvhj,jJJRx5A1,2020-0188,2021-10-14,11:00:04,12:32:13,NA,incomplete,false,true,NA,4,22,NA,gray,n_s_074.jpg,NA,NA,pleasant,unpleasant,NA,NA,NA,NA,NA,right,1693.09999990463,true,NA,NA,NA,NA,NA
jJJRx5A1,32k26u12eq14p7ktnmss8y5zd9bdv8,3g5f9dbfotano7np0kgko3gp7ktvhj,jJJRx5A1,2020-0188,2021-10-14,11:00:04,12:32:13,NA,incomplete,false,true,NA,4,23,NA,gray,n_l_022.jpg,NA,NA,pleasant,unpleasant,NA,NA,NA,NA,NA,right,2106.09999990463,true,NA,NA,NA,NA,NA
jJJRx5A1,32k26u12eq14p7ktnmss8y5zd9bdv8,3g5f9dbfotano7np0kgko3gp7ktvhj,jJJRx5A1,2020-0188,2021-10-14,11:00:04,12:32:13,NA,incomplete,false,true,NA,4,24,NA,brown,m_l_060.jpg,NA,NA,pleasant,unpleasant,NA,NA,NA,NA,NA,left,1774.40000009537,true,NA,NA,NA,NA,NA
jJJRx5A1,32k26u12eq14p7ktnmss8y5zd9bdv8,3g5f9dbfotano7np0kgko3gp7ktvhj,jJJRx5A1,2020-0188,2021-10-14,11:00:04,12:32:13,NA,incomplete,false,true,NA,4,25,NA,brown,m_l_104.jpg,NA,NA,pleasant,unpleasant,NA,NA,NA,NA,NA,left,1650.09999990463,true,NA,NA,NA,NA,NA
jJJRx5A1,32k26u12eq14p7ktnmss8y5zd9bdv8,3g5f9dbfotano7np0kgko3gp7ktvhj,jJJRx5A1,2020-0188,2021-10-14,11:00:04,12:32:13,NA,incomplete,false,true,NA,4,26,NA,brown,n_s_029.jpg,NA,NA,unpleasant,pleasant,NA,NA,NA,NA,NA,left,1919.2999997139,true,NA,NA,NA,NA,NA
jJJRx5A1,32k26u12eq14p7ktnmss8y5zd9bdv8,3g5f9dbfotano7np0kgko3gp7ktvhj,jJJRx5A1,2020-0188,2021-10-14,11:00:04,12:32:13,NA,incomplete,false,true,NA,4,27,NA,brown,m_s_049.jpg,NA,NA,pleasant,unpleasant,NA,NA,NA,NA,NA,right,1906.7999997139,true,NA,NA,NA,NA,NA
jJJRx5A1,32k26u12eq14p7ktnmss8y5zd9bdv8,3g5f9dbfotano7np0kgko3gp7ktvhj,jJJRx5A1,2020-0188,2021-10-14,11:00:04,12:32:13,NA,incomplete,false,true,NA,4,28,NA,brown,m_l_091.jpg,NA,NA,unpleasant,pleasant,NA,NA,NA,NA,NA,right,1823,true,NA,NA,NA,NA,NA
jJJRx5A1,32k26u12eq14p7ktnmss8y5zd9bdv8,3g5f9dbfotano7np0kgko3gp7ktvhj,jJJRx5A1,2020-0188,2021-10-14,11:00:04,12:32:13,NA,incomplete,false,true,NA,4,29,NA,brown,m_l_080.jpg,NA,NA,pleasant,unpleasant,NA,NA,NA,NA,NA,left,1859.30000019073,true,NA,NA,NA,NA,NA
jJJRx5A1,32k26u12eq14p7ktnmss8y5zd9bdv8,3g5f9dbfotano7np0kgko3gp7ktvhj,jJJRx5A1,2020-0188,2021-10-14,11:00:04,12:32:13,NA,incomplete,false,true,NA,4,30,NA,purple,m_s_055.jpg,NA,NA,pleasant,unpleasant,NA,NA,NA,NA,NA,left,2368,true,NA,NA,NA,NA,NA
jJJRx5A1,32k26u12eq14p7ktnmss8y5zd9bdv8,3g5f9dbfotano7np0kgko3gp7ktvhj,jJJRx5A1,2020-0188,2021-10-14,11:00:04,12:32:13,NA,incomplete,false,true,NA,4,31,NA,purple,n_s_022.jpg,NA,NA,unpleasant,pleasant,NA,NA,NA,NA,NA,right,1684.19999980927,true,NA,NA,NA,NA,NA
jJJRx5A1,32k26u12eq14p7ktnmss8y5zd9bdv8,3g5f9dbfotano7np0kgko3gp7ktvhj,jJJRx5A1,2020-0188,2021-10-14,11:00:04,12:32:13,NA,incomplete,false,true,NA,4,32,NA,purple,n_s_061.jpg,NA,NA,pleasant,unpleasant,NA,NA,NA,NA,NA,left,1328.5,true,NA,NA,NA,NA,NA
jJJRx5A1,32k26u12eq14p7ktnmss8y5zd9bdv8,3g5f9dbfotano7np0kgko3gp7ktvhj,jJJRx5A1,2020-0188,2021-10-14,11:00:04,12:32:13,NA,incomplete,false,true,NA,4,33,NA,purple,m_s_095.jpg,NA,NA,pleasant,unpleasant,NA,NA,NA,NA,NA,right,1387.40000009537,true,NA,NA,NA,NA,NA
jJJRx5A1,32k26u12eq14p7ktnmss8y5zd9bdv8,3g5f9dbfotano7np0kgko3gp7ktvhj,jJJRx5A1,2020-0188,2021-10-14,11:00:04,12:32:13,NA,incomplete,false,true,NA,4,34,NA,purple,n_s_007.jpg,NA,NA,pleasant,unpleasant,NA,NA,NA,NA,NA,right,1304.7999997139,true,NA,NA,NA,NA,NA
jJJRx5A1,32k26u12eq14p7ktnmss8y5zd9bdv8,3g5f9dbfotano7np0kgko3gp7ktvhj,jJJRx5A1,2020-0188,2021-10-14,11:00:04,12:32:13,NA,incomplete,false,true,NA,4,35,NA,purple,m_l_092.jpg,NA,NA,unpleasant,pleasant,NA,NA,NA,NA,NA,left,1693.80000019073,true,NA,NA,NA,NA,NA
jJJRx5A1,32k26u12eq14p7ktnmss8y5zd9bdv8,3g5f9dbfotano7np0kgko3gp7ktvhj,jJJRx5A1,2020-0188,2021-10-14,11:00:04,12:32:13,NA,incomplete,false,NA,true,4,0,NA,NA,NA,left,absent,NA,NA,m_s_013.jpg,red,n_l_107.jpg,red,within,NA,NaN,NA,right,2630.5,0,2,1143.3000001907349
jJJRx5A1,32k26u12eq14p7ktnmss8y5zd9bdv8,3g5f9dbfotano7np0kgko3gp7ktvhj,jJJRx5A1,2020-0188,2021-10-14,11:00:04,12:32:13,NA,incomplete,false,NA,true,4,1,NA,NA,NA,right,absent,NA,NA,m_l_080.jpg,brown,m_l_104.jpg,brown,within,NA,NaN,NA,left,4247.700000286102,0,2,1239.0999999046326
jJJRx5A1,32k26u12eq14p7ktnmss8y5zd9bdv8,3g5f9dbfotano7np0kgko3gp7ktvhj,jJJRx5A1,2020-0188,2021-10-14,11:00:04,12:32:13,NA,incomplete,false,NA,true,4,2,NA,NA,NA,right,absent,NA,NA,n_s_061.jpg,purple,m_l_091.jpg,brown,between,NA,NaN,NA,right,2607.5,1,1,2023.6000003814697
jJJRx5A1,32k26u12eq14p7ktnmss8y5zd9bdv8,3g5f9dbfotano7np0kgko3gp7ktvhj,jJJRx5A1,2020-0188,2021-10-14,11:00:04,12:32:13,NA,incomplete,false,NA,true,4,3,NA,NA,NA,right,absent,NA,NA,n_s_029.jpg,brown,n_s_074.jpg,gray,between,NA,NaN,NA,left,3583.5,0,0,1167.3999996185303
jJJRx5A1,32k26u12eq14p7ktnmss8y5zd9bdv8,3g5f9dbfotano7np0kgko3gp7ktvhj,jJJRx5A1,2020-0188,2021-10-14,11:00:04,12:32:13,NA,incomplete,false,NA,true,4,4,NA,NA,NA,left,absent,NA,NA,m_s_100.jpg,black,n_l_034.jpg,black,within,NA,NaN,NA,left,2167.4000000953674,1,1,935.0999999046326
jJJRx5A1,32k26u12eq14p7ktnmss8y5zd9bdv8,3g5f9dbfotano7np0kgko3gp7ktvhj,jJJRx5A1,2020-0188,2021-10-14,11:00:04,12:32:13,NA,incomplete,false,NA,true,4,5,NA,NA,NA,left,absent,NA,NA,n_s_102.jpg,blue,m_l_036.jpg,black,between,NA,NaN,NA,right,3191.4000000953674,0,1,2071.300000190735
jJJRx5A1,32k26u12eq14p7ktnmss8y5zd9bdv8,3g5f9dbfotano7np0kgko3gp7ktvhj,jJJRx5A1,2020-0188,2021-10-14,11:00:04,12:32:13,NA,incomplete,false,NA,true,4,6,NA,NA,NA,left,absent,NA,NA,n_s_022.jpg,purple,m_l_092.jpg,purple,within,NA,NaN,NA,right,2071.5,0,3,1527.3999996185303
jJJRx5A1,32k26u12eq14p7ktnmss8y5zd9bdv8,3g5f9dbfotano7np0kgko3gp7ktvhj,jJJRx5A1,2020-0188,2021-10-14,11:00:04,12:32:13,NA,incomplete,false,NA,true,4,7,NA,NA,NA,left,absent,NA,NA,n_l_003.jpg,red,n_l_093.jpg,blue,between,NA,NaN,NA,left,5783.800000190735,1,2,2559.699999809265
jJJRx5A1,32k26u12eq14p7ktnmss8y5zd9bdv8,3g5f9dbfotano7np0kgko3gp7ktvhj,jJJRx5A1,2020-0188,2021-10-14,11:00:04,12:32:13,NA,incomplete,false,NA,true,4,8,NA,NA,NA,left,absent,NA,NA,m_l_010.jpg,blue,m_s_033.jpg,blue,within,NA,NaN,NA,left,2783.4000000953674,1,2,2039.5999999046326
jJJRx5A1,32k26u12eq14p7ktnmss8y5zd9bdv8,3g5f9dbfotano7np0kgko3gp7ktvhj,jJJRx5A1,2020-0188,2021-10-14,11:00:04,12:32:13,NA,incomplete,false,NA,true,4,9,NA,NA,NA,left,absent,NA,NA,n_l_024.jpg,black,n_s_078.jpg,gray,between,NA,NaN,NA,right,7407.5,0,0,1583.5999999046326
jJJRx5A1,32k26u12eq14p7ktnmss8y5zd9bdv8,3g5f9dbfotano7np0kgko3gp7ktvhj,jJJRx5A1,2020-0188,2021-10-14,11:00:04,12:32:13,NA,incomplete,false,NA,true,4,10,NA,NA,NA,left,absent,NA,NA,n_s_016.jpg,gray,n_l_022.jpg,gray,within,NA,NaN,NA,left,4175.699999809265,1,1,1127.9000000953674
jJJRx5A1,32k26u12eq14p7ktnmss8y5zd9bdv8,3g5f9dbfotano7np0kgko3gp7ktvhj,jJJRx5A1,2020-0188,2021-10-14,11:00:04,12:32:13,NA,incomplete,false,true,NA,5,0,NA,yellow,n_l_109.jpg,NA,NA,pleasant,unpleasant,NA,NA,NA,NA,NA,left,2122.2999997139,true,NA,NA,NA,NA,NA
jJJRx5A1,32k26u12eq14p7ktnmss8y5zd9bdv8,3g5f9dbfotano7np0kgko3gp7ktvhj,jJJRx5A1,2020-0188,2021-10-14,11:00:04,12:32:13,NA,incomplete,false,true,NA,5,1,NA,yellow,m_s_025.jpg,NA,NA,pleasant,unpleasant,NA,NA,NA,NA,NA,right,2814,true,NA,NA,NA,NA,NA
jJJRx5A1,32k26u12eq14p7ktnmss8y5zd9bdv8,3g5f9dbfotano7np0kgko3gp7ktvhj,jJJRx5A1,2020-0188,2021-10-14,11:00:04,12:32:13,NA,incomplete,false,true,NA,5,2,NA,yellow,m_s_077.jpg,NA,NA,unpleasant,pleasant,NA,NA,NA,NA,NA,right,1762.69999980927,true,NA,NA,NA,NA,NA
jJJRx5A1,32k26u12eq14p7ktnmss8y5zd9bdv8,3g5f9dbfotano7np0kgko3gp7ktvhj,jJJRx5A1,2020-0188,2021-10-14,11:00:04,12:32:13,NA,incomplete,false,true,NA,5,3,NA,yellow,m_s_058.jpg,NA,NA,pleasant,unpleasant,NA,NA,NA,NA,NA,left,1471.7999997139,true,NA,NA,NA,NA,NA
jJJRx5A1,32k26u12eq14p7ktnmss8y5zd9bdv8,3g5f9dbfotano7np0kgko3gp7ktvhj,jJJRx5A1,2020-0188,2021-10-14,11:00:04,12:32:13,NA,incomplete,false,true,NA,5,4,NA,yellow,m_s_082.jpg,NA,NA,pleasant,unpleasant,NA,NA,NA,NA,NA,left,1299.59999990463,true,NA,NA,NA,NA,NA
jJJRx5A1,32k26u12eq14p7ktnmss8y5zd9bdv8,3g5f9dbfotano7np0kgko3gp7ktvhj,jJJRx5A1,2020-0188,2021-10-14,11:00:04,12:32:13,NA,incomplete,false,true,NA,5,5,NA,yellow,n_l_070.jpg,NA,NA,pleasant,unpleasant,NA,NA,NA,NA,NA,left,1200.5,true,NA,NA,NA,NA,NA
jJJRx5A1,32k26u12eq14p7ktnmss8y5zd9bdv8,3g5f9dbfotano7np0kgko3gp7ktvhj,jJJRx5A1,2020-0188,2021-10-14,11:00:04,12:32:13,NA,incomplete,false,true,NA,5,6,NA,purple,n_l_071.jpg,NA,NA,unpleasant,pleasant,NA,NA,NA,NA,NA,right,1875.30000019073,true,NA,NA,NA,NA,NA
jJJRx5A1,32k26u12eq14p7ktnmss8y5zd9bdv8,3g5f9dbfotano7np0kgko3gp7ktvhj,jJJRx5A1,2020-0188,2021-10-14,11:00:04,12:32:13,NA,incomplete,false,true,NA,5,7,NA,purple,m_s_057.jpg,NA,NA,pleasant,unpleasant,NA,NA,NA,NA,NA,left,1497.40000009537,true,NA,NA,NA,NA,NA
jJJRx5A1,32k26u12eq14p7ktnmss8y5zd9bdv8,3g5f9dbfotano7np0kgko3gp7ktvhj,jJJRx5A1,2020-0188,2021-10-14,11:00:04,12:32:13,NA,incomplete,false,true,NA,5,8,NA,purple,n_l_103.jpg,NA,NA,pleasant,unpleasant,NA,NA,NA,NA,NA,left,1517.90000009537,true,NA,NA,NA,NA,NA
jJJRx5A1,32k26u12eq14p7ktnmss8y5zd9bdv8,3g5f9dbfotano7np0kgko3gp7ktvhj,jJJRx5A1,2020-0188,2021-10-14,11:00:04,12:32:13,NA,incomplete,false,true,NA,5,9,NA,purple,n_s_092.jpg,NA,NA,unpleasant,pleasant,NA,NA,NA,NA,NA,right,2298.40000009537,true,NA,NA,NA,NA,NA
jJJRx5A1,32k26u12eq14p7ktnmss8y5zd9bdv8,3g5f9dbfotano7np0kgko3gp7ktvhj,jJJRx5A1,2020-0188,2021-10-14,11:00:04,12:32:13,NA,incomplete,false,true,NA,5,10,NA,purple,n_l_054.jpg,NA,NA,pleasant,unpleasant,NA,NA,NA,NA,NA,left,1751.2000002861,true,NA,NA,NA,NA,NA
jJJRx5A1,32k26u12eq14p7ktnmss8y5zd9bdv8,3g5f9dbfotano7np0kgko3gp7ktvhj,jJJRx5A1,2020-0188,2021-10-14,11:00:04,12:32:13,NA,incomplete,false,true,NA,5,11,NA,purple,m_s_045.jpg,NA,NA,unpleasant,pleasant,NA,NA,NA,NA,NA,right,1867.09999990463,true,NA,NA,NA,NA,NA
jJJRx5A1,32k26u12eq14p7ktnmss8y5zd9bdv8,3g5f9dbfotano7np0kgko3gp7ktvhj,jJJRx5A1,2020-0188,2021-10-14,11:00:04,12:32:13,NA,incomplete,false,true,NA,5,12,NA,gray,n_l_056.jpg,NA,NA,pleasant,unpleasant,NA,NA,NA,NA,NA,left,1415.40000009537,true,NA,NA,NA,NA,NA
jJJRx5A1,32k26u12eq14p7ktnmss8y5zd9bdv8,3g5f9dbfotano7np0kgko3gp7ktvhj,jJJRx5A1,2020-0188,2021-10-14,11:00:04,12:32:13,NA,incomplete,false,true,NA,5,13,NA,gray,m_l_051.jpg,NA,NA,unpleasant,pleasant,NA,NA,NA,NA,NA,left,1403.69999980927,true,NA,NA,NA,NA,NA
jJJRx5A1,32k26u12eq14p7ktnmss8y5zd9bdv8,3g5f9dbfotano7np0kgko3gp7ktvhj,jJJRx5A1,2020-0188,2021-10-14,11:00:04,12:32:13,NA,incomplete,false,true,NA,5,14,NA,gray,n_s_112.jpg,NA,NA,pleasant,unpleasant,NA,NA,NA,NA,NA,right,2007.19999980927,true,NA,NA,NA,NA,NA
jJJRx5A1,32k26u12eq14p7ktnmss8y5zd9bdv8,3g5f9dbfotano7np0kgko3gp7ktvhj,jJJRx5A1,2020-0188,2021-10-14,11:00:04,12:32:13,NA,incomplete,false,true,NA,5,15,NA,gray,m_l_040.jpg,NA,NA,unpleasant,pleasant,NA,NA,NA,NA,NA,left,2563.19999980927,true,NA,NA,NA,NA,NA
jJJRx5A1,32k26u12eq14p7ktnmss8y5zd9bdv8,3g5f9dbfotano7np0kgko3gp7ktvhj,jJJRx5A1,2020-0188,2021-10-14,11:00:04,12:32:13,NA,incomplete,false,true,NA,5,16,NA,gray,n_s_063.jpg,NA,NA,unpleasant,pleasant,NA,NA,NA,NA,NA,right,2753,true,NA,NA,NA,NA,NA
jJJRx5A1,32k26u12eq14p7ktnmss8y5zd9bdv8,3g5f9dbfotano7np0kgko3gp7ktvhj,jJJRx5A1,2020-0188,2021-10-14,11:00:04,12:32:13,NA,incomplete,false,true,NA,5,17,NA,gray,m_l_063.jpg,NA,NA,pleasant,unpleasant,NA,NA,NA,NA,NA,left,1396.39999961853,true,NA,NA,NA,NA,NA
jJJRx5A1,32k26u12eq14p7ktnmss8y5zd9bdv8,3g5f9dbfotano7np0kgko3gp7ktvhj,jJJRx5A1,2020-0188,2021-10-14,11:00:04,12:32:13,NA,incomplete,false,true,NA,5,18,NA,brown,n_s_036.jpg,NA,NA,unpleasant,pleasant,NA,NA,NA,NA,NA,left,1762.09999990463,true,NA,NA,NA,NA,NA
jJJRx5A1,32k26u12eq14p7ktnmss8y5zd9bdv8,3g5f9dbfotano7np0kgko3gp7ktvhj,jJJRx5A1,2020-0188,2021-10-14,11:00:04,12:32:13,NA,incomplete,false,true,NA,5,19,NA,brown,m_s_056.jpg,NA,NA,unpleasant,pleasant,NA,NA,NA,NA,NA,right,2622.59999990463,true,NA,NA,NA,NA,NA
jJJRx5A1,32k26u12eq14p7ktnmss8y5zd9bdv8,3g5f9dbfotano7np0kgko3gp7ktvhj,jJJRx5A1,2020-0188,2021-10-14,11:00:04,12:32:13,NA,incomplete,false,true,NA,5,20,NA,brown,m_s_012.jpg,NA,NA,unpleasant,pleasant,NA,NA,NA,NA,NA,left,2018.5,true,NA,NA,NA,NA,NA
jJJRx5A1,32k26u12eq14p7ktnmss8y5zd9bdv8,3g5f9dbfotano7np0kgko3gp7ktvhj,jJJRx5A1,2020-0188,2021-10-14,11:00:04,12:32:13,NA,incomplete,false,true,NA,5,21,NA,brown,m_l_065.jpg,NA,NA,unpleasant,pleasant,NA,NA,NA,NA,NA,right,1591.19999980927,true,NA,NA,NA,NA,NA
jJJRx5A1,32k26u12eq14p7ktnmss8y5zd9bdv8,3g5f9dbfotano7np0kgko3gp7ktvhj,jJJRx5A1,2020-0188,2021-10-14,11:00:04,12:32:13,NA,incomplete,false,true,NA,5,22,NA,brown,n_l_033.jpg,NA,NA,pleasant,unpleasant,NA,NA,NA,NA,NA,right,1819,true,NA,NA,NA,NA,NA
jJJRx5A1,32k26u12eq14p7ktnmss8y5zd9bdv8,3g5f9dbfotano7np0kgko3gp7ktvhj,jJJRx5A1,2020-0188,2021-10-14,11:00:04,12:32:13,NA,incomplete,false,true,NA,5,23,NA,brown,n_l_098.jpg,NA,NA,pleasant,unpleasant,NA,NA,NA,NA,NA,left,1519,true,NA,NA,NA,NA,NA
jJJRx5A1,32k26u12eq14p7ktnmss8y5zd9bdv8,3g5f9dbfotano7np0kgko3gp7ktvhj,jJJRx5A1,2020-0188,2021-10-14,11:00:04,12:32:13,NA,incomplete,false,true,NA,5,24,NA,black,n_l_014.jpg,NA,NA,pleasant,unpleasant,NA,NA,NA,NA,NA,left,1971.40000009537,true,NA,NA,NA,NA,NA
jJJRx5A1,32k26u12eq14p7ktnmss8y5zd9bdv8,3g5f9dbfotano7np0kgko3gp7ktvhj,jJJRx5A1,2020-0188,2021-10-14,11:00:04,12:32:13,NA,incomplete,false,true,NA,5,25,NA,black,m_s_044.jpg,NA,NA,pleasant,unpleasant,NA,NA,NA,NA,NA,right,1519.19999980927,true,NA,NA,NA,NA,NA
jJJRx5A1,32k26u12eq14p7ktnmss8y5zd9bdv8,3g5f9dbfotano7np0kgko3gp7ktvhj,jJJRx5A1,2020-0188,2021-10-14,11:00:04,12:32:13,NA,incomplete,false,true,NA,5,26,NA,black,n_s_024.jpg,NA,NA,unpleasant,pleasant,NA,NA,NA,NA,NA,left,1723.40000009537,true,NA,NA,NA,NA,NA
jJJRx5A1,32k26u12eq14p7ktnmss8y5zd9bdv8,3g5f9dbfotano7np0kgko3gp7ktvhj,jJJRx5A1,2020-0188,2021-10-14,11:00:04,12:32:13,NA,incomplete,false,true,NA,5,27,NA,black,n_s_020.jpg,NA,NA,pleasant,unpleasant,NA,NA,NA,NA,NA,right,1679.59999990463,true,NA,NA,NA,NA,NA
jJJRx5A1,32k26u12eq14p7ktnmss8y5zd9bdv8,3g5f9dbfotano7np0kgko3gp7ktvhj,jJJRx5A1,2020-0188,2021-10-14,11:00:04,12:32:13,NA,incomplete,false,true,NA,5,28,NA,black,m_l_058.jpg,NA,NA,pleasant,unpleasant,NA,NA,NA,NA,NA,left,2268.09999990463,true,NA,NA,NA,NA,NA
jJJRx5A1,32k26u12eq14p7ktnmss8y5zd9bdv8,3g5f9dbfotano7np0kgko3gp7ktvhj,jJJRx5A1,2020-0188,2021-10-14,11:00:04,12:32:13,NA,incomplete,false,true,NA,5,29,NA,black,m_l_006.jpg,NA,NA,pleasant,unpleasant,NA,NA,NA,NA,NA,right,2240.30000019073,true,NA,NA,NA,NA,NA
jJJRx5A1,32k26u12eq14p7ktnmss8y5zd9bdv8,3g5f9dbfotano7np0kgko3gp7ktvhj,jJJRx5A1,2020-0188,2021-10-14,11:00:04,12:32:13,NA,incomplete,false,true,NA,5,30,NA,green,m_s_115.jpg,NA,NA,unpleasant,pleasant,NA,NA,NA,NA,NA,right,2252.40000009537,true,NA,NA,NA,NA,NA
jJJRx5A1,32k26u12eq14p7ktnmss8y5zd9bdv8,3g5f9dbfotano7np0kgko3gp7ktvhj,jJJRx5A1,2020-0188,2021-10-14,11:00:04,12:32:13,NA,incomplete,false,true,NA,5,31,NA,green,n_l_017.jpg,NA,NA,unpleasant,pleasant,NA,NA,NA,NA,NA,right,2064.69999980927,true,NA,NA,NA,NA,NA
jJJRx5A1,32k26u12eq14p7ktnmss8y5zd9bdv8,3g5f9dbfotano7np0kgko3gp7ktvhj,jJJRx5A1,2020-0188,2021-10-14,11:00:04,12:32:13,NA,incomplete,false,true,NA,5,32,NA,green,m_l_096.jpg,NA,NA,pleasant,unpleasant,NA,NA,NA,NA,NA,right,3229.5,true,NA,NA,NA,NA,NA
jJJRx5A1,32k26u12eq14p7ktnmss8y5zd9bdv8,3g5f9dbfotano7np0kgko3gp7ktvhj,jJJRx5A1,2020-0188,2021-10-14,11:00:04,12:32:13,NA,incomplete,false,true,NA,5,33,NA,green,n_l_001.jpg,NA,NA,pleasant,unpleasant,NA,NA,NA,NA,NA,left,2042.59999990463,true,NA,NA,NA,NA,NA
jJJRx5A1,32k26u12eq14p7ktnmss8y5zd9bdv8,3g5f9dbfotano7np0kgko3gp7ktvhj,jJJRx5A1,2020-0188,2021-10-14,11:00:04,12:32:13,NA,incomplete,false,true,NA,5,34,NA,green,m_s_020.jpg,NA,NA,pleasant,unpleasant,NA,NA,NA,NA,NA,left,1974.89999961853,true,NA,NA,NA,NA,NA
jJJRx5A1,32k26u12eq14p7ktnmss8y5zd9bdv8,3g5f9dbfotano7np0kgko3gp7ktvhj,jJJRx5A1,2020-0188,2021-10-14,11:00:04,12:32:13,NA,incomplete,false,true,NA,5,35,NA,green,m_l_025.jpg,NA,NA,pleasant,unpleasant,NA,NA,NA,NA,NA,left,2099.59999990463,true,NA,NA,NA,NA,NA
jJJRx5A1,32k26u12eq14p7ktnmss8y5zd9bdv8,3g5f9dbfotano7np0kgko3gp7ktvhj,jJJRx5A1,2020-0188,2021-10-14,11:00:04,12:32:13,NA,incomplete,false,NA,true,5,0,NA,NA,NA,right,absent,NA,NA,n_l_098.jpg,brown,m_s_056.jpg,brown,within,NA,NaN,NA,right,6358.900000095367,1,3,1359.0999999046326
jJJRx5A1,32k26u12eq14p7ktnmss8y5zd9bdv8,3g5f9dbfotano7np0kgko3gp7ktvhj,jJJRx5A1,2020-0188,2021-10-14,11:00:04,12:32:13,NA,incomplete,false,NA,true,5,1,NA,NA,NA,left,absent,NA,NA,m_s_025.jpg,yellow,n_l_070.jpg,yellow,within,NA,NaN,NA,left,2854.7999997138977,1,2,1407.0999999046326
jJJRx5A1,32k26u12eq14p7ktnmss8y5zd9bdv8,3g5f9dbfotano7np0kgko3gp7ktvhj,jJJRx5A1,2020-0188,2021-10-14,11:00:04,12:32:13,NA,incomplete,false,NA,true,5,2,NA,NA,NA,right,absent,NA,NA,m_s_045.jpg,purple,m_s_057.jpg,purple,within,NA,NaN,NA,left,8663.300000190735,0,1,878.7000002861023
jJJRx5A1,32k26u12eq14p7ktnmss8y5zd9bdv8,3g5f9dbfotano7np0kgko3gp7ktvhj,jJJRx5A1,2020-0188,2021-10-14,11:00:04,12:32:13,NA,incomplete,false,NA,true,5,3,NA,NA,NA,left,absent,NA,NA,m_s_044.jpg,black,m_l_006.jpg,black,within,NA,NaN,NA,left,2423.4000000953674,1,2,1543.7000002861023
jJJRx5A1,32k26u12eq14p7ktnmss8y5zd9bdv8,3g5f9dbfotano7np0kgko3gp7ktvhj,jJJRx5A1,2020-0188,2021-10-14,11:00:04,12:32:13,NA,incomplete,false,NA,true,5,4,NA,NA,NA,right,absent,NA,NA,m_l_063.jpg,gray,m_l_051.jpg,gray,within,NA,NaN,NA,right,9792,1,3,2559.4000000953674
jJJRx5A1,32k26u12eq14p7ktnmss8y5zd9bdv8,3g5f9dbfotano7np0kgko3gp7ktvhj,jJJRx5A1,2020-0188,2021-10-14,11:00:04,12:32:13,NA,incomplete,false,NA,true,5,5,NA,NA,NA,right,absent,NA,NA,n_s_024.jpg,black,n_l_033.jpg,brown,between,NA,NaN,NA,right,6695.800000190735,1,2,1071.4000000953674
jJJRx5A1,32k26u12eq14p7ktnmss8y5zd9bdv8,3g5f9dbfotano7np0kgko3gp7ktvhj,jJJRx5A1,2020-0188,2021-10-14,11:00:04,12:32:13,NA,incomplete,false,NA,true,5,6,NA,NA,NA,left,absent,NA,NA,m_s_082.jpg,yellow,n_l_103.jpg,purple,between,NA,NaN,NA,left,4191.599999904633,1,3,1047.8000001907349
jJJRx5A1,32k26u12eq14p7ktnmss8y5zd9bdv8,3g5f9dbfotano7np0kgko3gp7ktvhj,jJJRx5A1,2020-0188,2021-10-14,11:00:04,12:32:13,NA,incomplete,false,NA,true,5,7,NA,NA,NA,left,absent,NA,NA,n_l_017.jpg,green,m_l_025.jpg,green,within,NA,NaN,NA,left,7911.699999809265,1,0,1575.2999997138977
jJJRx5A1,32k26u12eq14p7ktnmss8y5zd9bdv8,3g5f9dbfotano7np0kgko3gp7ktvhj,jJJRx5A1,2020-0188,2021-10-14,11:00:04,12:32:13,NA,incomplete,false,NA,true,5,8,NA,NA,NA,left,absent,NA,NA,n_l_054.jpg,purple,n_s_112.jpg,gray,between,NA,NaN,NA,left,4351.599999904633,1,3,1263.5
jJJRx5A1,32k26u12eq14p7ktnmss8y5zd9bdv8,3g5f9dbfotano7np0kgko3gp7ktvhj,jJJRx5A1,2020-0188,2021-10-14,11:00:04,12:32:13,NA,incomplete,false,NA,true,5,9,NA,NA,NA,left,absent,NA,NA,m_l_058.jpg,black,m_l_096.jpg,green,between,NA,NaN,NA,right,3631.7000002861023,0,0,1391.4000000953674
jJJRx5A1,32k26u12eq14p7ktnmss8y5zd9bdv8,3g5f9dbfotano7np0kgko3gp7ktvhj,jJJRx5A1,2020-0188,2021-10-14,11:00:04,12:32:13,NA,incomplete,false,NA,true,5,10,NA,NA,NA,left,absent,NA,NA,n_s_063.jpg,gray,m_s_012.jpg,brown,between,NA,NaN,NA,left,7383.800000190735,1,2,2015.2000002861023
jJJRx5A1,32k26u12eq14p7ktnmss8y5zd9bdv8,3g5f9dbfotano7np0kgko3gp7ktvhj,jJJRx5A1,2020-0188,2021-10-14,11:00:04,12:32:13,NA,incomplete,false,true,NA,6,0,NA,white,n_s_055.jpg,NA,NA,pleasant,unpleasant,NA,NA,NA,NA,NA,right,1756.40000009537,true,NA,NA,NA,NA,NA
jJJRx5A1,32k26u12eq14p7ktnmss8y5zd9bdv8,3g5f9dbfotano7np0kgko3gp7ktvhj,jJJRx5A1,2020-0188,2021-10-14,11:00:04,12:32:13,NA,incomplete,false,true,NA,6,1,NA,white,m_s_006.jpg,NA,NA,unpleasant,pleasant,NA,NA,NA,NA,NA,left,2232.5,true,NA,NA,NA,NA,NA
jJJRx5A1,32k26u12eq14p7ktnmss8y5zd9bdv8,3g5f9dbfotano7np0kgko3gp7ktvhj,jJJRx5A1,2020-0188,2021-10-14,11:00:04,12:32:13,NA,incomplete,false,true,NA,6,2,NA,white,m_s_098.jpg,NA,NA,pleasant,unpleasant,NA,NA,NA,NA,NA,left,2229.30000019073,true,NA,NA,NA,NA,NA
jJJRx5A1,32k26u12eq14p7ktnmss8y5zd9bdv8,3g5f9dbfotano7np0kgko3gp7ktvhj,jJJRx5A1,2020-0188,2021-10-14,11:00:04,12:32:13,NA,incomplete,false,true,NA,6,3,NA,white,m_s_034.jpg,NA,NA,unpleasant,pleasant,NA,NA,NA,NA,NA,right,1721.90000009537,true,NA,NA,NA,NA,NA
jJJRx5A1,32k26u12eq14p7ktnmss8y5zd9bdv8,3g5f9dbfotano7np0kgko3gp7ktvhj,jJJRx5A1,2020-0188,2021-10-14,11:00:04,12:32:13,NA,incomplete,false,true,NA,6,4,NA,white,n_l_105.jpg,NA,NA,pleasant,unpleasant,NA,NA,NA,NA,NA,right,2158.10000038147,true,NA,NA,NA,NA,NA
jJJRx5A1,32k26u12eq14p7ktnmss8y5zd9bdv8,3g5f9dbfotano7np0kgko3gp7ktvhj,jJJRx5A1,2020-0188,2021-10-14,11:00:04,12:32:13,NA,incomplete,false,true,NA,6,5,NA,white,m_l_021.jpg,NA,NA,unpleasant,pleasant,NA,NA,NA,NA,NA,left,1770.5,true,NA,NA,NA,NA,NA
jJJRx5A1,32k26u12eq14p7ktnmss8y5zd9bdv8,3g5f9dbfotano7np0kgko3gp7ktvhj,jJJRx5A1,2020-0188,2021-10-14,11:00:04,12:32:13,NA,incomplete,false,true,NA,6,6,NA,red,m_s_078.jpg,NA,NA,pleasant,unpleasant,NA,NA,NA,NA,NA,left,1502.2999997139,true,NA,NA,NA,NA,NA
jJJRx5A1,32k26u12eq14p7ktnmss8y5zd9bdv8,3g5f9dbfotano7np0kgko3gp7ktvhj,jJJRx5A1,2020-0188,2021-10-14,11:00:04,12:32:13,NA,incomplete,false,true,NA,6,7,NA,red,n_l_028.jpg,NA,NA,pleasant,unpleasant,NA,NA,NA,NA,NA,left,1842.69999980927,true,NA,NA,NA,NA,NA
jJJRx5A1,32k26u12eq14p7ktnmss8y5zd9bdv8,3g5f9dbfotano7np0kgko3gp7ktvhj,jJJRx5A1,2020-0188,2021-10-14,11:00:04,12:32:13,NA,incomplete,false,true,NA,6,8,NA,red,m_l_035.jpg,NA,NA,unpleasant,pleasant,NA,NA,NA,NA,NA,right,1831.59999990463,true,NA,NA,NA,NA,NA
jJJRx5A1,32k26u12eq14p7ktnmss8y5zd9bdv8,3g5f9dbfotano7np0kgko3gp7ktvhj,jJJRx5A1,2020-0188,2021-10-14,11:00:04,12:32:13,NA,incomplete,false,true,NA,6,9,NA,red,n_l_055.jpg,NA,NA,unpleasant,pleasant,NA,NA,NA,NA,NA,right,2051.90000009537,true,NA,NA,NA,NA,NA
jJJRx5A1,32k26u12eq14p7ktnmss8y5zd9bdv8,3g5f9dbfotano7np0kgko3gp7ktvhj,jJJRx5A1,2020-0188,2021-10-14,11:00:04,12:32:13,NA,incomplete,false,true,NA,6,10,NA,red,n_l_015.jpg,NA,NA,pleasant,unpleasant,NA,NA,NA,NA,NA,right,2200.30000019073,true,NA,NA,NA,NA,NA
jJJRx5A1,32k26u12eq14p7ktnmss8y5zd9bdv8,3g5f9dbfotano7np0kgko3gp7ktvhj,jJJRx5A1,2020-0188,2021-10-14,11:00:04,12:32:13,NA,incomplete,false,true,NA,6,11,NA,red,m_s_005.jpg,NA,NA,pleasant,unpleasant,NA,NA,NA,NA,NA,left,1837.19999980927,true,NA,NA,NA,NA,NA
jJJRx5A1,32k26u12eq14p7ktnmss8y5zd9bdv8,3g5f9dbfotano7np0kgko3gp7ktvhj,jJJRx5A1,2020-0188,2021-10-14,11:00:04,12:32:13,NA,incomplete,false,true,NA,6,12,NA,orange,m_l_068.jpg,NA,NA,unpleasant,pleasant,NA,NA,NA,NA,NA,right,1472.90000009537,true,NA,NA,NA,NA,NA
jJJRx5A1,32k26u12eq14p7ktnmss8y5zd9bdv8,3g5f9dbfotano7np0kgko3gp7ktvhj,jJJRx5A1,2020-0188,2021-10-14,11:00:04,12:32:13,NA,incomplete,false,true,NA,6,13,NA,orange,m_l_007.jpg,NA,NA,pleasant,unpleasant,NA,NA,NA,NA,NA,left,1901.2000002861,true,NA,NA,NA,NA,NA
jJJRx5A1,32k26u12eq14p7ktnmss8y5zd9bdv8,3g5f9dbfotano7np0kgko3gp7ktvhj,jJJRx5A1,2020-0188,2021-10-14,11:00:04,12:32:13,NA,incomplete,false,true,NA,6,14,NA,orange,m_l_043.jpg,NA,NA,pleasant,unpleasant,NA,NA,NA,NA,NA,left,1953.5,true,NA,NA,NA,NA,NA
jJJRx5A1,32k26u12eq14p7ktnmss8y5zd9bdv8,3g5f9dbfotano7np0kgko3gp7ktvhj,jJJRx5A1,2020-0188,2021-10-14,11:00:04,12:32:13,NA,incomplete,false,true,NA,6,15,NA,orange,m_l_093.jpg,NA,NA,unpleasant,pleasant,NA,NA,NA,NA,NA,right,1837.69999980927,true,NA,NA,NA,NA,NA
jJJRx5A1,32k26u12eq14p7ktnmss8y5zd9bdv8,3g5f9dbfotano7np0kgko3gp7ktvhj,jJJRx5A1,2020-0188,2021-10-14,11:00:04,12:32:13,NA,incomplete,false,true,NA,6,16,NA,orange,m_s_015.jpg,NA,NA,unpleasant,pleasant,NA,NA,NA,NA,NA,right,1905.59999990463,true,NA,NA,NA,NA,NA
jJJRx5A1,32k26u12eq14p7ktnmss8y5zd9bdv8,3g5f9dbfotano7np0kgko3gp7ktvhj,jJJRx5A1,2020-0188,2021-10-14,11:00:04,12:32:13,NA,incomplete,false,true,NA,6,17,NA,orange,m_l_111.jpg,NA,NA,unpleasant,pleasant,NA,NA,NA,NA,NA,right,1653.90000009537,true,NA,NA,NA,NA,NA
jJJRx5A1,32k26u12eq14p7ktnmss8y5zd9bdv8,3g5f9dbfotano7np0kgko3gp7ktvhj,jJJRx5A1,2020-0188,2021-10-14,11:00:04,12:32:13,NA,incomplete,false,true,NA,6,18,NA,gray,m_s_032.jpg,NA,NA,pleasant,unpleasant,NA,NA,NA,NA,NA,right,2177.7999997139,true,NA,NA,NA,NA,NA
jJJRx5A1,32k26u12eq14p7ktnmss8y5zd9bdv8,3g5f9dbfotano7np0kgko3gp7ktvhj,jJJRx5A1,2020-0188,2021-10-14,11:00:04,12:32:13,NA,incomplete,false,true,NA,6,19,NA,gray,n_s_042.jpg,NA,NA,pleasant,unpleasant,NA,NA,NA,NA,NA,right,2030.39999961853,true,NA,NA,NA,NA,NA
jJJRx5A1,32k26u12eq14p7ktnmss8y5zd9bdv8,3g5f9dbfotano7np0kgko3gp7ktvhj,jJJRx5A1,2020-0188,2021-10-14,11:00:04,12:32:13,NA,incomplete,false,true,NA,6,20,NA,gray,n_l_032.jpg,NA,NA,pleasant,unpleasant,NA,NA,NA,NA,NA,left,2011.5,true,NA,NA,NA,NA,NA
jJJRx5A1,32k26u12eq14p7ktnmss8y5zd9bdv8,3g5f9dbfotano7np0kgko3gp7ktvhj,jJJRx5A1,2020-0188,2021-10-14,11:00:04,12:32:13,NA,incomplete,false,true,NA,6,21,NA,gray,m_s_074.jpg,NA,NA,pleasant,unpleasant,NA,NA,NA,NA,NA,right,863.800000190735,true,NA,NA,NA,NA,NA
jJJRx5A1,32k26u12eq14p7ktnmss8y5zd9bdv8,3g5f9dbfotano7np0kgko3gp7ktvhj,jJJRx5A1,2020-0188,2021-10-14,11:00:04,12:32:13,NA,incomplete,false,true,NA,6,22,NA,gray,n_s_047.jpg,NA,NA,pleasant,unpleasant,NA,NA,NA,NA,NA,left,1683.90000009537,true,NA,NA,NA,NA,NA
jJJRx5A1,32k26u12eq14p7ktnmss8y5zd9bdv8,3g5f9dbfotano7np0kgko3gp7ktvhj,jJJRx5A1,2020-0188,2021-10-14,11:00:04,12:32:13,NA,incomplete,false,true,NA,6,23,NA,gray,n_l_094.jpg,NA,NA,unpleasant,pleasant,NA,NA,NA,NA,NA,right,1369,true,NA,NA,NA,NA,NA
jJJRx5A1,32k26u12eq14p7ktnmss8y5zd9bdv8,3g5f9dbfotano7np0kgko3gp7ktvhj,jJJRx5A1,2020-0188,2021-10-14,11:00:04,12:32:13,NA,incomplete,false,true,NA,6,24,NA,purple,m_s_021.jpg,NA,NA,pleasant,unpleasant,NA,NA,NA,NA,NA,left,1492.7999997139,true,NA,NA,NA,NA,NA
jJJRx5A1,32k26u12eq14p7ktnmss8y5zd9bdv8,3g5f9dbfotano7np0kgko3gp7ktvhj,jJJRx5A1,2020-0188,2021-10-14,11:00:04,12:32:13,NA,incomplete,false,true,NA,6,25,NA,purple,m_l_034.jpg,NA,NA,pleasant,unpleasant,NA,NA,NA,NA,NA,left,1617.7999997139,true,NA,NA,NA,NA,NA
jJJRx5A1,32k26u12eq14p7ktnmss8y5zd9bdv8,3g5f9dbfotano7np0kgko3gp7ktvhj,jJJRx5A1,2020-0188,2021-10-14,11:00:04,12:32:13,NA,incomplete,false,true,NA,6,26,NA,purple,n_s_050.jpg,NA,NA,pleasant,unpleasant,NA,NA,NA,NA,NA,right,1998.09999990463,true,NA,NA,NA,NA,NA
jJJRx5A1,32k26u12eq14p7ktnmss8y5zd9bdv8,3g5f9dbfotano7np0kgko3gp7ktvhj,jJJRx5A1,2020-0188,2021-10-14,11:00:04,12:32:13,NA,incomplete,false,true,NA,6,27,NA,purple,m_s_102.jpg,NA,NA,unpleasant,pleasant,NA,NA,NA,NA,NA,left,2058.90000009537,true,NA,NA,NA,NA,NA
jJJRx5A1,32k26u12eq14p7ktnmss8y5zd9bdv8,3g5f9dbfotano7np0kgko3gp7ktvhj,jJJRx5A1,2020-0188,2021-10-14,11:00:04,12:32:13,NA,incomplete,false,true,NA,6,28,NA,purple,n_s_010.jpg,NA,NA,unpleasant,pleasant,NA,NA,NA,NA,NA,right,1791.30000019073,true,NA,NA,NA,NA,NA
jJJRx5A1,32k26u12eq14p7ktnmss8y5zd9bdv8,3g5f9dbfotano7np0kgko3gp7ktvhj,jJJRx5A1,2020-0188,2021-10-14,11:00:04,12:32:13,NA,incomplete,false,true,NA,6,29,NA,purple,n_l_053.jpg,NA,NA,unpleasant,pleasant,NA,NA,NA,NA,NA,right,1899.80000019073,true,NA,NA,NA,NA,NA
jJJRx5A1,32k26u12eq14p7ktnmss8y5zd9bdv8,3g5f9dbfotano7np0kgko3gp7ktvhj,jJJRx5A1,2020-0188,2021-10-14,11:00:04,12:32:13,NA,incomplete,false,true,NA,6,30,NA,black,m_s_113.jpg,NA,NA,pleasant,unpleasant,NA,NA,NA,NA,NA,left,1984.10000038147,true,NA,NA,NA,NA,NA
jJJRx5A1,32k26u12eq14p7ktnmss8y5zd9bdv8,3g5f9dbfotano7np0kgko3gp7ktvhj,jJJRx5A1,2020-0188,2021-10-14,11:00:04,12:32:13,NA,incomplete,false,true,NA,6,31,NA,black,m_l_112.jpg,NA,NA,pleasant,unpleasant,NA,NA,NA,NA,NA,right,1876.30000019073,true,NA,NA,NA,NA,NA
jJJRx5A1,32k26u12eq14p7ktnmss8y5zd9bdv8,3g5f9dbfotano7np0kgko3gp7ktvhj,jJJRx5A1,2020-0188,2021-10-14,11:00:04,12:32:13,NA,incomplete,false,true,NA,6,32,NA,black,n_l_046.jpg,NA,NA,pleasant,unpleasant,NA,NA,NA,NA,NA,right,1953.5,true,NA,NA,NA,NA,NA
jJJRx5A1,32k26u12eq14p7ktnmss8y5zd9bdv8,3g5f9dbfotano7np0kgko3gp7ktvhj,jJJRx5A1,2020-0188,2021-10-14,11:00:04,12:32:13,NA,incomplete,false,true,NA,6,33,NA,black,m_l_013.jpg,NA,NA,unpleasant,pleasant,NA,NA,NA,NA,NA,right,2036.90000009537,true,NA,NA,NA,NA,NA
jJJRx5A1,32k26u12eq14p7ktnmss8y5zd9bdv8,3g5f9dbfotano7np0kgko3gp7ktvhj,jJJRx5A1,2020-0188,2021-10-14,11:00:04,12:32:13,NA,incomplete,false,true,NA,6,34,NA,black,m_s_087.jpg,NA,NA,unpleasant,pleasant,NA,NA,NA,NA,NA,left,1809.39999961853,true,NA,NA,NA,NA,NA
jJJRx5A1,32k26u12eq14p7ktnmss8y5zd9bdv8,3g5f9dbfotano7np0kgko3gp7ktvhj,jJJRx5A1,2020-0188,2021-10-14,11:00:04,12:32:13,NA,incomplete,false,true,NA,6,35,NA,black,m_s_088.jpg,NA,NA,pleasant,unpleasant,NA,NA,NA,NA,NA,right,1486.39999961853,true,NA,NA,NA,NA,NA
jJJRx5A1,32k26u12eq14p7ktnmss8y5zd9bdv8,3g5f9dbfotano7np0kgko3gp7ktvhj,jJJRx5A1,2020-0188,2021-10-14,11:00:04,12:32:13,NA,incomplete,false,NA,true,6,0,NA,NA,NA,left,absent,NA,NA,n_s_010.jpg,purple,n_l_046.jpg,black,between,NA,NaN,NA,left,3935.300000190735,1,2,1159.0999999046326
jJJRx5A1,32k26u12eq14p7ktnmss8y5zd9bdv8,3g5f9dbfotano7np0kgko3gp7ktvhj,jJJRx5A1,2020-0188,2021-10-14,11:00:04,12:32:13,NA,incomplete,false,NA,true,6,1,NA,NA,NA,right,absent,NA,NA,n_l_032.jpg,gray,m_s_015.jpg,orange,between,NA,NaN,NA,right,5215.5,1,1,1199.4000000953674
jJJRx5A1,32k26u12eq14p7ktnmss8y5zd9bdv8,3g5f9dbfotano7np0kgko3gp7ktvhj,jJJRx5A1,2020-0188,2021-10-14,11:00:04,12:32:13,NA,incomplete,false,NA,true,6,2,NA,NA,NA,right,absent,NA,NA,m_l_111.jpg,orange,m_l_007.jpg,orange,within,NA,NaN,NA,left,2895.5,0,2,1615.2000002861023
jJJRx5A1,32k26u12eq14p7ktnmss8y5zd9bdv8,3g5f9dbfotano7np0kgko3gp7ktvhj,jJJRx5A1,2020-0188,2021-10-14,11:00:04,12:32:13,NA,incomplete,false,NA,true,6,3,NA,NA,NA,left,absent,NA,NA,m_l_034.jpg,purple,n_l_053.jpg,purple,within,NA,NaN,NA,left,3767.199999809265,1,1,1335.2000002861023
jJJRx5A1,32k26u12eq14p7ktnmss8y5zd9bdv8,3g5f9dbfotano7np0kgko3gp7ktvhj,jJJRx5A1,2020-0188,2021-10-14,11:00:04,12:32:13,NA,incomplete,false,NA,true,6,4,NA,NA,NA,left,absent,NA,NA,m_l_112.jpg,black,m_s_088.jpg,black,within,NA,NaN,NA,left,5631.200000286102,1,0,1206.9000000953674
jJJRx5A1,32k26u12eq14p7ktnmss8y5zd9bdv8,3g5f9dbfotano7np0kgko3gp7ktvhj,jJJRx5A1,2020-0188,2021-10-14,11:00:04,12:32:13,NA,incomplete,false,NA,true,6,5,NA,NA,NA,right,absent,NA,NA,m_s_005.jpg,red,n_l_028.jpg,red,within,NA,NaN,NA,right,7711.60000038147,1,1,1871.6000003814697
jJJRx5A1,32k26u12eq14p7ktnmss8y5zd9bdv8,3g5f9dbfotano7np0kgko3gp7ktvhj,jJJRx5A1,2020-0188,2021-10-14,11:00:04,12:32:13,NA,incomplete,false,NA,true,6,6,NA,NA,NA,left,absent,NA,NA,n_s_042.jpg,gray,n_l_094.jpg,gray,within,NA,NaN,NA,left,2991.5,1,2,1583.5
jJJRx5A1,32k26u12eq14p7ktnmss8y5zd9bdv8,3g5f9dbfotano7np0kgko3gp7ktvhj,jJJRx5A1,2020-0188,2021-10-14,11:00:04,12:32:13,NA,incomplete,false,NA,true,6,7,NA,NA,NA,right,absent,NA,NA,n_s_050.jpg,purple,n_s_047.jpg,gray,between,NA,NaN,NA,right,3471.699999809265,1,1,1431.1999998092651
jJJRx5A1,32k26u12eq14p7ktnmss8y5zd9bdv8,3g5f9dbfotano7np0kgko3gp7ktvhj,jJJRx5A1,2020-0188,2021-10-14,11:00:04,12:32:13,NA,incomplete,false,NA,true,6,8,NA,NA,NA,left,absent,NA,NA,n_l_015.jpg,red,m_l_043.jpg,orange,between,NA,NaN,NA,left,3807.5999999046326,1,2,1183.5
jJJRx5A1,32k26u12eq14p7ktnmss8y5zd9bdv8,3g5f9dbfotano7np0kgko3gp7ktvhj,jJJRx5A1,2020-0188,2021-10-14,11:00:04,12:32:13,NA,incomplete,false,NA,true,6,9,NA,NA,NA,right,absent,NA,NA,m_l_035.jpg,red,n_l_105.jpg,white,between,NA,NaN,NA,right,2079.300000190735,1,1,1047
jJJRx5A1,32k26u12eq14p7ktnmss8y5zd9bdv8,3g5f9dbfotano7np0kgko3gp7ktvhj,jJJRx5A1,2020-0188,2021-10-14,11:00:04,12:32:13,NA,incomplete,false,NA,true,6,10,NA,NA,NA,right,absent,NA,NA,m_l_021.jpg,white,m_s_006.jpg,white,within,NA,NaN,NA,right,2895.5999999046326,1,1,1135.4000000953674
jJJRx5A1,32k26u12eq14p7ktnmss8y5zd9bdv8,3g5f9dbfotano7np0kgko3gp7ktvhj,jJJRx5A1,2020-0188,2021-10-14,11:00:04,12:32:13,NA,incomplete,false,true,NA,7,0,NA,orange,m_s_035.jpg,NA,NA,pleasant,unpleasant,NA,NA,NA,NA,NA,left,1484.89999961853,true,NA,NA,NA,NA,NA
jJJRx5A1,32k26u12eq14p7ktnmss8y5zd9bdv8,3g5f9dbfotano7np0kgko3gp7ktvhj,jJJRx5A1,2020-0188,2021-10-14,11:00:04,12:32:13,NA,incomplete,false,true,NA,7,1,NA,orange,m_l_072.jpg,NA,NA,unpleasant,pleasant,NA,NA,NA,NA,NA,right,1665,true,NA,NA,NA,NA,NA
jJJRx5A1,32k26u12eq14p7ktnmss8y5zd9bdv8,3g5f9dbfotano7np0kgko3gp7ktvhj,jJJRx5A1,2020-0188,2021-10-14,11:00:04,12:32:13,NA,incomplete,false,true,NA,7,2,NA,orange,n_s_089.jpg,NA,NA,unpleasant,pleasant,NA,NA,NA,NA,NA,right,1614.09999990463,true,NA,NA,NA,NA,NA
jJJRx5A1,32k26u12eq14p7ktnmss8y5zd9bdv8,3g5f9dbfotano7np0kgko3gp7ktvhj,jJJRx5A1,2020-0188,2021-10-14,11:00:04,12:32:13,NA,incomplete,false,true,NA,7,3,NA,orange,n_l_079.jpg,NA,NA,pleasant,unpleasant,NA,NA,NA,NA,NA,left,1474.59999990463,true,NA,NA,NA,NA,NA
jJJRx5A1,32k26u12eq14p7ktnmss8y5zd9bdv8,3g5f9dbfotano7np0kgko3gp7ktvhj,jJJRx5A1,2020-0188,2021-10-14,11:00:04,12:32:13,NA,incomplete,false,true,NA,7,4,NA,orange,m_s_066.jpg,NA,NA,unpleasant,pleasant,NA,NA,NA,NA,NA,right,1670.69999980927,true,NA,NA,NA,NA,NA
jJJRx5A1,32k26u12eq14p7ktnmss8y5zd9bdv8,3g5f9dbfotano7np0kgko3gp7ktvhj,jJJRx5A1,2020-0188,2021-10-14,11:00:04,12:32:13,NA,incomplete,false,true,NA,7,5,NA,orange,m_s_059.jpg,NA,NA,pleasant,unpleasant,NA,NA,NA,NA,NA,right,2059.19999980927,true,NA,NA,NA,NA,NA
jJJRx5A1,32k26u12eq14p7ktnmss8y5zd9bdv8,3g5f9dbfotano7np0kgko3gp7ktvhj,jJJRx5A1,2020-0188,2021-10-14,11:00:04,12:32:13,NA,incomplete,false,true,NA,7,6,NA,white,n_l_031.jpg,NA,NA,unpleasant,pleasant,NA,NA,NA,NA,NA,left,1207.80000019073,true,NA,NA,NA,NA,NA
jJJRx5A1,32k26u12eq14p7ktnmss8y5zd9bdv8,3g5f9dbfotano7np0kgko3gp7ktvhj,jJJRx5A1,2020-0188,2021-10-14,11:00:04,12:32:13,NA,incomplete,false,true,NA,7,7,NA,white,m_l_079.jpg,NA,NA,pleasant,unpleasant,NA,NA,NA,NA,NA,right,1203.60000038147,true,NA,NA,NA,NA,NA
jJJRx5A1,32k26u12eq14p7ktnmss8y5zd9bdv8,3g5f9dbfotano7np0kgko3gp7ktvhj,jJJRx5A1,2020-0188,2021-10-14,11:00:04,12:32:13,NA,incomplete,false,true,NA,7,8,NA,white,m_s_083.jpg,NA,NA,pleasant,unpleasant,NA,NA,NA,NA,NA,left,1800,true,NA,NA,NA,NA,NA
jJJRx5A1,32k26u12eq14p7ktnmss8y5zd9bdv8,3g5f9dbfotano7np0kgko3gp7ktvhj,jJJRx5A1,2020-0188,2021-10-14,11:00:04,12:32:13,NA,incomplete,false,true,NA,7,9,NA,white,n_l_009.jpg,NA,NA,pleasant,unpleasant,NA,NA,NA,NA,NA,right,1564.80000019073,true,NA,NA,NA,NA,NA
jJJRx5A1,32k26u12eq14p7ktnmss8y5zd9bdv8,3g5f9dbfotano7np0kgko3gp7ktvhj,jJJRx5A1,2020-0188,2021-10-14,11:00:04,12:32:13,NA,incomplete,false,true,NA,7,10,NA,white,n_s_051.jpg,NA,NA,pleasant,unpleasant,NA,NA,NA,NA,NA,left,1792,true,NA,NA,NA,NA,NA
jJJRx5A1,32k26u12eq14p7ktnmss8y5zd9bdv8,3g5f9dbfotano7np0kgko3gp7ktvhj,jJJRx5A1,2020-0188,2021-10-14,11:00:04,12:32:13,NA,incomplete,false,true,NA,7,11,NA,white,m_l_057.jpg,NA,NA,unpleasant,pleasant,NA,NA,NA,NA,NA,right,1654.80000019073,true,NA,NA,NA,NA,NA
jJJRx5A1,32k26u12eq14p7ktnmss8y5zd9bdv8,3g5f9dbfotano7np0kgko3gp7ktvhj,jJJRx5A1,2020-0188,2021-10-14,11:00:04,12:32:13,NA,incomplete,false,true,NA,7,12,NA,black,n_s_070.jpg,NA,NA,pleasant,unpleasant,NA,NA,NA,NA,NA,left,1258.2999997139,true,NA,NA,NA,NA,NA
jJJRx5A1,32k26u12eq14p7ktnmss8y5zd9bdv8,3g5f9dbfotano7np0kgko3gp7ktvhj,jJJRx5A1,2020-0188,2021-10-14,11:00:04,12:32:13,NA,incomplete,false,true,NA,7,13,NA,black,n_l_081.jpg,NA,NA,unpleasant,pleasant,NA,NA,NA,NA,NA,right,2079.2000002861,true,NA,NA,NA,NA,NA
jJJRx5A1,32k26u12eq14p7ktnmss8y5zd9bdv8,3g5f9dbfotano7np0kgko3gp7ktvhj,jJJRx5A1,2020-0188,2021-10-14,11:00:04,12:32:13,NA,incomplete,false,true,NA,7,14,NA,black,n_s_075.jpg,NA,NA,pleasant,unpleasant,NA,NA,NA,NA,NA,left,1172,true,NA,NA,NA,NA,NA
jJJRx5A1,32k26u12eq14p7ktnmss8y5zd9bdv8,3g5f9dbfotano7np0kgko3gp7ktvhj,jJJRx5A1,2020-0188,2021-10-14,11:00:04,12:32:13,NA,incomplete,false,true,NA,7,15,NA,black,m_s_092.jpg,NA,NA,pleasant,unpleasant,NA,NA,NA,NA,NA,right,1791.80000019073,true,NA,NA,NA,NA,NA
jJJRx5A1,32k26u12eq14p7ktnmss8y5zd9bdv8,3g5f9dbfotano7np0kgko3gp7ktvhj,jJJRx5A1,2020-0188,2021-10-14,11:00:04,12:32:13,NA,incomplete,false,true,NA,7,16,NA,black,n_s_104.jpg,NA,NA,pleasant,unpleasant,NA,NA,NA,NA,NA,right,1484.59999990463,true,NA,NA,NA,NA,NA
jJJRx5A1,32k26u12eq14p7ktnmss8y5zd9bdv8,3g5f9dbfotano7np0kgko3gp7ktvhj,jJJRx5A1,2020-0188,2021-10-14,11:00:04,12:32:13,NA,incomplete,false,true,NA,7,17,NA,black,n_s_031.jpg,NA,NA,pleasant,unpleasant,NA,NA,NA,NA,NA,left,1441,true,NA,NA,NA,NA,NA
jJJRx5A1,32k26u12eq14p7ktnmss8y5zd9bdv8,3g5f9dbfotano7np0kgko3gp7ktvhj,jJJRx5A1,2020-0188,2021-10-14,11:00:04,12:32:13,NA,incomplete,false,true,NA,7,18,NA,purple,n_s_012.jpg,NA,NA,unpleasant,pleasant,NA,NA,NA,NA,NA,left,1581,true,NA,NA,NA,NA,NA
jJJRx5A1,32k26u12eq14p7ktnmss8y5zd9bdv8,3g5f9dbfotano7np0kgko3gp7ktvhj,jJJRx5A1,2020-0188,2021-10-14,11:00:04,12:32:13,NA,incomplete,false,true,NA,7,19,NA,purple,n_s_116.jpg,NA,NA,unpleasant,pleasant,NA,NA,NA,NA,NA,right,1873.69999980927,true,NA,NA,NA,NA,NA
jJJRx5A1,32k26u12eq14p7ktnmss8y5zd9bdv8,3g5f9dbfotano7np0kgko3gp7ktvhj,jJJRx5A1,2020-0188,2021-10-14,11:00:04,12:32:13,NA,incomplete,false,true,NA,7,20,NA,purple,n_l_026.jpg,NA,NA,pleasant,unpleasant,NA,NA,NA,NA,NA,left,2046,true,NA,NA,NA,NA,NA
jJJRx5A1,32k26u12eq14p7ktnmss8y5zd9bdv8,3g5f9dbfotano7np0kgko3gp7ktvhj,jJJRx5A1,2020-0188,2021-10-14,11:00:04,12:32:13,NA,incomplete,false,true,NA,7,21,NA,purple,m_l_077.jpg,NA,NA,unpleasant,pleasant,NA,NA,NA,NA,NA,right,2114.2999997139,true,NA,NA,NA,NA,NA
jJJRx5A1,32k26u12eq14p7ktnmss8y5zd9bdv8,3g5f9dbfotano7np0kgko3gp7ktvhj,jJJRx5A1,2020-0188,2021-10-14,11:00:04,12:32:13,NA,incomplete,false,true,NA,7,22,NA,purple,n_l_013.jpg,NA,NA,pleasant,unpleasant,NA,NA,NA,NA,NA,right,1758,true,NA,NA,NA,NA,NA
jJJRx5A1,32k26u12eq14p7ktnmss8y5zd9bdv8,3g5f9dbfotano7np0kgko3gp7ktvhj,jJJRx5A1,2020-0188,2021-10-14,11:00:04,12:32:13,NA,incomplete,false,true,NA,7,23,NA,purple,n_l_111.jpg,NA,NA,pleasant,unpleasant,NA,NA,NA,NA,NA,left,2011,true,NA,NA,NA,NA,NA
jJJRx5A1,32k26u12eq14p7ktnmss8y5zd9bdv8,3g5f9dbfotano7np0kgko3gp7ktvhj,jJJRx5A1,2020-0188,2021-10-14,11:00:04,12:32:13,NA,incomplete,false,true,NA,7,24,NA,green,n_l_099.jpg,NA,NA,pleasant,unpleasant,NA,NA,NA,NA,NA,right,1912.40000009537,true,NA,NA,NA,NA,NA
jJJRx5A1,32k26u12eq14p7ktnmss8y5zd9bdv8,3g5f9dbfotano7np0kgko3gp7ktvhj,jJJRx5A1,2020-0188,2021-10-14,11:00:04,12:32:13,NA,incomplete,false,true,NA,7,25,NA,green,n_l_077.jpg,NA,NA,unpleasant,pleasant,NA,NA,NA,NA,NA,right,2100.90000009537,true,NA,NA,NA,NA,NA
jJJRx5A1,32k26u12eq14p7ktnmss8y5zd9bdv8,3g5f9dbfotano7np0kgko3gp7ktvhj,jJJRx5A1,2020-0188,2021-10-14,11:00:04,12:32:13,NA,incomplete,false,true,NA,7,26,NA,green,m_s_069.jpg,NA,NA,unpleasant,pleasant,NA,NA,NA,NA,NA,right,2753.19999980927,true,NA,NA,NA,NA,NA
jJJRx5A1,32k26u12eq14p7ktnmss8y5zd9bdv8,3g5f9dbfotano7np0kgko3gp7ktvhj,jJJRx5A1,2020-0188,2021-10-14,11:00:04,12:32:13,NA,incomplete,false,true,NA,7,27,NA,green,m_s_017.jpg,NA,NA,unpleasant,pleasant,NA,NA,NA,NA,NA,right,2340.90000009537,true,NA,NA,NA,NA,NA
jJJRx5A1,32k26u12eq14p7ktnmss8y5zd9bdv8,3g5f9dbfotano7np0kgko3gp7ktvhj,jJJRx5A1,2020-0188,2021-10-14,11:00:04,12:32:13,NA,incomplete,false,true,NA,7,28,NA,green,n_l_035.jpg,NA,NA,pleasant,unpleasant,NA,NA,NA,NA,NA,left,2057.40000009537,true,NA,NA,NA,NA,NA
jJJRx5A1,32k26u12eq14p7ktnmss8y5zd9bdv8,3g5f9dbfotano7np0kgko3gp7ktvhj,jJJRx5A1,2020-0188,2021-10-14,11:00:04,12:32:13,NA,incomplete,false,true,NA,7,29,NA,green,m_l_103.jpg,NA,NA,unpleasant,pleasant,NA,NA,NA,NA,NA,right,2397.5,true,NA,NA,NA,NA,NA
jJJRx5A1,32k26u12eq14p7ktnmss8y5zd9bdv8,3g5f9dbfotano7np0kgko3gp7ktvhj,jJJRx5A1,2020-0188,2021-10-14,11:00:04,12:32:13,NA,incomplete,false,true,NA,7,30,NA,gray,m_s_024.jpg,NA,NA,pleasant,unpleasant,NA,NA,NA,NA,NA,left,994,true,NA,NA,NA,NA,NA
jJJRx5A1,32k26u12eq14p7ktnmss8y5zd9bdv8,3g5f9dbfotano7np0kgko3gp7ktvhj,jJJRx5A1,2020-0188,2021-10-14,11:00:04,12:32:13,NA,incomplete,false,true,NA,7,31,NA,gray,m_l_108.jpg,NA,NA,pleasant,unpleasant,NA,NA,NA,NA,NA,left,2206.7000002861,true,NA,NA,NA,NA,NA
jJJRx5A1,32k26u12eq14p7ktnmss8y5zd9bdv8,3g5f9dbfotano7np0kgko3gp7ktvhj,jJJRx5A1,2020-0188,2021-10-14,11:00:04,12:32:13,NA,incomplete,false,true,NA,7,32,NA,gray,n_s_046.jpg,NA,NA,unpleasant,pleasant,NA,NA,NA,NA,NA,right,1451.30000019073,true,NA,NA,NA,NA,NA
jJJRx5A1,32k26u12eq14p7ktnmss8y5zd9bdv8,3g5f9dbfotano7np0kgko3gp7ktvhj,jJJRx5A1,2020-0188,2021-10-14,11:00:04,12:32:13,NA,incomplete,false,true,NA,7,33,NA,gray,n_s_087.jpg,NA,NA,pleasant,unpleasant,NA,NA,NA,NA,NA,right,1799,true,NA,NA,NA,NA,NA
jJJRx5A1,32k26u12eq14p7ktnmss8y5zd9bdv8,3g5f9dbfotano7np0kgko3gp7ktvhj,jJJRx5A1,2020-0188,2021-10-14,11:00:04,12:32:13,NA,incomplete,false,true,NA,7,34,NA,gray,n_s_053.jpg,NA,NA,unpleasant,pleasant,NA,NA,NA,NA,NA,right,2259.7999997139,true,NA,NA,NA,NA,NA
jJJRx5A1,32k26u12eq14p7ktnmss8y5zd9bdv8,3g5f9dbfotano7np0kgko3gp7ktvhj,jJJRx5A1,2020-0188,2021-10-14,11:00:04,12:32:13,NA,incomplete,false,true,NA,7,35,NA,gray,n_s_033.jpg,NA,NA,pleasant,unpleasant,NA,NA,NA,NA,NA,right,1697.09999990463,true,NA,NA,NA,NA,NA
jJJRx5A1,32k26u12eq14p7ktnmss8y5zd9bdv8,3g5f9dbfotano7np0kgko3gp7ktvhj,jJJRx5A1,2020-0188,2021-10-14,11:00:04,12:32:13,NA,incomplete,false,NA,true,7,0,NA,NA,NA,left,present,NA,NA,n_l_013.jpg,purple,m_s_069.jpg,green,between,NA,NaN,NA,left,4542.5,1,2,1534.5
jJJRx5A1,32k26u12eq14p7ktnmss8y5zd9bdv8,3g5f9dbfotano7np0kgko3gp7ktvhj,jJJRx5A1,2020-0188,2021-10-14,11:00:04,12:32:13,NA,incomplete,false,NA,true,7,1,NA,NA,NA,right,present,NA,NA,n_s_033.jpg,gray,m_l_108.jpg,gray,within,NA,NaN,NA,right,3238.4000000953674,1,0,1310.5999999046326
jJJRx5A1,32k26u12eq14p7ktnmss8y5zd9bdv8,3g5f9dbfotano7np0kgko3gp7ktvhj,jJJRx5A1,2020-0188,2021-10-14,11:00:04,12:32:13,NA,incomplete,false,NA,true,7,2,NA,NA,NA,right,present,NA,NA,n_s_075.jpg,black,n_s_051.jpg,white,between,NA,NaN,NA,right,8278.800000190735,1,1,1415.2000002861023
jJJRx5A1,32k26u12eq14p7ktnmss8y5zd9bdv8,3g5f9dbfotano7np0kgko3gp7ktvhj,jJJRx5A1,2020-0188,2021-10-14,11:00:04,12:32:13,NA,incomplete,false,NA,true,7,3,NA,NA,NA,left,present,NA,NA,m_l_079.jpg,white,m_l_057.jpg,white,within,NA,NaN,NA,left,2631.5,1,1,2007.6999998092651
jJJRx5A1,32k26u12eq14p7ktnmss8y5zd9bdv8,3g5f9dbfotano7np0kgko3gp7ktvhj,jJJRx5A1,2020-0188,2021-10-14,11:00:04,12:32:13,NA,incomplete,false,NA,true,7,4,NA,NA,NA,left,present,NA,NA,n_s_116.jpg,purple,n_l_111.jpg,purple,within,NA,NaN,NA,right,3471.2999997138977,0,1,1687.2999997138977
jJJRx5A1,32k26u12eq14p7ktnmss8y5zd9bdv8,3g5f9dbfotano7np0kgko3gp7ktvhj,jJJRx5A1,2020-0188,2021-10-14,11:00:04,12:32:13,NA,incomplete,false,NA,true,7,5,NA,NA,NA,left,present,NA,NA,n_l_081.jpg,black,n_s_031.jpg,black,within,NA,NaN,NA,right,3199.300000190735,0,2,1711.5
jJJRx5A1,32k26u12eq14p7ktnmss8y5zd9bdv8,3g5f9dbfotano7np0kgko3gp7ktvhj,jJJRx5A1,2020-0188,2021-10-14,11:00:04,12:32:13,NA,incomplete,false,NA,true,7,6,NA,NA,NA,left,present,NA,NA,n_l_035.jpg,green,n_s_046.jpg,gray,between,NA,NaN,NA,left,3215.5999999046326,1,3,814.9000000953674
jJJRx5A1,32k26u12eq14p7ktnmss8y5zd9bdv8,3g5f9dbfotano7np0kgko3gp7ktvhj,jJJRx5A1,2020-0188,2021-10-14,11:00:04,12:32:13,NA,incomplete,false,NA,true,7,7,NA,NA,NA,right,present,NA,NA,m_s_083.jpg,white,m_s_066.jpg,orange,between,NA,NaN,NA,right,5303,1,1,983.3000001907349
jJJRx5A1,32k26u12eq14p7ktnmss8y5zd9bdv8,3g5f9dbfotano7np0kgko3gp7ktvhj,jJJRx5A1,2020-0188,2021-10-14,11:00:04,12:32:13,NA,incomplete,false,NA,true,7,8,NA,NA,NA,right,present,NA,NA,m_s_059.jpg,orange,m_l_072.jpg,orange,within,NA,NaN,NA,right,6135.5,1,1,1023.5
jJJRx5A1,32k26u12eq14p7ktnmss8y5zd9bdv8,3g5f9dbfotano7np0kgko3gp7ktvhj,jJJRx5A1,2020-0188,2021-10-14,11:00:04,12:32:13,NA,incomplete,false,NA,true,7,9,NA,NA,NA,left,present,NA,NA,n_l_077.jpg,green,m_l_103.jpg,green,within,NA,NaN,NA,left,3047.300000190735,1,2,1415.0999999046326
jJJRx5A1,32k26u12eq14p7ktnmss8y5zd9bdv8,3g5f9dbfotano7np0kgko3gp7ktvhj,jJJRx5A1,2020-0188,2021-10-14,11:00:04,12:32:13,NA,incomplete,false,NA,true,7,10,NA,NA,NA,right,present,NA,NA,n_l_026.jpg,purple,n_s_104.jpg,black,between,NA,NaN,NA,right,4927.699999809265,1,1,1103.0999999046326
jJJRx5A1,32k26u12eq14p7ktnmss8y5zd9bdv8,3g5f9dbfotano7np0kgko3gp7ktvhj,jJJRx5A1,2020-0188,2021-10-14,11:00:04,12:32:13,NA,incomplete,false,true,NA,8,0,NA,gray,n_s_106.jpg,NA,NA,pleasant,unpleasant,NA,NA,NA,NA,NA,right,1639.19999980927,true,NA,NA,NA,NA,NA
jJJRx5A1,32k26u12eq14p7ktnmss8y5zd9bdv8,3g5f9dbfotano7np0kgko3gp7ktvhj,jJJRx5A1,2020-0188,2021-10-14,11:00:04,12:32:13,NA,incomplete,false,true,NA,8,1,NA,gray,m_l_038.jpg,NA,NA,unpleasant,pleasant,NA,NA,NA,NA,NA,left,1586.90000009537,true,NA,NA,NA,NA,NA
jJJRx5A1,32k26u12eq14p7ktnmss8y5zd9bdv8,3g5f9dbfotano7np0kgko3gp7ktvhj,jJJRx5A1,2020-0188,2021-10-14,11:00:04,12:32:13,NA,incomplete,false,true,NA,8,2,NA,gray,n_s_084.jpg,NA,NA,pleasant,unpleasant,NA,NA,NA,NA,NA,left,2047.09999990463,true,NA,NA,NA,NA,NA
jJJRx5A1,32k26u12eq14p7ktnmss8y5zd9bdv8,3g5f9dbfotano7np0kgko3gp7ktvhj,jJJRx5A1,2020-0188,2021-10-14,11:00:04,12:32:13,NA,incomplete,false,true,NA,8,3,NA,gray,n_l_012.jpg,NA,NA,pleasant,unpleasant,NA,NA,NA,NA,NA,right,2331.2000002861,true,NA,NA,NA,NA,NA
jJJRx5A1,32k26u12eq14p7ktnmss8y5zd9bdv8,3g5f9dbfotano7np0kgko3gp7ktvhj,jJJRx5A1,2020-0188,2021-10-14,11:00:04,12:32:13,NA,incomplete,false,true,NA,8,4,NA,gray,m_s_068.jpg,NA,NA,unpleasant,pleasant,NA,NA,NA,NA,NA,left,1832.5,true,NA,NA,NA,NA,NA
jJJRx5A1,32k26u12eq14p7ktnmss8y5zd9bdv8,3g5f9dbfotano7np0kgko3gp7ktvhj,jJJRx5A1,2020-0188,2021-10-14,11:00:04,12:32:13,NA,incomplete,false,true,NA,8,5,NA,gray,n_s_011.jpg,NA,NA,pleasant,unpleasant,NA,NA,NA,NA,NA,right,1413.40000009537,true,NA,NA,NA,NA,NA
jJJRx5A1,32k26u12eq14p7ktnmss8y5zd9bdv8,3g5f9dbfotano7np0kgko3gp7ktvhj,jJJRx5A1,2020-0188,2021-10-14,11:00:04,12:32:13,NA,incomplete,false,true,NA,8,6,NA,brown,n_l_039.jpg,NA,NA,pleasant,unpleasant,NA,NA,NA,NA,NA,left,1514.5,true,NA,NA,NA,NA,NA
jJJRx5A1,32k26u12eq14p7ktnmss8y5zd9bdv8,3g5f9dbfotano7np0kgko3gp7ktvhj,jJJRx5A1,2020-0188,2021-10-14,11:00:04,12:32:13,NA,incomplete,false,true,NA,8,7,NA,brown,m_s_051.jpg,NA,NA,unpleasant,pleasant,NA,NA,NA,NA,NA,right,1687.2999997139,true,NA,NA,NA,NA,NA
jJJRx5A1,32k26u12eq14p7ktnmss8y5zd9bdv8,3g5f9dbfotano7np0kgko3gp7ktvhj,jJJRx5A1,2020-0188,2021-10-14,11:00:04,12:32:13,NA,incomplete,false,true,NA,8,8,NA,brown,n_s_039.jpg,NA,NA,pleasant,unpleasant,NA,NA,NA,NA,NA,left,1315.19999980927,true,NA,NA,NA,NA,NA
jJJRx5A1,32k26u12eq14p7ktnmss8y5zd9bdv8,3g5f9dbfotano7np0kgko3gp7ktvhj,jJJRx5A1,2020-0188,2021-10-14,11:00:04,12:32:13,NA,incomplete,false,true,NA,8,9,NA,brown,m_s_048.jpg,NA,NA,unpleasant,pleasant,NA,NA,NA,NA,NA,right,1616.09999990463,true,NA,NA,NA,NA,NA
