workerId,hitId,assignmentId,subject,studyid,exp_date,exp_start,exp_end,time_start,time_end,practice,encoding,memory,block,trial,event_order,event,stim,answer,context_type,label_left,label_right,left_image,left_event,right_image,right_event,condition,response,response_time,response_acc,order_response,order_response_time,order_acc,distance_response,distance_response_time
JN7UKaF3,32k26u12eq14p7ktnmss8y5zd9bdv8,3of2m9aatk1vzht7728km19dnbozka,JN7UKaF3,2020-0188,2021-10-14,10:14:02,11:28:27,NA,incomplete,true,true,NA,0,0,NA,red,n_s_036.jpg,NA,NA,unpleasant,pleasant,NA,NA,NA,NA,NA,left,1571.20000000019,true,NA,NA,NA,NA,NA
JN7UKaF3,32k26u12eq14p7ktnmss8y5zd9bdv8,3of2m9aatk1vzht7728km19dnbozka,JN7UKaF3,2020-0188,2021-10-14,10:14:02,11:28:27,NA,incomplete,true,true,NA,0,1,NA,red,m_s_109.jpg,NA,NA,unpleasant,pleasant,NA,NA,NA,NA,NA,right,2544.09999999963,true,NA,NA,NA,NA,NA
JN7UKaF3,32k26u12eq14p7ktnmss8y5zd9bdv8,3of2m9aatk1vzht7728km19dnbozka,JN7UKaF3,2020-0188,2021-10-14,10:14:02,11:28:27,NA,incomplete,true,true,NA,0,2,NA,red,m_l_050.jpg,NA,NA,pleasant,unpleasant,NA,NA,NA,NA,NA,left,3269.39999999944,true,NA,NA,NA,NA,NA
JN7UKaF3,32k26u12eq14p7ktnmss8y5zd9bdv8,3of2m9aatk1vzht7728km19dnbozka,JN7UKaF3,2020-0188,2021-10-14,10:14:02,11:28:27,NA,incomplete,true,true,NA,0,3,NA,red,m_l_042.jpg,NA,NA,pleasant,unpleasant,NA,NA,NA,NA,NA,right,1304.5,true,NA,NA,NA,NA,NA
JN7UKaF3,32k26u12eq14p7ktnmss8y5zd9bdv8,3of2m9aatk1vzht7728km19dnbozka,JN7UKaF3,2020-0188,2021-10-14,10:14:02,11:28:27,NA,incomplete,true,true,NA,0,4,NA,red,m_s_041.jpg,NA,NA,unpleasant,pleasant,NA,NA,NA,NA,NA,none,0,false,NA,NA,NA,NA,NA
JN7UKaF3,32k26u12eq14p7ktnmss8y5zd9bdv8,3of2m9aatk1vzht7728km19dnbozka,JN7UKaF3,2020-0188,2021-10-14,10:14:02,11:28:27,NA,incomplete,true,true,NA,0,5,NA,red,n_s_007.jpg,NA,NA,pleasant,unpleasant,NA,NA,NA,NA,NA,right,1634.09999999963,true,NA,NA,NA,NA,NA
JN7UKaF3,32k26u12eq14p7ktnmss8y5zd9bdv8,3of2m9aatk1vzht7728km19dnbozka,JN7UKaF3,2020-0188,2021-10-14,10:14:02,11:28:27,NA,incomplete,true,true,NA,0,6,NA,green,m_l_027.jpg,NA,NA,pleasant,unpleasant,NA,NA,NA,NA,NA,left,2726.80000000075,true,NA,NA,NA,NA,NA
JN7UKaF3,32k26u12eq14p7ktnmss8y5zd9bdv8,3of2m9aatk1vzht7728km19dnbozka,JN7UKaF3,2020-0188,2021-10-14,10:14:02,11:28:27,NA,incomplete,true,true,NA,0,7,NA,green,n_s_083.jpg,NA,NA,pleasant,unpleasant,NA,NA,NA,NA,NA,right,965.400000000373,true,NA,NA,NA,NA,NA
JN7UKaF3,32k26u12eq14p7ktnmss8y5zd9bdv8,3of2m9aatk1vzht7728km19dnbozka,JN7UKaF3,2020-0188,2021-10-14,10:14:02,11:28:27,NA,incomplete,true,true,NA,0,8,NA,green,n_l_008.jpg,NA,NA,pleasant,unpleasant,NA,NA,NA,NA,NA,left,2016.5,true,NA,NA,NA,NA,NA
JN7UKaF3,32k26u12eq14p7ktnmss8y5zd9bdv8,3of2m9aatk1vzht7728km19dnbozka,JN7UKaF3,2020-0188,2021-10-14,10:14:02,11:28:27,NA,incomplete,true,true,NA,0,9,NA,green,n_s_076.jpg,NA,NA,unpleasant,pleasant,NA,NA,NA,NA,NA,left,2014.79999999981,true,NA,NA,NA,NA,NA
JN7UKaF3,32k26u12eq14p7ktnmss8y5zd9bdv8,3of2m9aatk1vzht7728km19dnbozka,JN7UKaF3,2020-0188,2021-10-14,10:14:02,11:28:27,NA,incomplete,true,true,NA,0,10,NA,green,m_l_019.jpg,NA,NA,unpleasant,pleasant,NA,NA,NA,NA,NA,left,1866.79999999981,true,NA,NA,NA,NA,NA
JN7UKaF3,32k26u12eq14p7ktnmss8y5zd9bdv8,3of2m9aatk1vzht7728km19dnbozka,JN7UKaF3,2020-0188,2021-10-14,10:14:02,11:28:27,NA,incomplete,true,true,NA,0,11,NA,green,n_l_012.jpg,NA,NA,pleasant,unpleasant,NA,NA,NA,NA,NA,left,2143.5,true,NA,NA,NA,NA,NA
JN7UKaF3,32k26u12eq14p7ktnmss8y5zd9bdv8,3of2m9aatk1vzht7728km19dnbozka,JN7UKaF3,2020-0188,2021-10-14,10:14:02,11:28:27,NA,incomplete,true,true,NA,0,12,NA,black,m_s_035.jpg,NA,NA,pleasant,unpleasant,NA,NA,NA,NA,NA,left,1509.5,true,NA,NA,NA,NA,NA
JN7UKaF3,32k26u12eq14p7ktnmss8y5zd9bdv8,3of2m9aatk1vzht7728km19dnbozka,JN7UKaF3,2020-0188,2021-10-14,10:14:02,11:28:27,NA,incomplete,true,true,NA,0,13,NA,black,n_l_071.jpg,NA,NA,pleasant,unpleasant,NA,NA,NA,NA,NA,left,1561.30000000075,true,NA,NA,NA,NA,NA
JN7UKaF3,32k26u12eq14p7ktnmss8y5zd9bdv8,3of2m9aatk1vzht7728km19dnbozka,JN7UKaF3,2020-0188,2021-10-14,10:14:02,11:28:27,NA,incomplete,true,true,NA,0,14,NA,black,m_s_003.jpg,NA,NA,unpleasant,pleasant,NA,NA,NA,NA,NA,left,2941.60000000056,true,NA,NA,NA,NA,NA
JN7UKaF3,32k26u12eq14p7ktnmss8y5zd9bdv8,3of2m9aatk1vzht7728km19dnbozka,JN7UKaF3,2020-0188,2021-10-14,10:14:02,11:28:27,NA,incomplete,true,true,NA,0,15,NA,black,n_s_053.jpg,NA,NA,unpleasant,pleasant,NA,NA,NA,NA,NA,left,1146.29999999981,true,NA,NA,NA,NA,NA
JN7UKaF3,32k26u12eq14p7ktnmss8y5zd9bdv8,3of2m9aatk1vzht7728km19dnbozka,JN7UKaF3,2020-0188,2021-10-14,10:14:02,11:28:27,NA,incomplete,true,true,NA,0,16,NA,black,n_l_075.jpg,NA,NA,pleasant,unpleasant,NA,NA,NA,NA,NA,right,2400.39999999944,true,NA,NA,NA,NA,NA
JN7UKaF3,32k26u12eq14p7ktnmss8y5zd9bdv8,3of2m9aatk1vzht7728km19dnbozka,JN7UKaF3,2020-0188,2021-10-14,10:14:02,11:28:27,NA,incomplete,true,true,NA,0,17,NA,black,m_s_114.jpg,NA,NA,unpleasant,pleasant,NA,NA,NA,NA,NA,right,1717.79999999981,true,NA,NA,NA,NA,NA
JN7UKaF3,32k26u12eq14p7ktnmss8y5zd9bdv8,3of2m9aatk1vzht7728km19dnbozka,JN7UKaF3,2020-0188,2021-10-14,10:14:02,11:28:27,NA,incomplete,true,true,NA,0,18,NA,orange,n_s_098.jpg,NA,NA,unpleasant,pleasant,NA,NA,NA,NA,NA,left,1384.40000000037,true,NA,NA,NA,NA,NA
JN7UKaF3,32k26u12eq14p7ktnmss8y5zd9bdv8,3of2m9aatk1vzht7728km19dnbozka,JN7UKaF3,2020-0188,2021-10-14,10:14:02,11:28:27,NA,incomplete,true,true,NA,0,19,NA,orange,m_l_007.jpg,NA,NA,pleasant,unpleasant,NA,NA,NA,NA,NA,right,2197.80000000075,true,NA,NA,NA,NA,NA
JN7UKaF3,32k26u12eq14p7ktnmss8y5zd9bdv8,3of2m9aatk1vzht7728km19dnbozka,JN7UKaF3,2020-0188,2021-10-14,10:14:02,11:28:27,NA,incomplete,true,true,NA,0,20,NA,orange,m_s_089.jpg,NA,NA,unpleasant,pleasant,NA,NA,NA,NA,NA,left,2028,true,NA,NA,NA,NA,NA
JN7UKaF3,32k26u12eq14p7ktnmss8y5zd9bdv8,3of2m9aatk1vzht7728km19dnbozka,JN7UKaF3,2020-0188,2021-10-14,10:14:02,11:28:27,NA,incomplete,true,true,NA,0,21,NA,orange,n_l_052.jpg,NA,NA,unpleasant,pleasant,NA,NA,NA,NA,NA,left,3279.20000000019,true,NA,NA,NA,NA,NA
JN7UKaF3,32k26u12eq14p7ktnmss8y5zd9bdv8,3of2m9aatk1vzht7728km19dnbozka,JN7UKaF3,2020-0188,2021-10-14,10:14:02,11:28:27,NA,incomplete,true,true,NA,0,22,NA,orange,n_l_115.jpg,NA,NA,pleasant,unpleasant,NA,NA,NA,NA,NA,left,3235.90000000037,true,NA,NA,NA,NA,NA
JN7UKaF3,32k26u12eq14p7ktnmss8y5zd9bdv8,3of2m9aatk1vzht7728km19dnbozka,JN7UKaF3,2020-0188,2021-10-14,10:14:02,11:28:27,NA,incomplete,true,true,NA,0,23,NA,orange,n_l_002.jpg,NA,NA,unpleasant,pleasant,NA,NA,NA,NA,NA,left,904.799999999814,true,NA,NA,NA,NA,NA
JN7UKaF3,32k26u12eq14p7ktnmss8y5zd9bdv8,3of2m9aatk1vzht7728km19dnbozka,JN7UKaF3,2020-0188,2021-10-14,10:14:02,11:28:27,NA,incomplete,true,true,NA,0,24,NA,white,n_l_095.jpg,NA,NA,unpleasant,pleasant,NA,NA,NA,NA,NA,right,1469,true,NA,NA,NA,NA,NA
JN7UKaF3,32k26u12eq14p7ktnmss8y5zd9bdv8,3of2m9aatk1vzht7728km19dnbozka,JN7UKaF3,2020-0188,2021-10-14,10:14:02,11:28:27,NA,incomplete,true,true,NA,0,25,NA,white,m_s_055.jpg,NA,NA,pleasant,unpleasant,NA,NA,NA,NA,NA,right,1642.69999999925,true,NA,NA,NA,NA,NA
JN7UKaF3,32k26u12eq14p7ktnmss8y5zd9bdv8,3of2m9aatk1vzht7728km19dnbozka,JN7UKaF3,2020-0188,2021-10-14,10:14:02,11:28:27,NA,incomplete,true,true,NA,0,26,NA,white,n_s_034.jpg,NA,NA,unpleasant,pleasant,NA,NA,NA,NA,NA,right,1254.20000000019,true,NA,NA,NA,NA,NA
JN7UKaF3,32k26u12eq14p7ktnmss8y5zd9bdv8,3of2m9aatk1vzht7728km19dnbozka,JN7UKaF3,2020-0188,2021-10-14,10:14:02,11:28:27,NA,incomplete,true,true,NA,0,27,NA,white,n_l_036.jpg,NA,NA,pleasant,unpleasant,NA,NA,NA,NA,NA,left,2363.10000000056,true,NA,NA,NA,NA,NA
JN7UKaF3,32k26u12eq14p7ktnmss8y5zd9bdv8,3of2m9aatk1vzht7728km19dnbozka,JN7UKaF3,2020-0188,2021-10-14,10:14:02,11:28:27,NA,incomplete,true,true,NA,0,28,NA,white,m_l_034.jpg,NA,NA,pleasant,unpleasant,NA,NA,NA,NA,NA,left,1487.79999999981,true,NA,NA,NA,NA,NA
JN7UKaF3,32k26u12eq14p7ktnmss8y5zd9bdv8,3of2m9aatk1vzht7728km19dnbozka,JN7UKaF3,2020-0188,2021-10-14,10:14:02,11:28:27,NA,incomplete,true,true,NA,0,29,NA,white,m_l_108.jpg,NA,NA,unpleasant,pleasant,NA,NA,NA,NA,NA,left,2267.40000000037,true,NA,NA,NA,NA,NA
JN7UKaF3,32k26u12eq14p7ktnmss8y5zd9bdv8,3of2m9aatk1vzht7728km19dnbozka,JN7UKaF3,2020-0188,2021-10-14,10:14:02,11:28:27,NA,incomplete,true,true,NA,0,30,NA,brown,m_l_116.jpg,NA,NA,pleasant,unpleasant,NA,NA,NA,NA,NA,right,2000.20000000019,true,NA,NA,NA,NA,NA
JN7UKaF3,32k26u12eq14p7ktnmss8y5zd9bdv8,3of2m9aatk1vzht7728km19dnbozka,JN7UKaF3,2020-0188,2021-10-14,10:14:02,11:28:27,NA,incomplete,true,true,NA,0,31,NA,brown,n_l_088.jpg,NA,NA,pleasant,unpleasant,NA,NA,NA,NA,NA,right,1349.39999999944,true,NA,NA,NA,NA,NA
JN7UKaF3,32k26u12eq14p7ktnmss8y5zd9bdv8,3of2m9aatk1vzht7728km19dnbozka,JN7UKaF3,2020-0188,2021-10-14,10:14:02,11:28:27,NA,incomplete,true,true,NA,0,32,NA,brown,m_l_064.jpg,NA,NA,pleasant,unpleasant,NA,NA,NA,NA,NA,left,1561.70000000019,true,NA,NA,NA,NA,NA
JN7UKaF3,32k26u12eq14p7ktnmss8y5zd9bdv8,3of2m9aatk1vzht7728km19dnbozka,JN7UKaF3,2020-0188,2021-10-14,10:14:02,11:28:27,NA,incomplete,true,true,NA,0,33,NA,brown,n_s_080.jpg,NA,NA,pleasant,unpleasant,NA,NA,NA,NA,NA,right,1215.39999999944,true,NA,NA,NA,NA,NA
JN7UKaF3,32k26u12eq14p7ktnmss8y5zd9bdv8,3of2m9aatk1vzht7728km19dnbozka,JN7UKaF3,2020-0188,2021-10-14,10:14:02,11:28:27,NA,incomplete,true,true,NA,0,34,NA,brown,n_s_093.jpg,NA,NA,unpleasant,pleasant,NA,NA,NA,NA,NA,right,821.5,true,NA,NA,NA,NA,NA
JN7UKaF3,32k26u12eq14p7ktnmss8y5zd9bdv8,3of2m9aatk1vzht7728km19dnbozka,JN7UKaF3,2020-0188,2021-10-14,10:14:02,11:28:27,NA,incomplete,true,true,NA,0,35,NA,brown,n_s_039.jpg,NA,NA,pleasant,unpleasant,NA,NA,NA,NA,NA,left,1207.5,true,NA,NA,NA,NA,NA
JN7UKaF3,32k26u12eq14p7ktnmss8y5zd9bdv8,3of2m9aatk1vzht7728km19dnbozka,JN7UKaF3,2020-0188,2021-10-14,10:14:02,11:28:27,NA,incomplete,true,NA,true,0,0,NA,NA,NA,left,present,NA,NA,m_s_055.jpg,white,m_l_108.jpg,white,within,NA,NaN,NA,left,5918.600000000559,1,1,3919
JN7UKaF3,32k26u12eq14p7ktnmss8y5zd9bdv8,3of2m9aatk1vzht7728km19dnbozka,JN7UKaF3,2020-0188,2021-10-14,10:14:02,11:28:27,NA,incomplete,true,NA,true,0,1,NA,NA,NA,right,absent,NA,NA,n_l_012.jpg,green,n_s_083.jpg,green,within,NA,NaN,NA,right,2743.0999999996275,1,2,3830.899999999441
JN7UKaF3,32k26u12eq14p7ktnmss8y5zd9bdv8,3of2m9aatk1vzht7728km19dnbozka,JN7UKaF3,2020-0188,2021-10-14,10:14:02,11:28:27,NA,incomplete,true,NA,true,0,2,NA,NA,NA,right,present,NA,NA,m_s_003.jpg,black,m_l_019.jpg,green,between,NA,NaN,NA,right,2910.7999999998137,1,1,2384.600000000559
JN7UKaF3,32k26u12eq14p7ktnmss8y5zd9bdv8,3of2m9aatk1vzht7728km19dnbozka,JN7UKaF3,2020-0188,2021-10-14,10:14:02,11:28:27,NA,incomplete,true,NA,true,0,3,NA,NA,NA,left,absent,NA,NA,m_s_041.jpg,red,n_l_008.jpg,green,between,NA,NaN,NA,right,3807,0,1,1310.7999999998137
JN7UKaF3,32k26u12eq14p7ktnmss8y5zd9bdv8,3of2m9aatk1vzht7728km19dnbozka,JN7UKaF3,2020-0188,2021-10-14,10:14:02,11:28:27,NA,incomplete,true,NA,true,0,4,NA,NA,NA,left,absent,NA,NA,n_l_071.jpg,black,m_s_114.jpg,black,within,NA,NaN,NA,left,6903.5,1,1,1135.5999999996275
JN7UKaF3,32k26u12eq14p7ktnmss8y5zd9bdv8,3of2m9aatk1vzht7728km19dnbozka,JN7UKaF3,2020-0188,2021-10-14,10:14:02,11:28:27,NA,incomplete,true,NA,true,0,5,NA,NA,NA,left,absent,NA,NA,m_l_034.jpg,white,m_l_064.jpg,brown,between,NA,NaN,NA,right,7807.4000000003725,0,1,1655.7000000001863
JN7UKaF3,32k26u12eq14p7ktnmss8y5zd9bdv8,3of2m9aatk1vzht7728km19dnbozka,JN7UKaF3,2020-0188,2021-10-14,10:14:02,11:28:27,NA,incomplete,true,NA,true,0,6,NA,NA,NA,right,present,NA,NA,n_l_002.jpg,orange,m_l_007.jpg,orange,within,NA,NaN,NA,right,4495.5,1,1,1830.8999999994412
JN7UKaF3,32k26u12eq14p7ktnmss8y5zd9bdv8,3of2m9aatk1vzht7728km19dnbozka,JN7UKaF3,2020-0188,2021-10-14,10:14:02,11:28:27,NA,incomplete,true,NA,true,0,7,NA,NA,NA,right,absent,NA,NA,n_s_039.jpg,brown,n_l_088.jpg,brown,within,NA,NaN,NA,right,3607.2000000001863,1,1,1015.4000000003725
JN7UKaF3,32k26u12eq14p7ktnmss8y5zd9bdv8,3of2m9aatk1vzht7728km19dnbozka,JN7UKaF3,2020-0188,2021-10-14,10:14:02,11:28:27,NA,incomplete,true,NA,true,0,8,NA,NA,NA,right,present,NA,NA,n_s_034.jpg,white,n_l_115.jpg,orange,between,NA,NaN,NA,right,4791.5999999996275,1,0,1807.3999999994412
JN7UKaF3,32k26u12eq14p7ktnmss8y5zd9bdv8,3of2m9aatk1vzht7728km19dnbozka,JN7UKaF3,2020-0188,2021-10-14,10:14:02,11:28:27,NA,incomplete,true,NA,true,0,9,NA,NA,NA,right,absent,NA,NA,n_s_007.jpg,red,m_s_109.jpg,red,within,NA,NaN,NA,right,3311.399999999441,1,3,1447.4000000003725
JN7UKaF3,32k26u12eq14p7ktnmss8y5zd9bdv8,3of2m9aatk1vzht7728km19dnbozka,JN7UKaF3,2020-0188,2021-10-14,10:14:02,11:28:27,NA,incomplete,true,NA,true,0,10,NA,NA,NA,left,absent,NA,NA,n_l_075.jpg,black,m_s_089.jpg,orange,between,NA,NaN,NA,right,2831.2999999998137,0,2,1063.6000000005588
JN7UKaF3,32k26u12eq14p7ktnmss8y5zd9bdv8,3of2m9aatk1vzht7728km19dnbozka,JN7UKaF3,2020-0188,2021-10-14,10:14:02,11:28:27,NA,incomplete,false,true,NA,1,0,NA,red,n_l_003.jpg,NA,NA,pleasant,unpleasant,NA,NA,NA,NA,NA,left,1727.89999999944,true,NA,NA,NA,NA,NA
JN7UKaF3,32k26u12eq14p7ktnmss8y5zd9bdv8,3of2m9aatk1vzht7728km19dnbozka,JN7UKaF3,2020-0188,2021-10-14,10:14:02,11:28:27,NA,incomplete,false,true,NA,1,1,NA,red,m_s_107.jpg,NA,NA,unpleasant,pleasant,NA,NA,NA,NA,NA,left,2028.60000000056,true,NA,NA,NA,NA,NA
JN7UKaF3,32k26u12eq14p7ktnmss8y5zd9bdv8,3of2m9aatk1vzht7728km19dnbozka,JN7UKaF3,2020-0188,2021-10-14,10:14:02,11:28:27,NA,incomplete,false,true,NA,1,2,NA,red,m_s_100.jpg,NA,NA,pleasant,unpleasant,NA,NA,NA,NA,NA,left,2114.60000000056,true,NA,NA,NA,NA,NA
JN7UKaF3,32k26u12eq14p7ktnmss8y5zd9bdv8,3of2m9aatk1vzht7728km19dnbozka,JN7UKaF3,2020-0188,2021-10-14,10:14:02,11:28:27,NA,incomplete,false,true,NA,1,3,NA,red,n_l_070.jpg,NA,NA,unpleasant,pleasant,NA,NA,NA,NA,NA,right,1166.89999999944,true,NA,NA,NA,NA,NA
JN7UKaF3,32k26u12eq14p7ktnmss8y5zd9bdv8,3of2m9aatk1vzht7728km19dnbozka,JN7UKaF3,2020-0188,2021-10-14,10:14:02,11:28:27,NA,incomplete,false,true,NA,1,4,NA,red,m_s_099.jpg,NA,NA,unpleasant,pleasant,NA,NA,NA,NA,NA,right,1291,true,NA,NA,NA,NA,NA
JN7UKaF3,32k26u12eq14p7ktnmss8y5zd9bdv8,3of2m9aatk1vzht7728km19dnbozka,JN7UKaF3,2020-0188,2021-10-14,10:14:02,11:28:27,NA,incomplete,false,true,NA,1,5,NA,red,m_l_081.jpg,NA,NA,pleasant,unpleasant,NA,NA,NA,NA,NA,left,1505.5,true,NA,NA,NA,NA,NA
JN7UKaF3,32k26u12eq14p7ktnmss8y5zd9bdv8,3of2m9aatk1vzht7728km19dnbozka,JN7UKaF3,2020-0188,2021-10-14,10:14:02,11:28:27,NA,incomplete,false,true,NA,1,6,NA,purple,m_l_010.jpg,NA,NA,unpleasant,pleasant,NA,NA,NA,NA,NA,right,1731.59999999963,true,NA,NA,NA,NA,NA
JN7UKaF3,32k26u12eq14p7ktnmss8y5zd9bdv8,3of2m9aatk1vzht7728km19dnbozka,JN7UKaF3,2020-0188,2021-10-14,10:14:02,11:28:27,NA,incomplete,false,true,NA,1,7,NA,purple,m_s_014.jpg,NA,NA,unpleasant,pleasant,NA,NA,NA,NA,NA,left,2441.29999999981,true,NA,NA,NA,NA,NA
JN7UKaF3,32k26u12eq14p7ktnmss8y5zd9bdv8,3of2m9aatk1vzht7728km19dnbozka,JN7UKaF3,2020-0188,2021-10-14,10:14:02,11:28:27,NA,incomplete,false,true,NA,1,8,NA,purple,m_s_067.jpg,NA,NA,unpleasant,pleasant,NA,NA,NA,NA,NA,right,1198.5,true,NA,NA,NA,NA,NA
JN7UKaF3,32k26u12eq14p7ktnmss8y5zd9bdv8,3of2m9aatk1vzht7728km19dnbozka,JN7UKaF3,2020-0188,2021-10-14,10:14:02,11:28:27,NA,incomplete,false,true,NA,1,9,NA,purple,n_s_013.jpg,NA,NA,pleasant,unpleasant,NA,NA,NA,NA,NA,left,1515.10000000056,true,NA,NA,NA,NA,NA
JN7UKaF3,32k26u12eq14p7ktnmss8y5zd9bdv8,3of2m9aatk1vzht7728km19dnbozka,JN7UKaF3,2020-0188,2021-10-14,10:14:02,11:28:27,NA,incomplete,false,true,NA,1,10,NA,purple,m_s_022.jpg,NA,NA,pleasant,unpleasant,NA,NA,NA,NA,NA,right,1983.60000000056,true,NA,NA,NA,NA,NA
JN7UKaF3,32k26u12eq14p7ktnmss8y5zd9bdv8,3of2m9aatk1vzht7728km19dnbozka,JN7UKaF3,2020-0188,2021-10-14,10:14:02,11:28:27,NA,incomplete,false,true,NA,1,11,NA,purple,n_s_109.jpg,NA,NA,unpleasant,pleasant,NA,NA,NA,NA,NA,right,2171.89999999944,true,NA,NA,NA,NA,NA
JN7UKaF3,32k26u12eq14p7ktnmss8y5zd9bdv8,3of2m9aatk1vzht7728km19dnbozka,JN7UKaF3,2020-0188,2021-10-14,10:14:02,11:28:27,NA,incomplete,false,true,NA,1,12,NA,white,m_l_104.jpg,NA,NA,pleasant,unpleasant,NA,NA,NA,NA,NA,right,2838.40000000037,true,NA,NA,NA,NA,NA
JN7UKaF3,32k26u12eq14p7ktnmss8y5zd9bdv8,3of2m9aatk1vzht7728km19dnbozka,JN7UKaF3,2020-0188,2021-10-14,10:14:02,11:28:27,NA,incomplete,false,true,NA,1,13,NA,white,n_l_029.jpg,NA,NA,pleasant,unpleasant,NA,NA,NA,NA,NA,left,1148.5,true,NA,NA,NA,NA,NA
JN7UKaF3,32k26u12eq14p7ktnmss8y5zd9bdv8,3of2m9aatk1vzht7728km19dnbozka,JN7UKaF3,2020-0188,2021-10-14,10:14:02,11:28:27,NA,incomplete,false,true,NA,1,14,NA,white,n_s_015.jpg,NA,NA,unpleasant,pleasant,NA,NA,NA,NA,NA,right,1787.79999999981,true,NA,NA,NA,NA,NA
JN7UKaF3,32k26u12eq14p7ktnmss8y5zd9bdv8,3of2m9aatk1vzht7728km19dnbozka,JN7UKaF3,2020-0188,2021-10-14,10:14:02,11:28:27,NA,incomplete,false,true,NA,1,15,NA,white,n_s_032.jpg,NA,NA,pleasant,unpleasant,NA,NA,NA,NA,NA,left,1414.70000000019,true,NA,NA,NA,NA,NA
JN7UKaF3,32k26u12eq14p7ktnmss8y5zd9bdv8,3of2m9aatk1vzht7728km19dnbozka,JN7UKaF3,2020-0188,2021-10-14,10:14:02,11:28:27,NA,incomplete,false,true,NA,1,16,NA,white,m_s_046.jpg,NA,NA,unpleasant,pleasant,NA,NA,NA,NA,NA,left,2178.90000000037,true,NA,NA,NA,NA,NA
JN7UKaF3,32k26u12eq14p7ktnmss8y5zd9bdv8,3of2m9aatk1vzht7728km19dnbozka,JN7UKaF3,2020-0188,2021-10-14,10:14:02,11:28:27,NA,incomplete,false,true,NA,1,17,NA,white,n_s_020.jpg,NA,NA,pleasant,unpleasant,NA,NA,NA,NA,NA,left,1528.70000000019,true,NA,NA,NA,NA,NA
JN7UKaF3,32k26u12eq14p7ktnmss8y5zd9bdv8,3of2m9aatk1vzht7728km19dnbozka,JN7UKaF3,2020-0188,2021-10-14,10:14:02,11:28:27,NA,incomplete,false,true,NA,1,18,NA,orange,n_s_026.jpg,NA,NA,unpleasant,pleasant,NA,NA,NA,NA,NA,left,1733.5,true,NA,NA,NA,NA,NA
JN7UKaF3,32k26u12eq14p7ktnmss8y5zd9bdv8,3of2m9aatk1vzht7728km19dnbozka,JN7UKaF3,2020-0188,2021-10-14,10:14:02,11:28:27,NA,incomplete,false,true,NA,1,19,NA,orange,m_l_075.jpg,NA,NA,unpleasant,pleasant,NA,NA,NA,NA,NA,right,1114.70000000019,true,NA,NA,NA,NA,NA
JN7UKaF3,32k26u12eq14p7ktnmss8y5zd9bdv8,3of2m9aatk1vzht7728km19dnbozka,JN7UKaF3,2020-0188,2021-10-14,10:14:02,11:28:27,NA,incomplete,false,true,NA,1,20,NA,orange,m_s_048.jpg,NA,NA,unpleasant,pleasant,NA,NA,NA,NA,NA,right,1401.69999999925,true,NA,NA,NA,NA,NA
JN7UKaF3,32k26u12eq14p7ktnmss8y5zd9bdv8,3of2m9aatk1vzht7728km19dnbozka,JN7UKaF3,2020-0188,2021-10-14,10:14:02,11:28:27,NA,incomplete,false,true,NA,1,21,NA,orange,m_l_102.jpg,NA,NA,pleasant,unpleasant,NA,NA,NA,NA,NA,left,1356.09999999963,true,NA,NA,NA,NA,NA
JN7UKaF3,32k26u12eq14p7ktnmss8y5zd9bdv8,3of2m9aatk1vzht7728km19dnbozka,JN7UKaF3,2020-0188,2021-10-14,10:14:02,11:28:27,NA,incomplete,false,true,NA,1,22,NA,orange,n_s_027.jpg,NA,NA,pleasant,unpleasant,NA,NA,NA,NA,NA,right,1240.79999999981,true,NA,NA,NA,NA,NA
JN7UKaF3,32k26u12eq14p7ktnmss8y5zd9bdv8,3of2m9aatk1vzht7728km19dnbozka,JN7UKaF3,2020-0188,2021-10-14,10:14:02,11:28:27,NA,incomplete,false,true,NA,1,23,NA,orange,n_l_032.jpg,NA,NA,pleasant,unpleasant,NA,NA,NA,NA,NA,left,1054,true,NA,NA,NA,NA,NA
JN7UKaF3,32k26u12eq14p7ktnmss8y5zd9bdv8,3of2m9aatk1vzht7728km19dnbozka,JN7UKaF3,2020-0188,2021-10-14,10:14:02,11:28:27,NA,incomplete,false,true,NA,1,24,NA,blue,m_s_098.jpg,NA,NA,unpleasant,pleasant,NA,NA,NA,NA,NA,right,1409.19999999925,true,NA,NA,NA,NA,NA
JN7UKaF3,32k26u12eq14p7ktnmss8y5zd9bdv8,3of2m9aatk1vzht7728km19dnbozka,JN7UKaF3,2020-0188,2021-10-14,10:14:02,11:28:27,NA,incomplete,false,true,NA,1,25,NA,blue,m_s_117.jpg,NA,NA,pleasant,unpleasant,NA,NA,NA,NA,NA,left,1293.19999999925,true,NA,NA,NA,NA,NA
JN7UKaF3,32k26u12eq14p7ktnmss8y5zd9bdv8,3of2m9aatk1vzht7728km19dnbozka,JN7UKaF3,2020-0188,2021-10-14,10:14:02,11:28:27,NA,incomplete,false,true,NA,1,26,NA,blue,n_l_080.jpg,NA,NA,unpleasant,pleasant,NA,NA,NA,NA,NA,right,1372.39999999944,true,NA,NA,NA,NA,NA
JN7UKaF3,32k26u12eq14p7ktnmss8y5zd9bdv8,3of2m9aatk1vzht7728km19dnbozka,JN7UKaF3,2020-0188,2021-10-14,10:14:02,11:28:27,NA,incomplete,false,true,NA,1,27,NA,blue,m_l_020.jpg,NA,NA,unpleasant,pleasant,NA,NA,NA,NA,NA,left,1415.5,true,NA,NA,NA,NA,NA
JN7UKaF3,32k26u12eq14p7ktnmss8y5zd9bdv8,3of2m9aatk1vzht7728km19dnbozka,JN7UKaF3,2020-0188,2021-10-14,10:14:02,11:28:27,NA,incomplete,false,true,NA,1,28,NA,blue,m_s_052.jpg,NA,NA,unpleasant,pleasant,NA,NA,NA,NA,NA,right,1259.40000000037,true,NA,NA,NA,NA,NA
JN7UKaF3,32k26u12eq14p7ktnmss8y5zd9bdv8,3of2m9aatk1vzht7728km19dnbozka,JN7UKaF3,2020-0188,2021-10-14,10:14:02,11:28:27,NA,incomplete,false,true,NA,1,29,NA,blue,n_s_064.jpg,NA,NA,pleasant,unpleasant,NA,NA,NA,NA,NA,right,1880.70000000019,true,NA,NA,NA,NA,NA
JN7UKaF3,32k26u12eq14p7ktnmss8y5zd9bdv8,3of2m9aatk1vzht7728km19dnbozka,JN7UKaF3,2020-0188,2021-10-14,10:14:02,11:28:27,NA,incomplete,false,true,NA,1,30,NA,yellow,n_l_098.jpg,NA,NA,unpleasant,pleasant,NA,NA,NA,NA,NA,right,1782.70000000019,true,NA,NA,NA,NA,NA
JN7UKaF3,32k26u12eq14p7ktnmss8y5zd9bdv8,3of2m9aatk1vzht7728km19dnbozka,JN7UKaF3,2020-0188,2021-10-14,10:14:02,11:28:27,NA,incomplete,false,true,NA,1,31,NA,yellow,m_l_055.jpg,NA,NA,pleasant,unpleasant,NA,NA,NA,NA,NA,right,1515.59999999963,true,NA,NA,NA,NA,NA
JN7UKaF3,32k26u12eq14p7ktnmss8y5zd9bdv8,3of2m9aatk1vzht7728km19dnbozka,JN7UKaF3,2020-0188,2021-10-14,10:14:02,11:28:27,NA,incomplete,false,true,NA,1,32,NA,yellow,m_l_048.jpg,NA,NA,unpleasant,pleasant,NA,NA,NA,NA,NA,right,1551.39999999944,true,NA,NA,NA,NA,NA
JN7UKaF3,32k26u12eq14p7ktnmss8y5zd9bdv8,3of2m9aatk1vzht7728km19dnbozka,JN7UKaF3,2020-0188,2021-10-14,10:14:02,11:28:27,NA,incomplete,false,true,NA,1,33,NA,yellow,n_s_033.jpg,NA,NA,unpleasant,pleasant,NA,NA,NA,NA,NA,right,1075.89999999944,true,NA,NA,NA,NA,NA
JN7UKaF3,32k26u12eq14p7ktnmss8y5zd9bdv8,3of2m9aatk1vzht7728km19dnbozka,JN7UKaF3,2020-0188,2021-10-14,10:14:02,11:28:27,NA,incomplete,false,true,NA,1,34,NA,yellow,m_l_012.jpg,NA,NA,unpleasant,pleasant,NA,NA,NA,NA,NA,left,1425.60000000056,true,NA,NA,NA,NA,NA
JN7UKaF3,32k26u12eq14p7ktnmss8y5zd9bdv8,3of2m9aatk1vzht7728km19dnbozka,JN7UKaF3,2020-0188,2021-10-14,10:14:02,11:28:27,NA,incomplete,false,true,NA,1,35,NA,yellow,n_s_001.jpg,NA,NA,pleasant,unpleasant,NA,NA,NA,NA,NA,right,1904.19999999925,true,NA,NA,NA,NA,NA
JN7UKaF3,32k26u12eq14p7ktnmss8y5zd9bdv8,3of2m9aatk1vzht7728km19dnbozka,JN7UKaF3,2020-0188,2021-10-14,10:14:02,11:28:27,NA,incomplete,false,NA,true,1,0,NA,NA,NA,left,absent,NA,NA,m_l_075.jpg,orange,n_l_032.jpg,orange,within,NA,NaN,NA,left,4261.899999999441,1,1,1838.5
JN7UKaF3,32k26u12eq14p7ktnmss8y5zd9bdv8,3of2m9aatk1vzht7728km19dnbozka,JN7UKaF3,2020-0188,2021-10-14,10:14:02,11:28:27,NA,incomplete,false,NA,true,1,1,NA,NA,NA,right,absent,NA,NA,m_l_081.jpg,red,m_s_107.jpg,red,within,NA,NaN,NA,right,2622.5,1,0,2790.600000000559
JN7UKaF3,32k26u12eq14p7ktnmss8y5zd9bdv8,3of2m9aatk1vzht7728km19dnbozka,JN7UKaF3,2020-0188,2021-10-14,10:14:02,11:28:27,NA,incomplete,false,NA,true,1,2,NA,NA,NA,right,absent,NA,NA,n_s_001.jpg,yellow,m_l_055.jpg,yellow,within,NA,NaN,NA,left,11799.700000000186,0,1,1800.699999999255
JN7UKaF3,32k26u12eq14p7ktnmss8y5zd9bdv8,3of2m9aatk1vzht7728km19dnbozka,JN7UKaF3,2020-0188,2021-10-14,10:14:02,11:28:27,NA,incomplete,false,NA,true,1,3,NA,NA,NA,left,absent,NA,NA,n_l_029.jpg,white,n_s_020.jpg,white,within,NA,NaN,NA,right,5759.5999999996275,0,1,1182.300000000745
JN7UKaF3,32k26u12eq14p7ktnmss8y5zd9bdv8,3of2m9aatk1vzht7728km19dnbozka,JN7UKaF3,2020-0188,2021-10-14,10:14:02,11:28:27,NA,incomplete,false,NA,true,1,4,NA,NA,NA,left,absent,NA,NA,m_s_014.jpg,purple,n_s_109.jpg,purple,within,NA,NaN,NA,left,3399.5,1,0,2799.5
JN7UKaF3,32k26u12eq14p7ktnmss8y5zd9bdv8,3of2m9aatk1vzht7728km19dnbozka,JN7UKaF3,2020-0188,2021-10-14,10:14:02,11:28:27,NA,incomplete,false,NA,true,1,5,NA,NA,NA,right,absent,NA,NA,n_s_064.jpg,blue,m_s_117.jpg,blue,within,NA,NaN,NA,right,3167.4000000003725,1,2,1287.4000000003725
JN7UKaF3,32k26u12eq14p7ktnmss8y5zd9bdv8,3of2m9aatk1vzht7728km19dnbozka,JN7UKaF3,2020-0188,2021-10-14,10:14:02,11:28:27,NA,incomplete,false,NA,true,1,6,NA,NA,NA,left,absent,NA,NA,m_s_046.jpg,white,m_s_048.jpg,orange,between,NA,NaN,NA,left,2159.2999999998137,1,2,1359.3999999994412
JN7UKaF3,32k26u12eq14p7ktnmss8y5zd9bdv8,3of2m9aatk1vzht7728km19dnbozka,JN7UKaF3,2020-0188,2021-10-14,10:14:02,11:28:27,NA,incomplete,false,NA,true,1,7,NA,NA,NA,left,absent,NA,NA,n_s_027.jpg,orange,n_l_080.jpg,blue,between,NA,NaN,NA,right,2223.2999999988824,0,1,1639.5
JN7UKaF3,32k26u12eq14p7ktnmss8y5zd9bdv8,3of2m9aatk1vzht7728km19dnbozka,JN7UKaF3,2020-0188,2021-10-14,10:14:02,11:28:27,NA,incomplete,false,NA,true,1,8,NA,NA,NA,left,absent,NA,NA,m_s_022.jpg,purple,n_s_015.jpg,white,between,NA,NaN,NA,left,8647.099999999627,1,0,2711.39999999851
JN7UKaF3,32k26u12eq14p7ktnmss8y5zd9bdv8,3of2m9aatk1vzht7728km19dnbozka,JN7UKaF3,2020-0188,2021-10-14,10:14:02,11:28:27,NA,incomplete,false,NA,true,1,9,NA,NA,NA,left,absent,NA,NA,m_s_099.jpg,red,m_s_067.jpg,purple,between,NA,NaN,NA,left,2072.10000000149,1,0,1815.4000000003725
JN7UKaF3,32k26u12eq14p7ktnmss8y5zd9bdv8,3of2m9aatk1vzht7728km19dnbozka,JN7UKaF3,2020-0188,2021-10-14,10:14:02,11:28:27,NA,incomplete,false,NA,true,1,10,NA,NA,NA,right,absent,NA,NA,m_l_048.jpg,yellow,m_s_052.jpg,blue,between,NA,NaN,NA,right,4111.60000000149,1,1,2191.4000000003725
JN7UKaF3,32k26u12eq14p7ktnmss8y5zd9bdv8,3of2m9aatk1vzht7728km19dnbozka,JN7UKaF3,2020-0188,2021-10-14,10:14:02,11:28:27,NA,incomplete,false,true,NA,2,0,NA,red,m_s_045.jpg,NA,NA,pleasant,unpleasant,NA,NA,NA,NA,NA,left,2493.09999999963,true,NA,NA,NA,NA,NA
JN7UKaF3,32k26u12eq14p7ktnmss8y5zd9bdv8,3of2m9aatk1vzht7728km19dnbozka,JN7UKaF3,2020-0188,2021-10-14,10:14:02,11:28:27,NA,incomplete,false,true,NA,2,1,NA,red,n_s_043.jpg,NA,NA,unpleasant,pleasant,NA,NA,NA,NA,NA,right,1867,true,NA,NA,NA,NA,NA
JN7UKaF3,32k26u12eq14p7ktnmss8y5zd9bdv8,3of2m9aatk1vzht7728km19dnbozka,JN7UKaF3,2020-0188,2021-10-14,10:14:02,11:28:27,NA,incomplete,false,true,NA,2,2,NA,red,n_l_043.jpg,NA,NA,pleasant,unpleasant,NA,NA,NA,NA,NA,left,1649.19999999925,true,NA,NA,NA,NA,NA
JN7UKaF3,32k26u12eq14p7ktnmss8y5zd9bdv8,3of2m9aatk1vzht7728km19dnbozka,JN7UKaF3,2020-0188,2021-10-14,10:14:02,11:28:27,NA,incomplete,false,true,NA,2,3,NA,red,m_s_024.jpg,NA,NA,pleasant,unpleasant,NA,NA,NA,NA,NA,right,2052.40000000037,true,NA,NA,NA,NA,NA
JN7UKaF3,32k26u12eq14p7ktnmss8y5zd9bdv8,3of2m9aatk1vzht7728km19dnbozka,JN7UKaF3,2020-0188,2021-10-14,10:14:02,11:28:27,NA,incomplete,false,true,NA,2,4,NA,red,n_l_068.jpg,NA,NA,pleasant,unpleasant,NA,NA,NA,NA,NA,left,977.400000000373,true,NA,NA,NA,NA,NA
JN7UKaF3,32k26u12eq14p7ktnmss8y5zd9bdv8,3of2m9aatk1vzht7728km19dnbozka,JN7UKaF3,2020-0188,2021-10-14,10:14:02,11:28:27,NA,incomplete,false,true,NA,2,5,NA,red,m_s_077.jpg,NA,NA,unpleasant,pleasant,NA,NA,NA,NA,NA,right,1607.60000000149,true,NA,NA,NA,NA,NA
JN7UKaF3,32k26u12eq14p7ktnmss8y5zd9bdv8,3of2m9aatk1vzht7728km19dnbozka,JN7UKaF3,2020-0188,2021-10-14,10:14:02,11:28:27,NA,incomplete,false,true,NA,2,6,NA,blue,m_l_046.jpg,NA,NA,pleasant,unpleasant,NA,NA,NA,NA,NA,left,1346.5,true,NA,NA,NA,NA,NA
JN7UKaF3,32k26u12eq14p7ktnmss8y5zd9bdv8,3of2m9aatk1vzht7728km19dnbozka,JN7UKaF3,2020-0188,2021-10-14,10:14:02,11:28:27,NA,incomplete,false,true,NA,2,7,NA,blue,n_s_062.jpg,NA,NA,unpleasant,pleasant,NA,NA,NA,NA,NA,right,1623.59999999963,true,NA,NA,NA,NA,NA
JN7UKaF3,32k26u12eq14p7ktnmss8y5zd9bdv8,3of2m9aatk1vzht7728km19dnbozka,JN7UKaF3,2020-0188,2021-10-14,10:14:02,11:28:27,NA,incomplete,false,true,NA,2,8,NA,blue,m_s_028.jpg,NA,NA,unpleasant,pleasant,NA,NA,NA,NA,NA,left,1109.69999999925,true,NA,NA,NA,NA,NA
JN7UKaF3,32k26u12eq14p7ktnmss8y5zd9bdv8,3of2m9aatk1vzht7728km19dnbozka,JN7UKaF3,2020-0188,2021-10-14,10:14:02,11:28:27,NA,incomplete,false,true,NA,2,9,NA,blue,n_l_018.jpg,NA,NA,pleasant,unpleasant,NA,NA,NA,NA,NA,left,1673.10000000149,true,NA,NA,NA,NA,NA
JN7UKaF3,32k26u12eq14p7ktnmss8y5zd9bdv8,3of2m9aatk1vzht7728km19dnbozka,JN7UKaF3,2020-0188,2021-10-14,10:14:02,11:28:27,NA,incomplete,false,true,NA,2,10,NA,blue,m_s_019.jpg,NA,NA,pleasant,unpleasant,NA,NA,NA,NA,NA,left,1381.30000000075,true,NA,NA,NA,NA,NA
JN7UKaF3,32k26u12eq14p7ktnmss8y5zd9bdv8,3of2m9aatk1vzht7728km19dnbozka,JN7UKaF3,2020-0188,2021-10-14,10:14:02,11:28:27,NA,incomplete,false,true,NA,2,11,NA,blue,m_l_110.jpg,NA,NA,pleasant,unpleasant,NA,NA,NA,NA,NA,right,1595.30000000075,true,NA,NA,NA,NA,NA
JN7UKaF3,32k26u12eq14p7ktnmss8y5zd9bdv8,3of2m9aatk1vzht7728km19dnbozka,JN7UKaF3,2020-0188,2021-10-14,10:14:02,11:28:27,NA,incomplete,false,true,NA,2,12,NA,purple,m_l_097.jpg,NA,NA,pleasant,unpleasant,NA,NA,NA,NA,NA,left,1367.59999999963,true,NA,NA,NA,NA,NA
JN7UKaF3,32k26u12eq14p7ktnmss8y5zd9bdv8,3of2m9aatk1vzht7728km19dnbozka,JN7UKaF3,2020-0188,2021-10-14,10:14:02,11:28:27,NA,incomplete,false,true,NA,2,13,NA,purple,m_l_065.jpg,NA,NA,unpleasant,pleasant,NA,NA,NA,NA,NA,right,1611.70000000112,true,NA,NA,NA,NA,NA
JN7UKaF3,32k26u12eq14p7ktnmss8y5zd9bdv8,3of2m9aatk1vzht7728km19dnbozka,JN7UKaF3,2020-0188,2021-10-14,10:14:02,11:28:27,NA,incomplete,false,true,NA,2,14,NA,purple,n_s_085.jpg,NA,NA,pleasant,unpleasant,NA,NA,NA,NA,NA,left,1514.09999999963,true,NA,NA,NA,NA,NA
JN7UKaF3,32k26u12eq14p7ktnmss8y5zd9bdv8,3of2m9aatk1vzht7728km19dnbozka,JN7UKaF3,2020-0188,2021-10-14,10:14:02,11:28:27,NA,incomplete,false,true,NA,2,15,NA,purple,m_s_071.jpg,NA,NA,pleasant,unpleasant,NA,NA,NA,NA,NA,right,1596.70000000112,true,NA,NA,NA,NA,NA
JN7UKaF3,32k26u12eq14p7ktnmss8y5zd9bdv8,3of2m9aatk1vzht7728km19dnbozka,JN7UKaF3,2020-0188,2021-10-14,10:14:02,11:28:27,NA,incomplete,false,true,NA,2,16,NA,purple,n_s_087.jpg,NA,NA,pleasant,unpleasant,NA,NA,NA,NA,NA,left,1073.60000000149,true,NA,NA,NA,NA,NA
JN7UKaF3,32k26u12eq14p7ktnmss8y5zd9bdv8,3of2m9aatk1vzht7728km19dnbozka,JN7UKaF3,2020-0188,2021-10-14,10:14:02,11:28:27,NA,incomplete,false,true,NA,2,17,NA,purple,n_l_060.jpg,NA,NA,pleasant,unpleasant,NA,NA,NA,NA,NA,left,1103.89999999851,true,NA,NA,NA,NA,NA
JN7UKaF3,32k26u12eq14p7ktnmss8y5zd9bdv8,3of2m9aatk1vzht7728km19dnbozka,JN7UKaF3,2020-0188,2021-10-14,10:14:02,11:28:27,NA,incomplete,false,true,NA,2,18,NA,black,m_s_002.jpg,NA,NA,unpleasant,pleasant,NA,NA,NA,NA,NA,left,1939.19999999925,true,NA,NA,NA,NA,NA
JN7UKaF3,32k26u12eq14p7ktnmss8y5zd9bdv8,3of2m9aatk1vzht7728km19dnbozka,JN7UKaF3,2020-0188,2021-10-14,10:14:02,11:28:27,NA,incomplete,false,true,NA,2,19,NA,black,n_l_063.jpg,NA,NA,unpleasant,pleasant,NA,NA,NA,NA,NA,right,1919.59999999963,true,NA,NA,NA,NA,NA
JN7UKaF3,32k26u12eq14p7ktnmss8y5zd9bdv8,3of2m9aatk1vzht7728km19dnbozka,JN7UKaF3,2020-0188,2021-10-14,10:14:02,11:28:27,NA,incomplete,false,true,NA,2,20,NA,black,n_s_103.jpg,NA,NA,pleasant,unpleasant,NA,NA,NA,NA,NA,left,1203.59999999963,true,NA,NA,NA,NA,NA
JN7UKaF3,32k26u12eq14p7ktnmss8y5zd9bdv8,3of2m9aatk1vzht7728km19dnbozka,JN7UKaF3,2020-0188,2021-10-14,10:14:02,11:28:27,NA,incomplete,false,true,NA,2,21,NA,black,m_l_066.jpg,NA,NA,unpleasant,pleasant,NA,NA,NA,NA,NA,right,1680.09999999963,true,NA,NA,NA,NA,NA
JN7UKaF3,32k26u12eq14p7ktnmss8y5zd9bdv8,3of2m9aatk1vzht7728km19dnbozka,JN7UKaF3,2020-0188,2021-10-14,10:14:02,11:28:27,NA,incomplete,false,true,NA,2,22,NA,black,n_l_116.jpg,NA,NA,pleasant,unpleasant,NA,NA,NA,NA,NA,left,1388.29999999888,true,NA,NA,NA,NA,NA
JN7UKaF3,32k26u12eq14p7ktnmss8y5zd9bdv8,3of2m9aatk1vzht7728km19dnbozka,JN7UKaF3,2020-0188,2021-10-14,10:14:02,11:28:27,NA,incomplete,false,true,NA,2,23,NA,black,m_s_072.jpg,NA,NA,pleasant,unpleasant,NA,NA,NA,NA,NA,left,1123.40000000037,true,NA,NA,NA,NA,NA
JN7UKaF3,32k26u12eq14p7ktnmss8y5zd9bdv8,3of2m9aatk1vzht7728km19dnbozka,JN7UKaF3,2020-0188,2021-10-14,10:14:02,11:28:27,NA,incomplete,false,true,NA,2,24,NA,green,n_s_041.jpg,NA,NA,pleasant,unpleasant,NA,NA,NA,NA,NA,left,1093.79999999888,true,NA,NA,NA,NA,NA
JN7UKaF3,32k26u12eq14p7ktnmss8y5zd9bdv8,3of2m9aatk1vzht7728km19dnbozka,JN7UKaF3,2020-0188,2021-10-14,10:14:02,11:28:27,NA,incomplete,false,true,NA,2,25,NA,green,m_l_073.jpg,NA,NA,unpleasant,pleasant,NA,NA,NA,NA,NA,left,1691.29999999888,true,NA,NA,NA,NA,NA
JN7UKaF3,32k26u12eq14p7ktnmss8y5zd9bdv8,3of2m9aatk1vzht7728km19dnbozka,JN7UKaF3,2020-0188,2021-10-14,10:14:02,11:28:27,NA,incomplete,false,true,NA,2,26,NA,green,m_l_105.jpg,NA,NA,pleasant,unpleasant,NA,NA,NA,NA,NA,left,2139.30000000075,true,NA,NA,NA,NA,NA
JN7UKaF3,32k26u12eq14p7ktnmss8y5zd9bdv8,3of2m9aatk1vzht7728km19dnbozka,JN7UKaF3,2020-0188,2021-10-14,10:14:02,11:28:27,NA,incomplete,false,true,NA,2,27,NA,green,m_l_047.jpg,NA,NA,unpleasant,pleasant,NA,NA,NA,NA,NA,left,2427.80000000075,true,NA,NA,NA,NA,NA
JN7UKaF3,32k26u12eq14p7ktnmss8y5zd9bdv8,3of2m9aatk1vzht7728km19dnbozka,JN7UKaF3,2020-0188,2021-10-14,10:14:02,11:28:27,NA,incomplete,false,true,NA,2,28,NA,green,m_l_024.jpg,NA,NA,unpleasant,pleasant,NA,NA,NA,NA,NA,left,1615.59999999963,true,NA,NA,NA,NA,NA
JN7UKaF3,32k26u12eq14p7ktnmss8y5zd9bdv8,3of2m9aatk1vzht7728km19dnbozka,JN7UKaF3,2020-0188,2021-10-14,10:14:02,11:28:27,NA,incomplete,false,true,NA,2,29,NA,green,m_s_101.jpg,NA,NA,pleasant,unpleasant,NA,NA,NA,NA,NA,left,1942.79999999888,true,NA,NA,NA,NA,NA
JN7UKaF3,32k26u12eq14p7ktnmss8y5zd9bdv8,3of2m9aatk1vzht7728km19dnbozka,JN7UKaF3,2020-0188,2021-10-14,10:14:02,11:28:27,NA,incomplete,false,true,NA,2,30,NA,brown,n_l_099.jpg,NA,NA,pleasant,unpleasant,NA,NA,NA,NA,NA,right,2034.90000000037,true,NA,NA,NA,NA,NA
JN7UKaF3,32k26u12eq14p7ktnmss8y5zd9bdv8,3of2m9aatk1vzht7728km19dnbozka,JN7UKaF3,2020-0188,2021-10-14,10:14:02,11:28:27,NA,incomplete,false,true,NA,2,31,NA,brown,m_l_036.jpg,NA,NA,pleasant,unpleasant,NA,NA,NA,NA,NA,left,2222,true,NA,NA,NA,NA,NA
JN7UKaF3,32k26u12eq14p7ktnmss8y5zd9bdv8,3of2m9aatk1vzht7728km19dnbozka,JN7UKaF3,2020-0188,2021-10-14,10:14:02,11:28:27,NA,incomplete,false,true,NA,2,32,NA,brown,m_s_050.jpg,NA,NA,unpleasant,pleasant,NA,NA,NA,NA,NA,right,1308.09999999963,true,NA,NA,NA,NA,NA
JN7UKaF3,32k26u12eq14p7ktnmss8y5zd9bdv8,3of2m9aatk1vzht7728km19dnbozka,JN7UKaF3,2020-0188,2021-10-14,10:14:02,11:28:27,NA,incomplete,false,true,NA,2,33,NA,brown,n_l_041.jpg,NA,NA,pleasant,unpleasant,NA,NA,NA,NA,NA,right,1903.90000000037,true,NA,NA,NA,NA,NA
JN7UKaF3,32k26u12eq14p7ktnmss8y5zd9bdv8,3of2m9aatk1vzht7728km19dnbozka,JN7UKaF3,2020-0188,2021-10-14,10:14:02,11:28:27,NA,incomplete,false,true,NA,2,34,NA,brown,n_l_113.jpg,NA,NA,unpleasant,pleasant,NA,NA,NA,NA,NA,left,1396,true,NA,NA,NA,NA,NA
JN7UKaF3,32k26u12eq14p7ktnmss8y5zd9bdv8,3of2m9aatk1vzht7728km19dnbozka,JN7UKaF3,2020-0188,2021-10-14,10:14:02,11:28:27,NA,incomplete,false,true,NA,2,35,NA,brown,m_s_079.jpg,NA,NA,pleasant,unpleasant,NA,NA,NA,NA,NA,left,1384.20000000112,true,NA,NA,NA,NA,NA
JN7UKaF3,32k26u12eq14p7ktnmss8y5zd9bdv8,3of2m9aatk1vzht7728km19dnbozka,JN7UKaF3,2020-0188,2021-10-14,10:14:02,11:28:27,NA,incomplete,false,NA,true,2,0,NA,NA,NA,left,present,NA,NA,m_l_024.jpg,green,m_s_050.jpg,brown,between,NA,NaN,NA,right,4183.0999999996275,0,1,1479.2000000011176
JN7UKaF3,32k26u12eq14p7ktnmss8y5zd9bdv8,3of2m9aatk1vzht7728km19dnbozka,JN7UKaF3,2020-0188,2021-10-14,10:14:02,11:28:27,NA,incomplete,false,NA,true,2,1,NA,NA,NA,right,present,NA,NA,n_s_103.jpg,black,n_s_087.jpg,purple,between,NA,NaN,NA,left,5767,0,2,903
JN7UKaF3,32k26u12eq14p7ktnmss8y5zd9bdv8,3of2m9aatk1vzht7728km19dnbozka,JN7UKaF3,2020-0188,2021-10-14,10:14:02,11:28:27,NA,incomplete,false,NA,true,2,2,NA,NA,NA,right,present,NA,NA,m_s_077.jpg,red,n_s_043.jpg,red,within,NA,NaN,NA,right,5207.699999999255,1,1,1519.4000000003725
JN7UKaF3,32k26u12eq14p7ktnmss8y5zd9bdv8,3of2m9aatk1vzht7728km19dnbozka,JN7UKaF3,2020-0188,2021-10-14,10:14:02,11:28:27,NA,incomplete,false,NA,true,2,3,NA,NA,NA,left,present,NA,NA,m_l_073.jpg,green,m_s_101.jpg,green,within,NA,NaN,NA,left,4679.199999999255,1,0,2183.60000000149
JN7UKaF3,32k26u12eq14p7ktnmss8y5zd9bdv8,3of2m9aatk1vzht7728km19dnbozka,JN7UKaF3,2020-0188,2021-10-14,10:14:02,11:28:27,NA,incomplete,false,NA,true,2,4,NA,NA,NA,left,present,NA,NA,m_l_065.jpg,purple,n_l_060.jpg,purple,within,NA,NaN,NA,left,4175.300000000745,1,0,1439
JN7UKaF3,32k26u12eq14p7ktnmss8y5zd9bdv8,3of2m9aatk1vzht7728km19dnbozka,JN7UKaF3,2020-0188,2021-10-14,10:14:02,11:28:27,NA,incomplete,false,NA,true,2,5,NA,NA,NA,left,present,NA,NA,n_l_116.jpg,black,m_l_105.jpg,green,between,NA,NaN,NA,right,6270.9000000003725,0,1,1839.0999999996275
JN7UKaF3,32k26u12eq14p7ktnmss8y5zd9bdv8,3of2m9aatk1vzht7728km19dnbozka,JN7UKaF3,2020-0188,2021-10-14,10:14:02,11:28:27,NA,incomplete,false,NA,true,2,6,NA,NA,NA,left,present,NA,NA,m_l_036.jpg,brown,m_s_079.jpg,brown,within,NA,NaN,NA,left,3327.4000000003725,1,0,1615.199999999255
JN7UKaF3,32k26u12eq14p7ktnmss8y5zd9bdv8,3of2m9aatk1vzht7728km19dnbozka,JN7UKaF3,2020-0188,2021-10-14,10:14:02,11:28:27,NA,incomplete,false,NA,true,2,7,NA,NA,NA,right,present,NA,NA,m_s_072.jpg,black,n_l_063.jpg,black,within,NA,NaN,NA,right,4929.5999999996275,1,0,1423.4000000003725
JN7UKaF3,32k26u12eq14p7ktnmss8y5zd9bdv8,3of2m9aatk1vzht7728km19dnbozka,JN7UKaF3,2020-0188,2021-10-14,10:14:02,11:28:27,NA,incomplete,false,NA,true,2,8,NA,NA,NA,right,present,NA,NA,m_s_028.jpg,blue,n_l_068.jpg,red,between,NA,NaN,NA,right,3087.4000000003725,1,1,1135.5
JN7UKaF3,32k26u12eq14p7ktnmss8y5zd9bdv8,3of2m9aatk1vzht7728km19dnbozka,JN7UKaF3,2020-0188,2021-10-14,10:14:02,11:28:27,NA,incomplete,false,NA,true,2,9,NA,NA,NA,left,present,NA,NA,n_s_062.jpg,blue,m_l_110.jpg,blue,within,NA,NaN,NA,left,2983.300000000745,1,1,1863.7999999988824
JN7UKaF3,32k26u12eq14p7ktnmss8y5zd9bdv8,3of2m9aatk1vzht7728km19dnbozka,JN7UKaF3,2020-0188,2021-10-14,10:14:02,11:28:27,NA,incomplete,false,NA,true,2,10,NA,NA,NA,left,present,NA,NA,m_s_019.jpg,blue,n_s_085.jpg,purple,between,NA,NaN,NA,right,2175.2000000011176,0,2,1871.699999999255
JN7UKaF3,32k26u12eq14p7ktnmss8y5zd9bdv8,3of2m9aatk1vzht7728km19dnbozka,JN7UKaF3,2020-0188,2021-10-14,10:14:02,11:28:27,NA,incomplete,false,true,NA,3,0,NA,red,n_l_082.jpg,NA,NA,unpleasant,pleasant,NA,NA,NA,NA,NA,left,2258.90000000037,true,NA,NA,NA,NA,NA
JN7UKaF3,32k26u12eq14p7ktnmss8y5zd9bdv8,3of2m9aatk1vzht7728km19dnbozka,JN7UKaF3,2020-0188,2021-10-14,10:14:02,11:28:27,NA,incomplete,false,true,NA,3,1,NA,red,m_s_076.jpg,NA,NA,unpleasant,pleasant,NA,NA,NA,NA,NA,left,2551.90000000037,true,NA,NA,NA,NA,NA
JN7UKaF3,32k26u12eq14p7ktnmss8y5zd9bdv8,3of2m9aatk1vzht7728km19dnbozka,JN7UKaF3,2020-0188,2021-10-14,10:14:02,11:28:27,NA,incomplete,false,true,NA,3,2,NA,red,m_l_068.jpg,NA,NA,unpleasant,pleasant,NA,NA,NA,NA,NA,right,2069.5,true,NA,NA,NA,NA,NA
JN7UKaF3,32k26u12eq14p7ktnmss8y5zd9bdv8,3of2m9aatk1vzht7728km19dnbozka,JN7UKaF3,2020-0188,2021-10-14,10:14:02,11:28:27,NA,incomplete,false,true,NA,3,3,NA,red,m_l_117.jpg,NA,NA,unpleasant,pleasant,NA,NA,NA,NA,NA,right,1144.60000000149,true,NA,NA,NA,NA,NA
JN7UKaF3,32k26u12eq14p7ktnmss8y5zd9bdv8,3of2m9aatk1vzht7728km19dnbozka,JN7UKaF3,2020-0188,2021-10-14,10:14:02,11:28:27,NA,incomplete,false,true,NA,3,4,NA,red,n_l_055.jpg,NA,NA,pleasant,unpleasant,NA,NA,NA,NA,NA,left,1350.40000000037,true,NA,NA,NA,NA,NA
JN7UKaF3,32k26u12eq14p7ktnmss8y5zd9bdv8,3of2m9aatk1vzht7728km19dnbozka,JN7UKaF3,2020-0188,2021-10-14,10:14:02,11:28:27,NA,incomplete,false,true,NA,3,5,NA,red,m_s_086.jpg,NA,NA,unpleasant,pleasant,NA,NA,NA,NA,NA,right,2106.59999999963,true,NA,NA,NA,NA,NA
JN7UKaF3,32k26u12eq14p7ktnmss8y5zd9bdv8,3of2m9aatk1vzht7728km19dnbozka,JN7UKaF3,2020-0188,2021-10-14,10:14:02,11:28:27,NA,incomplete,false,true,NA,3,6,NA,purple,m_l_061.jpg,NA,NA,unpleasant,pleasant,NA,NA,NA,NA,NA,right,1343.20000000112,true,NA,NA,NA,NA,NA
JN7UKaF3,32k26u12eq14p7ktnmss8y5zd9bdv8,3of2m9aatk1vzht7728km19dnbozka,JN7UKaF3,2020-0188,2021-10-14,10:14:02,11:28:27,NA,incomplete,false,true,NA,3,7,NA,purple,m_l_056.jpg,NA,NA,pleasant,unpleasant,NA,NA,NA,NA,NA,left,2076.20000000112,true,NA,NA,NA,NA,NA
JN7UKaF3,32k26u12eq14p7ktnmss8y5zd9bdv8,3of2m9aatk1vzht7728km19dnbozka,JN7UKaF3,2020-0188,2021-10-14,10:14:02,11:28:27,NA,incomplete,false,true,NA,3,8,NA,purple,n_l_079.jpg,NA,NA,unpleasant,pleasant,NA,NA,NA,NA,NA,right,1705.90000000037,true,NA,NA,NA,NA,NA
JN7UKaF3,32k26u12eq14p7ktnmss8y5zd9bdv8,3of2m9aatk1vzht7728km19dnbozka,JN7UKaF3,2020-0188,2021-10-14,10:14:02,11:28:27,NA,incomplete,false,true,NA,3,9,NA,purple,n_s_075.jpg,NA,NA,unpleasant,pleasant,NA,NA,NA,NA,NA,left,1917.30000000075,true,NA,NA,NA,NA,NA
JN7UKaF3,32k26u12eq14p7ktnmss8y5zd9bdv8,3of2m9aatk1vzht7728km19dnbozka,JN7UKaF3,2020-0188,2021-10-14,10:14:02,11:28:27,NA,incomplete,false,true,NA,3,10,NA,purple,n_s_091.jpg,NA,NA,unpleasant,pleasant,NA,NA,NA,NA,NA,left,1761.39999999851,true,NA,NA,NA,NA,NA
JN7UKaF3,32k26u12eq14p7ktnmss8y5zd9bdv8,3of2m9aatk1vzht7728km19dnbozka,JN7UKaF3,2020-0188,2021-10-14,10:14:02,11:28:27,NA,incomplete,false,true,NA,3,11,NA,purple,n_l_074.jpg,NA,NA,pleasant,unpleasant,NA,NA,NA,NA,NA,left,2503.79999999888,true,NA,NA,NA,NA,NA
JN7UKaF3,32k26u12eq14p7ktnmss8y5zd9bdv8,3of2m9aatk1vzht7728km19dnbozka,JN7UKaF3,2020-0188,2021-10-14,10:14:02,11:28:27,NA,incomplete,false,true,NA,3,12,NA,blue,m_l_060.jpg,NA,NA,pleasant,unpleasant,NA,NA,NA,NA,NA,left,1548.09999999963,true,NA,NA,NA,NA,NA
JN7UKaF3,32k26u12eq14p7ktnmss8y5zd9bdv8,3of2m9aatk1vzht7728km19dnbozka,JN7UKaF3,2020-0188,2021-10-14,10:14:02,11:28:27,NA,incomplete,false,true,NA,3,13,NA,blue,m_s_059.jpg,NA,NA,pleasant,unpleasant,NA,NA,NA,NA,NA,right,1390.90000000037,true,NA,NA,NA,NA,NA
JN7UKaF3,32k26u12eq14p7ktnmss8y5zd9bdv8,3of2m9aatk1vzht7728km19dnbozka,JN7UKaF3,2020-0188,2021-10-14,10:14:02,11:28:27,NA,incomplete,false,true,NA,3,14,NA,blue,m_s_021.jpg,NA,NA,unpleasant,pleasant,NA,NA,NA,NA,NA,left,1477.40000000037,true,NA,NA,NA,NA,NA
JN7UKaF3,32k26u12eq14p7ktnmss8y5zd9bdv8,3of2m9aatk1vzht7728km19dnbozka,JN7UKaF3,2020-0188,2021-10-14,10:14:02,11:28:27,NA,incomplete,false,true,NA,3,15,NA,blue,m_l_106.jpg,NA,NA,pleasant,unpleasant,NA,NA,NA,NA,NA,left,1248.30000000075,true,NA,NA,NA,NA,NA
JN7UKaF3,32k26u12eq14p7ktnmss8y5zd9bdv8,3of2m9aatk1vzht7728km19dnbozka,JN7UKaF3,2020-0188,2021-10-14,10:14:02,11:28:27,NA,incomplete,false,true,NA,3,16,NA,blue,n_s_106.jpg,NA,NA,pleasant,unpleasant,NA,NA,NA,NA,NA,left,1573,true,NA,NA,NA,NA,NA
JN7UKaF3,32k26u12eq14p7ktnmss8y5zd9bdv8,3of2m9aatk1vzht7728km19dnbozka,JN7UKaF3,2020-0188,2021-10-14,10:14:02,11:28:27,NA,incomplete,false,true,NA,3,17,NA,blue,n_l_054.jpg,NA,NA,pleasant,unpleasant,NA,NA,NA,NA,NA,left,1500.30000000075,true,NA,NA,NA,NA,NA
JN7UKaF3,32k26u12eq14p7ktnmss8y5zd9bdv8,3of2m9aatk1vzht7728km19dnbozka,JN7UKaF3,2020-0188,2021-10-14,10:14:02,11:28:27,NA,incomplete,false,true,NA,3,18,NA,orange,m_s_082.jpg,NA,NA,pleasant,unpleasant,NA,NA,NA,NA,NA,left,1175.59999999963,true,NA,NA,NA,NA,NA
JN7UKaF3,32k26u12eq14p7ktnmss8y5zd9bdv8,3of2m9aatk1vzht7728km19dnbozka,JN7UKaF3,2020-0188,2021-10-14,10:14:02,11:28:27,NA,incomplete,false,true,NA,3,19,NA,orange,m_l_051.jpg,NA,NA,unpleasant,pleasant,NA,NA,NA,NA,NA,right,1252.80000000075,true,NA,NA,NA,NA,NA
JN7UKaF3,32k26u12eq14p7ktnmss8y5zd9bdv8,3of2m9aatk1vzht7728km19dnbozka,JN7UKaF3,2020-0188,2021-10-14,10:14:02,11:28:27,NA,incomplete,false,true,NA,3,20,NA,orange,n_l_035.jpg,NA,NA,unpleasant,pleasant,NA,NA,NA,NA,NA,right,1232.19999999925,true,NA,NA,NA,NA,NA
JN7UKaF3,32k26u12eq14p7ktnmss8y5zd9bdv8,3of2m9aatk1vzht7728km19dnbozka,JN7UKaF3,2020-0188,2021-10-14,10:14:02,11:28:27,NA,incomplete,false,true,NA,3,21,NA,orange,m_l_045.jpg,NA,NA,unpleasant,pleasant,NA,NA,NA,NA,NA,left,1071.09999999963,true,NA,NA,NA,NA,NA
JN7UKaF3,32k26u12eq14p7ktnmss8y5zd9bdv8,3of2m9aatk1vzht7728km19dnbozka,JN7UKaF3,2020-0188,2021-10-14,10:14:02,11:28:27,NA,incomplete,false,true,NA,3,22,NA,orange,n_s_105.jpg,NA,NA,unpleasant,pleasant,NA,NA,NA,NA,NA,right,1729.40000000037,true,NA,NA,NA,NA,NA
JN7UKaF3,32k26u12eq14p7ktnmss8y5zd9bdv8,3of2m9aatk1vzht7728km19dnbozka,JN7UKaF3,2020-0188,2021-10-14,10:14:02,11:28:27,NA,incomplete,false,true,NA,3,23,NA,orange,n_l_009.jpg,NA,NA,pleasant,unpleasant,NA,NA,NA,NA,NA,left,1056.40000000037,true,NA,NA,NA,NA,NA
JN7UKaF3,32k26u12eq14p7ktnmss8y5zd9bdv8,3of2m9aatk1vzht7728km19dnbozka,JN7UKaF3,2020-0188,2021-10-14,10:14:02,11:28:27,NA,incomplete,false,true,NA,3,24,NA,white,n_l_023.jpg,NA,NA,pleasant,unpleasant,NA,NA,NA,NA,NA,left,1075.40000000037,true,NA,NA,NA,NA,NA
JN7UKaF3,32k26u12eq14p7ktnmss8y5zd9bdv8,3of2m9aatk1vzht7728km19dnbozka,JN7UKaF3,2020-0188,2021-10-14,10:14:02,11:28:27,NA,incomplete,false,true,NA,3,25,NA,white,m_l_062.jpg,NA,NA,unpleasant,pleasant,NA,NA,NA,NA,NA,right,1976.60000000149,true,NA,NA,NA,NA,NA
JN7UKaF3,32k26u12eq14p7ktnmss8y5zd9bdv8,3of2m9aatk1vzht7728km19dnbozka,JN7UKaF3,2020-0188,2021-10-14,10:14:02,11:28:27,NA,incomplete,false,true,NA,3,26,NA,white,n_l_050.jpg,NA,NA,unpleasant,pleasant,NA,NA,NA,NA,NA,right,1190.80000000075,true,NA,NA,NA,NA,NA
JN7UKaF3,32k26u12eq14p7ktnmss8y5zd9bdv8,3of2m9aatk1vzht7728km19dnbozka,JN7UKaF3,2020-0188,2021-10-14,10:14:02,11:28:27,NA,incomplete,false,true,NA,3,27,NA,white,n_l_051.jpg,NA,NA,pleasant,unpleasant,NA,NA,NA,NA,NA,left,1266.29999999888,true,NA,NA,NA,NA,NA
JN7UKaF3,32k26u12eq14p7ktnmss8y5zd9bdv8,3of2m9aatk1vzht7728km19dnbozka,JN7UKaF3,2020-0188,2021-10-14,10:14:02,11:28:27,NA,incomplete,false,true,NA,3,28,NA,white,n_l_057.jpg,NA,NA,pleasant,unpleasant,NA,NA,NA,NA,NA,left,1958.5,true,NA,NA,NA,NA,NA
JN7UKaF3,32k26u12eq14p7ktnmss8y5zd9bdv8,3of2m9aatk1vzht7728km19dnbozka,JN7UKaF3,2020-0188,2021-10-14,10:14:02,11:28:27,NA,incomplete,false,true,NA,3,29,NA,white,m_l_016.jpg,NA,NA,unpleasant,pleasant,NA,NA,NA,NA,NA,right,1180.90000000037,true,NA,NA,NA,NA,NA
JN7UKaF3,32k26u12eq14p7ktnmss8y5zd9bdv8,3of2m9aatk1vzht7728km19dnbozka,JN7UKaF3,2020-0188,2021-10-14,10:14:02,11:28:27,NA,incomplete,false,true,NA,3,30,NA,yellow,n_l_024.jpg,NA,NA,unpleasant,pleasant,NA,NA,NA,NA,NA,right,1280.89999999851,true,NA,NA,NA,NA,NA
JN7UKaF3,32k26u12eq14p7ktnmss8y5zd9bdv8,3of2m9aatk1vzht7728km19dnbozka,JN7UKaF3,2020-0188,2021-10-14,10:14:02,11:28:27,NA,incomplete,false,true,NA,3,31,NA,yellow,m_s_105.jpg,NA,NA,unpleasant,pleasant,NA,NA,NA,NA,NA,right,1093.89999999851,true,NA,NA,NA,NA,NA
JN7UKaF3,32k26u12eq14p7ktnmss8y5zd9bdv8,3of2m9aatk1vzht7728km19dnbozka,JN7UKaF3,2020-0188,2021-10-14,10:14:02,11:28:27,NA,incomplete,false,true,NA,3,32,NA,yellow,m_l_035.jpg,NA,NA,pleasant,unpleasant,NA,NA,NA,NA,NA,left,1540,true,NA,NA,NA,NA,NA
JN7UKaF3,32k26u12eq14p7ktnmss8y5zd9bdv8,3of2m9aatk1vzht7728km19dnbozka,JN7UKaF3,2020-0188,2021-10-14,10:14:02,11:28:27,NA,incomplete,false,true,NA,3,33,NA,yellow,m_s_080.jpg,NA,NA,pleasant,unpleasant,NA,NA,NA,NA,NA,left,2159.20000000112,true,NA,NA,NA,NA,NA
JN7UKaF3,32k26u12eq14p7ktnmss8y5zd9bdv8,3of2m9aatk1vzht7728km19dnbozka,JN7UKaF3,2020-0188,2021-10-14,10:14:02,11:28:27,NA,incomplete,false,true,NA,3,34,NA,yellow,m_l_087.jpg,NA,NA,unpleasant,pleasant,NA,NA,NA,NA,NA,right,1036.09999999963,true,NA,NA,NA,NA,NA
JN7UKaF3,32k26u12eq14p7ktnmss8y5zd9bdv8,3of2m9aatk1vzht7728km19dnbozka,JN7UKaF3,2020-0188,2021-10-14,10:14:02,11:28:27,NA,incomplete,false,true,NA,3,35,NA,yellow,m_s_081.jpg,NA,NA,pleasant,unpleasant,NA,NA,NA,NA,NA,left,1396.5,true,NA,NA,NA,NA,NA
JN7UKaF3,32k26u12eq14p7ktnmss8y5zd9bdv8,3of2m9aatk1vzht7728km19dnbozka,JN7UKaF3,2020-0188,2021-10-14,10:14:02,11:28:27,NA,incomplete,false,NA,true,3,0,NA,NA,NA,right,absent,NA,NA,n_l_079.jpg,purple,n_l_055.jpg,red,between,NA,NaN,NA,right,7462.799999998882,1,0,1983
JN7UKaF3,32k26u12eq14p7ktnmss8y5zd9bdv8,3of2m9aatk1vzht7728km19dnbozka,JN7UKaF3,2020-0188,2021-10-14,10:14:02,11:28:27,NA,incomplete,false,NA,true,3,1,NA,NA,NA,left,absent,NA,NA,m_l_056.jpg,purple,n_l_074.jpg,purple,within,NA,NaN,NA,right,8198.900000000373,0,0,1814.800000000745
JN7UKaF3,32k26u12eq14p7ktnmss8y5zd9bdv8,3of2m9aatk1vzht7728km19dnbozka,JN7UKaF3,2020-0188,2021-10-14,10:14:02,11:28:27,NA,incomplete,false,NA,true,3,2,NA,NA,NA,right,absent,NA,NA,m_s_081.jpg,yellow,m_s_105.jpg,yellow,within,NA,NaN,NA,left,5455.199999999255,0,0,1871.1000000014901
JN7UKaF3,32k26u12eq14p7ktnmss8y5zd9bdv8,3of2m9aatk1vzht7728km19dnbozka,JN7UKaF3,2020-0188,2021-10-14,10:14:02,11:28:27,NA,incomplete,false,NA,true,3,3,NA,NA,NA,right,absent,NA,NA,m_l_035.jpg,yellow,n_l_057.jpg,white,between,NA,NaN,NA,right,5198.800000000745,1,1,1479.300000000745
JN7UKaF3,32k26u12eq14p7ktnmss8y5zd9bdv8,3of2m9aatk1vzht7728km19dnbozka,JN7UKaF3,2020-0188,2021-10-14,10:14:02,11:28:27,NA,incomplete,false,NA,true,3,4,NA,NA,NA,left,absent,NA,NA,n_s_091.jpg,purple,m_s_021.jpg,blue,between,NA,NaN,NA,right,9199.599999999627,0,1,1726.800000000745
JN7UKaF3,32k26u12eq14p7ktnmss8y5zd9bdv8,3of2m9aatk1vzht7728km19dnbozka,JN7UKaF3,2020-0188,2021-10-14,10:14:02,11:28:27,NA,incomplete,false,NA,true,3,5,NA,NA,NA,left,absent,NA,NA,n_s_106.jpg,blue,n_l_035.jpg,orange,between,NA,NaN,NA,left,2111.4000000003725,1,1,2791.4000000003725
JN7UKaF3,32k26u12eq14p7ktnmss8y5zd9bdv8,3of2m9aatk1vzht7728km19dnbozka,JN7UKaF3,2020-0188,2021-10-14,10:14:02,11:28:27,NA,incomplete,false,NA,true,3,6,NA,NA,NA,right,absent,NA,NA,m_s_086.jpg,red,m_s_076.jpg,red,within,NA,NaN,NA,right,1911.4000000003725,1,1,1160.2999999988824
JN7UKaF3,32k26u12eq14p7ktnmss8y5zd9bdv8,3of2m9aatk1vzht7728km19dnbozka,JN7UKaF3,2020-0188,2021-10-14,10:14:02,11:28:27,NA,incomplete,false,NA,true,3,7,NA,NA,NA,right,absent,NA,NA,n_l_050.jpg,white,n_s_105.jpg,orange,between,NA,NaN,NA,right,3223.5,1,0,927.6999999992549
JN7UKaF3,32k26u12eq14p7ktnmss8y5zd9bdv8,3of2m9aatk1vzht7728km19dnbozka,JN7UKaF3,2020-0188,2021-10-14,10:14:02,11:28:27,NA,incomplete,false,NA,true,3,8,NA,NA,NA,right,absent,NA,NA,n_l_054.jpg,blue,m_s_059.jpg,blue,within,NA,NaN,NA,right,3303.2999999988824,1,1,717.5999999996275
JN7UKaF3,32k26u12eq14p7ktnmss8y5zd9bdv8,3of2m9aatk1vzht7728km19dnbozka,JN7UKaF3,2020-0188,2021-10-14,10:14:02,11:28:27,NA,incomplete,false,NA,true,3,9,NA,NA,NA,right,absent,NA,NA,n_l_009.jpg,orange,m_l_051.jpg,orange,within,NA,NaN,NA,right,4223.200000001118,1,2,1655.5
JN7UKaF3,32k26u12eq14p7ktnmss8y5zd9bdv8,3of2m9aatk1vzht7728km19dnbozka,JN7UKaF3,2020-0188,2021-10-14,10:14:02,11:28:27,NA,incomplete,false,NA,true,3,10,NA,NA,NA,right,absent,NA,NA,m_l_016.jpg,white,m_l_062.jpg,white,within,NA,NaN,NA,left,2775.4000000003725,0,1,2487.2000000011176
JN7UKaF3,32k26u12eq14p7ktnmss8y5zd9bdv8,3of2m9aatk1vzht7728km19dnbozka,JN7UKaF3,2020-0188,2021-10-14,10:14:02,11:28:27,NA,incomplete,false,true,NA,4,0,NA,purple,m_s_058.jpg,NA,NA,pleasant,unpleasant,NA,NA,NA,NA,NA,left,2501.79999999888,true,NA,NA,NA,NA,NA
JN7UKaF3,32k26u12eq14p7ktnmss8y5zd9bdv8,3of2m9aatk1vzht7728km19dnbozka,JN7UKaF3,2020-0188,2021-10-14,10:14:02,11:28:27,NA,incomplete,false,true,NA,4,1,NA,purple,n_l_084.jpg,NA,NA,pleasant,unpleasant,NA,NA,NA,NA,NA,right,1977.29999999888,true,NA,NA,NA,NA,NA
JN7UKaF3,32k26u12eq14p7ktnmss8y5zd9bdv8,3of2m9aatk1vzht7728km19dnbozka,JN7UKaF3,2020-0188,2021-10-14,10:14:02,11:28:27,NA,incomplete,false,true,NA,4,2,NA,purple,n_s_090.jpg,NA,NA,unpleasant,pleasant,NA,NA,NA,NA,NA,right,2235.30000000075,true,NA,NA,NA,NA,NA
JN7UKaF3,32k26u12eq14p7ktnmss8y5zd9bdv8,3of2m9aatk1vzht7728km19dnbozka,JN7UKaF3,2020-0188,2021-10-14,10:14:02,11:28:27,NA,incomplete,false,true,NA,4,3,NA,purple,n_s_104.jpg,NA,NA,unpleasant,pleasant,NA,NA,NA,NA,NA,right,1403.59999999963,true,NA,NA,NA,NA,NA
JN7UKaF3,32k26u12eq14p7ktnmss8y5zd9bdv8,3of2m9aatk1vzht7728km19dnbozka,JN7UKaF3,2020-0188,2021-10-14,10:14:02,11:28:27,NA,incomplete,false,true,NA,4,4,NA,purple,m_l_021.jpg,NA,NA,pleasant,unpleasant,NA,NA,NA,NA,NA,left,1423.80000000075,true,NA,NA,NA,NA,NA
JN7UKaF3,32k26u12eq14p7ktnmss8y5zd9bdv8,3of2m9aatk1vzht7728km19dnbozka,JN7UKaF3,2020-0188,2021-10-14,10:14:02,11:28:27,NA,incomplete,false,true,NA,4,5,NA,purple,n_l_111.jpg,NA,NA,pleasant,unpleasant,NA,NA,NA,NA,NA,right,643.60000000149,true,NA,NA,NA,NA,NA
JN7UKaF3,32k26u12eq14p7ktnmss8y5zd9bdv8,3of2m9aatk1vzht7728km19dnbozka,JN7UKaF3,2020-0188,2021-10-14,10:14:02,11:28:27,NA,incomplete,false,true,NA,4,6,NA,orange,m_l_037.jpg,NA,NA,pleasant,unpleasant,NA,NA,NA,NA,NA,right,584.300000000745,true,NA,NA,NA,NA,NA
JN7UKaF3,32k26u12eq14p7ktnmss8y5zd9bdv8,3of2m9aatk1vzht7728km19dnbozka,JN7UKaF3,2020-0188,2021-10-14,10:14:02,11:28:27,NA,incomplete,false,true,NA,4,7,NA,orange,m_l_112.jpg,NA,NA,pleasant,unpleasant,NA,NA,NA,NA,NA,left,1764.69999999925,true,NA,NA,NA,NA,NA
JN7UKaF3,32k26u12eq14p7ktnmss8y5zd9bdv8,3of2m9aatk1vzht7728km19dnbozka,JN7UKaF3,2020-0188,2021-10-14,10:14:02,11:28:27,NA,incomplete,false,true,NA,4,8,NA,orange,m_l_100.jpg,NA,NA,pleasant,unpleasant,NA,NA,NA,NA,NA,right,970.5,true,NA,NA,NA,NA,NA
JN7UKaF3,32k26u12eq14p7ktnmss8y5zd9bdv8,3of2m9aatk1vzht7728km19dnbozka,JN7UKaF3,2020-0188,2021-10-14,10:14:02,11:28:27,NA,incomplete,false,true,NA,4,9,NA,orange,n_s_022.jpg,NA,NA,unpleasant,pleasant,NA,NA,NA,NA,NA,right,694,true,NA,NA,NA,NA,NA
JN7UKaF3,32k26u12eq14p7ktnmss8y5zd9bdv8,3of2m9aatk1vzht7728km19dnbozka,JN7UKaF3,2020-0188,2021-10-14,10:14:02,11:28:27,NA,incomplete,false,true,NA,4,10,NA,orange,n_l_048.jpg,NA,NA,pleasant,unpleasant,NA,NA,NA,NA,NA,right,533.200000001118,true,NA,NA,NA,NA,NA
JN7UKaF3,32k26u12eq14p7ktnmss8y5zd9bdv8,3of2m9aatk1vzht7728km19dnbozka,JN7UKaF3,2020-0188,2021-10-14,10:14:02,11:28:27,NA,incomplete,false,true,NA,4,11,NA,orange,n_s_050.jpg,NA,NA,unpleasant,pleasant,NA,NA,NA,NA,NA,left,544.900000000373,true,NA,NA,NA,NA,NA
JN7UKaF3,32k26u12eq14p7ktnmss8y5zd9bdv8,3of2m9aatk1vzht7728km19dnbozka,JN7UKaF3,2020-0188,2021-10-14,10:14:02,11:28:27,NA,incomplete,false,true,NA,4,12,NA,black,n_l_031.jpg,NA,NA,unpleasant,pleasant,NA,NA,NA,NA,NA,left,484.900000000373,true,NA,NA,NA,NA,NA
JN7UKaF3,32k26u12eq14p7ktnmss8y5zd9bdv8,3of2m9aatk1vzht7728km19dnbozka,JN7UKaF3,2020-0188,2021-10-14,10:14:02,11:28:27,NA,incomplete,false,true,NA,4,13,NA,black,n_s_051.jpg,NA,NA,pleasant,unpleasant,NA,NA,NA,NA,NA,right,363.89999999851,true,NA,NA,NA,NA,NA
JN7UKaF3,32k26u12eq14p7ktnmss8y5zd9bdv8,3of2m9aatk1vzht7728km19dnbozka,JN7UKaF3,2020-0188,2021-10-14,10:14:02,11:28:27,NA,incomplete,false,true,NA,4,14,NA,black,n_s_089.jpg,NA,NA,pleasant,unpleasant,NA,NA,NA,NA,NA,right,542.700000001118,true,NA,NA,NA,NA,NA
JN7UKaF3,32k26u12eq14p7ktnmss8y5zd9bdv8,3of2m9aatk1vzht7728km19dnbozka,JN7UKaF3,2020-0188,2021-10-14,10:14:02,11:28:27,NA,incomplete,false,true,NA,4,15,NA,black,n_s_086.jpg,NA,NA,unpleasant,pleasant,NA,NA,NA,NA,NA,left,1252.59999999963,true,NA,NA,NA,NA,NA
JN7UKaF3,32k26u12eq14p7ktnmss8y5zd9bdv8,3of2m9aatk1vzht7728km19dnbozka,JN7UKaF3,2020-0188,2021-10-14,10:14:02,11:28:27,NA,incomplete,false,true,NA,4,16,NA,black,m_s_038.jpg,NA,NA,pleasant,unpleasant,NA,NA,NA,NA,NA,right,1017.69999999925,true,NA,NA,NA,NA,NA
JN7UKaF3,32k26u12eq14p7ktnmss8y5zd9bdv8,3of2m9aatk1vzht7728km19dnbozka,JN7UKaF3,2020-0188,2021-10-14,10:14:02,11:28:27,NA,incomplete,false,true,NA,4,17,NA,black,n_l_069.jpg,NA,NA,pleasant,unpleasant,NA,NA,NA,NA,NA,right,605.10000000149,true,NA,NA,NA,NA,NA
JN7UKaF3,32k26u12eq14p7ktnmss8y5zd9bdv8,3of2m9aatk1vzht7728km19dnbozka,JN7UKaF3,2020-0188,2021-10-14,10:14:02,11:28:27,NA,incomplete,false,true,NA,4,18,NA,blue,n_s_042.jpg,NA,NA,unpleasant,pleasant,NA,NA,NA,NA,NA,left,953.400000000373,true,NA,NA,NA,NA,NA
JN7UKaF3,32k26u12eq14p7ktnmss8y5zd9bdv8,3of2m9aatk1vzht7728km19dnbozka,JN7UKaF3,2020-0188,2021-10-14,10:14:02,11:28:27,NA,incomplete,false,true,NA,4,19,NA,blue,m_s_034.jpg,NA,NA,unpleasant,pleasant,NA,NA,NA,NA,NA,right,855.099999999627,true,NA,NA,NA,NA,NA
JN7UKaF3,32k26u12eq14p7ktnmss8y5zd9bdv8,3of2m9aatk1vzht7728km19dnbozka,JN7UKaF3,2020-0188,2021-10-14,10:14:02,11:28:27,NA,incomplete,false,true,NA,4,20,NA,blue,m_l_089.jpg,NA,NA,pleasant,unpleasant,NA,NA,NA,NA,NA,right,529.299999998882,true,NA,NA,NA,NA,NA
JN7UKaF3,32k26u12eq14p7ktnmss8y5zd9bdv8,3of2m9aatk1vzht7728km19dnbozka,JN7UKaF3,2020-0188,2021-10-14,10:14:02,11:28:27,NA,incomplete,false,true,NA,4,21,NA,blue,m_s_066.jpg,NA,NA,pleasant,unpleasant,NA,NA,NA,NA,NA,right,774.900000000373,true,NA,NA,NA,NA,NA
JN7UKaF3,32k26u12eq14p7ktnmss8y5zd9bdv8,3of2m9aatk1vzht7728km19dnbozka,JN7UKaF3,2020-0188,2021-10-14,10:14:02,11:28:27,NA,incomplete,false,true,NA,4,22,NA,blue,n_s_069.jpg,NA,NA,pleasant,unpleasant,NA,NA,NA,NA,NA,left,1028.5,true,NA,NA,NA,NA,NA
JN7UKaF3,32k26u12eq14p7ktnmss8y5zd9bdv8,3of2m9aatk1vzht7728km19dnbozka,JN7UKaF3,2020-0188,2021-10-14,10:14:02,11:28:27,NA,incomplete,false,true,NA,4,23,NA,blue,m_l_008.jpg,NA,NA,unpleasant,pleasant,NA,NA,NA,NA,NA,left,608.200000001118,true,NA,NA,NA,NA,NA
JN7UKaF3,32k26u12eq14p7ktnmss8y5zd9bdv8,3of2m9aatk1vzht7728km19dnbozka,JN7UKaF3,2020-0188,2021-10-14,10:14:02,11:28:27,NA,incomplete,false,true,NA,4,24,NA,green,n_s_067.jpg,NA,NA,pleasant,unpleasant,NA,NA,NA,NA,NA,left,556.5,true,NA,NA,NA,NA,NA
JN7UKaF3,32k26u12eq14p7ktnmss8y5zd9bdv8,3of2m9aatk1vzht7728km19dnbozka,JN7UKaF3,2020-0188,2021-10-14,10:14:02,11:28:27,NA,incomplete,false,true,NA,4,25,NA,green,n_l_096.jpg,NA,NA,pleasant,unpleasant,NA,NA,NA,NA,NA,right,866,true,NA,NA,NA,NA,NA
JN7UKaF3,32k26u12eq14p7ktnmss8y5zd9bdv8,3of2m9aatk1vzht7728km19dnbozka,JN7UKaF3,2020-0188,2021-10-14,10:14:02,11:28:27,NA,incomplete,false,true,NA,4,26,NA,green,m_l_022.jpg,NA,NA,pleasant,unpleasant,NA,NA,NA,NA,NA,left,797.400000000373,true,NA,NA,NA,NA,NA
JN7UKaF3,32k26u12eq14p7ktnmss8y5zd9bdv8,3of2m9aatk1vzht7728km19dnbozka,JN7UKaF3,2020-0188,2021-10-14,10:14:02,11:28:27,NA,incomplete,false,true,NA,4,27,NA,green,m_s_060.jpg,NA,NA,pleasant,unpleasant,NA,NA,NA,NA,NA,left,554.900000000373,true,NA,NA,NA,NA,NA
JN7UKaF3,32k26u12eq14p7ktnmss8y5zd9bdv8,3of2m9aatk1vzht7728km19dnbozka,JN7UKaF3,2020-0188,2021-10-14,10:14:02,11:28:27,NA,incomplete,false,true,NA,4,28,NA,green,n_l_102.jpg,NA,NA,pleasant,unpleasant,NA,NA,NA,NA,NA,left,577.5,true,NA,NA,NA,NA,NA
JN7UKaF3,32k26u12eq14p7ktnmss8y5zd9bdv8,3of2m9aatk1vzht7728km19dnbozka,JN7UKaF3,2020-0188,2021-10-14,10:14:02,11:28:27,NA,incomplete,false,true,NA,4,29,NA,green,m_s_065.jpg,NA,NA,pleasant,unpleasant,NA,NA,NA,NA,NA,right,956.200000001118,true,NA,NA,NA,NA,NA
JN7UKaF3,32k26u12eq14p7ktnmss8y5zd9bdv8,3of2m9aatk1vzht7728km19dnbozka,JN7UKaF3,2020-0188,2021-10-14,10:14:02,11:28:27,NA,incomplete,false,true,NA,4,30,NA,yellow,m_l_059.jpg,NA,NA,unpleasant,pleasant,NA,NA,NA,NA,NA,right,512.800000000745,true,NA,NA,NA,NA,NA
JN7UKaF3,32k26u12eq14p7ktnmss8y5zd9bdv8,3of2m9aatk1vzht7728km19dnbozka,JN7UKaF3,2020-0188,2021-10-14,10:14:02,11:28:27,NA,incomplete,false,true,NA,4,31,NA,yellow,n_s_040.jpg,NA,NA,pleasant,unpleasant,NA,NA,NA,NA,NA,right,557,true,NA,NA,NA,NA,NA
JN7UKaF3,32k26u12eq14p7ktnmss8y5zd9bdv8,3of2m9aatk1vzht7728km19dnbozka,JN7UKaF3,2020-0188,2021-10-14,10:14:02,11:28:27,NA,incomplete,false,true,NA,4,32,NA,yellow,n_s_072.jpg,NA,NA,unpleasant,pleasant,NA,NA,NA,NA,NA,left,895.700000001118,true,NA,NA,NA,NA,NA
JN7UKaF3,32k26u12eq14p7ktnmss8y5zd9bdv8,3of2m9aatk1vzht7728km19dnbozka,JN7UKaF3,2020-0188,2021-10-14,10:14:02,11:28:27,NA,incomplete,false,true,NA,4,33,NA,yellow,m_l_077.jpg,NA,NA,unpleasant,pleasant,NA,NA,NA,NA,NA,left,1070,true,NA,NA,NA,NA,NA
JN7UKaF3,32k26u12eq14p7ktnmss8y5zd9bdv8,3of2m9aatk1vzht7728km19dnbozka,JN7UKaF3,2020-0188,2021-10-14,10:14:02,11:28:27,NA,incomplete,false,true,NA,4,34,NA,yellow,m_l_096.jpg,NA,NA,unpleasant,pleasant,NA,NA,NA,NA,NA,left,660.400000000373,true,NA,NA,NA,NA,NA
JN7UKaF3,32k26u12eq14p7ktnmss8y5zd9bdv8,3of2m9aatk1vzht7728km19dnbozka,JN7UKaF3,2020-0188,2021-10-14,10:14:02,11:28:27,NA,incomplete,false,true,NA,4,35,NA,yellow,n_l_020.jpg,NA,NA,pleasant,unpleasant,NA,NA,NA,NA,NA,left,719.300000000745,true,NA,NA,NA,NA,NA
JN7UKaF3,32k26u12eq14p7ktnmss8y5zd9bdv8,3of2m9aatk1vzht7728km19dnbozka,JN7UKaF3,2020-0188,2021-10-14,10:14:02,11:28:27,NA,incomplete,false,NA,true,4,0,NA,NA,NA,left,present,NA,NA,m_l_021.jpg,purple,m_l_100.jpg,orange,between,NA,NaN,NA,left,3655.300000000745,1,1,1695.2999999988824
JN7UKaF3,32k26u12eq14p7ktnmss8y5zd9bdv8,3of2m9aatk1vzht7728km19dnbozka,JN7UKaF3,2020-0188,2021-10-14,10:14:02,11:28:27,NA,incomplete,false,NA,true,4,1,NA,NA,NA,right,present,NA,NA,m_l_089.jpg,blue,m_s_038.jpg,black,between,NA,NaN,NA,right,3799.300000000745,1,1,1431.5999999996275
JN7UKaF3,32k26u12eq14p7ktnmss8y5zd9bdv8,3of2m9aatk1vzht7728km19dnbozka,JN7UKaF3,2020-0188,2021-10-14,10:14:02,11:28:27,NA,incomplete,false,NA,true,4,2,NA,NA,NA,right,present,NA,NA,n_l_111.jpg,purple,n_l_084.jpg,purple,within,NA,NaN,NA,right,3959.5999999996275,1,1,1599.5999999996275
JN7UKaF3,32k26u12eq14p7ktnmss8y5zd9bdv8,3of2m9aatk1vzht7728km19dnbozka,JN7UKaF3,2020-0188,2021-10-14,10:14:02,11:28:27,NA,incomplete,false,NA,true,4,3,NA,NA,NA,left,present,NA,NA,m_l_112.jpg,orange,n_s_050.jpg,orange,within,NA,NaN,NA,right,2719.300000000745,0,1,2351.199999999255
JN7UKaF3,32k26u12eq14p7ktnmss8y5zd9bdv8,3of2m9aatk1vzht7728km19dnbozka,JN7UKaF3,2020-0188,2021-10-14,10:14:02,11:28:27,NA,incomplete,false,NA,true,4,4,NA,NA,NA,right,present,NA,NA,m_l_008.jpg,blue,m_s_034.jpg,blue,within,NA,NaN,NA,right,7495.5,1,0,967.4000000003725
JN7UKaF3,32k26u12eq14p7ktnmss8y5zd9bdv8,3of2m9aatk1vzht7728km19dnbozka,JN7UKaF3,2020-0188,2021-10-14,10:14:02,11:28:27,NA,incomplete,false,NA,true,4,5,NA,NA,NA,left,present,NA,NA,n_s_069.jpg,blue,m_l_022.jpg,green,between,NA,NaN,NA,right,5463.299999998882,0,0,2127.5
JN7UKaF3,32k26u12eq14p7ktnmss8y5zd9bdv8,3of2m9aatk1vzht7728km19dnbozka,JN7UKaF3,2020-0188,2021-10-14,10:14:02,11:28:27,NA,incomplete,false,NA,true,4,6,NA,NA,NA,right,present,NA,NA,n_l_020.jpg,yellow,n_s_040.jpg,yellow,within,NA,NaN,NA,left,5439.200000001118,0,0,1263
JN7UKaF3,32k26u12eq14p7ktnmss8y5zd9bdv8,3of2m9aatk1vzht7728km19dnbozka,JN7UKaF3,2020-0188,2021-10-14,10:14:02,11:28:27,NA,incomplete,false,NA,true,4,7,NA,NA,NA,left,present,NA,NA,n_l_096.jpg,green,m_s_065.jpg,green,within,NA,NaN,NA,left,4991.199999999255,1,0,1863.3999999985099
JN7UKaF3,32k26u12eq14p7ktnmss8y5zd9bdv8,3of2m9aatk1vzht7728km19dnbozka,JN7UKaF3,2020-0188,2021-10-14,10:14:02,11:28:27,NA,incomplete,false,NA,true,4,8,NA,NA,NA,right,present,NA,NA,n_s_072.jpg,yellow,n_l_102.jpg,green,between,NA,NaN,NA,left,3927,0,1,711.2999999988824
JN7UKaF3,32k26u12eq14p7ktnmss8y5zd9bdv8,3of2m9aatk1vzht7728km19dnbozka,JN7UKaF3,2020-0188,2021-10-14,10:14:02,11:28:27,NA,incomplete,false,NA,true,4,9,NA,NA,NA,left,present,NA,NA,n_l_048.jpg,orange,n_s_089.jpg,black,between,NA,NaN,NA,right,2959.2000000011176,0,2,1471.5
JN7UKaF3,32k26u12eq14p7ktnmss8y5zd9bdv8,3of2m9aatk1vzht7728km19dnbozka,JN7UKaF3,2020-0188,2021-10-14,10:14:02,11:28:27,NA,incomplete,false,NA,true,4,10,NA,NA,NA,left,present,NA,NA,n_s_051.jpg,black,n_l_069.jpg,black,within,NA,NaN,NA,left,4343,1,2,807.2999999988824
JN7UKaF3,32k26u12eq14p7ktnmss8y5zd9bdv8,3of2m9aatk1vzht7728km19dnbozka,JN7UKaF3,2020-0188,2021-10-14,10:14:02,11:28:27,NA,incomplete,false,true,NA,5,0,NA,brown,n_s_031.jpg,NA,NA,unpleasant,pleasant,NA,NA,NA,NA,NA,left,1605,true,NA,NA,NA,NA,NA
JN7UKaF3,32k26u12eq14p7ktnmss8y5zd9bdv8,3of2m9aatk1vzht7728km19dnbozka,JN7UKaF3,2020-0188,2021-10-14,10:14:02,11:28:27,NA,incomplete,false,true,NA,5,1,NA,brown,n_l_017.jpg,NA,NA,unpleasant,pleasant,NA,NA,NA,NA,NA,right,832.599999999627,true,NA,NA,NA,NA,NA
JN7UKaF3,32k26u12eq14p7ktnmss8y5zd9bdv8,3of2m9aatk1vzht7728km19dnbozka,JN7UKaF3,2020-0188,2021-10-14,10:14:02,11:28:27,NA,incomplete,false,true,NA,5,2,NA,brown,n_s_113.jpg,NA,NA,unpleasant,pleasant,NA,NA,NA,NA,NA,right,518.900000000373,true,NA,NA,NA,NA,NA
JN7UKaF3,32k26u12eq14p7ktnmss8y5zd9bdv8,3of2m9aatk1vzht7728km19dnbozka,JN7UKaF3,2020-0188,2021-10-14,10:14:02,11:28:27,NA,incomplete,false,true,NA,5,3,NA,brown,n_s_044.jpg,NA,NA,unpleasant,pleasant,NA,NA,NA,NA,NA,right,457.900000000373,true,NA,NA,NA,NA,NA
JN7UKaF3,32k26u12eq14p7ktnmss8y5zd9bdv8,3of2m9aatk1vzht7728km19dnbozka,JN7UKaF3,2020-0188,2021-10-14,10:14:02,11:28:27,NA,incomplete,false,true,NA,5,4,NA,brown,m_s_025.jpg,NA,NA,pleasant,unpleasant,NA,NA,NA,NA,NA,left,374.099999999627,true,NA,NA,NA,NA,NA
JN7UKaF3,32k26u12eq14p7ktnmss8y5zd9bdv8,3of2m9aatk1vzht7728km19dnbozka,JN7UKaF3,2020-0188,2021-10-14,10:14:02,11:28:27,NA,incomplete,false,true,NA,5,5,NA,brown,n_s_010.jpg,NA,NA,unpleasant,pleasant,NA,NA,NA,NA,NA,left,1506,true,NA,NA,NA,NA,NA
JN7UKaF3,32k26u12eq14p7ktnmss8y5zd9bdv8,3of2m9aatk1vzht7728km19dnbozka,JN7UKaF3,2020-0188,2021-10-14,10:14:02,11:28:27,NA,incomplete,false,true,NA,5,6,NA,green,n_s_005.jpg,NA,NA,pleasant,unpleasant,NA,NA,NA,NA,NA,left,1103,true,NA,NA,NA,NA,NA
JN7UKaF3,32k26u12eq14p7ktnmss8y5zd9bdv8,3of2m9aatk1vzht7728km19dnbozka,JN7UKaF3,2020-0188,2021-10-14,10:14:02,11:28:27,NA,incomplete,false,true,NA,5,7,NA,green,m_s_068.jpg,NA,NA,pleasant,unpleasant,NA,NA,NA,NA,NA,left,1602.29999999888,true,NA,NA,NA,NA,NA
JN7UKaF3,32k26u12eq14p7ktnmss8y5zd9bdv8,3of2m9aatk1vzht7728km19dnbozka,JN7UKaF3,2020-0188,2021-10-14,10:14:02,11:28:27,NA,incomplete,false,true,NA,5,8,NA,green,m_s_029.jpg,NA,NA,pleasant,unpleasant,NA,NA,NA,NA,NA,right,1881.20000000112,true,NA,NA,NA,NA,NA
JN7UKaF3,32k26u12eq14p7ktnmss8y5zd9bdv8,3of2m9aatk1vzht7728km19dnbozka,JN7UKaF3,2020-0188,2021-10-14,10:14:02,11:28:27,NA,incomplete,false,true,NA,5,9,NA,green,n_l_107.jpg,NA,NA,pleasant,unpleasant,NA,NA,NA,NA,NA,right,2180.69999999925,true,NA,NA,NA,NA,NA
JN7UKaF3,32k26u12eq14p7ktnmss8y5zd9bdv8,3of2m9aatk1vzht7728km19dnbozka,JN7UKaF3,2020-0188,2021-10-14,10:14:02,11:28:27,NA,incomplete,false,true,NA,5,10,NA,green,n_s_114.jpg,NA,NA,unpleasant,pleasant,NA,NA,NA,NA,NA,right,1761.69999999925,true,NA,NA,NA,NA,NA
JN7UKaF3,32k26u12eq14p7ktnmss8y5zd9bdv8,3of2m9aatk1vzht7728km19dnbozka,JN7UKaF3,2020-0188,2021-10-14,10:14:02,11:28:27,NA,incomplete,false,true,NA,5,11,NA,green,n_l_016.jpg,NA,NA,pleasant,unpleasant,NA,NA,NA,NA,NA,right,1879.80000000075,true,NA,NA,NA,NA,NA
JN7UKaF3,32k26u12eq14p7ktnmss8y5zd9bdv8,3of2m9aatk1vzht7728km19dnbozka,JN7UKaF3,2020-0188,2021-10-14,10:14:02,11:28:27,NA,incomplete,false,true,NA,5,12,NA,purple,n_l_037.jpg,NA,NA,unpleasant,pleasant,NA,NA,NA,NA,NA,left,1266.69999999925,true,NA,NA,NA,NA,NA
JN7UKaF3,32k26u12eq14p7ktnmss8y5zd9bdv8,3of2m9aatk1vzht7728km19dnbozka,JN7UKaF3,2020-0188,2021-10-14,10:14:02,11:28:27,NA,incomplete,false,true,NA,5,13,NA,purple,m_s_091.jpg,NA,NA,unpleasant,pleasant,NA,NA,NA,NA,NA,left,1616,true,NA,NA,NA,NA,NA
JN7UKaF3,32k26u12eq14p7ktnmss8y5zd9bdv8,3of2m9aatk1vzht7728km19dnbozka,JN7UKaF3,2020-0188,2021-10-14,10:14:02,11:28:27,NA,incomplete,false,true,NA,5,14,NA,purple,m_s_007.jpg,NA,NA,pleasant,unpleasant,NA,NA,NA,NA,NA,left,2566.30000000075,true,NA,NA,NA,NA,NA
JN7UKaF3,32k26u12eq14p7ktnmss8y5zd9bdv8,3of2m9aatk1vzht7728km19dnbozka,JN7UKaF3,2020-0188,2021-10-14,10:14:02,11:28:27,NA,incomplete,false,true,NA,5,15,NA,purple,n_s_077.jpg,NA,NA,pleasant,unpleasant,NA,NA,NA,NA,NA,left,1801.40000000037,true,NA,NA,NA,NA,NA
JN7UKaF3,32k26u12eq14p7ktnmss8y5zd9bdv8,3of2m9aatk1vzht7728km19dnbozka,JN7UKaF3,2020-0188,2021-10-14,10:14:02,11:28:27,NA,incomplete,false,true,NA,5,16,NA,purple,n_l_062.jpg,NA,NA,pleasant,unpleasant,NA,NA,NA,NA,NA,left,2413.19999999925,true,NA,NA,NA,NA,NA
JN7UKaF3,32k26u12eq14p7ktnmss8y5zd9bdv8,3of2m9aatk1vzht7728km19dnbozka,JN7UKaF3,2020-0188,2021-10-14,10:14:02,11:28:27,NA,incomplete,false,true,NA,5,17,NA,purple,n_l_086.jpg,NA,NA,pleasant,unpleasant,NA,NA,NA,NA,NA,left,1835.39999999851,true,NA,NA,NA,NA,NA
JN7UKaF3,32k26u12eq14p7ktnmss8y5zd9bdv8,3of2m9aatk1vzht7728km19dnbozka,JN7UKaF3,2020-0188,2021-10-14,10:14:02,11:28:27,NA,incomplete,false,true,NA,5,18,NA,white,m_s_085.jpg,NA,NA,unpleasant,pleasant,NA,NA,NA,NA,NA,right,1478.90000000037,true,NA,NA,NA,NA,NA
JN7UKaF3,32k26u12eq14p7ktnmss8y5zd9bdv8,3of2m9aatk1vzht7728km19dnbozka,JN7UKaF3,2020-0188,2021-10-14,10:14:02,11:28:27,NA,incomplete,false,true,NA,5,19,NA,white,n_s_024.jpg,NA,NA,pleasant,unpleasant,NA,NA,NA,NA,NA,left,1051.80000000075,true,NA,NA,NA,NA,NA
JN7UKaF3,32k26u12eq14p7ktnmss8y5zd9bdv8,3of2m9aatk1vzht7728km19dnbozka,JN7UKaF3,2020-0188,2021-10-14,10:14:02,11:28:27,NA,incomplete,false,true,NA,5,20,NA,white,m_l_114.jpg,NA,NA,unpleasant,pleasant,NA,NA,NA,NA,NA,right,1410.20000000112,true,NA,NA,NA,NA,NA
JN7UKaF3,32k26u12eq14p7ktnmss8y5zd9bdv8,3of2m9aatk1vzht7728km19dnbozka,JN7UKaF3,2020-0188,2021-10-14,10:14:02,11:28:27,NA,incomplete,false,true,NA,5,21,NA,white,n_s_094.jpg,NA,NA,pleasant,unpleasant,NA,NA,NA,NA,NA,left,1014.40000000037,true,NA,NA,NA,NA,NA
JN7UKaF3,32k26u12eq14p7ktnmss8y5zd9bdv8,3of2m9aatk1vzht7728km19dnbozka,JN7UKaF3,2020-0188,2021-10-14,10:14:02,11:28:27,NA,incomplete,false,true,NA,5,22,NA,white,m_l_076.jpg,NA,NA,unpleasant,pleasant,NA,NA,NA,NA,NA,right,1530.90000000037,true,NA,NA,NA,NA,NA
JN7UKaF3,32k26u12eq14p7ktnmss8y5zd9bdv8,3of2m9aatk1vzht7728km19dnbozka,JN7UKaF3,2020-0188,2021-10-14,10:14:02,11:28:27,NA,incomplete,false,true,NA,5,23,NA,white,n_l_065.jpg,NA,NA,pleasant,unpleasant,NA,NA,NA,NA,NA,right,1920.20000000112,true,NA,NA,NA,NA,NA
JN7UKaF3,32k26u12eq14p7ktnmss8y5zd9bdv8,3of2m9aatk1vzht7728km19dnbozka,JN7UKaF3,2020-0188,2021-10-14,10:14:02,11:28:27,NA,incomplete,false,true,NA,5,24,NA,orange,n_s_081.jpg,NA,NA,unpleasant,pleasant,NA,NA,NA,NA,NA,left,2292.59999999963,true,NA,NA,NA,NA,NA
JN7UKaF3,32k26u12eq14p7ktnmss8y5zd9bdv8,3of2m9aatk1vzht7728km19dnbozka,JN7UKaF3,2020-0188,2021-10-14,10:14:02,11:28:27,NA,incomplete,false,true,NA,5,25,NA,orange,m_s_093.jpg,NA,NA,unpleasant,pleasant,NA,NA,NA,NA,NA,right,1201.60000000149,true,NA,NA,NA,NA,NA
JN7UKaF3,32k26u12eq14p7ktnmss8y5zd9bdv8,3of2m9aatk1vzht7728km19dnbozka,JN7UKaF3,2020-0188,2021-10-14,10:14:02,11:28:27,NA,incomplete,false,true,NA,5,26,NA,orange,m_l_004.jpg,NA,NA,unpleasant,pleasant,NA,NA,NA,NA,NA,right,1231,true,NA,NA,NA,NA,NA
JN7UKaF3,32k26u12eq14p7ktnmss8y5zd9bdv8,3of2m9aatk1vzht7728km19dnbozka,JN7UKaF3,2020-0188,2021-10-14,10:14:02,11:28:27,NA,incomplete,false,true,NA,5,27,NA,orange,n_s_055.jpg,NA,NA,unpleasant,pleasant,NA,NA,NA,NA,NA,right,1610.59999999963,true,NA,NA,NA,NA,NA
JN7UKaF3,32k26u12eq14p7ktnmss8y5zd9bdv8,3of2m9aatk1vzht7728km19dnbozka,JN7UKaF3,2020-0188,2021-10-14,10:14:02,11:28:27,NA,incomplete,false,true,NA,5,28,NA,orange,n_s_078.jpg,NA,NA,unpleasant,pleasant,NA,NA,NA,NA,NA,right,1487.69999999925,true,NA,NA,NA,NA,NA
JN7UKaF3,32k26u12eq14p7ktnmss8y5zd9bdv8,3of2m9aatk1vzht7728km19dnbozka,JN7UKaF3,2020-0188,2021-10-14,10:14:02,11:28:27,NA,incomplete,false,true,NA,5,29,NA,orange,m_l_026.jpg,NA,NA,pleasant,unpleasant,NA,NA,NA,NA,NA,left,1277.19999999925,true,NA,NA,NA,NA,NA
JN7UKaF3,32k26u12eq14p7ktnmss8y5zd9bdv8,3of2m9aatk1vzht7728km19dnbozka,JN7UKaF3,2020-0188,2021-10-14,10:14:02,11:28:27,NA,incomplete,false,true,NA,5,30,NA,red,n_s_058.jpg,NA,NA,pleasant,unpleasant,NA,NA,NA,NA,NA,left,1193.20000000112,true,NA,NA,NA,NA,NA
JN7UKaF3,32k26u12eq14p7ktnmss8y5zd9bdv8,3of2m9aatk1vzht7728km19dnbozka,JN7UKaF3,2020-0188,2021-10-14,10:14:02,11:28:27,NA,incomplete,false,true,NA,5,31,NA,red,n_s_084.jpg,NA,NA,unpleasant,pleasant,NA,NA,NA,NA,NA,left,1397.19999999925,true,NA,NA,NA,NA,NA
JN7UKaF3,32k26u12eq14p7ktnmss8y5zd9bdv8,3of2m9aatk1vzht7728km19dnbozka,JN7UKaF3,2020-0188,2021-10-14,10:14:02,11:28:27,NA,incomplete,false,true,NA,5,32,NA,red,n_s_066.jpg,NA,NA,unpleasant,pleasant,NA,NA,NA,NA,NA,right,1019.89999999851,true,NA,NA,NA,NA,NA
JN7UKaF3,32k26u12eq14p7ktnmss8y5zd9bdv8,3of2m9aatk1vzht7728km19dnbozka,JN7UKaF3,2020-0188,2021-10-14,10:14:02,11:28:27,NA,incomplete,false,true,NA,5,33,NA,red,m_s_006.jpg,NA,NA,pleasant,unpleasant,NA,NA,NA,NA,NA,left,1223.69999999925,true,NA,NA,NA,NA,NA
JN7UKaF3,32k26u12eq14p7ktnmss8y5zd9bdv8,3of2m9aatk1vzht7728km19dnbozka,JN7UKaF3,2020-0188,2021-10-14,10:14:02,11:28:27,NA,incomplete,false,true,NA,5,34,NA,red,m_l_052.jpg,NA,NA,pleasant,unpleasant,NA,NA,NA,NA,NA,left,1131.19999999925,true,NA,NA,NA,NA,NA
JN7UKaF3,32k26u12eq14p7ktnmss8y5zd9bdv8,3of2m9aatk1vzht7728km19dnbozka,JN7UKaF3,2020-0188,2021-10-14,10:14:02,11:28:27,NA,incomplete,false,true,NA,5,35,NA,red,m_l_086.jpg,NA,NA,pleasant,unpleasant,NA,NA,NA,NA,NA,left,880.5,true,NA,NA,NA,NA,NA
JN7UKaF3,32k26u12eq14p7ktnmss8y5zd9bdv8,3of2m9aatk1vzht7728km19dnbozka,JN7UKaF3,2020-0188,2021-10-14,10:14:02,11:28:27,NA,incomplete,false,NA,true,5,0,NA,NA,NA,left,absent,NA,NA,m_s_068.jpg,green,n_l_016.jpg,green,within,NA,NaN,NA,left,3759,1,1,1039.300000000745
JN7UKaF3,32k26u12eq14p7ktnmss8y5zd9bdv8,3of2m9aatk1vzht7728km19dnbozka,JN7UKaF3,2020-0188,2021-10-14,10:14:02,11:28:27,NA,incomplete,false,NA,true,5,1,NA,NA,NA,right,absent,NA,NA,m_l_086.jpg,red,n_s_084.jpg,red,within,NA,NaN,NA,left,3063.4000000003725,0,2,2463.199999999255
JN7UKaF3,32k26u12eq14p7ktnmss8y5zd9bdv8,3of2m9aatk1vzht7728km19dnbozka,JN7UKaF3,2020-0188,2021-10-14,10:14:02,11:28:27,NA,incomplete,false,NA,true,5,2,NA,NA,NA,right,absent,NA,NA,m_s_029.jpg,green,m_s_025.jpg,brown,between,NA,NaN,NA,left,2223.300000000745,0,0,2023.0999999996275
JN7UKaF3,32k26u12eq14p7ktnmss8y5zd9bdv8,3of2m9aatk1vzht7728km19dnbozka,JN7UKaF3,2020-0188,2021-10-14,10:14:02,11:28:27,NA,incomplete,false,NA,true,5,3,NA,NA,NA,right,absent,NA,NA,m_l_114.jpg,white,n_l_062.jpg,purple,between,NA,NaN,NA,right,2295.199999999255,1,2,1815.1000000014901
JN7UKaF3,32k26u12eq14p7ktnmss8y5zd9bdv8,3of2m9aatk1vzht7728km19dnbozka,JN7UKaF3,2020-0188,2021-10-14,10:14:02,11:28:27,NA,incomplete,false,NA,true,5,4,NA,NA,NA,right,absent,NA,NA,n_l_086.jpg,purple,m_s_091.jpg,purple,within,NA,NaN,NA,right,2151.2000000011176,1,1,4287.10000000149
JN7UKaF3,32k26u12eq14p7ktnmss8y5zd9bdv8,3of2m9aatk1vzht7728km19dnbozka,JN7UKaF3,2020-0188,2021-10-14,10:14:02,11:28:27,NA,incomplete,false,NA,true,5,5,NA,NA,NA,right,absent,NA,NA,n_l_065.jpg,white,n_s_024.jpg,white,within,NA,NaN,NA,right,2567.2000000011176,1,1,1247
JN7UKaF3,32k26u12eq14p7ktnmss8y5zd9bdv8,3of2m9aatk1vzht7728km19dnbozka,JN7UKaF3,2020-0188,2021-10-14,10:14:02,11:28:27,NA,incomplete,false,NA,true,5,6,NA,NA,NA,right,absent,NA,NA,n_s_010.jpg,brown,n_l_017.jpg,brown,within,NA,NaN,NA,left,8655.400000000373,0,1,3415.5999999996275
JN7UKaF3,32k26u12eq14p7ktnmss8y5zd9bdv8,3of2m9aatk1vzht7728km19dnbozka,JN7UKaF3,2020-0188,2021-10-14,10:14:02,11:28:27,NA,incomplete,false,NA,true,5,7,NA,NA,NA,right,absent,NA,NA,m_l_004.jpg,orange,m_l_076.jpg,white,between,NA,NaN,NA,right,7335.5,1,0,1063.5999999996275
JN7UKaF3,32k26u12eq14p7ktnmss8y5zd9bdv8,3of2m9aatk1vzht7728km19dnbozka,JN7UKaF3,2020-0188,2021-10-14,10:14:02,11:28:27,NA,incomplete,false,NA,true,5,8,NA,NA,NA,left,absent,NA,NA,n_s_078.jpg,orange,n_s_066.jpg,red,between,NA,NaN,NA,left,8463.599999999627,1,1,1579.4000000003725
JN7UKaF3,32k26u12eq14p7ktnmss8y5zd9bdv8,3of2m9aatk1vzht7728km19dnbozka,JN7UKaF3,2020-0188,2021-10-14,10:14:02,11:28:27,NA,incomplete,false,NA,true,5,9,NA,NA,NA,right,absent,NA,NA,m_s_007.jpg,purple,n_s_114.jpg,green,between,NA,NaN,NA,right,3319.4000000003725,1,1,1655.4000000003725
JN7UKaF3,32k26u12eq14p7ktnmss8y5zd9bdv8,3of2m9aatk1vzht7728km19dnbozka,JN7UKaF3,2020-0188,2021-10-14,10:14:02,11:28:27,NA,incomplete,false,NA,true,5,10,NA,NA,NA,right,absent,NA,NA,m_l_026.jpg,orange,m_s_093.jpg,orange,within,NA,NaN,NA,right,2007.4000000003725,1,2,2023.2999999988824
JN7UKaF3,32k26u12eq14p7ktnmss8y5zd9bdv8,3of2m9aatk1vzht7728km19dnbozka,JN7UKaF3,2020-0188,2021-10-14,10:14:02,11:28:27,NA,incomplete,false,true,NA,6,0,NA,green,m_s_044.jpg,NA,NA,unpleasant,pleasant,NA,NA,NA,NA,NA,right,2638.40000000037,true,NA,NA,NA,NA,NA
JN7UKaF3,32k26u12eq14p7ktnmss8y5zd9bdv8,3of2m9aatk1vzht7728km19dnbozka,JN7UKaF3,2020-0188,2021-10-14,10:14:02,11:28:27,NA,incomplete,false,true,NA,6,1,NA,green,n_l_022.jpg,NA,NA,unpleasant,pleasant,NA,NA,NA,NA,NA,right,1075.79999999888,true,NA,NA,NA,NA,NA
JN7UKaF3,32k26u12eq14p7ktnmss8y5zd9bdv8,3of2m9aatk1vzht7728km19dnbozka,JN7UKaF3,2020-0188,2021-10-14,10:14:02,11:28:27,NA,incomplete,false,true,NA,6,2,NA,green,m_s_094.jpg,NA,NA,pleasant,unpleasant,NA,NA,NA,NA,NA,right,1656.40000000037,true,NA,NA,NA,NA,NA
JN7UKaF3,32k26u12eq14p7ktnmss8y5zd9bdv8,3of2m9aatk1vzht7728km19dnbozka,JN7UKaF3,2020-0188,2021-10-14,10:14:02,11:28:27,NA,incomplete,false,true,NA,6,3,NA,green,n_s_016.jpg,NA,NA,unpleasant,pleasant,NA,NA,NA,NA,NA,right,1436.90000000037,true,NA,NA,NA,NA,NA
JN7UKaF3,32k26u12eq14p7ktnmss8y5zd9bdv8,3of2m9aatk1vzht7728km19dnbozka,JN7UKaF3,2020-0188,2021-10-14,10:14:02,11:28:27,NA,incomplete,false,true,NA,6,4,NA,green,n_l_039.jpg,NA,NA,unpleasant,pleasant,NA,NA,NA,NA,NA,right,1209.20000000112,true,NA,NA,NA,NA,NA
JN7UKaF3,32k26u12eq14p7ktnmss8y5zd9bdv8,3of2m9aatk1vzht7728km19dnbozka,JN7UKaF3,2020-0188,2021-10-14,10:14:02,11:28:27,NA,incomplete,false,true,NA,6,5,NA,green,m_l_057.jpg,NA,NA,unpleasant,pleasant,NA,NA,NA,NA,NA,left,1175.40000000037,true,NA,NA,NA,NA,NA
JN7UKaF3,32k26u12eq14p7ktnmss8y5zd9bdv8,3of2m9aatk1vzht7728km19dnbozka,JN7UKaF3,2020-0188,2021-10-14,10:14:02,11:28:27,NA,incomplete,false,true,NA,6,6,NA,brown,n_s_048.jpg,NA,NA,pleasant,unpleasant,NA,NA,NA,NA,NA,left,1842.40000000037,true,NA,NA,NA,NA,NA
JN7UKaF3,32k26u12eq14p7ktnmss8y5zd9bdv8,3of2m9aatk1vzht7728km19dnbozka,JN7UKaF3,2020-0188,2021-10-14,10:14:02,11:28:27,NA,incomplete,false,true,NA,6,7,NA,brown,m_l_030.jpg,NA,NA,unpleasant,pleasant,NA,NA,NA,NA,NA,left,1535,true,NA,NA,NA,NA,NA
JN7UKaF3,32k26u12eq14p7ktnmss8y5zd9bdv8,3of2m9aatk1vzht7728km19dnbozka,JN7UKaF3,2020-0188,2021-10-14,10:14:02,11:28:27,NA,incomplete,false,true,NA,6,8,NA,brown,m_l_070.jpg,NA,NA,unpleasant,pleasant,NA,NA,NA,NA,NA,right,1556.69999999925,true,NA,NA,NA,NA,NA
JN7UKaF3,32k26u12eq14p7ktnmss8y5zd9bdv8,3of2m9aatk1vzht7728km19dnbozka,JN7UKaF3,2020-0188,2021-10-14,10:14:02,11:28:27,NA,incomplete,false,true,NA,6,9,NA,brown,m_s_031.jpg,NA,NA,unpleasant,pleasant,NA,NA,NA,NA,NA,right,1353.20000000112,true,NA,NA,NA,NA,NA
JN7UKaF3,32k26u12eq14p7ktnmss8y5zd9bdv8,3of2m9aatk1vzht7728km19dnbozka,JN7UKaF3,2020-0188,2021-10-14,10:14:02,11:28:27,NA,incomplete,false,true,NA,6,10,NA,brown,m_l_069.jpg,NA,NA,pleasant,unpleasant,NA,NA,NA,NA,NA,right,1869.40000000037,true,NA,NA,NA,NA,NA
JN7UKaF3,32k26u12eq14p7ktnmss8y5zd9bdv8,3of2m9aatk1vzht7728km19dnbozka,JN7UKaF3,2020-0188,2021-10-14,10:14:02,11:28:27,NA,incomplete,false,true,NA,6,11,NA,brown,m_s_112.jpg,NA,NA,pleasant,unpleasant,NA,NA,NA,NA,NA,left,1106.30000000075,true,NA,NA,NA,NA,NA
JN7UKaF3,32k26u12eq14p7ktnmss8y5zd9bdv8,3of2m9aatk1vzht7728km19dnbozka,JN7UKaF3,2020-0188,2021-10-14,10:14:02,11:28:27,NA,incomplete,false,true,NA,6,12,NA,yellow,m_l_072.jpg,NA,NA,unpleasant,pleasant,NA,NA,NA,NA,NA,right,1277.90000000037,true,NA,NA,NA,NA,NA
JN7UKaF3,32k26u12eq14p7ktnmss8y5zd9bdv8,3of2m9aatk1vzht7728km19dnbozka,JN7UKaF3,2020-0188,2021-10-14,10:14:02,11:28:27,NA,incomplete,false,true,NA,6,13,NA,yellow,n_l_109.jpg,NA,NA,unpleasant,pleasant,NA,NA,NA,NA,NA,left,1426.59999999963,true,NA,NA,NA,NA,NA
JN7UKaF3,32k26u12eq14p7ktnmss8y5zd9bdv8,3of2m9aatk1vzht7728km19dnbozka,JN7UKaF3,2020-0188,2021-10-14,10:14:02,11:28:27,NA,incomplete,false,true,NA,6,14,NA,yellow,m_l_053.jpg,NA,NA,pleasant,unpleasant,NA,NA,NA,NA,NA,left,1640.90000000037,true,NA,NA,NA,NA,NA
JN7UKaF3,32k26u12eq14p7ktnmss8y5zd9bdv8,3of2m9aatk1vzht7728km19dnbozka,JN7UKaF3,2020-0188,2021-10-14,10:14:02,11:28:27,NA,incomplete,false,true,NA,6,15,NA,yellow,m_l_001.jpg,NA,NA,pleasant,unpleasant,NA,NA,NA,NA,NA,right,1564.20000000112,true,NA,NA,NA,NA,NA
JN7UKaF3,32k26u12eq14p7ktnmss8y5zd9bdv8,3of2m9aatk1vzht7728km19dnbozka,JN7UKaF3,2020-0188,2021-10-14,10:14:02,11:28:27,NA,incomplete,false,true,NA,6,16,NA,yellow,m_s_102.jpg,NA,NA,unpleasant,pleasant,NA,NA,NA,NA,NA,right,1489.20000000112,true,NA,NA,NA,NA,NA
JN7UKaF3,32k26u12eq14p7ktnmss8y5zd9bdv8,3of2m9aatk1vzht7728km19dnbozka,JN7UKaF3,2020-0188,2021-10-14,10:14:02,11:28:27,NA,incomplete,false,true,NA,6,17,NA,yellow,n_l_030.jpg,NA,NA,pleasant,unpleasant,NA,NA,NA,NA,NA,left,1071,true,NA,NA,NA,NA,NA
JN7UKaF3,32k26u12eq14p7ktnmss8y5zd9bdv8,3of2m9aatk1vzht7728km19dnbozka,JN7UKaF3,2020-0188,2021-10-14,10:14:02,11:28:27,NA,incomplete,false,true,NA,6,18,NA,blue,n_l_101.jpg,NA,NA,pleasant,unpleasant,NA,NA,NA,NA,NA,left,2074,true,NA,NA,NA,NA,NA
JN7UKaF3,32k26u12eq14p7ktnmss8y5zd9bdv8,3of2m9aatk1vzht7728km19dnbozka,JN7UKaF3,2020-0188,2021-10-14,10:14:02,11:28:27,NA,incomplete,false,true,NA,6,19,NA,blue,n_l_072.jpg,NA,NA,unpleasant,pleasant,NA,NA,NA,NA,NA,left,2014.40000000037,true,NA,NA,NA,NA,NA
JN7UKaF3,32k26u12eq14p7ktnmss8y5zd9bdv8,3of2m9aatk1vzht7728km19dnbozka,JN7UKaF3,2020-0188,2021-10-14,10:14:02,11:28:27,NA,incomplete,false,true,NA,6,20,NA,blue,n_s_046.jpg,NA,NA,pleasant,unpleasant,NA,NA,NA,NA,NA,right,1282.70000000112,true,NA,NA,NA,NA,NA
JN7UKaF3,32k26u12eq14p7ktnmss8y5zd9bdv8,3of2m9aatk1vzht7728km19dnbozka,JN7UKaF3,2020-0188,2021-10-14,10:14:02,11:28:27,NA,incomplete,false,true,NA,6,21,NA,blue,n_s_095.jpg,NA,NA,unpleasant,pleasant,NA,NA,NA,NA,NA,right,2064.40000000037,true,NA,NA,NA,NA,NA
JN7UKaF3,32k26u12eq14p7ktnmss8y5zd9bdv8,3of2m9aatk1vzht7728km19dnbozka,JN7UKaF3,2020-0188,2021-10-14,10:14:02,11:28:27,NA,incomplete,false,true,NA,6,22,NA,blue,m_s_012.jpg,NA,NA,pleasant,unpleasant,NA,NA,NA,NA,NA,right,1556.40000000037,true,NA,NA,NA,NA,NA
JN7UKaF3,32k26u12eq14p7ktnmss8y5zd9bdv8,3of2m9aatk1vzht7728km19dnbozka,JN7UKaF3,2020-0188,2021-10-14,10:14:02,11:28:27,NA,incomplete,false,true,NA,6,23,NA,blue,m_s_087.jpg,NA,NA,unpleasant,pleasant,NA,NA,NA,NA,NA,left,1274.80000000075,true,NA,NA,NA,NA,NA
JN7UKaF3,32k26u12eq14p7ktnmss8y5zd9bdv8,3of2m9aatk1vzht7728km19dnbozka,JN7UKaF3,2020-0188,2021-10-14,10:14:02,11:28:27,NA,incomplete,false,true,NA,6,24,NA,orange,m_s_027.jpg,NA,NA,unpleasant,pleasant,NA,NA,NA,NA,NA,left,2262.09999999963,true,NA,NA,NA,NA,NA
JN7UKaF3,32k26u12eq14p7ktnmss8y5zd9bdv8,3of2m9aatk1vzht7728km19dnbozka,JN7UKaF3,2020-0188,2021-10-14,10:14:02,11:28:27,NA,incomplete,false,true,NA,6,25,NA,orange,m_l_028.jpg,NA,NA,unpleasant,pleasant,NA,NA,NA,NA,NA,left,1028,true,NA,NA,NA,NA,NA
JN7UKaF3,32k26u12eq14p7ktnmss8y5zd9bdv8,3of2m9aatk1vzht7728km19dnbozka,JN7UKaF3,2020-0188,2021-10-14,10:14:02,11:28:27,NA,incomplete,false,true,NA,6,26,NA,orange,n_s_006.jpg,NA,NA,pleasant,unpleasant,NA,NA,NA,NA,NA,left,1784.90000000037,true,NA,NA,NA,NA,NA
JN7UKaF3,32k26u12eq14p7ktnmss8y5zd9bdv8,3of2m9aatk1vzht7728km19dnbozka,JN7UKaF3,2020-0188,2021-10-14,10:14:02,11:28:27,NA,incomplete,false,true,NA,6,27,NA,orange,n_s_115.jpg,NA,NA,pleasant,unpleasant,NA,NA,NA,NA,NA,left,1139.40000000037,true,NA,NA,NA,NA,NA
JN7UKaF3,32k26u12eq14p7ktnmss8y5zd9bdv8,3of2m9aatk1vzht7728km19dnbozka,JN7UKaF3,2020-0188,2021-10-14,10:14:02,11:28:27,NA,incomplete,false,true,NA,6,28,NA,orange,m_s_075.jpg,NA,NA,unpleasant,pleasant,NA,NA,NA,NA,NA,right,1647.90000000037,true,NA,NA,NA,NA,NA
JN7UKaF3,32k26u12eq14p7ktnmss8y5zd9bdv8,3of2m9aatk1vzht7728km19dnbozka,JN7UKaF3,2020-0188,2021-10-14,10:14:02,11:28:27,NA,incomplete,false,true,NA,6,29,NA,orange,n_s_092.jpg,NA,NA,pleasant,unpleasant,NA,NA,NA,NA,NA,left,1167.09999999963,true,NA,NA,NA,NA,NA
JN7UKaF3,32k26u12eq14p7ktnmss8y5zd9bdv8,3of2m9aatk1vzht7728km19dnbozka,JN7UKaF3,2020-0188,2021-10-14,10:14:02,11:28:27,NA,incomplete,false,true,NA,6,30,NA,red,m_s_074.jpg,NA,NA,pleasant,unpleasant,NA,NA,NA,NA,NA,left,1602.5,true,NA,NA,NA,NA,NA
JN7UKaF3,32k26u12eq14p7ktnmss8y5zd9bdv8,3of2m9aatk1vzht7728km19dnbozka,JN7UKaF3,2020-0188,2021-10-14,10:14:02,11:28:27,NA,incomplete,false,true,NA,6,31,NA,red,m_l_044.jpg,NA,NA,unpleasant,pleasant,NA,NA,NA,NA,NA,right,1206.69999999925,true,NA,NA,NA,NA,NA
JN7UKaF3,32k26u12eq14p7ktnmss8y5zd9bdv8,3of2m9aatk1vzht7728km19dnbozka,JN7UKaF3,2020-0188,2021-10-14,10:14:02,11:28:27,NA,incomplete,false,true,NA,6,32,NA,red,n_s_096.jpg,NA,NA,unpleasant,pleasant,NA,NA,NA,NA,NA,right,1252.59999999963,true,NA,NA,NA,NA,NA
JN7UKaF3,32k26u12eq14p7ktnmss8y5zd9bdv8,3of2m9aatk1vzht7728km19dnbozka,JN7UKaF3,2020-0188,2021-10-14,10:14:02,11:28:27,NA,incomplete,false,true,NA,6,33,NA,red,m_s_057.jpg,NA,NA,unpleasant,pleasant,NA,NA,NA,NA,NA,right,1183.60000000149,true,NA,NA,NA,NA,NA
JN7UKaF3,32k26u12eq14p7ktnmss8y5zd9bdv8,3of2m9aatk1vzht7728km19dnbozka,JN7UKaF3,2020-0188,2021-10-14,10:14:02,11:28:27,NA,incomplete,false,true,NA,6,34,NA,red,n_l_097.jpg,NA,NA,unpleasant,pleasant,NA,NA,NA,NA,NA,right,1604.90000000037,true,NA,NA,NA,NA,NA
JN7UKaF3,32k26u12eq14p7ktnmss8y5zd9bdv8,3of2m9aatk1vzht7728km19dnbozka,JN7UKaF3,2020-0188,2021-10-14,10:14:02,11:28:27,NA,incomplete,false,true,NA,6,35,NA,red,m_s_103.jpg,NA,NA,unpleasant,pleasant,NA,NA,NA,NA,NA,right,1136.79999999888,true,NA,NA,NA,NA,NA
JN7UKaF3,32k26u12eq14p7ktnmss8y5zd9bdv8,3of2m9aatk1vzht7728km19dnbozka,JN7UKaF3,2020-0188,2021-10-14,10:14:02,11:28:27,NA,incomplete,false,NA,true,6,0,NA,NA,NA,right,absent,NA,NA,n_l_030.jpg,yellow,n_l_109.jpg,yellow,within,NA,NaN,NA,right,4454.300000000745,1,1,1478.9000000003725
JN7UKaF3,32k26u12eq14p7ktnmss8y5zd9bdv8,3of2m9aatk1vzht7728km19dnbozka,JN7UKaF3,2020-0188,2021-10-14,10:14:02,11:28:27,NA,incomplete,false,NA,true,6,1,NA,NA,NA,left,absent,NA,NA,n_l_039.jpg,green,m_l_070.jpg,brown,between,NA,NaN,NA,left,2247.300000000745,1,1,1270.7999999988824
JN7UKaF3,32k26u12eq14p7ktnmss8y5zd9bdv8,3of2m9aatk1vzht7728km19dnbozka,JN7UKaF3,2020-0188,2021-10-14,10:14:02,11:28:27,NA,incomplete,false,NA,true,6,2,NA,NA,NA,left,absent,NA,NA,m_l_044.jpg,red,m_s_103.jpg,red,within,NA,NaN,NA,right,2942.9000000003725,0,0,1318.7000000011176
JN7UKaF3,32k26u12eq14p7ktnmss8y5zd9bdv8,3of2m9aatk1vzht7728km19dnbozka,JN7UKaF3,2020-0188,2021-10-14,10:14:02,11:28:27,NA,incomplete,false,NA,true,6,3,NA,NA,NA,left,absent,NA,NA,m_s_102.jpg,yellow,n_s_046.jpg,blue,between,NA,NaN,NA,left,3286.7999999988824,1,2,1791.699999999255
JN7UKaF3,32k26u12eq14p7ktnmss8y5zd9bdv8,3of2m9aatk1vzht7728km19dnbozka,JN7UKaF3,2020-0188,2021-10-14,10:14:02,11:28:27,NA,incomplete,false,NA,true,6,4,NA,NA,NA,right,absent,NA,NA,n_s_092.jpg,orange,m_l_028.jpg,orange,within,NA,NaN,NA,right,5239.5999999996275,1,2,1103.4000000003725
JN7UKaF3,32k26u12eq14p7ktnmss8y5zd9bdv8,3of2m9aatk1vzht7728km19dnbozka,JN7UKaF3,2020-0188,2021-10-14,10:14:02,11:28:27,NA,incomplete,false,NA,true,6,5,NA,NA,NA,left,absent,NA,NA,m_s_012.jpg,blue,n_s_006.jpg,orange,between,NA,NaN,NA,right,3287.5999999996275,0,1,2095.800000000745
JN7UKaF3,32k26u12eq14p7ktnmss8y5zd9bdv8,3of2m9aatk1vzht7728km19dnbozka,JN7UKaF3,2020-0188,2021-10-14,10:14:02,11:28:27,NA,incomplete,false,NA,true,6,6,NA,NA,NA,left,absent,NA,NA,m_l_069.jpg,brown,m_l_053.jpg,yellow,between,NA,NaN,NA,right,7927.5999999996275,0,0,1095.5
JN7UKaF3,32k26u12eq14p7ktnmss8y5zd9bdv8,3of2m9aatk1vzht7728km19dnbozka,JN7UKaF3,2020-0188,2021-10-14,10:14:02,11:28:27,NA,incomplete,false,NA,true,6,7,NA,NA,NA,right,absent,NA,NA,m_s_112.jpg,brown,m_l_030.jpg,brown,within,NA,NaN,NA,right,3151.5999999996275,1,0,1703.4000000003725
JN7UKaF3,32k26u12eq14p7ktnmss8y5zd9bdv8,3of2m9aatk1vzht7728km19dnbozka,JN7UKaF3,2020-0188,2021-10-14,10:14:02,11:28:27,NA,incomplete,false,NA,true,6,8,NA,NA,NA,left,absent,NA,NA,n_l_022.jpg,green,m_l_057.jpg,green,within,NA,NaN,NA,right,3215.5999999996275,0,1,3231.300000000745
JN7UKaF3,32k26u12eq14p7ktnmss8y5zd9bdv8,3of2m9aatk1vzht7728km19dnbozka,JN7UKaF3,2020-0188,2021-10-14,10:14:02,11:28:27,NA,incomplete,false,NA,true,6,9,NA,NA,NA,right,absent,NA,NA,m_s_087.jpg,blue,n_l_072.jpg,blue,within,NA,NaN,NA,left,2367.5,0,2,1848.300000000745
JN7UKaF3,32k26u12eq14p7ktnmss8y5zd9bdv8,3of2m9aatk1vzht7728km19dnbozka,JN7UKaF3,2020-0188,2021-10-14,10:14:02,11:28:27,NA,incomplete,false,NA,true,6,10,NA,NA,NA,left,absent,NA,NA,m_s_075.jpg,orange,n_s_096.jpg,red,between,NA,NaN,NA,left,3831.300000000745,1,1,1183.4000000003725
JN7UKaF3,32k26u12eq14p7ktnmss8y5zd9bdv8,3of2m9aatk1vzht7728km19dnbozka,JN7UKaF3,2020-0188,2021-10-14,10:14:02,11:28:27,NA,incomplete,false,true,NA,7,0,NA,white,n_s_028.jpg,NA,NA,unpleasant,pleasant,NA,NA,NA,NA,NA,left,2122.90000000037,true,NA,NA,NA,NA,NA
JN7UKaF3,32k26u12eq14p7ktnmss8y5zd9bdv8,3of2m9aatk1vzht7728km19dnbozka,JN7UKaF3,2020-0188,2021-10-14,10:14:02,11:28:27,NA,incomplete,false,true,NA,7,1,NA,white,m_l_049.jpg,NA,NA,pleasant,unpleasant,NA,NA,NA,NA,NA,right,2838.30000000075,true,NA,NA,NA,NA,NA
JN7UKaF3,32k26u12eq14p7ktnmss8y5zd9bdv8,3of2m9aatk1vzht7728km19dnbozka,JN7UKaF3,2020-0188,2021-10-14,10:14:02,11:28:27,NA,incomplete,false,true,NA,7,2,NA,white,m_s_010.jpg,NA,NA,unpleasant,pleasant,NA,NA,NA,NA,NA,right,1220,true,NA,NA,NA,NA,NA
JN7UKaF3,32k26u12eq14p7ktnmss8y5zd9bdv8,3of2m9aatk1vzht7728km19dnbozka,JN7UKaF3,2020-0188,2021-10-14,10:14:02,11:28:27,NA,incomplete,false,true,NA,7,3,NA,white,n_s_088.jpg,NA,NA,unpleasant,pleasant,NA,NA,NA,NA,NA,right,1183.5,true,NA,NA,NA,NA,NA
JN7UKaF3,32k26u12eq14p7ktnmss8y5zd9bdv8,3of2m9aatk1vzht7728km19dnbozka,JN7UKaF3,2020-0188,2021-10-14,10:14:02,11:28:27,NA,incomplete,false,true,NA,7,4,NA,white,m_s_106.jpg,NA,NA,pleasant,unpleasant,NA,NA,NA,NA,NA,right,788.5,true,NA,NA,NA,NA,NA
JN7UKaF3,32k26u12eq14p7ktnmss8y5zd9bdv8,3of2m9aatk1vzht7728km19dnbozka,JN7UKaF3,2020-0188,2021-10-14,10:14:02,11:28:27,NA,incomplete,false,true,NA,7,5,NA,white,n_l_006.jpg,NA,NA,pleasant,unpleasant,NA,NA,NA,NA,NA,left,1105.59999999963,true,NA,NA,NA,NA,NA
JN7UKaF3,32k26u12eq14p7ktnmss8y5zd9bdv8,3of2m9aatk1vzht7728km19dnbozka,JN7UKaF3,2020-0188,2021-10-14,10:14:02,11:28:27,NA,incomplete,false,true,NA,7,6,NA,purple,m_s_078.jpg,NA,NA,unpleasant,pleasant,NA,NA,NA,NA,NA,left,1604.70000000112,true,NA,NA,NA,NA,NA
JN7UKaF3,32k26u12eq14p7ktnmss8y5zd9bdv8,3of2m9aatk1vzht7728km19dnbozka,JN7UKaF3,2020-0188,2021-10-14,10:14:02,11:28:27,NA,incomplete,false,true,NA,7,7,NA,purple,n_s_099.jpg,NA,NA,unpleasant,pleasant,NA,NA,NA,NA,NA,right,1273.69999999925,true,NA,NA,NA,NA,NA
JN7UKaF3,32k26u12eq14p7ktnmss8y5zd9bdv8,3of2m9aatk1vzht7728km19dnbozka,JN7UKaF3,2020-0188,2021-10-14,10:14:02,11:28:27,NA,incomplete,false,true,NA,7,8,NA,purple,m_s_043.jpg,NA,NA,unpleasant,pleasant,NA,NA,NA,NA,NA,left,2070.09999999963,true,NA,NA,NA,NA,NA
JN7UKaF3,32k26u12eq14p7ktnmss8y5zd9bdv8,3of2m9aatk1vzht7728km19dnbozka,JN7UKaF3,2020-0188,2021-10-14,10:14:02,11:28:27,NA,incomplete,false,true,NA,7,9,NA,purple,m_l_109.jpg,NA,NA,pleasant,unpleasant,NA,NA,NA,NA,NA,right,1410.59999999963,true,NA,NA,NA,NA,NA
JN7UKaF3,32k26u12eq14p7ktnmss8y5zd9bdv8,3of2m9aatk1vzht7728km19dnbozka,JN7UKaF3,2020-0188,2021-10-14,10:14:02,11:28:27,NA,incomplete,false,true,NA,7,10,NA,purple,m_s_116.jpg,NA,NA,unpleasant,pleasant,NA,NA,NA,NA,NA,left,1423,true,NA,NA,NA,NA,NA
JN7UKaF3,32k26u12eq14p7ktnmss8y5zd9bdv8,3of2m9aatk1vzht7728km19dnbozka,JN7UKaF3,2020-0188,2021-10-14,10:14:02,11:28:27,NA,incomplete,false,true,NA,7,11,NA,purple,m_s_063.jpg,NA,NA,pleasant,unpleasant,NA,NA,NA,NA,NA,left,1292.10000000149,true,NA,NA,NA,NA,NA
JN7UKaF3,32k26u12eq14p7ktnmss8y5zd9bdv8,3of2m9aatk1vzht7728km19dnbozka,JN7UKaF3,2020-0188,2021-10-14,10:14:02,11:28:27,NA,incomplete,false,true,NA,7,12,NA,green,n_s_079.jpg,NA,NA,unpleasant,pleasant,NA,NA,NA,NA,NA,right,1225.10000000149,true,NA,NA,NA,NA,NA
JN7UKaF3,32k26u12eq14p7ktnmss8y5zd9bdv8,3of2m9aatk1vzht7728km19dnbozka,JN7UKaF3,2020-0188,2021-10-14,10:14:02,11:28:27,NA,incomplete,false,true,NA,7,13,NA,green,n_l_103.jpg,NA,NA,unpleasant,pleasant,NA,NA,NA,NA,NA,left,1972.40000000037,true,NA,NA,NA,NA,NA
JN7UKaF3,32k26u12eq14p7ktnmss8y5zd9bdv8,3of2m9aatk1vzht7728km19dnbozka,JN7UKaF3,2020-0188,2021-10-14,10:14:02,11:28:27,NA,incomplete,false,true,NA,7,14,NA,green,n_s_008.jpg,NA,NA,unpleasant,pleasant,NA,NA,NA,NA,NA,left,1185.40000000037,true,NA,NA,NA,NA,NA
JN7UKaF3,32k26u12eq14p7ktnmss8y5zd9bdv8,3of2m9aatk1vzht7728km19dnbozka,JN7UKaF3,2020-0188,2021-10-14,10:14:02,11:28:27,NA,incomplete,false,true,NA,7,15,NA,green,m_l_023.jpg,NA,NA,unpleasant,pleasant,NA,NA,NA,NA,NA,left,1517,true,NA,NA,NA,NA,NA
JN7UKaF3,32k26u12eq14p7ktnmss8y5zd9bdv8,3of2m9aatk1vzht7728km19dnbozka,JN7UKaF3,2020-0188,2021-10-14,10:14:02,11:28:27,NA,incomplete,false,true,NA,7,16,NA,green,n_s_012.jpg,NA,NA,pleasant,unpleasant,NA,NA,NA,NA,NA,left,1361.40000000037,true,NA,NA,NA,NA,NA
JN7UKaF3,32k26u12eq14p7ktnmss8y5zd9bdv8,3of2m9aatk1vzht7728km19dnbozka,JN7UKaF3,2020-0188,2021-10-14,10:14:02,11:28:27,NA,incomplete,false,true,NA,7,17,NA,green,n_s_110.jpg,NA,NA,pleasant,unpleasant,NA,NA,NA,NA,NA,right,2246.29999999888,true,NA,NA,NA,NA,NA
JN7UKaF3,32k26u12eq14p7ktnmss8y5zd9bdv8,3of2m9aatk1vzht7728km19dnbozka,JN7UKaF3,2020-0188,2021-10-14,10:14:02,11:28:27,NA,incomplete,false,true,NA,7,18,NA,brown,n_l_081.jpg,NA,NA,unpleasant,pleasant,NA,NA,NA,NA,NA,right,1588.20000000112,true,NA,NA,NA,NA,NA
JN7UKaF3,32k26u12eq14p7ktnmss8y5zd9bdv8,3of2m9aatk1vzht7728km19dnbozka,JN7UKaF3,2020-0188,2021-10-14,10:14:02,11:28:27,NA,incomplete,false,true,NA,7,19,NA,brown,m_s_115.jpg,NA,NA,unpleasant,pleasant,NA,NA,NA,NA,NA,left,1466.19999999925,true,NA,NA,NA,NA,NA
JN7UKaF3,32k26u12eq14p7ktnmss8y5zd9bdv8,3of2m9aatk1vzht7728km19dnbozka,JN7UKaF3,2020-0188,2021-10-14,10:14:02,11:28:27,NA,incomplete,false,true,NA,7,20,NA,brown,m_l_015.jpg,NA,NA,pleasant,unpleasant,NA,NA,NA,NA,NA,left,1606.09999999963,true,NA,NA,NA,NA,NA
JN7UKaF3,32k26u12eq14p7ktnmss8y5zd9bdv8,3of2m9aatk1vzht7728km19dnbozka,JN7UKaF3,2020-0188,2021-10-14,10:14:02,11:28:27,NA,incomplete,false,true,NA,7,21,NA,brown,n_l_025.jpg,NA,NA,pleasant,unpleasant,NA,NA,NA,NA,NA,left,1618.30000000075,true,NA,NA,NA,NA,NA
JN7UKaF3,32k26u12eq14p7ktnmss8y5zd9bdv8,3of2m9aatk1vzht7728km19dnbozka,JN7UKaF3,2020-0188,2021-10-14,10:14:02,11:28:27,NA,incomplete,false,true,NA,7,22,NA,brown,m_s_110.jpg,NA,NA,pleasant,unpleasant,NA,NA,NA,NA,NA,right,2029.19999999925,true,NA,NA,NA,NA,NA
JN7UKaF3,32k26u12eq14p7ktnmss8y5zd9bdv8,3of2m9aatk1vzht7728km19dnbozka,JN7UKaF3,2020-0188,2021-10-14,10:14:02,11:28:27,NA,incomplete,false,true,NA,7,23,NA,brown,n_s_107.jpg,NA,NA,unpleasant,pleasant,NA,NA,NA,NA,NA,right,1554.90000000037,true,NA,NA,NA,NA,NA
JN7UKaF3,32k26u12eq14p7ktnmss8y5zd9bdv8,3of2m9aatk1vzht7728km19dnbozka,JN7UKaF3,2020-0188,2021-10-14,10:14:02,11:28:27,NA,incomplete,false,true,NA,7,24,NA,yellow,m_s_084.jpg,NA,NA,unpleasant,pleasant,NA,NA,NA,NA,NA,right,2222.89999999851,true,NA,NA,NA,NA,NA
JN7UKaF3,32k26u12eq14p7ktnmss8y5zd9bdv8,3of2m9aatk1vzht7728km19dnbozka,JN7UKaF3,2020-0188,2021-10-14,10:14:02,11:28:27,NA,incomplete,false,true,NA,7,25,NA,yellow,n_s_060.jpg,NA,NA,unpleasant,pleasant,NA,NA,NA,NA,NA,right,1562.90000000037,true,NA,NA,NA,NA,NA
JN7UKaF3,32k26u12eq14p7ktnmss8y5zd9bdv8,3of2m9aatk1vzht7728km19dnbozka,JN7UKaF3,2020-0188,2021-10-14,10:14:02,11:28:27,NA,incomplete,false,true,NA,7,26,NA,yellow,m_l_011.jpg,NA,NA,unpleasant,pleasant,NA,NA,NA,NA,NA,left,1488.80000000075,true,NA,NA,NA,NA,NA
JN7UKaF3,32k26u12eq14p7ktnmss8y5zd9bdv8,3of2m9aatk1vzht7728km19dnbozka,JN7UKaF3,2020-0188,2021-10-14,10:14:02,11:28:27,NA,incomplete,false,true,NA,7,27,NA,yellow,n_l_112.jpg,NA,NA,pleasant,unpleasant,NA,NA,NA,NA,NA,right,2644.20000000112,true,NA,NA,NA,NA,NA
JN7UKaF3,32k26u12eq14p7ktnmss8y5zd9bdv8,3of2m9aatk1vzht7728km19dnbozka,JN7UKaF3,2020-0188,2021-10-14,10:14:02,11:28:27,NA,incomplete,false,true,NA,7,28,NA,yellow,n_s_116.jpg,NA,NA,pleasant,unpleasant,NA,NA,NA,NA,NA,right,2105.30000000075,true,NA,NA,NA,NA,NA
JN7UKaF3,32k26u12eq14p7ktnmss8y5zd9bdv8,3of2m9aatk1vzht7728km19dnbozka,JN7UKaF3,2020-0188,2021-10-14,10:14:02,11:28:27,NA,incomplete,false,true,NA,7,29,NA,yellow,m_s_020.jpg,NA,NA,pleasant,unpleasant,NA,NA,NA,NA,NA,right,1981.30000000075,true,NA,NA,NA,NA,NA
JN7UKaF3,32k26u12eq14p7ktnmss8y5zd9bdv8,3of2m9aatk1vzht7728km19dnbozka,JN7UKaF3,2020-0188,2021-10-14,10:14:02,11:28:27,NA,incomplete,false,true,NA,7,30,NA,red,m_l_091.jpg,NA,NA,unpleasant,pleasant,NA,NA,NA,NA,NA,left,2435.60000000149,true,NA,NA,NA,NA,NA
JN7UKaF3,32k26u12eq14p7ktnmss8y5zd9bdv8,3of2m9aatk1vzht7728km19dnbozka,JN7UKaF3,2020-0188,2021-10-14,10:14:02,11:28:27,NA,incomplete,false,true,NA,7,31,NA,red,n_s_029.jpg,NA,NA,pleasant,unpleasant,NA,NA,NA,NA,NA,left,2911.59999999963,true,NA,NA,NA,NA,NA
JN7UKaF3,32k26u12eq14p7ktnmss8y5zd9bdv8,3of2m9aatk1vzht7728km19dnbozka,JN7UKaF3,2020-0188,2021-10-14,10:14:02,11:28:27,NA,incomplete,false,true,NA,7,32,NA,red,m_l_041.jpg,NA,NA,pleasant,unpleasant,NA,NA,NA,NA,NA,left,1372.60000000149,true,NA,NA,NA,NA,NA
JN7UKaF3,32k26u12eq14p7ktnmss8y5zd9bdv8,3of2m9aatk1vzht7728km19dnbozka,JN7UKaF3,2020-0188,2021-10-14,10:14:02,11:28:27,NA,incomplete,false,true,NA,7,33,NA,red,m_s_088.jpg,NA,NA,unpleasant,pleasant,NA,NA,NA,NA,NA,left,1440.70000000112,true,NA,NA,NA,NA,NA
JN7UKaF3,32k26u12eq14p7ktnmss8y5zd9bdv8,3of2m9aatk1vzht7728km19dnbozka,JN7UKaF3,2020-0188,2021-10-14,10:14:02,11:28:27,NA,incomplete,false,true,NA,7,34,NA,red,n_l_117.jpg,NA,NA,unpleasant,pleasant,NA,NA,NA,NA,NA,left,1549.09999999963,true,NA,NA,NA,NA,NA
JN7UKaF3,32k26u12eq14p7ktnmss8y5zd9bdv8,3of2m9aatk1vzht7728km19dnbozka,JN7UKaF3,2020-0188,2021-10-14,10:14:02,11:28:27,NA,incomplete,false,true,NA,7,35,NA,red,n_s_111.jpg,NA,NA,unpleasant,pleasant,NA,NA,NA,NA,NA,right,1674.29999999888,true,NA,NA,NA,NA,NA
JN7UKaF3,32k26u12eq14p7ktnmss8y5zd9bdv8,3of2m9aatk1vzht7728km19dnbozka,JN7UKaF3,2020-0188,2021-10-14,10:14:02,11:28:27,NA,incomplete,false,NA,true,7,0,NA,NA,NA,right,present,NA,NA,n_s_107.jpg,brown,m_s_115.jpg,brown,within,NA,NaN,NA,left,2542.5999999996275,0,1,2398.199999999255
JN7UKaF3,32k26u12eq14p7ktnmss8y5zd9bdv8,3of2m9aatk1vzht7728km19dnbozka,JN7UKaF3,2020-0188,2021-10-14,10:14:02,11:28:27,NA,incomplete,false,NA,true,7,1,NA,NA,NA,left,present,NA,NA,m_s_106.jpg,white,m_s_043.jpg,purple,between,NA,NaN,NA,right,7446.39999999851,0,0,1415
JN7UKaF3,32k26u12eq14p7ktnmss8y5zd9bdv8,3of2m9aatk1vzht7728km19dnbozka,JN7UKaF3,2020-0188,2021-10-14,10:14:02,11:28:27,NA,incomplete,false,NA,true,7,2,NA,NA,NA,right,present,NA,NA,n_s_110.jpg,green,n_l_103.jpg,green,within,NA,NaN,NA,left,9295.599999999627,0,3,1039.7000000011176
JN7UKaF3,32k26u12eq14p7ktnmss8y5zd9bdv8,3of2m9aatk1vzht7728km19dnbozka,JN7UKaF3,2020-0188,2021-10-14,10:14:02,11:28:27,NA,incomplete,false,NA,true,7,3,NA,NA,NA,right,present,NA,NA,m_s_063.jpg,purple,n_s_099.jpg,purple,within,NA,NaN,NA,left,2391.199999999255,0,0,2327.39999999851
JN7UKaF3,32k26u12eq14p7ktnmss8y5zd9bdv8,3of2m9aatk1vzht7728km19dnbozka,JN7UKaF3,2020-0188,2021-10-14,10:14:02,11:28:27,NA,incomplete,false,NA,true,7,4,NA,NA,NA,left,present,NA,NA,n_s_029.jpg,red,n_s_111.jpg,red,within,NA,NaN,NA,right,2439.5,0,2,2047.5
JN7UKaF3,32k26u12eq14p7ktnmss8y5zd9bdv8,3of2m9aatk1vzht7728km19dnbozka,JN7UKaF3,2020-0188,2021-10-14,10:14:02,11:28:27,NA,incomplete,false,NA,true,7,5,NA,NA,NA,left,present,NA,NA,m_s_110.jpg,brown,m_l_011.jpg,yellow,between,NA,NaN,NA,left,7103.5,1,2,1631.300000000745
JN7UKaF3,32k26u12eq14p7ktnmss8y5zd9bdv8,3of2m9aatk1vzht7728km19dnbozka,JN7UKaF3,2020-0188,2021-10-14,10:14:02,11:28:27,NA,incomplete,false,NA,true,7,6,NA,NA,NA,left,present,NA,NA,m_s_116.jpg,purple,n_s_008.jpg,green,between,NA,NaN,NA,left,3847.5,1,0,1263.2999999988824
JN7UKaF3,32k26u12eq14p7ktnmss8y5zd9bdv8,3of2m9aatk1vzht7728km19dnbozka,JN7UKaF3,2020-0188,2021-10-14,10:14:02,11:28:27,NA,incomplete,false,NA,true,7,7,NA,NA,NA,right,present,NA,NA,m_s_020.jpg,yellow,n_s_060.jpg,yellow,within,NA,NaN,NA,right,7543.5999999996275,1,1,1015.7000000011176
JN7UKaF3,32k26u12eq14p7ktnmss8y5zd9bdv8,3of2m9aatk1vzht7728km19dnbozka,JN7UKaF3,2020-0188,2021-10-14,10:14:02,11:28:27,NA,incomplete,false,NA,true,7,8,NA,NA,NA,right,present,NA,NA,m_l_015.jpg,brown,n_s_012.jpg,green,between,NA,NaN,NA,right,2135.4000000003725,1,2,927.4000000003725
JN7UKaF3,32k26u12eq14p7ktnmss8y5zd9bdv8,3of2m9aatk1vzht7728km19dnbozka,JN7UKaF3,2020-0188,2021-10-14,10:14:02,11:28:27,NA,incomplete,false,NA,true,7,9,NA,NA,NA,right,present,NA,NA,n_l_006.jpg,white,m_l_049.jpg,white,within,NA,NaN,NA,left,4823.4000000003725,0,3,967.3000000007451
JN7UKaF3,32k26u12eq14p7ktnmss8y5zd9bdv8,3of2m9aatk1vzht7728km19dnbozka,JN7UKaF3,2020-0188,2021-10-14,10:14:02,11:28:27,NA,incomplete,false,NA,true,7,10,NA,NA,NA,left,present,NA,NA,n_s_116.jpg,yellow,m_l_041.jpg,red,between,NA,NaN,NA,left,2855.0999999996275,1,2,2039.3999999985099
JN7UKaF3,32k26u12eq14p7ktnmss8y5zd9bdv8,3of2m9aatk1vzht7728km19dnbozka,JN7UKaF3,2020-0188,2021-10-14,10:14:02,11:28:27,NA,incomplete,false,true,NA,8,0,NA,white,m_s_062.jpg,NA,NA,unpleasant,pleasant,NA,NA,NA,NA,NA,left,2094.59999999963,true,NA,NA,NA,NA,NA
JN7UKaF3,32k26u12eq14p7ktnmss8y5zd9bdv8,3of2m9aatk1vzht7728km19dnbozka,JN7UKaF3,2020-0188,2021-10-14,10:14:02,11:28:27,NA,incomplete,false,true,NA,8,1,NA,white,n_l_089.jpg,NA,NA,pleasant,unpleasant,NA,NA,NA,NA,NA,left,1898.90000000037,true,NA,NA,NA,NA,NA
JN7UKaF3,32k26u12eq14p7ktnmss8y5zd9bdv8,3of2m9aatk1vzht7728km19dnbozka,JN7UKaF3,2020-0188,2021-10-14,10:14:02,11:28:27,NA,incomplete,false,true,NA,8,2,NA,white,m_s_033.jpg,NA,NA,unpleasant,pleasant,NA,NA,NA,NA,NA,left,1424.70000000112,true,NA,NA,NA,NA,NA
JN7UKaF3,32k26u12eq14p7ktnmss8y5zd9bdv8,3of2m9aatk1vzht7728km19dnbozka,JN7UKaF3,2020-0188,2021-10-14,10:14:02,11:28:27,NA,incomplete,false,true,NA,8,3,NA,white,m_s_015.jpg,NA,NA,pleasant,unpleasant,NA,NA,NA,NA,NA,left,1357.30000000075,true,NA,NA,NA,NA,NA
JN7UKaF3,32k26u12eq14p7ktnmss8y5zd9bdv8,3of2m9aatk1vzht7728km19dnbozka,JN7UKaF3,2020-0188,2021-10-14,10:14:02,11:28:27,NA,incomplete,false,true,NA,8,4,NA,white,m_s_083.jpg,NA,NA,pleasant,unpleasant,NA,NA,NA,NA,NA,left,1817.5,true,NA,NA,NA,NA,NA
JN7UKaF3,32k26u12eq14p7ktnmss8y5zd9bdv8,3of2m9aatk1vzht7728km19dnbozka,JN7UKaF3,2020-0188,2021-10-14,10:14:02,11:28:27,NA,incomplete,false,true,NA,8,5,NA,white,m_l_079.jpg,NA,NA,unpleasant,pleasant,NA,NA,NA,NA,NA,left,2030.20000000112,true,NA,NA,NA,NA,NA
JN7UKaF3,32k26u12eq14p7ktnmss8y5zd9bdv8,3of2m9aatk1vzht7728km19dnbozka,JN7UKaF3,2020-0188,2021-10-14,10:14:02,11:28:27,NA,incomplete,false,true,NA,8,6,NA,black,n_l_021.jpg,NA,NA,pleasant,unpleasant,NA,NA,NA,NA,NA,left,2394.19999999925,true,NA,NA,NA,NA,NA
JN7UKaF3,32k26u12eq14p7ktnmss8y5zd9bdv8,3of2m9aatk1vzht7728km19dnbozka,JN7UKaF3,2020-0188,2021-10-14,10:14:02,11:28:27,NA,incomplete,false,true,NA,8,7,NA,black,n_s_035.jpg,NA,NA,unpleasant,pleasant,NA,NA,NA,NA,NA,right,1280.10000000149,true,NA,NA,NA,NA,NA
JN7UKaF3,32k26u12eq14p7ktnmss8y5zd9bdv8,3of2m9aatk1vzht7728km19dnbozka,JN7UKaF3,2020-0188,2021-10-14,10:14:02,11:28:27,NA,incomplete,false,true,NA,8,8,NA,black,n_l_114.jpg,NA,NA,unpleasant,pleasant,NA,NA,NA,NA,NA,left,1813.39999999851,true,NA,NA,NA,NA,NA
