workerId,hitId,assignmentId,subject,studyid,exp_date,exp_start,exp_end,time_start,time_end,practice,encoding,memory,block,trial,event_order,event,stim,answer,context_type,label_left,label_right,left_image,left_event,right_image,right_event,condition,response,response_time,response_acc,order_response,order_response_time,order_acc,distance_response,distance_response_time
K6xpwZWS,3mdwe879vkfdd3966pwqlqs2jwg9bh,3p4rdnwnd9jet7yfpdkmlr6ac9mijx,K6xpwZWS,2020-0188,2021-10-14,10:41:33,12:21:23,NA,incomplete,true,true,NA,0,0,NA,brown,n_l_060.jpg,NA,NA,unpleasant,pleasant,NA,NA,NA,NA,NA,right,1872,true,NA,NA,NA,NA,NA
K6xpwZWS,3mdwe879vkfdd3966pwqlqs2jwg9bh,3p4rdnwnd9jet7yfpdkmlr6ac9mijx,K6xpwZWS,2020-0188,2021-10-14,10:41:33,12:21:23,NA,incomplete,true,true,NA,0,1,NA,brown,m_s_092.jpg,NA,NA,unpleasant,pleasant,NA,NA,NA,NA,NA,right,1123,true,NA,NA,NA,NA,NA
K6xpwZWS,3mdwe879vkfdd3966pwqlqs2jwg9bh,3p4rdnwnd9jet7yfpdkmlr6ac9mijx,K6xpwZWS,2020-0188,2021-10-14,10:41:33,12:21:23,NA,incomplete,true,true,NA,0,2,NA,brown,n_s_109.jpg,NA,NA,pleasant,unpleasant,NA,NA,NA,NA,NA,right,1820,true,NA,NA,NA,NA,NA
K6xpwZWS,3mdwe879vkfdd3966pwqlqs2jwg9bh,3p4rdnwnd9jet7yfpdkmlr6ac9mijx,K6xpwZWS,2020-0188,2021-10-14,10:41:33,12:21:23,NA,incomplete,true,true,NA,0,3,NA,brown,n_l_082.jpg,NA,NA,unpleasant,pleasant,NA,NA,NA,NA,NA,right,1367,true,NA,NA,NA,NA,NA
K6xpwZWS,3mdwe879vkfdd3966pwqlqs2jwg9bh,3p4rdnwnd9jet7yfpdkmlr6ac9mijx,K6xpwZWS,2020-0188,2021-10-14,10:41:33,12:21:23,NA,incomplete,true,true,NA,0,4,NA,brown,n_s_009.jpg,NA,NA,pleasant,unpleasant,NA,NA,NA,NA,NA,left,1206,true,NA,NA,NA,NA,NA
K6xpwZWS,3mdwe879vkfdd3966pwqlqs2jwg9bh,3p4rdnwnd9jet7yfpdkmlr6ac9mijx,K6xpwZWS,2020-0188,2021-10-14,10:41:33,12:21:23,NA,incomplete,true,true,NA,0,5,NA,brown,m_s_062.jpg,NA,NA,pleasant,unpleasant,NA,NA,NA,NA,NA,left,1147,true,NA,NA,NA,NA,NA
K6xpwZWS,3mdwe879vkfdd3966pwqlqs2jwg9bh,3p4rdnwnd9jet7yfpdkmlr6ac9mijx,K6xpwZWS,2020-0188,2021-10-14,10:41:33,12:21:23,NA,incomplete,true,true,NA,0,6,NA,orange,m_l_057.jpg,NA,NA,pleasant,unpleasant,NA,NA,NA,NA,NA,right,1550,true,NA,NA,NA,NA,NA
K6xpwZWS,3mdwe879vkfdd3966pwqlqs2jwg9bh,3p4rdnwnd9jet7yfpdkmlr6ac9mijx,K6xpwZWS,2020-0188,2021-10-14,10:41:33,12:21:23,NA,incomplete,true,true,NA,0,7,NA,orange,m_s_078.jpg,NA,NA,pleasant,unpleasant,NA,NA,NA,NA,NA,left,1206,true,NA,NA,NA,NA,NA
K6xpwZWS,3mdwe879vkfdd3966pwqlqs2jwg9bh,3p4rdnwnd9jet7yfpdkmlr6ac9mijx,K6xpwZWS,2020-0188,2021-10-14,10:41:33,12:21:23,NA,incomplete,true,true,NA,0,8,NA,orange,m_s_087.jpg,NA,NA,pleasant,unpleasant,NA,NA,NA,NA,NA,left,1284,true,NA,NA,NA,NA,NA
K6xpwZWS,3mdwe879vkfdd3966pwqlqs2jwg9bh,3p4rdnwnd9jet7yfpdkmlr6ac9mijx,K6xpwZWS,2020-0188,2021-10-14,10:41:33,12:21:23,NA,incomplete,true,true,NA,0,9,NA,orange,n_s_103.jpg,NA,NA,pleasant,unpleasant,NA,NA,NA,NA,NA,left,1005,true,NA,NA,NA,NA,NA
K6xpwZWS,3mdwe879vkfdd3966pwqlqs2jwg9bh,3p4rdnwnd9jet7yfpdkmlr6ac9mijx,K6xpwZWS,2020-0188,2021-10-14,10:41:33,12:21:23,NA,incomplete,true,true,NA,0,10,NA,orange,m_l_095.jpg,NA,NA,pleasant,unpleasant,NA,NA,NA,NA,NA,left,1152,true,NA,NA,NA,NA,NA
K6xpwZWS,3mdwe879vkfdd3966pwqlqs2jwg9bh,3p4rdnwnd9jet7yfpdkmlr6ac9mijx,K6xpwZWS,2020-0188,2021-10-14,10:41:33,12:21:23,NA,incomplete,true,true,NA,0,11,NA,orange,n_l_107.jpg,NA,NA,unpleasant,pleasant,NA,NA,NA,NA,NA,left,1311,true,NA,NA,NA,NA,NA
K6xpwZWS,3mdwe879vkfdd3966pwqlqs2jwg9bh,3p4rdnwnd9jet7yfpdkmlr6ac9mijx,K6xpwZWS,2020-0188,2021-10-14,10:41:33,12:21:23,NA,incomplete,true,true,NA,0,12,NA,purple,m_s_112.jpg,NA,NA,pleasant,unpleasant,NA,NA,NA,NA,NA,left,1022,true,NA,NA,NA,NA,NA
K6xpwZWS,3mdwe879vkfdd3966pwqlqs2jwg9bh,3p4rdnwnd9jet7yfpdkmlr6ac9mijx,K6xpwZWS,2020-0188,2021-10-14,10:41:33,12:21:23,NA,incomplete,true,true,NA,0,13,NA,purple,m_l_066.jpg,NA,NA,pleasant,unpleasant,NA,NA,NA,NA,NA,left,825,true,NA,NA,NA,NA,NA
K6xpwZWS,3mdwe879vkfdd3966pwqlqs2jwg9bh,3p4rdnwnd9jet7yfpdkmlr6ac9mijx,K6xpwZWS,2020-0188,2021-10-14,10:41:33,12:21:23,NA,incomplete,true,true,NA,0,14,NA,purple,n_s_051.jpg,NA,NA,unpleasant,pleasant,NA,NA,NA,NA,NA,right,1422,true,NA,NA,NA,NA,NA
K6xpwZWS,3mdwe879vkfdd3966pwqlqs2jwg9bh,3p4rdnwnd9jet7yfpdkmlr6ac9mijx,K6xpwZWS,2020-0188,2021-10-14,10:41:33,12:21:23,NA,incomplete,true,true,NA,0,15,NA,purple,m_l_086.jpg,NA,NA,unpleasant,pleasant,NA,NA,NA,NA,NA,right,1273,true,NA,NA,NA,NA,NA
K6xpwZWS,3mdwe879vkfdd3966pwqlqs2jwg9bh,3p4rdnwnd9jet7yfpdkmlr6ac9mijx,K6xpwZWS,2020-0188,2021-10-14,10:41:33,12:21:23,NA,incomplete,true,true,NA,0,16,NA,purple,n_s_061.jpg,NA,NA,unpleasant,pleasant,NA,NA,NA,NA,NA,right,981,true,NA,NA,NA,NA,NA
K6xpwZWS,3mdwe879vkfdd3966pwqlqs2jwg9bh,3p4rdnwnd9jet7yfpdkmlr6ac9mijx,K6xpwZWS,2020-0188,2021-10-14,10:41:33,12:21:23,NA,incomplete,true,true,NA,0,17,NA,purple,n_s_042.jpg,NA,NA,pleasant,unpleasant,NA,NA,NA,NA,NA,left,1515,true,NA,NA,NA,NA,NA
K6xpwZWS,3mdwe879vkfdd3966pwqlqs2jwg9bh,3p4rdnwnd9jet7yfpdkmlr6ac9mijx,K6xpwZWS,2020-0188,2021-10-14,10:41:33,12:21:23,NA,incomplete,true,true,NA,0,18,NA,blue,n_l_035.jpg,NA,NA,pleasant,unpleasant,NA,NA,NA,NA,NA,left,941,true,NA,NA,NA,NA,NA
K6xpwZWS,3mdwe879vkfdd3966pwqlqs2jwg9bh,3p4rdnwnd9jet7yfpdkmlr6ac9mijx,K6xpwZWS,2020-0188,2021-10-14,10:41:33,12:21:23,NA,incomplete,true,true,NA,0,19,NA,blue,n_l_115.jpg,NA,NA,pleasant,unpleasant,NA,NA,NA,NA,NA,left,1119,true,NA,NA,NA,NA,NA
K6xpwZWS,3mdwe879vkfdd3966pwqlqs2jwg9bh,3p4rdnwnd9jet7yfpdkmlr6ac9mijx,K6xpwZWS,2020-0188,2021-10-14,10:41:33,12:21:23,NA,incomplete,true,true,NA,0,20,NA,blue,m_s_006.jpg,NA,NA,pleasant,unpleasant,NA,NA,NA,NA,NA,left,1220,true,NA,NA,NA,NA,NA
K6xpwZWS,3mdwe879vkfdd3966pwqlqs2jwg9bh,3p4rdnwnd9jet7yfpdkmlr6ac9mijx,K6xpwZWS,2020-0188,2021-10-14,10:41:33,12:21:23,NA,incomplete,true,true,NA,0,21,NA,blue,n_s_030.jpg,NA,NA,unpleasant,pleasant,NA,NA,NA,NA,NA,right,1175,true,NA,NA,NA,NA,NA
K6xpwZWS,3mdwe879vkfdd3966pwqlqs2jwg9bh,3p4rdnwnd9jet7yfpdkmlr6ac9mijx,K6xpwZWS,2020-0188,2021-10-14,10:41:33,12:21:23,NA,incomplete,true,true,NA,0,22,NA,blue,n_s_098.jpg,NA,NA,unpleasant,pleasant,NA,NA,NA,NA,NA,left,1402,true,NA,NA,NA,NA,NA
K6xpwZWS,3mdwe879vkfdd3966pwqlqs2jwg9bh,3p4rdnwnd9jet7yfpdkmlr6ac9mijx,K6xpwZWS,2020-0188,2021-10-14,10:41:33,12:21:23,NA,incomplete,true,true,NA,0,23,NA,blue,n_s_015.jpg,NA,NA,pleasant,unpleasant,NA,NA,NA,NA,NA,left,1312,true,NA,NA,NA,NA,NA
K6xpwZWS,3mdwe879vkfdd3966pwqlqs2jwg9bh,3p4rdnwnd9jet7yfpdkmlr6ac9mijx,K6xpwZWS,2020-0188,2021-10-14,10:41:33,12:21:23,NA,incomplete,true,true,NA,0,24,NA,green,n_s_071.jpg,NA,NA,pleasant,unpleasant,NA,NA,NA,NA,NA,left,955,true,NA,NA,NA,NA,NA
K6xpwZWS,3mdwe879vkfdd3966pwqlqs2jwg9bh,3p4rdnwnd9jet7yfpdkmlr6ac9mijx,K6xpwZWS,2020-0188,2021-10-14,10:41:33,12:21:23,NA,incomplete,true,true,NA,0,25,NA,green,m_s_096.jpg,NA,NA,unpleasant,pleasant,NA,NA,NA,NA,NA,right,1382,true,NA,NA,NA,NA,NA
K6xpwZWS,3mdwe879vkfdd3966pwqlqs2jwg9bh,3p4rdnwnd9jet7yfpdkmlr6ac9mijx,K6xpwZWS,2020-0188,2021-10-14,10:41:33,12:21:23,NA,incomplete,true,true,NA,0,26,NA,green,n_l_084.jpg,NA,NA,unpleasant,pleasant,NA,NA,NA,NA,NA,left,1220,true,NA,NA,NA,NA,NA
K6xpwZWS,3mdwe879vkfdd3966pwqlqs2jwg9bh,3p4rdnwnd9jet7yfpdkmlr6ac9mijx,K6xpwZWS,2020-0188,2021-10-14,10:41:33,12:21:23,NA,incomplete,true,true,NA,0,27,NA,green,m_s_081.jpg,NA,NA,unpleasant,pleasant,NA,NA,NA,NA,NA,right,1473,true,NA,NA,NA,NA,NA
K6xpwZWS,3mdwe879vkfdd3966pwqlqs2jwg9bh,3p4rdnwnd9jet7yfpdkmlr6ac9mijx,K6xpwZWS,2020-0188,2021-10-14,10:41:33,12:21:23,NA,incomplete,true,true,NA,0,28,NA,green,n_l_079.jpg,NA,NA,unpleasant,pleasant,NA,NA,NA,NA,NA,left,1605,true,NA,NA,NA,NA,NA
K6xpwZWS,3mdwe879vkfdd3966pwqlqs2jwg9bh,3p4rdnwnd9jet7yfpdkmlr6ac9mijx,K6xpwZWS,2020-0188,2021-10-14,10:41:33,12:21:23,NA,incomplete,true,true,NA,0,29,NA,green,n_l_076.jpg,NA,NA,unpleasant,pleasant,NA,NA,NA,NA,NA,left,1515,true,NA,NA,NA,NA,NA
K6xpwZWS,3mdwe879vkfdd3966pwqlqs2jwg9bh,3p4rdnwnd9jet7yfpdkmlr6ac9mijx,K6xpwZWS,2020-0188,2021-10-14,10:41:33,12:21:23,NA,incomplete,true,true,NA,0,30,NA,yellow,m_l_053.jpg,NA,NA,pleasant,unpleasant,NA,NA,NA,NA,NA,left,1114,true,NA,NA,NA,NA,NA
K6xpwZWS,3mdwe879vkfdd3966pwqlqs2jwg9bh,3p4rdnwnd9jet7yfpdkmlr6ac9mijx,K6xpwZWS,2020-0188,2021-10-14,10:41:33,12:21:23,NA,incomplete,true,true,NA,0,31,NA,yellow,m_l_100.jpg,NA,NA,pleasant,unpleasant,NA,NA,NA,NA,NA,left,1125,true,NA,NA,NA,NA,NA
K6xpwZWS,3mdwe879vkfdd3966pwqlqs2jwg9bh,3p4rdnwnd9jet7yfpdkmlr6ac9mijx,K6xpwZWS,2020-0188,2021-10-14,10:41:33,12:21:23,NA,incomplete,true,true,NA,0,32,NA,yellow,n_l_056.jpg,NA,NA,pleasant,unpleasant,NA,NA,NA,NA,NA,right,1426,true,NA,NA,NA,NA,NA
K6xpwZWS,3mdwe879vkfdd3966pwqlqs2jwg9bh,3p4rdnwnd9jet7yfpdkmlr6ac9mijx,K6xpwZWS,2020-0188,2021-10-14,10:41:33,12:21:23,NA,incomplete,true,true,NA,0,33,NA,yellow,n_s_013.jpg,NA,NA,pleasant,unpleasant,NA,NA,NA,NA,NA,left,1112,true,NA,NA,NA,NA,NA
K6xpwZWS,3mdwe879vkfdd3966pwqlqs2jwg9bh,3p4rdnwnd9jet7yfpdkmlr6ac9mijx,K6xpwZWS,2020-0188,2021-10-14,10:41:33,12:21:23,NA,incomplete,true,true,NA,0,34,NA,yellow,m_l_032.jpg,NA,NA,unpleasant,pleasant,NA,NA,NA,NA,NA,right,2175,true,NA,NA,NA,NA,NA
K6xpwZWS,3mdwe879vkfdd3966pwqlqs2jwg9bh,3p4rdnwnd9jet7yfpdkmlr6ac9mijx,K6xpwZWS,2020-0188,2021-10-14,10:41:33,12:21:23,NA,incomplete,true,true,NA,0,35,NA,yellow,m_l_018.jpg,NA,NA,unpleasant,pleasant,NA,NA,NA,NA,NA,right,1505,true,NA,NA,NA,NA,NA
K6xpwZWS,3mdwe879vkfdd3966pwqlqs2jwg9bh,3p4rdnwnd9jet7yfpdkmlr6ac9mijx,K6xpwZWS,2020-0188,2021-10-14,10:41:33,12:21:23,NA,incomplete,true,NA,true,0,0,NA,NA,NA,right,absent,NA,NA,n_l_107.jpg,orange,m_s_078.jpg,orange,within,NA,NaN,NA,right,70629,1,3,28918
K6xpwZWS,3mdwe879vkfdd3966pwqlqs2jwg9bh,3p4rdnwnd9jet7yfpdkmlr6ac9mijx,K6xpwZWS,2020-0188,2021-10-14,10:41:33,12:21:23,NA,incomplete,true,NA,true,0,1,NA,NA,NA,left,present,NA,NA,n_s_098.jpg,blue,n_l_084.jpg,green,between,NA,NaN,NA,left,121834,1,3,1686
K6xpwZWS,3mdwe879vkfdd3966pwqlqs2jwg9bh,3p4rdnwnd9jet7yfpdkmlr6ac9mijx,K6xpwZWS,2020-0188,2021-10-14,10:41:33,12:21:23,NA,incomplete,true,NA,true,0,2,NA,NA,NA,right,absent,NA,NA,m_s_087.jpg,orange,n_s_009.jpg,brown,between,NA,NaN,NA,right,30805,1,3,4305
K6xpwZWS,3mdwe879vkfdd3966pwqlqs2jwg9bh,3p4rdnwnd9jet7yfpdkmlr6ac9mijx,K6xpwZWS,2020-0188,2021-10-14,10:41:33,12:21:23,NA,incomplete,true,NA,true,0,3,NA,NA,NA,right,present,NA,NA,n_l_076.jpg,green,m_s_096.jpg,green,within,NA,NaN,NA,right,71998,1,3,2320
K6xpwZWS,3mdwe879vkfdd3966pwqlqs2jwg9bh,3p4rdnwnd9jet7yfpdkmlr6ac9mijx,K6xpwZWS,2020-0188,2021-10-14,10:41:33,12:21:23,NA,incomplete,true,NA,true,0,4,NA,NA,NA,right,absent,NA,NA,n_s_042.jpg,purple,m_l_066.jpg,purple,within,NA,NaN,NA,right,120243,1,3,1967
K6xpwZWS,3mdwe879vkfdd3966pwqlqs2jwg9bh,3p4rdnwnd9jet7yfpdkmlr6ac9mijx,K6xpwZWS,2020-0188,2021-10-14,10:41:33,12:21:23,NA,incomplete,true,NA,true,0,5,NA,NA,NA,right,present,NA,NA,m_s_006.jpg,blue,n_s_061.jpg,purple,between,NA,NaN,NA,right,31307,1,3,1919
K6xpwZWS,3mdwe879vkfdd3966pwqlqs2jwg9bh,3p4rdnwnd9jet7yfpdkmlr6ac9mijx,K6xpwZWS,2020-0188,2021-10-14,10:41:33,12:21:23,NA,incomplete,true,NA,true,0,6,NA,NA,NA,right,absent,NA,NA,n_l_056.jpg,yellow,n_l_079.jpg,green,between,NA,NaN,NA,right,34961,1,3,1821
K6xpwZWS,3mdwe879vkfdd3966pwqlqs2jwg9bh,3p4rdnwnd9jet7yfpdkmlr6ac9mijx,K6xpwZWS,2020-0188,2021-10-14,10:41:33,12:21:23,NA,incomplete,true,NA,true,0,7,NA,NA,NA,left,present,NA,NA,n_l_115.jpg,blue,n_s_015.jpg,blue,within,NA,NaN,NA,left,51810,1,3,1792
K6xpwZWS,3mdwe879vkfdd3966pwqlqs2jwg9bh,3p4rdnwnd9jet7yfpdkmlr6ac9mijx,K6xpwZWS,2020-0188,2021-10-14,10:41:33,12:21:23,NA,incomplete,true,NA,true,0,8,NA,NA,NA,left,present,NA,NA,m_s_092.jpg,brown,m_s_062.jpg,brown,within,NA,NaN,NA,left,20095,1,3,1988
K6xpwZWS,3mdwe879vkfdd3966pwqlqs2jwg9bh,3p4rdnwnd9jet7yfpdkmlr6ac9mijx,K6xpwZWS,2020-0188,2021-10-14,10:41:33,12:21:23,NA,incomplete,true,NA,true,0,9,NA,NA,NA,right,absent,NA,NA,m_l_018.jpg,yellow,m_l_100.jpg,yellow,within,NA,NaN,NA,right,118300,1,3,2033
K6xpwZWS,3mdwe879vkfdd3966pwqlqs2jwg9bh,3p4rdnwnd9jet7yfpdkmlr6ac9mijx,K6xpwZWS,2020-0188,2021-10-14,10:41:33,12:21:23,NA,incomplete,true,NA,true,0,10,NA,NA,NA,left,present,NA,NA,m_l_095.jpg,orange,n_s_051.jpg,purple,between,NA,NaN,NA,left,27180,1,3,1486
K6xpwZWS,3mdwe879vkfdd3966pwqlqs2jwg9bh,3p4rdnwnd9jet7yfpdkmlr6ac9mijx,K6xpwZWS,2020-0188,2021-10-14,10:41:33,12:21:23,NA,incomplete,false,true,NA,1,0,NA,orange,m_s_077.jpg,NA,NA,unpleasant,pleasant,NA,NA,NA,NA,NA,right,2491,true,NA,NA,NA,NA,NA
K6xpwZWS,3mdwe879vkfdd3966pwqlqs2jwg9bh,3p4rdnwnd9jet7yfpdkmlr6ac9mijx,K6xpwZWS,2020-0188,2021-10-14,10:41:33,12:21:23,NA,incomplete,false,true,NA,1,1,NA,orange,n_l_021.jpg,NA,NA,unpleasant,pleasant,NA,NA,NA,NA,NA,left,773,true,NA,NA,NA,NA,NA
K6xpwZWS,3mdwe879vkfdd3966pwqlqs2jwg9bh,3p4rdnwnd9jet7yfpdkmlr6ac9mijx,K6xpwZWS,2020-0188,2021-10-14,10:41:33,12:21:23,NA,incomplete,false,true,NA,1,2,NA,orange,n_s_052.jpg,NA,NA,pleasant,unpleasant,NA,NA,NA,NA,NA,left,2065,true,NA,NA,NA,NA,NA
K6xpwZWS,3mdwe879vkfdd3966pwqlqs2jwg9bh,3p4rdnwnd9jet7yfpdkmlr6ac9mijx,K6xpwZWS,2020-0188,2021-10-14,10:41:33,12:21:23,NA,incomplete,false,true,NA,1,3,NA,orange,n_l_108.jpg,NA,NA,unpleasant,pleasant,NA,NA,NA,NA,NA,none,0,false,NA,NA,NA,NA,NA
K6xpwZWS,3mdwe879vkfdd3966pwqlqs2jwg9bh,3p4rdnwnd9jet7yfpdkmlr6ac9mijx,K6xpwZWS,2020-0188,2021-10-14,10:41:33,12:21:23,NA,incomplete,false,true,NA,1,4,NA,orange,m_l_031.jpg,NA,NA,pleasant,unpleasant,NA,NA,NA,NA,NA,none,0,false,NA,NA,NA,NA,NA
K6xpwZWS,3mdwe879vkfdd3966pwqlqs2jwg9bh,3p4rdnwnd9jet7yfpdkmlr6ac9mijx,K6xpwZWS,2020-0188,2021-10-14,10:41:33,12:21:23,NA,incomplete,false,true,NA,1,5,NA,orange,m_s_036.jpg,NA,NA,unpleasant,pleasant,NA,NA,NA,NA,NA,none,0,false,NA,NA,NA,NA,NA
K6xpwZWS,3mdwe879vkfdd3966pwqlqs2jwg9bh,3p4rdnwnd9jet7yfpdkmlr6ac9mijx,K6xpwZWS,2020-0188,2021-10-14,10:41:33,12:21:23,NA,incomplete,false,true,NA,1,6,NA,brown,n_l_109.jpg,NA,NA,unpleasant,pleasant,NA,NA,NA,NA,NA,none,0,false,NA,NA,NA,NA,NA
K6xpwZWS,3mdwe879vkfdd3966pwqlqs2jwg9bh,3p4rdnwnd9jet7yfpdkmlr6ac9mijx,K6xpwZWS,2020-0188,2021-10-14,10:41:33,12:21:23,NA,incomplete,false,true,NA,1,7,NA,brown,m_s_014.jpg,NA,NA,pleasant,unpleasant,NA,NA,NA,NA,NA,none,0,false,NA,NA,NA,NA,NA
K6xpwZWS,3mdwe879vkfdd3966pwqlqs2jwg9bh,3p4rdnwnd9jet7yfpdkmlr6ac9mijx,K6xpwZWS,2020-0188,2021-10-14,10:41:33,12:21:23,NA,incomplete,false,true,NA,1,8,NA,brown,n_s_036.jpg,NA,NA,pleasant,unpleasant,NA,NA,NA,NA,NA,none,0,false,NA,NA,NA,NA,NA
K6xpwZWS,3mdwe879vkfdd3966pwqlqs2jwg9bh,3p4rdnwnd9jet7yfpdkmlr6ac9mijx,K6xpwZWS,2020-0188,2021-10-14,10:41:33,12:21:23,NA,incomplete,false,true,NA,1,9,NA,brown,m_s_005.jpg,NA,NA,pleasant,unpleasant,NA,NA,NA,NA,NA,none,0,false,NA,NA,NA,NA,NA
K6xpwZWS,3mdwe879vkfdd3966pwqlqs2jwg9bh,3p4rdnwnd9jet7yfpdkmlr6ac9mijx,K6xpwZWS,2020-0188,2021-10-14,10:41:33,12:21:23,NA,incomplete,false,true,NA,1,10,NA,brown,m_l_090.jpg,NA,NA,pleasant,unpleasant,NA,NA,NA,NA,NA,none,0,false,NA,NA,NA,NA,NA
K6xpwZWS,3mdwe879vkfdd3966pwqlqs2jwg9bh,3p4rdnwnd9jet7yfpdkmlr6ac9mijx,K6xpwZWS,2020-0188,2021-10-14,10:41:33,12:21:23,NA,incomplete,false,true,NA,1,11,NA,brown,m_l_050.jpg,NA,NA,pleasant,unpleasant,NA,NA,NA,NA,NA,left,1330,true,NA,NA,NA,NA,NA
K6xpwZWS,3mdwe879vkfdd3966pwqlqs2jwg9bh,3p4rdnwnd9jet7yfpdkmlr6ac9mijx,K6xpwZWS,2020-0188,2021-10-14,10:41:33,12:21:23,NA,incomplete,false,true,NA,1,12,NA,green,n_l_022.jpg,NA,NA,unpleasant,pleasant,NA,NA,NA,NA,NA,right,2038,true,NA,NA,NA,NA,NA
K6xpwZWS,3mdwe879vkfdd3966pwqlqs2jwg9bh,3p4rdnwnd9jet7yfpdkmlr6ac9mijx,K6xpwZWS,2020-0188,2021-10-14,10:41:33,12:21:23,NA,incomplete,false,true,NA,1,13,NA,green,m_s_076.jpg,NA,NA,unpleasant,pleasant,NA,NA,NA,NA,NA,right,1270,true,NA,NA,NA,NA,NA
K6xpwZWS,3mdwe879vkfdd3966pwqlqs2jwg9bh,3p4rdnwnd9jet7yfpdkmlr6ac9mijx,K6xpwZWS,2020-0188,2021-10-14,10:41:33,12:21:23,NA,incomplete,false,true,NA,1,14,NA,green,m_l_030.jpg,NA,NA,unpleasant,pleasant,NA,NA,NA,NA,NA,right,927,true,NA,NA,NA,NA,NA
K6xpwZWS,3mdwe879vkfdd3966pwqlqs2jwg9bh,3p4rdnwnd9jet7yfpdkmlr6ac9mijx,K6xpwZWS,2020-0188,2021-10-14,10:41:33,12:21:23,NA,incomplete,false,true,NA,1,15,NA,green,m_s_097.jpg,NA,NA,unpleasant,pleasant,NA,NA,NA,NA,NA,right,901,true,NA,NA,NA,NA,NA
K6xpwZWS,3mdwe879vkfdd3966pwqlqs2jwg9bh,3p4rdnwnd9jet7yfpdkmlr6ac9mijx,K6xpwZWS,2020-0188,2021-10-14,10:41:33,12:21:23,NA,incomplete,false,true,NA,1,16,NA,green,n_s_047.jpg,NA,NA,unpleasant,pleasant,NA,NA,NA,NA,NA,right,1283,true,NA,NA,NA,NA,NA
K6xpwZWS,3mdwe879vkfdd3966pwqlqs2jwg9bh,3p4rdnwnd9jet7yfpdkmlr6ac9mijx,K6xpwZWS,2020-0188,2021-10-14,10:41:33,12:21:23,NA,incomplete,false,true,NA,1,17,NA,green,m_l_067.jpg,NA,NA,unpleasant,pleasant,NA,NA,NA,NA,NA,right,1193,true,NA,NA,NA,NA,NA
K6xpwZWS,3mdwe879vkfdd3966pwqlqs2jwg9bh,3p4rdnwnd9jet7yfpdkmlr6ac9mijx,K6xpwZWS,2020-0188,2021-10-14,10:41:33,12:21:23,NA,incomplete,false,true,NA,1,18,NA,black,m_l_056.jpg,NA,NA,unpleasant,pleasant,NA,NA,NA,NA,NA,right,1267,true,NA,NA,NA,NA,NA
K6xpwZWS,3mdwe879vkfdd3966pwqlqs2jwg9bh,3p4rdnwnd9jet7yfpdkmlr6ac9mijx,K6xpwZWS,2020-0188,2021-10-14,10:41:33,12:21:23,NA,incomplete,false,true,NA,1,19,NA,black,n_s_025.jpg,NA,NA,pleasant,unpleasant,NA,NA,NA,NA,NA,right,1506,true,NA,NA,NA,NA,NA
K6xpwZWS,3mdwe879vkfdd3966pwqlqs2jwg9bh,3p4rdnwnd9jet7yfpdkmlr6ac9mijx,K6xpwZWS,2020-0188,2021-10-14,10:41:33,12:21:23,NA,incomplete,false,true,NA,1,20,NA,black,n_l_116.jpg,NA,NA,unpleasant,pleasant,NA,NA,NA,NA,NA,right,1325,true,NA,NA,NA,NA,NA
K6xpwZWS,3mdwe879vkfdd3966pwqlqs2jwg9bh,3p4rdnwnd9jet7yfpdkmlr6ac9mijx,K6xpwZWS,2020-0188,2021-10-14,10:41:33,12:21:23,NA,incomplete,false,true,NA,1,21,NA,black,n_s_043.jpg,NA,NA,unpleasant,pleasant,NA,NA,NA,NA,NA,right,1186,true,NA,NA,NA,NA,NA
K6xpwZWS,3mdwe879vkfdd3966pwqlqs2jwg9bh,3p4rdnwnd9jet7yfpdkmlr6ac9mijx,K6xpwZWS,2020-0188,2021-10-14,10:41:33,12:21:23,NA,incomplete,false,true,NA,1,22,NA,black,n_l_094.jpg,NA,NA,unpleasant,pleasant,NA,NA,NA,NA,NA,right,1187,true,NA,NA,NA,NA,NA
K6xpwZWS,3mdwe879vkfdd3966pwqlqs2jwg9bh,3p4rdnwnd9jet7yfpdkmlr6ac9mijx,K6xpwZWS,2020-0188,2021-10-14,10:41:33,12:21:23,NA,incomplete,false,true,NA,1,23,NA,black,n_l_009.jpg,NA,NA,unpleasant,pleasant,NA,NA,NA,NA,NA,right,1240,true,NA,NA,NA,NA,NA
K6xpwZWS,3mdwe879vkfdd3966pwqlqs2jwg9bh,3p4rdnwnd9jet7yfpdkmlr6ac9mijx,K6xpwZWS,2020-0188,2021-10-14,10:41:33,12:21:23,NA,incomplete,false,true,NA,1,24,NA,white,m_l_005.jpg,NA,NA,unpleasant,pleasant,NA,NA,NA,NA,NA,right,1610,true,NA,NA,NA,NA,NA
K6xpwZWS,3mdwe879vkfdd3966pwqlqs2jwg9bh,3p4rdnwnd9jet7yfpdkmlr6ac9mijx,K6xpwZWS,2020-0188,2021-10-14,10:41:33,12:21:23,NA,incomplete,false,true,NA,1,25,NA,white,n_l_111.jpg,NA,NA,unpleasant,pleasant,NA,NA,NA,NA,NA,right,1820,true,NA,NA,NA,NA,NA
K6xpwZWS,3mdwe879vkfdd3966pwqlqs2jwg9bh,3p4rdnwnd9jet7yfpdkmlr6ac9mijx,K6xpwZWS,2020-0188,2021-10-14,10:41:33,12:21:23,NA,incomplete,false,true,NA,1,26,NA,white,m_s_074.jpg,NA,NA,pleasant,unpleasant,NA,NA,NA,NA,NA,left,1392,true,NA,NA,NA,NA,NA
K6xpwZWS,3mdwe879vkfdd3966pwqlqs2jwg9bh,3p4rdnwnd9jet7yfpdkmlr6ac9mijx,K6xpwZWS,2020-0188,2021-10-14,10:41:33,12:21:23,NA,incomplete,false,true,NA,1,27,NA,white,n_l_099.jpg,NA,NA,unpleasant,pleasant,NA,NA,NA,NA,NA,left,1589,true,NA,NA,NA,NA,NA
K6xpwZWS,3mdwe879vkfdd3966pwqlqs2jwg9bh,3p4rdnwnd9jet7yfpdkmlr6ac9mijx,K6xpwZWS,2020-0188,2021-10-14,10:41:33,12:21:23,NA,incomplete,false,true,NA,1,28,NA,white,n_s_087.jpg,NA,NA,pleasant,unpleasant,NA,NA,NA,NA,NA,left,1613,true,NA,NA,NA,NA,NA
K6xpwZWS,3mdwe879vkfdd3966pwqlqs2jwg9bh,3p4rdnwnd9jet7yfpdkmlr6ac9mijx,K6xpwZWS,2020-0188,2021-10-14,10:41:33,12:21:23,NA,incomplete,false,true,NA,1,29,NA,white,m_l_037.jpg,NA,NA,unpleasant,pleasant,NA,NA,NA,NA,NA,right,2045,true,NA,NA,NA,NA,NA
K6xpwZWS,3mdwe879vkfdd3966pwqlqs2jwg9bh,3p4rdnwnd9jet7yfpdkmlr6ac9mijx,K6xpwZWS,2020-0188,2021-10-14,10:41:33,12:21:23,NA,incomplete,false,true,NA,1,30,NA,gray,m_s_060.jpg,NA,NA,pleasant,unpleasant,NA,NA,NA,NA,NA,left,2437,true,NA,NA,NA,NA,NA
K6xpwZWS,3mdwe879vkfdd3966pwqlqs2jwg9bh,3p4rdnwnd9jet7yfpdkmlr6ac9mijx,K6xpwZWS,2020-0188,2021-10-14,10:41:33,12:21:23,NA,incomplete,false,true,NA,1,31,NA,gray,m_s_099.jpg,NA,NA,unpleasant,pleasant,NA,NA,NA,NA,NA,right,2044,true,NA,NA,NA,NA,NA
K6xpwZWS,3mdwe879vkfdd3966pwqlqs2jwg9bh,3p4rdnwnd9jet7yfpdkmlr6ac9mijx,K6xpwZWS,2020-0188,2021-10-14,10:41:33,12:21:23,NA,incomplete,false,true,NA,1,32,NA,gray,m_s_066.jpg,NA,NA,pleasant,unpleasant,NA,NA,NA,NA,NA,left,1247,true,NA,NA,NA,NA,NA
K6xpwZWS,3mdwe879vkfdd3966pwqlqs2jwg9bh,3p4rdnwnd9jet7yfpdkmlr6ac9mijx,K6xpwZWS,2020-0188,2021-10-14,10:41:33,12:21:23,NA,incomplete,false,true,NA,1,33,NA,gray,m_s_037.jpg,NA,NA,pleasant,unpleasant,NA,NA,NA,NA,NA,left,1147,true,NA,NA,NA,NA,NA
K6xpwZWS,3mdwe879vkfdd3966pwqlqs2jwg9bh,3p4rdnwnd9jet7yfpdkmlr6ac9mijx,K6xpwZWS,2020-0188,2021-10-14,10:41:33,12:21:23,NA,incomplete,false,true,NA,1,34,NA,gray,n_s_075.jpg,NA,NA,unpleasant,pleasant,NA,NA,NA,NA,NA,left,1616,true,NA,NA,NA,NA,NA
K6xpwZWS,3mdwe879vkfdd3966pwqlqs2jwg9bh,3p4rdnwnd9jet7yfpdkmlr6ac9mijx,K6xpwZWS,2020-0188,2021-10-14,10:41:33,12:21:23,NA,incomplete,false,true,NA,1,35,NA,gray,n_s_018.jpg,NA,NA,unpleasant,pleasant,NA,NA,NA,NA,NA,left,1064,true,NA,NA,NA,NA,NA
K6xpwZWS,3mdwe879vkfdd3966pwqlqs2jwg9bh,3p4rdnwnd9jet7yfpdkmlr6ac9mijx,K6xpwZWS,2020-0188,2021-10-14,10:41:33,12:21:23,NA,incomplete,false,NA,true,1,0,NA,NA,NA,right,absent,NA,NA,n_l_009.jpg,black,n_s_025.jpg,black,within,NA,NaN,NA,right,8666,1,3,1829
K6xpwZWS,3mdwe879vkfdd3966pwqlqs2jwg9bh,3p4rdnwnd9jet7yfpdkmlr6ac9mijx,K6xpwZWS,2020-0188,2021-10-14,10:41:33,12:21:23,NA,incomplete,false,NA,true,1,1,NA,NA,NA,right,absent,NA,NA,m_l_030.jpg,green,m_l_090.jpg,brown,between,NA,NaN,NA,right,2985,1,3,1895
K6xpwZWS,3mdwe879vkfdd3966pwqlqs2jwg9bh,3p4rdnwnd9jet7yfpdkmlr6ac9mijx,K6xpwZWS,2020-0188,2021-10-14,10:41:33,12:21:23,NA,incomplete,false,NA,true,1,2,NA,NA,NA,left,absent,NA,NA,m_s_099.jpg,gray,n_s_018.jpg,gray,within,NA,NaN,NA,right,3605,0,3,967
K6xpwZWS,3mdwe879vkfdd3966pwqlqs2jwg9bh,3p4rdnwnd9jet7yfpdkmlr6ac9mijx,K6xpwZWS,2020-0188,2021-10-14,10:41:33,12:21:23,NA,incomplete,false,NA,true,1,3,NA,NA,NA,right,absent,NA,NA,m_l_050.jpg,brown,m_s_014.jpg,brown,within,NA,NaN,NA,left,2674,0,3,1660
K6xpwZWS,3mdwe879vkfdd3966pwqlqs2jwg9bh,3p4rdnwnd9jet7yfpdkmlr6ac9mijx,K6xpwZWS,2020-0188,2021-10-14,10:41:33,12:21:23,NA,incomplete,false,NA,true,1,4,NA,NA,NA,right,absent,NA,NA,m_s_066.jpg,gray,n_s_087.jpg,white,between,NA,NaN,NA,left,6767,0,3,1528
K6xpwZWS,3mdwe879vkfdd3966pwqlqs2jwg9bh,3p4rdnwnd9jet7yfpdkmlr6ac9mijx,K6xpwZWS,2020-0188,2021-10-14,10:41:33,12:21:23,NA,incomplete,false,NA,true,1,5,NA,NA,NA,left,absent,NA,NA,m_l_031.jpg,orange,n_s_036.jpg,brown,between,NA,NaN,NA,left,2590,1,3,5258
K6xpwZWS,3mdwe879vkfdd3966pwqlqs2jwg9bh,3p4rdnwnd9jet7yfpdkmlr6ac9mijx,K6xpwZWS,2020-0188,2021-10-14,10:41:33,12:21:23,NA,incomplete,false,NA,true,1,6,NA,NA,NA,right,absent,NA,NA,m_l_037.jpg,white,n_l_111.jpg,white,within,NA,NaN,NA,left,2427,0,3,1828
K6xpwZWS,3mdwe879vkfdd3966pwqlqs2jwg9bh,3p4rdnwnd9jet7yfpdkmlr6ac9mijx,K6xpwZWS,2020-0188,2021-10-14,10:41:33,12:21:23,NA,incomplete,false,NA,true,1,7,NA,NA,NA,right,absent,NA,NA,m_l_067.jpg,green,m_s_076.jpg,green,within,NA,NaN,NA,right,5286,1,3,2999
K6xpwZWS,3mdwe879vkfdd3966pwqlqs2jwg9bh,3p4rdnwnd9jet7yfpdkmlr6ac9mijx,K6xpwZWS,2020-0188,2021-10-14,10:41:33,12:21:23,NA,incomplete,false,NA,true,1,8,NA,NA,NA,right,absent,NA,NA,n_l_116.jpg,black,n_s_047.jpg,green,between,NA,NaN,NA,right,5036,1,3,1655
K6xpwZWS,3mdwe879vkfdd3966pwqlqs2jwg9bh,3p4rdnwnd9jet7yfpdkmlr6ac9mijx,K6xpwZWS,2020-0188,2021-10-14,10:41:33,12:21:23,NA,incomplete,false,NA,true,1,9,NA,NA,NA,left,absent,NA,NA,n_l_021.jpg,orange,m_s_036.jpg,orange,within,NA,NaN,NA,left,5227,1,3,1267
K6xpwZWS,3mdwe879vkfdd3966pwqlqs2jwg9bh,3p4rdnwnd9jet7yfpdkmlr6ac9mijx,K6xpwZWS,2020-0188,2021-10-14,10:41:33,12:21:23,NA,incomplete,false,NA,true,1,10,NA,NA,NA,left,absent,NA,NA,n_l_094.jpg,black,m_s_074.jpg,white,between,NA,NaN,NA,right,5155,0,3,3058
K6xpwZWS,3mdwe879vkfdd3966pwqlqs2jwg9bh,3p4rdnwnd9jet7yfpdkmlr6ac9mijx,K6xpwZWS,2020-0188,2021-10-14,10:41:33,12:21:23,NA,incomplete,false,true,NA,2,0,NA,gray,m_l_079.jpg,NA,NA,unpleasant,pleasant,NA,NA,NA,NA,NA,left,2884,true,NA,NA,NA,NA,NA
K6xpwZWS,3mdwe879vkfdd3966pwqlqs2jwg9bh,3p4rdnwnd9jet7yfpdkmlr6ac9mijx,K6xpwZWS,2020-0188,2021-10-14,10:41:33,12:21:23,NA,incomplete,false,true,NA,2,1,NA,gray,n_l_083.jpg,NA,NA,pleasant,unpleasant,NA,NA,NA,NA,NA,right,1979,true,NA,NA,NA,NA,NA
K6xpwZWS,3mdwe879vkfdd3966pwqlqs2jwg9bh,3p4rdnwnd9jet7yfpdkmlr6ac9mijx,K6xpwZWS,2020-0188,2021-10-14,10:41:33,12:21:23,NA,incomplete,false,true,NA,2,2,NA,gray,n_l_017.jpg,NA,NA,unpleasant,pleasant,NA,NA,NA,NA,NA,left,1260,true,NA,NA,NA,NA,NA
K6xpwZWS,3mdwe879vkfdd3966pwqlqs2jwg9bh,3p4rdnwnd9jet7yfpdkmlr6ac9mijx,K6xpwZWS,2020-0188,2021-10-14,10:41:33,12:21:23,NA,incomplete,false,true,NA,2,3,NA,gray,n_s_058.jpg,NA,NA,unpleasant,pleasant,NA,NA,NA,NA,NA,right,1615,true,NA,NA,NA,NA,NA
K6xpwZWS,3mdwe879vkfdd3966pwqlqs2jwg9bh,3p4rdnwnd9jet7yfpdkmlr6ac9mijx,K6xpwZWS,2020-0188,2021-10-14,10:41:33,12:21:23,NA,incomplete,false,true,NA,2,4,NA,gray,n_s_005.jpg,NA,NA,pleasant,unpleasant,NA,NA,NA,NA,NA,right,3022,true,NA,NA,NA,NA,NA
K6xpwZWS,3mdwe879vkfdd3966pwqlqs2jwg9bh,3p4rdnwnd9jet7yfpdkmlr6ac9mijx,K6xpwZWS,2020-0188,2021-10-14,10:41:33,12:21:23,NA,incomplete,false,true,NA,2,5,NA,gray,m_s_030.jpg,NA,NA,unpleasant,pleasant,NA,NA,NA,NA,NA,right,1543,true,NA,NA,NA,NA,NA
K6xpwZWS,3mdwe879vkfdd3966pwqlqs2jwg9bh,3p4rdnwnd9jet7yfpdkmlr6ac9mijx,K6xpwZWS,2020-0188,2021-10-14,10:41:33,12:21:23,NA,incomplete,false,true,NA,2,6,NA,purple,m_l_093.jpg,NA,NA,unpleasant,pleasant,NA,NA,NA,NA,NA,right,1886,true,NA,NA,NA,NA,NA
K6xpwZWS,3mdwe879vkfdd3966pwqlqs2jwg9bh,3p4rdnwnd9jet7yfpdkmlr6ac9mijx,K6xpwZWS,2020-0188,2021-10-14,10:41:33,12:21:23,NA,incomplete,false,true,NA,2,7,NA,purple,n_s_049.jpg,NA,NA,unpleasant,pleasant,NA,NA,NA,NA,NA,right,2028,true,NA,NA,NA,NA,NA
K6xpwZWS,3mdwe879vkfdd3966pwqlqs2jwg9bh,3p4rdnwnd9jet7yfpdkmlr6ac9mijx,K6xpwZWS,2020-0188,2021-10-14,10:41:33,12:21:23,NA,incomplete,false,true,NA,2,8,NA,purple,m_l_038.jpg,NA,NA,pleasant,unpleasant,NA,NA,NA,NA,NA,left,1183,true,NA,NA,NA,NA,NA
K6xpwZWS,3mdwe879vkfdd3966pwqlqs2jwg9bh,3p4rdnwnd9jet7yfpdkmlr6ac9mijx,K6xpwZWS,2020-0188,2021-10-14,10:41:33,12:21:23,NA,incomplete,false,true,NA,2,9,NA,purple,m_s_103.jpg,NA,NA,unpleasant,pleasant,NA,NA,NA,NA,NA,right,2620,true,NA,NA,NA,NA,NA
K6xpwZWS,3mdwe879vkfdd3966pwqlqs2jwg9bh,3p4rdnwnd9jet7yfpdkmlr6ac9mijx,K6xpwZWS,2020-0188,2021-10-14,10:41:33,12:21:23,NA,incomplete,false,true,NA,2,10,NA,purple,n_s_001.jpg,NA,NA,unpleasant,pleasant,NA,NA,NA,NA,NA,right,1094,true,NA,NA,NA,NA,NA
K6xpwZWS,3mdwe879vkfdd3966pwqlqs2jwg9bh,3p4rdnwnd9jet7yfpdkmlr6ac9mijx,K6xpwZWS,2020-0188,2021-10-14,10:41:33,12:21:23,NA,incomplete,false,true,NA,2,11,NA,purple,m_s_042.jpg,NA,NA,unpleasant,pleasant,NA,NA,NA,NA,NA,right,992,true,NA,NA,NA,NA,NA
K6xpwZWS,3mdwe879vkfdd3966pwqlqs2jwg9bh,3p4rdnwnd9jet7yfpdkmlr6ac9mijx,K6xpwZWS,2020-0188,2021-10-14,10:41:33,12:21:23,NA,incomplete,false,true,NA,2,12,NA,yellow,n_l_077.jpg,NA,NA,pleasant,unpleasant,NA,NA,NA,NA,NA,right,1413,true,NA,NA,NA,NA,NA
K6xpwZWS,3mdwe879vkfdd3966pwqlqs2jwg9bh,3p4rdnwnd9jet7yfpdkmlr6ac9mijx,K6xpwZWS,2020-0188,2021-10-14,10:41:33,12:21:23,NA,incomplete,false,true,NA,2,13,NA,yellow,m_l_094.jpg,NA,NA,unpleasant,pleasant,NA,NA,NA,NA,NA,left,1640,true,NA,NA,NA,NA,NA
K6xpwZWS,3mdwe879vkfdd3966pwqlqs2jwg9bh,3p4rdnwnd9jet7yfpdkmlr6ac9mijx,K6xpwZWS,2020-0188,2021-10-14,10:41:33,12:21:23,NA,incomplete,false,true,NA,2,14,NA,yellow,n_l_025.jpg,NA,NA,pleasant,unpleasant,NA,NA,NA,NA,NA,right,1373,true,NA,NA,NA,NA,NA
K6xpwZWS,3mdwe879vkfdd3966pwqlqs2jwg9bh,3p4rdnwnd9jet7yfpdkmlr6ac9mijx,K6xpwZWS,2020-0188,2021-10-14,10:41:33,12:21:23,NA,incomplete,false,true,NA,2,15,NA,yellow,n_l_088.jpg,NA,NA,pleasant,unpleasant,NA,NA,NA,NA,NA,right,2126,true,NA,NA,NA,NA,NA
K6xpwZWS,3mdwe879vkfdd3966pwqlqs2jwg9bh,3p4rdnwnd9jet7yfpdkmlr6ac9mijx,K6xpwZWS,2020-0188,2021-10-14,10:41:33,12:21:23,NA,incomplete,false,true,NA,2,16,NA,yellow,n_l_086.jpg,NA,NA,unpleasant,pleasant,NA,NA,NA,NA,NA,right,1716,true,NA,NA,NA,NA,NA
K6xpwZWS,3mdwe879vkfdd3966pwqlqs2jwg9bh,3p4rdnwnd9jet7yfpdkmlr6ac9mijx,K6xpwZWS,2020-0188,2021-10-14,10:41:33,12:21:23,NA,incomplete,false,true,NA,2,17,NA,yellow,m_l_110.jpg,NA,NA,unpleasant,pleasant,NA,NA,NA,NA,NA,right,1425,true,NA,NA,NA,NA,NA
K6xpwZWS,3mdwe879vkfdd3966pwqlqs2jwg9bh,3p4rdnwnd9jet7yfpdkmlr6ac9mijx,K6xpwZWS,2020-0188,2021-10-14,10:41:33,12:21:23,NA,incomplete,false,true,NA,2,18,NA,white,m_s_024.jpg,NA,NA,pleasant,unpleasant,NA,NA,NA,NA,NA,left,1310,true,NA,NA,NA,NA,NA
K6xpwZWS,3mdwe879vkfdd3966pwqlqs2jwg9bh,3p4rdnwnd9jet7yfpdkmlr6ac9mijx,K6xpwZWS,2020-0188,2021-10-14,10:41:33,12:21:23,NA,incomplete,false,true,NA,2,19,NA,white,n_s_008.jpg,NA,NA,unpleasant,pleasant,NA,NA,NA,NA,NA,left,1366,true,NA,NA,NA,NA,NA
K6xpwZWS,3mdwe879vkfdd3966pwqlqs2jwg9bh,3p4rdnwnd9jet7yfpdkmlr6ac9mijx,K6xpwZWS,2020-0188,2021-10-14,10:41:33,12:21:23,NA,incomplete,false,true,NA,2,20,NA,white,m_s_050.jpg,NA,NA,unpleasant,pleasant,NA,NA,NA,NA,NA,right,1481,true,NA,NA,NA,NA,NA
K6xpwZWS,3mdwe879vkfdd3966pwqlqs2jwg9bh,3p4rdnwnd9jet7yfpdkmlr6ac9mijx,K6xpwZWS,2020-0188,2021-10-14,10:41:33,12:21:23,NA,incomplete,false,true,NA,2,21,NA,white,n_l_024.jpg,NA,NA,unpleasant,pleasant,NA,NA,NA,NA,NA,left,1488,true,NA,NA,NA,NA,NA
K6xpwZWS,3mdwe879vkfdd3966pwqlqs2jwg9bh,3p4rdnwnd9jet7yfpdkmlr6ac9mijx,K6xpwZWS,2020-0188,2021-10-14,10:41:33,12:21:23,NA,incomplete,false,true,NA,2,22,NA,white,n_l_070.jpg,NA,NA,pleasant,unpleasant,NA,NA,NA,NA,NA,right,1276,true,NA,NA,NA,NA,NA
K6xpwZWS,3mdwe879vkfdd3966pwqlqs2jwg9bh,3p4rdnwnd9jet7yfpdkmlr6ac9mijx,K6xpwZWS,2020-0188,2021-10-14,10:41:33,12:21:23,NA,incomplete,false,true,NA,2,23,NA,white,m_l_065.jpg,NA,NA,unpleasant,pleasant,NA,NA,NA,NA,NA,left,1012,true,NA,NA,NA,NA,NA
K6xpwZWS,3mdwe879vkfdd3966pwqlqs2jwg9bh,3p4rdnwnd9jet7yfpdkmlr6ac9mijx,K6xpwZWS,2020-0188,2021-10-14,10:41:33,12:21:23,NA,incomplete,false,true,NA,2,24,NA,black,n_s_019.jpg,NA,NA,unpleasant,pleasant,NA,NA,NA,NA,NA,right,1688,true,NA,NA,NA,NA,NA
K6xpwZWS,3mdwe879vkfdd3966pwqlqs2jwg9bh,3p4rdnwnd9jet7yfpdkmlr6ac9mijx,K6xpwZWS,2020-0188,2021-10-14,10:41:33,12:21:23,NA,incomplete,false,true,NA,2,25,NA,black,m_l_041.jpg,NA,NA,unpleasant,pleasant,NA,NA,NA,NA,NA,right,1131,true,NA,NA,NA,NA,NA
K6xpwZWS,3mdwe879vkfdd3966pwqlqs2jwg9bh,3p4rdnwnd9jet7yfpdkmlr6ac9mijx,K6xpwZWS,2020-0188,2021-10-14,10:41:33,12:21:23,NA,incomplete,false,true,NA,2,26,NA,black,m_s_022.jpg,NA,NA,unpleasant,pleasant,NA,NA,NA,NA,NA,right,959,true,NA,NA,NA,NA,NA
K6xpwZWS,3mdwe879vkfdd3966pwqlqs2jwg9bh,3p4rdnwnd9jet7yfpdkmlr6ac9mijx,K6xpwZWS,2020-0188,2021-10-14,10:41:33,12:21:23,NA,incomplete,false,true,NA,2,27,NA,black,n_l_106.jpg,NA,NA,unpleasant,pleasant,NA,NA,NA,NA,NA,left,2251,true,NA,NA,NA,NA,NA
K6xpwZWS,3mdwe879vkfdd3966pwqlqs2jwg9bh,3p4rdnwnd9jet7yfpdkmlr6ac9mijx,K6xpwZWS,2020-0188,2021-10-14,10:41:33,12:21:23,NA,incomplete,false,true,NA,2,28,NA,black,m_s_104.jpg,NA,NA,unpleasant,pleasant,NA,NA,NA,NA,NA,right,1848,true,NA,NA,NA,NA,NA
K6xpwZWS,3mdwe879vkfdd3966pwqlqs2jwg9bh,3p4rdnwnd9jet7yfpdkmlr6ac9mijx,K6xpwZWS,2020-0188,2021-10-14,10:41:33,12:21:23,NA,incomplete,false,true,NA,2,29,NA,black,m_l_103.jpg,NA,NA,unpleasant,pleasant,NA,NA,NA,NA,NA,right,996,true,NA,NA,NA,NA,NA
K6xpwZWS,3mdwe879vkfdd3966pwqlqs2jwg9bh,3p4rdnwnd9jet7yfpdkmlr6ac9mijx,K6xpwZWS,2020-0188,2021-10-14,10:41:33,12:21:23,NA,incomplete,false,true,NA,2,30,NA,orange,n_s_115.jpg,NA,NA,pleasant,unpleasant,NA,NA,NA,NA,NA,left,1311,true,NA,NA,NA,NA,NA
K6xpwZWS,3mdwe879vkfdd3966pwqlqs2jwg9bh,3p4rdnwnd9jet7yfpdkmlr6ac9mijx,K6xpwZWS,2020-0188,2021-10-14,10:41:33,12:21:23,NA,incomplete,false,true,NA,2,31,NA,orange,m_l_021.jpg,NA,NA,unpleasant,pleasant,NA,NA,NA,NA,NA,right,1288,true,NA,NA,NA,NA,NA
K6xpwZWS,3mdwe879vkfdd3966pwqlqs2jwg9bh,3p4rdnwnd9jet7yfpdkmlr6ac9mijx,K6xpwZWS,2020-0188,2021-10-14,10:41:33,12:21:23,NA,incomplete,false,true,NA,2,32,NA,orange,m_l_006.jpg,NA,NA,unpleasant,pleasant,NA,NA,NA,NA,NA,right,1099,true,NA,NA,NA,NA,NA
K6xpwZWS,3mdwe879vkfdd3966pwqlqs2jwg9bh,3p4rdnwnd9jet7yfpdkmlr6ac9mijx,K6xpwZWS,2020-0188,2021-10-14,10:41:33,12:21:23,NA,incomplete,false,true,NA,2,33,NA,orange,n_s_056.jpg,NA,NA,unpleasant,pleasant,NA,NA,NA,NA,NA,right,1328,true,NA,NA,NA,NA,NA
K6xpwZWS,3mdwe879vkfdd3966pwqlqs2jwg9bh,3p4rdnwnd9jet7yfpdkmlr6ac9mijx,K6xpwZWS,2020-0188,2021-10-14,10:41:33,12:21:23,NA,incomplete,false,true,NA,2,34,NA,orange,n_l_038.jpg,NA,NA,unpleasant,pleasant,NA,NA,NA,NA,NA,left,1485,true,NA,NA,NA,NA,NA
K6xpwZWS,3mdwe879vkfdd3966pwqlqs2jwg9bh,3p4rdnwnd9jet7yfpdkmlr6ac9mijx,K6xpwZWS,2020-0188,2021-10-14,10:41:33,12:21:23,NA,incomplete,false,true,NA,2,35,NA,orange,n_s_084.jpg,NA,NA,unpleasant,pleasant,NA,NA,NA,NA,NA,right,1698,true,NA,NA,NA,NA,NA
K6xpwZWS,3mdwe879vkfdd3966pwqlqs2jwg9bh,3p4rdnwnd9jet7yfpdkmlr6ac9mijx,K6xpwZWS,2020-0188,2021-10-14,10:41:33,12:21:23,NA,incomplete,false,NA,true,2,0,NA,NA,NA,left,present,NA,NA,n_s_049.jpg,purple,m_s_042.jpg,purple,within,NA,NaN,NA,left,5460,1,3,1275
K6xpwZWS,3mdwe879vkfdd3966pwqlqs2jwg9bh,3p4rdnwnd9jet7yfpdkmlr6ac9mijx,K6xpwZWS,2020-0188,2021-10-14,10:41:33,12:21:23,NA,incomplete,false,NA,true,2,1,NA,NA,NA,left,present,NA,NA,n_l_083.jpg,gray,m_s_030.jpg,gray,within,NA,NaN,NA,right,1861,0,3,1174
K6xpwZWS,3mdwe879vkfdd3966pwqlqs2jwg9bh,3p4rdnwnd9jet7yfpdkmlr6ac9mijx,K6xpwZWS,2020-0188,2021-10-14,10:41:33,12:21:23,NA,incomplete,false,NA,true,2,2,NA,NA,NA,right,present,NA,NA,m_l_110.jpg,yellow,m_l_094.jpg,yellow,within,NA,NaN,NA,left,1850,0,3,728
K6xpwZWS,3mdwe879vkfdd3966pwqlqs2jwg9bh,3p4rdnwnd9jet7yfpdkmlr6ac9mijx,K6xpwZWS,2020-0188,2021-10-14,10:41:33,12:21:23,NA,incomplete,false,NA,true,2,3,NA,NA,NA,right,present,NA,NA,n_l_025.jpg,yellow,n_s_001.jpg,purple,between,NA,NaN,NA,right,3632,1,3,1053
K6xpwZWS,3mdwe879vkfdd3966pwqlqs2jwg9bh,3p4rdnwnd9jet7yfpdkmlr6ac9mijx,K6xpwZWS,2020-0188,2021-10-14,10:41:33,12:21:23,NA,incomplete,false,NA,true,2,4,NA,NA,NA,right,present,NA,NA,m_s_050.jpg,white,n_l_086.jpg,yellow,between,NA,NaN,NA,right,3522,1,3,1110
K6xpwZWS,3mdwe879vkfdd3966pwqlqs2jwg9bh,3p4rdnwnd9jet7yfpdkmlr6ac9mijx,K6xpwZWS,2020-0188,2021-10-14,10:41:33,12:21:23,NA,incomplete,false,NA,true,2,5,NA,NA,NA,left,present,NA,NA,m_s_104.jpg,black,m_l_006.jpg,orange,between,NA,NaN,NA,right,3167,0,3,979
K6xpwZWS,3mdwe879vkfdd3966pwqlqs2jwg9bh,3p4rdnwnd9jet7yfpdkmlr6ac9mijx,K6xpwZWS,2020-0188,2021-10-14,10:41:33,12:21:23,NA,incomplete,false,NA,true,2,6,NA,NA,NA,right,present,NA,NA,m_l_038.jpg,purple,n_s_005.jpg,gray,between,NA,NaN,NA,right,1574,1,3,1070
K6xpwZWS,3mdwe879vkfdd3966pwqlqs2jwg9bh,3p4rdnwnd9jet7yfpdkmlr6ac9mijx,K6xpwZWS,2020-0188,2021-10-14,10:41:33,12:21:23,NA,incomplete,false,NA,true,2,7,NA,NA,NA,right,present,NA,NA,n_s_084.jpg,orange,m_l_021.jpg,orange,within,NA,NaN,NA,left,2719,0,3,767
K6xpwZWS,3mdwe879vkfdd3966pwqlqs2jwg9bh,3p4rdnwnd9jet7yfpdkmlr6ac9mijx,K6xpwZWS,2020-0188,2021-10-14,10:41:33,12:21:23,NA,incomplete,false,NA,true,2,8,NA,NA,NA,left,present,NA,NA,n_l_070.jpg,white,m_s_022.jpg,black,between,NA,NaN,NA,left,5017,1,3,760
K6xpwZWS,3mdwe879vkfdd3966pwqlqs2jwg9bh,3p4rdnwnd9jet7yfpdkmlr6ac9mijx,K6xpwZWS,2020-0188,2021-10-14,10:41:33,12:21:23,NA,incomplete,false,NA,true,2,9,NA,NA,NA,left,present,NA,NA,n_s_008.jpg,white,m_l_065.jpg,white,within,NA,NaN,NA,left,1775,1,3,895
K6xpwZWS,3mdwe879vkfdd3966pwqlqs2jwg9bh,3p4rdnwnd9jet7yfpdkmlr6ac9mijx,K6xpwZWS,2020-0188,2021-10-14,10:41:33,12:21:23,NA,incomplete,false,NA,true,2,10,NA,NA,NA,right,present,NA,NA,m_l_103.jpg,black,m_l_041.jpg,black,within,NA,NaN,NA,left,1906,0,3,848
K6xpwZWS,3mdwe879vkfdd3966pwqlqs2jwg9bh,3p4rdnwnd9jet7yfpdkmlr6ac9mijx,K6xpwZWS,2020-0188,2021-10-14,10:41:33,12:21:23,NA,incomplete,false,true,NA,3,0,NA,purple,n_s_063.jpg,NA,NA,unpleasant,pleasant,NA,NA,NA,NA,NA,none,0,false,NA,NA,NA,NA,NA
K6xpwZWS,3mdwe879vkfdd3966pwqlqs2jwg9bh,3p4rdnwnd9jet7yfpdkmlr6ac9mijx,K6xpwZWS,2020-0188,2021-10-14,10:41:33,12:21:23,NA,incomplete,false,true,NA,3,1,NA,purple,n_s_002.jpg,NA,NA,unpleasant,pleasant,NA,NA,NA,NA,NA,right,2072,true,NA,NA,NA,NA,NA
K6xpwZWS,3mdwe879vkfdd3966pwqlqs2jwg9bh,3p4rdnwnd9jet7yfpdkmlr6ac9mijx,K6xpwZWS,2020-0188,2021-10-14,10:41:33,12:21:23,NA,incomplete,false,true,NA,3,2,NA,purple,n_l_064.jpg,NA,NA,pleasant,unpleasant,NA,NA,NA,NA,NA,right,2447,true,NA,NA,NA,NA,NA
K6xpwZWS,3mdwe879vkfdd3966pwqlqs2jwg9bh,3p4rdnwnd9jet7yfpdkmlr6ac9mijx,K6xpwZWS,2020-0188,2021-10-14,10:41:33,12:21:23,NA,incomplete,false,true,NA,3,3,NA,purple,m_s_056.jpg,NA,NA,unpleasant,pleasant,NA,NA,NA,NA,NA,right,1090,true,NA,NA,NA,NA,NA
K6xpwZWS,3mdwe879vkfdd3966pwqlqs2jwg9bh,3p4rdnwnd9jet7yfpdkmlr6ac9mijx,K6xpwZWS,2020-0188,2021-10-14,10:41:33,12:21:23,NA,incomplete,false,true,NA,3,4,NA,purple,m_l_081.jpg,NA,NA,unpleasant,pleasant,NA,NA,NA,NA,NA,right,1284,true,NA,NA,NA,NA,NA
K6xpwZWS,3mdwe879vkfdd3966pwqlqs2jwg9bh,3p4rdnwnd9jet7yfpdkmlr6ac9mijx,K6xpwZWS,2020-0188,2021-10-14,10:41:33,12:21:23,NA,incomplete,false,true,NA,3,5,NA,purple,m_l_104.jpg,NA,NA,unpleasant,pleasant,NA,NA,NA,NA,NA,right,1000,true,NA,NA,NA,NA,NA
K6xpwZWS,3mdwe879vkfdd3966pwqlqs2jwg9bh,3p4rdnwnd9jet7yfpdkmlr6ac9mijx,K6xpwZWS,2020-0188,2021-10-14,10:41:33,12:21:23,NA,incomplete,false,true,NA,3,6,NA,blue,n_s_059.jpg,NA,NA,pleasant,unpleasant,NA,NA,NA,NA,NA,right,1262,true,NA,NA,NA,NA,NA
K6xpwZWS,3mdwe879vkfdd3966pwqlqs2jwg9bh,3p4rdnwnd9jet7yfpdkmlr6ac9mijx,K6xpwZWS,2020-0188,2021-10-14,10:41:33,12:21:23,NA,incomplete,false,true,NA,3,7,NA,blue,m_l_102.jpg,NA,NA,unpleasant,pleasant,NA,NA,NA,NA,NA,right,1336,true,NA,NA,NA,NA,NA
K6xpwZWS,3mdwe879vkfdd3966pwqlqs2jwg9bh,3p4rdnwnd9jet7yfpdkmlr6ac9mijx,K6xpwZWS,2020-0188,2021-10-14,10:41:33,12:21:23,NA,incomplete,false,true,NA,3,8,NA,blue,m_s_048.jpg,NA,NA,unpleasant,pleasant,NA,NA,NA,NA,NA,right,1324,true,NA,NA,NA,NA,NA
K6xpwZWS,3mdwe879vkfdd3966pwqlqs2jwg9bh,3p4rdnwnd9jet7yfpdkmlr6ac9mijx,K6xpwZWS,2020-0188,2021-10-14,10:41:33,12:21:23,NA,incomplete,false,true,NA,3,9,NA,blue,m_l_004.jpg,NA,NA,unpleasant,pleasant,NA,NA,NA,NA,NA,left,1890,true,NA,NA,NA,NA,NA
K6xpwZWS,3mdwe879vkfdd3966pwqlqs2jwg9bh,3p4rdnwnd9jet7yfpdkmlr6ac9mijx,K6xpwZWS,2020-0188,2021-10-14,10:41:33,12:21:23,NA,incomplete,false,true,NA,3,10,NA,blue,m_l_089.jpg,NA,NA,unpleasant,pleasant,NA,NA,NA,NA,NA,right,1781,true,NA,NA,NA,NA,NA
K6xpwZWS,3mdwe879vkfdd3966pwqlqs2jwg9bh,3p4rdnwnd9jet7yfpdkmlr6ac9mijx,K6xpwZWS,2020-0188,2021-10-14,10:41:33,12:21:23,NA,incomplete,false,true,NA,3,11,NA,blue,n_l_102.jpg,NA,NA,unpleasant,pleasant,NA,NA,NA,NA,NA,right,1887,true,NA,NA,NA,NA,NA
K6xpwZWS,3mdwe879vkfdd3966pwqlqs2jwg9bh,3p4rdnwnd9jet7yfpdkmlr6ac9mijx,K6xpwZWS,2020-0188,2021-10-14,10:41:33,12:21:23,NA,incomplete,false,true,NA,3,12,NA,yellow,n_l_034.jpg,NA,NA,unpleasant,pleasant,NA,NA,NA,NA,NA,left,1652,true,NA,NA,NA,NA,NA
K6xpwZWS,3mdwe879vkfdd3966pwqlqs2jwg9bh,3p4rdnwnd9jet7yfpdkmlr6ac9mijx,K6xpwZWS,2020-0188,2021-10-14,10:41:33,12:21:23,NA,incomplete,false,true,NA,3,13,NA,yellow,m_s_085.jpg,NA,NA,pleasant,unpleasant,NA,NA,NA,NA,NA,left,1664,true,NA,NA,NA,NA,NA
K6xpwZWS,3mdwe879vkfdd3966pwqlqs2jwg9bh,3p4rdnwnd9jet7yfpdkmlr6ac9mijx,K6xpwZWS,2020-0188,2021-10-14,10:41:33,12:21:23,NA,incomplete,false,true,NA,3,14,NA,yellow,m_s_021.jpg,NA,NA,pleasant,unpleasant,NA,NA,NA,NA,NA,left,1321,true,NA,NA,NA,NA,NA
K6xpwZWS,3mdwe879vkfdd3966pwqlqs2jwg9bh,3p4rdnwnd9jet7yfpdkmlr6ac9mijx,K6xpwZWS,2020-0188,2021-10-14,10:41:33,12:21:23,NA,incomplete,false,true,NA,3,15,NA,yellow,m_s_063.jpg,NA,NA,unpleasant,pleasant,NA,NA,NA,NA,NA,left,1365,true,NA,NA,NA,NA,NA
K6xpwZWS,3mdwe879vkfdd3966pwqlqs2jwg9bh,3p4rdnwnd9jet7yfpdkmlr6ac9mijx,K6xpwZWS,2020-0188,2021-10-14,10:41:33,12:21:23,NA,incomplete,false,true,NA,3,16,NA,yellow,n_l_028.jpg,NA,NA,unpleasant,pleasant,NA,NA,NA,NA,NA,left,1932,true,NA,NA,NA,NA,NA
K6xpwZWS,3mdwe879vkfdd3966pwqlqs2jwg9bh,3p4rdnwnd9jet7yfpdkmlr6ac9mijx,K6xpwZWS,2020-0188,2021-10-14,10:41:33,12:21:23,NA,incomplete,false,true,NA,3,17,NA,yellow,n_s_062.jpg,NA,NA,unpleasant,pleasant,NA,NA,NA,NA,NA,left,981,true,NA,NA,NA,NA,NA
K6xpwZWS,3mdwe879vkfdd3966pwqlqs2jwg9bh,3p4rdnwnd9jet7yfpdkmlr6ac9mijx,K6xpwZWS,2020-0188,2021-10-14,10:41:33,12:21:23,NA,incomplete,false,true,NA,3,18,NA,orange,m_s_086.jpg,NA,NA,pleasant,unpleasant,NA,NA,NA,NA,NA,left,1900,true,NA,NA,NA,NA,NA
K6xpwZWS,3mdwe879vkfdd3966pwqlqs2jwg9bh,3p4rdnwnd9jet7yfpdkmlr6ac9mijx,K6xpwZWS,2020-0188,2021-10-14,10:41:33,12:21:23,NA,incomplete,false,true,NA,3,19,NA,orange,n_s_053.jpg,NA,NA,unpleasant,pleasant,NA,NA,NA,NA,NA,right,1894,true,NA,NA,NA,NA,NA
K6xpwZWS,3mdwe879vkfdd3966pwqlqs2jwg9bh,3p4rdnwnd9jet7yfpdkmlr6ac9mijx,K6xpwZWS,2020-0188,2021-10-14,10:41:33,12:21:23,NA,incomplete,false,true,NA,3,20,NA,orange,m_s_091.jpg,NA,NA,pleasant,unpleasant,NA,NA,NA,NA,NA,left,1215,true,NA,NA,NA,NA,NA
K6xpwZWS,3mdwe879vkfdd3966pwqlqs2jwg9bh,3p4rdnwnd9jet7yfpdkmlr6ac9mijx,K6xpwZWS,2020-0188,2021-10-14,10:41:33,12:21:23,NA,incomplete,false,true,NA,3,21,NA,orange,m_s_093.jpg,NA,NA,unpleasant,pleasant,NA,NA,NA,NA,NA,right,1535,true,NA,NA,NA,NA,NA
K6xpwZWS,3mdwe879vkfdd3966pwqlqs2jwg9bh,3p4rdnwnd9jet7yfpdkmlr6ac9mijx,K6xpwZWS,2020-0188,2021-10-14,10:41:33,12:21:23,NA,incomplete,false,true,NA,3,22,NA,orange,m_s_058.jpg,NA,NA,unpleasant,pleasant,NA,NA,NA,NA,NA,right,1350,true,NA,NA,NA,NA,NA
K6xpwZWS,3mdwe879vkfdd3966pwqlqs2jwg9bh,3p4rdnwnd9jet7yfpdkmlr6ac9mijx,K6xpwZWS,2020-0188,2021-10-14,10:41:33,12:21:23,NA,incomplete,false,true,NA,3,23,NA,orange,m_s_052.jpg,NA,NA,pleasant,unpleasant,NA,NA,NA,NA,NA,left,1210,true,NA,NA,NA,NA,NA
K6xpwZWS,3mdwe879vkfdd3966pwqlqs2jwg9bh,3p4rdnwnd9jet7yfpdkmlr6ac9mijx,K6xpwZWS,2020-0188,2021-10-14,10:41:33,12:21:23,NA,incomplete,false,true,NA,3,24,NA,brown,n_s_093.jpg,NA,NA,pleasant,unpleasant,NA,NA,NA,NA,NA,right,1250,true,NA,NA,NA,NA,NA
K6xpwZWS,3mdwe879vkfdd3966pwqlqs2jwg9bh,3p4rdnwnd9jet7yfpdkmlr6ac9mijx,K6xpwZWS,2020-0188,2021-10-14,10:41:33,12:21:23,NA,incomplete,false,true,NA,3,25,NA,brown,m_l_061.jpg,NA,NA,unpleasant,pleasant,NA,NA,NA,NA,NA,right,1961,true,NA,NA,NA,NA,NA
K6xpwZWS,3mdwe879vkfdd3966pwqlqs2jwg9bh,3p4rdnwnd9jet7yfpdkmlr6ac9mijx,K6xpwZWS,2020-0188,2021-10-14,10:41:33,12:21:23,NA,incomplete,false,true,NA,3,26,NA,brown,n_l_097.jpg,NA,NA,pleasant,unpleasant,NA,NA,NA,NA,NA,left,2555,true,NA,NA,NA,NA,NA
K6xpwZWS,3mdwe879vkfdd3966pwqlqs2jwg9bh,3p4rdnwnd9jet7yfpdkmlr6ac9mijx,K6xpwZWS,2020-0188,2021-10-14,10:41:33,12:21:23,NA,incomplete,false,true,NA,3,27,NA,brown,n_s_102.jpg,NA,NA,unpleasant,pleasant,NA,NA,NA,NA,NA,right,1183,true,NA,NA,NA,NA,NA
K6xpwZWS,3mdwe879vkfdd3966pwqlqs2jwg9bh,3p4rdnwnd9jet7yfpdkmlr6ac9mijx,K6xpwZWS,2020-0188,2021-10-14,10:41:33,12:21:23,NA,incomplete,false,true,NA,3,28,NA,brown,m_s_002.jpg,NA,NA,pleasant,unpleasant,NA,NA,NA,NA,NA,left,1596,true,NA,NA,NA,NA,NA
K6xpwZWS,3mdwe879vkfdd3966pwqlqs2jwg9bh,3p4rdnwnd9jet7yfpdkmlr6ac9mijx,K6xpwZWS,2020-0188,2021-10-14,10:41:33,12:21:23,NA,incomplete,false,true,NA,3,29,NA,brown,n_s_048.jpg,NA,NA,pleasant,unpleasant,NA,NA,NA,NA,NA,right,1856,true,NA,NA,NA,NA,NA
K6xpwZWS,3mdwe879vkfdd3966pwqlqs2jwg9bh,3p4rdnwnd9jet7yfpdkmlr6ac9mijx,K6xpwZWS,2020-0188,2021-10-14,10:41:33,12:21:23,NA,incomplete,false,true,NA,3,30,NA,white,m_s_019.jpg,NA,NA,pleasant,unpleasant,NA,NA,NA,NA,NA,left,1231,true,NA,NA,NA,NA,NA
K6xpwZWS,3mdwe879vkfdd3966pwqlqs2jwg9bh,3p4rdnwnd9jet7yfpdkmlr6ac9mijx,K6xpwZWS,2020-0188,2021-10-14,10:41:33,12:21:23,NA,incomplete,false,true,NA,3,31,NA,white,m_l_010.jpg,NA,NA,pleasant,unpleasant,NA,NA,NA,NA,NA,left,1871,true,NA,NA,NA,NA,NA
K6xpwZWS,3mdwe879vkfdd3966pwqlqs2jwg9bh,3p4rdnwnd9jet7yfpdkmlr6ac9mijx,K6xpwZWS,2020-0188,2021-10-14,10:41:33,12:21:23,NA,incomplete,false,true,NA,3,32,NA,white,m_s_041.jpg,NA,NA,unpleasant,pleasant,NA,NA,NA,NA,NA,right,1659,true,NA,NA,NA,NA,NA
K6xpwZWS,3mdwe879vkfdd3966pwqlqs2jwg9bh,3p4rdnwnd9jet7yfpdkmlr6ac9mijx,K6xpwZWS,2020-0188,2021-10-14,10:41:33,12:21:23,NA,incomplete,false,true,NA,3,33,NA,white,n_s_016.jpg,NA,NA,pleasant,unpleasant,NA,NA,NA,NA,NA,left,1370,true,NA,NA,NA,NA,NA
K6xpwZWS,3mdwe879vkfdd3966pwqlqs2jwg9bh,3p4rdnwnd9jet7yfpdkmlr6ac9mijx,K6xpwZWS,2020-0188,2021-10-14,10:41:33,12:21:23,NA,incomplete,false,true,NA,3,34,NA,white,m_l_016.jpg,NA,NA,unpleasant,pleasant,NA,NA,NA,NA,NA,left,1042,true,NA,NA,NA,NA,NA
K6xpwZWS,3mdwe879vkfdd3966pwqlqs2jwg9bh,3p4rdnwnd9jet7yfpdkmlr6ac9mijx,K6xpwZWS,2020-0188,2021-10-14,10:41:33,12:21:23,NA,incomplete,false,true,NA,3,35,NA,white,n_s_050.jpg,NA,NA,pleasant,unpleasant,NA,NA,NA,NA,NA,left,1767,true,NA,NA,NA,NA,NA
K6xpwZWS,3mdwe879vkfdd3966pwqlqs2jwg9bh,3p4rdnwnd9jet7yfpdkmlr6ac9mijx,K6xpwZWS,2020-0188,2021-10-14,10:41:33,12:21:23,NA,incomplete,false,NA,true,3,0,NA,NA,NA,left,absent,NA,NA,m_l_081.jpg,purple,m_s_048.jpg,blue,between,NA,NaN,NA,left,2777,1,3,853
K6xpwZWS,3mdwe879vkfdd3966pwqlqs2jwg9bh,3p4rdnwnd9jet7yfpdkmlr6ac9mijx,K6xpwZWS,2020-0188,2021-10-14,10:41:33,12:21:23,NA,incomplete,false,NA,true,3,1,NA,NA,NA,right,absent,NA,NA,n_s_050.jpg,white,m_l_010.jpg,white,within,NA,NaN,NA,right,1422,1,3,1392
K6xpwZWS,3mdwe879vkfdd3966pwqlqs2jwg9bh,3p4rdnwnd9jet7yfpdkmlr6ac9mijx,K6xpwZWS,2020-0188,2021-10-14,10:41:33,12:21:23,NA,incomplete,false,NA,true,3,2,NA,NA,NA,left,absent,NA,NA,m_s_085.jpg,yellow,n_s_062.jpg,yellow,within,NA,NaN,NA,left,2102,1,3,1686
K6xpwZWS,3mdwe879vkfdd3966pwqlqs2jwg9bh,3p4rdnwnd9jet7yfpdkmlr6ac9mijx,K6xpwZWS,2020-0188,2021-10-14,10:41:33,12:21:23,NA,incomplete,false,NA,true,3,3,NA,NA,NA,left,absent,NA,NA,m_l_061.jpg,brown,n_s_048.jpg,brown,within,NA,NaN,NA,left,2837,1,3,1237
K6xpwZWS,3mdwe879vkfdd3966pwqlqs2jwg9bh,3p4rdnwnd9jet7yfpdkmlr6ac9mijx,K6xpwZWS,2020-0188,2021-10-14,10:41:33,12:21:23,NA,incomplete,false,NA,true,3,4,NA,NA,NA,left,absent,NA,NA,m_l_089.jpg,blue,m_s_021.jpg,yellow,between,NA,NaN,NA,left,1213,1,3,963
K6xpwZWS,3mdwe879vkfdd3966pwqlqs2jwg9bh,3p4rdnwnd9jet7yfpdkmlr6ac9mijx,K6xpwZWS,2020-0188,2021-10-14,10:41:33,12:21:23,NA,incomplete,false,NA,true,3,5,NA,NA,NA,left,absent,NA,NA,m_l_102.jpg,blue,n_l_102.jpg,blue,within,NA,NaN,NA,right,2295,0,3,1993
K6xpwZWS,3mdwe879vkfdd3966pwqlqs2jwg9bh,3p4rdnwnd9jet7yfpdkmlr6ac9mijx,K6xpwZWS,2020-0188,2021-10-14,10:41:33,12:21:23,NA,incomplete,false,NA,true,3,6,NA,NA,NA,left,absent,NA,NA,n_l_028.jpg,yellow,m_s_091.jpg,orange,between,NA,NaN,NA,left,2541,1,3,893
K6xpwZWS,3mdwe879vkfdd3966pwqlqs2jwg9bh,3p4rdnwnd9jet7yfpdkmlr6ac9mijx,K6xpwZWS,2020-0188,2021-10-14,10:41:33,12:21:23,NA,incomplete,false,NA,true,3,7,NA,NA,NA,right,absent,NA,NA,m_s_041.jpg,white,m_s_002.jpg,brown,between,NA,NaN,NA,right,1633,1,3,873
K6xpwZWS,3mdwe879vkfdd3966pwqlqs2jwg9bh,3p4rdnwnd9jet7yfpdkmlr6ac9mijx,K6xpwZWS,2020-0188,2021-10-14,10:41:33,12:21:23,NA,incomplete,false,NA,true,3,8,NA,NA,NA,left,absent,NA,NA,m_s_058.jpg,orange,n_l_097.jpg,brown,between,NA,NaN,NA,left,1599,1,3,1059
K6xpwZWS,3mdwe879vkfdd3966pwqlqs2jwg9bh,3p4rdnwnd9jet7yfpdkmlr6ac9mijx,K6xpwZWS,2020-0188,2021-10-14,10:41:33,12:21:23,NA,incomplete,false,NA,true,3,9,NA,NA,NA,left,absent,NA,NA,n_s_053.jpg,orange,m_s_052.jpg,orange,within,NA,NaN,NA,right,1686,0,3,829
K6xpwZWS,3mdwe879vkfdd3966pwqlqs2jwg9bh,3p4rdnwnd9jet7yfpdkmlr6ac9mijx,K6xpwZWS,2020-0188,2021-10-14,10:41:33,12:21:23,NA,incomplete,false,NA,true,3,10,NA,NA,NA,right,absent,NA,NA,m_l_104.jpg,purple,n_s_002.jpg,purple,within,NA,NaN,NA,left,1219,0,3,1398
K6xpwZWS,3mdwe879vkfdd3966pwqlqs2jwg9bh,3p4rdnwnd9jet7yfpdkmlr6ac9mijx,K6xpwZWS,2020-0188,2021-10-14,10:41:33,12:21:23,NA,incomplete,false,true,NA,4,0,NA,purple,n_l_090.jpg,NA,NA,unpleasant,pleasant,NA,NA,NA,NA,NA,left,2372,true,NA,NA,NA,NA,NA
K6xpwZWS,3mdwe879vkfdd3966pwqlqs2jwg9bh,3p4rdnwnd9jet7yfpdkmlr6ac9mijx,K6xpwZWS,2020-0188,2021-10-14,10:41:33,12:21:23,NA,incomplete,false,true,NA,4,1,NA,purple,n_l_073.jpg,NA,NA,pleasant,unpleasant,NA,NA,NA,NA,NA,left,1319,true,NA,NA,NA,NA,NA
K6xpwZWS,3mdwe879vkfdd3966pwqlqs2jwg9bh,3p4rdnwnd9jet7yfpdkmlr6ac9mijx,K6xpwZWS,2020-0188,2021-10-14,10:41:33,12:21:23,NA,incomplete,false,true,NA,4,2,NA,purple,m_l_109.jpg,NA,NA,pleasant,unpleasant,NA,NA,NA,NA,NA,left,1373,true,NA,NA,NA,NA,NA
K6xpwZWS,3mdwe879vkfdd3966pwqlqs2jwg9bh,3p4rdnwnd9jet7yfpdkmlr6ac9mijx,K6xpwZWS,2020-0188,2021-10-14,10:41:33,12:21:23,NA,incomplete,false,true,NA,4,3,NA,purple,n_l_052.jpg,NA,NA,pleasant,unpleasant,NA,NA,NA,NA,NA,left,2340,true,NA,NA,NA,NA,NA
K6xpwZWS,3mdwe879vkfdd3966pwqlqs2jwg9bh,3p4rdnwnd9jet7yfpdkmlr6ac9mijx,K6xpwZWS,2020-0188,2021-10-14,10:41:33,12:21:23,NA,incomplete,false,true,NA,4,4,NA,purple,n_l_013.jpg,NA,NA,pleasant,unpleasant,NA,NA,NA,NA,NA,right,1279,true,NA,NA,NA,NA,NA
K6xpwZWS,3mdwe879vkfdd3966pwqlqs2jwg9bh,3p4rdnwnd9jet7yfpdkmlr6ac9mijx,K6xpwZWS,2020-0188,2021-10-14,10:41:33,12:21:23,NA,incomplete,false,true,NA,4,5,NA,purple,m_s_061.jpg,NA,NA,unpleasant,pleasant,NA,NA,NA,NA,NA,right,1749,true,NA,NA,NA,NA,NA
K6xpwZWS,3mdwe879vkfdd3966pwqlqs2jwg9bh,3p4rdnwnd9jet7yfpdkmlr6ac9mijx,K6xpwZWS,2020-0188,2021-10-14,10:41:33,12:21:23,NA,incomplete,false,true,NA,4,6,NA,yellow,n_s_092.jpg,NA,NA,pleasant,unpleasant,NA,NA,NA,NA,NA,right,1522,true,NA,NA,NA,NA,NA
K6xpwZWS,3mdwe879vkfdd3966pwqlqs2jwg9bh,3p4rdnwnd9jet7yfpdkmlr6ac9mijx,K6xpwZWS,2020-0188,2021-10-14,10:41:33,12:21:23,NA,incomplete,false,true,NA,4,7,NA,yellow,m_s_067.jpg,NA,NA,unpleasant,pleasant,NA,NA,NA,NA,NA,right,1341,true,NA,NA,NA,NA,NA
K6xpwZWS,3mdwe879vkfdd3966pwqlqs2jwg9bh,3p4rdnwnd9jet7yfpdkmlr6ac9mijx,K6xpwZWS,2020-0188,2021-10-14,10:41:33,12:21:23,NA,incomplete,false,true,NA,4,8,NA,yellow,m_s_009.jpg,NA,NA,pleasant,unpleasant,NA,NA,NA,NA,NA,left,1454,true,NA,NA,NA,NA,NA
K6xpwZWS,3mdwe879vkfdd3966pwqlqs2jwg9bh,3p4rdnwnd9jet7yfpdkmlr6ac9mijx,K6xpwZWS,2020-0188,2021-10-14,10:41:33,12:21:23,NA,incomplete,false,true,NA,4,9,NA,yellow,n_l_085.jpg,NA,NA,unpleasant,pleasant,NA,NA,NA,NA,NA,right,1103,true,NA,NA,NA,NA,NA
K6xpwZWS,3mdwe879vkfdd3966pwqlqs2jwg9bh,3p4rdnwnd9jet7yfpdkmlr6ac9mijx,K6xpwZWS,2020-0188,2021-10-14,10:41:33,12:21:23,NA,incomplete,false,true,NA,4,10,NA,yellow,n_s_104.jpg,NA,NA,unpleasant,pleasant,NA,NA,NA,NA,NA,right,1668,true,NA,NA,NA,NA,NA
K6xpwZWS,3mdwe879vkfdd3966pwqlqs2jwg9bh,3p4rdnwnd9jet7yfpdkmlr6ac9mijx,K6xpwZWS,2020-0188,2021-10-14,10:41:33,12:21:23,NA,incomplete,false,true,NA,4,11,NA,yellow,m_s_013.jpg,NA,NA,unpleasant,pleasant,NA,NA,NA,NA,NA,right,1538,true,NA,NA,NA,NA,NA
K6xpwZWS,3mdwe879vkfdd3966pwqlqs2jwg9bh,3p4rdnwnd9jet7yfpdkmlr6ac9mijx,K6xpwZWS,2020-0188,2021-10-14,10:41:33,12:21:23,NA,incomplete,false,true,NA,4,12,NA,black,m_l_044.jpg,NA,NA,pleasant,unpleasant,NA,NA,NA,NA,NA,left,1270,true,NA,NA,NA,NA,NA
K6xpwZWS,3mdwe879vkfdd3966pwqlqs2jwg9bh,3p4rdnwnd9jet7yfpdkmlr6ac9mijx,K6xpwZWS,2020-0188,2021-10-14,10:41:33,12:21:23,NA,incomplete,false,true,NA,4,13,NA,black,n_l_049.jpg,NA,NA,pleasant,unpleasant,NA,NA,NA,NA,NA,right,1744,true,NA,NA,NA,NA,NA
K6xpwZWS,3mdwe879vkfdd3966pwqlqs2jwg9bh,3p4rdnwnd9jet7yfpdkmlr6ac9mijx,K6xpwZWS,2020-0188,2021-10-14,10:41:33,12:21:23,NA,incomplete,false,true,NA,4,14,NA,black,n_s_037.jpg,NA,NA,unpleasant,pleasant,NA,NA,NA,NA,NA,right,1490,true,NA,NA,NA,NA,NA
K6xpwZWS,3mdwe879vkfdd3966pwqlqs2jwg9bh,3p4rdnwnd9jet7yfpdkmlr6ac9mijx,K6xpwZWS,2020-0188,2021-10-14,10:41:33,12:21:23,NA,incomplete,false,true,NA,4,15,NA,black,m_l_062.jpg,NA,NA,unpleasant,pleasant,NA,NA,NA,NA,NA,right,1505,true,NA,NA,NA,NA,NA
K6xpwZWS,3mdwe879vkfdd3966pwqlqs2jwg9bh,3p4rdnwnd9jet7yfpdkmlr6ac9mijx,K6xpwZWS,2020-0188,2021-10-14,10:41:33,12:21:23,NA,incomplete,false,true,NA,4,16,NA,black,n_l_054.jpg,NA,NA,unpleasant,pleasant,NA,NA,NA,NA,NA,right,2096,true,NA,NA,NA,NA,NA
K6xpwZWS,3mdwe879vkfdd3966pwqlqs2jwg9bh,3p4rdnwnd9jet7yfpdkmlr6ac9mijx,K6xpwZWS,2020-0188,2021-10-14,10:41:33,12:21:23,NA,incomplete,false,true,NA,4,17,NA,black,m_s_101.jpg,NA,NA,pleasant,unpleasant,NA,NA,NA,NA,NA,left,1368,true,NA,NA,NA,NA,NA
K6xpwZWS,3mdwe879vkfdd3966pwqlqs2jwg9bh,3p4rdnwnd9jet7yfpdkmlr6ac9mijx,K6xpwZWS,2020-0188,2021-10-14,10:41:33,12:21:23,NA,incomplete,false,true,NA,4,18,NA,red,n_s_055.jpg,NA,NA,unpleasant,pleasant,NA,NA,NA,NA,NA,right,1693,true,NA,NA,NA,NA,NA
K6xpwZWS,3mdwe879vkfdd3966pwqlqs2jwg9bh,3p4rdnwnd9jet7yfpdkmlr6ac9mijx,K6xpwZWS,2020-0188,2021-10-14,10:41:33,12:21:23,NA,incomplete,false,true,NA,4,19,NA,red,n_l_095.jpg,NA,NA,unpleasant,pleasant,NA,NA,NA,NA,NA,left,1285,true,NA,NA,NA,NA,NA
K6xpwZWS,3mdwe879vkfdd3966pwqlqs2jwg9bh,3p4rdnwnd9jet7yfpdkmlr6ac9mijx,K6xpwZWS,2020-0188,2021-10-14,10:41:33,12:21:23,NA,incomplete,false,true,NA,4,20,NA,red,n_l_113.jpg,NA,NA,pleasant,unpleasant,NA,NA,NA,NA,NA,left,2013,true,NA,NA,NA,NA,NA
K6xpwZWS,3mdwe879vkfdd3966pwqlqs2jwg9bh,3p4rdnwnd9jet7yfpdkmlr6ac9mijx,K6xpwZWS,2020-0188,2021-10-14,10:41:33,12:21:23,NA,incomplete,false,true,NA,4,21,NA,red,m_s_023.jpg,NA,NA,unpleasant,pleasant,NA,NA,NA,NA,NA,right,2016,true,NA,NA,NA,NA,NA
K6xpwZWS,3mdwe879vkfdd3966pwqlqs2jwg9bh,3p4rdnwnd9jet7yfpdkmlr6ac9mijx,K6xpwZWS,2020-0188,2021-10-14,10:41:33,12:21:23,NA,incomplete,false,true,NA,4,22,NA,red,n_l_072.jpg,NA,NA,pleasant,unpleasant,NA,NA,NA,NA,NA,right,1172,true,NA,NA,NA,NA,NA
K6xpwZWS,3mdwe879vkfdd3966pwqlqs2jwg9bh,3p4rdnwnd9jet7yfpdkmlr6ac9mijx,K6xpwZWS,2020-0188,2021-10-14,10:41:33,12:21:23,NA,incomplete,false,true,NA,4,23,NA,red,n_l_040.jpg,NA,NA,unpleasant,pleasant,NA,NA,NA,NA,NA,left,1359,true,NA,NA,NA,NA,NA
K6xpwZWS,3mdwe879vkfdd3966pwqlqs2jwg9bh,3p4rdnwnd9jet7yfpdkmlr6ac9mijx,K6xpwZWS,2020-0188,2021-10-14,10:41:33,12:21:23,NA,incomplete,false,true,NA,4,24,NA,white,m_l_023.jpg,NA,NA,pleasant,unpleasant,NA,NA,NA,NA,NA,left,1016,true,NA,NA,NA,NA,NA
K6xpwZWS,3mdwe879vkfdd3966pwqlqs2jwg9bh,3p4rdnwnd9jet7yfpdkmlr6ac9mijx,K6xpwZWS,2020-0188,2021-10-14,10:41:33,12:21:23,NA,incomplete,false,true,NA,4,25,NA,white,n_s_116.jpg,NA,NA,unpleasant,pleasant,NA,NA,NA,NA,NA,left,1698,true,NA,NA,NA,NA,NA
K6xpwZWS,3mdwe879vkfdd3966pwqlqs2jwg9bh,3p4rdnwnd9jet7yfpdkmlr6ac9mijx,K6xpwZWS,2020-0188,2021-10-14,10:41:33,12:21:23,NA,incomplete,false,true,NA,4,26,NA,white,n_l_030.jpg,NA,NA,pleasant,unpleasant,NA,NA,NA,NA,NA,right,1152,true,NA,NA,NA,NA,NA
K6xpwZWS,3mdwe879vkfdd3966pwqlqs2jwg9bh,3p4rdnwnd9jet7yfpdkmlr6ac9mijx,K6xpwZWS,2020-0188,2021-10-14,10:41:33,12:21:23,NA,incomplete,false,true,NA,4,27,NA,white,m_s_054.jpg,NA,NA,unpleasant,pleasant,NA,NA,NA,NA,NA,right,1250,true,NA,NA,NA,NA,NA
K6xpwZWS,3mdwe879vkfdd3966pwqlqs2jwg9bh,3p4rdnwnd9jet7yfpdkmlr6ac9mijx,K6xpwZWS,2020-0188,2021-10-14,10:41:33,12:21:23,NA,incomplete,false,true,NA,4,28,NA,white,m_s_028.jpg,NA,NA,pleasant,unpleasant,NA,NA,NA,NA,NA,left,1247,true,NA,NA,NA,NA,NA
K6xpwZWS,3mdwe879vkfdd3966pwqlqs2jwg9bh,3p4rdnwnd9jet7yfpdkmlr6ac9mijx,K6xpwZWS,2020-0188,2021-10-14,10:41:33,12:21:23,NA,incomplete,false,true,NA,4,29,NA,white,m_s_016.jpg,NA,NA,unpleasant,pleasant,NA,NA,NA,NA,NA,right,1140,true,NA,NA,NA,NA,NA
K6xpwZWS,3mdwe879vkfdd3966pwqlqs2jwg9bh,3p4rdnwnd9jet7yfpdkmlr6ac9mijx,K6xpwZWS,2020-0188,2021-10-14,10:41:33,12:21:23,NA,incomplete,false,true,NA,4,30,NA,gray,n_l_078.jpg,NA,NA,pleasant,unpleasant,NA,NA,NA,NA,NA,left,1286,true,NA,NA,NA,NA,NA
K6xpwZWS,3mdwe879vkfdd3966pwqlqs2jwg9bh,3p4rdnwnd9jet7yfpdkmlr6ac9mijx,K6xpwZWS,2020-0188,2021-10-14,10:41:33,12:21:23,NA,incomplete,false,true,NA,4,31,NA,gray,n_s_046.jpg,NA,NA,pleasant,unpleasant,NA,NA,NA,NA,NA,left,1196,true,NA,NA,NA,NA,NA
K6xpwZWS,3mdwe879vkfdd3966pwqlqs2jwg9bh,3p4rdnwnd9jet7yfpdkmlr6ac9mijx,K6xpwZWS,2020-0188,2021-10-14,10:41:33,12:21:23,NA,incomplete,false,true,NA,4,32,NA,gray,n_l_114.jpg,NA,NA,unpleasant,pleasant,NA,NA,NA,NA,NA,right,1096,true,NA,NA,NA,NA,NA
K6xpwZWS,3mdwe879vkfdd3966pwqlqs2jwg9bh,3p4rdnwnd9jet7yfpdkmlr6ac9mijx,K6xpwZWS,2020-0188,2021-10-14,10:41:33,12:21:23,NA,incomplete,false,true,NA,4,33,NA,gray,m_l_029.jpg,NA,NA,unpleasant,pleasant,NA,NA,NA,NA,NA,right,1118,true,NA,NA,NA,NA,NA
K6xpwZWS,3mdwe879vkfdd3966pwqlqs2jwg9bh,3p4rdnwnd9jet7yfpdkmlr6ac9mijx,K6xpwZWS,2020-0188,2021-10-14,10:41:33,12:21:23,NA,incomplete,false,true,NA,4,34,NA,gray,n_l_066.jpg,NA,NA,unpleasant,pleasant,NA,NA,NA,NA,NA,left,1585,true,NA,NA,NA,NA,NA
K6xpwZWS,3mdwe879vkfdd3966pwqlqs2jwg9bh,3p4rdnwnd9jet7yfpdkmlr6ac9mijx,K6xpwZWS,2020-0188,2021-10-14,10:41:33,12:21:23,NA,incomplete,false,true,NA,4,35,NA,gray,n_l_002.jpg,NA,NA,unpleasant,pleasant,NA,NA,NA,NA,NA,right,1960,true,NA,NA,NA,NA,NA
K6xpwZWS,3mdwe879vkfdd3966pwqlqs2jwg9bh,3p4rdnwnd9jet7yfpdkmlr6ac9mijx,K6xpwZWS,2020-0188,2021-10-14,10:41:33,12:21:23,NA,incomplete,false,NA,true,4,0,NA,NA,NA,left,absent,NA,NA,n_s_116.jpg,white,m_s_016.jpg,white,within,NA,NaN,NA,right,3298,0,3,868
K6xpwZWS,3mdwe879vkfdd3966pwqlqs2jwg9bh,3p4rdnwnd9jet7yfpdkmlr6ac9mijx,K6xpwZWS,2020-0188,2021-10-14,10:41:33,12:21:23,NA,incomplete,false,NA,true,4,1,NA,NA,NA,left,absent,NA,NA,n_s_046.jpg,gray,n_l_002.jpg,gray,within,NA,NaN,NA,left,1801,1,3,817
K6xpwZWS,3mdwe879vkfdd3966pwqlqs2jwg9bh,3p4rdnwnd9jet7yfpdkmlr6ac9mijx,K6xpwZWS,2020-0188,2021-10-14,10:41:33,12:21:23,NA,incomplete,false,NA,true,4,2,NA,NA,NA,left,absent,NA,NA,n_l_072.jpg,red,n_l_030.jpg,white,between,NA,NaN,NA,right,2298,0,3,980
K6xpwZWS,3mdwe879vkfdd3966pwqlqs2jwg9bh,3p4rdnwnd9jet7yfpdkmlr6ac9mijx,K6xpwZWS,2020-0188,2021-10-14,10:41:33,12:21:23,NA,incomplete,false,NA,true,4,3,NA,NA,NA,left,absent,NA,NA,n_l_073.jpg,purple,m_s_061.jpg,purple,within,NA,NaN,NA,left,1647,1,3,1248
K6xpwZWS,3mdwe879vkfdd3966pwqlqs2jwg9bh,3p4rdnwnd9jet7yfpdkmlr6ac9mijx,K6xpwZWS,2020-0188,2021-10-14,10:41:33,12:21:23,NA,incomplete,false,NA,true,4,4,NA,NA,NA,right,absent,NA,NA,m_s_009.jpg,yellow,n_l_013.jpg,purple,between,NA,NaN,NA,right,1448,1,3,920
K6xpwZWS,3mdwe879vkfdd3966pwqlqs2jwg9bh,3p4rdnwnd9jet7yfpdkmlr6ac9mijx,K6xpwZWS,2020-0188,2021-10-14,10:41:33,12:21:23,NA,incomplete,false,NA,true,4,5,NA,NA,NA,right,absent,NA,NA,m_s_101.jpg,black,n_l_049.jpg,black,within,NA,NaN,NA,right,1416,1,3,943
K6xpwZWS,3mdwe879vkfdd3966pwqlqs2jwg9bh,3p4rdnwnd9jet7yfpdkmlr6ac9mijx,K6xpwZWS,2020-0188,2021-10-14,10:41:33,12:21:23,NA,incomplete,false,NA,true,4,6,NA,NA,NA,right,absent,NA,NA,m_s_013.jpg,yellow,m_s_067.jpg,yellow,within,NA,NaN,NA,right,2555,1,3,799
K6xpwZWS,3mdwe879vkfdd3966pwqlqs2jwg9bh,3p4rdnwnd9jet7yfpdkmlr6ac9mijx,K6xpwZWS,2020-0188,2021-10-14,10:41:33,12:21:23,NA,incomplete,false,NA,true,4,7,NA,NA,NA,right,absent,NA,NA,n_l_040.jpg,red,n_l_095.jpg,red,within,NA,NaN,NA,right,2850,1,3,1040
K6xpwZWS,3mdwe879vkfdd3966pwqlqs2jwg9bh,3p4rdnwnd9jet7yfpdkmlr6ac9mijx,K6xpwZWS,2020-0188,2021-10-14,10:41:33,12:21:23,NA,incomplete,false,NA,true,4,8,NA,NA,NA,right,absent,NA,NA,n_l_114.jpg,gray,m_s_028.jpg,white,between,NA,NaN,NA,left,1670,0,3,1192
K6xpwZWS,3mdwe879vkfdd3966pwqlqs2jwg9bh,3p4rdnwnd9jet7yfpdkmlr6ac9mijx,K6xpwZWS,2020-0188,2021-10-14,10:41:33,12:21:23,NA,incomplete,false,NA,true,4,9,NA,NA,NA,right,absent,NA,NA,n_s_037.jpg,black,n_s_104.jpg,yellow,between,NA,NaN,NA,right,2713,1,3,775
K6xpwZWS,3mdwe879vkfdd3966pwqlqs2jwg9bh,3p4rdnwnd9jet7yfpdkmlr6ac9mijx,K6xpwZWS,2020-0188,2021-10-14,10:41:33,12:21:23,NA,incomplete,false,NA,true,4,10,NA,NA,NA,right,absent,NA,NA,n_l_113.jpg,red,n_l_054.jpg,black,between,NA,NaN,NA,right,3079,1,3,886
K6xpwZWS,3mdwe879vkfdd3966pwqlqs2jwg9bh,3p4rdnwnd9jet7yfpdkmlr6ac9mijx,K6xpwZWS,2020-0188,2021-10-14,10:41:33,12:21:23,NA,incomplete,false,true,NA,5,0,NA,brown,n_s_006.jpg,NA,NA,unpleasant,pleasant,NA,NA,NA,NA,NA,right,2233,true,NA,NA,NA,NA,NA
K6xpwZWS,3mdwe879vkfdd3966pwqlqs2jwg9bh,3p4rdnwnd9jet7yfpdkmlr6ac9mijx,K6xpwZWS,2020-0188,2021-10-14,10:41:33,12:21:23,NA,incomplete,false,true,NA,5,1,NA,brown,n_l_020.jpg,NA,NA,pleasant,unpleasant,NA,NA,NA,NA,NA,left,1960,true,NA,NA,NA,NA,NA
K6xpwZWS,3mdwe879vkfdd3966pwqlqs2jwg9bh,3p4rdnwnd9jet7yfpdkmlr6ac9mijx,K6xpwZWS,2020-0188,2021-10-14,10:41:33,12:21:23,NA,incomplete,false,true,NA,5,2,NA,brown,m_l_007.jpg,NA,NA,unpleasant,pleasant,NA,NA,NA,NA,NA,right,1686,true,NA,NA,NA,NA,NA
K6xpwZWS,3mdwe879vkfdd3966pwqlqs2jwg9bh,3p4rdnwnd9jet7yfpdkmlr6ac9mijx,K6xpwZWS,2020-0188,2021-10-14,10:41:33,12:21:23,NA,incomplete,false,true,NA,5,3,NA,brown,n_s_065.jpg,NA,NA,unpleasant,pleasant,NA,NA,NA,NA,NA,left,1175,true,NA,NA,NA,NA,NA
K6xpwZWS,3mdwe879vkfdd3966pwqlqs2jwg9bh,3p4rdnwnd9jet7yfpdkmlr6ac9mijx,K6xpwZWS,2020-0188,2021-10-14,10:41:33,12:21:23,NA,incomplete,false,true,NA,5,4,NA,brown,n_s_038.jpg,NA,NA,pleasant,unpleasant,NA,NA,NA,NA,NA,right,1467,true,NA,NA,NA,NA,NA
K6xpwZWS,3mdwe879vkfdd3966pwqlqs2jwg9bh,3p4rdnwnd9jet7yfpdkmlr6ac9mijx,K6xpwZWS,2020-0188,2021-10-14,10:41:33,12:21:23,NA,incomplete,false,true,NA,5,5,NA,brown,m_s_055.jpg,NA,NA,pleasant,unpleasant,NA,NA,NA,NA,NA,left,1503,true,NA,NA,NA,NA,NA
K6xpwZWS,3mdwe879vkfdd3966pwqlqs2jwg9bh,3p4rdnwnd9jet7yfpdkmlr6ac9mijx,K6xpwZWS,2020-0188,2021-10-14,10:41:33,12:21:23,NA,incomplete,false,true,NA,5,6,NA,orange,n_s_012.jpg,NA,NA,pleasant,unpleasant,NA,NA,NA,NA,NA,left,1100,true,NA,NA,NA,NA,NA
K6xpwZWS,3mdwe879vkfdd3966pwqlqs2jwg9bh,3p4rdnwnd9jet7yfpdkmlr6ac9mijx,K6xpwZWS,2020-0188,2021-10-14,10:41:33,12:21:23,NA,incomplete,false,true,NA,5,7,NA,orange,m_s_027.jpg,NA,NA,pleasant,unpleasant,NA,NA,NA,NA,NA,left,1125,true,NA,NA,NA,NA,NA
K6xpwZWS,3mdwe879vkfdd3966pwqlqs2jwg9bh,3p4rdnwnd9jet7yfpdkmlr6ac9mijx,K6xpwZWS,2020-0188,2021-10-14,10:41:33,12:21:23,NA,incomplete,false,true,NA,5,8,NA,orange,n_s_067.jpg,NA,NA,pleasant,unpleasant,NA,NA,NA,NA,NA,left,1058,true,NA,NA,NA,NA,NA
K6xpwZWS,3mdwe879vkfdd3966pwqlqs2jwg9bh,3p4rdnwnd9jet7yfpdkmlr6ac9mijx,K6xpwZWS,2020-0188,2021-10-14,10:41:33,12:21:23,NA,incomplete,false,true,NA,5,9,NA,orange,n_s_064.jpg,NA,NA,unpleasant,pleasant,NA,NA,NA,NA,NA,left,1590,true,NA,NA,NA,NA,NA
K6xpwZWS,3mdwe879vkfdd3966pwqlqs2jwg9bh,3p4rdnwnd9jet7yfpdkmlr6ac9mijx,K6xpwZWS,2020-0188,2021-10-14,10:41:33,12:21:23,NA,incomplete,false,true,NA,5,10,NA,orange,n_l_074.jpg,NA,NA,pleasant,unpleasant,NA,NA,NA,NA,NA,left,1273,true,NA,NA,NA,NA,NA
K6xpwZWS,3mdwe879vkfdd3966pwqlqs2jwg9bh,3p4rdnwnd9jet7yfpdkmlr6ac9mijx,K6xpwZWS,2020-0188,2021-10-14,10:41:33,12:21:23,NA,incomplete,false,true,NA,5,11,NA,orange,m_l_024.jpg,NA,NA,pleasant,unpleasant,NA,NA,NA,NA,NA,left,1601,true,NA,NA,NA,NA,NA
K6xpwZWS,3mdwe879vkfdd3966pwqlqs2jwg9bh,3p4rdnwnd9jet7yfpdkmlr6ac9mijx,K6xpwZWS,2020-0188,2021-10-14,10:41:33,12:21:23,NA,incomplete,false,true,NA,5,12,NA,white,m_s_026.jpg,NA,NA,pleasant,unpleasant,NA,NA,NA,NA,NA,left,1853,true,NA,NA,NA,NA,NA
K6xpwZWS,3mdwe879vkfdd3966pwqlqs2jwg9bh,3p4rdnwnd9jet7yfpdkmlr6ac9mijx,K6xpwZWS,2020-0188,2021-10-14,10:41:33,12:21:23,NA,incomplete,false,true,NA,5,13,NA,white,m_s_070.jpg,NA,NA,pleasant,unpleasant,NA,NA,NA,NA,NA,left,1125,true,NA,NA,NA,NA,NA
K6xpwZWS,3mdwe879vkfdd3966pwqlqs2jwg9bh,3p4rdnwnd9jet7yfpdkmlr6ac9mijx,K6xpwZWS,2020-0188,2021-10-14,10:41:33,12:21:23,NA,incomplete,false,true,NA,5,14,NA,white,m_l_012.jpg,NA,NA,pleasant,unpleasant,NA,NA,NA,NA,NA,left,1670,true,NA,NA,NA,NA,NA
K6xpwZWS,3mdwe879vkfdd3966pwqlqs2jwg9bh,3p4rdnwnd9jet7yfpdkmlr6ac9mijx,K6xpwZWS,2020-0188,2021-10-14,10:41:33,12:21:23,NA,incomplete,false,true,NA,5,15,NA,white,m_l_046.jpg,NA,NA,pleasant,unpleasant,NA,NA,NA,NA,NA,left,994,true,NA,NA,NA,NA,NA
K6xpwZWS,3mdwe879vkfdd3966pwqlqs2jwg9bh,3p4rdnwnd9jet7yfpdkmlr6ac9mijx,K6xpwZWS,2020-0188,2021-10-14,10:41:33,12:21:23,NA,incomplete,false,true,NA,5,16,NA,white,n_l_087.jpg,NA,NA,pleasant,unpleasant,NA,NA,NA,NA,NA,right,1361,true,NA,NA,NA,NA,NA
K6xpwZWS,3mdwe879vkfdd3966pwqlqs2jwg9bh,3p4rdnwnd9jet7yfpdkmlr6ac9mijx,K6xpwZWS,2020-0188,2021-10-14,10:41:33,12:21:23,NA,incomplete,false,true,NA,5,17,NA,white,m_l_105.jpg,NA,NA,pleasant,unpleasant,NA,NA,NA,NA,NA,left,1067,true,NA,NA,NA,NA,NA
K6xpwZWS,3mdwe879vkfdd3966pwqlqs2jwg9bh,3p4rdnwnd9jet7yfpdkmlr6ac9mijx,K6xpwZWS,2020-0188,2021-10-14,10:41:33,12:21:23,NA,incomplete,false,true,NA,5,18,NA,purple,n_s_031.jpg,NA,NA,pleasant,unpleasant,NA,NA,NA,NA,NA,right,1765,true,NA,NA,NA,NA,NA
K6xpwZWS,3mdwe879vkfdd3966pwqlqs2jwg9bh,3p4rdnwnd9jet7yfpdkmlr6ac9mijx,K6xpwZWS,2020-0188,2021-10-14,10:41:33,12:21:23,NA,incomplete,false,true,NA,5,19,NA,purple,m_l_111.jpg,NA,NA,pleasant,unpleasant,NA,NA,NA,NA,NA,left,1501,true,NA,NA,NA,NA,NA
K6xpwZWS,3mdwe879vkfdd3966pwqlqs2jwg9bh,3p4rdnwnd9jet7yfpdkmlr6ac9mijx,K6xpwZWS,2020-0188,2021-10-14,10:41:33,12:21:23,NA,incomplete,false,true,NA,5,20,NA,purple,m_l_097.jpg,NA,NA,unpleasant,pleasant,NA,NA,NA,NA,NA,right,1719,true,NA,NA,NA,NA,NA
K6xpwZWS,3mdwe879vkfdd3966pwqlqs2jwg9bh,3p4rdnwnd9jet7yfpdkmlr6ac9mijx,K6xpwZWS,2020-0188,2021-10-14,10:41:33,12:21:23,NA,incomplete,false,true,NA,5,21,NA,purple,n_s_079.jpg,NA,NA,pleasant,unpleasant,NA,NA,NA,NA,NA,left,2547,true,NA,NA,NA,NA,NA
K6xpwZWS,3mdwe879vkfdd3966pwqlqs2jwg9bh,3p4rdnwnd9jet7yfpdkmlr6ac9mijx,K6xpwZWS,2020-0188,2021-10-14,10:41:33,12:21:23,NA,incomplete,false,true,NA,5,22,NA,purple,n_l_042.jpg,NA,NA,unpleasant,pleasant,NA,NA,NA,NA,NA,right,1726,true,NA,NA,NA,NA,NA
K6xpwZWS,3mdwe879vkfdd3966pwqlqs2jwg9bh,3p4rdnwnd9jet7yfpdkmlr6ac9mijx,K6xpwZWS,2020-0188,2021-10-14,10:41:33,12:21:23,NA,incomplete,false,true,NA,5,23,NA,purple,n_l_044.jpg,NA,NA,pleasant,unpleasant,NA,NA,NA,NA,NA,left,1231,true,NA,NA,NA,NA,NA
K6xpwZWS,3mdwe879vkfdd3966pwqlqs2jwg9bh,3p4rdnwnd9jet7yfpdkmlr6ac9mijx,K6xpwZWS,2020-0188,2021-10-14,10:41:33,12:21:23,NA,incomplete,false,true,NA,5,24,NA,black,m_s_046.jpg,NA,NA,unpleasant,pleasant,NA,NA,NA,NA,NA,right,1196,true,NA,NA,NA,NA,NA
K6xpwZWS,3mdwe879vkfdd3966pwqlqs2jwg9bh,3p4rdnwnd9jet7yfpdkmlr6ac9mijx,K6xpwZWS,2020-0188,2021-10-14,10:41:33,12:21:23,NA,incomplete,false,true,NA,5,25,NA,black,n_s_106.jpg,NA,NA,pleasant,unpleasant,NA,NA,NA,NA,NA,right,1575,true,NA,NA,NA,NA,NA
K6xpwZWS,3mdwe879vkfdd3966pwqlqs2jwg9bh,3p4rdnwnd9jet7yfpdkmlr6ac9mijx,K6xpwZWS,2020-0188,2021-10-14,10:41:33,12:21:23,NA,incomplete,false,true,NA,5,26,NA,black,n_l_101.jpg,NA,NA,pleasant,unpleasant,NA,NA,NA,NA,NA,right,1822,true,NA,NA,NA,NA,NA
K6xpwZWS,3mdwe879vkfdd3966pwqlqs2jwg9bh,3p4rdnwnd9jet7yfpdkmlr6ac9mijx,K6xpwZWS,2020-0188,2021-10-14,10:41:33,12:21:23,NA,incomplete,false,true,NA,5,27,NA,black,n_s_033.jpg,NA,NA,unpleasant,pleasant,NA,NA,NA,NA,NA,right,2208,true,NA,NA,NA,NA,NA
K6xpwZWS,3mdwe879vkfdd3966pwqlqs2jwg9bh,3p4rdnwnd9jet7yfpdkmlr6ac9mijx,K6xpwZWS,2020-0188,2021-10-14,10:41:33,12:21:23,NA,incomplete,false,true,NA,5,28,NA,black,m_l_009.jpg,NA,NA,unpleasant,pleasant,NA,NA,NA,NA,NA,right,1158,true,NA,NA,NA,NA,NA
K6xpwZWS,3mdwe879vkfdd3966pwqlqs2jwg9bh,3p4rdnwnd9jet7yfpdkmlr6ac9mijx,K6xpwZWS,2020-0188,2021-10-14,10:41:33,12:21:23,NA,incomplete,false,true,NA,5,29,NA,black,m_s_109.jpg,NA,NA,unpleasant,pleasant,NA,NA,NA,NA,NA,right,1408,true,NA,NA,NA,NA,NA
K6xpwZWS,3mdwe879vkfdd3966pwqlqs2jwg9bh,3p4rdnwnd9jet7yfpdkmlr6ac9mijx,K6xpwZWS,2020-0188,2021-10-14,10:41:33,12:21:23,NA,incomplete,false,true,NA,5,30,NA,blue,m_l_087.jpg,NA,NA,unpleasant,pleasant,NA,NA,NA,NA,NA,right,2576,true,NA,NA,NA,NA,NA
K6xpwZWS,3mdwe879vkfdd3966pwqlqs2jwg9bh,3p4rdnwnd9jet7yfpdkmlr6ac9mijx,K6xpwZWS,2020-0188,2021-10-14,10:41:33,12:21:23,NA,incomplete,false,true,NA,5,31,NA,blue,n_s_097.jpg,NA,NA,pleasant,unpleasant,NA,NA,NA,NA,NA,left,2116,true,NA,NA,NA,NA,NA
K6xpwZWS,3mdwe879vkfdd3966pwqlqs2jwg9bh,3p4rdnwnd9jet7yfpdkmlr6ac9mijx,K6xpwZWS,2020-0188,2021-10-14,10:41:33,12:21:23,NA,incomplete,false,true,NA,5,32,NA,blue,n_s_011.jpg,NA,NA,pleasant,unpleasant,NA,NA,NA,NA,NA,left,1644,true,NA,NA,NA,NA,NA
K6xpwZWS,3mdwe879vkfdd3966pwqlqs2jwg9bh,3p4rdnwnd9jet7yfpdkmlr6ac9mijx,K6xpwZWS,2020-0188,2021-10-14,10:41:33,12:21:23,NA,incomplete,false,true,NA,5,33,NA,blue,n_s_077.jpg,NA,NA,pleasant,unpleasant,NA,NA,NA,NA,NA,left,1248,true,NA,NA,NA,NA,NA
K6xpwZWS,3mdwe879vkfdd3966pwqlqs2jwg9bh,3p4rdnwnd9jet7yfpdkmlr6ac9mijx,K6xpwZWS,2020-0188,2021-10-14,10:41:33,12:21:23,NA,incomplete,false,true,NA,5,34,NA,blue,m_l_054.jpg,NA,NA,unpleasant,pleasant,NA,NA,NA,NA,NA,right,1274,true,NA,NA,NA,NA,NA
K6xpwZWS,3mdwe879vkfdd3966pwqlqs2jwg9bh,3p4rdnwnd9jet7yfpdkmlr6ac9mijx,K6xpwZWS,2020-0188,2021-10-14,10:41:33,12:21:23,NA,incomplete,false,true,NA,5,35,NA,blue,m_l_068.jpg,NA,NA,unpleasant,pleasant,NA,NA,NA,NA,NA,right,1201,true,NA,NA,NA,NA,NA
K6xpwZWS,3mdwe879vkfdd3966pwqlqs2jwg9bh,3p4rdnwnd9jet7yfpdkmlr6ac9mijx,K6xpwZWS,2020-0188,2021-10-14,10:41:33,12:21:23,NA,incomplete,false,NA,true,5,0,NA,NA,NA,right,absent,NA,NA,m_l_097.jpg,purple,n_l_087.jpg,white,between,NA,NaN,NA,left,2617,0,3,1077
K6xpwZWS,3mdwe879vkfdd3966pwqlqs2jwg9bh,3p4rdnwnd9jet7yfpdkmlr6ac9mijx,K6xpwZWS,2020-0188,2021-10-14,10:41:33,12:21:23,NA,incomplete,false,NA,true,5,1,NA,NA,NA,left,absent,NA,NA,m_s_027.jpg,orange,m_l_024.jpg,orange,within,NA,NaN,NA,left,1990,1,3,809
K6xpwZWS,3mdwe879vkfdd3966pwqlqs2jwg9bh,3p4rdnwnd9jet7yfpdkmlr6ac9mijx,K6xpwZWS,2020-0188,2021-10-14,10:41:33,12:21:23,NA,incomplete,false,NA,true,5,2,NA,NA,NA,right,absent,NA,NA,n_l_101.jpg,black,n_l_042.jpg,purple,between,NA,NaN,NA,right,1558,1,3,1162
K6xpwZWS,3mdwe879vkfdd3966pwqlqs2jwg9bh,3p4rdnwnd9jet7yfpdkmlr6ac9mijx,K6xpwZWS,2020-0188,2021-10-14,10:41:33,12:21:23,NA,incomplete,false,NA,true,5,3,NA,NA,NA,right,absent,NA,NA,m_l_105.jpg,white,m_s_070.jpg,white,within,NA,NaN,NA,left,1547,0,3,871
K6xpwZWS,3mdwe879vkfdd3966pwqlqs2jwg9bh,3p4rdnwnd9jet7yfpdkmlr6ac9mijx,K6xpwZWS,2020-0188,2021-10-14,10:41:33,12:21:23,NA,incomplete,false,NA,true,5,4,NA,NA,NA,right,absent,NA,NA,m_l_012.jpg,white,n_l_074.jpg,orange,between,NA,NaN,NA,left,1301,0,3,810
K6xpwZWS,3mdwe879vkfdd3966pwqlqs2jwg9bh,3p4rdnwnd9jet7yfpdkmlr6ac9mijx,K6xpwZWS,2020-0188,2021-10-14,10:41:33,12:21:23,NA,incomplete,false,NA,true,5,5,NA,NA,NA,right,absent,NA,NA,n_l_044.jpg,purple,m_l_111.jpg,purple,within,NA,NaN,NA,left,1788,0,3,752
K6xpwZWS,3mdwe879vkfdd3966pwqlqs2jwg9bh,3p4rdnwnd9jet7yfpdkmlr6ac9mijx,K6xpwZWS,2020-0188,2021-10-14,10:41:33,12:21:23,NA,incomplete,false,NA,true,5,6,NA,NA,NA,left,absent,NA,NA,n_s_106.jpg,black,m_s_109.jpg,black,within,NA,NaN,NA,left,2096,1,2,2457
K6xpwZWS,3mdwe879vkfdd3966pwqlqs2jwg9bh,3p4rdnwnd9jet7yfpdkmlr6ac9mijx,K6xpwZWS,2020-0188,2021-10-14,10:41:33,12:21:23,NA,incomplete,false,NA,true,5,7,NA,NA,NA,left,absent,NA,NA,n_s_038.jpg,brown,n_s_067.jpg,orange,between,NA,NaN,NA,left,2218,1,3,1776
K6xpwZWS,3mdwe879vkfdd3966pwqlqs2jwg9bh,3p4rdnwnd9jet7yfpdkmlr6ac9mijx,K6xpwZWS,2020-0188,2021-10-14,10:41:33,12:21:23,NA,incomplete,false,NA,true,5,8,NA,NA,NA,right,absent,NA,NA,n_s_011.jpg,blue,m_l_009.jpg,black,between,NA,NaN,NA,left,1213,0,3,593
K6xpwZWS,3mdwe879vkfdd3966pwqlqs2jwg9bh,3p4rdnwnd9jet7yfpdkmlr6ac9mijx,K6xpwZWS,2020-0188,2021-10-14,10:41:33,12:21:23,NA,incomplete,false,NA,true,5,9,NA,NA,NA,left,absent,NA,NA,n_l_020.jpg,brown,m_s_055.jpg,brown,within,NA,NaN,NA,left,1453,1,3,903
K6xpwZWS,3mdwe879vkfdd3966pwqlqs2jwg9bh,3p4rdnwnd9jet7yfpdkmlr6ac9mijx,K6xpwZWS,2020-0188,2021-10-14,10:41:33,12:21:23,NA,incomplete,false,NA,true,5,10,NA,NA,NA,right,absent,NA,NA,m_l_068.jpg,blue,n_s_097.jpg,blue,within,NA,NaN,NA,left,1220,0,3,3576
K6xpwZWS,3mdwe879vkfdd3966pwqlqs2jwg9bh,3p4rdnwnd9jet7yfpdkmlr6ac9mijx,K6xpwZWS,2020-0188,2021-10-14,10:41:33,12:21:23,NA,incomplete,false,true,NA,6,0,NA,blue,n_s_003.jpg,NA,NA,unpleasant,pleasant,NA,NA,NA,NA,NA,right,2552,true,NA,NA,NA,NA,NA
K6xpwZWS,3mdwe879vkfdd3966pwqlqs2jwg9bh,3p4rdnwnd9jet7yfpdkmlr6ac9mijx,K6xpwZWS,2020-0188,2021-10-14,10:41:33,12:21:23,NA,incomplete,false,true,NA,6,1,NA,blue,m_s_116.jpg,NA,NA,pleasant,unpleasant,NA,NA,NA,NA,NA,right,1233,true,NA,NA,NA,NA,NA
K6xpwZWS,3mdwe879vkfdd3966pwqlqs2jwg9bh,3p4rdnwnd9jet7yfpdkmlr6ac9mijx,K6xpwZWS,2020-0188,2021-10-14,10:41:33,12:21:23,NA,incomplete,false,true,NA,6,2,NA,blue,m_s_029.jpg,NA,NA,unpleasant,pleasant,NA,NA,NA,NA,NA,right,1568,true,NA,NA,NA,NA,NA
K6xpwZWS,3mdwe879vkfdd3966pwqlqs2jwg9bh,3p4rdnwnd9jet7yfpdkmlr6ac9mijx,K6xpwZWS,2020-0188,2021-10-14,10:41:33,12:21:23,NA,incomplete,false,true,NA,6,3,NA,blue,m_l_063.jpg,NA,NA,unpleasant,pleasant,NA,NA,NA,NA,NA,right,1348,true,NA,NA,NA,NA,NA
K6xpwZWS,3mdwe879vkfdd3966pwqlqs2jwg9bh,3p4rdnwnd9jet7yfpdkmlr6ac9mijx,K6xpwZWS,2020-0188,2021-10-14,10:41:33,12:21:23,NA,incomplete,false,true,NA,6,4,NA,blue,n_s_020.jpg,NA,NA,pleasant,unpleasant,NA,NA,NA,NA,NA,left,1968,true,NA,NA,NA,NA,NA
K6xpwZWS,3mdwe879vkfdd3966pwqlqs2jwg9bh,3p4rdnwnd9jet7yfpdkmlr6ac9mijx,K6xpwZWS,2020-0188,2021-10-14,10:41:33,12:21:23,NA,incomplete,false,true,NA,6,5,NA,blue,m_s_079.jpg,NA,NA,unpleasant,pleasant,NA,NA,NA,NA,NA,right,1465,true,NA,NA,NA,NA,NA
K6xpwZWS,3mdwe879vkfdd3966pwqlqs2jwg9bh,3p4rdnwnd9jet7yfpdkmlr6ac9mijx,K6xpwZWS,2020-0188,2021-10-14,10:41:33,12:21:23,NA,incomplete,false,true,NA,6,6,NA,white,m_l_015.jpg,NA,NA,unpleasant,pleasant,NA,NA,NA,NA,NA,right,1233,true,NA,NA,NA,NA,NA
K6xpwZWS,3mdwe879vkfdd3966pwqlqs2jwg9bh,3p4rdnwnd9jet7yfpdkmlr6ac9mijx,K6xpwZWS,2020-0188,2021-10-14,10:41:33,12:21:23,NA,incomplete,false,true,NA,6,7,NA,white,n_s_083.jpg,NA,NA,pleasant,unpleasant,NA,NA,NA,NA,NA,left,1314,true,NA,NA,NA,NA,NA
K6xpwZWS,3mdwe879vkfdd3966pwqlqs2jwg9bh,3p4rdnwnd9jet7yfpdkmlr6ac9mijx,K6xpwZWS,2020-0188,2021-10-14,10:41:33,12:21:23,NA,incomplete,false,true,NA,6,8,NA,white,m_s_065.jpg,NA,NA,pleasant,unpleasant,NA,NA,NA,NA,NA,left,2344,true,NA,NA,NA,NA,NA
K6xpwZWS,3mdwe879vkfdd3966pwqlqs2jwg9bh,3p4rdnwnd9jet7yfpdkmlr6ac9mijx,K6xpwZWS,2020-0188,2021-10-14,10:41:33,12:21:23,NA,incomplete,false,true,NA,6,9,NA,white,n_l_018.jpg,NA,NA,pleasant,unpleasant,NA,NA,NA,NA,NA,left,1171,true,NA,NA,NA,NA,NA
K6xpwZWS,3mdwe879vkfdd3966pwqlqs2jwg9bh,3p4rdnwnd9jet7yfpdkmlr6ac9mijx,K6xpwZWS,2020-0188,2021-10-14,10:41:33,12:21:23,NA,incomplete,false,true,NA,6,10,NA,white,m_s_072.jpg,NA,NA,unpleasant,pleasant,NA,NA,NA,NA,NA,right,1268,true,NA,NA,NA,NA,NA
K6xpwZWS,3mdwe879vkfdd3966pwqlqs2jwg9bh,3p4rdnwnd9jet7yfpdkmlr6ac9mijx,K6xpwZWS,2020-0188,2021-10-14,10:41:33,12:21:23,NA,incomplete,false,true,NA,6,11,NA,white,n_l_036.jpg,NA,NA,pleasant,unpleasant,NA,NA,NA,NA,NA,right,1529,true,NA,NA,NA,NA,NA
K6xpwZWS,3mdwe879vkfdd3966pwqlqs2jwg9bh,3p4rdnwnd9jet7yfpdkmlr6ac9mijx,K6xpwZWS,2020-0188,2021-10-14,10:41:33,12:21:23,NA,incomplete,false,true,NA,6,12,NA,orange,m_l_112.jpg,NA,NA,unpleasant,pleasant,NA,NA,NA,NA,NA,right,2450,true,NA,NA,NA,NA,NA
K6xpwZWS,3mdwe879vkfdd3966pwqlqs2jwg9bh,3p4rdnwnd9jet7yfpdkmlr6ac9mijx,K6xpwZWS,2020-0188,2021-10-14,10:41:33,12:21:23,NA,incomplete,false,true,NA,6,13,NA,orange,m_l_074.jpg,NA,NA,pleasant,unpleasant,NA,NA,NA,NA,NA,left,998,true,NA,NA,NA,NA,NA
K6xpwZWS,3mdwe879vkfdd3966pwqlqs2jwg9bh,3p4rdnwnd9jet7yfpdkmlr6ac9mijx,K6xpwZWS,2020-0188,2021-10-14,10:41:33,12:21:23,NA,incomplete,false,true,NA,6,14,NA,orange,m_l_036.jpg,NA,NA,pleasant,unpleasant,NA,NA,NA,NA,NA,left,1219,true,NA,NA,NA,NA,NA
K6xpwZWS,3mdwe879vkfdd3966pwqlqs2jwg9bh,3p4rdnwnd9jet7yfpdkmlr6ac9mijx,K6xpwZWS,2020-0188,2021-10-14,10:41:33,12:21:23,NA,incomplete,false,true,NA,6,15,NA,orange,n_s_041.jpg,NA,NA,unpleasant,pleasant,NA,NA,NA,NA,NA,right,1362,true,NA,NA,NA,NA,NA
K6xpwZWS,3mdwe879vkfdd3966pwqlqs2jwg9bh,3p4rdnwnd9jet7yfpdkmlr6ac9mijx,K6xpwZWS,2020-0188,2021-10-14,10:41:33,12:21:23,NA,incomplete,false,true,NA,6,16,NA,orange,n_l_014.jpg,NA,NA,pleasant,unpleasant,NA,NA,NA,NA,NA,right,1937,true,NA,NA,NA,NA,NA
K6xpwZWS,3mdwe879vkfdd3966pwqlqs2jwg9bh,3p4rdnwnd9jet7yfpdkmlr6ac9mijx,K6xpwZWS,2020-0188,2021-10-14,10:41:33,12:21:23,NA,incomplete,false,true,NA,6,17,NA,orange,m_s_033.jpg,NA,NA,pleasant,unpleasant,NA,NA,NA,NA,NA,left,1167,true,NA,NA,NA,NA,NA
K6xpwZWS,3mdwe879vkfdd3966pwqlqs2jwg9bh,3p4rdnwnd9jet7yfpdkmlr6ac9mijx,K6xpwZWS,2020-0188,2021-10-14,10:41:33,12:21:23,NA,incomplete,false,true,NA,6,18,NA,yellow,n_s_088.jpg,NA,NA,unpleasant,pleasant,NA,NA,NA,NA,NA,right,1577,true,NA,NA,NA,NA,NA
K6xpwZWS,3mdwe879vkfdd3966pwqlqs2jwg9bh,3p4rdnwnd9jet7yfpdkmlr6ac9mijx,K6xpwZWS,2020-0188,2021-10-14,10:41:33,12:21:23,NA,incomplete,false,true,NA,6,19,NA,yellow,n_s_057.jpg,NA,NA,unpleasant,pleasant,NA,NA,NA,NA,NA,left,1489,true,NA,NA,NA,NA,NA
K6xpwZWS,3mdwe879vkfdd3966pwqlqs2jwg9bh,3p4rdnwnd9jet7yfpdkmlr6ac9mijx,K6xpwZWS,2020-0188,2021-10-14,10:41:33,12:21:23,NA,incomplete,false,true,NA,6,20,NA,yellow,m_l_078.jpg,NA,NA,unpleasant,pleasant,NA,NA,NA,NA,NA,right,1987,true,NA,NA,NA,NA,NA
K6xpwZWS,3mdwe879vkfdd3966pwqlqs2jwg9bh,3p4rdnwnd9jet7yfpdkmlr6ac9mijx,K6xpwZWS,2020-0188,2021-10-14,10:41:33,12:21:23,NA,incomplete,false,true,NA,6,21,NA,yellow,m_s_105.jpg,NA,NA,pleasant,unpleasant,NA,NA,NA,NA,NA,left,1380,true,NA,NA,NA,NA,NA
K6xpwZWS,3mdwe879vkfdd3966pwqlqs2jwg9bh,3p4rdnwnd9jet7yfpdkmlr6ac9mijx,K6xpwZWS,2020-0188,2021-10-14,10:41:33,12:21:23,NA,incomplete,false,true,NA,6,22,NA,yellow,m_l_084.jpg,NA,NA,pleasant,unpleasant,NA,NA,NA,NA,NA,left,1194,true,NA,NA,NA,NA,NA
K6xpwZWS,3mdwe879vkfdd3966pwqlqs2jwg9bh,3p4rdnwnd9jet7yfpdkmlr6ac9mijx,K6xpwZWS,2020-0188,2021-10-14,10:41:33,12:21:23,NA,incomplete,false,true,NA,6,23,NA,yellow,m_s_100.jpg,NA,NA,unpleasant,pleasant,NA,NA,NA,NA,NA,right,1307,true,NA,NA,NA,NA,NA
K6xpwZWS,3mdwe879vkfdd3966pwqlqs2jwg9bh,3p4rdnwnd9jet7yfpdkmlr6ac9mijx,K6xpwZWS,2020-0188,2021-10-14,10:41:33,12:21:23,NA,incomplete,false,true,NA,6,24,NA,brown,n_s_082.jpg,NA,NA,pleasant,unpleasant,NA,NA,NA,NA,NA,left,1010,true,NA,NA,NA,NA,NA
K6xpwZWS,3mdwe879vkfdd3966pwqlqs2jwg9bh,3p4rdnwnd9jet7yfpdkmlr6ac9mijx,K6xpwZWS,2020-0188,2021-10-14,10:41:33,12:21:23,NA,incomplete,false,true,NA,6,25,NA,brown,m_s_049.jpg,NA,NA,unpleasant,pleasant,NA,NA,NA,NA,NA,right,1018,true,NA,NA,NA,NA,NA
K6xpwZWS,3mdwe879vkfdd3966pwqlqs2jwg9bh,3p4rdnwnd9jet7yfpdkmlr6ac9mijx,K6xpwZWS,2020-0188,2021-10-14,10:41:33,12:21:23,NA,incomplete,false,true,NA,6,26,NA,brown,m_l_060.jpg,NA,NA,pleasant,unpleasant,NA,NA,NA,NA,NA,left,896,true,NA,NA,NA,NA,NA
K6xpwZWS,3mdwe879vkfdd3966pwqlqs2jwg9bh,3p4rdnwnd9jet7yfpdkmlr6ac9mijx,K6xpwZWS,2020-0188,2021-10-14,10:41:33,12:21:23,NA,incomplete,false,true,NA,6,27,NA,brown,n_l_010.jpg,NA,NA,unpleasant,pleasant,NA,NA,NA,NA,NA,right,1073,true,NA,NA,NA,NA,NA
K6xpwZWS,3mdwe879vkfdd3966pwqlqs2jwg9bh,3p4rdnwnd9jet7yfpdkmlr6ac9mijx,K6xpwZWS,2020-0188,2021-10-14,10:41:33,12:21:23,NA,incomplete,false,true,NA,6,28,NA,brown,m_l_045.jpg,NA,NA,pleasant,unpleasant,NA,NA,NA,NA,NA,left,945,true,NA,NA,NA,NA,NA
K6xpwZWS,3mdwe879vkfdd3966pwqlqs2jwg9bh,3p4rdnwnd9jet7yfpdkmlr6ac9mijx,K6xpwZWS,2020-0188,2021-10-14,10:41:33,12:21:23,NA,incomplete,false,true,NA,6,29,NA,brown,n_l_012.jpg,NA,NA,unpleasant,pleasant,NA,NA,NA,NA,NA,right,1298,true,NA,NA,NA,NA,NA
K6xpwZWS,3mdwe879vkfdd3966pwqlqs2jwg9bh,3p4rdnwnd9jet7yfpdkmlr6ac9mijx,K6xpwZWS,2020-0188,2021-10-14,10:41:33,12:21:23,NA,incomplete,false,true,NA,6,30,NA,gray,m_s_113.jpg,NA,NA,pleasant,unpleasant,NA,NA,NA,NA,NA,left,1264,true,NA,NA,NA,NA,NA
K6xpwZWS,3mdwe879vkfdd3966pwqlqs2jwg9bh,3p4rdnwnd9jet7yfpdkmlr6ac9mijx,K6xpwZWS,2020-0188,2021-10-14,10:41:33,12:21:23,NA,incomplete,false,true,NA,6,31,NA,gray,n_l_065.jpg,NA,NA,unpleasant,pleasant,NA,NA,NA,NA,NA,left,1458,true,NA,NA,NA,NA,NA
K6xpwZWS,3mdwe879vkfdd3966pwqlqs2jwg9bh,3p4rdnwnd9jet7yfpdkmlr6ac9mijx,K6xpwZWS,2020-0188,2021-10-14,10:41:33,12:21:23,NA,incomplete,false,true,NA,6,32,NA,gray,m_s_010.jpg,NA,NA,pleasant,unpleasant,NA,NA,NA,NA,NA,left,1167,true,NA,NA,NA,NA,NA
K6xpwZWS,3mdwe879vkfdd3966pwqlqs2jwg9bh,3p4rdnwnd9jet7yfpdkmlr6ac9mijx,K6xpwZWS,2020-0188,2021-10-14,10:41:33,12:21:23,NA,incomplete,false,true,NA,6,33,NA,gray,m_s_045.jpg,NA,NA,pleasant,unpleasant,NA,NA,NA,NA,NA,left,1333,true,NA,NA,NA,NA,NA
K6xpwZWS,3mdwe879vkfdd3966pwqlqs2jwg9bh,3p4rdnwnd9jet7yfpdkmlr6ac9mijx,K6xpwZWS,2020-0188,2021-10-14,10:41:33,12:21:23,NA,incomplete,false,true,NA,6,34,NA,gray,n_s_096.jpg,NA,NA,pleasant,unpleasant,NA,NA,NA,NA,NA,left,970,true,NA,NA,NA,NA,NA
K6xpwZWS,3mdwe879vkfdd3966pwqlqs2jwg9bh,3p4rdnwnd9jet7yfpdkmlr6ac9mijx,K6xpwZWS,2020-0188,2021-10-14,10:41:33,12:21:23,NA,incomplete,false,true,NA,6,35,NA,gray,m_s_053.jpg,NA,NA,unpleasant,pleasant,NA,NA,NA,NA,NA,right,1157,true,NA,NA,NA,NA,NA
K6xpwZWS,3mdwe879vkfdd3966pwqlqs2jwg9bh,3p4rdnwnd9jet7yfpdkmlr6ac9mijx,K6xpwZWS,2020-0188,2021-10-14,10:41:33,12:21:23,NA,incomplete,false,NA,true,6,0,NA,NA,NA,left,absent,NA,NA,n_s_057.jpg,yellow,m_s_100.jpg,yellow,within,NA,NaN,NA,left,35844,1,3,1040
K6xpwZWS,3mdwe879vkfdd3966pwqlqs2jwg9bh,3p4rdnwnd9jet7yfpdkmlr6ac9mijx,K6xpwZWS,2020-0188,2021-10-14,10:41:33,12:21:23,NA,incomplete,false,NA,true,6,1,NA,NA,NA,left,absent,NA,NA,m_l_045.jpg,brown,m_s_010.jpg,gray,between,NA,NaN,NA,left,532,1,3,821
K6xpwZWS,3mdwe879vkfdd3966pwqlqs2jwg9bh,3p4rdnwnd9jet7yfpdkmlr6ac9mijx,K6xpwZWS,2020-0188,2021-10-14,10:41:33,12:21:23,NA,incomplete,false,NA,true,6,2,NA,NA,NA,left,absent,NA,NA,m_s_072.jpg,white,m_l_036.jpg,orange,between,NA,NaN,NA,left,1425,1,3,931
K6xpwZWS,3mdwe879vkfdd3966pwqlqs2jwg9bh,3p4rdnwnd9jet7yfpdkmlr6ac9mijx,K6xpwZWS,2020-0188,2021-10-14,10:41:33,12:21:23,NA,incomplete,false,NA,true,6,3,NA,NA,NA,left,absent,NA,NA,m_s_116.jpg,blue,m_s_079.jpg,blue,within,NA,NaN,NA,left,1630,1,3,2196
K6xpwZWS,3mdwe879vkfdd3966pwqlqs2jwg9bh,3p4rdnwnd9jet7yfpdkmlr6ac9mijx,K6xpwZWS,2020-0188,2021-10-14,10:41:33,12:21:23,NA,incomplete,false,NA,true,6,4,NA,NA,NA,left,absent,NA,NA,m_l_084.jpg,yellow,m_l_060.jpg,brown,between,NA,NaN,NA,left,2155,1,3,985
K6xpwZWS,3mdwe879vkfdd3966pwqlqs2jwg9bh,3p4rdnwnd9jet7yfpdkmlr6ac9mijx,K6xpwZWS,2020-0188,2021-10-14,10:41:33,12:21:23,NA,incomplete,false,NA,true,6,5,NA,NA,NA,left,absent,NA,NA,n_s_020.jpg,blue,m_s_065.jpg,white,between,NA,NaN,NA,right,1950,0,3,877
K6xpwZWS,3mdwe879vkfdd3966pwqlqs2jwg9bh,3p4rdnwnd9jet7yfpdkmlr6ac9mijx,K6xpwZWS,2020-0188,2021-10-14,10:41:33,12:21:23,NA,incomplete,false,NA,true,6,6,NA,NA,NA,right,absent,NA,NA,n_l_012.jpg,brown,m_s_049.jpg,brown,within,NA,NaN,NA,left,1071,0,3,787
K6xpwZWS,3mdwe879vkfdd3966pwqlqs2jwg9bh,3p4rdnwnd9jet7yfpdkmlr6ac9mijx,K6xpwZWS,2020-0188,2021-10-14,10:41:33,12:21:23,NA,incomplete,false,NA,true,6,7,NA,NA,NA,right,absent,NA,NA,m_s_033.jpg,orange,m_l_074.jpg,orange,within,NA,NaN,NA,right,1807,1,3,1023
K6xpwZWS,3mdwe879vkfdd3966pwqlqs2jwg9bh,3p4rdnwnd9jet7yfpdkmlr6ac9mijx,K6xpwZWS,2020-0188,2021-10-14,10:41:33,12:21:23,NA,incomplete,false,NA,true,6,8,NA,NA,NA,right,absent,NA,NA,m_s_053.jpg,gray,n_l_065.jpg,gray,within,NA,NaN,NA,left,1289,0,3,1719
K6xpwZWS,3mdwe879vkfdd3966pwqlqs2jwg9bh,3p4rdnwnd9jet7yfpdkmlr6ac9mijx,K6xpwZWS,2020-0188,2021-10-14,10:41:33,12:21:23,NA,incomplete,false,NA,true,6,9,NA,NA,NA,left,absent,NA,NA,n_l_014.jpg,orange,m_l_078.jpg,yellow,between,NA,NaN,NA,right,2100,0,3,929
K6xpwZWS,3mdwe879vkfdd3966pwqlqs2jwg9bh,3p4rdnwnd9jet7yfpdkmlr6ac9mijx,K6xpwZWS,2020-0188,2021-10-14,10:41:33,12:21:23,NA,incomplete,false,NA,true,6,10,NA,NA,NA,left,absent,NA,NA,n_s_083.jpg,white,n_l_036.jpg,white,within,NA,NaN,NA,left,1460,1,3,736
K6xpwZWS,3mdwe879vkfdd3966pwqlqs2jwg9bh,3p4rdnwnd9jet7yfpdkmlr6ac9mijx,K6xpwZWS,2020-0188,2021-10-14,10:41:33,12:21:23,NA,incomplete,false,true,NA,7,0,NA,gray,n_s_044.jpg,NA,NA,pleasant,unpleasant,NA,NA,NA,NA,NA,left,2511,true,NA,NA,NA,NA,NA
K6xpwZWS,3mdwe879vkfdd3966pwqlqs2jwg9bh,3p4rdnwnd9jet7yfpdkmlr6ac9mijx,K6xpwZWS,2020-0188,2021-10-14,10:41:33,12:21:23,NA,incomplete,false,true,NA,7,1,NA,gray,m_s_032.jpg,NA,NA,pleasant,unpleasant,NA,NA,NA,NA,NA,none,0,false,NA,NA,NA,NA,NA
K6xpwZWS,3mdwe879vkfdd3966pwqlqs2jwg9bh,3p4rdnwnd9jet7yfpdkmlr6ac9mijx,K6xpwZWS,2020-0188,2021-10-14,10:41:33,12:21:23,NA,incomplete,false,true,NA,7,2,NA,gray,n_s_101.jpg,NA,NA,unpleasant,pleasant,NA,NA,NA,NA,NA,none,0,false,NA,NA,NA,NA,NA
K6xpwZWS,3mdwe879vkfdd3966pwqlqs2jwg9bh,3p4rdnwnd9jet7yfpdkmlr6ac9mijx,K6xpwZWS,2020-0188,2021-10-14,10:41:33,12:21:23,NA,incomplete,false,true,NA,7,3,NA,gray,m_l_033.jpg,NA,NA,unpleasant,pleasant,NA,NA,NA,NA,NA,left,864,true,NA,NA,NA,NA,NA
K6xpwZWS,3mdwe879vkfdd3966pwqlqs2jwg9bh,3p4rdnwnd9jet7yfpdkmlr6ac9mijx,K6xpwZWS,2020-0188,2021-10-14,10:41:33,12:21:23,NA,incomplete,false,true,NA,7,4,NA,gray,n_s_039.jpg,NA,NA,unpleasant,pleasant,NA,NA,NA,NA,NA,right,1374,true,NA,NA,NA,NA,NA
K6xpwZWS,3mdwe879vkfdd3966pwqlqs2jwg9bh,3p4rdnwnd9jet7yfpdkmlr6ac9mijx,K6xpwZWS,2020-0188,2021-10-14,10:41:33,12:21:23,NA,incomplete,false,true,NA,7,5,NA,gray,n_l_050.jpg,NA,NA,unpleasant,pleasant,NA,NA,NA,NA,NA,right,1805,true,NA,NA,NA,NA,NA
K6xpwZWS,3mdwe879vkfdd3966pwqlqs2jwg9bh,3p4rdnwnd9jet7yfpdkmlr6ac9mijx,K6xpwZWS,2020-0188,2021-10-14,10:41:33,12:21:23,NA,incomplete,false,true,NA,7,6,NA,brown,n_s_022.jpg,NA,NA,pleasant,unpleasant,NA,NA,NA,NA,NA,none,0,false,NA,NA,NA,NA,NA
K6xpwZWS,3mdwe879vkfdd3966pwqlqs2jwg9bh,3p4rdnwnd9jet7yfpdkmlr6ac9mijx,K6xpwZWS,2020-0188,2021-10-14,10:41:33,12:21:23,NA,incomplete,false,true,NA,7,7,NA,brown,n_s_105.jpg,NA,NA,pleasant,unpleasant,NA,NA,NA,NA,NA,none,0,false,NA,NA,NA,NA,NA
K6xpwZWS,3mdwe879vkfdd3966pwqlqs2jwg9bh,3p4rdnwnd9jet7yfpdkmlr6ac9mijx,K6xpwZWS,2020-0188,2021-10-14,10:41:33,12:21:23,NA,incomplete,false,true,NA,7,8,NA,brown,n_l_023.jpg,NA,NA,pleasant,unpleasant,NA,NA,NA,NA,NA,left,1058,true,NA,NA,NA,NA,NA
K6xpwZWS,3mdwe879vkfdd3966pwqlqs2jwg9bh,3p4rdnwnd9jet7yfpdkmlr6ac9mijx,K6xpwZWS,2020-0188,2021-10-14,10:41:33,12:21:23,NA,incomplete,false,true,NA,7,9,NA,brown,m_s_071.jpg,NA,NA,unpleasant,pleasant,NA,NA,NA,NA,NA,right,1628,true,NA,NA,NA,NA,NA
K6xpwZWS,3mdwe879vkfdd3966pwqlqs2jwg9bh,3p4rdnwnd9jet7yfpdkmlr6ac9mijx,K6xpwZWS,2020-0188,2021-10-14,10:41:33,12:21:23,NA,incomplete,false,true,NA,7,10,NA,brown,m_s_088.jpg,NA,NA,pleasant,unpleasant,NA,NA,NA,NA,NA,right,1900,true,NA,NA,NA,NA,NA
K6xpwZWS,3mdwe879vkfdd3966pwqlqs2jwg9bh,3p4rdnwnd9jet7yfpdkmlr6ac9mijx,K6xpwZWS,2020-0188,2021-10-14,10:41:33,12:21:23,NA,incomplete,false,true,NA,7,11,NA,brown,m_l_035.jpg,NA,NA,pleasant,unpleasant,NA,NA,NA,NA,NA,right,2887,true,NA,NA,NA,NA,NA
K6xpwZWS,3mdwe879vkfdd3966pwqlqs2jwg9bh,3p4rdnwnd9jet7yfpdkmlr6ac9mijx,K6xpwZWS,2020-0188,2021-10-14,10:41:33,12:21:23,NA,incomplete,false,true,NA,7,12,NA,orange,m_s_102.jpg,NA,NA,unpleasant,pleasant,NA,NA,NA,NA,NA,right,1106,true,NA,NA,NA,NA,NA
K6xpwZWS,3mdwe879vkfdd3966pwqlqs2jwg9bh,3p4rdnwnd9jet7yfpdkmlr6ac9mijx,K6xpwZWS,2020-0188,2021-10-14,10:41:33,12:21:23,NA,incomplete,false,true,NA,7,13,NA,orange,m_l_052.jpg,NA,NA,pleasant,unpleasant,NA,NA,NA,NA,NA,left,2639,true,NA,NA,NA,NA,NA
K6xpwZWS,3mdwe879vkfdd3966pwqlqs2jwg9bh,3p4rdnwnd9jet7yfpdkmlr6ac9mijx,K6xpwZWS,2020-0188,2021-10-14,10:41:33,12:21:23,NA,incomplete,false,true,NA,7,14,NA,orange,m_s_095.jpg,NA,NA,pleasant,unpleasant,NA,NA,NA,NA,NA,left,1472,true,NA,NA,NA,NA,NA
K6xpwZWS,3mdwe879vkfdd3966pwqlqs2jwg9bh,3p4rdnwnd9jet7yfpdkmlr6ac9mijx,K6xpwZWS,2020-0188,2021-10-14,10:41:33,12:21:23,NA,incomplete,false,true,NA,7,15,NA,orange,n_l_008.jpg,NA,NA,pleasant,unpleasant,NA,NA,NA,NA,NA,right,1053,true,NA,NA,NA,NA,NA
K6xpwZWS,3mdwe879vkfdd3966pwqlqs2jwg9bh,3p4rdnwnd9jet7yfpdkmlr6ac9mijx,K6xpwZWS,2020-0188,2021-10-14,10:41:33,12:21:23,NA,incomplete,false,true,NA,7,16,NA,orange,n_l_005.jpg,NA,NA,pleasant,unpleasant,NA,NA,NA,NA,NA,left,1511,true,NA,NA,NA,NA,NA
K6xpwZWS,3mdwe879vkfdd3966pwqlqs2jwg9bh,3p4rdnwnd9jet7yfpdkmlr6ac9mijx,K6xpwZWS,2020-0188,2021-10-14,10:41:33,12:21:23,NA,incomplete,false,true,NA,7,17,NA,orange,m_l_116.jpg,NA,NA,pleasant,unpleasant,NA,NA,NA,NA,NA,left,1765,true,NA,NA,NA,NA,NA
K6xpwZWS,3mdwe879vkfdd3966pwqlqs2jwg9bh,3p4rdnwnd9jet7yfpdkmlr6ac9mijx,K6xpwZWS,2020-0188,2021-10-14,10:41:33,12:21:23,NA,incomplete,false,true,NA,7,18,NA,green,m_l_096.jpg,NA,NA,unpleasant,pleasant,NA,NA,NA,NA,NA,right,1355,true,NA,NA,NA,NA,NA
K6xpwZWS,3mdwe879vkfdd3966pwqlqs2jwg9bh,3p4rdnwnd9jet7yfpdkmlr6ac9mijx,K6xpwZWS,2020-0188,2021-10-14,10:41:33,12:21:23,NA,incomplete,false,true,NA,7,19,NA,green,m_s_068.jpg,NA,NA,pleasant,unpleasant,NA,NA,NA,NA,NA,right,1364,true,NA,NA,NA,NA,NA
K6xpwZWS,3mdwe879vkfdd3966pwqlqs2jwg9bh,3p4rdnwnd9jet7yfpdkmlr6ac9mijx,K6xpwZWS,2020-0188,2021-10-14,10:41:33,12:21:23,NA,incomplete,false,true,NA,7,20,NA,green,n_s_069.jpg,NA,NA,pleasant,unpleasant,NA,NA,NA,NA,NA,left,1375,true,NA,NA,NA,NA,NA
K6xpwZWS,3mdwe879vkfdd3966pwqlqs2jwg9bh,3p4rdnwnd9jet7yfpdkmlr6ac9mijx,K6xpwZWS,2020-0188,2021-10-14,10:41:33,12:21:23,NA,incomplete,false,true,NA,7,21,NA,green,m_s_025.jpg,NA,NA,unpleasant,pleasant,NA,NA,NA,NA,NA,right,1934,true,NA,NA,NA,NA,NA
K6xpwZWS,3mdwe879vkfdd3966pwqlqs2jwg9bh,3p4rdnwnd9jet7yfpdkmlr6ac9mijx,K6xpwZWS,2020-0188,2021-10-14,10:41:33,12:21:23,NA,incomplete,false,true,NA,7,22,NA,green,m_s_059.jpg,NA,NA,unpleasant,pleasant,NA,NA,NA,NA,NA,right,2262,true,NA,NA,NA,NA,NA
K6xpwZWS,3mdwe879vkfdd3966pwqlqs2jwg9bh,3p4rdnwnd9jet7yfpdkmlr6ac9mijx,K6xpwZWS,2020-0188,2021-10-14,10:41:33,12:21:23,NA,incomplete,false,true,NA,7,23,NA,green,m_s_018.jpg,NA,NA,unpleasant,pleasant,NA,NA,NA,NA,NA,right,1649,true,NA,NA,NA,NA,NA
K6xpwZWS,3mdwe879vkfdd3966pwqlqs2jwg9bh,3p4rdnwnd9jet7yfpdkmlr6ac9mijx,K6xpwZWS,2020-0188,2021-10-14,10:41:33,12:21:23,NA,incomplete,false,true,NA,7,24,NA,black,m_s_111.jpg,NA,NA,pleasant,unpleasant,NA,NA,NA,NA,NA,right,1703,true,NA,NA,NA,NA,NA
K6xpwZWS,3mdwe879vkfdd3966pwqlqs2jwg9bh,3p4rdnwnd9jet7yfpdkmlr6ac9mijx,K6xpwZWS,2020-0188,2021-10-14,10:41:33,12:21:23,NA,incomplete,false,true,NA,7,25,NA,black,m_l_080.jpg,NA,NA,pleasant,unpleasant,NA,NA,NA,NA,NA,left,1785,true,NA,NA,NA,NA,NA
K6xpwZWS,3mdwe879vkfdd3966pwqlqs2jwg9bh,3p4rdnwnd9jet7yfpdkmlr6ac9mijx,K6xpwZWS,2020-0188,2021-10-14,10:41:33,12:21:23,NA,incomplete,false,true,NA,7,26,NA,black,n_l_067.jpg,NA,NA,unpleasant,pleasant,NA,NA,NA,NA,NA,right,1429,true,NA,NA,NA,NA,NA
K6xpwZWS,3mdwe879vkfdd3966pwqlqs2jwg9bh,3p4rdnwnd9jet7yfpdkmlr6ac9mijx,K6xpwZWS,2020-0188,2021-10-14,10:41:33,12:21:23,NA,incomplete,false,true,NA,7,27,NA,black,m_s_057.jpg,NA,NA,pleasant,unpleasant,NA,NA,NA,NA,NA,right,2731,true,NA,NA,NA,NA,NA
K6xpwZWS,3mdwe879vkfdd3966pwqlqs2jwg9bh,3p4rdnwnd9jet7yfpdkmlr6ac9mijx,K6xpwZWS,2020-0188,2021-10-14,10:41:33,12:21:23,NA,incomplete,false,true,NA,7,28,NA,black,m_l_075.jpg,NA,NA,pleasant,unpleasant,NA,NA,NA,NA,NA,left,1717,true,NA,NA,NA,NA,NA
K6xpwZWS,3mdwe879vkfdd3966pwqlqs2jwg9bh,3p4rdnwnd9jet7yfpdkmlr6ac9mijx,K6xpwZWS,2020-0188,2021-10-14,10:41:33,12:21:23,NA,incomplete,false,true,NA,7,29,NA,black,n_l_048.jpg,NA,NA,pleasant,unpleasant,NA,NA,NA,NA,NA,right,1777,true,NA,NA,NA,NA,NA
K6xpwZWS,3mdwe879vkfdd3966pwqlqs2jwg9bh,3p4rdnwnd9jet7yfpdkmlr6ac9mijx,K6xpwZWS,2020-0188,2021-10-14,10:41:33,12:21:23,NA,incomplete,false,true,NA,7,30,NA,red,m_l_026.jpg,NA,NA,pleasant,unpleasant,NA,NA,NA,NA,NA,left,1339,true,NA,NA,NA,NA,NA
K6xpwZWS,3mdwe879vkfdd3966pwqlqs2jwg9bh,3p4rdnwnd9jet7yfpdkmlr6ac9mijx,K6xpwZWS,2020-0188,2021-10-14,10:41:33,12:21:23,NA,incomplete,false,true,NA,7,31,NA,red,n_l_033.jpg,NA,NA,pleasant,unpleasant,NA,NA,NA,NA,NA,right,1702,true,NA,NA,NA,NA,NA
K6xpwZWS,3mdwe879vkfdd3966pwqlqs2jwg9bh,3p4rdnwnd9jet7yfpdkmlr6ac9mijx,K6xpwZWS,2020-0188,2021-10-14,10:41:33,12:21:23,NA,incomplete,false,true,NA,7,32,NA,red,n_s_070.jpg,NA,NA,pleasant,unpleasant,NA,NA,NA,NA,NA,left,1829,true,NA,NA,NA,NA,NA
K6xpwZWS,3mdwe879vkfdd3966pwqlqs2jwg9bh,3p4rdnwnd9jet7yfpdkmlr6ac9mijx,K6xpwZWS,2020-0188,2021-10-14,10:41:33,12:21:23,NA,incomplete,false,true,NA,7,33,NA,red,m_s_114.jpg,NA,NA,unpleasant,pleasant,NA,NA,NA,NA,NA,right,2101,true,NA,NA,NA,NA,NA
K6xpwZWS,3mdwe879vkfdd3966pwqlqs2jwg9bh,3p4rdnwnd9jet7yfpdkmlr6ac9mijx,K6xpwZWS,2020-0188,2021-10-14,10:41:33,12:21:23,NA,incomplete,false,true,NA,7,34,NA,red,n_l_058.jpg,NA,NA,unpleasant,pleasant,NA,NA,NA,NA,NA,left,2027,true,NA,NA,NA,NA,NA
K6xpwZWS,3mdwe879vkfdd3966pwqlqs2jwg9bh,3p4rdnwnd9jet7yfpdkmlr6ac9mijx,K6xpwZWS,2020-0188,2021-10-14,10:41:33,12:21:23,NA,incomplete,false,true,NA,7,35,NA,red,n_l_104.jpg,NA,NA,unpleasant,pleasant,NA,NA,NA,NA,NA,left,1921,true,NA,NA,NA,NA,NA
K6xpwZWS,3mdwe879vkfdd3966pwqlqs2jwg9bh,3p4rdnwnd9jet7yfpdkmlr6ac9mijx,K6xpwZWS,2020-0188,2021-10-14,10:41:33,12:21:23,NA,incomplete,false,NA,true,7,0,NA,NA,NA,right,present,NA,NA,n_l_023.jpg,brown,n_s_039.jpg,gray,between,NA,NaN,NA,right,4877,1,0,5063
K6xpwZWS,3mdwe879vkfdd3966pwqlqs2jwg9bh,3p4rdnwnd9jet7yfpdkmlr6ac9mijx,K6xpwZWS,2020-0188,2021-10-14,10:41:33,12:21:23,NA,incomplete,false,NA,true,7,1,NA,NA,NA,left,present,NA,NA,m_l_075.jpg,black,n_s_070.jpg,red,between,NA,NaN,NA,left,6538,1,0,1987
K6xpwZWS,3mdwe879vkfdd3966pwqlqs2jwg9bh,3p4rdnwnd9jet7yfpdkmlr6ac9mijx,K6xpwZWS,2020-0188,2021-10-14,10:41:33,12:21:23,NA,incomplete,false,NA,true,7,2,NA,NA,NA,right,present,NA,NA,m_l_116.jpg,orange,m_l_052.jpg,orange,within,NA,NaN,NA,right,3904,1,0,1751
K6xpwZWS,3mdwe879vkfdd3966pwqlqs2jwg9bh,3p4rdnwnd9jet7yfpdkmlr6ac9mijx,K6xpwZWS,2020-0188,2021-10-14,10:41:33,12:21:23,NA,incomplete,false,NA,true,7,3,NA,NA,NA,left,present,NA,NA,n_l_033.jpg,red,n_l_104.jpg,red,within,NA,NaN,NA,right,5090,0,0,1429
K6xpwZWS,3mdwe879vkfdd3966pwqlqs2jwg9bh,3p4rdnwnd9jet7yfpdkmlr6ac9mijx,K6xpwZWS,2020-0188,2021-10-14,10:41:33,12:21:23,NA,incomplete,false,NA,true,7,4,NA,NA,NA,left,present,NA,NA,n_s_105.jpg,brown,m_l_035.jpg,brown,within,NA,NaN,NA,right,3415,0,0,1958
K6xpwZWS,3mdwe879vkfdd3966pwqlqs2jwg9bh,3p4rdnwnd9jet7yfpdkmlr6ac9mijx,K6xpwZWS,2020-0188,2021-10-14,10:41:33,12:21:23,NA,incomplete,false,NA,true,7,5,NA,NA,NA,right,present,NA,NA,n_l_067.jpg,black,m_s_059.jpg,green,between,NA,NaN,NA,right,3230,1,0,2812
K6xpwZWS,3mdwe879vkfdd3966pwqlqs2jwg9bh,3p4rdnwnd9jet7yfpdkmlr6ac9mijx,K6xpwZWS,2020-0188,2021-10-14,10:41:33,12:21:23,NA,incomplete,false,NA,true,7,6,NA,NA,NA,left,present,NA,NA,m_s_088.jpg,brown,m_s_095.jpg,orange,between,NA,NaN,NA,left,3077,1,0,1906
K6xpwZWS,3mdwe879vkfdd3966pwqlqs2jwg9bh,3p4rdnwnd9jet7yfpdkmlr6ac9mijx,K6xpwZWS,2020-0188,2021-10-14,10:41:33,12:21:23,NA,incomplete,false,NA,true,7,7,NA,NA,NA,left,present,NA,NA,m_s_032.jpg,gray,n_l_050.jpg,gray,within,NA,NaN,NA,right,3272,0,0,1865
K6xpwZWS,3mdwe879vkfdd3966pwqlqs2jwg9bh,3p4rdnwnd9jet7yfpdkmlr6ac9mijx,K6xpwZWS,2020-0188,2021-10-14,10:41:33,12:21:23,NA,incomplete,false,NA,true,7,8,NA,NA,NA,left,present,NA,NA,m_l_080.jpg,black,n_l_048.jpg,black,within,NA,NaN,NA,left,2373,1,0,2214
K6xpwZWS,3mdwe879vkfdd3966pwqlqs2jwg9bh,3p4rdnwnd9jet7yfpdkmlr6ac9mijx,K6xpwZWS,2020-0188,2021-10-14,10:41:33,12:21:23,NA,incomplete,false,NA,true,7,9,NA,NA,NA,right,present,NA,NA,n_s_069.jpg,green,n_l_005.jpg,orange,between,NA,NaN,NA,right,4606,1,0,2724
K6xpwZWS,3mdwe879vkfdd3966pwqlqs2jwg9bh,3p4rdnwnd9jet7yfpdkmlr6ac9mijx,K6xpwZWS,2020-0188,2021-10-14,10:41:33,12:21:23,NA,incomplete,false,NA,true,7,10,NA,NA,NA,left,present,NA,NA,m_s_068.jpg,green,m_s_018.jpg,green,within,NA,NaN,NA,left,4218,1,0,4242
K6xpwZWS,3mdwe879vkfdd3966pwqlqs2jwg9bh,3p4rdnwnd9jet7yfpdkmlr6ac9mijx,K6xpwZWS,2020-0188,2021-10-14,10:41:33,12:21:23,NA,incomplete,false,true,NA,8,0,NA,gray,n_l_011.jpg,NA,NA,pleasant,unpleasant,NA,NA,NA,NA,NA,right,3462,true,NA,NA,NA,NA,NA
K6xpwZWS,3mdwe879vkfdd3966pwqlqs2jwg9bh,3p4rdnwnd9jet7yfpdkmlr6ac9mijx,K6xpwZWS,2020-0188,2021-10-14,10:41:33,12:21:23,NA,incomplete,false,true,NA,8,1,NA,gray,m_s_107.jpg,NA,NA,pleasant,unpleasant,NA,NA,NA,NA,NA,right,2302,true,NA,NA,NA,NA,NA
K6xpwZWS,3mdwe879vkfdd3966pwqlqs2jwg9bh,3p4rdnwnd9jet7yfpdkmlr6ac9mijx,K6xpwZWS,2020-0188,2021-10-14,10:41:33,12:21:23,NA,incomplete,false,true,NA,8,2,NA,gray,m_l_047.jpg,NA,NA,unpleasant,pleasant,NA,NA,NA,NA,NA,left,1756,true,NA,NA,NA,NA,NA
K6xpwZWS,3mdwe879vkfdd3966pwqlqs2jwg9bh,3p4rdnwnd9jet7yfpdkmlr6ac9mijx,K6xpwZWS,2020-0188,2021-10-14,10:41:33,12:21:23,NA,incomplete,false,true,NA,8,3,NA,gray,n_l_039.jpg,NA,NA,pleasant,unpleasant,NA,NA,NA,NA,NA,right,1383,true,NA,NA,NA,NA,NA
K6xpwZWS,3mdwe879vkfdd3966pwqlqs2jwg9bh,3p4rdnwnd9jet7yfpdkmlr6ac9mijx,K6xpwZWS,2020-0188,2021-10-14,10:41:33,12:21:23,NA,incomplete,false,true,NA,8,4,NA,gray,m_l_085.jpg,NA,NA,unpleasant,pleasant,NA,NA,NA,NA,NA,right,1990,true,NA,NA,NA,NA,NA
K6xpwZWS,3mdwe879vkfdd3966pwqlqs2jwg9bh,3p4rdnwnd9jet7yfpdkmlr6ac9mijx,K6xpwZWS,2020-0188,2021-10-14,10:41:33,12:21:23,NA,incomplete,false,true,NA,8,5,NA,gray,n_l_100.jpg,NA,NA,unpleasant,pleasant,NA,NA,NA,NA,NA,right,2782,true,NA,NA,NA,NA,NA
K6xpwZWS,3mdwe879vkfdd3966pwqlqs2jwg9bh,3p4rdnwnd9jet7yfpdkmlr6ac9mijx,K6xpwZWS,2020-0188,2021-10-14,10:41:33,12:21:23,NA,incomplete,false,true,NA,8,6,NA,yellow,n_l_059.jpg,NA,NA,pleasant,unpleasant,NA,NA,NA,NA,NA,right,1413,true,NA,NA,NA,NA,NA
K6xpwZWS,3mdwe879vkfdd3966pwqlqs2jwg9bh,3p4rdnwnd9jet7yfpdkmlr6ac9mijx,K6xpwZWS,2020-0188,2021-10-14,10:41:33,12:21:23,NA,incomplete,false,true,NA,8,7,NA,yellow,m_s_110.jpg,NA,NA,pleasant,unpleasant,NA,NA,NA,NA,NA,left,1917,true,NA,NA,NA,NA,NA
K6xpwZWS,3mdwe879vkfdd3966pwqlqs2jwg9bh,3p4rdnwnd9jet7yfpdkmlr6ac9mijx,K6xpwZWS,2020-0188,2021-10-14,10:41:33,12:21:23,NA,incomplete,false,true,NA,8,8,NA,yellow,n_s_099.jpg,NA,NA,pleasant,unpleasant,NA,NA,NA,NA,NA,left,1401,true,NA,NA,NA,NA,NA
K6xpwZWS,3mdwe879vkfdd3966pwqlqs2jwg9bh,3p4rdnwnd9jet7yfpdkmlr6ac9mijx,K6xpwZWS,2020-0188,2021-10-14,10:41:33,12:21:23,NA,incomplete,false,true,NA,8,9,NA,yellow,n_s_076.jpg,NA,NA,pleasant,unpleasant,NA,NA,NA,NA,NA,left,1727,true,NA,NA,NA,NA,NA
K6xpwZWS,3mdwe879vkfdd3966pwqlqs2jwg9bh,3p4rdnwnd9jet7yfpdkmlr6ac9mijx,K6xpwZWS,2020-0188,2021-10-14,10:41:33,12:21:23,NA,incomplete,false,true,NA,8,10,NA,yellow,n_s_024.jpg,NA,NA,pleasant,unpleasant,NA,NA,NA,NA,NA,right,1578,true,NA,NA,NA,NA,NA
K6xpwZWS,3mdwe879vkfdd3966pwqlqs2jwg9bh,3p4rdnwnd9jet7yfpdkmlr6ac9mijx,K6xpwZWS,2020-0188,2021-10-14,10:41:33,12:21:23,NA,incomplete,false,true,NA,8,11,NA,yellow,n_l_071.jpg,NA,NA,pleasant,unpleasant,NA,NA,NA,NA,NA,left,1845,true,NA,NA,NA,NA,NA
K6xpwZWS,3mdwe879vkfdd3966pwqlqs2jwg9bh,3p4rdnwnd9jet7yfpdkmlr6ac9mijx,K6xpwZWS,2020-0188,2021-10-14,10:41:33,12:21:23,NA,incomplete,false,true,NA,8,12,NA,brown,m_s_039.jpg,NA,NA,pleasant,unpleasant,NA,NA,NA,NA,NA,left,2152,true,NA,NA,NA,NA,NA
K6xpwZWS,3mdwe879vkfdd3966pwqlqs2jwg9bh,3p4rdnwnd9jet7yfpdkmlr6ac9mijx,K6xpwZWS,2020-0188,2021-10-14,10:41:33,12:21:23,NA,incomplete,false,true,NA,8,13,NA,brown,m_l_108.jpg,NA,NA,unpleasant,pleasant,NA,NA,NA,NA,NA,right,1669,true,NA,NA,NA,NA,NA
K6xpwZWS,3mdwe879vkfdd3966pwqlqs2jwg9bh,3p4rdnwnd9jet7yfpdkmlr6ac9mijx,K6xpwZWS,2020-0188,2021-10-14,10:41:33,12:21:23,NA,incomplete,false,true,NA,8,14,NA,brown,n_s_107.jpg,NA,NA,pleasant,unpleasant,NA,NA,NA,NA,NA,left,1949,true,NA,NA,NA,NA,NA
K6xpwZWS,3mdwe879vkfdd3966pwqlqs2jwg9bh,3p4rdnwnd9jet7yfpdkmlr6ac9mijx,K6xpwZWS,2020-0188,2021-10-14,10:41:33,12:21:23,NA,incomplete,false,true,NA,8,15,NA,brown,m_s_012.jpg,NA,NA,unpleasant,pleasant,NA,NA,NA,NA,NA,right,1263,true,NA,NA,NA,NA,NA
K6xpwZWS,3mdwe879vkfdd3966pwqlqs2jwg9bh,3p4rdnwnd9jet7yfpdkmlr6ac9mijx,K6xpwZWS,2020-0188,2021-10-14,10:41:33,12:21:23,NA,incomplete,false,true,NA,8,16,NA,brown,m_s_008.jpg,NA,NA,unpleasant,pleasant,NA,NA,NA,NA,NA,right,2201,true,NA,NA,NA,NA,NA
K6xpwZWS,3mdwe879vkfdd3966pwqlqs2jwg9bh,3p4rdnwnd9jet7yfpdkmlr6ac9mijx,K6xpwZWS,2020-0188,2021-10-14,10:41:33,12:21:23,NA,incomplete,false,true,NA,8,17,NA,brown,n_s_091.jpg,NA,NA,unpleasant,pleasant,NA,NA,NA,NA,NA,left,1277,true,NA,NA,NA,NA,NA
K6xpwZWS,3mdwe879vkfdd3966pwqlqs2jwg9bh,3p4rdnwnd9jet7yfpdkmlr6ac9mijx,K6xpwZWS,2020-0188,2021-10-14,10:41:33,12:21:23,NA,incomplete,false,true,NA,8,18,NA,blue,m_l_114.jpg,NA,NA,unpleasant,pleasant,NA,NA,NA,NA,NA,right,1509,true,NA,NA,NA,NA,NA
K6xpwZWS,3mdwe879vkfdd3966pwqlqs2jwg9bh,3p4rdnwnd9jet7yfpdkmlr6ac9mijx,K6xpwZWS,2020-0188,2021-10-14,10:41:33,12:21:23,NA,incomplete,false,true,NA,8,19,NA,blue,m_s_003.jpg,NA,NA,unpleasant,pleasant,NA,NA,NA,NA,NA,right,1452,true,NA,NA,NA,NA,NA
K6xpwZWS,3mdwe879vkfdd3966pwqlqs2jwg9bh,3p4rdnwnd9jet7yfpdkmlr6ac9mijx,K6xpwZWS,2020-0188,2021-10-14,10:41:33,12:21:23,NA,incomplete,false,true,NA,8,20,NA,blue,m_s_080.jpg,NA,NA,pleasant,unpleasant,NA,NA,NA,NA,NA,left,2379,true,NA,NA,NA,NA,NA
K6xpwZWS,3mdwe879vkfdd3966pwqlqs2jwg9bh,3p4rdnwnd9jet7yfpdkmlr6ac9mijx,K6xpwZWS,2020-0188,2021-10-14,10:41:33,12:21:23,NA,incomplete,false,true,NA,8,21,NA,blue,n_s_023.jpg,NA,NA,unpleasant,pleasant,NA,NA,NA,NA,NA,right,1919,true,NA,NA,NA,NA,NA
K6xpwZWS,3mdwe879vkfdd3966pwqlqs2jwg9bh,3p4rdnwnd9jet7yfpdkmlr6ac9mijx,K6xpwZWS,2020-0188,2021-10-14,10:41:33,12:21:23,NA,incomplete,false,true,NA,8,22,NA,blue,m_s_017.jpg,NA,NA,pleasant,unpleasant,NA,NA,NA,NA,NA,right,2233,true,NA,NA,NA,NA,NA
K6xpwZWS,3mdwe879vkfdd3966pwqlqs2jwg9bh,3p4rdnwnd9jet7yfpdkmlr6ac9mijx,K6xpwZWS,2020-0188,2021-10-14,10:41:33,12:21:23,NA,incomplete,false,true,NA,8,23,NA,blue,m_s_094.jpg,NA,NA,pleasant,unpleasant,NA,NA,NA,NA,NA,left,1708,true,NA,NA,NA,NA,NA
K6xpwZWS,3mdwe879vkfdd3966pwqlqs2jwg9bh,3p4rdnwnd9jet7yfpdkmlr6ac9mijx,K6xpwZWS,2020-0188,2021-10-14,10:41:33,12:21:23,NA,incomplete,false,true,NA,8,24,NA,orange,n_s_060.jpg,NA,NA,pleasant,unpleasant,NA,NA,NA,NA,NA,left,1771,true,NA,NA,NA,NA,NA
K6xpwZWS,3mdwe879vkfdd3966pwqlqs2jwg9bh,3p4rdnwnd9jet7yfpdkmlr6ac9mijx,K6xpwZWS,2020-0188,2021-10-14,10:41:33,12:21:23,NA,incomplete,false,true,NA,8,25,NA,orange,m_l_092.jpg,NA,NA,pleasant,unpleasant,NA,NA,NA,NA,NA,left,1586,true,NA,NA,NA,NA,NA
K6xpwZWS,3mdwe879vkfdd3966pwqlqs2jwg9bh,3p4rdnwnd9jet7yfpdkmlr6ac9mijx,K6xpwZWS,2020-0188,2021-10-14,10:41:33,12:21:23,NA,incomplete,false,true,NA,8,26,NA,orange,n_s_032.jpg,NA,NA,pleasant,unpleasant,NA,NA,NA,NA,NA,left,1831,true,NA,NA,NA,NA,NA
K6xpwZWS,3mdwe879vkfdd3966pwqlqs2jwg9bh,3p4rdnwnd9jet7yfpdkmlr6ac9mijx,K6xpwZWS,2020-0188,2021-10-14,10:41:33,12:21:23,NA,incomplete,false,true,NA,8,27,NA,orange,n_l_046.jpg,NA,NA,pleasant,unpleasant,NA,NA,NA,NA,NA,right,1778,true,NA,NA,NA,NA,NA
K6xpwZWS,3mdwe879vkfdd3966pwqlqs2jwg9bh,3p4rdnwnd9jet7yfpdkmlr6ac9mijx,K6xpwZWS,2020-0188,2021-10-14,10:41:33,12:21:23,NA,incomplete,false,true,NA,8,28,NA,orange,n_l_103.jpg,NA,NA,pleasant,unpleasant,NA,NA,NA,NA,NA,right,2166,true,NA,NA,NA,NA,NA
