workerId,hitId,assignmentId,subject,studyid,exp_date,exp_start,exp_end,time_start,time_end,practice,encoding,memory,block,trial,event_order,event,stim,answer,context_type,label_left,label_right,left_image,left_event,right_image,right_event,condition,response,response_time,response_acc,order_response,order_response_time,order_acc,distance_response,distance_response_time
KDgsoCyK,3o4vwc1gfzjxgki2d88xs18tr9fj3v,3uxuoq9okia63uefcg3c13di88qa7r,KDgsoCyK,2020-0188,2021-10-14,14:04:15,15:05:14,NA,incomplete,true,true,NA,0,0,NA,orange,n_s_040.jpg,NA,NA,pleasant,unpleasant,NA,NA,NA,NA,NA,left,1295.59999999963,true,NA,NA,NA,NA,NA
KDgsoCyK,3o4vwc1gfzjxgki2d88xs18tr9fj3v,3uxuoq9okia63uefcg3c13di88qa7r,KDgsoCyK,2020-0188,2021-10-14,14:04:15,15:05:14,NA,incomplete,true,true,NA,0,1,NA,orange,m_s_044.jpg,NA,NA,unpleasant,pleasant,NA,NA,NA,NA,NA,left,1264.10000000009,true,NA,NA,NA,NA,NA
KDgsoCyK,3o4vwc1gfzjxgki2d88xs18tr9fj3v,3uxuoq9okia63uefcg3c13di88qa7r,KDgsoCyK,2020-0188,2021-10-14,14:04:15,15:05:14,NA,incomplete,true,true,NA,0,2,NA,orange,n_s_043.jpg,NA,NA,unpleasant,pleasant,NA,NA,NA,NA,NA,right,1504.5,true,NA,NA,NA,NA,NA
KDgsoCyK,3o4vwc1gfzjxgki2d88xs18tr9fj3v,3uxuoq9okia63uefcg3c13di88qa7r,KDgsoCyK,2020-0188,2021-10-14,14:04:15,15:05:14,NA,incomplete,true,true,NA,0,3,NA,orange,m_l_106.jpg,NA,NA,pleasant,unpleasant,NA,NA,NA,NA,NA,left,1456.5,true,NA,NA,NA,NA,NA
KDgsoCyK,3o4vwc1gfzjxgki2d88xs18tr9fj3v,3uxuoq9okia63uefcg3c13di88qa7r,KDgsoCyK,2020-0188,2021-10-14,14:04:15,15:05:14,NA,incomplete,true,true,NA,0,4,NA,orange,n_s_041.jpg,NA,NA,pleasant,unpleasant,NA,NA,NA,NA,NA,left,1409.29999999981,true,NA,NA,NA,NA,NA
KDgsoCyK,3o4vwc1gfzjxgki2d88xs18tr9fj3v,3uxuoq9okia63uefcg3c13di88qa7r,KDgsoCyK,2020-0188,2021-10-14,14:04:15,15:05:14,NA,incomplete,true,true,NA,0,5,NA,orange,n_s_056.jpg,NA,NA,unpleasant,pleasant,NA,NA,NA,NA,NA,right,1609.60000000009,true,NA,NA,NA,NA,NA
KDgsoCyK,3o4vwc1gfzjxgki2d88xs18tr9fj3v,3uxuoq9okia63uefcg3c13di88qa7r,KDgsoCyK,2020-0188,2021-10-14,14:04:15,15:05:14,NA,incomplete,true,true,NA,0,6,NA,gray,n_s_019.jpg,NA,NA,pleasant,unpleasant,NA,NA,NA,NA,NA,left,1442.39999999991,true,NA,NA,NA,NA,NA
KDgsoCyK,3o4vwc1gfzjxgki2d88xs18tr9fj3v,3uxuoq9okia63uefcg3c13di88qa7r,KDgsoCyK,2020-0188,2021-10-14,14:04:15,15:05:14,NA,incomplete,true,true,NA,0,7,NA,gray,m_s_018.jpg,NA,NA,pleasant,unpleasant,NA,NA,NA,NA,NA,left,1467.29999999981,true,NA,NA,NA,NA,NA
KDgsoCyK,3o4vwc1gfzjxgki2d88xs18tr9fj3v,3uxuoq9okia63uefcg3c13di88qa7r,KDgsoCyK,2020-0188,2021-10-14,14:04:15,15:05:14,NA,incomplete,true,true,NA,0,8,NA,gray,m_s_072.jpg,NA,NA,pleasant,unpleasant,NA,NA,NA,NA,NA,right,1387.5,true,NA,NA,NA,NA,NA
KDgsoCyK,3o4vwc1gfzjxgki2d88xs18tr9fj3v,3uxuoq9okia63uefcg3c13di88qa7r,KDgsoCyK,2020-0188,2021-10-14,14:04:15,15:05:14,NA,incomplete,true,true,NA,0,9,NA,gray,n_s_023.jpg,NA,NA,unpleasant,pleasant,NA,NA,NA,NA,NA,right,1571.5,true,NA,NA,NA,NA,NA
KDgsoCyK,3o4vwc1gfzjxgki2d88xs18tr9fj3v,3uxuoq9okia63uefcg3c13di88qa7r,KDgsoCyK,2020-0188,2021-10-14,14:04:15,15:05:14,NA,incomplete,true,true,NA,0,10,NA,gray,m_l_085.jpg,NA,NA,unpleasant,pleasant,NA,NA,NA,NA,NA,right,1227.60000000009,true,NA,NA,NA,NA,NA
KDgsoCyK,3o4vwc1gfzjxgki2d88xs18tr9fj3v,3uxuoq9okia63uefcg3c13di88qa7r,KDgsoCyK,2020-0188,2021-10-14,14:04:15,15:05:14,NA,incomplete,true,true,NA,0,11,NA,gray,n_s_071.jpg,NA,NA,pleasant,unpleasant,NA,NA,NA,NA,NA,left,1531.89999999991,true,NA,NA,NA,NA,NA
KDgsoCyK,3o4vwc1gfzjxgki2d88xs18tr9fj3v,3uxuoq9okia63uefcg3c13di88qa7r,KDgsoCyK,2020-0188,2021-10-14,14:04:15,15:05:14,NA,incomplete,true,true,NA,0,12,NA,yellow,m_s_053.jpg,NA,NA,unpleasant,pleasant,NA,NA,NA,NA,NA,left,1668.60000000009,true,NA,NA,NA,NA,NA
KDgsoCyK,3o4vwc1gfzjxgki2d88xs18tr9fj3v,3uxuoq9okia63uefcg3c13di88qa7r,KDgsoCyK,2020-0188,2021-10-14,14:04:15,15:05:14,NA,incomplete,true,true,NA,0,13,NA,yellow,n_s_092.jpg,NA,NA,pleasant,unpleasant,NA,NA,NA,NA,NA,left,1789.39999999991,true,NA,NA,NA,NA,NA
KDgsoCyK,3o4vwc1gfzjxgki2d88xs18tr9fj3v,3uxuoq9okia63uefcg3c13di88qa7r,KDgsoCyK,2020-0188,2021-10-14,14:04:15,15:05:14,NA,incomplete,true,true,NA,0,14,NA,yellow,n_l_086.jpg,NA,NA,pleasant,unpleasant,NA,NA,NA,NA,NA,left,1941.10000000009,true,NA,NA,NA,NA,NA
KDgsoCyK,3o4vwc1gfzjxgki2d88xs18tr9fj3v,3uxuoq9okia63uefcg3c13di88qa7r,KDgsoCyK,2020-0188,2021-10-14,14:04:15,15:05:14,NA,incomplete,true,true,NA,0,15,NA,yellow,n_s_058.jpg,NA,NA,unpleasant,pleasant,NA,NA,NA,NA,NA,left,1533.69999999972,true,NA,NA,NA,NA,NA
KDgsoCyK,3o4vwc1gfzjxgki2d88xs18tr9fj3v,3uxuoq9okia63uefcg3c13di88qa7r,KDgsoCyK,2020-0188,2021-10-14,14:04:15,15:05:14,NA,incomplete,true,true,NA,0,16,NA,yellow,n_s_089.jpg,NA,NA,pleasant,unpleasant,NA,NA,NA,NA,NA,right,1878.60000000009,true,NA,NA,NA,NA,NA
KDgsoCyK,3o4vwc1gfzjxgki2d88xs18tr9fj3v,3uxuoq9okia63uefcg3c13di88qa7r,KDgsoCyK,2020-0188,2021-10-14,14:04:15,15:05:14,NA,incomplete,true,true,NA,0,17,NA,yellow,n_l_034.jpg,NA,NA,unpleasant,pleasant,NA,NA,NA,NA,NA,left,1599,true,NA,NA,NA,NA,NA
KDgsoCyK,3o4vwc1gfzjxgki2d88xs18tr9fj3v,3uxuoq9okia63uefcg3c13di88qa7r,KDgsoCyK,2020-0188,2021-10-14,14:04:15,15:05:14,NA,incomplete,true,true,NA,0,18,NA,white,m_s_068.jpg,NA,NA,unpleasant,pleasant,NA,NA,NA,NA,NA,right,1751.59999999963,true,NA,NA,NA,NA,NA
KDgsoCyK,3o4vwc1gfzjxgki2d88xs18tr9fj3v,3uxuoq9okia63uefcg3c13di88qa7r,KDgsoCyK,2020-0188,2021-10-14,14:04:15,15:05:14,NA,incomplete,true,true,NA,0,19,NA,white,m_l_117.jpg,NA,NA,unpleasant,pleasant,NA,NA,NA,NA,NA,right,1312.5,true,NA,NA,NA,NA,NA
KDgsoCyK,3o4vwc1gfzjxgki2d88xs18tr9fj3v,3uxuoq9okia63uefcg3c13di88qa7r,KDgsoCyK,2020-0188,2021-10-14,14:04:15,15:05:14,NA,incomplete,true,true,NA,0,20,NA,white,m_s_086.jpg,NA,NA,unpleasant,pleasant,NA,NA,NA,NA,NA,right,1296.80000000028,true,NA,NA,NA,NA,NA
KDgsoCyK,3o4vwc1gfzjxgki2d88xs18tr9fj3v,3uxuoq9okia63uefcg3c13di88qa7r,KDgsoCyK,2020-0188,2021-10-14,14:04:15,15:05:14,NA,incomplete,true,true,NA,0,21,NA,white,n_s_117.jpg,NA,NA,pleasant,unpleasant,NA,NA,NA,NA,NA,right,1833.39999999991,true,NA,NA,NA,NA,NA
KDgsoCyK,3o4vwc1gfzjxgki2d88xs18tr9fj3v,3uxuoq9okia63uefcg3c13di88qa7r,KDgsoCyK,2020-0188,2021-10-14,14:04:15,15:05:14,NA,incomplete,true,true,NA,0,22,NA,white,m_l_073.jpg,NA,NA,unpleasant,pleasant,NA,NA,NA,NA,NA,right,1498.29999999981,true,NA,NA,NA,NA,NA
KDgsoCyK,3o4vwc1gfzjxgki2d88xs18tr9fj3v,3uxuoq9okia63uefcg3c13di88qa7r,KDgsoCyK,2020-0188,2021-10-14,14:04:15,15:05:14,NA,incomplete,true,true,NA,0,23,NA,white,n_s_018.jpg,NA,NA,unpleasant,pleasant,NA,NA,NA,NA,NA,right,1274.60000000009,true,NA,NA,NA,NA,NA
KDgsoCyK,3o4vwc1gfzjxgki2d88xs18tr9fj3v,3uxuoq9okia63uefcg3c13di88qa7r,KDgsoCyK,2020-0188,2021-10-14,14:04:15,15:05:14,NA,incomplete,true,true,NA,0,24,NA,black,m_s_081.jpg,NA,NA,pleasant,unpleasant,NA,NA,NA,NA,NA,left,1379.19999999972,true,NA,NA,NA,NA,NA
KDgsoCyK,3o4vwc1gfzjxgki2d88xs18tr9fj3v,3uxuoq9okia63uefcg3c13di88qa7r,KDgsoCyK,2020-0188,2021-10-14,14:04:15,15:05:14,NA,incomplete,true,true,NA,0,25,NA,black,m_l_105.jpg,NA,NA,pleasant,unpleasant,NA,NA,NA,NA,NA,left,1532.20000000019,true,NA,NA,NA,NA,NA
KDgsoCyK,3o4vwc1gfzjxgki2d88xs18tr9fj3v,3uxuoq9okia63uefcg3c13di88qa7r,KDgsoCyK,2020-0188,2021-10-14,14:04:15,15:05:14,NA,incomplete,true,true,NA,0,26,NA,black,m_s_061.jpg,NA,NA,unpleasant,pleasant,NA,NA,NA,NA,NA,right,1388.40000000037,true,NA,NA,NA,NA,NA
KDgsoCyK,3o4vwc1gfzjxgki2d88xs18tr9fj3v,3uxuoq9okia63uefcg3c13di88qa7r,KDgsoCyK,2020-0188,2021-10-14,14:04:15,15:05:14,NA,incomplete,true,true,NA,0,27,NA,black,n_l_013.jpg,NA,NA,pleasant,unpleasant,NA,NA,NA,NA,NA,left,1220.30000000028,true,NA,NA,NA,NA,NA
KDgsoCyK,3o4vwc1gfzjxgki2d88xs18tr9fj3v,3uxuoq9okia63uefcg3c13di88qa7r,KDgsoCyK,2020-0188,2021-10-14,14:04:15,15:05:14,NA,incomplete,true,true,NA,0,28,NA,black,n_s_008.jpg,NA,NA,pleasant,unpleasant,NA,NA,NA,NA,NA,left,1172.60000000009,true,NA,NA,NA,NA,NA
KDgsoCyK,3o4vwc1gfzjxgki2d88xs18tr9fj3v,3uxuoq9okia63uefcg3c13di88qa7r,KDgsoCyK,2020-0188,2021-10-14,14:04:15,15:05:14,NA,incomplete,true,true,NA,0,29,NA,black,n_s_093.jpg,NA,NA,pleasant,unpleasant,NA,NA,NA,NA,NA,right,1684.30000000028,true,NA,NA,NA,NA,NA
KDgsoCyK,3o4vwc1gfzjxgki2d88xs18tr9fj3v,3uxuoq9okia63uefcg3c13di88qa7r,KDgsoCyK,2020-0188,2021-10-14,14:04:15,15:05:14,NA,incomplete,true,true,NA,0,30,NA,red,m_s_030.jpg,NA,NA,unpleasant,pleasant,NA,NA,NA,NA,NA,left,1708.89999999991,true,NA,NA,NA,NA,NA
KDgsoCyK,3o4vwc1gfzjxgki2d88xs18tr9fj3v,3uxuoq9okia63uefcg3c13di88qa7r,KDgsoCyK,2020-0188,2021-10-14,14:04:15,15:05:14,NA,incomplete,true,true,NA,0,31,NA,red,m_s_083.jpg,NA,NA,pleasant,unpleasant,NA,NA,NA,NA,NA,left,1757.70000000019,true,NA,NA,NA,NA,NA
KDgsoCyK,3o4vwc1gfzjxgki2d88xs18tr9fj3v,3uxuoq9okia63uefcg3c13di88qa7r,KDgsoCyK,2020-0188,2021-10-14,14:04:15,15:05:14,NA,incomplete,true,true,NA,0,32,NA,red,m_s_109.jpg,NA,NA,unpleasant,pleasant,NA,NA,NA,NA,NA,right,1734,true,NA,NA,NA,NA,NA
KDgsoCyK,3o4vwc1gfzjxgki2d88xs18tr9fj3v,3uxuoq9okia63uefcg3c13di88qa7r,KDgsoCyK,2020-0188,2021-10-14,14:04:15,15:05:14,NA,incomplete,true,true,NA,0,33,NA,red,m_s_079.jpg,NA,NA,unpleasant,pleasant,NA,NA,NA,NA,NA,right,1286.59999999963,true,NA,NA,NA,NA,NA
KDgsoCyK,3o4vwc1gfzjxgki2d88xs18tr9fj3v,3uxuoq9okia63uefcg3c13di88qa7r,KDgsoCyK,2020-0188,2021-10-14,14:04:15,15:05:14,NA,incomplete,true,true,NA,0,34,NA,red,n_s_079.jpg,NA,NA,unpleasant,pleasant,NA,NA,NA,NA,NA,right,1838.80000000028,true,NA,NA,NA,NA,NA
KDgsoCyK,3o4vwc1gfzjxgki2d88xs18tr9fj3v,3uxuoq9okia63uefcg3c13di88qa7r,KDgsoCyK,2020-0188,2021-10-14,14:04:15,15:05:14,NA,incomplete,true,true,NA,0,35,NA,red,n_s_108.jpg,NA,NA,pleasant,unpleasant,NA,NA,NA,NA,NA,right,1918.59999999963,true,NA,NA,NA,NA,NA
KDgsoCyK,3o4vwc1gfzjxgki2d88xs18tr9fj3v,3uxuoq9okia63uefcg3c13di88qa7r,KDgsoCyK,2020-0188,2021-10-14,14:04:15,15:05:14,NA,incomplete,true,NA,true,0,0,NA,NA,NA,right,absent,NA,NA,n_s_056.jpg,orange,m_s_044.jpg,orange,within,NA,NaN,NA,right,7873.800000000279,1,2,7542.100000000093
KDgsoCyK,3o4vwc1gfzjxgki2d88xs18tr9fj3v,3uxuoq9okia63uefcg3c13di88qa7r,KDgsoCyK,2020-0188,2021-10-14,14:04:15,15:05:14,NA,incomplete,true,NA,true,0,1,NA,NA,NA,left,present,NA,NA,m_l_117.jpg,white,n_s_018.jpg,white,within,NA,NaN,NA,right,4631.299999999814,0,1,1504.2999999998137
KDgsoCyK,3o4vwc1gfzjxgki2d88xs18tr9fj3v,3uxuoq9okia63uefcg3c13di88qa7r,KDgsoCyK,2020-0188,2021-10-14,14:04:15,15:05:14,NA,incomplete,true,NA,true,0,2,NA,NA,NA,right,absent,NA,NA,n_s_071.jpg,gray,m_s_018.jpg,gray,within,NA,NaN,NA,right,3938.600000000093,1,1,1527.3000000002794
KDgsoCyK,3o4vwc1gfzjxgki2d88xs18tr9fj3v,3uxuoq9okia63uefcg3c13di88qa7r,KDgsoCyK,2020-0188,2021-10-14,14:04:15,15:05:14,NA,incomplete,true,NA,true,0,3,NA,NA,NA,right,present,NA,NA,m_s_072.jpg,gray,n_s_041.jpg,orange,between,NA,NaN,NA,right,3499.4000000003725,1,2,2806.2999999998137
KDgsoCyK,3o4vwc1gfzjxgki2d88xs18tr9fj3v,3uxuoq9okia63uefcg3c13di88qa7r,KDgsoCyK,2020-0188,2021-10-14,14:04:15,15:05:14,NA,incomplete,true,NA,true,0,4,NA,NA,NA,right,absent,NA,NA,n_s_093.jpg,black,m_l_105.jpg,black,within,NA,NaN,NA,left,6047.9000000003725,0,2,1519.6000000000931
KDgsoCyK,3o4vwc1gfzjxgki2d88xs18tr9fj3v,3uxuoq9okia63uefcg3c13di88qa7r,KDgsoCyK,2020-0188,2021-10-14,14:04:15,15:05:14,NA,incomplete,true,NA,true,0,5,NA,NA,NA,right,present,NA,NA,m_s_109.jpg,red,n_s_008.jpg,black,between,NA,NaN,NA,right,5199.700000000186,1,2,1211.3000000002794
KDgsoCyK,3o4vwc1gfzjxgki2d88xs18tr9fj3v,3uxuoq9okia63uefcg3c13di88qa7r,KDgsoCyK,2020-0188,2021-10-14,14:04:15,15:05:14,NA,incomplete,true,NA,true,0,6,NA,NA,NA,left,present,NA,NA,m_s_083.jpg,red,n_s_108.jpg,red,within,NA,NaN,NA,left,4689.699999999721,1,0,1115.2000000001863
KDgsoCyK,3o4vwc1gfzjxgki2d88xs18tr9fj3v,3uxuoq9okia63uefcg3c13di88qa7r,KDgsoCyK,2020-0188,2021-10-14,14:04:15,15:05:14,NA,incomplete,true,NA,true,0,7,NA,NA,NA,right,absent,NA,NA,n_l_086.jpg,yellow,m_l_085.jpg,gray,between,NA,NaN,NA,left,2642.600000000093,0,1,1000.1999999997206
KDgsoCyK,3o4vwc1gfzjxgki2d88xs18tr9fj3v,3uxuoq9okia63uefcg3c13di88qa7r,KDgsoCyK,2020-0188,2021-10-14,14:04:15,15:05:14,NA,incomplete,true,NA,true,0,8,NA,NA,NA,left,present,NA,NA,n_s_089.jpg,yellow,m_s_086.jpg,white,between,NA,NaN,NA,left,7565.199999999721,1,2,994.1000000000931
KDgsoCyK,3o4vwc1gfzjxgki2d88xs18tr9fj3v,3uxuoq9okia63uefcg3c13di88qa7r,KDgsoCyK,2020-0188,2021-10-14,14:04:15,15:05:14,NA,incomplete,true,NA,true,0,9,NA,NA,NA,right,absent,NA,NA,n_l_034.jpg,yellow,n_s_092.jpg,yellow,within,NA,NaN,NA,right,3193.4000000003725,1,2,840.1000000000931
KDgsoCyK,3o4vwc1gfzjxgki2d88xs18tr9fj3v,3uxuoq9okia63uefcg3c13di88qa7r,KDgsoCyK,2020-0188,2021-10-14,14:04:15,15:05:14,NA,incomplete,true,NA,true,0,10,NA,NA,NA,right,present,NA,NA,m_s_061.jpg,black,m_l_073.jpg,white,between,NA,NaN,NA,right,5626.399999999907,1,2,1437.8999999999069
KDgsoCyK,3o4vwc1gfzjxgki2d88xs18tr9fj3v,3uxuoq9okia63uefcg3c13di88qa7r,KDgsoCyK,2020-0188,2021-10-14,14:04:15,15:05:14,NA,incomplete,false,true,NA,1,0,NA,green,n_s_044.jpg,NA,NA,pleasant,unpleasant,NA,NA,NA,NA,NA,left,1111.60000000009,true,NA,NA,NA,NA,NA
KDgsoCyK,3o4vwc1gfzjxgki2d88xs18tr9fj3v,3uxuoq9okia63uefcg3c13di88qa7r,KDgsoCyK,2020-0188,2021-10-14,14:04:15,15:05:14,NA,incomplete,false,true,NA,1,1,NA,green,n_s_020.jpg,NA,NA,pleasant,unpleasant,NA,NA,NA,NA,NA,left,1296.10000000009,true,NA,NA,NA,NA,NA
KDgsoCyK,3o4vwc1gfzjxgki2d88xs18tr9fj3v,3uxuoq9okia63uefcg3c13di88qa7r,KDgsoCyK,2020-0188,2021-10-14,14:04:15,15:05:14,NA,incomplete,false,true,NA,1,2,NA,green,n_s_013.jpg,NA,NA,unpleasant,pleasant,NA,NA,NA,NA,NA,right,1697,true,NA,NA,NA,NA,NA
KDgsoCyK,3o4vwc1gfzjxgki2d88xs18tr9fj3v,3uxuoq9okia63uefcg3c13di88qa7r,KDgsoCyK,2020-0188,2021-10-14,14:04:15,15:05:14,NA,incomplete,false,true,NA,1,3,NA,green,n_s_004.jpg,NA,NA,pleasant,unpleasant,NA,NA,NA,NA,NA,right,2017.5,true,NA,NA,NA,NA,NA
KDgsoCyK,3o4vwc1gfzjxgki2d88xs18tr9fj3v,3uxuoq9okia63uefcg3c13di88qa7r,KDgsoCyK,2020-0188,2021-10-14,14:04:15,15:05:14,NA,incomplete,false,true,NA,1,4,NA,green,m_s_071.jpg,NA,NA,pleasant,unpleasant,NA,NA,NA,NA,NA,left,1898.10000000009,true,NA,NA,NA,NA,NA
KDgsoCyK,3o4vwc1gfzjxgki2d88xs18tr9fj3v,3uxuoq9okia63uefcg3c13di88qa7r,KDgsoCyK,2020-0188,2021-10-14,14:04:15,15:05:14,NA,incomplete,false,true,NA,1,5,NA,green,m_s_040.jpg,NA,NA,pleasant,unpleasant,NA,NA,NA,NA,NA,left,1818.89999999991,true,NA,NA,NA,NA,NA
KDgsoCyK,3o4vwc1gfzjxgki2d88xs18tr9fj3v,3uxuoq9okia63uefcg3c13di88qa7r,KDgsoCyK,2020-0188,2021-10-14,14:04:15,15:05:14,NA,incomplete,false,true,NA,1,6,NA,purple,m_s_076.jpg,NA,NA,pleasant,unpleasant,NA,NA,NA,NA,NA,left,1794.5,true,NA,NA,NA,NA,NA
KDgsoCyK,3o4vwc1gfzjxgki2d88xs18tr9fj3v,3uxuoq9okia63uefcg3c13di88qa7r,KDgsoCyK,2020-0188,2021-10-14,14:04:15,15:05:14,NA,incomplete,false,true,NA,1,7,NA,purple,n_s_012.jpg,NA,NA,pleasant,unpleasant,NA,NA,NA,NA,NA,left,1515.10000000009,true,NA,NA,NA,NA,NA
KDgsoCyK,3o4vwc1gfzjxgki2d88xs18tr9fj3v,3uxuoq9okia63uefcg3c13di88qa7r,KDgsoCyK,2020-0188,2021-10-14,14:04:15,15:05:14,NA,incomplete,false,true,NA,1,8,NA,purple,n_l_021.jpg,NA,NA,pleasant,unpleasant,NA,NA,NA,NA,NA,left,1260.10000000009,true,NA,NA,NA,NA,NA
KDgsoCyK,3o4vwc1gfzjxgki2d88xs18tr9fj3v,3uxuoq9okia63uefcg3c13di88qa7r,KDgsoCyK,2020-0188,2021-10-14,14:04:15,15:05:14,NA,incomplete,false,true,NA,1,9,NA,purple,n_s_086.jpg,NA,NA,unpleasant,pleasant,NA,NA,NA,NA,NA,right,1876.29999999981,true,NA,NA,NA,NA,NA
KDgsoCyK,3o4vwc1gfzjxgki2d88xs18tr9fj3v,3uxuoq9okia63uefcg3c13di88qa7r,KDgsoCyK,2020-0188,2021-10-14,14:04:15,15:05:14,NA,incomplete,false,true,NA,1,10,NA,purple,n_s_090.jpg,NA,NA,pleasant,unpleasant,NA,NA,NA,NA,NA,left,1516.89999999991,true,NA,NA,NA,NA,NA
KDgsoCyK,3o4vwc1gfzjxgki2d88xs18tr9fj3v,3uxuoq9okia63uefcg3c13di88qa7r,KDgsoCyK,2020-0188,2021-10-14,14:04:15,15:05:14,NA,incomplete,false,true,NA,1,11,NA,purple,m_l_087.jpg,NA,NA,pleasant,unpleasant,NA,NA,NA,NA,NA,left,1261.10000000009,true,NA,NA,NA,NA,NA
KDgsoCyK,3o4vwc1gfzjxgki2d88xs18tr9fj3v,3uxuoq9okia63uefcg3c13di88qa7r,KDgsoCyK,2020-0188,2021-10-14,14:04:15,15:05:14,NA,incomplete,false,true,NA,1,12,NA,black,m_s_075.jpg,NA,NA,unpleasant,pleasant,NA,NA,NA,NA,NA,right,1574.19999999972,true,NA,NA,NA,NA,NA
KDgsoCyK,3o4vwc1gfzjxgki2d88xs18tr9fj3v,3uxuoq9okia63uefcg3c13di88qa7r,KDgsoCyK,2020-0188,2021-10-14,14:04:15,15:05:14,NA,incomplete,false,true,NA,1,13,NA,black,n_l_019.jpg,NA,NA,unpleasant,pleasant,NA,NA,NA,NA,NA,right,1310.79999999981,true,NA,NA,NA,NA,NA
KDgsoCyK,3o4vwc1gfzjxgki2d88xs18tr9fj3v,3uxuoq9okia63uefcg3c13di88qa7r,KDgsoCyK,2020-0188,2021-10-14,14:04:15,15:05:14,NA,incomplete,false,true,NA,1,14,NA,black,n_l_060.jpg,NA,NA,pleasant,unpleasant,NA,NA,NA,NA,NA,left,1327.70000000019,true,NA,NA,NA,NA,NA
KDgsoCyK,3o4vwc1gfzjxgki2d88xs18tr9fj3v,3uxuoq9okia63uefcg3c13di88qa7r,KDgsoCyK,2020-0188,2021-10-14,14:04:15,15:05:14,NA,incomplete,false,true,NA,1,15,NA,black,m_s_026.jpg,NA,NA,pleasant,unpleasant,NA,NA,NA,NA,NA,left,1856,true,NA,NA,NA,NA,NA
KDgsoCyK,3o4vwc1gfzjxgki2d88xs18tr9fj3v,3uxuoq9okia63uefcg3c13di88qa7r,KDgsoCyK,2020-0188,2021-10-14,14:04:15,15:05:14,NA,incomplete,false,true,NA,1,16,NA,black,m_l_062.jpg,NA,NA,pleasant,unpleasant,NA,NA,NA,NA,NA,left,1463.89999999991,true,NA,NA,NA,NA,NA
KDgsoCyK,3o4vwc1gfzjxgki2d88xs18tr9fj3v,3uxuoq9okia63uefcg3c13di88qa7r,KDgsoCyK,2020-0188,2021-10-14,14:04:15,15:05:14,NA,incomplete,false,true,NA,1,17,NA,black,m_s_049.jpg,NA,NA,pleasant,unpleasant,NA,NA,NA,NA,NA,left,2281,true,NA,NA,NA,NA,NA
KDgsoCyK,3o4vwc1gfzjxgki2d88xs18tr9fj3v,3uxuoq9okia63uefcg3c13di88qa7r,KDgsoCyK,2020-0188,2021-10-14,14:04:15,15:05:14,NA,incomplete,false,true,NA,1,18,NA,gray,n_l_063.jpg,NA,NA,unpleasant,pleasant,NA,NA,NA,NA,NA,left,2521.20000000019,true,NA,NA,NA,NA,NA
KDgsoCyK,3o4vwc1gfzjxgki2d88xs18tr9fj3v,3uxuoq9okia63uefcg3c13di88qa7r,KDgsoCyK,2020-0188,2021-10-14,14:04:15,15:05:14,NA,incomplete,false,true,NA,1,19,NA,gray,m_l_089.jpg,NA,NA,pleasant,unpleasant,NA,NA,NA,NA,NA,right,2127.5,true,NA,NA,NA,NA,NA
KDgsoCyK,3o4vwc1gfzjxgki2d88xs18tr9fj3v,3uxuoq9okia63uefcg3c13di88qa7r,KDgsoCyK,2020-0188,2021-10-14,14:04:15,15:05:14,NA,incomplete,false,true,NA,1,20,NA,gray,m_s_099.jpg,NA,NA,unpleasant,pleasant,NA,NA,NA,NA,NA,right,1498,true,NA,NA,NA,NA,NA
KDgsoCyK,3o4vwc1gfzjxgki2d88xs18tr9fj3v,3uxuoq9okia63uefcg3c13di88qa7r,KDgsoCyK,2020-0188,2021-10-14,14:04:15,15:05:14,NA,incomplete,false,true,NA,1,21,NA,gray,m_s_007.jpg,NA,NA,unpleasant,pleasant,NA,NA,NA,NA,NA,right,2522.29999999981,true,NA,NA,NA,NA,NA
KDgsoCyK,3o4vwc1gfzjxgki2d88xs18tr9fj3v,3uxuoq9okia63uefcg3c13di88qa7r,KDgsoCyK,2020-0188,2021-10-14,14:04:15,15:05:14,NA,incomplete,false,true,NA,1,22,NA,gray,m_l_053.jpg,NA,NA,pleasant,unpleasant,NA,NA,NA,NA,NA,left,1218.10000000009,true,NA,NA,NA,NA,NA
KDgsoCyK,3o4vwc1gfzjxgki2d88xs18tr9fj3v,3uxuoq9okia63uefcg3c13di88qa7r,KDgsoCyK,2020-0188,2021-10-14,14:04:15,15:05:14,NA,incomplete,false,true,NA,1,23,NA,gray,n_l_033.jpg,NA,NA,pleasant,unpleasant,NA,NA,NA,NA,NA,right,1641.39999999991,true,NA,NA,NA,NA,NA
KDgsoCyK,3o4vwc1gfzjxgki2d88xs18tr9fj3v,3uxuoq9okia63uefcg3c13di88qa7r,KDgsoCyK,2020-0188,2021-10-14,14:04:15,15:05:14,NA,incomplete,false,true,NA,1,24,NA,brown,m_s_005.jpg,NA,NA,pleasant,unpleasant,NA,NA,NA,NA,NA,left,1779.39999999991,true,NA,NA,NA,NA,NA
KDgsoCyK,3o4vwc1gfzjxgki2d88xs18tr9fj3v,3uxuoq9okia63uefcg3c13di88qa7r,KDgsoCyK,2020-0188,2021-10-14,14:04:15,15:05:14,NA,incomplete,false,true,NA,1,25,NA,brown,n_l_111.jpg,NA,NA,pleasant,unpleasant,NA,NA,NA,NA,NA,right,1652.10000000009,true,NA,NA,NA,NA,NA
KDgsoCyK,3o4vwc1gfzjxgki2d88xs18tr9fj3v,3uxuoq9okia63uefcg3c13di88qa7r,KDgsoCyK,2020-0188,2021-10-14,14:04:15,15:05:14,NA,incomplete,false,true,NA,1,26,NA,brown,m_s_090.jpg,NA,NA,unpleasant,pleasant,NA,NA,NA,NA,NA,left,1876.89999999991,true,NA,NA,NA,NA,NA
KDgsoCyK,3o4vwc1gfzjxgki2d88xs18tr9fj3v,3uxuoq9okia63uefcg3c13di88qa7r,KDgsoCyK,2020-0188,2021-10-14,14:04:15,15:05:14,NA,incomplete,false,true,NA,1,27,NA,brown,m_l_039.jpg,NA,NA,unpleasant,pleasant,NA,NA,NA,NA,NA,right,2069.29999999981,true,NA,NA,NA,NA,NA
KDgsoCyK,3o4vwc1gfzjxgki2d88xs18tr9fj3v,3uxuoq9okia63uefcg3c13di88qa7r,KDgsoCyK,2020-0188,2021-10-14,14:04:15,15:05:14,NA,incomplete,false,true,NA,1,28,NA,brown,n_l_059.jpg,NA,NA,pleasant,unpleasant,NA,NA,NA,NA,NA,left,1533.19999999972,true,NA,NA,NA,NA,NA
KDgsoCyK,3o4vwc1gfzjxgki2d88xs18tr9fj3v,3uxuoq9okia63uefcg3c13di88qa7r,KDgsoCyK,2020-0188,2021-10-14,14:04:15,15:05:14,NA,incomplete,false,true,NA,1,29,NA,brown,m_l_026.jpg,NA,NA,unpleasant,pleasant,NA,NA,NA,NA,NA,right,1606,true,NA,NA,NA,NA,NA
KDgsoCyK,3o4vwc1gfzjxgki2d88xs18tr9fj3v,3uxuoq9okia63uefcg3c13di88qa7r,KDgsoCyK,2020-0188,2021-10-14,14:04:15,15:05:14,NA,incomplete,false,true,NA,1,30,NA,orange,m_l_068.jpg,NA,NA,unpleasant,pleasant,NA,NA,NA,NA,NA,right,1813.79999999981,true,NA,NA,NA,NA,NA
KDgsoCyK,3o4vwc1gfzjxgki2d88xs18tr9fj3v,3uxuoq9okia63uefcg3c13di88qa7r,KDgsoCyK,2020-0188,2021-10-14,14:04:15,15:05:14,NA,incomplete,false,true,NA,1,31,NA,orange,n_l_023.jpg,NA,NA,pleasant,unpleasant,NA,NA,NA,NA,NA,left,1598.40000000037,true,NA,NA,NA,NA,NA
KDgsoCyK,3o4vwc1gfzjxgki2d88xs18tr9fj3v,3uxuoq9okia63uefcg3c13di88qa7r,KDgsoCyK,2020-0188,2021-10-14,14:04:15,15:05:14,NA,incomplete,false,true,NA,1,32,NA,orange,m_l_031.jpg,NA,NA,pleasant,unpleasant,NA,NA,NA,NA,NA,right,1679.20000000019,true,NA,NA,NA,NA,NA
KDgsoCyK,3o4vwc1gfzjxgki2d88xs18tr9fj3v,3uxuoq9okia63uefcg3c13di88qa7r,KDgsoCyK,2020-0188,2021-10-14,14:04:15,15:05:14,NA,incomplete,false,true,NA,1,33,NA,orange,n_s_069.jpg,NA,NA,pleasant,unpleasant,NA,NA,NA,NA,NA,left,1527.60000000009,true,NA,NA,NA,NA,NA
KDgsoCyK,3o4vwc1gfzjxgki2d88xs18tr9fj3v,3uxuoq9okia63uefcg3c13di88qa7r,KDgsoCyK,2020-0188,2021-10-14,14:04:15,15:05:14,NA,incomplete,false,true,NA,1,34,NA,orange,n_l_073.jpg,NA,NA,pleasant,unpleasant,NA,NA,NA,NA,NA,right,2344.30000000028,true,NA,NA,NA,NA,NA
KDgsoCyK,3o4vwc1gfzjxgki2d88xs18tr9fj3v,3uxuoq9okia63uefcg3c13di88qa7r,KDgsoCyK,2020-0188,2021-10-14,14:04:15,15:05:14,NA,incomplete,false,true,NA,1,35,NA,orange,n_l_085.jpg,NA,NA,pleasant,unpleasant,NA,NA,NA,NA,NA,left,1481,true,NA,NA,NA,NA,NA
KDgsoCyK,3o4vwc1gfzjxgki2d88xs18tr9fj3v,3uxuoq9okia63uefcg3c13di88qa7r,KDgsoCyK,2020-0188,2021-10-14,14:04:15,15:05:14,NA,incomplete,false,NA,true,1,0,NA,NA,NA,left,absent,NA,NA,n_s_012.jpg,purple,m_l_087.jpg,purple,within,NA,NaN,NA,right,3997,0,2,1161.2000000001863
KDgsoCyK,3o4vwc1gfzjxgki2d88xs18tr9fj3v,3uxuoq9okia63uefcg3c13di88qa7r,KDgsoCyK,2020-0188,2021-10-14,14:04:15,15:05:14,NA,incomplete,false,NA,true,1,1,NA,NA,NA,right,absent,NA,NA,m_s_040.jpg,green,n_s_020.jpg,green,within,NA,NaN,NA,left,4393.700000000186,0,1,1177.3000000002794
KDgsoCyK,3o4vwc1gfzjxgki2d88xs18tr9fj3v,3uxuoq9okia63uefcg3c13di88qa7r,KDgsoCyK,2020-0188,2021-10-14,14:04:15,15:05:14,NA,incomplete,false,NA,true,1,2,NA,NA,NA,left,absent,NA,NA,m_l_053.jpg,gray,m_s_090.jpg,brown,between,NA,NaN,NA,left,4863.699999999721,1,0,1041.5
KDgsoCyK,3o4vwc1gfzjxgki2d88xs18tr9fj3v,3uxuoq9okia63uefcg3c13di88qa7r,KDgsoCyK,2020-0188,2021-10-14,14:04:15,15:05:14,NA,incomplete,false,NA,true,1,3,NA,NA,NA,left,absent,NA,NA,m_s_071.jpg,green,n_l_021.jpg,purple,between,NA,NaN,NA,left,2754.600000000093,1,1,2811.3000000002794
KDgsoCyK,3o4vwc1gfzjxgki2d88xs18tr9fj3v,3uxuoq9okia63uefcg3c13di88qa7r,KDgsoCyK,2020-0188,2021-10-14,14:04:15,15:05:14,NA,incomplete,false,NA,true,1,4,NA,NA,NA,right,absent,NA,NA,m_l_031.jpg,orange,n_l_059.jpg,brown,between,NA,NaN,NA,right,3783.600000000093,1,0,1421.1000000000931
KDgsoCyK,3o4vwc1gfzjxgki2d88xs18tr9fj3v,3uxuoq9okia63uefcg3c13di88qa7r,KDgsoCyK,2020-0188,2021-10-14,14:04:15,15:05:14,NA,incomplete,false,NA,true,1,5,NA,NA,NA,left,absent,NA,NA,n_s_090.jpg,purple,n_l_060.jpg,black,between,NA,NaN,NA,left,3622.399999999907,1,2,2117.2000000001863
KDgsoCyK,3o4vwc1gfzjxgki2d88xs18tr9fj3v,3uxuoq9okia63uefcg3c13di88qa7r,KDgsoCyK,2020-0188,2021-10-14,14:04:15,15:05:14,NA,incomplete,false,NA,true,1,6,NA,NA,NA,left,absent,NA,NA,n_l_019.jpg,black,m_s_049.jpg,black,within,NA,NaN,NA,right,2343.399999999907,0,2,953.3000000002794
KDgsoCyK,3o4vwc1gfzjxgki2d88xs18tr9fj3v,3uxuoq9okia63uefcg3c13di88qa7r,KDgsoCyK,2020-0188,2021-10-14,14:04:15,15:05:14,NA,incomplete,false,NA,true,1,7,NA,NA,NA,right,absent,NA,NA,m_l_026.jpg,brown,n_l_111.jpg,brown,within,NA,NaN,NA,right,2174.399999999907,1,2,1236.3999999999069
KDgsoCyK,3o4vwc1gfzjxgki2d88xs18tr9fj3v,3uxuoq9okia63uefcg3c13di88qa7r,KDgsoCyK,2020-0188,2021-10-14,14:04:15,15:05:14,NA,incomplete,false,NA,true,1,8,NA,NA,NA,left,absent,NA,NA,m_l_062.jpg,black,m_s_099.jpg,gray,between,NA,NaN,NA,left,2769.5,1,2,1219.5
KDgsoCyK,3o4vwc1gfzjxgki2d88xs18tr9fj3v,3uxuoq9okia63uefcg3c13di88qa7r,KDgsoCyK,2020-0188,2021-10-14,14:04:15,15:05:14,NA,incomplete,false,NA,true,1,9,NA,NA,NA,left,absent,NA,NA,m_l_089.jpg,gray,n_l_033.jpg,gray,within,NA,NaN,NA,right,4858.899999999907,0,0,2328.7000000001863
KDgsoCyK,3o4vwc1gfzjxgki2d88xs18tr9fj3v,3uxuoq9okia63uefcg3c13di88qa7r,KDgsoCyK,2020-0188,2021-10-14,14:04:15,15:05:14,NA,incomplete,false,NA,true,1,10,NA,NA,NA,left,absent,NA,NA,n_l_023.jpg,orange,n_l_085.jpg,orange,within,NA,NaN,NA,left,3267.100000000093,1,1,832.8000000002794
KDgsoCyK,3o4vwc1gfzjxgki2d88xs18tr9fj3v,3uxuoq9okia63uefcg3c13di88qa7r,KDgsoCyK,2020-0188,2021-10-14,14:04:15,15:05:14,NA,incomplete,false,true,NA,2,0,NA,gray,n_s_111.jpg,NA,NA,unpleasant,pleasant,NA,NA,NA,NA,NA,right,2226.10000000009,true,NA,NA,NA,NA,NA
KDgsoCyK,3o4vwc1gfzjxgki2d88xs18tr9fj3v,3uxuoq9okia63uefcg3c13di88qa7r,KDgsoCyK,2020-0188,2021-10-14,14:04:15,15:05:14,NA,incomplete,false,true,NA,2,1,NA,gray,n_s_052.jpg,NA,NA,unpleasant,pleasant,NA,NA,NA,NA,NA,right,1610.79999999981,true,NA,NA,NA,NA,NA
KDgsoCyK,3o4vwc1gfzjxgki2d88xs18tr9fj3v,3uxuoq9okia63uefcg3c13di88qa7r,KDgsoCyK,2020-0188,2021-10-14,14:04:15,15:05:14,NA,incomplete,false,true,NA,2,2,NA,gray,n_s_078.jpg,NA,NA,unpleasant,pleasant,NA,NA,NA,NA,NA,right,1355.19999999972,true,NA,NA,NA,NA,NA
KDgsoCyK,3o4vwc1gfzjxgki2d88xs18tr9fj3v,3uxuoq9okia63uefcg3c13di88qa7r,KDgsoCyK,2020-0188,2021-10-14,14:04:15,15:05:14,NA,incomplete,false,true,NA,2,3,NA,gray,m_l_047.jpg,NA,NA,pleasant,unpleasant,NA,NA,NA,NA,NA,left,1227.10000000009,true,NA,NA,NA,NA,NA
KDgsoCyK,3o4vwc1gfzjxgki2d88xs18tr9fj3v,3uxuoq9okia63uefcg3c13di88qa7r,KDgsoCyK,2020-0188,2021-10-14,14:04:15,15:05:14,NA,incomplete,false,true,NA,2,4,NA,gray,n_l_117.jpg,NA,NA,pleasant,unpleasant,NA,NA,NA,NA,NA,left,1140,true,NA,NA,NA,NA,NA
KDgsoCyK,3o4vwc1gfzjxgki2d88xs18tr9fj3v,3uxuoq9okia63uefcg3c13di88qa7r,KDgsoCyK,2020-0188,2021-10-14,14:04:15,15:05:14,NA,incomplete,false,true,NA,2,5,NA,gray,n_l_097.jpg,NA,NA,unpleasant,pleasant,NA,NA,NA,NA,NA,right,1180.30000000028,true,NA,NA,NA,NA,NA
KDgsoCyK,3o4vwc1gfzjxgki2d88xs18tr9fj3v,3uxuoq9okia63uefcg3c13di88qa7r,KDgsoCyK,2020-0188,2021-10-14,14:04:15,15:05:14,NA,incomplete,false,true,NA,2,6,NA,yellow,m_s_063.jpg,NA,NA,unpleasant,pleasant,NA,NA,NA,NA,NA,right,1541.10000000009,true,NA,NA,NA,NA,NA
KDgsoCyK,3o4vwc1gfzjxgki2d88xs18tr9fj3v,3uxuoq9okia63uefcg3c13di88qa7r,KDgsoCyK,2020-0188,2021-10-14,14:04:15,15:05:14,NA,incomplete,false,true,NA,2,7,NA,yellow,m_s_074.jpg,NA,NA,unpleasant,pleasant,NA,NA,NA,NA,NA,right,1357.80000000028,true,NA,NA,NA,NA,NA
KDgsoCyK,3o4vwc1gfzjxgki2d88xs18tr9fj3v,3uxuoq9okia63uefcg3c13di88qa7r,KDgsoCyK,2020-0188,2021-10-14,14:04:15,15:05:14,NA,incomplete,false,true,NA,2,8,NA,yellow,m_s_004.jpg,NA,NA,unpleasant,pleasant,NA,NA,NA,NA,NA,left,1702.39999999991,true,NA,NA,NA,NA,NA
KDgsoCyK,3o4vwc1gfzjxgki2d88xs18tr9fj3v,3uxuoq9okia63uefcg3c13di88qa7r,KDgsoCyK,2020-0188,2021-10-14,14:04:15,15:05:14,NA,incomplete,false,true,NA,2,9,NA,yellow,n_l_075.jpg,NA,NA,unpleasant,pleasant,NA,NA,NA,NA,NA,left,2126.19999999972,true,NA,NA,NA,NA,NA
KDgsoCyK,3o4vwc1gfzjxgki2d88xs18tr9fj3v,3uxuoq9okia63uefcg3c13di88qa7r,KDgsoCyK,2020-0188,2021-10-14,14:04:15,15:05:14,NA,incomplete,false,true,NA,2,10,NA,yellow,m_l_083.jpg,NA,NA,pleasant,unpleasant,NA,NA,NA,NA,NA,left,1567,true,NA,NA,NA,NA,NA
KDgsoCyK,3o4vwc1gfzjxgki2d88xs18tr9fj3v,3uxuoq9okia63uefcg3c13di88qa7r,KDgsoCyK,2020-0188,2021-10-14,14:04:15,15:05:14,NA,incomplete,false,true,NA,2,11,NA,yellow,m_l_003.jpg,NA,NA,pleasant,unpleasant,NA,NA,NA,NA,NA,left,1447.30000000028,true,NA,NA,NA,NA,NA
KDgsoCyK,3o4vwc1gfzjxgki2d88xs18tr9fj3v,3uxuoq9okia63uefcg3c13di88qa7r,KDgsoCyK,2020-0188,2021-10-14,14:04:15,15:05:14,NA,incomplete,false,true,NA,2,12,NA,red,n_s_029.jpg,NA,NA,pleasant,unpleasant,NA,NA,NA,NA,NA,right,2176.09999999963,true,NA,NA,NA,NA,NA
KDgsoCyK,3o4vwc1gfzjxgki2d88xs18tr9fj3v,3uxuoq9okia63uefcg3c13di88qa7r,KDgsoCyK,2020-0188,2021-10-14,14:04:15,15:05:14,NA,incomplete,false,true,NA,2,13,NA,red,m_l_095.jpg,NA,NA,pleasant,unpleasant,NA,NA,NA,NA,NA,left,2000.79999999981,true,NA,NA,NA,NA,NA
KDgsoCyK,3o4vwc1gfzjxgki2d88xs18tr9fj3v,3uxuoq9okia63uefcg3c13di88qa7r,KDgsoCyK,2020-0188,2021-10-14,14:04:15,15:05:14,NA,incomplete,false,true,NA,2,14,NA,red,n_l_026.jpg,NA,NA,pleasant,unpleasant,NA,NA,NA,NA,NA,left,2425.10000000009,true,NA,NA,NA,NA,NA
KDgsoCyK,3o4vwc1gfzjxgki2d88xs18tr9fj3v,3uxuoq9okia63uefcg3c13di88qa7r,KDgsoCyK,2020-0188,2021-10-14,14:04:15,15:05:14,NA,incomplete,false,true,NA,2,15,NA,red,m_s_102.jpg,NA,NA,pleasant,unpleasant,NA,NA,NA,NA,NA,right,2657.70000000019,true,NA,NA,NA,NA,NA
KDgsoCyK,3o4vwc1gfzjxgki2d88xs18tr9fj3v,3uxuoq9okia63uefcg3c13di88qa7r,KDgsoCyK,2020-0188,2021-10-14,14:04:15,15:05:14,NA,incomplete,false,true,NA,2,16,NA,red,m_s_114.jpg,NA,NA,unpleasant,pleasant,NA,NA,NA,NA,NA,right,1682.70000000019,true,NA,NA,NA,NA,NA
KDgsoCyK,3o4vwc1gfzjxgki2d88xs18tr9fj3v,3uxuoq9okia63uefcg3c13di88qa7r,KDgsoCyK,2020-0188,2021-10-14,14:04:15,15:05:14,NA,incomplete,false,true,NA,2,17,NA,red,n_l_007.jpg,NA,NA,pleasant,unpleasant,NA,NA,NA,NA,NA,left,1530.79999999981,true,NA,NA,NA,NA,NA
KDgsoCyK,3o4vwc1gfzjxgki2d88xs18tr9fj3v,3uxuoq9okia63uefcg3c13di88qa7r,KDgsoCyK,2020-0188,2021-10-14,14:04:15,15:05:14,NA,incomplete,false,true,NA,2,18,NA,green,m_l_023.jpg,NA,NA,unpleasant,pleasant,NA,NA,NA,NA,NA,right,2019.5,true,NA,NA,NA,NA,NA
KDgsoCyK,3o4vwc1gfzjxgki2d88xs18tr9fj3v,3uxuoq9okia63uefcg3c13di88qa7r,KDgsoCyK,2020-0188,2021-10-14,14:04:15,15:05:14,NA,incomplete,false,true,NA,2,19,NA,green,m_s_082.jpg,NA,NA,unpleasant,pleasant,NA,NA,NA,NA,NA,right,2363.80000000028,true,NA,NA,NA,NA,NA
KDgsoCyK,3o4vwc1gfzjxgki2d88xs18tr9fj3v,3uxuoq9okia63uefcg3c13di88qa7r,KDgsoCyK,2020-0188,2021-10-14,14:04:15,15:05:14,NA,incomplete,false,true,NA,2,20,NA,green,m_s_021.jpg,NA,NA,pleasant,unpleasant,NA,NA,NA,NA,NA,left,1212.10000000009,true,NA,NA,NA,NA,NA
KDgsoCyK,3o4vwc1gfzjxgki2d88xs18tr9fj3v,3uxuoq9okia63uefcg3c13di88qa7r,KDgsoCyK,2020-0188,2021-10-14,14:04:15,15:05:14,NA,incomplete,false,true,NA,2,21,NA,green,m_l_012.jpg,NA,NA,pleasant,unpleasant,NA,NA,NA,NA,NA,left,1172.70000000019,true,NA,NA,NA,NA,NA
KDgsoCyK,3o4vwc1gfzjxgki2d88xs18tr9fj3v,3uxuoq9okia63uefcg3c13di88qa7r,KDgsoCyK,2020-0188,2021-10-14,14:04:15,15:05:14,NA,incomplete,false,true,NA,2,22,NA,green,n_s_035.jpg,NA,NA,pleasant,unpleasant,NA,NA,NA,NA,NA,left,1389.69999999972,true,NA,NA,NA,NA,NA
KDgsoCyK,3o4vwc1gfzjxgki2d88xs18tr9fj3v,3uxuoq9okia63uefcg3c13di88qa7r,KDgsoCyK,2020-0188,2021-10-14,14:04:15,15:05:14,NA,incomplete,false,true,NA,2,23,NA,green,n_l_079.jpg,NA,NA,unpleasant,pleasant,NA,NA,NA,NA,NA,right,2262.10000000009,true,NA,NA,NA,NA,NA
KDgsoCyK,3o4vwc1gfzjxgki2d88xs18tr9fj3v,3uxuoq9okia63uefcg3c13di88qa7r,KDgsoCyK,2020-0188,2021-10-14,14:04:15,15:05:14,NA,incomplete,false,true,NA,2,24,NA,white,m_l_014.jpg,NA,NA,unpleasant,pleasant,NA,NA,NA,NA,NA,right,2558.79999999981,true,NA,NA,NA,NA,NA
KDgsoCyK,3o4vwc1gfzjxgki2d88xs18tr9fj3v,3uxuoq9okia63uefcg3c13di88qa7r,KDgsoCyK,2020-0188,2021-10-14,14:04:15,15:05:14,NA,incomplete,false,true,NA,2,25,NA,white,n_l_055.jpg,NA,NA,pleasant,unpleasant,NA,NA,NA,NA,NA,left,1119.09999999963,true,NA,NA,NA,NA,NA
KDgsoCyK,3o4vwc1gfzjxgki2d88xs18tr9fj3v,3uxuoq9okia63uefcg3c13di88qa7r,KDgsoCyK,2020-0188,2021-10-14,14:04:15,15:05:14,NA,incomplete,false,true,NA,2,26,NA,white,n_l_035.jpg,NA,NA,pleasant,unpleasant,NA,NA,NA,NA,NA,left,1055.19999999972,true,NA,NA,NA,NA,NA
KDgsoCyK,3o4vwc1gfzjxgki2d88xs18tr9fj3v,3uxuoq9okia63uefcg3c13di88qa7r,KDgsoCyK,2020-0188,2021-10-14,14:04:15,15:05:14,NA,incomplete,false,true,NA,2,27,NA,white,m_s_116.jpg,NA,NA,unpleasant,pleasant,NA,NA,NA,NA,NA,right,1175.30000000028,true,NA,NA,NA,NA,NA
KDgsoCyK,3o4vwc1gfzjxgki2d88xs18tr9fj3v,3uxuoq9okia63uefcg3c13di88qa7r,KDgsoCyK,2020-0188,2021-10-14,14:04:15,15:05:14,NA,incomplete,false,true,NA,2,28,NA,white,n_s_094.jpg,NA,NA,pleasant,unpleasant,NA,NA,NA,NA,NA,left,1358,true,NA,NA,NA,NA,NA
KDgsoCyK,3o4vwc1gfzjxgki2d88xs18tr9fj3v,3uxuoq9okia63uefcg3c13di88qa7r,KDgsoCyK,2020-0188,2021-10-14,14:04:15,15:05:14,NA,incomplete,false,true,NA,2,29,NA,white,n_l_103.jpg,NA,NA,unpleasant,pleasant,NA,NA,NA,NA,NA,right,1016.20000000019,true,NA,NA,NA,NA,NA
KDgsoCyK,3o4vwc1gfzjxgki2d88xs18tr9fj3v,3uxuoq9okia63uefcg3c13di88qa7r,KDgsoCyK,2020-0188,2021-10-14,14:04:15,15:05:14,NA,incomplete,false,true,NA,2,30,NA,blue,m_s_085.jpg,NA,NA,unpleasant,pleasant,NA,NA,NA,NA,NA,left,1456.19999999972,true,NA,NA,NA,NA,NA
KDgsoCyK,3o4vwc1gfzjxgki2d88xs18tr9fj3v,3uxuoq9okia63uefcg3c13di88qa7r,KDgsoCyK,2020-0188,2021-10-14,14:04:15,15:05:14,NA,incomplete,false,true,NA,2,31,NA,blue,n_s_096.jpg,NA,NA,pleasant,unpleasant,NA,NA,NA,NA,NA,left,1488.80000000028,true,NA,NA,NA,NA,NA
KDgsoCyK,3o4vwc1gfzjxgki2d88xs18tr9fj3v,3uxuoq9okia63uefcg3c13di88qa7r,KDgsoCyK,2020-0188,2021-10-14,14:04:15,15:05:14,NA,incomplete,false,true,NA,2,32,NA,blue,m_l_059.jpg,NA,NA,unpleasant,pleasant,NA,NA,NA,NA,NA,left,2151.79999999981,true,NA,NA,NA,NA,NA
KDgsoCyK,3o4vwc1gfzjxgki2d88xs18tr9fj3v,3uxuoq9okia63uefcg3c13di88qa7r,KDgsoCyK,2020-0188,2021-10-14,14:04:15,15:05:14,NA,incomplete,false,true,NA,2,33,NA,blue,m_l_091.jpg,NA,NA,pleasant,unpleasant,NA,NA,NA,NA,NA,left,1184.80000000028,true,NA,NA,NA,NA,NA
KDgsoCyK,3o4vwc1gfzjxgki2d88xs18tr9fj3v,3uxuoq9okia63uefcg3c13di88qa7r,KDgsoCyK,2020-0188,2021-10-14,14:04:15,15:05:14,NA,incomplete,false,true,NA,2,34,NA,blue,m_l_107.jpg,NA,NA,unpleasant,pleasant,NA,NA,NA,NA,NA,left,1784.5,true,NA,NA,NA,NA,NA
KDgsoCyK,3o4vwc1gfzjxgki2d88xs18tr9fj3v,3uxuoq9okia63uefcg3c13di88qa7r,KDgsoCyK,2020-0188,2021-10-14,14:04:15,15:05:14,NA,incomplete,false,true,NA,2,35,NA,blue,m_l_056.jpg,NA,NA,pleasant,unpleasant,NA,NA,NA,NA,NA,left,1809.09999999963,true,NA,NA,NA,NA,NA
KDgsoCyK,3o4vwc1gfzjxgki2d88xs18tr9fj3v,3uxuoq9okia63uefcg3c13di88qa7r,KDgsoCyK,2020-0188,2021-10-14,14:04:15,15:05:14,NA,incomplete,false,NA,true,2,0,NA,NA,NA,right,absent,NA,NA,m_l_056.jpg,blue,n_s_096.jpg,blue,within,NA,NaN,NA,right,2692,1,2,1309.2000000001863
KDgsoCyK,3o4vwc1gfzjxgki2d88xs18tr9fj3v,3uxuoq9okia63uefcg3c13di88qa7r,KDgsoCyK,2020-0188,2021-10-14,14:04:15,15:05:14,NA,incomplete,false,NA,true,2,1,NA,NA,NA,left,absent,NA,NA,m_s_082.jpg,green,n_l_079.jpg,green,within,NA,NaN,NA,right,3997.399999999907,0,1,1252.1000000000931
KDgsoCyK,3o4vwc1gfzjxgki2d88xs18tr9fj3v,3uxuoq9okia63uefcg3c13di88qa7r,KDgsoCyK,2020-0188,2021-10-14,14:04:15,15:05:14,NA,incomplete,false,NA,true,2,2,NA,NA,NA,right,absent,NA,NA,n_l_097.jpg,gray,n_s_052.jpg,gray,within,NA,NaN,NA,right,3193.100000000093,1,1,945
KDgsoCyK,3o4vwc1gfzjxgki2d88xs18tr9fj3v,3uxuoq9okia63uefcg3c13di88qa7r,KDgsoCyK,2020-0188,2021-10-14,14:04:15,15:05:14,NA,incomplete,false,NA,true,2,3,NA,NA,NA,right,absent,NA,NA,n_l_026.jpg,red,m_l_083.jpg,yellow,between,NA,NaN,NA,left,6104.399999999907,0,1,887.7999999998137
KDgsoCyK,3o4vwc1gfzjxgki2d88xs18tr9fj3v,3uxuoq9okia63uefcg3c13di88qa7r,KDgsoCyK,2020-0188,2021-10-14,14:04:15,15:05:14,NA,incomplete,false,NA,true,2,4,NA,NA,NA,right,absent,NA,NA,n_l_007.jpg,red,m_l_095.jpg,red,within,NA,NaN,NA,right,1964.1000000000931,1,2,1422.1000000000931
KDgsoCyK,3o4vwc1gfzjxgki2d88xs18tr9fj3v,3uxuoq9okia63uefcg3c13di88qa7r,KDgsoCyK,2020-0188,2021-10-14,14:04:15,15:05:14,NA,incomplete,false,NA,true,2,5,NA,NA,NA,right,absent,NA,NA,m_l_059.jpg,blue,n_s_094.jpg,white,between,NA,NaN,NA,right,4170.199999999721,1,1,1204.3999999999069
KDgsoCyK,3o4vwc1gfzjxgki2d88xs18tr9fj3v,3uxuoq9okia63uefcg3c13di88qa7r,KDgsoCyK,2020-0188,2021-10-14,14:04:15,15:05:14,NA,incomplete,false,NA,true,2,6,NA,NA,NA,right,absent,NA,NA,n_l_035.jpg,white,n_s_035.jpg,green,between,NA,NaN,NA,left,2909.5,0,1,1649.1999999997206
KDgsoCyK,3o4vwc1gfzjxgki2d88xs18tr9fj3v,3uxuoq9okia63uefcg3c13di88qa7r,KDgsoCyK,2020-0188,2021-10-14,14:04:15,15:05:14,NA,incomplete,false,NA,true,2,7,NA,NA,NA,left,absent,NA,NA,n_l_117.jpg,gray,m_s_004.jpg,yellow,between,NA,NaN,NA,right,1494.5,0,1,1931.4000000003725
KDgsoCyK,3o4vwc1gfzjxgki2d88xs18tr9fj3v,3uxuoq9okia63uefcg3c13di88qa7r,KDgsoCyK,2020-0188,2021-10-14,14:04:15,15:05:14,NA,incomplete,false,NA,true,2,8,NA,NA,NA,left,absent,NA,NA,m_s_074.jpg,yellow,m_l_003.jpg,yellow,within,NA,NaN,NA,left,2692.5,1,1,1567.5
KDgsoCyK,3o4vwc1gfzjxgki2d88xs18tr9fj3v,3uxuoq9okia63uefcg3c13di88qa7r,KDgsoCyK,2020-0188,2021-10-14,14:04:15,15:05:14,NA,incomplete,false,NA,true,2,9,NA,NA,NA,right,absent,NA,NA,n_l_103.jpg,white,n_l_055.jpg,white,within,NA,NaN,NA,right,2239.7999999998137,1,2,1947.3999999999069
KDgsoCyK,3o4vwc1gfzjxgki2d88xs18tr9fj3v,3uxuoq9okia63uefcg3c13di88qa7r,KDgsoCyK,2020-0188,2021-10-14,14:04:15,15:05:14,NA,incomplete,false,NA,true,2,10,NA,NA,NA,left,absent,NA,NA,m_s_114.jpg,red,m_s_021.jpg,green,between,NA,NaN,NA,right,3014.5,0,1,1033.4000000003725
KDgsoCyK,3o4vwc1gfzjxgki2d88xs18tr9fj3v,3uxuoq9okia63uefcg3c13di88qa7r,KDgsoCyK,2020-0188,2021-10-14,14:04:15,15:05:14,NA,incomplete,false,true,NA,3,0,NA,brown,n_l_081.jpg,NA,NA,unpleasant,pleasant,NA,NA,NA,NA,NA,right,2151.19999999972,true,NA,NA,NA,NA,NA
KDgsoCyK,3o4vwc1gfzjxgki2d88xs18tr9fj3v,3uxuoq9okia63uefcg3c13di88qa7r,KDgsoCyK,2020-0188,2021-10-14,14:04:15,15:05:14,NA,incomplete,false,true,NA,3,1,NA,brown,n_s_050.jpg,NA,NA,unpleasant,pleasant,NA,NA,NA,NA,NA,right,2079.80000000028,true,NA,NA,NA,NA,NA
KDgsoCyK,3o4vwc1gfzjxgki2d88xs18tr9fj3v,3uxuoq9okia63uefcg3c13di88qa7r,KDgsoCyK,2020-0188,2021-10-14,14:04:15,15:05:14,NA,incomplete,false,true,NA,3,2,NA,brown,m_l_100.jpg,NA,NA,pleasant,unpleasant,NA,NA,NA,NA,NA,right,2632.60000000009,true,NA,NA,NA,NA,NA
KDgsoCyK,3o4vwc1gfzjxgki2d88xs18tr9fj3v,3uxuoq9okia63uefcg3c13di88qa7r,KDgsoCyK,2020-0188,2021-10-14,14:04:15,15:05:14,NA,incomplete,false,true,NA,3,3,NA,brown,n_s_099.jpg,NA,NA,unpleasant,pleasant,NA,NA,NA,NA,NA,left,2448.89999999991,true,NA,NA,NA,NA,NA
KDgsoCyK,3o4vwc1gfzjxgki2d88xs18tr9fj3v,3uxuoq9okia63uefcg3c13di88qa7r,KDgsoCyK,2020-0188,2021-10-14,14:04:15,15:05:14,NA,incomplete,false,true,NA,3,4,NA,brown,m_s_036.jpg,NA,NA,pleasant,unpleasant,NA,NA,NA,NA,NA,right,1617.60000000009,true,NA,NA,NA,NA,NA
KDgsoCyK,3o4vwc1gfzjxgki2d88xs18tr9fj3v,3uxuoq9okia63uefcg3c13di88qa7r,KDgsoCyK,2020-0188,2021-10-14,14:04:15,15:05:14,NA,incomplete,false,true,NA,3,5,NA,brown,m_s_093.jpg,NA,NA,pleasant,unpleasant,NA,NA,NA,NA,NA,left,1618.5,true,NA,NA,NA,NA,NA
KDgsoCyK,3o4vwc1gfzjxgki2d88xs18tr9fj3v,3uxuoq9okia63uefcg3c13di88qa7r,KDgsoCyK,2020-0188,2021-10-14,14:04:15,15:05:14,NA,incomplete,false,true,NA,3,6,NA,orange,m_s_113.jpg,NA,NA,pleasant,unpleasant,NA,NA,NA,NA,NA,left,1826.79999999981,true,NA,NA,NA,NA,NA
KDgsoCyK,3o4vwc1gfzjxgki2d88xs18tr9fj3v,3uxuoq9okia63uefcg3c13di88qa7r,KDgsoCyK,2020-0188,2021-10-14,14:04:15,15:05:14,NA,incomplete,false,true,NA,3,7,NA,orange,m_l_051.jpg,NA,NA,unpleasant,pleasant,NA,NA,NA,NA,NA,right,2027.5,true,NA,NA,NA,NA,NA
KDgsoCyK,3o4vwc1gfzjxgki2d88xs18tr9fj3v,3uxuoq9okia63uefcg3c13di88qa7r,KDgsoCyK,2020-0188,2021-10-14,14:04:15,15:05:14,NA,incomplete,false,true,NA,3,8,NA,orange,m_s_108.jpg,NA,NA,unpleasant,pleasant,NA,NA,NA,NA,NA,left,1620.20000000019,true,NA,NA,NA,NA,NA
KDgsoCyK,3o4vwc1gfzjxgki2d88xs18tr9fj3v,3uxuoq9okia63uefcg3c13di88qa7r,KDgsoCyK,2020-0188,2021-10-14,14:04:15,15:05:14,NA,incomplete,false,true,NA,3,9,NA,orange,n_l_053.jpg,NA,NA,pleasant,unpleasant,NA,NA,NA,NA,NA,left,2267.90000000037,true,NA,NA,NA,NA,NA
KDgsoCyK,3o4vwc1gfzjxgki2d88xs18tr9fj3v,3uxuoq9okia63uefcg3c13di88qa7r,KDgsoCyK,2020-0188,2021-10-14,14:04:15,15:05:14,NA,incomplete,false,true,NA,3,10,NA,orange,n_s_091.jpg,NA,NA,pleasant,unpleasant,NA,NA,NA,NA,NA,right,1668.5,true,NA,NA,NA,NA,NA
KDgsoCyK,3o4vwc1gfzjxgki2d88xs18tr9fj3v,3uxuoq9okia63uefcg3c13di88qa7r,KDgsoCyK,2020-0188,2021-10-14,14:04:15,15:05:14,NA,incomplete,false,true,NA,3,11,NA,orange,m_s_047.jpg,NA,NA,pleasant,unpleasant,NA,NA,NA,NA,NA,right,2396.69999999972,true,NA,NA,NA,NA,NA
KDgsoCyK,3o4vwc1gfzjxgki2d88xs18tr9fj3v,3uxuoq9okia63uefcg3c13di88qa7r,KDgsoCyK,2020-0188,2021-10-14,14:04:15,15:05:14,NA,incomplete,false,true,NA,3,12,NA,blue,n_s_068.jpg,NA,NA,unpleasant,pleasant,NA,NA,NA,NA,NA,right,1349,true,NA,NA,NA,NA,NA
KDgsoCyK,3o4vwc1gfzjxgki2d88xs18tr9fj3v,3uxuoq9okia63uefcg3c13di88qa7r,KDgsoCyK,2020-0188,2021-10-14,14:04:15,15:05:14,NA,incomplete,false,true,NA,3,13,NA,blue,n_s_034.jpg,NA,NA,pleasant,unpleasant,NA,NA,NA,NA,NA,left,1157.70000000019,true,NA,NA,NA,NA,NA
KDgsoCyK,3o4vwc1gfzjxgki2d88xs18tr9fj3v,3uxuoq9okia63uefcg3c13di88qa7r,KDgsoCyK,2020-0188,2021-10-14,14:04:15,15:05:14,NA,incomplete,false,true,NA,3,14,NA,blue,n_l_037.jpg,NA,NA,unpleasant,pleasant,NA,NA,NA,NA,NA,left,1774.5,true,NA,NA,NA,NA,NA
KDgsoCyK,3o4vwc1gfzjxgki2d88xs18tr9fj3v,3uxuoq9okia63uefcg3c13di88qa7r,KDgsoCyK,2020-0188,2021-10-14,14:04:15,15:05:14,NA,incomplete,false,true,NA,3,15,NA,blue,m_s_065.jpg,NA,NA,pleasant,unpleasant,NA,NA,NA,NA,NA,left,1462.79999999981,true,NA,NA,NA,NA,NA
KDgsoCyK,3o4vwc1gfzjxgki2d88xs18tr9fj3v,3uxuoq9okia63uefcg3c13di88qa7r,KDgsoCyK,2020-0188,2021-10-14,14:04:15,15:05:14,NA,incomplete,false,true,NA,3,16,NA,blue,n_l_036.jpg,NA,NA,pleasant,unpleasant,NA,NA,NA,NA,NA,left,2615.5,true,NA,NA,NA,NA,NA
KDgsoCyK,3o4vwc1gfzjxgki2d88xs18tr9fj3v,3uxuoq9okia63uefcg3c13di88qa7r,KDgsoCyK,2020-0188,2021-10-14,14:04:15,15:05:14,NA,incomplete,false,true,NA,3,17,NA,blue,m_s_015.jpg,NA,NA,pleasant,unpleasant,NA,NA,NA,NA,NA,left,1792.39999999991,true,NA,NA,NA,NA,NA
KDgsoCyK,3o4vwc1gfzjxgki2d88xs18tr9fj3v,3uxuoq9okia63uefcg3c13di88qa7r,KDgsoCyK,2020-0188,2021-10-14,14:04:15,15:05:14,NA,incomplete,false,true,NA,3,18,NA,yellow,m_s_029.jpg,NA,NA,unpleasant,pleasant,NA,NA,NA,NA,NA,right,2016.79999999981,true,NA,NA,NA,NA,NA
KDgsoCyK,3o4vwc1gfzjxgki2d88xs18tr9fj3v,3uxuoq9okia63uefcg3c13di88qa7r,KDgsoCyK,2020-0188,2021-10-14,14:04:15,15:05:14,NA,incomplete,false,true,NA,3,19,NA,yellow,m_l_040.jpg,NA,NA,pleasant,unpleasant,NA,NA,NA,NA,NA,right,2193.30000000028,true,NA,NA,NA,NA,NA
KDgsoCyK,3o4vwc1gfzjxgki2d88xs18tr9fj3v,3uxuoq9okia63uefcg3c13di88qa7r,KDgsoCyK,2020-0188,2021-10-14,14:04:15,15:05:14,NA,incomplete,false,true,NA,3,20,NA,yellow,m_l_076.jpg,NA,NA,pleasant,unpleasant,NA,NA,NA,NA,NA,left,2010.09999999963,true,NA,NA,NA,NA,NA
KDgsoCyK,3o4vwc1gfzjxgki2d88xs18tr9fj3v,3uxuoq9okia63uefcg3c13di88qa7r,KDgsoCyK,2020-0188,2021-10-14,14:04:15,15:05:14,NA,incomplete,false,true,NA,3,21,NA,yellow,n_s_083.jpg,NA,NA,unpleasant,pleasant,NA,NA,NA,NA,NA,right,1930.60000000009,true,NA,NA,NA,NA,NA
KDgsoCyK,3o4vwc1gfzjxgki2d88xs18tr9fj3v,3uxuoq9okia63uefcg3c13di88qa7r,KDgsoCyK,2020-0188,2021-10-14,14:04:15,15:05:14,NA,incomplete,false,true,NA,3,22,NA,yellow,m_l_114.jpg,NA,NA,unpleasant,pleasant,NA,NA,NA,NA,NA,right,2747.20000000019,true,NA,NA,NA,NA,NA
KDgsoCyK,3o4vwc1gfzjxgki2d88xs18tr9fj3v,3uxuoq9okia63uefcg3c13di88qa7r,KDgsoCyK,2020-0188,2021-10-14,14:04:15,15:05:14,NA,incomplete,false,true,NA,3,23,NA,yellow,m_l_042.jpg,NA,NA,unpleasant,pleasant,NA,NA,NA,NA,NA,right,3156.29999999981,true,NA,NA,NA,NA,NA
KDgsoCyK,3o4vwc1gfzjxgki2d88xs18tr9fj3v,3uxuoq9okia63uefcg3c13di88qa7r,KDgsoCyK,2020-0188,2021-10-14,14:04:15,15:05:14,NA,incomplete,false,true,NA,3,24,NA,green,m_l_067.jpg,NA,NA,pleasant,unpleasant,NA,NA,NA,NA,NA,left,2995.79999999981,true,NA,NA,NA,NA,NA
KDgsoCyK,3o4vwc1gfzjxgki2d88xs18tr9fj3v,3uxuoq9okia63uefcg3c13di88qa7r,KDgsoCyK,2020-0188,2021-10-14,14:04:15,15:05:14,NA,incomplete,false,true,NA,3,25,NA,green,n_s_109.jpg,NA,NA,unpleasant,pleasant,NA,NA,NA,NA,NA,right,2756.39999999991,true,NA,NA,NA,NA,NA
KDgsoCyK,3o4vwc1gfzjxgki2d88xs18tr9fj3v,3uxuoq9okia63uefcg3c13di88qa7r,KDgsoCyK,2020-0188,2021-10-14,14:04:15,15:05:14,NA,incomplete,false,true,NA,3,26,NA,green,n_l_049.jpg,NA,NA,unpleasant,pleasant,NA,NA,NA,NA,NA,right,2108.5,true,NA,NA,NA,NA,NA
KDgsoCyK,3o4vwc1gfzjxgki2d88xs18tr9fj3v,3uxuoq9okia63uefcg3c13di88qa7r,KDgsoCyK,2020-0188,2021-10-14,14:04:15,15:05:14,NA,incomplete,false,true,NA,3,27,NA,green,n_l_039.jpg,NA,NA,unpleasant,pleasant,NA,NA,NA,NA,NA,right,1772.80000000028,true,NA,NA,NA,NA,NA
KDgsoCyK,3o4vwc1gfzjxgki2d88xs18tr9fj3v,3uxuoq9okia63uefcg3c13di88qa7r,KDgsoCyK,2020-0188,2021-10-14,14:04:15,15:05:14,NA,incomplete,false,true,NA,3,28,NA,green,n_s_106.jpg,NA,NA,pleasant,unpleasant,NA,NA,NA,NA,NA,left,2796.90000000037,true,NA,NA,NA,NA,NA
KDgsoCyK,3o4vwc1gfzjxgki2d88xs18tr9fj3v,3uxuoq9okia63uefcg3c13di88qa7r,KDgsoCyK,2020-0188,2021-10-14,14:04:15,15:05:14,NA,incomplete,false,true,NA,3,29,NA,green,n_s_038.jpg,NA,NA,unpleasant,pleasant,NA,NA,NA,NA,NA,right,2541.69999999972,true,NA,NA,NA,NA,NA
KDgsoCyK,3o4vwc1gfzjxgki2d88xs18tr9fj3v,3uxuoq9okia63uefcg3c13di88qa7r,KDgsoCyK,2020-0188,2021-10-14,14:04:15,15:05:14,NA,incomplete,false,true,NA,3,30,NA,gray,m_l_034.jpg,NA,NA,unpleasant,pleasant,NA,NA,NA,NA,NA,right,2261.89999999991,true,NA,NA,NA,NA,NA
KDgsoCyK,3o4vwc1gfzjxgki2d88xs18tr9fj3v,3uxuoq9okia63uefcg3c13di88qa7r,KDgsoCyK,2020-0188,2021-10-14,14:04:15,15:05:14,NA,incomplete,false,true,NA,3,31,NA,gray,n_s_067.jpg,NA,NA,pleasant,unpleasant,NA,NA,NA,NA,NA,left,1870.60000000009,true,NA,NA,NA,NA,NA
KDgsoCyK,3o4vwc1gfzjxgki2d88xs18tr9fj3v,3uxuoq9okia63uefcg3c13di88qa7r,KDgsoCyK,2020-0188,2021-10-14,14:04:15,15:05:14,NA,incomplete,false,true,NA,3,32,NA,gray,m_s_098.jpg,NA,NA,unpleasant,pleasant,NA,NA,NA,NA,NA,right,2702.80000000028,true,NA,NA,NA,NA,NA
KDgsoCyK,3o4vwc1gfzjxgki2d88xs18tr9fj3v,3uxuoq9okia63uefcg3c13di88qa7r,KDgsoCyK,2020-0188,2021-10-14,14:04:15,15:05:14,NA,incomplete,false,true,NA,3,33,NA,gray,m_l_075.jpg,NA,NA,unpleasant,pleasant,NA,NA,NA,NA,NA,right,1871.10000000009,true,NA,NA,NA,NA,NA
KDgsoCyK,3o4vwc1gfzjxgki2d88xs18tr9fj3v,3uxuoq9okia63uefcg3c13di88qa7r,KDgsoCyK,2020-0188,2021-10-14,14:04:15,15:05:14,NA,incomplete,false,true,NA,3,34,NA,gray,m_l_011.jpg,NA,NA,pleasant,unpleasant,NA,NA,NA,NA,NA,right,1566.90000000037,true,NA,NA,NA,NA,NA
KDgsoCyK,3o4vwc1gfzjxgki2d88xs18tr9fj3v,3uxuoq9okia63uefcg3c13di88qa7r,KDgsoCyK,2020-0188,2021-10-14,14:04:15,15:05:14,NA,incomplete,false,true,NA,3,35,NA,gray,m_l_046.jpg,NA,NA,unpleasant,pleasant,NA,NA,NA,NA,NA,right,1815.89999999991,true,NA,NA,NA,NA,NA
KDgsoCyK,3o4vwc1gfzjxgki2d88xs18tr9fj3v,3uxuoq9okia63uefcg3c13di88qa7r,KDgsoCyK,2020-0188,2021-10-14,14:04:15,15:05:14,NA,incomplete,false,NA,true,3,0,NA,NA,NA,left,present,NA,NA,n_s_050.jpg,brown,m_s_093.jpg,brown,within,NA,NaN,NA,left,7679.600000000093,1,0,1637
KDgsoCyK,3o4vwc1gfzjxgki2d88xs18tr9fj3v,3uxuoq9okia63uefcg3c13di88qa7r,KDgsoCyK,2020-0188,2021-10-14,14:04:15,15:05:14,NA,incomplete,false,NA,true,3,1,NA,NA,NA,right,present,NA,NA,n_l_049.jpg,green,m_l_114.jpg,yellow,between,NA,NaN,NA,left,3812.3000000002794,0,2,1346.8000000002794
KDgsoCyK,3o4vwc1gfzjxgki2d88xs18tr9fj3v,3uxuoq9okia63uefcg3c13di88qa7r,KDgsoCyK,2020-0188,2021-10-14,14:04:15,15:05:14,NA,incomplete,false,NA,true,3,2,NA,NA,NA,left,present,NA,NA,m_l_040.jpg,yellow,m_l_042.jpg,yellow,within,NA,NaN,NA,left,5955.5999999996275,1,0,986.3000000002794
KDgsoCyK,3o4vwc1gfzjxgki2d88xs18tr9fj3v,3uxuoq9okia63uefcg3c13di88qa7r,KDgsoCyK,2020-0188,2021-10-14,14:04:15,15:05:14,NA,incomplete,false,NA,true,3,3,NA,NA,NA,right,present,NA,NA,n_s_038.jpg,green,n_s_109.jpg,green,within,NA,NaN,NA,right,3596.600000000093,1,0,1164.3000000002794
KDgsoCyK,3o4vwc1gfzjxgki2d88xs18tr9fj3v,3uxuoq9okia63uefcg3c13di88qa7r,KDgsoCyK,2020-0188,2021-10-14,14:04:15,15:05:14,NA,incomplete,false,NA,true,3,4,NA,NA,NA,left,present,NA,NA,m_s_036.jpg,brown,m_s_108.jpg,orange,between,NA,NaN,NA,left,2821.2999999998137,1,1,1470.3999999999069
KDgsoCyK,3o4vwc1gfzjxgki2d88xs18tr9fj3v,3uxuoq9okia63uefcg3c13di88qa7r,KDgsoCyK,2020-0188,2021-10-14,14:04:15,15:05:14,NA,incomplete,false,NA,true,3,5,NA,NA,NA,right,present,NA,NA,m_s_015.jpg,blue,n_s_034.jpg,blue,within,NA,NaN,NA,left,4826.600000000093,0,0,1098.1000000000931
KDgsoCyK,3o4vwc1gfzjxgki2d88xs18tr9fj3v,3uxuoq9okia63uefcg3c13di88qa7r,KDgsoCyK,2020-0188,2021-10-14,14:04:15,15:05:14,NA,incomplete,false,NA,true,3,6,NA,NA,NA,left,present,NA,NA,n_s_067.jpg,gray,m_l_046.jpg,gray,within,NA,NaN,NA,right,3881.7999999998137,0,0,1026
KDgsoCyK,3o4vwc1gfzjxgki2d88xs18tr9fj3v,3uxuoq9okia63uefcg3c13di88qa7r,KDgsoCyK,2020-0188,2021-10-14,14:04:15,15:05:14,NA,incomplete,false,NA,true,3,7,NA,NA,NA,left,present,NA,NA,m_l_051.jpg,orange,m_s_047.jpg,orange,within,NA,NaN,NA,left,5915.600000000093,1,0,2231.3000000002794
KDgsoCyK,3o4vwc1gfzjxgki2d88xs18tr9fj3v,3uxuoq9okia63uefcg3c13di88qa7r,KDgsoCyK,2020-0188,2021-10-14,14:04:15,15:05:14,NA,incomplete,false,NA,true,3,8,NA,NA,NA,left,present,NA,NA,n_s_091.jpg,orange,n_l_037.jpg,blue,between,NA,NaN,NA,left,3097.3000000002794,1,2,1114.5
KDgsoCyK,3o4vwc1gfzjxgki2d88xs18tr9fj3v,3uxuoq9okia63uefcg3c13di88qa7r,KDgsoCyK,2020-0188,2021-10-14,14:04:15,15:05:14,NA,incomplete,false,NA,true,3,9,NA,NA,NA,left,present,NA,NA,n_l_036.jpg,blue,m_l_076.jpg,yellow,between,NA,NaN,NA,right,9505.200000000186,0,2,872
KDgsoCyK,3o4vwc1gfzjxgki2d88xs18tr9fj3v,3uxuoq9okia63uefcg3c13di88qa7r,KDgsoCyK,2020-0188,2021-10-14,14:04:15,15:05:14,NA,incomplete,false,NA,true,3,10,NA,NA,NA,right,present,NA,NA,m_s_098.jpg,gray,n_s_106.jpg,green,between,NA,NaN,NA,right,2789.5,1,2,1156.2000000001863
KDgsoCyK,3o4vwc1gfzjxgki2d88xs18tr9fj3v,3uxuoq9okia63uefcg3c13di88qa7r,KDgsoCyK,2020-0188,2021-10-14,14:04:15,15:05:14,NA,incomplete,false,true,NA,4,0,NA,yellow,n_l_045.jpg,NA,NA,pleasant,unpleasant,NA,NA,NA,NA,NA,left,2390,true,NA,NA,NA,NA,NA
KDgsoCyK,3o4vwc1gfzjxgki2d88xs18tr9fj3v,3uxuoq9okia63uefcg3c13di88qa7r,KDgsoCyK,2020-0188,2021-10-14,14:04:15,15:05:14,NA,incomplete,false,true,NA,4,1,NA,yellow,m_l_005.jpg,NA,NA,pleasant,unpleasant,NA,NA,NA,NA,NA,left,1685.69999999972,true,NA,NA,NA,NA,NA
KDgsoCyK,3o4vwc1gfzjxgki2d88xs18tr9fj3v,3uxuoq9okia63uefcg3c13di88qa7r,KDgsoCyK,2020-0188,2021-10-14,14:04:15,15:05:14,NA,incomplete,false,true,NA,4,2,NA,yellow,m_l_035.jpg,NA,NA,unpleasant,pleasant,NA,NA,NA,NA,NA,right,1398.10000000009,true,NA,NA,NA,NA,NA
KDgsoCyK,3o4vwc1gfzjxgki2d88xs18tr9fj3v,3uxuoq9okia63uefcg3c13di88qa7r,KDgsoCyK,2020-0188,2021-10-14,14:04:15,15:05:14,NA,incomplete,false,true,NA,4,3,NA,yellow,m_l_069.jpg,NA,NA,unpleasant,pleasant,NA,NA,NA,NA,NA,left,1822.5,true,NA,NA,NA,NA,NA
KDgsoCyK,3o4vwc1gfzjxgki2d88xs18tr9fj3v,3uxuoq9okia63uefcg3c13di88qa7r,KDgsoCyK,2020-0188,2021-10-14,14:04:15,15:05:14,NA,incomplete,false,true,NA,4,4,NA,yellow,n_s_042.jpg,NA,NA,pleasant,unpleasant,NA,NA,NA,NA,NA,right,1590.5,true,NA,NA,NA,NA,NA
KDgsoCyK,3o4vwc1gfzjxgki2d88xs18tr9fj3v,3uxuoq9okia63uefcg3c13di88qa7r,KDgsoCyK,2020-0188,2021-10-14,14:04:15,15:05:14,NA,incomplete,false,true,NA,4,5,NA,yellow,n_l_106.jpg,NA,NA,unpleasant,pleasant,NA,NA,NA,NA,NA,right,1271.20000000019,true,NA,NA,NA,NA,NA
KDgsoCyK,3o4vwc1gfzjxgki2d88xs18tr9fj3v,3uxuoq9okia63uefcg3c13di88qa7r,KDgsoCyK,2020-0188,2021-10-14,14:04:15,15:05:14,NA,incomplete,false,true,NA,4,6,NA,green,m_l_098.jpg,NA,NA,pleasant,unpleasant,NA,NA,NA,NA,NA,left,1590.90000000037,true,NA,NA,NA,NA,NA
KDgsoCyK,3o4vwc1gfzjxgki2d88xs18tr9fj3v,3uxuoq9okia63uefcg3c13di88qa7r,KDgsoCyK,2020-0188,2021-10-14,14:04:15,15:05:14,NA,incomplete,false,true,NA,4,7,NA,green,n_l_090.jpg,NA,NA,pleasant,unpleasant,NA,NA,NA,NA,NA,right,1871.60000000009,true,NA,NA,NA,NA,NA
KDgsoCyK,3o4vwc1gfzjxgki2d88xs18tr9fj3v,3uxuoq9okia63uefcg3c13di88qa7r,KDgsoCyK,2020-0188,2021-10-14,14:04:15,15:05:14,NA,incomplete,false,true,NA,4,8,NA,green,m_l_036.jpg,NA,NA,pleasant,unpleasant,NA,NA,NA,NA,NA,left,1551.59999999963,true,NA,NA,NA,NA,NA
KDgsoCyK,3o4vwc1gfzjxgki2d88xs18tr9fj3v,3uxuoq9okia63uefcg3c13di88qa7r,KDgsoCyK,2020-0188,2021-10-14,14:04:15,15:05:14,NA,incomplete,false,true,NA,4,9,NA,green,n_s_039.jpg,NA,NA,pleasant,unpleasant,NA,NA,NA,NA,NA,left,1047.39999999991,true,NA,NA,NA,NA,NA
KDgsoCyK,3o4vwc1gfzjxgki2d88xs18tr9fj3v,3uxuoq9okia63uefcg3c13di88qa7r,KDgsoCyK,2020-0188,2021-10-14,14:04:15,15:05:14,NA,incomplete,false,true,NA,4,10,NA,green,n_l_072.jpg,NA,NA,pleasant,unpleasant,NA,NA,NA,NA,NA,right,1664.10000000009,true,NA,NA,NA,NA,NA
KDgsoCyK,3o4vwc1gfzjxgki2d88xs18tr9fj3v,3uxuoq9okia63uefcg3c13di88qa7r,KDgsoCyK,2020-0188,2021-10-14,14:04:15,15:05:14,NA,incomplete,false,true,NA,4,11,NA,green,m_s_042.jpg,NA,NA,pleasant,unpleasant,NA,NA,NA,NA,NA,left,1112.90000000037,true,NA,NA,NA,NA,NA
KDgsoCyK,3o4vwc1gfzjxgki2d88xs18tr9fj3v,3uxuoq9okia63uefcg3c13di88qa7r,KDgsoCyK,2020-0188,2021-10-14,14:04:15,15:05:14,NA,incomplete,false,true,NA,4,12,NA,orange,m_l_065.jpg,NA,NA,unpleasant,pleasant,NA,NA,NA,NA,NA,right,1577.19999999972,true,NA,NA,NA,NA,NA
KDgsoCyK,3o4vwc1gfzjxgki2d88xs18tr9fj3v,3uxuoq9okia63uefcg3c13di88qa7r,KDgsoCyK,2020-0188,2021-10-14,14:04:15,15:05:14,NA,incomplete,false,true,NA,4,13,NA,orange,n_s_102.jpg,NA,NA,unpleasant,pleasant,NA,NA,NA,NA,NA,right,2210.20000000019,true,NA,NA,NA,NA,NA
KDgsoCyK,3o4vwc1gfzjxgki2d88xs18tr9fj3v,3uxuoq9okia63uefcg3c13di88qa7r,KDgsoCyK,2020-0188,2021-10-14,14:04:15,15:05:14,NA,incomplete,false,true,NA,4,14,NA,orange,n_s_085.jpg,NA,NA,pleasant,unpleasant,NA,NA,NA,NA,NA,left,1226.30000000028,true,NA,NA,NA,NA,NA
KDgsoCyK,3o4vwc1gfzjxgki2d88xs18tr9fj3v,3uxuoq9okia63uefcg3c13di88qa7r,KDgsoCyK,2020-0188,2021-10-14,14:04:15,15:05:14,NA,incomplete,false,true,NA,4,15,NA,orange,m_s_016.jpg,NA,NA,pleasant,unpleasant,NA,NA,NA,NA,NA,left,1299,true,NA,NA,NA,NA,NA
KDgsoCyK,3o4vwc1gfzjxgki2d88xs18tr9fj3v,3uxuoq9okia63uefcg3c13di88qa7r,KDgsoCyK,2020-0188,2021-10-14,14:04:15,15:05:14,NA,incomplete,false,true,NA,4,16,NA,orange,n_l_069.jpg,NA,NA,pleasant,unpleasant,NA,NA,NA,NA,NA,left,1404,true,NA,NA,NA,NA,NA
KDgsoCyK,3o4vwc1gfzjxgki2d88xs18tr9fj3v,3uxuoq9okia63uefcg3c13di88qa7r,KDgsoCyK,2020-0188,2021-10-14,14:04:15,15:05:14,NA,incomplete,false,true,NA,4,17,NA,orange,m_l_104.jpg,NA,NA,unpleasant,pleasant,NA,NA,NA,NA,NA,right,1875.60000000009,true,NA,NA,NA,NA,NA
KDgsoCyK,3o4vwc1gfzjxgki2d88xs18tr9fj3v,3uxuoq9okia63uefcg3c13di88qa7r,KDgsoCyK,2020-0188,2021-10-14,14:04:15,15:05:14,NA,incomplete,false,true,NA,4,18,NA,purple,m_l_071.jpg,NA,NA,unpleasant,pleasant,NA,NA,NA,NA,NA,right,1412.10000000009,true,NA,NA,NA,NA,NA
KDgsoCyK,3o4vwc1gfzjxgki2d88xs18tr9fj3v,3uxuoq9okia63uefcg3c13di88qa7r,KDgsoCyK,2020-0188,2021-10-14,14:04:15,15:05:14,NA,incomplete,false,true,NA,4,19,NA,purple,m_l_066.jpg,NA,NA,pleasant,unpleasant,NA,NA,NA,NA,NA,left,1421,true,NA,NA,NA,NA,NA
KDgsoCyK,3o4vwc1gfzjxgki2d88xs18tr9fj3v,3uxuoq9okia63uefcg3c13di88qa7r,KDgsoCyK,2020-0188,2021-10-14,14:04:15,15:05:14,NA,incomplete,false,true,NA,4,20,NA,purple,n_l_054.jpg,NA,NA,pleasant,unpleasant,NA,NA,NA,NA,NA,left,1284.59999999963,true,NA,NA,NA,NA,NA
KDgsoCyK,3o4vwc1gfzjxgki2d88xs18tr9fj3v,3uxuoq9okia63uefcg3c13di88qa7r,KDgsoCyK,2020-0188,2021-10-14,14:04:15,15:05:14,NA,incomplete,false,true,NA,4,21,NA,purple,n_s_026.jpg,NA,NA,unpleasant,pleasant,NA,NA,NA,NA,NA,left,1613.29999999981,true,NA,NA,NA,NA,NA
KDgsoCyK,3o4vwc1gfzjxgki2d88xs18tr9fj3v,3uxuoq9okia63uefcg3c13di88qa7r,KDgsoCyK,2020-0188,2021-10-14,14:04:15,15:05:14,NA,incomplete,false,true,NA,4,22,NA,purple,n_l_083.jpg,NA,NA,pleasant,unpleasant,NA,NA,NA,NA,NA,left,1662.30000000028,true,NA,NA,NA,NA,NA
KDgsoCyK,3o4vwc1gfzjxgki2d88xs18tr9fj3v,3uxuoq9okia63uefcg3c13di88qa7r,KDgsoCyK,2020-0188,2021-10-14,14:04:15,15:05:14,NA,incomplete,false,true,NA,4,23,NA,purple,n_s_061.jpg,NA,NA,pleasant,unpleasant,NA,NA,NA,NA,NA,left,1822.69999999972,true,NA,NA,NA,NA,NA
KDgsoCyK,3o4vwc1gfzjxgki2d88xs18tr9fj3v,3uxuoq9okia63uefcg3c13di88qa7r,KDgsoCyK,2020-0188,2021-10-14,14:04:15,15:05:14,NA,incomplete,false,true,NA,4,24,NA,blue,n_l_043.jpg,NA,NA,pleasant,unpleasant,NA,NA,NA,NA,NA,left,1686.5,true,NA,NA,NA,NA,NA
KDgsoCyK,3o4vwc1gfzjxgki2d88xs18tr9fj3v,3uxuoq9okia63uefcg3c13di88qa7r,KDgsoCyK,2020-0188,2021-10-14,14:04:15,15:05:14,NA,incomplete,false,true,NA,4,25,NA,blue,n_l_080.jpg,NA,NA,unpleasant,pleasant,NA,NA,NA,NA,NA,right,1142.69999999972,true,NA,NA,NA,NA,NA
KDgsoCyK,3o4vwc1gfzjxgki2d88xs18tr9fj3v,3uxuoq9okia63uefcg3c13di88qa7r,KDgsoCyK,2020-0188,2021-10-14,14:04:15,15:05:14,NA,incomplete,false,true,NA,4,26,NA,blue,n_l_014.jpg,NA,NA,unpleasant,pleasant,NA,NA,NA,NA,NA,right,1583.10000000009,true,NA,NA,NA,NA,NA
KDgsoCyK,3o4vwc1gfzjxgki2d88xs18tr9fj3v,3uxuoq9okia63uefcg3c13di88qa7r,KDgsoCyK,2020-0188,2021-10-14,14:04:15,15:05:14,NA,incomplete,false,true,NA,4,27,NA,blue,n_l_011.jpg,NA,NA,unpleasant,pleasant,NA,NA,NA,NA,NA,right,1207.60000000009,true,NA,NA,NA,NA,NA
KDgsoCyK,3o4vwc1gfzjxgki2d88xs18tr9fj3v,3uxuoq9okia63uefcg3c13di88qa7r,KDgsoCyK,2020-0188,2021-10-14,14:04:15,15:05:14,NA,incomplete,false,true,NA,4,28,NA,blue,n_s_033.jpg,NA,NA,unpleasant,pleasant,NA,NA,NA,NA,NA,right,1056.5,true,NA,NA,NA,NA,NA
KDgsoCyK,3o4vwc1gfzjxgki2d88xs18tr9fj3v,3uxuoq9okia63uefcg3c13di88qa7r,KDgsoCyK,2020-0188,2021-10-14,14:04:15,15:05:14,NA,incomplete,false,true,NA,4,29,NA,blue,m_l_101.jpg,NA,NA,pleasant,unpleasant,NA,NA,NA,NA,NA,left,1088.89999999991,true,NA,NA,NA,NA,NA
KDgsoCyK,3o4vwc1gfzjxgki2d88xs18tr9fj3v,3uxuoq9okia63uefcg3c13di88qa7r,KDgsoCyK,2020-0188,2021-10-14,14:04:15,15:05:14,NA,incomplete,false,true,NA,4,30,NA,gray,m_l_029.jpg,NA,NA,unpleasant,pleasant,NA,NA,NA,NA,NA,right,1208.60000000009,true,NA,NA,NA,NA,NA
KDgsoCyK,3o4vwc1gfzjxgki2d88xs18tr9fj3v,3uxuoq9okia63uefcg3c13di88qa7r,KDgsoCyK,2020-0188,2021-10-14,14:04:15,15:05:14,NA,incomplete,false,true,NA,4,31,NA,gray,n_l_082.jpg,NA,NA,unpleasant,pleasant,NA,NA,NA,NA,NA,right,2017.70000000019,true,NA,NA,NA,NA,NA
KDgsoCyK,3o4vwc1gfzjxgki2d88xs18tr9fj3v,3uxuoq9okia63uefcg3c13di88qa7r,KDgsoCyK,2020-0188,2021-10-14,14:04:15,15:05:14,NA,incomplete,false,true,NA,4,32,NA,gray,m_l_015.jpg,NA,NA,pleasant,unpleasant,NA,NA,NA,NA,NA,left,1105.30000000028,true,NA,NA,NA,NA,NA
KDgsoCyK,3o4vwc1gfzjxgki2d88xs18tr9fj3v,3uxuoq9okia63uefcg3c13di88qa7r,KDgsoCyK,2020-0188,2021-10-14,14:04:15,15:05:14,NA,incomplete,false,true,NA,4,33,NA,gray,n_s_088.jpg,NA,NA,pleasant,unpleasant,NA,NA,NA,NA,NA,left,1025.89999999991,true,NA,NA,NA,NA,NA
KDgsoCyK,3o4vwc1gfzjxgki2d88xs18tr9fj3v,3uxuoq9okia63uefcg3c13di88qa7r,KDgsoCyK,2020-0188,2021-10-14,14:04:15,15:05:14,NA,incomplete,false,true,NA,4,34,NA,gray,m_s_084.jpg,NA,NA,pleasant,unpleasant,NA,NA,NA,NA,NA,left,922,true,NA,NA,NA,NA,NA
KDgsoCyK,3o4vwc1gfzjxgki2d88xs18tr9fj3v,3uxuoq9okia63uefcg3c13di88qa7r,KDgsoCyK,2020-0188,2021-10-14,14:04:15,15:05:14,NA,incomplete,false,true,NA,4,35,NA,gray,n_l_088.jpg,NA,NA,unpleasant,pleasant,NA,NA,NA,NA,NA,right,1322.39999999991,true,NA,NA,NA,NA,NA
KDgsoCyK,3o4vwc1gfzjxgki2d88xs18tr9fj3v,3uxuoq9okia63uefcg3c13di88qa7r,KDgsoCyK,2020-0188,2021-10-14,14:04:15,15:05:14,NA,incomplete,false,NA,true,4,0,NA,NA,NA,right,present,NA,NA,n_s_061.jpg,purple,m_l_066.jpg,purple,within,NA,NaN,NA,left,18131.5,0,0,1624.1999999997206
KDgsoCyK,3o4vwc1gfzjxgki2d88xs18tr9fj3v,3uxuoq9okia63uefcg3c13di88qa7r,KDgsoCyK,2020-0188,2021-10-14,14:04:15,15:05:14,NA,incomplete,false,NA,true,4,1,NA,NA,NA,right,present,NA,NA,m_l_015.jpg,gray,n_s_033.jpg,blue,between,NA,NaN,NA,left,17703.600000000093,0,2,1527
KDgsoCyK,3o4vwc1gfzjxgki2d88xs18tr9fj3v,3uxuoq9okia63uefcg3c13di88qa7r,KDgsoCyK,2020-0188,2021-10-14,14:04:15,15:05:14,NA,incomplete,false,NA,true,4,2,NA,NA,NA,left,present,NA,NA,n_l_090.jpg,green,m_s_042.jpg,green,within,NA,NaN,NA,left,4663,1,0,1834.1000000000931
KDgsoCyK,3o4vwc1gfzjxgki2d88xs18tr9fj3v,3uxuoq9okia63uefcg3c13di88qa7r,KDgsoCyK,2020-0188,2021-10-14,14:04:15,15:05:14,NA,incomplete,false,NA,true,4,3,NA,NA,NA,right,present,NA,NA,n_l_106.jpg,yellow,m_l_005.jpg,yellow,within,NA,NaN,NA,right,2327,1,0,1130.5
KDgsoCyK,3o4vwc1gfzjxgki2d88xs18tr9fj3v,3uxuoq9okia63uefcg3c13di88qa7r,KDgsoCyK,2020-0188,2021-10-14,14:04:15,15:05:14,NA,incomplete,false,NA,true,4,4,NA,NA,NA,left,present,NA,NA,n_s_042.jpg,yellow,m_l_036.jpg,green,between,NA,NaN,NA,left,2773.100000000093,1,2,2159.2000000001863
KDgsoCyK,3o4vwc1gfzjxgki2d88xs18tr9fj3v,3uxuoq9okia63uefcg3c13di88qa7r,KDgsoCyK,2020-0188,2021-10-14,14:04:15,15:05:14,NA,incomplete,false,NA,true,4,5,NA,NA,NA,right,present,NA,NA,n_l_088.jpg,gray,n_l_082.jpg,gray,within,NA,NaN,NA,right,2546.7999999998137,1,0,1059.0999999996275
KDgsoCyK,3o4vwc1gfzjxgki2d88xs18tr9fj3v,3uxuoq9okia63uefcg3c13di88qa7r,KDgsoCyK,2020-0188,2021-10-14,14:04:15,15:05:14,NA,incomplete,false,NA,true,4,6,NA,NA,NA,left,present,NA,NA,n_l_083.jpg,purple,n_l_014.jpg,blue,between,NA,NaN,NA,right,2927.5,0,2,1138.8999999999069
KDgsoCyK,3o4vwc1gfzjxgki2d88xs18tr9fj3v,3uxuoq9okia63uefcg3c13di88qa7r,KDgsoCyK,2020-0188,2021-10-14,14:04:15,15:05:14,NA,incomplete,false,NA,true,4,7,NA,NA,NA,right,present,NA,NA,n_s_085.jpg,orange,n_l_072.jpg,green,between,NA,NaN,NA,left,2376.399999999907,0,3,1074.1000000000931
KDgsoCyK,3o4vwc1gfzjxgki2d88xs18tr9fj3v,3uxuoq9okia63uefcg3c13di88qa7r,KDgsoCyK,2020-0188,2021-10-14,14:04:15,15:05:14,NA,incomplete,false,NA,true,4,8,NA,NA,NA,left,present,NA,NA,n_s_102.jpg,orange,m_l_104.jpg,orange,within,NA,NaN,NA,right,2853.4000000003725,0,0,1187.3999999999069
KDgsoCyK,3o4vwc1gfzjxgki2d88xs18tr9fj3v,3uxuoq9okia63uefcg3c13di88qa7r,KDgsoCyK,2020-0188,2021-10-14,14:04:15,15:05:14,NA,incomplete,false,NA,true,4,9,NA,NA,NA,left,present,NA,NA,n_l_069.jpg,orange,n_l_054.jpg,purple,between,NA,NaN,NA,left,2077.2000000001863,1,2,1422
KDgsoCyK,3o4vwc1gfzjxgki2d88xs18tr9fj3v,3uxuoq9okia63uefcg3c13di88qa7r,KDgsoCyK,2020-0188,2021-10-14,14:04:15,15:05:14,NA,incomplete,false,NA,true,4,10,NA,NA,NA,left,present,NA,NA,n_l_080.jpg,blue,m_l_101.jpg,blue,within,NA,NaN,NA,left,1874.1000000000931,1,0,993.1000000000931
KDgsoCyK,3o4vwc1gfzjxgki2d88xs18tr9fj3v,3uxuoq9okia63uefcg3c13di88qa7r,KDgsoCyK,2020-0188,2021-10-14,14:04:15,15:05:14,NA,incomplete,false,true,NA,5,0,NA,white,n_s_059.jpg,NA,NA,pleasant,unpleasant,NA,NA,NA,NA,NA,left,2098.39999999991,true,NA,NA,NA,NA,NA
KDgsoCyK,3o4vwc1gfzjxgki2d88xs18tr9fj3v,3uxuoq9okia63uefcg3c13di88qa7r,KDgsoCyK,2020-0188,2021-10-14,14:04:15,15:05:14,NA,incomplete,false,true,NA,5,1,NA,white,m_l_088.jpg,NA,NA,pleasant,unpleasant,NA,NA,NA,NA,NA,left,1258.39999999991,true,NA,NA,NA,NA,NA
KDgsoCyK,3o4vwc1gfzjxgki2d88xs18tr9fj3v,3uxuoq9okia63uefcg3c13di88qa7r,KDgsoCyK,2020-0188,2021-10-14,14:04:15,15:05:14,NA,incomplete,false,true,NA,5,2,NA,white,m_l_037.jpg,NA,NA,unpleasant,pleasant,NA,NA,NA,NA,NA,right,1203.10000000009,true,NA,NA,NA,NA,NA
KDgsoCyK,3o4vwc1gfzjxgki2d88xs18tr9fj3v,3uxuoq9okia63uefcg3c13di88qa7r,KDgsoCyK,2020-0188,2021-10-14,14:04:15,15:05:14,NA,incomplete,false,true,NA,5,3,NA,white,m_s_073.jpg,NA,NA,pleasant,unpleasant,NA,NA,NA,NA,NA,left,1763.40000000037,true,NA,NA,NA,NA,NA
KDgsoCyK,3o4vwc1gfzjxgki2d88xs18tr9fj3v,3uxuoq9okia63uefcg3c13di88qa7r,KDgsoCyK,2020-0188,2021-10-14,14:04:15,15:05:14,NA,incomplete,false,true,NA,5,4,NA,white,n_s_105.jpg,NA,NA,unpleasant,pleasant,NA,NA,NA,NA,NA,right,1603.59999999963,true,NA,NA,NA,NA,NA
KDgsoCyK,3o4vwc1gfzjxgki2d88xs18tr9fj3v,3uxuoq9okia63uefcg3c13di88qa7r,KDgsoCyK,2020-0188,2021-10-14,14:04:15,15:05:14,NA,incomplete,false,true,NA,5,5,NA,white,m_s_035.jpg,NA,NA,pleasant,unpleasant,NA,NA,NA,NA,NA,left,1275.69999999972,true,NA,NA,NA,NA,NA
KDgsoCyK,3o4vwc1gfzjxgki2d88xs18tr9fj3v,3uxuoq9okia63uefcg3c13di88qa7r,KDgsoCyK,2020-0188,2021-10-14,14:04:15,15:05:14,NA,incomplete,false,true,NA,5,6,NA,brown,m_s_095.jpg,NA,NA,pleasant,unpleasant,NA,NA,NA,NA,NA,left,1116.39999999991,true,NA,NA,NA,NA,NA
KDgsoCyK,3o4vwc1gfzjxgki2d88xs18tr9fj3v,3uxuoq9okia63uefcg3c13di88qa7r,KDgsoCyK,2020-0188,2021-10-14,14:04:15,15:05:14,NA,incomplete,false,true,NA,5,7,NA,brown,n_l_025.jpg,NA,NA,pleasant,unpleasant,NA,NA,NA,NA,NA,left,1781,true,NA,NA,NA,NA,NA
KDgsoCyK,3o4vwc1gfzjxgki2d88xs18tr9fj3v,3uxuoq9okia63uefcg3c13di88qa7r,KDgsoCyK,2020-0188,2021-10-14,14:04:15,15:05:14,NA,incomplete,false,true,NA,5,8,NA,brown,n_s_115.jpg,NA,NA,unpleasant,pleasant,NA,NA,NA,NA,NA,left,1677.39999999991,true,NA,NA,NA,NA,NA
KDgsoCyK,3o4vwc1gfzjxgki2d88xs18tr9fj3v,3uxuoq9okia63uefcg3c13di88qa7r,KDgsoCyK,2020-0188,2021-10-14,14:04:15,15:05:14,NA,incomplete,false,true,NA,5,9,NA,brown,n_s_053.jpg,NA,NA,pleasant,unpleasant,NA,NA,NA,NA,NA,left,1766.39999999991,true,NA,NA,NA,NA,NA
KDgsoCyK,3o4vwc1gfzjxgki2d88xs18tr9fj3v,3uxuoq9okia63uefcg3c13di88qa7r,KDgsoCyK,2020-0188,2021-10-14,14:04:15,15:05:14,NA,incomplete,false,true,NA,5,10,NA,brown,n_s_070.jpg,NA,NA,pleasant,unpleasant,NA,NA,NA,NA,NA,left,1246.60000000009,true,NA,NA,NA,NA,NA
KDgsoCyK,3o4vwc1gfzjxgki2d88xs18tr9fj3v,3uxuoq9okia63uefcg3c13di88qa7r,KDgsoCyK,2020-0188,2021-10-14,14:04:15,15:05:14,NA,incomplete,false,true,NA,5,11,NA,brown,m_s_064.jpg,NA,NA,unpleasant,pleasant,NA,NA,NA,NA,NA,right,1287.29999999981,true,NA,NA,NA,NA,NA
KDgsoCyK,3o4vwc1gfzjxgki2d88xs18tr9fj3v,3uxuoq9okia63uefcg3c13di88qa7r,KDgsoCyK,2020-0188,2021-10-14,14:04:15,15:05:14,NA,incomplete,false,true,NA,5,12,NA,black,n_l_067.jpg,NA,NA,pleasant,unpleasant,NA,NA,NA,NA,NA,left,1439.59999999963,true,NA,NA,NA,NA,NA
KDgsoCyK,3o4vwc1gfzjxgki2d88xs18tr9fj3v,3uxuoq9okia63uefcg3c13di88qa7r,KDgsoCyK,2020-0188,2021-10-14,14:04:15,15:05:14,NA,incomplete,false,true,NA,5,13,NA,black,n_l_046.jpg,NA,NA,pleasant,unpleasant,NA,NA,NA,NA,NA,left,1007.09999999963,true,NA,NA,NA,NA,NA
KDgsoCyK,3o4vwc1gfzjxgki2d88xs18tr9fj3v,3uxuoq9okia63uefcg3c13di88qa7r,KDgsoCyK,2020-0188,2021-10-14,14:04:15,15:05:14,NA,incomplete,false,true,NA,5,14,NA,black,m_s_010.jpg,NA,NA,unpleasant,pleasant,NA,NA,NA,NA,NA,right,1479.79999999981,true,NA,NA,NA,NA,NA
KDgsoCyK,3o4vwc1gfzjxgki2d88xs18tr9fj3v,3uxuoq9okia63uefcg3c13di88qa7r,KDgsoCyK,2020-0188,2021-10-14,14:04:15,15:05:14,NA,incomplete,false,true,NA,5,15,NA,black,m_l_077.jpg,NA,NA,pleasant,unpleasant,NA,NA,NA,NA,NA,left,1336.70000000019,true,NA,NA,NA,NA,NA
KDgsoCyK,3o4vwc1gfzjxgki2d88xs18tr9fj3v,3uxuoq9okia63uefcg3c13di88qa7r,KDgsoCyK,2020-0188,2021-10-14,14:04:15,15:05:14,NA,incomplete,false,true,NA,5,16,NA,black,n_l_048.jpg,NA,NA,unpleasant,pleasant,NA,NA,NA,NA,NA,right,1888.10000000009,true,NA,NA,NA,NA,NA
KDgsoCyK,3o4vwc1gfzjxgki2d88xs18tr9fj3v,3uxuoq9okia63uefcg3c13di88qa7r,KDgsoCyK,2020-0188,2021-10-14,14:04:15,15:05:14,NA,incomplete,false,true,NA,5,17,NA,black,m_l_028.jpg,NA,NA,pleasant,unpleasant,NA,NA,NA,NA,NA,left,1160.20000000019,true,NA,NA,NA,NA,NA
KDgsoCyK,3o4vwc1gfzjxgki2d88xs18tr9fj3v,3uxuoq9okia63uefcg3c13di88qa7r,KDgsoCyK,2020-0188,2021-10-14,14:04:15,15:05:14,NA,incomplete,false,true,NA,5,18,NA,gray,m_l_109.jpg,NA,NA,pleasant,unpleasant,NA,NA,NA,NA,NA,left,2025.20000000019,true,NA,NA,NA,NA,NA
KDgsoCyK,3o4vwc1gfzjxgki2d88xs18tr9fj3v,3uxuoq9okia63uefcg3c13di88qa7r,KDgsoCyK,2020-0188,2021-10-14,14:04:15,15:05:14,NA,incomplete,false,true,NA,5,19,NA,gray,m_l_050.jpg,NA,NA,pleasant,unpleasant,NA,NA,NA,NA,NA,left,1473.39999999991,true,NA,NA,NA,NA,NA
KDgsoCyK,3o4vwc1gfzjxgki2d88xs18tr9fj3v,3uxuoq9okia63uefcg3c13di88qa7r,KDgsoCyK,2020-0188,2021-10-14,14:04:15,15:05:14,NA,incomplete,false,true,NA,5,20,NA,gray,n_l_066.jpg,NA,NA,unpleasant,pleasant,NA,NA,NA,NA,NA,right,1834.20000000019,true,NA,NA,NA,NA,NA
KDgsoCyK,3o4vwc1gfzjxgki2d88xs18tr9fj3v,3uxuoq9okia63uefcg3c13di88qa7r,KDgsoCyK,2020-0188,2021-10-14,14:04:15,15:05:14,NA,incomplete,false,true,NA,5,21,NA,gray,n_s_098.jpg,NA,NA,unpleasant,pleasant,NA,NA,NA,NA,NA,right,1810.89999999991,true,NA,NA,NA,NA,NA
KDgsoCyK,3o4vwc1gfzjxgki2d88xs18tr9fj3v,3uxuoq9okia63uefcg3c13di88qa7r,KDgsoCyK,2020-0188,2021-10-14,14:04:15,15:05:14,NA,incomplete,false,true,NA,5,22,NA,gray,n_s_082.jpg,NA,NA,unpleasant,pleasant,NA,NA,NA,NA,NA,right,2643.29999999981,true,NA,NA,NA,NA,NA
KDgsoCyK,3o4vwc1gfzjxgki2d88xs18tr9fj3v,3uxuoq9okia63uefcg3c13di88qa7r,KDgsoCyK,2020-0188,2021-10-14,14:04:15,15:05:14,NA,incomplete,false,true,NA,5,23,NA,gray,m_s_033.jpg,NA,NA,unpleasant,pleasant,NA,NA,NA,NA,NA,right,1659.89999999991,true,NA,NA,NA,NA,NA
KDgsoCyK,3o4vwc1gfzjxgki2d88xs18tr9fj3v,3uxuoq9okia63uefcg3c13di88qa7r,KDgsoCyK,2020-0188,2021-10-14,14:04:15,15:05:14,NA,incomplete,false,true,NA,5,24,NA,orange,m_s_019.jpg,NA,NA,unpleasant,pleasant,NA,NA,NA,NA,NA,right,1284.69999999972,true,NA,NA,NA,NA,NA
KDgsoCyK,3o4vwc1gfzjxgki2d88xs18tr9fj3v,3uxuoq9okia63uefcg3c13di88qa7r,KDgsoCyK,2020-0188,2021-10-14,14:04:15,15:05:14,NA,incomplete,false,true,NA,5,25,NA,orange,m_l_063.jpg,NA,NA,pleasant,unpleasant,NA,NA,NA,NA,NA,left,1485,true,NA,NA,NA,NA,NA
KDgsoCyK,3o4vwc1gfzjxgki2d88xs18tr9fj3v,3uxuoq9okia63uefcg3c13di88qa7r,KDgsoCyK,2020-0188,2021-10-14,14:04:15,15:05:14,NA,incomplete,false,true,NA,5,26,NA,orange,m_s_077.jpg,NA,NA,unpleasant,pleasant,NA,NA,NA,NA,NA,right,1317.80000000028,true,NA,NA,NA,NA,NA
KDgsoCyK,3o4vwc1gfzjxgki2d88xs18tr9fj3v,3uxuoq9okia63uefcg3c13di88qa7r,KDgsoCyK,2020-0188,2021-10-14,14:04:15,15:05:14,NA,incomplete,false,true,NA,5,27,NA,orange,n_s_049.jpg,NA,NA,pleasant,unpleasant,NA,NA,NA,NA,NA,right,1190.5,true,NA,NA,NA,NA,NA
KDgsoCyK,3o4vwc1gfzjxgki2d88xs18tr9fj3v,3uxuoq9okia63uefcg3c13di88qa7r,KDgsoCyK,2020-0188,2021-10-14,14:04:15,15:05:14,NA,incomplete,false,true,NA,5,28,NA,orange,n_l_102.jpg,NA,NA,pleasant,unpleasant,NA,NA,NA,NA,NA,left,1126.89999999991,true,NA,NA,NA,NA,NA
KDgsoCyK,3o4vwc1gfzjxgki2d88xs18tr9fj3v,3uxuoq9okia63uefcg3c13di88qa7r,KDgsoCyK,2020-0188,2021-10-14,14:04:15,15:05:14,NA,incomplete,false,true,NA,5,29,NA,orange,n_s_114.jpg,NA,NA,pleasant,unpleasant,NA,NA,NA,NA,NA,left,1239.5,true,NA,NA,NA,NA,NA
KDgsoCyK,3o4vwc1gfzjxgki2d88xs18tr9fj3v,3uxuoq9okia63uefcg3c13di88qa7r,KDgsoCyK,2020-0188,2021-10-14,14:04:15,15:05:14,NA,incomplete,false,true,NA,5,30,NA,yellow,m_l_022.jpg,NA,NA,pleasant,unpleasant,NA,NA,NA,NA,NA,left,1552.29999999981,true,NA,NA,NA,NA,NA
KDgsoCyK,3o4vwc1gfzjxgki2d88xs18tr9fj3v,3uxuoq9okia63uefcg3c13di88qa7r,KDgsoCyK,2020-0188,2021-10-14,14:04:15,15:05:14,NA,incomplete,false,true,NA,5,31,NA,yellow,m_l_009.jpg,NA,NA,pleasant,unpleasant,NA,NA,NA,NA,NA,left,1008.09999999963,true,NA,NA,NA,NA,NA
KDgsoCyK,3o4vwc1gfzjxgki2d88xs18tr9fj3v,3uxuoq9okia63uefcg3c13di88qa7r,KDgsoCyK,2020-0188,2021-10-14,14:04:15,15:05:14,NA,incomplete,false,true,NA,5,32,NA,yellow,m_s_054.jpg,NA,NA,pleasant,unpleasant,NA,NA,NA,NA,NA,left,936.5,true,NA,NA,NA,NA,NA
KDgsoCyK,3o4vwc1gfzjxgki2d88xs18tr9fj3v,3uxuoq9okia63uefcg3c13di88qa7r,KDgsoCyK,2020-0188,2021-10-14,14:04:15,15:05:14,NA,incomplete,false,true,NA,5,33,NA,yellow,m_s_080.jpg,NA,NA,unpleasant,pleasant,NA,NA,NA,NA,NA,right,1208.79999999981,true,NA,NA,NA,NA,NA
KDgsoCyK,3o4vwc1gfzjxgki2d88xs18tr9fj3v,3uxuoq9okia63uefcg3c13di88qa7r,KDgsoCyK,2020-0188,2021-10-14,14:04:15,15:05:14,NA,incomplete,false,true,NA,5,34,NA,yellow,n_s_016.jpg,NA,NA,pleasant,unpleasant,NA,NA,NA,NA,NA,left,1113.30000000028,true,NA,NA,NA,NA,NA
KDgsoCyK,3o4vwc1gfzjxgki2d88xs18tr9fj3v,3uxuoq9okia63uefcg3c13di88qa7r,KDgsoCyK,2020-0188,2021-10-14,14:04:15,15:05:14,NA,incomplete,false,true,NA,5,35,NA,yellow,n_l_099.jpg,NA,NA,pleasant,unpleasant,NA,NA,NA,NA,NA,right,1585.69999999972,true,NA,NA,NA,NA,NA
KDgsoCyK,3o4vwc1gfzjxgki2d88xs18tr9fj3v,3uxuoq9okia63uefcg3c13di88qa7r,KDgsoCyK,2020-0188,2021-10-14,14:04:15,15:05:14,NA,incomplete,false,NA,true,5,0,NA,NA,NA,right,present,NA,NA,n_l_066.jpg,gray,n_l_048.jpg,black,between,NA,NaN,NA,right,2924.7999999998137,1,2,1088.8000000002794
KDgsoCyK,3o4vwc1gfzjxgki2d88xs18tr9fj3v,3uxuoq9okia63uefcg3c13di88qa7r,KDgsoCyK,2020-0188,2021-10-14,14:04:15,15:05:14,NA,incomplete,false,NA,true,5,1,NA,NA,NA,left,present,NA,NA,m_l_063.jpg,orange,n_s_114.jpg,orange,within,NA,NaN,NA,left,2738.1999999997206,1,0,807.2000000001863
KDgsoCyK,3o4vwc1gfzjxgki2d88xs18tr9fj3v,3uxuoq9okia63uefcg3c13di88qa7r,KDgsoCyK,2020-0188,2021-10-14,14:04:15,15:05:14,NA,incomplete,false,NA,true,5,2,NA,NA,NA,left,present,NA,NA,n_l_102.jpg,orange,m_s_054.jpg,yellow,between,NA,NaN,NA,right,3185.2000000001863,0,2,848.2999999998137
KDgsoCyK,3o4vwc1gfzjxgki2d88xs18tr9fj3v,3uxuoq9okia63uefcg3c13di88qa7r,KDgsoCyK,2020-0188,2021-10-14,14:04:15,15:05:14,NA,incomplete,false,NA,true,5,3,NA,NA,NA,left,present,NA,NA,n_s_070.jpg,brown,m_s_010.jpg,black,between,NA,NaN,NA,left,2302.2999999998137,1,3,863.2000000001863
KDgsoCyK,3o4vwc1gfzjxgki2d88xs18tr9fj3v,3uxuoq9okia63uefcg3c13di88qa7r,KDgsoCyK,2020-0188,2021-10-14,14:04:15,15:05:14,NA,incomplete,false,NA,true,5,4,NA,NA,NA,left,present,NA,NA,n_s_105.jpg,white,n_s_115.jpg,brown,between,NA,NaN,NA,right,1559.2999999998137,0,1,1889.9000000003725
KDgsoCyK,3o4vwc1gfzjxgki2d88xs18tr9fj3v,3uxuoq9okia63uefcg3c13di88qa7r,KDgsoCyK,2020-0188,2021-10-14,14:04:15,15:05:14,NA,incomplete,false,NA,true,5,5,NA,NA,NA,right,present,NA,NA,m_l_028.jpg,black,n_l_046.jpg,black,within,NA,NaN,NA,left,2825.100000000093,0,0,927.1000000000931
KDgsoCyK,3o4vwc1gfzjxgki2d88xs18tr9fj3v,3uxuoq9okia63uefcg3c13di88qa7r,KDgsoCyK,2020-0188,2021-10-14,14:04:15,15:05:14,NA,incomplete,false,NA,true,5,6,NA,NA,NA,right,present,NA,NA,m_s_033.jpg,gray,m_l_050.jpg,gray,within,NA,NaN,NA,left,2707.2000000001863,0,0,896.0999999996275
KDgsoCyK,3o4vwc1gfzjxgki2d88xs18tr9fj3v,3uxuoq9okia63uefcg3c13di88qa7r,KDgsoCyK,2020-0188,2021-10-14,14:04:15,15:05:14,NA,incomplete,false,NA,true,5,7,NA,NA,NA,left,present,NA,NA,n_l_025.jpg,brown,m_s_064.jpg,brown,within,NA,NaN,NA,right,1624.5,0,0,1543.1000000000931
KDgsoCyK,3o4vwc1gfzjxgki2d88xs18tr9fj3v,3uxuoq9okia63uefcg3c13di88qa7r,KDgsoCyK,2020-0188,2021-10-14,14:04:15,15:05:14,NA,incomplete,false,NA,true,5,8,NA,NA,NA,right,present,NA,NA,n_l_099.jpg,yellow,m_l_009.jpg,yellow,within,NA,NaN,NA,right,1519.1000000000931,1,0,936.6999999997206
KDgsoCyK,3o4vwc1gfzjxgki2d88xs18tr9fj3v,3uxuoq9okia63uefcg3c13di88qa7r,KDgsoCyK,2020-0188,2021-10-14,14:04:15,15:05:14,NA,incomplete,false,NA,true,5,9,NA,NA,NA,left,present,NA,NA,m_l_088.jpg,white,m_s_035.jpg,white,within,NA,NaN,NA,right,1486.6000000000931,0,0,1195.1000000000931
KDgsoCyK,3o4vwc1gfzjxgki2d88xs18tr9fj3v,3uxuoq9okia63uefcg3c13di88qa7r,KDgsoCyK,2020-0188,2021-10-14,14:04:15,15:05:14,NA,incomplete,false,NA,true,5,10,NA,NA,NA,right,present,NA,NA,m_s_077.jpg,orange,n_s_082.jpg,gray,between,NA,NaN,NA,right,4016.399999999907,1,2,1009.1000000000931
KDgsoCyK,3o4vwc1gfzjxgki2d88xs18tr9fj3v,3uxuoq9okia63uefcg3c13di88qa7r,KDgsoCyK,2020-0188,2021-10-14,14:04:15,15:05:14,NA,incomplete,false,true,NA,6,0,NA,gray,m_s_106.jpg,NA,NA,pleasant,unpleasant,NA,NA,NA,NA,NA,left,2118.79999999981,true,NA,NA,NA,NA,NA
KDgsoCyK,3o4vwc1gfzjxgki2d88xs18tr9fj3v,3uxuoq9okia63uefcg3c13di88qa7r,KDgsoCyK,2020-0188,2021-10-14,14:04:15,15:05:14,NA,incomplete,false,true,NA,6,1,NA,gray,m_l_111.jpg,NA,NA,pleasant,unpleasant,NA,NA,NA,NA,NA,left,975.399999999907,true,NA,NA,NA,NA,NA
KDgsoCyK,3o4vwc1gfzjxgki2d88xs18tr9fj3v,3uxuoq9okia63uefcg3c13di88qa7r,KDgsoCyK,2020-0188,2021-10-14,14:04:15,15:05:14,NA,incomplete,false,true,NA,6,2,NA,gray,n_s_066.jpg,NA,NA,unpleasant,pleasant,NA,NA,NA,NA,NA,right,1471.79999999981,true,NA,NA,NA,NA,NA
KDgsoCyK,3o4vwc1gfzjxgki2d88xs18tr9fj3v,3uxuoq9okia63uefcg3c13di88qa7r,KDgsoCyK,2020-0188,2021-10-14,14:04:15,15:05:14,NA,incomplete,false,true,NA,6,3,NA,gray,m_s_048.jpg,NA,NA,unpleasant,pleasant,NA,NA,NA,NA,NA,right,1039.60000000009,true,NA,NA,NA,NA,NA
KDgsoCyK,3o4vwc1gfzjxgki2d88xs18tr9fj3v,3uxuoq9okia63uefcg3c13di88qa7r,KDgsoCyK,2020-0188,2021-10-14,14:04:15,15:05:14,NA,incomplete,false,true,NA,6,4,NA,gray,m_l_055.jpg,NA,NA,unpleasant,pleasant,NA,NA,NA,NA,NA,left,2024.79999999981,true,NA,NA,NA,NA,NA
KDgsoCyK,3o4vwc1gfzjxgki2d88xs18tr9fj3v,3uxuoq9okia63uefcg3c13di88qa7r,KDgsoCyK,2020-0188,2021-10-14,14:04:15,15:05:14,NA,incomplete,false,true,NA,6,5,NA,gray,n_l_018.jpg,NA,NA,pleasant,unpleasant,NA,NA,NA,NA,NA,left,936.800000000279,true,NA,NA,NA,NA,NA
KDgsoCyK,3o4vwc1gfzjxgki2d88xs18tr9fj3v,3uxuoq9okia63uefcg3c13di88qa7r,KDgsoCyK,2020-0188,2021-10-14,14:04:15,15:05:14,NA,incomplete,false,true,NA,6,6,NA,white,m_l_024.jpg,NA,NA,unpleasant,pleasant,NA,NA,NA,NA,NA,right,1481,true,NA,NA,NA,NA,NA
KDgsoCyK,3o4vwc1gfzjxgki2d88xs18tr9fj3v,3uxuoq9okia63uefcg3c13di88qa7r,KDgsoCyK,2020-0188,2021-10-14,14:04:15,15:05:14,NA,incomplete,false,true,NA,6,7,NA,white,n_l_116.jpg,NA,NA,pleasant,unpleasant,NA,NA,NA,NA,NA,left,1737.80000000028,true,NA,NA,NA,NA,NA
KDgsoCyK,3o4vwc1gfzjxgki2d88xs18tr9fj3v,3uxuoq9okia63uefcg3c13di88qa7r,KDgsoCyK,2020-0188,2021-10-14,14:04:15,15:05:14,NA,incomplete,false,true,NA,6,8,NA,white,m_s_058.jpg,NA,NA,unpleasant,pleasant,NA,NA,NA,NA,NA,right,1481.5,true,NA,NA,NA,NA,NA
KDgsoCyK,3o4vwc1gfzjxgki2d88xs18tr9fj3v,3uxuoq9okia63uefcg3c13di88qa7r,KDgsoCyK,2020-0188,2021-10-14,14:04:15,15:05:14,NA,incomplete,false,true,NA,6,9,NA,white,n_l_091.jpg,NA,NA,unpleasant,pleasant,NA,NA,NA,NA,NA,right,1082.10000000009,true,NA,NA,NA,NA,NA
KDgsoCyK,3o4vwc1gfzjxgki2d88xs18tr9fj3v,3uxuoq9okia63uefcg3c13di88qa7r,KDgsoCyK,2020-0188,2021-10-14,14:04:15,15:05:14,NA,incomplete,false,true,NA,6,10,NA,white,m_s_051.jpg,NA,NA,unpleasant,pleasant,NA,NA,NA,NA,NA,right,970.799999999814,true,NA,NA,NA,NA,NA
KDgsoCyK,3o4vwc1gfzjxgki2d88xs18tr9fj3v,3uxuoq9okia63uefcg3c13di88qa7r,KDgsoCyK,2020-0188,2021-10-14,14:04:15,15:05:14,NA,incomplete,false,true,NA,6,11,NA,white,m_s_017.jpg,NA,NA,pleasant,unpleasant,NA,NA,NA,NA,NA,left,1610.60000000009,true,NA,NA,NA,NA,NA
KDgsoCyK,3o4vwc1gfzjxgki2d88xs18tr9fj3v,3uxuoq9okia63uefcg3c13di88qa7r,KDgsoCyK,2020-0188,2021-10-14,14:04:15,15:05:14,NA,incomplete,false,true,NA,6,12,NA,purple,m_l_070.jpg,NA,NA,unpleasant,pleasant,NA,NA,NA,NA,NA,right,1355.20000000019,true,NA,NA,NA,NA,NA
KDgsoCyK,3o4vwc1gfzjxgki2d88xs18tr9fj3v,3uxuoq9okia63uefcg3c13di88qa7r,KDgsoCyK,2020-0188,2021-10-14,14:04:15,15:05:14,NA,incomplete,false,true,NA,6,13,NA,purple,n_l_032.jpg,NA,NA,pleasant,unpleasant,NA,NA,NA,NA,NA,left,1403.40000000037,true,NA,NA,NA,NA,NA
KDgsoCyK,3o4vwc1gfzjxgki2d88xs18tr9fj3v,3uxuoq9okia63uefcg3c13di88qa7r,KDgsoCyK,2020-0188,2021-10-14,14:04:15,15:05:14,NA,incomplete,false,true,NA,6,14,NA,purple,m_s_091.jpg,NA,NA,pleasant,unpleasant,NA,NA,NA,NA,NA,left,1186.29999999981,true,NA,NA,NA,NA,NA
KDgsoCyK,3o4vwc1gfzjxgki2d88xs18tr9fj3v,3uxuoq9okia63uefcg3c13di88qa7r,KDgsoCyK,2020-0188,2021-10-14,14:04:15,15:05:14,NA,incomplete,false,true,NA,6,15,NA,purple,m_l_004.jpg,NA,NA,unpleasant,pleasant,NA,NA,NA,NA,NA,right,1018.89999999991,true,NA,NA,NA,NA,NA
KDgsoCyK,3o4vwc1gfzjxgki2d88xs18tr9fj3v,3uxuoq9okia63uefcg3c13di88qa7r,KDgsoCyK,2020-0188,2021-10-14,14:04:15,15:05:14,NA,incomplete,false,true,NA,6,16,NA,purple,n_s_011.jpg,NA,NA,pleasant,unpleasant,NA,NA,NA,NA,NA,left,1130.60000000009,true,NA,NA,NA,NA,NA
KDgsoCyK,3o4vwc1gfzjxgki2d88xs18tr9fj3v,3uxuoq9okia63uefcg3c13di88qa7r,KDgsoCyK,2020-0188,2021-10-14,14:04:15,15:05:14,NA,incomplete,false,true,NA,6,17,NA,purple,n_s_032.jpg,NA,NA,unpleasant,pleasant,NA,NA,NA,NA,NA,right,939.5,true,NA,NA,NA,NA,NA
KDgsoCyK,3o4vwc1gfzjxgki2d88xs18tr9fj3v,3uxuoq9okia63uefcg3c13di88qa7r,KDgsoCyK,2020-0188,2021-10-14,14:04:15,15:05:14,NA,incomplete,false,true,NA,6,18,NA,yellow,n_l_042.jpg,NA,NA,unpleasant,pleasant,NA,NA,NA,NA,NA,right,988.100000000093,true,NA,NA,NA,NA,NA
KDgsoCyK,3o4vwc1gfzjxgki2d88xs18tr9fj3v,3uxuoq9okia63uefcg3c13di88qa7r,KDgsoCyK,2020-0188,2021-10-14,14:04:15,15:05:14,NA,incomplete,false,true,NA,6,19,NA,yellow,m_s_013.jpg,NA,NA,unpleasant,pleasant,NA,NA,NA,NA,NA,right,980.200000000186,true,NA,NA,NA,NA,NA
KDgsoCyK,3o4vwc1gfzjxgki2d88xs18tr9fj3v,3uxuoq9okia63uefcg3c13di88qa7r,KDgsoCyK,2020-0188,2021-10-14,14:04:15,15:05:14,NA,incomplete,false,true,NA,6,20,NA,yellow,m_s_050.jpg,NA,NA,unpleasant,pleasant,NA,NA,NA,NA,NA,right,1340.60000000009,true,NA,NA,NA,NA,NA
KDgsoCyK,3o4vwc1gfzjxgki2d88xs18tr9fj3v,3uxuoq9okia63uefcg3c13di88qa7r,KDgsoCyK,2020-0188,2021-10-14,14:04:15,15:05:14,NA,incomplete,false,true,NA,6,21,NA,yellow,m_l_060.jpg,NA,NA,pleasant,unpleasant,NA,NA,NA,NA,NA,left,1901.29999999981,true,NA,NA,NA,NA,NA
KDgsoCyK,3o4vwc1gfzjxgki2d88xs18tr9fj3v,3uxuoq9okia63uefcg3c13di88qa7r,KDgsoCyK,2020-0188,2021-10-14,14:04:15,15:05:14,NA,incomplete,false,true,NA,6,22,NA,yellow,n_s_075.jpg,NA,NA,unpleasant,pleasant,NA,NA,NA,NA,NA,left,1494.10000000009,true,NA,NA,NA,NA,NA
KDgsoCyK,3o4vwc1gfzjxgki2d88xs18tr9fj3v,3uxuoq9okia63uefcg3c13di88qa7r,KDgsoCyK,2020-0188,2021-10-14,14:04:15,15:05:14,NA,incomplete,false,true,NA,6,23,NA,yellow,n_l_044.jpg,NA,NA,unpleasant,pleasant,NA,NA,NA,NA,NA,right,1166.5,true,NA,NA,NA,NA,NA
KDgsoCyK,3o4vwc1gfzjxgki2d88xs18tr9fj3v,3uxuoq9okia63uefcg3c13di88qa7r,KDgsoCyK,2020-0188,2021-10-14,14:04:15,15:05:14,NA,incomplete,false,true,NA,6,24,NA,brown,m_l_096.jpg,NA,NA,unpleasant,pleasant,NA,NA,NA,NA,NA,left,2551.39999999991,true,NA,NA,NA,NA,NA
KDgsoCyK,3o4vwc1gfzjxgki2d88xs18tr9fj3v,3uxuoq9okia63uefcg3c13di88qa7r,KDgsoCyK,2020-0188,2021-10-14,14:04:15,15:05:14,NA,incomplete,false,true,NA,6,25,NA,brown,m_s_008.jpg,NA,NA,pleasant,unpleasant,NA,NA,NA,NA,NA,left,1583.79999999981,true,NA,NA,NA,NA,NA
KDgsoCyK,3o4vwc1gfzjxgki2d88xs18tr9fj3v,3uxuoq9okia63uefcg3c13di88qa7r,KDgsoCyK,2020-0188,2021-10-14,14:04:15,15:05:14,NA,incomplete,false,true,NA,6,26,NA,brown,n_s_002.jpg,NA,NA,unpleasant,pleasant,NA,NA,NA,NA,NA,right,1096.30000000028,true,NA,NA,NA,NA,NA
KDgsoCyK,3o4vwc1gfzjxgki2d88xs18tr9fj3v,3uxuoq9okia63uefcg3c13di88qa7r,KDgsoCyK,2020-0188,2021-10-14,14:04:15,15:05:14,NA,incomplete,false,true,NA,6,27,NA,brown,m_l_001.jpg,NA,NA,pleasant,unpleasant,NA,NA,NA,NA,NA,right,1287.59999999963,true,NA,NA,NA,NA,NA
KDgsoCyK,3o4vwc1gfzjxgki2d88xs18tr9fj3v,3uxuoq9okia63uefcg3c13di88qa7r,KDgsoCyK,2020-0188,2021-10-14,14:04:15,15:05:14,NA,incomplete,false,true,NA,6,28,NA,brown,m_s_062.jpg,NA,NA,unpleasant,pleasant,NA,NA,NA,NA,NA,right,928.799999999814,true,NA,NA,NA,NA,NA
KDgsoCyK,3o4vwc1gfzjxgki2d88xs18tr9fj3v,3uxuoq9okia63uefcg3c13di88qa7r,KDgsoCyK,2020-0188,2021-10-14,14:04:15,15:05:14,NA,incomplete,false,true,NA,6,29,NA,brown,n_l_052.jpg,NA,NA,unpleasant,pleasant,NA,NA,NA,NA,NA,right,993.299999999814,true,NA,NA,NA,NA,NA
KDgsoCyK,3o4vwc1gfzjxgki2d88xs18tr9fj3v,3uxuoq9okia63uefcg3c13di88qa7r,KDgsoCyK,2020-0188,2021-10-14,14:04:15,15:05:14,NA,incomplete,false,true,NA,6,30,NA,blue,n_s_045.jpg,NA,NA,unpleasant,pleasant,NA,NA,NA,NA,NA,right,1050.20000000019,true,NA,NA,NA,NA,NA
KDgsoCyK,3o4vwc1gfzjxgki2d88xs18tr9fj3v,3uxuoq9okia63uefcg3c13di88qa7r,KDgsoCyK,2020-0188,2021-10-14,14:04:15,15:05:14,NA,incomplete,false,true,NA,6,31,NA,blue,m_s_097.jpg,NA,NA,pleasant,unpleasant,NA,NA,NA,NA,NA,right,994.599999999627,true,NA,NA,NA,NA,NA
KDgsoCyK,3o4vwc1gfzjxgki2d88xs18tr9fj3v,3uxuoq9okia63uefcg3c13di88qa7r,KDgsoCyK,2020-0188,2021-10-14,14:04:15,15:05:14,NA,incomplete,false,true,NA,6,32,NA,blue,n_l_041.jpg,NA,NA,pleasant,unpleasant,NA,NA,NA,NA,NA,right,2099.70000000019,true,NA,NA,NA,NA,NA
KDgsoCyK,3o4vwc1gfzjxgki2d88xs18tr9fj3v,3uxuoq9okia63uefcg3c13di88qa7r,KDgsoCyK,2020-0188,2021-10-14,14:04:15,15:05:14,NA,incomplete,false,true,NA,6,33,NA,blue,m_s_020.jpg,NA,NA,pleasant,unpleasant,NA,NA,NA,NA,NA,left,1451.80000000028,true,NA,NA,NA,NA,NA
KDgsoCyK,3o4vwc1gfzjxgki2d88xs18tr9fj3v,3uxuoq9okia63uefcg3c13di88qa7r,KDgsoCyK,2020-0188,2021-10-14,14:04:15,15:05:14,NA,incomplete,false,true,NA,6,34,NA,blue,m_l_054.jpg,NA,NA,pleasant,unpleasant,NA,NA,NA,NA,NA,left,1476.5,true,NA,NA,NA,NA,NA
KDgsoCyK,3o4vwc1gfzjxgki2d88xs18tr9fj3v,3uxuoq9okia63uefcg3c13di88qa7r,KDgsoCyK,2020-0188,2021-10-14,14:04:15,15:05:14,NA,incomplete,false,true,NA,6,35,NA,blue,n_l_084.jpg,NA,NA,unpleasant,pleasant,NA,NA,NA,NA,NA,left,1853.39999999991,true,NA,NA,NA,NA,NA
KDgsoCyK,3o4vwc1gfzjxgki2d88xs18tr9fj3v,3uxuoq9okia63uefcg3c13di88qa7r,KDgsoCyK,2020-0188,2021-10-14,14:04:15,15:05:14,NA,incomplete,false,NA,true,6,0,NA,NA,NA,left,absent,NA,NA,n_s_075.jpg,yellow,n_s_002.jpg,brown,between,NA,NaN,NA,left,9690,1,2,2277.399999999907
KDgsoCyK,3o4vwc1gfzjxgki2d88xs18tr9fj3v,3uxuoq9okia63uefcg3c13di88qa7r,KDgsoCyK,2020-0188,2021-10-14,14:04:15,15:05:14,NA,incomplete,false,NA,true,6,1,NA,NA,NA,right,absent,NA,NA,m_s_017.jpg,white,n_l_116.jpg,white,within,NA,NaN,NA,right,2197.4000000003725,1,0,1441.3000000002794
KDgsoCyK,3o4vwc1gfzjxgki2d88xs18tr9fj3v,3uxuoq9okia63uefcg3c13di88qa7r,KDgsoCyK,2020-0188,2021-10-14,14:04:15,15:05:14,NA,incomplete,false,NA,true,6,2,NA,NA,NA,right,absent,NA,NA,n_l_084.jpg,blue,m_s_097.jpg,blue,within,NA,NaN,NA,right,4291.699999999721,1,2,1329.1999999997206
KDgsoCyK,3o4vwc1gfzjxgki2d88xs18tr9fj3v,3uxuoq9okia63uefcg3c13di88qa7r,KDgsoCyK,2020-0188,2021-10-14,14:04:15,15:05:14,NA,incomplete,false,NA,true,6,3,NA,NA,NA,left,absent,NA,NA,m_l_055.jpg,gray,m_s_058.jpg,white,between,NA,NaN,NA,left,2432.5,1,1,1395.3999999999069
KDgsoCyK,3o4vwc1gfzjxgki2d88xs18tr9fj3v,3uxuoq9okia63uefcg3c13di88qa7r,KDgsoCyK,2020-0188,2021-10-14,14:04:15,15:05:14,NA,incomplete,false,NA,true,6,4,NA,NA,NA,right,absent,NA,NA,n_l_044.jpg,yellow,m_s_013.jpg,yellow,within,NA,NaN,NA,right,5928.600000000093,1,0,1249
KDgsoCyK,3o4vwc1gfzjxgki2d88xs18tr9fj3v,3uxuoq9okia63uefcg3c13di88qa7r,KDgsoCyK,2020-0188,2021-10-14,14:04:15,15:05:14,NA,incomplete,false,NA,true,6,5,NA,NA,NA,right,absent,NA,NA,n_s_032.jpg,purple,n_l_032.jpg,purple,within,NA,NaN,NA,right,2554.3000000002794,1,3,761.1000000000931
KDgsoCyK,3o4vwc1gfzjxgki2d88xs18tr9fj3v,3uxuoq9okia63uefcg3c13di88qa7r,KDgsoCyK,2020-0188,2021-10-14,14:04:15,15:05:14,NA,incomplete,false,NA,true,6,6,NA,NA,NA,right,absent,NA,NA,m_s_091.jpg,purple,m_s_051.jpg,white,between,NA,NaN,NA,right,2286.399999999907,1,2,1142.6000000000931
KDgsoCyK,3o4vwc1gfzjxgki2d88xs18tr9fj3v,3uxuoq9okia63uefcg3c13di88qa7r,KDgsoCyK,2020-0188,2021-10-14,14:04:15,15:05:14,NA,incomplete,false,NA,true,6,7,NA,NA,NA,left,absent,NA,NA,m_s_062.jpg,brown,n_l_041.jpg,blue,between,NA,NaN,NA,left,2870.399999999907,1,2,1500.1999999997206
KDgsoCyK,3o4vwc1gfzjxgki2d88xs18tr9fj3v,3uxuoq9okia63uefcg3c13di88qa7r,KDgsoCyK,2020-0188,2021-10-14,14:04:15,15:05:14,NA,incomplete,false,NA,true,6,8,NA,NA,NA,left,absent,NA,NA,m_s_008.jpg,brown,n_l_052.jpg,brown,within,NA,NaN,NA,right,4055.4000000003725,0,1,1182.3999999999069
KDgsoCyK,3o4vwc1gfzjxgki2d88xs18tr9fj3v,3uxuoq9okia63uefcg3c13di88qa7r,KDgsoCyK,2020-0188,2021-10-14,14:04:15,15:05:14,NA,incomplete,false,NA,true,6,9,NA,NA,NA,left,absent,NA,NA,n_s_011.jpg,purple,m_s_050.jpg,yellow,between,NA,NaN,NA,left,2464.5,1,2,973.3000000002794
KDgsoCyK,3o4vwc1gfzjxgki2d88xs18tr9fj3v,3uxuoq9okia63uefcg3c13di88qa7r,KDgsoCyK,2020-0188,2021-10-14,14:04:15,15:05:14,NA,incomplete,false,NA,true,6,10,NA,NA,NA,right,absent,NA,NA,n_l_018.jpg,gray,m_l_111.jpg,gray,within,NA,NaN,NA,right,4086.399999999907,1,1,1719.2999999998137
KDgsoCyK,3o4vwc1gfzjxgki2d88xs18tr9fj3v,3uxuoq9okia63uefcg3c13di88qa7r,KDgsoCyK,2020-0188,2021-10-14,14:04:15,15:05:14,NA,incomplete,false,true,NA,7,0,NA,white,n_l_051.jpg,NA,NA,pleasant,unpleasant,NA,NA,NA,NA,NA,left,2237,true,NA,NA,NA,NA,NA
KDgsoCyK,3o4vwc1gfzjxgki2d88xs18tr9fj3v,3uxuoq9okia63uefcg3c13di88qa7r,KDgsoCyK,2020-0188,2021-10-14,14:04:15,15:05:14,NA,incomplete,false,true,NA,7,1,NA,white,n_s_084.jpg,NA,NA,pleasant,unpleasant,NA,NA,NA,NA,NA,left,2148.89999999991,true,NA,NA,NA,NA,NA
KDgsoCyK,3o4vwc1gfzjxgki2d88xs18tr9fj3v,3uxuoq9okia63uefcg3c13di88qa7r,KDgsoCyK,2020-0188,2021-10-14,14:04:15,15:05:14,NA,incomplete,false,true,NA,7,2,NA,white,n_s_021.jpg,NA,NA,pleasant,unpleasant,NA,NA,NA,NA,NA,left,933.800000000279,true,NA,NA,NA,NA,NA
KDgsoCyK,3o4vwc1gfzjxgki2d88xs18tr9fj3v,3uxuoq9okia63uefcg3c13di88qa7r,KDgsoCyK,2020-0188,2021-10-14,14:04:15,15:05:14,NA,incomplete,false,true,NA,7,3,NA,white,n_l_101.jpg,NA,NA,pleasant,unpleasant,NA,NA,NA,NA,NA,left,1430.10000000009,true,NA,NA,NA,NA,NA
KDgsoCyK,3o4vwc1gfzjxgki2d88xs18tr9fj3v,3uxuoq9okia63uefcg3c13di88qa7r,KDgsoCyK,2020-0188,2021-10-14,14:04:15,15:05:14,NA,incomplete,false,true,NA,7,4,NA,white,m_l_084.jpg,NA,NA,unpleasant,pleasant,NA,NA,NA,NA,NA,right,1198.69999999972,true,NA,NA,NA,NA,NA
KDgsoCyK,3o4vwc1gfzjxgki2d88xs18tr9fj3v,3uxuoq9okia63uefcg3c13di88qa7r,KDgsoCyK,2020-0188,2021-10-14,14:04:15,15:05:14,NA,incomplete,false,true,NA,7,5,NA,white,n_l_115.jpg,NA,NA,pleasant,unpleasant,NA,NA,NA,NA,NA,left,1623.5,true,NA,NA,NA,NA,NA
KDgsoCyK,3o4vwc1gfzjxgki2d88xs18tr9fj3v,3uxuoq9okia63uefcg3c13di88qa7r,KDgsoCyK,2020-0188,2021-10-14,14:04:15,15:05:14,NA,incomplete,false,true,NA,7,6,NA,brown,m_l_108.jpg,NA,NA,pleasant,unpleasant,NA,NA,NA,NA,NA,left,1159.80000000028,true,NA,NA,NA,NA,NA
KDgsoCyK,3o4vwc1gfzjxgki2d88xs18tr9fj3v,3uxuoq9okia63uefcg3c13di88qa7r,KDgsoCyK,2020-0188,2021-10-14,14:04:15,15:05:14,NA,incomplete,false,true,NA,7,7,NA,brown,m_s_059.jpg,NA,NA,unpleasant,pleasant,NA,NA,NA,NA,NA,right,1104.5,true,NA,NA,NA,NA,NA
KDgsoCyK,3o4vwc1gfzjxgki2d88xs18tr9fj3v,3uxuoq9okia63uefcg3c13di88qa7r,KDgsoCyK,2020-0188,2021-10-14,14:04:15,15:05:14,NA,incomplete,false,true,NA,7,8,NA,brown,m_l_018.jpg,NA,NA,pleasant,unpleasant,NA,NA,NA,NA,NA,left,1128.60000000009,true,NA,NA,NA,NA,NA
KDgsoCyK,3o4vwc1gfzjxgki2d88xs18tr9fj3v,3uxuoq9okia63uefcg3c13di88qa7r,KDgsoCyK,2020-0188,2021-10-14,14:04:15,15:05:14,NA,incomplete,false,true,NA,7,9,NA,brown,n_l_109.jpg,NA,NA,pleasant,unpleasant,NA,NA,NA,NA,NA,left,1377.10000000009,true,NA,NA,NA,NA,NA
KDgsoCyK,3o4vwc1gfzjxgki2d88xs18tr9fj3v,3uxuoq9okia63uefcg3c13di88qa7r,KDgsoCyK,2020-0188,2021-10-14,14:04:15,15:05:14,NA,incomplete,false,true,NA,7,10,NA,brown,m_l_080.jpg,NA,NA,unpleasant,pleasant,NA,NA,NA,NA,NA,right,1225.60000000009,true,NA,NA,NA,NA,NA
KDgsoCyK,3o4vwc1gfzjxgki2d88xs18tr9fj3v,3uxuoq9okia63uefcg3c13di88qa7r,KDgsoCyK,2020-0188,2021-10-14,14:04:15,15:05:14,NA,incomplete,false,true,NA,7,11,NA,brown,m_s_052.jpg,NA,NA,unpleasant,pleasant,NA,NA,NA,NA,NA,right,986.599999999627,true,NA,NA,NA,NA,NA
KDgsoCyK,3o4vwc1gfzjxgki2d88xs18tr9fj3v,3uxuoq9okia63uefcg3c13di88qa7r,KDgsoCyK,2020-0188,2021-10-14,14:04:15,15:05:14,NA,incomplete,false,true,NA,7,12,NA,yellow,n_s_051.jpg,NA,NA,unpleasant,pleasant,NA,NA,NA,NA,NA,right,1018.19999999972,true,NA,NA,NA,NA,NA
KDgsoCyK,3o4vwc1gfzjxgki2d88xs18tr9fj3v,3uxuoq9okia63uefcg3c13di88qa7r,KDgsoCyK,2020-0188,2021-10-14,14:04:15,15:05:14,NA,incomplete,false,true,NA,7,13,NA,yellow,m_s_025.jpg,NA,NA,unpleasant,pleasant,NA,NA,NA,NA,NA,right,986,true,NA,NA,NA,NA,NA
KDgsoCyK,3o4vwc1gfzjxgki2d88xs18tr9fj3v,3uxuoq9okia63uefcg3c13di88qa7r,KDgsoCyK,2020-0188,2021-10-14,14:04:15,15:05:14,NA,incomplete,false,true,NA,7,14,NA,yellow,m_l_017.jpg,NA,NA,unpleasant,pleasant,NA,NA,NA,NA,NA,right,826.200000000186,true,NA,NA,NA,NA,NA
KDgsoCyK,3o4vwc1gfzjxgki2d88xs18tr9fj3v,3uxuoq9okia63uefcg3c13di88qa7r,KDgsoCyK,2020-0188,2021-10-14,14:04:15,15:05:14,NA,incomplete,false,true,NA,7,15,NA,yellow,n_l_112.jpg,NA,NA,unpleasant,pleasant,NA,NA,NA,NA,NA,right,1050.60000000009,true,NA,NA,NA,NA,NA
KDgsoCyK,3o4vwc1gfzjxgki2d88xs18tr9fj3v,3uxuoq9okia63uefcg3c13di88qa7r,KDgsoCyK,2020-0188,2021-10-14,14:04:15,15:05:14,NA,incomplete,false,true,NA,7,16,NA,yellow,n_l_094.jpg,NA,NA,unpleasant,pleasant,NA,NA,NA,NA,NA,right,1179.30000000028,true,NA,NA,NA,NA,NA
KDgsoCyK,3o4vwc1gfzjxgki2d88xs18tr9fj3v,3uxuoq9okia63uefcg3c13di88qa7r,KDgsoCyK,2020-0188,2021-10-14,14:04:15,15:05:14,NA,incomplete,false,true,NA,7,17,NA,yellow,n_l_015.jpg,NA,NA,pleasant,unpleasant,NA,NA,NA,NA,NA,left,964.100000000093,true,NA,NA,NA,NA,NA
KDgsoCyK,3o4vwc1gfzjxgki2d88xs18tr9fj3v,3uxuoq9okia63uefcg3c13di88qa7r,KDgsoCyK,2020-0188,2021-10-14,14:04:15,15:05:14,NA,incomplete,false,true,NA,7,18,NA,black,n_l_012.jpg,NA,NA,unpleasant,pleasant,NA,NA,NA,NA,NA,right,1700.5,true,NA,NA,NA,NA,NA
KDgsoCyK,3o4vwc1gfzjxgki2d88xs18tr9fj3v,3uxuoq9okia63uefcg3c13di88qa7r,KDgsoCyK,2020-0188,2021-10-14,14:04:15,15:05:14,NA,incomplete,false,true,NA,7,19,NA,black,n_s_025.jpg,NA,NA,pleasant,unpleasant,NA,NA,NA,NA,NA,left,2381.5,true,NA,NA,NA,NA,NA
KDgsoCyK,3o4vwc1gfzjxgki2d88xs18tr9fj3v,3uxuoq9okia63uefcg3c13di88qa7r,KDgsoCyK,2020-0188,2021-10-14,14:04:15,15:05:14,NA,incomplete,false,true,NA,7,20,NA,black,n_l_010.jpg,NA,NA,unpleasant,pleasant,NA,NA,NA,NA,NA,right,1581.79999999981,true,NA,NA,NA,NA,NA
KDgsoCyK,3o4vwc1gfzjxgki2d88xs18tr9fj3v,3uxuoq9okia63uefcg3c13di88qa7r,KDgsoCyK,2020-0188,2021-10-14,14:04:15,15:05:14,NA,incomplete,false,true,NA,7,21,NA,black,m_l_092.jpg,NA,NA,pleasant,unpleasant,NA,NA,NA,NA,NA,left,1462.29999999981,true,NA,NA,NA,NA,NA
KDgsoCyK,3o4vwc1gfzjxgki2d88xs18tr9fj3v,3uxuoq9okia63uefcg3c13di88qa7r,KDgsoCyK,2020-0188,2021-10-14,14:04:15,15:05:14,NA,incomplete,false,true,NA,7,22,NA,black,n_s_036.jpg,NA,NA,unpleasant,pleasant,NA,NA,NA,NA,NA,right,1367.20000000019,true,NA,NA,NA,NA,NA
KDgsoCyK,3o4vwc1gfzjxgki2d88xs18tr9fj3v,3uxuoq9okia63uefcg3c13di88qa7r,KDgsoCyK,2020-0188,2021-10-14,14:04:15,15:05:14,NA,incomplete,false,true,NA,7,23,NA,black,n_l_095.jpg,NA,NA,pleasant,unpleasant,NA,NA,NA,NA,NA,left,1383.59999999963,true,NA,NA,NA,NA,NA
KDgsoCyK,3o4vwc1gfzjxgki2d88xs18tr9fj3v,3uxuoq9okia63uefcg3c13di88qa7r,KDgsoCyK,2020-0188,2021-10-14,14:04:15,15:05:14,NA,incomplete,false,true,NA,7,24,NA,orange,n_s_010.jpg,NA,NA,pleasant,unpleasant,NA,NA,NA,NA,NA,left,1688.19999999972,true,NA,NA,NA,NA,NA
KDgsoCyK,3o4vwc1gfzjxgki2d88xs18tr9fj3v,3uxuoq9okia63uefcg3c13di88qa7r,KDgsoCyK,2020-0188,2021-10-14,14:04:15,15:05:14,NA,incomplete,false,true,NA,7,25,NA,orange,m_s_038.jpg,NA,NA,unpleasant,pleasant,NA,NA,NA,NA,NA,right,1656.39999999991,true,NA,NA,NA,NA,NA
KDgsoCyK,3o4vwc1gfzjxgki2d88xs18tr9fj3v,3uxuoq9okia63uefcg3c13di88qa7r,KDgsoCyK,2020-0188,2021-10-14,14:04:15,15:05:14,NA,incomplete,false,true,NA,7,26,NA,orange,n_s_015.jpg,NA,NA,unpleasant,pleasant,NA,NA,NA,NA,NA,right,1071.89999999991,true,NA,NA,NA,NA,NA
KDgsoCyK,3o4vwc1gfzjxgki2d88xs18tr9fj3v,3uxuoq9okia63uefcg3c13di88qa7r,KDgsoCyK,2020-0188,2021-10-14,14:04:15,15:05:14,NA,incomplete,false,true,NA,7,27,NA,orange,m_s_001.jpg,NA,NA,pleasant,unpleasant,NA,NA,NA,NA,NA,left,1135.89999999991,true,NA,NA,NA,NA,NA
KDgsoCyK,3o4vwc1gfzjxgki2d88xs18tr9fj3v,3uxuoq9okia63uefcg3c13di88qa7r,KDgsoCyK,2020-0188,2021-10-14,14:04:15,15:05:14,NA,incomplete,false,true,NA,7,28,NA,orange,n_l_074.jpg,NA,NA,unpleasant,pleasant,NA,NA,NA,NA,NA,right,1024,true,NA,NA,NA,NA,NA
KDgsoCyK,3o4vwc1gfzjxgki2d88xs18tr9fj3v,3uxuoq9okia63uefcg3c13di88qa7r,KDgsoCyK,2020-0188,2021-10-14,14:04:15,15:05:14,NA,incomplete,false,true,NA,7,29,NA,orange,n_s_113.jpg,NA,NA,unpleasant,pleasant,NA,NA,NA,NA,NA,right,1688.5,true,NA,NA,NA,NA,NA
KDgsoCyK,3o4vwc1gfzjxgki2d88xs18tr9fj3v,3uxuoq9okia63uefcg3c13di88qa7r,KDgsoCyK,2020-0188,2021-10-14,14:04:15,15:05:14,NA,incomplete,false,true,NA,7,30,NA,blue,m_l_102.jpg,NA,NA,pleasant,unpleasant,NA,NA,NA,NA,NA,left,1664.40000000037,true,NA,NA,NA,NA,NA
KDgsoCyK,3o4vwc1gfzjxgki2d88xs18tr9fj3v,3uxuoq9okia63uefcg3c13di88qa7r,KDgsoCyK,2020-0188,2021-10-14,14:04:15,15:05:14,NA,incomplete,false,true,NA,7,31,NA,blue,m_s_089.jpg,NA,NA,unpleasant,pleasant,NA,NA,NA,NA,NA,right,1353.20000000019,true,NA,NA,NA,NA,NA
KDgsoCyK,3o4vwc1gfzjxgki2d88xs18tr9fj3v,3uxuoq9okia63uefcg3c13di88qa7r,KDgsoCyK,2020-0188,2021-10-14,14:04:15,15:05:14,NA,incomplete,false,true,NA,7,32,NA,blue,m_l_052.jpg,NA,NA,unpleasant,pleasant,NA,NA,NA,NA,NA,right,1208.79999999981,true,NA,NA,NA,NA,NA
KDgsoCyK,3o4vwc1gfzjxgki2d88xs18tr9fj3v,3uxuoq9okia63uefcg3c13di88qa7r,KDgsoCyK,2020-0188,2021-10-14,14:04:15,15:05:14,NA,incomplete,false,true,NA,7,33,NA,blue,m_s_043.jpg,NA,NA,pleasant,unpleasant,NA,NA,NA,NA,NA,right,1513.60000000056,true,NA,NA,NA,NA,NA
KDgsoCyK,3o4vwc1gfzjxgki2d88xs18tr9fj3v,3uxuoq9okia63uefcg3c13di88qa7r,KDgsoCyK,2020-0188,2021-10-14,14:04:15,15:05:14,NA,incomplete,false,true,NA,7,34,NA,blue,m_l_099.jpg,NA,NA,pleasant,unpleasant,NA,NA,NA,NA,NA,left,1754.59999999963,true,NA,NA,NA,NA,NA
KDgsoCyK,3o4vwc1gfzjxgki2d88xs18tr9fj3v,3uxuoq9okia63uefcg3c13di88qa7r,KDgsoCyK,2020-0188,2021-10-14,14:04:15,15:05:14,NA,incomplete,false,true,NA,7,35,NA,blue,m_l_044.jpg,NA,NA,pleasant,unpleasant,NA,NA,NA,NA,NA,left,1522.09999999963,true,NA,NA,NA,NA,NA
KDgsoCyK,3o4vwc1gfzjxgki2d88xs18tr9fj3v,3uxuoq9okia63uefcg3c13di88qa7r,KDgsoCyK,2020-0188,2021-10-14,14:04:15,15:05:14,NA,incomplete,false,NA,true,7,0,NA,NA,NA,right,absent,NA,NA,m_l_017.jpg,yellow,m_l_080.jpg,brown,between,NA,NaN,NA,right,12711.799999999814,1,2,1588.7999999998137
KDgsoCyK,3o4vwc1gfzjxgki2d88xs18tr9fj3v,3uxuoq9okia63uefcg3c13di88qa7r,KDgsoCyK,2020-0188,2021-10-14,14:04:15,15:05:14,NA,incomplete,false,NA,true,7,1,NA,NA,NA,right,absent,NA,NA,m_l_052.jpg,blue,n_l_074.jpg,orange,between,NA,NaN,NA,left,1969.7999999998137,0,2,1124.7999999998137
KDgsoCyK,3o4vwc1gfzjxgki2d88xs18tr9fj3v,3uxuoq9okia63uefcg3c13di88qa7r,KDgsoCyK,2020-0188,2021-10-14,14:04:15,15:05:14,NA,incomplete,false,NA,true,7,2,NA,NA,NA,right,absent,NA,NA,m_s_052.jpg,brown,m_s_059.jpg,brown,within,NA,NaN,NA,right,2203.2000000001863,1,1,1733.7999999998137
KDgsoCyK,3o4vwc1gfzjxgki2d88xs18tr9fj3v,3uxuoq9okia63uefcg3c13di88qa7r,KDgsoCyK,2020-0188,2021-10-14,14:04:15,15:05:14,NA,incomplete,false,NA,true,7,3,NA,NA,NA,left,absent,NA,NA,m_s_038.jpg,orange,n_s_113.jpg,orange,within,NA,NaN,NA,left,9211.5,1,1,1109
KDgsoCyK,3o4vwc1gfzjxgki2d88xs18tr9fj3v,3uxuoq9okia63uefcg3c13di88qa7r,KDgsoCyK,2020-0188,2021-10-14,14:04:15,15:05:14,NA,incomplete,false,NA,true,7,4,NA,NA,NA,right,absent,NA,NA,n_l_015.jpg,yellow,m_s_025.jpg,yellow,within,NA,NaN,NA,left,2715.4000000003725,0,2,810.2000000001863
KDgsoCyK,3o4vwc1gfzjxgki2d88xs18tr9fj3v,3uxuoq9okia63uefcg3c13di88qa7r,KDgsoCyK,2020-0188,2021-10-14,14:04:15,15:05:14,NA,incomplete,false,NA,true,7,5,NA,NA,NA,left,absent,NA,NA,n_s_025.jpg,black,n_l_095.jpg,black,within,NA,NaN,NA,left,1954.5,1,2,810.2000000001863
KDgsoCyK,3o4vwc1gfzjxgki2d88xs18tr9fj3v,3uxuoq9okia63uefcg3c13di88qa7r,KDgsoCyK,2020-0188,2021-10-14,14:04:15,15:05:14,NA,incomplete,false,NA,true,7,6,NA,NA,NA,right,absent,NA,NA,m_l_044.jpg,blue,m_s_089.jpg,blue,within,NA,NaN,NA,right,2214.4000000003725,1,2,988.3999999994412
KDgsoCyK,3o4vwc1gfzjxgki2d88xs18tr9fj3v,3uxuoq9okia63uefcg3c13di88qa7r,KDgsoCyK,2020-0188,2021-10-14,14:04:15,15:05:14,NA,incomplete,false,NA,true,7,7,NA,NA,NA,left,absent,NA,NA,n_l_094.jpg,yellow,n_l_010.jpg,black,between,NA,NaN,NA,right,1759.3999999994412,0,2,802.5
KDgsoCyK,3o4vwc1gfzjxgki2d88xs18tr9fj3v,3uxuoq9okia63uefcg3c13di88qa7r,KDgsoCyK,2020-0188,2021-10-14,14:04:15,15:05:14,NA,incomplete,false,NA,true,7,8,NA,NA,NA,right,absent,NA,NA,m_l_018.jpg,brown,m_l_084.jpg,white,between,NA,NaN,NA,right,1182.3999999994412,1,2,745.1000000005588
KDgsoCyK,3o4vwc1gfzjxgki2d88xs18tr9fj3v,3uxuoq9okia63uefcg3c13di88qa7r,KDgsoCyK,2020-0188,2021-10-14,14:04:15,15:05:14,NA,incomplete,false,NA,true,7,9,NA,NA,NA,left,absent,NA,NA,n_s_084.jpg,white,n_l_115.jpg,white,within,NA,NaN,NA,right,1929.2000000001863,0,3,2125.0999999996275
KDgsoCyK,3o4vwc1gfzjxgki2d88xs18tr9fj3v,3uxuoq9okia63uefcg3c13di88qa7r,KDgsoCyK,2020-0188,2021-10-14,14:04:15,15:05:14,NA,incomplete,false,NA,true,7,10,NA,NA,NA,left,absent,NA,NA,n_s_036.jpg,black,n_s_015.jpg,orange,between,NA,NaN,NA,left,1962.300000000745,1,1,801.0999999996275
KDgsoCyK,3o4vwc1gfzjxgki2d88xs18tr9fj3v,3uxuoq9okia63uefcg3c13di88qa7r,KDgsoCyK,2020-0188,2021-10-14,14:04:15,15:05:14,NA,incomplete,false,true,NA,8,0,NA,orange,n_l_022.jpg,NA,NA,pleasant,unpleasant,NA,NA,NA,NA,NA,left,2086.29999999981,true,NA,NA,NA,NA,NA
KDgsoCyK,3o4vwc1gfzjxgki2d88xs18tr9fj3v,3uxuoq9okia63uefcg3c13di88qa7r,KDgsoCyK,2020-0188,2021-10-14,14:04:15,15:05:14,NA,incomplete,false,true,NA,8,1,NA,orange,n_l_040.jpg,NA,NA,pleasant,unpleasant,NA,NA,NA,NA,NA,left,974,true,NA,NA,NA,NA,NA
KDgsoCyK,3o4vwc1gfzjxgki2d88xs18tr9fj3v,3uxuoq9okia63uefcg3c13di88qa7r,KDgsoCyK,2020-0188,2021-10-14,14:04:15,15:05:14,NA,incomplete,false,true,NA,8,2,NA,orange,n_s_001.jpg,NA,NA,unpleasant,pleasant,NA,NA,NA,NA,NA,right,1062.60000000056,true,NA,NA,NA,NA,NA
KDgsoCyK,3o4vwc1gfzjxgki2d88xs18tr9fj3v,3uxuoq9okia63uefcg3c13di88qa7r,KDgsoCyK,2020-0188,2021-10-14,14:04:15,15:05:14,NA,incomplete,false,true,NA,8,3,NA,orange,m_l_027.jpg,NA,NA,unpleasant,pleasant,NA,NA,NA,NA,NA,right,1391.59999999963,true,NA,NA,NA,NA,NA
KDgsoCyK,3o4vwc1gfzjxgki2d88xs18tr9fj3v,3uxuoq9okia63uefcg3c13di88qa7r,KDgsoCyK,2020-0188,2021-10-14,14:04:15,15:05:14,NA,incomplete,false,true,NA,8,4,NA,orange,m_s_103.jpg,NA,NA,unpleasant,pleasant,NA,NA,NA,NA,NA,right,927.799999999814,true,NA,NA,NA,NA,NA
KDgsoCyK,3o4vwc1gfzjxgki2d88xs18tr9fj3v,3uxuoq9okia63uefcg3c13di88qa7r,KDgsoCyK,2020-0188,2021-10-14,14:04:15,15:05:14,NA,incomplete,false,true,NA,8,5,NA,orange,n_s_017.jpg,NA,NA,pleasant,unpleasant,NA,NA,NA,NA,NA,right,1720.60000000056,true,NA,NA,NA,NA,NA
KDgsoCyK,3o4vwc1gfzjxgki2d88xs18tr9fj3v,3uxuoq9okia63uefcg3c13di88qa7r,KDgsoCyK,2020-0188,2021-10-14,14:04:15,15:05:14,NA,incomplete,false,true,NA,8,6,NA,black,n_s_073.jpg,NA,NA,pleasant,unpleasant,NA,NA,NA,NA,NA,left,1400.70000000019,true,NA,NA,NA,NA,NA
KDgsoCyK,3o4vwc1gfzjxgki2d88xs18tr9fj3v,3uxuoq9okia63uefcg3c13di88qa7r,KDgsoCyK,2020-0188,2021-10-14,14:04:15,15:05:14,NA,incomplete,false,true,NA,8,7,NA,black,n_s_028.jpg,NA,NA,unpleasant,pleasant,NA,NA,NA,NA,NA,right,1193,true,NA,NA,NA,NA,NA
KDgsoCyK,3o4vwc1gfzjxgki2d88xs18tr9fj3v,3uxuoq9okia63uefcg3c13di88qa7r,KDgsoCyK,2020-0188,2021-10-14,14:04:15,15:05:14,NA,incomplete,false,true,NA,8,8,NA,black,n_s_055.jpg,NA,NA,pleasant,unpleasant,NA,NA,NA,NA,NA,left,1897.70000000019,true,NA,NA,NA,NA,NA
