workerId,hitId,assignmentId,subject,studyid,exp_date,exp_start,exp_end,time_start,time_end,practice,encoding,memory,block,trial,event_order,event,stim,answer,context_type,label_left,label_right,left_image,left_event,right_image,right_event,condition,response,response_time,response_acc,order_response,order_response_time,order_acc,distance_response,distance_response_time
kSV1PDVj,3vck0q0pp8rxiiaq9ji6jar3xntn0d,3xlbsaq9z8p742mno8jbiw4rh4x7zb,kSV1PDVj,2020-0188,2021-10-17,22:05:50,23:40:21,NA,incomplete,true,true,NA,0,0,NA,red,m_l_067.jpg,NA,NA,unpleasant,pleasant,NA,NA,NA,NA,NA,right,2107,true,NA,NA,NA,NA,NA
kSV1PDVj,3vck0q0pp8rxiiaq9ji6jar3xntn0d,3xlbsaq9z8p742mno8jbiw4rh4x7zb,kSV1PDVj,2020-0188,2021-10-17,22:05:50,23:40:21,NA,incomplete,true,true,NA,0,1,NA,red,m_l_030.jpg,NA,NA,unpleasant,pleasant,NA,NA,NA,NA,NA,left,1983,true,NA,NA,NA,NA,NA
kSV1PDVj,3vck0q0pp8rxiiaq9ji6jar3xntn0d,3xlbsaq9z8p742mno8jbiw4rh4x7zb,kSV1PDVj,2020-0188,2021-10-17,22:05:50,23:40:21,NA,incomplete,true,true,NA,0,2,NA,red,n_s_020.jpg,NA,NA,unpleasant,pleasant,NA,NA,NA,NA,NA,right,2877,true,NA,NA,NA,NA,NA
kSV1PDVj,3vck0q0pp8rxiiaq9ji6jar3xntn0d,3xlbsaq9z8p742mno8jbiw4rh4x7zb,kSV1PDVj,2020-0188,2021-10-17,22:05:50,23:40:21,NA,incomplete,true,true,NA,0,3,NA,red,n_l_001.jpg,NA,NA,pleasant,unpleasant,NA,NA,NA,NA,NA,left,1619,true,NA,NA,NA,NA,NA
kSV1PDVj,3vck0q0pp8rxiiaq9ji6jar3xntn0d,3xlbsaq9z8p742mno8jbiw4rh4x7zb,kSV1PDVj,2020-0188,2021-10-17,22:05:50,23:40:21,NA,incomplete,true,true,NA,0,4,NA,red,n_s_040.jpg,NA,NA,pleasant,unpleasant,NA,NA,NA,NA,NA,right,2800,true,NA,NA,NA,NA,NA
kSV1PDVj,3vck0q0pp8rxiiaq9ji6jar3xntn0d,3xlbsaq9z8p742mno8jbiw4rh4x7zb,kSV1PDVj,2020-0188,2021-10-17,22:05:50,23:40:21,NA,incomplete,true,true,NA,0,5,NA,red,n_l_035.jpg,NA,NA,unpleasant,pleasant,NA,NA,NA,NA,NA,right,1654,true,NA,NA,NA,NA,NA
kSV1PDVj,3vck0q0pp8rxiiaq9ji6jar3xntn0d,3xlbsaq9z8p742mno8jbiw4rh4x7zb,kSV1PDVj,2020-0188,2021-10-17,22:05:50,23:40:21,NA,incomplete,true,true,NA,0,6,NA,gray,n_l_111.jpg,NA,NA,unpleasant,pleasant,NA,NA,NA,NA,NA,right,1691,true,NA,NA,NA,NA,NA
kSV1PDVj,3vck0q0pp8rxiiaq9ji6jar3xntn0d,3xlbsaq9z8p742mno8jbiw4rh4x7zb,kSV1PDVj,2020-0188,2021-10-17,22:05:50,23:40:21,NA,incomplete,true,true,NA,0,7,NA,gray,n_l_103.jpg,NA,NA,pleasant,unpleasant,NA,NA,NA,NA,NA,left,1721,true,NA,NA,NA,NA,NA
kSV1PDVj,3vck0q0pp8rxiiaq9ji6jar3xntn0d,3xlbsaq9z8p742mno8jbiw4rh4x7zb,kSV1PDVj,2020-0188,2021-10-17,22:05:50,23:40:21,NA,incomplete,true,true,NA,0,8,NA,gray,m_l_096.jpg,NA,NA,pleasant,unpleasant,NA,NA,NA,NA,NA,left,1710,true,NA,NA,NA,NA,NA
kSV1PDVj,3vck0q0pp8rxiiaq9ji6jar3xntn0d,3xlbsaq9z8p742mno8jbiw4rh4x7zb,kSV1PDVj,2020-0188,2021-10-17,22:05:50,23:40:21,NA,incomplete,true,true,NA,0,9,NA,gray,m_s_089.jpg,NA,NA,unpleasant,pleasant,NA,NA,NA,NA,NA,left,1805,true,NA,NA,NA,NA,NA
kSV1PDVj,3vck0q0pp8rxiiaq9ji6jar3xntn0d,3xlbsaq9z8p742mno8jbiw4rh4x7zb,kSV1PDVj,2020-0188,2021-10-17,22:05:50,23:40:21,NA,incomplete,true,true,NA,0,10,NA,gray,m_l_052.jpg,NA,NA,pleasant,unpleasant,NA,NA,NA,NA,NA,left,1971,true,NA,NA,NA,NA,NA
kSV1PDVj,3vck0q0pp8rxiiaq9ji6jar3xntn0d,3xlbsaq9z8p742mno8jbiw4rh4x7zb,kSV1PDVj,2020-0188,2021-10-17,22:05:50,23:40:21,NA,incomplete,true,true,NA,0,11,NA,gray,m_s_106.jpg,NA,NA,unpleasant,pleasant,NA,NA,NA,NA,NA,right,1592,true,NA,NA,NA,NA,NA
kSV1PDVj,3vck0q0pp8rxiiaq9ji6jar3xntn0d,3xlbsaq9z8p742mno8jbiw4rh4x7zb,kSV1PDVj,2020-0188,2021-10-17,22:05:50,23:40:21,NA,incomplete,true,true,NA,0,12,NA,black,m_s_032.jpg,NA,NA,unpleasant,pleasant,NA,NA,NA,NA,NA,right,2069,true,NA,NA,NA,NA,NA
kSV1PDVj,3vck0q0pp8rxiiaq9ji6jar3xntn0d,3xlbsaq9z8p742mno8jbiw4rh4x7zb,kSV1PDVj,2020-0188,2021-10-17,22:05:50,23:40:21,NA,incomplete,true,true,NA,0,13,NA,black,m_l_020.jpg,NA,NA,unpleasant,pleasant,NA,NA,NA,NA,NA,right,2243,true,NA,NA,NA,NA,NA
kSV1PDVj,3vck0q0pp8rxiiaq9ji6jar3xntn0d,3xlbsaq9z8p742mno8jbiw4rh4x7zb,kSV1PDVj,2020-0188,2021-10-17,22:05:50,23:40:21,NA,incomplete,true,true,NA,0,14,NA,black,m_s_068.jpg,NA,NA,pleasant,unpleasant,NA,NA,NA,NA,NA,left,1760,true,NA,NA,NA,NA,NA
kSV1PDVj,3vck0q0pp8rxiiaq9ji6jar3xntn0d,3xlbsaq9z8p742mno8jbiw4rh4x7zb,kSV1PDVj,2020-0188,2021-10-17,22:05:50,23:40:21,NA,incomplete,true,true,NA,0,15,NA,black,n_l_095.jpg,NA,NA,pleasant,unpleasant,NA,NA,NA,NA,NA,left,2151,true,NA,NA,NA,NA,NA
kSV1PDVj,3vck0q0pp8rxiiaq9ji6jar3xntn0d,3xlbsaq9z8p742mno8jbiw4rh4x7zb,kSV1PDVj,2020-0188,2021-10-17,22:05:50,23:40:21,NA,incomplete,true,true,NA,0,16,NA,black,m_l_106.jpg,NA,NA,pleasant,unpleasant,NA,NA,NA,NA,NA,left,2540,true,NA,NA,NA,NA,NA
kSV1PDVj,3vck0q0pp8rxiiaq9ji6jar3xntn0d,3xlbsaq9z8p742mno8jbiw4rh4x7zb,kSV1PDVj,2020-0188,2021-10-17,22:05:50,23:40:21,NA,incomplete,true,true,NA,0,17,NA,black,n_s_017.jpg,NA,NA,pleasant,unpleasant,NA,NA,NA,NA,NA,right,2001,true,NA,NA,NA,NA,NA
kSV1PDVj,3vck0q0pp8rxiiaq9ji6jar3xntn0d,3xlbsaq9z8p742mno8jbiw4rh4x7zb,kSV1PDVj,2020-0188,2021-10-17,22:05:50,23:40:21,NA,incomplete,true,true,NA,0,18,NA,blue,n_l_090.jpg,NA,NA,pleasant,unpleasant,NA,NA,NA,NA,NA,right,1974,true,NA,NA,NA,NA,NA
kSV1PDVj,3vck0q0pp8rxiiaq9ji6jar3xntn0d,3xlbsaq9z8p742mno8jbiw4rh4x7zb,kSV1PDVj,2020-0188,2021-10-17,22:05:50,23:40:21,NA,incomplete,true,true,NA,0,19,NA,blue,n_l_024.jpg,NA,NA,unpleasant,pleasant,NA,NA,NA,NA,NA,right,1700,true,NA,NA,NA,NA,NA
kSV1PDVj,3vck0q0pp8rxiiaq9ji6jar3xntn0d,3xlbsaq9z8p742mno8jbiw4rh4x7zb,kSV1PDVj,2020-0188,2021-10-17,22:05:50,23:40:21,NA,incomplete,true,true,NA,0,20,NA,blue,n_l_034.jpg,NA,NA,unpleasant,pleasant,NA,NA,NA,NA,NA,right,1449,true,NA,NA,NA,NA,NA
kSV1PDVj,3vck0q0pp8rxiiaq9ji6jar3xntn0d,3xlbsaq9z8p742mno8jbiw4rh4x7zb,kSV1PDVj,2020-0188,2021-10-17,22:05:50,23:40:21,NA,incomplete,true,true,NA,0,21,NA,blue,n_l_005.jpg,NA,NA,pleasant,unpleasant,NA,NA,NA,NA,NA,left,1287,true,NA,NA,NA,NA,NA
kSV1PDVj,3vck0q0pp8rxiiaq9ji6jar3xntn0d,3xlbsaq9z8p742mno8jbiw4rh4x7zb,kSV1PDVj,2020-0188,2021-10-17,22:05:50,23:40:21,NA,incomplete,true,true,NA,0,22,NA,blue,n_l_044.jpg,NA,NA,pleasant,unpleasant,NA,NA,NA,NA,NA,left,1565,true,NA,NA,NA,NA,NA
kSV1PDVj,3vck0q0pp8rxiiaq9ji6jar3xntn0d,3xlbsaq9z8p742mno8jbiw4rh4x7zb,kSV1PDVj,2020-0188,2021-10-17,22:05:50,23:40:21,NA,incomplete,true,true,NA,0,23,NA,blue,m_s_023.jpg,NA,NA,pleasant,unpleasant,NA,NA,NA,NA,NA,left,1475,true,NA,NA,NA,NA,NA
kSV1PDVj,3vck0q0pp8rxiiaq9ji6jar3xntn0d,3xlbsaq9z8p742mno8jbiw4rh4x7zb,kSV1PDVj,2020-0188,2021-10-17,22:05:50,23:40:21,NA,incomplete,true,true,NA,0,24,NA,brown,n_s_022.jpg,NA,NA,unpleasant,pleasant,NA,NA,NA,NA,NA,left,1672,true,NA,NA,NA,NA,NA
kSV1PDVj,3vck0q0pp8rxiiaq9ji6jar3xntn0d,3xlbsaq9z8p742mno8jbiw4rh4x7zb,kSV1PDVj,2020-0188,2021-10-17,22:05:50,23:40:21,NA,incomplete,true,true,NA,0,25,NA,brown,n_l_075.jpg,NA,NA,pleasant,unpleasant,NA,NA,NA,NA,NA,right,2110,true,NA,NA,NA,NA,NA
kSV1PDVj,3vck0q0pp8rxiiaq9ji6jar3xntn0d,3xlbsaq9z8p742mno8jbiw4rh4x7zb,kSV1PDVj,2020-0188,2021-10-17,22:05:50,23:40:21,NA,incomplete,true,true,NA,0,26,NA,brown,n_s_103.jpg,NA,NA,pleasant,unpleasant,NA,NA,NA,NA,NA,left,1924,true,NA,NA,NA,NA,NA
kSV1PDVj,3vck0q0pp8rxiiaq9ji6jar3xntn0d,3xlbsaq9z8p742mno8jbiw4rh4x7zb,kSV1PDVj,2020-0188,2021-10-17,22:05:50,23:40:21,NA,incomplete,true,true,NA,0,27,NA,brown,m_s_039.jpg,NA,NA,pleasant,unpleasant,NA,NA,NA,NA,NA,left,1489,true,NA,NA,NA,NA,NA
kSV1PDVj,3vck0q0pp8rxiiaq9ji6jar3xntn0d,3xlbsaq9z8p742mno8jbiw4rh4x7zb,kSV1PDVj,2020-0188,2021-10-17,22:05:50,23:40:21,NA,incomplete,true,true,NA,0,28,NA,brown,m_l_108.jpg,NA,NA,pleasant,unpleasant,NA,NA,NA,NA,NA,left,1159,true,NA,NA,NA,NA,NA
kSV1PDVj,3vck0q0pp8rxiiaq9ji6jar3xntn0d,3xlbsaq9z8p742mno8jbiw4rh4x7zb,kSV1PDVj,2020-0188,2021-10-17,22:05:50,23:40:21,NA,incomplete,true,true,NA,0,29,NA,brown,m_s_110.jpg,NA,NA,unpleasant,pleasant,NA,NA,NA,NA,NA,right,1420,true,NA,NA,NA,NA,NA
kSV1PDVj,3vck0q0pp8rxiiaq9ji6jar3xntn0d,3xlbsaq9z8p742mno8jbiw4rh4x7zb,kSV1PDVj,2020-0188,2021-10-17,22:05:50,23:40:21,NA,incomplete,true,true,NA,0,30,NA,purple,n_s_105.jpg,NA,NA,unpleasant,pleasant,NA,NA,NA,NA,NA,right,1074,true,NA,NA,NA,NA,NA
kSV1PDVj,3vck0q0pp8rxiiaq9ji6jar3xntn0d,3xlbsaq9z8p742mno8jbiw4rh4x7zb,kSV1PDVj,2020-0188,2021-10-17,22:05:50,23:40:21,NA,incomplete,true,true,NA,0,31,NA,purple,n_l_043.jpg,NA,NA,pleasant,unpleasant,NA,NA,NA,NA,NA,right,1950,true,NA,NA,NA,NA,NA
kSV1PDVj,3vck0q0pp8rxiiaq9ji6jar3xntn0d,3xlbsaq9z8p742mno8jbiw4rh4x7zb,kSV1PDVj,2020-0188,2021-10-17,22:05:50,23:40:21,NA,incomplete,true,true,NA,0,32,NA,purple,n_s_039.jpg,NA,NA,pleasant,unpleasant,NA,NA,NA,NA,NA,left,1332,true,NA,NA,NA,NA,NA
kSV1PDVj,3vck0q0pp8rxiiaq9ji6jar3xntn0d,3xlbsaq9z8p742mno8jbiw4rh4x7zb,kSV1PDVj,2020-0188,2021-10-17,22:05:50,23:40:21,NA,incomplete,true,true,NA,0,33,NA,purple,m_s_078.jpg,NA,NA,pleasant,unpleasant,NA,NA,NA,NA,NA,left,1003,true,NA,NA,NA,NA,NA
kSV1PDVj,3vck0q0pp8rxiiaq9ji6jar3xntn0d,3xlbsaq9z8p742mno8jbiw4rh4x7zb,kSV1PDVj,2020-0188,2021-10-17,22:05:50,23:40:21,NA,incomplete,true,true,NA,0,34,NA,purple,m_s_093.jpg,NA,NA,pleasant,unpleasant,NA,NA,NA,NA,NA,left,1009,true,NA,NA,NA,NA,NA
kSV1PDVj,3vck0q0pp8rxiiaq9ji6jar3xntn0d,3xlbsaq9z8p742mno8jbiw4rh4x7zb,kSV1PDVj,2020-0188,2021-10-17,22:05:50,23:40:21,NA,incomplete,true,true,NA,0,35,NA,purple,n_l_011.jpg,NA,NA,pleasant,unpleasant,NA,NA,NA,NA,NA,right,1358,true,NA,NA,NA,NA,NA
kSV1PDVj,3vck0q0pp8rxiiaq9ji6jar3xntn0d,3xlbsaq9z8p742mno8jbiw4rh4x7zb,kSV1PDVj,2020-0188,2021-10-17,22:05:50,23:40:21,NA,incomplete,true,NA,true,0,0,NA,NA,NA,right,present,NA,NA,m_s_110.jpg,brown,n_l_075.jpg,brown,within,NA,NaN,NA,right,7983,1,1,2647
kSV1PDVj,3vck0q0pp8rxiiaq9ji6jar3xntn0d,3xlbsaq9z8p742mno8jbiw4rh4x7zb,kSV1PDVj,2020-0188,2021-10-17,22:05:50,23:40:21,NA,incomplete,true,NA,true,0,1,NA,NA,NA,right,present,NA,NA,n_s_039.jpg,purple,m_l_108.jpg,brown,between,NA,NaN,NA,right,7872,1,2,4439
kSV1PDVj,3vck0q0pp8rxiiaq9ji6jar3xntn0d,3xlbsaq9z8p742mno8jbiw4rh4x7zb,kSV1PDVj,2020-0188,2021-10-17,22:05:50,23:40:21,NA,incomplete,true,NA,true,0,2,NA,NA,NA,right,absent,NA,NA,n_s_017.jpg,black,m_l_020.jpg,black,within,NA,NaN,NA,right,9702,1,0,1535
kSV1PDVj,3vck0q0pp8rxiiaq9ji6jar3xntn0d,3xlbsaq9z8p742mno8jbiw4rh4x7zb,kSV1PDVj,2020-0188,2021-10-17,22:05:50,23:40:21,NA,incomplete,true,NA,true,0,3,NA,NA,NA,left,present,NA,NA,n_l_024.jpg,blue,m_s_023.jpg,blue,within,NA,NaN,NA,right,9336,0,1,1591
kSV1PDVj,3vck0q0pp8rxiiaq9ji6jar3xntn0d,3xlbsaq9z8p742mno8jbiw4rh4x7zb,kSV1PDVj,2020-0188,2021-10-17,22:05:50,23:40:21,NA,incomplete,true,NA,true,0,4,NA,NA,NA,right,present,NA,NA,n_s_103.jpg,brown,n_l_044.jpg,blue,between,NA,NaN,NA,left,5502,0,1,1543
kSV1PDVj,3vck0q0pp8rxiiaq9ji6jar3xntn0d,3xlbsaq9z8p742mno8jbiw4rh4x7zb,kSV1PDVj,2020-0188,2021-10-17,22:05:50,23:40:21,NA,incomplete,true,NA,true,0,5,NA,NA,NA,left,present,NA,NA,m_l_052.jpg,gray,m_s_068.jpg,black,between,NA,NaN,NA,left,4175,1,2,1151
kSV1PDVj,3vck0q0pp8rxiiaq9ji6jar3xntn0d,3xlbsaq9z8p742mno8jbiw4rh4x7zb,kSV1PDVj,2020-0188,2021-10-17,22:05:50,23:40:21,NA,incomplete,true,NA,true,0,6,NA,NA,NA,right,present,NA,NA,n_l_035.jpg,red,m_l_030.jpg,red,within,NA,NaN,NA,left,4567,0,0,2351
kSV1PDVj,3vck0q0pp8rxiiaq9ji6jar3xntn0d,3xlbsaq9z8p742mno8jbiw4rh4x7zb,kSV1PDVj,2020-0188,2021-10-17,22:05:50,23:40:21,NA,incomplete,true,NA,true,0,7,NA,NA,NA,left,present,NA,NA,m_l_106.jpg,black,n_l_034.jpg,blue,between,NA,NaN,NA,left,4343,1,0,1136
kSV1PDVj,3vck0q0pp8rxiiaq9ji6jar3xntn0d,3xlbsaq9z8p742mno8jbiw4rh4x7zb,kSV1PDVj,2020-0188,2021-10-17,22:05:50,23:40:21,NA,incomplete,true,NA,true,0,8,NA,NA,NA,right,present,NA,NA,m_l_096.jpg,gray,n_s_040.jpg,red,between,NA,NaN,NA,right,6646,1,1,3153
kSV1PDVj,3vck0q0pp8rxiiaq9ji6jar3xntn0d,3xlbsaq9z8p742mno8jbiw4rh4x7zb,kSV1PDVj,2020-0188,2021-10-17,22:05:50,23:40:21,NA,incomplete,true,NA,true,0,9,NA,NA,NA,right,present,NA,NA,m_s_106.jpg,gray,n_l_103.jpg,gray,within,NA,NaN,NA,left,3551,0,1,782
kSV1PDVj,3vck0q0pp8rxiiaq9ji6jar3xntn0d,3xlbsaq9z8p742mno8jbiw4rh4x7zb,kSV1PDVj,2020-0188,2021-10-17,22:05:50,23:40:21,NA,incomplete,true,NA,true,0,10,NA,NA,NA,right,absent,NA,NA,n_l_011.jpg,purple,n_l_043.jpg,purple,within,NA,NaN,NA,right,3872,1,2,3119
kSV1PDVj,3vck0q0pp8rxiiaq9ji6jar3xntn0d,3xlbsaq9z8p742mno8jbiw4rh4x7zb,kSV1PDVj,2020-0188,2021-10-17,22:05:50,23:40:21,NA,incomplete,false,true,NA,1,0,NA,red,n_s_059.jpg,NA,NA,pleasant,unpleasant,NA,NA,NA,NA,NA,left,1872,true,NA,NA,NA,NA,NA
kSV1PDVj,3vck0q0pp8rxiiaq9ji6jar3xntn0d,3xlbsaq9z8p742mno8jbiw4rh4x7zb,kSV1PDVj,2020-0188,2021-10-17,22:05:50,23:40:21,NA,incomplete,false,true,NA,1,1,NA,red,n_s_106.jpg,NA,NA,unpleasant,pleasant,NA,NA,NA,NA,NA,left,1596,true,NA,NA,NA,NA,NA
kSV1PDVj,3vck0q0pp8rxiiaq9ji6jar3xntn0d,3xlbsaq9z8p742mno8jbiw4rh4x7zb,kSV1PDVj,2020-0188,2021-10-17,22:05:50,23:40:21,NA,incomplete,false,true,NA,1,2,NA,red,n_s_018.jpg,NA,NA,unpleasant,pleasant,NA,NA,NA,NA,NA,left,2195,true,NA,NA,NA,NA,NA
kSV1PDVj,3vck0q0pp8rxiiaq9ji6jar3xntn0d,3xlbsaq9z8p742mno8jbiw4rh4x7zb,kSV1PDVj,2020-0188,2021-10-17,22:05:50,23:40:21,NA,incomplete,false,true,NA,1,3,NA,red,n_s_070.jpg,NA,NA,pleasant,unpleasant,NA,NA,NA,NA,NA,left,3088,true,NA,NA,NA,NA,NA
kSV1PDVj,3vck0q0pp8rxiiaq9ji6jar3xntn0d,3xlbsaq9z8p742mno8jbiw4rh4x7zb,kSV1PDVj,2020-0188,2021-10-17,22:05:50,23:40:21,NA,incomplete,false,true,NA,1,4,NA,red,m_s_064.jpg,NA,NA,unpleasant,pleasant,NA,NA,NA,NA,NA,left,2526,true,NA,NA,NA,NA,NA
kSV1PDVj,3vck0q0pp8rxiiaq9ji6jar3xntn0d,3xlbsaq9z8p742mno8jbiw4rh4x7zb,kSV1PDVj,2020-0188,2021-10-17,22:05:50,23:40:21,NA,incomplete,false,true,NA,1,5,NA,red,n_s_100.jpg,NA,NA,pleasant,unpleasant,NA,NA,NA,NA,NA,left,1740,true,NA,NA,NA,NA,NA
kSV1PDVj,3vck0q0pp8rxiiaq9ji6jar3xntn0d,3xlbsaq9z8p742mno8jbiw4rh4x7zb,kSV1PDVj,2020-0188,2021-10-17,22:05:50,23:40:21,NA,incomplete,false,true,NA,1,6,NA,gray,m_l_033.jpg,NA,NA,unpleasant,pleasant,NA,NA,NA,NA,NA,left,1834,true,NA,NA,NA,NA,NA
kSV1PDVj,3vck0q0pp8rxiiaq9ji6jar3xntn0d,3xlbsaq9z8p742mno8jbiw4rh4x7zb,kSV1PDVj,2020-0188,2021-10-17,22:05:50,23:40:21,NA,incomplete,false,true,NA,1,7,NA,gray,n_s_084.jpg,NA,NA,pleasant,unpleasant,NA,NA,NA,NA,NA,right,2095,true,NA,NA,NA,NA,NA
kSV1PDVj,3vck0q0pp8rxiiaq9ji6jar3xntn0d,3xlbsaq9z8p742mno8jbiw4rh4x7zb,kSV1PDVj,2020-0188,2021-10-17,22:05:50,23:40:21,NA,incomplete,false,true,NA,1,8,NA,gray,m_l_005.jpg,NA,NA,unpleasant,pleasant,NA,NA,NA,NA,NA,left,2430,true,NA,NA,NA,NA,NA
kSV1PDVj,3vck0q0pp8rxiiaq9ji6jar3xntn0d,3xlbsaq9z8p742mno8jbiw4rh4x7zb,kSV1PDVj,2020-0188,2021-10-17,22:05:50,23:40:21,NA,incomplete,false,true,NA,1,9,NA,gray,n_l_068.jpg,NA,NA,unpleasant,pleasant,NA,NA,NA,NA,NA,right,1586,true,NA,NA,NA,NA,NA
kSV1PDVj,3vck0q0pp8rxiiaq9ji6jar3xntn0d,3xlbsaq9z8p742mno8jbiw4rh4x7zb,kSV1PDVj,2020-0188,2021-10-17,22:05:50,23:40:21,NA,incomplete,false,true,NA,1,10,NA,gray,m_s_090.jpg,NA,NA,unpleasant,pleasant,NA,NA,NA,NA,NA,right,1289,true,NA,NA,NA,NA,NA
kSV1PDVj,3vck0q0pp8rxiiaq9ji6jar3xntn0d,3xlbsaq9z8p742mno8jbiw4rh4x7zb,kSV1PDVj,2020-0188,2021-10-17,22:05:50,23:40:21,NA,incomplete,false,true,NA,1,11,NA,gray,m_s_037.jpg,NA,NA,pleasant,unpleasant,NA,NA,NA,NA,NA,left,2093,true,NA,NA,NA,NA,NA
kSV1PDVj,3vck0q0pp8rxiiaq9ji6jar3xntn0d,3xlbsaq9z8p742mno8jbiw4rh4x7zb,kSV1PDVj,2020-0188,2021-10-17,22:05:50,23:40:21,NA,incomplete,false,true,NA,1,12,NA,black,n_l_036.jpg,NA,NA,unpleasant,pleasant,NA,NA,NA,NA,NA,left,1949,true,NA,NA,NA,NA,NA
kSV1PDVj,3vck0q0pp8rxiiaq9ji6jar3xntn0d,3xlbsaq9z8p742mno8jbiw4rh4x7zb,kSV1PDVj,2020-0188,2021-10-17,22:05:50,23:40:21,NA,incomplete,false,true,NA,1,13,NA,black,n_l_004.jpg,NA,NA,pleasant,unpleasant,NA,NA,NA,NA,NA,right,2346,true,NA,NA,NA,NA,NA
kSV1PDVj,3vck0q0pp8rxiiaq9ji6jar3xntn0d,3xlbsaq9z8p742mno8jbiw4rh4x7zb,kSV1PDVj,2020-0188,2021-10-17,22:05:50,23:40:21,NA,incomplete,false,true,NA,1,14,NA,black,n_l_110.jpg,NA,NA,pleasant,unpleasant,NA,NA,NA,NA,NA,left,1601,true,NA,NA,NA,NA,NA
kSV1PDVj,3vck0q0pp8rxiiaq9ji6jar3xntn0d,3xlbsaq9z8p742mno8jbiw4rh4x7zb,kSV1PDVj,2020-0188,2021-10-17,22:05:50,23:40:21,NA,incomplete,false,true,NA,1,15,NA,black,n_s_097.jpg,NA,NA,unpleasant,pleasant,NA,NA,NA,NA,NA,left,1565,true,NA,NA,NA,NA,NA
kSV1PDVj,3vck0q0pp8rxiiaq9ji6jar3xntn0d,3xlbsaq9z8p742mno8jbiw4rh4x7zb,kSV1PDVj,2020-0188,2021-10-17,22:05:50,23:40:21,NA,incomplete,false,true,NA,1,16,NA,black,m_s_085.jpg,NA,NA,unpleasant,pleasant,NA,NA,NA,NA,NA,left,1372,true,NA,NA,NA,NA,NA
kSV1PDVj,3vck0q0pp8rxiiaq9ji6jar3xntn0d,3xlbsaq9z8p742mno8jbiw4rh4x7zb,kSV1PDVj,2020-0188,2021-10-17,22:05:50,23:40:21,NA,incomplete,false,true,NA,1,17,NA,black,n_s_113.jpg,NA,NA,pleasant,unpleasant,NA,NA,NA,NA,NA,right,2537,true,NA,NA,NA,NA,NA
kSV1PDVj,3vck0q0pp8rxiiaq9ji6jar3xntn0d,3xlbsaq9z8p742mno8jbiw4rh4x7zb,kSV1PDVj,2020-0188,2021-10-17,22:05:50,23:40:21,NA,incomplete,false,true,NA,1,18,NA,yellow,n_l_113.jpg,NA,NA,pleasant,unpleasant,NA,NA,NA,NA,NA,right,2390,true,NA,NA,NA,NA,NA
kSV1PDVj,3vck0q0pp8rxiiaq9ji6jar3xntn0d,3xlbsaq9z8p742mno8jbiw4rh4x7zb,kSV1PDVj,2020-0188,2021-10-17,22:05:50,23:40:21,NA,incomplete,false,true,NA,1,19,NA,yellow,n_l_029.jpg,NA,NA,pleasant,unpleasant,NA,NA,NA,NA,NA,right,1852,true,NA,NA,NA,NA,NA
kSV1PDVj,3vck0q0pp8rxiiaq9ji6jar3xntn0d,3xlbsaq9z8p742mno8jbiw4rh4x7zb,kSV1PDVj,2020-0188,2021-10-17,22:05:50,23:40:21,NA,incomplete,false,true,NA,1,20,NA,yellow,m_s_042.jpg,NA,NA,pleasant,unpleasant,NA,NA,NA,NA,NA,left,1571,true,NA,NA,NA,NA,NA
kSV1PDVj,3vck0q0pp8rxiiaq9ji6jar3xntn0d,3xlbsaq9z8p742mno8jbiw4rh4x7zb,kSV1PDVj,2020-0188,2021-10-17,22:05:50,23:40:21,NA,incomplete,false,true,NA,1,21,NA,yellow,n_l_067.jpg,NA,NA,pleasant,unpleasant,NA,NA,NA,NA,NA,right,2144,true,NA,NA,NA,NA,NA
kSV1PDVj,3vck0q0pp8rxiiaq9ji6jar3xntn0d,3xlbsaq9z8p742mno8jbiw4rh4x7zb,kSV1PDVj,2020-0188,2021-10-17,22:05:50,23:40:21,NA,incomplete,false,true,NA,1,22,NA,yellow,n_l_088.jpg,NA,NA,unpleasant,pleasant,NA,NA,NA,NA,NA,left,1894,true,NA,NA,NA,NA,NA
kSV1PDVj,3vck0q0pp8rxiiaq9ji6jar3xntn0d,3xlbsaq9z8p742mno8jbiw4rh4x7zb,kSV1PDVj,2020-0188,2021-10-17,22:05:50,23:40:21,NA,incomplete,false,true,NA,1,23,NA,yellow,m_l_072.jpg,NA,NA,unpleasant,pleasant,NA,NA,NA,NA,NA,right,1348,true,NA,NA,NA,NA,NA
kSV1PDVj,3vck0q0pp8rxiiaq9ji6jar3xntn0d,3xlbsaq9z8p742mno8jbiw4rh4x7zb,kSV1PDVj,2020-0188,2021-10-17,22:05:50,23:40:21,NA,incomplete,false,true,NA,1,24,NA,blue,n_s_042.jpg,NA,NA,unpleasant,pleasant,NA,NA,NA,NA,NA,right,1594,true,NA,NA,NA,NA,NA
kSV1PDVj,3vck0q0pp8rxiiaq9ji6jar3xntn0d,3xlbsaq9z8p742mno8jbiw4rh4x7zb,kSV1PDVj,2020-0188,2021-10-17,22:05:50,23:40:21,NA,incomplete,false,true,NA,1,25,NA,blue,n_s_093.jpg,NA,NA,pleasant,unpleasant,NA,NA,NA,NA,NA,right,1400,true,NA,NA,NA,NA,NA
kSV1PDVj,3vck0q0pp8rxiiaq9ji6jar3xntn0d,3xlbsaq9z8p742mno8jbiw4rh4x7zb,kSV1PDVj,2020-0188,2021-10-17,22:05:50,23:40:21,NA,incomplete,false,true,NA,1,26,NA,blue,m_l_056.jpg,NA,NA,unpleasant,pleasant,NA,NA,NA,NA,NA,right,1557,true,NA,NA,NA,NA,NA
kSV1PDVj,3vck0q0pp8rxiiaq9ji6jar3xntn0d,3xlbsaq9z8p742mno8jbiw4rh4x7zb,kSV1PDVj,2020-0188,2021-10-17,22:05:50,23:40:21,NA,incomplete,false,true,NA,1,27,NA,blue,n_l_014.jpg,NA,NA,unpleasant,pleasant,NA,NA,NA,NA,NA,left,1635,true,NA,NA,NA,NA,NA
kSV1PDVj,3vck0q0pp8rxiiaq9ji6jar3xntn0d,3xlbsaq9z8p742mno8jbiw4rh4x7zb,kSV1PDVj,2020-0188,2021-10-17,22:05:50,23:40:21,NA,incomplete,false,true,NA,1,28,NA,blue,n_l_106.jpg,NA,NA,unpleasant,pleasant,NA,NA,NA,NA,NA,left,2025,true,NA,NA,NA,NA,NA
kSV1PDVj,3vck0q0pp8rxiiaq9ji6jar3xntn0d,3xlbsaq9z8p742mno8jbiw4rh4x7zb,kSV1PDVj,2020-0188,2021-10-17,22:05:50,23:40:21,NA,incomplete,false,true,NA,1,29,NA,blue,n_s_069.jpg,NA,NA,pleasant,unpleasant,NA,NA,NA,NA,NA,left,2878,true,NA,NA,NA,NA,NA
kSV1PDVj,3vck0q0pp8rxiiaq9ji6jar3xntn0d,3xlbsaq9z8p742mno8jbiw4rh4x7zb,kSV1PDVj,2020-0188,2021-10-17,22:05:50,23:40:21,NA,incomplete,false,true,NA,1,30,NA,green,m_l_010.jpg,NA,NA,unpleasant,pleasant,NA,NA,NA,NA,NA,right,2740,true,NA,NA,NA,NA,NA
kSV1PDVj,3vck0q0pp8rxiiaq9ji6jar3xntn0d,3xlbsaq9z8p742mno8jbiw4rh4x7zb,kSV1PDVj,2020-0188,2021-10-17,22:05:50,23:40:21,NA,incomplete,false,true,NA,1,31,NA,green,n_l_089.jpg,NA,NA,pleasant,unpleasant,NA,NA,NA,NA,NA,left,2177,true,NA,NA,NA,NA,NA
kSV1PDVj,3vck0q0pp8rxiiaq9ji6jar3xntn0d,3xlbsaq9z8p742mno8jbiw4rh4x7zb,kSV1PDVj,2020-0188,2021-10-17,22:05:50,23:40:21,NA,incomplete,false,true,NA,1,32,NA,green,n_l_097.jpg,NA,NA,unpleasant,pleasant,NA,NA,NA,NA,NA,right,1343,true,NA,NA,NA,NA,NA
kSV1PDVj,3vck0q0pp8rxiiaq9ji6jar3xntn0d,3xlbsaq9z8p742mno8jbiw4rh4x7zb,kSV1PDVj,2020-0188,2021-10-17,22:05:50,23:40:21,NA,incomplete,false,true,NA,1,33,NA,green,m_l_053.jpg,NA,NA,pleasant,unpleasant,NA,NA,NA,NA,NA,left,1261,true,NA,NA,NA,NA,NA
kSV1PDVj,3vck0q0pp8rxiiaq9ji6jar3xntn0d,3xlbsaq9z8p742mno8jbiw4rh4x7zb,kSV1PDVj,2020-0188,2021-10-17,22:05:50,23:40:21,NA,incomplete,false,true,NA,1,34,NA,green,n_s_096.jpg,NA,NA,pleasant,unpleasant,NA,NA,NA,NA,NA,left,1212,true,NA,NA,NA,NA,NA
kSV1PDVj,3vck0q0pp8rxiiaq9ji6jar3xntn0d,3xlbsaq9z8p742mno8jbiw4rh4x7zb,kSV1PDVj,2020-0188,2021-10-17,22:05:50,23:40:21,NA,incomplete,false,true,NA,1,35,NA,green,m_s_005.jpg,NA,NA,pleasant,unpleasant,NA,NA,NA,NA,NA,left,1778,true,NA,NA,NA,NA,NA
kSV1PDVj,3vck0q0pp8rxiiaq9ji6jar3xntn0d,3xlbsaq9z8p742mno8jbiw4rh4x7zb,kSV1PDVj,2020-0188,2021-10-17,22:05:50,23:40:21,NA,incomplete,false,NA,true,1,0,NA,NA,NA,left,absent,NA,NA,m_s_090.jpg,gray,n_l_110.jpg,black,between,NA,NaN,NA,left,4367,1,0,1801
kSV1PDVj,3vck0q0pp8rxiiaq9ji6jar3xntn0d,3xlbsaq9z8p742mno8jbiw4rh4x7zb,kSV1PDVj,2020-0188,2021-10-17,22:05:50,23:40:21,NA,incomplete,false,NA,true,1,1,NA,NA,NA,right,absent,NA,NA,n_l_097.jpg,green,n_l_106.jpg,blue,between,NA,NaN,NA,right,8455,1,1,1688
kSV1PDVj,3vck0q0pp8rxiiaq9ji6jar3xntn0d,3xlbsaq9z8p742mno8jbiw4rh4x7zb,kSV1PDVj,2020-0188,2021-10-17,22:05:50,23:40:21,NA,incomplete,false,NA,true,1,2,NA,NA,NA,right,absent,NA,NA,m_l_056.jpg,blue,n_l_088.jpg,yellow,between,NA,NaN,NA,left,4079,0,2,4232
kSV1PDVj,3vck0q0pp8rxiiaq9ji6jar3xntn0d,3xlbsaq9z8p742mno8jbiw4rh4x7zb,kSV1PDVj,2020-0188,2021-10-17,22:05:50,23:40:21,NA,incomplete,false,NA,true,1,3,NA,NA,NA,left,absent,NA,NA,n_s_084.jpg,gray,m_s_037.jpg,gray,within,NA,NaN,NA,right,8360,0,2,1631
kSV1PDVj,3vck0q0pp8rxiiaq9ji6jar3xntn0d,3xlbsaq9z8p742mno8jbiw4rh4x7zb,kSV1PDVj,2020-0188,2021-10-17,22:05:50,23:40:21,NA,incomplete,false,NA,true,1,4,NA,NA,NA,left,absent,NA,NA,n_s_093.jpg,blue,n_s_069.jpg,blue,within,NA,NaN,NA,right,3055,0,3,1424
kSV1PDVj,3vck0q0pp8rxiiaq9ji6jar3xntn0d,3xlbsaq9z8p742mno8jbiw4rh4x7zb,kSV1PDVj,2020-0188,2021-10-17,22:05:50,23:40:21,NA,incomplete,false,NA,true,1,5,NA,NA,NA,right,absent,NA,NA,m_s_005.jpg,green,n_l_089.jpg,green,within,NA,NaN,NA,left,6610,0,2,1550
kSV1PDVj,3vck0q0pp8rxiiaq9ji6jar3xntn0d,3xlbsaq9z8p742mno8jbiw4rh4x7zb,kSV1PDVj,2020-0188,2021-10-17,22:05:50,23:40:21,NA,incomplete,false,NA,true,1,6,NA,NA,NA,right,absent,NA,NA,m_l_072.jpg,yellow,n_l_029.jpg,yellow,within,NA,NaN,NA,right,9015,1,2,975
kSV1PDVj,3vck0q0pp8rxiiaq9ji6jar3xntn0d,3xlbsaq9z8p742mno8jbiw4rh4x7zb,kSV1PDVj,2020-0188,2021-10-17,22:05:50,23:40:21,NA,incomplete,false,NA,true,1,7,NA,NA,NA,right,absent,NA,NA,m_s_042.jpg,yellow,m_s_085.jpg,black,between,NA,NaN,NA,right,5256,1,3,2760
kSV1PDVj,3vck0q0pp8rxiiaq9ji6jar3xntn0d,3xlbsaq9z8p742mno8jbiw4rh4x7zb,kSV1PDVj,2020-0188,2021-10-17,22:05:50,23:40:21,NA,incomplete,false,NA,true,1,8,NA,NA,NA,left,absent,NA,NA,n_s_106.jpg,red,n_s_100.jpg,red,within,NA,NaN,NA,left,4176,1,0,1807
kSV1PDVj,3vck0q0pp8rxiiaq9ji6jar3xntn0d,3xlbsaq9z8p742mno8jbiw4rh4x7zb,kSV1PDVj,2020-0188,2021-10-17,22:05:50,23:40:21,NA,incomplete,false,NA,true,1,9,NA,NA,NA,left,absent,NA,NA,m_s_064.jpg,red,m_l_005.jpg,gray,between,NA,NaN,NA,right,6552,0,0,1103
kSV1PDVj,3vck0q0pp8rxiiaq9ji6jar3xntn0d,3xlbsaq9z8p742mno8jbiw4rh4x7zb,kSV1PDVj,2020-0188,2021-10-17,22:05:50,23:40:21,NA,incomplete,false,NA,true,1,10,NA,NA,NA,right,absent,NA,NA,n_s_113.jpg,black,n_l_004.jpg,black,within,NA,NaN,NA,right,4680,1,1,3191
kSV1PDVj,3vck0q0pp8rxiiaq9ji6jar3xntn0d,3xlbsaq9z8p742mno8jbiw4rh4x7zb,kSV1PDVj,2020-0188,2021-10-17,22:05:50,23:40:21,NA,incomplete,false,true,NA,2,0,NA,yellow,n_s_052.jpg,NA,NA,pleasant,unpleasant,NA,NA,NA,NA,NA,left,1085,true,NA,NA,NA,NA,NA
kSV1PDVj,3vck0q0pp8rxiiaq9ji6jar3xntn0d,3xlbsaq9z8p742mno8jbiw4rh4x7zb,kSV1PDVj,2020-0188,2021-10-17,22:05:50,23:40:21,NA,incomplete,false,true,NA,2,1,NA,yellow,n_l_012.jpg,NA,NA,unpleasant,pleasant,NA,NA,NA,NA,NA,right,2355,true,NA,NA,NA,NA,NA
kSV1PDVj,3vck0q0pp8rxiiaq9ji6jar3xntn0d,3xlbsaq9z8p742mno8jbiw4rh4x7zb,kSV1PDVj,2020-0188,2021-10-17,22:05:50,23:40:21,NA,incomplete,false,true,NA,2,2,NA,yellow,n_l_096.jpg,NA,NA,unpleasant,pleasant,NA,NA,NA,NA,NA,right,1840,true,NA,NA,NA,NA,NA
kSV1PDVj,3vck0q0pp8rxiiaq9ji6jar3xntn0d,3xlbsaq9z8p742mno8jbiw4rh4x7zb,kSV1PDVj,2020-0188,2021-10-17,22:05:50,23:40:21,NA,incomplete,false,true,NA,2,3,NA,yellow,m_s_046.jpg,NA,NA,pleasant,unpleasant,NA,NA,NA,NA,NA,left,2406,true,NA,NA,NA,NA,NA
kSV1PDVj,3vck0q0pp8rxiiaq9ji6jar3xntn0d,3xlbsaq9z8p742mno8jbiw4rh4x7zb,kSV1PDVj,2020-0188,2021-10-17,22:05:50,23:40:21,NA,incomplete,false,true,NA,2,4,NA,yellow,n_l_081.jpg,NA,NA,pleasant,unpleasant,NA,NA,NA,NA,NA,left,2163,true,NA,NA,NA,NA,NA
kSV1PDVj,3vck0q0pp8rxiiaq9ji6jar3xntn0d,3xlbsaq9z8p742mno8jbiw4rh4x7zb,kSV1PDVj,2020-0188,2021-10-17,22:05:50,23:40:21,NA,incomplete,false,true,NA,2,5,NA,yellow,n_s_101.jpg,NA,NA,unpleasant,pleasant,NA,NA,NA,NA,NA,left,2401,true,NA,NA,NA,NA,NA
kSV1PDVj,3vck0q0pp8rxiiaq9ji6jar3xntn0d,3xlbsaq9z8p742mno8jbiw4rh4x7zb,kSV1PDVj,2020-0188,2021-10-17,22:05:50,23:40:21,NA,incomplete,false,true,NA,2,6,NA,orange,n_l_070.jpg,NA,NA,pleasant,unpleasant,NA,NA,NA,NA,NA,left,2575,true,NA,NA,NA,NA,NA
kSV1PDVj,3vck0q0pp8rxiiaq9ji6jar3xntn0d,3xlbsaq9z8p742mno8jbiw4rh4x7zb,kSV1PDVj,2020-0188,2021-10-17,22:05:50,23:40:21,NA,incomplete,false,true,NA,2,7,NA,orange,m_s_007.jpg,NA,NA,pleasant,unpleasant,NA,NA,NA,NA,NA,left,2396,true,NA,NA,NA,NA,NA
kSV1PDVj,3vck0q0pp8rxiiaq9ji6jar3xntn0d,3xlbsaq9z8p742mno8jbiw4rh4x7zb,kSV1PDVj,2020-0188,2021-10-17,22:05:50,23:40:21,NA,incomplete,false,true,NA,2,8,NA,orange,n_s_104.jpg,NA,NA,pleasant,unpleasant,NA,NA,NA,NA,NA,left,1835,true,NA,NA,NA,NA,NA
kSV1PDVj,3vck0q0pp8rxiiaq9ji6jar3xntn0d,3xlbsaq9z8p742mno8jbiw4rh4x7zb,kSV1PDVj,2020-0188,2021-10-17,22:05:50,23:40:21,NA,incomplete,false,true,NA,2,9,NA,orange,m_l_015.jpg,NA,NA,unpleasant,pleasant,NA,NA,NA,NA,NA,right,1335,true,NA,NA,NA,NA,NA
kSV1PDVj,3vck0q0pp8rxiiaq9ji6jar3xntn0d,3xlbsaq9z8p742mno8jbiw4rh4x7zb,kSV1PDVj,2020-0188,2021-10-17,22:05:50,23:40:21,NA,incomplete,false,true,NA,2,10,NA,orange,n_l_028.jpg,NA,NA,unpleasant,pleasant,NA,NA,NA,NA,NA,right,1765,true,NA,NA,NA,NA,NA
kSV1PDVj,3vck0q0pp8rxiiaq9ji6jar3xntn0d,3xlbsaq9z8p742mno8jbiw4rh4x7zb,kSV1PDVj,2020-0188,2021-10-17,22:05:50,23:40:21,NA,incomplete,false,true,NA,2,11,NA,orange,m_s_026.jpg,NA,NA,unpleasant,pleasant,NA,NA,NA,NA,NA,right,2395,true,NA,NA,NA,NA,NA
kSV1PDVj,3vck0q0pp8rxiiaq9ji6jar3xntn0d,3xlbsaq9z8p742mno8jbiw4rh4x7zb,kSV1PDVj,2020-0188,2021-10-17,22:05:50,23:40:21,NA,incomplete,false,true,NA,2,12,NA,black,m_l_116.jpg,NA,NA,unpleasant,pleasant,NA,NA,NA,NA,NA,right,1769,true,NA,NA,NA,NA,NA
kSV1PDVj,3vck0q0pp8rxiiaq9ji6jar3xntn0d,3xlbsaq9z8p742mno8jbiw4rh4x7zb,kSV1PDVj,2020-0188,2021-10-17,22:05:50,23:40:21,NA,incomplete,false,true,NA,2,13,NA,black,m_s_047.jpg,NA,NA,unpleasant,pleasant,NA,NA,NA,NA,NA,right,1487,true,NA,NA,NA,NA,NA
kSV1PDVj,3vck0q0pp8rxiiaq9ji6jar3xntn0d,3xlbsaq9z8p742mno8jbiw4rh4x7zb,kSV1PDVj,2020-0188,2021-10-17,22:05:50,23:40:21,NA,incomplete,false,true,NA,2,14,NA,black,m_s_048.jpg,NA,NA,unpleasant,pleasant,NA,NA,NA,NA,NA,right,2540,true,NA,NA,NA,NA,NA
kSV1PDVj,3vck0q0pp8rxiiaq9ji6jar3xntn0d,3xlbsaq9z8p742mno8jbiw4rh4x7zb,kSV1PDVj,2020-0188,2021-10-17,22:05:50,23:40:21,NA,incomplete,false,true,NA,2,15,NA,black,n_s_027.jpg,NA,NA,unpleasant,pleasant,NA,NA,NA,NA,NA,left,1482,true,NA,NA,NA,NA,NA
kSV1PDVj,3vck0q0pp8rxiiaq9ji6jar3xntn0d,3xlbsaq9z8p742mno8jbiw4rh4x7zb,kSV1PDVj,2020-0188,2021-10-17,22:05:50,23:40:21,NA,incomplete,false,true,NA,2,16,NA,black,m_l_088.jpg,NA,NA,unpleasant,pleasant,NA,NA,NA,NA,NA,right,1153,true,NA,NA,NA,NA,NA
kSV1PDVj,3vck0q0pp8rxiiaq9ji6jar3xntn0d,3xlbsaq9z8p742mno8jbiw4rh4x7zb,kSV1PDVj,2020-0188,2021-10-17,22:05:50,23:40:21,NA,incomplete,false,true,NA,2,17,NA,black,n_l_059.jpg,NA,NA,unpleasant,pleasant,NA,NA,NA,NA,NA,left,1341,true,NA,NA,NA,NA,NA
kSV1PDVj,3vck0q0pp8rxiiaq9ji6jar3xntn0d,3xlbsaq9z8p742mno8jbiw4rh4x7zb,kSV1PDVj,2020-0188,2021-10-17,22:05:50,23:40:21,NA,incomplete,false,true,NA,2,18,NA,brown,m_s_016.jpg,NA,NA,unpleasant,pleasant,NA,NA,NA,NA,NA,right,1259,true,NA,NA,NA,NA,NA
kSV1PDVj,3vck0q0pp8rxiiaq9ji6jar3xntn0d,3xlbsaq9z8p742mno8jbiw4rh4x7zb,kSV1PDVj,2020-0188,2021-10-17,22:05:50,23:40:21,NA,incomplete,false,true,NA,2,19,NA,brown,m_s_059.jpg,NA,NA,pleasant,unpleasant,NA,NA,NA,NA,NA,left,2592,true,NA,NA,NA,NA,NA
kSV1PDVj,3vck0q0pp8rxiiaq9ji6jar3xntn0d,3xlbsaq9z8p742mno8jbiw4rh4x7zb,kSV1PDVj,2020-0188,2021-10-17,22:05:50,23:40:21,NA,incomplete,false,true,NA,2,20,NA,brown,m_l_037.jpg,NA,NA,pleasant,unpleasant,NA,NA,NA,NA,NA,left,1742,true,NA,NA,NA,NA,NA
kSV1PDVj,3vck0q0pp8rxiiaq9ji6jar3xntn0d,3xlbsaq9z8p742mno8jbiw4rh4x7zb,kSV1PDVj,2020-0188,2021-10-17,22:05:50,23:40:21,NA,incomplete,false,true,NA,2,21,NA,brown,m_s_021.jpg,NA,NA,pleasant,unpleasant,NA,NA,NA,NA,NA,right,1307,true,NA,NA,NA,NA,NA
kSV1PDVj,3vck0q0pp8rxiiaq9ji6jar3xntn0d,3xlbsaq9z8p742mno8jbiw4rh4x7zb,kSV1PDVj,2020-0188,2021-10-17,22:05:50,23:40:21,NA,incomplete,false,true,NA,2,22,NA,brown,m_l_023.jpg,NA,NA,unpleasant,pleasant,NA,NA,NA,NA,NA,right,2057,true,NA,NA,NA,NA,NA
kSV1PDVj,3vck0q0pp8rxiiaq9ji6jar3xntn0d,3xlbsaq9z8p742mno8jbiw4rh4x7zb,kSV1PDVj,2020-0188,2021-10-17,22:05:50,23:40:21,NA,incomplete,false,true,NA,2,23,NA,brown,n_s_068.jpg,NA,NA,pleasant,unpleasant,NA,NA,NA,NA,NA,left,1134,true,NA,NA,NA,NA,NA
kSV1PDVj,3vck0q0pp8rxiiaq9ji6jar3xntn0d,3xlbsaq9z8p742mno8jbiw4rh4x7zb,kSV1PDVj,2020-0188,2021-10-17,22:05:50,23:40:21,NA,incomplete,false,true,NA,2,24,NA,white,n_s_012.jpg,NA,NA,pleasant,unpleasant,NA,NA,NA,NA,NA,left,1252,true,NA,NA,NA,NA,NA
kSV1PDVj,3vck0q0pp8rxiiaq9ji6jar3xntn0d,3xlbsaq9z8p742mno8jbiw4rh4x7zb,kSV1PDVj,2020-0188,2021-10-17,22:05:50,23:40:21,NA,incomplete,false,true,NA,2,25,NA,white,m_s_061.jpg,NA,NA,unpleasant,pleasant,NA,NA,NA,NA,NA,right,1162,true,NA,NA,NA,NA,NA
kSV1PDVj,3vck0q0pp8rxiiaq9ji6jar3xntn0d,3xlbsaq9z8p742mno8jbiw4rh4x7zb,kSV1PDVj,2020-0188,2021-10-17,22:05:50,23:40:21,NA,incomplete,false,true,NA,2,26,NA,white,n_s_009.jpg,NA,NA,pleasant,unpleasant,NA,NA,NA,NA,NA,left,1648,true,NA,NA,NA,NA,NA
kSV1PDVj,3vck0q0pp8rxiiaq9ji6jar3xntn0d,3xlbsaq9z8p742mno8jbiw4rh4x7zb,kSV1PDVj,2020-0188,2021-10-17,22:05:50,23:40:21,NA,incomplete,false,true,NA,2,27,NA,white,m_s_101.jpg,NA,NA,unpleasant,pleasant,NA,NA,NA,NA,NA,right,2181,true,NA,NA,NA,NA,NA
kSV1PDVj,3vck0q0pp8rxiiaq9ji6jar3xntn0d,3xlbsaq9z8p742mno8jbiw4rh4x7zb,kSV1PDVj,2020-0188,2021-10-17,22:05:50,23:40:21,NA,incomplete,false,true,NA,2,28,NA,white,m_l_050.jpg,NA,NA,pleasant,unpleasant,NA,NA,NA,NA,NA,left,1588,true,NA,NA,NA,NA,NA
kSV1PDVj,3vck0q0pp8rxiiaq9ji6jar3xntn0d,3xlbsaq9z8p742mno8jbiw4rh4x7zb,kSV1PDVj,2020-0188,2021-10-17,22:05:50,23:40:21,NA,incomplete,false,true,NA,2,29,NA,white,n_l_061.jpg,NA,NA,pleasant,unpleasant,NA,NA,NA,NA,NA,left,1858,true,NA,NA,NA,NA,NA
kSV1PDVj,3vck0q0pp8rxiiaq9ji6jar3xntn0d,3xlbsaq9z8p742mno8jbiw4rh4x7zb,kSV1PDVj,2020-0188,2021-10-17,22:05:50,23:40:21,NA,incomplete,false,true,NA,2,30,NA,purple,n_l_017.jpg,NA,NA,unpleasant,pleasant,NA,NA,NA,NA,NA,left,2239,true,NA,NA,NA,NA,NA
kSV1PDVj,3vck0q0pp8rxiiaq9ji6jar3xntn0d,3xlbsaq9z8p742mno8jbiw4rh4x7zb,kSV1PDVj,2020-0188,2021-10-17,22:05:50,23:40:21,NA,incomplete,false,true,NA,2,31,NA,purple,m_s_081.jpg,NA,NA,pleasant,unpleasant,NA,NA,NA,NA,NA,left,1349,true,NA,NA,NA,NA,NA
kSV1PDVj,3vck0q0pp8rxiiaq9ji6jar3xntn0d,3xlbsaq9z8p742mno8jbiw4rh4x7zb,kSV1PDVj,2020-0188,2021-10-17,22:05:50,23:40:21,NA,incomplete,false,true,NA,2,32,NA,purple,m_l_028.jpg,NA,NA,pleasant,unpleasant,NA,NA,NA,NA,NA,left,1251,true,NA,NA,NA,NA,NA
kSV1PDVj,3vck0q0pp8rxiiaq9ji6jar3xntn0d,3xlbsaq9z8p742mno8jbiw4rh4x7zb,kSV1PDVj,2020-0188,2021-10-17,22:05:50,23:40:21,NA,incomplete,false,true,NA,2,33,NA,purple,m_s_011.jpg,NA,NA,unpleasant,pleasant,NA,NA,NA,NA,NA,right,2040,true,NA,NA,NA,NA,NA
kSV1PDVj,3vck0q0pp8rxiiaq9ji6jar3xntn0d,3xlbsaq9z8p742mno8jbiw4rh4x7zb,kSV1PDVj,2020-0188,2021-10-17,22:05:50,23:40:21,NA,incomplete,false,true,NA,2,34,NA,purple,n_l_056.jpg,NA,NA,unpleasant,pleasant,NA,NA,NA,NA,NA,right,1414,true,NA,NA,NA,NA,NA
kSV1PDVj,3vck0q0pp8rxiiaq9ji6jar3xntn0d,3xlbsaq9z8p742mno8jbiw4rh4x7zb,kSV1PDVj,2020-0188,2021-10-17,22:05:50,23:40:21,NA,incomplete,false,true,NA,2,35,NA,purple,n_l_002.jpg,NA,NA,pleasant,unpleasant,NA,NA,NA,NA,NA,left,1164,true,NA,NA,NA,NA,NA
kSV1PDVj,3vck0q0pp8rxiiaq9ji6jar3xntn0d,3xlbsaq9z8p742mno8jbiw4rh4x7zb,kSV1PDVj,2020-0188,2021-10-17,22:05:50,23:40:21,NA,incomplete,false,NA,true,2,0,NA,NA,NA,left,present,NA,NA,n_l_081.jpg,yellow,n_s_104.jpg,orange,between,NA,NaN,NA,left,6832,1,0,3639
kSV1PDVj,3vck0q0pp8rxiiaq9ji6jar3xntn0d,3xlbsaq9z8p742mno8jbiw4rh4x7zb,kSV1PDVj,2020-0188,2021-10-17,22:05:50,23:40:21,NA,incomplete,false,NA,true,2,1,NA,NA,NA,left,present,NA,NA,m_l_023.jpg,brown,n_s_009.jpg,white,between,NA,NaN,NA,left,4559,1,1,4232
kSV1PDVj,3vck0q0pp8rxiiaq9ji6jar3xntn0d,3xlbsaq9z8p742mno8jbiw4rh4x7zb,kSV1PDVj,2020-0188,2021-10-17,22:05:50,23:40:21,NA,incomplete,false,NA,true,2,2,NA,NA,NA,left,present,NA,NA,m_s_081.jpg,purple,n_l_002.jpg,purple,within,NA,NaN,NA,right,6663,0,0,1216
kSV1PDVj,3vck0q0pp8rxiiaq9ji6jar3xntn0d,3xlbsaq9z8p742mno8jbiw4rh4x7zb,kSV1PDVj,2020-0188,2021-10-17,22:05:50,23:40:21,NA,incomplete,false,NA,true,2,3,NA,NA,NA,right,present,NA,NA,n_l_059.jpg,black,m_s_047.jpg,black,within,NA,NaN,NA,left,8246,0,0,1512
kSV1PDVj,3vck0q0pp8rxiiaq9ji6jar3xntn0d,3xlbsaq9z8p742mno8jbiw4rh4x7zb,kSV1PDVj,2020-0188,2021-10-17,22:05:50,23:40:21,NA,incomplete,false,NA,true,2,4,NA,NA,NA,left,present,NA,NA,n_l_028.jpg,orange,m_s_048.jpg,black,between,NA,NaN,NA,right,5287,0,2,1646
kSV1PDVj,3vck0q0pp8rxiiaq9ji6jar3xntn0d,3xlbsaq9z8p742mno8jbiw4rh4x7zb,kSV1PDVj,2020-0188,2021-10-17,22:05:50,23:40:21,NA,incomplete,false,NA,true,2,5,NA,NA,NA,left,present,NA,NA,m_l_050.jpg,white,m_l_028.jpg,purple,between,NA,NaN,NA,left,5431,1,1,1415
kSV1PDVj,3vck0q0pp8rxiiaq9ji6jar3xntn0d,3xlbsaq9z8p742mno8jbiw4rh4x7zb,kSV1PDVj,2020-0188,2021-10-17,22:05:50,23:40:21,NA,incomplete,false,NA,true,2,6,NA,NA,NA,right,present,NA,NA,n_s_101.jpg,yellow,n_l_012.jpg,yellow,within,NA,NaN,NA,right,5880,1,1,2536
kSV1PDVj,3vck0q0pp8rxiiaq9ji6jar3xntn0d,3xlbsaq9z8p742mno8jbiw4rh4x7zb,kSV1PDVj,2020-0188,2021-10-17,22:05:50,23:40:21,NA,incomplete,false,NA,true,2,7,NA,NA,NA,left,present,NA,NA,m_s_059.jpg,brown,n_s_068.jpg,brown,within,NA,NaN,NA,right,3871,0,2,3224
kSV1PDVj,3vck0q0pp8rxiiaq9ji6jar3xntn0d,3xlbsaq9z8p742mno8jbiw4rh4x7zb,kSV1PDVj,2020-0188,2021-10-17,22:05:50,23:40:21,NA,incomplete,false,NA,true,2,8,NA,NA,NA,right,present,NA,NA,m_l_037.jpg,brown,m_l_088.jpg,black,between,NA,NaN,NA,left,3744,0,2,1111
kSV1PDVj,3vck0q0pp8rxiiaq9ji6jar3xntn0d,3xlbsaq9z8p742mno8jbiw4rh4x7zb,kSV1PDVj,2020-0188,2021-10-17,22:05:50,23:40:21,NA,incomplete,false,NA,true,2,9,NA,NA,NA,right,present,NA,NA,n_l_061.jpg,white,m_s_061.jpg,white,within,NA,NaN,NA,left,5432,0,1,1855
kSV1PDVj,3vck0q0pp8rxiiaq9ji6jar3xntn0d,3xlbsaq9z8p742mno8jbiw4rh4x7zb,kSV1PDVj,2020-0188,2021-10-17,22:05:50,23:40:21,NA,incomplete,false,NA,true,2,10,NA,NA,NA,left,present,NA,NA,m_s_007.jpg,orange,m_s_026.jpg,orange,within,NA,NaN,NA,left,3303,1,1,2503
kSV1PDVj,3vck0q0pp8rxiiaq9ji6jar3xntn0d,3xlbsaq9z8p742mno8jbiw4rh4x7zb,kSV1PDVj,2020-0188,2021-10-17,22:05:50,23:40:21,NA,incomplete,false,true,NA,3,0,NA,green,n_s_023.jpg,NA,NA,unpleasant,pleasant,NA,NA,NA,NA,NA,left,1823,true,NA,NA,NA,NA,NA
kSV1PDVj,3vck0q0pp8rxiiaq9ji6jar3xntn0d,3xlbsaq9z8p742mno8jbiw4rh4x7zb,kSV1PDVj,2020-0188,2021-10-17,22:05:50,23:40:21,NA,incomplete,false,true,NA,3,1,NA,green,n_l_032.jpg,NA,NA,unpleasant,pleasant,NA,NA,NA,NA,NA,left,2061,true,NA,NA,NA,NA,NA
kSV1PDVj,3vck0q0pp8rxiiaq9ji6jar3xntn0d,3xlbsaq9z8p742mno8jbiw4rh4x7zb,kSV1PDVj,2020-0188,2021-10-17,22:05:50,23:40:21,NA,incomplete,false,true,NA,3,2,NA,green,n_l_062.jpg,NA,NA,unpleasant,pleasant,NA,NA,NA,NA,NA,right,1922,true,NA,NA,NA,NA,NA
kSV1PDVj,3vck0q0pp8rxiiaq9ji6jar3xntn0d,3xlbsaq9z8p742mno8jbiw4rh4x7zb,kSV1PDVj,2020-0188,2021-10-17,22:05:50,23:40:21,NA,incomplete,false,true,NA,3,3,NA,green,m_l_013.jpg,NA,NA,pleasant,unpleasant,NA,NA,NA,NA,NA,left,1416,true,NA,NA,NA,NA,NA
kSV1PDVj,3vck0q0pp8rxiiaq9ji6jar3xntn0d,3xlbsaq9z8p742mno8jbiw4rh4x7zb,kSV1PDVj,2020-0188,2021-10-17,22:05:50,23:40:21,NA,incomplete,false,true,NA,3,4,NA,green,m_s_071.jpg,NA,NA,unpleasant,pleasant,NA,NA,NA,NA,NA,left,1646,true,NA,NA,NA,NA,NA
kSV1PDVj,3vck0q0pp8rxiiaq9ji6jar3xntn0d,3xlbsaq9z8p742mno8jbiw4rh4x7zb,kSV1PDVj,2020-0188,2021-10-17,22:05:50,23:40:21,NA,incomplete,false,true,NA,3,5,NA,green,m_l_038.jpg,NA,NA,unpleasant,pleasant,NA,NA,NA,NA,NA,left,2540,true,NA,NA,NA,NA,NA
kSV1PDVj,3vck0q0pp8rxiiaq9ji6jar3xntn0d,3xlbsaq9z8p742mno8jbiw4rh4x7zb,kSV1PDVj,2020-0188,2021-10-17,22:05:50,23:40:21,NA,incomplete,false,true,NA,3,6,NA,red,n_l_050.jpg,NA,NA,pleasant,unpleasant,NA,NA,NA,NA,NA,left,1816,true,NA,NA,NA,NA,NA
kSV1PDVj,3vck0q0pp8rxiiaq9ji6jar3xntn0d,3xlbsaq9z8p742mno8jbiw4rh4x7zb,kSV1PDVj,2020-0188,2021-10-17,22:05:50,23:40:21,NA,incomplete,false,true,NA,3,7,NA,red,n_l_077.jpg,NA,NA,pleasant,unpleasant,NA,NA,NA,NA,NA,right,2446,true,NA,NA,NA,NA,NA
kSV1PDVj,3vck0q0pp8rxiiaq9ji6jar3xntn0d,3xlbsaq9z8p742mno8jbiw4rh4x7zb,kSV1PDVj,2020-0188,2021-10-17,22:05:50,23:40:21,NA,incomplete,false,true,NA,3,8,NA,red,n_l_086.jpg,NA,NA,unpleasant,pleasant,NA,NA,NA,NA,NA,left,1533,true,NA,NA,NA,NA,NA
kSV1PDVj,3vck0q0pp8rxiiaq9ji6jar3xntn0d,3xlbsaq9z8p742mno8jbiw4rh4x7zb,kSV1PDVj,2020-0188,2021-10-17,22:05:50,23:40:21,NA,incomplete,false,true,NA,3,9,NA,red,m_l_058.jpg,NA,NA,unpleasant,pleasant,NA,NA,NA,NA,NA,right,1778,true,NA,NA,NA,NA,NA
kSV1PDVj,3vck0q0pp8rxiiaq9ji6jar3xntn0d,3xlbsaq9z8p742mno8jbiw4rh4x7zb,kSV1PDVj,2020-0188,2021-10-17,22:05:50,23:40:21,NA,incomplete,false,true,NA,3,10,NA,red,m_s_114.jpg,NA,NA,unpleasant,pleasant,NA,NA,NA,NA,NA,right,1400,true,NA,NA,NA,NA,NA
kSV1PDVj,3vck0q0pp8rxiiaq9ji6jar3xntn0d,3xlbsaq9z8p742mno8jbiw4rh4x7zb,kSV1PDVj,2020-0188,2021-10-17,22:05:50,23:40:21,NA,incomplete,false,true,NA,3,11,NA,red,m_l_099.jpg,NA,NA,pleasant,unpleasant,NA,NA,NA,NA,NA,left,1565,true,NA,NA,NA,NA,NA
kSV1PDVj,3vck0q0pp8rxiiaq9ji6jar3xntn0d,3xlbsaq9z8p742mno8jbiw4rh4x7zb,kSV1PDVj,2020-0188,2021-10-17,22:05:50,23:40:21,NA,incomplete,false,true,NA,3,12,NA,black,m_l_114.jpg,NA,NA,pleasant,unpleasant,NA,NA,NA,NA,NA,left,1405,true,NA,NA,NA,NA,NA
kSV1PDVj,3vck0q0pp8rxiiaq9ji6jar3xntn0d,3xlbsaq9z8p742mno8jbiw4rh4x7zb,kSV1PDVj,2020-0188,2021-10-17,22:05:50,23:40:21,NA,incomplete,false,true,NA,3,13,NA,black,m_l_089.jpg,NA,NA,unpleasant,pleasant,NA,NA,NA,NA,NA,right,2418,true,NA,NA,NA,NA,NA
kSV1PDVj,3vck0q0pp8rxiiaq9ji6jar3xntn0d,3xlbsaq9z8p742mno8jbiw4rh4x7zb,kSV1PDVj,2020-0188,2021-10-17,22:05:50,23:40:21,NA,incomplete,false,true,NA,3,14,NA,black,n_s_002.jpg,NA,NA,unpleasant,pleasant,NA,NA,NA,NA,NA,right,1264,true,NA,NA,NA,NA,NA
kSV1PDVj,3vck0q0pp8rxiiaq9ji6jar3xntn0d,3xlbsaq9z8p742mno8jbiw4rh4x7zb,kSV1PDVj,2020-0188,2021-10-17,22:05:50,23:40:21,NA,incomplete,false,true,NA,3,15,NA,black,m_l_007.jpg,NA,NA,unpleasant,pleasant,NA,NA,NA,NA,NA,right,1813,true,NA,NA,NA,NA,NA
kSV1PDVj,3vck0q0pp8rxiiaq9ji6jar3xntn0d,3xlbsaq9z8p742mno8jbiw4rh4x7zb,kSV1PDVj,2020-0188,2021-10-17,22:05:50,23:40:21,NA,incomplete,false,true,NA,3,16,NA,black,n_s_085.jpg,NA,NA,unpleasant,pleasant,NA,NA,NA,NA,NA,right,1244,true,NA,NA,NA,NA,NA
kSV1PDVj,3vck0q0pp8rxiiaq9ji6jar3xntn0d,3xlbsaq9z8p742mno8jbiw4rh4x7zb,kSV1PDVj,2020-0188,2021-10-17,22:05:50,23:40:21,NA,incomplete,false,true,NA,3,17,NA,black,n_l_022.jpg,NA,NA,pleasant,unpleasant,NA,NA,NA,NA,NA,left,1714,true,NA,NA,NA,NA,NA
kSV1PDVj,3vck0q0pp8rxiiaq9ji6jar3xntn0d,3xlbsaq9z8p742mno8jbiw4rh4x7zb,kSV1PDVj,2020-0188,2021-10-17,22:05:50,23:40:21,NA,incomplete,false,true,NA,3,18,NA,yellow,n_s_046.jpg,NA,NA,pleasant,unpleasant,NA,NA,NA,NA,NA,left,2521,true,NA,NA,NA,NA,NA
kSV1PDVj,3vck0q0pp8rxiiaq9ji6jar3xntn0d,3xlbsaq9z8p742mno8jbiw4rh4x7zb,kSV1PDVj,2020-0188,2021-10-17,22:05:50,23:40:21,NA,incomplete,false,true,NA,3,19,NA,yellow,m_l_040.jpg,NA,NA,pleasant,unpleasant,NA,NA,NA,NA,NA,left,1693,true,NA,NA,NA,NA,NA
kSV1PDVj,3vck0q0pp8rxiiaq9ji6jar3xntn0d,3xlbsaq9z8p742mno8jbiw4rh4x7zb,kSV1PDVj,2020-0188,2021-10-17,22:05:50,23:40:21,NA,incomplete,false,true,NA,3,20,NA,yellow,m_l_081.jpg,NA,NA,unpleasant,pleasant,NA,NA,NA,NA,NA,right,1628,true,NA,NA,NA,NA,NA
kSV1PDVj,3vck0q0pp8rxiiaq9ji6jar3xntn0d,3xlbsaq9z8p742mno8jbiw4rh4x7zb,kSV1PDVj,2020-0188,2021-10-17,22:05:50,23:40:21,NA,incomplete,false,true,NA,3,21,NA,yellow,m_l_031.jpg,NA,NA,pleasant,unpleasant,NA,NA,NA,NA,NA,left,1321,true,NA,NA,NA,NA,NA
kSV1PDVj,3vck0q0pp8rxiiaq9ji6jar3xntn0d,3xlbsaq9z8p742mno8jbiw4rh4x7zb,kSV1PDVj,2020-0188,2021-10-17,22:05:50,23:40:21,NA,incomplete,false,true,NA,3,22,NA,yellow,m_s_043.jpg,NA,NA,unpleasant,pleasant,NA,NA,NA,NA,NA,right,1806,true,NA,NA,NA,NA,NA
kSV1PDVj,3vck0q0pp8rxiiaq9ji6jar3xntn0d,3xlbsaq9z8p742mno8jbiw4rh4x7zb,kSV1PDVj,2020-0188,2021-10-17,22:05:50,23:40:21,NA,incomplete,false,true,NA,3,23,NA,yellow,m_l_082.jpg,NA,NA,pleasant,unpleasant,NA,NA,NA,NA,NA,right,1604,true,NA,NA,NA,NA,NA
kSV1PDVj,3vck0q0pp8rxiiaq9ji6jar3xntn0d,3xlbsaq9z8p742mno8jbiw4rh4x7zb,kSV1PDVj,2020-0188,2021-10-17,22:05:50,23:40:21,NA,incomplete,false,true,NA,3,24,NA,white,n_s_007.jpg,NA,NA,pleasant,unpleasant,NA,NA,NA,NA,NA,right,2386,true,NA,NA,NA,NA,NA
kSV1PDVj,3vck0q0pp8rxiiaq9ji6jar3xntn0d,3xlbsaq9z8p742mno8jbiw4rh4x7zb,kSV1PDVj,2020-0188,2021-10-17,22:05:50,23:40:21,NA,incomplete,false,true,NA,3,25,NA,white,m_l_025.jpg,NA,NA,pleasant,unpleasant,NA,NA,NA,NA,NA,left,1312,true,NA,NA,NA,NA,NA
kSV1PDVj,3vck0q0pp8rxiiaq9ji6jar3xntn0d,3xlbsaq9z8p742mno8jbiw4rh4x7zb,kSV1PDVj,2020-0188,2021-10-17,22:05:50,23:40:21,NA,incomplete,false,true,NA,3,26,NA,white,n_s_061.jpg,NA,NA,pleasant,unpleasant,NA,NA,NA,NA,NA,right,2021,true,NA,NA,NA,NA,NA
kSV1PDVj,3vck0q0pp8rxiiaq9ji6jar3xntn0d,3xlbsaq9z8p742mno8jbiw4rh4x7zb,kSV1PDVj,2020-0188,2021-10-17,22:05:50,23:40:21,NA,incomplete,false,true,NA,3,27,NA,white,m_s_044.jpg,NA,NA,unpleasant,pleasant,NA,NA,NA,NA,NA,right,1179,true,NA,NA,NA,NA,NA
kSV1PDVj,3vck0q0pp8rxiiaq9ji6jar3xntn0d,3xlbsaq9z8p742mno8jbiw4rh4x7zb,kSV1PDVj,2020-0188,2021-10-17,22:05:50,23:40:21,NA,incomplete,false,true,NA,3,28,NA,white,m_l_070.jpg,NA,NA,unpleasant,pleasant,NA,NA,NA,NA,NA,right,1457,true,NA,NA,NA,NA,NA
kSV1PDVj,3vck0q0pp8rxiiaq9ji6jar3xntn0d,3xlbsaq9z8p742mno8jbiw4rh4x7zb,kSV1PDVj,2020-0188,2021-10-17,22:05:50,23:40:21,NA,incomplete,false,true,NA,3,29,NA,white,m_s_066.jpg,NA,NA,unpleasant,pleasant,NA,NA,NA,NA,NA,right,1518,true,NA,NA,NA,NA,NA
kSV1PDVj,3vck0q0pp8rxiiaq9ji6jar3xntn0d,3xlbsaq9z8p742mno8jbiw4rh4x7zb,kSV1PDVj,2020-0188,2021-10-17,22:05:50,23:40:21,NA,incomplete,false,true,NA,3,30,NA,purple,m_l_079.jpg,NA,NA,unpleasant,pleasant,NA,NA,NA,NA,NA,right,2127,true,NA,NA,NA,NA,NA
kSV1PDVj,3vck0q0pp8rxiiaq9ji6jar3xntn0d,3xlbsaq9z8p742mno8jbiw4rh4x7zb,kSV1PDVj,2020-0188,2021-10-17,22:05:50,23:40:21,NA,incomplete,false,true,NA,3,31,NA,purple,m_s_086.jpg,NA,NA,pleasant,unpleasant,NA,NA,NA,NA,NA,left,2257,true,NA,NA,NA,NA,NA
kSV1PDVj,3vck0q0pp8rxiiaq9ji6jar3xntn0d,3xlbsaq9z8p742mno8jbiw4rh4x7zb,kSV1PDVj,2020-0188,2021-10-17,22:05:50,23:40:21,NA,incomplete,false,true,NA,3,32,NA,purple,n_l_030.jpg,NA,NA,unpleasant,pleasant,NA,NA,NA,NA,NA,left,2384,true,NA,NA,NA,NA,NA
kSV1PDVj,3vck0q0pp8rxiiaq9ji6jar3xntn0d,3xlbsaq9z8p742mno8jbiw4rh4x7zb,kSV1PDVj,2020-0188,2021-10-17,22:05:50,23:40:21,NA,incomplete,false,true,NA,3,33,NA,purple,m_s_115.jpg,NA,NA,pleasant,unpleasant,NA,NA,NA,NA,NA,left,2541,true,NA,NA,NA,NA,NA
kSV1PDVj,3vck0q0pp8rxiiaq9ji6jar3xntn0d,3xlbsaq9z8p742mno8jbiw4rh4x7zb,kSV1PDVj,2020-0188,2021-10-17,22:05:50,23:40:21,NA,incomplete,false,true,NA,3,34,NA,purple,m_l_104.jpg,NA,NA,pleasant,unpleasant,NA,NA,NA,NA,NA,left,1435,true,NA,NA,NA,NA,NA
kSV1PDVj,3vck0q0pp8rxiiaq9ji6jar3xntn0d,3xlbsaq9z8p742mno8jbiw4rh4x7zb,kSV1PDVj,2020-0188,2021-10-17,22:05:50,23:40:21,NA,incomplete,false,true,NA,3,35,NA,purple,n_l_104.jpg,NA,NA,pleasant,unpleasant,NA,NA,NA,NA,NA,right,2048,true,NA,NA,NA,NA,NA
kSV1PDVj,3vck0q0pp8rxiiaq9ji6jar3xntn0d,3xlbsaq9z8p742mno8jbiw4rh4x7zb,kSV1PDVj,2020-0188,2021-10-17,22:05:50,23:40:21,NA,incomplete,false,NA,true,3,0,NA,NA,NA,left,absent,NA,NA,m_s_071.jpg,green,n_l_086.jpg,red,between,NA,NaN,NA,left,4423,1,0,1872
kSV1PDVj,3vck0q0pp8rxiiaq9ji6jar3xntn0d,3xlbsaq9z8p742mno8jbiw4rh4x7zb,kSV1PDVj,2020-0188,2021-10-17,22:05:50,23:40:21,NA,incomplete,false,NA,true,3,1,NA,NA,NA,right,absent,NA,NA,m_l_099.jpg,red,n_l_077.jpg,red,within,NA,NaN,NA,left,6537,0,2,4000
kSV1PDVj,3vck0q0pp8rxiiaq9ji6jar3xntn0d,3xlbsaq9z8p742mno8jbiw4rh4x7zb,kSV1PDVj,2020-0188,2021-10-17,22:05:50,23:40:21,NA,incomplete,false,NA,true,3,2,NA,NA,NA,left,absent,NA,NA,m_l_040.jpg,yellow,m_l_082.jpg,yellow,within,NA,NaN,NA,right,7583,0,1,2999
kSV1PDVj,3vck0q0pp8rxiiaq9ji6jar3xntn0d,3xlbsaq9z8p742mno8jbiw4rh4x7zb,kSV1PDVj,2020-0188,2021-10-17,22:05:50,23:40:21,NA,incomplete,false,NA,true,3,3,NA,NA,NA,left,absent,NA,NA,m_s_086.jpg,purple,n_l_104.jpg,purple,within,NA,NaN,NA,left,3592,1,1,3783
kSV1PDVj,3vck0q0pp8rxiiaq9ji6jar3xntn0d,3xlbsaq9z8p742mno8jbiw4rh4x7zb,kSV1PDVj,2020-0188,2021-10-17,22:05:50,23:40:21,NA,incomplete,false,NA,true,3,4,NA,NA,NA,left,absent,NA,NA,m_l_089.jpg,black,n_l_022.jpg,black,within,NA,NaN,NA,left,5528,1,0,1536
kSV1PDVj,3vck0q0pp8rxiiaq9ji6jar3xntn0d,3xlbsaq9z8p742mno8jbiw4rh4x7zb,kSV1PDVj,2020-0188,2021-10-17,22:05:50,23:40:21,NA,incomplete,false,NA,true,3,5,NA,NA,NA,left,absent,NA,NA,m_s_114.jpg,red,n_s_002.jpg,black,between,NA,NaN,NA,right,6640,0,0,1302
kSV1PDVj,3vck0q0pp8rxiiaq9ji6jar3xntn0d,3xlbsaq9z8p742mno8jbiw4rh4x7zb,kSV1PDVj,2020-0188,2021-10-17,22:05:50,23:40:21,NA,incomplete,false,NA,true,3,6,NA,NA,NA,right,absent,NA,NA,m_l_038.jpg,green,n_l_032.jpg,green,within,NA,NaN,NA,right,3208,1,1,3000
kSV1PDVj,3vck0q0pp8rxiiaq9ji6jar3xntn0d,3xlbsaq9z8p742mno8jbiw4rh4x7zb,kSV1PDVj,2020-0188,2021-10-17,22:05:50,23:40:21,NA,incomplete,false,NA,true,3,7,NA,NA,NA,left,absent,NA,NA,m_l_070.jpg,white,n_l_030.jpg,purple,between,NA,NaN,NA,left,3223,1,3,1544
kSV1PDVj,3vck0q0pp8rxiiaq9ji6jar3xntn0d,3xlbsaq9z8p742mno8jbiw4rh4x7zb,kSV1PDVj,2020-0188,2021-10-17,22:05:50,23:40:21,NA,incomplete,false,NA,true,3,8,NA,NA,NA,left,absent,NA,NA,n_s_085.jpg,black,m_l_081.jpg,yellow,between,NA,NaN,NA,left,4407,1,2,1199
kSV1PDVj,3vck0q0pp8rxiiaq9ji6jar3xntn0d,3xlbsaq9z8p742mno8jbiw4rh4x7zb,kSV1PDVj,2020-0188,2021-10-17,22:05:50,23:40:21,NA,incomplete,false,NA,true,3,9,NA,NA,NA,right,absent,NA,NA,m_s_066.jpg,white,m_l_025.jpg,white,within,NA,NaN,NA,right,3287,1,3,1240
kSV1PDVj,3vck0q0pp8rxiiaq9ji6jar3xntn0d,3xlbsaq9z8p742mno8jbiw4rh4x7zb,kSV1PDVj,2020-0188,2021-10-17,22:05:50,23:40:21,NA,incomplete,false,NA,true,3,10,NA,NA,NA,right,absent,NA,NA,n_s_061.jpg,white,m_s_043.jpg,yellow,between,NA,NaN,NA,right,2584,1,2,1391
kSV1PDVj,3vck0q0pp8rxiiaq9ji6jar3xntn0d,3xlbsaq9z8p742mno8jbiw4rh4x7zb,kSV1PDVj,2020-0188,2021-10-17,22:05:50,23:40:21,NA,incomplete,false,true,NA,4,0,NA,orange,n_l_008.jpg,NA,NA,pleasant,unpleasant,NA,NA,NA,NA,NA,left,2477,true,NA,NA,NA,NA,NA
kSV1PDVj,3vck0q0pp8rxiiaq9ji6jar3xntn0d,3xlbsaq9z8p742mno8jbiw4rh4x7zb,kSV1PDVj,2020-0188,2021-10-17,22:05:50,23:40:21,NA,incomplete,false,true,NA,4,1,NA,orange,n_s_028.jpg,NA,NA,pleasant,unpleasant,NA,NA,NA,NA,NA,left,1492,true,NA,NA,NA,NA,NA
kSV1PDVj,3vck0q0pp8rxiiaq9ji6jar3xntn0d,3xlbsaq9z8p742mno8jbiw4rh4x7zb,kSV1PDVj,2020-0188,2021-10-17,22:05:50,23:40:21,NA,incomplete,false,true,NA,4,2,NA,orange,n_s_021.jpg,NA,NA,pleasant,unpleasant,NA,NA,NA,NA,NA,left,1841,true,NA,NA,NA,NA,NA
kSV1PDVj,3vck0q0pp8rxiiaq9ji6jar3xntn0d,3xlbsaq9z8p742mno8jbiw4rh4x7zb,kSV1PDVj,2020-0188,2021-10-17,22:05:50,23:40:21,NA,incomplete,false,true,NA,4,3,NA,orange,n_l_080.jpg,NA,NA,pleasant,unpleasant,NA,NA,NA,NA,NA,left,1446,true,NA,NA,NA,NA,NA
kSV1PDVj,3vck0q0pp8rxiiaq9ji6jar3xntn0d,3xlbsaq9z8p742mno8jbiw4rh4x7zb,kSV1PDVj,2020-0188,2021-10-17,22:05:50,23:40:21,NA,incomplete,false,true,NA,4,4,NA,orange,m_s_092.jpg,NA,NA,pleasant,unpleasant,NA,NA,NA,NA,NA,left,2061,true,NA,NA,NA,NA,NA
kSV1PDVj,3vck0q0pp8rxiiaq9ji6jar3xntn0d,3xlbsaq9z8p742mno8jbiw4rh4x7zb,kSV1PDVj,2020-0188,2021-10-17,22:05:50,23:40:21,NA,incomplete,false,true,NA,4,5,NA,orange,m_s_054.jpg,NA,NA,pleasant,unpleasant,NA,NA,NA,NA,NA,right,1179,true,NA,NA,NA,NA,NA
kSV1PDVj,3vck0q0pp8rxiiaq9ji6jar3xntn0d,3xlbsaq9z8p742mno8jbiw4rh4x7zb,kSV1PDVj,2020-0188,2021-10-17,22:05:50,23:40:21,NA,incomplete,false,true,NA,4,6,NA,gray,n_s_037.jpg,NA,NA,pleasant,unpleasant,NA,NA,NA,NA,NA,left,1753,true,NA,NA,NA,NA,NA
kSV1PDVj,3vck0q0pp8rxiiaq9ji6jar3xntn0d,3xlbsaq9z8p742mno8jbiw4rh4x7zb,kSV1PDVj,2020-0188,2021-10-17,22:05:50,23:40:21,NA,incomplete,false,true,NA,4,7,NA,gray,m_l_078.jpg,NA,NA,unpleasant,pleasant,NA,NA,NA,NA,NA,right,1542,true,NA,NA,NA,NA,NA
kSV1PDVj,3vck0q0pp8rxiiaq9ji6jar3xntn0d,3xlbsaq9z8p742mno8jbiw4rh4x7zb,kSV1PDVj,2020-0188,2021-10-17,22:05:50,23:40:21,NA,incomplete,false,true,NA,4,8,NA,gray,n_s_045.jpg,NA,NA,unpleasant,pleasant,NA,NA,NA,NA,NA,right,1403,true,NA,NA,NA,NA,NA
kSV1PDVj,3vck0q0pp8rxiiaq9ji6jar3xntn0d,3xlbsaq9z8p742mno8jbiw4rh4x7zb,kSV1PDVj,2020-0188,2021-10-17,22:05:50,23:40:21,NA,incomplete,false,true,NA,4,9,NA,gray,n_s_076.jpg,NA,NA,unpleasant,pleasant,NA,NA,NA,NA,NA,right,2586,true,NA,NA,NA,NA,NA
kSV1PDVj,3vck0q0pp8rxiiaq9ji6jar3xntn0d,3xlbsaq9z8p742mno8jbiw4rh4x7zb,kSV1PDVj,2020-0188,2021-10-17,22:05:50,23:40:21,NA,incomplete,false,true,NA,4,10,NA,gray,m_l_115.jpg,NA,NA,pleasant,unpleasant,NA,NA,NA,NA,NA,left,1191,true,NA,NA,NA,NA,NA
kSV1PDVj,3vck0q0pp8rxiiaq9ji6jar3xntn0d,3xlbsaq9z8p742mno8jbiw4rh4x7zb,kSV1PDVj,2020-0188,2021-10-17,22:05:50,23:40:21,NA,incomplete,false,true,NA,4,11,NA,gray,m_l_059.jpg,NA,NA,pleasant,unpleasant,NA,NA,NA,NA,NA,right,2052,true,NA,NA,NA,NA,NA
kSV1PDVj,3vck0q0pp8rxiiaq9ji6jar3xntn0d,3xlbsaq9z8p742mno8jbiw4rh4x7zb,kSV1PDVj,2020-0188,2021-10-17,22:05:50,23:40:21,NA,incomplete,false,true,NA,4,12,NA,brown,m_s_050.jpg,NA,NA,pleasant,unpleasant,NA,NA,NA,NA,NA,left,1201,true,NA,NA,NA,NA,NA
kSV1PDVj,3vck0q0pp8rxiiaq9ji6jar3xntn0d,3xlbsaq9z8p742mno8jbiw4rh4x7zb,kSV1PDVj,2020-0188,2021-10-17,22:05:50,23:40:21,NA,incomplete,false,true,NA,4,13,NA,brown,m_s_094.jpg,NA,NA,unpleasant,pleasant,NA,NA,NA,NA,NA,right,1141,true,NA,NA,NA,NA,NA
kSV1PDVj,3vck0q0pp8rxiiaq9ji6jar3xntn0d,3xlbsaq9z8p742mno8jbiw4rh4x7zb,kSV1PDVj,2020-0188,2021-10-17,22:05:50,23:40:21,NA,incomplete,false,true,NA,4,14,NA,brown,m_s_055.jpg,NA,NA,pleasant,unpleasant,NA,NA,NA,NA,NA,right,1724,true,NA,NA,NA,NA,NA
kSV1PDVj,3vck0q0pp8rxiiaq9ji6jar3xntn0d,3xlbsaq9z8p742mno8jbiw4rh4x7zb,kSV1PDVj,2020-0188,2021-10-17,22:05:50,23:40:21,NA,incomplete,false,true,NA,4,15,NA,brown,n_l_055.jpg,NA,NA,pleasant,unpleasant,NA,NA,NA,NA,NA,right,2002,true,NA,NA,NA,NA,NA
kSV1PDVj,3vck0q0pp8rxiiaq9ji6jar3xntn0d,3xlbsaq9z8p742mno8jbiw4rh4x7zb,kSV1PDVj,2020-0188,2021-10-17,22:05:50,23:40:21,NA,incomplete,false,true,NA,4,16,NA,brown,n_l_076.jpg,NA,NA,unpleasant,pleasant,NA,NA,NA,NA,NA,left,1502,true,NA,NA,NA,NA,NA
kSV1PDVj,3vck0q0pp8rxiiaq9ji6jar3xntn0d,3xlbsaq9z8p742mno8jbiw4rh4x7zb,kSV1PDVj,2020-0188,2021-10-17,22:05:50,23:40:21,NA,incomplete,false,true,NA,4,17,NA,brown,m_l_042.jpg,NA,NA,unpleasant,pleasant,NA,NA,NA,NA,NA,right,1780,true,NA,NA,NA,NA,NA
kSV1PDVj,3vck0q0pp8rxiiaq9ji6jar3xntn0d,3xlbsaq9z8p742mno8jbiw4rh4x7zb,kSV1PDVj,2020-0188,2021-10-17,22:05:50,23:40:21,NA,incomplete,false,true,NA,4,18,NA,black,m_l_002.jpg,NA,NA,pleasant,unpleasant,NA,NA,NA,NA,NA,left,1874,true,NA,NA,NA,NA,NA
kSV1PDVj,3vck0q0pp8rxiiaq9ji6jar3xntn0d,3xlbsaq9z8p742mno8jbiw4rh4x7zb,kSV1PDVj,2020-0188,2021-10-17,22:05:50,23:40:21,NA,incomplete,false,true,NA,4,19,NA,black,n_l_066.jpg,NA,NA,pleasant,unpleasant,NA,NA,NA,NA,NA,right,1320,true,NA,NA,NA,NA,NA
kSV1PDVj,3vck0q0pp8rxiiaq9ji6jar3xntn0d,3xlbsaq9z8p742mno8jbiw4rh4x7zb,kSV1PDVj,2020-0188,2021-10-17,22:05:50,23:40:21,NA,incomplete,false,true,NA,4,20,NA,black,n_s_090.jpg,NA,NA,pleasant,unpleasant,NA,NA,NA,NA,NA,left,1286,true,NA,NA,NA,NA,NA
kSV1PDVj,3vck0q0pp8rxiiaq9ji6jar3xntn0d,3xlbsaq9z8p742mno8jbiw4rh4x7zb,kSV1PDVj,2020-0188,2021-10-17,22:05:50,23:40:21,NA,incomplete,false,true,NA,4,21,NA,black,m_l_107.jpg,NA,NA,unpleasant,pleasant,NA,NA,NA,NA,NA,left,1426,true,NA,NA,NA,NA,NA
kSV1PDVj,3vck0q0pp8rxiiaq9ji6jar3xntn0d,3xlbsaq9z8p742mno8jbiw4rh4x7zb,kSV1PDVj,2020-0188,2021-10-17,22:05:50,23:40:21,NA,incomplete,false,true,NA,4,22,NA,black,n_s_060.jpg,NA,NA,unpleasant,pleasant,NA,NA,NA,NA,NA,right,1330,true,NA,NA,NA,NA,NA
kSV1PDVj,3vck0q0pp8rxiiaq9ji6jar3xntn0d,3xlbsaq9z8p742mno8jbiw4rh4x7zb,kSV1PDVj,2020-0188,2021-10-17,22:05:50,23:40:21,NA,incomplete,false,true,NA,4,23,NA,black,n_l_042.jpg,NA,NA,pleasant,unpleasant,NA,NA,NA,NA,NA,left,1495,true,NA,NA,NA,NA,NA
kSV1PDVj,3vck0q0pp8rxiiaq9ji6jar3xntn0d,3xlbsaq9z8p742mno8jbiw4rh4x7zb,kSV1PDVj,2020-0188,2021-10-17,22:05:50,23:40:21,NA,incomplete,false,true,NA,4,24,NA,yellow,n_l_003.jpg,NA,NA,pleasant,unpleasant,NA,NA,NA,NA,NA,left,1309,true,NA,NA,NA,NA,NA
kSV1PDVj,3vck0q0pp8rxiiaq9ji6jar3xntn0d,3xlbsaq9z8p742mno8jbiw4rh4x7zb,kSV1PDVj,2020-0188,2021-10-17,22:05:50,23:40:21,NA,incomplete,false,true,NA,4,25,NA,yellow,m_l_055.jpg,NA,NA,pleasant,unpleasant,NA,NA,NA,NA,NA,right,1604,true,NA,NA,NA,NA,NA
kSV1PDVj,3vck0q0pp8rxiiaq9ji6jar3xntn0d,3xlbsaq9z8p742mno8jbiw4rh4x7zb,kSV1PDVj,2020-0188,2021-10-17,22:05:50,23:40:21,NA,incomplete,false,true,NA,4,26,NA,yellow,n_s_092.jpg,NA,NA,unpleasant,pleasant,NA,NA,NA,NA,NA,left,1456,true,NA,NA,NA,NA,NA
kSV1PDVj,3vck0q0pp8rxiiaq9ji6jar3xntn0d,3xlbsaq9z8p742mno8jbiw4rh4x7zb,kSV1PDVj,2020-0188,2021-10-17,22:05:50,23:40:21,NA,incomplete,false,true,NA,4,27,NA,yellow,m_l_003.jpg,NA,NA,unpleasant,pleasant,NA,NA,NA,NA,NA,right,2078,true,NA,NA,NA,NA,NA
kSV1PDVj,3vck0q0pp8rxiiaq9ji6jar3xntn0d,3xlbsaq9z8p742mno8jbiw4rh4x7zb,kSV1PDVj,2020-0188,2021-10-17,22:05:50,23:40:21,NA,incomplete,false,true,NA,4,28,NA,yellow,m_s_077.jpg,NA,NA,unpleasant,pleasant,NA,NA,NA,NA,NA,right,1613,true,NA,NA,NA,NA,NA
kSV1PDVj,3vck0q0pp8rxiiaq9ji6jar3xntn0d,3xlbsaq9z8p742mno8jbiw4rh4x7zb,kSV1PDVj,2020-0188,2021-10-17,22:05:50,23:40:21,NA,incomplete,false,true,NA,4,29,NA,yellow,m_s_038.jpg,NA,NA,unpleasant,pleasant,NA,NA,NA,NA,NA,right,1234,true,NA,NA,NA,NA,NA
kSV1PDVj,3vck0q0pp8rxiiaq9ji6jar3xntn0d,3xlbsaq9z8p742mno8jbiw4rh4x7zb,kSV1PDVj,2020-0188,2021-10-17,22:05:50,23:40:21,NA,incomplete,false,true,NA,4,30,NA,white,m_l_095.jpg,NA,NA,unpleasant,pleasant,NA,NA,NA,NA,NA,right,1368,true,NA,NA,NA,NA,NA
kSV1PDVj,3vck0q0pp8rxiiaq9ji6jar3xntn0d,3xlbsaq9z8p742mno8jbiw4rh4x7zb,kSV1PDVj,2020-0188,2021-10-17,22:05:50,23:40:21,NA,incomplete,false,true,NA,4,31,NA,white,m_l_022.jpg,NA,NA,pleasant,unpleasant,NA,NA,NA,NA,NA,left,1357,true,NA,NA,NA,NA,NA
kSV1PDVj,3vck0q0pp8rxiiaq9ji6jar3xntn0d,3xlbsaq9z8p742mno8jbiw4rh4x7zb,kSV1PDVj,2020-0188,2021-10-17,22:05:50,23:40:21,NA,incomplete,false,true,NA,4,32,NA,white,n_l_025.jpg,NA,NA,unpleasant,pleasant,NA,NA,NA,NA,NA,left,1523,true,NA,NA,NA,NA,NA
kSV1PDVj,3vck0q0pp8rxiiaq9ji6jar3xntn0d,3xlbsaq9z8p742mno8jbiw4rh4x7zb,kSV1PDVj,2020-0188,2021-10-17,22:05:50,23:40:21,NA,incomplete,false,true,NA,4,33,NA,white,n_l_052.jpg,NA,NA,pleasant,unpleasant,NA,NA,NA,NA,NA,right,1464,true,NA,NA,NA,NA,NA
kSV1PDVj,3vck0q0pp8rxiiaq9ji6jar3xntn0d,3xlbsaq9z8p742mno8jbiw4rh4x7zb,kSV1PDVj,2020-0188,2021-10-17,22:05:50,23:40:21,NA,incomplete,false,true,NA,4,34,NA,white,m_s_033.jpg,NA,NA,unpleasant,pleasant,NA,NA,NA,NA,NA,right,1230,true,NA,NA,NA,NA,NA
kSV1PDVj,3vck0q0pp8rxiiaq9ji6jar3xntn0d,3xlbsaq9z8p742mno8jbiw4rh4x7zb,kSV1PDVj,2020-0188,2021-10-17,22:05:50,23:40:21,NA,incomplete,false,true,NA,4,35,NA,white,n_s_063.jpg,NA,NA,unpleasant,pleasant,NA,NA,NA,NA,NA,right,1188,true,NA,NA,NA,NA,NA
kSV1PDVj,3vck0q0pp8rxiiaq9ji6jar3xntn0d,3xlbsaq9z8p742mno8jbiw4rh4x7zb,kSV1PDVj,2020-0188,2021-10-17,22:05:50,23:40:21,NA,incomplete,false,NA,true,4,0,NA,NA,NA,right,present,NA,NA,n_l_025.jpg,white,m_s_077.jpg,yellow,between,NA,NaN,NA,left,8759,0,2,1391
kSV1PDVj,3vck0q0pp8rxiiaq9ji6jar3xntn0d,3xlbsaq9z8p742mno8jbiw4rh4x7zb,kSV1PDVj,2020-0188,2021-10-17,22:05:50,23:40:21,NA,incomplete,false,NA,true,4,1,NA,NA,NA,right,present,NA,NA,n_s_092.jpg,yellow,n_s_060.jpg,black,between,NA,NaN,NA,right,5367,1,2,3863
kSV1PDVj,3vck0q0pp8rxiiaq9ji6jar3xntn0d,3xlbsaq9z8p742mno8jbiw4rh4x7zb,kSV1PDVj,2020-0188,2021-10-17,22:05:50,23:40:21,NA,incomplete,false,NA,true,4,2,NA,NA,NA,right,present,NA,NA,n_s_063.jpg,white,m_l_022.jpg,white,within,NA,NaN,NA,left,9471,0,0,1009
kSV1PDVj,3vck0q0pp8rxiiaq9ji6jar3xntn0d,3xlbsaq9z8p742mno8jbiw4rh4x7zb,kSV1PDVj,2020-0188,2021-10-17,22:05:50,23:40:21,NA,incomplete,false,NA,true,4,3,NA,NA,NA,right,present,NA,NA,m_s_055.jpg,brown,m_l_115.jpg,gray,between,NA,NaN,NA,right,6680,1,1,2680
kSV1PDVj,3vck0q0pp8rxiiaq9ji6jar3xntn0d,3xlbsaq9z8p742mno8jbiw4rh4x7zb,kSV1PDVj,2020-0188,2021-10-17,22:05:50,23:40:21,NA,incomplete,false,NA,true,4,4,NA,NA,NA,right,present,NA,NA,n_s_090.jpg,black,n_l_076.jpg,brown,between,NA,NaN,NA,right,7783,1,2,2416
kSV1PDVj,3vck0q0pp8rxiiaq9ji6jar3xntn0d,3xlbsaq9z8p742mno8jbiw4rh4x7zb,kSV1PDVj,2020-0188,2021-10-17,22:05:50,23:40:21,NA,incomplete,false,NA,true,4,5,NA,NA,NA,right,present,NA,NA,m_s_054.jpg,orange,n_s_028.jpg,orange,within,NA,NaN,NA,right,4336,1,0,5607
kSV1PDVj,3vck0q0pp8rxiiaq9ji6jar3xntn0d,3xlbsaq9z8p742mno8jbiw4rh4x7zb,kSV1PDVj,2020-0188,2021-10-17,22:05:50,23:40:21,NA,incomplete,false,NA,true,4,6,NA,NA,NA,left,present,NA,NA,m_s_092.jpg,orange,n_s_045.jpg,gray,between,NA,NaN,NA,left,4671,1,2,2327
kSV1PDVj,3vck0q0pp8rxiiaq9ji6jar3xntn0d,3xlbsaq9z8p742mno8jbiw4rh4x7zb,kSV1PDVj,2020-0188,2021-10-17,22:05:50,23:40:21,NA,incomplete,false,NA,true,4,7,NA,NA,NA,right,present,NA,NA,n_l_042.jpg,black,n_l_066.jpg,black,within,NA,NaN,NA,right,6655,1,0,1199
kSV1PDVj,3vck0q0pp8rxiiaq9ji6jar3xntn0d,3xlbsaq9z8p742mno8jbiw4rh4x7zb,kSV1PDVj,2020-0188,2021-10-17,22:05:50,23:40:21,NA,incomplete,false,NA,true,4,8,NA,NA,NA,left,present,NA,NA,m_l_055.jpg,yellow,m_s_038.jpg,yellow,within,NA,NaN,NA,left,3735,1,0,1015
kSV1PDVj,3vck0q0pp8rxiiaq9ji6jar3xntn0d,3xlbsaq9z8p742mno8jbiw4rh4x7zb,kSV1PDVj,2020-0188,2021-10-17,22:05:50,23:40:21,NA,incomplete,false,NA,true,4,9,NA,NA,NA,right,present,NA,NA,m_l_059.jpg,gray,m_l_078.jpg,gray,within,NA,NaN,NA,left,8295,0,0,4231
kSV1PDVj,3vck0q0pp8rxiiaq9ji6jar3xntn0d,3xlbsaq9z8p742mno8jbiw4rh4x7zb,kSV1PDVj,2020-0188,2021-10-17,22:05:50,23:40:21,NA,incomplete,false,NA,true,4,10,NA,NA,NA,right,present,NA,NA,m_l_042.jpg,brown,m_s_094.jpg,brown,within,NA,NaN,NA,left,4776,0,0,3439
kSV1PDVj,3vck0q0pp8rxiiaq9ji6jar3xntn0d,3xlbsaq9z8p742mno8jbiw4rh4x7zb,kSV1PDVj,2020-0188,2021-10-17,22:05:50,23:40:21,NA,incomplete,false,true,NA,5,0,NA,white,m_s_013.jpg,NA,NA,unpleasant,pleasant,NA,NA,NA,NA,NA,right,1582,true,NA,NA,NA,NA,NA
kSV1PDVj,3vck0q0pp8rxiiaq9ji6jar3xntn0d,3xlbsaq9z8p742mno8jbiw4rh4x7zb,kSV1PDVj,2020-0188,2021-10-17,22:05:50,23:40:21,NA,incomplete,false,true,NA,5,1,NA,white,n_l_045.jpg,NA,NA,pleasant,unpleasant,NA,NA,NA,NA,NA,left,1662,true,NA,NA,NA,NA,NA
kSV1PDVj,3vck0q0pp8rxiiaq9ji6jar3xntn0d,3xlbsaq9z8p742mno8jbiw4rh4x7zb,kSV1PDVj,2020-0188,2021-10-17,22:05:50,23:40:21,NA,incomplete,false,true,NA,5,2,NA,white,m_s_025.jpg,NA,NA,pleasant,unpleasant,NA,NA,NA,NA,NA,left,3067,true,NA,NA,NA,NA,NA
kSV1PDVj,3vck0q0pp8rxiiaq9ji6jar3xntn0d,3xlbsaq9z8p742mno8jbiw4rh4x7zb,kSV1PDVj,2020-0188,2021-10-17,22:05:50,23:40:21,NA,incomplete,false,true,NA,5,3,NA,white,n_s_035.jpg,NA,NA,pleasant,unpleasant,NA,NA,NA,NA,NA,left,1928,true,NA,NA,NA,NA,NA
kSV1PDVj,3vck0q0pp8rxiiaq9ji6jar3xntn0d,3xlbsaq9z8p742mno8jbiw4rh4x7zb,kSV1PDVj,2020-0188,2021-10-17,22:05:50,23:40:21,NA,incomplete,false,true,NA,5,4,NA,white,m_l_075.jpg,NA,NA,unpleasant,pleasant,NA,NA,NA,NA,NA,right,2022,true,NA,NA,NA,NA,NA
kSV1PDVj,3vck0q0pp8rxiiaq9ji6jar3xntn0d,3xlbsaq9z8p742mno8jbiw4rh4x7zb,kSV1PDVj,2020-0188,2021-10-17,22:05:50,23:40:21,NA,incomplete,false,true,NA,5,5,NA,white,m_l_051.jpg,NA,NA,unpleasant,pleasant,NA,NA,NA,NA,NA,right,1716,true,NA,NA,NA,NA,NA
kSV1PDVj,3vck0q0pp8rxiiaq9ji6jar3xntn0d,3xlbsaq9z8p742mno8jbiw4rh4x7zb,kSV1PDVj,2020-0188,2021-10-17,22:05:50,23:40:21,NA,incomplete,false,true,NA,5,6,NA,orange,m_l_083.jpg,NA,NA,pleasant,unpleasant,NA,NA,NA,NA,NA,left,1674,true,NA,NA,NA,NA,NA
kSV1PDVj,3vck0q0pp8rxiiaq9ji6jar3xntn0d,3xlbsaq9z8p742mno8jbiw4rh4x7zb,kSV1PDVj,2020-0188,2021-10-17,22:05:50,23:40:21,NA,incomplete,false,true,NA,5,7,NA,orange,n_s_016.jpg,NA,NA,pleasant,unpleasant,NA,NA,NA,NA,NA,left,1208,true,NA,NA,NA,NA,NA
kSV1PDVj,3vck0q0pp8rxiiaq9ji6jar3xntn0d,3xlbsaq9z8p742mno8jbiw4rh4x7zb,kSV1PDVj,2020-0188,2021-10-17,22:05:50,23:40:21,NA,incomplete,false,true,NA,5,8,NA,orange,n_s_031.jpg,NA,NA,pleasant,unpleasant,NA,NA,NA,NA,NA,right,1414,true,NA,NA,NA,NA,NA
kSV1PDVj,3vck0q0pp8rxiiaq9ji6jar3xntn0d,3xlbsaq9z8p742mno8jbiw4rh4x7zb,kSV1PDVj,2020-0188,2021-10-17,22:05:50,23:40:21,NA,incomplete,false,true,NA,5,9,NA,orange,n_s_051.jpg,NA,NA,unpleasant,pleasant,NA,NA,NA,NA,NA,right,1611,true,NA,NA,NA,NA,NA
kSV1PDVj,3vck0q0pp8rxiiaq9ji6jar3xntn0d,3xlbsaq9z8p742mno8jbiw4rh4x7zb,kSV1PDVj,2020-0188,2021-10-17,22:05:50,23:40:21,NA,incomplete,false,true,NA,5,10,NA,orange,n_s_074.jpg,NA,NA,pleasant,unpleasant,NA,NA,NA,NA,NA,left,1329,true,NA,NA,NA,NA,NA
kSV1PDVj,3vck0q0pp8rxiiaq9ji6jar3xntn0d,3xlbsaq9z8p742mno8jbiw4rh4x7zb,kSV1PDVj,2020-0188,2021-10-17,22:05:50,23:40:21,NA,incomplete,false,true,NA,5,11,NA,orange,n_s_099.jpg,NA,NA,unpleasant,pleasant,NA,NA,NA,NA,NA,right,1216,true,NA,NA,NA,NA,NA
kSV1PDVj,3vck0q0pp8rxiiaq9ji6jar3xntn0d,3xlbsaq9z8p742mno8jbiw4rh4x7zb,kSV1PDVj,2020-0188,2021-10-17,22:05:50,23:40:21,NA,incomplete,false,true,NA,5,12,NA,yellow,n_s_083.jpg,NA,NA,unpleasant,pleasant,NA,NA,NA,NA,NA,right,1677,true,NA,NA,NA,NA,NA
kSV1PDVj,3vck0q0pp8rxiiaq9ji6jar3xntn0d,3xlbsaq9z8p742mno8jbiw4rh4x7zb,kSV1PDVj,2020-0188,2021-10-17,22:05:50,23:40:21,NA,incomplete,false,true,NA,5,13,NA,yellow,m_l_094.jpg,NA,NA,unpleasant,pleasant,NA,NA,NA,NA,NA,left,1627,true,NA,NA,NA,NA,NA
kSV1PDVj,3vck0q0pp8rxiiaq9ji6jar3xntn0d,3xlbsaq9z8p742mno8jbiw4rh4x7zb,kSV1PDVj,2020-0188,2021-10-17,22:05:50,23:40:21,NA,incomplete,false,true,NA,5,14,NA,yellow,m_s_058.jpg,NA,NA,pleasant,unpleasant,NA,NA,NA,NA,NA,left,1858,true,NA,NA,NA,NA,NA
kSV1PDVj,3vck0q0pp8rxiiaq9ji6jar3xntn0d,3xlbsaq9z8p742mno8jbiw4rh4x7zb,kSV1PDVj,2020-0188,2021-10-17,22:05:50,23:40:21,NA,incomplete,false,true,NA,5,15,NA,yellow,n_s_029.jpg,NA,NA,pleasant,unpleasant,NA,NA,NA,NA,NA,right,1335,true,NA,NA,NA,NA,NA
kSV1PDVj,3vck0q0pp8rxiiaq9ji6jar3xntn0d,3xlbsaq9z8p742mno8jbiw4rh4x7zb,kSV1PDVj,2020-0188,2021-10-17,22:05:50,23:40:21,NA,incomplete,false,true,NA,5,16,NA,yellow,m_s_001.jpg,NA,NA,unpleasant,pleasant,NA,NA,NA,NA,NA,right,1268,true,NA,NA,NA,NA,NA
kSV1PDVj,3vck0q0pp8rxiiaq9ji6jar3xntn0d,3xlbsaq9z8p742mno8jbiw4rh4x7zb,kSV1PDVj,2020-0188,2021-10-17,22:05:50,23:40:21,NA,incomplete,false,true,NA,5,17,NA,yellow,n_l_038.jpg,NA,NA,pleasant,unpleasant,NA,NA,NA,NA,NA,right,1841,true,NA,NA,NA,NA,NA
kSV1PDVj,3vck0q0pp8rxiiaq9ji6jar3xntn0d,3xlbsaq9z8p742mno8jbiw4rh4x7zb,kSV1PDVj,2020-0188,2021-10-17,22:05:50,23:40:21,NA,incomplete,false,true,NA,5,18,NA,black,n_l_093.jpg,NA,NA,unpleasant,pleasant,NA,NA,NA,NA,NA,right,976,true,NA,NA,NA,NA,NA
kSV1PDVj,3vck0q0pp8rxiiaq9ji6jar3xntn0d,3xlbsaq9z8p742mno8jbiw4rh4x7zb,kSV1PDVj,2020-0188,2021-10-17,22:05:50,23:40:21,NA,incomplete,false,true,NA,5,19,NA,black,m_s_006.jpg,NA,NA,pleasant,unpleasant,NA,NA,NA,NA,NA,left,2005,true,NA,NA,NA,NA,NA
kSV1PDVj,3vck0q0pp8rxiiaq9ji6jar3xntn0d,3xlbsaq9z8p742mno8jbiw4rh4x7zb,kSV1PDVj,2020-0188,2021-10-17,22:05:50,23:40:21,NA,incomplete,false,true,NA,5,20,NA,black,n_l_040.jpg,NA,NA,unpleasant,pleasant,NA,NA,NA,NA,NA,right,1595,true,NA,NA,NA,NA,NA
kSV1PDVj,3vck0q0pp8rxiiaq9ji6jar3xntn0d,3xlbsaq9z8p742mno8jbiw4rh4x7zb,kSV1PDVj,2020-0188,2021-10-17,22:05:50,23:40:21,NA,incomplete,false,true,NA,5,21,NA,black,m_l_062.jpg,NA,NA,pleasant,unpleasant,NA,NA,NA,NA,NA,left,1242,true,NA,NA,NA,NA,NA
kSV1PDVj,3vck0q0pp8rxiiaq9ji6jar3xntn0d,3xlbsaq9z8p742mno8jbiw4rh4x7zb,kSV1PDVj,2020-0188,2021-10-17,22:05:50,23:40:21,NA,incomplete,false,true,NA,5,22,NA,black,m_l_063.jpg,NA,NA,unpleasant,pleasant,NA,NA,NA,NA,NA,right,1847,true,NA,NA,NA,NA,NA
kSV1PDVj,3vck0q0pp8rxiiaq9ji6jar3xntn0d,3xlbsaq9z8p742mno8jbiw4rh4x7zb,kSV1PDVj,2020-0188,2021-10-17,22:05:50,23:40:21,NA,incomplete,false,true,NA,5,23,NA,black,n_l_018.jpg,NA,NA,pleasant,unpleasant,NA,NA,NA,NA,NA,left,1589,true,NA,NA,NA,NA,NA
kSV1PDVj,3vck0q0pp8rxiiaq9ji6jar3xntn0d,3xlbsaq9z8p742mno8jbiw4rh4x7zb,kSV1PDVj,2020-0188,2021-10-17,22:05:50,23:40:21,NA,incomplete,false,true,NA,5,24,NA,green,n_l_016.jpg,NA,NA,pleasant,unpleasant,NA,NA,NA,NA,NA,right,2346,true,NA,NA,NA,NA,NA
kSV1PDVj,3vck0q0pp8rxiiaq9ji6jar3xntn0d,3xlbsaq9z8p742mno8jbiw4rh4x7zb,kSV1PDVj,2020-0188,2021-10-17,22:05:50,23:40:21,NA,incomplete,false,true,NA,5,25,NA,green,m_l_117.jpg,NA,NA,pleasant,unpleasant,NA,NA,NA,NA,NA,left,1753,true,NA,NA,NA,NA,NA
kSV1PDVj,3vck0q0pp8rxiiaq9ji6jar3xntn0d,3xlbsaq9z8p742mno8jbiw4rh4x7zb,kSV1PDVj,2020-0188,2021-10-17,22:05:50,23:40:21,NA,incomplete,false,true,NA,5,26,NA,green,n_s_053.jpg,NA,NA,unpleasant,pleasant,NA,NA,NA,NA,NA,right,1310,true,NA,NA,NA,NA,NA
kSV1PDVj,3vck0q0pp8rxiiaq9ji6jar3xntn0d,3xlbsaq9z8p742mno8jbiw4rh4x7zb,kSV1PDVj,2020-0188,2021-10-17,22:05:50,23:40:21,NA,incomplete,false,true,NA,5,27,NA,green,n_l_065.jpg,NA,NA,pleasant,unpleasant,NA,NA,NA,NA,NA,right,1357,true,NA,NA,NA,NA,NA
kSV1PDVj,3vck0q0pp8rxiiaq9ji6jar3xntn0d,3xlbsaq9z8p742mno8jbiw4rh4x7zb,kSV1PDVj,2020-0188,2021-10-17,22:05:50,23:40:21,NA,incomplete,false,true,NA,5,28,NA,green,n_s_114.jpg,NA,NA,pleasant,unpleasant,NA,NA,NA,NA,NA,left,1266,true,NA,NA,NA,NA,NA
kSV1PDVj,3vck0q0pp8rxiiaq9ji6jar3xntn0d,3xlbsaq9z8p742mno8jbiw4rh4x7zb,kSV1PDVj,2020-0188,2021-10-17,22:05:50,23:40:21,NA,incomplete,false,true,NA,5,29,NA,green,n_l_048.jpg,NA,NA,unpleasant,pleasant,NA,NA,NA,NA,NA,left,1823,true,NA,NA,NA,NA,NA
kSV1PDVj,3vck0q0pp8rxiiaq9ji6jar3xntn0d,3xlbsaq9z8p742mno8jbiw4rh4x7zb,kSV1PDVj,2020-0188,2021-10-17,22:05:50,23:40:21,NA,incomplete,false,true,NA,5,30,NA,blue,m_s_049.jpg,NA,NA,unpleasant,pleasant,NA,NA,NA,NA,NA,right,1173,true,NA,NA,NA,NA,NA
kSV1PDVj,3vck0q0pp8rxiiaq9ji6jar3xntn0d,3xlbsaq9z8p742mno8jbiw4rh4x7zb,kSV1PDVj,2020-0188,2021-10-17,22:05:50,23:40:21,NA,incomplete,false,true,NA,5,31,NA,blue,n_l_060.jpg,NA,NA,pleasant,unpleasant,NA,NA,NA,NA,NA,left,1522,true,NA,NA,NA,NA,NA
kSV1PDVj,3vck0q0pp8rxiiaq9ji6jar3xntn0d,3xlbsaq9z8p742mno8jbiw4rh4x7zb,kSV1PDVj,2020-0188,2021-10-17,22:05:50,23:40:21,NA,incomplete,false,true,NA,5,32,NA,blue,m_s_052.jpg,NA,NA,pleasant,unpleasant,NA,NA,NA,NA,NA,left,1191,true,NA,NA,NA,NA,NA
kSV1PDVj,3vck0q0pp8rxiiaq9ji6jar3xntn0d,3xlbsaq9z8p742mno8jbiw4rh4x7zb,kSV1PDVj,2020-0188,2021-10-17,22:05:50,23:40:21,NA,incomplete,false,true,NA,5,33,NA,blue,n_l_107.jpg,NA,NA,unpleasant,pleasant,NA,NA,NA,NA,NA,left,1325,true,NA,NA,NA,NA,NA
kSV1PDVj,3vck0q0pp8rxiiaq9ji6jar3xntn0d,3xlbsaq9z8p742mno8jbiw4rh4x7zb,kSV1PDVj,2020-0188,2021-10-17,22:05:50,23:40:21,NA,incomplete,false,true,NA,5,34,NA,blue,m_l_027.jpg,NA,NA,pleasant,unpleasant,NA,NA,NA,NA,NA,left,2203,true,NA,NA,NA,NA,NA
kSV1PDVj,3vck0q0pp8rxiiaq9ji6jar3xntn0d,3xlbsaq9z8p742mno8jbiw4rh4x7zb,kSV1PDVj,2020-0188,2021-10-17,22:05:50,23:40:21,NA,incomplete,false,true,NA,5,35,NA,blue,m_l_113.jpg,NA,NA,pleasant,unpleasant,NA,NA,NA,NA,NA,left,2040,true,NA,NA,NA,NA,NA
kSV1PDVj,3vck0q0pp8rxiiaq9ji6jar3xntn0d,3xlbsaq9z8p742mno8jbiw4rh4x7zb,kSV1PDVj,2020-0188,2021-10-17,22:05:50,23:40:21,NA,incomplete,false,NA,true,5,0,NA,NA,NA,left,absent,NA,NA,n_l_060.jpg,blue,m_l_113.jpg,blue,within,NA,NaN,NA,left,10648,1,2,4592
kSV1PDVj,3vck0q0pp8rxiiaq9ji6jar3xntn0d,3xlbsaq9z8p742mno8jbiw4rh4x7zb,kSV1PDVj,2020-0188,2021-10-17,22:05:50,23:40:21,NA,incomplete,false,NA,true,5,1,NA,NA,NA,right,absent,NA,NA,n_s_031.jpg,orange,m_l_075.jpg,white,between,NA,NaN,NA,right,3695,1,0,3024
kSV1PDVj,3vck0q0pp8rxiiaq9ji6jar3xntn0d,3xlbsaq9z8p742mno8jbiw4rh4x7zb,kSV1PDVj,2020-0188,2021-10-17,22:05:50,23:40:21,NA,incomplete,false,NA,true,5,2,NA,NA,NA,left,absent,NA,NA,m_s_001.jpg,yellow,n_l_040.jpg,black,between,NA,NaN,NA,right,10527,0,0,1271
kSV1PDVj,3vck0q0pp8rxiiaq9ji6jar3xntn0d,3xlbsaq9z8p742mno8jbiw4rh4x7zb,kSV1PDVj,2020-0188,2021-10-17,22:05:50,23:40:21,NA,incomplete,false,NA,true,5,3,NA,NA,NA,right,absent,NA,NA,m_l_051.jpg,white,n_l_045.jpg,white,within,NA,NaN,NA,right,4159,1,0,1120
kSV1PDVj,3vck0q0pp8rxiiaq9ji6jar3xntn0d,3xlbsaq9z8p742mno8jbiw4rh4x7zb,kSV1PDVj,2020-0188,2021-10-17,22:05:50,23:40:21,NA,incomplete,false,NA,true,5,4,NA,NA,NA,left,absent,NA,NA,m_l_063.jpg,black,n_s_053.jpg,green,between,NA,NaN,NA,right,4088,0,2,1479
kSV1PDVj,3vck0q0pp8rxiiaq9ji6jar3xntn0d,3xlbsaq9z8p742mno8jbiw4rh4x7zb,kSV1PDVj,2020-0188,2021-10-17,22:05:50,23:40:21,NA,incomplete,false,NA,true,5,5,NA,NA,NA,right,absent,NA,NA,m_s_058.jpg,yellow,n_s_074.jpg,orange,between,NA,NaN,NA,right,7624,1,2,4679
kSV1PDVj,3vck0q0pp8rxiiaq9ji6jar3xntn0d,3xlbsaq9z8p742mno8jbiw4rh4x7zb,kSV1PDVj,2020-0188,2021-10-17,22:05:50,23:40:21,NA,incomplete,false,NA,true,5,6,NA,NA,NA,left,absent,NA,NA,n_s_114.jpg,green,m_s_052.jpg,blue,between,NA,NaN,NA,left,3944,1,0,1398
kSV1PDVj,3vck0q0pp8rxiiaq9ji6jar3xntn0d,3xlbsaq9z8p742mno8jbiw4rh4x7zb,kSV1PDVj,2020-0188,2021-10-17,22:05:50,23:40:21,NA,incomplete,false,NA,true,5,7,NA,NA,NA,left,absent,NA,NA,m_l_117.jpg,green,n_l_048.jpg,green,within,NA,NaN,NA,left,3647,1,3,2063
kSV1PDVj,3vck0q0pp8rxiiaq9ji6jar3xntn0d,3xlbsaq9z8p742mno8jbiw4rh4x7zb,kSV1PDVj,2020-0188,2021-10-17,22:05:50,23:40:21,NA,incomplete,false,NA,true,5,8,NA,NA,NA,right,absent,NA,NA,n_s_099.jpg,orange,n_s_016.jpg,orange,within,NA,NaN,NA,left,5783,0,1,1287
kSV1PDVj,3vck0q0pp8rxiiaq9ji6jar3xntn0d,3xlbsaq9z8p742mno8jbiw4rh4x7zb,kSV1PDVj,2020-0188,2021-10-17,22:05:50,23:40:21,NA,incomplete,false,NA,true,5,9,NA,NA,NA,right,absent,NA,NA,n_l_018.jpg,black,m_s_006.jpg,black,within,NA,NaN,NA,right,3815,1,2,1343
kSV1PDVj,3vck0q0pp8rxiiaq9ji6jar3xntn0d,3xlbsaq9z8p742mno8jbiw4rh4x7zb,kSV1PDVj,2020-0188,2021-10-17,22:05:50,23:40:21,NA,incomplete,false,NA,true,5,10,NA,NA,NA,right,absent,NA,NA,n_l_038.jpg,yellow,m_l_094.jpg,yellow,within,NA,NaN,NA,left,2671,0,2,2199
kSV1PDVj,3vck0q0pp8rxiiaq9ji6jar3xntn0d,3xlbsaq9z8p742mno8jbiw4rh4x7zb,kSV1PDVj,2020-0188,2021-10-17,22:05:50,23:40:21,NA,incomplete,false,true,NA,6,0,NA,blue,n_s_010.jpg,NA,NA,pleasant,unpleasant,NA,NA,NA,NA,NA,right,1485,true,NA,NA,NA,NA,NA
kSV1PDVj,3vck0q0pp8rxiiaq9ji6jar3xntn0d,3xlbsaq9z8p742mno8jbiw4rh4x7zb,kSV1PDVj,2020-0188,2021-10-17,22:05:50,23:40:21,NA,incomplete,false,true,NA,6,1,NA,blue,m_s_029.jpg,NA,NA,unpleasant,pleasant,NA,NA,NA,NA,NA,right,1347,true,NA,NA,NA,NA,NA
kSV1PDVj,3vck0q0pp8rxiiaq9ji6jar3xntn0d,3xlbsaq9z8p742mno8jbiw4rh4x7zb,kSV1PDVj,2020-0188,2021-10-17,22:05:50,23:40:21,NA,incomplete,false,true,NA,6,2,NA,blue,m_l_029.jpg,NA,NA,pleasant,unpleasant,NA,NA,NA,NA,NA,left,1224,true,NA,NA,NA,NA,NA
kSV1PDVj,3vck0q0pp8rxiiaq9ji6jar3xntn0d,3xlbsaq9z8p742mno8jbiw4rh4x7zb,kSV1PDVj,2020-0188,2021-10-17,22:05:50,23:40:21,NA,incomplete,false,true,NA,6,3,NA,blue,n_l_078.jpg,NA,NA,pleasant,unpleasant,NA,NA,NA,NA,NA,left,1767,true,NA,NA,NA,NA,NA
kSV1PDVj,3vck0q0pp8rxiiaq9ji6jar3xntn0d,3xlbsaq9z8p742mno8jbiw4rh4x7zb,kSV1PDVj,2020-0188,2021-10-17,22:05:50,23:40:21,NA,incomplete,false,true,NA,6,4,NA,blue,n_l_049.jpg,NA,NA,unpleasant,pleasant,NA,NA,NA,NA,NA,right,1693,true,NA,NA,NA,NA,NA
kSV1PDVj,3vck0q0pp8rxiiaq9ji6jar3xntn0d,3xlbsaq9z8p742mno8jbiw4rh4x7zb,kSV1PDVj,2020-0188,2021-10-17,22:05:50,23:40:21,NA,incomplete,false,true,NA,6,5,NA,blue,m_s_116.jpg,NA,NA,pleasant,unpleasant,NA,NA,NA,NA,NA,left,1578,true,NA,NA,NA,NA,NA
kSV1PDVj,3vck0q0pp8rxiiaq9ji6jar3xntn0d,3xlbsaq9z8p742mno8jbiw4rh4x7zb,kSV1PDVj,2020-0188,2021-10-17,22:05:50,23:40:21,NA,incomplete,false,true,NA,6,6,NA,red,n_s_038.jpg,NA,NA,unpleasant,pleasant,NA,NA,NA,NA,NA,right,2360,true,NA,NA,NA,NA,NA
kSV1PDVj,3vck0q0pp8rxiiaq9ji6jar3xntn0d,3xlbsaq9z8p742mno8jbiw4rh4x7zb,kSV1PDVj,2020-0188,2021-10-17,22:05:50,23:40:21,NA,incomplete,false,true,NA,6,7,NA,red,m_s_003.jpg,NA,NA,unpleasant,pleasant,NA,NA,NA,NA,NA,right,2174,true,NA,NA,NA,NA,NA
kSV1PDVj,3vck0q0pp8rxiiaq9ji6jar3xntn0d,3xlbsaq9z8p742mno8jbiw4rh4x7zb,kSV1PDVj,2020-0188,2021-10-17,22:05:50,23:40:21,NA,incomplete,false,true,NA,6,8,NA,red,n_s_109.jpg,NA,NA,unpleasant,pleasant,NA,NA,NA,NA,NA,left,1388,true,NA,NA,NA,NA,NA
kSV1PDVj,3vck0q0pp8rxiiaq9ji6jar3xntn0d,3xlbsaq9z8p742mno8jbiw4rh4x7zb,kSV1PDVj,2020-0188,2021-10-17,22:05:50,23:40:21,NA,incomplete,false,true,NA,6,9,NA,red,m_l_014.jpg,NA,NA,pleasant,unpleasant,NA,NA,NA,NA,NA,left,1506,true,NA,NA,NA,NA,NA
kSV1PDVj,3vck0q0pp8rxiiaq9ji6jar3xntn0d,3xlbsaq9z8p742mno8jbiw4rh4x7zb,kSV1PDVj,2020-0188,2021-10-17,22:05:50,23:40:21,NA,incomplete,false,true,NA,6,10,NA,red,n_l_117.jpg,NA,NA,unpleasant,pleasant,NA,NA,NA,NA,NA,left,2366,true,NA,NA,NA,NA,NA
kSV1PDVj,3vck0q0pp8rxiiaq9ji6jar3xntn0d,3xlbsaq9z8p742mno8jbiw4rh4x7zb,kSV1PDVj,2020-0188,2021-10-17,22:05:50,23:40:21,NA,incomplete,false,true,NA,6,11,NA,red,n_s_054.jpg,NA,NA,pleasant,unpleasant,NA,NA,NA,NA,NA,left,2739,true,NA,NA,NA,NA,NA
kSV1PDVj,3vck0q0pp8rxiiaq9ji6jar3xntn0d,3xlbsaq9z8p742mno8jbiw4rh4x7zb,kSV1PDVj,2020-0188,2021-10-17,22:05:50,23:40:21,NA,incomplete,false,true,NA,6,12,NA,brown,n_s_047.jpg,NA,NA,pleasant,unpleasant,NA,NA,NA,NA,NA,left,1922,true,NA,NA,NA,NA,NA
kSV1PDVj,3vck0q0pp8rxiiaq9ji6jar3xntn0d,3xlbsaq9z8p742mno8jbiw4rh4x7zb,kSV1PDVj,2020-0188,2021-10-17,22:05:50,23:40:21,NA,incomplete,false,true,NA,6,13,NA,brown,m_l_060.jpg,NA,NA,unpleasant,pleasant,NA,NA,NA,NA,NA,right,1103,true,NA,NA,NA,NA,NA
kSV1PDVj,3vck0q0pp8rxiiaq9ji6jar3xntn0d,3xlbsaq9z8p742mno8jbiw4rh4x7zb,kSV1PDVj,2020-0188,2021-10-17,22:05:50,23:40:21,NA,incomplete,false,true,NA,6,14,NA,brown,m_l_035.jpg,NA,NA,pleasant,unpleasant,NA,NA,NA,NA,NA,left,1404,true,NA,NA,NA,NA,NA
kSV1PDVj,3vck0q0pp8rxiiaq9ji6jar3xntn0d,3xlbsaq9z8p742mno8jbiw4rh4x7zb,kSV1PDVj,2020-0188,2021-10-17,22:05:50,23:40:21,NA,incomplete,false,true,NA,6,15,NA,brown,n_s_072.jpg,NA,NA,pleasant,unpleasant,NA,NA,NA,NA,NA,left,1714,true,NA,NA,NA,NA,NA
kSV1PDVj,3vck0q0pp8rxiiaq9ji6jar3xntn0d,3xlbsaq9z8p742mno8jbiw4rh4x7zb,kSV1PDVj,2020-0188,2021-10-17,22:05:50,23:40:21,NA,incomplete,false,true,NA,6,16,NA,brown,m_l_100.jpg,NA,NA,unpleasant,pleasant,NA,NA,NA,NA,NA,right,1472,true,NA,NA,NA,NA,NA
kSV1PDVj,3vck0q0pp8rxiiaq9ji6jar3xntn0d,3xlbsaq9z8p742mno8jbiw4rh4x7zb,kSV1PDVj,2020-0188,2021-10-17,22:05:50,23:40:21,NA,incomplete,false,true,NA,6,17,NA,brown,n_s_004.jpg,NA,NA,unpleasant,pleasant,NA,NA,NA,NA,NA,left,1885,true,NA,NA,NA,NA,NA
kSV1PDVj,3vck0q0pp8rxiiaq9ji6jar3xntn0d,3xlbsaq9z8p742mno8jbiw4rh4x7zb,kSV1PDVj,2020-0188,2021-10-17,22:05:50,23:40:21,NA,incomplete,false,true,NA,6,18,NA,white,m_s_098.jpg,NA,NA,unpleasant,pleasant,NA,NA,NA,NA,NA,right,1284,true,NA,NA,NA,NA,NA
kSV1PDVj,3vck0q0pp8rxiiaq9ji6jar3xntn0d,3xlbsaq9z8p742mno8jbiw4rh4x7zb,kSV1PDVj,2020-0188,2021-10-17,22:05:50,23:40:21,NA,incomplete,false,true,NA,6,19,NA,white,n_s_048.jpg,NA,NA,unpleasant,pleasant,NA,NA,NA,NA,NA,left,1489,true,NA,NA,NA,NA,NA
kSV1PDVj,3vck0q0pp8rxiiaq9ji6jar3xntn0d,3xlbsaq9z8p742mno8jbiw4rh4x7zb,kSV1PDVj,2020-0188,2021-10-17,22:05:50,23:40:21,NA,incomplete,false,true,NA,6,20,NA,white,m_s_108.jpg,NA,NA,pleasant,unpleasant,NA,NA,NA,NA,NA,left,1813,true,NA,NA,NA,NA,NA
kSV1PDVj,3vck0q0pp8rxiiaq9ji6jar3xntn0d,3xlbsaq9z8p742mno8jbiw4rh4x7zb,kSV1PDVj,2020-0188,2021-10-17,22:05:50,23:40:21,NA,incomplete,false,true,NA,6,21,NA,white,m_s_045.jpg,NA,NA,pleasant,unpleasant,NA,NA,NA,NA,NA,left,1213,true,NA,NA,NA,NA,NA
kSV1PDVj,3vck0q0pp8rxiiaq9ji6jar3xntn0d,3xlbsaq9z8p742mno8jbiw4rh4x7zb,kSV1PDVj,2020-0188,2021-10-17,22:05:50,23:40:21,NA,incomplete,false,true,NA,6,22,NA,white,m_l_086.jpg,NA,NA,unpleasant,pleasant,NA,NA,NA,NA,NA,right,1266,true,NA,NA,NA,NA,NA
kSV1PDVj,3vck0q0pp8rxiiaq9ji6jar3xntn0d,3xlbsaq9z8p742mno8jbiw4rh4x7zb,kSV1PDVj,2020-0188,2021-10-17,22:05:50,23:40:21,NA,incomplete,false,true,NA,6,23,NA,white,n_s_014.jpg,NA,NA,unpleasant,pleasant,NA,NA,NA,NA,NA,right,2728,true,NA,NA,NA,NA,NA
kSV1PDVj,3vck0q0pp8rxiiaq9ji6jar3xntn0d,3xlbsaq9z8p742mno8jbiw4rh4x7zb,kSV1PDVj,2020-0188,2021-10-17,22:05:50,23:40:21,NA,incomplete,false,true,NA,6,24,NA,gray,m_l_071.jpg,NA,NA,pleasant,unpleasant,NA,NA,NA,NA,NA,left,1151,true,NA,NA,NA,NA,NA
kSV1PDVj,3vck0q0pp8rxiiaq9ji6jar3xntn0d,3xlbsaq9z8p742mno8jbiw4rh4x7zb,kSV1PDVj,2020-0188,2021-10-17,22:05:50,23:40:21,NA,incomplete,false,true,NA,6,25,NA,gray,m_s_102.jpg,NA,NA,pleasant,unpleasant,NA,NA,NA,NA,NA,left,2020,true,NA,NA,NA,NA,NA
kSV1PDVj,3vck0q0pp8rxiiaq9ji6jar3xntn0d,3xlbsaq9z8p742mno8jbiw4rh4x7zb,kSV1PDVj,2020-0188,2021-10-17,22:05:50,23:40:21,NA,incomplete,false,true,NA,6,26,NA,gray,m_s_062.jpg,NA,NA,pleasant,unpleasant,NA,NA,NA,NA,NA,left,1049,true,NA,NA,NA,NA,NA
kSV1PDVj,3vck0q0pp8rxiiaq9ji6jar3xntn0d,3xlbsaq9z8p742mno8jbiw4rh4x7zb,kSV1PDVj,2020-0188,2021-10-17,22:05:50,23:40:21,NA,incomplete,false,true,NA,6,27,NA,gray,m_l_064.jpg,NA,NA,unpleasant,pleasant,NA,NA,NA,NA,NA,right,1120,true,NA,NA,NA,NA,NA
kSV1PDVj,3vck0q0pp8rxiiaq9ji6jar3xntn0d,3xlbsaq9z8p742mno8jbiw4rh4x7zb,kSV1PDVj,2020-0188,2021-10-17,22:05:50,23:40:21,NA,incomplete,false,true,NA,6,28,NA,gray,m_l_054.jpg,NA,NA,unpleasant,pleasant,NA,NA,NA,NA,NA,right,1749,true,NA,NA,NA,NA,NA
kSV1PDVj,3vck0q0pp8rxiiaq9ji6jar3xntn0d,3xlbsaq9z8p742mno8jbiw4rh4x7zb,kSV1PDVj,2020-0188,2021-10-17,22:05:50,23:40:21,NA,incomplete,false,true,NA,6,29,NA,gray,n_s_107.jpg,NA,NA,unpleasant,pleasant,NA,NA,NA,NA,NA,right,1539,true,NA,NA,NA,NA,NA
kSV1PDVj,3vck0q0pp8rxiiaq9ji6jar3xntn0d,3xlbsaq9z8p742mno8jbiw4rh4x7zb,kSV1PDVj,2020-0188,2021-10-17,22:05:50,23:40:21,NA,incomplete,false,true,NA,6,30,NA,green,m_s_056.jpg,NA,NA,unpleasant,pleasant,NA,NA,NA,NA,NA,right,1673,true,NA,NA,NA,NA,NA
kSV1PDVj,3vck0q0pp8rxiiaq9ji6jar3xntn0d,3xlbsaq9z8p742mno8jbiw4rh4x7zb,kSV1PDVj,2020-0188,2021-10-17,22:05:50,23:40:21,NA,incomplete,false,true,NA,6,31,NA,green,m_l_048.jpg,NA,NA,unpleasant,pleasant,NA,NA,NA,NA,NA,right,1118,true,NA,NA,NA,NA,NA
kSV1PDVj,3vck0q0pp8rxiiaq9ji6jar3xntn0d,3xlbsaq9z8p742mno8jbiw4rh4x7zb,kSV1PDVj,2020-0188,2021-10-17,22:05:50,23:40:21,NA,incomplete,false,true,NA,6,32,NA,green,n_l_013.jpg,NA,NA,unpleasant,pleasant,NA,NA,NA,NA,NA,left,2203,true,NA,NA,NA,NA,NA
kSV1PDVj,3vck0q0pp8rxiiaq9ji6jar3xntn0d,3xlbsaq9z8p742mno8jbiw4rh4x7zb,kSV1PDVj,2020-0188,2021-10-17,22:05:50,23:40:21,NA,incomplete,false,true,NA,6,33,NA,green,m_s_051.jpg,NA,NA,unpleasant,pleasant,NA,NA,NA,NA,NA,left,2345,true,NA,NA,NA,NA,NA
kSV1PDVj,3vck0q0pp8rxiiaq9ji6jar3xntn0d,3xlbsaq9z8p742mno8jbiw4rh4x7zb,kSV1PDVj,2020-0188,2021-10-17,22:05:50,23:40:21,NA,incomplete,false,true,NA,6,34,NA,green,n_s_080.jpg,NA,NA,unpleasant,pleasant,NA,NA,NA,NA,NA,left,1822,true,NA,NA,NA,NA,NA
kSV1PDVj,3vck0q0pp8rxiiaq9ji6jar3xntn0d,3xlbsaq9z8p742mno8jbiw4rh4x7zb,kSV1PDVj,2020-0188,2021-10-17,22:05:50,23:40:21,NA,incomplete,false,true,NA,6,35,NA,green,n_l_109.jpg,NA,NA,unpleasant,pleasant,NA,NA,NA,NA,NA,left,1244,true,NA,NA,NA,NA,NA
kSV1PDVj,3vck0q0pp8rxiiaq9ji6jar3xntn0d,3xlbsaq9z8p742mno8jbiw4rh4x7zb,kSV1PDVj,2020-0188,2021-10-17,22:05:50,23:40:21,NA,incomplete,false,NA,true,6,0,NA,NA,NA,left,present,NA,NA,m_s_102.jpg,gray,n_s_107.jpg,gray,within,NA,NaN,NA,right,8351,0,2,3895
kSV1PDVj,3vck0q0pp8rxiiaq9ji6jar3xntn0d,3xlbsaq9z8p742mno8jbiw4rh4x7zb,kSV1PDVj,2020-0188,2021-10-17,22:05:50,23:40:21,NA,incomplete,false,NA,true,6,1,NA,NA,NA,left,present,NA,NA,n_s_048.jpg,white,n_s_014.jpg,white,within,NA,NaN,NA,left,6575,1,1,1376
kSV1PDVj,3vck0q0pp8rxiiaq9ji6jar3xntn0d,3xlbsaq9z8p742mno8jbiw4rh4x7zb,kSV1PDVj,2020-0188,2021-10-17,22:05:50,23:40:21,NA,incomplete,false,NA,true,6,2,NA,NA,NA,right,present,NA,NA,m_l_035.jpg,brown,n_l_117.jpg,red,between,NA,NaN,NA,right,14743,1,2,4504
kSV1PDVj,3vck0q0pp8rxiiaq9ji6jar3xntn0d,3xlbsaq9z8p742mno8jbiw4rh4x7zb,kSV1PDVj,2020-0188,2021-10-17,22:05:50,23:40:21,NA,incomplete,false,NA,true,6,3,NA,NA,NA,left,present,NA,NA,m_s_003.jpg,red,n_s_054.jpg,red,within,NA,NaN,NA,left,8080,1,0,1503
kSV1PDVj,3vck0q0pp8rxiiaq9ji6jar3xntn0d,3xlbsaq9z8p742mno8jbiw4rh4x7zb,kSV1PDVj,2020-0188,2021-10-17,22:05:50,23:40:21,NA,incomplete,false,NA,true,6,4,NA,NA,NA,right,present,NA,NA,m_s_116.jpg,blue,m_s_029.jpg,blue,within,NA,NaN,NA,right,5127,1,0,1543
kSV1PDVj,3vck0q0pp8rxiiaq9ji6jar3xntn0d,3xlbsaq9z8p742mno8jbiw4rh4x7zb,kSV1PDVj,2020-0188,2021-10-17,22:05:50,23:40:21,NA,incomplete,false,NA,true,6,5,NA,NA,NA,right,present,NA,NA,n_l_013.jpg,green,m_l_054.jpg,gray,between,NA,NaN,NA,right,14960,1,1,1759
kSV1PDVj,3vck0q0pp8rxiiaq9ji6jar3xntn0d,3xlbsaq9z8p742mno8jbiw4rh4x7zb,kSV1PDVj,2020-0188,2021-10-17,22:05:50,23:40:21,NA,incomplete,false,NA,true,6,6,NA,NA,NA,right,present,NA,NA,m_s_108.jpg,white,m_l_100.jpg,brown,between,NA,NaN,NA,left,6984,0,2,1416
kSV1PDVj,3vck0q0pp8rxiiaq9ji6jar3xntn0d,3xlbsaq9z8p742mno8jbiw4rh4x7zb,kSV1PDVj,2020-0188,2021-10-17,22:05:50,23:40:21,NA,incomplete,false,NA,true,6,7,NA,NA,NA,left,present,NA,NA,m_l_060.jpg,brown,n_s_004.jpg,brown,within,NA,NaN,NA,left,9713,1,0,1087
kSV1PDVj,3vck0q0pp8rxiiaq9ji6jar3xntn0d,3xlbsaq9z8p742mno8jbiw4rh4x7zb,kSV1PDVj,2020-0188,2021-10-17,22:05:50,23:40:21,NA,incomplete,false,NA,true,6,8,NA,NA,NA,right,present,NA,NA,m_s_062.jpg,gray,m_l_086.jpg,white,between,NA,NaN,NA,left,5287,0,1,2935
kSV1PDVj,3vck0q0pp8rxiiaq9ji6jar3xntn0d,3xlbsaq9z8p742mno8jbiw4rh4x7zb,kSV1PDVj,2020-0188,2021-10-17,22:05:50,23:40:21,NA,incomplete,false,NA,true,6,9,NA,NA,NA,right,present,NA,NA,n_s_109.jpg,red,n_l_049.jpg,blue,between,NA,NaN,NA,left,5046,0,2,2344
kSV1PDVj,3vck0q0pp8rxiiaq9ji6jar3xntn0d,3xlbsaq9z8p742mno8jbiw4rh4x7zb,kSV1PDVj,2020-0188,2021-10-17,22:05:50,23:40:21,NA,incomplete,false,NA,true,6,10,NA,NA,NA,left,present,NA,NA,m_l_048.jpg,green,n_l_109.jpg,green,within,NA,NaN,NA,left,3847,1,0,2360
kSV1PDVj,3vck0q0pp8rxiiaq9ji6jar3xntn0d,3xlbsaq9z8p742mno8jbiw4rh4x7zb,kSV1PDVj,2020-0188,2021-10-17,22:05:50,23:40:21,NA,incomplete,false,true,NA,7,0,NA,blue,n_l_015.jpg,NA,NA,unpleasant,pleasant,NA,NA,NA,NA,NA,left,1478,true,NA,NA,NA,NA,NA
kSV1PDVj,3vck0q0pp8rxiiaq9ji6jar3xntn0d,3xlbsaq9z8p742mno8jbiw4rh4x7zb,kSV1PDVj,2020-0188,2021-10-17,22:05:50,23:40:21,NA,incomplete,false,true,NA,7,1,NA,blue,n_s_115.jpg,NA,NA,unpleasant,pleasant,NA,NA,NA,NA,NA,right,1283,true,NA,NA,NA,NA,NA
kSV1PDVj,3vck0q0pp8rxiiaq9ji6jar3xntn0d,3xlbsaq9z8p742mno8jbiw4rh4x7zb,kSV1PDVj,2020-0188,2021-10-17,22:05:50,23:40:21,NA,incomplete,false,true,NA,7,2,NA,blue,n_s_019.jpg,NA,NA,unpleasant,pleasant,NA,NA,NA,NA,NA,right,1586,true,NA,NA,NA,NA,NA
kSV1PDVj,3vck0q0pp8rxiiaq9ji6jar3xntn0d,3xlbsaq9z8p742mno8jbiw4rh4x7zb,kSV1PDVj,2020-0188,2021-10-17,22:05:50,23:40:21,NA,incomplete,false,true,NA,7,3,NA,blue,m_s_082.jpg,NA,NA,unpleasant,pleasant,NA,NA,NA,NA,NA,right,1110,true,NA,NA,NA,NA,NA
kSV1PDVj,3vck0q0pp8rxiiaq9ji6jar3xntn0d,3xlbsaq9z8p742mno8jbiw4rh4x7zb,kSV1PDVj,2020-0188,2021-10-17,22:05:50,23:40:21,NA,incomplete,false,true,NA,7,4,NA,blue,m_l_093.jpg,NA,NA,unpleasant,pleasant,NA,NA,NA,NA,NA,right,1262,true,NA,NA,NA,NA,NA
kSV1PDVj,3vck0q0pp8rxiiaq9ji6jar3xntn0d,3xlbsaq9z8p742mno8jbiw4rh4x7zb,kSV1PDVj,2020-0188,2021-10-17,22:05:50,23:40:21,NA,incomplete,false,true,NA,7,5,NA,blue,m_s_099.jpg,NA,NA,unpleasant,pleasant,NA,NA,NA,NA,NA,right,1307,true,NA,NA,NA,NA,NA
kSV1PDVj,3vck0q0pp8rxiiaq9ji6jar3xntn0d,3xlbsaq9z8p742mno8jbiw4rh4x7zb,kSV1PDVj,2020-0188,2021-10-17,22:05:50,23:40:21,NA,incomplete,false,true,NA,7,6,NA,white,n_l_020.jpg,NA,NA,pleasant,unpleasant,NA,NA,NA,NA,NA,left,1576,true,NA,NA,NA,NA,NA
kSV1PDVj,3vck0q0pp8rxiiaq9ji6jar3xntn0d,3xlbsaq9z8p742mno8jbiw4rh4x7zb,kSV1PDVj,2020-0188,2021-10-17,22:05:50,23:40:21,NA,incomplete,false,true,NA,7,7,NA,white,m_l_092.jpg,NA,NA,unpleasant,pleasant,NA,NA,NA,NA,NA,right,1351,true,NA,NA,NA,NA,NA
kSV1PDVj,3vck0q0pp8rxiiaq9ji6jar3xntn0d,3xlbsaq9z8p742mno8jbiw4rh4x7zb,kSV1PDVj,2020-0188,2021-10-17,22:05:50,23:40:21,NA,incomplete,false,true,NA,7,8,NA,white,m_s_069.jpg,NA,NA,pleasant,unpleasant,NA,NA,NA,NA,NA,left,2372,true,NA,NA,NA,NA,NA
kSV1PDVj,3vck0q0pp8rxiiaq9ji6jar3xntn0d,3xlbsaq9z8p742mno8jbiw4rh4x7zb,kSV1PDVj,2020-0188,2021-10-17,22:05:50,23:40:21,NA,incomplete,false,true,NA,7,9,NA,white,n_s_034.jpg,NA,NA,pleasant,unpleasant,NA,NA,NA,NA,NA,right,2457,true,NA,NA,NA,NA,NA
kSV1PDVj,3vck0q0pp8rxiiaq9ji6jar3xntn0d,3xlbsaq9z8p742mno8jbiw4rh4x7zb,kSV1PDVj,2020-0188,2021-10-17,22:05:50,23:40:21,NA,incomplete,false,true,NA,7,10,NA,white,m_l_046.jpg,NA,NA,pleasant,unpleasant,NA,NA,NA,NA,NA,left,1319,true,NA,NA,NA,NA,NA
kSV1PDVj,3vck0q0pp8rxiiaq9ji6jar3xntn0d,3xlbsaq9z8p742mno8jbiw4rh4x7zb,kSV1PDVj,2020-0188,2021-10-17,22:05:50,23:40:21,NA,incomplete,false,true,NA,7,11,NA,white,m_l_036.jpg,NA,NA,pleasant,unpleasant,NA,NA,NA,NA,NA,right,1459,true,NA,NA,NA,NA,NA
kSV1PDVj,3vck0q0pp8rxiiaq9ji6jar3xntn0d,3xlbsaq9z8p742mno8jbiw4rh4x7zb,kSV1PDVj,2020-0188,2021-10-17,22:05:50,23:40:21,NA,incomplete,false,true,NA,7,12,NA,red,n_l_074.jpg,NA,NA,pleasant,unpleasant,NA,NA,NA,NA,NA,left,1577,true,NA,NA,NA,NA,NA
kSV1PDVj,3vck0q0pp8rxiiaq9ji6jar3xntn0d,3xlbsaq9z8p742mno8jbiw4rh4x7zb,kSV1PDVj,2020-0188,2021-10-17,22:05:50,23:40:21,NA,incomplete,false,true,NA,7,13,NA,red,n_l_073.jpg,NA,NA,pleasant,unpleasant,NA,NA,NA,NA,NA,left,1472,true,NA,NA,NA,NA,NA
kSV1PDVj,3vck0q0pp8rxiiaq9ji6jar3xntn0d,3xlbsaq9z8p742mno8jbiw4rh4x7zb,kSV1PDVj,2020-0188,2021-10-17,22:05:50,23:40:21,NA,incomplete,false,true,NA,7,14,NA,red,n_l_046.jpg,NA,NA,pleasant,unpleasant,NA,NA,NA,NA,NA,left,2093,true,NA,NA,NA,NA,NA
kSV1PDVj,3vck0q0pp8rxiiaq9ji6jar3xntn0d,3xlbsaq9z8p742mno8jbiw4rh4x7zb,kSV1PDVj,2020-0188,2021-10-17,22:05:50,23:40:21,NA,incomplete,false,true,NA,7,15,NA,red,m_s_022.jpg,NA,NA,unpleasant,pleasant,NA,NA,NA,NA,NA,right,1188,true,NA,NA,NA,NA,NA
kSV1PDVj,3vck0q0pp8rxiiaq9ji6jar3xntn0d,3xlbsaq9z8p742mno8jbiw4rh4x7zb,kSV1PDVj,2020-0188,2021-10-17,22:05:50,23:40:21,NA,incomplete,false,true,NA,7,16,NA,red,m_l_065.jpg,NA,NA,unpleasant,pleasant,NA,NA,NA,NA,NA,right,1033,true,NA,NA,NA,NA,NA
kSV1PDVj,3vck0q0pp8rxiiaq9ji6jar3xntn0d,3xlbsaq9z8p742mno8jbiw4rh4x7zb,kSV1PDVj,2020-0188,2021-10-17,22:05:50,23:40:21,NA,incomplete,false,true,NA,7,17,NA,red,m_l_047.jpg,NA,NA,pleasant,unpleasant,NA,NA,NA,NA,NA,left,1527,true,NA,NA,NA,NA,NA
kSV1PDVj,3vck0q0pp8rxiiaq9ji6jar3xntn0d,3xlbsaq9z8p742mno8jbiw4rh4x7zb,kSV1PDVj,2020-0188,2021-10-17,22:05:50,23:40:21,NA,incomplete,false,true,NA,7,18,NA,black,m_s_079.jpg,NA,NA,unpleasant,pleasant,NA,NA,NA,NA,NA,right,1292,true,NA,NA,NA,NA,NA
kSV1PDVj,3vck0q0pp8rxiiaq9ji6jar3xntn0d,3xlbsaq9z8p742mno8jbiw4rh4x7zb,kSV1PDVj,2020-0188,2021-10-17,22:05:50,23:40:21,NA,incomplete,false,true,NA,7,19,NA,black,n_s_111.jpg,NA,NA,pleasant,unpleasant,NA,NA,NA,NA,NA,right,1666,true,NA,NA,NA,NA,NA
kSV1PDVj,3vck0q0pp8rxiiaq9ji6jar3xntn0d,3xlbsaq9z8p742mno8jbiw4rh4x7zb,kSV1PDVj,2020-0188,2021-10-17,22:05:50,23:40:21,NA,incomplete,false,true,NA,7,20,NA,black,n_l_057.jpg,NA,NA,pleasant,unpleasant,NA,NA,NA,NA,NA,right,1520,true,NA,NA,NA,NA,NA
kSV1PDVj,3vck0q0pp8rxiiaq9ji6jar3xntn0d,3xlbsaq9z8p742mno8jbiw4rh4x7zb,kSV1PDVj,2020-0188,2021-10-17,22:05:50,23:40:21,NA,incomplete,false,true,NA,7,21,NA,black,m_l_018.jpg,NA,NA,pleasant,unpleasant,NA,NA,NA,NA,NA,left,1053,true,NA,NA,NA,NA,NA
kSV1PDVj,3vck0q0pp8rxiiaq9ji6jar3xntn0d,3xlbsaq9z8p742mno8jbiw4rh4x7zb,kSV1PDVj,2020-0188,2021-10-17,22:05:50,23:40:21,NA,incomplete,false,true,NA,7,22,NA,black,m_s_019.jpg,NA,NA,pleasant,unpleasant,NA,NA,NA,NA,NA,left,1099,true,NA,NA,NA,NA,NA
kSV1PDVj,3vck0q0pp8rxiiaq9ji6jar3xntn0d,3xlbsaq9z8p742mno8jbiw4rh4x7zb,kSV1PDVj,2020-0188,2021-10-17,22:05:50,23:40:21,NA,incomplete,false,true,NA,7,23,NA,black,m_s_083.jpg,NA,NA,pleasant,unpleasant,NA,NA,NA,NA,NA,left,1120,true,NA,NA,NA,NA,NA
kSV1PDVj,3vck0q0pp8rxiiaq9ji6jar3xntn0d,3xlbsaq9z8p742mno8jbiw4rh4x7zb,kSV1PDVj,2020-0188,2021-10-17,22:05:50,23:40:21,NA,incomplete,false,true,NA,7,24,NA,purple,m_s_084.jpg,NA,NA,unpleasant,pleasant,NA,NA,NA,NA,NA,right,1247,true,NA,NA,NA,NA,NA
kSV1PDVj,3vck0q0pp8rxiiaq9ji6jar3xntn0d,3xlbsaq9z8p742mno8jbiw4rh4x7zb,kSV1PDVj,2020-0188,2021-10-17,22:05:50,23:40:21,NA,incomplete,false,true,NA,7,25,NA,purple,m_s_017.jpg,NA,NA,pleasant,unpleasant,NA,NA,NA,NA,NA,left,1268,true,NA,NA,NA,NA,NA
kSV1PDVj,3vck0q0pp8rxiiaq9ji6jar3xntn0d,3xlbsaq9z8p742mno8jbiw4rh4x7zb,kSV1PDVj,2020-0188,2021-10-17,22:05:50,23:40:21,NA,incomplete,false,true,NA,7,26,NA,purple,m_l_001.jpg,NA,NA,unpleasant,pleasant,NA,NA,NA,NA,NA,left,2114,true,NA,NA,NA,NA,NA
kSV1PDVj,3vck0q0pp8rxiiaq9ji6jar3xntn0d,3xlbsaq9z8p742mno8jbiw4rh4x7zb,kSV1PDVj,2020-0188,2021-10-17,22:05:50,23:40:21,NA,incomplete,false,true,NA,7,27,NA,purple,n_l_058.jpg,NA,NA,pleasant,unpleasant,NA,NA,NA,NA,NA,right,1441,true,NA,NA,NA,NA,NA
kSV1PDVj,3vck0q0pp8rxiiaq9ji6jar3xntn0d,3xlbsaq9z8p742mno8jbiw4rh4x7zb,kSV1PDVj,2020-0188,2021-10-17,22:05:50,23:40:21,NA,incomplete,false,true,NA,7,28,NA,purple,m_s_073.jpg,NA,NA,pleasant,unpleasant,NA,NA,NA,NA,NA,right,1638,true,NA,NA,NA,NA,NA
kSV1PDVj,3vck0q0pp8rxiiaq9ji6jar3xntn0d,3xlbsaq9z8p742mno8jbiw4rh4x7zb,kSV1PDVj,2020-0188,2021-10-17,22:05:50,23:40:21,NA,incomplete,false,true,NA,7,29,NA,purple,m_s_010.jpg,NA,NA,unpleasant,pleasant,NA,NA,NA,NA,NA,right,1130,true,NA,NA,NA,NA,NA
kSV1PDVj,3vck0q0pp8rxiiaq9ji6jar3xntn0d,3xlbsaq9z8p742mno8jbiw4rh4x7zb,kSV1PDVj,2020-0188,2021-10-17,22:05:50,23:40:21,NA,incomplete,false,true,NA,7,30,NA,gray,n_l_027.jpg,NA,NA,pleasant,unpleasant,NA,NA,NA,NA,NA,left,1273,true,NA,NA,NA,NA,NA
kSV1PDVj,3vck0q0pp8rxiiaq9ji6jar3xntn0d,3xlbsaq9z8p742mno8jbiw4rh4x7zb,kSV1PDVj,2020-0188,2021-10-17,22:05:50,23:40:21,NA,incomplete,false,true,NA,7,31,NA,gray,m_s_036.jpg,NA,NA,pleasant,unpleasant,NA,NA,NA,NA,NA,left,1927,true,NA,NA,NA,NA,NA
kSV1PDVj,3vck0q0pp8rxiiaq9ji6jar3xntn0d,3xlbsaq9z8p742mno8jbiw4rh4x7zb,kSV1PDVj,2020-0188,2021-10-17,22:05:50,23:40:21,NA,incomplete,false,true,NA,7,32,NA,gray,n_l_009.jpg,NA,NA,unpleasant,pleasant,NA,NA,NA,NA,NA,right,1181,true,NA,NA,NA,NA,NA
kSV1PDVj,3vck0q0pp8rxiiaq9ji6jar3xntn0d,3xlbsaq9z8p742mno8jbiw4rh4x7zb,kSV1PDVj,2020-0188,2021-10-17,22:05:50,23:40:21,NA,incomplete,false,true,NA,7,33,NA,gray,m_l_110.jpg,NA,NA,unpleasant,pleasant,NA,NA,NA,NA,NA,right,1092,true,NA,NA,NA,NA,NA
kSV1PDVj,3vck0q0pp8rxiiaq9ji6jar3xntn0d,3xlbsaq9z8p742mno8jbiw4rh4x7zb,kSV1PDVj,2020-0188,2021-10-17,22:05:50,23:40:21,NA,incomplete,false,true,NA,7,34,NA,gray,m_l_085.jpg,NA,NA,unpleasant,pleasant,NA,NA,NA,NA,NA,right,1552,true,NA,NA,NA,NA,NA
kSV1PDVj,3vck0q0pp8rxiiaq9ji6jar3xntn0d,3xlbsaq9z8p742mno8jbiw4rh4x7zb,kSV1PDVj,2020-0188,2021-10-17,22:05:50,23:40:21,NA,incomplete,false,true,NA,7,35,NA,gray,n_l_069.jpg,NA,NA,unpleasant,pleasant,NA,NA,NA,NA,NA,left,1918,true,NA,NA,NA,NA,NA
kSV1PDVj,3vck0q0pp8rxiiaq9ji6jar3xntn0d,3xlbsaq9z8p742mno8jbiw4rh4x7zb,kSV1PDVj,2020-0188,2021-10-17,22:05:50,23:40:21,NA,incomplete,false,NA,true,7,0,NA,NA,NA,left,present,NA,NA,m_l_046.jpg,white,n_l_046.jpg,red,between,NA,NaN,NA,right,5511,0,2,2815
kSV1PDVj,3vck0q0pp8rxiiaq9ji6jar3xntn0d,3xlbsaq9z8p742mno8jbiw4rh4x7zb,kSV1PDVj,2020-0188,2021-10-17,22:05:50,23:40:21,NA,incomplete,false,NA,true,7,1,NA,NA,NA,left,present,NA,NA,n_s_115.jpg,blue,m_s_099.jpg,blue,within,NA,NaN,NA,left,2991,1,0,1615
kSV1PDVj,3vck0q0pp8rxiiaq9ji6jar3xntn0d,3xlbsaq9z8p742mno8jbiw4rh4x7zb,kSV1PDVj,2020-0188,2021-10-17,22:05:50,23:40:21,NA,incomplete,false,NA,true,7,2,NA,NA,NA,left,present,NA,NA,m_s_073.jpg,purple,n_l_009.jpg,gray,between,NA,NaN,NA,right,6321,0,1,2256
kSV1PDVj,3vck0q0pp8rxiiaq9ji6jar3xntn0d,3xlbsaq9z8p742mno8jbiw4rh4x7zb,kSV1PDVj,2020-0188,2021-10-17,22:05:50,23:40:21,NA,incomplete,false,NA,true,7,3,NA,NA,NA,right,present,NA,NA,m_s_069.jpg,white,m_l_093.jpg,blue,between,NA,NaN,NA,right,7327,1,1,2166
kSV1PDVj,3vck0q0pp8rxiiaq9ji6jar3xntn0d,3xlbsaq9z8p742mno8jbiw4rh4x7zb,kSV1PDVj,2020-0188,2021-10-17,22:05:50,23:40:21,NA,incomplete,false,NA,true,7,4,NA,NA,NA,right,present,NA,NA,m_s_010.jpg,purple,m_s_017.jpg,purple,within,NA,NaN,NA,right,5359,1,0,1295
kSV1PDVj,3vck0q0pp8rxiiaq9ji6jar3xntn0d,3xlbsaq9z8p742mno8jbiw4rh4x7zb,kSV1PDVj,2020-0188,2021-10-17,22:05:50,23:40:21,NA,incomplete,false,NA,true,7,5,NA,NA,NA,right,present,NA,NA,n_l_057.jpg,black,m_l_065.jpg,red,between,NA,NaN,NA,right,9631,1,2,1064
kSV1PDVj,3vck0q0pp8rxiiaq9ji6jar3xntn0d,3xlbsaq9z8p742mno8jbiw4rh4x7zb,kSV1PDVj,2020-0188,2021-10-17,22:05:50,23:40:21,NA,incomplete,false,NA,true,7,6,NA,NA,NA,right,present,NA,NA,m_s_083.jpg,black,n_s_111.jpg,black,within,NA,NaN,NA,left,6111,0,2,1207
kSV1PDVj,3vck0q0pp8rxiiaq9ji6jar3xntn0d,3xlbsaq9z8p742mno8jbiw4rh4x7zb,kSV1PDVj,2020-0188,2021-10-17,22:05:50,23:40:21,NA,incomplete,false,NA,true,7,7,NA,NA,NA,right,present,NA,NA,n_l_069.jpg,gray,m_s_036.jpg,gray,within,NA,NaN,NA,right,4311,1,1,2583
kSV1PDVj,3vck0q0pp8rxiiaq9ji6jar3xntn0d,3xlbsaq9z8p742mno8jbiw4rh4x7zb,kSV1PDVj,2020-0188,2021-10-17,22:05:50,23:40:21,NA,incomplete,false,NA,true,7,8,NA,NA,NA,left,present,NA,NA,m_s_019.jpg,black,m_l_001.jpg,purple,between,NA,NaN,NA,left,9023,1,2,1008
kSV1PDVj,3vck0q0pp8rxiiaq9ji6jar3xntn0d,3xlbsaq9z8p742mno8jbiw4rh4x7zb,kSV1PDVj,2020-0188,2021-10-17,22:05:50,23:40:21,NA,incomplete,false,NA,true,7,9,NA,NA,NA,right,present,NA,NA,m_l_047.jpg,red,n_l_073.jpg,red,within,NA,NaN,NA,right,5375,1,0,1455
kSV1PDVj,3vck0q0pp8rxiiaq9ji6jar3xntn0d,3xlbsaq9z8p742mno8jbiw4rh4x7zb,kSV1PDVj,2020-0188,2021-10-17,22:05:50,23:40:21,NA,incomplete,false,NA,true,7,10,NA,NA,NA,right,present,NA,NA,m_l_036.jpg,white,m_l_092.jpg,white,within,NA,NaN,NA,right,4023,1,0,1431
kSV1PDVj,3vck0q0pp8rxiiaq9ji6jar3xntn0d,3xlbsaq9z8p742mno8jbiw4rh4x7zb,kSV1PDVj,2020-0188,2021-10-17,22:05:50,23:40:21,NA,incomplete,false,true,NA,8,0,NA,white,n_l_116.jpg,NA,NA,unpleasant,pleasant,NA,NA,NA,NA,NA,right,1639,true,NA,NA,NA,NA,NA
kSV1PDVj,3vck0q0pp8rxiiaq9ji6jar3xntn0d,3xlbsaq9z8p742mno8jbiw4rh4x7zb,kSV1PDVj,2020-0188,2021-10-17,22:05:50,23:40:21,NA,incomplete,false,true,NA,8,1,NA,white,n_s_033.jpg,NA,NA,unpleasant,pleasant,NA,NA,NA,NA,NA,right,1067,true,NA,NA,NA,NA,NA
kSV1PDVj,3vck0q0pp8rxiiaq9ji6jar3xntn0d,3xlbsaq9z8p742mno8jbiw4rh4x7zb,kSV1PDVj,2020-0188,2021-10-17,22:05:50,23:40:21,NA,incomplete,false,true,NA,8,2,NA,white,n_s_043.jpg,NA,NA,pleasant,unpleasant,NA,NA,NA,NA,NA,left,1576,true,NA,NA,NA,NA,NA
kSV1PDVj,3vck0q0pp8rxiiaq9ji6jar3xntn0d,3xlbsaq9z8p742mno8jbiw4rh4x7zb,kSV1PDVj,2020-0188,2021-10-17,22:05:50,23:40:21,NA,incomplete,false,true,NA,8,3,NA,white,m_l_073.jpg,NA,NA,unpleasant,pleasant,NA,NA,NA,NA,NA,right,2168,true,NA,NA,NA,NA,NA
kSV1PDVj,3vck0q0pp8rxiiaq9ji6jar3xntn0d,3xlbsaq9z8p742mno8jbiw4rh4x7zb,kSV1PDVj,2020-0188,2021-10-17,22:05:50,23:40:21,NA,incomplete,false,true,NA,8,4,NA,white,n_s_015.jpg,NA,NA,unpleasant,pleasant,NA,NA,NA,NA,NA,left,2565,true,NA,NA,NA,NA,NA
kSV1PDVj,3vck0q0pp8rxiiaq9ji6jar3xntn0d,3xlbsaq9z8p742mno8jbiw4rh4x7zb,kSV1PDVj,2020-0188,2021-10-17,22:05:50,23:40:21,NA,incomplete,false,true,NA,8,5,NA,white,n_s_116.jpg,NA,NA,unpleasant,pleasant,NA,NA,NA,NA,NA,left,1395,true,NA,NA,NA,NA,NA
kSV1PDVj,3vck0q0pp8rxiiaq9ji6jar3xntn0d,3xlbsaq9z8p742mno8jbiw4rh4x7zb,kSV1PDVj,2020-0188,2021-10-17,22:05:50,23:40:21,NA,incomplete,false,true,NA,8,6,NA,gray,m_s_100.jpg,NA,NA,unpleasant,pleasant,NA,NA,NA,NA,NA,right,1609,true,NA,NA,NA,NA,NA
kSV1PDVj,3vck0q0pp8rxiiaq9ji6jar3xntn0d,3xlbsaq9z8p742mno8jbiw4rh4x7zb,kSV1PDVj,2020-0188,2021-10-17,22:05:50,23:40:21,NA,incomplete,false,true,NA,8,7,NA,gray,n_l_023.jpg,NA,NA,unpleasant,pleasant,NA,NA,NA,NA,NA,right,1160,true,NA,NA,NA,NA,NA
kSV1PDVj,3vck0q0pp8rxiiaq9ji6jar3xntn0d,3xlbsaq9z8p742mno8jbiw4rh4x7zb,kSV1PDVj,2020-0188,2021-10-17,22:05:50,23:40:21,NA,incomplete,false,true,NA,8,8,NA,gray,n_l_063.jpg,NA,NA,pleasant,unpleasant,NA,NA,NA,NA,NA,right,1557,true,NA,NA,NA,NA,NA
kSV1PDVj,3vck0q0pp8rxiiaq9ji6jar3xntn0d,3xlbsaq9z8p742mno8jbiw4rh4x7zb,kSV1PDVj,2020-0188,2021-10-17,22:05:50,23:40:21,NA,incomplete,false,true,NA,8,9,NA,gray,m_l_006.jpg,NA,NA,unpleasant,pleasant,NA,NA,NA,NA,NA,right,1402,true,NA,NA,NA,NA,NA
kSV1PDVj,3vck0q0pp8rxiiaq9ji6jar3xntn0d,3xlbsaq9z8p742mno8jbiw4rh4x7zb,kSV1PDVj,2020-0188,2021-10-17,22:05:50,23:40:21,NA,incomplete,false,true,NA,8,10,NA,gray,n_l_098.jpg,NA,NA,pleasant,unpleasant,NA,NA,NA,NA,NA,left,1288,true,NA,NA,NA,NA,NA
kSV1PDVj,3vck0q0pp8rxiiaq9ji6jar3xntn0d,3xlbsaq9z8p742mno8jbiw4rh4x7zb,kSV1PDVj,2020-0188,2021-10-17,22:05:50,23:40:21,NA,incomplete,false,true,NA,8,11,NA,gray,m_l_098.jpg,NA,NA,unpleasant,pleasant,NA,NA,NA,NA,NA,right,1557,true,NA,NA,NA,NA,NA
kSV1PDVj,3vck0q0pp8rxiiaq9ji6jar3xntn0d,3xlbsaq9z8p742mno8jbiw4rh4x7zb,kSV1PDVj,2020-0188,2021-10-17,22:05:50,23:40:21,NA,incomplete,false,true,NA,8,12,NA,brown,m_s_070.jpg,NA,NA,unpleasant,pleasant,NA,NA,NA,NA,NA,right,1819,true,NA,NA,NA,NA,NA
kSV1PDVj,3vck0q0pp8rxiiaq9ji6jar3xntn0d,3xlbsaq9z8p742mno8jbiw4rh4x7zb,kSV1PDVj,2020-0188,2021-10-17,22:05:50,23:40:21,NA,incomplete,false,true,NA,8,13,NA,brown,n_l_108.jpg,NA,NA,pleasant,unpleasant,NA,NA,NA,NA,NA,right,1904,true,NA,NA,NA,NA,NA
kSV1PDVj,3vck0q0pp8rxiiaq9ji6jar3xntn0d,3xlbsaq9z8p742mno8jbiw4rh4x7zb,kSV1PDVj,2020-0188,2021-10-17,22:05:50,23:40:21,NA,incomplete,false,true,NA,8,14,NA,brown,n_s_013.jpg,NA,NA,unpleasant,pleasant,NA,NA,NA,NA,NA,right,1486,true,NA,NA,NA,NA,NA
kSV1PDVj,3vck0q0pp8rxiiaq9ji6jar3xntn0d,3xlbsaq9z8p742mno8jbiw4rh4x7zb,kSV1PDVj,2020-0188,2021-10-17,22:05:50,23:40:21,NA,incomplete,false,true,NA,8,15,NA,brown,n_s_102.jpg,NA,NA,pleasant,unpleasant,NA,NA,NA,NA,NA,left,1331,true,NA,NA,NA,NA,NA
kSV1PDVj,3vck0q0pp8rxiiaq9ji6jar3xntn0d,3xlbsaq9z8p742mno8jbiw4rh4x7zb,kSV1PDVj,2020-0188,2021-10-17,22:05:50,23:40:21,NA,incomplete,false,true,NA,8,16,NA,brown,m_l_087.jpg,NA,NA,unpleasant,pleasant,NA,NA,NA,NA,NA,right,1250,true,NA,NA,NA,NA,NA
kSV1PDVj,3vck0q0pp8rxiiaq9ji6jar3xntn0d,3xlbsaq9z8p742mno8jbiw4rh4x7zb,kSV1PDVj,2020-0188,2021-10-17,22:05:50,23:40:21,NA,incomplete,false,true,NA,8,17,NA,brown,m_s_024.jpg,NA,NA,pleasant,unpleasant,NA,NA,NA,NA,NA,left,1272,true,NA,NA,NA,NA,NA
kSV1PDVj,3vck0q0pp8rxiiaq9ji6jar3xntn0d,3xlbsaq9z8p742mno8jbiw4rh4x7zb,kSV1PDVj,2020-0188,2021-10-17,22:05:50,23:40:21,NA,incomplete,false,true,NA,8,18,NA,green,n_s_026.jpg,NA,NA,pleasant,unpleasant,NA,NA,NA,NA,NA,right,1172,true,NA,NA,NA,NA,NA
kSV1PDVj,3vck0q0pp8rxiiaq9ji6jar3xntn0d,3xlbsaq9z8p742mno8jbiw4rh4x7zb,kSV1PDVj,2020-0188,2021-10-17,22:05:50,23:40:21,NA,incomplete,false,true,NA,8,19,NA,green,m_s_112.jpg,NA,NA,pleasant,unpleasant,NA,NA,NA,NA,NA,left,1227,true,NA,NA,NA,NA,NA
kSV1PDVj,3vck0q0pp8rxiiaq9ji6jar3xntn0d,3xlbsaq9z8p742mno8jbiw4rh4x7zb,kSV1PDVj,2020-0188,2021-10-17,22:05:50,23:40:21,NA,incomplete,false,true,NA,8,20,NA,green,m_l_101.jpg,NA,NA,pleasant,unpleasant,NA,NA,NA,NA,NA,left,1081,true,NA,NA,NA,NA,NA
kSV1PDVj,3vck0q0pp8rxiiaq9ji6jar3xntn0d,3xlbsaq9z8p742mno8jbiw4rh4x7zb,kSV1PDVj,2020-0188,2021-10-17,22:05:50,23:40:21,NA,incomplete,false,true,NA,8,21,NA,green,m_s_004.jpg,NA,NA,unpleasant,pleasant,NA,NA,NA,NA,NA,right,1382,true,NA,NA,NA,NA,NA
kSV1PDVj,3vck0q0pp8rxiiaq9ji6jar3xntn0d,3xlbsaq9z8p742mno8jbiw4rh4x7zb,kSV1PDVj,2020-0188,2021-10-17,22:05:50,23:40:21,NA,incomplete,false,true,NA,8,22,NA,green,n_s_005.jpg,NA,NA,unpleasant,pleasant,NA,NA,NA,NA,NA,right,2237,true,NA,NA,NA,NA,NA
kSV1PDVj,3vck0q0pp8rxiiaq9ji6jar3xntn0d,3xlbsaq9z8p742mno8jbiw4rh4x7zb,kSV1PDVj,2020-0188,2021-10-17,22:05:50,23:40:21,NA,incomplete,false,true,NA,8,23,NA,green,n_s_049.jpg,NA,NA,pleasant,unpleasant,NA,NA,NA,NA,NA,right,1338,true,NA,NA,NA,NA,NA
kSV1PDVj,3vck0q0pp8rxiiaq9ji6jar3xntn0d,3xlbsaq9z8p742mno8jbiw4rh4x7zb,kSV1PDVj,2020-0188,2021-10-17,22:05:50,23:40:21,NA,incomplete,false,true,NA,8,24,NA,orange,m_l_012.jpg,NA,NA,unpleasant,pleasant,NA,NA,NA,NA,NA,right,1992,true,NA,NA,NA,NA,NA
kSV1PDVj,3vck0q0pp8rxiiaq9ji6jar3xntn0d,3xlbsaq9z8p742mno8jbiw4rh4x7zb,kSV1PDVj,2020-0188,2021-10-17,22:05:50,23:40:21,NA,incomplete,false,true,NA,8,25,NA,orange,n_l_041.jpg,NA,NA,unpleasant,pleasant,NA,NA,NA,NA,NA,left,1205,true,NA,NA,NA,NA,NA
kSV1PDVj,3vck0q0pp8rxiiaq9ji6jar3xntn0d,3xlbsaq9z8p742mno8jbiw4rh4x7zb,kSV1PDVj,2020-0188,2021-10-17,22:05:50,23:40:21,NA,incomplete,false,true,NA,8,26,NA,orange,n_s_056.jpg,NA,NA,pleasant,unpleasant,NA,NA,NA,NA,NA,left,1260,true,NA,NA,NA,NA,NA
kSV1PDVj,3vck0q0pp8rxiiaq9ji6jar3xntn0d,3xlbsaq9z8p742mno8jbiw4rh4x7zb,kSV1PDVj,2020-0188,2021-10-17,22:05:50,23:40:21,NA,incomplete,false,true,NA,8,27,NA,orange,m_l_026.jpg,NA,NA,unpleasant,pleasant,NA,NA,NA,NA,NA,right,1113,true,NA,NA,NA,NA,NA
kSV1PDVj,3vck0q0pp8rxiiaq9ji6jar3xntn0d,3xlbsaq9z8p742mno8jbiw4rh4x7zb,kSV1PDVj,2020-0188,2021-10-17,22:05:50,23:40:21,NA,incomplete,false,true,NA,8,28,NA,orange,m_l_091.jpg,NA,NA,unpleasant,pleasant,NA,NA,NA,NA,NA,right,1367,true,NA,NA,NA,NA,NA
