workerId,hitId,assignmentId,subject,studyid,exp_date,exp_start,exp_end,time_start,time_end,practice,encoding,memory,block,trial,event_order,event,stim,answer,context_type,label_left,label_right,left_image,left_event,right_image,right_event,condition,response,response_time,response_acc,order_response,order_response_time,order_acc,distance_response,distance_response_time
kvd9O6Cr,3r0wocg22pm4csvtiwincc3gz22duj,3x65qveqi40tbu0f0o0dq3l73t7lc0,kvd9O6Cr,2020-0188,2021-10-14,09:57:29,11:35:44,NA,incomplete,true,true,NA,0,0,NA,brown,n_l_034.jpg,NA,NA,pleasant,unpleasant,NA,NA,NA,NA,NA,right,1114,true,NA,NA,NA,NA,NA
kvd9O6Cr,3r0wocg22pm4csvtiwincc3gz22duj,3x65qveqi40tbu0f0o0dq3l73t7lc0,kvd9O6Cr,2020-0188,2021-10-14,09:57:29,11:35:44,NA,incomplete,true,true,NA,0,1,NA,brown,m_l_105.jpg,NA,NA,pleasant,unpleasant,NA,NA,NA,NA,NA,left,1792,true,NA,NA,NA,NA,NA
kvd9O6Cr,3r0wocg22pm4csvtiwincc3gz22duj,3x65qveqi40tbu0f0o0dq3l73t7lc0,kvd9O6Cr,2020-0188,2021-10-14,09:57:29,11:35:44,NA,incomplete,true,true,NA,0,2,NA,brown,n_l_040.jpg,NA,NA,pleasant,unpleasant,NA,NA,NA,NA,NA,left,1224,true,NA,NA,NA,NA,NA
kvd9O6Cr,3r0wocg22pm4csvtiwincc3gz22duj,3x65qveqi40tbu0f0o0dq3l73t7lc0,kvd9O6Cr,2020-0188,2021-10-14,09:57:29,11:35:44,NA,incomplete,true,true,NA,0,3,NA,brown,m_s_030.jpg,NA,NA,pleasant,unpleasant,NA,NA,NA,NA,NA,left,995,true,NA,NA,NA,NA,NA
kvd9O6Cr,3r0wocg22pm4csvtiwincc3gz22duj,3x65qveqi40tbu0f0o0dq3l73t7lc0,kvd9O6Cr,2020-0188,2021-10-14,09:57:29,11:35:44,NA,incomplete,true,true,NA,0,4,NA,brown,n_l_063.jpg,NA,NA,pleasant,unpleasant,NA,NA,NA,NA,NA,left,1444,true,NA,NA,NA,NA,NA
kvd9O6Cr,3r0wocg22pm4csvtiwincc3gz22duj,3x65qveqi40tbu0f0o0dq3l73t7lc0,kvd9O6Cr,2020-0188,2021-10-14,09:57:29,11:35:44,NA,incomplete,true,true,NA,0,5,NA,brown,n_s_080.jpg,NA,NA,pleasant,unpleasant,NA,NA,NA,NA,NA,right,968,true,NA,NA,NA,NA,NA
kvd9O6Cr,3r0wocg22pm4csvtiwincc3gz22duj,3x65qveqi40tbu0f0o0dq3l73t7lc0,kvd9O6Cr,2020-0188,2021-10-14,09:57:29,11:35:44,NA,incomplete,true,true,NA,0,6,NA,yellow,m_s_074.jpg,NA,NA,pleasant,unpleasant,NA,NA,NA,NA,NA,left,838,true,NA,NA,NA,NA,NA
kvd9O6Cr,3r0wocg22pm4csvtiwincc3gz22duj,3x65qveqi40tbu0f0o0dq3l73t7lc0,kvd9O6Cr,2020-0188,2021-10-14,09:57:29,11:35:44,NA,incomplete,true,true,NA,0,7,NA,yellow,m_s_067.jpg,NA,NA,unpleasant,pleasant,NA,NA,NA,NA,NA,left,1489,true,NA,NA,NA,NA,NA
kvd9O6Cr,3r0wocg22pm4csvtiwincc3gz22duj,3x65qveqi40tbu0f0o0dq3l73t7lc0,kvd9O6Cr,2020-0188,2021-10-14,09:57:29,11:35:44,NA,incomplete,true,true,NA,0,8,NA,yellow,m_l_033.jpg,NA,NA,pleasant,unpleasant,NA,NA,NA,NA,NA,left,1781,true,NA,NA,NA,NA,NA
kvd9O6Cr,3r0wocg22pm4csvtiwincc3gz22duj,3x65qveqi40tbu0f0o0dq3l73t7lc0,kvd9O6Cr,2020-0188,2021-10-14,09:57:29,11:35:44,NA,incomplete,true,true,NA,0,9,NA,yellow,m_s_040.jpg,NA,NA,unpleasant,pleasant,NA,NA,NA,NA,NA,right,1524,true,NA,NA,NA,NA,NA
kvd9O6Cr,3r0wocg22pm4csvtiwincc3gz22duj,3x65qveqi40tbu0f0o0dq3l73t7lc0,kvd9O6Cr,2020-0188,2021-10-14,09:57:29,11:35:44,NA,incomplete,true,true,NA,0,10,NA,yellow,n_s_032.jpg,NA,NA,pleasant,unpleasant,NA,NA,NA,NA,NA,left,1064,true,NA,NA,NA,NA,NA
kvd9O6Cr,3r0wocg22pm4csvtiwincc3gz22duj,3x65qveqi40tbu0f0o0dq3l73t7lc0,kvd9O6Cr,2020-0188,2021-10-14,09:57:29,11:35:44,NA,incomplete,true,true,NA,0,11,NA,yellow,n_l_050.jpg,NA,NA,unpleasant,pleasant,NA,NA,NA,NA,NA,right,1207,true,NA,NA,NA,NA,NA
kvd9O6Cr,3r0wocg22pm4csvtiwincc3gz22duj,3x65qveqi40tbu0f0o0dq3l73t7lc0,kvd9O6Cr,2020-0188,2021-10-14,09:57:29,11:35:44,NA,incomplete,true,true,NA,0,12,NA,gray,n_s_109.jpg,NA,NA,unpleasant,pleasant,NA,NA,NA,NA,NA,right,1963,true,NA,NA,NA,NA,NA
kvd9O6Cr,3r0wocg22pm4csvtiwincc3gz22duj,3x65qveqi40tbu0f0o0dq3l73t7lc0,kvd9O6Cr,2020-0188,2021-10-14,09:57:29,11:35:44,NA,incomplete,true,true,NA,0,13,NA,gray,n_s_051.jpg,NA,NA,unpleasant,pleasant,NA,NA,NA,NA,NA,right,1179,true,NA,NA,NA,NA,NA
kvd9O6Cr,3r0wocg22pm4csvtiwincc3gz22duj,3x65qveqi40tbu0f0o0dq3l73t7lc0,kvd9O6Cr,2020-0188,2021-10-14,09:57:29,11:35:44,NA,incomplete,true,true,NA,0,14,NA,gray,n_s_077.jpg,NA,NA,unpleasant,pleasant,NA,NA,NA,NA,NA,right,953,true,NA,NA,NA,NA,NA
kvd9O6Cr,3r0wocg22pm4csvtiwincc3gz22duj,3x65qveqi40tbu0f0o0dq3l73t7lc0,kvd9O6Cr,2020-0188,2021-10-14,09:57:29,11:35:44,NA,incomplete,true,true,NA,0,15,NA,gray,n_s_008.jpg,NA,NA,pleasant,unpleasant,NA,NA,NA,NA,NA,right,1324,true,NA,NA,NA,NA,NA
kvd9O6Cr,3r0wocg22pm4csvtiwincc3gz22duj,3x65qveqi40tbu0f0o0dq3l73t7lc0,kvd9O6Cr,2020-0188,2021-10-14,09:57:29,11:35:44,NA,incomplete,true,true,NA,0,16,NA,gray,n_s_092.jpg,NA,NA,pleasant,unpleasant,NA,NA,NA,NA,NA,left,1305,true,NA,NA,NA,NA,NA
kvd9O6Cr,3r0wocg22pm4csvtiwincc3gz22duj,3x65qveqi40tbu0f0o0dq3l73t7lc0,kvd9O6Cr,2020-0188,2021-10-14,09:57:29,11:35:44,NA,incomplete,true,true,NA,0,17,NA,gray,m_s_091.jpg,NA,NA,unpleasant,pleasant,NA,NA,NA,NA,NA,right,1347,true,NA,NA,NA,NA,NA
kvd9O6Cr,3r0wocg22pm4csvtiwincc3gz22duj,3x65qveqi40tbu0f0o0dq3l73t7lc0,kvd9O6Cr,2020-0188,2021-10-14,09:57:29,11:35:44,NA,incomplete,true,true,NA,0,18,NA,orange,m_l_098.jpg,NA,NA,pleasant,unpleasant,NA,NA,NA,NA,NA,left,2203,true,NA,NA,NA,NA,NA
kvd9O6Cr,3r0wocg22pm4csvtiwincc3gz22duj,3x65qveqi40tbu0f0o0dq3l73t7lc0,kvd9O6Cr,2020-0188,2021-10-14,09:57:29,11:35:44,NA,incomplete,true,true,NA,0,19,NA,orange,n_s_004.jpg,NA,NA,unpleasant,pleasant,NA,NA,NA,NA,NA,left,1982,true,NA,NA,NA,NA,NA
kvd9O6Cr,3r0wocg22pm4csvtiwincc3gz22duj,3x65qveqi40tbu0f0o0dq3l73t7lc0,kvd9O6Cr,2020-0188,2021-10-14,09:57:29,11:35:44,NA,incomplete,true,true,NA,0,20,NA,orange,n_l_031.jpg,NA,NA,unpleasant,pleasant,NA,NA,NA,NA,NA,right,994,true,NA,NA,NA,NA,NA
kvd9O6Cr,3r0wocg22pm4csvtiwincc3gz22duj,3x65qveqi40tbu0f0o0dq3l73t7lc0,kvd9O6Cr,2020-0188,2021-10-14,09:57:29,11:35:44,NA,incomplete,true,true,NA,0,21,NA,orange,n_s_006.jpg,NA,NA,pleasant,unpleasant,NA,NA,NA,NA,NA,left,1027,true,NA,NA,NA,NA,NA
kvd9O6Cr,3r0wocg22pm4csvtiwincc3gz22duj,3x65qveqi40tbu0f0o0dq3l73t7lc0,kvd9O6Cr,2020-0188,2021-10-14,09:57:29,11:35:44,NA,incomplete,true,true,NA,0,22,NA,orange,m_s_037.jpg,NA,NA,unpleasant,pleasant,NA,NA,NA,NA,NA,right,1513,true,NA,NA,NA,NA,NA
kvd9O6Cr,3r0wocg22pm4csvtiwincc3gz22duj,3x65qveqi40tbu0f0o0dq3l73t7lc0,kvd9O6Cr,2020-0188,2021-10-14,09:57:29,11:35:44,NA,incomplete,true,true,NA,0,23,NA,orange,n_s_115.jpg,NA,NA,unpleasant,pleasant,NA,NA,NA,NA,NA,right,1183,true,NA,NA,NA,NA,NA
kvd9O6Cr,3r0wocg22pm4csvtiwincc3gz22duj,3x65qveqi40tbu0f0o0dq3l73t7lc0,kvd9O6Cr,2020-0188,2021-10-14,09:57:29,11:35:44,NA,incomplete,true,true,NA,0,24,NA,red,n_l_048.jpg,NA,NA,unpleasant,pleasant,NA,NA,NA,NA,NA,right,2066,true,NA,NA,NA,NA,NA
kvd9O6Cr,3r0wocg22pm4csvtiwincc3gz22duj,3x65qveqi40tbu0f0o0dq3l73t7lc0,kvd9O6Cr,2020-0188,2021-10-14,09:57:29,11:35:44,NA,incomplete,true,true,NA,0,25,NA,red,m_l_083.jpg,NA,NA,unpleasant,pleasant,NA,NA,NA,NA,NA,right,1784,true,NA,NA,NA,NA,NA
kvd9O6Cr,3r0wocg22pm4csvtiwincc3gz22duj,3x65qveqi40tbu0f0o0dq3l73t7lc0,kvd9O6Cr,2020-0188,2021-10-14,09:57:29,11:35:44,NA,incomplete,true,true,NA,0,26,NA,red,m_l_067.jpg,NA,NA,pleasant,unpleasant,NA,NA,NA,NA,NA,left,1481,true,NA,NA,NA,NA,NA
kvd9O6Cr,3r0wocg22pm4csvtiwincc3gz22duj,3x65qveqi40tbu0f0o0dq3l73t7lc0,kvd9O6Cr,2020-0188,2021-10-14,09:57:29,11:35:44,NA,incomplete,true,true,NA,0,27,NA,red,n_s_028.jpg,NA,NA,pleasant,unpleasant,NA,NA,NA,NA,NA,left,1277,true,NA,NA,NA,NA,NA
kvd9O6Cr,3r0wocg22pm4csvtiwincc3gz22duj,3x65qveqi40tbu0f0o0dq3l73t7lc0,kvd9O6Cr,2020-0188,2021-10-14,09:57:29,11:35:44,NA,incomplete,true,true,NA,0,28,NA,red,m_l_072.jpg,NA,NA,unpleasant,pleasant,NA,NA,NA,NA,NA,left,780,true,NA,NA,NA,NA,NA
kvd9O6Cr,3r0wocg22pm4csvtiwincc3gz22duj,3x65qveqi40tbu0f0o0dq3l73t7lc0,kvd9O6Cr,2020-0188,2021-10-14,09:57:29,11:35:44,NA,incomplete,true,true,NA,0,29,NA,red,m_s_007.jpg,NA,NA,unpleasant,pleasant,NA,NA,NA,NA,NA,right,2079,true,NA,NA,NA,NA,NA
kvd9O6Cr,3r0wocg22pm4csvtiwincc3gz22duj,3x65qveqi40tbu0f0o0dq3l73t7lc0,kvd9O6Cr,2020-0188,2021-10-14,09:57:29,11:35:44,NA,incomplete,true,true,NA,0,30,NA,purple,m_s_084.jpg,NA,NA,unpleasant,pleasant,NA,NA,NA,NA,NA,right,2038,true,NA,NA,NA,NA,NA
kvd9O6Cr,3r0wocg22pm4csvtiwincc3gz22duj,3x65qveqi40tbu0f0o0dq3l73t7lc0,kvd9O6Cr,2020-0188,2021-10-14,09:57:29,11:35:44,NA,incomplete,true,true,NA,0,31,NA,purple,n_l_068.jpg,NA,NA,unpleasant,pleasant,NA,NA,NA,NA,NA,right,1514,true,NA,NA,NA,NA,NA
kvd9O6Cr,3r0wocg22pm4csvtiwincc3gz22duj,3x65qveqi40tbu0f0o0dq3l73t7lc0,kvd9O6Cr,2020-0188,2021-10-14,09:57:29,11:35:44,NA,incomplete,true,true,NA,0,32,NA,purple,m_l_117.jpg,NA,NA,unpleasant,pleasant,NA,NA,NA,NA,NA,right,1477,true,NA,NA,NA,NA,NA
kvd9O6Cr,3r0wocg22pm4csvtiwincc3gz22duj,3x65qveqi40tbu0f0o0dq3l73t7lc0,kvd9O6Cr,2020-0188,2021-10-14,09:57:29,11:35:44,NA,incomplete,true,true,NA,0,33,NA,purple,m_l_086.jpg,NA,NA,unpleasant,pleasant,NA,NA,NA,NA,NA,right,889,true,NA,NA,NA,NA,NA
kvd9O6Cr,3r0wocg22pm4csvtiwincc3gz22duj,3x65qveqi40tbu0f0o0dq3l73t7lc0,kvd9O6Cr,2020-0188,2021-10-14,09:57:29,11:35:44,NA,incomplete,true,true,NA,0,34,NA,purple,m_l_041.jpg,NA,NA,unpleasant,pleasant,NA,NA,NA,NA,NA,right,1782,true,NA,NA,NA,NA,NA
kvd9O6Cr,3r0wocg22pm4csvtiwincc3gz22duj,3x65qveqi40tbu0f0o0dq3l73t7lc0,kvd9O6Cr,2020-0188,2021-10-14,09:57:29,11:35:44,NA,incomplete,true,true,NA,0,35,NA,purple,m_s_043.jpg,NA,NA,unpleasant,pleasant,NA,NA,NA,NA,NA,left,842,true,NA,NA,NA,NA,NA
kvd9O6Cr,3r0wocg22pm4csvtiwincc3gz22duj,3x65qveqi40tbu0f0o0dq3l73t7lc0,kvd9O6Cr,2020-0188,2021-10-14,09:57:29,11:35:44,NA,incomplete,true,NA,true,0,0,NA,NA,NA,right,present,NA,NA,m_s_091.jpg,gray,n_s_051.jpg,gray,within,NA,NaN,NA,left,4649,0,1,4038
kvd9O6Cr,3r0wocg22pm4csvtiwincc3gz22duj,3x65qveqi40tbu0f0o0dq3l73t7lc0,kvd9O6Cr,2020-0188,2021-10-14,09:57:29,11:35:44,NA,incomplete,true,NA,true,0,1,NA,NA,NA,right,absent,NA,NA,n_l_050.jpg,yellow,m_s_067.jpg,yellow,within,NA,NaN,NA,right,2875,1,2,1163
kvd9O6Cr,3r0wocg22pm4csvtiwincc3gz22duj,3x65qveqi40tbu0f0o0dq3l73t7lc0,kvd9O6Cr,2020-0188,2021-10-14,09:57:29,11:35:44,NA,incomplete,true,NA,true,0,2,NA,NA,NA,left,absent,NA,NA,n_l_068.jpg,purple,m_s_043.jpg,purple,within,NA,NaN,NA,left,2666,1,1,1264
kvd9O6Cr,3r0wocg22pm4csvtiwincc3gz22duj,3x65qveqi40tbu0f0o0dq3l73t7lc0,kvd9O6Cr,2020-0188,2021-10-14,09:57:29,11:35:44,NA,incomplete,true,NA,true,0,3,NA,NA,NA,left,present,NA,NA,m_l_072.jpg,red,m_l_117.jpg,purple,between,NA,NaN,NA,right,5625,0,2,1514
kvd9O6Cr,3r0wocg22pm4csvtiwincc3gz22duj,3x65qveqi40tbu0f0o0dq3l73t7lc0,kvd9O6Cr,2020-0188,2021-10-14,09:57:29,11:35:44,NA,incomplete,true,NA,true,0,4,NA,NA,NA,left,present,NA,NA,n_l_063.jpg,brown,m_l_033.jpg,yellow,between,NA,NaN,NA,right,6515,0,1,882
kvd9O6Cr,3r0wocg22pm4csvtiwincc3gz22duj,3x65qveqi40tbu0f0o0dq3l73t7lc0,kvd9O6Cr,2020-0188,2021-10-14,09:57:29,11:35:44,NA,incomplete,true,NA,true,0,5,NA,NA,NA,left,present,NA,NA,n_s_032.jpg,yellow,n_s_077.jpg,gray,between,NA,NaN,NA,left,4459,1,1,1208
kvd9O6Cr,3r0wocg22pm4csvtiwincc3gz22duj,3x65qveqi40tbu0f0o0dq3l73t7lc0,kvd9O6Cr,2020-0188,2021-10-14,09:57:29,11:35:44,NA,incomplete,true,NA,true,0,6,NA,NA,NA,left,present,NA,NA,n_s_004.jpg,orange,n_s_115.jpg,orange,within,NA,NaN,NA,left,5186,1,0,1055
kvd9O6Cr,3r0wocg22pm4csvtiwincc3gz22duj,3x65qveqi40tbu0f0o0dq3l73t7lc0,kvd9O6Cr,2020-0188,2021-10-14,09:57:29,11:35:44,NA,incomplete,true,NA,true,0,7,NA,NA,NA,right,present,NA,NA,m_s_007.jpg,red,m_l_083.jpg,red,within,NA,NaN,NA,right,3031,1,0,1047
kvd9O6Cr,3r0wocg22pm4csvtiwincc3gz22duj,3x65qveqi40tbu0f0o0dq3l73t7lc0,kvd9O6Cr,2020-0188,2021-10-14,09:57:29,11:35:44,NA,incomplete,true,NA,true,0,8,NA,NA,NA,left,absent,NA,NA,n_s_092.jpg,gray,n_l_031.jpg,orange,between,NA,NaN,NA,left,4634,1,1,1101
kvd9O6Cr,3r0wocg22pm4csvtiwincc3gz22duj,3x65qveqi40tbu0f0o0dq3l73t7lc0,kvd9O6Cr,2020-0188,2021-10-14,09:57:29,11:35:44,NA,incomplete,true,NA,true,0,9,NA,NA,NA,right,present,NA,NA,n_s_080.jpg,brown,m_l_105.jpg,brown,within,NA,NaN,NA,right,3217,1,0,1187
kvd9O6Cr,3r0wocg22pm4csvtiwincc3gz22duj,3x65qveqi40tbu0f0o0dq3l73t7lc0,kvd9O6Cr,2020-0188,2021-10-14,09:57:29,11:35:44,NA,incomplete,true,NA,true,0,10,NA,NA,NA,left,absent,NA,NA,m_s_037.jpg,orange,m_l_067.jpg,red,between,NA,NaN,NA,right,2593,0,1,1139
kvd9O6Cr,3r0wocg22pm4csvtiwincc3gz22duj,3x65qveqi40tbu0f0o0dq3l73t7lc0,kvd9O6Cr,2020-0188,2021-10-14,09:57:29,11:35:44,NA,incomplete,false,true,NA,1,0,NA,yellow,n_s_038.jpg,NA,NA,pleasant,unpleasant,NA,NA,NA,NA,NA,left,1830,true,NA,NA,NA,NA,NA
kvd9O6Cr,3r0wocg22pm4csvtiwincc3gz22duj,3x65qveqi40tbu0f0o0dq3l73t7lc0,kvd9O6Cr,2020-0188,2021-10-14,09:57:29,11:35:44,NA,incomplete,false,true,NA,1,1,NA,yellow,n_l_060.jpg,NA,NA,pleasant,unpleasant,NA,NA,NA,NA,NA,left,1476,true,NA,NA,NA,NA,NA
kvd9O6Cr,3r0wocg22pm4csvtiwincc3gz22duj,3x65qveqi40tbu0f0o0dq3l73t7lc0,kvd9O6Cr,2020-0188,2021-10-14,09:57:29,11:35:44,NA,incomplete,false,true,NA,1,2,NA,yellow,n_s_052.jpg,NA,NA,unpleasant,pleasant,NA,NA,NA,NA,NA,right,1596,true,NA,NA,NA,NA,NA
kvd9O6Cr,3r0wocg22pm4csvtiwincc3gz22duj,3x65qveqi40tbu0f0o0dq3l73t7lc0,kvd9O6Cr,2020-0188,2021-10-14,09:57:29,11:35:44,NA,incomplete,false,true,NA,1,3,NA,yellow,m_s_024.jpg,NA,NA,pleasant,unpleasant,NA,NA,NA,NA,NA,left,2242,true,NA,NA,NA,NA,NA
kvd9O6Cr,3r0wocg22pm4csvtiwincc3gz22duj,3x65qveqi40tbu0f0o0dq3l73t7lc0,kvd9O6Cr,2020-0188,2021-10-14,09:57:29,11:35:44,NA,incomplete,false,true,NA,1,4,NA,yellow,m_l_022.jpg,NA,NA,pleasant,unpleasant,NA,NA,NA,NA,NA,left,1161,true,NA,NA,NA,NA,NA
kvd9O6Cr,3r0wocg22pm4csvtiwincc3gz22duj,3x65qveqi40tbu0f0o0dq3l73t7lc0,kvd9O6Cr,2020-0188,2021-10-14,09:57:29,11:35:44,NA,incomplete,false,true,NA,1,5,NA,yellow,n_l_035.jpg,NA,NA,pleasant,unpleasant,NA,NA,NA,NA,NA,left,2081,true,NA,NA,NA,NA,NA
kvd9O6Cr,3r0wocg22pm4csvtiwincc3gz22duj,3x65qveqi40tbu0f0o0dq3l73t7lc0,kvd9O6Cr,2020-0188,2021-10-14,09:57:29,11:35:44,NA,incomplete,false,true,NA,1,6,NA,orange,n_l_106.jpg,NA,NA,pleasant,unpleasant,NA,NA,NA,NA,NA,left,1815,true,NA,NA,NA,NA,NA
kvd9O6Cr,3r0wocg22pm4csvtiwincc3gz22duj,3x65qveqi40tbu0f0o0dq3l73t7lc0,kvd9O6Cr,2020-0188,2021-10-14,09:57:29,11:35:44,NA,incomplete,false,true,NA,1,7,NA,orange,n_l_019.jpg,NA,NA,pleasant,unpleasant,NA,NA,NA,NA,NA,left,1095,true,NA,NA,NA,NA,NA
kvd9O6Cr,3r0wocg22pm4csvtiwincc3gz22duj,3x65qveqi40tbu0f0o0dq3l73t7lc0,kvd9O6Cr,2020-0188,2021-10-14,09:57:29,11:35:44,NA,incomplete,false,true,NA,1,8,NA,orange,n_l_010.jpg,NA,NA,unpleasant,pleasant,NA,NA,NA,NA,NA,right,1253,true,NA,NA,NA,NA,NA
kvd9O6Cr,3r0wocg22pm4csvtiwincc3gz22duj,3x65qveqi40tbu0f0o0dq3l73t7lc0,kvd9O6Cr,2020-0188,2021-10-14,09:57:29,11:35:44,NA,incomplete,false,true,NA,1,9,NA,orange,n_s_114.jpg,NA,NA,unpleasant,pleasant,NA,NA,NA,NA,NA,right,1808,true,NA,NA,NA,NA,NA
kvd9O6Cr,3r0wocg22pm4csvtiwincc3gz22duj,3x65qveqi40tbu0f0o0dq3l73t7lc0,kvd9O6Cr,2020-0188,2021-10-14,09:57:29,11:35:44,NA,incomplete,false,true,NA,1,10,NA,orange,n_l_012.jpg,NA,NA,unpleasant,pleasant,NA,NA,NA,NA,NA,right,884,true,NA,NA,NA,NA,NA
kvd9O6Cr,3r0wocg22pm4csvtiwincc3gz22duj,3x65qveqi40tbu0f0o0dq3l73t7lc0,kvd9O6Cr,2020-0188,2021-10-14,09:57:29,11:35:44,NA,incomplete,false,true,NA,1,11,NA,orange,m_s_029.jpg,NA,NA,pleasant,unpleasant,NA,NA,NA,NA,NA,left,2610,true,NA,NA,NA,NA,NA
kvd9O6Cr,3r0wocg22pm4csvtiwincc3gz22duj,3x65qveqi40tbu0f0o0dq3l73t7lc0,kvd9O6Cr,2020-0188,2021-10-14,09:57:29,11:35:44,NA,incomplete,false,true,NA,1,12,NA,red,m_s_016.jpg,NA,NA,pleasant,unpleasant,NA,NA,NA,NA,NA,left,1864,true,NA,NA,NA,NA,NA
kvd9O6Cr,3r0wocg22pm4csvtiwincc3gz22duj,3x65qveqi40tbu0f0o0dq3l73t7lc0,kvd9O6Cr,2020-0188,2021-10-14,09:57:29,11:35:44,NA,incomplete,false,true,NA,1,13,NA,red,n_s_045.jpg,NA,NA,unpleasant,pleasant,NA,NA,NA,NA,NA,right,1261,true,NA,NA,NA,NA,NA
kvd9O6Cr,3r0wocg22pm4csvtiwincc3gz22duj,3x65qveqi40tbu0f0o0dq3l73t7lc0,kvd9O6Cr,2020-0188,2021-10-14,09:57:29,11:35:44,NA,incomplete,false,true,NA,1,14,NA,red,m_s_068.jpg,NA,NA,unpleasant,pleasant,NA,NA,NA,NA,NA,right,1139,true,NA,NA,NA,NA,NA
kvd9O6Cr,3r0wocg22pm4csvtiwincc3gz22duj,3x65qveqi40tbu0f0o0dq3l73t7lc0,kvd9O6Cr,2020-0188,2021-10-14,09:57:29,11:35:44,NA,incomplete,false,true,NA,1,15,NA,red,n_l_108.jpg,NA,NA,unpleasant,pleasant,NA,NA,NA,NA,NA,right,1062,true,NA,NA,NA,NA,NA
kvd9O6Cr,3r0wocg22pm4csvtiwincc3gz22duj,3x65qveqi40tbu0f0o0dq3l73t7lc0,kvd9O6Cr,2020-0188,2021-10-14,09:57:29,11:35:44,NA,incomplete,false,true,NA,1,16,NA,red,m_l_032.jpg,NA,NA,unpleasant,pleasant,NA,NA,NA,NA,NA,right,857,true,NA,NA,NA,NA,NA
kvd9O6Cr,3r0wocg22pm4csvtiwincc3gz22duj,3x65qveqi40tbu0f0o0dq3l73t7lc0,kvd9O6Cr,2020-0188,2021-10-14,09:57:29,11:35:44,NA,incomplete,false,true,NA,1,17,NA,red,n_s_108.jpg,NA,NA,unpleasant,pleasant,NA,NA,NA,NA,NA,right,1213,true,NA,NA,NA,NA,NA
kvd9O6Cr,3r0wocg22pm4csvtiwincc3gz22duj,3x65qveqi40tbu0f0o0dq3l73t7lc0,kvd9O6Cr,2020-0188,2021-10-14,09:57:29,11:35:44,NA,incomplete,false,true,NA,1,18,NA,blue,m_l_045.jpg,NA,NA,unpleasant,pleasant,NA,NA,NA,NA,NA,right,1434,true,NA,NA,NA,NA,NA
kvd9O6Cr,3r0wocg22pm4csvtiwincc3gz22duj,3x65qveqi40tbu0f0o0dq3l73t7lc0,kvd9O6Cr,2020-0188,2021-10-14,09:57:29,11:35:44,NA,incomplete,false,true,NA,1,19,NA,blue,m_s_013.jpg,NA,NA,pleasant,unpleasant,NA,NA,NA,NA,NA,left,1589,true,NA,NA,NA,NA,NA
kvd9O6Cr,3r0wocg22pm4csvtiwincc3gz22duj,3x65qveqi40tbu0f0o0dq3l73t7lc0,kvd9O6Cr,2020-0188,2021-10-14,09:57:29,11:35:44,NA,incomplete,false,true,NA,1,20,NA,blue,n_s_097.jpg,NA,NA,unpleasant,pleasant,NA,NA,NA,NA,NA,right,1223,true,NA,NA,NA,NA,NA
kvd9O6Cr,3r0wocg22pm4csvtiwincc3gz22duj,3x65qveqi40tbu0f0o0dq3l73t7lc0,kvd9O6Cr,2020-0188,2021-10-14,09:57:29,11:35:44,NA,incomplete,false,true,NA,1,21,NA,blue,m_l_015.jpg,NA,NA,pleasant,unpleasant,NA,NA,NA,NA,NA,left,1635,true,NA,NA,NA,NA,NA
kvd9O6Cr,3r0wocg22pm4csvtiwincc3gz22duj,3x65qveqi40tbu0f0o0dq3l73t7lc0,kvd9O6Cr,2020-0188,2021-10-14,09:57:29,11:35:44,NA,incomplete,false,true,NA,1,22,NA,blue,m_l_090.jpg,NA,NA,pleasant,unpleasant,NA,NA,NA,NA,NA,left,1841,true,NA,NA,NA,NA,NA
kvd9O6Cr,3r0wocg22pm4csvtiwincc3gz22duj,3x65qveqi40tbu0f0o0dq3l73t7lc0,kvd9O6Cr,2020-0188,2021-10-14,09:57:29,11:35:44,NA,incomplete,false,true,NA,1,23,NA,blue,n_l_103.jpg,NA,NA,pleasant,unpleasant,NA,NA,NA,NA,NA,left,1484,true,NA,NA,NA,NA,NA
kvd9O6Cr,3r0wocg22pm4csvtiwincc3gz22duj,3x65qveqi40tbu0f0o0dq3l73t7lc0,kvd9O6Cr,2020-0188,2021-10-14,09:57:29,11:35:44,NA,incomplete,false,true,NA,1,24,NA,brown,n_l_026.jpg,NA,NA,unpleasant,pleasant,NA,NA,NA,NA,NA,right,2481,true,NA,NA,NA,NA,NA
kvd9O6Cr,3r0wocg22pm4csvtiwincc3gz22duj,3x65qveqi40tbu0f0o0dq3l73t7lc0,kvd9O6Cr,2020-0188,2021-10-14,09:57:29,11:35:44,NA,incomplete,false,true,NA,1,25,NA,brown,n_s_091.jpg,NA,NA,unpleasant,pleasant,NA,NA,NA,NA,NA,left,2616,true,NA,NA,NA,NA,NA
kvd9O6Cr,3r0wocg22pm4csvtiwincc3gz22duj,3x65qveqi40tbu0f0o0dq3l73t7lc0,kvd9O6Cr,2020-0188,2021-10-14,09:57:29,11:35:44,NA,incomplete,false,true,NA,1,26,NA,brown,m_s_020.jpg,NA,NA,pleasant,unpleasant,NA,NA,NA,NA,NA,left,1587,true,NA,NA,NA,NA,NA
kvd9O6Cr,3r0wocg22pm4csvtiwincc3gz22duj,3x65qveqi40tbu0f0o0dq3l73t7lc0,kvd9O6Cr,2020-0188,2021-10-14,09:57:29,11:35:44,NA,incomplete,false,true,NA,1,27,NA,brown,n_s_079.jpg,NA,NA,unpleasant,pleasant,NA,NA,NA,NA,NA,right,2335,true,NA,NA,NA,NA,NA
kvd9O6Cr,3r0wocg22pm4csvtiwincc3gz22duj,3x65qveqi40tbu0f0o0dq3l73t7lc0,kvd9O6Cr,2020-0188,2021-10-14,09:57:29,11:35:44,NA,incomplete,false,true,NA,1,28,NA,brown,m_l_070.jpg,NA,NA,pleasant,unpleasant,NA,NA,NA,NA,NA,left,2034,true,NA,NA,NA,NA,NA
kvd9O6Cr,3r0wocg22pm4csvtiwincc3gz22duj,3x65qveqi40tbu0f0o0dq3l73t7lc0,kvd9O6Cr,2020-0188,2021-10-14,09:57:29,11:35:44,NA,incomplete,false,true,NA,1,29,NA,brown,n_l_111.jpg,NA,NA,unpleasant,pleasant,NA,NA,NA,NA,NA,right,1077,true,NA,NA,NA,NA,NA
kvd9O6Cr,3r0wocg22pm4csvtiwincc3gz22duj,3x65qveqi40tbu0f0o0dq3l73t7lc0,kvd9O6Cr,2020-0188,2021-10-14,09:57:29,11:35:44,NA,incomplete,false,true,NA,1,30,NA,black,m_s_023.jpg,NA,NA,pleasant,unpleasant,NA,NA,NA,NA,NA,left,1639,true,NA,NA,NA,NA,NA
kvd9O6Cr,3r0wocg22pm4csvtiwincc3gz22duj,3x65qveqi40tbu0f0o0dq3l73t7lc0,kvd9O6Cr,2020-0188,2021-10-14,09:57:29,11:35:44,NA,incomplete,false,true,NA,1,31,NA,black,m_s_006.jpg,NA,NA,pleasant,unpleasant,NA,NA,NA,NA,NA,left,938,true,NA,NA,NA,NA,NA
kvd9O6Cr,3r0wocg22pm4csvtiwincc3gz22duj,3x65qveqi40tbu0f0o0dq3l73t7lc0,kvd9O6Cr,2020-0188,2021-10-14,09:57:29,11:35:44,NA,incomplete,false,true,NA,1,32,NA,black,m_l_056.jpg,NA,NA,unpleasant,pleasant,NA,NA,NA,NA,NA,right,1494,true,NA,NA,NA,NA,NA
kvd9O6Cr,3r0wocg22pm4csvtiwincc3gz22duj,3x65qveqi40tbu0f0o0dq3l73t7lc0,kvd9O6Cr,2020-0188,2021-10-14,09:57:29,11:35:44,NA,incomplete,false,true,NA,1,33,NA,black,m_l_009.jpg,NA,NA,pleasant,unpleasant,NA,NA,NA,NA,NA,left,1341,true,NA,NA,NA,NA,NA
kvd9O6Cr,3r0wocg22pm4csvtiwincc3gz22duj,3x65qveqi40tbu0f0o0dq3l73t7lc0,kvd9O6Cr,2020-0188,2021-10-14,09:57:29,11:35:44,NA,incomplete,false,true,NA,1,34,NA,black,m_s_093.jpg,NA,NA,pleasant,unpleasant,NA,NA,NA,NA,NA,left,1241,true,NA,NA,NA,NA,NA
kvd9O6Cr,3r0wocg22pm4csvtiwincc3gz22duj,3x65qveqi40tbu0f0o0dq3l73t7lc0,kvd9O6Cr,2020-0188,2021-10-14,09:57:29,11:35:44,NA,incomplete,false,true,NA,1,35,NA,black,n_l_058.jpg,NA,NA,unpleasant,pleasant,NA,NA,NA,NA,NA,left,1317,true,NA,NA,NA,NA,NA
kvd9O6Cr,3r0wocg22pm4csvtiwincc3gz22duj,3x65qveqi40tbu0f0o0dq3l73t7lc0,kvd9O6Cr,2020-0188,2021-10-14,09:57:29,11:35:44,NA,incomplete,false,NA,true,1,0,NA,NA,NA,right,present,NA,NA,n_s_097.jpg,blue,m_l_032.jpg,red,between,NA,NaN,NA,right,5670,1,1,7053
kvd9O6Cr,3r0wocg22pm4csvtiwincc3gz22duj,3x65qveqi40tbu0f0o0dq3l73t7lc0,kvd9O6Cr,2020-0188,2021-10-14,09:57:29,11:35:44,NA,incomplete,false,NA,true,1,1,NA,NA,NA,right,present,NA,NA,m_s_020.jpg,brown,m_l_090.jpg,blue,between,NA,NaN,NA,right,4258,1,1,1116
kvd9O6Cr,3r0wocg22pm4csvtiwincc3gz22duj,3x65qveqi40tbu0f0o0dq3l73t7lc0,kvd9O6Cr,2020-0188,2021-10-14,09:57:29,11:35:44,NA,incomplete,false,NA,true,1,2,NA,NA,NA,right,present,NA,NA,n_l_010.jpg,orange,m_l_022.jpg,yellow,between,NA,NaN,NA,right,4521,1,1,1342
kvd9O6Cr,3r0wocg22pm4csvtiwincc3gz22duj,3x65qveqi40tbu0f0o0dq3l73t7lc0,kvd9O6Cr,2020-0188,2021-10-14,09:57:29,11:35:44,NA,incomplete,false,NA,true,1,3,NA,NA,NA,right,present,NA,NA,n_s_108.jpg,red,n_s_045.jpg,red,within,NA,NaN,NA,right,4359,1,0,1663
kvd9O6Cr,3r0wocg22pm4csvtiwincc3gz22duj,3x65qveqi40tbu0f0o0dq3l73t7lc0,kvd9O6Cr,2020-0188,2021-10-14,09:57:29,11:35:44,NA,incomplete,false,NA,true,1,4,NA,NA,NA,left,present,NA,NA,n_l_012.jpg,orange,m_s_068.jpg,red,between,NA,NaN,NA,left,3007,1,1,2367
kvd9O6Cr,3r0wocg22pm4csvtiwincc3gz22duj,3x65qveqi40tbu0f0o0dq3l73t7lc0,kvd9O6Cr,2020-0188,2021-10-14,09:57:29,11:35:44,NA,incomplete,false,NA,true,1,5,NA,NA,NA,right,present,NA,NA,m_s_029.jpg,orange,n_l_019.jpg,orange,within,NA,NaN,NA,right,3953,1,0,1422
kvd9O6Cr,3r0wocg22pm4csvtiwincc3gz22duj,3x65qveqi40tbu0f0o0dq3l73t7lc0,kvd9O6Cr,2020-0188,2021-10-14,09:57:29,11:35:44,NA,incomplete,false,NA,true,1,6,NA,NA,NA,left,present,NA,NA,n_l_060.jpg,yellow,n_l_035.jpg,yellow,within,NA,NaN,NA,left,3624,1,0,1484
kvd9O6Cr,3r0wocg22pm4csvtiwincc3gz22duj,3x65qveqi40tbu0f0o0dq3l73t7lc0,kvd9O6Cr,2020-0188,2021-10-14,09:57:29,11:35:44,NA,incomplete,false,NA,true,1,7,NA,NA,NA,left,present,NA,NA,n_s_091.jpg,brown,n_l_111.jpg,brown,within,NA,NaN,NA,left,3983,1,0,981
kvd9O6Cr,3r0wocg22pm4csvtiwincc3gz22duj,3x65qveqi40tbu0f0o0dq3l73t7lc0,kvd9O6Cr,2020-0188,2021-10-14,09:57:29,11:35:44,NA,incomplete,false,NA,true,1,8,NA,NA,NA,left,present,NA,NA,m_l_070.jpg,brown,m_l_056.jpg,black,between,NA,NaN,NA,left,2157,1,1,1179
kvd9O6Cr,3r0wocg22pm4csvtiwincc3gz22duj,3x65qveqi40tbu0f0o0dq3l73t7lc0,kvd9O6Cr,2020-0188,2021-10-14,09:57:29,11:35:44,NA,incomplete,false,NA,true,1,9,NA,NA,NA,left,present,NA,NA,m_s_006.jpg,black,n_l_058.jpg,black,within,NA,NaN,NA,left,2077,1,0,1295
kvd9O6Cr,3r0wocg22pm4csvtiwincc3gz22duj,3x65qveqi40tbu0f0o0dq3l73t7lc0,kvd9O6Cr,2020-0188,2021-10-14,09:57:29,11:35:44,NA,incomplete,false,NA,true,1,10,NA,NA,NA,left,present,NA,NA,m_s_013.jpg,blue,n_l_103.jpg,blue,within,NA,NaN,NA,left,2983,1,0,1499
kvd9O6Cr,3r0wocg22pm4csvtiwincc3gz22duj,3x65qveqi40tbu0f0o0dq3l73t7lc0,kvd9O6Cr,2020-0188,2021-10-14,09:57:29,11:35:44,NA,incomplete,false,true,NA,2,0,NA,brown,n_l_093.jpg,NA,NA,unpleasant,pleasant,NA,NA,NA,NA,NA,left,2904,true,NA,NA,NA,NA,NA
kvd9O6Cr,3r0wocg22pm4csvtiwincc3gz22duj,3x65qveqi40tbu0f0o0dq3l73t7lc0,kvd9O6Cr,2020-0188,2021-10-14,09:57:29,11:35:44,NA,incomplete,false,true,NA,2,1,NA,brown,m_l_062.jpg,NA,NA,unpleasant,pleasant,NA,NA,NA,NA,NA,right,2429,true,NA,NA,NA,NA,NA
kvd9O6Cr,3r0wocg22pm4csvtiwincc3gz22duj,3x65qveqi40tbu0f0o0dq3l73t7lc0,kvd9O6Cr,2020-0188,2021-10-14,09:57:29,11:35:44,NA,incomplete,false,true,NA,2,2,NA,brown,m_s_009.jpg,NA,NA,pleasant,unpleasant,NA,NA,NA,NA,NA,left,1477,true,NA,NA,NA,NA,NA
kvd9O6Cr,3r0wocg22pm4csvtiwincc3gz22duj,3x65qveqi40tbu0f0o0dq3l73t7lc0,kvd9O6Cr,2020-0188,2021-10-14,09:57:29,11:35:44,NA,incomplete,false,true,NA,2,3,NA,brown,n_l_110.jpg,NA,NA,pleasant,unpleasant,NA,NA,NA,NA,NA,left,851,true,NA,NA,NA,NA,NA
kvd9O6Cr,3r0wocg22pm4csvtiwincc3gz22duj,3x65qveqi40tbu0f0o0dq3l73t7lc0,kvd9O6Cr,2020-0188,2021-10-14,09:57:29,11:35:44,NA,incomplete,false,true,NA,2,4,NA,brown,n_l_021.jpg,NA,NA,unpleasant,pleasant,NA,NA,NA,NA,NA,right,1110,true,NA,NA,NA,NA,NA
kvd9O6Cr,3r0wocg22pm4csvtiwincc3gz22duj,3x65qveqi40tbu0f0o0dq3l73t7lc0,kvd9O6Cr,2020-0188,2021-10-14,09:57:29,11:35:44,NA,incomplete,false,true,NA,2,5,NA,brown,n_s_009.jpg,NA,NA,pleasant,unpleasant,NA,NA,NA,NA,NA,left,1086,true,NA,NA,NA,NA,NA
kvd9O6Cr,3r0wocg22pm4csvtiwincc3gz22duj,3x65qveqi40tbu0f0o0dq3l73t7lc0,kvd9O6Cr,2020-0188,2021-10-14,09:57:29,11:35:44,NA,incomplete,false,true,NA,2,6,NA,yellow,m_l_084.jpg,NA,NA,unpleasant,pleasant,NA,NA,NA,NA,NA,right,2682,true,NA,NA,NA,NA,NA
kvd9O6Cr,3r0wocg22pm4csvtiwincc3gz22duj,3x65qveqi40tbu0f0o0dq3l73t7lc0,kvd9O6Cr,2020-0188,2021-10-14,09:57:29,11:35:44,NA,incomplete,false,true,NA,2,7,NA,yellow,m_l_023.jpg,NA,NA,unpleasant,pleasant,NA,NA,NA,NA,NA,right,1254,true,NA,NA,NA,NA,NA
kvd9O6Cr,3r0wocg22pm4csvtiwincc3gz22duj,3x65qveqi40tbu0f0o0dq3l73t7lc0,kvd9O6Cr,2020-0188,2021-10-14,09:57:29,11:35:44,NA,incomplete,false,true,NA,2,8,NA,yellow,m_s_059.jpg,NA,NA,pleasant,unpleasant,NA,NA,NA,NA,NA,left,898,true,NA,NA,NA,NA,NA
kvd9O6Cr,3r0wocg22pm4csvtiwincc3gz22duj,3x65qveqi40tbu0f0o0dq3l73t7lc0,kvd9O6Cr,2020-0188,2021-10-14,09:57:29,11:35:44,NA,incomplete,false,true,NA,2,9,NA,yellow,n_s_018.jpg,NA,NA,pleasant,unpleasant,NA,NA,NA,NA,NA,left,921,true,NA,NA,NA,NA,NA
kvd9O6Cr,3r0wocg22pm4csvtiwincc3gz22duj,3x65qveqi40tbu0f0o0dq3l73t7lc0,kvd9O6Cr,2020-0188,2021-10-14,09:57:29,11:35:44,NA,incomplete,false,true,NA,2,10,NA,yellow,m_s_027.jpg,NA,NA,pleasant,unpleasant,NA,NA,NA,NA,NA,left,997,true,NA,NA,NA,NA,NA
kvd9O6Cr,3r0wocg22pm4csvtiwincc3gz22duj,3x65qveqi40tbu0f0o0dq3l73t7lc0,kvd9O6Cr,2020-0188,2021-10-14,09:57:29,11:35:44,NA,incomplete,false,true,NA,2,11,NA,yellow,n_s_022.jpg,NA,NA,pleasant,unpleasant,NA,NA,NA,NA,NA,left,1026,true,NA,NA,NA,NA,NA
kvd9O6Cr,3r0wocg22pm4csvtiwincc3gz22duj,3x65qveqi40tbu0f0o0dq3l73t7lc0,kvd9O6Cr,2020-0188,2021-10-14,09:57:29,11:35:44,NA,incomplete,false,true,NA,2,12,NA,black,n_l_071.jpg,NA,NA,pleasant,unpleasant,NA,NA,NA,NA,NA,left,946,true,NA,NA,NA,NA,NA
kvd9O6Cr,3r0wocg22pm4csvtiwincc3gz22duj,3x65qveqi40tbu0f0o0dq3l73t7lc0,kvd9O6Cr,2020-0188,2021-10-14,09:57:29,11:35:44,NA,incomplete,false,true,NA,2,13,NA,black,n_s_005.jpg,NA,NA,pleasant,unpleasant,NA,NA,NA,NA,NA,left,818,true,NA,NA,NA,NA,NA
kvd9O6Cr,3r0wocg22pm4csvtiwincc3gz22duj,3x65qveqi40tbu0f0o0dq3l73t7lc0,kvd9O6Cr,2020-0188,2021-10-14,09:57:29,11:35:44,NA,incomplete,false,true,NA,2,14,NA,black,m_l_103.jpg,NA,NA,pleasant,unpleasant,NA,NA,NA,NA,NA,left,1082,true,NA,NA,NA,NA,NA
kvd9O6Cr,3r0wocg22pm4csvtiwincc3gz22duj,3x65qveqi40tbu0f0o0dq3l73t7lc0,kvd9O6Cr,2020-0188,2021-10-14,09:57:29,11:35:44,NA,incomplete,false,true,NA,2,15,NA,black,m_s_083.jpg,NA,NA,unpleasant,pleasant,NA,NA,NA,NA,NA,right,1128,true,NA,NA,NA,NA,NA
kvd9O6Cr,3r0wocg22pm4csvtiwincc3gz22duj,3x65qveqi40tbu0f0o0dq3l73t7lc0,kvd9O6Cr,2020-0188,2021-10-14,09:57:29,11:35:44,NA,incomplete,false,true,NA,2,16,NA,black,m_l_024.jpg,NA,NA,unpleasant,pleasant,NA,NA,NA,NA,NA,right,944,true,NA,NA,NA,NA,NA
kvd9O6Cr,3r0wocg22pm4csvtiwincc3gz22duj,3x65qveqi40tbu0f0o0dq3l73t7lc0,kvd9O6Cr,2020-0188,2021-10-14,09:57:29,11:35:44,NA,incomplete,false,true,NA,2,17,NA,black,n_l_025.jpg,NA,NA,pleasant,unpleasant,NA,NA,NA,NA,NA,left,775,true,NA,NA,NA,NA,NA
kvd9O6Cr,3r0wocg22pm4csvtiwincc3gz22duj,3x65qveqi40tbu0f0o0dq3l73t7lc0,kvd9O6Cr,2020-0188,2021-10-14,09:57:29,11:35:44,NA,incomplete,false,true,NA,2,18,NA,green,n_l_054.jpg,NA,NA,unpleasant,pleasant,NA,NA,NA,NA,NA,right,957,true,NA,NA,NA,NA,NA
kvd9O6Cr,3r0wocg22pm4csvtiwincc3gz22duj,3x65qveqi40tbu0f0o0dq3l73t7lc0,kvd9O6Cr,2020-0188,2021-10-14,09:57:29,11:35:44,NA,incomplete,false,true,NA,2,19,NA,green,n_s_086.jpg,NA,NA,pleasant,unpleasant,NA,NA,NA,NA,NA,left,993,true,NA,NA,NA,NA,NA
kvd9O6Cr,3r0wocg22pm4csvtiwincc3gz22duj,3x65qveqi40tbu0f0o0dq3l73t7lc0,kvd9O6Cr,2020-0188,2021-10-14,09:57:29,11:35:44,NA,incomplete,false,true,NA,2,20,NA,green,n_s_067.jpg,NA,NA,unpleasant,pleasant,NA,NA,NA,NA,NA,right,864,true,NA,NA,NA,NA,NA
kvd9O6Cr,3r0wocg22pm4csvtiwincc3gz22duj,3x65qveqi40tbu0f0o0dq3l73t7lc0,kvd9O6Cr,2020-0188,2021-10-14,09:57:29,11:35:44,NA,incomplete,false,true,NA,2,21,NA,green,m_l_039.jpg,NA,NA,unpleasant,pleasant,NA,NA,NA,NA,NA,right,936,true,NA,NA,NA,NA,NA
kvd9O6Cr,3r0wocg22pm4csvtiwincc3gz22duj,3x65qveqi40tbu0f0o0dq3l73t7lc0,kvd9O6Cr,2020-0188,2021-10-14,09:57:29,11:35:44,NA,incomplete,false,true,NA,2,22,NA,green,m_l_101.jpg,NA,NA,unpleasant,pleasant,NA,NA,NA,NA,NA,right,901,true,NA,NA,NA,NA,NA
kvd9O6Cr,3r0wocg22pm4csvtiwincc3gz22duj,3x65qveqi40tbu0f0o0dq3l73t7lc0,kvd9O6Cr,2020-0188,2021-10-14,09:57:29,11:35:44,NA,incomplete,false,true,NA,2,23,NA,green,n_l_042.jpg,NA,NA,pleasant,unpleasant,NA,NA,NA,NA,NA,left,1225,true,NA,NA,NA,NA,NA
kvd9O6Cr,3r0wocg22pm4csvtiwincc3gz22duj,3x65qveqi40tbu0f0o0dq3l73t7lc0,kvd9O6Cr,2020-0188,2021-10-14,09:57:29,11:35:44,NA,incomplete,false,true,NA,2,24,NA,red,n_s_089.jpg,NA,NA,unpleasant,pleasant,NA,NA,NA,NA,NA,right,1150,true,NA,NA,NA,NA,NA
kvd9O6Cr,3r0wocg22pm4csvtiwincc3gz22duj,3x65qveqi40tbu0f0o0dq3l73t7lc0,kvd9O6Cr,2020-0188,2021-10-14,09:57:29,11:35:44,NA,incomplete,false,true,NA,2,25,NA,red,n_l_113.jpg,NA,NA,pleasant,unpleasant,NA,NA,NA,NA,NA,right,1302,true,NA,NA,NA,NA,NA
kvd9O6Cr,3r0wocg22pm4csvtiwincc3gz22duj,3x65qveqi40tbu0f0o0dq3l73t7lc0,kvd9O6Cr,2020-0188,2021-10-14,09:57:29,11:35:44,NA,incomplete,false,true,NA,2,26,NA,red,m_l_050.jpg,NA,NA,pleasant,unpleasant,NA,NA,NA,NA,NA,left,913,true,NA,NA,NA,NA,NA
kvd9O6Cr,3r0wocg22pm4csvtiwincc3gz22duj,3x65qveqi40tbu0f0o0dq3l73t7lc0,kvd9O6Cr,2020-0188,2021-10-14,09:57:29,11:35:44,NA,incomplete,false,true,NA,2,27,NA,red,m_s_062.jpg,NA,NA,pleasant,unpleasant,NA,NA,NA,NA,NA,left,1089,true,NA,NA,NA,NA,NA
kvd9O6Cr,3r0wocg22pm4csvtiwincc3gz22duj,3x65qveqi40tbu0f0o0dq3l73t7lc0,kvd9O6Cr,2020-0188,2021-10-14,09:57:29,11:35:44,NA,incomplete,false,true,NA,2,28,NA,red,n_s_107.jpg,NA,NA,pleasant,unpleasant,NA,NA,NA,NA,NA,left,1078,true,NA,NA,NA,NA,NA
kvd9O6Cr,3r0wocg22pm4csvtiwincc3gz22duj,3x65qveqi40tbu0f0o0dq3l73t7lc0,kvd9O6Cr,2020-0188,2021-10-14,09:57:29,11:35:44,NA,incomplete,false,true,NA,2,29,NA,red,m_s_064.jpg,NA,NA,pleasant,unpleasant,NA,NA,NA,NA,NA,left,775,true,NA,NA,NA,NA,NA
kvd9O6Cr,3r0wocg22pm4csvtiwincc3gz22duj,3x65qveqi40tbu0f0o0dq3l73t7lc0,kvd9O6Cr,2020-0188,2021-10-14,09:57:29,11:35:44,NA,incomplete,false,true,NA,2,30,NA,orange,m_s_039.jpg,NA,NA,pleasant,unpleasant,NA,NA,NA,NA,NA,left,2250,true,NA,NA,NA,NA,NA
kvd9O6Cr,3r0wocg22pm4csvtiwincc3gz22duj,3x65qveqi40tbu0f0o0dq3l73t7lc0,kvd9O6Cr,2020-0188,2021-10-14,09:57:29,11:35:44,NA,incomplete,false,true,NA,2,31,NA,orange,m_l_113.jpg,NA,NA,unpleasant,pleasant,NA,NA,NA,NA,NA,right,1605,true,NA,NA,NA,NA,NA
kvd9O6Cr,3r0wocg22pm4csvtiwincc3gz22duj,3x65qveqi40tbu0f0o0dq3l73t7lc0,kvd9O6Cr,2020-0188,2021-10-14,09:57:29,11:35:44,NA,incomplete,false,true,NA,2,32,NA,orange,m_l_082.jpg,NA,NA,unpleasant,pleasant,NA,NA,NA,NA,NA,left,1402,true,NA,NA,NA,NA,NA
kvd9O6Cr,3r0wocg22pm4csvtiwincc3gz22duj,3x65qveqi40tbu0f0o0dq3l73t7lc0,kvd9O6Cr,2020-0188,2021-10-14,09:57:29,11:35:44,NA,incomplete,false,true,NA,2,33,NA,orange,m_s_090.jpg,NA,NA,unpleasant,pleasant,NA,NA,NA,NA,NA,right,1679,true,NA,NA,NA,NA,NA
kvd9O6Cr,3r0wocg22pm4csvtiwincc3gz22duj,3x65qveqi40tbu0f0o0dq3l73t7lc0,kvd9O6Cr,2020-0188,2021-10-14,09:57:29,11:35:44,NA,incomplete,false,true,NA,2,34,NA,orange,m_l_038.jpg,NA,NA,unpleasant,pleasant,NA,NA,NA,NA,NA,right,1549,true,NA,NA,NA,NA,NA
kvd9O6Cr,3r0wocg22pm4csvtiwincc3gz22duj,3x65qveqi40tbu0f0o0dq3l73t7lc0,kvd9O6Cr,2020-0188,2021-10-14,09:57:29,11:35:44,NA,incomplete,false,true,NA,2,35,NA,orange,m_s_058.jpg,NA,NA,unpleasant,pleasant,NA,NA,NA,NA,NA,right,997,true,NA,NA,NA,NA,NA
kvd9O6Cr,3r0wocg22pm4csvtiwincc3gz22duj,3x65qveqi40tbu0f0o0dq3l73t7lc0,kvd9O6Cr,2020-0188,2021-10-14,09:57:29,11:35:44,NA,incomplete,false,NA,true,2,0,NA,NA,NA,right,absent,NA,NA,m_s_059.jpg,yellow,n_l_021.jpg,brown,between,NA,NaN,NA,right,3835,1,1,3375
kvd9O6Cr,3r0wocg22pm4csvtiwincc3gz22duj,3x65qveqi40tbu0f0o0dq3l73t7lc0,kvd9O6Cr,2020-0188,2021-10-14,09:57:29,11:35:44,NA,incomplete,false,NA,true,2,1,NA,NA,NA,left,absent,NA,NA,n_s_086.jpg,green,n_l_042.jpg,green,within,NA,NaN,NA,left,1570,1,2,2506
kvd9O6Cr,3r0wocg22pm4csvtiwincc3gz22duj,3x65qveqi40tbu0f0o0dq3l73t7lc0,kvd9O6Cr,2020-0188,2021-10-14,09:57:29,11:35:44,NA,incomplete,false,NA,true,2,2,NA,NA,NA,right,absent,NA,NA,n_s_067.jpg,green,m_l_024.jpg,black,between,NA,NaN,NA,right,4203,1,2,929
kvd9O6Cr,3r0wocg22pm4csvtiwincc3gz22duj,3x65qveqi40tbu0f0o0dq3l73t7lc0,kvd9O6Cr,2020-0188,2021-10-14,09:57:29,11:35:44,NA,incomplete,false,NA,true,2,3,NA,NA,NA,left,absent,NA,NA,m_s_027.jpg,yellow,m_l_103.jpg,black,between,NA,NaN,NA,left,1499,1,1,1008
kvd9O6Cr,3r0wocg22pm4csvtiwincc3gz22duj,3x65qveqi40tbu0f0o0dq3l73t7lc0,kvd9O6Cr,2020-0188,2021-10-14,09:57:29,11:35:44,NA,incomplete,false,NA,true,2,4,NA,NA,NA,right,absent,NA,NA,n_s_022.jpg,yellow,m_l_023.jpg,yellow,within,NA,NaN,NA,left,3015,0,1,1467
kvd9O6Cr,3r0wocg22pm4csvtiwincc3gz22duj,3x65qveqi40tbu0f0o0dq3l73t7lc0,kvd9O6Cr,2020-0188,2021-10-14,09:57:29,11:35:44,NA,incomplete,false,NA,true,2,5,NA,NA,NA,left,absent,NA,NA,n_s_107.jpg,red,m_l_082.jpg,orange,between,NA,NaN,NA,left,1615,1,2,1149
kvd9O6Cr,3r0wocg22pm4csvtiwincc3gz22duj,3x65qveqi40tbu0f0o0dq3l73t7lc0,kvd9O6Cr,2020-0188,2021-10-14,09:57:29,11:35:44,NA,incomplete,false,NA,true,2,6,NA,NA,NA,right,absent,NA,NA,m_s_058.jpg,orange,m_l_113.jpg,orange,within,NA,NaN,NA,left,2303,0,1,1024
kvd9O6Cr,3r0wocg22pm4csvtiwincc3gz22duj,3x65qveqi40tbu0f0o0dq3l73t7lc0,kvd9O6Cr,2020-0188,2021-10-14,09:57:29,11:35:44,NA,incomplete,false,NA,true,2,7,NA,NA,NA,left,absent,NA,NA,m_l_101.jpg,green,m_l_050.jpg,red,between,NA,NaN,NA,left,4360,1,2,889
kvd9O6Cr,3r0wocg22pm4csvtiwincc3gz22duj,3x65qveqi40tbu0f0o0dq3l73t7lc0,kvd9O6Cr,2020-0188,2021-10-14,09:57:29,11:35:44,NA,incomplete,false,NA,true,2,8,NA,NA,NA,left,absent,NA,NA,n_s_005.jpg,black,n_l_025.jpg,black,within,NA,NaN,NA,left,1359,1,1,1093
kvd9O6Cr,3r0wocg22pm4csvtiwincc3gz22duj,3x65qveqi40tbu0f0o0dq3l73t7lc0,kvd9O6Cr,2020-0188,2021-10-14,09:57:29,11:35:44,NA,incomplete,false,NA,true,2,9,NA,NA,NA,right,absent,NA,NA,m_s_064.jpg,red,n_l_113.jpg,red,within,NA,NaN,NA,left,1755,0,2,1623
kvd9O6Cr,3r0wocg22pm4csvtiwincc3gz22duj,3x65qveqi40tbu0f0o0dq3l73t7lc0,kvd9O6Cr,2020-0188,2021-10-14,09:57:29,11:35:44,NA,incomplete,false,NA,true,2,10,NA,NA,NA,right,absent,NA,NA,n_s_009.jpg,brown,m_l_062.jpg,brown,within,NA,NaN,NA,right,3375,1,0,1250
kvd9O6Cr,3r0wocg22pm4csvtiwincc3gz22duj,3x65qveqi40tbu0f0o0dq3l73t7lc0,kvd9O6Cr,2020-0188,2021-10-14,09:57:29,11:35:44,NA,incomplete,false,true,NA,3,0,NA,purple,m_l_025.jpg,NA,NA,unpleasant,pleasant,NA,NA,NA,NA,NA,right,1250,true,NA,NA,NA,NA,NA
kvd9O6Cr,3r0wocg22pm4csvtiwincc3gz22duj,3x65qveqi40tbu0f0o0dq3l73t7lc0,kvd9O6Cr,2020-0188,2021-10-14,09:57:29,11:35:44,NA,incomplete,false,true,NA,3,1,NA,purple,n_l_096.jpg,NA,NA,unpleasant,pleasant,NA,NA,NA,NA,NA,right,1090,true,NA,NA,NA,NA,NA
kvd9O6Cr,3r0wocg22pm4csvtiwincc3gz22duj,3x65qveqi40tbu0f0o0dq3l73t7lc0,kvd9O6Cr,2020-0188,2021-10-14,09:57:29,11:35:44,NA,incomplete,false,true,NA,3,2,NA,purple,m_l_074.jpg,NA,NA,pleasant,unpleasant,NA,NA,NA,NA,NA,left,2296,true,NA,NA,NA,NA,NA
kvd9O6Cr,3r0wocg22pm4csvtiwincc3gz22duj,3x65qveqi40tbu0f0o0dq3l73t7lc0,kvd9O6Cr,2020-0188,2021-10-14,09:57:29,11:35:44,NA,incomplete,false,true,NA,3,3,NA,purple,m_l_075.jpg,NA,NA,pleasant,unpleasant,NA,NA,NA,NA,NA,left,1055,true,NA,NA,NA,NA,NA
kvd9O6Cr,3r0wocg22pm4csvtiwincc3gz22duj,3x65qveqi40tbu0f0o0dq3l73t7lc0,kvd9O6Cr,2020-0188,2021-10-14,09:57:29,11:35:44,NA,incomplete,false,true,NA,3,4,NA,purple,n_l_070.jpg,NA,NA,pleasant,unpleasant,NA,NA,NA,NA,NA,left,844,true,NA,NA,NA,NA,NA
kvd9O6Cr,3r0wocg22pm4csvtiwincc3gz22duj,3x65qveqi40tbu0f0o0dq3l73t7lc0,kvd9O6Cr,2020-0188,2021-10-14,09:57:29,11:35:44,NA,incomplete,false,true,NA,3,5,NA,purple,m_s_057.jpg,NA,NA,pleasant,unpleasant,NA,NA,NA,NA,NA,left,1083,true,NA,NA,NA,NA,NA
kvd9O6Cr,3r0wocg22pm4csvtiwincc3gz22duj,3x65qveqi40tbu0f0o0dq3l73t7lc0,kvd9O6Cr,2020-0188,2021-10-14,09:57:29,11:35:44,NA,incomplete,false,true,NA,3,6,NA,green,m_l_053.jpg,NA,NA,pleasant,unpleasant,NA,NA,NA,NA,NA,left,879,true,NA,NA,NA,NA,NA
kvd9O6Cr,3r0wocg22pm4csvtiwincc3gz22duj,3x65qveqi40tbu0f0o0dq3l73t7lc0,kvd9O6Cr,2020-0188,2021-10-14,09:57:29,11:35:44,NA,incomplete,false,true,NA,3,7,NA,green,n_s_088.jpg,NA,NA,pleasant,unpleasant,NA,NA,NA,NA,NA,left,919,true,NA,NA,NA,NA,NA
kvd9O6Cr,3r0wocg22pm4csvtiwincc3gz22duj,3x65qveqi40tbu0f0o0dq3l73t7lc0,kvd9O6Cr,2020-0188,2021-10-14,09:57:29,11:35:44,NA,incomplete,false,true,NA,3,8,NA,green,m_l_049.jpg,NA,NA,pleasant,unpleasant,NA,NA,NA,NA,NA,left,869,true,NA,NA,NA,NA,NA
kvd9O6Cr,3r0wocg22pm4csvtiwincc3gz22duj,3x65qveqi40tbu0f0o0dq3l73t7lc0,kvd9O6Cr,2020-0188,2021-10-14,09:57:29,11:35:44,NA,incomplete,false,true,NA,3,9,NA,green,m_s_111.jpg,NA,NA,unpleasant,pleasant,NA,NA,NA,NA,NA,right,976,true,NA,NA,NA,NA,NA
kvd9O6Cr,3r0wocg22pm4csvtiwincc3gz22duj,3x65qveqi40tbu0f0o0dq3l73t7lc0,kvd9O6Cr,2020-0188,2021-10-14,09:57:29,11:35:44,NA,incomplete,false,true,NA,3,10,NA,green,m_s_116.jpg,NA,NA,unpleasant,pleasant,NA,NA,NA,NA,NA,right,2911,true,NA,NA,NA,NA,NA
kvd9O6Cr,3r0wocg22pm4csvtiwincc3gz22duj,3x65qveqi40tbu0f0o0dq3l73t7lc0,kvd9O6Cr,2020-0188,2021-10-14,09:57:29,11:35:44,NA,incomplete,false,true,NA,3,11,NA,green,n_s_048.jpg,NA,NA,pleasant,unpleasant,NA,NA,NA,NA,NA,left,1159,true,NA,NA,NA,NA,NA
kvd9O6Cr,3r0wocg22pm4csvtiwincc3gz22duj,3x65qveqi40tbu0f0o0dq3l73t7lc0,kvd9O6Cr,2020-0188,2021-10-14,09:57:29,11:35:44,NA,incomplete,false,true,NA,3,12,NA,brown,n_l_098.jpg,NA,NA,unpleasant,pleasant,NA,NA,NA,NA,NA,right,1518,true,NA,NA,NA,NA,NA
kvd9O6Cr,3r0wocg22pm4csvtiwincc3gz22duj,3x65qveqi40tbu0f0o0dq3l73t7lc0,kvd9O6Cr,2020-0188,2021-10-14,09:57:29,11:35:44,NA,incomplete,false,true,NA,3,13,NA,brown,m_s_050.jpg,NA,NA,pleasant,unpleasant,NA,NA,NA,NA,NA,left,945,true,NA,NA,NA,NA,NA
kvd9O6Cr,3r0wocg22pm4csvtiwincc3gz22duj,3x65qveqi40tbu0f0o0dq3l73t7lc0,kvd9O6Cr,2020-0188,2021-10-14,09:57:29,11:35:44,NA,incomplete,false,true,NA,3,14,NA,brown,m_s_094.jpg,NA,NA,unpleasant,pleasant,NA,NA,NA,NA,NA,right,1009,true,NA,NA,NA,NA,NA
kvd9O6Cr,3r0wocg22pm4csvtiwincc3gz22duj,3x65qveqi40tbu0f0o0dq3l73t7lc0,kvd9O6Cr,2020-0188,2021-10-14,09:57:29,11:35:44,NA,incomplete,false,true,NA,3,15,NA,brown,m_s_106.jpg,NA,NA,unpleasant,pleasant,NA,NA,NA,NA,NA,right,1080,true,NA,NA,NA,NA,NA
kvd9O6Cr,3r0wocg22pm4csvtiwincc3gz22duj,3x65qveqi40tbu0f0o0dq3l73t7lc0,kvd9O6Cr,2020-0188,2021-10-14,09:57:29,11:35:44,NA,incomplete,false,true,NA,3,16,NA,brown,m_l_104.jpg,NA,NA,unpleasant,pleasant,NA,NA,NA,NA,NA,right,1189,true,NA,NA,NA,NA,NA
kvd9O6Cr,3r0wocg22pm4csvtiwincc3gz22duj,3x65qveqi40tbu0f0o0dq3l73t7lc0,kvd9O6Cr,2020-0188,2021-10-14,09:57:29,11:35:44,NA,incomplete,false,true,NA,3,17,NA,brown,m_s_036.jpg,NA,NA,unpleasant,pleasant,NA,NA,NA,NA,NA,right,852,true,NA,NA,NA,NA,NA
kvd9O6Cr,3r0wocg22pm4csvtiwincc3gz22duj,3x65qveqi40tbu0f0o0dq3l73t7lc0,kvd9O6Cr,2020-0188,2021-10-14,09:57:29,11:35:44,NA,incomplete,false,true,NA,3,18,NA,gray,n_s_020.jpg,NA,NA,unpleasant,pleasant,NA,NA,NA,NA,NA,right,1208,true,NA,NA,NA,NA,NA
kvd9O6Cr,3r0wocg22pm4csvtiwincc3gz22duj,3x65qveqi40tbu0f0o0dq3l73t7lc0,kvd9O6Cr,2020-0188,2021-10-14,09:57:29,11:35:44,NA,incomplete,false,true,NA,3,19,NA,gray,m_s_014.jpg,NA,NA,unpleasant,pleasant,NA,NA,NA,NA,NA,right,1118,true,NA,NA,NA,NA,NA
kvd9O6Cr,3r0wocg22pm4csvtiwincc3gz22duj,3x65qveqi40tbu0f0o0dq3l73t7lc0,kvd9O6Cr,2020-0188,2021-10-14,09:57:29,11:35:44,NA,incomplete,false,true,NA,3,20,NA,gray,m_s_108.jpg,NA,NA,unpleasant,pleasant,NA,NA,NA,NA,NA,right,968,true,NA,NA,NA,NA,NA
kvd9O6Cr,3r0wocg22pm4csvtiwincc3gz22duj,3x65qveqi40tbu0f0o0dq3l73t7lc0,kvd9O6Cr,2020-0188,2021-10-14,09:57:29,11:35:44,NA,incomplete,false,true,NA,3,21,NA,gray,m_s_022.jpg,NA,NA,unpleasant,pleasant,NA,NA,NA,NA,NA,right,997,true,NA,NA,NA,NA,NA
kvd9O6Cr,3r0wocg22pm4csvtiwincc3gz22duj,3x65qveqi40tbu0f0o0dq3l73t7lc0,kvd9O6Cr,2020-0188,2021-10-14,09:57:29,11:35:44,NA,incomplete,false,true,NA,3,22,NA,gray,n_l_100.jpg,NA,NA,pleasant,unpleasant,NA,NA,NA,NA,NA,left,1700,true,NA,NA,NA,NA,NA
kvd9O6Cr,3r0wocg22pm4csvtiwincc3gz22duj,3x65qveqi40tbu0f0o0dq3l73t7lc0,kvd9O6Cr,2020-0188,2021-10-14,09:57:29,11:35:44,NA,incomplete,false,true,NA,3,23,NA,gray,m_l_002.jpg,NA,NA,pleasant,unpleasant,NA,NA,NA,NA,NA,left,1039,true,NA,NA,NA,NA,NA
kvd9O6Cr,3r0wocg22pm4csvtiwincc3gz22duj,3x65qveqi40tbu0f0o0dq3l73t7lc0,kvd9O6Cr,2020-0188,2021-10-14,09:57:29,11:35:44,NA,incomplete,false,true,NA,3,24,NA,red,n_s_102.jpg,NA,NA,unpleasant,pleasant,NA,NA,NA,NA,NA,right,1420,true,NA,NA,NA,NA,NA
kvd9O6Cr,3r0wocg22pm4csvtiwincc3gz22duj,3x65qveqi40tbu0f0o0dq3l73t7lc0,kvd9O6Cr,2020-0188,2021-10-14,09:57:29,11:35:44,NA,incomplete,false,true,NA,3,25,NA,red,n_l_080.jpg,NA,NA,unpleasant,pleasant,NA,NA,NA,NA,NA,right,1555,true,NA,NA,NA,NA,NA
kvd9O6Cr,3r0wocg22pm4csvtiwincc3gz22duj,3x65qveqi40tbu0f0o0dq3l73t7lc0,kvd9O6Cr,2020-0188,2021-10-14,09:57:29,11:35:44,NA,incomplete,false,true,NA,3,26,NA,red,n_l_116.jpg,NA,NA,unpleasant,pleasant,NA,NA,NA,NA,NA,left,1136,true,NA,NA,NA,NA,NA
kvd9O6Cr,3r0wocg22pm4csvtiwincc3gz22duj,3x65qveqi40tbu0f0o0dq3l73t7lc0,kvd9O6Cr,2020-0188,2021-10-14,09:57:29,11:35:44,NA,incomplete,false,true,NA,3,27,NA,red,n_l_102.jpg,NA,NA,pleasant,unpleasant,NA,NA,NA,NA,NA,left,1165,true,NA,NA,NA,NA,NA
kvd9O6Cr,3r0wocg22pm4csvtiwincc3gz22duj,3x65qveqi40tbu0f0o0dq3l73t7lc0,kvd9O6Cr,2020-0188,2021-10-14,09:57:29,11:35:44,NA,incomplete,false,true,NA,3,28,NA,red,m_l_114.jpg,NA,NA,unpleasant,pleasant,NA,NA,NA,NA,NA,right,873,true,NA,NA,NA,NA,NA
kvd9O6Cr,3r0wocg22pm4csvtiwincc3gz22duj,3x65qveqi40tbu0f0o0dq3l73t7lc0,kvd9O6Cr,2020-0188,2021-10-14,09:57:29,11:35:44,NA,incomplete,false,true,NA,3,29,NA,red,n_s_025.jpg,NA,NA,pleasant,unpleasant,NA,NA,NA,NA,NA,left,1629,true,NA,NA,NA,NA,NA
kvd9O6Cr,3r0wocg22pm4csvtiwincc3gz22duj,3x65qveqi40tbu0f0o0dq3l73t7lc0,kvd9O6Cr,2020-0188,2021-10-14,09:57:29,11:35:44,NA,incomplete,false,true,NA,3,30,NA,orange,m_s_072.jpg,NA,NA,unpleasant,pleasant,NA,NA,NA,NA,NA,right,925,true,NA,NA,NA,NA,NA
kvd9O6Cr,3r0wocg22pm4csvtiwincc3gz22duj,3x65qveqi40tbu0f0o0dq3l73t7lc0,kvd9O6Cr,2020-0188,2021-10-14,09:57:29,11:35:44,NA,incomplete,false,true,NA,3,31,NA,orange,m_s_112.jpg,NA,NA,pleasant,unpleasant,NA,NA,NA,NA,NA,left,2413,true,NA,NA,NA,NA,NA
kvd9O6Cr,3r0wocg22pm4csvtiwincc3gz22duj,3x65qveqi40tbu0f0o0dq3l73t7lc0,kvd9O6Cr,2020-0188,2021-10-14,09:57:29,11:35:44,NA,incomplete,false,true,NA,3,32,NA,orange,n_s_012.jpg,NA,NA,pleasant,unpleasant,NA,NA,NA,NA,NA,left,3475,true,NA,NA,NA,NA,NA
kvd9O6Cr,3r0wocg22pm4csvtiwincc3gz22duj,3x65qveqi40tbu0f0o0dq3l73t7lc0,kvd9O6Cr,2020-0188,2021-10-14,09:57:29,11:35:44,NA,incomplete,false,true,NA,3,33,NA,orange,n_l_091.jpg,NA,NA,pleasant,unpleasant,NA,NA,NA,NA,NA,left,2920,true,NA,NA,NA,NA,NA
kvd9O6Cr,3r0wocg22pm4csvtiwincc3gz22duj,3x65qveqi40tbu0f0o0dq3l73t7lc0,kvd9O6Cr,2020-0188,2021-10-14,09:57:29,11:35:44,NA,incomplete,false,true,NA,3,34,NA,orange,m_l_055.jpg,NA,NA,unpleasant,pleasant,NA,NA,NA,NA,NA,none,0,false,NA,NA,NA,NA,NA
kvd9O6Cr,3r0wocg22pm4csvtiwincc3gz22duj,3x65qveqi40tbu0f0o0dq3l73t7lc0,kvd9O6Cr,2020-0188,2021-10-14,09:57:29,11:35:44,NA,incomplete,false,true,NA,3,35,NA,orange,n_s_061.jpg,NA,NA,pleasant,unpleasant,NA,NA,NA,NA,NA,left,1064,true,NA,NA,NA,NA,NA
kvd9O6Cr,3r0wocg22pm4csvtiwincc3gz22duj,3x65qveqi40tbu0f0o0dq3l73t7lc0,kvd9O6Cr,2020-0188,2021-10-14,09:57:29,11:35:44,NA,incomplete,false,NA,true,3,0,NA,NA,NA,left,present,NA,NA,n_l_100.jpg,gray,n_l_116.jpg,red,between,NA,NaN,NA,left,4201,1,1,3249
kvd9O6Cr,3r0wocg22pm4csvtiwincc3gz22duj,3x65qveqi40tbu0f0o0dq3l73t7lc0,kvd9O6Cr,2020-0188,2021-10-14,09:57:29,11:35:44,NA,incomplete,false,NA,true,3,1,NA,NA,NA,right,present,NA,NA,m_l_002.jpg,gray,m_s_014.jpg,gray,within,NA,NaN,NA,left,3037,0,0,1351
kvd9O6Cr,3r0wocg22pm4csvtiwincc3gz22duj,3x65qveqi40tbu0f0o0dq3l73t7lc0,kvd9O6Cr,2020-0188,2021-10-14,09:57:29,11:35:44,NA,incomplete,false,NA,true,3,2,NA,NA,NA,right,present,NA,NA,m_l_049.jpg,green,n_l_070.jpg,purple,between,NA,NaN,NA,right,3029,1,1,1171
kvd9O6Cr,3r0wocg22pm4csvtiwincc3gz22duj,3x65qveqi40tbu0f0o0dq3l73t7lc0,kvd9O6Cr,2020-0188,2021-10-14,09:57:29,11:35:44,NA,incomplete,false,NA,true,3,3,NA,NA,NA,right,present,NA,NA,m_s_036.jpg,brown,m_s_050.jpg,brown,within,NA,NaN,NA,right,3297,1,0,1335
kvd9O6Cr,3r0wocg22pm4csvtiwincc3gz22duj,3x65qveqi40tbu0f0o0dq3l73t7lc0,kvd9O6Cr,2020-0188,2021-10-14,09:57:29,11:35:44,NA,incomplete,false,NA,true,3,4,NA,NA,NA,left,present,NA,NA,m_l_114.jpg,red,n_s_012.jpg,orange,between,NA,NaN,NA,left,5835,1,1,1037
kvd9O6Cr,3r0wocg22pm4csvtiwincc3gz22duj,3x65qveqi40tbu0f0o0dq3l73t7lc0,kvd9O6Cr,2020-0188,2021-10-14,09:57:29,11:35:44,NA,incomplete,false,NA,true,3,5,NA,NA,NA,right,present,NA,NA,n_s_048.jpg,green,n_s_088.jpg,green,within,NA,NaN,NA,right,1945,1,0,1389
kvd9O6Cr,3r0wocg22pm4csvtiwincc3gz22duj,3x65qveqi40tbu0f0o0dq3l73t7lc0,kvd9O6Cr,2020-0188,2021-10-14,09:57:29,11:35:44,NA,incomplete,false,NA,true,3,6,NA,NA,NA,right,present,NA,NA,m_s_057.jpg,purple,n_l_096.jpg,purple,within,NA,NaN,NA,right,1610,1,0,1069
kvd9O6Cr,3r0wocg22pm4csvtiwincc3gz22duj,3x65qveqi40tbu0f0o0dq3l73t7lc0,kvd9O6Cr,2020-0188,2021-10-14,09:57:29,11:35:44,NA,incomplete,false,NA,true,3,7,NA,NA,NA,right,present,NA,NA,n_s_061.jpg,orange,m_s_112.jpg,orange,within,NA,NaN,NA,right,2865,1,0,1787
kvd9O6Cr,3r0wocg22pm4csvtiwincc3gz22duj,3x65qveqi40tbu0f0o0dq3l73t7lc0,kvd9O6Cr,2020-0188,2021-10-14,09:57:29,11:35:44,NA,incomplete,false,NA,true,3,8,NA,NA,NA,right,present,NA,NA,m_s_094.jpg,brown,m_s_116.jpg,green,between,NA,NaN,NA,right,3693,1,1,803
kvd9O6Cr,3r0wocg22pm4csvtiwincc3gz22duj,3x65qveqi40tbu0f0o0dq3l73t7lc0,kvd9O6Cr,2020-0188,2021-10-14,09:57:29,11:35:44,NA,incomplete,false,NA,true,3,9,NA,NA,NA,left,present,NA,NA,n_l_080.jpg,red,n_s_025.jpg,red,within,NA,NaN,NA,left,2359,1,0,1405
kvd9O6Cr,3r0wocg22pm4csvtiwincc3gz22duj,3x65qveqi40tbu0f0o0dq3l73t7lc0,kvd9O6Cr,2020-0188,2021-10-14,09:57:29,11:35:44,NA,incomplete,false,NA,true,3,10,NA,NA,NA,right,present,NA,NA,m_s_108.jpg,gray,m_l_104.jpg,brown,between,NA,NaN,NA,right,6937,1,1,843
kvd9O6Cr,3r0wocg22pm4csvtiwincc3gz22duj,3x65qveqi40tbu0f0o0dq3l73t7lc0,kvd9O6Cr,2020-0188,2021-10-14,09:57:29,11:35:44,NA,incomplete,false,true,NA,4,0,NA,orange,m_s_076.jpg,NA,NA,unpleasant,pleasant,NA,NA,NA,NA,NA,right,1725,true,NA,NA,NA,NA,NA
kvd9O6Cr,3r0wocg22pm4csvtiwincc3gz22duj,3x65qveqi40tbu0f0o0dq3l73t7lc0,kvd9O6Cr,2020-0188,2021-10-14,09:57:29,11:35:44,NA,incomplete,false,true,NA,4,1,NA,orange,m_l_107.jpg,NA,NA,pleasant,unpleasant,NA,NA,NA,NA,NA,right,1473,true,NA,NA,NA,NA,NA
kvd9O6Cr,3r0wocg22pm4csvtiwincc3gz22duj,3x65qveqi40tbu0f0o0dq3l73t7lc0,kvd9O6Cr,2020-0188,2021-10-14,09:57:29,11:35:44,NA,incomplete,false,true,NA,4,2,NA,orange,n_l_088.jpg,NA,NA,unpleasant,pleasant,NA,NA,NA,NA,NA,left,2909,true,NA,NA,NA,NA,NA
kvd9O6Cr,3r0wocg22pm4csvtiwincc3gz22duj,3x65qveqi40tbu0f0o0dq3l73t7lc0,kvd9O6Cr,2020-0188,2021-10-14,09:57:29,11:35:44,NA,incomplete,false,true,NA,4,3,NA,orange,m_s_110.jpg,NA,NA,unpleasant,pleasant,NA,NA,NA,NA,NA,none,0,false,NA,NA,NA,NA,NA
kvd9O6Cr,3r0wocg22pm4csvtiwincc3gz22duj,3x65qveqi40tbu0f0o0dq3l73t7lc0,kvd9O6Cr,2020-0188,2021-10-14,09:57:29,11:35:44,NA,incomplete,false,true,NA,4,4,NA,orange,n_s_056.jpg,NA,NA,pleasant,unpleasant,NA,NA,NA,NA,NA,left,1751,true,NA,NA,NA,NA,NA
kvd9O6Cr,3r0wocg22pm4csvtiwincc3gz22duj,3x65qveqi40tbu0f0o0dq3l73t7lc0,kvd9O6Cr,2020-0188,2021-10-14,09:57:29,11:35:44,NA,incomplete,false,true,NA,4,5,NA,orange,m_l_057.jpg,NA,NA,unpleasant,pleasant,NA,NA,NA,NA,NA,left,1994,true,NA,NA,NA,NA,NA
kvd9O6Cr,3r0wocg22pm4csvtiwincc3gz22duj,3x65qveqi40tbu0f0o0dq3l73t7lc0,kvd9O6Cr,2020-0188,2021-10-14,09:57:29,11:35:44,NA,incomplete,false,true,NA,4,6,NA,green,m_s_077.jpg,NA,NA,unpleasant,pleasant,NA,NA,NA,NA,NA,right,1991,true,NA,NA,NA,NA,NA
kvd9O6Cr,3r0wocg22pm4csvtiwincc3gz22duj,3x65qveqi40tbu0f0o0dq3l73t7lc0,kvd9O6Cr,2020-0188,2021-10-14,09:57:29,11:35:44,NA,incomplete,false,true,NA,4,7,NA,green,m_l_010.jpg,NA,NA,pleasant,unpleasant,NA,NA,NA,NA,NA,left,1255,true,NA,NA,NA,NA,NA
kvd9O6Cr,3r0wocg22pm4csvtiwincc3gz22duj,3x65qveqi40tbu0f0o0dq3l73t7lc0,kvd9O6Cr,2020-0188,2021-10-14,09:57:29,11:35:44,NA,incomplete,false,true,NA,4,8,NA,green,m_s_045.jpg,NA,NA,pleasant,unpleasant,NA,NA,NA,NA,NA,left,1163,true,NA,NA,NA,NA,NA
kvd9O6Cr,3r0wocg22pm4csvtiwincc3gz22duj,3x65qveqi40tbu0f0o0dq3l73t7lc0,kvd9O6Cr,2020-0188,2021-10-14,09:57:29,11:35:44,NA,incomplete,false,true,NA,4,9,NA,green,n_l_039.jpg,NA,NA,pleasant,unpleasant,NA,NA,NA,NA,NA,left,898,true,NA,NA,NA,NA,NA
kvd9O6Cr,3r0wocg22pm4csvtiwincc3gz22duj,3x65qveqi40tbu0f0o0dq3l73t7lc0,kvd9O6Cr,2020-0188,2021-10-14,09:57:29,11:35:44,NA,incomplete,false,true,NA,4,10,NA,green,m_s_081.jpg,NA,NA,pleasant,unpleasant,NA,NA,NA,NA,NA,left,816,true,NA,NA,NA,NA,NA
kvd9O6Cr,3r0wocg22pm4csvtiwincc3gz22duj,3x65qveqi40tbu0f0o0dq3l73t7lc0,kvd9O6Cr,2020-0188,2021-10-14,09:57:29,11:35:44,NA,incomplete,false,true,NA,4,11,NA,green,n_s_103.jpg,NA,NA,pleasant,unpleasant,NA,NA,NA,NA,NA,left,796,true,NA,NA,NA,NA,NA
kvd9O6Cr,3r0wocg22pm4csvtiwincc3gz22duj,3x65qveqi40tbu0f0o0dq3l73t7lc0,kvd9O6Cr,2020-0188,2021-10-14,09:57:29,11:35:44,NA,incomplete,false,true,NA,4,12,NA,white,n_s_015.jpg,NA,NA,pleasant,unpleasant,NA,NA,NA,NA,NA,left,2764,true,NA,NA,NA,NA,NA
kvd9O6Cr,3r0wocg22pm4csvtiwincc3gz22duj,3x65qveqi40tbu0f0o0dq3l73t7lc0,kvd9O6Cr,2020-0188,2021-10-14,09:57:29,11:35:44,NA,incomplete,false,true,NA,4,13,NA,white,n_s_060.jpg,NA,NA,pleasant,unpleasant,NA,NA,NA,NA,NA,left,2373,true,NA,NA,NA,NA,NA
kvd9O6Cr,3r0wocg22pm4csvtiwincc3gz22duj,3x65qveqi40tbu0f0o0dq3l73t7lc0,kvd9O6Cr,2020-0188,2021-10-14,09:57:29,11:35:44,NA,incomplete,false,true,NA,4,14,NA,white,n_s_057.jpg,NA,NA,pleasant,unpleasant,NA,NA,NA,NA,NA,left,2311,true,NA,NA,NA,NA,NA
kvd9O6Cr,3r0wocg22pm4csvtiwincc3gz22duj,3x65qveqi40tbu0f0o0dq3l73t7lc0,kvd9O6Cr,2020-0188,2021-10-14,09:57:29,11:35:44,NA,incomplete,false,true,NA,4,15,NA,white,m_l_027.jpg,NA,NA,pleasant,unpleasant,NA,NA,NA,NA,NA,left,1597,true,NA,NA,NA,NA,NA
kvd9O6Cr,3r0wocg22pm4csvtiwincc3gz22duj,3x65qveqi40tbu0f0o0dq3l73t7lc0,kvd9O6Cr,2020-0188,2021-10-14,09:57:29,11:35:44,NA,incomplete,false,true,NA,4,16,NA,white,m_l_097.jpg,NA,NA,unpleasant,pleasant,NA,NA,NA,NA,NA,right,1013,true,NA,NA,NA,NA,NA
kvd9O6Cr,3r0wocg22pm4csvtiwincc3gz22duj,3x65qveqi40tbu0f0o0dq3l73t7lc0,kvd9O6Cr,2020-0188,2021-10-14,09:57:29,11:35:44,NA,incomplete,false,true,NA,4,17,NA,white,n_l_017.jpg,NA,NA,pleasant,unpleasant,NA,NA,NA,NA,NA,left,1125,true,NA,NA,NA,NA,NA
kvd9O6Cr,3r0wocg22pm4csvtiwincc3gz22duj,3x65qveqi40tbu0f0o0dq3l73t7lc0,kvd9O6Cr,2020-0188,2021-10-14,09:57:29,11:35:44,NA,incomplete,false,true,NA,4,18,NA,blue,n_l_090.jpg,NA,NA,unpleasant,pleasant,NA,NA,NA,NA,NA,left,1495,true,NA,NA,NA,NA,NA
kvd9O6Cr,3r0wocg22pm4csvtiwincc3gz22duj,3x65qveqi40tbu0f0o0dq3l73t7lc0,kvd9O6Cr,2020-0188,2021-10-14,09:57:29,11:35:44,NA,incomplete,false,true,NA,4,19,NA,blue,m_l_013.jpg,NA,NA,pleasant,unpleasant,NA,NA,NA,NA,NA,left,896,true,NA,NA,NA,NA,NA
kvd9O6Cr,3r0wocg22pm4csvtiwincc3gz22duj,3x65qveqi40tbu0f0o0dq3l73t7lc0,kvd9O6Cr,2020-0188,2021-10-14,09:57:29,11:35:44,NA,incomplete,false,true,NA,4,20,NA,blue,n_l_087.jpg,NA,NA,unpleasant,pleasant,NA,NA,NA,NA,NA,right,1079,true,NA,NA,NA,NA,NA
kvd9O6Cr,3r0wocg22pm4csvtiwincc3gz22duj,3x65qveqi40tbu0f0o0dq3l73t7lc0,kvd9O6Cr,2020-0188,2021-10-14,09:57:29,11:35:44,NA,incomplete,false,true,NA,4,21,NA,blue,n_l_023.jpg,NA,NA,pleasant,unpleasant,NA,NA,NA,NA,NA,left,2030,true,NA,NA,NA,NA,NA
kvd9O6Cr,3r0wocg22pm4csvtiwincc3gz22duj,3x65qveqi40tbu0f0o0dq3l73t7lc0,kvd9O6Cr,2020-0188,2021-10-14,09:57:29,11:35:44,NA,incomplete,false,true,NA,4,22,NA,blue,m_l_099.jpg,NA,NA,pleasant,unpleasant,NA,NA,NA,NA,NA,left,1228,true,NA,NA,NA,NA,NA
kvd9O6Cr,3r0wocg22pm4csvtiwincc3gz22duj,3x65qveqi40tbu0f0o0dq3l73t7lc0,kvd9O6Cr,2020-0188,2021-10-14,09:57:29,11:35:44,NA,incomplete,false,true,NA,4,23,NA,blue,m_l_108.jpg,NA,NA,unpleasant,pleasant,NA,NA,NA,NA,NA,right,1467,true,NA,NA,NA,NA,NA
kvd9O6Cr,3r0wocg22pm4csvtiwincc3gz22duj,3x65qveqi40tbu0f0o0dq3l73t7lc0,kvd9O6Cr,2020-0188,2021-10-14,09:57:29,11:35:44,NA,incomplete,false,true,NA,4,24,NA,yellow,m_s_089.jpg,NA,NA,pleasant,unpleasant,NA,NA,NA,NA,NA,left,1447,true,NA,NA,NA,NA,NA
kvd9O6Cr,3r0wocg22pm4csvtiwincc3gz22duj,3x65qveqi40tbu0f0o0dq3l73t7lc0,kvd9O6Cr,2020-0188,2021-10-14,09:57:29,11:35:44,NA,incomplete,false,true,NA,4,25,NA,yellow,n_l_020.jpg,NA,NA,pleasant,unpleasant,NA,NA,NA,NA,NA,left,815,true,NA,NA,NA,NA,NA
kvd9O6Cr,3r0wocg22pm4csvtiwincc3gz22duj,3x65qveqi40tbu0f0o0dq3l73t7lc0,kvd9O6Cr,2020-0188,2021-10-14,09:57:29,11:35:44,NA,incomplete,false,true,NA,4,26,NA,yellow,m_s_079.jpg,NA,NA,pleasant,unpleasant,NA,NA,NA,NA,NA,left,877,true,NA,NA,NA,NA,NA
kvd9O6Cr,3r0wocg22pm4csvtiwincc3gz22duj,3x65qveqi40tbu0f0o0dq3l73t7lc0,kvd9O6Cr,2020-0188,2021-10-14,09:57:29,11:35:44,NA,incomplete,false,true,NA,4,27,NA,yellow,m_l_064.jpg,NA,NA,unpleasant,pleasant,NA,NA,NA,NA,NA,right,1683,true,NA,NA,NA,NA,NA
kvd9O6Cr,3r0wocg22pm4csvtiwincc3gz22duj,3x65qveqi40tbu0f0o0dq3l73t7lc0,kvd9O6Cr,2020-0188,2021-10-14,09:57:29,11:35:44,NA,incomplete,false,true,NA,4,28,NA,yellow,n_s_065.jpg,NA,NA,unpleasant,pleasant,NA,NA,NA,NA,NA,right,1536,true,NA,NA,NA,NA,NA
kvd9O6Cr,3r0wocg22pm4csvtiwincc3gz22duj,3x65qveqi40tbu0f0o0dq3l73t7lc0,kvd9O6Cr,2020-0188,2021-10-14,09:57:29,11:35:44,NA,incomplete,false,true,NA,4,29,NA,yellow,m_s_011.jpg,NA,NA,unpleasant,pleasant,NA,NA,NA,NA,NA,right,1492,true,NA,NA,NA,NA,NA
kvd9O6Cr,3r0wocg22pm4csvtiwincc3gz22duj,3x65qveqi40tbu0f0o0dq3l73t7lc0,kvd9O6Cr,2020-0188,2021-10-14,09:57:29,11:35:44,NA,incomplete,false,true,NA,4,30,NA,red,m_l_077.jpg,NA,NA,unpleasant,pleasant,NA,NA,NA,NA,NA,left,2219,true,NA,NA,NA,NA,NA
kvd9O6Cr,3r0wocg22pm4csvtiwincc3gz22duj,3x65qveqi40tbu0f0o0dq3l73t7lc0,kvd9O6Cr,2020-0188,2021-10-14,09:57:29,11:35:44,NA,incomplete,false,true,NA,4,31,NA,red,m_l_048.jpg,NA,NA,unpleasant,pleasant,NA,NA,NA,NA,NA,right,1615,true,NA,NA,NA,NA,NA
kvd9O6Cr,3r0wocg22pm4csvtiwincc3gz22duj,3x65qveqi40tbu0f0o0dq3l73t7lc0,kvd9O6Cr,2020-0188,2021-10-14,09:57:29,11:35:44,NA,incomplete,false,true,NA,4,32,NA,red,n_s_113.jpg,NA,NA,pleasant,unpleasant,NA,NA,NA,NA,NA,left,1531,true,NA,NA,NA,NA,NA
kvd9O6Cr,3r0wocg22pm4csvtiwincc3gz22duj,3x65qveqi40tbu0f0o0dq3l73t7lc0,kvd9O6Cr,2020-0188,2021-10-14,09:57:29,11:35:44,NA,incomplete,false,true,NA,4,33,NA,red,n_l_029.jpg,NA,NA,unpleasant,pleasant,NA,NA,NA,NA,NA,right,1191,true,NA,NA,NA,NA,NA
kvd9O6Cr,3r0wocg22pm4csvtiwincc3gz22duj,3x65qveqi40tbu0f0o0dq3l73t7lc0,kvd9O6Cr,2020-0188,2021-10-14,09:57:29,11:35:44,NA,incomplete,false,true,NA,4,34,NA,red,n_l_022.jpg,NA,NA,unpleasant,pleasant,NA,NA,NA,NA,NA,right,1547,true,NA,NA,NA,NA,NA
kvd9O6Cr,3r0wocg22pm4csvtiwincc3gz22duj,3x65qveqi40tbu0f0o0dq3l73t7lc0,kvd9O6Cr,2020-0188,2021-10-14,09:57:29,11:35:44,NA,incomplete,false,true,NA,4,35,NA,red,n_s_034.jpg,NA,NA,unpleasant,pleasant,NA,NA,NA,NA,NA,right,1178,true,NA,NA,NA,NA,NA
kvd9O6Cr,3r0wocg22pm4csvtiwincc3gz22duj,3x65qveqi40tbu0f0o0dq3l73t7lc0,kvd9O6Cr,2020-0188,2021-10-14,09:57:29,11:35:44,NA,incomplete,false,NA,true,4,0,NA,NA,NA,left,absent,NA,NA,n_s_060.jpg,white,n_l_017.jpg,white,within,NA,NaN,NA,right,2875,0,2,2007
kvd9O6Cr,3r0wocg22pm4csvtiwincc3gz22duj,3x65qveqi40tbu0f0o0dq3l73t7lc0,kvd9O6Cr,2020-0188,2021-10-14,09:57:29,11:35:44,NA,incomplete,false,NA,true,4,1,NA,NA,NA,left,absent,NA,NA,n_s_056.jpg,orange,m_s_045.jpg,green,between,NA,NaN,NA,left,1445,1,2,1556
kvd9O6Cr,3r0wocg22pm4csvtiwincc3gz22duj,3x65qveqi40tbu0f0o0dq3l73t7lc0,kvd9O6Cr,2020-0188,2021-10-14,09:57:29,11:35:44,NA,incomplete,false,NA,true,4,2,NA,NA,NA,right,absent,NA,NA,m_l_057.jpg,orange,m_l_107.jpg,orange,within,NA,NaN,NA,right,2961,1,1,1625
kvd9O6Cr,3r0wocg22pm4csvtiwincc3gz22duj,3x65qveqi40tbu0f0o0dq3l73t7lc0,kvd9O6Cr,2020-0188,2021-10-14,09:57:29,11:35:44,NA,incomplete,false,NA,true,4,3,NA,NA,NA,right,absent,NA,NA,m_s_079.jpg,yellow,m_l_099.jpg,blue,between,NA,NaN,NA,right,1437,1,1,1186
kvd9O6Cr,3r0wocg22pm4csvtiwincc3gz22duj,3x65qveqi40tbu0f0o0dq3l73t7lc0,kvd9O6Cr,2020-0188,2021-10-14,09:57:29,11:35:44,NA,incomplete,false,NA,true,4,4,NA,NA,NA,left,absent,NA,NA,m_l_010.jpg,green,n_s_103.jpg,green,within,NA,NaN,NA,left,2561,1,0,2169
kvd9O6Cr,3r0wocg22pm4csvtiwincc3gz22duj,3x65qveqi40tbu0f0o0dq3l73t7lc0,kvd9O6Cr,2020-0188,2021-10-14,09:57:29,11:35:44,NA,incomplete,false,NA,true,4,5,NA,NA,NA,left,absent,NA,NA,m_l_013.jpg,blue,m_l_108.jpg,blue,within,NA,NaN,NA,left,2929,1,1,1077
kvd9O6Cr,3r0wocg22pm4csvtiwincc3gz22duj,3x65qveqi40tbu0f0o0dq3l73t7lc0,kvd9O6Cr,2020-0188,2021-10-14,09:57:29,11:35:44,NA,incomplete,false,NA,true,4,6,NA,NA,NA,right,absent,NA,NA,n_s_113.jpg,red,n_s_065.jpg,yellow,between,NA,NaN,NA,right,2445,1,2,843
kvd9O6Cr,3r0wocg22pm4csvtiwincc3gz22duj,3x65qveqi40tbu0f0o0dq3l73t7lc0,kvd9O6Cr,2020-0188,2021-10-14,09:57:29,11:35:44,NA,incomplete,false,NA,true,4,7,NA,NA,NA,right,absent,NA,NA,n_s_057.jpg,white,m_s_081.jpg,green,between,NA,NaN,NA,right,1375,1,1,1069
kvd9O6Cr,3r0wocg22pm4csvtiwincc3gz22duj,3x65qveqi40tbu0f0o0dq3l73t7lc0,kvd9O6Cr,2020-0188,2021-10-14,09:57:29,11:35:44,NA,incomplete,false,NA,true,4,8,NA,NA,NA,left,absent,NA,NA,m_l_097.jpg,white,n_l_087.jpg,blue,between,NA,NaN,NA,left,2662,1,1,1146
kvd9O6Cr,3r0wocg22pm4csvtiwincc3gz22duj,3x65qveqi40tbu0f0o0dq3l73t7lc0,kvd9O6Cr,2020-0188,2021-10-14,09:57:29,11:35:44,NA,incomplete,false,NA,true,4,9,NA,NA,NA,left,absent,NA,NA,m_l_048.jpg,red,n_s_034.jpg,red,within,NA,NaN,NA,right,1250,0,0,2264
kvd9O6Cr,3r0wocg22pm4csvtiwincc3gz22duj,3x65qveqi40tbu0f0o0dq3l73t7lc0,kvd9O6Cr,2020-0188,2021-10-14,09:57:29,11:35:44,NA,incomplete,false,NA,true,4,10,NA,NA,NA,right,absent,NA,NA,m_s_011.jpg,yellow,n_l_020.jpg,yellow,within,NA,NaN,NA,right,1164,1,1,766
kvd9O6Cr,3r0wocg22pm4csvtiwincc3gz22duj,3x65qveqi40tbu0f0o0dq3l73t7lc0,kvd9O6Cr,2020-0188,2021-10-14,09:57:29,11:35:44,NA,incomplete,false,true,NA,5,0,NA,brown,n_s_002.jpg,NA,NA,pleasant,unpleasant,NA,NA,NA,NA,NA,left,1886,true,NA,NA,NA,NA,NA
kvd9O6Cr,3r0wocg22pm4csvtiwincc3gz22duj,3x65qveqi40tbu0f0o0dq3l73t7lc0,kvd9O6Cr,2020-0188,2021-10-14,09:57:29,11:35:44,NA,incomplete,false,true,NA,5,1,NA,brown,n_s_058.jpg,NA,NA,pleasant,unpleasant,NA,NA,NA,NA,NA,left,1106,true,NA,NA,NA,NA,NA
kvd9O6Cr,3r0wocg22pm4csvtiwincc3gz22duj,3x65qveqi40tbu0f0o0dq3l73t7lc0,kvd9O6Cr,2020-0188,2021-10-14,09:57:29,11:35:44,NA,incomplete,false,true,NA,5,2,NA,brown,n_s_003.jpg,NA,NA,unpleasant,pleasant,NA,NA,NA,NA,NA,right,1372,true,NA,NA,NA,NA,NA
kvd9O6Cr,3r0wocg22pm4csvtiwincc3gz22duj,3x65qveqi40tbu0f0o0dq3l73t7lc0,kvd9O6Cr,2020-0188,2021-10-14,09:57:29,11:35:44,NA,incomplete,false,true,NA,5,3,NA,brown,m_l_066.jpg,NA,NA,pleasant,unpleasant,NA,NA,NA,NA,NA,left,1345,true,NA,NA,NA,NA,NA
kvd9O6Cr,3r0wocg22pm4csvtiwincc3gz22duj,3x65qveqi40tbu0f0o0dq3l73t7lc0,kvd9O6Cr,2020-0188,2021-10-14,09:57:29,11:35:44,NA,incomplete,false,true,NA,5,4,NA,brown,n_s_111.jpg,NA,NA,pleasant,unpleasant,NA,NA,NA,NA,NA,left,1889,true,NA,NA,NA,NA,NA
kvd9O6Cr,3r0wocg22pm4csvtiwincc3gz22duj,3x65qveqi40tbu0f0o0dq3l73t7lc0,kvd9O6Cr,2020-0188,2021-10-14,09:57:29,11:35:44,NA,incomplete,false,true,NA,5,5,NA,brown,n_l_045.jpg,NA,NA,pleasant,unpleasant,NA,NA,NA,NA,NA,left,907,true,NA,NA,NA,NA,NA
kvd9O6Cr,3r0wocg22pm4csvtiwincc3gz22duj,3x65qveqi40tbu0f0o0dq3l73t7lc0,kvd9O6Cr,2020-0188,2021-10-14,09:57:29,11:35:44,NA,incomplete,false,true,NA,5,6,NA,yellow,m_l_081.jpg,NA,NA,unpleasant,pleasant,NA,NA,NA,NA,NA,right,1447,true,NA,NA,NA,NA,NA
kvd9O6Cr,3r0wocg22pm4csvtiwincc3gz22duj,3x65qveqi40tbu0f0o0dq3l73t7lc0,kvd9O6Cr,2020-0188,2021-10-14,09:57:29,11:35:44,NA,incomplete,false,true,NA,5,7,NA,yellow,m_s_097.jpg,NA,NA,pleasant,unpleasant,NA,NA,NA,NA,NA,right,1648,true,NA,NA,NA,NA,NA
kvd9O6Cr,3r0wocg22pm4csvtiwincc3gz22duj,3x65qveqi40tbu0f0o0dq3l73t7lc0,kvd9O6Cr,2020-0188,2021-10-14,09:57:29,11:35:44,NA,incomplete,false,true,NA,5,8,NA,yellow,n_s_073.jpg,NA,NA,pleasant,unpleasant,NA,NA,NA,NA,NA,left,1501,true,NA,NA,NA,NA,NA
kvd9O6Cr,3r0wocg22pm4csvtiwincc3gz22duj,3x65qveqi40tbu0f0o0dq3l73t7lc0,kvd9O6Cr,2020-0188,2021-10-14,09:57:29,11:35:44,NA,incomplete,false,true,NA,5,9,NA,yellow,m_s_086.jpg,NA,NA,pleasant,unpleasant,NA,NA,NA,NA,NA,right,1864,true,NA,NA,NA,NA,NA
kvd9O6Cr,3r0wocg22pm4csvtiwincc3gz22duj,3x65qveqi40tbu0f0o0dq3l73t7lc0,kvd9O6Cr,2020-0188,2021-10-14,09:57:29,11:35:44,NA,incomplete,false,true,NA,5,10,NA,yellow,n_l_009.jpg,NA,NA,unpleasant,pleasant,NA,NA,NA,NA,NA,right,853,true,NA,NA,NA,NA,NA
kvd9O6Cr,3r0wocg22pm4csvtiwincc3gz22duj,3x65qveqi40tbu0f0o0dq3l73t7lc0,kvd9O6Cr,2020-0188,2021-10-14,09:57:29,11:35:44,NA,incomplete,false,true,NA,5,11,NA,yellow,m_l_043.jpg,NA,NA,pleasant,unpleasant,NA,NA,NA,NA,NA,left,2176,true,NA,NA,NA,NA,NA
kvd9O6Cr,3r0wocg22pm4csvtiwincc3gz22duj,3x65qveqi40tbu0f0o0dq3l73t7lc0,kvd9O6Cr,2020-0188,2021-10-14,09:57:29,11:35:44,NA,incomplete,false,true,NA,5,12,NA,green,m_s_063.jpg,NA,NA,unpleasant,pleasant,NA,NA,NA,NA,NA,right,1192,true,NA,NA,NA,NA,NA
kvd9O6Cr,3r0wocg22pm4csvtiwincc3gz22duj,3x65qveqi40tbu0f0o0dq3l73t7lc0,kvd9O6Cr,2020-0188,2021-10-14,09:57:29,11:35:44,NA,incomplete,false,true,NA,5,13,NA,green,m_l_063.jpg,NA,NA,pleasant,unpleasant,NA,NA,NA,NA,NA,left,1271,true,NA,NA,NA,NA,NA
kvd9O6Cr,3r0wocg22pm4csvtiwincc3gz22duj,3x65qveqi40tbu0f0o0dq3l73t7lc0,kvd9O6Cr,2020-0188,2021-10-14,09:57:29,11:35:44,NA,incomplete,false,true,NA,5,14,NA,green,m_s_046.jpg,NA,NA,unpleasant,pleasant,NA,NA,NA,NA,NA,right,1286,true,NA,NA,NA,NA,NA
kvd9O6Cr,3r0wocg22pm4csvtiwincc3gz22duj,3x65qveqi40tbu0f0o0dq3l73t7lc0,kvd9O6Cr,2020-0188,2021-10-14,09:57:29,11:35:44,NA,incomplete,false,true,NA,5,15,NA,green,m_s_117.jpg,NA,NA,pleasant,unpleasant,NA,NA,NA,NA,NA,left,1235,true,NA,NA,NA,NA,NA
kvd9O6Cr,3r0wocg22pm4csvtiwincc3gz22duj,3x65qveqi40tbu0f0o0dq3l73t7lc0,kvd9O6Cr,2020-0188,2021-10-14,09:57:29,11:35:44,NA,incomplete,false,true,NA,5,16,NA,green,n_s_082.jpg,NA,NA,pleasant,unpleasant,NA,NA,NA,NA,NA,left,1511,true,NA,NA,NA,NA,NA
kvd9O6Cr,3r0wocg22pm4csvtiwincc3gz22duj,3x65qveqi40tbu0f0o0dq3l73t7lc0,kvd9O6Cr,2020-0188,2021-10-14,09:57:29,11:35:44,NA,incomplete,false,true,NA,5,17,NA,green,n_s_037.jpg,NA,NA,unpleasant,pleasant,NA,NA,NA,NA,NA,right,926,true,NA,NA,NA,NA,NA
kvd9O6Cr,3r0wocg22pm4csvtiwincc3gz22duj,3x65qveqi40tbu0f0o0dq3l73t7lc0,kvd9O6Cr,2020-0188,2021-10-14,09:57:29,11:35:44,NA,incomplete,false,true,NA,5,18,NA,white,n_s_096.jpg,NA,NA,unpleasant,pleasant,NA,NA,NA,NA,NA,right,806,true,NA,NA,NA,NA,NA
kvd9O6Cr,3r0wocg22pm4csvtiwincc3gz22duj,3x65qveqi40tbu0f0o0dq3l73t7lc0,kvd9O6Cr,2020-0188,2021-10-14,09:57:29,11:35:44,NA,incomplete,false,true,NA,5,19,NA,white,n_l_016.jpg,NA,NA,unpleasant,pleasant,NA,NA,NA,NA,NA,right,1041,true,NA,NA,NA,NA,NA
kvd9O6Cr,3r0wocg22pm4csvtiwincc3gz22duj,3x65qveqi40tbu0f0o0dq3l73t7lc0,kvd9O6Cr,2020-0188,2021-10-14,09:57:29,11:35:44,NA,incomplete,false,true,NA,5,20,NA,white,n_s_099.jpg,NA,NA,unpleasant,pleasant,NA,NA,NA,NA,NA,right,956,true,NA,NA,NA,NA,NA
kvd9O6Cr,3r0wocg22pm4csvtiwincc3gz22duj,3x65qveqi40tbu0f0o0dq3l73t7lc0,kvd9O6Cr,2020-0188,2021-10-14,09:57:29,11:35:44,NA,incomplete,false,true,NA,5,21,NA,white,n_l_053.jpg,NA,NA,unpleasant,pleasant,NA,NA,NA,NA,NA,right,895,true,NA,NA,NA,NA,NA
kvd9O6Cr,3r0wocg22pm4csvtiwincc3gz22duj,3x65qveqi40tbu0f0o0dq3l73t7lc0,kvd9O6Cr,2020-0188,2021-10-14,09:57:29,11:35:44,NA,incomplete,false,true,NA,5,22,NA,white,n_s_093.jpg,NA,NA,unpleasant,pleasant,NA,NA,NA,NA,NA,left,1573,true,NA,NA,NA,NA,NA
kvd9O6Cr,3r0wocg22pm4csvtiwincc3gz22duj,3x65qveqi40tbu0f0o0dq3l73t7lc0,kvd9O6Cr,2020-0188,2021-10-14,09:57:29,11:35:44,NA,incomplete,false,true,NA,5,23,NA,white,m_s_104.jpg,NA,NA,unpleasant,pleasant,NA,NA,NA,NA,NA,right,1161,true,NA,NA,NA,NA,NA
kvd9O6Cr,3r0wocg22pm4csvtiwincc3gz22duj,3x65qveqi40tbu0f0o0dq3l73t7lc0,kvd9O6Cr,2020-0188,2021-10-14,09:57:29,11:35:44,NA,incomplete,false,true,NA,5,24,NA,gray,n_s_023.jpg,NA,NA,unpleasant,pleasant,NA,NA,NA,NA,NA,right,1543,true,NA,NA,NA,NA,NA
kvd9O6Cr,3r0wocg22pm4csvtiwincc3gz22duj,3x65qveqi40tbu0f0o0dq3l73t7lc0,kvd9O6Cr,2020-0188,2021-10-14,09:57:29,11:35:44,NA,incomplete,false,true,NA,5,25,NA,gray,n_l_061.jpg,NA,NA,unpleasant,pleasant,NA,NA,NA,NA,NA,right,943,true,NA,NA,NA,NA,NA
kvd9O6Cr,3r0wocg22pm4csvtiwincc3gz22duj,3x65qveqi40tbu0f0o0dq3l73t7lc0,kvd9O6Cr,2020-0188,2021-10-14,09:57:29,11:35:44,NA,incomplete,false,true,NA,5,26,NA,gray,n_s_046.jpg,NA,NA,pleasant,unpleasant,NA,NA,NA,NA,NA,right,1518,true,NA,NA,NA,NA,NA
kvd9O6Cr,3r0wocg22pm4csvtiwincc3gz22duj,3x65qveqi40tbu0f0o0dq3l73t7lc0,kvd9O6Cr,2020-0188,2021-10-14,09:57:29,11:35:44,NA,incomplete,false,true,NA,5,27,NA,gray,n_l_057.jpg,NA,NA,pleasant,unpleasant,NA,NA,NA,NA,NA,left,1260,true,NA,NA,NA,NA,NA
kvd9O6Cr,3r0wocg22pm4csvtiwincc3gz22duj,3x65qveqi40tbu0f0o0dq3l73t7lc0,kvd9O6Cr,2020-0188,2021-10-14,09:57:29,11:35:44,NA,incomplete,false,true,NA,5,28,NA,gray,m_s_101.jpg,NA,NA,pleasant,unpleasant,NA,NA,NA,NA,NA,left,1122,true,NA,NA,NA,NA,NA
kvd9O6Cr,3r0wocg22pm4csvtiwincc3gz22duj,3x65qveqi40tbu0f0o0dq3l73t7lc0,kvd9O6Cr,2020-0188,2021-10-14,09:57:29,11:35:44,NA,incomplete,false,true,NA,5,29,NA,gray,m_s_003.jpg,NA,NA,unpleasant,pleasant,NA,NA,NA,NA,NA,right,2021,true,NA,NA,NA,NA,NA
kvd9O6Cr,3r0wocg22pm4csvtiwincc3gz22duj,3x65qveqi40tbu0f0o0dq3l73t7lc0,kvd9O6Cr,2020-0188,2021-10-14,09:57:29,11:35:44,NA,incomplete,false,true,NA,5,30,NA,black,n_s_085.jpg,NA,NA,pleasant,unpleasant,NA,NA,NA,NA,NA,left,1764,true,NA,NA,NA,NA,NA
kvd9O6Cr,3r0wocg22pm4csvtiwincc3gz22duj,3x65qveqi40tbu0f0o0dq3l73t7lc0,kvd9O6Cr,2020-0188,2021-10-14,09:57:29,11:35:44,NA,incomplete,false,true,NA,5,31,NA,black,m_s_107.jpg,NA,NA,pleasant,unpleasant,NA,NA,NA,NA,NA,left,1185,true,NA,NA,NA,NA,NA
kvd9O6Cr,3r0wocg22pm4csvtiwincc3gz22duj,3x65qveqi40tbu0f0o0dq3l73t7lc0,kvd9O6Cr,2020-0188,2021-10-14,09:57:29,11:35:44,NA,incomplete,false,true,NA,5,32,NA,black,n_s_078.jpg,NA,NA,pleasant,unpleasant,NA,NA,NA,NA,NA,left,845,true,NA,NA,NA,NA,NA
kvd9O6Cr,3r0wocg22pm4csvtiwincc3gz22duj,3x65qveqi40tbu0f0o0dq3l73t7lc0,kvd9O6Cr,2020-0188,2021-10-14,09:57:29,11:35:44,NA,incomplete,false,true,NA,5,33,NA,black,n_s_062.jpg,NA,NA,pleasant,unpleasant,NA,NA,NA,NA,NA,left,1413,true,NA,NA,NA,NA,NA
kvd9O6Cr,3r0wocg22pm4csvtiwincc3gz22duj,3x65qveqi40tbu0f0o0dq3l73t7lc0,kvd9O6Cr,2020-0188,2021-10-14,09:57:29,11:35:44,NA,incomplete,false,true,NA,5,34,NA,black,n_s_042.jpg,NA,NA,pleasant,unpleasant,NA,NA,NA,NA,NA,left,1661,true,NA,NA,NA,NA,NA
kvd9O6Cr,3r0wocg22pm4csvtiwincc3gz22duj,3x65qveqi40tbu0f0o0dq3l73t7lc0,kvd9O6Cr,2020-0188,2021-10-14,09:57:29,11:35:44,NA,incomplete,false,true,NA,5,35,NA,black,m_s_047.jpg,NA,NA,pleasant,unpleasant,NA,NA,NA,NA,NA,left,1379,true,NA,NA,NA,NA,NA
kvd9O6Cr,3r0wocg22pm4csvtiwincc3gz22duj,3x65qveqi40tbu0f0o0dq3l73t7lc0,kvd9O6Cr,2020-0188,2021-10-14,09:57:29,11:35:44,NA,incomplete,false,NA,true,5,0,NA,NA,NA,left,present,NA,NA,n_s_058.jpg,brown,n_l_045.jpg,brown,within,NA,NaN,NA,left,2598,1,0,927
kvd9O6Cr,3r0wocg22pm4csvtiwincc3gz22duj,3x65qveqi40tbu0f0o0dq3l73t7lc0,kvd9O6Cr,2020-0188,2021-10-14,09:57:29,11:35:44,NA,incomplete,false,NA,true,5,1,NA,NA,NA,left,present,NA,NA,n_l_061.jpg,gray,m_s_003.jpg,gray,within,NA,NaN,NA,left,1873,1,0,1225
kvd9O6Cr,3r0wocg22pm4csvtiwincc3gz22duj,3x65qveqi40tbu0f0o0dq3l73t7lc0,kvd9O6Cr,2020-0188,2021-10-14,09:57:29,11:35:44,NA,incomplete,false,NA,true,5,2,NA,NA,NA,right,present,NA,NA,n_s_037.jpg,green,m_l_063.jpg,green,within,NA,NaN,NA,left,2860,0,0,1124
kvd9O6Cr,3r0wocg22pm4csvtiwincc3gz22duj,3x65qveqi40tbu0f0o0dq3l73t7lc0,kvd9O6Cr,2020-0188,2021-10-14,09:57:29,11:35:44,NA,incomplete,false,NA,true,5,3,NA,NA,NA,left,present,NA,NA,m_s_101.jpg,gray,n_s_078.jpg,black,between,NA,NaN,NA,left,2462,1,1,851
kvd9O6Cr,3r0wocg22pm4csvtiwincc3gz22duj,3x65qveqi40tbu0f0o0dq3l73t7lc0,kvd9O6Cr,2020-0188,2021-10-14,09:57:29,11:35:44,NA,incomplete,false,NA,true,5,4,NA,NA,NA,left,present,NA,NA,m_s_107.jpg,black,m_s_047.jpg,black,within,NA,NaN,NA,left,5169,1,0,828
kvd9O6Cr,3r0wocg22pm4csvtiwincc3gz22duj,3x65qveqi40tbu0f0o0dq3l73t7lc0,kvd9O6Cr,2020-0188,2021-10-14,09:57:29,11:35:44,NA,incomplete,false,NA,true,5,5,NA,NA,NA,left,present,NA,NA,n_s_111.jpg,brown,n_s_073.jpg,yellow,between,NA,NaN,NA,left,4398,1,1,1427
kvd9O6Cr,3r0wocg22pm4csvtiwincc3gz22duj,3x65qveqi40tbu0f0o0dq3l73t7lc0,kvd9O6Cr,2020-0188,2021-10-14,09:57:29,11:35:44,NA,incomplete,false,NA,true,5,6,NA,NA,NA,right,present,NA,NA,m_s_104.jpg,white,n_l_016.jpg,white,within,NA,NaN,NA,right,3390,1,0,1507
kvd9O6Cr,3r0wocg22pm4csvtiwincc3gz22duj,3x65qveqi40tbu0f0o0dq3l73t7lc0,kvd9O6Cr,2020-0188,2021-10-14,09:57:29,11:35:44,NA,incomplete,false,NA,true,5,7,NA,NA,NA,left,present,NA,NA,n_l_009.jpg,yellow,m_s_046.jpg,green,between,NA,NaN,NA,left,4115,1,1,892
kvd9O6Cr,3r0wocg22pm4csvtiwincc3gz22duj,3x65qveqi40tbu0f0o0dq3l73t7lc0,kvd9O6Cr,2020-0188,2021-10-14,09:57:29,11:35:44,NA,incomplete,false,NA,true,5,8,NA,NA,NA,left,present,NA,NA,m_s_097.jpg,yellow,m_l_043.jpg,yellow,within,NA,NaN,NA,left,4577,1,0,1648
kvd9O6Cr,3r0wocg22pm4csvtiwincc3gz22duj,3x65qveqi40tbu0f0o0dq3l73t7lc0,kvd9O6Cr,2020-0188,2021-10-14,09:57:29,11:35:44,NA,incomplete,false,NA,true,5,9,NA,NA,NA,right,present,NA,NA,n_s_099.jpg,white,n_s_082.jpg,green,between,NA,NaN,NA,right,2805,1,1,1047
kvd9O6Cr,3r0wocg22pm4csvtiwincc3gz22duj,3x65qveqi40tbu0f0o0dq3l73t7lc0,kvd9O6Cr,2020-0188,2021-10-14,09:57:29,11:35:44,NA,incomplete,false,NA,true,5,10,NA,NA,NA,left,present,NA,NA,n_s_093.jpg,white,n_s_046.jpg,gray,between,NA,NaN,NA,left,4211,1,1,648
kvd9O6Cr,3r0wocg22pm4csvtiwincc3gz22duj,3x65qveqi40tbu0f0o0dq3l73t7lc0,kvd9O6Cr,2020-0188,2021-10-14,09:57:29,11:35:44,NA,incomplete,false,true,NA,6,0,NA,blue,n_l_007.jpg,NA,NA,pleasant,unpleasant,NA,NA,NA,NA,NA,left,2203,true,NA,NA,NA,NA,NA
kvd9O6Cr,3r0wocg22pm4csvtiwincc3gz22duj,3x65qveqi40tbu0f0o0dq3l73t7lc0,kvd9O6Cr,2020-0188,2021-10-14,09:57:29,11:35:44,NA,incomplete,false,true,NA,6,1,NA,blue,n_l_046.jpg,NA,NA,unpleasant,pleasant,NA,NA,NA,NA,NA,right,1431,true,NA,NA,NA,NA,NA
kvd9O6Cr,3r0wocg22pm4csvtiwincc3gz22duj,3x65qveqi40tbu0f0o0dq3l73t7lc0,kvd9O6Cr,2020-0188,2021-10-14,09:57:29,11:35:44,NA,incomplete,false,true,NA,6,2,NA,blue,m_l_092.jpg,NA,NA,unpleasant,pleasant,NA,NA,NA,NA,NA,right,1171,true,NA,NA,NA,NA,NA
kvd9O6Cr,3r0wocg22pm4csvtiwincc3gz22duj,3x65qveqi40tbu0f0o0dq3l73t7lc0,kvd9O6Cr,2020-0188,2021-10-14,09:57:29,11:35:44,NA,incomplete,false,true,NA,6,3,NA,blue,m_l_035.jpg,NA,NA,unpleasant,pleasant,NA,NA,NA,NA,NA,right,1430,true,NA,NA,NA,NA,NA
kvd9O6Cr,3r0wocg22pm4csvtiwincc3gz22duj,3x65qveqi40tbu0f0o0dq3l73t7lc0,kvd9O6Cr,2020-0188,2021-10-14,09:57:29,11:35:44,NA,incomplete,false,true,NA,6,4,NA,blue,n_l_024.jpg,NA,NA,unpleasant,pleasant,NA,NA,NA,NA,NA,right,2084,true,NA,NA,NA,NA,NA
kvd9O6Cr,3r0wocg22pm4csvtiwincc3gz22duj,3x65qveqi40tbu0f0o0dq3l73t7lc0,kvd9O6Cr,2020-0188,2021-10-14,09:57:29,11:35:44,NA,incomplete,false,true,NA,6,5,NA,blue,n_s_104.jpg,NA,NA,pleasant,unpleasant,NA,NA,NA,NA,NA,left,928,true,NA,NA,NA,NA,NA
kvd9O6Cr,3r0wocg22pm4csvtiwincc3gz22duj,3x65qveqi40tbu0f0o0dq3l73t7lc0,kvd9O6Cr,2020-0188,2021-10-14,09:57:29,11:35:44,NA,incomplete,false,true,NA,6,6,NA,brown,m_l_028.jpg,NA,NA,unpleasant,pleasant,NA,NA,NA,NA,NA,right,1696,true,NA,NA,NA,NA,NA
kvd9O6Cr,3r0wocg22pm4csvtiwincc3gz22duj,3x65qveqi40tbu0f0o0dq3l73t7lc0,kvd9O6Cr,2020-0188,2021-10-14,09:57:29,11:35:44,NA,incomplete,false,true,NA,6,7,NA,brown,n_s_021.jpg,NA,NA,unpleasant,pleasant,NA,NA,NA,NA,NA,right,1807,true,NA,NA,NA,NA,NA
kvd9O6Cr,3r0wocg22pm4csvtiwincc3gz22duj,3x65qveqi40tbu0f0o0dq3l73t7lc0,kvd9O6Cr,2020-0188,2021-10-14,09:57:29,11:35:44,NA,incomplete,false,true,NA,6,8,NA,brown,m_l_036.jpg,NA,NA,unpleasant,pleasant,NA,NA,NA,NA,NA,right,1075,true,NA,NA,NA,NA,NA
kvd9O6Cr,3r0wocg22pm4csvtiwincc3gz22duj,3x65qveqi40tbu0f0o0dq3l73t7lc0,kvd9O6Cr,2020-0188,2021-10-14,09:57:29,11:35:44,NA,incomplete,false,true,NA,6,9,NA,brown,n_l_011.jpg,NA,NA,pleasant,unpleasant,NA,NA,NA,NA,NA,left,1978,true,NA,NA,NA,NA,NA
kvd9O6Cr,3r0wocg22pm4csvtiwincc3gz22duj,3x65qveqi40tbu0f0o0dq3l73t7lc0,kvd9O6Cr,2020-0188,2021-10-14,09:57:29,11:35:44,NA,incomplete,false,true,NA,6,10,NA,brown,m_s_034.jpg,NA,NA,unpleasant,pleasant,NA,NA,NA,NA,NA,right,1816,true,NA,NA,NA,NA,NA
kvd9O6Cr,3r0wocg22pm4csvtiwincc3gz22duj,3x65qveqi40tbu0f0o0dq3l73t7lc0,kvd9O6Cr,2020-0188,2021-10-14,09:57:29,11:35:44,NA,incomplete,false,true,NA,6,11,NA,brown,n_s_071.jpg,NA,NA,pleasant,unpleasant,NA,NA,NA,NA,NA,left,2660,true,NA,NA,NA,NA,NA
kvd9O6Cr,3r0wocg22pm4csvtiwincc3gz22duj,3x65qveqi40tbu0f0o0dq3l73t7lc0,kvd9O6Cr,2020-0188,2021-10-14,09:57:29,11:35:44,NA,incomplete,false,true,NA,6,12,NA,gray,n_l_032.jpg,NA,NA,pleasant,unpleasant,NA,NA,NA,NA,NA,left,1220,true,NA,NA,NA,NA,NA
kvd9O6Cr,3r0wocg22pm4csvtiwincc3gz22duj,3x65qveqi40tbu0f0o0dq3l73t7lc0,kvd9O6Cr,2020-0188,2021-10-14,09:57:29,11:35:44,NA,incomplete,false,true,NA,6,13,NA,gray,m_l_034.jpg,NA,NA,pleasant,unpleasant,NA,NA,NA,NA,NA,left,1099,true,NA,NA,NA,NA,NA
kvd9O6Cr,3r0wocg22pm4csvtiwincc3gz22duj,3x65qveqi40tbu0f0o0dq3l73t7lc0,kvd9O6Cr,2020-0188,2021-10-14,09:57:29,11:35:44,NA,incomplete,false,true,NA,6,14,NA,gray,m_l_079.jpg,NA,NA,unpleasant,pleasant,NA,NA,NA,NA,NA,left,1762,true,NA,NA,NA,NA,NA
kvd9O6Cr,3r0wocg22pm4csvtiwincc3gz22duj,3x65qveqi40tbu0f0o0dq3l73t7lc0,kvd9O6Cr,2020-0188,2021-10-14,09:57:29,11:35:44,NA,incomplete,false,true,NA,6,15,NA,gray,n_s_101.jpg,NA,NA,unpleasant,pleasant,NA,NA,NA,NA,NA,left,2533,true,NA,NA,NA,NA,NA
kvd9O6Cr,3r0wocg22pm4csvtiwincc3gz22duj,3x65qveqi40tbu0f0o0dq3l73t7lc0,kvd9O6Cr,2020-0188,2021-10-14,09:57:29,11:35:44,NA,incomplete,false,true,NA,6,16,NA,gray,m_s_099.jpg,NA,NA,pleasant,unpleasant,NA,NA,NA,NA,NA,left,1073,true,NA,NA,NA,NA,NA
kvd9O6Cr,3r0wocg22pm4csvtiwincc3gz22duj,3x65qveqi40tbu0f0o0dq3l73t7lc0,kvd9O6Cr,2020-0188,2021-10-14,09:57:29,11:35:44,NA,incomplete,false,true,NA,6,17,NA,gray,n_s_039.jpg,NA,NA,unpleasant,pleasant,NA,NA,NA,NA,NA,right,1261,true,NA,NA,NA,NA,NA
kvd9O6Cr,3r0wocg22pm4csvtiwincc3gz22duj,3x65qveqi40tbu0f0o0dq3l73t7lc0,kvd9O6Cr,2020-0188,2021-10-14,09:57:29,11:35:44,NA,incomplete,false,true,NA,6,18,NA,purple,n_l_004.jpg,NA,NA,pleasant,unpleasant,NA,NA,NA,NA,NA,left,2489,true,NA,NA,NA,NA,NA
kvd9O6Cr,3r0wocg22pm4csvtiwincc3gz22duj,3x65qveqi40tbu0f0o0dq3l73t7lc0,kvd9O6Cr,2020-0188,2021-10-14,09:57:29,11:35:44,NA,incomplete,false,true,NA,6,19,NA,purple,m_s_026.jpg,NA,NA,pleasant,unpleasant,NA,NA,NA,NA,NA,left,2102,true,NA,NA,NA,NA,NA
kvd9O6Cr,3r0wocg22pm4csvtiwincc3gz22duj,3x65qveqi40tbu0f0o0dq3l73t7lc0,kvd9O6Cr,2020-0188,2021-10-14,09:57:29,11:35:44,NA,incomplete,false,true,NA,6,20,NA,purple,n_s_036.jpg,NA,NA,unpleasant,pleasant,NA,NA,NA,NA,NA,right,908,true,NA,NA,NA,NA,NA
kvd9O6Cr,3r0wocg22pm4csvtiwincc3gz22duj,3x65qveqi40tbu0f0o0dq3l73t7lc0,kvd9O6Cr,2020-0188,2021-10-14,09:57:29,11:35:44,NA,incomplete,false,true,NA,6,21,NA,purple,n_s_066.jpg,NA,NA,unpleasant,pleasant,NA,NA,NA,NA,NA,right,1232,true,NA,NA,NA,NA,NA
kvd9O6Cr,3r0wocg22pm4csvtiwincc3gz22duj,3x65qveqi40tbu0f0o0dq3l73t7lc0,kvd9O6Cr,2020-0188,2021-10-14,09:57:29,11:35:44,NA,incomplete,false,true,NA,6,22,NA,purple,n_l_037.jpg,NA,NA,unpleasant,pleasant,NA,NA,NA,NA,NA,left,1036,true,NA,NA,NA,NA,NA
kvd9O6Cr,3r0wocg22pm4csvtiwincc3gz22duj,3x65qveqi40tbu0f0o0dq3l73t7lc0,kvd9O6Cr,2020-0188,2021-10-14,09:57:29,11:35:44,NA,incomplete,false,true,NA,6,23,NA,purple,m_s_049.jpg,NA,NA,unpleasant,pleasant,NA,NA,NA,NA,NA,right,887,true,NA,NA,NA,NA,NA
kvd9O6Cr,3r0wocg22pm4csvtiwincc3gz22duj,3x65qveqi40tbu0f0o0dq3l73t7lc0,kvd9O6Cr,2020-0188,2021-10-14,09:57:29,11:35:44,NA,incomplete,false,true,NA,6,24,NA,white,m_s_052.jpg,NA,NA,pleasant,unpleasant,NA,NA,NA,NA,NA,left,963,true,NA,NA,NA,NA,NA
kvd9O6Cr,3r0wocg22pm4csvtiwincc3gz22duj,3x65qveqi40tbu0f0o0dq3l73t7lc0,kvd9O6Cr,2020-0188,2021-10-14,09:57:29,11:35:44,NA,incomplete,false,true,NA,6,25,NA,white,m_s_021.jpg,NA,NA,pleasant,unpleasant,NA,NA,NA,NA,NA,left,1990,true,NA,NA,NA,NA,NA
kvd9O6Cr,3r0wocg22pm4csvtiwincc3gz22duj,3x65qveqi40tbu0f0o0dq3l73t7lc0,kvd9O6Cr,2020-0188,2021-10-14,09:57:29,11:35:44,NA,incomplete,false,true,NA,6,26,NA,white,m_s_017.jpg,NA,NA,pleasant,unpleasant,NA,NA,NA,NA,NA,left,1509,true,NA,NA,NA,NA,NA
kvd9O6Cr,3r0wocg22pm4csvtiwincc3gz22duj,3x65qveqi40tbu0f0o0dq3l73t7lc0,kvd9O6Cr,2020-0188,2021-10-14,09:57:29,11:35:44,NA,incomplete,false,true,NA,6,27,NA,white,m_l_110.jpg,NA,NA,unpleasant,pleasant,NA,NA,NA,NA,NA,right,1649,true,NA,NA,NA,NA,NA
kvd9O6Cr,3r0wocg22pm4csvtiwincc3gz22duj,3x65qveqi40tbu0f0o0dq3l73t7lc0,kvd9O6Cr,2020-0188,2021-10-14,09:57:29,11:35:44,NA,incomplete,false,true,NA,6,28,NA,white,m_s_088.jpg,NA,NA,pleasant,unpleasant,NA,NA,NA,NA,NA,right,2601,true,NA,NA,NA,NA,NA
kvd9O6Cr,3r0wocg22pm4csvtiwincc3gz22duj,3x65qveqi40tbu0f0o0dq3l73t7lc0,kvd9O6Cr,2020-0188,2021-10-14,09:57:29,11:35:44,NA,incomplete,false,true,NA,6,29,NA,white,n_l_065.jpg,NA,NA,pleasant,unpleasant,NA,NA,NA,NA,NA,left,1149,true,NA,NA,NA,NA,NA
kvd9O6Cr,3r0wocg22pm4csvtiwincc3gz22duj,3x65qveqi40tbu0f0o0dq3l73t7lc0,kvd9O6Cr,2020-0188,2021-10-14,09:57:29,11:35:44,NA,incomplete,false,true,NA,6,30,NA,green,n_s_019.jpg,NA,NA,pleasant,unpleasant,NA,NA,NA,NA,NA,left,1179,true,NA,NA,NA,NA,NA
kvd9O6Cr,3r0wocg22pm4csvtiwincc3gz22duj,3x65qveqi40tbu0f0o0dq3l73t7lc0,kvd9O6Cr,2020-0188,2021-10-14,09:57:29,11:35:44,NA,incomplete,false,true,NA,6,31,NA,green,n_s_116.jpg,NA,NA,unpleasant,pleasant,NA,NA,NA,NA,NA,left,1906,true,NA,NA,NA,NA,NA
kvd9O6Cr,3r0wocg22pm4csvtiwincc3gz22duj,3x65qveqi40tbu0f0o0dq3l73t7lc0,kvd9O6Cr,2020-0188,2021-10-14,09:57:29,11:35:44,NA,incomplete,false,true,NA,6,32,NA,green,m_l_085.jpg,NA,NA,pleasant,unpleasant,NA,NA,NA,NA,NA,left,1069,true,NA,NA,NA,NA,NA
kvd9O6Cr,3r0wocg22pm4csvtiwincc3gz22duj,3x65qveqi40tbu0f0o0dq3l73t7lc0,kvd9O6Cr,2020-0188,2021-10-14,09:57:29,11:35:44,NA,incomplete,false,true,NA,6,33,NA,green,m_l_089.jpg,NA,NA,unpleasant,pleasant,NA,NA,NA,NA,NA,right,1394,true,NA,NA,NA,NA,NA
kvd9O6Cr,3r0wocg22pm4csvtiwincc3gz22duj,3x65qveqi40tbu0f0o0dq3l73t7lc0,kvd9O6Cr,2020-0188,2021-10-14,09:57:29,11:35:44,NA,incomplete,false,true,NA,6,34,NA,green,m_l_080.jpg,NA,NA,unpleasant,pleasant,NA,NA,NA,NA,NA,right,2026,true,NA,NA,NA,NA,NA
kvd9O6Cr,3r0wocg22pm4csvtiwincc3gz22duj,3x65qveqi40tbu0f0o0dq3l73t7lc0,kvd9O6Cr,2020-0188,2021-10-14,09:57:29,11:35:44,NA,incomplete,false,true,NA,6,35,NA,green,m_s_085.jpg,NA,NA,pleasant,unpleasant,NA,NA,NA,NA,NA,left,1243,true,NA,NA,NA,NA,NA
kvd9O6Cr,3r0wocg22pm4csvtiwincc3gz22duj,3x65qveqi40tbu0f0o0dq3l73t7lc0,kvd9O6Cr,2020-0188,2021-10-14,09:57:29,11:35:44,NA,incomplete,false,NA,true,6,0,NA,NA,NA,right,absent,NA,NA,m_l_079.jpg,gray,m_s_034.jpg,brown,between,NA,NaN,NA,right,2335,1,1,1101
kvd9O6Cr,3r0wocg22pm4csvtiwincc3gz22duj,3x65qveqi40tbu0f0o0dq3l73t7lc0,kvd9O6Cr,2020-0188,2021-10-14,09:57:29,11:35:44,NA,incomplete,false,NA,true,6,1,NA,NA,NA,left,absent,NA,NA,m_s_099.jpg,gray,n_s_036.jpg,purple,between,NA,NaN,NA,right,1905,0,2,1079
kvd9O6Cr,3r0wocg22pm4csvtiwincc3gz22duj,3x65qveqi40tbu0f0o0dq3l73t7lc0,kvd9O6Cr,2020-0188,2021-10-14,09:57:29,11:35:44,NA,incomplete,false,NA,true,6,2,NA,NA,NA,right,absent,NA,NA,n_l_065.jpg,white,m_s_021.jpg,white,within,NA,NaN,NA,left,1802,0,1,773
kvd9O6Cr,3r0wocg22pm4csvtiwincc3gz22duj,3x65qveqi40tbu0f0o0dq3l73t7lc0,kvd9O6Cr,2020-0188,2021-10-14,09:57:29,11:35:44,NA,incomplete,false,NA,true,6,3,NA,NA,NA,left,absent,NA,NA,n_s_021.jpg,brown,n_s_071.jpg,brown,within,NA,NaN,NA,left,1851,1,2,804
kvd9O6Cr,3r0wocg22pm4csvtiwincc3gz22duj,3x65qveqi40tbu0f0o0dq3l73t7lc0,kvd9O6Cr,2020-0188,2021-10-14,09:57:29,11:35:44,NA,incomplete,false,NA,true,6,4,NA,NA,NA,left,absent,NA,NA,n_l_046.jpg,blue,n_s_104.jpg,blue,within,NA,NaN,NA,left,2547,1,1,672
kvd9O6Cr,3r0wocg22pm4csvtiwincc3gz22duj,3x65qveqi40tbu0f0o0dq3l73t7lc0,kvd9O6Cr,2020-0188,2021-10-14,09:57:29,11:35:44,NA,incomplete,false,NA,true,6,5,NA,NA,NA,left,absent,NA,NA,n_s_116.jpg,green,m_s_085.jpg,green,within,NA,NaN,NA,left,1788,1,1,1044
kvd9O6Cr,3r0wocg22pm4csvtiwincc3gz22duj,3x65qveqi40tbu0f0o0dq3l73t7lc0,kvd9O6Cr,2020-0188,2021-10-14,09:57:29,11:35:44,NA,incomplete,false,NA,true,6,6,NA,NA,NA,left,absent,NA,NA,n_l_037.jpg,purple,m_s_017.jpg,white,between,NA,NaN,NA,left,2540,1,2,616
kvd9O6Cr,3r0wocg22pm4csvtiwincc3gz22duj,3x65qveqi40tbu0f0o0dq3l73t7lc0,kvd9O6Cr,2020-0188,2021-10-14,09:57:29,11:35:44,NA,incomplete,false,NA,true,6,7,NA,NA,NA,right,absent,NA,NA,m_l_085.jpg,green,m_s_088.jpg,white,between,NA,NaN,NA,right,3812,1,1,794
kvd9O6Cr,3r0wocg22pm4csvtiwincc3gz22duj,3x65qveqi40tbu0f0o0dq3l73t7lc0,kvd9O6Cr,2020-0188,2021-10-14,09:57:29,11:35:44,NA,incomplete,false,NA,true,6,8,NA,NA,NA,right,absent,NA,NA,m_s_049.jpg,purple,m_s_026.jpg,purple,within,NA,NaN,NA,left,3013,0,1,1132
kvd9O6Cr,3r0wocg22pm4csvtiwincc3gz22duj,3x65qveqi40tbu0f0o0dq3l73t7lc0,kvd9O6Cr,2020-0188,2021-10-14,09:57:29,11:35:44,NA,incomplete,false,NA,true,6,9,NA,NA,NA,right,absent,NA,NA,n_s_039.jpg,gray,m_l_034.jpg,gray,within,NA,NaN,NA,right,4023,1,0,1032
kvd9O6Cr,3r0wocg22pm4csvtiwincc3gz22duj,3x65qveqi40tbu0f0o0dq3l73t7lc0,kvd9O6Cr,2020-0188,2021-10-14,09:57:29,11:35:44,NA,incomplete,false,NA,true,6,10,NA,NA,NA,left,absent,NA,NA,n_l_024.jpg,blue,m_l_036.jpg,brown,between,NA,NaN,NA,left,2570,1,1,921
kvd9O6Cr,3r0wocg22pm4csvtiwincc3gz22duj,3x65qveqi40tbu0f0o0dq3l73t7lc0,kvd9O6Cr,2020-0188,2021-10-14,09:57:29,11:35:44,NA,incomplete,false,true,NA,7,0,NA,yellow,n_l_115.jpg,NA,NA,unpleasant,pleasant,NA,NA,NA,NA,NA,right,1783,true,NA,NA,NA,NA,NA
kvd9O6Cr,3r0wocg22pm4csvtiwincc3gz22duj,3x65qveqi40tbu0f0o0dq3l73t7lc0,kvd9O6Cr,2020-0188,2021-10-14,09:57:29,11:35:44,NA,incomplete,false,true,NA,7,1,NA,yellow,n_s_059.jpg,NA,NA,pleasant,unpleasant,NA,NA,NA,NA,NA,left,1650,true,NA,NA,NA,NA,NA
kvd9O6Cr,3r0wocg22pm4csvtiwincc3gz22duj,3x65qveqi40tbu0f0o0dq3l73t7lc0,kvd9O6Cr,2020-0188,2021-10-14,09:57:29,11:35:44,NA,incomplete,false,true,NA,7,2,NA,yellow,n_l_089.jpg,NA,NA,pleasant,unpleasant,NA,NA,NA,NA,NA,left,1447,true,NA,NA,NA,NA,NA
kvd9O6Cr,3r0wocg22pm4csvtiwincc3gz22duj,3x65qveqi40tbu0f0o0dq3l73t7lc0,kvd9O6Cr,2020-0188,2021-10-14,09:57:29,11:35:44,NA,incomplete,false,true,NA,7,3,NA,yellow,n_l_094.jpg,NA,NA,pleasant,unpleasant,NA,NA,NA,NA,NA,left,828,true,NA,NA,NA,NA,NA
kvd9O6Cr,3r0wocg22pm4csvtiwincc3gz22duj,3x65qveqi40tbu0f0o0dq3l73t7lc0,kvd9O6Cr,2020-0188,2021-10-14,09:57:29,11:35:44,NA,incomplete,false,true,NA,7,4,NA,yellow,n_l_059.jpg,NA,NA,unpleasant,pleasant,NA,NA,NA,NA,NA,right,865,true,NA,NA,NA,NA,NA
kvd9O6Cr,3r0wocg22pm4csvtiwincc3gz22duj,3x65qveqi40tbu0f0o0dq3l73t7lc0,kvd9O6Cr,2020-0188,2021-10-14,09:57:29,11:35:44,NA,incomplete,false,true,NA,7,5,NA,yellow,n_l_006.jpg,NA,NA,pleasant,unpleasant,NA,NA,NA,NA,NA,left,844,true,NA,NA,NA,NA,NA
kvd9O6Cr,3r0wocg22pm4csvtiwincc3gz22duj,3x65qveqi40tbu0f0o0dq3l73t7lc0,kvd9O6Cr,2020-0188,2021-10-14,09:57:29,11:35:44,NA,incomplete,false,true,NA,7,6,NA,orange,n_l_056.jpg,NA,NA,pleasant,unpleasant,NA,NA,NA,NA,NA,left,2615,true,NA,NA,NA,NA,NA
kvd9O6Cr,3r0wocg22pm4csvtiwincc3gz22duj,3x65qveqi40tbu0f0o0dq3l73t7lc0,kvd9O6Cr,2020-0188,2021-10-14,09:57:29,11:35:44,NA,incomplete,false,true,NA,7,7,NA,orange,n_s_090.jpg,NA,NA,pleasant,unpleasant,NA,NA,NA,NA,NA,left,1751,true,NA,NA,NA,NA,NA
kvd9O6Cr,3r0wocg22pm4csvtiwincc3gz22duj,3x65qveqi40tbu0f0o0dq3l73t7lc0,kvd9O6Cr,2020-0188,2021-10-14,09:57:29,11:35:44,NA,incomplete,false,true,NA,7,8,NA,orange,n_s_024.jpg,NA,NA,unpleasant,pleasant,NA,NA,NA,NA,NA,right,1675,true,NA,NA,NA,NA,NA
kvd9O6Cr,3r0wocg22pm4csvtiwincc3gz22duj,3x65qveqi40tbu0f0o0dq3l73t7lc0,kvd9O6Cr,2020-0188,2021-10-14,09:57:29,11:35:44,NA,incomplete,false,true,NA,7,9,NA,orange,m_l_037.jpg,NA,NA,unpleasant,pleasant,NA,NA,NA,NA,NA,right,2718,true,NA,NA,NA,NA,NA
kvd9O6Cr,3r0wocg22pm4csvtiwincc3gz22duj,3x65qveqi40tbu0f0o0dq3l73t7lc0,kvd9O6Cr,2020-0188,2021-10-14,09:57:29,11:35:44,NA,incomplete,false,true,NA,7,10,NA,orange,n_l_033.jpg,NA,NA,unpleasant,pleasant,NA,NA,NA,NA,NA,right,1657,true,NA,NA,NA,NA,NA
kvd9O6Cr,3r0wocg22pm4csvtiwincc3gz22duj,3x65qveqi40tbu0f0o0dq3l73t7lc0,kvd9O6Cr,2020-0188,2021-10-14,09:57:29,11:35:44,NA,incomplete,false,true,NA,7,11,NA,orange,n_s_084.jpg,NA,NA,unpleasant,pleasant,NA,NA,NA,NA,NA,right,1137,true,NA,NA,NA,NA,NA
kvd9O6Cr,3r0wocg22pm4csvtiwincc3gz22duj,3x65qveqi40tbu0f0o0dq3l73t7lc0,kvd9O6Cr,2020-0188,2021-10-14,09:57:29,11:35:44,NA,incomplete,false,true,NA,7,12,NA,purple,m_l_040.jpg,NA,NA,unpleasant,pleasant,NA,NA,NA,NA,NA,right,1373,true,NA,NA,NA,NA,NA
kvd9O6Cr,3r0wocg22pm4csvtiwincc3gz22duj,3x65qveqi40tbu0f0o0dq3l73t7lc0,kvd9O6Cr,2020-0188,2021-10-14,09:57:29,11:35:44,NA,incomplete,false,true,NA,7,13,NA,purple,n_l_002.jpg,NA,NA,unpleasant,pleasant,NA,NA,NA,NA,NA,right,1001,true,NA,NA,NA,NA,NA
kvd9O6Cr,3r0wocg22pm4csvtiwincc3gz22duj,3x65qveqi40tbu0f0o0dq3l73t7lc0,kvd9O6Cr,2020-0188,2021-10-14,09:57:29,11:35:44,NA,incomplete,false,true,NA,7,14,NA,purple,n_s_068.jpg,NA,NA,unpleasant,pleasant,NA,NA,NA,NA,NA,right,1038,true,NA,NA,NA,NA,NA
kvd9O6Cr,3r0wocg22pm4csvtiwincc3gz22duj,3x65qveqi40tbu0f0o0dq3l73t7lc0,kvd9O6Cr,2020-0188,2021-10-14,09:57:29,11:35:44,NA,incomplete,false,true,NA,7,15,NA,purple,m_s_114.jpg,NA,NA,pleasant,unpleasant,NA,NA,NA,NA,NA,left,1089,true,NA,NA,NA,NA,NA
kvd9O6Cr,3r0wocg22pm4csvtiwincc3gz22duj,3x65qveqi40tbu0f0o0dq3l73t7lc0,kvd9O6Cr,2020-0188,2021-10-14,09:57:29,11:35:44,NA,incomplete,false,true,NA,7,16,NA,purple,m_l_112.jpg,NA,NA,unpleasant,pleasant,NA,NA,NA,NA,NA,right,1203,true,NA,NA,NA,NA,NA
kvd9O6Cr,3r0wocg22pm4csvtiwincc3gz22duj,3x65qveqi40tbu0f0o0dq3l73t7lc0,kvd9O6Cr,2020-0188,2021-10-14,09:57:29,11:35:44,NA,incomplete,false,true,NA,7,17,NA,purple,n_s_106.jpg,NA,NA,unpleasant,pleasant,NA,NA,NA,NA,NA,right,2719,true,NA,NA,NA,NA,NA
kvd9O6Cr,3r0wocg22pm4csvtiwincc3gz22duj,3x65qveqi40tbu0f0o0dq3l73t7lc0,kvd9O6Cr,2020-0188,2021-10-14,09:57:29,11:35:44,NA,incomplete,false,true,NA,7,18,NA,green,m_s_035.jpg,NA,NA,unpleasant,pleasant,NA,NA,NA,NA,NA,right,2154,true,NA,NA,NA,NA,NA
kvd9O6Cr,3r0wocg22pm4csvtiwincc3gz22duj,3x65qveqi40tbu0f0o0dq3l73t7lc0,kvd9O6Cr,2020-0188,2021-10-14,09:57:29,11:35:44,NA,incomplete,false,true,NA,7,19,NA,green,n_s_029.jpg,NA,NA,unpleasant,pleasant,NA,NA,NA,NA,NA,right,2390,true,NA,NA,NA,NA,NA
kvd9O6Cr,3r0wocg22pm4csvtiwincc3gz22duj,3x65qveqi40tbu0f0o0dq3l73t7lc0,kvd9O6Cr,2020-0188,2021-10-14,09:57:29,11:35:44,NA,incomplete,false,true,NA,7,20,NA,green,m_s_002.jpg,NA,NA,pleasant,unpleasant,NA,NA,NA,NA,NA,left,1977,true,NA,NA,NA,NA,NA
kvd9O6Cr,3r0wocg22pm4csvtiwincc3gz22duj,3x65qveqi40tbu0f0o0dq3l73t7lc0,kvd9O6Cr,2020-0188,2021-10-14,09:57:29,11:35:44,NA,incomplete,false,true,NA,7,21,NA,green,m_l_008.jpg,NA,NA,unpleasant,pleasant,NA,NA,NA,NA,NA,right,986,true,NA,NA,NA,NA,NA
kvd9O6Cr,3r0wocg22pm4csvtiwincc3gz22duj,3x65qveqi40tbu0f0o0dq3l73t7lc0,kvd9O6Cr,2020-0188,2021-10-14,09:57:29,11:35:44,NA,incomplete,false,true,NA,7,22,NA,green,n_l_077.jpg,NA,NA,pleasant,unpleasant,NA,NA,NA,NA,NA,left,1302,true,NA,NA,NA,NA,NA
kvd9O6Cr,3r0wocg22pm4csvtiwincc3gz22duj,3x65qveqi40tbu0f0o0dq3l73t7lc0,kvd9O6Cr,2020-0188,2021-10-14,09:57:29,11:35:44,NA,incomplete,false,true,NA,7,23,NA,green,n_s_033.jpg,NA,NA,unpleasant,pleasant,NA,NA,NA,NA,NA,right,970,true,NA,NA,NA,NA,NA
kvd9O6Cr,3r0wocg22pm4csvtiwincc3gz22duj,3x65qveqi40tbu0f0o0dq3l73t7lc0,kvd9O6Cr,2020-0188,2021-10-14,09:57:29,11:35:44,NA,incomplete,false,true,NA,7,24,NA,red,m_s_053.jpg,NA,NA,pleasant,unpleasant,NA,NA,NA,NA,NA,left,3042,true,NA,NA,NA,NA,NA
kvd9O6Cr,3r0wocg22pm4csvtiwincc3gz22duj,3x65qveqi40tbu0f0o0dq3l73t7lc0,kvd9O6Cr,2020-0188,2021-10-14,09:57:29,11:35:44,NA,incomplete,false,true,NA,7,25,NA,red,n_l_044.jpg,NA,NA,unpleasant,pleasant,NA,NA,NA,NA,NA,right,1750,true,NA,NA,NA,NA,NA
kvd9O6Cr,3r0wocg22pm4csvtiwincc3gz22duj,3x65qveqi40tbu0f0o0dq3l73t7lc0,kvd9O6Cr,2020-0188,2021-10-14,09:57:29,11:35:44,NA,incomplete,false,true,NA,7,26,NA,red,n_l_076.jpg,NA,NA,pleasant,unpleasant,NA,NA,NA,NA,NA,left,2498,true,NA,NA,NA,NA,NA
kvd9O6Cr,3r0wocg22pm4csvtiwincc3gz22duj,3x65qveqi40tbu0f0o0dq3l73t7lc0,kvd9O6Cr,2020-0188,2021-10-14,09:57:29,11:35:44,NA,incomplete,false,true,NA,7,27,NA,red,n_s_076.jpg,NA,NA,pleasant,unpleasant,NA,NA,NA,NA,NA,left,2601,true,NA,NA,NA,NA,NA
kvd9O6Cr,3r0wocg22pm4csvtiwincc3gz22duj,3x65qveqi40tbu0f0o0dq3l73t7lc0,kvd9O6Cr,2020-0188,2021-10-14,09:57:29,11:35:44,NA,incomplete,false,true,NA,7,28,NA,red,m_s_041.jpg,NA,NA,unpleasant,pleasant,NA,NA,NA,NA,NA,right,1213,true,NA,NA,NA,NA,NA
kvd9O6Cr,3r0wocg22pm4csvtiwincc3gz22duj,3x65qveqi40tbu0f0o0dq3l73t7lc0,kvd9O6Cr,2020-0188,2021-10-14,09:57:29,11:35:44,NA,incomplete,false,true,NA,7,29,NA,red,m_s_048.jpg,NA,NA,unpleasant,pleasant,NA,NA,NA,NA,NA,right,977,true,NA,NA,NA,NA,NA
kvd9O6Cr,3r0wocg22pm4csvtiwincc3gz22duj,3x65qveqi40tbu0f0o0dq3l73t7lc0,kvd9O6Cr,2020-0188,2021-10-14,09:57:29,11:35:44,NA,incomplete,false,true,NA,7,30,NA,gray,m_s_113.jpg,NA,NA,unpleasant,pleasant,NA,NA,NA,NA,NA,right,1209,true,NA,NA,NA,NA,NA
kvd9O6Cr,3r0wocg22pm4csvtiwincc3gz22duj,3x65qveqi40tbu0f0o0dq3l73t7lc0,kvd9O6Cr,2020-0188,2021-10-14,09:57:29,11:35:44,NA,incomplete,false,true,NA,7,31,NA,gray,n_s_027.jpg,NA,NA,unpleasant,pleasant,NA,NA,NA,NA,NA,right,1041,true,NA,NA,NA,NA,NA
kvd9O6Cr,3r0wocg22pm4csvtiwincc3gz22duj,3x65qveqi40tbu0f0o0dq3l73t7lc0,kvd9O6Cr,2020-0188,2021-10-14,09:57:29,11:35:44,NA,incomplete,false,true,NA,7,32,NA,gray,m_l_047.jpg,NA,NA,unpleasant,pleasant,NA,NA,NA,NA,NA,right,1566,true,NA,NA,NA,NA,NA
kvd9O6Cr,3r0wocg22pm4csvtiwincc3gz22duj,3x65qveqi40tbu0f0o0dq3l73t7lc0,kvd9O6Cr,2020-0188,2021-10-14,09:57:29,11:35:44,NA,incomplete,false,true,NA,7,33,NA,gray,n_l_117.jpg,NA,NA,unpleasant,pleasant,NA,NA,NA,NA,NA,right,787,true,NA,NA,NA,NA,NA
kvd9O6Cr,3r0wocg22pm4csvtiwincc3gz22duj,3x65qveqi40tbu0f0o0dq3l73t7lc0,kvd9O6Cr,2020-0188,2021-10-14,09:57:29,11:35:44,NA,incomplete,false,true,NA,7,34,NA,gray,n_l_062.jpg,NA,NA,unpleasant,pleasant,NA,NA,NA,NA,NA,right,2126,true,NA,NA,NA,NA,NA
kvd9O6Cr,3r0wocg22pm4csvtiwincc3gz22duj,3x65qveqi40tbu0f0o0dq3l73t7lc0,kvd9O6Cr,2020-0188,2021-10-14,09:57:29,11:35:44,NA,incomplete,false,true,NA,7,35,NA,gray,n_s_049.jpg,NA,NA,pleasant,unpleasant,NA,NA,NA,NA,NA,right,1975,true,NA,NA,NA,NA,NA
kvd9O6Cr,3r0wocg22pm4csvtiwincc3gz22duj,3x65qveqi40tbu0f0o0dq3l73t7lc0,kvd9O6Cr,2020-0188,2021-10-14,09:57:29,11:35:44,NA,incomplete,false,NA,true,7,0,NA,NA,NA,left,present,NA,NA,n_l_044.jpg,red,m_s_048.jpg,red,within,NA,NaN,NA,left,5742,1,0,1311
kvd9O6Cr,3r0wocg22pm4csvtiwincc3gz22duj,3x65qveqi40tbu0f0o0dq3l73t7lc0,kvd9O6Cr,2020-0188,2021-10-14,09:57:29,11:35:44,NA,incomplete,false,NA,true,7,1,NA,NA,NA,right,present,NA,NA,n_s_049.jpg,gray,n_s_027.jpg,gray,within,NA,NaN,NA,left,6577,0,0,2031
kvd9O6Cr,3r0wocg22pm4csvtiwincc3gz22duj,3x65qveqi40tbu0f0o0dq3l73t7lc0,kvd9O6Cr,2020-0188,2021-10-14,09:57:29,11:35:44,NA,incomplete,false,NA,true,7,2,NA,NA,NA,left,present,NA,NA,n_s_029.jpg,green,n_s_033.jpg,green,within,NA,NaN,NA,right,2023,0,0,1027
kvd9O6Cr,3r0wocg22pm4csvtiwincc3gz22duj,3x65qveqi40tbu0f0o0dq3l73t7lc0,kvd9O6Cr,2020-0188,2021-10-14,09:57:29,11:35:44,NA,incomplete,false,NA,true,7,3,NA,NA,NA,right,present,NA,NA,n_l_076.jpg,red,n_l_077.jpg,green,between,NA,NaN,NA,right,4452,1,1,1139
kvd9O6Cr,3r0wocg22pm4csvtiwincc3gz22duj,3x65qveqi40tbu0f0o0dq3l73t7lc0,kvd9O6Cr,2020-0188,2021-10-14,09:57:29,11:35:44,NA,incomplete,false,NA,true,7,4,NA,NA,NA,left,present,NA,NA,n_l_002.jpg,purple,n_s_106.jpg,purple,within,NA,NaN,NA,left,2108,1,0,1477
kvd9O6Cr,3r0wocg22pm4csvtiwincc3gz22duj,3x65qveqi40tbu0f0o0dq3l73t7lc0,kvd9O6Cr,2020-0188,2021-10-14,09:57:29,11:35:44,NA,incomplete,false,NA,true,7,5,NA,NA,NA,right,present,NA,NA,n_s_068.jpg,purple,n_l_033.jpg,orange,between,NA,NaN,NA,right,3216,1,1,937
kvd9O6Cr,3r0wocg22pm4csvtiwincc3gz22duj,3x65qveqi40tbu0f0o0dq3l73t7lc0,kvd9O6Cr,2020-0188,2021-10-14,09:57:29,11:35:44,NA,incomplete,false,NA,true,7,6,NA,NA,NA,right,present,NA,NA,n_l_006.jpg,yellow,n_s_059.jpg,yellow,within,NA,NaN,NA,right,6656,1,0,1187
kvd9O6Cr,3r0wocg22pm4csvtiwincc3gz22duj,3x65qveqi40tbu0f0o0dq3l73t7lc0,kvd9O6Cr,2020-0188,2021-10-14,09:57:29,11:35:44,NA,incomplete,false,NA,true,7,7,NA,NA,NA,right,present,NA,NA,m_s_002.jpg,green,m_l_112.jpg,purple,between,NA,NaN,NA,right,3427,1,1,757
kvd9O6Cr,3r0wocg22pm4csvtiwincc3gz22duj,3x65qveqi40tbu0f0o0dq3l73t7lc0,kvd9O6Cr,2020-0188,2021-10-14,09:57:29,11:35:44,NA,incomplete,false,NA,true,7,8,NA,NA,NA,left,present,NA,NA,m_s_041.jpg,red,m_l_047.jpg,gray,between,NA,NaN,NA,left,2515,1,2,1187
kvd9O6Cr,3r0wocg22pm4csvtiwincc3gz22duj,3x65qveqi40tbu0f0o0dq3l73t7lc0,kvd9O6Cr,2020-0188,2021-10-14,09:57:29,11:35:44,NA,incomplete,false,NA,true,7,9,NA,NA,NA,right,present,NA,NA,n_s_024.jpg,orange,n_l_059.jpg,yellow,between,NA,NaN,NA,right,2297,1,1,835
kvd9O6Cr,3r0wocg22pm4csvtiwincc3gz22duj,3x65qveqi40tbu0f0o0dq3l73t7lc0,kvd9O6Cr,2020-0188,2021-10-14,09:57:29,11:35:44,NA,incomplete,false,NA,true,7,10,NA,NA,NA,right,present,NA,NA,n_s_084.jpg,orange,n_s_090.jpg,orange,within,NA,NaN,NA,left,1642,0,0,1476
kvd9O6Cr,3r0wocg22pm4csvtiwincc3gz22duj,3x65qveqi40tbu0f0o0dq3l73t7lc0,kvd9O6Cr,2020-0188,2021-10-14,09:57:29,11:35:44,NA,incomplete,false,true,NA,8,0,NA,gray,n_l_028.jpg,NA,NA,unpleasant,pleasant,NA,NA,NA,NA,NA,right,1879,true,NA,NA,NA,NA,NA
kvd9O6Cr,3r0wocg22pm4csvtiwincc3gz22duj,3x65qveqi40tbu0f0o0dq3l73t7lc0,kvd9O6Cr,2020-0188,2021-10-14,09:57:29,11:35:44,NA,incomplete,false,true,NA,8,1,NA,gray,n_l_083.jpg,NA,NA,unpleasant,pleasant,NA,NA,NA,NA,NA,right,1802,true,NA,NA,NA,NA,NA
kvd9O6Cr,3r0wocg22pm4csvtiwincc3gz22duj,3x65qveqi40tbu0f0o0dq3l73t7lc0,kvd9O6Cr,2020-0188,2021-10-14,09:57:29,11:35:44,NA,incomplete,false,true,NA,8,2,NA,gray,m_s_038.jpg,NA,NA,unpleasant,pleasant,NA,NA,NA,NA,NA,right,1865,true,NA,NA,NA,NA,NA
kvd9O6Cr,3r0wocg22pm4csvtiwincc3gz22duj,3x65qveqi40tbu0f0o0dq3l73t7lc0,kvd9O6Cr,2020-0188,2021-10-14,09:57:29,11:35:44,NA,incomplete,false,true,NA,8,3,NA,gray,m_l_061.jpg,NA,NA,unpleasant,pleasant,NA,NA,NA,NA,NA,right,1525,true,NA,NA,NA,NA,NA
kvd9O6Cr,3r0wocg22pm4csvtiwincc3gz22duj,3x65qveqi40tbu0f0o0dq3l73t7lc0,kvd9O6Cr,2020-0188,2021-10-14,09:57:29,11:35:44,NA,incomplete,false,true,NA,8,4,NA,gray,n_l_101.jpg,NA,NA,unpleasant,pleasant,NA,NA,NA,NA,NA,right,1013,true,NA,NA,NA,NA,NA
kvd9O6Cr,3r0wocg22pm4csvtiwincc3gz22duj,3x65qveqi40tbu0f0o0dq3l73t7lc0,kvd9O6Cr,2020-0188,2021-10-14,09:57:29,11:35:44,NA,incomplete,false,true,NA,8,5,NA,gray,m_s_031.jpg,NA,NA,pleasant,unpleasant,NA,NA,NA,NA,NA,right,989,true,NA,NA,NA,NA,NA
kvd9O6Cr,3r0wocg22pm4csvtiwincc3gz22duj,3x65qveqi40tbu0f0o0dq3l73t7lc0,kvd9O6Cr,2020-0188,2021-10-14,09:57:29,11:35:44,NA,incomplete,false,true,NA,8,6,NA,white,m_l_029.jpg,NA,NA,unpleasant,pleasant,NA,NA,NA,NA,NA,right,826,true,NA,NA,NA,NA,NA
kvd9O6Cr,3r0wocg22pm4csvtiwincc3gz22duj,3x65qveqi40tbu0f0o0dq3l73t7lc0,kvd9O6Cr,2020-0188,2021-10-14,09:57:29,11:35:44,NA,incomplete,false,true,NA,8,7,NA,white,m_s_100.jpg,NA,NA,unpleasant,pleasant,NA,NA,NA,NA,NA,right,993,true,NA,NA,NA,NA,NA
kvd9O6Cr,3r0wocg22pm4csvtiwincc3gz22duj,3x65qveqi40tbu0f0o0dq3l73t7lc0,kvd9O6Cr,2020-0188,2021-10-14,09:57:29,11:35:44,NA,incomplete,false,true,NA,8,8,NA,white,m_l_095.jpg,NA,NA,unpleasant,pleasant,NA,NA,NA,NA,NA,right,953,true,NA,NA,NA,NA,NA
kvd9O6Cr,3r0wocg22pm4csvtiwincc3gz22duj,3x65qveqi40tbu0f0o0dq3l73t7lc0,kvd9O6Cr,2020-0188,2021-10-14,09:57:29,11:35:44,NA,incomplete,false,true,NA,8,9,NA,white,n_l_069.jpg,NA,NA,unpleasant,pleasant,NA,NA,NA,NA,NA,right,783,true,NA,NA,NA,NA,NA
kvd9O6Cr,3r0wocg22pm4csvtiwincc3gz22duj,3x65qveqi40tbu0f0o0dq3l73t7lc0,kvd9O6Cr,2020-0188,2021-10-14,09:57:29,11:35:44,NA,incomplete,false,true,NA,8,10,NA,white,n_l_055.jpg,NA,NA,unpleasant,pleasant,NA,NA,NA,NA,NA,right,1036,true,NA,NA,NA,NA,NA
kvd9O6Cr,3r0wocg22pm4csvtiwincc3gz22duj,3x65qveqi40tbu0f0o0dq3l73t7lc0,kvd9O6Cr,2020-0188,2021-10-14,09:57:29,11:35:44,NA,incomplete,false,true,NA,8,11,NA,white,m_l_106.jpg,NA,NA,unpleasant,pleasant,NA,NA,NA,NA,NA,right,1025,true,NA,NA,NA,NA,NA
kvd9O6Cr,3r0wocg22pm4csvtiwincc3gz22duj,3x65qveqi40tbu0f0o0dq3l73t7lc0,kvd9O6Cr,2020-0188,2021-10-14,09:57:29,11:35:44,NA,incomplete,false,true,NA,8,12,NA,yellow,n_l_047.jpg,NA,NA,pleasant,unpleasant,NA,NA,NA,NA,NA,left,2148,true,NA,NA,NA,NA,NA
kvd9O6Cr,3r0wocg22pm4csvtiwincc3gz22duj,3x65qveqi40tbu0f0o0dq3l73t7lc0,kvd9O6Cr,2020-0188,2021-10-14,09:57:29,11:35:44,NA,incomplete,false,true,NA,8,13,NA,yellow,n_s_017.jpg,NA,NA,unpleasant,pleasant,NA,NA,NA,NA,NA,right,1610,true,NA,NA,NA,NA,NA
kvd9O6Cr,3r0wocg22pm4csvtiwincc3gz22duj,3x65qveqi40tbu0f0o0dq3l73t7lc0,kvd9O6Cr,2020-0188,2021-10-14,09:57:29,11:35:44,NA,incomplete,false,true,NA,8,14,NA,yellow,n_l_107.jpg,NA,NA,unpleasant,pleasant,NA,NA,NA,NA,NA,right,994,true,NA,NA,NA,NA,NA
kvd9O6Cr,3r0wocg22pm4csvtiwincc3gz22duj,3x65qveqi40tbu0f0o0dq3l73t7lc0,kvd9O6Cr,2020-0188,2021-10-14,09:57:29,11:35:44,NA,incomplete,false,true,NA,8,15,NA,yellow,n_s_083.jpg,NA,NA,unpleasant,pleasant,NA,NA,NA,NA,NA,right,955,true,NA,NA,NA,NA,NA
kvd9O6Cr,3r0wocg22pm4csvtiwincc3gz22duj,3x65qveqi40tbu0f0o0dq3l73t7lc0,kvd9O6Cr,2020-0188,2021-10-14,09:57:29,11:35:44,NA,incomplete,false,true,NA,8,16,NA,yellow,n_l_099.jpg,NA,NA,pleasant,unpleasant,NA,NA,NA,NA,NA,left,1309,true,NA,NA,NA,NA,NA
kvd9O6Cr,3r0wocg22pm4csvtiwincc3gz22duj,3x65qveqi40tbu0f0o0dq3l73t7lc0,kvd9O6Cr,2020-0188,2021-10-14,09:57:29,11:35:44,NA,incomplete,false,true,NA,8,17,NA,yellow,m_l_030.jpg,NA,NA,pleasant,unpleasant,NA,NA,NA,NA,NA,right,1971,true,NA,NA,NA,NA,NA
kvd9O6Cr,3r0wocg22pm4csvtiwincc3gz22duj,3x65qveqi40tbu0f0o0dq3l73t7lc0,kvd9O6Cr,2020-0188,2021-10-14,09:57:29,11:35:44,NA,incomplete,false,true,NA,8,18,NA,black,m_s_078.jpg,NA,NA,pleasant,unpleasant,NA,NA,NA,NA,NA,left,1063,true,NA,NA,NA,NA,NA
kvd9O6Cr,3r0wocg22pm4csvtiwincc3gz22duj,3x65qveqi40tbu0f0o0dq3l73t7lc0,kvd9O6Cr,2020-0188,2021-10-14,09:57:29,11:35:44,NA,incomplete,false,true,NA,8,19,NA,black,n_l_078.jpg,NA,NA,unpleasant,pleasant,NA,NA,NA,NA,NA,right,1067,true,NA,NA,NA,NA,NA
kvd9O6Cr,3r0wocg22pm4csvtiwincc3gz22duj,3x65qveqi40tbu0f0o0dq3l73t7lc0,kvd9O6Cr,2020-0188,2021-10-14,09:57:29,11:35:44,NA,incomplete,false,true,NA,8,20,NA,black,n_s_098.jpg,NA,NA,pleasant,unpleasant,NA,NA,NA,NA,NA,left,934,true,NA,NA,NA,NA,NA
kvd9O6Cr,3r0wocg22pm4csvtiwincc3gz22duj,3x65qveqi40tbu0f0o0dq3l73t7lc0,kvd9O6Cr,2020-0188,2021-10-14,09:57:29,11:35:44,NA,incomplete,false,true,NA,8,21,NA,black,n_s_110.jpg,NA,NA,pleasant,unpleasant,NA,NA,NA,NA,NA,left,1523,true,NA,NA,NA,NA,NA
kvd9O6Cr,3r0wocg22pm4csvtiwincc3gz22duj,3x65qveqi40tbu0f0o0dq3l73t7lc0,kvd9O6Cr,2020-0188,2021-10-14,09:57:29,11:35:44,NA,incomplete,false,true,NA,8,22,NA,black,n_s_081.jpg,NA,NA,pleasant,unpleasant,NA,NA,NA,NA,NA,left,1895,true,NA,NA,NA,NA,NA
kvd9O6Cr,3r0wocg22pm4csvtiwincc3gz22duj,3x65qveqi40tbu0f0o0dq3l73t7lc0,kvd9O6Cr,2020-0188,2021-10-14,09:57:29,11:35:44,NA,incomplete,false,true,NA,8,23,NA,black,n_s_074.jpg,NA,NA,pleasant,unpleasant,NA,NA,NA,NA,NA,left,798,true,NA,NA,NA,NA,NA
kvd9O6Cr,3r0wocg22pm4csvtiwincc3gz22duj,3x65qveqi40tbu0f0o0dq3l73t7lc0,kvd9O6Cr,2020-0188,2021-10-14,09:57:29,11:35:44,NA,incomplete,false,true,NA,8,24,NA,purple,m_s_056.jpg,NA,NA,pleasant,unpleasant,NA,NA,NA,NA,NA,left,925,true,NA,NA,NA,NA,NA
kvd9O6Cr,3r0wocg22pm4csvtiwincc3gz22duj,3x65qveqi40tbu0f0o0dq3l73t7lc0,kvd9O6Cr,2020-0188,2021-10-14,09:57:29,11:35:44,NA,incomplete,false,true,NA,8,25,NA,purple,m_l_020.jpg,NA,NA,unpleasant,pleasant,NA,NA,NA,NA,NA,right,1209,true,NA,NA,NA,NA,NA
kvd9O6Cr,3r0wocg22pm4csvtiwincc3gz22duj,3x65qveqi40tbu0f0o0dq3l73t7lc0,kvd9O6Cr,2020-0188,2021-10-14,09:57:29,11:35:44,NA,incomplete,false,true,NA,8,26,NA,purple,n_s_013.jpg,NA,NA,pleasant,unpleasant,NA,NA,NA,NA,NA,left,1311,true,NA,NA,NA,NA,NA
kvd9O6Cr,3r0wocg22pm4csvtiwincc3gz22duj,3x65qveqi40tbu0f0o0dq3l73t7lc0,kvd9O6Cr,2020-0188,2021-10-14,09:57:29,11:35:44,NA,incomplete,false,true,NA,8,27,NA,purple,n_l_092.jpg,NA,NA,pleasant,unpleasant,NA,NA,NA,NA,NA,left,1075,true,NA,NA,NA,NA,NA
kvd9O6Cr,3r0wocg22pm4csvtiwincc3gz22duj,3x65qveqi40tbu0f0o0dq3l73t7lc0,kvd9O6Cr,2020-0188,2021-10-14,09:57:29,11:35:44,NA,incomplete,false,true,NA,8,28,NA,purple,n_s_016.jpg,NA,NA,pleasant,unpleasant,NA,NA,NA,NA,NA,left,1840,true,NA,NA,NA,NA,NA
