workerId,hitId,assignmentId,subject,studyid,exp_date,exp_start,exp_end,time_start,time_end,practice,encoding,memory,block,trial,event_order,event,stim,answer,context_type,label_left,label_right,left_image,left_event,right_image,right_event,condition,response,response_time,response_acc,order_response,order_response_time,order_acc,distance_response,distance_response_time
Kyi1HvjK,3e6l1vr4yzzg81jodkfak6sl8ztf6z,35gmh2sv3iugednq97m088p4jmroe3,Kyi1HvjK,2020-0188,2021-10-17,18:44:37,20:31:32,NA,incomplete,true,true,NA,0,0,NA,yellow,m_l_076.jpg,NA,NA,unpleasant,pleasant,NA,NA,NA,NA,NA,left,115.09999999404,true,NA,NA,NA,NA,NA
Kyi1HvjK,3e6l1vr4yzzg81jodkfak6sl8ztf6z,35gmh2sv3iugednq97m088p4jmroe3,Kyi1HvjK,2020-0188,2021-10-17,18:44:37,20:31:32,NA,incomplete,true,true,NA,0,1,NA,yellow,n_l_026.jpg,NA,NA,unpleasant,pleasant,NA,NA,NA,NA,NA,right,83.7000000178814,true,NA,NA,NA,NA,NA
Kyi1HvjK,3e6l1vr4yzzg81jodkfak6sl8ztf6z,35gmh2sv3iugednq97m088p4jmroe3,Kyi1HvjK,2020-0188,2021-10-17,18:44:37,20:31:32,NA,incomplete,true,true,NA,0,2,NA,yellow,n_s_102.jpg,NA,NA,unpleasant,pleasant,NA,NA,NA,NA,NA,right,108.09999999404,true,NA,NA,NA,NA,NA
Kyi1HvjK,3e6l1vr4yzzg81jodkfak6sl8ztf6z,35gmh2sv3iugednq97m088p4jmroe3,Kyi1HvjK,2020-0188,2021-10-17,18:44:37,20:31:32,NA,incomplete,true,true,NA,0,3,NA,yellow,m_s_062.jpg,NA,NA,pleasant,unpleasant,NA,NA,NA,NA,NA,right,37.0999999940395,true,NA,NA,NA,NA,NA
Kyi1HvjK,3e6l1vr4yzzg81jodkfak6sl8ztf6z,35gmh2sv3iugednq97m088p4jmroe3,Kyi1HvjK,2020-0188,2021-10-17,18:44:37,20:31:32,NA,incomplete,true,true,NA,0,4,NA,yellow,n_s_086.jpg,NA,NA,unpleasant,pleasant,NA,NA,NA,NA,NA,left,59.3999999761581,true,NA,NA,NA,NA,NA
Kyi1HvjK,3e6l1vr4yzzg81jodkfak6sl8ztf6z,35gmh2sv3iugednq97m088p4jmroe3,Kyi1HvjK,2020-0188,2021-10-17,18:44:37,20:31:32,NA,incomplete,true,true,NA,0,5,NA,yellow,m_l_082.jpg,NA,NA,pleasant,unpleasant,NA,NA,NA,NA,NA,right,12.5999999940395,true,NA,NA,NA,NA,NA
Kyi1HvjK,3e6l1vr4yzzg81jodkfak6sl8ztf6z,35gmh2sv3iugednq97m088p4jmroe3,Kyi1HvjK,2020-0188,2021-10-17,18:44:37,20:31:32,NA,incomplete,true,true,NA,0,6,NA,green,m_l_017.jpg,NA,NA,pleasant,unpleasant,NA,NA,NA,NA,NA,left,51.9000000059605,true,NA,NA,NA,NA,NA
Kyi1HvjK,3e6l1vr4yzzg81jodkfak6sl8ztf6z,35gmh2sv3iugednq97m088p4jmroe3,Kyi1HvjK,2020-0188,2021-10-17,18:44:37,20:31:32,NA,incomplete,true,true,NA,0,7,NA,green,n_s_036.jpg,NA,NA,unpleasant,pleasant,NA,NA,NA,NA,NA,left,571.699999988079,true,NA,NA,NA,NA,NA
Kyi1HvjK,3e6l1vr4yzzg81jodkfak6sl8ztf6z,35gmh2sv3iugednq97m088p4jmroe3,Kyi1HvjK,2020-0188,2021-10-17,18:44:37,20:31:32,NA,incomplete,true,true,NA,0,8,NA,green,m_s_081.jpg,NA,NA,unpleasant,pleasant,NA,NA,NA,NA,NA,right,563.299999982119,true,NA,NA,NA,NA,NA
Kyi1HvjK,3e6l1vr4yzzg81jodkfak6sl8ztf6z,35gmh2sv3iugednq97m088p4jmroe3,Kyi1HvjK,2020-0188,2021-10-17,18:44:37,20:31:32,NA,incomplete,true,true,NA,0,9,NA,green,n_s_028.jpg,NA,NA,pleasant,unpleasant,NA,NA,NA,NA,NA,left,724.200000017881,true,NA,NA,NA,NA,NA
Kyi1HvjK,3e6l1vr4yzzg81jodkfak6sl8ztf6z,35gmh2sv3iugednq97m088p4jmroe3,Kyi1HvjK,2020-0188,2021-10-17,18:44:37,20:31:32,NA,incomplete,true,true,NA,0,10,NA,green,m_l_062.jpg,NA,NA,pleasant,unpleasant,NA,NA,NA,NA,NA,left,886.09999999404,true,NA,NA,NA,NA,NA
Kyi1HvjK,3e6l1vr4yzzg81jodkfak6sl8ztf6z,35gmh2sv3iugednq97m088p4jmroe3,Kyi1HvjK,2020-0188,2021-10-17,18:44:37,20:31:32,NA,incomplete,true,true,NA,0,11,NA,green,m_s_034.jpg,NA,NA,pleasant,unpleasant,NA,NA,NA,NA,NA,left,755.40000000596,true,NA,NA,NA,NA,NA
Kyi1HvjK,3e6l1vr4yzzg81jodkfak6sl8ztf6z,35gmh2sv3iugednq97m088p4jmroe3,Kyi1HvjK,2020-0188,2021-10-17,18:44:37,20:31:32,NA,incomplete,true,true,NA,0,12,NA,black,m_l_033.jpg,NA,NA,pleasant,unpleasant,NA,NA,NA,NA,NA,right,3069.80000001192,true,NA,NA,NA,NA,NA
Kyi1HvjK,3e6l1vr4yzzg81jodkfak6sl8ztf6z,35gmh2sv3iugednq97m088p4jmroe3,Kyi1HvjK,2020-0188,2021-10-17,18:44:37,20:31:32,NA,incomplete,true,true,NA,0,13,NA,black,m_l_025.jpg,NA,NA,pleasant,unpleasant,NA,NA,NA,NA,NA,right,1235.40000000596,true,NA,NA,NA,NA,NA
Kyi1HvjK,3e6l1vr4yzzg81jodkfak6sl8ztf6z,35gmh2sv3iugednq97m088p4jmroe3,Kyi1HvjK,2020-0188,2021-10-17,18:44:37,20:31:32,NA,incomplete,true,true,NA,0,14,NA,black,n_l_062.jpg,NA,NA,pleasant,unpleasant,NA,NA,NA,NA,NA,right,891.40000000596,true,NA,NA,NA,NA,NA
Kyi1HvjK,3e6l1vr4yzzg81jodkfak6sl8ztf6z,35gmh2sv3iugednq97m088p4jmroe3,Kyi1HvjK,2020-0188,2021-10-17,18:44:37,20:31:32,NA,incomplete,true,true,NA,0,15,NA,black,n_l_103.jpg,NA,NA,pleasant,unpleasant,NA,NA,NA,NA,NA,right,829.199999988079,true,NA,NA,NA,NA,NA
Kyi1HvjK,3e6l1vr4yzzg81jodkfak6sl8ztf6z,35gmh2sv3iugednq97m088p4jmroe3,Kyi1HvjK,2020-0188,2021-10-17,18:44:37,20:31:32,NA,incomplete,true,true,NA,0,16,NA,black,m_s_057.jpg,NA,NA,unpleasant,pleasant,NA,NA,NA,NA,NA,left,1236.89999997616,true,NA,NA,NA,NA,NA
Kyi1HvjK,3e6l1vr4yzzg81jodkfak6sl8ztf6z,35gmh2sv3iugednq97m088p4jmroe3,Kyi1HvjK,2020-0188,2021-10-17,18:44:37,20:31:32,NA,incomplete,true,true,NA,0,17,NA,black,m_s_035.jpg,NA,NA,pleasant,unpleasant,NA,NA,NA,NA,NA,right,1395.70000001788,true,NA,NA,NA,NA,NA
Kyi1HvjK,3e6l1vr4yzzg81jodkfak6sl8ztf6z,35gmh2sv3iugednq97m088p4jmroe3,Kyi1HvjK,2020-0188,2021-10-17,18:44:37,20:31:32,NA,incomplete,true,true,NA,0,18,NA,red,m_l_107.jpg,NA,NA,pleasant,unpleasant,NA,NA,NA,NA,NA,left,1141.59999999404,true,NA,NA,NA,NA,NA
Kyi1HvjK,3e6l1vr4yzzg81jodkfak6sl8ztf6z,35gmh2sv3iugednq97m088p4jmroe3,Kyi1HvjK,2020-0188,2021-10-17,18:44:37,20:31:32,NA,incomplete,true,true,NA,0,19,NA,red,m_s_096.jpg,NA,NA,unpleasant,pleasant,NA,NA,NA,NA,NA,left,524.199999988079,true,NA,NA,NA,NA,NA
Kyi1HvjK,3e6l1vr4yzzg81jodkfak6sl8ztf6z,35gmh2sv3iugednq97m088p4jmroe3,Kyi1HvjK,2020-0188,2021-10-17,18:44:37,20:31:32,NA,incomplete,true,true,NA,0,20,NA,red,n_s_092.jpg,NA,NA,unpleasant,pleasant,NA,NA,NA,NA,NA,right,892.699999988079,true,NA,NA,NA,NA,NA
Kyi1HvjK,3e6l1vr4yzzg81jodkfak6sl8ztf6z,35gmh2sv3iugednq97m088p4jmroe3,Kyi1HvjK,2020-0188,2021-10-17,18:44:37,20:31:32,NA,incomplete,true,true,NA,0,21,NA,red,n_l_029.jpg,NA,NA,pleasant,unpleasant,NA,NA,NA,NA,NA,left,1046.09999999404,true,NA,NA,NA,NA,NA
Kyi1HvjK,3e6l1vr4yzzg81jodkfak6sl8ztf6z,35gmh2sv3iugednq97m088p4jmroe3,Kyi1HvjK,2020-0188,2021-10-17,18:44:37,20:31:32,NA,incomplete,true,true,NA,0,22,NA,red,n_l_007.jpg,NA,NA,pleasant,unpleasant,NA,NA,NA,NA,NA,left,764.90000000596,true,NA,NA,NA,NA,NA
Kyi1HvjK,3e6l1vr4yzzg81jodkfak6sl8ztf6z,35gmh2sv3iugednq97m088p4jmroe3,Kyi1HvjK,2020-0188,2021-10-17,18:44:37,20:31:32,NA,incomplete,true,true,NA,0,23,NA,red,m_s_073.jpg,NA,NA,unpleasant,pleasant,NA,NA,NA,NA,NA,right,932.300000011921,true,NA,NA,NA,NA,NA
Kyi1HvjK,3e6l1vr4yzzg81jodkfak6sl8ztf6z,35gmh2sv3iugednq97m088p4jmroe3,Kyi1HvjK,2020-0188,2021-10-17,18:44:37,20:31:32,NA,incomplete,true,true,NA,0,24,NA,purple,n_s_030.jpg,NA,NA,unpleasant,pleasant,NA,NA,NA,NA,NA,right,1062.80000001192,true,NA,NA,NA,NA,NA
Kyi1HvjK,3e6l1vr4yzzg81jodkfak6sl8ztf6z,35gmh2sv3iugednq97m088p4jmroe3,Kyi1HvjK,2020-0188,2021-10-17,18:44:37,20:31:32,NA,incomplete,true,true,NA,0,25,NA,purple,n_l_054.jpg,NA,NA,pleasant,unpleasant,NA,NA,NA,NA,NA,left,637.200000017881,true,NA,NA,NA,NA,NA
Kyi1HvjK,3e6l1vr4yzzg81jodkfak6sl8ztf6z,35gmh2sv3iugednq97m088p4jmroe3,Kyi1HvjK,2020-0188,2021-10-17,18:44:37,20:31:32,NA,incomplete,true,true,NA,0,26,NA,purple,n_s_005.jpg,NA,NA,unpleasant,pleasant,NA,NA,NA,NA,NA,right,812.700000017881,true,NA,NA,NA,NA,NA
Kyi1HvjK,3e6l1vr4yzzg81jodkfak6sl8ztf6z,35gmh2sv3iugednq97m088p4jmroe3,Kyi1HvjK,2020-0188,2021-10-17,18:44:37,20:31:32,NA,incomplete,true,true,NA,0,27,NA,purple,n_l_036.jpg,NA,NA,pleasant,unpleasant,NA,NA,NA,NA,NA,left,727,true,NA,NA,NA,NA,NA
Kyi1HvjK,3e6l1vr4yzzg81jodkfak6sl8ztf6z,35gmh2sv3iugednq97m088p4jmroe3,Kyi1HvjK,2020-0188,2021-10-17,18:44:37,20:31:32,NA,incomplete,true,true,NA,0,28,NA,purple,n_l_060.jpg,NA,NA,pleasant,unpleasant,NA,NA,NA,NA,NA,left,780.299999982119,true,NA,NA,NA,NA,NA
Kyi1HvjK,3e6l1vr4yzzg81jodkfak6sl8ztf6z,35gmh2sv3iugednq97m088p4jmroe3,Kyi1HvjK,2020-0188,2021-10-17,18:44:37,20:31:32,NA,incomplete,true,true,NA,0,29,NA,purple,n_l_117.jpg,NA,NA,unpleasant,pleasant,NA,NA,NA,NA,NA,right,821.200000017881,true,NA,NA,NA,NA,NA
Kyi1HvjK,3e6l1vr4yzzg81jodkfak6sl8ztf6z,35gmh2sv3iugednq97m088p4jmroe3,Kyi1HvjK,2020-0188,2021-10-17,18:44:37,20:31:32,NA,incomplete,true,true,NA,0,30,NA,white,n_l_015.jpg,NA,NA,unpleasant,pleasant,NA,NA,NA,NA,NA,left,1494.5,true,NA,NA,NA,NA,NA
Kyi1HvjK,3e6l1vr4yzzg81jodkfak6sl8ztf6z,35gmh2sv3iugednq97m088p4jmroe3,Kyi1HvjK,2020-0188,2021-10-17,18:44:37,20:31:32,NA,incomplete,true,true,NA,0,31,NA,white,m_s_019.jpg,NA,NA,unpleasant,pleasant,NA,NA,NA,NA,NA,right,1270.40000000596,true,NA,NA,NA,NA,NA
Kyi1HvjK,3e6l1vr4yzzg81jodkfak6sl8ztf6z,35gmh2sv3iugednq97m088p4jmroe3,Kyi1HvjK,2020-0188,2021-10-17,18:44:37,20:31:32,NA,incomplete,true,true,NA,0,32,NA,white,m_s_087.jpg,NA,NA,pleasant,unpleasant,NA,NA,NA,NA,NA,left,1580.09999999404,true,NA,NA,NA,NA,NA
Kyi1HvjK,3e6l1vr4yzzg81jodkfak6sl8ztf6z,35gmh2sv3iugednq97m088p4jmroe3,Kyi1HvjK,2020-0188,2021-10-17,18:44:37,20:31:32,NA,incomplete,true,true,NA,0,33,NA,white,n_l_106.jpg,NA,NA,unpleasant,pleasant,NA,NA,NA,NA,NA,left,2590.09999999404,true,NA,NA,NA,NA,NA
Kyi1HvjK,3e6l1vr4yzzg81jodkfak6sl8ztf6z,35gmh2sv3iugednq97m088p4jmroe3,Kyi1HvjK,2020-0188,2021-10-17,18:44:37,20:31:32,NA,incomplete,true,true,NA,0,34,NA,white,n_s_064.jpg,NA,NA,pleasant,unpleasant,NA,NA,NA,NA,NA,right,1883.79999998212,true,NA,NA,NA,NA,NA
Kyi1HvjK,3e6l1vr4yzzg81jodkfak6sl8ztf6z,35gmh2sv3iugednq97m088p4jmroe3,Kyi1HvjK,2020-0188,2021-10-17,18:44:37,20:31:32,NA,incomplete,true,true,NA,0,35,NA,white,m_l_078.jpg,NA,NA,unpleasant,pleasant,NA,NA,NA,NA,NA,left,1540.20000001788,true,NA,NA,NA,NA,NA
Kyi1HvjK,3e6l1vr4yzzg81jodkfak6sl8ztf6z,35gmh2sv3iugednq97m088p4jmroe3,Kyi1HvjK,2020-0188,2021-10-17,18:44:37,20:31:32,NA,incomplete,true,NA,true,0,0,NA,NA,NA,right,present,NA,NA,m_l_082.jpg,yellow,n_l_026.jpg,yellow,within,NA,NaN,NA,right,4318.4000000059605,1,2,3871
Kyi1HvjK,3e6l1vr4yzzg81jodkfak6sl8ztf6z,35gmh2sv3iugednq97m088p4jmroe3,Kyi1HvjK,2020-0188,2021-10-17,18:44:37,20:31:32,NA,incomplete,true,NA,true,0,1,NA,NA,NA,left,present,NA,NA,n_s_086.jpg,yellow,m_s_081.jpg,green,between,NA,NaN,NA,right,2679,0,2,3207
Kyi1HvjK,3e6l1vr4yzzg81jodkfak6sl8ztf6z,35gmh2sv3iugednq97m088p4jmroe3,Kyi1HvjK,2020-0188,2021-10-17,18:44:37,20:31:32,NA,incomplete,true,NA,true,0,2,NA,NA,NA,right,present,NA,NA,n_l_062.jpg,black,m_l_062.jpg,green,between,NA,NaN,NA,right,3983.300000011921,1,0,2494.7999999821186
Kyi1HvjK,3e6l1vr4yzzg81jodkfak6sl8ztf6z,35gmh2sv3iugednq97m088p4jmroe3,Kyi1HvjK,2020-0188,2021-10-17,18:44:37,20:31:32,NA,incomplete,true,NA,true,0,3,NA,NA,NA,left,absent,NA,NA,n_l_060.jpg,purple,m_s_087.jpg,white,between,NA,NaN,NA,left,2038.0999999940395,1,1,1575
Kyi1HvjK,3e6l1vr4yzzg81jodkfak6sl8ztf6z,35gmh2sv3iugednq97m088p4jmroe3,Kyi1HvjK,2020-0188,2021-10-17,18:44:37,20:31:32,NA,incomplete,true,NA,true,0,4,NA,NA,NA,left,present,NA,NA,n_l_007.jpg,red,n_s_005.jpg,purple,between,NA,NaN,NA,left,14070.59999999404,1,1,1598.5999999940395
Kyi1HvjK,3e6l1vr4yzzg81jodkfak6sl8ztf6z,35gmh2sv3iugednq97m088p4jmroe3,Kyi1HvjK,2020-0188,2021-10-17,18:44:37,20:31:32,NA,incomplete,true,NA,true,0,5,NA,NA,NA,left,present,NA,NA,m_l_025.jpg,black,m_s_035.jpg,black,within,NA,NaN,NA,left,2174.5999999940395,1,0,2087
Kyi1HvjK,3e6l1vr4yzzg81jodkfak6sl8ztf6z,35gmh2sv3iugednq97m088p4jmroe3,Kyi1HvjK,2020-0188,2021-10-17,18:44:37,20:31:32,NA,incomplete,true,NA,true,0,6,NA,NA,NA,right,absent,NA,NA,m_l_078.jpg,white,m_s_019.jpg,white,within,NA,NaN,NA,left,100070.79999998212,0,3,3375
Kyi1HvjK,3e6l1vr4yzzg81jodkfak6sl8ztf6z,35gmh2sv3iugednq97m088p4jmroe3,Kyi1HvjK,2020-0188,2021-10-17,18:44:37,20:31:32,NA,incomplete,true,NA,true,0,7,NA,NA,NA,right,absent,NA,NA,m_s_034.jpg,green,n_s_036.jpg,green,within,NA,NaN,NA,left,2415.0999999940395,0,0,1542.9000000059605
Kyi1HvjK,3e6l1vr4yzzg81jodkfak6sl8ztf6z,35gmh2sv3iugednq97m088p4jmroe3,Kyi1HvjK,2020-0188,2021-10-17,18:44:37,20:31:32,NA,incomplete,true,NA,true,0,8,NA,NA,NA,left,absent,NA,NA,n_l_054.jpg,purple,n_l_117.jpg,purple,within,NA,NaN,NA,left,2751.0999999940395,1,0,52319
Kyi1HvjK,3e6l1vr4yzzg81jodkfak6sl8ztf6z,35gmh2sv3iugednq97m088p4jmroe3,Kyi1HvjK,2020-0188,2021-10-17,18:44:37,20:31:32,NA,incomplete,true,NA,true,0,9,NA,NA,NA,left,present,NA,NA,m_s_096.jpg,red,m_s_073.jpg,red,within,NA,NaN,NA,right,1996.5999999940395,0,0,2062.699999988079
Kyi1HvjK,3e6l1vr4yzzg81jodkfak6sl8ztf6z,35gmh2sv3iugednq97m088p4jmroe3,Kyi1HvjK,2020-0188,2021-10-17,18:44:37,20:31:32,NA,incomplete,true,NA,true,0,10,NA,NA,NA,right,present,NA,NA,n_s_092.jpg,red,m_s_057.jpg,black,between,NA,NaN,NA,left,1934.7999999821186,0,0,1838.699999988079
Kyi1HvjK,3e6l1vr4yzzg81jodkfak6sl8ztf6z,35gmh2sv3iugednq97m088p4jmroe3,Kyi1HvjK,2020-0188,2021-10-17,18:44:37,20:31:32,NA,incomplete,false,true,NA,1,0,NA,gray,n_l_071.jpg,NA,NA,pleasant,unpleasant,NA,NA,NA,NA,NA,none,0,false,NA,NA,NA,NA,NA
Kyi1HvjK,3e6l1vr4yzzg81jodkfak6sl8ztf6z,35gmh2sv3iugednq97m088p4jmroe3,Kyi1HvjK,2020-0188,2021-10-17,18:44:37,20:31:32,NA,incomplete,false,true,NA,1,1,NA,gray,m_s_030.jpg,NA,NA,unpleasant,pleasant,NA,NA,NA,NA,NA,right,1678.5,true,NA,NA,NA,NA,NA
Kyi1HvjK,3e6l1vr4yzzg81jodkfak6sl8ztf6z,35gmh2sv3iugednq97m088p4jmroe3,Kyi1HvjK,2020-0188,2021-10-17,18:44:37,20:31:32,NA,incomplete,false,true,NA,1,2,NA,gray,n_s_062.jpg,NA,NA,unpleasant,pleasant,NA,NA,NA,NA,NA,right,1397.70000001788,true,NA,NA,NA,NA,NA
Kyi1HvjK,3e6l1vr4yzzg81jodkfak6sl8ztf6z,35gmh2sv3iugednq97m088p4jmroe3,Kyi1HvjK,2020-0188,2021-10-17,18:44:37,20:31:32,NA,incomplete,false,true,NA,1,3,NA,gray,m_s_064.jpg,NA,NA,pleasant,unpleasant,NA,NA,NA,NA,NA,right,2302.09999999404,true,NA,NA,NA,NA,NA
Kyi1HvjK,3e6l1vr4yzzg81jodkfak6sl8ztf6z,35gmh2sv3iugednq97m088p4jmroe3,Kyi1HvjK,2020-0188,2021-10-17,18:44:37,20:31:32,NA,incomplete,false,true,NA,1,4,NA,gray,m_l_056.jpg,NA,NA,unpleasant,pleasant,NA,NA,NA,NA,NA,left,1783.19999998808,true,NA,NA,NA,NA,NA
Kyi1HvjK,3e6l1vr4yzzg81jodkfak6sl8ztf6z,35gmh2sv3iugednq97m088p4jmroe3,Kyi1HvjK,2020-0188,2021-10-17,18:44:37,20:31:32,NA,incomplete,false,true,NA,1,5,NA,gray,n_s_116.jpg,NA,NA,unpleasant,pleasant,NA,NA,NA,NA,NA,left,1437.30000001192,true,NA,NA,NA,NA,NA
Kyi1HvjK,3e6l1vr4yzzg81jodkfak6sl8ztf6z,35gmh2sv3iugednq97m088p4jmroe3,Kyi1HvjK,2020-0188,2021-10-17,18:44:37,20:31:32,NA,incomplete,false,true,NA,1,6,NA,purple,m_s_032.jpg,NA,NA,pleasant,unpleasant,NA,NA,NA,NA,NA,right,2292.59999999404,true,NA,NA,NA,NA,NA
Kyi1HvjK,3e6l1vr4yzzg81jodkfak6sl8ztf6z,35gmh2sv3iugednq97m088p4jmroe3,Kyi1HvjK,2020-0188,2021-10-17,18:44:37,20:31:32,NA,incomplete,false,true,NA,1,7,NA,purple,n_s_048.jpg,NA,NA,unpleasant,pleasant,NA,NA,NA,NA,NA,left,1623.09999999404,true,NA,NA,NA,NA,NA
Kyi1HvjK,3e6l1vr4yzzg81jodkfak6sl8ztf6z,35gmh2sv3iugednq97m088p4jmroe3,Kyi1HvjK,2020-0188,2021-10-17,18:44:37,20:31:32,NA,incomplete,false,true,NA,1,8,NA,purple,m_l_008.jpg,NA,NA,unpleasant,pleasant,NA,NA,NA,NA,NA,right,1157.90000000596,true,NA,NA,NA,NA,NA
Kyi1HvjK,3e6l1vr4yzzg81jodkfak6sl8ztf6z,35gmh2sv3iugednq97m088p4jmroe3,Kyi1HvjK,2020-0188,2021-10-17,18:44:37,20:31:32,NA,incomplete,false,true,NA,1,9,NA,purple,m_l_029.jpg,NA,NA,unpleasant,pleasant,NA,NA,NA,NA,NA,right,1325.69999998808,true,NA,NA,NA,NA,NA
Kyi1HvjK,3e6l1vr4yzzg81jodkfak6sl8ztf6z,35gmh2sv3iugednq97m088p4jmroe3,Kyi1HvjK,2020-0188,2021-10-17,18:44:37,20:31:32,NA,incomplete,false,true,NA,1,10,NA,purple,n_l_055.jpg,NA,NA,unpleasant,pleasant,NA,NA,NA,NA,NA,left,1200,true,NA,NA,NA,NA,NA
Kyi1HvjK,3e6l1vr4yzzg81jodkfak6sl8ztf6z,35gmh2sv3iugednq97m088p4jmroe3,Kyi1HvjK,2020-0188,2021-10-17,18:44:37,20:31:32,NA,incomplete,false,true,NA,1,11,NA,purple,m_l_087.jpg,NA,NA,unpleasant,pleasant,NA,NA,NA,NA,NA,left,1198.59999999404,true,NA,NA,NA,NA,NA
Kyi1HvjK,3e6l1vr4yzzg81jodkfak6sl8ztf6z,35gmh2sv3iugednq97m088p4jmroe3,Kyi1HvjK,2020-0188,2021-10-17,18:44:37,20:31:32,NA,incomplete,false,true,NA,1,12,NA,red,m_s_072.jpg,NA,NA,pleasant,unpleasant,NA,NA,NA,NA,NA,left,1558.59999999404,true,NA,NA,NA,NA,NA
Kyi1HvjK,3e6l1vr4yzzg81jodkfak6sl8ztf6z,35gmh2sv3iugednq97m088p4jmroe3,Kyi1HvjK,2020-0188,2021-10-17,18:44:37,20:31:32,NA,incomplete,false,true,NA,1,13,NA,red,m_s_060.jpg,NA,NA,unpleasant,pleasant,NA,NA,NA,NA,NA,right,1424.29999998212,true,NA,NA,NA,NA,NA
Kyi1HvjK,3e6l1vr4yzzg81jodkfak6sl8ztf6z,35gmh2sv3iugednq97m088p4jmroe3,Kyi1HvjK,2020-0188,2021-10-17,18:44:37,20:31:32,NA,incomplete,false,true,NA,1,14,NA,red,n_l_023.jpg,NA,NA,unpleasant,pleasant,NA,NA,NA,NA,NA,right,799.299999982119,true,NA,NA,NA,NA,NA
Kyi1HvjK,3e6l1vr4yzzg81jodkfak6sl8ztf6z,35gmh2sv3iugednq97m088p4jmroe3,Kyi1HvjK,2020-0188,2021-10-17,18:44:37,20:31:32,NA,incomplete,false,true,NA,1,15,NA,red,m_s_110.jpg,NA,NA,pleasant,unpleasant,NA,NA,NA,NA,NA,left,887.399999976158,true,NA,NA,NA,NA,NA
Kyi1HvjK,3e6l1vr4yzzg81jodkfak6sl8ztf6z,35gmh2sv3iugednq97m088p4jmroe3,Kyi1HvjK,2020-0188,2021-10-17,18:44:37,20:31:32,NA,incomplete,false,true,NA,1,16,NA,red,n_s_087.jpg,NA,NA,unpleasant,pleasant,NA,NA,NA,NA,NA,right,1216.19999998808,true,NA,NA,NA,NA,NA
Kyi1HvjK,3e6l1vr4yzzg81jodkfak6sl8ztf6z,35gmh2sv3iugednq97m088p4jmroe3,Kyi1HvjK,2020-0188,2021-10-17,18:44:37,20:31:32,NA,incomplete,false,true,NA,1,17,NA,red,m_s_093.jpg,NA,NA,unpleasant,pleasant,NA,NA,NA,NA,NA,right,1295.90000000596,true,NA,NA,NA,NA,NA
Kyi1HvjK,3e6l1vr4yzzg81jodkfak6sl8ztf6z,35gmh2sv3iugednq97m088p4jmroe3,Kyi1HvjK,2020-0188,2021-10-17,18:44:37,20:31:32,NA,incomplete,false,true,NA,1,18,NA,black,n_l_058.jpg,NA,NA,unpleasant,pleasant,NA,NA,NA,NA,NA,right,1511.20000001788,true,NA,NA,NA,NA,NA
Kyi1HvjK,3e6l1vr4yzzg81jodkfak6sl8ztf6z,35gmh2sv3iugednq97m088p4jmroe3,Kyi1HvjK,2020-0188,2021-10-17,18:44:37,20:31:32,NA,incomplete,false,true,NA,1,19,NA,black,n_s_038.jpg,NA,NA,pleasant,unpleasant,NA,NA,NA,NA,NA,right,1401.79999998212,true,NA,NA,NA,NA,NA
Kyi1HvjK,3e6l1vr4yzzg81jodkfak6sl8ztf6z,35gmh2sv3iugednq97m088p4jmroe3,Kyi1HvjK,2020-0188,2021-10-17,18:44:37,20:31:32,NA,incomplete,false,true,NA,1,20,NA,black,m_l_012.jpg,NA,NA,pleasant,unpleasant,NA,NA,NA,NA,NA,left,1359.59999999404,true,NA,NA,NA,NA,NA
Kyi1HvjK,3e6l1vr4yzzg81jodkfak6sl8ztf6z,35gmh2sv3iugednq97m088p4jmroe3,Kyi1HvjK,2020-0188,2021-10-17,18:44:37,20:31:32,NA,incomplete,false,true,NA,1,21,NA,black,m_s_023.jpg,NA,NA,pleasant,unpleasant,NA,NA,NA,NA,NA,left,936.09999999404,true,NA,NA,NA,NA,NA
Kyi1HvjK,3e6l1vr4yzzg81jodkfak6sl8ztf6z,35gmh2sv3iugednq97m088p4jmroe3,Kyi1HvjK,2020-0188,2021-10-17,18:44:37,20:31:32,NA,incomplete,false,true,NA,1,22,NA,black,m_l_044.jpg,NA,NA,unpleasant,pleasant,NA,NA,NA,NA,NA,left,1048.69999998808,true,NA,NA,NA,NA,NA
Kyi1HvjK,3e6l1vr4yzzg81jodkfak6sl8ztf6z,35gmh2sv3iugednq97m088p4jmroe3,Kyi1HvjK,2020-0188,2021-10-17,18:44:37,20:31:32,NA,incomplete,false,true,NA,1,23,NA,black,n_l_063.jpg,NA,NA,unpleasant,pleasant,NA,NA,NA,NA,NA,left,1215.5,true,NA,NA,NA,NA,NA
Kyi1HvjK,3e6l1vr4yzzg81jodkfak6sl8ztf6z,35gmh2sv3iugednq97m088p4jmroe3,Kyi1HvjK,2020-0188,2021-10-17,18:44:37,20:31:32,NA,incomplete,false,true,NA,1,24,NA,green,n_s_003.jpg,NA,NA,pleasant,unpleasant,NA,NA,NA,NA,NA,right,1704,true,NA,NA,NA,NA,NA
Kyi1HvjK,3e6l1vr4yzzg81jodkfak6sl8ztf6z,35gmh2sv3iugednq97m088p4jmroe3,Kyi1HvjK,2020-0188,2021-10-17,18:44:37,20:31:32,NA,incomplete,false,true,NA,1,25,NA,green,n_s_088.jpg,NA,NA,unpleasant,pleasant,NA,NA,NA,NA,NA,right,1115.09999999404,true,NA,NA,NA,NA,NA
Kyi1HvjK,3e6l1vr4yzzg81jodkfak6sl8ztf6z,35gmh2sv3iugednq97m088p4jmroe3,Kyi1HvjK,2020-0188,2021-10-17,18:44:37,20:31:32,NA,incomplete,false,true,NA,1,26,NA,green,m_l_052.jpg,NA,NA,pleasant,unpleasant,NA,NA,NA,NA,NA,left,1119.89999997616,true,NA,NA,NA,NA,NA
Kyi1HvjK,3e6l1vr4yzzg81jodkfak6sl8ztf6z,35gmh2sv3iugednq97m088p4jmroe3,Kyi1HvjK,2020-0188,2021-10-17,18:44:37,20:31:32,NA,incomplete,false,true,NA,1,27,NA,green,m_l_036.jpg,NA,NA,unpleasant,pleasant,NA,NA,NA,NA,NA,left,1430.69999998808,true,NA,NA,NA,NA,NA
Kyi1HvjK,3e6l1vr4yzzg81jodkfak6sl8ztf6z,35gmh2sv3iugednq97m088p4jmroe3,Kyi1HvjK,2020-0188,2021-10-17,18:44:37,20:31:32,NA,incomplete,false,true,NA,1,28,NA,green,m_s_106.jpg,NA,NA,pleasant,unpleasant,NA,NA,NA,NA,NA,left,1353.10000002384,true,NA,NA,NA,NA,NA
Kyi1HvjK,3e6l1vr4yzzg81jodkfak6sl8ztf6z,35gmh2sv3iugednq97m088p4jmroe3,Kyi1HvjK,2020-0188,2021-10-17,18:44:37,20:31:32,NA,incomplete,false,true,NA,1,29,NA,green,n_l_108.jpg,NA,NA,pleasant,unpleasant,NA,NA,NA,NA,NA,left,1438.19999998808,true,NA,NA,NA,NA,NA
Kyi1HvjK,3e6l1vr4yzzg81jodkfak6sl8ztf6z,35gmh2sv3iugednq97m088p4jmroe3,Kyi1HvjK,2020-0188,2021-10-17,18:44:37,20:31:32,NA,incomplete,false,true,NA,1,30,NA,orange,n_s_068.jpg,NA,NA,unpleasant,pleasant,NA,NA,NA,NA,NA,left,957.800000011921,true,NA,NA,NA,NA,NA
Kyi1HvjK,3e6l1vr4yzzg81jodkfak6sl8ztf6z,35gmh2sv3iugednq97m088p4jmroe3,Kyi1HvjK,2020-0188,2021-10-17,18:44:37,20:31:32,NA,incomplete,false,true,NA,1,31,NA,orange,m_l_038.jpg,NA,NA,unpleasant,pleasant,NA,NA,NA,NA,NA,left,1295.40000000596,true,NA,NA,NA,NA,NA
Kyi1HvjK,3e6l1vr4yzzg81jodkfak6sl8ztf6z,35gmh2sv3iugednq97m088p4jmroe3,Kyi1HvjK,2020-0188,2021-10-17,18:44:37,20:31:32,NA,incomplete,false,true,NA,1,32,NA,orange,m_l_074.jpg,NA,NA,unpleasant,pleasant,NA,NA,NA,NA,NA,left,2303.59999999404,true,NA,NA,NA,NA,NA
Kyi1HvjK,3e6l1vr4yzzg81jodkfak6sl8ztf6z,35gmh2sv3iugednq97m088p4jmroe3,Kyi1HvjK,2020-0188,2021-10-17,18:44:37,20:31:32,NA,incomplete,false,true,NA,1,33,NA,orange,n_s_075.jpg,NA,NA,pleasant,unpleasant,NA,NA,NA,NA,NA,left,3207,true,NA,NA,NA,NA,NA
Kyi1HvjK,3e6l1vr4yzzg81jodkfak6sl8ztf6z,35gmh2sv3iugednq97m088p4jmroe3,Kyi1HvjK,2020-0188,2021-10-17,18:44:37,20:31:32,NA,incomplete,false,true,NA,1,34,NA,orange,m_l_077.jpg,NA,NA,pleasant,unpleasant,NA,NA,NA,NA,NA,right,1253.29999998212,true,NA,NA,NA,NA,NA
Kyi1HvjK,3e6l1vr4yzzg81jodkfak6sl8ztf6z,35gmh2sv3iugednq97m088p4jmroe3,Kyi1HvjK,2020-0188,2021-10-17,18:44:37,20:31:32,NA,incomplete,false,true,NA,1,35,NA,orange,m_s_018.jpg,NA,NA,pleasant,unpleasant,NA,NA,NA,NA,NA,left,1693.60000002384,true,NA,NA,NA,NA,NA
Kyi1HvjK,3e6l1vr4yzzg81jodkfak6sl8ztf6z,35gmh2sv3iugednq97m088p4jmroe3,Kyi1HvjK,2020-0188,2021-10-17,18:44:37,20:31:32,NA,incomplete,false,NA,true,1,0,NA,NA,NA,left,absent,NA,NA,m_s_030.jpg,gray,n_s_116.jpg,gray,within,NA,NaN,NA,right,3743.0999999940395,0,1,1262.8999999761581
Kyi1HvjK,3e6l1vr4yzzg81jodkfak6sl8ztf6z,35gmh2sv3iugednq97m088p4jmroe3,Kyi1HvjK,2020-0188,2021-10-17,18:44:37,20:31:32,NA,incomplete,false,NA,true,1,1,NA,NA,NA,left,absent,NA,NA,m_s_106.jpg,green,m_l_074.jpg,orange,between,NA,NaN,NA,left,1542.699999988079,1,1,1318.699999988079
Kyi1HvjK,3e6l1vr4yzzg81jodkfak6sl8ztf6z,35gmh2sv3iugednq97m088p4jmroe3,Kyi1HvjK,2020-0188,2021-10-17,18:44:37,20:31:32,NA,incomplete,false,NA,true,1,2,NA,NA,NA,left,absent,NA,NA,m_l_056.jpg,gray,m_l_008.jpg,purple,between,NA,NaN,NA,right,1999.5,0,2,1446.2999999821186
Kyi1HvjK,3e6l1vr4yzzg81jodkfak6sl8ztf6z,35gmh2sv3iugednq97m088p4jmroe3,Kyi1HvjK,2020-0188,2021-10-17,18:44:37,20:31:32,NA,incomplete,false,NA,true,1,3,NA,NA,NA,right,absent,NA,NA,m_l_087.jpg,purple,n_s_048.jpg,purple,within,NA,NaN,NA,right,2263,1,1,2735.2000000178814
Kyi1HvjK,3e6l1vr4yzzg81jodkfak6sl8ztf6z,35gmh2sv3iugednq97m088p4jmroe3,Kyi1HvjK,2020-0188,2021-10-17,18:44:37,20:31:32,NA,incomplete,false,NA,true,1,4,NA,NA,NA,right,absent,NA,NA,n_l_063.jpg,black,n_s_038.jpg,black,within,NA,NaN,NA,left,16767.09999999404,0,2,1518.4000000059605
Kyi1HvjK,3e6l1vr4yzzg81jodkfak6sl8ztf6z,35gmh2sv3iugednq97m088p4jmroe3,Kyi1HvjK,2020-0188,2021-10-17,18:44:37,20:31:32,NA,incomplete,false,NA,true,1,5,NA,NA,NA,right,absent,NA,NA,m_s_093.jpg,red,m_s_060.jpg,red,within,NA,NaN,NA,left,33998.60000002384,0,1,1454.7000000178814
Kyi1HvjK,3e6l1vr4yzzg81jodkfak6sl8ztf6z,35gmh2sv3iugednq97m088p4jmroe3,Kyi1HvjK,2020-0188,2021-10-17,18:44:37,20:31:32,NA,incomplete,false,NA,true,1,6,NA,NA,NA,right,absent,NA,NA,n_l_023.jpg,red,n_l_055.jpg,purple,between,NA,NaN,NA,right,1806.800000011921,1,1,3558.600000023842
Kyi1HvjK,3e6l1vr4yzzg81jodkfak6sl8ztf6z,35gmh2sv3iugednq97m088p4jmroe3,Kyi1HvjK,2020-0188,2021-10-17,18:44:37,20:31:32,NA,incomplete,false,NA,true,1,7,NA,NA,NA,right,absent,NA,NA,n_l_108.jpg,green,n_s_088.jpg,green,within,NA,NaN,NA,right,2951.0999999940395,1,2,1375.1000000238419
Kyi1HvjK,3e6l1vr4yzzg81jodkfak6sl8ztf6z,35gmh2sv3iugednq97m088p4jmroe3,Kyi1HvjK,2020-0188,2021-10-17,18:44:37,20:31:32,NA,incomplete,false,NA,true,1,8,NA,NA,NA,right,absent,NA,NA,m_l_012.jpg,black,n_s_087.jpg,red,between,NA,NaN,NA,right,1855.300000011921,1,1,1487
Kyi1HvjK,3e6l1vr4yzzg81jodkfak6sl8ztf6z,35gmh2sv3iugednq97m088p4jmroe3,Kyi1HvjK,2020-0188,2021-10-17,18:44:37,20:31:32,NA,incomplete,false,NA,true,1,9,NA,NA,NA,right,absent,NA,NA,m_l_052.jpg,green,m_l_044.jpg,black,between,NA,NaN,NA,left,2575.199999988079,0,2,1654.9000000059605
Kyi1HvjK,3e6l1vr4yzzg81jodkfak6sl8ztf6z,35gmh2sv3iugednq97m088p4jmroe3,Kyi1HvjK,2020-0188,2021-10-17,18:44:37,20:31:32,NA,incomplete,false,NA,true,1,10,NA,NA,NA,left,absent,NA,NA,m_l_038.jpg,orange,m_s_018.jpg,orange,within,NA,NaN,NA,left,54983.20000001788,1,2,1542.7999999821186
Kyi1HvjK,3e6l1vr4yzzg81jodkfak6sl8ztf6z,35gmh2sv3iugednq97m088p4jmroe3,Kyi1HvjK,2020-0188,2021-10-17,18:44:37,20:31:32,NA,incomplete,false,true,NA,2,0,NA,white,n_s_108.jpg,NA,NA,unpleasant,pleasant,NA,NA,NA,NA,NA,right,1896.19999998808,true,NA,NA,NA,NA,NA
Kyi1HvjK,3e6l1vr4yzzg81jodkfak6sl8ztf6z,35gmh2sv3iugednq97m088p4jmroe3,Kyi1HvjK,2020-0188,2021-10-17,18:44:37,20:31:32,NA,incomplete,false,true,NA,2,1,NA,white,m_l_084.jpg,NA,NA,unpleasant,pleasant,NA,NA,NA,NA,NA,right,1761.40000000596,true,NA,NA,NA,NA,NA
Kyi1HvjK,3e6l1vr4yzzg81jodkfak6sl8ztf6z,35gmh2sv3iugednq97m088p4jmroe3,Kyi1HvjK,2020-0188,2021-10-17,18:44:37,20:31:32,NA,incomplete,false,true,NA,2,2,NA,white,m_s_011.jpg,NA,NA,unpleasant,pleasant,NA,NA,NA,NA,NA,right,867.40000000596,true,NA,NA,NA,NA,NA
Kyi1HvjK,3e6l1vr4yzzg81jodkfak6sl8ztf6z,35gmh2sv3iugednq97m088p4jmroe3,Kyi1HvjK,2020-0188,2021-10-17,18:44:37,20:31:32,NA,incomplete,false,true,NA,2,3,NA,white,m_s_105.jpg,NA,NA,unpleasant,pleasant,NA,NA,NA,NA,NA,right,825.799999982119,true,NA,NA,NA,NA,NA
Kyi1HvjK,3e6l1vr4yzzg81jodkfak6sl8ztf6z,35gmh2sv3iugednq97m088p4jmroe3,Kyi1HvjK,2020-0188,2021-10-17,18:44:37,20:31:32,NA,incomplete,false,true,NA,2,4,NA,white,n_s_049.jpg,NA,NA,unpleasant,pleasant,NA,NA,NA,NA,NA,left,1065.90000000596,true,NA,NA,NA,NA,NA
Kyi1HvjK,3e6l1vr4yzzg81jodkfak6sl8ztf6z,35gmh2sv3iugednq97m088p4jmroe3,Kyi1HvjK,2020-0188,2021-10-17,18:44:37,20:31:32,NA,incomplete,false,true,NA,2,5,NA,white,n_s_065.jpg,NA,NA,pleasant,unpleasant,NA,NA,NA,NA,NA,right,1307.90000000596,true,NA,NA,NA,NA,NA
Kyi1HvjK,3e6l1vr4yzzg81jodkfak6sl8ztf6z,35gmh2sv3iugednq97m088p4jmroe3,Kyi1HvjK,2020-0188,2021-10-17,18:44:37,20:31:32,NA,incomplete,false,true,NA,2,6,NA,green,m_s_053.jpg,NA,NA,unpleasant,pleasant,NA,NA,NA,NA,NA,left,1361.79999998212,true,NA,NA,NA,NA,NA
Kyi1HvjK,3e6l1vr4yzzg81jodkfak6sl8ztf6z,35gmh2sv3iugednq97m088p4jmroe3,Kyi1HvjK,2020-0188,2021-10-17,18:44:37,20:31:32,NA,incomplete,false,true,NA,2,7,NA,green,m_s_112.jpg,NA,NA,pleasant,unpleasant,NA,NA,NA,NA,NA,left,1041.39999997616,true,NA,NA,NA,NA,NA
Kyi1HvjK,3e6l1vr4yzzg81jodkfak6sl8ztf6z,35gmh2sv3iugednq97m088p4jmroe3,Kyi1HvjK,2020-0188,2021-10-17,18:44:37,20:31:32,NA,incomplete,false,true,NA,2,8,NA,green,n_l_050.jpg,NA,NA,pleasant,unpleasant,NA,NA,NA,NA,NA,left,1164.20000001788,true,NA,NA,NA,NA,NA
Kyi1HvjK,3e6l1vr4yzzg81jodkfak6sl8ztf6z,35gmh2sv3iugednq97m088p4jmroe3,Kyi1HvjK,2020-0188,2021-10-17,18:44:37,20:31:32,NA,incomplete,false,true,NA,2,9,NA,green,m_s_001.jpg,NA,NA,pleasant,unpleasant,NA,NA,NA,NA,NA,left,930.399999976158,true,NA,NA,NA,NA,NA
Kyi1HvjK,3e6l1vr4yzzg81jodkfak6sl8ztf6z,35gmh2sv3iugednq97m088p4jmroe3,Kyi1HvjK,2020-0188,2021-10-17,18:44:37,20:31:32,NA,incomplete,false,true,NA,2,10,NA,green,m_s_009.jpg,NA,NA,unpleasant,pleasant,NA,NA,NA,NA,NA,left,868.200000017881,true,NA,NA,NA,NA,NA
Kyi1HvjK,3e6l1vr4yzzg81jodkfak6sl8ztf6z,35gmh2sv3iugednq97m088p4jmroe3,Kyi1HvjK,2020-0188,2021-10-17,18:44:37,20:31:32,NA,incomplete,false,true,NA,2,11,NA,green,n_l_028.jpg,NA,NA,pleasant,unpleasant,NA,NA,NA,NA,NA,left,1237.40000000596,true,NA,NA,NA,NA,NA
Kyi1HvjK,3e6l1vr4yzzg81jodkfak6sl8ztf6z,35gmh2sv3iugednq97m088p4jmroe3,Kyi1HvjK,2020-0188,2021-10-17,18:44:37,20:31:32,NA,incomplete,false,true,NA,2,12,NA,purple,n_l_098.jpg,NA,NA,pleasant,unpleasant,NA,NA,NA,NA,NA,left,1281.69999998808,true,NA,NA,NA,NA,NA
Kyi1HvjK,3e6l1vr4yzzg81jodkfak6sl8ztf6z,35gmh2sv3iugednq97m088p4jmroe3,Kyi1HvjK,2020-0188,2021-10-17,18:44:37,20:31:32,NA,incomplete,false,true,NA,2,13,NA,purple,n_l_072.jpg,NA,NA,pleasant,unpleasant,NA,NA,NA,NA,NA,right,1331.20000001788,true,NA,NA,NA,NA,NA
Kyi1HvjK,3e6l1vr4yzzg81jodkfak6sl8ztf6z,35gmh2sv3iugednq97m088p4jmroe3,Kyi1HvjK,2020-0188,2021-10-17,18:44:37,20:31:32,NA,incomplete,false,true,NA,2,14,NA,purple,m_l_079.jpg,NA,NA,pleasant,unpleasant,NA,NA,NA,NA,NA,left,1621.30000001192,true,NA,NA,NA,NA,NA
Kyi1HvjK,3e6l1vr4yzzg81jodkfak6sl8ztf6z,35gmh2sv3iugednq97m088p4jmroe3,Kyi1HvjK,2020-0188,2021-10-17,18:44:37,20:31:32,NA,incomplete,false,true,NA,2,15,NA,purple,n_l_068.jpg,NA,NA,unpleasant,pleasant,NA,NA,NA,NA,NA,right,1761.70000001788,true,NA,NA,NA,NA,NA
Kyi1HvjK,3e6l1vr4yzzg81jodkfak6sl8ztf6z,35gmh2sv3iugednq97m088p4jmroe3,Kyi1HvjK,2020-0188,2021-10-17,18:44:37,20:31:32,NA,incomplete,false,true,NA,2,16,NA,purple,n_s_063.jpg,NA,NA,pleasant,unpleasant,NA,NA,NA,NA,NA,right,1443,true,NA,NA,NA,NA,NA
Kyi1HvjK,3e6l1vr4yzzg81jodkfak6sl8ztf6z,35gmh2sv3iugednq97m088p4jmroe3,Kyi1HvjK,2020-0188,2021-10-17,18:44:37,20:31:32,NA,incomplete,false,true,NA,2,17,NA,purple,n_l_024.jpg,NA,NA,pleasant,unpleasant,NA,NA,NA,NA,NA,left,1109.20000001788,true,NA,NA,NA,NA,NA
Kyi1HvjK,3e6l1vr4yzzg81jodkfak6sl8ztf6z,35gmh2sv3iugednq97m088p4jmroe3,Kyi1HvjK,2020-0188,2021-10-17,18:44:37,20:31:32,NA,incomplete,false,true,NA,2,18,NA,yellow,m_l_060.jpg,NA,NA,unpleasant,pleasant,NA,NA,NA,NA,NA,right,1307.29999998212,true,NA,NA,NA,NA,NA
Kyi1HvjK,3e6l1vr4yzzg81jodkfak6sl8ztf6z,35gmh2sv3iugednq97m088p4jmroe3,Kyi1HvjK,2020-0188,2021-10-17,18:44:37,20:31:32,NA,incomplete,false,true,NA,2,19,NA,yellow,n_l_053.jpg,NA,NA,unpleasant,pleasant,NA,NA,NA,NA,NA,left,1235.60000002384,true,NA,NA,NA,NA,NA
Kyi1HvjK,3e6l1vr4yzzg81jodkfak6sl8ztf6z,35gmh2sv3iugednq97m088p4jmroe3,Kyi1HvjK,2020-0188,2021-10-17,18:44:37,20:31:32,NA,incomplete,false,true,NA,2,20,NA,yellow,n_l_107.jpg,NA,NA,unpleasant,pleasant,NA,NA,NA,NA,NA,left,1340.5,true,NA,NA,NA,NA,NA
Kyi1HvjK,3e6l1vr4yzzg81jodkfak6sl8ztf6z,35gmh2sv3iugednq97m088p4jmroe3,Kyi1HvjK,2020-0188,2021-10-17,18:44:37,20:31:32,NA,incomplete,false,true,NA,2,21,NA,yellow,m_s_095.jpg,NA,NA,unpleasant,pleasant,NA,NA,NA,NA,NA,left,1443.30000001192,true,NA,NA,NA,NA,NA
Kyi1HvjK,3e6l1vr4yzzg81jodkfak6sl8ztf6z,35gmh2sv3iugednq97m088p4jmroe3,Kyi1HvjK,2020-0188,2021-10-17,18:44:37,20:31:32,NA,incomplete,false,true,NA,2,22,NA,yellow,n_l_112.jpg,NA,NA,pleasant,unpleasant,NA,NA,NA,NA,NA,right,1379.59999999404,true,NA,NA,NA,NA,NA
Kyi1HvjK,3e6l1vr4yzzg81jodkfak6sl8ztf6z,35gmh2sv3iugednq97m088p4jmroe3,Kyi1HvjK,2020-0188,2021-10-17,18:44:37,20:31:32,NA,incomplete,false,true,NA,2,23,NA,yellow,n_s_022.jpg,NA,NA,pleasant,unpleasant,NA,NA,NA,NA,NA,right,1244.89999997616,true,NA,NA,NA,NA,NA
Kyi1HvjK,3e6l1vr4yzzg81jodkfak6sl8ztf6z,35gmh2sv3iugednq97m088p4jmroe3,Kyi1HvjK,2020-0188,2021-10-17,18:44:37,20:31:32,NA,incomplete,false,true,NA,2,24,NA,blue,n_l_077.jpg,NA,NA,pleasant,unpleasant,NA,NA,NA,NA,NA,right,1083,true,NA,NA,NA,NA,NA
Kyi1HvjK,3e6l1vr4yzzg81jodkfak6sl8ztf6z,35gmh2sv3iugednq97m088p4jmroe3,Kyi1HvjK,2020-0188,2021-10-17,18:44:37,20:31:32,NA,incomplete,false,true,NA,2,25,NA,blue,m_s_111.jpg,NA,NA,unpleasant,pleasant,NA,NA,NA,NA,NA,right,1171.79999998212,true,NA,NA,NA,NA,NA
Kyi1HvjK,3e6l1vr4yzzg81jodkfak6sl8ztf6z,35gmh2sv3iugednq97m088p4jmroe3,Kyi1HvjK,2020-0188,2021-10-17,18:44:37,20:31:32,NA,incomplete,false,true,NA,2,26,NA,blue,m_l_064.jpg,NA,NA,unpleasant,pleasant,NA,NA,NA,NA,NA,right,957,true,NA,NA,NA,NA,NA
Kyi1HvjK,3e6l1vr4yzzg81jodkfak6sl8ztf6z,35gmh2sv3iugednq97m088p4jmroe3,Kyi1HvjK,2020-0188,2021-10-17,18:44:37,20:31:32,NA,incomplete,false,true,NA,2,27,NA,blue,n_l_100.jpg,NA,NA,pleasant,unpleasant,NA,NA,NA,NA,NA,left,1723.90000000596,true,NA,NA,NA,NA,NA
Kyi1HvjK,3e6l1vr4yzzg81jodkfak6sl8ztf6z,35gmh2sv3iugednq97m088p4jmroe3,Kyi1HvjK,2020-0188,2021-10-17,18:44:37,20:31:32,NA,incomplete,false,true,NA,2,28,NA,blue,m_s_059.jpg,NA,NA,pleasant,unpleasant,NA,NA,NA,NA,NA,left,1147.69999998808,true,NA,NA,NA,NA,NA
Kyi1HvjK,3e6l1vr4yzzg81jodkfak6sl8ztf6z,35gmh2sv3iugednq97m088p4jmroe3,Kyi1HvjK,2020-0188,2021-10-17,18:44:37,20:31:32,NA,incomplete,false,true,NA,2,29,NA,blue,m_s_026.jpg,NA,NA,pleasant,unpleasant,NA,NA,NA,NA,NA,left,909.399999976158,true,NA,NA,NA,NA,NA
Kyi1HvjK,3e6l1vr4yzzg81jodkfak6sl8ztf6z,35gmh2sv3iugednq97m088p4jmroe3,Kyi1HvjK,2020-0188,2021-10-17,18:44:37,20:31:32,NA,incomplete,false,true,NA,2,30,NA,red,m_s_022.jpg,NA,NA,unpleasant,pleasant,NA,NA,NA,NA,NA,right,1012.40000000596,true,NA,NA,NA,NA,NA
Kyi1HvjK,3e6l1vr4yzzg81jodkfak6sl8ztf6z,35gmh2sv3iugednq97m088p4jmroe3,Kyi1HvjK,2020-0188,2021-10-17,18:44:37,20:31:32,NA,incomplete,false,true,NA,2,31,NA,red,m_s_076.jpg,NA,NA,unpleasant,pleasant,NA,NA,NA,NA,NA,right,1076.59999999404,true,NA,NA,NA,NA,NA
Kyi1HvjK,3e6l1vr4yzzg81jodkfak6sl8ztf6z,35gmh2sv3iugednq97m088p4jmroe3,Kyi1HvjK,2020-0188,2021-10-17,18:44:37,20:31:32,NA,incomplete,false,true,NA,2,32,NA,red,m_s_005.jpg,NA,NA,unpleasant,pleasant,NA,NA,NA,NA,NA,right,877.600000023842,true,NA,NA,NA,NA,NA
Kyi1HvjK,3e6l1vr4yzzg81jodkfak6sl8ztf6z,35gmh2sv3iugednq97m088p4jmroe3,Kyi1HvjK,2020-0188,2021-10-17,18:44:37,20:31:32,NA,incomplete,false,true,NA,2,33,NA,red,n_s_078.jpg,NA,NA,unpleasant,pleasant,NA,NA,NA,NA,NA,left,1107.59999999404,true,NA,NA,NA,NA,NA
Kyi1HvjK,3e6l1vr4yzzg81jodkfak6sl8ztf6z,35gmh2sv3iugednq97m088p4jmroe3,Kyi1HvjK,2020-0188,2021-10-17,18:44:37,20:31:32,NA,incomplete,false,true,NA,2,34,NA,red,n_l_095.jpg,NA,NA,pleasant,unpleasant,NA,NA,NA,NA,NA,left,1509.30000001192,true,NA,NA,NA,NA,NA
Kyi1HvjK,3e6l1vr4yzzg81jodkfak6sl8ztf6z,35gmh2sv3iugednq97m088p4jmroe3,Kyi1HvjK,2020-0188,2021-10-17,18:44:37,20:31:32,NA,incomplete,false,true,NA,2,35,NA,red,m_s_029.jpg,NA,NA,pleasant,unpleasant,NA,NA,NA,NA,NA,right,1166.5,true,NA,NA,NA,NA,NA
Kyi1HvjK,3e6l1vr4yzzg81jodkfak6sl8ztf6z,35gmh2sv3iugednq97m088p4jmroe3,Kyi1HvjK,2020-0188,2021-10-17,18:44:37,20:31:32,NA,incomplete,false,NA,true,2,0,NA,NA,NA,left,absent,NA,NA,m_s_076.jpg,red,m_s_029.jpg,red,within,NA,NaN,NA,right,2276.0999999940395,0,1,2126
Kyi1HvjK,3e6l1vr4yzzg81jodkfak6sl8ztf6z,35gmh2sv3iugednq97m088p4jmroe3,Kyi1HvjK,2020-0188,2021-10-17,18:44:37,20:31:32,NA,incomplete,false,NA,true,2,1,NA,NA,NA,left,absent,NA,NA,m_s_059.jpg,blue,m_s_005.jpg,red,between,NA,NaN,NA,right,2253.9000000059605,0,1,1133.9000000059605
Kyi1HvjK,3e6l1vr4yzzg81jodkfak6sl8ztf6z,35gmh2sv3iugednq97m088p4jmroe3,Kyi1HvjK,2020-0188,2021-10-17,18:44:37,20:31:32,NA,incomplete,false,NA,true,2,2,NA,NA,NA,right,absent,NA,NA,n_l_028.jpg,green,m_s_112.jpg,green,within,NA,NaN,NA,right,2430.2999999821186,1,2,2134.0999999940395
Kyi1HvjK,3e6l1vr4yzzg81jodkfak6sl8ztf6z,35gmh2sv3iugednq97m088p4jmroe3,Kyi1HvjK,2020-0188,2021-10-17,18:44:37,20:31:32,NA,incomplete,false,NA,true,2,3,NA,NA,NA,left,absent,NA,NA,n_s_063.jpg,purple,n_l_107.jpg,yellow,between,NA,NaN,NA,right,1543.199999988079,0,1,1366.7000000178814
Kyi1HvjK,3e6l1vr4yzzg81jodkfak6sl8ztf6z,35gmh2sv3iugednq97m088p4jmroe3,Kyi1HvjK,2020-0188,2021-10-17,18:44:37,20:31:32,NA,incomplete,false,NA,true,2,4,NA,NA,NA,left,absent,NA,NA,n_l_112.jpg,yellow,m_l_064.jpg,blue,between,NA,NaN,NA,right,2087.5999999940395,0,0,1318.9000000059605
Kyi1HvjK,3e6l1vr4yzzg81jodkfak6sl8ztf6z,35gmh2sv3iugednq97m088p4jmroe3,Kyi1HvjK,2020-0188,2021-10-17,18:44:37,20:31:32,NA,incomplete,false,NA,true,2,5,NA,NA,NA,left,absent,NA,NA,n_l_072.jpg,purple,n_l_024.jpg,purple,within,NA,NaN,NA,right,1167.300000011921,0,0,1870.699999988079
Kyi1HvjK,3e6l1vr4yzzg81jodkfak6sl8ztf6z,35gmh2sv3iugednq97m088p4jmroe3,Kyi1HvjK,2020-0188,2021-10-17,18:44:37,20:31:32,NA,incomplete,false,NA,true,2,6,NA,NA,NA,right,absent,NA,NA,n_s_022.jpg,yellow,n_l_053.jpg,yellow,within,NA,NaN,NA,right,1951.300000011921,1,0,1710.5
Kyi1HvjK,3e6l1vr4yzzg81jodkfak6sl8ztf6z,35gmh2sv3iugednq97m088p4jmroe3,Kyi1HvjK,2020-0188,2021-10-17,18:44:37,20:31:32,NA,incomplete,false,NA,true,2,7,NA,NA,NA,left,absent,NA,NA,n_s_049.jpg,white,n_l_050.jpg,green,between,NA,NaN,NA,right,1110.800000011921,0,0,1439
Kyi1HvjK,3e6l1vr4yzzg81jodkfak6sl8ztf6z,35gmh2sv3iugednq97m088p4jmroe3,Kyi1HvjK,2020-0188,2021-10-17,18:44:37,20:31:32,NA,incomplete,false,NA,true,2,8,NA,NA,NA,right,absent,NA,NA,m_s_026.jpg,blue,m_s_111.jpg,blue,within,NA,NaN,NA,right,1239.300000011921,1,0,1751
Kyi1HvjK,3e6l1vr4yzzg81jodkfak6sl8ztf6z,35gmh2sv3iugednq97m088p4jmroe3,Kyi1HvjK,2020-0188,2021-10-17,18:44:37,20:31:32,NA,incomplete,false,NA,true,2,9,NA,NA,NA,right,absent,NA,NA,m_l_079.jpg,purple,m_s_009.jpg,green,between,NA,NaN,NA,right,895.3000000119209,1,0,1862.800000011921
Kyi1HvjK,3e6l1vr4yzzg81jodkfak6sl8ztf6z,35gmh2sv3iugednq97m088p4jmroe3,Kyi1HvjK,2020-0188,2021-10-17,18:44:37,20:31:32,NA,incomplete,false,NA,true,2,10,NA,NA,NA,left,absent,NA,NA,m_l_084.jpg,white,n_s_065.jpg,white,within,NA,NaN,NA,left,1511.2000000178814,1,0,1598.5999999940395
Kyi1HvjK,3e6l1vr4yzzg81jodkfak6sl8ztf6z,35gmh2sv3iugednq97m088p4jmroe3,Kyi1HvjK,2020-0188,2021-10-17,18:44:37,20:31:32,NA,incomplete,false,true,NA,3,0,NA,gray,n_s_012.jpg,NA,NA,unpleasant,pleasant,NA,NA,NA,NA,NA,right,1530.90000000596,true,NA,NA,NA,NA,NA
Kyi1HvjK,3e6l1vr4yzzg81jodkfak6sl8ztf6z,35gmh2sv3iugednq97m088p4jmroe3,Kyi1HvjK,2020-0188,2021-10-17,18:44:37,20:31:32,NA,incomplete,false,true,NA,3,1,NA,gray,m_s_042.jpg,NA,NA,unpleasant,pleasant,NA,NA,NA,NA,NA,right,668.699999988079,true,NA,NA,NA,NA,NA
Kyi1HvjK,3e6l1vr4yzzg81jodkfak6sl8ztf6z,35gmh2sv3iugednq97m088p4jmroe3,Kyi1HvjK,2020-0188,2021-10-17,18:44:37,20:31:32,NA,incomplete,false,true,NA,3,2,NA,gray,m_s_080.jpg,NA,NA,unpleasant,pleasant,NA,NA,NA,NA,NA,right,938.5,true,NA,NA,NA,NA,NA
Kyi1HvjK,3e6l1vr4yzzg81jodkfak6sl8ztf6z,35gmh2sv3iugednq97m088p4jmroe3,Kyi1HvjK,2020-0188,2021-10-17,18:44:37,20:31:32,NA,incomplete,false,true,NA,3,3,NA,gray,n_s_109.jpg,NA,NA,unpleasant,pleasant,NA,NA,NA,NA,NA,right,1210,true,NA,NA,NA,NA,NA
Kyi1HvjK,3e6l1vr4yzzg81jodkfak6sl8ztf6z,35gmh2sv3iugednq97m088p4jmroe3,Kyi1HvjK,2020-0188,2021-10-17,18:44:37,20:31:32,NA,incomplete,false,true,NA,3,4,NA,gray,m_l_039.jpg,NA,NA,pleasant,unpleasant,NA,NA,NA,NA,NA,right,2052.09999999404,true,NA,NA,NA,NA,NA
Kyi1HvjK,3e6l1vr4yzzg81jodkfak6sl8ztf6z,35gmh2sv3iugednq97m088p4jmroe3,Kyi1HvjK,2020-0188,2021-10-17,18:44:37,20:31:32,NA,incomplete,false,true,NA,3,5,NA,gray,m_s_021.jpg,NA,NA,pleasant,unpleasant,NA,NA,NA,NA,NA,left,1474.29999998212,true,NA,NA,NA,NA,NA
Kyi1HvjK,3e6l1vr4yzzg81jodkfak6sl8ztf6z,35gmh2sv3iugednq97m088p4jmroe3,Kyi1HvjK,2020-0188,2021-10-17,18:44:37,20:31:32,NA,incomplete,false,true,NA,3,6,NA,black,n_l_051.jpg,NA,NA,pleasant,unpleasant,NA,NA,NA,NA,NA,right,1066.79999998212,true,NA,NA,NA,NA,NA
Kyi1HvjK,3e6l1vr4yzzg81jodkfak6sl8ztf6z,35gmh2sv3iugednq97m088p4jmroe3,Kyi1HvjK,2020-0188,2021-10-17,18:44:37,20:31:32,NA,incomplete,false,true,NA,3,7,NA,black,n_s_008.jpg,NA,NA,pleasant,unpleasant,NA,NA,NA,NA,NA,right,1580.09999999404,true,NA,NA,NA,NA,NA
Kyi1HvjK,3e6l1vr4yzzg81jodkfak6sl8ztf6z,35gmh2sv3iugednq97m088p4jmroe3,Kyi1HvjK,2020-0188,2021-10-17,18:44:37,20:31:32,NA,incomplete,false,true,NA,3,8,NA,black,n_s_041.jpg,NA,NA,pleasant,unpleasant,NA,NA,NA,NA,NA,left,1114.89999997616,true,NA,NA,NA,NA,NA
Kyi1HvjK,3e6l1vr4yzzg81jodkfak6sl8ztf6z,35gmh2sv3iugednq97m088p4jmroe3,Kyi1HvjK,2020-0188,2021-10-17,18:44:37,20:31:32,NA,incomplete,false,true,NA,3,9,NA,black,m_l_065.jpg,NA,NA,pleasant,unpleasant,NA,NA,NA,NA,NA,left,1090.5,true,NA,NA,NA,NA,NA
Kyi1HvjK,3e6l1vr4yzzg81jodkfak6sl8ztf6z,35gmh2sv3iugednq97m088p4jmroe3,Kyi1HvjK,2020-0188,2021-10-17,18:44:37,20:31:32,NA,incomplete,false,true,NA,3,10,NA,black,n_s_017.jpg,NA,NA,unpleasant,pleasant,NA,NA,NA,NA,NA,left,1357.39999997616,true,NA,NA,NA,NA,NA
Kyi1HvjK,3e6l1vr4yzzg81jodkfak6sl8ztf6z,35gmh2sv3iugednq97m088p4jmroe3,Kyi1HvjK,2020-0188,2021-10-17,18:44:37,20:31:32,NA,incomplete,false,true,NA,3,11,NA,black,m_l_041.jpg,NA,NA,pleasant,unpleasant,NA,NA,NA,NA,NA,left,1453.30000001192,true,NA,NA,NA,NA,NA
Kyi1HvjK,3e6l1vr4yzzg81jodkfak6sl8ztf6z,35gmh2sv3iugednq97m088p4jmroe3,Kyi1HvjK,2020-0188,2021-10-17,18:44:37,20:31:32,NA,incomplete,false,true,NA,3,12,NA,orange,n_l_101.jpg,NA,NA,unpleasant,pleasant,NA,NA,NA,NA,NA,right,2236.30000001192,true,NA,NA,NA,NA,NA
Kyi1HvjK,3e6l1vr4yzzg81jodkfak6sl8ztf6z,35gmh2sv3iugednq97m088p4jmroe3,Kyi1HvjK,2020-0188,2021-10-17,18:44:37,20:31:32,NA,incomplete,false,true,NA,3,13,NA,orange,n_l_061.jpg,NA,NA,unpleasant,pleasant,NA,NA,NA,NA,NA,left,1708.19999998808,true,NA,NA,NA,NA,NA
Kyi1HvjK,3e6l1vr4yzzg81jodkfak6sl8ztf6z,35gmh2sv3iugednq97m088p4jmroe3,Kyi1HvjK,2020-0188,2021-10-17,18:44:37,20:31:32,NA,incomplete,false,true,NA,3,14,NA,orange,m_s_036.jpg,NA,NA,unpleasant,pleasant,NA,NA,NA,NA,NA,right,1675.69999998808,true,NA,NA,NA,NA,NA
Kyi1HvjK,3e6l1vr4yzzg81jodkfak6sl8ztf6z,35gmh2sv3iugednq97m088p4jmroe3,Kyi1HvjK,2020-0188,2021-10-17,18:44:37,20:31:32,NA,incomplete,false,true,NA,3,15,NA,orange,n_l_090.jpg,NA,NA,pleasant,unpleasant,NA,NA,NA,NA,NA,right,1787.09999999404,true,NA,NA,NA,NA,NA
Kyi1HvjK,3e6l1vr4yzzg81jodkfak6sl8ztf6z,35gmh2sv3iugednq97m088p4jmroe3,Kyi1HvjK,2020-0188,2021-10-17,18:44:37,20:31:32,NA,incomplete,false,true,NA,3,16,NA,orange,m_s_013.jpg,NA,NA,unpleasant,pleasant,NA,NA,NA,NA,NA,left,1357.30000001192,true,NA,NA,NA,NA,NA
Kyi1HvjK,3e6l1vr4yzzg81jodkfak6sl8ztf6z,35gmh2sv3iugednq97m088p4jmroe3,Kyi1HvjK,2020-0188,2021-10-17,18:44:37,20:31:32,NA,incomplete,false,true,NA,3,17,NA,orange,n_l_027.jpg,NA,NA,unpleasant,pleasant,NA,NA,NA,NA,NA,right,1004,true,NA,NA,NA,NA,NA
Kyi1HvjK,3e6l1vr4yzzg81jodkfak6sl8ztf6z,35gmh2sv3iugednq97m088p4jmroe3,Kyi1HvjK,2020-0188,2021-10-17,18:44:37,20:31:32,NA,incomplete,false,true,NA,3,18,NA,brown,n_s_013.jpg,NA,NA,unpleasant,pleasant,NA,NA,NA,NA,NA,right,995,true,NA,NA,NA,NA,NA
Kyi1HvjK,3e6l1vr4yzzg81jodkfak6sl8ztf6z,35gmh2sv3iugednq97m088p4jmroe3,Kyi1HvjK,2020-0188,2021-10-17,18:44:37,20:31:32,NA,incomplete,false,true,NA,3,19,NA,brown,n_s_018.jpg,NA,NA,pleasant,unpleasant,NA,NA,NA,NA,NA,left,1349,true,NA,NA,NA,NA,NA
Kyi1HvjK,3e6l1vr4yzzg81jodkfak6sl8ztf6z,35gmh2sv3iugednq97m088p4jmroe3,Kyi1HvjK,2020-0188,2021-10-17,18:44:37,20:31:32,NA,incomplete,false,true,NA,3,20,NA,brown,n_l_044.jpg,NA,NA,pleasant,unpleasant,NA,NA,NA,NA,NA,left,852,true,NA,NA,NA,NA,NA
Kyi1HvjK,3e6l1vr4yzzg81jodkfak6sl8ztf6z,35gmh2sv3iugednq97m088p4jmroe3,Kyi1HvjK,2020-0188,2021-10-17,18:44:37,20:31:32,NA,incomplete,false,true,NA,3,21,NA,brown,m_l_050.jpg,NA,NA,unpleasant,pleasant,NA,NA,NA,NA,NA,right,1227.19999998808,true,NA,NA,NA,NA,NA
Kyi1HvjK,3e6l1vr4yzzg81jodkfak6sl8ztf6z,35gmh2sv3iugednq97m088p4jmroe3,Kyi1HvjK,2020-0188,2021-10-17,18:44:37,20:31:32,NA,incomplete,false,true,NA,3,22,NA,brown,m_l_047.jpg,NA,NA,unpleasant,pleasant,NA,NA,NA,NA,NA,left,1221.19999998808,true,NA,NA,NA,NA,NA
Kyi1HvjK,3e6l1vr4yzzg81jodkfak6sl8ztf6z,35gmh2sv3iugednq97m088p4jmroe3,Kyi1HvjK,2020-0188,2021-10-17,18:44:37,20:31:32,NA,incomplete,false,true,NA,3,23,NA,brown,n_l_076.jpg,NA,NA,pleasant,unpleasant,NA,NA,NA,NA,NA,right,1123.20000001788,true,NA,NA,NA,NA,NA
Kyi1HvjK,3e6l1vr4yzzg81jodkfak6sl8ztf6z,35gmh2sv3iugednq97m088p4jmroe3,Kyi1HvjK,2020-0188,2021-10-17,18:44:37,20:31:32,NA,incomplete,false,true,NA,3,24,NA,blue,m_l_032.jpg,NA,NA,pleasant,unpleasant,NA,NA,NA,NA,NA,left,1252.30000001192,true,NA,NA,NA,NA,NA
Kyi1HvjK,3e6l1vr4yzzg81jodkfak6sl8ztf6z,35gmh2sv3iugednq97m088p4jmroe3,Kyi1HvjK,2020-0188,2021-10-17,18:44:37,20:31:32,NA,incomplete,false,true,NA,3,25,NA,blue,n_l_039.jpg,NA,NA,unpleasant,pleasant,NA,NA,NA,NA,NA,right,1693.09999999404,true,NA,NA,NA,NA,NA
Kyi1HvjK,3e6l1vr4yzzg81jodkfak6sl8ztf6z,35gmh2sv3iugednq97m088p4jmroe3,Kyi1HvjK,2020-0188,2021-10-17,18:44:37,20:31:32,NA,incomplete,false,true,NA,3,26,NA,blue,m_s_056.jpg,NA,NA,unpleasant,pleasant,NA,NA,NA,NA,NA,right,1259.5,true,NA,NA,NA,NA,NA
Kyi1HvjK,3e6l1vr4yzzg81jodkfak6sl8ztf6z,35gmh2sv3iugednq97m088p4jmroe3,Kyi1HvjK,2020-0188,2021-10-17,18:44:37,20:31:32,NA,incomplete,false,true,NA,3,27,NA,blue,m_s_117.jpg,NA,NA,unpleasant,pleasant,NA,NA,NA,NA,NA,right,1187.80000001192,true,NA,NA,NA,NA,NA
Kyi1HvjK,3e6l1vr4yzzg81jodkfak6sl8ztf6z,35gmh2sv3iugednq97m088p4jmroe3,Kyi1HvjK,2020-0188,2021-10-17,18:44:37,20:31:32,NA,incomplete,false,true,NA,3,28,NA,blue,n_s_096.jpg,NA,NA,unpleasant,pleasant,NA,NA,NA,NA,NA,right,1051.79999998212,true,NA,NA,NA,NA,NA
Kyi1HvjK,3e6l1vr4yzzg81jodkfak6sl8ztf6z,35gmh2sv3iugednq97m088p4jmroe3,Kyi1HvjK,2020-0188,2021-10-17,18:44:37,20:31:32,NA,incomplete,false,true,NA,3,29,NA,blue,n_s_105.jpg,NA,NA,unpleasant,pleasant,NA,NA,NA,NA,NA,right,1419,true,NA,NA,NA,NA,NA
Kyi1HvjK,3e6l1vr4yzzg81jodkfak6sl8ztf6z,35gmh2sv3iugednq97m088p4jmroe3,Kyi1HvjK,2020-0188,2021-10-17,18:44:37,20:31:32,NA,incomplete,false,true,NA,3,30,NA,green,m_s_016.jpg,NA,NA,pleasant,unpleasant,NA,NA,NA,NA,NA,left,1115,true,NA,NA,NA,NA,NA
Kyi1HvjK,3e6l1vr4yzzg81jodkfak6sl8ztf6z,35gmh2sv3iugednq97m088p4jmroe3,Kyi1HvjK,2020-0188,2021-10-17,18:44:37,20:31:32,NA,incomplete,false,true,NA,3,31,NA,green,m_l_021.jpg,NA,NA,unpleasant,pleasant,NA,NA,NA,NA,NA,right,1124.60000002384,true,NA,NA,NA,NA,NA
Kyi1HvjK,3e6l1vr4yzzg81jodkfak6sl8ztf6z,35gmh2sv3iugednq97m088p4jmroe3,Kyi1HvjK,2020-0188,2021-10-17,18:44:37,20:31:32,NA,incomplete,false,true,NA,3,32,NA,green,n_s_031.jpg,NA,NA,pleasant,unpleasant,NA,NA,NA,NA,NA,right,1259.30000001192,true,NA,NA,NA,NA,NA
Kyi1HvjK,3e6l1vr4yzzg81jodkfak6sl8ztf6z,35gmh2sv3iugednq97m088p4jmroe3,Kyi1HvjK,2020-0188,2021-10-17,18:44:37,20:31:32,NA,incomplete,false,true,NA,3,33,NA,green,m_l_089.jpg,NA,NA,unpleasant,pleasant,NA,NA,NA,NA,NA,right,987.399999976158,true,NA,NA,NA,NA,NA
Kyi1HvjK,3e6l1vr4yzzg81jodkfak6sl8ztf6z,35gmh2sv3iugednq97m088p4jmroe3,Kyi1HvjK,2020-0188,2021-10-17,18:44:37,20:31:32,NA,incomplete,false,true,NA,3,34,NA,green,n_l_005.jpg,NA,NA,unpleasant,pleasant,NA,NA,NA,NA,NA,right,1196.80000001192,true,NA,NA,NA,NA,NA
Kyi1HvjK,3e6l1vr4yzzg81jodkfak6sl8ztf6z,35gmh2sv3iugednq97m088p4jmroe3,Kyi1HvjK,2020-0188,2021-10-17,18:44:37,20:31:32,NA,incomplete,false,true,NA,3,35,NA,green,m_l_016.jpg,NA,NA,unpleasant,pleasant,NA,NA,NA,NA,NA,right,891.200000017881,true,NA,NA,NA,NA,NA
Kyi1HvjK,3e6l1vr4yzzg81jodkfak6sl8ztf6z,35gmh2sv3iugednq97m088p4jmroe3,Kyi1HvjK,2020-0188,2021-10-17,18:44:37,20:31:32,NA,incomplete,false,NA,true,3,0,NA,NA,NA,left,present,NA,NA,m_s_042.jpg,gray,m_s_021.jpg,gray,within,NA,NaN,NA,left,2611.0999999940395,1,1,1926.800000011921
Kyi1HvjK,3e6l1vr4yzzg81jodkfak6sl8ztf6z,35gmh2sv3iugednq97m088p4jmroe3,Kyi1HvjK,2020-0188,2021-10-17,18:44:37,20:31:32,NA,incomplete,false,NA,true,3,1,NA,NA,NA,right,present,NA,NA,n_l_027.jpg,orange,n_l_061.jpg,orange,within,NA,NaN,NA,right,2391.300000011921,1,0,1949.800000011921
Kyi1HvjK,3e6l1vr4yzzg81jodkfak6sl8ztf6z,35gmh2sv3iugednq97m088p4jmroe3,Kyi1HvjK,2020-0188,2021-10-17,18:44:37,20:31:32,NA,incomplete,false,NA,true,3,2,NA,NA,NA,right,present,NA,NA,m_l_041.jpg,black,n_s_008.jpg,black,within,NA,NaN,NA,right,4103.4000000059605,1,2,8087.0999999940395
Kyi1HvjK,3e6l1vr4yzzg81jodkfak6sl8ztf6z,35gmh2sv3iugednq97m088p4jmroe3,Kyi1HvjK,2020-0188,2021-10-17,18:44:37,20:31:32,NA,incomplete,false,NA,true,3,3,NA,NA,NA,left,present,NA,NA,m_l_047.jpg,brown,m_s_056.jpg,blue,between,NA,NaN,NA,right,1886.8999999761581,0,0,1726.9000000059605
Kyi1HvjK,3e6l1vr4yzzg81jodkfak6sl8ztf6z,35gmh2sv3iugednq97m088p4jmroe3,Kyi1HvjK,2020-0188,2021-10-17,18:44:37,20:31:32,NA,incomplete,false,NA,true,3,4,NA,NA,NA,right,present,NA,NA,n_l_044.jpg,brown,m_s_013.jpg,orange,between,NA,NaN,NA,left,2014.800000011921,0,0,2167.4000000059605
Kyi1HvjK,3e6l1vr4yzzg81jodkfak6sl8ztf6z,35gmh2sv3iugednq97m088p4jmroe3,Kyi1HvjK,2020-0188,2021-10-17,18:44:37,20:31:32,NA,incomplete,false,NA,true,3,5,NA,NA,NA,right,present,NA,NA,m_l_016.jpg,green,m_l_021.jpg,green,within,NA,NaN,NA,left,1927.0999999940395,0,0,1655.300000011921
Kyi1HvjK,3e6l1vr4yzzg81jodkfak6sl8ztf6z,35gmh2sv3iugednq97m088p4jmroe3,Kyi1HvjK,2020-0188,2021-10-17,18:44:37,20:31:32,NA,incomplete,false,NA,true,3,6,NA,NA,NA,left,present,NA,NA,m_l_039.jpg,gray,n_s_041.jpg,black,between,NA,NaN,NA,right,2822.699999988079,0,0,1510.800000011921
Kyi1HvjK,3e6l1vr4yzzg81jodkfak6sl8ztf6z,35gmh2sv3iugednq97m088p4jmroe3,Kyi1HvjK,2020-0188,2021-10-17,18:44:37,20:31:32,NA,incomplete,false,NA,true,3,7,NA,NA,NA,left,present,NA,NA,n_l_039.jpg,blue,n_s_105.jpg,blue,within,NA,NaN,NA,left,1455.300000011921,1,2,1126.9000000059605
Kyi1HvjK,3e6l1vr4yzzg81jodkfak6sl8ztf6z,35gmh2sv3iugednq97m088p4jmroe3,Kyi1HvjK,2020-0188,2021-10-17,18:44:37,20:31:32,NA,incomplete,false,NA,true,3,8,NA,NA,NA,right,present,NA,NA,n_s_031.jpg,green,n_s_096.jpg,blue,between,NA,NaN,NA,right,1510.5999999940395,1,0,1438.9000000059605
Kyi1HvjK,3e6l1vr4yzzg81jodkfak6sl8ztf6z,35gmh2sv3iugednq97m088p4jmroe3,Kyi1HvjK,2020-0188,2021-10-17,18:44:37,20:31:32,NA,incomplete,false,NA,true,3,9,NA,NA,NA,left,present,NA,NA,n_s_018.jpg,brown,n_l_076.jpg,brown,within,NA,NaN,NA,right,1718.5999999940395,0,0,1206.5
Kyi1HvjK,3e6l1vr4yzzg81jodkfak6sl8ztf6z,35gmh2sv3iugednq97m088p4jmroe3,Kyi1HvjK,2020-0188,2021-10-17,18:44:37,20:31:32,NA,incomplete,false,NA,true,3,10,NA,NA,NA,right,present,NA,NA,m_s_036.jpg,orange,n_s_017.jpg,black,between,NA,NaN,NA,left,1343.300000011921,0,3,1918.699999988079
Kyi1HvjK,3e6l1vr4yzzg81jodkfak6sl8ztf6z,35gmh2sv3iugednq97m088p4jmroe3,Kyi1HvjK,2020-0188,2021-10-17,18:44:37,20:31:32,NA,incomplete,false,true,NA,4,0,NA,orange,m_s_069.jpg,NA,NA,pleasant,unpleasant,NA,NA,NA,NA,NA,left,2430.80000001192,true,NA,NA,NA,NA,NA
Kyi1HvjK,3e6l1vr4yzzg81jodkfak6sl8ztf6z,35gmh2sv3iugednq97m088p4jmroe3,Kyi1HvjK,2020-0188,2021-10-17,18:44:37,20:31:32,NA,incomplete,false,true,NA,4,1,NA,orange,n_l_074.jpg,NA,NA,unpleasant,pleasant,NA,NA,NA,NA,NA,left,494.59999999404,true,NA,NA,NA,NA,NA
Kyi1HvjK,3e6l1vr4yzzg81jodkfak6sl8ztf6z,35gmh2sv3iugednq97m088p4jmroe3,Kyi1HvjK,2020-0188,2021-10-17,18:44:37,20:31:32,NA,incomplete,false,true,NA,4,2,NA,orange,m_l_049.jpg,NA,NA,unpleasant,pleasant,NA,NA,NA,NA,NA,right,8,true,NA,NA,NA,NA,NA
Kyi1HvjK,3e6l1vr4yzzg81jodkfak6sl8ztf6z,35gmh2sv3iugednq97m088p4jmroe3,Kyi1HvjK,2020-0188,2021-10-17,18:44:37,20:31:32,NA,incomplete,false,true,NA,4,3,NA,orange,m_s_099.jpg,NA,NA,unpleasant,pleasant,NA,NA,NA,NA,NA,right,951.200000017881,true,NA,NA,NA,NA,NA
Kyi1HvjK,3e6l1vr4yzzg81jodkfak6sl8ztf6z,35gmh2sv3iugednq97m088p4jmroe3,Kyi1HvjK,2020-0188,2021-10-17,18:44:37,20:31:32,NA,incomplete,false,true,NA,4,4,NA,orange,m_l_057.jpg,NA,NA,unpleasant,pleasant,NA,NA,NA,NA,NA,right,849.200000017881,true,NA,NA,NA,NA,NA
Kyi1HvjK,3e6l1vr4yzzg81jodkfak6sl8ztf6z,35gmh2sv3iugednq97m088p4jmroe3,Kyi1HvjK,2020-0188,2021-10-17,18:44:37,20:31:32,NA,incomplete,false,true,NA,4,5,NA,orange,m_s_085.jpg,NA,NA,pleasant,unpleasant,NA,NA,NA,NA,NA,right,1166.40000000596,true,NA,NA,NA,NA,NA
Kyi1HvjK,3e6l1vr4yzzg81jodkfak6sl8ztf6z,35gmh2sv3iugednq97m088p4jmroe3,Kyi1HvjK,2020-0188,2021-10-17,18:44:37,20:31:32,NA,incomplete,false,true,NA,4,6,NA,blue,m_s_067.jpg,NA,NA,pleasant,unpleasant,NA,NA,NA,NA,NA,right,1192.09999999404,true,NA,NA,NA,NA,NA
Kyi1HvjK,3e6l1vr4yzzg81jodkfak6sl8ztf6z,35gmh2sv3iugednq97m088p4jmroe3,Kyi1HvjK,2020-0188,2021-10-17,18:44:37,20:31:32,NA,incomplete,false,true,NA,4,7,NA,blue,n_l_083.jpg,NA,NA,unpleasant,pleasant,NA,NA,NA,NA,NA,left,1529.5,true,NA,NA,NA,NA,NA
Kyi1HvjK,3e6l1vr4yzzg81jodkfak6sl8ztf6z,35gmh2sv3iugednq97m088p4jmroe3,Kyi1HvjK,2020-0188,2021-10-17,18:44:37,20:31:32,NA,incomplete,false,true,NA,4,8,NA,blue,n_s_112.jpg,NA,NA,pleasant,unpleasant,NA,NA,NA,NA,NA,left,1304.5,true,NA,NA,NA,NA,NA
Kyi1HvjK,3e6l1vr4yzzg81jodkfak6sl8ztf6z,35gmh2sv3iugednq97m088p4jmroe3,Kyi1HvjK,2020-0188,2021-10-17,18:44:37,20:31:32,NA,incomplete,false,true,NA,4,9,NA,blue,n_l_067.jpg,NA,NA,unpleasant,pleasant,NA,NA,NA,NA,NA,right,1343.90000000596,true,NA,NA,NA,NA,NA
Kyi1HvjK,3e6l1vr4yzzg81jodkfak6sl8ztf6z,35gmh2sv3iugednq97m088p4jmroe3,Kyi1HvjK,2020-0188,2021-10-17,18:44:37,20:31:32,NA,incomplete,false,true,NA,4,10,NA,blue,m_l_054.jpg,NA,NA,unpleasant,pleasant,NA,NA,NA,NA,NA,right,1681.5,true,NA,NA,NA,NA,NA
Kyi1HvjK,3e6l1vr4yzzg81jodkfak6sl8ztf6z,35gmh2sv3iugednq97m088p4jmroe3,Kyi1HvjK,2020-0188,2021-10-17,18:44:37,20:31:32,NA,incomplete,false,true,NA,4,11,NA,blue,m_s_077.jpg,NA,NA,unpleasant,pleasant,NA,NA,NA,NA,NA,right,1200.10000002384,true,NA,NA,NA,NA,NA
Kyi1HvjK,3e6l1vr4yzzg81jodkfak6sl8ztf6z,35gmh2sv3iugednq97m088p4jmroe3,Kyi1HvjK,2020-0188,2021-10-17,18:44:37,20:31:32,NA,incomplete,false,true,NA,4,12,NA,red,n_l_110.jpg,NA,NA,pleasant,unpleasant,NA,NA,NA,NA,NA,left,1024.09999999404,true,NA,NA,NA,NA,NA
Kyi1HvjK,3e6l1vr4yzzg81jodkfak6sl8ztf6z,35gmh2sv3iugednq97m088p4jmroe3,Kyi1HvjK,2020-0188,2021-10-17,18:44:37,20:31:32,NA,incomplete,false,true,NA,4,13,NA,red,m_l_095.jpg,NA,NA,unpleasant,pleasant,NA,NA,NA,NA,NA,right,1034.59999999404,true,NA,NA,NA,NA,NA
Kyi1HvjK,3e6l1vr4yzzg81jodkfak6sl8ztf6z,35gmh2sv3iugednq97m088p4jmroe3,Kyi1HvjK,2020-0188,2021-10-17,18:44:37,20:31:32,NA,incomplete,false,true,NA,4,14,NA,red,n_l_075.jpg,NA,NA,pleasant,unpleasant,NA,NA,NA,NA,NA,right,1224.70000001788,true,NA,NA,NA,NA,NA
Kyi1HvjK,3e6l1vr4yzzg81jodkfak6sl8ztf6z,35gmh2sv3iugednq97m088p4jmroe3,Kyi1HvjK,2020-0188,2021-10-17,18:44:37,20:31:32,NA,incomplete,false,true,NA,4,15,NA,red,n_s_082.jpg,NA,NA,pleasant,unpleasant,NA,NA,NA,NA,NA,left,1728.80000001192,true,NA,NA,NA,NA,NA
Kyi1HvjK,3e6l1vr4yzzg81jodkfak6sl8ztf6z,35gmh2sv3iugednq97m088p4jmroe3,Kyi1HvjK,2020-0188,2021-10-17,18:44:37,20:31:32,NA,incomplete,false,true,NA,4,16,NA,red,n_l_046.jpg,NA,NA,pleasant,unpleasant,NA,NA,NA,NA,NA,left,1003.30000001192,true,NA,NA,NA,NA,NA
Kyi1HvjK,3e6l1vr4yzzg81jodkfak6sl8ztf6z,35gmh2sv3iugednq97m088p4jmroe3,Kyi1HvjK,2020-0188,2021-10-17,18:44:37,20:31:32,NA,incomplete,false,true,NA,4,17,NA,red,n_s_014.jpg,NA,NA,unpleasant,pleasant,NA,NA,NA,NA,NA,left,1569.40000000596,true,NA,NA,NA,NA,NA
Kyi1HvjK,3e6l1vr4yzzg81jodkfak6sl8ztf6z,35gmh2sv3iugednq97m088p4jmroe3,Kyi1HvjK,2020-0188,2021-10-17,18:44:37,20:31:32,NA,incomplete,false,true,NA,4,18,NA,black,m_l_014.jpg,NA,NA,unpleasant,pleasant,NA,NA,NA,NA,NA,right,1177.19999998808,true,NA,NA,NA,NA,NA
Kyi1HvjK,3e6l1vr4yzzg81jodkfak6sl8ztf6z,35gmh2sv3iugednq97m088p4jmroe3,Kyi1HvjK,2020-0188,2021-10-17,18:44:37,20:31:32,NA,incomplete,false,true,NA,4,19,NA,black,n_s_067.jpg,NA,NA,pleasant,unpleasant,NA,NA,NA,NA,NA,left,1482.40000000596,true,NA,NA,NA,NA,NA
Kyi1HvjK,3e6l1vr4yzzg81jodkfak6sl8ztf6z,35gmh2sv3iugednq97m088p4jmroe3,Kyi1HvjK,2020-0188,2021-10-17,18:44:37,20:31:32,NA,incomplete,false,true,NA,4,20,NA,black,m_l_085.jpg,NA,NA,pleasant,unpleasant,NA,NA,NA,NA,NA,left,1257,true,NA,NA,NA,NA,NA
Kyi1HvjK,3e6l1vr4yzzg81jodkfak6sl8ztf6z,35gmh2sv3iugednq97m088p4jmroe3,Kyi1HvjK,2020-0188,2021-10-17,18:44:37,20:31:32,NA,incomplete,false,true,NA,4,21,NA,black,n_s_019.jpg,NA,NA,pleasant,unpleasant,NA,NA,NA,NA,NA,left,945.600000023842,true,NA,NA,NA,NA,NA
Kyi1HvjK,3e6l1vr4yzzg81jodkfak6sl8ztf6z,35gmh2sv3iugednq97m088p4jmroe3,Kyi1HvjK,2020-0188,2021-10-17,18:44:37,20:31:32,NA,incomplete,false,true,NA,4,22,NA,black,m_s_010.jpg,NA,NA,unpleasant,pleasant,NA,NA,NA,NA,NA,right,1003.79999998212,true,NA,NA,NA,NA,NA
Kyi1HvjK,3e6l1vr4yzzg81jodkfak6sl8ztf6z,35gmh2sv3iugednq97m088p4jmroe3,Kyi1HvjK,2020-0188,2021-10-17,18:44:37,20:31:32,NA,incomplete,false,true,NA,4,23,NA,black,n_s_100.jpg,NA,NA,unpleasant,pleasant,NA,NA,NA,NA,NA,right,953,true,NA,NA,NA,NA,NA
Kyi1HvjK,3e6l1vr4yzzg81jodkfak6sl8ztf6z,35gmh2sv3iugednq97m088p4jmroe3,Kyi1HvjK,2020-0188,2021-10-17,18:44:37,20:31:32,NA,incomplete,false,true,NA,4,24,NA,white,n_s_007.jpg,NA,NA,pleasant,unpleasant,NA,NA,NA,NA,NA,right,1048.40000000596,true,NA,NA,NA,NA,NA
Kyi1HvjK,3e6l1vr4yzzg81jodkfak6sl8ztf6z,35gmh2sv3iugednq97m088p4jmroe3,Kyi1HvjK,2020-0188,2021-10-17,18:44:37,20:31:32,NA,incomplete,false,true,NA,4,25,NA,white,n_s_053.jpg,NA,NA,pleasant,unpleasant,NA,NA,NA,NA,NA,right,946.200000017881,true,NA,NA,NA,NA,NA
Kyi1HvjK,3e6l1vr4yzzg81jodkfak6sl8ztf6z,35gmh2sv3iugednq97m088p4jmroe3,Kyi1HvjK,2020-0188,2021-10-17,18:44:37,20:31:32,NA,incomplete,false,true,NA,4,26,NA,white,m_s_063.jpg,NA,NA,pleasant,unpleasant,NA,NA,NA,NA,NA,left,1569.5,true,NA,NA,NA,NA,NA
Kyi1HvjK,3e6l1vr4yzzg81jodkfak6sl8ztf6z,35gmh2sv3iugednq97m088p4jmroe3,Kyi1HvjK,2020-0188,2021-10-17,18:44:37,20:31:32,NA,incomplete,false,true,NA,4,27,NA,white,n_l_032.jpg,NA,NA,pleasant,unpleasant,NA,NA,NA,NA,NA,left,1224.90000000596,true,NA,NA,NA,NA,NA
Kyi1HvjK,3e6l1vr4yzzg81jodkfak6sl8ztf6z,35gmh2sv3iugednq97m088p4jmroe3,Kyi1HvjK,2020-0188,2021-10-17,18:44:37,20:31:32,NA,incomplete,false,true,NA,4,28,NA,white,m_s_065.jpg,NA,NA,unpleasant,pleasant,NA,NA,NA,NA,NA,right,1059.09999999404,true,NA,NA,NA,NA,NA
Kyi1HvjK,3e6l1vr4yzzg81jodkfak6sl8ztf6z,35gmh2sv3iugednq97m088p4jmroe3,Kyi1HvjK,2020-0188,2021-10-17,18:44:37,20:31:32,NA,incomplete,false,true,NA,4,29,NA,white,m_s_050.jpg,NA,NA,pleasant,unpleasant,NA,NA,NA,NA,NA,left,1497.20000001788,true,NA,NA,NA,NA,NA
Kyi1HvjK,3e6l1vr4yzzg81jodkfak6sl8ztf6z,35gmh2sv3iugednq97m088p4jmroe3,Kyi1HvjK,2020-0188,2021-10-17,18:44:37,20:31:32,NA,incomplete,false,true,NA,4,30,NA,yellow,m_s_054.jpg,NA,NA,unpleasant,pleasant,NA,NA,NA,NA,NA,left,1337.5,true,NA,NA,NA,NA,NA
Kyi1HvjK,3e6l1vr4yzzg81jodkfak6sl8ztf6z,35gmh2sv3iugednq97m088p4jmroe3,Kyi1HvjK,2020-0188,2021-10-17,18:44:37,20:31:32,NA,incomplete,false,true,NA,4,31,NA,yellow,n_l_014.jpg,NA,NA,pleasant,unpleasant,NA,NA,NA,NA,NA,right,1426.69999998808,true,NA,NA,NA,NA,NA
Kyi1HvjK,3e6l1vr4yzzg81jodkfak6sl8ztf6z,35gmh2sv3iugednq97m088p4jmroe3,Kyi1HvjK,2020-0188,2021-10-17,18:44:37,20:31:32,NA,incomplete,false,true,NA,4,32,NA,yellow,m_l_068.jpg,NA,NA,unpleasant,pleasant,NA,NA,NA,NA,NA,right,1089.09999999404,true,NA,NA,NA,NA,NA
Kyi1HvjK,3e6l1vr4yzzg81jodkfak6sl8ztf6z,35gmh2sv3iugednq97m088p4jmroe3,Kyi1HvjK,2020-0188,2021-10-17,18:44:37,20:31:32,NA,incomplete,false,true,NA,4,33,NA,yellow,n_l_097.jpg,NA,NA,pleasant,unpleasant,NA,NA,NA,NA,NA,left,1319.70000001788,true,NA,NA,NA,NA,NA
Kyi1HvjK,3e6l1vr4yzzg81jodkfak6sl8ztf6z,35gmh2sv3iugednq97m088p4jmroe3,Kyi1HvjK,2020-0188,2021-10-17,18:44:37,20:31:32,NA,incomplete,false,true,NA,4,34,NA,yellow,n_l_016.jpg,NA,NA,pleasant,unpleasant,NA,NA,NA,NA,NA,left,1186.40000000596,true,NA,NA,NA,NA,NA
Kyi1HvjK,3e6l1vr4yzzg81jodkfak6sl8ztf6z,35gmh2sv3iugednq97m088p4jmroe3,Kyi1HvjK,2020-0188,2021-10-17,18:44:37,20:31:32,NA,incomplete,false,true,NA,4,35,NA,yellow,m_s_055.jpg,NA,NA,pleasant,unpleasant,NA,NA,NA,NA,NA,left,1504,true,NA,NA,NA,NA,NA
Kyi1HvjK,3e6l1vr4yzzg81jodkfak6sl8ztf6z,35gmh2sv3iugednq97m088p4jmroe3,Kyi1HvjK,2020-0188,2021-10-17,18:44:37,20:31:32,NA,incomplete,false,NA,true,4,0,NA,NA,NA,left,present,NA,NA,m_l_057.jpg,orange,n_s_112.jpg,blue,between,NA,NaN,NA,right,2655.0999999940395,0,2,2493.4000000059605
Kyi1HvjK,3e6l1vr4yzzg81jodkfak6sl8ztf6z,35gmh2sv3iugednq97m088p4jmroe3,Kyi1HvjK,2020-0188,2021-10-17,18:44:37,20:31:32,NA,incomplete,false,NA,true,4,1,NA,NA,NA,left,present,NA,NA,n_l_046.jpg,red,m_l_085.jpg,black,between,NA,NaN,NA,right,1447,0,3,1078.4000000059605
Kyi1HvjK,3e6l1vr4yzzg81jodkfak6sl8ztf6z,35gmh2sv3iugednq97m088p4jmroe3,Kyi1HvjK,2020-0188,2021-10-17,18:44:37,20:31:32,NA,incomplete,false,NA,true,4,2,NA,NA,NA,right,present,NA,NA,m_s_077.jpg,blue,n_l_083.jpg,blue,within,NA,NaN,NA,right,2478.4000000059605,1,0,1838.4000000059605
Kyi1HvjK,3e6l1vr4yzzg81jodkfak6sl8ztf6z,35gmh2sv3iugednq97m088p4jmroe3,Kyi1HvjK,2020-0188,2021-10-17,18:44:37,20:31:32,NA,incomplete,false,NA,true,4,3,NA,NA,NA,right,present,NA,NA,m_s_050.jpg,white,n_s_053.jpg,white,within,NA,NaN,NA,left,1510.300000011921,0,0,1574.9000000059605
Kyi1HvjK,3e6l1vr4yzzg81jodkfak6sl8ztf6z,35gmh2sv3iugednq97m088p4jmroe3,Kyi1HvjK,2020-0188,2021-10-17,18:44:37,20:31:32,NA,incomplete,false,NA,true,4,4,NA,NA,NA,left,present,NA,NA,n_l_014.jpg,yellow,m_s_055.jpg,yellow,within,NA,NaN,NA,right,4254.5,0,0,1325.699999988079
Kyi1HvjK,3e6l1vr4yzzg81jodkfak6sl8ztf6z,35gmh2sv3iugednq97m088p4jmroe3,Kyi1HvjK,2020-0188,2021-10-17,18:44:37,20:31:32,NA,incomplete,false,NA,true,4,5,NA,NA,NA,right,present,NA,NA,m_s_085.jpg,orange,n_l_074.jpg,orange,within,NA,NaN,NA,right,1398.800000011921,1,0,1535
Kyi1HvjK,3e6l1vr4yzzg81jodkfak6sl8ztf6z,35gmh2sv3iugednq97m088p4jmroe3,Kyi1HvjK,2020-0188,2021-10-17,18:44:37,20:31:32,NA,incomplete,false,NA,true,4,6,NA,NA,NA,right,present,NA,NA,n_s_014.jpg,red,m_l_095.jpg,red,within,NA,NaN,NA,right,1223.300000011921,1,0,1454.300000011921
Kyi1HvjK,3e6l1vr4yzzg81jodkfak6sl8ztf6z,35gmh2sv3iugednq97m088p4jmroe3,Kyi1HvjK,2020-0188,2021-10-17,18:44:37,20:31:32,NA,incomplete,false,NA,true,4,7,NA,NA,NA,left,present,NA,NA,m_s_065.jpg,white,m_l_068.jpg,yellow,between,NA,NaN,NA,left,1494.5999999940395,1,3,2013.9000000059605
Kyi1HvjK,3e6l1vr4yzzg81jodkfak6sl8ztf6z,35gmh2sv3iugednq97m088p4jmroe3,Kyi1HvjK,2020-0188,2021-10-17,18:44:37,20:31:32,NA,incomplete,false,NA,true,4,8,NA,NA,NA,right,present,NA,NA,n_l_075.jpg,red,m_l_054.jpg,blue,between,NA,NaN,NA,left,1583.4000000059605,0,3,1998.4000000059605
Kyi1HvjK,3e6l1vr4yzzg81jodkfak6sl8ztf6z,35gmh2sv3iugednq97m088p4jmroe3,Kyi1HvjK,2020-0188,2021-10-17,18:44:37,20:31:32,NA,incomplete,false,NA,true,4,9,NA,NA,NA,right,present,NA,NA,m_s_063.jpg,white,m_s_010.jpg,black,between,NA,NaN,NA,left,1766.7000000178814,0,3,2094.600000023842
Kyi1HvjK,3e6l1vr4yzzg81jodkfak6sl8ztf6z,35gmh2sv3iugednq97m088p4jmroe3,Kyi1HvjK,2020-0188,2021-10-17,18:44:37,20:31:32,NA,incomplete,false,NA,true,4,10,NA,NA,NA,right,present,NA,NA,n_s_100.jpg,black,n_s_067.jpg,black,within,NA,NaN,NA,right,1279,1,0,919.1999999880791
Kyi1HvjK,3e6l1vr4yzzg81jodkfak6sl8ztf6z,35gmh2sv3iugednq97m088p4jmroe3,Kyi1HvjK,2020-0188,2021-10-17,18:44:37,20:31:32,NA,incomplete,false,true,NA,5,0,NA,blue,n_l_025.jpg,NA,NA,pleasant,unpleasant,NA,NA,NA,NA,NA,left,1787.5,true,NA,NA,NA,NA,NA
Kyi1HvjK,3e6l1vr4yzzg81jodkfak6sl8ztf6z,35gmh2sv3iugednq97m088p4jmroe3,Kyi1HvjK,2020-0188,2021-10-17,18:44:37,20:31:32,NA,incomplete,false,true,NA,5,1,NA,blue,m_l_020.jpg,NA,NA,unpleasant,pleasant,NA,NA,NA,NA,NA,left,748,true,NA,NA,NA,NA,NA
Kyi1HvjK,3e6l1vr4yzzg81jodkfak6sl8ztf6z,35gmh2sv3iugednq97m088p4jmroe3,Kyi1HvjK,2020-0188,2021-10-17,18:44:37,20:31:32,NA,incomplete,false,true,NA,5,2,NA,blue,m_l_058.jpg,NA,NA,pleasant,unpleasant,NA,NA,NA,NA,NA,right,3372.5,true,NA,NA,NA,NA,NA
Kyi1HvjK,3e6l1vr4yzzg81jodkfak6sl8ztf6z,35gmh2sv3iugednq97m088p4jmroe3,Kyi1HvjK,2020-0188,2021-10-17,18:44:37,20:31:32,NA,incomplete,false,true,NA,5,3,NA,blue,n_l_006.jpg,NA,NA,pleasant,unpleasant,NA,NA,NA,NA,NA,right,484.09999999404,true,NA,NA,NA,NA,NA
Kyi1HvjK,3e6l1vr4yzzg81jodkfak6sl8ztf6z,35gmh2sv3iugednq97m088p4jmroe3,Kyi1HvjK,2020-0188,2021-10-17,18:44:37,20:31:32,NA,incomplete,false,true,NA,5,4,NA,blue,n_l_034.jpg,NA,NA,pleasant,unpleasant,NA,NA,NA,NA,NA,right,748.5,true,NA,NA,NA,NA,NA
Kyi1HvjK,3e6l1vr4yzzg81jodkfak6sl8ztf6z,35gmh2sv3iugednq97m088p4jmroe3,Kyi1HvjK,2020-0188,2021-10-17,18:44:37,20:31:32,NA,incomplete,false,true,NA,5,5,NA,blue,m_l_091.jpg,NA,NA,unpleasant,pleasant,NA,NA,NA,NA,NA,right,1173.09999999404,true,NA,NA,NA,NA,NA
Kyi1HvjK,3e6l1vr4yzzg81jodkfak6sl8ztf6z,35gmh2sv3iugednq97m088p4jmroe3,Kyi1HvjK,2020-0188,2021-10-17,18:44:37,20:31:32,NA,incomplete,false,true,NA,5,6,NA,green,m_s_104.jpg,NA,NA,pleasant,unpleasant,NA,NA,NA,NA,NA,left,2356.40000000596,true,NA,NA,NA,NA,NA
Kyi1HvjK,3e6l1vr4yzzg81jodkfak6sl8ztf6z,35gmh2sv3iugednq97m088p4jmroe3,Kyi1HvjK,2020-0188,2021-10-17,18:44:37,20:31:32,NA,incomplete,false,true,NA,5,7,NA,green,m_s_066.jpg,NA,NA,unpleasant,pleasant,NA,NA,NA,NA,NA,right,899.90000000596,true,NA,NA,NA,NA,NA
Kyi1HvjK,3e6l1vr4yzzg81jodkfak6sl8ztf6z,35gmh2sv3iugednq97m088p4jmroe3,Kyi1HvjK,2020-0188,2021-10-17,18:44:37,20:31:32,NA,incomplete,false,true,NA,5,8,NA,green,m_s_116.jpg,NA,NA,unpleasant,pleasant,NA,NA,NA,NA,NA,right,1333.5,true,NA,NA,NA,NA,NA
Kyi1HvjK,3e6l1vr4yzzg81jodkfak6sl8ztf6z,35gmh2sv3iugednq97m088p4jmroe3,Kyi1HvjK,2020-0188,2021-10-17,18:44:37,20:31:32,NA,incomplete,false,true,NA,5,9,NA,green,m_l_028.jpg,NA,NA,pleasant,unpleasant,NA,NA,NA,NA,NA,left,764.600000023842,true,NA,NA,NA,NA,NA
Kyi1HvjK,3e6l1vr4yzzg81jodkfak6sl8ztf6z,35gmh2sv3iugednq97m088p4jmroe3,Kyi1HvjK,2020-0188,2021-10-17,18:44:37,20:31:32,NA,incomplete,false,true,NA,5,10,NA,green,n_l_113.jpg,NA,NA,pleasant,unpleasant,NA,NA,NA,NA,NA,left,1300.70000001788,true,NA,NA,NA,NA,NA
Kyi1HvjK,3e6l1vr4yzzg81jodkfak6sl8ztf6z,35gmh2sv3iugednq97m088p4jmroe3,Kyi1HvjK,2020-0188,2021-10-17,18:44:37,20:31:32,NA,incomplete,false,true,NA,5,11,NA,green,n_s_071.jpg,NA,NA,pleasant,unpleasant,NA,NA,NA,NA,NA,left,1044.5,true,NA,NA,NA,NA,NA
Kyi1HvjK,3e6l1vr4yzzg81jodkfak6sl8ztf6z,35gmh2sv3iugednq97m088p4jmroe3,Kyi1HvjK,2020-0188,2021-10-17,18:44:37,20:31:32,NA,incomplete,false,true,NA,5,12,NA,brown,m_l_093.jpg,NA,NA,pleasant,unpleasant,NA,NA,NA,NA,NA,right,1132.90000000596,true,NA,NA,NA,NA,NA
Kyi1HvjK,3e6l1vr4yzzg81jodkfak6sl8ztf6z,35gmh2sv3iugednq97m088p4jmroe3,Kyi1HvjK,2020-0188,2021-10-17,18:44:37,20:31:32,NA,incomplete,false,true,NA,5,13,NA,brown,m_s_014.jpg,NA,NA,pleasant,unpleasant,NA,NA,NA,NA,NA,right,2726.79999998212,true,NA,NA,NA,NA,NA
Kyi1HvjK,3e6l1vr4yzzg81jodkfak6sl8ztf6z,35gmh2sv3iugednq97m088p4jmroe3,Kyi1HvjK,2020-0188,2021-10-17,18:44:37,20:31:32,NA,incomplete,false,true,NA,5,14,NA,brown,m_l_109.jpg,NA,NA,unpleasant,pleasant,NA,NA,NA,NA,NA,left,1493.10000002384,true,NA,NA,NA,NA,NA
Kyi1HvjK,3e6l1vr4yzzg81jodkfak6sl8ztf6z,35gmh2sv3iugednq97m088p4jmroe3,Kyi1HvjK,2020-0188,2021-10-17,18:44:37,20:31:32,NA,incomplete,false,true,NA,5,15,NA,brown,n_s_033.jpg,NA,NA,unpleasant,pleasant,NA,NA,NA,NA,NA,right,1677.19999998808,true,NA,NA,NA,NA,NA
Kyi1HvjK,3e6l1vr4yzzg81jodkfak6sl8ztf6z,35gmh2sv3iugednq97m088p4jmroe3,Kyi1HvjK,2020-0188,2021-10-17,18:44:37,20:31:32,NA,incomplete,false,true,NA,5,16,NA,brown,m_s_090.jpg,NA,NA,pleasant,unpleasant,NA,NA,NA,NA,NA,left,975.09999999404,true,NA,NA,NA,NA,NA
Kyi1HvjK,3e6l1vr4yzzg81jodkfak6sl8ztf6z,35gmh2sv3iugednq97m088p4jmroe3,Kyi1HvjK,2020-0188,2021-10-17,18:44:37,20:31:32,NA,incomplete,false,true,NA,5,17,NA,brown,n_s_058.jpg,NA,NA,pleasant,unpleasant,NA,NA,NA,NA,NA,left,1133.60000002384,true,NA,NA,NA,NA,NA
Kyi1HvjK,3e6l1vr4yzzg81jodkfak6sl8ztf6z,35gmh2sv3iugednq97m088p4jmroe3,Kyi1HvjK,2020-0188,2021-10-17,18:44:37,20:31:32,NA,incomplete,false,true,NA,5,18,NA,red,n_s_056.jpg,NA,NA,unpleasant,pleasant,NA,NA,NA,NA,NA,right,1317,true,NA,NA,NA,NA,NA
Kyi1HvjK,3e6l1vr4yzzg81jodkfak6sl8ztf6z,35gmh2sv3iugednq97m088p4jmroe3,Kyi1HvjK,2020-0188,2021-10-17,18:44:37,20:31:32,NA,incomplete,false,true,NA,5,19,NA,red,n_l_084.jpg,NA,NA,pleasant,unpleasant,NA,NA,NA,NA,NA,left,927.90000000596,true,NA,NA,NA,NA,NA
Kyi1HvjK,3e6l1vr4yzzg81jodkfak6sl8ztf6z,35gmh2sv3iugednq97m088p4jmroe3,Kyi1HvjK,2020-0188,2021-10-17,18:44:37,20:31:32,NA,incomplete,false,true,NA,5,20,NA,red,m_l_001.jpg,NA,NA,unpleasant,pleasant,NA,NA,NA,NA,NA,right,1366.40000000596,true,NA,NA,NA,NA,NA
Kyi1HvjK,3e6l1vr4yzzg81jodkfak6sl8ztf6z,35gmh2sv3iugednq97m088p4jmroe3,Kyi1HvjK,2020-0188,2021-10-17,18:44:37,20:31:32,NA,incomplete,false,true,NA,5,21,NA,red,m_l_112.jpg,NA,NA,pleasant,unpleasant,NA,NA,NA,NA,NA,left,862.09999999404,true,NA,NA,NA,NA,NA
Kyi1HvjK,3e6l1vr4yzzg81jodkfak6sl8ztf6z,35gmh2sv3iugednq97m088p4jmroe3,Kyi1HvjK,2020-0188,2021-10-17,18:44:37,20:31:32,NA,incomplete,false,true,NA,5,22,NA,red,m_l_011.jpg,NA,NA,unpleasant,pleasant,NA,NA,NA,NA,NA,right,918.800000011921,true,NA,NA,NA,NA,NA
Kyi1HvjK,3e6l1vr4yzzg81jodkfak6sl8ztf6z,35gmh2sv3iugednq97m088p4jmroe3,Kyi1HvjK,2020-0188,2021-10-17,18:44:37,20:31:32,NA,incomplete,false,true,NA,5,23,NA,red,n_l_085.jpg,NA,NA,pleasant,unpleasant,NA,NA,NA,NA,NA,left,886.300000011921,true,NA,NA,NA,NA,NA
Kyi1HvjK,3e6l1vr4yzzg81jodkfak6sl8ztf6z,35gmh2sv3iugednq97m088p4jmroe3,Kyi1HvjK,2020-0188,2021-10-17,18:44:37,20:31:32,NA,incomplete,false,true,NA,5,24,NA,black,n_s_050.jpg,NA,NA,pleasant,unpleasant,NA,NA,NA,NA,NA,right,2527.30000001192,true,NA,NA,NA,NA,NA
Kyi1HvjK,3e6l1vr4yzzg81jodkfak6sl8ztf6z,35gmh2sv3iugednq97m088p4jmroe3,Kyi1HvjK,2020-0188,2021-10-17,18:44:37,20:31:32,NA,incomplete,false,true,NA,5,25,NA,black,n_l_114.jpg,NA,NA,pleasant,unpleasant,NA,NA,NA,NA,NA,left,2117.80000001192,true,NA,NA,NA,NA,NA
Kyi1HvjK,3e6l1vr4yzzg81jodkfak6sl8ztf6z,35gmh2sv3iugednq97m088p4jmroe3,Kyi1HvjK,2020-0188,2021-10-17,18:44:37,20:31:32,NA,incomplete,false,true,NA,5,26,NA,black,n_l_038.jpg,NA,NA,unpleasant,pleasant,NA,NA,NA,NA,NA,right,1790.29999998212,true,NA,NA,NA,NA,NA
Kyi1HvjK,3e6l1vr4yzzg81jodkfak6sl8ztf6z,35gmh2sv3iugednq97m088p4jmroe3,Kyi1HvjK,2020-0188,2021-10-17,18:44:37,20:31:32,NA,incomplete,false,true,NA,5,27,NA,black,m_l_009.jpg,NA,NA,unpleasant,pleasant,NA,NA,NA,NA,NA,right,2176,true,NA,NA,NA,NA,NA
Kyi1HvjK,3e6l1vr4yzzg81jodkfak6sl8ztf6z,35gmh2sv3iugednq97m088p4jmroe3,Kyi1HvjK,2020-0188,2021-10-17,18:44:37,20:31:32,NA,incomplete,false,true,NA,5,28,NA,black,n_s_046.jpg,NA,NA,pleasant,unpleasant,NA,NA,NA,NA,NA,right,1278.5,true,NA,NA,NA,NA,NA
Kyi1HvjK,3e6l1vr4yzzg81jodkfak6sl8ztf6z,35gmh2sv3iugednq97m088p4jmroe3,Kyi1HvjK,2020-0188,2021-10-17,18:44:37,20:31:32,NA,incomplete,false,true,NA,5,29,NA,black,n_s_079.jpg,NA,NA,unpleasant,pleasant,NA,NA,NA,NA,NA,right,1526.69999998808,true,NA,NA,NA,NA,NA
Kyi1HvjK,3e6l1vr4yzzg81jodkfak6sl8ztf6z,35gmh2sv3iugednq97m088p4jmroe3,Kyi1HvjK,2020-0188,2021-10-17,18:44:37,20:31:32,NA,incomplete,false,true,NA,5,30,NA,white,m_l_092.jpg,NA,NA,unpleasant,pleasant,NA,NA,NA,NA,NA,right,1168.90000000596,true,NA,NA,NA,NA,NA
Kyi1HvjK,3e6l1vr4yzzg81jodkfak6sl8ztf6z,35gmh2sv3iugednq97m088p4jmroe3,Kyi1HvjK,2020-0188,2021-10-17,18:44:37,20:31:32,NA,incomplete,false,true,NA,5,31,NA,white,n_s_110.jpg,NA,NA,pleasant,unpleasant,NA,NA,NA,NA,NA,left,1342.90000000596,true,NA,NA,NA,NA,NA
Kyi1HvjK,3e6l1vr4yzzg81jodkfak6sl8ztf6z,35gmh2sv3iugednq97m088p4jmroe3,Kyi1HvjK,2020-0188,2021-10-17,18:44:37,20:31:32,NA,incomplete,false,true,NA,5,32,NA,white,n_l_003.jpg,NA,NA,pleasant,unpleasant,NA,NA,NA,NA,NA,left,2015.20000001788,true,NA,NA,NA,NA,NA
Kyi1HvjK,3e6l1vr4yzzg81jodkfak6sl8ztf6z,35gmh2sv3iugednq97m088p4jmroe3,Kyi1HvjK,2020-0188,2021-10-17,18:44:37,20:31:32,NA,incomplete,false,true,NA,5,33,NA,white,m_s_061.jpg,NA,NA,unpleasant,pleasant,NA,NA,NA,NA,NA,right,1321.30000001192,true,NA,NA,NA,NA,NA
Kyi1HvjK,3e6l1vr4yzzg81jodkfak6sl8ztf6z,35gmh2sv3iugednq97m088p4jmroe3,Kyi1HvjK,2020-0188,2021-10-17,18:44:37,20:31:32,NA,incomplete,false,true,NA,5,34,NA,white,n_s_021.jpg,NA,NA,pleasant,unpleasant,NA,NA,NA,NA,NA,left,1374.90000000596,true,NA,NA,NA,NA,NA
Kyi1HvjK,3e6l1vr4yzzg81jodkfak6sl8ztf6z,35gmh2sv3iugednq97m088p4jmroe3,Kyi1HvjK,2020-0188,2021-10-17,18:44:37,20:31:32,NA,incomplete,false,true,NA,5,35,NA,white,n_s_117.jpg,NA,NA,pleasant,unpleasant,NA,NA,NA,NA,NA,left,1335.69999998808,true,NA,NA,NA,NA,NA
Kyi1HvjK,3e6l1vr4yzzg81jodkfak6sl8ztf6z,35gmh2sv3iugednq97m088p4jmroe3,Kyi1HvjK,2020-0188,2021-10-17,18:44:37,20:31:32,NA,incomplete,false,NA,true,5,0,NA,NA,NA,right,absent,NA,NA,m_l_001.jpg,red,m_s_090.jpg,brown,between,NA,NaN,NA,right,3332.199999988079,1,1,3125.5
Kyi1HvjK,3e6l1vr4yzzg81jodkfak6sl8ztf6z,35gmh2sv3iugednq97m088p4jmroe3,Kyi1HvjK,2020-0188,2021-10-17,18:44:37,20:31:32,NA,incomplete,false,NA,true,5,1,NA,NA,NA,left,absent,NA,NA,n_l_034.jpg,blue,m_s_116.jpg,green,between,NA,NaN,NA,right,1973.5,0,0,1316.5
Kyi1HvjK,3e6l1vr4yzzg81jodkfak6sl8ztf6z,35gmh2sv3iugednq97m088p4jmroe3,Kyi1HvjK,2020-0188,2021-10-17,18:44:37,20:31:32,NA,incomplete,false,NA,true,5,2,NA,NA,NA,right,absent,NA,NA,n_s_058.jpg,brown,m_s_014.jpg,brown,within,NA,NaN,NA,left,5999.300000011921,0,2,1894.7999999821186
Kyi1HvjK,3e6l1vr4yzzg81jodkfak6sl8ztf6z,35gmh2sv3iugednq97m088p4jmroe3,Kyi1HvjK,2020-0188,2021-10-17,18:44:37,20:31:32,NA,incomplete,false,NA,true,5,3,NA,NA,NA,left,absent,NA,NA,n_l_084.jpg,red,n_l_085.jpg,red,within,NA,NaN,NA,left,1943.300000011921,1,3,2735
Kyi1HvjK,3e6l1vr4yzzg81jodkfak6sl8ztf6z,35gmh2sv3iugednq97m088p4jmroe3,Kyi1HvjK,2020-0188,2021-10-17,18:44:37,20:31:32,NA,incomplete,false,NA,true,5,4,NA,NA,NA,left,absent,NA,NA,m_l_020.jpg,blue,m_l_091.jpg,blue,within,NA,NaN,NA,right,1383.0999999940395,0,1,1295
Kyi1HvjK,3e6l1vr4yzzg81jodkfak6sl8ztf6z,35gmh2sv3iugednq97m088p4jmroe3,Kyi1HvjK,2020-0188,2021-10-17,18:44:37,20:31:32,NA,incomplete,false,NA,true,5,5,NA,NA,NA,left,absent,NA,NA,n_s_110.jpg,white,n_s_117.jpg,white,within,NA,NaN,NA,left,1383.800000011921,1,3,1406.800000011921
Kyi1HvjK,3e6l1vr4yzzg81jodkfak6sl8ztf6z,35gmh2sv3iugednq97m088p4jmroe3,Kyi1HvjK,2020-0188,2021-10-17,18:44:37,20:31:32,NA,incomplete,false,NA,true,5,6,NA,NA,NA,left,absent,NA,NA,n_l_113.jpg,green,m_l_109.jpg,brown,between,NA,NaN,NA,right,1079.5,0,0,1054.5999999940395
Kyi1HvjK,3e6l1vr4yzzg81jodkfak6sl8ztf6z,35gmh2sv3iugednq97m088p4jmroe3,Kyi1HvjK,2020-0188,2021-10-17,18:44:37,20:31:32,NA,incomplete,false,NA,true,5,7,NA,NA,NA,right,absent,NA,NA,n_s_071.jpg,green,m_s_066.jpg,green,within,NA,NaN,NA,right,1606.699999988079,1,2,1622.800000011921
Kyi1HvjK,3e6l1vr4yzzg81jodkfak6sl8ztf6z,35gmh2sv3iugednq97m088p4jmroe3,Kyi1HvjK,2020-0188,2021-10-17,18:44:37,20:31:32,NA,incomplete,false,NA,true,5,8,NA,NA,NA,right,absent,NA,NA,n_l_038.jpg,black,m_l_011.jpg,red,between,NA,NaN,NA,left,1631.0999999940395,0,1,1326.699999988079
Kyi1HvjK,3e6l1vr4yzzg81jodkfak6sl8ztf6z,35gmh2sv3iugednq97m088p4jmroe3,Kyi1HvjK,2020-0188,2021-10-17,18:44:37,20:31:32,NA,incomplete,false,NA,true,5,9,NA,NA,NA,left,absent,NA,NA,n_l_114.jpg,black,n_s_079.jpg,black,within,NA,NaN,NA,left,1647.0999999940395,1,1,1822.7000000178814
Kyi1HvjK,3e6l1vr4yzzg81jodkfak6sl8ztf6z,35gmh2sv3iugednq97m088p4jmroe3,Kyi1HvjK,2020-0188,2021-10-17,18:44:37,20:31:32,NA,incomplete,false,NA,true,5,10,NA,NA,NA,right,absent,NA,NA,n_l_003.jpg,white,n_s_046.jpg,black,between,NA,NaN,NA,left,1839.2000000178814,0,2,2622.5
Kyi1HvjK,3e6l1vr4yzzg81jodkfak6sl8ztf6z,35gmh2sv3iugednq97m088p4jmroe3,Kyi1HvjK,2020-0188,2021-10-17,18:44:37,20:31:32,NA,incomplete,false,true,NA,6,0,NA,brown,m_s_075.jpg,NA,NA,pleasant,unpleasant,NA,NA,NA,NA,NA,none,0,false,NA,NA,NA,NA,NA
Kyi1HvjK,3e6l1vr4yzzg81jodkfak6sl8ztf6z,35gmh2sv3iugednq97m088p4jmroe3,Kyi1HvjK,2020-0188,2021-10-17,18:44:37,20:31:32,NA,incomplete,false,true,NA,6,1,NA,brown,n_s_099.jpg,NA,NA,pleasant,unpleasant,NA,NA,NA,NA,NA,left,1822.09999999404,true,NA,NA,NA,NA,NA
Kyi1HvjK,3e6l1vr4yzzg81jodkfak6sl8ztf6z,35gmh2sv3iugednq97m088p4jmroe3,Kyi1HvjK,2020-0188,2021-10-17,18:44:37,20:31:32,NA,incomplete,false,true,NA,6,2,NA,brown,n_s_114.jpg,NA,NA,unpleasant,pleasant,NA,NA,NA,NA,NA,right,2367.40000000596,true,NA,NA,NA,NA,NA
Kyi1HvjK,3e6l1vr4yzzg81jodkfak6sl8ztf6z,35gmh2sv3iugednq97m088p4jmroe3,Kyi1HvjK,2020-0188,2021-10-17,18:44:37,20:31:32,NA,incomplete,false,true,NA,6,3,NA,brown,n_s_095.jpg,NA,NA,unpleasant,pleasant,NA,NA,NA,NA,NA,right,2509.90000000596,true,NA,NA,NA,NA,NA
Kyi1HvjK,3e6l1vr4yzzg81jodkfak6sl8ztf6z,35gmh2sv3iugednq97m088p4jmroe3,Kyi1HvjK,2020-0188,2021-10-17,18:44:37,20:31:32,NA,incomplete,false,true,NA,6,4,NA,brown,m_l_090.jpg,NA,NA,unpleasant,pleasant,NA,NA,NA,NA,NA,right,1934.30000001192,true,NA,NA,NA,NA,NA
Kyi1HvjK,3e6l1vr4yzzg81jodkfak6sl8ztf6z,35gmh2sv3iugednq97m088p4jmroe3,Kyi1HvjK,2020-0188,2021-10-17,18:44:37,20:31:32,NA,incomplete,false,true,NA,6,5,NA,brown,m_l_072.jpg,NA,NA,pleasant,unpleasant,NA,NA,NA,NA,NA,left,1879.90000000596,true,NA,NA,NA,NA,NA
Kyi1HvjK,3e6l1vr4yzzg81jodkfak6sl8ztf6z,35gmh2sv3iugednq97m088p4jmroe3,Kyi1HvjK,2020-0188,2021-10-17,18:44:37,20:31:32,NA,incomplete,false,true,NA,6,6,NA,black,m_l_026.jpg,NA,NA,pleasant,unpleasant,NA,NA,NA,NA,NA,left,1686.5,true,NA,NA,NA,NA,NA
Kyi1HvjK,3e6l1vr4yzzg81jodkfak6sl8ztf6z,35gmh2sv3iugednq97m088p4jmroe3,Kyi1HvjK,2020-0188,2021-10-17,18:44:37,20:31:32,NA,incomplete,false,true,NA,6,7,NA,black,n_l_013.jpg,NA,NA,pleasant,unpleasant,NA,NA,NA,NA,NA,left,2734,true,NA,NA,NA,NA,NA
Kyi1HvjK,3e6l1vr4yzzg81jodkfak6sl8ztf6z,35gmh2sv3iugednq97m088p4jmroe3,Kyi1HvjK,2020-0188,2021-10-17,18:44:37,20:31:32,NA,incomplete,false,true,NA,6,8,NA,black,m_s_003.jpg,NA,NA,unpleasant,pleasant,NA,NA,NA,NA,NA,right,3072.5,true,NA,NA,NA,NA,NA
Kyi1HvjK,3e6l1vr4yzzg81jodkfak6sl8ztf6z,35gmh2sv3iugednq97m088p4jmroe3,Kyi1HvjK,2020-0188,2021-10-17,18:44:37,20:31:32,NA,incomplete,false,true,NA,6,9,NA,black,n_s_002.jpg,NA,NA,unpleasant,pleasant,NA,NA,NA,NA,NA,right,1861.70000001788,true,NA,NA,NA,NA,NA
Kyi1HvjK,3e6l1vr4yzzg81jodkfak6sl8ztf6z,35gmh2sv3iugednq97m088p4jmroe3,Kyi1HvjK,2020-0188,2021-10-17,18:44:37,20:31:32,NA,incomplete,false,true,NA,6,10,NA,black,n_l_064.jpg,NA,NA,unpleasant,pleasant,NA,NA,NA,NA,NA,right,1142.20000001788,true,NA,NA,NA,NA,NA
Kyi1HvjK,3e6l1vr4yzzg81jodkfak6sl8ztf6z,35gmh2sv3iugednq97m088p4jmroe3,Kyi1HvjK,2020-0188,2021-10-17,18:44:37,20:31:32,NA,incomplete,false,true,NA,6,11,NA,black,n_s_094.jpg,NA,NA,unpleasant,pleasant,NA,NA,NA,NA,NA,right,2423.79999998212,true,NA,NA,NA,NA,NA
Kyi1HvjK,3e6l1vr4yzzg81jodkfak6sl8ztf6z,35gmh2sv3iugednq97m088p4jmroe3,Kyi1HvjK,2020-0188,2021-10-17,18:44:37,20:31:32,NA,incomplete,false,true,NA,6,12,NA,orange,n_s_083.jpg,NA,NA,unpleasant,pleasant,NA,NA,NA,NA,NA,right,2437.70000001788,true,NA,NA,NA,NA,NA
Kyi1HvjK,3e6l1vr4yzzg81jodkfak6sl8ztf6z,35gmh2sv3iugednq97m088p4jmroe3,Kyi1HvjK,2020-0188,2021-10-17,18:44:37,20:31:32,NA,incomplete,false,true,NA,6,13,NA,orange,n_l_011.jpg,NA,NA,unpleasant,pleasant,NA,NA,NA,NA,NA,right,2621.09999999404,true,NA,NA,NA,NA,NA
Kyi1HvjK,3e6l1vr4yzzg81jodkfak6sl8ztf6z,35gmh2sv3iugednq97m088p4jmroe3,Kyi1HvjK,2020-0188,2021-10-17,18:44:37,20:31:32,NA,incomplete,false,true,NA,6,14,NA,orange,n_l_073.jpg,NA,NA,pleasant,unpleasant,NA,NA,NA,NA,NA,left,2366.09999999404,true,NA,NA,NA,NA,NA
Kyi1HvjK,3e6l1vr4yzzg81jodkfak6sl8ztf6z,35gmh2sv3iugednq97m088p4jmroe3,Kyi1HvjK,2020-0188,2021-10-17,18:44:37,20:31:32,NA,incomplete,false,true,NA,6,15,NA,orange,m_l_073.jpg,NA,NA,pleasant,unpleasant,NA,NA,NA,NA,NA,right,2340.70000001788,true,NA,NA,NA,NA,NA
Kyi1HvjK,3e6l1vr4yzzg81jodkfak6sl8ztf6z,35gmh2sv3iugednq97m088p4jmroe3,Kyi1HvjK,2020-0188,2021-10-17,18:44:37,20:31:32,NA,incomplete,false,true,NA,6,16,NA,orange,n_l_111.jpg,NA,NA,pleasant,unpleasant,NA,NA,NA,NA,NA,left,2228.30000001192,true,NA,NA,NA,NA,NA
Kyi1HvjK,3e6l1vr4yzzg81jodkfak6sl8ztf6z,35gmh2sv3iugednq97m088p4jmroe3,Kyi1HvjK,2020-0188,2021-10-17,18:44:37,20:31:32,NA,incomplete,false,true,NA,6,17,NA,orange,m_s_028.jpg,NA,NA,unpleasant,pleasant,NA,NA,NA,NA,NA,right,1935.09999999404,true,NA,NA,NA,NA,NA
Kyi1HvjK,3e6l1vr4yzzg81jodkfak6sl8ztf6z,35gmh2sv3iugednq97m088p4jmroe3,Kyi1HvjK,2020-0188,2021-10-17,18:44:37,20:31:32,NA,incomplete,false,true,NA,6,18,NA,purple,m_s_082.jpg,NA,NA,unpleasant,pleasant,NA,NA,NA,NA,NA,right,2235.69999998808,true,NA,NA,NA,NA,NA
Kyi1HvjK,3e6l1vr4yzzg81jodkfak6sl8ztf6z,35gmh2sv3iugednq97m088p4jmroe3,Kyi1HvjK,2020-0188,2021-10-17,18:44:37,20:31:32,NA,incomplete,false,true,NA,6,19,NA,purple,n_s_026.jpg,NA,NA,pleasant,unpleasant,NA,NA,NA,NA,NA,right,2173.19999998808,true,NA,NA,NA,NA,NA
Kyi1HvjK,3e6l1vr4yzzg81jodkfak6sl8ztf6z,35gmh2sv3iugednq97m088p4jmroe3,Kyi1HvjK,2020-0188,2021-10-17,18:44:37,20:31:32,NA,incomplete,false,true,NA,6,20,NA,purple,m_s_002.jpg,NA,NA,unpleasant,pleasant,NA,NA,NA,NA,NA,left,2006.59999999404,true,NA,NA,NA,NA,NA
Kyi1HvjK,3e6l1vr4yzzg81jodkfak6sl8ztf6z,35gmh2sv3iugednq97m088p4jmroe3,Kyi1HvjK,2020-0188,2021-10-17,18:44:37,20:31:32,NA,incomplete,false,true,NA,6,21,NA,purple,m_s_048.jpg,NA,NA,unpleasant,pleasant,NA,NA,NA,NA,NA,left,2387.80000001192,true,NA,NA,NA,NA,NA
Kyi1HvjK,3e6l1vr4yzzg81jodkfak6sl8ztf6z,35gmh2sv3iugednq97m088p4jmroe3,Kyi1HvjK,2020-0188,2021-10-17,18:44:37,20:31:32,NA,incomplete,false,true,NA,6,22,NA,purple,n_l_002.jpg,NA,NA,unpleasant,pleasant,NA,NA,NA,NA,NA,right,2643.40000000596,true,NA,NA,NA,NA,NA
Kyi1HvjK,3e6l1vr4yzzg81jodkfak6sl8ztf6z,35gmh2sv3iugednq97m088p4jmroe3,Kyi1HvjK,2020-0188,2021-10-17,18:44:37,20:31:32,NA,incomplete,false,true,NA,6,23,NA,purple,m_l_110.jpg,NA,NA,unpleasant,pleasant,NA,NA,NA,NA,NA,right,2974.09999999404,true,NA,NA,NA,NA,NA
Kyi1HvjK,3e6l1vr4yzzg81jodkfak6sl8ztf6z,35gmh2sv3iugednq97m088p4jmroe3,Kyi1HvjK,2020-0188,2021-10-17,18:44:37,20:31:32,NA,incomplete,false,true,NA,6,24,NA,blue,n_s_069.jpg,NA,NA,unpleasant,pleasant,NA,NA,NA,NA,NA,right,1929.89999997616,true,NA,NA,NA,NA,NA
Kyi1HvjK,3e6l1vr4yzzg81jodkfak6sl8ztf6z,35gmh2sv3iugednq97m088p4jmroe3,Kyi1HvjK,2020-0188,2021-10-17,18:44:37,20:31:32,NA,incomplete,false,true,NA,6,25,NA,blue,m_s_092.jpg,NA,NA,pleasant,unpleasant,NA,NA,NA,NA,NA,left,3090.40000000596,true,NA,NA,NA,NA,NA
Kyi1HvjK,3e6l1vr4yzzg81jodkfak6sl8ztf6z,35gmh2sv3iugednq97m088p4jmroe3,Kyi1HvjK,2020-0188,2021-10-17,18:44:37,20:31:32,NA,incomplete,false,true,NA,6,26,NA,blue,m_s_070.jpg,NA,NA,unpleasant,pleasant,NA,NA,NA,NA,NA,right,2314.59999999404,true,NA,NA,NA,NA,NA
Kyi1HvjK,3e6l1vr4yzzg81jodkfak6sl8ztf6z,35gmh2sv3iugednq97m088p4jmroe3,Kyi1HvjK,2020-0188,2021-10-17,18:44:37,20:31:32,NA,incomplete,false,true,NA,6,27,NA,blue,m_l_034.jpg,NA,NA,pleasant,unpleasant,NA,NA,NA,NA,NA,left,2122.30000001192,true,NA,NA,NA,NA,NA
Kyi1HvjK,3e6l1vr4yzzg81jodkfak6sl8ztf6z,35gmh2sv3iugednq97m088p4jmroe3,Kyi1HvjK,2020-0188,2021-10-17,18:44:37,20:31:32,NA,incomplete,false,true,NA,6,28,NA,blue,m_l_105.jpg,NA,NA,pleasant,unpleasant,NA,NA,NA,NA,NA,right,2154.90000000596,true,NA,NA,NA,NA,NA
Kyi1HvjK,3e6l1vr4yzzg81jodkfak6sl8ztf6z,35gmh2sv3iugednq97m088p4jmroe3,Kyi1HvjK,2020-0188,2021-10-17,18:44:37,20:31:32,NA,incomplete,false,true,NA,6,29,NA,blue,n_s_072.jpg,NA,NA,unpleasant,pleasant,NA,NA,NA,NA,NA,right,1979.40000000596,true,NA,NA,NA,NA,NA
Kyi1HvjK,3e6l1vr4yzzg81jodkfak6sl8ztf6z,35gmh2sv3iugednq97m088p4jmroe3,Kyi1HvjK,2020-0188,2021-10-17,18:44:37,20:31:32,NA,incomplete,false,true,NA,6,30,NA,green,n_l_048.jpg,NA,NA,unpleasant,pleasant,NA,NA,NA,NA,NA,right,2561.59999999404,true,NA,NA,NA,NA,NA
Kyi1HvjK,3e6l1vr4yzzg81jodkfak6sl8ztf6z,35gmh2sv3iugednq97m088p4jmroe3,Kyi1HvjK,2020-0188,2021-10-17,18:44:37,20:31:32,NA,incomplete,false,true,NA,6,31,NA,green,m_l_106.jpg,NA,NA,unpleasant,pleasant,NA,NA,NA,NA,NA,none,0,false,NA,NA,NA,NA,NA
Kyi1HvjK,3e6l1vr4yzzg81jodkfak6sl8ztf6z,35gmh2sv3iugednq97m088p4jmroe3,Kyi1HvjK,2020-0188,2021-10-17,18:44:37,20:31:32,NA,incomplete,false,true,NA,6,32,NA,green,n_s_043.jpg,NA,NA,pleasant,unpleasant,NA,NA,NA,NA,NA,left,1746.5,true,NA,NA,NA,NA,NA
Kyi1HvjK,3e6l1vr4yzzg81jodkfak6sl8ztf6z,35gmh2sv3iugednq97m088p4jmroe3,Kyi1HvjK,2020-0188,2021-10-17,18:44:37,20:31:32,NA,incomplete,false,true,NA,6,33,NA,green,m_s_006.jpg,NA,NA,pleasant,unpleasant,NA,NA,NA,NA,NA,left,3330,true,NA,NA,NA,NA,NA
Kyi1HvjK,3e6l1vr4yzzg81jodkfak6sl8ztf6z,35gmh2sv3iugednq97m088p4jmroe3,Kyi1HvjK,2020-0188,2021-10-17,18:44:37,20:31:32,NA,incomplete,false,true,NA,6,34,NA,green,m_s_102.jpg,NA,NA,unpleasant,pleasant,NA,NA,NA,NA,NA,left,2259.39999997616,true,NA,NA,NA,NA,NA
Kyi1HvjK,3e6l1vr4yzzg81jodkfak6sl8ztf6z,35gmh2sv3iugednq97m088p4jmroe3,Kyi1HvjK,2020-0188,2021-10-17,18:44:37,20:31:32,NA,incomplete,false,true,NA,6,35,NA,green,m_l_117.jpg,NA,NA,unpleasant,pleasant,NA,NA,NA,NA,NA,right,1722.40000000596,true,NA,NA,NA,NA,NA
Kyi1HvjK,3e6l1vr4yzzg81jodkfak6sl8ztf6z,35gmh2sv3iugednq97m088p4jmroe3,Kyi1HvjK,2020-0188,2021-10-17,18:44:37,20:31:32,NA,incomplete,false,NA,true,6,0,NA,NA,NA,left,present,NA,NA,m_s_092.jpg,blue,n_s_072.jpg,blue,within,NA,NaN,NA,right,5799.300000011921,0,1,33878.59999999404
Kyi1HvjK,3e6l1vr4yzzg81jodkfak6sl8ztf6z,35gmh2sv3iugednq97m088p4jmroe3,Kyi1HvjK,2020-0188,2021-10-17,18:44:37,20:31:32,NA,incomplete,false,NA,true,6,1,NA,NA,NA,left,present,NA,NA,m_l_105.jpg,blue,n_s_043.jpg,green,between,NA,NaN,NA,left,10358.700000017881,1,1,4326.300000011921
Kyi1HvjK,3e6l1vr4yzzg81jodkfak6sl8ztf6z,35gmh2sv3iugednq97m088p4jmroe3,Kyi1HvjK,2020-0188,2021-10-17,18:44:37,20:31:32,NA,incomplete,false,NA,true,6,2,NA,NA,NA,right,present,NA,NA,m_s_002.jpg,purple,n_l_111.jpg,orange,between,NA,NaN,NA,right,33023,1,1,6662.699999988079
Kyi1HvjK,3e6l1vr4yzzg81jodkfak6sl8ztf6z,35gmh2sv3iugednq97m088p4jmroe3,Kyi1HvjK,2020-0188,2021-10-17,18:44:37,20:31:32,NA,incomplete,false,NA,true,6,3,NA,NA,NA,right,present,NA,NA,m_s_070.jpg,blue,n_l_002.jpg,purple,between,NA,NaN,NA,right,21430.69999998808,1,2,3030.5999999940395
Kyi1HvjK,3e6l1vr4yzzg81jodkfak6sl8ztf6z,35gmh2sv3iugednq97m088p4jmroe3,Kyi1HvjK,2020-0188,2021-10-17,18:44:37,20:31:32,NA,incomplete,false,NA,true,6,4,NA,NA,NA,left,present,NA,NA,n_s_026.jpg,purple,m_l_110.jpg,purple,within,NA,NaN,NA,left,15367,1,2,4118.9000000059605
Kyi1HvjK,3e6l1vr4yzzg81jodkfak6sl8ztf6z,35gmh2sv3iugednq97m088p4jmroe3,Kyi1HvjK,2020-0188,2021-10-17,18:44:37,20:31:32,NA,incomplete,false,NA,true,6,5,NA,NA,NA,left,present,NA,NA,n_l_011.jpg,orange,m_s_028.jpg,orange,within,NA,NaN,NA,left,20727.79999998212,1,2,2414.4000000059605
Kyi1HvjK,3e6l1vr4yzzg81jodkfak6sl8ztf6z,35gmh2sv3iugednq97m088p4jmroe3,Kyi1HvjK,2020-0188,2021-10-17,18:44:37,20:31:32,NA,incomplete,false,NA,true,6,6,NA,NA,NA,left,present,NA,NA,m_l_106.jpg,green,m_l_117.jpg,green,within,NA,NaN,NA,left,19183.29999998212,1,1,1494.9000000059605
Kyi1HvjK,3e6l1vr4yzzg81jodkfak6sl8ztf6z,35gmh2sv3iugednq97m088p4jmroe3,Kyi1HvjK,2020-0188,2021-10-17,18:44:37,20:31:32,NA,incomplete,false,NA,true,6,7,NA,NA,NA,right,present,NA,NA,n_l_073.jpg,orange,n_l_064.jpg,black,between,NA,NaN,NA,right,18038.09999999404,1,1,1686.7999999821186
Kyi1HvjK,3e6l1vr4yzzg81jodkfak6sl8ztf6z,35gmh2sv3iugednq97m088p4jmroe3,Kyi1HvjK,2020-0188,2021-10-17,18:44:37,20:31:32,NA,incomplete,false,NA,true,6,8,NA,NA,NA,right,present,NA,NA,n_s_094.jpg,black,n_l_013.jpg,black,within,NA,NaN,NA,right,23638.70000001788,1,2,1927.2999999821186
Kyi1HvjK,3e6l1vr4yzzg81jodkfak6sl8ztf6z,35gmh2sv3iugednq97m088p4jmroe3,Kyi1HvjK,2020-0188,2021-10-17,18:44:37,20:31:32,NA,incomplete,false,NA,true,6,9,NA,NA,NA,right,present,NA,NA,m_s_003.jpg,black,m_l_090.jpg,brown,between,NA,NaN,NA,right,4871,1,1,2414.800000011921
Kyi1HvjK,3e6l1vr4yzzg81jodkfak6sl8ztf6z,35gmh2sv3iugednq97m088p4jmroe3,Kyi1HvjK,2020-0188,2021-10-17,18:44:37,20:31:32,NA,incomplete,false,NA,true,6,10,NA,NA,NA,right,present,NA,NA,m_l_072.jpg,brown,n_s_099.jpg,brown,within,NA,NaN,NA,right,18863.09999999404,1,1,6574.9000000059605
Kyi1HvjK,3e6l1vr4yzzg81jodkfak6sl8ztf6z,35gmh2sv3iugednq97m088p4jmroe3,Kyi1HvjK,2020-0188,2021-10-17,18:44:37,20:31:32,NA,incomplete,false,true,NA,7,0,NA,purple,m_s_024.jpg,NA,NA,pleasant,unpleasant,NA,NA,NA,NA,NA,left,2075.19999998808,true,NA,NA,NA,NA,NA
Kyi1HvjK,3e6l1vr4yzzg81jodkfak6sl8ztf6z,35gmh2sv3iugednq97m088p4jmroe3,Kyi1HvjK,2020-0188,2021-10-17,18:44:37,20:31:32,NA,incomplete,false,true,NA,7,1,NA,purple,m_s_088.jpg,NA,NA,unpleasant,pleasant,NA,NA,NA,NA,NA,left,194.899999976158,true,NA,NA,NA,NA,NA
Kyi1HvjK,3e6l1vr4yzzg81jodkfak6sl8ztf6z,35gmh2sv3iugednq97m088p4jmroe3,Kyi1HvjK,2020-0188,2021-10-17,18:44:37,20:31:32,NA,incomplete,false,true,NA,7,2,NA,purple,m_s_083.jpg,NA,NA,pleasant,unpleasant,NA,NA,NA,NA,NA,left,525.300000011921,true,NA,NA,NA,NA,NA
Kyi1HvjK,3e6l1vr4yzzg81jodkfak6sl8ztf6z,35gmh2sv3iugednq97m088p4jmroe3,Kyi1HvjK,2020-0188,2021-10-17,18:44:37,20:31:32,NA,incomplete,false,true,NA,7,3,NA,purple,m_l_005.jpg,NA,NA,unpleasant,pleasant,NA,NA,NA,NA,NA,right,931.299999982119,true,NA,NA,NA,NA,NA
Kyi1HvjK,3e6l1vr4yzzg81jodkfak6sl8ztf6z,35gmh2sv3iugednq97m088p4jmroe3,Kyi1HvjK,2020-0188,2021-10-17,18:44:37,20:31:32,NA,incomplete,false,true,NA,7,4,NA,purple,n_s_077.jpg,NA,NA,unpleasant,pleasant,NA,NA,NA,NA,NA,left,939.700000017881,true,NA,NA,NA,NA,NA
Kyi1HvjK,3e6l1vr4yzzg81jodkfak6sl8ztf6z,35gmh2sv3iugednq97m088p4jmroe3,Kyi1HvjK,2020-0188,2021-10-17,18:44:37,20:31:32,NA,incomplete,false,true,NA,7,5,NA,purple,n_s_024.jpg,NA,NA,unpleasant,pleasant,NA,NA,NA,NA,NA,right,891.600000023842,true,NA,NA,NA,NA,NA
Kyi1HvjK,3e6l1vr4yzzg81jodkfak6sl8ztf6z,35gmh2sv3iugednq97m088p4jmroe3,Kyi1HvjK,2020-0188,2021-10-17,18:44:37,20:31:32,NA,incomplete,false,true,NA,7,6,NA,red,m_l_069.jpg,NA,NA,pleasant,unpleasant,NA,NA,NA,NA,NA,right,996.09999999404,true,NA,NA,NA,NA,NA
Kyi1HvjK,3e6l1vr4yzzg81jodkfak6sl8ztf6z,35gmh2sv3iugednq97m088p4jmroe3,Kyi1HvjK,2020-0188,2021-10-17,18:44:37,20:31:32,NA,incomplete,false,true,NA,7,7,NA,red,m_l_051.jpg,NA,NA,unpleasant,pleasant,NA,NA,NA,NA,NA,right,1349.80000001192,true,NA,NA,NA,NA,NA
Kyi1HvjK,3e6l1vr4yzzg81jodkfak6sl8ztf6z,35gmh2sv3iugednq97m088p4jmroe3,Kyi1HvjK,2020-0188,2021-10-17,18:44:37,20:31:32,NA,incomplete,false,true,NA,7,8,NA,red,n_l_093.jpg,NA,NA,pleasant,unpleasant,NA,NA,NA,NA,NA,left,1556.59999999404,true,NA,NA,NA,NA,NA
Kyi1HvjK,3e6l1vr4yzzg81jodkfak6sl8ztf6z,35gmh2sv3iugednq97m088p4jmroe3,Kyi1HvjK,2020-0188,2021-10-17,18:44:37,20:31:32,NA,incomplete,false,true,NA,7,9,NA,red,n_s_051.jpg,NA,NA,pleasant,unpleasant,NA,NA,NA,NA,NA,left,1292,true,NA,NA,NA,NA,NA
Kyi1HvjK,3e6l1vr4yzzg81jodkfak6sl8ztf6z,35gmh2sv3iugednq97m088p4jmroe3,Kyi1HvjK,2020-0188,2021-10-17,18:44:37,20:31:32,NA,incomplete,false,true,NA,7,10,NA,red,m_s_012.jpg,NA,NA,unpleasant,pleasant,NA,NA,NA,NA,NA,right,1318.40000000596,true,NA,NA,NA,NA,NA
Kyi1HvjK,3e6l1vr4yzzg81jodkfak6sl8ztf6z,35gmh2sv3iugednq97m088p4jmroe3,Kyi1HvjK,2020-0188,2021-10-17,18:44:37,20:31:32,NA,incomplete,false,true,NA,7,11,NA,red,m_l_053.jpg,NA,NA,pleasant,unpleasant,NA,NA,NA,NA,NA,left,1036.5,true,NA,NA,NA,NA,NA
Kyi1HvjK,3e6l1vr4yzzg81jodkfak6sl8ztf6z,35gmh2sv3iugednq97m088p4jmroe3,Kyi1HvjK,2020-0188,2021-10-17,18:44:37,20:31:32,NA,incomplete,false,true,NA,7,12,NA,blue,m_l_083.jpg,NA,NA,unpleasant,pleasant,NA,NA,NA,NA,NA,right,1635.70000001788,true,NA,NA,NA,NA,NA
Kyi1HvjK,3e6l1vr4yzzg81jodkfak6sl8ztf6z,35gmh2sv3iugednq97m088p4jmroe3,Kyi1HvjK,2020-0188,2021-10-17,18:44:37,20:31:32,NA,incomplete,false,true,NA,7,13,NA,blue,m_l_080.jpg,NA,NA,pleasant,unpleasant,NA,NA,NA,NA,NA,left,990.40000000596,true,NA,NA,NA,NA,NA
Kyi1HvjK,3e6l1vr4yzzg81jodkfak6sl8ztf6z,35gmh2sv3iugednq97m088p4jmroe3,Kyi1HvjK,2020-0188,2021-10-17,18:44:37,20:31:32,NA,incomplete,false,true,NA,7,14,NA,blue,m_l_108.jpg,NA,NA,unpleasant,pleasant,NA,NA,NA,NA,NA,right,1052.09999999404,true,NA,NA,NA,NA,NA
Kyi1HvjK,3e6l1vr4yzzg81jodkfak6sl8ztf6z,35gmh2sv3iugednq97m088p4jmroe3,Kyi1HvjK,2020-0188,2021-10-17,18:44:37,20:31:32,NA,incomplete,false,true,NA,7,15,NA,blue,m_l_116.jpg,NA,NA,pleasant,unpleasant,NA,NA,NA,NA,NA,left,995.59999999404,true,NA,NA,NA,NA,NA
Kyi1HvjK,3e6l1vr4yzzg81jodkfak6sl8ztf6z,35gmh2sv3iugednq97m088p4jmroe3,Kyi1HvjK,2020-0188,2021-10-17,18:44:37,20:31:32,NA,incomplete,false,true,NA,7,16,NA,blue,m_l_088.jpg,NA,NA,unpleasant,pleasant,NA,NA,NA,NA,NA,right,1118.19999998808,true,NA,NA,NA,NA,NA
Kyi1HvjK,3e6l1vr4yzzg81jodkfak6sl8ztf6z,35gmh2sv3iugednq97m088p4jmroe3,Kyi1HvjK,2020-0188,2021-10-17,18:44:37,20:31:32,NA,incomplete,false,true,NA,7,17,NA,blue,n_l_057.jpg,NA,NA,unpleasant,pleasant,NA,NA,NA,NA,NA,right,1348.09999999404,true,NA,NA,NA,NA,NA
Kyi1HvjK,3e6l1vr4yzzg81jodkfak6sl8ztf6z,35gmh2sv3iugednq97m088p4jmroe3,Kyi1HvjK,2020-0188,2021-10-17,18:44:37,20:31:32,NA,incomplete,false,true,NA,7,18,NA,black,m_s_044.jpg,NA,NA,pleasant,unpleasant,NA,NA,NA,NA,NA,left,1331.20000001788,true,NA,NA,NA,NA,NA
Kyi1HvjK,3e6l1vr4yzzg81jodkfak6sl8ztf6z,35gmh2sv3iugednq97m088p4jmroe3,Kyi1HvjK,2020-0188,2021-10-17,18:44:37,20:31:32,NA,incomplete,false,true,NA,7,19,NA,black,n_l_018.jpg,NA,NA,unpleasant,pleasant,NA,NA,NA,NA,NA,right,1029.90000000596,true,NA,NA,NA,NA,NA
Kyi1HvjK,3e6l1vr4yzzg81jodkfak6sl8ztf6z,35gmh2sv3iugednq97m088p4jmroe3,Kyi1HvjK,2020-0188,2021-10-17,18:44:37,20:31:32,NA,incomplete,false,true,NA,7,20,NA,black,m_l_031.jpg,NA,NA,unpleasant,pleasant,NA,NA,NA,NA,NA,right,1052.90000000596,true,NA,NA,NA,NA,NA
Kyi1HvjK,3e6l1vr4yzzg81jodkfak6sl8ztf6z,35gmh2sv3iugednq97m088p4jmroe3,Kyi1HvjK,2020-0188,2021-10-17,18:44:37,20:31:32,NA,incomplete,false,true,NA,7,21,NA,black,n_l_031.jpg,NA,NA,unpleasant,pleasant,NA,NA,NA,NA,NA,right,923.800000011921,true,NA,NA,NA,NA,NA
Kyi1HvjK,3e6l1vr4yzzg81jodkfak6sl8ztf6z,35gmh2sv3iugednq97m088p4jmroe3,Kyi1HvjK,2020-0188,2021-10-17,18:44:37,20:31:32,NA,incomplete,false,true,NA,7,22,NA,black,m_l_101.jpg,NA,NA,pleasant,unpleasant,NA,NA,NA,NA,NA,left,989.90000000596,true,NA,NA,NA,NA,NA
Kyi1HvjK,3e6l1vr4yzzg81jodkfak6sl8ztf6z,35gmh2sv3iugednq97m088p4jmroe3,Kyi1HvjK,2020-0188,2021-10-17,18:44:37,20:31:32,NA,incomplete,false,true,NA,7,23,NA,black,m_l_070.jpg,NA,NA,pleasant,unpleasant,NA,NA,NA,NA,NA,left,1044.5,true,NA,NA,NA,NA,NA
Kyi1HvjK,3e6l1vr4yzzg81jodkfak6sl8ztf6z,35gmh2sv3iugednq97m088p4jmroe3,Kyi1HvjK,2020-0188,2021-10-17,18:44:37,20:31:32,NA,incomplete,false,true,NA,7,24,NA,gray,m_l_099.jpg,NA,NA,unpleasant,pleasant,NA,NA,NA,NA,NA,right,1340.69999998808,true,NA,NA,NA,NA,NA
Kyi1HvjK,3e6l1vr4yzzg81jodkfak6sl8ztf6z,35gmh2sv3iugednq97m088p4jmroe3,Kyi1HvjK,2020-0188,2021-10-17,18:44:37,20:31:32,NA,incomplete,false,true,NA,7,25,NA,gray,n_l_008.jpg,NA,NA,unpleasant,pleasant,NA,NA,NA,NA,NA,right,838.200000017881,true,NA,NA,NA,NA,NA
Kyi1HvjK,3e6l1vr4yzzg81jodkfak6sl8ztf6z,35gmh2sv3iugednq97m088p4jmroe3,Kyi1HvjK,2020-0188,2021-10-17,18:44:37,20:31:32,NA,incomplete,false,true,NA,7,26,NA,gray,m_s_004.jpg,NA,NA,pleasant,unpleasant,NA,NA,NA,NA,NA,left,915.59999999404,true,NA,NA,NA,NA,NA
Kyi1HvjK,3e6l1vr4yzzg81jodkfak6sl8ztf6z,35gmh2sv3iugednq97m088p4jmroe3,Kyi1HvjK,2020-0188,2021-10-17,18:44:37,20:31:32,NA,incomplete,false,true,NA,7,27,NA,gray,m_l_113.jpg,NA,NA,unpleasant,pleasant,NA,NA,NA,NA,NA,right,892.59999999404,true,NA,NA,NA,NA,NA
Kyi1HvjK,3e6l1vr4yzzg81jodkfak6sl8ztf6z,35gmh2sv3iugednq97m088p4jmroe3,Kyi1HvjK,2020-0188,2021-10-17,18:44:37,20:31:32,NA,incomplete,false,true,NA,7,28,NA,gray,m_s_047.jpg,NA,NA,pleasant,unpleasant,NA,NA,NA,NA,NA,left,958.799999982119,true,NA,NA,NA,NA,NA
Kyi1HvjK,3e6l1vr4yzzg81jodkfak6sl8ztf6z,35gmh2sv3iugednq97m088p4jmroe3,Kyi1HvjK,2020-0188,2021-10-17,18:44:37,20:31:32,NA,incomplete,false,true,NA,7,29,NA,gray,m_l_067.jpg,NA,NA,pleasant,unpleasant,NA,NA,NA,NA,NA,left,1029,true,NA,NA,NA,NA,NA
Kyi1HvjK,3e6l1vr4yzzg81jodkfak6sl8ztf6z,35gmh2sv3iugednq97m088p4jmroe3,Kyi1HvjK,2020-0188,2021-10-17,18:44:37,20:31:32,NA,incomplete,false,true,NA,7,30,NA,yellow,n_l_087.jpg,NA,NA,pleasant,unpleasant,NA,NA,NA,NA,NA,left,829.199999988079,true,NA,NA,NA,NA,NA
Kyi1HvjK,3e6l1vr4yzzg81jodkfak6sl8ztf6z,35gmh2sv3iugednq97m088p4jmroe3,Kyi1HvjK,2020-0188,2021-10-17,18:44:37,20:31:32,NA,incomplete,false,true,NA,7,31,NA,yellow,m_s_103.jpg,NA,NA,pleasant,unpleasant,NA,NA,NA,NA,NA,left,871.700000017881,true,NA,NA,NA,NA,NA
Kyi1HvjK,3e6l1vr4yzzg81jodkfak6sl8ztf6z,35gmh2sv3iugednq97m088p4jmroe3,Kyi1HvjK,2020-0188,2021-10-17,18:44:37,20:31:32,NA,incomplete,false,true,NA,7,32,NA,yellow,n_s_004.jpg,NA,NA,unpleasant,pleasant,NA,NA,NA,NA,NA,left,1045,true,NA,NA,NA,NA,NA
Kyi1HvjK,3e6l1vr4yzzg81jodkfak6sl8ztf6z,35gmh2sv3iugednq97m088p4jmroe3,Kyi1HvjK,2020-0188,2021-10-17,18:44:37,20:31:32,NA,incomplete,false,true,NA,7,33,NA,yellow,m_l_111.jpg,NA,NA,pleasant,unpleasant,NA,NA,NA,NA,NA,left,940.90000000596,true,NA,NA,NA,NA,NA
Kyi1HvjK,3e6l1vr4yzzg81jodkfak6sl8ztf6z,35gmh2sv3iugednq97m088p4jmroe3,Kyi1HvjK,2020-0188,2021-10-17,18:44:37,20:31:32,NA,incomplete,false,true,NA,7,34,NA,yellow,n_s_032.jpg,NA,NA,pleasant,unpleasant,NA,NA,NA,NA,NA,left,864.09999999404,true,NA,NA,NA,NA,NA
Kyi1HvjK,3e6l1vr4yzzg81jodkfak6sl8ztf6z,35gmh2sv3iugednq97m088p4jmroe3,Kyi1HvjK,2020-0188,2021-10-17,18:44:37,20:31:32,NA,incomplete,false,true,NA,7,35,NA,yellow,m_s_041.jpg,NA,NA,pleasant,unpleasant,NA,NA,NA,NA,NA,left,797.5,true,NA,NA,NA,NA,NA
Kyi1HvjK,3e6l1vr4yzzg81jodkfak6sl8ztf6z,35gmh2sv3iugednq97m088p4jmroe3,Kyi1HvjK,2020-0188,2021-10-17,18:44:37,20:31:32,NA,incomplete,false,NA,true,7,0,NA,NA,NA,left,absent,NA,NA,n_l_018.jpg,black,m_l_070.jpg,black,within,NA,NaN,NA,right,1574.7999999821186,0,1,2510.699999988079
Kyi1HvjK,3e6l1vr4yzzg81jodkfak6sl8ztf6z,35gmh2sv3iugednq97m088p4jmroe3,Kyi1HvjK,2020-0188,2021-10-17,18:44:37,20:31:32,NA,incomplete,false,NA,true,7,1,NA,NA,NA,right,absent,NA,NA,m_l_053.jpg,red,m_l_051.jpg,red,within,NA,NaN,NA,right,1358.9000000059605,1,1,1910.5
Kyi1HvjK,3e6l1vr4yzzg81jodkfak6sl8ztf6z,35gmh2sv3iugednq97m088p4jmroe3,Kyi1HvjK,2020-0188,2021-10-17,18:44:37,20:31:32,NA,incomplete,false,NA,true,7,2,NA,NA,NA,right,absent,NA,NA,n_s_004.jpg,yellow,m_s_047.jpg,gray,between,NA,NaN,NA,right,1878.4000000059605,1,0,862.6999999880791
Kyi1HvjK,3e6l1vr4yzzg81jodkfak6sl8ztf6z,35gmh2sv3iugednq97m088p4jmroe3,Kyi1HvjK,2020-0188,2021-10-17,18:44:37,20:31:32,NA,incomplete,false,NA,true,7,3,NA,NA,NA,right,absent,NA,NA,n_l_057.jpg,blue,m_l_080.jpg,blue,within,NA,NaN,NA,left,1454,0,1,2590.9000000059605
Kyi1HvjK,3e6l1vr4yzzg81jodkfak6sl8ztf6z,35gmh2sv3iugednq97m088p4jmroe3,Kyi1HvjK,2020-0188,2021-10-17,18:44:37,20:31:32,NA,incomplete,false,NA,true,7,4,NA,NA,NA,right,absent,NA,NA,m_l_108.jpg,blue,m_s_012.jpg,red,between,NA,NaN,NA,left,3919.2000000178814,0,1,1254
Kyi1HvjK,3e6l1vr4yzzg81jodkfak6sl8ztf6z,35gmh2sv3iugednq97m088p4jmroe3,Kyi1HvjK,2020-0188,2021-10-17,18:44:37,20:31:32,NA,incomplete,false,NA,true,7,5,NA,NA,NA,left,absent,NA,NA,n_l_008.jpg,gray,m_l_067.jpg,gray,within,NA,NaN,NA,right,1278.699999988079,0,2,1383.300000011921
Kyi1HvjK,3e6l1vr4yzzg81jodkfak6sl8ztf6z,35gmh2sv3iugednq97m088p4jmroe3,Kyi1HvjK,2020-0188,2021-10-17,18:44:37,20:31:32,NA,incomplete,false,NA,true,7,6,NA,NA,NA,left,absent,NA,NA,n_s_077.jpg,purple,n_l_093.jpg,red,between,NA,NaN,NA,left,1935.5,1,0,799
Kyi1HvjK,3e6l1vr4yzzg81jodkfak6sl8ztf6z,35gmh2sv3iugednq97m088p4jmroe3,Kyi1HvjK,2020-0188,2021-10-17,18:44:37,20:31:32,NA,incomplete,false,NA,true,7,7,NA,NA,NA,right,absent,NA,NA,m_l_031.jpg,black,m_l_088.jpg,blue,between,NA,NaN,NA,right,1759,1,1,1263
Kyi1HvjK,3e6l1vr4yzzg81jodkfak6sl8ztf6z,35gmh2sv3iugednq97m088p4jmroe3,Kyi1HvjK,2020-0188,2021-10-17,18:44:37,20:31:32,NA,incomplete,false,NA,true,7,8,NA,NA,NA,left,absent,NA,NA,m_l_101.jpg,black,m_s_004.jpg,gray,between,NA,NaN,NA,right,1839.2999999821186,0,2,2399
Kyi1HvjK,3e6l1vr4yzzg81jodkfak6sl8ztf6z,35gmh2sv3iugednq97m088p4jmroe3,Kyi1HvjK,2020-0188,2021-10-17,18:44:37,20:31:32,NA,incomplete,false,NA,true,7,9,NA,NA,NA,right,absent,NA,NA,n_s_024.jpg,purple,m_s_088.jpg,purple,within,NA,NaN,NA,left,1679.2999999821186,0,1,1166.4000000059605
Kyi1HvjK,3e6l1vr4yzzg81jodkfak6sl8ztf6z,35gmh2sv3iugednq97m088p4jmroe3,Kyi1HvjK,2020-0188,2021-10-17,18:44:37,20:31:32,NA,incomplete,false,NA,true,7,10,NA,NA,NA,right,absent,NA,NA,m_s_041.jpg,yellow,m_s_103.jpg,yellow,within,NA,NaN,NA,left,1318.5999999940395,0,0,1174.9000000059605
Kyi1HvjK,3e6l1vr4yzzg81jodkfak6sl8ztf6z,35gmh2sv3iugednq97m088p4jmroe3,Kyi1HvjK,2020-0188,2021-10-17,18:44:37,20:31:32,NA,incomplete,false,true,NA,8,0,NA,green,m_s_108.jpg,NA,NA,unpleasant,pleasant,NA,NA,NA,NA,NA,right,832.09999999404,true,NA,NA,NA,NA,NA
Kyi1HvjK,3e6l1vr4yzzg81jodkfak6sl8ztf6z,35gmh2sv3iugednq97m088p4jmroe3,Kyi1HvjK,2020-0188,2021-10-17,18:44:37,20:31:32,NA,incomplete,false,true,NA,8,1,NA,green,n_s_052.jpg,NA,NA,pleasant,unpleasant,NA,NA,NA,NA,NA,right,71,true,NA,NA,NA,NA,NA
Kyi1HvjK,3e6l1vr4yzzg81jodkfak6sl8ztf6z,35gmh2sv3iugednq97m088p4jmroe3,Kyi1HvjK,2020-0188,2021-10-17,18:44:37,20:31:32,NA,incomplete,false,true,NA,8,2,NA,green,n_s_054.jpg,NA,NA,unpleasant,pleasant,NA,NA,NA,NA,NA,left,70.6000000238419,true,NA,NA,NA,NA,NA
Kyi1HvjK,3e6l1vr4yzzg81jodkfak6sl8ztf6z,35gmh2sv3iugednq97m088p4jmroe3,Kyi1HvjK,2020-0188,2021-10-17,18:44:37,20:31:32,NA,incomplete,false,true,NA,8,3,NA,green,n_s_027.jpg,NA,NA,pleasant,unpleasant,NA,NA,NA,NA,NA,left,134.90000000596,true,NA,NA,NA,NA,NA
Kyi1HvjK,3e6l1vr4yzzg81jodkfak6sl8ztf6z,35gmh2sv3iugednq97m088p4jmroe3,Kyi1HvjK,2020-0188,2021-10-17,18:44:37,20:31:32,NA,incomplete,false,true,NA,8,4,NA,green,m_l_004.jpg,NA,NA,pleasant,unpleasant,NA,NA,NA,NA,NA,left,150.699999988079,true,NA,NA,NA,NA,NA
Kyi1HvjK,3e6l1vr4yzzg81jodkfak6sl8ztf6z,35gmh2sv3iugednq97m088p4jmroe3,Kyi1HvjK,2020-0188,2021-10-17,18:44:37,20:31:32,NA,incomplete,false,true,NA,8,5,NA,green,n_s_104.jpg,NA,NA,unpleasant,pleasant,NA,NA,NA,NA,NA,right,174.699999988079,true,NA,NA,NA,NA,NA
Kyi1HvjK,3e6l1vr4yzzg81jodkfak6sl8ztf6z,35gmh2sv3iugednq97m088p4jmroe3,Kyi1HvjK,2020-0188,2021-10-17,18:44:37,20:31:32,NA,incomplete,false,true,NA,8,6,NA,brown,m_s_113.jpg,NA,NA,pleasant,unpleasant,NA,NA,NA,NA,NA,left,62,true,NA,NA,NA,NA,NA
Kyi1HvjK,3e6l1vr4yzzg81jodkfak6sl8ztf6z,35gmh2sv3iugednq97m088p4jmroe3,Kyi1HvjK,2020-0188,2021-10-17,18:44:37,20:31:32,NA,incomplete,false,true,NA,8,7,NA,brown,n_l_099.jpg,NA,NA,pleasant,unpleasant,NA,NA,NA,NA,NA,right,215.200000017881,true,NA,NA,NA,NA,NA
Kyi1HvjK,3e6l1vr4yzzg81jodkfak6sl8ztf6z,35gmh2sv3iugednq97m088p4jmroe3,Kyi1HvjK,2020-0188,2021-10-17,18:44:37,20:31:32,NA,incomplete,false,true,NA,8,8,NA,brown,m_l_071.jpg,NA,NA,unpleasant,pleasant,NA,NA,NA,NA,NA,left,102.59999999404,true,NA,NA,NA,NA,NA
