workerId,hitId,assignmentId,subject,studyid,exp_date,exp_start,exp_end,time_start,time_end,practice,encoding,memory,block,trial,event_order,event,stim,answer,context_type,label_left,label_right,left_image,left_event,right_image,right_event,condition,response,response_time,response_acc,order_response,order_response_time,order_acc,distance_response,distance_response_time
LbJiIT8Y,3t2hw4qdvykwn81ckpslwayk1hg9co,3zgvpd4g6xuu20ju1bmcnsw96ofztg,LbJiIT8Y,2020-0188,2021-10-14,09:45:47,11:08:08,NA,incomplete,true,true,NA,0,0,NA,red,n_s_023.jpg,NA,NA,unpleasant,pleasant,NA,NA,NA,NA,NA,right,1914.30000001192,true,NA,NA,NA,NA,NA
LbJiIT8Y,3t2hw4qdvykwn81ckpslwayk1hg9co,3zgvpd4g6xuu20ju1bmcnsw96ofztg,LbJiIT8Y,2020-0188,2021-10-14,09:45:47,11:08:08,NA,incomplete,true,true,NA,0,1,NA,red,m_s_098.jpg,NA,NA,pleasant,unpleasant,NA,NA,NA,NA,NA,right,1419.09999996424,true,NA,NA,NA,NA,NA
LbJiIT8Y,3t2hw4qdvykwn81ckpslwayk1hg9co,3zgvpd4g6xuu20ju1bmcnsw96ofztg,LbJiIT8Y,2020-0188,2021-10-14,09:45:47,11:08:08,NA,incomplete,true,true,NA,0,2,NA,red,n_s_029.jpg,NA,NA,unpleasant,pleasant,NA,NA,NA,NA,NA,right,1601.30000001192,true,NA,NA,NA,NA,NA
LbJiIT8Y,3t2hw4qdvykwn81ckpslwayk1hg9co,3zgvpd4g6xuu20ju1bmcnsw96ofztg,LbJiIT8Y,2020-0188,2021-10-14,09:45:47,11:08:08,NA,incomplete,true,true,NA,0,3,NA,red,m_l_057.jpg,NA,NA,unpleasant,pleasant,NA,NA,NA,NA,NA,left,2070.80000001192,true,NA,NA,NA,NA,NA
LbJiIT8Y,3t2hw4qdvykwn81ckpslwayk1hg9co,3zgvpd4g6xuu20ju1bmcnsw96ofztg,LbJiIT8Y,2020-0188,2021-10-14,09:45:47,11:08:08,NA,incomplete,true,true,NA,0,4,NA,red,m_l_090.jpg,NA,NA,unpleasant,pleasant,NA,NA,NA,NA,NA,right,2330.30000001192,true,NA,NA,NA,NA,NA
LbJiIT8Y,3t2hw4qdvykwn81ckpslwayk1hg9co,3zgvpd4g6xuu20ju1bmcnsw96ofztg,LbJiIT8Y,2020-0188,2021-10-14,09:45:47,11:08:08,NA,incomplete,true,true,NA,0,5,NA,red,m_s_117.jpg,NA,NA,unpleasant,pleasant,NA,NA,NA,NA,NA,right,2333.5,true,NA,NA,NA,NA,NA
LbJiIT8Y,3t2hw4qdvykwn81ckpslwayk1hg9co,3zgvpd4g6xuu20ju1bmcnsw96ofztg,LbJiIT8Y,2020-0188,2021-10-14,09:45:47,11:08:08,NA,incomplete,true,true,NA,0,6,NA,brown,m_l_065.jpg,NA,NA,unpleasant,pleasant,NA,NA,NA,NA,NA,right,1807.80000001192,true,NA,NA,NA,NA,NA
LbJiIT8Y,3t2hw4qdvykwn81ckpslwayk1hg9co,3zgvpd4g6xuu20ju1bmcnsw96ofztg,LbJiIT8Y,2020-0188,2021-10-14,09:45:47,11:08:08,NA,incomplete,true,true,NA,0,7,NA,brown,m_s_036.jpg,NA,NA,unpleasant,pleasant,NA,NA,NA,NA,NA,right,1349.60000002384,true,NA,NA,NA,NA,NA
LbJiIT8Y,3t2hw4qdvykwn81ckpslwayk1hg9co,3zgvpd4g6xuu20ju1bmcnsw96ofztg,LbJiIT8Y,2020-0188,2021-10-14,09:45:47,11:08:08,NA,incomplete,true,true,NA,0,8,NA,brown,m_l_089.jpg,NA,NA,unpleasant,pleasant,NA,NA,NA,NA,NA,right,2490.70000004768,true,NA,NA,NA,NA,NA
LbJiIT8Y,3t2hw4qdvykwn81ckpslwayk1hg9co,3zgvpd4g6xuu20ju1bmcnsw96ofztg,LbJiIT8Y,2020-0188,2021-10-14,09:45:47,11:08:08,NA,incomplete,true,true,NA,0,9,NA,brown,n_l_084.jpg,NA,NA,unpleasant,pleasant,NA,NA,NA,NA,NA,left,1977,true,NA,NA,NA,NA,NA
LbJiIT8Y,3t2hw4qdvykwn81ckpslwayk1hg9co,3zgvpd4g6xuu20ju1bmcnsw96ofztg,LbJiIT8Y,2020-0188,2021-10-14,09:45:47,11:08:08,NA,incomplete,true,true,NA,0,10,NA,brown,m_l_039.jpg,NA,NA,pleasant,unpleasant,NA,NA,NA,NA,NA,left,1983.39999997616,true,NA,NA,NA,NA,NA
LbJiIT8Y,3t2hw4qdvykwn81ckpslwayk1hg9co,3zgvpd4g6xuu20ju1bmcnsw96ofztg,LbJiIT8Y,2020-0188,2021-10-14,09:45:47,11:08:08,NA,incomplete,true,true,NA,0,11,NA,brown,m_l_108.jpg,NA,NA,unpleasant,pleasant,NA,NA,NA,NA,NA,right,2064.39999997616,true,NA,NA,NA,NA,NA
LbJiIT8Y,3t2hw4qdvykwn81ckpslwayk1hg9co,3zgvpd4g6xuu20ju1bmcnsw96ofztg,LbJiIT8Y,2020-0188,2021-10-14,09:45:47,11:08:08,NA,incomplete,true,true,NA,0,12,NA,black,m_l_087.jpg,NA,NA,unpleasant,pleasant,NA,NA,NA,NA,NA,right,2682.40000003576,true,NA,NA,NA,NA,NA
LbJiIT8Y,3t2hw4qdvykwn81ckpslwayk1hg9co,3zgvpd4g6xuu20ju1bmcnsw96ofztg,LbJiIT8Y,2020-0188,2021-10-14,09:45:47,11:08:08,NA,incomplete,true,true,NA,0,13,NA,black,m_l_040.jpg,NA,NA,pleasant,unpleasant,NA,NA,NA,NA,NA,left,1269,true,NA,NA,NA,NA,NA
LbJiIT8Y,3t2hw4qdvykwn81ckpslwayk1hg9co,3zgvpd4g6xuu20ju1bmcnsw96ofztg,LbJiIT8Y,2020-0188,2021-10-14,09:45:47,11:08:08,NA,incomplete,true,true,NA,0,14,NA,black,m_s_079.jpg,NA,NA,pleasant,unpleasant,NA,NA,NA,NA,NA,left,2087.30000001192,true,NA,NA,NA,NA,NA
LbJiIT8Y,3t2hw4qdvykwn81ckpslwayk1hg9co,3zgvpd4g6xuu20ju1bmcnsw96ofztg,LbJiIT8Y,2020-0188,2021-10-14,09:45:47,11:08:08,NA,incomplete,true,true,NA,0,15,NA,black,m_s_114.jpg,NA,NA,unpleasant,pleasant,NA,NA,NA,NA,NA,right,2175.5,true,NA,NA,NA,NA,NA
LbJiIT8Y,3t2hw4qdvykwn81ckpslwayk1hg9co,3zgvpd4g6xuu20ju1bmcnsw96ofztg,LbJiIT8Y,2020-0188,2021-10-14,09:45:47,11:08:08,NA,incomplete,true,true,NA,0,16,NA,black,m_l_050.jpg,NA,NA,unpleasant,pleasant,NA,NA,NA,NA,NA,right,1740.79999995232,true,NA,NA,NA,NA,NA
LbJiIT8Y,3t2hw4qdvykwn81ckpslwayk1hg9co,3zgvpd4g6xuu20ju1bmcnsw96ofztg,LbJiIT8Y,2020-0188,2021-10-14,09:45:47,11:08:08,NA,incomplete,true,true,NA,0,17,NA,black,n_l_047.jpg,NA,NA,pleasant,unpleasant,NA,NA,NA,NA,NA,left,1345.19999998808,true,NA,NA,NA,NA,NA
LbJiIT8Y,3t2hw4qdvykwn81ckpslwayk1hg9co,3zgvpd4g6xuu20ju1bmcnsw96ofztg,LbJiIT8Y,2020-0188,2021-10-14,09:45:47,11:08:08,NA,incomplete,true,true,NA,0,18,NA,gray,n_s_075.jpg,NA,NA,pleasant,unpleasant,NA,NA,NA,NA,NA,left,1540.10000002384,true,NA,NA,NA,NA,NA
LbJiIT8Y,3t2hw4qdvykwn81ckpslwayk1hg9co,3zgvpd4g6xuu20ju1bmcnsw96ofztg,LbJiIT8Y,2020-0188,2021-10-14,09:45:47,11:08:08,NA,incomplete,true,true,NA,0,19,NA,gray,n_l_085.jpg,NA,NA,unpleasant,pleasant,NA,NA,NA,NA,NA,right,1911.09999996424,true,NA,NA,NA,NA,NA
LbJiIT8Y,3t2hw4qdvykwn81ckpslwayk1hg9co,3zgvpd4g6xuu20ju1bmcnsw96ofztg,LbJiIT8Y,2020-0188,2021-10-14,09:45:47,11:08:08,NA,incomplete,true,true,NA,0,20,NA,gray,n_s_064.jpg,NA,NA,unpleasant,pleasant,NA,NA,NA,NA,NA,left,1161.10000002384,true,NA,NA,NA,NA,NA
LbJiIT8Y,3t2hw4qdvykwn81ckpslwayk1hg9co,3zgvpd4g6xuu20ju1bmcnsw96ofztg,LbJiIT8Y,2020-0188,2021-10-14,09:45:47,11:08:08,NA,incomplete,true,true,NA,0,21,NA,gray,n_l_100.jpg,NA,NA,unpleasant,pleasant,NA,NA,NA,NA,NA,left,1758.29999995232,true,NA,NA,NA,NA,NA
LbJiIT8Y,3t2hw4qdvykwn81ckpslwayk1hg9co,3zgvpd4g6xuu20ju1bmcnsw96ofztg,LbJiIT8Y,2020-0188,2021-10-14,09:45:47,11:08:08,NA,incomplete,true,true,NA,0,22,NA,gray,m_s_115.jpg,NA,NA,pleasant,unpleasant,NA,NA,NA,NA,NA,left,1707.30000001192,true,NA,NA,NA,NA,NA
LbJiIT8Y,3t2hw4qdvykwn81ckpslwayk1hg9co,3zgvpd4g6xuu20ju1bmcnsw96ofztg,LbJiIT8Y,2020-0188,2021-10-14,09:45:47,11:08:08,NA,incomplete,true,true,NA,0,23,NA,gray,m_l_092.jpg,NA,NA,pleasant,unpleasant,NA,NA,NA,NA,NA,left,1517.69999998808,true,NA,NA,NA,NA,NA
LbJiIT8Y,3t2hw4qdvykwn81ckpslwayk1hg9co,3zgvpd4g6xuu20ju1bmcnsw96ofztg,LbJiIT8Y,2020-0188,2021-10-14,09:45:47,11:08:08,NA,incomplete,true,true,NA,0,24,NA,green,n_s_078.jpg,NA,NA,unpleasant,pleasant,NA,NA,NA,NA,NA,right,1962.30000001192,true,NA,NA,NA,NA,NA
LbJiIT8Y,3t2hw4qdvykwn81ckpslwayk1hg9co,3zgvpd4g6xuu20ju1bmcnsw96ofztg,LbJiIT8Y,2020-0188,2021-10-14,09:45:47,11:08:08,NA,incomplete,true,true,NA,0,25,NA,green,m_s_005.jpg,NA,NA,unpleasant,pleasant,NA,NA,NA,NA,NA,right,1447,true,NA,NA,NA,NA,NA
LbJiIT8Y,3t2hw4qdvykwn81ckpslwayk1hg9co,3zgvpd4g6xuu20ju1bmcnsw96ofztg,LbJiIT8Y,2020-0188,2021-10-14,09:45:47,11:08:08,NA,incomplete,true,true,NA,0,26,NA,green,n_l_055.jpg,NA,NA,pleasant,unpleasant,NA,NA,NA,NA,NA,right,1425.90000003576,true,NA,NA,NA,NA,NA
LbJiIT8Y,3t2hw4qdvykwn81ckpslwayk1hg9co,3zgvpd4g6xuu20ju1bmcnsw96ofztg,LbJiIT8Y,2020-0188,2021-10-14,09:45:47,11:08:08,NA,incomplete,true,true,NA,0,27,NA,green,n_s_090.jpg,NA,NA,pleasant,unpleasant,NA,NA,NA,NA,NA,left,1414.10000002384,true,NA,NA,NA,NA,NA
LbJiIT8Y,3t2hw4qdvykwn81ckpslwayk1hg9co,3zgvpd4g6xuu20ju1bmcnsw96ofztg,LbJiIT8Y,2020-0188,2021-10-14,09:45:47,11:08:08,NA,incomplete,true,true,NA,0,28,NA,green,m_s_055.jpg,NA,NA,pleasant,unpleasant,NA,NA,NA,NA,NA,right,2173.19999998808,true,NA,NA,NA,NA,NA
LbJiIT8Y,3t2hw4qdvykwn81ckpslwayk1hg9co,3zgvpd4g6xuu20ju1bmcnsw96ofztg,LbJiIT8Y,2020-0188,2021-10-14,09:45:47,11:08:08,NA,incomplete,true,true,NA,0,29,NA,green,m_l_034.jpg,NA,NA,unpleasant,pleasant,NA,NA,NA,NA,NA,right,1131.69999998808,true,NA,NA,NA,NA,NA
LbJiIT8Y,3t2hw4qdvykwn81ckpslwayk1hg9co,3zgvpd4g6xuu20ju1bmcnsw96ofztg,LbJiIT8Y,2020-0188,2021-10-14,09:45:47,11:08:08,NA,incomplete,true,true,NA,0,30,NA,purple,m_l_010.jpg,NA,NA,pleasant,unpleasant,NA,NA,NA,NA,NA,left,1577.39999997616,true,NA,NA,NA,NA,NA
LbJiIT8Y,3t2hw4qdvykwn81ckpslwayk1hg9co,3zgvpd4g6xuu20ju1bmcnsw96ofztg,LbJiIT8Y,2020-0188,2021-10-14,09:45:47,11:08:08,NA,incomplete,true,true,NA,0,31,NA,purple,m_l_016.jpg,NA,NA,unpleasant,pleasant,NA,NA,NA,NA,NA,right,1733.79999995232,true,NA,NA,NA,NA,NA
LbJiIT8Y,3t2hw4qdvykwn81ckpslwayk1hg9co,3zgvpd4g6xuu20ju1bmcnsw96ofztg,LbJiIT8Y,2020-0188,2021-10-14,09:45:47,11:08:08,NA,incomplete,true,true,NA,0,32,NA,purple,n_s_116.jpg,NA,NA,unpleasant,pleasant,NA,NA,NA,NA,NA,left,2353.10000002384,true,NA,NA,NA,NA,NA
LbJiIT8Y,3t2hw4qdvykwn81ckpslwayk1hg9co,3zgvpd4g6xuu20ju1bmcnsw96ofztg,LbJiIT8Y,2020-0188,2021-10-14,09:45:47,11:08:08,NA,incomplete,true,true,NA,0,33,NA,purple,m_l_038.jpg,NA,NA,unpleasant,pleasant,NA,NA,NA,NA,NA,left,2492,true,NA,NA,NA,NA,NA
LbJiIT8Y,3t2hw4qdvykwn81ckpslwayk1hg9co,3zgvpd4g6xuu20ju1bmcnsw96ofztg,LbJiIT8Y,2020-0188,2021-10-14,09:45:47,11:08:08,NA,incomplete,true,true,NA,0,34,NA,purple,m_s_037.jpg,NA,NA,unpleasant,pleasant,NA,NA,NA,NA,NA,right,1520.39999997616,true,NA,NA,NA,NA,NA
LbJiIT8Y,3t2hw4qdvykwn81ckpslwayk1hg9co,3zgvpd4g6xuu20ju1bmcnsw96ofztg,LbJiIT8Y,2020-0188,2021-10-14,09:45:47,11:08:08,NA,incomplete,true,true,NA,0,35,NA,purple,m_l_049.jpg,NA,NA,unpleasant,pleasant,NA,NA,NA,NA,NA,right,1696.59999996424,true,NA,NA,NA,NA,NA
LbJiIT8Y,3t2hw4qdvykwn81ckpslwayk1hg9co,3zgvpd4g6xuu20ju1bmcnsw96ofztg,LbJiIT8Y,2020-0188,2021-10-14,09:45:47,11:08:08,NA,incomplete,true,NA,true,0,0,NA,NA,NA,left,present,NA,NA,m_s_115.jpg,gray,n_l_055.jpg,green,between,NA,NaN,NA,left,2710.899999976158,1,2,3991.300000011921
LbJiIT8Y,3t2hw4qdvykwn81ckpslwayk1hg9co,3zgvpd4g6xuu20ju1bmcnsw96ofztg,LbJiIT8Y,2020-0188,2021-10-14,09:45:47,11:08:08,NA,incomplete,true,NA,true,0,1,NA,NA,NA,left,absent,NA,NA,n_l_085.jpg,gray,m_l_092.jpg,gray,within,NA,NaN,NA,left,2255.600000023842,1,2,3719.300000011921
LbJiIT8Y,3t2hw4qdvykwn81ckpslwayk1hg9co,3zgvpd4g6xuu20ju1bmcnsw96ofztg,LbJiIT8Y,2020-0188,2021-10-14,09:45:47,11:08:08,NA,incomplete,true,NA,true,0,2,NA,NA,NA,left,present,NA,NA,m_s_098.jpg,red,m_s_117.jpg,red,within,NA,NaN,NA,left,2007.199999988079,1,1,2687
LbJiIT8Y,3t2hw4qdvykwn81ckpslwayk1hg9co,3zgvpd4g6xuu20ju1bmcnsw96ofztg,LbJiIT8Y,2020-0188,2021-10-14,09:45:47,11:08:08,NA,incomplete,true,NA,true,0,3,NA,NA,NA,right,present,NA,NA,m_s_079.jpg,black,m_l_039.jpg,brown,between,NA,NaN,NA,left,2071.2000000476837,0,2,2719.199999988079
LbJiIT8Y,3t2hw4qdvykwn81ckpslwayk1hg9co,3zgvpd4g6xuu20ju1bmcnsw96ofztg,LbJiIT8Y,2020-0188,2021-10-14,09:45:47,11:08:08,NA,incomplete,true,NA,true,0,4,NA,NA,NA,right,present,NA,NA,m_l_089.jpg,brown,m_l_090.jpg,red,between,NA,NaN,NA,right,4095.199999988079,1,1,1551.4000000357628
LbJiIT8Y,3t2hw4qdvykwn81ckpslwayk1hg9co,3zgvpd4g6xuu20ju1bmcnsw96ofztg,LbJiIT8Y,2020-0188,2021-10-14,09:45:47,11:08:08,NA,incomplete,true,NA,true,0,5,NA,NA,NA,right,present,NA,NA,n_s_116.jpg,purple,m_s_055.jpg,green,between,NA,NaN,NA,right,2127.300000011921,1,1,1439.0999999642372
LbJiIT8Y,3t2hw4qdvykwn81ckpslwayk1hg9co,3zgvpd4g6xuu20ju1bmcnsw96ofztg,LbJiIT8Y,2020-0188,2021-10-14,09:45:47,11:08:08,NA,incomplete,true,NA,true,0,6,NA,NA,NA,left,present,NA,NA,m_l_040.jpg,black,n_l_047.jpg,black,within,NA,NaN,NA,left,2391.199999988079,1,2,1135.300000011921
LbJiIT8Y,3t2hw4qdvykwn81ckpslwayk1hg9co,3zgvpd4g6xuu20ju1bmcnsw96ofztg,LbJiIT8Y,2020-0188,2021-10-14,09:45:47,11:08:08,NA,incomplete,true,NA,true,0,7,NA,NA,NA,left,absent,NA,NA,m_s_036.jpg,brown,m_l_108.jpg,brown,within,NA,NaN,NA,left,2727.199999988079,1,1,999.3000000119209
LbJiIT8Y,3t2hw4qdvykwn81ckpslwayk1hg9co,3zgvpd4g6xuu20ju1bmcnsw96ofztg,LbJiIT8Y,2020-0188,2021-10-14,09:45:47,11:08:08,NA,incomplete,true,NA,true,0,8,NA,NA,NA,right,absent,NA,NA,n_s_064.jpg,gray,m_l_050.jpg,black,between,NA,NaN,NA,right,1600.300000011921,1,2,1623.1000000238419
LbJiIT8Y,3t2hw4qdvykwn81ckpslwayk1hg9co,3zgvpd4g6xuu20ju1bmcnsw96ofztg,LbJiIT8Y,2020-0188,2021-10-14,09:45:47,11:08:08,NA,incomplete,true,NA,true,0,9,NA,NA,NA,left,absent,NA,NA,m_s_005.jpg,green,m_l_034.jpg,green,within,NA,NaN,NA,right,3407.400000035763,0,2,1430.699999988079
LbJiIT8Y,3t2hw4qdvykwn81ckpslwayk1hg9co,3zgvpd4g6xuu20ju1bmcnsw96ofztg,LbJiIT8Y,2020-0188,2021-10-14,09:45:47,11:08:08,NA,incomplete,true,NA,true,0,10,NA,NA,NA,left,present,NA,NA,m_l_016.jpg,purple,m_l_049.jpg,purple,within,NA,NaN,NA,left,3559,1,1,799.4000000357628
LbJiIT8Y,3t2hw4qdvykwn81ckpslwayk1hg9co,3zgvpd4g6xuu20ju1bmcnsw96ofztg,LbJiIT8Y,2020-0188,2021-10-14,09:45:47,11:08:08,NA,incomplete,false,true,NA,1,0,NA,black,m_l_067.jpg,NA,NA,unpleasant,pleasant,NA,NA,NA,NA,NA,right,2436.5,true,NA,NA,NA,NA,NA
LbJiIT8Y,3t2hw4qdvykwn81ckpslwayk1hg9co,3zgvpd4g6xuu20ju1bmcnsw96ofztg,LbJiIT8Y,2020-0188,2021-10-14,09:45:47,11:08:08,NA,incomplete,false,true,NA,1,1,NA,black,n_s_047.jpg,NA,NA,pleasant,unpleasant,NA,NA,NA,NA,NA,right,1994.89999997616,true,NA,NA,NA,NA,NA
LbJiIT8Y,3t2hw4qdvykwn81ckpslwayk1hg9co,3zgvpd4g6xuu20ju1bmcnsw96ofztg,LbJiIT8Y,2020-0188,2021-10-14,09:45:47,11:08:08,NA,incomplete,false,true,NA,1,2,NA,black,n_l_070.jpg,NA,NA,unpleasant,pleasant,NA,NA,NA,NA,NA,right,1375,true,NA,NA,NA,NA,NA
LbJiIT8Y,3t2hw4qdvykwn81ckpslwayk1hg9co,3zgvpd4g6xuu20ju1bmcnsw96ofztg,LbJiIT8Y,2020-0188,2021-10-14,09:45:47,11:08:08,NA,incomplete,false,true,NA,1,3,NA,black,m_s_093.jpg,NA,NA,unpleasant,pleasant,NA,NA,NA,NA,NA,right,1302.80000001192,true,NA,NA,NA,NA,NA
LbJiIT8Y,3t2hw4qdvykwn81ckpslwayk1hg9co,3zgvpd4g6xuu20ju1bmcnsw96ofztg,LbJiIT8Y,2020-0188,2021-10-14,09:45:47,11:08:08,NA,incomplete,false,true,NA,1,4,NA,black,n_l_079.jpg,NA,NA,unpleasant,pleasant,NA,NA,NA,NA,NA,right,1251.60000002384,true,NA,NA,NA,NA,NA
LbJiIT8Y,3t2hw4qdvykwn81ckpslwayk1hg9co,3zgvpd4g6xuu20ju1bmcnsw96ofztg,LbJiIT8Y,2020-0188,2021-10-14,09:45:47,11:08:08,NA,incomplete,false,true,NA,1,5,NA,black,n_s_031.jpg,NA,NA,pleasant,unpleasant,NA,NA,NA,NA,NA,left,1007,true,NA,NA,NA,NA,NA
LbJiIT8Y,3t2hw4qdvykwn81ckpslwayk1hg9co,3zgvpd4g6xuu20ju1bmcnsw96ofztg,LbJiIT8Y,2020-0188,2021-10-14,09:45:47,11:08:08,NA,incomplete,false,true,NA,1,6,NA,blue,n_l_015.jpg,NA,NA,pleasant,unpleasant,NA,NA,NA,NA,NA,left,1400.79999995232,true,NA,NA,NA,NA,NA
LbJiIT8Y,3t2hw4qdvykwn81ckpslwayk1hg9co,3zgvpd4g6xuu20ju1bmcnsw96ofztg,LbJiIT8Y,2020-0188,2021-10-14,09:45:47,11:08:08,NA,incomplete,false,true,NA,1,7,NA,blue,n_s_032.jpg,NA,NA,unpleasant,pleasant,NA,NA,NA,NA,NA,right,1063.69999998808,true,NA,NA,NA,NA,NA
LbJiIT8Y,3t2hw4qdvykwn81ckpslwayk1hg9co,3zgvpd4g6xuu20ju1bmcnsw96ofztg,LbJiIT8Y,2020-0188,2021-10-14,09:45:47,11:08:08,NA,incomplete,false,true,NA,1,8,NA,blue,m_s_068.jpg,NA,NA,unpleasant,pleasant,NA,NA,NA,NA,NA,right,1477.30000001192,true,NA,NA,NA,NA,NA
LbJiIT8Y,3t2hw4qdvykwn81ckpslwayk1hg9co,3zgvpd4g6xuu20ju1bmcnsw96ofztg,LbJiIT8Y,2020-0188,2021-10-14,09:45:47,11:08:08,NA,incomplete,false,true,NA,1,9,NA,blue,m_s_004.jpg,NA,NA,pleasant,unpleasant,NA,NA,NA,NA,NA,left,1849.80000001192,true,NA,NA,NA,NA,NA
LbJiIT8Y,3t2hw4qdvykwn81ckpslwayk1hg9co,3zgvpd4g6xuu20ju1bmcnsw96ofztg,LbJiIT8Y,2020-0188,2021-10-14,09:45:47,11:08:08,NA,incomplete,false,true,NA,1,10,NA,blue,m_s_101.jpg,NA,NA,pleasant,unpleasant,NA,NA,NA,NA,NA,right,1688.29999995232,true,NA,NA,NA,NA,NA
LbJiIT8Y,3t2hw4qdvykwn81ckpslwayk1hg9co,3zgvpd4g6xuu20ju1bmcnsw96ofztg,LbJiIT8Y,2020-0188,2021-10-14,09:45:47,11:08:08,NA,incomplete,false,true,NA,1,11,NA,blue,m_l_013.jpg,NA,NA,pleasant,unpleasant,NA,NA,NA,NA,NA,left,1308,true,NA,NA,NA,NA,NA
LbJiIT8Y,3t2hw4qdvykwn81ckpslwayk1hg9co,3zgvpd4g6xuu20ju1bmcnsw96ofztg,LbJiIT8Y,2020-0188,2021-10-14,09:45:47,11:08:08,NA,incomplete,false,true,NA,1,12,NA,white,n_l_114.jpg,NA,NA,unpleasant,pleasant,NA,NA,NA,NA,NA,right,1160.30000001192,true,NA,NA,NA,NA,NA
LbJiIT8Y,3t2hw4qdvykwn81ckpslwayk1hg9co,3zgvpd4g6xuu20ju1bmcnsw96ofztg,LbJiIT8Y,2020-0188,2021-10-14,09:45:47,11:08:08,NA,incomplete,false,true,NA,1,13,NA,white,m_l_102.jpg,NA,NA,pleasant,unpleasant,NA,NA,NA,NA,NA,left,1522.39999997616,true,NA,NA,NA,NA,NA
LbJiIT8Y,3t2hw4qdvykwn81ckpslwayk1hg9co,3zgvpd4g6xuu20ju1bmcnsw96ofztg,LbJiIT8Y,2020-0188,2021-10-14,09:45:47,11:08:08,NA,incomplete,false,true,NA,1,14,NA,white,n_s_077.jpg,NA,NA,pleasant,unpleasant,NA,NA,NA,NA,NA,left,1482.69999998808,true,NA,NA,NA,NA,NA
LbJiIT8Y,3t2hw4qdvykwn81ckpslwayk1hg9co,3zgvpd4g6xuu20ju1bmcnsw96ofztg,LbJiIT8Y,2020-0188,2021-10-14,09:45:47,11:08:08,NA,incomplete,false,true,NA,1,15,NA,white,n_l_040.jpg,NA,NA,pleasant,unpleasant,NA,NA,NA,NA,NA,left,1492.19999998808,true,NA,NA,NA,NA,NA
LbJiIT8Y,3t2hw4qdvykwn81ckpslwayk1hg9co,3zgvpd4g6xuu20ju1bmcnsw96ofztg,LbJiIT8Y,2020-0188,2021-10-14,09:45:47,11:08:08,NA,incomplete,false,true,NA,1,16,NA,white,m_s_045.jpg,NA,NA,pleasant,unpleasant,NA,NA,NA,NA,NA,left,1934.70000004768,true,NA,NA,NA,NA,NA
LbJiIT8Y,3t2hw4qdvykwn81ckpslwayk1hg9co,3zgvpd4g6xuu20ju1bmcnsw96ofztg,LbJiIT8Y,2020-0188,2021-10-14,09:45:47,11:08:08,NA,incomplete,false,true,NA,1,17,NA,white,n_l_063.jpg,NA,NA,unpleasant,pleasant,NA,NA,NA,NA,NA,left,2436.5,true,NA,NA,NA,NA,NA
LbJiIT8Y,3t2hw4qdvykwn81ckpslwayk1hg9co,3zgvpd4g6xuu20ju1bmcnsw96ofztg,LbJiIT8Y,2020-0188,2021-10-14,09:45:47,11:08:08,NA,incomplete,false,true,NA,1,18,NA,purple,m_l_116.jpg,NA,NA,pleasant,unpleasant,NA,NA,NA,NA,NA,left,1791.80000001192,true,NA,NA,NA,NA,NA
LbJiIT8Y,3t2hw4qdvykwn81ckpslwayk1hg9co,3zgvpd4g6xuu20ju1bmcnsw96ofztg,LbJiIT8Y,2020-0188,2021-10-14,09:45:47,11:08:08,NA,incomplete,false,true,NA,1,19,NA,purple,n_s_004.jpg,NA,NA,unpleasant,pleasant,NA,NA,NA,NA,NA,left,1703.19999998808,true,NA,NA,NA,NA,NA
LbJiIT8Y,3t2hw4qdvykwn81ckpslwayk1hg9co,3zgvpd4g6xuu20ju1bmcnsw96ofztg,LbJiIT8Y,2020-0188,2021-10-14,09:45:47,11:08:08,NA,incomplete,false,true,NA,1,20,NA,purple,n_l_109.jpg,NA,NA,unpleasant,pleasant,NA,NA,NA,NA,NA,left,1929.69999998808,true,NA,NA,NA,NA,NA
LbJiIT8Y,3t2hw4qdvykwn81ckpslwayk1hg9co,3zgvpd4g6xuu20ju1bmcnsw96ofztg,LbJiIT8Y,2020-0188,2021-10-14,09:45:47,11:08:08,NA,incomplete,false,true,NA,1,21,NA,purple,n_s_086.jpg,NA,NA,unpleasant,pleasant,NA,NA,NA,NA,NA,left,1820.69999998808,true,NA,NA,NA,NA,NA
LbJiIT8Y,3t2hw4qdvykwn81ckpslwayk1hg9co,3zgvpd4g6xuu20ju1bmcnsw96ofztg,LbJiIT8Y,2020-0188,2021-10-14,09:45:47,11:08:08,NA,incomplete,false,true,NA,1,22,NA,purple,m_s_010.jpg,NA,NA,pleasant,unpleasant,NA,NA,NA,NA,NA,left,1908.29999995232,true,NA,NA,NA,NA,NA
LbJiIT8Y,3t2hw4qdvykwn81ckpslwayk1hg9co,3zgvpd4g6xuu20ju1bmcnsw96ofztg,LbJiIT8Y,2020-0188,2021-10-14,09:45:47,11:08:08,NA,incomplete,false,true,NA,1,23,NA,purple,n_l_041.jpg,NA,NA,pleasant,unpleasant,NA,NA,NA,NA,NA,right,1382,true,NA,NA,NA,NA,NA
LbJiIT8Y,3t2hw4qdvykwn81ckpslwayk1hg9co,3zgvpd4g6xuu20ju1bmcnsw96ofztg,LbJiIT8Y,2020-0188,2021-10-14,09:45:47,11:08:08,NA,incomplete,false,true,NA,1,24,NA,green,m_l_014.jpg,NA,NA,unpleasant,pleasant,NA,NA,NA,NA,NA,right,2203.80000001192,true,NA,NA,NA,NA,NA
LbJiIT8Y,3t2hw4qdvykwn81ckpslwayk1hg9co,3zgvpd4g6xuu20ju1bmcnsw96ofztg,LbJiIT8Y,2020-0188,2021-10-14,09:45:47,11:08:08,NA,incomplete,false,true,NA,1,25,NA,green,m_s_113.jpg,NA,NA,pleasant,unpleasant,NA,NA,NA,NA,NA,left,1616.09999996424,true,NA,NA,NA,NA,NA
LbJiIT8Y,3t2hw4qdvykwn81ckpslwayk1hg9co,3zgvpd4g6xuu20ju1bmcnsw96ofztg,LbJiIT8Y,2020-0188,2021-10-14,09:45:47,11:08:08,NA,incomplete,false,true,NA,1,26,NA,green,n_l_066.jpg,NA,NA,unpleasant,pleasant,NA,NA,NA,NA,NA,left,1503.29999995232,true,NA,NA,NA,NA,NA
LbJiIT8Y,3t2hw4qdvykwn81ckpslwayk1hg9co,3zgvpd4g6xuu20ju1bmcnsw96ofztg,LbJiIT8Y,2020-0188,2021-10-14,09:45:47,11:08:08,NA,incomplete,false,true,NA,1,27,NA,green,m_l_062.jpg,NA,NA,unpleasant,pleasant,NA,NA,NA,NA,NA,right,1717.19999998808,true,NA,NA,NA,NA,NA
LbJiIT8Y,3t2hw4qdvykwn81ckpslwayk1hg9co,3zgvpd4g6xuu20ju1bmcnsw96ofztg,LbJiIT8Y,2020-0188,2021-10-14,09:45:47,11:08:08,NA,incomplete,false,true,NA,1,28,NA,green,n_s_011.jpg,NA,NA,pleasant,unpleasant,NA,NA,NA,NA,NA,left,1555.39999997616,true,NA,NA,NA,NA,NA
LbJiIT8Y,3t2hw4qdvykwn81ckpslwayk1hg9co,3zgvpd4g6xuu20ju1bmcnsw96ofztg,LbJiIT8Y,2020-0188,2021-10-14,09:45:47,11:08:08,NA,incomplete,false,true,NA,1,29,NA,green,m_l_006.jpg,NA,NA,unpleasant,pleasant,NA,NA,NA,NA,NA,right,1520.59999996424,true,NA,NA,NA,NA,NA
LbJiIT8Y,3t2hw4qdvykwn81ckpslwayk1hg9co,3zgvpd4g6xuu20ju1bmcnsw96ofztg,LbJiIT8Y,2020-0188,2021-10-14,09:45:47,11:08:08,NA,incomplete,false,true,NA,1,30,NA,yellow,m_l_076.jpg,NA,NA,unpleasant,pleasant,NA,NA,NA,NA,NA,right,1924.89999997616,true,NA,NA,NA,NA,NA
LbJiIT8Y,3t2hw4qdvykwn81ckpslwayk1hg9co,3zgvpd4g6xuu20ju1bmcnsw96ofztg,LbJiIT8Y,2020-0188,2021-10-14,09:45:47,11:08:08,NA,incomplete,false,true,NA,1,31,NA,yellow,m_l_037.jpg,NA,NA,unpleasant,pleasant,NA,NA,NA,NA,NA,right,2375,true,NA,NA,NA,NA,NA
LbJiIT8Y,3t2hw4qdvykwn81ckpslwayk1hg9co,3zgvpd4g6xuu20ju1bmcnsw96ofztg,LbJiIT8Y,2020-0188,2021-10-14,09:45:47,11:08:08,NA,incomplete,false,true,NA,1,32,NA,yellow,m_s_058.jpg,NA,NA,pleasant,unpleasant,NA,NA,NA,NA,NA,left,1688.30000001192,true,NA,NA,NA,NA,NA
LbJiIT8Y,3t2hw4qdvykwn81ckpslwayk1hg9co,3zgvpd4g6xuu20ju1bmcnsw96ofztg,LbJiIT8Y,2020-0188,2021-10-14,09:45:47,11:08:08,NA,incomplete,false,true,NA,1,33,NA,yellow,n_s_057.jpg,NA,NA,pleasant,unpleasant,NA,NA,NA,NA,NA,right,2253.19999998808,true,NA,NA,NA,NA,NA
LbJiIT8Y,3t2hw4qdvykwn81ckpslwayk1hg9co,3zgvpd4g6xuu20ju1bmcnsw96ofztg,LbJiIT8Y,2020-0188,2021-10-14,09:45:47,11:08:08,NA,incomplete,false,true,NA,1,34,NA,yellow,n_s_097.jpg,NA,NA,unpleasant,pleasant,NA,NA,NA,NA,NA,right,1680.89999997616,true,NA,NA,NA,NA,NA
LbJiIT8Y,3t2hw4qdvykwn81ckpslwayk1hg9co,3zgvpd4g6xuu20ju1bmcnsw96ofztg,LbJiIT8Y,2020-0188,2021-10-14,09:45:47,11:08:08,NA,incomplete,false,true,NA,1,35,NA,yellow,n_l_097.jpg,NA,NA,unpleasant,pleasant,NA,NA,NA,NA,NA,right,1843.39999997616,true,NA,NA,NA,NA,NA
LbJiIT8Y,3t2hw4qdvykwn81ckpslwayk1hg9co,3zgvpd4g6xuu20ju1bmcnsw96ofztg,LbJiIT8Y,2020-0188,2021-10-14,09:45:47,11:08:08,NA,incomplete,false,NA,true,1,0,NA,NA,NA,left,absent,NA,NA,n_s_011.jpg,green,m_s_058.jpg,yellow,between,NA,NaN,NA,left,2142.800000011921,1,1,1551.199999988079
LbJiIT8Y,3t2hw4qdvykwn81ckpslwayk1hg9co,3zgvpd4g6xuu20ju1bmcnsw96ofztg,LbJiIT8Y,2020-0188,2021-10-14,09:45:47,11:08:08,NA,incomplete,false,NA,true,1,1,NA,NA,NA,left,absent,NA,NA,m_s_010.jpg,purple,n_l_066.jpg,green,between,NA,NaN,NA,left,4311.5,1,2,991.1999999880791
LbJiIT8Y,3t2hw4qdvykwn81ckpslwayk1hg9co,3zgvpd4g6xuu20ju1bmcnsw96ofztg,LbJiIT8Y,2020-0188,2021-10-14,09:45:47,11:08:08,NA,incomplete,false,NA,true,1,2,NA,NA,NA,left,absent,NA,NA,m_l_037.jpg,yellow,n_l_097.jpg,yellow,within,NA,NaN,NA,left,2239.300000011921,1,1,1023.3999999761581
LbJiIT8Y,3t2hw4qdvykwn81ckpslwayk1hg9co,3zgvpd4g6xuu20ju1bmcnsw96ofztg,LbJiIT8Y,2020-0188,2021-10-14,09:45:47,11:08:08,NA,incomplete,false,NA,true,1,3,NA,NA,NA,left,absent,NA,NA,m_s_113.jpg,green,m_l_006.jpg,green,within,NA,NaN,NA,left,3647.400000035763,1,2,847.3000000119209
LbJiIT8Y,3t2hw4qdvykwn81ckpslwayk1hg9co,3zgvpd4g6xuu20ju1bmcnsw96ofztg,LbJiIT8Y,2020-0188,2021-10-14,09:45:47,11:08:08,NA,incomplete,false,NA,true,1,4,NA,NA,NA,left,absent,NA,NA,n_s_032.jpg,blue,m_l_013.jpg,blue,within,NA,NaN,NA,right,2391.300000011921,0,1,888.1000000238419
LbJiIT8Y,3t2hw4qdvykwn81ckpslwayk1hg9co,3zgvpd4g6xuu20ju1bmcnsw96ofztg,LbJiIT8Y,2020-0188,2021-10-14,09:45:47,11:08:08,NA,incomplete,false,NA,true,1,5,NA,NA,NA,left,absent,NA,NA,m_s_045.jpg,white,n_l_109.jpg,purple,between,NA,NaN,NA,left,1623.300000011921,1,2,951.1999999880791
LbJiIT8Y,3t2hw4qdvykwn81ckpslwayk1hg9co,3zgvpd4g6xuu20ju1bmcnsw96ofztg,LbJiIT8Y,2020-0188,2021-10-14,09:45:47,11:08:08,NA,incomplete,false,NA,true,1,6,NA,NA,NA,left,absent,NA,NA,n_s_004.jpg,purple,n_l_041.jpg,purple,within,NA,NaN,NA,left,1582.8999999761581,1,1,735.9000000357628
LbJiIT8Y,3t2hw4qdvykwn81ckpslwayk1hg9co,3zgvpd4g6xuu20ju1bmcnsw96ofztg,LbJiIT8Y,2020-0188,2021-10-14,09:45:47,11:08:08,NA,incomplete,false,NA,true,1,7,NA,NA,NA,left,absent,NA,NA,n_l_079.jpg,black,m_s_068.jpg,blue,between,NA,NaN,NA,left,3351.300000011921,1,1,2063
LbJiIT8Y,3t2hw4qdvykwn81ckpslwayk1hg9co,3zgvpd4g6xuu20ju1bmcnsw96ofztg,LbJiIT8Y,2020-0188,2021-10-14,09:45:47,11:08:08,NA,incomplete,false,NA,true,1,8,NA,NA,NA,left,absent,NA,NA,n_s_047.jpg,black,n_s_031.jpg,black,within,NA,NaN,NA,left,3719.199999988079,1,2,831.5
LbJiIT8Y,3t2hw4qdvykwn81ckpslwayk1hg9co,3zgvpd4g6xuu20ju1bmcnsw96ofztg,LbJiIT8Y,2020-0188,2021-10-14,09:45:47,11:08:08,NA,incomplete,false,NA,true,1,9,NA,NA,NA,left,absent,NA,NA,m_l_102.jpg,white,n_l_063.jpg,white,within,NA,NaN,NA,right,3471.300000011921,0,0,1687.3999999761581
LbJiIT8Y,3t2hw4qdvykwn81ckpslwayk1hg9co,3zgvpd4g6xuu20ju1bmcnsw96ofztg,LbJiIT8Y,2020-0188,2021-10-14,09:45:47,11:08:08,NA,incomplete,false,NA,true,1,10,NA,NA,NA,left,absent,NA,NA,m_s_101.jpg,blue,n_s_077.jpg,white,between,NA,NaN,NA,right,2087.5,0,1,1118.0999999642372
LbJiIT8Y,3t2hw4qdvykwn81ckpslwayk1hg9co,3zgvpd4g6xuu20ju1bmcnsw96ofztg,LbJiIT8Y,2020-0188,2021-10-14,09:45:47,11:08:08,NA,incomplete,false,true,NA,2,0,NA,yellow,m_l_012.jpg,NA,NA,unpleasant,pleasant,NA,NA,NA,NA,NA,right,1508.19999998808,true,NA,NA,NA,NA,NA
LbJiIT8Y,3t2hw4qdvykwn81ckpslwayk1hg9co,3zgvpd4g6xuu20ju1bmcnsw96ofztg,LbJiIT8Y,2020-0188,2021-10-14,09:45:47,11:08:08,NA,incomplete,false,true,NA,2,1,NA,yellow,m_l_071.jpg,NA,NA,pleasant,unpleasant,NA,NA,NA,NA,NA,right,1514.09999996424,true,NA,NA,NA,NA,NA
LbJiIT8Y,3t2hw4qdvykwn81ckpslwayk1hg9co,3zgvpd4g6xuu20ju1bmcnsw96ofztg,LbJiIT8Y,2020-0188,2021-10-14,09:45:47,11:08:08,NA,incomplete,false,true,NA,2,2,NA,yellow,n_s_042.jpg,NA,NA,unpleasant,pleasant,NA,NA,NA,NA,NA,left,1854.10000002384,true,NA,NA,NA,NA,NA
LbJiIT8Y,3t2hw4qdvykwn81ckpslwayk1hg9co,3zgvpd4g6xuu20ju1bmcnsw96ofztg,LbJiIT8Y,2020-0188,2021-10-14,09:45:47,11:08:08,NA,incomplete,false,true,NA,2,3,NA,yellow,m_s_075.jpg,NA,NA,pleasant,unpleasant,NA,NA,NA,NA,NA,left,1668.20000004768,true,NA,NA,NA,NA,NA
LbJiIT8Y,3t2hw4qdvykwn81ckpslwayk1hg9co,3zgvpd4g6xuu20ju1bmcnsw96ofztg,LbJiIT8Y,2020-0188,2021-10-14,09:45:47,11:08:08,NA,incomplete,false,true,NA,2,4,NA,yellow,n_s_048.jpg,NA,NA,unpleasant,pleasant,NA,NA,NA,NA,NA,right,2110.30000001192,true,NA,NA,NA,NA,NA
LbJiIT8Y,3t2hw4qdvykwn81ckpslwayk1hg9co,3zgvpd4g6xuu20ju1bmcnsw96ofztg,LbJiIT8Y,2020-0188,2021-10-14,09:45:47,11:08:08,NA,incomplete,false,true,NA,2,5,NA,yellow,n_s_074.jpg,NA,NA,pleasant,unpleasant,NA,NA,NA,NA,NA,left,1598.5,true,NA,NA,NA,NA,NA
LbJiIT8Y,3t2hw4qdvykwn81ckpslwayk1hg9co,3zgvpd4g6xuu20ju1bmcnsw96ofztg,LbJiIT8Y,2020-0188,2021-10-14,09:45:47,11:08:08,NA,incomplete,false,true,NA,2,6,NA,black,n_s_006.jpg,NA,NA,unpleasant,pleasant,NA,NA,NA,NA,NA,right,1378.10000002384,true,NA,NA,NA,NA,NA
LbJiIT8Y,3t2hw4qdvykwn81ckpslwayk1hg9co,3zgvpd4g6xuu20ju1bmcnsw96ofztg,LbJiIT8Y,2020-0188,2021-10-14,09:45:47,11:08:08,NA,incomplete,false,true,NA,2,7,NA,black,m_l_086.jpg,NA,NA,pleasant,unpleasant,NA,NA,NA,NA,NA,left,1691.30000001192,true,NA,NA,NA,NA,NA
LbJiIT8Y,3t2hw4qdvykwn81ckpslwayk1hg9co,3zgvpd4g6xuu20ju1bmcnsw96ofztg,LbJiIT8Y,2020-0188,2021-10-14,09:45:47,11:08:08,NA,incomplete,false,true,NA,2,8,NA,black,m_l_019.jpg,NA,NA,pleasant,unpleasant,NA,NA,NA,NA,NA,left,1592.89999997616,true,NA,NA,NA,NA,NA
LbJiIT8Y,3t2hw4qdvykwn81ckpslwayk1hg9co,3zgvpd4g6xuu20ju1bmcnsw96ofztg,LbJiIT8Y,2020-0188,2021-10-14,09:45:47,11:08:08,NA,incomplete,false,true,NA,2,9,NA,black,n_s_104.jpg,NA,NA,unpleasant,pleasant,NA,NA,NA,NA,NA,right,1389.5,true,NA,NA,NA,NA,NA
LbJiIT8Y,3t2hw4qdvykwn81ckpslwayk1hg9co,3zgvpd4g6xuu20ju1bmcnsw96ofztg,LbJiIT8Y,2020-0188,2021-10-14,09:45:47,11:08:08,NA,incomplete,false,true,NA,2,10,NA,black,n_l_052.jpg,NA,NA,unpleasant,pleasant,NA,NA,NA,NA,NA,right,1715.5,true,NA,NA,NA,NA,NA
LbJiIT8Y,3t2hw4qdvykwn81ckpslwayk1hg9co,3zgvpd4g6xuu20ju1bmcnsw96ofztg,LbJiIT8Y,2020-0188,2021-10-14,09:45:47,11:08:08,NA,incomplete,false,true,NA,2,11,NA,black,n_s_102.jpg,NA,NA,unpleasant,pleasant,NA,NA,NA,NA,NA,right,1644.70000004768,true,NA,NA,NA,NA,NA
LbJiIT8Y,3t2hw4qdvykwn81ckpslwayk1hg9co,3zgvpd4g6xuu20ju1bmcnsw96ofztg,LbJiIT8Y,2020-0188,2021-10-14,09:45:47,11:08:08,NA,incomplete,false,true,NA,2,12,NA,brown,m_s_072.jpg,NA,NA,unpleasant,pleasant,NA,NA,NA,NA,NA,right,1850.60000002384,true,NA,NA,NA,NA,NA
LbJiIT8Y,3t2hw4qdvykwn81ckpslwayk1hg9co,3zgvpd4g6xuu20ju1bmcnsw96ofztg,LbJiIT8Y,2020-0188,2021-10-14,09:45:47,11:08:08,NA,incomplete,false,true,NA,2,13,NA,brown,n_l_050.jpg,NA,NA,pleasant,unpleasant,NA,NA,NA,NA,NA,left,1861.59999996424,true,NA,NA,NA,NA,NA
LbJiIT8Y,3t2hw4qdvykwn81ckpslwayk1hg9co,3zgvpd4g6xuu20ju1bmcnsw96ofztg,LbJiIT8Y,2020-0188,2021-10-14,09:45:47,11:08:08,NA,incomplete,false,true,NA,2,14,NA,brown,n_l_101.jpg,NA,NA,pleasant,unpleasant,NA,NA,NA,NA,NA,left,2652.90000003576,true,NA,NA,NA,NA,NA
LbJiIT8Y,3t2hw4qdvykwn81ckpslwayk1hg9co,3zgvpd4g6xuu20ju1bmcnsw96ofztg,LbJiIT8Y,2020-0188,2021-10-14,09:45:47,11:08:08,NA,incomplete,false,true,NA,2,15,NA,brown,n_s_037.jpg,NA,NA,unpleasant,pleasant,NA,NA,NA,NA,NA,right,2388.19999998808,true,NA,NA,NA,NA,NA
LbJiIT8Y,3t2hw4qdvykwn81ckpslwayk1hg9co,3zgvpd4g6xuu20ju1bmcnsw96ofztg,LbJiIT8Y,2020-0188,2021-10-14,09:45:47,11:08:08,NA,incomplete,false,true,NA,2,16,NA,brown,n_l_072.jpg,NA,NA,pleasant,unpleasant,NA,NA,NA,NA,NA,right,1503.89999997616,true,NA,NA,NA,NA,NA
LbJiIT8Y,3t2hw4qdvykwn81ckpslwayk1hg9co,3zgvpd4g6xuu20ju1bmcnsw96ofztg,LbJiIT8Y,2020-0188,2021-10-14,09:45:47,11:08:08,NA,incomplete,false,true,NA,2,17,NA,brown,n_s_041.jpg,NA,NA,pleasant,unpleasant,NA,NA,NA,NA,NA,left,1747.30000001192,true,NA,NA,NA,NA,NA
LbJiIT8Y,3t2hw4qdvykwn81ckpslwayk1hg9co,3zgvpd4g6xuu20ju1bmcnsw96ofztg,LbJiIT8Y,2020-0188,2021-10-14,09:45:47,11:08:08,NA,incomplete,false,true,NA,2,18,NA,orange,m_l_026.jpg,NA,NA,pleasant,unpleasant,NA,NA,NA,NA,NA,left,1362,true,NA,NA,NA,NA,NA
LbJiIT8Y,3t2hw4qdvykwn81ckpslwayk1hg9co,3zgvpd4g6xuu20ju1bmcnsw96ofztg,LbJiIT8Y,2020-0188,2021-10-14,09:45:47,11:08:08,NA,incomplete,false,true,NA,2,19,NA,orange,n_s_066.jpg,NA,NA,pleasant,unpleasant,NA,NA,NA,NA,NA,left,2035.80000001192,true,NA,NA,NA,NA,NA
LbJiIT8Y,3t2hw4qdvykwn81ckpslwayk1hg9co,3zgvpd4g6xuu20ju1bmcnsw96ofztg,LbJiIT8Y,2020-0188,2021-10-14,09:45:47,11:08:08,NA,incomplete,false,true,NA,2,20,NA,orange,n_s_017.jpg,NA,NA,pleasant,unpleasant,NA,NA,NA,NA,NA,right,1522,true,NA,NA,NA,NA,NA
LbJiIT8Y,3t2hw4qdvykwn81ckpslwayk1hg9co,3zgvpd4g6xuu20ju1bmcnsw96ofztg,LbJiIT8Y,2020-0188,2021-10-14,09:45:47,11:08:08,NA,incomplete,false,true,NA,2,21,NA,orange,m_s_067.jpg,NA,NA,unpleasant,pleasant,NA,NA,NA,NA,NA,right,1496,true,NA,NA,NA,NA,NA
LbJiIT8Y,3t2hw4qdvykwn81ckpslwayk1hg9co,3zgvpd4g6xuu20ju1bmcnsw96ofztg,LbJiIT8Y,2020-0188,2021-10-14,09:45:47,11:08:08,NA,incomplete,false,true,NA,2,22,NA,orange,n_s_027.jpg,NA,NA,pleasant,unpleasant,NA,NA,NA,NA,NA,right,1468.5,true,NA,NA,NA,NA,NA
LbJiIT8Y,3t2hw4qdvykwn81ckpslwayk1hg9co,3zgvpd4g6xuu20ju1bmcnsw96ofztg,LbJiIT8Y,2020-0188,2021-10-14,09:45:47,11:08:08,NA,incomplete,false,true,NA,2,23,NA,orange,n_l_023.jpg,NA,NA,unpleasant,pleasant,NA,NA,NA,NA,NA,right,1836.80000001192,true,NA,NA,NA,NA,NA
LbJiIT8Y,3t2hw4qdvykwn81ckpslwayk1hg9co,3zgvpd4g6xuu20ju1bmcnsw96ofztg,LbJiIT8Y,2020-0188,2021-10-14,09:45:47,11:08:08,NA,incomplete,false,true,NA,2,24,NA,gray,m_s_033.jpg,NA,NA,pleasant,unpleasant,NA,NA,NA,NA,NA,left,2006.40000003576,true,NA,NA,NA,NA,NA
LbJiIT8Y,3t2hw4qdvykwn81ckpslwayk1hg9co,3zgvpd4g6xuu20ju1bmcnsw96ofztg,LbJiIT8Y,2020-0188,2021-10-14,09:45:47,11:08:08,NA,incomplete,false,true,NA,2,25,NA,gray,m_s_100.jpg,NA,NA,unpleasant,pleasant,NA,NA,NA,NA,NA,right,1515.30000001192,true,NA,NA,NA,NA,NA
LbJiIT8Y,3t2hw4qdvykwn81ckpslwayk1hg9co,3zgvpd4g6xuu20ju1bmcnsw96ofztg,LbJiIT8Y,2020-0188,2021-10-14,09:45:47,11:08:08,NA,incomplete,false,true,NA,2,26,NA,gray,m_s_089.jpg,NA,NA,unpleasant,pleasant,NA,NA,NA,NA,NA,right,1599.5,true,NA,NA,NA,NA,NA
LbJiIT8Y,3t2hw4qdvykwn81ckpslwayk1hg9co,3zgvpd4g6xuu20ju1bmcnsw96ofztg,LbJiIT8Y,2020-0188,2021-10-14,09:45:47,11:08:08,NA,incomplete,false,true,NA,2,27,NA,gray,n_s_016.jpg,NA,NA,unpleasant,pleasant,NA,NA,NA,NA,NA,right,1841.19999998808,true,NA,NA,NA,NA,NA
LbJiIT8Y,3t2hw4qdvykwn81ckpslwayk1hg9co,3zgvpd4g6xuu20ju1bmcnsw96ofztg,LbJiIT8Y,2020-0188,2021-10-14,09:45:47,11:08:08,NA,incomplete,false,true,NA,2,28,NA,gray,n_s_005.jpg,NA,NA,pleasant,unpleasant,NA,NA,NA,NA,NA,left,1886.40000003576,true,NA,NA,NA,NA,NA
LbJiIT8Y,3t2hw4qdvykwn81ckpslwayk1hg9co,3zgvpd4g6xuu20ju1bmcnsw96ofztg,LbJiIT8Y,2020-0188,2021-10-14,09:45:47,11:08:08,NA,incomplete,false,true,NA,2,29,NA,gray,n_l_039.jpg,NA,NA,pleasant,unpleasant,NA,NA,NA,NA,NA,left,1407.80000001192,true,NA,NA,NA,NA,NA
LbJiIT8Y,3t2hw4qdvykwn81ckpslwayk1hg9co,3zgvpd4g6xuu20ju1bmcnsw96ofztg,LbJiIT8Y,2020-0188,2021-10-14,09:45:47,11:08:08,NA,incomplete,false,true,NA,2,30,NA,purple,n_l_083.jpg,NA,NA,pleasant,unpleasant,NA,NA,NA,NA,NA,left,1592.30000001192,true,NA,NA,NA,NA,NA
LbJiIT8Y,3t2hw4qdvykwn81ckpslwayk1hg9co,3zgvpd4g6xuu20ju1bmcnsw96ofztg,LbJiIT8Y,2020-0188,2021-10-14,09:45:47,11:08:08,NA,incomplete,false,true,NA,2,31,NA,purple,n_s_109.jpg,NA,NA,pleasant,unpleasant,NA,NA,NA,NA,NA,right,1940.70000004768,true,NA,NA,NA,NA,NA
LbJiIT8Y,3t2hw4qdvykwn81ckpslwayk1hg9co,3zgvpd4g6xuu20ju1bmcnsw96ofztg,LbJiIT8Y,2020-0188,2021-10-14,09:45:47,11:08:08,NA,incomplete,false,true,NA,2,32,NA,purple,m_l_094.jpg,NA,NA,unpleasant,pleasant,NA,NA,NA,NA,NA,right,1667.5,true,NA,NA,NA,NA,NA
LbJiIT8Y,3t2hw4qdvykwn81ckpslwayk1hg9co,3zgvpd4g6xuu20ju1bmcnsw96ofztg,LbJiIT8Y,2020-0188,2021-10-14,09:45:47,11:08:08,NA,incomplete,false,true,NA,2,33,NA,purple,n_s_049.jpg,NA,NA,pleasant,unpleasant,NA,NA,NA,NA,NA,right,1667,true,NA,NA,NA,NA,NA
LbJiIT8Y,3t2hw4qdvykwn81ckpslwayk1hg9co,3zgvpd4g6xuu20ju1bmcnsw96ofztg,LbJiIT8Y,2020-0188,2021-10-14,09:45:47,11:08:08,NA,incomplete,false,true,NA,2,34,NA,purple,m_l_058.jpg,NA,NA,pleasant,unpleasant,NA,NA,NA,NA,NA,left,1569.79999995232,true,NA,NA,NA,NA,NA
LbJiIT8Y,3t2hw4qdvykwn81ckpslwayk1hg9co,3zgvpd4g6xuu20ju1bmcnsw96ofztg,LbJiIT8Y,2020-0188,2021-10-14,09:45:47,11:08:08,NA,incomplete,false,true,NA,2,35,NA,purple,m_l_028.jpg,NA,NA,pleasant,unpleasant,NA,NA,NA,NA,NA,left,2548.40000003576,true,NA,NA,NA,NA,NA
LbJiIT8Y,3t2hw4qdvykwn81ckpslwayk1hg9co,3zgvpd4g6xuu20ju1bmcnsw96ofztg,LbJiIT8Y,2020-0188,2021-10-14,09:45:47,11:08:08,NA,incomplete,false,NA,true,2,0,NA,NA,NA,right,absent,NA,NA,n_l_101.jpg,brown,n_l_052.jpg,black,between,NA,NaN,NA,left,1990.5,0,1,951.3000000119209
LbJiIT8Y,3t2hw4qdvykwn81ckpslwayk1hg9co,3zgvpd4g6xuu20ju1bmcnsw96ofztg,LbJiIT8Y,2020-0188,2021-10-14,09:45:47,11:08:08,NA,incomplete,false,NA,true,2,1,NA,NA,NA,right,absent,NA,NA,n_l_039.jpg,gray,m_s_100.jpg,gray,within,NA,NaN,NA,right,2359,1,2,766.6999999880791
LbJiIT8Y,3t2hw4qdvykwn81ckpslwayk1hg9co,3zgvpd4g6xuu20ju1bmcnsw96ofztg,LbJiIT8Y,2020-0188,2021-10-14,09:45:47,11:08:08,NA,incomplete,false,NA,true,2,2,NA,NA,NA,right,absent,NA,NA,n_s_017.jpg,orange,n_l_072.jpg,brown,between,NA,NaN,NA,right,1543,1,2,833.8000000119209
LbJiIT8Y,3t2hw4qdvykwn81ckpslwayk1hg9co,3zgvpd4g6xuu20ju1bmcnsw96ofztg,LbJiIT8Y,2020-0188,2021-10-14,09:45:47,11:08:08,NA,incomplete,false,NA,true,2,3,NA,NA,NA,left,absent,NA,NA,n_s_109.jpg,purple,m_l_028.jpg,purple,within,NA,NaN,NA,left,2150.900000035763,1,1,1598.7999999523163
LbJiIT8Y,3t2hw4qdvykwn81ckpslwayk1hg9co,3zgvpd4g6xuu20ju1bmcnsw96ofztg,LbJiIT8Y,2020-0188,2021-10-14,09:45:47,11:08:08,NA,incomplete,false,NA,true,2,4,NA,NA,NA,right,absent,NA,NA,m_l_094.jpg,purple,n_s_005.jpg,gray,between,NA,NaN,NA,left,1974.800000011921,0,2,838.1999999880791
LbJiIT8Y,3t2hw4qdvykwn81ckpslwayk1hg9co,3zgvpd4g6xuu20ju1bmcnsw96ofztg,LbJiIT8Y,2020-0188,2021-10-14,09:45:47,11:08:08,NA,incomplete,false,NA,true,2,5,NA,NA,NA,right,absent,NA,NA,m_s_089.jpg,gray,n_s_027.jpg,orange,between,NA,NaN,NA,left,3911.399999976158,0,0,871.4000000357628
LbJiIT8Y,3t2hw4qdvykwn81ckpslwayk1hg9co,3zgvpd4g6xuu20ju1bmcnsw96ofztg,LbJiIT8Y,2020-0188,2021-10-14,09:45:47,11:08:08,NA,incomplete,false,NA,true,2,6,NA,NA,NA,right,absent,NA,NA,n_s_102.jpg,black,m_l_086.jpg,black,within,NA,NaN,NA,left,1775.5,0,1,767.3000000119209
LbJiIT8Y,3t2hw4qdvykwn81ckpslwayk1hg9co,3zgvpd4g6xuu20ju1bmcnsw96ofztg,LbJiIT8Y,2020-0188,2021-10-14,09:45:47,11:08:08,NA,incomplete,false,NA,true,2,7,NA,NA,NA,left,absent,NA,NA,n_s_048.jpg,yellow,m_l_019.jpg,black,between,NA,NaN,NA,right,1231.3999999761581,0,1,959.3000000119209
LbJiIT8Y,3t2hw4qdvykwn81ckpslwayk1hg9co,3zgvpd4g6xuu20ju1bmcnsw96ofztg,LbJiIT8Y,2020-0188,2021-10-14,09:45:47,11:08:08,NA,incomplete,false,NA,true,2,8,NA,NA,NA,right,absent,NA,NA,n_s_041.jpg,brown,n_l_050.jpg,brown,within,NA,NaN,NA,right,1719.300000011921,1,2,1311.300000011921
LbJiIT8Y,3t2hw4qdvykwn81ckpslwayk1hg9co,3zgvpd4g6xuu20ju1bmcnsw96ofztg,LbJiIT8Y,2020-0188,2021-10-14,09:45:47,11:08:08,NA,incomplete,false,NA,true,2,9,NA,NA,NA,right,absent,NA,NA,n_s_074.jpg,yellow,m_l_071.jpg,yellow,within,NA,NaN,NA,right,2159.5,1,1,1639.300000011921
LbJiIT8Y,3t2hw4qdvykwn81ckpslwayk1hg9co,3zgvpd4g6xuu20ju1bmcnsw96ofztg,LbJiIT8Y,2020-0188,2021-10-14,09:45:47,11:08:08,NA,incomplete,false,NA,true,2,10,NA,NA,NA,right,absent,NA,NA,n_l_023.jpg,orange,n_s_066.jpg,orange,within,NA,NaN,NA,right,2695.399999976158,1,1,671.1999999880791
LbJiIT8Y,3t2hw4qdvykwn81ckpslwayk1hg9co,3zgvpd4g6xuu20ju1bmcnsw96ofztg,LbJiIT8Y,2020-0188,2021-10-14,09:45:47,11:08:08,NA,incomplete,false,true,NA,3,0,NA,red,n_s_080.jpg,NA,NA,pleasant,unpleasant,NA,NA,NA,NA,NA,right,1851.60000002384,true,NA,NA,NA,NA,NA
LbJiIT8Y,3t2hw4qdvykwn81ckpslwayk1hg9co,3zgvpd4g6xuu20ju1bmcnsw96ofztg,LbJiIT8Y,2020-0188,2021-10-14,09:45:47,11:08:08,NA,incomplete,false,true,NA,3,1,NA,red,m_s_085.jpg,NA,NA,unpleasant,pleasant,NA,NA,NA,NA,NA,left,1579.39999997616,true,NA,NA,NA,NA,NA
LbJiIT8Y,3t2hw4qdvykwn81ckpslwayk1hg9co,3zgvpd4g6xuu20ju1bmcnsw96ofztg,LbJiIT8Y,2020-0188,2021-10-14,09:45:47,11:08:08,NA,incomplete,false,true,NA,3,2,NA,red,n_s_008.jpg,NA,NA,pleasant,unpleasant,NA,NA,NA,NA,NA,right,1506.30000001192,true,NA,NA,NA,NA,NA
LbJiIT8Y,3t2hw4qdvykwn81ckpslwayk1hg9co,3zgvpd4g6xuu20ju1bmcnsw96ofztg,LbJiIT8Y,2020-0188,2021-10-14,09:45:47,11:08:08,NA,incomplete,false,true,NA,3,3,NA,red,m_s_032.jpg,NA,NA,unpleasant,pleasant,NA,NA,NA,NA,NA,right,1769.60000002384,true,NA,NA,NA,NA,NA
LbJiIT8Y,3t2hw4qdvykwn81ckpslwayk1hg9co,3zgvpd4g6xuu20ju1bmcnsw96ofztg,LbJiIT8Y,2020-0188,2021-10-14,09:45:47,11:08:08,NA,incomplete,false,true,NA,3,4,NA,red,m_s_065.jpg,NA,NA,pleasant,unpleasant,NA,NA,NA,NA,NA,left,1567,true,NA,NA,NA,NA,NA
LbJiIT8Y,3t2hw4qdvykwn81ckpslwayk1hg9co,3zgvpd4g6xuu20ju1bmcnsw96ofztg,LbJiIT8Y,2020-0188,2021-10-14,09:45:47,11:08:08,NA,incomplete,false,true,NA,3,5,NA,red,m_l_088.jpg,NA,NA,pleasant,unpleasant,NA,NA,NA,NA,NA,left,1458,true,NA,NA,NA,NA,NA
LbJiIT8Y,3t2hw4qdvykwn81ckpslwayk1hg9co,3zgvpd4g6xuu20ju1bmcnsw96ofztg,LbJiIT8Y,2020-0188,2021-10-14,09:45:47,11:08:08,NA,incomplete,false,true,NA,3,6,NA,green,m_l_054.jpg,NA,NA,unpleasant,pleasant,NA,NA,NA,NA,NA,right,1430.30000001192,true,NA,NA,NA,NA,NA
LbJiIT8Y,3t2hw4qdvykwn81ckpslwayk1hg9co,3zgvpd4g6xuu20ju1bmcnsw96ofztg,LbJiIT8Y,2020-0188,2021-10-14,09:45:47,11:08:08,NA,incomplete,false,true,NA,3,7,NA,green,m_l_036.jpg,NA,NA,unpleasant,pleasant,NA,NA,NA,NA,NA,left,1551.09999996424,true,NA,NA,NA,NA,NA
LbJiIT8Y,3t2hw4qdvykwn81ckpslwayk1hg9co,3zgvpd4g6xuu20ju1bmcnsw96ofztg,LbJiIT8Y,2020-0188,2021-10-14,09:45:47,11:08:08,NA,incomplete,false,true,NA,3,8,NA,green,m_s_011.jpg,NA,NA,pleasant,unpleasant,NA,NA,NA,NA,NA,left,1745.90000003576,true,NA,NA,NA,NA,NA
LbJiIT8Y,3t2hw4qdvykwn81ckpslwayk1hg9co,3zgvpd4g6xuu20ju1bmcnsw96ofztg,LbJiIT8Y,2020-0188,2021-10-14,09:45:47,11:08:08,NA,incomplete,false,true,NA,3,9,NA,green,n_l_116.jpg,NA,NA,pleasant,unpleasant,NA,NA,NA,NA,NA,left,1736.40000003576,true,NA,NA,NA,NA,NA
LbJiIT8Y,3t2hw4qdvykwn81ckpslwayk1hg9co,3zgvpd4g6xuu20ju1bmcnsw96ofztg,LbJiIT8Y,2020-0188,2021-10-14,09:45:47,11:08:08,NA,incomplete,false,true,NA,3,10,NA,green,m_s_064.jpg,NA,NA,unpleasant,pleasant,NA,NA,NA,NA,NA,right,1559.79999995232,true,NA,NA,NA,NA,NA
LbJiIT8Y,3t2hw4qdvykwn81ckpslwayk1hg9co,3zgvpd4g6xuu20ju1bmcnsw96ofztg,LbJiIT8Y,2020-0188,2021-10-14,09:45:47,11:08:08,NA,incomplete,false,true,NA,3,11,NA,green,n_s_003.jpg,NA,NA,unpleasant,pleasant,NA,NA,NA,NA,NA,left,1822.59999996424,true,NA,NA,NA,NA,NA
LbJiIT8Y,3t2hw4qdvykwn81ckpslwayk1hg9co,3zgvpd4g6xuu20ju1bmcnsw96ofztg,LbJiIT8Y,2020-0188,2021-10-14,09:45:47,11:08:08,NA,incomplete,false,true,NA,3,12,NA,blue,n_l_016.jpg,NA,NA,unpleasant,pleasant,NA,NA,NA,NA,NA,left,1638.59999996424,true,NA,NA,NA,NA,NA
LbJiIT8Y,3t2hw4qdvykwn81ckpslwayk1hg9co,3zgvpd4g6xuu20ju1bmcnsw96ofztg,LbJiIT8Y,2020-0188,2021-10-14,09:45:47,11:08:08,NA,incomplete,false,true,NA,3,13,NA,blue,m_s_028.jpg,NA,NA,pleasant,unpleasant,NA,NA,NA,NA,NA,left,1643.40000003576,true,NA,NA,NA,NA,NA
LbJiIT8Y,3t2hw4qdvykwn81ckpslwayk1hg9co,3zgvpd4g6xuu20ju1bmcnsw96ofztg,LbJiIT8Y,2020-0188,2021-10-14,09:45:47,11:08:08,NA,incomplete,false,true,NA,3,14,NA,blue,n_l_057.jpg,NA,NA,unpleasant,pleasant,NA,NA,NA,NA,NA,left,1906.09999996424,true,NA,NA,NA,NA,NA
LbJiIT8Y,3t2hw4qdvykwn81ckpslwayk1hg9co,3zgvpd4g6xuu20ju1bmcnsw96ofztg,LbJiIT8Y,2020-0188,2021-10-14,09:45:47,11:08:08,NA,incomplete,false,true,NA,3,15,NA,blue,m_s_054.jpg,NA,NA,pleasant,unpleasant,NA,NA,NA,NA,NA,right,2085.69999998808,true,NA,NA,NA,NA,NA
LbJiIT8Y,3t2hw4qdvykwn81ckpslwayk1hg9co,3zgvpd4g6xuu20ju1bmcnsw96ofztg,LbJiIT8Y,2020-0188,2021-10-14,09:45:47,11:08:08,NA,incomplete,false,true,NA,3,16,NA,blue,m_s_049.jpg,NA,NA,unpleasant,pleasant,NA,NA,NA,NA,NA,right,2172.69999998808,true,NA,NA,NA,NA,NA
LbJiIT8Y,3t2hw4qdvykwn81ckpslwayk1hg9co,3zgvpd4g6xuu20ju1bmcnsw96ofztg,LbJiIT8Y,2020-0188,2021-10-14,09:45:47,11:08:08,NA,incomplete,false,true,NA,3,17,NA,blue,n_l_025.jpg,NA,NA,unpleasant,pleasant,NA,NA,NA,NA,NA,left,1551.09999996424,true,NA,NA,NA,NA,NA
LbJiIT8Y,3t2hw4qdvykwn81ckpslwayk1hg9co,3zgvpd4g6xuu20ju1bmcnsw96ofztg,LbJiIT8Y,2020-0188,2021-10-14,09:45:47,11:08:08,NA,incomplete,false,true,NA,3,18,NA,purple,n_s_039.jpg,NA,NA,unpleasant,pleasant,NA,NA,NA,NA,NA,right,1574.5,true,NA,NA,NA,NA,NA
LbJiIT8Y,3t2hw4qdvykwn81ckpslwayk1hg9co,3zgvpd4g6xuu20ju1bmcnsw96ofztg,LbJiIT8Y,2020-0188,2021-10-14,09:45:47,11:08:08,NA,incomplete,false,true,NA,3,19,NA,purple,m_l_060.jpg,NA,NA,pleasant,unpleasant,NA,NA,NA,NA,NA,left,1919.09999996424,true,NA,NA,NA,NA,NA
LbJiIT8Y,3t2hw4qdvykwn81ckpslwayk1hg9co,3zgvpd4g6xuu20ju1bmcnsw96ofztg,LbJiIT8Y,2020-0188,2021-10-14,09:45:47,11:08:08,NA,incomplete,false,true,NA,3,20,NA,purple,n_l_113.jpg,NA,NA,pleasant,unpleasant,NA,NA,NA,NA,NA,left,2050,true,NA,NA,NA,NA,NA
LbJiIT8Y,3t2hw4qdvykwn81ckpslwayk1hg9co,3zgvpd4g6xuu20ju1bmcnsw96ofztg,LbJiIT8Y,2020-0188,2021-10-14,09:45:47,11:08:08,NA,incomplete,false,true,NA,3,21,NA,purple,m_l_048.jpg,NA,NA,pleasant,unpleasant,NA,NA,NA,NA,NA,left,1612.69999998808,true,NA,NA,NA,NA,NA
LbJiIT8Y,3t2hw4qdvykwn81ckpslwayk1hg9co,3zgvpd4g6xuu20ju1bmcnsw96ofztg,LbJiIT8Y,2020-0188,2021-10-14,09:45:47,11:08:08,NA,incomplete,false,true,NA,3,22,NA,purple,m_s_063.jpg,NA,NA,unpleasant,pleasant,NA,NA,NA,NA,NA,right,1317.19999998808,true,NA,NA,NA,NA,NA
LbJiIT8Y,3t2hw4qdvykwn81ckpslwayk1hg9co,3zgvpd4g6xuu20ju1bmcnsw96ofztg,LbJiIT8Y,2020-0188,2021-10-14,09:45:47,11:08:08,NA,incomplete,false,true,NA,3,23,NA,purple,m_s_074.jpg,NA,NA,unpleasant,pleasant,NA,NA,NA,NA,NA,right,1597.90000003576,true,NA,NA,NA,NA,NA
LbJiIT8Y,3t2hw4qdvykwn81ckpslwayk1hg9co,3zgvpd4g6xuu20ju1bmcnsw96ofztg,LbJiIT8Y,2020-0188,2021-10-14,09:45:47,11:08:08,NA,incomplete,false,true,NA,3,24,NA,brown,m_l_078.jpg,NA,NA,pleasant,unpleasant,NA,NA,NA,NA,NA,left,1559,true,NA,NA,NA,NA,NA
LbJiIT8Y,3t2hw4qdvykwn81ckpslwayk1hg9co,3zgvpd4g6xuu20ju1bmcnsw96ofztg,LbJiIT8Y,2020-0188,2021-10-14,09:45:47,11:08:08,NA,incomplete,false,true,NA,3,25,NA,brown,m_l_023.jpg,NA,NA,unpleasant,pleasant,NA,NA,NA,NA,NA,right,1994.29999995232,true,NA,NA,NA,NA,NA
LbJiIT8Y,3t2hw4qdvykwn81ckpslwayk1hg9co,3zgvpd4g6xuu20ju1bmcnsw96ofztg,LbJiIT8Y,2020-0188,2021-10-14,09:45:47,11:08:08,NA,incomplete,false,true,NA,3,26,NA,brown,m_s_025.jpg,NA,NA,unpleasant,pleasant,NA,NA,NA,NA,NA,right,1499.39999997616,true,NA,NA,NA,NA,NA
LbJiIT8Y,3t2hw4qdvykwn81ckpslwayk1hg9co,3zgvpd4g6xuu20ju1bmcnsw96ofztg,LbJiIT8Y,2020-0188,2021-10-14,09:45:47,11:08:08,NA,incomplete,false,true,NA,3,27,NA,brown,m_s_087.jpg,NA,NA,pleasant,unpleasant,NA,NA,NA,NA,NA,left,1468.40000003576,true,NA,NA,NA,NA,NA
LbJiIT8Y,3t2hw4qdvykwn81ckpslwayk1hg9co,3zgvpd4g6xuu20ju1bmcnsw96ofztg,LbJiIT8Y,2020-0188,2021-10-14,09:45:47,11:08:08,NA,incomplete,false,true,NA,3,28,NA,brown,n_s_081.jpg,NA,NA,pleasant,unpleasant,NA,NA,NA,NA,NA,left,1908.19999998808,true,NA,NA,NA,NA,NA
LbJiIT8Y,3t2hw4qdvykwn81ckpslwayk1hg9co,3zgvpd4g6xuu20ju1bmcnsw96ofztg,LbJiIT8Y,2020-0188,2021-10-14,09:45:47,11:08:08,NA,incomplete,false,true,NA,3,29,NA,brown,m_l_080.jpg,NA,NA,pleasant,unpleasant,NA,NA,NA,NA,NA,left,1738.5,true,NA,NA,NA,NA,NA
LbJiIT8Y,3t2hw4qdvykwn81ckpslwayk1hg9co,3zgvpd4g6xuu20ju1bmcnsw96ofztg,LbJiIT8Y,2020-0188,2021-10-14,09:45:47,11:08:08,NA,incomplete,false,true,NA,3,30,NA,yellow,m_s_021.jpg,NA,NA,pleasant,unpleasant,NA,NA,NA,NA,NA,left,2372.5,true,NA,NA,NA,NA,NA
LbJiIT8Y,3t2hw4qdvykwn81ckpslwayk1hg9co,3zgvpd4g6xuu20ju1bmcnsw96ofztg,LbJiIT8Y,2020-0188,2021-10-14,09:45:47,11:08:08,NA,incomplete,false,true,NA,3,31,NA,yellow,n_s_056.jpg,NA,NA,unpleasant,pleasant,NA,NA,NA,NA,NA,right,1990,true,NA,NA,NA,NA,NA
LbJiIT8Y,3t2hw4qdvykwn81ckpslwayk1hg9co,3zgvpd4g6xuu20ju1bmcnsw96ofztg,LbJiIT8Y,2020-0188,2021-10-14,09:45:47,11:08:08,NA,incomplete,false,true,NA,3,32,NA,yellow,m_s_061.jpg,NA,NA,unpleasant,pleasant,NA,NA,NA,NA,NA,right,1513.69999998808,true,NA,NA,NA,NA,NA
LbJiIT8Y,3t2hw4qdvykwn81ckpslwayk1hg9co,3zgvpd4g6xuu20ju1bmcnsw96ofztg,LbJiIT8Y,2020-0188,2021-10-14,09:45:47,11:08:08,NA,incomplete,false,true,NA,3,33,NA,yellow,m_s_003.jpg,NA,NA,pleasant,unpleasant,NA,NA,NA,NA,NA,left,1989.5,true,NA,NA,NA,NA,NA
LbJiIT8Y,3t2hw4qdvykwn81ckpslwayk1hg9co,3zgvpd4g6xuu20ju1bmcnsw96ofztg,LbJiIT8Y,2020-0188,2021-10-14,09:45:47,11:08:08,NA,incomplete,false,true,NA,3,34,NA,yellow,m_l_111.jpg,NA,NA,pleasant,unpleasant,NA,NA,NA,NA,NA,left,1331.30000001192,true,NA,NA,NA,NA,NA
LbJiIT8Y,3t2hw4qdvykwn81ckpslwayk1hg9co,3zgvpd4g6xuu20ju1bmcnsw96ofztg,LbJiIT8Y,2020-0188,2021-10-14,09:45:47,11:08:08,NA,incomplete,false,true,NA,3,35,NA,yellow,n_l_117.jpg,NA,NA,pleasant,unpleasant,NA,NA,NA,NA,NA,left,1619.29999995232,true,NA,NA,NA,NA,NA
LbJiIT8Y,3t2hw4qdvykwn81ckpslwayk1hg9co,3zgvpd4g6xuu20ju1bmcnsw96ofztg,LbJiIT8Y,2020-0188,2021-10-14,09:45:47,11:08:08,NA,incomplete,false,NA,true,3,0,NA,NA,NA,right,present,NA,NA,n_l_025.jpg,blue,m_s_028.jpg,blue,within,NA,NaN,NA,left,2853.699999988079,0,1,694.3999999761581
LbJiIT8Y,3t2hw4qdvykwn81ckpslwayk1hg9co,3zgvpd4g6xuu20ju1bmcnsw96ofztg,LbJiIT8Y,2020-0188,2021-10-14,09:45:47,11:08:08,NA,incomplete,false,NA,true,3,1,NA,NA,NA,right,present,NA,NA,m_l_088.jpg,red,m_s_085.jpg,red,within,NA,NaN,NA,right,2478.199999988079,1,1,1350.3999999761581
LbJiIT8Y,3t2hw4qdvykwn81ckpslwayk1hg9co,3zgvpd4g6xuu20ju1bmcnsw96ofztg,LbJiIT8Y,2020-0188,2021-10-14,09:45:47,11:08:08,NA,incomplete,false,NA,true,3,2,NA,NA,NA,right,present,NA,NA,m_s_011.jpg,green,m_s_065.jpg,red,between,NA,NaN,NA,left,3142.399999976158,0,1,847.3999999761581
LbJiIT8Y,3t2hw4qdvykwn81ckpslwayk1hg9co,3zgvpd4g6xuu20ju1bmcnsw96ofztg,LbJiIT8Y,2020-0188,2021-10-14,09:45:47,11:08:08,NA,incomplete,false,NA,true,3,3,NA,NA,NA,left,present,NA,NA,n_s_056.jpg,yellow,n_l_117.jpg,yellow,within,NA,NaN,NA,left,2055.199999988079,1,2,767.2999999523163
LbJiIT8Y,3t2hw4qdvykwn81ckpslwayk1hg9co,3zgvpd4g6xuu20ju1bmcnsw96ofztg,LbJiIT8Y,2020-0188,2021-10-14,09:45:47,11:08:08,NA,incomplete,false,NA,true,3,4,NA,NA,NA,left,present,NA,NA,m_s_064.jpg,green,n_l_057.jpg,blue,between,NA,NaN,NA,left,3135.2999999523163,1,1,711.3000000119209
LbJiIT8Y,3t2hw4qdvykwn81ckpslwayk1hg9co,3zgvpd4g6xuu20ju1bmcnsw96ofztg,LbJiIT8Y,2020-0188,2021-10-14,09:45:47,11:08:08,NA,incomplete,false,NA,true,3,5,NA,NA,NA,left,present,NA,NA,m_s_049.jpg,blue,n_l_113.jpg,purple,between,NA,NaN,NA,left,1598.300000011921,1,1,638.1999999880791
LbJiIT8Y,3t2hw4qdvykwn81ckpslwayk1hg9co,3zgvpd4g6xuu20ju1bmcnsw96ofztg,LbJiIT8Y,2020-0188,2021-10-14,09:45:47,11:08:08,NA,incomplete,false,NA,true,3,6,NA,NA,NA,left,present,NA,NA,m_l_060.jpg,purple,m_s_074.jpg,purple,within,NA,NaN,NA,left,2783.2999999523163,1,2,726.2999999523163
LbJiIT8Y,3t2hw4qdvykwn81ckpslwayk1hg9co,3zgvpd4g6xuu20ju1bmcnsw96ofztg,LbJiIT8Y,2020-0188,2021-10-14,09:45:47,11:08:08,NA,incomplete,false,NA,true,3,7,NA,NA,NA,left,present,NA,NA,m_l_023.jpg,brown,m_l_080.jpg,brown,within,NA,NaN,NA,left,1847.199999988079,1,2,647.2999999523163
LbJiIT8Y,3t2hw4qdvykwn81ckpslwayk1hg9co,3zgvpd4g6xuu20ju1bmcnsw96ofztg,LbJiIT8Y,2020-0188,2021-10-14,09:45:47,11:08:08,NA,incomplete,false,NA,true,3,8,NA,NA,NA,right,present,NA,NA,n_s_003.jpg,green,m_l_036.jpg,green,within,NA,NaN,NA,right,1750.5,1,1,887.1000000238419
LbJiIT8Y,3t2hw4qdvykwn81ckpslwayk1hg9co,3zgvpd4g6xuu20ju1bmcnsw96ofztg,LbJiIT8Y,2020-0188,2021-10-14,09:45:47,11:08:08,NA,incomplete,false,NA,true,3,9,NA,NA,NA,right,present,NA,NA,m_s_025.jpg,brown,m_s_063.jpg,purple,between,NA,NaN,NA,left,3151.199999988079,0,1,1255.2999999523163
LbJiIT8Y,3t2hw4qdvykwn81ckpslwayk1hg9co,3zgvpd4g6xuu20ju1bmcnsw96ofztg,LbJiIT8Y,2020-0188,2021-10-14,09:45:47,11:08:08,NA,incomplete,false,NA,true,3,10,NA,NA,NA,left,present,NA,NA,n_s_081.jpg,brown,m_s_061.jpg,yellow,between,NA,NaN,NA,left,4063.199999988079,1,1,783.1999999880791
LbJiIT8Y,3t2hw4qdvykwn81ckpslwayk1hg9co,3zgvpd4g6xuu20ju1bmcnsw96ofztg,LbJiIT8Y,2020-0188,2021-10-14,09:45:47,11:08:08,NA,incomplete,false,true,NA,4,0,NA,brown,m_s_102.jpg,NA,NA,pleasant,unpleasant,NA,NA,NA,NA,NA,right,2200.10000002384,true,NA,NA,NA,NA,NA
LbJiIT8Y,3t2hw4qdvykwn81ckpslwayk1hg9co,3zgvpd4g6xuu20ju1bmcnsw96ofztg,LbJiIT8Y,2020-0188,2021-10-14,09:45:47,11:08:08,NA,incomplete,false,true,NA,4,1,NA,brown,m_s_081.jpg,NA,NA,pleasant,unpleasant,NA,NA,NA,NA,NA,left,1138.5,true,NA,NA,NA,NA,NA
LbJiIT8Y,3t2hw4qdvykwn81ckpslwayk1hg9co,3zgvpd4g6xuu20ju1bmcnsw96ofztg,LbJiIT8Y,2020-0188,2021-10-14,09:45:47,11:08:08,NA,incomplete,false,true,NA,4,2,NA,brown,n_l_002.jpg,NA,NA,pleasant,unpleasant,NA,NA,NA,NA,NA,left,1392.29999995232,true,NA,NA,NA,NA,NA
LbJiIT8Y,3t2hw4qdvykwn81ckpslwayk1hg9co,3zgvpd4g6xuu20ju1bmcnsw96ofztg,LbJiIT8Y,2020-0188,2021-10-14,09:45:47,11:08:08,NA,incomplete,false,true,NA,4,3,NA,brown,n_s_038.jpg,NA,NA,pleasant,unpleasant,NA,NA,NA,NA,NA,right,1472.69999998808,true,NA,NA,NA,NA,NA
LbJiIT8Y,3t2hw4qdvykwn81ckpslwayk1hg9co,3zgvpd4g6xuu20ju1bmcnsw96ofztg,LbJiIT8Y,2020-0188,2021-10-14,09:45:47,11:08:08,NA,incomplete,false,true,NA,4,4,NA,brown,m_s_109.jpg,NA,NA,pleasant,unpleasant,NA,NA,NA,NA,NA,left,1032.09999996424,true,NA,NA,NA,NA,NA
LbJiIT8Y,3t2hw4qdvykwn81ckpslwayk1hg9co,3zgvpd4g6xuu20ju1bmcnsw96ofztg,LbJiIT8Y,2020-0188,2021-10-14,09:45:47,11:08:08,NA,incomplete,false,true,NA,4,5,NA,brown,m_s_019.jpg,NA,NA,unpleasant,pleasant,NA,NA,NA,NA,NA,right,1693,true,NA,NA,NA,NA,NA
LbJiIT8Y,3t2hw4qdvykwn81ckpslwayk1hg9co,3zgvpd4g6xuu20ju1bmcnsw96ofztg,LbJiIT8Y,2020-0188,2021-10-14,09:45:47,11:08:08,NA,incomplete,false,true,NA,4,6,NA,orange,m_l_027.jpg,NA,NA,pleasant,unpleasant,NA,NA,NA,NA,NA,left,1247.10000002384,true,NA,NA,NA,NA,NA
LbJiIT8Y,3t2hw4qdvykwn81ckpslwayk1hg9co,3zgvpd4g6xuu20ju1bmcnsw96ofztg,LbJiIT8Y,2020-0188,2021-10-14,09:45:47,11:08:08,NA,incomplete,false,true,NA,4,7,NA,orange,n_s_007.jpg,NA,NA,pleasant,unpleasant,NA,NA,NA,NA,NA,right,1394.89999997616,true,NA,NA,NA,NA,NA
LbJiIT8Y,3t2hw4qdvykwn81ckpslwayk1hg9co,3zgvpd4g6xuu20ju1bmcnsw96ofztg,LbJiIT8Y,2020-0188,2021-10-14,09:45:47,11:08:08,NA,incomplete,false,true,NA,4,8,NA,orange,n_l_060.jpg,NA,NA,pleasant,unpleasant,NA,NA,NA,NA,NA,left,1474.30000001192,true,NA,NA,NA,NA,NA
LbJiIT8Y,3t2hw4qdvykwn81ckpslwayk1hg9co,3zgvpd4g6xuu20ju1bmcnsw96ofztg,LbJiIT8Y,2020-0188,2021-10-14,09:45:47,11:08:08,NA,incomplete,false,true,NA,4,9,NA,orange,m_s_034.jpg,NA,NA,pleasant,unpleasant,NA,NA,NA,NA,NA,left,1323.10000002384,true,NA,NA,NA,NA,NA
LbJiIT8Y,3t2hw4qdvykwn81ckpslwayk1hg9co,3zgvpd4g6xuu20ju1bmcnsw96ofztg,LbJiIT8Y,2020-0188,2021-10-14,09:45:47,11:08:08,NA,incomplete,false,true,NA,4,10,NA,orange,n_l_090.jpg,NA,NA,unpleasant,pleasant,NA,NA,NA,NA,NA,left,1868.19999998808,true,NA,NA,NA,NA,NA
LbJiIT8Y,3t2hw4qdvykwn81ckpslwayk1hg9co,3zgvpd4g6xuu20ju1bmcnsw96ofztg,LbJiIT8Y,2020-0188,2021-10-14,09:45:47,11:08:08,NA,incomplete,false,true,NA,4,11,NA,orange,n_l_012.jpg,NA,NA,unpleasant,pleasant,NA,NA,NA,NA,NA,right,1857.60000002384,true,NA,NA,NA,NA,NA
LbJiIT8Y,3t2hw4qdvykwn81ckpslwayk1hg9co,3zgvpd4g6xuu20ju1bmcnsw96ofztg,LbJiIT8Y,2020-0188,2021-10-14,09:45:47,11:08:08,NA,incomplete,false,true,NA,4,12,NA,white,m_s_084.jpg,NA,NA,pleasant,unpleasant,NA,NA,NA,NA,NA,left,1821.19999998808,true,NA,NA,NA,NA,NA
LbJiIT8Y,3t2hw4qdvykwn81ckpslwayk1hg9co,3zgvpd4g6xuu20ju1bmcnsw96ofztg,LbJiIT8Y,2020-0188,2021-10-14,09:45:47,11:08:08,NA,incomplete,false,true,NA,4,13,NA,white,m_s_048.jpg,NA,NA,unpleasant,pleasant,NA,NA,NA,NA,NA,right,1535.69999998808,true,NA,NA,NA,NA,NA
LbJiIT8Y,3t2hw4qdvykwn81ckpslwayk1hg9co,3zgvpd4g6xuu20ju1bmcnsw96ofztg,LbJiIT8Y,2020-0188,2021-10-14,09:45:47,11:08:08,NA,incomplete,false,true,NA,4,14,NA,white,m_s_091.jpg,NA,NA,unpleasant,pleasant,NA,NA,NA,NA,NA,right,1568.5,true,NA,NA,NA,NA,NA
LbJiIT8Y,3t2hw4qdvykwn81ckpslwayk1hg9co,3zgvpd4g6xuu20ju1bmcnsw96ofztg,LbJiIT8Y,2020-0188,2021-10-14,09:45:47,11:08:08,NA,incomplete,false,true,NA,4,15,NA,white,m_s_008.jpg,NA,NA,unpleasant,pleasant,NA,NA,NA,NA,NA,right,1878.39999997616,true,NA,NA,NA,NA,NA
LbJiIT8Y,3t2hw4qdvykwn81ckpslwayk1hg9co,3zgvpd4g6xuu20ju1bmcnsw96ofztg,LbJiIT8Y,2020-0188,2021-10-14,09:45:47,11:08:08,NA,incomplete,false,true,NA,4,16,NA,white,n_l_061.jpg,NA,NA,pleasant,unpleasant,NA,NA,NA,NA,NA,left,1519.30000001192,true,NA,NA,NA,NA,NA
LbJiIT8Y,3t2hw4qdvykwn81ckpslwayk1hg9co,3zgvpd4g6xuu20ju1bmcnsw96ofztg,LbJiIT8Y,2020-0188,2021-10-14,09:45:47,11:08:08,NA,incomplete,false,true,NA,4,17,NA,white,m_s_043.jpg,NA,NA,unpleasant,pleasant,NA,NA,NA,NA,NA,right,1688.70000004768,true,NA,NA,NA,NA,NA
LbJiIT8Y,3t2hw4qdvykwn81ckpslwayk1hg9co,3zgvpd4g6xuu20ju1bmcnsw96ofztg,LbJiIT8Y,2020-0188,2021-10-14,09:45:47,11:08:08,NA,incomplete,false,true,NA,4,18,NA,green,n_s_067.jpg,NA,NA,pleasant,unpleasant,NA,NA,NA,NA,NA,left,1380.69999998808,true,NA,NA,NA,NA,NA
LbJiIT8Y,3t2hw4qdvykwn81ckpslwayk1hg9co,3zgvpd4g6xuu20ju1bmcnsw96ofztg,LbJiIT8Y,2020-0188,2021-10-14,09:45:47,11:08:08,NA,incomplete,false,true,NA,4,19,NA,green,n_l_106.jpg,NA,NA,unpleasant,pleasant,NA,NA,NA,NA,NA,left,2260.39999997616,true,NA,NA,NA,NA,NA
LbJiIT8Y,3t2hw4qdvykwn81ckpslwayk1hg9co,3zgvpd4g6xuu20ju1bmcnsw96ofztg,LbJiIT8Y,2020-0188,2021-10-14,09:45:47,11:08:08,NA,incomplete,false,true,NA,4,20,NA,green,n_l_093.jpg,NA,NA,unpleasant,pleasant,NA,NA,NA,NA,NA,left,1442.5,true,NA,NA,NA,NA,NA
LbJiIT8Y,3t2hw4qdvykwn81ckpslwayk1hg9co,3zgvpd4g6xuu20ju1bmcnsw96ofztg,LbJiIT8Y,2020-0188,2021-10-14,09:45:47,11:08:08,NA,incomplete,false,true,NA,4,21,NA,green,n_s_113.jpg,NA,NA,pleasant,unpleasant,NA,NA,NA,NA,NA,left,1433.59999996424,true,NA,NA,NA,NA,NA
LbJiIT8Y,3t2hw4qdvykwn81ckpslwayk1hg9co,3zgvpd4g6xuu20ju1bmcnsw96ofztg,LbJiIT8Y,2020-0188,2021-10-14,09:45:47,11:08:08,NA,incomplete,false,true,NA,4,22,NA,green,n_l_018.jpg,NA,NA,unpleasant,pleasant,NA,NA,NA,NA,NA,right,1349.90000003576,true,NA,NA,NA,NA,NA
LbJiIT8Y,3t2hw4qdvykwn81ckpslwayk1hg9co,3zgvpd4g6xuu20ju1bmcnsw96ofztg,LbJiIT8Y,2020-0188,2021-10-14,09:45:47,11:08:08,NA,incomplete,false,true,NA,4,23,NA,green,n_s_060.jpg,NA,NA,unpleasant,pleasant,NA,NA,NA,NA,NA,right,1663.10000002384,true,NA,NA,NA,NA,NA
LbJiIT8Y,3t2hw4qdvykwn81ckpslwayk1hg9co,3zgvpd4g6xuu20ju1bmcnsw96ofztg,LbJiIT8Y,2020-0188,2021-10-14,09:45:47,11:08:08,NA,incomplete,false,true,NA,4,24,NA,purple,m_l_043.jpg,NA,NA,pleasant,unpleasant,NA,NA,NA,NA,NA,left,1710.5,true,NA,NA,NA,NA,NA
LbJiIT8Y,3t2hw4qdvykwn81ckpslwayk1hg9co,3zgvpd4g6xuu20ju1bmcnsw96ofztg,LbJiIT8Y,2020-0188,2021-10-14,09:45:47,11:08:08,NA,incomplete,false,true,NA,4,25,NA,purple,m_s_103.jpg,NA,NA,unpleasant,pleasant,NA,NA,NA,NA,NA,right,1907.40000003576,true,NA,NA,NA,NA,NA
LbJiIT8Y,3t2hw4qdvykwn81ckpslwayk1hg9co,3zgvpd4g6xuu20ju1bmcnsw96ofztg,LbJiIT8Y,2020-0188,2021-10-14,09:45:47,11:08:08,NA,incomplete,false,true,NA,4,26,NA,purple,n_l_115.jpg,NA,NA,pleasant,unpleasant,NA,NA,NA,NA,NA,left,1775.30000001192,true,NA,NA,NA,NA,NA
LbJiIT8Y,3t2hw4qdvykwn81ckpslwayk1hg9co,3zgvpd4g6xuu20ju1bmcnsw96ofztg,LbJiIT8Y,2020-0188,2021-10-14,09:45:47,11:08:08,NA,incomplete,false,true,NA,4,27,NA,purple,n_s_009.jpg,NA,NA,unpleasant,pleasant,NA,NA,NA,NA,NA,right,2107,true,NA,NA,NA,NA,NA
LbJiIT8Y,3t2hw4qdvykwn81ckpslwayk1hg9co,3zgvpd4g6xuu20ju1bmcnsw96ofztg,LbJiIT8Y,2020-0188,2021-10-14,09:45:47,11:08:08,NA,incomplete,false,true,NA,4,28,NA,purple,m_l_041.jpg,NA,NA,pleasant,unpleasant,NA,NA,NA,NA,NA,left,1826.5,true,NA,NA,NA,NA,NA
LbJiIT8Y,3t2hw4qdvykwn81ckpslwayk1hg9co,3zgvpd4g6xuu20ju1bmcnsw96ofztg,LbJiIT8Y,2020-0188,2021-10-14,09:45:47,11:08:08,NA,incomplete,false,true,NA,4,29,NA,purple,n_l_059.jpg,NA,NA,unpleasant,pleasant,NA,NA,NA,NA,NA,left,1615.10000002384,true,NA,NA,NA,NA,NA
LbJiIT8Y,3t2hw4qdvykwn81ckpslwayk1hg9co,3zgvpd4g6xuu20ju1bmcnsw96ofztg,LbJiIT8Y,2020-0188,2021-10-14,09:45:47,11:08:08,NA,incomplete,false,true,NA,4,30,NA,blue,n_s_040.jpg,NA,NA,unpleasant,pleasant,NA,NA,NA,NA,NA,left,2196.80000001192,true,NA,NA,NA,NA,NA
LbJiIT8Y,3t2hw4qdvykwn81ckpslwayk1hg9co,3zgvpd4g6xuu20ju1bmcnsw96ofztg,LbJiIT8Y,2020-0188,2021-10-14,09:45:47,11:08:08,NA,incomplete,false,true,NA,4,31,NA,blue,n_l_071.jpg,NA,NA,unpleasant,pleasant,NA,NA,NA,NA,NA,right,1897.60000002384,true,NA,NA,NA,NA,NA
LbJiIT8Y,3t2hw4qdvykwn81ckpslwayk1hg9co,3zgvpd4g6xuu20ju1bmcnsw96ofztg,LbJiIT8Y,2020-0188,2021-10-14,09:45:47,11:08:08,NA,incomplete,false,true,NA,4,32,NA,blue,n_l_028.jpg,NA,NA,pleasant,unpleasant,NA,NA,NA,NA,NA,left,1386.59999996424,true,NA,NA,NA,NA,NA
LbJiIT8Y,3t2hw4qdvykwn81ckpslwayk1hg9co,3zgvpd4g6xuu20ju1bmcnsw96ofztg,LbJiIT8Y,2020-0188,2021-10-14,09:45:47,11:08:08,NA,incomplete,false,true,NA,4,33,NA,blue,m_s_062.jpg,NA,NA,pleasant,unpleasant,NA,NA,NA,NA,NA,left,1566.5,true,NA,NA,NA,NA,NA
LbJiIT8Y,3t2hw4qdvykwn81ckpslwayk1hg9co,3zgvpd4g6xuu20ju1bmcnsw96ofztg,LbJiIT8Y,2020-0188,2021-10-14,09:45:47,11:08:08,NA,incomplete,false,true,NA,4,34,NA,blue,n_s_117.jpg,NA,NA,unpleasant,pleasant,NA,NA,NA,NA,NA,left,1503.39999997616,true,NA,NA,NA,NA,NA
LbJiIT8Y,3t2hw4qdvykwn81ckpslwayk1hg9co,3zgvpd4g6xuu20ju1bmcnsw96ofztg,LbJiIT8Y,2020-0188,2021-10-14,09:45:47,11:08:08,NA,incomplete,false,true,NA,4,35,NA,blue,m_s_024.jpg,NA,NA,pleasant,unpleasant,NA,NA,NA,NA,NA,left,1591.5,true,NA,NA,NA,NA,NA
LbJiIT8Y,3t2hw4qdvykwn81ckpslwayk1hg9co,3zgvpd4g6xuu20ju1bmcnsw96ofztg,LbJiIT8Y,2020-0188,2021-10-14,09:45:47,11:08:08,NA,incomplete,false,NA,true,4,0,NA,NA,NA,right,present,NA,NA,n_s_060.jpg,green,n_l_106.jpg,green,within,NA,NaN,NA,left,2047,0,2,815.1000000238419
LbJiIT8Y,3t2hw4qdvykwn81ckpslwayk1hg9co,3zgvpd4g6xuu20ju1bmcnsw96ofztg,LbJiIT8Y,2020-0188,2021-10-14,09:45:47,11:08:08,NA,incomplete,false,NA,true,4,1,NA,NA,NA,left,present,NA,NA,m_s_048.jpg,white,m_s_043.jpg,white,within,NA,NaN,NA,left,1448.300000011921,1,1,926.3000000119209
LbJiIT8Y,3t2hw4qdvykwn81ckpslwayk1hg9co,3zgvpd4g6xuu20ju1bmcnsw96ofztg,LbJiIT8Y,2020-0188,2021-10-14,09:45:47,11:08:08,NA,incomplete,false,NA,true,4,2,NA,NA,NA,left,present,NA,NA,n_l_071.jpg,blue,m_s_024.jpg,blue,within,NA,NaN,NA,left,2959.199999988079,1,1,967.2000000476837
LbJiIT8Y,3t2hw4qdvykwn81ckpslwayk1hg9co,3zgvpd4g6xuu20ju1bmcnsw96ofztg,LbJiIT8Y,2020-0188,2021-10-14,09:45:47,11:08:08,NA,incomplete,false,NA,true,4,3,NA,NA,NA,right,present,NA,NA,n_l_059.jpg,purple,m_s_103.jpg,purple,within,NA,NaN,NA,right,1415.300000011921,1,3,1255.3999999761581
LbJiIT8Y,3t2hw4qdvykwn81ckpslwayk1hg9co,3zgvpd4g6xuu20ju1bmcnsw96ofztg,LbJiIT8Y,2020-0188,2021-10-14,09:45:47,11:08:08,NA,incomplete,false,NA,true,4,4,NA,NA,NA,left,present,NA,NA,n_l_061.jpg,white,n_l_093.jpg,green,between,NA,NaN,NA,right,1327.199999988079,0,1,1056.0999999642372
LbJiIT8Y,3t2hw4qdvykwn81ckpslwayk1hg9co,3zgvpd4g6xuu20ju1bmcnsw96ofztg,LbJiIT8Y,2020-0188,2021-10-14,09:45:47,11:08:08,NA,incomplete,false,NA,true,4,5,NA,NA,NA,left,present,NA,NA,m_s_109.jpg,brown,n_l_060.jpg,orange,between,NA,NaN,NA,left,1391.199999988079,1,0,1159.199999988079
LbJiIT8Y,3t2hw4qdvykwn81ckpslwayk1hg9co,3zgvpd4g6xuu20ju1bmcnsw96ofztg,LbJiIT8Y,2020-0188,2021-10-14,09:45:47,11:08:08,NA,incomplete,false,NA,true,4,6,NA,NA,NA,right,present,NA,NA,n_l_115.jpg,purple,n_l_018.jpg,green,between,NA,NaN,NA,right,2031.199999988079,1,2,1039.199999988079
LbJiIT8Y,3t2hw4qdvykwn81ckpslwayk1hg9co,3zgvpd4g6xuu20ju1bmcnsw96ofztg,LbJiIT8Y,2020-0188,2021-10-14,09:45:47,11:08:08,NA,incomplete,false,NA,true,4,7,NA,NA,NA,left,present,NA,NA,m_l_041.jpg,purple,n_l_028.jpg,blue,between,NA,NaN,NA,left,3199.199999988079,1,1,951.9000000357628
LbJiIT8Y,3t2hw4qdvykwn81ckpslwayk1hg9co,3zgvpd4g6xuu20ju1bmcnsw96ofztg,LbJiIT8Y,2020-0188,2021-10-14,09:45:47,11:08:08,NA,incomplete,false,NA,true,4,8,NA,NA,NA,right,present,NA,NA,n_l_012.jpg,orange,n_s_007.jpg,orange,within,NA,NaN,NA,right,1695.5,1,2,759.3000000119209
LbJiIT8Y,3t2hw4qdvykwn81ckpslwayk1hg9co,3zgvpd4g6xuu20ju1bmcnsw96ofztg,LbJiIT8Y,2020-0188,2021-10-14,09:45:47,11:08:08,NA,incomplete,false,NA,true,4,9,NA,NA,NA,right,present,NA,NA,m_s_019.jpg,brown,m_s_081.jpg,brown,within,NA,NaN,NA,right,2559.399999976158,1,1,775.3000000119209
LbJiIT8Y,3t2hw4qdvykwn81ckpslwayk1hg9co,3zgvpd4g6xuu20ju1bmcnsw96ofztg,LbJiIT8Y,2020-0188,2021-10-14,09:45:47,11:08:08,NA,incomplete,false,NA,true,4,10,NA,NA,NA,right,present,NA,NA,m_s_091.jpg,white,n_l_090.jpg,orange,between,NA,NaN,NA,right,2629.600000023842,1,2,1015.3000000119209
LbJiIT8Y,3t2hw4qdvykwn81ckpslwayk1hg9co,3zgvpd4g6xuu20ju1bmcnsw96ofztg,LbJiIT8Y,2020-0188,2021-10-14,09:45:47,11:08:08,NA,incomplete,false,true,NA,5,0,NA,black,m_s_026.jpg,NA,NA,pleasant,unpleasant,NA,NA,NA,NA,NA,left,1318,true,NA,NA,NA,NA,NA
LbJiIT8Y,3t2hw4qdvykwn81ckpslwayk1hg9co,3zgvpd4g6xuu20ju1bmcnsw96ofztg,LbJiIT8Y,2020-0188,2021-10-14,09:45:47,11:08:08,NA,incomplete,false,true,NA,5,1,NA,black,m_s_070.jpg,NA,NA,pleasant,unpleasant,NA,NA,NA,NA,NA,left,1312,true,NA,NA,NA,NA,NA
LbJiIT8Y,3t2hw4qdvykwn81ckpslwayk1hg9co,3zgvpd4g6xuu20ju1bmcnsw96ofztg,LbJiIT8Y,2020-0188,2021-10-14,09:45:47,11:08:08,NA,incomplete,false,true,NA,5,2,NA,black,n_l_001.jpg,NA,NA,unpleasant,pleasant,NA,NA,NA,NA,NA,right,1426.5,true,NA,NA,NA,NA,NA
LbJiIT8Y,3t2hw4qdvykwn81ckpslwayk1hg9co,3zgvpd4g6xuu20ju1bmcnsw96ofztg,LbJiIT8Y,2020-0188,2021-10-14,09:45:47,11:08:08,NA,incomplete,false,true,NA,5,3,NA,black,m_s_029.jpg,NA,NA,pleasant,unpleasant,NA,NA,NA,NA,NA,left,1647.70000004768,true,NA,NA,NA,NA,NA
LbJiIT8Y,3t2hw4qdvykwn81ckpslwayk1hg9co,3zgvpd4g6xuu20ju1bmcnsw96ofztg,LbJiIT8Y,2020-0188,2021-10-14,09:45:47,11:08:08,NA,incomplete,false,true,NA,5,4,NA,black,n_s_055.jpg,NA,NA,pleasant,unpleasant,NA,NA,NA,NA,NA,left,1504.30000001192,true,NA,NA,NA,NA,NA
LbJiIT8Y,3t2hw4qdvykwn81ckpslwayk1hg9co,3zgvpd4g6xuu20ju1bmcnsw96ofztg,LbJiIT8Y,2020-0188,2021-10-14,09:45:47,11:08:08,NA,incomplete,false,true,NA,5,5,NA,black,n_l_030.jpg,NA,NA,pleasant,unpleasant,NA,NA,NA,NA,NA,left,1867.60000002384,true,NA,NA,NA,NA,NA
LbJiIT8Y,3t2hw4qdvykwn81ckpslwayk1hg9co,3zgvpd4g6xuu20ju1bmcnsw96ofztg,LbJiIT8Y,2020-0188,2021-10-14,09:45:47,11:08:08,NA,incomplete,false,true,NA,5,6,NA,gray,n_s_046.jpg,NA,NA,pleasant,unpleasant,NA,NA,NA,NA,NA,right,1510.89999997616,true,NA,NA,NA,NA,NA
LbJiIT8Y,3t2hw4qdvykwn81ckpslwayk1hg9co,3zgvpd4g6xuu20ju1bmcnsw96ofztg,LbJiIT8Y,2020-0188,2021-10-14,09:45:47,11:08:08,NA,incomplete,false,true,NA,5,7,NA,gray,n_s_100.jpg,NA,NA,pleasant,unpleasant,NA,NA,NA,NA,NA,left,1944.19999998808,true,NA,NA,NA,NA,NA
LbJiIT8Y,3t2hw4qdvykwn81ckpslwayk1hg9co,3zgvpd4g6xuu20ju1bmcnsw96ofztg,LbJiIT8Y,2020-0188,2021-10-14,09:45:47,11:08:08,NA,incomplete,false,true,NA,5,8,NA,gray,m_l_091.jpg,NA,NA,pleasant,unpleasant,NA,NA,NA,NA,NA,left,1998.70000004768,true,NA,NA,NA,NA,NA
LbJiIT8Y,3t2hw4qdvykwn81ckpslwayk1hg9co,3zgvpd4g6xuu20ju1bmcnsw96ofztg,LbJiIT8Y,2020-0188,2021-10-14,09:45:47,11:08:08,NA,incomplete,false,true,NA,5,9,NA,gray,n_l_009.jpg,NA,NA,pleasant,unpleasant,NA,NA,NA,NA,NA,left,1623.30000001192,true,NA,NA,NA,NA,NA
LbJiIT8Y,3t2hw4qdvykwn81ckpslwayk1hg9co,3zgvpd4g6xuu20ju1bmcnsw96ofztg,LbJiIT8Y,2020-0188,2021-10-14,09:45:47,11:08:08,NA,incomplete,false,true,NA,5,10,NA,gray,n_s_010.jpg,NA,NA,pleasant,unpleasant,NA,NA,NA,NA,NA,right,1667.30000001192,true,NA,NA,NA,NA,NA
LbJiIT8Y,3t2hw4qdvykwn81ckpslwayk1hg9co,3zgvpd4g6xuu20ju1bmcnsw96ofztg,LbJiIT8Y,2020-0188,2021-10-14,09:45:47,11:08:08,NA,incomplete,false,true,NA,5,11,NA,gray,n_l_067.jpg,NA,NA,pleasant,unpleasant,NA,NA,NA,NA,NA,right,2117.70000004768,true,NA,NA,NA,NA,NA
LbJiIT8Y,3t2hw4qdvykwn81ckpslwayk1hg9co,3zgvpd4g6xuu20ju1bmcnsw96ofztg,LbJiIT8Y,2020-0188,2021-10-14,09:45:47,11:08:08,NA,incomplete,false,true,NA,5,12,NA,purple,m_s_001.jpg,NA,NA,unpleasant,pleasant,NA,NA,NA,NA,NA,right,1594.5,true,NA,NA,NA,NA,NA
LbJiIT8Y,3t2hw4qdvykwn81ckpslwayk1hg9co,3zgvpd4g6xuu20ju1bmcnsw96ofztg,LbJiIT8Y,2020-0188,2021-10-14,09:45:47,11:08:08,NA,incomplete,false,true,NA,5,13,NA,purple,m_l_029.jpg,NA,NA,pleasant,unpleasant,NA,NA,NA,NA,NA,left,1938.60000002384,true,NA,NA,NA,NA,NA
LbJiIT8Y,3t2hw4qdvykwn81ckpslwayk1hg9co,3zgvpd4g6xuu20ju1bmcnsw96ofztg,LbJiIT8Y,2020-0188,2021-10-14,09:45:47,11:08:08,NA,incomplete,false,true,NA,5,14,NA,purple,m_l_051.jpg,NA,NA,unpleasant,pleasant,NA,NA,NA,NA,NA,right,2267.10000002384,true,NA,NA,NA,NA,NA
LbJiIT8Y,3t2hw4qdvykwn81ckpslwayk1hg9co,3zgvpd4g6xuu20ju1bmcnsw96ofztg,LbJiIT8Y,2020-0188,2021-10-14,09:45:47,11:08:08,NA,incomplete,false,true,NA,5,15,NA,purple,m_s_018.jpg,NA,NA,pleasant,unpleasant,NA,NA,NA,NA,NA,left,2060.59999996424,true,NA,NA,NA,NA,NA
LbJiIT8Y,3t2hw4qdvykwn81ckpslwayk1hg9co,3zgvpd4g6xuu20ju1bmcnsw96ofztg,LbJiIT8Y,2020-0188,2021-10-14,09:45:47,11:08:08,NA,incomplete,false,true,NA,5,16,NA,purple,n_l_104.jpg,NA,NA,pleasant,unpleasant,NA,NA,NA,NA,NA,right,1255.30000001192,true,NA,NA,NA,NA,NA
LbJiIT8Y,3t2hw4qdvykwn81ckpslwayk1hg9co,3zgvpd4g6xuu20ju1bmcnsw96ofztg,LbJiIT8Y,2020-0188,2021-10-14,09:45:47,11:08:08,NA,incomplete,false,true,NA,5,17,NA,purple,n_l_004.jpg,NA,NA,pleasant,unpleasant,NA,NA,NA,NA,NA,left,1089,true,NA,NA,NA,NA,NA
LbJiIT8Y,3t2hw4qdvykwn81ckpslwayk1hg9co,3zgvpd4g6xuu20ju1bmcnsw96ofztg,LbJiIT8Y,2020-0188,2021-10-14,09:45:47,11:08:08,NA,incomplete,false,true,NA,5,18,NA,red,m_l_003.jpg,NA,NA,pleasant,unpleasant,NA,NA,NA,NA,NA,left,2029.59999996424,true,NA,NA,NA,NA,NA
LbJiIT8Y,3t2hw4qdvykwn81ckpslwayk1hg9co,3zgvpd4g6xuu20ju1bmcnsw96ofztg,LbJiIT8Y,2020-0188,2021-10-14,09:45:47,11:08:08,NA,incomplete,false,true,NA,5,19,NA,red,n_l_068.jpg,NA,NA,unpleasant,pleasant,NA,NA,NA,NA,NA,right,1871.40000003576,true,NA,NA,NA,NA,NA
LbJiIT8Y,3t2hw4qdvykwn81ckpslwayk1hg9co,3zgvpd4g6xuu20ju1bmcnsw96ofztg,LbJiIT8Y,2020-0188,2021-10-14,09:45:47,11:08:08,NA,incomplete,false,true,NA,5,20,NA,red,m_l_084.jpg,NA,NA,unpleasant,pleasant,NA,NA,NA,NA,NA,right,1327.40000003576,true,NA,NA,NA,NA,NA
LbJiIT8Y,3t2hw4qdvykwn81ckpslwayk1hg9co,3zgvpd4g6xuu20ju1bmcnsw96ofztg,LbJiIT8Y,2020-0188,2021-10-14,09:45:47,11:08:08,NA,incomplete,false,true,NA,5,21,NA,red,m_l_104.jpg,NA,NA,pleasant,unpleasant,NA,NA,NA,NA,NA,left,1708.79999995232,true,NA,NA,NA,NA,NA
LbJiIT8Y,3t2hw4qdvykwn81ckpslwayk1hg9co,3zgvpd4g6xuu20ju1bmcnsw96ofztg,LbJiIT8Y,2020-0188,2021-10-14,09:45:47,11:08:08,NA,incomplete,false,true,NA,5,22,NA,red,n_l_032.jpg,NA,NA,unpleasant,pleasant,NA,NA,NA,NA,NA,right,2784.59999996424,true,NA,NA,NA,NA,NA
LbJiIT8Y,3t2hw4qdvykwn81ckpslwayk1hg9co,3zgvpd4g6xuu20ju1bmcnsw96ofztg,LbJiIT8Y,2020-0188,2021-10-14,09:45:47,11:08:08,NA,incomplete,false,true,NA,5,23,NA,red,n_l_007.jpg,NA,NA,pleasant,unpleasant,NA,NA,NA,NA,NA,left,2541.59999996424,true,NA,NA,NA,NA,NA
LbJiIT8Y,3t2hw4qdvykwn81ckpslwayk1hg9co,3zgvpd4g6xuu20ju1bmcnsw96ofztg,LbJiIT8Y,2020-0188,2021-10-14,09:45:47,11:08:08,NA,incomplete,false,true,NA,5,24,NA,blue,n_s_079.jpg,NA,NA,pleasant,unpleasant,NA,NA,NA,NA,NA,left,1507.10000002384,true,NA,NA,NA,NA,NA
LbJiIT8Y,3t2hw4qdvykwn81ckpslwayk1hg9co,3zgvpd4g6xuu20ju1bmcnsw96ofztg,LbJiIT8Y,2020-0188,2021-10-14,09:45:47,11:08:08,NA,incomplete,false,true,NA,5,25,NA,blue,n_l_075.jpg,NA,NA,unpleasant,pleasant,NA,NA,NA,NA,NA,left,1477.59999996424,true,NA,NA,NA,NA,NA
LbJiIT8Y,3t2hw4qdvykwn81ckpslwayk1hg9co,3zgvpd4g6xuu20ju1bmcnsw96ofztg,LbJiIT8Y,2020-0188,2021-10-14,09:45:47,11:08:08,NA,incomplete,false,true,NA,5,26,NA,blue,n_l_077.jpg,NA,NA,pleasant,unpleasant,NA,NA,NA,NA,NA,right,2654.39999997616,true,NA,NA,NA,NA,NA
LbJiIT8Y,3t2hw4qdvykwn81ckpslwayk1hg9co,3zgvpd4g6xuu20ju1bmcnsw96ofztg,LbJiIT8Y,2020-0188,2021-10-14,09:45:47,11:08:08,NA,incomplete,false,true,NA,5,27,NA,blue,n_l_069.jpg,NA,NA,unpleasant,pleasant,NA,NA,NA,NA,NA,left,1928.89999997616,true,NA,NA,NA,NA,NA
LbJiIT8Y,3t2hw4qdvykwn81ckpslwayk1hg9co,3zgvpd4g6xuu20ju1bmcnsw96ofztg,LbJiIT8Y,2020-0188,2021-10-14,09:45:47,11:08:08,NA,incomplete,false,true,NA,5,28,NA,blue,n_l_029.jpg,NA,NA,pleasant,unpleasant,NA,NA,NA,NA,NA,right,2085.10000002384,true,NA,NA,NA,NA,NA
LbJiIT8Y,3t2hw4qdvykwn81ckpslwayk1hg9co,3zgvpd4g6xuu20ju1bmcnsw96ofztg,LbJiIT8Y,2020-0188,2021-10-14,09:45:47,11:08:08,NA,incomplete,false,true,NA,5,29,NA,blue,n_s_083.jpg,NA,NA,unpleasant,pleasant,NA,NA,NA,NA,NA,right,1328.19999998808,true,NA,NA,NA,NA,NA
LbJiIT8Y,3t2hw4qdvykwn81ckpslwayk1hg9co,3zgvpd4g6xuu20ju1bmcnsw96ofztg,LbJiIT8Y,2020-0188,2021-10-14,09:45:47,11:08:08,NA,incomplete,false,true,NA,5,30,NA,yellow,n_l_062.jpg,NA,NA,unpleasant,pleasant,NA,NA,NA,NA,NA,right,1879.19999998808,true,NA,NA,NA,NA,NA
LbJiIT8Y,3t2hw4qdvykwn81ckpslwayk1hg9co,3zgvpd4g6xuu20ju1bmcnsw96ofztg,LbJiIT8Y,2020-0188,2021-10-14,09:45:47,11:08:08,NA,incomplete,false,true,NA,5,31,NA,yellow,n_l_105.jpg,NA,NA,unpleasant,pleasant,NA,NA,NA,NA,NA,right,1769.90000003576,true,NA,NA,NA,NA,NA
LbJiIT8Y,3t2hw4qdvykwn81ckpslwayk1hg9co,3zgvpd4g6xuu20ju1bmcnsw96ofztg,LbJiIT8Y,2020-0188,2021-10-14,09:45:47,11:08:08,NA,incomplete,false,true,NA,5,32,NA,yellow,m_s_078.jpg,NA,NA,unpleasant,pleasant,NA,NA,NA,NA,NA,right,1558.19999998808,true,NA,NA,NA,NA,NA
LbJiIT8Y,3t2hw4qdvykwn81ckpslwayk1hg9co,3zgvpd4g6xuu20ju1bmcnsw96ofztg,LbJiIT8Y,2020-0188,2021-10-14,09:45:47,11:08:08,NA,incomplete,false,true,NA,5,33,NA,yellow,n_s_015.jpg,NA,NA,pleasant,unpleasant,NA,NA,NA,NA,NA,left,1567.10000002384,true,NA,NA,NA,NA,NA
LbJiIT8Y,3t2hw4qdvykwn81ckpslwayk1hg9co,3zgvpd4g6xuu20ju1bmcnsw96ofztg,LbJiIT8Y,2020-0188,2021-10-14,09:45:47,11:08:08,NA,incomplete,false,true,NA,5,34,NA,yellow,m_l_020.jpg,NA,NA,unpleasant,pleasant,NA,NA,NA,NA,NA,right,1723.39999997616,true,NA,NA,NA,NA,NA
LbJiIT8Y,3t2hw4qdvykwn81ckpslwayk1hg9co,3zgvpd4g6xuu20ju1bmcnsw96ofztg,LbJiIT8Y,2020-0188,2021-10-14,09:45:47,11:08:08,NA,incomplete,false,true,NA,5,35,NA,yellow,m_l_082.jpg,NA,NA,unpleasant,pleasant,NA,NA,NA,NA,NA,right,1279.90000003576,true,NA,NA,NA,NA,NA
LbJiIT8Y,3t2hw4qdvykwn81ckpslwayk1hg9co,3zgvpd4g6xuu20ju1bmcnsw96ofztg,LbJiIT8Y,2020-0188,2021-10-14,09:45:47,11:08:08,NA,incomplete,false,NA,true,5,0,NA,NA,NA,left,present,NA,NA,n_l_032.jpg,red,n_l_077.jpg,blue,between,NA,NaN,NA,right,3710.2999999523163,0,1,1014.6999999880791
LbJiIT8Y,3t2hw4qdvykwn81ckpslwayk1hg9co,3zgvpd4g6xuu20ju1bmcnsw96ofztg,LbJiIT8Y,2020-0188,2021-10-14,09:45:47,11:08:08,NA,incomplete,false,NA,true,5,1,NA,NA,NA,right,present,NA,NA,m_l_084.jpg,red,n_l_104.jpg,purple,between,NA,NaN,NA,right,1758.5,1,2,854.5
LbJiIT8Y,3t2hw4qdvykwn81ckpslwayk1hg9co,3zgvpd4g6xuu20ju1bmcnsw96ofztg,LbJiIT8Y,2020-0188,2021-10-14,09:45:47,11:08:08,NA,incomplete,false,NA,true,5,2,NA,NA,NA,right,present,NA,NA,m_l_051.jpg,purple,n_s_010.jpg,gray,between,NA,NaN,NA,right,1589.699999988079,1,1,902.5999999642372
LbJiIT8Y,3t2hw4qdvykwn81ckpslwayk1hg9co,3zgvpd4g6xuu20ju1bmcnsw96ofztg,LbJiIT8Y,2020-0188,2021-10-14,09:45:47,11:08:08,NA,incomplete,false,NA,true,5,3,NA,NA,NA,right,present,NA,NA,n_l_067.jpg,gray,n_s_100.jpg,gray,within,NA,NaN,NA,right,3574.600000023842,1,1,919.2999999523163
LbJiIT8Y,3t2hw4qdvykwn81ckpslwayk1hg9co,3zgvpd4g6xuu20ju1bmcnsw96ofztg,LbJiIT8Y,2020-0188,2021-10-14,09:45:47,11:08:08,NA,incomplete,false,NA,true,5,4,NA,NA,NA,left,present,NA,NA,n_s_055.jpg,black,m_l_091.jpg,gray,between,NA,NaN,NA,left,1534.7999999523163,1,1,1071.1000000238419
LbJiIT8Y,3t2hw4qdvykwn81ckpslwayk1hg9co,3zgvpd4g6xuu20ju1bmcnsw96ofztg,LbJiIT8Y,2020-0188,2021-10-14,09:45:47,11:08:08,NA,incomplete,false,NA,true,5,5,NA,NA,NA,right,present,NA,NA,m_s_078.jpg,yellow,n_l_029.jpg,blue,between,NA,NaN,NA,right,2703.100000023842,1,1,1111.0999999642372
LbJiIT8Y,3t2hw4qdvykwn81ckpslwayk1hg9co,3zgvpd4g6xuu20ju1bmcnsw96ofztg,LbJiIT8Y,2020-0188,2021-10-14,09:45:47,11:08:08,NA,incomplete,false,NA,true,5,6,NA,NA,NA,left,present,NA,NA,n_l_105.jpg,yellow,m_l_082.jpg,yellow,within,NA,NaN,NA,right,3511.199999988079,0,1,1079.0999999642372
LbJiIT8Y,3t2hw4qdvykwn81ckpslwayk1hg9co,3zgvpd4g6xuu20ju1bmcnsw96ofztg,LbJiIT8Y,2020-0188,2021-10-14,09:45:47,11:08:08,NA,incomplete,false,NA,true,5,7,NA,NA,NA,right,present,NA,NA,n_l_007.jpg,red,n_l_068.jpg,red,within,NA,NaN,NA,left,2280,0,2,903.1999999880791
LbJiIT8Y,3t2hw4qdvykwn81ckpslwayk1hg9co,3zgvpd4g6xuu20ju1bmcnsw96ofztg,LbJiIT8Y,2020-0188,2021-10-14,09:45:47,11:08:08,NA,incomplete,false,NA,true,5,8,NA,NA,NA,right,present,NA,NA,n_l_030.jpg,black,m_s_070.jpg,black,within,NA,NaN,NA,right,2447.199999988079,1,1,960.3999999761581
LbJiIT8Y,3t2hw4qdvykwn81ckpslwayk1hg9co,3zgvpd4g6xuu20ju1bmcnsw96ofztg,LbJiIT8Y,2020-0188,2021-10-14,09:45:47,11:08:08,NA,incomplete,false,NA,true,5,9,NA,NA,NA,left,present,NA,NA,m_l_029.jpg,purple,n_l_004.jpg,purple,within,NA,NaN,NA,left,2679,1,1,837.9000000357628
LbJiIT8Y,3t2hw4qdvykwn81ckpslwayk1hg9co,3zgvpd4g6xuu20ju1bmcnsw96ofztg,LbJiIT8Y,2020-0188,2021-10-14,09:45:47,11:08:08,NA,incomplete,false,NA,true,5,10,NA,NA,NA,left,present,NA,NA,n_l_075.jpg,blue,n_s_083.jpg,blue,within,NA,NaN,NA,left,1655.2999999523163,1,1,839.1000000238419
LbJiIT8Y,3t2hw4qdvykwn81ckpslwayk1hg9co,3zgvpd4g6xuu20ju1bmcnsw96ofztg,LbJiIT8Y,2020-0188,2021-10-14,09:45:47,11:08:08,NA,incomplete,false,true,NA,6,0,NA,green,n_s_024.jpg,NA,NA,pleasant,unpleasant,NA,NA,NA,NA,NA,left,1259.69999998808,true,NA,NA,NA,NA,NA
LbJiIT8Y,3t2hw4qdvykwn81ckpslwayk1hg9co,3zgvpd4g6xuu20ju1bmcnsw96ofztg,LbJiIT8Y,2020-0188,2021-10-14,09:45:47,11:08:08,NA,incomplete,false,true,NA,6,1,NA,green,m_s_015.jpg,NA,NA,unpleasant,pleasant,NA,NA,NA,NA,NA,right,1382.29999995232,true,NA,NA,NA,NA,NA
LbJiIT8Y,3t2hw4qdvykwn81ckpslwayk1hg9co,3zgvpd4g6xuu20ju1bmcnsw96ofztg,LbJiIT8Y,2020-0188,2021-10-14,09:45:47,11:08:08,NA,incomplete,false,true,NA,6,2,NA,green,m_s_016.jpg,NA,NA,unpleasant,pleasant,NA,NA,NA,NA,NA,right,1236.19999998808,true,NA,NA,NA,NA,NA
LbJiIT8Y,3t2hw4qdvykwn81ckpslwayk1hg9co,3zgvpd4g6xuu20ju1bmcnsw96ofztg,LbJiIT8Y,2020-0188,2021-10-14,09:45:47,11:08:08,NA,incomplete,false,true,NA,6,3,NA,green,n_s_051.jpg,NA,NA,pleasant,unpleasant,NA,NA,NA,NA,NA,left,1968.30000001192,true,NA,NA,NA,NA,NA
LbJiIT8Y,3t2hw4qdvykwn81ckpslwayk1hg9co,3zgvpd4g6xuu20ju1bmcnsw96ofztg,LbJiIT8Y,2020-0188,2021-10-14,09:45:47,11:08:08,NA,incomplete,false,true,NA,6,4,NA,green,n_l_054.jpg,NA,NA,pleasant,unpleasant,NA,NA,NA,NA,NA,left,1407.80000001192,true,NA,NA,NA,NA,NA
LbJiIT8Y,3t2hw4qdvykwn81ckpslwayk1hg9co,3zgvpd4g6xuu20ju1bmcnsw96ofztg,LbJiIT8Y,2020-0188,2021-10-14,09:45:47,11:08:08,NA,incomplete,false,true,NA,6,5,NA,green,n_s_092.jpg,NA,NA,unpleasant,pleasant,NA,NA,NA,NA,NA,right,1440.40000003576,true,NA,NA,NA,NA,NA
LbJiIT8Y,3t2hw4qdvykwn81ckpslwayk1hg9co,3zgvpd4g6xuu20ju1bmcnsw96ofztg,LbJiIT8Y,2020-0188,2021-10-14,09:45:47,11:08:08,NA,incomplete,false,true,NA,6,6,NA,white,n_l_103.jpg,NA,NA,pleasant,unpleasant,NA,NA,NA,NA,NA,right,1690.30000001192,true,NA,NA,NA,NA,NA
LbJiIT8Y,3t2hw4qdvykwn81ckpslwayk1hg9co,3zgvpd4g6xuu20ju1bmcnsw96ofztg,LbJiIT8Y,2020-0188,2021-10-14,09:45:47,11:08:08,NA,incomplete,false,true,NA,6,7,NA,white,n_s_021.jpg,NA,NA,pleasant,unpleasant,NA,NA,NA,NA,NA,left,1325,true,NA,NA,NA,NA,NA
LbJiIT8Y,3t2hw4qdvykwn81ckpslwayk1hg9co,3zgvpd4g6xuu20ju1bmcnsw96ofztg,LbJiIT8Y,2020-0188,2021-10-14,09:45:47,11:08:08,NA,incomplete,false,true,NA,6,8,NA,white,n_s_050.jpg,NA,NA,pleasant,unpleasant,NA,NA,NA,NA,NA,right,1478.30000001192,true,NA,NA,NA,NA,NA
LbJiIT8Y,3t2hw4qdvykwn81ckpslwayk1hg9co,3zgvpd4g6xuu20ju1bmcnsw96ofztg,LbJiIT8Y,2020-0188,2021-10-14,09:45:47,11:08:08,NA,incomplete,false,true,NA,6,9,NA,white,m_l_022.jpg,NA,NA,unpleasant,pleasant,NA,NA,NA,NA,NA,right,1468.5,true,NA,NA,NA,NA,NA
LbJiIT8Y,3t2hw4qdvykwn81ckpslwayk1hg9co,3zgvpd4g6xuu20ju1bmcnsw96ofztg,LbJiIT8Y,2020-0188,2021-10-14,09:45:47,11:08:08,NA,incomplete,false,true,NA,6,10,NA,white,n_l_013.jpg,NA,NA,pleasant,unpleasant,NA,NA,NA,NA,NA,left,2592.59999996424,true,NA,NA,NA,NA,NA
LbJiIT8Y,3t2hw4qdvykwn81ckpslwayk1hg9co,3zgvpd4g6xuu20ju1bmcnsw96ofztg,LbJiIT8Y,2020-0188,2021-10-14,09:45:47,11:08:08,NA,incomplete,false,true,NA,6,11,NA,white,m_s_050.jpg,NA,NA,pleasant,unpleasant,NA,NA,NA,NA,NA,left,1533.29999995232,true,NA,NA,NA,NA,NA
LbJiIT8Y,3t2hw4qdvykwn81ckpslwayk1hg9co,3zgvpd4g6xuu20ju1bmcnsw96ofztg,LbJiIT8Y,2020-0188,2021-10-14,09:45:47,11:08:08,NA,incomplete,false,true,NA,6,12,NA,purple,m_l_097.jpg,NA,NA,unpleasant,pleasant,NA,NA,NA,NA,NA,right,1574.69999998808,true,NA,NA,NA,NA,NA
LbJiIT8Y,3t2hw4qdvykwn81ckpslwayk1hg9co,3zgvpd4g6xuu20ju1bmcnsw96ofztg,LbJiIT8Y,2020-0188,2021-10-14,09:45:47,11:08:08,NA,incomplete,false,true,NA,6,13,NA,purple,m_s_017.jpg,NA,NA,pleasant,unpleasant,NA,NA,NA,NA,NA,left,1651.69999998808,true,NA,NA,NA,NA,NA
LbJiIT8Y,3t2hw4qdvykwn81ckpslwayk1hg9co,3zgvpd4g6xuu20ju1bmcnsw96ofztg,LbJiIT8Y,2020-0188,2021-10-14,09:45:47,11:08:08,NA,incomplete,false,true,NA,6,14,NA,purple,n_l_003.jpg,NA,NA,pleasant,unpleasant,NA,NA,NA,NA,NA,left,1181.39999997616,true,NA,NA,NA,NA,NA
LbJiIT8Y,3t2hw4qdvykwn81ckpslwayk1hg9co,3zgvpd4g6xuu20ju1bmcnsw96ofztg,LbJiIT8Y,2020-0188,2021-10-14,09:45:47,11:08:08,NA,incomplete,false,true,NA,6,15,NA,purple,m_l_107.jpg,NA,NA,unpleasant,pleasant,NA,NA,NA,NA,NA,left,1944.20000004768,true,NA,NA,NA,NA,NA
LbJiIT8Y,3t2hw4qdvykwn81ckpslwayk1hg9co,3zgvpd4g6xuu20ju1bmcnsw96ofztg,LbJiIT8Y,2020-0188,2021-10-14,09:45:47,11:08:08,NA,incomplete,false,true,NA,6,16,NA,purple,n_l_053.jpg,NA,NA,pleasant,unpleasant,NA,NA,NA,NA,NA,right,1651.39999997616,true,NA,NA,NA,NA,NA
LbJiIT8Y,3t2hw4qdvykwn81ckpslwayk1hg9co,3zgvpd4g6xuu20ju1bmcnsw96ofztg,LbJiIT8Y,2020-0188,2021-10-14,09:45:47,11:08:08,NA,incomplete,false,true,NA,6,17,NA,purple,m_l_085.jpg,NA,NA,pleasant,unpleasant,NA,NA,NA,NA,NA,left,1488.59999996424,true,NA,NA,NA,NA,NA
LbJiIT8Y,3t2hw4qdvykwn81ckpslwayk1hg9co,3zgvpd4g6xuu20ju1bmcnsw96ofztg,LbJiIT8Y,2020-0188,2021-10-14,09:45:47,11:08:08,NA,incomplete,false,true,NA,6,18,NA,black,n_s_053.jpg,NA,NA,pleasant,unpleasant,NA,NA,NA,NA,NA,left,1903.89999997616,true,NA,NA,NA,NA,NA
LbJiIT8Y,3t2hw4qdvykwn81ckpslwayk1hg9co,3zgvpd4g6xuu20ju1bmcnsw96ofztg,LbJiIT8Y,2020-0188,2021-10-14,09:45:47,11:08:08,NA,incomplete,false,true,NA,6,19,NA,black,m_l_052.jpg,NA,NA,unpleasant,pleasant,NA,NA,NA,NA,NA,right,1442.69999998808,true,NA,NA,NA,NA,NA
LbJiIT8Y,3t2hw4qdvykwn81ckpslwayk1hg9co,3zgvpd4g6xuu20ju1bmcnsw96ofztg,LbJiIT8Y,2020-0188,2021-10-14,09:45:47,11:08:08,NA,incomplete,false,true,NA,6,20,NA,black,n_s_070.jpg,NA,NA,unpleasant,pleasant,NA,NA,NA,NA,NA,right,2101,true,NA,NA,NA,NA,NA
LbJiIT8Y,3t2hw4qdvykwn81ckpslwayk1hg9co,3zgvpd4g6xuu20ju1bmcnsw96ofztg,LbJiIT8Y,2020-0188,2021-10-14,09:45:47,11:08:08,NA,incomplete,false,true,NA,6,21,NA,black,m_l_064.jpg,NA,NA,pleasant,unpleasant,NA,NA,NA,NA,NA,left,2068,true,NA,NA,NA,NA,NA
LbJiIT8Y,3t2hw4qdvykwn81ckpslwayk1hg9co,3zgvpd4g6xuu20ju1bmcnsw96ofztg,LbJiIT8Y,2020-0188,2021-10-14,09:45:47,11:08:08,NA,incomplete,false,true,NA,6,22,NA,black,n_s_101.jpg,NA,NA,pleasant,unpleasant,NA,NA,NA,NA,NA,right,1938.19999998808,true,NA,NA,NA,NA,NA
LbJiIT8Y,3t2hw4qdvykwn81ckpslwayk1hg9co,3zgvpd4g6xuu20ju1bmcnsw96ofztg,LbJiIT8Y,2020-0188,2021-10-14,09:45:47,11:08:08,NA,incomplete,false,true,NA,6,23,NA,black,n_s_034.jpg,NA,NA,unpleasant,pleasant,NA,NA,NA,NA,NA,right,1830.69999998808,true,NA,NA,NA,NA,NA
LbJiIT8Y,3t2hw4qdvykwn81ckpslwayk1hg9co,3zgvpd4g6xuu20ju1bmcnsw96ofztg,LbJiIT8Y,2020-0188,2021-10-14,09:45:47,11:08:08,NA,incomplete,false,true,NA,6,24,NA,blue,m_l_009.jpg,NA,NA,unpleasant,pleasant,NA,NA,NA,NA,NA,right,1374.89999997616,true,NA,NA,NA,NA,NA
LbJiIT8Y,3t2hw4qdvykwn81ckpslwayk1hg9co,3zgvpd4g6xuu20ju1bmcnsw96ofztg,LbJiIT8Y,2020-0188,2021-10-14,09:45:47,11:08:08,NA,incomplete,false,true,NA,6,25,NA,blue,n_s_085.jpg,NA,NA,unpleasant,pleasant,NA,NA,NA,NA,NA,right,1380.70000004768,true,NA,NA,NA,NA,NA
LbJiIT8Y,3t2hw4qdvykwn81ckpslwayk1hg9co,3zgvpd4g6xuu20ju1bmcnsw96ofztg,LbJiIT8Y,2020-0188,2021-10-14,09:45:47,11:08:08,NA,incomplete,false,true,NA,6,26,NA,blue,m_l_115.jpg,NA,NA,unpleasant,pleasant,NA,NA,NA,NA,NA,right,1510.60000002384,true,NA,NA,NA,NA,NA
LbJiIT8Y,3t2hw4qdvykwn81ckpslwayk1hg9co,3zgvpd4g6xuu20ju1bmcnsw96ofztg,LbJiIT8Y,2020-0188,2021-10-14,09:45:47,11:08:08,NA,incomplete,false,true,NA,6,27,NA,blue,n_l_011.jpg,NA,NA,unpleasant,pleasant,NA,NA,NA,NA,NA,left,1720.90000003576,true,NA,NA,NA,NA,NA
LbJiIT8Y,3t2hw4qdvykwn81ckpslwayk1hg9co,3zgvpd4g6xuu20ju1bmcnsw96ofztg,LbJiIT8Y,2020-0188,2021-10-14,09:45:47,11:08:08,NA,incomplete,false,true,NA,6,28,NA,blue,n_s_096.jpg,NA,NA,pleasant,unpleasant,NA,NA,NA,NA,NA,left,2252.19999998808,true,NA,NA,NA,NA,NA
LbJiIT8Y,3t2hw4qdvykwn81ckpslwayk1hg9co,3zgvpd4g6xuu20ju1bmcnsw96ofztg,LbJiIT8Y,2020-0188,2021-10-14,09:45:47,11:08:08,NA,incomplete,false,true,NA,6,29,NA,blue,n_s_019.jpg,NA,NA,pleasant,unpleasant,NA,NA,NA,NA,NA,left,1719.89999997616,true,NA,NA,NA,NA,NA
LbJiIT8Y,3t2hw4qdvykwn81ckpslwayk1hg9co,3zgvpd4g6xuu20ju1bmcnsw96ofztg,LbJiIT8Y,2020-0188,2021-10-14,09:45:47,11:08:08,NA,incomplete,false,true,NA,6,30,NA,gray,n_l_058.jpg,NA,NA,pleasant,unpleasant,NA,NA,NA,NA,NA,right,2016.09999996424,true,NA,NA,NA,NA,NA
LbJiIT8Y,3t2hw4qdvykwn81ckpslwayk1hg9co,3zgvpd4g6xuu20ju1bmcnsw96ofztg,LbJiIT8Y,2020-0188,2021-10-14,09:45:47,11:08:08,NA,incomplete,false,true,NA,6,31,NA,gray,m_s_116.jpg,NA,NA,pleasant,unpleasant,NA,NA,NA,NA,NA,left,1455.60000002384,true,NA,NA,NA,NA,NA
LbJiIT8Y,3t2hw4qdvykwn81ckpslwayk1hg9co,3zgvpd4g6xuu20ju1bmcnsw96ofztg,LbJiIT8Y,2020-0188,2021-10-14,09:45:47,11:08:08,NA,incomplete,false,true,NA,6,32,NA,gray,m_s_099.jpg,NA,NA,unpleasant,pleasant,NA,NA,NA,NA,NA,right,2255.30000001192,true,NA,NA,NA,NA,NA
LbJiIT8Y,3t2hw4qdvykwn81ckpslwayk1hg9co,3zgvpd4g6xuu20ju1bmcnsw96ofztg,LbJiIT8Y,2020-0188,2021-10-14,09:45:47,11:08:08,NA,incomplete,false,true,NA,6,33,NA,gray,n_s_071.jpg,NA,NA,pleasant,unpleasant,NA,NA,NA,NA,NA,left,1707.70000004768,true,NA,NA,NA,NA,NA
LbJiIT8Y,3t2hw4qdvykwn81ckpslwayk1hg9co,3zgvpd4g6xuu20ju1bmcnsw96ofztg,LbJiIT8Y,2020-0188,2021-10-14,09:45:47,11:08:08,NA,incomplete,false,true,NA,6,34,NA,gray,m_s_096.jpg,NA,NA,pleasant,unpleasant,NA,NA,NA,NA,NA,left,2024.89999997616,true,NA,NA,NA,NA,NA
LbJiIT8Y,3t2hw4qdvykwn81ckpslwayk1hg9co,3zgvpd4g6xuu20ju1bmcnsw96ofztg,LbJiIT8Y,2020-0188,2021-10-14,09:45:47,11:08:08,NA,incomplete,false,true,NA,6,35,NA,gray,m_l_069.jpg,NA,NA,unpleasant,pleasant,NA,NA,NA,NA,NA,left,1760.60000002384,true,NA,NA,NA,NA,NA
LbJiIT8Y,3t2hw4qdvykwn81ckpslwayk1hg9co,3zgvpd4g6xuu20ju1bmcnsw96ofztg,LbJiIT8Y,2020-0188,2021-10-14,09:45:47,11:08:08,NA,incomplete,false,NA,true,6,0,NA,NA,NA,right,present,NA,NA,n_s_050.jpg,white,n_l_054.jpg,green,between,NA,NaN,NA,right,1757.7000000476837,1,1,781.8000000119209
LbJiIT8Y,3t2hw4qdvykwn81ckpslwayk1hg9co,3zgvpd4g6xuu20ju1bmcnsw96ofztg,LbJiIT8Y,2020-0188,2021-10-14,09:45:47,11:08:08,NA,incomplete,false,NA,true,6,1,NA,NA,NA,right,present,NA,NA,m_l_085.jpg,purple,m_s_017.jpg,purple,within,NA,NaN,NA,right,4964.5,1,2,808.3000000119209
LbJiIT8Y,3t2hw4qdvykwn81ckpslwayk1hg9co,3zgvpd4g6xuu20ju1bmcnsw96ofztg,LbJiIT8Y,2020-0188,2021-10-14,09:45:47,11:08:08,NA,incomplete,false,NA,true,6,2,NA,NA,NA,right,present,NA,NA,n_s_092.jpg,green,m_s_015.jpg,green,within,NA,NaN,NA,left,1926.5,0,1,910.8000000119209
LbJiIT8Y,3t2hw4qdvykwn81ckpslwayk1hg9co,3zgvpd4g6xuu20ju1bmcnsw96ofztg,LbJiIT8Y,2020-0188,2021-10-14,09:45:47,11:08:08,NA,incomplete,false,NA,true,6,3,NA,NA,NA,left,present,NA,NA,n_l_013.jpg,white,n_l_003.jpg,purple,between,NA,NaN,NA,left,2127.199999988079,1,1,919.1999999880791
LbJiIT8Y,3t2hw4qdvykwn81ckpslwayk1hg9co,3zgvpd4g6xuu20ju1bmcnsw96ofztg,LbJiIT8Y,2020-0188,2021-10-14,09:45:47,11:08:08,NA,incomplete,false,NA,true,6,4,NA,NA,NA,left,present,NA,NA,n_l_053.jpg,purple,n_s_070.jpg,black,between,NA,NaN,NA,left,2871.399999976158,1,2,862.9000000357628
LbJiIT8Y,3t2hw4qdvykwn81ckpslwayk1hg9co,3zgvpd4g6xuu20ju1bmcnsw96ofztg,LbJiIT8Y,2020-0188,2021-10-14,09:45:47,11:08:08,NA,incomplete,false,NA,true,6,5,NA,NA,NA,right,present,NA,NA,m_s_050.jpg,white,n_s_021.jpg,white,within,NA,NaN,NA,left,2711.300000011921,0,1,878.6000000238419
LbJiIT8Y,3t2hw4qdvykwn81ckpslwayk1hg9co,3zgvpd4g6xuu20ju1bmcnsw96ofztg,LbJiIT8Y,2020-0188,2021-10-14,09:45:47,11:08:08,NA,incomplete,false,NA,true,6,6,NA,NA,NA,right,present,NA,NA,n_s_019.jpg,blue,n_s_085.jpg,blue,within,NA,NaN,NA,left,1895.300000011921,0,2,855.8000000119209
LbJiIT8Y,3t2hw4qdvykwn81ckpslwayk1hg9co,3zgvpd4g6xuu20ju1bmcnsw96ofztg,LbJiIT8Y,2020-0188,2021-10-14,09:45:47,11:08:08,NA,incomplete,false,NA,true,6,7,NA,NA,NA,right,present,NA,NA,m_l_069.jpg,gray,m_s_116.jpg,gray,within,NA,NaN,NA,right,1767.199999988079,1,1,992.2000000476837
LbJiIT8Y,3t2hw4qdvykwn81ckpslwayk1hg9co,3zgvpd4g6xuu20ju1bmcnsw96ofztg,LbJiIT8Y,2020-0188,2021-10-14,09:45:47,11:08:08,NA,incomplete,false,NA,true,6,8,NA,NA,NA,right,present,NA,NA,m_s_099.jpg,gray,n_s_096.jpg,blue,between,NA,NaN,NA,right,2791.900000035763,1,1,600.5
LbJiIT8Y,3t2hw4qdvykwn81ckpslwayk1hg9co,3zgvpd4g6xuu20ju1bmcnsw96ofztg,LbJiIT8Y,2020-0188,2021-10-14,09:45:47,11:08:08,NA,incomplete,false,NA,true,6,9,NA,NA,NA,right,present,NA,NA,m_l_115.jpg,blue,n_s_101.jpg,black,between,NA,NaN,NA,left,1607.699999988079,0,2,1223.300000011921
LbJiIT8Y,3t2hw4qdvykwn81ckpslwayk1hg9co,3zgvpd4g6xuu20ju1bmcnsw96ofztg,LbJiIT8Y,2020-0188,2021-10-14,09:45:47,11:08:08,NA,incomplete,false,NA,true,6,10,NA,NA,NA,left,present,NA,NA,m_l_052.jpg,black,n_s_034.jpg,black,within,NA,NaN,NA,left,1591.1000000238419,1,2,1726.5
LbJiIT8Y,3t2hw4qdvykwn81ckpslwayk1hg9co,3zgvpd4g6xuu20ju1bmcnsw96ofztg,LbJiIT8Y,2020-0188,2021-10-14,09:45:47,11:08:08,NA,incomplete,false,true,NA,7,0,NA,orange,m_l_044.jpg,NA,NA,unpleasant,pleasant,NA,NA,NA,NA,NA,right,1786.69999998808,true,NA,NA,NA,NA,NA
LbJiIT8Y,3t2hw4qdvykwn81ckpslwayk1hg9co,3zgvpd4g6xuu20ju1bmcnsw96ofztg,LbJiIT8Y,2020-0188,2021-10-14,09:45:47,11:08:08,NA,incomplete,false,true,NA,7,1,NA,orange,m_l_066.jpg,NA,NA,pleasant,unpleasant,NA,NA,NA,NA,NA,left,1526.69999998808,true,NA,NA,NA,NA,NA
LbJiIT8Y,3t2hw4qdvykwn81ckpslwayk1hg9co,3zgvpd4g6xuu20ju1bmcnsw96ofztg,LbJiIT8Y,2020-0188,2021-10-14,09:45:47,11:08:08,NA,incomplete,false,true,NA,7,2,NA,orange,m_s_014.jpg,NA,NA,unpleasant,pleasant,NA,NA,NA,NA,NA,left,1951.40000003576,true,NA,NA,NA,NA,NA
LbJiIT8Y,3t2hw4qdvykwn81ckpslwayk1hg9co,3zgvpd4g6xuu20ju1bmcnsw96ofztg,LbJiIT8Y,2020-0188,2021-10-14,09:45:47,11:08:08,NA,incomplete,false,true,NA,7,3,NA,orange,n_s_013.jpg,NA,NA,unpleasant,pleasant,NA,NA,NA,NA,NA,right,1534.70000004768,true,NA,NA,NA,NA,NA
LbJiIT8Y,3t2hw4qdvykwn81ckpslwayk1hg9co,3zgvpd4g6xuu20ju1bmcnsw96ofztg,LbJiIT8Y,2020-0188,2021-10-14,09:45:47,11:08:08,NA,incomplete,false,true,NA,7,4,NA,orange,m_l_095.jpg,NA,NA,pleasant,unpleasant,NA,NA,NA,NA,NA,left,1585.69999998808,true,NA,NA,NA,NA,NA
LbJiIT8Y,3t2hw4qdvykwn81ckpslwayk1hg9co,3zgvpd4g6xuu20ju1bmcnsw96ofztg,LbJiIT8Y,2020-0188,2021-10-14,09:45:47,11:08:08,NA,incomplete,false,true,NA,7,5,NA,orange,n_l_026.jpg,NA,NA,unpleasant,pleasant,NA,NA,NA,NA,NA,right,1799.30000001192,true,NA,NA,NA,NA,NA
LbJiIT8Y,3t2hw4qdvykwn81ckpslwayk1hg9co,3zgvpd4g6xuu20ju1bmcnsw96ofztg,LbJiIT8Y,2020-0188,2021-10-14,09:45:47,11:08:08,NA,incomplete,false,true,NA,7,6,NA,yellow,m_s_083.jpg,NA,NA,unpleasant,pleasant,NA,NA,NA,NA,NA,right,1579.40000003576,true,NA,NA,NA,NA,NA
LbJiIT8Y,3t2hw4qdvykwn81ckpslwayk1hg9co,3zgvpd4g6xuu20ju1bmcnsw96ofztg,LbJiIT8Y,2020-0188,2021-10-14,09:45:47,11:08:08,NA,incomplete,false,true,NA,7,7,NA,yellow,m_s_105.jpg,NA,NA,pleasant,unpleasant,NA,NA,NA,NA,NA,left,1587.09999996424,true,NA,NA,NA,NA,NA
LbJiIT8Y,3t2hw4qdvykwn81ckpslwayk1hg9co,3zgvpd4g6xuu20ju1bmcnsw96ofztg,LbJiIT8Y,2020-0188,2021-10-14,09:45:47,11:08:08,NA,incomplete,false,true,NA,7,8,NA,yellow,n_l_087.jpg,NA,NA,unpleasant,pleasant,NA,NA,NA,NA,NA,right,1892.59999996424,true,NA,NA,NA,NA,NA
LbJiIT8Y,3t2hw4qdvykwn81ckpslwayk1hg9co,3zgvpd4g6xuu20ju1bmcnsw96ofztg,LbJiIT8Y,2020-0188,2021-10-14,09:45:47,11:08:08,NA,incomplete,false,true,NA,7,9,NA,yellow,m_s_051.jpg,NA,NA,pleasant,unpleasant,NA,NA,NA,NA,NA,left,1846.59999996424,true,NA,NA,NA,NA,NA
LbJiIT8Y,3t2hw4qdvykwn81ckpslwayk1hg9co,3zgvpd4g6xuu20ju1bmcnsw96ofztg,LbJiIT8Y,2020-0188,2021-10-14,09:45:47,11:08:08,NA,incomplete,false,true,NA,7,10,NA,yellow,m_l_030.jpg,NA,NA,unpleasant,pleasant,NA,NA,NA,NA,NA,right,1533.39999997616,true,NA,NA,NA,NA,NA
LbJiIT8Y,3t2hw4qdvykwn81ckpslwayk1hg9co,3zgvpd4g6xuu20ju1bmcnsw96ofztg,LbJiIT8Y,2020-0188,2021-10-14,09:45:47,11:08:08,NA,incomplete,false,true,NA,7,11,NA,yellow,n_l_046.jpg,NA,NA,unpleasant,pleasant,NA,NA,NA,NA,NA,right,1519.40000003576,true,NA,NA,NA,NA,NA
LbJiIT8Y,3t2hw4qdvykwn81ckpslwayk1hg9co,3zgvpd4g6xuu20ju1bmcnsw96ofztg,LbJiIT8Y,2020-0188,2021-10-14,09:45:47,11:08:08,NA,incomplete,false,true,NA,7,12,NA,white,n_l_094.jpg,NA,NA,pleasant,unpleasant,NA,NA,NA,NA,NA,left,1541.80000001192,true,NA,NA,NA,NA,NA
LbJiIT8Y,3t2hw4qdvykwn81ckpslwayk1hg9co,3zgvpd4g6xuu20ju1bmcnsw96ofztg,LbJiIT8Y,2020-0188,2021-10-14,09:45:47,11:08:08,NA,incomplete,false,true,NA,7,13,NA,white,n_l_045.jpg,NA,NA,pleasant,unpleasant,NA,NA,NA,NA,NA,left,1673.10000002384,true,NA,NA,NA,NA,NA
LbJiIT8Y,3t2hw4qdvykwn81ckpslwayk1hg9co,3zgvpd4g6xuu20ju1bmcnsw96ofztg,LbJiIT8Y,2020-0188,2021-10-14,09:45:47,11:08:08,NA,incomplete,false,true,NA,7,14,NA,white,n_l_048.jpg,NA,NA,pleasant,unpleasant,NA,NA,NA,NA,NA,left,1916.60000002384,true,NA,NA,NA,NA,NA
LbJiIT8Y,3t2hw4qdvykwn81ckpslwayk1hg9co,3zgvpd4g6xuu20ju1bmcnsw96ofztg,LbJiIT8Y,2020-0188,2021-10-14,09:45:47,11:08:08,NA,incomplete,false,true,NA,7,15,NA,white,m_s_038.jpg,NA,NA,unpleasant,pleasant,NA,NA,NA,NA,NA,right,2042.89999997616,true,NA,NA,NA,NA,NA
LbJiIT8Y,3t2hw4qdvykwn81ckpslwayk1hg9co,3zgvpd4g6xuu20ju1bmcnsw96ofztg,LbJiIT8Y,2020-0188,2021-10-14,09:45:47,11:08:08,NA,incomplete,false,true,NA,7,16,NA,white,n_s_105.jpg,NA,NA,unpleasant,pleasant,NA,NA,NA,NA,NA,left,1603.89999997616,true,NA,NA,NA,NA,NA
LbJiIT8Y,3t2hw4qdvykwn81ckpslwayk1hg9co,3zgvpd4g6xuu20ju1bmcnsw96ofztg,LbJiIT8Y,2020-0188,2021-10-14,09:45:47,11:08:08,NA,incomplete,false,true,NA,7,17,NA,white,n_s_062.jpg,NA,NA,pleasant,unpleasant,NA,NA,NA,NA,NA,left,2633.89999997616,true,NA,NA,NA,NA,NA
LbJiIT8Y,3t2hw4qdvykwn81ckpslwayk1hg9co,3zgvpd4g6xuu20ju1bmcnsw96ofztg,LbJiIT8Y,2020-0188,2021-10-14,09:45:47,11:08:08,NA,incomplete,false,true,NA,7,18,NA,red,m_s_006.jpg,NA,NA,pleasant,unpleasant,NA,NA,NA,NA,NA,left,1781.39999997616,true,NA,NA,NA,NA,NA
LbJiIT8Y,3t2hw4qdvykwn81ckpslwayk1hg9co,3zgvpd4g6xuu20ju1bmcnsw96ofztg,LbJiIT8Y,2020-0188,2021-10-14,09:45:47,11:08:08,NA,incomplete,false,true,NA,7,19,NA,red,m_s_052.jpg,NA,NA,pleasant,unpleasant,NA,NA,NA,NA,NA,left,1550,true,NA,NA,NA,NA,NA
LbJiIT8Y,3t2hw4qdvykwn81ckpslwayk1hg9co,3zgvpd4g6xuu20ju1bmcnsw96ofztg,LbJiIT8Y,2020-0188,2021-10-14,09:45:47,11:08:08,NA,incomplete,false,true,NA,7,20,NA,red,n_l_088.jpg,NA,NA,unpleasant,pleasant,NA,NA,NA,NA,NA,right,2119.60000002384,true,NA,NA,NA,NA,NA
LbJiIT8Y,3t2hw4qdvykwn81ckpslwayk1hg9co,3zgvpd4g6xuu20ju1bmcnsw96ofztg,LbJiIT8Y,2020-0188,2021-10-14,09:45:47,11:08:08,NA,incomplete,false,true,NA,7,21,NA,red,m_l_056.jpg,NA,NA,pleasant,unpleasant,NA,NA,NA,NA,NA,left,3123.19999998808,true,NA,NA,NA,NA,NA
LbJiIT8Y,3t2hw4qdvykwn81ckpslwayk1hg9co,3zgvpd4g6xuu20ju1bmcnsw96ofztg,LbJiIT8Y,2020-0188,2021-10-14,09:45:47,11:08:08,NA,incomplete,false,true,NA,7,22,NA,red,n_s_107.jpg,NA,NA,unpleasant,pleasant,NA,NA,NA,NA,NA,right,1821.69999998808,true,NA,NA,NA,NA,NA
LbJiIT8Y,3t2hw4qdvykwn81ckpslwayk1hg9co,3zgvpd4g6xuu20ju1bmcnsw96ofztg,LbJiIT8Y,2020-0188,2021-10-14,09:45:47,11:08:08,NA,incomplete,false,true,NA,7,23,NA,red,m_s_112.jpg,NA,NA,pleasant,unpleasant,NA,NA,NA,NA,NA,left,1761.29999995232,true,NA,NA,NA,NA,NA
LbJiIT8Y,3t2hw4qdvykwn81ckpslwayk1hg9co,3zgvpd4g6xuu20ju1bmcnsw96ofztg,LbJiIT8Y,2020-0188,2021-10-14,09:45:47,11:08:08,NA,incomplete,false,true,NA,7,24,NA,black,m_s_044.jpg,NA,NA,unpleasant,pleasant,NA,NA,NA,NA,NA,right,1672.60000002384,true,NA,NA,NA,NA,NA
LbJiIT8Y,3t2hw4qdvykwn81ckpslwayk1hg9co,3zgvpd4g6xuu20ju1bmcnsw96ofztg,LbJiIT8Y,2020-0188,2021-10-14,09:45:47,11:08:08,NA,incomplete,false,true,NA,7,25,NA,black,m_s_056.jpg,NA,NA,pleasant,unpleasant,NA,NA,NA,NA,NA,left,2069.30000001192,true,NA,NA,NA,NA,NA
LbJiIT8Y,3t2hw4qdvykwn81ckpslwayk1hg9co,3zgvpd4g6xuu20ju1bmcnsw96ofztg,LbJiIT8Y,2020-0188,2021-10-14,09:45:47,11:08:08,NA,incomplete,false,true,NA,7,26,NA,black,n_s_044.jpg,NA,NA,pleasant,unpleasant,NA,NA,NA,NA,NA,left,3412.09999996424,true,NA,NA,NA,NA,NA
LbJiIT8Y,3t2hw4qdvykwn81ckpslwayk1hg9co,3zgvpd4g6xuu20ju1bmcnsw96ofztg,LbJiIT8Y,2020-0188,2021-10-14,09:45:47,11:08:08,NA,incomplete,false,true,NA,7,27,NA,black,m_l_061.jpg,NA,NA,pleasant,unpleasant,NA,NA,NA,NA,NA,left,1255.19999998808,true,NA,NA,NA,NA,NA
LbJiIT8Y,3t2hw4qdvykwn81ckpslwayk1hg9co,3zgvpd4g6xuu20ju1bmcnsw96ofztg,LbJiIT8Y,2020-0188,2021-10-14,09:45:47,11:08:08,NA,incomplete,false,true,NA,7,28,NA,black,n_l_044.jpg,NA,NA,pleasant,unpleasant,NA,NA,NA,NA,NA,left,1465.10000002384,true,NA,NA,NA,NA,NA
LbJiIT8Y,3t2hw4qdvykwn81ckpslwayk1hg9co,3zgvpd4g6xuu20ju1bmcnsw96ofztg,LbJiIT8Y,2020-0188,2021-10-14,09:45:47,11:08:08,NA,incomplete,false,true,NA,7,29,NA,black,m_l_093.jpg,NA,NA,pleasant,unpleasant,NA,NA,NA,NA,NA,right,2134.69999998808,true,NA,NA,NA,NA,NA
LbJiIT8Y,3t2hw4qdvykwn81ckpslwayk1hg9co,3zgvpd4g6xuu20ju1bmcnsw96ofztg,LbJiIT8Y,2020-0188,2021-10-14,09:45:47,11:08:08,NA,incomplete,false,true,NA,7,30,NA,green,n_s_014.jpg,NA,NA,pleasant,unpleasant,NA,NA,NA,NA,NA,left,1500.10000002384,true,NA,NA,NA,NA,NA
LbJiIT8Y,3t2hw4qdvykwn81ckpslwayk1hg9co,3zgvpd4g6xuu20ju1bmcnsw96ofztg,LbJiIT8Y,2020-0188,2021-10-14,09:45:47,11:08:08,NA,incomplete,false,true,NA,7,31,NA,green,n_s_020.jpg,NA,NA,unpleasant,pleasant,NA,NA,NA,NA,NA,right,1370.10000002384,true,NA,NA,NA,NA,NA
LbJiIT8Y,3t2hw4qdvykwn81ckpslwayk1hg9co,3zgvpd4g6xuu20ju1bmcnsw96ofztg,LbJiIT8Y,2020-0188,2021-10-14,09:45:47,11:08:08,NA,incomplete,false,true,NA,7,32,NA,green,m_s_090.jpg,NA,NA,pleasant,unpleasant,NA,NA,NA,NA,NA,left,2028.89999997616,true,NA,NA,NA,NA,NA
LbJiIT8Y,3t2hw4qdvykwn81ckpslwayk1hg9co,3zgvpd4g6xuu20ju1bmcnsw96ofztg,LbJiIT8Y,2020-0188,2021-10-14,09:45:47,11:08:08,NA,incomplete,false,true,NA,7,33,NA,green,m_l_001.jpg,NA,NA,pleasant,unpleasant,NA,NA,NA,NA,NA,right,2339.30000001192,true,NA,NA,NA,NA,NA
LbJiIT8Y,3t2hw4qdvykwn81ckpslwayk1hg9co,3zgvpd4g6xuu20ju1bmcnsw96ofztg,LbJiIT8Y,2020-0188,2021-10-14,09:45:47,11:08:08,NA,incomplete,false,true,NA,7,34,NA,green,m_s_042.jpg,NA,NA,pleasant,unpleasant,NA,NA,NA,NA,NA,left,1656.40000003576,true,NA,NA,NA,NA,NA
LbJiIT8Y,3t2hw4qdvykwn81ckpslwayk1hg9co,3zgvpd4g6xuu20ju1bmcnsw96ofztg,LbJiIT8Y,2020-0188,2021-10-14,09:45:47,11:08:08,NA,incomplete,false,true,NA,7,35,NA,green,m_s_040.jpg,NA,NA,unpleasant,pleasant,NA,NA,NA,NA,NA,right,1481.5,true,NA,NA,NA,NA,NA
LbJiIT8Y,3t2hw4qdvykwn81ckpslwayk1hg9co,3zgvpd4g6xuu20ju1bmcnsw96ofztg,LbJiIT8Y,2020-0188,2021-10-14,09:45:47,11:08:08,NA,incomplete,false,NA,true,7,0,NA,NA,NA,left,present,NA,NA,m_l_095.jpg,orange,n_l_087.jpg,yellow,between,NA,NaN,NA,left,2437.5,1,1,838.3000000119209
LbJiIT8Y,3t2hw4qdvykwn81ckpslwayk1hg9co,3zgvpd4g6xuu20ju1bmcnsw96ofztg,LbJiIT8Y,2020-0188,2021-10-14,09:45:47,11:08:08,NA,incomplete,false,NA,true,7,1,NA,NA,NA,right,present,NA,NA,n_l_048.jpg,white,m_l_030.jpg,yellow,between,NA,NaN,NA,right,1734.2999999523163,1,1,1022.3999999761581
LbJiIT8Y,3t2hw4qdvykwn81ckpslwayk1hg9co,3zgvpd4g6xuu20ju1bmcnsw96ofztg,LbJiIT8Y,2020-0188,2021-10-14,09:45:47,11:08:08,NA,incomplete,false,NA,true,7,2,NA,NA,NA,right,present,NA,NA,m_l_093.jpg,black,m_s_056.jpg,black,within,NA,NaN,NA,left,2823,0,1,886.3999999761581
LbJiIT8Y,3t2hw4qdvykwn81ckpslwayk1hg9co,3zgvpd4g6xuu20ju1bmcnsw96ofztg,LbJiIT8Y,2020-0188,2021-10-14,09:45:47,11:08:08,NA,incomplete,false,NA,true,7,3,NA,NA,NA,left,present,NA,NA,m_l_066.jpg,orange,n_l_026.jpg,orange,within,NA,NaN,NA,left,2198.899999976158,1,1,855
LbJiIT8Y,3t2hw4qdvykwn81ckpslwayk1hg9co,3zgvpd4g6xuu20ju1bmcnsw96ofztg,LbJiIT8Y,2020-0188,2021-10-14,09:45:47,11:08:08,NA,incomplete,false,NA,true,7,4,NA,NA,NA,left,present,NA,NA,m_s_105.jpg,yellow,n_l_046.jpg,yellow,within,NA,NaN,NA,left,1655.3999999761581,1,1,791.1999999880791
LbJiIT8Y,3t2hw4qdvykwn81ckpslwayk1hg9co,3zgvpd4g6xuu20ju1bmcnsw96ofztg,LbJiIT8Y,2020-0188,2021-10-14,09:45:47,11:08:08,NA,incomplete,false,NA,true,7,5,NA,NA,NA,right,present,NA,NA,n_s_062.jpg,white,n_l_045.jpg,white,within,NA,NaN,NA,left,2695.100000023842,0,1,751.1999999880791
LbJiIT8Y,3t2hw4qdvykwn81ckpslwayk1hg9co,3zgvpd4g6xuu20ju1bmcnsw96ofztg,LbJiIT8Y,2020-0188,2021-10-14,09:45:47,11:08:08,NA,incomplete,false,NA,true,7,6,NA,NA,NA,right,present,NA,NA,m_s_112.jpg,red,m_s_052.jpg,red,within,NA,NaN,NA,left,2383.300000011921,0,0,703.1999999880791
LbJiIT8Y,3t2hw4qdvykwn81ckpslwayk1hg9co,3zgvpd4g6xuu20ju1bmcnsw96ofztg,LbJiIT8Y,2020-0188,2021-10-14,09:45:47,11:08:08,NA,incomplete,false,NA,true,7,7,NA,NA,NA,left,present,NA,NA,n_s_020.jpg,green,m_s_040.jpg,green,within,NA,NaN,NA,left,1599.199999988079,1,0,1431.199999988079
LbJiIT8Y,3t2hw4qdvykwn81ckpslwayk1hg9co,3zgvpd4g6xuu20ju1bmcnsw96ofztg,LbJiIT8Y,2020-0188,2021-10-14,09:45:47,11:08:08,NA,incomplete,false,NA,true,7,8,NA,NA,NA,right,present,NA,NA,n_s_044.jpg,black,n_s_107.jpg,red,between,NA,NaN,NA,right,1319.0999999642372,1,1,679.0999999642372
LbJiIT8Y,3t2hw4qdvykwn81ckpslwayk1hg9co,3zgvpd4g6xuu20ju1bmcnsw96ofztg,LbJiIT8Y,2020-0188,2021-10-14,09:45:47,11:08:08,NA,incomplete,false,NA,true,7,9,NA,NA,NA,right,present,NA,NA,m_s_090.jpg,green,n_l_044.jpg,black,between,NA,NaN,NA,right,1856.199999988079,1,1,1007
LbJiIT8Y,3t2hw4qdvykwn81ckpslwayk1hg9co,3zgvpd4g6xuu20ju1bmcnsw96ofztg,LbJiIT8Y,2020-0188,2021-10-14,09:45:47,11:08:08,NA,incomplete,false,NA,true,7,10,NA,NA,NA,left,present,NA,NA,n_s_105.jpg,white,n_l_088.jpg,red,between,NA,NaN,NA,left,1503.1000000238419,1,1,790.1000000238419
LbJiIT8Y,3t2hw4qdvykwn81ckpslwayk1hg9co,3zgvpd4g6xuu20ju1bmcnsw96ofztg,LbJiIT8Y,2020-0188,2021-10-14,09:45:47,11:08:08,NA,incomplete,false,true,NA,8,0,NA,purple,n_s_095.jpg,NA,NA,unpleasant,pleasant,NA,NA,NA,NA,NA,right,1734.59999996424,true,NA,NA,NA,NA,NA
LbJiIT8Y,3t2hw4qdvykwn81ckpslwayk1hg9co,3zgvpd4g6xuu20ju1bmcnsw96ofztg,LbJiIT8Y,2020-0188,2021-10-14,09:45:47,11:08:08,NA,incomplete,false,true,NA,8,1,NA,purple,n_l_005.jpg,NA,NA,pleasant,unpleasant,NA,NA,NA,NA,NA,left,1717.60000002384,true,NA,NA,NA,NA,NA
LbJiIT8Y,3t2hw4qdvykwn81ckpslwayk1hg9co,3zgvpd4g6xuu20ju1bmcnsw96ofztg,LbJiIT8Y,2020-0188,2021-10-14,09:45:47,11:08:08,NA,incomplete,false,true,NA,8,2,NA,purple,n_s_110.jpg,NA,NA,pleasant,unpleasant,NA,NA,NA,NA,NA,left,1391.30000001192,true,NA,NA,NA,NA,NA
LbJiIT8Y,3t2hw4qdvykwn81ckpslwayk1hg9co,3zgvpd4g6xuu20ju1bmcnsw96ofztg,LbJiIT8Y,2020-0188,2021-10-14,09:45:47,11:08:08,NA,incomplete,false,true,NA,8,3,NA,purple,m_l_032.jpg,NA,NA,unpleasant,pleasant,NA,NA,NA,NA,NA,right,1572.69999998808,true,NA,NA,NA,NA,NA
LbJiIT8Y,3t2hw4qdvykwn81ckpslwayk1hg9co,3zgvpd4g6xuu20ju1bmcnsw96ofztg,LbJiIT8Y,2020-0188,2021-10-14,09:45:47,11:08:08,NA,incomplete,false,true,NA,8,4,NA,purple,m_s_097.jpg,NA,NA,pleasant,unpleasant,NA,NA,NA,NA,NA,right,1560.5,true,NA,NA,NA,NA,NA
LbJiIT8Y,3t2hw4qdvykwn81ckpslwayk1hg9co,3zgvpd4g6xuu20ju1bmcnsw96ofztg,LbJiIT8Y,2020-0188,2021-10-14,09:45:47,11:08:08,NA,incomplete,false,true,NA,8,5,NA,purple,n_l_014.jpg,NA,NA,pleasant,unpleasant,NA,NA,NA,NA,NA,left,1295.69999998808,true,NA,NA,NA,NA,NA
LbJiIT8Y,3t2hw4qdvykwn81ckpslwayk1hg9co,3zgvpd4g6xuu20ju1bmcnsw96ofztg,LbJiIT8Y,2020-0188,2021-10-14,09:45:47,11:08:08,NA,incomplete,false,true,NA,8,6,NA,blue,n_l_038.jpg,NA,NA,unpleasant,pleasant,NA,NA,NA,NA,NA,right,1107.90000003576,true,NA,NA,NA,NA,NA
LbJiIT8Y,3t2hw4qdvykwn81ckpslwayk1hg9co,3zgvpd4g6xuu20ju1bmcnsw96ofztg,LbJiIT8Y,2020-0188,2021-10-14,09:45:47,11:08:08,NA,incomplete,false,true,NA,8,7,NA,blue,m_s_080.jpg,NA,NA,unpleasant,pleasant,NA,NA,NA,NA,NA,right,1607.09999996424,true,NA,NA,NA,NA,NA
