workerId,hitId,assignmentId,subject,studyid,exp_date,exp_start,exp_end,time_start,time_end,practice,encoding,memory,block,trial,event_order,event,stim,answer,context_type,label_left,label_right,left_image,left_event,right_image,right_event,condition,response,response_time,response_acc,order_response,order_response_time,order_acc,distance_response,distance_response_time
lVuu8Xp0,3o4vwc1gfzjxgki2d88xs18tr9fj3v,3wi0p0ii655ejk1654skwlcoumlrdb,lVuu8Xp0,2020-0188,2021-10-14,08:30:50,10:04:21,NA,incomplete,true,true,NA,0,0,NA,yellow,m_l_107.jpg,NA,NA,pleasant,unpleasant,NA,NA,NA,NA,NA,right,1384.09999999963,true,NA,NA,NA,NA,NA
lVuu8Xp0,3o4vwc1gfzjxgki2d88xs18tr9fj3v,3wi0p0ii655ejk1654skwlcoumlrdb,lVuu8Xp0,2020-0188,2021-10-14,08:30:50,10:04:21,NA,incomplete,true,true,NA,0,1,NA,yellow,n_l_020.jpg,NA,NA,pleasant,unpleasant,NA,NA,NA,NA,NA,left,2185.09999999963,true,NA,NA,NA,NA,NA
lVuu8Xp0,3o4vwc1gfzjxgki2d88xs18tr9fj3v,3wi0p0ii655ejk1654skwlcoumlrdb,lVuu8Xp0,2020-0188,2021-10-14,08:30:50,10:04:21,NA,incomplete,true,true,NA,0,2,NA,yellow,n_l_043.jpg,NA,NA,unpleasant,pleasant,NA,NA,NA,NA,NA,left,1583.90000000037,true,NA,NA,NA,NA,NA
lVuu8Xp0,3o4vwc1gfzjxgki2d88xs18tr9fj3v,3wi0p0ii655ejk1654skwlcoumlrdb,lVuu8Xp0,2020-0188,2021-10-14,08:30:50,10:04:21,NA,incomplete,true,true,NA,0,3,NA,yellow,m_s_070.jpg,NA,NA,unpleasant,pleasant,NA,NA,NA,NA,NA,left,2199.29999999888,true,NA,NA,NA,NA,NA
lVuu8Xp0,3o4vwc1gfzjxgki2d88xs18tr9fj3v,3wi0p0ii655ejk1654skwlcoumlrdb,lVuu8Xp0,2020-0188,2021-10-14,08:30:50,10:04:21,NA,incomplete,true,true,NA,0,4,NA,yellow,m_s_033.jpg,NA,NA,pleasant,unpleasant,NA,NA,NA,NA,NA,right,2203.70000000112,true,NA,NA,NA,NA,NA
lVuu8Xp0,3o4vwc1gfzjxgki2d88xs18tr9fj3v,3wi0p0ii655ejk1654skwlcoumlrdb,lVuu8Xp0,2020-0188,2021-10-14,08:30:50,10:04:21,NA,incomplete,true,true,NA,0,5,NA,yellow,m_l_021.jpg,NA,NA,pleasant,unpleasant,NA,NA,NA,NA,NA,left,1970.20000000112,true,NA,NA,NA,NA,NA
lVuu8Xp0,3o4vwc1gfzjxgki2d88xs18tr9fj3v,3wi0p0ii655ejk1654skwlcoumlrdb,lVuu8Xp0,2020-0188,2021-10-14,08:30:50,10:04:21,NA,incomplete,true,true,NA,0,6,NA,brown,m_s_084.jpg,NA,NA,unpleasant,pleasant,NA,NA,NA,NA,NA,left,1568.19999999925,true,NA,NA,NA,NA,NA
lVuu8Xp0,3o4vwc1gfzjxgki2d88xs18tr9fj3v,3wi0p0ii655ejk1654skwlcoumlrdb,lVuu8Xp0,2020-0188,2021-10-14,08:30:50,10:04:21,NA,incomplete,true,true,NA,0,7,NA,brown,m_s_101.jpg,NA,NA,pleasant,unpleasant,NA,NA,NA,NA,NA,left,2084.59999999963,true,NA,NA,NA,NA,NA
lVuu8Xp0,3o4vwc1gfzjxgki2d88xs18tr9fj3v,3wi0p0ii655ejk1654skwlcoumlrdb,lVuu8Xp0,2020-0188,2021-10-14,08:30:50,10:04:21,NA,incomplete,true,true,NA,0,8,NA,brown,m_s_036.jpg,NA,NA,unpleasant,pleasant,NA,NA,NA,NA,NA,left,1524.90000000037,true,NA,NA,NA,NA,NA
lVuu8Xp0,3o4vwc1gfzjxgki2d88xs18tr9fj3v,3wi0p0ii655ejk1654skwlcoumlrdb,lVuu8Xp0,2020-0188,2021-10-14,08:30:50,10:04:21,NA,incomplete,true,true,NA,0,9,NA,brown,n_l_083.jpg,NA,NA,pleasant,unpleasant,NA,NA,NA,NA,NA,right,1221.09999999963,true,NA,NA,NA,NA,NA
lVuu8Xp0,3o4vwc1gfzjxgki2d88xs18tr9fj3v,3wi0p0ii655ejk1654skwlcoumlrdb,lVuu8Xp0,2020-0188,2021-10-14,08:30:50,10:04:21,NA,incomplete,true,true,NA,0,10,NA,brown,n_l_069.jpg,NA,NA,unpleasant,pleasant,NA,NA,NA,NA,NA,left,966.900000000373,true,NA,NA,NA,NA,NA
lVuu8Xp0,3o4vwc1gfzjxgki2d88xs18tr9fj3v,3wi0p0ii655ejk1654skwlcoumlrdb,lVuu8Xp0,2020-0188,2021-10-14,08:30:50,10:04:21,NA,incomplete,true,true,NA,0,11,NA,brown,n_l_094.jpg,NA,NA,pleasant,unpleasant,NA,NA,NA,NA,NA,left,1296.40000000037,true,NA,NA,NA,NA,NA
lVuu8Xp0,3o4vwc1gfzjxgki2d88xs18tr9fj3v,3wi0p0ii655ejk1654skwlcoumlrdb,lVuu8Xp0,2020-0188,2021-10-14,08:30:50,10:04:21,NA,incomplete,true,true,NA,0,12,NA,red,n_l_080.jpg,NA,NA,pleasant,unpleasant,NA,NA,NA,NA,NA,right,1514.40000000037,true,NA,NA,NA,NA,NA
lVuu8Xp0,3o4vwc1gfzjxgki2d88xs18tr9fj3v,3wi0p0ii655ejk1654skwlcoumlrdb,lVuu8Xp0,2020-0188,2021-10-14,08:30:50,10:04:21,NA,incomplete,true,true,NA,0,13,NA,red,m_s_037.jpg,NA,NA,pleasant,unpleasant,NA,NA,NA,NA,NA,left,1634.10000000149,true,NA,NA,NA,NA,NA
lVuu8Xp0,3o4vwc1gfzjxgki2d88xs18tr9fj3v,3wi0p0ii655ejk1654skwlcoumlrdb,lVuu8Xp0,2020-0188,2021-10-14,08:30:50,10:04:21,NA,incomplete,true,true,NA,0,14,NA,red,n_s_039.jpg,NA,NA,unpleasant,pleasant,NA,NA,NA,NA,NA,right,1993.30000000075,true,NA,NA,NA,NA,NA
lVuu8Xp0,3o4vwc1gfzjxgki2d88xs18tr9fj3v,3wi0p0ii655ejk1654skwlcoumlrdb,lVuu8Xp0,2020-0188,2021-10-14,08:30:50,10:04:21,NA,incomplete,true,true,NA,0,15,NA,red,m_s_032.jpg,NA,NA,unpleasant,pleasant,NA,NA,NA,NA,NA,left,1011.5,true,NA,NA,NA,NA,NA
lVuu8Xp0,3o4vwc1gfzjxgki2d88xs18tr9fj3v,3wi0p0ii655ejk1654skwlcoumlrdb,lVuu8Xp0,2020-0188,2021-10-14,08:30:50,10:04:21,NA,incomplete,true,true,NA,0,16,NA,red,m_l_086.jpg,NA,NA,unpleasant,pleasant,NA,NA,NA,NA,NA,right,1491.20000000112,true,NA,NA,NA,NA,NA
lVuu8Xp0,3o4vwc1gfzjxgki2d88xs18tr9fj3v,3wi0p0ii655ejk1654skwlcoumlrdb,lVuu8Xp0,2020-0188,2021-10-14,08:30:50,10:04:21,NA,incomplete,true,true,NA,0,17,NA,red,m_l_067.jpg,NA,NA,pleasant,unpleasant,NA,NA,NA,NA,NA,left,1122.19999999925,true,NA,NA,NA,NA,NA
lVuu8Xp0,3o4vwc1gfzjxgki2d88xs18tr9fj3v,3wi0p0ii655ejk1654skwlcoumlrdb,lVuu8Xp0,2020-0188,2021-10-14,08:30:50,10:04:21,NA,incomplete,true,true,NA,0,18,NA,green,n_s_061.jpg,NA,NA,unpleasant,pleasant,NA,NA,NA,NA,NA,right,1270.40000000037,true,NA,NA,NA,NA,NA
lVuu8Xp0,3o4vwc1gfzjxgki2d88xs18tr9fj3v,3wi0p0ii655ejk1654skwlcoumlrdb,lVuu8Xp0,2020-0188,2021-10-14,08:30:50,10:04:21,NA,incomplete,true,true,NA,0,19,NA,green,n_s_051.jpg,NA,NA,unpleasant,pleasant,NA,NA,NA,NA,NA,right,1744.80000000075,true,NA,NA,NA,NA,NA
lVuu8Xp0,3o4vwc1gfzjxgki2d88xs18tr9fj3v,3wi0p0ii655ejk1654skwlcoumlrdb,lVuu8Xp0,2020-0188,2021-10-14,08:30:50,10:04:21,NA,incomplete,true,true,NA,0,20,NA,green,n_s_058.jpg,NA,NA,unpleasant,pleasant,NA,NA,NA,NA,NA,right,1358.90000000037,true,NA,NA,NA,NA,NA
lVuu8Xp0,3o4vwc1gfzjxgki2d88xs18tr9fj3v,3wi0p0ii655ejk1654skwlcoumlrdb,lVuu8Xp0,2020-0188,2021-10-14,08:30:50,10:04:21,NA,incomplete,true,true,NA,0,21,NA,green,n_s_086.jpg,NA,NA,pleasant,unpleasant,NA,NA,NA,NA,NA,left,1458.80000000075,true,NA,NA,NA,NA,NA
lVuu8Xp0,3o4vwc1gfzjxgki2d88xs18tr9fj3v,3wi0p0ii655ejk1654skwlcoumlrdb,lVuu8Xp0,2020-0188,2021-10-14,08:30:50,10:04:21,NA,incomplete,true,true,NA,0,22,NA,green,n_s_103.jpg,NA,NA,pleasant,unpleasant,NA,NA,NA,NA,NA,left,1094.90000000037,true,NA,NA,NA,NA,NA
lVuu8Xp0,3o4vwc1gfzjxgki2d88xs18tr9fj3v,3wi0p0ii655ejk1654skwlcoumlrdb,lVuu8Xp0,2020-0188,2021-10-14,08:30:50,10:04:21,NA,incomplete,true,true,NA,0,23,NA,green,n_l_042.jpg,NA,NA,pleasant,unpleasant,NA,NA,NA,NA,NA,left,1331.79999999888,true,NA,NA,NA,NA,NA
lVuu8Xp0,3o4vwc1gfzjxgki2d88xs18tr9fj3v,3wi0p0ii655ejk1654skwlcoumlrdb,lVuu8Xp0,2020-0188,2021-10-14,08:30:50,10:04:21,NA,incomplete,true,true,NA,0,24,NA,blue,m_l_046.jpg,NA,NA,unpleasant,pleasant,NA,NA,NA,NA,NA,right,1879.40000000037,true,NA,NA,NA,NA,NA
lVuu8Xp0,3o4vwc1gfzjxgki2d88xs18tr9fj3v,3wi0p0ii655ejk1654skwlcoumlrdb,lVuu8Xp0,2020-0188,2021-10-14,08:30:50,10:04:21,NA,incomplete,true,true,NA,0,25,NA,blue,m_l_111.jpg,NA,NA,pleasant,unpleasant,NA,NA,NA,NA,NA,left,1540.80000000075,true,NA,NA,NA,NA,NA
lVuu8Xp0,3o4vwc1gfzjxgki2d88xs18tr9fj3v,3wi0p0ii655ejk1654skwlcoumlrdb,lVuu8Xp0,2020-0188,2021-10-14,08:30:50,10:04:21,NA,incomplete,true,true,NA,0,26,NA,blue,m_s_019.jpg,NA,NA,pleasant,unpleasant,NA,NA,NA,NA,NA,left,1119.40000000037,true,NA,NA,NA,NA,NA
lVuu8Xp0,3o4vwc1gfzjxgki2d88xs18tr9fj3v,3wi0p0ii655ejk1654skwlcoumlrdb,lVuu8Xp0,2020-0188,2021-10-14,08:30:50,10:04:21,NA,incomplete,true,true,NA,0,27,NA,blue,m_s_087.jpg,NA,NA,unpleasant,pleasant,NA,NA,NA,NA,NA,right,1624.60000000149,true,NA,NA,NA,NA,NA
lVuu8Xp0,3o4vwc1gfzjxgki2d88xs18tr9fj3v,3wi0p0ii655ejk1654skwlcoumlrdb,lVuu8Xp0,2020-0188,2021-10-14,08:30:50,10:04:21,NA,incomplete,true,true,NA,0,28,NA,blue,n_l_047.jpg,NA,NA,unpleasant,pleasant,NA,NA,NA,NA,NA,left,1228.59999999963,true,NA,NA,NA,NA,NA
lVuu8Xp0,3o4vwc1gfzjxgki2d88xs18tr9fj3v,3wi0p0ii655ejk1654skwlcoumlrdb,lVuu8Xp0,2020-0188,2021-10-14,08:30:50,10:04:21,NA,incomplete,true,true,NA,0,29,NA,blue,m_s_077.jpg,NA,NA,unpleasant,pleasant,NA,NA,NA,NA,NA,left,1152.29999999888,true,NA,NA,NA,NA,NA
lVuu8Xp0,3o4vwc1gfzjxgki2d88xs18tr9fj3v,3wi0p0ii655ejk1654skwlcoumlrdb,lVuu8Xp0,2020-0188,2021-10-14,08:30:50,10:04:21,NA,incomplete,true,true,NA,0,30,NA,white,n_l_097.jpg,NA,NA,unpleasant,pleasant,NA,NA,NA,NA,NA,left,921.099999999627,true,NA,NA,NA,NA,NA
lVuu8Xp0,3o4vwc1gfzjxgki2d88xs18tr9fj3v,3wi0p0ii655ejk1654skwlcoumlrdb,lVuu8Xp0,2020-0188,2021-10-14,08:30:50,10:04:21,NA,incomplete,true,true,NA,0,31,NA,white,m_s_015.jpg,NA,NA,pleasant,unpleasant,NA,NA,NA,NA,NA,left,1599.5,true,NA,NA,NA,NA,NA
lVuu8Xp0,3o4vwc1gfzjxgki2d88xs18tr9fj3v,3wi0p0ii655ejk1654skwlcoumlrdb,lVuu8Xp0,2020-0188,2021-10-14,08:30:50,10:04:21,NA,incomplete,true,true,NA,0,32,NA,white,m_l_028.jpg,NA,NA,unpleasant,pleasant,NA,NA,NA,NA,NA,left,1203.09999999963,true,NA,NA,NA,NA,NA
lVuu8Xp0,3o4vwc1gfzjxgki2d88xs18tr9fj3v,3wi0p0ii655ejk1654skwlcoumlrdb,lVuu8Xp0,2020-0188,2021-10-14,08:30:50,10:04:21,NA,incomplete,true,true,NA,0,33,NA,white,n_s_019.jpg,NA,NA,unpleasant,pleasant,NA,NA,NA,NA,NA,right,1216.5,true,NA,NA,NA,NA,NA
lVuu8Xp0,3o4vwc1gfzjxgki2d88xs18tr9fj3v,3wi0p0ii655ejk1654skwlcoumlrdb,lVuu8Xp0,2020-0188,2021-10-14,08:30:50,10:04:21,NA,incomplete,true,true,NA,0,34,NA,white,n_l_001.jpg,NA,NA,pleasant,unpleasant,NA,NA,NA,NA,NA,left,1021,true,NA,NA,NA,NA,NA
lVuu8Xp0,3o4vwc1gfzjxgki2d88xs18tr9fj3v,3wi0p0ii655ejk1654skwlcoumlrdb,lVuu8Xp0,2020-0188,2021-10-14,08:30:50,10:04:21,NA,incomplete,true,true,NA,0,35,NA,white,m_l_045.jpg,NA,NA,unpleasant,pleasant,NA,NA,NA,NA,NA,right,1495.80000000075,true,NA,NA,NA,NA,NA
lVuu8Xp0,3o4vwc1gfzjxgki2d88xs18tr9fj3v,3wi0p0ii655ejk1654skwlcoumlrdb,lVuu8Xp0,2020-0188,2021-10-14,08:30:50,10:04:21,NA,incomplete,true,NA,true,0,0,NA,NA,NA,left,present,NA,NA,m_s_101.jpg,brown,n_l_094.jpg,brown,within,NA,NaN,NA,left,9063.400000000373,1,1,2632.699999999255
lVuu8Xp0,3o4vwc1gfzjxgki2d88xs18tr9fj3v,3wi0p0ii655ejk1654skwlcoumlrdb,lVuu8Xp0,2020-0188,2021-10-14,08:30:50,10:04:21,NA,incomplete,true,NA,true,0,1,NA,NA,NA,left,present,NA,NA,m_s_033.jpg,yellow,m_s_036.jpg,brown,between,NA,NaN,NA,left,4649.300000000745,1,1,3191.2000000011176
lVuu8Xp0,3o4vwc1gfzjxgki2d88xs18tr9fj3v,3wi0p0ii655ejk1654skwlcoumlrdb,lVuu8Xp0,2020-0188,2021-10-14,08:30:50,10:04:21,NA,incomplete,true,NA,true,0,2,NA,NA,NA,left,absent,NA,NA,m_l_086.jpg,red,n_s_058.jpg,green,between,NA,NaN,NA,left,10401.800000000745,1,1,1428.0999999996275
lVuu8Xp0,3o4vwc1gfzjxgki2d88xs18tr9fj3v,3wi0p0ii655ejk1654skwlcoumlrdb,lVuu8Xp0,2020-0188,2021-10-14,08:30:50,10:04:21,NA,incomplete,true,NA,true,0,3,NA,NA,NA,right,present,NA,NA,m_l_045.jpg,white,m_s_015.jpg,white,within,NA,NaN,NA,right,8884.200000001118,1,0,2040.4000000003725
lVuu8Xp0,3o4vwc1gfzjxgki2d88xs18tr9fj3v,3wi0p0ii655ejk1654skwlcoumlrdb,lVuu8Xp0,2020-0188,2021-10-14,08:30:50,10:04:21,NA,incomplete,true,NA,true,0,4,NA,NA,NA,left,absent,NA,NA,n_s_051.jpg,green,n_l_042.jpg,green,within,NA,NaN,NA,left,4849.9000000003725,1,0,1943.0999999996275
lVuu8Xp0,3o4vwc1gfzjxgki2d88xs18tr9fj3v,3wi0p0ii655ejk1654skwlcoumlrdb,lVuu8Xp0,2020-0188,2021-10-14,08:30:50,10:04:21,NA,incomplete,true,NA,true,0,5,NA,NA,NA,right,present,NA,NA,m_s_019.jpg,blue,n_s_103.jpg,green,between,NA,NaN,NA,right,4178.700000001118,1,1,1334.5
lVuu8Xp0,3o4vwc1gfzjxgki2d88xs18tr9fj3v,3wi0p0ii655ejk1654skwlcoumlrdb,lVuu8Xp0,2020-0188,2021-10-14,08:30:50,10:04:21,NA,incomplete,true,NA,true,0,6,NA,NA,NA,left,present,NA,NA,m_s_037.jpg,red,m_l_067.jpg,red,within,NA,NaN,NA,left,3772.5,1,0,2120.800000000745
lVuu8Xp0,3o4vwc1gfzjxgki2d88xs18tr9fj3v,3wi0p0ii655ejk1654skwlcoumlrdb,lVuu8Xp0,2020-0188,2021-10-14,08:30:50,10:04:21,NA,incomplete,true,NA,true,0,7,NA,NA,NA,left,absent,NA,NA,n_l_020.jpg,yellow,m_l_021.jpg,yellow,within,NA,NaN,NA,right,3465.300000000745,0,1,1100.5
lVuu8Xp0,3o4vwc1gfzjxgki2d88xs18tr9fj3v,3wi0p0ii655ejk1654skwlcoumlrdb,lVuu8Xp0,2020-0188,2021-10-14,08:30:50,10:04:21,NA,incomplete,true,NA,true,0,8,NA,NA,NA,left,present,NA,NA,n_l_069.jpg,brown,n_s_039.jpg,red,between,NA,NaN,NA,left,3058.199999999255,1,1,1405.2999999988824
lVuu8Xp0,3o4vwc1gfzjxgki2d88xs18tr9fj3v,3wi0p0ii655ejk1654skwlcoumlrdb,lVuu8Xp0,2020-0188,2021-10-14,08:30:50,10:04:21,NA,incomplete,true,NA,true,0,9,NA,NA,NA,left,present,NA,NA,n_l_047.jpg,blue,m_l_028.jpg,white,between,NA,NaN,NA,left,5142.200000001118,1,2,4435.10000000149
lVuu8Xp0,3o4vwc1gfzjxgki2d88xs18tr9fj3v,3wi0p0ii655ejk1654skwlcoumlrdb,lVuu8Xp0,2020-0188,2021-10-14,08:30:50,10:04:21,NA,incomplete,true,NA,true,0,10,NA,NA,NA,right,absent,NA,NA,m_s_077.jpg,blue,m_l_111.jpg,blue,within,NA,NaN,NA,right,6113.199999999255,1,0,4418.5999999996275
lVuu8Xp0,3o4vwc1gfzjxgki2d88xs18tr9fj3v,3wi0p0ii655ejk1654skwlcoumlrdb,lVuu8Xp0,2020-0188,2021-10-14,08:30:50,10:04:21,NA,incomplete,false,true,NA,1,0,NA,gray,n_l_109.jpg,NA,NA,pleasant,unpleasant,NA,NA,NA,NA,NA,right,2754,true,NA,NA,NA,NA,NA
lVuu8Xp0,3o4vwc1gfzjxgki2d88xs18tr9fj3v,3wi0p0ii655ejk1654skwlcoumlrdb,lVuu8Xp0,2020-0188,2021-10-14,08:30:50,10:04:21,NA,incomplete,false,true,NA,1,1,NA,gray,m_l_002.jpg,NA,NA,pleasant,unpleasant,NA,NA,NA,NA,NA,left,2773.69999999925,true,NA,NA,NA,NA,NA
lVuu8Xp0,3o4vwc1gfzjxgki2d88xs18tr9fj3v,3wi0p0ii655ejk1654skwlcoumlrdb,lVuu8Xp0,2020-0188,2021-10-14,08:30:50,10:04:21,NA,incomplete,false,true,NA,1,2,NA,gray,n_s_056.jpg,NA,NA,pleasant,unpleasant,NA,NA,NA,NA,NA,left,2643.69999999925,true,NA,NA,NA,NA,NA
lVuu8Xp0,3o4vwc1gfzjxgki2d88xs18tr9fj3v,3wi0p0ii655ejk1654skwlcoumlrdb,lVuu8Xp0,2020-0188,2021-10-14,08:30:50,10:04:21,NA,incomplete,false,true,NA,1,3,NA,gray,m_l_106.jpg,NA,NA,pleasant,unpleasant,NA,NA,NA,NA,NA,left,2118.09999999963,true,NA,NA,NA,NA,NA
lVuu8Xp0,3o4vwc1gfzjxgki2d88xs18tr9fj3v,3wi0p0ii655ejk1654skwlcoumlrdb,lVuu8Xp0,2020-0188,2021-10-14,08:30:50,10:04:21,NA,incomplete,false,true,NA,1,4,NA,gray,n_l_104.jpg,NA,NA,pleasant,unpleasant,NA,NA,NA,NA,NA,left,2069,true,NA,NA,NA,NA,NA
lVuu8Xp0,3o4vwc1gfzjxgki2d88xs18tr9fj3v,3wi0p0ii655ejk1654skwlcoumlrdb,lVuu8Xp0,2020-0188,2021-10-14,08:30:50,10:04:21,NA,incomplete,false,true,NA,1,5,NA,gray,m_s_038.jpg,NA,NA,unpleasant,pleasant,NA,NA,NA,NA,NA,right,1976.5,true,NA,NA,NA,NA,NA
lVuu8Xp0,3o4vwc1gfzjxgki2d88xs18tr9fj3v,3wi0p0ii655ejk1654skwlcoumlrdb,lVuu8Xp0,2020-0188,2021-10-14,08:30:50,10:04:21,NA,incomplete,false,true,NA,1,6,NA,white,m_s_022.jpg,NA,NA,unpleasant,pleasant,NA,NA,NA,NA,NA,right,1483.20000000112,true,NA,NA,NA,NA,NA
lVuu8Xp0,3o4vwc1gfzjxgki2d88xs18tr9fj3v,3wi0p0ii655ejk1654skwlcoumlrdb,lVuu8Xp0,2020-0188,2021-10-14,08:30:50,10:04:21,NA,incomplete,false,true,NA,1,7,NA,white,n_s_095.jpg,NA,NA,pleasant,unpleasant,NA,NA,NA,NA,NA,left,2099.59999999963,true,NA,NA,NA,NA,NA
lVuu8Xp0,3o4vwc1gfzjxgki2d88xs18tr9fj3v,3wi0p0ii655ejk1654skwlcoumlrdb,lVuu8Xp0,2020-0188,2021-10-14,08:30:50,10:04:21,NA,incomplete,false,true,NA,1,8,NA,white,m_s_105.jpg,NA,NA,pleasant,unpleasant,NA,NA,NA,NA,NA,left,2558.09999999963,true,NA,NA,NA,NA,NA
lVuu8Xp0,3o4vwc1gfzjxgki2d88xs18tr9fj3v,3wi0p0ii655ejk1654skwlcoumlrdb,lVuu8Xp0,2020-0188,2021-10-14,08:30:50,10:04:21,NA,incomplete,false,true,NA,1,9,NA,white,n_l_048.jpg,NA,NA,pleasant,unpleasant,NA,NA,NA,NA,NA,none,0,false,NA,NA,NA,NA,NA
lVuu8Xp0,3o4vwc1gfzjxgki2d88xs18tr9fj3v,3wi0p0ii655ejk1654skwlcoumlrdb,lVuu8Xp0,2020-0188,2021-10-14,08:30:50,10:04:21,NA,incomplete,false,true,NA,1,10,NA,white,m_s_080.jpg,NA,NA,pleasant,unpleasant,NA,NA,NA,NA,NA,left,3035.40000000037,true,NA,NA,NA,NA,NA
lVuu8Xp0,3o4vwc1gfzjxgki2d88xs18tr9fj3v,3wi0p0ii655ejk1654skwlcoumlrdb,lVuu8Xp0,2020-0188,2021-10-14,08:30:50,10:04:21,NA,incomplete,false,true,NA,1,11,NA,white,m_s_073.jpg,NA,NA,pleasant,unpleasant,NA,NA,NA,NA,NA,left,1384.69999999925,true,NA,NA,NA,NA,NA
lVuu8Xp0,3o4vwc1gfzjxgki2d88xs18tr9fj3v,3wi0p0ii655ejk1654skwlcoumlrdb,lVuu8Xp0,2020-0188,2021-10-14,08:30:50,10:04:21,NA,incomplete,false,true,NA,1,12,NA,red,m_l_087.jpg,NA,NA,pleasant,unpleasant,NA,NA,NA,NA,NA,left,1792.69999999925,true,NA,NA,NA,NA,NA
lVuu8Xp0,3o4vwc1gfzjxgki2d88xs18tr9fj3v,3wi0p0ii655ejk1654skwlcoumlrdb,lVuu8Xp0,2020-0188,2021-10-14,08:30:50,10:04:21,NA,incomplete,false,true,NA,1,13,NA,red,m_l_005.jpg,NA,NA,unpleasant,pleasant,NA,NA,NA,NA,NA,left,1707.40000000037,true,NA,NA,NA,NA,NA
lVuu8Xp0,3o4vwc1gfzjxgki2d88xs18tr9fj3v,3wi0p0ii655ejk1654skwlcoumlrdb,lVuu8Xp0,2020-0188,2021-10-14,08:30:50,10:04:21,NA,incomplete,false,true,NA,1,14,NA,red,m_s_092.jpg,NA,NA,unpleasant,pleasant,NA,NA,NA,NA,NA,left,1539.60000000149,true,NA,NA,NA,NA,NA
lVuu8Xp0,3o4vwc1gfzjxgki2d88xs18tr9fj3v,3wi0p0ii655ejk1654skwlcoumlrdb,lVuu8Xp0,2020-0188,2021-10-14,08:30:50,10:04:21,NA,incomplete,false,true,NA,1,15,NA,red,m_s_001.jpg,NA,NA,unpleasant,pleasant,NA,NA,NA,NA,NA,right,1832.89999999851,true,NA,NA,NA,NA,NA
lVuu8Xp0,3o4vwc1gfzjxgki2d88xs18tr9fj3v,3wi0p0ii655ejk1654skwlcoumlrdb,lVuu8Xp0,2020-0188,2021-10-14,08:30:50,10:04:21,NA,incomplete,false,true,NA,1,16,NA,red,n_s_010.jpg,NA,NA,pleasant,unpleasant,NA,NA,NA,NA,NA,right,1878.60000000149,true,NA,NA,NA,NA,NA
lVuu8Xp0,3o4vwc1gfzjxgki2d88xs18tr9fj3v,3wi0p0ii655ejk1654skwlcoumlrdb,lVuu8Xp0,2020-0188,2021-10-14,08:30:50,10:04:21,NA,incomplete,false,true,NA,1,17,NA,red,n_s_020.jpg,NA,NA,pleasant,unpleasant,NA,NA,NA,NA,NA,left,2043,true,NA,NA,NA,NA,NA
lVuu8Xp0,3o4vwc1gfzjxgki2d88xs18tr9fj3v,3wi0p0ii655ejk1654skwlcoumlrdb,lVuu8Xp0,2020-0188,2021-10-14,08:30:50,10:04:21,NA,incomplete,false,true,NA,1,18,NA,green,n_l_030.jpg,NA,NA,pleasant,unpleasant,NA,NA,NA,NA,NA,left,2294,true,NA,NA,NA,NA,NA
lVuu8Xp0,3o4vwc1gfzjxgki2d88xs18tr9fj3v,3wi0p0ii655ejk1654skwlcoumlrdb,lVuu8Xp0,2020-0188,2021-10-14,08:30:50,10:04:21,NA,incomplete,false,true,NA,1,19,NA,green,m_s_111.jpg,NA,NA,pleasant,unpleasant,NA,NA,NA,NA,NA,left,1770.20000000112,true,NA,NA,NA,NA,NA
lVuu8Xp0,3o4vwc1gfzjxgki2d88xs18tr9fj3v,3wi0p0ii655ejk1654skwlcoumlrdb,lVuu8Xp0,2020-0188,2021-10-14,08:30:50,10:04:21,NA,incomplete,false,true,NA,1,20,NA,green,n_l_086.jpg,NA,NA,pleasant,unpleasant,NA,NA,NA,NA,NA,left,1571.40000000037,true,NA,NA,NA,NA,NA
lVuu8Xp0,3o4vwc1gfzjxgki2d88xs18tr9fj3v,3wi0p0ii655ejk1654skwlcoumlrdb,lVuu8Xp0,2020-0188,2021-10-14,08:30:50,10:04:21,NA,incomplete,false,true,NA,1,21,NA,green,n_l_025.jpg,NA,NA,pleasant,unpleasant,NA,NA,NA,NA,NA,right,1826.30000000075,true,NA,NA,NA,NA,NA
lVuu8Xp0,3o4vwc1gfzjxgki2d88xs18tr9fj3v,3wi0p0ii655ejk1654skwlcoumlrdb,lVuu8Xp0,2020-0188,2021-10-14,08:30:50,10:04:21,NA,incomplete,false,true,NA,1,22,NA,green,n_l_105.jpg,NA,NA,pleasant,unpleasant,NA,NA,NA,NA,NA,left,1715.79999999888,true,NA,NA,NA,NA,NA
lVuu8Xp0,3o4vwc1gfzjxgki2d88xs18tr9fj3v,3wi0p0ii655ejk1654skwlcoumlrdb,lVuu8Xp0,2020-0188,2021-10-14,08:30:50,10:04:21,NA,incomplete,false,true,NA,1,23,NA,green,m_l_058.jpg,NA,NA,pleasant,unpleasant,NA,NA,NA,NA,NA,right,1509.19999999925,true,NA,NA,NA,NA,NA
lVuu8Xp0,3o4vwc1gfzjxgki2d88xs18tr9fj3v,3wi0p0ii655ejk1654skwlcoumlrdb,lVuu8Xp0,2020-0188,2021-10-14,08:30:50,10:04:21,NA,incomplete,false,true,NA,1,24,NA,brown,n_l_036.jpg,NA,NA,pleasant,unpleasant,NA,NA,NA,NA,NA,left,1491.5,true,NA,NA,NA,NA,NA
lVuu8Xp0,3o4vwc1gfzjxgki2d88xs18tr9fj3v,3wi0p0ii655ejk1654skwlcoumlrdb,lVuu8Xp0,2020-0188,2021-10-14,08:30:50,10:04:21,NA,incomplete,false,true,NA,1,25,NA,brown,m_s_035.jpg,NA,NA,unpleasant,pleasant,NA,NA,NA,NA,NA,right,1507.29999999888,true,NA,NA,NA,NA,NA
lVuu8Xp0,3o4vwc1gfzjxgki2d88xs18tr9fj3v,3wi0p0ii655ejk1654skwlcoumlrdb,lVuu8Xp0,2020-0188,2021-10-14,08:30:50,10:04:21,NA,incomplete,false,true,NA,1,26,NA,brown,m_l_099.jpg,NA,NA,pleasant,unpleasant,NA,NA,NA,NA,NA,left,2392,true,NA,NA,NA,NA,NA
lVuu8Xp0,3o4vwc1gfzjxgki2d88xs18tr9fj3v,3wi0p0ii655ejk1654skwlcoumlrdb,lVuu8Xp0,2020-0188,2021-10-14,08:30:50,10:04:21,NA,incomplete,false,true,NA,1,27,NA,brown,n_s_078.jpg,NA,NA,pleasant,unpleasant,NA,NA,NA,NA,NA,right,1913.40000000037,true,NA,NA,NA,NA,NA
lVuu8Xp0,3o4vwc1gfzjxgki2d88xs18tr9fj3v,3wi0p0ii655ejk1654skwlcoumlrdb,lVuu8Xp0,2020-0188,2021-10-14,08:30:50,10:04:21,NA,incomplete,false,true,NA,1,28,NA,brown,m_l_113.jpg,NA,NA,unpleasant,pleasant,NA,NA,NA,NA,NA,right,2088.5,true,NA,NA,NA,NA,NA
lVuu8Xp0,3o4vwc1gfzjxgki2d88xs18tr9fj3v,3wi0p0ii655ejk1654skwlcoumlrdb,lVuu8Xp0,2020-0188,2021-10-14,08:30:50,10:04:21,NA,incomplete,false,true,NA,1,29,NA,brown,n_l_067.jpg,NA,NA,unpleasant,pleasant,NA,NA,NA,NA,NA,right,2160.40000000037,true,NA,NA,NA,NA,NA
lVuu8Xp0,3o4vwc1gfzjxgki2d88xs18tr9fj3v,3wi0p0ii655ejk1654skwlcoumlrdb,lVuu8Xp0,2020-0188,2021-10-14,08:30:50,10:04:21,NA,incomplete,false,true,NA,1,30,NA,black,n_s_070.jpg,NA,NA,unpleasant,pleasant,NA,NA,NA,NA,NA,right,2212.59999999963,true,NA,NA,NA,NA,NA
lVuu8Xp0,3o4vwc1gfzjxgki2d88xs18tr9fj3v,3wi0p0ii655ejk1654skwlcoumlrdb,lVuu8Xp0,2020-0188,2021-10-14,08:30:50,10:04:21,NA,incomplete,false,true,NA,1,31,NA,black,m_l_077.jpg,NA,NA,pleasant,unpleasant,NA,NA,NA,NA,NA,left,2133.90000000037,true,NA,NA,NA,NA,NA
lVuu8Xp0,3o4vwc1gfzjxgki2d88xs18tr9fj3v,3wi0p0ii655ejk1654skwlcoumlrdb,lVuu8Xp0,2020-0188,2021-10-14,08:30:50,10:04:21,NA,incomplete,false,true,NA,1,32,NA,black,m_l_115.jpg,NA,NA,pleasant,unpleasant,NA,NA,NA,NA,NA,left,1251.09999999963,true,NA,NA,NA,NA,NA
lVuu8Xp0,3o4vwc1gfzjxgki2d88xs18tr9fj3v,3wi0p0ii655ejk1654skwlcoumlrdb,lVuu8Xp0,2020-0188,2021-10-14,08:30:50,10:04:21,NA,incomplete,false,true,NA,1,33,NA,black,m_s_013.jpg,NA,NA,unpleasant,pleasant,NA,NA,NA,NA,NA,left,1462.69999999925,true,NA,NA,NA,NA,NA
lVuu8Xp0,3o4vwc1gfzjxgki2d88xs18tr9fj3v,3wi0p0ii655ejk1654skwlcoumlrdb,lVuu8Xp0,2020-0188,2021-10-14,08:30:50,10:04:21,NA,incomplete,false,true,NA,1,34,NA,black,m_s_044.jpg,NA,NA,unpleasant,pleasant,NA,NA,NA,NA,NA,right,1840.80000000075,true,NA,NA,NA,NA,NA
lVuu8Xp0,3o4vwc1gfzjxgki2d88xs18tr9fj3v,3wi0p0ii655ejk1654skwlcoumlrdb,lVuu8Xp0,2020-0188,2021-10-14,08:30:50,10:04:21,NA,incomplete,false,true,NA,1,35,NA,black,m_l_027.jpg,NA,NA,pleasant,unpleasant,NA,NA,NA,NA,NA,right,2229.20000000112,true,NA,NA,NA,NA,NA
lVuu8Xp0,3o4vwc1gfzjxgki2d88xs18tr9fj3v,3wi0p0ii655ejk1654skwlcoumlrdb,lVuu8Xp0,2020-0188,2021-10-14,08:30:50,10:04:21,NA,incomplete,false,NA,true,1,0,NA,NA,NA,left,absent,NA,NA,m_s_035.jpg,brown,n_l_067.jpg,brown,within,NA,NaN,NA,left,9946.89999999851,1,1,1104.8999999985099
lVuu8Xp0,3o4vwc1gfzjxgki2d88xs18tr9fj3v,3wi0p0ii655ejk1654skwlcoumlrdb,lVuu8Xp0,2020-0188,2021-10-14,08:30:50,10:04:21,NA,incomplete,false,NA,true,1,1,NA,NA,NA,left,absent,NA,NA,n_s_095.jpg,white,m_s_073.jpg,white,within,NA,NaN,NA,left,10077.400000000373,1,2,10688.699999999255
lVuu8Xp0,3o4vwc1gfzjxgki2d88xs18tr9fj3v,3wi0p0ii655ejk1654skwlcoumlrdb,lVuu8Xp0,2020-0188,2021-10-14,08:30:50,10:04:21,NA,incomplete,false,NA,true,1,2,NA,NA,NA,right,absent,NA,NA,m_l_027.jpg,black,m_l_077.jpg,black,within,NA,NaN,NA,right,7673.799999998882,1,0,2188.7000000011176
lVuu8Xp0,3o4vwc1gfzjxgki2d88xs18tr9fj3v,3wi0p0ii655ejk1654skwlcoumlrdb,lVuu8Xp0,2020-0188,2021-10-14,08:30:50,10:04:21,NA,incomplete,false,NA,true,1,3,NA,NA,NA,left,absent,NA,NA,m_s_111.jpg,green,m_l_058.jpg,green,within,NA,NaN,NA,left,11008.800000000745,1,1,2860.9000000003725
lVuu8Xp0,3o4vwc1gfzjxgki2d88xs18tr9fj3v,3wi0p0ii655ejk1654skwlcoumlrdb,lVuu8Xp0,2020-0188,2021-10-14,08:30:50,10:04:21,NA,incomplete,false,NA,true,1,4,NA,NA,NA,right,absent,NA,NA,m_s_038.jpg,gray,m_l_002.jpg,gray,within,NA,NaN,NA,right,6098.4000000003725,1,0,1013.5
lVuu8Xp0,3o4vwc1gfzjxgki2d88xs18tr9fj3v,3wi0p0ii655ejk1654skwlcoumlrdb,lVuu8Xp0,2020-0188,2021-10-14,08:30:50,10:04:21,NA,incomplete,false,NA,true,1,5,NA,NA,NA,left,absent,NA,NA,m_l_005.jpg,red,n_s_020.jpg,red,within,NA,NaN,NA,left,9037.199999999255,1,1,1296.5999999996275
lVuu8Xp0,3o4vwc1gfzjxgki2d88xs18tr9fj3v,3wi0p0ii655ejk1654skwlcoumlrdb,lVuu8Xp0,2020-0188,2021-10-14,08:30:50,10:04:21,NA,incomplete,false,NA,true,1,6,NA,NA,NA,left,absent,NA,NA,m_s_080.jpg,white,m_s_092.jpg,red,between,NA,NaN,NA,left,4663.10000000149,1,2,1061.4000000003725
lVuu8Xp0,3o4vwc1gfzjxgki2d88xs18tr9fj3v,3wi0p0ii655ejk1654skwlcoumlrdb,lVuu8Xp0,2020-0188,2021-10-14,08:30:50,10:04:21,NA,incomplete,false,NA,true,1,7,NA,NA,NA,left,absent,NA,NA,n_l_104.jpg,gray,m_s_105.jpg,white,between,NA,NaN,NA,left,3393,1,2,1349
lVuu8Xp0,3o4vwc1gfzjxgki2d88xs18tr9fj3v,3wi0p0ii655ejk1654skwlcoumlrdb,lVuu8Xp0,2020-0188,2021-10-14,08:30:50,10:04:21,NA,incomplete,false,NA,true,1,8,NA,NA,NA,right,absent,NA,NA,n_l_086.jpg,green,n_s_010.jpg,red,between,NA,NaN,NA,right,8412,1,1,1757.2000000011176
lVuu8Xp0,3o4vwc1gfzjxgki2d88xs18tr9fj3v,3wi0p0ii655ejk1654skwlcoumlrdb,lVuu8Xp0,2020-0188,2021-10-14,08:30:50,10:04:21,NA,incomplete,false,NA,true,1,9,NA,NA,NA,left,absent,NA,NA,n_l_105.jpg,green,m_l_099.jpg,brown,between,NA,NaN,NA,right,2963.0999999996275,0,1,1230.800000000745
lVuu8Xp0,3o4vwc1gfzjxgki2d88xs18tr9fj3v,3wi0p0ii655ejk1654skwlcoumlrdb,lVuu8Xp0,2020-0188,2021-10-14,08:30:50,10:04:21,NA,incomplete,false,NA,true,1,10,NA,NA,NA,right,absent,NA,NA,m_l_115.jpg,black,m_l_113.jpg,brown,between,NA,NaN,NA,right,6172.700000001118,1,2,1349.699999999255
lVuu8Xp0,3o4vwc1gfzjxgki2d88xs18tr9fj3v,3wi0p0ii655ejk1654skwlcoumlrdb,lVuu8Xp0,2020-0188,2021-10-14,08:30:50,10:04:21,NA,incomplete,false,true,NA,2,0,NA,green,n_s_042.jpg,NA,NA,pleasant,unpleasant,NA,NA,NA,NA,NA,left,1758,true,NA,NA,NA,NA,NA
lVuu8Xp0,3o4vwc1gfzjxgki2d88xs18tr9fj3v,3wi0p0ii655ejk1654skwlcoumlrdb,lVuu8Xp0,2020-0188,2021-10-14,08:30:50,10:04:21,NA,incomplete,false,true,NA,2,1,NA,green,n_s_008.jpg,NA,NA,unpleasant,pleasant,NA,NA,NA,NA,NA,none,0,false,NA,NA,NA,NA,NA
lVuu8Xp0,3o4vwc1gfzjxgki2d88xs18tr9fj3v,3wi0p0ii655ejk1654skwlcoumlrdb,lVuu8Xp0,2020-0188,2021-10-14,08:30:50,10:04:21,NA,incomplete,false,true,NA,2,2,NA,green,m_l_038.jpg,NA,NA,unpleasant,pleasant,NA,NA,NA,NA,NA,left,1707.39999999851,true,NA,NA,NA,NA,NA
lVuu8Xp0,3o4vwc1gfzjxgki2d88xs18tr9fj3v,3wi0p0ii655ejk1654skwlcoumlrdb,lVuu8Xp0,2020-0188,2021-10-14,08:30:50,10:04:21,NA,incomplete,false,true,NA,2,3,NA,green,n_s_014.jpg,NA,NA,pleasant,unpleasant,NA,NA,NA,NA,NA,left,1371.69999999925,true,NA,NA,NA,NA,NA
lVuu8Xp0,3o4vwc1gfzjxgki2d88xs18tr9fj3v,3wi0p0ii655ejk1654skwlcoumlrdb,lVuu8Xp0,2020-0188,2021-10-14,08:30:50,10:04:21,NA,incomplete,false,true,NA,2,4,NA,green,m_l_095.jpg,NA,NA,pleasant,unpleasant,NA,NA,NA,NA,NA,left,1532.09999999963,true,NA,NA,NA,NA,NA
lVuu8Xp0,3o4vwc1gfzjxgki2d88xs18tr9fj3v,3wi0p0ii655ejk1654skwlcoumlrdb,lVuu8Xp0,2020-0188,2021-10-14,08:30:50,10:04:21,NA,incomplete,false,true,NA,2,5,NA,green,m_s_091.jpg,NA,NA,pleasant,unpleasant,NA,NA,NA,NA,NA,right,2286.5,true,NA,NA,NA,NA,NA
lVuu8Xp0,3o4vwc1gfzjxgki2d88xs18tr9fj3v,3wi0p0ii655ejk1654skwlcoumlrdb,lVuu8Xp0,2020-0188,2021-10-14,08:30:50,10:04:21,NA,incomplete,false,true,NA,2,6,NA,black,n_l_003.jpg,NA,NA,unpleasant,pleasant,NA,NA,NA,NA,NA,right,2687,true,NA,NA,NA,NA,NA
lVuu8Xp0,3o4vwc1gfzjxgki2d88xs18tr9fj3v,3wi0p0ii655ejk1654skwlcoumlrdb,lVuu8Xp0,2020-0188,2021-10-14,08:30:50,10:04:21,NA,incomplete,false,true,NA,2,7,NA,black,n_l_023.jpg,NA,NA,unpleasant,pleasant,NA,NA,NA,NA,NA,right,2070,true,NA,NA,NA,NA,NA
lVuu8Xp0,3o4vwc1gfzjxgki2d88xs18tr9fj3v,3wi0p0ii655ejk1654skwlcoumlrdb,lVuu8Xp0,2020-0188,2021-10-14,08:30:50,10:04:21,NA,incomplete,false,true,NA,2,8,NA,black,n_l_066.jpg,NA,NA,unpleasant,pleasant,NA,NA,NA,NA,NA,left,1573.20000000112,true,NA,NA,NA,NA,NA
lVuu8Xp0,3o4vwc1gfzjxgki2d88xs18tr9fj3v,3wi0p0ii655ejk1654skwlcoumlrdb,lVuu8Xp0,2020-0188,2021-10-14,08:30:50,10:04:21,NA,incomplete,false,true,NA,2,9,NA,black,n_l_018.jpg,NA,NA,pleasant,unpleasant,NA,NA,NA,NA,NA,left,1994.09999999963,true,NA,NA,NA,NA,NA
lVuu8Xp0,3o4vwc1gfzjxgki2d88xs18tr9fj3v,3wi0p0ii655ejk1654skwlcoumlrdb,lVuu8Xp0,2020-0188,2021-10-14,08:30:50,10:04:21,NA,incomplete,false,true,NA,2,10,NA,black,n_s_031.jpg,NA,NA,unpleasant,pleasant,NA,NA,NA,NA,NA,right,1948.09999999963,true,NA,NA,NA,NA,NA
lVuu8Xp0,3o4vwc1gfzjxgki2d88xs18tr9fj3v,3wi0p0ii655ejk1654skwlcoumlrdb,lVuu8Xp0,2020-0188,2021-10-14,08:30:50,10:04:21,NA,incomplete,false,true,NA,2,11,NA,black,n_l_006.jpg,NA,NA,unpleasant,pleasant,NA,NA,NA,NA,NA,right,1347.59999999963,true,NA,NA,NA,NA,NA
lVuu8Xp0,3o4vwc1gfzjxgki2d88xs18tr9fj3v,3wi0p0ii655ejk1654skwlcoumlrdb,lVuu8Xp0,2020-0188,2021-10-14,08:30:50,10:04:21,NA,incomplete,false,true,NA,2,12,NA,gray,m_l_109.jpg,NA,NA,pleasant,unpleasant,NA,NA,NA,NA,NA,left,2279.69999999925,true,NA,NA,NA,NA,NA
lVuu8Xp0,3o4vwc1gfzjxgki2d88xs18tr9fj3v,3wi0p0ii655ejk1654skwlcoumlrdb,lVuu8Xp0,2020-0188,2021-10-14,08:30:50,10:04:21,NA,incomplete,false,true,NA,2,13,NA,gray,n_s_018.jpg,NA,NA,unpleasant,pleasant,NA,NA,NA,NA,NA,left,2554.59999999963,true,NA,NA,NA,NA,NA
lVuu8Xp0,3o4vwc1gfzjxgki2d88xs18tr9fj3v,3wi0p0ii655ejk1654skwlcoumlrdb,lVuu8Xp0,2020-0188,2021-10-14,08:30:50,10:04:21,NA,incomplete,false,true,NA,2,14,NA,gray,m_s_090.jpg,NA,NA,pleasant,unpleasant,NA,NA,NA,NA,NA,left,1598.40000000037,true,NA,NA,NA,NA,NA
lVuu8Xp0,3o4vwc1gfzjxgki2d88xs18tr9fj3v,3wi0p0ii655ejk1654skwlcoumlrdb,lVuu8Xp0,2020-0188,2021-10-14,08:30:50,10:04:21,NA,incomplete,false,true,NA,2,15,NA,gray,n_l_038.jpg,NA,NA,pleasant,unpleasant,NA,NA,NA,NA,NA,none,0,false,NA,NA,NA,NA,NA
lVuu8Xp0,3o4vwc1gfzjxgki2d88xs18tr9fj3v,3wi0p0ii655ejk1654skwlcoumlrdb,lVuu8Xp0,2020-0188,2021-10-14,08:30:50,10:04:21,NA,incomplete,false,true,NA,2,16,NA,gray,n_s_028.jpg,NA,NA,unpleasant,pleasant,NA,NA,NA,NA,NA,right,1905.80000000075,true,NA,NA,NA,NA,NA
lVuu8Xp0,3o4vwc1gfzjxgki2d88xs18tr9fj3v,3wi0p0ii655ejk1654skwlcoumlrdb,lVuu8Xp0,2020-0188,2021-10-14,08:30:50,10:04:21,NA,incomplete,false,true,NA,2,17,NA,gray,m_l_029.jpg,NA,NA,pleasant,unpleasant,NA,NA,NA,NA,NA,left,1368.69999999925,true,NA,NA,NA,NA,NA
lVuu8Xp0,3o4vwc1gfzjxgki2d88xs18tr9fj3v,3wi0p0ii655ejk1654skwlcoumlrdb,lVuu8Xp0,2020-0188,2021-10-14,08:30:50,10:04:21,NA,incomplete,false,true,NA,2,18,NA,blue,m_l_010.jpg,NA,NA,unpleasant,pleasant,NA,NA,NA,NA,NA,right,1477.39999999851,true,NA,NA,NA,NA,NA
lVuu8Xp0,3o4vwc1gfzjxgki2d88xs18tr9fj3v,3wi0p0ii655ejk1654skwlcoumlrdb,lVuu8Xp0,2020-0188,2021-10-14,08:30:50,10:04:21,NA,incomplete,false,true,NA,2,19,NA,blue,n_s_091.jpg,NA,NA,unpleasant,pleasant,NA,NA,NA,NA,NA,left,1700.59999999963,true,NA,NA,NA,NA,NA
lVuu8Xp0,3o4vwc1gfzjxgki2d88xs18tr9fj3v,3wi0p0ii655ejk1654skwlcoumlrdb,lVuu8Xp0,2020-0188,2021-10-14,08:30:50,10:04:21,NA,incomplete,false,true,NA,2,20,NA,blue,m_s_023.jpg,NA,NA,pleasant,unpleasant,NA,NA,NA,NA,NA,none,0,false,NA,NA,NA,NA,NA
lVuu8Xp0,3o4vwc1gfzjxgki2d88xs18tr9fj3v,3wi0p0ii655ejk1654skwlcoumlrdb,lVuu8Xp0,2020-0188,2021-10-14,08:30:50,10:04:21,NA,incomplete,false,true,NA,2,21,NA,blue,m_s_082.jpg,NA,NA,pleasant,unpleasant,NA,NA,NA,NA,NA,none,0,false,NA,NA,NA,NA,NA
lVuu8Xp0,3o4vwc1gfzjxgki2d88xs18tr9fj3v,3wi0p0ii655ejk1654skwlcoumlrdb,lVuu8Xp0,2020-0188,2021-10-14,08:30:50,10:04:21,NA,incomplete,false,true,NA,2,22,NA,blue,n_s_043.jpg,NA,NA,unpleasant,pleasant,NA,NA,NA,NA,NA,right,2081.80000000075,true,NA,NA,NA,NA,NA
lVuu8Xp0,3o4vwc1gfzjxgki2d88xs18tr9fj3v,3wi0p0ii655ejk1654skwlcoumlrdb,lVuu8Xp0,2020-0188,2021-10-14,08:30:50,10:04:21,NA,incomplete,false,true,NA,2,23,NA,blue,n_l_010.jpg,NA,NA,unpleasant,pleasant,NA,NA,NA,NA,NA,right,1482.09999999963,true,NA,NA,NA,NA,NA
lVuu8Xp0,3o4vwc1gfzjxgki2d88xs18tr9fj3v,3wi0p0ii655ejk1654skwlcoumlrdb,lVuu8Xp0,2020-0188,2021-10-14,08:30:50,10:04:21,NA,incomplete,false,true,NA,2,24,NA,brown,m_s_050.jpg,NA,NA,unpleasant,pleasant,NA,NA,NA,NA,NA,left,1605.59999999963,true,NA,NA,NA,NA,NA
lVuu8Xp0,3o4vwc1gfzjxgki2d88xs18tr9fj3v,3wi0p0ii655ejk1654skwlcoumlrdb,lVuu8Xp0,2020-0188,2021-10-14,08:30:50,10:04:21,NA,incomplete,false,true,NA,2,25,NA,brown,m_l_041.jpg,NA,NA,pleasant,unpleasant,NA,NA,NA,NA,NA,left,1663.20000000112,true,NA,NA,NA,NA,NA
lVuu8Xp0,3o4vwc1gfzjxgki2d88xs18tr9fj3v,3wi0p0ii655ejk1654skwlcoumlrdb,lVuu8Xp0,2020-0188,2021-10-14,08:30:50,10:04:21,NA,incomplete,false,true,NA,2,26,NA,brown,m_l_023.jpg,NA,NA,unpleasant,pleasant,NA,NA,NA,NA,NA,left,1086.19999999925,true,NA,NA,NA,NA,NA
lVuu8Xp0,3o4vwc1gfzjxgki2d88xs18tr9fj3v,3wi0p0ii655ejk1654skwlcoumlrdb,lVuu8Xp0,2020-0188,2021-10-14,08:30:50,10:04:21,NA,incomplete,false,true,NA,2,27,NA,brown,m_s_029.jpg,NA,NA,pleasant,unpleasant,NA,NA,NA,NA,NA,left,1498,true,NA,NA,NA,NA,NA
lVuu8Xp0,3o4vwc1gfzjxgki2d88xs18tr9fj3v,3wi0p0ii655ejk1654skwlcoumlrdb,lVuu8Xp0,2020-0188,2021-10-14,08:30:50,10:04:21,NA,incomplete,false,true,NA,2,28,NA,brown,m_l_044.jpg,NA,NA,unpleasant,pleasant,NA,NA,NA,NA,NA,right,1226.29999999888,true,NA,NA,NA,NA,NA
lVuu8Xp0,3o4vwc1gfzjxgki2d88xs18tr9fj3v,3wi0p0ii655ejk1654skwlcoumlrdb,lVuu8Xp0,2020-0188,2021-10-14,08:30:50,10:04:21,NA,incomplete,false,true,NA,2,29,NA,brown,m_l_043.jpg,NA,NA,pleasant,unpleasant,NA,NA,NA,NA,NA,left,1202.79999999888,true,NA,NA,NA,NA,NA
lVuu8Xp0,3o4vwc1gfzjxgki2d88xs18tr9fj3v,3wi0p0ii655ejk1654skwlcoumlrdb,lVuu8Xp0,2020-0188,2021-10-14,08:30:50,10:04:21,NA,incomplete,false,true,NA,2,30,NA,white,m_l_012.jpg,NA,NA,unpleasant,pleasant,NA,NA,NA,NA,NA,left,1978.59999999963,true,NA,NA,NA,NA,NA
lVuu8Xp0,3o4vwc1gfzjxgki2d88xs18tr9fj3v,3wi0p0ii655ejk1654skwlcoumlrdb,lVuu8Xp0,2020-0188,2021-10-14,08:30:50,10:04:21,NA,incomplete,false,true,NA,2,31,NA,white,m_l_007.jpg,NA,NA,pleasant,unpleasant,NA,NA,NA,NA,NA,left,2357.09999999963,true,NA,NA,NA,NA,NA
lVuu8Xp0,3o4vwc1gfzjxgki2d88xs18tr9fj3v,3wi0p0ii655ejk1654skwlcoumlrdb,lVuu8Xp0,2020-0188,2021-10-14,08:30:50,10:04:21,NA,incomplete,false,true,NA,2,32,NA,white,m_s_062.jpg,NA,NA,unpleasant,pleasant,NA,NA,NA,NA,NA,right,1433,true,NA,NA,NA,NA,NA
lVuu8Xp0,3o4vwc1gfzjxgki2d88xs18tr9fj3v,3wi0p0ii655ejk1654skwlcoumlrdb,lVuu8Xp0,2020-0188,2021-10-14,08:30:50,10:04:21,NA,incomplete,false,true,NA,2,33,NA,white,n_l_044.jpg,NA,NA,pleasant,unpleasant,NA,NA,NA,NA,NA,left,1499.90000000037,true,NA,NA,NA,NA,NA
lVuu8Xp0,3o4vwc1gfzjxgki2d88xs18tr9fj3v,3wi0p0ii655ejk1654skwlcoumlrdb,lVuu8Xp0,2020-0188,2021-10-14,08:30:50,10:04:21,NA,incomplete,false,true,NA,2,34,NA,white,n_s_013.jpg,NA,NA,unpleasant,pleasant,NA,NA,NA,NA,NA,right,1552.59999999963,true,NA,NA,NA,NA,NA
lVuu8Xp0,3o4vwc1gfzjxgki2d88xs18tr9fj3v,3wi0p0ii655ejk1654skwlcoumlrdb,lVuu8Xp0,2020-0188,2021-10-14,08:30:50,10:04:21,NA,incomplete,false,true,NA,2,35,NA,white,n_s_024.jpg,NA,NA,unpleasant,pleasant,NA,NA,NA,NA,NA,right,1735.79999999888,true,NA,NA,NA,NA,NA
lVuu8Xp0,3o4vwc1gfzjxgki2d88xs18tr9fj3v,3wi0p0ii655ejk1654skwlcoumlrdb,lVuu8Xp0,2020-0188,2021-10-14,08:30:50,10:04:21,NA,incomplete,false,NA,true,2,0,NA,NA,NA,right,absent,NA,NA,n_l_066.jpg,black,m_l_095.jpg,green,between,NA,NaN,NA,right,6704,1,1,2059.699999999255
lVuu8Xp0,3o4vwc1gfzjxgki2d88xs18tr9fj3v,3wi0p0ii655ejk1654skwlcoumlrdb,lVuu8Xp0,2020-0188,2021-10-14,08:30:50,10:04:21,NA,incomplete,false,NA,true,2,1,NA,NA,NA,right,absent,NA,NA,m_l_043.jpg,brown,m_l_041.jpg,brown,within,NA,NaN,NA,right,11188.5,1,1,1108.300000000745
lVuu8Xp0,3o4vwc1gfzjxgki2d88xs18tr9fj3v,3wi0p0ii655ejk1654skwlcoumlrdb,lVuu8Xp0,2020-0188,2021-10-14,08:30:50,10:04:21,NA,incomplete,false,NA,true,2,2,NA,NA,NA,left,absent,NA,NA,n_s_091.jpg,blue,n_l_010.jpg,blue,within,NA,NaN,NA,left,15055.199999999255,1,1,952.6000000014901
lVuu8Xp0,3o4vwc1gfzjxgki2d88xs18tr9fj3v,3wi0p0ii655ejk1654skwlcoumlrdb,lVuu8Xp0,2020-0188,2021-10-14,08:30:50,10:04:21,NA,incomplete,false,NA,true,2,3,NA,NA,NA,right,absent,NA,NA,m_s_091.jpg,green,n_s_008.jpg,green,within,NA,NaN,NA,right,9203.199999999255,1,2,1095.5999999977648
lVuu8Xp0,3o4vwc1gfzjxgki2d88xs18tr9fj3v,3wi0p0ii655ejk1654skwlcoumlrdb,lVuu8Xp0,2020-0188,2021-10-14,08:30:50,10:04:21,NA,incomplete,false,NA,true,2,4,NA,NA,NA,left,absent,NA,NA,n_s_043.jpg,blue,m_l_023.jpg,brown,between,NA,NaN,NA,right,15597.10000000149,0,2,1306.3999999985099
lVuu8Xp0,3o4vwc1gfzjxgki2d88xs18tr9fj3v,3wi0p0ii655ejk1654skwlcoumlrdb,lVuu8Xp0,2020-0188,2021-10-14,08:30:50,10:04:21,NA,incomplete,false,NA,true,2,5,NA,NA,NA,right,absent,NA,NA,m_s_062.jpg,white,m_l_044.jpg,brown,between,NA,NaN,NA,right,10029.300000000745,1,1,1025.0999999977648
lVuu8Xp0,3o4vwc1gfzjxgki2d88xs18tr9fj3v,3wi0p0ii655ejk1654skwlcoumlrdb,lVuu8Xp0,2020-0188,2021-10-14,08:30:50,10:04:21,NA,incomplete,false,NA,true,2,6,NA,NA,NA,left,absent,NA,NA,n_s_028.jpg,gray,m_s_023.jpg,blue,between,NA,NaN,NA,left,5895.900000002235,1,2,1592.0999999977648
lVuu8Xp0,3o4vwc1gfzjxgki2d88xs18tr9fj3v,3wi0p0ii655ejk1654skwlcoumlrdb,lVuu8Xp0,2020-0188,2021-10-14,08:30:50,10:04:21,NA,incomplete,false,NA,true,2,7,NA,NA,NA,left,absent,NA,NA,n_s_031.jpg,black,m_s_090.jpg,gray,between,NA,NaN,NA,left,6717.10000000149,1,2,4096.900000002235
lVuu8Xp0,3o4vwc1gfzjxgki2d88xs18tr9fj3v,3wi0p0ii655ejk1654skwlcoumlrdb,lVuu8Xp0,2020-0188,2021-10-14,08:30:50,10:04:21,NA,incomplete,false,NA,true,2,8,NA,NA,NA,left,absent,NA,NA,n_l_023.jpg,black,n_l_006.jpg,black,within,NA,NaN,NA,left,9839.5,1,1,1093.9000000022352
lVuu8Xp0,3o4vwc1gfzjxgki2d88xs18tr9fj3v,3wi0p0ii655ejk1654skwlcoumlrdb,lVuu8Xp0,2020-0188,2021-10-14,08:30:50,10:04:21,NA,incomplete,false,NA,true,2,9,NA,NA,NA,left,absent,NA,NA,m_l_007.jpg,white,n_s_024.jpg,white,within,NA,NaN,NA,left,3410.60000000149,1,1,1551.3999999985099
lVuu8Xp0,3o4vwc1gfzjxgki2d88xs18tr9fj3v,3wi0p0ii655ejk1654skwlcoumlrdb,lVuu8Xp0,2020-0188,2021-10-14,08:30:50,10:04:21,NA,incomplete,false,NA,true,2,10,NA,NA,NA,right,absent,NA,NA,m_l_029.jpg,gray,n_s_018.jpg,gray,within,NA,NaN,NA,right,8249.699999999255,1,1,2240.89999999851
lVuu8Xp0,3o4vwc1gfzjxgki2d88xs18tr9fj3v,3wi0p0ii655ejk1654skwlcoumlrdb,lVuu8Xp0,2020-0188,2021-10-14,08:30:50,10:04:21,NA,incomplete,false,true,NA,3,0,NA,purple,n_s_090.jpg,NA,NA,pleasant,unpleasant,NA,NA,NA,NA,NA,left,1517.70000000298,true,NA,NA,NA,NA,NA
lVuu8Xp0,3o4vwc1gfzjxgki2d88xs18tr9fj3v,3wi0p0ii655ejk1654skwlcoumlrdb,lVuu8Xp0,2020-0188,2021-10-14,08:30:50,10:04:21,NA,incomplete,false,true,NA,3,1,NA,purple,m_s_065.jpg,NA,NA,unpleasant,pleasant,NA,NA,NA,NA,NA,right,2377.69999999925,true,NA,NA,NA,NA,NA
lVuu8Xp0,3o4vwc1gfzjxgki2d88xs18tr9fj3v,3wi0p0ii655ejk1654skwlcoumlrdb,lVuu8Xp0,2020-0188,2021-10-14,08:30:50,10:04:21,NA,incomplete,false,true,NA,3,2,NA,purple,n_l_057.jpg,NA,NA,unpleasant,pleasant,NA,NA,NA,NA,NA,right,1722.69999999925,true,NA,NA,NA,NA,NA
lVuu8Xp0,3o4vwc1gfzjxgki2d88xs18tr9fj3v,3wi0p0ii655ejk1654skwlcoumlrdb,lVuu8Xp0,2020-0188,2021-10-14,08:30:50,10:04:21,NA,incomplete,false,true,NA,3,3,NA,purple,n_s_115.jpg,NA,NA,unpleasant,pleasant,NA,NA,NA,NA,NA,right,1280.30000000075,true,NA,NA,NA,NA,NA
lVuu8Xp0,3o4vwc1gfzjxgki2d88xs18tr9fj3v,3wi0p0ii655ejk1654skwlcoumlrdb,lVuu8Xp0,2020-0188,2021-10-14,08:30:50,10:04:21,NA,incomplete,false,true,NA,3,4,NA,purple,n_l_089.jpg,NA,NA,pleasant,unpleasant,NA,NA,NA,NA,NA,right,1381.69999999925,true,NA,NA,NA,NA,NA
lVuu8Xp0,3o4vwc1gfzjxgki2d88xs18tr9fj3v,3wi0p0ii655ejk1654skwlcoumlrdb,lVuu8Xp0,2020-0188,2021-10-14,08:30:50,10:04:21,NA,incomplete,false,true,NA,3,5,NA,purple,n_l_074.jpg,NA,NA,pleasant,unpleasant,NA,NA,NA,NA,NA,left,1548.89999999851,true,NA,NA,NA,NA,NA
lVuu8Xp0,3o4vwc1gfzjxgki2d88xs18tr9fj3v,3wi0p0ii655ejk1654skwlcoumlrdb,lVuu8Xp0,2020-0188,2021-10-14,08:30:50,10:04:21,NA,incomplete,false,true,NA,3,6,NA,yellow,m_s_054.jpg,NA,NA,pleasant,unpleasant,NA,NA,NA,NA,NA,right,2610.39999999851,true,NA,NA,NA,NA,NA
lVuu8Xp0,3o4vwc1gfzjxgki2d88xs18tr9fj3v,3wi0p0ii655ejk1654skwlcoumlrdb,lVuu8Xp0,2020-0188,2021-10-14,08:30:50,10:04:21,NA,incomplete,false,true,NA,3,7,NA,yellow,m_l_101.jpg,NA,NA,pleasant,unpleasant,NA,NA,NA,NA,NA,left,2498.70000000298,true,NA,NA,NA,NA,NA
lVuu8Xp0,3o4vwc1gfzjxgki2d88xs18tr9fj3v,3wi0p0ii655ejk1654skwlcoumlrdb,lVuu8Xp0,2020-0188,2021-10-14,08:30:50,10:04:21,NA,incomplete,false,true,NA,3,8,NA,yellow,n_l_110.jpg,NA,NA,unpleasant,pleasant,NA,NA,NA,NA,NA,right,1992.79999999702,true,NA,NA,NA,NA,NA
lVuu8Xp0,3o4vwc1gfzjxgki2d88xs18tr9fj3v,3wi0p0ii655ejk1654skwlcoumlrdb,lVuu8Xp0,2020-0188,2021-10-14,08:30:50,10:04:21,NA,incomplete,false,true,NA,3,9,NA,yellow,n_l_013.jpg,NA,NA,unpleasant,pleasant,NA,NA,NA,NA,NA,right,1558.90000000224,true,NA,NA,NA,NA,NA
lVuu8Xp0,3o4vwc1gfzjxgki2d88xs18tr9fj3v,3wi0p0ii655ejk1654skwlcoumlrdb,lVuu8Xp0,2020-0188,2021-10-14,08:30:50,10:04:21,NA,incomplete,false,true,NA,3,10,NA,yellow,m_l_014.jpg,NA,NA,pleasant,unpleasant,NA,NA,NA,NA,NA,left,1778.80000000075,true,NA,NA,NA,NA,NA
lVuu8Xp0,3o4vwc1gfzjxgki2d88xs18tr9fj3v,3wi0p0ii655ejk1654skwlcoumlrdb,lVuu8Xp0,2020-0188,2021-10-14,08:30:50,10:04:21,NA,incomplete,false,true,NA,3,11,NA,yellow,n_l_051.jpg,NA,NA,unpleasant,pleasant,NA,NA,NA,NA,NA,right,1715.69999999925,true,NA,NA,NA,NA,NA
lVuu8Xp0,3o4vwc1gfzjxgki2d88xs18tr9fj3v,3wi0p0ii655ejk1654skwlcoumlrdb,lVuu8Xp0,2020-0188,2021-10-14,08:30:50,10:04:21,NA,incomplete,false,true,NA,3,12,NA,blue,n_l_027.jpg,NA,NA,pleasant,unpleasant,NA,NA,NA,NA,NA,left,1380.60000000149,true,NA,NA,NA,NA,NA
lVuu8Xp0,3o4vwc1gfzjxgki2d88xs18tr9fj3v,3wi0p0ii655ejk1654skwlcoumlrdb,lVuu8Xp0,2020-0188,2021-10-14,08:30:50,10:04:21,NA,incomplete,false,true,NA,3,13,NA,blue,m_l_116.jpg,NA,NA,pleasant,unpleasant,NA,NA,NA,NA,NA,left,1539.10000000149,true,NA,NA,NA,NA,NA
lVuu8Xp0,3o4vwc1gfzjxgki2d88xs18tr9fj3v,3wi0p0ii655ejk1654skwlcoumlrdb,lVuu8Xp0,2020-0188,2021-10-14,08:30:50,10:04:21,NA,incomplete,false,true,NA,3,14,NA,blue,n_s_022.jpg,NA,NA,unpleasant,pleasant,NA,NA,NA,NA,NA,right,1230.40000000224,true,NA,NA,NA,NA,NA
lVuu8Xp0,3o4vwc1gfzjxgki2d88xs18tr9fj3v,3wi0p0ii655ejk1654skwlcoumlrdb,lVuu8Xp0,2020-0188,2021-10-14,08:30:50,10:04:21,NA,incomplete,false,true,NA,3,15,NA,blue,m_l_053.jpg,NA,NA,unpleasant,pleasant,NA,NA,NA,NA,NA,right,1317.39999999851,true,NA,NA,NA,NA,NA
lVuu8Xp0,3o4vwc1gfzjxgki2d88xs18tr9fj3v,3wi0p0ii655ejk1654skwlcoumlrdb,lVuu8Xp0,2020-0188,2021-10-14,08:30:50,10:04:21,NA,incomplete,false,true,NA,3,16,NA,blue,m_s_041.jpg,NA,NA,pleasant,unpleasant,NA,NA,NA,NA,NA,left,1515.40000000224,true,NA,NA,NA,NA,NA
lVuu8Xp0,3o4vwc1gfzjxgki2d88xs18tr9fj3v,3wi0p0ii655ejk1654skwlcoumlrdb,lVuu8Xp0,2020-0188,2021-10-14,08:30:50,10:04:21,NA,incomplete,false,true,NA,3,17,NA,blue,m_l_110.jpg,NA,NA,unpleasant,pleasant,NA,NA,NA,NA,NA,left,1715.19999999925,true,NA,NA,NA,NA,NA
lVuu8Xp0,3o4vwc1gfzjxgki2d88xs18tr9fj3v,3wi0p0ii655ejk1654skwlcoumlrdb,lVuu8Xp0,2020-0188,2021-10-14,08:30:50,10:04:21,NA,incomplete,false,true,NA,3,18,NA,green,m_l_049.jpg,NA,NA,unpleasant,pleasant,NA,NA,NA,NA,NA,left,2153.89999999851,true,NA,NA,NA,NA,NA
lVuu8Xp0,3o4vwc1gfzjxgki2d88xs18tr9fj3v,3wi0p0ii655ejk1654skwlcoumlrdb,lVuu8Xp0,2020-0188,2021-10-14,08:30:50,10:04:21,NA,incomplete,false,true,NA,3,19,NA,green,n_l_041.jpg,NA,NA,unpleasant,pleasant,NA,NA,NA,NA,NA,left,1927,true,NA,NA,NA,NA,NA
lVuu8Xp0,3o4vwc1gfzjxgki2d88xs18tr9fj3v,3wi0p0ii655ejk1654skwlcoumlrdb,lVuu8Xp0,2020-0188,2021-10-14,08:30:50,10:04:21,NA,incomplete,false,true,NA,3,20,NA,green,n_s_049.jpg,NA,NA,pleasant,unpleasant,NA,NA,NA,NA,NA,right,2293.59999999776,true,NA,NA,NA,NA,NA
lVuu8Xp0,3o4vwc1gfzjxgki2d88xs18tr9fj3v,3wi0p0ii655ejk1654skwlcoumlrdb,lVuu8Xp0,2020-0188,2021-10-14,08:30:50,10:04:21,NA,incomplete,false,true,NA,3,21,NA,green,m_l_092.jpg,NA,NA,pleasant,unpleasant,NA,NA,NA,NA,NA,left,1704.09999999776,true,NA,NA,NA,NA,NA
lVuu8Xp0,3o4vwc1gfzjxgki2d88xs18tr9fj3v,3wi0p0ii655ejk1654skwlcoumlrdb,lVuu8Xp0,2020-0188,2021-10-14,08:30:50,10:04:21,NA,incomplete,false,true,NA,3,22,NA,green,m_s_018.jpg,NA,NA,pleasant,unpleasant,NA,NA,NA,NA,NA,none,0,false,NA,NA,NA,NA,NA
lVuu8Xp0,3o4vwc1gfzjxgki2d88xs18tr9fj3v,3wi0p0ii655ejk1654skwlcoumlrdb,lVuu8Xp0,2020-0188,2021-10-14,08:30:50,10:04:21,NA,incomplete,false,true,NA,3,23,NA,green,n_l_022.jpg,NA,NA,pleasant,unpleasant,NA,NA,NA,NA,NA,left,1416.59999999776,true,NA,NA,NA,NA,NA
lVuu8Xp0,3o4vwc1gfzjxgki2d88xs18tr9fj3v,3wi0p0ii655ejk1654skwlcoumlrdb,lVuu8Xp0,2020-0188,2021-10-14,08:30:50,10:04:21,NA,incomplete,false,true,NA,3,24,NA,orange,m_l_072.jpg,NA,NA,pleasant,unpleasant,NA,NA,NA,NA,NA,left,1311.09999999776,true,NA,NA,NA,NA,NA
lVuu8Xp0,3o4vwc1gfzjxgki2d88xs18tr9fj3v,3wi0p0ii655ejk1654skwlcoumlrdb,lVuu8Xp0,2020-0188,2021-10-14,08:30:50,10:04:21,NA,incomplete,false,true,NA,3,25,NA,orange,m_s_039.jpg,NA,NA,pleasant,unpleasant,NA,NA,NA,NA,NA,left,2834.5,true,NA,NA,NA,NA,NA
lVuu8Xp0,3o4vwc1gfzjxgki2d88xs18tr9fj3v,3wi0p0ii655ejk1654skwlcoumlrdb,lVuu8Xp0,2020-0188,2021-10-14,08:30:50,10:04:21,NA,incomplete,false,true,NA,3,26,NA,orange,n_l_090.jpg,NA,NA,pleasant,unpleasant,NA,NA,NA,NA,NA,right,2588.19999999925,true,NA,NA,NA,NA,NA
lVuu8Xp0,3o4vwc1gfzjxgki2d88xs18tr9fj3v,3wi0p0ii655ejk1654skwlcoumlrdb,lVuu8Xp0,2020-0188,2021-10-14,08:30:50,10:04:21,NA,incomplete,false,true,NA,3,27,NA,orange,n_l_056.jpg,NA,NA,unpleasant,pleasant,NA,NA,NA,NA,NA,right,2102.09999999776,true,NA,NA,NA,NA,NA
lVuu8Xp0,3o4vwc1gfzjxgki2d88xs18tr9fj3v,3wi0p0ii655ejk1654skwlcoumlrdb,lVuu8Xp0,2020-0188,2021-10-14,08:30:50,10:04:21,NA,incomplete,false,true,NA,3,28,NA,orange,m_s_112.jpg,NA,NA,unpleasant,pleasant,NA,NA,NA,NA,NA,right,1603.89999999851,true,NA,NA,NA,NA,NA
lVuu8Xp0,3o4vwc1gfzjxgki2d88xs18tr9fj3v,3wi0p0ii655ejk1654skwlcoumlrdb,lVuu8Xp0,2020-0188,2021-10-14,08:30:50,10:04:21,NA,incomplete,false,true,NA,3,29,NA,orange,m_l_020.jpg,NA,NA,pleasant,unpleasant,NA,NA,NA,NA,NA,left,1494.69999999925,true,NA,NA,NA,NA,NA
lVuu8Xp0,3o4vwc1gfzjxgki2d88xs18tr9fj3v,3wi0p0ii655ejk1654skwlcoumlrdb,lVuu8Xp0,2020-0188,2021-10-14,08:30:50,10:04:21,NA,incomplete,false,true,NA,3,30,NA,gray,n_s_004.jpg,NA,NA,unpleasant,pleasant,NA,NA,NA,NA,NA,right,1742.69999999925,true,NA,NA,NA,NA,NA
lVuu8Xp0,3o4vwc1gfzjxgki2d88xs18tr9fj3v,3wi0p0ii655ejk1654skwlcoumlrdb,lVuu8Xp0,2020-0188,2021-10-14,08:30:50,10:04:21,NA,incomplete,false,true,NA,3,31,NA,gray,m_l_036.jpg,NA,NA,pleasant,unpleasant,NA,NA,NA,NA,NA,right,2176.90000000224,true,NA,NA,NA,NA,NA
lVuu8Xp0,3o4vwc1gfzjxgki2d88xs18tr9fj3v,3wi0p0ii655ejk1654skwlcoumlrdb,lVuu8Xp0,2020-0188,2021-10-14,08:30:50,10:04:21,NA,incomplete,false,true,NA,3,32,NA,gray,m_s_004.jpg,NA,NA,unpleasant,pleasant,NA,NA,NA,NA,NA,right,1796,true,NA,NA,NA,NA,NA
lVuu8Xp0,3o4vwc1gfzjxgki2d88xs18tr9fj3v,3wi0p0ii655ejk1654skwlcoumlrdb,lVuu8Xp0,2020-0188,2021-10-14,08:30:50,10:04:21,NA,incomplete,false,true,NA,3,33,NA,gray,n_l_070.jpg,NA,NA,unpleasant,pleasant,NA,NA,NA,NA,NA,right,1709.19999999925,true,NA,NA,NA,NA,NA
lVuu8Xp0,3o4vwc1gfzjxgki2d88xs18tr9fj3v,3wi0p0ii655ejk1654skwlcoumlrdb,lVuu8Xp0,2020-0188,2021-10-14,08:30:50,10:04:21,NA,incomplete,false,true,NA,3,34,NA,gray,m_l_094.jpg,NA,NA,pleasant,unpleasant,NA,NA,NA,NA,NA,right,1391.70000000298,true,NA,NA,NA,NA,NA
lVuu8Xp0,3o4vwc1gfzjxgki2d88xs18tr9fj3v,3wi0p0ii655ejk1654skwlcoumlrdb,lVuu8Xp0,2020-0188,2021-10-14,08:30:50,10:04:21,NA,incomplete,false,true,NA,3,35,NA,gray,n_l_011.jpg,NA,NA,unpleasant,pleasant,NA,NA,NA,NA,NA,right,1972.30000000075,true,NA,NA,NA,NA,NA
lVuu8Xp0,3o4vwc1gfzjxgki2d88xs18tr9fj3v,3wi0p0ii655ejk1654skwlcoumlrdb,lVuu8Xp0,2020-0188,2021-10-14,08:30:50,10:04:21,NA,incomplete,false,NA,true,3,0,NA,NA,NA,right,absent,NA,NA,m_s_004.jpg,gray,m_s_112.jpg,orange,between,NA,NaN,NA,right,4623,1,1,1670.5
lVuu8Xp0,3o4vwc1gfzjxgki2d88xs18tr9fj3v,3wi0p0ii655ejk1654skwlcoumlrdb,lVuu8Xp0,2020-0188,2021-10-14,08:30:50,10:04:21,NA,incomplete,false,NA,true,3,1,NA,NA,NA,left,absent,NA,NA,n_l_089.jpg,purple,n_l_110.jpg,yellow,between,NA,NaN,NA,left,19684.199999999255,1,1,1493.199999999255
lVuu8Xp0,3o4vwc1gfzjxgki2d88xs18tr9fj3v,3wi0p0ii655ejk1654skwlcoumlrdb,lVuu8Xp0,2020-0188,2021-10-14,08:30:50,10:04:21,NA,incomplete,false,NA,true,3,2,NA,NA,NA,right,absent,NA,NA,n_s_022.jpg,blue,m_l_014.jpg,yellow,between,NA,NaN,NA,right,5846.900000002235,1,1,1573.5
lVuu8Xp0,3o4vwc1gfzjxgki2d88xs18tr9fj3v,3wi0p0ii655ejk1654skwlcoumlrdb,lVuu8Xp0,2020-0188,2021-10-14,08:30:50,10:04:21,NA,incomplete,false,NA,true,3,3,NA,NA,NA,right,absent,NA,NA,n_l_074.jpg,purple,m_s_065.jpg,purple,within,NA,NaN,NA,right,4449.10000000149,1,1,1550.5999999977648
lVuu8Xp0,3o4vwc1gfzjxgki2d88xs18tr9fj3v,3wi0p0ii655ejk1654skwlcoumlrdb,lVuu8Xp0,2020-0188,2021-10-14,08:30:50,10:04:21,NA,incomplete,false,NA,true,3,4,NA,NA,NA,right,absent,NA,NA,n_l_011.jpg,gray,m_l_036.jpg,gray,within,NA,NaN,NA,right,5318.199999999255,1,1,1472.4000000022352
lVuu8Xp0,3o4vwc1gfzjxgki2d88xs18tr9fj3v,3wi0p0ii655ejk1654skwlcoumlrdb,lVuu8Xp0,2020-0188,2021-10-14,08:30:50,10:04:21,NA,incomplete,false,NA,true,3,5,NA,NA,NA,left,absent,NA,NA,m_s_018.jpg,green,n_l_090.jpg,orange,between,NA,NaN,NA,left,14512.800000000745,1,2,1124.8999999985099
lVuu8Xp0,3o4vwc1gfzjxgki2d88xs18tr9fj3v,3wi0p0ii655ejk1654skwlcoumlrdb,lVuu8Xp0,2020-0188,2021-10-14,08:30:50,10:04:21,NA,incomplete,false,NA,true,3,6,NA,NA,NA,right,absent,NA,NA,m_l_110.jpg,blue,m_l_116.jpg,blue,within,NA,NaN,NA,right,5892.800000000745,1,0,1170.800000000745
lVuu8Xp0,3o4vwc1gfzjxgki2d88xs18tr9fj3v,3wi0p0ii655ejk1654skwlcoumlrdb,lVuu8Xp0,2020-0188,2021-10-14,08:30:50,10:04:21,NA,incomplete,false,NA,true,3,7,NA,NA,NA,right,absent,NA,NA,n_l_051.jpg,yellow,m_l_101.jpg,yellow,within,NA,NaN,NA,right,4578,1,1,1966.699999999255
lVuu8Xp0,3o4vwc1gfzjxgki2d88xs18tr9fj3v,3wi0p0ii655ejk1654skwlcoumlrdb,lVuu8Xp0,2020-0188,2021-10-14,08:30:50,10:04:21,NA,incomplete,false,NA,true,3,8,NA,NA,NA,right,absent,NA,NA,n_s_049.jpg,green,m_s_041.jpg,blue,between,NA,NaN,NA,left,14385,0,2,835.0999999977648
lVuu8Xp0,3o4vwc1gfzjxgki2d88xs18tr9fj3v,3wi0p0ii655ejk1654skwlcoumlrdb,lVuu8Xp0,2020-0188,2021-10-14,08:30:50,10:04:21,NA,incomplete,false,NA,true,3,9,NA,NA,NA,left,absent,NA,NA,m_s_039.jpg,orange,m_l_020.jpg,orange,within,NA,NaN,NA,left,5017.29999999702,1,1,1041.1000000014901
lVuu8Xp0,3o4vwc1gfzjxgki2d88xs18tr9fj3v,3wi0p0ii655ejk1654skwlcoumlrdb,lVuu8Xp0,2020-0188,2021-10-14,08:30:50,10:04:21,NA,incomplete,false,NA,true,3,10,NA,NA,NA,right,absent,NA,NA,n_l_022.jpg,green,n_l_041.jpg,green,within,NA,NaN,NA,right,17124.199999999255,1,1,1413
lVuu8Xp0,3o4vwc1gfzjxgki2d88xs18tr9fj3v,3wi0p0ii655ejk1654skwlcoumlrdb,lVuu8Xp0,2020-0188,2021-10-14,08:30:50,10:04:21,NA,incomplete,false,true,NA,4,0,NA,orange,m_s_096.jpg,NA,NA,pleasant,unpleasant,NA,NA,NA,NA,NA,left,1283.30000000075,true,NA,NA,NA,NA,NA
lVuu8Xp0,3o4vwc1gfzjxgki2d88xs18tr9fj3v,3wi0p0ii655ejk1654skwlcoumlrdb,lVuu8Xp0,2020-0188,2021-10-14,08:30:50,10:04:21,NA,incomplete,false,true,NA,4,1,NA,orange,n_s_084.jpg,NA,NA,pleasant,unpleasant,NA,NA,NA,NA,NA,right,2267.60000000149,true,NA,NA,NA,NA,NA
lVuu8Xp0,3o4vwc1gfzjxgki2d88xs18tr9fj3v,3wi0p0ii655ejk1654skwlcoumlrdb,lVuu8Xp0,2020-0188,2021-10-14,08:30:50,10:04:21,NA,incomplete,false,true,NA,4,2,NA,orange,m_l_085.jpg,NA,NA,pleasant,unpleasant,NA,NA,NA,NA,NA,left,1656.90000000224,true,NA,NA,NA,NA,NA
lVuu8Xp0,3o4vwc1gfzjxgki2d88xs18tr9fj3v,3wi0p0ii655ejk1654skwlcoumlrdb,lVuu8Xp0,2020-0188,2021-10-14,08:30:50,10:04:21,NA,incomplete,false,true,NA,4,3,NA,orange,m_s_055.jpg,NA,NA,unpleasant,pleasant,NA,NA,NA,NA,NA,left,1810.80000000075,true,NA,NA,NA,NA,NA
lVuu8Xp0,3o4vwc1gfzjxgki2d88xs18tr9fj3v,3wi0p0ii655ejk1654skwlcoumlrdb,lVuu8Xp0,2020-0188,2021-10-14,08:30:50,10:04:21,NA,incomplete,false,true,NA,4,4,NA,orange,n_l_072.jpg,NA,NA,pleasant,unpleasant,NA,NA,NA,NA,NA,left,1918.5,true,NA,NA,NA,NA,NA
lVuu8Xp0,3o4vwc1gfzjxgki2d88xs18tr9fj3v,3wi0p0ii655ejk1654skwlcoumlrdb,lVuu8Xp0,2020-0188,2021-10-14,08:30:50,10:04:21,NA,incomplete,false,true,NA,4,5,NA,orange,n_l_099.jpg,NA,NA,pleasant,unpleasant,NA,NA,NA,NA,NA,right,2049.60000000149,true,NA,NA,NA,NA,NA
lVuu8Xp0,3o4vwc1gfzjxgki2d88xs18tr9fj3v,3wi0p0ii655ejk1654skwlcoumlrdb,lVuu8Xp0,2020-0188,2021-10-14,08:30:50,10:04:21,NA,incomplete,false,true,NA,4,6,NA,purple,n_l_095.jpg,NA,NA,pleasant,unpleasant,NA,NA,NA,NA,NA,left,1441.10000000149,true,NA,NA,NA,NA,NA
lVuu8Xp0,3o4vwc1gfzjxgki2d88xs18tr9fj3v,3wi0p0ii655ejk1654skwlcoumlrdb,lVuu8Xp0,2020-0188,2021-10-14,08:30:50,10:04:21,NA,incomplete,false,true,NA,4,7,NA,purple,n_l_082.jpg,NA,NA,pleasant,unpleasant,NA,NA,NA,NA,NA,left,1797.80000000075,true,NA,NA,NA,NA,NA
lVuu8Xp0,3o4vwc1gfzjxgki2d88xs18tr9fj3v,3wi0p0ii655ejk1654skwlcoumlrdb,lVuu8Xp0,2020-0188,2021-10-14,08:30:50,10:04:21,NA,incomplete,false,true,NA,4,8,NA,purple,m_s_026.jpg,NA,NA,pleasant,unpleasant,NA,NA,NA,NA,NA,left,2327.39999999851,true,NA,NA,NA,NA,NA
lVuu8Xp0,3o4vwc1gfzjxgki2d88xs18tr9fj3v,3wi0p0ii655ejk1654skwlcoumlrdb,lVuu8Xp0,2020-0188,2021-10-14,08:30:50,10:04:21,NA,incomplete,false,true,NA,4,9,NA,purple,m_l_061.jpg,NA,NA,unpleasant,pleasant,NA,NA,NA,NA,NA,right,2028.19999999925,true,NA,NA,NA,NA,NA
lVuu8Xp0,3o4vwc1gfzjxgki2d88xs18tr9fj3v,3wi0p0ii655ejk1654skwlcoumlrdb,lVuu8Xp0,2020-0188,2021-10-14,08:30:50,10:04:21,NA,incomplete,false,true,NA,4,10,NA,purple,m_s_079.jpg,NA,NA,pleasant,unpleasant,NA,NA,NA,NA,NA,left,1413.30000000075,true,NA,NA,NA,NA,NA
lVuu8Xp0,3o4vwc1gfzjxgki2d88xs18tr9fj3v,3wi0p0ii655ejk1654skwlcoumlrdb,lVuu8Xp0,2020-0188,2021-10-14,08:30:50,10:04:21,NA,incomplete,false,true,NA,4,11,NA,purple,n_s_088.jpg,NA,NA,unpleasant,pleasant,NA,NA,NA,NA,NA,right,1935.30000000075,true,NA,NA,NA,NA,NA
lVuu8Xp0,3o4vwc1gfzjxgki2d88xs18tr9fj3v,3wi0p0ii655ejk1654skwlcoumlrdb,lVuu8Xp0,2020-0188,2021-10-14,08:30:50,10:04:21,NA,incomplete,false,true,NA,4,12,NA,black,n_s_074.jpg,NA,NA,pleasant,unpleasant,NA,NA,NA,NA,NA,left,1592.79999999702,true,NA,NA,NA,NA,NA
lVuu8Xp0,3o4vwc1gfzjxgki2d88xs18tr9fj3v,3wi0p0ii655ejk1654skwlcoumlrdb,lVuu8Xp0,2020-0188,2021-10-14,08:30:50,10:04:21,NA,incomplete,false,true,NA,4,13,NA,black,n_s_032.jpg,NA,NA,unpleasant,pleasant,NA,NA,NA,NA,NA,right,1351.60000000149,true,NA,NA,NA,NA,NA
lVuu8Xp0,3o4vwc1gfzjxgki2d88xs18tr9fj3v,3wi0p0ii655ejk1654skwlcoumlrdb,lVuu8Xp0,2020-0188,2021-10-14,08:30:50,10:04:21,NA,incomplete,false,true,NA,4,14,NA,black,n_l_046.jpg,NA,NA,unpleasant,pleasant,NA,NA,NA,NA,NA,right,1670.80000000075,true,NA,NA,NA,NA,NA
lVuu8Xp0,3o4vwc1gfzjxgki2d88xs18tr9fj3v,3wi0p0ii655ejk1654skwlcoumlrdb,lVuu8Xp0,2020-0188,2021-10-14,08:30:50,10:04:21,NA,incomplete,false,true,NA,4,15,NA,black,n_s_011.jpg,NA,NA,unpleasant,pleasant,NA,NA,NA,NA,NA,right,2213,true,NA,NA,NA,NA,NA
lVuu8Xp0,3o4vwc1gfzjxgki2d88xs18tr9fj3v,3wi0p0ii655ejk1654skwlcoumlrdb,lVuu8Xp0,2020-0188,2021-10-14,08:30:50,10:04:21,NA,incomplete,false,true,NA,4,16,NA,black,m_l_062.jpg,NA,NA,pleasant,unpleasant,NA,NA,NA,NA,NA,left,1908.89999999851,true,NA,NA,NA,NA,NA
lVuu8Xp0,3o4vwc1gfzjxgki2d88xs18tr9fj3v,3wi0p0ii655ejk1654skwlcoumlrdb,lVuu8Xp0,2020-0188,2021-10-14,08:30:50,10:04:21,NA,incomplete,false,true,NA,4,17,NA,black,m_s_010.jpg,NA,NA,pleasant,unpleasant,NA,NA,NA,NA,NA,left,1519.60000000149,true,NA,NA,NA,NA,NA
lVuu8Xp0,3o4vwc1gfzjxgki2d88xs18tr9fj3v,3wi0p0ii655ejk1654skwlcoumlrdb,lVuu8Xp0,2020-0188,2021-10-14,08:30:50,10:04:21,NA,incomplete,false,true,NA,4,18,NA,green,m_l_114.jpg,NA,NA,pleasant,unpleasant,NA,NA,NA,NA,NA,left,1894.30000000075,true,NA,NA,NA,NA,NA
lVuu8Xp0,3o4vwc1gfzjxgki2d88xs18tr9fj3v,3wi0p0ii655ejk1654skwlcoumlrdb,lVuu8Xp0,2020-0188,2021-10-14,08:30:50,10:04:21,NA,incomplete,false,true,NA,4,19,NA,green,m_s_031.jpg,NA,NA,pleasant,unpleasant,NA,NA,NA,NA,NA,left,1294,true,NA,NA,NA,NA,NA
lVuu8Xp0,3o4vwc1gfzjxgki2d88xs18tr9fj3v,3wi0p0ii655ejk1654skwlcoumlrdb,lVuu8Xp0,2020-0188,2021-10-14,08:30:50,10:04:21,NA,incomplete,false,true,NA,4,20,NA,green,n_l_063.jpg,NA,NA,pleasant,unpleasant,NA,NA,NA,NA,NA,left,2464.10000000149,true,NA,NA,NA,NA,NA
lVuu8Xp0,3o4vwc1gfzjxgki2d88xs18tr9fj3v,3wi0p0ii655ejk1654skwlcoumlrdb,lVuu8Xp0,2020-0188,2021-10-14,08:30:50,10:04:21,NA,incomplete,false,true,NA,4,21,NA,green,m_s_012.jpg,NA,NA,pleasant,unpleasant,NA,NA,NA,NA,NA,none,0,false,NA,NA,NA,NA,NA
lVuu8Xp0,3o4vwc1gfzjxgki2d88xs18tr9fj3v,3wi0p0ii655ejk1654skwlcoumlrdb,lVuu8Xp0,2020-0188,2021-10-14,08:30:50,10:04:21,NA,incomplete,false,true,NA,4,22,NA,green,m_s_008.jpg,NA,NA,unpleasant,pleasant,NA,NA,NA,NA,NA,right,1345.89999999851,true,NA,NA,NA,NA,NA
lVuu8Xp0,3o4vwc1gfzjxgki2d88xs18tr9fj3v,3wi0p0ii655ejk1654skwlcoumlrdb,lVuu8Xp0,2020-0188,2021-10-14,08:30:50,10:04:21,NA,incomplete,false,true,NA,4,23,NA,green,m_s_102.jpg,NA,NA,unpleasant,pleasant,NA,NA,NA,NA,NA,right,1627.39999999851,true,NA,NA,NA,NA,NA
lVuu8Xp0,3o4vwc1gfzjxgki2d88xs18tr9fj3v,3wi0p0ii655ejk1654skwlcoumlrdb,lVuu8Xp0,2020-0188,2021-10-14,08:30:50,10:04:21,NA,incomplete,false,true,NA,4,24,NA,gray,n_s_099.jpg,NA,NA,unpleasant,pleasant,NA,NA,NA,NA,NA,right,2234.80000000075,true,NA,NA,NA,NA,NA
lVuu8Xp0,3o4vwc1gfzjxgki2d88xs18tr9fj3v,3wi0p0ii655ejk1654skwlcoumlrdb,lVuu8Xp0,2020-0188,2021-10-14,08:30:50,10:04:21,NA,incomplete,false,true,NA,4,25,NA,gray,m_s_052.jpg,NA,NA,pleasant,unpleasant,NA,NA,NA,NA,NA,left,1550.80000000075,true,NA,NA,NA,NA,NA
lVuu8Xp0,3o4vwc1gfzjxgki2d88xs18tr9fj3v,3wi0p0ii655ejk1654skwlcoumlrdb,lVuu8Xp0,2020-0188,2021-10-14,08:30:50,10:04:21,NA,incomplete,false,true,NA,4,26,NA,gray,n_s_045.jpg,NA,NA,unpleasant,pleasant,NA,NA,NA,NA,NA,right,1294.60000000149,true,NA,NA,NA,NA,NA
lVuu8Xp0,3o4vwc1gfzjxgki2d88xs18tr9fj3v,3wi0p0ii655ejk1654skwlcoumlrdb,lVuu8Xp0,2020-0188,2021-10-14,08:30:50,10:04:21,NA,incomplete,false,true,NA,4,27,NA,gray,m_s_085.jpg,NA,NA,unpleasant,pleasant,NA,NA,NA,NA,NA,left,1653,true,NA,NA,NA,NA,NA
lVuu8Xp0,3o4vwc1gfzjxgki2d88xs18tr9fj3v,3wi0p0ii655ejk1654skwlcoumlrdb,lVuu8Xp0,2020-0188,2021-10-14,08:30:50,10:04:21,NA,incomplete,false,true,NA,4,28,NA,gray,m_s_088.jpg,NA,NA,unpleasant,pleasant,NA,NA,NA,NA,NA,left,1868,true,NA,NA,NA,NA,NA
lVuu8Xp0,3o4vwc1gfzjxgki2d88xs18tr9fj3v,3wi0p0ii655ejk1654skwlcoumlrdb,lVuu8Xp0,2020-0188,2021-10-14,08:30:50,10:04:21,NA,incomplete,false,true,NA,4,29,NA,gray,n_s_023.jpg,NA,NA,unpleasant,pleasant,NA,NA,NA,NA,NA,right,1409.80000000075,true,NA,NA,NA,NA,NA
lVuu8Xp0,3o4vwc1gfzjxgki2d88xs18tr9fj3v,3wi0p0ii655ejk1654skwlcoumlrdb,lVuu8Xp0,2020-0188,2021-10-14,08:30:50,10:04:21,NA,incomplete,false,true,NA,4,30,NA,brown,m_l_093.jpg,NA,NA,unpleasant,pleasant,NA,NA,NA,NA,NA,right,2210.40000000224,true,NA,NA,NA,NA,NA
lVuu8Xp0,3o4vwc1gfzjxgki2d88xs18tr9fj3v,3wi0p0ii655ejk1654skwlcoumlrdb,lVuu8Xp0,2020-0188,2021-10-14,08:30:50,10:04:21,NA,incomplete,false,true,NA,4,31,NA,brown,n_s_111.jpg,NA,NA,unpleasant,pleasant,NA,NA,NA,NA,NA,right,3112.90000000224,true,NA,NA,NA,NA,NA
lVuu8Xp0,3o4vwc1gfzjxgki2d88xs18tr9fj3v,3wi0p0ii655ejk1654skwlcoumlrdb,lVuu8Xp0,2020-0188,2021-10-14,08:30:50,10:04:21,NA,incomplete,false,true,NA,4,32,NA,brown,m_l_104.jpg,NA,NA,unpleasant,pleasant,NA,NA,NA,NA,NA,right,1557.80000000075,true,NA,NA,NA,NA,NA
lVuu8Xp0,3o4vwc1gfzjxgki2d88xs18tr9fj3v,3wi0p0ii655ejk1654skwlcoumlrdb,lVuu8Xp0,2020-0188,2021-10-14,08:30:50,10:04:21,NA,incomplete,false,true,NA,4,33,NA,brown,m_s_034.jpg,NA,NA,pleasant,unpleasant,NA,NA,NA,NA,NA,left,1473,true,NA,NA,NA,NA,NA
lVuu8Xp0,3o4vwc1gfzjxgki2d88xs18tr9fj3v,3wi0p0ii655ejk1654skwlcoumlrdb,lVuu8Xp0,2020-0188,2021-10-14,08:30:50,10:04:21,NA,incomplete,false,true,NA,4,34,NA,brown,n_l_007.jpg,NA,NA,pleasant,unpleasant,NA,NA,NA,NA,NA,left,1351.69999999925,true,NA,NA,NA,NA,NA
lVuu8Xp0,3o4vwc1gfzjxgki2d88xs18tr9fj3v,3wi0p0ii655ejk1654skwlcoumlrdb,lVuu8Xp0,2020-0188,2021-10-14,08:30:50,10:04:21,NA,incomplete,false,true,NA,4,35,NA,brown,n_l_114.jpg,NA,NA,unpleasant,pleasant,NA,NA,NA,NA,NA,none,0,false,NA,NA,NA,NA,NA
lVuu8Xp0,3o4vwc1gfzjxgki2d88xs18tr9fj3v,3wi0p0ii655ejk1654skwlcoumlrdb,lVuu8Xp0,2020-0188,2021-10-14,08:30:50,10:04:21,NA,incomplete,false,NA,true,4,0,NA,NA,NA,left,absent,NA,NA,m_s_052.jpg,gray,n_s_023.jpg,gray,within,NA,NaN,NA,left,6027.60000000149,1,1,1266.199999999255
lVuu8Xp0,3o4vwc1gfzjxgki2d88xs18tr9fj3v,3wi0p0ii655ejk1654skwlcoumlrdb,lVuu8Xp0,2020-0188,2021-10-14,08:30:50,10:04:21,NA,incomplete,false,NA,true,4,1,NA,NA,NA,left,absent,NA,NA,m_s_088.jpg,gray,m_l_104.jpg,brown,between,NA,NaN,NA,left,7148.599999997765,1,2,948.6999999992549
lVuu8Xp0,3o4vwc1gfzjxgki2d88xs18tr9fj3v,3wi0p0ii655ejk1654skwlcoumlrdb,lVuu8Xp0,2020-0188,2021-10-14,08:30:50,10:04:21,NA,incomplete,false,NA,true,4,2,NA,NA,NA,left,absent,NA,NA,n_s_111.jpg,brown,n_l_114.jpg,brown,within,NA,NaN,NA,left,7669.400000002235,1,1,1635.199999999255
lVuu8Xp0,3o4vwc1gfzjxgki2d88xs18tr9fj3v,3wi0p0ii655ejk1654skwlcoumlrdb,lVuu8Xp0,2020-0188,2021-10-14,08:30:50,10:04:21,NA,incomplete,false,NA,true,4,3,NA,NA,NA,left,absent,NA,NA,m_s_031.jpg,green,m_s_102.jpg,green,within,NA,NaN,NA,left,13514.10000000149,1,1,1098.199999999255
lVuu8Xp0,3o4vwc1gfzjxgki2d88xs18tr9fj3v,3wi0p0ii655ejk1654skwlcoumlrdb,lVuu8Xp0,2020-0188,2021-10-14,08:30:50,10:04:21,NA,incomplete,false,NA,true,4,4,NA,NA,NA,right,absent,NA,NA,n_s_088.jpg,purple,n_l_082.jpg,purple,within,NA,NaN,NA,left,11821.5,0,1,2907.5
lVuu8Xp0,3o4vwc1gfzjxgki2d88xs18tr9fj3v,3wi0p0ii655ejk1654skwlcoumlrdb,lVuu8Xp0,2020-0188,2021-10-14,08:30:50,10:04:21,NA,incomplete,false,NA,true,4,5,NA,NA,NA,right,absent,NA,NA,m_s_010.jpg,black,n_s_032.jpg,black,within,NA,NaN,NA,right,5374.800000000745,1,1,1337.699999999255
lVuu8Xp0,3o4vwc1gfzjxgki2d88xs18tr9fj3v,3wi0p0ii655ejk1654skwlcoumlrdb,lVuu8Xp0,2020-0188,2021-10-14,08:30:50,10:04:21,NA,incomplete,false,NA,true,4,6,NA,NA,NA,left,absent,NA,NA,m_s_008.jpg,green,n_s_045.jpg,gray,between,NA,NaN,NA,left,27024.800000000745,1,1,1886.199999999255
lVuu8Xp0,3o4vwc1gfzjxgki2d88xs18tr9fj3v,3wi0p0ii655ejk1654skwlcoumlrdb,lVuu8Xp0,2020-0188,2021-10-14,08:30:50,10:04:21,NA,incomplete,false,NA,true,4,7,NA,NA,NA,left,absent,NA,NA,m_s_079.jpg,purple,n_l_046.jpg,black,between,NA,NaN,NA,left,6214.20000000298,1,2,1376.800000000745
lVuu8Xp0,3o4vwc1gfzjxgki2d88xs18tr9fj3v,3wi0p0ii655ejk1654skwlcoumlrdb,lVuu8Xp0,2020-0188,2021-10-14,08:30:50,10:04:21,NA,incomplete,false,NA,true,4,8,NA,NA,NA,left,absent,NA,NA,n_l_072.jpg,orange,m_s_026.jpg,purple,between,NA,NaN,NA,left,9342.699999999255,1,2,1020.4000000022352
lVuu8Xp0,3o4vwc1gfzjxgki2d88xs18tr9fj3v,3wi0p0ii655ejk1654skwlcoumlrdb,lVuu8Xp0,2020-0188,2021-10-14,08:30:50,10:04:21,NA,incomplete,false,NA,true,4,9,NA,NA,NA,right,absent,NA,NA,n_l_063.jpg,green,m_l_062.jpg,black,between,NA,NaN,NA,left,10614.800000000745,0,2,1175.2999999970198
lVuu8Xp0,3o4vwc1gfzjxgki2d88xs18tr9fj3v,3wi0p0ii655ejk1654skwlcoumlrdb,lVuu8Xp0,2020-0188,2021-10-14,08:30:50,10:04:21,NA,incomplete,false,NA,true,4,10,NA,NA,NA,left,absent,NA,NA,n_s_084.jpg,orange,n_l_099.jpg,orange,within,NA,NaN,NA,left,5293.5,1,1,1385.300000000745
lVuu8Xp0,3o4vwc1gfzjxgki2d88xs18tr9fj3v,3wi0p0ii655ejk1654skwlcoumlrdb,lVuu8Xp0,2020-0188,2021-10-14,08:30:50,10:04:21,NA,incomplete,false,true,NA,5,0,NA,brown,m_l_056.jpg,NA,NA,unpleasant,pleasant,NA,NA,NA,NA,NA,right,1378.39999999851,true,NA,NA,NA,NA,NA
lVuu8Xp0,3o4vwc1gfzjxgki2d88xs18tr9fj3v,3wi0p0ii655ejk1654skwlcoumlrdb,lVuu8Xp0,2020-0188,2021-10-14,08:30:50,10:04:21,NA,incomplete,false,true,NA,5,1,NA,brown,n_s_080.jpg,NA,NA,unpleasant,pleasant,NA,NA,NA,NA,NA,none,0,false,NA,NA,NA,NA,NA
lVuu8Xp0,3o4vwc1gfzjxgki2d88xs18tr9fj3v,3wi0p0ii655ejk1654skwlcoumlrdb,lVuu8Xp0,2020-0188,2021-10-14,08:30:50,10:04:21,NA,incomplete,false,true,NA,5,2,NA,brown,m_l_081.jpg,NA,NA,pleasant,unpleasant,NA,NA,NA,NA,NA,left,1878.90000000224,true,NA,NA,NA,NA,NA
lVuu8Xp0,3o4vwc1gfzjxgki2d88xs18tr9fj3v,3wi0p0ii655ejk1654skwlcoumlrdb,lVuu8Xp0,2020-0188,2021-10-14,08:30:50,10:04:21,NA,incomplete,false,true,NA,5,3,NA,brown,m_s_097.jpg,NA,NA,unpleasant,pleasant,NA,NA,NA,NA,NA,left,1436.89999999851,true,NA,NA,NA,NA,NA
lVuu8Xp0,3o4vwc1gfzjxgki2d88xs18tr9fj3v,3wi0p0ii655ejk1654skwlcoumlrdb,lVuu8Xp0,2020-0188,2021-10-14,08:30:50,10:04:21,NA,incomplete,false,true,NA,5,4,NA,brown,n_s_066.jpg,NA,NA,unpleasant,pleasant,NA,NA,NA,NA,NA,right,1868.19999999925,true,NA,NA,NA,NA,NA
lVuu8Xp0,3o4vwc1gfzjxgki2d88xs18tr9fj3v,3wi0p0ii655ejk1654skwlcoumlrdb,lVuu8Xp0,2020-0188,2021-10-14,08:30:50,10:04:21,NA,incomplete,false,true,NA,5,5,NA,brown,n_s_085.jpg,NA,NA,pleasant,unpleasant,NA,NA,NA,NA,NA,left,1300.79999999702,true,NA,NA,NA,NA,NA
lVuu8Xp0,3o4vwc1gfzjxgki2d88xs18tr9fj3v,3wi0p0ii655ejk1654skwlcoumlrdb,lVuu8Xp0,2020-0188,2021-10-14,08:30:50,10:04:21,NA,incomplete,false,true,NA,5,6,NA,purple,m_l_090.jpg,NA,NA,unpleasant,pleasant,NA,NA,NA,NA,NA,right,1362.79999999702,true,NA,NA,NA,NA,NA
lVuu8Xp0,3o4vwc1gfzjxgki2d88xs18tr9fj3v,3wi0p0ii655ejk1654skwlcoumlrdb,lVuu8Xp0,2020-0188,2021-10-14,08:30:50,10:04:21,NA,incomplete,false,true,NA,5,7,NA,purple,n_s_041.jpg,NA,NA,unpleasant,pleasant,NA,NA,NA,NA,NA,right,2680.90000000224,true,NA,NA,NA,NA,NA
lVuu8Xp0,3o4vwc1gfzjxgki2d88xs18tr9fj3v,3wi0p0ii655ejk1654skwlcoumlrdb,lVuu8Xp0,2020-0188,2021-10-14,08:30:50,10:04:21,NA,incomplete,false,true,NA,5,8,NA,purple,m_l_034.jpg,NA,NA,unpleasant,pleasant,NA,NA,NA,NA,NA,right,2302.60000000149,true,NA,NA,NA,NA,NA
lVuu8Xp0,3o4vwc1gfzjxgki2d88xs18tr9fj3v,3wi0p0ii655ejk1654skwlcoumlrdb,lVuu8Xp0,2020-0188,2021-10-14,08:30:50,10:04:21,NA,incomplete,false,true,NA,5,9,NA,purple,m_s_058.jpg,NA,NA,unpleasant,pleasant,NA,NA,NA,NA,NA,right,2376.89999999851,true,NA,NA,NA,NA,NA
lVuu8Xp0,3o4vwc1gfzjxgki2d88xs18tr9fj3v,3wi0p0ii655ejk1654skwlcoumlrdb,lVuu8Xp0,2020-0188,2021-10-14,08:30:50,10:04:21,NA,incomplete,false,true,NA,5,10,NA,purple,n_l_015.jpg,NA,NA,pleasant,unpleasant,NA,NA,NA,NA,NA,right,2236.69999999925,true,NA,NA,NA,NA,NA
lVuu8Xp0,3o4vwc1gfzjxgki2d88xs18tr9fj3v,3wi0p0ii655ejk1654skwlcoumlrdb,lVuu8Xp0,2020-0188,2021-10-14,08:30:50,10:04:21,NA,incomplete,false,true,NA,5,11,NA,purple,n_s_107.jpg,NA,NA,pleasant,unpleasant,NA,NA,NA,NA,NA,left,1889.80000000075,true,NA,NA,NA,NA,NA
lVuu8Xp0,3o4vwc1gfzjxgki2d88xs18tr9fj3v,3wi0p0ii655ejk1654skwlcoumlrdb,lVuu8Xp0,2020-0188,2021-10-14,08:30:50,10:04:21,NA,incomplete,false,true,NA,5,12,NA,orange,m_s_099.jpg,NA,NA,unpleasant,pleasant,NA,NA,NA,NA,NA,right,2105.30000000075,true,NA,NA,NA,NA,NA
lVuu8Xp0,3o4vwc1gfzjxgki2d88xs18tr9fj3v,3wi0p0ii655ejk1654skwlcoumlrdb,lVuu8Xp0,2020-0188,2021-10-14,08:30:50,10:04:21,NA,incomplete,false,true,NA,5,13,NA,orange,m_s_067.jpg,NA,NA,unpleasant,pleasant,NA,NA,NA,NA,NA,right,2582.39999999851,true,NA,NA,NA,NA,NA
lVuu8Xp0,3o4vwc1gfzjxgki2d88xs18tr9fj3v,3wi0p0ii655ejk1654skwlcoumlrdb,lVuu8Xp0,2020-0188,2021-10-14,08:30:50,10:04:21,NA,incomplete,false,true,NA,5,14,NA,orange,n_l_037.jpg,NA,NA,unpleasant,pleasant,NA,NA,NA,NA,NA,left,2255,true,NA,NA,NA,NA,NA
lVuu8Xp0,3o4vwc1gfzjxgki2d88xs18tr9fj3v,3wi0p0ii655ejk1654skwlcoumlrdb,lVuu8Xp0,2020-0188,2021-10-14,08:30:50,10:04:21,NA,incomplete,false,true,NA,5,15,NA,orange,m_l_084.jpg,NA,NA,pleasant,unpleasant,NA,NA,NA,NA,NA,left,2870.30000000075,true,NA,NA,NA,NA,NA
lVuu8Xp0,3o4vwc1gfzjxgki2d88xs18tr9fj3v,3wi0p0ii655ejk1654skwlcoumlrdb,lVuu8Xp0,2020-0188,2021-10-14,08:30:50,10:04:21,NA,incomplete,false,true,NA,5,16,NA,orange,n_l_087.jpg,NA,NA,unpleasant,pleasant,NA,NA,NA,NA,NA,right,1814.89999999851,true,NA,NA,NA,NA,NA
lVuu8Xp0,3o4vwc1gfzjxgki2d88xs18tr9fj3v,3wi0p0ii655ejk1654skwlcoumlrdb,lVuu8Xp0,2020-0188,2021-10-14,08:30:50,10:04:21,NA,incomplete,false,true,NA,5,17,NA,orange,m_l_117.jpg,NA,NA,unpleasant,pleasant,NA,NA,NA,NA,NA,right,2074.30000000075,true,NA,NA,NA,NA,NA
lVuu8Xp0,3o4vwc1gfzjxgki2d88xs18tr9fj3v,3wi0p0ii655ejk1654skwlcoumlrdb,lVuu8Xp0,2020-0188,2021-10-14,08:30:50,10:04:21,NA,incomplete,false,true,NA,5,18,NA,yellow,n_s_030.jpg,NA,NA,pleasant,unpleasant,NA,NA,NA,NA,NA,left,1918.29999999702,true,NA,NA,NA,NA,NA
lVuu8Xp0,3o4vwc1gfzjxgki2d88xs18tr9fj3v,3wi0p0ii655ejk1654skwlcoumlrdb,lVuu8Xp0,2020-0188,2021-10-14,08:30:50,10:04:21,NA,incomplete,false,true,NA,5,19,NA,yellow,m_s_081.jpg,NA,NA,unpleasant,pleasant,NA,NA,NA,NA,NA,right,2193.60000000149,true,NA,NA,NA,NA,NA
lVuu8Xp0,3o4vwc1gfzjxgki2d88xs18tr9fj3v,3wi0p0ii655ejk1654skwlcoumlrdb,lVuu8Xp0,2020-0188,2021-10-14,08:30:50,10:04:21,NA,incomplete,false,true,NA,5,20,NA,yellow,n_s_065.jpg,NA,NA,unpleasant,pleasant,NA,NA,NA,NA,NA,left,1555.40000000224,true,NA,NA,NA,NA,NA
lVuu8Xp0,3o4vwc1gfzjxgki2d88xs18tr9fj3v,3wi0p0ii655ejk1654skwlcoumlrdb,lVuu8Xp0,2020-0188,2021-10-14,08:30:50,10:04:21,NA,incomplete,false,true,NA,5,21,NA,yellow,n_l_054.jpg,NA,NA,pleasant,unpleasant,NA,NA,NA,NA,NA,left,1622.89999999851,true,NA,NA,NA,NA,NA
lVuu8Xp0,3o4vwc1gfzjxgki2d88xs18tr9fj3v,3wi0p0ii655ejk1654skwlcoumlrdb,lVuu8Xp0,2020-0188,2021-10-14,08:30:50,10:04:21,NA,incomplete,false,true,NA,5,22,NA,yellow,m_l_112.jpg,NA,NA,unpleasant,pleasant,NA,NA,NA,NA,NA,right,1568.89999999851,true,NA,NA,NA,NA,NA
lVuu8Xp0,3o4vwc1gfzjxgki2d88xs18tr9fj3v,3wi0p0ii655ejk1654skwlcoumlrdb,lVuu8Xp0,2020-0188,2021-10-14,08:30:50,10:04:21,NA,incomplete,false,true,NA,5,23,NA,yellow,m_s_064.jpg,NA,NA,unpleasant,pleasant,NA,NA,NA,NA,NA,right,1592.79999999702,true,NA,NA,NA,NA,NA
lVuu8Xp0,3o4vwc1gfzjxgki2d88xs18tr9fj3v,3wi0p0ii655ejk1654skwlcoumlrdb,lVuu8Xp0,2020-0188,2021-10-14,08:30:50,10:04:21,NA,incomplete,false,true,NA,5,24,NA,white,n_l_079.jpg,NA,NA,pleasant,unpleasant,NA,NA,NA,NA,NA,left,2099.40000000224,true,NA,NA,NA,NA,NA
lVuu8Xp0,3o4vwc1gfzjxgki2d88xs18tr9fj3v,3wi0p0ii655ejk1654skwlcoumlrdb,lVuu8Xp0,2020-0188,2021-10-14,08:30:50,10:04:21,NA,incomplete,false,true,NA,5,25,NA,white,m_s_106.jpg,NA,NA,unpleasant,pleasant,NA,NA,NA,NA,NA,right,1377.5,true,NA,NA,NA,NA,NA
lVuu8Xp0,3o4vwc1gfzjxgki2d88xs18tr9fj3v,3wi0p0ii655ejk1654skwlcoumlrdb,lVuu8Xp0,2020-0188,2021-10-14,08:30:50,10:04:21,NA,incomplete,false,true,NA,5,26,NA,white,n_l_092.jpg,NA,NA,unpleasant,pleasant,NA,NA,NA,NA,NA,left,2092.70000000298,true,NA,NA,NA,NA,NA
lVuu8Xp0,3o4vwc1gfzjxgki2d88xs18tr9fj3v,3wi0p0ii655ejk1654skwlcoumlrdb,lVuu8Xp0,2020-0188,2021-10-14,08:30:50,10:04:21,NA,incomplete,false,true,NA,5,27,NA,white,n_l_112.jpg,NA,NA,unpleasant,pleasant,NA,NA,NA,NA,NA,right,2168.5,true,NA,NA,NA,NA,NA
lVuu8Xp0,3o4vwc1gfzjxgki2d88xs18tr9fj3v,3wi0p0ii655ejk1654skwlcoumlrdb,lVuu8Xp0,2020-0188,2021-10-14,08:30:50,10:04:21,NA,incomplete,false,true,NA,5,28,NA,white,n_s_059.jpg,NA,NA,pleasant,unpleasant,NA,NA,NA,NA,NA,none,0,false,NA,NA,NA,NA,NA
lVuu8Xp0,3o4vwc1gfzjxgki2d88xs18tr9fj3v,3wi0p0ii655ejk1654skwlcoumlrdb,lVuu8Xp0,2020-0188,2021-10-14,08:30:50,10:04:21,NA,incomplete,false,true,NA,5,29,NA,white,n_s_077.jpg,NA,NA,unpleasant,pleasant,NA,NA,NA,NA,NA,right,2187.39999999851,true,NA,NA,NA,NA,NA
lVuu8Xp0,3o4vwc1gfzjxgki2d88xs18tr9fj3v,3wi0p0ii655ejk1654skwlcoumlrdb,lVuu8Xp0,2020-0188,2021-10-14,08:30:50,10:04:21,NA,incomplete,false,true,NA,5,30,NA,green,n_s_104.jpg,NA,NA,pleasant,unpleasant,NA,NA,NA,NA,NA,left,1698.39999999851,true,NA,NA,NA,NA,NA
lVuu8Xp0,3o4vwc1gfzjxgki2d88xs18tr9fj3v,3wi0p0ii655ejk1654skwlcoumlrdb,lVuu8Xp0,2020-0188,2021-10-14,08:30:50,10:04:21,NA,incomplete,false,true,NA,5,31,NA,green,n_s_101.jpg,NA,NA,unpleasant,pleasant,NA,NA,NA,NA,NA,none,0,false,NA,NA,NA,NA,NA
lVuu8Xp0,3o4vwc1gfzjxgki2d88xs18tr9fj3v,3wi0p0ii655ejk1654skwlcoumlrdb,lVuu8Xp0,2020-0188,2021-10-14,08:30:50,10:04:21,NA,incomplete,false,true,NA,5,32,NA,green,m_s_007.jpg,NA,NA,pleasant,unpleasant,NA,NA,NA,NA,NA,left,1440.90000000224,true,NA,NA,NA,NA,NA
lVuu8Xp0,3o4vwc1gfzjxgki2d88xs18tr9fj3v,3wi0p0ii655ejk1654skwlcoumlrdb,lVuu8Xp0,2020-0188,2021-10-14,08:30:50,10:04:21,NA,incomplete,false,true,NA,5,33,NA,green,m_l_040.jpg,NA,NA,unpleasant,pleasant,NA,NA,NA,NA,NA,none,0,false,NA,NA,NA,NA,NA
lVuu8Xp0,3o4vwc1gfzjxgki2d88xs18tr9fj3v,3wi0p0ii655ejk1654skwlcoumlrdb,lVuu8Xp0,2020-0188,2021-10-14,08:30:50,10:04:21,NA,incomplete,false,true,NA,5,34,NA,green,n_l_034.jpg,NA,NA,unpleasant,pleasant,NA,NA,NA,NA,NA,right,1622.89999999851,true,NA,NA,NA,NA,NA
lVuu8Xp0,3o4vwc1gfzjxgki2d88xs18tr9fj3v,3wi0p0ii655ejk1654skwlcoumlrdb,lVuu8Xp0,2020-0188,2021-10-14,08:30:50,10:04:21,NA,incomplete,false,true,NA,5,35,NA,green,n_l_002.jpg,NA,NA,unpleasant,pleasant,NA,NA,NA,NA,NA,right,1263,true,NA,NA,NA,NA,NA
lVuu8Xp0,3o4vwc1gfzjxgki2d88xs18tr9fj3v,3wi0p0ii655ejk1654skwlcoumlrdb,lVuu8Xp0,2020-0188,2021-10-14,08:30:50,10:04:21,NA,incomplete,false,NA,true,5,0,NA,NA,NA,right,absent,NA,NA,n_s_085.jpg,brown,n_s_080.jpg,brown,within,NA,NaN,NA,right,8082.89999999851,1,1,1512.800000000745
lVuu8Xp0,3o4vwc1gfzjxgki2d88xs18tr9fj3v,3wi0p0ii655ejk1654skwlcoumlrdb,lVuu8Xp0,2020-0188,2021-10-14,08:30:50,10:04:21,NA,incomplete,false,NA,true,5,1,NA,NA,NA,right,absent,NA,NA,n_s_065.jpg,yellow,n_l_087.jpg,orange,between,NA,NaN,NA,left,7320,0,0,2474.7000000029802
lVuu8Xp0,3o4vwc1gfzjxgki2d88xs18tr9fj3v,3wi0p0ii655ejk1654skwlcoumlrdb,lVuu8Xp0,2020-0188,2021-10-14,08:30:50,10:04:21,NA,incomplete,false,NA,true,5,2,NA,NA,NA,right,absent,NA,NA,n_l_037.jpg,orange,n_l_015.jpg,purple,between,NA,NaN,NA,left,10142.60000000149,0,2,1218.199999999255
lVuu8Xp0,3o4vwc1gfzjxgki2d88xs18tr9fj3v,3wi0p0ii655ejk1654skwlcoumlrdb,lVuu8Xp0,2020-0188,2021-10-14,08:30:50,10:04:21,NA,incomplete,false,NA,true,5,3,NA,NA,NA,left,absent,NA,NA,n_s_066.jpg,brown,m_l_034.jpg,purple,between,NA,NaN,NA,left,10835,1,2,1202.199999999255
lVuu8Xp0,3o4vwc1gfzjxgki2d88xs18tr9fj3v,3wi0p0ii655ejk1654skwlcoumlrdb,lVuu8Xp0,2020-0188,2021-10-14,08:30:50,10:04:21,NA,incomplete,false,NA,true,5,4,NA,NA,NA,right,absent,NA,NA,n_l_092.jpg,white,m_l_112.jpg,yellow,between,NA,NaN,NA,right,5615.300000000745,1,2,1356
lVuu8Xp0,3o4vwc1gfzjxgki2d88xs18tr9fj3v,3wi0p0ii655ejk1654skwlcoumlrdb,lVuu8Xp0,2020-0188,2021-10-14,08:30:50,10:04:21,NA,incomplete,false,NA,true,5,5,NA,NA,NA,right,absent,NA,NA,m_s_064.jpg,yellow,m_s_081.jpg,yellow,within,NA,NaN,NA,right,4251.900000002235,1,1,1494.5999999977648
lVuu8Xp0,3o4vwc1gfzjxgki2d88xs18tr9fj3v,3wi0p0ii655ejk1654skwlcoumlrdb,lVuu8Xp0,2020-0188,2021-10-14,08:30:50,10:04:21,NA,incomplete,false,NA,true,5,6,NA,NA,NA,left,absent,NA,NA,n_s_041.jpg,purple,n_s_107.jpg,purple,within,NA,NaN,NA,left,9306.60000000149,1,1,1225
lVuu8Xp0,3o4vwc1gfzjxgki2d88xs18tr9fj3v,3wi0p0ii655ejk1654skwlcoumlrdb,lVuu8Xp0,2020-0188,2021-10-14,08:30:50,10:04:21,NA,incomplete,false,NA,true,5,7,NA,NA,NA,right,absent,NA,NA,n_s_077.jpg,white,m_s_106.jpg,white,within,NA,NaN,NA,right,6049.89999999851,1,1,1419
lVuu8Xp0,3o4vwc1gfzjxgki2d88xs18tr9fj3v,3wi0p0ii655ejk1654skwlcoumlrdb,lVuu8Xp0,2020-0188,2021-10-14,08:30:50,10:04:21,NA,incomplete,false,NA,true,5,8,NA,NA,NA,right,absent,NA,NA,m_l_117.jpg,orange,m_s_067.jpg,orange,within,NA,NaN,NA,right,15413.300000000745,1,1,1294.8999999985099
lVuu8Xp0,3o4vwc1gfzjxgki2d88xs18tr9fj3v,3wi0p0ii655ejk1654skwlcoumlrdb,lVuu8Xp0,2020-0188,2021-10-14,08:30:50,10:04:21,NA,incomplete,false,NA,true,5,9,NA,NA,NA,right,absent,NA,NA,n_l_002.jpg,green,n_s_101.jpg,green,within,NA,NaN,NA,right,7458.800000000745,1,1,1549.5
lVuu8Xp0,3o4vwc1gfzjxgki2d88xs18tr9fj3v,3wi0p0ii655ejk1654skwlcoumlrdb,lVuu8Xp0,2020-0188,2021-10-14,08:30:50,10:04:21,NA,incomplete,false,NA,true,5,10,NA,NA,NA,right,absent,NA,NA,m_s_007.jpg,green,n_s_059.jpg,white,between,NA,NaN,NA,right,4526.39999999851,1,2,956.2999999970198
lVuu8Xp0,3o4vwc1gfzjxgki2d88xs18tr9fj3v,3wi0p0ii655ejk1654skwlcoumlrdb,lVuu8Xp0,2020-0188,2021-10-14,08:30:50,10:04:21,NA,incomplete,false,true,NA,6,0,NA,brown,m_l_018.jpg,NA,NA,pleasant,unpleasant,NA,NA,NA,NA,NA,left,3262,true,NA,NA,NA,NA,NA
lVuu8Xp0,3o4vwc1gfzjxgki2d88xs18tr9fj3v,3wi0p0ii655ejk1654skwlcoumlrdb,lVuu8Xp0,2020-0188,2021-10-14,08:30:50,10:04:21,NA,incomplete,false,true,NA,6,1,NA,brown,n_s_052.jpg,NA,NA,pleasant,unpleasant,NA,NA,NA,NA,NA,left,1284.5,true,NA,NA,NA,NA,NA
lVuu8Xp0,3o4vwc1gfzjxgki2d88xs18tr9fj3v,3wi0p0ii655ejk1654skwlcoumlrdb,lVuu8Xp0,2020-0188,2021-10-14,08:30:50,10:04:21,NA,incomplete,false,true,NA,6,2,NA,brown,n_l_101.jpg,NA,NA,pleasant,unpleasant,NA,NA,NA,NA,NA,right,1653.10000000149,true,NA,NA,NA,NA,NA
lVuu8Xp0,3o4vwc1gfzjxgki2d88xs18tr9fj3v,3wi0p0ii655ejk1654skwlcoumlrdb,lVuu8Xp0,2020-0188,2021-10-14,08:30:50,10:04:21,NA,incomplete,false,true,NA,6,3,NA,brown,n_l_024.jpg,NA,NA,unpleasant,pleasant,NA,NA,NA,NA,NA,right,1651.40000000224,true,NA,NA,NA,NA,NA
lVuu8Xp0,3o4vwc1gfzjxgki2d88xs18tr9fj3v,3wi0p0ii655ejk1654skwlcoumlrdb,lVuu8Xp0,2020-0188,2021-10-14,08:30:50,10:04:21,NA,incomplete,false,true,NA,6,4,NA,brown,m_s_016.jpg,NA,NA,unpleasant,pleasant,NA,NA,NA,NA,NA,right,1291.59999999776,true,NA,NA,NA,NA,NA
lVuu8Xp0,3o4vwc1gfzjxgki2d88xs18tr9fj3v,3wi0p0ii655ejk1654skwlcoumlrdb,lVuu8Xp0,2020-0188,2021-10-14,08:30:50,10:04:21,NA,incomplete,false,true,NA,6,5,NA,brown,m_l_080.jpg,NA,NA,pleasant,unpleasant,NA,NA,NA,NA,NA,left,1973.40000000224,true,NA,NA,NA,NA,NA
lVuu8Xp0,3o4vwc1gfzjxgki2d88xs18tr9fj3v,3wi0p0ii655ejk1654skwlcoumlrdb,lVuu8Xp0,2020-0188,2021-10-14,08:30:50,10:04:21,NA,incomplete,false,true,NA,6,6,NA,black,m_s_116.jpg,NA,NA,pleasant,unpleasant,NA,NA,NA,NA,NA,left,2667.59999999776,true,NA,NA,NA,NA,NA
lVuu8Xp0,3o4vwc1gfzjxgki2d88xs18tr9fj3v,3wi0p0ii655ejk1654skwlcoumlrdb,lVuu8Xp0,2020-0188,2021-10-14,08:30:50,10:04:21,NA,incomplete,false,true,NA,6,7,NA,black,m_s_115.jpg,NA,NA,pleasant,unpleasant,NA,NA,NA,NA,NA,left,2381.09999999776,true,NA,NA,NA,NA,NA
lVuu8Xp0,3o4vwc1gfzjxgki2d88xs18tr9fj3v,3wi0p0ii655ejk1654skwlcoumlrdb,lVuu8Xp0,2020-0188,2021-10-14,08:30:50,10:04:21,NA,incomplete,false,true,NA,6,8,NA,black,m_l_065.jpg,NA,NA,unpleasant,pleasant,NA,NA,NA,NA,NA,right,2009.19999999925,true,NA,NA,NA,NA,NA
lVuu8Xp0,3o4vwc1gfzjxgki2d88xs18tr9fj3v,3wi0p0ii655ejk1654skwlcoumlrdb,lVuu8Xp0,2020-0188,2021-10-14,08:30:50,10:04:21,NA,incomplete,false,true,NA,6,9,NA,black,m_l_025.jpg,NA,NA,unpleasant,pleasant,NA,NA,NA,NA,NA,right,1273.80000000075,true,NA,NA,NA,NA,NA
lVuu8Xp0,3o4vwc1gfzjxgki2d88xs18tr9fj3v,3wi0p0ii655ejk1654skwlcoumlrdb,lVuu8Xp0,2020-0188,2021-10-14,08:30:50,10:04:21,NA,incomplete,false,true,NA,6,10,NA,black,m_s_093.jpg,NA,NA,unpleasant,pleasant,NA,NA,NA,NA,NA,right,1053.5,true,NA,NA,NA,NA,NA
lVuu8Xp0,3o4vwc1gfzjxgki2d88xs18tr9fj3v,3wi0p0ii655ejk1654skwlcoumlrdb,lVuu8Xp0,2020-0188,2021-10-14,08:30:50,10:04:21,NA,incomplete,false,true,NA,6,11,NA,black,m_l_047.jpg,NA,NA,unpleasant,pleasant,NA,NA,NA,NA,NA,right,1393.59999999776,true,NA,NA,NA,NA,NA
lVuu8Xp0,3o4vwc1gfzjxgki2d88xs18tr9fj3v,3wi0p0ii655ejk1654skwlcoumlrdb,lVuu8Xp0,2020-0188,2021-10-14,08:30:50,10:04:21,NA,incomplete,false,true,NA,6,12,NA,blue,m_s_028.jpg,NA,NA,pleasant,unpleasant,NA,NA,NA,NA,NA,left,1304.09999999776,true,NA,NA,NA,NA,NA
lVuu8Xp0,3o4vwc1gfzjxgki2d88xs18tr9fj3v,3wi0p0ii655ejk1654skwlcoumlrdb,lVuu8Xp0,2020-0188,2021-10-14,08:30:50,10:04:21,NA,incomplete,false,true,NA,6,13,NA,blue,m_s_069.jpg,NA,NA,unpleasant,pleasant,NA,NA,NA,NA,NA,right,1622.69999999925,true,NA,NA,NA,NA,NA
lVuu8Xp0,3o4vwc1gfzjxgki2d88xs18tr9fj3v,3wi0p0ii655ejk1654skwlcoumlrdb,lVuu8Xp0,2020-0188,2021-10-14,08:30:50,10:04:21,NA,incomplete,false,true,NA,6,14,NA,blue,n_s_113.jpg,NA,NA,pleasant,unpleasant,NA,NA,NA,NA,NA,right,1892.60000000149,true,NA,NA,NA,NA,NA
lVuu8Xp0,3o4vwc1gfzjxgki2d88xs18tr9fj3v,3wi0p0ii655ejk1654skwlcoumlrdb,lVuu8Xp0,2020-0188,2021-10-14,08:30:50,10:04:21,NA,incomplete,false,true,NA,6,15,NA,blue,m_s_051.jpg,NA,NA,pleasant,unpleasant,NA,NA,NA,NA,NA,left,1985.60000000149,true,NA,NA,NA,NA,NA
lVuu8Xp0,3o4vwc1gfzjxgki2d88xs18tr9fj3v,3wi0p0ii655ejk1654skwlcoumlrdb,lVuu8Xp0,2020-0188,2021-10-14,08:30:50,10:04:21,NA,incomplete,false,true,NA,6,16,NA,blue,m_s_059.jpg,NA,NA,pleasant,unpleasant,NA,NA,NA,NA,NA,right,2250.5,true,NA,NA,NA,NA,NA
lVuu8Xp0,3o4vwc1gfzjxgki2d88xs18tr9fj3v,3wi0p0ii655ejk1654skwlcoumlrdb,lVuu8Xp0,2020-0188,2021-10-14,08:30:50,10:04:21,NA,incomplete,false,true,NA,6,17,NA,blue,n_s_108.jpg,NA,NA,pleasant,unpleasant,NA,NA,NA,NA,NA,right,2043.40000000224,true,NA,NA,NA,NA,NA
lVuu8Xp0,3o4vwc1gfzjxgki2d88xs18tr9fj3v,3wi0p0ii655ejk1654skwlcoumlrdb,lVuu8Xp0,2020-0188,2021-10-14,08:30:50,10:04:21,NA,incomplete,false,true,NA,6,18,NA,yellow,m_s_086.jpg,NA,NA,pleasant,unpleasant,NA,NA,NA,NA,NA,left,2495.5,true,NA,NA,NA,NA,NA
lVuu8Xp0,3o4vwc1gfzjxgki2d88xs18tr9fj3v,3wi0p0ii655ejk1654skwlcoumlrdb,lVuu8Xp0,2020-0188,2021-10-14,08:30:50,10:04:21,NA,incomplete,false,true,NA,6,19,NA,yellow,n_l_045.jpg,NA,NA,pleasant,unpleasant,NA,NA,NA,NA,NA,right,1996.70000000298,true,NA,NA,NA,NA,NA
lVuu8Xp0,3o4vwc1gfzjxgki2d88xs18tr9fj3v,3wi0p0ii655ejk1654skwlcoumlrdb,lVuu8Xp0,2020-0188,2021-10-14,08:30:50,10:04:21,NA,incomplete,false,true,NA,6,20,NA,yellow,m_s_030.jpg,NA,NA,unpleasant,pleasant,NA,NA,NA,NA,NA,right,1489.90000000224,true,NA,NA,NA,NA,NA
lVuu8Xp0,3o4vwc1gfzjxgki2d88xs18tr9fj3v,3wi0p0ii655ejk1654skwlcoumlrdb,lVuu8Xp0,2020-0188,2021-10-14,08:30:50,10:04:21,NA,incomplete,false,true,NA,6,21,NA,yellow,n_l_076.jpg,NA,NA,pleasant,unpleasant,NA,NA,NA,NA,NA,right,1763.30000000075,true,NA,NA,NA,NA,NA
lVuu8Xp0,3o4vwc1gfzjxgki2d88xs18tr9fj3v,3wi0p0ii655ejk1654skwlcoumlrdb,lVuu8Xp0,2020-0188,2021-10-14,08:30:50,10:04:21,NA,incomplete,false,true,NA,6,22,NA,yellow,m_s_117.jpg,NA,NA,unpleasant,pleasant,NA,NA,NA,NA,NA,left,2003.39999999851,true,NA,NA,NA,NA,NA
lVuu8Xp0,3o4vwc1gfzjxgki2d88xs18tr9fj3v,3wi0p0ii655ejk1654skwlcoumlrdb,lVuu8Xp0,2020-0188,2021-10-14,08:30:50,10:04:21,NA,incomplete,false,true,NA,6,23,NA,yellow,m_s_053.jpg,NA,NA,unpleasant,pleasant,NA,NA,NA,NA,NA,right,1867.80000000075,true,NA,NA,NA,NA,NA
lVuu8Xp0,3o4vwc1gfzjxgki2d88xs18tr9fj3v,3wi0p0ii655ejk1654skwlcoumlrdb,lVuu8Xp0,2020-0188,2021-10-14,08:30:50,10:04:21,NA,incomplete,false,true,NA,6,24,NA,purple,m_s_021.jpg,NA,NA,unpleasant,pleasant,NA,NA,NA,NA,NA,right,1299,true,NA,NA,NA,NA,NA
lVuu8Xp0,3o4vwc1gfzjxgki2d88xs18tr9fj3v,3wi0p0ii655ejk1654skwlcoumlrdb,lVuu8Xp0,2020-0188,2021-10-14,08:30:50,10:04:21,NA,incomplete,false,true,NA,6,25,NA,purple,m_l_008.jpg,NA,NA,unpleasant,pleasant,NA,NA,NA,NA,NA,right,1524.59999999776,true,NA,NA,NA,NA,NA
lVuu8Xp0,3o4vwc1gfzjxgki2d88xs18tr9fj3v,3wi0p0ii655ejk1654skwlcoumlrdb,lVuu8Xp0,2020-0188,2021-10-14,08:30:50,10:04:21,NA,incomplete,false,true,NA,6,26,NA,purple,m_l_079.jpg,NA,NA,unpleasant,pleasant,NA,NA,NA,NA,NA,left,1294.59999999776,true,NA,NA,NA,NA,NA
lVuu8Xp0,3o4vwc1gfzjxgki2d88xs18tr9fj3v,3wi0p0ii655ejk1654skwlcoumlrdb,lVuu8Xp0,2020-0188,2021-10-14,08:30:50,10:04:21,NA,incomplete,false,true,NA,6,27,NA,purple,n_l_102.jpg,NA,NA,unpleasant,pleasant,NA,NA,NA,NA,NA,right,1322.5,true,NA,NA,NA,NA,NA
lVuu8Xp0,3o4vwc1gfzjxgki2d88xs18tr9fj3v,3wi0p0ii655ejk1654skwlcoumlrdb,lVuu8Xp0,2020-0188,2021-10-14,08:30:50,10:04:21,NA,incomplete,false,true,NA,6,28,NA,purple,m_s_074.jpg,NA,NA,unpleasant,pleasant,NA,NA,NA,NA,NA,right,1252,true,NA,NA,NA,NA,NA
lVuu8Xp0,3o4vwc1gfzjxgki2d88xs18tr9fj3v,3wi0p0ii655ejk1654skwlcoumlrdb,lVuu8Xp0,2020-0188,2021-10-14,08:30:50,10:04:21,NA,incomplete,false,true,NA,6,29,NA,purple,m_s_083.jpg,NA,NA,unpleasant,pleasant,NA,NA,NA,NA,NA,right,1035.09999999776,true,NA,NA,NA,NA,NA
lVuu8Xp0,3o4vwc1gfzjxgki2d88xs18tr9fj3v,3wi0p0ii655ejk1654skwlcoumlrdb,lVuu8Xp0,2020-0188,2021-10-14,08:30:50,10:04:21,NA,incomplete,false,true,NA,6,30,NA,red,n_s_007.jpg,NA,NA,pleasant,unpleasant,NA,NA,NA,NA,NA,right,1628.10000000149,true,NA,NA,NA,NA,NA
lVuu8Xp0,3o4vwc1gfzjxgki2d88xs18tr9fj3v,3wi0p0ii655ejk1654skwlcoumlrdb,lVuu8Xp0,2020-0188,2021-10-14,08:30:50,10:04:21,NA,incomplete,false,true,NA,6,31,NA,red,n_l_078.jpg,NA,NA,unpleasant,pleasant,NA,NA,NA,NA,NA,right,1214.69999999925,true,NA,NA,NA,NA,NA
lVuu8Xp0,3o4vwc1gfzjxgki2d88xs18tr9fj3v,3wi0p0ii655ejk1654skwlcoumlrdb,lVuu8Xp0,2020-0188,2021-10-14,08:30:50,10:04:21,NA,incomplete,false,true,NA,6,32,NA,red,m_s_098.jpg,NA,NA,pleasant,unpleasant,NA,NA,NA,NA,NA,left,1840.69999999925,true,NA,NA,NA,NA,NA
lVuu8Xp0,3o4vwc1gfzjxgki2d88xs18tr9fj3v,3wi0p0ii655ejk1654skwlcoumlrdb,lVuu8Xp0,2020-0188,2021-10-14,08:30:50,10:04:21,NA,incomplete,false,true,NA,6,33,NA,red,n_s_021.jpg,NA,NA,pleasant,unpleasant,NA,NA,NA,NA,NA,left,1538.40000000224,true,NA,NA,NA,NA,NA
lVuu8Xp0,3o4vwc1gfzjxgki2d88xs18tr9fj3v,3wi0p0ii655ejk1654skwlcoumlrdb,lVuu8Xp0,2020-0188,2021-10-14,08:30:50,10:04:21,NA,incomplete,false,true,NA,6,34,NA,red,n_l_028.jpg,NA,NA,pleasant,unpleasant,NA,NA,NA,NA,NA,left,1313.5,true,NA,NA,NA,NA,NA
lVuu8Xp0,3o4vwc1gfzjxgki2d88xs18tr9fj3v,3wi0p0ii655ejk1654skwlcoumlrdb,lVuu8Xp0,2020-0188,2021-10-14,08:30:50,10:04:21,NA,incomplete,false,true,NA,6,35,NA,red,m_s_047.jpg,NA,NA,pleasant,unpleasant,NA,NA,NA,NA,NA,none,0,false,NA,NA,NA,NA,NA
lVuu8Xp0,3o4vwc1gfzjxgki2d88xs18tr9fj3v,3wi0p0ii655ejk1654skwlcoumlrdb,lVuu8Xp0,2020-0188,2021-10-14,08:30:50,10:04:21,NA,incomplete,false,NA,true,6,0,NA,NA,NA,right,present,NA,NA,m_s_047.jpg,red,n_l_078.jpg,red,within,NA,NaN,NA,right,6407.300000000745,1,1,1695.4000000022352
lVuu8Xp0,3o4vwc1gfzjxgki2d88xs18tr9fj3v,3wi0p0ii655ejk1654skwlcoumlrdb,lVuu8Xp0,2020-0188,2021-10-14,08:30:50,10:04:21,NA,incomplete,false,NA,true,6,1,NA,NA,NA,left,present,NA,NA,m_s_115.jpg,black,m_l_047.jpg,black,within,NA,NaN,NA,left,4479.800000000745,1,0,3942.5
lVuu8Xp0,3o4vwc1gfzjxgki2d88xs18tr9fj3v,3wi0p0ii655ejk1654skwlcoumlrdb,lVuu8Xp0,2020-0188,2021-10-14,08:30:50,10:04:21,NA,incomplete,false,NA,true,6,2,NA,NA,NA,right,present,NA,NA,n_s_108.jpg,blue,m_s_069.jpg,blue,within,NA,NaN,NA,right,9770.10000000149,1,1,1234.800000000745
lVuu8Xp0,3o4vwc1gfzjxgki2d88xs18tr9fj3v,3wi0p0ii655ejk1654skwlcoumlrdb,lVuu8Xp0,2020-0188,2021-10-14,08:30:50,10:04:21,NA,incomplete,false,NA,true,6,3,NA,NA,NA,left,present,NA,NA,m_s_074.jpg,purple,m_s_098.jpg,red,between,NA,NaN,NA,left,3884.900000002235,1,2,1525.300000000745
lVuu8Xp0,3o4vwc1gfzjxgki2d88xs18tr9fj3v,3wi0p0ii655ejk1654skwlcoumlrdb,lVuu8Xp0,2020-0188,2021-10-14,08:30:50,10:04:21,NA,incomplete,false,NA,true,6,4,NA,NA,NA,left,present,NA,NA,m_l_008.jpg,purple,m_s_083.jpg,purple,within,NA,NaN,NA,left,4218.5,1,0,1076.2999999970198
lVuu8Xp0,3o4vwc1gfzjxgki2d88xs18tr9fj3v,3wi0p0ii655ejk1654skwlcoumlrdb,lVuu8Xp0,2020-0188,2021-10-14,08:30:50,10:04:21,NA,incomplete,false,NA,true,6,5,NA,NA,NA,left,present,NA,NA,n_s_052.jpg,brown,m_l_080.jpg,brown,within,NA,NaN,NA,left,10267.199999999255,1,0,1401.4000000022352
lVuu8Xp0,3o4vwc1gfzjxgki2d88xs18tr9fj3v,3wi0p0ii655ejk1654skwlcoumlrdb,lVuu8Xp0,2020-0188,2021-10-14,08:30:50,10:04:21,NA,incomplete,false,NA,true,6,6,NA,NA,NA,left,present,NA,NA,m_s_016.jpg,brown,m_l_065.jpg,black,between,NA,NaN,NA,left,3942.89999999851,1,1,1574.6000000014901
lVuu8Xp0,3o4vwc1gfzjxgki2d88xs18tr9fj3v,3wi0p0ii655ejk1654skwlcoumlrdb,lVuu8Xp0,2020-0188,2021-10-14,08:30:50,10:04:21,NA,incomplete,false,NA,true,6,7,NA,NA,NA,right,present,NA,NA,n_s_113.jpg,blue,m_s_093.jpg,black,between,NA,NaN,NA,right,13716.79999999702,1,2,1117
lVuu8Xp0,3o4vwc1gfzjxgki2d88xs18tr9fj3v,3wi0p0ii655ejk1654skwlcoumlrdb,lVuu8Xp0,2020-0188,2021-10-14,08:30:50,10:04:21,NA,incomplete,false,NA,true,6,8,NA,NA,NA,right,present,NA,NA,m_s_030.jpg,yellow,m_s_059.jpg,blue,between,NA,NaN,NA,left,4812.199999999255,0,2,1468.800000000745
lVuu8Xp0,3o4vwc1gfzjxgki2d88xs18tr9fj3v,3wi0p0ii655ejk1654skwlcoumlrdb,lVuu8Xp0,2020-0188,2021-10-14,08:30:50,10:04:21,NA,incomplete,false,NA,true,6,9,NA,NA,NA,right,present,NA,NA,m_s_053.jpg,yellow,n_l_045.jpg,yellow,within,NA,NaN,NA,right,6331.300000000745,1,0,1865.7000000029802
lVuu8Xp0,3o4vwc1gfzjxgki2d88xs18tr9fj3v,3wi0p0ii655ejk1654skwlcoumlrdb,lVuu8Xp0,2020-0188,2021-10-14,08:30:50,10:04:21,NA,incomplete,false,NA,true,6,10,NA,NA,NA,left,present,NA,NA,m_s_117.jpg,yellow,m_l_079.jpg,purple,between,NA,NaN,NA,left,6288.89999999851,1,1,2958.300000000745
lVuu8Xp0,3o4vwc1gfzjxgki2d88xs18tr9fj3v,3wi0p0ii655ejk1654skwlcoumlrdb,lVuu8Xp0,2020-0188,2021-10-14,08:30:50,10:04:21,NA,incomplete,false,true,NA,7,0,NA,red,m_l_017.jpg,NA,NA,pleasant,unpleasant,NA,NA,NA,NA,NA,none,0,false,NA,NA,NA,NA,NA
lVuu8Xp0,3o4vwc1gfzjxgki2d88xs18tr9fj3v,3wi0p0ii655ejk1654skwlcoumlrdb,lVuu8Xp0,2020-0188,2021-10-14,08:30:50,10:04:21,NA,incomplete,false,true,NA,7,1,NA,red,m_l_073.jpg,NA,NA,unpleasant,pleasant,NA,NA,NA,NA,NA,left,2261.89999999851,true,NA,NA,NA,NA,NA
lVuu8Xp0,3o4vwc1gfzjxgki2d88xs18tr9fj3v,3wi0p0ii655ejk1654skwlcoumlrdb,lVuu8Xp0,2020-0188,2021-10-14,08:30:50,10:04:21,NA,incomplete,false,true,NA,7,2,NA,red,n_l_008.jpg,NA,NA,unpleasant,pleasant,NA,NA,NA,NA,NA,right,1648.10000000149,true,NA,NA,NA,NA,NA
lVuu8Xp0,3o4vwc1gfzjxgki2d88xs18tr9fj3v,3wi0p0ii655ejk1654skwlcoumlrdb,lVuu8Xp0,2020-0188,2021-10-14,08:30:50,10:04:21,NA,incomplete,false,true,NA,7,3,NA,red,m_l_032.jpg,NA,NA,pleasant,unpleasant,NA,NA,NA,NA,NA,left,1651.5,true,NA,NA,NA,NA,NA
lVuu8Xp0,3o4vwc1gfzjxgki2d88xs18tr9fj3v,3wi0p0ii655ejk1654skwlcoumlrdb,lVuu8Xp0,2020-0188,2021-10-14,08:30:50,10:04:21,NA,incomplete,false,true,NA,7,4,NA,red,m_s_020.jpg,NA,NA,unpleasant,pleasant,NA,NA,NA,NA,NA,right,1542.69999999925,true,NA,NA,NA,NA,NA
lVuu8Xp0,3o4vwc1gfzjxgki2d88xs18tr9fj3v,3wi0p0ii655ejk1654skwlcoumlrdb,lVuu8Xp0,2020-0188,2021-10-14,08:30:50,10:04:21,NA,incomplete,false,true,NA,7,5,NA,red,n_s_001.jpg,NA,NA,pleasant,unpleasant,NA,NA,NA,NA,NA,left,1771.10000000149,true,NA,NA,NA,NA,NA
lVuu8Xp0,3o4vwc1gfzjxgki2d88xs18tr9fj3v,3wi0p0ii655ejk1654skwlcoumlrdb,lVuu8Xp0,2020-0188,2021-10-14,08:30:50,10:04:21,NA,incomplete,false,true,NA,7,6,NA,white,n_s_069.jpg,NA,NA,pleasant,unpleasant,NA,NA,NA,NA,NA,left,1339.90000000224,true,NA,NA,NA,NA,NA
lVuu8Xp0,3o4vwc1gfzjxgki2d88xs18tr9fj3v,3wi0p0ii655ejk1654skwlcoumlrdb,lVuu8Xp0,2020-0188,2021-10-14,08:30:50,10:04:21,NA,incomplete,false,true,NA,7,7,NA,white,n_l_116.jpg,NA,NA,pleasant,unpleasant,NA,NA,NA,NA,NA,right,1693,true,NA,NA,NA,NA,NA
lVuu8Xp0,3o4vwc1gfzjxgki2d88xs18tr9fj3v,3wi0p0ii655ejk1654skwlcoumlrdb,lVuu8Xp0,2020-0188,2021-10-14,08:30:50,10:04:21,NA,incomplete,false,true,NA,7,8,NA,white,m_l_031.jpg,NA,NA,pleasant,unpleasant,NA,NA,NA,NA,NA,left,1666.59999999776,true,NA,NA,NA,NA,NA
lVuu8Xp0,3o4vwc1gfzjxgki2d88xs18tr9fj3v,3wi0p0ii655ejk1654skwlcoumlrdb,lVuu8Xp0,2020-0188,2021-10-14,08:30:50,10:04:21,NA,incomplete,false,true,NA,7,9,NA,white,n_s_114.jpg,NA,NA,pleasant,unpleasant,NA,NA,NA,NA,NA,left,1622.89999999851,true,NA,NA,NA,NA,NA
lVuu8Xp0,3o4vwc1gfzjxgki2d88xs18tr9fj3v,3wi0p0ii655ejk1654skwlcoumlrdb,lVuu8Xp0,2020-0188,2021-10-14,08:30:50,10:04:21,NA,incomplete,false,true,NA,7,10,NA,white,n_s_050.jpg,NA,NA,unpleasant,pleasant,NA,NA,NA,NA,NA,right,2034.60000000149,true,NA,NA,NA,NA,NA
lVuu8Xp0,3o4vwc1gfzjxgki2d88xs18tr9fj3v,3wi0p0ii655ejk1654skwlcoumlrdb,lVuu8Xp0,2020-0188,2021-10-14,08:30:50,10:04:21,NA,incomplete,false,true,NA,7,11,NA,white,m_l_063.jpg,NA,NA,pleasant,unpleasant,NA,NA,NA,NA,NA,left,1739.69999999925,true,NA,NA,NA,NA,NA
lVuu8Xp0,3o4vwc1gfzjxgki2d88xs18tr9fj3v,3wi0p0ii655ejk1654skwlcoumlrdb,lVuu8Xp0,2020-0188,2021-10-14,08:30:50,10:04:21,NA,incomplete,false,true,NA,7,12,NA,black,n_s_037.jpg,NA,NA,pleasant,unpleasant,NA,NA,NA,NA,NA,left,2021.09999999776,true,NA,NA,NA,NA,NA
lVuu8Xp0,3o4vwc1gfzjxgki2d88xs18tr9fj3v,3wi0p0ii655ejk1654skwlcoumlrdb,lVuu8Xp0,2020-0188,2021-10-14,08:30:50,10:04:21,NA,incomplete,false,true,NA,7,13,NA,black,m_l_048.jpg,NA,NA,unpleasant,pleasant,NA,NA,NA,NA,NA,right,1552.19999999925,true,NA,NA,NA,NA,NA
lVuu8Xp0,3o4vwc1gfzjxgki2d88xs18tr9fj3v,3wi0p0ii655ejk1654skwlcoumlrdb,lVuu8Xp0,2020-0188,2021-10-14,08:30:50,10:04:21,NA,incomplete,false,true,NA,7,14,NA,black,n_s_098.jpg,NA,NA,unpleasant,pleasant,NA,NA,NA,NA,NA,left,1848.30000000075,true,NA,NA,NA,NA,NA
lVuu8Xp0,3o4vwc1gfzjxgki2d88xs18tr9fj3v,3wi0p0ii655ejk1654skwlcoumlrdb,lVuu8Xp0,2020-0188,2021-10-14,08:30:50,10:04:21,NA,incomplete,false,true,NA,7,15,NA,black,n_l_071.jpg,NA,NA,pleasant,unpleasant,NA,NA,NA,NA,NA,left,1242.39999999851,true,NA,NA,NA,NA,NA
lVuu8Xp0,3o4vwc1gfzjxgki2d88xs18tr9fj3v,3wi0p0ii655ejk1654skwlcoumlrdb,lVuu8Xp0,2020-0188,2021-10-14,08:30:50,10:04:21,NA,incomplete,false,true,NA,7,16,NA,black,n_l_106.jpg,NA,NA,unpleasant,pleasant,NA,NA,NA,NA,NA,left,1718,true,NA,NA,NA,NA,NA
lVuu8Xp0,3o4vwc1gfzjxgki2d88xs18tr9fj3v,3wi0p0ii655ejk1654skwlcoumlrdb,lVuu8Xp0,2020-0188,2021-10-14,08:30:50,10:04:21,NA,incomplete,false,true,NA,7,17,NA,black,m_l_068.jpg,NA,NA,pleasant,unpleasant,NA,NA,NA,NA,NA,left,1686.80000000075,true,NA,NA,NA,NA,NA
lVuu8Xp0,3o4vwc1gfzjxgki2d88xs18tr9fj3v,3wi0p0ii655ejk1654skwlcoumlrdb,lVuu8Xp0,2020-0188,2021-10-14,08:30:50,10:04:21,NA,incomplete,false,true,NA,7,18,NA,orange,n_s_073.jpg,NA,NA,unpleasant,pleasant,NA,NA,NA,NA,NA,right,1731.20000000298,true,NA,NA,NA,NA,NA
lVuu8Xp0,3o4vwc1gfzjxgki2d88xs18tr9fj3v,3wi0p0ii655ejk1654skwlcoumlrdb,lVuu8Xp0,2020-0188,2021-10-14,08:30:50,10:04:21,NA,incomplete,false,true,NA,7,19,NA,orange,n_s_100.jpg,NA,NA,unpleasant,pleasant,NA,NA,NA,NA,NA,right,1330.19999999925,true,NA,NA,NA,NA,NA
lVuu8Xp0,3o4vwc1gfzjxgki2d88xs18tr9fj3v,3wi0p0ii655ejk1654skwlcoumlrdb,lVuu8Xp0,2020-0188,2021-10-14,08:30:50,10:04:21,NA,incomplete,false,true,NA,7,20,NA,orange,n_s_035.jpg,NA,NA,pleasant,unpleasant,NA,NA,NA,NA,NA,left,1833.70000000298,true,NA,NA,NA,NA,NA
lVuu8Xp0,3o4vwc1gfzjxgki2d88xs18tr9fj3v,3wi0p0ii655ejk1654skwlcoumlrdb,lVuu8Xp0,2020-0188,2021-10-14,08:30:50,10:04:21,NA,incomplete,false,true,NA,7,21,NA,orange,n_s_038.jpg,NA,NA,pleasant,unpleasant,NA,NA,NA,NA,NA,left,1839.10000000149,true,NA,NA,NA,NA,NA
lVuu8Xp0,3o4vwc1gfzjxgki2d88xs18tr9fj3v,3wi0p0ii655ejk1654skwlcoumlrdb,lVuu8Xp0,2020-0188,2021-10-14,08:30:50,10:04:21,NA,incomplete,false,true,NA,7,22,NA,orange,n_s_097.jpg,NA,NA,pleasant,unpleasant,NA,NA,NA,NA,NA,right,2022.30000000075,true,NA,NA,NA,NA,NA
lVuu8Xp0,3o4vwc1gfzjxgki2d88xs18tr9fj3v,3wi0p0ii655ejk1654skwlcoumlrdb,lVuu8Xp0,2020-0188,2021-10-14,08:30:50,10:04:21,NA,incomplete,false,true,NA,7,23,NA,orange,n_l_005.jpg,NA,NA,pleasant,unpleasant,NA,NA,NA,NA,NA,left,1832.19999999925,true,NA,NA,NA,NA,NA
lVuu8Xp0,3o4vwc1gfzjxgki2d88xs18tr9fj3v,3wi0p0ii655ejk1654skwlcoumlrdb,lVuu8Xp0,2020-0188,2021-10-14,08:30:50,10:04:21,NA,incomplete,false,true,NA,7,24,NA,brown,n_s_012.jpg,NA,NA,unpleasant,pleasant,NA,NA,NA,NA,NA,right,1674.39999999851,true,NA,NA,NA,NA,NA
lVuu8Xp0,3o4vwc1gfzjxgki2d88xs18tr9fj3v,3wi0p0ii655ejk1654skwlcoumlrdb,lVuu8Xp0,2020-0188,2021-10-14,08:30:50,10:04:21,NA,incomplete,false,true,NA,7,25,NA,brown,n_s_096.jpg,NA,NA,unpleasant,pleasant,NA,NA,NA,NA,NA,right,1416,true,NA,NA,NA,NA,NA
lVuu8Xp0,3o4vwc1gfzjxgki2d88xs18tr9fj3v,3wi0p0ii655ejk1654skwlcoumlrdb,lVuu8Xp0,2020-0188,2021-10-14,08:30:50,10:04:21,NA,incomplete,false,true,NA,7,26,NA,brown,n_l_085.jpg,NA,NA,unpleasant,pleasant,NA,NA,NA,NA,NA,left,1426.39999999851,true,NA,NA,NA,NA,NA
lVuu8Xp0,3o4vwc1gfzjxgki2d88xs18tr9fj3v,3wi0p0ii655ejk1654skwlcoumlrdb,lVuu8Xp0,2020-0188,2021-10-14,08:30:50,10:04:21,NA,incomplete,false,true,NA,7,27,NA,brown,n_s_075.jpg,NA,NA,unpleasant,pleasant,NA,NA,NA,NA,NA,left,1813.69999999925,true,NA,NA,NA,NA,NA
lVuu8Xp0,3o4vwc1gfzjxgki2d88xs18tr9fj3v,3wi0p0ii655ejk1654skwlcoumlrdb,lVuu8Xp0,2020-0188,2021-10-14,08:30:50,10:04:21,NA,incomplete,false,true,NA,7,28,NA,brown,m_s_107.jpg,NA,NA,unpleasant,pleasant,NA,NA,NA,NA,NA,right,1528,true,NA,NA,NA,NA,NA
lVuu8Xp0,3o4vwc1gfzjxgki2d88xs18tr9fj3v,3wi0p0ii655ejk1654skwlcoumlrdb,lVuu8Xp0,2020-0188,2021-10-14,08:30:50,10:04:21,NA,incomplete,false,true,NA,7,29,NA,brown,m_l_013.jpg,NA,NA,unpleasant,pleasant,NA,NA,NA,NA,NA,right,1639.30000000075,true,NA,NA,NA,NA,NA
lVuu8Xp0,3o4vwc1gfzjxgki2d88xs18tr9fj3v,3wi0p0ii655ejk1654skwlcoumlrdb,lVuu8Xp0,2020-0188,2021-10-14,08:30:50,10:04:21,NA,incomplete,false,true,NA,7,30,NA,purple,m_l_051.jpg,NA,NA,pleasant,unpleasant,NA,NA,NA,NA,NA,none,0,false,NA,NA,NA,NA,NA
lVuu8Xp0,3o4vwc1gfzjxgki2d88xs18tr9fj3v,3wi0p0ii655ejk1654skwlcoumlrdb,lVuu8Xp0,2020-0188,2021-10-14,08:30:50,10:04:21,NA,incomplete,false,true,NA,7,31,NA,purple,m_l_033.jpg,NA,NA,pleasant,unpleasant,NA,NA,NA,NA,NA,left,2161,true,NA,NA,NA,NA,NA
lVuu8Xp0,3o4vwc1gfzjxgki2d88xs18tr9fj3v,3wi0p0ii655ejk1654skwlcoumlrdb,lVuu8Xp0,2020-0188,2021-10-14,08:30:50,10:04:21,NA,incomplete,false,true,NA,7,32,NA,purple,n_l_064.jpg,NA,NA,unpleasant,pleasant,NA,NA,NA,NA,NA,right,2189,true,NA,NA,NA,NA,NA
lVuu8Xp0,3o4vwc1gfzjxgki2d88xs18tr9fj3v,3wi0p0ii655ejk1654skwlcoumlrdb,lVuu8Xp0,2020-0188,2021-10-14,08:30:50,10:04:21,NA,incomplete,false,true,NA,7,33,NA,purple,n_s_092.jpg,NA,NA,pleasant,unpleasant,NA,NA,NA,NA,NA,left,2526.20000000298,true,NA,NA,NA,NA,NA
lVuu8Xp0,3o4vwc1gfzjxgki2d88xs18tr9fj3v,3wi0p0ii655ejk1654skwlcoumlrdb,lVuu8Xp0,2020-0188,2021-10-14,08:30:50,10:04:21,NA,incomplete,false,true,NA,7,34,NA,purple,m_l_091.jpg,NA,NA,unpleasant,pleasant,NA,NA,NA,NA,NA,right,2260.60000000149,true,NA,NA,NA,NA,NA
lVuu8Xp0,3o4vwc1gfzjxgki2d88xs18tr9fj3v,3wi0p0ii655ejk1654skwlcoumlrdb,lVuu8Xp0,2020-0188,2021-10-14,08:30:50,10:04:21,NA,incomplete,false,true,NA,7,35,NA,purple,n_s_082.jpg,NA,NA,unpleasant,pleasant,NA,NA,NA,NA,NA,left,2474.60000000149,true,NA,NA,NA,NA,NA
lVuu8Xp0,3o4vwc1gfzjxgki2d88xs18tr9fj3v,3wi0p0ii655ejk1654skwlcoumlrdb,lVuu8Xp0,2020-0188,2021-10-14,08:30:50,10:04:21,NA,incomplete,false,NA,true,7,0,NA,NA,NA,right,present,NA,NA,m_l_013.jpg,brown,n_s_096.jpg,brown,within,NA,NaN,NA,right,5501.5,1,0,1283.199999999255
lVuu8Xp0,3o4vwc1gfzjxgki2d88xs18tr9fj3v,3wi0p0ii655ejk1654skwlcoumlrdb,lVuu8Xp0,2020-0188,2021-10-14,08:30:50,10:04:21,NA,incomplete,false,NA,true,7,1,NA,NA,NA,right,present,NA,NA,m_l_063.jpg,white,n_l_116.jpg,white,within,NA,NaN,NA,right,4761.699999999255,1,0,1159.199999999255
lVuu8Xp0,3o4vwc1gfzjxgki2d88xs18tr9fj3v,3wi0p0ii655ejk1654skwlcoumlrdb,lVuu8Xp0,2020-0188,2021-10-14,08:30:50,10:04:21,NA,incomplete,false,NA,true,7,2,NA,NA,NA,right,present,NA,NA,n_s_082.jpg,purple,m_l_033.jpg,purple,within,NA,NaN,NA,right,3039.900000002235,1,0,1008.7000000029802
lVuu8Xp0,3o4vwc1gfzjxgki2d88xs18tr9fj3v,3wi0p0ii655ejk1654skwlcoumlrdb,lVuu8Xp0,2020-0188,2021-10-14,08:30:50,10:04:21,NA,incomplete,false,NA,true,7,3,NA,NA,NA,right,present,NA,NA,n_s_001.jpg,red,m_l_073.jpg,red,within,NA,NaN,NA,right,3970.89999999851,1,0,1174.800000000745
lVuu8Xp0,3o4vwc1gfzjxgki2d88xs18tr9fj3v,3wi0p0ii655ejk1654skwlcoumlrdb,lVuu8Xp0,2020-0188,2021-10-14,08:30:50,10:04:21,NA,incomplete,false,NA,true,7,4,NA,NA,NA,left,present,NA,NA,n_s_100.jpg,orange,n_l_005.jpg,orange,within,NA,NaN,NA,left,3709.900000002235,1,0,1817.699999999255
lVuu8Xp0,3o4vwc1gfzjxgki2d88xs18tr9fj3v,3wi0p0ii655ejk1654skwlcoumlrdb,lVuu8Xp0,2020-0188,2021-10-14,08:30:50,10:04:21,NA,incomplete,false,NA,true,7,5,NA,NA,NA,right,present,NA,NA,m_l_031.jpg,white,m_s_020.jpg,red,between,NA,NaN,NA,right,6297.199999999255,1,1,1605.8999999985099
lVuu8Xp0,3o4vwc1gfzjxgki2d88xs18tr9fj3v,3wi0p0ii655ejk1654skwlcoumlrdb,lVuu8Xp0,2020-0188,2021-10-14,08:30:50,10:04:21,NA,incomplete,false,NA,true,7,6,NA,NA,NA,right,present,NA,NA,m_l_068.jpg,black,m_l_048.jpg,black,within,NA,NaN,NA,right,5575.29999999702,1,0,1368.8999999985099
lVuu8Xp0,3o4vwc1gfzjxgki2d88xs18tr9fj3v,3wi0p0ii655ejk1654skwlcoumlrdb,lVuu8Xp0,2020-0188,2021-10-14,08:30:50,10:04:21,NA,incomplete,false,NA,true,7,7,NA,NA,NA,right,present,NA,NA,n_s_098.jpg,black,n_s_050.jpg,white,between,NA,NaN,NA,right,4000,1,2,1000.5
lVuu8Xp0,3o4vwc1gfzjxgki2d88xs18tr9fj3v,3wi0p0ii655ejk1654skwlcoumlrdb,lVuu8Xp0,2020-0188,2021-10-14,08:30:50,10:04:21,NA,incomplete,false,NA,true,7,8,NA,NA,NA,left,present,NA,NA,m_s_107.jpg,brown,n_l_064.jpg,purple,between,NA,NaN,NA,right,1931.4000000022352,0,2,1702.7999999970198
lVuu8Xp0,3o4vwc1gfzjxgki2d88xs18tr9fj3v,3wi0p0ii655ejk1654skwlcoumlrdb,lVuu8Xp0,2020-0188,2021-10-14,08:30:50,10:04:21,NA,incomplete,false,NA,true,7,9,NA,NA,NA,right,present,NA,NA,n_s_035.jpg,orange,n_l_106.jpg,black,between,NA,NaN,NA,left,3848.900000002235,0,2,1577.1000000014901
lVuu8Xp0,3o4vwc1gfzjxgki2d88xs18tr9fj3v,3wi0p0ii655ejk1654skwlcoumlrdb,lVuu8Xp0,2020-0188,2021-10-14,08:30:50,10:04:21,NA,incomplete,false,NA,true,7,10,NA,NA,NA,left,present,NA,NA,n_s_097.jpg,orange,n_l_085.jpg,brown,between,NA,NaN,NA,right,2999.39999999851,0,1,1242.7000000029802
lVuu8Xp0,3o4vwc1gfzjxgki2d88xs18tr9fj3v,3wi0p0ii655ejk1654skwlcoumlrdb,lVuu8Xp0,2020-0188,2021-10-14,08:30:50,10:04:21,NA,incomplete,false,true,NA,8,0,NA,black,m_s_110.jpg,NA,NA,pleasant,unpleasant,NA,NA,NA,NA,NA,left,1421.19999999925,true,NA,NA,NA,NA,NA
lVuu8Xp0,3o4vwc1gfzjxgki2d88xs18tr9fj3v,3wi0p0ii655ejk1654skwlcoumlrdb,lVuu8Xp0,2020-0188,2021-10-14,08:30:50,10:04:21,NA,incomplete,false,true,NA,8,1,NA,black,n_l_049.jpg,NA,NA,unpleasant,pleasant,NA,NA,NA,NA,NA,right,1640.10000000149,true,NA,NA,NA,NA,NA
lVuu8Xp0,3o4vwc1gfzjxgki2d88xs18tr9fj3v,3wi0p0ii655ejk1654skwlcoumlrdb,lVuu8Xp0,2020-0188,2021-10-14,08:30:50,10:04:21,NA,incomplete,false,true,NA,8,2,NA,black,n_s_026.jpg,NA,NA,pleasant,unpleasant,NA,NA,NA,NA,NA,right,2018.5,true,NA,NA,NA,NA,NA
lVuu8Xp0,3o4vwc1gfzjxgki2d88xs18tr9fj3v,3wi0p0ii655ejk1654skwlcoumlrdb,lVuu8Xp0,2020-0188,2021-10-14,08:30:50,10:04:21,NA,incomplete,false,true,NA,8,3,NA,black,m_l_057.jpg,NA,NA,pleasant,unpleasant,NA,NA,NA,NA,NA,right,2319.59999999776,true,NA,NA,NA,NA,NA
lVuu8Xp0,3o4vwc1gfzjxgki2d88xs18tr9fj3v,3wi0p0ii655ejk1654skwlcoumlrdb,lVuu8Xp0,2020-0188,2021-10-14,08:30:50,10:04:21,NA,incomplete,false,true,NA,8,4,NA,black,m_l_102.jpg,NA,NA,unpleasant,pleasant,NA,NA,NA,NA,NA,right,2219.19999999925,true,NA,NA,NA,NA,NA
lVuu8Xp0,3o4vwc1gfzjxgki2d88xs18tr9fj3v,3wi0p0ii655ejk1654skwlcoumlrdb,lVuu8Xp0,2020-0188,2021-10-14,08:30:50,10:04:21,NA,incomplete,false,true,NA,8,5,NA,black,m_l_070.jpg,NA,NA,pleasant,unpleasant,NA,NA,NA,NA,NA,left,2303.39999999851,true,NA,NA,NA,NA,NA
lVuu8Xp0,3o4vwc1gfzjxgki2d88xs18tr9fj3v,3wi0p0ii655ejk1654skwlcoumlrdb,lVuu8Xp0,2020-0188,2021-10-14,08:30:50,10:04:21,NA,incomplete,false,true,NA,8,6,NA,gray,m_l_006.jpg,NA,NA,unpleasant,pleasant,NA,NA,NA,NA,NA,right,1548.19999999925,true,NA,NA,NA,NA,NA
lVuu8Xp0,3o4vwc1gfzjxgki2d88xs18tr9fj3v,3wi0p0ii655ejk1654skwlcoumlrdb,lVuu8Xp0,2020-0188,2021-10-14,08:30:50,10:04:21,NA,incomplete,false,true,NA,8,7,NA,gray,m_s_025.jpg,NA,NA,unpleasant,pleasant,NA,NA,NA,NA,NA,right,1854.80000000075,true,NA,NA,NA,NA,NA
lVuu8Xp0,3o4vwc1gfzjxgki2d88xs18tr9fj3v,3wi0p0ii655ejk1654skwlcoumlrdb,lVuu8Xp0,2020-0188,2021-10-14,08:30:50,10:04:21,NA,incomplete,false,true,NA,8,8,NA,gray,n_s_064.jpg,NA,NA,unpleasant,pleasant,NA,NA,NA,NA,NA,left,1608.19999999925,true,NA,NA,NA,NA,NA
lVuu8Xp0,3o4vwc1gfzjxgki2d88xs18tr9fj3v,3wi0p0ii655ejk1654skwlcoumlrdb,lVuu8Xp0,2020-0188,2021-10-14,08:30:50,10:04:21,NA,incomplete,false,true,NA,8,9,NA,gray,n_l_100.jpg,NA,NA,pleasant,unpleasant,NA,NA,NA,NA,NA,left,1924.89999999851,true,NA,NA,NA,NA,NA
