workerId,hitId,assignmentId,subject,studyid,exp_date,exp_start,exp_end,time_start,time_end,practice,encoding,memory,block,trial,event_order,event,stim,answer,context_type,label_left,label_right,left_image,left_event,right_image,right_event,condition,response,response_time,response_acc,order_response,order_response_time,order_acc,distance_response,distance_response_time
M8jR0Pna,3odop6t3bvxisk3y617o3pei3yp24c,32m8bpygaxz4258eh7zjoeeukh5igt,M8jR0Pna,2020-0188,2021-10-14,09:10:16,10:53:17,NA,incomplete,true,true,NA,0,0,NA,red,m_s_052.jpg,NA,NA,unpleasant,pleasant,NA,NA,NA,NA,NA,right,1466,true,NA,NA,NA,NA,NA
M8jR0Pna,3odop6t3bvxisk3y617o3pei3yp24c,32m8bpygaxz4258eh7zjoeeukh5igt,M8jR0Pna,2020-0188,2021-10-14,09:10:16,10:53:17,NA,incomplete,true,true,NA,0,1,NA,red,n_l_018.jpg,NA,NA,pleasant,unpleasant,NA,NA,NA,NA,NA,right,2014,true,NA,NA,NA,NA,NA
M8jR0Pna,3odop6t3bvxisk3y617o3pei3yp24c,32m8bpygaxz4258eh7zjoeeukh5igt,M8jR0Pna,2020-0188,2021-10-14,09:10:16,10:53:17,NA,incomplete,true,true,NA,0,2,NA,red,m_l_060.jpg,NA,NA,pleasant,unpleasant,NA,NA,NA,NA,NA,left,1949,true,NA,NA,NA,NA,NA
M8jR0Pna,3odop6t3bvxisk3y617o3pei3yp24c,32m8bpygaxz4258eh7zjoeeukh5igt,M8jR0Pna,2020-0188,2021-10-14,09:10:16,10:53:17,NA,incomplete,true,true,NA,0,3,NA,red,n_s_112.jpg,NA,NA,pleasant,unpleasant,NA,NA,NA,NA,NA,left,1738,true,NA,NA,NA,NA,NA
M8jR0Pna,3odop6t3bvxisk3y617o3pei3yp24c,32m8bpygaxz4258eh7zjoeeukh5igt,M8jR0Pna,2020-0188,2021-10-14,09:10:16,10:53:17,NA,incomplete,true,true,NA,0,4,NA,red,n_s_105.jpg,NA,NA,unpleasant,pleasant,NA,NA,NA,NA,NA,right,1101,true,NA,NA,NA,NA,NA
M8jR0Pna,3odop6t3bvxisk3y617o3pei3yp24c,32m8bpygaxz4258eh7zjoeeukh5igt,M8jR0Pna,2020-0188,2021-10-14,09:10:16,10:53:17,NA,incomplete,true,true,NA,0,5,NA,red,m_l_002.jpg,NA,NA,unpleasant,pleasant,NA,NA,NA,NA,NA,right,1321,true,NA,NA,NA,NA,NA
M8jR0Pna,3odop6t3bvxisk3y617o3pei3yp24c,32m8bpygaxz4258eh7zjoeeukh5igt,M8jR0Pna,2020-0188,2021-10-14,09:10:16,10:53:17,NA,incomplete,true,true,NA,0,6,NA,white,n_l_013.jpg,NA,NA,pleasant,unpleasant,NA,NA,NA,NA,NA,right,1619,true,NA,NA,NA,NA,NA
M8jR0Pna,3odop6t3bvxisk3y617o3pei3yp24c,32m8bpygaxz4258eh7zjoeeukh5igt,M8jR0Pna,2020-0188,2021-10-14,09:10:16,10:53:17,NA,incomplete,true,true,NA,0,7,NA,white,n_l_065.jpg,NA,NA,pleasant,unpleasant,NA,NA,NA,NA,NA,right,1360,true,NA,NA,NA,NA,NA
M8jR0Pna,3odop6t3bvxisk3y617o3pei3yp24c,32m8bpygaxz4258eh7zjoeeukh5igt,M8jR0Pna,2020-0188,2021-10-14,09:10:16,10:53:17,NA,incomplete,true,true,NA,0,8,NA,white,m_s_117.jpg,NA,NA,pleasant,unpleasant,NA,NA,NA,NA,NA,left,1422,true,NA,NA,NA,NA,NA
M8jR0Pna,3odop6t3bvxisk3y617o3pei3yp24c,32m8bpygaxz4258eh7zjoeeukh5igt,M8jR0Pna,2020-0188,2021-10-14,09:10:16,10:53:17,NA,incomplete,true,true,NA,0,9,NA,white,n_s_039.jpg,NA,NA,pleasant,unpleasant,NA,NA,NA,NA,NA,left,1341,true,NA,NA,NA,NA,NA
M8jR0Pna,3odop6t3bvxisk3y617o3pei3yp24c,32m8bpygaxz4258eh7zjoeeukh5igt,M8jR0Pna,2020-0188,2021-10-14,09:10:16,10:53:17,NA,incomplete,true,true,NA,0,10,NA,white,n_l_054.jpg,NA,NA,unpleasant,pleasant,NA,NA,NA,NA,NA,right,1546,true,NA,NA,NA,NA,NA
M8jR0Pna,3odop6t3bvxisk3y617o3pei3yp24c,32m8bpygaxz4258eh7zjoeeukh5igt,M8jR0Pna,2020-0188,2021-10-14,09:10:16,10:53:17,NA,incomplete,true,true,NA,0,11,NA,white,m_l_059.jpg,NA,NA,pleasant,unpleasant,NA,NA,NA,NA,NA,right,1792,true,NA,NA,NA,NA,NA
M8jR0Pna,3odop6t3bvxisk3y617o3pei3yp24c,32m8bpygaxz4258eh7zjoeeukh5igt,M8jR0Pna,2020-0188,2021-10-14,09:10:16,10:53:17,NA,incomplete,true,true,NA,0,12,NA,purple,m_s_071.jpg,NA,NA,unpleasant,pleasant,NA,NA,NA,NA,NA,left,1649,true,NA,NA,NA,NA,NA
M8jR0Pna,3odop6t3bvxisk3y617o3pei3yp24c,32m8bpygaxz4258eh7zjoeeukh5igt,M8jR0Pna,2020-0188,2021-10-14,09:10:16,10:53:17,NA,incomplete,true,true,NA,0,13,NA,purple,m_s_079.jpg,NA,NA,unpleasant,pleasant,NA,NA,NA,NA,NA,right,1244,true,NA,NA,NA,NA,NA
M8jR0Pna,3odop6t3bvxisk3y617o3pei3yp24c,32m8bpygaxz4258eh7zjoeeukh5igt,M8jR0Pna,2020-0188,2021-10-14,09:10:16,10:53:17,NA,incomplete,true,true,NA,0,14,NA,purple,m_s_013.jpg,NA,NA,pleasant,unpleasant,NA,NA,NA,NA,NA,right,1579,true,NA,NA,NA,NA,NA
M8jR0Pna,3odop6t3bvxisk3y617o3pei3yp24c,32m8bpygaxz4258eh7zjoeeukh5igt,M8jR0Pna,2020-0188,2021-10-14,09:10:16,10:53:17,NA,incomplete,true,true,NA,0,15,NA,purple,n_l_060.jpg,NA,NA,unpleasant,pleasant,NA,NA,NA,NA,NA,right,1583,true,NA,NA,NA,NA,NA
M8jR0Pna,3odop6t3bvxisk3y617o3pei3yp24c,32m8bpygaxz4258eh7zjoeeukh5igt,M8jR0Pna,2020-0188,2021-10-14,09:10:16,10:53:17,NA,incomplete,true,true,NA,0,16,NA,purple,m_s_026.jpg,NA,NA,unpleasant,pleasant,NA,NA,NA,NA,NA,left,1608,true,NA,NA,NA,NA,NA
M8jR0Pna,3odop6t3bvxisk3y617o3pei3yp24c,32m8bpygaxz4258eh7zjoeeukh5igt,M8jR0Pna,2020-0188,2021-10-14,09:10:16,10:53:17,NA,incomplete,true,true,NA,0,17,NA,purple,m_l_058.jpg,NA,NA,unpleasant,pleasant,NA,NA,NA,NA,NA,left,1713,true,NA,NA,NA,NA,NA
M8jR0Pna,3odop6t3bvxisk3y617o3pei3yp24c,32m8bpygaxz4258eh7zjoeeukh5igt,M8jR0Pna,2020-0188,2021-10-14,09:10:16,10:53:17,NA,incomplete,true,true,NA,0,18,NA,blue,n_l_115.jpg,NA,NA,unpleasant,pleasant,NA,NA,NA,NA,NA,right,1558,true,NA,NA,NA,NA,NA
M8jR0Pna,3odop6t3bvxisk3y617o3pei3yp24c,32m8bpygaxz4258eh7zjoeeukh5igt,M8jR0Pna,2020-0188,2021-10-14,09:10:16,10:53:17,NA,incomplete,true,true,NA,0,19,NA,blue,m_l_049.jpg,NA,NA,pleasant,unpleasant,NA,NA,NA,NA,NA,right,1705,true,NA,NA,NA,NA,NA
M8jR0Pna,3odop6t3bvxisk3y617o3pei3yp24c,32m8bpygaxz4258eh7zjoeeukh5igt,M8jR0Pna,2020-0188,2021-10-14,09:10:16,10:53:17,NA,incomplete,true,true,NA,0,20,NA,blue,m_s_081.jpg,NA,NA,pleasant,unpleasant,NA,NA,NA,NA,NA,right,2097,true,NA,NA,NA,NA,NA
M8jR0Pna,3odop6t3bvxisk3y617o3pei3yp24c,32m8bpygaxz4258eh7zjoeeukh5igt,M8jR0Pna,2020-0188,2021-10-14,09:10:16,10:53:17,NA,incomplete,true,true,NA,0,21,NA,blue,n_l_001.jpg,NA,NA,pleasant,unpleasant,NA,NA,NA,NA,NA,left,1892,true,NA,NA,NA,NA,NA
M8jR0Pna,3odop6t3bvxisk3y617o3pei3yp24c,32m8bpygaxz4258eh7zjoeeukh5igt,M8jR0Pna,2020-0188,2021-10-14,09:10:16,10:53:17,NA,incomplete,true,true,NA,0,22,NA,blue,m_s_008.jpg,NA,NA,unpleasant,pleasant,NA,NA,NA,NA,NA,right,1974,true,NA,NA,NA,NA,NA
M8jR0Pna,3odop6t3bvxisk3y617o3pei3yp24c,32m8bpygaxz4258eh7zjoeeukh5igt,M8jR0Pna,2020-0188,2021-10-14,09:10:16,10:53:17,NA,incomplete,true,true,NA,0,23,NA,blue,m_l_036.jpg,NA,NA,unpleasant,pleasant,NA,NA,NA,NA,NA,left,2004,true,NA,NA,NA,NA,NA
M8jR0Pna,3odop6t3bvxisk3y617o3pei3yp24c,32m8bpygaxz4258eh7zjoeeukh5igt,M8jR0Pna,2020-0188,2021-10-14,09:10:16,10:53:17,NA,incomplete,true,true,NA,0,24,NA,black,n_s_059.jpg,NA,NA,pleasant,unpleasant,NA,NA,NA,NA,NA,right,2376,true,NA,NA,NA,NA,NA
M8jR0Pna,3odop6t3bvxisk3y617o3pei3yp24c,32m8bpygaxz4258eh7zjoeeukh5igt,M8jR0Pna,2020-0188,2021-10-14,09:10:16,10:53:17,NA,incomplete,true,true,NA,0,25,NA,black,m_l_069.jpg,NA,NA,pleasant,unpleasant,NA,NA,NA,NA,NA,right,2156,true,NA,NA,NA,NA,NA
M8jR0Pna,3odop6t3bvxisk3y617o3pei3yp24c,32m8bpygaxz4258eh7zjoeeukh5igt,M8jR0Pna,2020-0188,2021-10-14,09:10:16,10:53:17,NA,incomplete,true,true,NA,0,26,NA,black,m_l_065.jpg,NA,NA,unpleasant,pleasant,NA,NA,NA,NA,NA,right,1610,true,NA,NA,NA,NA,NA
M8jR0Pna,3odop6t3bvxisk3y617o3pei3yp24c,32m8bpygaxz4258eh7zjoeeukh5igt,M8jR0Pna,2020-0188,2021-10-14,09:10:16,10:53:17,NA,incomplete,true,true,NA,0,27,NA,black,m_l_110.jpg,NA,NA,pleasant,unpleasant,NA,NA,NA,NA,NA,left,2296,true,NA,NA,NA,NA,NA
M8jR0Pna,3odop6t3bvxisk3y617o3pei3yp24c,32m8bpygaxz4258eh7zjoeeukh5igt,M8jR0Pna,2020-0188,2021-10-14,09:10:16,10:53:17,NA,incomplete,true,true,NA,0,28,NA,black,m_s_096.jpg,NA,NA,unpleasant,pleasant,NA,NA,NA,NA,NA,left,1429,true,NA,NA,NA,NA,NA
M8jR0Pna,3odop6t3bvxisk3y617o3pei3yp24c,32m8bpygaxz4258eh7zjoeeukh5igt,M8jR0Pna,2020-0188,2021-10-14,09:10:16,10:53:17,NA,incomplete,true,true,NA,0,29,NA,black,m_s_020.jpg,NA,NA,unpleasant,pleasant,NA,NA,NA,NA,NA,right,1604,true,NA,NA,NA,NA,NA
M8jR0Pna,3odop6t3bvxisk3y617o3pei3yp24c,32m8bpygaxz4258eh7zjoeeukh5igt,M8jR0Pna,2020-0188,2021-10-14,09:10:16,10:53:17,NA,incomplete,true,true,NA,0,30,NA,gray,n_l_114.jpg,NA,NA,unpleasant,pleasant,NA,NA,NA,NA,NA,right,1764,true,NA,NA,NA,NA,NA
M8jR0Pna,3odop6t3bvxisk3y617o3pei3yp24c,32m8bpygaxz4258eh7zjoeeukh5igt,M8jR0Pna,2020-0188,2021-10-14,09:10:16,10:53:17,NA,incomplete,true,true,NA,0,31,NA,gray,m_l_080.jpg,NA,NA,unpleasant,pleasant,NA,NA,NA,NA,NA,right,1407,true,NA,NA,NA,NA,NA
M8jR0Pna,3odop6t3bvxisk3y617o3pei3yp24c,32m8bpygaxz4258eh7zjoeeukh5igt,M8jR0Pna,2020-0188,2021-10-14,09:10:16,10:53:17,NA,incomplete,true,true,NA,0,32,NA,gray,n_l_017.jpg,NA,NA,pleasant,unpleasant,NA,NA,NA,NA,NA,right,1446,true,NA,NA,NA,NA,NA
M8jR0Pna,3odop6t3bvxisk3y617o3pei3yp24c,32m8bpygaxz4258eh7zjoeeukh5igt,M8jR0Pna,2020-0188,2021-10-14,09:10:16,10:53:17,NA,incomplete,true,true,NA,0,33,NA,gray,m_l_030.jpg,NA,NA,pleasant,unpleasant,NA,NA,NA,NA,NA,right,2186,true,NA,NA,NA,NA,NA
M8jR0Pna,3odop6t3bvxisk3y617o3pei3yp24c,32m8bpygaxz4258eh7zjoeeukh5igt,M8jR0Pna,2020-0188,2021-10-14,09:10:16,10:53:17,NA,incomplete,true,true,NA,0,34,NA,gray,m_s_018.jpg,NA,NA,unpleasant,pleasant,NA,NA,NA,NA,NA,right,2239,true,NA,NA,NA,NA,NA
M8jR0Pna,3odop6t3bvxisk3y617o3pei3yp24c,32m8bpygaxz4258eh7zjoeeukh5igt,M8jR0Pna,2020-0188,2021-10-14,09:10:16,10:53:17,NA,incomplete,true,true,NA,0,35,NA,gray,n_l_116.jpg,NA,NA,pleasant,unpleasant,NA,NA,NA,NA,NA,left,2261,true,NA,NA,NA,NA,NA
M8jR0Pna,3odop6t3bvxisk3y617o3pei3yp24c,32m8bpygaxz4258eh7zjoeeukh5igt,M8jR0Pna,2020-0188,2021-10-14,09:10:16,10:53:17,NA,incomplete,true,NA,true,0,0,NA,NA,NA,right,absent,NA,NA,m_l_058.jpg,purple,m_s_079.jpg,purple,within,NA,NaN,NA,right,3813,1,1,5822
M8jR0Pna,3odop6t3bvxisk3y617o3pei3yp24c,32m8bpygaxz4258eh7zjoeeukh5igt,M8jR0Pna,2020-0188,2021-10-14,09:10:16,10:53:17,NA,incomplete,true,NA,true,0,1,NA,NA,NA,left,present,NA,NA,n_l_054.jpg,white,m_s_013.jpg,purple,between,NA,NaN,NA,right,7012,0,0,1635
M8jR0Pna,3odop6t3bvxisk3y617o3pei3yp24c,32m8bpygaxz4258eh7zjoeeukh5igt,M8jR0Pna,2020-0188,2021-10-14,09:10:16,10:53:17,NA,incomplete,true,NA,true,0,2,NA,NA,NA,left,present,NA,NA,m_s_096.jpg,black,n_l_017.jpg,gray,between,NA,NaN,NA,right,11596,0,1,1448
M8jR0Pna,3odop6t3bvxisk3y617o3pei3yp24c,32m8bpygaxz4258eh7zjoeeukh5igt,M8jR0Pna,2020-0188,2021-10-14,09:10:16,10:53:17,NA,incomplete,true,NA,true,0,3,NA,NA,NA,left,absent,NA,NA,m_l_069.jpg,black,m_s_020.jpg,black,within,NA,NaN,NA,left,2524,1,2,3166
M8jR0Pna,3odop6t3bvxisk3y617o3pei3yp24c,32m8bpygaxz4258eh7zjoeeukh5igt,M8jR0Pna,2020-0188,2021-10-14,09:10:16,10:53:17,NA,incomplete,true,NA,true,0,4,NA,NA,NA,right,absent,NA,NA,m_l_065.jpg,black,m_s_008.jpg,blue,between,NA,NaN,NA,right,3974,1,1,1709
M8jR0Pna,3odop6t3bvxisk3y617o3pei3yp24c,32m8bpygaxz4258eh7zjoeeukh5igt,M8jR0Pna,2020-0188,2021-10-14,09:10:16,10:53:17,NA,incomplete,true,NA,true,0,5,NA,NA,NA,left,absent,NA,NA,n_s_105.jpg,red,m_s_117.jpg,white,between,NA,NaN,NA,left,3195,1,2,2247
M8jR0Pna,3odop6t3bvxisk3y617o3pei3yp24c,32m8bpygaxz4258eh7zjoeeukh5igt,M8jR0Pna,2020-0188,2021-10-14,09:10:16,10:53:17,NA,incomplete,true,NA,true,0,6,NA,NA,NA,right,absent,NA,NA,m_l_036.jpg,blue,m_l_049.jpg,blue,within,NA,NaN,NA,right,8445,1,1,2104
M8jR0Pna,3odop6t3bvxisk3y617o3pei3yp24c,32m8bpygaxz4258eh7zjoeeukh5igt,M8jR0Pna,2020-0188,2021-10-14,09:10:16,10:53:17,NA,incomplete,true,NA,true,0,7,NA,NA,NA,left,present,NA,NA,n_l_065.jpg,white,m_l_059.jpg,white,within,NA,NaN,NA,right,10273,0,0,1993
M8jR0Pna,3odop6t3bvxisk3y617o3pei3yp24c,32m8bpygaxz4258eh7zjoeeukh5igt,M8jR0Pna,2020-0188,2021-10-14,09:10:16,10:53:17,NA,incomplete,true,NA,true,0,8,NA,NA,NA,left,present,NA,NA,m_l_080.jpg,gray,n_l_116.jpg,gray,within,NA,NaN,NA,right,2592,0,1,4396
M8jR0Pna,3odop6t3bvxisk3y617o3pei3yp24c,32m8bpygaxz4258eh7zjoeeukh5igt,M8jR0Pna,2020-0188,2021-10-14,09:10:16,10:53:17,NA,incomplete,true,NA,true,0,9,NA,NA,NA,right,absent,NA,NA,m_s_081.jpg,blue,m_s_026.jpg,purple,between,NA,NaN,NA,right,2485,1,2,3389
M8jR0Pna,3odop6t3bvxisk3y617o3pei3yp24c,32m8bpygaxz4258eh7zjoeeukh5igt,M8jR0Pna,2020-0188,2021-10-14,09:10:16,10:53:17,NA,incomplete,true,NA,true,0,10,NA,NA,NA,right,present,NA,NA,m_l_002.jpg,red,n_l_018.jpg,red,within,NA,NaN,NA,left,4158,0,2,2558
M8jR0Pna,3odop6t3bvxisk3y617o3pei3yp24c,32m8bpygaxz4258eh7zjoeeukh5igt,M8jR0Pna,2020-0188,2021-10-14,09:10:16,10:53:17,NA,incomplete,false,true,NA,1,0,NA,blue,n_l_068.jpg,NA,NA,unpleasant,pleasant,NA,NA,NA,NA,NA,right,1935,true,NA,NA,NA,NA,NA
M8jR0Pna,3odop6t3bvxisk3y617o3pei3yp24c,32m8bpygaxz4258eh7zjoeeukh5igt,M8jR0Pna,2020-0188,2021-10-14,09:10:16,10:53:17,NA,incomplete,false,true,NA,1,1,NA,blue,m_s_103.jpg,NA,NA,pleasant,unpleasant,NA,NA,NA,NA,NA,right,1292,true,NA,NA,NA,NA,NA
M8jR0Pna,3odop6t3bvxisk3y617o3pei3yp24c,32m8bpygaxz4258eh7zjoeeukh5igt,M8jR0Pna,2020-0188,2021-10-14,09:10:16,10:53:17,NA,incomplete,false,true,NA,1,2,NA,blue,m_s_113.jpg,NA,NA,pleasant,unpleasant,NA,NA,NA,NA,NA,left,1658,true,NA,NA,NA,NA,NA
M8jR0Pna,3odop6t3bvxisk3y617o3pei3yp24c,32m8bpygaxz4258eh7zjoeeukh5igt,M8jR0Pna,2020-0188,2021-10-14,09:10:16,10:53:17,NA,incomplete,false,true,NA,1,3,NA,blue,n_l_007.jpg,NA,NA,unpleasant,pleasant,NA,NA,NA,NA,NA,right,1698,true,NA,NA,NA,NA,NA
M8jR0Pna,3odop6t3bvxisk3y617o3pei3yp24c,32m8bpygaxz4258eh7zjoeeukh5igt,M8jR0Pna,2020-0188,2021-10-14,09:10:16,10:53:17,NA,incomplete,false,true,NA,1,4,NA,blue,m_l_062.jpg,NA,NA,unpleasant,pleasant,NA,NA,NA,NA,NA,right,1418,true,NA,NA,NA,NA,NA
M8jR0Pna,3odop6t3bvxisk3y617o3pei3yp24c,32m8bpygaxz4258eh7zjoeeukh5igt,M8jR0Pna,2020-0188,2021-10-14,09:10:16,10:53:17,NA,incomplete,false,true,NA,1,5,NA,blue,n_s_071.jpg,NA,NA,pleasant,unpleasant,NA,NA,NA,NA,NA,left,1824,true,NA,NA,NA,NA,NA
M8jR0Pna,3odop6t3bvxisk3y617o3pei3yp24c,32m8bpygaxz4258eh7zjoeeukh5igt,M8jR0Pna,2020-0188,2021-10-14,09:10:16,10:53:17,NA,incomplete,false,true,NA,1,6,NA,gray,n_s_086.jpg,NA,NA,unpleasant,pleasant,NA,NA,NA,NA,NA,left,1952,true,NA,NA,NA,NA,NA
M8jR0Pna,3odop6t3bvxisk3y617o3pei3yp24c,32m8bpygaxz4258eh7zjoeeukh5igt,M8jR0Pna,2020-0188,2021-10-14,09:10:16,10:53:17,NA,incomplete,false,true,NA,1,7,NA,gray,n_l_047.jpg,NA,NA,pleasant,unpleasant,NA,NA,NA,NA,NA,left,2190,true,NA,NA,NA,NA,NA
M8jR0Pna,3odop6t3bvxisk3y617o3pei3yp24c,32m8bpygaxz4258eh7zjoeeukh5igt,M8jR0Pna,2020-0188,2021-10-14,09:10:16,10:53:17,NA,incomplete,false,true,NA,1,8,NA,gray,n_s_096.jpg,NA,NA,unpleasant,pleasant,NA,NA,NA,NA,NA,right,1358,true,NA,NA,NA,NA,NA
M8jR0Pna,3odop6t3bvxisk3y617o3pei3yp24c,32m8bpygaxz4258eh7zjoeeukh5igt,M8jR0Pna,2020-0188,2021-10-14,09:10:16,10:53:17,NA,incomplete,false,true,NA,1,9,NA,gray,m_l_061.jpg,NA,NA,unpleasant,pleasant,NA,NA,NA,NA,NA,right,1825,true,NA,NA,NA,NA,NA
M8jR0Pna,3odop6t3bvxisk3y617o3pei3yp24c,32m8bpygaxz4258eh7zjoeeukh5igt,M8jR0Pna,2020-0188,2021-10-14,09:10:16,10:53:17,NA,incomplete,false,true,NA,1,10,NA,gray,n_l_109.jpg,NA,NA,pleasant,unpleasant,NA,NA,NA,NA,NA,right,1627,true,NA,NA,NA,NA,NA
M8jR0Pna,3odop6t3bvxisk3y617o3pei3yp24c,32m8bpygaxz4258eh7zjoeeukh5igt,M8jR0Pna,2020-0188,2021-10-14,09:10:16,10:53:17,NA,incomplete,false,true,NA,1,11,NA,gray,m_s_029.jpg,NA,NA,pleasant,unpleasant,NA,NA,NA,NA,NA,right,2696,true,NA,NA,NA,NA,NA
M8jR0Pna,3odop6t3bvxisk3y617o3pei3yp24c,32m8bpygaxz4258eh7zjoeeukh5igt,M8jR0Pna,2020-0188,2021-10-14,09:10:16,10:53:17,NA,incomplete,false,true,NA,1,12,NA,black,m_s_037.jpg,NA,NA,unpleasant,pleasant,NA,NA,NA,NA,NA,right,1739,true,NA,NA,NA,NA,NA
M8jR0Pna,3odop6t3bvxisk3y617o3pei3yp24c,32m8bpygaxz4258eh7zjoeeukh5igt,M8jR0Pna,2020-0188,2021-10-14,09:10:16,10:53:17,NA,incomplete,false,true,NA,1,13,NA,black,m_l_082.jpg,NA,NA,pleasant,unpleasant,NA,NA,NA,NA,NA,right,1527,true,NA,NA,NA,NA,NA
M8jR0Pna,3odop6t3bvxisk3y617o3pei3yp24c,32m8bpygaxz4258eh7zjoeeukh5igt,M8jR0Pna,2020-0188,2021-10-14,09:10:16,10:53:17,NA,incomplete,false,true,NA,1,14,NA,black,m_s_043.jpg,NA,NA,unpleasant,pleasant,NA,NA,NA,NA,NA,left,1460,true,NA,NA,NA,NA,NA
M8jR0Pna,3odop6t3bvxisk3y617o3pei3yp24c,32m8bpygaxz4258eh7zjoeeukh5igt,M8jR0Pna,2020-0188,2021-10-14,09:10:16,10:53:17,NA,incomplete,false,true,NA,1,15,NA,black,m_s_055.jpg,NA,NA,unpleasant,pleasant,NA,NA,NA,NA,NA,left,1609,true,NA,NA,NA,NA,NA
M8jR0Pna,3odop6t3bvxisk3y617o3pei3yp24c,32m8bpygaxz4258eh7zjoeeukh5igt,M8jR0Pna,2020-0188,2021-10-14,09:10:16,10:53:17,NA,incomplete,false,true,NA,1,16,NA,black,n_s_093.jpg,NA,NA,pleasant,unpleasant,NA,NA,NA,NA,NA,right,1226,true,NA,NA,NA,NA,NA
M8jR0Pna,3odop6t3bvxisk3y617o3pei3yp24c,32m8bpygaxz4258eh7zjoeeukh5igt,M8jR0Pna,2020-0188,2021-10-14,09:10:16,10:53:17,NA,incomplete,false,true,NA,1,17,NA,black,m_s_012.jpg,NA,NA,pleasant,unpleasant,NA,NA,NA,NA,NA,left,2094,true,NA,NA,NA,NA,NA
M8jR0Pna,3odop6t3bvxisk3y617o3pei3yp24c,32m8bpygaxz4258eh7zjoeeukh5igt,M8jR0Pna,2020-0188,2021-10-14,09:10:16,10:53:17,NA,incomplete,false,true,NA,1,18,NA,yellow,n_l_011.jpg,NA,NA,pleasant,unpleasant,NA,NA,NA,NA,NA,right,2429,true,NA,NA,NA,NA,NA
M8jR0Pna,3odop6t3bvxisk3y617o3pei3yp24c,32m8bpygaxz4258eh7zjoeeukh5igt,M8jR0Pna,2020-0188,2021-10-14,09:10:16,10:53:17,NA,incomplete,false,true,NA,1,19,NA,yellow,n_l_026.jpg,NA,NA,pleasant,unpleasant,NA,NA,NA,NA,NA,left,1610,true,NA,NA,NA,NA,NA
M8jR0Pna,3odop6t3bvxisk3y617o3pei3yp24c,32m8bpygaxz4258eh7zjoeeukh5igt,M8jR0Pna,2020-0188,2021-10-14,09:10:16,10:53:17,NA,incomplete,false,true,NA,1,20,NA,yellow,n_l_090.jpg,NA,NA,pleasant,unpleasant,NA,NA,NA,NA,NA,right,1607,true,NA,NA,NA,NA,NA
M8jR0Pna,3odop6t3bvxisk3y617o3pei3yp24c,32m8bpygaxz4258eh7zjoeeukh5igt,M8jR0Pna,2020-0188,2021-10-14,09:10:16,10:53:17,NA,incomplete,false,true,NA,1,21,NA,yellow,m_l_076.jpg,NA,NA,unpleasant,pleasant,NA,NA,NA,NA,NA,right,2024,true,NA,NA,NA,NA,NA
M8jR0Pna,3odop6t3bvxisk3y617o3pei3yp24c,32m8bpygaxz4258eh7zjoeeukh5igt,M8jR0Pna,2020-0188,2021-10-14,09:10:16,10:53:17,NA,incomplete,false,true,NA,1,22,NA,yellow,m_s_032.jpg,NA,NA,unpleasant,pleasant,NA,NA,NA,NA,NA,left,2270,true,NA,NA,NA,NA,NA
M8jR0Pna,3odop6t3bvxisk3y617o3pei3yp24c,32m8bpygaxz4258eh7zjoeeukh5igt,M8jR0Pna,2020-0188,2021-10-14,09:10:16,10:53:17,NA,incomplete,false,true,NA,1,23,NA,yellow,m_s_066.jpg,NA,NA,unpleasant,pleasant,NA,NA,NA,NA,NA,right,1766,true,NA,NA,NA,NA,NA
M8jR0Pna,3odop6t3bvxisk3y617o3pei3yp24c,32m8bpygaxz4258eh7zjoeeukh5igt,M8jR0Pna,2020-0188,2021-10-14,09:10:16,10:53:17,NA,incomplete,false,true,NA,1,24,NA,purple,m_s_116.jpg,NA,NA,pleasant,unpleasant,NA,NA,NA,NA,NA,left,1620,true,NA,NA,NA,NA,NA
M8jR0Pna,3odop6t3bvxisk3y617o3pei3yp24c,32m8bpygaxz4258eh7zjoeeukh5igt,M8jR0Pna,2020-0188,2021-10-14,09:10:16,10:53:17,NA,incomplete,false,true,NA,1,25,NA,purple,n_s_101.jpg,NA,NA,pleasant,unpleasant,NA,NA,NA,NA,NA,right,1281,true,NA,NA,NA,NA,NA
M8jR0Pna,3odop6t3bvxisk3y617o3pei3yp24c,32m8bpygaxz4258eh7zjoeeukh5igt,M8jR0Pna,2020-0188,2021-10-14,09:10:16,10:53:17,NA,incomplete,false,true,NA,1,26,NA,purple,m_l_068.jpg,NA,NA,unpleasant,pleasant,NA,NA,NA,NA,NA,right,1366,true,NA,NA,NA,NA,NA
M8jR0Pna,3odop6t3bvxisk3y617o3pei3yp24c,32m8bpygaxz4258eh7zjoeeukh5igt,M8jR0Pna,2020-0188,2021-10-14,09:10:16,10:53:17,NA,incomplete,false,true,NA,1,27,NA,purple,n_l_077.jpg,NA,NA,unpleasant,pleasant,NA,NA,NA,NA,NA,left,1301,true,NA,NA,NA,NA,NA
M8jR0Pna,3odop6t3bvxisk3y617o3pei3yp24c,32m8bpygaxz4258eh7zjoeeukh5igt,M8jR0Pna,2020-0188,2021-10-14,09:10:16,10:53:17,NA,incomplete,false,true,NA,1,28,NA,purple,n_s_056.jpg,NA,NA,pleasant,unpleasant,NA,NA,NA,NA,NA,left,2354,true,NA,NA,NA,NA,NA
M8jR0Pna,3odop6t3bvxisk3y617o3pei3yp24c,32m8bpygaxz4258eh7zjoeeukh5igt,M8jR0Pna,2020-0188,2021-10-14,09:10:16,10:53:17,NA,incomplete,false,true,NA,1,29,NA,purple,m_s_041.jpg,NA,NA,unpleasant,pleasant,NA,NA,NA,NA,NA,right,1954,true,NA,NA,NA,NA,NA
M8jR0Pna,3odop6t3bvxisk3y617o3pei3yp24c,32m8bpygaxz4258eh7zjoeeukh5igt,M8jR0Pna,2020-0188,2021-10-14,09:10:16,10:53:17,NA,incomplete,false,true,NA,1,30,NA,brown,n_l_082.jpg,NA,NA,unpleasant,pleasant,NA,NA,NA,NA,NA,right,1477,true,NA,NA,NA,NA,NA
M8jR0Pna,3odop6t3bvxisk3y617o3pei3yp24c,32m8bpygaxz4258eh7zjoeeukh5igt,M8jR0Pna,2020-0188,2021-10-14,09:10:16,10:53:17,NA,incomplete,false,true,NA,1,31,NA,brown,m_s_078.jpg,NA,NA,unpleasant,pleasant,NA,NA,NA,NA,NA,right,1761,true,NA,NA,NA,NA,NA
M8jR0Pna,3odop6t3bvxisk3y617o3pei3yp24c,32m8bpygaxz4258eh7zjoeeukh5igt,M8jR0Pna,2020-0188,2021-10-14,09:10:16,10:53:17,NA,incomplete,false,true,NA,1,32,NA,brown,n_s_008.jpg,NA,NA,unpleasant,pleasant,NA,NA,NA,NA,NA,left,1769,true,NA,NA,NA,NA,NA
M8jR0Pna,3odop6t3bvxisk3y617o3pei3yp24c,32m8bpygaxz4258eh7zjoeeukh5igt,M8jR0Pna,2020-0188,2021-10-14,09:10:16,10:53:17,NA,incomplete,false,true,NA,1,33,NA,brown,m_s_033.jpg,NA,NA,unpleasant,pleasant,NA,NA,NA,NA,NA,right,1614,true,NA,NA,NA,NA,NA
M8jR0Pna,3odop6t3bvxisk3y617o3pei3yp24c,32m8bpygaxz4258eh7zjoeeukh5igt,M8jR0Pna,2020-0188,2021-10-14,09:10:16,10:53:17,NA,incomplete,false,true,NA,1,34,NA,brown,n_l_072.jpg,NA,NA,unpleasant,pleasant,NA,NA,NA,NA,NA,right,1657,true,NA,NA,NA,NA,NA
M8jR0Pna,3odop6t3bvxisk3y617o3pei3yp24c,32m8bpygaxz4258eh7zjoeeukh5igt,M8jR0Pna,2020-0188,2021-10-14,09:10:16,10:53:17,NA,incomplete,false,true,NA,1,35,NA,brown,n_s_027.jpg,NA,NA,pleasant,unpleasant,NA,NA,NA,NA,NA,right,1793,true,NA,NA,NA,NA,NA
M8jR0Pna,3odop6t3bvxisk3y617o3pei3yp24c,32m8bpygaxz4258eh7zjoeeukh5igt,M8jR0Pna,2020-0188,2021-10-14,09:10:16,10:53:17,NA,incomplete,false,NA,true,1,0,NA,NA,NA,right,absent,NA,NA,n_s_027.jpg,brown,m_s_078.jpg,brown,within,NA,NaN,NA,right,6597,1,2,2061
M8jR0Pna,3odop6t3bvxisk3y617o3pei3yp24c,32m8bpygaxz4258eh7zjoeeukh5igt,M8jR0Pna,2020-0188,2021-10-14,09:10:16,10:53:17,NA,incomplete,false,NA,true,1,1,NA,NA,NA,right,absent,NA,NA,m_s_029.jpg,gray,n_l_047.jpg,gray,within,NA,NaN,NA,right,8529,1,2,1371
M8jR0Pna,3odop6t3bvxisk3y617o3pei3yp24c,32m8bpygaxz4258eh7zjoeeukh5igt,M8jR0Pna,2020-0188,2021-10-14,09:10:16,10:53:17,NA,incomplete,false,NA,true,1,2,NA,NA,NA,left,absent,NA,NA,m_s_032.jpg,yellow,m_l_068.jpg,purple,between,NA,NaN,NA,left,7416,1,2,2435
M8jR0Pna,3odop6t3bvxisk3y617o3pei3yp24c,32m8bpygaxz4258eh7zjoeeukh5igt,M8jR0Pna,2020-0188,2021-10-14,09:10:16,10:53:17,NA,incomplete,false,NA,true,1,3,NA,NA,NA,right,absent,NA,NA,m_s_066.jpg,yellow,n_l_026.jpg,yellow,within,NA,NaN,NA,left,15723,0,1,2000
M8jR0Pna,3odop6t3bvxisk3y617o3pei3yp24c,32m8bpygaxz4258eh7zjoeeukh5igt,M8jR0Pna,2020-0188,2021-10-14,09:10:16,10:53:17,NA,incomplete,false,NA,true,1,4,NA,NA,NA,left,absent,NA,NA,m_l_082.jpg,black,m_s_012.jpg,black,within,NA,NaN,NA,right,11125,0,2,1688
M8jR0Pna,3odop6t3bvxisk3y617o3pei3yp24c,32m8bpygaxz4258eh7zjoeeukh5igt,M8jR0Pna,2020-0188,2021-10-14,09:10:16,10:53:17,NA,incomplete,false,NA,true,1,5,NA,NA,NA,left,absent,NA,NA,m_l_062.jpg,blue,n_s_096.jpg,gray,between,NA,NaN,NA,left,4283,1,2,1183
M8jR0Pna,3odop6t3bvxisk3y617o3pei3yp24c,32m8bpygaxz4258eh7zjoeeukh5igt,M8jR0Pna,2020-0188,2021-10-14,09:10:16,10:53:17,NA,incomplete,false,NA,true,1,6,NA,NA,NA,left,absent,NA,NA,n_s_093.jpg,black,n_l_090.jpg,yellow,between,NA,NaN,NA,left,3826,1,3,1618
M8jR0Pna,3odop6t3bvxisk3y617o3pei3yp24c,32m8bpygaxz4258eh7zjoeeukh5igt,M8jR0Pna,2020-0188,2021-10-14,09:10:16,10:53:17,NA,incomplete,false,NA,true,1,7,NA,NA,NA,left,absent,NA,NA,n_l_109.jpg,gray,m_s_043.jpg,black,between,NA,NaN,NA,right,9339,0,1,1637
M8jR0Pna,3odop6t3bvxisk3y617o3pei3yp24c,32m8bpygaxz4258eh7zjoeeukh5igt,M8jR0Pna,2020-0188,2021-10-14,09:10:16,10:53:17,NA,incomplete,false,NA,true,1,8,NA,NA,NA,right,absent,NA,NA,n_s_071.jpg,blue,m_s_103.jpg,blue,within,NA,NaN,NA,right,6357,1,1,4712
M8jR0Pna,3odop6t3bvxisk3y617o3pei3yp24c,32m8bpygaxz4258eh7zjoeeukh5igt,M8jR0Pna,2020-0188,2021-10-14,09:10:16,10:53:17,NA,incomplete,false,NA,true,1,9,NA,NA,NA,left,absent,NA,NA,n_s_056.jpg,purple,n_s_008.jpg,brown,between,NA,NaN,NA,left,3645,1,1,1504
M8jR0Pna,3odop6t3bvxisk3y617o3pei3yp24c,32m8bpygaxz4258eh7zjoeeukh5igt,M8jR0Pna,2020-0188,2021-10-14,09:10:16,10:53:17,NA,incomplete,false,NA,true,1,10,NA,NA,NA,left,absent,NA,NA,n_s_101.jpg,purple,m_s_041.jpg,purple,within,NA,NaN,NA,left,2908,1,0,1175
M8jR0Pna,3odop6t3bvxisk3y617o3pei3yp24c,32m8bpygaxz4258eh7zjoeeukh5igt,M8jR0Pna,2020-0188,2021-10-14,09:10:16,10:53:17,NA,incomplete,false,true,NA,2,0,NA,orange,n_l_067.jpg,NA,NA,pleasant,unpleasant,NA,NA,NA,NA,NA,left,1449,true,NA,NA,NA,NA,NA
M8jR0Pna,3odop6t3bvxisk3y617o3pei3yp24c,32m8bpygaxz4258eh7zjoeeukh5igt,M8jR0Pna,2020-0188,2021-10-14,09:10:16,10:53:17,NA,incomplete,false,true,NA,2,1,NA,orange,n_s_117.jpg,NA,NA,unpleasant,pleasant,NA,NA,NA,NA,NA,left,1534,true,NA,NA,NA,NA,NA
M8jR0Pna,3odop6t3bvxisk3y617o3pei3yp24c,32m8bpygaxz4258eh7zjoeeukh5igt,M8jR0Pna,2020-0188,2021-10-14,09:10:16,10:53:17,NA,incomplete,false,true,NA,2,2,NA,orange,m_l_083.jpg,NA,NA,pleasant,unpleasant,NA,NA,NA,NA,NA,left,1609,true,NA,NA,NA,NA,NA
M8jR0Pna,3odop6t3bvxisk3y617o3pei3yp24c,32m8bpygaxz4258eh7zjoeeukh5igt,M8jR0Pna,2020-0188,2021-10-14,09:10:16,10:53:17,NA,incomplete,false,true,NA,2,3,NA,orange,n_l_029.jpg,NA,NA,pleasant,unpleasant,NA,NA,NA,NA,NA,right,1409,true,NA,NA,NA,NA,NA
M8jR0Pna,3odop6t3bvxisk3y617o3pei3yp24c,32m8bpygaxz4258eh7zjoeeukh5igt,M8jR0Pna,2020-0188,2021-10-14,09:10:16,10:53:17,NA,incomplete,false,true,NA,2,4,NA,orange,n_l_061.jpg,NA,NA,unpleasant,pleasant,NA,NA,NA,NA,NA,right,1327,true,NA,NA,NA,NA,NA
M8jR0Pna,3odop6t3bvxisk3y617o3pei3yp24c,32m8bpygaxz4258eh7zjoeeukh5igt,M8jR0Pna,2020-0188,2021-10-14,09:10:16,10:53:17,NA,incomplete,false,true,NA,2,5,NA,orange,n_l_019.jpg,NA,NA,pleasant,unpleasant,NA,NA,NA,NA,NA,right,1573,true,NA,NA,NA,NA,NA
M8jR0Pna,3odop6t3bvxisk3y617o3pei3yp24c,32m8bpygaxz4258eh7zjoeeukh5igt,M8jR0Pna,2020-0188,2021-10-14,09:10:16,10:53:17,NA,incomplete,false,true,NA,2,6,NA,red,n_s_043.jpg,NA,NA,unpleasant,pleasant,NA,NA,NA,NA,NA,right,1598,true,NA,NA,NA,NA,NA
M8jR0Pna,3odop6t3bvxisk3y617o3pei3yp24c,32m8bpygaxz4258eh7zjoeeukh5igt,M8jR0Pna,2020-0188,2021-10-14,09:10:16,10:53:17,NA,incomplete,false,true,NA,2,7,NA,red,m_l_039.jpg,NA,NA,unpleasant,pleasant,NA,NA,NA,NA,NA,right,1358,true,NA,NA,NA,NA,NA
M8jR0Pna,3odop6t3bvxisk3y617o3pei3yp24c,32m8bpygaxz4258eh7zjoeeukh5igt,M8jR0Pna,2020-0188,2021-10-14,09:10:16,10:53:17,NA,incomplete,false,true,NA,2,8,NA,red,m_s_083.jpg,NA,NA,pleasant,unpleasant,NA,NA,NA,NA,NA,left,1792,true,NA,NA,NA,NA,NA
M8jR0Pna,3odop6t3bvxisk3y617o3pei3yp24c,32m8bpygaxz4258eh7zjoeeukh5igt,M8jR0Pna,2020-0188,2021-10-14,09:10:16,10:53:17,NA,incomplete,false,true,NA,2,9,NA,red,n_l_081.jpg,NA,NA,unpleasant,pleasant,NA,NA,NA,NA,NA,right,1223,true,NA,NA,NA,NA,NA
M8jR0Pna,3odop6t3bvxisk3y617o3pei3yp24c,32m8bpygaxz4258eh7zjoeeukh5igt,M8jR0Pna,2020-0188,2021-10-14,09:10:16,10:53:17,NA,incomplete,false,true,NA,2,10,NA,red,n_s_034.jpg,NA,NA,pleasant,unpleasant,NA,NA,NA,NA,NA,left,1456,true,NA,NA,NA,NA,NA
M8jR0Pna,3odop6t3bvxisk3y617o3pei3yp24c,32m8bpygaxz4258eh7zjoeeukh5igt,M8jR0Pna,2020-0188,2021-10-14,09:10:16,10:53:17,NA,incomplete,false,true,NA,2,11,NA,red,n_s_085.jpg,NA,NA,pleasant,unpleasant,NA,NA,NA,NA,NA,left,1934,true,NA,NA,NA,NA,NA
M8jR0Pna,3odop6t3bvxisk3y617o3pei3yp24c,32m8bpygaxz4258eh7zjoeeukh5igt,M8jR0Pna,2020-0188,2021-10-14,09:10:16,10:53:17,NA,incomplete,false,true,NA,2,12,NA,yellow,m_s_049.jpg,NA,NA,pleasant,unpleasant,NA,NA,NA,NA,NA,left,1381,true,NA,NA,NA,NA,NA
M8jR0Pna,3odop6t3bvxisk3y617o3pei3yp24c,32m8bpygaxz4258eh7zjoeeukh5igt,M8jR0Pna,2020-0188,2021-10-14,09:10:16,10:53:17,NA,incomplete,false,true,NA,2,13,NA,yellow,n_s_024.jpg,NA,NA,pleasant,unpleasant,NA,NA,NA,NA,NA,right,2004,true,NA,NA,NA,NA,NA
M8jR0Pna,3odop6t3bvxisk3y617o3pei3yp24c,32m8bpygaxz4258eh7zjoeeukh5igt,M8jR0Pna,2020-0188,2021-10-14,09:10:16,10:53:17,NA,incomplete,false,true,NA,2,14,NA,yellow,n_l_024.jpg,NA,NA,pleasant,unpleasant,NA,NA,NA,NA,NA,left,1487,true,NA,NA,NA,NA,NA
M8jR0Pna,3odop6t3bvxisk3y617o3pei3yp24c,32m8bpygaxz4258eh7zjoeeukh5igt,M8jR0Pna,2020-0188,2021-10-14,09:10:16,10:53:17,NA,incomplete,false,true,NA,2,15,NA,yellow,m_l_072.jpg,NA,NA,unpleasant,pleasant,NA,NA,NA,NA,NA,right,1619,true,NA,NA,NA,NA,NA
M8jR0Pna,3odop6t3bvxisk3y617o3pei3yp24c,32m8bpygaxz4258eh7zjoeeukh5igt,M8jR0Pna,2020-0188,2021-10-14,09:10:16,10:53:17,NA,incomplete,false,true,NA,2,16,NA,yellow,m_l_007.jpg,NA,NA,unpleasant,pleasant,NA,NA,NA,NA,NA,left,1761,true,NA,NA,NA,NA,NA
M8jR0Pna,3odop6t3bvxisk3y617o3pei3yp24c,32m8bpygaxz4258eh7zjoeeukh5igt,M8jR0Pna,2020-0188,2021-10-14,09:10:16,10:53:17,NA,incomplete,false,true,NA,2,17,NA,yellow,n_s_102.jpg,NA,NA,unpleasant,pleasant,NA,NA,NA,NA,NA,right,1242,true,NA,NA,NA,NA,NA
M8jR0Pna,3odop6t3bvxisk3y617o3pei3yp24c,32m8bpygaxz4258eh7zjoeeukh5igt,M8jR0Pna,2020-0188,2021-10-14,09:10:16,10:53:17,NA,incomplete,false,true,NA,2,18,NA,gray,m_l_023.jpg,NA,NA,pleasant,unpleasant,NA,NA,NA,NA,NA,left,1388,true,NA,NA,NA,NA,NA
M8jR0Pna,3odop6t3bvxisk3y617o3pei3yp24c,32m8bpygaxz4258eh7zjoeeukh5igt,M8jR0Pna,2020-0188,2021-10-14,09:10:16,10:53:17,NA,incomplete,false,true,NA,2,19,NA,gray,m_l_096.jpg,NA,NA,unpleasant,pleasant,NA,NA,NA,NA,NA,right,1746,true,NA,NA,NA,NA,NA
M8jR0Pna,3odop6t3bvxisk3y617o3pei3yp24c,32m8bpygaxz4258eh7zjoeeukh5igt,M8jR0Pna,2020-0188,2021-10-14,09:10:16,10:53:17,NA,incomplete,false,true,NA,2,20,NA,gray,n_s_079.jpg,NA,NA,unpleasant,pleasant,NA,NA,NA,NA,NA,right,1846,true,NA,NA,NA,NA,NA
M8jR0Pna,3odop6t3bvxisk3y617o3pei3yp24c,32m8bpygaxz4258eh7zjoeeukh5igt,M8jR0Pna,2020-0188,2021-10-14,09:10:16,10:53:17,NA,incomplete,false,true,NA,2,21,NA,gray,m_s_074.jpg,NA,NA,unpleasant,pleasant,NA,NA,NA,NA,NA,right,1967,true,NA,NA,NA,NA,NA
M8jR0Pna,3odop6t3bvxisk3y617o3pei3yp24c,32m8bpygaxz4258eh7zjoeeukh5igt,M8jR0Pna,2020-0188,2021-10-14,09:10:16,10:53:17,NA,incomplete,false,true,NA,2,22,NA,gray,m_s_031.jpg,NA,NA,unpleasant,pleasant,NA,NA,NA,NA,NA,right,2133,true,NA,NA,NA,NA,NA
M8jR0Pna,3odop6t3bvxisk3y617o3pei3yp24c,32m8bpygaxz4258eh7zjoeeukh5igt,M8jR0Pna,2020-0188,2021-10-14,09:10:16,10:53:17,NA,incomplete,false,true,NA,2,23,NA,gray,m_l_001.jpg,NA,NA,unpleasant,pleasant,NA,NA,NA,NA,NA,left,1711,true,NA,NA,NA,NA,NA
M8jR0Pna,3odop6t3bvxisk3y617o3pei3yp24c,32m8bpygaxz4258eh7zjoeeukh5igt,M8jR0Pna,2020-0188,2021-10-14,09:10:16,10:53:17,NA,incomplete,false,true,NA,2,24,NA,black,m_l_037.jpg,NA,NA,pleasant,unpleasant,NA,NA,NA,NA,NA,left,1703,true,NA,NA,NA,NA,NA
M8jR0Pna,3odop6t3bvxisk3y617o3pei3yp24c,32m8bpygaxz4258eh7zjoeeukh5igt,M8jR0Pna,2020-0188,2021-10-14,09:10:16,10:53:17,NA,incomplete,false,true,NA,2,25,NA,black,n_s_045.jpg,NA,NA,pleasant,unpleasant,NA,NA,NA,NA,NA,left,1509,true,NA,NA,NA,NA,NA
M8jR0Pna,3odop6t3bvxisk3y617o3pei3yp24c,32m8bpygaxz4258eh7zjoeeukh5igt,M8jR0Pna,2020-0188,2021-10-14,09:10:16,10:53:17,NA,incomplete,false,true,NA,2,26,NA,black,m_s_065.jpg,NA,NA,pleasant,unpleasant,NA,NA,NA,NA,NA,left,1317,true,NA,NA,NA,NA,NA
M8jR0Pna,3odop6t3bvxisk3y617o3pei3yp24c,32m8bpygaxz4258eh7zjoeeukh5igt,M8jR0Pna,2020-0188,2021-10-14,09:10:16,10:53:17,NA,incomplete,false,true,NA,2,27,NA,black,n_s_072.jpg,NA,NA,pleasant,unpleasant,NA,NA,NA,NA,NA,left,1537,true,NA,NA,NA,NA,NA
M8jR0Pna,3odop6t3bvxisk3y617o3pei3yp24c,32m8bpygaxz4258eh7zjoeeukh5igt,M8jR0Pna,2020-0188,2021-10-14,09:10:16,10:53:17,NA,incomplete,false,true,NA,2,28,NA,black,n_l_042.jpg,NA,NA,pleasant,unpleasant,NA,NA,NA,NA,NA,left,1402,true,NA,NA,NA,NA,NA
M8jR0Pna,3odop6t3bvxisk3y617o3pei3yp24c,32m8bpygaxz4258eh7zjoeeukh5igt,M8jR0Pna,2020-0188,2021-10-14,09:10:16,10:53:17,NA,incomplete,false,true,NA,2,29,NA,black,n_s_073.jpg,NA,NA,unpleasant,pleasant,NA,NA,NA,NA,NA,right,1752,true,NA,NA,NA,NA,NA
M8jR0Pna,3odop6t3bvxisk3y617o3pei3yp24c,32m8bpygaxz4258eh7zjoeeukh5igt,M8jR0Pna,2020-0188,2021-10-14,09:10:16,10:53:17,NA,incomplete,false,true,NA,2,30,NA,purple,m_l_070.jpg,NA,NA,unpleasant,pleasant,NA,NA,NA,NA,NA,left,1665,true,NA,NA,NA,NA,NA
M8jR0Pna,3odop6t3bvxisk3y617o3pei3yp24c,32m8bpygaxz4258eh7zjoeeukh5igt,M8jR0Pna,2020-0188,2021-10-14,09:10:16,10:53:17,NA,incomplete,false,true,NA,2,31,NA,purple,m_l_003.jpg,NA,NA,unpleasant,pleasant,NA,NA,NA,NA,NA,right,1120,true,NA,NA,NA,NA,NA
M8jR0Pna,3odop6t3bvxisk3y617o3pei3yp24c,32m8bpygaxz4258eh7zjoeeukh5igt,M8jR0Pna,2020-0188,2021-10-14,09:10:16,10:53:17,NA,incomplete,false,true,NA,2,32,NA,purple,m_s_104.jpg,NA,NA,pleasant,unpleasant,NA,NA,NA,NA,NA,left,1543,true,NA,NA,NA,NA,NA
M8jR0Pna,3odop6t3bvxisk3y617o3pei3yp24c,32m8bpygaxz4258eh7zjoeeukh5igt,M8jR0Pna,2020-0188,2021-10-14,09:10:16,10:53:17,NA,incomplete,false,true,NA,2,33,NA,purple,m_l_041.jpg,NA,NA,pleasant,unpleasant,NA,NA,NA,NA,NA,right,1410,true,NA,NA,NA,NA,NA
M8jR0Pna,3odop6t3bvxisk3y617o3pei3yp24c,32m8bpygaxz4258eh7zjoeeukh5igt,M8jR0Pna,2020-0188,2021-10-14,09:10:16,10:53:17,NA,incomplete,false,true,NA,2,34,NA,purple,n_l_009.jpg,NA,NA,unpleasant,pleasant,NA,NA,NA,NA,NA,right,1225,true,NA,NA,NA,NA,NA
M8jR0Pna,3odop6t3bvxisk3y617o3pei3yp24c,32m8bpygaxz4258eh7zjoeeukh5igt,M8jR0Pna,2020-0188,2021-10-14,09:10:16,10:53:17,NA,incomplete,false,true,NA,2,35,NA,purple,m_l_010.jpg,NA,NA,pleasant,unpleasant,NA,NA,NA,NA,NA,left,1175,true,NA,NA,NA,NA,NA
M8jR0Pna,3odop6t3bvxisk3y617o3pei3yp24c,32m8bpygaxz4258eh7zjoeeukh5igt,M8jR0Pna,2020-0188,2021-10-14,09:10:16,10:53:17,NA,incomplete,false,NA,true,2,0,NA,NA,NA,left,absent,NA,NA,n_s_045.jpg,black,n_s_073.jpg,black,within,NA,NaN,NA,left,25472,1,2,1791
M8jR0Pna,3odop6t3bvxisk3y617o3pei3yp24c,32m8bpygaxz4258eh7zjoeeukh5igt,M8jR0Pna,2020-0188,2021-10-14,09:10:16,10:53:17,NA,incomplete,false,NA,true,2,1,NA,NA,NA,left,absent,NA,NA,n_l_061.jpg,orange,m_s_083.jpg,red,between,NA,NaN,NA,left,5778,1,2,1657
M8jR0Pna,3odop6t3bvxisk3y617o3pei3yp24c,32m8bpygaxz4258eh7zjoeeukh5igt,M8jR0Pna,2020-0188,2021-10-14,09:10:16,10:53:17,NA,incomplete,false,NA,true,2,2,NA,NA,NA,right,absent,NA,NA,m_l_010.jpg,purple,m_l_003.jpg,purple,within,NA,NaN,NA,left,50031,0,2,1764
M8jR0Pna,3odop6t3bvxisk3y617o3pei3yp24c,32m8bpygaxz4258eh7zjoeeukh5igt,M8jR0Pna,2020-0188,2021-10-14,09:10:16,10:53:17,NA,incomplete,false,NA,true,2,3,NA,NA,NA,left,absent,NA,NA,n_s_117.jpg,orange,n_l_019.jpg,orange,within,NA,NaN,NA,left,74651,1,1,1692
M8jR0Pna,3odop6t3bvxisk3y617o3pei3yp24c,32m8bpygaxz4258eh7zjoeeukh5igt,M8jR0Pna,2020-0188,2021-10-14,09:10:16,10:53:17,NA,incomplete,false,NA,true,2,4,NA,NA,NA,right,absent,NA,NA,m_l_001.jpg,gray,m_l_096.jpg,gray,within,NA,NaN,NA,left,4013,0,2,1415
M8jR0Pna,3odop6t3bvxisk3y617o3pei3yp24c,32m8bpygaxz4258eh7zjoeeukh5igt,M8jR0Pna,2020-0188,2021-10-14,09:10:16,10:53:17,NA,incomplete,false,NA,true,2,5,NA,NA,NA,left,absent,NA,NA,m_s_031.jpg,gray,m_s_065.jpg,black,between,NA,NaN,NA,left,18303,1,2,1953
M8jR0Pna,3odop6t3bvxisk3y617o3pei3yp24c,32m8bpygaxz4258eh7zjoeeukh5igt,M8jR0Pna,2020-0188,2021-10-14,09:10:16,10:53:17,NA,incomplete,false,NA,true,2,6,NA,NA,NA,left,absent,NA,NA,m_l_007.jpg,yellow,n_s_079.jpg,gray,between,NA,NaN,NA,left,2198,1,3,1716
M8jR0Pna,3odop6t3bvxisk3y617o3pei3yp24c,32m8bpygaxz4258eh7zjoeeukh5igt,M8jR0Pna,2020-0188,2021-10-14,09:10:16,10:53:17,NA,incomplete,false,NA,true,2,7,NA,NA,NA,right,absent,NA,NA,n_l_024.jpg,yellow,n_s_034.jpg,red,between,NA,NaN,NA,right,2939,1,2,1030
M8jR0Pna,3odop6t3bvxisk3y617o3pei3yp24c,32m8bpygaxz4258eh7zjoeeukh5igt,M8jR0Pna,2020-0188,2021-10-14,09:10:16,10:53:17,NA,incomplete,false,NA,true,2,8,NA,NA,NA,right,absent,NA,NA,n_s_102.jpg,yellow,n_s_024.jpg,yellow,within,NA,NaN,NA,left,2544,0,1,997
M8jR0Pna,3odop6t3bvxisk3y617o3pei3yp24c,32m8bpygaxz4258eh7zjoeeukh5igt,M8jR0Pna,2020-0188,2021-10-14,09:10:16,10:53:17,NA,incomplete,false,NA,true,2,9,NA,NA,NA,left,absent,NA,NA,n_l_042.jpg,black,m_s_104.jpg,purple,between,NA,NaN,NA,left,3134,1,1,1379
M8jR0Pna,3odop6t3bvxisk3y617o3pei3yp24c,32m8bpygaxz4258eh7zjoeeukh5igt,M8jR0Pna,2020-0188,2021-10-14,09:10:16,10:53:17,NA,incomplete,false,NA,true,2,10,NA,NA,NA,right,absent,NA,NA,n_s_085.jpg,red,m_l_039.jpg,red,within,NA,NaN,NA,right,7561,1,0,1724
M8jR0Pna,3odop6t3bvxisk3y617o3pei3yp24c,32m8bpygaxz4258eh7zjoeeukh5igt,M8jR0Pna,2020-0188,2021-10-14,09:10:16,10:53:17,NA,incomplete,false,true,NA,3,0,NA,brown,n_l_103.jpg,NA,NA,unpleasant,pleasant,NA,NA,NA,NA,NA,left,1953,true,NA,NA,NA,NA,NA
M8jR0Pna,3odop6t3bvxisk3y617o3pei3yp24c,32m8bpygaxz4258eh7zjoeeukh5igt,M8jR0Pna,2020-0188,2021-10-14,09:10:16,10:53:17,NA,incomplete,false,true,NA,3,1,NA,brown,n_s_060.jpg,NA,NA,unpleasant,pleasant,NA,NA,NA,NA,NA,right,1261,true,NA,NA,NA,NA,NA
M8jR0Pna,3odop6t3bvxisk3y617o3pei3yp24c,32m8bpygaxz4258eh7zjoeeukh5igt,M8jR0Pna,2020-0188,2021-10-14,09:10:16,10:53:17,NA,incomplete,false,true,NA,3,2,NA,brown,m_l_088.jpg,NA,NA,pleasant,unpleasant,NA,NA,NA,NA,NA,left,1537,true,NA,NA,NA,NA,NA
M8jR0Pna,3odop6t3bvxisk3y617o3pei3yp24c,32m8bpygaxz4258eh7zjoeeukh5igt,M8jR0Pna,2020-0188,2021-10-14,09:10:16,10:53:17,NA,incomplete,false,true,NA,3,3,NA,brown,m_s_100.jpg,NA,NA,unpleasant,pleasant,NA,NA,NA,NA,NA,right,1611,true,NA,NA,NA,NA,NA
M8jR0Pna,3odop6t3bvxisk3y617o3pei3yp24c,32m8bpygaxz4258eh7zjoeeukh5igt,M8jR0Pna,2020-0188,2021-10-14,09:10:16,10:53:17,NA,incomplete,false,true,NA,3,4,NA,brown,m_l_106.jpg,NA,NA,unpleasant,pleasant,NA,NA,NA,NA,NA,right,1328,true,NA,NA,NA,NA,NA
M8jR0Pna,3odop6t3bvxisk3y617o3pei3yp24c,32m8bpygaxz4258eh7zjoeeukh5igt,M8jR0Pna,2020-0188,2021-10-14,09:10:16,10:53:17,NA,incomplete,false,true,NA,3,5,NA,brown,m_s_058.jpg,NA,NA,unpleasant,pleasant,NA,NA,NA,NA,NA,right,2617,true,NA,NA,NA,NA,NA
M8jR0Pna,3odop6t3bvxisk3y617o3pei3yp24c,32m8bpygaxz4258eh7zjoeeukh5igt,M8jR0Pna,2020-0188,2021-10-14,09:10:16,10:53:17,NA,incomplete,false,true,NA,3,6,NA,green,m_s_062.jpg,NA,NA,pleasant,unpleasant,NA,NA,NA,NA,NA,left,1427,true,NA,NA,NA,NA,NA
M8jR0Pna,3odop6t3bvxisk3y617o3pei3yp24c,32m8bpygaxz4258eh7zjoeeukh5igt,M8jR0Pna,2020-0188,2021-10-14,09:10:16,10:53:17,NA,incomplete,false,true,NA,3,7,NA,green,n_l_071.jpg,NA,NA,unpleasant,pleasant,NA,NA,NA,NA,NA,left,2206,true,NA,NA,NA,NA,NA
M8jR0Pna,3odop6t3bvxisk3y617o3pei3yp24c,32m8bpygaxz4258eh7zjoeeukh5igt,M8jR0Pna,2020-0188,2021-10-14,09:10:16,10:53:17,NA,incomplete,false,true,NA,3,8,NA,green,n_s_047.jpg,NA,NA,unpleasant,pleasant,NA,NA,NA,NA,NA,left,2087,true,NA,NA,NA,NA,NA
M8jR0Pna,3odop6t3bvxisk3y617o3pei3yp24c,32m8bpygaxz4258eh7zjoeeukh5igt,M8jR0Pna,2020-0188,2021-10-14,09:10:16,10:53:17,NA,incomplete,false,true,NA,3,9,NA,green,m_s_108.jpg,NA,NA,pleasant,unpleasant,NA,NA,NA,NA,NA,none,0,false,NA,NA,NA,NA,NA
M8jR0Pna,3odop6t3bvxisk3y617o3pei3yp24c,32m8bpygaxz4258eh7zjoeeukh5igt,M8jR0Pna,2020-0188,2021-10-14,09:10:16,10:53:17,NA,incomplete,false,true,NA,3,10,NA,green,n_s_061.jpg,NA,NA,unpleasant,pleasant,NA,NA,NA,NA,NA,right,1762,true,NA,NA,NA,NA,NA
M8jR0Pna,3odop6t3bvxisk3y617o3pei3yp24c,32m8bpygaxz4258eh7zjoeeukh5igt,M8jR0Pna,2020-0188,2021-10-14,09:10:16,10:53:17,NA,incomplete,false,true,NA,3,11,NA,green,m_l_013.jpg,NA,NA,pleasant,unpleasant,NA,NA,NA,NA,NA,left,1604,true,NA,NA,NA,NA,NA
M8jR0Pna,3odop6t3bvxisk3y617o3pei3yp24c,32m8bpygaxz4258eh7zjoeeukh5igt,M8jR0Pna,2020-0188,2021-10-14,09:10:16,10:53:17,NA,incomplete,false,true,NA,3,12,NA,purple,m_s_025.jpg,NA,NA,pleasant,unpleasant,NA,NA,NA,NA,NA,left,1812,true,NA,NA,NA,NA,NA
M8jR0Pna,3odop6t3bvxisk3y617o3pei3yp24c,32m8bpygaxz4258eh7zjoeeukh5igt,M8jR0Pna,2020-0188,2021-10-14,09:10:16,10:53:17,NA,incomplete,false,true,NA,3,13,NA,purple,m_s_019.jpg,NA,NA,pleasant,unpleasant,NA,NA,NA,NA,NA,left,1443,true,NA,NA,NA,NA,NA
M8jR0Pna,3odop6t3bvxisk3y617o3pei3yp24c,32m8bpygaxz4258eh7zjoeeukh5igt,M8jR0Pna,2020-0188,2021-10-14,09:10:16,10:53:17,NA,incomplete,false,true,NA,3,14,NA,purple,n_l_080.jpg,NA,NA,unpleasant,pleasant,NA,NA,NA,NA,NA,right,1328,true,NA,NA,NA,NA,NA
M8jR0Pna,3odop6t3bvxisk3y617o3pei3yp24c,32m8bpygaxz4258eh7zjoeeukh5igt,M8jR0Pna,2020-0188,2021-10-14,09:10:16,10:53:17,NA,incomplete,false,true,NA,3,15,NA,purple,m_l_077.jpg,NA,NA,pleasant,unpleasant,NA,NA,NA,NA,NA,right,1729,true,NA,NA,NA,NA,NA
M8jR0Pna,3odop6t3bvxisk3y617o3pei3yp24c,32m8bpygaxz4258eh7zjoeeukh5igt,M8jR0Pna,2020-0188,2021-10-14,09:10:16,10:53:17,NA,incomplete,false,true,NA,3,16,NA,purple,n_s_069.jpg,NA,NA,pleasant,unpleasant,NA,NA,NA,NA,NA,left,1330,true,NA,NA,NA,NA,NA
M8jR0Pna,3odop6t3bvxisk3y617o3pei3yp24c,32m8bpygaxz4258eh7zjoeeukh5igt,M8jR0Pna,2020-0188,2021-10-14,09:10:16,10:53:17,NA,incomplete,false,true,NA,3,17,NA,purple,n_l_091.jpg,NA,NA,unpleasant,pleasant,NA,NA,NA,NA,NA,right,1538,true,NA,NA,NA,NA,NA
M8jR0Pna,3odop6t3bvxisk3y617o3pei3yp24c,32m8bpygaxz4258eh7zjoeeukh5igt,M8jR0Pna,2020-0188,2021-10-14,09:10:16,10:53:17,NA,incomplete,false,true,NA,3,18,NA,white,n_s_063.jpg,NA,NA,pleasant,unpleasant,NA,NA,NA,NA,NA,left,1430,true,NA,NA,NA,NA,NA
M8jR0Pna,3odop6t3bvxisk3y617o3pei3yp24c,32m8bpygaxz4258eh7zjoeeukh5igt,M8jR0Pna,2020-0188,2021-10-14,09:10:16,10:53:17,NA,incomplete,false,true,NA,3,19,NA,white,m_s_060.jpg,NA,NA,unpleasant,pleasant,NA,NA,NA,NA,NA,right,1449,true,NA,NA,NA,NA,NA
M8jR0Pna,3odop6t3bvxisk3y617o3pei3yp24c,32m8bpygaxz4258eh7zjoeeukh5igt,M8jR0Pna,2020-0188,2021-10-14,09:10:16,10:53:17,NA,incomplete,false,true,NA,3,20,NA,white,m_s_073.jpg,NA,NA,pleasant,unpleasant,NA,NA,NA,NA,NA,left,1468,true,NA,NA,NA,NA,NA
M8jR0Pna,3odop6t3bvxisk3y617o3pei3yp24c,32m8bpygaxz4258eh7zjoeeukh5igt,M8jR0Pna,2020-0188,2021-10-14,09:10:16,10:53:17,NA,incomplete,false,true,NA,3,21,NA,white,m_s_053.jpg,NA,NA,unpleasant,pleasant,NA,NA,NA,NA,NA,right,2126,true,NA,NA,NA,NA,NA
M8jR0Pna,3odop6t3bvxisk3y617o3pei3yp24c,32m8bpygaxz4258eh7zjoeeukh5igt,M8jR0Pna,2020-0188,2021-10-14,09:10:16,10:53:17,NA,incomplete,false,true,NA,3,22,NA,white,n_l_106.jpg,NA,NA,unpleasant,pleasant,NA,NA,NA,NA,NA,left,1373,true,NA,NA,NA,NA,NA
M8jR0Pna,3odop6t3bvxisk3y617o3pei3yp24c,32m8bpygaxz4258eh7zjoeeukh5igt,M8jR0Pna,2020-0188,2021-10-14,09:10:16,10:53:17,NA,incomplete,false,true,NA,3,23,NA,white,n_l_070.jpg,NA,NA,pleasant,unpleasant,NA,NA,NA,NA,NA,right,1529,true,NA,NA,NA,NA,NA
M8jR0Pna,3odop6t3bvxisk3y617o3pei3yp24c,32m8bpygaxz4258eh7zjoeeukh5igt,M8jR0Pna,2020-0188,2021-10-14,09:10:16,10:53:17,NA,incomplete,false,true,NA,3,24,NA,blue,n_l_031.jpg,NA,NA,pleasant,unpleasant,NA,NA,NA,NA,NA,left,1360,true,NA,NA,NA,NA,NA
M8jR0Pna,3odop6t3bvxisk3y617o3pei3yp24c,32m8bpygaxz4258eh7zjoeeukh5igt,M8jR0Pna,2020-0188,2021-10-14,09:10:16,10:53:17,NA,incomplete,false,true,NA,3,25,NA,blue,m_l_114.jpg,NA,NA,pleasant,unpleasant,NA,NA,NA,NA,NA,left,1627,true,NA,NA,NA,NA,NA
M8jR0Pna,3odop6t3bvxisk3y617o3pei3yp24c,32m8bpygaxz4258eh7zjoeeukh5igt,M8jR0Pna,2020-0188,2021-10-14,09:10:16,10:53:17,NA,incomplete,false,true,NA,3,26,NA,blue,m_l_063.jpg,NA,NA,pleasant,unpleasant,NA,NA,NA,NA,NA,left,1756,true,NA,NA,NA,NA,NA
M8jR0Pna,3odop6t3bvxisk3y617o3pei3yp24c,32m8bpygaxz4258eh7zjoeeukh5igt,M8jR0Pna,2020-0188,2021-10-14,09:10:16,10:53:17,NA,incomplete,false,true,NA,3,27,NA,blue,m_l_012.jpg,NA,NA,pleasant,unpleasant,NA,NA,NA,NA,NA,right,1469,true,NA,NA,NA,NA,NA
M8jR0Pna,3odop6t3bvxisk3y617o3pei3yp24c,32m8bpygaxz4258eh7zjoeeukh5igt,M8jR0Pna,2020-0188,2021-10-14,09:10:16,10:53:17,NA,incomplete,false,true,NA,3,28,NA,blue,m_l_087.jpg,NA,NA,pleasant,unpleasant,NA,NA,NA,NA,NA,left,1364,true,NA,NA,NA,NA,NA
M8jR0Pna,3odop6t3bvxisk3y617o3pei3yp24c,32m8bpygaxz4258eh7zjoeeukh5igt,M8jR0Pna,2020-0188,2021-10-14,09:10:16,10:53:17,NA,incomplete,false,true,NA,3,29,NA,blue,m_l_032.jpg,NA,NA,unpleasant,pleasant,NA,NA,NA,NA,NA,right,1366,true,NA,NA,NA,NA,NA
M8jR0Pna,3odop6t3bvxisk3y617o3pei3yp24c,32m8bpygaxz4258eh7zjoeeukh5igt,M8jR0Pna,2020-0188,2021-10-14,09:10:16,10:53:17,NA,incomplete,false,true,NA,3,30,NA,red,n_s_011.jpg,NA,NA,unpleasant,pleasant,NA,NA,NA,NA,NA,right,1502,true,NA,NA,NA,NA,NA
M8jR0Pna,3odop6t3bvxisk3y617o3pei3yp24c,32m8bpygaxz4258eh7zjoeeukh5igt,M8jR0Pna,2020-0188,2021-10-14,09:10:16,10:53:17,NA,incomplete,false,true,NA,3,31,NA,red,n_l_039.jpg,NA,NA,unpleasant,pleasant,NA,NA,NA,NA,NA,right,1164,true,NA,NA,NA,NA,NA
M8jR0Pna,3odop6t3bvxisk3y617o3pei3yp24c,32m8bpygaxz4258eh7zjoeeukh5igt,M8jR0Pna,2020-0188,2021-10-14,09:10:16,10:53:17,NA,incomplete,false,true,NA,3,32,NA,red,m_l_078.jpg,NA,NA,unpleasant,pleasant,NA,NA,NA,NA,NA,right,1317,true,NA,NA,NA,NA,NA
M8jR0Pna,3odop6t3bvxisk3y617o3pei3yp24c,32m8bpygaxz4258eh7zjoeeukh5igt,M8jR0Pna,2020-0188,2021-10-14,09:10:16,10:53:17,NA,incomplete,false,true,NA,3,33,NA,red,m_l_056.jpg,NA,NA,unpleasant,pleasant,NA,NA,NA,NA,NA,right,1259,true,NA,NA,NA,NA,NA
M8jR0Pna,3odop6t3bvxisk3y617o3pei3yp24c,32m8bpygaxz4258eh7zjoeeukh5igt,M8jR0Pna,2020-0188,2021-10-14,09:10:16,10:53:17,NA,incomplete,false,true,NA,3,34,NA,red,m_l_107.jpg,NA,NA,unpleasant,pleasant,NA,NA,NA,NA,NA,left,1448,true,NA,NA,NA,NA,NA
M8jR0Pna,3odop6t3bvxisk3y617o3pei3yp24c,32m8bpygaxz4258eh7zjoeeukh5igt,M8jR0Pna,2020-0188,2021-10-14,09:10:16,10:53:17,NA,incomplete,false,true,NA,3,35,NA,red,n_l_025.jpg,NA,NA,pleasant,unpleasant,NA,NA,NA,NA,NA,right,1383,true,NA,NA,NA,NA,NA
M8jR0Pna,3odop6t3bvxisk3y617o3pei3yp24c,32m8bpygaxz4258eh7zjoeeukh5igt,M8jR0Pna,2020-0188,2021-10-14,09:10:16,10:53:17,NA,incomplete,false,NA,true,3,0,NA,NA,NA,right,absent,NA,NA,m_s_058.jpg,brown,n_s_060.jpg,brown,within,NA,NaN,NA,left,10200,0,2,1477
M8jR0Pna,3odop6t3bvxisk3y617o3pei3yp24c,32m8bpygaxz4258eh7zjoeeukh5igt,M8jR0Pna,2020-0188,2021-10-14,09:10:16,10:53:17,NA,incomplete,false,NA,true,3,1,NA,NA,NA,right,absent,NA,NA,m_s_073.jpg,white,n_s_069.jpg,purple,between,NA,NaN,NA,left,36334,0,2,1407
M8jR0Pna,3odop6t3bvxisk3y617o3pei3yp24c,32m8bpygaxz4258eh7zjoeeukh5igt,M8jR0Pna,2020-0188,2021-10-14,09:10:16,10:53:17,NA,incomplete,false,NA,true,3,2,NA,NA,NA,right,absent,NA,NA,n_l_070.jpg,white,m_s_060.jpg,white,within,NA,NaN,NA,left,25431,0,1,1662
M8jR0Pna,3odop6t3bvxisk3y617o3pei3yp24c,32m8bpygaxz4258eh7zjoeeukh5igt,M8jR0Pna,2020-0188,2021-10-14,09:10:16,10:53:17,NA,incomplete,false,NA,true,3,3,NA,NA,NA,left,absent,NA,NA,m_s_019.jpg,purple,n_l_091.jpg,purple,within,NA,NaN,NA,left,13702,1,2,1540
M8jR0Pna,3odop6t3bvxisk3y617o3pei3yp24c,32m8bpygaxz4258eh7zjoeeukh5igt,M8jR0Pna,2020-0188,2021-10-14,09:10:16,10:53:17,NA,incomplete,false,NA,true,3,4,NA,NA,NA,right,absent,NA,NA,m_l_063.jpg,blue,n_l_106.jpg,white,between,NA,NaN,NA,right,3862,1,2,1502
M8jR0Pna,3odop6t3bvxisk3y617o3pei3yp24c,32m8bpygaxz4258eh7zjoeeukh5igt,M8jR0Pna,2020-0188,2021-10-14,09:10:16,10:53:17,NA,incomplete,false,NA,true,3,5,NA,NA,NA,left,absent,NA,NA,m_l_087.jpg,blue,m_l_078.jpg,red,between,NA,NaN,NA,left,2700,1,1,1363
M8jR0Pna,3odop6t3bvxisk3y617o3pei3yp24c,32m8bpygaxz4258eh7zjoeeukh5igt,M8jR0Pna,2020-0188,2021-10-14,09:10:16,10:53:17,NA,incomplete,false,NA,true,3,6,NA,NA,NA,left,absent,NA,NA,m_l_114.jpg,blue,m_l_032.jpg,blue,within,NA,NaN,NA,left,2393,1,2,1333
M8jR0Pna,3odop6t3bvxisk3y617o3pei3yp24c,32m8bpygaxz4258eh7zjoeeukh5igt,M8jR0Pna,2020-0188,2021-10-14,09:10:16,10:53:17,NA,incomplete,false,NA,true,3,7,NA,NA,NA,right,absent,NA,NA,n_l_025.jpg,red,n_l_039.jpg,red,within,NA,NaN,NA,left,59938,0,2,1028
M8jR0Pna,3odop6t3bvxisk3y617o3pei3yp24c,32m8bpygaxz4258eh7zjoeeukh5igt,M8jR0Pna,2020-0188,2021-10-14,09:10:16,10:53:17,NA,incomplete,false,NA,true,3,8,NA,NA,NA,right,absent,NA,NA,n_l_080.jpg,purple,n_s_061.jpg,green,between,NA,NaN,NA,left,3655,0,2,1849
M8jR0Pna,3odop6t3bvxisk3y617o3pei3yp24c,32m8bpygaxz4258eh7zjoeeukh5igt,M8jR0Pna,2020-0188,2021-10-14,09:10:16,10:53:17,NA,incomplete,false,NA,true,3,9,NA,NA,NA,left,absent,NA,NA,m_l_106.jpg,brown,n_s_047.jpg,green,between,NA,NaN,NA,right,2763,0,3,2642
M8jR0Pna,3odop6t3bvxisk3y617o3pei3yp24c,32m8bpygaxz4258eh7zjoeeukh5igt,M8jR0Pna,2020-0188,2021-10-14,09:10:16,10:53:17,NA,incomplete,false,NA,true,3,10,NA,NA,NA,left,absent,NA,NA,n_l_071.jpg,green,m_l_013.jpg,green,within,NA,NaN,NA,left,53813,1,0,1262
M8jR0Pna,3odop6t3bvxisk3y617o3pei3yp24c,32m8bpygaxz4258eh7zjoeeukh5igt,M8jR0Pna,2020-0188,2021-10-14,09:10:16,10:53:17,NA,incomplete,false,true,NA,4,0,NA,orange,n_l_002.jpg,NA,NA,unpleasant,pleasant,NA,NA,NA,NA,NA,right,1923,true,NA,NA,NA,NA,NA
M8jR0Pna,3odop6t3bvxisk3y617o3pei3yp24c,32m8bpygaxz4258eh7zjoeeukh5igt,M8jR0Pna,2020-0188,2021-10-14,09:10:16,10:53:17,NA,incomplete,false,true,NA,4,1,NA,orange,n_l_062.jpg,NA,NA,unpleasant,pleasant,NA,NA,NA,NA,NA,left,1763,true,NA,NA,NA,NA,NA
M8jR0Pna,3odop6t3bvxisk3y617o3pei3yp24c,32m8bpygaxz4258eh7zjoeeukh5igt,M8jR0Pna,2020-0188,2021-10-14,09:10:16,10:53:17,NA,incomplete,false,true,NA,4,2,NA,orange,n_s_106.jpg,NA,NA,pleasant,unpleasant,NA,NA,NA,NA,NA,left,1496,true,NA,NA,NA,NA,NA
M8jR0Pna,3odop6t3bvxisk3y617o3pei3yp24c,32m8bpygaxz4258eh7zjoeeukh5igt,M8jR0Pna,2020-0188,2021-10-14,09:10:16,10:53:17,NA,incomplete,false,true,NA,4,3,NA,orange,n_l_099.jpg,NA,NA,pleasant,unpleasant,NA,NA,NA,NA,NA,right,1736,true,NA,NA,NA,NA,NA
M8jR0Pna,3odop6t3bvxisk3y617o3pei3yp24c,32m8bpygaxz4258eh7zjoeeukh5igt,M8jR0Pna,2020-0188,2021-10-14,09:10:16,10:53:17,NA,incomplete,false,true,NA,4,4,NA,orange,m_l_026.jpg,NA,NA,unpleasant,pleasant,NA,NA,NA,NA,NA,right,1654,true,NA,NA,NA,NA,NA
M8jR0Pna,3odop6t3bvxisk3y617o3pei3yp24c,32m8bpygaxz4258eh7zjoeeukh5igt,M8jR0Pna,2020-0188,2021-10-14,09:10:16,10:53:17,NA,incomplete,false,true,NA,4,5,NA,orange,m_s_063.jpg,NA,NA,pleasant,unpleasant,NA,NA,NA,NA,NA,left,1572,true,NA,NA,NA,NA,NA
M8jR0Pna,3odop6t3bvxisk3y617o3pei3yp24c,32m8bpygaxz4258eh7zjoeeukh5igt,M8jR0Pna,2020-0188,2021-10-14,09:10:16,10:53:17,NA,incomplete,false,true,NA,4,6,NA,yellow,m_s_095.jpg,NA,NA,pleasant,unpleasant,NA,NA,NA,NA,NA,left,2144,true,NA,NA,NA,NA,NA
M8jR0Pna,3odop6t3bvxisk3y617o3pei3yp24c,32m8bpygaxz4258eh7zjoeeukh5igt,M8jR0Pna,2020-0188,2021-10-14,09:10:16,10:53:17,NA,incomplete,false,true,NA,4,7,NA,yellow,m_l_064.jpg,NA,NA,pleasant,unpleasant,NA,NA,NA,NA,NA,left,1373,true,NA,NA,NA,NA,NA
M8jR0Pna,3odop6t3bvxisk3y617o3pei3yp24c,32m8bpygaxz4258eh7zjoeeukh5igt,M8jR0Pna,2020-0188,2021-10-14,09:10:16,10:53:17,NA,incomplete,false,true,NA,4,8,NA,yellow,n_s_074.jpg,NA,NA,unpleasant,pleasant,NA,NA,NA,NA,NA,left,2287,true,NA,NA,NA,NA,NA
M8jR0Pna,3odop6t3bvxisk3y617o3pei3yp24c,32m8bpygaxz4258eh7zjoeeukh5igt,M8jR0Pna,2020-0188,2021-10-14,09:10:16,10:53:17,NA,incomplete,false,true,NA,4,9,NA,yellow,n_s_048.jpg,NA,NA,pleasant,unpleasant,NA,NA,NA,NA,NA,right,1767,true,NA,NA,NA,NA,NA
M8jR0Pna,3odop6t3bvxisk3y617o3pei3yp24c,32m8bpygaxz4258eh7zjoeeukh5igt,M8jR0Pna,2020-0188,2021-10-14,09:10:16,10:53:17,NA,incomplete,false,true,NA,4,10,NA,yellow,n_s_091.jpg,NA,NA,unpleasant,pleasant,NA,NA,NA,NA,NA,left,1738,true,NA,NA,NA,NA,NA
M8jR0Pna,3odop6t3bvxisk3y617o3pei3yp24c,32m8bpygaxz4258eh7zjoeeukh5igt,M8jR0Pna,2020-0188,2021-10-14,09:10:16,10:53:17,NA,incomplete,false,true,NA,4,11,NA,yellow,m_s_024.jpg,NA,NA,unpleasant,pleasant,NA,NA,NA,NA,NA,right,1804,true,NA,NA,NA,NA,NA
M8jR0Pna,3odop6t3bvxisk3y617o3pei3yp24c,32m8bpygaxz4258eh7zjoeeukh5igt,M8jR0Pna,2020-0188,2021-10-14,09:10:16,10:53:17,NA,incomplete,false,true,NA,4,12,NA,black,m_s_048.jpg,NA,NA,pleasant,unpleasant,NA,NA,NA,NA,NA,left,2020,true,NA,NA,NA,NA,NA
M8jR0Pna,3odop6t3bvxisk3y617o3pei3yp24c,32m8bpygaxz4258eh7zjoeeukh5igt,M8jR0Pna,2020-0188,2021-10-14,09:10:16,10:53:17,NA,incomplete,false,true,NA,4,13,NA,black,n_l_044.jpg,NA,NA,pleasant,unpleasant,NA,NA,NA,NA,NA,left,1517,true,NA,NA,NA,NA,NA
M8jR0Pna,3odop6t3bvxisk3y617o3pei3yp24c,32m8bpygaxz4258eh7zjoeeukh5igt,M8jR0Pna,2020-0188,2021-10-14,09:10:16,10:53:17,NA,incomplete,false,true,NA,4,14,NA,black,n_s_065.jpg,NA,NA,pleasant,unpleasant,NA,NA,NA,NA,NA,right,1314,true,NA,NA,NA,NA,NA
M8jR0Pna,3odop6t3bvxisk3y617o3pei3yp24c,32m8bpygaxz4258eh7zjoeeukh5igt,M8jR0Pna,2020-0188,2021-10-14,09:10:16,10:53:17,NA,incomplete,false,true,NA,4,15,NA,black,n_s_004.jpg,NA,NA,pleasant,unpleasant,NA,NA,NA,NA,NA,right,1391,true,NA,NA,NA,NA,NA
M8jR0Pna,3odop6t3bvxisk3y617o3pei3yp24c,32m8bpygaxz4258eh7zjoeeukh5igt,M8jR0Pna,2020-0188,2021-10-14,09:10:16,10:53:17,NA,incomplete,false,true,NA,4,16,NA,black,m_l_105.jpg,NA,NA,unpleasant,pleasant,NA,NA,NA,NA,NA,right,1513,true,NA,NA,NA,NA,NA
M8jR0Pna,3odop6t3bvxisk3y617o3pei3yp24c,32m8bpygaxz4258eh7zjoeeukh5igt,M8jR0Pna,2020-0188,2021-10-14,09:10:16,10:53:17,NA,incomplete,false,true,NA,4,17,NA,black,m_l_113.jpg,NA,NA,pleasant,unpleasant,NA,NA,NA,NA,NA,left,1436,true,NA,NA,NA,NA,NA
M8jR0Pna,3odop6t3bvxisk3y617o3pei3yp24c,32m8bpygaxz4258eh7zjoeeukh5igt,M8jR0Pna,2020-0188,2021-10-14,09:10:16,10:53:17,NA,incomplete,false,true,NA,4,18,NA,blue,n_s_005.jpg,NA,NA,unpleasant,pleasant,NA,NA,NA,NA,NA,right,1386,true,NA,NA,NA,NA,NA
M8jR0Pna,3odop6t3bvxisk3y617o3pei3yp24c,32m8bpygaxz4258eh7zjoeeukh5igt,M8jR0Pna,2020-0188,2021-10-14,09:10:16,10:53:17,NA,incomplete,false,true,NA,4,19,NA,blue,m_s_001.jpg,NA,NA,pleasant,unpleasant,NA,NA,NA,NA,NA,left,1408,true,NA,NA,NA,NA,NA
M8jR0Pna,3odop6t3bvxisk3y617o3pei3yp24c,32m8bpygaxz4258eh7zjoeeukh5igt,M8jR0Pna,2020-0188,2021-10-14,09:10:16,10:53:17,NA,incomplete,false,true,NA,4,20,NA,blue,n_s_082.jpg,NA,NA,pleasant,unpleasant,NA,NA,NA,NA,NA,right,2294,true,NA,NA,NA,NA,NA
M8jR0Pna,3odop6t3bvxisk3y617o3pei3yp24c,32m8bpygaxz4258eh7zjoeeukh5igt,M8jR0Pna,2020-0188,2021-10-14,09:10:16,10:53:17,NA,incomplete,false,true,NA,4,21,NA,blue,n_s_019.jpg,NA,NA,unpleasant,pleasant,NA,NA,NA,NA,NA,right,1651,true,NA,NA,NA,NA,NA
M8jR0Pna,3odop6t3bvxisk3y617o3pei3yp24c,32m8bpygaxz4258eh7zjoeeukh5igt,M8jR0Pna,2020-0188,2021-10-14,09:10:16,10:53:17,NA,incomplete,false,true,NA,4,22,NA,blue,m_s_007.jpg,NA,NA,unpleasant,pleasant,NA,NA,NA,NA,NA,right,2167,true,NA,NA,NA,NA,NA
M8jR0Pna,3odop6t3bvxisk3y617o3pei3yp24c,32m8bpygaxz4258eh7zjoeeukh5igt,M8jR0Pna,2020-0188,2021-10-14,09:10:16,10:53:17,NA,incomplete,false,true,NA,4,23,NA,blue,n_s_070.jpg,NA,NA,pleasant,unpleasant,NA,NA,NA,NA,NA,left,1262,true,NA,NA,NA,NA,NA
M8jR0Pna,3odop6t3bvxisk3y617o3pei3yp24c,32m8bpygaxz4258eh7zjoeeukh5igt,M8jR0Pna,2020-0188,2021-10-14,09:10:16,10:53:17,NA,incomplete,false,true,NA,4,24,NA,red,n_l_004.jpg,NA,NA,unpleasant,pleasant,NA,NA,NA,NA,NA,right,1560,true,NA,NA,NA,NA,NA
M8jR0Pna,3odop6t3bvxisk3y617o3pei3yp24c,32m8bpygaxz4258eh7zjoeeukh5igt,M8jR0Pna,2020-0188,2021-10-14,09:10:16,10:53:17,NA,incomplete,false,true,NA,4,25,NA,red,n_s_010.jpg,NA,NA,unpleasant,pleasant,NA,NA,NA,NA,NA,left,2361,true,NA,NA,NA,NA,NA
M8jR0Pna,3odop6t3bvxisk3y617o3pei3yp24c,32m8bpygaxz4258eh7zjoeeukh5igt,M8jR0Pna,2020-0188,2021-10-14,09:10:16,10:53:17,NA,incomplete,false,true,NA,4,26,NA,red,m_l_034.jpg,NA,NA,unpleasant,pleasant,NA,NA,NA,NA,NA,right,2741,true,NA,NA,NA,NA,NA
M8jR0Pna,3odop6t3bvxisk3y617o3pei3yp24c,32m8bpygaxz4258eh7zjoeeukh5igt,M8jR0Pna,2020-0188,2021-10-14,09:10:16,10:53:17,NA,incomplete,false,true,NA,4,27,NA,red,m_s_021.jpg,NA,NA,unpleasant,pleasant,NA,NA,NA,NA,NA,left,2656,true,NA,NA,NA,NA,NA
M8jR0Pna,3odop6t3bvxisk3y617o3pei3yp24c,32m8bpygaxz4258eh7zjoeeukh5igt,M8jR0Pna,2020-0188,2021-10-14,09:10:16,10:53:17,NA,incomplete,false,true,NA,4,28,NA,red,m_s_050.jpg,NA,NA,unpleasant,pleasant,NA,NA,NA,NA,NA,right,1443,true,NA,NA,NA,NA,NA
M8jR0Pna,3odop6t3bvxisk3y617o3pei3yp24c,32m8bpygaxz4258eh7zjoeeukh5igt,M8jR0Pna,2020-0188,2021-10-14,09:10:16,10:53:17,NA,incomplete,false,true,NA,4,29,NA,red,m_l_091.jpg,NA,NA,pleasant,unpleasant,NA,NA,NA,NA,NA,left,1410,true,NA,NA,NA,NA,NA
M8jR0Pna,3odop6t3bvxisk3y617o3pei3yp24c,32m8bpygaxz4258eh7zjoeeukh5igt,M8jR0Pna,2020-0188,2021-10-14,09:10:16,10:53:17,NA,incomplete,false,true,NA,4,30,NA,brown,m_l_104.jpg,NA,NA,unpleasant,pleasant,NA,NA,NA,NA,NA,right,2695,true,NA,NA,NA,NA,NA
M8jR0Pna,3odop6t3bvxisk3y617o3pei3yp24c,32m8bpygaxz4258eh7zjoeeukh5igt,M8jR0Pna,2020-0188,2021-10-14,09:10:16,10:53:17,NA,incomplete,false,true,NA,4,31,NA,brown,m_s_109.jpg,NA,NA,pleasant,unpleasant,NA,NA,NA,NA,NA,left,1347,true,NA,NA,NA,NA,NA
M8jR0Pna,3odop6t3bvxisk3y617o3pei3yp24c,32m8bpygaxz4258eh7zjoeeukh5igt,M8jR0Pna,2020-0188,2021-10-14,09:10:16,10:53:17,NA,incomplete,false,true,NA,4,32,NA,brown,n_s_026.jpg,NA,NA,pleasant,unpleasant,NA,NA,NA,NA,NA,right,1151,true,NA,NA,NA,NA,NA
M8jR0Pna,3odop6t3bvxisk3y617o3pei3yp24c,32m8bpygaxz4258eh7zjoeeukh5igt,M8jR0Pna,2020-0188,2021-10-14,09:10:16,10:53:17,NA,incomplete,false,true,NA,4,33,NA,brown,m_s_068.jpg,NA,NA,pleasant,unpleasant,NA,NA,NA,NA,NA,left,1459,true,NA,NA,NA,NA,NA
M8jR0Pna,3odop6t3bvxisk3y617o3pei3yp24c,32m8bpygaxz4258eh7zjoeeukh5igt,M8jR0Pna,2020-0188,2021-10-14,09:10:16,10:53:17,NA,incomplete,false,true,NA,4,34,NA,brown,m_l_048.jpg,NA,NA,unpleasant,pleasant,NA,NA,NA,NA,NA,right,1147,true,NA,NA,NA,NA,NA
M8jR0Pna,3odop6t3bvxisk3y617o3pei3yp24c,32m8bpygaxz4258eh7zjoeeukh5igt,M8jR0Pna,2020-0188,2021-10-14,09:10:16,10:53:17,NA,incomplete,false,true,NA,4,35,NA,brown,n_s_107.jpg,NA,NA,pleasant,unpleasant,NA,NA,NA,NA,NA,right,1752,true,NA,NA,NA,NA,NA
M8jR0Pna,3odop6t3bvxisk3y617o3pei3yp24c,32m8bpygaxz4258eh7zjoeeukh5igt,M8jR0Pna,2020-0188,2021-10-14,09:10:16,10:53:17,NA,incomplete,false,NA,true,4,0,NA,NA,NA,right,present,NA,NA,n_s_107.jpg,brown,m_s_109.jpg,brown,within,NA,NaN,NA,right,7698,1,2,3341
M8jR0Pna,3odop6t3bvxisk3y617o3pei3yp24c,32m8bpygaxz4258eh7zjoeeukh5igt,M8jR0Pna,2020-0188,2021-10-14,09:10:16,10:53:17,NA,incomplete,false,NA,true,4,1,NA,NA,NA,left,present,NA,NA,n_l_062.jpg,orange,m_s_063.jpg,orange,within,NA,NaN,NA,left,3553,1,2,1038
M8jR0Pna,3odop6t3bvxisk3y617o3pei3yp24c,32m8bpygaxz4258eh7zjoeeukh5igt,M8jR0Pna,2020-0188,2021-10-14,09:10:16,10:53:17,NA,incomplete,false,NA,true,4,2,NA,NA,NA,left,present,NA,NA,m_l_026.jpg,orange,n_s_074.jpg,yellow,between,NA,NaN,NA,left,6017,1,2,1103
M8jR0Pna,3odop6t3bvxisk3y617o3pei3yp24c,32m8bpygaxz4258eh7zjoeeukh5igt,M8jR0Pna,2020-0188,2021-10-14,09:10:16,10:53:17,NA,incomplete,false,NA,true,4,3,NA,NA,NA,right,present,NA,NA,n_s_082.jpg,blue,m_l_105.jpg,black,between,NA,NaN,NA,right,2804,1,2,1971
M8jR0Pna,3odop6t3bvxisk3y617o3pei3yp24c,32m8bpygaxz4258eh7zjoeeukh5igt,M8jR0Pna,2020-0188,2021-10-14,09:10:16,10:53:17,NA,incomplete,false,NA,true,4,4,NA,NA,NA,left,present,NA,NA,n_s_091.jpg,yellow,n_s_065.jpg,black,between,NA,NaN,NA,right,4848,0,0,1143
M8jR0Pna,3odop6t3bvxisk3y617o3pei3yp24c,32m8bpygaxz4258eh7zjoeeukh5igt,M8jR0Pna,2020-0188,2021-10-14,09:10:16,10:53:17,NA,incomplete,false,NA,true,4,5,NA,NA,NA,left,present,NA,NA,m_s_050.jpg,red,n_s_026.jpg,brown,between,NA,NaN,NA,right,2304,0,1,1644
M8jR0Pna,3odop6t3bvxisk3y617o3pei3yp24c,32m8bpygaxz4258eh7zjoeeukh5igt,M8jR0Pna,2020-0188,2021-10-14,09:10:16,10:53:17,NA,incomplete,false,NA,true,4,6,NA,NA,NA,left,present,NA,NA,n_s_010.jpg,red,m_l_091.jpg,red,within,NA,NaN,NA,left,40001,1,0,1633
M8jR0Pna,3odop6t3bvxisk3y617o3pei3yp24c,32m8bpygaxz4258eh7zjoeeukh5igt,M8jR0Pna,2020-0188,2021-10-14,09:10:16,10:53:17,NA,incomplete,false,NA,true,4,7,NA,NA,NA,right,present,NA,NA,m_l_113.jpg,black,n_l_044.jpg,black,within,NA,NaN,NA,right,2182,1,3,1516
M8jR0Pna,3odop6t3bvxisk3y617o3pei3yp24c,32m8bpygaxz4258eh7zjoeeukh5igt,M8jR0Pna,2020-0188,2021-10-14,09:10:16,10:53:17,NA,incomplete,false,NA,true,4,8,NA,NA,NA,right,present,NA,NA,m_l_034.jpg,red,m_s_007.jpg,blue,between,NA,NaN,NA,left,2263,0,2,3653
M8jR0Pna,3odop6t3bvxisk3y617o3pei3yp24c,32m8bpygaxz4258eh7zjoeeukh5igt,M8jR0Pna,2020-0188,2021-10-14,09:10:16,10:53:17,NA,incomplete,false,NA,true,4,9,NA,NA,NA,left,present,NA,NA,m_s_001.jpg,blue,n_s_070.jpg,blue,within,NA,NaN,NA,left,7276,1,0,1084
M8jR0Pna,3odop6t3bvxisk3y617o3pei3yp24c,32m8bpygaxz4258eh7zjoeeukh5igt,M8jR0Pna,2020-0188,2021-10-14,09:10:16,10:53:17,NA,incomplete,false,NA,true,4,10,NA,NA,NA,left,present,NA,NA,m_l_064.jpg,yellow,m_s_024.jpg,yellow,within,NA,NaN,NA,left,4767,1,1,1357
M8jR0Pna,3odop6t3bvxisk3y617o3pei3yp24c,32m8bpygaxz4258eh7zjoeeukh5igt,M8jR0Pna,2020-0188,2021-10-14,09:10:16,10:53:17,NA,incomplete,false,true,NA,5,0,NA,white,m_l_057.jpg,NA,NA,unpleasant,pleasant,NA,NA,NA,NA,NA,left,2433,true,NA,NA,NA,NA,NA
M8jR0Pna,3odop6t3bvxisk3y617o3pei3yp24c,32m8bpygaxz4258eh7zjoeeukh5igt,M8jR0Pna,2020-0188,2021-10-14,09:10:16,10:53:17,NA,incomplete,false,true,NA,5,1,NA,white,n_l_074.jpg,NA,NA,pleasant,unpleasant,NA,NA,NA,NA,NA,left,1642,true,NA,NA,NA,NA,NA
M8jR0Pna,3odop6t3bvxisk3y617o3pei3yp24c,32m8bpygaxz4258eh7zjoeeukh5igt,M8jR0Pna,2020-0188,2021-10-14,09:10:16,10:53:17,NA,incomplete,false,true,NA,5,2,NA,white,m_l_067.jpg,NA,NA,pleasant,unpleasant,NA,NA,NA,NA,NA,left,1837,true,NA,NA,NA,NA,NA
M8jR0Pna,3odop6t3bvxisk3y617o3pei3yp24c,32m8bpygaxz4258eh7zjoeeukh5igt,M8jR0Pna,2020-0188,2021-10-14,09:10:16,10:53:17,NA,incomplete,false,true,NA,5,3,NA,white,n_s_001.jpg,NA,NA,unpleasant,pleasant,NA,NA,NA,NA,NA,right,1285,true,NA,NA,NA,NA,NA
M8jR0Pna,3odop6t3bvxisk3y617o3pei3yp24c,32m8bpygaxz4258eh7zjoeeukh5igt,M8jR0Pna,2020-0188,2021-10-14,09:10:16,10:53:17,NA,incomplete,false,true,NA,5,4,NA,white,n_s_066.jpg,NA,NA,pleasant,unpleasant,NA,NA,NA,NA,NA,left,1464,true,NA,NA,NA,NA,NA
M8jR0Pna,3odop6t3bvxisk3y617o3pei3yp24c,32m8bpygaxz4258eh7zjoeeukh5igt,M8jR0Pna,2020-0188,2021-10-14,09:10:16,10:53:17,NA,incomplete,false,true,NA,5,5,NA,white,n_s_006.jpg,NA,NA,pleasant,unpleasant,NA,NA,NA,NA,NA,left,1315,true,NA,NA,NA,NA,NA
M8jR0Pna,3odop6t3bvxisk3y617o3pei3yp24c,32m8bpygaxz4258eh7zjoeeukh5igt,M8jR0Pna,2020-0188,2021-10-14,09:10:16,10:53:17,NA,incomplete,false,true,NA,5,6,NA,orange,m_s_102.jpg,NA,NA,pleasant,unpleasant,NA,NA,NA,NA,NA,left,1444,true,NA,NA,NA,NA,NA
M8jR0Pna,3odop6t3bvxisk3y617o3pei3yp24c,32m8bpygaxz4258eh7zjoeeukh5igt,M8jR0Pna,2020-0188,2021-10-14,09:10:16,10:53:17,NA,incomplete,false,true,NA,5,7,NA,orange,n_s_062.jpg,NA,NA,unpleasant,pleasant,NA,NA,NA,NA,NA,right,1364,true,NA,NA,NA,NA,NA
M8jR0Pna,3odop6t3bvxisk3y617o3pei3yp24c,32m8bpygaxz4258eh7zjoeeukh5igt,M8jR0Pna,2020-0188,2021-10-14,09:10:16,10:53:17,NA,incomplete,false,true,NA,5,8,NA,orange,n_l_020.jpg,NA,NA,unpleasant,pleasant,NA,NA,NA,NA,NA,right,1610,true,NA,NA,NA,NA,NA
M8jR0Pna,3odop6t3bvxisk3y617o3pei3yp24c,32m8bpygaxz4258eh7zjoeeukh5igt,M8jR0Pna,2020-0188,2021-10-14,09:10:16,10:53:17,NA,incomplete,false,true,NA,5,9,NA,orange,n_s_104.jpg,NA,NA,unpleasant,pleasant,NA,NA,NA,NA,NA,right,1194,true,NA,NA,NA,NA,NA
M8jR0Pna,3odop6t3bvxisk3y617o3pei3yp24c,32m8bpygaxz4258eh7zjoeeukh5igt,M8jR0Pna,2020-0188,2021-10-14,09:10:16,10:53:17,NA,incomplete,false,true,NA,5,10,NA,orange,n_l_078.jpg,NA,NA,unpleasant,pleasant,NA,NA,NA,NA,NA,right,1225,true,NA,NA,NA,NA,NA
M8jR0Pna,3odop6t3bvxisk3y617o3pei3yp24c,32m8bpygaxz4258eh7zjoeeukh5igt,M8jR0Pna,2020-0188,2021-10-14,09:10:16,10:53:17,NA,incomplete,false,true,NA,5,11,NA,orange,m_s_023.jpg,NA,NA,unpleasant,pleasant,NA,NA,NA,NA,NA,right,1377,true,NA,NA,NA,NA,NA
M8jR0Pna,3odop6t3bvxisk3y617o3pei3yp24c,32m8bpygaxz4258eh7zjoeeukh5igt,M8jR0Pna,2020-0188,2021-10-14,09:10:16,10:53:17,NA,incomplete,false,true,NA,5,12,NA,gray,m_l_017.jpg,NA,NA,unpleasant,pleasant,NA,NA,NA,NA,NA,right,1411,true,NA,NA,NA,NA,NA
M8jR0Pna,3odop6t3bvxisk3y617o3pei3yp24c,32m8bpygaxz4258eh7zjoeeukh5igt,M8jR0Pna,2020-0188,2021-10-14,09:10:16,10:53:17,NA,incomplete,false,true,NA,5,13,NA,gray,n_s_067.jpg,NA,NA,unpleasant,pleasant,NA,NA,NA,NA,NA,right,1439,true,NA,NA,NA,NA,NA
M8jR0Pna,3odop6t3bvxisk3y617o3pei3yp24c,32m8bpygaxz4258eh7zjoeeukh5igt,M8jR0Pna,2020-0188,2021-10-14,09:10:16,10:53:17,NA,incomplete,false,true,NA,5,14,NA,gray,n_l_105.jpg,NA,NA,unpleasant,pleasant,NA,NA,NA,NA,NA,right,1920,true,NA,NA,NA,NA,NA
M8jR0Pna,3odop6t3bvxisk3y617o3pei3yp24c,32m8bpygaxz4258eh7zjoeeukh5igt,M8jR0Pna,2020-0188,2021-10-14,09:10:16,10:53:17,NA,incomplete,false,true,NA,5,15,NA,gray,m_s_036.jpg,NA,NA,unpleasant,pleasant,NA,NA,NA,NA,NA,right,1683,true,NA,NA,NA,NA,NA
M8jR0Pna,3odop6t3bvxisk3y617o3pei3yp24c,32m8bpygaxz4258eh7zjoeeukh5igt,M8jR0Pna,2020-0188,2021-10-14,09:10:16,10:53:17,NA,incomplete,false,true,NA,5,16,NA,gray,n_l_045.jpg,NA,NA,unpleasant,pleasant,NA,NA,NA,NA,NA,left,1355,true,NA,NA,NA,NA,NA
M8jR0Pna,3odop6t3bvxisk3y617o3pei3yp24c,32m8bpygaxz4258eh7zjoeeukh5igt,M8jR0Pna,2020-0188,2021-10-14,09:10:16,10:53:17,NA,incomplete,false,true,NA,5,17,NA,gray,n_l_098.jpg,NA,NA,unpleasant,pleasant,NA,NA,NA,NA,NA,right,1301,true,NA,NA,NA,NA,NA
M8jR0Pna,3odop6t3bvxisk3y617o3pei3yp24c,32m8bpygaxz4258eh7zjoeeukh5igt,M8jR0Pna,2020-0188,2021-10-14,09:10:16,10:53:17,NA,incomplete,false,true,NA,5,18,NA,green,n_l_069.jpg,NA,NA,pleasant,unpleasant,NA,NA,NA,NA,NA,right,1844,true,NA,NA,NA,NA,NA
M8jR0Pna,3odop6t3bvxisk3y617o3pei3yp24c,32m8bpygaxz4258eh7zjoeeukh5igt,M8jR0Pna,2020-0188,2021-10-14,09:10:16,10:53:17,NA,incomplete,false,true,NA,5,19,NA,green,n_s_088.jpg,NA,NA,pleasant,unpleasant,NA,NA,NA,NA,NA,left,1422,true,NA,NA,NA,NA,NA
M8jR0Pna,3odop6t3bvxisk3y617o3pei3yp24c,32m8bpygaxz4258eh7zjoeeukh5igt,M8jR0Pna,2020-0188,2021-10-14,09:10:16,10:53:17,NA,incomplete,false,true,NA,5,20,NA,green,m_l_094.jpg,NA,NA,unpleasant,pleasant,NA,NA,NA,NA,NA,left,1953,true,NA,NA,NA,NA,NA
M8jR0Pna,3odop6t3bvxisk3y617o3pei3yp24c,32m8bpygaxz4258eh7zjoeeukh5igt,M8jR0Pna,2020-0188,2021-10-14,09:10:16,10:53:17,NA,incomplete,false,true,NA,5,21,NA,green,m_l_043.jpg,NA,NA,unpleasant,pleasant,NA,NA,NA,NA,NA,right,1664,true,NA,NA,NA,NA,NA
M8jR0Pna,3odop6t3bvxisk3y617o3pei3yp24c,32m8bpygaxz4258eh7zjoeeukh5igt,M8jR0Pna,2020-0188,2021-10-14,09:10:16,10:53:17,NA,incomplete,false,true,NA,5,22,NA,green,n_s_115.jpg,NA,NA,pleasant,unpleasant,NA,NA,NA,NA,NA,left,1708,true,NA,NA,NA,NA,NA
M8jR0Pna,3odop6t3bvxisk3y617o3pei3yp24c,32m8bpygaxz4258eh7zjoeeukh5igt,M8jR0Pna,2020-0188,2021-10-14,09:10:16,10:53:17,NA,incomplete,false,true,NA,5,23,NA,green,m_s_106.jpg,NA,NA,unpleasant,pleasant,NA,NA,NA,NA,NA,right,1270,true,NA,NA,NA,NA,NA
M8jR0Pna,3odop6t3bvxisk3y617o3pei3yp24c,32m8bpygaxz4258eh7zjoeeukh5igt,M8jR0Pna,2020-0188,2021-10-14,09:10:16,10:53:17,NA,incomplete,false,true,NA,5,24,NA,black,n_s_054.jpg,NA,NA,unpleasant,pleasant,NA,NA,NA,NA,NA,right,1265,true,NA,NA,NA,NA,NA
M8jR0Pna,3odop6t3bvxisk3y617o3pei3yp24c,32m8bpygaxz4258eh7zjoeeukh5igt,M8jR0Pna,2020-0188,2021-10-14,09:10:16,10:53:17,NA,incomplete,false,true,NA,5,25,NA,black,m_l_045.jpg,NA,NA,unpleasant,pleasant,NA,NA,NA,NA,NA,right,1244,true,NA,NA,NA,NA,NA
M8jR0Pna,3odop6t3bvxisk3y617o3pei3yp24c,32m8bpygaxz4258eh7zjoeeukh5igt,M8jR0Pna,2020-0188,2021-10-14,09:10:16,10:53:17,NA,incomplete,false,true,NA,5,26,NA,black,m_s_011.jpg,NA,NA,unpleasant,pleasant,NA,NA,NA,NA,NA,right,2026,true,NA,NA,NA,NA,NA
M8jR0Pna,3odop6t3bvxisk3y617o3pei3yp24c,32m8bpygaxz4258eh7zjoeeukh5igt,M8jR0Pna,2020-0188,2021-10-14,09:10:16,10:53:17,NA,incomplete,false,true,NA,5,27,NA,black,m_l_021.jpg,NA,NA,unpleasant,pleasant,NA,NA,NA,NA,NA,right,1205,true,NA,NA,NA,NA,NA
M8jR0Pna,3odop6t3bvxisk3y617o3pei3yp24c,32m8bpygaxz4258eh7zjoeeukh5igt,M8jR0Pna,2020-0188,2021-10-14,09:10:16,10:53:17,NA,incomplete,false,true,NA,5,28,NA,black,n_s_116.jpg,NA,NA,pleasant,unpleasant,NA,NA,NA,NA,NA,right,1331,true,NA,NA,NA,NA,NA
M8jR0Pna,3odop6t3bvxisk3y617o3pei3yp24c,32m8bpygaxz4258eh7zjoeeukh5igt,M8jR0Pna,2020-0188,2021-10-14,09:10:16,10:53:17,NA,incomplete,false,true,NA,5,29,NA,black,m_l_019.jpg,NA,NA,unpleasant,pleasant,NA,NA,NA,NA,NA,right,1379,true,NA,NA,NA,NA,NA
M8jR0Pna,3odop6t3bvxisk3y617o3pei3yp24c,32m8bpygaxz4258eh7zjoeeukh5igt,M8jR0Pna,2020-0188,2021-10-14,09:10:16,10:53:17,NA,incomplete,false,true,NA,5,30,NA,yellow,m_s_006.jpg,NA,NA,unpleasant,pleasant,NA,NA,NA,NA,NA,right,1283,true,NA,NA,NA,NA,NA
M8jR0Pna,3odop6t3bvxisk3y617o3pei3yp24c,32m8bpygaxz4258eh7zjoeeukh5igt,M8jR0Pna,2020-0188,2021-10-14,09:10:16,10:53:17,NA,incomplete,false,true,NA,5,31,NA,yellow,m_s_088.jpg,NA,NA,unpleasant,pleasant,NA,NA,NA,NA,NA,left,1276,true,NA,NA,NA,NA,NA
M8jR0Pna,3odop6t3bvxisk3y617o3pei3yp24c,32m8bpygaxz4258eh7zjoeeukh5igt,M8jR0Pna,2020-0188,2021-10-14,09:10:16,10:53:17,NA,incomplete,false,true,NA,5,32,NA,yellow,m_l_108.jpg,NA,NA,pleasant,unpleasant,NA,NA,NA,NA,NA,left,1440,true,NA,NA,NA,NA,NA
M8jR0Pna,3odop6t3bvxisk3y617o3pei3yp24c,32m8bpygaxz4258eh7zjoeeukh5igt,M8jR0Pna,2020-0188,2021-10-14,09:10:16,10:53:17,NA,incomplete,false,true,NA,5,33,NA,yellow,m_s_105.jpg,NA,NA,unpleasant,pleasant,NA,NA,NA,NA,NA,right,1600,true,NA,NA,NA,NA,NA
M8jR0Pna,3odop6t3bvxisk3y617o3pei3yp24c,32m8bpygaxz4258eh7zjoeeukh5igt,M8jR0Pna,2020-0188,2021-10-14,09:10:16,10:53:17,NA,incomplete,false,true,NA,5,34,NA,yellow,n_l_051.jpg,NA,NA,pleasant,unpleasant,NA,NA,NA,NA,NA,right,1654,true,NA,NA,NA,NA,NA
M8jR0Pna,3odop6t3bvxisk3y617o3pei3yp24c,32m8bpygaxz4258eh7zjoeeukh5igt,M8jR0Pna,2020-0188,2021-10-14,09:10:16,10:53:17,NA,incomplete,false,true,NA,5,35,NA,yellow,m_l_109.jpg,NA,NA,pleasant,unpleasant,NA,NA,NA,NA,NA,left,1278,true,NA,NA,NA,NA,NA
M8jR0Pna,3odop6t3bvxisk3y617o3pei3yp24c,32m8bpygaxz4258eh7zjoeeukh5igt,M8jR0Pna,2020-0188,2021-10-14,09:10:16,10:53:17,NA,incomplete,false,NA,true,5,0,NA,NA,NA,right,absent,NA,NA,m_s_023.jpg,orange,n_s_062.jpg,orange,within,NA,NaN,NA,right,16013,1,0,1517
M8jR0Pna,3odop6t3bvxisk3y617o3pei3yp24c,32m8bpygaxz4258eh7zjoeeukh5igt,M8jR0Pna,2020-0188,2021-10-14,09:10:16,10:53:17,NA,incomplete,false,NA,true,5,1,NA,NA,NA,left,absent,NA,NA,n_l_074.jpg,white,n_s_006.jpg,white,within,NA,NaN,NA,left,2927,1,1,1313
M8jR0Pna,3odop6t3bvxisk3y617o3pei3yp24c,32m8bpygaxz4258eh7zjoeeukh5igt,M8jR0Pna,2020-0188,2021-10-14,09:10:16,10:53:17,NA,incomplete,false,NA,true,5,2,NA,NA,NA,left,absent,NA,NA,n_s_067.jpg,gray,n_l_098.jpg,gray,within,NA,NaN,NA,left,37631,1,1,1523
M8jR0Pna,3odop6t3bvxisk3y617o3pei3yp24c,32m8bpygaxz4258eh7zjoeeukh5igt,M8jR0Pna,2020-0188,2021-10-14,09:10:16,10:53:17,NA,incomplete,false,NA,true,5,3,NA,NA,NA,right,absent,NA,NA,m_l_019.jpg,black,m_l_045.jpg,black,within,NA,NaN,NA,right,4234,1,1,1400
M8jR0Pna,3odop6t3bvxisk3y617o3pei3yp24c,32m8bpygaxz4258eh7zjoeeukh5igt,M8jR0Pna,2020-0188,2021-10-14,09:10:16,10:53:17,NA,incomplete,false,NA,true,5,4,NA,NA,NA,left,absent,NA,NA,n_s_088.jpg,green,m_s_106.jpg,green,within,NA,NaN,NA,right,17145,0,0,1036
M8jR0Pna,3odop6t3bvxisk3y617o3pei3yp24c,32m8bpygaxz4258eh7zjoeeukh5igt,M8jR0Pna,2020-0188,2021-10-14,09:10:16,10:53:17,NA,incomplete,false,NA,true,5,5,NA,NA,NA,left,absent,NA,NA,m_s_088.jpg,yellow,m_l_109.jpg,yellow,within,NA,NaN,NA,left,3037,1,1,1134
M8jR0Pna,3odop6t3bvxisk3y617o3pei3yp24c,32m8bpygaxz4258eh7zjoeeukh5igt,M8jR0Pna,2020-0188,2021-10-14,09:10:16,10:53:17,NA,incomplete,false,NA,true,5,6,NA,NA,NA,left,absent,NA,NA,n_s_066.jpg,white,n_l_020.jpg,orange,between,NA,NaN,NA,left,3038,1,2,1155
M8jR0Pna,3odop6t3bvxisk3y617o3pei3yp24c,32m8bpygaxz4258eh7zjoeeukh5igt,M8jR0Pna,2020-0188,2021-10-14,09:10:16,10:53:17,NA,incomplete,false,NA,true,5,7,NA,NA,NA,right,absent,NA,NA,m_l_094.jpg,green,n_l_045.jpg,gray,between,NA,NaN,NA,left,54651,0,1,1895
M8jR0Pna,3odop6t3bvxisk3y617o3pei3yp24c,32m8bpygaxz4258eh7zjoeeukh5igt,M8jR0Pna,2020-0188,2021-10-14,09:10:16,10:53:17,NA,incomplete,false,NA,true,5,8,NA,NA,NA,left,absent,NA,NA,n_s_115.jpg,green,m_s_011.jpg,black,between,NA,NaN,NA,right,8501,0,1,1348
M8jR0Pna,3odop6t3bvxisk3y617o3pei3yp24c,32m8bpygaxz4258eh7zjoeeukh5igt,M8jR0Pna,2020-0188,2021-10-14,09:10:16,10:53:17,NA,incomplete,false,NA,true,5,9,NA,NA,NA,left,absent,NA,NA,n_l_078.jpg,orange,n_l_105.jpg,gray,between,NA,NaN,NA,left,13398,1,2,3453
M8jR0Pna,3odop6t3bvxisk3y617o3pei3yp24c,32m8bpygaxz4258eh7zjoeeukh5igt,M8jR0Pna,2020-0188,2021-10-14,09:10:16,10:53:17,NA,incomplete,false,NA,true,5,10,NA,NA,NA,right,absent,NA,NA,m_l_108.jpg,yellow,n_s_116.jpg,black,between,NA,NaN,NA,left,10762,0,0,1229
M8jR0Pna,3odop6t3bvxisk3y617o3pei3yp24c,32m8bpygaxz4258eh7zjoeeukh5igt,M8jR0Pna,2020-0188,2021-10-14,09:10:16,10:53:17,NA,incomplete,false,true,NA,6,0,NA,red,n_l_046.jpg,NA,NA,unpleasant,pleasant,NA,NA,NA,NA,NA,right,2095,true,NA,NA,NA,NA,NA
M8jR0Pna,3odop6t3bvxisk3y617o3pei3yp24c,32m8bpygaxz4258eh7zjoeeukh5igt,M8jR0Pna,2020-0188,2021-10-14,09:10:16,10:53:17,NA,incomplete,false,true,NA,6,1,NA,red,m_s_097.jpg,NA,NA,unpleasant,pleasant,NA,NA,NA,NA,NA,left,1606,true,NA,NA,NA,NA,NA
M8jR0Pna,3odop6t3bvxisk3y617o3pei3yp24c,32m8bpygaxz4258eh7zjoeeukh5igt,M8jR0Pna,2020-0188,2021-10-14,09:10:16,10:53:17,NA,incomplete,false,true,NA,6,2,NA,red,m_s_087.jpg,NA,NA,pleasant,unpleasant,NA,NA,NA,NA,NA,left,1477,true,NA,NA,NA,NA,NA
M8jR0Pna,3odop6t3bvxisk3y617o3pei3yp24c,32m8bpygaxz4258eh7zjoeeukh5igt,M8jR0Pna,2020-0188,2021-10-14,09:10:16,10:53:17,NA,incomplete,false,true,NA,6,3,NA,red,n_s_100.jpg,NA,NA,unpleasant,pleasant,NA,NA,NA,NA,NA,right,1569,true,NA,NA,NA,NA,NA
M8jR0Pna,3odop6t3bvxisk3y617o3pei3yp24c,32m8bpygaxz4258eh7zjoeeukh5igt,M8jR0Pna,2020-0188,2021-10-14,09:10:16,10:53:17,NA,incomplete,false,true,NA,6,4,NA,red,m_l_071.jpg,NA,NA,unpleasant,pleasant,NA,NA,NA,NA,NA,right,1245,true,NA,NA,NA,NA,NA
M8jR0Pna,3odop6t3bvxisk3y617o3pei3yp24c,32m8bpygaxz4258eh7zjoeeukh5igt,M8jR0Pna,2020-0188,2021-10-14,09:10:16,10:53:17,NA,incomplete,false,true,NA,6,5,NA,red,m_l_073.jpg,NA,NA,pleasant,unpleasant,NA,NA,NA,NA,NA,left,2466,true,NA,NA,NA,NA,NA
M8jR0Pna,3odop6t3bvxisk3y617o3pei3yp24c,32m8bpygaxz4258eh7zjoeeukh5igt,M8jR0Pna,2020-0188,2021-10-14,09:10:16,10:53:17,NA,incomplete,false,true,NA,6,6,NA,purple,m_s_075.jpg,NA,NA,pleasant,unpleasant,NA,NA,NA,NA,NA,left,1560,true,NA,NA,NA,NA,NA
M8jR0Pna,3odop6t3bvxisk3y617o3pei3yp24c,32m8bpygaxz4258eh7zjoeeukh5igt,M8jR0Pna,2020-0188,2021-10-14,09:10:16,10:53:17,NA,incomplete,false,true,NA,6,7,NA,purple,n_s_020.jpg,NA,NA,pleasant,unpleasant,NA,NA,NA,NA,NA,left,1623,true,NA,NA,NA,NA,NA
M8jR0Pna,3odop6t3bvxisk3y617o3pei3yp24c,32m8bpygaxz4258eh7zjoeeukh5igt,M8jR0Pna,2020-0188,2021-10-14,09:10:16,10:53:17,NA,incomplete,false,true,NA,6,8,NA,purple,n_l_088.jpg,NA,NA,pleasant,unpleasant,NA,NA,NA,NA,NA,left,1583,true,NA,NA,NA,NA,NA
M8jR0Pna,3odop6t3bvxisk3y617o3pei3yp24c,32m8bpygaxz4258eh7zjoeeukh5igt,M8jR0Pna,2020-0188,2021-10-14,09:10:16,10:53:17,NA,incomplete,false,true,NA,6,9,NA,purple,m_s_094.jpg,NA,NA,unpleasant,pleasant,NA,NA,NA,NA,NA,left,1907,true,NA,NA,NA,NA,NA
M8jR0Pna,3odop6t3bvxisk3y617o3pei3yp24c,32m8bpygaxz4258eh7zjoeeukh5igt,M8jR0Pna,2020-0188,2021-10-14,09:10:16,10:53:17,NA,incomplete,false,true,NA,6,10,NA,purple,m_s_038.jpg,NA,NA,pleasant,unpleasant,NA,NA,NA,NA,NA,left,2311,true,NA,NA,NA,NA,NA
M8jR0Pna,3odop6t3bvxisk3y617o3pei3yp24c,32m8bpygaxz4258eh7zjoeeukh5igt,M8jR0Pna,2020-0188,2021-10-14,09:10:16,10:53:17,NA,incomplete,false,true,NA,6,11,NA,purple,m_l_099.jpg,NA,NA,pleasant,unpleasant,NA,NA,NA,NA,NA,left,1419,true,NA,NA,NA,NA,NA
M8jR0Pna,3odop6t3bvxisk3y617o3pei3yp24c,32m8bpygaxz4258eh7zjoeeukh5igt,M8jR0Pna,2020-0188,2021-10-14,09:10:16,10:53:17,NA,incomplete,false,true,NA,6,12,NA,blue,n_l_005.jpg,NA,NA,unpleasant,pleasant,NA,NA,NA,NA,NA,right,1177,true,NA,NA,NA,NA,NA
M8jR0Pna,3odop6t3bvxisk3y617o3pei3yp24c,32m8bpygaxz4258eh7zjoeeukh5igt,M8jR0Pna,2020-0188,2021-10-14,09:10:16,10:53:17,NA,incomplete,false,true,NA,6,13,NA,blue,m_l_014.jpg,NA,NA,pleasant,unpleasant,NA,NA,NA,NA,NA,left,1495,true,NA,NA,NA,NA,NA
M8jR0Pna,3odop6t3bvxisk3y617o3pei3yp24c,32m8bpygaxz4258eh7zjoeeukh5igt,M8jR0Pna,2020-0188,2021-10-14,09:10:16,10:53:17,NA,incomplete,false,true,NA,6,14,NA,blue,m_l_075.jpg,NA,NA,unpleasant,pleasant,NA,NA,NA,NA,NA,right,1170,true,NA,NA,NA,NA,NA
M8jR0Pna,3odop6t3bvxisk3y617o3pei3yp24c,32m8bpygaxz4258eh7zjoeeukh5igt,M8jR0Pna,2020-0188,2021-10-14,09:10:16,10:53:17,NA,incomplete,false,true,NA,6,15,NA,blue,n_s_097.jpg,NA,NA,pleasant,unpleasant,NA,NA,NA,NA,NA,left,1417,true,NA,NA,NA,NA,NA
M8jR0Pna,3odop6t3bvxisk3y617o3pei3yp24c,32m8bpygaxz4258eh7zjoeeukh5igt,M8jR0Pna,2020-0188,2021-10-14,09:10:16,10:53:17,NA,incomplete,false,true,NA,6,16,NA,blue,n_l_102.jpg,NA,NA,unpleasant,pleasant,NA,NA,NA,NA,NA,right,1605,true,NA,NA,NA,NA,NA
M8jR0Pna,3odop6t3bvxisk3y617o3pei3yp24c,32m8bpygaxz4258eh7zjoeeukh5igt,M8jR0Pna,2020-0188,2021-10-14,09:10:16,10:53:17,NA,incomplete,false,true,NA,6,17,NA,blue,n_l_023.jpg,NA,NA,unpleasant,pleasant,NA,NA,NA,NA,NA,right,1575,true,NA,NA,NA,NA,NA
M8jR0Pna,3odop6t3bvxisk3y617o3pei3yp24c,32m8bpygaxz4258eh7zjoeeukh5igt,M8jR0Pna,2020-0188,2021-10-14,09:10:16,10:53:17,NA,incomplete,false,true,NA,6,18,NA,white,m_l_103.jpg,NA,NA,unpleasant,pleasant,NA,NA,NA,NA,NA,right,1147,true,NA,NA,NA,NA,NA
M8jR0Pna,3odop6t3bvxisk3y617o3pei3yp24c,32m8bpygaxz4258eh7zjoeeukh5igt,M8jR0Pna,2020-0188,2021-10-14,09:10:16,10:53:17,NA,incomplete,false,true,NA,6,19,NA,white,n_s_078.jpg,NA,NA,pleasant,unpleasant,NA,NA,NA,NA,NA,right,1396,true,NA,NA,NA,NA,NA
M8jR0Pna,3odop6t3bvxisk3y617o3pei3yp24c,32m8bpygaxz4258eh7zjoeeukh5igt,M8jR0Pna,2020-0188,2021-10-14,09:10:16,10:53:17,NA,incomplete,false,true,NA,6,20,NA,white,n_s_042.jpg,NA,NA,unpleasant,pleasant,NA,NA,NA,NA,NA,right,1354,true,NA,NA,NA,NA,NA
M8jR0Pna,3odop6t3bvxisk3y617o3pei3yp24c,32m8bpygaxz4258eh7zjoeeukh5igt,M8jR0Pna,2020-0188,2021-10-14,09:10:16,10:53:17,NA,incomplete,false,true,NA,6,21,NA,white,m_s_014.jpg,NA,NA,pleasant,unpleasant,NA,NA,NA,NA,NA,right,1424,true,NA,NA,NA,NA,NA
M8jR0Pna,3odop6t3bvxisk3y617o3pei3yp24c,32m8bpygaxz4258eh7zjoeeukh5igt,M8jR0Pna,2020-0188,2021-10-14,09:10:16,10:53:17,NA,incomplete,false,true,NA,6,22,NA,white,m_s_089.jpg,NA,NA,pleasant,unpleasant,NA,NA,NA,NA,NA,right,1749,true,NA,NA,NA,NA,NA
M8jR0Pna,3odop6t3bvxisk3y617o3pei3yp24c,32m8bpygaxz4258eh7zjoeeukh5igt,M8jR0Pna,2020-0188,2021-10-14,09:10:16,10:53:17,NA,incomplete,false,true,NA,6,23,NA,white,m_s_030.jpg,NA,NA,unpleasant,pleasant,NA,NA,NA,NA,NA,left,1817,true,NA,NA,NA,NA,NA
M8jR0Pna,3odop6t3bvxisk3y617o3pei3yp24c,32m8bpygaxz4258eh7zjoeeukh5igt,M8jR0Pna,2020-0188,2021-10-14,09:10:16,10:53:17,NA,incomplete,false,true,NA,6,24,NA,black,m_s_046.jpg,NA,NA,pleasant,unpleasant,NA,NA,NA,NA,NA,left,1950,true,NA,NA,NA,NA,NA
M8jR0Pna,3odop6t3bvxisk3y617o3pei3yp24c,32m8bpygaxz4258eh7zjoeeukh5igt,M8jR0Pna,2020-0188,2021-10-14,09:10:16,10:53:17,NA,incomplete,false,true,NA,6,25,NA,black,m_s_059.jpg,NA,NA,unpleasant,pleasant,NA,NA,NA,NA,NA,right,1718,true,NA,NA,NA,NA,NA
M8jR0Pna,3odop6t3bvxisk3y617o3pei3yp24c,32m8bpygaxz4258eh7zjoeeukh5igt,M8jR0Pna,2020-0188,2021-10-14,09:10:16,10:53:17,NA,incomplete,false,true,NA,6,26,NA,black,n_s_051.jpg,NA,NA,pleasant,unpleasant,NA,NA,NA,NA,NA,right,1669,true,NA,NA,NA,NA,NA
M8jR0Pna,3odop6t3bvxisk3y617o3pei3yp24c,32m8bpygaxz4258eh7zjoeeukh5igt,M8jR0Pna,2020-0188,2021-10-14,09:10:16,10:53:17,NA,incomplete,false,true,NA,6,27,NA,black,n_l_085.jpg,NA,NA,unpleasant,pleasant,NA,NA,NA,NA,NA,left,1619,true,NA,NA,NA,NA,NA
M8jR0Pna,3odop6t3bvxisk3y617o3pei3yp24c,32m8bpygaxz4258eh7zjoeeukh5igt,M8jR0Pna,2020-0188,2021-10-14,09:10:16,10:53:17,NA,incomplete,false,true,NA,6,28,NA,black,m_s_111.jpg,NA,NA,unpleasant,pleasant,NA,NA,NA,NA,NA,right,1833,true,NA,NA,NA,NA,NA
M8jR0Pna,3odop6t3bvxisk3y617o3pei3yp24c,32m8bpygaxz4258eh7zjoeeukh5igt,M8jR0Pna,2020-0188,2021-10-14,09:10:16,10:53:17,NA,incomplete,false,true,NA,6,29,NA,black,m_s_098.jpg,NA,NA,unpleasant,pleasant,NA,NA,NA,NA,NA,right,1803,true,NA,NA,NA,NA,NA
M8jR0Pna,3odop6t3bvxisk3y617o3pei3yp24c,32m8bpygaxz4258eh7zjoeeukh5igt,M8jR0Pna,2020-0188,2021-10-14,09:10:16,10:53:17,NA,incomplete,false,true,NA,6,30,NA,yellow,n_l_113.jpg,NA,NA,unpleasant,pleasant,NA,NA,NA,NA,NA,left,1609,true,NA,NA,NA,NA,NA
M8jR0Pna,3odop6t3bvxisk3y617o3pei3yp24c,32m8bpygaxz4258eh7zjoeeukh5igt,M8jR0Pna,2020-0188,2021-10-14,09:10:16,10:53:17,NA,incomplete,false,true,NA,6,31,NA,yellow,n_l_053.jpg,NA,NA,unpleasant,pleasant,NA,NA,NA,NA,NA,left,1785,true,NA,NA,NA,NA,NA
M8jR0Pna,3odop6t3bvxisk3y617o3pei3yp24c,32m8bpygaxz4258eh7zjoeeukh5igt,M8jR0Pna,2020-0188,2021-10-14,09:10:16,10:53:17,NA,incomplete,false,true,NA,6,32,NA,yellow,n_l_095.jpg,NA,NA,unpleasant,pleasant,NA,NA,NA,NA,NA,right,1761,true,NA,NA,NA,NA,NA
M8jR0Pna,3odop6t3bvxisk3y617o3pei3yp24c,32m8bpygaxz4258eh7zjoeeukh5igt,M8jR0Pna,2020-0188,2021-10-14,09:10:16,10:53:17,NA,incomplete,false,true,NA,6,33,NA,yellow,n_l_089.jpg,NA,NA,pleasant,unpleasant,NA,NA,NA,NA,NA,left,1666,true,NA,NA,NA,NA,NA
M8jR0Pna,3odop6t3bvxisk3y617o3pei3yp24c,32m8bpygaxz4258eh7zjoeeukh5igt,M8jR0Pna,2020-0188,2021-10-14,09:10:16,10:53:17,NA,incomplete,false,true,NA,6,34,NA,yellow,n_s_084.jpg,NA,NA,pleasant,unpleasant,NA,NA,NA,NA,NA,left,2409,true,NA,NA,NA,NA,NA
M8jR0Pna,3odop6t3bvxisk3y617o3pei3yp24c,32m8bpygaxz4258eh7zjoeeukh5igt,M8jR0Pna,2020-0188,2021-10-14,09:10:16,10:53:17,NA,incomplete,false,true,NA,6,35,NA,yellow,n_l_049.jpg,NA,NA,pleasant,unpleasant,NA,NA,NA,NA,NA,left,1555,true,NA,NA,NA,NA,NA
M8jR0Pna,3odop6t3bvxisk3y617o3pei3yp24c,32m8bpygaxz4258eh7zjoeeukh5igt,M8jR0Pna,2020-0188,2021-10-14,09:10:16,10:53:17,NA,incomplete,false,NA,true,6,0,NA,NA,NA,left,present,NA,NA,m_s_059.jpg,black,m_s_098.jpg,black,within,NA,NaN,NA,right,10179,0,2,1211
M8jR0Pna,3odop6t3bvxisk3y617o3pei3yp24c,32m8bpygaxz4258eh7zjoeeukh5igt,M8jR0Pna,2020-0188,2021-10-14,09:10:16,10:53:17,NA,incomplete,false,NA,true,6,1,NA,NA,NA,right,present,NA,NA,m_l_075.jpg,blue,m_s_038.jpg,purple,between,NA,NaN,NA,right,165379,1,2,1640
M8jR0Pna,3odop6t3bvxisk3y617o3pei3yp24c,32m8bpygaxz4258eh7zjoeeukh5igt,M8jR0Pna,2020-0188,2021-10-14,09:10:16,10:53:17,NA,incomplete,false,NA,true,6,2,NA,NA,NA,left,present,NA,NA,m_s_089.jpg,white,n_s_051.jpg,black,between,NA,NaN,NA,left,3156,1,1,980
M8jR0Pna,3odop6t3bvxisk3y617o3pei3yp24c,32m8bpygaxz4258eh7zjoeeukh5igt,M8jR0Pna,2020-0188,2021-10-14,09:10:16,10:53:17,NA,incomplete,false,NA,true,6,3,NA,NA,NA,right,present,NA,NA,m_l_099.jpg,purple,n_s_020.jpg,purple,within,NA,NaN,NA,left,2450,0,1,1198
M8jR0Pna,3odop6t3bvxisk3y617o3pei3yp24c,32m8bpygaxz4258eh7zjoeeukh5igt,M8jR0Pna,2020-0188,2021-10-14,09:10:16,10:53:17,NA,incomplete,false,NA,true,6,4,NA,NA,NA,left,present,NA,NA,m_s_111.jpg,black,n_l_095.jpg,yellow,between,NA,NaN,NA,left,3844,1,2,3143
M8jR0Pna,3odop6t3bvxisk3y617o3pei3yp24c,32m8bpygaxz4258eh7zjoeeukh5igt,M8jR0Pna,2020-0188,2021-10-14,09:10:16,10:53:17,NA,incomplete,false,NA,true,6,5,NA,NA,NA,left,present,NA,NA,n_s_078.jpg,white,m_s_030.jpg,white,within,NA,NaN,NA,right,2228,0,1,1745
M8jR0Pna,3odop6t3bvxisk3y617o3pei3yp24c,32m8bpygaxz4258eh7zjoeeukh5igt,M8jR0Pna,2020-0188,2021-10-14,09:10:16,10:53:17,NA,incomplete,false,NA,true,6,6,NA,NA,NA,left,present,NA,NA,m_l_071.jpg,red,n_l_088.jpg,purple,between,NA,NaN,NA,left,2860,1,1,991
M8jR0Pna,3odop6t3bvxisk3y617o3pei3yp24c,32m8bpygaxz4258eh7zjoeeukh5igt,M8jR0Pna,2020-0188,2021-10-14,09:10:16,10:53:17,NA,incomplete,false,NA,true,6,7,NA,NA,NA,right,present,NA,NA,n_l_023.jpg,blue,m_l_014.jpg,blue,within,NA,NaN,NA,right,3388,1,1,1289
M8jR0Pna,3odop6t3bvxisk3y617o3pei3yp24c,32m8bpygaxz4258eh7zjoeeukh5igt,M8jR0Pna,2020-0188,2021-10-14,09:10:16,10:53:17,NA,incomplete,false,NA,true,6,8,NA,NA,NA,right,present,NA,NA,m_l_073.jpg,red,m_s_097.jpg,red,within,NA,NaN,NA,right,2546,1,1,1688
M8jR0Pna,3odop6t3bvxisk3y617o3pei3yp24c,32m8bpygaxz4258eh7zjoeeukh5igt,M8jR0Pna,2020-0188,2021-10-14,09:10:16,10:53:17,NA,incomplete,false,NA,true,6,9,NA,NA,NA,left,present,NA,NA,n_l_102.jpg,blue,n_s_042.jpg,white,between,NA,NaN,NA,left,5532,1,0,1446
M8jR0Pna,3odop6t3bvxisk3y617o3pei3yp24c,32m8bpygaxz4258eh7zjoeeukh5igt,M8jR0Pna,2020-0188,2021-10-14,09:10:16,10:53:17,NA,incomplete,false,NA,true,6,10,NA,NA,NA,right,present,NA,NA,n_l_049.jpg,yellow,n_l_053.jpg,yellow,within,NA,NaN,NA,left,2415,0,2,3471
M8jR0Pna,3odop6t3bvxisk3y617o3pei3yp24c,32m8bpygaxz4258eh7zjoeeukh5igt,M8jR0Pna,2020-0188,2021-10-14,09:10:16,10:53:17,NA,incomplete,false,true,NA,7,0,NA,yellow,m_s_085.jpg,NA,NA,pleasant,unpleasant,NA,NA,NA,NA,NA,right,2056,true,NA,NA,NA,NA,NA
M8jR0Pna,3odop6t3bvxisk3y617o3pei3yp24c,32m8bpygaxz4258eh7zjoeeukh5igt,M8jR0Pna,2020-0188,2021-10-14,09:10:16,10:53:17,NA,incomplete,false,true,NA,7,1,NA,yellow,m_s_091.jpg,NA,NA,pleasant,unpleasant,NA,NA,NA,NA,NA,right,2498,true,NA,NA,NA,NA,NA
M8jR0Pna,3odop6t3bvxisk3y617o3pei3yp24c,32m8bpygaxz4258eh7zjoeeukh5igt,M8jR0Pna,2020-0188,2021-10-14,09:10:16,10:53:17,NA,incomplete,false,true,NA,7,2,NA,yellow,n_l_083.jpg,NA,NA,pleasant,unpleasant,NA,NA,NA,NA,NA,right,1305,true,NA,NA,NA,NA,NA
M8jR0Pna,3odop6t3bvxisk3y617o3pei3yp24c,32m8bpygaxz4258eh7zjoeeukh5igt,M8jR0Pna,2020-0188,2021-10-14,09:10:16,10:53:17,NA,incomplete,false,true,NA,7,3,NA,yellow,n_l_032.jpg,NA,NA,unpleasant,pleasant,NA,NA,NA,NA,NA,right,1793,true,NA,NA,NA,NA,NA
M8jR0Pna,3odop6t3bvxisk3y617o3pei3yp24c,32m8bpygaxz4258eh7zjoeeukh5igt,M8jR0Pna,2020-0188,2021-10-14,09:10:16,10:53:17,NA,incomplete,false,true,NA,7,4,NA,yellow,m_l_050.jpg,NA,NA,unpleasant,pleasant,NA,NA,NA,NA,NA,right,1286,true,NA,NA,NA,NA,NA
M8jR0Pna,3odop6t3bvxisk3y617o3pei3yp24c,32m8bpygaxz4258eh7zjoeeukh5igt,M8jR0Pna,2020-0188,2021-10-14,09:10:16,10:53:17,NA,incomplete,false,true,NA,7,5,NA,yellow,n_s_038.jpg,NA,NA,unpleasant,pleasant,NA,NA,NA,NA,NA,right,1380,true,NA,NA,NA,NA,NA
M8jR0Pna,3odop6t3bvxisk3y617o3pei3yp24c,32m8bpygaxz4258eh7zjoeeukh5igt,M8jR0Pna,2020-0188,2021-10-14,09:10:16,10:53:17,NA,incomplete,false,true,NA,7,6,NA,orange,n_s_013.jpg,NA,NA,pleasant,unpleasant,NA,NA,NA,NA,NA,left,1363,true,NA,NA,NA,NA,NA
M8jR0Pna,3odop6t3bvxisk3y617o3pei3yp24c,32m8bpygaxz4258eh7zjoeeukh5igt,M8jR0Pna,2020-0188,2021-10-14,09:10:16,10:53:17,NA,incomplete,false,true,NA,7,7,NA,orange,n_s_090.jpg,NA,NA,unpleasant,pleasant,NA,NA,NA,NA,NA,left,2271,true,NA,NA,NA,NA,NA
M8jR0Pna,3odop6t3bvxisk3y617o3pei3yp24c,32m8bpygaxz4258eh7zjoeeukh5igt,M8jR0Pna,2020-0188,2021-10-14,09:10:16,10:53:17,NA,incomplete,false,true,NA,7,8,NA,orange,m_s_016.jpg,NA,NA,unpleasant,pleasant,NA,NA,NA,NA,NA,right,1368,true,NA,NA,NA,NA,NA
M8jR0Pna,3odop6t3bvxisk3y617o3pei3yp24c,32m8bpygaxz4258eh7zjoeeukh5igt,M8jR0Pna,2020-0188,2021-10-14,09:10:16,10:53:17,NA,incomplete,false,true,NA,7,9,NA,orange,n_l_028.jpg,NA,NA,unpleasant,pleasant,NA,NA,NA,NA,NA,right,1504,true,NA,NA,NA,NA,NA
M8jR0Pna,3odop6t3bvxisk3y617o3pei3yp24c,32m8bpygaxz4258eh7zjoeeukh5igt,M8jR0Pna,2020-0188,2021-10-14,09:10:16,10:53:17,NA,incomplete,false,true,NA,7,10,NA,orange,m_s_039.jpg,NA,NA,pleasant,unpleasant,NA,NA,NA,NA,NA,right,1837,true,NA,NA,NA,NA,NA
M8jR0Pna,3odop6t3bvxisk3y617o3pei3yp24c,32m8bpygaxz4258eh7zjoeeukh5igt,M8jR0Pna,2020-0188,2021-10-14,09:10:16,10:53:17,NA,incomplete,false,true,NA,7,11,NA,orange,n_l_093.jpg,NA,NA,pleasant,unpleasant,NA,NA,NA,NA,NA,right,1327,true,NA,NA,NA,NA,NA
M8jR0Pna,3odop6t3bvxisk3y617o3pei3yp24c,32m8bpygaxz4258eh7zjoeeukh5igt,M8jR0Pna,2020-0188,2021-10-14,09:10:16,10:53:17,NA,incomplete,false,true,NA,7,12,NA,green,m_l_112.jpg,NA,NA,unpleasant,pleasant,NA,NA,NA,NA,NA,right,1209,true,NA,NA,NA,NA,NA
M8jR0Pna,3odop6t3bvxisk3y617o3pei3yp24c,32m8bpygaxz4258eh7zjoeeukh5igt,M8jR0Pna,2020-0188,2021-10-14,09:10:16,10:53:17,NA,incomplete,false,true,NA,7,13,NA,green,n_s_035.jpg,NA,NA,unpleasant,pleasant,NA,NA,NA,NA,NA,right,1267,true,NA,NA,NA,NA,NA
M8jR0Pna,3odop6t3bvxisk3y617o3pei3yp24c,32m8bpygaxz4258eh7zjoeeukh5igt,M8jR0Pna,2020-0188,2021-10-14,09:10:16,10:53:17,NA,incomplete,false,true,NA,7,14,NA,green,n_l_030.jpg,NA,NA,pleasant,unpleasant,NA,NA,NA,NA,NA,right,1377,true,NA,NA,NA,NA,NA
M8jR0Pna,3odop6t3bvxisk3y617o3pei3yp24c,32m8bpygaxz4258eh7zjoeeukh5igt,M8jR0Pna,2020-0188,2021-10-14,09:10:16,10:53:17,NA,incomplete,false,true,NA,7,15,NA,green,m_s_022.jpg,NA,NA,pleasant,unpleasant,NA,NA,NA,NA,NA,right,1935,true,NA,NA,NA,NA,NA
M8jR0Pna,3odop6t3bvxisk3y617o3pei3yp24c,32m8bpygaxz4258eh7zjoeeukh5igt,M8jR0Pna,2020-0188,2021-10-14,09:10:16,10:53:17,NA,incomplete,false,true,NA,7,16,NA,green,m_l_097.jpg,NA,NA,pleasant,unpleasant,NA,NA,NA,NA,NA,left,1301,true,NA,NA,NA,NA,NA
M8jR0Pna,3odop6t3bvxisk3y617o3pei3yp24c,32m8bpygaxz4258eh7zjoeeukh5igt,M8jR0Pna,2020-0188,2021-10-14,09:10:16,10:53:17,NA,incomplete,false,true,NA,7,17,NA,green,m_s_027.jpg,NA,NA,pleasant,unpleasant,NA,NA,NA,NA,NA,right,1487,true,NA,NA,NA,NA,NA
M8jR0Pna,3odop6t3bvxisk3y617o3pei3yp24c,32m8bpygaxz4258eh7zjoeeukh5igt,M8jR0Pna,2020-0188,2021-10-14,09:10:16,10:53:17,NA,incomplete,false,true,NA,7,18,NA,brown,n_s_113.jpg,NA,NA,unpleasant,pleasant,NA,NA,NA,NA,NA,right,1814,true,NA,NA,NA,NA,NA
M8jR0Pna,3odop6t3bvxisk3y617o3pei3yp24c,32m8bpygaxz4258eh7zjoeeukh5igt,M8jR0Pna,2020-0188,2021-10-14,09:10:16,10:53:17,NA,incomplete,false,true,NA,7,19,NA,brown,m_l_054.jpg,NA,NA,pleasant,unpleasant,NA,NA,NA,NA,NA,left,1763,true,NA,NA,NA,NA,NA
M8jR0Pna,3odop6t3bvxisk3y617o3pei3yp24c,32m8bpygaxz4258eh7zjoeeukh5igt,M8jR0Pna,2020-0188,2021-10-14,09:10:16,10:53:17,NA,incomplete,false,true,NA,7,20,NA,brown,n_l_059.jpg,NA,NA,pleasant,unpleasant,NA,NA,NA,NA,NA,right,1213,true,NA,NA,NA,NA,NA
M8jR0Pna,3odop6t3bvxisk3y617o3pei3yp24c,32m8bpygaxz4258eh7zjoeeukh5igt,M8jR0Pna,2020-0188,2021-10-14,09:10:16,10:53:17,NA,incomplete,false,true,NA,7,21,NA,brown,n_s_092.jpg,NA,NA,pleasant,unpleasant,NA,NA,NA,NA,NA,left,1278,true,NA,NA,NA,NA,NA
M8jR0Pna,3odop6t3bvxisk3y617o3pei3yp24c,32m8bpygaxz4258eh7zjoeeukh5igt,M8jR0Pna,2020-0188,2021-10-14,09:10:16,10:53:17,NA,incomplete,false,true,NA,7,22,NA,brown,n_s_028.jpg,NA,NA,unpleasant,pleasant,NA,NA,NA,NA,NA,right,1281,true,NA,NA,NA,NA,NA
M8jR0Pna,3odop6t3bvxisk3y617o3pei3yp24c,32m8bpygaxz4258eh7zjoeeukh5igt,M8jR0Pna,2020-0188,2021-10-14,09:10:16,10:53:17,NA,incomplete,false,true,NA,7,23,NA,brown,m_s_044.jpg,NA,NA,unpleasant,pleasant,NA,NA,NA,NA,NA,right,1352,true,NA,NA,NA,NA,NA
M8jR0Pna,3odop6t3bvxisk3y617o3pei3yp24c,32m8bpygaxz4258eh7zjoeeukh5igt,M8jR0Pna,2020-0188,2021-10-14,09:10:16,10:53:17,NA,incomplete,false,true,NA,7,24,NA,red,n_s_025.jpg,NA,NA,unpleasant,pleasant,NA,NA,NA,NA,NA,left,1925,true,NA,NA,NA,NA,NA
M8jR0Pna,3odop6t3bvxisk3y617o3pei3yp24c,32m8bpygaxz4258eh7zjoeeukh5igt,M8jR0Pna,2020-0188,2021-10-14,09:10:16,10:53:17,NA,incomplete,false,true,NA,7,25,NA,red,m_s_051.jpg,NA,NA,pleasant,unpleasant,NA,NA,NA,NA,NA,right,1637,true,NA,NA,NA,NA,NA
M8jR0Pna,3odop6t3bvxisk3y617o3pei3yp24c,32m8bpygaxz4258eh7zjoeeukh5igt,M8jR0Pna,2020-0188,2021-10-14,09:10:16,10:53:17,NA,incomplete,false,true,NA,7,26,NA,red,m_s_045.jpg,NA,NA,unpleasant,pleasant,NA,NA,NA,NA,NA,right,1367,true,NA,NA,NA,NA,NA
M8jR0Pna,3odop6t3bvxisk3y617o3pei3yp24c,32m8bpygaxz4258eh7zjoeeukh5igt,M8jR0Pna,2020-0188,2021-10-14,09:10:16,10:53:17,NA,incomplete,false,true,NA,7,27,NA,red,n_l_015.jpg,NA,NA,unpleasant,pleasant,NA,NA,NA,NA,NA,right,1328,true,NA,NA,NA,NA,NA
M8jR0Pna,3odop6t3bvxisk3y617o3pei3yp24c,32m8bpygaxz4258eh7zjoeeukh5igt,M8jR0Pna,2020-0188,2021-10-14,09:10:16,10:53:17,NA,incomplete,false,true,NA,7,28,NA,red,n_l_036.jpg,NA,NA,pleasant,unpleasant,NA,NA,NA,NA,NA,left,1612,true,NA,NA,NA,NA,NA
M8jR0Pna,3odop6t3bvxisk3y617o3pei3yp24c,32m8bpygaxz4258eh7zjoeeukh5igt,M8jR0Pna,2020-0188,2021-10-14,09:10:16,10:53:17,NA,incomplete,false,true,NA,7,29,NA,red,n_s_021.jpg,NA,NA,unpleasant,pleasant,NA,NA,NA,NA,NA,right,1420,true,NA,NA,NA,NA,NA
M8jR0Pna,3odop6t3bvxisk3y617o3pei3yp24c,32m8bpygaxz4258eh7zjoeeukh5igt,M8jR0Pna,2020-0188,2021-10-14,09:10:16,10:53:17,NA,incomplete,false,true,NA,7,30,NA,gray,m_s_028.jpg,NA,NA,unpleasant,pleasant,NA,NA,NA,NA,NA,right,1025,true,NA,NA,NA,NA,NA
M8jR0Pna,3odop6t3bvxisk3y617o3pei3yp24c,32m8bpygaxz4258eh7zjoeeukh5igt,M8jR0Pna,2020-0188,2021-10-14,09:10:16,10:53:17,NA,incomplete,false,true,NA,7,31,NA,gray,n_l_111.jpg,NA,NA,unpleasant,pleasant,NA,NA,NA,NA,NA,left,1956,true,NA,NA,NA,NA,NA
M8jR0Pna,3odop6t3bvxisk3y617o3pei3yp24c,32m8bpygaxz4258eh7zjoeeukh5igt,M8jR0Pna,2020-0188,2021-10-14,09:10:16,10:53:17,NA,incomplete,false,true,NA,7,32,NA,gray,n_s_068.jpg,NA,NA,unpleasant,pleasant,NA,NA,NA,NA,NA,right,1115,true,NA,NA,NA,NA,NA
M8jR0Pna,3odop6t3bvxisk3y617o3pei3yp24c,32m8bpygaxz4258eh7zjoeeukh5igt,M8jR0Pna,2020-0188,2021-10-14,09:10:16,10:53:17,NA,incomplete,false,true,NA,7,33,NA,gray,m_s_034.jpg,NA,NA,unpleasant,pleasant,NA,NA,NA,NA,NA,right,1242,true,NA,NA,NA,NA,NA
M8jR0Pna,3odop6t3bvxisk3y617o3pei3yp24c,32m8bpygaxz4258eh7zjoeeukh5igt,M8jR0Pna,2020-0188,2021-10-14,09:10:16,10:53:17,NA,incomplete,false,true,NA,7,34,NA,gray,m_s_042.jpg,NA,NA,unpleasant,pleasant,NA,NA,NA,NA,NA,right,1098,true,NA,NA,NA,NA,NA
M8jR0Pna,3odop6t3bvxisk3y617o3pei3yp24c,32m8bpygaxz4258eh7zjoeeukh5igt,M8jR0Pna,2020-0188,2021-10-14,09:10:16,10:53:17,NA,incomplete,false,true,NA,7,35,NA,gray,m_s_112.jpg,NA,NA,pleasant,unpleasant,NA,NA,NA,NA,NA,left,1308,true,NA,NA,NA,NA,NA
M8jR0Pna,3odop6t3bvxisk3y617o3pei3yp24c,32m8bpygaxz4258eh7zjoeeukh5igt,M8jR0Pna,2020-0188,2021-10-14,09:10:16,10:53:17,NA,incomplete,false,NA,true,7,0,NA,NA,NA,right,present,NA,NA,m_s_044.jpg,brown,m_l_054.jpg,brown,within,NA,NaN,NA,right,3134,1,2,1435
M8jR0Pna,3odop6t3bvxisk3y617o3pei3yp24c,32m8bpygaxz4258eh7zjoeeukh5igt,M8jR0Pna,2020-0188,2021-10-14,09:10:16,10:53:17,NA,incomplete,false,NA,true,7,1,NA,NA,NA,left,present,NA,NA,n_s_035.jpg,green,m_s_027.jpg,green,within,NA,NaN,NA,left,2261,1,2,1939
M8jR0Pna,3odop6t3bvxisk3y617o3pei3yp24c,32m8bpygaxz4258eh7zjoeeukh5igt,M8jR0Pna,2020-0188,2021-10-14,09:10:16,10:53:17,NA,incomplete,false,NA,true,7,2,NA,NA,NA,right,present,NA,NA,n_s_038.jpg,yellow,m_s_091.jpg,yellow,within,NA,NaN,NA,right,2911,1,2,2132
M8jR0Pna,3odop6t3bvxisk3y617o3pei3yp24c,32m8bpygaxz4258eh7zjoeeukh5igt,M8jR0Pna,2020-0188,2021-10-14,09:10:16,10:53:17,NA,incomplete,false,NA,true,7,3,NA,NA,NA,right,present,NA,NA,m_s_016.jpg,orange,m_l_050.jpg,yellow,between,NA,NaN,NA,right,2882,1,2,1266
M8jR0Pna,3odop6t3bvxisk3y617o3pei3yp24c,32m8bpygaxz4258eh7zjoeeukh5igt,M8jR0Pna,2020-0188,2021-10-14,09:10:16,10:53:17,NA,incomplete,false,NA,true,7,4,NA,NA,NA,left,present,NA,NA,n_l_036.jpg,red,n_s_068.jpg,gray,between,NA,NaN,NA,left,2053,1,1,2056
M8jR0Pna,3odop6t3bvxisk3y617o3pei3yp24c,32m8bpygaxz4258eh7zjoeeukh5igt,M8jR0Pna,2020-0188,2021-10-14,09:10:16,10:53:17,NA,incomplete,false,NA,true,7,5,NA,NA,NA,right,present,NA,NA,m_s_045.jpg,red,n_s_028.jpg,brown,between,NA,NaN,NA,right,4372,1,2,1865
M8jR0Pna,3odop6t3bvxisk3y617o3pei3yp24c,32m8bpygaxz4258eh7zjoeeukh5igt,M8jR0Pna,2020-0188,2021-10-14,09:10:16,10:53:17,NA,incomplete,false,NA,true,7,6,NA,NA,NA,right,present,NA,NA,m_s_112.jpg,gray,n_l_111.jpg,gray,within,NA,NaN,NA,right,3606,1,0,1487
M8jR0Pna,3odop6t3bvxisk3y617o3pei3yp24c,32m8bpygaxz4258eh7zjoeeukh5igt,M8jR0Pna,2020-0188,2021-10-14,09:10:16,10:53:17,NA,incomplete,false,NA,true,7,7,NA,NA,NA,right,present,NA,NA,n_l_030.jpg,green,m_s_039.jpg,orange,between,NA,NaN,NA,left,4215,0,1,2998
M8jR0Pna,3odop6t3bvxisk3y617o3pei3yp24c,32m8bpygaxz4258eh7zjoeeukh5igt,M8jR0Pna,2020-0188,2021-10-14,09:10:16,10:53:17,NA,incomplete,false,NA,true,7,8,NA,NA,NA,left,present,NA,NA,m_s_051.jpg,red,n_s_021.jpg,red,within,NA,NaN,NA,left,5423,1,0,1490
M8jR0Pna,3odop6t3bvxisk3y617o3pei3yp24c,32m8bpygaxz4258eh7zjoeeukh5igt,M8jR0Pna,2020-0188,2021-10-14,09:10:16,10:53:17,NA,incomplete,false,NA,true,7,9,NA,NA,NA,left,present,NA,NA,m_l_097.jpg,green,n_l_059.jpg,brown,between,NA,NaN,NA,left,4586,1,1,1458
M8jR0Pna,3odop6t3bvxisk3y617o3pei3yp24c,32m8bpygaxz4258eh7zjoeeukh5igt,M8jR0Pna,2020-0188,2021-10-14,09:10:16,10:53:17,NA,incomplete,false,NA,true,7,10,NA,NA,NA,right,present,NA,NA,n_l_093.jpg,orange,n_s_090.jpg,orange,within,NA,NaN,NA,right,11357,1,1,1835
M8jR0Pna,3odop6t3bvxisk3y617o3pei3yp24c,32m8bpygaxz4258eh7zjoeeukh5igt,M8jR0Pna,2020-0188,2021-10-14,09:10:16,10:53:17,NA,incomplete,false,true,NA,8,0,NA,orange,n_s_007.jpg,NA,NA,unpleasant,pleasant,NA,NA,NA,NA,NA,right,1877,true,NA,NA,NA,NA,NA
M8jR0Pna,3odop6t3bvxisk3y617o3pei3yp24c,32m8bpygaxz4258eh7zjoeeukh5igt,M8jR0Pna,2020-0188,2021-10-14,09:10:16,10:53:17,NA,incomplete,false,true,NA,8,1,NA,orange,n_l_092.jpg,NA,NA,pleasant,unpleasant,NA,NA,NA,NA,NA,right,1451,true,NA,NA,NA,NA,NA
M8jR0Pna,3odop6t3bvxisk3y617o3pei3yp24c,32m8bpygaxz4258eh7zjoeeukh5igt,M8jR0Pna,2020-0188,2021-10-14,09:10:16,10:53:17,NA,incomplete,false,true,NA,8,2,NA,orange,m_l_047.jpg,NA,NA,pleasant,unpleasant,NA,NA,NA,NA,NA,left,1712,true,NA,NA,NA,NA,NA
M8jR0Pna,3odop6t3bvxisk3y617o3pei3yp24c,32m8bpygaxz4258eh7zjoeeukh5igt,M8jR0Pna,2020-0188,2021-10-14,09:10:16,10:53:17,NA,incomplete,false,true,NA,8,3,NA,orange,n_s_040.jpg,NA,NA,pleasant,unpleasant,NA,NA,NA,NA,NA,right,1295,true,NA,NA,NA,NA,NA
M8jR0Pna,3odop6t3bvxisk3y617o3pei3yp24c,32m8bpygaxz4258eh7zjoeeukh5igt,M8jR0Pna,2020-0188,2021-10-14,09:10:16,10:53:17,NA,incomplete,false,true,NA,8,4,NA,orange,m_l_027.jpg,NA,NA,unpleasant,pleasant,NA,NA,NA,NA,NA,left,1444,true,NA,NA,NA,NA,NA
M8jR0Pna,3odop6t3bvxisk3y617o3pei3yp24c,32m8bpygaxz4258eh7zjoeeukh5igt,M8jR0Pna,2020-0188,2021-10-14,09:10:16,10:53:17,NA,incomplete,false,true,NA,8,5,NA,orange,n_s_050.jpg,NA,NA,pleasant,unpleasant,NA,NA,NA,NA,NA,right,1618,true,NA,NA,NA,NA,NA
M8jR0Pna,3odop6t3bvxisk3y617o3pei3yp24c,32m8bpygaxz4258eh7zjoeeukh5igt,M8jR0Pna,2020-0188,2021-10-14,09:10:16,10:53:17,NA,incomplete,false,true,NA,8,6,NA,yellow,m_s_114.jpg,NA,NA,unpleasant,pleasant,NA,NA,NA,NA,NA,right,1661,true,NA,NA,NA,NA,NA
M8jR0Pna,3odop6t3bvxisk3y617o3pei3yp24c,32m8bpygaxz4258eh7zjoeeukh5igt,M8jR0Pna,2020-0188,2021-10-14,09:10:16,10:53:17,NA,incomplete,false,true,NA,8,7,NA,yellow,m_l_053.jpg,NA,NA,unpleasant,pleasant,NA,NA,NA,NA,NA,right,1367,true,NA,NA,NA,NA,NA
M8jR0Pna,3odop6t3bvxisk3y617o3pei3yp24c,32m8bpygaxz4258eh7zjoeeukh5igt,M8jR0Pna,2020-0188,2021-10-14,09:10:16,10:53:17,NA,incomplete,false,true,NA,8,8,NA,yellow,n_s_014.jpg,NA,NA,unpleasant,pleasant,NA,NA,NA,NA,NA,left,1767,true,NA,NA,NA,NA,NA
M8jR0Pna,3odop6t3bvxisk3y617o3pei3yp24c,32m8bpygaxz4258eh7zjoeeukh5igt,M8jR0Pna,2020-0188,2021-10-14,09:10:16,10:53:17,NA,incomplete,false,true,NA,8,9,NA,yellow,n_l_050.jpg,NA,NA,pleasant,unpleasant,NA,NA,NA,NA,NA,left,1584,true,NA,NA,NA,NA,NA
M8jR0Pna,3odop6t3bvxisk3y617o3pei3yp24c,32m8bpygaxz4258eh7zjoeeukh5igt,M8jR0Pna,2020-0188,2021-10-14,09:10:16,10:53:17,NA,incomplete,false,true,NA,8,10,NA,yellow,m_s_056.jpg,NA,NA,unpleasant,pleasant,NA,NA,NA,NA,NA,right,1401,true,NA,NA,NA,NA,NA
M8jR0Pna,3odop6t3bvxisk3y617o3pei3yp24c,32m8bpygaxz4258eh7zjoeeukh5igt,M8jR0Pna,2020-0188,2021-10-14,09:10:16,10:53:17,NA,incomplete,false,true,NA,8,11,NA,yellow,m_s_035.jpg,NA,NA,pleasant,unpleasant,NA,NA,NA,NA,NA,left,1408,true,NA,NA,NA,NA,NA
M8jR0Pna,3odop6t3bvxisk3y617o3pei3yp24c,32m8bpygaxz4258eh7zjoeeukh5igt,M8jR0Pna,2020-0188,2021-10-14,09:10:16,10:53:17,NA,incomplete,false,true,NA,8,12,NA,green,n_l_003.jpg,NA,NA,pleasant,unpleasant,NA,NA,NA,NA,NA,right,1587,true,NA,NA,NA,NA,NA
M8jR0Pna,3odop6t3bvxisk3y617o3pei3yp24c,32m8bpygaxz4258eh7zjoeeukh5igt,M8jR0Pna,2020-0188,2021-10-14,09:10:16,10:53:17,NA,incomplete,false,true,NA,8,13,NA,green,m_l_006.jpg,NA,NA,unpleasant,pleasant,NA,NA,NA,NA,NA,right,1154,true,NA,NA,NA,NA,NA
M8jR0Pna,3odop6t3bvxisk3y617o3pei3yp24c,32m8bpygaxz4258eh7zjoeeukh5igt,M8jR0Pna,2020-0188,2021-10-14,09:10:16,10:53:17,NA,incomplete,false,true,NA,8,14,NA,green,m_s_047.jpg,NA,NA,pleasant,unpleasant,NA,NA,NA,NA,NA,right,1808,true,NA,NA,NA,NA,NA
M8jR0Pna,3odop6t3bvxisk3y617o3pei3yp24c,32m8bpygaxz4258eh7zjoeeukh5igt,M8jR0Pna,2020-0188,2021-10-14,09:10:16,10:53:17,NA,incomplete,false,true,NA,8,15,NA,green,m_l_024.jpg,NA,NA,pleasant,unpleasant,NA,NA,NA,NA,NA,left,1403,true,NA,NA,NA,NA,NA
M8jR0Pna,3odop6t3bvxisk3y617o3pei3yp24c,32m8bpygaxz4258eh7zjoeeukh5igt,M8jR0Pna,2020-0188,2021-10-14,09:10:16,10:53:17,NA,incomplete,false,true,NA,8,16,NA,green,n_s_080.jpg,NA,NA,unpleasant,pleasant,NA,NA,NA,NA,NA,left,1277,true,NA,NA,NA,NA,NA
M8jR0Pna,3odop6t3bvxisk3y617o3pei3yp24c,32m8bpygaxz4258eh7zjoeeukh5igt,M8jR0Pna,2020-0188,2021-10-14,09:10:16,10:53:17,NA,incomplete,false,true,NA,8,17,NA,green,n_l_022.jpg,NA,NA,unpleasant,pleasant,NA,NA,NA,NA,NA,right,1957,true,NA,NA,NA,NA,NA
M8jR0Pna,3odop6t3bvxisk3y617o3pei3yp24c,32m8bpygaxz4258eh7zjoeeukh5igt,M8jR0Pna,2020-0188,2021-10-14,09:10:16,10:53:17,NA,incomplete,false,true,NA,8,18,NA,red,n_l_112.jpg,NA,NA,unpleasant,pleasant,NA,NA,NA,NA,NA,right,1447,true,NA,NA,NA,NA,NA
M8jR0Pna,3odop6t3bvxisk3y617o3pei3yp24c,32m8bpygaxz4258eh7zjoeeukh5igt,M8jR0Pna,2020-0188,2021-10-14,09:10:16,10:53:17,NA,incomplete,false,true,NA,8,19,NA,red,m_l_005.jpg,NA,NA,pleasant,unpleasant,NA,NA,NA,NA,NA,right,2233,true,NA,NA,NA,NA,NA
M8jR0Pna,3odop6t3bvxisk3y617o3pei3yp24c,32m8bpygaxz4258eh7zjoeeukh5igt,M8jR0Pna,2020-0188,2021-10-14,09:10:16,10:53:17,NA,incomplete,false,true,NA,8,20,NA,red,n_s_064.jpg,NA,NA,pleasant,unpleasant,NA,NA,NA,NA,NA,right,1405,true,NA,NA,NA,NA,NA
M8jR0Pna,3odop6t3bvxisk3y617o3pei3yp24c,32m8bpygaxz4258eh7zjoeeukh5igt,M8jR0Pna,2020-0188,2021-10-14,09:10:16,10:53:17,NA,incomplete,false,true,NA,8,21,NA,red,m_l_102.jpg,NA,NA,pleasant,unpleasant,NA,NA,NA,NA,NA,left,1533,true,NA,NA,NA,NA,NA
M8jR0Pna,3odop6t3bvxisk3y617o3pei3yp24c,32m8bpygaxz4258eh7zjoeeukh5igt,M8jR0Pna,2020-0188,2021-10-14,09:10:16,10:53:17,NA,incomplete,false,true,NA,8,22,NA,red,m_s_086.jpg,NA,NA,unpleasant,pleasant,NA,NA,NA,NA,NA,left,1694,true,NA,NA,NA,NA,NA
M8jR0Pna,3odop6t3bvxisk3y617o3pei3yp24c,32m8bpygaxz4258eh7zjoeeukh5igt,M8jR0Pna,2020-0188,2021-10-14,09:10:16,10:53:17,NA,incomplete,false,true,NA,8,23,NA,red,n_l_087.jpg,NA,NA,unpleasant,pleasant,NA,NA,NA,NA,NA,right,1382,true,NA,NA,NA,NA,NA
M8jR0Pna,3odop6t3bvxisk3y617o3pei3yp24c,32m8bpygaxz4258eh7zjoeeukh5igt,M8jR0Pna,2020-0188,2021-10-14,09:10:16,10:53:17,NA,incomplete,false,true,NA,8,24,NA,blue,m_l_100.jpg,NA,NA,unpleasant,pleasant,NA,NA,NA,NA,NA,right,1431,true,NA,NA,NA,NA,NA
M8jR0Pna,3odop6t3bvxisk3y617o3pei3yp24c,32m8bpygaxz4258eh7zjoeeukh5igt,M8jR0Pna,2020-0188,2021-10-14,09:10:16,10:53:17,NA,incomplete,false,true,NA,8,25,NA,blue,n_s_032.jpg,NA,NA,pleasant,unpleasant,NA,NA,NA,NA,NA,left,1528,true,NA,NA,NA,NA,NA
M8jR0Pna,3odop6t3bvxisk3y617o3pei3yp24c,32m8bpygaxz4258eh7zjoeeukh5igt,M8jR0Pna,2020-0188,2021-10-14,09:10:16,10:53:17,NA,incomplete,false,true,NA,8,26,NA,blue,n_l_055.jpg,NA,NA,pleasant,unpleasant,NA,NA,NA,NA,NA,right,1213,true,NA,NA,NA,NA,NA
M8jR0Pna,3odop6t3bvxisk3y617o3pei3yp24c,32m8bpygaxz4258eh7zjoeeukh5igt,M8jR0Pna,2020-0188,2021-10-14,09:10:16,10:53:17,NA,incomplete,false,true,NA,8,27,NA,blue,n_s_089.jpg,NA,NA,pleasant,unpleasant,NA,NA,NA,NA,NA,left,1362,true,NA,NA,NA,NA,NA
M8jR0Pna,3odop6t3bvxisk3y617o3pei3yp24c,32m8bpygaxz4258eh7zjoeeukh5igt,M8jR0Pna,2020-0188,2021-10-14,09:10:16,10:53:17,NA,incomplete,false,true,NA,8,28,NA,blue,m_l_115.jpg,NA,NA,pleasant,unpleasant,NA,NA,NA,NA,NA,left,1192,true,NA,NA,NA,NA,NA
