workerId,hitId,assignmentId,subject,studyid,exp_date,exp_start,exp_end,time_start,time_end,practice,encoding,memory,block,trial,event_order,event,stim,answer,context_type,label_left,label_right,left_image,left_event,right_image,right_event,condition,response,response_time,response_acc,order_response,order_response_time,order_acc,distance_response,distance_response_time
Me1JvBIm,3e6l1vr4yzzg81jodkfak6sl8ztf6z,3leiz60cdncbilag35hvwsvxct09z2,Me1JvBIm,2020-0188,2021-10-17,10:42:31,12:06:32,NA,incomplete,true,true,NA,0,0,NA,gray,n_l_039.jpg,NA,NA,pleasant,unpleasant,NA,NA,NA,NA,NA,right,2812,true,NA,NA,NA,NA,NA
Me1JvBIm,3e6l1vr4yzzg81jodkfak6sl8ztf6z,3leiz60cdncbilag35hvwsvxct09z2,Me1JvBIm,2020-0188,2021-10-17,10:42:31,12:06:32,NA,incomplete,true,true,NA,0,1,NA,gray,n_s_062.jpg,NA,NA,unpleasant,pleasant,NA,NA,NA,NA,NA,left,1423.69999998808,true,NA,NA,NA,NA,NA
Me1JvBIm,3e6l1vr4yzzg81jodkfak6sl8ztf6z,3leiz60cdncbilag35hvwsvxct09z2,Me1JvBIm,2020-0188,2021-10-17,10:42:31,12:06:32,NA,incomplete,true,true,NA,0,2,NA,gray,m_l_031.jpg,NA,NA,unpleasant,pleasant,NA,NA,NA,NA,NA,left,1572,true,NA,NA,NA,NA,NA
Me1JvBIm,3e6l1vr4yzzg81jodkfak6sl8ztf6z,3leiz60cdncbilag35hvwsvxct09z2,Me1JvBIm,2020-0188,2021-10-17,10:42:31,12:06:32,NA,incomplete,true,true,NA,0,3,NA,gray,m_s_050.jpg,NA,NA,unpleasant,pleasant,NA,NA,NA,NA,NA,right,2358,true,NA,NA,NA,NA,NA
Me1JvBIm,3e6l1vr4yzzg81jodkfak6sl8ztf6z,3leiz60cdncbilag35hvwsvxct09z2,Me1JvBIm,2020-0188,2021-10-17,10:42:31,12:06:32,NA,incomplete,true,true,NA,0,4,NA,gray,n_s_012.jpg,NA,NA,pleasant,unpleasant,NA,NA,NA,NA,NA,right,1917,true,NA,NA,NA,NA,NA
Me1JvBIm,3e6l1vr4yzzg81jodkfak6sl8ztf6z,3leiz60cdncbilag35hvwsvxct09z2,Me1JvBIm,2020-0188,2021-10-17,10:42:31,12:06:32,NA,incomplete,true,true,NA,0,5,NA,gray,n_l_053.jpg,NA,NA,pleasant,unpleasant,NA,NA,NA,NA,NA,left,1969.19999998808,true,NA,NA,NA,NA,NA
Me1JvBIm,3e6l1vr4yzzg81jodkfak6sl8ztf6z,3leiz60cdncbilag35hvwsvxct09z2,Me1JvBIm,2020-0188,2021-10-17,10:42:31,12:06:32,NA,incomplete,true,true,NA,0,6,NA,purple,m_l_114.jpg,NA,NA,pleasant,unpleasant,NA,NA,NA,NA,NA,left,1803.5,true,NA,NA,NA,NA,NA
Me1JvBIm,3e6l1vr4yzzg81jodkfak6sl8ztf6z,3leiz60cdncbilag35hvwsvxct09z2,Me1JvBIm,2020-0188,2021-10-17,10:42:31,12:06:32,NA,incomplete,true,true,NA,0,7,NA,purple,n_l_001.jpg,NA,NA,pleasant,unpleasant,NA,NA,NA,NA,NA,left,1546.40000000596,true,NA,NA,NA,NA,NA
Me1JvBIm,3e6l1vr4yzzg81jodkfak6sl8ztf6z,3leiz60cdncbilag35hvwsvxct09z2,Me1JvBIm,2020-0188,2021-10-17,10:42:31,12:06:32,NA,incomplete,true,true,NA,0,8,NA,purple,n_l_064.jpg,NA,NA,pleasant,unpleasant,NA,NA,NA,NA,NA,left,1011.09999999404,true,NA,NA,NA,NA,NA
Me1JvBIm,3e6l1vr4yzzg81jodkfak6sl8ztf6z,3leiz60cdncbilag35hvwsvxct09z2,Me1JvBIm,2020-0188,2021-10-17,10:42:31,12:06:32,NA,incomplete,true,true,NA,0,9,NA,purple,m_l_007.jpg,NA,NA,pleasant,unpleasant,NA,NA,NA,NA,NA,left,1389.19999998808,true,NA,NA,NA,NA,NA
Me1JvBIm,3e6l1vr4yzzg81jodkfak6sl8ztf6z,3leiz60cdncbilag35hvwsvxct09z2,Me1JvBIm,2020-0188,2021-10-17,10:42:31,12:06:32,NA,incomplete,true,true,NA,0,10,NA,purple,m_l_025.jpg,NA,NA,unpleasant,pleasant,NA,NA,NA,NA,NA,left,1139.20000001788,true,NA,NA,NA,NA,NA
Me1JvBIm,3e6l1vr4yzzg81jodkfak6sl8ztf6z,3leiz60cdncbilag35hvwsvxct09z2,Me1JvBIm,2020-0188,2021-10-17,10:42:31,12:06:32,NA,incomplete,true,true,NA,0,11,NA,purple,m_s_037.jpg,NA,NA,unpleasant,pleasant,NA,NA,NA,NA,NA,right,1211.80000001192,true,NA,NA,NA,NA,NA
Me1JvBIm,3e6l1vr4yzzg81jodkfak6sl8ztf6z,3leiz60cdncbilag35hvwsvxct09z2,Me1JvBIm,2020-0188,2021-10-17,10:42:31,12:06:32,NA,incomplete,true,true,NA,0,12,NA,black,m_s_022.jpg,NA,NA,unpleasant,pleasant,NA,NA,NA,NA,NA,right,2695.19999998808,true,NA,NA,NA,NA,NA
Me1JvBIm,3e6l1vr4yzzg81jodkfak6sl8ztf6z,3leiz60cdncbilag35hvwsvxct09z2,Me1JvBIm,2020-0188,2021-10-17,10:42:31,12:06:32,NA,incomplete,true,true,NA,0,13,NA,black,n_s_099.jpg,NA,NA,unpleasant,pleasant,NA,NA,NA,NA,NA,none,0,false,NA,NA,NA,NA,NA
Me1JvBIm,3e6l1vr4yzzg81jodkfak6sl8ztf6z,3leiz60cdncbilag35hvwsvxct09z2,Me1JvBIm,2020-0188,2021-10-17,10:42:31,12:06:32,NA,incomplete,true,true,NA,0,14,NA,black,m_l_040.jpg,NA,NA,unpleasant,pleasant,NA,NA,NA,NA,NA,right,1414,true,NA,NA,NA,NA,NA
Me1JvBIm,3e6l1vr4yzzg81jodkfak6sl8ztf6z,3leiz60cdncbilag35hvwsvxct09z2,Me1JvBIm,2020-0188,2021-10-17,10:42:31,12:06:32,NA,incomplete,true,true,NA,0,15,NA,black,m_s_015.jpg,NA,NA,unpleasant,pleasant,NA,NA,NA,NA,NA,right,1107.09999999404,true,NA,NA,NA,NA,NA
Me1JvBIm,3e6l1vr4yzzg81jodkfak6sl8ztf6z,3leiz60cdncbilag35hvwsvxct09z2,Me1JvBIm,2020-0188,2021-10-17,10:42:31,12:06:32,NA,incomplete,true,true,NA,0,16,NA,black,n_s_019.jpg,NA,NA,pleasant,unpleasant,NA,NA,NA,NA,NA,right,1906.90000000596,true,NA,NA,NA,NA,NA
Me1JvBIm,3e6l1vr4yzzg81jodkfak6sl8ztf6z,3leiz60cdncbilag35hvwsvxct09z2,Me1JvBIm,2020-0188,2021-10-17,10:42:31,12:06:32,NA,incomplete,true,true,NA,0,17,NA,black,m_s_014.jpg,NA,NA,pleasant,unpleasant,NA,NA,NA,NA,NA,left,1906.80000001192,true,NA,NA,NA,NA,NA
Me1JvBIm,3e6l1vr4yzzg81jodkfak6sl8ztf6z,3leiz60cdncbilag35hvwsvxct09z2,Me1JvBIm,2020-0188,2021-10-17,10:42:31,12:06:32,NA,incomplete,true,true,NA,0,18,NA,brown,m_l_016.jpg,NA,NA,unpleasant,pleasant,NA,NA,NA,NA,NA,right,2338.90000000596,true,NA,NA,NA,NA,NA
Me1JvBIm,3e6l1vr4yzzg81jodkfak6sl8ztf6z,3leiz60cdncbilag35hvwsvxct09z2,Me1JvBIm,2020-0188,2021-10-17,10:42:31,12:06:32,NA,incomplete,true,true,NA,0,19,NA,brown,n_s_065.jpg,NA,NA,unpleasant,pleasant,NA,NA,NA,NA,NA,right,2001.20000001788,true,NA,NA,NA,NA,NA
Me1JvBIm,3e6l1vr4yzzg81jodkfak6sl8ztf6z,3leiz60cdncbilag35hvwsvxct09z2,Me1JvBIm,2020-0188,2021-10-17,10:42:31,12:06:32,NA,incomplete,true,true,NA,0,20,NA,brown,n_s_113.jpg,NA,NA,unpleasant,pleasant,NA,NA,NA,NA,NA,left,2528.60000002384,true,NA,NA,NA,NA,NA
Me1JvBIm,3e6l1vr4yzzg81jodkfak6sl8ztf6z,3leiz60cdncbilag35hvwsvxct09z2,Me1JvBIm,2020-0188,2021-10-17,10:42:31,12:06:32,NA,incomplete,true,true,NA,0,21,NA,brown,n_s_064.jpg,NA,NA,pleasant,unpleasant,NA,NA,NA,NA,NA,right,1621.59999999404,true,NA,NA,NA,NA,NA
Me1JvBIm,3e6l1vr4yzzg81jodkfak6sl8ztf6z,3leiz60cdncbilag35hvwsvxct09z2,Me1JvBIm,2020-0188,2021-10-17,10:42:31,12:06:32,NA,incomplete,true,true,NA,0,22,NA,brown,n_l_100.jpg,NA,NA,unpleasant,pleasant,NA,NA,NA,NA,NA,right,1460.5,true,NA,NA,NA,NA,NA
Me1JvBIm,3e6l1vr4yzzg81jodkfak6sl8ztf6z,3leiz60cdncbilag35hvwsvxct09z2,Me1JvBIm,2020-0188,2021-10-17,10:42:31,12:06:32,NA,incomplete,true,true,NA,0,23,NA,brown,n_s_027.jpg,NA,NA,pleasant,unpleasant,NA,NA,NA,NA,NA,left,1438.09999999404,true,NA,NA,NA,NA,NA
Me1JvBIm,3e6l1vr4yzzg81jodkfak6sl8ztf6z,3leiz60cdncbilag35hvwsvxct09z2,Me1JvBIm,2020-0188,2021-10-17,10:42:31,12:06:32,NA,incomplete,true,true,NA,0,24,NA,yellow,n_l_047.jpg,NA,NA,unpleasant,pleasant,NA,NA,NA,NA,NA,left,1553.09999999404,true,NA,NA,NA,NA,NA
Me1JvBIm,3e6l1vr4yzzg81jodkfak6sl8ztf6z,3leiz60cdncbilag35hvwsvxct09z2,Me1JvBIm,2020-0188,2021-10-17,10:42:31,12:06:32,NA,incomplete,true,true,NA,0,25,NA,yellow,m_l_085.jpg,NA,NA,unpleasant,pleasant,NA,NA,NA,NA,NA,left,2064.59999999404,true,NA,NA,NA,NA,NA
Me1JvBIm,3e6l1vr4yzzg81jodkfak6sl8ztf6z,3leiz60cdncbilag35hvwsvxct09z2,Me1JvBIm,2020-0188,2021-10-17,10:42:31,12:06:32,NA,incomplete,true,true,NA,0,26,NA,yellow,n_l_030.jpg,NA,NA,unpleasant,pleasant,NA,NA,NA,NA,NA,right,1553.59999999404,true,NA,NA,NA,NA,NA
Me1JvBIm,3e6l1vr4yzzg81jodkfak6sl8ztf6z,3leiz60cdncbilag35hvwsvxct09z2,Me1JvBIm,2020-0188,2021-10-17,10:42:31,12:06:32,NA,incomplete,true,true,NA,0,27,NA,yellow,n_s_033.jpg,NA,NA,unpleasant,pleasant,NA,NA,NA,NA,NA,left,1492.40000000596,true,NA,NA,NA,NA,NA
Me1JvBIm,3e6l1vr4yzzg81jodkfak6sl8ztf6z,3leiz60cdncbilag35hvwsvxct09z2,Me1JvBIm,2020-0188,2021-10-17,10:42:31,12:06:32,NA,incomplete,true,true,NA,0,28,NA,yellow,m_s_020.jpg,NA,NA,pleasant,unpleasant,NA,NA,NA,NA,NA,left,1086.70000001788,true,NA,NA,NA,NA,NA
Me1JvBIm,3e6l1vr4yzzg81jodkfak6sl8ztf6z,3leiz60cdncbilag35hvwsvxct09z2,Me1JvBIm,2020-0188,2021-10-17,10:42:31,12:06:32,NA,incomplete,true,true,NA,0,29,NA,yellow,m_s_061.jpg,NA,NA,pleasant,unpleasant,NA,NA,NA,NA,NA,left,696.90000000596,true,NA,NA,NA,NA,NA
Me1JvBIm,3e6l1vr4yzzg81jodkfak6sl8ztf6z,3leiz60cdncbilag35hvwsvxct09z2,Me1JvBIm,2020-0188,2021-10-17,10:42:31,12:06:32,NA,incomplete,true,true,NA,0,30,NA,blue,m_l_109.jpg,NA,NA,pleasant,unpleasant,NA,NA,NA,NA,NA,left,638.100000023842,true,NA,NA,NA,NA,NA
Me1JvBIm,3e6l1vr4yzzg81jodkfak6sl8ztf6z,3leiz60cdncbilag35hvwsvxct09z2,Me1JvBIm,2020-0188,2021-10-17,10:42:31,12:06:32,NA,incomplete,true,true,NA,0,31,NA,blue,n_s_060.jpg,NA,NA,unpleasant,pleasant,NA,NA,NA,NA,NA,right,1148,true,NA,NA,NA,NA,NA
Me1JvBIm,3e6l1vr4yzzg81jodkfak6sl8ztf6z,3leiz60cdncbilag35hvwsvxct09z2,Me1JvBIm,2020-0188,2021-10-17,10:42:31,12:06:32,NA,incomplete,true,true,NA,0,32,NA,blue,m_l_062.jpg,NA,NA,pleasant,unpleasant,NA,NA,NA,NA,NA,left,513.40000000596,true,NA,NA,NA,NA,NA
Me1JvBIm,3e6l1vr4yzzg81jodkfak6sl8ztf6z,3leiz60cdncbilag35hvwsvxct09z2,Me1JvBIm,2020-0188,2021-10-17,10:42:31,12:06:32,NA,incomplete,true,true,NA,0,33,NA,blue,m_l_018.jpg,NA,NA,unpleasant,pleasant,NA,NA,NA,NA,NA,right,920.40000000596,true,NA,NA,NA,NA,NA
Me1JvBIm,3e6l1vr4yzzg81jodkfak6sl8ztf6z,3leiz60cdncbilag35hvwsvxct09z2,Me1JvBIm,2020-0188,2021-10-17,10:42:31,12:06:32,NA,incomplete,true,true,NA,0,34,NA,blue,m_l_015.jpg,NA,NA,pleasant,unpleasant,NA,NA,NA,NA,NA,left,269.299999982119,true,NA,NA,NA,NA,NA
Me1JvBIm,3e6l1vr4yzzg81jodkfak6sl8ztf6z,3leiz60cdncbilag35hvwsvxct09z2,Me1JvBIm,2020-0188,2021-10-17,10:42:31,12:06:32,NA,incomplete,true,true,NA,0,35,NA,blue,m_s_113.jpg,NA,NA,pleasant,unpleasant,NA,NA,NA,NA,NA,left,1200.40000000596,true,NA,NA,NA,NA,NA
Me1JvBIm,3e6l1vr4yzzg81jodkfak6sl8ztf6z,3leiz60cdncbilag35hvwsvxct09z2,Me1JvBIm,2020-0188,2021-10-17,10:42:31,12:06:32,NA,incomplete,true,NA,true,0,0,NA,NA,NA,left,absent,NA,NA,n_l_100.jpg,brown,n_l_030.jpg,yellow,between,NA,NaN,NA,left,3730.300000011921,1,2,4869.199999988079
Me1JvBIm,3e6l1vr4yzzg81jodkfak6sl8ztf6z,3leiz60cdncbilag35hvwsvxct09z2,Me1JvBIm,2020-0188,2021-10-17,10:42:31,12:06:32,NA,incomplete,true,NA,true,0,1,NA,NA,NA,right,absent,NA,NA,m_s_061.jpg,yellow,m_l_085.jpg,yellow,within,NA,NaN,NA,left,4678.299999982119,0,1,1547.5
Me1JvBIm,3e6l1vr4yzzg81jodkfak6sl8ztf6z,3leiz60cdncbilag35hvwsvxct09z2,Me1JvBIm,2020-0188,2021-10-17,10:42:31,12:06:32,NA,incomplete,true,NA,true,0,2,NA,NA,NA,right,absent,NA,NA,m_s_037.jpg,purple,n_l_001.jpg,purple,within,NA,NaN,NA,right,8044.5999999940395,1,3,2258.5
Me1JvBIm,3e6l1vr4yzzg81jodkfak6sl8ztf6z,3leiz60cdncbilag35hvwsvxct09z2,Me1JvBIm,2020-0188,2021-10-17,10:42:31,12:06:32,NA,incomplete,true,NA,true,0,3,NA,NA,NA,left,present,NA,NA,n_s_099.jpg,black,m_s_014.jpg,black,within,NA,NaN,NA,left,5362.700000017881,1,0,2410.800000011921
Me1JvBIm,3e6l1vr4yzzg81jodkfak6sl8ztf6z,3leiz60cdncbilag35hvwsvxct09z2,Me1JvBIm,2020-0188,2021-10-17,10:42:31,12:06:32,NA,incomplete,true,NA,true,0,4,NA,NA,NA,right,absent,NA,NA,n_l_053.jpg,gray,n_s_062.jpg,gray,within,NA,NaN,NA,left,5585,0,2,2590.2000000178814
Me1JvBIm,3e6l1vr4yzzg81jodkfak6sl8ztf6z,3leiz60cdncbilag35hvwsvxct09z2,Me1JvBIm,2020-0188,2021-10-17,10:42:31,12:06:32,NA,incomplete,true,NA,true,0,5,NA,NA,NA,right,present,NA,NA,m_l_062.jpg,blue,m_s_020.jpg,yellow,between,NA,NaN,NA,right,4888.800000011921,1,2,2411.0999999940395
Me1JvBIm,3e6l1vr4yzzg81jodkfak6sl8ztf6z,3leiz60cdncbilag35hvwsvxct09z2,Me1JvBIm,2020-0188,2021-10-17,10:42:31,12:06:32,NA,incomplete,true,NA,true,0,6,NA,NA,NA,right,absent,NA,NA,m_s_113.jpg,blue,n_s_060.jpg,blue,within,NA,NaN,NA,right,2522.100000023842,1,2,1402.5999999940395
Me1JvBIm,3e6l1vr4yzzg81jodkfak6sl8ztf6z,3leiz60cdncbilag35hvwsvxct09z2,Me1JvBIm,2020-0188,2021-10-17,10:42:31,12:06:32,NA,incomplete,true,NA,true,0,7,NA,NA,NA,right,absent,NA,NA,n_l_064.jpg,purple,n_s_012.jpg,gray,between,NA,NaN,NA,left,2817.0999999940395,0,2,1450.2999999821186
Me1JvBIm,3e6l1vr4yzzg81jodkfak6sl8ztf6z,3leiz60cdncbilag35hvwsvxct09z2,Me1JvBIm,2020-0188,2021-10-17,10:42:31,12:06:32,NA,incomplete,true,NA,true,0,8,NA,NA,NA,right,absent,NA,NA,n_s_027.jpg,brown,n_s_065.jpg,brown,within,NA,NaN,NA,left,5138.4000000059605,0,1,2007
Me1JvBIm,3e6l1vr4yzzg81jodkfak6sl8ztf6z,3leiz60cdncbilag35hvwsvxct09z2,Me1JvBIm,2020-0188,2021-10-17,10:42:31,12:06:32,NA,incomplete,true,NA,true,0,9,NA,NA,NA,right,absent,NA,NA,n_s_113.jpg,brown,n_s_019.jpg,black,between,NA,NaN,NA,left,3000.5,0,2,2796.9000000059605
Me1JvBIm,3e6l1vr4yzzg81jodkfak6sl8ztf6z,3leiz60cdncbilag35hvwsvxct09z2,Me1JvBIm,2020-0188,2021-10-17,10:42:31,12:06:32,NA,incomplete,true,NA,true,0,10,NA,NA,NA,right,absent,NA,NA,m_l_040.jpg,black,m_l_025.jpg,purple,between,NA,NaN,NA,right,4676.5,1,2,1386.4000000059605
Me1JvBIm,3e6l1vr4yzzg81jodkfak6sl8ztf6z,3leiz60cdncbilag35hvwsvxct09z2,Me1JvBIm,2020-0188,2021-10-17,10:42:31,12:06:32,NA,incomplete,false,true,NA,1,0,NA,red,n_s_024.jpg,NA,NA,pleasant,unpleasant,NA,NA,NA,NA,NA,right,1460.40000000596,true,NA,NA,NA,NA,NA
Me1JvBIm,3e6l1vr4yzzg81jodkfak6sl8ztf6z,3leiz60cdncbilag35hvwsvxct09z2,Me1JvBIm,2020-0188,2021-10-17,10:42:31,12:06:32,NA,incomplete,false,true,NA,1,1,NA,red,n_l_072.jpg,NA,NA,unpleasant,pleasant,NA,NA,NA,NA,NA,left,2169.40000000596,true,NA,NA,NA,NA,NA
Me1JvBIm,3e6l1vr4yzzg81jodkfak6sl8ztf6z,3leiz60cdncbilag35hvwsvxct09z2,Me1JvBIm,2020-0188,2021-10-17,10:42:31,12:06:32,NA,incomplete,false,true,NA,1,2,NA,red,m_l_045.jpg,NA,NA,unpleasant,pleasant,NA,NA,NA,NA,NA,right,1713.5,true,NA,NA,NA,NA,NA
Me1JvBIm,3e6l1vr4yzzg81jodkfak6sl8ztf6z,3leiz60cdncbilag35hvwsvxct09z2,Me1JvBIm,2020-0188,2021-10-17,10:42:31,12:06:32,NA,incomplete,false,true,NA,1,3,NA,red,m_s_048.jpg,NA,NA,pleasant,unpleasant,NA,NA,NA,NA,NA,left,1859.79999998212,true,NA,NA,NA,NA,NA
Me1JvBIm,3e6l1vr4yzzg81jodkfak6sl8ztf6z,3leiz60cdncbilag35hvwsvxct09z2,Me1JvBIm,2020-0188,2021-10-17,10:42:31,12:06:32,NA,incomplete,false,true,NA,1,4,NA,red,m_l_073.jpg,NA,NA,pleasant,unpleasant,NA,NA,NA,NA,NA,right,1832.40000000596,true,NA,NA,NA,NA,NA
Me1JvBIm,3e6l1vr4yzzg81jodkfak6sl8ztf6z,3leiz60cdncbilag35hvwsvxct09z2,Me1JvBIm,2020-0188,2021-10-17,10:42:31,12:06:32,NA,incomplete,false,true,NA,1,5,NA,red,m_s_084.jpg,NA,NA,unpleasant,pleasant,NA,NA,NA,NA,NA,right,2257.59999999404,true,NA,NA,NA,NA,NA
Me1JvBIm,3e6l1vr4yzzg81jodkfak6sl8ztf6z,3leiz60cdncbilag35hvwsvxct09z2,Me1JvBIm,2020-0188,2021-10-17,10:42:31,12:06:32,NA,incomplete,false,true,NA,1,6,NA,blue,m_l_112.jpg,NA,NA,pleasant,unpleasant,NA,NA,NA,NA,NA,right,2366.90000000596,true,NA,NA,NA,NA,NA
Me1JvBIm,3e6l1vr4yzzg81jodkfak6sl8ztf6z,3leiz60cdncbilag35hvwsvxct09z2,Me1JvBIm,2020-0188,2021-10-17,10:42:31,12:06:32,NA,incomplete,false,true,NA,1,7,NA,blue,m_l_054.jpg,NA,NA,pleasant,unpleasant,NA,NA,NA,NA,NA,left,2058.59999999404,true,NA,NA,NA,NA,NA
Me1JvBIm,3e6l1vr4yzzg81jodkfak6sl8ztf6z,3leiz60cdncbilag35hvwsvxct09z2,Me1JvBIm,2020-0188,2021-10-17,10:42:31,12:06:32,NA,incomplete,false,true,NA,1,8,NA,blue,n_s_080.jpg,NA,NA,pleasant,unpleasant,NA,NA,NA,NA,NA,left,1500,true,NA,NA,NA,NA,NA
Me1JvBIm,3e6l1vr4yzzg81jodkfak6sl8ztf6z,3leiz60cdncbilag35hvwsvxct09z2,Me1JvBIm,2020-0188,2021-10-17,10:42:31,12:06:32,NA,incomplete,false,true,NA,1,9,NA,blue,n_s_039.jpg,NA,NA,pleasant,unpleasant,NA,NA,NA,NA,NA,left,1202.19999998808,true,NA,NA,NA,NA,NA
Me1JvBIm,3e6l1vr4yzzg81jodkfak6sl8ztf6z,3leiz60cdncbilag35hvwsvxct09z2,Me1JvBIm,2020-0188,2021-10-17,10:42:31,12:06:32,NA,incomplete,false,true,NA,1,10,NA,blue,n_s_100.jpg,NA,NA,pleasant,unpleasant,NA,NA,NA,NA,NA,left,1871.89999997616,true,NA,NA,NA,NA,NA
Me1JvBIm,3e6l1vr4yzzg81jodkfak6sl8ztf6z,3leiz60cdncbilag35hvwsvxct09z2,Me1JvBIm,2020-0188,2021-10-17,10:42:31,12:06:32,NA,incomplete,false,true,NA,1,11,NA,blue,m_l_033.jpg,NA,NA,unpleasant,pleasant,NA,NA,NA,NA,NA,left,2134.29999998212,true,NA,NA,NA,NA,NA
Me1JvBIm,3e6l1vr4yzzg81jodkfak6sl8ztf6z,3leiz60cdncbilag35hvwsvxct09z2,Me1JvBIm,2020-0188,2021-10-17,10:42:31,12:06:32,NA,incomplete,false,true,NA,1,12,NA,white,n_s_056.jpg,NA,NA,pleasant,unpleasant,NA,NA,NA,NA,NA,right,2078.30000001192,true,NA,NA,NA,NA,NA
Me1JvBIm,3e6l1vr4yzzg81jodkfak6sl8ztf6z,3leiz60cdncbilag35hvwsvxct09z2,Me1JvBIm,2020-0188,2021-10-17,10:42:31,12:06:32,NA,incomplete,false,true,NA,1,13,NA,white,n_s_004.jpg,NA,NA,pleasant,unpleasant,NA,NA,NA,NA,NA,right,1743.19999998808,true,NA,NA,NA,NA,NA
Me1JvBIm,3e6l1vr4yzzg81jodkfak6sl8ztf6z,3leiz60cdncbilag35hvwsvxct09z2,Me1JvBIm,2020-0188,2021-10-17,10:42:31,12:06:32,NA,incomplete,false,true,NA,1,14,NA,white,m_s_005.jpg,NA,NA,unpleasant,pleasant,NA,NA,NA,NA,NA,right,2629.29999998212,true,NA,NA,NA,NA,NA
Me1JvBIm,3e6l1vr4yzzg81jodkfak6sl8ztf6z,3leiz60cdncbilag35hvwsvxct09z2,Me1JvBIm,2020-0188,2021-10-17,10:42:31,12:06:32,NA,incomplete,false,true,NA,1,15,NA,white,m_s_041.jpg,NA,NA,unpleasant,pleasant,NA,NA,NA,NA,NA,left,1222.69999998808,true,NA,NA,NA,NA,NA
Me1JvBIm,3e6l1vr4yzzg81jodkfak6sl8ztf6z,3leiz60cdncbilag35hvwsvxct09z2,Me1JvBIm,2020-0188,2021-10-17,10:42:31,12:06:32,NA,incomplete,false,true,NA,1,16,NA,white,m_s_028.jpg,NA,NA,pleasant,unpleasant,NA,NA,NA,NA,NA,left,1706.30000001192,true,NA,NA,NA,NA,NA
Me1JvBIm,3e6l1vr4yzzg81jodkfak6sl8ztf6z,3leiz60cdncbilag35hvwsvxct09z2,Me1JvBIm,2020-0188,2021-10-17,10:42:31,12:06:32,NA,incomplete,false,true,NA,1,17,NA,white,m_l_036.jpg,NA,NA,pleasant,unpleasant,NA,NA,NA,NA,NA,right,2382.90000000596,true,NA,NA,NA,NA,NA
Me1JvBIm,3e6l1vr4yzzg81jodkfak6sl8ztf6z,3leiz60cdncbilag35hvwsvxct09z2,Me1JvBIm,2020-0188,2021-10-17,10:42:31,12:06:32,NA,incomplete,false,true,NA,1,18,NA,black,n_l_024.jpg,NA,NA,unpleasant,pleasant,NA,NA,NA,NA,NA,right,2341.89999997616,true,NA,NA,NA,NA,NA
Me1JvBIm,3e6l1vr4yzzg81jodkfak6sl8ztf6z,3leiz60cdncbilag35hvwsvxct09z2,Me1JvBIm,2020-0188,2021-10-17,10:42:31,12:06:32,NA,incomplete,false,true,NA,1,19,NA,black,n_s_057.jpg,NA,NA,unpleasant,pleasant,NA,NA,NA,NA,NA,left,2820.59999999404,true,NA,NA,NA,NA,NA
Me1JvBIm,3e6l1vr4yzzg81jodkfak6sl8ztf6z,3leiz60cdncbilag35hvwsvxct09z2,Me1JvBIm,2020-0188,2021-10-17,10:42:31,12:06:32,NA,incomplete,false,true,NA,1,20,NA,black,m_s_064.jpg,NA,NA,unpleasant,pleasant,NA,NA,NA,NA,NA,right,1755.30000001192,true,NA,NA,NA,NA,NA
Me1JvBIm,3e6l1vr4yzzg81jodkfak6sl8ztf6z,3leiz60cdncbilag35hvwsvxct09z2,Me1JvBIm,2020-0188,2021-10-17,10:42:31,12:06:32,NA,incomplete,false,true,NA,1,21,NA,black,m_s_031.jpg,NA,NA,pleasant,unpleasant,NA,NA,NA,NA,NA,left,1483.80000001192,true,NA,NA,NA,NA,NA
Me1JvBIm,3e6l1vr4yzzg81jodkfak6sl8ztf6z,3leiz60cdncbilag35hvwsvxct09z2,Me1JvBIm,2020-0188,2021-10-17,10:42:31,12:06:32,NA,incomplete,false,true,NA,1,22,NA,black,m_l_047.jpg,NA,NA,pleasant,unpleasant,NA,NA,NA,NA,NA,right,1573.5,true,NA,NA,NA,NA,NA
Me1JvBIm,3e6l1vr4yzzg81jodkfak6sl8ztf6z,3leiz60cdncbilag35hvwsvxct09z2,Me1JvBIm,2020-0188,2021-10-17,10:42:31,12:06:32,NA,incomplete,false,true,NA,1,23,NA,black,n_l_046.jpg,NA,NA,pleasant,unpleasant,NA,NA,NA,NA,NA,left,2008.30000001192,true,NA,NA,NA,NA,NA
Me1JvBIm,3e6l1vr4yzzg81jodkfak6sl8ztf6z,3leiz60cdncbilag35hvwsvxct09z2,Me1JvBIm,2020-0188,2021-10-17,10:42:31,12:06:32,NA,incomplete,false,true,NA,1,24,NA,yellow,m_s_074.jpg,NA,NA,unpleasant,pleasant,NA,NA,NA,NA,NA,right,2245.30000001192,true,NA,NA,NA,NA,NA
Me1JvBIm,3e6l1vr4yzzg81jodkfak6sl8ztf6z,3leiz60cdncbilag35hvwsvxct09z2,Me1JvBIm,2020-0188,2021-10-17,10:42:31,12:06:32,NA,incomplete,false,true,NA,1,25,NA,yellow,n_l_093.jpg,NA,NA,unpleasant,pleasant,NA,NA,NA,NA,NA,right,1550.5,true,NA,NA,NA,NA,NA
Me1JvBIm,3e6l1vr4yzzg81jodkfak6sl8ztf6z,3leiz60cdncbilag35hvwsvxct09z2,Me1JvBIm,2020-0188,2021-10-17,10:42:31,12:06:32,NA,incomplete,false,true,NA,1,26,NA,yellow,m_l_103.jpg,NA,NA,unpleasant,pleasant,NA,NA,NA,NA,NA,right,2234.09999999404,true,NA,NA,NA,NA,NA
Me1JvBIm,3e6l1vr4yzzg81jodkfak6sl8ztf6z,3leiz60cdncbilag35hvwsvxct09z2,Me1JvBIm,2020-0188,2021-10-17,10:42:31,12:06:32,NA,incomplete,false,true,NA,1,27,NA,yellow,n_l_029.jpg,NA,NA,unpleasant,pleasant,NA,NA,NA,NA,NA,right,1103.5,true,NA,NA,NA,NA,NA
Me1JvBIm,3e6l1vr4yzzg81jodkfak6sl8ztf6z,3leiz60cdncbilag35hvwsvxct09z2,Me1JvBIm,2020-0188,2021-10-17,10:42:31,12:06:32,NA,incomplete,false,true,NA,1,28,NA,yellow,n_l_021.jpg,NA,NA,pleasant,unpleasant,NA,NA,NA,NA,NA,left,2095.59999999404,true,NA,NA,NA,NA,NA
Me1JvBIm,3e6l1vr4yzzg81jodkfak6sl8ztf6z,3leiz60cdncbilag35hvwsvxct09z2,Me1JvBIm,2020-0188,2021-10-17,10:42:31,12:06:32,NA,incomplete,false,true,NA,1,29,NA,yellow,m_s_086.jpg,NA,NA,pleasant,unpleasant,NA,NA,NA,NA,NA,left,1507.19999998808,true,NA,NA,NA,NA,NA
Me1JvBIm,3e6l1vr4yzzg81jodkfak6sl8ztf6z,3leiz60cdncbilag35hvwsvxct09z2,Me1JvBIm,2020-0188,2021-10-17,10:42:31,12:06:32,NA,incomplete,false,true,NA,1,30,NA,purple,m_l_095.jpg,NA,NA,pleasant,unpleasant,NA,NA,NA,NA,NA,left,1815.59999999404,true,NA,NA,NA,NA,NA
Me1JvBIm,3e6l1vr4yzzg81jodkfak6sl8ztf6z,3leiz60cdncbilag35hvwsvxct09z2,Me1JvBIm,2020-0188,2021-10-17,10:42:31,12:06:32,NA,incomplete,false,true,NA,1,31,NA,purple,n_l_005.jpg,NA,NA,pleasant,unpleasant,NA,NA,NA,NA,NA,left,623.300000011921,true,NA,NA,NA,NA,NA
Me1JvBIm,3e6l1vr4yzzg81jodkfak6sl8ztf6z,3leiz60cdncbilag35hvwsvxct09z2,Me1JvBIm,2020-0188,2021-10-17,10:42:31,12:06:32,NA,incomplete,false,true,NA,1,32,NA,purple,m_l_001.jpg,NA,NA,unpleasant,pleasant,NA,NA,NA,NA,NA,right,2359.79999998212,true,NA,NA,NA,NA,NA
Me1JvBIm,3e6l1vr4yzzg81jodkfak6sl8ztf6z,3leiz60cdncbilag35hvwsvxct09z2,Me1JvBIm,2020-0188,2021-10-17,10:42:31,12:06:32,NA,incomplete,false,true,NA,1,33,NA,purple,n_s_013.jpg,NA,NA,pleasant,unpleasant,NA,NA,NA,NA,NA,left,1576.60000002384,true,NA,NA,NA,NA,NA
Me1JvBIm,3e6l1vr4yzzg81jodkfak6sl8ztf6z,3leiz60cdncbilag35hvwsvxct09z2,Me1JvBIm,2020-0188,2021-10-17,10:42:31,12:06:32,NA,incomplete,false,true,NA,1,34,NA,purple,n_l_084.jpg,NA,NA,pleasant,unpleasant,NA,NA,NA,NA,NA,left,2025.30000001192,true,NA,NA,NA,NA,NA
Me1JvBIm,3e6l1vr4yzzg81jodkfak6sl8ztf6z,3leiz60cdncbilag35hvwsvxct09z2,Me1JvBIm,2020-0188,2021-10-17,10:42:31,12:06:32,NA,incomplete,false,true,NA,1,35,NA,purple,m_l_034.jpg,NA,NA,unpleasant,pleasant,NA,NA,NA,NA,NA,right,1383.20000001788,true,NA,NA,NA,NA,NA
Me1JvBIm,3e6l1vr4yzzg81jodkfak6sl8ztf6z,3leiz60cdncbilag35hvwsvxct09z2,Me1JvBIm,2020-0188,2021-10-17,10:42:31,12:06:32,NA,incomplete,false,NA,true,1,0,NA,NA,NA,right,present,NA,NA,m_l_103.jpg,yellow,m_l_047.jpg,black,between,NA,NaN,NA,right,4546.4000000059605,1,2,3723.199999988079
Me1JvBIm,3e6l1vr4yzzg81jodkfak6sl8ztf6z,3leiz60cdncbilag35hvwsvxct09z2,Me1JvBIm,2020-0188,2021-10-17,10:42:31,12:06:32,NA,incomplete,false,NA,true,1,1,NA,NA,NA,right,present,NA,NA,n_l_046.jpg,black,n_s_057.jpg,black,within,NA,NaN,NA,left,3242.699999988079,0,0,2098.4000000059605
Me1JvBIm,3e6l1vr4yzzg81jodkfak6sl8ztf6z,3leiz60cdncbilag35hvwsvxct09z2,Me1JvBIm,2020-0188,2021-10-17,10:42:31,12:06:32,NA,incomplete,false,NA,true,1,2,NA,NA,NA,right,present,NA,NA,m_s_005.jpg,white,n_s_100.jpg,blue,between,NA,NaN,NA,right,3090.2999999821186,1,2,1888.2999999821186
Me1JvBIm,3e6l1vr4yzzg81jodkfak6sl8ztf6z,3leiz60cdncbilag35hvwsvxct09z2,Me1JvBIm,2020-0188,2021-10-17,10:42:31,12:06:32,NA,incomplete,false,NA,true,1,3,NA,NA,NA,left,present,NA,NA,n_l_093.jpg,yellow,m_s_086.jpg,yellow,within,NA,NaN,NA,left,3434.5999999940395,1,0,1874.300000011921
Me1JvBIm,3e6l1vr4yzzg81jodkfak6sl8ztf6z,3leiz60cdncbilag35hvwsvxct09z2,Me1JvBIm,2020-0188,2021-10-17,10:42:31,12:06:32,NA,incomplete,false,NA,true,1,4,NA,NA,NA,right,present,NA,NA,m_s_084.jpg,red,n_l_072.jpg,red,within,NA,NaN,NA,right,6232.600000023842,1,0,1970.4000000059605
Me1JvBIm,3e6l1vr4yzzg81jodkfak6sl8ztf6z,3leiz60cdncbilag35hvwsvxct09z2,Me1JvBIm,2020-0188,2021-10-17,10:42:31,12:06:32,NA,incomplete,false,NA,true,1,5,NA,NA,NA,right,present,NA,NA,n_s_080.jpg,blue,m_l_073.jpg,red,between,NA,NaN,NA,right,2359.4000000059605,1,1,6779.5999999940395
Me1JvBIm,3e6l1vr4yzzg81jodkfak6sl8ztf6z,3leiz60cdncbilag35hvwsvxct09z2,Me1JvBIm,2020-0188,2021-10-17,10:42:31,12:06:32,NA,incomplete,false,NA,true,1,6,NA,NA,NA,right,present,NA,NA,m_s_064.jpg,black,m_s_028.jpg,white,between,NA,NaN,NA,right,2982.7999999821186,1,2,4311.9000000059605
Me1JvBIm,3e6l1vr4yzzg81jodkfak6sl8ztf6z,3leiz60cdncbilag35hvwsvxct09z2,Me1JvBIm,2020-0188,2021-10-17,10:42:31,12:06:32,NA,incomplete,false,NA,true,1,7,NA,NA,NA,left,present,NA,NA,n_l_021.jpg,yellow,m_l_001.jpg,purple,between,NA,NaN,NA,right,2844.4000000059605,0,2,1865.7000000178814
Me1JvBIm,3e6l1vr4yzzg81jodkfak6sl8ztf6z,3leiz60cdncbilag35hvwsvxct09z2,Me1JvBIm,2020-0188,2021-10-17,10:42:31,12:06:32,NA,incomplete,false,NA,true,1,8,NA,NA,NA,right,present,NA,NA,m_l_034.jpg,purple,n_l_005.jpg,purple,within,NA,NaN,NA,right,2633.5999999940395,1,0,1123.199999988079
Me1JvBIm,3e6l1vr4yzzg81jodkfak6sl8ztf6z,3leiz60cdncbilag35hvwsvxct09z2,Me1JvBIm,2020-0188,2021-10-17,10:42:31,12:06:32,NA,incomplete,false,NA,true,1,9,NA,NA,NA,right,present,NA,NA,m_l_036.jpg,white,n_s_004.jpg,white,within,NA,NaN,NA,right,6786.800000011921,1,0,2443.5
Me1JvBIm,3e6l1vr4yzzg81jodkfak6sl8ztf6z,3leiz60cdncbilag35hvwsvxct09z2,Me1JvBIm,2020-0188,2021-10-17,10:42:31,12:06:32,NA,incomplete,false,NA,true,1,10,NA,NA,NA,left,present,NA,NA,m_l_054.jpg,blue,m_l_033.jpg,blue,within,NA,NaN,NA,left,3322.399999976158,1,0,2338.5
Me1JvBIm,3e6l1vr4yzzg81jodkfak6sl8ztf6z,3leiz60cdncbilag35hvwsvxct09z2,Me1JvBIm,2020-0188,2021-10-17,10:42:31,12:06:32,NA,incomplete,false,true,NA,2,0,NA,yellow,n_s_051.jpg,NA,NA,unpleasant,pleasant,NA,NA,NA,NA,NA,left,3390.80000001192,true,NA,NA,NA,NA,NA
Me1JvBIm,3e6l1vr4yzzg81jodkfak6sl8ztf6z,3leiz60cdncbilag35hvwsvxct09z2,Me1JvBIm,2020-0188,2021-10-17,10:42:31,12:06:32,NA,incomplete,false,true,NA,2,1,NA,yellow,n_l_035.jpg,NA,NA,pleasant,unpleasant,NA,NA,NA,NA,NA,left,2684.5,true,NA,NA,NA,NA,NA
Me1JvBIm,3e6l1vr4yzzg81jodkfak6sl8ztf6z,3leiz60cdncbilag35hvwsvxct09z2,Me1JvBIm,2020-0188,2021-10-17,10:42:31,12:06:32,NA,incomplete,false,true,NA,2,2,NA,yellow,m_l_055.jpg,NA,NA,unpleasant,pleasant,NA,NA,NA,NA,NA,left,1761.10000002384,true,NA,NA,NA,NA,NA
Me1JvBIm,3e6l1vr4yzzg81jodkfak6sl8ztf6z,3leiz60cdncbilag35hvwsvxct09z2,Me1JvBIm,2020-0188,2021-10-17,10:42:31,12:06:32,NA,incomplete,false,true,NA,2,3,NA,yellow,n_s_048.jpg,NA,NA,pleasant,unpleasant,NA,NA,NA,NA,NA,left,1698.90000000596,true,NA,NA,NA,NA,NA
Me1JvBIm,3e6l1vr4yzzg81jodkfak6sl8ztf6z,3leiz60cdncbilag35hvwsvxct09z2,Me1JvBIm,2020-0188,2021-10-17,10:42:31,12:06:32,NA,incomplete,false,true,NA,2,4,NA,yellow,m_l_017.jpg,NA,NA,unpleasant,pleasant,NA,NA,NA,NA,NA,right,1225.29999998212,true,NA,NA,NA,NA,NA
Me1JvBIm,3e6l1vr4yzzg81jodkfak6sl8ztf6z,3leiz60cdncbilag35hvwsvxct09z2,Me1JvBIm,2020-0188,2021-10-17,10:42:31,12:06:32,NA,incomplete,false,true,NA,2,5,NA,yellow,m_s_077.jpg,NA,NA,pleasant,unpleasant,NA,NA,NA,NA,NA,right,2004.70000001788,true,NA,NA,NA,NA,NA
Me1JvBIm,3e6l1vr4yzzg81jodkfak6sl8ztf6z,3leiz60cdncbilag35hvwsvxct09z2,Me1JvBIm,2020-0188,2021-10-17,10:42:31,12:06:32,NA,incomplete,false,true,NA,2,6,NA,white,m_s_083.jpg,NA,NA,unpleasant,pleasant,NA,NA,NA,NA,NA,right,2473.80000001192,true,NA,NA,NA,NA,NA
Me1JvBIm,3e6l1vr4yzzg81jodkfak6sl8ztf6z,3leiz60cdncbilag35hvwsvxct09z2,Me1JvBIm,2020-0188,2021-10-17,10:42:31,12:06:32,NA,incomplete,false,true,NA,2,7,NA,white,m_s_100.jpg,NA,NA,pleasant,unpleasant,NA,NA,NA,NA,NA,left,1630.59999999404,true,NA,NA,NA,NA,NA
Me1JvBIm,3e6l1vr4yzzg81jodkfak6sl8ztf6z,3leiz60cdncbilag35hvwsvxct09z2,Me1JvBIm,2020-0188,2021-10-17,10:42:31,12:06:32,NA,incomplete,false,true,NA,2,8,NA,white,m_s_105.jpg,NA,NA,unpleasant,pleasant,NA,NA,NA,NA,NA,right,1299.39999997616,true,NA,NA,NA,NA,NA
Me1JvBIm,3e6l1vr4yzzg81jodkfak6sl8ztf6z,3leiz60cdncbilag35hvwsvxct09z2,Me1JvBIm,2020-0188,2021-10-17,10:42:31,12:06:32,NA,incomplete,false,true,NA,2,9,NA,white,m_l_090.jpg,NA,NA,pleasant,unpleasant,NA,NA,NA,NA,NA,left,1792.69999998808,true,NA,NA,NA,NA,NA
Me1JvBIm,3e6l1vr4yzzg81jodkfak6sl8ztf6z,3leiz60cdncbilag35hvwsvxct09z2,Me1JvBIm,2020-0188,2021-10-17,10:42:31,12:06:32,NA,incomplete,false,true,NA,2,10,NA,white,m_l_082.jpg,NA,NA,pleasant,unpleasant,NA,NA,NA,NA,NA,right,2618.90000000596,true,NA,NA,NA,NA,NA
Me1JvBIm,3e6l1vr4yzzg81jodkfak6sl8ztf6z,3leiz60cdncbilag35hvwsvxct09z2,Me1JvBIm,2020-0188,2021-10-17,10:42:31,12:06:32,NA,incomplete,false,true,NA,2,11,NA,white,n_l_055.jpg,NA,NA,unpleasant,pleasant,NA,NA,NA,NA,NA,right,1409.40000000596,true,NA,NA,NA,NA,NA
Me1JvBIm,3e6l1vr4yzzg81jodkfak6sl8ztf6z,3leiz60cdncbilag35hvwsvxct09z2,Me1JvBIm,2020-0188,2021-10-17,10:42:31,12:06:32,NA,incomplete,false,true,NA,2,12,NA,purple,n_s_023.jpg,NA,NA,pleasant,unpleasant,NA,NA,NA,NA,NA,left,2054.90000000596,true,NA,NA,NA,NA,NA
Me1JvBIm,3e6l1vr4yzzg81jodkfak6sl8ztf6z,3leiz60cdncbilag35hvwsvxct09z2,Me1JvBIm,2020-0188,2021-10-17,10:42:31,12:06:32,NA,incomplete,false,true,NA,2,13,NA,purple,m_l_046.jpg,NA,NA,unpleasant,pleasant,NA,NA,NA,NA,NA,right,1971.90000000596,true,NA,NA,NA,NA,NA
Me1JvBIm,3e6l1vr4yzzg81jodkfak6sl8ztf6z,3leiz60cdncbilag35hvwsvxct09z2,Me1JvBIm,2020-0188,2021-10-17,10:42:31,12:06:32,NA,incomplete,false,true,NA,2,14,NA,purple,n_s_031.jpg,NA,NA,pleasant,unpleasant,NA,NA,NA,NA,NA,left,1578.59999999404,true,NA,NA,NA,NA,NA
Me1JvBIm,3e6l1vr4yzzg81jodkfak6sl8ztf6z,3leiz60cdncbilag35hvwsvxct09z2,Me1JvBIm,2020-0188,2021-10-17,10:42:31,12:06:32,NA,incomplete,false,true,NA,2,15,NA,purple,m_s_080.jpg,NA,NA,unpleasant,pleasant,NA,NA,NA,NA,NA,right,1463.29999998212,true,NA,NA,NA,NA,NA
Me1JvBIm,3e6l1vr4yzzg81jodkfak6sl8ztf6z,3leiz60cdncbilag35hvwsvxct09z2,Me1JvBIm,2020-0188,2021-10-17,10:42:31,12:06:32,NA,incomplete,false,true,NA,2,16,NA,purple,n_l_109.jpg,NA,NA,unpleasant,pleasant,NA,NA,NA,NA,NA,left,1501.69999998808,true,NA,NA,NA,NA,NA
Me1JvBIm,3e6l1vr4yzzg81jodkfak6sl8ztf6z,3leiz60cdncbilag35hvwsvxct09z2,Me1JvBIm,2020-0188,2021-10-17,10:42:31,12:06:32,NA,incomplete,false,true,NA,2,17,NA,purple,n_l_034.jpg,NA,NA,pleasant,unpleasant,NA,NA,NA,NA,NA,left,1158.09999999404,true,NA,NA,NA,NA,NA
Me1JvBIm,3e6l1vr4yzzg81jodkfak6sl8ztf6z,3leiz60cdncbilag35hvwsvxct09z2,Me1JvBIm,2020-0188,2021-10-17,10:42:31,12:06:32,NA,incomplete,false,true,NA,2,18,NA,red,n_s_009.jpg,NA,NA,pleasant,unpleasant,NA,NA,NA,NA,NA,right,2251.80000001192,true,NA,NA,NA,NA,NA
Me1JvBIm,3e6l1vr4yzzg81jodkfak6sl8ztf6z,3leiz60cdncbilag35hvwsvxct09z2,Me1JvBIm,2020-0188,2021-10-17,10:42:31,12:06:32,NA,incomplete,false,true,NA,2,19,NA,red,n_l_079.jpg,NA,NA,unpleasant,pleasant,NA,NA,NA,NA,NA,right,2095.40000000596,true,NA,NA,NA,NA,NA
Me1JvBIm,3e6l1vr4yzzg81jodkfak6sl8ztf6z,3leiz60cdncbilag35hvwsvxct09z2,Me1JvBIm,2020-0188,2021-10-17,10:42:31,12:06:32,NA,incomplete,false,true,NA,2,20,NA,red,m_s_030.jpg,NA,NA,unpleasant,pleasant,NA,NA,NA,NA,NA,right,2177.80000001192,true,NA,NA,NA,NA,NA
Me1JvBIm,3e6l1vr4yzzg81jodkfak6sl8ztf6z,3leiz60cdncbilag35hvwsvxct09z2,Me1JvBIm,2020-0188,2021-10-17,10:42:31,12:06:32,NA,incomplete,false,true,NA,2,21,NA,red,m_l_113.jpg,NA,NA,pleasant,unpleasant,NA,NA,NA,NA,NA,left,2156.59999999404,true,NA,NA,NA,NA,NA
Me1JvBIm,3e6l1vr4yzzg81jodkfak6sl8ztf6z,3leiz60cdncbilag35hvwsvxct09z2,Me1JvBIm,2020-0188,2021-10-17,10:42:31,12:06:32,NA,incomplete,false,true,NA,2,22,NA,red,n_l_054.jpg,NA,NA,unpleasant,pleasant,NA,NA,NA,NA,NA,right,1270.69999998808,true,NA,NA,NA,NA,NA
Me1JvBIm,3e6l1vr4yzzg81jodkfak6sl8ztf6z,3leiz60cdncbilag35hvwsvxct09z2,Me1JvBIm,2020-0188,2021-10-17,10:42:31,12:06:32,NA,incomplete,false,true,NA,2,23,NA,red,n_l_003.jpg,NA,NA,pleasant,unpleasant,NA,NA,NA,NA,NA,left,2084.69999998808,true,NA,NA,NA,NA,NA
Me1JvBIm,3e6l1vr4yzzg81jodkfak6sl8ztf6z,3leiz60cdncbilag35hvwsvxct09z2,Me1JvBIm,2020-0188,2021-10-17,10:42:31,12:06:32,NA,incomplete,false,true,NA,2,24,NA,green,n_s_104.jpg,NA,NA,unpleasant,pleasant,NA,NA,NA,NA,NA,right,1288.19999998808,true,NA,NA,NA,NA,NA
Me1JvBIm,3e6l1vr4yzzg81jodkfak6sl8ztf6z,3leiz60cdncbilag35hvwsvxct09z2,Me1JvBIm,2020-0188,2021-10-17,10:42:31,12:06:32,NA,incomplete,false,true,NA,2,25,NA,green,n_s_050.jpg,NA,NA,unpleasant,pleasant,NA,NA,NA,NA,NA,right,1413,true,NA,NA,NA,NA,NA
Me1JvBIm,3e6l1vr4yzzg81jodkfak6sl8ztf6z,3leiz60cdncbilag35hvwsvxct09z2,Me1JvBIm,2020-0188,2021-10-17,10:42:31,12:06:32,NA,incomplete,false,true,NA,2,26,NA,green,n_s_105.jpg,NA,NA,unpleasant,pleasant,NA,NA,NA,NA,NA,right,918.5,true,NA,NA,NA,NA,NA
Me1JvBIm,3e6l1vr4yzzg81jodkfak6sl8ztf6z,3leiz60cdncbilag35hvwsvxct09z2,Me1JvBIm,2020-0188,2021-10-17,10:42:31,12:06:32,NA,incomplete,false,true,NA,2,27,NA,green,m_s_043.jpg,NA,NA,pleasant,unpleasant,NA,NA,NA,NA,NA,left,1190.90000000596,true,NA,NA,NA,NA,NA
Me1JvBIm,3e6l1vr4yzzg81jodkfak6sl8ztf6z,3leiz60cdncbilag35hvwsvxct09z2,Me1JvBIm,2020-0188,2021-10-17,10:42:31,12:06:32,NA,incomplete,false,true,NA,2,28,NA,green,m_l_056.jpg,NA,NA,unpleasant,pleasant,NA,NA,NA,NA,NA,right,1331.09999999404,true,NA,NA,NA,NA,NA
Me1JvBIm,3e6l1vr4yzzg81jodkfak6sl8ztf6z,3leiz60cdncbilag35hvwsvxct09z2,Me1JvBIm,2020-0188,2021-10-17,10:42:31,12:06:32,NA,incomplete,false,true,NA,2,29,NA,green,n_s_059.jpg,NA,NA,unpleasant,pleasant,NA,NA,NA,NA,NA,right,1214.5,true,NA,NA,NA,NA,NA
Me1JvBIm,3e6l1vr4yzzg81jodkfak6sl8ztf6z,3leiz60cdncbilag35hvwsvxct09z2,Me1JvBIm,2020-0188,2021-10-17,10:42:31,12:06:32,NA,incomplete,false,true,NA,2,30,NA,brown,m_l_020.jpg,NA,NA,pleasant,unpleasant,NA,NA,NA,NA,NA,right,1670.09999999404,true,NA,NA,NA,NA,NA
Me1JvBIm,3e6l1vr4yzzg81jodkfak6sl8ztf6z,3leiz60cdncbilag35hvwsvxct09z2,Me1JvBIm,2020-0188,2021-10-17,10:42:31,12:06:32,NA,incomplete,false,true,NA,2,31,NA,brown,n_s_007.jpg,NA,NA,pleasant,unpleasant,NA,NA,NA,NA,NA,left,1688.09999999404,true,NA,NA,NA,NA,NA
Me1JvBIm,3e6l1vr4yzzg81jodkfak6sl8ztf6z,3leiz60cdncbilag35hvwsvxct09z2,Me1JvBIm,2020-0188,2021-10-17,10:42:31,12:06:32,NA,incomplete,false,true,NA,2,32,NA,brown,m_s_107.jpg,NA,NA,pleasant,unpleasant,NA,NA,NA,NA,NA,left,1019,true,NA,NA,NA,NA,NA
Me1JvBIm,3e6l1vr4yzzg81jodkfak6sl8ztf6z,3leiz60cdncbilag35hvwsvxct09z2,Me1JvBIm,2020-0188,2021-10-17,10:42:31,12:06:32,NA,incomplete,false,true,NA,2,33,NA,brown,n_l_071.jpg,NA,NA,unpleasant,pleasant,NA,NA,NA,NA,NA,right,1015.69999998808,true,NA,NA,NA,NA,NA
Me1JvBIm,3e6l1vr4yzzg81jodkfak6sl8ztf6z,3leiz60cdncbilag35hvwsvxct09z2,Me1JvBIm,2020-0188,2021-10-17,10:42:31,12:06:32,NA,incomplete,false,true,NA,2,34,NA,brown,n_l_061.jpg,NA,NA,unpleasant,pleasant,NA,NA,NA,NA,NA,right,1087.90000000596,true,NA,NA,NA,NA,NA
Me1JvBIm,3e6l1vr4yzzg81jodkfak6sl8ztf6z,3leiz60cdncbilag35hvwsvxct09z2,Me1JvBIm,2020-0188,2021-10-17,10:42:31,12:06:32,NA,incomplete,false,true,NA,2,35,NA,brown,m_s_033.jpg,NA,NA,pleasant,unpleasant,NA,NA,NA,NA,NA,left,1690.40000000596,true,NA,NA,NA,NA,NA
Me1JvBIm,3e6l1vr4yzzg81jodkfak6sl8ztf6z,3leiz60cdncbilag35hvwsvxct09z2,Me1JvBIm,2020-0188,2021-10-17,10:42:31,12:06:32,NA,incomplete,false,NA,true,2,0,NA,NA,NA,left,present,NA,NA,n_l_035.jpg,yellow,m_s_077.jpg,yellow,within,NA,NaN,NA,left,3251,1,0,1895.6000000238419
Me1JvBIm,3e6l1vr4yzzg81jodkfak6sl8ztf6z,3leiz60cdncbilag35hvwsvxct09z2,Me1JvBIm,2020-0188,2021-10-17,10:42:31,12:06:32,NA,incomplete,false,NA,true,2,1,NA,NA,NA,left,present,NA,NA,n_l_054.jpg,red,n_s_105.jpg,green,between,NA,NaN,NA,left,2586.2000000178814,1,3,3249
Me1JvBIm,3e6l1vr4yzzg81jodkfak6sl8ztf6z,3leiz60cdncbilag35hvwsvxct09z2,Me1JvBIm,2020-0188,2021-10-17,10:42:31,12:06:32,NA,incomplete,false,NA,true,2,2,NA,NA,NA,left,present,NA,NA,m_s_100.jpg,white,n_l_055.jpg,white,within,NA,NaN,NA,left,2790.7000000178814,1,0,848.5999999940395
Me1JvBIm,3e6l1vr4yzzg81jodkfak6sl8ztf6z,3leiz60cdncbilag35hvwsvxct09z2,Me1JvBIm,2020-0188,2021-10-17,10:42:31,12:06:32,NA,incomplete,false,NA,true,2,3,NA,NA,NA,left,present,NA,NA,m_l_056.jpg,green,m_s_107.jpg,brown,between,NA,NaN,NA,left,10015.800000011921,1,1,4559.0999999940395
Me1JvBIm,3e6l1vr4yzzg81jodkfak6sl8ztf6z,3leiz60cdncbilag35hvwsvxct09z2,Me1JvBIm,2020-0188,2021-10-17,10:42:31,12:06:32,NA,incomplete,false,NA,true,2,4,NA,NA,NA,right,present,NA,NA,m_s_105.jpg,white,m_l_017.jpg,yellow,between,NA,NaN,NA,right,3479.5999999940395,1,2,2008.800000011921
Me1JvBIm,3e6l1vr4yzzg81jodkfak6sl8ztf6z,3leiz60cdncbilag35hvwsvxct09z2,Me1JvBIm,2020-0188,2021-10-17,10:42:31,12:06:32,NA,incomplete,false,NA,true,2,5,NA,NA,NA,left,present,NA,NA,n_l_109.jpg,purple,m_s_030.jpg,red,between,NA,NaN,NA,right,6265.800000011921,0,2,1036.699999988079
Me1JvBIm,3e6l1vr4yzzg81jodkfak6sl8ztf6z,3leiz60cdncbilag35hvwsvxct09z2,Me1JvBIm,2020-0188,2021-10-17,10:42:31,12:06:32,NA,incomplete,false,NA,true,2,6,NA,NA,NA,right,present,NA,NA,n_s_059.jpg,green,n_s_050.jpg,green,within,NA,NaN,NA,right,2682.5999999940395,1,0,1408.699999988079
Me1JvBIm,3e6l1vr4yzzg81jodkfak6sl8ztf6z,3leiz60cdncbilag35hvwsvxct09z2,Me1JvBIm,2020-0188,2021-10-17,10:42:31,12:06:32,NA,incomplete,false,NA,true,2,7,NA,NA,NA,left,present,NA,NA,n_l_079.jpg,red,n_l_003.jpg,red,within,NA,NaN,NA,left,3578.7000000178814,1,0,1418.4000000059605
Me1JvBIm,3e6l1vr4yzzg81jodkfak6sl8ztf6z,3leiz60cdncbilag35hvwsvxct09z2,Me1JvBIm,2020-0188,2021-10-17,10:42:31,12:06:32,NA,incomplete,false,NA,true,2,8,NA,NA,NA,left,present,NA,NA,n_s_007.jpg,brown,m_s_033.jpg,brown,within,NA,NaN,NA,left,5184.200000017881,1,0,1298.1000000238419
Me1JvBIm,3e6l1vr4yzzg81jodkfak6sl8ztf6z,3leiz60cdncbilag35hvwsvxct09z2,Me1JvBIm,2020-0188,2021-10-17,10:42:31,12:06:32,NA,incomplete,false,NA,true,2,9,NA,NA,NA,right,present,NA,NA,n_s_031.jpg,purple,m_l_082.jpg,white,between,NA,NaN,NA,right,4064.9000000059605,1,2,1840.5
Me1JvBIm,3e6l1vr4yzzg81jodkfak6sl8ztf6z,3leiz60cdncbilag35hvwsvxct09z2,Me1JvBIm,2020-0188,2021-10-17,10:42:31,12:06:32,NA,incomplete,false,NA,true,2,10,NA,NA,NA,left,present,NA,NA,m_l_046.jpg,purple,n_l_034.jpg,purple,within,NA,NaN,NA,left,3745,1,0,1523.4000000059605
Me1JvBIm,3e6l1vr4yzzg81jodkfak6sl8ztf6z,3leiz60cdncbilag35hvwsvxct09z2,Me1JvBIm,2020-0188,2021-10-17,10:42:31,12:06:32,NA,incomplete,false,true,NA,3,0,NA,black,m_s_091.jpg,NA,NA,unpleasant,pleasant,NA,NA,NA,NA,NA,left,2186.59999999404,true,NA,NA,NA,NA,NA
Me1JvBIm,3e6l1vr4yzzg81jodkfak6sl8ztf6z,3leiz60cdncbilag35hvwsvxct09z2,Me1JvBIm,2020-0188,2021-10-17,10:42:31,12:06:32,NA,incomplete,false,true,NA,3,1,NA,black,n_s_047.jpg,NA,NA,unpleasant,pleasant,NA,NA,NA,NA,NA,right,1178.30000001192,true,NA,NA,NA,NA,NA
Me1JvBIm,3e6l1vr4yzzg81jodkfak6sl8ztf6z,3leiz60cdncbilag35hvwsvxct09z2,Me1JvBIm,2020-0188,2021-10-17,10:42:31,12:06:32,NA,incomplete,false,true,NA,3,2,NA,black,m_s_093.jpg,NA,NA,unpleasant,pleasant,NA,NA,NA,NA,NA,left,1594.29999998212,true,NA,NA,NA,NA,NA
Me1JvBIm,3e6l1vr4yzzg81jodkfak6sl8ztf6z,3leiz60cdncbilag35hvwsvxct09z2,Me1JvBIm,2020-0188,2021-10-17,10:42:31,12:06:32,NA,incomplete,false,true,NA,3,3,NA,black,m_l_089.jpg,NA,NA,pleasant,unpleasant,NA,NA,NA,NA,NA,left,1339.10000002384,true,NA,NA,NA,NA,NA
Me1JvBIm,3e6l1vr4yzzg81jodkfak6sl8ztf6z,3leiz60cdncbilag35hvwsvxct09z2,Me1JvBIm,2020-0188,2021-10-17,10:42:31,12:06:32,NA,incomplete,false,true,NA,3,4,NA,black,n_l_066.jpg,NA,NA,unpleasant,pleasant,NA,NA,NA,NA,NA,right,1292.40000000596,true,NA,NA,NA,NA,NA
Me1JvBIm,3e6l1vr4yzzg81jodkfak6sl8ztf6z,3leiz60cdncbilag35hvwsvxct09z2,Me1JvBIm,2020-0188,2021-10-17,10:42:31,12:06:32,NA,incomplete,false,true,NA,3,5,NA,black,m_s_117.jpg,NA,NA,pleasant,unpleasant,NA,NA,NA,NA,NA,left,1281.20000001788,true,NA,NA,NA,NA,NA
Me1JvBIm,3e6l1vr4yzzg81jodkfak6sl8ztf6z,3leiz60cdncbilag35hvwsvxct09z2,Me1JvBIm,2020-0188,2021-10-17,10:42:31,12:06:32,NA,incomplete,false,true,NA,3,6,NA,yellow,n_l_097.jpg,NA,NA,unpleasant,pleasant,NA,NA,NA,NA,NA,right,1953,true,NA,NA,NA,NA,NA
Me1JvBIm,3e6l1vr4yzzg81jodkfak6sl8ztf6z,3leiz60cdncbilag35hvwsvxct09z2,Me1JvBIm,2020-0188,2021-10-17,10:42:31,12:06:32,NA,incomplete,false,true,NA,3,7,NA,yellow,m_l_074.jpg,NA,NA,pleasant,unpleasant,NA,NA,NA,NA,NA,right,1961.69999998808,true,NA,NA,NA,NA,NA
Me1JvBIm,3e6l1vr4yzzg81jodkfak6sl8ztf6z,3leiz60cdncbilag35hvwsvxct09z2,Me1JvBIm,2020-0188,2021-10-17,10:42:31,12:06:32,NA,incomplete,false,true,NA,3,8,NA,yellow,m_l_041.jpg,NA,NA,pleasant,unpleasant,NA,NA,NA,NA,NA,right,1355.90000000596,true,NA,NA,NA,NA,NA
Me1JvBIm,3e6l1vr4yzzg81jodkfak6sl8ztf6z,3leiz60cdncbilag35hvwsvxct09z2,Me1JvBIm,2020-0188,2021-10-17,10:42:31,12:06:32,NA,incomplete,false,true,NA,3,9,NA,yellow,n_s_055.jpg,NA,NA,unpleasant,pleasant,NA,NA,NA,NA,NA,right,1377.59999999404,true,NA,NA,NA,NA,NA
Me1JvBIm,3e6l1vr4yzzg81jodkfak6sl8ztf6z,3leiz60cdncbilag35hvwsvxct09z2,Me1JvBIm,2020-0188,2021-10-17,10:42:31,12:06:32,NA,incomplete,false,true,NA,3,10,NA,yellow,m_l_079.jpg,NA,NA,unpleasant,pleasant,NA,NA,NA,NA,NA,left,1503,true,NA,NA,NA,NA,NA
Me1JvBIm,3e6l1vr4yzzg81jodkfak6sl8ztf6z,3leiz60cdncbilag35hvwsvxct09z2,Me1JvBIm,2020-0188,2021-10-17,10:42:31,12:06:32,NA,incomplete,false,true,NA,3,11,NA,yellow,n_l_063.jpg,NA,NA,unpleasant,pleasant,NA,NA,NA,NA,NA,right,1168.80000001192,true,NA,NA,NA,NA,NA
Me1JvBIm,3e6l1vr4yzzg81jodkfak6sl8ztf6z,3leiz60cdncbilag35hvwsvxct09z2,Me1JvBIm,2020-0188,2021-10-17,10:42:31,12:06:32,NA,incomplete,false,true,NA,3,12,NA,purple,m_l_043.jpg,NA,NA,unpleasant,pleasant,NA,NA,NA,NA,NA,right,2097.69999998808,true,NA,NA,NA,NA,NA
Me1JvBIm,3e6l1vr4yzzg81jodkfak6sl8ztf6z,3leiz60cdncbilag35hvwsvxct09z2,Me1JvBIm,2020-0188,2021-10-17,10:42:31,12:06:32,NA,incomplete,false,true,NA,3,13,NA,purple,m_l_002.jpg,NA,NA,unpleasant,pleasant,NA,NA,NA,NA,NA,right,1371.30000001192,true,NA,NA,NA,NA,NA
Me1JvBIm,3e6l1vr4yzzg81jodkfak6sl8ztf6z,3leiz60cdncbilag35hvwsvxct09z2,Me1JvBIm,2020-0188,2021-10-17,10:42:31,12:06:32,NA,incomplete,false,true,NA,3,14,NA,purple,m_s_059.jpg,NA,NA,unpleasant,pleasant,NA,NA,NA,NA,NA,right,1637.19999998808,true,NA,NA,NA,NA,NA
Me1JvBIm,3e6l1vr4yzzg81jodkfak6sl8ztf6z,3leiz60cdncbilag35hvwsvxct09z2,Me1JvBIm,2020-0188,2021-10-17,10:42:31,12:06:32,NA,incomplete,false,true,NA,3,15,NA,purple,m_s_096.jpg,NA,NA,pleasant,unpleasant,NA,NA,NA,NA,NA,left,1696.70000001788,true,NA,NA,NA,NA,NA
Me1JvBIm,3e6l1vr4yzzg81jodkfak6sl8ztf6z,3leiz60cdncbilag35hvwsvxct09z2,Me1JvBIm,2020-0188,2021-10-17,10:42:31,12:06:32,NA,incomplete,false,true,NA,3,16,NA,purple,n_l_062.jpg,NA,NA,pleasant,unpleasant,NA,NA,NA,NA,NA,left,1548.30000001192,true,NA,NA,NA,NA,NA
Me1JvBIm,3e6l1vr4yzzg81jodkfak6sl8ztf6z,3leiz60cdncbilag35hvwsvxct09z2,Me1JvBIm,2020-0188,2021-10-17,10:42:31,12:06:32,NA,incomplete,false,true,NA,3,17,NA,purple,n_s_010.jpg,NA,NA,pleasant,unpleasant,NA,NA,NA,NA,NA,left,1716.20000001788,true,NA,NA,NA,NA,NA
Me1JvBIm,3e6l1vr4yzzg81jodkfak6sl8ztf6z,3leiz60cdncbilag35hvwsvxct09z2,Me1JvBIm,2020-0188,2021-10-17,10:42:31,12:06:32,NA,incomplete,false,true,NA,3,18,NA,green,n_l_108.jpg,NA,NA,unpleasant,pleasant,NA,NA,NA,NA,NA,right,1971,true,NA,NA,NA,NA,NA
Me1JvBIm,3e6l1vr4yzzg81jodkfak6sl8ztf6z,3leiz60cdncbilag35hvwsvxct09z2,Me1JvBIm,2020-0188,2021-10-17,10:42:31,12:06:32,NA,incomplete,false,true,NA,3,19,NA,green,m_s_078.jpg,NA,NA,pleasant,unpleasant,NA,NA,NA,NA,NA,left,1414.70000001788,true,NA,NA,NA,NA,NA
Me1JvBIm,3e6l1vr4yzzg81jodkfak6sl8ztf6z,3leiz60cdncbilag35hvwsvxct09z2,Me1JvBIm,2020-0188,2021-10-17,10:42:31,12:06:32,NA,incomplete,false,true,NA,3,20,NA,green,m_l_098.jpg,NA,NA,pleasant,unpleasant,NA,NA,NA,NA,NA,left,1029.10000002384,true,NA,NA,NA,NA,NA
Me1JvBIm,3e6l1vr4yzzg81jodkfak6sl8ztf6z,3leiz60cdncbilag35hvwsvxct09z2,Me1JvBIm,2020-0188,2021-10-17,10:42:31,12:06:32,NA,incomplete,false,true,NA,3,21,NA,green,m_s_047.jpg,NA,NA,unpleasant,pleasant,NA,NA,NA,NA,NA,right,1358.09999999404,true,NA,NA,NA,NA,NA
Me1JvBIm,3e6l1vr4yzzg81jodkfak6sl8ztf6z,3leiz60cdncbilag35hvwsvxct09z2,Me1JvBIm,2020-0188,2021-10-17,10:42:31,12:06:32,NA,incomplete,false,true,NA,3,22,NA,green,n_s_029.jpg,NA,NA,pleasant,unpleasant,NA,NA,NA,NA,NA,left,1421.30000001192,true,NA,NA,NA,NA,NA
Me1JvBIm,3e6l1vr4yzzg81jodkfak6sl8ztf6z,3leiz60cdncbilag35hvwsvxct09z2,Me1JvBIm,2020-0188,2021-10-17,10:42:31,12:06:32,NA,incomplete,false,true,NA,3,23,NA,green,n_l_104.jpg,NA,NA,unpleasant,pleasant,NA,NA,NA,NA,NA,right,1383.60000002384,true,NA,NA,NA,NA,NA
Me1JvBIm,3e6l1vr4yzzg81jodkfak6sl8ztf6z,3leiz60cdncbilag35hvwsvxct09z2,Me1JvBIm,2020-0188,2021-10-17,10:42:31,12:06:32,NA,incomplete,false,true,NA,3,24,NA,brown,m_s_009.jpg,NA,NA,unpleasant,pleasant,NA,NA,NA,NA,NA,right,1744.5,true,NA,NA,NA,NA,NA
Me1JvBIm,3e6l1vr4yzzg81jodkfak6sl8ztf6z,3leiz60cdncbilag35hvwsvxct09z2,Me1JvBIm,2020-0188,2021-10-17,10:42:31,12:06:32,NA,incomplete,false,true,NA,3,25,NA,brown,m_s_025.jpg,NA,NA,unpleasant,pleasant,NA,NA,NA,NA,NA,left,1921,true,NA,NA,NA,NA,NA
Me1JvBIm,3e6l1vr4yzzg81jodkfak6sl8ztf6z,3leiz60cdncbilag35hvwsvxct09z2,Me1JvBIm,2020-0188,2021-10-17,10:42:31,12:06:32,NA,incomplete,false,true,NA,3,26,NA,brown,m_l_011.jpg,NA,NA,unpleasant,pleasant,NA,NA,NA,NA,NA,left,1586.29999998212,true,NA,NA,NA,NA,NA
Me1JvBIm,3e6l1vr4yzzg81jodkfak6sl8ztf6z,3leiz60cdncbilag35hvwsvxct09z2,Me1JvBIm,2020-0188,2021-10-17,10:42:31,12:06:32,NA,incomplete,false,true,NA,3,27,NA,brown,n_l_028.jpg,NA,NA,pleasant,unpleasant,NA,NA,NA,NA,NA,left,1271.29999998212,true,NA,NA,NA,NA,NA
Me1JvBIm,3e6l1vr4yzzg81jodkfak6sl8ztf6z,3leiz60cdncbilag35hvwsvxct09z2,Me1JvBIm,2020-0188,2021-10-17,10:42:31,12:06:32,NA,incomplete,false,true,NA,3,28,NA,brown,m_l_028.jpg,NA,NA,pleasant,unpleasant,NA,NA,NA,NA,NA,right,1207,true,NA,NA,NA,NA,NA
Me1JvBIm,3e6l1vr4yzzg81jodkfak6sl8ztf6z,3leiz60cdncbilag35hvwsvxct09z2,Me1JvBIm,2020-0188,2021-10-17,10:42:31,12:06:32,NA,incomplete,false,true,NA,3,29,NA,brown,n_s_082.jpg,NA,NA,unpleasant,pleasant,NA,NA,NA,NA,NA,left,1771.90000000596,true,NA,NA,NA,NA,NA
Me1JvBIm,3e6l1vr4yzzg81jodkfak6sl8ztf6z,3leiz60cdncbilag35hvwsvxct09z2,Me1JvBIm,2020-0188,2021-10-17,10:42:31,12:06:32,NA,incomplete,false,true,NA,3,30,NA,orange,n_l_056.jpg,NA,NA,pleasant,unpleasant,NA,NA,NA,NA,NA,left,1964.59999999404,true,NA,NA,NA,NA,NA
Me1JvBIm,3e6l1vr4yzzg81jodkfak6sl8ztf6z,3leiz60cdncbilag35hvwsvxct09z2,Me1JvBIm,2020-0188,2021-10-17,10:42:31,12:06:32,NA,incomplete,false,true,NA,3,31,NA,orange,m_l_108.jpg,NA,NA,pleasant,unpleasant,NA,NA,NA,NA,NA,left,1522.59999999404,true,NA,NA,NA,NA,NA
Me1JvBIm,3e6l1vr4yzzg81jodkfak6sl8ztf6z,3leiz60cdncbilag35hvwsvxct09z2,Me1JvBIm,2020-0188,2021-10-17,10:42:31,12:06:32,NA,incomplete,false,true,NA,3,32,NA,orange,n_s_115.jpg,NA,NA,pleasant,unpleasant,NA,NA,NA,NA,NA,right,1161.10000002384,true,NA,NA,NA,NA,NA
Me1JvBIm,3e6l1vr4yzzg81jodkfak6sl8ztf6z,3leiz60cdncbilag35hvwsvxct09z2,Me1JvBIm,2020-0188,2021-10-17,10:42:31,12:06:32,NA,incomplete,false,true,NA,3,33,NA,orange,n_l_037.jpg,NA,NA,pleasant,unpleasant,NA,NA,NA,NA,NA,left,941,true,NA,NA,NA,NA,NA
Me1JvBIm,3e6l1vr4yzzg81jodkfak6sl8ztf6z,3leiz60cdncbilag35hvwsvxct09z2,Me1JvBIm,2020-0188,2021-10-17,10:42:31,12:06:32,NA,incomplete,false,true,NA,3,34,NA,orange,n_l_088.jpg,NA,NA,unpleasant,pleasant,NA,NA,NA,NA,NA,left,1330.40000000596,true,NA,NA,NA,NA,NA
Me1JvBIm,3e6l1vr4yzzg81jodkfak6sl8ztf6z,3leiz60cdncbilag35hvwsvxct09z2,Me1JvBIm,2020-0188,2021-10-17,10:42:31,12:06:32,NA,incomplete,false,true,NA,3,35,NA,orange,m_s_013.jpg,NA,NA,pleasant,unpleasant,NA,NA,NA,NA,NA,right,1416.40000000596,true,NA,NA,NA,NA,NA
Me1JvBIm,3e6l1vr4yzzg81jodkfak6sl8ztf6z,3leiz60cdncbilag35hvwsvxct09z2,Me1JvBIm,2020-0188,2021-10-17,10:42:31,12:06:32,NA,incomplete,false,NA,true,3,0,NA,NA,NA,right,present,NA,NA,n_s_115.jpg,orange,m_l_028.jpg,brown,between,NA,NaN,NA,right,1902.4000000059605,1,1,3973.5
Me1JvBIm,3e6l1vr4yzzg81jodkfak6sl8ztf6z,3leiz60cdncbilag35hvwsvxct09z2,Me1JvBIm,2020-0188,2021-10-17,10:42:31,12:06:32,NA,incomplete,false,NA,true,3,1,NA,NA,NA,right,present,NA,NA,m_s_013.jpg,orange,m_l_108.jpg,orange,within,NA,NaN,NA,right,3933.2999999821186,1,0,1589
Me1JvBIm,3e6l1vr4yzzg81jodkfak6sl8ztf6z,3leiz60cdncbilag35hvwsvxct09z2,Me1JvBIm,2020-0188,2021-10-17,10:42:31,12:06:32,NA,incomplete,false,NA,true,3,2,NA,NA,NA,left,present,NA,NA,n_s_047.jpg,black,m_s_117.jpg,black,within,NA,NaN,NA,left,5026.5,1,0,1086.199999988079
Me1JvBIm,3e6l1vr4yzzg81jodkfak6sl8ztf6z,3leiz60cdncbilag35hvwsvxct09z2,Me1JvBIm,2020-0188,2021-10-17,10:42:31,12:06:32,NA,incomplete,false,NA,true,3,3,NA,NA,NA,left,present,NA,NA,m_l_074.jpg,yellow,n_l_063.jpg,yellow,within,NA,NaN,NA,right,5834.9000000059605,0,0,1175.0999999940395
Me1JvBIm,3e6l1vr4yzzg81jodkfak6sl8ztf6z,3leiz60cdncbilag35hvwsvxct09z2,Me1JvBIm,2020-0188,2021-10-17,10:42:31,12:06:32,NA,incomplete,false,NA,true,3,4,NA,NA,NA,left,present,NA,NA,m_l_002.jpg,purple,n_s_010.jpg,purple,within,NA,NaN,NA,left,3979,1,0,1045.2000000178814
Me1JvBIm,3e6l1vr4yzzg81jodkfak6sl8ztf6z,3leiz60cdncbilag35hvwsvxct09z2,Me1JvBIm,2020-0188,2021-10-17,10:42:31,12:06:32,NA,incomplete,false,NA,true,3,5,NA,NA,NA,right,present,NA,NA,n_l_104.jpg,green,m_s_078.jpg,green,within,NA,NaN,NA,right,5115.0999999940395,1,0,1428.2000000178814
Me1JvBIm,3e6l1vr4yzzg81jodkfak6sl8ztf6z,3leiz60cdncbilag35hvwsvxct09z2,Me1JvBIm,2020-0188,2021-10-17,10:42:31,12:06:32,NA,incomplete,false,NA,true,3,6,NA,NA,NA,right,present,NA,NA,m_s_059.jpg,purple,m_l_079.jpg,yellow,between,NA,NaN,NA,right,2609.7000000178814,1,2,1401.9000000059605
Me1JvBIm,3e6l1vr4yzzg81jodkfak6sl8ztf6z,3leiz60cdncbilag35hvwsvxct09z2,Me1JvBIm,2020-0188,2021-10-17,10:42:31,12:06:32,NA,incomplete,false,NA,true,3,7,NA,NA,NA,right,present,NA,NA,m_l_041.jpg,yellow,n_l_066.jpg,black,between,NA,NaN,NA,left,4457.200000017881,0,1,3131.5999999940395
Me1JvBIm,3e6l1vr4yzzg81jodkfak6sl8ztf6z,3leiz60cdncbilag35hvwsvxct09z2,Me1JvBIm,2020-0188,2021-10-17,10:42:31,12:06:32,NA,incomplete,false,NA,true,3,8,NA,NA,NA,left,present,NA,NA,n_l_062.jpg,purple,m_l_098.jpg,green,between,NA,NaN,NA,left,2559.300000011921,1,1,1018
Me1JvBIm,3e6l1vr4yzzg81jodkfak6sl8ztf6z,3leiz60cdncbilag35hvwsvxct09z2,Me1JvBIm,2020-0188,2021-10-17,10:42:31,12:06:32,NA,incomplete,false,NA,true,3,9,NA,NA,NA,right,present,NA,NA,m_l_011.jpg,brown,n_s_029.jpg,green,between,NA,NaN,NA,right,1983.699999988079,1,2,1666.2999999821186
Me1JvBIm,3e6l1vr4yzzg81jodkfak6sl8ztf6z,3leiz60cdncbilag35hvwsvxct09z2,Me1JvBIm,2020-0188,2021-10-17,10:42:31,12:06:32,NA,incomplete,false,NA,true,3,10,NA,NA,NA,right,present,NA,NA,n_s_082.jpg,brown,m_s_025.jpg,brown,within,NA,NaN,NA,right,3071.300000011921,1,0,1402.0999999940395
Me1JvBIm,3e6l1vr4yzzg81jodkfak6sl8ztf6z,3leiz60cdncbilag35hvwsvxct09z2,Me1JvBIm,2020-0188,2021-10-17,10:42:31,12:06:32,NA,incomplete,false,true,NA,4,0,NA,blue,m_s_001.jpg,NA,NA,pleasant,unpleasant,NA,NA,NA,NA,NA,left,1775.40000000596,true,NA,NA,NA,NA,NA
Me1JvBIm,3e6l1vr4yzzg81jodkfak6sl8ztf6z,3leiz60cdncbilag35hvwsvxct09z2,Me1JvBIm,2020-0188,2021-10-17,10:42:31,12:06:32,NA,incomplete,false,true,NA,4,1,NA,blue,m_l_087.jpg,NA,NA,unpleasant,pleasant,NA,NA,NA,NA,NA,right,1818.89999997616,true,NA,NA,NA,NA,NA
Me1JvBIm,3e6l1vr4yzzg81jodkfak6sl8ztf6z,3leiz60cdncbilag35hvwsvxct09z2,Me1JvBIm,2020-0188,2021-10-17,10:42:31,12:06:32,NA,incomplete,false,true,NA,4,2,NA,blue,m_l_104.jpg,NA,NA,unpleasant,pleasant,NA,NA,NA,NA,NA,right,1434.69999998808,true,NA,NA,NA,NA,NA
Me1JvBIm,3e6l1vr4yzzg81jodkfak6sl8ztf6z,3leiz60cdncbilag35hvwsvxct09z2,Me1JvBIm,2020-0188,2021-10-17,10:42:31,12:06:32,NA,incomplete,false,true,NA,4,3,NA,blue,n_l_014.jpg,NA,NA,pleasant,unpleasant,NA,NA,NA,NA,NA,left,1083.89999997616,true,NA,NA,NA,NA,NA
Me1JvBIm,3e6l1vr4yzzg81jodkfak6sl8ztf6z,3leiz60cdncbilag35hvwsvxct09z2,Me1JvBIm,2020-0188,2021-10-17,10:42:31,12:06:32,NA,incomplete,false,true,NA,4,4,NA,blue,n_s_017.jpg,NA,NA,unpleasant,pleasant,NA,NA,NA,NA,NA,right,1367.69999998808,true,NA,NA,NA,NA,NA
Me1JvBIm,3e6l1vr4yzzg81jodkfak6sl8ztf6z,3leiz60cdncbilag35hvwsvxct09z2,Me1JvBIm,2020-0188,2021-10-17,10:42:31,12:06:32,NA,incomplete,false,true,NA,4,5,NA,blue,n_l_065.jpg,NA,NA,pleasant,unpleasant,NA,NA,NA,NA,NA,left,1316.20000001788,true,NA,NA,NA,NA,NA
Me1JvBIm,3e6l1vr4yzzg81jodkfak6sl8ztf6z,3leiz60cdncbilag35hvwsvxct09z2,Me1JvBIm,2020-0188,2021-10-17,10:42:31,12:06:32,NA,incomplete,false,true,NA,4,6,NA,black,n_s_076.jpg,NA,NA,unpleasant,pleasant,NA,NA,NA,NA,NA,left,2095,true,NA,NA,NA,NA,NA
Me1JvBIm,3e6l1vr4yzzg81jodkfak6sl8ztf6z,3leiz60cdncbilag35hvwsvxct09z2,Me1JvBIm,2020-0188,2021-10-17,10:42:31,12:06:32,NA,incomplete,false,true,NA,4,7,NA,black,m_l_048.jpg,NA,NA,pleasant,unpleasant,NA,NA,NA,NA,NA,left,1837.40000000596,true,NA,NA,NA,NA,NA
Me1JvBIm,3e6l1vr4yzzg81jodkfak6sl8ztf6z,3leiz60cdncbilag35hvwsvxct09z2,Me1JvBIm,2020-0188,2021-10-17,10:42:31,12:06:32,NA,incomplete,false,true,NA,4,8,NA,black,n_l_083.jpg,NA,NA,unpleasant,pleasant,NA,NA,NA,NA,NA,right,1351.59999999404,true,NA,NA,NA,NA,NA
Me1JvBIm,3e6l1vr4yzzg81jodkfak6sl8ztf6z,3leiz60cdncbilag35hvwsvxct09z2,Me1JvBIm,2020-0188,2021-10-17,10:42:31,12:06:32,NA,incomplete,false,true,NA,4,9,NA,black,n_s_095.jpg,NA,NA,pleasant,unpleasant,NA,NA,NA,NA,NA,right,1681.30000001192,true,NA,NA,NA,NA,NA
Me1JvBIm,3e6l1vr4yzzg81jodkfak6sl8ztf6z,3leiz60cdncbilag35hvwsvxct09z2,Me1JvBIm,2020-0188,2021-10-17,10:42:31,12:06:32,NA,incomplete,false,true,NA,4,10,NA,black,n_l_112.jpg,NA,NA,pleasant,unpleasant,NA,NA,NA,NA,NA,left,1051.70000001788,true,NA,NA,NA,NA,NA
Me1JvBIm,3e6l1vr4yzzg81jodkfak6sl8ztf6z,3leiz60cdncbilag35hvwsvxct09z2,Me1JvBIm,2020-0188,2021-10-17,10:42:31,12:06:32,NA,incomplete,false,true,NA,4,11,NA,black,n_s_097.jpg,NA,NA,pleasant,unpleasant,NA,NA,NA,NA,NA,left,1104.09999999404,true,NA,NA,NA,NA,NA
Me1JvBIm,3e6l1vr4yzzg81jodkfak6sl8ztf6z,3leiz60cdncbilag35hvwsvxct09z2,Me1JvBIm,2020-0188,2021-10-17,10:42:31,12:06:32,NA,incomplete,false,true,NA,4,12,NA,purple,n_l_087.jpg,NA,NA,pleasant,unpleasant,NA,NA,NA,NA,NA,left,2051.40000000596,true,NA,NA,NA,NA,NA
Me1JvBIm,3e6l1vr4yzzg81jodkfak6sl8ztf6z,3leiz60cdncbilag35hvwsvxct09z2,Me1JvBIm,2020-0188,2021-10-17,10:42:31,12:06:32,NA,incomplete,false,true,NA,4,13,NA,purple,m_l_116.jpg,NA,NA,unpleasant,pleasant,NA,NA,NA,NA,NA,right,1301.29999998212,true,NA,NA,NA,NA,NA
Me1JvBIm,3e6l1vr4yzzg81jodkfak6sl8ztf6z,3leiz60cdncbilag35hvwsvxct09z2,Me1JvBIm,2020-0188,2021-10-17,10:42:31,12:06:32,NA,incomplete,false,true,NA,4,14,NA,purple,n_s_053.jpg,NA,NA,pleasant,unpleasant,NA,NA,NA,NA,NA,left,2170.40000000596,true,NA,NA,NA,NA,NA
Me1JvBIm,3e6l1vr4yzzg81jodkfak6sl8ztf6z,3leiz60cdncbilag35hvwsvxct09z2,Me1JvBIm,2020-0188,2021-10-17,10:42:31,12:06:32,NA,incomplete,false,true,NA,4,15,NA,purple,m_s_103.jpg,NA,NA,pleasant,unpleasant,NA,NA,NA,NA,NA,left,1157.59999999404,true,NA,NA,NA,NA,NA
Me1JvBIm,3e6l1vr4yzzg81jodkfak6sl8ztf6z,3leiz60cdncbilag35hvwsvxct09z2,Me1JvBIm,2020-0188,2021-10-17,10:42:31,12:06:32,NA,incomplete,false,true,NA,4,16,NA,purple,m_l_081.jpg,NA,NA,unpleasant,pleasant,NA,NA,NA,NA,NA,right,998.09999999404,true,NA,NA,NA,NA,NA
Me1JvBIm,3e6l1vr4yzzg81jodkfak6sl8ztf6z,3leiz60cdncbilag35hvwsvxct09z2,Me1JvBIm,2020-0188,2021-10-17,10:42:31,12:06:32,NA,incomplete,false,true,NA,4,17,NA,purple,n_s_117.jpg,NA,NA,unpleasant,pleasant,NA,NA,NA,NA,NA,left,1441.30000001192,true,NA,NA,NA,NA,NA
Me1JvBIm,3e6l1vr4yzzg81jodkfak6sl8ztf6z,3leiz60cdncbilag35hvwsvxct09z2,Me1JvBIm,2020-0188,2021-10-17,10:42:31,12:06:32,NA,incomplete,false,true,NA,4,18,NA,white,n_l_099.jpg,NA,NA,pleasant,unpleasant,NA,NA,NA,NA,NA,left,2217.89999997616,true,NA,NA,NA,NA,NA
Me1JvBIm,3e6l1vr4yzzg81jodkfak6sl8ztf6z,3leiz60cdncbilag35hvwsvxct09z2,Me1JvBIm,2020-0188,2021-10-17,10:42:31,12:06:32,NA,incomplete,false,true,NA,4,19,NA,white,m_s_049.jpg,NA,NA,pleasant,unpleasant,NA,NA,NA,NA,NA,left,2002.40000000596,true,NA,NA,NA,NA,NA
Me1JvBIm,3e6l1vr4yzzg81jodkfak6sl8ztf6z,3leiz60cdncbilag35hvwsvxct09z2,Me1JvBIm,2020-0188,2021-10-17,10:42:31,12:06:32,NA,incomplete,false,true,NA,4,20,NA,white,m_l_029.jpg,NA,NA,unpleasant,pleasant,NA,NA,NA,NA,NA,left,1918.90000000596,true,NA,NA,NA,NA,NA
Me1JvBIm,3e6l1vr4yzzg81jodkfak6sl8ztf6z,3leiz60cdncbilag35hvwsvxct09z2,Me1JvBIm,2020-0188,2021-10-17,10:42:31,12:06:32,NA,incomplete,false,true,NA,4,21,NA,white,n_s_086.jpg,NA,NA,pleasant,unpleasant,NA,NA,NA,NA,NA,right,1519.40000000596,true,NA,NA,NA,NA,NA
Me1JvBIm,3e6l1vr4yzzg81jodkfak6sl8ztf6z,3leiz60cdncbilag35hvwsvxct09z2,Me1JvBIm,2020-0188,2021-10-17,10:42:31,12:06:32,NA,incomplete,false,true,NA,4,22,NA,white,n_l_048.jpg,NA,NA,unpleasant,pleasant,NA,NA,NA,NA,NA,right,1338.70000001788,true,NA,NA,NA,NA,NA
Me1JvBIm,3e6l1vr4yzzg81jodkfak6sl8ztf6z,3leiz60cdncbilag35hvwsvxct09z2,Me1JvBIm,2020-0188,2021-10-17,10:42:31,12:06:32,NA,incomplete,false,true,NA,4,23,NA,white,n_l_114.jpg,NA,NA,unpleasant,pleasant,NA,NA,NA,NA,NA,right,1170.40000000596,true,NA,NA,NA,NA,NA
Me1JvBIm,3e6l1vr4yzzg81jodkfak6sl8ztf6z,3leiz60cdncbilag35hvwsvxct09z2,Me1JvBIm,2020-0188,2021-10-17,10:42:31,12:06:32,NA,incomplete,false,true,NA,4,24,NA,brown,n_l_101.jpg,NA,NA,unpleasant,pleasant,NA,NA,NA,NA,NA,right,1987.30000001192,true,NA,NA,NA,NA,NA
Me1JvBIm,3e6l1vr4yzzg81jodkfak6sl8ztf6z,3leiz60cdncbilag35hvwsvxct09z2,Me1JvBIm,2020-0188,2021-10-17,10:42:31,12:06:32,NA,incomplete,false,true,NA,4,25,NA,brown,m_s_053.jpg,NA,NA,unpleasant,pleasant,NA,NA,NA,NA,NA,right,1326.80000001192,true,NA,NA,NA,NA,NA
Me1JvBIm,3e6l1vr4yzzg81jodkfak6sl8ztf6z,3leiz60cdncbilag35hvwsvxct09z2,Me1JvBIm,2020-0188,2021-10-17,10:42:31,12:06:32,NA,incomplete,false,true,NA,4,26,NA,brown,m_s_082.jpg,NA,NA,pleasant,unpleasant,NA,NA,NA,NA,NA,right,1478.5,true,NA,NA,NA,NA,NA
Me1JvBIm,3e6l1vr4yzzg81jodkfak6sl8ztf6z,3leiz60cdncbilag35hvwsvxct09z2,Me1JvBIm,2020-0188,2021-10-17,10:42:31,12:06:32,NA,incomplete,false,true,NA,4,27,NA,brown,m_s_063.jpg,NA,NA,unpleasant,pleasant,NA,NA,NA,NA,NA,right,1825.69999998808,true,NA,NA,NA,NA,NA
Me1JvBIm,3e6l1vr4yzzg81jodkfak6sl8ztf6z,3leiz60cdncbilag35hvwsvxct09z2,Me1JvBIm,2020-0188,2021-10-17,10:42:31,12:06:32,NA,incomplete,false,true,NA,4,28,NA,brown,n_l_032.jpg,NA,NA,pleasant,unpleasant,NA,NA,NA,NA,NA,left,1142.59999999404,true,NA,NA,NA,NA,NA
Me1JvBIm,3e6l1vr4yzzg81jodkfak6sl8ztf6z,3leiz60cdncbilag35hvwsvxct09z2,Me1JvBIm,2020-0188,2021-10-17,10:42:31,12:06:32,NA,incomplete,false,true,NA,4,29,NA,brown,n_s_073.jpg,NA,NA,unpleasant,pleasant,NA,NA,NA,NA,NA,right,1218.40000000596,true,NA,NA,NA,NA,NA
Me1JvBIm,3e6l1vr4yzzg81jodkfak6sl8ztf6z,3leiz60cdncbilag35hvwsvxct09z2,Me1JvBIm,2020-0188,2021-10-17,10:42:31,12:06:32,NA,incomplete,false,true,NA,4,30,NA,orange,n_l_116.jpg,NA,NA,pleasant,unpleasant,NA,NA,NA,NA,NA,left,1553.09999999404,true,NA,NA,NA,NA,NA
Me1JvBIm,3e6l1vr4yzzg81jodkfak6sl8ztf6z,3leiz60cdncbilag35hvwsvxct09z2,Me1JvBIm,2020-0188,2021-10-17,10:42:31,12:06:32,NA,incomplete,false,true,NA,4,31,NA,orange,n_l_077.jpg,NA,NA,unpleasant,pleasant,NA,NA,NA,NA,NA,right,1064.20000001788,true,NA,NA,NA,NA,NA
Me1JvBIm,3e6l1vr4yzzg81jodkfak6sl8ztf6z,3leiz60cdncbilag35hvwsvxct09z2,Me1JvBIm,2020-0188,2021-10-17,10:42:31,12:06:32,NA,incomplete,false,true,NA,4,32,NA,orange,n_s_088.jpg,NA,NA,pleasant,unpleasant,NA,NA,NA,NA,NA,left,1178.20000001788,true,NA,NA,NA,NA,NA
Me1JvBIm,3e6l1vr4yzzg81jodkfak6sl8ztf6z,3leiz60cdncbilag35hvwsvxct09z2,Me1JvBIm,2020-0188,2021-10-17,10:42:31,12:06:32,NA,incomplete,false,true,NA,4,33,NA,orange,m_s_039.jpg,NA,NA,unpleasant,pleasant,NA,NA,NA,NA,NA,right,1159.30000001192,true,NA,NA,NA,NA,NA
Me1JvBIm,3e6l1vr4yzzg81jodkfak6sl8ztf6z,3leiz60cdncbilag35hvwsvxct09z2,Me1JvBIm,2020-0188,2021-10-17,10:42:31,12:06:32,NA,incomplete,false,true,NA,4,34,NA,orange,n_s_103.jpg,NA,NA,pleasant,unpleasant,NA,NA,NA,NA,NA,right,2176.70000001788,true,NA,NA,NA,NA,NA
Me1JvBIm,3e6l1vr4yzzg81jodkfak6sl8ztf6z,3leiz60cdncbilag35hvwsvxct09z2,Me1JvBIm,2020-0188,2021-10-17,10:42:31,12:06:32,NA,incomplete,false,true,NA,4,35,NA,orange,m_s_038.jpg,NA,NA,unpleasant,pleasant,NA,NA,NA,NA,NA,right,1676.69999998808,true,NA,NA,NA,NA,NA
Me1JvBIm,3e6l1vr4yzzg81jodkfak6sl8ztf6z,3leiz60cdncbilag35hvwsvxct09z2,Me1JvBIm,2020-0188,2021-10-17,10:42:31,12:06:32,NA,incomplete,false,NA,true,4,0,NA,NA,NA,left,absent,NA,NA,n_l_077.jpg,orange,m_s_038.jpg,orange,within,NA,NaN,NA,left,5080.0999999940395,1,0,1390.7000000178814
Me1JvBIm,3e6l1vr4yzzg81jodkfak6sl8ztf6z,3leiz60cdncbilag35hvwsvxct09z2,Me1JvBIm,2020-0188,2021-10-17,10:42:31,12:06:32,NA,incomplete,false,NA,true,4,1,NA,NA,NA,right,absent,NA,NA,n_s_097.jpg,black,m_l_048.jpg,black,within,NA,NaN,NA,left,6301,0,0,1358.2999999821186
Me1JvBIm,3e6l1vr4yzzg81jodkfak6sl8ztf6z,3leiz60cdncbilag35hvwsvxct09z2,Me1JvBIm,2020-0188,2021-10-17,10:42:31,12:06:32,NA,incomplete,false,NA,true,4,2,NA,NA,NA,left,absent,NA,NA,n_l_048.jpg,white,m_s_082.jpg,brown,between,NA,NaN,NA,right,5886,0,1,3932.9000000059605
Me1JvBIm,3e6l1vr4yzzg81jodkfak6sl8ztf6z,3leiz60cdncbilag35hvwsvxct09z2,Me1JvBIm,2020-0188,2021-10-17,10:42:31,12:06:32,NA,incomplete,false,NA,true,4,3,NA,NA,NA,right,absent,NA,NA,n_s_053.jpg,purple,n_l_112.jpg,black,between,NA,NaN,NA,left,6082,0,2,4395.700000017881
Me1JvBIm,3e6l1vr4yzzg81jodkfak6sl8ztf6z,3leiz60cdncbilag35hvwsvxct09z2,Me1JvBIm,2020-0188,2021-10-17,10:42:31,12:06:32,NA,incomplete,false,NA,true,4,4,NA,NA,NA,left,absent,NA,NA,m_l_081.jpg,purple,m_l_029.jpg,white,between,NA,NaN,NA,left,3172.4000000059605,1,2,1970.1000000238419
Me1JvBIm,3e6l1vr4yzzg81jodkfak6sl8ztf6z,3leiz60cdncbilag35hvwsvxct09z2,Me1JvBIm,2020-0188,2021-10-17,10:42:31,12:06:32,NA,incomplete,false,NA,true,4,5,NA,NA,NA,right,absent,NA,NA,n_l_114.jpg,white,m_s_049.jpg,white,within,NA,NaN,NA,right,2370.5999999940395,1,2,2165.5
Me1JvBIm,3e6l1vr4yzzg81jodkfak6sl8ztf6z,3leiz60cdncbilag35hvwsvxct09z2,Me1JvBIm,2020-0188,2021-10-17,10:42:31,12:06:32,NA,incomplete,false,NA,true,4,6,NA,NA,NA,left,absent,NA,NA,n_l_032.jpg,brown,n_s_088.jpg,orange,between,NA,NaN,NA,left,2834.9000000059605,1,3,1443.5999999940395
Me1JvBIm,3e6l1vr4yzzg81jodkfak6sl8ztf6z,3leiz60cdncbilag35hvwsvxct09z2,Me1JvBIm,2020-0188,2021-10-17,10:42:31,12:06:32,NA,incomplete,false,NA,true,4,7,NA,NA,NA,left,absent,NA,NA,m_s_053.jpg,brown,n_s_073.jpg,brown,within,NA,NaN,NA,left,7491.800000011921,1,0,1779.699999988079
Me1JvBIm,3e6l1vr4yzzg81jodkfak6sl8ztf6z,3leiz60cdncbilag35hvwsvxct09z2,Me1JvBIm,2020-0188,2021-10-17,10:42:31,12:06:32,NA,incomplete,false,NA,true,4,8,NA,NA,NA,left,absent,NA,NA,m_l_087.jpg,blue,n_l_065.jpg,blue,within,NA,NaN,NA,left,3267.0999999940395,1,2,1027.800000011921
Me1JvBIm,3e6l1vr4yzzg81jodkfak6sl8ztf6z,3leiz60cdncbilag35hvwsvxct09z2,Me1JvBIm,2020-0188,2021-10-17,10:42:31,12:06:32,NA,incomplete,false,NA,true,4,9,NA,NA,NA,left,absent,NA,NA,n_s_017.jpg,blue,n_l_083.jpg,black,between,NA,NaN,NA,right,4473.5999999940395,0,2,1833.4000000059605
Me1JvBIm,3e6l1vr4yzzg81jodkfak6sl8ztf6z,3leiz60cdncbilag35hvwsvxct09z2,Me1JvBIm,2020-0188,2021-10-17,10:42:31,12:06:32,NA,incomplete,false,NA,true,4,10,NA,NA,NA,right,absent,NA,NA,n_s_117.jpg,purple,m_l_116.jpg,purple,within,NA,NaN,NA,right,3480.7999999821186,1,2,1163.699999988079
Me1JvBIm,3e6l1vr4yzzg81jodkfak6sl8ztf6z,3leiz60cdncbilag35hvwsvxct09z2,Me1JvBIm,2020-0188,2021-10-17,10:42:31,12:06:32,NA,incomplete,false,true,NA,5,0,NA,green,m_s_097.jpg,NA,NA,unpleasant,pleasant,NA,NA,NA,NA,NA,left,2510.20000001788,true,NA,NA,NA,NA,NA
Me1JvBIm,3e6l1vr4yzzg81jodkfak6sl8ztf6z,3leiz60cdncbilag35hvwsvxct09z2,Me1JvBIm,2020-0188,2021-10-17,10:42:31,12:06:32,NA,incomplete,false,true,NA,5,1,NA,green,n_s_072.jpg,NA,NA,pleasant,unpleasant,NA,NA,NA,NA,NA,right,1338.40000000596,true,NA,NA,NA,NA,NA
Me1JvBIm,3e6l1vr4yzzg81jodkfak6sl8ztf6z,3leiz60cdncbilag35hvwsvxct09z2,Me1JvBIm,2020-0188,2021-10-17,10:42:31,12:06:32,NA,incomplete,false,true,NA,5,2,NA,green,m_s_044.jpg,NA,NA,unpleasant,pleasant,NA,NA,NA,NA,NA,right,1245.69999998808,true,NA,NA,NA,NA,NA
Me1JvBIm,3e6l1vr4yzzg81jodkfak6sl8ztf6z,3leiz60cdncbilag35hvwsvxct09z2,Me1JvBIm,2020-0188,2021-10-17,10:42:31,12:06:32,NA,incomplete,false,true,NA,5,3,NA,green,m_l_032.jpg,NA,NA,unpleasant,pleasant,NA,NA,NA,NA,NA,right,1257.69999998808,true,NA,NA,NA,NA,NA
Me1JvBIm,3e6l1vr4yzzg81jodkfak6sl8ztf6z,3leiz60cdncbilag35hvwsvxct09z2,Me1JvBIm,2020-0188,2021-10-17,10:42:31,12:06:32,NA,incomplete,false,true,NA,5,4,NA,green,n_l_044.jpg,NA,NA,unpleasant,pleasant,NA,NA,NA,NA,NA,right,1151.40000000596,true,NA,NA,NA,NA,NA
Me1JvBIm,3e6l1vr4yzzg81jodkfak6sl8ztf6z,3leiz60cdncbilag35hvwsvxct09z2,Me1JvBIm,2020-0188,2021-10-17,10:42:31,12:06:32,NA,incomplete,false,true,NA,5,5,NA,green,m_s_089.jpg,NA,NA,unpleasant,pleasant,NA,NA,NA,NA,NA,left,1575.5,true,NA,NA,NA,NA,NA
Me1JvBIm,3e6l1vr4yzzg81jodkfak6sl8ztf6z,3leiz60cdncbilag35hvwsvxct09z2,Me1JvBIm,2020-0188,2021-10-17,10:42:31,12:06:32,NA,incomplete,false,true,NA,5,6,NA,black,m_s_073.jpg,NA,NA,pleasant,unpleasant,NA,NA,NA,NA,NA,right,1732.89999997616,true,NA,NA,NA,NA,NA
Me1JvBIm,3e6l1vr4yzzg81jodkfak6sl8ztf6z,3leiz60cdncbilag35hvwsvxct09z2,Me1JvBIm,2020-0188,2021-10-17,10:42:31,12:06:32,NA,incomplete,false,true,NA,5,7,NA,black,m_l_053.jpg,NA,NA,pleasant,unpleasant,NA,NA,NA,NA,NA,left,1073.29999998212,true,NA,NA,NA,NA,NA
Me1JvBIm,3e6l1vr4yzzg81jodkfak6sl8ztf6z,3leiz60cdncbilag35hvwsvxct09z2,Me1JvBIm,2020-0188,2021-10-17,10:42:31,12:06:32,NA,incomplete,false,true,NA,5,8,NA,black,n_s_054.jpg,NA,NA,pleasant,unpleasant,NA,NA,NA,NA,NA,right,1656.5,true,NA,NA,NA,NA,NA
Me1JvBIm,3e6l1vr4yzzg81jodkfak6sl8ztf6z,3leiz60cdncbilag35hvwsvxct09z2,Me1JvBIm,2020-0188,2021-10-17,10:42:31,12:06:32,NA,incomplete,false,true,NA,5,9,NA,black,m_s_042.jpg,NA,NA,unpleasant,pleasant,NA,NA,NA,NA,NA,right,1093.40000000596,true,NA,NA,NA,NA,NA
Me1JvBIm,3e6l1vr4yzzg81jodkfak6sl8ztf6z,3leiz60cdncbilag35hvwsvxct09z2,Me1JvBIm,2020-0188,2021-10-17,10:42:31,12:06:32,NA,incomplete,false,true,NA,5,10,NA,black,n_s_108.jpg,NA,NA,pleasant,unpleasant,NA,NA,NA,NA,NA,left,1535,true,NA,NA,NA,NA,NA
Me1JvBIm,3e6l1vr4yzzg81jodkfak6sl8ztf6z,3leiz60cdncbilag35hvwsvxct09z2,Me1JvBIm,2020-0188,2021-10-17,10:42:31,12:06:32,NA,incomplete,false,true,NA,5,11,NA,black,m_s_099.jpg,NA,NA,unpleasant,pleasant,NA,NA,NA,NA,NA,right,1554,true,NA,NA,NA,NA,NA
Me1JvBIm,3e6l1vr4yzzg81jodkfak6sl8ztf6z,3leiz60cdncbilag35hvwsvxct09z2,Me1JvBIm,2020-0188,2021-10-17,10:42:31,12:06:32,NA,incomplete,false,true,NA,5,12,NA,red,n_s_043.jpg,NA,NA,unpleasant,pleasant,NA,NA,NA,NA,NA,right,1881.19999998808,true,NA,NA,NA,NA,NA
Me1JvBIm,3e6l1vr4yzzg81jodkfak6sl8ztf6z,3leiz60cdncbilag35hvwsvxct09z2,Me1JvBIm,2020-0188,2021-10-17,10:42:31,12:06:32,NA,incomplete,false,true,NA,5,13,NA,red,n_l_043.jpg,NA,NA,unpleasant,pleasant,NA,NA,NA,NA,NA,right,2076,true,NA,NA,NA,NA,NA
Me1JvBIm,3e6l1vr4yzzg81jodkfak6sl8ztf6z,3leiz60cdncbilag35hvwsvxct09z2,Me1JvBIm,2020-0188,2021-10-17,10:42:31,12:06:32,NA,incomplete,false,true,NA,5,14,NA,red,n_l_069.jpg,NA,NA,unpleasant,pleasant,NA,NA,NA,NA,NA,right,1191.69999998808,true,NA,NA,NA,NA,NA
Me1JvBIm,3e6l1vr4yzzg81jodkfak6sl8ztf6z,3leiz60cdncbilag35hvwsvxct09z2,Me1JvBIm,2020-0188,2021-10-17,10:42:31,12:06:32,NA,incomplete,false,true,NA,5,15,NA,red,m_s_023.jpg,NA,NA,pleasant,unpleasant,NA,NA,NA,NA,NA,left,1484.29999998212,true,NA,NA,NA,NA,NA
Me1JvBIm,3e6l1vr4yzzg81jodkfak6sl8ztf6z,3leiz60cdncbilag35hvwsvxct09z2,Me1JvBIm,2020-0188,2021-10-17,10:42:31,12:06:32,NA,incomplete,false,true,NA,5,16,NA,red,m_l_083.jpg,NA,NA,unpleasant,pleasant,NA,NA,NA,NA,NA,right,2039.09999999404,true,NA,NA,NA,NA,NA
Me1JvBIm,3e6l1vr4yzzg81jodkfak6sl8ztf6z,3leiz60cdncbilag35hvwsvxct09z2,Me1JvBIm,2020-0188,2021-10-17,10:42:31,12:06:32,NA,incomplete,false,true,NA,5,17,NA,red,n_l_025.jpg,NA,NA,pleasant,unpleasant,NA,NA,NA,NA,NA,left,1549.5,true,NA,NA,NA,NA,NA
Me1JvBIm,3e6l1vr4yzzg81jodkfak6sl8ztf6z,3leiz60cdncbilag35hvwsvxct09z2,Me1JvBIm,2020-0188,2021-10-17,10:42:31,12:06:32,NA,incomplete,false,true,NA,5,18,NA,yellow,m_l_094.jpg,NA,NA,pleasant,unpleasant,NA,NA,NA,NA,NA,right,2455.69999998808,true,NA,NA,NA,NA,NA
Me1JvBIm,3e6l1vr4yzzg81jodkfak6sl8ztf6z,3leiz60cdncbilag35hvwsvxct09z2,Me1JvBIm,2020-0188,2021-10-17,10:42:31,12:06:32,NA,incomplete,false,true,NA,5,19,NA,yellow,m_l_117.jpg,NA,NA,unpleasant,pleasant,NA,NA,NA,NA,NA,left,1379.19999998808,true,NA,NA,NA,NA,NA
Me1JvBIm,3e6l1vr4yzzg81jodkfak6sl8ztf6z,3leiz60cdncbilag35hvwsvxct09z2,Me1JvBIm,2020-0188,2021-10-17,10:42:31,12:06:32,NA,incomplete,false,true,NA,5,20,NA,yellow,m_l_107.jpg,NA,NA,unpleasant,pleasant,NA,NA,NA,NA,NA,left,1487.90000000596,true,NA,NA,NA,NA,NA
Me1JvBIm,3e6l1vr4yzzg81jodkfak6sl8ztf6z,3leiz60cdncbilag35hvwsvxct09z2,Me1JvBIm,2020-0188,2021-10-17,10:42:31,12:06:32,NA,incomplete,false,true,NA,5,21,NA,yellow,n_s_026.jpg,NA,NA,unpleasant,pleasant,NA,NA,NA,NA,NA,right,1227,true,NA,NA,NA,NA,NA
Me1JvBIm,3e6l1vr4yzzg81jodkfak6sl8ztf6z,3leiz60cdncbilag35hvwsvxct09z2,Me1JvBIm,2020-0188,2021-10-17,10:42:31,12:06:32,NA,incomplete,false,true,NA,5,22,NA,yellow,m_l_100.jpg,NA,NA,unpleasant,pleasant,NA,NA,NA,NA,NA,right,985.300000011921,true,NA,NA,NA,NA,NA
Me1JvBIm,3e6l1vr4yzzg81jodkfak6sl8ztf6z,3leiz60cdncbilag35hvwsvxct09z2,Me1JvBIm,2020-0188,2021-10-17,10:42:31,12:06:32,NA,incomplete,false,true,NA,5,23,NA,yellow,n_l_085.jpg,NA,NA,pleasant,unpleasant,NA,NA,NA,NA,NA,left,1817.30000001192,true,NA,NA,NA,NA,NA
Me1JvBIm,3e6l1vr4yzzg81jodkfak6sl8ztf6z,3leiz60cdncbilag35hvwsvxct09z2,Me1JvBIm,2020-0188,2021-10-17,10:42:31,12:06:32,NA,incomplete,false,true,NA,5,24,NA,brown,m_l_066.jpg,NA,NA,unpleasant,pleasant,NA,NA,NA,NA,NA,left,2318.19999998808,true,NA,NA,NA,NA,NA
Me1JvBIm,3e6l1vr4yzzg81jodkfak6sl8ztf6z,3leiz60cdncbilag35hvwsvxct09z2,Me1JvBIm,2020-0188,2021-10-17,10:42:31,12:06:32,NA,incomplete,false,true,NA,5,25,NA,brown,m_s_108.jpg,NA,NA,unpleasant,pleasant,NA,NA,NA,NA,NA,right,1654,true,NA,NA,NA,NA,NA
Me1JvBIm,3e6l1vr4yzzg81jodkfak6sl8ztf6z,3leiz60cdncbilag35hvwsvxct09z2,Me1JvBIm,2020-0188,2021-10-17,10:42:31,12:06:32,NA,incomplete,false,true,NA,5,26,NA,brown,n_s_058.jpg,NA,NA,pleasant,unpleasant,NA,NA,NA,NA,NA,right,1825.80000001192,true,NA,NA,NA,NA,NA
Me1JvBIm,3e6l1vr4yzzg81jodkfak6sl8ztf6z,3leiz60cdncbilag35hvwsvxct09z2,Me1JvBIm,2020-0188,2021-10-17,10:42:31,12:06:32,NA,incomplete,false,true,NA,5,27,NA,brown,n_l_098.jpg,NA,NA,unpleasant,pleasant,NA,NA,NA,NA,NA,right,2895.19999998808,true,NA,NA,NA,NA,NA
Me1JvBIm,3e6l1vr4yzzg81jodkfak6sl8ztf6z,3leiz60cdncbilag35hvwsvxct09z2,Me1JvBIm,2020-0188,2021-10-17,10:42:31,12:06:32,NA,incomplete,false,true,NA,5,28,NA,brown,n_l_107.jpg,NA,NA,pleasant,unpleasant,NA,NA,NA,NA,NA,right,752.90000000596,true,NA,NA,NA,NA,NA
Me1JvBIm,3e6l1vr4yzzg81jodkfak6sl8ztf6z,3leiz60cdncbilag35hvwsvxct09z2,Me1JvBIm,2020-0188,2021-10-17,10:42:31,12:06:32,NA,incomplete,false,true,NA,5,29,NA,brown,m_l_093.jpg,NA,NA,pleasant,unpleasant,NA,NA,NA,NA,NA,right,1381.29999998212,true,NA,NA,NA,NA,NA
Me1JvBIm,3e6l1vr4yzzg81jodkfak6sl8ztf6z,3leiz60cdncbilag35hvwsvxct09z2,Me1JvBIm,2020-0188,2021-10-17,10:42:31,12:06:32,NA,incomplete,false,true,NA,5,30,NA,gray,m_l_035.jpg,NA,NA,pleasant,unpleasant,NA,NA,NA,NA,NA,left,2503.09999999404,true,NA,NA,NA,NA,NA
Me1JvBIm,3e6l1vr4yzzg81jodkfak6sl8ztf6z,3leiz60cdncbilag35hvwsvxct09z2,Me1JvBIm,2020-0188,2021-10-17,10:42:31,12:06:32,NA,incomplete,false,true,NA,5,31,NA,gray,n_s_006.jpg,NA,NA,unpleasant,pleasant,NA,NA,NA,NA,NA,left,1193.5,true,NA,NA,NA,NA,NA
Me1JvBIm,3e6l1vr4yzzg81jodkfak6sl8ztf6z,3leiz60cdncbilag35hvwsvxct09z2,Me1JvBIm,2020-0188,2021-10-17,10:42:31,12:06:32,NA,incomplete,false,true,NA,5,32,NA,gray,m_l_078.jpg,NA,NA,pleasant,unpleasant,NA,NA,NA,NA,NA,left,1442.09999999404,true,NA,NA,NA,NA,NA
Me1JvBIm,3e6l1vr4yzzg81jodkfak6sl8ztf6z,3leiz60cdncbilag35hvwsvxct09z2,Me1JvBIm,2020-0188,2021-10-17,10:42:31,12:06:32,NA,incomplete,false,true,NA,5,33,NA,gray,n_s_096.jpg,NA,NA,unpleasant,pleasant,NA,NA,NA,NA,NA,right,2411.09999999404,true,NA,NA,NA,NA,NA
Me1JvBIm,3e6l1vr4yzzg81jodkfak6sl8ztf6z,3leiz60cdncbilag35hvwsvxct09z2,Me1JvBIm,2020-0188,2021-10-17,10:42:31,12:06:32,NA,incomplete,false,true,NA,5,34,NA,gray,n_l_045.jpg,NA,NA,unpleasant,pleasant,NA,NA,NA,NA,NA,right,1165.89999997616,true,NA,NA,NA,NA,NA
Me1JvBIm,3e6l1vr4yzzg81jodkfak6sl8ztf6z,3leiz60cdncbilag35hvwsvxct09z2,Me1JvBIm,2020-0188,2021-10-17,10:42:31,12:06:32,NA,incomplete,false,true,NA,5,35,NA,gray,m_s_062.jpg,NA,NA,pleasant,unpleasant,NA,NA,NA,NA,NA,left,1257.69999998808,true,NA,NA,NA,NA,NA
Me1JvBIm,3e6l1vr4yzzg81jodkfak6sl8ztf6z,3leiz60cdncbilag35hvwsvxct09z2,Me1JvBIm,2020-0188,2021-10-17,10:42:31,12:06:32,NA,incomplete,false,NA,true,5,0,NA,NA,NA,left,present,NA,NA,m_l_083.jpg,red,m_l_107.jpg,yellow,between,NA,NaN,NA,left,14845.40000000596,1,3,2725.300000011921
Me1JvBIm,3e6l1vr4yzzg81jodkfak6sl8ztf6z,3leiz60cdncbilag35hvwsvxct09z2,Me1JvBIm,2020-0188,2021-10-17,10:42:31,12:06:32,NA,incomplete,false,NA,true,5,1,NA,NA,NA,left,present,NA,NA,m_l_100.jpg,yellow,n_s_058.jpg,brown,between,NA,NaN,NA,left,2963.199999988079,1,3,994.8000000119209
Me1JvBIm,3e6l1vr4yzzg81jodkfak6sl8ztf6z,3leiz60cdncbilag35hvwsvxct09z2,Me1JvBIm,2020-0188,2021-10-17,10:42:31,12:06:32,NA,incomplete,false,NA,true,5,2,NA,NA,NA,right,present,NA,NA,m_l_078.jpg,gray,n_l_107.jpg,brown,between,NA,NaN,NA,right,3179.5999999940395,1,1,1427
Me1JvBIm,3e6l1vr4yzzg81jodkfak6sl8ztf6z,3leiz60cdncbilag35hvwsvxct09z2,Me1JvBIm,2020-0188,2021-10-17,10:42:31,12:06:32,NA,incomplete,false,NA,true,5,3,NA,NA,NA,right,present,NA,NA,m_l_093.jpg,brown,m_s_108.jpg,brown,within,NA,NaN,NA,left,9810.59999999404,0,0,1131.5
Me1JvBIm,3e6l1vr4yzzg81jodkfak6sl8ztf6z,3leiz60cdncbilag35hvwsvxct09z2,Me1JvBIm,2020-0188,2021-10-17,10:42:31,12:06:32,NA,incomplete,false,NA,true,5,4,NA,NA,NA,left,present,NA,NA,m_l_053.jpg,black,m_s_099.jpg,black,within,NA,NaN,NA,left,3554.699999988079,1,0,2315.5
Me1JvBIm,3e6l1vr4yzzg81jodkfak6sl8ztf6z,3leiz60cdncbilag35hvwsvxct09z2,Me1JvBIm,2020-0188,2021-10-17,10:42:31,12:06:32,NA,incomplete,false,NA,true,5,5,NA,NA,NA,left,present,NA,NA,n_l_044.jpg,green,n_s_054.jpg,black,between,NA,NaN,NA,left,8842.299999982119,1,2,2162.4000000059605
Me1JvBIm,3e6l1vr4yzzg81jodkfak6sl8ztf6z,3leiz60cdncbilag35hvwsvxct09z2,Me1JvBIm,2020-0188,2021-10-17,10:42:31,12:06:32,NA,incomplete,false,NA,true,5,6,NA,NA,NA,left,present,NA,NA,m_l_117.jpg,yellow,n_l_085.jpg,yellow,within,NA,NaN,NA,left,3471,1,0,1611.5
Me1JvBIm,3e6l1vr4yzzg81jodkfak6sl8ztf6z,3leiz60cdncbilag35hvwsvxct09z2,Me1JvBIm,2020-0188,2021-10-17,10:42:31,12:06:32,NA,incomplete,false,NA,true,5,7,NA,NA,NA,left,present,NA,NA,n_s_006.jpg,gray,m_s_062.jpg,gray,within,NA,NaN,NA,left,2751.2999999821186,1,0,1618.5
Me1JvBIm,3e6l1vr4yzzg81jodkfak6sl8ztf6z,3leiz60cdncbilag35hvwsvxct09z2,Me1JvBIm,2020-0188,2021-10-17,10:42:31,12:06:32,NA,incomplete,false,NA,true,5,8,NA,NA,NA,right,present,NA,NA,n_l_025.jpg,red,n_l_043.jpg,red,within,NA,NaN,NA,right,4872.199999988079,1,0,1194.7999999821186
Me1JvBIm,3e6l1vr4yzzg81jodkfak6sl8ztf6z,3leiz60cdncbilag35hvwsvxct09z2,Me1JvBIm,2020-0188,2021-10-17,10:42:31,12:06:32,NA,incomplete,false,NA,true,5,9,NA,NA,NA,right,present,NA,NA,n_l_069.jpg,red,n_s_108.jpg,black,between,NA,NaN,NA,right,7513.800000011921,1,1,1273.3999999761581
Me1JvBIm,3e6l1vr4yzzg81jodkfak6sl8ztf6z,3leiz60cdncbilag35hvwsvxct09z2,Me1JvBIm,2020-0188,2021-10-17,10:42:31,12:06:32,NA,incomplete,false,NA,true,5,10,NA,NA,NA,left,present,NA,NA,n_s_072.jpg,green,m_s_089.jpg,green,within,NA,NaN,NA,left,3074.199999988079,1,0,1290
Me1JvBIm,3e6l1vr4yzzg81jodkfak6sl8ztf6z,3leiz60cdncbilag35hvwsvxct09z2,Me1JvBIm,2020-0188,2021-10-17,10:42:31,12:06:32,NA,incomplete,false,true,NA,6,0,NA,brown,m_s_101.jpg,NA,NA,unpleasant,pleasant,NA,NA,NA,NA,NA,left,2345.19999998808,true,NA,NA,NA,NA,NA
Me1JvBIm,3e6l1vr4yzzg81jodkfak6sl8ztf6z,3leiz60cdncbilag35hvwsvxct09z2,Me1JvBIm,2020-0188,2021-10-17,10:42:31,12:06:32,NA,incomplete,false,true,NA,6,1,NA,brown,m_l_014.jpg,NA,NA,pleasant,unpleasant,NA,NA,NA,NA,NA,right,1667.30000001192,true,NA,NA,NA,NA,NA
Me1JvBIm,3e6l1vr4yzzg81jodkfak6sl8ztf6z,3leiz60cdncbilag35hvwsvxct09z2,Me1JvBIm,2020-0188,2021-10-17,10:42:31,12:06:32,NA,incomplete,false,true,NA,6,2,NA,brown,n_l_050.jpg,NA,NA,pleasant,unpleasant,NA,NA,NA,NA,NA,right,1211.70000001788,true,NA,NA,NA,NA,NA
Me1JvBIm,3e6l1vr4yzzg81jodkfak6sl8ztf6z,3leiz60cdncbilag35hvwsvxct09z2,Me1JvBIm,2020-0188,2021-10-17,10:42:31,12:06:32,NA,incomplete,false,true,NA,6,3,NA,brown,n_l_082.jpg,NA,NA,unpleasant,pleasant,NA,NA,NA,NA,NA,right,1436.5,true,NA,NA,NA,NA,NA
Me1JvBIm,3e6l1vr4yzzg81jodkfak6sl8ztf6z,3leiz60cdncbilag35hvwsvxct09z2,Me1JvBIm,2020-0188,2021-10-17,10:42:31,12:06:32,NA,incomplete,false,true,NA,6,4,NA,brown,m_s_032.jpg,NA,NA,unpleasant,pleasant,NA,NA,NA,NA,NA,left,1866.09999999404,true,NA,NA,NA,NA,NA
Me1JvBIm,3e6l1vr4yzzg81jodkfak6sl8ztf6z,3leiz60cdncbilag35hvwsvxct09z2,Me1JvBIm,2020-0188,2021-10-17,10:42:31,12:06:32,NA,incomplete,false,true,NA,6,5,NA,brown,m_l_060.jpg,NA,NA,pleasant,unpleasant,NA,NA,NA,NA,NA,right,1226.30000001192,true,NA,NA,NA,NA,NA
Me1JvBIm,3e6l1vr4yzzg81jodkfak6sl8ztf6z,3leiz60cdncbilag35hvwsvxct09z2,Me1JvBIm,2020-0188,2021-10-17,10:42:31,12:06:32,NA,incomplete,false,true,NA,6,6,NA,green,m_s_054.jpg,NA,NA,pleasant,unpleasant,NA,NA,NA,NA,NA,right,1967.29999998212,true,NA,NA,NA,NA,NA
Me1JvBIm,3e6l1vr4yzzg81jodkfak6sl8ztf6z,3leiz60cdncbilag35hvwsvxct09z2,Me1JvBIm,2020-0188,2021-10-17,10:42:31,12:06:32,NA,incomplete,false,true,NA,6,7,NA,green,n_l_052.jpg,NA,NA,pleasant,unpleasant,NA,NA,NA,NA,NA,left,1548.59999999404,true,NA,NA,NA,NA,NA
Me1JvBIm,3e6l1vr4yzzg81jodkfak6sl8ztf6z,3leiz60cdncbilag35hvwsvxct09z2,Me1JvBIm,2020-0188,2021-10-17,10:42:31,12:06:32,NA,incomplete,false,true,NA,6,8,NA,green,n_l_075.jpg,NA,NA,unpleasant,pleasant,NA,NA,NA,NA,NA,right,1650.29999998212,true,NA,NA,NA,NA,NA
Me1JvBIm,3e6l1vr4yzzg81jodkfak6sl8ztf6z,3leiz60cdncbilag35hvwsvxct09z2,Me1JvBIm,2020-0188,2021-10-17,10:42:31,12:06:32,NA,incomplete,false,true,NA,6,9,NA,green,m_s_111.jpg,NA,NA,pleasant,unpleasant,NA,NA,NA,NA,NA,left,1899.40000000596,true,NA,NA,NA,NA,NA
Me1JvBIm,3e6l1vr4yzzg81jodkfak6sl8ztf6z,3leiz60cdncbilag35hvwsvxct09z2,Me1JvBIm,2020-0188,2021-10-17,10:42:31,12:06:32,NA,incomplete,false,true,NA,6,10,NA,green,m_l_099.jpg,NA,NA,pleasant,unpleasant,NA,NA,NA,NA,NA,left,1317.20000001788,true,NA,NA,NA,NA,NA
Me1JvBIm,3e6l1vr4yzzg81jodkfak6sl8ztf6z,3leiz60cdncbilag35hvwsvxct09z2,Me1JvBIm,2020-0188,2021-10-17,10:42:31,12:06:32,NA,incomplete,false,true,NA,6,11,NA,green,m_s_045.jpg,NA,NA,pleasant,unpleasant,NA,NA,NA,NA,NA,left,1514.29999998212,true,NA,NA,NA,NA,NA
Me1JvBIm,3e6l1vr4yzzg81jodkfak6sl8ztf6z,3leiz60cdncbilag35hvwsvxct09z2,Me1JvBIm,2020-0188,2021-10-17,10:42:31,12:06:32,NA,incomplete,false,true,NA,6,12,NA,blue,n_l_027.jpg,NA,NA,unpleasant,pleasant,NA,NA,NA,NA,NA,right,2099.5,true,NA,NA,NA,NA,NA
Me1JvBIm,3e6l1vr4yzzg81jodkfak6sl8ztf6z,3leiz60cdncbilag35hvwsvxct09z2,Me1JvBIm,2020-0188,2021-10-17,10:42:31,12:06:32,NA,incomplete,false,true,NA,6,13,NA,blue,m_s_010.jpg,NA,NA,unpleasant,pleasant,NA,NA,NA,NA,NA,right,1842.79999998212,true,NA,NA,NA,NA,NA
Me1JvBIm,3e6l1vr4yzzg81jodkfak6sl8ztf6z,3leiz60cdncbilag35hvwsvxct09z2,Me1JvBIm,2020-0188,2021-10-17,10:42:31,12:06:32,NA,incomplete,false,true,NA,6,14,NA,blue,n_l_007.jpg,NA,NA,pleasant,unpleasant,NA,NA,NA,NA,NA,left,1403.5,true,NA,NA,NA,NA,NA
Me1JvBIm,3e6l1vr4yzzg81jodkfak6sl8ztf6z,3leiz60cdncbilag35hvwsvxct09z2,Me1JvBIm,2020-0188,2021-10-17,10:42:31,12:06:32,NA,incomplete,false,true,NA,6,15,NA,blue,n_l_073.jpg,NA,NA,unpleasant,pleasant,NA,NA,NA,NA,NA,right,1783.5,true,NA,NA,NA,NA,NA
Me1JvBIm,3e6l1vr4yzzg81jodkfak6sl8ztf6z,3leiz60cdncbilag35hvwsvxct09z2,Me1JvBIm,2020-0188,2021-10-17,10:42:31,12:06:32,NA,incomplete,false,true,NA,6,16,NA,blue,m_s_027.jpg,NA,NA,pleasant,unpleasant,NA,NA,NA,NA,NA,left,1334,true,NA,NA,NA,NA,NA
Me1JvBIm,3e6l1vr4yzzg81jodkfak6sl8ztf6z,3leiz60cdncbilag35hvwsvxct09z2,Me1JvBIm,2020-0188,2021-10-17,10:42:31,12:06:32,NA,incomplete,false,true,NA,6,17,NA,blue,m_s_007.jpg,NA,NA,unpleasant,pleasant,NA,NA,NA,NA,NA,right,1244.80000001192,true,NA,NA,NA,NA,NA
Me1JvBIm,3e6l1vr4yzzg81jodkfak6sl8ztf6z,3leiz60cdncbilag35hvwsvxct09z2,Me1JvBIm,2020-0188,2021-10-17,10:42:31,12:06:32,NA,incomplete,false,true,NA,6,18,NA,yellow,n_s_079.jpg,NA,NA,unpleasant,pleasant,NA,NA,NA,NA,NA,right,2286.90000000596,true,NA,NA,NA,NA,NA
Me1JvBIm,3e6l1vr4yzzg81jodkfak6sl8ztf6z,3leiz60cdncbilag35hvwsvxct09z2,Me1JvBIm,2020-0188,2021-10-17,10:42:31,12:06:32,NA,incomplete,false,true,NA,6,19,NA,yellow,m_l_063.jpg,NA,NA,unpleasant,pleasant,NA,NA,NA,NA,NA,right,1871.5,true,NA,NA,NA,NA,NA
Me1JvBIm,3e6l1vr4yzzg81jodkfak6sl8ztf6z,3leiz60cdncbilag35hvwsvxct09z2,Me1JvBIm,2020-0188,2021-10-17,10:42:31,12:06:32,NA,incomplete,false,true,NA,6,20,NA,yellow,m_s_075.jpg,NA,NA,unpleasant,pleasant,NA,NA,NA,NA,NA,right,1354.80000001192,true,NA,NA,NA,NA,NA
Me1JvBIm,3e6l1vr4yzzg81jodkfak6sl8ztf6z,3leiz60cdncbilag35hvwsvxct09z2,Me1JvBIm,2020-0188,2021-10-17,10:42:31,12:06:32,NA,incomplete,false,true,NA,6,21,NA,yellow,m_l_064.jpg,NA,NA,pleasant,unpleasant,NA,NA,NA,NA,NA,right,2217.09999999404,true,NA,NA,NA,NA,NA
Me1JvBIm,3e6l1vr4yzzg81jodkfak6sl8ztf6z,3leiz60cdncbilag35hvwsvxct09z2,Me1JvBIm,2020-0188,2021-10-17,10:42:31,12:06:32,NA,incomplete,false,true,NA,6,22,NA,yellow,n_l_040.jpg,NA,NA,pleasant,unpleasant,NA,NA,NA,NA,NA,right,1226.40000000596,true,NA,NA,NA,NA,NA
Me1JvBIm,3e6l1vr4yzzg81jodkfak6sl8ztf6z,3leiz60cdncbilag35hvwsvxct09z2,Me1JvBIm,2020-0188,2021-10-17,10:42:31,12:06:32,NA,incomplete,false,true,NA,6,23,NA,yellow,m_l_004.jpg,NA,NA,pleasant,unpleasant,NA,NA,NA,NA,NA,right,1363.19999998808,true,NA,NA,NA,NA,NA
Me1JvBIm,3e6l1vr4yzzg81jodkfak6sl8ztf6z,3leiz60cdncbilag35hvwsvxct09z2,Me1JvBIm,2020-0188,2021-10-17,10:42:31,12:06:32,NA,incomplete,false,true,NA,6,24,NA,black,m_s_017.jpg,NA,NA,pleasant,unpleasant,NA,NA,NA,NA,NA,left,2576.80000001192,true,NA,NA,NA,NA,NA
Me1JvBIm,3e6l1vr4yzzg81jodkfak6sl8ztf6z,3leiz60cdncbilag35hvwsvxct09z2,Me1JvBIm,2020-0188,2021-10-17,10:42:31,12:06:32,NA,incomplete,false,true,NA,6,25,NA,black,m_s_026.jpg,NA,NA,unpleasant,pleasant,NA,NA,NA,NA,NA,right,1534,true,NA,NA,NA,NA,NA
Me1JvBIm,3e6l1vr4yzzg81jodkfak6sl8ztf6z,3leiz60cdncbilag35hvwsvxct09z2,Me1JvBIm,2020-0188,2021-10-17,10:42:31,12:06:32,NA,incomplete,false,true,NA,6,26,NA,black,n_s_022.jpg,NA,NA,pleasant,unpleasant,NA,NA,NA,NA,NA,left,1472.90000000596,true,NA,NA,NA,NA,NA
Me1JvBIm,3e6l1vr4yzzg81jodkfak6sl8ztf6z,3leiz60cdncbilag35hvwsvxct09z2,Me1JvBIm,2020-0188,2021-10-17,10:42:31,12:06:32,NA,incomplete,false,true,NA,6,27,NA,black,n_l_036.jpg,NA,NA,pleasant,unpleasant,NA,NA,NA,NA,NA,left,1562.29999998212,true,NA,NA,NA,NA,NA
Me1JvBIm,3e6l1vr4yzzg81jodkfak6sl8ztf6z,3leiz60cdncbilag35hvwsvxct09z2,Me1JvBIm,2020-0188,2021-10-17,10:42:31,12:06:32,NA,incomplete,false,true,NA,6,28,NA,black,n_s_106.jpg,NA,NA,pleasant,unpleasant,NA,NA,NA,NA,NA,right,1110.30000001192,true,NA,NA,NA,NA,NA
Me1JvBIm,3e6l1vr4yzzg81jodkfak6sl8ztf6z,3leiz60cdncbilag35hvwsvxct09z2,Me1JvBIm,2020-0188,2021-10-17,10:42:31,12:06:32,NA,incomplete,false,true,NA,6,29,NA,black,n_l_106.jpg,NA,NA,pleasant,unpleasant,NA,NA,NA,NA,NA,left,1771.90000000596,true,NA,NA,NA,NA,NA
Me1JvBIm,3e6l1vr4yzzg81jodkfak6sl8ztf6z,3leiz60cdncbilag35hvwsvxct09z2,Me1JvBIm,2020-0188,2021-10-17,10:42:31,12:06:32,NA,incomplete,false,true,NA,6,30,NA,orange,n_s_045.jpg,NA,NA,pleasant,unpleasant,NA,NA,NA,NA,NA,left,2572.29999998212,true,NA,NA,NA,NA,NA
Me1JvBIm,3e6l1vr4yzzg81jodkfak6sl8ztf6z,3leiz60cdncbilag35hvwsvxct09z2,Me1JvBIm,2020-0188,2021-10-17,10:42:31,12:06:32,NA,incomplete,false,true,NA,6,31,NA,orange,n_l_051.jpg,NA,NA,unpleasant,pleasant,NA,NA,NA,NA,NA,right,1033.40000000596,true,NA,NA,NA,NA,NA
Me1JvBIm,3e6l1vr4yzzg81jodkfak6sl8ztf6z,3leiz60cdncbilag35hvwsvxct09z2,Me1JvBIm,2020-0188,2021-10-17,10:42:31,12:06:32,NA,incomplete,false,true,NA,6,32,NA,orange,n_l_102.jpg,NA,NA,unpleasant,pleasant,NA,NA,NA,NA,NA,right,1385.20000001788,true,NA,NA,NA,NA,NA
Me1JvBIm,3e6l1vr4yzzg81jodkfak6sl8ztf6z,3leiz60cdncbilag35hvwsvxct09z2,Me1JvBIm,2020-0188,2021-10-17,10:42:31,12:06:32,NA,incomplete,false,true,NA,6,33,NA,orange,m_l_077.jpg,NA,NA,pleasant,unpleasant,NA,NA,NA,NA,NA,left,1662.90000000596,true,NA,NA,NA,NA,NA
Me1JvBIm,3e6l1vr4yzzg81jodkfak6sl8ztf6z,3leiz60cdncbilag35hvwsvxct09z2,Me1JvBIm,2020-0188,2021-10-17,10:42:31,12:06:32,NA,incomplete,false,true,NA,6,34,NA,orange,n_l_023.jpg,NA,NA,unpleasant,pleasant,NA,NA,NA,NA,NA,right,1948.19999998808,true,NA,NA,NA,NA,NA
Me1JvBIm,3e6l1vr4yzzg81jodkfak6sl8ztf6z,3leiz60cdncbilag35hvwsvxct09z2,Me1JvBIm,2020-0188,2021-10-17,10:42:31,12:06:32,NA,incomplete,false,true,NA,6,35,NA,orange,n_s_042.jpg,NA,NA,pleasant,unpleasant,NA,NA,NA,NA,NA,left,1939.80000001192,true,NA,NA,NA,NA,NA
Me1JvBIm,3e6l1vr4yzzg81jodkfak6sl8ztf6z,3leiz60cdncbilag35hvwsvxct09z2,Me1JvBIm,2020-0188,2021-10-17,10:42:31,12:06:32,NA,incomplete,false,NA,true,6,0,NA,NA,NA,right,absent,NA,NA,n_l_075.jpg,green,m_s_032.jpg,brown,between,NA,NaN,NA,right,7752.4000000059605,1,1,1540.5999999940395
Me1JvBIm,3e6l1vr4yzzg81jodkfak6sl8ztf6z,3leiz60cdncbilag35hvwsvxct09z2,Me1JvBIm,2020-0188,2021-10-17,10:42:31,12:06:32,NA,incomplete,false,NA,true,6,1,NA,NA,NA,right,absent,NA,NA,n_l_106.jpg,black,m_s_026.jpg,black,within,NA,NaN,NA,left,5373,0,0,852.0999999940395
Me1JvBIm,3e6l1vr4yzzg81jodkfak6sl8ztf6z,3leiz60cdncbilag35hvwsvxct09z2,Me1JvBIm,2020-0188,2021-10-17,10:42:31,12:06:32,NA,incomplete,false,NA,true,6,2,NA,NA,NA,left,absent,NA,NA,n_l_040.jpg,yellow,n_s_022.jpg,black,between,NA,NaN,NA,right,3826.300000011921,0,1,1189
Me1JvBIm,3e6l1vr4yzzg81jodkfak6sl8ztf6z,3leiz60cdncbilag35hvwsvxct09z2,Me1JvBIm,2020-0188,2021-10-17,10:42:31,12:06:32,NA,incomplete,false,NA,true,6,3,NA,NA,NA,right,absent,NA,NA,n_l_007.jpg,blue,m_l_099.jpg,green,between,NA,NaN,NA,right,4300.0999999940395,1,2,1131.7999999821186
Me1JvBIm,3e6l1vr4yzzg81jodkfak6sl8ztf6z,3leiz60cdncbilag35hvwsvxct09z2,Me1JvBIm,2020-0188,2021-10-17,10:42:31,12:06:32,NA,incomplete,false,NA,true,6,4,NA,NA,NA,right,absent,NA,NA,m_l_060.jpg,brown,m_l_014.jpg,brown,within,NA,NaN,NA,right,1747.7999999821186,1,2,1644.8999999761581
Me1JvBIm,3e6l1vr4yzzg81jodkfak6sl8ztf6z,3leiz60cdncbilag35hvwsvxct09z2,Me1JvBIm,2020-0188,2021-10-17,10:42:31,12:06:32,NA,incomplete,false,NA,true,6,5,NA,NA,NA,left,absent,NA,NA,m_s_010.jpg,blue,m_s_007.jpg,blue,within,NA,NaN,NA,left,2374.300000011921,1,2,1466.9000000059605
Me1JvBIm,3e6l1vr4yzzg81jodkfak6sl8ztf6z,3leiz60cdncbilag35hvwsvxct09z2,Me1JvBIm,2020-0188,2021-10-17,10:42:31,12:06:32,NA,incomplete,false,NA,true,6,6,NA,NA,NA,right,absent,NA,NA,m_s_045.jpg,green,n_l_052.jpg,green,within,NA,NaN,NA,right,2209.699999988079,1,3,955.5
Me1JvBIm,3e6l1vr4yzzg81jodkfak6sl8ztf6z,3leiz60cdncbilag35hvwsvxct09z2,Me1JvBIm,2020-0188,2021-10-17,10:42:31,12:06:32,NA,incomplete,false,NA,true,6,7,NA,NA,NA,left,absent,NA,NA,m_s_027.jpg,blue,m_s_075.jpg,yellow,between,NA,NaN,NA,right,3755.5,0,2,973.0999999940395
Me1JvBIm,3e6l1vr4yzzg81jodkfak6sl8ztf6z,3leiz60cdncbilag35hvwsvxct09z2,Me1JvBIm,2020-0188,2021-10-17,10:42:31,12:06:32,NA,incomplete,false,NA,true,6,8,NA,NA,NA,right,absent,NA,NA,m_l_004.jpg,yellow,m_l_063.jpg,yellow,within,NA,NaN,NA,left,1730.9000000059605,0,1,2844
Me1JvBIm,3e6l1vr4yzzg81jodkfak6sl8ztf6z,3leiz60cdncbilag35hvwsvxct09z2,Me1JvBIm,2020-0188,2021-10-17,10:42:31,12:06:32,NA,incomplete,false,NA,true,6,9,NA,NA,NA,right,absent,NA,NA,n_s_042.jpg,orange,n_l_051.jpg,orange,within,NA,NaN,NA,right,3851,1,2,867.5999999940395
Me1JvBIm,3e6l1vr4yzzg81jodkfak6sl8ztf6z,3leiz60cdncbilag35hvwsvxct09z2,Me1JvBIm,2020-0188,2021-10-17,10:42:31,12:06:32,NA,incomplete,false,NA,true,6,10,NA,NA,NA,right,absent,NA,NA,n_l_102.jpg,orange,n_s_106.jpg,black,between,NA,NaN,NA,right,3515.199999988079,1,2,1467.5999999940395
Me1JvBIm,3e6l1vr4yzzg81jodkfak6sl8ztf6z,3leiz60cdncbilag35hvwsvxct09z2,Me1JvBIm,2020-0188,2021-10-17,10:42:31,12:06:32,NA,incomplete,false,true,NA,7,0,NA,white,n_l_020.jpg,NA,NA,unpleasant,pleasant,NA,NA,NA,NA,NA,right,1830.59999999404,true,NA,NA,NA,NA,NA
Me1JvBIm,3e6l1vr4yzzg81jodkfak6sl8ztf6z,3leiz60cdncbilag35hvwsvxct09z2,Me1JvBIm,2020-0188,2021-10-17,10:42:31,12:06:32,NA,incomplete,false,true,NA,7,1,NA,white,n_l_018.jpg,NA,NA,pleasant,unpleasant,NA,NA,NA,NA,NA,left,1308.29999998212,true,NA,NA,NA,NA,NA
Me1JvBIm,3e6l1vr4yzzg81jodkfak6sl8ztf6z,3leiz60cdncbilag35hvwsvxct09z2,Me1JvBIm,2020-0188,2021-10-17,10:42:31,12:06:32,NA,incomplete,false,true,NA,7,2,NA,white,n_s_046.jpg,NA,NA,pleasant,unpleasant,NA,NA,NA,NA,NA,left,1171.89999997616,true,NA,NA,NA,NA,NA
Me1JvBIm,3e6l1vr4yzzg81jodkfak6sl8ztf6z,3leiz60cdncbilag35hvwsvxct09z2,Me1JvBIm,2020-0188,2021-10-17,10:42:31,12:06:32,NA,incomplete,false,true,NA,7,3,NA,white,n_s_109.jpg,NA,NA,unpleasant,pleasant,NA,NA,NA,NA,NA,right,1685.19999998808,true,NA,NA,NA,NA,NA
Me1JvBIm,3e6l1vr4yzzg81jodkfak6sl8ztf6z,3leiz60cdncbilag35hvwsvxct09z2,Me1JvBIm,2020-0188,2021-10-17,10:42:31,12:06:32,NA,incomplete,false,true,NA,7,4,NA,white,m_s_046.jpg,NA,NA,pleasant,unpleasant,NA,NA,NA,NA,NA,left,1545.90000000596,true,NA,NA,NA,NA,NA
Me1JvBIm,3e6l1vr4yzzg81jodkfak6sl8ztf6z,3leiz60cdncbilag35hvwsvxct09z2,Me1JvBIm,2020-0188,2021-10-17,10:42:31,12:06:32,NA,incomplete,false,true,NA,7,5,NA,white,m_s_058.jpg,NA,NA,pleasant,unpleasant,NA,NA,NA,NA,NA,left,1119.29999998212,true,NA,NA,NA,NA,NA
Me1JvBIm,3e6l1vr4yzzg81jodkfak6sl8ztf6z,3leiz60cdncbilag35hvwsvxct09z2,Me1JvBIm,2020-0188,2021-10-17,10:42:31,12:06:32,NA,incomplete,false,true,NA,7,6,NA,orange,n_s_094.jpg,NA,NA,pleasant,unpleasant,NA,NA,NA,NA,NA,left,2050,true,NA,NA,NA,NA,NA
Me1JvBIm,3e6l1vr4yzzg81jodkfak6sl8ztf6z,3leiz60cdncbilag35hvwsvxct09z2,Me1JvBIm,2020-0188,2021-10-17,10:42:31,12:06:32,NA,incomplete,false,true,NA,7,7,NA,orange,m_s_112.jpg,NA,NA,unpleasant,pleasant,NA,NA,NA,NA,NA,left,1308.20000001788,true,NA,NA,NA,NA,NA
Me1JvBIm,3e6l1vr4yzzg81jodkfak6sl8ztf6z,3leiz60cdncbilag35hvwsvxct09z2,Me1JvBIm,2020-0188,2021-10-17,10:42:31,12:06:32,NA,incomplete,false,true,NA,7,8,NA,orange,m_l_005.jpg,NA,NA,unpleasant,pleasant,NA,NA,NA,NA,NA,right,1551.5,true,NA,NA,NA,NA,NA
Me1JvBIm,3e6l1vr4yzzg81jodkfak6sl8ztf6z,3leiz60cdncbilag35hvwsvxct09z2,Me1JvBIm,2020-0188,2021-10-17,10:42:31,12:06:32,NA,incomplete,false,true,NA,7,9,NA,orange,m_s_094.jpg,NA,NA,pleasant,unpleasant,NA,NA,NA,NA,NA,right,1768.20000001788,true,NA,NA,NA,NA,NA
Me1JvBIm,3e6l1vr4yzzg81jodkfak6sl8ztf6z,3leiz60cdncbilag35hvwsvxct09z2,Me1JvBIm,2020-0188,2021-10-17,10:42:31,12:06:32,NA,incomplete,false,true,NA,7,10,NA,orange,n_l_010.jpg,NA,NA,pleasant,unpleasant,NA,NA,NA,NA,NA,left,871.299999982119,true,NA,NA,NA,NA,NA
Me1JvBIm,3e6l1vr4yzzg81jodkfak6sl8ztf6z,3leiz60cdncbilag35hvwsvxct09z2,Me1JvBIm,2020-0188,2021-10-17,10:42:31,12:06:32,NA,incomplete,false,true,NA,7,11,NA,orange,n_s_040.jpg,NA,NA,unpleasant,pleasant,NA,NA,NA,NA,NA,left,1130.10000002384,true,NA,NA,NA,NA,NA
Me1JvBIm,3e6l1vr4yzzg81jodkfak6sl8ztf6z,3leiz60cdncbilag35hvwsvxct09z2,Me1JvBIm,2020-0188,2021-10-17,10:42:31,12:06:32,NA,incomplete,false,true,NA,7,12,NA,red,n_s_093.jpg,NA,NA,unpleasant,pleasant,NA,NA,NA,NA,NA,left,1655.09999999404,true,NA,NA,NA,NA,NA
Me1JvBIm,3e6l1vr4yzzg81jodkfak6sl8ztf6z,3leiz60cdncbilag35hvwsvxct09z2,Me1JvBIm,2020-0188,2021-10-17,10:42:31,12:06:32,NA,incomplete,false,true,NA,7,13,NA,red,n_l_019.jpg,NA,NA,pleasant,unpleasant,NA,NA,NA,NA,NA,left,1066.5,true,NA,NA,NA,NA,NA
Me1JvBIm,3e6l1vr4yzzg81jodkfak6sl8ztf6z,3leiz60cdncbilag35hvwsvxct09z2,Me1JvBIm,2020-0188,2021-10-17,10:42:31,12:06:32,NA,incomplete,false,true,NA,7,14,NA,red,n_s_075.jpg,NA,NA,unpleasant,pleasant,NA,NA,NA,NA,NA,right,1184.30000001192,true,NA,NA,NA,NA,NA
Me1JvBIm,3e6l1vr4yzzg81jodkfak6sl8ztf6z,3leiz60cdncbilag35hvwsvxct09z2,Me1JvBIm,2020-0188,2021-10-17,10:42:31,12:06:32,NA,incomplete,false,true,NA,7,15,NA,red,m_l_096.jpg,NA,NA,unpleasant,pleasant,NA,NA,NA,NA,NA,right,1193.90000000596,true,NA,NA,NA,NA,NA
Me1JvBIm,3e6l1vr4yzzg81jodkfak6sl8ztf6z,3leiz60cdncbilag35hvwsvxct09z2,Me1JvBIm,2020-0188,2021-10-17,10:42:31,12:06:32,NA,incomplete,false,true,NA,7,16,NA,red,n_s_061.jpg,NA,NA,pleasant,unpleasant,NA,NA,NA,NA,NA,right,1346.30000001192,true,NA,NA,NA,NA,NA
Me1JvBIm,3e6l1vr4yzzg81jodkfak6sl8ztf6z,3leiz60cdncbilag35hvwsvxct09z2,Me1JvBIm,2020-0188,2021-10-17,10:42:31,12:06:32,NA,incomplete,false,true,NA,7,17,NA,red,n_l_103.jpg,NA,NA,pleasant,unpleasant,NA,NA,NA,NA,NA,left,934.199999988079,true,NA,NA,NA,NA,NA
Me1JvBIm,3e6l1vr4yzzg81jodkfak6sl8ztf6z,3leiz60cdncbilag35hvwsvxct09z2,Me1JvBIm,2020-0188,2021-10-17,10:42:31,12:06:32,NA,incomplete,false,true,NA,7,18,NA,brown,m_s_003.jpg,NA,NA,unpleasant,pleasant,NA,NA,NA,NA,NA,left,2127.59999999404,true,NA,NA,NA,NA,NA
Me1JvBIm,3e6l1vr4yzzg81jodkfak6sl8ztf6z,3leiz60cdncbilag35hvwsvxct09z2,Me1JvBIm,2020-0188,2021-10-17,10:42:31,12:06:32,NA,incomplete,false,true,NA,7,19,NA,brown,m_s_004.jpg,NA,NA,pleasant,unpleasant,NA,NA,NA,NA,NA,right,1575.5,true,NA,NA,NA,NA,NA
Me1JvBIm,3e6l1vr4yzzg81jodkfak6sl8ztf6z,3leiz60cdncbilag35hvwsvxct09z2,Me1JvBIm,2020-0188,2021-10-17,10:42:31,12:06:32,NA,incomplete,false,true,NA,7,20,NA,brown,n_s_011.jpg,NA,NA,unpleasant,pleasant,NA,NA,NA,NA,NA,right,1779,true,NA,NA,NA,NA,NA
Me1JvBIm,3e6l1vr4yzzg81jodkfak6sl8ztf6z,3leiz60cdncbilag35hvwsvxct09z2,Me1JvBIm,2020-0188,2021-10-17,10:42:31,12:06:32,NA,incomplete,false,true,NA,7,21,NA,brown,m_l_037.jpg,NA,NA,pleasant,unpleasant,NA,NA,NA,NA,NA,left,1207.09999999404,true,NA,NA,NA,NA,NA
Me1JvBIm,3e6l1vr4yzzg81jodkfak6sl8ztf6z,3leiz60cdncbilag35hvwsvxct09z2,Me1JvBIm,2020-0188,2021-10-17,10:42:31,12:06:32,NA,incomplete,false,true,NA,7,22,NA,brown,m_l_009.jpg,NA,NA,unpleasant,pleasant,NA,NA,NA,NA,NA,left,725.899999976158,true,NA,NA,NA,NA,NA
Me1JvBIm,3e6l1vr4yzzg81jodkfak6sl8ztf6z,3leiz60cdncbilag35hvwsvxct09z2,Me1JvBIm,2020-0188,2021-10-17,10:42:31,12:06:32,NA,incomplete,false,true,NA,7,23,NA,brown,n_s_102.jpg,NA,NA,unpleasant,pleasant,NA,NA,NA,NA,NA,left,1339.10000002384,true,NA,NA,NA,NA,NA
Me1JvBIm,3e6l1vr4yzzg81jodkfak6sl8ztf6z,3leiz60cdncbilag35hvwsvxct09z2,Me1JvBIm,2020-0188,2021-10-17,10:42:31,12:06:32,NA,incomplete,false,true,NA,7,24,NA,purple,n_s_111.jpg,NA,NA,unpleasant,pleasant,NA,NA,NA,NA,NA,right,1809.09999999404,true,NA,NA,NA,NA,NA
Me1JvBIm,3e6l1vr4yzzg81jodkfak6sl8ztf6z,3leiz60cdncbilag35hvwsvxct09z2,Me1JvBIm,2020-0188,2021-10-17,10:42:31,12:06:32,NA,incomplete,false,true,NA,7,25,NA,purple,m_s_072.jpg,NA,NA,unpleasant,pleasant,NA,NA,NA,NA,NA,right,1362.09999999404,true,NA,NA,NA,NA,NA
Me1JvBIm,3e6l1vr4yzzg81jodkfak6sl8ztf6z,3leiz60cdncbilag35hvwsvxct09z2,Me1JvBIm,2020-0188,2021-10-17,10:42:31,12:06:32,NA,incomplete,false,true,NA,7,26,NA,purple,m_s_006.jpg,NA,NA,pleasant,unpleasant,NA,NA,NA,NA,NA,right,518.199999988079,true,NA,NA,NA,NA,NA
Me1JvBIm,3e6l1vr4yzzg81jodkfak6sl8ztf6z,3leiz60cdncbilag35hvwsvxct09z2,Me1JvBIm,2020-0188,2021-10-17,10:42:31,12:06:32,NA,incomplete,false,true,NA,7,27,NA,purple,n_s_089.jpg,NA,NA,unpleasant,pleasant,NA,NA,NA,NA,NA,right,848.899999976158,true,NA,NA,NA,NA,NA
Me1JvBIm,3e6l1vr4yzzg81jodkfak6sl8ztf6z,3leiz60cdncbilag35hvwsvxct09z2,Me1JvBIm,2020-0188,2021-10-17,10:42:31,12:06:32,NA,incomplete,false,true,NA,7,28,NA,purple,n_l_089.jpg,NA,NA,pleasant,unpleasant,NA,NA,NA,NA,NA,left,1836.19999998808,true,NA,NA,NA,NA,NA
Me1JvBIm,3e6l1vr4yzzg81jodkfak6sl8ztf6z,3leiz60cdncbilag35hvwsvxct09z2,Me1JvBIm,2020-0188,2021-10-17,10:42:31,12:06:32,NA,incomplete,false,true,NA,7,29,NA,purple,m_s_071.jpg,NA,NA,unpleasant,pleasant,NA,NA,NA,NA,NA,right,2665.19999998808,true,NA,NA,NA,NA,NA
Me1JvBIm,3e6l1vr4yzzg81jodkfak6sl8ztf6z,3leiz60cdncbilag35hvwsvxct09z2,Me1JvBIm,2020-0188,2021-10-17,10:42:31,12:06:32,NA,incomplete,false,true,NA,7,30,NA,gray,m_s_036.jpg,NA,NA,pleasant,unpleasant,NA,NA,NA,NA,NA,left,3183.10000002384,true,NA,NA,NA,NA,NA
Me1JvBIm,3e6l1vr4yzzg81jodkfak6sl8ztf6z,3leiz60cdncbilag35hvwsvxct09z2,Me1JvBIm,2020-0188,2021-10-17,10:42:31,12:06:32,NA,incomplete,false,true,NA,7,31,NA,gray,m_l_019.jpg,NA,NA,pleasant,unpleasant,NA,NA,NA,NA,NA,left,1269.39999997616,true,NA,NA,NA,NA,NA
Me1JvBIm,3e6l1vr4yzzg81jodkfak6sl8ztf6z,3leiz60cdncbilag35hvwsvxct09z2,Me1JvBIm,2020-0188,2021-10-17,10:42:31,12:06:32,NA,incomplete,false,true,NA,7,32,NA,gray,n_s_116.jpg,NA,NA,pleasant,unpleasant,NA,NA,NA,NA,NA,right,1202,true,NA,NA,NA,NA,NA
Me1JvBIm,3e6l1vr4yzzg81jodkfak6sl8ztf6z,3leiz60cdncbilag35hvwsvxct09z2,Me1JvBIm,2020-0188,2021-10-17,10:42:31,12:06:32,NA,incomplete,false,true,NA,7,33,NA,gray,n_l_096.jpg,NA,NA,unpleasant,pleasant,NA,NA,NA,NA,NA,right,1205.69999998808,true,NA,NA,NA,NA,NA
Me1JvBIm,3e6l1vr4yzzg81jodkfak6sl8ztf6z,3leiz60cdncbilag35hvwsvxct09z2,Me1JvBIm,2020-0188,2021-10-17,10:42:31,12:06:32,NA,incomplete,false,true,NA,7,34,NA,gray,m_s_019.jpg,NA,NA,pleasant,unpleasant,NA,NA,NA,NA,NA,left,1368,true,NA,NA,NA,NA,NA
Me1JvBIm,3e6l1vr4yzzg81jodkfak6sl8ztf6z,3leiz60cdncbilag35hvwsvxct09z2,Me1JvBIm,2020-0188,2021-10-17,10:42:31,12:06:32,NA,incomplete,false,true,NA,7,35,NA,gray,m_s_065.jpg,NA,NA,pleasant,unpleasant,NA,NA,NA,NA,NA,left,2681.80000001192,true,NA,NA,NA,NA,NA
Me1JvBIm,3e6l1vr4yzzg81jodkfak6sl8ztf6z,3leiz60cdncbilag35hvwsvxct09z2,Me1JvBIm,2020-0188,2021-10-17,10:42:31,12:06:32,NA,incomplete,false,NA,true,7,0,NA,NA,NA,right,absent,NA,NA,n_l_103.jpg,red,n_l_019.jpg,red,within,NA,NaN,NA,right,5959.9000000059605,1,1,1747.7999999821186
Me1JvBIm,3e6l1vr4yzzg81jodkfak6sl8ztf6z,3leiz60cdncbilag35hvwsvxct09z2,Me1JvBIm,2020-0188,2021-10-17,10:42:31,12:06:32,NA,incomplete,false,NA,true,7,1,NA,NA,NA,right,absent,NA,NA,n_s_116.jpg,gray,n_l_089.jpg,purple,between,NA,NaN,NA,right,2442.199999988079,1,2,969.6000000238419
Me1JvBIm,3e6l1vr4yzzg81jodkfak6sl8ztf6z,3leiz60cdncbilag35hvwsvxct09z2,Me1JvBIm,2020-0188,2021-10-17,10:42:31,12:06:32,NA,incomplete,false,NA,true,7,2,NA,NA,NA,left,absent,NA,NA,m_s_112.jpg,orange,n_s_040.jpg,orange,within,NA,NaN,NA,left,2443,1,3,1476.9000000059605
Me1JvBIm,3e6l1vr4yzzg81jodkfak6sl8ztf6z,3leiz60cdncbilag35hvwsvxct09z2,Me1JvBIm,2020-0188,2021-10-17,10:42:31,12:06:32,NA,incomplete,false,NA,true,7,3,NA,NA,NA,right,absent,NA,NA,m_s_071.jpg,purple,m_s_072.jpg,purple,within,NA,NaN,NA,right,2553,1,2,1748
Me1JvBIm,3e6l1vr4yzzg81jodkfak6sl8ztf6z,3leiz60cdncbilag35hvwsvxct09z2,Me1JvBIm,2020-0188,2021-10-17,10:42:31,12:06:32,NA,incomplete,false,NA,true,7,4,NA,NA,NA,left,absent,NA,NA,n_l_010.jpg,orange,n_s_075.jpg,red,between,NA,NaN,NA,left,4996.9000000059605,1,1,1932.5999999940395
Me1JvBIm,3e6l1vr4yzzg81jodkfak6sl8ztf6z,3leiz60cdncbilag35hvwsvxct09z2,Me1JvBIm,2020-0188,2021-10-17,10:42:31,12:06:32,NA,incomplete,false,NA,true,7,5,NA,NA,NA,left,absent,NA,NA,m_l_019.jpg,gray,m_s_065.jpg,gray,within,NA,NaN,NA,right,6948.200000017881,0,0,1921.0999999940395
Me1JvBIm,3e6l1vr4yzzg81jodkfak6sl8ztf6z,3leiz60cdncbilag35hvwsvxct09z2,Me1JvBIm,2020-0188,2021-10-17,10:42:31,12:06:32,NA,incomplete,false,NA,true,7,6,NA,NA,NA,right,absent,NA,NA,m_s_058.jpg,white,n_l_018.jpg,white,within,NA,NaN,NA,right,7339.799999982119,1,2,1210
Me1JvBIm,3e6l1vr4yzzg81jodkfak6sl8ztf6z,3leiz60cdncbilag35hvwsvxct09z2,Me1JvBIm,2020-0188,2021-10-17,10:42:31,12:06:32,NA,incomplete,false,NA,true,7,7,NA,NA,NA,left,absent,NA,NA,m_s_046.jpg,white,m_l_005.jpg,orange,between,NA,NaN,NA,left,6188.100000023842,1,2,857.5
Me1JvBIm,3e6l1vr4yzzg81jodkfak6sl8ztf6z,3leiz60cdncbilag35hvwsvxct09z2,Me1JvBIm,2020-0188,2021-10-17,10:42:31,12:06:32,NA,incomplete,false,NA,true,7,8,NA,NA,NA,right,absent,NA,NA,m_s_006.jpg,purple,m_l_009.jpg,brown,between,NA,NaN,NA,left,7495.9000000059605,0,2,1139.5
Me1JvBIm,3e6l1vr4yzzg81jodkfak6sl8ztf6z,3leiz60cdncbilag35hvwsvxct09z2,Me1JvBIm,2020-0188,2021-10-17,10:42:31,12:06:32,NA,incomplete,false,NA,true,7,9,NA,NA,NA,left,absent,NA,NA,m_s_004.jpg,brown,n_s_102.jpg,brown,within,NA,NaN,NA,right,4867.0999999940395,0,2,732.5
Me1JvBIm,3e6l1vr4yzzg81jodkfak6sl8ztf6z,3leiz60cdncbilag35hvwsvxct09z2,Me1JvBIm,2020-0188,2021-10-17,10:42:31,12:06:32,NA,incomplete,false,NA,true,7,10,NA,NA,NA,right,absent,NA,NA,n_s_011.jpg,brown,n_s_061.jpg,red,between,NA,NaN,NA,right,7027.9000000059605,1,1,763
Me1JvBIm,3e6l1vr4yzzg81jodkfak6sl8ztf6z,3leiz60cdncbilag35hvwsvxct09z2,Me1JvBIm,2020-0188,2021-10-17,10:42:31,12:06:32,NA,incomplete,false,true,NA,8,0,NA,orange,n_l_091.jpg,NA,NA,pleasant,unpleasant,NA,NA,NA,NA,NA,left,2292.29999998212,true,NA,NA,NA,NA,NA
Me1JvBIm,3e6l1vr4yzzg81jodkfak6sl8ztf6z,3leiz60cdncbilag35hvwsvxct09z2,Me1JvBIm,2020-0188,2021-10-17,10:42:31,12:06:32,NA,incomplete,false,true,NA,8,1,NA,orange,n_s_071.jpg,NA,NA,unpleasant,pleasant,NA,NA,NA,NA,NA,right,1138.5,true,NA,NA,NA,NA,NA
Me1JvBIm,3e6l1vr4yzzg81jodkfak6sl8ztf6z,3leiz60cdncbilag35hvwsvxct09z2,Me1JvBIm,2020-0188,2021-10-17,10:42:31,12:06:32,NA,incomplete,false,true,NA,8,2,NA,orange,m_s_102.jpg,NA,NA,pleasant,unpleasant,NA,NA,NA,NA,NA,left,1240.70000001788,true,NA,NA,NA,NA,NA
Me1JvBIm,3e6l1vr4yzzg81jodkfak6sl8ztf6z,3leiz60cdncbilag35hvwsvxct09z2,Me1JvBIm,2020-0188,2021-10-17,10:42:31,12:06:32,NA,incomplete,false,true,NA,8,3,NA,orange,n_s_090.jpg,NA,NA,pleasant,unpleasant,NA,NA,NA,NA,NA,right,1431,true,NA,NA,NA,NA,NA
Me1JvBIm,3e6l1vr4yzzg81jodkfak6sl8ztf6z,3leiz60cdncbilag35hvwsvxct09z2,Me1JvBIm,2020-0188,2021-10-17,10:42:31,12:06:32,NA,incomplete,false,true,NA,8,4,NA,orange,m_s_116.jpg,NA,NA,unpleasant,pleasant,NA,NA,NA,NA,NA,right,1989.19999998808,true,NA,NA,NA,NA,NA
Me1JvBIm,3e6l1vr4yzzg81jodkfak6sl8ztf6z,3leiz60cdncbilag35hvwsvxct09z2,Me1JvBIm,2020-0188,2021-10-17,10:42:31,12:06:32,NA,incomplete,false,true,NA,8,5,NA,orange,m_l_006.jpg,NA,NA,pleasant,unpleasant,NA,NA,NA,NA,NA,left,1338.40000000596,true,NA,NA,NA,NA,NA
Me1JvBIm,3e6l1vr4yzzg81jodkfak6sl8ztf6z,3leiz60cdncbilag35hvwsvxct09z2,Me1JvBIm,2020-0188,2021-10-17,10:42:31,12:06:32,NA,incomplete,false,true,NA,8,6,NA,yellow,m_l_084.jpg,NA,NA,pleasant,unpleasant,NA,NA,NA,NA,NA,left,1689.59999999404,true,NA,NA,NA,NA,NA
Me1JvBIm,3e6l1vr4yzzg81jodkfak6sl8ztf6z,3leiz60cdncbilag35hvwsvxct09z2,Me1JvBIm,2020-0188,2021-10-17,10:42:31,12:06:32,NA,incomplete,false,true,NA,8,7,NA,yellow,m_l_068.jpg,NA,NA,pleasant,unpleasant,NA,NA,NA,NA,NA,left,886.90000000596,true,NA,NA,NA,NA,NA
Me1JvBIm,3e6l1vr4yzzg81jodkfak6sl8ztf6z,3leiz60cdncbilag35hvwsvxct09z2,Me1JvBIm,2020-0188,2021-10-17,10:42:31,12:06:32,NA,incomplete,false,true,NA,8,8,NA,yellow,n_s_003.jpg,NA,NA,unpleasant,pleasant,NA,NA,NA,NA,NA,left,2354,true,NA,NA,NA,NA,NA
