workerId,hitId,assignmentId,subject,studyid,exp_date,exp_start,exp_end,time_start,time_end,practice,encoding,memory,block,trial,event_order,event,stim,answer,context_type,label_left,label_right,left_image,left_event,right_image,right_event,condition,response,response_time,response_acc,order_response,order_response_time,order_acc,distance_response,distance_response_time
nLp1SUay,3vck0q0pp8rxiiaq9ji6jar3xntn0d,31z0pcvwuosbiqdoigutw83aw77t7b,nLp1SUay,2020-0188,2021-10-17,17:37:13,18:50:27,NA,incomplete,true,true,NA,0,0,NA,gray,n_l_095.jpg,NA,NA,unpleasant,pleasant,NA,NA,NA,NA,NA,left,1443.30000001192,true,NA,NA,NA,NA,NA
nLp1SUay,3vck0q0pp8rxiiaq9ji6jar3xntn0d,31z0pcvwuosbiqdoigutw83aw77t7b,nLp1SUay,2020-0188,2021-10-17,17:37:13,18:50:27,NA,incomplete,true,true,NA,0,1,NA,gray,m_s_090.jpg,NA,NA,pleasant,unpleasant,NA,NA,NA,NA,NA,left,1193.19999998808,true,NA,NA,NA,NA,NA
nLp1SUay,3vck0q0pp8rxiiaq9ji6jar3xntn0d,31z0pcvwuosbiqdoigutw83aw77t7b,nLp1SUay,2020-0188,2021-10-17,17:37:13,18:50:27,NA,incomplete,true,true,NA,0,2,NA,gray,n_s_108.jpg,NA,NA,pleasant,unpleasant,NA,NA,NA,NA,NA,right,1128.20000001788,true,NA,NA,NA,NA,NA
nLp1SUay,3vck0q0pp8rxiiaq9ji6jar3xntn0d,31z0pcvwuosbiqdoigutw83aw77t7b,nLp1SUay,2020-0188,2021-10-17,17:37:13,18:50:27,NA,incomplete,true,true,NA,0,3,NA,gray,n_l_030.jpg,NA,NA,pleasant,unpleasant,NA,NA,NA,NA,NA,right,973.5,true,NA,NA,NA,NA,NA
nLp1SUay,3vck0q0pp8rxiiaq9ji6jar3xntn0d,31z0pcvwuosbiqdoigutw83aw77t7b,nLp1SUay,2020-0188,2021-10-17,17:37:13,18:50:27,NA,incomplete,true,true,NA,0,4,NA,gray,m_s_057.jpg,NA,NA,pleasant,unpleasant,NA,NA,NA,NA,NA,right,904.40000000596,true,NA,NA,NA,NA,NA
nLp1SUay,3vck0q0pp8rxiiaq9ji6jar3xntn0d,31z0pcvwuosbiqdoigutw83aw77t7b,nLp1SUay,2020-0188,2021-10-17,17:37:13,18:50:27,NA,incomplete,true,true,NA,0,5,NA,gray,m_l_021.jpg,NA,NA,unpleasant,pleasant,NA,NA,NA,NA,NA,right,982.5,true,NA,NA,NA,NA,NA
nLp1SUay,3vck0q0pp8rxiiaq9ji6jar3xntn0d,31z0pcvwuosbiqdoigutw83aw77t7b,nLp1SUay,2020-0188,2021-10-17,17:37:13,18:50:27,NA,incomplete,true,true,NA,0,6,NA,yellow,n_l_077.jpg,NA,NA,pleasant,unpleasant,NA,NA,NA,NA,NA,right,1411.90000000596,true,NA,NA,NA,NA,NA
nLp1SUay,3vck0q0pp8rxiiaq9ji6jar3xntn0d,31z0pcvwuosbiqdoigutw83aw77t7b,nLp1SUay,2020-0188,2021-10-17,17:37:13,18:50:27,NA,incomplete,true,true,NA,0,7,NA,yellow,m_s_067.jpg,NA,NA,pleasant,unpleasant,NA,NA,NA,NA,NA,left,1157.89999997616,true,NA,NA,NA,NA,NA
nLp1SUay,3vck0q0pp8rxiiaq9ji6jar3xntn0d,31z0pcvwuosbiqdoigutw83aw77t7b,nLp1SUay,2020-0188,2021-10-17,17:37:13,18:50:27,NA,incomplete,true,true,NA,0,8,NA,yellow,m_l_067.jpg,NA,NA,unpleasant,pleasant,NA,NA,NA,NA,NA,right,1289.90000000596,true,NA,NA,NA,NA,NA
nLp1SUay,3vck0q0pp8rxiiaq9ji6jar3xntn0d,31z0pcvwuosbiqdoigutw83aw77t7b,nLp1SUay,2020-0188,2021-10-17,17:37:13,18:50:27,NA,incomplete,true,true,NA,0,9,NA,yellow,m_l_108.jpg,NA,NA,pleasant,unpleasant,NA,NA,NA,NA,NA,left,1524.40000000596,true,NA,NA,NA,NA,NA
nLp1SUay,3vck0q0pp8rxiiaq9ji6jar3xntn0d,31z0pcvwuosbiqdoigutw83aw77t7b,nLp1SUay,2020-0188,2021-10-17,17:37:13,18:50:27,NA,incomplete,true,true,NA,0,10,NA,yellow,m_l_101.jpg,NA,NA,pleasant,unpleasant,NA,NA,NA,NA,NA,right,1091.19999998808,true,NA,NA,NA,NA,NA
nLp1SUay,3vck0q0pp8rxiiaq9ji6jar3xntn0d,31z0pcvwuosbiqdoigutw83aw77t7b,nLp1SUay,2020-0188,2021-10-17,17:37:13,18:50:27,NA,incomplete,true,true,NA,0,11,NA,yellow,n_s_075.jpg,NA,NA,unpleasant,pleasant,NA,NA,NA,NA,NA,left,1474,true,NA,NA,NA,NA,NA
nLp1SUay,3vck0q0pp8rxiiaq9ji6jar3xntn0d,31z0pcvwuosbiqdoigutw83aw77t7b,nLp1SUay,2020-0188,2021-10-17,17:37:13,18:50:27,NA,incomplete,true,true,NA,0,12,NA,blue,m_l_031.jpg,NA,NA,pleasant,unpleasant,NA,NA,NA,NA,NA,right,1178.80000001192,true,NA,NA,NA,NA,NA
nLp1SUay,3vck0q0pp8rxiiaq9ji6jar3xntn0d,31z0pcvwuosbiqdoigutw83aw77t7b,nLp1SUay,2020-0188,2021-10-17,17:37:13,18:50:27,NA,incomplete,true,true,NA,0,13,NA,blue,n_l_036.jpg,NA,NA,pleasant,unpleasant,NA,NA,NA,NA,NA,left,1176.5,true,NA,NA,NA,NA,NA
nLp1SUay,3vck0q0pp8rxiiaq9ji6jar3xntn0d,31z0pcvwuosbiqdoigutw83aw77t7b,nLp1SUay,2020-0188,2021-10-17,17:37:13,18:50:27,NA,incomplete,true,true,NA,0,14,NA,blue,n_l_049.jpg,NA,NA,pleasant,unpleasant,NA,NA,NA,NA,NA,left,1504.90000000596,true,NA,NA,NA,NA,NA
nLp1SUay,3vck0q0pp8rxiiaq9ji6jar3xntn0d,31z0pcvwuosbiqdoigutw83aw77t7b,nLp1SUay,2020-0188,2021-10-17,17:37:13,18:50:27,NA,incomplete,true,true,NA,0,15,NA,blue,n_l_011.jpg,NA,NA,unpleasant,pleasant,NA,NA,NA,NA,NA,left,1503.19999998808,true,NA,NA,NA,NA,NA
nLp1SUay,3vck0q0pp8rxiiaq9ji6jar3xntn0d,31z0pcvwuosbiqdoigutw83aw77t7b,nLp1SUay,2020-0188,2021-10-17,17:37:13,18:50:27,NA,incomplete,true,true,NA,0,16,NA,blue,n_s_056.jpg,NA,NA,pleasant,unpleasant,NA,NA,NA,NA,NA,left,1967.59999999404,true,NA,NA,NA,NA,NA
nLp1SUay,3vck0q0pp8rxiiaq9ji6jar3xntn0d,31z0pcvwuosbiqdoigutw83aw77t7b,nLp1SUay,2020-0188,2021-10-17,17:37:13,18:50:27,NA,incomplete,true,true,NA,0,17,NA,blue,n_l_043.jpg,NA,NA,pleasant,unpleasant,NA,NA,NA,NA,NA,left,1296.90000000596,true,NA,NA,NA,NA,NA
nLp1SUay,3vck0q0pp8rxiiaq9ji6jar3xntn0d,31z0pcvwuosbiqdoigutw83aw77t7b,nLp1SUay,2020-0188,2021-10-17,17:37:13,18:50:27,NA,incomplete,true,true,NA,0,18,NA,green,n_s_102.jpg,NA,NA,unpleasant,pleasant,NA,NA,NA,NA,NA,right,1316.69999998808,true,NA,NA,NA,NA,NA
nLp1SUay,3vck0q0pp8rxiiaq9ji6jar3xntn0d,31z0pcvwuosbiqdoigutw83aw77t7b,nLp1SUay,2020-0188,2021-10-17,17:37:13,18:50:27,NA,incomplete,true,true,NA,0,19,NA,green,n_l_071.jpg,NA,NA,unpleasant,pleasant,NA,NA,NA,NA,NA,right,930.699999988079,true,NA,NA,NA,NA,NA
nLp1SUay,3vck0q0pp8rxiiaq9ji6jar3xntn0d,31z0pcvwuosbiqdoigutw83aw77t7b,nLp1SUay,2020-0188,2021-10-17,17:37:13,18:50:27,NA,incomplete,true,true,NA,0,20,NA,green,n_l_076.jpg,NA,NA,pleasant,unpleasant,NA,NA,NA,NA,NA,left,1239.80000001192,true,NA,NA,NA,NA,NA
nLp1SUay,3vck0q0pp8rxiiaq9ji6jar3xntn0d,31z0pcvwuosbiqdoigutw83aw77t7b,nLp1SUay,2020-0188,2021-10-17,17:37:13,18:50:27,NA,incomplete,true,true,NA,0,21,NA,green,n_s_052.jpg,NA,NA,unpleasant,pleasant,NA,NA,NA,NA,NA,right,1128.39999997616,true,NA,NA,NA,NA,NA
nLp1SUay,3vck0q0pp8rxiiaq9ji6jar3xntn0d,31z0pcvwuosbiqdoigutw83aw77t7b,nLp1SUay,2020-0188,2021-10-17,17:37:13,18:50:27,NA,incomplete,true,true,NA,0,22,NA,green,m_l_097.jpg,NA,NA,pleasant,unpleasant,NA,NA,NA,NA,NA,right,1328.20000001788,true,NA,NA,NA,NA,NA
nLp1SUay,3vck0q0pp8rxiiaq9ji6jar3xntn0d,31z0pcvwuosbiqdoigutw83aw77t7b,nLp1SUay,2020-0188,2021-10-17,17:37:13,18:50:27,NA,incomplete,true,true,NA,0,23,NA,green,n_s_001.jpg,NA,NA,pleasant,unpleasant,NA,NA,NA,NA,NA,left,1409,true,NA,NA,NA,NA,NA
nLp1SUay,3vck0q0pp8rxiiaq9ji6jar3xntn0d,31z0pcvwuosbiqdoigutw83aw77t7b,nLp1SUay,2020-0188,2021-10-17,17:37:13,18:50:27,NA,incomplete,true,true,NA,0,24,NA,red,m_l_090.jpg,NA,NA,unpleasant,pleasant,NA,NA,NA,NA,NA,left,1590.80000001192,true,NA,NA,NA,NA,NA
nLp1SUay,3vck0q0pp8rxiiaq9ji6jar3xntn0d,31z0pcvwuosbiqdoigutw83aw77t7b,nLp1SUay,2020-0188,2021-10-17,17:37:13,18:50:27,NA,incomplete,true,true,NA,0,25,NA,red,n_s_020.jpg,NA,NA,pleasant,unpleasant,NA,NA,NA,NA,NA,left,1179.90000000596,true,NA,NA,NA,NA,NA
nLp1SUay,3vck0q0pp8rxiiaq9ji6jar3xntn0d,31z0pcvwuosbiqdoigutw83aw77t7b,nLp1SUay,2020-0188,2021-10-17,17:37:13,18:50:27,NA,incomplete,true,true,NA,0,26,NA,red,n_s_068.jpg,NA,NA,pleasant,unpleasant,NA,NA,NA,NA,NA,left,987.300000011921,true,NA,NA,NA,NA,NA
nLp1SUay,3vck0q0pp8rxiiaq9ji6jar3xntn0d,31z0pcvwuosbiqdoigutw83aw77t7b,nLp1SUay,2020-0188,2021-10-17,17:37:13,18:50:27,NA,incomplete,true,true,NA,0,27,NA,red,n_s_099.jpg,NA,NA,unpleasant,pleasant,NA,NA,NA,NA,NA,right,1291.09999999404,true,NA,NA,NA,NA,NA
nLp1SUay,3vck0q0pp8rxiiaq9ji6jar3xntn0d,31z0pcvwuosbiqdoigutw83aw77t7b,nLp1SUay,2020-0188,2021-10-17,17:37:13,18:50:27,NA,incomplete,true,true,NA,0,28,NA,red,m_s_028.jpg,NA,NA,pleasant,unpleasant,NA,NA,NA,NA,NA,right,1107.40000000596,true,NA,NA,NA,NA,NA
nLp1SUay,3vck0q0pp8rxiiaq9ji6jar3xntn0d,31z0pcvwuosbiqdoigutw83aw77t7b,nLp1SUay,2020-0188,2021-10-17,17:37:13,18:50:27,NA,incomplete,true,true,NA,0,29,NA,red,n_l_081.jpg,NA,NA,pleasant,unpleasant,NA,NA,NA,NA,NA,left,1062.09999999404,true,NA,NA,NA,NA,NA
nLp1SUay,3vck0q0pp8rxiiaq9ji6jar3xntn0d,31z0pcvwuosbiqdoigutw83aw77t7b,nLp1SUay,2020-0188,2021-10-17,17:37:13,18:50:27,NA,incomplete,true,true,NA,0,30,NA,white,n_s_112.jpg,NA,NA,unpleasant,pleasant,NA,NA,NA,NA,NA,right,1571.5,true,NA,NA,NA,NA,NA
nLp1SUay,3vck0q0pp8rxiiaq9ji6jar3xntn0d,31z0pcvwuosbiqdoigutw83aw77t7b,nLp1SUay,2020-0188,2021-10-17,17:37:13,18:50:27,NA,incomplete,true,true,NA,0,31,NA,white,n_s_070.jpg,NA,NA,unpleasant,pleasant,NA,NA,NA,NA,NA,right,1214.70000001788,true,NA,NA,NA,NA,NA
nLp1SUay,3vck0q0pp8rxiiaq9ji6jar3xntn0d,31z0pcvwuosbiqdoigutw83aw77t7b,nLp1SUay,2020-0188,2021-10-17,17:37:13,18:50:27,NA,incomplete,true,true,NA,0,32,NA,white,m_s_019.jpg,NA,NA,pleasant,unpleasant,NA,NA,NA,NA,NA,left,1511.79999998212,true,NA,NA,NA,NA,NA
nLp1SUay,3vck0q0pp8rxiiaq9ji6jar3xntn0d,31z0pcvwuosbiqdoigutw83aw77t7b,nLp1SUay,2020-0188,2021-10-17,17:37:13,18:50:27,NA,incomplete,true,true,NA,0,33,NA,white,n_l_115.jpg,NA,NA,pleasant,unpleasant,NA,NA,NA,NA,NA,left,1571.40000000596,true,NA,NA,NA,NA,NA
nLp1SUay,3vck0q0pp8rxiiaq9ji6jar3xntn0d,31z0pcvwuosbiqdoigutw83aw77t7b,nLp1SUay,2020-0188,2021-10-17,17:37:13,18:50:27,NA,incomplete,true,true,NA,0,34,NA,white,m_l_058.jpg,NA,NA,unpleasant,pleasant,NA,NA,NA,NA,NA,left,2325.80000001192,true,NA,NA,NA,NA,NA
nLp1SUay,3vck0q0pp8rxiiaq9ji6jar3xntn0d,31z0pcvwuosbiqdoigutw83aw77t7b,nLp1SUay,2020-0188,2021-10-17,17:37:13,18:50:27,NA,incomplete,true,true,NA,0,35,NA,white,n_s_106.jpg,NA,NA,unpleasant,pleasant,NA,NA,NA,NA,NA,left,2062.30000001192,true,NA,NA,NA,NA,NA
nLp1SUay,3vck0q0pp8rxiiaq9ji6jar3xntn0d,31z0pcvwuosbiqdoigutw83aw77t7b,nLp1SUay,2020-0188,2021-10-17,17:37:13,18:50:27,NA,incomplete,true,NA,true,0,0,NA,NA,NA,left,absent,NA,NA,n_l_036.jpg,blue,n_l_043.jpg,blue,within,NA,NaN,NA,left,4091.0999999940395,1,2,6067.899999976158
nLp1SUay,3vck0q0pp8rxiiaq9ji6jar3xntn0d,31z0pcvwuosbiqdoigutw83aw77t7b,nLp1SUay,2020-0188,2021-10-17,17:37:13,18:50:27,NA,incomplete,true,NA,true,0,1,NA,NA,NA,right,present,NA,NA,n_s_068.jpg,red,m_l_097.jpg,green,between,NA,NaN,NA,right,5857.5,1,1,1882.5
nLp1SUay,3vck0q0pp8rxiiaq9ji6jar3xntn0d,31z0pcvwuosbiqdoigutw83aw77t7b,nLp1SUay,2020-0188,2021-10-17,17:37:13,18:50:27,NA,incomplete,true,NA,true,0,2,NA,NA,NA,left,absent,NA,NA,n_l_071.jpg,green,n_s_001.jpg,green,within,NA,NaN,NA,left,2675.699999988079,1,2,1653.6000000238419
nLp1SUay,3vck0q0pp8rxiiaq9ji6jar3xntn0d,31z0pcvwuosbiqdoigutw83aw77t7b,nLp1SUay,2020-0188,2021-10-17,17:37:13,18:50:27,NA,incomplete,true,NA,true,0,3,NA,NA,NA,left,present,NA,NA,m_l_101.jpg,yellow,n_l_049.jpg,blue,between,NA,NaN,NA,left,2634.699999988079,1,2,3050.4000000059605
nLp1SUay,3vck0q0pp8rxiiaq9ji6jar3xntn0d,31z0pcvwuosbiqdoigutw83aw77t7b,nLp1SUay,2020-0188,2021-10-17,17:37:13,18:50:27,NA,incomplete,true,NA,true,0,4,NA,NA,NA,right,absent,NA,NA,m_l_067.jpg,yellow,m_s_057.jpg,gray,between,NA,NaN,NA,right,6902,1,1,2058.800000011921
nLp1SUay,3vck0q0pp8rxiiaq9ji6jar3xntn0d,31z0pcvwuosbiqdoigutw83aw77t7b,nLp1SUay,2020-0188,2021-10-17,17:37:13,18:50:27,NA,incomplete,true,NA,true,0,5,NA,NA,NA,right,present,NA,NA,n_l_081.jpg,red,n_s_020.jpg,red,within,NA,NaN,NA,left,5446.899999976158,0,0,3185.800000011921
nLp1SUay,3vck0q0pp8rxiiaq9ji6jar3xntn0d,31z0pcvwuosbiqdoigutw83aw77t7b,nLp1SUay,2020-0188,2021-10-17,17:37:13,18:50:27,NA,incomplete,true,NA,true,0,6,NA,NA,NA,right,present,NA,NA,n_s_075.jpg,yellow,m_s_067.jpg,yellow,within,NA,NaN,NA,left,4073.7000000178814,0,0,1429.5
nLp1SUay,3vck0q0pp8rxiiaq9ji6jar3xntn0d,31z0pcvwuosbiqdoigutw83aw77t7b,nLp1SUay,2020-0188,2021-10-17,17:37:13,18:50:27,NA,incomplete,true,NA,true,0,7,NA,NA,NA,left,absent,NA,NA,m_s_090.jpg,gray,m_l_021.jpg,gray,within,NA,NaN,NA,left,2597.9000000059605,1,0,1945.699999988079
nLp1SUay,3vck0q0pp8rxiiaq9ji6jar3xntn0d,31z0pcvwuosbiqdoigutw83aw77t7b,nLp1SUay,2020-0188,2021-10-17,17:37:13,18:50:27,NA,incomplete,true,NA,true,0,8,NA,NA,NA,left,present,NA,NA,m_s_028.jpg,red,m_s_019.jpg,white,between,NA,NaN,NA,right,8147.600000023842,0,2,1517.5
nLp1SUay,3vck0q0pp8rxiiaq9ji6jar3xntn0d,31z0pcvwuosbiqdoigutw83aw77t7b,nLp1SUay,2020-0188,2021-10-17,17:37:13,18:50:27,NA,incomplete,true,NA,true,0,9,NA,NA,NA,left,present,NA,NA,n_s_070.jpg,white,n_s_106.jpg,white,within,NA,NaN,NA,right,3388.5,0,0,1106.2999999821186
nLp1SUay,3vck0q0pp8rxiiaq9ji6jar3xntn0d,31z0pcvwuosbiqdoigutw83aw77t7b,nLp1SUay,2020-0188,2021-10-17,17:37:13,18:50:27,NA,incomplete,true,NA,true,0,10,NA,NA,NA,left,present,NA,NA,n_s_056.jpg,blue,n_l_076.jpg,green,between,NA,NaN,NA,left,4274.9000000059605,1,2,1461.9000000059605
nLp1SUay,3vck0q0pp8rxiiaq9ji6jar3xntn0d,31z0pcvwuosbiqdoigutw83aw77t7b,nLp1SUay,2020-0188,2021-10-17,17:37:13,18:50:27,NA,incomplete,false,true,NA,1,0,NA,green,n_l_078.jpg,NA,NA,unpleasant,pleasant,NA,NA,NA,NA,NA,right,2361.30000001192,true,NA,NA,NA,NA,NA
nLp1SUay,3vck0q0pp8rxiiaq9ji6jar3xntn0d,31z0pcvwuosbiqdoigutw83aw77t7b,nLp1SUay,2020-0188,2021-10-17,17:37:13,18:50:27,NA,incomplete,false,true,NA,1,1,NA,green,m_l_112.jpg,NA,NA,unpleasant,pleasant,NA,NA,NA,NA,NA,left,1496.40000000596,true,NA,NA,NA,NA,NA
nLp1SUay,3vck0q0pp8rxiiaq9ji6jar3xntn0d,31z0pcvwuosbiqdoigutw83aw77t7b,nLp1SUay,2020-0188,2021-10-17,17:37:13,18:50:27,NA,incomplete,false,true,NA,1,2,NA,green,n_s_114.jpg,NA,NA,unpleasant,pleasant,NA,NA,NA,NA,NA,left,1343.60000002384,true,NA,NA,NA,NA,NA
nLp1SUay,3vck0q0pp8rxiiaq9ji6jar3xntn0d,31z0pcvwuosbiqdoigutw83aw77t7b,nLp1SUay,2020-0188,2021-10-17,17:37:13,18:50:27,NA,incomplete,false,true,NA,1,3,NA,green,n_l_082.jpg,NA,NA,pleasant,unpleasant,NA,NA,NA,NA,NA,left,1355.09999999404,true,NA,NA,NA,NA,NA
nLp1SUay,3vck0q0pp8rxiiaq9ji6jar3xntn0d,31z0pcvwuosbiqdoigutw83aw77t7b,nLp1SUay,2020-0188,2021-10-17,17:37:13,18:50:27,NA,incomplete,false,true,NA,1,4,NA,green,n_l_025.jpg,NA,NA,pleasant,unpleasant,NA,NA,NA,NA,NA,left,1324,true,NA,NA,NA,NA,NA
nLp1SUay,3vck0q0pp8rxiiaq9ji6jar3xntn0d,31z0pcvwuosbiqdoigutw83aw77t7b,nLp1SUay,2020-0188,2021-10-17,17:37:13,18:50:27,NA,incomplete,false,true,NA,1,5,NA,green,n_s_046.jpg,NA,NA,unpleasant,pleasant,NA,NA,NA,NA,NA,right,1020.5,true,NA,NA,NA,NA,NA
nLp1SUay,3vck0q0pp8rxiiaq9ji6jar3xntn0d,31z0pcvwuosbiqdoigutw83aw77t7b,nLp1SUay,2020-0188,2021-10-17,17:37:13,18:50:27,NA,incomplete,false,true,NA,1,6,NA,black,m_s_066.jpg,NA,NA,pleasant,unpleasant,NA,NA,NA,NA,NA,right,1192.59999999404,true,NA,NA,NA,NA,NA
nLp1SUay,3vck0q0pp8rxiiaq9ji6jar3xntn0d,31z0pcvwuosbiqdoigutw83aw77t7b,nLp1SUay,2020-0188,2021-10-17,17:37:13,18:50:27,NA,incomplete,false,true,NA,1,7,NA,black,m_l_009.jpg,NA,NA,unpleasant,pleasant,NA,NA,NA,NA,NA,left,1241.69999998808,true,NA,NA,NA,NA,NA
nLp1SUay,3vck0q0pp8rxiiaq9ji6jar3xntn0d,31z0pcvwuosbiqdoigutw83aw77t7b,nLp1SUay,2020-0188,2021-10-17,17:37:13,18:50:27,NA,incomplete,false,true,NA,1,8,NA,black,n_s_086.jpg,NA,NA,unpleasant,pleasant,NA,NA,NA,NA,NA,left,1301.19999998808,true,NA,NA,NA,NA,NA
nLp1SUay,3vck0q0pp8rxiiaq9ji6jar3xntn0d,31z0pcvwuosbiqdoigutw83aw77t7b,nLp1SUay,2020-0188,2021-10-17,17:37:13,18:50:27,NA,incomplete,false,true,NA,1,9,NA,black,m_s_045.jpg,NA,NA,pleasant,unpleasant,NA,NA,NA,NA,NA,left,1381.20000001788,true,NA,NA,NA,NA,NA
nLp1SUay,3vck0q0pp8rxiiaq9ji6jar3xntn0d,31z0pcvwuosbiqdoigutw83aw77t7b,nLp1SUay,2020-0188,2021-10-17,17:37:13,18:50:27,NA,incomplete,false,true,NA,1,10,NA,black,m_l_065.jpg,NA,NA,unpleasant,pleasant,NA,NA,NA,NA,NA,left,1296.5,true,NA,NA,NA,NA,NA
nLp1SUay,3vck0q0pp8rxiiaq9ji6jar3xntn0d,31z0pcvwuosbiqdoigutw83aw77t7b,nLp1SUay,2020-0188,2021-10-17,17:37:13,18:50:27,NA,incomplete,false,true,NA,1,11,NA,black,n_l_108.jpg,NA,NA,pleasant,unpleasant,NA,NA,NA,NA,NA,left,1204,true,NA,NA,NA,NA,NA
nLp1SUay,3vck0q0pp8rxiiaq9ji6jar3xntn0d,31z0pcvwuosbiqdoigutw83aw77t7b,nLp1SUay,2020-0188,2021-10-17,17:37:13,18:50:27,NA,incomplete,false,true,NA,1,12,NA,yellow,n_s_017.jpg,NA,NA,unpleasant,pleasant,NA,NA,NA,NA,NA,right,1336.59999999404,true,NA,NA,NA,NA,NA
nLp1SUay,3vck0q0pp8rxiiaq9ji6jar3xntn0d,31z0pcvwuosbiqdoigutw83aw77t7b,nLp1SUay,2020-0188,2021-10-17,17:37:13,18:50:27,NA,incomplete,false,true,NA,1,13,NA,yellow,m_l_100.jpg,NA,NA,unpleasant,pleasant,NA,NA,NA,NA,NA,left,1274.40000000596,true,NA,NA,NA,NA,NA
nLp1SUay,3vck0q0pp8rxiiaq9ji6jar3xntn0d,31z0pcvwuosbiqdoigutw83aw77t7b,nLp1SUay,2020-0188,2021-10-17,17:37:13,18:50:27,NA,incomplete,false,true,NA,1,14,NA,yellow,m_l_095.jpg,NA,NA,pleasant,unpleasant,NA,NA,NA,NA,NA,left,1242.70000001788,true,NA,NA,NA,NA,NA
nLp1SUay,3vck0q0pp8rxiiaq9ji6jar3xntn0d,31z0pcvwuosbiqdoigutw83aw77t7b,nLp1SUay,2020-0188,2021-10-17,17:37:13,18:50:27,NA,incomplete,false,true,NA,1,15,NA,yellow,m_l_023.jpg,NA,NA,unpleasant,pleasant,NA,NA,NA,NA,NA,left,1499.39999997616,true,NA,NA,NA,NA,NA
nLp1SUay,3vck0q0pp8rxiiaq9ji6jar3xntn0d,31z0pcvwuosbiqdoigutw83aw77t7b,nLp1SUay,2020-0188,2021-10-17,17:37:13,18:50:27,NA,incomplete,false,true,NA,1,16,NA,yellow,m_l_051.jpg,NA,NA,pleasant,unpleasant,NA,NA,NA,NA,NA,left,1138.70000001788,true,NA,NA,NA,NA,NA
nLp1SUay,3vck0q0pp8rxiiaq9ji6jar3xntn0d,31z0pcvwuosbiqdoigutw83aw77t7b,nLp1SUay,2020-0188,2021-10-17,17:37:13,18:50:27,NA,incomplete,false,true,NA,1,17,NA,yellow,n_l_015.jpg,NA,NA,pleasant,unpleasant,NA,NA,NA,NA,NA,left,1006.5,true,NA,NA,NA,NA,NA
nLp1SUay,3vck0q0pp8rxiiaq9ji6jar3xntn0d,31z0pcvwuosbiqdoigutw83aw77t7b,nLp1SUay,2020-0188,2021-10-17,17:37:13,18:50:27,NA,incomplete,false,true,NA,1,18,NA,blue,n_s_008.jpg,NA,NA,pleasant,unpleasant,NA,NA,NA,NA,NA,left,1244.59999999404,true,NA,NA,NA,NA,NA
nLp1SUay,3vck0q0pp8rxiiaq9ji6jar3xntn0d,31z0pcvwuosbiqdoigutw83aw77t7b,nLp1SUay,2020-0188,2021-10-17,17:37:13,18:50:27,NA,incomplete,false,true,NA,1,19,NA,blue,m_l_003.jpg,NA,NA,pleasant,unpleasant,NA,NA,NA,NA,NA,left,1168.70000001788,true,NA,NA,NA,NA,NA
nLp1SUay,3vck0q0pp8rxiiaq9ji6jar3xntn0d,31z0pcvwuosbiqdoigutw83aw77t7b,nLp1SUay,2020-0188,2021-10-17,17:37:13,18:50:27,NA,incomplete,false,true,NA,1,20,NA,blue,n_s_019.jpg,NA,NA,unpleasant,pleasant,NA,NA,NA,NA,NA,right,1110.5,true,NA,NA,NA,NA,NA
nLp1SUay,3vck0q0pp8rxiiaq9ji6jar3xntn0d,31z0pcvwuosbiqdoigutw83aw77t7b,nLp1SUay,2020-0188,2021-10-17,17:37:13,18:50:27,NA,incomplete,false,true,NA,1,21,NA,blue,n_l_012.jpg,NA,NA,pleasant,unpleasant,NA,NA,NA,NA,NA,left,1135.10000002384,true,NA,NA,NA,NA,NA
nLp1SUay,3vck0q0pp8rxiiaq9ji6jar3xntn0d,31z0pcvwuosbiqdoigutw83aw77t7b,nLp1SUay,2020-0188,2021-10-17,17:37:13,18:50:27,NA,incomplete,false,true,NA,1,22,NA,blue,m_s_014.jpg,NA,NA,pleasant,unpleasant,NA,NA,NA,NA,NA,right,1313.40000000596,true,NA,NA,NA,NA,NA
nLp1SUay,3vck0q0pp8rxiiaq9ji6jar3xntn0d,31z0pcvwuosbiqdoigutw83aw77t7b,nLp1SUay,2020-0188,2021-10-17,17:37:13,18:50:27,NA,incomplete,false,true,NA,1,23,NA,blue,m_s_099.jpg,NA,NA,unpleasant,pleasant,NA,NA,NA,NA,NA,left,1464.30000001192,true,NA,NA,NA,NA,NA
nLp1SUay,3vck0q0pp8rxiiaq9ji6jar3xntn0d,31z0pcvwuosbiqdoigutw83aw77t7b,nLp1SUay,2020-0188,2021-10-17,17:37:13,18:50:27,NA,incomplete,false,true,NA,1,24,NA,orange,m_s_044.jpg,NA,NA,pleasant,unpleasant,NA,NA,NA,NA,NA,left,1543.5,true,NA,NA,NA,NA,NA
nLp1SUay,3vck0q0pp8rxiiaq9ji6jar3xntn0d,31z0pcvwuosbiqdoigutw83aw77t7b,nLp1SUay,2020-0188,2021-10-17,17:37:13,18:50:27,NA,incomplete,false,true,NA,1,25,NA,orange,m_s_036.jpg,NA,NA,pleasant,unpleasant,NA,NA,NA,NA,NA,left,1114.30000001192,true,NA,NA,NA,NA,NA
nLp1SUay,3vck0q0pp8rxiiaq9ji6jar3xntn0d,31z0pcvwuosbiqdoigutw83aw77t7b,nLp1SUay,2020-0188,2021-10-17,17:37:13,18:50:27,NA,incomplete,false,true,NA,1,26,NA,orange,n_s_104.jpg,NA,NA,unpleasant,pleasant,NA,NA,NA,NA,NA,left,1071.69999998808,true,NA,NA,NA,NA,NA
nLp1SUay,3vck0q0pp8rxiiaq9ji6jar3xntn0d,31z0pcvwuosbiqdoigutw83aw77t7b,nLp1SUay,2020-0188,2021-10-17,17:37:13,18:50:27,NA,incomplete,false,true,NA,1,27,NA,orange,m_s_069.jpg,NA,NA,unpleasant,pleasant,NA,NA,NA,NA,NA,right,1151.89999997616,true,NA,NA,NA,NA,NA
nLp1SUay,3vck0q0pp8rxiiaq9ji6jar3xntn0d,31z0pcvwuosbiqdoigutw83aw77t7b,nLp1SUay,2020-0188,2021-10-17,17:37:13,18:50:27,NA,incomplete,false,true,NA,1,28,NA,orange,m_s_113.jpg,NA,NA,unpleasant,pleasant,NA,NA,NA,NA,NA,right,1148.40000000596,true,NA,NA,NA,NA,NA
nLp1SUay,3vck0q0pp8rxiiaq9ji6jar3xntn0d,31z0pcvwuosbiqdoigutw83aw77t7b,nLp1SUay,2020-0188,2021-10-17,17:37:13,18:50:27,NA,incomplete,false,true,NA,1,29,NA,orange,n_l_018.jpg,NA,NA,pleasant,unpleasant,NA,NA,NA,NA,NA,left,1049.29999998212,true,NA,NA,NA,NA,NA
nLp1SUay,3vck0q0pp8rxiiaq9ji6jar3xntn0d,31z0pcvwuosbiqdoigutw83aw77t7b,nLp1SUay,2020-0188,2021-10-17,17:37:13,18:50:27,NA,incomplete,false,true,NA,1,30,NA,brown,n_s_045.jpg,NA,NA,unpleasant,pleasant,NA,NA,NA,NA,NA,right,1125.30000001192,true,NA,NA,NA,NA,NA
nLp1SUay,3vck0q0pp8rxiiaq9ji6jar3xntn0d,31z0pcvwuosbiqdoigutw83aw77t7b,nLp1SUay,2020-0188,2021-10-17,17:37:13,18:50:27,NA,incomplete,false,true,NA,1,31,NA,brown,n_l_016.jpg,NA,NA,pleasant,unpleasant,NA,NA,NA,NA,NA,left,1117.5,true,NA,NA,NA,NA,NA
nLp1SUay,3vck0q0pp8rxiiaq9ji6jar3xntn0d,31z0pcvwuosbiqdoigutw83aw77t7b,nLp1SUay,2020-0188,2021-10-17,17:37:13,18:50:27,NA,incomplete,false,true,NA,1,32,NA,brown,n_l_048.jpg,NA,NA,unpleasant,pleasant,NA,NA,NA,NA,NA,right,1044.10000002384,true,NA,NA,NA,NA,NA
nLp1SUay,3vck0q0pp8rxiiaq9ji6jar3xntn0d,31z0pcvwuosbiqdoigutw83aw77t7b,nLp1SUay,2020-0188,2021-10-17,17:37:13,18:50:27,NA,incomplete,false,true,NA,1,33,NA,brown,n_s_072.jpg,NA,NA,pleasant,unpleasant,NA,NA,NA,NA,NA,left,1509.80000001192,true,NA,NA,NA,NA,NA
nLp1SUay,3vck0q0pp8rxiiaq9ji6jar3xntn0d,31z0pcvwuosbiqdoigutw83aw77t7b,nLp1SUay,2020-0188,2021-10-17,17:37:13,18:50:27,NA,incomplete,false,true,NA,1,34,NA,brown,m_s_058.jpg,NA,NA,pleasant,unpleasant,NA,NA,NA,NA,NA,left,1254.69999998808,true,NA,NA,NA,NA,NA
nLp1SUay,3vck0q0pp8rxiiaq9ji6jar3xntn0d,31z0pcvwuosbiqdoigutw83aw77t7b,nLp1SUay,2020-0188,2021-10-17,17:37:13,18:50:27,NA,incomplete,false,true,NA,1,35,NA,brown,m_l_030.jpg,NA,NA,pleasant,unpleasant,NA,NA,NA,NA,NA,right,1068.19999998808,true,NA,NA,NA,NA,NA
nLp1SUay,3vck0q0pp8rxiiaq9ji6jar3xntn0d,31z0pcvwuosbiqdoigutw83aw77t7b,nLp1SUay,2020-0188,2021-10-17,17:37:13,18:50:27,NA,incomplete,false,NA,true,1,0,NA,NA,NA,right,present,NA,NA,n_l_048.jpg,brown,m_s_113.jpg,orange,between,NA,NaN,NA,right,7713,1,2,3600.7000000178814
nLp1SUay,3vck0q0pp8rxiiaq9ji6jar3xntn0d,31z0pcvwuosbiqdoigutw83aw77t7b,nLp1SUay,2020-0188,2021-10-17,17:37:13,18:50:27,NA,incomplete,false,NA,true,1,1,NA,NA,NA,left,present,NA,NA,n_l_025.jpg,green,n_s_086.jpg,black,between,NA,NaN,NA,right,3648.7999999821186,0,2,1329.1000000238419
nLp1SUay,3vck0q0pp8rxiiaq9ji6jar3xntn0d,31z0pcvwuosbiqdoigutw83aw77t7b,nLp1SUay,2020-0188,2021-10-17,17:37:13,18:50:27,NA,incomplete,false,NA,true,1,2,NA,NA,NA,left,present,NA,NA,m_l_051.jpg,yellow,n_s_019.jpg,blue,between,NA,NaN,NA,left,4834.0999999940395,1,2,1494.5999999940395
nLp1SUay,3vck0q0pp8rxiiaq9ji6jar3xntn0d,31z0pcvwuosbiqdoigutw83aw77t7b,nLp1SUay,2020-0188,2021-10-17,17:37:13,18:50:27,NA,incomplete,false,NA,true,1,3,NA,NA,NA,left,present,NA,NA,m_l_112.jpg,green,n_s_046.jpg,green,within,NA,NaN,NA,right,4753.199999988079,0,3,1752.300000011921
nLp1SUay,3vck0q0pp8rxiiaq9ji6jar3xntn0d,31z0pcvwuosbiqdoigutw83aw77t7b,nLp1SUay,2020-0188,2021-10-17,17:37:13,18:50:27,NA,incomplete,false,NA,true,1,4,NA,NA,NA,left,present,NA,NA,m_l_065.jpg,black,m_l_095.jpg,yellow,between,NA,NaN,NA,right,3250.100000023842,0,2,1786.1000000238419
nLp1SUay,3vck0q0pp8rxiiaq9ji6jar3xntn0d,31z0pcvwuosbiqdoigutw83aw77t7b,nLp1SUay,2020-0188,2021-10-17,17:37:13,18:50:27,NA,incomplete,false,NA,true,1,5,NA,NA,NA,left,present,NA,NA,m_s_014.jpg,blue,n_s_104.jpg,orange,between,NA,NaN,NA,left,4079.2999999821186,1,2,1595.9000000059605
nLp1SUay,3vck0q0pp8rxiiaq9ji6jar3xntn0d,31z0pcvwuosbiqdoigutw83aw77t7b,nLp1SUay,2020-0188,2021-10-17,17:37:13,18:50:27,NA,incomplete,false,NA,true,1,6,NA,NA,NA,left,present,NA,NA,m_s_036.jpg,orange,n_l_018.jpg,orange,within,NA,NaN,NA,left,7055.299999982119,1,0,3518.199999988079
nLp1SUay,3vck0q0pp8rxiiaq9ji6jar3xntn0d,31z0pcvwuosbiqdoigutw83aw77t7b,nLp1SUay,2020-0188,2021-10-17,17:37:13,18:50:27,NA,incomplete,false,NA,true,1,7,NA,NA,NA,left,present,NA,NA,m_l_100.jpg,yellow,n_l_015.jpg,yellow,within,NA,NaN,NA,left,9662.40000000596,1,3,2688.5
nLp1SUay,3vck0q0pp8rxiiaq9ji6jar3xntn0d,31z0pcvwuosbiqdoigutw83aw77t7b,nLp1SUay,2020-0188,2021-10-17,17:37:13,18:50:27,NA,incomplete,false,NA,true,1,8,NA,NA,NA,left,present,NA,NA,n_l_016.jpg,brown,m_l_030.jpg,brown,within,NA,NaN,NA,left,4651.4000000059605,1,0,2452.2000000178814
nLp1SUay,3vck0q0pp8rxiiaq9ji6jar3xntn0d,31z0pcvwuosbiqdoigutw83aw77t7b,nLp1SUay,2020-0188,2021-10-17,17:37:13,18:50:27,NA,incomplete,false,NA,true,1,9,NA,NA,NA,left,present,NA,NA,m_l_009.jpg,black,n_l_108.jpg,black,within,NA,NaN,NA,left,4178.100000023842,1,3,1714.2999999821186
nLp1SUay,3vck0q0pp8rxiiaq9ji6jar3xntn0d,31z0pcvwuosbiqdoigutw83aw77t7b,nLp1SUay,2020-0188,2021-10-17,17:37:13,18:50:27,NA,incomplete,false,NA,true,1,10,NA,NA,NA,left,present,NA,NA,m_l_003.jpg,blue,m_s_099.jpg,blue,within,NA,NaN,NA,left,2691.7000000178814,1,3,1471.5
nLp1SUay,3vck0q0pp8rxiiaq9ji6jar3xntn0d,31z0pcvwuosbiqdoigutw83aw77t7b,nLp1SUay,2020-0188,2021-10-17,17:37:13,18:50:27,NA,incomplete,false,true,NA,2,0,NA,green,n_s_042.jpg,NA,NA,pleasant,unpleasant,NA,NA,NA,NA,NA,right,2089,true,NA,NA,NA,NA,NA
nLp1SUay,3vck0q0pp8rxiiaq9ji6jar3xntn0d,31z0pcvwuosbiqdoigutw83aw77t7b,nLp1SUay,2020-0188,2021-10-17,17:37:13,18:50:27,NA,incomplete,false,true,NA,2,1,NA,green,m_s_027.jpg,NA,NA,unpleasant,pleasant,NA,NA,NA,NA,NA,right,1421.20000001788,true,NA,NA,NA,NA,NA
nLp1SUay,3vck0q0pp8rxiiaq9ji6jar3xntn0d,31z0pcvwuosbiqdoigutw83aw77t7b,nLp1SUay,2020-0188,2021-10-17,17:37:13,18:50:27,NA,incomplete,false,true,NA,2,2,NA,green,n_s_083.jpg,NA,NA,pleasant,unpleasant,NA,NA,NA,NA,NA,left,1440.60000002384,true,NA,NA,NA,NA,NA
nLp1SUay,3vck0q0pp8rxiiaq9ji6jar3xntn0d,31z0pcvwuosbiqdoigutw83aw77t7b,nLp1SUay,2020-0188,2021-10-17,17:37:13,18:50:27,NA,incomplete,false,true,NA,2,3,NA,green,n_l_027.jpg,NA,NA,pleasant,unpleasant,NA,NA,NA,NA,NA,left,1067.09999999404,true,NA,NA,NA,NA,NA
nLp1SUay,3vck0q0pp8rxiiaq9ji6jar3xntn0d,31z0pcvwuosbiqdoigutw83aw77t7b,nLp1SUay,2020-0188,2021-10-17,17:37:13,18:50:27,NA,incomplete,false,true,NA,2,4,NA,green,n_l_044.jpg,NA,NA,unpleasant,pleasant,NA,NA,NA,NA,NA,right,1146.69999998808,true,NA,NA,NA,NA,NA
nLp1SUay,3vck0q0pp8rxiiaq9ji6jar3xntn0d,31z0pcvwuosbiqdoigutw83aw77t7b,nLp1SUay,2020-0188,2021-10-17,17:37:13,18:50:27,NA,incomplete,false,true,NA,2,5,NA,green,m_l_016.jpg,NA,NA,pleasant,unpleasant,NA,NA,NA,NA,NA,left,1056.20000001788,true,NA,NA,NA,NA,NA
nLp1SUay,3vck0q0pp8rxiiaq9ji6jar3xntn0d,31z0pcvwuosbiqdoigutw83aw77t7b,nLp1SUay,2020-0188,2021-10-17,17:37:13,18:50:27,NA,incomplete,false,true,NA,2,6,NA,white,n_l_098.jpg,NA,NA,unpleasant,pleasant,NA,NA,NA,NA,NA,right,1331.19999998808,true,NA,NA,NA,NA,NA
nLp1SUay,3vck0q0pp8rxiiaq9ji6jar3xntn0d,31z0pcvwuosbiqdoigutw83aw77t7b,nLp1SUay,2020-0188,2021-10-17,17:37:13,18:50:27,NA,incomplete,false,true,NA,2,7,NA,white,m_l_074.jpg,NA,NA,unpleasant,pleasant,NA,NA,NA,NA,NA,right,1059.40000000596,true,NA,NA,NA,NA,NA
nLp1SUay,3vck0q0pp8rxiiaq9ji6jar3xntn0d,31z0pcvwuosbiqdoigutw83aw77t7b,nLp1SUay,2020-0188,2021-10-17,17:37:13,18:50:27,NA,incomplete,false,true,NA,2,8,NA,white,n_s_018.jpg,NA,NA,pleasant,unpleasant,NA,NA,NA,NA,NA,right,1325.60000002384,true,NA,NA,NA,NA,NA
nLp1SUay,3vck0q0pp8rxiiaq9ji6jar3xntn0d,31z0pcvwuosbiqdoigutw83aw77t7b,nLp1SUay,2020-0188,2021-10-17,17:37:13,18:50:27,NA,incomplete,false,true,NA,2,9,NA,white,n_s_101.jpg,NA,NA,unpleasant,pleasant,NA,NA,NA,NA,NA,left,1239,true,NA,NA,NA,NA,NA
nLp1SUay,3vck0q0pp8rxiiaq9ji6jar3xntn0d,31z0pcvwuosbiqdoigutw83aw77t7b,nLp1SUay,2020-0188,2021-10-17,17:37:13,18:50:27,NA,incomplete,false,true,NA,2,10,NA,white,n_s_023.jpg,NA,NA,pleasant,unpleasant,NA,NA,NA,NA,NA,left,1142.39999997616,true,NA,NA,NA,NA,NA
nLp1SUay,3vck0q0pp8rxiiaq9ji6jar3xntn0d,31z0pcvwuosbiqdoigutw83aw77t7b,nLp1SUay,2020-0188,2021-10-17,17:37:13,18:50:27,NA,incomplete,false,true,NA,2,11,NA,white,m_s_073.jpg,NA,NA,pleasant,unpleasant,NA,NA,NA,NA,NA,left,1083.89999997616,true,NA,NA,NA,NA,NA
nLp1SUay,3vck0q0pp8rxiiaq9ji6jar3xntn0d,31z0pcvwuosbiqdoigutw83aw77t7b,nLp1SUay,2020-0188,2021-10-17,17:37:13,18:50:27,NA,incomplete,false,true,NA,2,12,NA,brown,n_l_090.jpg,NA,NA,pleasant,unpleasant,NA,NA,NA,NA,NA,right,1859.80000001192,true,NA,NA,NA,NA,NA
nLp1SUay,3vck0q0pp8rxiiaq9ji6jar3xntn0d,31z0pcvwuosbiqdoigutw83aw77t7b,nLp1SUay,2020-0188,2021-10-17,17:37:13,18:50:27,NA,incomplete,false,true,NA,2,13,NA,brown,m_l_004.jpg,NA,NA,pleasant,unpleasant,NA,NA,NA,NA,NA,left,1055.80000001192,true,NA,NA,NA,NA,NA
nLp1SUay,3vck0q0pp8rxiiaq9ji6jar3xntn0d,31z0pcvwuosbiqdoigutw83aw77t7b,nLp1SUay,2020-0188,2021-10-17,17:37:13,18:50:27,NA,incomplete,false,true,NA,2,14,NA,brown,m_l_104.jpg,NA,NA,pleasant,unpleasant,NA,NA,NA,NA,NA,left,1144.90000000596,true,NA,NA,NA,NA,NA
nLp1SUay,3vck0q0pp8rxiiaq9ji6jar3xntn0d,31z0pcvwuosbiqdoigutw83aw77t7b,nLp1SUay,2020-0188,2021-10-17,17:37:13,18:50:27,NA,incomplete,false,true,NA,2,15,NA,brown,n_l_105.jpg,NA,NA,pleasant,unpleasant,NA,NA,NA,NA,NA,left,1310.59999999404,true,NA,NA,NA,NA,NA
nLp1SUay,3vck0q0pp8rxiiaq9ji6jar3xntn0d,31z0pcvwuosbiqdoigutw83aw77t7b,nLp1SUay,2020-0188,2021-10-17,17:37:13,18:50:27,NA,incomplete,false,true,NA,2,16,NA,brown,m_s_056.jpg,NA,NA,pleasant,unpleasant,NA,NA,NA,NA,NA,left,1004.80000001192,true,NA,NA,NA,NA,NA
nLp1SUay,3vck0q0pp8rxiiaq9ji6jar3xntn0d,31z0pcvwuosbiqdoigutw83aw77t7b,nLp1SUay,2020-0188,2021-10-17,17:37:13,18:50:27,NA,incomplete,false,true,NA,2,17,NA,brown,m_s_117.jpg,NA,NA,unpleasant,pleasant,NA,NA,NA,NA,NA,right,1209,true,NA,NA,NA,NA,NA
nLp1SUay,3vck0q0pp8rxiiaq9ji6jar3xntn0d,31z0pcvwuosbiqdoigutw83aw77t7b,nLp1SUay,2020-0188,2021-10-17,17:37:13,18:50:27,NA,incomplete,false,true,NA,2,18,NA,purple,m_l_045.jpg,NA,NA,pleasant,unpleasant,NA,NA,NA,NA,NA,left,936.59999999404,true,NA,NA,NA,NA,NA
nLp1SUay,3vck0q0pp8rxiiaq9ji6jar3xntn0d,31z0pcvwuosbiqdoigutw83aw77t7b,nLp1SUay,2020-0188,2021-10-17,17:37:13,18:50:27,NA,incomplete,false,true,NA,2,19,NA,purple,n_s_093.jpg,NA,NA,pleasant,unpleasant,NA,NA,NA,NA,NA,right,1075.20000001788,true,NA,NA,NA,NA,NA
nLp1SUay,3vck0q0pp8rxiiaq9ji6jar3xntn0d,31z0pcvwuosbiqdoigutw83aw77t7b,nLp1SUay,2020-0188,2021-10-17,17:37:13,18:50:27,NA,incomplete,false,true,NA,2,20,NA,purple,n_l_003.jpg,NA,NA,unpleasant,pleasant,NA,NA,NA,NA,NA,right,1343.20000001788,true,NA,NA,NA,NA,NA
nLp1SUay,3vck0q0pp8rxiiaq9ji6jar3xntn0d,31z0pcvwuosbiqdoigutw83aw77t7b,nLp1SUay,2020-0188,2021-10-17,17:37:13,18:50:27,NA,incomplete,false,true,NA,2,21,NA,purple,m_l_001.jpg,NA,NA,pleasant,unpleasant,NA,NA,NA,NA,NA,right,1656.5,true,NA,NA,NA,NA,NA
nLp1SUay,3vck0q0pp8rxiiaq9ji6jar3xntn0d,31z0pcvwuosbiqdoigutw83aw77t7b,nLp1SUay,2020-0188,2021-10-17,17:37:13,18:50:27,NA,incomplete,false,true,NA,2,22,NA,purple,m_s_105.jpg,NA,NA,pleasant,unpleasant,NA,NA,NA,NA,NA,left,879.09999999404,true,NA,NA,NA,NA,NA
nLp1SUay,3vck0q0pp8rxiiaq9ji6jar3xntn0d,31z0pcvwuosbiqdoigutw83aw77t7b,nLp1SUay,2020-0188,2021-10-17,17:37:13,18:50:27,NA,incomplete,false,true,NA,2,23,NA,purple,m_s_054.jpg,NA,NA,pleasant,unpleasant,NA,NA,NA,NA,NA,right,1113.30000001192,true,NA,NA,NA,NA,NA
nLp1SUay,3vck0q0pp8rxiiaq9ji6jar3xntn0d,31z0pcvwuosbiqdoigutw83aw77t7b,nLp1SUay,2020-0188,2021-10-17,17:37:13,18:50:27,NA,incomplete,false,true,NA,2,24,NA,gray,m_s_102.jpg,NA,NA,pleasant,unpleasant,NA,NA,NA,NA,NA,left,1513.59999999404,true,NA,NA,NA,NA,NA
nLp1SUay,3vck0q0pp8rxiiaq9ji6jar3xntn0d,31z0pcvwuosbiqdoigutw83aw77t7b,nLp1SUay,2020-0188,2021-10-17,17:37:13,18:50:27,NA,incomplete,false,true,NA,2,25,NA,gray,m_s_065.jpg,NA,NA,pleasant,unpleasant,NA,NA,NA,NA,NA,right,1218.19999998808,true,NA,NA,NA,NA,NA
nLp1SUay,3vck0q0pp8rxiiaq9ji6jar3xntn0d,31z0pcvwuosbiqdoigutw83aw77t7b,nLp1SUay,2020-0188,2021-10-17,17:37:13,18:50:27,NA,incomplete,false,true,NA,2,26,NA,gray,m_s_020.jpg,NA,NA,pleasant,unpleasant,NA,NA,NA,NA,NA,left,1108.19999998808,true,NA,NA,NA,NA,NA
nLp1SUay,3vck0q0pp8rxiiaq9ji6jar3xntn0d,31z0pcvwuosbiqdoigutw83aw77t7b,nLp1SUay,2020-0188,2021-10-17,17:37:13,18:50:27,NA,incomplete,false,true,NA,2,27,NA,gray,m_s_055.jpg,NA,NA,pleasant,unpleasant,NA,NA,NA,NA,NA,right,1093.19999998808,true,NA,NA,NA,NA,NA
nLp1SUay,3vck0q0pp8rxiiaq9ji6jar3xntn0d,31z0pcvwuosbiqdoigutw83aw77t7b,nLp1SUay,2020-0188,2021-10-17,17:37:13,18:50:27,NA,incomplete,false,true,NA,2,28,NA,gray,n_s_021.jpg,NA,NA,pleasant,unpleasant,NA,NA,NA,NA,NA,left,955.5,true,NA,NA,NA,NA,NA
nLp1SUay,3vck0q0pp8rxiiaq9ji6jar3xntn0d,31z0pcvwuosbiqdoigutw83aw77t7b,nLp1SUay,2020-0188,2021-10-17,17:37:13,18:50:27,NA,incomplete,false,true,NA,2,29,NA,gray,m_l_087.jpg,NA,NA,unpleasant,pleasant,NA,NA,NA,NA,NA,right,1270.19999998808,true,NA,NA,NA,NA,NA
nLp1SUay,3vck0q0pp8rxiiaq9ji6jar3xntn0d,31z0pcvwuosbiqdoigutw83aw77t7b,nLp1SUay,2020-0188,2021-10-17,17:37:13,18:50:27,NA,incomplete,false,true,NA,2,30,NA,orange,n_s_034.jpg,NA,NA,pleasant,unpleasant,NA,NA,NA,NA,NA,left,1044.30000001192,true,NA,NA,NA,NA,NA
nLp1SUay,3vck0q0pp8rxiiaq9ji6jar3xntn0d,31z0pcvwuosbiqdoigutw83aw77t7b,nLp1SUay,2020-0188,2021-10-17,17:37:13,18:50:27,NA,incomplete,false,true,NA,2,31,NA,orange,n_s_117.jpg,NA,NA,unpleasant,pleasant,NA,NA,NA,NA,NA,left,1121.59999999404,true,NA,NA,NA,NA,NA
nLp1SUay,3vck0q0pp8rxiiaq9ji6jar3xntn0d,31z0pcvwuosbiqdoigutw83aw77t7b,nLp1SUay,2020-0188,2021-10-17,17:37:13,18:50:27,NA,incomplete,false,true,NA,2,32,NA,orange,m_s_080.jpg,NA,NA,pleasant,unpleasant,NA,NA,NA,NA,NA,left,557.299999982119,true,NA,NA,NA,NA,NA
nLp1SUay,3vck0q0pp8rxiiaq9ji6jar3xntn0d,31z0pcvwuosbiqdoigutw83aw77t7b,nLp1SUay,2020-0188,2021-10-17,17:37:13,18:50:27,NA,incomplete,false,true,NA,2,33,NA,orange,n_l_019.jpg,NA,NA,unpleasant,pleasant,NA,NA,NA,NA,NA,right,1694.59999999404,true,NA,NA,NA,NA,NA
nLp1SUay,3vck0q0pp8rxiiaq9ji6jar3xntn0d,31z0pcvwuosbiqdoigutw83aw77t7b,nLp1SUay,2020-0188,2021-10-17,17:37:13,18:50:27,NA,incomplete,false,true,NA,2,34,NA,orange,m_l_076.jpg,NA,NA,pleasant,unpleasant,NA,NA,NA,NA,NA,right,1630.59999999404,true,NA,NA,NA,NA,NA
nLp1SUay,3vck0q0pp8rxiiaq9ji6jar3xntn0d,31z0pcvwuosbiqdoigutw83aw77t7b,nLp1SUay,2020-0188,2021-10-17,17:37:13,18:50:27,NA,incomplete,false,true,NA,2,35,NA,orange,n_l_075.jpg,NA,NA,pleasant,unpleasant,NA,NA,NA,NA,NA,right,1247.59999999404,true,NA,NA,NA,NA,NA
nLp1SUay,3vck0q0pp8rxiiaq9ji6jar3xntn0d,31z0pcvwuosbiqdoigutw83aw77t7b,nLp1SUay,2020-0188,2021-10-17,17:37:13,18:50:27,NA,incomplete,false,NA,true,2,0,NA,NA,NA,right,present,NA,NA,m_l_016.jpg,green,m_s_027.jpg,green,within,NA,NaN,NA,left,4185.9000000059605,0,3,2879.199999988079
nLp1SUay,3vck0q0pp8rxiiaq9ji6jar3xntn0d,31z0pcvwuosbiqdoigutw83aw77t7b,nLp1SUay,2020-0188,2021-10-17,17:37:13,18:50:27,NA,incomplete,false,NA,true,2,1,NA,NA,NA,right,present,NA,NA,m_s_073.jpg,white,m_l_074.jpg,white,within,NA,NaN,NA,right,7956.700000017881,1,3,1990.699999988079
nLp1SUay,3vck0q0pp8rxiiaq9ji6jar3xntn0d,31z0pcvwuosbiqdoigutw83aw77t7b,nLp1SUay,2020-0188,2021-10-17,17:37:13,18:50:27,NA,incomplete,false,NA,true,2,2,NA,NA,NA,right,present,NA,NA,n_s_018.jpg,white,n_l_044.jpg,green,between,NA,NaN,NA,right,4516.199999988079,1,2,1818.699999988079
nLp1SUay,3vck0q0pp8rxiiaq9ji6jar3xntn0d,31z0pcvwuosbiqdoigutw83aw77t7b,nLp1SUay,2020-0188,2021-10-17,17:37:13,18:50:27,NA,incomplete,false,NA,true,2,3,NA,NA,NA,right,present,NA,NA,m_s_080.jpg,orange,n_s_021.jpg,gray,between,NA,NaN,NA,right,2723.5999999940395,1,2,1659.5999999940395
nLp1SUay,3vck0q0pp8rxiiaq9ji6jar3xntn0d,31z0pcvwuosbiqdoigutw83aw77t7b,nLp1SUay,2020-0188,2021-10-17,17:37:13,18:50:27,NA,incomplete,false,NA,true,2,4,NA,NA,NA,right,present,NA,NA,m_l_104.jpg,brown,n_s_023.jpg,white,between,NA,NaN,NA,left,4037.0999999940395,0,2,1739
nLp1SUay,3vck0q0pp8rxiiaq9ji6jar3xntn0d,31z0pcvwuosbiqdoigutw83aw77t7b,nLp1SUay,2020-0188,2021-10-17,17:37:13,18:50:27,NA,incomplete,false,NA,true,2,5,NA,NA,NA,right,present,NA,NA,m_l_087.jpg,gray,m_s_065.jpg,gray,within,NA,NaN,NA,left,7451.299999982119,0,0,3411.4000000059605
nLp1SUay,3vck0q0pp8rxiiaq9ji6jar3xntn0d,31z0pcvwuosbiqdoigutw83aw77t7b,nLp1SUay,2020-0188,2021-10-17,17:37:13,18:50:27,NA,incomplete,false,NA,true,2,6,NA,NA,NA,right,present,NA,NA,m_s_117.jpg,brown,m_l_004.jpg,brown,within,NA,NaN,NA,left,3289.7999999821186,0,3,2107
nLp1SUay,3vck0q0pp8rxiiaq9ji6jar3xntn0d,31z0pcvwuosbiqdoigutw83aw77t7b,nLp1SUay,2020-0188,2021-10-17,17:37:13,18:50:27,NA,incomplete,false,NA,true,2,7,NA,NA,NA,left,present,NA,NA,n_s_093.jpg,purple,m_s_054.jpg,purple,within,NA,NaN,NA,left,14587.300000011921,1,3,1787.0999999940395
nLp1SUay,3vck0q0pp8rxiiaq9ji6jar3xntn0d,31z0pcvwuosbiqdoigutw83aw77t7b,nLp1SUay,2020-0188,2021-10-17,17:37:13,18:50:27,NA,incomplete,false,NA,true,2,8,NA,NA,NA,left,present,NA,NA,n_s_117.jpg,orange,n_l_075.jpg,orange,within,NA,NaN,NA,left,4680.0999999940395,1,3,1152.5
nLp1SUay,3vck0q0pp8rxiiaq9ji6jar3xntn0d,31z0pcvwuosbiqdoigutw83aw77t7b,nLp1SUay,2020-0188,2021-10-17,17:37:13,18:50:27,NA,incomplete,false,NA,true,2,9,NA,NA,NA,right,present,NA,NA,m_s_020.jpg,gray,m_s_105.jpg,purple,between,NA,NaN,NA,left,3819.899999976158,0,2,1372.9000000059605
nLp1SUay,3vck0q0pp8rxiiaq9ji6jar3xntn0d,31z0pcvwuosbiqdoigutw83aw77t7b,nLp1SUay,2020-0188,2021-10-17,17:37:13,18:50:27,NA,incomplete,false,NA,true,2,10,NA,NA,NA,left,present,NA,NA,m_s_056.jpg,brown,n_l_003.jpg,purple,between,NA,NaN,NA,left,2906.7000000178814,1,2,1475.699999988079
nLp1SUay,3vck0q0pp8rxiiaq9ji6jar3xntn0d,31z0pcvwuosbiqdoigutw83aw77t7b,nLp1SUay,2020-0188,2021-10-17,17:37:13,18:50:27,NA,incomplete,false,true,NA,3,0,NA,gray,m_l_059.jpg,NA,NA,pleasant,unpleasant,NA,NA,NA,NA,NA,right,1963.19999998808,true,NA,NA,NA,NA,NA
nLp1SUay,3vck0q0pp8rxiiaq9ji6jar3xntn0d,31z0pcvwuosbiqdoigutw83aw77t7b,nLp1SUay,2020-0188,2021-10-17,17:37:13,18:50:27,NA,incomplete,false,true,NA,3,1,NA,gray,m_l_098.jpg,NA,NA,unpleasant,pleasant,NA,NA,NA,NA,NA,left,1272,true,NA,NA,NA,NA,NA
nLp1SUay,3vck0q0pp8rxiiaq9ji6jar3xntn0d,31z0pcvwuosbiqdoigutw83aw77t7b,nLp1SUay,2020-0188,2021-10-17,17:37:13,18:50:27,NA,incomplete,false,true,NA,3,2,NA,gray,n_s_016.jpg,NA,NA,pleasant,unpleasant,NA,NA,NA,NA,NA,left,1286.5,true,NA,NA,NA,NA,NA
nLp1SUay,3vck0q0pp8rxiiaq9ji6jar3xntn0d,31z0pcvwuosbiqdoigutw83aw77t7b,nLp1SUay,2020-0188,2021-10-17,17:37:13,18:50:27,NA,incomplete,false,true,NA,3,3,NA,gray,m_l_109.jpg,NA,NA,pleasant,unpleasant,NA,NA,NA,NA,NA,left,1091,true,NA,NA,NA,NA,NA
nLp1SUay,3vck0q0pp8rxiiaq9ji6jar3xntn0d,31z0pcvwuosbiqdoigutw83aw77t7b,nLp1SUay,2020-0188,2021-10-17,17:37:13,18:50:27,NA,incomplete,false,true,NA,3,4,NA,gray,n_l_039.jpg,NA,NA,pleasant,unpleasant,NA,NA,NA,NA,NA,left,1072,true,NA,NA,NA,NA,NA
nLp1SUay,3vck0q0pp8rxiiaq9ji6jar3xntn0d,31z0pcvwuosbiqdoigutw83aw77t7b,nLp1SUay,2020-0188,2021-10-17,17:37:13,18:50:27,NA,incomplete,false,true,NA,3,5,NA,gray,n_s_116.jpg,NA,NA,unpleasant,pleasant,NA,NA,NA,NA,NA,right,1176.60000002384,true,NA,NA,NA,NA,NA
nLp1SUay,3vck0q0pp8rxiiaq9ji6jar3xntn0d,31z0pcvwuosbiqdoigutw83aw77t7b,nLp1SUay,2020-0188,2021-10-17,17:37:13,18:50:27,NA,incomplete,false,true,NA,3,6,NA,purple,n_s_073.jpg,NA,NA,pleasant,unpleasant,NA,NA,NA,NA,NA,left,1430.19999998808,true,NA,NA,NA,NA,NA
nLp1SUay,3vck0q0pp8rxiiaq9ji6jar3xntn0d,31z0pcvwuosbiqdoigutw83aw77t7b,nLp1SUay,2020-0188,2021-10-17,17:37:13,18:50:27,NA,incomplete,false,true,NA,3,7,NA,purple,n_s_029.jpg,NA,NA,pleasant,unpleasant,NA,NA,NA,NA,NA,left,1218.89999997616,true,NA,NA,NA,NA,NA
nLp1SUay,3vck0q0pp8rxiiaq9ji6jar3xntn0d,31z0pcvwuosbiqdoigutw83aw77t7b,nLp1SUay,2020-0188,2021-10-17,17:37:13,18:50:27,NA,incomplete,false,true,NA,3,8,NA,purple,n_s_050.jpg,NA,NA,pleasant,unpleasant,NA,NA,NA,NA,NA,left,1349.20000001788,true,NA,NA,NA,NA,NA
nLp1SUay,3vck0q0pp8rxiiaq9ji6jar3xntn0d,31z0pcvwuosbiqdoigutw83aw77t7b,nLp1SUay,2020-0188,2021-10-17,17:37:13,18:50:27,NA,incomplete,false,true,NA,3,9,NA,purple,m_s_022.jpg,NA,NA,unpleasant,pleasant,NA,NA,NA,NA,NA,left,1145.69999998808,true,NA,NA,NA,NA,NA
nLp1SUay,3vck0q0pp8rxiiaq9ji6jar3xntn0d,31z0pcvwuosbiqdoigutw83aw77t7b,nLp1SUay,2020-0188,2021-10-17,17:37:13,18:50:27,NA,incomplete,false,true,NA,3,10,NA,purple,n_s_037.jpg,NA,NA,unpleasant,pleasant,NA,NA,NA,NA,NA,right,1122.30000001192,true,NA,NA,NA,NA,NA
nLp1SUay,3vck0q0pp8rxiiaq9ji6jar3xntn0d,31z0pcvwuosbiqdoigutw83aw77t7b,nLp1SUay,2020-0188,2021-10-17,17:37:13,18:50:27,NA,incomplete,false,true,NA,3,11,NA,purple,m_l_062.jpg,NA,NA,unpleasant,pleasant,NA,NA,NA,NA,NA,right,1225.29999998212,true,NA,NA,NA,NA,NA
nLp1SUay,3vck0q0pp8rxiiaq9ji6jar3xntn0d,31z0pcvwuosbiqdoigutw83aw77t7b,nLp1SUay,2020-0188,2021-10-17,17:37:13,18:50:27,NA,incomplete,false,true,NA,3,12,NA,green,m_s_013.jpg,NA,NA,unpleasant,pleasant,NA,NA,NA,NA,NA,right,1230.90000000596,true,NA,NA,NA,NA,NA
nLp1SUay,3vck0q0pp8rxiiaq9ji6jar3xntn0d,31z0pcvwuosbiqdoigutw83aw77t7b,nLp1SUay,2020-0188,2021-10-17,17:37:13,18:50:27,NA,incomplete,false,true,NA,3,13,NA,green,m_s_032.jpg,NA,NA,unpleasant,pleasant,NA,NA,NA,NA,NA,right,1158,true,NA,NA,NA,NA,NA
nLp1SUay,3vck0q0pp8rxiiaq9ji6jar3xntn0d,31z0pcvwuosbiqdoigutw83aw77t7b,nLp1SUay,2020-0188,2021-10-17,17:37:13,18:50:27,NA,incomplete,false,true,NA,3,14,NA,green,n_l_032.jpg,NA,NA,unpleasant,pleasant,NA,NA,NA,NA,NA,right,1058.90000000596,true,NA,NA,NA,NA,NA
nLp1SUay,3vck0q0pp8rxiiaq9ji6jar3xntn0d,31z0pcvwuosbiqdoigutw83aw77t7b,nLp1SUay,2020-0188,2021-10-17,17:37:13,18:50:27,NA,incomplete,false,true,NA,3,15,NA,green,n_l_047.jpg,NA,NA,unpleasant,pleasant,NA,NA,NA,NA,NA,right,1071.90000000596,true,NA,NA,NA,NA,NA
nLp1SUay,3vck0q0pp8rxiiaq9ji6jar3xntn0d,31z0pcvwuosbiqdoigutw83aw77t7b,nLp1SUay,2020-0188,2021-10-17,17:37:13,18:50:27,NA,incomplete,false,true,NA,3,16,NA,green,n_l_042.jpg,NA,NA,unpleasant,pleasant,NA,NA,NA,NA,NA,right,1239.20000001788,true,NA,NA,NA,NA,NA
nLp1SUay,3vck0q0pp8rxiiaq9ji6jar3xntn0d,31z0pcvwuosbiqdoigutw83aw77t7b,nLp1SUay,2020-0188,2021-10-17,17:37:13,18:50:27,NA,incomplete,false,true,NA,3,17,NA,green,m_l_088.jpg,NA,NA,unpleasant,pleasant,NA,NA,NA,NA,NA,right,1542.89999997616,true,NA,NA,NA,NA,NA
nLp1SUay,3vck0q0pp8rxiiaq9ji6jar3xntn0d,31z0pcvwuosbiqdoigutw83aw77t7b,nLp1SUay,2020-0188,2021-10-17,17:37:13,18:50:27,NA,incomplete,false,true,NA,3,18,NA,orange,m_s_110.jpg,NA,NA,pleasant,unpleasant,NA,NA,NA,NA,NA,right,1390,true,NA,NA,NA,NA,NA
nLp1SUay,3vck0q0pp8rxiiaq9ji6jar3xntn0d,31z0pcvwuosbiqdoigutw83aw77t7b,nLp1SUay,2020-0188,2021-10-17,17:37:13,18:50:27,NA,incomplete,false,true,NA,3,19,NA,orange,n_s_030.jpg,NA,NA,unpleasant,pleasant,NA,NA,NA,NA,NA,right,1278.09999999404,true,NA,NA,NA,NA,NA
nLp1SUay,3vck0q0pp8rxiiaq9ji6jar3xntn0d,31z0pcvwuosbiqdoigutw83aw77t7b,nLp1SUay,2020-0188,2021-10-17,17:37:13,18:50:27,NA,incomplete,false,true,NA,3,20,NA,orange,m_l_064.jpg,NA,NA,unpleasant,pleasant,NA,NA,NA,NA,NA,right,1110,true,NA,NA,NA,NA,NA
nLp1SUay,3vck0q0pp8rxiiaq9ji6jar3xntn0d,31z0pcvwuosbiqdoigutw83aw77t7b,nLp1SUay,2020-0188,2021-10-17,17:37:13,18:50:27,NA,incomplete,false,true,NA,3,21,NA,orange,m_s_100.jpg,NA,NA,unpleasant,pleasant,NA,NA,NA,NA,NA,right,1104.90000000596,true,NA,NA,NA,NA,NA
nLp1SUay,3vck0q0pp8rxiiaq9ji6jar3xntn0d,31z0pcvwuosbiqdoigutw83aw77t7b,nLp1SUay,2020-0188,2021-10-17,17:37:13,18:50:27,NA,incomplete,false,true,NA,3,22,NA,orange,n_l_117.jpg,NA,NA,unpleasant,pleasant,NA,NA,NA,NA,NA,right,1253.20000001788,true,NA,NA,NA,NA,NA
nLp1SUay,3vck0q0pp8rxiiaq9ji6jar3xntn0d,31z0pcvwuosbiqdoigutw83aw77t7b,nLp1SUay,2020-0188,2021-10-17,17:37:13,18:50:27,NA,incomplete,false,true,NA,3,23,NA,orange,n_l_094.jpg,NA,NA,unpleasant,pleasant,NA,NA,NA,NA,NA,right,1001.79999998212,true,NA,NA,NA,NA,NA
nLp1SUay,3vck0q0pp8rxiiaq9ji6jar3xntn0d,31z0pcvwuosbiqdoigutw83aw77t7b,nLp1SUay,2020-0188,2021-10-17,17:37:13,18:50:27,NA,incomplete,false,true,NA,3,24,NA,black,m_s_071.jpg,NA,NA,unpleasant,pleasant,NA,NA,NA,NA,NA,right,1362.29999998212,true,NA,NA,NA,NA,NA
nLp1SUay,3vck0q0pp8rxiiaq9ji6jar3xntn0d,31z0pcvwuosbiqdoigutw83aw77t7b,nLp1SUay,2020-0188,2021-10-17,17:37:13,18:50:27,NA,incomplete,false,true,NA,3,25,NA,black,m_l_033.jpg,NA,NA,pleasant,unpleasant,NA,NA,NA,NA,NA,left,1158.19999998808,true,NA,NA,NA,NA,NA
nLp1SUay,3vck0q0pp8rxiiaq9ji6jar3xntn0d,31z0pcvwuosbiqdoigutw83aw77t7b,nLp1SUay,2020-0188,2021-10-17,17:37:13,18:50:27,NA,incomplete,false,true,NA,3,26,NA,black,n_l_063.jpg,NA,NA,unpleasant,pleasant,NA,NA,NA,NA,NA,left,1619.90000000596,true,NA,NA,NA,NA,NA
nLp1SUay,3vck0q0pp8rxiiaq9ji6jar3xntn0d,31z0pcvwuosbiqdoigutw83aw77t7b,nLp1SUay,2020-0188,2021-10-17,17:37:13,18:50:27,NA,incomplete,false,true,NA,3,27,NA,black,m_l_018.jpg,NA,NA,pleasant,unpleasant,NA,NA,NA,NA,NA,right,1240.80000001192,true,NA,NA,NA,NA,NA
nLp1SUay,3vck0q0pp8rxiiaq9ji6jar3xntn0d,31z0pcvwuosbiqdoigutw83aw77t7b,nLp1SUay,2020-0188,2021-10-17,17:37:13,18:50:27,NA,incomplete,false,true,NA,3,28,NA,black,m_l_115.jpg,NA,NA,unpleasant,pleasant,NA,NA,NA,NA,NA,right,1072,true,NA,NA,NA,NA,NA
nLp1SUay,3vck0q0pp8rxiiaq9ji6jar3xntn0d,31z0pcvwuosbiqdoigutw83aw77t7b,nLp1SUay,2020-0188,2021-10-17,17:37:13,18:50:27,NA,incomplete,false,true,NA,3,29,NA,black,m_l_091.jpg,NA,NA,pleasant,unpleasant,NA,NA,NA,NA,NA,left,1251.29999998212,true,NA,NA,NA,NA,NA
nLp1SUay,3vck0q0pp8rxiiaq9ji6jar3xntn0d,31z0pcvwuosbiqdoigutw83aw77t7b,nLp1SUay,2020-0188,2021-10-17,17:37:13,18:50:27,NA,incomplete,false,true,NA,3,30,NA,blue,n_l_024.jpg,NA,NA,pleasant,unpleasant,NA,NA,NA,NA,NA,left,1237.19999998808,true,NA,NA,NA,NA,NA
nLp1SUay,3vck0q0pp8rxiiaq9ji6jar3xntn0d,31z0pcvwuosbiqdoigutw83aw77t7b,nLp1SUay,2020-0188,2021-10-17,17:37:13,18:50:27,NA,incomplete,false,true,NA,3,31,NA,blue,m_l_024.jpg,NA,NA,unpleasant,pleasant,NA,NA,NA,NA,NA,left,1535.60000002384,true,NA,NA,NA,NA,NA
nLp1SUay,3vck0q0pp8rxiiaq9ji6jar3xntn0d,31z0pcvwuosbiqdoigutw83aw77t7b,nLp1SUay,2020-0188,2021-10-17,17:37:13,18:50:27,NA,incomplete,false,true,NA,3,32,NA,blue,n_s_085.jpg,NA,NA,unpleasant,pleasant,NA,NA,NA,NA,NA,right,968.59999999404,true,NA,NA,NA,NA,NA
nLp1SUay,3vck0q0pp8rxiiaq9ji6jar3xntn0d,31z0pcvwuosbiqdoigutw83aw77t7b,nLp1SUay,2020-0188,2021-10-17,17:37:13,18:50:27,NA,incomplete,false,true,NA,3,33,NA,blue,n_s_092.jpg,NA,NA,pleasant,unpleasant,NA,NA,NA,NA,NA,right,1533,true,NA,NA,NA,NA,NA
nLp1SUay,3vck0q0pp8rxiiaq9ji6jar3xntn0d,31z0pcvwuosbiqdoigutw83aw77t7b,nLp1SUay,2020-0188,2021-10-17,17:37:13,18:50:27,NA,incomplete,false,true,NA,3,34,NA,blue,n_s_006.jpg,NA,NA,unpleasant,pleasant,NA,NA,NA,NA,NA,right,1013.89999997616,true,NA,NA,NA,NA,NA
nLp1SUay,3vck0q0pp8rxiiaq9ji6jar3xntn0d,31z0pcvwuosbiqdoigutw83aw77t7b,nLp1SUay,2020-0188,2021-10-17,17:37:13,18:50:27,NA,incomplete,false,true,NA,3,35,NA,blue,m_l_071.jpg,NA,NA,pleasant,unpleasant,NA,NA,NA,NA,NA,left,1251.70000001788,true,NA,NA,NA,NA,NA
nLp1SUay,3vck0q0pp8rxiiaq9ji6jar3xntn0d,31z0pcvwuosbiqdoigutw83aw77t7b,nLp1SUay,2020-0188,2021-10-17,17:37:13,18:50:27,NA,incomplete,false,NA,true,3,0,NA,NA,NA,left,absent,NA,NA,n_l_042.jpg,green,m_l_064.jpg,orange,between,NA,NaN,NA,right,4021.600000023842,0,3,1740.7000000178814
nLp1SUay,3vck0q0pp8rxiiaq9ji6jar3xntn0d,31z0pcvwuosbiqdoigutw83aw77t7b,nLp1SUay,2020-0188,2021-10-17,17:37:13,18:50:27,NA,incomplete,false,NA,true,3,1,NA,NA,NA,left,absent,NA,NA,m_l_024.jpg,blue,m_l_071.jpg,blue,within,NA,NaN,NA,left,4376.199999988079,1,3,2600.9000000059605
nLp1SUay,3vck0q0pp8rxiiaq9ji6jar3xntn0d,31z0pcvwuosbiqdoigutw83aw77t7b,nLp1SUay,2020-0188,2021-10-17,17:37:13,18:50:27,NA,incomplete,false,NA,true,3,2,NA,NA,NA,left,absent,NA,NA,n_s_029.jpg,purple,m_l_062.jpg,purple,within,NA,NaN,NA,left,2882.300000011921,1,3,1563.2999999821186
nLp1SUay,3vck0q0pp8rxiiaq9ji6jar3xntn0d,31z0pcvwuosbiqdoigutw83aw77t7b,nLp1SUay,2020-0188,2021-10-17,17:37:13,18:50:27,NA,incomplete,false,NA,true,3,3,NA,NA,NA,left,absent,NA,NA,m_l_115.jpg,black,n_s_085.jpg,blue,between,NA,NaN,NA,left,6629,1,3,1606.5
nLp1SUay,3vck0q0pp8rxiiaq9ji6jar3xntn0d,31z0pcvwuosbiqdoigutw83aw77t7b,nLp1SUay,2020-0188,2021-10-17,17:37:13,18:50:27,NA,incomplete,false,NA,true,3,4,NA,NA,NA,right,absent,NA,NA,n_s_116.jpg,gray,m_l_098.jpg,gray,within,NA,NaN,NA,right,2996.5,1,3,1291.800000011921
nLp1SUay,3vck0q0pp8rxiiaq9ji6jar3xntn0d,31z0pcvwuosbiqdoigutw83aw77t7b,nLp1SUay,2020-0188,2021-10-17,17:37:13,18:50:27,NA,incomplete,false,NA,true,3,5,NA,NA,NA,right,absent,NA,NA,n_l_094.jpg,orange,n_s_030.jpg,orange,within,NA,NaN,NA,left,6469.5999999940395,0,3,1425.8999999761581
nLp1SUay,3vck0q0pp8rxiiaq9ji6jar3xntn0d,31z0pcvwuosbiqdoigutw83aw77t7b,nLp1SUay,2020-0188,2021-10-17,17:37:13,18:50:27,NA,incomplete,false,NA,true,3,6,NA,NA,NA,left,absent,NA,NA,n_l_039.jpg,gray,n_s_050.jpg,purple,between,NA,NaN,NA,right,5650.700000017881,0,1,1892.4000000059605
nLp1SUay,3vck0q0pp8rxiiaq9ji6jar3xntn0d,31z0pcvwuosbiqdoigutw83aw77t7b,nLp1SUay,2020-0188,2021-10-17,17:37:13,18:50:27,NA,incomplete,false,NA,true,3,7,NA,NA,NA,left,absent,NA,NA,m_s_032.jpg,green,m_l_088.jpg,green,within,NA,NaN,NA,left,4941.199999988079,1,1,2709
nLp1SUay,3vck0q0pp8rxiiaq9ji6jar3xntn0d,31z0pcvwuosbiqdoigutw83aw77t7b,nLp1SUay,2020-0188,2021-10-17,17:37:13,18:50:27,NA,incomplete,false,NA,true,3,8,NA,NA,NA,right,absent,NA,NA,n_l_063.jpg,black,n_l_117.jpg,orange,between,NA,NaN,NA,right,2194.5,1,1,1844.4000000059605
nLp1SUay,3vck0q0pp8rxiiaq9ji6jar3xntn0d,31z0pcvwuosbiqdoigutw83aw77t7b,nLp1SUay,2020-0188,2021-10-17,17:37:13,18:50:27,NA,incomplete,false,NA,true,3,9,NA,NA,NA,right,absent,NA,NA,m_l_091.jpg,black,m_l_033.jpg,black,within,NA,NaN,NA,right,4109.200000017881,1,1,1599.300000011921
nLp1SUay,3vck0q0pp8rxiiaq9ji6jar3xntn0d,31z0pcvwuosbiqdoigutw83aw77t7b,nLp1SUay,2020-0188,2021-10-17,17:37:13,18:50:27,NA,incomplete,false,NA,true,3,10,NA,NA,NA,left,absent,NA,NA,n_s_037.jpg,purple,n_l_032.jpg,green,between,NA,NaN,NA,right,5882.5999999940395,0,1,2091.800000011921
nLp1SUay,3vck0q0pp8rxiiaq9ji6jar3xntn0d,31z0pcvwuosbiqdoigutw83aw77t7b,nLp1SUay,2020-0188,2021-10-17,17:37:13,18:50:27,NA,incomplete,false,true,NA,4,0,NA,white,m_l_034.jpg,NA,NA,unpleasant,pleasant,NA,NA,NA,NA,NA,right,1315,true,NA,NA,NA,NA,NA
nLp1SUay,3vck0q0pp8rxiiaq9ji6jar3xntn0d,31z0pcvwuosbiqdoigutw83aw77t7b,nLp1SUay,2020-0188,2021-10-17,17:37:13,18:50:27,NA,incomplete,false,true,NA,4,1,NA,white,m_l_026.jpg,NA,NA,pleasant,unpleasant,NA,NA,NA,NA,NA,left,1146.30000001192,true,NA,NA,NA,NA,NA
nLp1SUay,3vck0q0pp8rxiiaq9ji6jar3xntn0d,31z0pcvwuosbiqdoigutw83aw77t7b,nLp1SUay,2020-0188,2021-10-17,17:37:13,18:50:27,NA,incomplete,false,true,NA,4,2,NA,white,n_s_051.jpg,NA,NA,pleasant,unpleasant,NA,NA,NA,NA,NA,left,1267.10000002384,true,NA,NA,NA,NA,NA
nLp1SUay,3vck0q0pp8rxiiaq9ji6jar3xntn0d,31z0pcvwuosbiqdoigutw83aw77t7b,nLp1SUay,2020-0188,2021-10-17,17:37:13,18:50:27,NA,incomplete,false,true,NA,4,3,NA,white,n_s_059.jpg,NA,NA,unpleasant,pleasant,NA,NA,NA,NA,NA,right,1437.09999999404,true,NA,NA,NA,NA,NA
nLp1SUay,3vck0q0pp8rxiiaq9ji6jar3xntn0d,31z0pcvwuosbiqdoigutw83aw77t7b,nLp1SUay,2020-0188,2021-10-17,17:37:13,18:50:27,NA,incomplete,false,true,NA,4,4,NA,white,n_s_069.jpg,NA,NA,unpleasant,pleasant,NA,NA,NA,NA,NA,right,1129,true,NA,NA,NA,NA,NA
nLp1SUay,3vck0q0pp8rxiiaq9ji6jar3xntn0d,31z0pcvwuosbiqdoigutw83aw77t7b,nLp1SUay,2020-0188,2021-10-17,17:37:13,18:50:27,NA,incomplete,false,true,NA,4,5,NA,white,n_l_052.jpg,NA,NA,unpleasant,pleasant,NA,NA,NA,NA,NA,right,1170.40000000596,true,NA,NA,NA,NA,NA
nLp1SUay,3vck0q0pp8rxiiaq9ji6jar3xntn0d,31z0pcvwuosbiqdoigutw83aw77t7b,nLp1SUay,2020-0188,2021-10-17,17:37:13,18:50:27,NA,incomplete,false,true,NA,4,6,NA,green,n_l_060.jpg,NA,NA,pleasant,unpleasant,NA,NA,NA,NA,NA,left,1530.19999998808,true,NA,NA,NA,NA,NA
nLp1SUay,3vck0q0pp8rxiiaq9ji6jar3xntn0d,31z0pcvwuosbiqdoigutw83aw77t7b,nLp1SUay,2020-0188,2021-10-17,17:37:13,18:50:27,NA,incomplete,false,true,NA,4,7,NA,green,n_l_100.jpg,NA,NA,unpleasant,pleasant,NA,NA,NA,NA,NA,right,1132.10000002384,true,NA,NA,NA,NA,NA
nLp1SUay,3vck0q0pp8rxiiaq9ji6jar3xntn0d,31z0pcvwuosbiqdoigutw83aw77t7b,nLp1SUay,2020-0188,2021-10-17,17:37:13,18:50:27,NA,incomplete,false,true,NA,4,8,NA,green,m_l_077.jpg,NA,NA,unpleasant,pleasant,NA,NA,NA,NA,NA,right,1007.19999998808,true,NA,NA,NA,NA,NA
nLp1SUay,3vck0q0pp8rxiiaq9ji6jar3xntn0d,31z0pcvwuosbiqdoigutw83aw77t7b,nLp1SUay,2020-0188,2021-10-17,17:37:13,18:50:27,NA,incomplete,false,true,NA,4,9,NA,green,m_l_050.jpg,NA,NA,unpleasant,pleasant,NA,NA,NA,NA,NA,right,1103.90000000596,true,NA,NA,NA,NA,NA
nLp1SUay,3vck0q0pp8rxiiaq9ji6jar3xntn0d,31z0pcvwuosbiqdoigutw83aw77t7b,nLp1SUay,2020-0188,2021-10-17,17:37:13,18:50:27,NA,incomplete,false,true,NA,4,10,NA,green,m_l_096.jpg,NA,NA,pleasant,unpleasant,NA,NA,NA,NA,NA,left,1167.30000001192,true,NA,NA,NA,NA,NA
nLp1SUay,3vck0q0pp8rxiiaq9ji6jar3xntn0d,31z0pcvwuosbiqdoigutw83aw77t7b,nLp1SUay,2020-0188,2021-10-17,17:37:13,18:50:27,NA,incomplete,false,true,NA,4,11,NA,green,m_l_029.jpg,NA,NA,pleasant,unpleasant,NA,NA,NA,NA,NA,left,1326.09999999404,true,NA,NA,NA,NA,NA
nLp1SUay,3vck0q0pp8rxiiaq9ji6jar3xntn0d,31z0pcvwuosbiqdoigutw83aw77t7b,nLp1SUay,2020-0188,2021-10-17,17:37:13,18:50:27,NA,incomplete,false,true,NA,4,12,NA,blue,m_l_073.jpg,NA,NA,pleasant,unpleasant,NA,NA,NA,NA,NA,left,1401.29999998212,true,NA,NA,NA,NA,NA
nLp1SUay,3vck0q0pp8rxiiaq9ji6jar3xntn0d,31z0pcvwuosbiqdoigutw83aw77t7b,nLp1SUay,2020-0188,2021-10-17,17:37:13,18:50:27,NA,incomplete,false,true,NA,4,13,NA,blue,n_l_057.jpg,NA,NA,pleasant,unpleasant,NA,NA,NA,NA,NA,left,1174.10000002384,true,NA,NA,NA,NA,NA
nLp1SUay,3vck0q0pp8rxiiaq9ji6jar3xntn0d,31z0pcvwuosbiqdoigutw83aw77t7b,nLp1SUay,2020-0188,2021-10-17,17:37:13,18:50:27,NA,incomplete,false,true,NA,4,14,NA,blue,m_s_068.jpg,NA,NA,pleasant,unpleasant,NA,NA,NA,NA,NA,left,1071,true,NA,NA,NA,NA,NA
nLp1SUay,3vck0q0pp8rxiiaq9ji6jar3xntn0d,31z0pcvwuosbiqdoigutw83aw77t7b,nLp1SUay,2020-0188,2021-10-17,17:37:13,18:50:27,NA,incomplete,false,true,NA,4,15,NA,blue,m_l_061.jpg,NA,NA,unpleasant,pleasant,NA,NA,NA,NA,NA,right,1373.90000000596,true,NA,NA,NA,NA,NA
nLp1SUay,3vck0q0pp8rxiiaq9ji6jar3xntn0d,31z0pcvwuosbiqdoigutw83aw77t7b,nLp1SUay,2020-0188,2021-10-17,17:37:13,18:50:27,NA,incomplete,false,true,NA,4,16,NA,blue,m_s_108.jpg,NA,NA,pleasant,unpleasant,NA,NA,NA,NA,NA,left,1733.40000000596,true,NA,NA,NA,NA,NA
nLp1SUay,3vck0q0pp8rxiiaq9ji6jar3xntn0d,31z0pcvwuosbiqdoigutw83aw77t7b,nLp1SUay,2020-0188,2021-10-17,17:37:13,18:50:27,NA,incomplete,false,true,NA,4,17,NA,blue,m_l_092.jpg,NA,NA,unpleasant,pleasant,NA,NA,NA,NA,NA,right,1239.29999998212,true,NA,NA,NA,NA,NA
nLp1SUay,3vck0q0pp8rxiiaq9ji6jar3xntn0d,31z0pcvwuosbiqdoigutw83aw77t7b,nLp1SUay,2020-0188,2021-10-17,17:37:13,18:50:27,NA,incomplete,false,true,NA,4,18,NA,gray,n_s_026.jpg,NA,NA,unpleasant,pleasant,NA,NA,NA,NA,NA,left,1220.5,true,NA,NA,NA,NA,NA
nLp1SUay,3vck0q0pp8rxiiaq9ji6jar3xntn0d,31z0pcvwuosbiqdoigutw83aw77t7b,nLp1SUay,2020-0188,2021-10-17,17:37:13,18:50:27,NA,incomplete,false,true,NA,4,19,NA,gray,n_l_093.jpg,NA,NA,unpleasant,pleasant,NA,NA,NA,NA,NA,left,1639.19999998808,true,NA,NA,NA,NA,NA
nLp1SUay,3vck0q0pp8rxiiaq9ji6jar3xntn0d,31z0pcvwuosbiqdoigutw83aw77t7b,nLp1SUay,2020-0188,2021-10-17,17:37:13,18:50:27,NA,incomplete,false,true,NA,4,20,NA,gray,n_s_024.jpg,NA,NA,unpleasant,pleasant,NA,NA,NA,NA,NA,right,1156.69999998808,true,NA,NA,NA,NA,NA
nLp1SUay,3vck0q0pp8rxiiaq9ji6jar3xntn0d,31z0pcvwuosbiqdoigutw83aw77t7b,nLp1SUay,2020-0188,2021-10-17,17:37:13,18:50:27,NA,incomplete,false,true,NA,4,21,NA,gray,n_s_076.jpg,NA,NA,pleasant,unpleasant,NA,NA,NA,NA,NA,right,1219.59999999404,true,NA,NA,NA,NA,NA
nLp1SUay,3vck0q0pp8rxiiaq9ji6jar3xntn0d,31z0pcvwuosbiqdoigutw83aw77t7b,nLp1SUay,2020-0188,2021-10-17,17:37:13,18:50:27,NA,incomplete,false,true,NA,4,22,NA,gray,m_s_082.jpg,NA,NA,unpleasant,pleasant,NA,NA,NA,NA,NA,right,1391,true,NA,NA,NA,NA,NA
nLp1SUay,3vck0q0pp8rxiiaq9ji6jar3xntn0d,31z0pcvwuosbiqdoigutw83aw77t7b,nLp1SUay,2020-0188,2021-10-17,17:37:13,18:50:27,NA,incomplete,false,true,NA,4,23,NA,gray,n_s_027.jpg,NA,NA,pleasant,unpleasant,NA,NA,NA,NA,NA,left,1320,true,NA,NA,NA,NA,NA
nLp1SUay,3vck0q0pp8rxiiaq9ji6jar3xntn0d,31z0pcvwuosbiqdoigutw83aw77t7b,nLp1SUay,2020-0188,2021-10-17,17:37:13,18:50:27,NA,incomplete,false,true,NA,4,24,NA,orange,n_l_111.jpg,NA,NA,pleasant,unpleasant,NA,NA,NA,NA,NA,left,1453.09999999404,true,NA,NA,NA,NA,NA
nLp1SUay,3vck0q0pp8rxiiaq9ji6jar3xntn0d,31z0pcvwuosbiqdoigutw83aw77t7b,nLp1SUay,2020-0188,2021-10-17,17:37:13,18:50:27,NA,incomplete,false,true,NA,4,25,NA,orange,m_s_049.jpg,NA,NA,pleasant,unpleasant,NA,NA,NA,NA,NA,left,972.5,true,NA,NA,NA,NA,NA
nLp1SUay,3vck0q0pp8rxiiaq9ji6jar3xntn0d,31z0pcvwuosbiqdoigutw83aw77t7b,nLp1SUay,2020-0188,2021-10-17,17:37:13,18:50:27,NA,incomplete,false,true,NA,4,26,NA,orange,m_l_066.jpg,NA,NA,unpleasant,pleasant,NA,NA,NA,NA,NA,left,1718.70000001788,true,NA,NA,NA,NA,NA
nLp1SUay,3vck0q0pp8rxiiaq9ji6jar3xntn0d,31z0pcvwuosbiqdoigutw83aw77t7b,nLp1SUay,2020-0188,2021-10-17,17:37:13,18:50:27,NA,incomplete,false,true,NA,4,27,NA,orange,n_s_049.jpg,NA,NA,unpleasant,pleasant,NA,NA,NA,NA,NA,left,1392.40000000596,true,NA,NA,NA,NA,NA
nLp1SUay,3vck0q0pp8rxiiaq9ji6jar3xntn0d,31z0pcvwuosbiqdoigutw83aw77t7b,nLp1SUay,2020-0188,2021-10-17,17:37:13,18:50:27,NA,incomplete,false,true,NA,4,28,NA,orange,m_s_085.jpg,NA,NA,unpleasant,pleasant,NA,NA,NA,NA,NA,right,1202.80000001192,true,NA,NA,NA,NA,NA
nLp1SUay,3vck0q0pp8rxiiaq9ji6jar3xntn0d,31z0pcvwuosbiqdoigutw83aw77t7b,nLp1SUay,2020-0188,2021-10-17,17:37:13,18:50:27,NA,incomplete,false,true,NA,4,29,NA,orange,m_l_055.jpg,NA,NA,pleasant,unpleasant,NA,NA,NA,NA,NA,right,1362.90000000596,true,NA,NA,NA,NA,NA
nLp1SUay,3vck0q0pp8rxiiaq9ji6jar3xntn0d,31z0pcvwuosbiqdoigutw83aw77t7b,nLp1SUay,2020-0188,2021-10-17,17:37:13,18:50:27,NA,incomplete,false,true,NA,4,30,NA,brown,m_l_107.jpg,NA,NA,unpleasant,pleasant,NA,NA,NA,NA,NA,left,1465.59999999404,true,NA,NA,NA,NA,NA
nLp1SUay,3vck0q0pp8rxiiaq9ji6jar3xntn0d,31z0pcvwuosbiqdoigutw83aw77t7b,nLp1SUay,2020-0188,2021-10-17,17:37:13,18:50:27,NA,incomplete,false,true,NA,4,31,NA,brown,n_s_080.jpg,NA,NA,unpleasant,pleasant,NA,NA,NA,NA,NA,left,1097.40000000596,true,NA,NA,NA,NA,NA
nLp1SUay,3vck0q0pp8rxiiaq9ji6jar3xntn0d,31z0pcvwuosbiqdoigutw83aw77t7b,nLp1SUay,2020-0188,2021-10-17,17:37:13,18:50:27,NA,incomplete,false,true,NA,4,32,NA,brown,m_l_005.jpg,NA,NA,pleasant,unpleasant,NA,NA,NA,NA,NA,left,1273.5,true,NA,NA,NA,NA,NA
nLp1SUay,3vck0q0pp8rxiiaq9ji6jar3xntn0d,31z0pcvwuosbiqdoigutw83aw77t7b,nLp1SUay,2020-0188,2021-10-17,17:37:13,18:50:27,NA,incomplete,false,true,NA,4,33,NA,brown,m_s_079.jpg,NA,NA,unpleasant,pleasant,NA,NA,NA,NA,NA,right,1051.59999999404,true,NA,NA,NA,NA,NA
nLp1SUay,3vck0q0pp8rxiiaq9ji6jar3xntn0d,31z0pcvwuosbiqdoigutw83aw77t7b,nLp1SUay,2020-0188,2021-10-17,17:37:13,18:50:27,NA,incomplete,false,true,NA,4,34,NA,brown,n_s_109.jpg,NA,NA,pleasant,unpleasant,NA,NA,NA,NA,NA,right,1292.5,true,NA,NA,NA,NA,NA
nLp1SUay,3vck0q0pp8rxiiaq9ji6jar3xntn0d,31z0pcvwuosbiqdoigutw83aw77t7b,nLp1SUay,2020-0188,2021-10-17,17:37:13,18:50:27,NA,incomplete,false,true,NA,4,35,NA,brown,m_s_035.jpg,NA,NA,unpleasant,pleasant,NA,NA,NA,NA,NA,right,964.40000000596,true,NA,NA,NA,NA,NA
nLp1SUay,3vck0q0pp8rxiiaq9ji6jar3xntn0d,31z0pcvwuosbiqdoigutw83aw77t7b,nLp1SUay,2020-0188,2021-10-17,17:37:13,18:50:27,NA,incomplete,false,NA,true,4,0,NA,NA,NA,right,present,NA,NA,n_s_027.jpg,gray,n_l_093.jpg,gray,within,NA,NaN,NA,left,6820.4000000059605,0,1,2125.2000000178814
nLp1SUay,3vck0q0pp8rxiiaq9ji6jar3xntn0d,31z0pcvwuosbiqdoigutw83aw77t7b,nLp1SUay,2020-0188,2021-10-17,17:37:13,18:50:27,NA,incomplete,false,NA,true,4,1,NA,NA,NA,left,present,NA,NA,m_l_096.jpg,green,m_s_068.jpg,blue,between,NA,NaN,NA,left,4474.200000017881,1,2,1740
nLp1SUay,3vck0q0pp8rxiiaq9ji6jar3xntn0d,31z0pcvwuosbiqdoigutw83aw77t7b,nLp1SUay,2020-0188,2021-10-17,17:37:13,18:50:27,NA,incomplete,false,NA,true,4,2,NA,NA,NA,right,present,NA,NA,m_l_066.jpg,orange,m_s_082.jpg,gray,between,NA,NaN,NA,left,6401.799999982119,0,2,1537.300000011921
nLp1SUay,3vck0q0pp8rxiiaq9ji6jar3xntn0d,31z0pcvwuosbiqdoigutw83aw77t7b,nLp1SUay,2020-0188,2021-10-17,17:37:13,18:50:27,NA,incomplete,false,NA,true,4,3,NA,NA,NA,right,present,NA,NA,m_l_029.jpg,green,n_l_100.jpg,green,within,NA,NaN,NA,left,2833.9000000059605,0,0,2919.7999999821186
nLp1SUay,3vck0q0pp8rxiiaq9ji6jar3xntn0d,31z0pcvwuosbiqdoigutw83aw77t7b,nLp1SUay,2020-0188,2021-10-17,17:37:13,18:50:27,NA,incomplete,false,NA,true,4,4,NA,NA,NA,right,present,NA,NA,n_l_052.jpg,white,m_l_026.jpg,white,within,NA,NaN,NA,right,3281.5,1,0,2609.800000011921
nLp1SUay,3vck0q0pp8rxiiaq9ji6jar3xntn0d,31z0pcvwuosbiqdoigutw83aw77t7b,nLp1SUay,2020-0188,2021-10-17,17:37:13,18:50:27,NA,incomplete,false,NA,true,4,5,NA,NA,NA,left,present,NA,NA,n_l_057.jpg,blue,m_l_092.jpg,blue,within,NA,NaN,NA,right,2794.300000011921,0,0,2699.5
nLp1SUay,3vck0q0pp8rxiiaq9ji6jar3xntn0d,31z0pcvwuosbiqdoigutw83aw77t7b,nLp1SUay,2020-0188,2021-10-17,17:37:13,18:50:27,NA,incomplete,false,NA,true,4,6,NA,NA,NA,right,present,NA,NA,m_l_055.jpg,orange,m_s_049.jpg,orange,within,NA,NaN,NA,right,2724.7000000178814,1,0,3394.800000011921
nLp1SUay,3vck0q0pp8rxiiaq9ji6jar3xntn0d,31z0pcvwuosbiqdoigutw83aw77t7b,nLp1SUay,2020-0188,2021-10-17,17:37:13,18:50:27,NA,incomplete,false,NA,true,4,7,NA,NA,NA,right,present,NA,NA,m_l_005.jpg,brown,m_s_085.jpg,orange,between,NA,NaN,NA,right,5197.5999999940395,1,2,2219.2000000178814
nLp1SUay,3vck0q0pp8rxiiaq9ji6jar3xntn0d,31z0pcvwuosbiqdoigutw83aw77t7b,nLp1SUay,2020-0188,2021-10-17,17:37:13,18:50:27,NA,incomplete,false,NA,true,4,8,NA,NA,NA,left,present,NA,NA,n_s_080.jpg,brown,m_s_035.jpg,brown,within,NA,NaN,NA,left,3506.5,1,0,2411.7000000178814
nLp1SUay,3vck0q0pp8rxiiaq9ji6jar3xntn0d,31z0pcvwuosbiqdoigutw83aw77t7b,nLp1SUay,2020-0188,2021-10-17,17:37:13,18:50:27,NA,incomplete,false,NA,true,4,9,NA,NA,NA,right,present,NA,NA,n_s_024.jpg,gray,m_s_108.jpg,blue,between,NA,NaN,NA,left,3250.199999988079,0,2,2033.5999999940395
nLp1SUay,3vck0q0pp8rxiiaq9ji6jar3xntn0d,31z0pcvwuosbiqdoigutw83aw77t7b,nLp1SUay,2020-0188,2021-10-17,17:37:13,18:50:27,NA,incomplete,false,NA,true,4,10,NA,NA,NA,left,present,NA,NA,n_s_069.jpg,white,m_l_077.jpg,green,between,NA,NaN,NA,right,5488,0,2,1250.5999999940395
nLp1SUay,3vck0q0pp8rxiiaq9ji6jar3xntn0d,31z0pcvwuosbiqdoigutw83aw77t7b,nLp1SUay,2020-0188,2021-10-17,17:37:13,18:50:27,NA,incomplete,false,true,NA,5,0,NA,purple,m_s_017.jpg,NA,NA,pleasant,unpleasant,NA,NA,NA,NA,NA,left,1999.59999999404,true,NA,NA,NA,NA,NA
nLp1SUay,3vck0q0pp8rxiiaq9ji6jar3xntn0d,31z0pcvwuosbiqdoigutw83aw77t7b,nLp1SUay,2020-0188,2021-10-17,17:37:13,18:50:27,NA,incomplete,false,true,NA,5,1,NA,purple,n_s_091.jpg,NA,NA,pleasant,unpleasant,NA,NA,NA,NA,NA,left,1334.40000000596,true,NA,NA,NA,NA,NA
nLp1SUay,3vck0q0pp8rxiiaq9ji6jar3xntn0d,31z0pcvwuosbiqdoigutw83aw77t7b,nLp1SUay,2020-0188,2021-10-17,17:37:13,18:50:27,NA,incomplete,false,true,NA,5,2,NA,purple,m_s_095.jpg,NA,NA,pleasant,unpleasant,NA,NA,NA,NA,NA,left,1270.29999998212,true,NA,NA,NA,NA,NA
nLp1SUay,3vck0q0pp8rxiiaq9ji6jar3xntn0d,31z0pcvwuosbiqdoigutw83aw77t7b,nLp1SUay,2020-0188,2021-10-17,17:37:13,18:50:27,NA,incomplete,false,true,NA,5,3,NA,purple,n_s_067.jpg,NA,NA,pleasant,unpleasant,NA,NA,NA,NA,NA,left,956.90000000596,true,NA,NA,NA,NA,NA
nLp1SUay,3vck0q0pp8rxiiaq9ji6jar3xntn0d,31z0pcvwuosbiqdoigutw83aw77t7b,nLp1SUay,2020-0188,2021-10-17,17:37:13,18:50:27,NA,incomplete,false,true,NA,5,4,NA,purple,m_l_017.jpg,NA,NA,unpleasant,pleasant,NA,NA,NA,NA,NA,left,1300.09999999404,true,NA,NA,NA,NA,NA
nLp1SUay,3vck0q0pp8rxiiaq9ji6jar3xntn0d,31z0pcvwuosbiqdoigutw83aw77t7b,nLp1SUay,2020-0188,2021-10-17,17:37:13,18:50:27,NA,incomplete,false,true,NA,5,5,NA,purple,m_l_082.jpg,NA,NA,pleasant,unpleasant,NA,NA,NA,NA,NA,right,1169.39999997616,true,NA,NA,NA,NA,NA
nLp1SUay,3vck0q0pp8rxiiaq9ji6jar3xntn0d,31z0pcvwuosbiqdoigutw83aw77t7b,nLp1SUay,2020-0188,2021-10-17,17:37:13,18:50:27,NA,incomplete,false,true,NA,5,6,NA,blue,m_s_046.jpg,NA,NA,pleasant,unpleasant,NA,NA,NA,NA,NA,left,1092.10000002384,true,NA,NA,NA,NA,NA
nLp1SUay,3vck0q0pp8rxiiaq9ji6jar3xntn0d,31z0pcvwuosbiqdoigutw83aw77t7b,nLp1SUay,2020-0188,2021-10-17,17:37:13,18:50:27,NA,incomplete,false,true,NA,5,7,NA,blue,n_s_011.jpg,NA,NA,pleasant,unpleasant,NA,NA,NA,NA,NA,right,1499.90000000596,true,NA,NA,NA,NA,NA
nLp1SUay,3vck0q0pp8rxiiaq9ji6jar3xntn0d,31z0pcvwuosbiqdoigutw83aw77t7b,nLp1SUay,2020-0188,2021-10-17,17:37:13,18:50:27,NA,incomplete,false,true,NA,5,8,NA,blue,m_s_072.jpg,NA,NA,unpleasant,pleasant,NA,NA,NA,NA,NA,right,1228,true,NA,NA,NA,NA,NA
nLp1SUay,3vck0q0pp8rxiiaq9ji6jar3xntn0d,31z0pcvwuosbiqdoigutw83aw77t7b,nLp1SUay,2020-0188,2021-10-17,17:37:13,18:50:27,NA,incomplete,false,true,NA,5,9,NA,blue,m_s_076.jpg,NA,NA,unpleasant,pleasant,NA,NA,NA,NA,NA,right,1221.40000000596,true,NA,NA,NA,NA,NA
nLp1SUay,3vck0q0pp8rxiiaq9ji6jar3xntn0d,31z0pcvwuosbiqdoigutw83aw77t7b,nLp1SUay,2020-0188,2021-10-17,17:37:13,18:50:27,NA,incomplete,false,true,NA,5,10,NA,blue,n_s_058.jpg,NA,NA,unpleasant,pleasant,NA,NA,NA,NA,NA,right,1251.09999999404,true,NA,NA,NA,NA,NA
nLp1SUay,3vck0q0pp8rxiiaq9ji6jar3xntn0d,31z0pcvwuosbiqdoigutw83aw77t7b,nLp1SUay,2020-0188,2021-10-17,17:37:13,18:50:27,NA,incomplete,false,true,NA,5,11,NA,blue,m_l_013.jpg,NA,NA,unpleasant,pleasant,NA,NA,NA,NA,NA,right,1104,true,NA,NA,NA,NA,NA
nLp1SUay,3vck0q0pp8rxiiaq9ji6jar3xntn0d,31z0pcvwuosbiqdoigutw83aw77t7b,nLp1SUay,2020-0188,2021-10-17,17:37:13,18:50:27,NA,incomplete,false,true,NA,5,12,NA,orange,n_l_002.jpg,NA,NA,unpleasant,pleasant,NA,NA,NA,NA,NA,right,1410.20000001788,true,NA,NA,NA,NA,NA
nLp1SUay,3vck0q0pp8rxiiaq9ji6jar3xntn0d,31z0pcvwuosbiqdoigutw83aw77t7b,nLp1SUay,2020-0188,2021-10-17,17:37:13,18:50:27,NA,incomplete,false,true,NA,5,13,NA,orange,m_s_103.jpg,NA,NA,unpleasant,pleasant,NA,NA,NA,NA,NA,right,971.799999982119,true,NA,NA,NA,NA,NA
nLp1SUay,3vck0q0pp8rxiiaq9ji6jar3xntn0d,31z0pcvwuosbiqdoigutw83aw77t7b,nLp1SUay,2020-0188,2021-10-17,17:37:13,18:50:27,NA,incomplete,false,true,NA,5,14,NA,orange,n_l_014.jpg,NA,NA,pleasant,unpleasant,NA,NA,NA,NA,NA,right,1250.79999998212,true,NA,NA,NA,NA,NA
nLp1SUay,3vck0q0pp8rxiiaq9ji6jar3xntn0d,31z0pcvwuosbiqdoigutw83aw77t7b,nLp1SUay,2020-0188,2021-10-17,17:37:13,18:50:27,NA,incomplete,false,true,NA,5,15,NA,orange,n_s_111.jpg,NA,NA,unpleasant,pleasant,NA,NA,NA,NA,NA,right,1097,true,NA,NA,NA,NA,NA
nLp1SUay,3vck0q0pp8rxiiaq9ji6jar3xntn0d,31z0pcvwuosbiqdoigutw83aw77t7b,nLp1SUay,2020-0188,2021-10-17,17:37:13,18:50:27,NA,incomplete,false,true,NA,5,16,NA,orange,n_l_004.jpg,NA,NA,unpleasant,pleasant,NA,NA,NA,NA,NA,right,1116.90000000596,true,NA,NA,NA,NA,NA
nLp1SUay,3vck0q0pp8rxiiaq9ji6jar3xntn0d,31z0pcvwuosbiqdoigutw83aw77t7b,nLp1SUay,2020-0188,2021-10-17,17:37:13,18:50:27,NA,incomplete,false,true,NA,5,17,NA,orange,n_l_099.jpg,NA,NA,pleasant,unpleasant,NA,NA,NA,NA,NA,right,1374.30000001192,true,NA,NA,NA,NA,NA
nLp1SUay,3vck0q0pp8rxiiaq9ji6jar3xntn0d,31z0pcvwuosbiqdoigutw83aw77t7b,nLp1SUay,2020-0188,2021-10-17,17:37:13,18:50:27,NA,incomplete,false,true,NA,5,18,NA,yellow,m_l_110.jpg,NA,NA,pleasant,unpleasant,NA,NA,NA,NA,NA,right,1412.80000001192,true,NA,NA,NA,NA,NA
nLp1SUay,3vck0q0pp8rxiiaq9ji6jar3xntn0d,31z0pcvwuosbiqdoigutw83aw77t7b,nLp1SUay,2020-0188,2021-10-17,17:37:13,18:50:27,NA,incomplete,false,true,NA,5,19,NA,yellow,n_s_082.jpg,NA,NA,pleasant,unpleasant,NA,NA,NA,NA,NA,left,1273.79999998212,true,NA,NA,NA,NA,NA
nLp1SUay,3vck0q0pp8rxiiaq9ji6jar3xntn0d,31z0pcvwuosbiqdoigutw83aw77t7b,nLp1SUay,2020-0188,2021-10-17,17:37:13,18:50:27,NA,incomplete,false,true,NA,5,20,NA,yellow,n_s_079.jpg,NA,NA,unpleasant,pleasant,NA,NA,NA,NA,NA,right,1183,true,NA,NA,NA,NA,NA
nLp1SUay,3vck0q0pp8rxiiaq9ji6jar3xntn0d,31z0pcvwuosbiqdoigutw83aw77t7b,nLp1SUay,2020-0188,2021-10-17,17:37:13,18:50:27,NA,incomplete,false,true,NA,5,21,NA,yellow,m_l_028.jpg,NA,NA,unpleasant,pleasant,NA,NA,NA,NA,NA,right,1071.80000001192,true,NA,NA,NA,NA,NA
nLp1SUay,3vck0q0pp8rxiiaq9ji6jar3xntn0d,31z0pcvwuosbiqdoigutw83aw77t7b,nLp1SUay,2020-0188,2021-10-17,17:37:13,18:50:27,NA,incomplete,false,true,NA,5,22,NA,yellow,m_s_042.jpg,NA,NA,unpleasant,pleasant,NA,NA,NA,NA,NA,right,899.59999999404,true,NA,NA,NA,NA,NA
nLp1SUay,3vck0q0pp8rxiiaq9ji6jar3xntn0d,31z0pcvwuosbiqdoigutw83aw77t7b,nLp1SUay,2020-0188,2021-10-17,17:37:13,18:50:27,NA,incomplete,false,true,NA,5,23,NA,yellow,m_s_097.jpg,NA,NA,pleasant,unpleasant,NA,NA,NA,NA,NA,right,1410.59999999404,true,NA,NA,NA,NA,NA
nLp1SUay,3vck0q0pp8rxiiaq9ji6jar3xntn0d,31z0pcvwuosbiqdoigutw83aw77t7b,nLp1SUay,2020-0188,2021-10-17,17:37:13,18:50:27,NA,incomplete,false,true,NA,5,24,NA,red,m_s_006.jpg,NA,NA,pleasant,unpleasant,NA,NA,NA,NA,NA,left,1396.30000001192,true,NA,NA,NA,NA,NA
nLp1SUay,3vck0q0pp8rxiiaq9ji6jar3xntn0d,31z0pcvwuosbiqdoigutw83aw77t7b,nLp1SUay,2020-0188,2021-10-17,17:37:13,18:50:27,NA,incomplete,false,true,NA,5,25,NA,red,n_s_078.jpg,NA,NA,pleasant,unpleasant,NA,NA,NA,NA,NA,right,1470.09999999404,true,NA,NA,NA,NA,NA
nLp1SUay,3vck0q0pp8rxiiaq9ji6jar3xntn0d,31z0pcvwuosbiqdoigutw83aw77t7b,nLp1SUay,2020-0188,2021-10-17,17:37:13,18:50:27,NA,incomplete,false,true,NA,5,26,NA,red,n_l_070.jpg,NA,NA,unpleasant,pleasant,NA,NA,NA,NA,NA,right,1157.09999999404,true,NA,NA,NA,NA,NA
nLp1SUay,3vck0q0pp8rxiiaq9ji6jar3xntn0d,31z0pcvwuosbiqdoigutw83aw77t7b,nLp1SUay,2020-0188,2021-10-17,17:37:13,18:50:27,NA,incomplete,false,true,NA,5,27,NA,red,m_s_024.jpg,NA,NA,unpleasant,pleasant,NA,NA,NA,NA,NA,right,1308.40000000596,true,NA,NA,NA,NA,NA
nLp1SUay,3vck0q0pp8rxiiaq9ji6jar3xntn0d,31z0pcvwuosbiqdoigutw83aw77t7b,nLp1SUay,2020-0188,2021-10-17,17:37:13,18:50:27,NA,incomplete,false,true,NA,5,28,NA,red,m_s_009.jpg,NA,NA,pleasant,unpleasant,NA,NA,NA,NA,NA,left,1185.09999999404,true,NA,NA,NA,NA,NA
nLp1SUay,3vck0q0pp8rxiiaq9ji6jar3xntn0d,31z0pcvwuosbiqdoigutw83aw77t7b,nLp1SUay,2020-0188,2021-10-17,17:37:13,18:50:27,NA,incomplete,false,true,NA,5,29,NA,red,n_l_107.jpg,NA,NA,pleasant,unpleasant,NA,NA,NA,NA,NA,left,1121.79999998212,true,NA,NA,NA,NA,NA
nLp1SUay,3vck0q0pp8rxiiaq9ji6jar3xntn0d,31z0pcvwuosbiqdoigutw83aw77t7b,nLp1SUay,2020-0188,2021-10-17,17:37:13,18:50:27,NA,incomplete,false,true,NA,5,30,NA,black,n_l_055.jpg,NA,NA,pleasant,unpleasant,NA,NA,NA,NA,NA,left,1210.40000000596,true,NA,NA,NA,NA,NA
nLp1SUay,3vck0q0pp8rxiiaq9ji6jar3xntn0d,31z0pcvwuosbiqdoigutw83aw77t7b,nLp1SUay,2020-0188,2021-10-17,17:37:13,18:50:27,NA,incomplete,false,true,NA,5,31,NA,black,n_l_114.jpg,NA,NA,unpleasant,pleasant,NA,NA,NA,NA,NA,right,1237.89999997616,true,NA,NA,NA,NA,NA
nLp1SUay,3vck0q0pp8rxiiaq9ji6jar3xntn0d,31z0pcvwuosbiqdoigutw83aw77t7b,nLp1SUay,2020-0188,2021-10-17,17:37:13,18:50:27,NA,incomplete,false,true,NA,5,32,NA,black,m_s_011.jpg,NA,NA,unpleasant,pleasant,NA,NA,NA,NA,NA,right,1156,true,NA,NA,NA,NA,NA
nLp1SUay,3vck0q0pp8rxiiaq9ji6jar3xntn0d,31z0pcvwuosbiqdoigutw83aw77t7b,nLp1SUay,2020-0188,2021-10-17,17:37:13,18:50:27,NA,incomplete,false,true,NA,5,33,NA,black,n_s_044.jpg,NA,NA,unpleasant,pleasant,NA,NA,NA,NA,NA,right,983.800000011921,true,NA,NA,NA,NA,NA
nLp1SUay,3vck0q0pp8rxiiaq9ji6jar3xntn0d,31z0pcvwuosbiqdoigutw83aw77t7b,nLp1SUay,2020-0188,2021-10-17,17:37:13,18:50:27,NA,incomplete,false,true,NA,5,34,NA,black,n_s_036.jpg,NA,NA,pleasant,unpleasant,NA,NA,NA,NA,NA,right,961,true,NA,NA,NA,NA,NA
nLp1SUay,3vck0q0pp8rxiiaq9ji6jar3xntn0d,31z0pcvwuosbiqdoigutw83aw77t7b,nLp1SUay,2020-0188,2021-10-17,17:37:13,18:50:27,NA,incomplete,false,true,NA,5,35,NA,black,n_s_107.jpg,NA,NA,unpleasant,pleasant,NA,NA,NA,NA,NA,right,1277,true,NA,NA,NA,NA,NA
nLp1SUay,3vck0q0pp8rxiiaq9ji6jar3xntn0d,31z0pcvwuosbiqdoigutw83aw77t7b,nLp1SUay,2020-0188,2021-10-17,17:37:13,18:50:27,NA,incomplete,false,NA,true,5,0,NA,NA,NA,left,absent,NA,NA,m_l_017.jpg,purple,m_s_072.jpg,blue,between,NA,NaN,NA,left,5997.700000017881,1,0,1354.699999988079
nLp1SUay,3vck0q0pp8rxiiaq9ji6jar3xntn0d,31z0pcvwuosbiqdoigutw83aw77t7b,nLp1SUay,2020-0188,2021-10-17,17:37:13,18:50:27,NA,incomplete,false,NA,true,5,1,NA,NA,NA,left,absent,NA,NA,n_l_114.jpg,black,n_s_107.jpg,black,within,NA,NaN,NA,left,2468.0999999940395,1,1,3642.0999999940395
nLp1SUay,3vck0q0pp8rxiiaq9ji6jar3xntn0d,31z0pcvwuosbiqdoigutw83aw77t7b,nLp1SUay,2020-0188,2021-10-17,17:37:13,18:50:27,NA,incomplete,false,NA,true,5,2,NA,NA,NA,left,absent,NA,NA,n_s_078.jpg,red,n_l_107.jpg,red,within,NA,NaN,NA,right,7354.5999999940395,0,1,1666.699999988079
nLp1SUay,3vck0q0pp8rxiiaq9ji6jar3xntn0d,31z0pcvwuosbiqdoigutw83aw77t7b,nLp1SUay,2020-0188,2021-10-17,17:37:13,18:50:27,NA,incomplete,false,NA,true,5,3,NA,NA,NA,left,absent,NA,NA,n_s_058.jpg,blue,n_l_014.jpg,orange,between,NA,NaN,NA,right,6690.699999988079,0,1,2091.5
nLp1SUay,3vck0q0pp8rxiiaq9ji6jar3xntn0d,31z0pcvwuosbiqdoigutw83aw77t7b,nLp1SUay,2020-0188,2021-10-17,17:37:13,18:50:27,NA,incomplete,false,NA,true,5,4,NA,NA,NA,right,absent,NA,NA,m_l_082.jpg,purple,n_s_091.jpg,purple,within,NA,NaN,NA,right,2885.0999999940395,1,1,2021.2000000178814
nLp1SUay,3vck0q0pp8rxiiaq9ji6jar3xntn0d,31z0pcvwuosbiqdoigutw83aw77t7b,nLp1SUay,2020-0188,2021-10-17,17:37:13,18:50:27,NA,incomplete,false,NA,true,5,5,NA,NA,NA,right,absent,NA,NA,m_s_097.jpg,yellow,n_s_082.jpg,yellow,within,NA,NaN,NA,left,4588.5999999940395,0,1,1165
nLp1SUay,3vck0q0pp8rxiiaq9ji6jar3xntn0d,31z0pcvwuosbiqdoigutw83aw77t7b,nLp1SUay,2020-0188,2021-10-17,17:37:13,18:50:27,NA,incomplete,false,NA,true,5,6,NA,NA,NA,left,absent,NA,NA,n_s_011.jpg,blue,m_l_013.jpg,blue,within,NA,NaN,NA,left,3891.7999999821186,1,1,1462.5
nLp1SUay,3vck0q0pp8rxiiaq9ji6jar3xntn0d,31z0pcvwuosbiqdoigutw83aw77t7b,nLp1SUay,2020-0188,2021-10-17,17:37:13,18:50:27,NA,incomplete,false,NA,true,5,7,NA,NA,NA,left,absent,NA,NA,n_l_004.jpg,orange,n_s_079.jpg,yellow,between,NA,NaN,NA,left,3098.699999988079,1,1,1346.300000011921
nLp1SUay,3vck0q0pp8rxiiaq9ji6jar3xntn0d,31z0pcvwuosbiqdoigutw83aw77t7b,nLp1SUay,2020-0188,2021-10-17,17:37:13,18:50:27,NA,incomplete,false,NA,true,5,8,NA,NA,NA,right,absent,NA,NA,n_l_099.jpg,orange,m_s_103.jpg,orange,within,NA,NaN,NA,left,34812.40000000596,0,1,1426.1000000238419
nLp1SUay,3vck0q0pp8rxiiaq9ji6jar3xntn0d,31z0pcvwuosbiqdoigutw83aw77t7b,nLp1SUay,2020-0188,2021-10-17,17:37:13,18:50:27,NA,incomplete,false,NA,true,5,9,NA,NA,NA,left,absent,NA,NA,m_s_009.jpg,red,m_s_011.jpg,black,between,NA,NaN,NA,right,4203,0,1,1260.1000000238419
nLp1SUay,3vck0q0pp8rxiiaq9ji6jar3xntn0d,31z0pcvwuosbiqdoigutw83aw77t7b,nLp1SUay,2020-0188,2021-10-17,17:37:13,18:50:27,NA,incomplete,false,NA,true,5,10,NA,NA,NA,left,absent,NA,NA,m_s_042.jpg,yellow,n_l_070.jpg,red,between,NA,NaN,NA,left,4591.5,1,1,1594.0999999940395
nLp1SUay,3vck0q0pp8rxiiaq9ji6jar3xntn0d,31z0pcvwuosbiqdoigutw83aw77t7b,nLp1SUay,2020-0188,2021-10-17,17:37:13,18:50:27,NA,incomplete,false,true,NA,6,0,NA,yellow,m_l_060.jpg,NA,NA,pleasant,unpleasant,NA,NA,NA,NA,NA,left,1781,true,NA,NA,NA,NA,NA
nLp1SUay,3vck0q0pp8rxiiaq9ji6jar3xntn0d,31z0pcvwuosbiqdoigutw83aw77t7b,nLp1SUay,2020-0188,2021-10-17,17:37:13,18:50:27,NA,incomplete,false,true,NA,6,1,NA,yellow,m_l_036.jpg,NA,NA,pleasant,unpleasant,NA,NA,NA,NA,NA,left,1644.5,true,NA,NA,NA,NA,NA
nLp1SUay,3vck0q0pp8rxiiaq9ji6jar3xntn0d,31z0pcvwuosbiqdoigutw83aw77t7b,nLp1SUay,2020-0188,2021-10-17,17:37:13,18:50:27,NA,incomplete,false,true,NA,6,2,NA,yellow,n_l_103.jpg,NA,NA,unpleasant,pleasant,NA,NA,NA,NA,NA,right,1402,true,NA,NA,NA,NA,NA
nLp1SUay,3vck0q0pp8rxiiaq9ji6jar3xntn0d,31z0pcvwuosbiqdoigutw83aw77t7b,nLp1SUay,2020-0188,2021-10-17,17:37:13,18:50:27,NA,incomplete,false,true,NA,6,3,NA,yellow,n_s_094.jpg,NA,NA,pleasant,unpleasant,NA,NA,NA,NA,NA,left,1433.60000002384,true,NA,NA,NA,NA,NA
nLp1SUay,3vck0q0pp8rxiiaq9ji6jar3xntn0d,31z0pcvwuosbiqdoigutw83aw77t7b,nLp1SUay,2020-0188,2021-10-17,17:37:13,18:50:27,NA,incomplete,false,true,NA,6,4,NA,yellow,m_l_002.jpg,NA,NA,unpleasant,pleasant,NA,NA,NA,NA,NA,right,1284.69999998808,true,NA,NA,NA,NA,NA
nLp1SUay,3vck0q0pp8rxiiaq9ji6jar3xntn0d,31z0pcvwuosbiqdoigutw83aw77t7b,nLp1SUay,2020-0188,2021-10-17,17:37:13,18:50:27,NA,incomplete,false,true,NA,6,5,NA,yellow,m_l_063.jpg,NA,NA,unpleasant,pleasant,NA,NA,NA,NA,NA,right,1388.5,true,NA,NA,NA,NA,NA
nLp1SUay,3vck0q0pp8rxiiaq9ji6jar3xntn0d,31z0pcvwuosbiqdoigutw83aw77t7b,nLp1SUay,2020-0188,2021-10-17,17:37:13,18:50:27,NA,incomplete,false,true,NA,6,6,NA,white,m_l_012.jpg,NA,NA,pleasant,unpleasant,NA,NA,NA,NA,NA,left,1125,true,NA,NA,NA,NA,NA
nLp1SUay,3vck0q0pp8rxiiaq9ji6jar3xntn0d,31z0pcvwuosbiqdoigutw83aw77t7b,nLp1SUay,2020-0188,2021-10-17,17:37:13,18:50:27,NA,incomplete,false,true,NA,6,7,NA,white,m_l_081.jpg,NA,NA,unpleasant,pleasant,NA,NA,NA,NA,NA,right,1140.5,true,NA,NA,NA,NA,NA
nLp1SUay,3vck0q0pp8rxiiaq9ji6jar3xntn0d,31z0pcvwuosbiqdoigutw83aw77t7b,nLp1SUay,2020-0188,2021-10-17,17:37:13,18:50:27,NA,incomplete,false,true,NA,6,8,NA,white,n_l_006.jpg,NA,NA,unpleasant,pleasant,NA,NA,NA,NA,NA,right,1016.90000000596,true,NA,NA,NA,NA,NA
nLp1SUay,3vck0q0pp8rxiiaq9ji6jar3xntn0d,31z0pcvwuosbiqdoigutw83aw77t7b,nLp1SUay,2020-0188,2021-10-17,17:37:13,18:50:27,NA,incomplete,false,true,NA,6,9,NA,white,m_s_088.jpg,NA,NA,unpleasant,pleasant,NA,NA,NA,NA,NA,right,1150,true,NA,NA,NA,NA,NA
nLp1SUay,3vck0q0pp8rxiiaq9ji6jar3xntn0d,31z0pcvwuosbiqdoigutw83aw77t7b,nLp1SUay,2020-0188,2021-10-17,17:37:13,18:50:27,NA,incomplete,false,true,NA,6,10,NA,white,m_s_104.jpg,NA,NA,unpleasant,pleasant,NA,NA,NA,NA,NA,right,1033.69999998808,true,NA,NA,NA,NA,NA
nLp1SUay,3vck0q0pp8rxiiaq9ji6jar3xntn0d,31z0pcvwuosbiqdoigutw83aw77t7b,nLp1SUay,2020-0188,2021-10-17,17:37:13,18:50:27,NA,incomplete,false,true,NA,6,11,NA,white,m_l_008.jpg,NA,NA,pleasant,unpleasant,NA,NA,NA,NA,NA,left,1153,true,NA,NA,NA,NA,NA
nLp1SUay,3vck0q0pp8rxiiaq9ji6jar3xntn0d,31z0pcvwuosbiqdoigutw83aw77t7b,nLp1SUay,2020-0188,2021-10-17,17:37:13,18:50:27,NA,incomplete,false,true,NA,6,12,NA,brown,n_s_025.jpg,NA,NA,unpleasant,pleasant,NA,NA,NA,NA,NA,right,1352.09999999404,true,NA,NA,NA,NA,NA
nLp1SUay,3vck0q0pp8rxiiaq9ji6jar3xntn0d,31z0pcvwuosbiqdoigutw83aw77t7b,nLp1SUay,2020-0188,2021-10-17,17:37:13,18:50:27,NA,incomplete,false,true,NA,6,13,NA,brown,m_l_072.jpg,NA,NA,pleasant,unpleasant,NA,NA,NA,NA,NA,right,1610.40000000596,true,NA,NA,NA,NA,NA
nLp1SUay,3vck0q0pp8rxiiaq9ji6jar3xntn0d,31z0pcvwuosbiqdoigutw83aw77t7b,nLp1SUay,2020-0188,2021-10-17,17:37:13,18:50:27,NA,incomplete,false,true,NA,6,14,NA,brown,n_l_091.jpg,NA,NA,unpleasant,pleasant,NA,NA,NA,NA,NA,right,1303,true,NA,NA,NA,NA,NA
nLp1SUay,3vck0q0pp8rxiiaq9ji6jar3xntn0d,31z0pcvwuosbiqdoigutw83aw77t7b,nLp1SUay,2020-0188,2021-10-17,17:37:13,18:50:27,NA,incomplete,false,true,NA,6,15,NA,brown,m_s_050.jpg,NA,NA,pleasant,unpleasant,NA,NA,NA,NA,NA,right,1390.09999999404,true,NA,NA,NA,NA,NA
nLp1SUay,3vck0q0pp8rxiiaq9ji6jar3xntn0d,31z0pcvwuosbiqdoigutw83aw77t7b,nLp1SUay,2020-0188,2021-10-17,17:37:13,18:50:27,NA,incomplete,false,true,NA,6,16,NA,brown,n_l_079.jpg,NA,NA,pleasant,unpleasant,NA,NA,NA,NA,NA,left,1320.09999999404,true,NA,NA,NA,NA,NA
nLp1SUay,3vck0q0pp8rxiiaq9ji6jar3xntn0d,31z0pcvwuosbiqdoigutw83aw77t7b,nLp1SUay,2020-0188,2021-10-17,17:37:13,18:50:27,NA,incomplete,false,true,NA,6,17,NA,brown,m_l_019.jpg,NA,NA,pleasant,unpleasant,NA,NA,NA,NA,NA,left,1189.09999999404,true,NA,NA,NA,NA,NA
nLp1SUay,3vck0q0pp8rxiiaq9ji6jar3xntn0d,31z0pcvwuosbiqdoigutw83aw77t7b,nLp1SUay,2020-0188,2021-10-17,17:37:13,18:50:27,NA,incomplete,false,true,NA,6,18,NA,black,m_s_047.jpg,NA,NA,pleasant,unpleasant,NA,NA,NA,NA,NA,left,1135.5,true,NA,NA,NA,NA,NA
nLp1SUay,3vck0q0pp8rxiiaq9ji6jar3xntn0d,31z0pcvwuosbiqdoigutw83aw77t7b,nLp1SUay,2020-0188,2021-10-17,17:37:13,18:50:27,NA,incomplete,false,true,NA,6,19,NA,black,n_l_089.jpg,NA,NA,unpleasant,pleasant,NA,NA,NA,NA,NA,right,1213.30000001192,true,NA,NA,NA,NA,NA
nLp1SUay,3vck0q0pp8rxiiaq9ji6jar3xntn0d,31z0pcvwuosbiqdoigutw83aw77t7b,nLp1SUay,2020-0188,2021-10-17,17:37:13,18:50:27,NA,incomplete,false,true,NA,6,20,NA,black,n_s_095.jpg,NA,NA,unpleasant,pleasant,NA,NA,NA,NA,NA,right,1328.69999998808,true,NA,NA,NA,NA,NA
nLp1SUay,3vck0q0pp8rxiiaq9ji6jar3xntn0d,31z0pcvwuosbiqdoigutw83aw77t7b,nLp1SUay,2020-0188,2021-10-17,17:37:13,18:50:27,NA,incomplete,false,true,NA,6,21,NA,black,n_l_116.jpg,NA,NA,unpleasant,pleasant,NA,NA,NA,NA,NA,left,1485.09999999404,true,NA,NA,NA,NA,NA
nLp1SUay,3vck0q0pp8rxiiaq9ji6jar3xntn0d,31z0pcvwuosbiqdoigutw83aw77t7b,nLp1SUay,2020-0188,2021-10-17,17:37:13,18:50:27,NA,incomplete,false,true,NA,6,22,NA,black,m_s_001.jpg,NA,NA,unpleasant,pleasant,NA,NA,NA,NA,NA,right,1197.59999999404,true,NA,NA,NA,NA,NA
nLp1SUay,3vck0q0pp8rxiiaq9ji6jar3xntn0d,31z0pcvwuosbiqdoigutw83aw77t7b,nLp1SUay,2020-0188,2021-10-17,17:37:13,18:50:27,NA,incomplete,false,true,NA,6,23,NA,black,m_l_049.jpg,NA,NA,unpleasant,pleasant,NA,NA,NA,NA,NA,right,1422.09999999404,true,NA,NA,NA,NA,NA
nLp1SUay,3vck0q0pp8rxiiaq9ji6jar3xntn0d,31z0pcvwuosbiqdoigutw83aw77t7b,nLp1SUay,2020-0188,2021-10-17,17:37:13,18:50:27,NA,incomplete,false,true,NA,6,24,NA,red,n_s_065.jpg,NA,NA,unpleasant,pleasant,NA,NA,NA,NA,NA,left,1473.90000000596,true,NA,NA,NA,NA,NA
nLp1SUay,3vck0q0pp8rxiiaq9ji6jar3xntn0d,31z0pcvwuosbiqdoigutw83aw77t7b,nLp1SUay,2020-0188,2021-10-17,17:37:13,18:50:27,NA,incomplete,false,true,NA,6,25,NA,red,n_s_028.jpg,NA,NA,pleasant,unpleasant,NA,NA,NA,NA,NA,left,1189.5,true,NA,NA,NA,NA,NA
nLp1SUay,3vck0q0pp8rxiiaq9ji6jar3xntn0d,31z0pcvwuosbiqdoigutw83aw77t7b,nLp1SUay,2020-0188,2021-10-17,17:37:13,18:50:27,NA,incomplete,false,true,NA,6,26,NA,red,n_l_096.jpg,NA,NA,unpleasant,pleasant,NA,NA,NA,NA,NA,right,1141.09999999404,true,NA,NA,NA,NA,NA
nLp1SUay,3vck0q0pp8rxiiaq9ji6jar3xntn0d,31z0pcvwuosbiqdoigutw83aw77t7b,nLp1SUay,2020-0188,2021-10-17,17:37:13,18:50:27,NA,incomplete,false,true,NA,6,27,NA,red,m_l_038.jpg,NA,NA,unpleasant,pleasant,NA,NA,NA,NA,NA,right,1188.90000000596,true,NA,NA,NA,NA,NA
nLp1SUay,3vck0q0pp8rxiiaq9ji6jar3xntn0d,31z0pcvwuosbiqdoigutw83aw77t7b,nLp1SUay,2020-0188,2021-10-17,17:37:13,18:50:27,NA,incomplete,false,true,NA,6,28,NA,red,m_s_031.jpg,NA,NA,pleasant,unpleasant,NA,NA,NA,NA,NA,left,1482.10000002384,true,NA,NA,NA,NA,NA
nLp1SUay,3vck0q0pp8rxiiaq9ji6jar3xntn0d,31z0pcvwuosbiqdoigutw83aw77t7b,nLp1SUay,2020-0188,2021-10-17,17:37:13,18:50:27,NA,incomplete,false,true,NA,6,29,NA,red,m_l_046.jpg,NA,NA,unpleasant,pleasant,NA,NA,NA,NA,NA,right,1591.40000000596,true,NA,NA,NA,NA,NA
nLp1SUay,3vck0q0pp8rxiiaq9ji6jar3xntn0d,31z0pcvwuosbiqdoigutw83aw77t7b,nLp1SUay,2020-0188,2021-10-17,17:37:13,18:50:27,NA,incomplete,false,true,NA,6,30,NA,green,n_l_034.jpg,NA,NA,pleasant,unpleasant,NA,NA,NA,NA,NA,left,1156.29999998212,true,NA,NA,NA,NA,NA
nLp1SUay,3vck0q0pp8rxiiaq9ji6jar3xntn0d,31z0pcvwuosbiqdoigutw83aw77t7b,nLp1SUay,2020-0188,2021-10-17,17:37:13,18:50:27,NA,incomplete,false,true,NA,6,31,NA,green,n_s_055.jpg,NA,NA,unpleasant,pleasant,NA,NA,NA,NA,NA,left,1595.10000002384,true,NA,NA,NA,NA,NA
nLp1SUay,3vck0q0pp8rxiiaq9ji6jar3xntn0d,31z0pcvwuosbiqdoigutw83aw77t7b,nLp1SUay,2020-0188,2021-10-17,17:37:13,18:50:27,NA,incomplete,false,true,NA,6,32,NA,green,m_s_091.jpg,NA,NA,unpleasant,pleasant,NA,NA,NA,NA,NA,right,1195.80000001192,true,NA,NA,NA,NA,NA
nLp1SUay,3vck0q0pp8rxiiaq9ji6jar3xntn0d,31z0pcvwuosbiqdoigutw83aw77t7b,nLp1SUay,2020-0188,2021-10-17,17:37:13,18:50:27,NA,incomplete,false,true,NA,6,33,NA,green,m_s_004.jpg,NA,NA,unpleasant,pleasant,NA,NA,NA,NA,NA,right,1089.59999999404,true,NA,NA,NA,NA,NA
nLp1SUay,3vck0q0pp8rxiiaq9ji6jar3xntn0d,31z0pcvwuosbiqdoigutw83aw77t7b,nLp1SUay,2020-0188,2021-10-17,17:37:13,18:50:27,NA,incomplete,false,true,NA,6,34,NA,green,n_s_015.jpg,NA,NA,pleasant,unpleasant,NA,NA,NA,NA,NA,left,1217.59999999404,true,NA,NA,NA,NA,NA
nLp1SUay,3vck0q0pp8rxiiaq9ji6jar3xntn0d,31z0pcvwuosbiqdoigutw83aw77t7b,nLp1SUay,2020-0188,2021-10-17,17:37:13,18:50:27,NA,incomplete,false,true,NA,6,35,NA,green,m_l_083.jpg,NA,NA,unpleasant,pleasant,NA,NA,NA,NA,NA,right,1116.30000001192,true,NA,NA,NA,NA,NA
nLp1SUay,3vck0q0pp8rxiiaq9ji6jar3xntn0d,31z0pcvwuosbiqdoigutw83aw77t7b,nLp1SUay,2020-0188,2021-10-17,17:37:13,18:50:27,NA,incomplete,false,NA,true,6,0,NA,NA,NA,left,absent,NA,NA,m_s_031.jpg,red,m_s_091.jpg,green,between,NA,NaN,NA,right,6046.799999982119,0,1,1668.4000000059605
nLp1SUay,3vck0q0pp8rxiiaq9ji6jar3xntn0d,31z0pcvwuosbiqdoigutw83aw77t7b,nLp1SUay,2020-0188,2021-10-17,17:37:13,18:50:27,NA,incomplete,false,NA,true,6,1,NA,NA,NA,left,absent,NA,NA,m_l_002.jpg,yellow,n_l_006.jpg,white,between,NA,NaN,NA,left,3468.7999999821186,1,1,1140.5999999940395
nLp1SUay,3vck0q0pp8rxiiaq9ji6jar3xntn0d,31z0pcvwuosbiqdoigutw83aw77t7b,nLp1SUay,2020-0188,2021-10-17,17:37:13,18:50:27,NA,incomplete,false,NA,true,6,2,NA,NA,NA,right,absent,NA,NA,m_l_008.jpg,white,m_l_081.jpg,white,within,NA,NaN,NA,left,4730.600000023842,0,1,1725.4000000059605
nLp1SUay,3vck0q0pp8rxiiaq9ji6jar3xntn0d,31z0pcvwuosbiqdoigutw83aw77t7b,nLp1SUay,2020-0188,2021-10-17,17:37:13,18:50:27,NA,incomplete,false,NA,true,6,3,NA,NA,NA,right,absent,NA,NA,n_s_095.jpg,black,n_l_079.jpg,brown,between,NA,NaN,NA,right,6404.0999999940395,1,1,1577.6000000238419
nLp1SUay,3vck0q0pp8rxiiaq9ji6jar3xntn0d,31z0pcvwuosbiqdoigutw83aw77t7b,nLp1SUay,2020-0188,2021-10-17,17:37:13,18:50:27,NA,incomplete,false,NA,true,6,4,NA,NA,NA,left,absent,NA,NA,m_s_104.jpg,white,n_l_091.jpg,brown,between,NA,NaN,NA,left,4600.300000011921,1,1,1415.3999999761581
nLp1SUay,3vck0q0pp8rxiiaq9ji6jar3xntn0d,31z0pcvwuosbiqdoigutw83aw77t7b,nLp1SUay,2020-0188,2021-10-17,17:37:13,18:50:27,NA,incomplete,false,NA,true,6,5,NA,NA,NA,right,absent,NA,NA,m_l_063.jpg,yellow,m_l_036.jpg,yellow,within,NA,NaN,NA,left,3454.2999999821186,0,1,2356.699999988079
nLp1SUay,3vck0q0pp8rxiiaq9ji6jar3xntn0d,31z0pcvwuosbiqdoigutw83aw77t7b,nLp1SUay,2020-0188,2021-10-17,17:37:13,18:50:27,NA,incomplete,false,NA,true,6,6,NA,NA,NA,left,absent,NA,NA,n_l_089.jpg,black,m_l_049.jpg,black,within,NA,NaN,NA,right,4924.100000023842,0,1,1527.1000000238419
nLp1SUay,3vck0q0pp8rxiiaq9ji6jar3xntn0d,31z0pcvwuosbiqdoigutw83aw77t7b,nLp1SUay,2020-0188,2021-10-17,17:37:13,18:50:27,NA,incomplete,false,NA,true,6,7,NA,NA,NA,left,absent,NA,NA,m_s_001.jpg,black,n_l_096.jpg,red,between,NA,NaN,NA,right,2789.9000000059605,0,1,1379.7999999821186
nLp1SUay,3vck0q0pp8rxiiaq9ji6jar3xntn0d,31z0pcvwuosbiqdoigutw83aw77t7b,nLp1SUay,2020-0188,2021-10-17,17:37:13,18:50:27,NA,incomplete,false,NA,true,6,8,NA,NA,NA,right,absent,NA,NA,m_l_046.jpg,red,n_s_028.jpg,red,within,NA,NaN,NA,left,4501.5999999940395,0,1,1596.2999999821186
nLp1SUay,3vck0q0pp8rxiiaq9ji6jar3xntn0d,31z0pcvwuosbiqdoigutw83aw77t7b,nLp1SUay,2020-0188,2021-10-17,17:37:13,18:50:27,NA,incomplete,false,NA,true,6,9,NA,NA,NA,left,absent,NA,NA,n_s_055.jpg,green,m_l_083.jpg,green,within,NA,NaN,NA,left,4876.200000017881,1,1,1233
nLp1SUay,3vck0q0pp8rxiiaq9ji6jar3xntn0d,31z0pcvwuosbiqdoigutw83aw77t7b,nLp1SUay,2020-0188,2021-10-17,17:37:13,18:50:27,NA,incomplete,false,NA,true,6,10,NA,NA,NA,left,absent,NA,NA,m_l_072.jpg,brown,m_l_019.jpg,brown,within,NA,NaN,NA,left,9210.40000000596,1,2,1595.4000000059605
nLp1SUay,3vck0q0pp8rxiiaq9ji6jar3xntn0d,31z0pcvwuosbiqdoigutw83aw77t7b,nLp1SUay,2020-0188,2021-10-17,17:37:13,18:50:27,NA,incomplete,false,true,NA,7,0,NA,orange,n_s_035.jpg,NA,NA,unpleasant,pleasant,NA,NA,NA,NA,NA,left,1240,true,NA,NA,NA,NA,NA
nLp1SUay,3vck0q0pp8rxiiaq9ji6jar3xntn0d,31z0pcvwuosbiqdoigutw83aw77t7b,nLp1SUay,2020-0188,2021-10-17,17:37:13,18:50:27,NA,incomplete,false,true,NA,7,1,NA,orange,m_l_048.jpg,NA,NA,pleasant,unpleasant,NA,NA,NA,NA,NA,left,1170.69999998808,true,NA,NA,NA,NA,NA
nLp1SUay,3vck0q0pp8rxiiaq9ji6jar3xntn0d,31z0pcvwuosbiqdoigutw83aw77t7b,nLp1SUay,2020-0188,2021-10-17,17:37:13,18:50:27,NA,incomplete,false,true,NA,7,2,NA,orange,n_s_022.jpg,NA,NA,unpleasant,pleasant,NA,NA,NA,NA,NA,right,1154.89999997616,true,NA,NA,NA,NA,NA
nLp1SUay,3vck0q0pp8rxiiaq9ji6jar3xntn0d,31z0pcvwuosbiqdoigutw83aw77t7b,nLp1SUay,2020-0188,2021-10-17,17:37:13,18:50:27,NA,incomplete,false,true,NA,7,3,NA,orange,m_l_014.jpg,NA,NA,unpleasant,pleasant,NA,NA,NA,NA,NA,right,1325.20000001788,true,NA,NA,NA,NA,NA
nLp1SUay,3vck0q0pp8rxiiaq9ji6jar3xntn0d,31z0pcvwuosbiqdoigutw83aw77t7b,nLp1SUay,2020-0188,2021-10-17,17:37:13,18:50:27,NA,incomplete,false,true,NA,7,4,NA,orange,m_s_043.jpg,NA,NA,pleasant,unpleasant,NA,NA,NA,NA,NA,left,1434,true,NA,NA,NA,NA,NA
nLp1SUay,3vck0q0pp8rxiiaq9ji6jar3xntn0d,31z0pcvwuosbiqdoigutw83aw77t7b,nLp1SUay,2020-0188,2021-10-17,17:37:13,18:50:27,NA,incomplete,false,true,NA,7,5,NA,orange,m_l_025.jpg,NA,NA,pleasant,unpleasant,NA,NA,NA,NA,NA,left,916.800000011921,true,NA,NA,NA,NA,NA
nLp1SUay,3vck0q0pp8rxiiaq9ji6jar3xntn0d,31z0pcvwuosbiqdoigutw83aw77t7b,nLp1SUay,2020-0188,2021-10-17,17:37:13,18:50:27,NA,incomplete,false,true,NA,7,6,NA,yellow,m_s_029.jpg,NA,NA,unpleasant,pleasant,NA,NA,NA,NA,NA,right,1512.90000000596,true,NA,NA,NA,NA,NA
nLp1SUay,3vck0q0pp8rxiiaq9ji6jar3xntn0d,31z0pcvwuosbiqdoigutw83aw77t7b,nLp1SUay,2020-0188,2021-10-17,17:37:13,18:50:27,NA,incomplete,false,true,NA,7,7,NA,yellow,n_l_101.jpg,NA,NA,pleasant,unpleasant,NA,NA,NA,NA,NA,left,1529.20000001788,true,NA,NA,NA,NA,NA
nLp1SUay,3vck0q0pp8rxiiaq9ji6jar3xntn0d,31z0pcvwuosbiqdoigutw83aw77t7b,nLp1SUay,2020-0188,2021-10-17,17:37:13,18:50:27,NA,incomplete,false,true,NA,7,8,NA,yellow,m_s_037.jpg,NA,NA,pleasant,unpleasant,NA,NA,NA,NA,NA,left,1359.40000000596,true,NA,NA,NA,NA,NA
nLp1SUay,3vck0q0pp8rxiiaq9ji6jar3xntn0d,31z0pcvwuosbiqdoigutw83aw77t7b,nLp1SUay,2020-0188,2021-10-17,17:37:13,18:50:27,NA,incomplete,false,true,NA,7,9,NA,yellow,n_l_085.jpg,NA,NA,pleasant,unpleasant,NA,NA,NA,NA,NA,left,1374.30000001192,true,NA,NA,NA,NA,NA
nLp1SUay,3vck0q0pp8rxiiaq9ji6jar3xntn0d,31z0pcvwuosbiqdoigutw83aw77t7b,nLp1SUay,2020-0188,2021-10-17,17:37:13,18:50:27,NA,incomplete,false,true,NA,7,10,NA,yellow,n_l_007.jpg,NA,NA,pleasant,unpleasant,NA,NA,NA,NA,NA,left,1039,true,NA,NA,NA,NA,NA
nLp1SUay,3vck0q0pp8rxiiaq9ji6jar3xntn0d,31z0pcvwuosbiqdoigutw83aw77t7b,nLp1SUay,2020-0188,2021-10-17,17:37:13,18:50:27,NA,incomplete,false,true,NA,7,11,NA,yellow,n_s_096.jpg,NA,NA,pleasant,unpleasant,NA,NA,NA,NA,NA,left,1096.59999999404,true,NA,NA,NA,NA,NA
nLp1SUay,3vck0q0pp8rxiiaq9ji6jar3xntn0d,31z0pcvwuosbiqdoigutw83aw77t7b,nLp1SUay,2020-0188,2021-10-17,17:37:13,18:50:27,NA,incomplete,false,true,NA,7,12,NA,blue,n_s_110.jpg,NA,NA,pleasant,unpleasant,NA,NA,NA,NA,NA,right,1777.70000001788,true,NA,NA,NA,NA,NA
nLp1SUay,3vck0q0pp8rxiiaq9ji6jar3xntn0d,31z0pcvwuosbiqdoigutw83aw77t7b,nLp1SUay,2020-0188,2021-10-17,17:37:13,18:50:27,NA,incomplete,false,true,NA,7,13,NA,blue,n_s_071.jpg,NA,NA,unpleasant,pleasant,NA,NA,NA,NA,NA,right,1083.79999998212,true,NA,NA,NA,NA,NA
nLp1SUay,3vck0q0pp8rxiiaq9ji6jar3xntn0d,31z0pcvwuosbiqdoigutw83aw77t7b,nLp1SUay,2020-0188,2021-10-17,17:37:13,18:50:27,NA,incomplete,false,true,NA,7,14,NA,blue,m_s_002.jpg,NA,NA,unpleasant,pleasant,NA,NA,NA,NA,NA,right,1255.10000002384,true,NA,NA,NA,NA,NA
nLp1SUay,3vck0q0pp8rxiiaq9ji6jar3xntn0d,31z0pcvwuosbiqdoigutw83aw77t7b,nLp1SUay,2020-0188,2021-10-17,17:37:13,18:50:27,NA,incomplete,false,true,NA,7,15,NA,blue,m_s_061.jpg,NA,NA,unpleasant,pleasant,NA,NA,NA,NA,NA,right,1162.19999998808,true,NA,NA,NA,NA,NA
nLp1SUay,3vck0q0pp8rxiiaq9ji6jar3xntn0d,31z0pcvwuosbiqdoigutw83aw77t7b,nLp1SUay,2020-0188,2021-10-17,17:37:13,18:50:27,NA,incomplete,false,true,NA,7,16,NA,blue,m_l_007.jpg,NA,NA,pleasant,unpleasant,NA,NA,NA,NA,NA,left,1435.59999999404,true,NA,NA,NA,NA,NA
nLp1SUay,3vck0q0pp8rxiiaq9ji6jar3xntn0d,31z0pcvwuosbiqdoigutw83aw77t7b,nLp1SUay,2020-0188,2021-10-17,17:37:13,18:50:27,NA,incomplete,false,true,NA,7,17,NA,blue,m_l_086.jpg,NA,NA,unpleasant,pleasant,NA,NA,NA,NA,NA,right,1323.70000001788,true,NA,NA,NA,NA,NA
nLp1SUay,3vck0q0pp8rxiiaq9ji6jar3xntn0d,31z0pcvwuosbiqdoigutw83aw77t7b,nLp1SUay,2020-0188,2021-10-17,17:37:13,18:50:27,NA,incomplete,false,true,NA,7,18,NA,white,n_l_074.jpg,NA,NA,pleasant,unpleasant,NA,NA,NA,NA,NA,left,1415,true,NA,NA,NA,NA,NA
nLp1SUay,3vck0q0pp8rxiiaq9ji6jar3xntn0d,31z0pcvwuosbiqdoigutw83aw77t7b,nLp1SUay,2020-0188,2021-10-17,17:37:13,18:50:27,NA,incomplete,false,true,NA,7,19,NA,white,n_s_053.jpg,NA,NA,pleasant,unpleasant,NA,NA,NA,NA,NA,right,1884.09999999404,true,NA,NA,NA,NA,NA
nLp1SUay,3vck0q0pp8rxiiaq9ji6jar3xntn0d,31z0pcvwuosbiqdoigutw83aw77t7b,nLp1SUay,2020-0188,2021-10-17,17:37:13,18:50:27,NA,incomplete,false,true,NA,7,20,NA,white,n_l_080.jpg,NA,NA,pleasant,unpleasant,NA,NA,NA,NA,NA,left,1016.5,true,NA,NA,NA,NA,NA
nLp1SUay,3vck0q0pp8rxiiaq9ji6jar3xntn0d,31z0pcvwuosbiqdoigutw83aw77t7b,nLp1SUay,2020-0188,2021-10-17,17:37:13,18:50:27,NA,incomplete,false,true,NA,7,21,NA,white,m_s_106.jpg,NA,NA,unpleasant,pleasant,NA,NA,NA,NA,NA,right,1103,true,NA,NA,NA,NA,NA
nLp1SUay,3vck0q0pp8rxiiaq9ji6jar3xntn0d,31z0pcvwuosbiqdoigutw83aw77t7b,nLp1SUay,2020-0188,2021-10-17,17:37:13,18:50:27,NA,incomplete,false,true,NA,7,22,NA,white,m_l_106.jpg,NA,NA,unpleasant,pleasant,NA,NA,NA,NA,NA,right,1085.39999997616,true,NA,NA,NA,NA,NA
nLp1SUay,3vck0q0pp8rxiiaq9ji6jar3xntn0d,31z0pcvwuosbiqdoigutw83aw77t7b,nLp1SUay,2020-0188,2021-10-17,17:37:13,18:50:27,NA,incomplete,false,true,NA,7,23,NA,white,m_l_042.jpg,NA,NA,unpleasant,pleasant,NA,NA,NA,NA,NA,right,1058.19999998808,true,NA,NA,NA,NA,NA
nLp1SUay,3vck0q0pp8rxiiaq9ji6jar3xntn0d,31z0pcvwuosbiqdoigutw83aw77t7b,nLp1SUay,2020-0188,2021-10-17,17:37:13,18:50:27,NA,incomplete,false,true,NA,7,24,NA,brown,n_l_038.jpg,NA,NA,unpleasant,pleasant,NA,NA,NA,NA,NA,right,1167.5,true,NA,NA,NA,NA,NA
nLp1SUay,3vck0q0pp8rxiiaq9ji6jar3xntn0d,31z0pcvwuosbiqdoigutw83aw77t7b,nLp1SUay,2020-0188,2021-10-17,17:37:13,18:50:27,NA,incomplete,false,true,NA,7,25,NA,brown,m_s_063.jpg,NA,NA,unpleasant,pleasant,NA,NA,NA,NA,NA,right,1367.5,true,NA,NA,NA,NA,NA
nLp1SUay,3vck0q0pp8rxiiaq9ji6jar3xntn0d,31z0pcvwuosbiqdoigutw83aw77t7b,nLp1SUay,2020-0188,2021-10-17,17:37:13,18:50:27,NA,incomplete,false,true,NA,7,26,NA,brown,m_s_089.jpg,NA,NA,pleasant,unpleasant,NA,NA,NA,NA,NA,right,975,true,NA,NA,NA,NA,NA
nLp1SUay,3vck0q0pp8rxiiaq9ji6jar3xntn0d,31z0pcvwuosbiqdoigutw83aw77t7b,nLp1SUay,2020-0188,2021-10-17,17:37:13,18:50:27,NA,incomplete,false,true,NA,7,27,NA,brown,n_s_039.jpg,NA,NA,pleasant,unpleasant,NA,NA,NA,NA,NA,right,960.59999999404,true,NA,NA,NA,NA,NA
nLp1SUay,3vck0q0pp8rxiiaq9ji6jar3xntn0d,31z0pcvwuosbiqdoigutw83aw77t7b,nLp1SUay,2020-0188,2021-10-17,17:37:13,18:50:27,NA,incomplete,false,true,NA,7,28,NA,brown,m_s_116.jpg,NA,NA,unpleasant,pleasant,NA,NA,NA,NA,NA,right,1594.70000001788,true,NA,NA,NA,NA,NA
nLp1SUay,3vck0q0pp8rxiiaq9ji6jar3xntn0d,31z0pcvwuosbiqdoigutw83aw77t7b,nLp1SUay,2020-0188,2021-10-17,17:37:13,18:50:27,NA,incomplete,false,true,NA,7,29,NA,brown,m_l_057.jpg,NA,NA,unpleasant,pleasant,NA,NA,NA,NA,NA,left,1417.59999999404,true,NA,NA,NA,NA,NA
nLp1SUay,3vck0q0pp8rxiiaq9ji6jar3xntn0d,31z0pcvwuosbiqdoigutw83aw77t7b,nLp1SUay,2020-0188,2021-10-17,17:37:13,18:50:27,NA,incomplete,false,true,NA,7,30,NA,red,n_s_088.jpg,NA,NA,pleasant,unpleasant,NA,NA,NA,NA,NA,left,1149.89999997616,true,NA,NA,NA,NA,NA
nLp1SUay,3vck0q0pp8rxiiaq9ji6jar3xntn0d,31z0pcvwuosbiqdoigutw83aw77t7b,nLp1SUay,2020-0188,2021-10-17,17:37:13,18:50:27,NA,incomplete,false,true,NA,7,31,NA,red,m_l_116.jpg,NA,NA,pleasant,unpleasant,NA,NA,NA,NA,NA,left,1269.40000000596,true,NA,NA,NA,NA,NA
nLp1SUay,3vck0q0pp8rxiiaq9ji6jar3xntn0d,31z0pcvwuosbiqdoigutw83aw77t7b,nLp1SUay,2020-0188,2021-10-17,17:37:13,18:50:27,NA,incomplete,false,true,NA,7,32,NA,red,m_s_026.jpg,NA,NA,unpleasant,pleasant,NA,NA,NA,NA,NA,left,1429.5,true,NA,NA,NA,NA,NA
nLp1SUay,3vck0q0pp8rxiiaq9ji6jar3xntn0d,31z0pcvwuosbiqdoigutw83aw77t7b,nLp1SUay,2020-0188,2021-10-17,17:37:13,18:50:27,NA,incomplete,false,true,NA,7,33,NA,red,m_s_075.jpg,NA,NA,unpleasant,pleasant,NA,NA,NA,NA,NA,right,1192.59999999404,true,NA,NA,NA,NA,NA
nLp1SUay,3vck0q0pp8rxiiaq9ji6jar3xntn0d,31z0pcvwuosbiqdoigutw83aw77t7b,nLp1SUay,2020-0188,2021-10-17,17:37:13,18:50:27,NA,incomplete,false,true,NA,7,34,NA,red,n_s_074.jpg,NA,NA,unpleasant,pleasant,NA,NA,NA,NA,NA,right,1034.20000001788,true,NA,NA,NA,NA,NA
nLp1SUay,3vck0q0pp8rxiiaq9ji6jar3xntn0d,31z0pcvwuosbiqdoigutw83aw77t7b,nLp1SUay,2020-0188,2021-10-17,17:37:13,18:50:27,NA,incomplete,false,true,NA,7,35,NA,red,n_s_090.jpg,NA,NA,pleasant,unpleasant,NA,NA,NA,NA,NA,left,1190.29999998212,true,NA,NA,NA,NA,NA
nLp1SUay,3vck0q0pp8rxiiaq9ji6jar3xntn0d,31z0pcvwuosbiqdoigutw83aw77t7b,nLp1SUay,2020-0188,2021-10-17,17:37:13,18:50:27,NA,incomplete,false,NA,true,7,0,NA,NA,NA,right,absent,NA,NA,m_l_057.jpg,brown,m_s_063.jpg,brown,within,NA,NaN,NA,left,4293.4000000059605,0,1,1918.5999999940395
nLp1SUay,3vck0q0pp8rxiiaq9ji6jar3xntn0d,31z0pcvwuosbiqdoigutw83aw77t7b,nLp1SUay,2020-0188,2021-10-17,17:37:13,18:50:27,NA,incomplete,false,NA,true,7,1,NA,NA,NA,left,absent,NA,NA,m_l_048.jpg,orange,m_l_025.jpg,orange,within,NA,NaN,NA,left,3406.5,1,1,1475.2000000178814
nLp1SUay,3vck0q0pp8rxiiaq9ji6jar3xntn0d,31z0pcvwuosbiqdoigutw83aw77t7b,nLp1SUay,2020-0188,2021-10-17,17:37:13,18:50:27,NA,incomplete,false,NA,true,7,2,NA,NA,NA,right,absent,NA,NA,m_l_086.jpg,blue,n_s_071.jpg,blue,within,NA,NaN,NA,right,9075.399999976158,1,2,1751.0999999940395
nLp1SUay,3vck0q0pp8rxiiaq9ji6jar3xntn0d,31z0pcvwuosbiqdoigutw83aw77t7b,nLp1SUay,2020-0188,2021-10-17,17:37:13,18:50:27,NA,incomplete,false,NA,true,7,3,NA,NA,NA,left,absent,NA,NA,n_s_053.jpg,white,m_l_042.jpg,white,within,NA,NaN,NA,left,3700.4000000059605,1,2,1119.5
nLp1SUay,3vck0q0pp8rxiiaq9ji6jar3xntn0d,31z0pcvwuosbiqdoigutw83aw77t7b,nLp1SUay,2020-0188,2021-10-17,17:37:13,18:50:27,NA,incomplete,false,NA,true,7,4,NA,NA,NA,left,absent,NA,NA,n_l_007.jpg,yellow,m_s_002.jpg,blue,between,NA,NaN,NA,left,2375.0999999940395,1,2,1039.199999988079
nLp1SUay,3vck0q0pp8rxiiaq9ji6jar3xntn0d,31z0pcvwuosbiqdoigutw83aw77t7b,nLp1SUay,2020-0188,2021-10-17,17:37:13,18:50:27,NA,incomplete,false,NA,true,7,5,NA,NA,NA,right,absent,NA,NA,n_s_090.jpg,red,m_l_116.jpg,red,within,NA,NaN,NA,right,2397.399999976158,1,1,1510.3999999761581
nLp1SUay,3vck0q0pp8rxiiaq9ji6jar3xntn0d,31z0pcvwuosbiqdoigutw83aw77t7b,nLp1SUay,2020-0188,2021-10-17,17:37:13,18:50:27,NA,incomplete,false,NA,true,7,6,NA,NA,NA,left,absent,NA,NA,n_l_101.jpg,yellow,n_s_096.jpg,yellow,within,NA,NaN,NA,right,3939.4000000059605,0,1,2119.0999999940395
nLp1SUay,3vck0q0pp8rxiiaq9ji6jar3xntn0d,31z0pcvwuosbiqdoigutw83aw77t7b,nLp1SUay,2020-0188,2021-10-17,17:37:13,18:50:27,NA,incomplete,false,NA,true,7,7,NA,NA,NA,left,absent,NA,NA,m_s_043.jpg,orange,m_s_037.jpg,yellow,between,NA,NaN,NA,right,2731,0,1,1365.9000000059605
nLp1SUay,3vck0q0pp8rxiiaq9ji6jar3xntn0d,31z0pcvwuosbiqdoigutw83aw77t7b,nLp1SUay,2020-0188,2021-10-17,17:37:13,18:50:27,NA,incomplete,false,NA,true,7,8,NA,NA,NA,right,absent,NA,NA,m_s_089.jpg,brown,m_l_106.jpg,white,between,NA,NaN,NA,right,2491.4000000059605,1,2,1267.9000000059605
nLp1SUay,3vck0q0pp8rxiiaq9ji6jar3xntn0d,31z0pcvwuosbiqdoigutw83aw77t7b,nLp1SUay,2020-0188,2021-10-17,17:37:13,18:50:27,NA,incomplete,false,NA,true,7,9,NA,NA,NA,right,absent,NA,NA,n_l_080.jpg,white,m_l_007.jpg,blue,between,NA,NaN,NA,right,3728.699999988079,1,1,1352.300000011921
nLp1SUay,3vck0q0pp8rxiiaq9ji6jar3xntn0d,31z0pcvwuosbiqdoigutw83aw77t7b,nLp1SUay,2020-0188,2021-10-17,17:37:13,18:50:27,NA,incomplete,false,NA,true,7,10,NA,NA,NA,left,absent,NA,NA,m_s_116.jpg,brown,m_s_026.jpg,red,between,NA,NaN,NA,left,3739.300000011921,1,1,1197
nLp1SUay,3vck0q0pp8rxiiaq9ji6jar3xntn0d,31z0pcvwuosbiqdoigutw83aw77t7b,nLp1SUay,2020-0188,2021-10-17,17:37:13,18:50:27,NA,incomplete,false,true,NA,8,0,NA,purple,n_l_059.jpg,NA,NA,pleasant,unpleasant,NA,NA,NA,NA,NA,right,1534.70000001788,true,NA,NA,NA,NA,NA
nLp1SUay,3vck0q0pp8rxiiaq9ji6jar3xntn0d,31z0pcvwuosbiqdoigutw83aw77t7b,nLp1SUay,2020-0188,2021-10-17,17:37:13,18:50:27,NA,incomplete,false,true,NA,8,1,NA,purple,m_s_096.jpg,NA,NA,unpleasant,pleasant,NA,NA,NA,NA,NA,right,1427.5,true,NA,NA,NA,NA,NA
nLp1SUay,3vck0q0pp8rxiiaq9ji6jar3xntn0d,31z0pcvwuosbiqdoigutw83aw77t7b,nLp1SUay,2020-0188,2021-10-17,17:37:13,18:50:27,NA,incomplete,false,true,NA,8,2,NA,purple,m_l_080.jpg,NA,NA,unpleasant,pleasant,NA,NA,NA,NA,NA,right,1125.09999999404,true,NA,NA,NA,NA,NA
nLp1SUay,3vck0q0pp8rxiiaq9ji6jar3xntn0d,31z0pcvwuosbiqdoigutw83aw77t7b,nLp1SUay,2020-0188,2021-10-17,17:37:13,18:50:27,NA,incomplete,false,true,NA,8,3,NA,purple,m_l_022.jpg,NA,NA,pleasant,unpleasant,NA,NA,NA,NA,NA,right,1153.90000000596,true,NA,NA,NA,NA,NA
nLp1SUay,3vck0q0pp8rxiiaq9ji6jar3xntn0d,31z0pcvwuosbiqdoigutw83aw77t7b,nLp1SUay,2020-0188,2021-10-17,17:37:13,18:50:27,NA,incomplete,false,true,NA,8,4,NA,purple,m_l_105.jpg,NA,NA,unpleasant,pleasant,NA,NA,NA,NA,NA,right,1122.5,true,NA,NA,NA,NA,NA
nLp1SUay,3vck0q0pp8rxiiaq9ji6jar3xntn0d,31z0pcvwuosbiqdoigutw83aw77t7b,nLp1SUay,2020-0188,2021-10-17,17:37:13,18:50:27,NA,incomplete,false,true,NA,8,5,NA,purple,m_l_037.jpg,NA,NA,unpleasant,pleasant,NA,NA,NA,NA,NA,right,1204.79999998212,true,NA,NA,NA,NA,NA
nLp1SUay,3vck0q0pp8rxiiaq9ji6jar3xntn0d,31z0pcvwuosbiqdoigutw83aw77t7b,nLp1SUay,2020-0188,2021-10-17,17:37:13,18:50:27,NA,incomplete,false,true,NA,8,6,NA,black,n_l_051.jpg,NA,NA,unpleasant,pleasant,NA,NA,NA,NA,NA,right,1044,true,NA,NA,NA,NA,NA
nLp1SUay,3vck0q0pp8rxiiaq9ji6jar3xntn0d,31z0pcvwuosbiqdoigutw83aw77t7b,nLp1SUay,2020-0188,2021-10-17,17:37:13,18:50:27,NA,incomplete,false,true,NA,8,7,NA,black,n_l_033.jpg,NA,NA,pleasant,unpleasant,NA,NA,NA,NA,NA,right,1320.5,true,NA,NA,NA,NA,NA
nLp1SUay,3vck0q0pp8rxiiaq9ji6jar3xntn0d,31z0pcvwuosbiqdoigutw83aw77t7b,nLp1SUay,2020-0188,2021-10-17,17:37:13,18:50:27,NA,incomplete,false,true,NA,8,8,NA,black,n_s_087.jpg,NA,NA,unpleasant,pleasant,NA,NA,NA,NA,NA,right,1103.40000000596,true,NA,NA,NA,NA,NA
