workerId,hitId,assignmentId,subject,studyid,exp_date,exp_start,exp_end,time_start,time_end,practice,encoding,memory,block,trial,event_order,event,stim,answer,context_type,label_left,label_right,left_image,left_event,right_image,right_event,condition,response,response_time,response_acc,order_response,order_response_time,order_acc,distance_response,distance_response_time
No2Qsh63,3t2hw4qdvykwn81ckpslwayk1hg9co,33ppungg3cihml62xmhhndvri3izr3,No2Qsh63,2020-0188,2021-10-14,06:41:39,08:07:16,NA,incomplete,true,true,NA,0,0,NA,purple,m_s_031.jpg,NA,NA,pleasant,unpleasant,NA,NA,NA,NA,NA,none,0,false,NA,NA,NA,NA,NA
No2Qsh63,3t2hw4qdvykwn81ckpslwayk1hg9co,33ppungg3cihml62xmhhndvri3izr3,No2Qsh63,2020-0188,2021-10-14,06:41:39,08:07:16,NA,incomplete,true,true,NA,0,1,NA,purple,m_l_114.jpg,NA,NA,unpleasant,pleasant,NA,NA,NA,NA,NA,right,2056.5,true,NA,NA,NA,NA,NA
No2Qsh63,3t2hw4qdvykwn81ckpslwayk1hg9co,33ppungg3cihml62xmhhndvri3izr3,No2Qsh63,2020-0188,2021-10-14,06:41:39,08:07:16,NA,incomplete,true,true,NA,0,2,NA,purple,m_s_069.jpg,NA,NA,pleasant,unpleasant,NA,NA,NA,NA,NA,right,480.800000011921,true,NA,NA,NA,NA,NA
No2Qsh63,3t2hw4qdvykwn81ckpslwayk1hg9co,33ppungg3cihml62xmhhndvri3izr3,No2Qsh63,2020-0188,2021-10-14,06:41:39,08:07:16,NA,incomplete,true,true,NA,0,3,NA,purple,m_s_013.jpg,NA,NA,pleasant,unpleasant,NA,NA,NA,NA,NA,left,1692,true,NA,NA,NA,NA,NA
No2Qsh63,3t2hw4qdvykwn81ckpslwayk1hg9co,33ppungg3cihml62xmhhndvri3izr3,No2Qsh63,2020-0188,2021-10-14,06:41:39,08:07:16,NA,incomplete,true,true,NA,0,4,NA,purple,m_s_023.jpg,NA,NA,pleasant,unpleasant,NA,NA,NA,NA,NA,right,1322.20000004768,true,NA,NA,NA,NA,NA
No2Qsh63,3t2hw4qdvykwn81ckpslwayk1hg9co,33ppungg3cihml62xmhhndvri3izr3,No2Qsh63,2020-0188,2021-10-14,06:41:39,08:07:16,NA,incomplete,true,true,NA,0,5,NA,purple,m_l_043.jpg,NA,NA,unpleasant,pleasant,NA,NA,NA,NA,NA,left,1992.10000002384,true,NA,NA,NA,NA,NA
No2Qsh63,3t2hw4qdvykwn81ckpslwayk1hg9co,33ppungg3cihml62xmhhndvri3izr3,No2Qsh63,2020-0188,2021-10-14,06:41:39,08:07:16,NA,incomplete,true,true,NA,0,6,NA,blue,n_s_102.jpg,NA,NA,pleasant,unpleasant,NA,NA,NA,NA,NA,left,1663.19999998808,true,NA,NA,NA,NA,NA
No2Qsh63,3t2hw4qdvykwn81ckpslwayk1hg9co,33ppungg3cihml62xmhhndvri3izr3,No2Qsh63,2020-0188,2021-10-14,06:41:39,08:07:16,NA,incomplete,true,true,NA,0,7,NA,blue,m_l_030.jpg,NA,NA,unpleasant,pleasant,NA,NA,NA,NA,NA,right,1783.90000003576,true,NA,NA,NA,NA,NA
No2Qsh63,3t2hw4qdvykwn81ckpslwayk1hg9co,33ppungg3cihml62xmhhndvri3izr3,No2Qsh63,2020-0188,2021-10-14,06:41:39,08:07:16,NA,incomplete,true,true,NA,0,8,NA,blue,m_l_003.jpg,NA,NA,pleasant,unpleasant,NA,NA,NA,NA,NA,right,1289.69999998808,true,NA,NA,NA,NA,NA
No2Qsh63,3t2hw4qdvykwn81ckpslwayk1hg9co,33ppungg3cihml62xmhhndvri3izr3,No2Qsh63,2020-0188,2021-10-14,06:41:39,08:07:16,NA,incomplete,true,true,NA,0,9,NA,blue,n_l_002.jpg,NA,NA,unpleasant,pleasant,NA,NA,NA,NA,NA,left,842.800000011921,true,NA,NA,NA,NA,NA
No2Qsh63,3t2hw4qdvykwn81ckpslwayk1hg9co,33ppungg3cihml62xmhhndvri3izr3,No2Qsh63,2020-0188,2021-10-14,06:41:39,08:07:16,NA,incomplete,true,true,NA,0,10,NA,blue,n_l_043.jpg,NA,NA,pleasant,unpleasant,NA,NA,NA,NA,NA,left,744.699999988079,true,NA,NA,NA,NA,NA
No2Qsh63,3t2hw4qdvykwn81ckpslwayk1hg9co,33ppungg3cihml62xmhhndvri3izr3,No2Qsh63,2020-0188,2021-10-14,06:41:39,08:07:16,NA,incomplete,true,true,NA,0,11,NA,blue,m_l_104.jpg,NA,NA,pleasant,unpleasant,NA,NA,NA,NA,NA,right,885.900000035763,true,NA,NA,NA,NA,NA
No2Qsh63,3t2hw4qdvykwn81ckpslwayk1hg9co,33ppungg3cihml62xmhhndvri3izr3,No2Qsh63,2020-0188,2021-10-14,06:41:39,08:07:16,NA,incomplete,true,true,NA,0,12,NA,green,n_l_001.jpg,NA,NA,pleasant,unpleasant,NA,NA,NA,NA,NA,left,1065.5,true,NA,NA,NA,NA,NA
No2Qsh63,3t2hw4qdvykwn81ckpslwayk1hg9co,33ppungg3cihml62xmhhndvri3izr3,No2Qsh63,2020-0188,2021-10-14,06:41:39,08:07:16,NA,incomplete,true,true,NA,0,13,NA,green,n_s_028.jpg,NA,NA,unpleasant,pleasant,NA,NA,NA,NA,NA,left,657.199999988079,true,NA,NA,NA,NA,NA
No2Qsh63,3t2hw4qdvykwn81ckpslwayk1hg9co,33ppungg3cihml62xmhhndvri3izr3,No2Qsh63,2020-0188,2021-10-14,06:41:39,08:07:16,NA,incomplete,true,true,NA,0,14,NA,green,n_s_035.jpg,NA,NA,pleasant,unpleasant,NA,NA,NA,NA,NA,right,2433.30000001192,true,NA,NA,NA,NA,NA
No2Qsh63,3t2hw4qdvykwn81ckpslwayk1hg9co,33ppungg3cihml62xmhhndvri3izr3,No2Qsh63,2020-0188,2021-10-14,06:41:39,08:07:16,NA,incomplete,true,true,NA,0,15,NA,green,n_s_010.jpg,NA,NA,pleasant,unpleasant,NA,NA,NA,NA,NA,right,3495.69999998808,true,NA,NA,NA,NA,NA
No2Qsh63,3t2hw4qdvykwn81ckpslwayk1hg9co,33ppungg3cihml62xmhhndvri3izr3,No2Qsh63,2020-0188,2021-10-14,06:41:39,08:07:16,NA,incomplete,true,true,NA,0,16,NA,green,m_s_030.jpg,NA,NA,unpleasant,pleasant,NA,NA,NA,NA,NA,right,1798.09999996424,true,NA,NA,NA,NA,NA
No2Qsh63,3t2hw4qdvykwn81ckpslwayk1hg9co,33ppungg3cihml62xmhhndvri3izr3,No2Qsh63,2020-0188,2021-10-14,06:41:39,08:07:16,NA,incomplete,true,true,NA,0,17,NA,green,n_s_002.jpg,NA,NA,pleasant,unpleasant,NA,NA,NA,NA,NA,right,1513.69999998808,true,NA,NA,NA,NA,NA
No2Qsh63,3t2hw4qdvykwn81ckpslwayk1hg9co,33ppungg3cihml62xmhhndvri3izr3,No2Qsh63,2020-0188,2021-10-14,06:41:39,08:07:16,NA,incomplete,true,true,NA,0,18,NA,yellow,m_l_091.jpg,NA,NA,pleasant,unpleasant,NA,NA,NA,NA,NA,right,1716.40000003576,true,NA,NA,NA,NA,NA
No2Qsh63,3t2hw4qdvykwn81ckpslwayk1hg9co,33ppungg3cihml62xmhhndvri3izr3,No2Qsh63,2020-0188,2021-10-14,06:41:39,08:07:16,NA,incomplete,true,true,NA,0,19,NA,yellow,m_s_052.jpg,NA,NA,unpleasant,pleasant,NA,NA,NA,NA,NA,right,1935,true,NA,NA,NA,NA,NA
No2Qsh63,3t2hw4qdvykwn81ckpslwayk1hg9co,33ppungg3cihml62xmhhndvri3izr3,No2Qsh63,2020-0188,2021-10-14,06:41:39,08:07:16,NA,incomplete,true,true,NA,0,20,NA,yellow,m_s_041.jpg,NA,NA,unpleasant,pleasant,NA,NA,NA,NA,NA,right,926.300000011921,true,NA,NA,NA,NA,NA
No2Qsh63,3t2hw4qdvykwn81ckpslwayk1hg9co,33ppungg3cihml62xmhhndvri3izr3,No2Qsh63,2020-0188,2021-10-14,06:41:39,08:07:16,NA,incomplete,true,true,NA,0,21,NA,yellow,n_l_104.jpg,NA,NA,unpleasant,pleasant,NA,NA,NA,NA,NA,right,1145.19999998808,true,NA,NA,NA,NA,NA
No2Qsh63,3t2hw4qdvykwn81ckpslwayk1hg9co,33ppungg3cihml62xmhhndvri3izr3,No2Qsh63,2020-0188,2021-10-14,06:41:39,08:07:16,NA,incomplete,true,true,NA,0,22,NA,yellow,m_l_050.jpg,NA,NA,unpleasant,pleasant,NA,NA,NA,NA,NA,right,1316.09999996424,true,NA,NA,NA,NA,NA
No2Qsh63,3t2hw4qdvykwn81ckpslwayk1hg9co,33ppungg3cihml62xmhhndvri3izr3,No2Qsh63,2020-0188,2021-10-14,06:41:39,08:07:16,NA,incomplete,true,true,NA,0,23,NA,yellow,n_s_110.jpg,NA,NA,unpleasant,pleasant,NA,NA,NA,NA,NA,left,1116.40000003576,true,NA,NA,NA,NA,NA
No2Qsh63,3t2hw4qdvykwn81ckpslwayk1hg9co,33ppungg3cihml62xmhhndvri3izr3,No2Qsh63,2020-0188,2021-10-14,06:41:39,08:07:16,NA,incomplete,true,true,NA,0,24,NA,orange,n_s_067.jpg,NA,NA,pleasant,unpleasant,NA,NA,NA,NA,NA,left,1142.90000003576,true,NA,NA,NA,NA,NA
No2Qsh63,3t2hw4qdvykwn81ckpslwayk1hg9co,33ppungg3cihml62xmhhndvri3izr3,No2Qsh63,2020-0188,2021-10-14,06:41:39,08:07:16,NA,incomplete,true,true,NA,0,25,NA,orange,n_l_014.jpg,NA,NA,unpleasant,pleasant,NA,NA,NA,NA,NA,left,1383.89999997616,true,NA,NA,NA,NA,NA
No2Qsh63,3t2hw4qdvykwn81ckpslwayk1hg9co,33ppungg3cihml62xmhhndvri3izr3,No2Qsh63,2020-0188,2021-10-14,06:41:39,08:07:16,NA,incomplete,true,true,NA,0,26,NA,orange,m_l_002.jpg,NA,NA,unpleasant,pleasant,NA,NA,NA,NA,NA,right,1903,true,NA,NA,NA,NA,NA
No2Qsh63,3t2hw4qdvykwn81ckpslwayk1hg9co,33ppungg3cihml62xmhhndvri3izr3,No2Qsh63,2020-0188,2021-10-14,06:41:39,08:07:16,NA,incomplete,true,true,NA,0,27,NA,orange,n_l_090.jpg,NA,NA,pleasant,unpleasant,NA,NA,NA,NA,NA,right,1343.69999998808,true,NA,NA,NA,NA,NA
No2Qsh63,3t2hw4qdvykwn81ckpslwayk1hg9co,33ppungg3cihml62xmhhndvri3izr3,No2Qsh63,2020-0188,2021-10-14,06:41:39,08:07:16,NA,incomplete,true,true,NA,0,28,NA,orange,n_l_081.jpg,NA,NA,unpleasant,pleasant,NA,NA,NA,NA,NA,right,1465.19999998808,true,NA,NA,NA,NA,NA
No2Qsh63,3t2hw4qdvykwn81ckpslwayk1hg9co,33ppungg3cihml62xmhhndvri3izr3,No2Qsh63,2020-0188,2021-10-14,06:41:39,08:07:16,NA,incomplete,true,true,NA,0,29,NA,orange,n_s_095.jpg,NA,NA,pleasant,unpleasant,NA,NA,NA,NA,NA,right,2243.09999996424,true,NA,NA,NA,NA,NA
No2Qsh63,3t2hw4qdvykwn81ckpslwayk1hg9co,33ppungg3cihml62xmhhndvri3izr3,No2Qsh63,2020-0188,2021-10-14,06:41:39,08:07:16,NA,incomplete,true,true,NA,0,30,NA,gray,n_s_061.jpg,NA,NA,unpleasant,pleasant,NA,NA,NA,NA,NA,right,891,true,NA,NA,NA,NA,NA
No2Qsh63,3t2hw4qdvykwn81ckpslwayk1hg9co,33ppungg3cihml62xmhhndvri3izr3,No2Qsh63,2020-0188,2021-10-14,06:41:39,08:07:16,NA,incomplete,true,true,NA,0,31,NA,gray,n_l_111.jpg,NA,NA,pleasant,unpleasant,NA,NA,NA,NA,NA,right,1579.19999998808,true,NA,NA,NA,NA,NA
No2Qsh63,3t2hw4qdvykwn81ckpslwayk1hg9co,33ppungg3cihml62xmhhndvri3izr3,No2Qsh63,2020-0188,2021-10-14,06:41:39,08:07:16,NA,incomplete,true,true,NA,0,32,NA,gray,n_l_060.jpg,NA,NA,unpleasant,pleasant,NA,NA,NA,NA,NA,right,1886.5,true,NA,NA,NA,NA,NA
No2Qsh63,3t2hw4qdvykwn81ckpslwayk1hg9co,33ppungg3cihml62xmhhndvri3izr3,No2Qsh63,2020-0188,2021-10-14,06:41:39,08:07:16,NA,incomplete,true,true,NA,0,33,NA,gray,m_l_039.jpg,NA,NA,unpleasant,pleasant,NA,NA,NA,NA,NA,left,1349.69999998808,true,NA,NA,NA,NA,NA
No2Qsh63,3t2hw4qdvykwn81ckpslwayk1hg9co,33ppungg3cihml62xmhhndvri3izr3,No2Qsh63,2020-0188,2021-10-14,06:41:39,08:07:16,NA,incomplete,true,true,NA,0,34,NA,gray,n_s_088.jpg,NA,NA,unpleasant,pleasant,NA,NA,NA,NA,NA,left,1400.10000002384,true,NA,NA,NA,NA,NA
No2Qsh63,3t2hw4qdvykwn81ckpslwayk1hg9co,33ppungg3cihml62xmhhndvri3izr3,No2Qsh63,2020-0188,2021-10-14,06:41:39,08:07:16,NA,incomplete,true,true,NA,0,35,NA,gray,n_s_094.jpg,NA,NA,unpleasant,pleasant,NA,NA,NA,NA,NA,right,1437.69999998808,true,NA,NA,NA,NA,NA
No2Qsh63,3t2hw4qdvykwn81ckpslwayk1hg9co,33ppungg3cihml62xmhhndvri3izr3,No2Qsh63,2020-0188,2021-10-14,06:41:39,08:07:16,NA,incomplete,true,NA,true,0,0,NA,NA,NA,right,absent,NA,NA,m_l_003.jpg,blue,m_s_023.jpg,purple,between,NA,NaN,NA,right,3198.599999964237,1,1,5135.699999988079
No2Qsh63,3t2hw4qdvykwn81ckpslwayk1hg9co,33ppungg3cihml62xmhhndvri3izr3,No2Qsh63,2020-0188,2021-10-14,06:41:39,08:07:16,NA,incomplete,true,NA,true,0,1,NA,NA,NA,left,absent,NA,NA,m_s_030.jpg,green,m_s_041.jpg,yellow,between,NA,NaN,NA,left,2326.900000035763,1,2,1898.9000000357628
No2Qsh63,3t2hw4qdvykwn81ckpslwayk1hg9co,33ppungg3cihml62xmhhndvri3izr3,No2Qsh63,2020-0188,2021-10-14,06:41:39,08:07:16,NA,incomplete,true,NA,true,0,2,NA,NA,NA,left,present,NA,NA,n_l_043.jpg,blue,n_s_035.jpg,green,between,NA,NaN,NA,left,4462.700000047684,1,2,1298.699999988079
No2Qsh63,3t2hw4qdvykwn81ckpslwayk1hg9co,33ppungg3cihml62xmhhndvri3izr3,No2Qsh63,2020-0188,2021-10-14,06:41:39,08:07:16,NA,incomplete,true,NA,true,0,3,NA,NA,NA,right,absent,NA,NA,n_l_060.jpg,gray,n_l_081.jpg,orange,between,NA,NaN,NA,right,3169.599999964237,1,2,2938.800000011921
No2Qsh63,3t2hw4qdvykwn81ckpslwayk1hg9co,33ppungg3cihml62xmhhndvri3izr3,No2Qsh63,2020-0188,2021-10-14,06:41:39,08:07:16,NA,incomplete,true,NA,true,0,4,NA,NA,NA,right,absent,NA,NA,m_l_002.jpg,orange,m_l_050.jpg,yellow,between,NA,NaN,NA,right,4715.199999988079,1,1,1363.199999988079
No2Qsh63,3t2hw4qdvykwn81ckpslwayk1hg9co,33ppungg3cihml62xmhhndvri3izr3,No2Qsh63,2020-0188,2021-10-14,06:41:39,08:07:16,NA,incomplete,true,NA,true,0,5,NA,NA,NA,right,present,NA,NA,n_s_094.jpg,gray,n_l_111.jpg,gray,within,NA,NaN,NA,left,5610.300000011921,0,2,1587
No2Qsh63,3t2hw4qdvykwn81ckpslwayk1hg9co,33ppungg3cihml62xmhhndvri3izr3,No2Qsh63,2020-0188,2021-10-14,06:41:39,08:07:16,NA,incomplete,true,NA,true,0,6,NA,NA,NA,right,present,NA,NA,m_l_104.jpg,blue,m_l_030.jpg,blue,within,NA,NaN,NA,right,6446.600000023842,1,1,1238.5
No2Qsh63,3t2hw4qdvykwn81ckpslwayk1hg9co,33ppungg3cihml62xmhhndvri3izr3,No2Qsh63,2020-0188,2021-10-14,06:41:39,08:07:16,NA,incomplete,true,NA,true,0,7,NA,NA,NA,right,present,NA,NA,m_l_043.jpg,purple,m_l_114.jpg,purple,within,NA,NaN,NA,left,4252,0,1,2130.900000035763
No2Qsh63,3t2hw4qdvykwn81ckpslwayk1hg9co,33ppungg3cihml62xmhhndvri3izr3,No2Qsh63,2020-0188,2021-10-14,06:41:39,08:07:16,NA,incomplete,true,NA,true,0,8,NA,NA,NA,left,present,NA,NA,m_s_052.jpg,yellow,n_s_110.jpg,yellow,within,NA,NaN,NA,right,4839.100000023842,0,2,1686.6000000238419
No2Qsh63,3t2hw4qdvykwn81ckpslwayk1hg9co,33ppungg3cihml62xmhhndvri3izr3,No2Qsh63,2020-0188,2021-10-14,06:41:39,08:07:16,NA,incomplete,true,NA,true,0,9,NA,NA,NA,left,absent,NA,NA,n_s_028.jpg,green,n_s_002.jpg,green,within,NA,NaN,NA,left,2879.100000023842,1,2,1910.8999999761581
No2Qsh63,3t2hw4qdvykwn81ckpslwayk1hg9co,33ppungg3cihml62xmhhndvri3izr3,No2Qsh63,2020-0188,2021-10-14,06:41:39,08:07:16,NA,incomplete,true,NA,true,0,10,NA,NA,NA,right,absent,NA,NA,n_s_095.jpg,orange,n_l_014.jpg,orange,within,NA,NaN,NA,left,7454.699999988079,0,1,3171.100000023842
No2Qsh63,3t2hw4qdvykwn81ckpslwayk1hg9co,33ppungg3cihml62xmhhndvri3izr3,No2Qsh63,2020-0188,2021-10-14,06:41:39,08:07:16,NA,incomplete,false,true,NA,1,0,NA,red,m_l_069.jpg,NA,NA,pleasant,unpleasant,NA,NA,NA,NA,NA,none,0,false,NA,NA,NA,NA,NA
No2Qsh63,3t2hw4qdvykwn81ckpslwayk1hg9co,33ppungg3cihml62xmhhndvri3izr3,No2Qsh63,2020-0188,2021-10-14,06:41:39,08:07:16,NA,incomplete,false,true,NA,1,1,NA,red,m_s_070.jpg,NA,NA,pleasant,unpleasant,NA,NA,NA,NA,NA,right,790.899999976158,true,NA,NA,NA,NA,NA
No2Qsh63,3t2hw4qdvykwn81ckpslwayk1hg9co,33ppungg3cihml62xmhhndvri3izr3,No2Qsh63,2020-0188,2021-10-14,06:41:39,08:07:16,NA,incomplete,false,true,NA,1,2,NA,red,n_l_088.jpg,NA,NA,pleasant,unpleasant,NA,NA,NA,NA,NA,right,1761.09999996424,true,NA,NA,NA,NA,NA
No2Qsh63,3t2hw4qdvykwn81ckpslwayk1hg9co,33ppungg3cihml62xmhhndvri3izr3,No2Qsh63,2020-0188,2021-10-14,06:41:39,08:07:16,NA,incomplete,false,true,NA,1,3,NA,red,n_l_076.jpg,NA,NA,pleasant,unpleasant,NA,NA,NA,NA,NA,left,1946.10000002384,true,NA,NA,NA,NA,NA
No2Qsh63,3t2hw4qdvykwn81ckpslwayk1hg9co,33ppungg3cihml62xmhhndvri3izr3,No2Qsh63,2020-0188,2021-10-14,06:41:39,08:07:16,NA,incomplete,false,true,NA,1,4,NA,red,n_s_005.jpg,NA,NA,unpleasant,pleasant,NA,NA,NA,NA,NA,right,2100.30000001192,true,NA,NA,NA,NA,NA
No2Qsh63,3t2hw4qdvykwn81ckpslwayk1hg9co,33ppungg3cihml62xmhhndvri3izr3,No2Qsh63,2020-0188,2021-10-14,06:41:39,08:07:16,NA,incomplete,false,true,NA,1,5,NA,red,m_l_076.jpg,NA,NA,pleasant,unpleasant,NA,NA,NA,NA,NA,right,1215.69999998808,true,NA,NA,NA,NA,NA
No2Qsh63,3t2hw4qdvykwn81ckpslwayk1hg9co,33ppungg3cihml62xmhhndvri3izr3,No2Qsh63,2020-0188,2021-10-14,06:41:39,08:07:16,NA,incomplete,false,true,NA,1,6,NA,green,m_l_021.jpg,NA,NA,unpleasant,pleasant,NA,NA,NA,NA,NA,right,1715.30000001192,true,NA,NA,NA,NA,NA
No2Qsh63,3t2hw4qdvykwn81ckpslwayk1hg9co,33ppungg3cihml62xmhhndvri3izr3,No2Qsh63,2020-0188,2021-10-14,06:41:39,08:07:16,NA,incomplete,false,true,NA,1,7,NA,green,m_s_056.jpg,NA,NA,pleasant,unpleasant,NA,NA,NA,NA,NA,left,1733.5,true,NA,NA,NA,NA,NA
No2Qsh63,3t2hw4qdvykwn81ckpslwayk1hg9co,33ppungg3cihml62xmhhndvri3izr3,No2Qsh63,2020-0188,2021-10-14,06:41:39,08:07:16,NA,incomplete,false,true,NA,1,8,NA,green,m_l_057.jpg,NA,NA,unpleasant,pleasant,NA,NA,NA,NA,NA,right,1149.20000004768,true,NA,NA,NA,NA,NA
No2Qsh63,3t2hw4qdvykwn81ckpslwayk1hg9co,33ppungg3cihml62xmhhndvri3izr3,No2Qsh63,2020-0188,2021-10-14,06:41:39,08:07:16,NA,incomplete,false,true,NA,1,9,NA,green,m_s_047.jpg,NA,NA,pleasant,unpleasant,NA,NA,NA,NA,NA,right,884.300000011921,true,NA,NA,NA,NA,NA
No2Qsh63,3t2hw4qdvykwn81ckpslwayk1hg9co,33ppungg3cihml62xmhhndvri3izr3,No2Qsh63,2020-0188,2021-10-14,06:41:39,08:07:16,NA,incomplete,false,true,NA,1,10,NA,green,n_l_110.jpg,NA,NA,pleasant,unpleasant,NA,NA,NA,NA,NA,right,1256.69999998808,true,NA,NA,NA,NA,NA
No2Qsh63,3t2hw4qdvykwn81ckpslwayk1hg9co,33ppungg3cihml62xmhhndvri3izr3,No2Qsh63,2020-0188,2021-10-14,06:41:39,08:07:16,NA,incomplete,false,true,NA,1,11,NA,green,m_s_107.jpg,NA,NA,pleasant,unpleasant,NA,NA,NA,NA,NA,right,2026.19999998808,true,NA,NA,NA,NA,NA
No2Qsh63,3t2hw4qdvykwn81ckpslwayk1hg9co,33ppungg3cihml62xmhhndvri3izr3,No2Qsh63,2020-0188,2021-10-14,06:41:39,08:07:16,NA,incomplete,false,true,NA,1,12,NA,orange,m_l_004.jpg,NA,NA,pleasant,unpleasant,NA,NA,NA,NA,NA,right,2062.80000001192,true,NA,NA,NA,NA,NA
No2Qsh63,3t2hw4qdvykwn81ckpslwayk1hg9co,33ppungg3cihml62xmhhndvri3izr3,No2Qsh63,2020-0188,2021-10-14,06:41:39,08:07:16,NA,incomplete,false,true,NA,1,13,NA,orange,m_s_084.jpg,NA,NA,pleasant,unpleasant,NA,NA,NA,NA,NA,left,1645.60000002384,true,NA,NA,NA,NA,NA
No2Qsh63,3t2hw4qdvykwn81ckpslwayk1hg9co,33ppungg3cihml62xmhhndvri3izr3,No2Qsh63,2020-0188,2021-10-14,06:41:39,08:07:16,NA,incomplete,false,true,NA,1,14,NA,orange,n_l_038.jpg,NA,NA,unpleasant,pleasant,NA,NA,NA,NA,NA,left,2063.09999996424,true,NA,NA,NA,NA,NA
No2Qsh63,3t2hw4qdvykwn81ckpslwayk1hg9co,33ppungg3cihml62xmhhndvri3izr3,No2Qsh63,2020-0188,2021-10-14,06:41:39,08:07:16,NA,incomplete,false,true,NA,1,15,NA,orange,m_l_041.jpg,NA,NA,pleasant,unpleasant,NA,NA,NA,NA,NA,left,1469.30000001192,true,NA,NA,NA,NA,NA
No2Qsh63,3t2hw4qdvykwn81ckpslwayk1hg9co,33ppungg3cihml62xmhhndvri3izr3,No2Qsh63,2020-0188,2021-10-14,06:41:39,08:07:16,NA,incomplete,false,true,NA,1,16,NA,orange,n_s_104.jpg,NA,NA,unpleasant,pleasant,NA,NA,NA,NA,NA,right,1677.39999997616,true,NA,NA,NA,NA,NA
No2Qsh63,3t2hw4qdvykwn81ckpslwayk1hg9co,33ppungg3cihml62xmhhndvri3izr3,No2Qsh63,2020-0188,2021-10-14,06:41:39,08:07:16,NA,incomplete,false,true,NA,1,17,NA,orange,m_l_045.jpg,NA,NA,unpleasant,pleasant,NA,NA,NA,NA,NA,left,1765.80000001192,true,NA,NA,NA,NA,NA
No2Qsh63,3t2hw4qdvykwn81ckpslwayk1hg9co,33ppungg3cihml62xmhhndvri3izr3,No2Qsh63,2020-0188,2021-10-14,06:41:39,08:07:16,NA,incomplete,false,true,NA,1,18,NA,gray,m_s_113.jpg,NA,NA,pleasant,unpleasant,NA,NA,NA,NA,NA,right,1036.39999997616,true,NA,NA,NA,NA,NA
No2Qsh63,3t2hw4qdvykwn81ckpslwayk1hg9co,33ppungg3cihml62xmhhndvri3izr3,No2Qsh63,2020-0188,2021-10-14,06:41:39,08:07:16,NA,incomplete,false,true,NA,1,19,NA,gray,m_l_012.jpg,NA,NA,pleasant,unpleasant,NA,NA,NA,NA,NA,left,1675.80000001192,true,NA,NA,NA,NA,NA
No2Qsh63,3t2hw4qdvykwn81ckpslwayk1hg9co,33ppungg3cihml62xmhhndvri3izr3,No2Qsh63,2020-0188,2021-10-14,06:41:39,08:07:16,NA,incomplete,false,true,NA,1,20,NA,gray,n_l_027.jpg,NA,NA,unpleasant,pleasant,NA,NA,NA,NA,NA,right,1618,true,NA,NA,NA,NA,NA
No2Qsh63,3t2hw4qdvykwn81ckpslwayk1hg9co,33ppungg3cihml62xmhhndvri3izr3,No2Qsh63,2020-0188,2021-10-14,06:41:39,08:07:16,NA,incomplete,false,true,NA,1,21,NA,gray,m_l_007.jpg,NA,NA,unpleasant,pleasant,NA,NA,NA,NA,NA,right,1047,true,NA,NA,NA,NA,NA
No2Qsh63,3t2hw4qdvykwn81ckpslwayk1hg9co,33ppungg3cihml62xmhhndvri3izr3,No2Qsh63,2020-0188,2021-10-14,06:41:39,08:07:16,NA,incomplete,false,true,NA,1,22,NA,gray,m_l_115.jpg,NA,NA,pleasant,unpleasant,NA,NA,NA,NA,NA,right,1392.5,true,NA,NA,NA,NA,NA
No2Qsh63,3t2hw4qdvykwn81ckpslwayk1hg9co,33ppungg3cihml62xmhhndvri3izr3,No2Qsh63,2020-0188,2021-10-14,06:41:39,08:07:16,NA,incomplete,false,true,NA,1,23,NA,gray,m_s_079.jpg,NA,NA,unpleasant,pleasant,NA,NA,NA,NA,NA,left,2596.09999996424,true,NA,NA,NA,NA,NA
No2Qsh63,3t2hw4qdvykwn81ckpslwayk1hg9co,33ppungg3cihml62xmhhndvri3izr3,No2Qsh63,2020-0188,2021-10-14,06:41:39,08:07:16,NA,incomplete,false,true,NA,1,24,NA,white,n_s_031.jpg,NA,NA,pleasant,unpleasant,NA,NA,NA,NA,NA,left,1452.60000002384,true,NA,NA,NA,NA,NA
No2Qsh63,3t2hw4qdvykwn81ckpslwayk1hg9co,33ppungg3cihml62xmhhndvri3izr3,No2Qsh63,2020-0188,2021-10-14,06:41:39,08:07:16,NA,incomplete,false,true,NA,1,25,NA,white,n_l_069.jpg,NA,NA,pleasant,unpleasant,NA,NA,NA,NA,NA,left,1021.40000003576,true,NA,NA,NA,NA,NA
No2Qsh63,3t2hw4qdvykwn81ckpslwayk1hg9co,33ppungg3cihml62xmhhndvri3izr3,No2Qsh63,2020-0188,2021-10-14,06:41:39,08:07:16,NA,incomplete,false,true,NA,1,26,NA,white,n_l_066.jpg,NA,NA,unpleasant,pleasant,NA,NA,NA,NA,NA,left,859.799999952316,true,NA,NA,NA,NA,NA
No2Qsh63,3t2hw4qdvykwn81ckpslwayk1hg9co,33ppungg3cihml62xmhhndvri3izr3,No2Qsh63,2020-0188,2021-10-14,06:41:39,08:07:16,NA,incomplete,false,true,NA,1,27,NA,white,m_s_001.jpg,NA,NA,unpleasant,pleasant,NA,NA,NA,NA,NA,right,1945.60000002384,true,NA,NA,NA,NA,NA
No2Qsh63,3t2hw4qdvykwn81ckpslwayk1hg9co,33ppungg3cihml62xmhhndvri3izr3,No2Qsh63,2020-0188,2021-10-14,06:41:39,08:07:16,NA,incomplete,false,true,NA,1,28,NA,white,m_s_076.jpg,NA,NA,unpleasant,pleasant,NA,NA,NA,NA,NA,right,1133.60000002384,true,NA,NA,NA,NA,NA
No2Qsh63,3t2hw4qdvykwn81ckpslwayk1hg9co,33ppungg3cihml62xmhhndvri3izr3,No2Qsh63,2020-0188,2021-10-14,06:41:39,08:07:16,NA,incomplete,false,true,NA,1,29,NA,white,m_s_099.jpg,NA,NA,unpleasant,pleasant,NA,NA,NA,NA,NA,right,1363.39999997616,true,NA,NA,NA,NA,NA
No2Qsh63,3t2hw4qdvykwn81ckpslwayk1hg9co,33ppungg3cihml62xmhhndvri3izr3,No2Qsh63,2020-0188,2021-10-14,06:41:39,08:07:16,NA,incomplete,false,true,NA,1,30,NA,blue,n_s_027.jpg,NA,NA,unpleasant,pleasant,NA,NA,NA,NA,NA,left,2181.80000001192,true,NA,NA,NA,NA,NA
No2Qsh63,3t2hw4qdvykwn81ckpslwayk1hg9co,33ppungg3cihml62xmhhndvri3izr3,No2Qsh63,2020-0188,2021-10-14,06:41:39,08:07:16,NA,incomplete,false,true,NA,1,31,NA,blue,n_s_051.jpg,NA,NA,unpleasant,pleasant,NA,NA,NA,NA,NA,left,2479.79999995232,true,NA,NA,NA,NA,NA
No2Qsh63,3t2hw4qdvykwn81ckpslwayk1hg9co,33ppungg3cihml62xmhhndvri3izr3,No2Qsh63,2020-0188,2021-10-14,06:41:39,08:07:16,NA,incomplete,false,true,NA,1,32,NA,blue,m_l_027.jpg,NA,NA,unpleasant,pleasant,NA,NA,NA,NA,NA,right,1901.80000001192,true,NA,NA,NA,NA,NA
No2Qsh63,3t2hw4qdvykwn81ckpslwayk1hg9co,33ppungg3cihml62xmhhndvri3izr3,No2Qsh63,2020-0188,2021-10-14,06:41:39,08:07:16,NA,incomplete,false,true,NA,1,33,NA,blue,n_s_045.jpg,NA,NA,pleasant,unpleasant,NA,NA,NA,NA,NA,left,2100.79999995232,true,NA,NA,NA,NA,NA
No2Qsh63,3t2hw4qdvykwn81ckpslwayk1hg9co,33ppungg3cihml62xmhhndvri3izr3,No2Qsh63,2020-0188,2021-10-14,06:41:39,08:07:16,NA,incomplete,false,true,NA,1,34,NA,blue,n_l_105.jpg,NA,NA,unpleasant,pleasant,NA,NA,NA,NA,NA,left,1542.90000003576,true,NA,NA,NA,NA,NA
No2Qsh63,3t2hw4qdvykwn81ckpslwayk1hg9co,33ppungg3cihml62xmhhndvri3izr3,No2Qsh63,2020-0188,2021-10-14,06:41:39,08:07:16,NA,incomplete,false,true,NA,1,35,NA,blue,m_l_034.jpg,NA,NA,unpleasant,pleasant,NA,NA,NA,NA,NA,left,1297.69999998808,true,NA,NA,NA,NA,NA
No2Qsh63,3t2hw4qdvykwn81ckpslwayk1hg9co,33ppungg3cihml62xmhhndvri3izr3,No2Qsh63,2020-0188,2021-10-14,06:41:39,08:07:16,NA,incomplete,false,NA,true,1,0,NA,NA,NA,right,present,NA,NA,n_l_066.jpg,white,m_l_115.jpg,gray,between,NA,NaN,NA,left,2926,0,1,2982.5
No2Qsh63,3t2hw4qdvykwn81ckpslwayk1hg9co,33ppungg3cihml62xmhhndvri3izr3,No2Qsh63,2020-0188,2021-10-14,06:41:39,08:07:16,NA,incomplete,false,NA,true,1,1,NA,NA,NA,right,present,NA,NA,m_l_057.jpg,green,n_s_005.jpg,red,between,NA,NaN,NA,left,3410.300000011921,0,1,1541.300000011921
No2Qsh63,3t2hw4qdvykwn81ckpslwayk1hg9co,33ppungg3cihml62xmhhndvri3izr3,No2Qsh63,2020-0188,2021-10-14,06:41:39,08:07:16,NA,incomplete,false,NA,true,1,2,NA,NA,NA,right,present,NA,NA,m_l_045.jpg,orange,m_s_084.jpg,orange,within,NA,NaN,NA,left,3950.400000035763,0,1,2366.2000000476837
No2Qsh63,3t2hw4qdvykwn81ckpslwayk1hg9co,33ppungg3cihml62xmhhndvri3izr3,No2Qsh63,2020-0188,2021-10-14,06:41:39,08:07:16,NA,incomplete,false,NA,true,1,3,NA,NA,NA,right,present,NA,NA,n_l_038.jpg,orange,n_l_110.jpg,green,between,NA,NaN,NA,right,7774.200000047684,1,1,1107.3999999761581
No2Qsh63,3t2hw4qdvykwn81ckpslwayk1hg9co,33ppungg3cihml62xmhhndvri3izr3,No2Qsh63,2020-0188,2021-10-14,06:41:39,08:07:16,NA,incomplete,false,NA,true,1,4,NA,NA,NA,left,present,NA,NA,n_s_104.jpg,orange,n_l_027.jpg,gray,between,NA,NaN,NA,left,4682.5,1,1,1614.800000011921
No2Qsh63,3t2hw4qdvykwn81ckpslwayk1hg9co,33ppungg3cihml62xmhhndvri3izr3,No2Qsh63,2020-0188,2021-10-14,06:41:39,08:07:16,NA,incomplete,false,NA,true,1,5,NA,NA,NA,left,present,NA,NA,m_s_076.jpg,white,m_l_027.jpg,blue,between,NA,NaN,NA,left,2695.699999988079,1,1,1659
No2Qsh63,3t2hw4qdvykwn81ckpslwayk1hg9co,33ppungg3cihml62xmhhndvri3izr3,No2Qsh63,2020-0188,2021-10-14,06:41:39,08:07:16,NA,incomplete,false,NA,true,1,6,NA,NA,NA,right,present,NA,NA,m_l_034.jpg,blue,n_s_051.jpg,blue,within,NA,NaN,NA,right,1631,1,1,1768.2999999523163
No2Qsh63,3t2hw4qdvykwn81ckpslwayk1hg9co,33ppungg3cihml62xmhhndvri3izr3,No2Qsh63,2020-0188,2021-10-14,06:41:39,08:07:16,NA,incomplete,false,NA,true,1,7,NA,NA,NA,right,present,NA,NA,m_s_099.jpg,white,n_l_069.jpg,white,within,NA,NaN,NA,right,3226.600000023842,1,1,1724.1000000238419
No2Qsh63,3t2hw4qdvykwn81ckpslwayk1hg9co,33ppungg3cihml62xmhhndvri3izr3,No2Qsh63,2020-0188,2021-10-14,06:41:39,08:07:16,NA,incomplete,false,NA,true,1,8,NA,NA,NA,left,present,NA,NA,m_s_056.jpg,green,m_s_107.jpg,green,within,NA,NaN,NA,left,6175,1,2,1238.699999988079
No2Qsh63,3t2hw4qdvykwn81ckpslwayk1hg9co,33ppungg3cihml62xmhhndvri3izr3,No2Qsh63,2020-0188,2021-10-14,06:41:39,08:07:16,NA,incomplete,false,NA,true,1,9,NA,NA,NA,left,present,NA,NA,m_l_012.jpg,gray,m_s_079.jpg,gray,within,NA,NaN,NA,right,3294.800000011921,0,1,1766.9000000357628
No2Qsh63,3t2hw4qdvykwn81ckpslwayk1hg9co,33ppungg3cihml62xmhhndvri3izr3,No2Qsh63,2020-0188,2021-10-14,06:41:39,08:07:16,NA,incomplete,false,NA,true,1,10,NA,NA,NA,right,present,NA,NA,m_l_076.jpg,red,m_s_070.jpg,red,within,NA,NaN,NA,left,2866.800000011921,0,2,2506.199999988079
No2Qsh63,3t2hw4qdvykwn81ckpslwayk1hg9co,33ppungg3cihml62xmhhndvri3izr3,No2Qsh63,2020-0188,2021-10-14,06:41:39,08:07:16,NA,incomplete,false,true,NA,2,0,NA,brown,m_l_013.jpg,NA,NA,pleasant,unpleasant,NA,NA,NA,NA,NA,none,0,false,NA,NA,NA,NA,NA
No2Qsh63,3t2hw4qdvykwn81ckpslwayk1hg9co,33ppungg3cihml62xmhhndvri3izr3,No2Qsh63,2020-0188,2021-10-14,06:41:39,08:07:16,NA,incomplete,false,true,NA,2,1,NA,brown,m_l_009.jpg,NA,NA,pleasant,unpleasant,NA,NA,NA,NA,NA,left,1052.5,true,NA,NA,NA,NA,NA
No2Qsh63,3t2hw4qdvykwn81ckpslwayk1hg9co,33ppungg3cihml62xmhhndvri3izr3,No2Qsh63,2020-0188,2021-10-14,06:41:39,08:07:16,NA,incomplete,false,true,NA,2,2,NA,brown,m_l_060.jpg,NA,NA,pleasant,unpleasant,NA,NA,NA,NA,NA,right,713.400000035763,true,NA,NA,NA,NA,NA
No2Qsh63,3t2hw4qdvykwn81ckpslwayk1hg9co,33ppungg3cihml62xmhhndvri3izr3,No2Qsh63,2020-0188,2021-10-14,06:41:39,08:07:16,NA,incomplete,false,true,NA,2,3,NA,brown,m_s_039.jpg,NA,NA,pleasant,unpleasant,NA,NA,NA,NA,NA,right,613,true,NA,NA,NA,NA,NA
No2Qsh63,3t2hw4qdvykwn81ckpslwayk1hg9co,33ppungg3cihml62xmhhndvri3izr3,No2Qsh63,2020-0188,2021-10-14,06:41:39,08:07:16,NA,incomplete,false,true,NA,2,4,NA,brown,n_s_012.jpg,NA,NA,pleasant,unpleasant,NA,NA,NA,NA,NA,left,1980.69999998808,true,NA,NA,NA,NA,NA
No2Qsh63,3t2hw4qdvykwn81ckpslwayk1hg9co,33ppungg3cihml62xmhhndvri3izr3,No2Qsh63,2020-0188,2021-10-14,06:41:39,08:07:16,NA,incomplete,false,true,NA,2,5,NA,brown,n_s_068.jpg,NA,NA,pleasant,unpleasant,NA,NA,NA,NA,NA,left,1131.79999995232,true,NA,NA,NA,NA,NA
No2Qsh63,3t2hw4qdvykwn81ckpslwayk1hg9co,33ppungg3cihml62xmhhndvri3izr3,No2Qsh63,2020-0188,2021-10-14,06:41:39,08:07:16,NA,incomplete,false,true,NA,2,6,NA,black,m_s_077.jpg,NA,NA,unpleasant,pleasant,NA,NA,NA,NA,NA,left,1117.20000004768,true,NA,NA,NA,NA,NA
No2Qsh63,3t2hw4qdvykwn81ckpslwayk1hg9co,33ppungg3cihml62xmhhndvri3izr3,No2Qsh63,2020-0188,2021-10-14,06:41:39,08:07:16,NA,incomplete,false,true,NA,2,7,NA,black,m_l_089.jpg,NA,NA,unpleasant,pleasant,NA,NA,NA,NA,NA,left,1738.80000001192,true,NA,NA,NA,NA,NA
No2Qsh63,3t2hw4qdvykwn81ckpslwayk1hg9co,33ppungg3cihml62xmhhndvri3izr3,No2Qsh63,2020-0188,2021-10-14,06:41:39,08:07:16,NA,incomplete,false,true,NA,2,8,NA,black,m_l_116.jpg,NA,NA,pleasant,unpleasant,NA,NA,NA,NA,NA,left,2667.5,true,NA,NA,NA,NA,NA
No2Qsh63,3t2hw4qdvykwn81ckpslwayk1hg9co,33ppungg3cihml62xmhhndvri3izr3,No2Qsh63,2020-0188,2021-10-14,06:41:39,08:07:16,NA,incomplete,false,true,NA,2,9,NA,black,n_l_020.jpg,NA,NA,unpleasant,pleasant,NA,NA,NA,NA,NA,left,1607.39999997616,true,NA,NA,NA,NA,NA
No2Qsh63,3t2hw4qdvykwn81ckpslwayk1hg9co,33ppungg3cihml62xmhhndvri3izr3,No2Qsh63,2020-0188,2021-10-14,06:41:39,08:07:16,NA,incomplete,false,true,NA,2,10,NA,black,n_l_050.jpg,NA,NA,unpleasant,pleasant,NA,NA,NA,NA,NA,left,1285.80000001192,true,NA,NA,NA,NA,NA
No2Qsh63,3t2hw4qdvykwn81ckpslwayk1hg9co,33ppungg3cihml62xmhhndvri3izr3,No2Qsh63,2020-0188,2021-10-14,06:41:39,08:07:16,NA,incomplete,false,true,NA,2,11,NA,black,n_s_034.jpg,NA,NA,unpleasant,pleasant,NA,NA,NA,NA,NA,left,883.199999988079,true,NA,NA,NA,NA,NA
No2Qsh63,3t2hw4qdvykwn81ckpslwayk1hg9co,33ppungg3cihml62xmhhndvri3izr3,No2Qsh63,2020-0188,2021-10-14,06:41:39,08:07:16,NA,incomplete,false,true,NA,2,12,NA,blue,n_l_064.jpg,NA,NA,unpleasant,pleasant,NA,NA,NA,NA,NA,left,593.199999988079,true,NA,NA,NA,NA,NA
No2Qsh63,3t2hw4qdvykwn81ckpslwayk1hg9co,33ppungg3cihml62xmhhndvri3izr3,No2Qsh63,2020-0188,2021-10-14,06:41:39,08:07:16,NA,incomplete,false,true,NA,2,13,NA,blue,n_l_108.jpg,NA,NA,unpleasant,pleasant,NA,NA,NA,NA,NA,left,797.5,true,NA,NA,NA,NA,NA
No2Qsh63,3t2hw4qdvykwn81ckpslwayk1hg9co,33ppungg3cihml62xmhhndvri3izr3,No2Qsh63,2020-0188,2021-10-14,06:41:39,08:07:16,NA,incomplete,false,true,NA,2,14,NA,blue,m_l_067.jpg,NA,NA,unpleasant,pleasant,NA,NA,NA,NA,NA,left,1533.80000001192,true,NA,NA,NA,NA,NA
No2Qsh63,3t2hw4qdvykwn81ckpslwayk1hg9co,33ppungg3cihml62xmhhndvri3izr3,No2Qsh63,2020-0188,2021-10-14,06:41:39,08:07:16,NA,incomplete,false,true,NA,2,15,NA,blue,n_l_057.jpg,NA,NA,pleasant,unpleasant,NA,NA,NA,NA,NA,left,1302,true,NA,NA,NA,NA,NA
No2Qsh63,3t2hw4qdvykwn81ckpslwayk1hg9co,33ppungg3cihml62xmhhndvri3izr3,No2Qsh63,2020-0188,2021-10-14,06:41:39,08:07:16,NA,incomplete,false,true,NA,2,16,NA,blue,n_s_014.jpg,NA,NA,unpleasant,pleasant,NA,NA,NA,NA,NA,left,1297.5,true,NA,NA,NA,NA,NA
No2Qsh63,3t2hw4qdvykwn81ckpslwayk1hg9co,33ppungg3cihml62xmhhndvri3izr3,No2Qsh63,2020-0188,2021-10-14,06:41:39,08:07:16,NA,incomplete,false,true,NA,2,17,NA,blue,n_l_078.jpg,NA,NA,unpleasant,pleasant,NA,NA,NA,NA,NA,right,1581.30000001192,true,NA,NA,NA,NA,NA
No2Qsh63,3t2hw4qdvykwn81ckpslwayk1hg9co,33ppungg3cihml62xmhhndvri3izr3,No2Qsh63,2020-0188,2021-10-14,06:41:39,08:07:16,NA,incomplete,false,true,NA,2,18,NA,purple,m_l_037.jpg,NA,NA,unpleasant,pleasant,NA,NA,NA,NA,NA,right,798.800000011921,true,NA,NA,NA,NA,NA
No2Qsh63,3t2hw4qdvykwn81ckpslwayk1hg9co,33ppungg3cihml62xmhhndvri3izr3,No2Qsh63,2020-0188,2021-10-14,06:41:39,08:07:16,NA,incomplete,false,true,NA,2,19,NA,purple,m_s_100.jpg,NA,NA,unpleasant,pleasant,NA,NA,NA,NA,NA,right,717,true,NA,NA,NA,NA,NA
No2Qsh63,3t2hw4qdvykwn81ckpslwayk1hg9co,33ppungg3cihml62xmhhndvri3izr3,No2Qsh63,2020-0188,2021-10-14,06:41:39,08:07:16,NA,incomplete,false,true,NA,2,20,NA,purple,n_l_018.jpg,NA,NA,pleasant,unpleasant,NA,NA,NA,NA,NA,right,921.399999976158,true,NA,NA,NA,NA,NA
No2Qsh63,3t2hw4qdvykwn81ckpslwayk1hg9co,33ppungg3cihml62xmhhndvri3izr3,No2Qsh63,2020-0188,2021-10-14,06:41:39,08:07:16,NA,incomplete,false,true,NA,2,21,NA,purple,n_s_029.jpg,NA,NA,unpleasant,pleasant,NA,NA,NA,NA,NA,right,750.800000011921,true,NA,NA,NA,NA,NA
No2Qsh63,3t2hw4qdvykwn81ckpslwayk1hg9co,33ppungg3cihml62xmhhndvri3izr3,No2Qsh63,2020-0188,2021-10-14,06:41:39,08:07:16,NA,incomplete,false,true,NA,2,22,NA,purple,n_l_055.jpg,NA,NA,pleasant,unpleasant,NA,NA,NA,NA,NA,right,2405.19999998808,true,NA,NA,NA,NA,NA
No2Qsh63,3t2hw4qdvykwn81ckpslwayk1hg9co,33ppungg3cihml62xmhhndvri3izr3,No2Qsh63,2020-0188,2021-10-14,06:41:39,08:07:16,NA,incomplete,false,true,NA,2,23,NA,purple,n_s_055.jpg,NA,NA,unpleasant,pleasant,NA,NA,NA,NA,NA,left,2257.69999998808,true,NA,NA,NA,NA,NA
No2Qsh63,3t2hw4qdvykwn81ckpslwayk1hg9co,33ppungg3cihml62xmhhndvri3izr3,No2Qsh63,2020-0188,2021-10-14,06:41:39,08:07:16,NA,incomplete,false,true,NA,2,24,NA,green,m_s_008.jpg,NA,NA,pleasant,unpleasant,NA,NA,NA,NA,NA,left,1377.59999996424,true,NA,NA,NA,NA,NA
No2Qsh63,3t2hw4qdvykwn81ckpslwayk1hg9co,33ppungg3cihml62xmhhndvri3izr3,No2Qsh63,2020-0188,2021-10-14,06:41:39,08:07:16,NA,incomplete,false,true,NA,2,25,NA,green,m_l_071.jpg,NA,NA,pleasant,unpleasant,NA,NA,NA,NA,NA,left,1653.89999997616,true,NA,NA,NA,NA,NA
No2Qsh63,3t2hw4qdvykwn81ckpslwayk1hg9co,33ppungg3cihml62xmhhndvri3izr3,No2Qsh63,2020-0188,2021-10-14,06:41:39,08:07:16,NA,incomplete,false,true,NA,2,26,NA,green,m_l_055.jpg,NA,NA,pleasant,unpleasant,NA,NA,NA,NA,NA,left,1268.09999996424,true,NA,NA,NA,NA,NA
No2Qsh63,3t2hw4qdvykwn81ckpslwayk1hg9co,33ppungg3cihml62xmhhndvri3izr3,No2Qsh63,2020-0188,2021-10-14,06:41:39,08:07:16,NA,incomplete,false,true,NA,2,27,NA,green,n_l_030.jpg,NA,NA,unpleasant,pleasant,NA,NA,NA,NA,NA,left,1330.89999997616,true,NA,NA,NA,NA,NA
No2Qsh63,3t2hw4qdvykwn81ckpslwayk1hg9co,33ppungg3cihml62xmhhndvri3izr3,No2Qsh63,2020-0188,2021-10-14,06:41:39,08:07:16,NA,incomplete,false,true,NA,2,28,NA,green,m_l_006.jpg,NA,NA,unpleasant,pleasant,NA,NA,NA,NA,NA,left,2002.20000004768,true,NA,NA,NA,NA,NA
No2Qsh63,3t2hw4qdvykwn81ckpslwayk1hg9co,33ppungg3cihml62xmhhndvri3izr3,No2Qsh63,2020-0188,2021-10-14,06:41:39,08:07:16,NA,incomplete,false,true,NA,2,29,NA,green,n_s_053.jpg,NA,NA,pleasant,unpleasant,NA,NA,NA,NA,NA,right,3245.5,true,NA,NA,NA,NA,NA
No2Qsh63,3t2hw4qdvykwn81ckpslwayk1hg9co,33ppungg3cihml62xmhhndvri3izr3,No2Qsh63,2020-0188,2021-10-14,06:41:39,08:07:16,NA,incomplete,false,true,NA,2,30,NA,gray,m_s_014.jpg,NA,NA,unpleasant,pleasant,NA,NA,NA,NA,NA,right,1023.39999997616,true,NA,NA,NA,NA,NA
No2Qsh63,3t2hw4qdvykwn81ckpslwayk1hg9co,33ppungg3cihml62xmhhndvri3izr3,No2Qsh63,2020-0188,2021-10-14,06:41:39,08:07:16,NA,incomplete,false,true,NA,2,31,NA,gray,m_s_067.jpg,NA,NA,unpleasant,pleasant,NA,NA,NA,NA,NA,left,3153.19999998808,true,NA,NA,NA,NA,NA
No2Qsh63,3t2hw4qdvykwn81ckpslwayk1hg9co,33ppungg3cihml62xmhhndvri3izr3,No2Qsh63,2020-0188,2021-10-14,06:41:39,08:07:16,NA,incomplete,false,true,NA,2,32,NA,gray,n_l_099.jpg,NA,NA,pleasant,unpleasant,NA,NA,NA,NA,NA,right,2573.10000002384,true,NA,NA,NA,NA,NA
No2Qsh63,3t2hw4qdvykwn81ckpslwayk1hg9co,33ppungg3cihml62xmhhndvri3izr3,No2Qsh63,2020-0188,2021-10-14,06:41:39,08:07:16,NA,incomplete,false,true,NA,2,33,NA,gray,n_l_031.jpg,NA,NA,unpleasant,pleasant,NA,NA,NA,NA,NA,left,2694,true,NA,NA,NA,NA,NA
No2Qsh63,3t2hw4qdvykwn81ckpslwayk1hg9co,33ppungg3cihml62xmhhndvri3izr3,No2Qsh63,2020-0188,2021-10-14,06:41:39,08:07:16,NA,incomplete,false,true,NA,2,34,NA,gray,n_s_052.jpg,NA,NA,pleasant,unpleasant,NA,NA,NA,NA,NA,left,1356.80000001192,true,NA,NA,NA,NA,NA
No2Qsh63,3t2hw4qdvykwn81ckpslwayk1hg9co,33ppungg3cihml62xmhhndvri3izr3,No2Qsh63,2020-0188,2021-10-14,06:41:39,08:07:16,NA,incomplete,false,true,NA,2,35,NA,gray,m_s_088.jpg,NA,NA,pleasant,unpleasant,NA,NA,NA,NA,NA,left,1357.5,true,NA,NA,NA,NA,NA
No2Qsh63,3t2hw4qdvykwn81ckpslwayk1hg9co,33ppungg3cihml62xmhhndvri3izr3,No2Qsh63,2020-0188,2021-10-14,06:41:39,08:07:16,NA,incomplete,false,NA,true,2,0,NA,NA,NA,left,absent,NA,NA,m_s_100.jpg,purple,n_s_055.jpg,purple,within,NA,NaN,NA,left,3425.399999976158,1,2,1869.7999999523163
No2Qsh63,3t2hw4qdvykwn81ckpslwayk1hg9co,33ppungg3cihml62xmhhndvri3izr3,No2Qsh63,2020-0188,2021-10-14,06:41:39,08:07:16,NA,incomplete,false,NA,true,2,1,NA,NA,NA,left,absent,NA,NA,n_l_108.jpg,blue,n_l_078.jpg,blue,within,NA,NaN,NA,left,4327.799999952316,1,1,1239.0999999642372
No2Qsh63,3t2hw4qdvykwn81ckpslwayk1hg9co,33ppungg3cihml62xmhhndvri3izr3,No2Qsh63,2020-0188,2021-10-14,06:41:39,08:07:16,NA,incomplete,false,NA,true,2,2,NA,NA,NA,right,absent,NA,NA,m_l_055.jpg,green,n_l_055.jpg,purple,between,NA,NaN,NA,left,4808.100000023842,0,1,1599.1000000238419
No2Qsh63,3t2hw4qdvykwn81ckpslwayk1hg9co,33ppungg3cihml62xmhhndvri3izr3,No2Qsh63,2020-0188,2021-10-14,06:41:39,08:07:16,NA,incomplete,false,NA,true,2,3,NA,NA,NA,left,absent,NA,NA,m_l_071.jpg,green,n_s_053.jpg,green,within,NA,NaN,NA,right,2720.199999988079,0,1,1478.9000000357628
No2Qsh63,3t2hw4qdvykwn81ckpslwayk1hg9co,33ppungg3cihml62xmhhndvri3izr3,No2Qsh63,2020-0188,2021-10-14,06:41:39,08:07:16,NA,incomplete,false,NA,true,2,4,NA,NA,NA,left,absent,NA,NA,n_l_050.jpg,black,m_l_067.jpg,blue,between,NA,NaN,NA,right,2323,0,1,1119.1000000238419
No2Qsh63,3t2hw4qdvykwn81ckpslwayk1hg9co,33ppungg3cihml62xmhhndvri3izr3,No2Qsh63,2020-0188,2021-10-14,06:41:39,08:07:16,NA,incomplete,false,NA,true,2,5,NA,NA,NA,left,absent,NA,NA,n_s_012.jpg,brown,m_l_116.jpg,black,between,NA,NaN,NA,left,3955.5,1,2,1150.5
No2Qsh63,3t2hw4qdvykwn81ckpslwayk1hg9co,33ppungg3cihml62xmhhndvri3izr3,No2Qsh63,2020-0188,2021-10-14,06:41:39,08:07:16,NA,incomplete,false,NA,true,2,6,NA,NA,NA,right,absent,NA,NA,n_s_068.jpg,brown,m_l_009.jpg,brown,within,NA,NaN,NA,left,2647,0,1,1487.199999988079
No2Qsh63,3t2hw4qdvykwn81ckpslwayk1hg9co,33ppungg3cihml62xmhhndvri3izr3,No2Qsh63,2020-0188,2021-10-14,06:41:39,08:07:16,NA,incomplete,false,NA,true,2,7,NA,NA,NA,left,absent,NA,NA,n_s_014.jpg,blue,n_l_018.jpg,purple,between,NA,NaN,NA,left,4151.100000023842,1,2,1518.9000000357628
No2Qsh63,3t2hw4qdvykwn81ckpslwayk1hg9co,33ppungg3cihml62xmhhndvri3izr3,No2Qsh63,2020-0188,2021-10-14,06:41:39,08:07:16,NA,incomplete,false,NA,true,2,8,NA,NA,NA,right,absent,NA,NA,m_s_088.jpg,gray,m_s_067.jpg,gray,within,NA,NaN,NA,right,5320.699999988079,1,1,1255
No2Qsh63,3t2hw4qdvykwn81ckpslwayk1hg9co,33ppungg3cihml62xmhhndvri3izr3,No2Qsh63,2020-0188,2021-10-14,06:41:39,08:07:16,NA,incomplete,false,NA,true,2,9,NA,NA,NA,right,absent,NA,NA,n_l_099.jpg,gray,m_l_006.jpg,green,between,NA,NaN,NA,right,3576.099999964237,1,2,1120.5
No2Qsh63,3t2hw4qdvykwn81ckpslwayk1hg9co,33ppungg3cihml62xmhhndvri3izr3,No2Qsh63,2020-0188,2021-10-14,06:41:39,08:07:16,NA,incomplete,false,NA,true,2,10,NA,NA,NA,left,absent,NA,NA,m_l_089.jpg,black,n_s_034.jpg,black,within,NA,NaN,NA,left,5663.100000023842,1,2,1208.5
No2Qsh63,3t2hw4qdvykwn81ckpslwayk1hg9co,33ppungg3cihml62xmhhndvri3izr3,No2Qsh63,2020-0188,2021-10-14,06:41:39,08:07:16,NA,incomplete,false,true,NA,3,0,NA,yellow,n_s_084.jpg,NA,NA,pleasant,unpleasant,NA,NA,NA,NA,NA,right,2036.40000003576,true,NA,NA,NA,NA,NA
No2Qsh63,3t2hw4qdvykwn81ckpslwayk1hg9co,33ppungg3cihml62xmhhndvri3izr3,No2Qsh63,2020-0188,2021-10-14,06:41:39,08:07:16,NA,incomplete,false,true,NA,3,1,NA,yellow,n_s_100.jpg,NA,NA,pleasant,unpleasant,NA,NA,NA,NA,NA,right,999,true,NA,NA,NA,NA,NA
No2Qsh63,3t2hw4qdvykwn81ckpslwayk1hg9co,33ppungg3cihml62xmhhndvri3izr3,No2Qsh63,2020-0188,2021-10-14,06:41:39,08:07:16,NA,incomplete,false,true,NA,3,2,NA,yellow,m_s_034.jpg,NA,NA,pleasant,unpleasant,NA,NA,NA,NA,NA,right,1057.80000001192,true,NA,NA,NA,NA,NA
No2Qsh63,3t2hw4qdvykwn81ckpslwayk1hg9co,33ppungg3cihml62xmhhndvri3izr3,No2Qsh63,2020-0188,2021-10-14,06:41:39,08:07:16,NA,incomplete,false,true,NA,3,3,NA,yellow,n_s_069.jpg,NA,NA,pleasant,unpleasant,NA,NA,NA,NA,NA,right,1003.59999996424,true,NA,NA,NA,NA,NA
No2Qsh63,3t2hw4qdvykwn81ckpslwayk1hg9co,33ppungg3cihml62xmhhndvri3izr3,No2Qsh63,2020-0188,2021-10-14,06:41:39,08:07:16,NA,incomplete,false,true,NA,3,4,NA,yellow,n_l_036.jpg,NA,NA,pleasant,unpleasant,NA,NA,NA,NA,NA,right,912.5,true,NA,NA,NA,NA,NA
No2Qsh63,3t2hw4qdvykwn81ckpslwayk1hg9co,33ppungg3cihml62xmhhndvri3izr3,No2Qsh63,2020-0188,2021-10-14,06:41:39,08:07:16,NA,incomplete,false,true,NA,3,5,NA,yellow,m_l_075.jpg,NA,NA,pleasant,unpleasant,NA,NA,NA,NA,NA,left,1862.5,true,NA,NA,NA,NA,NA
No2Qsh63,3t2hw4qdvykwn81ckpslwayk1hg9co,33ppungg3cihml62xmhhndvri3izr3,No2Qsh63,2020-0188,2021-10-14,06:41:39,08:07:16,NA,incomplete,false,true,NA,3,6,NA,white,m_l_052.jpg,NA,NA,pleasant,unpleasant,NA,NA,NA,NA,NA,left,1052.30000001192,true,NA,NA,NA,NA,NA
No2Qsh63,3t2hw4qdvykwn81ckpslwayk1hg9co,33ppungg3cihml62xmhhndvri3izr3,No2Qsh63,2020-0188,2021-10-14,06:41:39,08:07:16,NA,incomplete,false,true,NA,3,7,NA,white,n_l_040.jpg,NA,NA,unpleasant,pleasant,NA,NA,NA,NA,NA,right,2495.90000003576,true,NA,NA,NA,NA,NA
No2Qsh63,3t2hw4qdvykwn81ckpslwayk1hg9co,33ppungg3cihml62xmhhndvri3izr3,No2Qsh63,2020-0188,2021-10-14,06:41:39,08:07:16,NA,incomplete,false,true,NA,3,8,NA,white,m_s_028.jpg,NA,NA,unpleasant,pleasant,NA,NA,NA,NA,NA,right,1075,true,NA,NA,NA,NA,NA
No2Qsh63,3t2hw4qdvykwn81ckpslwayk1hg9co,33ppungg3cihml62xmhhndvri3izr3,No2Qsh63,2020-0188,2021-10-14,06:41:39,08:07:16,NA,incomplete,false,true,NA,3,9,NA,white,m_s_026.jpg,NA,NA,pleasant,unpleasant,NA,NA,NA,NA,NA,right,2382.30000001192,true,NA,NA,NA,NA,NA
No2Qsh63,3t2hw4qdvykwn81ckpslwayk1hg9co,33ppungg3cihml62xmhhndvri3izr3,No2Qsh63,2020-0188,2021-10-14,06:41:39,08:07:16,NA,incomplete,false,true,NA,3,10,NA,white,n_s_070.jpg,NA,NA,pleasant,unpleasant,NA,NA,NA,NA,NA,right,2634.30000001192,true,NA,NA,NA,NA,NA
No2Qsh63,3t2hw4qdvykwn81ckpslwayk1hg9co,33ppungg3cihml62xmhhndvri3izr3,No2Qsh63,2020-0188,2021-10-14,06:41:39,08:07:16,NA,incomplete,false,true,NA,3,11,NA,white,n_s_022.jpg,NA,NA,unpleasant,pleasant,NA,NA,NA,NA,NA,left,2927.30000001192,true,NA,NA,NA,NA,NA
No2Qsh63,3t2hw4qdvykwn81ckpslwayk1hg9co,33ppungg3cihml62xmhhndvri3izr3,No2Qsh63,2020-0188,2021-10-14,06:41:39,08:07:16,NA,incomplete,false,true,NA,3,12,NA,blue,n_l_008.jpg,NA,NA,unpleasant,pleasant,NA,NA,NA,NA,NA,left,1445.39999997616,true,NA,NA,NA,NA,NA
No2Qsh63,3t2hw4qdvykwn81ckpslwayk1hg9co,33ppungg3cihml62xmhhndvri3izr3,No2Qsh63,2020-0188,2021-10-14,06:41:39,08:07:16,NA,incomplete,false,true,NA,3,13,NA,blue,n_l_028.jpg,NA,NA,pleasant,unpleasant,NA,NA,NA,NA,NA,left,1136.39999997616,true,NA,NA,NA,NA,NA
No2Qsh63,3t2hw4qdvykwn81ckpslwayk1hg9co,33ppungg3cihml62xmhhndvri3izr3,No2Qsh63,2020-0188,2021-10-14,06:41:39,08:07:16,NA,incomplete,false,true,NA,3,14,NA,blue,m_s_093.jpg,NA,NA,unpleasant,pleasant,NA,NA,NA,NA,NA,left,1035.40000003576,true,NA,NA,NA,NA,NA
No2Qsh63,3t2hw4qdvykwn81ckpslwayk1hg9co,33ppungg3cihml62xmhhndvri3izr3,No2Qsh63,2020-0188,2021-10-14,06:41:39,08:07:16,NA,incomplete,false,true,NA,3,15,NA,blue,n_s_036.jpg,NA,NA,unpleasant,pleasant,NA,NA,NA,NA,NA,left,2541.30000001192,true,NA,NA,NA,NA,NA
No2Qsh63,3t2hw4qdvykwn81ckpslwayk1hg9co,33ppungg3cihml62xmhhndvri3izr3,No2Qsh63,2020-0188,2021-10-14,06:41:39,08:07:16,NA,incomplete,false,true,NA,3,16,NA,blue,m_s_002.jpg,NA,NA,pleasant,unpleasant,NA,NA,NA,NA,NA,right,3410.5,true,NA,NA,NA,NA,NA
No2Qsh63,3t2hw4qdvykwn81ckpslwayk1hg9co,33ppungg3cihml62xmhhndvri3izr3,No2Qsh63,2020-0188,2021-10-14,06:41:39,08:07:16,NA,incomplete,false,true,NA,3,17,NA,blue,m_s_017.jpg,NA,NA,pleasant,unpleasant,NA,NA,NA,NA,NA,right,1653.69999998808,true,NA,NA,NA,NA,NA
No2Qsh63,3t2hw4qdvykwn81ckpslwayk1hg9co,33ppungg3cihml62xmhhndvri3izr3,No2Qsh63,2020-0188,2021-10-14,06:41:39,08:07:16,NA,incomplete,false,true,NA,3,18,NA,orange,n_s_009.jpg,NA,NA,unpleasant,pleasant,NA,NA,NA,NA,NA,right,2703.79999995232,true,NA,NA,NA,NA,NA
No2Qsh63,3t2hw4qdvykwn81ckpslwayk1hg9co,33ppungg3cihml62xmhhndvri3izr3,No2Qsh63,2020-0188,2021-10-14,06:41:39,08:07:16,NA,incomplete,false,true,NA,3,19,NA,orange,m_l_053.jpg,NA,NA,unpleasant,pleasant,NA,NA,NA,NA,NA,left,2306.60000002384,true,NA,NA,NA,NA,NA
No2Qsh63,3t2hw4qdvykwn81ckpslwayk1hg9co,33ppungg3cihml62xmhhndvri3izr3,No2Qsh63,2020-0188,2021-10-14,06:41:39,08:07:16,NA,incomplete,false,true,NA,3,20,NA,orange,m_s_117.jpg,NA,NA,unpleasant,pleasant,NA,NA,NA,NA,NA,left,2108.89999997616,true,NA,NA,NA,NA,NA
No2Qsh63,3t2hw4qdvykwn81ckpslwayk1hg9co,33ppungg3cihml62xmhhndvri3izr3,No2Qsh63,2020-0188,2021-10-14,06:41:39,08:07:16,NA,incomplete,false,true,NA,3,21,NA,orange,m_s_012.jpg,NA,NA,pleasant,unpleasant,NA,NA,NA,NA,NA,left,968.5,true,NA,NA,NA,NA,NA
No2Qsh63,3t2hw4qdvykwn81ckpslwayk1hg9co,33ppungg3cihml62xmhhndvri3izr3,No2Qsh63,2020-0188,2021-10-14,06:41:39,08:07:16,NA,incomplete,false,true,NA,3,22,NA,orange,m_s_106.jpg,NA,NA,pleasant,unpleasant,NA,NA,NA,NA,NA,right,2538.69999998808,true,NA,NA,NA,NA,NA
No2Qsh63,3t2hw4qdvykwn81ckpslwayk1hg9co,33ppungg3cihml62xmhhndvri3izr3,No2Qsh63,2020-0188,2021-10-14,06:41:39,08:07:16,NA,incomplete,false,true,NA,3,23,NA,orange,n_s_083.jpg,NA,NA,unpleasant,pleasant,NA,NA,NA,NA,NA,right,665.199999988079,true,NA,NA,NA,NA,NA
No2Qsh63,3t2hw4qdvykwn81ckpslwayk1hg9co,33ppungg3cihml62xmhhndvri3izr3,No2Qsh63,2020-0188,2021-10-14,06:41:39,08:07:16,NA,incomplete,false,true,NA,3,24,NA,brown,m_s_090.jpg,NA,NA,unpleasant,pleasant,NA,NA,NA,NA,NA,left,2358.59999996424,true,NA,NA,NA,NA,NA
No2Qsh63,3t2hw4qdvykwn81ckpslwayk1hg9co,33ppungg3cihml62xmhhndvri3izr3,No2Qsh63,2020-0188,2021-10-14,06:41:39,08:07:16,NA,incomplete,false,true,NA,3,25,NA,brown,n_s_006.jpg,NA,NA,pleasant,unpleasant,NA,NA,NA,NA,NA,left,2075.40000003576,true,NA,NA,NA,NA,NA
No2Qsh63,3t2hw4qdvykwn81ckpslwayk1hg9co,33ppungg3cihml62xmhhndvri3izr3,No2Qsh63,2020-0188,2021-10-14,06:41:39,08:07:16,NA,incomplete,false,true,NA,3,26,NA,brown,n_l_092.jpg,NA,NA,unpleasant,pleasant,NA,NA,NA,NA,NA,left,1638.39999997616,true,NA,NA,NA,NA,NA
No2Qsh63,3t2hw4qdvykwn81ckpslwayk1hg9co,33ppungg3cihml62xmhhndvri3izr3,No2Qsh63,2020-0188,2021-10-14,06:41:39,08:07:16,NA,incomplete,false,true,NA,3,27,NA,brown,n_s_089.jpg,NA,NA,unpleasant,pleasant,NA,NA,NA,NA,NA,left,874.800000011921,true,NA,NA,NA,NA,NA
No2Qsh63,3t2hw4qdvykwn81ckpslwayk1hg9co,33ppungg3cihml62xmhhndvri3izr3,No2Qsh63,2020-0188,2021-10-14,06:41:39,08:07:16,NA,incomplete,false,true,NA,3,28,NA,brown,m_s_095.jpg,NA,NA,unpleasant,pleasant,NA,NA,NA,NA,NA,right,2377.70000004768,true,NA,NA,NA,NA,NA
No2Qsh63,3t2hw4qdvykwn81ckpslwayk1hg9co,33ppungg3cihml62xmhhndvri3izr3,No2Qsh63,2020-0188,2021-10-14,06:41:39,08:07:16,NA,incomplete,false,true,NA,3,29,NA,brown,m_s_115.jpg,NA,NA,pleasant,unpleasant,NA,NA,NA,NA,NA,right,1274.39999997616,true,NA,NA,NA,NA,NA
No2Qsh63,3t2hw4qdvykwn81ckpslwayk1hg9co,33ppungg3cihml62xmhhndvri3izr3,No2Qsh63,2020-0188,2021-10-14,06:41:39,08:07:16,NA,incomplete,false,true,NA,3,30,NA,green,n_l_077.jpg,NA,NA,pleasant,unpleasant,NA,NA,NA,NA,NA,right,868.800000011921,true,NA,NA,NA,NA,NA
No2Qsh63,3t2hw4qdvykwn81ckpslwayk1hg9co,33ppungg3cihml62xmhhndvri3izr3,No2Qsh63,2020-0188,2021-10-14,06:41:39,08:07:16,NA,incomplete,false,true,NA,3,31,NA,green,m_s_105.jpg,NA,NA,unpleasant,pleasant,NA,NA,NA,NA,NA,right,1465.79999995232,true,NA,NA,NA,NA,NA
No2Qsh63,3t2hw4qdvykwn81ckpslwayk1hg9co,33ppungg3cihml62xmhhndvri3izr3,No2Qsh63,2020-0188,2021-10-14,06:41:39,08:07:16,NA,incomplete,false,true,NA,3,32,NA,green,n_l_094.jpg,NA,NA,unpleasant,pleasant,NA,NA,NA,NA,NA,right,1650.39999997616,true,NA,NA,NA,NA,NA
No2Qsh63,3t2hw4qdvykwn81ckpslwayk1hg9co,33ppungg3cihml62xmhhndvri3izr3,No2Qsh63,2020-0188,2021-10-14,06:41:39,08:07:16,NA,incomplete,false,true,NA,3,33,NA,green,m_l_078.jpg,NA,NA,pleasant,unpleasant,NA,NA,NA,NA,NA,right,1614.90000003576,true,NA,NA,NA,NA,NA
No2Qsh63,3t2hw4qdvykwn81ckpslwayk1hg9co,33ppungg3cihml62xmhhndvri3izr3,No2Qsh63,2020-0188,2021-10-14,06:41:39,08:07:16,NA,incomplete,false,true,NA,3,34,NA,green,m_l_105.jpg,NA,NA,pleasant,unpleasant,NA,NA,NA,NA,NA,left,2026.39999997616,true,NA,NA,NA,NA,NA
No2Qsh63,3t2hw4qdvykwn81ckpslwayk1hg9co,33ppungg3cihml62xmhhndvri3izr3,No2Qsh63,2020-0188,2021-10-14,06:41:39,08:07:16,NA,incomplete,false,true,NA,3,35,NA,green,n_s_015.jpg,NA,NA,unpleasant,pleasant,NA,NA,NA,NA,NA,left,1602.30000001192,true,NA,NA,NA,NA,NA
No2Qsh63,3t2hw4qdvykwn81ckpslwayk1hg9co,33ppungg3cihml62xmhhndvri3izr3,No2Qsh63,2020-0188,2021-10-14,06:41:39,08:07:16,NA,incomplete,false,NA,true,3,0,NA,NA,NA,left,present,NA,NA,m_s_095.jpg,brown,n_l_094.jpg,green,between,NA,NaN,NA,right,3638.5,0,1,1799.699999988079
No2Qsh63,3t2hw4qdvykwn81ckpslwayk1hg9co,33ppungg3cihml62xmhhndvri3izr3,No2Qsh63,2020-0188,2021-10-14,06:41:39,08:07:16,NA,incomplete,false,NA,true,3,1,NA,NA,NA,right,present,NA,NA,m_s_017.jpg,blue,n_l_028.jpg,blue,within,NA,NaN,NA,right,3267.100000023842,1,1,1226.300000011921
No2Qsh63,3t2hw4qdvykwn81ckpslwayk1hg9co,33ppungg3cihml62xmhhndvri3izr3,No2Qsh63,2020-0188,2021-10-14,06:41:39,08:07:16,NA,incomplete,false,NA,true,3,2,NA,NA,NA,left,present,NA,NA,n_l_036.jpg,yellow,m_s_028.jpg,white,between,NA,NaN,NA,left,7846.199999988079,1,2,1785.1000000238419
No2Qsh63,3t2hw4qdvykwn81ckpslwayk1hg9co,33ppungg3cihml62xmhhndvri3izr3,No2Qsh63,2020-0188,2021-10-14,06:41:39,08:07:16,NA,incomplete,false,NA,true,3,3,NA,NA,NA,left,present,NA,NA,m_s_106.jpg,orange,n_l_092.jpg,brown,between,NA,NaN,NA,left,4230.300000011921,1,1,1142.5
No2Qsh63,3t2hw4qdvykwn81ckpslwayk1hg9co,33ppungg3cihml62xmhhndvri3izr3,No2Qsh63,2020-0188,2021-10-14,06:41:39,08:07:16,NA,incomplete,false,NA,true,3,4,NA,NA,NA,left,present,NA,NA,m_l_053.jpg,orange,n_s_083.jpg,orange,within,NA,NaN,NA,left,5570.899999976158,1,1,1463.9000000357628
No2Qsh63,3t2hw4qdvykwn81ckpslwayk1hg9co,33ppungg3cihml62xmhhndvri3izr3,No2Qsh63,2020-0188,2021-10-14,06:41:39,08:07:16,NA,incomplete,false,NA,true,3,5,NA,NA,NA,right,present,NA,NA,m_s_115.jpg,brown,n_s_006.jpg,brown,within,NA,NaN,NA,left,2739.100000023842,0,1,1592
No2Qsh63,3t2hw4qdvykwn81ckpslwayk1hg9co,33ppungg3cihml62xmhhndvri3izr3,No2Qsh63,2020-0188,2021-10-14,06:41:39,08:07:16,NA,incomplete,false,NA,true,3,6,NA,NA,NA,left,present,NA,NA,m_s_002.jpg,blue,m_s_117.jpg,orange,between,NA,NaN,NA,right,3223.899999976158,0,1,1142.8999999761581
No2Qsh63,3t2hw4qdvykwn81ckpslwayk1hg9co,33ppungg3cihml62xmhhndvri3izr3,No2Qsh63,2020-0188,2021-10-14,06:41:39,08:07:16,NA,incomplete,false,NA,true,3,7,NA,NA,NA,left,present,NA,NA,n_s_070.jpg,white,m_s_093.jpg,blue,between,NA,NaN,NA,right,2182.800000011921,0,1,1646.800000011921
No2Qsh63,3t2hw4qdvykwn81ckpslwayk1hg9co,33ppungg3cihml62xmhhndvri3izr3,No2Qsh63,2020-0188,2021-10-14,06:41:39,08:07:16,NA,incomplete,false,NA,true,3,8,NA,NA,NA,left,present,NA,NA,n_l_040.jpg,white,n_s_022.jpg,white,within,NA,NaN,NA,left,2255.400000035763,1,2,1567.7000000476837
No2Qsh63,3t2hw4qdvykwn81ckpslwayk1hg9co,33ppungg3cihml62xmhhndvri3izr3,No2Qsh63,2020-0188,2021-10-14,06:41:39,08:07:16,NA,incomplete,false,NA,true,3,9,NA,NA,NA,left,present,NA,NA,n_s_100.jpg,yellow,m_l_075.jpg,yellow,within,NA,NaN,NA,right,1862.6000000238419,0,2,1423.1000000238419
No2Qsh63,3t2hw4qdvykwn81ckpslwayk1hg9co,33ppungg3cihml62xmhhndvri3izr3,No2Qsh63,2020-0188,2021-10-14,06:41:39,08:07:16,NA,incomplete,false,NA,true,3,10,NA,NA,NA,left,present,NA,NA,m_s_105.jpg,green,n_s_015.jpg,green,within,NA,NaN,NA,right,2839,0,2,1230.9000000357628
No2Qsh63,3t2hw4qdvykwn81ckpslwayk1hg9co,33ppungg3cihml62xmhhndvri3izr3,No2Qsh63,2020-0188,2021-10-14,06:41:39,08:07:16,NA,incomplete,false,true,NA,4,0,NA,purple,n_s_064.jpg,NA,NA,pleasant,unpleasant,NA,NA,NA,NA,NA,right,1562,true,NA,NA,NA,NA,NA
No2Qsh63,3t2hw4qdvykwn81ckpslwayk1hg9co,33ppungg3cihml62xmhhndvri3izr3,No2Qsh63,2020-0188,2021-10-14,06:41:39,08:07:16,NA,incomplete,false,true,NA,4,1,NA,purple,n_l_095.jpg,NA,NA,pleasant,unpleasant,NA,NA,NA,NA,NA,right,836.700000047684,true,NA,NA,NA,NA,NA
No2Qsh63,3t2hw4qdvykwn81ckpslwayk1hg9co,33ppungg3cihml62xmhhndvri3izr3,No2Qsh63,2020-0188,2021-10-14,06:41:39,08:07:16,NA,incomplete,false,true,NA,4,2,NA,purple,n_s_037.jpg,NA,NA,pleasant,unpleasant,NA,NA,NA,NA,NA,right,914.399999976158,true,NA,NA,NA,NA,NA
No2Qsh63,3t2hw4qdvykwn81ckpslwayk1hg9co,33ppungg3cihml62xmhhndvri3izr3,No2Qsh63,2020-0188,2021-10-14,06:41:39,08:07:16,NA,incomplete,false,true,NA,4,3,NA,purple,n_l_117.jpg,NA,NA,unpleasant,pleasant,NA,NA,NA,NA,NA,right,2735.30000001192,true,NA,NA,NA,NA,NA
No2Qsh63,3t2hw4qdvykwn81ckpslwayk1hg9co,33ppungg3cihml62xmhhndvri3izr3,No2Qsh63,2020-0188,2021-10-14,06:41:39,08:07:16,NA,incomplete,false,true,NA,4,4,NA,purple,m_l_005.jpg,NA,NA,pleasant,unpleasant,NA,NA,NA,NA,NA,right,1389.09999996424,true,NA,NA,NA,NA,NA
No2Qsh63,3t2hw4qdvykwn81ckpslwayk1hg9co,33ppungg3cihml62xmhhndvri3izr3,No2Qsh63,2020-0188,2021-10-14,06:41:39,08:07:16,NA,incomplete,false,true,NA,4,5,NA,purple,m_l_065.jpg,NA,NA,pleasant,unpleasant,NA,NA,NA,NA,NA,right,1544.29999995232,true,NA,NA,NA,NA,NA
No2Qsh63,3t2hw4qdvykwn81ckpslwayk1hg9co,33ppungg3cihml62xmhhndvri3izr3,No2Qsh63,2020-0188,2021-10-14,06:41:39,08:07:16,NA,incomplete,false,true,NA,4,6,NA,blue,n_l_091.jpg,NA,NA,unpleasant,pleasant,NA,NA,NA,NA,NA,left,2324.09999996424,true,NA,NA,NA,NA,NA
No2Qsh63,3t2hw4qdvykwn81ckpslwayk1hg9co,33ppungg3cihml62xmhhndvri3izr3,No2Qsh63,2020-0188,2021-10-14,06:41:39,08:07:16,NA,incomplete,false,true,NA,4,7,NA,blue,n_l_086.jpg,NA,NA,pleasant,unpleasant,NA,NA,NA,NA,NA,right,3061.40000003576,true,NA,NA,NA,NA,NA
No2Qsh63,3t2hw4qdvykwn81ckpslwayk1hg9co,33ppungg3cihml62xmhhndvri3izr3,No2Qsh63,2020-0188,2021-10-14,06:41:39,08:07:16,NA,incomplete,false,true,NA,4,8,NA,blue,n_l_037.jpg,NA,NA,unpleasant,pleasant,NA,NA,NA,NA,NA,left,2147.5,true,NA,NA,NA,NA,NA
No2Qsh63,3t2hw4qdvykwn81ckpslwayk1hg9co,33ppungg3cihml62xmhhndvri3izr3,No2Qsh63,2020-0188,2021-10-14,06:41:39,08:07:16,NA,incomplete,false,true,NA,4,9,NA,blue,m_l_095.jpg,NA,NA,unpleasant,pleasant,NA,NA,NA,NA,NA,left,2064.90000003576,true,NA,NA,NA,NA,NA
No2Qsh63,3t2hw4qdvykwn81ckpslwayk1hg9co,33ppungg3cihml62xmhhndvri3izr3,No2Qsh63,2020-0188,2021-10-14,06:41:39,08:07:16,NA,incomplete,false,true,NA,4,10,NA,blue,m_s_078.jpg,NA,NA,pleasant,unpleasant,NA,NA,NA,NA,NA,left,1871.30000001192,true,NA,NA,NA,NA,NA
No2Qsh63,3t2hw4qdvykwn81ckpslwayk1hg9co,33ppungg3cihml62xmhhndvri3izr3,No2Qsh63,2020-0188,2021-10-14,06:41:39,08:07:16,NA,incomplete,false,true,NA,4,11,NA,blue,n_l_061.jpg,NA,NA,pleasant,unpleasant,NA,NA,NA,NA,NA,left,1571.80000001192,true,NA,NA,NA,NA,NA
No2Qsh63,3t2hw4qdvykwn81ckpslwayk1hg9co,33ppungg3cihml62xmhhndvri3izr3,No2Qsh63,2020-0188,2021-10-14,06:41:39,08:07:16,NA,incomplete,false,true,NA,4,12,NA,green,m_s_080.jpg,NA,NA,pleasant,unpleasant,NA,NA,NA,NA,NA,left,1924.59999996424,true,NA,NA,NA,NA,NA
No2Qsh63,3t2hw4qdvykwn81ckpslwayk1hg9co,33ppungg3cihml62xmhhndvri3izr3,No2Qsh63,2020-0188,2021-10-14,06:41:39,08:07:16,NA,incomplete,false,true,NA,4,13,NA,green,n_l_058.jpg,NA,NA,pleasant,unpleasant,NA,NA,NA,NA,NA,right,2727.39999997616,true,NA,NA,NA,NA,NA
No2Qsh63,3t2hw4qdvykwn81ckpslwayk1hg9co,33ppungg3cihml62xmhhndvri3izr3,No2Qsh63,2020-0188,2021-10-14,06:41:39,08:07:16,NA,incomplete,false,true,NA,4,14,NA,green,m_l_084.jpg,NA,NA,pleasant,unpleasant,NA,NA,NA,NA,NA,right,1644.69999998808,true,NA,NA,NA,NA,NA
No2Qsh63,3t2hw4qdvykwn81ckpslwayk1hg9co,33ppungg3cihml62xmhhndvri3izr3,No2Qsh63,2020-0188,2021-10-14,06:41:39,08:07:16,NA,incomplete,false,true,NA,4,15,NA,green,n_s_079.jpg,NA,NA,unpleasant,pleasant,NA,NA,NA,NA,NA,right,1466.80000001192,true,NA,NA,NA,NA,NA
No2Qsh63,3t2hw4qdvykwn81ckpslwayk1hg9co,33ppungg3cihml62xmhhndvri3izr3,No2Qsh63,2020-0188,2021-10-14,06:41:39,08:07:16,NA,incomplete,false,true,NA,4,16,NA,green,n_s_115.jpg,NA,NA,unpleasant,pleasant,NA,NA,NA,NA,NA,right,1501,true,NA,NA,NA,NA,NA
No2Qsh63,3t2hw4qdvykwn81ckpslwayk1hg9co,33ppungg3cihml62xmhhndvri3izr3,No2Qsh63,2020-0188,2021-10-14,06:41:39,08:07:16,NA,incomplete,false,true,NA,4,17,NA,green,n_s_086.jpg,NA,NA,unpleasant,pleasant,NA,NA,NA,NA,NA,left,2140.60000002384,true,NA,NA,NA,NA,NA
No2Qsh63,3t2hw4qdvykwn81ckpslwayk1hg9co,33ppungg3cihml62xmhhndvri3izr3,No2Qsh63,2020-0188,2021-10-14,06:41:39,08:07:16,NA,incomplete,false,true,NA,4,18,NA,black,m_s_006.jpg,NA,NA,pleasant,unpleasant,NA,NA,NA,NA,NA,left,1693.5,true,NA,NA,NA,NA,NA
No2Qsh63,3t2hw4qdvykwn81ckpslwayk1hg9co,33ppungg3cihml62xmhhndvri3izr3,No2Qsh63,2020-0188,2021-10-14,06:41:39,08:07:16,NA,incomplete,false,true,NA,4,19,NA,black,m_s_108.jpg,NA,NA,unpleasant,pleasant,NA,NA,NA,NA,NA,left,1277.60000002384,true,NA,NA,NA,NA,NA
No2Qsh63,3t2hw4qdvykwn81ckpslwayk1hg9co,33ppungg3cihml62xmhhndvri3izr3,No2Qsh63,2020-0188,2021-10-14,06:41:39,08:07:16,NA,incomplete,false,true,NA,4,20,NA,black,n_l_051.jpg,NA,NA,pleasant,unpleasant,NA,NA,NA,NA,NA,left,1662.80000001192,true,NA,NA,NA,NA,NA
No2Qsh63,3t2hw4qdvykwn81ckpslwayk1hg9co,33ppungg3cihml62xmhhndvri3izr3,No2Qsh63,2020-0188,2021-10-14,06:41:39,08:07:16,NA,incomplete,false,true,NA,4,21,NA,black,m_l_068.jpg,NA,NA,unpleasant,pleasant,NA,NA,NA,NA,NA,left,1851.89999997616,true,NA,NA,NA,NA,NA
No2Qsh63,3t2hw4qdvykwn81ckpslwayk1hg9co,33ppungg3cihml62xmhhndvri3izr3,No2Qsh63,2020-0188,2021-10-14,06:41:39,08:07:16,NA,incomplete,false,true,NA,4,22,NA,black,n_s_062.jpg,NA,NA,unpleasant,pleasant,NA,NA,NA,NA,NA,left,1185.30000001192,true,NA,NA,NA,NA,NA
No2Qsh63,3t2hw4qdvykwn81ckpslwayk1hg9co,33ppungg3cihml62xmhhndvri3izr3,No2Qsh63,2020-0188,2021-10-14,06:41:39,08:07:16,NA,incomplete,false,true,NA,4,23,NA,black,m_s_044.jpg,NA,NA,unpleasant,pleasant,NA,NA,NA,NA,NA,left,1666.80000001192,true,NA,NA,NA,NA,NA
No2Qsh63,3t2hw4qdvykwn81ckpslwayk1hg9co,33ppungg3cihml62xmhhndvri3izr3,No2Qsh63,2020-0188,2021-10-14,06:41:39,08:07:16,NA,incomplete,false,true,NA,4,24,NA,gray,m_s_098.jpg,NA,NA,pleasant,unpleasant,NA,NA,NA,NA,NA,left,1719.39999997616,true,NA,NA,NA,NA,NA
No2Qsh63,3t2hw4qdvykwn81ckpslwayk1hg9co,33ppungg3cihml62xmhhndvri3izr3,No2Qsh63,2020-0188,2021-10-14,06:41:39,08:07:16,NA,incomplete,false,true,NA,4,25,NA,gray,m_l_109.jpg,NA,NA,unpleasant,pleasant,NA,NA,NA,NA,NA,right,2697.19999998808,true,NA,NA,NA,NA,NA
No2Qsh63,3t2hw4qdvykwn81ckpslwayk1hg9co,33ppungg3cihml62xmhhndvri3izr3,No2Qsh63,2020-0188,2021-10-14,06:41:39,08:07:16,NA,incomplete,false,true,NA,4,26,NA,gray,n_s_039.jpg,NA,NA,pleasant,unpleasant,NA,NA,NA,NA,NA,right,1634.89999997616,true,NA,NA,NA,NA,NA
No2Qsh63,3t2hw4qdvykwn81ckpslwayk1hg9co,33ppungg3cihml62xmhhndvri3izr3,No2Qsh63,2020-0188,2021-10-14,06:41:39,08:07:16,NA,incomplete,false,true,NA,4,27,NA,gray,n_s_019.jpg,NA,NA,unpleasant,pleasant,NA,NA,NA,NA,NA,left,2627.60000002384,true,NA,NA,NA,NA,NA
No2Qsh63,3t2hw4qdvykwn81ckpslwayk1hg9co,33ppungg3cihml62xmhhndvri3izr3,No2Qsh63,2020-0188,2021-10-14,06:41:39,08:07:16,NA,incomplete,false,true,NA,4,28,NA,gray,m_l_010.jpg,NA,NA,unpleasant,pleasant,NA,NA,NA,NA,NA,left,1006.19999998808,true,NA,NA,NA,NA,NA
No2Qsh63,3t2hw4qdvykwn81ckpslwayk1hg9co,33ppungg3cihml62xmhhndvri3izr3,No2Qsh63,2020-0188,2021-10-14,06:41:39,08:07:16,NA,incomplete,false,true,NA,4,29,NA,gray,n_s_018.jpg,NA,NA,pleasant,unpleasant,NA,NA,NA,NA,NA,left,1470.69999998808,true,NA,NA,NA,NA,NA
No2Qsh63,3t2hw4qdvykwn81ckpslwayk1hg9co,33ppungg3cihml62xmhhndvri3izr3,No2Qsh63,2020-0188,2021-10-14,06:41:39,08:07:16,NA,incomplete,false,true,NA,4,30,NA,brown,m_l_094.jpg,NA,NA,pleasant,unpleasant,NA,NA,NA,NA,NA,right,2486.69999998808,true,NA,NA,NA,NA,NA
No2Qsh63,3t2hw4qdvykwn81ckpslwayk1hg9co,33ppungg3cihml62xmhhndvri3izr3,No2Qsh63,2020-0188,2021-10-14,06:41:39,08:07:16,NA,incomplete,false,true,NA,4,31,NA,brown,m_l_108.jpg,NA,NA,pleasant,unpleasant,NA,NA,NA,NA,NA,left,2376.5,true,NA,NA,NA,NA,NA
No2Qsh63,3t2hw4qdvykwn81ckpslwayk1hg9co,33ppungg3cihml62xmhhndvri3izr3,No2Qsh63,2020-0188,2021-10-14,06:41:39,08:07:16,NA,incomplete,false,true,NA,4,32,NA,brown,m_s_015.jpg,NA,NA,pleasant,unpleasant,NA,NA,NA,NA,NA,left,1470.60000002384,true,NA,NA,NA,NA,NA
No2Qsh63,3t2hw4qdvykwn81ckpslwayk1hg9co,33ppungg3cihml62xmhhndvri3izr3,No2Qsh63,2020-0188,2021-10-14,06:41:39,08:07:16,NA,incomplete,false,true,NA,4,33,NA,brown,m_l_117.jpg,NA,NA,unpleasant,pleasant,NA,NA,NA,NA,NA,right,2260.5,true,NA,NA,NA,NA,NA
No2Qsh63,3t2hw4qdvykwn81ckpslwayk1hg9co,33ppungg3cihml62xmhhndvri3izr3,No2Qsh63,2020-0188,2021-10-14,06:41:39,08:07:16,NA,incomplete,false,true,NA,4,34,NA,brown,m_s_087.jpg,NA,NA,pleasant,unpleasant,NA,NA,NA,NA,NA,left,2192.70000004768,true,NA,NA,NA,NA,NA
No2Qsh63,3t2hw4qdvykwn81ckpslwayk1hg9co,33ppungg3cihml62xmhhndvri3izr3,No2Qsh63,2020-0188,2021-10-14,06:41:39,08:07:16,NA,incomplete,false,true,NA,4,35,NA,brown,n_l_035.jpg,NA,NA,pleasant,unpleasant,NA,NA,NA,NA,NA,left,1300.5,true,NA,NA,NA,NA,NA
No2Qsh63,3t2hw4qdvykwn81ckpslwayk1hg9co,33ppungg3cihml62xmhhndvri3izr3,No2Qsh63,2020-0188,2021-10-14,06:41:39,08:07:16,NA,incomplete,false,NA,true,4,0,NA,NA,NA,right,absent,NA,NA,m_l_084.jpg,green,m_s_078.jpg,blue,between,NA,NaN,NA,right,2509.400000035763,1,1,3359.199999988079
No2Qsh63,3t2hw4qdvykwn81ckpslwayk1hg9co,33ppungg3cihml62xmhhndvri3izr3,No2Qsh63,2020-0188,2021-10-14,06:41:39,08:07:16,NA,incomplete,false,NA,true,4,1,NA,NA,NA,left,absent,NA,NA,m_l_108.jpg,brown,n_l_035.jpg,brown,within,NA,NaN,NA,left,3223.300000011921,1,1,1518.5999999642372
No2Qsh63,3t2hw4qdvykwn81ckpslwayk1hg9co,33ppungg3cihml62xmhhndvri3izr3,No2Qsh63,2020-0188,2021-10-14,06:41:39,08:07:16,NA,incomplete,false,NA,true,4,2,NA,NA,NA,left,absent,NA,NA,n_l_095.jpg,purple,m_l_065.jpg,purple,within,NA,NaN,NA,left,2199.199999988079,1,2,1335.199999988079
No2Qsh63,3t2hw4qdvykwn81ckpslwayk1hg9co,33ppungg3cihml62xmhhndvri3izr3,No2Qsh63,2020-0188,2021-10-14,06:41:39,08:07:16,NA,incomplete,false,NA,true,4,3,NA,NA,NA,right,absent,NA,NA,n_l_037.jpg,blue,m_l_005.jpg,purple,between,NA,NaN,NA,right,1911,1,2,1503.199999988079
No2Qsh63,3t2hw4qdvykwn81ckpslwayk1hg9co,33ppungg3cihml62xmhhndvri3izr3,No2Qsh63,2020-0188,2021-10-14,06:41:39,08:07:16,NA,incomplete,false,NA,true,4,4,NA,NA,NA,right,absent,NA,NA,n_s_018.jpg,gray,m_l_109.jpg,gray,within,NA,NaN,NA,right,1555.199999988079,1,1,1403.199999988079
No2Qsh63,3t2hw4qdvykwn81ckpslwayk1hg9co,33ppungg3cihml62xmhhndvri3izr3,No2Qsh63,2020-0188,2021-10-14,06:41:39,08:07:16,NA,incomplete,false,NA,true,4,5,NA,NA,NA,right,absent,NA,NA,n_l_051.jpg,black,n_s_115.jpg,green,between,NA,NaN,NA,left,2591.100000023842,0,1,1403.1000000238419
No2Qsh63,3t2hw4qdvykwn81ckpslwayk1hg9co,33ppungg3cihml62xmhhndvri3izr3,No2Qsh63,2020-0188,2021-10-14,06:41:39,08:07:16,NA,incomplete,false,NA,true,4,6,NA,NA,NA,left,absent,NA,NA,m_l_010.jpg,gray,m_s_015.jpg,brown,between,NA,NaN,NA,left,2295.2000000476837,1,2,1102
No2Qsh63,3t2hw4qdvykwn81ckpslwayk1hg9co,33ppungg3cihml62xmhhndvri3izr3,No2Qsh63,2020-0188,2021-10-14,06:41:39,08:07:16,NA,incomplete,false,NA,true,4,7,NA,NA,NA,left,absent,NA,NA,m_s_108.jpg,black,m_s_044.jpg,black,within,NA,NaN,NA,left,3578.899999976158,1,1,1231.1000000238419
No2Qsh63,3t2hw4qdvykwn81ckpslwayk1hg9co,33ppungg3cihml62xmhhndvri3izr3,No2Qsh63,2020-0188,2021-10-14,06:41:39,08:07:16,NA,incomplete,false,NA,true,4,8,NA,NA,NA,right,absent,NA,NA,n_s_086.jpg,green,n_l_058.jpg,green,within,NA,NaN,NA,left,3619,0,2,2883.100000023842
No2Qsh63,3t2hw4qdvykwn81ckpslwayk1hg9co,33ppungg3cihml62xmhhndvri3izr3,No2Qsh63,2020-0188,2021-10-14,06:41:39,08:07:16,NA,incomplete,false,NA,true,4,9,NA,NA,NA,left,absent,NA,NA,n_l_086.jpg,blue,n_l_061.jpg,blue,within,NA,NaN,NA,right,1651.6000000238419,0,1,1111.3999999761581
No2Qsh63,3t2hw4qdvykwn81ckpslwayk1hg9co,33ppungg3cihml62xmhhndvri3izr3,No2Qsh63,2020-0188,2021-10-14,06:41:39,08:07:16,NA,incomplete,false,NA,true,4,10,NA,NA,NA,left,absent,NA,NA,n_s_062.jpg,black,n_s_039.jpg,gray,between,NA,NaN,NA,left,2839.100000023842,1,1,1071.300000011921
No2Qsh63,3t2hw4qdvykwn81ckpslwayk1hg9co,33ppungg3cihml62xmhhndvri3izr3,No2Qsh63,2020-0188,2021-10-14,06:41:39,08:07:16,NA,incomplete,false,true,NA,5,0,NA,blue,m_l_016.jpg,NA,NA,unpleasant,pleasant,NA,NA,NA,NA,NA,right,2166.09999996424,true,NA,NA,NA,NA,NA
No2Qsh63,3t2hw4qdvykwn81ckpslwayk1hg9co,33ppungg3cihml62xmhhndvri3izr3,No2Qsh63,2020-0188,2021-10-14,06:41:39,08:07:16,NA,incomplete,false,true,NA,5,1,NA,blue,m_s_103.jpg,NA,NA,pleasant,unpleasant,NA,NA,NA,NA,NA,right,1267,true,NA,NA,NA,NA,NA
No2Qsh63,3t2hw4qdvykwn81ckpslwayk1hg9co,33ppungg3cihml62xmhhndvri3izr3,No2Qsh63,2020-0188,2021-10-14,06:41:39,08:07:16,NA,incomplete,false,true,NA,5,2,NA,blue,m_l_017.jpg,NA,NA,pleasant,unpleasant,NA,NA,NA,NA,NA,right,1239.5,true,NA,NA,NA,NA,NA
No2Qsh63,3t2hw4qdvykwn81ckpslwayk1hg9co,33ppungg3cihml62xmhhndvri3izr3,No2Qsh63,2020-0188,2021-10-14,06:41:39,08:07:16,NA,incomplete,false,true,NA,5,3,NA,blue,m_s_003.jpg,NA,NA,pleasant,unpleasant,NA,NA,NA,NA,NA,right,1130.19999998808,true,NA,NA,NA,NA,NA
No2Qsh63,3t2hw4qdvykwn81ckpslwayk1hg9co,33ppungg3cihml62xmhhndvri3izr3,No2Qsh63,2020-0188,2021-10-14,06:41:39,08:07:16,NA,incomplete,false,true,NA,5,4,NA,blue,m_l_029.jpg,NA,NA,unpleasant,pleasant,NA,NA,NA,NA,NA,right,1370.30000001192,true,NA,NA,NA,NA,NA
No2Qsh63,3t2hw4qdvykwn81ckpslwayk1hg9co,33ppungg3cihml62xmhhndvri3izr3,No2Qsh63,2020-0188,2021-10-14,06:41:39,08:07:16,NA,incomplete,false,true,NA,5,5,NA,blue,n_l_044.jpg,NA,NA,pleasant,unpleasant,NA,NA,NA,NA,NA,left,2171.69999998808,true,NA,NA,NA,NA,NA
No2Qsh63,3t2hw4qdvykwn81ckpslwayk1hg9co,33ppungg3cihml62xmhhndvri3izr3,No2Qsh63,2020-0188,2021-10-14,06:41:39,08:07:16,NA,incomplete,false,true,NA,5,6,NA,gray,n_s_030.jpg,NA,NA,pleasant,unpleasant,NA,NA,NA,NA,NA,left,741.199999988079,true,NA,NA,NA,NA,NA
No2Qsh63,3t2hw4qdvykwn81ckpslwayk1hg9co,33ppungg3cihml62xmhhndvri3izr3,No2Qsh63,2020-0188,2021-10-14,06:41:39,08:07:16,NA,incomplete,false,true,NA,5,7,NA,gray,m_s_059.jpg,NA,NA,unpleasant,pleasant,NA,NA,NA,NA,NA,left,1265.10000002384,true,NA,NA,NA,NA,NA
No2Qsh63,3t2hw4qdvykwn81ckpslwayk1hg9co,33ppungg3cihml62xmhhndvri3izr3,No2Qsh63,2020-0188,2021-10-14,06:41:39,08:07:16,NA,incomplete,false,true,NA,5,8,NA,gray,n_s_072.jpg,NA,NA,unpleasant,pleasant,NA,NA,NA,NA,NA,left,1529.80000001192,true,NA,NA,NA,NA,NA
No2Qsh63,3t2hw4qdvykwn81ckpslwayk1hg9co,33ppungg3cihml62xmhhndvri3izr3,No2Qsh63,2020-0188,2021-10-14,06:41:39,08:07:16,NA,incomplete,false,true,NA,5,9,NA,gray,m_s_046.jpg,NA,NA,pleasant,unpleasant,NA,NA,NA,NA,NA,left,1646.40000003576,true,NA,NA,NA,NA,NA
No2Qsh63,3t2hw4qdvykwn81ckpslwayk1hg9co,33ppungg3cihml62xmhhndvri3izr3,No2Qsh63,2020-0188,2021-10-14,06:41:39,08:07:16,NA,incomplete,false,true,NA,5,10,NA,gray,m_l_035.jpg,NA,NA,unpleasant,pleasant,NA,NA,NA,NA,NA,left,1631.79999995232,true,NA,NA,NA,NA,NA
No2Qsh63,3t2hw4qdvykwn81ckpslwayk1hg9co,33ppungg3cihml62xmhhndvri3izr3,No2Qsh63,2020-0188,2021-10-14,06:41:39,08:07:16,NA,incomplete,false,true,NA,5,11,NA,gray,n_s_114.jpg,NA,NA,pleasant,unpleasant,NA,NA,NA,NA,NA,left,1946.60000002384,true,NA,NA,NA,NA,NA
No2Qsh63,3t2hw4qdvykwn81ckpslwayk1hg9co,33ppungg3cihml62xmhhndvri3izr3,No2Qsh63,2020-0188,2021-10-14,06:41:39,08:07:16,NA,incomplete,false,true,NA,5,12,NA,orange,n_l_109.jpg,NA,NA,pleasant,unpleasant,NA,NA,NA,NA,NA,right,2018.30000001192,true,NA,NA,NA,NA,NA
No2Qsh63,3t2hw4qdvykwn81ckpslwayk1hg9co,33ppungg3cihml62xmhhndvri3izr3,No2Qsh63,2020-0188,2021-10-14,06:41:39,08:07:16,NA,incomplete,false,true,NA,5,13,NA,orange,m_s_022.jpg,NA,NA,unpleasant,pleasant,NA,NA,NA,NA,NA,right,1750.40000003576,true,NA,NA,NA,NA,NA
No2Qsh63,3t2hw4qdvykwn81ckpslwayk1hg9co,33ppungg3cihml62xmhhndvri3izr3,No2Qsh63,2020-0188,2021-10-14,06:41:39,08:07:16,NA,incomplete,false,true,NA,5,14,NA,orange,n_l_080.jpg,NA,NA,pleasant,unpleasant,NA,NA,NA,NA,NA,right,1701,true,NA,NA,NA,NA,NA
No2Qsh63,3t2hw4qdvykwn81ckpslwayk1hg9co,33ppungg3cihml62xmhhndvri3izr3,No2Qsh63,2020-0188,2021-10-14,06:41:39,08:07:16,NA,incomplete,false,true,NA,5,15,NA,orange,n_l_016.jpg,NA,NA,pleasant,unpleasant,NA,NA,NA,NA,NA,right,1344.30000001192,true,NA,NA,NA,NA,NA
No2Qsh63,3t2hw4qdvykwn81ckpslwayk1hg9co,33ppungg3cihml62xmhhndvri3izr3,No2Qsh63,2020-0188,2021-10-14,06:41:39,08:07:16,NA,incomplete,false,true,NA,5,16,NA,orange,m_s_074.jpg,NA,NA,pleasant,unpleasant,NA,NA,NA,NA,NA,right,1328.80000001192,true,NA,NA,NA,NA,NA
No2Qsh63,3t2hw4qdvykwn81ckpslwayk1hg9co,33ppungg3cihml62xmhhndvri3izr3,No2Qsh63,2020-0188,2021-10-14,06:41:39,08:07:16,NA,incomplete,false,true,NA,5,17,NA,orange,m_s_109.jpg,NA,NA,pleasant,unpleasant,NA,NA,NA,NA,NA,right,1259.59999996424,true,NA,NA,NA,NA,NA
No2Qsh63,3t2hw4qdvykwn81ckpslwayk1hg9co,33ppungg3cihml62xmhhndvri3izr3,No2Qsh63,2020-0188,2021-10-14,06:41:39,08:07:16,NA,incomplete,false,true,NA,5,18,NA,green,n_s_074.jpg,NA,NA,pleasant,unpleasant,NA,NA,NA,NA,NA,left,1938.89999997616,true,NA,NA,NA,NA,NA
No2Qsh63,3t2hw4qdvykwn81ckpslwayk1hg9co,33ppungg3cihml62xmhhndvri3izr3,No2Qsh63,2020-0188,2021-10-14,06:41:39,08:07:16,NA,incomplete,false,true,NA,5,19,NA,green,m_l_031.jpg,NA,NA,pleasant,unpleasant,NA,NA,NA,NA,NA,left,1012.69999998808,true,NA,NA,NA,NA,NA
No2Qsh63,3t2hw4qdvykwn81ckpslwayk1hg9co,33ppungg3cihml62xmhhndvri3izr3,No2Qsh63,2020-0188,2021-10-14,06:41:39,08:07:16,NA,incomplete,false,true,NA,5,20,NA,green,m_l_107.jpg,NA,NA,unpleasant,pleasant,NA,NA,NA,NA,NA,left,2037.39999997616,true,NA,NA,NA,NA,NA
No2Qsh63,3t2hw4qdvykwn81ckpslwayk1hg9co,33ppungg3cihml62xmhhndvri3izr3,No2Qsh63,2020-0188,2021-10-14,06:41:39,08:07:16,NA,incomplete,false,true,NA,5,21,NA,green,n_l_029.jpg,NA,NA,unpleasant,pleasant,NA,NA,NA,NA,NA,left,1292.5,true,NA,NA,NA,NA,NA
No2Qsh63,3t2hw4qdvykwn81ckpslwayk1hg9co,33ppungg3cihml62xmhhndvri3izr3,No2Qsh63,2020-0188,2021-10-14,06:41:39,08:07:16,NA,incomplete,false,true,NA,5,22,NA,green,m_s_112.jpg,NA,NA,pleasant,unpleasant,NA,NA,NA,NA,NA,left,2235.10000002384,true,NA,NA,NA,NA,NA
No2Qsh63,3t2hw4qdvykwn81ckpslwayk1hg9co,33ppungg3cihml62xmhhndvri3izr3,No2Qsh63,2020-0188,2021-10-14,06:41:39,08:07:16,NA,incomplete,false,true,NA,5,23,NA,green,m_s_083.jpg,NA,NA,unpleasant,pleasant,NA,NA,NA,NA,NA,left,1659.89999997616,true,NA,NA,NA,NA,NA
No2Qsh63,3t2hw4qdvykwn81ckpslwayk1hg9co,33ppungg3cihml62xmhhndvri3izr3,No2Qsh63,2020-0188,2021-10-14,06:41:39,08:07:16,NA,incomplete,false,true,NA,5,24,NA,brown,m_s_035.jpg,NA,NA,pleasant,unpleasant,NA,NA,NA,NA,NA,left,1243,true,NA,NA,NA,NA,NA
No2Qsh63,3t2hw4qdvykwn81ckpslwayk1hg9co,33ppungg3cihml62xmhhndvri3izr3,No2Qsh63,2020-0188,2021-10-14,06:41:39,08:07:16,NA,incomplete,false,true,NA,5,25,NA,brown,m_s_086.jpg,NA,NA,pleasant,unpleasant,NA,NA,NA,NA,NA,left,1456,true,NA,NA,NA,NA,NA
No2Qsh63,3t2hw4qdvykwn81ckpslwayk1hg9co,33ppungg3cihml62xmhhndvri3izr3,No2Qsh63,2020-0188,2021-10-14,06:41:39,08:07:16,NA,incomplete,false,true,NA,5,26,NA,brown,m_s_010.jpg,NA,NA,unpleasant,pleasant,NA,NA,NA,NA,NA,right,2540.30000001192,true,NA,NA,NA,NA,NA
No2Qsh63,3t2hw4qdvykwn81ckpslwayk1hg9co,33ppungg3cihml62xmhhndvri3izr3,No2Qsh63,2020-0188,2021-10-14,06:41:39,08:07:16,NA,incomplete,false,true,NA,5,27,NA,brown,m_s_091.jpg,NA,NA,unpleasant,pleasant,NA,NA,NA,NA,NA,right,1489.89999997616,true,NA,NA,NA,NA,NA
No2Qsh63,3t2hw4qdvykwn81ckpslwayk1hg9co,33ppungg3cihml62xmhhndvri3izr3,No2Qsh63,2020-0188,2021-10-14,06:41:39,08:07:16,NA,incomplete,false,true,NA,5,28,NA,brown,n_l_054.jpg,NA,NA,unpleasant,pleasant,NA,NA,NA,NA,NA,left,3038.10000002384,true,NA,NA,NA,NA,NA
No2Qsh63,3t2hw4qdvykwn81ckpslwayk1hg9co,33ppungg3cihml62xmhhndvri3izr3,No2Qsh63,2020-0188,2021-10-14,06:41:39,08:07:16,NA,incomplete,false,true,NA,5,29,NA,brown,n_s_046.jpg,NA,NA,unpleasant,pleasant,NA,NA,NA,NA,NA,left,743.399999976158,true,NA,NA,NA,NA,NA
No2Qsh63,3t2hw4qdvykwn81ckpslwayk1hg9co,33ppungg3cihml62xmhhndvri3izr3,No2Qsh63,2020-0188,2021-10-14,06:41:39,08:07:16,NA,incomplete,false,true,NA,5,30,NA,black,n_s_065.jpg,NA,NA,pleasant,unpleasant,NA,NA,NA,NA,NA,left,725.199999988079,true,NA,NA,NA,NA,NA
No2Qsh63,3t2hw4qdvykwn81ckpslwayk1hg9co,33ppungg3cihml62xmhhndvri3izr3,No2Qsh63,2020-0188,2021-10-14,06:41:39,08:07:16,NA,incomplete,false,true,NA,5,31,NA,black,m_l_025.jpg,NA,NA,pleasant,unpleasant,NA,NA,NA,NA,NA,left,1271.5,true,NA,NA,NA,NA,NA
No2Qsh63,3t2hw4qdvykwn81ckpslwayk1hg9co,33ppungg3cihml62xmhhndvri3izr3,No2Qsh63,2020-0188,2021-10-14,06:41:39,08:07:16,NA,incomplete,false,true,NA,5,32,NA,black,n_l_112.jpg,NA,NA,pleasant,unpleasant,NA,NA,NA,NA,NA,right,2493.5,true,NA,NA,NA,NA,NA
No2Qsh63,3t2hw4qdvykwn81ckpslwayk1hg9co,33ppungg3cihml62xmhhndvri3izr3,No2Qsh63,2020-0188,2021-10-14,06:41:39,08:07:16,NA,incomplete,false,true,NA,5,33,NA,black,m_l_001.jpg,NA,NA,pleasant,unpleasant,NA,NA,NA,NA,NA,right,891.699999988079,true,NA,NA,NA,NA,NA
No2Qsh63,3t2hw4qdvykwn81ckpslwayk1hg9co,33ppungg3cihml62xmhhndvri3izr3,No2Qsh63,2020-0188,2021-10-14,06:41:39,08:07:16,NA,incomplete,false,true,NA,5,34,NA,black,m_l_014.jpg,NA,NA,unpleasant,pleasant,NA,NA,NA,NA,NA,right,1367.10000002384,true,NA,NA,NA,NA,NA
No2Qsh63,3t2hw4qdvykwn81ckpslwayk1hg9co,33ppungg3cihml62xmhhndvri3izr3,No2Qsh63,2020-0188,2021-10-14,06:41:39,08:07:16,NA,incomplete,false,true,NA,5,35,NA,black,n_s_044.jpg,NA,NA,pleasant,unpleasant,NA,NA,NA,NA,NA,right,1484,true,NA,NA,NA,NA,NA
No2Qsh63,3t2hw4qdvykwn81ckpslwayk1hg9co,33ppungg3cihml62xmhhndvri3izr3,No2Qsh63,2020-0188,2021-10-14,06:41:39,08:07:16,NA,incomplete,false,NA,true,5,0,NA,NA,NA,right,absent,NA,NA,m_s_010.jpg,brown,m_s_112.jpg,green,between,NA,NaN,NA,right,3134.7000000476837,1,1,1590.800000011921
No2Qsh63,3t2hw4qdvykwn81ckpslwayk1hg9co,33ppungg3cihml62xmhhndvri3izr3,No2Qsh63,2020-0188,2021-10-14,06:41:39,08:07:16,NA,incomplete,false,NA,true,5,1,NA,NA,NA,left,absent,NA,NA,n_l_054.jpg,brown,n_l_112.jpg,black,between,NA,NaN,NA,right,1926.699999988079,0,1,1039.6000000238419
No2Qsh63,3t2hw4qdvykwn81ckpslwayk1hg9co,33ppungg3cihml62xmhhndvri3izr3,No2Qsh63,2020-0188,2021-10-14,06:41:39,08:07:16,NA,incomplete,false,NA,true,5,2,NA,NA,NA,left,absent,NA,NA,m_s_074.jpg,orange,m_l_107.jpg,green,between,NA,NaN,NA,left,2910.7999999523163,1,2,1350.3999999761581
No2Qsh63,3t2hw4qdvykwn81ckpslwayk1hg9co,33ppungg3cihml62xmhhndvri3izr3,No2Qsh63,2020-0188,2021-10-14,06:41:39,08:07:16,NA,incomplete,false,NA,true,5,3,NA,NA,NA,left,absent,NA,NA,m_l_035.jpg,gray,n_l_080.jpg,orange,between,NA,NaN,NA,right,2526.600000023842,0,1,1038.8999999761581
No2Qsh63,3t2hw4qdvykwn81ckpslwayk1hg9co,33ppungg3cihml62xmhhndvri3izr3,No2Qsh63,2020-0188,2021-10-14,06:41:39,08:07:16,NA,incomplete,false,NA,true,5,4,NA,NA,NA,right,absent,NA,NA,m_s_109.jpg,orange,m_s_022.jpg,orange,within,NA,NaN,NA,right,1382.699999988079,1,1,1151
No2Qsh63,3t2hw4qdvykwn81ckpslwayk1hg9co,33ppungg3cihml62xmhhndvri3izr3,No2Qsh63,2020-0188,2021-10-14,06:41:39,08:07:16,NA,incomplete,false,NA,true,5,5,NA,NA,NA,left,absent,NA,NA,m_l_029.jpg,blue,n_s_072.jpg,gray,between,NA,NaN,NA,right,1815,0,2,1455.199999988079
No2Qsh63,3t2hw4qdvykwn81ckpslwayk1hg9co,33ppungg3cihml62xmhhndvri3izr3,No2Qsh63,2020-0188,2021-10-14,06:41:39,08:07:16,NA,incomplete,false,NA,true,5,6,NA,NA,NA,right,absent,NA,NA,n_l_044.jpg,blue,m_s_103.jpg,blue,within,NA,NaN,NA,right,6495.199999988079,1,2,2191
No2Qsh63,3t2hw4qdvykwn81ckpslwayk1hg9co,33ppungg3cihml62xmhhndvri3izr3,No2Qsh63,2020-0188,2021-10-14,06:41:39,08:07:16,NA,incomplete,false,NA,true,5,7,NA,NA,NA,left,absent,NA,NA,m_s_059.jpg,gray,n_s_114.jpg,gray,within,NA,NaN,NA,left,4327.399999976158,1,1,1087.199999988079
No2Qsh63,3t2hw4qdvykwn81ckpslwayk1hg9co,33ppungg3cihml62xmhhndvri3izr3,No2Qsh63,2020-0188,2021-10-14,06:41:39,08:07:16,NA,incomplete,false,NA,true,5,8,NA,NA,NA,right,absent,NA,NA,m_s_083.jpg,green,m_l_031.jpg,green,within,NA,NaN,NA,right,2912.199999988079,1,1,1326.9000000357628
No2Qsh63,3t2hw4qdvykwn81ckpslwayk1hg9co,33ppungg3cihml62xmhhndvri3izr3,No2Qsh63,2020-0188,2021-10-14,06:41:39,08:07:16,NA,incomplete,false,NA,true,5,9,NA,NA,NA,left,absent,NA,NA,m_l_025.jpg,black,n_s_044.jpg,black,within,NA,NaN,NA,left,3912.100000023842,1,1,1430
No2Qsh63,3t2hw4qdvykwn81ckpslwayk1hg9co,33ppungg3cihml62xmhhndvri3izr3,No2Qsh63,2020-0188,2021-10-14,06:41:39,08:07:16,NA,incomplete,false,NA,true,5,10,NA,NA,NA,left,absent,NA,NA,m_s_086.jpg,brown,n_s_046.jpg,brown,within,NA,NaN,NA,right,3488.400000035763,0,1,1350.3999999761581
No2Qsh63,3t2hw4qdvykwn81ckpslwayk1hg9co,33ppungg3cihml62xmhhndvri3izr3,No2Qsh63,2020-0188,2021-10-14,06:41:39,08:07:16,NA,incomplete,false,true,NA,6,0,NA,brown,n_l_048.jpg,NA,NA,pleasant,unpleasant,NA,NA,NA,NA,NA,right,2700.09999996424,true,NA,NA,NA,NA,NA
No2Qsh63,3t2hw4qdvykwn81ckpslwayk1hg9co,33ppungg3cihml62xmhhndvri3izr3,No2Qsh63,2020-0188,2021-10-14,06:41:39,08:07:16,NA,incomplete,false,true,NA,6,1,NA,brown,m_l_072.jpg,NA,NA,unpleasant,pleasant,NA,NA,NA,NA,NA,right,1043.80000001192,true,NA,NA,NA,NA,NA
No2Qsh63,3t2hw4qdvykwn81ckpslwayk1hg9co,33ppungg3cihml62xmhhndvri3izr3,No2Qsh63,2020-0188,2021-10-14,06:41:39,08:07:16,NA,incomplete,false,true,NA,6,2,NA,brown,m_s_063.jpg,NA,NA,unpleasant,pleasant,NA,NA,NA,NA,NA,left,1084.80000001192,true,NA,NA,NA,NA,NA
No2Qsh63,3t2hw4qdvykwn81ckpslwayk1hg9co,33ppungg3cihml62xmhhndvri3izr3,No2Qsh63,2020-0188,2021-10-14,06:41:39,08:07:16,NA,incomplete,false,true,NA,6,3,NA,brown,n_l_017.jpg,NA,NA,unpleasant,pleasant,NA,NA,NA,NA,NA,left,568.600000023842,true,NA,NA,NA,NA,NA
No2Qsh63,3t2hw4qdvykwn81ckpslwayk1hg9co,33ppungg3cihml62xmhhndvri3izr3,No2Qsh63,2020-0188,2021-10-14,06:41:39,08:07:16,NA,incomplete,false,true,NA,6,4,NA,brown,m_s_089.jpg,NA,NA,unpleasant,pleasant,NA,NA,NA,NA,NA,left,800.900000035763,true,NA,NA,NA,NA,NA
No2Qsh63,3t2hw4qdvykwn81ckpslwayk1hg9co,33ppungg3cihml62xmhhndvri3izr3,No2Qsh63,2020-0188,2021-10-14,06:41:39,08:07:16,NA,incomplete,false,true,NA,6,5,NA,brown,m_l_061.jpg,NA,NA,unpleasant,pleasant,NA,NA,NA,NA,NA,right,2118.70000004768,true,NA,NA,NA,NA,NA
No2Qsh63,3t2hw4qdvykwn81ckpslwayk1hg9co,33ppungg3cihml62xmhhndvri3izr3,No2Qsh63,2020-0188,2021-10-14,06:41:39,08:07:16,NA,incomplete,false,true,NA,6,6,NA,gray,n_l_079.jpg,NA,NA,unpleasant,pleasant,NA,NA,NA,NA,NA,right,1125.19999998808,true,NA,NA,NA,NA,NA
No2Qsh63,3t2hw4qdvykwn81ckpslwayk1hg9co,33ppungg3cihml62xmhhndvri3izr3,No2Qsh63,2020-0188,2021-10-14,06:41:39,08:07:16,NA,incomplete,false,true,NA,6,7,NA,gray,n_l_034.jpg,NA,NA,unpleasant,pleasant,NA,NA,NA,NA,NA,left,2650.5,true,NA,NA,NA,NA,NA
No2Qsh63,3t2hw4qdvykwn81ckpslwayk1hg9co,33ppungg3cihml62xmhhndvri3izr3,No2Qsh63,2020-0188,2021-10-14,06:41:39,08:07:16,NA,incomplete,false,true,NA,6,8,NA,gray,n_l_011.jpg,NA,NA,pleasant,unpleasant,NA,NA,NA,NA,NA,left,922.400000035763,true,NA,NA,NA,NA,NA
No2Qsh63,3t2hw4qdvykwn81ckpslwayk1hg9co,33ppungg3cihml62xmhhndvri3izr3,No2Qsh63,2020-0188,2021-10-14,06:41:39,08:07:16,NA,incomplete,false,true,NA,6,9,NA,gray,n_s_032.jpg,NA,NA,unpleasant,pleasant,NA,NA,NA,NA,NA,left,1200.30000001192,true,NA,NA,NA,NA,NA
No2Qsh63,3t2hw4qdvykwn81ckpslwayk1hg9co,33ppungg3cihml62xmhhndvri3izr3,No2Qsh63,2020-0188,2021-10-14,06:41:39,08:07:16,NA,incomplete,false,true,NA,6,10,NA,gray,m_s_060.jpg,NA,NA,pleasant,unpleasant,NA,NA,NA,NA,NA,left,1333.5,true,NA,NA,NA,NA,NA
No2Qsh63,3t2hw4qdvykwn81ckpslwayk1hg9co,33ppungg3cihml62xmhhndvri3izr3,No2Qsh63,2020-0188,2021-10-14,06:41:39,08:07:16,NA,incomplete,false,true,NA,6,11,NA,gray,m_s_101.jpg,NA,NA,unpleasant,pleasant,NA,NA,NA,NA,NA,left,1031,true,NA,NA,NA,NA,NA
No2Qsh63,3t2hw4qdvykwn81ckpslwayk1hg9co,33ppungg3cihml62xmhhndvri3izr3,No2Qsh63,2020-0188,2021-10-14,06:41:39,08:07:16,NA,incomplete,false,true,NA,6,12,NA,black,n_s_109.jpg,NA,NA,unpleasant,pleasant,NA,NA,NA,NA,NA,right,615.700000047684,true,NA,NA,NA,NA,NA
No2Qsh63,3t2hw4qdvykwn81ckpslwayk1hg9co,33ppungg3cihml62xmhhndvri3izr3,No2Qsh63,2020-0188,2021-10-14,06:41:39,08:07:16,NA,incomplete,false,true,NA,6,13,NA,black,n_l_102.jpg,NA,NA,pleasant,unpleasant,NA,NA,NA,NA,NA,right,1104.10000002384,true,NA,NA,NA,NA,NA
No2Qsh63,3t2hw4qdvykwn81ckpslwayk1hg9co,33ppungg3cihml62xmhhndvri3izr3,No2Qsh63,2020-0188,2021-10-14,06:41:39,08:07:16,NA,incomplete,false,true,NA,6,14,NA,black,n_l_062.jpg,NA,NA,unpleasant,pleasant,NA,NA,NA,NA,NA,right,1393.09999996424,true,NA,NA,NA,NA,NA
No2Qsh63,3t2hw4qdvykwn81ckpslwayk1hg9co,33ppungg3cihml62xmhhndvri3izr3,No2Qsh63,2020-0188,2021-10-14,06:41:39,08:07:16,NA,incomplete,false,true,NA,6,15,NA,black,m_s_068.jpg,NA,NA,unpleasant,pleasant,NA,NA,NA,NA,NA,right,1142.19999998808,true,NA,NA,NA,NA,NA
No2Qsh63,3t2hw4qdvykwn81ckpslwayk1hg9co,33ppungg3cihml62xmhhndvri3izr3,No2Qsh63,2020-0188,2021-10-14,06:41:39,08:07:16,NA,incomplete,false,true,NA,6,16,NA,black,n_l_022.jpg,NA,NA,pleasant,unpleasant,NA,NA,NA,NA,NA,right,1266.89999997616,true,NA,NA,NA,NA,NA
No2Qsh63,3t2hw4qdvykwn81ckpslwayk1hg9co,33ppungg3cihml62xmhhndvri3izr3,No2Qsh63,2020-0188,2021-10-14,06:41:39,08:07:16,NA,incomplete,false,true,NA,6,17,NA,black,m_l_020.jpg,NA,NA,pleasant,unpleasant,NA,NA,NA,NA,NA,right,1231.80000001192,true,NA,NA,NA,NA,NA
No2Qsh63,3t2hw4qdvykwn81ckpslwayk1hg9co,33ppungg3cihml62xmhhndvri3izr3,No2Qsh63,2020-0188,2021-10-14,06:41:39,08:07:16,NA,incomplete,false,true,NA,6,18,NA,purple,m_s_040.jpg,NA,NA,pleasant,unpleasant,NA,NA,NA,NA,NA,left,1352,true,NA,NA,NA,NA,NA
No2Qsh63,3t2hw4qdvykwn81ckpslwayk1hg9co,33ppungg3cihml62xmhhndvri3izr3,No2Qsh63,2020-0188,2021-10-14,06:41:39,08:07:16,NA,incomplete,false,true,NA,6,19,NA,purple,n_s_057.jpg,NA,NA,unpleasant,pleasant,NA,NA,NA,NA,NA,right,2105.5,true,NA,NA,NA,NA,NA
No2Qsh63,3t2hw4qdvykwn81ckpslwayk1hg9co,33ppungg3cihml62xmhhndvri3izr3,No2Qsh63,2020-0188,2021-10-14,06:41:39,08:07:16,NA,incomplete,false,true,NA,6,20,NA,purple,n_s_041.jpg,NA,NA,pleasant,unpleasant,NA,NA,NA,NA,NA,left,2151.80000001192,true,NA,NA,NA,NA,NA
No2Qsh63,3t2hw4qdvykwn81ckpslwayk1hg9co,33ppungg3cihml62xmhhndvri3izr3,No2Qsh63,2020-0188,2021-10-14,06:41:39,08:07:16,NA,incomplete,false,true,NA,6,21,NA,purple,m_s_058.jpg,NA,NA,unpleasant,pleasant,NA,NA,NA,NA,NA,left,2011.60000002384,true,NA,NA,NA,NA,NA
No2Qsh63,3t2hw4qdvykwn81ckpslwayk1hg9co,33ppungg3cihml62xmhhndvri3izr3,No2Qsh63,2020-0188,2021-10-14,06:41:39,08:07:16,NA,incomplete,false,true,NA,6,22,NA,purple,n_l_072.jpg,NA,NA,unpleasant,pleasant,NA,NA,NA,NA,NA,left,1767.09999996424,true,NA,NA,NA,NA,NA
No2Qsh63,3t2hw4qdvykwn81ckpslwayk1hg9co,33ppungg3cihml62xmhhndvri3izr3,No2Qsh63,2020-0188,2021-10-14,06:41:39,08:07:16,NA,incomplete,false,true,NA,6,23,NA,purple,n_s_011.jpg,NA,NA,pleasant,unpleasant,NA,NA,NA,NA,NA,left,1335.69999998808,true,NA,NA,NA,NA,NA
No2Qsh63,3t2hw4qdvykwn81ckpslwayk1hg9co,33ppungg3cihml62xmhhndvri3izr3,No2Qsh63,2020-0188,2021-10-14,06:41:39,08:07:16,NA,incomplete,false,true,NA,6,24,NA,green,m_s_094.jpg,NA,NA,pleasant,unpleasant,NA,NA,NA,NA,NA,left,1169.89999997616,true,NA,NA,NA,NA,NA
No2Qsh63,3t2hw4qdvykwn81ckpslwayk1hg9co,33ppungg3cihml62xmhhndvri3izr3,No2Qsh63,2020-0188,2021-10-14,06:41:39,08:07:16,NA,incomplete,false,true,NA,6,25,NA,green,n_l_012.jpg,NA,NA,pleasant,unpleasant,NA,NA,NA,NA,NA,left,1078.29999995232,true,NA,NA,NA,NA,NA
No2Qsh63,3t2hw4qdvykwn81ckpslwayk1hg9co,33ppungg3cihml62xmhhndvri3izr3,No2Qsh63,2020-0188,2021-10-14,06:41:39,08:07:16,NA,incomplete,false,true,NA,6,26,NA,green,m_l_046.jpg,NA,NA,pleasant,unpleasant,NA,NA,NA,NA,NA,left,1261.5,true,NA,NA,NA,NA,NA
No2Qsh63,3t2hw4qdvykwn81ckpslwayk1hg9co,33ppungg3cihml62xmhhndvri3izr3,No2Qsh63,2020-0188,2021-10-14,06:41:39,08:07:16,NA,incomplete,false,true,NA,6,27,NA,green,m_l_023.jpg,NA,NA,unpleasant,pleasant,NA,NA,NA,NA,NA,right,681.5,true,NA,NA,NA,NA,NA
No2Qsh63,3t2hw4qdvykwn81ckpslwayk1hg9co,33ppungg3cihml62xmhhndvri3izr3,No2Qsh63,2020-0188,2021-10-14,06:41:39,08:07:16,NA,incomplete,false,true,NA,6,28,NA,green,m_s_053.jpg,NA,NA,unpleasant,pleasant,NA,NA,NA,NA,NA,right,1009.90000003576,true,NA,NA,NA,NA,NA
No2Qsh63,3t2hw4qdvykwn81ckpslwayk1hg9co,33ppungg3cihml62xmhhndvri3izr3,No2Qsh63,2020-0188,2021-10-14,06:41:39,08:07:16,NA,incomplete,false,true,NA,6,29,NA,green,m_s_071.jpg,NA,NA,unpleasant,pleasant,NA,NA,NA,NA,NA,right,1215.19999998808,true,NA,NA,NA,NA,NA
No2Qsh63,3t2hw4qdvykwn81ckpslwayk1hg9co,33ppungg3cihml62xmhhndvri3izr3,No2Qsh63,2020-0188,2021-10-14,06:41:39,08:07:16,NA,incomplete,false,true,NA,6,30,NA,orange,m_s_042.jpg,NA,NA,pleasant,unpleasant,NA,NA,NA,NA,NA,right,955.800000011921,true,NA,NA,NA,NA,NA
No2Qsh63,3t2hw4qdvykwn81ckpslwayk1hg9co,33ppungg3cihml62xmhhndvri3izr3,No2Qsh63,2020-0188,2021-10-14,06:41:39,08:07:16,NA,incomplete,false,true,NA,6,31,NA,orange,n_l_096.jpg,NA,NA,pleasant,unpleasant,NA,NA,NA,NA,NA,right,1023.30000001192,true,NA,NA,NA,NA,NA
No2Qsh63,3t2hw4qdvykwn81ckpslwayk1hg9co,33ppungg3cihml62xmhhndvri3izr3,No2Qsh63,2020-0188,2021-10-14,06:41:39,08:07:16,NA,incomplete,false,true,NA,6,32,NA,orange,n_s_003.jpg,NA,NA,pleasant,unpleasant,NA,NA,NA,NA,NA,right,1219.39999997616,true,NA,NA,NA,NA,NA
No2Qsh63,3t2hw4qdvykwn81ckpslwayk1hg9co,33ppungg3cihml62xmhhndvri3izr3,No2Qsh63,2020-0188,2021-10-14,06:41:39,08:07:16,NA,incomplete,false,true,NA,6,33,NA,orange,m_l_064.jpg,NA,NA,pleasant,unpleasant,NA,NA,NA,NA,NA,right,1956.30000001192,true,NA,NA,NA,NA,NA
No2Qsh63,3t2hw4qdvykwn81ckpslwayk1hg9co,33ppungg3cihml62xmhhndvri3izr3,No2Qsh63,2020-0188,2021-10-14,06:41:39,08:07:16,NA,incomplete,false,true,NA,6,34,NA,orange,m_l_086.jpg,NA,NA,unpleasant,pleasant,NA,NA,NA,NA,NA,right,1474.5,true,NA,NA,NA,NA,NA
No2Qsh63,3t2hw4qdvykwn81ckpslwayk1hg9co,33ppungg3cihml62xmhhndvri3izr3,No2Qsh63,2020-0188,2021-10-14,06:41:39,08:07:16,NA,incomplete,false,true,NA,6,35,NA,orange,n_l_053.jpg,NA,NA,pleasant,unpleasant,NA,NA,NA,NA,NA,right,1001.80000001192,true,NA,NA,NA,NA,NA
No2Qsh63,3t2hw4qdvykwn81ckpslwayk1hg9co,33ppungg3cihml62xmhhndvri3izr3,No2Qsh63,2020-0188,2021-10-14,06:41:39,08:07:16,NA,incomplete,false,NA,true,6,0,NA,NA,NA,left,absent,NA,NA,m_s_089.jpg,brown,n_l_011.jpg,gray,between,NA,NaN,NA,right,1393.800000011921,0,1,2877.699999988079
No2Qsh63,3t2hw4qdvykwn81ckpslwayk1hg9co,33ppungg3cihml62xmhhndvri3izr3,No2Qsh63,2020-0188,2021-10-14,06:41:39,08:07:16,NA,incomplete,false,NA,true,6,1,NA,NA,NA,right,absent,NA,NA,m_s_101.jpg,gray,n_l_034.jpg,gray,within,NA,NaN,NA,right,2122.400000035763,1,1,2330.600000023842
No2Qsh63,3t2hw4qdvykwn81ckpslwayk1hg9co,33ppungg3cihml62xmhhndvri3izr3,No2Qsh63,2020-0188,2021-10-14,06:41:39,08:07:16,NA,incomplete,false,NA,true,6,2,NA,NA,NA,right,absent,NA,NA,n_s_011.jpg,purple,n_s_057.jpg,purple,within,NA,NaN,NA,right,2582.899999976158,1,2,998.6999999880791
No2Qsh63,3t2hw4qdvykwn81ckpslwayk1hg9co,33ppungg3cihml62xmhhndvri3izr3,No2Qsh63,2020-0188,2021-10-14,06:41:39,08:07:16,NA,incomplete,false,NA,true,6,3,NA,NA,NA,right,absent,NA,NA,m_l_020.jpg,black,n_l_102.jpg,black,within,NA,NaN,NA,right,2902.300000011921,1,2,1546.2000000476837
No2Qsh63,3t2hw4qdvykwn81ckpslwayk1hg9co,33ppungg3cihml62xmhhndvri3izr3,No2Qsh63,2020-0188,2021-10-14,06:41:39,08:07:16,NA,incomplete,false,NA,true,6,4,NA,NA,NA,right,absent,NA,NA,m_l_061.jpg,brown,m_l_072.jpg,brown,within,NA,NaN,NA,right,3726.699999988079,1,1,1439.0999999642372
No2Qsh63,3t2hw4qdvykwn81ckpslwayk1hg9co,33ppungg3cihml62xmhhndvri3izr3,No2Qsh63,2020-0188,2021-10-14,06:41:39,08:07:16,NA,incomplete,false,NA,true,6,5,NA,NA,NA,right,absent,NA,NA,m_l_046.jpg,green,n_l_072.jpg,purple,between,NA,NaN,NA,left,5534.899999976158,0,2,1418.8999999761581
No2Qsh63,3t2hw4qdvykwn81ckpslwayk1hg9co,33ppungg3cihml62xmhhndvri3izr3,No2Qsh63,2020-0188,2021-10-14,06:41:39,08:07:16,NA,incomplete,false,NA,true,6,6,NA,NA,NA,left,absent,NA,NA,m_s_053.jpg,green,n_s_003.jpg,orange,between,NA,NaN,NA,right,4494.699999988079,0,1,1455.0999999642372
No2Qsh63,3t2hw4qdvykwn81ckpslwayk1hg9co,33ppungg3cihml62xmhhndvri3izr3,No2Qsh63,2020-0188,2021-10-14,06:41:39,08:07:16,NA,incomplete,false,NA,true,6,7,NA,NA,NA,left,absent,NA,NA,m_s_060.jpg,gray,n_l_062.jpg,black,between,NA,NaN,NA,left,6790.5,1,2,1159.199999988079
No2Qsh63,3t2hw4qdvykwn81ckpslwayk1hg9co,33ppungg3cihml62xmhhndvri3izr3,No2Qsh63,2020-0188,2021-10-14,06:41:39,08:07:16,NA,incomplete,false,NA,true,6,8,NA,NA,NA,right,absent,NA,NA,n_l_053.jpg,orange,n_l_096.jpg,orange,within,NA,NaN,NA,right,1575,1,2,3447.100000023842
No2Qsh63,3t2hw4qdvykwn81ckpslwayk1hg9co,33ppungg3cihml62xmhhndvri3izr3,No2Qsh63,2020-0188,2021-10-14,06:41:39,08:07:16,NA,incomplete,false,NA,true,6,9,NA,NA,NA,right,absent,NA,NA,n_s_041.jpg,purple,n_l_022.jpg,black,between,NA,NaN,NA,right,2095.199999988079,1,1,2407
No2Qsh63,3t2hw4qdvykwn81ckpslwayk1hg9co,33ppungg3cihml62xmhhndvri3izr3,No2Qsh63,2020-0188,2021-10-14,06:41:39,08:07:16,NA,incomplete,false,NA,true,6,10,NA,NA,NA,right,absent,NA,NA,m_s_071.jpg,green,n_l_012.jpg,green,within,NA,NaN,NA,right,3135.099999964237,1,1,3511.2999999523163
No2Qsh63,3t2hw4qdvykwn81ckpslwayk1hg9co,33ppungg3cihml62xmhhndvri3izr3,No2Qsh63,2020-0188,2021-10-14,06:41:39,08:07:16,NA,incomplete,false,true,NA,7,0,NA,orange,n_s_106.jpg,NA,NA,pleasant,unpleasant,NA,NA,NA,NA,NA,right,3111.29999995232,true,NA,NA,NA,NA,NA
No2Qsh63,3t2hw4qdvykwn81ckpslwayk1hg9co,33ppungg3cihml62xmhhndvri3izr3,No2Qsh63,2020-0188,2021-10-14,06:41:39,08:07:16,NA,incomplete,false,true,NA,7,1,NA,orange,n_s_038.jpg,NA,NA,pleasant,unpleasant,NA,NA,NA,NA,NA,right,986.800000011921,true,NA,NA,NA,NA,NA
No2Qsh63,3t2hw4qdvykwn81ckpslwayk1hg9co,33ppungg3cihml62xmhhndvri3izr3,No2Qsh63,2020-0188,2021-10-14,06:41:39,08:07:16,NA,incomplete,false,true,NA,7,2,NA,orange,m_l_008.jpg,NA,NA,pleasant,unpleasant,NA,NA,NA,NA,NA,right,1004.90000003576,true,NA,NA,NA,NA,NA
No2Qsh63,3t2hw4qdvykwn81ckpslwayk1hg9co,33ppungg3cihml62xmhhndvri3izr3,No2Qsh63,2020-0188,2021-10-14,06:41:39,08:07:16,NA,incomplete,false,true,NA,7,3,NA,orange,n_s_081.jpg,NA,NA,pleasant,unpleasant,NA,NA,NA,NA,NA,right,1065.30000001192,true,NA,NA,NA,NA,NA
No2Qsh63,3t2hw4qdvykwn81ckpslwayk1hg9co,33ppungg3cihml62xmhhndvri3izr3,No2Qsh63,2020-0188,2021-10-14,06:41:39,08:07:16,NA,incomplete,false,true,NA,7,4,NA,orange,m_l_032.jpg,NA,NA,unpleasant,pleasant,NA,NA,NA,NA,NA,right,1674.5,true,NA,NA,NA,NA,NA
No2Qsh63,3t2hw4qdvykwn81ckpslwayk1hg9co,33ppungg3cihml62xmhhndvri3izr3,No2Qsh63,2020-0188,2021-10-14,06:41:39,08:07:16,NA,incomplete,false,true,NA,7,5,NA,orange,n_s_085.jpg,NA,NA,unpleasant,pleasant,NA,NA,NA,NA,NA,left,2698.5,true,NA,NA,NA,NA,NA
No2Qsh63,3t2hw4qdvykwn81ckpslwayk1hg9co,33ppungg3cihml62xmhhndvri3izr3,No2Qsh63,2020-0188,2021-10-14,06:41:39,08:07:16,NA,incomplete,false,true,NA,7,6,NA,black,n_l_009.jpg,NA,NA,unpleasant,pleasant,NA,NA,NA,NA,NA,left,687.099999964237,true,NA,NA,NA,NA,NA
No2Qsh63,3t2hw4qdvykwn81ckpslwayk1hg9co,33ppungg3cihml62xmhhndvri3izr3,No2Qsh63,2020-0188,2021-10-14,06:41:39,08:07:16,NA,incomplete,false,true,NA,7,7,NA,black,m_s_049.jpg,NA,NA,pleasant,unpleasant,NA,NA,NA,NA,NA,left,1093.19999998808,true,NA,NA,NA,NA,NA
No2Qsh63,3t2hw4qdvykwn81ckpslwayk1hg9co,33ppungg3cihml62xmhhndvri3izr3,No2Qsh63,2020-0188,2021-10-14,06:41:39,08:07:16,NA,incomplete,false,true,NA,7,8,NA,black,n_l_070.jpg,NA,NA,pleasant,unpleasant,NA,NA,NA,NA,NA,left,832.5,true,NA,NA,NA,NA,NA
No2Qsh63,3t2hw4qdvykwn81ckpslwayk1hg9co,33ppungg3cihml62xmhhndvri3izr3,No2Qsh63,2020-0188,2021-10-14,06:41:39,08:07:16,NA,incomplete,false,true,NA,7,9,NA,black,n_s_111.jpg,NA,NA,unpleasant,pleasant,NA,NA,NA,NA,NA,right,522.100000023842,true,NA,NA,NA,NA,NA
No2Qsh63,3t2hw4qdvykwn81ckpslwayk1hg9co,33ppungg3cihml62xmhhndvri3izr3,No2Qsh63,2020-0188,2021-10-14,06:41:39,08:07:16,NA,incomplete,false,true,NA,7,10,NA,black,n_s_050.jpg,NA,NA,pleasant,unpleasant,NA,NA,NA,NA,NA,right,474.900000035763,true,NA,NA,NA,NA,NA
No2Qsh63,3t2hw4qdvykwn81ckpslwayk1hg9co,33ppungg3cihml62xmhhndvri3izr3,No2Qsh63,2020-0188,2021-10-14,06:41:39,08:07:16,NA,incomplete,false,true,NA,7,11,NA,black,n_l_065.jpg,NA,NA,unpleasant,pleasant,NA,NA,NA,NA,NA,left,2327.5,true,NA,NA,NA,NA,NA
No2Qsh63,3t2hw4qdvykwn81ckpslwayk1hg9co,33ppungg3cihml62xmhhndvri3izr3,No2Qsh63,2020-0188,2021-10-14,06:41:39,08:07:16,NA,incomplete,false,true,NA,7,12,NA,brown,n_l_003.jpg,NA,NA,unpleasant,pleasant,NA,NA,NA,NA,NA,right,1960.60000002384,true,NA,NA,NA,NA,NA
No2Qsh63,3t2hw4qdvykwn81ckpslwayk1hg9co,33ppungg3cihml62xmhhndvri3izr3,No2Qsh63,2020-0188,2021-10-14,06:41:39,08:07:16,NA,incomplete,false,true,NA,7,13,NA,brown,n_s_063.jpg,NA,NA,unpleasant,pleasant,NA,NA,NA,NA,NA,right,1256,true,NA,NA,NA,NA,NA
No2Qsh63,3t2hw4qdvykwn81ckpslwayk1hg9co,33ppungg3cihml62xmhhndvri3izr3,No2Qsh63,2020-0188,2021-10-14,06:41:39,08:07:16,NA,incomplete,false,true,NA,7,14,NA,brown,n_l_116.jpg,NA,NA,unpleasant,pleasant,NA,NA,NA,NA,NA,right,1449.90000003576,true,NA,NA,NA,NA,NA
No2Qsh63,3t2hw4qdvykwn81ckpslwayk1hg9co,33ppungg3cihml62xmhhndvri3izr3,No2Qsh63,2020-0188,2021-10-14,06:41:39,08:07:16,NA,incomplete,false,true,NA,7,15,NA,brown,n_l_083.jpg,NA,NA,pleasant,unpleasant,NA,NA,NA,NA,NA,right,1334.60000002384,true,NA,NA,NA,NA,NA
No2Qsh63,3t2hw4qdvykwn81ckpslwayk1hg9co,33ppungg3cihml62xmhhndvri3izr3,No2Qsh63,2020-0188,2021-10-14,06:41:39,08:07:16,NA,incomplete,false,true,NA,7,16,NA,brown,m_s_116.jpg,NA,NA,unpleasant,pleasant,NA,NA,NA,NA,NA,right,1429.10000002384,true,NA,NA,NA,NA,NA
No2Qsh63,3t2hw4qdvykwn81ckpslwayk1hg9co,33ppungg3cihml62xmhhndvri3izr3,No2Qsh63,2020-0188,2021-10-14,06:41:39,08:07:16,NA,incomplete,false,true,NA,7,17,NA,brown,n_s_007.jpg,NA,NA,pleasant,unpleasant,NA,NA,NA,NA,NA,right,1386.09999996424,true,NA,NA,NA,NA,NA
No2Qsh63,3t2hw4qdvykwn81ckpslwayk1hg9co,33ppungg3cihml62xmhhndvri3izr3,No2Qsh63,2020-0188,2021-10-14,06:41:39,08:07:16,NA,incomplete,false,true,NA,7,18,NA,purple,m_s_016.jpg,NA,NA,pleasant,unpleasant,NA,NA,NA,NA,NA,left,2092.90000003576,true,NA,NA,NA,NA,NA
No2Qsh63,3t2hw4qdvykwn81ckpslwayk1hg9co,33ppungg3cihml62xmhhndvri3izr3,No2Qsh63,2020-0188,2021-10-14,06:41:39,08:07:16,NA,incomplete,false,true,NA,7,19,NA,purple,m_s_055.jpg,NA,NA,unpleasant,pleasant,NA,NA,NA,NA,NA,left,1606.69999998808,true,NA,NA,NA,NA,NA
No2Qsh63,3t2hw4qdvykwn81ckpslwayk1hg9co,33ppungg3cihml62xmhhndvri3izr3,No2Qsh63,2020-0188,2021-10-14,06:41:39,08:07:16,NA,incomplete,false,true,NA,7,20,NA,purple,m_l_090.jpg,NA,NA,unpleasant,pleasant,NA,NA,NA,NA,NA,left,1258.30000001192,true,NA,NA,NA,NA,NA
No2Qsh63,3t2hw4qdvykwn81ckpslwayk1hg9co,33ppungg3cihml62xmhhndvri3izr3,No2Qsh63,2020-0188,2021-10-14,06:41:39,08:07:16,NA,incomplete,false,true,NA,7,21,NA,purple,m_l_093.jpg,NA,NA,pleasant,unpleasant,NA,NA,NA,NA,NA,left,1278.09999996424,true,NA,NA,NA,NA,NA
No2Qsh63,3t2hw4qdvykwn81ckpslwayk1hg9co,33ppungg3cihml62xmhhndvri3izr3,No2Qsh63,2020-0188,2021-10-14,06:41:39,08:07:16,NA,incomplete,false,true,NA,7,22,NA,purple,m_l_056.jpg,NA,NA,pleasant,unpleasant,NA,NA,NA,NA,NA,left,1244.20000004768,true,NA,NA,NA,NA,NA
No2Qsh63,3t2hw4qdvykwn81ckpslwayk1hg9co,33ppungg3cihml62xmhhndvri3izr3,No2Qsh63,2020-0188,2021-10-14,06:41:39,08:07:16,NA,incomplete,false,true,NA,7,23,NA,purple,m_s_032.jpg,NA,NA,pleasant,unpleasant,NA,NA,NA,NA,NA,left,1268.5,true,NA,NA,NA,NA,NA
No2Qsh63,3t2hw4qdvykwn81ckpslwayk1hg9co,33ppungg3cihml62xmhhndvri3izr3,No2Qsh63,2020-0188,2021-10-14,06:41:39,08:07:16,NA,incomplete,false,true,NA,7,24,NA,red,n_s_075.jpg,NA,NA,unpleasant,pleasant,NA,NA,NA,NA,NA,left,1767.39999997616,true,NA,NA,NA,NA,NA
No2Qsh63,3t2hw4qdvykwn81ckpslwayk1hg9co,33ppungg3cihml62xmhhndvri3izr3,No2Qsh63,2020-0188,2021-10-14,06:41:39,08:07:16,NA,incomplete,false,true,NA,7,25,NA,red,m_s_036.jpg,NA,NA,pleasant,unpleasant,NA,NA,NA,NA,NA,left,1395.69999998808,true,NA,NA,NA,NA,NA
No2Qsh63,3t2hw4qdvykwn81ckpslwayk1hg9co,33ppungg3cihml62xmhhndvri3izr3,No2Qsh63,2020-0188,2021-10-14,06:41:39,08:07:16,NA,incomplete,false,true,NA,7,26,NA,red,n_l_023.jpg,NA,NA,unpleasant,pleasant,NA,NA,NA,NA,NA,left,1395.19999998808,true,NA,NA,NA,NA,NA
No2Qsh63,3t2hw4qdvykwn81ckpslwayk1hg9co,33ppungg3cihml62xmhhndvri3izr3,No2Qsh63,2020-0188,2021-10-14,06:41:39,08:07:16,NA,incomplete,false,true,NA,7,27,NA,red,m_s_018.jpg,NA,NA,unpleasant,pleasant,NA,NA,NA,NA,NA,right,2691.69999998808,true,NA,NA,NA,NA,NA
No2Qsh63,3t2hw4qdvykwn81ckpslwayk1hg9co,33ppungg3cihml62xmhhndvri3izr3,No2Qsh63,2020-0188,2021-10-14,06:41:39,08:07:16,NA,incomplete,false,true,NA,7,28,NA,red,n_l_013.jpg,NA,NA,pleasant,unpleasant,NA,NA,NA,NA,NA,right,1560.30000001192,true,NA,NA,NA,NA,NA
No2Qsh63,3t2hw4qdvykwn81ckpslwayk1hg9co,33ppungg3cihml62xmhhndvri3izr3,No2Qsh63,2020-0188,2021-10-14,06:41:39,08:07:16,NA,incomplete,false,true,NA,7,29,NA,red,n_s_108.jpg,NA,NA,unpleasant,pleasant,NA,NA,NA,NA,NA,left,2075.79999995232,true,NA,NA,NA,NA,NA
No2Qsh63,3t2hw4qdvykwn81ckpslwayk1hg9co,33ppungg3cihml62xmhhndvri3izr3,No2Qsh63,2020-0188,2021-10-14,06:41:39,08:07:16,NA,incomplete,false,true,NA,7,30,NA,gray,m_l_085.jpg,NA,NA,unpleasant,pleasant,NA,NA,NA,NA,NA,left,788.899999976158,true,NA,NA,NA,NA,NA
No2Qsh63,3t2hw4qdvykwn81ckpslwayk1hg9co,33ppungg3cihml62xmhhndvri3izr3,No2Qsh63,2020-0188,2021-10-14,06:41:39,08:07:16,NA,incomplete,false,true,NA,7,31,NA,gray,m_l_011.jpg,NA,NA,pleasant,unpleasant,NA,NA,NA,NA,NA,left,645.800000011921,true,NA,NA,NA,NA,NA
No2Qsh63,3t2hw4qdvykwn81ckpslwayk1hg9co,33ppungg3cihml62xmhhndvri3izr3,No2Qsh63,2020-0188,2021-10-14,06:41:39,08:07:16,NA,incomplete,false,true,NA,7,32,NA,gray,n_s_026.jpg,NA,NA,pleasant,unpleasant,NA,NA,NA,NA,NA,right,2235.20000004768,true,NA,NA,NA,NA,NA
No2Qsh63,3t2hw4qdvykwn81ckpslwayk1hg9co,33ppungg3cihml62xmhhndvri3izr3,No2Qsh63,2020-0188,2021-10-14,06:41:39,08:07:16,NA,incomplete,false,true,NA,7,33,NA,gray,m_s_114.jpg,NA,NA,pleasant,unpleasant,NA,NA,NA,NA,NA,right,1375.5,true,NA,NA,NA,NA,NA
No2Qsh63,3t2hw4qdvykwn81ckpslwayk1hg9co,33ppungg3cihml62xmhhndvri3izr3,No2Qsh63,2020-0188,2021-10-14,06:41:39,08:07:16,NA,incomplete,false,true,NA,7,34,NA,gray,m_s_029.jpg,NA,NA,unpleasant,pleasant,NA,NA,NA,NA,NA,right,994.900000035763,true,NA,NA,NA,NA,NA
No2Qsh63,3t2hw4qdvykwn81ckpslwayk1hg9co,33ppungg3cihml62xmhhndvri3izr3,No2Qsh63,2020-0188,2021-10-14,06:41:39,08:07:16,NA,incomplete,false,true,NA,7,35,NA,gray,n_l_010.jpg,NA,NA,unpleasant,pleasant,NA,NA,NA,NA,NA,right,1045.40000003576,true,NA,NA,NA,NA,NA
No2Qsh63,3t2hw4qdvykwn81ckpslwayk1hg9co,33ppungg3cihml62xmhhndvri3izr3,No2Qsh63,2020-0188,2021-10-14,06:41:39,08:07:16,NA,incomplete,false,NA,true,7,0,NA,NA,NA,left,present,NA,NA,n_s_050.jpg,black,n_l_116.jpg,brown,between,NA,NaN,NA,left,2141.899999976158,1,1,1886.1000000238419
No2Qsh63,3t2hw4qdvykwn81ckpslwayk1hg9co,33ppungg3cihml62xmhhndvri3izr3,No2Qsh63,2020-0188,2021-10-14,06:41:39,08:07:16,NA,incomplete,false,NA,true,7,1,NA,NA,NA,right,present,NA,NA,n_l_023.jpg,red,m_l_056.jpg,purple,between,NA,NaN,NA,right,1674.0999999642372,1,1,1154
No2Qsh63,3t2hw4qdvykwn81ckpslwayk1hg9co,33ppungg3cihml62xmhhndvri3izr3,No2Qsh63,2020-0188,2021-10-14,06:41:39,08:07:16,NA,incomplete,false,NA,true,7,2,NA,NA,NA,left,present,NA,NA,n_s_063.jpg,brown,n_s_007.jpg,brown,within,NA,NaN,NA,left,4086.399999976158,1,1,1326.3999999761581
No2Qsh63,3t2hw4qdvykwn81ckpslwayk1hg9co,33ppungg3cihml62xmhhndvri3izr3,No2Qsh63,2020-0188,2021-10-14,06:41:39,08:07:16,NA,incomplete,false,NA,true,7,3,NA,NA,NA,left,present,NA,NA,m_s_116.jpg,brown,m_l_090.jpg,purple,between,NA,NaN,NA,right,1678.300000011921,0,1,1638.5
No2Qsh63,3t2hw4qdvykwn81ckpslwayk1hg9co,33ppungg3cihml62xmhhndvri3izr3,No2Qsh63,2020-0188,2021-10-14,06:41:39,08:07:16,NA,incomplete,false,NA,true,7,4,NA,NA,NA,right,present,NA,NA,n_l_010.jpg,gray,m_l_011.jpg,gray,within,NA,NaN,NA,left,3919.399999976158,0,2,1391.3999999761581
No2Qsh63,3t2hw4qdvykwn81ckpslwayk1hg9co,33ppungg3cihml62xmhhndvri3izr3,No2Qsh63,2020-0188,2021-10-14,06:41:39,08:07:16,NA,incomplete,false,NA,true,7,5,NA,NA,NA,left,present,NA,NA,m_s_049.jpg,black,n_l_065.jpg,black,within,NA,NaN,NA,right,1736.199999988079,0,1,2391.100000023842
No2Qsh63,3t2hw4qdvykwn81ckpslwayk1hg9co,33ppungg3cihml62xmhhndvri3izr3,No2Qsh63,2020-0188,2021-10-14,06:41:39,08:07:16,NA,incomplete,false,NA,true,7,6,NA,NA,NA,right,present,NA,NA,m_s_032.jpg,purple,m_s_055.jpg,purple,within,NA,NaN,NA,right,1511.699999988079,1,2,1630.7999999523163
No2Qsh63,3t2hw4qdvykwn81ckpslwayk1hg9co,33ppungg3cihml62xmhhndvri3izr3,No2Qsh63,2020-0188,2021-10-14,06:41:39,08:07:16,NA,incomplete,false,NA,true,7,7,NA,NA,NA,right,present,NA,NA,n_s_108.jpg,red,m_s_036.jpg,red,within,NA,NaN,NA,left,2495.400000035763,0,1,1639.1000000238419
No2Qsh63,3t2hw4qdvykwn81ckpslwayk1hg9co,33ppungg3cihml62xmhhndvri3izr3,No2Qsh63,2020-0188,2021-10-14,06:41:39,08:07:16,NA,incomplete,false,NA,true,7,8,NA,NA,NA,right,present,NA,NA,n_l_070.jpg,black,m_l_032.jpg,orange,between,NA,NaN,NA,right,1578.7999999523163,1,1,2062.800000011921
No2Qsh63,3t2hw4qdvykwn81ckpslwayk1hg9co,33ppungg3cihml62xmhhndvri3izr3,No2Qsh63,2020-0188,2021-10-14,06:41:39,08:07:16,NA,incomplete,false,NA,true,7,9,NA,NA,NA,left,present,NA,NA,n_l_013.jpg,red,n_s_026.jpg,gray,between,NA,NaN,NA,right,1463.9000000357628,0,1,1798.800000011921
No2Qsh63,3t2hw4qdvykwn81ckpslwayk1hg9co,33ppungg3cihml62xmhhndvri3izr3,No2Qsh63,2020-0188,2021-10-14,06:41:39,08:07:16,NA,incomplete,false,NA,true,7,10,NA,NA,NA,right,present,NA,NA,n_s_085.jpg,orange,n_s_038.jpg,orange,within,NA,NaN,NA,right,2362.800000011921,1,2,1550.800000011921
No2Qsh63,3t2hw4qdvykwn81ckpslwayk1hg9co,33ppungg3cihml62xmhhndvri3izr3,No2Qsh63,2020-0188,2021-10-14,06:41:39,08:07:16,NA,incomplete,false,true,NA,8,0,NA,orange,n_l_103.jpg,NA,NA,pleasant,unpleasant,NA,NA,NA,NA,NA,right,2404.5,true,NA,NA,NA,NA,NA
No2Qsh63,3t2hw4qdvykwn81ckpslwayk1hg9co,33ppungg3cihml62xmhhndvri3izr3,No2Qsh63,2020-0188,2021-10-14,06:41:39,08:07:16,NA,incomplete,false,true,NA,8,1,NA,orange,n_s_066.jpg,NA,NA,pleasant,unpleasant,NA,NA,NA,NA,NA,right,974.199999988079,true,NA,NA,NA,NA,NA
No2Qsh63,3t2hw4qdvykwn81ckpslwayk1hg9co,33ppungg3cihml62xmhhndvri3izr3,No2Qsh63,2020-0188,2021-10-14,06:41:39,08:07:16,NA,incomplete,false,true,NA,8,2,NA,orange,n_l_087.jpg,NA,NA,pleasant,unpleasant,NA,NA,NA,NA,NA,right,935.399999976158,true,NA,NA,NA,NA,NA
No2Qsh63,3t2hw4qdvykwn81ckpslwayk1hg9co,33ppungg3cihml62xmhhndvri3izr3,No2Qsh63,2020-0188,2021-10-14,06:41:39,08:07:16,NA,incomplete,false,true,NA,8,3,NA,orange,m_s_033.jpg,NA,NA,unpleasant,pleasant,NA,NA,NA,NA,NA,right,1225.89999997616,true,NA,NA,NA,NA,NA
No2Qsh63,3t2hw4qdvykwn81ckpslwayk1hg9co,33ppungg3cihml62xmhhndvri3izr3,No2Qsh63,2020-0188,2021-10-14,06:41:39,08:07:16,NA,incomplete,false,true,NA,8,4,NA,orange,n_l_059.jpg,NA,NA,pleasant,unpleasant,NA,NA,NA,NA,NA,right,1016.80000001192,true,NA,NA,NA,NA,NA
No2Qsh63,3t2hw4qdvykwn81ckpslwayk1hg9co,33ppungg3cihml62xmhhndvri3izr3,No2Qsh63,2020-0188,2021-10-14,06:41:39,08:07:16,NA,incomplete,false,true,NA,8,5,NA,orange,m_s_066.jpg,NA,NA,unpleasant,pleasant,NA,NA,NA,NA,NA,right,1344,true,NA,NA,NA,NA,NA
No2Qsh63,3t2hw4qdvykwn81ckpslwayk1hg9co,33ppungg3cihml62xmhhndvri3izr3,No2Qsh63,2020-0188,2021-10-14,06:41:39,08:07:16,NA,incomplete,false,true,NA,8,6,NA,brown,n_s_099.jpg,NA,NA,unpleasant,pleasant,NA,NA,NA,NA,NA,right,764.599999964237,true,NA,NA,NA,NA,NA
No2Qsh63,3t2hw4qdvykwn81ckpslwayk1hg9co,33ppungg3cihml62xmhhndvri3izr3,No2Qsh63,2020-0188,2021-10-14,06:41:39,08:07:16,NA,incomplete,false,true,NA,8,7,NA,brown,n_s_071.jpg,NA,NA,pleasant,unpleasant,NA,NA,NA,NA,NA,right,1434.09999996424,true,NA,NA,NA,NA,NA
No2Qsh63,3t2hw4qdvykwn81ckpslwayk1hg9co,33ppungg3cihml62xmhhndvri3izr3,No2Qsh63,2020-0188,2021-10-14,06:41:39,08:07:16,NA,incomplete,false,true,NA,8,8,NA,brown,m_l_101.jpg,NA,NA,unpleasant,pleasant,NA,NA,NA,NA,NA,right,974.199999988079,true,NA,NA,NA,NA,NA
