workerId,hitId,assignmentId,subject,studyid,exp_date,exp_start,exp_end,time_start,time_end,practice,encoding,memory,block,trial,event_order,event,stim,answer,context_type,label_left,label_right,left_image,left_event,right_image,right_event,condition,response,response_time,response_acc,order_response,order_response_time,order_acc,distance_response,distance_response_time
ONnijIcp,3o4vwc1gfzjxgki2d88xs18tr9fj3v,3xm0hyn6nocyzdzro7zfx8uutizpef,ONnijIcp,2020-0188,2021-10-14,19:51:46,23:06:01,NA,incomplete,true,true,NA,0,0,NA,red,n_l_010.jpg,NA,NA,unpleasant,pleasant,NA,NA,NA,NA,NA,right,1133.89999999106,true,NA,NA,NA,NA,NA
ONnijIcp,3o4vwc1gfzjxgki2d88xs18tr9fj3v,3xm0hyn6nocyzdzro7zfx8uutizpef,ONnijIcp,2020-0188,2021-10-14,19:51:46,23:06:01,NA,incomplete,true,true,NA,0,1,NA,red,n_l_064.jpg,NA,NA,unpleasant,pleasant,NA,NA,NA,NA,NA,right,987.70000000298,true,NA,NA,NA,NA,NA
ONnijIcp,3o4vwc1gfzjxgki2d88xs18tr9fj3v,3xm0hyn6nocyzdzro7zfx8uutizpef,ONnijIcp,2020-0188,2021-10-14,19:51:46,23:06:01,NA,incomplete,true,true,NA,0,2,NA,red,n_s_068.jpg,NA,NA,pleasant,unpleasant,NA,NA,NA,NA,NA,none,0,false,NA,NA,NA,NA,NA
ONnijIcp,3o4vwc1gfzjxgki2d88xs18tr9fj3v,3xm0hyn6nocyzdzro7zfx8uutizpef,ONnijIcp,2020-0188,2021-10-14,19:51:46,23:06:01,NA,incomplete,true,true,NA,0,3,NA,red,n_s_064.jpg,NA,NA,unpleasant,pleasant,NA,NA,NA,NA,NA,right,1629.89999999106,true,NA,NA,NA,NA,NA
ONnijIcp,3o4vwc1gfzjxgki2d88xs18tr9fj3v,3xm0hyn6nocyzdzro7zfx8uutizpef,ONnijIcp,2020-0188,2021-10-14,19:51:46,23:06:01,NA,incomplete,true,true,NA,0,4,NA,red,n_s_039.jpg,NA,NA,unpleasant,pleasant,NA,NA,NA,NA,NA,right,1828.09999999404,true,NA,NA,NA,NA,NA
ONnijIcp,3o4vwc1gfzjxgki2d88xs18tr9fj3v,3xm0hyn6nocyzdzro7zfx8uutizpef,ONnijIcp,2020-0188,2021-10-14,19:51:46,23:06:01,NA,incomplete,true,true,NA,0,5,NA,red,n_s_049.jpg,NA,NA,unpleasant,pleasant,NA,NA,NA,NA,NA,left,1633.60000000894,true,NA,NA,NA,NA,NA
ONnijIcp,3o4vwc1gfzjxgki2d88xs18tr9fj3v,3xm0hyn6nocyzdzro7zfx8uutizpef,ONnijIcp,2020-0188,2021-10-14,19:51:46,23:06:01,NA,incomplete,true,true,NA,0,6,NA,white,m_l_043.jpg,NA,NA,pleasant,unpleasant,NA,NA,NA,NA,NA,left,1751.19999998808,true,NA,NA,NA,NA,NA
ONnijIcp,3o4vwc1gfzjxgki2d88xs18tr9fj3v,3xm0hyn6nocyzdzro7zfx8uutizpef,ONnijIcp,2020-0188,2021-10-14,19:51:46,23:06:01,NA,incomplete,true,true,NA,0,7,NA,white,m_l_079.jpg,NA,NA,pleasant,unpleasant,NA,NA,NA,NA,NA,right,2044.70000000298,true,NA,NA,NA,NA,NA
ONnijIcp,3o4vwc1gfzjxgki2d88xs18tr9fj3v,3xm0hyn6nocyzdzro7zfx8uutizpef,ONnijIcp,2020-0188,2021-10-14,19:51:46,23:06:01,NA,incomplete,true,true,NA,0,8,NA,white,m_l_103.jpg,NA,NA,pleasant,unpleasant,NA,NA,NA,NA,NA,right,1874.39999999106,true,NA,NA,NA,NA,NA
ONnijIcp,3o4vwc1gfzjxgki2d88xs18tr9fj3v,3xm0hyn6nocyzdzro7zfx8uutizpef,ONnijIcp,2020-0188,2021-10-14,19:51:46,23:06:01,NA,incomplete,true,true,NA,0,9,NA,white,n_s_078.jpg,NA,NA,pleasant,unpleasant,NA,NA,NA,NA,NA,left,3423.70000000298,true,NA,NA,NA,NA,NA
ONnijIcp,3o4vwc1gfzjxgki2d88xs18tr9fj3v,3xm0hyn6nocyzdzro7zfx8uutizpef,ONnijIcp,2020-0188,2021-10-14,19:51:46,23:06:01,NA,incomplete,true,true,NA,0,10,NA,white,m_s_012.jpg,NA,NA,pleasant,unpleasant,NA,NA,NA,NA,NA,left,1148.59999999404,true,NA,NA,NA,NA,NA
ONnijIcp,3o4vwc1gfzjxgki2d88xs18tr9fj3v,3xm0hyn6nocyzdzro7zfx8uutizpef,ONnijIcp,2020-0188,2021-10-14,19:51:46,23:06:01,NA,incomplete,true,true,NA,0,11,NA,white,m_l_011.jpg,NA,NA,unpleasant,pleasant,NA,NA,NA,NA,NA,right,787.59999999404,true,NA,NA,NA,NA,NA
ONnijIcp,3o4vwc1gfzjxgki2d88xs18tr9fj3v,3xm0hyn6nocyzdzro7zfx8uutizpef,ONnijIcp,2020-0188,2021-10-14,19:51:46,23:06:01,NA,incomplete,true,true,NA,0,12,NA,black,n_l_043.jpg,NA,NA,unpleasant,pleasant,NA,NA,NA,NA,NA,left,2048.40000000596,true,NA,NA,NA,NA,NA
ONnijIcp,3o4vwc1gfzjxgki2d88xs18tr9fj3v,3xm0hyn6nocyzdzro7zfx8uutizpef,ONnijIcp,2020-0188,2021-10-14,19:51:46,23:06:01,NA,incomplete,true,true,NA,0,13,NA,black,n_l_031.jpg,NA,NA,unpleasant,pleasant,NA,NA,NA,NA,NA,left,1078.5,true,NA,NA,NA,NA,NA
ONnijIcp,3o4vwc1gfzjxgki2d88xs18tr9fj3v,3xm0hyn6nocyzdzro7zfx8uutizpef,ONnijIcp,2020-0188,2021-10-14,19:51:46,23:06:01,NA,incomplete,true,true,NA,0,14,NA,black,m_l_090.jpg,NA,NA,pleasant,unpleasant,NA,NA,NA,NA,NA,right,730.79999999702,true,NA,NA,NA,NA,NA
ONnijIcp,3o4vwc1gfzjxgki2d88xs18tr9fj3v,3xm0hyn6nocyzdzro7zfx8uutizpef,ONnijIcp,2020-0188,2021-10-14,19:51:46,23:06:01,NA,incomplete,true,true,NA,0,15,NA,black,n_l_016.jpg,NA,NA,unpleasant,pleasant,NA,NA,NA,NA,NA,left,1243.09999999404,true,NA,NA,NA,NA,NA
ONnijIcp,3o4vwc1gfzjxgki2d88xs18tr9fj3v,3xm0hyn6nocyzdzro7zfx8uutizpef,ONnijIcp,2020-0188,2021-10-14,19:51:46,23:06:01,NA,incomplete,true,true,NA,0,16,NA,black,m_l_026.jpg,NA,NA,unpleasant,pleasant,NA,NA,NA,NA,NA,left,1704.40000000596,true,NA,NA,NA,NA,NA
ONnijIcp,3o4vwc1gfzjxgki2d88xs18tr9fj3v,3xm0hyn6nocyzdzro7zfx8uutizpef,ONnijIcp,2020-0188,2021-10-14,19:51:46,23:06:01,NA,incomplete,true,true,NA,0,17,NA,black,n_l_066.jpg,NA,NA,pleasant,unpleasant,NA,NA,NA,NA,NA,left,1922,true,NA,NA,NA,NA,NA
ONnijIcp,3o4vwc1gfzjxgki2d88xs18tr9fj3v,3xm0hyn6nocyzdzro7zfx8uutizpef,ONnijIcp,2020-0188,2021-10-14,19:51:46,23:06:01,NA,incomplete,true,true,NA,0,18,NA,orange,m_s_066.jpg,NA,NA,pleasant,unpleasant,NA,NA,NA,NA,NA,right,3307.29999999702,true,NA,NA,NA,NA,NA
ONnijIcp,3o4vwc1gfzjxgki2d88xs18tr9fj3v,3xm0hyn6nocyzdzro7zfx8uutizpef,ONnijIcp,2020-0188,2021-10-14,19:51:46,23:06:01,NA,incomplete,true,true,NA,0,19,NA,orange,n_s_074.jpg,NA,NA,pleasant,unpleasant,NA,NA,NA,NA,NA,left,2431.5,true,NA,NA,NA,NA,NA
ONnijIcp,3o4vwc1gfzjxgki2d88xs18tr9fj3v,3xm0hyn6nocyzdzro7zfx8uutizpef,ONnijIcp,2020-0188,2021-10-14,19:51:46,23:06:01,NA,incomplete,true,true,NA,0,20,NA,orange,m_s_029.jpg,NA,NA,pleasant,unpleasant,NA,NA,NA,NA,NA,right,1478.29999999702,true,NA,NA,NA,NA,NA
ONnijIcp,3o4vwc1gfzjxgki2d88xs18tr9fj3v,3xm0hyn6nocyzdzro7zfx8uutizpef,ONnijIcp,2020-0188,2021-10-14,19:51:46,23:06:01,NA,incomplete,true,true,NA,0,21,NA,orange,n_s_101.jpg,NA,NA,unpleasant,pleasant,NA,NA,NA,NA,NA,left,1404.90000000596,true,NA,NA,NA,NA,NA
ONnijIcp,3o4vwc1gfzjxgki2d88xs18tr9fj3v,3xm0hyn6nocyzdzro7zfx8uutizpef,ONnijIcp,2020-0188,2021-10-14,19:51:46,23:06:01,NA,incomplete,true,true,NA,0,22,NA,orange,m_l_018.jpg,NA,NA,pleasant,unpleasant,NA,NA,NA,NA,NA,right,1561.79999999702,true,NA,NA,NA,NA,NA
ONnijIcp,3o4vwc1gfzjxgki2d88xs18tr9fj3v,3xm0hyn6nocyzdzro7zfx8uutizpef,ONnijIcp,2020-0188,2021-10-14,19:51:46,23:06:01,NA,incomplete,true,true,NA,0,23,NA,orange,n_s_030.jpg,NA,NA,pleasant,unpleasant,NA,NA,NA,NA,NA,left,800,true,NA,NA,NA,NA,NA
ONnijIcp,3o4vwc1gfzjxgki2d88xs18tr9fj3v,3xm0hyn6nocyzdzro7zfx8uutizpef,ONnijIcp,2020-0188,2021-10-14,19:51:46,23:06:01,NA,incomplete,true,true,NA,0,24,NA,purple,n_s_017.jpg,NA,NA,pleasant,unpleasant,NA,NA,NA,NA,NA,left,1574.30000001192,true,NA,NA,NA,NA,NA
ONnijIcp,3o4vwc1gfzjxgki2d88xs18tr9fj3v,3xm0hyn6nocyzdzro7zfx8uutizpef,ONnijIcp,2020-0188,2021-10-14,19:51:46,23:06:01,NA,incomplete,true,true,NA,0,25,NA,purple,m_l_100.jpg,NA,NA,unpleasant,pleasant,NA,NA,NA,NA,NA,right,994.300000011921,true,NA,NA,NA,NA,NA
ONnijIcp,3o4vwc1gfzjxgki2d88xs18tr9fj3v,3xm0hyn6nocyzdzro7zfx8uutizpef,ONnijIcp,2020-0188,2021-10-14,19:51:46,23:06:01,NA,incomplete,true,true,NA,0,26,NA,purple,m_l_094.jpg,NA,NA,unpleasant,pleasant,NA,NA,NA,NA,NA,left,944.79999999702,true,NA,NA,NA,NA,NA
ONnijIcp,3o4vwc1gfzjxgki2d88xs18tr9fj3v,3xm0hyn6nocyzdzro7zfx8uutizpef,ONnijIcp,2020-0188,2021-10-14,19:51:46,23:06:01,NA,incomplete,true,true,NA,0,27,NA,purple,m_l_081.jpg,NA,NA,pleasant,unpleasant,NA,NA,NA,NA,NA,left,1134,true,NA,NA,NA,NA,NA
ONnijIcp,3o4vwc1gfzjxgki2d88xs18tr9fj3v,3xm0hyn6nocyzdzro7zfx8uutizpef,ONnijIcp,2020-0188,2021-10-14,19:51:46,23:06:01,NA,incomplete,true,true,NA,0,28,NA,purple,n_s_060.jpg,NA,NA,pleasant,unpleasant,NA,NA,NA,NA,NA,left,1316,true,NA,NA,NA,NA,NA
ONnijIcp,3o4vwc1gfzjxgki2d88xs18tr9fj3v,3xm0hyn6nocyzdzro7zfx8uutizpef,ONnijIcp,2020-0188,2021-10-14,19:51:46,23:06:01,NA,incomplete,true,true,NA,0,29,NA,purple,n_l_057.jpg,NA,NA,pleasant,unpleasant,NA,NA,NA,NA,NA,right,793.90000000596,true,NA,NA,NA,NA,NA
ONnijIcp,3o4vwc1gfzjxgki2d88xs18tr9fj3v,3xm0hyn6nocyzdzro7zfx8uutizpef,ONnijIcp,2020-0188,2021-10-14,19:51:46,23:06:01,NA,incomplete,true,true,NA,0,30,NA,blue,m_l_029.jpg,NA,NA,pleasant,unpleasant,NA,NA,NA,NA,NA,left,1176.70000000298,true,NA,NA,NA,NA,NA
ONnijIcp,3o4vwc1gfzjxgki2d88xs18tr9fj3v,3xm0hyn6nocyzdzro7zfx8uutizpef,ONnijIcp,2020-0188,2021-10-14,19:51:46,23:06:01,NA,incomplete,true,true,NA,0,31,NA,blue,m_s_082.jpg,NA,NA,pleasant,unpleasant,NA,NA,NA,NA,NA,right,966.300000011921,true,NA,NA,NA,NA,NA
ONnijIcp,3o4vwc1gfzjxgki2d88xs18tr9fj3v,3xm0hyn6nocyzdzro7zfx8uutizpef,ONnijIcp,2020-0188,2021-10-14,19:51:46,23:06:01,NA,incomplete,true,true,NA,0,32,NA,blue,n_l_052.jpg,NA,NA,unpleasant,pleasant,NA,NA,NA,NA,NA,left,1380,true,NA,NA,NA,NA,NA
ONnijIcp,3o4vwc1gfzjxgki2d88xs18tr9fj3v,3xm0hyn6nocyzdzro7zfx8uutizpef,ONnijIcp,2020-0188,2021-10-14,19:51:46,23:06:01,NA,incomplete,true,true,NA,0,33,NA,blue,m_s_080.jpg,NA,NA,pleasant,unpleasant,NA,NA,NA,NA,NA,right,1538.5,true,NA,NA,NA,NA,NA
ONnijIcp,3o4vwc1gfzjxgki2d88xs18tr9fj3v,3xm0hyn6nocyzdzro7zfx8uutizpef,ONnijIcp,2020-0188,2021-10-14,19:51:46,23:06:01,NA,incomplete,true,true,NA,0,34,NA,blue,n_s_056.jpg,NA,NA,pleasant,unpleasant,NA,NA,NA,NA,NA,left,1527.70000000298,true,NA,NA,NA,NA,NA
ONnijIcp,3o4vwc1gfzjxgki2d88xs18tr9fj3v,3xm0hyn6nocyzdzro7zfx8uutizpef,ONnijIcp,2020-0188,2021-10-14,19:51:46,23:06:01,NA,incomplete,true,true,NA,0,35,NA,blue,n_l_099.jpg,NA,NA,pleasant,unpleasant,NA,NA,NA,NA,NA,right,1493,true,NA,NA,NA,NA,NA
ONnijIcp,3o4vwc1gfzjxgki2d88xs18tr9fj3v,3xm0hyn6nocyzdzro7zfx8uutizpef,ONnijIcp,2020-0188,2021-10-14,19:51:46,23:06:01,NA,incomplete,true,NA,true,0,0,NA,NA,NA,left,present,NA,NA,m_l_026.jpg,black,m_s_029.jpg,orange,between,NA,NaN,NA,left,106747.10000000894,1,1,12754.59999999404
ONnijIcp,3o4vwc1gfzjxgki2d88xs18tr9fj3v,3xm0hyn6nocyzdzro7zfx8uutizpef,ONnijIcp,2020-0188,2021-10-14,19:51:46,23:06:01,NA,incomplete,true,NA,true,0,1,NA,NA,NA,right,present,NA,NA,n_l_099.jpg,blue,m_s_082.jpg,blue,within,NA,NaN,NA,left,14361.40000000596,0,0,2060.8999999910593
ONnijIcp,3o4vwc1gfzjxgki2d88xs18tr9fj3v,3xm0hyn6nocyzdzro7zfx8uutizpef,ONnijIcp,2020-0188,2021-10-14,19:51:46,23:06:01,NA,incomplete,true,NA,true,0,2,NA,NA,NA,right,absent,NA,NA,m_l_094.jpg,purple,m_l_018.jpg,orange,between,NA,NaN,NA,right,3971.1000000089407,1,3,93755.70000000298
ONnijIcp,3o4vwc1gfzjxgki2d88xs18tr9fj3v,3xm0hyn6nocyzdzro7zfx8uutizpef,ONnijIcp,2020-0188,2021-10-14,19:51:46,23:06:01,NA,incomplete,true,NA,true,0,3,NA,NA,NA,right,absent,NA,NA,m_l_103.jpg,white,n_s_039.jpg,red,between,NA,NaN,NA,right,6069,1,0,7492.79999999702
ONnijIcp,3o4vwc1gfzjxgki2d88xs18tr9fj3v,3xm0hyn6nocyzdzro7zfx8uutizpef,ONnijIcp,2020-0188,2021-10-14,19:51:46,23:06:01,NA,incomplete,true,NA,true,0,4,NA,NA,NA,right,absent,NA,NA,m_l_011.jpg,white,m_l_079.jpg,white,within,NA,NaN,NA,right,37433.09999999404,1,2,2649.2000000029802
ONnijIcp,3o4vwc1gfzjxgki2d88xs18tr9fj3v,3xm0hyn6nocyzdzro7zfx8uutizpef,ONnijIcp,2020-0188,2021-10-14,19:51:46,23:06:01,NA,incomplete,true,NA,true,0,5,NA,NA,NA,right,absent,NA,NA,n_s_030.jpg,orange,n_s_074.jpg,orange,within,NA,NaN,NA,right,3504.9000000059605,1,0,1642.5
ONnijIcp,3o4vwc1gfzjxgki2d88xs18tr9fj3v,3xm0hyn6nocyzdzro7zfx8uutizpef,ONnijIcp,2020-0188,2021-10-14,19:51:46,23:06:01,NA,incomplete,true,NA,true,0,6,NA,NA,NA,left,absent,NA,NA,n_l_031.jpg,black,n_l_066.jpg,black,within,NA,NaN,NA,left,5330.899999991059,1,0,3143.2999999970198
ONnijIcp,3o4vwc1gfzjxgki2d88xs18tr9fj3v,3xm0hyn6nocyzdzro7zfx8uutizpef,ONnijIcp,2020-0188,2021-10-14,19:51:46,23:06:01,NA,incomplete,true,NA,true,0,7,NA,NA,NA,left,present,NA,NA,n_l_064.jpg,red,n_s_049.jpg,red,within,NA,NaN,NA,right,18841.5,0,2,2940.9000000059605
ONnijIcp,3o4vwc1gfzjxgki2d88xs18tr9fj3v,3xm0hyn6nocyzdzro7zfx8uutizpef,ONnijIcp,2020-0188,2021-10-14,19:51:46,23:06:01,NA,incomplete,true,NA,true,0,8,NA,NA,NA,left,absent,NA,NA,n_s_060.jpg,purple,n_l_052.jpg,blue,between,NA,NaN,NA,left,98635.80000001192,1,0,1374.7999999970198
ONnijIcp,3o4vwc1gfzjxgki2d88xs18tr9fj3v,3xm0hyn6nocyzdzro7zfx8uutizpef,ONnijIcp,2020-0188,2021-10-14,19:51:46,23:06:01,NA,incomplete,true,NA,true,0,9,NA,NA,NA,right,absent,NA,NA,m_l_090.jpg,black,m_s_012.jpg,white,between,NA,NaN,NA,right,44113.40000000596,1,1,3528.9000000059605
ONnijIcp,3o4vwc1gfzjxgki2d88xs18tr9fj3v,3xm0hyn6nocyzdzro7zfx8uutizpef,ONnijIcp,2020-0188,2021-10-14,19:51:46,23:06:01,NA,incomplete,true,NA,true,0,10,NA,NA,NA,right,absent,NA,NA,n_l_057.jpg,purple,m_l_100.jpg,purple,within,NA,NaN,NA,left,13525.60000000894,0,2,24918.5
ONnijIcp,3o4vwc1gfzjxgki2d88xs18tr9fj3v,3xm0hyn6nocyzdzro7zfx8uutizpef,ONnijIcp,2020-0188,2021-10-14,19:51:46,23:06:01,NA,incomplete,false,true,NA,1,0,NA,purple,n_s_084.jpg,NA,NA,unpleasant,pleasant,NA,NA,NA,NA,NA,none,0,false,NA,NA,NA,NA,NA
ONnijIcp,3o4vwc1gfzjxgki2d88xs18tr9fj3v,3xm0hyn6nocyzdzro7zfx8uutizpef,ONnijIcp,2020-0188,2021-10-14,19:51:46,23:06:01,NA,incomplete,false,true,NA,1,1,NA,purple,m_s_083.jpg,NA,NA,unpleasant,pleasant,NA,NA,NA,NA,NA,right,2851,true,NA,NA,NA,NA,NA
ONnijIcp,3o4vwc1gfzjxgki2d88xs18tr9fj3v,3xm0hyn6nocyzdzro7zfx8uutizpef,ONnijIcp,2020-0188,2021-10-14,19:51:46,23:06:01,NA,incomplete,false,true,NA,1,2,NA,purple,n_s_098.jpg,NA,NA,unpleasant,pleasant,NA,NA,NA,NA,NA,left,1007.90000000596,true,NA,NA,NA,NA,NA
ONnijIcp,3o4vwc1gfzjxgki2d88xs18tr9fj3v,3xm0hyn6nocyzdzro7zfx8uutizpef,ONnijIcp,2020-0188,2021-10-14,19:51:46,23:06:01,NA,incomplete,false,true,NA,1,3,NA,purple,m_s_098.jpg,NA,NA,pleasant,unpleasant,NA,NA,NA,NA,NA,right,2149,true,NA,NA,NA,NA,NA
ONnijIcp,3o4vwc1gfzjxgki2d88xs18tr9fj3v,3xm0hyn6nocyzdzro7zfx8uutizpef,ONnijIcp,2020-0188,2021-10-14,19:51:46,23:06:01,NA,incomplete,false,true,NA,1,4,NA,purple,m_l_025.jpg,NA,NA,pleasant,unpleasant,NA,NA,NA,NA,NA,left,1875.40000000596,true,NA,NA,NA,NA,NA
ONnijIcp,3o4vwc1gfzjxgki2d88xs18tr9fj3v,3xm0hyn6nocyzdzro7zfx8uutizpef,ONnijIcp,2020-0188,2021-10-14,19:51:46,23:06:01,NA,incomplete,false,true,NA,1,5,NA,purple,m_s_056.jpg,NA,NA,pleasant,unpleasant,NA,NA,NA,NA,NA,left,1553.09999999404,true,NA,NA,NA,NA,NA
ONnijIcp,3o4vwc1gfzjxgki2d88xs18tr9fj3v,3xm0hyn6nocyzdzro7zfx8uutizpef,ONnijIcp,2020-0188,2021-10-14,19:51:46,23:06:01,NA,incomplete,false,true,NA,1,6,NA,orange,m_s_065.jpg,NA,NA,unpleasant,pleasant,NA,NA,NA,NA,NA,left,2173.19999998808,true,NA,NA,NA,NA,NA
ONnijIcp,3o4vwc1gfzjxgki2d88xs18tr9fj3v,3xm0hyn6nocyzdzro7zfx8uutizpef,ONnijIcp,2020-0188,2021-10-14,19:51:46,23:06:01,NA,incomplete,false,true,NA,1,7,NA,orange,m_s_115.jpg,NA,NA,pleasant,unpleasant,NA,NA,NA,NA,NA,right,1402.89999999106,true,NA,NA,NA,NA,NA
ONnijIcp,3o4vwc1gfzjxgki2d88xs18tr9fj3v,3xm0hyn6nocyzdzro7zfx8uutizpef,ONnijIcp,2020-0188,2021-10-14,19:51:46,23:06:01,NA,incomplete,false,true,NA,1,8,NA,orange,m_s_040.jpg,NA,NA,pleasant,unpleasant,NA,NA,NA,NA,NA,left,1265,true,NA,NA,NA,NA,NA
ONnijIcp,3o4vwc1gfzjxgki2d88xs18tr9fj3v,3xm0hyn6nocyzdzro7zfx8uutizpef,ONnijIcp,2020-0188,2021-10-14,19:51:46,23:06:01,NA,incomplete,false,true,NA,1,9,NA,orange,m_s_070.jpg,NA,NA,unpleasant,pleasant,NA,NA,NA,NA,NA,left,1732.5,true,NA,NA,NA,NA,NA
ONnijIcp,3o4vwc1gfzjxgki2d88xs18tr9fj3v,3xm0hyn6nocyzdzro7zfx8uutizpef,ONnijIcp,2020-0188,2021-10-14,19:51:46,23:06:01,NA,incomplete,false,true,NA,1,10,NA,orange,m_l_059.jpg,NA,NA,unpleasant,pleasant,NA,NA,NA,NA,NA,left,1555.5,true,NA,NA,NA,NA,NA
ONnijIcp,3o4vwc1gfzjxgki2d88xs18tr9fj3v,3xm0hyn6nocyzdzro7zfx8uutizpef,ONnijIcp,2020-0188,2021-10-14,19:51:46,23:06:01,NA,incomplete,false,true,NA,1,11,NA,orange,m_s_071.jpg,NA,NA,unpleasant,pleasant,NA,NA,NA,NA,NA,right,1376.90000000596,true,NA,NA,NA,NA,NA
ONnijIcp,3o4vwc1gfzjxgki2d88xs18tr9fj3v,3xm0hyn6nocyzdzro7zfx8uutizpef,ONnijIcp,2020-0188,2021-10-14,19:51:46,23:06:01,NA,incomplete,false,true,NA,1,12,NA,gray,m_l_057.jpg,NA,NA,unpleasant,pleasant,NA,NA,NA,NA,NA,left,1974.5,true,NA,NA,NA,NA,NA
ONnijIcp,3o4vwc1gfzjxgki2d88xs18tr9fj3v,3xm0hyn6nocyzdzro7zfx8uutizpef,ONnijIcp,2020-0188,2021-10-14,19:51:46,23:06:01,NA,incomplete,false,true,NA,1,13,NA,gray,m_l_098.jpg,NA,NA,unpleasant,pleasant,NA,NA,NA,NA,NA,left,1187.29999999702,true,NA,NA,NA,NA,NA
ONnijIcp,3o4vwc1gfzjxgki2d88xs18tr9fj3v,3xm0hyn6nocyzdzro7zfx8uutizpef,ONnijIcp,2020-0188,2021-10-14,19:51:46,23:06:01,NA,incomplete,false,true,NA,1,14,NA,gray,m_l_032.jpg,NA,NA,unpleasant,pleasant,NA,NA,NA,NA,NA,left,1881.19999998808,true,NA,NA,NA,NA,NA
ONnijIcp,3o4vwc1gfzjxgki2d88xs18tr9fj3v,3xm0hyn6nocyzdzro7zfx8uutizpef,ONnijIcp,2020-0188,2021-10-14,19:51:46,23:06:01,NA,incomplete,false,true,NA,1,15,NA,gray,n_l_040.jpg,NA,NA,pleasant,unpleasant,NA,NA,NA,NA,NA,right,1406.79999999702,true,NA,NA,NA,NA,NA
ONnijIcp,3o4vwc1gfzjxgki2d88xs18tr9fj3v,3xm0hyn6nocyzdzro7zfx8uutizpef,ONnijIcp,2020-0188,2021-10-14,19:51:46,23:06:01,NA,incomplete,false,true,NA,1,16,NA,gray,n_l_068.jpg,NA,NA,unpleasant,pleasant,NA,NA,NA,NA,NA,right,1556,true,NA,NA,NA,NA,NA
ONnijIcp,3o4vwc1gfzjxgki2d88xs18tr9fj3v,3xm0hyn6nocyzdzro7zfx8uutizpef,ONnijIcp,2020-0188,2021-10-14,19:51:46,23:06:01,NA,incomplete,false,true,NA,1,17,NA,gray,m_l_031.jpg,NA,NA,pleasant,unpleasant,NA,NA,NA,NA,NA,right,1546,true,NA,NA,NA,NA,NA
ONnijIcp,3o4vwc1gfzjxgki2d88xs18tr9fj3v,3xm0hyn6nocyzdzro7zfx8uutizpef,ONnijIcp,2020-0188,2021-10-14,19:51:46,23:06:01,NA,incomplete,false,true,NA,1,18,NA,white,n_s_042.jpg,NA,NA,unpleasant,pleasant,NA,NA,NA,NA,NA,left,2031.60000000894,true,NA,NA,NA,NA,NA
ONnijIcp,3o4vwc1gfzjxgki2d88xs18tr9fj3v,3xm0hyn6nocyzdzro7zfx8uutizpef,ONnijIcp,2020-0188,2021-10-14,19:51:46,23:06:01,NA,incomplete,false,true,NA,1,19,NA,white,m_l_110.jpg,NA,NA,unpleasant,pleasant,NA,NA,NA,NA,NA,right,1677.69999998808,true,NA,NA,NA,NA,NA
ONnijIcp,3o4vwc1gfzjxgki2d88xs18tr9fj3v,3xm0hyn6nocyzdzro7zfx8uutizpef,ONnijIcp,2020-0188,2021-10-14,19:51:46,23:06:01,NA,incomplete,false,true,NA,1,20,NA,white,n_s_107.jpg,NA,NA,pleasant,unpleasant,NA,NA,NA,NA,NA,left,1531.10000000894,true,NA,NA,NA,NA,NA
ONnijIcp,3o4vwc1gfzjxgki2d88xs18tr9fj3v,3xm0hyn6nocyzdzro7zfx8uutizpef,ONnijIcp,2020-0188,2021-10-14,19:51:46,23:06:01,NA,incomplete,false,true,NA,1,21,NA,white,m_l_070.jpg,NA,NA,unpleasant,pleasant,NA,NA,NA,NA,NA,left,1593.19999998808,true,NA,NA,NA,NA,NA
ONnijIcp,3o4vwc1gfzjxgki2d88xs18tr9fj3v,3xm0hyn6nocyzdzro7zfx8uutizpef,ONnijIcp,2020-0188,2021-10-14,19:51:46,23:06:01,NA,incomplete,false,true,NA,1,22,NA,white,n_s_077.jpg,NA,NA,unpleasant,pleasant,NA,NA,NA,NA,NA,left,1127.79999999702,true,NA,NA,NA,NA,NA
ONnijIcp,3o4vwc1gfzjxgki2d88xs18tr9fj3v,3xm0hyn6nocyzdzro7zfx8uutizpef,ONnijIcp,2020-0188,2021-10-14,19:51:46,23:06:01,NA,incomplete,false,true,NA,1,23,NA,white,m_l_005.jpg,NA,NA,unpleasant,pleasant,NA,NA,NA,NA,NA,right,1197.60000000894,true,NA,NA,NA,NA,NA
ONnijIcp,3o4vwc1gfzjxgki2d88xs18tr9fj3v,3xm0hyn6nocyzdzro7zfx8uutizpef,ONnijIcp,2020-0188,2021-10-14,19:51:46,23:06:01,NA,incomplete,false,true,NA,1,24,NA,black,n_s_035.jpg,NA,NA,pleasant,unpleasant,NA,NA,NA,NA,NA,left,1619.69999998808,true,NA,NA,NA,NA,NA
ONnijIcp,3o4vwc1gfzjxgki2d88xs18tr9fj3v,3xm0hyn6nocyzdzro7zfx8uutizpef,ONnijIcp,2020-0188,2021-10-14,19:51:46,23:06:01,NA,incomplete,false,true,NA,1,25,NA,black,m_l_099.jpg,NA,NA,pleasant,unpleasant,NA,NA,NA,NA,NA,left,1776.5,true,NA,NA,NA,NA,NA
ONnijIcp,3o4vwc1gfzjxgki2d88xs18tr9fj3v,3xm0hyn6nocyzdzro7zfx8uutizpef,ONnijIcp,2020-0188,2021-10-14,19:51:46,23:06:01,NA,incomplete,false,true,NA,1,26,NA,black,m_s_022.jpg,NA,NA,unpleasant,pleasant,NA,NA,NA,NA,NA,right,1711.70000000298,true,NA,NA,NA,NA,NA
ONnijIcp,3o4vwc1gfzjxgki2d88xs18tr9fj3v,3xm0hyn6nocyzdzro7zfx8uutizpef,ONnijIcp,2020-0188,2021-10-14,19:51:46,23:06:01,NA,incomplete,false,true,NA,1,27,NA,black,n_l_025.jpg,NA,NA,pleasant,unpleasant,NA,NA,NA,NA,NA,left,1204.79999999702,true,NA,NA,NA,NA,NA
ONnijIcp,3o4vwc1gfzjxgki2d88xs18tr9fj3v,3xm0hyn6nocyzdzro7zfx8uutizpef,ONnijIcp,2020-0188,2021-10-14,19:51:46,23:06:01,NA,incomplete,false,true,NA,1,28,NA,black,m_l_052.jpg,NA,NA,unpleasant,pleasant,NA,NA,NA,NA,NA,right,1434.39999999106,true,NA,NA,NA,NA,NA
ONnijIcp,3o4vwc1gfzjxgki2d88xs18tr9fj3v,3xm0hyn6nocyzdzro7zfx8uutizpef,ONnijIcp,2020-0188,2021-10-14,19:51:46,23:06:01,NA,incomplete,false,true,NA,1,29,NA,black,m_s_002.jpg,NA,NA,unpleasant,pleasant,NA,NA,NA,NA,NA,right,1766.60000000894,true,NA,NA,NA,NA,NA
ONnijIcp,3o4vwc1gfzjxgki2d88xs18tr9fj3v,3xm0hyn6nocyzdzro7zfx8uutizpef,ONnijIcp,2020-0188,2021-10-14,19:51:46,23:06:01,NA,incomplete,false,true,NA,1,30,NA,brown,m_s_073.jpg,NA,NA,unpleasant,pleasant,NA,NA,NA,NA,NA,right,1732.79999999702,true,NA,NA,NA,NA,NA
ONnijIcp,3o4vwc1gfzjxgki2d88xs18tr9fj3v,3xm0hyn6nocyzdzro7zfx8uutizpef,ONnijIcp,2020-0188,2021-10-14,19:51:46,23:06:01,NA,incomplete,false,true,NA,1,31,NA,brown,m_s_052.jpg,NA,NA,unpleasant,pleasant,NA,NA,NA,NA,NA,right,1402.40000000596,true,NA,NA,NA,NA,NA
ONnijIcp,3o4vwc1gfzjxgki2d88xs18tr9fj3v,3xm0hyn6nocyzdzro7zfx8uutizpef,ONnijIcp,2020-0188,2021-10-14,19:51:46,23:06:01,NA,incomplete,false,true,NA,1,32,NA,brown,n_l_001.jpg,NA,NA,pleasant,unpleasant,NA,NA,NA,NA,NA,left,1577,true,NA,NA,NA,NA,NA
ONnijIcp,3o4vwc1gfzjxgki2d88xs18tr9fj3v,3xm0hyn6nocyzdzro7zfx8uutizpef,ONnijIcp,2020-0188,2021-10-14,19:51:46,23:06:01,NA,incomplete,false,true,NA,1,33,NA,brown,n_l_083.jpg,NA,NA,unpleasant,pleasant,NA,NA,NA,NA,NA,right,1349.60000000894,true,NA,NA,NA,NA,NA
ONnijIcp,3o4vwc1gfzjxgki2d88xs18tr9fj3v,3xm0hyn6nocyzdzro7zfx8uutizpef,ONnijIcp,2020-0188,2021-10-14,19:51:46,23:06:01,NA,incomplete,false,true,NA,1,34,NA,brown,n_s_002.jpg,NA,NA,unpleasant,pleasant,NA,NA,NA,NA,NA,right,1699.39999999106,true,NA,NA,NA,NA,NA
ONnijIcp,3o4vwc1gfzjxgki2d88xs18tr9fj3v,3xm0hyn6nocyzdzro7zfx8uutizpef,ONnijIcp,2020-0188,2021-10-14,19:51:46,23:06:01,NA,incomplete,false,true,NA,1,35,NA,brown,n_s_046.jpg,NA,NA,pleasant,unpleasant,NA,NA,NA,NA,NA,left,1834.09999999404,true,NA,NA,NA,NA,NA
ONnijIcp,3o4vwc1gfzjxgki2d88xs18tr9fj3v,3xm0hyn6nocyzdzro7zfx8uutizpef,ONnijIcp,2020-0188,2021-10-14,19:51:46,23:06:01,NA,incomplete,false,NA,true,1,0,NA,NA,NA,left,absent,NA,NA,m_s_052.jpg,brown,n_s_046.jpg,brown,within,NA,NaN,NA,right,5886.600000008941,0,0,3300.800000011921
ONnijIcp,3o4vwc1gfzjxgki2d88xs18tr9fj3v,3xm0hyn6nocyzdzro7zfx8uutizpef,ONnijIcp,2020-0188,2021-10-14,19:51:46,23:06:01,NA,incomplete,false,NA,true,1,1,NA,NA,NA,left,absent,NA,NA,m_s_083.jpg,purple,m_s_056.jpg,purple,within,NA,NaN,NA,left,2812.5,1,0,1391.6000000089407
ONnijIcp,3o4vwc1gfzjxgki2d88xs18tr9fj3v,3xm0hyn6nocyzdzro7zfx8uutizpef,ONnijIcp,2020-0188,2021-10-14,19:51:46,23:06:01,NA,incomplete,false,NA,true,1,2,NA,NA,NA,left,absent,NA,NA,m_l_052.jpg,black,n_l_001.jpg,brown,between,NA,NaN,NA,left,8121.20000000298,1,0,1297.5
ONnijIcp,3o4vwc1gfzjxgki2d88xs18tr9fj3v,3xm0hyn6nocyzdzro7zfx8uutizpef,ONnijIcp,2020-0188,2021-10-14,19:51:46,23:06:01,NA,incomplete,false,NA,true,1,3,NA,NA,NA,right,absent,NA,NA,m_s_022.jpg,black,n_s_077.jpg,white,between,NA,NaN,NA,right,2957.0999999940395,1,1,1649.0999999940395
ONnijIcp,3o4vwc1gfzjxgki2d88xs18tr9fj3v,3xm0hyn6nocyzdzro7zfx8uutizpef,ONnijIcp,2020-0188,2021-10-14,19:51:46,23:06:01,NA,incomplete,false,NA,true,1,4,NA,NA,NA,left,absent,NA,NA,m_s_115.jpg,orange,m_s_071.jpg,orange,within,NA,NaN,NA,left,3993.1000000089407,1,0,1514.8999999910593
ONnijIcp,3o4vwc1gfzjxgki2d88xs18tr9fj3v,3xm0hyn6nocyzdzro7zfx8uutizpef,ONnijIcp,2020-0188,2021-10-14,19:51:46,23:06:01,NA,incomplete,false,NA,true,1,5,NA,NA,NA,left,absent,NA,NA,m_l_025.jpg,purple,m_s_040.jpg,orange,between,NA,NaN,NA,left,7053.100000008941,1,0,1485.2999999970198
ONnijIcp,3o4vwc1gfzjxgki2d88xs18tr9fj3v,3xm0hyn6nocyzdzro7zfx8uutizpef,ONnijIcp,2020-0188,2021-10-14,19:51:46,23:06:01,NA,incomplete,false,NA,true,1,6,NA,NA,NA,left,absent,NA,NA,m_l_110.jpg,white,m_l_005.jpg,white,within,NA,NaN,NA,left,2947.4000000059605,1,1,4817.800000011921
ONnijIcp,3o4vwc1gfzjxgki2d88xs18tr9fj3v,3xm0hyn6nocyzdzro7zfx8uutizpef,ONnijIcp,2020-0188,2021-10-14,19:51:46,23:06:01,NA,incomplete,false,NA,true,1,7,NA,NA,NA,left,absent,NA,NA,m_l_099.jpg,black,m_s_002.jpg,black,within,NA,NaN,NA,left,4064.800000011921,1,2,7319.399999991059
ONnijIcp,3o4vwc1gfzjxgki2d88xs18tr9fj3v,3xm0hyn6nocyzdzro7zfx8uutizpef,ONnijIcp,2020-0188,2021-10-14,19:51:46,23:06:01,NA,incomplete,false,NA,true,1,8,NA,NA,NA,left,absent,NA,NA,m_l_059.jpg,orange,m_l_032.jpg,gray,between,NA,NaN,NA,right,2947.7000000029802,0,0,1477
ONnijIcp,3o4vwc1gfzjxgki2d88xs18tr9fj3v,3xm0hyn6nocyzdzro7zfx8uutizpef,ONnijIcp,2020-0188,2021-10-14,19:51:46,23:06:01,NA,incomplete,false,NA,true,1,9,NA,NA,NA,right,absent,NA,NA,n_s_107.jpg,white,n_l_068.jpg,gray,between,NA,NaN,NA,right,6611,1,0,1233.5
ONnijIcp,3o4vwc1gfzjxgki2d88xs18tr9fj3v,3xm0hyn6nocyzdzro7zfx8uutizpef,ONnijIcp,2020-0188,2021-10-14,19:51:46,23:06:01,NA,incomplete,false,NA,true,1,10,NA,NA,NA,left,absent,NA,NA,m_l_098.jpg,gray,m_l_031.jpg,gray,within,NA,NaN,NA,left,2853.4000000059605,1,0,1498.7999999970198
ONnijIcp,3o4vwc1gfzjxgki2d88xs18tr9fj3v,3xm0hyn6nocyzdzro7zfx8uutizpef,ONnijIcp,2020-0188,2021-10-14,19:51:46,23:06:01,NA,incomplete,false,true,NA,2,0,NA,brown,m_s_105.jpg,NA,NA,unpleasant,pleasant,NA,NA,NA,NA,NA,right,2140.09999999404,true,NA,NA,NA,NA,NA
ONnijIcp,3o4vwc1gfzjxgki2d88xs18tr9fj3v,3xm0hyn6nocyzdzro7zfx8uutizpef,ONnijIcp,2020-0188,2021-10-14,19:51:46,23:06:01,NA,incomplete,false,true,NA,2,1,NA,brown,n_l_108.jpg,NA,NA,pleasant,unpleasant,NA,NA,NA,NA,NA,left,1103.79999999702,true,NA,NA,NA,NA,NA
ONnijIcp,3o4vwc1gfzjxgki2d88xs18tr9fj3v,3xm0hyn6nocyzdzro7zfx8uutizpef,ONnijIcp,2020-0188,2021-10-14,19:51:46,23:06:01,NA,incomplete,false,true,NA,2,2,NA,brown,m_s_042.jpg,NA,NA,pleasant,unpleasant,NA,NA,NA,NA,NA,left,1117.19999998808,true,NA,NA,NA,NA,NA
ONnijIcp,3o4vwc1gfzjxgki2d88xs18tr9fj3v,3xm0hyn6nocyzdzro7zfx8uutizpef,ONnijIcp,2020-0188,2021-10-14,19:51:46,23:06:01,NA,incomplete,false,true,NA,2,3,NA,brown,m_s_027.jpg,NA,NA,pleasant,unpleasant,NA,NA,NA,NA,NA,left,1418.70000000298,true,NA,NA,NA,NA,NA
ONnijIcp,3o4vwc1gfzjxgki2d88xs18tr9fj3v,3xm0hyn6nocyzdzro7zfx8uutizpef,ONnijIcp,2020-0188,2021-10-14,19:51:46,23:06:01,NA,incomplete,false,true,NA,2,4,NA,brown,m_s_036.jpg,NA,NA,pleasant,unpleasant,NA,NA,NA,NA,NA,right,1511.20000000298,true,NA,NA,NA,NA,NA
ONnijIcp,3o4vwc1gfzjxgki2d88xs18tr9fj3v,3xm0hyn6nocyzdzro7zfx8uutizpef,ONnijIcp,2020-0188,2021-10-14,19:51:46,23:06:01,NA,incomplete,false,true,NA,2,5,NA,brown,n_s_085.jpg,NA,NA,pleasant,unpleasant,NA,NA,NA,NA,NA,left,1125.29999999702,true,NA,NA,NA,NA,NA
ONnijIcp,3o4vwc1gfzjxgki2d88xs18tr9fj3v,3xm0hyn6nocyzdzro7zfx8uutizpef,ONnijIcp,2020-0188,2021-10-14,19:51:46,23:06:01,NA,incomplete,false,true,NA,2,6,NA,yellow,n_s_005.jpg,NA,NA,unpleasant,pleasant,NA,NA,NA,NA,NA,right,1395.70000000298,true,NA,NA,NA,NA,NA
ONnijIcp,3o4vwc1gfzjxgki2d88xs18tr9fj3v,3xm0hyn6nocyzdzro7zfx8uutizpef,ONnijIcp,2020-0188,2021-10-14,19:51:46,23:06:01,NA,incomplete,false,true,NA,2,7,NA,yellow,m_l_017.jpg,NA,NA,unpleasant,pleasant,NA,NA,NA,NA,NA,right,3296.70000000298,true,NA,NA,NA,NA,NA
ONnijIcp,3o4vwc1gfzjxgki2d88xs18tr9fj3v,3xm0hyn6nocyzdzro7zfx8uutizpef,ONnijIcp,2020-0188,2021-10-14,19:51:46,23:06:01,NA,incomplete,false,true,NA,2,8,NA,yellow,n_s_048.jpg,NA,NA,unpleasant,pleasant,NA,NA,NA,NA,NA,right,830.399999991059,true,NA,NA,NA,NA,NA
ONnijIcp,3o4vwc1gfzjxgki2d88xs18tr9fj3v,3xm0hyn6nocyzdzro7zfx8uutizpef,ONnijIcp,2020-0188,2021-10-14,19:51:46,23:06:01,NA,incomplete,false,true,NA,2,9,NA,yellow,n_s_087.jpg,NA,NA,pleasant,unpleasant,NA,NA,NA,NA,NA,left,932.79999999702,true,NA,NA,NA,NA,NA
ONnijIcp,3o4vwc1gfzjxgki2d88xs18tr9fj3v,3xm0hyn6nocyzdzro7zfx8uutizpef,ONnijIcp,2020-0188,2021-10-14,19:51:46,23:06:01,NA,incomplete,false,true,NA,2,10,NA,yellow,m_s_114.jpg,NA,NA,unpleasant,pleasant,NA,NA,NA,NA,NA,left,994.600000008941,true,NA,NA,NA,NA,NA
ONnijIcp,3o4vwc1gfzjxgki2d88xs18tr9fj3v,3xm0hyn6nocyzdzro7zfx8uutizpef,ONnijIcp,2020-0188,2021-10-14,19:51:46,23:06:01,NA,incomplete,false,true,NA,2,11,NA,yellow,n_s_112.jpg,NA,NA,unpleasant,pleasant,NA,NA,NA,NA,NA,left,1720.59999999404,true,NA,NA,NA,NA,NA
ONnijIcp,3o4vwc1gfzjxgki2d88xs18tr9fj3v,3xm0hyn6nocyzdzro7zfx8uutizpef,ONnijIcp,2020-0188,2021-10-14,19:51:46,23:06:01,NA,incomplete,false,true,NA,2,12,NA,red,n_s_079.jpg,NA,NA,pleasant,unpleasant,NA,NA,NA,NA,NA,right,1702.40000000596,true,NA,NA,NA,NA,NA
ONnijIcp,3o4vwc1gfzjxgki2d88xs18tr9fj3v,3xm0hyn6nocyzdzro7zfx8uutizpef,ONnijIcp,2020-0188,2021-10-14,19:51:46,23:06:01,NA,incomplete,false,true,NA,2,13,NA,red,m_l_108.jpg,NA,NA,unpleasant,pleasant,NA,NA,NA,NA,NA,left,1435,true,NA,NA,NA,NA,NA
ONnijIcp,3o4vwc1gfzjxgki2d88xs18tr9fj3v,3xm0hyn6nocyzdzro7zfx8uutizpef,ONnijIcp,2020-0188,2021-10-14,19:51:46,23:06:01,NA,incomplete,false,true,NA,2,14,NA,red,m_l_045.jpg,NA,NA,unpleasant,pleasant,NA,NA,NA,NA,NA,left,1417.20000000298,true,NA,NA,NA,NA,NA
ONnijIcp,3o4vwc1gfzjxgki2d88xs18tr9fj3v,3xm0hyn6nocyzdzro7zfx8uutizpef,ONnijIcp,2020-0188,2021-10-14,19:51:46,23:06:01,NA,incomplete,false,true,NA,2,15,NA,red,n_l_024.jpg,NA,NA,unpleasant,pleasant,NA,NA,NA,NA,NA,right,1118.60000000894,true,NA,NA,NA,NA,NA
ONnijIcp,3o4vwc1gfzjxgki2d88xs18tr9fj3v,3xm0hyn6nocyzdzro7zfx8uutizpef,ONnijIcp,2020-0188,2021-10-14,19:51:46,23:06:01,NA,incomplete,false,true,NA,2,16,NA,red,m_l_078.jpg,NA,NA,unpleasant,pleasant,NA,NA,NA,NA,NA,right,1595.30000001192,true,NA,NA,NA,NA,NA
ONnijIcp,3o4vwc1gfzjxgki2d88xs18tr9fj3v,3xm0hyn6nocyzdzro7zfx8uutizpef,ONnijIcp,2020-0188,2021-10-14,19:51:46,23:06:01,NA,incomplete,false,true,NA,2,17,NA,red,n_l_086.jpg,NA,NA,pleasant,unpleasant,NA,NA,NA,NA,NA,left,1305.09999999404,true,NA,NA,NA,NA,NA
ONnijIcp,3o4vwc1gfzjxgki2d88xs18tr9fj3v,3xm0hyn6nocyzdzro7zfx8uutizpef,ONnijIcp,2020-0188,2021-10-14,19:51:46,23:06:01,NA,incomplete,false,true,NA,2,18,NA,white,n_s_061.jpg,NA,NA,unpleasant,pleasant,NA,NA,NA,NA,NA,left,1239.60000000894,true,NA,NA,NA,NA,NA
ONnijIcp,3o4vwc1gfzjxgki2d88xs18tr9fj3v,3xm0hyn6nocyzdzro7zfx8uutizpef,ONnijIcp,2020-0188,2021-10-14,19:51:46,23:06:01,NA,incomplete,false,true,NA,2,19,NA,white,m_l_063.jpg,NA,NA,unpleasant,pleasant,NA,NA,NA,NA,NA,right,1556.09999999404,true,NA,NA,NA,NA,NA
ONnijIcp,3o4vwc1gfzjxgki2d88xs18tr9fj3v,3xm0hyn6nocyzdzro7zfx8uutizpef,ONnijIcp,2020-0188,2021-10-14,19:51:46,23:06:01,NA,incomplete,false,true,NA,2,20,NA,white,n_l_048.jpg,NA,NA,pleasant,unpleasant,NA,NA,NA,NA,NA,left,1464.19999998808,true,NA,NA,NA,NA,NA
ONnijIcp,3o4vwc1gfzjxgki2d88xs18tr9fj3v,3xm0hyn6nocyzdzro7zfx8uutizpef,ONnijIcp,2020-0188,2021-10-14,19:51:46,23:06:01,NA,incomplete,false,true,NA,2,21,NA,white,n_l_023.jpg,NA,NA,pleasant,unpleasant,NA,NA,NA,NA,NA,left,1591.5,true,NA,NA,NA,NA,NA
ONnijIcp,3o4vwc1gfzjxgki2d88xs18tr9fj3v,3xm0hyn6nocyzdzro7zfx8uutizpef,ONnijIcp,2020-0188,2021-10-14,19:51:46,23:06:01,NA,incomplete,false,true,NA,2,22,NA,white,n_l_095.jpg,NA,NA,pleasant,unpleasant,NA,NA,NA,NA,NA,right,1388.89999999106,true,NA,NA,NA,NA,NA
ONnijIcp,3o4vwc1gfzjxgki2d88xs18tr9fj3v,3xm0hyn6nocyzdzro7zfx8uutizpef,ONnijIcp,2020-0188,2021-10-14,19:51:46,23:06:01,NA,incomplete,false,true,NA,2,23,NA,white,m_s_059.jpg,NA,NA,unpleasant,pleasant,NA,NA,NA,NA,NA,left,1442.30000001192,true,NA,NA,NA,NA,NA
ONnijIcp,3o4vwc1gfzjxgki2d88xs18tr9fj3v,3xm0hyn6nocyzdzro7zfx8uutizpef,ONnijIcp,2020-0188,2021-10-14,19:51:46,23:06:01,NA,incomplete,false,true,NA,2,24,NA,orange,n_l_091.jpg,NA,NA,pleasant,unpleasant,NA,NA,NA,NA,NA,right,1239.5,true,NA,NA,NA,NA,NA
ONnijIcp,3o4vwc1gfzjxgki2d88xs18tr9fj3v,3xm0hyn6nocyzdzro7zfx8uutizpef,ONnijIcp,2020-0188,2021-10-14,19:51:46,23:06:01,NA,incomplete,false,true,NA,2,25,NA,orange,m_s_101.jpg,NA,NA,unpleasant,pleasant,NA,NA,NA,NA,NA,left,2956.5,true,NA,NA,NA,NA,NA
ONnijIcp,3o4vwc1gfzjxgki2d88xs18tr9fj3v,3xm0hyn6nocyzdzro7zfx8uutizpef,ONnijIcp,2020-0188,2021-10-14,19:51:46,23:06:01,NA,incomplete,false,true,NA,2,26,NA,orange,n_l_112.jpg,NA,NA,pleasant,unpleasant,NA,NA,NA,NA,NA,right,1218.40000000596,true,NA,NA,NA,NA,NA
ONnijIcp,3o4vwc1gfzjxgki2d88xs18tr9fj3v,3xm0hyn6nocyzdzro7zfx8uutizpef,ONnijIcp,2020-0188,2021-10-14,19:51:46,23:06:01,NA,incomplete,false,true,NA,2,27,NA,orange,n_l_065.jpg,NA,NA,pleasant,unpleasant,NA,NA,NA,NA,NA,left,1264.39999999106,true,NA,NA,NA,NA,NA
ONnijIcp,3o4vwc1gfzjxgki2d88xs18tr9fj3v,3xm0hyn6nocyzdzro7zfx8uutizpef,ONnijIcp,2020-0188,2021-10-14,19:51:46,23:06:01,NA,incomplete,false,true,NA,2,28,NA,orange,m_l_117.jpg,NA,NA,pleasant,unpleasant,NA,NA,NA,NA,NA,left,1452.70000000298,true,NA,NA,NA,NA,NA
ONnijIcp,3o4vwc1gfzjxgki2d88xs18tr9fj3v,3xm0hyn6nocyzdzro7zfx8uutizpef,ONnijIcp,2020-0188,2021-10-14,19:51:46,23:06:01,NA,incomplete,false,true,NA,2,29,NA,orange,m_l_023.jpg,NA,NA,unpleasant,pleasant,NA,NA,NA,NA,NA,right,1978,true,NA,NA,NA,NA,NA
ONnijIcp,3o4vwc1gfzjxgki2d88xs18tr9fj3v,3xm0hyn6nocyzdzro7zfx8uutizpef,ONnijIcp,2020-0188,2021-10-14,19:51:46,23:06:01,NA,incomplete,false,true,NA,2,30,NA,gray,m_l_037.jpg,NA,NA,pleasant,unpleasant,NA,NA,NA,NA,NA,left,1097.5,true,NA,NA,NA,NA,NA
ONnijIcp,3o4vwc1gfzjxgki2d88xs18tr9fj3v,3xm0hyn6nocyzdzro7zfx8uutizpef,ONnijIcp,2020-0188,2021-10-14,19:51:46,23:06:01,NA,incomplete,false,true,NA,2,31,NA,gray,m_s_043.jpg,NA,NA,pleasant,unpleasant,NA,NA,NA,NA,NA,right,943.20000000298,true,NA,NA,NA,NA,NA
ONnijIcp,3o4vwc1gfzjxgki2d88xs18tr9fj3v,3xm0hyn6nocyzdzro7zfx8uutizpef,ONnijIcp,2020-0188,2021-10-14,19:51:46,23:06:01,NA,incomplete,false,true,NA,2,32,NA,gray,n_l_105.jpg,NA,NA,unpleasant,pleasant,NA,NA,NA,NA,NA,right,1572.29999999702,true,NA,NA,NA,NA,NA
ONnijIcp,3o4vwc1gfzjxgki2d88xs18tr9fj3v,3xm0hyn6nocyzdzro7zfx8uutizpef,ONnijIcp,2020-0188,2021-10-14,19:51:46,23:06:01,NA,incomplete,false,true,NA,2,33,NA,gray,m_l_040.jpg,NA,NA,unpleasant,pleasant,NA,NA,NA,NA,NA,left,1538.5,true,NA,NA,NA,NA,NA
ONnijIcp,3o4vwc1gfzjxgki2d88xs18tr9fj3v,3xm0hyn6nocyzdzro7zfx8uutizpef,ONnijIcp,2020-0188,2021-10-14,19:51:46,23:06:01,NA,incomplete,false,true,NA,2,34,NA,gray,m_s_053.jpg,NA,NA,pleasant,unpleasant,NA,NA,NA,NA,NA,right,1543.29999999702,true,NA,NA,NA,NA,NA
ONnijIcp,3o4vwc1gfzjxgki2d88xs18tr9fj3v,3xm0hyn6nocyzdzro7zfx8uutizpef,ONnijIcp,2020-0188,2021-10-14,19:51:46,23:06:01,NA,incomplete,false,true,NA,2,35,NA,gray,n_s_053.jpg,NA,NA,unpleasant,pleasant,NA,NA,NA,NA,NA,left,1829,true,NA,NA,NA,NA,NA
ONnijIcp,3o4vwc1gfzjxgki2d88xs18tr9fj3v,3xm0hyn6nocyzdzro7zfx8uutizpef,ONnijIcp,2020-0188,2021-10-14,19:51:46,23:06:01,NA,incomplete,false,NA,true,2,0,NA,NA,NA,right,absent,NA,NA,m_s_059.jpg,white,m_l_063.jpg,white,within,NA,NaN,NA,right,10963.70000000298,1,1,3112.7000000029802
ONnijIcp,3o4vwc1gfzjxgki2d88xs18tr9fj3v,3xm0hyn6nocyzdzro7zfx8uutizpef,ONnijIcp,2020-0188,2021-10-14,19:51:46,23:06:01,NA,incomplete,false,NA,true,2,1,NA,NA,NA,right,absent,NA,NA,n_l_086.jpg,red,m_l_108.jpg,red,within,NA,NaN,NA,right,4102.20000000298,1,1,2074.8999999910593
ONnijIcp,3o4vwc1gfzjxgki2d88xs18tr9fj3v,3xm0hyn6nocyzdzro7zfx8uutizpef,ONnijIcp,2020-0188,2021-10-14,19:51:46,23:06:01,NA,incomplete,false,NA,true,2,2,NA,NA,NA,left,absent,NA,NA,n_l_108.jpg,brown,n_s_085.jpg,brown,within,NA,NaN,NA,left,4095.2999999970198,1,0,10797.40000000596
ONnijIcp,3o4vwc1gfzjxgki2d88xs18tr9fj3v,3xm0hyn6nocyzdzro7zfx8uutizpef,ONnijIcp,2020-0188,2021-10-14,19:51:46,23:06:01,NA,incomplete,false,NA,true,2,3,NA,NA,NA,right,absent,NA,NA,n_s_048.jpg,yellow,m_s_036.jpg,brown,between,NA,NaN,NA,left,12971.300000011921,0,0,2083.5
ONnijIcp,3o4vwc1gfzjxgki2d88xs18tr9fj3v,3xm0hyn6nocyzdzro7zfx8uutizpef,ONnijIcp,2020-0188,2021-10-14,19:51:46,23:06:01,NA,incomplete,false,NA,true,2,4,NA,NA,NA,right,absent,NA,NA,n_s_112.jpg,yellow,m_l_017.jpg,yellow,within,NA,NaN,NA,right,14871.29999999702,1,3,2201.5
ONnijIcp,3o4vwc1gfzjxgki2d88xs18tr9fj3v,3xm0hyn6nocyzdzro7zfx8uutizpef,ONnijIcp,2020-0188,2021-10-14,19:51:46,23:06:01,NA,incomplete,false,NA,true,2,5,NA,NA,NA,right,absent,NA,NA,n_s_053.jpg,gray,m_s_043.jpg,gray,within,NA,NaN,NA,right,3450.9000000059605,1,1,9013.10000000894
ONnijIcp,3o4vwc1gfzjxgki2d88xs18tr9fj3v,3xm0hyn6nocyzdzro7zfx8uutizpef,ONnijIcp,2020-0188,2021-10-14,19:51:46,23:06:01,NA,incomplete,false,NA,true,2,6,NA,NA,NA,left,absent,NA,NA,m_s_114.jpg,yellow,m_l_045.jpg,red,between,NA,NaN,NA,left,2541.2000000029802,1,0,1139.5999999940395
ONnijIcp,3o4vwc1gfzjxgki2d88xs18tr9fj3v,3xm0hyn6nocyzdzro7zfx8uutizpef,ONnijIcp,2020-0188,2021-10-14,19:51:46,23:06:01,NA,incomplete,false,NA,true,2,7,NA,NA,NA,right,absent,NA,NA,n_l_048.jpg,white,m_l_078.jpg,red,between,NA,NaN,NA,right,11594.800000011921,1,2,1485.8999999910593
ONnijIcp,3o4vwc1gfzjxgki2d88xs18tr9fj3v,3xm0hyn6nocyzdzro7zfx8uutizpef,ONnijIcp,2020-0188,2021-10-14,19:51:46,23:06:01,NA,incomplete,false,NA,true,2,8,NA,NA,NA,right,absent,NA,NA,n_l_105.jpg,gray,m_l_117.jpg,orange,between,NA,NaN,NA,left,4891.199999988079,0,0,1541.2999999970198
ONnijIcp,3o4vwc1gfzjxgki2d88xs18tr9fj3v,3xm0hyn6nocyzdzro7zfx8uutizpef,ONnijIcp,2020-0188,2021-10-14,19:51:46,23:06:01,NA,incomplete,false,NA,true,2,9,NA,NA,NA,right,absent,NA,NA,n_l_112.jpg,orange,n_l_095.jpg,white,between,NA,NaN,NA,right,3175.3999999910593,1,2,9737.29999999702
ONnijIcp,3o4vwc1gfzjxgki2d88xs18tr9fj3v,3xm0hyn6nocyzdzro7zfx8uutizpef,ONnijIcp,2020-0188,2021-10-14,19:51:46,23:06:01,NA,incomplete,false,NA,true,2,10,NA,NA,NA,right,absent,NA,NA,m_l_023.jpg,orange,m_s_101.jpg,orange,within,NA,NaN,NA,right,3169,1,0,2265.5999999940395
ONnijIcp,3o4vwc1gfzjxgki2d88xs18tr9fj3v,3xm0hyn6nocyzdzro7zfx8uutizpef,ONnijIcp,2020-0188,2021-10-14,19:51:46,23:06:01,NA,incomplete,false,true,NA,3,0,NA,black,m_l_014.jpg,NA,NA,pleasant,unpleasant,NA,NA,NA,NA,NA,right,2274.70000000298,true,NA,NA,NA,NA,NA
ONnijIcp,3o4vwc1gfzjxgki2d88xs18tr9fj3v,3xm0hyn6nocyzdzro7zfx8uutizpef,ONnijIcp,2020-0188,2021-10-14,19:51:46,23:06:01,NA,incomplete,false,true,NA,3,1,NA,black,m_l_033.jpg,NA,NA,unpleasant,pleasant,NA,NA,NA,NA,NA,left,1152.20000000298,true,NA,NA,NA,NA,NA
ONnijIcp,3o4vwc1gfzjxgki2d88xs18tr9fj3v,3xm0hyn6nocyzdzro7zfx8uutizpef,ONnijIcp,2020-0188,2021-10-14,19:51:46,23:06:01,NA,incomplete,false,true,NA,3,2,NA,black,n_l_035.jpg,NA,NA,unpleasant,pleasant,NA,NA,NA,NA,NA,right,1277.59999999404,true,NA,NA,NA,NA,NA
ONnijIcp,3o4vwc1gfzjxgki2d88xs18tr9fj3v,3xm0hyn6nocyzdzro7zfx8uutizpef,ONnijIcp,2020-0188,2021-10-14,19:51:46,23:06:01,NA,incomplete,false,true,NA,3,3,NA,black,n_l_011.jpg,NA,NA,unpleasant,pleasant,NA,NA,NA,NA,NA,left,1123.79999999702,true,NA,NA,NA,NA,NA
ONnijIcp,3o4vwc1gfzjxgki2d88xs18tr9fj3v,3xm0hyn6nocyzdzro7zfx8uutizpef,ONnijIcp,2020-0188,2021-10-14,19:51:46,23:06:01,NA,incomplete,false,true,NA,3,4,NA,black,n_s_075.jpg,NA,NA,pleasant,unpleasant,NA,NA,NA,NA,NA,right,1249,true,NA,NA,NA,NA,NA
ONnijIcp,3o4vwc1gfzjxgki2d88xs18tr9fj3v,3xm0hyn6nocyzdzro7zfx8uutizpef,ONnijIcp,2020-0188,2021-10-14,19:51:46,23:06:01,NA,incomplete,false,true,NA,3,5,NA,black,n_s_007.jpg,NA,NA,unpleasant,pleasant,NA,NA,NA,NA,NA,left,1263.20000000298,true,NA,NA,NA,NA,NA
ONnijIcp,3o4vwc1gfzjxgki2d88xs18tr9fj3v,3xm0hyn6nocyzdzro7zfx8uutizpef,ONnijIcp,2020-0188,2021-10-14,19:51:46,23:06:01,NA,incomplete,false,true,NA,3,6,NA,gray,m_l_085.jpg,NA,NA,pleasant,unpleasant,NA,NA,NA,NA,NA,right,1715.10000000894,true,NA,NA,NA,NA,NA
ONnijIcp,3o4vwc1gfzjxgki2d88xs18tr9fj3v,3xm0hyn6nocyzdzro7zfx8uutizpef,ONnijIcp,2020-0188,2021-10-14,19:51:46,23:06:01,NA,incomplete,false,true,NA,3,7,NA,gray,m_s_110.jpg,NA,NA,unpleasant,pleasant,NA,NA,NA,NA,NA,right,1411.40000000596,true,NA,NA,NA,NA,NA
ONnijIcp,3o4vwc1gfzjxgki2d88xs18tr9fj3v,3xm0hyn6nocyzdzro7zfx8uutizpef,ONnijIcp,2020-0188,2021-10-14,19:51:46,23:06:01,NA,incomplete,false,true,NA,3,8,NA,gray,n_s_089.jpg,NA,NA,pleasant,unpleasant,NA,NA,NA,NA,NA,left,1409.40000000596,true,NA,NA,NA,NA,NA
ONnijIcp,3o4vwc1gfzjxgki2d88xs18tr9fj3v,3xm0hyn6nocyzdzro7zfx8uutizpef,ONnijIcp,2020-0188,2021-10-14,19:51:46,23:06:01,NA,incomplete,false,true,NA,3,9,NA,gray,n_l_060.jpg,NA,NA,pleasant,unpleasant,NA,NA,NA,NA,NA,left,2014.70000000298,true,NA,NA,NA,NA,NA
ONnijIcp,3o4vwc1gfzjxgki2d88xs18tr9fj3v,3xm0hyn6nocyzdzro7zfx8uutizpef,ONnijIcp,2020-0188,2021-10-14,19:51:46,23:06:01,NA,incomplete,false,true,NA,3,10,NA,gray,m_l_065.jpg,NA,NA,pleasant,unpleasant,NA,NA,NA,NA,NA,left,1004.5,true,NA,NA,NA,NA,NA
ONnijIcp,3o4vwc1gfzjxgki2d88xs18tr9fj3v,3xm0hyn6nocyzdzro7zfx8uutizpef,ONnijIcp,2020-0188,2021-10-14,19:51:46,23:06:01,NA,incomplete,false,true,NA,3,11,NA,gray,m_l_020.jpg,NA,NA,unpleasant,pleasant,NA,NA,NA,NA,NA,left,1882.40000000596,true,NA,NA,NA,NA,NA
ONnijIcp,3o4vwc1gfzjxgki2d88xs18tr9fj3v,3xm0hyn6nocyzdzro7zfx8uutizpef,ONnijIcp,2020-0188,2021-10-14,19:51:46,23:06:01,NA,incomplete,false,true,NA,3,12,NA,white,m_s_015.jpg,NA,NA,pleasant,unpleasant,NA,NA,NA,NA,NA,left,1848.19999998808,true,NA,NA,NA,NA,NA
ONnijIcp,3o4vwc1gfzjxgki2d88xs18tr9fj3v,3xm0hyn6nocyzdzro7zfx8uutizpef,ONnijIcp,2020-0188,2021-10-14,19:51:46,23:06:01,NA,incomplete,false,true,NA,3,13,NA,white,m_s_081.jpg,NA,NA,pleasant,unpleasant,NA,NA,NA,NA,NA,right,1877.70000000298,true,NA,NA,NA,NA,NA
ONnijIcp,3o4vwc1gfzjxgki2d88xs18tr9fj3v,3xm0hyn6nocyzdzro7zfx8uutizpef,ONnijIcp,2020-0188,2021-10-14,19:51:46,23:06:01,NA,incomplete,false,true,NA,3,14,NA,white,m_s_035.jpg,NA,NA,pleasant,unpleasant,NA,NA,NA,NA,NA,left,988.09999999404,true,NA,NA,NA,NA,NA
ONnijIcp,3o4vwc1gfzjxgki2d88xs18tr9fj3v,3xm0hyn6nocyzdzro7zfx8uutizpef,ONnijIcp,2020-0188,2021-10-14,19:51:46,23:06:01,NA,incomplete,false,true,NA,3,15,NA,white,m_s_079.jpg,NA,NA,unpleasant,pleasant,NA,NA,NA,NA,NA,none,0,false,NA,NA,NA,NA,NA
ONnijIcp,3o4vwc1gfzjxgki2d88xs18tr9fj3v,3xm0hyn6nocyzdzro7zfx8uutizpef,ONnijIcp,2020-0188,2021-10-14,19:51:46,23:06:01,NA,incomplete,false,true,NA,3,16,NA,white,n_s_090.jpg,NA,NA,pleasant,unpleasant,NA,NA,NA,NA,NA,left,1783.10000000894,true,NA,NA,NA,NA,NA
ONnijIcp,3o4vwc1gfzjxgki2d88xs18tr9fj3v,3xm0hyn6nocyzdzro7zfx8uutizpef,ONnijIcp,2020-0188,2021-10-14,19:51:46,23:06:01,NA,incomplete,false,true,NA,3,17,NA,white,n_s_051.jpg,NA,NA,pleasant,unpleasant,NA,NA,NA,NA,NA,left,821.29999999702,true,NA,NA,NA,NA,NA
ONnijIcp,3o4vwc1gfzjxgki2d88xs18tr9fj3v,3xm0hyn6nocyzdzro7zfx8uutizpef,ONnijIcp,2020-0188,2021-10-14,19:51:46,23:06:01,NA,incomplete,false,true,NA,3,18,NA,brown,m_l_049.jpg,NA,NA,unpleasant,pleasant,NA,NA,NA,NA,NA,right,1113.5,true,NA,NA,NA,NA,NA
ONnijIcp,3o4vwc1gfzjxgki2d88xs18tr9fj3v,3xm0hyn6nocyzdzro7zfx8uutizpef,ONnijIcp,2020-0188,2021-10-14,19:51:46,23:06:01,NA,incomplete,false,true,NA,3,19,NA,brown,n_s_091.jpg,NA,NA,unpleasant,pleasant,NA,NA,NA,NA,NA,left,1295.20000000298,true,NA,NA,NA,NA,NA
ONnijIcp,3o4vwc1gfzjxgki2d88xs18tr9fj3v,3xm0hyn6nocyzdzro7zfx8uutizpef,ONnijIcp,2020-0188,2021-10-14,19:51:46,23:06:01,NA,incomplete,false,true,NA,3,20,NA,brown,m_s_109.jpg,NA,NA,pleasant,unpleasant,NA,NA,NA,NA,NA,left,1318.59999999404,true,NA,NA,NA,NA,NA
ONnijIcp,3o4vwc1gfzjxgki2d88xs18tr9fj3v,3xm0hyn6nocyzdzro7zfx8uutizpef,ONnijIcp,2020-0188,2021-10-14,19:51:46,23:06:01,NA,incomplete,false,true,NA,3,21,NA,brown,n_s_022.jpg,NA,NA,unpleasant,pleasant,NA,NA,NA,NA,NA,right,1346.5,true,NA,NA,NA,NA,NA
ONnijIcp,3o4vwc1gfzjxgki2d88xs18tr9fj3v,3xm0hyn6nocyzdzro7zfx8uutizpef,ONnijIcp,2020-0188,2021-10-14,19:51:46,23:06:01,NA,incomplete,false,true,NA,3,22,NA,brown,n_l_067.jpg,NA,NA,pleasant,unpleasant,NA,NA,NA,NA,NA,left,1200.59999999404,true,NA,NA,NA,NA,NA
ONnijIcp,3o4vwc1gfzjxgki2d88xs18tr9fj3v,3xm0hyn6nocyzdzro7zfx8uutizpef,ONnijIcp,2020-0188,2021-10-14,19:51:46,23:06:01,NA,incomplete,false,true,NA,3,23,NA,brown,m_s_088.jpg,NA,NA,pleasant,unpleasant,NA,NA,NA,NA,NA,right,1454.29999999702,true,NA,NA,NA,NA,NA
ONnijIcp,3o4vwc1gfzjxgki2d88xs18tr9fj3v,3xm0hyn6nocyzdzro7zfx8uutizpef,ONnijIcp,2020-0188,2021-10-14,19:51:46,23:06:01,NA,incomplete,false,true,NA,3,24,NA,yellow,m_l_111.jpg,NA,NA,pleasant,unpleasant,NA,NA,NA,NA,NA,left,1500.20000000298,true,NA,NA,NA,NA,NA
ONnijIcp,3o4vwc1gfzjxgki2d88xs18tr9fj3v,3xm0hyn6nocyzdzro7zfx8uutizpef,ONnijIcp,2020-0188,2021-10-14,19:51:46,23:06:01,NA,incomplete,false,true,NA,3,25,NA,yellow,n_s_034.jpg,NA,NA,unpleasant,pleasant,NA,NA,NA,NA,NA,left,903.5,true,NA,NA,NA,NA,NA
ONnijIcp,3o4vwc1gfzjxgki2d88xs18tr9fj3v,3xm0hyn6nocyzdzro7zfx8uutizpef,ONnijIcp,2020-0188,2021-10-14,19:51:46,23:06:01,NA,incomplete,false,true,NA,3,26,NA,yellow,n_l_053.jpg,NA,NA,pleasant,unpleasant,NA,NA,NA,NA,NA,right,1542.59999999404,true,NA,NA,NA,NA,NA
ONnijIcp,3o4vwc1gfzjxgki2d88xs18tr9fj3v,3xm0hyn6nocyzdzro7zfx8uutizpef,ONnijIcp,2020-0188,2021-10-14,19:51:46,23:06:01,NA,incomplete,false,true,NA,3,27,NA,yellow,m_s_041.jpg,NA,NA,pleasant,unpleasant,NA,NA,NA,NA,NA,left,827.600000008941,true,NA,NA,NA,NA,NA
ONnijIcp,3o4vwc1gfzjxgki2d88xs18tr9fj3v,3xm0hyn6nocyzdzro7zfx8uutizpef,ONnijIcp,2020-0188,2021-10-14,19:51:46,23:06:01,NA,incomplete,false,true,NA,3,28,NA,yellow,m_s_001.jpg,NA,NA,unpleasant,pleasant,NA,NA,NA,NA,NA,right,1178.09999999404,true,NA,NA,NA,NA,NA
ONnijIcp,3o4vwc1gfzjxgki2d88xs18tr9fj3v,3xm0hyn6nocyzdzro7zfx8uutizpef,ONnijIcp,2020-0188,2021-10-14,19:51:46,23:06:01,NA,incomplete,false,true,NA,3,29,NA,yellow,m_l_113.jpg,NA,NA,pleasant,unpleasant,NA,NA,NA,NA,NA,right,1253.59999999404,true,NA,NA,NA,NA,NA
ONnijIcp,3o4vwc1gfzjxgki2d88xs18tr9fj3v,3xm0hyn6nocyzdzro7zfx8uutizpef,ONnijIcp,2020-0188,2021-10-14,19:51:46,23:06:01,NA,incomplete,false,true,NA,3,30,NA,orange,n_s_008.jpg,NA,NA,unpleasant,pleasant,NA,NA,NA,NA,NA,left,1453.60000000894,true,NA,NA,NA,NA,NA
ONnijIcp,3o4vwc1gfzjxgki2d88xs18tr9fj3v,3xm0hyn6nocyzdzro7zfx8uutizpef,ONnijIcp,2020-0188,2021-10-14,19:51:46,23:06:01,NA,incomplete,false,true,NA,3,31,NA,orange,m_s_018.jpg,NA,NA,pleasant,unpleasant,NA,NA,NA,NA,NA,left,1371.40000000596,true,NA,NA,NA,NA,NA
ONnijIcp,3o4vwc1gfzjxgki2d88xs18tr9fj3v,3xm0hyn6nocyzdzro7zfx8uutizpef,ONnijIcp,2020-0188,2021-10-14,19:51:46,23:06:01,NA,incomplete,false,true,NA,3,32,NA,orange,n_s_020.jpg,NA,NA,unpleasant,pleasant,NA,NA,NA,NA,NA,right,1385,true,NA,NA,NA,NA,NA
ONnijIcp,3o4vwc1gfzjxgki2d88xs18tr9fj3v,3xm0hyn6nocyzdzro7zfx8uutizpef,ONnijIcp,2020-0188,2021-10-14,19:51:46,23:06:01,NA,incomplete,false,true,NA,3,33,NA,orange,m_l_008.jpg,NA,NA,pleasant,unpleasant,NA,NA,NA,NA,NA,left,980.70000000298,true,NA,NA,NA,NA,NA
ONnijIcp,3o4vwc1gfzjxgki2d88xs18tr9fj3v,3xm0hyn6nocyzdzro7zfx8uutizpef,ONnijIcp,2020-0188,2021-10-14,19:51:46,23:06:01,NA,incomplete,false,true,NA,3,34,NA,orange,m_l_028.jpg,NA,NA,unpleasant,pleasant,NA,NA,NA,NA,NA,right,1275.79999999702,true,NA,NA,NA,NA,NA
ONnijIcp,3o4vwc1gfzjxgki2d88xs18tr9fj3v,3xm0hyn6nocyzdzro7zfx8uutizpef,ONnijIcp,2020-0188,2021-10-14,19:51:46,23:06:01,NA,incomplete,false,true,NA,3,35,NA,orange,n_l_100.jpg,NA,NA,pleasant,unpleasant,NA,NA,NA,NA,NA,left,1402.5,true,NA,NA,NA,NA,NA
ONnijIcp,3o4vwc1gfzjxgki2d88xs18tr9fj3v,3xm0hyn6nocyzdzro7zfx8uutizpef,ONnijIcp,2020-0188,2021-10-14,19:51:46,23:06:01,NA,incomplete,false,NA,true,3,0,NA,NA,NA,left,present,NA,NA,n_s_034.jpg,yellow,m_l_113.jpg,yellow,within,NA,NaN,NA,left,7014.5,1,0,4850.0999999940395
ONnijIcp,3o4vwc1gfzjxgki2d88xs18tr9fj3v,3xm0hyn6nocyzdzro7zfx8uutizpef,ONnijIcp,2020-0188,2021-10-14,19:51:46,23:06:01,NA,incomplete,false,NA,true,3,1,NA,NA,NA,left,present,NA,NA,n_s_075.jpg,black,n_s_089.jpg,gray,between,NA,NaN,NA,left,12464.29999999702,1,2,2922.5
ONnijIcp,3o4vwc1gfzjxgki2d88xs18tr9fj3v,3xm0hyn6nocyzdzro7zfx8uutizpef,ONnijIcp,2020-0188,2021-10-14,19:51:46,23:06:01,NA,incomplete,false,NA,true,3,2,NA,NA,NA,left,present,NA,NA,m_s_081.jpg,white,n_s_051.jpg,white,within,NA,NaN,NA,left,22355.5,1,0,2075.5
ONnijIcp,3o4vwc1gfzjxgki2d88xs18tr9fj3v,3xm0hyn6nocyzdzro7zfx8uutizpef,ONnijIcp,2020-0188,2021-10-14,19:51:46,23:06:01,NA,incomplete,false,NA,true,3,3,NA,NA,NA,right,present,NA,NA,n_s_007.jpg,black,m_l_033.jpg,black,within,NA,NaN,NA,right,4275,1,0,1919
ONnijIcp,3o4vwc1gfzjxgki2d88xs18tr9fj3v,3xm0hyn6nocyzdzro7zfx8uutizpef,ONnijIcp,2020-0188,2021-10-14,19:51:46,23:06:01,NA,incomplete,false,NA,true,3,4,NA,NA,NA,right,present,NA,NA,n_l_100.jpg,orange,m_s_018.jpg,orange,within,NA,NaN,NA,right,3261.2999999970198,1,0,1539.5
ONnijIcp,3o4vwc1gfzjxgki2d88xs18tr9fj3v,3xm0hyn6nocyzdzro7zfx8uutizpef,ONnijIcp,2020-0188,2021-10-14,19:51:46,23:06:01,NA,incomplete,false,NA,true,3,5,NA,NA,NA,right,present,NA,NA,m_s_088.jpg,brown,n_s_091.jpg,brown,within,NA,NaN,NA,left,4749.600000008941,0,0,1672.9000000059605
ONnijIcp,3o4vwc1gfzjxgki2d88xs18tr9fj3v,3xm0hyn6nocyzdzro7zfx8uutizpef,ONnijIcp,2020-0188,2021-10-14,19:51:46,23:06:01,NA,incomplete,false,NA,true,3,6,NA,NA,NA,left,present,NA,NA,m_l_065.jpg,gray,m_s_035.jpg,white,between,NA,NaN,NA,left,6321.70000000298,1,1,1201.0999999940395
ONnijIcp,3o4vwc1gfzjxgki2d88xs18tr9fj3v,3xm0hyn6nocyzdzro7zfx8uutizpef,ONnijIcp,2020-0188,2021-10-14,19:51:46,23:06:01,NA,incomplete,false,NA,true,3,7,NA,NA,NA,right,present,NA,NA,m_s_109.jpg,brown,n_s_090.jpg,white,between,NA,NaN,NA,left,3614.300000011921,0,2,1736.9000000059605
ONnijIcp,3o4vwc1gfzjxgki2d88xs18tr9fj3v,3xm0hyn6nocyzdzro7zfx8uutizpef,ONnijIcp,2020-0188,2021-10-14,19:51:46,23:06:01,NA,incomplete,false,NA,true,3,8,NA,NA,NA,right,present,NA,NA,n_l_053.jpg,yellow,n_l_067.jpg,brown,between,NA,NaN,NA,left,39875.29999999702,0,2,4504.899999991059
ONnijIcp,3o4vwc1gfzjxgki2d88xs18tr9fj3v,3xm0hyn6nocyzdzro7zfx8uutizpef,ONnijIcp,2020-0188,2021-10-14,19:51:46,23:06:01,NA,incomplete,false,NA,true,3,9,NA,NA,NA,right,present,NA,NA,n_s_020.jpg,orange,m_s_001.jpg,yellow,between,NA,NaN,NA,left,4151,0,1,5407.79999999702
ONnijIcp,3o4vwc1gfzjxgki2d88xs18tr9fj3v,3xm0hyn6nocyzdzro7zfx8uutizpef,ONnijIcp,2020-0188,2021-10-14,19:51:46,23:06:01,NA,incomplete,false,NA,true,3,10,NA,NA,NA,left,present,NA,NA,m_s_110.jpg,gray,m_l_020.jpg,gray,within,NA,NaN,NA,left,5431.20000000298,1,0,1860.5999999940395
ONnijIcp,3o4vwc1gfzjxgki2d88xs18tr9fj3v,3xm0hyn6nocyzdzro7zfx8uutizpef,ONnijIcp,2020-0188,2021-10-14,19:51:46,23:06:01,NA,incomplete,false,true,NA,4,0,NA,white,n_l_072.jpg,NA,NA,pleasant,unpleasant,NA,NA,NA,NA,NA,right,3316.40000000596,true,NA,NA,NA,NA,NA
ONnijIcp,3o4vwc1gfzjxgki2d88xs18tr9fj3v,3xm0hyn6nocyzdzro7zfx8uutizpef,ONnijIcp,2020-0188,2021-10-14,19:51:46,23:06:01,NA,incomplete,false,true,NA,4,1,NA,white,m_s_085.jpg,NA,NA,unpleasant,pleasant,NA,NA,NA,NA,NA,right,1346.10000000894,true,NA,NA,NA,NA,NA
ONnijIcp,3o4vwc1gfzjxgki2d88xs18tr9fj3v,3xm0hyn6nocyzdzro7zfx8uutizpef,ONnijIcp,2020-0188,2021-10-14,19:51:46,23:06:01,NA,incomplete,false,true,NA,4,2,NA,white,m_l_072.jpg,NA,NA,unpleasant,pleasant,NA,NA,NA,NA,NA,left,1968.20000000298,true,NA,NA,NA,NA,NA
ONnijIcp,3o4vwc1gfzjxgki2d88xs18tr9fj3v,3xm0hyn6nocyzdzro7zfx8uutizpef,ONnijIcp,2020-0188,2021-10-14,19:51:46,23:06:01,NA,incomplete,false,true,NA,4,3,NA,white,n_s_108.jpg,NA,NA,unpleasant,pleasant,NA,NA,NA,NA,NA,left,1421.40000000596,true,NA,NA,NA,NA,NA
ONnijIcp,3o4vwc1gfzjxgki2d88xs18tr9fj3v,3xm0hyn6nocyzdzro7zfx8uutizpef,ONnijIcp,2020-0188,2021-10-14,19:51:46,23:06:01,NA,incomplete,false,true,NA,4,4,NA,white,m_s_003.jpg,NA,NA,pleasant,unpleasant,NA,NA,NA,NA,NA,right,2241.90000000596,true,NA,NA,NA,NA,NA
ONnijIcp,3o4vwc1gfzjxgki2d88xs18tr9fj3v,3xm0hyn6nocyzdzro7zfx8uutizpef,ONnijIcp,2020-0188,2021-10-14,19:51:46,23:06:01,NA,incomplete,false,true,NA,4,5,NA,white,n_s_059.jpg,NA,NA,unpleasant,pleasant,NA,NA,NA,NA,NA,left,1216.5,true,NA,NA,NA,NA,NA
ONnijIcp,3o4vwc1gfzjxgki2d88xs18tr9fj3v,3xm0hyn6nocyzdzro7zfx8uutizpef,ONnijIcp,2020-0188,2021-10-14,19:51:46,23:06:01,NA,incomplete,false,true,NA,4,6,NA,yellow,n_s_088.jpg,NA,NA,unpleasant,pleasant,NA,NA,NA,NA,NA,left,1517.40000000596,true,NA,NA,NA,NA,NA
ONnijIcp,3o4vwc1gfzjxgki2d88xs18tr9fj3v,3xm0hyn6nocyzdzro7zfx8uutizpef,ONnijIcp,2020-0188,2021-10-14,19:51:46,23:06:01,NA,incomplete,false,true,NA,4,7,NA,yellow,n_l_070.jpg,NA,NA,pleasant,unpleasant,NA,NA,NA,NA,NA,right,1938.5,true,NA,NA,NA,NA,NA
ONnijIcp,3o4vwc1gfzjxgki2d88xs18tr9fj3v,3xm0hyn6nocyzdzro7zfx8uutizpef,ONnijIcp,2020-0188,2021-10-14,19:51:46,23:06:01,NA,incomplete,false,true,NA,4,8,NA,yellow,n_l_079.jpg,NA,NA,unpleasant,pleasant,NA,NA,NA,NA,NA,right,1800.09999999404,true,NA,NA,NA,NA,NA
ONnijIcp,3o4vwc1gfzjxgki2d88xs18tr9fj3v,3xm0hyn6nocyzdzro7zfx8uutizpef,ONnijIcp,2020-0188,2021-10-14,19:51:46,23:06:01,NA,incomplete,false,true,NA,4,9,NA,yellow,m_s_037.jpg,NA,NA,pleasant,unpleasant,NA,NA,NA,NA,NA,right,2654.10000000894,true,NA,NA,NA,NA,NA
ONnijIcp,3o4vwc1gfzjxgki2d88xs18tr9fj3v,3xm0hyn6nocyzdzro7zfx8uutizpef,ONnijIcp,2020-0188,2021-10-14,19:51:46,23:06:01,NA,incomplete,false,true,NA,4,10,NA,yellow,n_s_117.jpg,NA,NA,pleasant,unpleasant,NA,NA,NA,NA,NA,left,1971.29999999702,true,NA,NA,NA,NA,NA
ONnijIcp,3o4vwc1gfzjxgki2d88xs18tr9fj3v,3xm0hyn6nocyzdzro7zfx8uutizpef,ONnijIcp,2020-0188,2021-10-14,19:51:46,23:06:01,NA,incomplete,false,true,NA,4,11,NA,yellow,m_s_087.jpg,NA,NA,unpleasant,pleasant,NA,NA,NA,NA,NA,right,1271.69999998808,true,NA,NA,NA,NA,NA
ONnijIcp,3o4vwc1gfzjxgki2d88xs18tr9fj3v,3xm0hyn6nocyzdzro7zfx8uutizpef,ONnijIcp,2020-0188,2021-10-14,19:51:46,23:06:01,NA,incomplete,false,true,NA,4,12,NA,green,n_l_109.jpg,NA,NA,unpleasant,pleasant,NA,NA,NA,NA,NA,left,2078.20000000298,true,NA,NA,NA,NA,NA
ONnijIcp,3o4vwc1gfzjxgki2d88xs18tr9fj3v,3xm0hyn6nocyzdzro7zfx8uutizpef,ONnijIcp,2020-0188,2021-10-14,19:51:46,23:06:01,NA,incomplete,false,true,NA,4,13,NA,green,m_s_103.jpg,NA,NA,unpleasant,pleasant,NA,NA,NA,NA,NA,right,1210.40000000596,true,NA,NA,NA,NA,NA
ONnijIcp,3o4vwc1gfzjxgki2d88xs18tr9fj3v,3xm0hyn6nocyzdzro7zfx8uutizpef,ONnijIcp,2020-0188,2021-10-14,19:51:46,23:06:01,NA,incomplete,false,true,NA,4,14,NA,green,n_l_015.jpg,NA,NA,pleasant,unpleasant,NA,NA,NA,NA,NA,left,962.59999999404,true,NA,NA,NA,NA,NA
ONnijIcp,3o4vwc1gfzjxgki2d88xs18tr9fj3v,3xm0hyn6nocyzdzro7zfx8uutizpef,ONnijIcp,2020-0188,2021-10-14,19:51:46,23:06:01,NA,incomplete,false,true,NA,4,15,NA,green,m_s_055.jpg,NA,NA,unpleasant,pleasant,NA,NA,NA,NA,NA,left,799.79999999702,true,NA,NA,NA,NA,NA
ONnijIcp,3o4vwc1gfzjxgki2d88xs18tr9fj3v,3xm0hyn6nocyzdzro7zfx8uutizpef,ONnijIcp,2020-0188,2021-10-14,19:51:46,23:06:01,NA,incomplete,false,true,NA,4,16,NA,green,n_l_003.jpg,NA,NA,pleasant,unpleasant,NA,NA,NA,NA,NA,right,981.5,true,NA,NA,NA,NA,NA
ONnijIcp,3o4vwc1gfzjxgki2d88xs18tr9fj3v,3xm0hyn6nocyzdzro7zfx8uutizpef,ONnijIcp,2020-0188,2021-10-14,19:51:46,23:06:01,NA,incomplete,false,true,NA,4,17,NA,green,m_l_002.jpg,NA,NA,pleasant,unpleasant,NA,NA,NA,NA,NA,left,1796,true,NA,NA,NA,NA,NA
ONnijIcp,3o4vwc1gfzjxgki2d88xs18tr9fj3v,3xm0hyn6nocyzdzro7zfx8uutizpef,ONnijIcp,2020-0188,2021-10-14,19:51:46,23:06:01,NA,incomplete,false,true,NA,4,18,NA,gray,m_s_072.jpg,NA,NA,pleasant,unpleasant,NA,NA,NA,NA,NA,right,1488.5,true,NA,NA,NA,NA,NA
ONnijIcp,3o4vwc1gfzjxgki2d88xs18tr9fj3v,3xm0hyn6nocyzdzro7zfx8uutizpef,ONnijIcp,2020-0188,2021-10-14,19:51:46,23:06:01,NA,incomplete,false,true,NA,4,19,NA,gray,m_s_017.jpg,NA,NA,pleasant,unpleasant,NA,NA,NA,NA,NA,left,1718.10000000894,true,NA,NA,NA,NA,NA
ONnijIcp,3o4vwc1gfzjxgki2d88xs18tr9fj3v,3xm0hyn6nocyzdzro7zfx8uutizpef,ONnijIcp,2020-0188,2021-10-14,19:51:46,23:06:01,NA,incomplete,false,true,NA,4,20,NA,gray,n_s_070.jpg,NA,NA,pleasant,unpleasant,NA,NA,NA,NA,NA,right,1035.5,true,NA,NA,NA,NA,NA
ONnijIcp,3o4vwc1gfzjxgki2d88xs18tr9fj3v,3xm0hyn6nocyzdzro7zfx8uutizpef,ONnijIcp,2020-0188,2021-10-14,19:51:46,23:06:01,NA,incomplete,false,true,NA,4,21,NA,gray,m_s_113.jpg,NA,NA,pleasant,unpleasant,NA,NA,NA,NA,NA,left,1200.90000000596,true,NA,NA,NA,NA,NA
ONnijIcp,3o4vwc1gfzjxgki2d88xs18tr9fj3v,3xm0hyn6nocyzdzro7zfx8uutizpef,ONnijIcp,2020-0188,2021-10-14,19:51:46,23:06:01,NA,incomplete,false,true,NA,4,22,NA,gray,n_s_073.jpg,NA,NA,pleasant,unpleasant,NA,NA,NA,NA,NA,left,821.70000000298,true,NA,NA,NA,NA,NA
ONnijIcp,3o4vwc1gfzjxgki2d88xs18tr9fj3v,3xm0hyn6nocyzdzro7zfx8uutizpef,ONnijIcp,2020-0188,2021-10-14,19:51:46,23:06:01,NA,incomplete,false,true,NA,4,23,NA,gray,m_l_046.jpg,NA,NA,unpleasant,pleasant,NA,NA,NA,NA,NA,left,1059.79999999702,true,NA,NA,NA,NA,NA
ONnijIcp,3o4vwc1gfzjxgki2d88xs18tr9fj3v,3xm0hyn6nocyzdzro7zfx8uutizpef,ONnijIcp,2020-0188,2021-10-14,19:51:46,23:06:01,NA,incomplete,false,true,NA,4,24,NA,black,m_l_012.jpg,NA,NA,unpleasant,pleasant,NA,NA,NA,NA,NA,right,1337.70000000298,true,NA,NA,NA,NA,NA
ONnijIcp,3o4vwc1gfzjxgki2d88xs18tr9fj3v,3xm0hyn6nocyzdzro7zfx8uutizpef,ONnijIcp,2020-0188,2021-10-14,19:51:46,23:06:01,NA,incomplete,false,true,NA,4,25,NA,black,n_s_001.jpg,NA,NA,unpleasant,pleasant,NA,NA,NA,NA,NA,right,1726.59999999404,true,NA,NA,NA,NA,NA
ONnijIcp,3o4vwc1gfzjxgki2d88xs18tr9fj3v,3xm0hyn6nocyzdzro7zfx8uutizpef,ONnijIcp,2020-0188,2021-10-14,19:51:46,23:06:01,NA,incomplete,false,true,NA,4,26,NA,black,m_s_086.jpg,NA,NA,unpleasant,pleasant,NA,NA,NA,NA,NA,left,1468.59999999404,true,NA,NA,NA,NA,NA
ONnijIcp,3o4vwc1gfzjxgki2d88xs18tr9fj3v,3xm0hyn6nocyzdzro7zfx8uutizpef,ONnijIcp,2020-0188,2021-10-14,19:51:46,23:06:01,NA,incomplete,false,true,NA,4,27,NA,black,n_l_104.jpg,NA,NA,unpleasant,pleasant,NA,NA,NA,NA,NA,right,993,true,NA,NA,NA,NA,NA
ONnijIcp,3o4vwc1gfzjxgki2d88xs18tr9fj3v,3xm0hyn6nocyzdzro7zfx8uutizpef,ONnijIcp,2020-0188,2021-10-14,19:51:46,23:06:01,NA,incomplete,false,true,NA,4,28,NA,black,m_s_009.jpg,NA,NA,pleasant,unpleasant,NA,NA,NA,NA,NA,left,855.399999991059,true,NA,NA,NA,NA,NA
ONnijIcp,3o4vwc1gfzjxgki2d88xs18tr9fj3v,3xm0hyn6nocyzdzro7zfx8uutizpef,ONnijIcp,2020-0188,2021-10-14,19:51:46,23:06:01,NA,incomplete,false,true,NA,4,29,NA,black,m_s_117.jpg,NA,NA,unpleasant,pleasant,NA,NA,NA,NA,NA,left,1765.79999999702,true,NA,NA,NA,NA,NA
ONnijIcp,3o4vwc1gfzjxgki2d88xs18tr9fj3v,3xm0hyn6nocyzdzro7zfx8uutizpef,ONnijIcp,2020-0188,2021-10-14,19:51:46,23:06:01,NA,incomplete,false,true,NA,4,30,NA,brown,m_l_101.jpg,NA,NA,pleasant,unpleasant,NA,NA,NA,NA,NA,right,1524.20000000298,true,NA,NA,NA,NA,NA
ONnijIcp,3o4vwc1gfzjxgki2d88xs18tr9fj3v,3xm0hyn6nocyzdzro7zfx8uutizpef,ONnijIcp,2020-0188,2021-10-14,19:51:46,23:06:01,NA,incomplete,false,true,NA,4,31,NA,brown,n_l_061.jpg,NA,NA,unpleasant,pleasant,NA,NA,NA,NA,NA,right,1488,true,NA,NA,NA,NA,NA
ONnijIcp,3o4vwc1gfzjxgki2d88xs18tr9fj3v,3xm0hyn6nocyzdzro7zfx8uutizpef,ONnijIcp,2020-0188,2021-10-14,19:51:46,23:06:01,NA,incomplete,false,true,NA,4,32,NA,brown,n_l_080.jpg,NA,NA,pleasant,unpleasant,NA,NA,NA,NA,NA,left,997.399999991059,true,NA,NA,NA,NA,NA
ONnijIcp,3o4vwc1gfzjxgki2d88xs18tr9fj3v,3xm0hyn6nocyzdzro7zfx8uutizpef,ONnijIcp,2020-0188,2021-10-14,19:51:46,23:06:01,NA,incomplete,false,true,NA,4,33,NA,brown,n_s_102.jpg,NA,NA,unpleasant,pleasant,NA,NA,NA,NA,NA,left,1346.70000000298,true,NA,NA,NA,NA,NA
ONnijIcp,3o4vwc1gfzjxgki2d88xs18tr9fj3v,3xm0hyn6nocyzdzro7zfx8uutizpef,ONnijIcp,2020-0188,2021-10-14,19:51:46,23:06:01,NA,incomplete,false,true,NA,4,34,NA,brown,m_s_111.jpg,NA,NA,pleasant,unpleasant,NA,NA,NA,NA,NA,left,1089.69999998808,true,NA,NA,NA,NA,NA
ONnijIcp,3o4vwc1gfzjxgki2d88xs18tr9fj3v,3xm0hyn6nocyzdzro7zfx8uutizpef,ONnijIcp,2020-0188,2021-10-14,19:51:46,23:06:01,NA,incomplete,false,true,NA,4,35,NA,brown,n_s_011.jpg,NA,NA,pleasant,unpleasant,NA,NA,NA,NA,NA,left,1175.20000000298,true,NA,NA,NA,NA,NA
ONnijIcp,3o4vwc1gfzjxgki2d88xs18tr9fj3v,3xm0hyn6nocyzdzro7zfx8uutizpef,ONnijIcp,2020-0188,2021-10-14,19:51:46,23:06:01,NA,incomplete,false,NA,true,4,0,NA,NA,NA,right,present,NA,NA,n_s_059.jpg,white,m_s_085.jpg,white,within,NA,NaN,NA,right,9977,1,0,1986.5
ONnijIcp,3o4vwc1gfzjxgki2d88xs18tr9fj3v,3xm0hyn6nocyzdzro7zfx8uutizpef,ONnijIcp,2020-0188,2021-10-14,19:51:46,23:06:01,NA,incomplete,false,NA,true,4,1,NA,NA,NA,right,present,NA,NA,m_l_002.jpg,green,m_s_103.jpg,green,within,NA,NaN,NA,left,4990.70000000298,0,0,1460.7999999970198
ONnijIcp,3o4vwc1gfzjxgki2d88xs18tr9fj3v,3xm0hyn6nocyzdzro7zfx8uutizpef,ONnijIcp,2020-0188,2021-10-14,19:51:46,23:06:01,NA,incomplete,false,NA,true,4,2,NA,NA,NA,right,present,NA,NA,m_s_087.jpg,yellow,n_l_070.jpg,yellow,within,NA,NaN,NA,left,3418.7000000029802,0,0,1742.5
ONnijIcp,3o4vwc1gfzjxgki2d88xs18tr9fj3v,3xm0hyn6nocyzdzro7zfx8uutizpef,ONnijIcp,2020-0188,2021-10-14,19:51:46,23:06:01,NA,incomplete,false,NA,true,4,3,NA,NA,NA,left,present,NA,NA,n_s_001.jpg,black,m_s_117.jpg,black,within,NA,NaN,NA,right,3340.6000000089407,0,0,1555
ONnijIcp,3o4vwc1gfzjxgki2d88xs18tr9fj3v,3xm0hyn6nocyzdzro7zfx8uutizpef,ONnijIcp,2020-0188,2021-10-14,19:51:46,23:06:01,NA,incomplete,false,NA,true,4,4,NA,NA,NA,left,present,NA,NA,n_s_117.jpg,yellow,n_l_015.jpg,green,between,NA,NaN,NA,left,21131.70000000298,1,1,2152.699999988079
ONnijIcp,3o4vwc1gfzjxgki2d88xs18tr9fj3v,3xm0hyn6nocyzdzro7zfx8uutizpef,ONnijIcp,2020-0188,2021-10-14,19:51:46,23:06:01,NA,incomplete,false,NA,true,4,5,NA,NA,NA,left,present,NA,NA,m_s_003.jpg,white,n_l_079.jpg,yellow,between,NA,NaN,NA,left,21883.30000001192,1,1,1909.1000000089407
ONnijIcp,3o4vwc1gfzjxgki2d88xs18tr9fj3v,3xm0hyn6nocyzdzro7zfx8uutizpef,ONnijIcp,2020-0188,2021-10-14,19:51:46,23:06:01,NA,incomplete,false,NA,true,4,6,NA,NA,NA,left,present,NA,NA,m_s_009.jpg,black,n_l_080.jpg,brown,between,NA,NaN,NA,left,8661,1,1,1476.5999999940395
ONnijIcp,3o4vwc1gfzjxgki2d88xs18tr9fj3v,3xm0hyn6nocyzdzro7zfx8uutizpef,ONnijIcp,2020-0188,2021-10-14,19:51:46,23:06:01,NA,incomplete,false,NA,true,4,7,NA,NA,NA,right,present,NA,NA,n_s_070.jpg,gray,n_l_003.jpg,green,between,NA,NaN,NA,right,21375.70000000298,1,1,21103
ONnijIcp,3o4vwc1gfzjxgki2d88xs18tr9fj3v,3xm0hyn6nocyzdzro7zfx8uutizpef,ONnijIcp,2020-0188,2021-10-14,19:51:46,23:06:01,NA,incomplete,false,NA,true,4,8,NA,NA,NA,right,present,NA,NA,m_l_046.jpg,gray,m_s_017.jpg,gray,within,NA,NaN,NA,right,46498.70000000298,1,0,1822.7999999970198
ONnijIcp,3o4vwc1gfzjxgki2d88xs18tr9fj3v,3xm0hyn6nocyzdzro7zfx8uutizpef,ONnijIcp,2020-0188,2021-10-14,19:51:46,23:06:01,NA,incomplete,false,NA,true,4,9,NA,NA,NA,right,present,NA,NA,m_s_086.jpg,black,n_s_073.jpg,gray,between,NA,NaN,NA,right,11309,1,1,1493.2000000029802
ONnijIcp,3o4vwc1gfzjxgki2d88xs18tr9fj3v,3xm0hyn6nocyzdzro7zfx8uutizpef,ONnijIcp,2020-0188,2021-10-14,19:51:46,23:06:01,NA,incomplete,false,NA,true,4,10,NA,NA,NA,right,present,NA,NA,n_s_011.jpg,brown,n_l_061.jpg,brown,within,NA,NaN,NA,right,10614.59999999404,1,0,1279.3999999910593
ONnijIcp,3o4vwc1gfzjxgki2d88xs18tr9fj3v,3xm0hyn6nocyzdzro7zfx8uutizpef,ONnijIcp,2020-0188,2021-10-14,19:51:46,23:06:01,NA,incomplete,false,true,NA,5,0,NA,white,n_l_045.jpg,NA,NA,pleasant,unpleasant,NA,NA,NA,NA,NA,right,3239,true,NA,NA,NA,NA,NA
ONnijIcp,3o4vwc1gfzjxgki2d88xs18tr9fj3v,3xm0hyn6nocyzdzro7zfx8uutizpef,ONnijIcp,2020-0188,2021-10-14,19:51:46,23:06:01,NA,incomplete,false,true,NA,5,1,NA,white,n_s_052.jpg,NA,NA,pleasant,unpleasant,NA,NA,NA,NA,NA,right,2507.69999998808,true,NA,NA,NA,NA,NA
ONnijIcp,3o4vwc1gfzjxgki2d88xs18tr9fj3v,3xm0hyn6nocyzdzro7zfx8uutizpef,ONnijIcp,2020-0188,2021-10-14,19:51:46,23:06:01,NA,incomplete,false,true,NA,5,2,NA,white,m_s_019.jpg,NA,NA,pleasant,unpleasant,NA,NA,NA,NA,NA,left,986.29999999702,true,NA,NA,NA,NA,NA
ONnijIcp,3o4vwc1gfzjxgki2d88xs18tr9fj3v,3xm0hyn6nocyzdzro7zfx8uutizpef,ONnijIcp,2020-0188,2021-10-14,19:51:46,23:06:01,NA,incomplete,false,true,NA,5,3,NA,white,n_l_018.jpg,NA,NA,pleasant,unpleasant,NA,NA,NA,NA,NA,left,1293.90000000596,true,NA,NA,NA,NA,NA
ONnijIcp,3o4vwc1gfzjxgki2d88xs18tr9fj3v,3xm0hyn6nocyzdzro7zfx8uutizpef,ONnijIcp,2020-0188,2021-10-14,19:51:46,23:06:01,NA,incomplete,false,true,NA,5,4,NA,white,m_l_030.jpg,NA,NA,unpleasant,pleasant,NA,NA,NA,NA,NA,left,1772.70000000298,true,NA,NA,NA,NA,NA
ONnijIcp,3o4vwc1gfzjxgki2d88xs18tr9fj3v,3xm0hyn6nocyzdzro7zfx8uutizpef,ONnijIcp,2020-0188,2021-10-14,19:51:46,23:06:01,NA,incomplete,false,true,NA,5,5,NA,white,m_l_039.jpg,NA,NA,pleasant,unpleasant,NA,NA,NA,NA,NA,right,786.5,true,NA,NA,NA,NA,NA
ONnijIcp,3o4vwc1gfzjxgki2d88xs18tr9fj3v,3xm0hyn6nocyzdzro7zfx8uutizpef,ONnijIcp,2020-0188,2021-10-14,19:51:46,23:06:01,NA,incomplete,false,true,NA,5,6,NA,orange,m_s_024.jpg,NA,NA,pleasant,unpleasant,NA,NA,NA,NA,NA,right,1136,true,NA,NA,NA,NA,NA
ONnijIcp,3o4vwc1gfzjxgki2d88xs18tr9fj3v,3xm0hyn6nocyzdzro7zfx8uutizpef,ONnijIcp,2020-0188,2021-10-14,19:51:46,23:06:01,NA,incomplete,false,true,NA,5,7,NA,orange,m_l_035.jpg,NA,NA,pleasant,unpleasant,NA,NA,NA,NA,NA,right,1411.20000000298,true,NA,NA,NA,NA,NA
ONnijIcp,3o4vwc1gfzjxgki2d88xs18tr9fj3v,3xm0hyn6nocyzdzro7zfx8uutizpef,ONnijIcp,2020-0188,2021-10-14,19:51:46,23:06:01,NA,incomplete,false,true,NA,5,8,NA,orange,n_s_054.jpg,NA,NA,unpleasant,pleasant,NA,NA,NA,NA,NA,right,1507.20000000298,true,NA,NA,NA,NA,NA
ONnijIcp,3o4vwc1gfzjxgki2d88xs18tr9fj3v,3xm0hyn6nocyzdzro7zfx8uutizpef,ONnijIcp,2020-0188,2021-10-14,19:51:46,23:06:01,NA,incomplete,false,true,NA,5,9,NA,orange,n_l_033.jpg,NA,NA,pleasant,unpleasant,NA,NA,NA,NA,NA,right,1358,true,NA,NA,NA,NA,NA
ONnijIcp,3o4vwc1gfzjxgki2d88xs18tr9fj3v,3xm0hyn6nocyzdzro7zfx8uutizpef,ONnijIcp,2020-0188,2021-10-14,19:51:46,23:06:01,NA,incomplete,false,true,NA,5,10,NA,orange,m_s_064.jpg,NA,NA,pleasant,unpleasant,NA,NA,NA,NA,NA,right,1861.29999999702,true,NA,NA,NA,NA,NA
ONnijIcp,3o4vwc1gfzjxgki2d88xs18tr9fj3v,3xm0hyn6nocyzdzro7zfx8uutizpef,ONnijIcp,2020-0188,2021-10-14,19:51:46,23:06:01,NA,incomplete,false,true,NA,5,11,NA,orange,m_l_060.jpg,NA,NA,pleasant,unpleasant,NA,NA,NA,NA,NA,right,964.199999988079,true,NA,NA,NA,NA,NA
ONnijIcp,3o4vwc1gfzjxgki2d88xs18tr9fj3v,3xm0hyn6nocyzdzro7zfx8uutizpef,ONnijIcp,2020-0188,2021-10-14,19:51:46,23:06:01,NA,incomplete,false,true,NA,5,12,NA,yellow,m_l_066.jpg,NA,NA,unpleasant,pleasant,NA,NA,NA,NA,NA,left,903.09999999404,true,NA,NA,NA,NA,NA
ONnijIcp,3o4vwc1gfzjxgki2d88xs18tr9fj3v,3xm0hyn6nocyzdzro7zfx8uutizpef,ONnijIcp,2020-0188,2021-10-14,19:51:46,23:06:01,NA,incomplete,false,true,NA,5,13,NA,yellow,n_s_019.jpg,NA,NA,unpleasant,pleasant,NA,NA,NA,NA,NA,right,1782,true,NA,NA,NA,NA,NA
ONnijIcp,3o4vwc1gfzjxgki2d88xs18tr9fj3v,3xm0hyn6nocyzdzro7zfx8uutizpef,ONnijIcp,2020-0188,2021-10-14,19:51:46,23:06:01,NA,incomplete,false,true,NA,5,14,NA,yellow,m_s_011.jpg,NA,NA,unpleasant,pleasant,NA,NA,NA,NA,NA,right,1325.20000000298,true,NA,NA,NA,NA,NA
ONnijIcp,3o4vwc1gfzjxgki2d88xs18tr9fj3v,3xm0hyn6nocyzdzro7zfx8uutizpef,ONnijIcp,2020-0188,2021-10-14,19:51:46,23:06:01,NA,incomplete,false,true,NA,5,15,NA,yellow,m_s_095.jpg,NA,NA,pleasant,unpleasant,NA,NA,NA,NA,NA,left,1425.09999999404,true,NA,NA,NA,NA,NA
ONnijIcp,3o4vwc1gfzjxgki2d88xs18tr9fj3v,3xm0hyn6nocyzdzro7zfx8uutizpef,ONnijIcp,2020-0188,2021-10-14,19:51:46,23:06:01,NA,incomplete,false,true,NA,5,16,NA,yellow,m_l_104.jpg,NA,NA,pleasant,unpleasant,NA,NA,NA,NA,NA,left,1103.09999999404,true,NA,NA,NA,NA,NA
ONnijIcp,3o4vwc1gfzjxgki2d88xs18tr9fj3v,3xm0hyn6nocyzdzro7zfx8uutizpef,ONnijIcp,2020-0188,2021-10-14,19:51:46,23:06:01,NA,incomplete,false,true,NA,5,17,NA,yellow,m_l_055.jpg,NA,NA,pleasant,unpleasant,NA,NA,NA,NA,NA,left,1757.29999999702,true,NA,NA,NA,NA,NA
ONnijIcp,3o4vwc1gfzjxgki2d88xs18tr9fj3v,3xm0hyn6nocyzdzro7zfx8uutizpef,ONnijIcp,2020-0188,2021-10-14,19:51:46,23:06:01,NA,incomplete,false,true,NA,5,18,NA,purple,m_l_054.jpg,NA,NA,unpleasant,pleasant,NA,NA,NA,NA,NA,right,985.699999988079,true,NA,NA,NA,NA,NA
ONnijIcp,3o4vwc1gfzjxgki2d88xs18tr9fj3v,3xm0hyn6nocyzdzro7zfx8uutizpef,ONnijIcp,2020-0188,2021-10-14,19:51:46,23:06:01,NA,incomplete,false,true,NA,5,19,NA,purple,n_l_028.jpg,NA,NA,unpleasant,pleasant,NA,NA,NA,NA,NA,left,1574.69999998808,true,NA,NA,NA,NA,NA
ONnijIcp,3o4vwc1gfzjxgki2d88xs18tr9fj3v,3xm0hyn6nocyzdzro7zfx8uutizpef,ONnijIcp,2020-0188,2021-10-14,19:51:46,23:06:01,NA,incomplete,false,true,NA,5,20,NA,purple,m_l_042.jpg,NA,NA,unpleasant,pleasant,NA,NA,NA,NA,NA,right,1210.89999999106,true,NA,NA,NA,NA,NA
ONnijIcp,3o4vwc1gfzjxgki2d88xs18tr9fj3v,3xm0hyn6nocyzdzro7zfx8uutizpef,ONnijIcp,2020-0188,2021-10-14,19:51:46,23:06:01,NA,incomplete,false,true,NA,5,21,NA,purple,n_s_092.jpg,NA,NA,unpleasant,pleasant,NA,NA,NA,NA,NA,right,1282,true,NA,NA,NA,NA,NA
ONnijIcp,3o4vwc1gfzjxgki2d88xs18tr9fj3v,3xm0hyn6nocyzdzro7zfx8uutizpef,ONnijIcp,2020-0188,2021-10-14,19:51:46,23:06:01,NA,incomplete,false,true,NA,5,22,NA,purple,m_s_047.jpg,NA,NA,pleasant,unpleasant,NA,NA,NA,NA,NA,left,1384.19999998808,true,NA,NA,NA,NA,NA
ONnijIcp,3o4vwc1gfzjxgki2d88xs18tr9fj3v,3xm0hyn6nocyzdzro7zfx8uutizpef,ONnijIcp,2020-0188,2021-10-14,19:51:46,23:06:01,NA,incomplete,false,true,NA,5,23,NA,purple,m_s_107.jpg,NA,NA,pleasant,unpleasant,NA,NA,NA,NA,NA,left,1166.20000000298,true,NA,NA,NA,NA,NA
ONnijIcp,3o4vwc1gfzjxgki2d88xs18tr9fj3v,3xm0hyn6nocyzdzro7zfx8uutizpef,ONnijIcp,2020-0188,2021-10-14,19:51:46,23:06:01,NA,incomplete,false,true,NA,5,24,NA,blue,n_l_106.jpg,NA,NA,pleasant,unpleasant,NA,NA,NA,NA,NA,right,1089.90000000596,true,NA,NA,NA,NA,NA
ONnijIcp,3o4vwc1gfzjxgki2d88xs18tr9fj3v,3xm0hyn6nocyzdzro7zfx8uutizpef,ONnijIcp,2020-0188,2021-10-14,19:51:46,23:06:01,NA,incomplete,false,true,NA,5,25,NA,blue,m_s_031.jpg,NA,NA,unpleasant,pleasant,NA,NA,NA,NA,NA,right,1536.89999999106,true,NA,NA,NA,NA,NA
ONnijIcp,3o4vwc1gfzjxgki2d88xs18tr9fj3v,3xm0hyn6nocyzdzro7zfx8uutizpef,ONnijIcp,2020-0188,2021-10-14,19:51:46,23:06:01,NA,incomplete,false,true,NA,5,26,NA,blue,n_l_041.jpg,NA,NA,pleasant,unpleasant,NA,NA,NA,NA,NA,left,1039.10000000894,true,NA,NA,NA,NA,NA
ONnijIcp,3o4vwc1gfzjxgki2d88xs18tr9fj3v,3xm0hyn6nocyzdzro7zfx8uutizpef,ONnijIcp,2020-0188,2021-10-14,19:51:46,23:06:01,NA,incomplete,false,true,NA,5,27,NA,blue,m_s_075.jpg,NA,NA,pleasant,unpleasant,NA,NA,NA,NA,NA,left,1419.20000000298,true,NA,NA,NA,NA,NA
ONnijIcp,3o4vwc1gfzjxgki2d88xs18tr9fj3v,3xm0hyn6nocyzdzro7zfx8uutizpef,ONnijIcp,2020-0188,2021-10-14,19:51:46,23:06:01,NA,incomplete,false,true,NA,5,28,NA,blue,m_l_058.jpg,NA,NA,unpleasant,pleasant,NA,NA,NA,NA,NA,right,1135.40000000596,true,NA,NA,NA,NA,NA
ONnijIcp,3o4vwc1gfzjxgki2d88xs18tr9fj3v,3xm0hyn6nocyzdzro7zfx8uutizpef,ONnijIcp,2020-0188,2021-10-14,19:51:46,23:06:01,NA,incomplete,false,true,NA,5,29,NA,blue,m_s_061.jpg,NA,NA,unpleasant,pleasant,NA,NA,NA,NA,NA,right,1022.20000000298,true,NA,NA,NA,NA,NA
ONnijIcp,3o4vwc1gfzjxgki2d88xs18tr9fj3v,3xm0hyn6nocyzdzro7zfx8uutizpef,ONnijIcp,2020-0188,2021-10-14,19:51:46,23:06:01,NA,incomplete,false,true,NA,5,30,NA,brown,m_s_067.jpg,NA,NA,pleasant,unpleasant,NA,NA,NA,NA,NA,left,875.90000000596,true,NA,NA,NA,NA,NA
ONnijIcp,3o4vwc1gfzjxgki2d88xs18tr9fj3v,3xm0hyn6nocyzdzro7zfx8uutizpef,ONnijIcp,2020-0188,2021-10-14,19:51:46,23:06:01,NA,incomplete,false,true,NA,5,31,NA,brown,n_s_113.jpg,NA,NA,pleasant,unpleasant,NA,NA,NA,NA,NA,right,1880.70000000298,true,NA,NA,NA,NA,NA
ONnijIcp,3o4vwc1gfzjxgki2d88xs18tr9fj3v,3xm0hyn6nocyzdzro7zfx8uutizpef,ONnijIcp,2020-0188,2021-10-14,19:51:46,23:06:01,NA,incomplete,false,true,NA,5,32,NA,brown,m_s_100.jpg,NA,NA,pleasant,unpleasant,NA,NA,NA,NA,NA,left,695.29999999702,true,NA,NA,NA,NA,NA
ONnijIcp,3o4vwc1gfzjxgki2d88xs18tr9fj3v,3xm0hyn6nocyzdzro7zfx8uutizpef,ONnijIcp,2020-0188,2021-10-14,19:51:46,23:06:01,NA,incomplete,false,true,NA,5,33,NA,brown,m_l_077.jpg,NA,NA,pleasant,unpleasant,NA,NA,NA,NA,NA,right,1035.79999999702,true,NA,NA,NA,NA,NA
ONnijIcp,3o4vwc1gfzjxgki2d88xs18tr9fj3v,3xm0hyn6nocyzdzro7zfx8uutizpef,ONnijIcp,2020-0188,2021-10-14,19:51:46,23:06:01,NA,incomplete,false,true,NA,5,34,NA,brown,m_s_068.jpg,NA,NA,pleasant,unpleasant,NA,NA,NA,NA,NA,left,944.59999999404,true,NA,NA,NA,NA,NA
ONnijIcp,3o4vwc1gfzjxgki2d88xs18tr9fj3v,3xm0hyn6nocyzdzro7zfx8uutizpef,ONnijIcp,2020-0188,2021-10-14,19:51:46,23:06:01,NA,incomplete,false,true,NA,5,35,NA,brown,n_s_012.jpg,NA,NA,pleasant,unpleasant,NA,NA,NA,NA,NA,left,1503.70000000298,true,NA,NA,NA,NA,NA
ONnijIcp,3o4vwc1gfzjxgki2d88xs18tr9fj3v,3xm0hyn6nocyzdzro7zfx8uutizpef,ONnijIcp,2020-0188,2021-10-14,19:51:46,23:06:01,NA,incomplete,false,NA,true,5,0,NA,NA,NA,left,absent,NA,NA,m_s_047.jpg,purple,n_l_041.jpg,blue,between,NA,NaN,NA,left,30201.10000000894,1,1,2075.5
ONnijIcp,3o4vwc1gfzjxgki2d88xs18tr9fj3v,3xm0hyn6nocyzdzro7zfx8uutizpef,ONnijIcp,2020-0188,2021-10-14,19:51:46,23:06:01,NA,incomplete,false,NA,true,5,1,NA,NA,NA,left,absent,NA,NA,m_l_030.jpg,white,n_s_054.jpg,orange,between,NA,NaN,NA,left,46665,1,2,2224.2000000029802
ONnijIcp,3o4vwc1gfzjxgki2d88xs18tr9fj3v,3xm0hyn6nocyzdzro7zfx8uutizpef,ONnijIcp,2020-0188,2021-10-14,19:51:46,23:06:01,NA,incomplete,false,NA,true,5,2,NA,NA,NA,left,absent,NA,NA,m_s_031.jpg,blue,m_s_061.jpg,blue,within,NA,NaN,NA,left,6777.5999999940395,1,0,1233.5999999940395
ONnijIcp,3o4vwc1gfzjxgki2d88xs18tr9fj3v,3xm0hyn6nocyzdzro7zfx8uutizpef,ONnijIcp,2020-0188,2021-10-14,19:51:46,23:06:01,NA,incomplete,false,NA,true,5,3,NA,NA,NA,left,absent,NA,NA,n_l_028.jpg,purple,m_s_107.jpg,purple,within,NA,NaN,NA,left,7391.600000008941,1,2,1138.7000000029802
ONnijIcp,3o4vwc1gfzjxgki2d88xs18tr9fj3v,3xm0hyn6nocyzdzro7zfx8uutizpef,ONnijIcp,2020-0188,2021-10-14,19:51:46,23:06:01,NA,incomplete,false,NA,true,5,4,NA,NA,NA,right,absent,NA,NA,m_l_055.jpg,yellow,n_s_019.jpg,yellow,within,NA,NaN,NA,left,5502.9000000059605,0,1,4867.5999999940395
ONnijIcp,3o4vwc1gfzjxgki2d88xs18tr9fj3v,3xm0hyn6nocyzdzro7zfx8uutizpef,ONnijIcp,2020-0188,2021-10-14,19:51:46,23:06:01,NA,incomplete,false,NA,true,5,5,NA,NA,NA,right,absent,NA,NA,n_s_012.jpg,brown,n_s_113.jpg,brown,within,NA,NaN,NA,left,6683.5,0,2,1439.8999999910593
ONnijIcp,3o4vwc1gfzjxgki2d88xs18tr9fj3v,3xm0hyn6nocyzdzro7zfx8uutizpef,ONnijIcp,2020-0188,2021-10-14,19:51:46,23:06:01,NA,incomplete,false,NA,true,5,6,NA,NA,NA,left,absent,NA,NA,m_l_058.jpg,blue,m_s_100.jpg,brown,between,NA,NaN,NA,right,3577.7000000029802,0,1,1957.7999999970198
ONnijIcp,3o4vwc1gfzjxgki2d88xs18tr9fj3v,3xm0hyn6nocyzdzro7zfx8uutizpef,ONnijIcp,2020-0188,2021-10-14,19:51:46,23:06:01,NA,incomplete,false,NA,true,5,7,NA,NA,NA,left,absent,NA,NA,n_s_052.jpg,white,m_l_039.jpg,white,within,NA,NaN,NA,right,5141.29999999702,0,1,8671.89999999106
ONnijIcp,3o4vwc1gfzjxgki2d88xs18tr9fj3v,3xm0hyn6nocyzdzro7zfx8uutizpef,ONnijIcp,2020-0188,2021-10-14,19:51:46,23:06:01,NA,incomplete,false,NA,true,5,8,NA,NA,NA,left,absent,NA,NA,m_l_035.jpg,orange,m_l_060.jpg,orange,within,NA,NaN,NA,left,7823.5,1,1,1186.8999999910593
ONnijIcp,3o4vwc1gfzjxgki2d88xs18tr9fj3v,3xm0hyn6nocyzdzro7zfx8uutizpef,ONnijIcp,2020-0188,2021-10-14,19:51:46,23:06:01,NA,incomplete,false,NA,true,5,9,NA,NA,NA,right,absent,NA,NA,m_l_042.jpg,purple,m_l_104.jpg,yellow,between,NA,NaN,NA,left,25461,0,0,1586.7999999970198
ONnijIcp,3o4vwc1gfzjxgki2d88xs18tr9fj3v,3xm0hyn6nocyzdzro7zfx8uutizpef,ONnijIcp,2020-0188,2021-10-14,19:51:46,23:06:01,NA,incomplete,false,NA,true,5,10,NA,NA,NA,left,absent,NA,NA,m_s_064.jpg,orange,m_s_011.jpg,yellow,between,NA,NaN,NA,right,5543.4000000059605,0,0,1525
ONnijIcp,3o4vwc1gfzjxgki2d88xs18tr9fj3v,3xm0hyn6nocyzdzro7zfx8uutizpef,ONnijIcp,2020-0188,2021-10-14,19:51:46,23:06:01,NA,incomplete,false,true,NA,6,0,NA,brown,m_l_097.jpg,NA,NA,pleasant,unpleasant,NA,NA,NA,NA,NA,right,755.70000000298,true,NA,NA,NA,NA,NA
ONnijIcp,3o4vwc1gfzjxgki2d88xs18tr9fj3v,3xm0hyn6nocyzdzro7zfx8uutizpef,ONnijIcp,2020-0188,2021-10-14,19:51:46,23:06:01,NA,incomplete,false,true,NA,6,1,NA,brown,m_l_116.jpg,NA,NA,unpleasant,pleasant,NA,NA,NA,NA,NA,right,1472.09999999404,true,NA,NA,NA,NA,NA
ONnijIcp,3o4vwc1gfzjxgki2d88xs18tr9fj3v,3xm0hyn6nocyzdzro7zfx8uutizpef,ONnijIcp,2020-0188,2021-10-14,19:51:46,23:06:01,NA,incomplete,false,true,NA,6,2,NA,brown,n_s_069.jpg,NA,NA,pleasant,unpleasant,NA,NA,NA,NA,NA,left,2069.89999999106,true,NA,NA,NA,NA,NA
ONnijIcp,3o4vwc1gfzjxgki2d88xs18tr9fj3v,3xm0hyn6nocyzdzro7zfx8uutizpef,ONnijIcp,2020-0188,2021-10-14,19:51:46,23:06:01,NA,incomplete,false,true,NA,6,3,NA,brown,n_s_016.jpg,NA,NA,pleasant,unpleasant,NA,NA,NA,NA,NA,left,1521.29999999702,true,NA,NA,NA,NA,NA
ONnijIcp,3o4vwc1gfzjxgki2d88xs18tr9fj3v,3xm0hyn6nocyzdzro7zfx8uutizpef,ONnijIcp,2020-0188,2021-10-14,19:51:46,23:06:01,NA,incomplete,false,true,NA,6,4,NA,brown,m_l_093.jpg,NA,NA,pleasant,unpleasant,NA,NA,NA,NA,NA,left,1479.5,true,NA,NA,NA,NA,NA
ONnijIcp,3o4vwc1gfzjxgki2d88xs18tr9fj3v,3xm0hyn6nocyzdzro7zfx8uutizpef,ONnijIcp,2020-0188,2021-10-14,19:51:46,23:06:01,NA,incomplete,false,true,NA,6,5,NA,brown,m_l_062.jpg,NA,NA,unpleasant,pleasant,NA,NA,NA,NA,NA,right,1878.59999999404,true,NA,NA,NA,NA,NA
ONnijIcp,3o4vwc1gfzjxgki2d88xs18tr9fj3v,3xm0hyn6nocyzdzro7zfx8uutizpef,ONnijIcp,2020-0188,2021-10-14,19:51:46,23:06:01,NA,incomplete,false,true,NA,6,6,NA,white,m_s_013.jpg,NA,NA,unpleasant,pleasant,NA,NA,NA,NA,NA,left,1380.5,true,NA,NA,NA,NA,NA
ONnijIcp,3o4vwc1gfzjxgki2d88xs18tr9fj3v,3xm0hyn6nocyzdzro7zfx8uutizpef,ONnijIcp,2020-0188,2021-10-14,19:51:46,23:06:01,NA,incomplete,false,true,NA,6,7,NA,white,n_l_009.jpg,NA,NA,unpleasant,pleasant,NA,NA,NA,NA,NA,right,1618.10000000894,true,NA,NA,NA,NA,NA
ONnijIcp,3o4vwc1gfzjxgki2d88xs18tr9fj3v,3xm0hyn6nocyzdzro7zfx8uutizpef,ONnijIcp,2020-0188,2021-10-14,19:51:46,23:06:01,NA,incomplete,false,true,NA,6,8,NA,white,n_l_039.jpg,NA,NA,unpleasant,pleasant,NA,NA,NA,NA,NA,right,983.59999999404,true,NA,NA,NA,NA,NA
ONnijIcp,3o4vwc1gfzjxgki2d88xs18tr9fj3v,3xm0hyn6nocyzdzro7zfx8uutizpef,ONnijIcp,2020-0188,2021-10-14,19:51:46,23:06:01,NA,incomplete,false,true,NA,6,9,NA,white,n_l_071.jpg,NA,NA,pleasant,unpleasant,NA,NA,NA,NA,NA,left,2645.20000000298,true,NA,NA,NA,NA,NA
ONnijIcp,3o4vwc1gfzjxgki2d88xs18tr9fj3v,3xm0hyn6nocyzdzro7zfx8uutizpef,ONnijIcp,2020-0188,2021-10-14,19:51:46,23:06:01,NA,incomplete,false,true,NA,6,10,NA,white,n_l_058.jpg,NA,NA,unpleasant,pleasant,NA,NA,NA,NA,NA,right,1354.70000000298,true,NA,NA,NA,NA,NA
ONnijIcp,3o4vwc1gfzjxgki2d88xs18tr9fj3v,3xm0hyn6nocyzdzro7zfx8uutizpef,ONnijIcp,2020-0188,2021-10-14,19:51:46,23:06:01,NA,incomplete,false,true,NA,6,11,NA,white,m_l_089.jpg,NA,NA,pleasant,unpleasant,NA,NA,NA,NA,NA,right,1264.20000000298,true,NA,NA,NA,NA,NA
ONnijIcp,3o4vwc1gfzjxgki2d88xs18tr9fj3v,3xm0hyn6nocyzdzro7zfx8uutizpef,ONnijIcp,2020-0188,2021-10-14,19:51:46,23:06:01,NA,incomplete,false,true,NA,6,12,NA,blue,n_l_005.jpg,NA,NA,pleasant,unpleasant,NA,NA,NA,NA,NA,left,1157.60000000894,true,NA,NA,NA,NA,NA
ONnijIcp,3o4vwc1gfzjxgki2d88xs18tr9fj3v,3xm0hyn6nocyzdzro7zfx8uutizpef,ONnijIcp,2020-0188,2021-10-14,19:51:46,23:06:01,NA,incomplete,false,true,NA,6,13,NA,blue,m_l_083.jpg,NA,NA,unpleasant,pleasant,NA,NA,NA,NA,NA,right,1554.09999999404,true,NA,NA,NA,NA,NA
ONnijIcp,3o4vwc1gfzjxgki2d88xs18tr9fj3v,3xm0hyn6nocyzdzro7zfx8uutizpef,ONnijIcp,2020-0188,2021-10-14,19:51:46,23:06:01,NA,incomplete,false,true,NA,6,14,NA,blue,m_l_050.jpg,NA,NA,pleasant,unpleasant,NA,NA,NA,NA,NA,left,1177.5,true,NA,NA,NA,NA,NA
ONnijIcp,3o4vwc1gfzjxgki2d88xs18tr9fj3v,3xm0hyn6nocyzdzro7zfx8uutizpef,ONnijIcp,2020-0188,2021-10-14,19:51:46,23:06:01,NA,incomplete,false,true,NA,6,15,NA,blue,m_s_097.jpg,NA,NA,unpleasant,pleasant,NA,NA,NA,NA,NA,left,1021.79999999702,true,NA,NA,NA,NA,NA
ONnijIcp,3o4vwc1gfzjxgki2d88xs18tr9fj3v,3xm0hyn6nocyzdzro7zfx8uutizpef,ONnijIcp,2020-0188,2021-10-14,19:51:46,23:06:01,NA,incomplete,false,true,NA,6,16,NA,blue,n_s_103.jpg,NA,NA,pleasant,unpleasant,NA,NA,NA,NA,NA,left,843.600000008941,true,NA,NA,NA,NA,NA
ONnijIcp,3o4vwc1gfzjxgki2d88xs18tr9fj3v,3xm0hyn6nocyzdzro7zfx8uutizpef,ONnijIcp,2020-0188,2021-10-14,19:51:46,23:06:01,NA,incomplete,false,true,NA,6,17,NA,blue,m_s_048.jpg,NA,NA,unpleasant,pleasant,NA,NA,NA,NA,NA,left,826.29999999702,true,NA,NA,NA,NA,NA
ONnijIcp,3o4vwc1gfzjxgki2d88xs18tr9fj3v,3xm0hyn6nocyzdzro7zfx8uutizpef,ONnijIcp,2020-0188,2021-10-14,19:51:46,23:06:01,NA,incomplete,false,true,NA,6,18,NA,yellow,m_l_034.jpg,NA,NA,unpleasant,pleasant,NA,NA,NA,NA,NA,right,1256.29999999702,true,NA,NA,NA,NA,NA
ONnijIcp,3o4vwc1gfzjxgki2d88xs18tr9fj3v,3xm0hyn6nocyzdzro7zfx8uutizpef,ONnijIcp,2020-0188,2021-10-14,19:51:46,23:06:01,NA,incomplete,false,true,NA,6,19,NA,yellow,n_s_036.jpg,NA,NA,unpleasant,pleasant,NA,NA,NA,NA,NA,left,1108.39999999106,true,NA,NA,NA,NA,NA
ONnijIcp,3o4vwc1gfzjxgki2d88xs18tr9fj3v,3xm0hyn6nocyzdzro7zfx8uutizpef,ONnijIcp,2020-0188,2021-10-14,19:51:46,23:06:01,NA,incomplete,false,true,NA,6,20,NA,yellow,m_s_084.jpg,NA,NA,pleasant,unpleasant,NA,NA,NA,NA,NA,right,1074.79999999702,true,NA,NA,NA,NA,NA
ONnijIcp,3o4vwc1gfzjxgki2d88xs18tr9fj3v,3xm0hyn6nocyzdzro7zfx8uutizpef,ONnijIcp,2020-0188,2021-10-14,19:51:46,23:06:01,NA,incomplete,false,true,NA,6,21,NA,yellow,m_l_109.jpg,NA,NA,pleasant,unpleasant,NA,NA,NA,NA,NA,left,647.20000000298,true,NA,NA,NA,NA,NA
ONnijIcp,3o4vwc1gfzjxgki2d88xs18tr9fj3v,3xm0hyn6nocyzdzro7zfx8uutizpef,ONnijIcp,2020-0188,2021-10-14,19:51:46,23:06:01,NA,incomplete,false,true,NA,6,22,NA,yellow,m_s_025.jpg,NA,NA,unpleasant,pleasant,NA,NA,NA,NA,NA,left,1262,true,NA,NA,NA,NA,NA
ONnijIcp,3o4vwc1gfzjxgki2d88xs18tr9fj3v,3xm0hyn6nocyzdzro7zfx8uutizpef,ONnijIcp,2020-0188,2021-10-14,19:51:46,23:06:01,NA,incomplete,false,true,NA,6,23,NA,yellow,n_s_115.jpg,NA,NA,pleasant,unpleasant,NA,NA,NA,NA,NA,left,1102.29999999702,true,NA,NA,NA,NA,NA
ONnijIcp,3o4vwc1gfzjxgki2d88xs18tr9fj3v,3xm0hyn6nocyzdzro7zfx8uutizpef,ONnijIcp,2020-0188,2021-10-14,19:51:46,23:06:01,NA,incomplete,false,true,NA,6,24,NA,orange,n_s_027.jpg,NA,NA,pleasant,unpleasant,NA,NA,NA,NA,NA,right,1193.09999999404,true,NA,NA,NA,NA,NA
ONnijIcp,3o4vwc1gfzjxgki2d88xs18tr9fj3v,3xm0hyn6nocyzdzro7zfx8uutizpef,ONnijIcp,2020-0188,2021-10-14,19:51:46,23:06:01,NA,incomplete,false,true,NA,6,25,NA,orange,n_l_114.jpg,NA,NA,unpleasant,pleasant,NA,NA,NA,NA,NA,left,1159.20000000298,true,NA,NA,NA,NA,NA
ONnijIcp,3o4vwc1gfzjxgki2d88xs18tr9fj3v,3xm0hyn6nocyzdzro7zfx8uutizpef,ONnijIcp,2020-0188,2021-10-14,19:51:46,23:06:01,NA,incomplete,false,true,NA,6,26,NA,orange,n_s_028.jpg,NA,NA,unpleasant,pleasant,NA,NA,NA,NA,NA,right,997.90000000596,true,NA,NA,NA,NA,NA
ONnijIcp,3o4vwc1gfzjxgki2d88xs18tr9fj3v,3xm0hyn6nocyzdzro7zfx8uutizpef,ONnijIcp,2020-0188,2021-10-14,19:51:46,23:06:01,NA,incomplete,false,true,NA,6,27,NA,orange,m_l_009.jpg,NA,NA,unpleasant,pleasant,NA,NA,NA,NA,NA,left,1371.19999998808,true,NA,NA,NA,NA,NA
ONnijIcp,3o4vwc1gfzjxgki2d88xs18tr9fj3v,3xm0hyn6nocyzdzro7zfx8uutizpef,ONnijIcp,2020-0188,2021-10-14,19:51:46,23:06:01,NA,incomplete,false,true,NA,6,28,NA,orange,m_s_007.jpg,NA,NA,pleasant,unpleasant,NA,NA,NA,NA,NA,left,1312.79999999702,true,NA,NA,NA,NA,NA
ONnijIcp,3o4vwc1gfzjxgki2d88xs18tr9fj3v,3xm0hyn6nocyzdzro7zfx8uutizpef,ONnijIcp,2020-0188,2021-10-14,19:51:46,23:06:01,NA,incomplete,false,true,NA,6,29,NA,orange,n_l_007.jpg,NA,NA,pleasant,unpleasant,NA,NA,NA,NA,NA,left,799.5,true,NA,NA,NA,NA,NA
ONnijIcp,3o4vwc1gfzjxgki2d88xs18tr9fj3v,3xm0hyn6nocyzdzro7zfx8uutizpef,ONnijIcp,2020-0188,2021-10-14,19:51:46,23:06:01,NA,incomplete,false,true,NA,6,30,NA,red,m_l_088.jpg,NA,NA,pleasant,unpleasant,NA,NA,NA,NA,NA,right,1277,true,NA,NA,NA,NA,NA
ONnijIcp,3o4vwc1gfzjxgki2d88xs18tr9fj3v,3xm0hyn6nocyzdzro7zfx8uutizpef,ONnijIcp,2020-0188,2021-10-14,19:51:46,23:06:01,NA,incomplete,false,true,NA,6,31,NA,red,n_s_023.jpg,NA,NA,pleasant,unpleasant,NA,NA,NA,NA,NA,left,994.5,true,NA,NA,NA,NA,NA
ONnijIcp,3o4vwc1gfzjxgki2d88xs18tr9fj3v,3xm0hyn6nocyzdzro7zfx8uutizpef,ONnijIcp,2020-0188,2021-10-14,19:51:46,23:06:01,NA,incomplete,false,true,NA,6,32,NA,red,m_l_073.jpg,NA,NA,pleasant,unpleasant,NA,NA,NA,NA,NA,right,977.09999999404,true,NA,NA,NA,NA,NA
ONnijIcp,3o4vwc1gfzjxgki2d88xs18tr9fj3v,3xm0hyn6nocyzdzro7zfx8uutizpef,ONnijIcp,2020-0188,2021-10-14,19:51:46,23:06:01,NA,incomplete,false,true,NA,6,33,NA,red,m_l_010.jpg,NA,NA,unpleasant,pleasant,NA,NA,NA,NA,NA,right,1014.19999998808,true,NA,NA,NA,NA,NA
ONnijIcp,3o4vwc1gfzjxgki2d88xs18tr9fj3v,3xm0hyn6nocyzdzro7zfx8uutizpef,ONnijIcp,2020-0188,2021-10-14,19:51:46,23:06:01,NA,incomplete,false,true,NA,6,34,NA,red,m_s_030.jpg,NA,NA,pleasant,unpleasant,NA,NA,NA,NA,NA,left,1300.79999999702,true,NA,NA,NA,NA,NA
ONnijIcp,3o4vwc1gfzjxgki2d88xs18tr9fj3v,3xm0hyn6nocyzdzro7zfx8uutizpef,ONnijIcp,2020-0188,2021-10-14,19:51:46,23:06:01,NA,incomplete,false,true,NA,6,35,NA,red,n_s_100.jpg,NA,NA,pleasant,unpleasant,NA,NA,NA,NA,NA,left,818.09999999404,true,NA,NA,NA,NA,NA
ONnijIcp,3o4vwc1gfzjxgki2d88xs18tr9fj3v,3xm0hyn6nocyzdzro7zfx8uutizpef,ONnijIcp,2020-0188,2021-10-14,19:51:46,23:06:01,NA,incomplete,false,NA,true,6,0,NA,NA,NA,left,absent,NA,NA,m_l_083.jpg,blue,m_s_048.jpg,blue,within,NA,NaN,NA,left,20394.20000000298,1,1,2248.7999999970198
ONnijIcp,3o4vwc1gfzjxgki2d88xs18tr9fj3v,3xm0hyn6nocyzdzro7zfx8uutizpef,ONnijIcp,2020-0188,2021-10-14,19:51:46,23:06:01,NA,incomplete,false,NA,true,6,1,NA,NA,NA,left,absent,NA,NA,n_s_103.jpg,blue,m_s_084.jpg,yellow,between,NA,NaN,NA,left,3372.9000000059605,1,0,2003
ONnijIcp,3o4vwc1gfzjxgki2d88xs18tr9fj3v,3xm0hyn6nocyzdzro7zfx8uutizpef,ONnijIcp,2020-0188,2021-10-14,19:51:46,23:06:01,NA,incomplete,false,NA,true,6,2,NA,NA,NA,left,absent,NA,NA,m_l_093.jpg,brown,n_l_039.jpg,white,between,NA,NaN,NA,left,18770.90000000596,1,1,1509.5
ONnijIcp,3o4vwc1gfzjxgki2d88xs18tr9fj3v,3xm0hyn6nocyzdzro7zfx8uutizpef,ONnijIcp,2020-0188,2021-10-14,19:51:46,23:06:01,NA,incomplete,false,NA,true,6,3,NA,NA,NA,right,absent,NA,NA,n_s_028.jpg,orange,m_s_025.jpg,yellow,between,NA,NaN,NA,left,13359.10000000894,0,1,1697
ONnijIcp,3o4vwc1gfzjxgki2d88xs18tr9fj3v,3xm0hyn6nocyzdzro7zfx8uutizpef,ONnijIcp,2020-0188,2021-10-14,19:51:46,23:06:01,NA,incomplete,false,NA,true,6,4,NA,NA,NA,right,absent,NA,NA,m_l_062.jpg,brown,m_l_116.jpg,brown,within,NA,NaN,NA,right,10495.29999999702,1,3,4629.5999999940395
ONnijIcp,3o4vwc1gfzjxgki2d88xs18tr9fj3v,3xm0hyn6nocyzdzro7zfx8uutizpef,ONnijIcp,2020-0188,2021-10-14,19:51:46,23:06:01,NA,incomplete,false,NA,true,6,5,NA,NA,NA,right,absent,NA,NA,n_s_115.jpg,yellow,n_s_036.jpg,yellow,within,NA,NaN,NA,left,13819.800000011921,0,1,1863.5
ONnijIcp,3o4vwc1gfzjxgki2d88xs18tr9fj3v,3xm0hyn6nocyzdzro7zfx8uutizpef,ONnijIcp,2020-0188,2021-10-14,19:51:46,23:06:01,NA,incomplete,false,NA,true,6,6,NA,NA,NA,right,absent,NA,NA,n_s_100.jpg,red,n_s_023.jpg,red,within,NA,NaN,NA,right,4196.899999991059,1,0,1475.0999999940395
ONnijIcp,3o4vwc1gfzjxgki2d88xs18tr9fj3v,3xm0hyn6nocyzdzro7zfx8uutizpef,ONnijIcp,2020-0188,2021-10-14,19:51:46,23:06:01,NA,incomplete,false,NA,true,6,7,NA,NA,NA,right,absent,NA,NA,m_l_073.jpg,red,m_s_007.jpg,orange,between,NA,NaN,NA,left,37446.40000000596,0,0,1367.7000000029802
ONnijIcp,3o4vwc1gfzjxgki2d88xs18tr9fj3v,3xm0hyn6nocyzdzro7zfx8uutizpef,ONnijIcp,2020-0188,2021-10-14,19:51:46,23:06:01,NA,incomplete,false,NA,true,6,8,NA,NA,NA,left,absent,NA,NA,n_l_009.jpg,white,m_l_089.jpg,white,within,NA,NaN,NA,left,6823.5,1,1,1941.5
ONnijIcp,3o4vwc1gfzjxgki2d88xs18tr9fj3v,3xm0hyn6nocyzdzro7zfx8uutizpef,ONnijIcp,2020-0188,2021-10-14,19:51:46,23:06:01,NA,incomplete,false,NA,true,6,9,NA,NA,NA,right,absent,NA,NA,m_l_050.jpg,blue,n_l_058.jpg,white,between,NA,NaN,NA,left,2703.199999988079,0,1,1963.6000000089407
ONnijIcp,3o4vwc1gfzjxgki2d88xs18tr9fj3v,3xm0hyn6nocyzdzro7zfx8uutizpef,ONnijIcp,2020-0188,2021-10-14,19:51:46,23:06:01,NA,incomplete,false,NA,true,6,10,NA,NA,NA,right,absent,NA,NA,n_l_007.jpg,orange,n_l_114.jpg,orange,within,NA,NaN,NA,right,3032.7999999970198,1,0,1699.0999999940395
ONnijIcp,3o4vwc1gfzjxgki2d88xs18tr9fj3v,3xm0hyn6nocyzdzro7zfx8uutizpef,ONnijIcp,2020-0188,2021-10-14,19:51:46,23:06:01,NA,incomplete,false,true,NA,7,0,NA,gray,m_l_087.jpg,NA,NA,pleasant,unpleasant,NA,NA,NA,NA,NA,right,1445.90000000596,true,NA,NA,NA,NA,NA
ONnijIcp,3o4vwc1gfzjxgki2d88xs18tr9fj3v,3xm0hyn6nocyzdzro7zfx8uutizpef,ONnijIcp,2020-0188,2021-10-14,19:51:46,23:06:01,NA,incomplete,false,true,NA,7,1,NA,gray,n_l_049.jpg,NA,NA,pleasant,unpleasant,NA,NA,NA,NA,NA,right,1587.40000000596,true,NA,NA,NA,NA,NA
ONnijIcp,3o4vwc1gfzjxgki2d88xs18tr9fj3v,3xm0hyn6nocyzdzro7zfx8uutizpef,ONnijIcp,2020-0188,2021-10-14,19:51:46,23:06:01,NA,incomplete,false,true,NA,7,2,NA,gray,n_s_093.jpg,NA,NA,pleasant,unpleasant,NA,NA,NA,NA,NA,right,1065.19999998808,true,NA,NA,NA,NA,NA
ONnijIcp,3o4vwc1gfzjxgki2d88xs18tr9fj3v,3xm0hyn6nocyzdzro7zfx8uutizpef,ONnijIcp,2020-0188,2021-10-14,19:51:46,23:06:01,NA,incomplete,false,true,NA,7,3,NA,gray,n_l_054.jpg,NA,NA,unpleasant,pleasant,NA,NA,NA,NA,NA,right,1166.79999999702,true,NA,NA,NA,NA,NA
ONnijIcp,3o4vwc1gfzjxgki2d88xs18tr9fj3v,3xm0hyn6nocyzdzro7zfx8uutizpef,ONnijIcp,2020-0188,2021-10-14,19:51:46,23:06:01,NA,incomplete,false,true,NA,7,4,NA,gray,n_s_050.jpg,NA,NA,unpleasant,pleasant,NA,NA,NA,NA,NA,right,1428.5,true,NA,NA,NA,NA,NA
ONnijIcp,3o4vwc1gfzjxgki2d88xs18tr9fj3v,3xm0hyn6nocyzdzro7zfx8uutizpef,ONnijIcp,2020-0188,2021-10-14,19:51:46,23:06:01,NA,incomplete,false,true,NA,7,5,NA,gray,n_l_026.jpg,NA,NA,unpleasant,pleasant,NA,NA,NA,NA,NA,right,1290.79999999702,true,NA,NA,NA,NA,NA
ONnijIcp,3o4vwc1gfzjxgki2d88xs18tr9fj3v,3xm0hyn6nocyzdzro7zfx8uutizpef,ONnijIcp,2020-0188,2021-10-14,19:51:46,23:06:01,NA,incomplete,false,true,NA,7,6,NA,yellow,n_s_081.jpg,NA,NA,unpleasant,pleasant,NA,NA,NA,NA,NA,left,974.40000000596,true,NA,NA,NA,NA,NA
ONnijIcp,3o4vwc1gfzjxgki2d88xs18tr9fj3v,3xm0hyn6nocyzdzro7zfx8uutizpef,ONnijIcp,2020-0188,2021-10-14,19:51:46,23:06:01,NA,incomplete,false,true,NA,7,7,NA,yellow,n_l_044.jpg,NA,NA,pleasant,unpleasant,NA,NA,NA,NA,NA,left,956.90000000596,true,NA,NA,NA,NA,NA
ONnijIcp,3o4vwc1gfzjxgki2d88xs18tr9fj3v,3xm0hyn6nocyzdzro7zfx8uutizpef,ONnijIcp,2020-0188,2021-10-14,19:51:46,23:06:01,NA,incomplete,false,true,NA,7,8,NA,yellow,n_l_093.jpg,NA,NA,pleasant,unpleasant,NA,NA,NA,NA,NA,right,1098.79999999702,true,NA,NA,NA,NA,NA
ONnijIcp,3o4vwc1gfzjxgki2d88xs18tr9fj3v,3xm0hyn6nocyzdzro7zfx8uutizpef,ONnijIcp,2020-0188,2021-10-14,19:51:46,23:06:01,NA,incomplete,false,true,NA,7,9,NA,yellow,n_l_062.jpg,NA,NA,unpleasant,pleasant,NA,NA,NA,NA,NA,right,1607.20000000298,true,NA,NA,NA,NA,NA
ONnijIcp,3o4vwc1gfzjxgki2d88xs18tr9fj3v,3xm0hyn6nocyzdzro7zfx8uutizpef,ONnijIcp,2020-0188,2021-10-14,19:51:46,23:06:01,NA,incomplete,false,true,NA,7,10,NA,yellow,n_s_010.jpg,NA,NA,unpleasant,pleasant,NA,NA,NA,NA,NA,left,1156.30000001192,true,NA,NA,NA,NA,NA
ONnijIcp,3o4vwc1gfzjxgki2d88xs18tr9fj3v,3xm0hyn6nocyzdzro7zfx8uutizpef,ONnijIcp,2020-0188,2021-10-14,19:51:46,23:06:01,NA,incomplete,false,true,NA,7,11,NA,yellow,m_s_034.jpg,NA,NA,pleasant,unpleasant,NA,NA,NA,NA,NA,left,2434.59999999404,true,NA,NA,NA,NA,NA
ONnijIcp,3o4vwc1gfzjxgki2d88xs18tr9fj3v,3xm0hyn6nocyzdzro7zfx8uutizpef,ONnijIcp,2020-0188,2021-10-14,19:51:46,23:06:01,NA,incomplete,false,true,NA,7,12,NA,blue,m_l_036.jpg,NA,NA,unpleasant,pleasant,NA,NA,NA,NA,NA,right,1151.70000000298,true,NA,NA,NA,NA,NA
ONnijIcp,3o4vwc1gfzjxgki2d88xs18tr9fj3v,3xm0hyn6nocyzdzro7zfx8uutizpef,ONnijIcp,2020-0188,2021-10-14,19:51:46,23:06:01,NA,incomplete,false,true,NA,7,13,NA,blue,n_s_021.jpg,NA,NA,pleasant,unpleasant,NA,NA,NA,NA,NA,left,1035.80000001192,true,NA,NA,NA,NA,NA
ONnijIcp,3o4vwc1gfzjxgki2d88xs18tr9fj3v,3xm0hyn6nocyzdzro7zfx8uutizpef,ONnijIcp,2020-0188,2021-10-14,19:51:46,23:06:01,NA,incomplete,false,true,NA,7,14,NA,blue,n_l_102.jpg,NA,NA,pleasant,unpleasant,NA,NA,NA,NA,NA,left,882.90000000596,true,NA,NA,NA,NA,NA
ONnijIcp,3o4vwc1gfzjxgki2d88xs18tr9fj3v,3xm0hyn6nocyzdzro7zfx8uutizpef,ONnijIcp,2020-0188,2021-10-14,19:51:46,23:06:01,NA,incomplete,false,true,NA,7,15,NA,blue,m_s_058.jpg,NA,NA,pleasant,unpleasant,NA,NA,NA,NA,NA,left,1240.20000000298,true,NA,NA,NA,NA,NA
ONnijIcp,3o4vwc1gfzjxgki2d88xs18tr9fj3v,3xm0hyn6nocyzdzro7zfx8uutizpef,ONnijIcp,2020-0188,2021-10-14,19:51:46,23:06:01,NA,incomplete,false,true,NA,7,16,NA,blue,m_l_056.jpg,NA,NA,pleasant,unpleasant,NA,NA,NA,NA,NA,left,1173.90000000596,true,NA,NA,NA,NA,NA
ONnijIcp,3o4vwc1gfzjxgki2d88xs18tr9fj3v,3xm0hyn6nocyzdzro7zfx8uutizpef,ONnijIcp,2020-0188,2021-10-14,19:51:46,23:06:01,NA,incomplete,false,true,NA,7,17,NA,blue,m_s_028.jpg,NA,NA,pleasant,unpleasant,NA,NA,NA,NA,NA,left,1099.39999999106,true,NA,NA,NA,NA,NA
ONnijIcp,3o4vwc1gfzjxgki2d88xs18tr9fj3v,3xm0hyn6nocyzdzro7zfx8uutizpef,ONnijIcp,2020-0188,2021-10-14,19:51:46,23:06:01,NA,incomplete,false,true,NA,7,18,NA,red,m_l_007.jpg,NA,NA,pleasant,unpleasant,NA,NA,NA,NA,NA,right,823.199999988079,true,NA,NA,NA,NA,NA
ONnijIcp,3o4vwc1gfzjxgki2d88xs18tr9fj3v,3xm0hyn6nocyzdzro7zfx8uutizpef,ONnijIcp,2020-0188,2021-10-14,19:51:46,23:06:01,NA,incomplete,false,true,NA,7,19,NA,red,m_l_064.jpg,NA,NA,unpleasant,pleasant,NA,NA,NA,NA,NA,right,1325.69999998808,true,NA,NA,NA,NA,NA
ONnijIcp,3o4vwc1gfzjxgki2d88xs18tr9fj3v,3xm0hyn6nocyzdzro7zfx8uutizpef,ONnijIcp,2020-0188,2021-10-14,19:51:46,23:06:01,NA,incomplete,false,true,NA,7,20,NA,red,n_l_110.jpg,NA,NA,pleasant,unpleasant,NA,NA,NA,NA,NA,left,733.09999999404,true,NA,NA,NA,NA,NA
ONnijIcp,3o4vwc1gfzjxgki2d88xs18tr9fj3v,3xm0hyn6nocyzdzro7zfx8uutizpef,ONnijIcp,2020-0188,2021-10-14,19:51:46,23:06:01,NA,incomplete,false,true,NA,7,21,NA,red,n_l_002.jpg,NA,NA,pleasant,unpleasant,NA,NA,NA,NA,NA,left,800.199999988079,true,NA,NA,NA,NA,NA
ONnijIcp,3o4vwc1gfzjxgki2d88xs18tr9fj3v,3xm0hyn6nocyzdzro7zfx8uutizpef,ONnijIcp,2020-0188,2021-10-14,19:51:46,23:06:01,NA,incomplete,false,true,NA,7,22,NA,red,m_l_061.jpg,NA,NA,pleasant,unpleasant,NA,NA,NA,NA,NA,left,1151,true,NA,NA,NA,NA,NA
ONnijIcp,3o4vwc1gfzjxgki2d88xs18tr9fj3v,3xm0hyn6nocyzdzro7zfx8uutizpef,ONnijIcp,2020-0188,2021-10-14,19:51:46,23:06:01,NA,incomplete,false,true,NA,7,23,NA,red,n_l_085.jpg,NA,NA,pleasant,unpleasant,NA,NA,NA,NA,NA,right,1748.70000000298,true,NA,NA,NA,NA,NA
ONnijIcp,3o4vwc1gfzjxgki2d88xs18tr9fj3v,3xm0hyn6nocyzdzro7zfx8uutizpef,ONnijIcp,2020-0188,2021-10-14,19:51:46,23:06:01,NA,incomplete,false,true,NA,7,24,NA,orange,m_l_015.jpg,NA,NA,unpleasant,pleasant,NA,NA,NA,NA,NA,left,923.29999999702,true,NA,NA,NA,NA,NA
ONnijIcp,3o4vwc1gfzjxgki2d88xs18tr9fj3v,3xm0hyn6nocyzdzro7zfx8uutizpef,ONnijIcp,2020-0188,2021-10-14,19:51:46,23:06:01,NA,incomplete,false,true,NA,7,25,NA,orange,n_l_050.jpg,NA,NA,pleasant,unpleasant,NA,NA,NA,NA,NA,right,1071.90000000596,true,NA,NA,NA,NA,NA
ONnijIcp,3o4vwc1gfzjxgki2d88xs18tr9fj3v,3xm0hyn6nocyzdzro7zfx8uutizpef,ONnijIcp,2020-0188,2021-10-14,19:51:46,23:06:01,NA,incomplete,false,true,NA,7,26,NA,orange,m_s_050.jpg,NA,NA,unpleasant,pleasant,NA,NA,NA,NA,NA,left,1469.10000000894,true,NA,NA,NA,NA,NA
ONnijIcp,3o4vwc1gfzjxgki2d88xs18tr9fj3v,3xm0hyn6nocyzdzro7zfx8uutizpef,ONnijIcp,2020-0188,2021-10-14,19:51:46,23:06:01,NA,incomplete,false,true,NA,7,27,NA,orange,n_l_076.jpg,NA,NA,unpleasant,pleasant,NA,NA,NA,NA,NA,left,1186.60000000894,true,NA,NA,NA,NA,NA
ONnijIcp,3o4vwc1gfzjxgki2d88xs18tr9fj3v,3xm0hyn6nocyzdzro7zfx8uutizpef,ONnijIcp,2020-0188,2021-10-14,19:51:46,23:06:01,NA,incomplete,false,true,NA,7,28,NA,orange,m_l_004.jpg,NA,NA,unpleasant,pleasant,NA,NA,NA,NA,NA,left,944.59999999404,true,NA,NA,NA,NA,NA
ONnijIcp,3o4vwc1gfzjxgki2d88xs18tr9fj3v,3xm0hyn6nocyzdzro7zfx8uutizpef,ONnijIcp,2020-0188,2021-10-14,19:51:46,23:06:01,NA,incomplete,false,true,NA,7,29,NA,orange,n_s_082.jpg,NA,NA,unpleasant,pleasant,NA,NA,NA,NA,NA,right,1078.40000000596,true,NA,NA,NA,NA,NA
ONnijIcp,3o4vwc1gfzjxgki2d88xs18tr9fj3v,3xm0hyn6nocyzdzro7zfx8uutizpef,ONnijIcp,2020-0188,2021-10-14,19:51:46,23:06:01,NA,incomplete,false,true,NA,7,30,NA,brown,n_l_029.jpg,NA,NA,pleasant,unpleasant,NA,NA,NA,NA,NA,left,892.70000000298,true,NA,NA,NA,NA,NA
ONnijIcp,3o4vwc1gfzjxgki2d88xs18tr9fj3v,3xm0hyn6nocyzdzro7zfx8uutizpef,ONnijIcp,2020-0188,2021-10-14,19:51:46,23:06:01,NA,incomplete,false,true,NA,7,31,NA,brown,n_l_117.jpg,NA,NA,unpleasant,pleasant,NA,NA,NA,NA,NA,right,1746.10000000894,true,NA,NA,NA,NA,NA
ONnijIcp,3o4vwc1gfzjxgki2d88xs18tr9fj3v,3xm0hyn6nocyzdzro7zfx8uutizpef,ONnijIcp,2020-0188,2021-10-14,19:51:46,23:06:01,NA,incomplete,false,true,NA,7,32,NA,brown,m_s_108.jpg,NA,NA,pleasant,unpleasant,NA,NA,NA,NA,NA,left,984.70000000298,true,NA,NA,NA,NA,NA
ONnijIcp,3o4vwc1gfzjxgki2d88xs18tr9fj3v,3xm0hyn6nocyzdzro7zfx8uutizpef,ONnijIcp,2020-0188,2021-10-14,19:51:46,23:06:01,NA,incomplete,false,true,NA,7,33,NA,brown,m_l_001.jpg,NA,NA,pleasant,unpleasant,NA,NA,NA,NA,NA,left,1045.29999999702,true,NA,NA,NA,NA,NA
ONnijIcp,3o4vwc1gfzjxgki2d88xs18tr9fj3v,3xm0hyn6nocyzdzro7zfx8uutizpef,ONnijIcp,2020-0188,2021-10-14,19:51:46,23:06:01,NA,incomplete,false,true,NA,7,34,NA,brown,m_s_116.jpg,NA,NA,pleasant,unpleasant,NA,NA,NA,NA,NA,left,1266.90000000596,true,NA,NA,NA,NA,NA
ONnijIcp,3o4vwc1gfzjxgki2d88xs18tr9fj3v,3xm0hyn6nocyzdzro7zfx8uutizpef,ONnijIcp,2020-0188,2021-10-14,19:51:46,23:06:01,NA,incomplete,false,true,NA,7,35,NA,brown,n_l_059.jpg,NA,NA,pleasant,unpleasant,NA,NA,NA,NA,NA,left,960.29999999702,true,NA,NA,NA,NA,NA
ONnijIcp,3o4vwc1gfzjxgki2d88xs18tr9fj3v,3xm0hyn6nocyzdzro7zfx8uutizpef,ONnijIcp,2020-0188,2021-10-14,19:51:46,23:06:01,NA,incomplete,false,NA,true,7,0,NA,NA,NA,right,absent,NA,NA,m_s_050.jpg,orange,m_l_061.jpg,red,between,NA,NaN,NA,right,3024.6000000089407,1,0,1579.7000000029802
ONnijIcp,3o4vwc1gfzjxgki2d88xs18tr9fj3v,3xm0hyn6nocyzdzro7zfx8uutizpef,ONnijIcp,2020-0188,2021-10-14,19:51:46,23:06:01,NA,incomplete,false,NA,true,7,1,NA,NA,NA,right,absent,NA,NA,m_s_108.jpg,brown,m_l_004.jpg,orange,between,NA,NaN,NA,right,3145.1000000089407,1,2,1399.0999999940395
ONnijIcp,3o4vwc1gfzjxgki2d88xs18tr9fj3v,3xm0hyn6nocyzdzro7zfx8uutizpef,ONnijIcp,2020-0188,2021-10-14,19:51:46,23:06:01,NA,incomplete,false,NA,true,7,2,NA,NA,NA,right,absent,NA,NA,n_l_085.jpg,red,m_l_064.jpg,red,within,NA,NaN,NA,left,23038.29999999702,0,2,1721
ONnijIcp,3o4vwc1gfzjxgki2d88xs18tr9fj3v,3xm0hyn6nocyzdzro7zfx8uutizpef,ONnijIcp,2020-0188,2021-10-14,19:51:46,23:06:01,NA,incomplete,false,NA,true,7,3,NA,NA,NA,right,absent,NA,NA,n_s_082.jpg,orange,n_l_050.jpg,orange,within,NA,NaN,NA,right,7240.5999999940395,1,1,1202.7999999970198
ONnijIcp,3o4vwc1gfzjxgki2d88xs18tr9fj3v,3xm0hyn6nocyzdzro7zfx8uutizpef,ONnijIcp,2020-0188,2021-10-14,19:51:46,23:06:01,NA,incomplete,false,NA,true,7,4,NA,NA,NA,right,absent,NA,NA,m_s_034.jpg,yellow,n_l_044.jpg,yellow,within,NA,NaN,NA,right,5431.399999991059,1,1,1437
ONnijIcp,3o4vwc1gfzjxgki2d88xs18tr9fj3v,3xm0hyn6nocyzdzro7zfx8uutizpef,ONnijIcp,2020-0188,2021-10-14,19:51:46,23:06:01,NA,incomplete,false,NA,true,7,5,NA,NA,NA,right,absent,NA,NA,n_l_026.jpg,gray,n_l_049.jpg,gray,within,NA,NaN,NA,right,2577.0999999940395,1,0,4071.3999999910593
ONnijIcp,3o4vwc1gfzjxgki2d88xs18tr9fj3v,3xm0hyn6nocyzdzro7zfx8uutizpef,ONnijIcp,2020-0188,2021-10-14,19:51:46,23:06:01,NA,incomplete,false,NA,true,7,6,NA,NA,NA,right,absent,NA,NA,m_s_028.jpg,blue,n_s_021.jpg,blue,within,NA,NaN,NA,right,3577.2999999970198,1,0,1453.2999999970198
ONnijIcp,3o4vwc1gfzjxgki2d88xs18tr9fj3v,3xm0hyn6nocyzdzro7zfx8uutizpef,ONnijIcp,2020-0188,2021-10-14,19:51:46,23:06:01,NA,incomplete,false,NA,true,7,7,NA,NA,NA,right,absent,NA,NA,n_l_059.jpg,brown,n_l_117.jpg,brown,within,NA,NaN,NA,right,3591.2999999970198,1,3,4291.9000000059605
ONnijIcp,3o4vwc1gfzjxgki2d88xs18tr9fj3v,3xm0hyn6nocyzdzro7zfx8uutizpef,ONnijIcp,2020-0188,2021-10-14,19:51:46,23:06:01,NA,incomplete,false,NA,true,7,8,NA,NA,NA,left,absent,NA,NA,n_s_010.jpg,yellow,n_l_102.jpg,blue,between,NA,NaN,NA,right,12752.70000000298,0,1,1595.2999999970198
ONnijIcp,3o4vwc1gfzjxgki2d88xs18tr9fj3v,3xm0hyn6nocyzdzro7zfx8uutizpef,ONnijIcp,2020-0188,2021-10-14,19:51:46,23:06:01,NA,incomplete,false,NA,true,7,9,NA,NA,NA,left,absent,NA,NA,n_s_050.jpg,gray,n_l_093.jpg,yellow,between,NA,NaN,NA,left,5149.899999991059,1,1,1266
ONnijIcp,3o4vwc1gfzjxgki2d88xs18tr9fj3v,3xm0hyn6nocyzdzro7zfx8uutizpef,ONnijIcp,2020-0188,2021-10-14,19:51:46,23:06:01,NA,incomplete,false,NA,true,7,10,NA,NA,NA,right,absent,NA,NA,n_l_110.jpg,red,m_l_056.jpg,blue,between,NA,NaN,NA,right,2744,1,1,1321.2000000029802
ONnijIcp,3o4vwc1gfzjxgki2d88xs18tr9fj3v,3xm0hyn6nocyzdzro7zfx8uutizpef,ONnijIcp,2020-0188,2021-10-14,19:51:46,23:06:01,NA,incomplete,false,true,NA,8,0,NA,orange,m_s_016.jpg,NA,NA,unpleasant,pleasant,NA,NA,NA,NA,NA,right,1116.20000000298,true,NA,NA,NA,NA,NA
ONnijIcp,3o4vwc1gfzjxgki2d88xs18tr9fj3v,3xm0hyn6nocyzdzro7zfx8uutizpef,ONnijIcp,2020-0188,2021-10-14,19:51:46,23:06:01,NA,incomplete,false,true,NA,8,1,NA,orange,n_l_021.jpg,NA,NA,unpleasant,pleasant,NA,NA,NA,NA,NA,right,922,true,NA,NA,NA,NA,NA
ONnijIcp,3o4vwc1gfzjxgki2d88xs18tr9fj3v,3xm0hyn6nocyzdzro7zfx8uutizpef,ONnijIcp,2020-0188,2021-10-14,19:51:46,23:06:01,NA,incomplete,false,true,NA,8,2,NA,orange,m_s_051.jpg,NA,NA,pleasant,unpleasant,NA,NA,NA,NA,NA,left,1416,true,NA,NA,NA,NA,NA
ONnijIcp,3o4vwc1gfzjxgki2d88xs18tr9fj3v,3xm0hyn6nocyzdzro7zfx8uutizpef,ONnijIcp,2020-0188,2021-10-14,19:51:46,23:06:01,NA,incomplete,false,true,NA,8,3,NA,orange,m_l_106.jpg,NA,NA,unpleasant,pleasant,NA,NA,NA,NA,NA,right,948.09999999404,true,NA,NA,NA,NA,NA
ONnijIcp,3o4vwc1gfzjxgki2d88xs18tr9fj3v,3xm0hyn6nocyzdzro7zfx8uutizpef,ONnijIcp,2020-0188,2021-10-14,19:51:46,23:06:01,NA,incomplete,false,true,NA,8,4,NA,orange,n_l_047.jpg,NA,NA,pleasant,unpleasant,NA,NA,NA,NA,NA,left,1483.20000000298,true,NA,NA,NA,NA,NA
ONnijIcp,3o4vwc1gfzjxgki2d88xs18tr9fj3v,3xm0hyn6nocyzdzro7zfx8uutizpef,ONnijIcp,2020-0188,2021-10-14,19:51:46,23:06:01,NA,incomplete,false,true,NA,8,5,NA,orange,n_l_030.jpg,NA,NA,pleasant,unpleasant,NA,NA,NA,NA,NA,right,1360.5,true,NA,NA,NA,NA,NA
ONnijIcp,3o4vwc1gfzjxgki2d88xs18tr9fj3v,3xm0hyn6nocyzdzro7zfx8uutizpef,ONnijIcp,2020-0188,2021-10-14,19:51:46,23:06:01,NA,incomplete,false,true,NA,8,6,NA,brown,m_s_046.jpg,NA,NA,unpleasant,pleasant,NA,NA,NA,NA,NA,left,871,true,NA,NA,NA,NA,NA
ONnijIcp,3o4vwc1gfzjxgki2d88xs18tr9fj3v,3xm0hyn6nocyzdzro7zfx8uutizpef,ONnijIcp,2020-0188,2021-10-14,19:51:46,23:06:01,NA,incomplete,false,true,NA,8,7,NA,brown,n_s_032.jpg,NA,NA,pleasant,unpleasant,NA,NA,NA,NA,NA,left,1563.89999999106,true,NA,NA,NA,NA,NA
ONnijIcp,3o4vwc1gfzjxgki2d88xs18tr9fj3v,3xm0hyn6nocyzdzro7zfx8uutizpef,ONnijIcp,2020-0188,2021-10-14,19:51:46,23:06:01,NA,incomplete,false,true,NA,8,8,NA,brown,m_l_105.jpg,NA,NA,pleasant,unpleasant,NA,NA,NA,NA,NA,left,1073.10000000894,true,NA,NA,NA,NA,NA
ONnijIcp,3o4vwc1gfzjxgki2d88xs18tr9fj3v,3xm0hyn6nocyzdzro7zfx8uutizpef,ONnijIcp,2020-0188,2021-10-14,19:51:46,23:06:01,NA,incomplete,false,true,NA,8,9,NA,brown,n_l_056.jpg,NA,NA,unpleasant,pleasant,NA,NA,NA,NA,NA,right,1734.39999999106,true,NA,NA,NA,NA,NA
