workerId,hitId,assignmentId,subject,studyid,exp_date,exp_start,exp_end,time_start,time_end,practice,encoding,memory,block,trial,event_order,event,stim,answer,context_type,label_left,label_right,left_image,left_event,right_image,right_event,condition,response,response_time,response_acc,order_response,order_response_time,order_acc,distance_response,distance_response_time
piamzC27,33tgb4g0msu3alll9rtp1nk6wbyxtf,3ochawuvgsx6umts6kkzpgt2fh9kxt,piamzC27,2020-0188,2021-10-15,13:36:45,14:39:53,NA,incomplete,true,true,NA,0,0,NA,red,n_l_090.jpg,NA,NA,pleasant,unpleasant,NA,NA,NA,NA,NA,none,0,false,NA,NA,NA,NA,NA
piamzC27,33tgb4g0msu3alll9rtp1nk6wbyxtf,3ochawuvgsx6umts6kkzpgt2fh9kxt,piamzC27,2020-0188,2021-10-15,13:36:45,14:39:53,NA,incomplete,true,true,NA,0,1,NA,red,n_s_041.jpg,NA,NA,unpleasant,pleasant,NA,NA,NA,NA,NA,left,1963.89999985695,true,NA,NA,NA,NA,NA
piamzC27,33tgb4g0msu3alll9rtp1nk6wbyxtf,3ochawuvgsx6umts6kkzpgt2fh9kxt,piamzC27,2020-0188,2021-10-15,13:36:45,14:39:53,NA,incomplete,true,true,NA,0,2,NA,red,n_s_094.jpg,NA,NA,pleasant,unpleasant,NA,NA,NA,NA,NA,left,2854.30000019073,true,NA,NA,NA,NA,NA
piamzC27,33tgb4g0msu3alll9rtp1nk6wbyxtf,3ochawuvgsx6umts6kkzpgt2fh9kxt,piamzC27,2020-0188,2021-10-15,13:36:45,14:39:53,NA,incomplete,true,true,NA,0,3,NA,red,n_s_050.jpg,NA,NA,unpleasant,pleasant,NA,NA,NA,NA,NA,right,2591.20000004768,true,NA,NA,NA,NA,NA
piamzC27,33tgb4g0msu3alll9rtp1nk6wbyxtf,3ochawuvgsx6umts6kkzpgt2fh9kxt,piamzC27,2020-0188,2021-10-15,13:36:45,14:39:53,NA,incomplete,true,true,NA,0,4,NA,red,n_s_042.jpg,NA,NA,unpleasant,pleasant,NA,NA,NA,NA,NA,left,2321.20000004768,true,NA,NA,NA,NA,NA
piamzC27,33tgb4g0msu3alll9rtp1nk6wbyxtf,3ochawuvgsx6umts6kkzpgt2fh9kxt,piamzC27,2020-0188,2021-10-15,13:36:45,14:39:53,NA,incomplete,true,true,NA,0,5,NA,red,m_s_080.jpg,NA,NA,pleasant,unpleasant,NA,NA,NA,NA,NA,left,1660.60000014305,true,NA,NA,NA,NA,NA
piamzC27,33tgb4g0msu3alll9rtp1nk6wbyxtf,3ochawuvgsx6umts6kkzpgt2fh9kxt,piamzC27,2020-0188,2021-10-15,13:36:45,14:39:53,NA,incomplete,true,true,NA,0,6,NA,brown,n_l_062.jpg,NA,NA,unpleasant,pleasant,NA,NA,NA,NA,NA,right,2230,true,NA,NA,NA,NA,NA
piamzC27,33tgb4g0msu3alll9rtp1nk6wbyxtf,3ochawuvgsx6umts6kkzpgt2fh9kxt,piamzC27,2020-0188,2021-10-15,13:36:45,14:39:53,NA,incomplete,true,true,NA,0,7,NA,brown,n_l_041.jpg,NA,NA,unpleasant,pleasant,NA,NA,NA,NA,NA,right,1968.10000014305,true,NA,NA,NA,NA,NA
piamzC27,33tgb4g0msu3alll9rtp1nk6wbyxtf,3ochawuvgsx6umts6kkzpgt2fh9kxt,piamzC27,2020-0188,2021-10-15,13:36:45,14:39:53,NA,incomplete,true,true,NA,0,8,NA,brown,n_s_015.jpg,NA,NA,unpleasant,pleasant,NA,NA,NA,NA,NA,right,2212.10000014305,true,NA,NA,NA,NA,NA
piamzC27,33tgb4g0msu3alll9rtp1nk6wbyxtf,3ochawuvgsx6umts6kkzpgt2fh9kxt,piamzC27,2020-0188,2021-10-15,13:36:45,14:39:53,NA,incomplete,true,true,NA,0,9,NA,brown,n_s_037.jpg,NA,NA,pleasant,unpleasant,NA,NA,NA,NA,NA,left,2885.29999995232,true,NA,NA,NA,NA,NA
piamzC27,33tgb4g0msu3alll9rtp1nk6wbyxtf,3ochawuvgsx6umts6kkzpgt2fh9kxt,piamzC27,2020-0188,2021-10-15,13:36:45,14:39:53,NA,incomplete,true,true,NA,0,10,NA,brown,m_s_096.jpg,NA,NA,pleasant,unpleasant,NA,NA,NA,NA,NA,left,1511.40000009537,true,NA,NA,NA,NA,NA
piamzC27,33tgb4g0msu3alll9rtp1nk6wbyxtf,3ochawuvgsx6umts6kkzpgt2fh9kxt,piamzC27,2020-0188,2021-10-15,13:36:45,14:39:53,NA,incomplete,true,true,NA,0,11,NA,brown,m_s_044.jpg,NA,NA,unpleasant,pleasant,NA,NA,NA,NA,NA,left,1643.39999985695,true,NA,NA,NA,NA,NA
piamzC27,33tgb4g0msu3alll9rtp1nk6wbyxtf,3ochawuvgsx6umts6kkzpgt2fh9kxt,piamzC27,2020-0188,2021-10-15,13:36:45,14:39:53,NA,incomplete,true,true,NA,0,12,NA,yellow,n_l_058.jpg,NA,NA,pleasant,unpleasant,NA,NA,NA,NA,NA,left,1556.60000014305,true,NA,NA,NA,NA,NA
piamzC27,33tgb4g0msu3alll9rtp1nk6wbyxtf,3ochawuvgsx6umts6kkzpgt2fh9kxt,piamzC27,2020-0188,2021-10-15,13:36:45,14:39:53,NA,incomplete,true,true,NA,0,13,NA,yellow,m_l_057.jpg,NA,NA,unpleasant,pleasant,NA,NA,NA,NA,NA,right,1838.5,true,NA,NA,NA,NA,NA
piamzC27,33tgb4g0msu3alll9rtp1nk6wbyxtf,3ochawuvgsx6umts6kkzpgt2fh9kxt,piamzC27,2020-0188,2021-10-15,13:36:45,14:39:53,NA,incomplete,true,true,NA,0,14,NA,yellow,n_l_049.jpg,NA,NA,unpleasant,pleasant,NA,NA,NA,NA,NA,left,1313.40000009537,true,NA,NA,NA,NA,NA
piamzC27,33tgb4g0msu3alll9rtp1nk6wbyxtf,3ochawuvgsx6umts6kkzpgt2fh9kxt,piamzC27,2020-0188,2021-10-15,13:36:45,14:39:53,NA,incomplete,true,true,NA,0,15,NA,yellow,n_s_025.jpg,NA,NA,pleasant,unpleasant,NA,NA,NA,NA,NA,right,1802.5,true,NA,NA,NA,NA,NA
piamzC27,33tgb4g0msu3alll9rtp1nk6wbyxtf,3ochawuvgsx6umts6kkzpgt2fh9kxt,piamzC27,2020-0188,2021-10-15,13:36:45,14:39:53,NA,incomplete,true,true,NA,0,16,NA,yellow,m_l_053.jpg,NA,NA,unpleasant,pleasant,NA,NA,NA,NA,NA,right,1444.40000009537,true,NA,NA,NA,NA,NA
piamzC27,33tgb4g0msu3alll9rtp1nk6wbyxtf,3ochawuvgsx6umts6kkzpgt2fh9kxt,piamzC27,2020-0188,2021-10-15,13:36:45,14:39:53,NA,incomplete,true,true,NA,0,17,NA,yellow,m_s_041.jpg,NA,NA,pleasant,unpleasant,NA,NA,NA,NA,NA,left,1592.20000004768,true,NA,NA,NA,NA,NA
piamzC27,33tgb4g0msu3alll9rtp1nk6wbyxtf,3ochawuvgsx6umts6kkzpgt2fh9kxt,piamzC27,2020-0188,2021-10-15,13:36:45,14:39:53,NA,incomplete,true,true,NA,0,18,NA,purple,n_s_020.jpg,NA,NA,unpleasant,pleasant,NA,NA,NA,NA,NA,left,1761.29999995232,true,NA,NA,NA,NA,NA
piamzC27,33tgb4g0msu3alll9rtp1nk6wbyxtf,3ochawuvgsx6umts6kkzpgt2fh9kxt,piamzC27,2020-0188,2021-10-15,13:36:45,14:39:53,NA,incomplete,true,true,NA,0,19,NA,purple,m_s_042.jpg,NA,NA,pleasant,unpleasant,NA,NA,NA,NA,NA,left,1931.79999995232,true,NA,NA,NA,NA,NA
piamzC27,33tgb4g0msu3alll9rtp1nk6wbyxtf,3ochawuvgsx6umts6kkzpgt2fh9kxt,piamzC27,2020-0188,2021-10-15,13:36:45,14:39:53,NA,incomplete,true,true,NA,0,20,NA,purple,m_l_048.jpg,NA,NA,pleasant,unpleasant,NA,NA,NA,NA,NA,left,2615.59999990463,true,NA,NA,NA,NA,NA
piamzC27,33tgb4g0msu3alll9rtp1nk6wbyxtf,3ochawuvgsx6umts6kkzpgt2fh9kxt,piamzC27,2020-0188,2021-10-15,13:36:45,14:39:53,NA,incomplete,true,true,NA,0,21,NA,purple,n_l_037.jpg,NA,NA,pleasant,unpleasant,NA,NA,NA,NA,NA,right,1048.70000004768,true,NA,NA,NA,NA,NA
piamzC27,33tgb4g0msu3alll9rtp1nk6wbyxtf,3ochawuvgsx6umts6kkzpgt2fh9kxt,piamzC27,2020-0188,2021-10-15,13:36:45,14:39:53,NA,incomplete,true,true,NA,0,22,NA,purple,n_l_071.jpg,NA,NA,pleasant,unpleasant,NA,NA,NA,NA,NA,right,1642.5,true,NA,NA,NA,NA,NA
piamzC27,33tgb4g0msu3alll9rtp1nk6wbyxtf,3ochawuvgsx6umts6kkzpgt2fh9kxt,piamzC27,2020-0188,2021-10-15,13:36:45,14:39:53,NA,incomplete,true,true,NA,0,23,NA,purple,m_s_020.jpg,NA,NA,pleasant,unpleasant,NA,NA,NA,NA,NA,left,1223,true,NA,NA,NA,NA,NA
piamzC27,33tgb4g0msu3alll9rtp1nk6wbyxtf,3ochawuvgsx6umts6kkzpgt2fh9kxt,piamzC27,2020-0188,2021-10-15,13:36:45,14:39:53,NA,incomplete,true,true,NA,0,24,NA,white,m_l_085.jpg,NA,NA,pleasant,unpleasant,NA,NA,NA,NA,NA,left,1871.29999995232,true,NA,NA,NA,NA,NA
piamzC27,33tgb4g0msu3alll9rtp1nk6wbyxtf,3ochawuvgsx6umts6kkzpgt2fh9kxt,piamzC27,2020-0188,2021-10-15,13:36:45,14:39:53,NA,incomplete,true,true,NA,0,25,NA,white,m_l_103.jpg,NA,NA,unpleasant,pleasant,NA,NA,NA,NA,NA,right,2025.5,true,NA,NA,NA,NA,NA
piamzC27,33tgb4g0msu3alll9rtp1nk6wbyxtf,3ochawuvgsx6umts6kkzpgt2fh9kxt,piamzC27,2020-0188,2021-10-15,13:36:45,14:39:53,NA,incomplete,true,true,NA,0,26,NA,white,n_s_071.jpg,NA,NA,pleasant,unpleasant,NA,NA,NA,NA,NA,right,1445.09999990463,true,NA,NA,NA,NA,NA
piamzC27,33tgb4g0msu3alll9rtp1nk6wbyxtf,3ochawuvgsx6umts6kkzpgt2fh9kxt,piamzC27,2020-0188,2021-10-15,13:36:45,14:39:53,NA,incomplete,true,true,NA,0,27,NA,white,m_s_115.jpg,NA,NA,unpleasant,pleasant,NA,NA,NA,NA,NA,right,1452.90000009537,true,NA,NA,NA,NA,NA
piamzC27,33tgb4g0msu3alll9rtp1nk6wbyxtf,3ochawuvgsx6umts6kkzpgt2fh9kxt,piamzC27,2020-0188,2021-10-15,13:36:45,14:39:53,NA,incomplete,true,true,NA,0,28,NA,white,m_s_112.jpg,NA,NA,unpleasant,pleasant,NA,NA,NA,NA,NA,left,1424,true,NA,NA,NA,NA,NA
piamzC27,33tgb4g0msu3alll9rtp1nk6wbyxtf,3ochawuvgsx6umts6kkzpgt2fh9kxt,piamzC27,2020-0188,2021-10-15,13:36:45,14:39:53,NA,incomplete,true,true,NA,0,29,NA,white,m_l_060.jpg,NA,NA,unpleasant,pleasant,NA,NA,NA,NA,NA,left,1698.90000009537,true,NA,NA,NA,NA,NA
piamzC27,33tgb4g0msu3alll9rtp1nk6wbyxtf,3ochawuvgsx6umts6kkzpgt2fh9kxt,piamzC27,2020-0188,2021-10-15,13:36:45,14:39:53,NA,incomplete,true,true,NA,0,30,NA,blue,n_s_019.jpg,NA,NA,pleasant,unpleasant,NA,NA,NA,NA,NA,right,1924.09999990463,true,NA,NA,NA,NA,NA
piamzC27,33tgb4g0msu3alll9rtp1nk6wbyxtf,3ochawuvgsx6umts6kkzpgt2fh9kxt,piamzC27,2020-0188,2021-10-15,13:36:45,14:39:53,NA,incomplete,true,true,NA,0,31,NA,blue,n_l_056.jpg,NA,NA,pleasant,unpleasant,NA,NA,NA,NA,NA,right,1461.90000009537,true,NA,NA,NA,NA,NA
piamzC27,33tgb4g0msu3alll9rtp1nk6wbyxtf,3ochawuvgsx6umts6kkzpgt2fh9kxt,piamzC27,2020-0188,2021-10-15,13:36:45,14:39:53,NA,incomplete,true,true,NA,0,32,NA,blue,m_l_099.jpg,NA,NA,pleasant,unpleasant,NA,NA,NA,NA,NA,left,2713.90000009537,true,NA,NA,NA,NA,NA
piamzC27,33tgb4g0msu3alll9rtp1nk6wbyxtf,3ochawuvgsx6umts6kkzpgt2fh9kxt,piamzC27,2020-0188,2021-10-15,13:36:45,14:39:53,NA,incomplete,true,true,NA,0,33,NA,blue,m_s_031.jpg,NA,NA,pleasant,unpleasant,NA,NA,NA,NA,NA,left,1098.80000019073,true,NA,NA,NA,NA,NA
piamzC27,33tgb4g0msu3alll9rtp1nk6wbyxtf,3ochawuvgsx6umts6kkzpgt2fh9kxt,piamzC27,2020-0188,2021-10-15,13:36:45,14:39:53,NA,incomplete,true,true,NA,0,34,NA,blue,n_l_076.jpg,NA,NA,unpleasant,pleasant,NA,NA,NA,NA,NA,left,1597.29999995232,true,NA,NA,NA,NA,NA
piamzC27,33tgb4g0msu3alll9rtp1nk6wbyxtf,3ochawuvgsx6umts6kkzpgt2fh9kxt,piamzC27,2020-0188,2021-10-15,13:36:45,14:39:53,NA,incomplete,true,true,NA,0,35,NA,blue,n_l_050.jpg,NA,NA,pleasant,unpleasant,NA,NA,NA,NA,NA,right,1385,true,NA,NA,NA,NA,NA
piamzC27,33tgb4g0msu3alll9rtp1nk6wbyxtf,3ochawuvgsx6umts6kkzpgt2fh9kxt,piamzC27,2020-0188,2021-10-15,13:36:45,14:39:53,NA,incomplete,true,NA,true,0,0,NA,NA,NA,left,present,NA,NA,m_s_042.jpg,purple,m_s_020.jpg,purple,within,NA,NaN,NA,left,8942.799999952316,1,1,4095.399999856949
piamzC27,33tgb4g0msu3alll9rtp1nk6wbyxtf,3ochawuvgsx6umts6kkzpgt2fh9kxt,piamzC27,2020-0188,2021-10-15,13:36:45,14:39:53,NA,incomplete,true,NA,true,0,1,NA,NA,NA,right,absent,NA,NA,m_l_060.jpg,white,m_l_103.jpg,white,within,NA,NaN,NA,left,4631.200000047684,0,1,1455.2000000476837
piamzC27,33tgb4g0msu3alll9rtp1nk6wbyxtf,3ochawuvgsx6umts6kkzpgt2fh9kxt,piamzC27,2020-0188,2021-10-15,13:36:45,14:39:53,NA,incomplete,true,NA,true,0,2,NA,NA,NA,left,present,NA,NA,n_s_041.jpg,red,m_s_080.jpg,red,within,NA,NaN,NA,left,6255.299999952316,1,1,1551.2999999523163
piamzC27,33tgb4g0msu3alll9rtp1nk6wbyxtf,3ochawuvgsx6umts6kkzpgt2fh9kxt,piamzC27,2020-0188,2021-10-15,13:36:45,14:39:53,NA,incomplete,true,NA,true,0,3,NA,NA,NA,left,absent,NA,NA,n_l_041.jpg,brown,m_s_044.jpg,brown,within,NA,NaN,NA,left,7215.400000095367,1,1,1735.3000001907349
piamzC27,33tgb4g0msu3alll9rtp1nk6wbyxtf,3ochawuvgsx6umts6kkzpgt2fh9kxt,piamzC27,2020-0188,2021-10-15,13:36:45,14:39:53,NA,incomplete,true,NA,true,0,4,NA,NA,NA,right,absent,NA,NA,n_l_050.jpg,blue,n_l_056.jpg,blue,within,NA,NaN,NA,right,3927.5,1,1,1191.3000001907349
piamzC27,33tgb4g0msu3alll9rtp1nk6wbyxtf,3ochawuvgsx6umts6kkzpgt2fh9kxt,piamzC27,2020-0188,2021-10-15,13:36:45,14:39:53,NA,incomplete,true,NA,true,0,5,NA,NA,NA,right,absent,NA,NA,m_s_041.jpg,yellow,m_l_057.jpg,yellow,within,NA,NaN,NA,right,4663.200000047684,1,1,1207.3000001907349
piamzC27,33tgb4g0msu3alll9rtp1nk6wbyxtf,3ochawuvgsx6umts6kkzpgt2fh9kxt,piamzC27,2020-0188,2021-10-15,13:36:45,14:39:53,NA,incomplete,true,NA,true,0,6,NA,NA,NA,right,present,NA,NA,n_s_015.jpg,brown,n_s_042.jpg,red,between,NA,NaN,NA,right,3639,1,2,1095.2000000476837
piamzC27,33tgb4g0msu3alll9rtp1nk6wbyxtf,3ochawuvgsx6umts6kkzpgt2fh9kxt,piamzC27,2020-0188,2021-10-15,13:36:45,14:39:53,NA,incomplete,true,NA,true,0,7,NA,NA,NA,right,absent,NA,NA,m_l_099.jpg,blue,m_s_112.jpg,white,between,NA,NaN,NA,left,4175.300000190735,0,2,1903.3000001907349
piamzC27,33tgb4g0msu3alll9rtp1nk6wbyxtf,3ochawuvgsx6umts6kkzpgt2fh9kxt,piamzC27,2020-0188,2021-10-15,13:36:45,14:39:53,NA,incomplete,true,NA,true,0,8,NA,NA,NA,right,absent,NA,NA,n_s_071.jpg,white,n_l_071.jpg,purple,between,NA,NaN,NA,right,4679.299999952316,1,3,2079.2999999523163
piamzC27,33tgb4g0msu3alll9rtp1nk6wbyxtf,3ochawuvgsx6umts6kkzpgt2fh9kxt,piamzC27,2020-0188,2021-10-15,13:36:45,14:39:53,NA,incomplete,true,NA,true,0,9,NA,NA,NA,left,absent,NA,NA,m_l_053.jpg,yellow,m_l_048.jpg,purple,between,NA,NaN,NA,left,2671.5,1,2,1751.2999999523163
piamzC27,33tgb4g0msu3alll9rtp1nk6wbyxtf,3ochawuvgsx6umts6kkzpgt2fh9kxt,piamzC27,2020-0188,2021-10-15,13:36:45,14:39:53,NA,incomplete,true,NA,true,0,10,NA,NA,NA,right,absent,NA,NA,n_l_049.jpg,yellow,m_s_096.jpg,brown,between,NA,NaN,NA,right,5783.299999952316,1,2,1511.5
piamzC27,33tgb4g0msu3alll9rtp1nk6wbyxtf,3ochawuvgsx6umts6kkzpgt2fh9kxt,piamzC27,2020-0188,2021-10-15,13:36:45,14:39:53,NA,incomplete,false,true,NA,1,0,NA,brown,n_l_096.jpg,NA,NA,pleasant,unpleasant,NA,NA,NA,NA,NA,left,1745.30000019073,true,NA,NA,NA,NA,NA
piamzC27,33tgb4g0msu3alll9rtp1nk6wbyxtf,3ochawuvgsx6umts6kkzpgt2fh9kxt,piamzC27,2020-0188,2021-10-15,13:36:45,14:39:53,NA,incomplete,false,true,NA,1,1,NA,brown,n_l_065.jpg,NA,NA,unpleasant,pleasant,NA,NA,NA,NA,NA,right,2107.39999985695,true,NA,NA,NA,NA,NA
piamzC27,33tgb4g0msu3alll9rtp1nk6wbyxtf,3ochawuvgsx6umts6kkzpgt2fh9kxt,piamzC27,2020-0188,2021-10-15,13:36:45,14:39:53,NA,incomplete,false,true,NA,1,2,NA,brown,m_s_090.jpg,NA,NA,pleasant,unpleasant,NA,NA,NA,NA,NA,right,1726.79999995232,true,NA,NA,NA,NA,NA
piamzC27,33tgb4g0msu3alll9rtp1nk6wbyxtf,3ochawuvgsx6umts6kkzpgt2fh9kxt,piamzC27,2020-0188,2021-10-15,13:36:45,14:39:53,NA,incomplete,false,true,NA,1,3,NA,brown,n_l_097.jpg,NA,NA,pleasant,unpleasant,NA,NA,NA,NA,NA,left,1759.69999980927,true,NA,NA,NA,NA,NA
piamzC27,33tgb4g0msu3alll9rtp1nk6wbyxtf,3ochawuvgsx6umts6kkzpgt2fh9kxt,piamzC27,2020-0188,2021-10-15,13:36:45,14:39:53,NA,incomplete,false,true,NA,1,4,NA,brown,m_l_082.jpg,NA,NA,pleasant,unpleasant,NA,NA,NA,NA,NA,left,1762.29999995232,true,NA,NA,NA,NA,NA
piamzC27,33tgb4g0msu3alll9rtp1nk6wbyxtf,3ochawuvgsx6umts6kkzpgt2fh9kxt,piamzC27,2020-0188,2021-10-15,13:36:45,14:39:53,NA,incomplete,false,true,NA,1,5,NA,brown,n_l_007.jpg,NA,NA,pleasant,unpleasant,NA,NA,NA,NA,NA,right,1685.79999995232,true,NA,NA,NA,NA,NA
piamzC27,33tgb4g0msu3alll9rtp1nk6wbyxtf,3ochawuvgsx6umts6kkzpgt2fh9kxt,piamzC27,2020-0188,2021-10-15,13:36:45,14:39:53,NA,incomplete,false,true,NA,1,6,NA,white,m_l_051.jpg,NA,NA,pleasant,unpleasant,NA,NA,NA,NA,NA,left,2046.30000019073,true,NA,NA,NA,NA,NA
piamzC27,33tgb4g0msu3alll9rtp1nk6wbyxtf,3ochawuvgsx6umts6kkzpgt2fh9kxt,piamzC27,2020-0188,2021-10-15,13:36:45,14:39:53,NA,incomplete,false,true,NA,1,7,NA,white,m_s_081.jpg,NA,NA,pleasant,unpleasant,NA,NA,NA,NA,NA,left,1472.70000004768,true,NA,NA,NA,NA,NA
piamzC27,33tgb4g0msu3alll9rtp1nk6wbyxtf,3ochawuvgsx6umts6kkzpgt2fh9kxt,piamzC27,2020-0188,2021-10-15,13:36:45,14:39:53,NA,incomplete,false,true,NA,1,8,NA,white,n_s_068.jpg,NA,NA,pleasant,unpleasant,NA,NA,NA,NA,NA,right,1372.5,true,NA,NA,NA,NA,NA
piamzC27,33tgb4g0msu3alll9rtp1nk6wbyxtf,3ochawuvgsx6umts6kkzpgt2fh9kxt,piamzC27,2020-0188,2021-10-15,13:36:45,14:39:53,NA,incomplete,false,true,NA,1,9,NA,white,n_s_024.jpg,NA,NA,pleasant,unpleasant,NA,NA,NA,NA,NA,right,1860.40000009537,true,NA,NA,NA,NA,NA
piamzC27,33tgb4g0msu3alll9rtp1nk6wbyxtf,3ochawuvgsx6umts6kkzpgt2fh9kxt,piamzC27,2020-0188,2021-10-15,13:36:45,14:39:53,NA,incomplete,false,true,NA,1,10,NA,white,n_l_075.jpg,NA,NA,unpleasant,pleasant,NA,NA,NA,NA,NA,right,2592.09999990463,true,NA,NA,NA,NA,NA
piamzC27,33tgb4g0msu3alll9rtp1nk6wbyxtf,3ochawuvgsx6umts6kkzpgt2fh9kxt,piamzC27,2020-0188,2021-10-15,13:36:45,14:39:53,NA,incomplete,false,true,NA,1,11,NA,white,m_s_088.jpg,NA,NA,unpleasant,pleasant,NA,NA,NA,NA,NA,right,1649.40000009537,true,NA,NA,NA,NA,NA
piamzC27,33tgb4g0msu3alll9rtp1nk6wbyxtf,3ochawuvgsx6umts6kkzpgt2fh9kxt,piamzC27,2020-0188,2021-10-15,13:36:45,14:39:53,NA,incomplete,false,true,NA,1,12,NA,yellow,n_l_102.jpg,NA,NA,unpleasant,pleasant,NA,NA,NA,NA,NA,right,2387.70000004768,true,NA,NA,NA,NA,NA
piamzC27,33tgb4g0msu3alll9rtp1nk6wbyxtf,3ochawuvgsx6umts6kkzpgt2fh9kxt,piamzC27,2020-0188,2021-10-15,13:36:45,14:39:53,NA,incomplete,false,true,NA,1,13,NA,yellow,n_l_054.jpg,NA,NA,unpleasant,pleasant,NA,NA,NA,NA,NA,left,1974.89999985695,true,NA,NA,NA,NA,NA
piamzC27,33tgb4g0msu3alll9rtp1nk6wbyxtf,3ochawuvgsx6umts6kkzpgt2fh9kxt,piamzC27,2020-0188,2021-10-15,13:36:45,14:39:53,NA,incomplete,false,true,NA,1,14,NA,yellow,n_s_043.jpg,NA,NA,unpleasant,pleasant,NA,NA,NA,NA,NA,left,2552.20000004768,true,NA,NA,NA,NA,NA
piamzC27,33tgb4g0msu3alll9rtp1nk6wbyxtf,3ochawuvgsx6umts6kkzpgt2fh9kxt,piamzC27,2020-0188,2021-10-15,13:36:45,14:39:53,NA,incomplete,false,true,NA,1,15,NA,yellow,n_s_089.jpg,NA,NA,unpleasant,pleasant,NA,NA,NA,NA,NA,left,1649.79999995232,true,NA,NA,NA,NA,NA
piamzC27,33tgb4g0msu3alll9rtp1nk6wbyxtf,3ochawuvgsx6umts6kkzpgt2fh9kxt,piamzC27,2020-0188,2021-10-15,13:36:45,14:39:53,NA,incomplete,false,true,NA,1,16,NA,yellow,m_s_032.jpg,NA,NA,unpleasant,pleasant,NA,NA,NA,NA,NA,left,1796.39999985695,true,NA,NA,NA,NA,NA
piamzC27,33tgb4g0msu3alll9rtp1nk6wbyxtf,3ochawuvgsx6umts6kkzpgt2fh9kxt,piamzC27,2020-0188,2021-10-15,13:36:45,14:39:53,NA,incomplete,false,true,NA,1,17,NA,yellow,m_s_062.jpg,NA,NA,unpleasant,pleasant,NA,NA,NA,NA,NA,left,1382.79999995232,true,NA,NA,NA,NA,NA
piamzC27,33tgb4g0msu3alll9rtp1nk6wbyxtf,3ochawuvgsx6umts6kkzpgt2fh9kxt,piamzC27,2020-0188,2021-10-15,13:36:45,14:39:53,NA,incomplete,false,true,NA,1,18,NA,gray,m_s_066.jpg,NA,NA,unpleasant,pleasant,NA,NA,NA,NA,NA,right,1473.20000004768,true,NA,NA,NA,NA,NA
piamzC27,33tgb4g0msu3alll9rtp1nk6wbyxtf,3ochawuvgsx6umts6kkzpgt2fh9kxt,piamzC27,2020-0188,2021-10-15,13:36:45,14:39:53,NA,incomplete,false,true,NA,1,19,NA,gray,n_l_006.jpg,NA,NA,unpleasant,pleasant,NA,NA,NA,NA,NA,left,2084.40000009537,true,NA,NA,NA,NA,NA
piamzC27,33tgb4g0msu3alll9rtp1nk6wbyxtf,3ochawuvgsx6umts6kkzpgt2fh9kxt,piamzC27,2020-0188,2021-10-15,13:36:45,14:39:53,NA,incomplete,false,true,NA,1,20,NA,gray,n_l_084.jpg,NA,NA,pleasant,unpleasant,NA,NA,NA,NA,NA,left,2397.60000014305,true,NA,NA,NA,NA,NA
piamzC27,33tgb4g0msu3alll9rtp1nk6wbyxtf,3ochawuvgsx6umts6kkzpgt2fh9kxt,piamzC27,2020-0188,2021-10-15,13:36:45,14:39:53,NA,incomplete,false,true,NA,1,21,NA,gray,n_l_086.jpg,NA,NA,unpleasant,pleasant,NA,NA,NA,NA,NA,right,1831.79999995232,true,NA,NA,NA,NA,NA
piamzC27,33tgb4g0msu3alll9rtp1nk6wbyxtf,3ochawuvgsx6umts6kkzpgt2fh9kxt,piamzC27,2020-0188,2021-10-15,13:36:45,14:39:53,NA,incomplete,false,true,NA,1,22,NA,gray,m_s_056.jpg,NA,NA,unpleasant,pleasant,NA,NA,NA,NA,NA,right,1835.70000004768,true,NA,NA,NA,NA,NA
piamzC27,33tgb4g0msu3alll9rtp1nk6wbyxtf,3ochawuvgsx6umts6kkzpgt2fh9kxt,piamzC27,2020-0188,2021-10-15,13:36:45,14:39:53,NA,incomplete,false,true,NA,1,23,NA,gray,m_l_083.jpg,NA,NA,pleasant,unpleasant,NA,NA,NA,NA,NA,left,1516.59999990463,true,NA,NA,NA,NA,NA
piamzC27,33tgb4g0msu3alll9rtp1nk6wbyxtf,3ochawuvgsx6umts6kkzpgt2fh9kxt,piamzC27,2020-0188,2021-10-15,13:36:45,14:39:53,NA,incomplete,false,true,NA,1,24,NA,green,n_l_009.jpg,NA,NA,pleasant,unpleasant,NA,NA,NA,NA,NA,right,2838.69999980927,true,NA,NA,NA,NA,NA
piamzC27,33tgb4g0msu3alll9rtp1nk6wbyxtf,3ochawuvgsx6umts6kkzpgt2fh9kxt,piamzC27,2020-0188,2021-10-15,13:36:45,14:39:53,NA,incomplete,false,true,NA,1,25,NA,green,m_l_064.jpg,NA,NA,pleasant,unpleasant,NA,NA,NA,NA,NA,right,2065.79999995232,true,NA,NA,NA,NA,NA
piamzC27,33tgb4g0msu3alll9rtp1nk6wbyxtf,3ochawuvgsx6umts6kkzpgt2fh9kxt,piamzC27,2020-0188,2021-10-15,13:36:45,14:39:53,NA,incomplete,false,true,NA,1,26,NA,green,m_l_108.jpg,NA,NA,unpleasant,pleasant,NA,NA,NA,NA,NA,left,2810.90000009537,true,NA,NA,NA,NA,NA
piamzC27,33tgb4g0msu3alll9rtp1nk6wbyxtf,3ochawuvgsx6umts6kkzpgt2fh9kxt,piamzC27,2020-0188,2021-10-15,13:36:45,14:39:53,NA,incomplete,false,true,NA,1,27,NA,green,m_s_040.jpg,NA,NA,pleasant,unpleasant,NA,NA,NA,NA,NA,right,941.400000095367,true,NA,NA,NA,NA,NA
piamzC27,33tgb4g0msu3alll9rtp1nk6wbyxtf,3ochawuvgsx6umts6kkzpgt2fh9kxt,piamzC27,2020-0188,2021-10-15,13:36:45,14:39:53,NA,incomplete,false,true,NA,1,28,NA,green,n_l_051.jpg,NA,NA,unpleasant,pleasant,NA,NA,NA,NA,NA,right,1640,true,NA,NA,NA,NA,NA
piamzC27,33tgb4g0msu3alll9rtp1nk6wbyxtf,3ochawuvgsx6umts6kkzpgt2fh9kxt,piamzC27,2020-0188,2021-10-15,13:36:45,14:39:53,NA,incomplete,false,true,NA,1,29,NA,green,n_s_004.jpg,NA,NA,unpleasant,pleasant,NA,NA,NA,NA,NA,left,2321.70000004768,true,NA,NA,NA,NA,NA
piamzC27,33tgb4g0msu3alll9rtp1nk6wbyxtf,3ochawuvgsx6umts6kkzpgt2fh9kxt,piamzC27,2020-0188,2021-10-15,13:36:45,14:39:53,NA,incomplete,false,true,NA,1,30,NA,blue,m_l_113.jpg,NA,NA,pleasant,unpleasant,NA,NA,NA,NA,NA,right,2635.30000019073,true,NA,NA,NA,NA,NA
piamzC27,33tgb4g0msu3alll9rtp1nk6wbyxtf,3ochawuvgsx6umts6kkzpgt2fh9kxt,piamzC27,2020-0188,2021-10-15,13:36:45,14:39:53,NA,incomplete,false,true,NA,1,31,NA,blue,m_l_104.jpg,NA,NA,pleasant,unpleasant,NA,NA,NA,NA,NA,left,2446.29999995232,true,NA,NA,NA,NA,NA
piamzC27,33tgb4g0msu3alll9rtp1nk6wbyxtf,3ochawuvgsx6umts6kkzpgt2fh9kxt,piamzC27,2020-0188,2021-10-15,13:36:45,14:39:53,NA,incomplete,false,true,NA,1,32,NA,blue,n_s_091.jpg,NA,NA,pleasant,unpleasant,NA,NA,NA,NA,NA,right,1175.80000019073,true,NA,NA,NA,NA,NA
piamzC27,33tgb4g0msu3alll9rtp1nk6wbyxtf,3ochawuvgsx6umts6kkzpgt2fh9kxt,piamzC27,2020-0188,2021-10-15,13:36:45,14:39:53,NA,incomplete,false,true,NA,1,33,NA,blue,n_l_088.jpg,NA,NA,unpleasant,pleasant,NA,NA,NA,NA,NA,left,1666.09999990463,true,NA,NA,NA,NA,NA
piamzC27,33tgb4g0msu3alll9rtp1nk6wbyxtf,3ochawuvgsx6umts6kkzpgt2fh9kxt,piamzC27,2020-0188,2021-10-15,13:36:45,14:39:53,NA,incomplete,false,true,NA,1,34,NA,blue,m_s_005.jpg,NA,NA,unpleasant,pleasant,NA,NA,NA,NA,NA,left,2237.70000004768,true,NA,NA,NA,NA,NA
piamzC27,33tgb4g0msu3alll9rtp1nk6wbyxtf,3ochawuvgsx6umts6kkzpgt2fh9kxt,piamzC27,2020-0188,2021-10-15,13:36:45,14:39:53,NA,incomplete,false,true,NA,1,35,NA,blue,m_l_006.jpg,NA,NA,pleasant,unpleasant,NA,NA,NA,NA,NA,right,1542.29999995232,true,NA,NA,NA,NA,NA
piamzC27,33tgb4g0msu3alll9rtp1nk6wbyxtf,3ochawuvgsx6umts6kkzpgt2fh9kxt,piamzC27,2020-0188,2021-10-15,13:36:45,14:39:53,NA,incomplete,false,NA,true,1,0,NA,NA,NA,left,present,NA,NA,n_l_075.jpg,white,n_s_043.jpg,yellow,between,NA,NaN,NA,right,4406.900000095367,0,2,6254.799999952316
piamzC27,33tgb4g0msu3alll9rtp1nk6wbyxtf,3ochawuvgsx6umts6kkzpgt2fh9kxt,piamzC27,2020-0188,2021-10-15,13:36:45,14:39:53,NA,incomplete,false,NA,true,1,1,NA,NA,NA,left,present,NA,NA,m_l_064.jpg,green,n_s_004.jpg,green,within,NA,NaN,NA,left,2894.699999809265,1,1,1078.6999998092651
piamzC27,33tgb4g0msu3alll9rtp1nk6wbyxtf,3ochawuvgsx6umts6kkzpgt2fh9kxt,piamzC27,2020-0188,2021-10-15,13:36:45,14:39:53,NA,incomplete,false,NA,true,1,2,NA,NA,NA,right,present,NA,NA,n_l_084.jpg,gray,m_s_032.jpg,yellow,between,NA,NaN,NA,right,6982.799999952316,1,2,2126.9000000953674
piamzC27,33tgb4g0msu3alll9rtp1nk6wbyxtf,3ochawuvgsx6umts6kkzpgt2fh9kxt,piamzC27,2020-0188,2021-10-15,13:36:45,14:39:53,NA,incomplete,false,NA,true,1,3,NA,NA,NA,right,present,NA,NA,m_s_088.jpg,white,m_s_081.jpg,white,within,NA,NaN,NA,right,4190.599999904633,1,1,2063.2999999523163
piamzC27,33tgb4g0msu3alll9rtp1nk6wbyxtf,3ochawuvgsx6umts6kkzpgt2fh9kxt,piamzC27,2020-0188,2021-10-15,13:36:45,14:39:53,NA,incomplete,false,NA,true,1,4,NA,NA,NA,left,present,NA,NA,m_l_104.jpg,blue,m_l_006.jpg,blue,within,NA,NaN,NA,left,4399.299999952316,1,0,1031.5
piamzC27,33tgb4g0msu3alll9rtp1nk6wbyxtf,3ochawuvgsx6umts6kkzpgt2fh9kxt,piamzC27,2020-0188,2021-10-15,13:36:45,14:39:53,NA,incomplete,false,NA,true,1,5,NA,NA,NA,left,present,NA,NA,m_s_056.jpg,gray,m_l_108.jpg,green,between,NA,NaN,NA,right,5007.299999952316,0,2,1983.2000000476837
piamzC27,33tgb4g0msu3alll9rtp1nk6wbyxtf,3ochawuvgsx6umts6kkzpgt2fh9kxt,piamzC27,2020-0188,2021-10-15,13:36:45,14:39:53,NA,incomplete,false,NA,true,1,6,NA,NA,NA,left,present,NA,NA,n_l_051.jpg,green,n_s_091.jpg,blue,between,NA,NaN,NA,right,4071.399999856949,0,2,1247
piamzC27,33tgb4g0msu3alll9rtp1nk6wbyxtf,3ochawuvgsx6umts6kkzpgt2fh9kxt,piamzC27,2020-0188,2021-10-15,13:36:45,14:39:53,NA,incomplete,false,NA,true,1,7,NA,NA,NA,left,present,NA,NA,n_l_065.jpg,brown,n_l_007.jpg,brown,within,NA,NaN,NA,left,6271.099999904633,1,1,1367.2000000476837
piamzC27,33tgb4g0msu3alll9rtp1nk6wbyxtf,3ochawuvgsx6umts6kkzpgt2fh9kxt,piamzC27,2020-0188,2021-10-15,13:36:45,14:39:53,NA,incomplete,false,NA,true,1,8,NA,NA,NA,left,present,NA,NA,m_l_082.jpg,brown,n_s_068.jpg,white,between,NA,NaN,NA,right,3831.2000000476837,0,2,1559.2000000476837
piamzC27,33tgb4g0msu3alll9rtp1nk6wbyxtf,3ochawuvgsx6umts6kkzpgt2fh9kxt,piamzC27,2020-0188,2021-10-15,13:36:45,14:39:53,NA,incomplete,false,NA,true,1,9,NA,NA,NA,left,present,NA,NA,n_l_054.jpg,yellow,m_s_062.jpg,yellow,within,NA,NaN,NA,left,3854.899999856949,1,1,1223.5
piamzC27,33tgb4g0msu3alll9rtp1nk6wbyxtf,3ochawuvgsx6umts6kkzpgt2fh9kxt,piamzC27,2020-0188,2021-10-15,13:36:45,14:39:53,NA,incomplete,false,NA,true,1,10,NA,NA,NA,left,present,NA,NA,n_l_006.jpg,gray,m_l_083.jpg,gray,within,NA,NaN,NA,left,4863.200000047684,1,0,951.2000000476837
piamzC27,33tgb4g0msu3alll9rtp1nk6wbyxtf,3ochawuvgsx6umts6kkzpgt2fh9kxt,piamzC27,2020-0188,2021-10-15,13:36:45,14:39:53,NA,incomplete,false,true,NA,2,0,NA,white,m_l_037.jpg,NA,NA,pleasant,unpleasant,NA,NA,NA,NA,NA,right,2764.29999995232,true,NA,NA,NA,NA,NA
piamzC27,33tgb4g0msu3alll9rtp1nk6wbyxtf,3ochawuvgsx6umts6kkzpgt2fh9kxt,piamzC27,2020-0188,2021-10-15,13:36:45,14:39:53,NA,incomplete,false,true,NA,2,1,NA,white,m_s_087.jpg,NA,NA,pleasant,unpleasant,NA,NA,NA,NA,NA,left,2116.90000009537,true,NA,NA,NA,NA,NA
piamzC27,33tgb4g0msu3alll9rtp1nk6wbyxtf,3ochawuvgsx6umts6kkzpgt2fh9kxt,piamzC27,2020-0188,2021-10-15,13:36:45,14:39:53,NA,incomplete,false,true,NA,2,2,NA,white,m_l_114.jpg,NA,NA,pleasant,unpleasant,NA,NA,NA,NA,NA,left,1512,true,NA,NA,NA,NA,NA
piamzC27,33tgb4g0msu3alll9rtp1nk6wbyxtf,3ochawuvgsx6umts6kkzpgt2fh9kxt,piamzC27,2020-0188,2021-10-15,13:36:45,14:39:53,NA,incomplete,false,true,NA,2,3,NA,white,n_s_073.jpg,NA,NA,unpleasant,pleasant,NA,NA,NA,NA,NA,right,1771.30000019073,true,NA,NA,NA,NA,NA
piamzC27,33tgb4g0msu3alll9rtp1nk6wbyxtf,3ochawuvgsx6umts6kkzpgt2fh9kxt,piamzC27,2020-0188,2021-10-15,13:36:45,14:39:53,NA,incomplete,false,true,NA,2,4,NA,white,n_s_021.jpg,NA,NA,unpleasant,pleasant,NA,NA,NA,NA,NA,left,2564.20000004768,true,NA,NA,NA,NA,NA
piamzC27,33tgb4g0msu3alll9rtp1nk6wbyxtf,3ochawuvgsx6umts6kkzpgt2fh9kxt,piamzC27,2020-0188,2021-10-15,13:36:45,14:39:53,NA,incomplete,false,true,NA,2,5,NA,white,m_s_017.jpg,NA,NA,pleasant,unpleasant,NA,NA,NA,NA,NA,left,1470.70000004768,true,NA,NA,NA,NA,NA
piamzC27,33tgb4g0msu3alll9rtp1nk6wbyxtf,3ochawuvgsx6umts6kkzpgt2fh9kxt,piamzC27,2020-0188,2021-10-15,13:36:45,14:39:53,NA,incomplete,false,true,NA,2,6,NA,orange,m_s_002.jpg,NA,NA,unpleasant,pleasant,NA,NA,NA,NA,NA,right,1961.40000009537,true,NA,NA,NA,NA,NA
piamzC27,33tgb4g0msu3alll9rtp1nk6wbyxtf,3ochawuvgsx6umts6kkzpgt2fh9kxt,piamzC27,2020-0188,2021-10-15,13:36:45,14:39:53,NA,incomplete,false,true,NA,2,7,NA,orange,m_s_070.jpg,NA,NA,unpleasant,pleasant,NA,NA,NA,NA,NA,right,1970.79999995232,true,NA,NA,NA,NA,NA
piamzC27,33tgb4g0msu3alll9rtp1nk6wbyxtf,3ochawuvgsx6umts6kkzpgt2fh9kxt,piamzC27,2020-0188,2021-10-15,13:36:45,14:39:53,NA,incomplete,false,true,NA,2,8,NA,orange,n_s_076.jpg,NA,NA,pleasant,unpleasant,NA,NA,NA,NA,NA,right,2684.90000009537,true,NA,NA,NA,NA,NA
piamzC27,33tgb4g0msu3alll9rtp1nk6wbyxtf,3ochawuvgsx6umts6kkzpgt2fh9kxt,piamzC27,2020-0188,2021-10-15,13:36:45,14:39:53,NA,incomplete,false,true,NA,2,9,NA,orange,n_l_113.jpg,NA,NA,pleasant,unpleasant,NA,NA,NA,NA,NA,left,2128.29999995232,true,NA,NA,NA,NA,NA
piamzC27,33tgb4g0msu3alll9rtp1nk6wbyxtf,3ochawuvgsx6umts6kkzpgt2fh9kxt,piamzC27,2020-0188,2021-10-15,13:36:45,14:39:53,NA,incomplete,false,true,NA,2,10,NA,orange,m_s_033.jpg,NA,NA,unpleasant,pleasant,NA,NA,NA,NA,NA,left,1681.40000009537,true,NA,NA,NA,NA,NA
piamzC27,33tgb4g0msu3alll9rtp1nk6wbyxtf,3ochawuvgsx6umts6kkzpgt2fh9kxt,piamzC27,2020-0188,2021-10-15,13:36:45,14:39:53,NA,incomplete,false,true,NA,2,11,NA,orange,m_s_055.jpg,NA,NA,pleasant,unpleasant,NA,NA,NA,NA,NA,right,2892,true,NA,NA,NA,NA,NA
piamzC27,33tgb4g0msu3alll9rtp1nk6wbyxtf,3ochawuvgsx6umts6kkzpgt2fh9kxt,piamzC27,2020-0188,2021-10-15,13:36:45,14:39:53,NA,incomplete,false,true,NA,2,12,NA,gray,m_l_059.jpg,NA,NA,pleasant,unpleasant,NA,NA,NA,NA,NA,left,1943.5,true,NA,NA,NA,NA,NA
piamzC27,33tgb4g0msu3alll9rtp1nk6wbyxtf,3ochawuvgsx6umts6kkzpgt2fh9kxt,piamzC27,2020-0188,2021-10-15,13:36:45,14:39:53,NA,incomplete,false,true,NA,2,13,NA,gray,m_l_098.jpg,NA,NA,pleasant,unpleasant,NA,NA,NA,NA,NA,left,2304.79999995232,true,NA,NA,NA,NA,NA
piamzC27,33tgb4g0msu3alll9rtp1nk6wbyxtf,3ochawuvgsx6umts6kkzpgt2fh9kxt,piamzC27,2020-0188,2021-10-15,13:36:45,14:39:53,NA,incomplete,false,true,NA,2,14,NA,gray,n_s_065.jpg,NA,NA,unpleasant,pleasant,NA,NA,NA,NA,NA,left,1522.59999990463,true,NA,NA,NA,NA,NA
piamzC27,33tgb4g0msu3alll9rtp1nk6wbyxtf,3ochawuvgsx6umts6kkzpgt2fh9kxt,piamzC27,2020-0188,2021-10-15,13:36:45,14:39:53,NA,incomplete,false,true,NA,2,15,NA,gray,n_s_103.jpg,NA,NA,unpleasant,pleasant,NA,NA,NA,NA,NA,left,1589.70000004768,true,NA,NA,NA,NA,NA
piamzC27,33tgb4g0msu3alll9rtp1nk6wbyxtf,3ochawuvgsx6umts6kkzpgt2fh9kxt,piamzC27,2020-0188,2021-10-15,13:36:45,14:39:53,NA,incomplete,false,true,NA,2,16,NA,gray,m_l_068.jpg,NA,NA,pleasant,unpleasant,NA,NA,NA,NA,NA,left,2742.20000004768,true,NA,NA,NA,NA,NA
piamzC27,33tgb4g0msu3alll9rtp1nk6wbyxtf,3ochawuvgsx6umts6kkzpgt2fh9kxt,piamzC27,2020-0188,2021-10-15,13:36:45,14:39:53,NA,incomplete,false,true,NA,2,17,NA,gray,m_l_110.jpg,NA,NA,unpleasant,pleasant,NA,NA,NA,NA,NA,right,1344.60000014305,true,NA,NA,NA,NA,NA
piamzC27,33tgb4g0msu3alll9rtp1nk6wbyxtf,3ochawuvgsx6umts6kkzpgt2fh9kxt,piamzC27,2020-0188,2021-10-15,13:36:45,14:39:53,NA,incomplete,false,true,NA,2,18,NA,purple,m_l_069.jpg,NA,NA,pleasant,unpleasant,NA,NA,NA,NA,NA,right,2692.29999995232,true,NA,NA,NA,NA,NA
piamzC27,33tgb4g0msu3alll9rtp1nk6wbyxtf,3ochawuvgsx6umts6kkzpgt2fh9kxt,piamzC27,2020-0188,2021-10-15,13:36:45,14:39:53,NA,incomplete,false,true,NA,2,19,NA,purple,n_l_077.jpg,NA,NA,unpleasant,pleasant,NA,NA,NA,NA,NA,left,2245.5,true,NA,NA,NA,NA,NA
piamzC27,33tgb4g0msu3alll9rtp1nk6wbyxtf,3ochawuvgsx6umts6kkzpgt2fh9kxt,piamzC27,2020-0188,2021-10-15,13:36:45,14:39:53,NA,incomplete,false,true,NA,2,20,NA,purple,m_s_054.jpg,NA,NA,unpleasant,pleasant,NA,NA,NA,NA,NA,right,1231.89999985695,true,NA,NA,NA,NA,NA
piamzC27,33tgb4g0msu3alll9rtp1nk6wbyxtf,3ochawuvgsx6umts6kkzpgt2fh9kxt,piamzC27,2020-0188,2021-10-15,13:36:45,14:39:53,NA,incomplete,false,true,NA,2,21,NA,purple,n_s_027.jpg,NA,NA,unpleasant,pleasant,NA,NA,NA,NA,NA,left,1627.5,true,NA,NA,NA,NA,NA
piamzC27,33tgb4g0msu3alll9rtp1nk6wbyxtf,3ochawuvgsx6umts6kkzpgt2fh9kxt,piamzC27,2020-0188,2021-10-15,13:36:45,14:39:53,NA,incomplete,false,true,NA,2,22,NA,purple,n_s_075.jpg,NA,NA,pleasant,unpleasant,NA,NA,NA,NA,NA,right,2613,true,NA,NA,NA,NA,NA
piamzC27,33tgb4g0msu3alll9rtp1nk6wbyxtf,3ochawuvgsx6umts6kkzpgt2fh9kxt,piamzC27,2020-0188,2021-10-15,13:36:45,14:39:53,NA,incomplete,false,true,NA,2,23,NA,purple,n_l_014.jpg,NA,NA,pleasant,unpleasant,NA,NA,NA,NA,NA,right,2031.5,true,NA,NA,NA,NA,NA
piamzC27,33tgb4g0msu3alll9rtp1nk6wbyxtf,3ochawuvgsx6umts6kkzpgt2fh9kxt,piamzC27,2020-0188,2021-10-15,13:36:45,14:39:53,NA,incomplete,false,true,NA,2,24,NA,green,m_s_068.jpg,NA,NA,unpleasant,pleasant,NA,NA,NA,NA,NA,left,3315,true,NA,NA,NA,NA,NA
piamzC27,33tgb4g0msu3alll9rtp1nk6wbyxtf,3ochawuvgsx6umts6kkzpgt2fh9kxt,piamzC27,2020-0188,2021-10-15,13:36:45,14:39:53,NA,incomplete,false,true,NA,2,25,NA,green,m_l_035.jpg,NA,NA,unpleasant,pleasant,NA,NA,NA,NA,NA,right,1540.09999990463,true,NA,NA,NA,NA,NA
piamzC27,33tgb4g0msu3alll9rtp1nk6wbyxtf,3ochawuvgsx6umts6kkzpgt2fh9kxt,piamzC27,2020-0188,2021-10-15,13:36:45,14:39:53,NA,incomplete,false,true,NA,2,26,NA,green,m_s_048.jpg,NA,NA,unpleasant,pleasant,NA,NA,NA,NA,NA,right,1438.10000014305,true,NA,NA,NA,NA,NA
piamzC27,33tgb4g0msu3alll9rtp1nk6wbyxtf,3ochawuvgsx6umts6kkzpgt2fh9kxt,piamzC27,2020-0188,2021-10-15,13:36:45,14:39:53,NA,incomplete,false,true,NA,2,27,NA,green,n_s_116.jpg,NA,NA,unpleasant,pleasant,NA,NA,NA,NA,NA,left,2297.29999995232,true,NA,NA,NA,NA,NA
piamzC27,33tgb4g0msu3alll9rtp1nk6wbyxtf,3ochawuvgsx6umts6kkzpgt2fh9kxt,piamzC27,2020-0188,2021-10-15,13:36:45,14:39:53,NA,incomplete,false,true,NA,2,28,NA,green,m_l_049.jpg,NA,NA,unpleasant,pleasant,NA,NA,NA,NA,NA,left,2178.40000009537,true,NA,NA,NA,NA,NA
piamzC27,33tgb4g0msu3alll9rtp1nk6wbyxtf,3ochawuvgsx6umts6kkzpgt2fh9kxt,piamzC27,2020-0188,2021-10-15,13:36:45,14:39:53,NA,incomplete,false,true,NA,2,29,NA,green,n_s_017.jpg,NA,NA,pleasant,unpleasant,NA,NA,NA,NA,NA,left,1420.79999995232,true,NA,NA,NA,NA,NA
piamzC27,33tgb4g0msu3alll9rtp1nk6wbyxtf,3ochawuvgsx6umts6kkzpgt2fh9kxt,piamzC27,2020-0188,2021-10-15,13:36:45,14:39:53,NA,incomplete,false,true,NA,2,30,NA,brown,n_l_035.jpg,NA,NA,unpleasant,pleasant,NA,NA,NA,NA,NA,left,1976.09999990463,true,NA,NA,NA,NA,NA
piamzC27,33tgb4g0msu3alll9rtp1nk6wbyxtf,3ochawuvgsx6umts6kkzpgt2fh9kxt,piamzC27,2020-0188,2021-10-15,13:36:45,14:39:53,NA,incomplete,false,true,NA,2,31,NA,brown,m_s_015.jpg,NA,NA,pleasant,unpleasant,NA,NA,NA,NA,NA,left,1240.90000009537,true,NA,NA,NA,NA,NA
piamzC27,33tgb4g0msu3alll9rtp1nk6wbyxtf,3ochawuvgsx6umts6kkzpgt2fh9kxt,piamzC27,2020-0188,2021-10-15,13:36:45,14:39:53,NA,incomplete,false,true,NA,2,32,NA,brown,n_l_081.jpg,NA,NA,pleasant,unpleasant,NA,NA,NA,NA,NA,left,1483.90000009537,true,NA,NA,NA,NA,NA
piamzC27,33tgb4g0msu3alll9rtp1nk6wbyxtf,3ochawuvgsx6umts6kkzpgt2fh9kxt,piamzC27,2020-0188,2021-10-15,13:36:45,14:39:53,NA,incomplete,false,true,NA,2,33,NA,brown,m_s_060.jpg,NA,NA,pleasant,unpleasant,NA,NA,NA,NA,NA,left,1511.5,true,NA,NA,NA,NA,NA
piamzC27,33tgb4g0msu3alll9rtp1nk6wbyxtf,3ochawuvgsx6umts6kkzpgt2fh9kxt,piamzC27,2020-0188,2021-10-15,13:36:45,14:39:53,NA,incomplete,false,true,NA,2,34,NA,brown,n_l_030.jpg,NA,NA,unpleasant,pleasant,NA,NA,NA,NA,NA,right,1368.59999990463,true,NA,NA,NA,NA,NA
piamzC27,33tgb4g0msu3alll9rtp1nk6wbyxtf,3ochawuvgsx6umts6kkzpgt2fh9kxt,piamzC27,2020-0188,2021-10-15,13:36:45,14:39:53,NA,incomplete,false,true,NA,2,35,NA,brown,n_s_079.jpg,NA,NA,unpleasant,pleasant,NA,NA,NA,NA,NA,left,1858.39999985695,true,NA,NA,NA,NA,NA
piamzC27,33tgb4g0msu3alll9rtp1nk6wbyxtf,3ochawuvgsx6umts6kkzpgt2fh9kxt,piamzC27,2020-0188,2021-10-15,13:36:45,14:39:53,NA,incomplete,false,NA,true,2,0,NA,NA,NA,left,present,NA,NA,m_s_015.jpg,brown,n_s_079.jpg,brown,within,NA,NaN,NA,left,4422.700000047684,1,1,1175.3999998569489
piamzC27,33tgb4g0msu3alll9rtp1nk6wbyxtf,3ochawuvgsx6umts6kkzpgt2fh9kxt,piamzC27,2020-0188,2021-10-15,13:36:45,14:39:53,NA,incomplete,false,NA,true,2,1,NA,NA,NA,right,present,NA,NA,m_s_017.jpg,white,m_s_087.jpg,white,within,NA,NaN,NA,right,2743.2000000476837,1,1,1255.3000001907349
piamzC27,33tgb4g0msu3alll9rtp1nk6wbyxtf,3ochawuvgsx6umts6kkzpgt2fh9kxt,piamzC27,2020-0188,2021-10-15,13:36:45,14:39:53,NA,incomplete,false,NA,true,2,2,NA,NA,NA,right,present,NA,NA,n_s_065.jpg,gray,m_s_033.jpg,orange,between,NA,NaN,NA,right,4191.300000190735,1,1,4238.899999856949
piamzC27,33tgb4g0msu3alll9rtp1nk6wbyxtf,3ochawuvgsx6umts6kkzpgt2fh9kxt,piamzC27,2020-0188,2021-10-15,13:36:45,14:39:53,NA,incomplete,false,NA,true,2,3,NA,NA,NA,right,present,NA,NA,n_l_081.jpg,brown,m_l_049.jpg,green,between,NA,NaN,NA,right,3487.2000000476837,1,2,2031.2999999523163
piamzC27,33tgb4g0msu3alll9rtp1nk6wbyxtf,3ochawuvgsx6umts6kkzpgt2fh9kxt,piamzC27,2020-0188,2021-10-15,13:36:45,14:39:53,NA,incomplete,false,NA,true,2,4,NA,NA,NA,right,present,NA,NA,n_s_076.jpg,orange,n_s_021.jpg,white,between,NA,NaN,NA,left,1990.8999998569489,0,2,1319.3000001907349
piamzC27,33tgb4g0msu3alll9rtp1nk6wbyxtf,3ochawuvgsx6umts6kkzpgt2fh9kxt,piamzC27,2020-0188,2021-10-15,13:36:45,14:39:53,NA,incomplete,false,NA,true,2,5,NA,NA,NA,left,present,NA,NA,m_l_035.jpg,green,n_s_017.jpg,green,within,NA,NaN,NA,left,3390.9000000953674,1,0,959.5
piamzC27,33tgb4g0msu3alll9rtp1nk6wbyxtf,3ochawuvgsx6umts6kkzpgt2fh9kxt,piamzC27,2020-0188,2021-10-15,13:36:45,14:39:53,NA,incomplete,false,NA,true,2,6,NA,NA,NA,left,present,NA,NA,m_s_070.jpg,orange,m_s_055.jpg,orange,within,NA,NaN,NA,left,2543.2999999523163,1,1,1215.2999999523163
piamzC27,33tgb4g0msu3alll9rtp1nk6wbyxtf,3ochawuvgsx6umts6kkzpgt2fh9kxt,piamzC27,2020-0188,2021-10-15,13:36:45,14:39:53,NA,incomplete,false,NA,true,2,7,NA,NA,NA,right,present,NA,NA,m_l_110.jpg,gray,m_l_098.jpg,gray,within,NA,NaN,NA,right,1991.2000000476837,1,1,1175.3999998569489
piamzC27,33tgb4g0msu3alll9rtp1nk6wbyxtf,3ochawuvgsx6umts6kkzpgt2fh9kxt,piamzC27,2020-0188,2021-10-15,13:36:45,14:39:53,NA,incomplete,false,NA,true,2,8,NA,NA,NA,right,present,NA,NA,n_l_014.jpg,purple,n_l_077.jpg,purple,within,NA,NaN,NA,right,2207.2999999523163,1,1,2615.199999809265
piamzC27,33tgb4g0msu3alll9rtp1nk6wbyxtf,3ochawuvgsx6umts6kkzpgt2fh9kxt,piamzC27,2020-0188,2021-10-15,13:36:45,14:39:53,NA,incomplete,false,NA,true,2,9,NA,NA,NA,right,present,NA,NA,m_s_048.jpg,green,n_s_075.jpg,purple,between,NA,NaN,NA,right,2375.199999809265,1,1,1111.5
piamzC27,33tgb4g0msu3alll9rtp1nk6wbyxtf,3ochawuvgsx6umts6kkzpgt2fh9kxt,piamzC27,2020-0188,2021-10-15,13:36:45,14:39:53,NA,incomplete,false,NA,true,2,10,NA,NA,NA,right,present,NA,NA,m_s_054.jpg,purple,m_l_068.jpg,gray,between,NA,NaN,NA,right,2383.5999999046326,1,2,2151.199999809265
piamzC27,33tgb4g0msu3alll9rtp1nk6wbyxtf,3ochawuvgsx6umts6kkzpgt2fh9kxt,piamzC27,2020-0188,2021-10-15,13:36:45,14:39:53,NA,incomplete,false,true,NA,3,0,NA,black,n_l_064.jpg,NA,NA,unpleasant,pleasant,NA,NA,NA,NA,NA,right,2509.10000014305,true,NA,NA,NA,NA,NA
piamzC27,33tgb4g0msu3alll9rtp1nk6wbyxtf,3ochawuvgsx6umts6kkzpgt2fh9kxt,piamzC27,2020-0188,2021-10-15,13:36:45,14:39:53,NA,incomplete,false,true,NA,3,1,NA,black,m_s_089.jpg,NA,NA,unpleasant,pleasant,NA,NA,NA,NA,NA,right,968,true,NA,NA,NA,NA,NA
piamzC27,33tgb4g0msu3alll9rtp1nk6wbyxtf,3ochawuvgsx6umts6kkzpgt2fh9kxt,piamzC27,2020-0188,2021-10-15,13:36:45,14:39:53,NA,incomplete,false,true,NA,3,2,NA,black,n_s_081.jpg,NA,NA,unpleasant,pleasant,NA,NA,NA,NA,NA,right,1425,true,NA,NA,NA,NA,NA
piamzC27,33tgb4g0msu3alll9rtp1nk6wbyxtf,3ochawuvgsx6umts6kkzpgt2fh9kxt,piamzC27,2020-0188,2021-10-15,13:36:45,14:39:53,NA,incomplete,false,true,NA,3,3,NA,black,n_l_080.jpg,NA,NA,pleasant,unpleasant,NA,NA,NA,NA,NA,right,3260.79999995232,true,NA,NA,NA,NA,NA
piamzC27,33tgb4g0msu3alll9rtp1nk6wbyxtf,3ochawuvgsx6umts6kkzpgt2fh9kxt,piamzC27,2020-0188,2021-10-15,13:36:45,14:39:53,NA,incomplete,false,true,NA,3,4,NA,black,n_l_070.jpg,NA,NA,pleasant,unpleasant,NA,NA,NA,NA,NA,right,2309.60000014305,true,NA,NA,NA,NA,NA
piamzC27,33tgb4g0msu3alll9rtp1nk6wbyxtf,3ochawuvgsx6umts6kkzpgt2fh9kxt,piamzC27,2020-0188,2021-10-15,13:36:45,14:39:53,NA,incomplete,false,true,NA,3,5,NA,black,n_s_066.jpg,NA,NA,unpleasant,pleasant,NA,NA,NA,NA,NA,left,1568.40000009537,true,NA,NA,NA,NA,NA
piamzC27,33tgb4g0msu3alll9rtp1nk6wbyxtf,3ochawuvgsx6umts6kkzpgt2fh9kxt,piamzC27,2020-0188,2021-10-15,13:36:45,14:39:53,NA,incomplete,false,true,NA,3,6,NA,brown,n_l_024.jpg,NA,NA,pleasant,unpleasant,NA,NA,NA,NA,NA,left,2858.70000004768,true,NA,NA,NA,NA,NA
piamzC27,33tgb4g0msu3alll9rtp1nk6wbyxtf,3ochawuvgsx6umts6kkzpgt2fh9kxt,piamzC27,2020-0188,2021-10-15,13:36:45,14:39:53,NA,incomplete,false,true,NA,3,7,NA,brown,n_s_085.jpg,NA,NA,unpleasant,pleasant,NA,NA,NA,NA,NA,none,0,false,NA,NA,NA,NA,NA
piamzC27,33tgb4g0msu3alll9rtp1nk6wbyxtf,3ochawuvgsx6umts6kkzpgt2fh9kxt,piamzC27,2020-0188,2021-10-15,13:36:45,14:39:53,NA,incomplete,false,true,NA,3,8,NA,brown,m_s_076.jpg,NA,NA,pleasant,unpleasant,NA,NA,NA,NA,NA,left,2325.40000009537,true,NA,NA,NA,NA,NA
piamzC27,33tgb4g0msu3alll9rtp1nk6wbyxtf,3ochawuvgsx6umts6kkzpgt2fh9kxt,piamzC27,2020-0188,2021-10-15,13:36:45,14:39:53,NA,incomplete,false,true,NA,3,9,NA,brown,m_s_099.jpg,NA,NA,unpleasant,pleasant,NA,NA,NA,NA,NA,right,1368.29999995232,true,NA,NA,NA,NA,NA
piamzC27,33tgb4g0msu3alll9rtp1nk6wbyxtf,3ochawuvgsx6umts6kkzpgt2fh9kxt,piamzC27,2020-0188,2021-10-15,13:36:45,14:39:53,NA,incomplete,false,true,NA,3,10,NA,brown,m_s_053.jpg,NA,NA,unpleasant,pleasant,NA,NA,NA,NA,NA,left,1746,true,NA,NA,NA,NA,NA
piamzC27,33tgb4g0msu3alll9rtp1nk6wbyxtf,3ochawuvgsx6umts6kkzpgt2fh9kxt,piamzC27,2020-0188,2021-10-15,13:36:45,14:39:53,NA,incomplete,false,true,NA,3,11,NA,brown,m_l_036.jpg,NA,NA,unpleasant,pleasant,NA,NA,NA,NA,NA,left,1773,true,NA,NA,NA,NA,NA
piamzC27,33tgb4g0msu3alll9rtp1nk6wbyxtf,3ochawuvgsx6umts6kkzpgt2fh9kxt,piamzC27,2020-0188,2021-10-15,13:36:45,14:39:53,NA,incomplete,false,true,NA,3,12,NA,green,n_l_026.jpg,NA,NA,unpleasant,pleasant,NA,NA,NA,NA,NA,right,1351.39999985695,true,NA,NA,NA,NA,NA
piamzC27,33tgb4g0msu3alll9rtp1nk6wbyxtf,3ochawuvgsx6umts6kkzpgt2fh9kxt,piamzC27,2020-0188,2021-10-15,13:36:45,14:39:53,NA,incomplete,false,true,NA,3,13,NA,green,m_l_076.jpg,NA,NA,unpleasant,pleasant,NA,NA,NA,NA,NA,left,2048.29999995232,true,NA,NA,NA,NA,NA
piamzC27,33tgb4g0msu3alll9rtp1nk6wbyxtf,3ochawuvgsx6umts6kkzpgt2fh9kxt,piamzC27,2020-0188,2021-10-15,13:36:45,14:39:53,NA,incomplete,false,true,NA,3,14,NA,green,n_l_031.jpg,NA,NA,unpleasant,pleasant,NA,NA,NA,NA,NA,left,1618.40000009537,true,NA,NA,NA,NA,NA
piamzC27,33tgb4g0msu3alll9rtp1nk6wbyxtf,3ochawuvgsx6umts6kkzpgt2fh9kxt,piamzC27,2020-0188,2021-10-15,13:36:45,14:39:53,NA,incomplete,false,true,NA,3,15,NA,green,n_l_094.jpg,NA,NA,unpleasant,pleasant,NA,NA,NA,NA,NA,left,1205.5,true,NA,NA,NA,NA,NA
piamzC27,33tgb4g0msu3alll9rtp1nk6wbyxtf,3ochawuvgsx6umts6kkzpgt2fh9kxt,piamzC27,2020-0188,2021-10-15,13:36:45,14:39:53,NA,incomplete,false,true,NA,3,16,NA,green,n_l_092.jpg,NA,NA,unpleasant,pleasant,NA,NA,NA,NA,NA,left,1558.09999990463,true,NA,NA,NA,NA,NA
piamzC27,33tgb4g0msu3alll9rtp1nk6wbyxtf,3ochawuvgsx6umts6kkzpgt2fh9kxt,piamzC27,2020-0188,2021-10-15,13:36:45,14:39:53,NA,incomplete,false,true,NA,3,17,NA,green,n_l_052.jpg,NA,NA,unpleasant,pleasant,NA,NA,NA,NA,NA,left,2176.70000004768,true,NA,NA,NA,NA,NA
piamzC27,33tgb4g0msu3alll9rtp1nk6wbyxtf,3ochawuvgsx6umts6kkzpgt2fh9kxt,piamzC27,2020-0188,2021-10-15,13:36:45,14:39:53,NA,incomplete,false,true,NA,3,18,NA,yellow,m_l_081.jpg,NA,NA,unpleasant,pleasant,NA,NA,NA,NA,NA,right,2452.20000004768,true,NA,NA,NA,NA,NA
piamzC27,33tgb4g0msu3alll9rtp1nk6wbyxtf,3ochawuvgsx6umts6kkzpgt2fh9kxt,piamzC27,2020-0188,2021-10-15,13:36:45,14:39:53,NA,incomplete,false,true,NA,3,19,NA,yellow,m_s_009.jpg,NA,NA,unpleasant,pleasant,NA,NA,NA,NA,NA,left,2316.79999995232,true,NA,NA,NA,NA,NA
piamzC27,33tgb4g0msu3alll9rtp1nk6wbyxtf,3ochawuvgsx6umts6kkzpgt2fh9kxt,piamzC27,2020-0188,2021-10-15,13:36:45,14:39:53,NA,incomplete,false,true,NA,3,20,NA,yellow,m_s_106.jpg,NA,NA,unpleasant,pleasant,NA,NA,NA,NA,NA,right,1247.20000004768,true,NA,NA,NA,NA,NA
piamzC27,33tgb4g0msu3alll9rtp1nk6wbyxtf,3ochawuvgsx6umts6kkzpgt2fh9kxt,piamzC27,2020-0188,2021-10-15,13:36:45,14:39:53,NA,incomplete,false,true,NA,3,21,NA,yellow,m_s_047.jpg,NA,NA,unpleasant,pleasant,NA,NA,NA,NA,NA,right,1714.79999995232,true,NA,NA,NA,NA,NA
piamzC27,33tgb4g0msu3alll9rtp1nk6wbyxtf,3ochawuvgsx6umts6kkzpgt2fh9kxt,piamzC27,2020-0188,2021-10-15,13:36:45,14:39:53,NA,incomplete,false,true,NA,3,22,NA,yellow,n_s_084.jpg,NA,NA,pleasant,unpleasant,NA,NA,NA,NA,NA,right,2572.09999990463,true,NA,NA,NA,NA,NA
piamzC27,33tgb4g0msu3alll9rtp1nk6wbyxtf,3ochawuvgsx6umts6kkzpgt2fh9kxt,piamzC27,2020-0188,2021-10-15,13:36:45,14:39:53,NA,incomplete,false,true,NA,3,23,NA,yellow,n_s_062.jpg,NA,NA,pleasant,unpleasant,NA,NA,NA,NA,NA,right,1230.20000004768,true,NA,NA,NA,NA,NA
piamzC27,33tgb4g0msu3alll9rtp1nk6wbyxtf,3ochawuvgsx6umts6kkzpgt2fh9kxt,piamzC27,2020-0188,2021-10-15,13:36:45,14:39:53,NA,incomplete,false,true,NA,3,24,NA,gray,m_s_100.jpg,NA,NA,pleasant,unpleasant,NA,NA,NA,NA,NA,right,2497.59999990463,true,NA,NA,NA,NA,NA
piamzC27,33tgb4g0msu3alll9rtp1nk6wbyxtf,3ochawuvgsx6umts6kkzpgt2fh9kxt,piamzC27,2020-0188,2021-10-15,13:36:45,14:39:53,NA,incomplete,false,true,NA,3,25,NA,gray,m_l_040.jpg,NA,NA,pleasant,unpleasant,NA,NA,NA,NA,NA,right,1778.79999995232,true,NA,NA,NA,NA,NA
piamzC27,33tgb4g0msu3alll9rtp1nk6wbyxtf,3ochawuvgsx6umts6kkzpgt2fh9kxt,piamzC27,2020-0188,2021-10-15,13:36:45,14:39:53,NA,incomplete,false,true,NA,3,26,NA,gray,n_l_106.jpg,NA,NA,unpleasant,pleasant,NA,NA,NA,NA,NA,right,2277.29999995232,true,NA,NA,NA,NA,NA
piamzC27,33tgb4g0msu3alll9rtp1nk6wbyxtf,3ochawuvgsx6umts6kkzpgt2fh9kxt,piamzC27,2020-0188,2021-10-15,13:36:45,14:39:53,NA,incomplete,false,true,NA,3,27,NA,gray,n_l_083.jpg,NA,NA,unpleasant,pleasant,NA,NA,NA,NA,NA,right,3224.79999995232,true,NA,NA,NA,NA,NA
piamzC27,33tgb4g0msu3alll9rtp1nk6wbyxtf,3ochawuvgsx6umts6kkzpgt2fh9kxt,piamzC27,2020-0188,2021-10-15,13:36:45,14:39:53,NA,incomplete,false,true,NA,3,28,NA,gray,m_l_018.jpg,NA,NA,unpleasant,pleasant,NA,NA,NA,NA,NA,right,1361.5,true,NA,NA,NA,NA,NA
piamzC27,33tgb4g0msu3alll9rtp1nk6wbyxtf,3ochawuvgsx6umts6kkzpgt2fh9kxt,piamzC27,2020-0188,2021-10-15,13:36:45,14:39:53,NA,incomplete,false,true,NA,3,29,NA,gray,m_s_007.jpg,NA,NA,pleasant,unpleasant,NA,NA,NA,NA,NA,none,0,false,NA,NA,NA,NA,NA
piamzC27,33tgb4g0msu3alll9rtp1nk6wbyxtf,3ochawuvgsx6umts6kkzpgt2fh9kxt,piamzC27,2020-0188,2021-10-15,13:36:45,14:39:53,NA,incomplete,false,true,NA,3,30,NA,red,m_s_021.jpg,NA,NA,unpleasant,pleasant,NA,NA,NA,NA,NA,right,2111.10000014305,true,NA,NA,NA,NA,NA
piamzC27,33tgb4g0msu3alll9rtp1nk6wbyxtf,3ochawuvgsx6umts6kkzpgt2fh9kxt,piamzC27,2020-0188,2021-10-15,13:36:45,14:39:53,NA,incomplete,false,true,NA,3,31,NA,red,n_l_109.jpg,NA,NA,unpleasant,pleasant,NA,NA,NA,NA,NA,right,2200.40000009537,true,NA,NA,NA,NA,NA
piamzC27,33tgb4g0msu3alll9rtp1nk6wbyxtf,3ochawuvgsx6umts6kkzpgt2fh9kxt,piamzC27,2020-0188,2021-10-15,13:36:45,14:39:53,NA,incomplete,false,true,NA,3,32,NA,red,m_s_107.jpg,NA,NA,pleasant,unpleasant,NA,NA,NA,NA,NA,left,1322.80000019073,true,NA,NA,NA,NA,NA
piamzC27,33tgb4g0msu3alll9rtp1nk6wbyxtf,3ochawuvgsx6umts6kkzpgt2fh9kxt,piamzC27,2020-0188,2021-10-15,13:36:45,14:39:53,NA,incomplete,false,true,NA,3,33,NA,red,m_l_107.jpg,NA,NA,unpleasant,pleasant,NA,NA,NA,NA,NA,left,1334.29999995232,true,NA,NA,NA,NA,NA
piamzC27,33tgb4g0msu3alll9rtp1nk6wbyxtf,3ochawuvgsx6umts6kkzpgt2fh9kxt,piamzC27,2020-0188,2021-10-15,13:36:45,14:39:53,NA,incomplete,false,true,NA,3,34,NA,red,m_s_026.jpg,NA,NA,unpleasant,pleasant,NA,NA,NA,NA,NA,left,1839,true,NA,NA,NA,NA,NA
piamzC27,33tgb4g0msu3alll9rtp1nk6wbyxtf,3ochawuvgsx6umts6kkzpgt2fh9kxt,piamzC27,2020-0188,2021-10-15,13:36:45,14:39:53,NA,incomplete,false,true,NA,3,35,NA,red,n_s_107.jpg,NA,NA,pleasant,unpleasant,NA,NA,NA,NA,NA,right,1384.80000019073,true,NA,NA,NA,NA,NA
piamzC27,33tgb4g0msu3alll9rtp1nk6wbyxtf,3ochawuvgsx6umts6kkzpgt2fh9kxt,piamzC27,2020-0188,2021-10-15,13:36:45,14:39:53,NA,incomplete,false,NA,true,3,0,NA,NA,NA,right,present,NA,NA,m_s_076.jpg,brown,n_l_070.jpg,black,between,NA,NaN,NA,right,1885.9000000953674,1,1,2278.2999999523163
piamzC27,33tgb4g0msu3alll9rtp1nk6wbyxtf,3ochawuvgsx6umts6kkzpgt2fh9kxt,piamzC27,2020-0188,2021-10-15,13:36:45,14:39:53,NA,incomplete,false,NA,true,3,1,NA,NA,NA,right,present,NA,NA,n_l_031.jpg,green,m_s_053.jpg,brown,between,NA,NaN,NA,right,3302,1,1,1102.2999999523163
piamzC27,33tgb4g0msu3alll9rtp1nk6wbyxtf,3ochawuvgsx6umts6kkzpgt2fh9kxt,piamzC27,2020-0188,2021-10-15,13:36:45,14:39:53,NA,incomplete,false,NA,true,3,2,NA,NA,NA,right,present,NA,NA,n_s_062.jpg,yellow,m_s_009.jpg,yellow,within,NA,NaN,NA,right,6614.299999952316,1,0,2351.399999856949
piamzC27,33tgb4g0msu3alll9rtp1nk6wbyxtf,3ochawuvgsx6umts6kkzpgt2fh9kxt,piamzC27,2020-0188,2021-10-15,13:36:45,14:39:53,NA,incomplete,false,NA,true,3,3,NA,NA,NA,left,present,NA,NA,n_s_085.jpg,brown,m_l_036.jpg,brown,within,NA,NaN,NA,right,3591.2999999523163,0,1,1167
piamzC27,33tgb4g0msu3alll9rtp1nk6wbyxtf,3ochawuvgsx6umts6kkzpgt2fh9kxt,piamzC27,2020-0188,2021-10-15,13:36:45,14:39:53,NA,incomplete,false,NA,true,3,4,NA,NA,NA,right,present,NA,NA,m_s_107.jpg,red,m_l_018.jpg,gray,between,NA,NaN,NA,right,4143.200000047684,1,1,1111.2000000476837
piamzC27,33tgb4g0msu3alll9rtp1nk6wbyxtf,3ochawuvgsx6umts6kkzpgt2fh9kxt,piamzC27,2020-0188,2021-10-15,13:36:45,14:39:53,NA,incomplete,false,NA,true,3,5,NA,NA,NA,right,present,NA,NA,m_s_007.jpg,gray,m_l_040.jpg,gray,within,NA,NaN,NA,right,3143.2999999523163,1,0,2615.2000000476837
piamzC27,33tgb4g0msu3alll9rtp1nk6wbyxtf,3ochawuvgsx6umts6kkzpgt2fh9kxt,piamzC27,2020-0188,2021-10-15,13:36:45,14:39:53,NA,incomplete,false,NA,true,3,6,NA,NA,NA,left,present,NA,NA,n_l_109.jpg,red,n_s_107.jpg,red,within,NA,NaN,NA,left,3679.0999999046326,1,1,2071.4000000953674
piamzC27,33tgb4g0msu3alll9rtp1nk6wbyxtf,3ochawuvgsx6umts6kkzpgt2fh9kxt,piamzC27,2020-0188,2021-10-15,13:36:45,14:39:53,NA,incomplete,false,NA,true,3,7,NA,NA,NA,right,present,NA,NA,n_l_106.jpg,gray,n_s_084.jpg,yellow,between,NA,NaN,NA,right,3999.5,1,1,3735.2000000476837
piamzC27,33tgb4g0msu3alll9rtp1nk6wbyxtf,3ochawuvgsx6umts6kkzpgt2fh9kxt,piamzC27,2020-0188,2021-10-15,13:36:45,14:39:53,NA,incomplete,false,NA,true,3,8,NA,NA,NA,right,present,NA,NA,n_s_066.jpg,black,m_s_089.jpg,black,within,NA,NaN,NA,right,4975.100000143051,1,1,2271.2000000476837
piamzC27,33tgb4g0msu3alll9rtp1nk6wbyxtf,3ochawuvgsx6umts6kkzpgt2fh9kxt,piamzC27,2020-0188,2021-10-15,13:36:45,14:39:53,NA,incomplete,false,NA,true,3,9,NA,NA,NA,left,present,NA,NA,m_l_076.jpg,green,n_l_052.jpg,green,within,NA,NaN,NA,left,3287.2000000476837,1,1,999.1000001430511
piamzC27,33tgb4g0msu3alll9rtp1nk6wbyxtf,3ochawuvgsx6umts6kkzpgt2fh9kxt,piamzC27,2020-0188,2021-10-15,13:36:45,14:39:53,NA,incomplete,false,NA,true,3,10,NA,NA,NA,right,present,NA,NA,m_s_106.jpg,yellow,n_l_092.jpg,green,between,NA,NaN,NA,right,6991.400000095367,1,1,831.0999999046326
piamzC27,33tgb4g0msu3alll9rtp1nk6wbyxtf,3ochawuvgsx6umts6kkzpgt2fh9kxt,piamzC27,2020-0188,2021-10-15,13:36:45,14:39:53,NA,incomplete,false,true,NA,4,0,NA,blue,m_l_080.jpg,NA,NA,unpleasant,pleasant,NA,NA,NA,NA,NA,right,2179.59999990463,true,NA,NA,NA,NA,NA
piamzC27,33tgb4g0msu3alll9rtp1nk6wbyxtf,3ochawuvgsx6umts6kkzpgt2fh9kxt,piamzC27,2020-0188,2021-10-15,13:36:45,14:39:53,NA,incomplete,false,true,NA,4,1,NA,blue,n_s_097.jpg,NA,NA,unpleasant,pleasant,NA,NA,NA,NA,NA,left,2222.20000004768,true,NA,NA,NA,NA,NA
piamzC27,33tgb4g0msu3alll9rtp1nk6wbyxtf,3ochawuvgsx6umts6kkzpgt2fh9kxt,piamzC27,2020-0188,2021-10-15,13:36:45,14:39:53,NA,incomplete,false,true,NA,4,2,NA,blue,n_s_034.jpg,NA,NA,pleasant,unpleasant,NA,NA,NA,NA,NA,right,1729.20000004768,true,NA,NA,NA,NA,NA
piamzC27,33tgb4g0msu3alll9rtp1nk6wbyxtf,3ochawuvgsx6umts6kkzpgt2fh9kxt,piamzC27,2020-0188,2021-10-15,13:36:45,14:39:53,NA,incomplete,false,true,NA,4,3,NA,blue,m_l_088.jpg,NA,NA,unpleasant,pleasant,NA,NA,NA,NA,NA,left,1170.70000004768,true,NA,NA,NA,NA,NA
piamzC27,33tgb4g0msu3alll9rtp1nk6wbyxtf,3ochawuvgsx6umts6kkzpgt2fh9kxt,piamzC27,2020-0188,2021-10-15,13:36:45,14:39:53,NA,incomplete,false,true,NA,4,4,NA,blue,m_s_012.jpg,NA,NA,pleasant,unpleasant,NA,NA,NA,NA,NA,left,2220.29999995232,true,NA,NA,NA,NA,NA
piamzC27,33tgb4g0msu3alll9rtp1nk6wbyxtf,3ochawuvgsx6umts6kkzpgt2fh9kxt,piamzC27,2020-0188,2021-10-15,13:36:45,14:39:53,NA,incomplete,false,true,NA,4,5,NA,blue,n_s_011.jpg,NA,NA,unpleasant,pleasant,NA,NA,NA,NA,NA,right,1615.19999980927,true,NA,NA,NA,NA,NA
piamzC27,33tgb4g0msu3alll9rtp1nk6wbyxtf,3ochawuvgsx6umts6kkzpgt2fh9kxt,piamzC27,2020-0188,2021-10-15,13:36:45,14:39:53,NA,incomplete,false,true,NA,4,6,NA,gray,m_l_011.jpg,NA,NA,pleasant,unpleasant,NA,NA,NA,NA,NA,left,2495.5,true,NA,NA,NA,NA,NA
piamzC27,33tgb4g0msu3alll9rtp1nk6wbyxtf,3ochawuvgsx6umts6kkzpgt2fh9kxt,piamzC27,2020-0188,2021-10-15,13:36:45,14:39:53,NA,incomplete,false,true,NA,4,7,NA,gray,m_l_042.jpg,NA,NA,pleasant,unpleasant,NA,NA,NA,NA,NA,left,2091.29999995232,true,NA,NA,NA,NA,NA
piamzC27,33tgb4g0msu3alll9rtp1nk6wbyxtf,3ochawuvgsx6umts6kkzpgt2fh9kxt,piamzC27,2020-0188,2021-10-15,13:36:45,14:39:53,NA,incomplete,false,true,NA,4,8,NA,gray,n_s_098.jpg,NA,NA,unpleasant,pleasant,NA,NA,NA,NA,NA,right,1679,true,NA,NA,NA,NA,NA
piamzC27,33tgb4g0msu3alll9rtp1nk6wbyxtf,3ochawuvgsx6umts6kkzpgt2fh9kxt,piamzC27,2020-0188,2021-10-15,13:36:45,14:39:53,NA,incomplete,false,true,NA,4,9,NA,gray,m_l_054.jpg,NA,NA,pleasant,unpleasant,NA,NA,NA,NA,NA,left,1232.09999990463,true,NA,NA,NA,NA,NA
piamzC27,33tgb4g0msu3alll9rtp1nk6wbyxtf,3ochawuvgsx6umts6kkzpgt2fh9kxt,piamzC27,2020-0188,2021-10-15,13:36:45,14:39:53,NA,incomplete,false,true,NA,4,10,NA,gray,n_s_016.jpg,NA,NA,pleasant,unpleasant,NA,NA,NA,NA,NA,right,1594.20000004768,true,NA,NA,NA,NA,NA
piamzC27,33tgb4g0msu3alll9rtp1nk6wbyxtf,3ochawuvgsx6umts6kkzpgt2fh9kxt,piamzC27,2020-0188,2021-10-15,13:36:45,14:39:53,NA,incomplete,false,true,NA,4,11,NA,gray,n_l_001.jpg,NA,NA,unpleasant,pleasant,NA,NA,NA,NA,NA,right,2181,true,NA,NA,NA,NA,NA
piamzC27,33tgb4g0msu3alll9rtp1nk6wbyxtf,3ochawuvgsx6umts6kkzpgt2fh9kxt,piamzC27,2020-0188,2021-10-15,13:36:45,14:39:53,NA,incomplete,false,true,NA,4,12,NA,purple,m_s_077.jpg,NA,NA,unpleasant,pleasant,NA,NA,NA,NA,NA,right,2855.39999985695,true,NA,NA,NA,NA,NA
piamzC27,33tgb4g0msu3alll9rtp1nk6wbyxtf,3ochawuvgsx6umts6kkzpgt2fh9kxt,piamzC27,2020-0188,2021-10-15,13:36:45,14:39:53,NA,incomplete,false,true,NA,4,13,NA,purple,n_s_047.jpg,NA,NA,pleasant,unpleasant,NA,NA,NA,NA,NA,left,2401.29999995232,true,NA,NA,NA,NA,NA
piamzC27,33tgb4g0msu3alll9rtp1nk6wbyxtf,3ochawuvgsx6umts6kkzpgt2fh9kxt,piamzC27,2020-0188,2021-10-15,13:36:45,14:39:53,NA,incomplete,false,true,NA,4,14,NA,purple,n_l_040.jpg,NA,NA,unpleasant,pleasant,NA,NA,NA,NA,NA,left,1556.69999980927,true,NA,NA,NA,NA,NA
piamzC27,33tgb4g0msu3alll9rtp1nk6wbyxtf,3ochawuvgsx6umts6kkzpgt2fh9kxt,piamzC27,2020-0188,2021-10-15,13:36:45,14:39:53,NA,incomplete,false,true,NA,4,15,NA,purple,m_s_085.jpg,NA,NA,unpleasant,pleasant,NA,NA,NA,NA,NA,left,1613.40000009537,true,NA,NA,NA,NA,NA
piamzC27,33tgb4g0msu3alll9rtp1nk6wbyxtf,3ochawuvgsx6umts6kkzpgt2fh9kxt,piamzC27,2020-0188,2021-10-15,13:36:45,14:39:53,NA,incomplete,false,true,NA,4,16,NA,purple,m_s_067.jpg,NA,NA,pleasant,unpleasant,NA,NA,NA,NA,NA,right,1856,true,NA,NA,NA,NA,NA
piamzC27,33tgb4g0msu3alll9rtp1nk6wbyxtf,3ochawuvgsx6umts6kkzpgt2fh9kxt,piamzC27,2020-0188,2021-10-15,13:36:45,14:39:53,NA,incomplete,false,true,NA,4,17,NA,purple,m_l_015.jpg,NA,NA,pleasant,unpleasant,NA,NA,NA,NA,NA,right,1491,true,NA,NA,NA,NA,NA
piamzC27,33tgb4g0msu3alll9rtp1nk6wbyxtf,3ochawuvgsx6umts6kkzpgt2fh9kxt,piamzC27,2020-0188,2021-10-15,13:36:45,14:39:53,NA,incomplete,false,true,NA,4,18,NA,black,m_l_093.jpg,NA,NA,pleasant,unpleasant,NA,NA,NA,NA,NA,right,2500,true,NA,NA,NA,NA,NA
piamzC27,33tgb4g0msu3alll9rtp1nk6wbyxtf,3ochawuvgsx6umts6kkzpgt2fh9kxt,piamzC27,2020-0188,2021-10-15,13:36:45,14:39:53,NA,incomplete,false,true,NA,4,19,NA,black,m_l_102.jpg,NA,NA,unpleasant,pleasant,NA,NA,NA,NA,NA,left,1974.5,true,NA,NA,NA,NA,NA
piamzC27,33tgb4g0msu3alll9rtp1nk6wbyxtf,3ochawuvgsx6umts6kkzpgt2fh9kxt,piamzC27,2020-0188,2021-10-15,13:36:45,14:39:53,NA,incomplete,false,true,NA,4,20,NA,black,n_s_002.jpg,NA,NA,pleasant,unpleasant,NA,NA,NA,NA,NA,left,1530.19999980927,true,NA,NA,NA,NA,NA
piamzC27,33tgb4g0msu3alll9rtp1nk6wbyxtf,3ochawuvgsx6umts6kkzpgt2fh9kxt,piamzC27,2020-0188,2021-10-15,13:36:45,14:39:53,NA,incomplete,false,true,NA,4,21,NA,black,m_s_093.jpg,NA,NA,unpleasant,pleasant,NA,NA,NA,NA,NA,right,1203.5,true,NA,NA,NA,NA,NA
piamzC27,33tgb4g0msu3alll9rtp1nk6wbyxtf,3ochawuvgsx6umts6kkzpgt2fh9kxt,piamzC27,2020-0188,2021-10-15,13:36:45,14:39:53,NA,incomplete,false,true,NA,4,22,NA,black,m_s_037.jpg,NA,NA,pleasant,unpleasant,NA,NA,NA,NA,NA,left,1341.30000019073,true,NA,NA,NA,NA,NA
piamzC27,33tgb4g0msu3alll9rtp1nk6wbyxtf,3ochawuvgsx6umts6kkzpgt2fh9kxt,piamzC27,2020-0188,2021-10-15,13:36:45,14:39:53,NA,incomplete,false,true,NA,4,23,NA,black,n_l_085.jpg,NA,NA,unpleasant,pleasant,NA,NA,NA,NA,NA,right,1737,true,NA,NA,NA,NA,NA
piamzC27,33tgb4g0msu3alll9rtp1nk6wbyxtf,3ochawuvgsx6umts6kkzpgt2fh9kxt,piamzC27,2020-0188,2021-10-15,13:36:45,14:39:53,NA,incomplete,false,true,NA,4,24,NA,white,m_s_058.jpg,NA,NA,pleasant,unpleasant,NA,NA,NA,NA,NA,left,1522.09999990463,true,NA,NA,NA,NA,NA
piamzC27,33tgb4g0msu3alll9rtp1nk6wbyxtf,3ochawuvgsx6umts6kkzpgt2fh9kxt,piamzC27,2020-0188,2021-10-15,13:36:45,14:39:53,NA,incomplete,false,true,NA,4,25,NA,white,n_l_095.jpg,NA,NA,unpleasant,pleasant,NA,NA,NA,NA,NA,right,2764.5,true,NA,NA,NA,NA,NA
piamzC27,33tgb4g0msu3alll9rtp1nk6wbyxtf,3ochawuvgsx6umts6kkzpgt2fh9kxt,piamzC27,2020-0188,2021-10-15,13:36:45,14:39:53,NA,incomplete,false,true,NA,4,26,NA,white,m_l_012.jpg,NA,NA,unpleasant,pleasant,NA,NA,NA,NA,NA,right,1989.79999995232,true,NA,NA,NA,NA,NA
piamzC27,33tgb4g0msu3alll9rtp1nk6wbyxtf,3ochawuvgsx6umts6kkzpgt2fh9kxt,piamzC27,2020-0188,2021-10-15,13:36:45,14:39:53,NA,incomplete,false,true,NA,4,27,NA,white,n_l_079.jpg,NA,NA,pleasant,unpleasant,NA,NA,NA,NA,NA,left,2151.5,true,NA,NA,NA,NA,NA
piamzC27,33tgb4g0msu3alll9rtp1nk6wbyxtf,3ochawuvgsx6umts6kkzpgt2fh9kxt,piamzC27,2020-0188,2021-10-15,13:36:45,14:39:53,NA,incomplete,false,true,NA,4,28,NA,white,m_s_116.jpg,NA,NA,pleasant,unpleasant,NA,NA,NA,NA,NA,left,1451.39999985695,true,NA,NA,NA,NA,NA
piamzC27,33tgb4g0msu3alll9rtp1nk6wbyxtf,3ochawuvgsx6umts6kkzpgt2fh9kxt,piamzC27,2020-0188,2021-10-15,13:36:45,14:39:53,NA,incomplete,false,true,NA,4,29,NA,white,m_l_095.jpg,NA,NA,pleasant,unpleasant,NA,NA,NA,NA,NA,left,2123.89999985695,true,NA,NA,NA,NA,NA
piamzC27,33tgb4g0msu3alll9rtp1nk6wbyxtf,3ochawuvgsx6umts6kkzpgt2fh9kxt,piamzC27,2020-0188,2021-10-15,13:36:45,14:39:53,NA,incomplete,false,true,NA,4,30,NA,orange,n_s_109.jpg,NA,NA,pleasant,unpleasant,NA,NA,NA,NA,NA,right,1884.90000009537,true,NA,NA,NA,NA,NA
piamzC27,33tgb4g0msu3alll9rtp1nk6wbyxtf,3ochawuvgsx6umts6kkzpgt2fh9kxt,piamzC27,2020-0188,2021-10-15,13:36:45,14:39:53,NA,incomplete,false,true,NA,4,31,NA,orange,n_l_002.jpg,NA,NA,unpleasant,pleasant,NA,NA,NA,NA,NA,left,1912.89999985695,true,NA,NA,NA,NA,NA
piamzC27,33tgb4g0msu3alll9rtp1nk6wbyxtf,3ochawuvgsx6umts6kkzpgt2fh9kxt,piamzC27,2020-0188,2021-10-15,13:36:45,14:39:53,NA,incomplete,false,true,NA,4,32,NA,orange,n_l_098.jpg,NA,NA,pleasant,unpleasant,NA,NA,NA,NA,NA,right,1729.60000014305,true,NA,NA,NA,NA,NA
piamzC27,33tgb4g0msu3alll9rtp1nk6wbyxtf,3ochawuvgsx6umts6kkzpgt2fh9kxt,piamzC27,2020-0188,2021-10-15,13:36:45,14:39:53,NA,incomplete,false,true,NA,4,33,NA,orange,m_l_101.jpg,NA,NA,pleasant,unpleasant,NA,NA,NA,NA,NA,right,1196.5,true,NA,NA,NA,NA,NA
piamzC27,33tgb4g0msu3alll9rtp1nk6wbyxtf,3ochawuvgsx6umts6kkzpgt2fh9kxt,piamzC27,2020-0188,2021-10-15,13:36:45,14:39:53,NA,incomplete,false,true,NA,4,34,NA,orange,n_l_093.jpg,NA,NA,unpleasant,pleasant,NA,NA,NA,NA,NA,left,1200.10000014305,true,NA,NA,NA,NA,NA
piamzC27,33tgb4g0msu3alll9rtp1nk6wbyxtf,3ochawuvgsx6umts6kkzpgt2fh9kxt,piamzC27,2020-0188,2021-10-15,13:36:45,14:39:53,NA,incomplete,false,true,NA,4,35,NA,orange,n_l_067.jpg,NA,NA,pleasant,unpleasant,NA,NA,NA,NA,NA,right,1697.29999995232,true,NA,NA,NA,NA,NA
piamzC27,33tgb4g0msu3alll9rtp1nk6wbyxtf,3ochawuvgsx6umts6kkzpgt2fh9kxt,piamzC27,2020-0188,2021-10-15,13:36:45,14:39:53,NA,incomplete,false,NA,true,4,0,NA,NA,NA,right,present,NA,NA,n_l_001.jpg,gray,m_l_042.jpg,gray,within,NA,NaN,NA,right,2911,1,1,999.1000001430511
piamzC27,33tgb4g0msu3alll9rtp1nk6wbyxtf,3ochawuvgsx6umts6kkzpgt2fh9kxt,piamzC27,2020-0188,2021-10-15,13:36:45,14:39:53,NA,incomplete,false,NA,true,4,1,NA,NA,NA,right,present,NA,NA,m_l_015.jpg,purple,n_s_047.jpg,purple,within,NA,NaN,NA,left,5519.200000047684,0,1,1927
piamzC27,33tgb4g0msu3alll9rtp1nk6wbyxtf,3ochawuvgsx6umts6kkzpgt2fh9kxt,piamzC27,2020-0188,2021-10-15,13:36:45,14:39:53,NA,incomplete,false,NA,true,4,2,NA,NA,NA,right,present,NA,NA,m_l_012.jpg,white,m_s_037.jpg,black,between,NA,NaN,NA,right,4735,1,1,1063.5
piamzC27,33tgb4g0msu3alll9rtp1nk6wbyxtf,3ochawuvgsx6umts6kkzpgt2fh9kxt,piamzC27,2020-0188,2021-10-15,13:36:45,14:39:53,NA,incomplete,false,NA,true,4,3,NA,NA,NA,right,present,NA,NA,n_l_085.jpg,black,m_l_102.jpg,black,within,NA,NaN,NA,right,2767.5999999046326,1,1,1607.0999999046326
piamzC27,33tgb4g0msu3alll9rtp1nk6wbyxtf,3ochawuvgsx6umts6kkzpgt2fh9kxt,piamzC27,2020-0188,2021-10-15,13:36:45,14:39:53,NA,incomplete,false,NA,true,4,4,NA,NA,NA,right,present,NA,NA,n_s_098.jpg,gray,m_s_012.jpg,blue,between,NA,NaN,NA,right,3374.899999856949,1,1,2559.0999999046326
piamzC27,33tgb4g0msu3alll9rtp1nk6wbyxtf,3ochawuvgsx6umts6kkzpgt2fh9kxt,piamzC27,2020-0188,2021-10-15,13:36:45,14:39:53,NA,incomplete,false,NA,true,4,5,NA,NA,NA,left,present,NA,NA,m_s_067.jpg,purple,n_s_002.jpg,black,between,NA,NaN,NA,left,3783.0999999046326,1,1,5430.899999856949
piamzC27,33tgb4g0msu3alll9rtp1nk6wbyxtf,3ochawuvgsx6umts6kkzpgt2fh9kxt,piamzC27,2020-0188,2021-10-15,13:36:45,14:39:53,NA,incomplete,false,NA,true,4,6,NA,NA,NA,left,present,NA,NA,n_s_016.jpg,gray,n_l_040.jpg,purple,between,NA,NaN,NA,left,3527.100000143051,1,1,958.7999999523163
piamzC27,33tgb4g0msu3alll9rtp1nk6wbyxtf,3ochawuvgsx6umts6kkzpgt2fh9kxt,piamzC27,2020-0188,2021-10-15,13:36:45,14:39:53,NA,incomplete,false,NA,true,4,7,NA,NA,NA,left,present,NA,NA,n_l_095.jpg,white,m_l_095.jpg,white,within,NA,NaN,NA,left,3183.0999999046326,1,1,1511.2000000476837
piamzC27,33tgb4g0msu3alll9rtp1nk6wbyxtf,3ochawuvgsx6umts6kkzpgt2fh9kxt,piamzC27,2020-0188,2021-10-15,13:36:45,14:39:53,NA,incomplete,false,NA,true,4,8,NA,NA,NA,right,present,NA,NA,n_s_011.jpg,blue,n_s_097.jpg,blue,within,NA,NaN,NA,right,3951.0999999046326,1,1,1199.1000001430511
piamzC27,33tgb4g0msu3alll9rtp1nk6wbyxtf,3ochawuvgsx6umts6kkzpgt2fh9kxt,piamzC27,2020-0188,2021-10-15,13:36:45,14:39:53,NA,incomplete,false,NA,true,4,9,NA,NA,NA,left,present,NA,NA,n_l_002.jpg,orange,n_l_067.jpg,orange,within,NA,NaN,NA,left,3143.2000000476837,1,1,1071.0999999046326
piamzC27,33tgb4g0msu3alll9rtp1nk6wbyxtf,3ochawuvgsx6umts6kkzpgt2fh9kxt,piamzC27,2020-0188,2021-10-15,13:36:45,14:39:53,NA,incomplete,false,NA,true,4,10,NA,NA,NA,left,present,NA,NA,m_s_116.jpg,white,n_l_098.jpg,orange,between,NA,NaN,NA,left,3767.199999809265,1,1,1039.2000000476837
piamzC27,33tgb4g0msu3alll9rtp1nk6wbyxtf,3ochawuvgsx6umts6kkzpgt2fh9kxt,piamzC27,2020-0188,2021-10-15,13:36:45,14:39:53,NA,incomplete,false,true,NA,5,0,NA,red,m_l_084.jpg,NA,NA,pleasant,unpleasant,NA,NA,NA,NA,NA,right,2320.09999990463,true,NA,NA,NA,NA,NA
piamzC27,33tgb4g0msu3alll9rtp1nk6wbyxtf,3ochawuvgsx6umts6kkzpgt2fh9kxt,piamzC27,2020-0188,2021-10-15,13:36:45,14:39:53,NA,incomplete,false,true,NA,5,1,NA,red,m_s_108.jpg,NA,NA,pleasant,unpleasant,NA,NA,NA,NA,NA,left,2457.90000009537,true,NA,NA,NA,NA,NA
piamzC27,33tgb4g0msu3alll9rtp1nk6wbyxtf,3ochawuvgsx6umts6kkzpgt2fh9kxt,piamzC27,2020-0188,2021-10-15,13:36:45,14:39:53,NA,incomplete,false,true,NA,5,2,NA,red,m_l_002.jpg,NA,NA,unpleasant,pleasant,NA,NA,NA,NA,NA,left,1061.29999995232,true,NA,NA,NA,NA,NA
piamzC27,33tgb4g0msu3alll9rtp1nk6wbyxtf,3ochawuvgsx6umts6kkzpgt2fh9kxt,piamzC27,2020-0188,2021-10-15,13:36:45,14:39:53,NA,incomplete,false,true,NA,5,3,NA,red,m_s_051.jpg,NA,NA,pleasant,unpleasant,NA,NA,NA,NA,NA,right,1862.29999995232,true,NA,NA,NA,NA,NA
piamzC27,33tgb4g0msu3alll9rtp1nk6wbyxtf,3ochawuvgsx6umts6kkzpgt2fh9kxt,piamzC27,2020-0188,2021-10-15,13:36:45,14:39:53,NA,incomplete,false,true,NA,5,4,NA,red,m_s_114.jpg,NA,NA,pleasant,unpleasant,NA,NA,NA,NA,NA,right,1753.09999990463,true,NA,NA,NA,NA,NA
piamzC27,33tgb4g0msu3alll9rtp1nk6wbyxtf,3ochawuvgsx6umts6kkzpgt2fh9kxt,piamzC27,2020-0188,2021-10-15,13:36:45,14:39:53,NA,incomplete,false,true,NA,5,5,NA,red,n_l_018.jpg,NA,NA,pleasant,unpleasant,NA,NA,NA,NA,NA,left,3268.09999990463,true,NA,NA,NA,NA,NA
piamzC27,33tgb4g0msu3alll9rtp1nk6wbyxtf,3ochawuvgsx6umts6kkzpgt2fh9kxt,piamzC27,2020-0188,2021-10-15,13:36:45,14:39:53,NA,incomplete,false,true,NA,5,6,NA,orange,n_l_022.jpg,NA,NA,pleasant,unpleasant,NA,NA,NA,NA,NA,right,1989.40000009537,true,NA,NA,NA,NA,NA
piamzC27,33tgb4g0msu3alll9rtp1nk6wbyxtf,3ochawuvgsx6umts6kkzpgt2fh9kxt,piamzC27,2020-0188,2021-10-15,13:36:45,14:39:53,NA,incomplete,false,true,NA,5,7,NA,orange,n_s_104.jpg,NA,NA,unpleasant,pleasant,NA,NA,NA,NA,NA,left,2231.90000009537,true,NA,NA,NA,NA,NA
piamzC27,33tgb4g0msu3alll9rtp1nk6wbyxtf,3ochawuvgsx6umts6kkzpgt2fh9kxt,piamzC27,2020-0188,2021-10-15,13:36:45,14:39:53,NA,incomplete,false,true,NA,5,8,NA,orange,m_s_029.jpg,NA,NA,unpleasant,pleasant,NA,NA,NA,NA,NA,right,2322.79999995232,true,NA,NA,NA,NA,NA
piamzC27,33tgb4g0msu3alll9rtp1nk6wbyxtf,3ochawuvgsx6umts6kkzpgt2fh9kxt,piamzC27,2020-0188,2021-10-15,13:36:45,14:39:53,NA,incomplete,false,true,NA,5,9,NA,orange,m_s_038.jpg,NA,NA,unpleasant,pleasant,NA,NA,NA,NA,NA,right,1203.40000009537,true,NA,NA,NA,NA,NA
piamzC27,33tgb4g0msu3alll9rtp1nk6wbyxtf,3ochawuvgsx6umts6kkzpgt2fh9kxt,piamzC27,2020-0188,2021-10-15,13:36:45,14:39:53,NA,incomplete,false,true,NA,5,10,NA,orange,m_l_056.jpg,NA,NA,unpleasant,pleasant,NA,NA,NA,NA,NA,right,740.900000095367,true,NA,NA,NA,NA,NA
piamzC27,33tgb4g0msu3alll9rtp1nk6wbyxtf,3ochawuvgsx6umts6kkzpgt2fh9kxt,piamzC27,2020-0188,2021-10-15,13:36:45,14:39:53,NA,incomplete,false,true,NA,5,11,NA,orange,n_s_088.jpg,NA,NA,unpleasant,pleasant,NA,NA,NA,NA,NA,right,849,true,NA,NA,NA,NA,NA
piamzC27,33tgb4g0msu3alll9rtp1nk6wbyxtf,3ochawuvgsx6umts6kkzpgt2fh9kxt,piamzC27,2020-0188,2021-10-15,13:36:45,14:39:53,NA,incomplete,false,true,NA,5,12,NA,purple,m_s_006.jpg,NA,NA,pleasant,unpleasant,NA,NA,NA,NA,NA,left,2306.30000019073,true,NA,NA,NA,NA,NA
piamzC27,33tgb4g0msu3alll9rtp1nk6wbyxtf,3ochawuvgsx6umts6kkzpgt2fh9kxt,piamzC27,2020-0188,2021-10-15,13:36:45,14:39:53,NA,incomplete,false,true,NA,5,13,NA,purple,m_l_004.jpg,NA,NA,pleasant,unpleasant,NA,NA,NA,NA,NA,right,2613.29999995232,true,NA,NA,NA,NA,NA
piamzC27,33tgb4g0msu3alll9rtp1nk6wbyxtf,3ochawuvgsx6umts6kkzpgt2fh9kxt,piamzC27,2020-0188,2021-10-15,13:36:45,14:39:53,NA,incomplete,false,true,NA,5,14,NA,purple,m_s_104.jpg,NA,NA,unpleasant,pleasant,NA,NA,NA,NA,NA,left,1406,true,NA,NA,NA,NA,NA
piamzC27,33tgb4g0msu3alll9rtp1nk6wbyxtf,3ochawuvgsx6umts6kkzpgt2fh9kxt,piamzC27,2020-0188,2021-10-15,13:36:45,14:39:53,NA,incomplete,false,true,NA,5,15,NA,purple,m_l_077.jpg,NA,NA,pleasant,unpleasant,NA,NA,NA,NA,NA,right,1735.5,true,NA,NA,NA,NA,NA
piamzC27,33tgb4g0msu3alll9rtp1nk6wbyxtf,3ochawuvgsx6umts6kkzpgt2fh9kxt,piamzC27,2020-0188,2021-10-15,13:36:45,14:39:53,NA,incomplete,false,true,NA,5,16,NA,purple,n_l_029.jpg,NA,NA,pleasant,unpleasant,NA,NA,NA,NA,NA,right,1747,true,NA,NA,NA,NA,NA
piamzC27,33tgb4g0msu3alll9rtp1nk6wbyxtf,3ochawuvgsx6umts6kkzpgt2fh9kxt,piamzC27,2020-0188,2021-10-15,13:36:45,14:39:53,NA,incomplete,false,true,NA,5,17,NA,purple,m_l_023.jpg,NA,NA,pleasant,unpleasant,NA,NA,NA,NA,NA,right,1972.40000009537,true,NA,NA,NA,NA,NA
piamzC27,33tgb4g0msu3alll9rtp1nk6wbyxtf,3ochawuvgsx6umts6kkzpgt2fh9kxt,piamzC27,2020-0188,2021-10-15,13:36:45,14:39:53,NA,incomplete,false,true,NA,5,18,NA,yellow,n_l_023.jpg,NA,NA,pleasant,unpleasant,NA,NA,NA,NA,NA,left,2014,true,NA,NA,NA,NA,NA
piamzC27,33tgb4g0msu3alll9rtp1nk6wbyxtf,3ochawuvgsx6umts6kkzpgt2fh9kxt,piamzC27,2020-0188,2021-10-15,13:36:45,14:39:53,NA,incomplete,false,true,NA,5,19,NA,yellow,n_s_033.jpg,NA,NA,pleasant,unpleasant,NA,NA,NA,NA,NA,right,2466.20000004768,true,NA,NA,NA,NA,NA
piamzC27,33tgb4g0msu3alll9rtp1nk6wbyxtf,3ochawuvgsx6umts6kkzpgt2fh9kxt,piamzC27,2020-0188,2021-10-15,13:36:45,14:39:53,NA,incomplete,false,true,NA,5,20,NA,yellow,n_s_101.jpg,NA,NA,unpleasant,pleasant,NA,NA,NA,NA,NA,left,1468.09999990463,true,NA,NA,NA,NA,NA
piamzC27,33tgb4g0msu3alll9rtp1nk6wbyxtf,3ochawuvgsx6umts6kkzpgt2fh9kxt,piamzC27,2020-0188,2021-10-15,13:36:45,14:39:53,NA,incomplete,false,true,NA,5,21,NA,yellow,n_l_061.jpg,NA,NA,unpleasant,pleasant,NA,NA,NA,NA,NA,left,1621.90000009537,true,NA,NA,NA,NA,NA
piamzC27,33tgb4g0msu3alll9rtp1nk6wbyxtf,3ochawuvgsx6umts6kkzpgt2fh9kxt,piamzC27,2020-0188,2021-10-15,13:36:45,14:39:53,NA,incomplete,false,true,NA,5,22,NA,yellow,m_s_086.jpg,NA,NA,unpleasant,pleasant,NA,NA,NA,NA,NA,right,1384.90000009537,true,NA,NA,NA,NA,NA
piamzC27,33tgb4g0msu3alll9rtp1nk6wbyxtf,3ochawuvgsx6umts6kkzpgt2fh9kxt,piamzC27,2020-0188,2021-10-15,13:36:45,14:39:53,NA,incomplete,false,true,NA,5,23,NA,yellow,n_l_010.jpg,NA,NA,unpleasant,pleasant,NA,NA,NA,NA,NA,left,1841.29999995232,true,NA,NA,NA,NA,NA
piamzC27,33tgb4g0msu3alll9rtp1nk6wbyxtf,3ochawuvgsx6umts6kkzpgt2fh9kxt,piamzC27,2020-0188,2021-10-15,13:36:45,14:39:53,NA,incomplete,false,true,NA,5,24,NA,gray,n_l_053.jpg,NA,NA,pleasant,unpleasant,NA,NA,NA,NA,NA,left,2436.80000019073,true,NA,NA,NA,NA,NA
piamzC27,33tgb4g0msu3alll9rtp1nk6wbyxtf,3ochawuvgsx6umts6kkzpgt2fh9kxt,piamzC27,2020-0188,2021-10-15,13:36:45,14:39:53,NA,incomplete,false,true,NA,5,25,NA,gray,m_l_075.jpg,NA,NA,pleasant,unpleasant,NA,NA,NA,NA,NA,right,2285.70000004768,true,NA,NA,NA,NA,NA
piamzC27,33tgb4g0msu3alll9rtp1nk6wbyxtf,3ochawuvgsx6umts6kkzpgt2fh9kxt,piamzC27,2020-0188,2021-10-15,13:36:45,14:39:53,NA,incomplete,false,true,NA,5,26,NA,gray,n_s_095.jpg,NA,NA,unpleasant,pleasant,NA,NA,NA,NA,NA,right,1494.89999985695,true,NA,NA,NA,NA,NA
piamzC27,33tgb4g0msu3alll9rtp1nk6wbyxtf,3ochawuvgsx6umts6kkzpgt2fh9kxt,piamzC27,2020-0188,2021-10-15,13:36:45,14:39:53,NA,incomplete,false,true,NA,5,27,NA,gray,m_s_098.jpg,NA,NA,unpleasant,pleasant,NA,NA,NA,NA,NA,right,1651,true,NA,NA,NA,NA,NA
piamzC27,33tgb4g0msu3alll9rtp1nk6wbyxtf,3ochawuvgsx6umts6kkzpgt2fh9kxt,piamzC27,2020-0188,2021-10-15,13:36:45,14:39:53,NA,incomplete,false,true,NA,5,28,NA,gray,m_s_023.jpg,NA,NA,unpleasant,pleasant,NA,NA,NA,NA,NA,right,1252.09999990463,true,NA,NA,NA,NA,NA
piamzC27,33tgb4g0msu3alll9rtp1nk6wbyxtf,3ochawuvgsx6umts6kkzpgt2fh9kxt,piamzC27,2020-0188,2021-10-15,13:36:45,14:39:53,NA,incomplete,false,true,NA,5,29,NA,gray,n_s_009.jpg,NA,NA,unpleasant,pleasant,NA,NA,NA,NA,NA,left,1509.70000004768,true,NA,NA,NA,NA,NA
piamzC27,33tgb4g0msu3alll9rtp1nk6wbyxtf,3ochawuvgsx6umts6kkzpgt2fh9kxt,piamzC27,2020-0188,2021-10-15,13:36:45,14:39:53,NA,incomplete,false,true,NA,5,30,NA,white,n_s_053.jpg,NA,NA,unpleasant,pleasant,NA,NA,NA,NA,NA,left,1665.5,true,NA,NA,NA,NA,NA
piamzC27,33tgb4g0msu3alll9rtp1nk6wbyxtf,3ochawuvgsx6umts6kkzpgt2fh9kxt,piamzC27,2020-0188,2021-10-15,13:36:45,14:39:53,NA,incomplete,false,true,NA,5,31,NA,white,n_s_112.jpg,NA,NA,unpleasant,pleasant,NA,NA,NA,NA,NA,right,1810.90000009537,true,NA,NA,NA,NA,NA
piamzC27,33tgb4g0msu3alll9rtp1nk6wbyxtf,3ochawuvgsx6umts6kkzpgt2fh9kxt,piamzC27,2020-0188,2021-10-15,13:36:45,14:39:53,NA,incomplete,false,true,NA,5,32,NA,white,m_l_005.jpg,NA,NA,pleasant,unpleasant,NA,NA,NA,NA,NA,left,1757.70000004768,true,NA,NA,NA,NA,NA
piamzC27,33tgb4g0msu3alll9rtp1nk6wbyxtf,3ochawuvgsx6umts6kkzpgt2fh9kxt,piamzC27,2020-0188,2021-10-15,13:36:45,14:39:53,NA,incomplete,false,true,NA,5,33,NA,white,n_s_086.jpg,NA,NA,pleasant,unpleasant,NA,NA,NA,NA,NA,left,1376.70000004768,true,NA,NA,NA,NA,NA
piamzC27,33tgb4g0msu3alll9rtp1nk6wbyxtf,3ochawuvgsx6umts6kkzpgt2fh9kxt,piamzC27,2020-0188,2021-10-15,13:36:45,14:39:53,NA,incomplete,false,true,NA,5,34,NA,white,m_l_071.jpg,NA,NA,unpleasant,pleasant,NA,NA,NA,NA,NA,right,1458.09999990463,true,NA,NA,NA,NA,NA
piamzC27,33tgb4g0msu3alll9rtp1nk6wbyxtf,3ochawuvgsx6umts6kkzpgt2fh9kxt,piamzC27,2020-0188,2021-10-15,13:36:45,14:39:53,NA,incomplete,false,true,NA,5,35,NA,white,m_l_100.jpg,NA,NA,pleasant,unpleasant,NA,NA,NA,NA,NA,left,1428.70000004768,true,NA,NA,NA,NA,NA
piamzC27,33tgb4g0msu3alll9rtp1nk6wbyxtf,3ochawuvgsx6umts6kkzpgt2fh9kxt,piamzC27,2020-0188,2021-10-15,13:36:45,14:39:53,NA,incomplete,false,NA,true,5,0,NA,NA,NA,right,absent,NA,NA,n_l_018.jpg,red,m_s_108.jpg,red,within,NA,NaN,NA,right,4173.700000047684,1,1,1269.9000000953674
piamzC27,33tgb4g0msu3alll9rtp1nk6wbyxtf,3ochawuvgsx6umts6kkzpgt2fh9kxt,piamzC27,2020-0188,2021-10-15,13:36:45,14:39:53,NA,incomplete,false,NA,true,5,1,NA,NA,NA,left,absent,NA,NA,m_s_023.jpg,gray,m_l_005.jpg,white,between,NA,NaN,NA,right,3694.100000143051,0,1,919.4000000953674
piamzC27,33tgb4g0msu3alll9rtp1nk6wbyxtf,3ochawuvgsx6umts6kkzpgt2fh9kxt,piamzC27,2020-0188,2021-10-15,13:36:45,14:39:53,NA,incomplete,false,NA,true,5,2,NA,NA,NA,left,absent,NA,NA,m_l_056.jpg,orange,m_s_104.jpg,purple,between,NA,NaN,NA,right,2839.2999999523163,0,1,983.3999998569489
piamzC27,33tgb4g0msu3alll9rtp1nk6wbyxtf,3ochawuvgsx6umts6kkzpgt2fh9kxt,piamzC27,2020-0188,2021-10-15,13:36:45,14:39:53,NA,incomplete,false,NA,true,5,3,NA,NA,NA,left,absent,NA,NA,m_l_004.jpg,purple,m_l_023.jpg,purple,within,NA,NaN,NA,left,5287.399999856949,1,1,975.2000000476837
piamzC27,33tgb4g0msu3alll9rtp1nk6wbyxtf,3ochawuvgsx6umts6kkzpgt2fh9kxt,piamzC27,2020-0188,2021-10-15,13:36:45,14:39:53,NA,incomplete,false,NA,true,5,4,NA,NA,NA,left,absent,NA,NA,n_s_112.jpg,white,m_l_100.jpg,white,within,NA,NaN,NA,right,3047.2999999523163,0,1,1095.2999999523163
piamzC27,33tgb4g0msu3alll9rtp1nk6wbyxtf,3ochawuvgsx6umts6kkzpgt2fh9kxt,piamzC27,2020-0188,2021-10-15,13:36:45,14:39:53,NA,incomplete,false,NA,true,5,5,NA,NA,NA,left,absent,NA,NA,m_s_114.jpg,red,m_s_029.jpg,orange,between,NA,NaN,NA,left,3663.2999999523163,1,1,1023.2999999523163
piamzC27,33tgb4g0msu3alll9rtp1nk6wbyxtf,3ochawuvgsx6umts6kkzpgt2fh9kxt,piamzC27,2020-0188,2021-10-15,13:36:45,14:39:53,NA,incomplete,false,NA,true,5,6,NA,NA,NA,right,absent,NA,NA,n_s_095.jpg,gray,m_s_086.jpg,yellow,between,NA,NaN,NA,left,3783.5,0,1,1463.5
piamzC27,33tgb4g0msu3alll9rtp1nk6wbyxtf,3ochawuvgsx6umts6kkzpgt2fh9kxt,piamzC27,2020-0188,2021-10-15,13:36:45,14:39:53,NA,incomplete,false,NA,true,5,7,NA,NA,NA,right,absent,NA,NA,n_l_010.jpg,yellow,n_s_033.jpg,yellow,within,NA,NaN,NA,right,7967.200000047684,1,1,1239.2000000476837
piamzC27,33tgb4g0msu3alll9rtp1nk6wbyxtf,3ochawuvgsx6umts6kkzpgt2fh9kxt,piamzC27,2020-0188,2021-10-15,13:36:45,14:39:53,NA,incomplete,false,NA,true,5,8,NA,NA,NA,right,absent,NA,NA,n_s_088.jpg,orange,n_s_104.jpg,orange,within,NA,NaN,NA,right,3271,1,2,1527.4000000953674
piamzC27,33tgb4g0msu3alll9rtp1nk6wbyxtf,3ochawuvgsx6umts6kkzpgt2fh9kxt,piamzC27,2020-0188,2021-10-15,13:36:45,14:39:53,NA,incomplete,false,NA,true,5,9,NA,NA,NA,right,absent,NA,NA,n_s_009.jpg,gray,m_l_075.jpg,gray,within,NA,NaN,NA,right,1583.2999999523163,1,2,815.5
piamzC27,33tgb4g0msu3alll9rtp1nk6wbyxtf,3ochawuvgsx6umts6kkzpgt2fh9kxt,piamzC27,2020-0188,2021-10-15,13:36:45,14:39:53,NA,incomplete,false,NA,true,5,10,NA,NA,NA,right,absent,NA,NA,n_s_101.jpg,yellow,n_l_029.jpg,purple,between,NA,NaN,NA,right,2271.4000000953674,1,1,1135.5
piamzC27,33tgb4g0msu3alll9rtp1nk6wbyxtf,3ochawuvgsx6umts6kkzpgt2fh9kxt,piamzC27,2020-0188,2021-10-15,13:36:45,14:39:53,NA,incomplete,false,true,NA,6,0,NA,blue,m_s_079.jpg,NA,NA,pleasant,unpleasant,NA,NA,NA,NA,NA,none,0,false,NA,NA,NA,NA,NA
piamzC27,33tgb4g0msu3alll9rtp1nk6wbyxtf,3ochawuvgsx6umts6kkzpgt2fh9kxt,piamzC27,2020-0188,2021-10-15,13:36:45,14:39:53,NA,incomplete,false,true,NA,6,1,NA,blue,m_s_036.jpg,NA,NA,pleasant,unpleasant,NA,NA,NA,NA,NA,left,1616.59999990463,true,NA,NA,NA,NA,NA
piamzC27,33tgb4g0msu3alll9rtp1nk6wbyxtf,3ochawuvgsx6umts6kkzpgt2fh9kxt,piamzC27,2020-0188,2021-10-15,13:36:45,14:39:53,NA,incomplete,false,true,NA,6,2,NA,blue,n_l_082.jpg,NA,NA,unpleasant,pleasant,NA,NA,NA,NA,NA,right,1916.89999985695,true,NA,NA,NA,NA,NA
piamzC27,33tgb4g0msu3alll9rtp1nk6wbyxtf,3ochawuvgsx6umts6kkzpgt2fh9kxt,piamzC27,2020-0188,2021-10-15,13:36:45,14:39:53,NA,incomplete,false,true,NA,6,3,NA,blue,m_l_032.jpg,NA,NA,pleasant,unpleasant,NA,NA,NA,NA,NA,left,2677.89999985695,true,NA,NA,NA,NA,NA
piamzC27,33tgb4g0msu3alll9rtp1nk6wbyxtf,3ochawuvgsx6umts6kkzpgt2fh9kxt,piamzC27,2020-0188,2021-10-15,13:36:45,14:39:53,NA,incomplete,false,true,NA,6,4,NA,blue,m_l_019.jpg,NA,NA,unpleasant,pleasant,NA,NA,NA,NA,NA,right,1560.29999995232,true,NA,NA,NA,NA,NA
piamzC27,33tgb4g0msu3alll9rtp1nk6wbyxtf,3ochawuvgsx6umts6kkzpgt2fh9kxt,piamzC27,2020-0188,2021-10-15,13:36:45,14:39:53,NA,incomplete,false,true,NA,6,5,NA,blue,m_s_075.jpg,NA,NA,unpleasant,pleasant,NA,NA,NA,NA,NA,right,1124.09999990463,true,NA,NA,NA,NA,NA
piamzC27,33tgb4g0msu3alll9rtp1nk6wbyxtf,3ochawuvgsx6umts6kkzpgt2fh9kxt,piamzC27,2020-0188,2021-10-15,13:36:45,14:39:53,NA,incomplete,false,true,NA,6,6,NA,white,n_s_049.jpg,NA,NA,unpleasant,pleasant,NA,NA,NA,NA,NA,left,1205.29999995232,true,NA,NA,NA,NA,NA
piamzC27,33tgb4g0msu3alll9rtp1nk6wbyxtf,3ochawuvgsx6umts6kkzpgt2fh9kxt,piamzC27,2020-0188,2021-10-15,13:36:45,14:39:53,NA,incomplete,false,true,NA,6,7,NA,white,n_s_092.jpg,NA,NA,unpleasant,pleasant,NA,NA,NA,NA,NA,left,1879.20000004768,true,NA,NA,NA,NA,NA
piamzC27,33tgb4g0msu3alll9rtp1nk6wbyxtf,3ochawuvgsx6umts6kkzpgt2fh9kxt,piamzC27,2020-0188,2021-10-15,13:36:45,14:39:53,NA,incomplete,false,true,NA,6,8,NA,white,n_s_007.jpg,NA,NA,pleasant,unpleasant,NA,NA,NA,NA,NA,right,2082.79999995232,true,NA,NA,NA,NA,NA
piamzC27,33tgb4g0msu3alll9rtp1nk6wbyxtf,3ochawuvgsx6umts6kkzpgt2fh9kxt,piamzC27,2020-0188,2021-10-15,13:36:45,14:39:53,NA,incomplete,false,true,NA,6,9,NA,white,m_s_110.jpg,NA,NA,unpleasant,pleasant,NA,NA,NA,NA,NA,right,1548,true,NA,NA,NA,NA,NA
piamzC27,33tgb4g0msu3alll9rtp1nk6wbyxtf,3ochawuvgsx6umts6kkzpgt2fh9kxt,piamzC27,2020-0188,2021-10-15,13:36:45,14:39:53,NA,incomplete,false,true,NA,6,10,NA,white,n_l_034.jpg,NA,NA,pleasant,unpleasant,NA,NA,NA,NA,NA,left,1158.5,true,NA,NA,NA,NA,NA
piamzC27,33tgb4g0msu3alll9rtp1nk6wbyxtf,3ochawuvgsx6umts6kkzpgt2fh9kxt,piamzC27,2020-0188,2021-10-15,13:36:45,14:39:53,NA,incomplete,false,true,NA,6,11,NA,white,n_l_046.jpg,NA,NA,pleasant,unpleasant,NA,NA,NA,NA,NA,left,1226.09999990463,true,NA,NA,NA,NA,NA
piamzC27,33tgb4g0msu3alll9rtp1nk6wbyxtf,3ochawuvgsx6umts6kkzpgt2fh9kxt,piamzC27,2020-0188,2021-10-15,13:36:45,14:39:53,NA,incomplete,false,true,NA,6,12,NA,brown,n_s_052.jpg,NA,NA,pleasant,unpleasant,NA,NA,NA,NA,NA,right,2067.60000014305,true,NA,NA,NA,NA,NA
piamzC27,33tgb4g0msu3alll9rtp1nk6wbyxtf,3ochawuvgsx6umts6kkzpgt2fh9kxt,piamzC27,2020-0188,2021-10-15,13:36:45,14:39:53,NA,incomplete,false,true,NA,6,13,NA,brown,n_l_016.jpg,NA,NA,pleasant,unpleasant,NA,NA,NA,NA,NA,left,1317.70000004768,true,NA,NA,NA,NA,NA
piamzC27,33tgb4g0msu3alll9rtp1nk6wbyxtf,3ochawuvgsx6umts6kkzpgt2fh9kxt,piamzC27,2020-0188,2021-10-15,13:36:45,14:39:53,NA,incomplete,false,true,NA,6,14,NA,brown,n_s_059.jpg,NA,NA,pleasant,unpleasant,NA,NA,NA,NA,NA,right,1521.60000014305,true,NA,NA,NA,NA,NA
piamzC27,33tgb4g0msu3alll9rtp1nk6wbyxtf,3ochawuvgsx6umts6kkzpgt2fh9kxt,piamzC27,2020-0188,2021-10-15,13:36:45,14:39:53,NA,incomplete,false,true,NA,6,15,NA,brown,n_s_113.jpg,NA,NA,pleasant,unpleasant,NA,NA,NA,NA,NA,left,1930.19999980927,true,NA,NA,NA,NA,NA
piamzC27,33tgb4g0msu3alll9rtp1nk6wbyxtf,3ochawuvgsx6umts6kkzpgt2fh9kxt,piamzC27,2020-0188,2021-10-15,13:36:45,14:39:53,NA,incomplete,false,true,NA,6,16,NA,brown,n_s_074.jpg,NA,NA,pleasant,unpleasant,NA,NA,NA,NA,NA,left,1596.59999990463,true,NA,NA,NA,NA,NA
piamzC27,33tgb4g0msu3alll9rtp1nk6wbyxtf,3ochawuvgsx6umts6kkzpgt2fh9kxt,piamzC27,2020-0188,2021-10-15,13:36:45,14:39:53,NA,incomplete,false,true,NA,6,17,NA,brown,n_l_017.jpg,NA,NA,unpleasant,pleasant,NA,NA,NA,NA,NA,right,2152.40000009537,true,NA,NA,NA,NA,NA
piamzC27,33tgb4g0msu3alll9rtp1nk6wbyxtf,3ochawuvgsx6umts6kkzpgt2fh9kxt,piamzC27,2020-0188,2021-10-15,13:36:45,14:39:53,NA,incomplete,false,true,NA,6,18,NA,green,n_l_015.jpg,NA,NA,pleasant,unpleasant,NA,NA,NA,NA,NA,left,1328.79999995232,true,NA,NA,NA,NA,NA
piamzC27,33tgb4g0msu3alll9rtp1nk6wbyxtf,3ochawuvgsx6umts6kkzpgt2fh9kxt,piamzC27,2020-0188,2021-10-15,13:36:45,14:39:53,NA,incomplete,false,true,NA,6,19,NA,green,m_s_078.jpg,NA,NA,unpleasant,pleasant,NA,NA,NA,NA,NA,left,2923.29999995232,true,NA,NA,NA,NA,NA
piamzC27,33tgb4g0msu3alll9rtp1nk6wbyxtf,3ochawuvgsx6umts6kkzpgt2fh9kxt,piamzC27,2020-0188,2021-10-15,13:36:45,14:39:53,NA,incomplete,false,true,NA,6,20,NA,green,n_l_021.jpg,NA,NA,unpleasant,pleasant,NA,NA,NA,NA,NA,left,1166.20000004768,true,NA,NA,NA,NA,NA
piamzC27,33tgb4g0msu3alll9rtp1nk6wbyxtf,3ochawuvgsx6umts6kkzpgt2fh9kxt,piamzC27,2020-0188,2021-10-15,13:36:45,14:39:53,NA,incomplete,false,true,NA,6,21,NA,green,n_l_091.jpg,NA,NA,unpleasant,pleasant,NA,NA,NA,NA,NA,left,1775.5,true,NA,NA,NA,NA,NA
piamzC27,33tgb4g0msu3alll9rtp1nk6wbyxtf,3ochawuvgsx6umts6kkzpgt2fh9kxt,piamzC27,2020-0188,2021-10-15,13:36:45,14:39:53,NA,incomplete,false,true,NA,6,22,NA,green,m_l_047.jpg,NA,NA,unpleasant,pleasant,NA,NA,NA,NA,NA,left,1314.09999990463,true,NA,NA,NA,NA,NA
piamzC27,33tgb4g0msu3alll9rtp1nk6wbyxtf,3ochawuvgsx6umts6kkzpgt2fh9kxt,piamzC27,2020-0188,2021-10-15,13:36:45,14:39:53,NA,incomplete,false,true,NA,6,23,NA,green,m_l_044.jpg,NA,NA,pleasant,unpleasant,NA,NA,NA,NA,NA,left,1413.5,true,NA,NA,NA,NA,NA
piamzC27,33tgb4g0msu3alll9rtp1nk6wbyxtf,3ochawuvgsx6umts6kkzpgt2fh9kxt,piamzC27,2020-0188,2021-10-15,13:36:45,14:39:53,NA,incomplete,false,true,NA,6,24,NA,purple,m_s_001.jpg,NA,NA,unpleasant,pleasant,NA,NA,NA,NA,NA,right,1902.79999995232,true,NA,NA,NA,NA,NA
piamzC27,33tgb4g0msu3alll9rtp1nk6wbyxtf,3ochawuvgsx6umts6kkzpgt2fh9kxt,piamzC27,2020-0188,2021-10-15,13:36:45,14:39:53,NA,incomplete,false,true,NA,6,25,NA,purple,m_l_091.jpg,NA,NA,pleasant,unpleasant,NA,NA,NA,NA,NA,left,2192.70000004768,true,NA,NA,NA,NA,NA
piamzC27,33tgb4g0msu3alll9rtp1nk6wbyxtf,3ochawuvgsx6umts6kkzpgt2fh9kxt,piamzC27,2020-0188,2021-10-15,13:36:45,14:39:53,NA,incomplete,false,true,NA,6,26,NA,purple,n_s_023.jpg,NA,NA,unpleasant,pleasant,NA,NA,NA,NA,NA,left,1724.5,true,NA,NA,NA,NA,NA
piamzC27,33tgb4g0msu3alll9rtp1nk6wbyxtf,3ochawuvgsx6umts6kkzpgt2fh9kxt,piamzC27,2020-0188,2021-10-15,13:36:45,14:39:53,NA,incomplete,false,true,NA,6,27,NA,purple,m_s_092.jpg,NA,NA,pleasant,unpleasant,NA,NA,NA,NA,NA,left,2501.70000004768,true,NA,NA,NA,NA,NA
piamzC27,33tgb4g0msu3alll9rtp1nk6wbyxtf,3ochawuvgsx6umts6kkzpgt2fh9kxt,piamzC27,2020-0188,2021-10-15,13:36:45,14:39:53,NA,incomplete,false,true,NA,6,28,NA,purple,m_l_050.jpg,NA,NA,pleasant,unpleasant,NA,NA,NA,NA,NA,right,1655.79999995232,true,NA,NA,NA,NA,NA
piamzC27,33tgb4g0msu3alll9rtp1nk6wbyxtf,3ochawuvgsx6umts6kkzpgt2fh9kxt,piamzC27,2020-0188,2021-10-15,13:36:45,14:39:53,NA,incomplete,false,true,NA,6,29,NA,purple,n_s_108.jpg,NA,NA,pleasant,unpleasant,NA,NA,NA,NA,NA,right,1435,true,NA,NA,NA,NA,NA
piamzC27,33tgb4g0msu3alll9rtp1nk6wbyxtf,3ochawuvgsx6umts6kkzpgt2fh9kxt,piamzC27,2020-0188,2021-10-15,13:36:45,14:39:53,NA,incomplete,false,true,NA,6,30,NA,yellow,m_l_017.jpg,NA,NA,unpleasant,pleasant,NA,NA,NA,NA,NA,left,1859.90000009537,true,NA,NA,NA,NA,NA
piamzC27,33tgb4g0msu3alll9rtp1nk6wbyxtf,3ochawuvgsx6umts6kkzpgt2fh9kxt,piamzC27,2020-0188,2021-10-15,13:36:45,14:39:53,NA,incomplete,false,true,NA,6,31,NA,yellow,m_l_021.jpg,NA,NA,unpleasant,pleasant,NA,NA,NA,NA,NA,right,2086,true,NA,NA,NA,NA,NA
piamzC27,33tgb4g0msu3alll9rtp1nk6wbyxtf,3ochawuvgsx6umts6kkzpgt2fh9kxt,piamzC27,2020-0188,2021-10-15,13:36:45,14:39:53,NA,incomplete,false,true,NA,6,32,NA,yellow,n_s_096.jpg,NA,NA,unpleasant,pleasant,NA,NA,NA,NA,NA,left,1321.10000014305,true,NA,NA,NA,NA,NA
piamzC27,33tgb4g0msu3alll9rtp1nk6wbyxtf,3ochawuvgsx6umts6kkzpgt2fh9kxt,piamzC27,2020-0188,2021-10-15,13:36:45,14:39:53,NA,incomplete,false,true,NA,6,33,NA,yellow,m_l_008.jpg,NA,NA,pleasant,unpleasant,NA,NA,NA,NA,NA,right,2097.70000004768,true,NA,NA,NA,NA,NA
piamzC27,33tgb4g0msu3alll9rtp1nk6wbyxtf,3ochawuvgsx6umts6kkzpgt2fh9kxt,piamzC27,2020-0188,2021-10-15,13:36:45,14:39:53,NA,incomplete,false,true,NA,6,34,NA,yellow,n_l_110.jpg,NA,NA,unpleasant,pleasant,NA,NA,NA,NA,NA,left,2115.5,true,NA,NA,NA,NA,NA
piamzC27,33tgb4g0msu3alll9rtp1nk6wbyxtf,3ochawuvgsx6umts6kkzpgt2fh9kxt,piamzC27,2020-0188,2021-10-15,13:36:45,14:39:53,NA,incomplete,false,true,NA,6,35,NA,yellow,n_s_032.jpg,NA,NA,unpleasant,pleasant,NA,NA,NA,NA,NA,left,2279.90000009537,true,NA,NA,NA,NA,NA
piamzC27,33tgb4g0msu3alll9rtp1nk6wbyxtf,3ochawuvgsx6umts6kkzpgt2fh9kxt,piamzC27,2020-0188,2021-10-15,13:36:45,14:39:53,NA,incomplete,false,NA,true,6,0,NA,NA,NA,right,present,NA,NA,n_l_046.jpg,white,n_s_092.jpg,white,within,NA,NaN,NA,left,3359.100000143051,0,1,1135.2000000476837
piamzC27,33tgb4g0msu3alll9rtp1nk6wbyxtf,3ochawuvgsx6umts6kkzpgt2fh9kxt,piamzC27,2020-0188,2021-10-15,13:36:45,14:39:53,NA,incomplete,false,NA,true,6,1,NA,NA,NA,left,present,NA,NA,m_l_050.jpg,purple,n_s_096.jpg,yellow,between,NA,NaN,NA,left,4983.100000143051,1,1,1367.2999999523163
piamzC27,33tgb4g0msu3alll9rtp1nk6wbyxtf,3ochawuvgsx6umts6kkzpgt2fh9kxt,piamzC27,2020-0188,2021-10-15,13:36:45,14:39:53,NA,incomplete,false,NA,true,6,2,NA,NA,NA,right,present,NA,NA,m_l_044.jpg,green,m_s_078.jpg,green,within,NA,NaN,NA,right,2422.9000000953674,1,1,1335.1000001430511
piamzC27,33tgb4g0msu3alll9rtp1nk6wbyxtf,3ochawuvgsx6umts6kkzpgt2fh9kxt,piamzC27,2020-0188,2021-10-15,13:36:45,14:39:53,NA,incomplete,false,NA,true,6,3,NA,NA,NA,right,present,NA,NA,n_s_023.jpg,purple,m_l_047.jpg,green,between,NA,NaN,NA,right,4047,1,1,1303
piamzC27,33tgb4g0msu3alll9rtp1nk6wbyxtf,3ochawuvgsx6umts6kkzpgt2fh9kxt,piamzC27,2020-0188,2021-10-15,13:36:45,14:39:53,NA,incomplete,false,NA,true,6,4,NA,NA,NA,right,present,NA,NA,n_s_007.jpg,white,m_l_019.jpg,blue,between,NA,NaN,NA,right,5151.299999952316,1,1,1631.5
piamzC27,33tgb4g0msu3alll9rtp1nk6wbyxtf,3ochawuvgsx6umts6kkzpgt2fh9kxt,piamzC27,2020-0188,2021-10-15,13:36:45,14:39:53,NA,incomplete,false,NA,true,6,5,NA,NA,NA,right,present,NA,NA,n_l_017.jpg,brown,n_l_016.jpg,brown,within,NA,NaN,NA,right,4647.299999952316,1,1,1031.5
piamzC27,33tgb4g0msu3alll9rtp1nk6wbyxtf,3ochawuvgsx6umts6kkzpgt2fh9kxt,piamzC27,2020-0188,2021-10-15,13:36:45,14:39:53,NA,incomplete,false,NA,true,6,6,NA,NA,NA,left,present,NA,NA,m_s_036.jpg,blue,m_s_075.jpg,blue,within,NA,NaN,NA,left,1927.2000000476837,1,1,967.2000000476837
piamzC27,33tgb4g0msu3alll9rtp1nk6wbyxtf,3ochawuvgsx6umts6kkzpgt2fh9kxt,piamzC27,2020-0188,2021-10-15,13:36:45,14:39:53,NA,incomplete,false,NA,true,6,7,NA,NA,NA,right,present,NA,NA,n_s_108.jpg,purple,m_l_091.jpg,purple,within,NA,NaN,NA,right,2183.4000000953674,1,1,1079.2000000476837
piamzC27,33tgb4g0msu3alll9rtp1nk6wbyxtf,3ochawuvgsx6umts6kkzpgt2fh9kxt,piamzC27,2020-0188,2021-10-15,13:36:45,14:39:53,NA,incomplete,false,NA,true,6,8,NA,NA,NA,left,present,NA,NA,n_l_034.jpg,white,n_s_059.jpg,brown,between,NA,NaN,NA,left,3134.7999999523163,1,1,1111.2000000476837
piamzC27,33tgb4g0msu3alll9rtp1nk6wbyxtf,3ochawuvgsx6umts6kkzpgt2fh9kxt,piamzC27,2020-0188,2021-10-15,13:36:45,14:39:53,NA,incomplete,false,NA,true,6,9,NA,NA,NA,right,present,NA,NA,n_l_021.jpg,green,n_s_074.jpg,brown,between,NA,NaN,NA,right,3783.2000000476837,1,1,903.0999999046326
piamzC27,33tgb4g0msu3alll9rtp1nk6wbyxtf,3ochawuvgsx6umts6kkzpgt2fh9kxt,piamzC27,2020-0188,2021-10-15,13:36:45,14:39:53,NA,incomplete,false,NA,true,6,10,NA,NA,NA,left,present,NA,NA,m_l_021.jpg,yellow,n_s_032.jpg,yellow,within,NA,NaN,NA,left,4095.2000000476837,1,0,927.0999999046326
piamzC27,33tgb4g0msu3alll9rtp1nk6wbyxtf,3ochawuvgsx6umts6kkzpgt2fh9kxt,piamzC27,2020-0188,2021-10-15,13:36:45,14:39:53,NA,incomplete,false,true,NA,7,0,NA,black,m_l_046.jpg,NA,NA,unpleasant,pleasant,NA,NA,NA,NA,NA,right,1686.29999995232,true,NA,NA,NA,NA,NA
piamzC27,33tgb4g0msu3alll9rtp1nk6wbyxtf,3ochawuvgsx6umts6kkzpgt2fh9kxt,piamzC27,2020-0188,2021-10-15,13:36:45,14:39:53,NA,incomplete,false,true,NA,7,1,NA,black,n_l_020.jpg,NA,NA,unpleasant,pleasant,NA,NA,NA,NA,NA,left,2591.20000004768,true,NA,NA,NA,NA,NA
piamzC27,33tgb4g0msu3alll9rtp1nk6wbyxtf,3ochawuvgsx6umts6kkzpgt2fh9kxt,piamzC27,2020-0188,2021-10-15,13:36:45,14:39:53,NA,incomplete,false,true,NA,7,2,NA,black,n_l_068.jpg,NA,NA,unpleasant,pleasant,NA,NA,NA,NA,NA,right,2056.59999990463,true,NA,NA,NA,NA,NA
piamzC27,33tgb4g0msu3alll9rtp1nk6wbyxtf,3ochawuvgsx6umts6kkzpgt2fh9kxt,piamzC27,2020-0188,2021-10-15,13:36:45,14:39:53,NA,incomplete,false,true,NA,7,3,NA,black,n_l_005.jpg,NA,NA,pleasant,unpleasant,NA,NA,NA,NA,NA,right,1906.79999995232,true,NA,NA,NA,NA,NA
piamzC27,33tgb4g0msu3alll9rtp1nk6wbyxtf,3ochawuvgsx6umts6kkzpgt2fh9kxt,piamzC27,2020-0188,2021-10-15,13:36:45,14:39:53,NA,incomplete,false,true,NA,7,4,NA,black,m_s_063.jpg,NA,NA,pleasant,unpleasant,NA,NA,NA,NA,NA,left,1564.70000004768,true,NA,NA,NA,NA,NA
piamzC27,33tgb4g0msu3alll9rtp1nk6wbyxtf,3ochawuvgsx6umts6kkzpgt2fh9kxt,piamzC27,2020-0188,2021-10-15,13:36:45,14:39:53,NA,incomplete,false,true,NA,7,5,NA,black,n_l_043.jpg,NA,NA,pleasant,unpleasant,NA,NA,NA,NA,NA,left,1408.20000004768,true,NA,NA,NA,NA,NA
piamzC27,33tgb4g0msu3alll9rtp1nk6wbyxtf,3ochawuvgsx6umts6kkzpgt2fh9kxt,piamzC27,2020-0188,2021-10-15,13:36:45,14:39:53,NA,incomplete,false,true,NA,7,6,NA,blue,m_s_095.jpg,NA,NA,unpleasant,pleasant,NA,NA,NA,NA,NA,right,1857.5,true,NA,NA,NA,NA,NA
piamzC27,33tgb4g0msu3alll9rtp1nk6wbyxtf,3ochawuvgsx6umts6kkzpgt2fh9kxt,piamzC27,2020-0188,2021-10-15,13:36:45,14:39:53,NA,incomplete,false,true,NA,7,7,NA,blue,n_l_025.jpg,NA,NA,pleasant,unpleasant,NA,NA,NA,NA,NA,right,1683.29999995232,true,NA,NA,NA,NA,NA
piamzC27,33tgb4g0msu3alll9rtp1nk6wbyxtf,3ochawuvgsx6umts6kkzpgt2fh9kxt,piamzC27,2020-0188,2021-10-15,13:36:45,14:39:53,NA,incomplete,false,true,NA,7,8,NA,blue,m_l_039.jpg,NA,NA,unpleasant,pleasant,NA,NA,NA,NA,NA,right,1214.89999985695,true,NA,NA,NA,NA,NA
piamzC27,33tgb4g0msu3alll9rtp1nk6wbyxtf,3ochawuvgsx6umts6kkzpgt2fh9kxt,piamzC27,2020-0188,2021-10-15,13:36:45,14:39:53,NA,incomplete,false,true,NA,7,9,NA,blue,m_l_025.jpg,NA,NA,unpleasant,pleasant,NA,NA,NA,NA,NA,left,1312.20000004768,true,NA,NA,NA,NA,NA
piamzC27,33tgb4g0msu3alll9rtp1nk6wbyxtf,3ochawuvgsx6umts6kkzpgt2fh9kxt,piamzC27,2020-0188,2021-10-15,13:36:45,14:39:53,NA,incomplete,false,true,NA,7,10,NA,blue,m_s_027.jpg,NA,NA,pleasant,unpleasant,NA,NA,NA,NA,NA,right,1218.70000004768,true,NA,NA,NA,NA,NA
piamzC27,33tgb4g0msu3alll9rtp1nk6wbyxtf,3ochawuvgsx6umts6kkzpgt2fh9kxt,piamzC27,2020-0188,2021-10-15,13:36:45,14:39:53,NA,incomplete,false,true,NA,7,11,NA,blue,n_s_090.jpg,NA,NA,unpleasant,pleasant,NA,NA,NA,NA,NA,left,1421.70000004768,true,NA,NA,NA,NA,NA
piamzC27,33tgb4g0msu3alll9rtp1nk6wbyxtf,3ochawuvgsx6umts6kkzpgt2fh9kxt,piamzC27,2020-0188,2021-10-15,13:36:45,14:39:53,NA,incomplete,false,true,NA,7,12,NA,orange,n_l_047.jpg,NA,NA,pleasant,unpleasant,NA,NA,NA,NA,NA,left,2046.20000004768,true,NA,NA,NA,NA,NA
piamzC27,33tgb4g0msu3alll9rtp1nk6wbyxtf,3ochawuvgsx6umts6kkzpgt2fh9kxt,piamzC27,2020-0188,2021-10-15,13:36:45,14:39:53,NA,incomplete,false,true,NA,7,13,NA,orange,m_s_097.jpg,NA,NA,pleasant,unpleasant,NA,NA,NA,NA,NA,right,2272.60000014305,true,NA,NA,NA,NA,NA
piamzC27,33tgb4g0msu3alll9rtp1nk6wbyxtf,3ochawuvgsx6umts6kkzpgt2fh9kxt,piamzC27,2020-0188,2021-10-15,13:36:45,14:39:53,NA,incomplete,false,true,NA,7,14,NA,orange,m_s_105.jpg,NA,NA,pleasant,unpleasant,NA,NA,NA,NA,NA,left,1627.69999980927,true,NA,NA,NA,NA,NA
piamzC27,33tgb4g0msu3alll9rtp1nk6wbyxtf,3ochawuvgsx6umts6kkzpgt2fh9kxt,piamzC27,2020-0188,2021-10-15,13:36:45,14:39:53,NA,incomplete,false,true,NA,7,15,NA,orange,m_s_083.jpg,NA,NA,pleasant,unpleasant,NA,NA,NA,NA,NA,right,1829,true,NA,NA,NA,NA,NA
piamzC27,33tgb4g0msu3alll9rtp1nk6wbyxtf,3ochawuvgsx6umts6kkzpgt2fh9kxt,piamzC27,2020-0188,2021-10-15,13:36:45,14:39:53,NA,incomplete,false,true,NA,7,16,NA,orange,m_s_052.jpg,NA,NA,unpleasant,pleasant,NA,NA,NA,NA,NA,right,2031.5,true,NA,NA,NA,NA,NA
piamzC27,33tgb4g0msu3alll9rtp1nk6wbyxtf,3ochawuvgsx6umts6kkzpgt2fh9kxt,piamzC27,2020-0188,2021-10-15,13:36:45,14:39:53,NA,incomplete,false,true,NA,7,17,NA,orange,n_s_013.jpg,NA,NA,pleasant,unpleasant,NA,NA,NA,NA,NA,right,1651.89999985695,true,NA,NA,NA,NA,NA
piamzC27,33tgb4g0msu3alll9rtp1nk6wbyxtf,3ochawuvgsx6umts6kkzpgt2fh9kxt,piamzC27,2020-0188,2021-10-15,13:36:45,14:39:53,NA,incomplete,false,true,NA,7,18,NA,green,n_l_112.jpg,NA,NA,pleasant,unpleasant,NA,NA,NA,NA,NA,right,2051.80000019073,true,NA,NA,NA,NA,NA
piamzC27,33tgb4g0msu3alll9rtp1nk6wbyxtf,3ochawuvgsx6umts6kkzpgt2fh9kxt,piamzC27,2020-0188,2021-10-15,13:36:45,14:39:53,NA,incomplete,false,true,NA,7,19,NA,green,n_s_060.jpg,NA,NA,pleasant,unpleasant,NA,NA,NA,NA,NA,left,2085.70000004768,true,NA,NA,NA,NA,NA
piamzC27,33tgb4g0msu3alll9rtp1nk6wbyxtf,3ochawuvgsx6umts6kkzpgt2fh9kxt,piamzC27,2020-0188,2021-10-15,13:36:45,14:39:53,NA,incomplete,false,true,NA,7,20,NA,green,m_s_016.jpg,NA,NA,pleasant,unpleasant,NA,NA,NA,NA,NA,right,1536.79999995232,true,NA,NA,NA,NA,NA
piamzC27,33tgb4g0msu3alll9rtp1nk6wbyxtf,3ochawuvgsx6umts6kkzpgt2fh9kxt,piamzC27,2020-0188,2021-10-15,13:36:45,14:39:53,NA,incomplete,false,true,NA,7,21,NA,green,m_s_071.jpg,NA,NA,unpleasant,pleasant,NA,NA,NA,NA,NA,right,1481.20000004768,true,NA,NA,NA,NA,NA
piamzC27,33tgb4g0msu3alll9rtp1nk6wbyxtf,3ochawuvgsx6umts6kkzpgt2fh9kxt,piamzC27,2020-0188,2021-10-15,13:36:45,14:39:53,NA,incomplete,false,true,NA,7,22,NA,green,m_l_001.jpg,NA,NA,unpleasant,pleasant,NA,NA,NA,NA,NA,right,1843.59999990463,true,NA,NA,NA,NA,NA
piamzC27,33tgb4g0msu3alll9rtp1nk6wbyxtf,3ochawuvgsx6umts6kkzpgt2fh9kxt,piamzC27,2020-0188,2021-10-15,13:36:45,14:39:53,NA,incomplete,false,true,NA,7,23,NA,green,m_s_049.jpg,NA,NA,pleasant,unpleasant,NA,NA,NA,NA,NA,right,1599.20000004768,true,NA,NA,NA,NA,NA
piamzC27,33tgb4g0msu3alll9rtp1nk6wbyxtf,3ochawuvgsx6umts6kkzpgt2fh9kxt,piamzC27,2020-0188,2021-10-15,13:36:45,14:39:53,NA,incomplete,false,true,NA,7,24,NA,red,m_l_009.jpg,NA,NA,pleasant,unpleasant,NA,NA,NA,NA,NA,right,1576.5,true,NA,NA,NA,NA,NA
piamzC27,33tgb4g0msu3alll9rtp1nk6wbyxtf,3ochawuvgsx6umts6kkzpgt2fh9kxt,piamzC27,2020-0188,2021-10-15,13:36:45,14:39:53,NA,incomplete,false,true,NA,7,25,NA,red,n_l_117.jpg,NA,NA,pleasant,unpleasant,NA,NA,NA,NA,NA,right,2458.90000009537,true,NA,NA,NA,NA,NA
piamzC27,33tgb4g0msu3alll9rtp1nk6wbyxtf,3ochawuvgsx6umts6kkzpgt2fh9kxt,piamzC27,2020-0188,2021-10-15,13:36:45,14:39:53,NA,incomplete,false,true,NA,7,26,NA,red,n_l_044.jpg,NA,NA,pleasant,unpleasant,NA,NA,NA,NA,NA,right,1078.5,true,NA,NA,NA,NA,NA
piamzC27,33tgb4g0msu3alll9rtp1nk6wbyxtf,3ochawuvgsx6umts6kkzpgt2fh9kxt,piamzC27,2020-0188,2021-10-15,13:36:45,14:39:53,NA,incomplete,false,true,NA,7,27,NA,red,m_l_030.jpg,NA,NA,pleasant,unpleasant,NA,NA,NA,NA,NA,left,1759.90000009537,true,NA,NA,NA,NA,NA
piamzC27,33tgb4g0msu3alll9rtp1nk6wbyxtf,3ochawuvgsx6umts6kkzpgt2fh9kxt,piamzC27,2020-0188,2021-10-15,13:36:45,14:39:53,NA,incomplete,false,true,NA,7,28,NA,red,m_s_074.jpg,NA,NA,pleasant,unpleasant,NA,NA,NA,NA,NA,left,1130.20000004768,true,NA,NA,NA,NA,NA
piamzC27,33tgb4g0msu3alll9rtp1nk6wbyxtf,3ochawuvgsx6umts6kkzpgt2fh9kxt,piamzC27,2020-0188,2021-10-15,13:36:45,14:39:53,NA,incomplete,false,true,NA,7,29,NA,red,m_s_082.jpg,NA,NA,pleasant,unpleasant,NA,NA,NA,NA,NA,left,1502.40000009537,true,NA,NA,NA,NA,NA
piamzC27,33tgb4g0msu3alll9rtp1nk6wbyxtf,3ochawuvgsx6umts6kkzpgt2fh9kxt,piamzC27,2020-0188,2021-10-15,13:36:45,14:39:53,NA,incomplete,false,true,NA,7,30,NA,purple,n_s_026.jpg,NA,NA,pleasant,unpleasant,NA,NA,NA,NA,NA,right,1710.5,true,NA,NA,NA,NA,NA
piamzC27,33tgb4g0msu3alll9rtp1nk6wbyxtf,3ochawuvgsx6umts6kkzpgt2fh9kxt,piamzC27,2020-0188,2021-10-15,13:36:45,14:39:53,NA,incomplete,false,true,NA,7,31,NA,purple,n_l_116.jpg,NA,NA,pleasant,unpleasant,NA,NA,NA,NA,NA,right,2041,true,NA,NA,NA,NA,NA
piamzC27,33tgb4g0msu3alll9rtp1nk6wbyxtf,3ochawuvgsx6umts6kkzpgt2fh9kxt,piamzC27,2020-0188,2021-10-15,13:36:45,14:39:53,NA,incomplete,false,true,NA,7,32,NA,purple,m_l_078.jpg,NA,NA,unpleasant,pleasant,NA,NA,NA,NA,NA,right,1716.70000004768,true,NA,NA,NA,NA,NA
piamzC27,33tgb4g0msu3alll9rtp1nk6wbyxtf,3ochawuvgsx6umts6kkzpgt2fh9kxt,piamzC27,2020-0188,2021-10-15,13:36:45,14:39:53,NA,incomplete,false,true,NA,7,33,NA,purple,n_l_048.jpg,NA,NA,unpleasant,pleasant,NA,NA,NA,NA,NA,left,998,true,NA,NA,NA,NA,NA
piamzC27,33tgb4g0msu3alll9rtp1nk6wbyxtf,3ochawuvgsx6umts6kkzpgt2fh9kxt,piamzC27,2020-0188,2021-10-15,13:36:45,14:39:53,NA,incomplete,false,true,NA,7,34,NA,purple,n_l_028.jpg,NA,NA,pleasant,unpleasant,NA,NA,NA,NA,NA,right,1784.60000014305,true,NA,NA,NA,NA,NA
piamzC27,33tgb4g0msu3alll9rtp1nk6wbyxtf,3ochawuvgsx6umts6kkzpgt2fh9kxt,piamzC27,2020-0188,2021-10-15,13:36:45,14:39:53,NA,incomplete,false,true,NA,7,35,NA,purple,n_s_051.jpg,NA,NA,unpleasant,pleasant,NA,NA,NA,NA,NA,left,1036,true,NA,NA,NA,NA,NA
piamzC27,33tgb4g0msu3alll9rtp1nk6wbyxtf,3ochawuvgsx6umts6kkzpgt2fh9kxt,piamzC27,2020-0188,2021-10-15,13:36:45,14:39:53,NA,incomplete,false,NA,true,7,0,NA,NA,NA,right,absent,NA,NA,m_l_039.jpg,blue,m_s_063.jpg,black,between,NA,NaN,NA,left,3526.4000000953674,0,1,1126.3999998569489
piamzC27,33tgb4g0msu3alll9rtp1nk6wbyxtf,3ochawuvgsx6umts6kkzpgt2fh9kxt,piamzC27,2020-0188,2021-10-15,13:36:45,14:39:53,NA,incomplete,false,NA,true,7,1,NA,NA,NA,left,absent,NA,NA,n_l_116.jpg,purple,n_s_051.jpg,purple,within,NA,NaN,NA,left,2566.9000000953674,1,0,2518.2999999523163
piamzC27,33tgb4g0msu3alll9rtp1nk6wbyxtf,3ochawuvgsx6umts6kkzpgt2fh9kxt,piamzC27,2020-0188,2021-10-15,13:36:45,14:39:53,NA,incomplete,false,NA,true,7,2,NA,NA,NA,left,absent,NA,NA,m_s_052.jpg,orange,m_s_016.jpg,green,between,NA,NaN,NA,left,2110.7000000476837,1,1,1126.7000000476837
piamzC27,33tgb4g0msu3alll9rtp1nk6wbyxtf,3ochawuvgsx6umts6kkzpgt2fh9kxt,piamzC27,2020-0188,2021-10-15,13:36:45,14:39:53,NA,incomplete,false,NA,true,7,3,NA,NA,NA,right,absent,NA,NA,m_s_049.jpg,green,n_s_060.jpg,green,within,NA,NaN,NA,right,1694.3999998569489,1,1,990.5
piamzC27,33tgb4g0msu3alll9rtp1nk6wbyxtf,3ochawuvgsx6umts6kkzpgt2fh9kxt,piamzC27,2020-0188,2021-10-15,13:36:45,14:39:53,NA,incomplete,false,NA,true,7,4,NA,NA,NA,left,absent,NA,NA,n_l_020.jpg,black,n_l_043.jpg,black,within,NA,NaN,NA,right,1791.1000001430511,0,1,1175.5
piamzC27,33tgb4g0msu3alll9rtp1nk6wbyxtf,3ochawuvgsx6umts6kkzpgt2fh9kxt,piamzC27,2020-0188,2021-10-15,13:36:45,14:39:53,NA,incomplete,false,NA,true,7,5,NA,NA,NA,left,absent,NA,NA,m_l_001.jpg,green,n_l_044.jpg,red,between,NA,NaN,NA,right,2031.4000000953674,0,1,1287.7999999523163
piamzC27,33tgb4g0msu3alll9rtp1nk6wbyxtf,3ochawuvgsx6umts6kkzpgt2fh9kxt,piamzC27,2020-0188,2021-10-15,13:36:45,14:39:53,NA,incomplete,false,NA,true,7,6,NA,NA,NA,right,absent,NA,NA,n_s_090.jpg,blue,n_l_025.jpg,blue,within,NA,NaN,NA,right,1615.2999999523163,1,1,1671.4000000953674
piamzC27,33tgb4g0msu3alll9rtp1nk6wbyxtf,3ochawuvgsx6umts6kkzpgt2fh9kxt,piamzC27,2020-0188,2021-10-15,13:36:45,14:39:53,NA,incomplete,false,NA,true,7,7,NA,NA,NA,right,absent,NA,NA,m_l_078.jpg,purple,m_s_074.jpg,red,between,NA,NaN,NA,right,2991.4000000953674,1,1,1543.3999998569489
piamzC27,33tgb4g0msu3alll9rtp1nk6wbyxtf,3ochawuvgsx6umts6kkzpgt2fh9kxt,piamzC27,2020-0188,2021-10-15,13:36:45,14:39:53,NA,incomplete,false,NA,true,7,8,NA,NA,NA,right,absent,NA,NA,m_s_082.jpg,red,n_l_117.jpg,red,within,NA,NaN,NA,right,2799.199999809265,1,1,1551.2000000476837
piamzC27,33tgb4g0msu3alll9rtp1nk6wbyxtf,3ochawuvgsx6umts6kkzpgt2fh9kxt,piamzC27,2020-0188,2021-10-15,13:36:45,14:39:53,NA,incomplete,false,NA,true,7,9,NA,NA,NA,left,absent,NA,NA,m_s_027.jpg,blue,m_s_105.jpg,orange,between,NA,NaN,NA,right,4551.299999952316,0,1,2087.2000000476837
piamzC27,33tgb4g0msu3alll9rtp1nk6wbyxtf,3ochawuvgsx6umts6kkzpgt2fh9kxt,piamzC27,2020-0188,2021-10-15,13:36:45,14:39:53,NA,incomplete,false,NA,true,7,10,NA,NA,NA,left,absent,NA,NA,m_s_097.jpg,orange,n_s_013.jpg,orange,within,NA,NaN,NA,right,1831.2000000476837,0,1,1199.2999999523163
piamzC27,33tgb4g0msu3alll9rtp1nk6wbyxtf,3ochawuvgsx6umts6kkzpgt2fh9kxt,piamzC27,2020-0188,2021-10-15,13:36:45,14:39:53,NA,incomplete,false,true,NA,8,0,NA,orange,m_s_004.jpg,NA,NA,unpleasant,pleasant,NA,NA,NA,NA,NA,right,2872.30000019073,true,NA,NA,NA,NA,NA
piamzC27,33tgb4g0msu3alll9rtp1nk6wbyxtf,3ochawuvgsx6umts6kkzpgt2fh9kxt,piamzC27,2020-0188,2021-10-15,13:36:45,14:39:53,NA,incomplete,false,true,NA,8,1,NA,orange,n_l_105.jpg,NA,NA,pleasant,unpleasant,NA,NA,NA,NA,NA,right,2689.89999985695,true,NA,NA,NA,NA,NA
piamzC27,33tgb4g0msu3alll9rtp1nk6wbyxtf,3ochawuvgsx6umts6kkzpgt2fh9kxt,piamzC27,2020-0188,2021-10-15,13:36:45,14:39:53,NA,incomplete,false,true,NA,8,2,NA,orange,n_l_066.jpg,NA,NA,unpleasant,pleasant,NA,NA,NA,NA,NA,right,3141,true,NA,NA,NA,NA,NA
piamzC27,33tgb4g0msu3alll9rtp1nk6wbyxtf,3ochawuvgsx6umts6kkzpgt2fh9kxt,piamzC27,2020-0188,2021-10-15,13:36:45,14:39:53,NA,incomplete,false,true,NA,8,3,NA,orange,m_l_033.jpg,NA,NA,unpleasant,pleasant,NA,NA,NA,NA,NA,right,1684.39999985695,true,NA,NA,NA,NA,NA
piamzC27,33tgb4g0msu3alll9rtp1nk6wbyxtf,3ochawuvgsx6umts6kkzpgt2fh9kxt,piamzC27,2020-0188,2021-10-15,13:36:45,14:39:53,NA,incomplete,false,true,NA,8,4,NA,orange,n_s_087.jpg,NA,NA,unpleasant,pleasant,NA,NA,NA,NA,NA,left,1455.29999995232,true,NA,NA,NA,NA,NA
piamzC27,33tgb4g0msu3alll9rtp1nk6wbyxtf,3ochawuvgsx6umts6kkzpgt2fh9kxt,piamzC27,2020-0188,2021-10-15,13:36:45,14:39:53,NA,incomplete,false,true,NA,8,5,NA,orange,m_s_030.jpg,NA,NA,unpleasant,pleasant,NA,NA,NA,NA,NA,left,1138.20000004768,true,NA,NA,NA,NA,NA
piamzC27,33tgb4g0msu3alll9rtp1nk6wbyxtf,3ochawuvgsx6umts6kkzpgt2fh9kxt,piamzC27,2020-0188,2021-10-15,13:36:45,14:39:53,NA,incomplete,false,true,NA,8,6,NA,black,m_l_112.jpg,NA,NA,unpleasant,pleasant,NA,NA,NA,NA,NA,right,2298.69999980927,true,NA,NA,NA,NA,NA
piamzC27,33tgb4g0msu3alll9rtp1nk6wbyxtf,3ochawuvgsx6umts6kkzpgt2fh9kxt,piamzC27,2020-0188,2021-10-15,13:36:45,14:39:53,NA,incomplete,false,true,NA,8,7,NA,black,n_s_082.jpg,NA,NA,unpleasant,pleasant,NA,NA,NA,NA,NA,left,2125.40000009537,true,NA,NA,NA,NA,NA
piamzC27,33tgb4g0msu3alll9rtp1nk6wbyxtf,3ochawuvgsx6umts6kkzpgt2fh9kxt,piamzC27,2020-0188,2021-10-15,13:36:45,14:39:53,NA,incomplete,false,true,NA,8,8,NA,black,n_l_019.jpg,NA,NA,unpleasant,pleasant,NA,NA,NA,NA,NA,left,1456.90000009537,true,NA,NA,NA,NA,NA
