workerId,hitId,assignmentId,subject,studyid,exp_date,exp_start,exp_end,time_start,time_end,practice,encoding,memory,block,trial,event_order,event,stim,answer,context_type,label_left,label_right,left_image,left_event,right_image,right_event,condition,response,response_time,response_acc,order_response,order_response_time,order_acc,distance_response,distance_response_time
PQ2vVrTU,3odop6t3bvxisk3y617o3pei3yp24c,3lq8puhqfp5i213p1dh19eqvzhiihs,PQ2vVrTU,2020-0188,2021-10-14,08:41:07,09:49:34,NA,incomplete,true,true,NA,0,0,NA,yellow,m_s_073.jpg,NA,NA,pleasant,unpleasant,NA,NA,NA,NA,NA,left,994,true,NA,NA,NA,NA,NA
PQ2vVrTU,3odop6t3bvxisk3y617o3pei3yp24c,3lq8puhqfp5i213p1dh19eqvzhiihs,PQ2vVrTU,2020-0188,2021-10-14,08:41:07,09:49:34,NA,incomplete,true,true,NA,0,1,NA,yellow,n_s_068.jpg,NA,NA,pleasant,unpleasant,NA,NA,NA,NA,NA,right,1272.29999999981,true,NA,NA,NA,NA,NA
PQ2vVrTU,3odop6t3bvxisk3y617o3pei3yp24c,3lq8puhqfp5i213p1dh19eqvzhiihs,PQ2vVrTU,2020-0188,2021-10-14,08:41:07,09:49:34,NA,incomplete,true,true,NA,0,2,NA,yellow,n_s_030.jpg,NA,NA,pleasant,unpleasant,NA,NA,NA,NA,NA,right,954.100000000093,true,NA,NA,NA,NA,NA
PQ2vVrTU,3odop6t3bvxisk3y617o3pei3yp24c,3lq8puhqfp5i213p1dh19eqvzhiihs,PQ2vVrTU,2020-0188,2021-10-14,08:41:07,09:49:34,NA,incomplete,true,true,NA,0,3,NA,yellow,m_l_040.jpg,NA,NA,pleasant,unpleasant,NA,NA,NA,NA,NA,left,838.799999999814,true,NA,NA,NA,NA,NA
PQ2vVrTU,3odop6t3bvxisk3y617o3pei3yp24c,3lq8puhqfp5i213p1dh19eqvzhiihs,PQ2vVrTU,2020-0188,2021-10-14,08:41:07,09:49:34,NA,incomplete,true,true,NA,0,4,NA,yellow,m_s_053.jpg,NA,NA,unpleasant,pleasant,NA,NA,NA,NA,NA,left,1170.29999999981,true,NA,NA,NA,NA,NA
PQ2vVrTU,3odop6t3bvxisk3y617o3pei3yp24c,3lq8puhqfp5i213p1dh19eqvzhiihs,PQ2vVrTU,2020-0188,2021-10-14,08:41:07,09:49:34,NA,incomplete,true,true,NA,0,5,NA,yellow,m_l_010.jpg,NA,NA,unpleasant,pleasant,NA,NA,NA,NA,NA,right,1547.10000000009,true,NA,NA,NA,NA,NA
PQ2vVrTU,3odop6t3bvxisk3y617o3pei3yp24c,3lq8puhqfp5i213p1dh19eqvzhiihs,PQ2vVrTU,2020-0188,2021-10-14,08:41:07,09:49:34,NA,incomplete,true,true,NA,0,6,NA,brown,m_l_021.jpg,NA,NA,unpleasant,pleasant,NA,NA,NA,NA,NA,right,1451.39999999991,true,NA,NA,NA,NA,NA
PQ2vVrTU,3odop6t3bvxisk3y617o3pei3yp24c,3lq8puhqfp5i213p1dh19eqvzhiihs,PQ2vVrTU,2020-0188,2021-10-14,08:41:07,09:49:34,NA,incomplete,true,true,NA,0,7,NA,brown,m_s_011.jpg,NA,NA,unpleasant,pleasant,NA,NA,NA,NA,NA,left,1592,true,NA,NA,NA,NA,NA
PQ2vVrTU,3odop6t3bvxisk3y617o3pei3yp24c,3lq8puhqfp5i213p1dh19eqvzhiihs,PQ2vVrTU,2020-0188,2021-10-14,08:41:07,09:49:34,NA,incomplete,true,true,NA,0,8,NA,brown,m_l_117.jpg,NA,NA,unpleasant,pleasant,NA,NA,NA,NA,NA,left,1619.60000000009,true,NA,NA,NA,NA,NA
PQ2vVrTU,3odop6t3bvxisk3y617o3pei3yp24c,3lq8puhqfp5i213p1dh19eqvzhiihs,PQ2vVrTU,2020-0188,2021-10-14,08:41:07,09:49:34,NA,incomplete,true,true,NA,0,9,NA,brown,n_s_101.jpg,NA,NA,pleasant,unpleasant,NA,NA,NA,NA,NA,left,1486,true,NA,NA,NA,NA,NA
PQ2vVrTU,3odop6t3bvxisk3y617o3pei3yp24c,3lq8puhqfp5i213p1dh19eqvzhiihs,PQ2vVrTU,2020-0188,2021-10-14,08:41:07,09:49:34,NA,incomplete,true,true,NA,0,10,NA,brown,n_s_008.jpg,NA,NA,unpleasant,pleasant,NA,NA,NA,NA,NA,right,1680.29999999981,true,NA,NA,NA,NA,NA
PQ2vVrTU,3odop6t3bvxisk3y617o3pei3yp24c,3lq8puhqfp5i213p1dh19eqvzhiihs,PQ2vVrTU,2020-0188,2021-10-14,08:41:07,09:49:34,NA,incomplete,true,true,NA,0,11,NA,brown,m_s_115.jpg,NA,NA,pleasant,unpleasant,NA,NA,NA,NA,NA,left,1334.70000000019,true,NA,NA,NA,NA,NA
PQ2vVrTU,3odop6t3bvxisk3y617o3pei3yp24c,3lq8puhqfp5i213p1dh19eqvzhiihs,PQ2vVrTU,2020-0188,2021-10-14,08:41:07,09:49:34,NA,incomplete,true,true,NA,0,12,NA,red,m_l_034.jpg,NA,NA,unpleasant,pleasant,NA,NA,NA,NA,NA,right,1094.10000000009,true,NA,NA,NA,NA,NA
PQ2vVrTU,3odop6t3bvxisk3y617o3pei3yp24c,3lq8puhqfp5i213p1dh19eqvzhiihs,PQ2vVrTU,2020-0188,2021-10-14,08:41:07,09:49:34,NA,incomplete,true,true,NA,0,13,NA,red,n_s_058.jpg,NA,NA,pleasant,unpleasant,NA,NA,NA,NA,NA,right,1409.29999999981,true,NA,NA,NA,NA,NA
PQ2vVrTU,3odop6t3bvxisk3y617o3pei3yp24c,3lq8puhqfp5i213p1dh19eqvzhiihs,PQ2vVrTU,2020-0188,2021-10-14,08:41:07,09:49:34,NA,incomplete,true,true,NA,0,14,NA,red,m_s_113.jpg,NA,NA,pleasant,unpleasant,NA,NA,NA,NA,NA,right,1754.10000000009,true,NA,NA,NA,NA,NA
PQ2vVrTU,3odop6t3bvxisk3y617o3pei3yp24c,3lq8puhqfp5i213p1dh19eqvzhiihs,PQ2vVrTU,2020-0188,2021-10-14,08:41:07,09:49:34,NA,incomplete,true,true,NA,0,15,NA,red,m_l_033.jpg,NA,NA,pleasant,unpleasant,NA,NA,NA,NA,NA,right,1476.69999999972,true,NA,NA,NA,NA,NA
PQ2vVrTU,3odop6t3bvxisk3y617o3pei3yp24c,3lq8puhqfp5i213p1dh19eqvzhiihs,PQ2vVrTU,2020-0188,2021-10-14,08:41:07,09:49:34,NA,incomplete,true,true,NA,0,16,NA,red,m_s_030.jpg,NA,NA,pleasant,unpleasant,NA,NA,NA,NA,NA,right,1086.79999999981,true,NA,NA,NA,NA,NA
PQ2vVrTU,3odop6t3bvxisk3y617o3pei3yp24c,3lq8puhqfp5i213p1dh19eqvzhiihs,PQ2vVrTU,2020-0188,2021-10-14,08:41:07,09:49:34,NA,incomplete,true,true,NA,0,17,NA,red,m_l_109.jpg,NA,NA,unpleasant,pleasant,NA,NA,NA,NA,NA,left,1030.10000000009,true,NA,NA,NA,NA,NA
PQ2vVrTU,3odop6t3bvxisk3y617o3pei3yp24c,3lq8puhqfp5i213p1dh19eqvzhiihs,PQ2vVrTU,2020-0188,2021-10-14,08:41:07,09:49:34,NA,incomplete,true,true,NA,0,18,NA,black,m_l_019.jpg,NA,NA,unpleasant,pleasant,NA,NA,NA,NA,NA,right,1288.60000000009,true,NA,NA,NA,NA,NA
PQ2vVrTU,3odop6t3bvxisk3y617o3pei3yp24c,3lq8puhqfp5i213p1dh19eqvzhiihs,PQ2vVrTU,2020-0188,2021-10-14,08:41:07,09:49:34,NA,incomplete,true,true,NA,0,19,NA,black,n_s_062.jpg,NA,NA,pleasant,unpleasant,NA,NA,NA,NA,NA,right,1175.30000000028,true,NA,NA,NA,NA,NA
PQ2vVrTU,3odop6t3bvxisk3y617o3pei3yp24c,3lq8puhqfp5i213p1dh19eqvzhiihs,PQ2vVrTU,2020-0188,2021-10-14,08:41:07,09:49:34,NA,incomplete,true,true,NA,0,20,NA,black,n_l_062.jpg,NA,NA,pleasant,unpleasant,NA,NA,NA,NA,NA,right,1212.5,true,NA,NA,NA,NA,NA
PQ2vVrTU,3odop6t3bvxisk3y617o3pei3yp24c,3lq8puhqfp5i213p1dh19eqvzhiihs,PQ2vVrTU,2020-0188,2021-10-14,08:41:07,09:49:34,NA,incomplete,true,true,NA,0,21,NA,black,n_s_095.jpg,NA,NA,pleasant,unpleasant,NA,NA,NA,NA,NA,left,1296.90000000037,true,NA,NA,NA,NA,NA
PQ2vVrTU,3odop6t3bvxisk3y617o3pei3yp24c,3lq8puhqfp5i213p1dh19eqvzhiihs,PQ2vVrTU,2020-0188,2021-10-14,08:41:07,09:49:34,NA,incomplete,true,true,NA,0,22,NA,black,m_s_007.jpg,NA,NA,unpleasant,pleasant,NA,NA,NA,NA,NA,left,1217.39999999991,true,NA,NA,NA,NA,NA
PQ2vVrTU,3odop6t3bvxisk3y617o3pei3yp24c,3lq8puhqfp5i213p1dh19eqvzhiihs,PQ2vVrTU,2020-0188,2021-10-14,08:41:07,09:49:34,NA,incomplete,true,true,NA,0,23,NA,black,m_l_020.jpg,NA,NA,pleasant,unpleasant,NA,NA,NA,NA,NA,right,1304.60000000009,true,NA,NA,NA,NA,NA
PQ2vVrTU,3odop6t3bvxisk3y617o3pei3yp24c,3lq8puhqfp5i213p1dh19eqvzhiihs,PQ2vVrTU,2020-0188,2021-10-14,08:41:07,09:49:34,NA,incomplete,true,true,NA,0,24,NA,blue,m_l_001.jpg,NA,NA,pleasant,unpleasant,NA,NA,NA,NA,NA,right,1958.70000000019,true,NA,NA,NA,NA,NA
PQ2vVrTU,3odop6t3bvxisk3y617o3pei3yp24c,3lq8puhqfp5i213p1dh19eqvzhiihs,PQ2vVrTU,2020-0188,2021-10-14,08:41:07,09:49:34,NA,incomplete,true,true,NA,0,25,NA,blue,m_s_117.jpg,NA,NA,unpleasant,pleasant,NA,NA,NA,NA,NA,right,2048.30000000028,true,NA,NA,NA,NA,NA
PQ2vVrTU,3odop6t3bvxisk3y617o3pei3yp24c,3lq8puhqfp5i213p1dh19eqvzhiihs,PQ2vVrTU,2020-0188,2021-10-14,08:41:07,09:49:34,NA,incomplete,true,true,NA,0,26,NA,blue,n_l_021.jpg,NA,NA,unpleasant,pleasant,NA,NA,NA,NA,NA,left,1258.20000000019,true,NA,NA,NA,NA,NA
PQ2vVrTU,3odop6t3bvxisk3y617o3pei3yp24c,3lq8puhqfp5i213p1dh19eqvzhiihs,PQ2vVrTU,2020-0188,2021-10-14,08:41:07,09:49:34,NA,incomplete,true,true,NA,0,27,NA,blue,m_s_035.jpg,NA,NA,pleasant,unpleasant,NA,NA,NA,NA,NA,right,1748,true,NA,NA,NA,NA,NA
PQ2vVrTU,3odop6t3bvxisk3y617o3pei3yp24c,3lq8puhqfp5i213p1dh19eqvzhiihs,PQ2vVrTU,2020-0188,2021-10-14,08:41:07,09:49:34,NA,incomplete,true,true,NA,0,28,NA,blue,m_s_088.jpg,NA,NA,unpleasant,pleasant,NA,NA,NA,NA,NA,right,2138.10000000009,true,NA,NA,NA,NA,NA
PQ2vVrTU,3odop6t3bvxisk3y617o3pei3yp24c,3lq8puhqfp5i213p1dh19eqvzhiihs,PQ2vVrTU,2020-0188,2021-10-14,08:41:07,09:49:34,NA,incomplete,true,true,NA,0,29,NA,blue,m_s_064.jpg,NA,NA,unpleasant,pleasant,NA,NA,NA,NA,NA,left,1590.79999999981,true,NA,NA,NA,NA,NA
PQ2vVrTU,3odop6t3bvxisk3y617o3pei3yp24c,3lq8puhqfp5i213p1dh19eqvzhiihs,PQ2vVrTU,2020-0188,2021-10-14,08:41:07,09:49:34,NA,incomplete,true,true,NA,0,30,NA,purple,n_l_069.jpg,NA,NA,unpleasant,pleasant,NA,NA,NA,NA,NA,right,1396.10000000009,true,NA,NA,NA,NA,NA
PQ2vVrTU,3odop6t3bvxisk3y617o3pei3yp24c,3lq8puhqfp5i213p1dh19eqvzhiihs,PQ2vVrTU,2020-0188,2021-10-14,08:41:07,09:49:34,NA,incomplete,true,true,NA,0,31,NA,purple,n_s_108.jpg,NA,NA,unpleasant,pleasant,NA,NA,NA,NA,NA,left,1228.90000000037,true,NA,NA,NA,NA,NA
PQ2vVrTU,3odop6t3bvxisk3y617o3pei3yp24c,3lq8puhqfp5i213p1dh19eqvzhiihs,PQ2vVrTU,2020-0188,2021-10-14,08:41:07,09:49:34,NA,incomplete,true,true,NA,0,32,NA,purple,n_l_031.jpg,NA,NA,pleasant,unpleasant,NA,NA,NA,NA,NA,right,1146.09999999963,true,NA,NA,NA,NA,NA
PQ2vVrTU,3odop6t3bvxisk3y617o3pei3yp24c,3lq8puhqfp5i213p1dh19eqvzhiihs,PQ2vVrTU,2020-0188,2021-10-14,08:41:07,09:49:34,NA,incomplete,true,true,NA,0,33,NA,purple,n_s_028.jpg,NA,NA,unpleasant,pleasant,NA,NA,NA,NA,NA,left,1474.60000000009,true,NA,NA,NA,NA,NA
PQ2vVrTU,3odop6t3bvxisk3y617o3pei3yp24c,3lq8puhqfp5i213p1dh19eqvzhiihs,PQ2vVrTU,2020-0188,2021-10-14,08:41:07,09:49:34,NA,incomplete,true,true,NA,0,34,NA,purple,n_s_041.jpg,NA,NA,pleasant,unpleasant,NA,NA,NA,NA,NA,right,1293.70000000019,true,NA,NA,NA,NA,NA
PQ2vVrTU,3odop6t3bvxisk3y617o3pei3yp24c,3lq8puhqfp5i213p1dh19eqvzhiihs,PQ2vVrTU,2020-0188,2021-10-14,08:41:07,09:49:34,NA,incomplete,true,true,NA,0,35,NA,purple,n_l_002.jpg,NA,NA,pleasant,unpleasant,NA,NA,NA,NA,NA,right,1617.20000000019,true,NA,NA,NA,NA,NA
PQ2vVrTU,3odop6t3bvxisk3y617o3pei3yp24c,3lq8puhqfp5i213p1dh19eqvzhiihs,PQ2vVrTU,2020-0188,2021-10-14,08:41:07,09:49:34,NA,incomplete,true,NA,true,0,0,NA,NA,NA,right,present,NA,NA,n_l_062.jpg,black,m_s_030.jpg,red,between,NA,NaN,NA,right,7749.100000000093,1,2,6288.799999999814
PQ2vVrTU,3odop6t3bvxisk3y617o3pei3yp24c,3lq8puhqfp5i213p1dh19eqvzhiihs,PQ2vVrTU,2020-0188,2021-10-14,08:41:07,09:49:34,NA,incomplete,true,NA,true,0,1,NA,NA,NA,right,absent,NA,NA,n_l_021.jpg,blue,m_s_007.jpg,black,between,NA,NaN,NA,left,2772.600000000093,0,0,1053.2999999998137
PQ2vVrTU,3odop6t3bvxisk3y617o3pei3yp24c,3lq8puhqfp5i213p1dh19eqvzhiihs,PQ2vVrTU,2020-0188,2021-10-14,08:41:07,09:49:34,NA,incomplete,true,NA,true,0,2,NA,NA,NA,left,absent,NA,NA,m_s_088.jpg,blue,n_l_031.jpg,purple,between,NA,NaN,NA,left,1682.7000000001863,1,1,667.8000000002794
PQ2vVrTU,3odop6t3bvxisk3y617o3pei3yp24c,3lq8puhqfp5i213p1dh19eqvzhiihs,PQ2vVrTU,2020-0188,2021-10-14,08:41:07,09:49:34,NA,incomplete,true,NA,true,0,3,NA,NA,NA,right,present,NA,NA,m_s_113.jpg,red,n_s_008.jpg,brown,between,NA,NaN,NA,right,2498.7999999998137,1,2,1328.6000000000931
PQ2vVrTU,3odop6t3bvxisk3y617o3pei3yp24c,3lq8puhqfp5i213p1dh19eqvzhiihs,PQ2vVrTU,2020-0188,2021-10-14,08:41:07,09:49:34,NA,incomplete,true,NA,true,0,4,NA,NA,NA,right,absent,NA,NA,m_l_010.jpg,yellow,n_s_068.jpg,yellow,within,NA,NaN,NA,right,1486.7999999998137,1,2,1617.6000000000931
PQ2vVrTU,3odop6t3bvxisk3y617o3pei3yp24c,3lq8puhqfp5i213p1dh19eqvzhiihs,PQ2vVrTU,2020-0188,2021-10-14,08:41:07,09:49:34,NA,incomplete,true,NA,true,0,5,NA,NA,NA,left,present,NA,NA,n_s_058.jpg,red,m_l_109.jpg,red,within,NA,NaN,NA,left,1580.0999999996275,1,1,654.6000000000931
PQ2vVrTU,3odop6t3bvxisk3y617o3pei3yp24c,3lq8puhqfp5i213p1dh19eqvzhiihs,PQ2vVrTU,2020-0188,2021-10-14,08:41:07,09:49:34,NA,incomplete,true,NA,true,0,6,NA,NA,NA,left,present,NA,NA,m_s_117.jpg,blue,m_s_064.jpg,blue,within,NA,NaN,NA,left,2450.7999999998137,1,0,591
PQ2vVrTU,3odop6t3bvxisk3y617o3pei3yp24c,3lq8puhqfp5i213p1dh19eqvzhiihs,PQ2vVrTU,2020-0188,2021-10-14,08:41:07,09:49:34,NA,incomplete,true,NA,true,0,7,NA,NA,NA,right,absent,NA,NA,n_l_002.jpg,purple,n_s_108.jpg,purple,within,NA,NaN,NA,right,1958.5,1,1,658.8999999999069
PQ2vVrTU,3odop6t3bvxisk3y617o3pei3yp24c,3lq8puhqfp5i213p1dh19eqvzhiihs,PQ2vVrTU,2020-0188,2021-10-14,08:41:07,09:49:34,NA,incomplete,true,NA,true,0,8,NA,NA,NA,left,absent,NA,NA,m_s_053.jpg,yellow,m_l_117.jpg,brown,between,NA,NaN,NA,left,1173.6999999997206,1,2,640.4000000003725
PQ2vVrTU,3odop6t3bvxisk3y617o3pei3yp24c,3lq8puhqfp5i213p1dh19eqvzhiihs,PQ2vVrTU,2020-0188,2021-10-14,08:41:07,09:49:34,NA,incomplete,true,NA,true,0,9,NA,NA,NA,right,present,NA,NA,m_s_115.jpg,brown,m_s_011.jpg,brown,within,NA,NaN,NA,right,2631.5999999996275,1,0,794
PQ2vVrTU,3odop6t3bvxisk3y617o3pei3yp24c,3lq8puhqfp5i213p1dh19eqvzhiihs,PQ2vVrTU,2020-0188,2021-10-14,08:41:07,09:49:34,NA,incomplete,true,NA,true,0,10,NA,NA,NA,left,absent,NA,NA,n_s_062.jpg,black,m_l_020.jpg,black,within,NA,NaN,NA,left,1476.8000000002794,1,2,647.5
PQ2vVrTU,3odop6t3bvxisk3y617o3pei3yp24c,3lq8puhqfp5i213p1dh19eqvzhiihs,PQ2vVrTU,2020-0188,2021-10-14,08:41:07,09:49:34,NA,incomplete,false,true,NA,1,0,NA,brown,n_s_011.jpg,NA,NA,pleasant,unpleasant,NA,NA,NA,NA,NA,left,1738.5,true,NA,NA,NA,NA,NA
PQ2vVrTU,3odop6t3bvxisk3y617o3pei3yp24c,3lq8puhqfp5i213p1dh19eqvzhiihs,PQ2vVrTU,2020-0188,2021-10-14,08:41:07,09:49:34,NA,incomplete,false,true,NA,1,1,NA,brown,m_l_036.jpg,NA,NA,unpleasant,pleasant,NA,NA,NA,NA,NA,right,1467.19999999972,true,NA,NA,NA,NA,NA
PQ2vVrTU,3odop6t3bvxisk3y617o3pei3yp24c,3lq8puhqfp5i213p1dh19eqvzhiihs,PQ2vVrTU,2020-0188,2021-10-14,08:41:07,09:49:34,NA,incomplete,false,true,NA,1,2,NA,brown,n_s_019.jpg,NA,NA,unpleasant,pleasant,NA,NA,NA,NA,NA,right,1242.89999999991,true,NA,NA,NA,NA,NA
PQ2vVrTU,3odop6t3bvxisk3y617o3pei3yp24c,3lq8puhqfp5i213p1dh19eqvzhiihs,PQ2vVrTU,2020-0188,2021-10-14,08:41:07,09:49:34,NA,incomplete,false,true,NA,1,3,NA,brown,n_s_053.jpg,NA,NA,unpleasant,pleasant,NA,NA,NA,NA,NA,left,1455.10000000009,true,NA,NA,NA,NA,NA
PQ2vVrTU,3odop6t3bvxisk3y617o3pei3yp24c,3lq8puhqfp5i213p1dh19eqvzhiihs,PQ2vVrTU,2020-0188,2021-10-14,08:41:07,09:49:34,NA,incomplete,false,true,NA,1,4,NA,brown,n_l_111.jpg,NA,NA,unpleasant,pleasant,NA,NA,NA,NA,NA,right,1744.5,true,NA,NA,NA,NA,NA
PQ2vVrTU,3odop6t3bvxisk3y617o3pei3yp24c,3lq8puhqfp5i213p1dh19eqvzhiihs,PQ2vVrTU,2020-0188,2021-10-14,08:41:07,09:49:34,NA,incomplete,false,true,NA,1,5,NA,brown,m_s_027.jpg,NA,NA,pleasant,unpleasant,NA,NA,NA,NA,NA,left,1309.20000000019,true,NA,NA,NA,NA,NA
PQ2vVrTU,3odop6t3bvxisk3y617o3pei3yp24c,3lq8puhqfp5i213p1dh19eqvzhiihs,PQ2vVrTU,2020-0188,2021-10-14,08:41:07,09:49:34,NA,incomplete,false,true,NA,1,6,NA,purple,n_s_036.jpg,NA,NA,pleasant,unpleasant,NA,NA,NA,NA,NA,left,1249.80000000028,true,NA,NA,NA,NA,NA
PQ2vVrTU,3odop6t3bvxisk3y617o3pei3yp24c,3lq8puhqfp5i213p1dh19eqvzhiihs,PQ2vVrTU,2020-0188,2021-10-14,08:41:07,09:49:34,NA,incomplete,false,true,NA,1,7,NA,purple,n_l_098.jpg,NA,NA,unpleasant,pleasant,NA,NA,NA,NA,NA,left,1139.59999999963,true,NA,NA,NA,NA,NA
PQ2vVrTU,3odop6t3bvxisk3y617o3pei3yp24c,3lq8puhqfp5i213p1dh19eqvzhiihs,PQ2vVrTU,2020-0188,2021-10-14,08:41:07,09:49:34,NA,incomplete,false,true,NA,1,8,NA,purple,m_l_114.jpg,NA,NA,unpleasant,pleasant,NA,NA,NA,NA,NA,left,1203.10000000009,true,NA,NA,NA,NA,NA
PQ2vVrTU,3odop6t3bvxisk3y617o3pei3yp24c,3lq8puhqfp5i213p1dh19eqvzhiihs,PQ2vVrTU,2020-0188,2021-10-14,08:41:07,09:49:34,NA,incomplete,false,true,NA,1,9,NA,purple,m_l_092.jpg,NA,NA,pleasant,unpleasant,NA,NA,NA,NA,NA,right,1367,true,NA,NA,NA,NA,NA
PQ2vVrTU,3odop6t3bvxisk3y617o3pei3yp24c,3lq8puhqfp5i213p1dh19eqvzhiihs,PQ2vVrTU,2020-0188,2021-10-14,08:41:07,09:49:34,NA,incomplete,false,true,NA,1,10,NA,purple,n_l_007.jpg,NA,NA,unpleasant,pleasant,NA,NA,NA,NA,NA,left,1339.69999999972,true,NA,NA,NA,NA,NA
PQ2vVrTU,3odop6t3bvxisk3y617o3pei3yp24c,3lq8puhqfp5i213p1dh19eqvzhiihs,PQ2vVrTU,2020-0188,2021-10-14,08:41:07,09:49:34,NA,incomplete,false,true,NA,1,11,NA,purple,m_s_078.jpg,NA,NA,unpleasant,pleasant,NA,NA,NA,NA,NA,left,1082.5,true,NA,NA,NA,NA,NA
PQ2vVrTU,3odop6t3bvxisk3y617o3pei3yp24c,3lq8puhqfp5i213p1dh19eqvzhiihs,PQ2vVrTU,2020-0188,2021-10-14,08:41:07,09:49:34,NA,incomplete,false,true,NA,1,12,NA,yellow,m_s_006.jpg,NA,NA,unpleasant,pleasant,NA,NA,NA,NA,NA,right,1428.80000000028,true,NA,NA,NA,NA,NA
PQ2vVrTU,3odop6t3bvxisk3y617o3pei3yp24c,3lq8puhqfp5i213p1dh19eqvzhiihs,PQ2vVrTU,2020-0188,2021-10-14,08:41:07,09:49:34,NA,incomplete,false,true,NA,1,13,NA,yellow,n_s_037.jpg,NA,NA,pleasant,unpleasant,NA,NA,NA,NA,NA,left,1664.20000000019,true,NA,NA,NA,NA,NA
PQ2vVrTU,3odop6t3bvxisk3y617o3pei3yp24c,3lq8puhqfp5i213p1dh19eqvzhiihs,PQ2vVrTU,2020-0188,2021-10-14,08:41:07,09:49:34,NA,incomplete,false,true,NA,1,14,NA,yellow,n_s_117.jpg,NA,NA,pleasant,unpleasant,NA,NA,NA,NA,NA,left,1352,true,NA,NA,NA,NA,NA
PQ2vVrTU,3odop6t3bvxisk3y617o3pei3yp24c,3lq8puhqfp5i213p1dh19eqvzhiihs,PQ2vVrTU,2020-0188,2021-10-14,08:41:07,09:49:34,NA,incomplete,false,true,NA,1,15,NA,yellow,m_s_055.jpg,NA,NA,pleasant,unpleasant,NA,NA,NA,NA,NA,right,2062.5,true,NA,NA,NA,NA,NA
PQ2vVrTU,3odop6t3bvxisk3y617o3pei3yp24c,3lq8puhqfp5i213p1dh19eqvzhiihs,PQ2vVrTU,2020-0188,2021-10-14,08:41:07,09:49:34,NA,incomplete,false,true,NA,1,16,NA,yellow,m_s_005.jpg,NA,NA,pleasant,unpleasant,NA,NA,NA,NA,NA,left,1582.29999999981,true,NA,NA,NA,NA,NA
PQ2vVrTU,3odop6t3bvxisk3y617o3pei3yp24c,3lq8puhqfp5i213p1dh19eqvzhiihs,PQ2vVrTU,2020-0188,2021-10-14,08:41:07,09:49:34,NA,incomplete,false,true,NA,1,17,NA,yellow,n_s_093.jpg,NA,NA,pleasant,unpleasant,NA,NA,NA,NA,NA,right,1280.60000000009,true,NA,NA,NA,NA,NA
PQ2vVrTU,3odop6t3bvxisk3y617o3pei3yp24c,3lq8puhqfp5i213p1dh19eqvzhiihs,PQ2vVrTU,2020-0188,2021-10-14,08:41:07,09:49:34,NA,incomplete,false,true,NA,1,18,NA,red,n_l_109.jpg,NA,NA,pleasant,unpleasant,NA,NA,NA,NA,NA,left,1833.29999999981,true,NA,NA,NA,NA,NA
PQ2vVrTU,3odop6t3bvxisk3y617o3pei3yp24c,3lq8puhqfp5i213p1dh19eqvzhiihs,PQ2vVrTU,2020-0188,2021-10-14,08:41:07,09:49:34,NA,incomplete,false,true,NA,1,19,NA,red,n_l_055.jpg,NA,NA,unpleasant,pleasant,NA,NA,NA,NA,NA,right,1383.89999999991,true,NA,NA,NA,NA,NA
PQ2vVrTU,3odop6t3bvxisk3y617o3pei3yp24c,3lq8puhqfp5i213p1dh19eqvzhiihs,PQ2vVrTU,2020-0188,2021-10-14,08:41:07,09:49:34,NA,incomplete,false,true,NA,1,20,NA,red,m_s_065.jpg,NA,NA,unpleasant,pleasant,NA,NA,NA,NA,NA,right,1083.29999999981,true,NA,NA,NA,NA,NA
PQ2vVrTU,3odop6t3bvxisk3y617o3pei3yp24c,3lq8puhqfp5i213p1dh19eqvzhiihs,PQ2vVrTU,2020-0188,2021-10-14,08:41:07,09:49:34,NA,incomplete,false,true,NA,1,21,NA,red,m_l_030.jpg,NA,NA,unpleasant,pleasant,NA,NA,NA,NA,NA,right,1219.5,true,NA,NA,NA,NA,NA
PQ2vVrTU,3odop6t3bvxisk3y617o3pei3yp24c,3lq8puhqfp5i213p1dh19eqvzhiihs,PQ2vVrTU,2020-0188,2021-10-14,08:41:07,09:49:34,NA,incomplete,false,true,NA,1,22,NA,red,n_l_104.jpg,NA,NA,pleasant,unpleasant,NA,NA,NA,NA,NA,left,1506.30000000028,true,NA,NA,NA,NA,NA
PQ2vVrTU,3odop6t3bvxisk3y617o3pei3yp24c,3lq8puhqfp5i213p1dh19eqvzhiihs,PQ2vVrTU,2020-0188,2021-10-14,08:41:07,09:49:34,NA,incomplete,false,true,NA,1,23,NA,red,m_l_022.jpg,NA,NA,unpleasant,pleasant,NA,NA,NA,NA,NA,left,1436.5,true,NA,NA,NA,NA,NA
PQ2vVrTU,3odop6t3bvxisk3y617o3pei3yp24c,3lq8puhqfp5i213p1dh19eqvzhiihs,PQ2vVrTU,2020-0188,2021-10-14,08:41:07,09:49:34,NA,incomplete,false,true,NA,1,24,NA,white,n_s_032.jpg,NA,NA,pleasant,unpleasant,NA,NA,NA,NA,NA,left,1856.5,true,NA,NA,NA,NA,NA
PQ2vVrTU,3odop6t3bvxisk3y617o3pei3yp24c,3lq8puhqfp5i213p1dh19eqvzhiihs,PQ2vVrTU,2020-0188,2021-10-14,08:41:07,09:49:34,NA,incomplete,false,true,NA,1,25,NA,white,m_l_106.jpg,NA,NA,pleasant,unpleasant,NA,NA,NA,NA,NA,left,1493.10000000009,true,NA,NA,NA,NA,NA
PQ2vVrTU,3odop6t3bvxisk3y617o3pei3yp24c,3lq8puhqfp5i213p1dh19eqvzhiihs,PQ2vVrTU,2020-0188,2021-10-14,08:41:07,09:49:34,NA,incomplete,false,true,NA,1,26,NA,white,n_l_016.jpg,NA,NA,pleasant,unpleasant,NA,NA,NA,NA,NA,left,1876.19999999972,true,NA,NA,NA,NA,NA
PQ2vVrTU,3odop6t3bvxisk3y617o3pei3yp24c,3lq8puhqfp5i213p1dh19eqvzhiihs,PQ2vVrTU,2020-0188,2021-10-14,08:41:07,09:49:34,NA,incomplete,false,true,NA,1,27,NA,white,m_s_116.jpg,NA,NA,unpleasant,pleasant,NA,NA,NA,NA,NA,left,1179.5,true,NA,NA,NA,NA,NA
PQ2vVrTU,3odop6t3bvxisk3y617o3pei3yp24c,3lq8puhqfp5i213p1dh19eqvzhiihs,PQ2vVrTU,2020-0188,2021-10-14,08:41:07,09:49:34,NA,incomplete,false,true,NA,1,28,NA,white,m_l_074.jpg,NA,NA,pleasant,unpleasant,NA,NA,NA,NA,NA,right,1215.20000000019,true,NA,NA,NA,NA,NA
PQ2vVrTU,3odop6t3bvxisk3y617o3pei3yp24c,3lq8puhqfp5i213p1dh19eqvzhiihs,PQ2vVrTU,2020-0188,2021-10-14,08:41:07,09:49:34,NA,incomplete,false,true,NA,1,29,NA,white,m_l_037.jpg,NA,NA,pleasant,unpleasant,NA,NA,NA,NA,NA,right,1464.5,true,NA,NA,NA,NA,NA
PQ2vVrTU,3odop6t3bvxisk3y617o3pei3yp24c,3lq8puhqfp5i213p1dh19eqvzhiihs,PQ2vVrTU,2020-0188,2021-10-14,08:41:07,09:49:34,NA,incomplete,false,true,NA,1,30,NA,green,m_s_087.jpg,NA,NA,pleasant,unpleasant,NA,NA,NA,NA,NA,right,2195.70000000019,true,NA,NA,NA,NA,NA
PQ2vVrTU,3odop6t3bvxisk3y617o3pei3yp24c,3lq8puhqfp5i213p1dh19eqvzhiihs,PQ2vVrTU,2020-0188,2021-10-14,08:41:07,09:49:34,NA,incomplete,false,true,NA,1,31,NA,green,n_l_076.jpg,NA,NA,pleasant,unpleasant,NA,NA,NA,NA,NA,left,1269.39999999991,true,NA,NA,NA,NA,NA
PQ2vVrTU,3odop6t3bvxisk3y617o3pei3yp24c,3lq8puhqfp5i213p1dh19eqvzhiihs,PQ2vVrTU,2020-0188,2021-10-14,08:41:07,09:49:34,NA,incomplete,false,true,NA,1,32,NA,green,n_l_083.jpg,NA,NA,pleasant,unpleasant,NA,NA,NA,NA,NA,right,1288.5,true,NA,NA,NA,NA,NA
PQ2vVrTU,3odop6t3bvxisk3y617o3pei3yp24c,3lq8puhqfp5i213p1dh19eqvzhiihs,PQ2vVrTU,2020-0188,2021-10-14,08:41:07,09:49:34,NA,incomplete,false,true,NA,1,33,NA,green,m_l_065.jpg,NA,NA,unpleasant,pleasant,NA,NA,NA,NA,NA,left,1778.30000000028,true,NA,NA,NA,NA,NA
PQ2vVrTU,3odop6t3bvxisk3y617o3pei3yp24c,3lq8puhqfp5i213p1dh19eqvzhiihs,PQ2vVrTU,2020-0188,2021-10-14,08:41:07,09:49:34,NA,incomplete,false,true,NA,1,34,NA,green,m_s_047.jpg,NA,NA,pleasant,unpleasant,NA,NA,NA,NA,NA,right,1112.5,true,NA,NA,NA,NA,NA
PQ2vVrTU,3odop6t3bvxisk3y617o3pei3yp24c,3lq8puhqfp5i213p1dh19eqvzhiihs,PQ2vVrTU,2020-0188,2021-10-14,08:41:07,09:49:34,NA,incomplete,false,true,NA,1,35,NA,green,m_s_082.jpg,NA,NA,unpleasant,pleasant,NA,NA,NA,NA,NA,right,1236.5,true,NA,NA,NA,NA,NA
PQ2vVrTU,3odop6t3bvxisk3y617o3pei3yp24c,3lq8puhqfp5i213p1dh19eqvzhiihs,PQ2vVrTU,2020-0188,2021-10-14,08:41:07,09:49:34,NA,incomplete,false,NA,true,1,0,NA,NA,NA,left,absent,NA,NA,m_l_036.jpg,brown,m_s_027.jpg,brown,within,NA,NaN,NA,left,2492.2999999998137,1,2,1160.8000000002794
PQ2vVrTU,3odop6t3bvxisk3y617o3pei3yp24c,3lq8puhqfp5i213p1dh19eqvzhiihs,PQ2vVrTU,2020-0188,2021-10-14,08:41:07,09:49:34,NA,incomplete,false,NA,true,1,1,NA,NA,NA,right,absent,NA,NA,n_s_117.jpg,yellow,n_l_007.jpg,purple,between,NA,NaN,NA,right,2909.7000000001863,1,2,619.3000000002794
PQ2vVrTU,3odop6t3bvxisk3y617o3pei3yp24c,3lq8puhqfp5i213p1dh19eqvzhiihs,PQ2vVrTU,2020-0188,2021-10-14,08:41:07,09:49:34,NA,incomplete,false,NA,true,1,2,NA,NA,NA,right,absent,NA,NA,m_l_037.jpg,white,m_l_106.jpg,white,within,NA,NaN,NA,right,1449.9000000003725,1,1,331.60000000009313
PQ2vVrTU,3odop6t3bvxisk3y617o3pei3yp24c,3lq8puhqfp5i213p1dh19eqvzhiihs,PQ2vVrTU,2020-0188,2021-10-14,08:41:07,09:49:34,NA,incomplete,false,NA,true,1,3,NA,NA,NA,left,absent,NA,NA,m_s_005.jpg,yellow,m_s_065.jpg,red,between,NA,NaN,NA,left,2601.5,1,2,458.1999999997206
PQ2vVrTU,3odop6t3bvxisk3y617o3pei3yp24c,3lq8puhqfp5i213p1dh19eqvzhiihs,PQ2vVrTU,2020-0188,2021-10-14,08:41:07,09:49:34,NA,incomplete,false,NA,true,1,4,NA,NA,NA,left,absent,NA,NA,n_l_104.jpg,red,n_l_016.jpg,white,between,NA,NaN,NA,right,3464.2999999998137,0,2,984.1000000000931
PQ2vVrTU,3odop6t3bvxisk3y617o3pei3yp24c,3lq8puhqfp5i213p1dh19eqvzhiihs,PQ2vVrTU,2020-0188,2021-10-14,08:41:07,09:49:34,NA,incomplete,false,NA,true,1,5,NA,NA,NA,right,absent,NA,NA,m_s_082.jpg,green,n_l_076.jpg,green,within,NA,NaN,NA,right,1402.8999999999069,1,1,622.6999999997206
PQ2vVrTU,3odop6t3bvxisk3y617o3pei3yp24c,3lq8puhqfp5i213p1dh19eqvzhiihs,PQ2vVrTU,2020-0188,2021-10-14,08:41:07,09:49:34,NA,incomplete,false,NA,true,1,6,NA,NA,NA,left,absent,NA,NA,n_l_098.jpg,purple,m_s_078.jpg,purple,within,NA,NaN,NA,left,6645.600000000093,1,2,1122.6000000000931
PQ2vVrTU,3odop6t3bvxisk3y617o3pei3yp24c,3lq8puhqfp5i213p1dh19eqvzhiihs,PQ2vVrTU,2020-0188,2021-10-14,08:41:07,09:49:34,NA,incomplete,false,NA,true,1,7,NA,NA,NA,left,absent,NA,NA,n_l_111.jpg,brown,m_l_114.jpg,purple,between,NA,NaN,NA,left,1858.3999999999069,1,2,751.6000000000931
PQ2vVrTU,3odop6t3bvxisk3y617o3pei3yp24c,3lq8puhqfp5i213p1dh19eqvzhiihs,PQ2vVrTU,2020-0188,2021-10-14,08:41:07,09:49:34,NA,incomplete,false,NA,true,1,8,NA,NA,NA,left,absent,NA,NA,m_l_074.jpg,white,n_l_083.jpg,green,between,NA,NaN,NA,right,7183.600000000093,0,2,1007.1999999997206
PQ2vVrTU,3odop6t3bvxisk3y617o3pei3yp24c,3lq8puhqfp5i213p1dh19eqvzhiihs,PQ2vVrTU,2020-0188,2021-10-14,08:41:07,09:49:34,NA,incomplete,false,NA,true,1,9,NA,NA,NA,right,absent,NA,NA,n_s_093.jpg,yellow,n_s_037.jpg,yellow,within,NA,NaN,NA,right,2294.399999999907,1,1,311.6999999997206
PQ2vVrTU,3odop6t3bvxisk3y617o3pei3yp24c,3lq8puhqfp5i213p1dh19eqvzhiihs,PQ2vVrTU,2020-0188,2021-10-14,08:41:07,09:49:34,NA,incomplete,false,NA,true,1,10,NA,NA,NA,left,absent,NA,NA,n_l_055.jpg,red,m_l_022.jpg,red,within,NA,NaN,NA,right,5170.699999999721,0,2,561.6000000000931
PQ2vVrTU,3odop6t3bvxisk3y617o3pei3yp24c,3lq8puhqfp5i213p1dh19eqvzhiihs,PQ2vVrTU,2020-0188,2021-10-14,08:41:07,09:49:34,NA,incomplete,false,true,NA,2,0,NA,orange,m_s_077.jpg,NA,NA,unpleasant,pleasant,NA,NA,NA,NA,NA,right,1513,true,NA,NA,NA,NA,NA
PQ2vVrTU,3odop6t3bvxisk3y617o3pei3yp24c,3lq8puhqfp5i213p1dh19eqvzhiihs,PQ2vVrTU,2020-0188,2021-10-14,08:41:07,09:49:34,NA,incomplete,false,true,NA,2,1,NA,orange,n_l_101.jpg,NA,NA,pleasant,unpleasant,NA,NA,NA,NA,NA,right,1381.20000000019,true,NA,NA,NA,NA,NA
PQ2vVrTU,3odop6t3bvxisk3y617o3pei3yp24c,3lq8puhqfp5i213p1dh19eqvzhiihs,PQ2vVrTU,2020-0188,2021-10-14,08:41:07,09:49:34,NA,incomplete,false,true,NA,2,2,NA,orange,n_s_022.jpg,NA,NA,unpleasant,pleasant,NA,NA,NA,NA,NA,right,1273.79999999981,true,NA,NA,NA,NA,NA
PQ2vVrTU,3odop6t3bvxisk3y617o3pei3yp24c,3lq8puhqfp5i213p1dh19eqvzhiihs,PQ2vVrTU,2020-0188,2021-10-14,08:41:07,09:49:34,NA,incomplete,false,true,NA,2,3,NA,orange,m_l_111.jpg,NA,NA,pleasant,unpleasant,NA,NA,NA,NA,NA,left,1372.20000000019,true,NA,NA,NA,NA,NA
PQ2vVrTU,3odop6t3bvxisk3y617o3pei3yp24c,3lq8puhqfp5i213p1dh19eqvzhiihs,PQ2vVrTU,2020-0188,2021-10-14,08:41:07,09:49:34,NA,incomplete,false,true,NA,2,4,NA,orange,m_s_102.jpg,NA,NA,unpleasant,pleasant,NA,NA,NA,NA,NA,left,3247.29999999981,true,NA,NA,NA,NA,NA
PQ2vVrTU,3odop6t3bvxisk3y617o3pei3yp24c,3lq8puhqfp5i213p1dh19eqvzhiihs,PQ2vVrTU,2020-0188,2021-10-14,08:41:07,09:49:34,NA,incomplete,false,true,NA,2,5,NA,orange,m_s_066.jpg,NA,NA,unpleasant,pleasant,NA,NA,NA,NA,NA,right,1682,true,NA,NA,NA,NA,NA
PQ2vVrTU,3odop6t3bvxisk3y617o3pei3yp24c,3lq8puhqfp5i213p1dh19eqvzhiihs,PQ2vVrTU,2020-0188,2021-10-14,08:41:07,09:49:34,NA,incomplete,false,true,NA,2,6,NA,yellow,n_s_023.jpg,NA,NA,pleasant,unpleasant,NA,NA,NA,NA,NA,left,1291.5,true,NA,NA,NA,NA,NA
PQ2vVrTU,3odop6t3bvxisk3y617o3pei3yp24c,3lq8puhqfp5i213p1dh19eqvzhiihs,PQ2vVrTU,2020-0188,2021-10-14,08:41:07,09:49:34,NA,incomplete,false,true,NA,2,7,NA,yellow,m_s_037.jpg,NA,NA,unpleasant,pleasant,NA,NA,NA,NA,NA,right,1127.79999999981,true,NA,NA,NA,NA,NA
PQ2vVrTU,3odop6t3bvxisk3y617o3pei3yp24c,3lq8puhqfp5i213p1dh19eqvzhiihs,PQ2vVrTU,2020-0188,2021-10-14,08:41:07,09:49:34,NA,incomplete,false,true,NA,2,8,NA,yellow,n_l_089.jpg,NA,NA,unpleasant,pleasant,NA,NA,NA,NA,NA,left,1671.19999999972,true,NA,NA,NA,NA,NA
PQ2vVrTU,3odop6t3bvxisk3y617o3pei3yp24c,3lq8puhqfp5i213p1dh19eqvzhiihs,PQ2vVrTU,2020-0188,2021-10-14,08:41:07,09:49:34,NA,incomplete,false,true,NA,2,9,NA,yellow,n_s_039.jpg,NA,NA,unpleasant,pleasant,NA,NA,NA,NA,NA,right,1433.10000000009,true,NA,NA,NA,NA,NA
PQ2vVrTU,3odop6t3bvxisk3y617o3pei3yp24c,3lq8puhqfp5i213p1dh19eqvzhiihs,PQ2vVrTU,2020-0188,2021-10-14,08:41:07,09:49:34,NA,incomplete,false,true,NA,2,10,NA,yellow,m_s_095.jpg,NA,NA,pleasant,unpleasant,NA,NA,NA,NA,NA,left,1454.60000000009,true,NA,NA,NA,NA,NA
PQ2vVrTU,3odop6t3bvxisk3y617o3pei3yp24c,3lq8puhqfp5i213p1dh19eqvzhiihs,PQ2vVrTU,2020-0188,2021-10-14,08:41:07,09:49:34,NA,incomplete,false,true,NA,2,11,NA,yellow,m_l_058.jpg,NA,NA,pleasant,unpleasant,NA,NA,NA,NA,NA,left,1062.30000000028,true,NA,NA,NA,NA,NA
PQ2vVrTU,3odop6t3bvxisk3y617o3pei3yp24c,3lq8puhqfp5i213p1dh19eqvzhiihs,PQ2vVrTU,2020-0188,2021-10-14,08:41:07,09:49:34,NA,incomplete,false,true,NA,2,12,NA,purple,m_s_023.jpg,NA,NA,unpleasant,pleasant,NA,NA,NA,NA,NA,right,1055,true,NA,NA,NA,NA,NA
PQ2vVrTU,3odop6t3bvxisk3y617o3pei3yp24c,3lq8puhqfp5i213p1dh19eqvzhiihs,PQ2vVrTU,2020-0188,2021-10-14,08:41:07,09:49:34,NA,incomplete,false,true,NA,2,13,NA,purple,n_s_020.jpg,NA,NA,unpleasant,pleasant,NA,NA,NA,NA,NA,left,911.600000000093,true,NA,NA,NA,NA,NA
PQ2vVrTU,3odop6t3bvxisk3y617o3pei3yp24c,3lq8puhqfp5i213p1dh19eqvzhiihs,PQ2vVrTU,2020-0188,2021-10-14,08:41:07,09:49:34,NA,incomplete,false,true,NA,2,14,NA,purple,m_s_033.jpg,NA,NA,pleasant,unpleasant,NA,NA,NA,NA,NA,left,1076,true,NA,NA,NA,NA,NA
PQ2vVrTU,3odop6t3bvxisk3y617o3pei3yp24c,3lq8puhqfp5i213p1dh19eqvzhiihs,PQ2vVrTU,2020-0188,2021-10-14,08:41:07,09:49:34,NA,incomplete,false,true,NA,2,15,NA,purple,n_s_047.jpg,NA,NA,unpleasant,pleasant,NA,NA,NA,NA,NA,left,705.600000000093,true,NA,NA,NA,NA,NA
PQ2vVrTU,3odop6t3bvxisk3y617o3pei3yp24c,3lq8puhqfp5i213p1dh19eqvzhiihs,PQ2vVrTU,2020-0188,2021-10-14,08:41:07,09:49:34,NA,incomplete,false,true,NA,2,16,NA,purple,n_s_116.jpg,NA,NA,unpleasant,pleasant,NA,NA,NA,NA,NA,right,729.600000000093,true,NA,NA,NA,NA,NA
PQ2vVrTU,3odop6t3bvxisk3y617o3pei3yp24c,3lq8puhqfp5i213p1dh19eqvzhiihs,PQ2vVrTU,2020-0188,2021-10-14,08:41:07,09:49:34,NA,incomplete,false,true,NA,2,17,NA,purple,n_l_017.jpg,NA,NA,pleasant,unpleasant,NA,NA,NA,NA,NA,left,1045.29999999981,true,NA,NA,NA,NA,NA
PQ2vVrTU,3odop6t3bvxisk3y617o3pei3yp24c,3lq8puhqfp5i213p1dh19eqvzhiihs,PQ2vVrTU,2020-0188,2021-10-14,08:41:07,09:49:34,NA,incomplete,false,true,NA,2,18,NA,brown,n_s_100.jpg,NA,NA,unpleasant,pleasant,NA,NA,NA,NA,NA,left,1184.80000000028,true,NA,NA,NA,NA,NA
PQ2vVrTU,3odop6t3bvxisk3y617o3pei3yp24c,3lq8puhqfp5i213p1dh19eqvzhiihs,PQ2vVrTU,2020-0188,2021-10-14,08:41:07,09:49:34,NA,incomplete,false,true,NA,2,19,NA,brown,n_l_052.jpg,NA,NA,unpleasant,pleasant,NA,NA,NA,NA,NA,right,980.200000000186,true,NA,NA,NA,NA,NA
PQ2vVrTU,3odop6t3bvxisk3y617o3pei3yp24c,3lq8puhqfp5i213p1dh19eqvzhiihs,PQ2vVrTU,2020-0188,2021-10-14,08:41:07,09:49:34,NA,incomplete,false,true,NA,2,20,NA,brown,n_s_075.jpg,NA,NA,pleasant,unpleasant,NA,NA,NA,NA,NA,right,1536.70000000019,true,NA,NA,NA,NA,NA
PQ2vVrTU,3odop6t3bvxisk3y617o3pei3yp24c,3lq8puhqfp5i213p1dh19eqvzhiihs,PQ2vVrTU,2020-0188,2021-10-14,08:41:07,09:49:34,NA,incomplete,false,true,NA,2,21,NA,brown,m_l_061.jpg,NA,NA,unpleasant,pleasant,NA,NA,NA,NA,NA,right,1760.29999999981,true,NA,NA,NA,NA,NA
PQ2vVrTU,3odop6t3bvxisk3y617o3pei3yp24c,3lq8puhqfp5i213p1dh19eqvzhiihs,PQ2vVrTU,2020-0188,2021-10-14,08:41:07,09:49:34,NA,incomplete,false,true,NA,2,22,NA,brown,m_s_014.jpg,NA,NA,unpleasant,pleasant,NA,NA,NA,NA,NA,left,1434,true,NA,NA,NA,NA,NA
PQ2vVrTU,3odop6t3bvxisk3y617o3pei3yp24c,3lq8puhqfp5i213p1dh19eqvzhiihs,PQ2vVrTU,2020-0188,2021-10-14,08:41:07,09:49:34,NA,incomplete,false,true,NA,2,23,NA,brown,n_s_115.jpg,NA,NA,unpleasant,pleasant,NA,NA,NA,NA,NA,right,1203.10000000009,true,NA,NA,NA,NA,NA
PQ2vVrTU,3odop6t3bvxisk3y617o3pei3yp24c,3lq8puhqfp5i213p1dh19eqvzhiihs,PQ2vVrTU,2020-0188,2021-10-14,08:41:07,09:49:34,NA,incomplete,false,true,NA,2,24,NA,blue,m_l_007.jpg,NA,NA,unpleasant,pleasant,NA,NA,NA,NA,NA,left,1653.5,true,NA,NA,NA,NA,NA
PQ2vVrTU,3odop6t3bvxisk3y617o3pei3yp24c,3lq8puhqfp5i213p1dh19eqvzhiihs,PQ2vVrTU,2020-0188,2021-10-14,08:41:07,09:49:34,NA,incomplete,false,true,NA,2,25,NA,blue,n_s_067.jpg,NA,NA,unpleasant,pleasant,NA,NA,NA,NA,NA,left,1778.80000000028,true,NA,NA,NA,NA,NA
PQ2vVrTU,3odop6t3bvxisk3y617o3pei3yp24c,3lq8puhqfp5i213p1dh19eqvzhiihs,PQ2vVrTU,2020-0188,2021-10-14,08:41:07,09:49:34,NA,incomplete,false,true,NA,2,26,NA,blue,m_s_026.jpg,NA,NA,unpleasant,pleasant,NA,NA,NA,NA,NA,left,1903.39999999991,true,NA,NA,NA,NA,NA
PQ2vVrTU,3odop6t3bvxisk3y617o3pei3yp24c,3lq8puhqfp5i213p1dh19eqvzhiihs,PQ2vVrTU,2020-0188,2021-10-14,08:41:07,09:49:34,NA,incomplete,false,true,NA,2,27,NA,blue,m_s_084.jpg,NA,NA,unpleasant,pleasant,NA,NA,NA,NA,NA,left,1253.80000000028,true,NA,NA,NA,NA,NA
PQ2vVrTU,3odop6t3bvxisk3y617o3pei3yp24c,3lq8puhqfp5i213p1dh19eqvzhiihs,PQ2vVrTU,2020-0188,2021-10-14,08:41:07,09:49:34,NA,incomplete,false,true,NA,2,28,NA,blue,m_l_091.jpg,NA,NA,pleasant,unpleasant,NA,NA,NA,NA,NA,left,1010.20000000019,true,NA,NA,NA,NA,NA
PQ2vVrTU,3odop6t3bvxisk3y617o3pei3yp24c,3lq8puhqfp5i213p1dh19eqvzhiihs,PQ2vVrTU,2020-0188,2021-10-14,08:41:07,09:49:34,NA,incomplete,false,true,NA,2,29,NA,blue,m_s_040.jpg,NA,NA,unpleasant,pleasant,NA,NA,NA,NA,NA,left,1393.89999999991,true,NA,NA,NA,NA,NA
PQ2vVrTU,3odop6t3bvxisk3y617o3pei3yp24c,3lq8puhqfp5i213p1dh19eqvzhiihs,PQ2vVrTU,2020-0188,2021-10-14,08:41:07,09:49:34,NA,incomplete,false,true,NA,2,30,NA,black,n_s_072.jpg,NA,NA,unpleasant,pleasant,NA,NA,NA,NA,NA,left,1045.29999999981,true,NA,NA,NA,NA,NA
PQ2vVrTU,3odop6t3bvxisk3y617o3pei3yp24c,3lq8puhqfp5i213p1dh19eqvzhiihs,PQ2vVrTU,2020-0188,2021-10-14,08:41:07,09:49:34,NA,incomplete,false,true,NA,2,31,NA,black,n_s_006.jpg,NA,NA,pleasant,unpleasant,NA,NA,NA,NA,NA,right,1761.29999999981,true,NA,NA,NA,NA,NA
PQ2vVrTU,3odop6t3bvxisk3y617o3pei3yp24c,3lq8puhqfp5i213p1dh19eqvzhiihs,PQ2vVrTU,2020-0188,2021-10-14,08:41:07,09:49:34,NA,incomplete,false,true,NA,2,32,NA,black,n_l_114.jpg,NA,NA,pleasant,unpleasant,NA,NA,NA,NA,NA,right,1606.30000000028,true,NA,NA,NA,NA,NA
PQ2vVrTU,3odop6t3bvxisk3y617o3pei3yp24c,3lq8puhqfp5i213p1dh19eqvzhiihs,PQ2vVrTU,2020-0188,2021-10-14,08:41:07,09:49:34,NA,incomplete,false,true,NA,2,33,NA,black,m_s_048.jpg,NA,NA,pleasant,unpleasant,NA,NA,NA,NA,NA,right,2341.10000000009,true,NA,NA,NA,NA,NA
PQ2vVrTU,3odop6t3bvxisk3y617o3pei3yp24c,3lq8puhqfp5i213p1dh19eqvzhiihs,PQ2vVrTU,2020-0188,2021-10-14,08:41:07,09:49:34,NA,incomplete,false,true,NA,2,34,NA,black,n_s_061.jpg,NA,NA,unpleasant,pleasant,NA,NA,NA,NA,NA,left,1294.39999999991,true,NA,NA,NA,NA,NA
PQ2vVrTU,3odop6t3bvxisk3y617o3pei3yp24c,3lq8puhqfp5i213p1dh19eqvzhiihs,PQ2vVrTU,2020-0188,2021-10-14,08:41:07,09:49:34,NA,incomplete,false,true,NA,2,35,NA,black,n_s_048.jpg,NA,NA,pleasant,unpleasant,NA,NA,NA,NA,NA,left,1383.29999999981,true,NA,NA,NA,NA,NA
PQ2vVrTU,3odop6t3bvxisk3y617o3pei3yp24c,3lq8puhqfp5i213p1dh19eqvzhiihs,PQ2vVrTU,2020-0188,2021-10-14,08:41:07,09:49:34,NA,incomplete,false,NA,true,2,0,NA,NA,NA,right,absent,NA,NA,m_l_058.jpg,yellow,m_s_037.jpg,yellow,within,NA,NaN,NA,left,7540.600000000093,0,2,983.5
PQ2vVrTU,3odop6t3bvxisk3y617o3pei3yp24c,3lq8puhqfp5i213p1dh19eqvzhiihs,PQ2vVrTU,2020-0188,2021-10-14,08:41:07,09:49:34,NA,incomplete,false,NA,true,2,1,NA,NA,NA,right,absent,NA,NA,n_s_075.jpg,brown,n_s_116.jpg,purple,between,NA,NaN,NA,right,1237.3999999999069,1,1,307.5
PQ2vVrTU,3odop6t3bvxisk3y617o3pei3yp24c,3lq8puhqfp5i213p1dh19eqvzhiihs,PQ2vVrTU,2020-0188,2021-10-14,08:41:07,09:49:34,NA,incomplete,false,NA,true,2,2,NA,NA,NA,left,absent,NA,NA,m_s_102.jpg,orange,n_l_089.jpg,yellow,between,NA,NaN,NA,left,1062.5999999996275,1,2,854.5
PQ2vVrTU,3odop6t3bvxisk3y617o3pei3yp24c,3lq8puhqfp5i213p1dh19eqvzhiihs,PQ2vVrTU,2020-0188,2021-10-14,08:41:07,09:49:34,NA,incomplete,false,NA,true,2,3,NA,NA,NA,right,absent,NA,NA,n_l_114.jpg,black,m_l_091.jpg,blue,between,NA,NaN,NA,right,1448.7999999998137,1,2,498.6999999997206
PQ2vVrTU,3odop6t3bvxisk3y617o3pei3yp24c,3lq8puhqfp5i213p1dh19eqvzhiihs,PQ2vVrTU,2020-0188,2021-10-14,08:41:07,09:49:34,NA,incomplete,false,NA,true,2,4,NA,NA,NA,right,absent,NA,NA,n_s_115.jpg,brown,n_l_052.jpg,brown,within,NA,NaN,NA,right,1373.5,1,2,1362.1999999997206
PQ2vVrTU,3odop6t3bvxisk3y617o3pei3yp24c,3lq8puhqfp5i213p1dh19eqvzhiihs,PQ2vVrTU,2020-0188,2021-10-14,08:41:07,09:49:34,NA,incomplete,false,NA,true,2,5,NA,NA,NA,right,absent,NA,NA,n_s_048.jpg,black,n_s_006.jpg,black,within,NA,NaN,NA,left,1132,0,2,661.5
PQ2vVrTU,3odop6t3bvxisk3y617o3pei3yp24c,3lq8puhqfp5i213p1dh19eqvzhiihs,PQ2vVrTU,2020-0188,2021-10-14,08:41:07,09:49:34,NA,incomplete,false,NA,true,2,6,NA,NA,NA,left,absent,NA,NA,n_s_067.jpg,blue,m_s_040.jpg,blue,within,NA,NaN,NA,left,1549.3000000002794,1,2,689.1999999997206
PQ2vVrTU,3odop6t3bvxisk3y617o3pei3yp24c,3lq8puhqfp5i213p1dh19eqvzhiihs,PQ2vVrTU,2020-0188,2021-10-14,08:41:07,09:49:34,NA,incomplete,false,NA,true,2,7,NA,NA,NA,right,absent,NA,NA,m_s_033.jpg,purple,m_s_095.jpg,yellow,between,NA,NaN,NA,right,1071,1,2,568
PQ2vVrTU,3odop6t3bvxisk3y617o3pei3yp24c,3lq8puhqfp5i213p1dh19eqvzhiihs,PQ2vVrTU,2020-0188,2021-10-14,08:41:07,09:49:34,NA,incomplete,false,NA,true,2,8,NA,NA,NA,left,absent,NA,NA,m_s_014.jpg,brown,m_s_026.jpg,blue,between,NA,NaN,NA,left,2098,1,1,276.89999999990687
PQ2vVrTU,3odop6t3bvxisk3y617o3pei3yp24c,3lq8puhqfp5i213p1dh19eqvzhiihs,PQ2vVrTU,2020-0188,2021-10-14,08:41:07,09:49:34,NA,incomplete,false,NA,true,2,9,NA,NA,NA,left,absent,NA,NA,n_s_020.jpg,purple,n_l_017.jpg,purple,within,NA,NaN,NA,left,1754.5,1,2,604
PQ2vVrTU,3odop6t3bvxisk3y617o3pei3yp24c,3lq8puhqfp5i213p1dh19eqvzhiihs,PQ2vVrTU,2020-0188,2021-10-14,08:41:07,09:49:34,NA,incomplete,false,NA,true,2,10,NA,NA,NA,left,absent,NA,NA,n_l_101.jpg,orange,m_s_066.jpg,orange,within,NA,NaN,NA,left,1065.5999999996275,1,1,1330.0999999996275
PQ2vVrTU,3odop6t3bvxisk3y617o3pei3yp24c,3lq8puhqfp5i213p1dh19eqvzhiihs,PQ2vVrTU,2020-0188,2021-10-14,08:41:07,09:49:34,NA,incomplete,false,true,NA,3,0,NA,gray,n_s_049.jpg,NA,NA,unpleasant,pleasant,NA,NA,NA,NA,NA,left,2566.60000000009,true,NA,NA,NA,NA,NA
PQ2vVrTU,3odop6t3bvxisk3y617o3pei3yp24c,3lq8puhqfp5i213p1dh19eqvzhiihs,PQ2vVrTU,2020-0188,2021-10-14,08:41:07,09:49:34,NA,incomplete,false,true,NA,3,1,NA,gray,m_l_026.jpg,NA,NA,unpleasant,pleasant,NA,NA,NA,NA,NA,right,1449.39999999991,true,NA,NA,NA,NA,NA
PQ2vVrTU,3odop6t3bvxisk3y617o3pei3yp24c,3lq8puhqfp5i213p1dh19eqvzhiihs,PQ2vVrTU,2020-0188,2021-10-14,08:41:07,09:49:34,NA,incomplete,false,true,NA,3,2,NA,gray,m_l_011.jpg,NA,NA,pleasant,unpleasant,NA,NA,NA,NA,NA,right,1369.80000000028,true,NA,NA,NA,NA,NA
PQ2vVrTU,3odop6t3bvxisk3y617o3pei3yp24c,3lq8puhqfp5i213p1dh19eqvzhiihs,PQ2vVrTU,2020-0188,2021-10-14,08:41:07,09:49:34,NA,incomplete,false,true,NA,3,3,NA,gray,m_l_050.jpg,NA,NA,unpleasant,pleasant,NA,NA,NA,NA,NA,right,1416.70000000019,true,NA,NA,NA,NA,NA
PQ2vVrTU,3odop6t3bvxisk3y617o3pei3yp24c,3lq8puhqfp5i213p1dh19eqvzhiihs,PQ2vVrTU,2020-0188,2021-10-14,08:41:07,09:49:34,NA,incomplete,false,true,NA,3,4,NA,gray,n_l_044.jpg,NA,NA,unpleasant,pleasant,NA,NA,NA,NA,NA,left,1305.89999999991,true,NA,NA,NA,NA,NA
PQ2vVrTU,3odop6t3bvxisk3y617o3pei3yp24c,3lq8puhqfp5i213p1dh19eqvzhiihs,PQ2vVrTU,2020-0188,2021-10-14,08:41:07,09:49:34,NA,incomplete,false,true,NA,3,5,NA,gray,m_s_003.jpg,NA,NA,unpleasant,pleasant,NA,NA,NA,NA,NA,right,1111.79999999981,true,NA,NA,NA,NA,NA
PQ2vVrTU,3odop6t3bvxisk3y617o3pei3yp24c,3lq8puhqfp5i213p1dh19eqvzhiihs,PQ2vVrTU,2020-0188,2021-10-14,08:41:07,09:49:34,NA,incomplete,false,true,NA,3,6,NA,purple,n_l_023.jpg,NA,NA,unpleasant,pleasant,NA,NA,NA,NA,NA,left,1327.60000000009,true,NA,NA,NA,NA,NA
PQ2vVrTU,3odop6t3bvxisk3y617o3pei3yp24c,3lq8puhqfp5i213p1dh19eqvzhiihs,PQ2vVrTU,2020-0188,2021-10-14,08:41:07,09:49:34,NA,incomplete,false,true,NA,3,7,NA,purple,n_l_065.jpg,NA,NA,unpleasant,pleasant,NA,NA,NA,NA,NA,left,1190.70000000019,true,NA,NA,NA,NA,NA
PQ2vVrTU,3odop6t3bvxisk3y617o3pei3yp24c,3lq8puhqfp5i213p1dh19eqvzhiihs,PQ2vVrTU,2020-0188,2021-10-14,08:41:07,09:49:34,NA,incomplete,false,true,NA,3,8,NA,purple,m_s_032.jpg,NA,NA,pleasant,unpleasant,NA,NA,NA,NA,NA,right,1850,true,NA,NA,NA,NA,NA
PQ2vVrTU,3odop6t3bvxisk3y617o3pei3yp24c,3lq8puhqfp5i213p1dh19eqvzhiihs,PQ2vVrTU,2020-0188,2021-10-14,08:41:07,09:49:34,NA,incomplete,false,true,NA,3,9,NA,purple,m_s_050.jpg,NA,NA,pleasant,unpleasant,NA,NA,NA,NA,NA,right,1671.5,true,NA,NA,NA,NA,NA
PQ2vVrTU,3odop6t3bvxisk3y617o3pei3yp24c,3lq8puhqfp5i213p1dh19eqvzhiihs,PQ2vVrTU,2020-0188,2021-10-14,08:41:07,09:49:34,NA,incomplete,false,true,NA,3,10,NA,purple,m_s_044.jpg,NA,NA,unpleasant,pleasant,NA,NA,NA,NA,NA,left,1481.89999999991,true,NA,NA,NA,NA,NA
PQ2vVrTU,3odop6t3bvxisk3y617o3pei3yp24c,3lq8puhqfp5i213p1dh19eqvzhiihs,PQ2vVrTU,2020-0188,2021-10-14,08:41:07,09:49:34,NA,incomplete,false,true,NA,3,11,NA,purple,m_s_103.jpg,NA,NA,pleasant,unpleasant,NA,NA,NA,NA,NA,left,987.099999999627,true,NA,NA,NA,NA,NA
PQ2vVrTU,3odop6t3bvxisk3y617o3pei3yp24c,3lq8puhqfp5i213p1dh19eqvzhiihs,PQ2vVrTU,2020-0188,2021-10-14,08:41:07,09:49:34,NA,incomplete,false,true,NA,3,12,NA,yellow,n_l_074.jpg,NA,NA,pleasant,unpleasant,NA,NA,NA,NA,NA,left,949.600000000093,true,NA,NA,NA,NA,NA
PQ2vVrTU,3odop6t3bvxisk3y617o3pei3yp24c,3lq8puhqfp5i213p1dh19eqvzhiihs,PQ2vVrTU,2020-0188,2021-10-14,08:41:07,09:49:34,NA,incomplete,false,true,NA,3,13,NA,yellow,n_l_091.jpg,NA,NA,pleasant,unpleasant,NA,NA,NA,NA,NA,right,1222.89999999991,true,NA,NA,NA,NA,NA
PQ2vVrTU,3odop6t3bvxisk3y617o3pei3yp24c,3lq8puhqfp5i213p1dh19eqvzhiihs,PQ2vVrTU,2020-0188,2021-10-14,08:41:07,09:49:34,NA,incomplete,false,true,NA,3,14,NA,yellow,m_s_111.jpg,NA,NA,unpleasant,pleasant,NA,NA,NA,NA,NA,left,1024.40000000037,true,NA,NA,NA,NA,NA
PQ2vVrTU,3odop6t3bvxisk3y617o3pei3yp24c,3lq8puhqfp5i213p1dh19eqvzhiihs,PQ2vVrTU,2020-0188,2021-10-14,08:41:07,09:49:34,NA,incomplete,false,true,NA,3,15,NA,yellow,n_s_079.jpg,NA,NA,pleasant,unpleasant,NA,NA,NA,NA,NA,right,1292.30000000028,true,NA,NA,NA,NA,NA
PQ2vVrTU,3odop6t3bvxisk3y617o3pei3yp24c,3lq8puhqfp5i213p1dh19eqvzhiihs,PQ2vVrTU,2020-0188,2021-10-14,08:41:07,09:49:34,NA,incomplete,false,true,NA,3,16,NA,yellow,m_s_114.jpg,NA,NA,pleasant,unpleasant,NA,NA,NA,NA,NA,right,1236.30000000028,true,NA,NA,NA,NA,NA
PQ2vVrTU,3odop6t3bvxisk3y617o3pei3yp24c,3lq8puhqfp5i213p1dh19eqvzhiihs,PQ2vVrTU,2020-0188,2021-10-14,08:41:07,09:49:34,NA,incomplete,false,true,NA,3,17,NA,yellow,n_l_064.jpg,NA,NA,unpleasant,pleasant,NA,NA,NA,NA,NA,left,1821.29999999981,true,NA,NA,NA,NA,NA
PQ2vVrTU,3odop6t3bvxisk3y617o3pei3yp24c,3lq8puhqfp5i213p1dh19eqvzhiihs,PQ2vVrTU,2020-0188,2021-10-14,08:41:07,09:49:34,NA,incomplete,false,true,NA,3,18,NA,white,n_s_013.jpg,NA,NA,unpleasant,pleasant,NA,NA,NA,NA,NA,left,1398.70000000019,true,NA,NA,NA,NA,NA
PQ2vVrTU,3odop6t3bvxisk3y617o3pei3yp24c,3lq8puhqfp5i213p1dh19eqvzhiihs,PQ2vVrTU,2020-0188,2021-10-14,08:41:07,09:49:34,NA,incomplete,false,true,NA,3,19,NA,white,m_s_012.jpg,NA,NA,pleasant,unpleasant,NA,NA,NA,NA,NA,right,1338.40000000037,true,NA,NA,NA,NA,NA
PQ2vVrTU,3odop6t3bvxisk3y617o3pei3yp24c,3lq8puhqfp5i213p1dh19eqvzhiihs,PQ2vVrTU,2020-0188,2021-10-14,08:41:07,09:49:34,NA,incomplete,false,true,NA,3,20,NA,white,m_l_094.jpg,NA,NA,unpleasant,pleasant,NA,NA,NA,NA,NA,left,1380.40000000037,true,NA,NA,NA,NA,NA
PQ2vVrTU,3odop6t3bvxisk3y617o3pei3yp24c,3lq8puhqfp5i213p1dh19eqvzhiihs,PQ2vVrTU,2020-0188,2021-10-14,08:41:07,09:49:34,NA,incomplete,false,true,NA,3,21,NA,white,m_s_017.jpg,NA,NA,pleasant,unpleasant,NA,NA,NA,NA,NA,right,1622.5,true,NA,NA,NA,NA,NA
PQ2vVrTU,3odop6t3bvxisk3y617o3pei3yp24c,3lq8puhqfp5i213p1dh19eqvzhiihs,PQ2vVrTU,2020-0188,2021-10-14,08:41:07,09:49:34,NA,incomplete,false,true,NA,3,22,NA,white,m_l_009.jpg,NA,NA,pleasant,unpleasant,NA,NA,NA,NA,NA,right,1016.20000000019,true,NA,NA,NA,NA,NA
PQ2vVrTU,3odop6t3bvxisk3y617o3pei3yp24c,3lq8puhqfp5i213p1dh19eqvzhiihs,PQ2vVrTU,2020-0188,2021-10-14,08:41:07,09:49:34,NA,incomplete,false,true,NA,3,23,NA,white,m_l_028.jpg,NA,NA,unpleasant,pleasant,NA,NA,NA,NA,NA,right,1510.79999999981,true,NA,NA,NA,NA,NA
PQ2vVrTU,3odop6t3bvxisk3y617o3pei3yp24c,3lq8puhqfp5i213p1dh19eqvzhiihs,PQ2vVrTU,2020-0188,2021-10-14,08:41:07,09:49:34,NA,incomplete,false,true,NA,3,24,NA,green,m_l_013.jpg,NA,NA,unpleasant,pleasant,NA,NA,NA,NA,NA,left,948.600000000559,true,NA,NA,NA,NA,NA
PQ2vVrTU,3odop6t3bvxisk3y617o3pei3yp24c,3lq8puhqfp5i213p1dh19eqvzhiihs,PQ2vVrTU,2020-0188,2021-10-14,08:41:07,09:49:34,NA,incomplete,false,true,NA,3,25,NA,green,m_l_025.jpg,NA,NA,unpleasant,pleasant,NA,NA,NA,NA,NA,left,1375.19999999925,true,NA,NA,NA,NA,NA
PQ2vVrTU,3odop6t3bvxisk3y617o3pei3yp24c,3lq8puhqfp5i213p1dh19eqvzhiihs,PQ2vVrTU,2020-0188,2021-10-14,08:41:07,09:49:34,NA,incomplete,false,true,NA,3,26,NA,green,m_s_074.jpg,NA,NA,pleasant,unpleasant,NA,NA,NA,NA,NA,left,1692.5,true,NA,NA,NA,NA,NA
PQ2vVrTU,3odop6t3bvxisk3y617o3pei3yp24c,3lq8puhqfp5i213p1dh19eqvzhiihs,PQ2vVrTU,2020-0188,2021-10-14,08:41:07,09:49:34,NA,incomplete,false,true,NA,3,27,NA,green,n_s_021.jpg,NA,NA,pleasant,unpleasant,NA,NA,NA,NA,NA,left,1551.29999999981,true,NA,NA,NA,NA,NA
PQ2vVrTU,3odop6t3bvxisk3y617o3pei3yp24c,3lq8puhqfp5i213p1dh19eqvzhiihs,PQ2vVrTU,2020-0188,2021-10-14,08:41:07,09:49:34,NA,incomplete,false,true,NA,3,28,NA,green,n_l_029.jpg,NA,NA,unpleasant,pleasant,NA,NA,NA,NA,NA,left,1072.40000000037,true,NA,NA,NA,NA,NA
PQ2vVrTU,3odop6t3bvxisk3y617o3pei3yp24c,3lq8puhqfp5i213p1dh19eqvzhiihs,PQ2vVrTU,2020-0188,2021-10-14,08:41:07,09:49:34,NA,incomplete,false,true,NA,3,29,NA,green,n_l_047.jpg,NA,NA,unpleasant,pleasant,NA,NA,NA,NA,NA,left,937.300000000745,true,NA,NA,NA,NA,NA
PQ2vVrTU,3odop6t3bvxisk3y617o3pei3yp24c,3lq8puhqfp5i213p1dh19eqvzhiihs,PQ2vVrTU,2020-0188,2021-10-14,08:41:07,09:49:34,NA,incomplete,false,true,NA,3,30,NA,orange,n_s_035.jpg,NA,NA,pleasant,unpleasant,NA,NA,NA,NA,NA,left,1090.60000000056,true,NA,NA,NA,NA,NA
PQ2vVrTU,3odop6t3bvxisk3y617o3pei3yp24c,3lq8puhqfp5i213p1dh19eqvzhiihs,PQ2vVrTU,2020-0188,2021-10-14,08:41:07,09:49:34,NA,incomplete,false,true,NA,3,31,NA,orange,m_l_112.jpg,NA,NA,pleasant,unpleasant,NA,NA,NA,NA,NA,right,1569.80000000075,true,NA,NA,NA,NA,NA
PQ2vVrTU,3odop6t3bvxisk3y617o3pei3yp24c,3lq8puhqfp5i213p1dh19eqvzhiihs,PQ2vVrTU,2020-0188,2021-10-14,08:41:07,09:49:34,NA,incomplete,false,true,NA,3,32,NA,orange,m_l_076.jpg,NA,NA,pleasant,unpleasant,NA,NA,NA,NA,NA,right,999.600000000559,true,NA,NA,NA,NA,NA
PQ2vVrTU,3odop6t3bvxisk3y617o3pei3yp24c,3lq8puhqfp5i213p1dh19eqvzhiihs,PQ2vVrTU,2020-0188,2021-10-14,08:41:07,09:49:34,NA,incomplete,false,true,NA,3,33,NA,orange,n_l_081.jpg,NA,NA,unpleasant,pleasant,NA,NA,NA,NA,NA,left,1077.5,true,NA,NA,NA,NA,NA
PQ2vVrTU,3odop6t3bvxisk3y617o3pei3yp24c,3lq8puhqfp5i213p1dh19eqvzhiihs,PQ2vVrTU,2020-0188,2021-10-14,08:41:07,09:49:34,NA,incomplete,false,true,NA,3,34,NA,orange,n_l_004.jpg,NA,NA,unpleasant,pleasant,NA,NA,NA,NA,NA,left,925.700000000186,true,NA,NA,NA,NA,NA
PQ2vVrTU,3odop6t3bvxisk3y617o3pei3yp24c,3lq8puhqfp5i213p1dh19eqvzhiihs,PQ2vVrTU,2020-0188,2021-10-14,08:41:07,09:49:34,NA,incomplete,false,true,NA,3,35,NA,orange,n_s_054.jpg,NA,NA,pleasant,unpleasant,NA,NA,NA,NA,NA,right,1305.89999999944,true,NA,NA,NA,NA,NA
PQ2vVrTU,3odop6t3bvxisk3y617o3pei3yp24c,3lq8puhqfp5i213p1dh19eqvzhiihs,PQ2vVrTU,2020-0188,2021-10-14,08:41:07,09:49:34,NA,incomplete,false,NA,true,3,0,NA,NA,NA,right,present,NA,NA,m_s_111.jpg,yellow,m_s_044.jpg,purple,between,NA,NaN,NA,right,2822,1,2,963
PQ2vVrTU,3odop6t3bvxisk3y617o3pei3yp24c,3lq8puhqfp5i213p1dh19eqvzhiihs,PQ2vVrTU,2020-0188,2021-10-14,08:41:07,09:49:34,NA,incomplete,false,NA,true,3,1,NA,NA,NA,right,present,NA,NA,n_s_054.jpg,orange,m_l_112.jpg,orange,within,NA,NaN,NA,right,1923,1,0,979.5999999996275
PQ2vVrTU,3odop6t3bvxisk3y617o3pei3yp24c,3lq8puhqfp5i213p1dh19eqvzhiihs,PQ2vVrTU,2020-0188,2021-10-14,08:41:07,09:49:34,NA,incomplete,false,NA,true,3,2,NA,NA,NA,left,present,NA,NA,m_l_025.jpg,green,n_l_047.jpg,green,within,NA,NaN,NA,right,3236.100000000559,0,0,549
PQ2vVrTU,3odop6t3bvxisk3y617o3pei3yp24c,3lq8puhqfp5i213p1dh19eqvzhiihs,PQ2vVrTU,2020-0188,2021-10-14,08:41:07,09:49:34,NA,incomplete,false,NA,true,3,3,NA,NA,NA,left,present,NA,NA,m_s_012.jpg,white,m_l_028.jpg,white,within,NA,NaN,NA,right,2746,0,0,1483.699999999255
PQ2vVrTU,3odop6t3bvxisk3y617o3pei3yp24c,3lq8puhqfp5i213p1dh19eqvzhiihs,PQ2vVrTU,2020-0188,2021-10-14,08:41:07,09:49:34,NA,incomplete,false,NA,true,3,4,NA,NA,NA,left,present,NA,NA,n_l_029.jpg,green,m_l_076.jpg,orange,between,NA,NaN,NA,left,2627,1,2,940.7000000001863
PQ2vVrTU,3odop6t3bvxisk3y617o3pei3yp24c,3lq8puhqfp5i213p1dh19eqvzhiihs,PQ2vVrTU,2020-0188,2021-10-14,08:41:07,09:49:34,NA,incomplete,false,NA,true,3,5,NA,NA,NA,left,present,NA,NA,m_l_026.jpg,gray,m_s_003.jpg,gray,within,NA,NaN,NA,right,1328,0,1,452.70000000018626
PQ2vVrTU,3odop6t3bvxisk3y617o3pei3yp24c,3lq8puhqfp5i213p1dh19eqvzhiihs,PQ2vVrTU,2020-0188,2021-10-14,08:41:07,09:49:34,NA,incomplete,false,NA,true,3,6,NA,NA,NA,right,present,NA,NA,m_s_074.jpg,green,m_l_009.jpg,white,between,NA,NaN,NA,right,1402.5,1,2,1142.4000000003725
PQ2vVrTU,3odop6t3bvxisk3y617o3pei3yp24c,3lq8puhqfp5i213p1dh19eqvzhiihs,PQ2vVrTU,2020-0188,2021-10-14,08:41:07,09:49:34,NA,incomplete,false,NA,true,3,7,NA,NA,NA,right,present,NA,NA,m_s_103.jpg,purple,n_l_065.jpg,purple,within,NA,NaN,NA,right,1917.5,1,0,812.5
PQ2vVrTU,3odop6t3bvxisk3y617o3pei3yp24c,3lq8puhqfp5i213p1dh19eqvzhiihs,PQ2vVrTU,2020-0188,2021-10-14,08:41:07,09:49:34,NA,incomplete,false,NA,true,3,8,NA,NA,NA,right,present,NA,NA,m_s_032.jpg,purple,n_l_044.jpg,gray,between,NA,NaN,NA,right,2700.2000000001863,1,2,538.2000000001863
PQ2vVrTU,3odop6t3bvxisk3y617o3pei3yp24c,3lq8puhqfp5i213p1dh19eqvzhiihs,PQ2vVrTU,2020-0188,2021-10-14,08:41:07,09:49:34,NA,incomplete,false,NA,true,3,9,NA,NA,NA,right,present,NA,NA,m_l_094.jpg,white,m_s_114.jpg,yellow,between,NA,NaN,NA,left,1979.2000000001863,0,2,571.9000000003725
PQ2vVrTU,3odop6t3bvxisk3y617o3pei3yp24c,3lq8puhqfp5i213p1dh19eqvzhiihs,PQ2vVrTU,2020-0188,2021-10-14,08:41:07,09:49:34,NA,incomplete,false,NA,true,3,10,NA,NA,NA,left,present,NA,NA,n_l_091.jpg,yellow,n_l_064.jpg,yellow,within,NA,NaN,NA,right,2633,0,0,1923.5
PQ2vVrTU,3odop6t3bvxisk3y617o3pei3yp24c,3lq8puhqfp5i213p1dh19eqvzhiihs,PQ2vVrTU,2020-0188,2021-10-14,08:41:07,09:49:34,NA,incomplete,false,true,NA,4,0,NA,green,m_l_056.jpg,NA,NA,unpleasant,pleasant,NA,NA,NA,NA,NA,right,1504.09999999963,true,NA,NA,NA,NA,NA
PQ2vVrTU,3odop6t3bvxisk3y617o3pei3yp24c,3lq8puhqfp5i213p1dh19eqvzhiihs,PQ2vVrTU,2020-0188,2021-10-14,08:41:07,09:49:34,NA,incomplete,false,true,NA,4,1,NA,green,n_l_073.jpg,NA,NA,pleasant,unpleasant,NA,NA,NA,NA,NA,left,1020.89999999944,true,NA,NA,NA,NA,NA
PQ2vVrTU,3odop6t3bvxisk3y617o3pei3yp24c,3lq8puhqfp5i213p1dh19eqvzhiihs,PQ2vVrTU,2020-0188,2021-10-14,08:41:07,09:49:34,NA,incomplete,false,true,NA,4,2,NA,green,n_l_012.jpg,NA,NA,pleasant,unpleasant,NA,NA,NA,NA,NA,right,1384.69999999925,true,NA,NA,NA,NA,NA
PQ2vVrTU,3odop6t3bvxisk3y617o3pei3yp24c,3lq8puhqfp5i213p1dh19eqvzhiihs,PQ2vVrTU,2020-0188,2021-10-14,08:41:07,09:49:34,NA,incomplete,false,true,NA,4,3,NA,green,n_s_102.jpg,NA,NA,pleasant,unpleasant,NA,NA,NA,NA,NA,left,1262.90000000037,true,NA,NA,NA,NA,NA
PQ2vVrTU,3odop6t3bvxisk3y617o3pei3yp24c,3lq8puhqfp5i213p1dh19eqvzhiihs,PQ2vVrTU,2020-0188,2021-10-14,08:41:07,09:49:34,NA,incomplete,false,true,NA,4,4,NA,green,n_l_088.jpg,NA,NA,unpleasant,pleasant,NA,NA,NA,NA,NA,right,905.100000000559,true,NA,NA,NA,NA,NA
PQ2vVrTU,3odop6t3bvxisk3y617o3pei3yp24c,3lq8puhqfp5i213p1dh19eqvzhiihs,PQ2vVrTU,2020-0188,2021-10-14,08:41:07,09:49:34,NA,incomplete,false,true,NA,4,5,NA,green,m_s_094.jpg,NA,NA,pleasant,unpleasant,NA,NA,NA,NA,NA,right,1053.79999999981,true,NA,NA,NA,NA,NA
PQ2vVrTU,3odop6t3bvxisk3y617o3pei3yp24c,3lq8puhqfp5i213p1dh19eqvzhiihs,PQ2vVrTU,2020-0188,2021-10-14,08:41:07,09:49:34,NA,incomplete,false,true,NA,4,6,NA,yellow,m_l_104.jpg,NA,NA,pleasant,unpleasant,NA,NA,NA,NA,NA,right,1034,true,NA,NA,NA,NA,NA
PQ2vVrTU,3odop6t3bvxisk3y617o3pei3yp24c,3lq8puhqfp5i213p1dh19eqvzhiihs,PQ2vVrTU,2020-0188,2021-10-14,08:41:07,09:49:34,NA,incomplete,false,true,NA,4,7,NA,yellow,m_l_053.jpg,NA,NA,pleasant,unpleasant,NA,NA,NA,NA,NA,right,1848.90000000037,true,NA,NA,NA,NA,NA
PQ2vVrTU,3odop6t3bvxisk3y617o3pei3yp24c,3lq8puhqfp5i213p1dh19eqvzhiihs,PQ2vVrTU,2020-0188,2021-10-14,08:41:07,09:49:34,NA,incomplete,false,true,NA,4,8,NA,yellow,n_s_010.jpg,NA,NA,pleasant,unpleasant,NA,NA,NA,NA,NA,right,2424.5,true,NA,NA,NA,NA,NA
PQ2vVrTU,3odop6t3bvxisk3y617o3pei3yp24c,3lq8puhqfp5i213p1dh19eqvzhiihs,PQ2vVrTU,2020-0188,2021-10-14,08:41:07,09:49:34,NA,incomplete,false,true,NA,4,9,NA,yellow,n_s_111.jpg,NA,NA,unpleasant,pleasant,NA,NA,NA,NA,NA,left,1304.70000000019,true,NA,NA,NA,NA,NA
PQ2vVrTU,3odop6t3bvxisk3y617o3pei3yp24c,3lq8puhqfp5i213p1dh19eqvzhiihs,PQ2vVrTU,2020-0188,2021-10-14,08:41:07,09:49:34,NA,incomplete,false,true,NA,4,10,NA,yellow,n_l_067.jpg,NA,NA,unpleasant,pleasant,NA,NA,NA,NA,NA,left,1000.70000000019,true,NA,NA,NA,NA,NA
PQ2vVrTU,3odop6t3bvxisk3y617o3pei3yp24c,3lq8puhqfp5i213p1dh19eqvzhiihs,PQ2vVrTU,2020-0188,2021-10-14,08:41:07,09:49:34,NA,incomplete,false,true,NA,4,11,NA,yellow,n_s_081.jpg,NA,NA,pleasant,unpleasant,NA,NA,NA,NA,NA,left,1064.79999999981,true,NA,NA,NA,NA,NA
PQ2vVrTU,3odop6t3bvxisk3y617o3pei3yp24c,3lq8puhqfp5i213p1dh19eqvzhiihs,PQ2vVrTU,2020-0188,2021-10-14,08:41:07,09:49:34,NA,incomplete,false,true,NA,4,12,NA,gray,m_l_096.jpg,NA,NA,pleasant,unpleasant,NA,NA,NA,NA,NA,left,1177.59999999963,true,NA,NA,NA,NA,NA
PQ2vVrTU,3odop6t3bvxisk3y617o3pei3yp24c,3lq8puhqfp5i213p1dh19eqvzhiihs,PQ2vVrTU,2020-0188,2021-10-14,08:41:07,09:49:34,NA,incomplete,false,true,NA,4,13,NA,gray,n_l_027.jpg,NA,NA,pleasant,unpleasant,NA,NA,NA,NA,NA,left,1150.39999999944,true,NA,NA,NA,NA,NA
PQ2vVrTU,3odop6t3bvxisk3y617o3pei3yp24c,3lq8puhqfp5i213p1dh19eqvzhiihs,PQ2vVrTU,2020-0188,2021-10-14,08:41:07,09:49:34,NA,incomplete,false,true,NA,4,14,NA,gray,m_l_043.jpg,NA,NA,pleasant,unpleasant,NA,NA,NA,NA,NA,right,1195.5,true,NA,NA,NA,NA,NA
PQ2vVrTU,3odop6t3bvxisk3y617o3pei3yp24c,3lq8puhqfp5i213p1dh19eqvzhiihs,PQ2vVrTU,2020-0188,2021-10-14,08:41:07,09:49:34,NA,incomplete,false,true,NA,4,15,NA,gray,n_s_094.jpg,NA,NA,pleasant,unpleasant,NA,NA,NA,NA,NA,left,1642.20000000019,true,NA,NA,NA,NA,NA
PQ2vVrTU,3odop6t3bvxisk3y617o3pei3yp24c,3lq8puhqfp5i213p1dh19eqvzhiihs,PQ2vVrTU,2020-0188,2021-10-14,08:41:07,09:49:34,NA,incomplete,false,true,NA,4,16,NA,gray,m_s_056.jpg,NA,NA,unpleasant,pleasant,NA,NA,NA,NA,NA,left,1240.89999999944,true,NA,NA,NA,NA,NA
PQ2vVrTU,3odop6t3bvxisk3y617o3pei3yp24c,3lq8puhqfp5i213p1dh19eqvzhiihs,PQ2vVrTU,2020-0188,2021-10-14,08:41:07,09:49:34,NA,incomplete,false,true,NA,4,17,NA,gray,n_l_079.jpg,NA,NA,unpleasant,pleasant,NA,NA,NA,NA,NA,right,1073.70000000019,true,NA,NA,NA,NA,NA
PQ2vVrTU,3odop6t3bvxisk3y617o3pei3yp24c,3lq8puhqfp5i213p1dh19eqvzhiihs,PQ2vVrTU,2020-0188,2021-10-14,08:41:07,09:49:34,NA,incomplete,false,true,NA,4,18,NA,purple,n_l_008.jpg,NA,NA,pleasant,unpleasant,NA,NA,NA,NA,NA,right,1172,true,NA,NA,NA,NA,NA
PQ2vVrTU,3odop6t3bvxisk3y617o3pei3yp24c,3lq8puhqfp5i213p1dh19eqvzhiihs,PQ2vVrTU,2020-0188,2021-10-14,08:41:07,09:49:34,NA,incomplete,false,true,NA,4,19,NA,purple,m_s_061.jpg,NA,NA,unpleasant,pleasant,NA,NA,NA,NA,NA,left,937.899999999441,true,NA,NA,NA,NA,NA
PQ2vVrTU,3odop6t3bvxisk3y617o3pei3yp24c,3lq8puhqfp5i213p1dh19eqvzhiihs,PQ2vVrTU,2020-0188,2021-10-14,08:41:07,09:49:34,NA,incomplete,false,true,NA,4,20,NA,purple,n_l_056.jpg,NA,NA,unpleasant,pleasant,NA,NA,NA,NA,NA,left,1039.29999999981,true,NA,NA,NA,NA,NA
PQ2vVrTU,3odop6t3bvxisk3y617o3pei3yp24c,3lq8puhqfp5i213p1dh19eqvzhiihs,PQ2vVrTU,2020-0188,2021-10-14,08:41:07,09:49:34,NA,incomplete,false,true,NA,4,21,NA,purple,m_s_092.jpg,NA,NA,pleasant,unpleasant,NA,NA,NA,NA,NA,right,959,true,NA,NA,NA,NA,NA
PQ2vVrTU,3odop6t3bvxisk3y617o3pei3yp24c,3lq8puhqfp5i213p1dh19eqvzhiihs,PQ2vVrTU,2020-0188,2021-10-14,08:41:07,09:49:34,NA,incomplete,false,true,NA,4,22,NA,purple,n_s_055.jpg,NA,NA,pleasant,unpleasant,NA,NA,NA,NA,NA,right,993.899999999441,true,NA,NA,NA,NA,NA
PQ2vVrTU,3odop6t3bvxisk3y617o3pei3yp24c,3lq8puhqfp5i213p1dh19eqvzhiihs,PQ2vVrTU,2020-0188,2021-10-14,08:41:07,09:49:34,NA,incomplete,false,true,NA,4,23,NA,purple,m_s_059.jpg,NA,NA,pleasant,unpleasant,NA,NA,NA,NA,NA,right,1129.70000000019,true,NA,NA,NA,NA,NA
PQ2vVrTU,3odop6t3bvxisk3y617o3pei3yp24c,3lq8puhqfp5i213p1dh19eqvzhiihs,PQ2vVrTU,2020-0188,2021-10-14,08:41:07,09:49:34,NA,incomplete,false,true,NA,4,24,NA,red,n_s_009.jpg,NA,NA,pleasant,unpleasant,NA,NA,NA,NA,NA,right,1594.79999999981,true,NA,NA,NA,NA,NA
PQ2vVrTU,3odop6t3bvxisk3y617o3pei3yp24c,3lq8puhqfp5i213p1dh19eqvzhiihs,PQ2vVrTU,2020-0188,2021-10-14,08:41:07,09:49:34,NA,incomplete,false,true,NA,4,25,NA,red,m_l_038.jpg,NA,NA,unpleasant,pleasant,NA,NA,NA,NA,NA,left,1178.40000000037,true,NA,NA,NA,NA,NA
PQ2vVrTU,3odop6t3bvxisk3y617o3pei3yp24c,3lq8puhqfp5i213p1dh19eqvzhiihs,PQ2vVrTU,2020-0188,2021-10-14,08:41:07,09:49:34,NA,incomplete,false,true,NA,4,26,NA,red,n_l_075.jpg,NA,NA,unpleasant,pleasant,NA,NA,NA,NA,NA,right,1245.59999999963,true,NA,NA,NA,NA,NA
PQ2vVrTU,3odop6t3bvxisk3y617o3pei3yp24c,3lq8puhqfp5i213p1dh19eqvzhiihs,PQ2vVrTU,2020-0188,2021-10-14,08:41:07,09:49:34,NA,incomplete,false,true,NA,4,27,NA,red,n_s_012.jpg,NA,NA,pleasant,unpleasant,NA,NA,NA,NA,NA,right,1212.5,true,NA,NA,NA,NA,NA
PQ2vVrTU,3odop6t3bvxisk3y617o3pei3yp24c,3lq8puhqfp5i213p1dh19eqvzhiihs,PQ2vVrTU,2020-0188,2021-10-14,08:41:07,09:49:34,NA,incomplete,false,true,NA,4,28,NA,red,n_s_059.jpg,NA,NA,pleasant,unpleasant,NA,NA,NA,NA,NA,right,1046.79999999981,true,NA,NA,NA,NA,NA
PQ2vVrTU,3odop6t3bvxisk3y617o3pei3yp24c,3lq8puhqfp5i213p1dh19eqvzhiihs,PQ2vVrTU,2020-0188,2021-10-14,08:41:07,09:49:34,NA,incomplete,false,true,NA,4,29,NA,red,m_l_088.jpg,NA,NA,pleasant,unpleasant,NA,NA,NA,NA,NA,right,1447.40000000037,true,NA,NA,NA,NA,NA
PQ2vVrTU,3odop6t3bvxisk3y617o3pei3yp24c,3lq8puhqfp5i213p1dh19eqvzhiihs,PQ2vVrTU,2020-0188,2021-10-14,08:41:07,09:49:34,NA,incomplete,false,true,NA,4,30,NA,black,n_s_064.jpg,NA,NA,unpleasant,pleasant,NA,NA,NA,NA,NA,right,854.599999999627,true,NA,NA,NA,NA,NA
PQ2vVrTU,3odop6t3bvxisk3y617o3pei3yp24c,3lq8puhqfp5i213p1dh19eqvzhiihs,PQ2vVrTU,2020-0188,2021-10-14,08:41:07,09:49:34,NA,incomplete,false,true,NA,4,31,NA,black,n_l_093.jpg,NA,NA,unpleasant,pleasant,NA,NA,NA,NA,NA,right,2789,true,NA,NA,NA,NA,NA
PQ2vVrTU,3odop6t3bvxisk3y617o3pei3yp24c,3lq8puhqfp5i213p1dh19eqvzhiihs,PQ2vVrTU,2020-0188,2021-10-14,08:41:07,09:49:34,NA,incomplete,false,true,NA,4,32,NA,black,m_l_070.jpg,NA,NA,unpleasant,pleasant,NA,NA,NA,NA,NA,right,1234.79999999981,true,NA,NA,NA,NA,NA
PQ2vVrTU,3odop6t3bvxisk3y617o3pei3yp24c,3lq8puhqfp5i213p1dh19eqvzhiihs,PQ2vVrTU,2020-0188,2021-10-14,08:41:07,09:49:34,NA,incomplete,false,true,NA,4,33,NA,black,n_s_107.jpg,NA,NA,unpleasant,pleasant,NA,NA,NA,NA,NA,right,1169.89999999944,true,NA,NA,NA,NA,NA
PQ2vVrTU,3odop6t3bvxisk3y617o3pei3yp24c,3lq8puhqfp5i213p1dh19eqvzhiihs,PQ2vVrTU,2020-0188,2021-10-14,08:41:07,09:49:34,NA,incomplete,false,true,NA,4,34,NA,black,n_l_087.jpg,NA,NA,unpleasant,pleasant,NA,NA,NA,NA,NA,left,1272.90000000037,true,NA,NA,NA,NA,NA
PQ2vVrTU,3odop6t3bvxisk3y617o3pei3yp24c,3lq8puhqfp5i213p1dh19eqvzhiihs,PQ2vVrTU,2020-0188,2021-10-14,08:41:07,09:49:34,NA,incomplete,false,true,NA,4,35,NA,black,m_s_029.jpg,NA,NA,pleasant,unpleasant,NA,NA,NA,NA,NA,left,1814,true,NA,NA,NA,NA,NA
PQ2vVrTU,3odop6t3bvxisk3y617o3pei3yp24c,3lq8puhqfp5i213p1dh19eqvzhiihs,PQ2vVrTU,2020-0188,2021-10-14,08:41:07,09:49:34,NA,incomplete,false,NA,true,4,0,NA,NA,NA,left,present,NA,NA,n_l_088.jpg,green,n_s_010.jpg,yellow,between,NA,NaN,NA,left,6960.200000000186,1,2,1129.5
PQ2vVrTU,3odop6t3bvxisk3y617o3pei3yp24c,3lq8puhqfp5i213p1dh19eqvzhiihs,PQ2vVrTU,2020-0188,2021-10-14,08:41:07,09:49:34,NA,incomplete,false,NA,true,4,1,NA,NA,NA,left,present,NA,NA,n_l_093.jpg,black,m_s_029.jpg,black,within,NA,NaN,NA,left,2494.2999999998137,1,0,757
PQ2vVrTU,3odop6t3bvxisk3y617o3pei3yp24c,3lq8puhqfp5i213p1dh19eqvzhiihs,PQ2vVrTU,2020-0188,2021-10-14,08:41:07,09:49:34,NA,incomplete,false,NA,true,4,2,NA,NA,NA,right,present,NA,NA,n_l_079.jpg,gray,n_l_027.jpg,gray,within,NA,NaN,NA,left,1266.7000000001863,0,1,704.2999999998137
PQ2vVrTU,3odop6t3bvxisk3y617o3pei3yp24c,3lq8puhqfp5i213p1dh19eqvzhiihs,PQ2vVrTU,2020-0188,2021-10-14,08:41:07,09:49:34,NA,incomplete,false,NA,true,4,3,NA,NA,NA,right,present,NA,NA,m_l_070.jpg,black,n_s_059.jpg,red,between,NA,NaN,NA,left,1296.1000000005588,0,1,720.2999999998137
PQ2vVrTU,3odop6t3bvxisk3y617o3pei3yp24c,3lq8puhqfp5i213p1dh19eqvzhiihs,PQ2vVrTU,2020-0188,2021-10-14,08:41:07,09:49:34,NA,incomplete,false,NA,true,4,4,NA,NA,NA,left,present,NA,NA,n_l_073.jpg,green,m_s_094.jpg,green,within,NA,NaN,NA,left,1542.5,1,1,428.20000000018626
PQ2vVrTU,3odop6t3bvxisk3y617o3pei3yp24c,3lq8puhqfp5i213p1dh19eqvzhiihs,PQ2vVrTU,2020-0188,2021-10-14,08:41:07,09:49:34,NA,incomplete,false,NA,true,4,5,NA,NA,NA,left,present,NA,NA,m_l_053.jpg,yellow,n_s_081.jpg,yellow,within,NA,NaN,NA,right,1246.8999999994412,0,0,453.79999999981374
PQ2vVrTU,3odop6t3bvxisk3y617o3pei3yp24c,3lq8puhqfp5i213p1dh19eqvzhiihs,PQ2vVrTU,2020-0188,2021-10-14,08:41:07,09:49:34,NA,incomplete,false,NA,true,4,6,NA,NA,NA,right,present,NA,NA,n_l_056.jpg,purple,m_s_056.jpg,gray,between,NA,NaN,NA,left,3401,0,2,634.2000000001863
PQ2vVrTU,3odop6t3bvxisk3y617o3pei3yp24c,3lq8puhqfp5i213p1dh19eqvzhiihs,PQ2vVrTU,2020-0188,2021-10-14,08:41:07,09:49:34,NA,incomplete,false,NA,true,4,7,NA,NA,NA,right,present,NA,NA,m_l_088.jpg,red,m_l_038.jpg,red,within,NA,NaN,NA,left,2410.4000000003725,0,0,605
PQ2vVrTU,3odop6t3bvxisk3y617o3pei3yp24c,3lq8puhqfp5i213p1dh19eqvzhiihs,PQ2vVrTU,2020-0188,2021-10-14,08:41:07,09:49:34,NA,incomplete,false,NA,true,4,8,NA,NA,NA,left,present,NA,NA,m_s_061.jpg,purple,m_s_059.jpg,purple,within,NA,NaN,NA,left,1605.7999999998137,1,0,2584.399999999441
PQ2vVrTU,3odop6t3bvxisk3y617o3pei3yp24c,3lq8puhqfp5i213p1dh19eqvzhiihs,PQ2vVrTU,2020-0188,2021-10-14,08:41:07,09:49:34,NA,incomplete,false,NA,true,4,9,NA,NA,NA,left,present,NA,NA,n_l_067.jpg,yellow,m_l_043.jpg,gray,between,NA,NaN,NA,left,2328,1,2,1884.5
PQ2vVrTU,3odop6t3bvxisk3y617o3pei3yp24c,3lq8puhqfp5i213p1dh19eqvzhiihs,PQ2vVrTU,2020-0188,2021-10-14,08:41:07,09:49:34,NA,incomplete,false,NA,true,4,10,NA,NA,NA,left,present,NA,NA,n_s_055.jpg,purple,n_l_075.jpg,red,between,NA,NaN,NA,right,1185.5999999996275,0,2,476.40000000037253
PQ2vVrTU,3odop6t3bvxisk3y617o3pei3yp24c,3lq8puhqfp5i213p1dh19eqvzhiihs,PQ2vVrTU,2020-0188,2021-10-14,08:41:07,09:49:34,NA,incomplete,false,true,NA,5,0,NA,orange,m_l_115.jpg,NA,NA,pleasant,unpleasant,NA,NA,NA,NA,NA,right,1559.40000000037,true,NA,NA,NA,NA,NA
PQ2vVrTU,3odop6t3bvxisk3y617o3pei3yp24c,3lq8puhqfp5i213p1dh19eqvzhiihs,PQ2vVrTU,2020-0188,2021-10-14,08:41:07,09:49:34,NA,incomplete,false,true,NA,5,1,NA,orange,n_s_029.jpg,NA,NA,pleasant,unpleasant,NA,NA,NA,NA,NA,right,1463.5,true,NA,NA,NA,NA,NA
PQ2vVrTU,3odop6t3bvxisk3y617o3pei3yp24c,3lq8puhqfp5i213p1dh19eqvzhiihs,PQ2vVrTU,2020-0188,2021-10-14,08:41:07,09:49:34,NA,incomplete,false,true,NA,5,2,NA,orange,n_l_113.jpg,NA,NA,pleasant,unpleasant,NA,NA,NA,NA,NA,right,1196.39999999944,true,NA,NA,NA,NA,NA
PQ2vVrTU,3odop6t3bvxisk3y617o3pei3yp24c,3lq8puhqfp5i213p1dh19eqvzhiihs,PQ2vVrTU,2020-0188,2021-10-14,08:41:07,09:49:34,NA,incomplete,false,true,NA,5,3,NA,orange,m_l_064.jpg,NA,NA,pleasant,unpleasant,NA,NA,NA,NA,NA,left,1192.5,true,NA,NA,NA,NA,NA
PQ2vVrTU,3odop6t3bvxisk3y617o3pei3yp24c,3lq8puhqfp5i213p1dh19eqvzhiihs,PQ2vVrTU,2020-0188,2021-10-14,08:41:07,09:49:34,NA,incomplete,false,true,NA,5,4,NA,orange,m_s_020.jpg,NA,NA,pleasant,unpleasant,NA,NA,NA,NA,NA,right,1075.59999999963,true,NA,NA,NA,NA,NA
PQ2vVrTU,3odop6t3bvxisk3y617o3pei3yp24c,3lq8puhqfp5i213p1dh19eqvzhiihs,PQ2vVrTU,2020-0188,2021-10-14,08:41:07,09:49:34,NA,incomplete,false,true,NA,5,5,NA,orange,n_s_082.jpg,NA,NA,unpleasant,pleasant,NA,NA,NA,NA,NA,left,1114.59999999963,true,NA,NA,NA,NA,NA
PQ2vVrTU,3odop6t3bvxisk3y617o3pei3yp24c,3lq8puhqfp5i213p1dh19eqvzhiihs,PQ2vVrTU,2020-0188,2021-10-14,08:41:07,09:49:34,NA,incomplete,false,true,NA,5,6,NA,black,m_l_012.jpg,NA,NA,unpleasant,pleasant,NA,NA,NA,NA,NA,right,1423.5,true,NA,NA,NA,NA,NA
PQ2vVrTU,3odop6t3bvxisk3y617o3pei3yp24c,3lq8puhqfp5i213p1dh19eqvzhiihs,PQ2vVrTU,2020-0188,2021-10-14,08:41:07,09:49:34,NA,incomplete,false,true,NA,5,7,NA,black,n_s_018.jpg,NA,NA,unpleasant,pleasant,NA,NA,NA,NA,NA,right,968.199999999255,true,NA,NA,NA,NA,NA
PQ2vVrTU,3odop6t3bvxisk3y617o3pei3yp24c,3lq8puhqfp5i213p1dh19eqvzhiihs,PQ2vVrTU,2020-0188,2021-10-14,08:41:07,09:49:34,NA,incomplete,false,true,NA,5,8,NA,black,n_s_005.jpg,NA,NA,pleasant,unpleasant,NA,NA,NA,NA,NA,left,1619.5,true,NA,NA,NA,NA,NA
PQ2vVrTU,3odop6t3bvxisk3y617o3pei3yp24c,3lq8puhqfp5i213p1dh19eqvzhiihs,PQ2vVrTU,2020-0188,2021-10-14,08:41:07,09:49:34,NA,incomplete,false,true,NA,5,9,NA,black,n_l_036.jpg,NA,NA,pleasant,unpleasant,NA,NA,NA,NA,NA,right,868.299999999814,true,NA,NA,NA,NA,NA
PQ2vVrTU,3odop6t3bvxisk3y617o3pei3yp24c,3lq8puhqfp5i213p1dh19eqvzhiihs,PQ2vVrTU,2020-0188,2021-10-14,08:41:07,09:49:34,NA,incomplete,false,true,NA,5,10,NA,black,n_l_116.jpg,NA,NA,pleasant,unpleasant,NA,NA,NA,NA,NA,right,1459.20000000019,true,NA,NA,NA,NA,NA
PQ2vVrTU,3odop6t3bvxisk3y617o3pei3yp24c,3lq8puhqfp5i213p1dh19eqvzhiihs,PQ2vVrTU,2020-0188,2021-10-14,08:41:07,09:49:34,NA,incomplete,false,true,NA,5,11,NA,black,n_s_046.jpg,NA,NA,unpleasant,pleasant,NA,NA,NA,NA,NA,left,991.900000000373,true,NA,NA,NA,NA,NA
PQ2vVrTU,3odop6t3bvxisk3y617o3pei3yp24c,3lq8puhqfp5i213p1dh19eqvzhiihs,PQ2vVrTU,2020-0188,2021-10-14,08:41:07,09:49:34,NA,incomplete,false,true,NA,5,12,NA,brown,n_s_063.jpg,NA,NA,pleasant,unpleasant,NA,NA,NA,NA,NA,right,1663.10000000056,true,NA,NA,NA,NA,NA
PQ2vVrTU,3odop6t3bvxisk3y617o3pei3yp24c,3lq8puhqfp5i213p1dh19eqvzhiihs,PQ2vVrTU,2020-0188,2021-10-14,08:41:07,09:49:34,NA,incomplete,false,true,NA,5,13,NA,brown,m_s_001.jpg,NA,NA,unpleasant,pleasant,NA,NA,NA,NA,NA,left,954.700000000186,true,NA,NA,NA,NA,NA
PQ2vVrTU,3odop6t3bvxisk3y617o3pei3yp24c,3lq8puhqfp5i213p1dh19eqvzhiihs,PQ2vVrTU,2020-0188,2021-10-14,08:41:07,09:49:34,NA,incomplete,false,true,NA,5,14,NA,brown,m_s_069.jpg,NA,NA,unpleasant,pleasant,NA,NA,NA,NA,NA,left,950.5,true,NA,NA,NA,NA,NA
PQ2vVrTU,3odop6t3bvxisk3y617o3pei3yp24c,3lq8puhqfp5i213p1dh19eqvzhiihs,PQ2vVrTU,2020-0188,2021-10-14,08:41:07,09:49:34,NA,incomplete,false,true,NA,5,15,NA,brown,m_l_100.jpg,NA,NA,unpleasant,pleasant,NA,NA,NA,NA,NA,left,1127.10000000056,true,NA,NA,NA,NA,NA
PQ2vVrTU,3odop6t3bvxisk3y617o3pei3yp24c,3lq8puhqfp5i213p1dh19eqvzhiihs,PQ2vVrTU,2020-0188,2021-10-14,08:41:07,09:49:34,NA,incomplete,false,true,NA,5,16,NA,brown,n_s_071.jpg,NA,NA,unpleasant,pleasant,NA,NA,NA,NA,NA,left,1461.29999999981,true,NA,NA,NA,NA,NA
PQ2vVrTU,3odop6t3bvxisk3y617o3pei3yp24c,3lq8puhqfp5i213p1dh19eqvzhiihs,PQ2vVrTU,2020-0188,2021-10-14,08:41:07,09:49:34,NA,incomplete,false,true,NA,5,17,NA,brown,m_l_072.jpg,NA,NA,unpleasant,pleasant,NA,NA,NA,NA,NA,left,1288.29999999981,true,NA,NA,NA,NA,NA
PQ2vVrTU,3odop6t3bvxisk3y617o3pei3yp24c,3lq8puhqfp5i213p1dh19eqvzhiihs,PQ2vVrTU,2020-0188,2021-10-14,08:41:07,09:49:34,NA,incomplete,false,true,NA,5,18,NA,green,n_s_076.jpg,NA,NA,pleasant,unpleasant,NA,NA,NA,NA,NA,right,1731.39999999944,true,NA,NA,NA,NA,NA
PQ2vVrTU,3odop6t3bvxisk3y617o3pei3yp24c,3lq8puhqfp5i213p1dh19eqvzhiihs,PQ2vVrTU,2020-0188,2021-10-14,08:41:07,09:49:34,NA,incomplete,false,true,NA,5,19,NA,green,n_l_040.jpg,NA,NA,pleasant,unpleasant,NA,NA,NA,NA,NA,left,971.400000000373,true,NA,NA,NA,NA,NA
PQ2vVrTU,3odop6t3bvxisk3y617o3pei3yp24c,3lq8puhqfp5i213p1dh19eqvzhiihs,PQ2vVrTU,2020-0188,2021-10-14,08:41:07,09:49:34,NA,incomplete,false,true,NA,5,20,NA,green,n_l_053.jpg,NA,NA,unpleasant,pleasant,NA,NA,NA,NA,NA,left,990.600000000559,true,NA,NA,NA,NA,NA
PQ2vVrTU,3odop6t3bvxisk3y617o3pei3yp24c,3lq8puhqfp5i213p1dh19eqvzhiihs,PQ2vVrTU,2020-0188,2021-10-14,08:41:07,09:49:34,NA,incomplete,false,true,NA,5,21,NA,green,m_s_096.jpg,NA,NA,pleasant,unpleasant,NA,NA,NA,NA,NA,right,942.299999999814,true,NA,NA,NA,NA,NA
PQ2vVrTU,3odop6t3bvxisk3y617o3pei3yp24c,3lq8puhqfp5i213p1dh19eqvzhiihs,PQ2vVrTU,2020-0188,2021-10-14,08:41:07,09:49:34,NA,incomplete,false,true,NA,5,22,NA,green,m_l_090.jpg,NA,NA,unpleasant,pleasant,NA,NA,NA,NA,NA,left,1012.89999999944,true,NA,NA,NA,NA,NA
PQ2vVrTU,3odop6t3bvxisk3y617o3pei3yp24c,3lq8puhqfp5i213p1dh19eqvzhiihs,PQ2vVrTU,2020-0188,2021-10-14,08:41:07,09:49:34,NA,incomplete,false,true,NA,5,23,NA,green,m_s_041.jpg,NA,NA,unpleasant,pleasant,NA,NA,NA,NA,NA,left,1067.10000000056,true,NA,NA,NA,NA,NA
PQ2vVrTU,3odop6t3bvxisk3y617o3pei3yp24c,3lq8puhqfp5i213p1dh19eqvzhiihs,PQ2vVrTU,2020-0188,2021-10-14,08:41:07,09:49:34,NA,incomplete,false,true,NA,5,24,NA,gray,n_l_013.jpg,NA,NA,pleasant,unpleasant,NA,NA,NA,NA,NA,left,1065,true,NA,NA,NA,NA,NA
PQ2vVrTU,3odop6t3bvxisk3y617o3pei3yp24c,3lq8puhqfp5i213p1dh19eqvzhiihs,PQ2vVrTU,2020-0188,2021-10-14,08:41:07,09:49:34,NA,incomplete,false,true,NA,5,25,NA,gray,m_l_113.jpg,NA,NA,pleasant,unpleasant,NA,NA,NA,NA,NA,right,1502.70000000019,true,NA,NA,NA,NA,NA
PQ2vVrTU,3odop6t3bvxisk3y617o3pei3yp24c,3lq8puhqfp5i213p1dh19eqvzhiihs,PQ2vVrTU,2020-0188,2021-10-14,08:41:07,09:49:34,NA,incomplete,false,true,NA,5,26,NA,gray,m_s_004.jpg,NA,NA,pleasant,unpleasant,NA,NA,NA,NA,NA,left,1586.39999999944,true,NA,NA,NA,NA,NA
PQ2vVrTU,3odop6t3bvxisk3y617o3pei3yp24c,3lq8puhqfp5i213p1dh19eqvzhiihs,PQ2vVrTU,2020-0188,2021-10-14,08:41:07,09:49:34,NA,incomplete,false,true,NA,5,27,NA,gray,n_l_006.jpg,NA,NA,pleasant,unpleasant,NA,NA,NA,NA,NA,right,888.900000000373,true,NA,NA,NA,NA,NA
PQ2vVrTU,3odop6t3bvxisk3y617o3pei3yp24c,3lq8puhqfp5i213p1dh19eqvzhiihs,PQ2vVrTU,2020-0188,2021-10-14,08:41:07,09:49:34,NA,incomplete,false,true,NA,5,28,NA,gray,n_s_099.jpg,NA,NA,pleasant,unpleasant,NA,NA,NA,NA,NA,right,994.100000000559,true,NA,NA,NA,NA,NA
PQ2vVrTU,3odop6t3bvxisk3y617o3pei3yp24c,3lq8puhqfp5i213p1dh19eqvzhiihs,PQ2vVrTU,2020-0188,2021-10-14,08:41:07,09:49:34,NA,incomplete,false,true,NA,5,29,NA,gray,m_s_107.jpg,NA,NA,pleasant,unpleasant,NA,NA,NA,NA,NA,left,1573.69999999925,true,NA,NA,NA,NA,NA
PQ2vVrTU,3odop6t3bvxisk3y617o3pei3yp24c,3lq8puhqfp5i213p1dh19eqvzhiihs,PQ2vVrTU,2020-0188,2021-10-14,08:41:07,09:49:34,NA,incomplete,false,true,NA,5,30,NA,red,n_s_045.jpg,NA,NA,unpleasant,pleasant,NA,NA,NA,NA,NA,left,2089.59999999963,true,NA,NA,NA,NA,NA
PQ2vVrTU,3odop6t3bvxisk3y617o3pei3yp24c,3lq8puhqfp5i213p1dh19eqvzhiihs,PQ2vVrTU,2020-0188,2021-10-14,08:41:07,09:49:34,NA,incomplete,false,true,NA,5,31,NA,red,n_l_014.jpg,NA,NA,pleasant,unpleasant,NA,NA,NA,NA,NA,right,1246.30000000075,true,NA,NA,NA,NA,NA
PQ2vVrTU,3odop6t3bvxisk3y617o3pei3yp24c,3lq8puhqfp5i213p1dh19eqvzhiihs,PQ2vVrTU,2020-0188,2021-10-14,08:41:07,09:49:34,NA,incomplete,false,true,NA,5,32,NA,red,m_s_097.jpg,NA,NA,unpleasant,pleasant,NA,NA,NA,NA,NA,left,1287.20000000019,true,NA,NA,NA,NA,NA
PQ2vVrTU,3odop6t3bvxisk3y617o3pei3yp24c,3lq8puhqfp5i213p1dh19eqvzhiihs,PQ2vVrTU,2020-0188,2021-10-14,08:41:07,09:49:34,NA,incomplete,false,true,NA,5,33,NA,red,m_s_036.jpg,NA,NA,pleasant,unpleasant,NA,NA,NA,NA,NA,left,1500.5,true,NA,NA,NA,NA,NA
PQ2vVrTU,3odop6t3bvxisk3y617o3pei3yp24c,3lq8puhqfp5i213p1dh19eqvzhiihs,PQ2vVrTU,2020-0188,2021-10-14,08:41:07,09:49:34,NA,incomplete,false,true,NA,5,34,NA,red,n_l_003.jpg,NA,NA,unpleasant,pleasant,NA,NA,NA,NA,NA,left,1061.5,true,NA,NA,NA,NA,NA
PQ2vVrTU,3odop6t3bvxisk3y617o3pei3yp24c,3lq8puhqfp5i213p1dh19eqvzhiihs,PQ2vVrTU,2020-0188,2021-10-14,08:41:07,09:49:34,NA,incomplete,false,true,NA,5,35,NA,red,m_s_067.jpg,NA,NA,pleasant,unpleasant,NA,NA,NA,NA,NA,right,990.200000000186,true,NA,NA,NA,NA,NA
PQ2vVrTU,3odop6t3bvxisk3y617o3pei3yp24c,3lq8puhqfp5i213p1dh19eqvzhiihs,PQ2vVrTU,2020-0188,2021-10-14,08:41:07,09:49:34,NA,incomplete,false,NA,true,5,0,NA,NA,NA,right,absent,NA,NA,m_s_041.jpg,green,n_l_040.jpg,green,within,NA,NaN,NA,left,4571,0,2,933.7999999998137
PQ2vVrTU,3odop6t3bvxisk3y617o3pei3yp24c,3lq8puhqfp5i213p1dh19eqvzhiihs,PQ2vVrTU,2020-0188,2021-10-14,08:41:07,09:49:34,NA,incomplete,false,NA,true,5,1,NA,NA,NA,right,absent,NA,NA,m_s_097.jpg,red,n_s_099.jpg,gray,between,NA,NaN,NA,left,1508.3999999994412,0,2,733.4000000003725
PQ2vVrTU,3odop6t3bvxisk3y617o3pei3yp24c,3lq8puhqfp5i213p1dh19eqvzhiihs,PQ2vVrTU,2020-0188,2021-10-14,08:41:07,09:49:34,NA,incomplete,false,NA,true,5,2,NA,NA,NA,left,absent,NA,NA,n_l_014.jpg,red,m_s_067.jpg,red,within,NA,NaN,NA,left,3467,1,2,926.0999999996275
PQ2vVrTU,3odop6t3bvxisk3y617o3pei3yp24c,3lq8puhqfp5i213p1dh19eqvzhiihs,PQ2vVrTU,2020-0188,2021-10-14,08:41:07,09:49:34,NA,incomplete,false,NA,true,5,3,NA,NA,NA,left,absent,NA,NA,m_s_020.jpg,orange,n_s_005.jpg,black,between,NA,NaN,NA,left,2604.7000000001863,1,2,626.5
PQ2vVrTU,3odop6t3bvxisk3y617o3pei3yp24c,3lq8puhqfp5i213p1dh19eqvzhiihs,PQ2vVrTU,2020-0188,2021-10-14,08:41:07,09:49:34,NA,incomplete,false,NA,true,5,4,NA,NA,NA,right,absent,NA,NA,n_l_053.jpg,green,n_s_071.jpg,brown,between,NA,NaN,NA,right,1783.2999999998137,1,2,745.7000000001863
PQ2vVrTU,3odop6t3bvxisk3y617o3pei3yp24c,3lq8puhqfp5i213p1dh19eqvzhiihs,PQ2vVrTU,2020-0188,2021-10-14,08:41:07,09:49:34,NA,incomplete,false,NA,true,5,5,NA,NA,NA,left,absent,NA,NA,n_s_018.jpg,black,n_s_046.jpg,black,within,NA,NaN,NA,left,1613.7999999998137,1,1,376.1000000005588
PQ2vVrTU,3odop6t3bvxisk3y617o3pei3yp24c,3lq8puhqfp5i213p1dh19eqvzhiihs,PQ2vVrTU,2020-0188,2021-10-14,08:41:07,09:49:34,NA,incomplete,false,NA,true,5,6,NA,NA,NA,left,absent,NA,NA,m_s_001.jpg,brown,m_l_072.jpg,brown,within,NA,NaN,NA,right,864.7000000001863,0,2,586.9000000003725
PQ2vVrTU,3odop6t3bvxisk3y617o3pei3yp24c,3lq8puhqfp5i213p1dh19eqvzhiihs,PQ2vVrTU,2020-0188,2021-10-14,08:41:07,09:49:34,NA,incomplete,false,NA,true,5,7,NA,NA,NA,right,absent,NA,NA,m_s_004.jpg,gray,m_l_090.jpg,green,between,NA,NaN,NA,left,1367.2000000001863,0,2,578.7999999998137
PQ2vVrTU,3odop6t3bvxisk3y617o3pei3yp24c,3lq8puhqfp5i213p1dh19eqvzhiihs,PQ2vVrTU,2020-0188,2021-10-14,08:41:07,09:49:34,NA,incomplete,false,NA,true,5,8,NA,NA,NA,right,absent,NA,NA,n_s_082.jpg,orange,n_s_029.jpg,orange,within,NA,NaN,NA,left,1361.699999999255,0,2,454.30000000074506
PQ2vVrTU,3odop6t3bvxisk3y617o3pei3yp24c,3lq8puhqfp5i213p1dh19eqvzhiihs,PQ2vVrTU,2020-0188,2021-10-14,08:41:07,09:49:34,NA,incomplete,false,NA,true,5,9,NA,NA,NA,left,absent,NA,NA,m_l_113.jpg,gray,m_s_107.jpg,gray,within,NA,NaN,NA,right,998.9000000003725,0,1,248.3999999994412
PQ2vVrTU,3odop6t3bvxisk3y617o3pei3yp24c,3lq8puhqfp5i213p1dh19eqvzhiihs,PQ2vVrTU,2020-0188,2021-10-14,08:41:07,09:49:34,NA,incomplete,false,NA,true,5,10,NA,NA,NA,right,absent,NA,NA,m_s_069.jpg,brown,n_l_116.jpg,black,between,NA,NaN,NA,right,1335.6000000005588,1,2,449.5
PQ2vVrTU,3odop6t3bvxisk3y617o3pei3yp24c,3lq8puhqfp5i213p1dh19eqvzhiihs,PQ2vVrTU,2020-0188,2021-10-14,08:41:07,09:49:34,NA,incomplete,false,true,NA,6,0,NA,green,m_s_101.jpg,NA,NA,pleasant,unpleasant,NA,NA,NA,NA,NA,left,1575.5,true,NA,NA,NA,NA,NA
PQ2vVrTU,3odop6t3bvxisk3y617o3pei3yp24c,3lq8puhqfp5i213p1dh19eqvzhiihs,PQ2vVrTU,2020-0188,2021-10-14,08:41:07,09:49:34,NA,incomplete,false,true,NA,6,1,NA,green,n_l_050.jpg,NA,NA,unpleasant,pleasant,NA,NA,NA,NA,NA,left,1302.29999999981,true,NA,NA,NA,NA,NA
PQ2vVrTU,3odop6t3bvxisk3y617o3pei3yp24c,3lq8puhqfp5i213p1dh19eqvzhiihs,PQ2vVrTU,2020-0188,2021-10-14,08:41:07,09:49:34,NA,incomplete,false,true,NA,6,2,NA,green,m_s_028.jpg,NA,NA,unpleasant,pleasant,NA,NA,NA,NA,NA,left,1961.40000000037,true,NA,NA,NA,NA,NA
PQ2vVrTU,3odop6t3bvxisk3y617o3pei3yp24c,3lq8puhqfp5i213p1dh19eqvzhiihs,PQ2vVrTU,2020-0188,2021-10-14,08:41:07,09:49:34,NA,incomplete,false,true,NA,6,3,NA,green,n_l_033.jpg,NA,NA,unpleasant,pleasant,NA,NA,NA,NA,NA,right,1352.29999999981,true,NA,NA,NA,NA,NA
PQ2vVrTU,3odop6t3bvxisk3y617o3pei3yp24c,3lq8puhqfp5i213p1dh19eqvzhiihs,PQ2vVrTU,2020-0188,2021-10-14,08:41:07,09:49:34,NA,incomplete,false,true,NA,6,4,NA,green,n_s_087.jpg,NA,NA,pleasant,unpleasant,NA,NA,NA,NA,NA,right,2104.30000000075,true,NA,NA,NA,NA,NA
PQ2vVrTU,3odop6t3bvxisk3y617o3pei3yp24c,3lq8puhqfp5i213p1dh19eqvzhiihs,PQ2vVrTU,2020-0188,2021-10-14,08:41:07,09:49:34,NA,incomplete,false,true,NA,6,5,NA,green,m_l_032.jpg,NA,NA,unpleasant,pleasant,NA,NA,NA,NA,NA,right,2198.39999999944,true,NA,NA,NA,NA,NA
PQ2vVrTU,3odop6t3bvxisk3y617o3pei3yp24c,3lq8puhqfp5i213p1dh19eqvzhiihs,PQ2vVrTU,2020-0188,2021-10-14,08:41:07,09:49:34,NA,incomplete,false,true,NA,6,6,NA,gray,m_s_016.jpg,NA,NA,unpleasant,pleasant,NA,NA,NA,NA,NA,right,1110.59999999963,true,NA,NA,NA,NA,NA
PQ2vVrTU,3odop6t3bvxisk3y617o3pei3yp24c,3lq8puhqfp5i213p1dh19eqvzhiihs,PQ2vVrTU,2020-0188,2021-10-14,08:41:07,09:49:34,NA,incomplete,false,true,NA,6,7,NA,gray,m_s_091.jpg,NA,NA,pleasant,unpleasant,NA,NA,NA,NA,NA,left,1393,true,NA,NA,NA,NA,NA
PQ2vVrTU,3odop6t3bvxisk3y617o3pei3yp24c,3lq8puhqfp5i213p1dh19eqvzhiihs,PQ2vVrTU,2020-0188,2021-10-14,08:41:07,09:49:34,NA,incomplete,false,true,NA,6,8,NA,gray,n_l_034.jpg,NA,NA,pleasant,unpleasant,NA,NA,NA,NA,NA,right,1179,true,NA,NA,NA,NA,NA
PQ2vVrTU,3odop6t3bvxisk3y617o3pei3yp24c,3lq8puhqfp5i213p1dh19eqvzhiihs,PQ2vVrTU,2020-0188,2021-10-14,08:41:07,09:49:34,NA,incomplete,false,true,NA,6,9,NA,gray,m_l_041.jpg,NA,NA,pleasant,unpleasant,NA,NA,NA,NA,NA,left,947.299999999814,true,NA,NA,NA,NA,NA
PQ2vVrTU,3odop6t3bvxisk3y617o3pei3yp24c,3lq8puhqfp5i213p1dh19eqvzhiihs,PQ2vVrTU,2020-0188,2021-10-14,08:41:07,09:49:34,NA,incomplete,false,true,NA,6,10,NA,gray,n_l_035.jpg,NA,NA,pleasant,unpleasant,NA,NA,NA,NA,NA,right,1871.10000000056,true,NA,NA,NA,NA,NA
PQ2vVrTU,3odop6t3bvxisk3y617o3pei3yp24c,3lq8puhqfp5i213p1dh19eqvzhiihs,PQ2vVrTU,2020-0188,2021-10-14,08:41:07,09:49:34,NA,incomplete,false,true,NA,6,11,NA,gray,n_s_065.jpg,NA,NA,pleasant,unpleasant,NA,NA,NA,NA,NA,left,977.700000000186,true,NA,NA,NA,NA,NA
PQ2vVrTU,3odop6t3bvxisk3y617o3pei3yp24c,3lq8puhqfp5i213p1dh19eqvzhiihs,PQ2vVrTU,2020-0188,2021-10-14,08:41:07,09:49:34,NA,incomplete,false,true,NA,6,12,NA,red,m_l_017.jpg,NA,NA,pleasant,unpleasant,NA,NA,NA,NA,NA,right,1008.20000000019,true,NA,NA,NA,NA,NA
PQ2vVrTU,3odop6t3bvxisk3y617o3pei3yp24c,3lq8puhqfp5i213p1dh19eqvzhiihs,PQ2vVrTU,2020-0188,2021-10-14,08:41:07,09:49:34,NA,incomplete,false,true,NA,6,13,NA,red,m_s_086.jpg,NA,NA,pleasant,unpleasant,NA,NA,NA,NA,NA,right,1228.79999999981,true,NA,NA,NA,NA,NA
PQ2vVrTU,3odop6t3bvxisk3y617o3pei3yp24c,3lq8puhqfp5i213p1dh19eqvzhiihs,PQ2vVrTU,2020-0188,2021-10-14,08:41:07,09:49:34,NA,incomplete,false,true,NA,6,14,NA,red,m_l_048.jpg,NA,NA,unpleasant,pleasant,NA,NA,NA,NA,NA,left,935.5,true,NA,NA,NA,NA,NA
PQ2vVrTU,3odop6t3bvxisk3y617o3pei3yp24c,3lq8puhqfp5i213p1dh19eqvzhiihs,PQ2vVrTU,2020-0188,2021-10-14,08:41:07,09:49:34,NA,incomplete,false,true,NA,6,15,NA,red,m_s_043.jpg,NA,NA,unpleasant,pleasant,NA,NA,NA,NA,NA,right,988.399999999441,true,NA,NA,NA,NA,NA
PQ2vVrTU,3odop6t3bvxisk3y617o3pei3yp24c,3lq8puhqfp5i213p1dh19eqvzhiihs,PQ2vVrTU,2020-0188,2021-10-14,08:41:07,09:49:34,NA,incomplete,false,true,NA,6,16,NA,red,n_l_108.jpg,NA,NA,unpleasant,pleasant,NA,NA,NA,NA,NA,left,1803.79999999981,true,NA,NA,NA,NA,NA
PQ2vVrTU,3odop6t3bvxisk3y617o3pei3yp24c,3lq8puhqfp5i213p1dh19eqvzhiihs,PQ2vVrTU,2020-0188,2021-10-14,08:41:07,09:49:34,NA,incomplete,false,true,NA,6,17,NA,red,m_l_110.jpg,NA,NA,unpleasant,pleasant,NA,NA,NA,NA,NA,left,1624.59999999963,true,NA,NA,NA,NA,NA
PQ2vVrTU,3odop6t3bvxisk3y617o3pei3yp24c,3lq8puhqfp5i213p1dh19eqvzhiihs,PQ2vVrTU,2020-0188,2021-10-14,08:41:07,09:49:34,NA,incomplete,false,true,NA,6,18,NA,yellow,n_s_106.jpg,NA,NA,pleasant,unpleasant,NA,NA,NA,NA,NA,right,1200,true,NA,NA,NA,NA,NA
PQ2vVrTU,3odop6t3bvxisk3y617o3pei3yp24c,3lq8puhqfp5i213p1dh19eqvzhiihs,PQ2vVrTU,2020-0188,2021-10-14,08:41:07,09:49:34,NA,incomplete,false,true,NA,6,19,NA,yellow,n_s_104.jpg,NA,NA,unpleasant,pleasant,NA,NA,NA,NA,NA,right,914,true,NA,NA,NA,NA,NA
PQ2vVrTU,3odop6t3bvxisk3y617o3pei3yp24c,3lq8puhqfp5i213p1dh19eqvzhiihs,PQ2vVrTU,2020-0188,2021-10-14,08:41:07,09:49:34,NA,incomplete,false,true,NA,6,20,NA,yellow,n_s_024.jpg,NA,NA,pleasant,unpleasant,NA,NA,NA,NA,NA,right,1050.10000000056,true,NA,NA,NA,NA,NA
PQ2vVrTU,3odop6t3bvxisk3y617o3pei3yp24c,3lq8puhqfp5i213p1dh19eqvzhiihs,PQ2vVrTU,2020-0188,2021-10-14,08:41:07,09:49:34,NA,incomplete,false,true,NA,6,21,NA,yellow,m_l_080.jpg,NA,NA,unpleasant,pleasant,NA,NA,NA,NA,NA,left,1210.30000000075,true,NA,NA,NA,NA,NA
PQ2vVrTU,3odop6t3bvxisk3y617o3pei3yp24c,3lq8puhqfp5i213p1dh19eqvzhiihs,PQ2vVrTU,2020-0188,2021-10-14,08:41:07,09:49:34,NA,incomplete,false,true,NA,6,22,NA,yellow,n_l_082.jpg,NA,NA,pleasant,unpleasant,NA,NA,NA,NA,NA,right,1556.79999999981,true,NA,NA,NA,NA,NA
PQ2vVrTU,3odop6t3bvxisk3y617o3pei3yp24c,3lq8puhqfp5i213p1dh19eqvzhiihs,PQ2vVrTU,2020-0188,2021-10-14,08:41:07,09:49:34,NA,incomplete,false,true,NA,6,23,NA,yellow,n_l_026.jpg,NA,NA,pleasant,unpleasant,NA,NA,NA,NA,NA,right,1210.20000000019,true,NA,NA,NA,NA,NA
PQ2vVrTU,3odop6t3bvxisk3y617o3pei3yp24c,3lq8puhqfp5i213p1dh19eqvzhiihs,PQ2vVrTU,2020-0188,2021-10-14,08:41:07,09:49:34,NA,incomplete,false,true,NA,6,24,NA,black,n_l_057.jpg,NA,NA,pleasant,unpleasant,NA,NA,NA,NA,NA,left,1100,true,NA,NA,NA,NA,NA
PQ2vVrTU,3odop6t3bvxisk3y617o3pei3yp24c,3lq8puhqfp5i213p1dh19eqvzhiihs,PQ2vVrTU,2020-0188,2021-10-14,08:41:07,09:49:34,NA,incomplete,false,true,NA,6,25,NA,black,m_s_106.jpg,NA,NA,unpleasant,pleasant,NA,NA,NA,NA,NA,left,984,true,NA,NA,NA,NA,NA
PQ2vVrTU,3odop6t3bvxisk3y617o3pei3yp24c,3lq8puhqfp5i213p1dh19eqvzhiihs,PQ2vVrTU,2020-0188,2021-10-14,08:41:07,09:49:34,NA,incomplete,false,true,NA,6,26,NA,black,m_s_058.jpg,NA,NA,unpleasant,pleasant,NA,NA,NA,NA,NA,right,883.799999999814,true,NA,NA,NA,NA,NA
PQ2vVrTU,3odop6t3bvxisk3y617o3pei3yp24c,3lq8puhqfp5i213p1dh19eqvzhiihs,PQ2vVrTU,2020-0188,2021-10-14,08:41:07,09:49:34,NA,incomplete,false,true,NA,6,27,NA,black,m_s_081.jpg,NA,NA,unpleasant,pleasant,NA,NA,NA,NA,NA,right,967.5,true,NA,NA,NA,NA,NA
PQ2vVrTU,3odop6t3bvxisk3y617o3pei3yp24c,3lq8puhqfp5i213p1dh19eqvzhiihs,PQ2vVrTU,2020-0188,2021-10-14,08:41:07,09:49:34,NA,incomplete,false,true,NA,6,28,NA,black,m_l_051.jpg,NA,NA,unpleasant,pleasant,NA,NA,NA,NA,NA,right,1775.09999999963,true,NA,NA,NA,NA,NA
PQ2vVrTU,3odop6t3bvxisk3y617o3pei3yp24c,3lq8puhqfp5i213p1dh19eqvzhiihs,PQ2vVrTU,2020-0188,2021-10-14,08:41:07,09:49:34,NA,incomplete,false,true,NA,6,29,NA,black,m_s_098.jpg,NA,NA,unpleasant,pleasant,NA,NA,NA,NA,NA,right,1319.39999999944,true,NA,NA,NA,NA,NA
PQ2vVrTU,3odop6t3bvxisk3y617o3pei3yp24c,3lq8puhqfp5i213p1dh19eqvzhiihs,PQ2vVrTU,2020-0188,2021-10-14,08:41:07,09:49:34,NA,incomplete,false,true,NA,6,30,NA,blue,n_s_084.jpg,NA,NA,pleasant,unpleasant,NA,NA,NA,NA,NA,right,1425.79999999981,true,NA,NA,NA,NA,NA
PQ2vVrTU,3odop6t3bvxisk3y617o3pei3yp24c,3lq8puhqfp5i213p1dh19eqvzhiihs,PQ2vVrTU,2020-0188,2021-10-14,08:41:07,09:49:34,NA,incomplete,false,true,NA,6,31,NA,blue,m_l_018.jpg,NA,NA,pleasant,unpleasant,NA,NA,NA,NA,NA,none,0,false,NA,NA,NA,NA,NA
PQ2vVrTU,3odop6t3bvxisk3y617o3pei3yp24c,3lq8puhqfp5i213p1dh19eqvzhiihs,PQ2vVrTU,2020-0188,2021-10-14,08:41:07,09:49:34,NA,incomplete,false,true,NA,6,32,NA,blue,n_s_092.jpg,NA,NA,unpleasant,pleasant,NA,NA,NA,NA,NA,left,1013.40000000037,true,NA,NA,NA,NA,NA
PQ2vVrTU,3odop6t3bvxisk3y617o3pei3yp24c,3lq8puhqfp5i213p1dh19eqvzhiihs,PQ2vVrTU,2020-0188,2021-10-14,08:41:07,09:49:34,NA,incomplete,false,true,NA,6,33,NA,blue,n_s_105.jpg,NA,NA,pleasant,unpleasant,NA,NA,NA,NA,NA,right,920.899999999441,true,NA,NA,NA,NA,NA
PQ2vVrTU,3odop6t3bvxisk3y617o3pei3yp24c,3lq8puhqfp5i213p1dh19eqvzhiihs,PQ2vVrTU,2020-0188,2021-10-14,08:41:07,09:49:34,NA,incomplete,false,true,NA,6,34,NA,blue,n_s_074.jpg,NA,NA,pleasant,unpleasant,NA,NA,NA,NA,NA,right,908.700000000186,true,NA,NA,NA,NA,NA
PQ2vVrTU,3odop6t3bvxisk3y617o3pei3yp24c,3lq8puhqfp5i213p1dh19eqvzhiihs,PQ2vVrTU,2020-0188,2021-10-14,08:41:07,09:49:34,NA,incomplete,false,true,NA,6,35,NA,blue,m_l_054.jpg,NA,NA,pleasant,unpleasant,NA,NA,NA,NA,NA,right,932.600000000559,true,NA,NA,NA,NA,NA
PQ2vVrTU,3odop6t3bvxisk3y617o3pei3yp24c,3lq8puhqfp5i213p1dh19eqvzhiihs,PQ2vVrTU,2020-0188,2021-10-14,08:41:07,09:49:34,NA,incomplete,false,NA,true,6,0,NA,NA,NA,right,absent,NA,NA,m_s_098.jpg,black,m_s_106.jpg,black,within,NA,NaN,NA,right,5288.0999999996275,1,2,1088
PQ2vVrTU,3odop6t3bvxisk3y617o3pei3yp24c,3lq8puhqfp5i213p1dh19eqvzhiihs,PQ2vVrTU,2020-0188,2021-10-14,08:41:07,09:49:34,NA,incomplete,false,NA,true,6,1,NA,NA,NA,right,absent,NA,NA,n_l_034.jpg,gray,n_s_087.jpg,green,between,NA,NaN,NA,right,1943.0999999996275,1,1,289.20000000018626
PQ2vVrTU,3odop6t3bvxisk3y617o3pei3yp24c,3lq8puhqfp5i213p1dh19eqvzhiihs,PQ2vVrTU,2020-0188,2021-10-14,08:41:07,09:49:34,NA,incomplete,false,NA,true,6,2,NA,NA,NA,left,absent,NA,NA,m_l_051.jpg,black,n_s_092.jpg,blue,between,NA,NaN,NA,left,1849.7999999998137,1,1,330.70000000018626
PQ2vVrTU,3odop6t3bvxisk3y617o3pei3yp24c,3lq8puhqfp5i213p1dh19eqvzhiihs,PQ2vVrTU,2020-0188,2021-10-14,08:41:07,09:49:34,NA,incomplete,false,NA,true,6,3,NA,NA,NA,right,absent,NA,NA,m_l_110.jpg,red,m_s_086.jpg,red,within,NA,NaN,NA,right,1144.2999999998137,1,1,328.20000000018626
PQ2vVrTU,3odop6t3bvxisk3y617o3pei3yp24c,3lq8puhqfp5i213p1dh19eqvzhiihs,PQ2vVrTU,2020-0188,2021-10-14,08:41:07,09:49:34,NA,incomplete,false,NA,true,6,4,NA,NA,NA,left,absent,NA,NA,n_l_035.jpg,gray,m_l_048.jpg,red,between,NA,NaN,NA,right,1557.5999999996275,0,1,265.8999999994412
PQ2vVrTU,3odop6t3bvxisk3y617o3pei3yp24c,3lq8puhqfp5i213p1dh19eqvzhiihs,PQ2vVrTU,2020-0188,2021-10-14,08:41:07,09:49:34,NA,incomplete,false,NA,true,6,5,NA,NA,NA,left,absent,NA,NA,m_s_091.jpg,gray,n_s_065.jpg,gray,within,NA,NaN,NA,right,1445.7999999998137,0,1,314.19999999925494
PQ2vVrTU,3odop6t3bvxisk3y617o3pei3yp24c,3lq8puhqfp5i213p1dh19eqvzhiihs,PQ2vVrTU,2020-0188,2021-10-14,08:41:07,09:49:34,NA,incomplete,false,NA,true,6,6,NA,NA,NA,left,absent,NA,NA,n_s_104.jpg,yellow,n_l_026.jpg,yellow,within,NA,NaN,NA,left,1201.4000000003725,1,1,307.40000000037253
PQ2vVrTU,3odop6t3bvxisk3y617o3pei3yp24c,3lq8puhqfp5i213p1dh19eqvzhiihs,PQ2vVrTU,2020-0188,2021-10-14,08:41:07,09:49:34,NA,incomplete,false,NA,true,6,7,NA,NA,NA,left,absent,NA,NA,n_l_082.jpg,yellow,m_s_058.jpg,black,between,NA,NaN,NA,left,1350.7999999998137,1,2,711.5
PQ2vVrTU,3odop6t3bvxisk3y617o3pei3yp24c,3lq8puhqfp5i213p1dh19eqvzhiihs,PQ2vVrTU,2020-0188,2021-10-14,08:41:07,09:49:34,NA,incomplete,false,NA,true,6,8,NA,NA,NA,right,absent,NA,NA,m_l_054.jpg,blue,m_l_018.jpg,blue,within,NA,NaN,NA,left,1375.5,0,2,598.3999999994412
PQ2vVrTU,3odop6t3bvxisk3y617o3pei3yp24c,3lq8puhqfp5i213p1dh19eqvzhiihs,PQ2vVrTU,2020-0188,2021-10-14,08:41:07,09:49:34,NA,incomplete,false,NA,true,6,9,NA,NA,NA,left,absent,NA,NA,n_l_108.jpg,red,n_s_024.jpg,yellow,between,NA,NaN,NA,left,1623.199999999255,1,2,629.9000000003725
PQ2vVrTU,3odop6t3bvxisk3y617o3pei3yp24c,3lq8puhqfp5i213p1dh19eqvzhiihs,PQ2vVrTU,2020-0188,2021-10-14,08:41:07,09:49:34,NA,incomplete,false,NA,true,6,10,NA,NA,NA,right,absent,NA,NA,m_l_032.jpg,green,n_l_050.jpg,green,within,NA,NaN,NA,right,2805.2000000001863,1,3,689.2000000001863
PQ2vVrTU,3odop6t3bvxisk3y617o3pei3yp24c,3lq8puhqfp5i213p1dh19eqvzhiihs,PQ2vVrTU,2020-0188,2021-10-14,08:41:07,09:49:34,NA,incomplete,false,true,NA,7,0,NA,orange,n_l_001.jpg,NA,NA,pleasant,unpleasant,NA,NA,NA,NA,NA,right,1423.90000000037,true,NA,NA,NA,NA,NA
PQ2vVrTU,3odop6t3bvxisk3y617o3pei3yp24c,3lq8puhqfp5i213p1dh19eqvzhiihs,PQ2vVrTU,2020-0188,2021-10-14,08:41:07,09:49:34,NA,incomplete,false,true,NA,7,1,NA,orange,m_s_057.jpg,NA,NA,unpleasant,pleasant,NA,NA,NA,NA,NA,left,1498,true,NA,NA,NA,NA,NA
PQ2vVrTU,3odop6t3bvxisk3y617o3pei3yp24c,3lq8puhqfp5i213p1dh19eqvzhiihs,PQ2vVrTU,2020-0188,2021-10-14,08:41:07,09:49:34,NA,incomplete,false,true,NA,7,2,NA,orange,m_l_105.jpg,NA,NA,pleasant,unpleasant,NA,NA,NA,NA,NA,right,1246.20000000019,true,NA,NA,NA,NA,NA
PQ2vVrTU,3odop6t3bvxisk3y617o3pei3yp24c,3lq8puhqfp5i213p1dh19eqvzhiihs,PQ2vVrTU,2020-0188,2021-10-14,08:41:07,09:49:34,NA,incomplete,false,true,NA,7,3,NA,orange,n_s_073.jpg,NA,NA,unpleasant,pleasant,NA,NA,NA,NA,NA,left,1178.40000000037,true,NA,NA,NA,NA,NA
PQ2vVrTU,3odop6t3bvxisk3y617o3pei3yp24c,3lq8puhqfp5i213p1dh19eqvzhiihs,PQ2vVrTU,2020-0188,2021-10-14,08:41:07,09:49:34,NA,incomplete,false,true,NA,7,4,NA,orange,m_l_084.jpg,NA,NA,pleasant,unpleasant,NA,NA,NA,NA,NA,right,1317,true,NA,NA,NA,NA,NA
PQ2vVrTU,3odop6t3bvxisk3y617o3pei3yp24c,3lq8puhqfp5i213p1dh19eqvzhiihs,PQ2vVrTU,2020-0188,2021-10-14,08:41:07,09:49:34,NA,incomplete,false,true,NA,7,5,NA,orange,n_l_085.jpg,NA,NA,pleasant,unpleasant,NA,NA,NA,NA,NA,right,2009.19999999925,true,NA,NA,NA,NA,NA
PQ2vVrTU,3odop6t3bvxisk3y617o3pei3yp24c,3lq8puhqfp5i213p1dh19eqvzhiihs,PQ2vVrTU,2020-0188,2021-10-14,08:41:07,09:49:34,NA,incomplete,false,true,NA,7,6,NA,brown,m_s_060.jpg,NA,NA,unpleasant,pleasant,NA,NA,NA,NA,NA,left,1032.29999999981,true,NA,NA,NA,NA,NA
PQ2vVrTU,3odop6t3bvxisk3y617o3pei3yp24c,3lq8puhqfp5i213p1dh19eqvzhiihs,PQ2vVrTU,2020-0188,2021-10-14,08:41:07,09:49:34,NA,incomplete,false,true,NA,7,7,NA,brown,m_s_068.jpg,NA,NA,unpleasant,pleasant,NA,NA,NA,NA,NA,left,1133.5,true,NA,NA,NA,NA,NA
PQ2vVrTU,3odop6t3bvxisk3y617o3pei3yp24c,3lq8puhqfp5i213p1dh19eqvzhiihs,PQ2vVrTU,2020-0188,2021-10-14,08:41:07,09:49:34,NA,incomplete,false,true,NA,7,8,NA,brown,m_l_003.jpg,NA,NA,pleasant,unpleasant,NA,NA,NA,NA,NA,right,1068.79999999981,true,NA,NA,NA,NA,NA
PQ2vVrTU,3odop6t3bvxisk3y617o3pei3yp24c,3lq8puhqfp5i213p1dh19eqvzhiihs,PQ2vVrTU,2020-0188,2021-10-14,08:41:07,09:49:34,NA,incomplete,false,true,NA,7,9,NA,brown,n_s_050.jpg,NA,NA,unpleasant,pleasant,NA,NA,NA,NA,NA,right,1308.89999999944,true,NA,NA,NA,NA,NA
PQ2vVrTU,3odop6t3bvxisk3y617o3pei3yp24c,3lq8puhqfp5i213p1dh19eqvzhiihs,PQ2vVrTU,2020-0188,2021-10-14,08:41:07,09:49:34,NA,incomplete,false,true,NA,7,10,NA,brown,n_l_045.jpg,NA,NA,pleasant,unpleasant,NA,NA,NA,NA,NA,left,1586.40000000037,true,NA,NA,NA,NA,NA
PQ2vVrTU,3odop6t3bvxisk3y617o3pei3yp24c,3lq8puhqfp5i213p1dh19eqvzhiihs,PQ2vVrTU,2020-0188,2021-10-14,08:41:07,09:49:34,NA,incomplete,false,true,NA,7,11,NA,brown,m_l_086.jpg,NA,NA,pleasant,unpleasant,NA,NA,NA,NA,NA,left,1109.5,true,NA,NA,NA,NA,NA
PQ2vVrTU,3odop6t3bvxisk3y617o3pei3yp24c,3lq8puhqfp5i213p1dh19eqvzhiihs,PQ2vVrTU,2020-0188,2021-10-14,08:41:07,09:49:34,NA,incomplete,false,true,NA,7,12,NA,white,m_l_083.jpg,NA,NA,unpleasant,pleasant,NA,NA,NA,NA,NA,right,1037.10000000056,true,NA,NA,NA,NA,NA
PQ2vVrTU,3odop6t3bvxisk3y617o3pei3yp24c,3lq8puhqfp5i213p1dh19eqvzhiihs,PQ2vVrTU,2020-0188,2021-10-14,08:41:07,09:49:34,NA,incomplete,false,true,NA,7,13,NA,white,m_s_063.jpg,NA,NA,unpleasant,pleasant,NA,NA,NA,NA,NA,left,1028.40000000037,true,NA,NA,NA,NA,NA
PQ2vVrTU,3odop6t3bvxisk3y617o3pei3yp24c,3lq8puhqfp5i213p1dh19eqvzhiihs,PQ2vVrTU,2020-0188,2021-10-14,08:41:07,09:49:34,NA,incomplete,false,true,NA,7,14,NA,white,m_l_060.jpg,NA,NA,pleasant,unpleasant,NA,NA,NA,NA,NA,left,944.700000000186,true,NA,NA,NA,NA,NA
PQ2vVrTU,3odop6t3bvxisk3y617o3pei3yp24c,3lq8puhqfp5i213p1dh19eqvzhiihs,PQ2vVrTU,2020-0188,2021-10-14,08:41:07,09:49:34,NA,incomplete,false,true,NA,7,15,NA,white,m_l_079.jpg,NA,NA,pleasant,unpleasant,NA,NA,NA,NA,NA,left,896.599999999627,true,NA,NA,NA,NA,NA
PQ2vVrTU,3odop6t3bvxisk3y617o3pei3yp24c,3lq8puhqfp5i213p1dh19eqvzhiihs,PQ2vVrTU,2020-0188,2021-10-14,08:41:07,09:49:34,NA,incomplete,false,true,NA,7,16,NA,white,m_l_078.jpg,NA,NA,unpleasant,pleasant,NA,NA,NA,NA,NA,right,1427.10000000056,true,NA,NA,NA,NA,NA
PQ2vVrTU,3odop6t3bvxisk3y617o3pei3yp24c,3lq8puhqfp5i213p1dh19eqvzhiihs,PQ2vVrTU,2020-0188,2021-10-14,08:41:07,09:49:34,NA,incomplete,false,true,NA,7,17,NA,white,n_s_089.jpg,NA,NA,unpleasant,pleasant,NA,NA,NA,NA,NA,left,1474.09999999963,true,NA,NA,NA,NA,NA
PQ2vVrTU,3odop6t3bvxisk3y617o3pei3yp24c,3lq8puhqfp5i213p1dh19eqvzhiihs,PQ2vVrTU,2020-0188,2021-10-14,08:41:07,09:49:34,NA,incomplete,false,true,NA,7,18,NA,green,m_s_013.jpg,NA,NA,unpleasant,pleasant,NA,NA,NA,NA,NA,left,1680.29999999981,true,NA,NA,NA,NA,NA
PQ2vVrTU,3odop6t3bvxisk3y617o3pei3yp24c,3lq8puhqfp5i213p1dh19eqvzhiihs,PQ2vVrTU,2020-0188,2021-10-14,08:41:07,09:49:34,NA,incomplete,false,true,NA,7,19,NA,green,m_l_087.jpg,NA,NA,unpleasant,pleasant,NA,NA,NA,NA,NA,left,1066.79999999981,true,NA,NA,NA,NA,NA
PQ2vVrTU,3odop6t3bvxisk3y617o3pei3yp24c,3lq8puhqfp5i213p1dh19eqvzhiihs,PQ2vVrTU,2020-0188,2021-10-14,08:41:07,09:49:34,NA,incomplete,false,true,NA,7,20,NA,green,m_l_093.jpg,NA,NA,pleasant,unpleasant,NA,NA,NA,NA,NA,left,898.599999999627,true,NA,NA,NA,NA,NA
PQ2vVrTU,3odop6t3bvxisk3y617o3pei3yp24c,3lq8puhqfp5i213p1dh19eqvzhiihs,PQ2vVrTU,2020-0188,2021-10-14,08:41:07,09:49:34,NA,incomplete,false,true,NA,7,21,NA,green,n_l_048.jpg,NA,NA,pleasant,unpleasant,NA,NA,NA,NA,NA,right,937.200000000186,true,NA,NA,NA,NA,NA
PQ2vVrTU,3odop6t3bvxisk3y617o3pei3yp24c,3lq8puhqfp5i213p1dh19eqvzhiihs,PQ2vVrTU,2020-0188,2021-10-14,08:41:07,09:49:34,NA,incomplete,false,true,NA,7,22,NA,green,n_s_114.jpg,NA,NA,unpleasant,pleasant,NA,NA,NA,NA,NA,right,979.799999999814,true,NA,NA,NA,NA,NA
PQ2vVrTU,3odop6t3bvxisk3y617o3pei3yp24c,3lq8puhqfp5i213p1dh19eqvzhiihs,PQ2vVrTU,2020-0188,2021-10-14,08:41:07,09:49:34,NA,incomplete,false,true,NA,7,23,NA,green,m_s_089.jpg,NA,NA,unpleasant,pleasant,NA,NA,NA,NA,NA,left,1210.39999999944,true,NA,NA,NA,NA,NA
PQ2vVrTU,3odop6t3bvxisk3y617o3pei3yp24c,3lq8puhqfp5i213p1dh19eqvzhiihs,PQ2vVrTU,2020-0188,2021-10-14,08:41:07,09:49:34,NA,incomplete,false,true,NA,7,24,NA,purple,m_s_025.jpg,NA,NA,unpleasant,pleasant,NA,NA,NA,NA,NA,left,1357.09999999963,true,NA,NA,NA,NA,NA
PQ2vVrTU,3odop6t3bvxisk3y617o3pei3yp24c,3lq8puhqfp5i213p1dh19eqvzhiihs,PQ2vVrTU,2020-0188,2021-10-14,08:41:07,09:49:34,NA,incomplete,false,true,NA,7,25,NA,purple,m_l_108.jpg,NA,NA,unpleasant,pleasant,NA,NA,NA,NA,NA,left,1465.5,true,NA,NA,NA,NA,NA
PQ2vVrTU,3odop6t3bvxisk3y617o3pei3yp24c,3lq8puhqfp5i213p1dh19eqvzhiihs,PQ2vVrTU,2020-0188,2021-10-14,08:41:07,09:49:34,NA,incomplete,false,true,NA,7,26,NA,purple,n_s_031.jpg,NA,NA,unpleasant,pleasant,NA,NA,NA,NA,NA,left,1468.29999999981,true,NA,NA,NA,NA,NA
PQ2vVrTU,3odop6t3bvxisk3y617o3pei3yp24c,3lq8puhqfp5i213p1dh19eqvzhiihs,PQ2vVrTU,2020-0188,2021-10-14,08:41:07,09:49:34,NA,incomplete,false,true,NA,7,27,NA,purple,n_l_015.jpg,NA,NA,unpleasant,pleasant,NA,NA,NA,NA,NA,left,800.700000000186,true,NA,NA,NA,NA,NA
PQ2vVrTU,3odop6t3bvxisk3y617o3pei3yp24c,3lq8puhqfp5i213p1dh19eqvzhiihs,PQ2vVrTU,2020-0188,2021-10-14,08:41:07,09:49:34,NA,incomplete,false,true,NA,7,28,NA,purple,m_l_103.jpg,NA,NA,pleasant,unpleasant,NA,NA,NA,NA,NA,left,1516.09999999963,true,NA,NA,NA,NA,NA
PQ2vVrTU,3odop6t3bvxisk3y617o3pei3yp24c,3lq8puhqfp5i213p1dh19eqvzhiihs,PQ2vVrTU,2020-0188,2021-10-14,08:41:07,09:49:34,NA,incomplete,false,true,NA,7,29,NA,purple,n_l_061.jpg,NA,NA,pleasant,unpleasant,NA,NA,NA,NA,NA,right,1346.70000000019,true,NA,NA,NA,NA,NA
PQ2vVrTU,3odop6t3bvxisk3y617o3pei3yp24c,3lq8puhqfp5i213p1dh19eqvzhiihs,PQ2vVrTU,2020-0188,2021-10-14,08:41:07,09:49:34,NA,incomplete,false,true,NA,7,30,NA,gray,n_s_066.jpg,NA,NA,pleasant,unpleasant,NA,NA,NA,NA,NA,right,1036.29999999981,true,NA,NA,NA,NA,NA
PQ2vVrTU,3odop6t3bvxisk3y617o3pei3yp24c,3lq8puhqfp5i213p1dh19eqvzhiihs,PQ2vVrTU,2020-0188,2021-10-14,08:41:07,09:49:34,NA,incomplete,false,true,NA,7,31,NA,gray,m_l_075.jpg,NA,NA,unpleasant,pleasant,NA,NA,NA,NA,NA,right,1788.60000000056,true,NA,NA,NA,NA,NA
PQ2vVrTU,3odop6t3bvxisk3y617o3pei3yp24c,3lq8puhqfp5i213p1dh19eqvzhiihs,PQ2vVrTU,2020-0188,2021-10-14,08:41:07,09:49:34,NA,incomplete,false,true,NA,7,32,NA,gray,n_l_099.jpg,NA,NA,unpleasant,pleasant,NA,NA,NA,NA,NA,right,2185.70000000019,true,NA,NA,NA,NA,NA
PQ2vVrTU,3odop6t3bvxisk3y617o3pei3yp24c,3lq8puhqfp5i213p1dh19eqvzhiihs,PQ2vVrTU,2020-0188,2021-10-14,08:41:07,09:49:34,NA,incomplete,false,true,NA,7,33,NA,gray,m_l_027.jpg,NA,NA,unpleasant,pleasant,NA,NA,NA,NA,NA,right,1146.5,true,NA,NA,NA,NA,NA
PQ2vVrTU,3odop6t3bvxisk3y617o3pei3yp24c,3lq8puhqfp5i213p1dh19eqvzhiihs,PQ2vVrTU,2020-0188,2021-10-14,08:41:07,09:49:34,NA,incomplete,false,true,NA,7,34,NA,gray,m_l_067.jpg,NA,NA,pleasant,unpleasant,NA,NA,NA,NA,NA,left,1088.40000000037,true,NA,NA,NA,NA,NA
PQ2vVrTU,3odop6t3bvxisk3y617o3pei3yp24c,3lq8puhqfp5i213p1dh19eqvzhiihs,PQ2vVrTU,2020-0188,2021-10-14,08:41:07,09:49:34,NA,incomplete,false,true,NA,7,35,NA,gray,m_l_005.jpg,NA,NA,pleasant,unpleasant,NA,NA,NA,NA,NA,right,1126.20000000019,true,NA,NA,NA,NA,NA
PQ2vVrTU,3odop6t3bvxisk3y617o3pei3yp24c,3lq8puhqfp5i213p1dh19eqvzhiihs,PQ2vVrTU,2020-0188,2021-10-14,08:41:07,09:49:34,NA,incomplete,false,NA,true,7,0,NA,NA,NA,left,present,NA,NA,m_l_103.jpg,purple,n_l_099.jpg,gray,between,NA,NaN,NA,left,1945.9000000003725,1,2,489
PQ2vVrTU,3odop6t3bvxisk3y617o3pei3yp24c,3lq8puhqfp5i213p1dh19eqvzhiihs,PQ2vVrTU,2020-0188,2021-10-14,08:41:07,09:49:34,NA,incomplete,false,NA,true,7,1,NA,NA,NA,right,present,NA,NA,n_s_031.jpg,purple,n_s_114.jpg,green,between,NA,NaN,NA,right,1369.9000000003725,1,2,1115.9000000003725
PQ2vVrTU,3odop6t3bvxisk3y617o3pei3yp24c,3lq8puhqfp5i213p1dh19eqvzhiihs,PQ2vVrTU,2020-0188,2021-10-14,08:41:07,09:49:34,NA,incomplete,false,NA,true,7,2,NA,NA,NA,left,present,NA,NA,m_l_084.jpg,orange,m_l_003.jpg,brown,between,NA,NaN,NA,left,2014.7000000001863,1,2,506.29999999981374
PQ2vVrTU,3odop6t3bvxisk3y617o3pei3yp24c,3lq8puhqfp5i213p1dh19eqvzhiihs,PQ2vVrTU,2020-0188,2021-10-14,08:41:07,09:49:34,NA,incomplete,false,NA,true,7,3,NA,NA,NA,left,present,NA,NA,m_s_057.jpg,orange,n_l_085.jpg,orange,within,NA,NaN,NA,right,2144.9000000003725,0,0,572.7999999998137
PQ2vVrTU,3odop6t3bvxisk3y617o3pei3yp24c,3lq8puhqfp5i213p1dh19eqvzhiihs,PQ2vVrTU,2020-0188,2021-10-14,08:41:07,09:49:34,NA,incomplete,false,NA,true,7,4,NA,NA,NA,left,present,NA,NA,m_l_078.jpg,white,m_l_093.jpg,green,between,NA,NaN,NA,left,2058.2000000001863,1,3,958.7000000001863
PQ2vVrTU,3odop6t3bvxisk3y617o3pei3yp24c,3lq8puhqfp5i213p1dh19eqvzhiihs,PQ2vVrTU,2020-0188,2021-10-14,08:41:07,09:49:34,NA,incomplete,false,NA,true,7,5,NA,NA,NA,right,present,NA,NA,m_l_060.jpg,white,n_l_045.jpg,brown,between,NA,NaN,NA,right,1804,1,2,454.5
PQ2vVrTU,3odop6t3bvxisk3y617o3pei3yp24c,3lq8puhqfp5i213p1dh19eqvzhiihs,PQ2vVrTU,2020-0188,2021-10-14,08:41:07,09:49:34,NA,incomplete,false,NA,true,7,6,NA,NA,NA,right,present,NA,NA,m_l_086.jpg,brown,m_s_068.jpg,brown,within,NA,NaN,NA,left,1686.8999999994412,0,0,620.1000000005588
PQ2vVrTU,3odop6t3bvxisk3y617o3pei3yp24c,3lq8puhqfp5i213p1dh19eqvzhiihs,PQ2vVrTU,2020-0188,2021-10-14,08:41:07,09:49:34,NA,incomplete,false,NA,true,7,7,NA,NA,NA,left,present,NA,NA,m_s_063.jpg,white,n_s_089.jpg,white,within,NA,NaN,NA,right,952.6000000005588,0,1,286.69999999925494
PQ2vVrTU,3odop6t3bvxisk3y617o3pei3yp24c,3lq8puhqfp5i213p1dh19eqvzhiihs,PQ2vVrTU,2020-0188,2021-10-14,08:41:07,09:49:34,NA,incomplete,false,NA,true,7,8,NA,NA,NA,left,present,NA,NA,m_l_087.jpg,green,m_s_089.jpg,green,within,NA,NaN,NA,left,1401.1000000005588,1,0,382.90000000037253
PQ2vVrTU,3odop6t3bvxisk3y617o3pei3yp24c,3lq8puhqfp5i213p1dh19eqvzhiihs,PQ2vVrTU,2020-0188,2021-10-14,08:41:07,09:49:34,NA,incomplete,false,NA,true,7,9,NA,NA,NA,left,present,NA,NA,m_l_108.jpg,purple,n_l_061.jpg,purple,within,NA,NaN,NA,right,1053.699999999255,0,0,448.79999999981374
PQ2vVrTU,3odop6t3bvxisk3y617o3pei3yp24c,3lq8puhqfp5i213p1dh19eqvzhiihs,PQ2vVrTU,2020-0188,2021-10-14,08:41:07,09:49:34,NA,incomplete,false,NA,true,7,10,NA,NA,NA,right,present,NA,NA,m_l_005.jpg,gray,m_l_075.jpg,gray,within,NA,NaN,NA,right,1895.0999999996275,1,1,226.6000000005588
PQ2vVrTU,3odop6t3bvxisk3y617o3pei3yp24c,3lq8puhqfp5i213p1dh19eqvzhiihs,PQ2vVrTU,2020-0188,2021-10-14,08:41:07,09:49:34,NA,incomplete,false,true,NA,8,0,NA,red,n_l_102.jpg,NA,NA,unpleasant,pleasant,NA,NA,NA,NA,NA,left,1481.60000000056,true,NA,NA,NA,NA,NA
PQ2vVrTU,3odop6t3bvxisk3y617o3pei3yp24c,3lq8puhqfp5i213p1dh19eqvzhiihs,PQ2vVrTU,2020-0188,2021-10-14,08:41:07,09:49:34,NA,incomplete,false,true,NA,8,1,NA,red,n_l_037.jpg,NA,NA,unpleasant,pleasant,NA,NA,NA,NA,NA,right,1320.09999999963,true,NA,NA,NA,NA,NA
PQ2vVrTU,3odop6t3bvxisk3y617o3pei3yp24c,3lq8puhqfp5i213p1dh19eqvzhiihs,PQ2vVrTU,2020-0188,2021-10-14,08:41:07,09:49:34,NA,incomplete,false,true,NA,8,2,NA,red,m_l_071.jpg,NA,NA,unpleasant,pleasant,NA,NA,NA,NA,NA,left,992.699999999255,true,NA,NA,NA,NA,NA
PQ2vVrTU,3odop6t3bvxisk3y617o3pei3yp24c,3lq8puhqfp5i213p1dh19eqvzhiihs,PQ2vVrTU,2020-0188,2021-10-14,08:41:07,09:49:34,NA,incomplete,false,true,NA,8,3,NA,red,n_s_109.jpg,NA,NA,unpleasant,pleasant,NA,NA,NA,NA,NA,left,1216,true,NA,NA,NA,NA,NA
PQ2vVrTU,3odop6t3bvxisk3y617o3pei3yp24c,3lq8puhqfp5i213p1dh19eqvzhiihs,PQ2vVrTU,2020-0188,2021-10-14,08:41:07,09:49:34,NA,incomplete,false,true,NA,8,4,NA,red,n_l_018.jpg,NA,NA,pleasant,unpleasant,NA,NA,NA,NA,NA,left,1492,true,NA,NA,NA,NA,NA
PQ2vVrTU,3odop6t3bvxisk3y617o3pei3yp24c,3lq8puhqfp5i213p1dh19eqvzhiihs,PQ2vVrTU,2020-0188,2021-10-14,08:41:07,09:49:34,NA,incomplete,false,true,NA,8,5,NA,red,n_l_022.jpg,NA,NA,unpleasant,pleasant,NA,NA,NA,NA,NA,left,1694.90000000037,true,NA,NA,NA,NA,NA
PQ2vVrTU,3odop6t3bvxisk3y617o3pei3yp24c,3lq8puhqfp5i213p1dh19eqvzhiihs,PQ2vVrTU,2020-0188,2021-10-14,08:41:07,09:49:34,NA,incomplete,false,true,NA,8,6,NA,gray,n_s_014.jpg,NA,NA,unpleasant,pleasant,NA,NA,NA,NA,NA,left,1463.90000000037,true,NA,NA,NA,NA,NA
PQ2vVrTU,3odop6t3bvxisk3y617o3pei3yp24c,3lq8puhqfp5i213p1dh19eqvzhiihs,PQ2vVrTU,2020-0188,2021-10-14,08:41:07,09:49:34,NA,incomplete,false,true,NA,8,7,NA,gray,n_l_058.jpg,NA,NA,pleasant,unpleasant,NA,NA,NA,NA,NA,left,19.3000000007451,true,NA,NA,NA,NA,NA
PQ2vVrTU,3odop6t3bvxisk3y617o3pei3yp24c,3lq8puhqfp5i213p1dh19eqvzhiihs,PQ2vVrTU,2020-0188,2021-10-14,08:41:07,09:49:34,NA,incomplete,false,true,NA,8,8,NA,gray,m_l_004.jpg,NA,NA,pleasant,unpleasant,NA,NA,NA,NA,NA,left,1590.20000000019,true,NA,NA,NA,NA,NA
PQ2vVrTU,3odop6t3bvxisk3y617o3pei3yp24c,3lq8puhqfp5i213p1dh19eqvzhiihs,PQ2vVrTU,2020-0188,2021-10-14,08:41:07,09:49:34,NA,incomplete,false,true,NA,8,9,NA,gray,n_s_004.jpg,NA,NA,unpleasant,pleasant,NA,NA,NA,NA,NA,left,1311.70000000019,true,NA,NA,NA,NA,NA
